Sensor string: E
Serial number: 1970-01-0000
Firmware version: 2,015
Hardware version: 2,2
Calibration quality: 5
ax	ay	az	gx	gy	gz	mx	my	mz

-1.012844	0.118706	-0.076982	-1.96	-2.17	0.07	0.4293	-0.0215	-0.1983	Reference
-0.99796	0.124928	-0.095892	0.7	-2.38	0.91	0.4306	-0.0172	-0.2042	
-1.00833	0.114314	-0.07747	-2.38	-1.96	1.26	0.4291	-0.017	-0.1981	
-1.008818	0.11956	-0.04209	-3.99	-1.96	1.19	0.4294	-0.023	-0.1968	
-1.004548	0.115046	-0.035136	-5.88	-3.64	1.19	0.4233	-0.0179	-0.1891	
-1.007354	0.116998	-0.053192	-4.9	-4.69	0.77	0.4279	-0.0229	-0.1953	
-1.006988	0.118584	-0.063806	-3.29	-3.78	0.63	0.4294	-0.023	-0.1968	
-1.007354	0.124074	-0.059048	-1.12	-3.36	0.63	0.4358	-0.0352	-0.188	
-1.007232	0.122732	-0.055876	0	-2.87	0.7	0.4253	-0.0304	-0.197	
-1.010282	0.119804	-0.057462	-0.84	-2.38	0.7	0.4308	-0.0232	-0.1998	
-1.005036	0.1159	-0.052948	-1.54	-1.4	0.7	0.4284	-0.0337	-0.1986	
-1.007476	0.117242	-0.054656	-1.12	-1.33	0.49	0.4281	-0.0275	-0.1969	
-1.0065	0.122122	-0.050386	0.91	-1.19	0.35	0.4265	-0.026	-0.1984	
-1.008086	0.119194	-0.052704	0.07	-1.12	0.07	0.4284	-0.0352	-0.2002	
-1.009306	0.116876	-0.055876	-0.49	-0.77	-0.14	0.4262	-0.0183	-0.1982	
-1.009794	0.116876	-0.049898	0	-0.21	0	0.4192	-0.0255	-0.1954	
-1.011014	0.117486	-0.053436	-0.77	-0.7	0	0.428	-0.026	-0.1969	
-1.005524	0.11956	-0.059414	0.7	-0.7	-0.21	0.4188	-0.0165	-0.1981	
-1.007476	0.118706	-0.056364	0.28	-0.49	-0.14	0.4223	-0.0303	-0.1985	
-1.00589	0.118096	-0.057096	-0.91	0	0.14	0.4191	-0.0227	-0.2028	
-1.008818	0.116266	-0.052094	-0.91	0.21	0	0.4307	-0.0199	-0.1937	
-1.00711	0.116144	-0.048312	-1.47	0.21	0.14	0.429	-0.0138	-0.195	
-1.009428	0.116266	-0.04941	-1.54	0.21	0.28	0.4296	-0.029	-0.1924	
-1.01016	0.117608	-0.050996	-1.33	0.21	0.21	0.4322	-0.0215	-0.1922	
-1.008818	0.118706	-0.05185	-0.98	0.28	0	0.4264	-0.023	-0.1998	
-1.010282	0.12017	-0.055388	-0.98	-0.14	0	0.4268	-0.0321	-0.2001	
-1.011746	0.119804	-0.055022	-0.28	-0.35	-0.28	0.4261	-0.0153	-0.1966	
-1.013332	0.121146	-0.064172	-1.05	-0.98	-0.49	0.4217	-0.0165	-0.1936	
-1.010282	0.118462	-0.056242	-1.26	-0.21	-0.21	0.4179	-0.0284	-0.1924	
-1.008818	0.119072	-0.052216	-0.28	0.14	-0.56	0.4204	-0.0194	-0.1906	
-1.005036	0.1159	-0.056364	-0.56	0.14	-0.42	0.4324	-0.0261	-0.1954	
-1.012722	0.123464	-0.058316	-0.77	-0.49	-0.63	0.4355	-0.0293	-0.1954	
-1.013088	0.123342	-0.057706	-1.96	-1.47	-0.63	0.4187	-0.0149	-0.1966	
-1.009794	0.125294	-0.060146	-0.7	-1.47	-0.91	0.4291	-0.0169	-0.1951	
-1.00894	0.122976	-0.058926	-0.49	-0.98	-0.77	0.4237	-0.0288	-0.1954	
-1.00955	0.123464	-0.057096	-0.35	-0.84	-0.49	0.4221	-0.026	-0.206	
-1.012966	0.119926	-0.050264	0.56	-1.05	-0.42	0.4278	-0.0199	-0.1967	
-1.009672	0.118584	-0.048068	0.21	-1.61	-0.7	0.4252	-0.0289	-0.1954	
-1.007964	0.116266	-0.055388	-0.7	-2.17	-0.77	0.4263	-0.0213	-0.1952	
-1.010526	0.113948	-0.054168	-0.42	-2.1	-0.56	0.422	-0.0229	-0.2044	
-1.0126	0.109556	-0.05185	-0.21	-2.17	-0.28	0.4336	-0.0203	-0.2028	
-1.014674	0.10919	-0.050264	-0.84	-2.17	0	0.422	-0.0226	-0.1953	
-1.012966	0.11407	-0.05063	0.35	-2.8	-0.28	0.434	-0.0296	-0.206	
-1.016748	0.113216	-0.05734	-0.63	-3.85	-0.7	0.4266	-0.0258	-0.1938	
-1.01809	0.113338	-0.057462	0.49	-4.2	-1.12	0.4311	-0.0291	-0.1939	
-1.016016	0.111996	-0.055754	0.42	-4.76	-1.61	0.4237	-0.0272	-0.1939	
-1.017602	0.11895	-0.051972	-0.07	-5.6	-2.24	0.4321	-0.0187	-0.1997	
-1.017114	0.117608	-0.054046	0.49	-5.88	-2.38	0.4261	-0.0169	-0.1996	
-1.014552	0.11895	-0.053924	0.07	-6.79	-2.45	0.4205	-0.0228	-0.2044	
-1.015406	0.12322	-0.053558	0.91	-7.14	-2.73	0.4191	-0.0223	-0.1892	
-1.015894	0.120292	-0.039528	-0.14	-7.14	-2.73	0.4205	-0.0213	-0.2058	
-1.01382	0.119072	-0.040504	-0.42	-8.12	-2.66	0.4203	-0.0169	-0.2102	
-1.007232	0.111508	-0.045628	-0.56	-8.89	-2.24	0.4175	-0.0196	-0.2043	
-1.015284	0.10431	-0.03721	-1.61	-9.52	-2.38	0.4085	-0.0162	-0.2057	
-1.01992	0.107238	-0.028304	0.14	-10.29	-2.94	0.4158	-0.0155	-0.2208	
-1.022482	0.113582	-0.025254	0.56	-11.62	-3.08	0.4303	-0.0128	-0.2101	
-1.02114	0.115168	-0.032452	0.42	-12.32	-3.5	0.4176	-0.0231	-0.2195	
-1.024068	0.112362	-0.028182	-0.21	-12.39	-4.13	0.4203	-0.0169	-0.2087	
-1.017724	0.106018	-0.015494	1.89	-12.32	-3.92	0.4173	-0.0172	-0.2254	
-1.015894	0.104432	-0.0244	-0.07	-13.3	-3.85	0.4159	-0.0184	-0.2164	
-1.016504	0.106628	-0.01952	1.26	-13.86	-3.64	0.4111	-0.0092	-0.2206	
-1.016748	0.103456	-0.007686	-0.77	-14.28	-3.5	0.4096	-0.0094	-0.2282	
-1.015528	0.10309	-0.010126	0.84	-15.33	-3.29	0.4144	-0.0168	-0.2163	
-1.024678	0.096258	-0.000122	-0.42	-15.96	-3.64	0.4072	-0.0215	-0.2316	
-1.02053	0.103822	0.008174	0.98	-17.36	-3.5	0.4188	-0.0174	-0.23	
-1.01321	0.10675	0.004758	1.12	-18.2	-3.78	0.4025	-0.0136	-0.2284	
-1.01565	0.107482	0.001464	-1.12	-18.76	-3.15	0.399	-0.0013	-0.2295	
-1.018212	0.106262	0.013054	0.49	-19.25	-2.87	0.4044	-0.0248	-0.2438	
-1.02236	0.099186	0.028792	-1.19	-20.23	-2.73	0.4108	-0.0037	-0.2417	
-1.023458	0.096502	0.030988	0.07	-21.07	-2.87	0.4051	-0.0066	-0.2463	
-1.020042	0.09333	0.038064	-1.4	-21.77	-2.73	0.4037	-0.009699999	-0.2494	
-1.021506	0.08845	0.048434	-3.78	-22.54	-2.94	0.392	-0.0092	-0.251	
-1.021872	0.09028	0.052216	-0.49	-24.71	-3.15	0.3859	-0.0044	-0.2524	
-1.02358	0.085034	0.056364	-1.12	-27.09	-2.59	0.3967	-0.0173	-0.2618	
-1.027606	0.078568	0.064172	-2.03	-28.56	-2.38	0.3981	-0.014	-0.2496	
-1.02724	0.072346	0.073078	-3.08	-30.17	-3.08	0.383	-0.0063	-0.2691	
-1.016138	0.069418	0.08845	-4.62	-32.41	-3.85	0.3817	-0.011	-0.2753	
-1.01016	0.074542	0.08295999	-4.69	-34.86	-4.76	0.3815	-0.0061	-0.2645	
-1.018334	0.068564	0.110166	-2.94	-36.89	-3.64	0.3758	-0.0089	-0.2661	
-1.014308	0.063196	0.115168	-4.34	-39.06	-3.22	0.3815	-0.0053	-0.2902	
-1.00894	0.069174	0.12444	-4.62	-41.44	-3.36	0.3681	-0.0015	-0.2856	
-1.007476	0.07747	0.147986	-2.52	-42.35	-4.69	0.3678	0.0057	-0.2945	
-1.015894	0.073688	0.146156	0.91	-43.54	-4.69	0.3638	-0.003	-0.2902	
-1.007232	0.076494	0.175924	0.49	-45.43	-3.57	0.3593	-0.0018	-0.3068	
-0.994666	0.061	0.18361	-7.28	-48.51	-4.2	0.3624	-0.0063	-0.3024	
-0.991616	0.060634	0.20923	0.56	-48.86	-3.64	0.3448	-0.0056	-0.3055	
-0.977342	0.061122	0.237168	-1.68	-50.54	-3.78	0.3325	0.0064	-0.3263	
-0.969656	0.050752	0.237046	-5.67	-53.2	-3.64	0.3212	-0.0036	-0.3236	
-0.947208	0.05612	0.268034	-0.28	-54.67	-4.41	0.3267	0.0048	-0.337	
-0.953064	0.07442	0.30317	0.63	-56.21	-3.85	0.3272	-0.0074	-0.3419	
-0.959164	0.062952	0.327204	1.05	-57.82	-2.1	0.312	0.0037	-0.3446	
-0.956236	0.050264	0.352336	3.15	-60.06	-0.35	0.305	-0.0034	-0.3418	
-0.939156	0.034892	0.355386	3.15	-61.67	1.33	0.3031	0.0071	-0.3476	
-0.90829	0.038796	0.372832	3.15	-61.88	2.03	0.2858	-0.0016	-0.363	
-0.892796	0.052338	0.383202	5.81	-60.06	1.26	0.2813	0.0017	-0.3584	
-0.859856	0.04941	0.39955	5.18	-60.97	2.17	0.2841	0.0028	-0.3674	
-0.853268	0.048678	0.421388	6.37	-59.36	1.61	0.271	0.0015	-0.3826	
-0.852292	0.062952	0.470066	10.99	-56.98	1.33	0.2609	-0.0027	-0.3873	
-0.863638	0.061244	0.483852	3.01	-58.59	1.96	0.2459	0.0053	-0.3947	
-0.857782	0.0671	0.485926	3.36	-58.17	2.17	0.2475	0.0021	-0.3978	
-0.825208	0.074054	0.523136	2.38	-56.49	2.31	0.2347	-0.0077	-0.3921	
-0.812032	0.068808	0.540948	1.12	-54.11	1.68	0.2302	-0.0063	-0.4041	
-0.811178	0.05978	0.545584	-0.63	-54.11	2.31	0.2245	-0.0095	-0.4164	
-0.796416	0.05612	0.55571	1.19	-52.01	1.68	0.2125	-0.0042	-0.4102	
-0.787632	0.061488	0.577304	3.57	-49.91	1.89	0.2065	-0.0009	-0.4116	
-0.77287	0.05795	0.593286	1.82	-49.35	2.31	0.1977	-0.0025	-0.4283	
-0.767136	0.061244	0.607926	0.98	-48.37	2.59	0.1915	0.0053	-0.4266	
-0.762012	0.051484	0.643672	-0.28	-47.6	2.31	0.1773	-0.0046	-0.4269	
-0.73383	0.06466	0.662704	-3.01	-49.63	3.15	0.173	-0.0075	-0.4285	
-0.737246	0.070516	0.659288	-0.28	-48.09	0.84	0.1718	-0.0139	-0.4408	
-0.731146	0.065636	0.683566	-4.34	-50.75	3.78	0.1642	-0.009	-0.4407	
-0.70577	0.076494	0.68869	0.91	-49.42	2.17	0.1494	-0.0053	-0.4421	
-0.703574	0.078324	0.699304	-1.61	-47.18	2.66	0.1362	-0.005	-0.4543	
-0.691618	0.059048	0.70577	-7.63	-48.37	1.75	0.1391	-0.005	-0.4497	
-0.68015	0.068686	0.719312	-3.85	-47.25	1.68	0.1245	-0.006	-0.4543	
-0.671122	0.07905599	0.726876	-4.48	-46.83	1.96	0.1289	-0.0061	-0.4498	
-0.651602	0.073932	0.749446	-5.04	-46.06	0.98	0.1099	-0.0072	-0.4635	
-0.646234	0.074176	0.762378	-4.06	-45.64	1.82	0.0975	0.0072	-0.457	
-0.65514	0.063806	0.781898	-2.94	-47.32	1.68	0.0964	-0.0002	-0.4542	
-0.62464	0.056242	0.787144	-0.14	-47.11	2.38	0.09299999	0.0103	-0.46	
-0.595848	0.04636	0.770796	-1.12	-46.13	1.68	0.0799	0.0079	-0.4585	
-0.577304	0.061854	0.791536	1.4	-43.4	1.75	0.0716	-0.0039	-0.465	
-0.559736	0.043798	0.813374	-0.28	-41.72	0.63	0.0642	-0.0037	-0.468	
-0.5612	0.045018	0.832772	-1.47	-40.6	1.33	0.0712	0.0049	-0.4708	
-0.56608	0.05551	0.846314	-0.63	-41.3	1.61	0.0552	0.0015	-0.4573	
-0.53863	0.061854	0.850462	-1.82	-37.94	1.68	0.0513	-0.009099999	-0.4667	
-0.518866	0.057462	0.855952	-3.57	-33.88	0.21	0.0436	-0.0029	-0.4725	
-0.506422	0.07564	0.867298	-2.8	-31.92	0.98	0.0359	0.0066	-0.4677	
-0.48007	0.063562	0.869128	-1.12	-29.05	0.63	0.0366	-0.0084	-0.4636	
-0.498858	0.060756	0.870592	-1.68	-27.3	0.42	0.0289	-0.0006	-0.468	
-0.489586	0.071736	0.871934	-1.61	-22.82	-0.21	0.0193	-0.0153	-0.4669	
-0.494588	0.066002	0.879132	-1.61	-21.49	-1.05	0.0184	0.0044	-0.4678	
-0.468358	0.06832	0.872178	-0.91	-19.74	-0.49	0.009699999	0.0017	-0.4679	
-0.457378	0.066856	0.88084	0.21	-18.13	-1.68	0.0154	0.0059	-0.4723	
-0.47397	0.071004	0.892674	0.77	-15.47	-1.4	0.0066	0.0063	-0.4708	
-0.478606	0.060756	0.898164	0	-14	-0.84	0.0039	0.0003	-0.4725	
-0.474214	0.059048	0.897676	-2.03	-12.46	-1.89	0.0036	0.0068	-0.4602	
-0.478362	0.062708	0.897554	-1.47	-11.41	-0.91	-0.0034	0.0023	-0.4695	
-0.456036	0.053924	0.898286	-2.73	-12.53	-1.33	0.0082	0.0031	-0.474	
-0.467382	0.063928	0.909266	-0.28	-6.65	-1.96	-0.0062	-0.0006	-0.4726	
-0.459086	0.051118	0.90524	-2.52	-7.56	-1.4	0.0023	0.0035	-0.4709	
-0.453596	0.05307	0.902556	-0.49	-4.48	-2.03	0.0007	0.0065	-0.4739	
-0.451888	0.050142	0.905606	-1.61	-1.61	-2.17	-0.0082	0.0104	-0.4586	
-0.449936	0.056242	0.907314	-0.56	-2.17	-1.26	-0.0155	0.0104	-0.4723	
-0.447252	0.047336	0.912072	-0.91	-0.7	-1.4	-0.0079	0.0041	-0.4664	
-0.446276	0.04819	0.916098	-0.21	0.84	-0.84	-0.0032	-0.0019	-0.4605	
-0.444446	0.04331	0.926102	-1.19	1.33	0.21	-0.0016	-0.0052	-0.4651	
-0.440054	0.054046	0.923906	0.56	3.92	0.42	-0.0068	0.0129	-0.4767	
-0.442372	0.05429	0.922564	-1.12	5.11	-0.35	0.0009	0.0003	-0.4786	
-0.435052	0.059048	0.91927	1.54	8.4	0.77	-0.005	0.0037	-0.477	
-0.43859	0.053192	0.921466	0.7	11.34	-0.14	-0.0034	0.0026	-0.4588	
-0.44164	0.050996	0.915244	1.4	13.58	0.35	0.0024	0.0021	-0.4679	
-0.450912	0.044286	0.912926	0.07	14.35	0.63	0.002	0.009699999	-0.4662	
-0.447862	0.052826	0.907558	-0.56	16.03	0.77	0.0082	0.0031	-0.4755	
-0.467992	0.052582	0.900726	2.59	21.7	-0.14	0.0049	0.0111	-0.4662	
-0.46238	0.055754	0.88877	-2.73	25.06	-0.63	0.0106	0.0139	-0.4661	
-0.461892	0.058438	0.885842	0	26.81	-0.14	0.0167	0.0092	-0.4616	
-0.512644	0.044164	0.884744	0.56	28.07	-0.49	0.0227	0.0071	-0.4708	
-0.50203	0.024644	0.881084	-5.74	31.43	-3.08	0.0273	0.0009999999	-0.4664	
-0.5063	0.058926	0.865956	-1.33	37.94	-1.75	0.0332	0.0023	-0.4633	
-0.518256	0.046604	0.856562	-2.38	34.3	-1.61	0.036	0.004	-0.4527	
-0.520818	0.04636	0.84546	-0.84	39.62	-1.82	0.0495	-0.0013	-0.4604	
-0.54229	0.04087	0.829722	-2.17	40.11	-1.68	0.0509	-0.0016	-0.4695	
-0.551562	0.040504	0.820572	-0.14	43.47	-1.4	0.0597	-0.0019	-0.4649	
-0.565592	0.043066	0.814106	-1.19	45.01	-0.98	0.0668	0.0041	-0.4526	
-0.581208	0.042456	0.796782	0.07	46.48	-1.12	0.0668	0.0054	-0.4632	
-0.591822	0.04697	0.788852	1.61	49.07	-0.49	0.0932	0.0045	-0.4525	
-0.599996	0.04941	0.775066	1.26	50.4	-0.28	0.0964	-0.0001	-0.4512	
-0.612806	0.049654	0.76799	0.49	51.8	0.07	0.0958	0.0119	-0.4523	
-0.632326	0.050264	0.743468	1.19	53.62	0	0.1004	0.0089	-0.4448	
-0.646722	0.04819	0.736392	1.33	54.67	0.7	0.1195	0.0063	-0.454	
-0.659776	0.04636	0.715408	1.19	56.07	0.91	0.1268	0.009099999	-0.4508	
-0.67771	0.046604	0.701134	0.91	56.77	1.05	0.1255	0.0047	-0.4449	
-0.69174	0.046848	0.68747	1.05	57.54	1.05	0.1316	0	-0.4435	
-0.705526	0.053192	0.6649	1.75	58.59	1.61	0.1471	0.0148	-0.4325	
-0.713944	0.046726	0.64599	1.4	58.66	1.96	0.165	0.0075	-0.4432	
-0.732122	0.04453	0.63501	1.68	59.99	2.1	0.1639	-0.0014	-0.442	
-0.750666	0.039284	0.625006	1.82	60.62	2.59	0.1844	0.0011	-0.4267	
-0.7686	0.040382	0.600606	1.96	61.11	2.73	0.183	-0.0004	-0.4313	
-0.780068	0.046848	0.573522	3.99	61.11	3.36	0.2006	-0.0009	-0.4192	
-0.794952	0.054046	0.554124	4.34	61.11	3.99	0.2153	-0.0014	-0.4146	
-0.815692	0.05185	0.541314	4.69	62.3	4.41	0.2154	-0.0028	-0.4116	
-0.821914	0.052704	0.518378	5.25	61.18	4.55	0.2256	-0.0019	-0.4146	
-0.829478	0.06466	0.49959	7.42	60.76	4.76	0.241	-0.0175	-0.4045	
-0.842898	0.071858	0.475312	6.86	62.09	4.48	0.2463	-0.0038	-0.3965	
-0.856684	0.078568	0.457378	6.93	62.58	4.27	0.2526	-0.0146	-0.3922	
-0.86437	0.079666	0.445056	6.58	62.58	4.06	0.2525	-0.0112	-0.38	
-0.875594	0.084302	0.420412	7	63.42	4.62	0.2594	-0.0025	-0.3828	
-0.88511	0.08295999	0.399184	6.44	63.42	5.46	0.2858	-0.0018	-0.3721	
-0.895846	0.07991	0.381494	5.81	63.21	5.6	0.2845	-0.0065	-0.3783	
-0.903776	0.082594	0.358924	5.95	63.07	5.81	0.2984	-0.022	-0.3666	
-0.910364	0.08418	0.350872	7.77	63.42	6.44	0.3042	-0.019	-0.3574	
-0.938912	0.092964	0.328302	8.26	62.51	5.81	0.3101	-0.019	-0.3483	
-0.938058	0.10187	0.299754	9.59	62.86	6.02	0.3156	-0.0113	-0.3375	
-0.948428	0.09394	0.281088	8.33	62.02	5.53	0.3222	-0.0268	-0.3379	
-0.96502	0.0915	0.263886	3.5	62.09	5.25	0.3296	-0.0285	-0.3304	
-0.971852	0.092598	0.245464	6.58	62.86	5.04	0.338	-0.0179	-0.3195	
-0.968558	0.105164	0.192516	8.12	62.72	4.69	0.3423	-0.0163	-0.3118	
-0.983442	0.127124	0.174582	4.48	60.97	2.03	0.3576	-0.0304	-0.3001	
-0.976854	0.119804	0.145546	3.36	60.48	1.68	0.3688	-0.0172	-0.3012	
-0.983198	0.127612	0.132126	5.11	59.64	1.75	0.3749	-0.0214	-0.2801	
-0.97783	0.134444	0.118584	4.13	58.38	1.89	0.3792	-0.02	-0.2755	
-0.982222	0.143838	0.098332	4.76	55.58	2.38	0.377	-0.0365	-0.2715	
-0.977586	0.152744	0.06466	3.57	55.65	3.15	0.3811	-0.0305	-0.2683	
-0.970632	0.15372	0.061366	5.04	55.93	3.71	0.3919	-0.0412	-0.2549	
-0.978928	0.1403	0.042456	-3.01	56.7	3.78	0.3866	-0.0211	-0.2498	
-0.986248	0.127368	0.008052	-1.47	53.9	5.04	0.4017	-0.0306	-0.2395	
-0.991738	0.123342	-0.01281	-1.68	52.92	5.18	0.4048	-0.0336	-0.2335	
-0.993568	0.130296	-0.025254	2.94	52.71	5.81	0.415	-0.0308	-0.2258	
-0.9821	0.12261	-0.037698	4.55	52.64	6.86	0.4212	-0.0386	-0.223	
-0.998448	0.129076	-0.063074	5.74	51.38	7	0.4241	-0.0369	-0.2139	
-0.990274	0.142618	-0.057218	6.86	50.54	6.02	0.4164	-0.0288	-0.2061	
-0.983442	0.148596	-0.097844	2.8	49.49	5.39	0.4201	-0.0471	-0.2036	
-0.977708	0.131028	-0.104066	2.87	49.77	5.46	0.4252	-0.029	-0.2	
-0.980148	0.137738	-0.132736	9.73	48.37	6.37	0.4345	-0.0396	-0.1851	
-0.985394	0.15433	-0.153964	7.21	47.53	7.21	0.4375	-0.0411	-0.1776	
-0.9943	0.128954	-0.158356	6.58	47.39	8.26	0.4374	-0.0379	-0.1745	
-0.997228	0.124684	-0.156404	9.66	47.39	8.05	0.4437	-0.0472	-0.1702	
-1.000034	0.15677	-0.199104	14.14	45.5	8.05	0.4391	-0.0435	-0.155	
-0.99979	0.145546	-0.2013	12.95	46.69	5.46	0.4527	-0.0511	-0.1339	
-1.001986	0.161772	-0.241072	7.42	47.46	3.5	0.4411	-0.0552	-0.1356	
-0.972462	0.171166	-0.27694	7.14	47.88	4.13	0.4456	-0.0569	-0.1341	
-0.991372	0.18727	-0.278282	7.21	47.11	4.55	0.4468	-0.0507	-0.1279	
-0.98332	0.18056	-0.286944	5.25	45.85	4.27	0.4602	-0.0542	-0.1234	
-0.990152	0.182268	-0.296338	5.18	43.33	4.41	0.4532	-0.0612	-0.1161	
-0.969412	0.195932	-0.312686	7.56	40.95	4.06	0.4658	-0.0462	-0.1005	
-0.95282	0.185806	-0.33916	7.63	40.74	4.9	0.4575	-0.0579	-0.0993	
-0.942816	0.169214	-0.370026	8.61	38.22	4.9	0.4632	-0.0535	-0.0961	
-0.94062	0.184342	-0.394426	6.23	37.03	3.71	0.4638	-0.067	-0.0874	
-0.96868	0.191052	-0.388082	3.92	35.91	3.36	0.4618	-0.0548	-0.08859999	
-1.003694	0.206302	-0.378932	2.59	32.55	3.29	0.4576	-0.0587	-0.0736	
-0.999302	0.18239	-0.34648	-1.54	31.85	4.83	0.4636	-0.0622	-0.0797	
-0.939156	0.170556	-0.376004	2.59	29.82	7.91	0.4592	-0.0616	-0.0661	
-0.919392	0.16897	-0.417118	8.82	26.04	8.4	0.4722	-0.0576	-0.066	
-0.938058	0.184952	-0.476532	10.29	24.36	5.04	0.4564	-0.066	-0.0662	
-0.96563	0.161528	-0.44469	6.23	26.18	3.92	0.4595	-0.0687	-0.0481	
-0.991372	0.17873	-0.347456	2.24	25.97	3.78	0.458	-0.0672	-0.0526	
-0.95099	0.1952	-0.325008	5.18	23.94	3.57	0.4667	-0.0643	-0.0419	
-0.926102	0.196542	-0.365878	4.97	17.01	4.13	0.4636	-0.0628	-0.0495	
-0.92598	0.19947	-0.42578	8.4	15.4	2.87	0.4626	-0.0717	-0.0421	
-0.950136	0.213622	-0.446154	4.97	14.21	2.17	0.4713	-0.06879999	-0.036	
-0.93452	0.213622	-0.429196	2.87	15.4	0.49	0.4771	-0.0674	-0.0299	
-0.917928	0.201544	-0.407114	3.71	15.33	0.7	0.4593	-0.0637	-0.0359	
-0.897188	0.19764	-0.421754	10.29	13.37	1.47	0.4608	-0.0651	-0.0268	
-0.915366	0.179828	-0.441762	7.77	9.66	1.61	0.4715	-0.07319999	-0.0301	
-0.966118	0.17873	-0.43127	1.82	8.89	0.7	0.4695	-0.0624	-0.0267	
-0.941108	0.186538	-0.416874	0.14	10.92	-0.28	0.4681	-0.0638	-0.0252	
-0.889746	0.16897	-0.433466	2.1	9.8	0	0.4655	-0.0698	-0.0254	
-0.889014	0.161772	-0.457744	4.76	6.02	0.84	0.4641	-0.0726	-0.0179	
-0.915854	0.157624	-0.491172	5.11	4.48	0.07	0.4697	-0.0669	-0.0238	
-0.923662	0.180804	-0.490684	6.02	5.67	-0.7	0.4627	-0.0744	-0.0301	
-0.91012	0.181292	-0.464454	5.88	4.9	-0.35	0.4622	-0.0622	-0.0298	
-0.894504	0.174826	-0.472994	8.12	3.78	-0.49	0.4741	-0.0655	-0.0207	
-0.899384	0.1769	-0.476288	7.77	2.24	-1.05	0.4671	-0.0728	-0.0225	
-0.921588	0.187636	-0.460062	5.11	2.24	-0.84	0.4668	-0.0665	-0.0132	
-0.917074	0.18483	-0.429928	2.03	2.87	-1.26	0.4713	-0.0684	-0.0193	
-0.88328	0.181902	-0.432856	1.82	1.96	-1.54	0.4674	-0.0803	-0.0182	
-0.870226	0.190076	-0.454938	4.34	1.47	-1.68	0.4728	-0.0698	-0.0148	
-0.874374	0.192638	-0.463844	9.45	3.5	-1.61	0.4611	-0.0693	-0.0163	
-0.844728	0.150792	-0.477874	8.82	6.44	-1.96	0.4701	-0.076	-0.0226	
-0.84546	0.147498	-0.475678	5.18	10.92	-3.57	0.4631	-0.083	-0.0137	
-0.862296	0.155062	-0.441396	7.14	10.78	-2.52	0.4639	-0.0678	-0.0117	
-0.9089	0.160064	-0.417484	4.27	10.22	-2.73	0.4639	-0.0661	-0.0041	
-0.936472	0.180682	-0.383568	-0.77	8.4	-3.43	0.4683	-0.068	-0.0102	
-0.917806	0.187514	-0.409066	-0.63	9.24	-1.89	0.4681	-0.0619	-0.0116	
-0.888404	0.171654	-0.465064	1.26	5.11	-0.91	0.4652	-0.0633	-0.0101	
-0.905606	0.148962	-0.504714	2.17	3.78	-1.61	0.4639	-0.0677	-0.0087	
-0.91622	0.146156	-0.50935	3.92	4.48	-2.24	0.47	-0.0726	-0.0104	
-0.901092	0.156404	-0.495198	4.41	3.36	-1.89	0.4596	-0.069	-0.0057	
-0.915122	0.17446	-0.494832	7	0.14	-1.4	0.4623	-0.0647	-0.0117	
-0.915	0.171044	-0.484096	7.14	0.56	-3.22	0.4607	-0.0613	-0.0009999999	
-0.915	0.14152	-0.464454	4.34	-2.38	-4.41	0.4651	-0.0619	-0.0146	
-0.903166	0.149816	-0.455914	1.33	-4.41	-5.04	0.4723	-0.0574	-0.0054	
-0.861808	0.155306	-0.482144	0.14	-6.23	-4.2	0.4651	-0.0616	-0.007	
-0.842776	0.149694	-0.525576	1.68	-7.42	-3.29	0.4606	-0.0584	-0.0054	
-0.870958	0.143472	-0.521184	1.12	-6.72	-2.59	0.4711	-0.0635	-0.008599999	
-0.905484	0.152744	-0.490928	-1.68	-6.3	-1.61	0.4665	-0.0584	0.0005	
-0.906582	0.155794	-0.469578	-1.75	-7.28	-1.4	0.4709	-0.0588	-0.0039	
-0.895968	0.162138	-0.48434	-3.08	-8.89	-0.98	0.4651	-0.0616	-0.0055	
-0.910364	0.176412	-0.494344	-5.88	-9.03	-0.63	0.4636	-0.0601	-0.0085	
-0.92293	0.170068	-0.491904	-8.54	-9.52	-0.63	0.4739	-0.061	-0.0236	
-0.93086	0.163968	-0.464698	-10.29	-10.08	-1.19	0.4592	-0.0601	-0.0161	
-0.922808	0.160918	-0.45628	-12.25	-11.55	-1.54	0.4589	-0.0542	-0.0204	
-0.91561	0.16531	-0.47031	-11.2	-14.14	-1.82	0.471	-0.0622	-0.0161	
-0.92537	0.154208	-0.469456	-11.13	-16.52	-1.89	0.4654	-0.0683	-0.0269	
-0.93818	0.142008	-0.458598	-12.6	-18.34	-2.45	0.465	-0.0591	-0.0236	
-0.925248	0.138592	-0.456646	-10.15	-20.44	-2.24	0.4667	-0.0639	-0.0298	
-0.91622	0.14518	-0.460306	-5.95	-22.54	-1.61	0.4693	-0.058	-0.0311	
-0.930982	0.148474	-0.465796	-5.25	-24.36	-1.19	0.4741	-0.0674	-0.0344	
-0.93818	0.147742	-0.443958	-6.58	-25.41	-1.12	0.4635	-0.0593	-0.0327	
-0.930738	0.15067	-0.423706	-8.89	-26.18	-1.05	0.4678	-0.0569	-0.0478	
-0.925126	0.164334	-0.430416	-10.29	-27.58	-1.54	0.4753	-0.062	-0.054	
-0.930616	0.166774	-0.43676	-10.99	-29.54	-1.33	0.4676	-0.0542	-0.0613	
-0.956602	0.166164	-0.418338	-14.35	-30.66	-1.61	0.4694	-0.0603	-0.0569	
-0.966118	0.153476	-0.396622	-16.38	-31.5	-1.54	0.4604	-0.057	-0.0629	
-0.969412	0.155062	-0.372222	-15.75	-33.18	-1.47	0.4646	-0.0512	-0.0658	
-0.970998	0.167384	-0.355752	-17.36	-35.98	-2.8	0.4632	-0.0542	-0.0659	
-0.97417	0.167384	-0.3721	-16.45	-39.27	-3.5	0.4573	-0.0542	-0.078	
-0.983076	0.165066	-0.3599	-15.05	-41.37	-3.22	0.4694	-0.0612	-0.0888	
-0.99918	0.190076	-0.302682	-15.33	-43.05	-3.22	0.4587	-0.0531	-0.08859999	
-0.962946	0.155794	-0.32452	-14.07	-48.09	-1.26	0.4572	-0.0521	-0.1097	
-0.99186	0.188246	-0.333914	-17.64	-48.93	-4.97	0.4518	-0.0625	-0.1085	
-0.972462	0.179218	-0.317444	-16.17	-46.76	-6.79	0.4557	-0.0521	-0.1128	
-0.979782	0.195932	-0.278648	-14.56	-49.28	-6.65	0.4569	-0.0462	-0.1141	
-0.976732	0.183854	-0.2562	-20.09	-51.31	-6.72	0.457	-0.0482	-0.1308	
-0.982832	0.166286	-0.280844	-20.09	-52.85	-7.14	0.4509	-0.0434	-0.1337	
-0.965142	0.152988	-0.264374	-25.9	-48.16	-7.63	0.4506	-0.0377	-0.1457	
-0.970144	0.167018	-0.218014	-23.38	-46.13	-9.24	0.4446	-0.0347	-0.1562	
-0.984784	0.165798	-0.16104	-16.38	-44.1	-9.87	0.4421	-0.0455	-0.1656	
-0.977586	0.148962	-0.133834	-12.81	-45.15	-9.38	0.4328	-0.0328	-0.1622	
-0.965996	0.155306	-0.11346	-5.11	-45.36	-9.1	0.4341	-0.0302	-0.1758	
-0.942206	0.149816	-0.107726	-3.01	-46.55	-7.56	0.4342	-0.0333	-0.1759	
-0.96807	0.15311	-0.099918	-2.87	-49.35	-7.56	0.424	-0.0348	-0.1926	
-0.977342	0.132614	-0.059658	-5.53	-47.74	-7.21	0.4237	-0.0289	-0.2	
-0.980758	0.128344	-0.02135	-4.06	-46.34	-7.28	0.4224	-0.0322	-0.2107	
-0.993324	0.114192	0.000976	-1.75	-46.69	-6.86	0.4191	-0.0245	-0.212	
-0.990518	0.1037	0.035014	5.53	-42.98	-5.11	0.4208	-0.0292	-0.2136	
-0.982832	0.101382	0.042456	3.78	-45.71	-4.41	0.4179	-0.0308	-0.2197	
-1.008086	0.120048	0.041114	1.19	-49.28	-5.25	0.416	-0.0217	-0.224	
-1.00467	0.128344	0.057706	0.21	-48.72	-5.67	0.4134	-0.0278	-0.2288	
-1.015528	0.095038	0.080764	5.04	-47.95	-5.32	0.4029	-0.0246	-0.2393	
-1.016138	0.07198	0.136884	1.82	-47.46	-5.32	0.4003	-0.0322	-0.244	
-1.005402	0.06527	0.151768	19.18	-46.69	-5.39	0.3959	-0.0323	-0.2531	
-0.984174	0.110044	0.07625	17.08	-53.13	-5.04	0.3894	-0.0184	-0.2588	
-0.963678	0.088938	0.137982	11.62	-55.09	-5.04	0.3765	-0.0243	-0.2711	
-0.970632	0.117608	0.159576	21.7	-56.91	-5.6	0.3796	-0.0295	-0.2879	
-1.001132	0.129076	0.170312	10.36	-62.72	-5.32	0.3632	-0.0242	-0.2893	
-0.98881	0.130662	0.17629	2.59	-64.19	-5.11	0.3665	-0.0322	-0.2986	
-0.953308	0.137982	0.169946	-2.8	-60.83	-4.69	0.3545	-0.0257	-0.303	
-0.945988	0.132492	0.20862	-2.24	-57.61	-4.48	0.3467	-0.0165	-0.3103	
-0.957822	0.135176	0.242536	-3.5	-58.73	-4.41	0.346	-0.035	-0.32	
-0.97173	0.118096	0.263032	-5.74	-61.95	-4.34	0.3513	-0.0217	-0.3271	
-0.968314	0.114558	0.2745	-10.71	-63.98	-3.29	0.3366	-0.021	-0.3256	
-0.942084	0.109556	0.270596	-11.69	-62.79	-3.01	0.3229	-0.0101	-0.3374	
-0.90158	0.096502	0.291092	-12.81	-61.39	-2.52	0.3157	-0.0131	-0.3466	
-0.899628	0.085034	0.309758	-11.76	-60.62	-2.94	0.3067	-0.0082	-0.3495	
-0.902556	0.07808	0.34465	-7.91	-62.65	-2.87	0.3095	-0.007	-0.3571	
-0.921466	0.076128	0.36356	-11.83	-65.52	-2.1	0.2969	-0.0205	-0.3696	
-0.896334	0.079788	0.393206	-9.24	-65.87	-0.56	0.2862	-0.0108	-0.3648	
-0.885354	0.088938	0.432612	-10.57	-65.38	0	0.2862	-0.0111	-0.3769	
-0.887428	0.08357	0.43188	-9.45	-64.05	1.75	0.2657	-0.0119	-0.383	
-0.885964	0.074664	0.4636	-3.99	-62.3	3.78	0.2551	-0.0052	-0.3798	
-0.824964	0.06954	0.466528	-9.66	-63.77	3.5	0.2404	-0.005	-0.3935	
-0.802272	0.072468	0.483852	-7.42	-63.84	3.71	0.2389	-0.0037	-0.4056	
-0.811544	0.025742	0.497516	-10.22	-63.21	3.99	0.2304	-0.0108	-0.3997	
-0.806908	0.008662	0.528138	-5.74	-63.7	4.62	0.2196	0.0014	-0.4115	
-0.790194	0.033428	0.553148	-2.94	-63.91	5.53	0.2114	-0.0134	-0.4165	
-0.76982	0.05246	0.57645	-4.76	-63	3.92	0.2019	0.0034	-0.4236	
-0.769454	0.064294	0.611342	-6.23	-62.09	3.08	0.1948	-0.0019	-0.4101	
-0.756034	0.073444	0.628544	-3.36	-60.9	2.94	0.1871	0.0054	-0.4296	
-0.763232	0.055388	0.630618	-4.13	-58.45	2.17	0.1744	-0.0059	-0.4254	
-0.750056	0.062098	0.692716	-7.77	-58.52	1.82	0.1671	-0.0057	-0.43	
-0.720044	0.066612	0.694668	-4.34	-56.98	0.84	0.1436	-0.0065	-0.4391	
-0.70028	0.051972	0.69601	-10.08	-54.11	-0.49	0.1449	-0.0036	-0.4421	
-0.675392	0.070394	0.695522	-7.84	-54.74	-0.07	0.1505	0.0035	-0.4479	
-0.649162	0.059902	0.724558	-6.16	-55.79	0.35	0.1377	-0.0064	-0.4452	
-0.660508	0.05673	0.746884	-6.3	-54.04	1.12	0.1302	-0.0016	-0.4496	
-0.665388	0.054778	0.751886	-8.54	-53.27	2.17	0.1193	0.0109	-0.4508	
-0.632204	0.053558	0.751032	-4.55	-52.71	1.82	0.1123	0.0035	-0.4541	
-0.606706	0.037332	0.754936	-4.55	-51.1	1.19	0.09779999	0.0013	-0.4496	
-0.587064	0.054046	0.785314	-6.58	-50.4	0	0.0845	0.0016	-0.4587	
-0.58377	0.081862	0.819474	-2.66	-49.21	0.28	0.0801	0.0034	-0.4571	
-0.583038	0.082716	0.807152	-4.62	-49	0.77	0.0669	0.0024	-0.4587	
-0.583282	0.087474	0.830698	0.49	-45.85	0.49	0.0529	0.0196	-0.4643	
-0.561932	0.053924	0.82594	-2.73	-45.71	-0.21	0.055	0.0059	-0.4632	
-0.525576	0.039772	0.814228	-4.41	-46.2	0.63	0.0472	0.0168	-0.4644	
-0.506788	0.061732	0.841068	-2.94	-41.72	0.28	0.0402	0.0095	-0.4676	
-0.507764	0.054656	0.855098	-4.55	-40.67	0.63	0.0386	0.0124	-0.4736	
-0.485194	0.069296	0.85705	-3.08	-39.27	1.05	0.0211	0.0089	-0.4632	
-0.477874	0.066246	0.843386	-2.45	-37.31	0.14	0.0209	0.0135	-0.463	
-0.471164	0.05734	0.871446	-4.55	-35	0.28	0.0164	0.0169	-0.4569	
-0.491538	0.050264	0.890356	-2.17	-32.06	-1.47	0.0107	0.0123	-0.4676	
-0.478362	0.043798	0.895114	-5.25	-38.29	-0.35	-0.0042	0.0188	-0.4765	
-0.468114	0.039284	0.902922	-1.33	-34.02	-2.24	-0.0026	0.0158	-0.4751	
-0.446398	0.051484	0.89914	-2.38	-31.64	-1.82	-0.0072	0.0207	-0.4689	
-0.409554	0.03538	0.885354	-0.77	-34.58	0	-0.008599999	0.0191	-0.4735	
-0.414434	0.056974	0.899262	1.75	-29.89	-2.03	-0.0144	0.0179	-0.4736	
-0.407602	0.058316	0.910974	-1.54	-33.46	-0.42	-0.0142	0.0132	-0.4767	
-0.372588	0.0671	0.905972	-1.12	-31.36	-2.1	-0.0306	0.0204	-0.4644	
-0.39406	0.072712	0.892674	0.7	-28.77	-1.96	-0.0481	0.0164	-0.4706	
-0.378688	0.062586	0.921344	-4.55	-25.9	-2.17	-0.0378	0.0159	-0.4737	
-0.352824	0.055266	0.93025	-7	-24.57	-2.8	-0.0496	0.0181	-0.4691	
-0.38369	0.042578	0.958676	-4.34	-21.49	-4.2	-0.0632	0.0264	-0.4643	
-0.372466	0.033916	0.956846	-5.53	-24.85	-3.08	-0.0495	0.0153	-0.4601	
-0.371124	0.062586	0.947696	-1.05	-20.79	-2.24	-0.0601	0.0231	-0.469	
-0.33306	0.039406	0.931104	-3.99	-22.68	-1.47	-0.0717	0.0207	-0.4645	
-0.324886	0.053558	0.947208	-0.7	-16.94	-1.61	-0.0661	0.0262	-0.478	
-0.319274	0.019764	0.931104	-1.54	-15.89	-1.33	-0.0691	0.028	-0.4703	
-0.325618	0.024156	0.94733	-2.94	-7.98	-2.38	-0.0658	0.0206	-0.4615	
-0.323788	0.02501	0.960872	-1.4	-5.67	-3.57	-0.072	0.0285	-0.4582	
-0.317932	0.030134	0.982222	-0.91	-2.87	-2.87	-0.0678	0.0312	-0.4627	
-0.31415	0.026474	0.9821	0.14	-1.47	-2.73	-0.0746	0.021	-0.4615	
-0.31049	0.039772	0.991494	0	0.21	-2.03	-0.07	0.0162	-0.4601	
-0.30683	0.044408	0.986126	-0.21	2.1	-2.1	-0.0672	0.0189	-0.4676	
-0.305	0.036966	0.982344	1.05	3.01	-1.82	-0.0748	0.0254	-0.4674	
-0.305854	0.034648	0.97844	1.26	4.9	-0.84	-0.0705	0.0267	-0.4658	
-0.294386	0.015372	0.96136	0.98	7.84	1.19	-0.0646	0.0262	-0.4734	
-0.307562	0.00976	0.952942	1.68	9.66	1.26	-0.0586	0.0231	-0.4659	
-0.31903	0.008662	0.949404	2.24	12.74	0.49	-0.0553	0.0156	-0.4601	
-0.325984	0.01769	0.95831	2.1	15.26	-0.07	-0.0734	0.0252	-0.4704	
-0.343674	0.031598	0.965264	2.03	16.8	-0.35	-0.0543	0.0259	-0.4673	
-0.356728	0.04819	0.971852	1.89	17.85	-0.35	-0.0602	0.0263	-0.4628	
-0.36783	0.042212	0.977342	2.45	21	0.14	-0.0483	0.0226	-0.4689	
-0.37576	0.038308	0.966972	1.68	23.1	-0.28	-0.0438	0.0209	-0.466	
-0.385032	0.030622	0.962702	0.84	24.99	-1.05	-0.0506	0.0076	-0.4664	
-0.352092	0.03477	0.952698	-2.45	26.67	-0.84	-0.0438	0.0195	-0.4645	
-0.343674	0.027084	0.929762	2.03	31.78	0.63	-0.0424	0.0207	-0.472	
-0.385886	0.018422	0.92537	1.61	31.71	0.14	-0.0293	0.0231	-0.4719	
-0.372832	0.005978	0.912072	0.42	34.02	0	-0.0261	0.0184	-0.4721	
-0.399184	0.020374	0.915488	0	34.86	-1.12	-0.0176	0.0241	-0.4719	
-0.395646	0.020496	0.913292	-0.56	37.8	-1.33	-0.0143	0.0166	-0.466	
-0.419436	0.030622	0.919392	1.05	41.23	-2.59	-0.0014	0.0235	-0.4688	
-0.428708	0.027328	0.913658	2.73	44.45	-2.87	-0.0098	0.0148	-0.4661	
-0.454694	0.035868	0.90585	2.31	46.13	-1.4	0.0092	0.0141	-0.463	
-0.463112	0.025132	0.884378	2.17	48.86	-0.91	0.0136	0.0123	-0.4631	
-0.474946	0.02074	0.884134	5.11	51.31	-1.12	0.0277	0.0269	-0.4641	
-0.486292	0.025864	0.857416	4.27	52.08	-1.19	0.0371	0.0127	-0.4676	
-0.494344	0.021228	0.828502	5.32	54.67	-0.28	0.0503	0.0135	-0.469	
-0.503128	0.029768	0.817156	5.95	55.51	0.28	0.0607	0.0101	-0.4676	
-0.550098	0.032208	0.79788	4.83	58.45	-0.7	0.0709	0.0111	-0.4675	
-0.543998	0.030012	0.784216	4.41	58.17	0.07	0.06659999	0.0084	-0.4616	
-0.580598	0.044042	0.77897	7.91	61.25	0.63	0.0813	0.0092	-0.4661	
-0.585234	0.048922	0.761768	7.21	63.21	0.35	0.0914	0.012	-0.4569	
-0.619272	0.044652	0.748714	3.36	63.91	1.19	0.102	0.0038	-0.4616	
-0.634156	0.04941	0.735294	1.82	63.28	1.54	0.1077	0.0085	-0.4494	
-0.658556	0.04514	0.707234	0.42	62.37	2.17	0.1177	0.014	-0.4507	
-0.66673	0.038674	0.687836	1.4	63.7	3.01	0.1342	0.0073	-0.4463	
-0.678076	0.033062	0.650992	-0.21	65.59	3.43	0.1355	0.0102	-0.4493	
-0.707356	0.040016	0.634888	0.98	65.24	4.06	0.156	0.0126	-0.4401	
-0.74359	0.042334	0.61732	5.18	68.39	5.18	0.1618	0.0123	-0.4431	
-0.738344	0.0549	0.593164	3.78	65.17	4.62	0.1594	0.0019	-0.4358	
-0.75396	0.06039	0.573522	2.66	64.54	5.04	0.1931	0.0037	-0.4282	
-0.800808	0.06649	0.57279	4.27	65.38	5.25	0.1989	0.0035	-0.4236	
-0.80886	0.067832	0.555466	3.15	65.17	5.46	0.1987	0.0099	-0.4158	
-0.819962	0.068442	0.538996	2.03	64.61	5.25	0.2198	-0.0047	-0.4177	
-0.81008	0.065392	0.504714	0.91	65.03	6.37	0.217	-0.0061	-0.4163	
-0.854976	0.077226	0.494832	0.56	64.19	6.37	0.2296	0.0072	-0.4053	
-0.842288	0.08418	0.4636	2.24	64.26	6.86	0.2433	-0.0038	-0.4025	
-0.86071	0.076494	0.448716	-1.33	62.58	7	0.249	0.0005	-0.3963	
-0.875716	0.076982	0.422974	1.12	63.84	7.35	0.2595	-0.0039	-0.3798	
-0.896334	0.078202	0.411262	3.01	62.51	7.35	0.2741	-0.003	-0.3782	
-0.89487	0.075518	0.383568	4.06	62.93	8.47	0.2771	-0.0046	-0.3767	
-0.905362	0.078446	0.37759	4.9	61.81	8.4	0.2817	-0.009	-0.3648	
-0.914268	0.0793	0.372222	4.76	60.97	8.4	0.3005	-0.0005	-0.3554	
-0.913414	0.087718	0.359412	4.2	60.62	8.54	0.2979	-0.0079	-0.3526	
-0.921954	0.102358	0.342088	2.8	58.24	8.61	0.3071	-0.0188	-0.3483	
-0.944402	0.105652	0.314638	2.87	56.77	8.19	0.3182	-0.0027	-0.3494	
-0.939644	0.102846	0.27877	2.38	56.7	8.33	0.3287	-0.0075	-0.3419	
-0.965874	0.126758	0.268278	3.36	54.18	8.19	0.3271	-0.0055	-0.3282	
-0.975146	0.133956	0.257542	5.95	53.13	7.7	0.3363	-0.0151	-0.3315	
-0.963434	0.11651	0.223504	3.57	53.83	7.35	0.3365	-0.0178	-0.318	
-0.960872	0.127612	0.209474	2.45	53.41	6.93	0.3484	-0.0213	-0.318	
-0.971974	0.143472	0.189466	3.22	53.27	6.09	0.3654	-0.0067	-0.3115	
-0.987102	0.136274	0.17934	-0.28	52.57	6.65	0.3599	-0.0153	-0.2997	
-0.977952	0.12627	0.144448	-0.84	51.94	7.7	0.3616	-0.0197	-0.2937	
-0.964898	0.12688	0.114314	2.03	52.57	7.91	0.3644	-0.0183	-0.2937	
-0.992836	0.132248	0.113094	5.53	51.73	7.7	0.3764	-0.0229	-0.2771	
-0.982344	0.13481	0.071492	4.62	50.96	9.03	0.3809	-0.0263	-0.2803	
-0.983198	0.108824	0.050996	5.18	49.7	9.03	0.3825	-0.0277	-0.2742	
-0.988566	0.129808	0.048312	8.82	49.98	8.26	0.3868	-0.026	-0.2606	
-0.989176	0.176534	0.009638	10.78	49.28	8.54	0.3987	-0.0295	-0.2576	
-0.982588	0.178608	-0.004148	10.29	52.08	9.38	0.3918	-0.0394	-0.2443	
-0.986492	0.176778	-0.019154	6.3	52.15	9.87	0.3975	-0.0334	-0.2395	
-0.979782	0.195322	-0.035624	4.83	54.81	10.57	0.4106	-0.0307	-0.2304	
-0.975756	0.17934	-0.024278	2.87	53.62	10.99	0.4154	-0.0413	-0.2201	
-0.983076	0.16226	-0.014518	3.57	55.09	9.8	0.4096	-0.0425	-0.2201	
-0.99247	0.181658	-0.034892	3.71	52.01	8.47	0.4154	-0.0392	-0.2018	
-0.989786	0.147986	-0.070394	-3.22	50.68	8.33	0.4242	-0.0397	-0.2033	
-1.001742	0.159454	-0.050508	1.89	48.58	8.54	0.4228	-0.0411	-0.2003	
-1.009672	0.176656	-0.062098	0.07	45.15	9.59	0.432	-0.0487	-0.1884	
-1.0248	0.20069	-0.10065	-0.42	39.69	9.38	0.4257	-0.0391	-0.1806	
-1.02297	0.222772	-0.139934	7.91	36.12	7.56	0.4305	-0.0484	-0.1793	
-1.01565	0.22997	-0.192028	14.63	33.95	5.95	0.4365	-0.0498	-0.1673	
-1.015406	0.198372	-0.200568	13.44	32.48	4.76	0.4318	-0.045	-0.1641	
-0.959774	0.204838	-0.177998	4.41	36.19	3.01	0.4397	-0.0574	-0.1614	
-0.993446	0.199226	-0.20374	18.2	31.78	0.84	0.4396	-0.0544	-0.1628	
-0.957578	0.22448	-0.200812	14.42	31.64	2.03	0.4423	-0.048	-0.149	
-1.005402	0.20923	-0.216794	14.98	27.3	3.64	0.437	-0.0613	-0.1434	
-0.966606	0.195566	-0.220454	13.79	26.88	1.82	0.4516	-0.0604	-0.1403	
-0.9699	0.210206	-0.229238	14.56	27.86	3.57	0.4442	-0.0585	-0.1387	
-0.976732	0.195566	-0.235338	5.81	25.55	3.78	0.4502	-0.0602	-0.1372	
-0.986004	0.201422	-0.252662	9.87	26.25	3.22	0.4546	-0.0619	-0.1358	
-0.982344	0.208986	-0.262178	7.35	26.18	2.1	0.4469	-0.0519	-0.1173	
-0.942206	0.2135	-0.266814	9.94	28	2.59	0.4563	-0.0659	-0.1147	
-0.974658	0.211426	-0.290604	12.11	26.04	2.38	0.4505	-0.0674	-0.1238	
-0.942328	0.204228	-0.308904	19.25	26.18	2.03	0.4577	-0.0631	-0.1191	
-0.93147	0.204472	-0.334768	15.68	28.07	2.94	0.4516	-0.0579	-0.1084	
-0.9272	0.197152	-0.342576	17.64	26.18	3.08	0.4547	-0.0611	-0.1085	
-0.932812	0.202276	-0.348798	20.02	28.84	4.48	0.4576	-0.061	-0.1024	
-0.9516	0.197396	-0.324032	15.4	32.69	4.9	0.4628	-0.0792	-0.0923	
-0.962702	0.15738	-0.321348	10.08	36.68	6.72	0.4559	-0.056	-0.0871	
-0.9882	0.162748	-0.313662	7.91	35.21	8.89	0.4622	-0.0639	-0.0904	
-0.96563	0.158966	-0.313174	6.65	34.09	9.31	0.4697	-0.0687	-0.0845	
-0.943426	0.155428	-0.316834	7.84	33.46	9.1	0.461	-0.0708	-0.0679	
-0.939888	0.159332	-0.342698	9.8	32.83	9.66	0.458	-0.069	-0.0633	
-0.945256	0.174948	-0.365634	8.4	32.83	7.91	0.464	-0.07229999	-0.0619	
-0.976732	0.203862	-0.351848	17.78	30.03	3.43	0.4644	-0.0797	-0.0545	
-0.921344	0.268888	-0.343674	24.15	26.74	3.08	0.4689	-0.0814	-0.0515	
-0.916708	0.225456	-0.425658	21.14	20.51	3.22	0.4631	-0.0838	-0.0395	
-0.879254	0.221308	-0.503982	28.63	22.19	1.26	0.4629	-0.0775	-0.0317	
-0.837896	0.243146	-0.500932	38.57	24.08	0	0.4646	-0.0838	-0.038	
-0.898042	0.248148	-0.435296	27.23	21.56	-0.91	0.4643	-0.0774	-0.0287	
-0.949892	0.209474	-0.403942	12.25	22.4	-2.52	0.4614	-0.0773	-0.0272	
-0.986004	0.212524	-0.323666	5.81	25.06	-1.26	0.4672	-0.076	-0.0286	
-0.853512	0.26901	-0.384056	4.06	20.79	1.26	0.464	-0.0691	-0.0042	
-0.84973	0.252418	-0.487878	3.01	16.59	-1.19	0.4615	-0.08	-0.0151	
-0.856562	0.22448	-0.575962	4.76	18.06	0.07	0.4673	-0.0784	-0.006	
-0.875838	0.16714	-0.561566	3.99	22.75	1.75	0.4598	-0.0737	-0.0104	
-0.91744	0.177022	-0.498492	2.66	28.7	0.21	0.4586	-0.0795	-0.0045	
-0.913536	0.188856	-0.417118	5.74	28.56	0.91	0.4614	-0.0766	-0.0029	
-0.861076	0.163114	-0.414678	8.4	26.53	-0.56	0.4748	-0.0803	-0.006	
-0.847534	0.194712	-0.471164	10.92	20.86	-2.8	0.4677	-0.0872	0.0058	
-0.896578	0.196664	-0.517036	8.75	19.25	-3.99	0.4647	-0.084	0.0089	
-0.984052	0.181414	-0.497028	2.38	19.53	-5.74	0.4613	-0.0729	0.0168	
-0.96319	0.159576	-0.449082	0.49	19.18	-5.95	0.4646	-0.0819	0.0256	
-0.89792	0.2013	-0.472262	0.56	12.95	-6.37	0.4704	-0.0794	0.0166	
-0.847168	0.203862	-0.557296	4.62	4.27	-6.16	0.4587	-0.0819	0.0165	
-0.838506	0.153598	-0.620492	5.67	2.73	-5.04	0.4689	-0.0792	0.0227	
-0.870836	0.130052	-0.586698	8.33	4.83	-4.97	0.4566	-0.0665	0.02	
-0.878888	0.123952	-0.519354	5.46	6.44	-4.55	0.4672	-0.0744	0.0273	
-0.848998	0.13115	-0.489952	3.15	4.9	-3.29	0.4628	-0.0742	0.0273	
-0.837652	0.152744	-0.519842	3.85	0.07	-3.01	0.4625	-0.0668	0.02	
-0.841312	0.16104	-0.589016	2.94	-1.75	-2.52	0.4641	-0.0697	0.026	
-0.856562	0.157868	-0.568642	2.66	0.77	-2.03	0.4668	-0.0653	0.0261	
-0.855952	0.166408	-0.52399	1.26	1.47	-1.33	0.4684	-0.0683	0.029	
-0.852536	0.178852	-0.515694	-0.63	0.42	-1.26	0.4596	-0.0682	0.0199	
-0.872788	0.159576	-0.537776	-1.4	-1.4	-1.68	0.4643	-0.07449999	0.0213	
-0.875594	0.15982	-0.537776	-1.61	-2.59	-2.24	0.4568	-0.0712	0.0168	
-0.874252	0.161284	-0.522892	-1.82	-3.22	-1.89	0.4759	-0.0719	0.0244	
-0.879376	0.160796	-0.515328	-4.41	-5.18	-3.22	0.4611	-0.068	0.0275	
-0.881938	0.174582	-0.517158	-2.24	-6.37	-3.36	0.4686	-0.07319999	0.0183	
-0.868396	0.160064	-0.522892	-2.45	-8.12	-3.64	0.4682	-0.0638	0.0277	
-0.862784	0.161528	-0.531066	0.56	-11.27	-3.85	0.4716	-0.073	0.0304	
-0.879254	0.16897	-0.546682	-2.03	-11.83	-3.71	0.4782	-0.0567	0.0249	
-0.87413	0.15738	-0.535214	-0.42	-11.69	-3.64	0.4625	-0.0669	0.0154	
-0.883158	0.142008	-0.515938	-1.96	-12.25	-3.78	0.4652	-0.0624	0.0201	
-0.888526	0.15311	-0.5063	-3.71	-13.79	-4.13	0.4669	-0.06879999	0.0093	
-0.872422	0.18117	-0.52338	-4.34	-15.68	-4.69	0.4696	-0.0628	0.0125	
-0.874374	0.169458	-0.536556	-5.39	-16.38	-4.83	0.4601	-0.0458	0.0085	
-0.884866	0.156526	-0.538752	-11.48	-18.34	-2.38	0.4663	-0.0539	0.0007	
-0.891332	0.156404	-0.522404	-5.39	-16.73	-3.71	0.4693	-0.0553	0.0082	
-0.898896	0.156282	-0.505812	-6.72	-17.29	-3.43	0.4649	-0.0552	0.0037	
-0.88267	0.143106	-0.50569	-4.48	-17.71	-3.57	0.4726	-0.0648	-0.0009999999	
-0.879864	0.14579	-0.512034	-4.97	-19.18	-3.64	0.4619	-0.0555	-0.0084	
-0.89731	0.16958	-0.510814	-5.11	-19.88	-4.2	0.4637	-0.0618	-0.0146	
-0.914756	0.16653	-0.490562	-5.6	-19.25	-4.55	0.4652	-0.0636	-0.0207	
-0.9272	0.142374	-0.459086	-7.77	-19.67	-4.83	0.4664	-0.0573	-0.0114	
-0.917074	0.138592	-0.45079	-6.93	-20.79	-5.67	0.4679	-0.0576	-0.019	
-0.921466	0.142984	-0.463234	-9.45	-23.38	-5.04	0.4651	-0.0608	-0.0297	
-0.911218	0.154452	-0.482388	-8.05	-24.57	-4.69	0.4707	-0.0563	-0.0235	
-0.931104	0.144936	-0.451034	1.05	-28.35	-3.64	0.4675	-0.0484	-0.0187	
-0.92415	0.154086	-0.455304	-10.78	-25.76	-4.69	0.4589	-0.0548	-0.0432	
-0.930982	0.147132	-0.452742	-14.77	-25.27	-4.27	0.4659	-0.0473	-0.0354	
-0.935984	0.146034	-0.422608	-8.75	-26.53	-4.27	0.4618	-0.0534	-0.0431	
-0.948428	0.129808	-0.41053	-10.99	-28.63	-4.69	0.457	-0.0457	-0.0475	
-0.949282	0.133834	-0.412482	-11.62	-29.68	-5.04	0.4679	-0.0601	-0.0554	
-0.955016	0.150914	-0.380762	-2.52	-33.95	-4.62	0.457	-0.0461	-0.0596	
-0.935252	0.152256	-0.41236	-11.41	-34.51	-4.41	0.467	-0.0404	-0.0564	
-0.954894	0.16836	-0.407846	-12.6	-32.2	-4.2	0.4572	-0.051	-0.0703	
-0.951234	0.157136	-0.356606	-9.87	-31.99	-2.31	0.4629	-0.0469	-0.0778	
-0.960872	0.143838	-0.329278	-12.67	-34.37	-1.96	0.4628	-0.0442	-0.0898	
-0.957822	0.138226	-0.33611	-12.81	-36.47	-1.54	0.4623	-0.0332	-0.0774	
-0.971242	0.13725	-0.335012	-14.42	-37.31	-1.12	0.4569	-0.0438	-0.0853	
-0.976366	0.139446	-0.31659	-13.72	-37.24	-0.84	0.4611	-0.0396	-0.0927	
-0.95648	0.137738	-0.309758	-11.62	-38.15	-0.49	0.4567	-0.0411	-0.0988	
-0.969534	0.139934	-0.29097	-13.58	-39.62	-1.12	0.4521	-0.0366	-0.1078	
-0.969168	0.140666	-0.279136	-12.04	-39.69	-1.75	0.4454	-0.0501	-0.1112	
-0.973072	0.146888	-0.266692	-10.43	-40.32	-1.89	0.4467	-0.0474	-0.1217	
-0.986736	0.152622	-0.237046	-12.04	-41.23	-2.03	0.4435	-0.0415	-0.1322	
-0.980148	0.157258	-0.223748	-14	-41.51	-2.73	0.445	-0.0432	-0.1337	
-0.982466	0.169824	-0.209962	-13.02	-43.68	-2.73	0.4462	-0.0373	-0.1381	
-0.99613	0.166408	-0.196664	-14.28	-46.06	-3.01	0.4461	-0.0344	-0.1456	
-1.004182	0.158966	-0.185196	-16.73	-47.95	-3.71	0.4361	-0.0404	-0.1579	
-0.999912	0.157502	-0.166896	-17.01	-49.07	-4.69	0.4375	-0.039	-0.1609	
-1.007964	0.143472	-0.148352	-19.46	-47.88	-4.83	0.4403	-0.038	-0.1714	
-0.999058	0.130052	-0.138714	-17.29	-45.5	-5.67	0.4258	-0.0422	-0.1837	
-0.997106	0.132492	-0.13542	-11.27	-47.74	-7	0.4251	-0.0257	-0.1908	
-0.979904	0.117974	-0.11651	-12.32	-47.39	-7.35	0.4294	-0.0244	-0.1938	
-0.969656	0.136518	-0.109922	3.92	-45.22	-7.77	0.4281	-0.0293	-0.2061	
-0.962702	0.161406	-0.07905599	0.49	-44.94	-6.72	0.4145	-0.0193	-0.1982	
-0.976854	0.14091	-0.040748	3.5	-45.92	-5.04	0.4209	-0.0308	-0.2152	
-0.978196	0.131882	0.00183	7.28	-46.9	-4.9	0.4104	-0.0273	-0.2181	
-0.987224	0.129198	0.035136	8.4	-50.54	-4.83	0.4134	-0.0277	-0.2272	
-0.972828	0.125782	0.02928	7.49	-51.94	-4.48	0.4041	-0.0184	-0.233	
-0.979294	0.102968	0.051728	15.4	-53.27	-4.76	0.409	-0.0279	-0.2394	
-0.977708	0.120292	0.074054	13.93	-54.18	-5.18	0.3939	-0.0199	-0.2513	
-0.998692	0.116632	0.111386	12.74	-55.65	-5.95	0.3849	-0.0152	-0.2587	
-1.002352	0.130174	0.116022	12.25	-58.52	-6.65	0.3886	-0.0321	-0.2607	
-0.993446	0.115778	0.126514	5.53	-62.16	-6.09	0.3925	-0.0219	-0.2695	
-1.003694	0.100528	0.125294	4.48	-63.14	-6.02	0.3737	-0.0273	-0.2727	
-0.998204	0.07515199	0.14823	4.06	-62.02	-6.3	0.3649	-0.0286	-0.2804	
-0.981246	0.084668	0.18483	9.17	-60.48	-7	0.3689	-0.02	-0.2907	
-0.957822	0.11285	0.216184	6.72	-60.34	-6.51	0.3615	-0.02	-0.3043	
-0.930128	0.13176	0.221308	1.68	-61.53	-3.08	0.3587	-0.023	-0.3075	
-0.933544	0.114802	0.254492	-4.2	-62.16	-1.19	0.3354	-0.027	-0.3243	
-0.936838	0.105774	0.285358	-5.25	-61.67	-0.56	0.3323	-0.0226	-0.3332	
-0.93757	0.09747799	0.30256	-7.28	-61.6	0.42	0.3249	-0.022	-0.3257	
-0.92537	0.079666	0.329522	-7.28	-62.58	1.05	0.3202	-0.0159	-0.3331	
-0.928298	0.07503	0.343552	-6.86	-63.7	1.26	0.309	-0.0282	-0.3531	
-0.916708	0.08418	0.348066	-6.51	-65.73	1.47	0.2984	-0.0201	-0.3529	
-0.889136	0.103578	0.367464	-7.07	-66.64	1.19	0.295	-0.011	-0.3587	
-0.897676	0.10309	0.39345	-8.89	-66.64	0.35	0.2939	-0.0189	-0.3696	
-0.89304	0.07869	0.407358	-10.64	-68.74	0.84	0.2763	-0.0183	-0.3771	
-0.901946	0.06893	0.4392	-10.22	-69.58	0.84	0.2749	-0.0195	-0.3696	
-0.879864	0.083448	0.440176	-11.2	-71.26	0.56	0.2569	-0.0115	-0.3846	
-0.84363	0.076006	0.451644	-15.82	-73.57	0.7	0.2523	-0.007	-0.3935	
-0.8235	0.062952	0.507032	-16.52	-73.64	1.33	0.2465	-0.0101	-0.4027	
-0.815936	0.051728	0.499468	-12.18	-73.15	1.89	0.2287	-0.006	-0.3951	
-0.81557	0.06734399	0.522038	-12.18	-71.96	2.1	0.2226	0	-0.4055	
-0.808738	0.07137	0.562786	-14.21	-72.52	1.47	0.2081	-0.0043	-0.4223	
-0.815692	0.065026	0.587552	-14.98	-72.59	1.54	0.2067	-0.0057	-0.4178	
-0.771284	0.067954	0.593408	-7.49	-72.52	1.96	0.1936	-0.0083	-0.4255	
-0.729438	0.046726	0.623786	-7.7	-69.09	2.73	0.1784	0.0029	-0.4267	
-0.7198	0.037698	0.64172	-8.89	-66.64	2.66	0.1767	0.0074	-0.4296	
-0.717604	0.049654	0.67222	-2.38	-65.94	1.61	0.1464	-0.0035	-0.4391	
-0.696986	0.053924	0.661606	-6.16	-66.29	1.26	0.1403	0.0011	-0.4435	
-0.671	0.061	0.675758	-6.93	-64.19	1.05	0.1327	0.0074	-0.4448	
-0.657702	0.065514	0.698572	-6.79	-61.88	1.68	0.124	0.0063	-0.4464	
-0.651114	0.067954	0.71309	-1.82	-59.92	1.47	0.1165	0.0083	-0.4403	
-0.648674	0.066246	0.727364	-5.39	-58.94	0.7	0.1048	0.0085	-0.4509	
-0.618296	0.078324	0.764208	-7.98	-59.08	-0.98	0.0976	0.0057	-0.4555	
-0.593042	0.061244	0.810568	-9.66	-57.05	-2.03	0.0844	0.0046	-0.4601	
-0.58987	0.057584	0.795684	-13.16	-56.91	-0.84	0.0753	0.0112	-0.4569	
-0.554246	0.070272	0.82228	-14.56	-53.34	-2.8	0.0638	0.0058	-0.4526	
-0.544974	0.067832	0.829966	-13.79	-48.65	-4.2	0.052	0.0075	-0.4631	
-0.529968	0.049654	0.849364	-15.75	-46.13	-3.15	0.0622	0.0103	-0.457	
-0.508862	0.047946	0.868762	-13.44	-45.01	-2.1	0.0428	0.0174	-0.4538	
-0.49471	0.02379	0.855708	-11.97	-44.66	-1.75	0.0384	0.0173	-0.4614	
-0.496296	0.000854	0.866688	-11.83	-39.55	-2.8	0.0318	0.0327	-0.4655	
-0.47458	-0.00671	0.87718	-13.02	-38.99	-0.35	0.0202	0.0303	-0.4625	
-0.457866	-0.018422	0.888648	-6.79	-36.68	0.14	0.0162	0.0196	-0.4689	
-0.448716	-0.00732	0.901458	-7.63	-32.97	-0.42	0.0156	0.0351	-0.4594	
-0.441396	-0.017202	0.898774	-5.25	-34.02	0.28	-0.0017	0.0299	-0.4565	
-0.415288	-0.012932	0.906582	0.28	-35.49	-0.07	0.01	0.0275	-0.4687	
-0.408456	-0.002318	0.923906	-3.85	-28.63	-1.54	-0.0063	0.0344	-0.4655	
-0.412848	0.01769	0.924394	-3.29	-27.3	-0.35	-0.012	0.0301	-0.4671	
-0.410164	0.019398	0.903898	1.19	-25.69	-0.98	-0.0206	0.0262	-0.4567	
-0.399306	0.017934	0.92232	-2.38	-25.34	0.42	-0.0134	0.0303	-0.4626	
-0.406626	0.009393999	0.94001	-1.61	-22.89	-0.28	-0.0281	0.0294	-0.4657	
-0.40382	0.023058	0.931348	-0.07	-21.63	0.07	-0.0353	0.0265	-0.4703	
-0.408578	0.00732	0.936838	1.75	-17.99	-0.21	-0.0296	0.0292	-0.4717	
-0.385398	-0.001952	0.937936	-0.49	-18.34	0.35	-0.0414	0.0328	-0.4717	
-0.384422	0.015738	0.945744	2.38	-12.81	0.21	-0.0398	0.0284	-0.4657	
-0.374174	0.015494	0.949648	0.35	-12.11	-0.07	-0.0418	0.0406	-0.4669	
-0.37637	0.03172	0.950136	2.94	-9.52	-0.42	-0.0473	0.0331	-0.4702	
-0.370392	0.016348	0.947208	0.91	-6.58	-1.05	-0.043	0.0345	-0.4701	
-0.369294	0.010614	0.950258	0.07	-3.57	-0.49	-0.0352	0.0235	-0.4689	
-0.366854	0.00732	0.959774	0.35	-2.45	-0.07	-0.0378	0.0158	-0.4752	
-0.363316	0.023302	0.959286	0.63	0.14	-0.49	-0.0486	0.0287	-0.4673	
-0.36295	0.036722	0.963068	1.82	0.49	-0.91	-0.0413	0.03	-0.4657	
-0.362462	0.03904	0.964166	1.12	1.89	-1.19	-0.0501	0.0304	-0.4657	
-0.35746	0.033672	0.962946	0.35	3.43	-1.26	-0.0455	0.0238	-0.4734	
-0.356118	0.021472	0.962092	-0.49	4.41	-0.91	-0.0354	0.0282	-0.4642	
-0.358924	0.021106	0.957944	-0.91	6.37	-1.96	-0.0423	0.0193	-0.4675	
-0.358924	0.003904	0.960384	-1.54	8.47	-2.31	-0.0459	0.0332	-0.4671	
-0.36173	-0.000976	0.95587	-0.28	10.78	-2.59	-0.041	0.0237	-0.4704	
-0.374052	-0.001342	0.952454	0.49	14.63	-2.59	-0.041	0.0237	-0.4704	
-0.366122	0.008174	0.94001	-0.28	16.17	-2.17	-0.0382	0.027	-0.4597	
-0.360876	0.00366	0.9333	2.94	21.98	-2.31	-0.0323	0.025	-0.4658	
-0.382714	0.024522	0.926956	1.61	26.67	-0.63	-0.0387	0.0374	-0.4685	
-0.414068	0.016226	0.921954	-2.03	27.79	-1.54	-0.015	0.0318	-0.4671	
-0.422974	0.019398	0.905484	1.05	30.8	-1.89	-0.0264	0.0247	-0.4673	
-0.429806	0.025376	0.908046	-0.21	33.18	-2.38	-0.0058	0.0236	-0.4704	
-0.45811	0.032208	0.894382	-0.35	35.07	-1.47	-0.0116	0.0223	-0.4734	
-0.45018	0.022204	0.884622	-2.38	36.54	-1.68	0.0012	0.0279	-0.4687	
-0.462868	0.025864	0.88328	-1.96	37.73	-1.75	0.0058	0.0251	-0.4551	
-0.477386	0.02013	0.876082	-7.7	41.16	-1.75	0.0056	0.0293	-0.4671	
-0.49471	0.024644	0.869616	-6.23	42.21	-2.24	0.0236	0.0192	-0.4719	
-0.511302	0.014396	0.853024	-6.37	43.47	-2.59	0.0229	0.0345	-0.47	
-0.535214	0.005978	0.844728	-10.15	45.29	-1.89	0.0348	0.0309	-0.4701	
-0.539118	-0.011834	0.832772	-8.89	45.64	-2.45	0.0422	0.0292	-0.464	
-0.549122	-0.025742	0.830454	-8.26	46.69	-1.4	0.054	0.0284	-0.4731	
-0.557052	-0.032086	0.818742	-9.52	46.9	-0.14	0.0539	0.0317	-0.4655	
-0.589748	-0.047946	0.804468	-6.58	47.88	-0.56	0.0551	0.0377	-0.4653	
-0.600484	-0.055022	0.787998	-1.4	48.02	0.35	0.0713	0.0356	-0.4623	
-0.575352	-0.04026	0.77775	-0.42	47.81	2.59	0.0728	0.0357	-0.4547	
-0.598044	-0.022082	0.76738	1.54	48.79	2.73	0.0801	0.0369	-0.4562	
-0.617808	-0.018544	0.753716	2.24	49.63	2.59	0.0918	0.0363	-0.4562	
-0.634522	-0.025742	0.738466	3.22	50.75	2.8	0.0993	0.0331	-0.4502	
-0.662338	-0.027084	0.726144	5.88	51.8	2.94	0.1125	0.0341	-0.4471	
-0.674294	-0.015128	0.722362	7.98	52.08	3.01	0.1179	0.0448	-0.4377	
-0.688812	-0.007564	0.712358	8.96	52.78	3.57	0.1331	0.0319	-0.4396	
-0.68808	-0.009516	0.691984	8.19	52.43	2.87	0.1432	0.0357	-0.4515	
-0.707112	0.006832	0.678808	10.78	54.53	3.22	0.1496	0.0253	-0.4321	
-0.719556	0.01342	0.657092	10.57	55.93	3.36	0.1552	0.0295	-0.4366	
-0.7259	0.025132	0.634034	9.73	57.82	2.66	0.1598	0.0249	-0.4306	
-0.733464	0.040626	0.607804	10.22	58.87	3.22	0.157	0.0233	-0.4352	
-0.755546	0.04697	0.60207	9.31	59.57	2.73	0.1834	0.0225	-0.4216	
-0.77409	0.052094	0.582184	9.94	60.41	2.52	0.1996	0.0221	-0.4125	
-0.782996	0.053802	0.552904	8.26	60.97	2.66	0.1966	0.0236	-0.4185	
-0.798124	0.057462	0.548878	5.95	61.04	2.03	0.2083	0.0245	-0.4199	
-0.814594	0.045384	0.533628	3.22	61.18	1.26	0.2203	0.0197	-0.4095	
-0.831308	0.04026	0.526308	0.14	61.81	1.19	0.2261	0.0209	-0.4109	
-0.8601	0.03843	0.498736	-1.47	61.18	1.96	0.2366	0.0161	-0.402	
-0.855586	0.039528	0.475068	-2.17	60.76	2.66	0.2468	0.0172	-0.4034	
-0.86559	0.031598	0.472994	-3.92	60.97	2.52	0.251	0.0217	-0.3987	
-0.879864	0.028426	0.445178	-3.43	60.06	3.71	0.2538	0.0251	-0.382	
-0.881084	0.022936	0.42883	-6.3	60.62	3.99	0.263	0.0155	-0.3838	
-0.900116	0.03538	0.41175	-5.25	60.9	4.34	0.2747	0.0181	-0.3806	
-0.89609	0.03294	0.38674	-4.41	60.06	4.76	0.2833	0.0226	-0.3684	
-0.90036	0.030866	0.371978	-7.35	60.76	4.9	0.2862	0.0243	-0.3592	
-0.921344	0.028304	0.3538	-4.34	60.41	5.18	0.2976	0.0298	-0.359	
-0.935984	0.030378	0.316224	-3.5	59.43	6.16	0.3173	0.0171	-0.3488	
-0.936472	0.01891	0.29158	-7.42	59.01	6.23	0.323	0.0202	-0.335	
-0.951844	0.020496	0.29158	-8.19	58.94	6.02	0.3242	0.0281	-0.3227	
-0.969656	0.026474	0.269376	-6.72	58.17	6.16	0.335	0.0171	-0.3185	
-0.981124	0.033428	0.244976	-6.51	57.75	7	0.3364	0.0187	-0.3139	
-0.960018	0.025132	0.226432	-6.44	58.1	7.35	0.342	0.023	-0.3168	
-0.99308	0.036112	0.224602	-4.41	57.54	7.77	0.3422	0.0186	-0.3078	
-0.990762	0.036722	0.195932	-3.85	56	8.82	0.3523	0.0231	-0.297	
-0.98027	0.046116	0.181048	-3.92	55.86	8.96	0.3656	0.0226	-0.2925	
-0.996618	0.065636	0.171776	1.05	55.72	9.94	0.3682	0.0286	-0.2893	
-0.977586	0.076738	0.134322	0.63	55.72	10.15	0.3762	0.0148	-0.2821	
-0.9943	0.08113	0.138592	2.03	56.35	9.31	0.3644	0.0157	-0.27	
-0.99613	0.085278	0.115534	1.33	55.79	8.26	0.3819	0.0181	-0.2653	
-0.990518	0.073688	0.09089	1.75	56.35	6.37	0.3957	0.0056	-0.2566	
-0.981612	0.062464	0.061122	9.03	58.38	6.16	0.3983	0.0134	-0.2442	
-0.977098	0.057462	0.041114	11.34	56.77	7.14	0.4043	0.0105	-0.2307	
-0.990884	0.058438	0.017202	18.76	53.9	9.03	0.4116	0.0133	-0.226	
-0.981002	0.079544	-0.042212	24.22	51.1	11.55	0.4072	0.0123	-0.2155	
-0.997838	0.073932	-0.060878	16.87	47.88	12.88	0.4122	-0.0015	-0.2159	
-1.00101	0.079544	-0.069418	17.5	45.64	13.51	0.4169	-0.0062	-0.2145	
-0.972706	0.07442	-0.1037	17.36	45.85	13.09	0.4288	-0.0092	-0.1933	
-0.97661	0.105286	-0.143594	21.35	46.2	11.27	0.4362	-0.0126	-0.1949	
-0.986126	0.128466	-0.161894	23.94	48.37	10.43	0.4305	-0.0152	-0.1875	
-0.99735	0.13237	-0.162504	27.23	50.68	8.75	0.4288	-0.0089	-0.1827	
-0.980026	0.136518	-0.170678	24.64	52.43	9.17	0.438	-0.0181	-0.1724	
-0.969534	0.155916	-0.211792	18.27	52.43	10.99	0.4325	-0.0268	-0.1666	
-0.977464	0.167506	-0.231922	14.63	52.36	12.6	0.4397	-0.0224	-0.1604	
-1.011258	0.158844	-0.2257	12.81	52.36	11.41	0.4355	-0.0265	-0.1499	
-1.026264	0.145058	-0.24827	9.73	50.47	12.04	0.4485	-0.0222	-0.1377	
-1.014064	0.158234	-0.23607	13.65	48.16	11.97	0.4444	-0.0294	-0.1333	
-0.980148	0.164944	-0.245708	12.74	47.46	11.62	0.4475	-0.0324	-0.1274	
-0.98637	0.191906	-0.294752	20.02	46.62	10.78	0.4563	-0.0325	-0.1167	
-0.980514	0.174216	-0.299998	16.8	45.43	9.73	0.4472	-0.0258	-0.109	
-1.004182	0.17812	-0.293044	12.18	42.63	7.84	0.4582	-0.0414	-0.1064	
-0.987346	0.182634	-0.261934	10.5	40.88	7.77	0.4556	-0.0488	-0.1021	
-0.981368	0.194834	-0.26596	10.29	37.17	6.79	0.4613	-0.0458	-0.0944	
-0.951234	0.19215	-0.343186	12.11	32.62	6.58	0.4618	-0.0567	-0.1038	
-0.956602	0.173972	-0.375516	5.39	30.1	7	0.4558	-0.0528	-0.0825	
-0.974414	0.16104	-0.378322	8.96	31.08	6.37	0.463	-0.05	-0.0809	
-0.969778	0.159088	-0.343674	3.99	30.03	6.58	0.4581	-0.0375	-0.0775	
-0.995398	0.166286	-0.315004	4.48	29.33	5.25	0.4588	-0.0543	-0.078	
-0.968558	0.14823	-0.320982	3.43	26.25	5.81	0.462	-0.0601	-0.063	
-0.935374	0.14457	-0.346358	7	24.99	6.02	0.4606	-0.0596	-0.0494	
-0.901702	0.145668	-0.39467	10.43	24.08	7	0.462	-0.0599	-0.057	
-0.883524	0.14518	-0.446154	16.31	23.59	7	0.4679	-0.0586	-0.0539	
-0.896944	0.163236	-0.461648	17.15	25.2	4.9	0.468	-0.0615	-0.0509	
-0.927444	0.169824	-0.44652	13.09	25.34	2.24	0.4724	-0.0616	-0.0449	
-0.928542	0.155672	-0.41968	12.46	26.46	1.26	0.4618	-0.0533	-0.0401	
-0.937326	0.16226	-0.400282	10.22	26.04	2.31	0.471	-0.0623	-0.0207	
-0.910608	0.153964	-0.421144	8.89	24.15	3.57	0.4633	-0.0533	-0.0356	
-0.89365	0.16287	-0.470676	10.71	21.35	3.85	0.4633	-0.0532	-0.034	
-0.870592	0.166652	-0.512522	11.2	21.77	4.13	0.4737	-0.0579	-0.0205	
-0.876814	0.169946	-0.51484	10.57	23.1	4.13	0.4726	-0.0655	-0.0238	
-0.9028	0.18117	-0.480192	6.93	24.01	3.64	0.4754	-0.0608	-0.013	
-0.940376	0.193736	-0.40382	3.43	23.03	3.36	0.4666	-0.0618	-0.01	
-0.947818	0.188368	-0.401868	0.7	20.09	3.08	0.4738	-0.0575	-0.0069	
-0.920246	0.182878	-0.4453	3.78	17.29	3.01	0.4709	-0.0588	-0.0054	
-0.876326	0.16592	-0.502518	5.74	15.68	3.15	0.4667	-0.0632	-0.0055	
-0.854854	0.162016	-0.541924	9.73	14.56	3.15	0.4728	-0.0679	0.0003	
-0.883402	0.157258	-0.527528	9.24	14.98	3.29	0.4696	-0.0632	-0.0025	
-0.935984	0.16653	-0.477386	9.17	15.54	0.35	0.4669	-0.0674	0.0079	
-0.92781	0.163968	-0.446642	8.12	13.02	0.07	0.4681	-0.0613	0.0096	
-0.902068	0.173484	-0.46665	9.31	9.45	0	0.4708	-0.0568	0.0127	
-0.86437	0.162016	-0.516914	9.52	6.16	0.91	0.4663	-0.0536	0.0113	
-0.845826	0.154818	-0.5551	8.61	5.67	1.19	0.461	-0.0669	0.0139	
-0.851926	0.153598	-0.569374	6.58	6.02	0.56	0.4712	-0.0646	0.0064	
-0.851316	0.160674	-0.546194	6.3	7.42	0.35	0.4694	-0.0581	0.0172	
-0.85583	0.158966	-0.521062	0.84	8.96	0.63	0.4712	-0.0658	0.017	
-0.883158	0.162016	-0.508984	0.21	6.86	0.14	0.4609	-0.0652	0.02	
-0.870104	0.16226	-0.517646	1.96	6.16	0.84	0.4711	-0.0628	0.0141	
-0.85888	0.161162	-0.52765	1.19	4.76	1.96	0.4593	-0.0621	0.0186	
-0.871202	0.164578	-0.53924	0.07	4.69	1.61	0.467	-0.0698	0.0275	
-0.879376	0.161162	-0.536434	-1.05	5.46	0.91	0.4657	-0.0731	0.0183	
-0.881572	0.15982	-0.52094	0.28	3.43	0.91	0.4627	-0.0716	0.0138	
-0.887794	0.15006	-0.52826	0.7	0.91	0.77	0.4627	-0.0714	0.0183	
-0.872544	0.156648	-0.537044	2.45	-0.56	0.35	0.4711	-0.0624	0.0277	
-0.86986	0.16348	-0.53314	2.03	-1.47	-0.28	0.4636	-0.0592	0.0217	
-0.870104	0.169824	-0.532164	1.96	-3.01	-0.63	0.462	-0.0564	0.0127	
-0.856928	0.159088	-0.534116	0.63	-4.69	0.28	0.4639	-0.065	0.0306	
-0.853024	0.164334	-0.547536	1.54	-5.6	-0.28	0.4697	-0.0641	0.0201	
-0.859612	0.161528	-0.543022	0.28	-5.74	-0.14	0.4728	-0.06879999	0.0199	
-0.866932	0.155428	-0.529358	-1.54	-6.09	-0.7	0.4609	-0.0652	0.02	
-0.862296	0.156648	-0.53131	-2.59	-6.23	-0.35	0.4654	-0.0655	0.017	
-0.86559	0.162016	-0.540216	-3.22	-6.58	-0.14	0.4744	-0.0704	0.0199	
-0.876692	0.162016	-0.536312	-3.57	-6.86	-0.21	0.4686	-0.0717	0.0168	
-0.881206	0.165066	-0.515206	-4.69	-6.58	-0.49	0.4655	-0.0686	0.0154	
-0.87352	0.16287	-0.50996	-5.46	-7.35	-0.42	0.47	-0.0705	0.0093	
-0.868396	0.17995	-0.525332	-3.57	-8.89	-0.35	0.4655	-0.0687	0.0108	
-0.877668	0.172264	-0.53497	-4.69	-10.01	-0.07	0.467	-0.06879999	0.0108	
-0.887306	0.151524	-0.522648	-5.25	-10.71	-0.35	0.4684	-0.0675	0.0048	
-0.887062	0.149328	-0.50203	-4.9	-11.2	-1.05	0.4651	-0.0597	0.0066	
-0.88084	0.169214	-0.50813	-4.83	-13.16	-1.33	0.4606	-0.058	0.0051	
-0.880596	0.178242	-0.515938	-3.71	-14.07	-1.05	0.4655	-0.06879999	0.0078	
-0.891332	0.168238	-0.505934	-5.18	-15.05	-0.91	0.4728	-0.0692	0.0063	
-0.899994	0.161162	-0.486658	-7.14	-16.17	-1.61	0.4653	-0.0647	-0.0071	
-0.895358	0.158234	-0.475678	-8.4	-16.66	-1.68	0.4752	-0.0562	-0.0144	
-0.887794	0.163724	-0.478728	-7.56	-17.57	-1.54	0.4673	-0.0782	0.0015	
-0.89365	0.166164	-0.483974	-6.79	-18.06	-1.75	0.4685	-0.0713	-0.0194	
-0.904142	0.167018	-0.471164	-7.07	-17.85	-1.96	0.4699	-0.0715	-0.024	
-0.90036	0.158356	-0.45262	-8.12	-18.13	-1.82	0.4711	-0.0638	-0.0192	
-0.900238	0.163846	-0.44957	-6.93	-19.6	-1.75	0.4605	-0.0574	-0.0266	
-0.905118	0.16653	-0.456646	-5.81	-20.23	-0.63	0.4683	-0.0669	-0.0253	
-0.915732	0.172386	-0.446032	-5.88	-21	-1.47	0.4609	-0.065	-0.0238	
-0.91378	0.166286	-0.449448	-4.83	-21.56	-1.05	0.4653	-0.0669	-0.0314	
-0.929152	0.16592	-0.430904	-3.99	-22.19	-1.61	0.4651	-0.0621	-0.0237	
-0.924394	0.160674	-0.417606	-5.11	-22.68	-1.75	0.4624	-0.0669	-0.0344	
-0.923662	0.171166	-0.411506	-5.04	-23.59	-1.75	0.4638	-0.0672	-0.0435	
-0.934642	0.175314	-0.395646	-5.88	-23.94	-2.17	0.4618	-0.0549	-0.0401	
-0.925858	0.168238	-0.391132	-7.84	-25.06	-2.73	0.4699	-0.0722	-0.0497	
-0.922686	0.177144	-0.388082	-6.72	-25.69	-2.94	0.4679	-0.0603	-0.06	
-0.92903	0.175924	-0.382104	-8.05	-25.55	-3.15	0.468	-0.0633	-0.0601	
-0.924028	0.158844	-0.37576	-7.35	-24.85	-3.15	0.4637	-0.0646	-0.0586	
-0.942328	0.167384	-0.349286	-9.03	-24.85	-2.66	0.4694	-0.062	-0.0661	
-0.943426	0.177998	-0.327814	-5.6	-24.36	-2.66	0.4632	-0.0544	-0.075	
-0.94794	0.159332	-0.33001	-7.28	-25.06	-2.38	0.4646	-0.0528	-0.0689	
-0.952454	0.170434	-0.326228	-6.3	-25.69	-2.24	0.4722	-0.0593	-0.0721	
-0.945866	0.165676	-0.321348	-8.4	-25.27	-2.24	0.4513	-0.0511	-0.0825	
-0.946598	0.169336	-0.312808	-7.84	-25.41	-2.45	0.4662	-0.0564	-0.0856	
-0.953918	0.172142	-0.30256	-7.63	-25.06	-2.24	0.4688	-0.0474	-0.0869	
-0.969412	0.17141	-0.277794	-5.53	-28.07	-0.28	0.4601	-0.0517	-0.09	
-0.973804	0.183244	-0.283894	-9.8	-26.95	-1.75	0.4547	-0.0609	-0.1009	
-0.975146	0.175314	-0.269254	-12.11	-26.25	-2.24	0.4515	-0.0563	-0.1038	
-0.964166	0.15982	-0.250344	-11.13	-25.83	-2.66	0.4512	-0.0486	-0.1021	
-0.970754	0.165188	-0.229726	-10.43	-28.63	-2.94	0.4585	-0.0492	-0.1112	
-0.97905	0.160064	-0.258762	-14.14	-29.4	-3.64	0.4586	-0.051	-0.1203	
-0.974536	0.169092	-0.271694	-8.68	-27.58	-3.43	0.4585	-0.0495	-0.1203	
-0.989054	0.170068	-0.173362	-11.9	-25.06	-5.18	0.4513	-0.0521	-0.1188	
-0.97112	0.146522	-0.173484	-15.19	-27.44	-5.18	0.451	-0.046	-0.1187	
-0.970632	0.135298	-0.204228	-11.13	-26.53	-5.18	0.4556	-0.0496	-0.1294	
-0.993446	0.146156	-0.21411	-9.03	-24.22	-5.25	0.4424	-0.0506	-0.134	
-0.964532	0.172142	-0.205814	-8.68	-22.75	-4.13	0.4453	-0.0496	-0.1445	
-0.950868	0.17873	-0.192272	-8.47	-24.43	-6.16	0.4477	-0.0376	-0.1487	
-0.970876	0.160064	-0.181658	-10.78	-24.15	-6.23	0.4393	-0.0478	-0.1445	
-0.980514	0.164944	-0.157136	-8.47	-23.52	-6.58	0.4463	-0.0391	-0.1503	
-0.978318	0.169702	-0.129808	-9.17	-22.75	-7.35	0.4448	-0.0392	-0.1533	
-0.985272	0.16531	-0.1159	-10.01	-23.17	-7.7	0.4348	-0.0448	-0.1535	
-0.994788	0.160186	-0.121512	-10.22	-24.43	-7.7	0.4358	-0.0345	-0.1653	
-1.001864	0.164212	-0.115534	-7.21	-24.78	-8.05	0.4329	-0.0358	-0.1593	
-1.002352	0.155306	-0.112362	-9.87	-23.73	-8.75	0.4387	-0.0331	-0.1653	
-1.00223	0.149694	-0.087596	-6.02	-22.82	-8.89	0.4328	-0.0348	-0.1774	
-0.992958	0.129808	-0.071492	-3.64	-22.89	-10.15	0.4356	-0.032	-0.1834	
-0.996862	0.119316	-0.081374	-3.57	-24.15	-11.2	0.4324	-0.0238	-0.1665	
-1.007232	0.12871	-0.06893	-0.07	-23.8	-11.9	0.4366	-0.0213	-0.1801	
-1.003572	0.129076	-0.052704	-0.49	-24.15	-12.6	0.4253	-0.0301	-0.1864	
-1.002718	0.11712	-0.03477	-1.75	-23.73	-13.16	0.4293	-0.0214	-0.1937	
-0.991372	0.119316	-0.039162	1.4	-22.47	-13.3	0.4276	-0.0154	-0.1981	
-0.987834	0.123464	-0.044164	-1.82	-21.42	-13.16	0.4258	-0.0088	-0.1827	
-0.988078	0.121268	-0.035136	-1.82	-19.53	-12.18	0.4248	-0.0198	-0.1982	
-0.990518	0.120048	-0.01159	-0.14	-16.66	-10.92	0.4186	-0.012	-0.1995	
-0.98759	0.106994	0.028304	-1.61	-15.26	-7.91	0.4272	-0.0082	-0.2145	
-0.982466	0.088328	0.033428	-2.94	-14.49	-4.9	0.4317	-0.009699999	-0.2055	
-0.98576	0.08662	0.012688	-3.64	-13.65	-3.29	0.4171	-0.0118	-0.1965	
-0.994056	0.08686399	0	-1.19	-11.76	-1.68	0.4095	-0.0056	-0.2039	
-0.994178	0.078812	0.01647	0.14	-9.24	0	0.4261	-0.0156	-0.2087	
-0.993812	0.066246	0.04026	-0.21	-9.03	1.05	0.4081	-0.0075	-0.2176	
-1.005036	0.04697	0.047946	-0.07	-8.47	2.24	0.4159	-0.0181	-0.2042	
-1.006134	0.053192	0.043432	1.12	-8.33	3.71	0.4083	-0.0115	-0.1995	
-0.997472	0.063562	0.049654	1.96	-6.23	4.76	0.4159	-0.0168	-0.2118	
-0.995886	0.081008	0.056608	4.76	-4.76	4.55	0.4023	-0.0089	-0.2252	
-0.989908	0.076128	0.053436	4.48	-3.85	3.99	0.4114	-0.0152	-0.2163	
-1.006134	0.064904	0.040382	4.34	-3.43	4.27	0.414	-0.0092	-0.2146	
-1.014918	0.060634	0.042212	4.34	-1.75	5.18	0.4247	-0.0189	-0.2179	
-0.99552	0.082716	0.021472	5.81	-0.7	7.56	0.4016	-0.0253	-0.2151	
-0.999546	0.09467199	0.032208	7.07	0.63	7.98	0.4047	-0.0302	-0.2198	
-1.011014	0.098454	0.042822	5.04	1.26	8.75	0.4131	-0.0212	-0.2134	
-1.006744	0.109678	0.035868	6.72	1.82	10.43	0.4146	-0.0227	-0.2089	
-1.001498	0.117486	0.042456	5.88	1.89	11.9	0.4132	-0.0242	-0.209	
-0.996984	0.132248	0.030988	5.18	2.87	12.32	0.4176	-0.023	-0.215	
-0.995276	0.13176	0.026962	3.85	3.43	13.51	0.4221	-0.0262	-0.212	
-1.006622	0.140666	0.022814	5.11	3.85	14.28	0.4003	-0.0297	-0.2107	
-1.00284	0.141154	0.012078	4.27	4.55	15.61	0.4152	-0.0365	-0.2139	
-1.009794	0.144326	0.0061	5.46	5.6	17.5	0.4166	-0.0337	-0.2183	
-1.011624	0.165188	0.013298	7.28	6.65	19.25	0.4195	-0.0337	-0.2153	
-1.007354	0.175558	0.007686	7.63	7.56	21.63	0.4172	-0.0474	-0.2172	
-1.00711	0.201666	0.022692	8.47	7.21	22.68	0.4199	-0.043	-0.2186	
-1.006622	0.179218	0.010614	1.05	5.74	23.66	0.4204	-0.0534	-0.2098	
-0.998936	0.180926	-0.020496	7.42	4.97	27.16	0.422	-0.0567	-0.2159	
-1.011014	0.147742	-0.014884	4.62	3.99	30.31	0.4132	-0.0575	-0.2054	
-1.001254	0.1708	-0.029036	9.1	3.85	30.87	0.4153	-0.0711	-0.2012	
-1.000156	0.1891	-0.027328	9.03	4.41	30.1	0.4138	-0.0695	-0.1982	
-0.99125	0.211914	-0.043554	13.51	4.06	32.13	0.42	-0.0775	-0.2044	
-0.987346	0.21838	-0.050386	13.58	2.94	33.88	0.4176	-0.0898	-0.2139	
-1.001254	0.219356	-0.063318	15.26	2.59	35.21	0.4054	-0.08	-0.2091	
-1.00589	0.21655	-0.038552	17.15	3.22	36.47	0.4085	-0.08329999	-0.2122	
-0.993812	0.233996	-0.02501	13.44	2.8	37.87	0.4138	-0.1031	-0.2037	
-0.971852	0.251442	-0.036112	11.83	1.82	39.55	0.4081	-0.1074	-0.2069	
-0.956114	0.263032	-0.052948	7.84	0.84	39.76	0.4187	-0.1137	-0.1979	
-0.950258	0.284992	-0.084302	10.36	0.56	39.06	0.417	-0.1092	-0.2023	
-0.956236	0.315858	-0.06649	16.03	2.17	38.43	0.4058	-0.1225	-0.2058	
-0.964532	0.343308	-0.041236	14.98	0.91	38.99	0.4179	-0.1307	-0.206	
-0.970754	0.347944	-0.049898	19.18	-0.56	41.37	0.4109	-0.1376	-0.1926	
-0.96136	0.346358	-0.068564	20.16	-0.91	42.77	0.4183	-0.1395	-0.1972	
-0.959652	0.344284	-0.065758	16.1	-0.49	43.61	0.4084	-0.1466	-0.1944	
-0.945622	0.369782	-0.071492	7.63	-1.19	44.38	0.4042	-0.1511	-0.1975	
-0.937326	0.421266	-0.063318	11.97	-2.87	43.33	0.4104	-0.159	-0.1977	
-0.924516	0.427244	-0.066368	8.05	-2.31	41.23	0.4035	-0.1692	-0.195	
-0.906704	0.44957	-0.062708	10.5	-0.77	39.34	0.3933	-0.1717	-0.1936	
-0.90158	0.445666	-0.047092	13.79	-1.61	37.66	0.3967	-0.1812	-0.1999	
-0.91927	0.443592	-0.076616	5.18	-4.97	36.75	0.4073	-0.1892	-0.1971	
-0.901946	0.46177	-0.088084	1.75	-1.89	35.21	0.3813	-0.1983	-0.1868	
-0.889624	0.491294	-0.06405	-2.66	-0.91	33.18	0.3915	-0.1976	-0.1974	
-0.87047	0.497882	-0.047946	-7.84	-0.98	31.43	0.3886	-0.1973	-0.1913	
-0.86315	0.495564	-0.060756	-8.68	-0.77	29.75	0.3804	-0.2104	-0.1842	
-0.866444	0.518134	-0.055876	-9.59	-0.98	28.49	0.3819	-0.2109	-0.1978	
-0.876692	0.538874	-0.040748	-11.48	-0.63	27.09	0.3864	-0.2141	-0.1964	
-0.8662	0.524234	-0.062586	-9.45	-2.24	26.74	0.379	-0.2123	-0.1994	
-0.860222	0.533506	-0.053192	-5.88	-2.1	25.13	0.3797	-0.2292	-0.2044	
-0.853146	0.543266	-0.045628	-3.64	-1.96	24.43	0.3858	-0.234	-0.203	
-0.844118	0.553392	-0.04026	-3.99	-2.87	24.71	0.3811	-0.226	-0.1982	
-0.849608	0.552416	-0.044164	-4.83	-4.06	24.36	0.3751	-0.2242	-0.1982	
-0.836554	0.554246	-0.034892	-0.07	-4.62	23.87	0.3724	-0.2286	-0.1968	
-0.830576	0.56364	-0.04697	0.77	-4.76	22.96	0.374	-0.2321	-0.2075	
-0.830332	0.571448	-0.056486	-1.26	-4.34	21.63	0.3668	-0.2345	-0.1985	
-0.835822	0.577182	-0.043188	-1.26	-2.94	19.25	0.364	-0.2392	-0.2062	
-0.825818	0.59109	-0.035746	4.76	-2.87	18.34	0.3573	-0.2541	-0.2082	
-0.822402	0.58987	-0.042578	-1.68	-0.63	15.33	0.3586	-0.2493	-0.1959	
-0.805444	0.630618	-0.066246	4.69	4.41	12.32	0.3599	-0.2467	-0.2095	
-0.790316	0.640744	-0.035624	5.18	5.18	12.11	0.3571	-0.248	-0.208	
-0.773724	0.614758	-0.046482	3.57	5.18	12.18	0.3626	-0.2404	-0.2002	
-0.762256	0.613782	-0.063074	5.11	3.92	12.32	0.365	-0.2601	-0.1932	
-0.777384	0.63257	-0.059048	3.43	4.34	11.9	0.3605	-0.2602	-0.2023	
-0.799954	0.608414	-0.02135	-0.35	3.43	10.71	0.3559	-0.2554	-0.2037	
-0.80703	0.606584	-0.005368	1.61	1.89	10.64	0.3633	-0.2556	-0.1991	
-0.799588	0.609756	-0.035258	3.36	0.21	11.34	0.3618	-0.2553	-0.19	
-0.799466	0.614758	-0.048556	2.45	0.14	10.99	0.3567	-0.2736	-0.1997	
-0.801052	0.617808	-0.041724	0.07	0.42	9.24	0.3505	-0.2644	-0.2055	
-0.808982	0.62159	-0.02928	0.28	0.98	7.35	0.3582	-0.2736	-0.1966	
-0.801418	0.62281	-0.027938	0.35	0.7	5.74	0.3548	-0.2627	-0.1948	
-0.787022	0.622444	-0.040138	0.21	0.35	3.71	0.3591	-0.2598	-0.1917	
-0.791414	0.627324	-0.045018	0.42	0.49	1.54	0.3566	-0.2703	-0.192	
-0.784948	0.628544	-0.04514	0.07	0.84	-0.07	0.3489	-0.2609	-0.1948	
-0.792146	0.627202	-0.041724	-0.28	0.84	-1.47	0.3433	-0.2684	-0.1995	
-0.793488	0.627812	-0.047458	0.84	0.77	-2.66	0.3523	-0.2718	-0.1981	
-0.787022	0.62586	-0.046604	0.07	1.26	-4.06	0.3566	-0.2703	-0.1905	
-0.78141	0.63928	-0.058926	-1.12	1.33	-5.32	0.3503	-0.2597	-0.2008	
-0.775432	0.63867	-0.067222	-1.89	2.03	-6.16	0.3591	-0.2614	-0.1948	
-0.786046	0.631106	-0.05612	-2.17	2.52	-7.42	0.3537	-0.2704	-0.1981	
-0.790682	0.631716	-0.05002	-2.66	2.59	-8.89	0.3606	-0.2615	-0.1963	
-0.786534	0.633668	-0.05185	-3.29	2.38	-10.57	0.3476	-0.2654	-0.1919	
-0.794464	0.627324	-0.05673	-2.17	2.24	-11.76	0.3711	-0.2667	-0.201	
-0.80337	0.62281	-0.05185	-3.99	1.82	-13.58	0.3663	-0.2573	-0.1992	
-0.799954	0.624762	-0.049898	-2.17	1.96	-15.4	0.3674	-0.2483	-0.2004	
-0.801174	0.61061	-0.043798	-3.5	1.82	-16.73	0.3591	-0.2614	-0.1948	
-0.807884	0.595726	-0.045994	-4.48	0.77	-17.29	0.3589	-0.2555	-0.2022	
-0.810446	0.59414	-0.05551	-3.99	0.42	-18.06	0.3626	-0.2403	-0.1941	
-0.812154	0.589138	-0.057462	-3.99	0.77	-19.25	0.3597	-0.2417	-0.1942	
-0.816424	0.584868	-0.050996	-1.4	1.19	-20.09	0.3702	-0.2469	-0.2004	
-0.822402	0.568032	-0.050264	-2.31	1.33	-21.77	0.3746	-0.2471	-0.2004	
-0.830942	0.572546	-0.060146	1.75	1.33	-22.33	0.3697	-0.2346	-0.197	
-0.833138	0.566324	-0.064416	-2.31	1.68	-23.24	0.3716	-0.2456	-0.2064	
-0.84363	0.556808	-0.058072	-0.56	2.24	-24.08	0.3712	-0.2365	-0.2076	
-0.848388	0.549732	-0.045872	2.1	2.66	-24.92	0.3738	-0.2271	-0.1937	
-0.856562	0.532164	-0.044652	2.31	1.54	-26.25	0.3826	-0.2277	-0.2013	
-0.863028	0.52399	-0.0549	3.57	1.4	-26.67	0.3884	-0.2262	-0.1937	
-0.871934	0.513864	-0.058804	2.52	1.26	-27.09	0.382	-0.2138	-0.1933	
-0.871324	0.512766	-0.053924	1.61	1.68	-28.42	0.385	-0.2152	-0.1858	
-0.872178	0.50752	-0.048312	1.61	1.96	-29.68	0.3863	-0.2124	-0.1918	
-0.883036	0.495686	-0.04392	1.61	1.4	-30.66	0.3918	-0.2036	-0.1945	
-0.889624	0.48983	-0.045384	0.35	0.42	-31.15	0.3919	-0.2052	-0.1961	
-0.894748	0.479704	-0.053924	-3.15	-0.07	-31.43	0.393	-0.1976	-0.1944	
-0.90341	0.471164	-0.051118	-3.57	0.35	-31.64	0.3957	-0.1914	-0.1881	
-0.903776	0.462502	-0.038186	-0.42	0.63	-31.57	0.4028	-0.1875	-0.1986	
-0.920368	0.437614	-0.036966	-5.25	-0.91	-31.71	0.398	-0.178	-0.1938	
-0.925004	0.410164	-0.067588	-9.17	-1.54	-31.78	0.4043	-0.1874	-0.191	
-0.924882	0.403942	-0.081008	-1.96	0	-32.48	0.4011	-0.1813	-0.1954	
-0.94001	0.398086	-0.066124	0.28	1.26	-32.41	0.3975	-0.166	-0.198	
-0.93452	0.399184	-0.0488	-1.4	0.35	-31.99	0.3915	-0.1641	-0.1964	
-0.950136	0.355264	-0.05002	-4.34	-0.7	-32.48	0.4046	-0.1618	-0.1994	
-0.939888	0.35258	-0.077958	-1.05	-0.42	-32.13	0.4149	-0.1606	-0.1948	
-0.951478	0.362706	-0.068076	-0.98	-0.14	-33.04	0.4086	-0.1526	-0.19	
-0.952332	0.356972	-0.059536	4.2	0.7	-33.04	0.4095	-0.139	-0.1926	
-0.940254	0.35014	-0.049898	-1.12	-0.35	-31.85	0.4156	-0.1439	-0.1958	
-0.95099	0.335988	-0.054778	-6.65	-0.28	-32.27	0.4048	-0.133	-0.2031	
-0.95587	0.324398	-0.079178	-6.02	0.49	-32.62	0.4149	-0.1289	-0.2029	
-0.973072	0.296216	-0.044774	-3.78	1.26	-32.27	0.4121	-0.13	-0.1908	
-0.979294	0.28914	-0.051362	-1.61	-0.98	-31.99	0.4149	-0.1275	-0.2059	
-0.979538	0.277916	-0.058194	-5.18	-1.75	-31.29	0.4088	-0.1226	-0.2058	
-0.971974	0.292312	-0.047214	-2.52	0	-31.43	0.4099	-0.1149	-0.1995	
-0.977708	0.277672	-0.051728	-12.11	-0.28	-31.43	0.4199	-0.1077	-0.1977	
-0.981124	0.257054	-0.054046	-13.79	-0.77	-30.87	0.4122	-0.1014	-0.2021	
-0.994788	0.259738	-0.05002	-9.94	-1.12	-32.27	0.4149	-0.0937	-0.1943	
-0.986614	0.239608	-0.05063	-8.54	-0.35	-32.76	0.416	-0.086	-0.1896	
-0.989664	0.241072	-0.047336	-11.55	-1.61	-35.14	0.4205	-0.0896	-0.2018	
-0.97661	0.244488	-0.06771	-8.75	-0.98	-35.42	0.4261	-0.0837	-0.197	
-0.992104	0.219112	-0.03294	-9.31	-0.07	-36.26	0.4227	-0.0715	-0.2012	
-0.99125	0.198616	-0.055022	-9.87	-0.28	-35.84	0.4255	-0.0699	-0.1951	
-0.99674	0.18239	-0.049776	-9.87	-1.12	-35.7	0.4269	-0.0673	-0.2087	
-1.00833	0.170068	-0.038796	-8.96	-0.98	-36.33	0.4191	-0.0578	-0.2084	
-0.994422	0.14213	-0.059292	-10.29	0.28	-35	0.4204	-0.053	-0.1977	
-0.998692	0.137128	-0.05429	-10.64	-0.63	-34.3	0.4245	-0.0457	-0.2005	
-1.011136	0.125416	-0.05063	-6.3	-0.14	-35.56	0.4197	-0.0379	-0.2003	
-1.015406	0.116388	-0.034892	-7.84	-0.14	-35.7	0.4253	-0.0319	-0.194	
-1.013698	0.10553	-0.032818	-9.31	-0.28	-35.77	0.4203	-0.0181	-0.1982	
-1.009794	0.091256	-0.026352	-6.72	-0.14	-36.12	0.4217	-0.015	-0.195	
-1.014186	0.085644	-0.032696	-9.52	-0.07	-38.15	0.4185	-0.0105	-0.201	
-1.021506	0.07991	-0.024522	-6.16	0.56	-37.52	0.4153	-0.0029	-0.2083	
-1.02541	0.060268	-0.018788	-3.43	0.56	-37.1	0.4152	-0.0013	-0.2053	
-1.016382	0.047946	-0.022814	-3.29	0.14	-37.66	0.4223	0.0032	-0.19	
-1.017358	0.019886	-0.03294	-7.91	-0.49	-37.45	0.4089	0.007999999	-0.205	
-1.017968	0.009028	-0.028426	-3.22	-2.1	-36.96	0.4191	0.0107	-0.2004	
-1.026996	0.01098	-0.035014	-5.88	-3.36	-36.68	0.4186	0.0214	-0.197	
-1.034682	-0.005734	-0.037332	-6.37	-3.22	-36.19	0.4199	0.0257	-0.2045	
-1.0431	-0.02684	-0.019398	-3.92	-2.94	-36.33	0.4131	0.0457	-0.2069	
-1.030534	-0.02623	-0.016958	-6.79	-3.5	-36.61	0.4091	0.0371	-0.1966	
-1.019554	-0.035136	-0.020862	-8.19	-4.55	-35.7	0.4147	0.0441	-0.207	
-1.012478	-0.0488	-0.031964	-6.51	-3.85	-35.14	0.4112	0.0549	-0.2082	
-1.021018	-0.051362	-0.042944	-2.31	-2.66	-35.56	0.4028	0.0464	-0.1993	
-1.015528	-0.056852	-0.040992	-1.47	-1.4	-35.77	0.408	0.0628	-0.2019	
-1.01016	-0.057706	-0.02745	2.1	0.56	-35.42	0.4123	0.0639	-0.2109	
-1.011746	-0.065148	-0.015006	4.13	1.26	-35.07	0.4014	0.0799	-0.1984	
-1.021018	-0.087352	-0.018422	0.98	1.33	-34.09	0.4132	0.0763	-0.2015	
-1.014552	-0.10492	-0.021594	2.52	2.17	-34.16	0.3985	0.0785	-0.2015	
-1.01382	-0.106872	-0.010248	1.75	1.82	-32.76	0.3998	0.0829	-0.2028	
-1.015772	-0.119316	0.000732	-0.35	1.96	-32.62	0.396	0.1014	-0.2008	
-1.006988	-0.12993	-0.008417999	-0.91	2.31	-32.2	0.4052	0.0918	-0.2026	
-0.99552	-0.149938	0.001342	-2.17	1.4	-32.41	0.3978	0.0936	-0.204	
-0.980758	-0.16775	-0.014518	-6.16	0.49	-32.76	0.4034	0.0992	-0.213	
-0.976366	-0.188246	-0.028304	-6.65	1.12	-32.62	0.4072	0.1144	-0.2049	
-0.98393	-0.184708	-0.013908	-5.04	1.96	-32.41	0.3952	0.1198	-0.1957	
-0.996496	-0.179828	-0.013786	-6.02	2.24	-31.22	0.394	0.1137	-0.2004	
-0.991738	-0.1952	0.000488	-6.65	1.19	-30.1	0.3925	0.1151	-0.2049	
-0.97783	-0.20496	-0.019032	-3.64	3.57	-30.17	0.3903	0.1319	-0.2045	
-0.98698	-0.245464	-0.0122	-6.65	4.62	-29.54	0.3889	0.129	-0.2045	
-0.983198	-0.249246	-0.02013	-3.5	5.46	-28.63	0.3783	0.1372	-0.1998	
-0.972096	-0.26718	-0.028792	-6.65	3.36	-27.65	0.382	0.1538	-0.1993	
-0.970144	-0.285602	-0.048068	-4.27	5.39	-26.95	0.3825	0.1432	-0.1966	
-0.982222	-0.292556	-0.032818	-3.15	5.95	-25.62	0.3764	0.148	-0.198	
-0.98088	-0.288408	-0.030378	-0.35	5.88	-24.99	0.3676	0.1489	-0.1813	
-0.98759	-0.303902	-0.039772	-2.66	3.99	-23.52	0.3776	0.1526	-0.1933	
-0.986736	-0.307928	-0.03294	-1.19	2.52	-23.8	0.3803	0.1586	-0.1916	
-0.965874	-0.320372	-0.03294	-0.91	0.77	-22.12	0.3835	0.1538	-0.1963	
-0.97478	-0.325252	-0.0366	-3.36	0.63	-22.47	0.3743	0.1618	-0.196	
-0.95953	-0.330986	-0.045262	-4.27	0	-21.77	0.3708	0.1741	-0.1972	
-0.948794	-0.331108	-0.061854	-4.27	-0.49	-20.02	0.3722	0.1773	-0.1895	
-0.941596	-0.339526	-0.056486	-3.29	-0.7	-18.55	0.3708	0.1756	-0.1956	
-0.94062	-0.333304	-0.040138	-3.78	-1.05	-17.64	0.3791	0.186	-0.1908	
-0.939888	-0.339526	-0.041602	-5.11	-0.35	-17.36	0.3716	0.1894	-0.1922	
-0.932568	-0.357582	-0.054778	-6.79	0.21	-17.36	0.3717	0.1878	-0.1938	
-0.93025	-0.369538	-0.06527	-4.69	0.84	-17.01	0.3583	0.1914	-0.1952	
-0.935374	-0.378688	-0.066856	-5.04	1.61	-15.96	0.3654	0.1974	-0.1875	
-0.945622	-0.39772	-0.073688	-4.83	3.01	-15.12	0.3611	0.1945	-0.1891	
-0.94245	-0.392108	-0.068442	-3.57	3.22	-13.65	0.3611	0.1961	-0.1875	
-0.936716	-0.398452	-0.061244	-3.22	1.61	-11.62	0.3656	0.1928	-0.1876	
-0.939034	-0.39284	-0.05185	-2.87	0.07	-10.78	0.3478	0.1966	-0.189	
-0.94306	-0.397354	-0.052216	-3.71	0	-10.57	0.3517	0.2102	-0.1886	
-0.938058	-0.40809	-0.05368	-4.76	-0.63	-10.22	0.3607	0.2036	-0.1903	
-0.94062	-0.42456	-0.048678	-4.34	-1.75	-9.8	0.3663	0.2107	-0.1992	
-0.939644	-0.43615	-0.056608	-5.46	-2.03	-9.24	0.365	0.2065	-0.1902	
-0.928054	-0.42944	-0.06527	-3.57	-3.22	-7.84	0.3639	0.1972	-0.195	
-0.924882	-0.424804	-0.0549	-4.2	-3.78	-7.07	0.3622	0.2033	-0.1979	
-0.920856	-0.420046	-0.064294	-2.87	-3.57	-6.72	0.3622	0.2036	-0.1873	
-0.924638	-0.424926	-0.059902	-0.91	-3.01	-5.6	0.3588	0.2145	-0.1839	
-0.923174	-0.43249	-0.054046	-1.47	-3.01	-4.34	0.3457	0.212	-0.1855	
-0.925004	-0.43493	-0.055022	-2.1	-3.43	-3.22	0.3547	0.2084	-0.1917	
-0.923906	-0.429074	-0.062708	0.35	-2.87	-2.31	0.3546	0.21	-0.1901	
-0.915244	-0.43005	-0.062952	1.12	-2.45	-0.63	0.3482	0.2227	-0.1822	
-0.922076	-0.43249	-0.052704	1.75	-2.59	0.77	0.3576	0.2083	-0.1902	
-0.923296	-0.422486	-0.05063	2.03	-2.87	1.82	0.3515	0.2131	-0.1931	
-0.918416	-0.417118	-0.050874	2.8	-3.08	3.36	0.3547	0.2084	-0.1932	
-0.926834	-0.419802	-0.046604	3.36	-3.22	4.41	0.3607	0.2037	-0.1873	
-0.923784	-0.422852	-0.042212	2.1	-3.64	5.46	0.3488	0.2069	-0.1993	
-0.926712	-0.418826	-0.039406	2.52	-3.71	6.37	0.3498	0.2178	-0.1914	
-0.930738	-0.41541	-0.031476	2.73	-3.85	8.05	0.3559	0.2146	-0.187	
-0.923418	-0.414922	-0.043066	2.38	-3.43	9.03	0.3573	0.2159	-0.1915	
-0.92415	-0.40748	-0.036844	2.38	-3.36	10.15	0.3602	0.2157	-0.193	
-0.928176	-0.405162	-0.029402	1.89	-3.22	11.41	0.3546	0.2099	-0.1932	
-0.933422	-0.409676	-0.038674	2.17	-3.5	12.74	0.3606	0.207	-0.1781	
-0.931104	-0.404796	-0.038674	1.89	-3.99	13.65	0.3517	0.2085	-0.1932	
-0.928542	-0.391376	-0.032818	1.75	-3.78	14.84	0.3564	0.2018	-0.2055	
-0.931592	-0.381128	-0.03416	3.29	-3.64	16.24	0.3522	0.196	-0.2027	
-0.936716	-0.373076	-0.02806	2.03	-3.57	17.01	0.3434	0.1967	-0.1951	
-0.93574	-0.36905	-0.025254	1.26	-2.24	17.57	0.3686	0.191	-0.1937	
-0.938546	-0.372588	-0.019886	2.66	-1.75	19.04	0.36	0.1866	-0.1999	
-0.945866	-0.365268	-0.019642	3.57	-1.4	20.37	0.3587	0.184	-0.1894	
-0.932934	-0.3599	-0.027572	2.1	-1.96	22.12	0.3631	0.1819	-0.2031	
-0.942694	-0.354166	-0.02318	3.01	-0.07	22.68	0.3678	0.1752	-0.2154	
-0.947818	-0.353922	-0.025254	3.78	-0.28	23.73	0.3651	0.1711	-0.2034	
-0.946842	-0.339038	-0.031598	4.13	-1.12	25.2	0.3651	0.1713	-0.1958	
-0.960384	-0.315492	-0.020862	1.54	-1.96	27.93	0.3635	0.1729	-0.1973	
-0.971364	-0.300852	-0.022692	5.11	-0.07	27.37	0.3764	0.1477	-0.2055	
-0.977342	-0.30134	-0.01708	5.18	-0.7	28.56	0.3803	0.1582	-0.2052	
-0.977708	-0.296338	-0.01586	4.83	-2.17	29.12	0.3751	0.1432	-0.2072	
-0.9821	-0.276574	-0.022936	3.71	-2.17	29.75	0.3794	0.1459	-0.2116	
-0.985882	-0.264984	-0.022936	2.03	-1.89	30.52	0.3734	0.1477	-0.2101	
-0.976244	-0.2501	-0.02806	0.98	-1.89	31.43	0.3809	0.1446	-0.2026	
-0.971364	-0.2379	-0.023302	1.26	-1.68	33.11	0.3782	0.1389	-0.1937	
-0.981124	-0.239608	-0.015372	2.31	-0.7	32.48	0.3886	0.1369	-0.1952	
-0.99186	-0.200202	-0.013786	3.99	-0.42	33.46	0.3846	0.1276	-0.2061	
-0.991372	-0.227896	-0.006588	5.11	0.42	33.67	0.3893	0.1216	-0.1972	
-0.990152	-0.211426	-0.013298	2.45	-1.61	33.88	0.3985	0.1118	-0.205	
-0.994788	-0.194102	-0.029158	0.84	-0.14	34.72	0.3911	0.1119	-0.2126	
-0.991738	-0.162504	-0.01159	3.43	0.56	36.33	0.403	0.1102	-0.202	
-0.992592	-0.151036	-0.03233	2.45	1.54	36.61	0.3973	0.1057	-0.2082	
-0.987712	-0.13725	-0.017812	5.67	2.38	35.91	0.4021	0.0963	-0.2085	
-0.999058	-0.139568	-0.010248	1.82	1.12	35.84	0.4035	0.0977	-0.21	
-1.019798	-0.120902	-0.013664	1.33	0.21	35.84	0.4072	0.08109999	-0.2014	
-1.033096	-0.113216	-0.000732	3.01	0	36.54	0.4024	0.0889	-0.2027	
-1.042002	-0.080886	-0.015494	1.68	-2.03	36.19	0.4104	0.07319999	-0.2061	
-1.037488	-0.058926	-0.018666	1.47	-1.96	35.63	0.4105	0.0717	-0.2062	
-1.025898	-0.022082	-0.013664	1.4	-2.24	34.79	0.4076	0.0703	-0.2077	
-1.00406	-0.004026	-0.039894	-1.47	-1.47	36.61	0.4094	0.0624	-0.214	
-1.003816	0.00305	-0.023302	-2.87	0.49	35.7	0.4157	0.0529	-0.2173	
-0.997594	0.014274	-0.032696	1.68	-0.07	36.89	0.4088	0.0444	-0.2055	
-1.011502	0.0122	-0.020496	1.19	0.98	37.8	0.4121	0.0351	-0.2087	
-1.020774	0.014884	-0.019032	-3.08	1.47	36.96	0.4179	0.0363	-0.2087	
-1.0187	0.017568	-0.026962	-1.54	1.89	36.89	0.4146	0.0457	-0.2054	
-1.01687	0.039894	-0.02684	-0.07	2.73	35.91	0.4213	0.0272	-0.2044	
-1.017846	0.060512	-0.023668	3.64	2.52	36.82	0.417	0.0243	-0.2075	
-1.022482	0.06954	-0.014152	1.05	1.26	36.4	0.4128	0.0199	-0.2062	
-1.020774	0.06222	-0.012444	2.03	0.49	36.4	0.4175	0.0138	-0.2003	
-1.024922	0.086254	-0.016104	0.98	-0.7	34.65	0.4237	0.0042	-0.2081	
-1.014308	0.080276	-0.027084	-2.38	-1.26	35.21	0.4167	-0.0014	-0.2037	
-1.025044	0.073688	-0.015494	2.1	-1.33	34.72	0.4169	-0.0075	-0.2039	
-1.017236	0.094184	-0.02074	5.46	-1.12	36.12	0.408	-0.0038	-0.1963	
-1.017724	0.085278	-0.034648	3.29	-1.61	35.56	0.4174	-0.018	-0.1997	
-1.012966	0.101504	-0.024644	13.93	-0.49	36.89	0.4153	-0.0362	-0.2017	
-0.989054	0.122732	-0.026352	13.51	-1.19	37.1	0.4108	-0.0345	-0.2032	
-0.990884	0.162138	-0.043798	18.69	-0.84	37.24	0.4141	-0.0438	-0.205	
-1.002718	0.192272	-0.0549	18.41	1.33	38.15	0.4098	-0.0453	-0.2111	
-0.99552	0.2135	-0.040748	18.76	2.73	38.64	0.4249	-0.0551	-0.2098	
-0.987834	0.226554	-0.030866	18.2	3.71	37.66	0.4221	-0.0595	-0.2085	
-0.985638	0.247782	-0.039894	19.18	4.06	38.71	0.4224	-0.0655	-0.2041	
-0.9821	0.246806	-0.058072	15.47	5.53	40.53	0.4139	-0.0726	-0.2028	
-0.979904	0.257054	-0.04941	16.24	5.88	41.58	0.4175	-0.0865	-0.2047	
-0.977464	0.255712	-0.036356	18.41	5.6	42.84	0.4261	-0.08199999	-0.194	
-0.9821	0.268888	-0.034892	17.78	4.27	42.98	0.4179	-0.0954	-0.1944	
-0.989664	0.271084	-0.053924	21.21	4.62	43.68	0.4284	-0.102	-0.1976	
-0.982344	0.302316	-0.030622	21.21	5.18	42.14	0.4169	-0.1074	-0.1932	
-0.95526	0.32513	-0.045994	21.98	5.32	42.07	0.4158	-0.1153	-0.204	
-0.944402	0.323666	-0.060756	19.88	4.62	41.93	0.4116	-0.1211	-0.2012	
-0.946354	0.335012	-0.047702	18.41	4.2	41.58	0.4149	-0.1285	-0.1878	
-0.955504	0.338672	-0.046604	14.91	3.92	41.23	0.4213	-0.1395	-0.1911	
-0.947208	0.368196	-0.063928	12.32	3.78	40.95	0.4181	-0.1346	-0.1849	
-0.952332	0.385886	-0.059048	5.67	3.01	38.71	0.4045	-0.1585	-0.1917	
-0.957334	0.388204	-0.057828	3.08	1.33	37.38	0.4089	-0.1588	-0.1932	
-0.960994	0.385032	-0.05002	1.26	0.28	35.42	0.4049	-0.1675	-0.1859	
-0.949404	0.385398	-0.064538	-0.21	0.14	33.74	0.4003	-0.1627	-0.1873	
-0.919636	0.393938	-0.074298	-0.56	-0.14	33.32	0.4068	-0.1766	-0.1831	
-0.916098	0.402234	-0.056242	-3.5	-2.17	31.36	0.4038	-0.1767	-0.1907	
-0.93025	0.404186	-0.065514	-7.49	-3.08	29.26	0.3996	-0.1811	-0.1939	
-0.935984	0.414556	-0.05124	-4.55	-2.87	28.35	0.3996	-0.181	-0.1893	
-0.933544	0.421876	-0.050264	-5.46	-3.36	27.44	0.3954	-0.1855	-0.194	
-0.92659	0.436272	-0.070394	-4.69	-2.17	25.34	0.3927	-0.1914	-0.1927	
-0.923296	0.435906	-0.088938	-5.11	-2.52	24.15	0.3987	-0.1933	-0.1957	
-0.910608	0.43981	-0.089182	-2.24	-3.08	23.8	0.3931	-0.1991	-0.1929	
-0.873276	0.463722	-0.077714	-1.82	-3.71	23.45	0.3899	-0.1944	-0.1943	
-0.85827	0.46604	-0.08662	-0.77	-4.27	23.17	0.3874	-0.2032	-0.187	
-0.871568	0.478972	-0.07808	-0.07	-4.62	21.56	0.3893	-0.2141	-0.1918	
-0.879254	0.50752	-0.0732	1.61	-5.53	22.75	0.386	-0.2045	-0.1825	
-0.887916	0.537166	-0.063684	1.82	-6.37	23.94	0.3817	-0.2078	-0.1962	
-0.88694	0.553392	-0.063684	2.17	-7.21	25.34	0.375	-0.2211	-0.1936	
-0.854976	0.578158	-0.065514	-0.98	-9.87	25.27	0.3781	-0.226	-0.2013	
-0.855586	0.568886	-0.046848	0.21	-9.52	24.5	0.3827	-0.231	-0.209	
-0.844484	0.562298	-0.039284	0.21	-10.92	25.06	0.3862	-0.2433	-0.2078	
-0.827892	0.567788	-0.059536	1.47	-10.01	25.48	0.3756	-0.2349	-0.2	
-0.81557	0.573278	-0.035136	-3.36	-8.89	22.47	0.374	-0.2335	-0.206	
-0.813862	0.579378	-0.043188	-2.24	-9.66	21.7	0.3714	-0.241	-0.2048	
-0.804102	0.603412	-0.030744	-1.05	-11.62	21.77	0.3596	-0.2388	-0.2002	
-0.80581	0.600118	-0.030378	-3.22	-11.13	22.4	0.367	-0.2408	-0.2048	
-0.804224	0.588284	-0.035624	-1.26	-9.87	21.77	0.3641	-0.2407	-0.2063	
-0.817522	0.60024	-0.04026	-0.35	-9.45	21.91	0.3627	-0.2421	-0.2063	
-0.807274	0.626836	-0.021228	5.32	-9.1	21.7	0.3526	-0.2464	-0.2125	
-0.809836	0.611342	-0.006954	2.52	-10.15	20.72	0.3529	-0.254	-0.2127	
-0.80642	0.602436	-0.02623	2.52	-11.62	20.93	0.353	-0.2574	-0.2219	
-0.81313	0.610488	-0.013664	3.22	-12.25	19.25	0.343	-0.2611	-0.2099	
-0.811056	0.615856	-0.02501	5.18	-13.3	19.53	0.3418	-0.269	-0.2223	
-0.795928	0.622078	-0.018666	1.05	-14	17.99	0.3463	-0.2703	-0.2057	
-0.777384	0.607438	-0.031842	0.07	-14.42	16.8	0.3384	-0.2564	-0.2113	
-0.79239	0.62159	-0.015128	1.4	-14.28	15.26	0.3387	-0.2641	-0.2146	
-0.803858	0.621712	-0.007076	-0.21	-13.09	13.44	0.3359	-0.267	-0.2147	
-0.78202	0.613416	-0.002928	-0.77	-11.97	11.76	0.3315	-0.2683	-0.2132	
-0.771406	0.607682	0.000488	-2.03	-11.48	10.64	0.3273	-0.2731	-0.23	
-0.773724	0.63135	-0.005978	-1.05	-10.99	9.52	0.3245	-0.2758	-0.221	
-0.77287	0.654042	0.010248	-1.33	-10.78	8.75	0.3348	-0.2766	-0.2316	
-0.772382	0.660874	0.026108	-1.26	-10.92	8.26	0.3244	-0.2731	-0.2315	
-0.766892	0.651846	0.023546	-1.4	-10.85	7.7	0.3381	-0.2843	-0.2303	
-0.769088	0.65331	0.040504	0.28	-10.57	7	0.3261	-0.2777	-0.2301	
-0.776652	0.642452	0.04758	-0.7	-10.92	5.95	0.3308	-0.2853	-0.2243	
-0.776408	0.645258	0.053558	-1.61	-11.34	4.76	0.3218	-0.2803	-0.2226	
-0.761646	0.655506	0.04331	-2.1	-11.48	3.99	0.316	-0.2818	-0.2303	
-0.7381	0.666486	0.04026	-2.66	-13.02	2.66	0.3216	-0.2763	-0.2422	
-0.7442	0.68442	0.057828	-1.54	-11.41	2.45	0.3158	-0.2772	-0.2317	
-0.758596	0.671976	0.046116	-3.85	-8.89	0.91	0.3085	-0.2785	-0.2332	
-0.751032	0.66063	0.036112	-2.73	-7.56	-0.42	0.3141	-0.2729	-0.2437	
-0.758108	0.661484	0.034892	1.33	-6.86	-1.82	0.3187	-0.2777	-0.2423	
-0.749568	0.669414	0.052826	0.91	-6.02	-1.61	0.3189	-0.2823	-0.2454	
-0.729804	0.66673	0.044774	-1.19	-4.9	-2.31	0.3216	-0.2776	-0.2362	
-0.7564	0.682346	0.0488	1.68	-4.34	-3.22	0.3144	-0.2808	-0.2515	
-0.75274	0.69418	0.063196	0.63	-3.99	-4.48	0.3157	-0.2756	-0.2286	
-0.747738	0.676978	0.059414	-2.1	-3.22	-6.37	0.3113	-0.2757	-0.2392	
-0.75335	0.662948	0.058926	-1.89	-1.96	-7.91	0.3153	-0.267	-0.248	
-0.753716	0.663192	0.058438	-2.52	-1.19	-9.1	0.3069	-0.2756	-0.2407	
-0.756522	0.662216	0.061976	-2.94	-0.63	-10.22	0.3233	-0.2828	-0.2545	
-0.7625	0.655994	0.063196	-3.99	-0.14	-11.48	0.3197	-0.267	-0.2404	
-0.763842	0.660996	0.065758	-3.22	0.63	-12.6	0.3154	-0.2702	-0.2511	
-0.765916	0.647942	0.064782	-4.48	2.17	-13.58	0.3226	-0.2657	-0.2419	
-0.772016	0.642208	0.074664	-3.43	3.36	-14.56	0.3256	-0.2691	-0.2496	
-0.77348	0.635986	0.075274	-3.92	4.97	-16.17	0.3325	-0.2571	-0.2462	
-0.78202	0.631594	0.068808	-5.25	6.65	-17.78	0.3208	-0.2582	-0.2493	
-0.80154	0.619638	0.064294	-5.32	7.21	-18.83	0.3254	-0.2644	-0.2464	
-0.80276	0.596824	0.061976	-4.76	7.14	-18.83	0.331	-0.2569	-0.2416	
-0.803492	0.590602	0.05368	-4.27	5.95	-18.83	0.3297	-0.2615	-0.2433	
-0.799466	0.6039	0.049532	-2.8	4.83	-19.53	0.3383	-0.2576	-0.2522	
-0.808494	0.597068	0.049288	-2.38	4.62	-19.95	0.3409	-0.2484	-0.2459	
-0.80642	0.5917	0.046116	-2.52	3.99	-19.74	0.3368	-0.2559	-0.2492	
-0.808006	0.59536	0.054412	-0.14	3.78	-22.05	0.3425	-0.2512	-0.2354	
-0.821548	0.590602	0.049532	-1.05	4.34	-23.03	0.3378	-0.2452	-0.2443	
-0.830088	0.586088	0.059414	0.07	4.76	-24.01	0.345	-0.2421	-0.2321	
-0.830332	0.571448	0.05002	-2.66	5.04	-24.99	0.3402	-0.2329	-0.2364	
-0.83387	0.561322	0.041968	-2.03	4.97	-26.04	0.3537	-0.2393	-0.2275	
-0.841434	0.565714	0.037332	-1.54	4.9	-27.09	0.3504	-0.2319	-0.2394	
-0.843996	0.557906	0.039162	-2.31	4.69	-27.65	0.3529	-0.2212	-0.233	
-0.852048	0.549244	0.044774	-4.41	4.55	-28.56	0.3499	-0.2198	-0.242	
-0.857416	0.53375	0.047946	-2.31	4.2	-29.54	0.3553	-0.2093	-0.2387	
-0.870714	0.529968	0.052094	-5.81	4.06	-31.29	0.3586	-0.2171	-0.2404	
-0.865712	0.507764	0.041968	-3.08	4.9	-30.59	0.367	-0.2083	-0.2371	
-0.874496	0.502884	0.042212	-3.71	5.67	-31.92	0.3584	-0.2125	-0.2403	
-0.875838	0.496662	0.037454	-1.68	5.81	-33.18	0.3576	-0.194	-0.2307	
-0.87779	0.475556	0.043676	-2.66	5.81	-34.02	0.375	-0.1903	-0.2336	
-0.887184	0.472506	0.035502	-1.82	5.6	-33.74	0.3718	-0.1841	-0.2334	
-0.903654	0.471652	0.035624	-2.52	5.18	-33.67	0.3719	-0.1873	-0.2395	
-0.90219	0.448594	0.033184	-2.66	5.53	-33.67	0.3775	-0.1799	-0.2363	
-0.917806	0.435662	0.035746	0.42	5.74	-34.16	0.3801	-0.1723	-0.2345	
-0.928542	0.40992	0.029036	1.4	5.67	-35.49	0.3744	-0.1767	-0.2362	
-0.931226	0.402844	0.027328	1.68	5.39	-35.77	0.3841	-0.1633	-0.2328	
-0.929396	0.385154	0.038918	2.52	6.16	-36.54	0.3842	-0.1663	-0.2283	
-0.937448	0.391498	0.029646	4.06	6.16	-37.38	0.3854	-0.1604	-0.2342	
-0.946598	0.36417	0.01586	-2.59	5.04	-38.64	0.388	-0.1513	-0.2294	
-0.94184	0.351238	0.023424	1.89	5.39	-36.89	0.3895	-0.1514	-0.2324	
-0.976976	0.33062	0.000854	3.5	4.41	-37.38	0.3995	-0.1473	-0.2323	
-0.976122	0.323178	0.013542	5.46	2.8	-37.24	0.3876	-0.1422	-0.2321	
-0.972706	0.30378	-0.010614	1.75	1.19	-37.31	0.3887	-0.1346	-0.2304	
-0.980026	0.318786	0.007564	6.79	3.57	-38.36	0.384	-0.1268	-0.2317	
-0.972096	0.309514	-0.012566	3.22	4.97	-39.69	0.3901	-0.1316	-0.2303	
-0.96441	0.305732	0.007442	1.26	4.97	-41.44	0.3958	-0.1288	-0.2302	
-0.95587	0.298656	-0.00122	0.63	7.28	-41.3	0.4024	-0.1125	-0.2328	
-0.962336	0.303414	0.019764	-2.38	7.35	-41.23	0.4072	-0.1201	-0.2239	
-0.970754	0.279624	0.022082	-10.85	8.68	-40.88	0.4063	-0.1003	-0.2248	
-0.99186	0.245708	0.010492	-9.03	8.19	-40.04	0.4118	-0.09299999	-0.2276	
-0.99796	0.212158	0.008296	-10.71	7.14	-39.13	0.4076	-0.0957	-0.2217	
-0.998448	0.181536	-0.001342	-9.1	6.86	-37.31	0.4158	-0.08199999	-0.2091	
-0.982222	0.18727	-0.015494	-4.55	5.6	-36.4	0.4088	-0.0894	-0.2139	
-0.993202	0.17263	-0.02501	-8.12	6.51	-36.96	0.4152	-0.0685	-0.2163	
-1.004914	0.145546	0.012322	-9.38	9.31	-38.43	0.4133	-0.0594	-0.2191	
-1.01443	0.153598	0.007564	-8.4	7.84	-38.22	0.4118	-0.0593	-0.2191	
-1.02846	0.108092	-0.004636	-7	6.23	-37.45	0.4233	-0.0536	-0.2128	
-1.028338	0.080032	-0.023668	-6.79	5.25	-37.73	0.417	-0.0445	-0.2217	
-1.015284	0.090524	-0.013664	-1.68	6.23	-37.38	0.4188	-0.0504	-0.2143	
-1.003084	0.100406	-0.037942	-3.64	6.16	-37.24	0.4128	-0.0473	-0.2202	
-0.999302	0.092598	-0.019154	-0.98	6.79	-35.35	0.4161	-0.0228	-0.2119	
-1.003084	0.08601	-0.009516	-0.98	6.02	-35.91	0.4189	-0.0185	-0.2164	
-1.005768	0.09857599	-0.026718	-0.28	4.83	-34.23	0.4191	-0.023	-0.2119	
-1.019188	0.065148	-0.009272	-3.43	4.2	-31.85	0.4231	-0.0154	-0.2057	
-1.013332	0.060878	-0.0061	-4.41	3.78	-30.1	0.4201	-0.0137	-0.2056	
-1.020896	0.039284	-0.018178	-7.07	3.64	-29.89	0.4169	-0.0078	-0.2145	
-1.024312	0.03416	-0.019032	-3.99	4.76	-30.59	0.4228	-0.007999999	-0.2145	
-1.030656	0.016592	-0.018666	-4.9	4.41	-30.94	0.4191	0.0104	-0.2095	
-1.025898	-0.005002	-0.022814	-3.01	3.99	-30.94	0.413	0.0153	-0.2078	
-1.027484	-0.026474	-0.01952	-4.76	2.73	-30.66	0.4231	0.0191	-0.2168	
-1.01443	-0.041114	-0.033794	-1.19	0.35	-29.61	0.4127	0.0211	-0.2198	
-1.008208	-0.062098	-0.031476	1.47	0.21	-28.91	0.411	0.0259	-0.212	
-1.02602	-0.063196	-0.035258	7.21	0.49	-30.03	0.415	0.0349	-0.2118	
-1.031998	-0.055876	-0.015494	4.97	0.63	-31.64	0.4179	0.0379	-0.2056	
-1.025288	-0.06466	-0.011468	5.88	3.08	-33.81	0.4116	0.0456	-0.2145	
-1.014552	-0.049288	-0.00915	3.29	3.64	-33.74	0.4193	0.0394	-0.2071	
-1.0004	-0.04819	-0.01708	-3.15	3.64	-32.97	0.4193	0.0391	-0.2162	
-1.006622	-0.059536	-0.013786	-4.9	3.78	-32.13	0.4098	0.0534	-0.2097	
-1.021628	-0.081252	-0.020252	-5.6	2.8	-30.73	0.4096	0.0579	-0.2126	
-1.017358	-0.106872	-0.031476	-3.78	2.38	-29.75	0.4095	0.0613	-0.2004	
-1.018334	-0.121634	-0.036112	-3.43	0.91	-31.57	0.4038	0.0581	-0.2142	
-1.01809	-0.129442	-0.065392	-6.09	0.35	-28.98	0.4093	0.0658	-0.2033	
-1.004792	-0.143838	-0.043676	-4.55	-1.05	-27.44	0.4045	0.0751	-0.2031	
-0.997716	-0.146644	-0.030866	-3.22	-0.91	-26.67	0.4045	0.0749	-0.2091	
-1.0004	-0.152622	-0.03721	-2.59	-1.19	-26.95	0.4008	0.092	-0.2026	
-0.998326	-0.153598	-0.036478	-1.82	-0.98	-27.02	0.3939	0.0829	-0.2119	
-0.988932	-0.15799	-0.040382	-3.08	-1.12	-26.67	0.4012	0.0829	-0.2028	
-0.994788	-0.165554	-0.038186	-5.39	-2.03	-26.39	0.4124	0.0945	-0.204	
-0.964166	-0.155062	-0.038674	-7.77	-3.71	-27.16	0.4004	0.101	-0.2084	
-0.961604	-0.165188	-0.040138	-11.06	-4.48	-26.6	0.3855	0.106	-0.2158	
-0.9821	-0.164456	-0.022448	-12.6	-3.57	-25.34	0.3987	0.1057	-0.2037	
-0.994788	-0.18239	-0.002318	-16.73	-3.43	-24.64	0.3938	0.1177	-0.22	
-1.01504	-0.23058	-0.015372	-19.11	-4.97	-23.31	0.3879	0.1197	-0.2109	
-1.031388	-0.296948	-0.020618	-20.02	-4.34	-22.61	0.3908	0.12	-0.1972	
-1.002596	-0.292434	-0.05429	-11.27	-2.73	-21.91	0.3834	0.1197	-0.2169	
-0.991982	-0.311222	-0.059048	-5.18	-1.89	-21.7	0.3917	0.1319	-0.2029	
-0.9821	-0.30744	-0.017934	-4.48	-1.96	-21.21	0.3815	0.1308	-0.2045	
-0.985272	-0.302926	-0.038064	-4.83	-5.11	-21.07	0.3781	0.1415	-0.2072	
-0.981124	-0.287066	-0.034892	-2.59	-7.63	-20.79	0.3928	0.141	-0.2042	
-0.96502	-0.297924	-0.034404	-3.01	-9.8	-19.25	0.384	0.1414	-0.2027	
-0.971608	-0.320372	-0.026108	0	-8.54	-17.64	0.3797	0.1385	-0.2043	
-0.970144	-0.323788	-0.014152	-0.98	-6.72	-17.29	0.3794	0.1445	-0.2087	
-0.978318	-0.331596	-0.011224	-2.03	-7.42	-16.87	0.3764	0.1474	-0.2177	
-0.964776	-0.331352	-0.00305	-5.04	-7.07	-16.66	0.3765	0.1445	-0.2117	
-0.94733	-0.342698	-0.003782	-8.61	-6.37	-16.52	0.376	0.1564	-0.2219	
-0.94245	-0.337696	-0.013176	-8.05	-6.3	-16.87	0.3687	0.1541	-0.2084	
-0.95526	-0.33733	-0.002684	-5.74	-5.53	-16.94	0.3668	0.1646	-0.2141	
-0.96563	-0.342332	0.018056	-6.72	-5.74	-17.43	0.3695	0.1706	-0.2155	
-0.96685	-0.356728	0.010858	-8.47	-7.49	-16.52	0.359	0.1756	-0.2154	
-0.950136	-0.350872	-0.01464	-5.88	-8.12	-16.03	0.3546	0.1743	-0.2154	
-0.958066	-0.370026	-0.002806	-5.39	-7.7	-16.31	0.3635	0.1721	-0.2245	
-0.95343	-0.34953	-0.009393999	-2.1	-6.58	-16.31	0.3634	0.1754	-0.2169	
-0.975146	-0.360632	0.00488	-3.85	-7.91	-15.61	0.3619	0.1755	-0.2138	
-0.964898	-0.3599	0.017446	-1.4	-9.03	-15.82	0.3532	0.1729	-0.2124	
-0.958188	-0.36905	0.003538	-3.85	-10.85	-15.96	0.3483	0.1851	-0.2181	
-0.945988	-0.378444	0.004148	-1.61	-10.29	-15.47	0.352	0.2001	-0.2192	
-0.947696	-0.387838	0.01403	-1.19	-10.08	-14.77	0.3496	0.1881	-0.2196	
-0.931348	-0.382958	0.00549	-0.98	-10.01	-13.65	0.3524	0.1909	-0.2225	
-0.926712	-0.38064	0.014152	-1.05	-9.31	-12.81	0.339	0.1961	-0.2224	
-0.92781	-0.371002	0.019642	-1.05	-8.75	-12.18	0.3374	0.199	-0.2268	
-0.927932	-0.36783	0.01159	-3.5	-8.33	-11.27	0.345	0.1941	-0.2285	
-0.9333	-0.387106	0.027084	-3.99	-7.63	-9.52	0.3402	0.2019	-0.2283	
-0.933178	-0.403576	0.020008	-4.34	-7.84	-8.19	0.3343	0.2038	-0.2237	
-0.929396	-0.409188	0.018788	-4.62	-7.42	-7.21	0.3389	0.1979	-0.2132	
-0.922686	-0.409432	0.016226	-3.5	-6.93	-7.14	0.3359	0.2008	-0.2207	
-0.919026	-0.40992	0.028792	-2.1	-5.6	-6.44	0.3354	0.2111	-0.2341	
-0.924882	-0.411506	0.028304	-1.47	-4.83	-5.18	0.3326	0.2082	-0.2341	
-0.920368	-0.430294	0.035746	-1.4	-4.69	-3.85	0.3415	0.2065	-0.2266	
-0.919514	-0.430538	0.031964	-0.42	-4.69	-3.29	0.3459	0.2063	-0.2251	
-0.9272	-0.42151	0.048556	1.05	-4.13	-2.8	0.3285	0.2004	-0.2465	
-0.923296	-0.417972	0.041358	0.21	-3.92	-1.75	0.3351	0.2174	-0.2263	
-0.91866	-0.416752	0.037576	0.14	-4.13	-0.84	0.3447	0.2004	-0.2222	
-0.922564	-0.425048	0.047824	0.49	-3.71	0.21	0.3429	0.2063	-0.2296	
-0.921832	-0.428952	0.044652	0.7	-3.71	1.47	0.3282	0.2085	-0.2311	
-0.923418	-0.422608	0.040016	0.49	-3.22	2.31	0.3366	0.2173	-0.2263	
-0.918904	-0.41419	0.05612	1.61	-2.59	3.01	0.3295	0.2115	-0.2295	
-0.915732	-0.409676	0.049776	2.24	-2.52	3.99	0.3369	0.21	-0.2174	
-0.917562	-0.406138	0.050508	2.94	-2.03	4.48	0.334	0.2098	-0.2265	
-0.916464	-0.40992	0.061	3.78	-1.26	5.32	0.3329	0.2009	-0.2207	
-0.906826	-0.390644	0.034404	3.71	-0.42	6.65	0.3194	0.2088	-0.2342	
-0.912438	-0.389058	0.03782	7.07	2.31	7.91	0.3284	0.2025	-0.2283	
-0.92232	-0.405162	0.049776	5.53	2.24	9.17	0.3304	0.1918	-0.2271	
-0.936838	-0.405528	0.050508	7.84	1.82	10.64	0.3379	0.1885	-0.2241	
-0.939522	-0.396012	0.044042	7.77	1.26	11.2	0.3341	0.2067	-0.2312	
-0.941352	-0.39284	0.056852	6.65	2.24	11.48	0.3317	0.1962	-0.23	
-0.940986	-0.393816	0.042334	5.74	1.82	13.65	0.332	0.1883	-0.2393	
-0.938668	-0.38857	0.043676	6.72	1.75	15.26	0.3289	0.1918	-0.2286	
-0.942084	-0.377712	0.046482	6.09	2.45	16.52	0.3361	0.1945	-0.23	
-0.950258	-0.370148	0.059292	5.67	2.03	18.27	0.3396	0.182	-0.2334	
-0.951234	-0.37698	0.054778	3.29	1.54	19.53	0.35	0.1784	-0.238	
-0.945134	-0.37454	0.062586	4.27	1.61	19.74	0.3457	0.1774	-0.2259	
-0.942206	-0.362096	0.060146	4.06	2.24	19.95	0.3443	0.1741	-0.2366	
-0.953308	-0.35685	0.047702	3.5	2.52	21.35	0.353	0.177	-0.2305	
-0.942694	-0.352458	0.035868	3.85	2.94	22.54	0.3472	0.1757	-0.232	
-0.939522	-0.34038	0.06466	2.87	3.57	23.45	0.3627	0.1581	-0.2371	
-0.94611	-0.33733	0.061732	4.13	4.48	24.5	0.3536	0.1633	-0.2294	
-0.952332	-0.331962	0.047824	3.64	4.27	25.13	0.3623	0.166	-0.2262	
-0.956358	-0.328302	0.062464	7.14	5.39	25.34	0.3627	0.1566	-0.2341	
-0.957578	-0.315492	0.027816	2.45	5.74	25.48	0.3483	0.1514	-0.2297	
-0.960262	-0.307562	0.053192	5.11	6.58	25.2	0.3617	0.1475	-0.2359	
-0.96502	-0.294264	0.040504	0.42	6.16	26.6	0.3662	0.1444	-0.2329	
-0.97051	-0.271206	0.037332	2.38	6.79	26.81	0.3696	0.1339	-0.2211	
-0.974536	-0.262178	0.03477	0.77	7.35	26.95	0.371	0.1355	-0.218	
-0.981246	-0.253516	0.04453	0.35	7.49	26.95	0.3711	0.1321	-0.2302	
-0.979172	-0.250954	0.044774	-0.35	7.56	26.95	0.3669	0.1293	-0.2258	
-0.99491	-0.246562	0.04209	-1.12	7.14	26.95	0.373	0.1228	-0.2335	
-0.987102	-0.237046	0.02501	-2.1	7.49	27.09	0.3759	0.1244	-0.2244	
-0.996618	-0.228384	0.025742	-1.82	7.28	27.09	0.3881	0.1133	-0.2232	
-0.989176	-0.219478	0.018544	-2.38	7.14	27.16	0.3806	0.1183	-0.2185	
-0.998082	-0.212158	0.01525	-2.66	6.23	27.65	0.3885	0.1057	-0.2204	
-0.995764	-0.20374	0.01586	-1.82	5.81	28.35	0.3876	0.09209999	-0.2192	
-0.99918	-0.177144	-0.00427	-2.59	5.74	28.77	0.387	0.1058	-0.2188	
-1.00223	-0.159454	0.007686	-0.28	6.58	28.84	0.3989	0.1009	-0.2129	
-1.005768	-0.138104	-0.01281	-5.6	5.74	30.03	0.3893	0.08769999	-0.2103	
-1.002596	-0.130906	0.008417999	-3.85	6.86	30.45	0.3965	0.0904	-0.2117	
-1.008818	-0.11956	0.000366	-6.37	6.23	30.8	0.3905	0.0936	-0.2162	
-1.009428	-0.10858	0.007686	-7.14	5.53	31.22	0.3969	0.0796	-0.2166	
-1.021262	-0.101382	-0.005856	-6.02	5.18	31.43	0.3993	0.0933	-0.2131	
-1.023214	-0.09699	-0.005246	-3.15	5.67	32.62	0.3983	0.08109999	-0.2165	
-1.016504	-0.083082	-0.007808	-3.64	3.85	32.06	0.4075	0.0729	-0.2228	
-1.017114	-0.059292	-0.000122	-2.66	3.57	31.92	0.4093	0.0656	-0.2094	
-1.014796	-0.057462	-0.01525	-1.47	2.73	31.85	0.4126	0.058	-0.2051	
-1.023336	-0.049898	-0.011224	0.21	2.59	32.34	0.4114	0.0503	-0.2098	
-1.023702	-0.04453	-0.008662	-0.07	3.15	32.62	0.409	0.0398	-0.2071	
-1.016382	-0.027816	-0.025376	0.56	3.01	32.69	0.4058	0.0442	-0.2176	
-1.017236	-0.008905999	-0.02196	2.87	3.29	32.48	0.412	0.0381	-0.2102	
-1.018334	0.021106	-0.010492	2.73	3.92	32.9	0.4092	0.0339	-0.2027	
-1.015162	0.023668	-0.000122	-0.14	3.57	33.53	0.4122	0.0319	-0.2134	
-1.01748	0.026108	-0.015006	1.33	3.36	33.25	0.4124	0.0291	-0.2044	
-1.0126	0.046238	-0.0183	4.27	1.82	33.95	0.4157	0.0213	-0.2076	
-1.015894	0.05063	-0.02379	1.96	1.96	33.32	0.4206	0.0089	-0.208	
-1.013088	0.061732	-0.019642	-0.28	2.1	33.32	0.4192	0.0074	-0.208	
-1.010892	0.074298	-0.00549	2.73	2.24	33.53	0.4074	0.0094	-0.2095	
-1.002718	0.086742	-0.008905999	-0.21	0	33.32	0.4155	-0.0075	-0.2085	
-1.008208	0.094306	-0.024156	-0.21	0	33.32	0.4094	-0.0042	-0.2099	
-1.009306	0.115412	-0.021594	-0.49	1.54	33.39	0.429	-0.0158	-0.2117	
-1.003206	0.129198	-0.017446	2.03	1.96	34.51	0.4214	-0.0092	-0.2055	
-1.005524	0.124562	-0.02379	1.4	1.96	34.79	0.4187	-0.0134	-0.198	
-1.001132	0.132492	-0.025132	1.96	1.89	35.42	0.4145	-0.0196	-0.2058	
-1.00589	0.148474	-0.025254	3.36	1.96	34.86	0.4223	-0.0306	-0.2061	
-0.998448	0.1403	-0.032818	5.67	1.68	36.26	0.43	-0.0385	-0.2063	
-0.99735	0.164578	-0.048922	6.44	1.26	35.98	0.4227	-0.0396	-0.2033	
-1.006256	0.200812	-0.042456	6.72	2.1	34.58	0.431	-0.0614	-0.207	
-1.00284	0.211914	-0.03538	4.13	2.24	34.16	0.4237	-0.0625	-0.204	
-1.000766	0.21167	-0.025498	6.44	2.1	33.74	0.4239	-0.0669	-0.1981	
-0.983808	0.22814	-0.0305	7.7	1.89	32.2	0.4209	-0.0653	-0.2026	
-0.992226	0.247538	-0.040626	4.9	0.63	32.13	0.4223	-0.0638	-0.1995	
-0.996984	0.23912	-0.043188	4.41	0.56	32.55	0.4211	-0.0699	-0.2012	
-0.99674	0.247294	-0.045506	5.25	1.89	32.27	0.4218	-0.0852	-0.2031	
-0.98576	0.26047	-0.060146	2.8	1.4	33.11	0.4233	-0.0866	-0.1986	
-0.97844	0.27389	-0.058072	9.52	3.15	32.76	0.4118	-0.0925	-0.211	
-0.9638	0.29097	-0.038308	9.17	2.8	33.39	0.4278	-0.08679999	-0.1971	
-0.9638	0.298046	-0.042822	7	1.26	34.16	0.4223	-0.0972	-0.199	
-0.969656	0.312198	-0.057462	6.09	0.56	34.51	0.4197	-0.1048	-0.2022	
-0.979416	0.334524	-0.064904	7.91	2.1	34.16	0.42	-0.1105	-0.1903	
-0.973926	0.343186	-0.044408	4.69	2.03	32.55	0.4114	-0.1165	-0.1995	
-0.961238	0.339404	-0.048678	8.68	1.54	32.41	0.4101	-0.1197	-0.2072	
-0.955626	0.36051	-0.029036	2.1	0.07	30.94	0.4133	-0.124	-0.1922	
-0.948062	0.346358	-0.045628	1.05	-0.35	31.64	0.4089	-0.1256	-0.2044	
-0.962336	0.355142	-0.053314	3.08	-0.49	30.52	0.4151	-0.1333	-0.1955	
-0.957944	0.358314	-0.051484	3.22	-0.98	30.38	0.4084	-0.1484	-0.202	
-0.942206	0.375638	-0.046116	4.2	-1.68	28.98	0.4057	-0.1528	-0.2021	
-0.935008	0.407602	-0.040626	7.28	-1.26	28.28	0.4086	-0.1528	-0.1991	
-0.925004	0.427122	-0.040992	1.82	-1.96	28	0.3985	-0.1553	-0.1961	
-0.928542	0.450424	-0.037698	0.7	-2.87	28.28	0.4024	-0.1433	-0.1958	
-0.933788	0.408822	-0.033306	0.98	-2.87	28.56	0.4076	-0.1634	-0.1979	
-0.934398	0.437736	-0.036234	5.53	-4.34	27.93	0.4077	-0.1649	-0.1979	
-0.920246	0.460672	-0.028426	6.86	-5.6	28.98	0.4006	-0.1709	-0.2042	
-0.896212	0.466162	-0.037454	5.39	-6.65	29.75	0.3951	-0.1781	-0.1998	
-0.88145	0.441274	-0.0549	2.52	-6.93	31.43	0.3898	-0.1915	-0.2002	
-0.873642	0.447374	-0.071492	7.28	-6.23	32.34	0.4001	-0.1921	-0.2033	
-0.872666	0.491904	-0.065026	8.89	-6.51	33.11	0.3927	-0.1918	-0.2063	
-0.893528	0.51423	-0.025864	5.67	-6.51	31.01	0.3911	-0.1886	-0.2017	
-0.88755	0.511058	-0.015494	4.13	-6.37	30.66	0.3858	-0.2003	-0.1945	
-0.874862	0.505568	-0.033428	3.43	-4.97	30.1	0.3874	-0.2036	-0.2021	
-0.855098	0.493368	-0.027572	1.75	-6.3	30.38	0.3893	-0.2143	-0.2009	
-0.879132	0.493246	-0.037576	-0.14	-6.16	30.03	0.3834	-0.2125	-0.2009	
-0.85339	0.548878	-0.037698	3.85	-6.02	29.4	0.3792	-0.2169	-0.2025	
-0.845948	0.556442	-0.053314	0.42	-6.37	27.72	0.376	-0.2123	-0.2039	
-0.860954	0.538752	-0.035502	0.35	-9.38	25.34	0.3783	-0.2307	-0.206	
-0.87169	0.54412	-0.030988	4.06	-11.55	23.66	0.369	-0.2197	-0.2102	
-0.859246	0.55998	-0.029768	3.01	-11.9	23.1	0.3694	-0.2286	-0.1998	
-0.86071	0.564372	-0.019764	-0.28	-11.69	22.19	0.374	-0.2335	-0.206	
-0.834602	0.587186	-0.017446	1.75	-11.55	21.49	0.3506	-0.2344	-0.2197	
-0.812154	0.59597	-0.030866	-2.52	-12.25	21.21	0.3581	-0.2391	-0.2138	
-0.812398	0.595726	-0.049898	-0.28	-11.34	20.79	0.3538	-0.2406	-0.2184	
-0.80398	0.591944	-0.031964	-2.87	-11.76	20.44	0.3569	-0.2453	-0.22	
-0.813984	0.58865	-0.006344	1.68	-13.44	19.18	0.3482	-0.2478	-0.2141	
-0.806054	0.58621	-0.0061	0.07	-12.46	19.18	0.3555	-0.2469	-0.2231	
-0.799222	0.595116	-0.010004	0.35	-11.69	18.97	0.3498	-0.251	-0.2172	
-0.790682	0.608658	-0.014274	3.57	-11.76	18.76	0.3441	-0.2539	-0.2203	
-0.805932	0.61122	0.013786	2.1	-11.55	17.92	0.34	-0.2598	-0.222	
-0.792878	0.618418	0.016104	2.1	-10.71	17.99	0.3354	-0.2566	-0.2234	
-0.784704	0.627202	0.01525	4.97	-10.43	18.34	0.3381	-0.2523	-0.2263	
-0.776408	0.618662	0.021228	3.08	-10.22	17.43	0.3389	-0.2707	-0.2314	
-0.770674	0.636352	0.015006	4.55	-10.36	17.08	0.3301	-0.2701	-0.2238	
-0.765306	0.654652	0.01342	4.9	-10.01	16.1	0.3273	-0.2716	-0.23	
-0.764818	0.669536	0.024156	3.64	-9.8	13.86	0.3319	-0.2763	-0.2271	
-0.771284	0.670634	0.037942	2.38	-10.71	13.3	0.3328	-0.2641	-0.2252	
-0.769698	0.67405	0.038064	2.45	-11.69	12.6	0.3274	-0.2746	-0.2285	
-0.77043	0.681248	0.03477	3.01	-11.2	11.55	0.3215	-0.2744	-0.2285	
-0.754448	0.688324	0.03111	2.1	-11.06	10.08	0.3228	-0.2699	-0.2284	
-0.736758	0.68686	0.020984	3.43	-10.22	9.31	0.3228	-0.2698	-0.2269	
-0.739808	0.682834	0.012688	-0.35	-9.73	8.96	0.3185	-0.2727	-0.227	
-0.747128	0.681004	0.024278	0.63	-8.96	7.77	0.322	-0.2866	-0.2304	
-0.745664	0.68259	0.033184	0.07	-8.54	7.35	0.3206	-0.2866	-0.2334	
-0.742492	0.68015	0.04026	-2.87	-7.77	6.79	0.3179	-0.2925	-0.2321	
-0.72773	0.67344	0.04209	-3.57	-7.56	6.09	0.3085	-0.28	-0.2333	
-0.712602	0.679784	0.030134	-2.59	-6.23	5.74	0.3087	-0.2831	-0.2364	
-0.72956	0.688812	0.029646	-2.59	-3.57	4.97	0.3129	-0.2788	-0.2393	
-0.735904	0.681248	0.05124	-3.08	-2.03	4.06	0.313	-0.2818	-0.2348	
-0.736148	0.672342	0.050996	-4.62	-2.24	3.15	0.3113	-0.2756	-0.2362	
-0.742004	0.673074	0.055266	-3.36	-2.1	1.68	0.3101	-0.2833	-0.2409	
-0.737978	0.682102	0.060268	-2.66	-1.4	-0.07	0.313	-0.2802	-0.2348	
-0.741272	0.68625	0.072712	-2.17	-1.05	-1.26	0.3042	-0.2816	-0.2439	
-0.739686	0.69113	0.073566	-0.28	-1.47	-2.17	0.3057	-0.2831	-0.2394	
-0.737856	0.678442	0.059536	-0.7	-1.54	-3.22	0.307	-0.2784	-0.2347	
-0.741028	0.675148	0.052948	0.98	-1.75	-3.64	0.3101	-0.2832	-0.2379	
-0.751276	0.684054	0.066246	2.17	-1.19	-4.97	0.3148	-0.2881	-0.2426	
-0.745908	0.680028	0.065148	-1.26	-1.19	-6.65	0.3174	-0.2819	-0.2333	
-0.742126	0.674904	0.055022	0.84	-1.12	-8.26	0.3129	-0.2788	-0.2393	
-0.7503	0.674416	0.048434	1.89	0.21	-10.29	0.3099	-0.2787	-0.2393	
-0.751642	0.677344	0.051484	0.49	0.21	-11.41	0.3113	-0.2757	-0.2377	
-0.752008	0.675758	0.053436	-1.26	0.56	-13.3	0.3176	-0.2865	-0.2334	
-0.749446	0.674294	0.047824	-2.52	0.63	-15.19	0.3218	-0.2822	-0.2348	
-0.749812	0.660386	0.043798	-3.43	0.84	-16.17	0.3123	-0.265	-0.2359	
-0.763842	0.665266	0.05612	-2.45	2.03	-17.92	0.3232	-0.2796	-0.2484	
-0.753838	0.660142	0.052338	-2.24	2.52	-18.34	0.3201	-0.2764	-0.2483	
-0.75884	0.659166	0.050752	-3.99	3.01	-18.62	0.3271	-0.2688	-0.239	
-0.760304	0.651846	0.054168	-3.36	4.83	-19.67	0.3224	-0.2628	-0.2464	
-0.770308	0.648552	0.059414	-4.9	5.04	-20.86	0.3238	-0.2612	-0.2433	
-0.776774	0.637938	0.063318	-5.95	5.11	-21.84	0.331	-0.2567	-0.2325	
-0.781654	0.625982	0.057584	-4.55	5.39	-22.47	0.324	-0.2644	-0.2464	
-0.796904	0.619028	0.054046	-4.9	5.25	-23.1	0.3399	-0.2588	-0.2386	
-0.784826	0.604144	0.049044	-4.83	4.9	-23.52	0.3309	-0.2538	-0.2385	
-0.798978	0.609268	0.046604	-5.67	5.25	-24.71	0.3407	-0.2438	-0.2458	
-0.805444	0.604266	0.053436	-5.46	5.81	-25.48	0.3423	-0.2482	-0.2368	
-0.812886	0.593286	0.050752	-4.62	5.46	-26.11	0.3449	-0.2393	-0.2396	
-0.81801	0.576938	0.045384	-6.72	5.67	-26.67	0.3435	-0.2422	-0.2397	
-0.824476	0.573766	0.040382	-1.96	5.95	-27.3	0.3492	-0.2381	-0.2441	
-0.822158	0.570838	0.034038	-1.89	6.79	-28.49	0.3459	-0.2286	-0.2378	
-0.826428	0.565958	0.025254	-2.03	7.21	-28.77	0.3503	-0.2289	-0.2393	
-0.834358	0.556808	0.022814	-3.71	7.56	-29.05	0.3544	-0.2213	-0.233	
-0.841434	0.549976	0.03294	-0.35	8.47	-29.89	0.3617	-0.2203	-0.242	
-0.861808	0.551318	0.04148	1.05	8.96	-31.08	0.3659	-0.2175	-0.2419	
-0.867542	0.526064	0.04575	6.37	9.17	-32.55	0.3579	-0.2016	-0.2309	
-0.867542	0.50996	0.026718	2.31	9.52	-33.67	0.3609	-0.2019	-0.237	
-0.87962	0.50264	0.01464	2.94	9.87	-34.44	0.3685	-0.2099	-0.2387	
-0.890966	0.501664	0.02257	5.25	9.94	-35.28	0.3713	-0.2054	-0.237	
-0.890722	0.484828	0.029524	7	9.8	-35.49	0.3824	-0.192	-0.2275	
-0.890722	0.469334	0.017324	0.14	9.03	-35.77	0.3779	-0.1888	-0.229	
-0.9089	0.46665	0.009638	4.27	9.8	-35.56	0.3796	-0.1932	-0.223	
-0.909266	0.45811	0.025254	5.32	10.64	-35.77	0.3907	-0.1803	-0.2317	
-0.914756	0.427732	0.021106	0.63	10.01	-35	0.3893	-0.1815	-0.2212	
-0.918172	0.42212	-0.01891	4.62	10.43	-34.86	0.3933	-0.1713	-0.2315	
-0.938302	0.39589	0.00549	8.47	10.71	-35.7	0.389	-0.1738	-0.2194	
-0.93879	0.397842	0.000366	4.34	9.94	-35.91	0.3871	-0.1646	-0.2207	
-0.952332	0.375882	0.004392	1.12	8.4	-36.54	0.3929	-0.1616	-0.2115	
-0.944402	0.368562	-0.009638	5.95	8.96	-37.17	0.3981	-0.1484	-0.2202	
-0.949648	0.346358	0.002074	4.97	7.7	-37.73	0.3982	-0.1499	-0.2202	
-0.955748	0.3355	-0.01342	3.15	6.09	-38.22	0.4026	-0.15	-0.2142	
-0.962214	0.313052	-0.024888	0.49	5.88	-38.15	0.4062	-0.1319	-0.2151	
-0.971852	0.313174	-0.032452	0.35	7.63	-38.92	0.4155	-0.143	-0.217	
-0.982344	0.283894	-0.017568	-2.73	5.67	-39.13	0.4131	-0.1213	-0.2057	
-0.980514	0.281942	-0.048556	-1.89	5.18	-39.27	0.4176	-0.1232	-0.2118	
-0.983198	0.25376	-0.04575	-1.19	5.25	-38.15	0.4143	-0.1154	-0.2101	
-0.9821	0.224114	-0.034038	-9.66	6.3	-39.2	0.4126	-0.1106	-0.2039	
-0.978318	0.257176	-0.044042	-5.53	6.37	-39.2	0.409	-0.09519999	-0.2019	
-0.980148	0.246318	-0.002684	-4.9	5.81	-39.62	0.4104	-0.092	-0.1958	
-0.984906	0.233508	-0.024278	-6.93	3.15	-39.13	0.4221	-0.0928	-0.2034	
-0.99979	0.22387	-0.03477	-2.8	1.61	-39.62	0.4159	-0.0849	-0.2016	
-0.999912	0.197762	-0.027206	-2.87	1.12	-39.06	0.4227	-0.073	-0.2028	
-1.007232	0.196664	-0.032452	-2.73	1.68	-38.57	0.4167	-0.0699	-0.2103	
-1.010648	0.18361	-0.014762	-4.48	3.43	-38.71	0.4195	-0.0655	-0.2117	
-0.9943	0.194834	-0.04209	-6.65	3.64	-38.43	0.412	-0.0634	-0.201	
-0.99308	0.156648	-0.060512	-7.35	2.87	-37.52	0.4175	-0.0547	-0.2068	
-0.995398	0.132614	-0.047458	-2.45	3.71	-38.22	0.4159	-0.0498	-0.1991	
-1.002596	0.138958	-0.040138	-4.2	4.34	-38.43	0.4157	-0.047	-0.2066	
-0.982588	0.12932	-0.036112	-8.61	4.83	-38.64	0.4223	-0.0304	-0.2016	
-0.994056	0.117608	-0.05734	-9.59	3.36	-37.52	0.4152	-0.0349	-0.2093	
-1.012112	0.09747799	-0.050264	-6.93	3.57	-33.74	0.4175	-0.0198	-0.2088	
-1.032852	0.075884	-0.044286	-7.91	4.41	-31.78	0.4261	-0.017	-0.2042	
-1.034194	0.057706	-0.046116	-3.36	4.41	-30.52	0.4231	-0.0137	-0.2011	
-1.028704	0.035868	-0.071736	0.63	4.69	-29.61	0.4241	-0.0033	-0.2053	
-1.02602	0.039162	-0.052948	4.83	5.53	-29.33	0.4252	0.0041	-0.2081	
-1.011502	0.041114	-0.035624	-0.28	3.01	-28.98	0.4257	-0.0076	-0.1963	
-1.003816	0.04514	-0.049776	-4.9	1.89	-29.33	0.4191	0.0093	-0.1943	
-1.00101	-0.003538	-0.048678	-7.28	3.71	-28.35	0.4261	0.0166	-0.1956	
-1.003694	-0.00976	-0.034648	-3.64	3.92	-28.14	0.4247	0.0165	-0.2017	
-1.010038	-0.029524	-0.040382	-5.18	4.76	-27.44	0.42	0.0226	-0.2061	
-1.0187	-0.023546	-0.03233	-3.15	5.74	-26.11	0.4127	0.0214	-0.2076	
-1.010526	-0.03172	-0.027694	-4.06	6.51	-25.06	0.4124	0.0276	-0.2044	
-1.004914	-0.026718	-0.031842	-7	3.57	-24.01	0.4169	0.0277	-0.1938	
-1.012966	-0.039894	-0.0488	-6.23	5.46	-24.08	0.4133	0.0416	-0.1934	
-1.014552	-0.061	-0.041602	-9.03	4.97	-23.87	0.4209	0.0367	-0.1905	
-1.030656	-0.056242	-0.039528	-5.95	3.64	-25.69	0.4162	0.0429	-0.1949	
-1.03517	-0.06588	-0.060024	-1.75	2.24	-25.76	0.4192	0.0414	-0.1889	
-1.02663	-0.068198	-0.061732	-0.14	1.61	-26.46	0.4278	0.0454	-0.1948	
-1.038586	-0.08662	-0.055266	0.42	-1.89	-28.49	0.4096	0.0601	-0.1899	
-1.03944	-0.074908	-0.070516	0.63	-3.43	-29.75	0.4113	0.0554	-0.1915	
-1.017358	-0.080886	-0.083326	2.17	-4.9	-30.45	0.4106	0.0691	-0.1926	
-1.009916	-0.082594	-0.101504	1.75	-5.46	-31.92	0.4179	0.0718	-0.1925	
-1.00162	-0.100528	-0.083204	-0.56	-3.64	-32.97	0.4074	0.07669999	-0.1954	
-0.996984	-0.11102	-0.061488	0.07	-2.24	-33.39	0.4117	0.0782	-0.1908	
-1.002108	-0.122854	-0.048678	-1.33	-1.89	-32.55	0.4131	0.08109999	-0.1923	
-0.998936	-0.132248	-0.040626	-5.81	-2.03	-30.87	0.4	0.0786	-0.1939	
-0.997838	-0.165066	-0.018544	-11.48	-2.17	-29.12	0.4022	0.0955	-0.1843	
-0.999668	-0.181292	-0.045994	-9.03	-0.49	-28.63	0.4004	0.1027	-0.2007	
-1.003694	-0.20801	-0.033794	-5.88	2.17	-28.63	0.4021	0.0967	-0.1949	
-0.992226	-0.197396	-0.044286	-5.74	3.29	-29.12	0.3911	0.1124	-0.1975	
-0.993934	-0.219356	-0.037088	-8.33	3.36	-28.35	0.409	0.1057	-0.19	
-0.996496	-0.227042	-0.054168	-4.69	3.85	-27.16	0.3862	0.1244	-0.2077	
-1.014918	-0.258274	-0.03233	-2.38	3.85	-24.99	0.3983	0.1167	-0.1943	
-1.006622	-0.274622	-0.026474	-2.52	3.43	-22.05	0.3963	0.1289	-0.1939	
-0.981246	-0.277184	-0.034038	-3.92	2.73	-21.77	0.3965	0.1244	-0.1925	
-0.971974	-0.289506	-0.040626	-1.54	2.73	-20.79	0.3873	0.1326	-0.1863	
-0.979294	-0.300852	-0.049776	2.45	2.31	-20.09	0.3889	0.1293	-0.1924	
-0.97722	-0.305122	-0.053558	1.89	0.91	-20.02	0.3903	0.1326	-0.1832	
-0.956968	-0.305366	-0.064416	9.24	-0.7	-21.56	0.3912	0.1446	-0.1874	
-0.963312	-0.268888	-0.070516	9.1	-1.54	-23.24	0.3858	0.1343	-0.1832	
-0.96868	-0.273158	-0.052704	5.39	-3.01	-22.61	0.3895	0.1505	-0.1933	
-0.958432	-0.263276	-0.065514	5.95	-4.69	-22.61	0.3849	0.1538	-0.1917	
-0.956236	-0.268034	-0.076006	4.55	-3.78	-22.68	0.3853	0.1462	-0.1934	
-0.955504	-0.283406	-0.076616	1.54	-0.98	-22.26	0.3806	0.1524	-0.1963	
-0.961726	-0.30988	-0.051728	-1.05	0.14	-21.28	0.3807	0.1496	-0.1888	
-0.965874	-0.309026	-0.05368	-4.76	0	-21.07	0.3786	0.1645	-0.202	
-0.958554	-0.321226	-0.049532	-6.51	0.07	-21.28	0.3767	0.1739	-0.1927	
-0.958798	-0.321836	-0.042822	-7.14	-0.14	-22.4	0.3806	0.1525	-0.1918	
-0.953674	-0.335256	-0.069052	-8.75	-0.35	-22.33	0.3813	0.1708	-0.1882	
-0.95892	-0.335622	-0.065392	-8.54	0.42	-22.05	0.3815	0.1661	-0.1929	
-0.967948	-0.331352	-0.052826	-6.72	-0.07	-22.12	0.3764	0.1802	-0.1879	
-0.96746	-0.327326	-0.042822	-3.64	-0.63	-22.05	0.3706	0.1789	-0.1895	
-0.9699	-0.35197	-0.04148	-6.37	-2.45	-21.35	0.373	0.1908	-0.1922	
-0.952698	-0.374784	-0.048678	-8.33	-2.59	-21	0.3644	0.1868	-0.1893	
-0.949282	-0.388082	-0.076616	-6.37	-2.94	-19.39	0.3686	0.1927	-0.1861	
-0.947086	-0.402478	-0.071492	-5.95	-2.38	-17.08	0.3669	0.1973	-0.1874	
-0.953918	-0.417728	-0.057828	-6.3	-1.75	-15.19	0.3579	0.2022	-0.1904	
-0.942938	-0.407236	-0.067466	-3.57	-1.75	-15.19	0.3623	0.2007	-0.1843	
-0.938668	-0.415898	-0.0549	-1.61	-0.35	-14.56	0.3607	0.2037	-0.1873	
-0.928786	-0.412726	-0.057096	-1.47	0	-13.51	0.3564	0.2025	-0.1843	
-0.924028	-0.416508	-0.06734399	-2.94	-2.17	-12.74	0.3549	0.2025	-0.1843	
-0.91561	-0.413946	-0.07381	-0.91	-3.78	-12.18	0.3579	0.2009	-0.1828	
-0.912438	-0.43554	-0.067222	-2.17	-4.27	-10.85	0.3498	0.2177	-0.1945	
-0.902068	-0.439444	-0.058316	-1.19	-5.39	-9.66	0.359	0.21	-0.1841	
-0.892674	-0.44164	-0.063196	-0.28	-6.58	-8.82	0.3572	0.2176	-0.1838	
-0.891942	-0.440176	-0.074054	-0.7	-7.14	-9.24	0.3527	0.2195	-0.1793	
-0.89853	-0.452742	-0.052338	-0.7	-5.67	-9.31	0.3557	0.2177	-0.1838	
-0.90036	-0.43676	-0.046116	-1.96	-4.62	-9.52	0.3423	0.2227	-0.1913	
-0.89548	-0.426024	-0.050508	-1.96	-3.57	-8.82	0.3395	0.2196	-0.1959	
-0.893528	-0.441762	-0.061976	-2.45	-3.08	-7.84	0.35	0.2146	-0.1946	
-0.90463	-0.449936	-0.039772	-1.26	-1.19	-7.28	0.3379	0.2229	-0.1898	
-0.904142	-0.43981	-0.044408	-1.82	-0.07	-6.16	0.3427	0.2136	-0.1901	
-0.919026	-0.448838	-0.042944	0.49	0	-3.99	0.344	0.2179	-0.1945	
-0.919636	-0.45018	-0.047946	1.12	0.35	-2.38	0.3408	0.2243	-0.1882	
-0.914512	-0.454816	-0.040504	2.66	0.21	-0.77	0.3525	0.2237	-0.1913	
-0.915732	-0.45506	-0.043676	3.43	-0.56	0.84	0.3494	0.2269	-0.1927	
-0.91866	-0.451888	-0.038674	4.76	-1.12	2.87	0.3481	0.2241	-0.1852	
-0.916708	-0.454328	-0.040016	5.04	-1.4	4.48	0.3455	0.2163	-0.1945	
-0.907924	-0.444202	-0.041358	4.9	-1.4	5.6	0.3497	0.2209	-0.1868	
-0.911706	-0.44042	-0.045872	4.27	-1.12	6.23	0.3471	0.2134	-0.187	
-0.91683	-0.443836	-0.047092	4.13	-1.33	7.42	0.3498	0.2178	-0.1899	
-0.910852	-0.445422	-0.043554	3.5	-1.12	8.05	0.3424	0.2196	-0.1914	
-0.906704	-0.436516	-0.046848	2.8	-0.49	8.61	0.3444	0.2088	-0.1947	
-0.905118	-0.439322	-0.045384	2.8	-0.56	9.8	0.3543	0.2175	-0.1929	
-0.907924	-0.437736	-0.04026	3.78	-0.28	10.36	0.3529	0.2161	-0.193	
-0.915	-0.431026	-0.03782	4.48	0.77	10.57	0.3472	0.2115	-0.2022	
-0.912316	-0.423706	-0.047458	5.04	1.4	11.06	0.3514	0.2157	-0.2066	
-0.916342	-0.426024	-0.044164	4.62	1.75	11.9	0.3489	0.2055	-0.1963	
-0.924028	-0.428586	-0.045384	3.36	1.61	12.74	0.3487	0.2098	-0.2053	
-0.926834	-0.425658	-0.038064	4.13	0.77	13.86	0.3536	0.1992	-0.195	
-0.935374	-0.421632	-0.037942	3.64	0.42	15.26	0.3561	0.2081	-0.1993	
-0.931836	-0.415776	-0.04758	4.06	-1.96	17.64	0.3581	0.1957	-0.2057	
-0.931958	-0.404674	-0.044164	1.96	1.26	15.68	0.3525	0.1916	-0.1998	
-0.931714	-0.399428	-0.038796	1.68	0.63	16.52	0.355	0.2007	-0.1965	
-0.934032	-0.391864	-0.045018	1.96	-0.56	17.64	0.3673	0.1879	-0.1983	
-0.93696	-0.378322	-0.042212	2.38	-0.35	17.78	0.3611	0.1941	-0.2042	
-0.939888	-0.365878	-0.041114	2.87	-0.28	17.71	0.3632	0.1806	-0.1955	
-0.940742	-0.361364	-0.056364	2.17	0.28	17.99	0.3558	0.1823	-0.1985	
-0.941962	-0.361486	-0.03843	3.36	1.12	18.62	0.3618	0.179	-0.1986	
-0.950258	-0.359656	-0.041968	2.03	1.4	18.76	0.3661	0.1801	-0.2061	
-0.952942	-0.361364	-0.029524	0.98	1.33	19.11	0.3704	0.1831	-0.2015	
-0.949404	-0.364292	-0.036844	-0.49	1.05	20.02	0.368	0.1727	-0.1973	
-0.95343	-0.350384	-0.039162	-2.52	0.42	20.58	0.3782	0.1722	-0.1988	
-0.951722	-0.328912	-0.044774	-1.89	1.68	20.93	0.3799	0.1673	-0.2065	
-0.958798	-0.32269	-0.044408	-0.42	2.1	21.7	0.3802	0.1597	-0.2052	
-0.963068	-0.318298	-0.038918	-0.35	2.17	21.7	0.3788	0.1585	-0.1961	
-0.964776	-0.30744	-0.041114	-0.49	1.61	22.12	0.3732	0.1542	-0.1993	
-0.967704	-0.300242	-0.038064	-0.63	0.56	23.31	0.3789	0.1567	-0.2083	
-0.97539	-0.287432	-0.042212	-0.84	-0.21	24.78	0.391	0.149	-0.1903	
-0.975756	-0.268766	-0.039162	0.42	-0.35	25.83	0.3939	0.1485	-0.204	
-0.97844	-0.259738	-0.033428	0.21	0	26.39	0.3794	0.1448	-0.198	
-0.97844	-0.25376	-0.044774	-2.17	-0.35	27.44	0.3734	0.148	-0.201	
-0.970022	-0.259128	-0.045018	-2.8	0	28.42	0.3931	0.1335	-0.1983	
-0.97905	-0.249368	-0.037332	-3.85	0.42	28.35	0.3799	0.1343	-0.1923	
-0.986858	-0.226066	-0.03782	-5.67	0.28	28.63	0.3945	0.1366	-0.1937	
-0.997716	-0.216306	-0.033672	-5.39	-0.49	29.19	0.3891	0.1246	-0.1971	
-0.994422	-0.219722	-0.03843	-4.9	-0.49	30.1	0.4027	0.1165	-0.1943	
-0.991738	-0.210084	-0.041114	-4.55	-0.56	30.8	0.3998	0.115	-0.1974	
-0.995764	-0.205082	-0.03721	-3.5	0.07	31.29	0.3954	0.1152	-0.1974	
-0.997472	-0.18788	-0.043554	-2.59	-1.05	31.43	0.4002	0.1058	-0.1991	
-0.999058	-0.177876	-0.042822	-1.75	-1.96	31.78	0.3973	0.1044	-0.1992	
-0.99857	-0.172752	-0.0305	-4.2	-1.89	32.55	0.405	0.0967	-0.1903	
-1.00528	-0.151646	-0.04148	-1.26	-1.68	31.85	0.4063	0.1011	-0.1962	
-1.003572	-0.129564	-0.03721	-1.54	-1.75	31.85	0.399	0.0999	-0.1948	
-1.0065	-0.125416	-0.04087	-2.52	-1.26	31.5	0.407	0.0858	-0.1967	
-1.013576	-0.114802	-0.0549	-2.73	-2.38	31.92	0.404	0.086	-0.1952	
-1.01748	-0.088328	-0.026718	-1.26	-0.49	32.2	0.403	0.07539999	-0.194	
-1.024922	-0.070516	-0.014152	-3.43	-0.91	32.41	0.4119	0.0734	-0.1985	
-1.025898	-0.059536	-0.026962	-3.22	-2.24	33.18	0.415	0.0704	-0.1911	
-1.010892	-0.044896	-0.040504	-1.61	-2.94	32.69	0.4122	0.0672	-0.2002	
-1.014918	-0.033794	-0.049654	-4.55	-2.45	32.13	0.4184	0.0595	-0.1959	
-1.032486	-0.011834	-0.044042	-4.34	-1.96	32.34	0.4128	0.0538	-0.19	
-1.032486	-0.018422	-0.041358	-2.38	-1.89	32.2	0.4187	0.0516	-0.2037	
-1.027484	-0.003172	-0.046238	2.38	-1.75	31.78	0.4115	0.0491	-0.1977	
-1.017968	0.016104	-0.041968	0.56	-0.91	31.01	0.4209	0.0351	-0.1951	
-1.012478	0.024034	-0.038064	-1.12	-2.03	31.15	0.4162	0.0428	-0.1994	
-1.010282	0.034404	-0.04697	-2.17	-3.01	31.36	0.4149	0.0399	-0.1965	
-1.015528	0.039406	-0.046482	-1.89	-3.01	30.94	0.4153	0.0292	-0.1983	
-1.009062	0.044286	-0.041114	-3.22	-2.8	30.17	0.4127	0.0218	-0.1955	
-1.013332	0.053436	-0.0366	-0.56	-2.73	28.91	0.4169	0.0257	-0.209	
-1.012966	0.041236	-0.049898	-1.54	-4.2	29.54	0.4173	0.0169	-0.1972	
-1.020042	0.026596	-0.061976	-0.84	-3.57	28.91	0.4206	0.009099999	-0.2019	
-1.017236	0.042334	-0.056242	3.99	-3.08	30.17	0.4206	0.0092	-0.1959	
-1.015528	0.04697	-0.041724	6.79	-2.8	30.38	0.4179	0.0029	-0.2097	
-1.011868	0.054168	-0.031964	7.35	-4.27	28.98	0.4182	-0.0029	-0.2023	
-1.008574	0.090646	-0.027694	9.38	-4.62	27.65	0.4203	-0.0182	-0.2027	
-1.002962	0.115046	-0.030378	10.99	-5.18	26.88	0.4174	-0.0184	-0.2148	
-0.999912	0.133956	-0.027572	12.53	-4.76	26.11	0.4249	-0.0231	-0.2074	
-0.997228	0.147132	-0.038064	13.86	-4.62	25.34	0.4147	-0.0226	-0.2074	
-1.002596	0.1586	-0.034526	15.26	-4.27	24.99	0.415	-0.0302	-0.2046	
-1.004792	0.163724	-0.006588	20.23	-3.36	24.92	0.4207	-0.0275	-0.2075	
-0.98393	0.193614	-0.02013	16.59	-3.36	24.29	0.4227	-0.0384	-0.2139	
-0.993934	0.217648	-0.066246	15.12	-4.27	24.01	0.4201	-0.047	-0.2005	
-0.993568	0.229848	-0.05429	18.06	-0.84	22.4	0.4231	-0.0475	-0.2111	
-0.975634	0.272426	-0.017934	19.18	3.29	21.21	0.4148	-0.0592	-0.2115	
-0.991006	0.294996	-0.010614	16.45	4.9	19.46	0.4187	-0.0487	-0.2097	
-0.993812	0.304878	0.00732	8.19	4.41	17.29	0.4179	-0.0621	-0.1995	
-0.976	0.277062	0.002318	-4.06	4.83	14.63	0.4269	-0.0689	-0.2102	
-1.013576	0.27694	-0.017446	-14.56	2.87	12.18	0.4182	-0.0698	-0.2042	
-1.014186	0.242048	-0.016104	-9.94	2.52	12.39	0.4183	-0.073	-0.2089	
-1.009672	0.227652	-0.011956	-9.38	0.56	11.97	0.4194	-0.0638	-0.204	
-1.00894	0.213988	-0.010492	-20.51	-1.68	9.73	0.4289	-0.0794	-0.2045	
-0.994056	0.20313	-0.047092	-21	0.35	7.07	0.4255	-0.0702	-0.2057	
-0.983564	0.203496	-0.031232	-14.35	4.83	5.67	0.4122	-0.0681	-0.2072	
-1.00589	0.199226	-0.002318	-10.5	4.27	3.29	0.4257	-0.0746	-0.1983	
-1.00833	0.20252	0.023546	2.73	1.47	2.8	0.4254	-0.067	-0.2011	
-0.98881	0.170922	0.02684	-1.75	-1.61	4.06	0.4223	-0.0622	-0.1964	
-0.986858	0.170678	-0.026596	-6.37	-3.78	4.41	0.4166	-0.0668	-0.2087	
-0.9943	0.178608	-0.037942	-9.94	-1.75	4.27	0.4185	-0.0761	-0.2089	
-0.986004	0.195444	-0.022448	-13.44	0.56	4.06	0.4152	-0.0682	-0.2042	
-0.985638	0.217282	-0.003538	-6.86	0.49	1.96	0.4213	-0.0746	-0.2074	
-0.981002	0.221552	-0.014274	-0.84	-1.68	0.7	0.4155	-0.0758	-0.2059	
-0.983442	0.213256	-0.06832	1.19	-0.56	0.42	0.4092	-0.0651	-0.2132	
-0.979172	0.194224	-0.117608	5.46	2.52	0.77	0.4124	-0.07099999	-0.2028	
-0.996496	0.264862	-0.0488	9.94	6.79	-1.89	0.408	-0.0724	-0.2043	
-0.994788	0.284504	0.032818	6.02	7.84	-3.78	0.4228	-0.07449999	-0.1998	
-0.985272	0.239486	0.021106	4.06	3.01	-3.36	0.4183	-0.0727	-0.1998	
-0.996008	0.233874	-0.030988	13.16	0.77	-3.15	0.4224	-0.0654	-0.2026	
-0.974292	0.215086	-0.055144	17.71	2.24	-2.8	0.4179	-0.0638	-0.2056	
-0.980148	0.231434	-0.059902	17.71	1.68	-1.61	0.4153	-0.0713	-0.2058	
-0.982954	0.27999	-0.020618	19.74	2.24	-2.94	0.4244	-0.0778	-0.2075	
-0.97905	0.302438	-0.040504	10.22	1.19	-4.83	0.4228	-0.07449999	-0.2013	
-0.981124	0.293776	-0.02623	4.76	2.59	-6.86	0.4139	-0.0728	-0.2089	
-0.98393	0.320616	-0.026474	6.16	3.01	-7.14	0.4212	-0.0714	-0.2027	
-0.986126	0.319762	-0.022936	0.91	3.99	-7.98	0.4237	-0.0607	-0.1949	
-0.98271	0.31476	-0.04453	-2.8	4.13	-7.91	0.4269	-0.0671	-0.1996	
-0.982222	0.295728	-0.042822	-4.97	7.14	-7.07	0.4298	-0.0657	-0.2026	
-0.984418	0.260226	-0.027206	-11.83	7.7	-7.14	0.4211	-0.0683	-0.1996	
-0.986492	0.269742	-0.065026	-17.5	5.74	-7.35	0.4212	-0.0712	-0.1937	
-0.989664	0.238266	-0.049044	-25.34	6.3	-6.51	0.415	-0.0636	-0.204	
-1.000522	0.203252	-0.070516	-29.26	7.91	-5.95	0.4251	-0.061	-0.2024	
-0.9943	0.196908	-0.07015	-28.07	8.96	-6.65	0.4235	-0.0577	-0.1978	
-0.998692	0.188856	-0.063318	-34.93	9.24	-7.91	0.4341	-0.0642	-0.1934	
-0.995154	0.193492	-0.072346	-41.72	8.82	-8.12	0.4292	-0.0531	-0.1871	
-1.003206	0.147742	-0.069174	-49.91	8.54	-9.03	0.422	-0.056	-0.1917	
-0.998692	0.16592	-0.083082	-45.85	10.08	-11.34	0.4256	-0.038	-0.1942	
-0.992592	0.171898	-0.072834	-45.64	11.55	-11.97	0.4331	-0.0412	-0.1882	
-1.006012	0.174338	-0.07124799	-51.52	12.25	-12.81	0.4282	-0.0289	-0.1909	
-1.004548	0.152988	-0.065758	-56.63	13.65	-13.16	0.4339	-0.0258	-0.1817	
-1.000644	0.149206	-0.09333	-55.93	15.12	-11.55	0.4371	-0.0322	-0.1879	
-0.9943	0.16226	-0.054534	-48.65	15.89	-12.74	0.4378	-0.0153	-0.1814	
-1.009306	0.124074	-0.05612	-48.79	17.5	-11.2	0.43	-0.0023	-0.1644	
-0.999302	0.168848	-0.076006	-49.56	17.43	-11.55	0.4274	-0.0117	-0.1768	
-1.014796	0.170922	-0.063318	-46.34	19.04	-12.53	0.4302	-0.008599999	-0.1706	
-1.014796	0.165432	-0.054778	-47.88	18.55	-12.04	0.4299	-0.0009999999	-0.1704	
-1.010892	0.151524	-0.061976	-47.81	19.81	-10.01	0.425	0.0118	-0.1549	
-0.989664	0.174948	-0.079422	-52.43	15.61	-10.43	0.425	0.01	-0.164	
-0.996496	0.15616	-0.081252	-54.39	16.59	-11.2	0.437	0.0049	-0.1626	
-0.984662	0.15616	-0.123464	-53.62	18.34	-11.97	0.4318	0.0235	-0.1576	
-1.009916	0.134078	-0.105408	-43.47	21	-11.13	0.4344	0.0309	-0.1604	
