Sensor string: E
Serial number: 1970-01-0000
Firmware version: 2,015
Hardware version: 2,2
Calibration quality: 5
ax	ay	az	gx	gy	gz	mx	my	mz

-1.007598	0.09857599	0.041358	-0.07	-0.28	0.07	0.4074	-0.0035	-0.3068	Reference
-1.01321	0.098942	0.042456	-0.14	0.14	0.14	0.4173	0.0038	-0.3052	
-1.018212	0.100894	0.04575	-0.21	-0.91	0.21	0.4102	-0.0005	-0.3036	
-1.007842	0.102358	0.043432	-0.14	-1.4	0.21	0.4087	0.0145	-0.3082	
-0.997106	0.100772	0.047214	-0.14	-0.84	0.21	0.4159	0.0099	-0.313	
-0.997472	0.102358	0.050874	-0.21	-0.56	0.28	0.413	0.0069	-0.3021	
-1.009428	0.105774	0.049898	-0.42	0.49	0.35	0.4059	0.01	-0.316	
-1.011746	0.105774	0.04941	-0.49	-0.21	0.28	0.4189	-0.0022	-0.3146	
-1.007842	0.102724	0.04819	-0.42	-0.98	0.21	0.4044	0.0115	-0.3098	
-1.003816	0.100406	0.05124	-0.28	-0.63	0	0.4159	0.0069	-0.3068	
-1.003572	0.102114	0.047702	-0.14	-0.56	-0.21	0.4201	0.0144	-0.3099	
-1.007354	0.098454	0.047092	0.21	-0.21	-0.35	0.413	0.0084	-0.3083	
-1.006866	0.09942999	0.047092	0.21	0	-0.42	0.416	0.0023	-0.313	
-1.008086	0.099674	0.047092	0.35	0.35	-0.42	0.4158	0.0129	-0.3099	
-1.00833	0.102114	0.045872	0.28	0.28	-0.49	0.4073	0.0054	-0.3098	
-1.008818	0.100528	0.047214	0.28	-0.14	-0.42	0.4129	0.013	-0.3067	
-1.007354	0.099064	0.046238	0.14	0	-0.28	0.4088	0.0024	-0.3067	
-1.007598	0.099064	0.048678	0.07	0.21	-0.07	0.416	0.0053	-0.3161	
-1.007354	0.099064	0.046482	0.07	0.07	-0.14	0.4144	0.0099	-0.3021	
-1.007354	0.09857599	0.04453	-0.07	-0.07	0	0.406	-0.002	-0.313	
-1.009916	0.09857599	0.043798	-0.14	0.07	0.14	0.4129	0.016	-0.3114	
-1.010038	0.099918	0.044652	-0.07	0.14	0.14	0.4101	0.013	-0.3051	
-1.007476	0.100528	0.046482	-0.14	0.14	0.21	0.4145	0.0054	-0.3099	
-1.00589	0.100772	0.047824	-0.21	0.28	0.21	0.4073	0.0085	-0.3036	
-1.00223	0.10004	0.051606	-0.07	0.21	0.14	0.4116	0.0084	-0.3067	
-1.004304	0.10065	0.05063	0.07	0.21	0.14	0.4058	0.007	-0.302	
-1.006744	0.101626	0.050752	0.07	0.35	0	0.4116	0.0054	-0.3036	
-1.004914	0.101992	0.046848	0.14	-0.14	-0.07	0.4115	0.013	-0.3051	
-1.010404	0.100406	0.042944	0.28	-0.14	-0.07	0.4073	0.0054	-0.3083	
-1.010526	0.100894	0.0427	0.14	0.14	0	0.4102	0.0084	-0.3114	
-1.013576	0.102602	0.042334	0.07	0.35	-0.21	0.4115	0.01	-0.3005	
-1.00955	0.10126	0.043432	0.07	0	-0.21	0.4202	-0.0036	-0.299	
-1.0065	0.10004	0.046116	0.07	-0.21	-0.21	0.4116	0.0039	-0.3068	
-1.005402	0.099308	0.047946	0	0.14	-0.14	0.4159	0.0129	-0.3239	
-1.009672	0.100772	0.047702	0.14	0.28	-0.14	0.4116	-0.002	-0.3005	
-1.009672	0.101748	0.046726	0.14	-0.21	-0.14	0.4116	0.0039	-0.3036	
-1.006622	0.100894	0.045994	0	-0.07	-0.07	0.4116	0.0099	-0.3083	
-1.006988	0.10065	0.046848	0	0.14	-0.07	0.4188	0.0038	-0.3037	
-1.00467	0.101016	0.04636	0	0.14	-0.07	0.4117	0.0038	-0.3161	
-1.006622	0.10065	0.047336	-0.14	0.14	0	0.4102	0.0039	-0.3145	
-1.009794	0.099796	0.046116	-0.14	0.21	0.07	0.4003	0.004	-0.3176	
-1.007476	0.099552	0.047824	-0.14	-0.21	0	0.4088	0.0054	-0.3145	
-1.00833	0.098088	0.047336	0.07	-0.28	0	0.4102	0.0054	-0.3114	
-1.005524	0.096624	0.048312	0.07	-0.21	0	0.4058	0.013	-0.3129	
-1.007354	0.098454	0.048312	0.21	-0.28	0	0.4144	0.0084	-0.3021	
-1.00955	0.100406	0.045018	0.35	-0.49	0	0.4043	0.0116	-0.2942	
-1.009306	0.10187	0.044408	0.21	-0.63	-0.14	0.4115	0.0145	-0.3083	
-1.01138	0.102968	0.044286	0.14	-0.77	-0.07	0.4146	-0.0006	-0.3099	
-1.010404	0.102114	0.045018	0	-0.63	0.07	0.4132	0.0008	-0.3177	
-1.011502	0.102114	0.045506	0.07	-0.49	0.14	0.4216	0.0128	-0.3146	
-1.007842	0.104188	0.048068	-0.07	-0.91	0.14	0.4087	0.016	-0.3129	
-1.00894	0.102602	0.047214	-0.07	-1.12	-0.07	0.4146	0.0023	-0.3193	
-1.010892	0.102358	0.05124	-0.21	-1.26	-0.07	0.4117	0.0008	-0.313	
-1.007354	0.10126	0.050996	-0.21	-1.75	-0.07	0.4088	0.0099	-0.3161	
-1.003938	0.101016	0.051606	-0.35	-1.61	-0.14	0.4074	0.0024	-0.3098	
-1.006256	0.099918	0.049898	-0.28	-1.4	-0.21	0.4059	0.0024	-0.3067	
-1.00772	0.099674	0.050508	-0.21	-1.33	-0.14	0.4087	0.016	-0.3129	
-1.008452	0.09942999	0.051484	-0.14	-1.4	-0.28	0.4117	0.0069	-0.3177	
-1.012112	0.100772	0.048068	0.21	-1.26	-0.49	0.4044	0.01	-0.3129	
-1.012966	0.10065	0.049898	0.28	-1.33	-0.49	0.4058	0.016	-0.3145	
-1.014918	0.101992	0.058438	-0.07	-1.82	-0.28	0.4102	0.0054	-0.3161	
-1.014918	0.100528	0.05002	0	-2.17	-0.21	0.406	0.0009	-0.3192	
-1.011746	0.10248	0.051728	0	-2.73	-0.35	0.4074	0.0069	-0.3176	
-1.006744	0.101626	0.052338	-0.28	-2.73	-0.21	0.4159	0.0038	-0.3115	
-1.011136	0.101748	0.052582	-0.28	-2.73	-0.28	0.4087	0.0099	-0.3145	
-1.02053	0.10309	0.051606	-0.28	-2.94	-0.28	0.4117	0.0084	-0.3223	
-1.02175	0.101626	0.0549	-0.21	-3.85	-0.49	0.4044	0.0116	-0.3067	
-1.01382	0.10126	0.055876	-0.28	-5.18	-0.63	0.4117	0.0084	-0.3239	
-1.008208	0.097844	0.054046	-0.49	-4.83	-0.49	0.4131	0.0023	-0.3115	
-1.009062	0.099308	0.059658	-0.35	-4.13	-0.49	0.3974	0.007	-0.3176	
-1.01199	0.10004	0.060512	-0.56	-4.55	-0.35	0.4103	-0.0021	-0.3146	
-1.013088	0.099796	0.06466	-0.7	-4.69	-0.28	0.4089	0.0054	-0.3223	
-1.011136	0.100162	0.069296	-0.7	-4.69	-0.35	0.4061	0.0008	-0.3255	
-1.011014	0.10004	0.071736	-0.49	-4.62	-0.42	0.4003	0.0009	-0.3207	
-1.011136	0.100284	0.072468	-0.42	-4.69	-0.49	0.4103	0.0008	-0.3239	
-1.00894	0.101504	0.074908	-0.28	-5.81	-0.7	0.4003	0.0024	-0.327	
-1.007232	0.101626	0.074542	-0.21	-5.6	-0.63	0.3987	0.0191	-0.3191	
-1.013942	0.100772	0.072224	-0.49	-5.18	-0.56	0.4002	0.007	-0.316	
-1.01992	0.102968	0.073078	-0.49	-4.69	-0.49	0.4061	0.0008	-0.3255	
-1.018334	0.10126	0.07124799	-0.77	-5.74	-0.28	0.4018	0.0039	-0.3317	
-1.01931	0.097722	0.074786	-0.84	-6.02	-0.14	0.4031	0.0085	-0.3207	
-1.037366	0.09333	0.06527	-0.42	-5.74	-0.28	0.4117	0.0068	-0.3286	
-1.05652	0.09638	0.066368	-0.49	-6.51	-0.35	0.4017	0.007	-0.3254	
-1.050908	0.101382	0.067832	-1.19	-8.19	-0.49	0.3974	0.0055	-0.3238	
-1.032242	0.105286	0.072102	-1.61	-10.85	-0.28	0.4003	0.0085	-0.3254	
-1.011624	0.10065	0.085034	-1.89	-9.52	-0.07	0.4003	0.0115	-0.3347	
-0.989664	0.101748	0.09455	-1.75	-9.52	-0.63	0.3931	0.0161	-0.3425	
-0.975024	0.098698	0.107116	-1.4	-9.1	-0.63	0.3988	0.016	-0.3347	
-0.993568	0.094062	0.108214	-0.49	-6.16	-0.56	0.3961	0.007	-0.3363	
-1.03761	0.098454	0.110532	0.07	-6.23	-0.77	0.3974	0.013	-0.3347	
-1.043954	0.102602	0.116632	0.14	-10.99	-1.75	0.3946	0.013	-0.3378	
-1.013454	0.105408	0.122366	-0.63	-14.56	-2.52	0.3931	0.0101	-0.33	
-0.988932	0.107482	0.118828	-0.84	-10.99	-2.38	0.3959	0.0161	-0.3269	
-0.988566	0.104066	0.121268	-0.14	-12.39	-1.05	0.4017	0.0144	-0.3441	
-0.991128	0.096258	0.122122	-1.26	-19.11	-0.21	0.3933	0.0039	-0.3472	
-0.99003	0.084546	0.119804	-1.05	-18.34	0.35	0.3876	0.007	-0.3487	
-1.013454	0.079788	0.125172	-0.98	-17.22	0.63	0.3861	0.0101	-0.344	
-1.017968	0.088206	0.140178	-1.68	-20.79	0.63	0.3889	0.0085	-0.344	
-0.99186	0.088328	0.155306	-2.8	-22.26	0.7	0.3861	0.0176	-0.358	
-0.98332	0.088572	0.159088	-3.08	-20.58	0.42	0.3862	0.0009999999	-0.3518	
-0.986492	0.080764	0.16958	-1.96	-18.97	-0.14	0.3732	0.0132	-0.3501	
-0.988688	0.07564	0.177266	-0.63	-18.55	-0.7	0.3762	0.0116	-0.3611	
-0.984784	0.078202	0.18666	0.7	-17.78	-1.61	0.3819	0.004	-0.3534	
-0.97478	0.08418	0.192638	0.56	-16.66	-1.96	0.3904	0.0145	-0.3643	
-0.971242	0.097234	0.199226	0.7	-15.75	-2.73	0.3777	0.004	-0.3642	
-0.973804	0.10492	0.20435	-0.49	-14.49	-1.75	0.3661	0.0148	-0.3657	
-0.978684	0.096746	0.21594	-0.84	-13.93	-1.12	0.3648	0.0057	-0.3688	
-0.975146	0.091866	0.218746	-1.68	-16.1	0.07	0.3604	0.0179	-0.3687	
-0.968192	0.087596	0.215574	-1.96	-19.04	0.7	0.3605	0.0133	-0.3734	
-0.964532	0.090036	0.233264	-2.03	-18.34	0.91	0.3621	-0.0018	-0.3766	
-0.977586	0.096502	0.235338	-1.19	-15.61	1.05	0.3577	0.0103	-0.3797	
-0.968924	0.088328	0.244488	-3.01	-17.71	1.61	0.3562	0.0178	-0.3859	
-0.964166	0.077226	0.245586	-3.15	-17.01	1.89	0.3634	0.0223	-0.3906	
-0.958066	0.078934	0.251564	-3.78	-16.66	2.8	0.3548	0.0148	-0.3812	
-0.967094	0.082838	0.25559	-4.2	-14.77	3.71	0.3591	0.0208	-0.3874	
-0.970632	0.084668	0.259616	-3.78	-14.91	3.85	0.3549	0.0178	-0.3983	
-0.970022	0.072468	0.25986	-3.5	-15.75	4.2	0.3563	0.0102	-0.389	
-0.985394	0.065148	0.260714	-2.59	-16.1	3.64	0.3493	0.0073	-0.3968	
-0.950136	0.074908	0.271084	-1.75	-14.49	4.9	0.3421	0.0104	-0.3967	
-0.932568	0.095892	0.277672	-0.98	-12.88	5.39	0.3521	0.0073	-0.3906	
-0.925492	0.105408	0.290604	-1.12	-11.97	5.25	0.3521	0.0178	-0.403	
-0.940498	0.09747799	0.299388	-1.4	-10.85	4.62	0.3478	0.0103	-0.3968	
-0.946964	0.09882	0.306586	-1.61	-10.36	4.06	0.3451	0.0073	-0.4092	
-0.964166	0.112118	0.306952	-1.96	-10.22	4.2	0.3393	0.0058	-0.403	
-0.940986	0.122	0.316224	-2.03	-9.73	4.9	0.3422	0.0028	-0.4014	
-0.934642	0.1159	0.31171	-2.1	-9.38	4.27	0.3465	-0.0002	-0.3952	
-0.93147	0.111752	0.312076	-2.24	-7.49	3.99	0.3364	0.0164	-0.4091	
-0.941474	0.116998	0.312076	-2.31	-7.56	2.59	0.3423	0.0027	-0.4092	
-0.943304	0.112362	0.314394	-0.84	-7.63	1.12	0.3421	0.0104	-0.3967	
-0.94184	0.104066	0.324154	-1.05	-7.77	0.28	0.3378	0.0149	-0.4029	
-0.927932	0.099186	0.321836	0	-7.07	-0.28	0.3351	-0.0046	-0.403	
-0.923296	0.099918	0.330376	0.49	-5.88	0.14	0.335	0.0059	-0.4061	
-0.926224	0.109678	0.327204	0.91	-5.18	0.07	0.3436	0.0088	-0.4124	
-0.940376	0.112972	0.320006	1.89	-4.2	-0.7	0.3293	0.0059	-0.4045	
-0.939156	0.109922	0.32818	0.63	-4.62	-0.7	0.3365	0.0059	-0.4045	
-0.936472	0.103944	0.324642	0.84	-4.06	-1.05	0.3264	0.0105	-0.4028	
-0.941352	0.106384	0.320494	0.49	-2.52	-1.19	0.3379	0.0088	-0.4123	
-0.94672	0.100162	0.326716	0.21	-0.56	-0.35	0.3265	-0.0015	-0.4045	
-0.950746	0.10797	0.329522	-0.49	-1.26	0.49	0.3279	0.0059	-0.4076	
-0.945378	0.106628	0.326472	-0.63	-1.82	0.98	0.3337	-0.0001	-0.4061	
-0.93452	0.104676	0.330254	-0.35	-0.98	0.28	0.3295	-0.0046	-0.4139	
-0.938302	0.100772	0.323788	-0.35	-0.49	-0.42	0.3409	0.0042	-0.417	
-0.941962	0.098332	0.32696	-0.14	0.42	-0.49	0.3307	0.0119	-0.4138	
-0.949282	0.101138	0.3233	-0.35	0.56	0.35	0.3379	0.0089	-0.4076	
-0.93879	0.10675	0.3294	0	0.77	0.84	0.3293	0.0075	-0.3998	
-0.932446	0.108214	0.329522	0.56	1.61	0.63	0.331	-0.0077	-0.4201	
-0.930982	0.11224	0.326472	0.56	2.38	0.35	0.3379	0.0028	-0.3998	
-0.939278	0.110166	0.327936	0.98	3.64	0.28	0.3265	0.012	-0.4138	
-0.937326	0.112972	0.329766	0.7	4.48	0.77	0.3393	0.0104	-0.4076	
-0.930982	0.114314	0.326594	0.49	5.53	1.12	0.3207	0.0076	-0.4059	
-0.9333	0.10797	0.331352	0.07	7.42	2.1	0.3422	0.0058	-0.4046	
-0.932446	0.10675	0.324032	-0.28	8.47	3.64	0.3307	0.0105	-0.4029	
-0.928176	0.108946	0.319762	-0.49	9.24	4.9	0.3336	0.0059	-0.3998	
-0.9333	0.105774	0.316224	-0.77	10.71	5.18	0.3336	0.0029	-0.4014	
-0.924394	0.107238	0.312442	-0.98	11.2	4.34	0.3408	0.0013	-0.403	
-0.927078	0.114558	0.305854	1.4	10.85	2.1	0.3365	0.0028	-0.4014	
-0.937204	0.109312	0.304756	-0.14	12.6	1.96	0.3436	0.0058	-0.403	
-0.936838	0.108214	0.302926	0.35	13.37	1.47	0.3392	0.0089	-0.3936	
-0.939522	0.109312	0.297924	0.7	14.28	1.47	0.3408	-0.0016	-0.3999	
-0.95038	0.116754	0.280844	1.19	14.98	1.19	0.3407	-0.0001	-0.3921	
-0.945012	0.118462	0.287554	0.84	15.82	1.12	0.3521	0.0058	-0.3843	
-0.950014	0.119072	0.273646	0.98	16.94	0.28	0.3479	-0.0002	-0.3921	
-0.945012	0.11468	0.274134	0.56	17.43	0.7	0.3492	0.0103	-0.389	
-0.949404	0.116632	0.26718	1.12	18.2	0.42	0.3564	-0.0048	-0.3782	
-0.952454	0.116022	0.259738	1.61	19.25	0.28	0.3521	0.0012	-0.3828	
-0.957822	0.115778	0.253272	1.26	20.58	0.49	0.3564	-0.0032	-0.3782	
-0.962336	0.118584	0.248148	2.03	21	0.14	0.3693	-0.0019	-0.3783	
-0.962092	0.119682	0.239486	2.03	21.42	0.28	0.365	-0.0033	-0.372	
-0.955138	0.121756	0.229726	2.66	22.75	-0.28	0.355	-0.0047	-0.3782	
-0.953308	0.11834	0.218624	2.59	24.08	-0.77	0.3607	-0.0018	-0.3798	
-0.966484	0.122976	0.21106	3.08	25.48	-1.33	0.3721	-0.0019	-0.3705	
-0.975024	0.121024	0.20435	3.22	26.53	-1.89	0.3707	-0.0049	-0.3752	
-0.979538	0.118096	0.192028	3.36	26.74	-2.38	0.3749	-0.0079	-0.3565	
-0.976488	0.117608	0.182268	2.73	25.97	-1.96	0.382	-0.005	-0.3581	
-0.972706	0.11895	0.174094	2.73	27.93	-0.91	0.3777	0.0025	-0.358	
-0.972096	0.114192	0.163602	3.08	28.49	-0.63	0.3819	0.004	-0.3518	
-0.97539	0.1098	0.151524	2.59	28.14	-0.49	0.3803	0.0041	-0.3346	
-0.976854	0.112606	0.143228	2.8	29.19	-0.7	0.3977	-0.0051	-0.3457	
-0.989542	0.116998	0.13725	2.73	29.82	-0.56	0.3832	0.0026	-0.3378	
-0.989786	0.11163	0.120292	3.22	29.75	-1.12	0.3975	0.0055	-0.3301	
-0.999912	0.11285	0.108702	3.5	30.38	-1.26	0.3919	-0.0095	-0.3285	
-0.998936	0.115168	0.097234	3.71	29.33	-1.47	0.3932	0.0025	-0.3347	
-0.991128	0.115778	0.083082	4.13	27.72	-1.96	0.3989	-0.002	-0.3223	
-0.990518	0.116998	0.069784	4.34	27.58	-2.59	0.406	0.0084	-0.3254	
-0.999424	0.118218	0.055266	4.06	28.84	-2.59	0.4103	-0.0036	-0.3161	
-1.008818	0.12139	0.044652	4.06	28.07	-2.66	0.4102	0.0009	-0.3099	
-1.02724	0.122732	0.032574	4.06	27.72	-2.52	0.4044	0.0085	-0.302	
-1.0248	0.118096	0.022936	4.13	26.88	-2.31	0.4103	-0.0036	-0.3052	
-1.018578	0.117852	0.02074	3.64	26.95	-2.45	0.4174	0.0008	-0.3037	
-1.013942	0.113094	0.01037	3.99	27.16	-2.24	0.4187	0.0023	-0.2959	
-1.013332	0.10858	0.001098	3.71	26.25	-1.75	0.4186	0.0039	-0.2865	
-1.038098	0.119072	-0.00366	4.62	29.05	-2.24	0.43	0.0098	-0.2835	
-1.070306	0.141886	-0.007198	4.83	32.55	-5.18	0.4172	-0.002	-0.2709	
-1.05713	0.123952	-0.025864	6.86	26.11	-5.11	0.4227	0.013	-0.2756	
-1.03334	0.093208	-0.037576	6.3	19.6	-1.47	0.4271	0.0054	-0.2725	
-0.997472	0.071004	-0.047458	4.76	23.1	2.8	0.4285	0.0009	-0.2569	
-0.991738	0.086742	-0.056242	5.18	24.57	5.04	0.4313	0.0009	-0.257	
-0.98088	0.104554	-0.053558	6.3	21.42	4.97	0.4299	0.0024	-0.2601	
-0.986736	0.118462	-0.055022	6.65	19.53	3.5	0.4371	-0.0067	-0.2555	
-1.007476	0.123464	-0.06649	6.02	20.93	1.19	0.4343	-0.0067	-0.2633	
-1.0187	0.12688	-0.072468	3.92	20.79	0.07	0.4414	0.0007	-0.2602	
-1.004304	0.11956	-0.079422	0.77	18.06	0.21	0.4356	-0.0036	-0.2523	
-1.001498	0.109434	-0.089914	-0.42	19.46	1.26	0.4356	-0.0021	-0.2461	
-1.002474	0.10675	-0.09333	-1.12	21.28	2.17	0.4427	-0.0022	-0.2446	
-1.005524	0.116998	-0.11346	-0.07	21.49	2.38	0.4412	0.0038	-0.2477	
-1.0065	0.129808	-0.120902	0.98	20.93	2.94	0.447	-0.0007	-0.2415	
-1.01016	0.138104	-0.135542	1.33	20.16	2.8	0.4483	0.0053	-0.2321	
-1.015162	0.131394	-0.14213	2.31	17.57	1.4	0.4499	-0.009699999	-0.2291	
-1.022482	0.129442	-0.148352	1.89	14.14	0	0.4526	0.0022	-0.2322	
-1.010892	0.132004	-0.153354	1.05	12.25	-1.47	0.4397	0.0039	-0.2383	
-1.01443	0.127978	-0.166042	1.89	13.58	-2.45	0.4424	0.0085	-0.2211	
-1.012966	0.119316	-0.16653	2.38	14.28	-2.59	0.454	-0.0037	-0.2213	
-1.010526	0.116022	-0.117486	1.54	17.5	-3.5	0.4525	-0.0006	-0.2181	
-1.039806	0.121146	-0.179584	2.59	12.39	-5.88	0.4498	-0.0082	-0.2181	
-1.00589	0.119804	-0.169336	-0.07	2.8	-5.95	0.4482	-0.0005	-0.2087	
-1.006256	0.106506	-0.172996	2.73	4.13	-5.46	0.4454	-0.0036	-0.215	
-0.99613	0.096014	-0.15799	4.55	6.79	-5.46	0.4539	-0.0021	-0.2103	
-0.990152	0.092232	-0.14335	4.41	6.09	-5.39	0.4454	-0.0066	-0.2072	
-0.972462	0.09552599	-0.1403	5.11	6.02	-5.53	0.4525	-0.0006	-0.215	
-0.981978	0.09028	-0.146522	7.84	8.61	-6.44	0.4497	-0.0006	-0.2243	
-0.99857	0.096502	-0.158478	8.75	5.95	-7.49	0.4467	0.0039	-0.204	
-1.000156	0.092232	-0.15616	6.65	4.2	-7.14	0.4581	0.0053	-0.2119	
-1.006988	0.093696	-0.167262	7	2.87	-6.79	0.4425	0.0039	-0.2165	
-1.002596	0.098942	-0.176168	6.44	2.38	-5.88	0.4467	-0.0035	-0.2009	
-1.005768	0.091744	-0.187148	4.76	5.18	-4.06	0.4511	-0.0006	-0.2228	
-1.004914	0.09028	-0.205692	4.06	6.72	-2.94	0.4481	0.013	-0.2133	
-1.024068	0.089792	-0.205814	1.75	3.92	-2.24	0.4566	0.0159	-0.2071	
-1.037366	0.095282	-0.213866	1.33	1.61	-2.1	0.4582	0.0008	-0.2072	
-1.015894	0.087352	-0.216184	-1.12	0.77	-0.84	0.4538	0.0039	-0.2009	
-1.013454	0.088572	-0.208498	-2.1	3.99	-0.35	0.4494	0.0175	-0.2071	
-1.011136	0.083692	-0.20191	-3.29	4.69	-0.07	0.4581	0.0038	-0.2088	
-1.01199	0.078324	-0.204838	-2.52	5.67	0.49	0.4553	-0.0021	-0.2088	
-1.02419	0.083082	-0.215452	-1.19	5.11	0.63	0.4582	0.0053	-0.2181	
-1.024312	0.083326	-0.208742	-1.75	3.71	0.77	0.451	0.0038	-0.2165	
-1.018212	0.08295999	-0.219966	-0.35	3.85	0.49	0.4508	0.0145	-0.2024	
-0.999546	0.08418	-0.206058	-0.07	3.15	0.91	0.4537	0.0114	-0.1993	
-0.987834	0.087596	-0.177876	-1.05	-0.28	0.7	0.4581	0.0083	-0.2056	
-0.987346	0.086254	-0.183854	-0.07	0.91	0.56	0.4609	0.0114	-0.1994	
-0.9882	0.087352	-0.179096	-0.28	3.71	0.63	0.4581	0.0114	-0.2087	
-0.99064	0.087718	-0.184464	-0.49	4.69	0.49	0.4509	0.01	-0.2024	
-0.99796	0.092232	-0.1891	0.91	2.94	0.07	0.4653	0.0007	-0.2073	
-0.994178	0.088816	-0.195566	0.98	0.49	-0.21	0.451	0.0024	-0.204	
-0.993202	0.08784	-0.18849	0.42	-1.75	-0.28	0.4624	0.0007	-0.2026	
-0.98454	0.08906	-0.178364	0	-0.63	-0.21	0.4479	0.0115	-0.1931	
-0.989542	0.092476	-0.188246	-0.21	0.21	-0.42	0.4509	0.0069	-0.2056	
-0.994666	0.088572	-0.194102	0.7	1.68	-0.42	0.4624	0.0083	-0.2088	
-0.98942	0.086498	-0.187392	-0.28	0.21	-0.35	0.4481	0.0024	-0.1978	
-0.991616	0.089792	-0.192028	-0.21	0.14	-0.21	0.4567	0.0023	-0.2088	
-1.003328	0.08967	-0.206546	0.42	1.68	-0.28	0.4423	0.0145	-0.2164	
-1.006256	0.08601	-0.208498	0.35	1.4	-0.21	0.4538	0.0099	-0.2134	
-1.001132	0.086742	-0.200324	0.14	-0.21	-0.28	0.4566	0.0069	-0.1978	
-1.001742	0.086132	-0.209474	0.77	0.35	-0.21	0.4552	0.0039	-0.1978	
-1.00162	0.082838	-0.21045	0.63	0.77	0.07	0.4551	0.013	-0.1931	
-0.997594	0.084058	-0.197762	-0.07	0.21	0.14	0.461	0.0083	-0.2088	
-1.001132	0.087474	-0.201788	0.84	0.21	0	0.4581	0.0068	-0.2088	
-0.998082	0.08686399	-0.208498	1.05	-0.07	0.28	0.4524	0.0099	-0.2103	
-0.998814	0.08845	-0.203008	0	-0.91	0.28	0.4566	0.0008	-0.1947	
-1.002352	0.085644	-0.208376	-0.21	0	0.49	0.4596	0.0038	-0.2072	
-1.020652	0.08784	-0.22143	0.28	2.59	0.98	0.4509	0.0024	-0.1994	
-1.008208	0.099186	-0.21106	2.45	-1.05	0.49	0.4524	0.0039	-0.2056	
-0.998326	0.090646	-0.195322	0.28	-2.38	1.4	0.4495	0.0024	-0.1993	
-0.979904	0.087352	-0.192394	-0.98	-0.49	1.61	0.4567	0.0098	-0.2119	
-0.967582	0.090402	-0.182146	-2.03	2.38	1.68	0.4609	0.0023	-0.1901	
-0.974536	0.095404	-0.165432	-2.24	2.66	0.91	0.4581	0.0008	-0.1916	
-0.974902	0.09272	-0.166286	-1.68	2.17	0.42	0.4596	-0.0006	-0.201	
-0.986736	0.092964	-0.175924	-1.82	0.21	0.07	0.4553	0.0038	-0.2088	
-0.989298	0.092964	-0.179096	-1.19	-0.77	-0.35	0.4567	0.0068	-0.2103	
-0.989542	0.09089	-0.181414	-0.42	-2.66	-0.63	0.4566	0.0114	-0.2056	
-0.993446	0.087596	-0.187758	-0.42	-3.78	-0.7	0.4595	0.0113	-0.2056	
-0.98515	0.077836	-0.198006	-3.71	-4.34	0.35	0.4607	0.0205	-0.1947	
-0.989054	0.082594	-0.200324	0.21	-2.66	-1.12	0.4551	0.0129	-0.2009	
-0.996008	0.084424	-0.209352	0.42	-1.82	-1.26	0.4637	0.0098	-0.201	
-1.007842	0.087596	-0.218502	2.59	-1.19	-1.96	0.4551	0.0145	-0.2009	
-1.011624	0.090036	-0.220576	2.8	-0.28	-1.68	0.4509	0.0099	-0.204	
-1.012844	0.091866	-0.215818	2.03	0.35	-0.84	0.4537	0.0145	-0.204	
-1.013088	0.092598	-0.215208	0.91	-0.21	-0.28	0.4696	0.0036	-0.2073	
-1.003938	0.091256	-0.208132	0.42	-0.7	0.28	0.4565	0.0174	-0.2071	
-1.000644	0.091134	-0.195566	-0.56	-1.68	0.77	0.4552	0.0114	-0.2103	
-1.004182	0.085766	-0.189344	-1.96	-1.96	1.33	0.461	0.0038	-0.2072	
-0.997106	0.08295999	-0.193004	-2.45	0	1.68	0.4595	0.0023	-0.2025	
-0.99796	0.085766	-0.184952	-2.8	0.28	1.75	0.4594	0.0174	-0.2087	
-0.997472	0.084912	-0.183854	-2.1	-1.19	1.47	0.4552	0.0099	-0.2134	
-0.99186	0.082594	-0.180682	-0.98	-2.94	1.4	0.4582	-0.0007	-0.2072	
-0.995886	0.088938	-0.188368	-0.91	-2.38	1.47	0.4509	0.0144	-0.2165	
-1.000888	0.09516	-0.191906	-0.77	-1.54	1.4	0.4481	0.0039	-0.204	
-1.001742	0.099308	-0.19642	-0.42	-2.31	1.54	0.458	0.0114	-0.2056	
-1.004304	0.100894	-0.196298	-1.33	-3.36	1.68	0.4551	0.013	-0.1978	
-1.010648	0.098698	-0.198372	-1.89	-4.13	1.96	0.4551	0.0099	-0.1994	
-1.015528	0.098698	-0.207644	-2.31	-3.71	2.24	0.4623	0.0098	-0.2041	
-1.01504	0.097356	-0.203008	-2.52	-5.25	2.24	0.4467	0.0024	-0.2103	
-1.011746	0.0976	-0.1952	-2.73	-7	1.89	0.4554	-0.0052	-0.2104	
-1.010526	0.098698	-0.190442	-2.38	-7.7	1.33	0.4525	-0.0006	-0.2072	
-1.009428	0.09882	-0.18788	-2.52	-6.79	1.19	0.4553	0.0083	-0.2134	
-1.00955	0.097844	-0.186172	-2.03	-6.58	0.91	0.4566	0.0099	-0.2072	
-1.003572	0.098942	-0.176656	-1.47	-7.91	0.63	0.4525	0.0008	-0.2119	
-1.000766	0.10065	-0.165432	-1.54	-10.36	0.21	0.4524	0.0084	-0.2118	
-1.005036	0.1037	-0.164334	-1.19	-11.2	-0.21	0.4582	0.0037	-0.2166	
-1.00467	0.1037	-0.162138	-0.63	-11.69	-0.56	0.4509	0.0144	-0.2165	
-0.988688	0.092842	-0.14884	0.77	-12.18	-1.4	0.4468	0.0024	-0.2181	
-0.999424	0.10126	-0.151036	1.19	-10.22	-1.26	0.4468	0.0023	-0.2243	
-1.00284	0.098698	-0.149938	0.91	-12.25	-1.33	0.4496	0.0114	-0.2274	
-1.00894	0.0915	-0.155916	0.14	-13.79	-1.33	0.4483	-0.0006	-0.2274	
-1.015894	0.091744	-0.148352	0.14	-12.25	-1.12	0.4526	0.0022	-0.2306	
-1.021506	0.09162199	-0.154452	0	-13.44	-0.98	0.4483	-0.0006	-0.2259	
-1.015406	0.096014	-0.15006	-1.61	-16.94	-0.35	0.4454	0.0114	-0.2367	
-1.01687	0.101748	-0.13969	-2.31	-18.55	0.42	0.4525	0.0128	-0.2337	
-1.016626	0.102968	-0.131272	-3.5	-18.48	1.05	0.4539	0.0128	-0.2368	
-1.019554	0.111264	-0.131516	-4.69	-20.23	1.61	0.4485	-0.0007	-0.2493	
-1.026142	0.119682	-0.122854	-5.6	-21.28	1.68	0.434	0.0084	-0.2445	
-1.027972	0.117608	-0.11285	-6.23	-21.7	1.47	0.4298	0.007	-0.2507	
-1.028704	0.104554	-0.10309	-7.35	-22.89	1.12	0.4412	0.0023	-0.243	
-1.018822	0.101992	-0.09333	-6.51	-22.68	0	0.4384	0.0054	-0.2476	
-1.014552	0.09747799	-0.080886	-6.72	-23.87	-0.42	0.4299	-0.0005	-0.2476	
-1.00711	0.101016	-0.065026	-5.25	-24.22	-1.19	0.4455	0.0083	-0.2555	
-1.015162	0.100162	-0.058926	-5.25	-23.24	-0.84	0.4386	-0.0052	-0.2649	
-1.004304	0.102358	-0.042944	-4.41	-22.96	-0.98	0.4312	0.0099	-0.2585	
-0.991494	0.095404	-0.022936	-5.25	-22.75	-0.49	0.4299	0.0099	-0.2725	
-1.000522	0.090158	-0.015616	-4.62	-22.96	-1.19	0.4271	0.0084	-0.2819	
-1.00894	0.087474	-0.006466	-3.36	-22.12	-2.03	0.4243	0.0054	-0.2834	
-0.991616	0.086132	0.015372	-1.68	-21.14	-3.01	0.4242	0.0175	-0.2865	
-0.980758	0.085644	0.016592	0.35	-17.78	-3.78	0.4227	0.0145	-0.2787	
-0.981734	0.07381	0.025864	1.26	-14.49	-3.85	0.4216	0.0053	-0.299	
-0.980758	0.077836	0.030012	1.82	-14	-3.92	0.4129	0.007	-0.2849	
-0.989664	0.082716	0.036966	1.47	-12.95	-3.43	0.42	0.0084	-0.2881	
-1.004182	0.086742	0.038186	2.1	-13.51	-2.59	0.4172	0.0084	-0.2912	
-1.003938	0.086254	0.035014	0.84	-16.24	-2.1	0.4172	0.0084	-0.299	
-1.006134	0.079788	0.029646	-0.21	-13.65	-1.19	0.4216	0.0068	-0.3006	
-1.005158	0.081252	0.024644	-0.7	-9.94	-0.28	0.4113	0.0191	-0.2895	
-1.017236	0.086254	0.007442	-0.84	-9.03	0.07	0.4114	0.0131	-0.2895	
-1.056642	0.088938	0.002196	-1.33	-8.26	0.56	0.4057	0.0161	-0.3035	
-1.09129	0.0976	0.006588	-2.45	-11.06	0.7	0.4073	0.0085	-0.3083	
-1.079822	0.103212	0.01525	-3.64	-16.59	0.56	0.4028	0.0237	-0.3066	
-1.022482	0.103456	0.028304	-4.27	-16.66	2.1	0.4144	0.0144	-0.3161	
-0.977342	0.09747799	0.047946	-4.48	-14.7	3.29	0.4073	0.0054	-0.3114	
-0.978684	0.098454	0.052948	-4.97	-11.69	4.06	0.4087	0.01	-0.3114	
-1.006988	0.102968	0.057096	-4.9	-19.46	3.92	0.4087	0.013	-0.3161	
-1.014918	0.108336	0.078202	-5.81	-24.71	3.71	0.4002	0.0145	-0.3253	
-1.010526	0.103578	0.088816	-5.46	-23.1	3.29	0.4045	0.0175	-0.3285	
-1.013454	0.102724	0.094062	-5.25	-21.56	2.17	0.4017	0.0115	-0.3254	
-0.990884	0.096868	0.096746	-5.04	-23.03	1.89	0.3973	0.0101	-0.3175	
-1.01321	0.09747799	0.093086	-4.76	-20.02	2.38	0.3973	0.0101	-0.3207	
-1.0126	0.09638	0.111508	-3.08	-21.07	0.35	0.3918	0.0009999999	-0.3316	
-1.0065	0.096746	0.10126	-1.75	-18.13	-1.19	0.396	0.013	-0.3331	
-0.997106	0.093696	0.11651	-2.03	-20.3	-1.82	0.3904	0.007	-0.3425	
-1.002718	0.101016	0.121268	-1.19	-17.43	-2.31	0.3961	0.007	-0.341	
-0.99003	0.08845	0.123952	-2.31	-20.3	-1.19	0.3918	0.0115	-0.3425	
-0.97417	0.076128	0.146278	-2.31	-22.89	-0.7	0.376	0.0193	-0.3486	
-0.978806	0.074176	0.163114	-2.03	-24.64	0.35	0.3761	0.0102	-0.3517	
-0.98576	0.071004	0.18239	-2.66	-24.99	0.49	0.3718	0.0132	-0.3579	
-0.992592	0.078568	0.189344	-1.33	-23.94	-0.42	0.3833	0.0146	-0.3627	
-1.003694	0.078934	0.187026	-1.75	-22.47	0.28	0.369	0.0147	-0.3688	
-0.99674	0.074298	0.180316	-2.45	-22.96	1.61	0.372	0.0071	-0.3689	
-0.991982	0.085522	0.18117	-2.8	-21.91	3.08	0.3677	0.008599999	-0.3751	
-0.965874	0.093452	0.199714	-3.71	-23.87	3.71	0.3691	0.0117	-0.3704	
-0.94916	0.092354	0.209962	-4.13	-23.03	3.92	0.3691	0.0117	-0.3751	
-0.973682	0.09455	0.216428	-3.64	-16.52	4.34	0.3621	0.0011	-0.3782	
-0.970266	0.093818	0.234728	-4.34	-20.23	3.78	0.3663	0.0087	-0.3751	
-0.964044	0.097966	0.247904	-3.08	-20.09	2.59	0.3578	0.0087	-0.3875	
-0.951722	0.099308	0.264008	-3.29	-19.04	2.03	0.3607	0.0026	-0.3844	
-0.935496	0.099064	0.26962	-2.45	-17.01	2.24	0.3548	0.0163	-0.3827	
-0.94733	0.110166	0.274378	-2.1	-17.08	3.36	0.3649	0.0056	-0.3813	
-0.966362	0.110288	0.268644	-1.54	-16.8	3.92	0.3592	0.0162	-0.3953	
-0.966972	0.116632	0.268888	-1.33	-17.78	4.06	0.3507	0.0027	-0.389	
-0.981002	0.116266	0.275232	-1.19	-16.38	2.87	0.3535	0.0103	-0.3859	
-0.964776	0.104188	0.272304	-2.17	-14.7	3.08	0.352	0.0118	-0.3906	
-0.943182	0.106506	0.279136	-1.82	-15.75	3.29	0.3479	0.0057	-0.4046	
-0.943182	0.10919	0.286212	-2.45	-14.35	3.92	0.3422	-0.0002	-0.403	
-0.930372	0.104554	0.293776	-1.89	-14.98	3.01	0.3435	0.0073	-0.3952	
-0.923906	0.102724	0.305366	-1.89	-13.51	1.82	0.3566	0.0011	-0.4094	
-0.940498	0.097966	0.318542	-1.12	-11.76	1.4	0.345	0.0103	-0.4046	
-0.963434	0.106018	0.318176	-0.21	-12.46	0.91	0.3378	0.0164	-0.4076	
-0.960384	0.10858	0.317688	-0.28	-14.56	1.12	0.338	0.0028	-0.4123	
-0.950624	0.112484	0.302804	-0.63	-12.95	2.45	0.335	0.0074	-0.4076	
-0.94001	0.108824	0.313174	-0.42	-13.44	3.64	0.3335	0.018	-0.4091	
-0.925858	0.095404	0.318176	-0.91	-13.44	3.85	0.3335	0.0165	-0.4122	
-0.930128	0.09882	0.32513	0.14	-10.92	1.89	0.328	0	-0.4107	
-0.929152	0.105164	0.335012	0.21	-10.64	0.84	0.3294	0.0089	-0.4279	
-0.928786	0.11224	0.344284	1.12	-10.22	0.35	0.3237	0.003	-0.4107	
-0.912804	0.118462	0.347456	0	-9.1	1.26	0.338	0.0043	-0.4139	
-0.922076	0.115656	0.352458	0.07	-8.75	1.75	0.3337	0.0058	-0.4185	
-0.930128	0.126636	0.358192	0.42	-8.47	1.54	0.3294	0.0089	-0.42	
-0.94489	0.129442	0.35807	0.56	-8.68	0.28	0.3308	0.0134	-0.42	
-0.930616	0.127124	0.34465	-0.42	-9.66	0.42	0.3309	0.0028	-0.4232	
-0.936472	0.128222	0.33184	-0.56	-8.4	1.68	0.3279	0.0135	-0.4231	
-0.951722	0.118096	0.33184	-1.47	-7	2.66	0.3295	0.0013	-0.4248	
-0.93391	0.111752	0.346236	-1.12	-7.14	2.03	0.3181	0.0014	-0.4356	
-0.930494	0.112118	0.358558	-1.05	-6.37	0.77	0.3238	0.0059	-0.4388	
-0.922198	0.113704	0.366976	-0.35	-5.04	-0.98	0.3152	0.0045	-0.4309	
-0.91988	0.112728	0.365268	-1.12	-4.76	-1.61	0.321	0	-0.4294	
-0.918416	0.104188	0.362462	-0.91	-3.99	-1.26	0.3137	0.0045	-0.4262	
-0.92354	0.105652	0.361364	-0.84	-2.66	-0.91	0.3181	-0.0015	-0.4247	
-0.925736	0.109312	0.362706	-0.28	-1.26	-1.33	0.3181	-0.003	-0.4216	
-0.919758	0.107604	0.364292	0.07	-0.84	-2.1	0.3265	0.009	-0.4169	
-0.90646	0.109312	0.370026	0.07	0.14	-2.59	0.3152	0.009	-0.4309	
-0.915488	0.11285	0.36905	0.14	2.38	-2.52	0.3152	0.006	-0.434	
-0.910486	0.103578	0.379176	0.91	3.64	-1.82	0.3095	0.0031	-0.423	
-0.900848	0.10431	0.381372	1.26	4.55	-0.91	0.3209	0.0029	-0.4231	
-0.9028	0.106628	0.379786	1.68	7.14	-0.63	0.3224	0.0029	-0.4356	
-0.897066	0.113094	0.374052	1.68	7.77	-0.84	0.3195	-0.0015	-0.4263	
-0.903654	0.104798	0.364658	1.54	8.68	-1.26	0.3237	0.012	-0.4262	
-0.91683	0.108092	0.3538	1.19	9.94	-1.12	0.3223	0.0014	-0.4185	
-0.946842	0.105042	0.354288	1.33	12.04	-0.07	0.3224	0.0014	-0.4294	
-0.949404	0.108946	0.339526	1.68	13.44	1.82	0.3095	0.0015	-0.4277	
-0.951234	0.119804	0.343186	0.77	15.33	1.82	0.3338	-0.0032	-0.417	
-0.950502	0.123342	0.329034	0.49	16.03	1.26	0.3236	0.0135	-0.4215	
-0.943914	0.11651	0.315126	-0.7	15.19	1.89	0.3252	-0.0061	-0.417	
-0.938546	0.115046	0.306586	-0.42	16.87	1.89	0.3322	0.0074	-0.406	
-0.93574	0.105286	0.320616	-1.4	18.69	2.45	0.3381	-0.0017	-0.4202	
-0.938424	0.107238	0.320494	-0.98	17.15	1.4	0.3323	0.0013	-0.4092	
-0.930128	0.107848	0.315736	0	17.57	-0.07	0.3436	0.0058	-0.4061	
-0.931348	0.10492	0.314516	-0.21	18.55	0.49	0.3379	0.0058	-0.4061	
-0.936716	0.104798	0.312808	0.21	21.28	0	0.3478	0.0118	-0.4046	
-0.942084	0.107238	0.301584	-0.21	21.91	-0.28	0.3508	0.0026	-0.4078	
-0.939644	0.110166	0.27694	0.49	24.57	-0.91	0.335	0.0059	-0.3951	
-0.944768	0.109434	0.263032	0.91	26.95	-0.07	0.3579	0.0011	-0.4	
-0.961726	0.11224	0.263154	1.05	28.21	-0.07	0.3507	0.0027	-0.3921	
-0.95221	0.116266	0.248514	1.96	27.79	0.35	0.3621	0.0087	-0.3891	
-0.93818	0.113948	0.252174	1.61	28	0.84	0.3634	0.0147	-0.3797	
-0.944524	0.11895	0.248148	1.96	29.12	0.77	0.365	0.0071	-0.3891	
-0.944768	0.115534	0.230702	3.29	30.73	-0.07	0.3692	0.0041	-0.3767	
-0.93757	0.11529	0.213012	3.22	30.8	-0.63	0.3719	0.0117	-0.3657	
-0.95892	0.121146	0.202886	3.71	31.08	-1.19	0.3791	0.0085	-0.3705	
-0.977586	0.127002	0.185684	4.76	32.83	-1.75	0.3806	0.0025	-0.3705	
-0.988566	0.117608	0.17324	4.41	32.34	-1.47	0.3804	0.0056	-0.3518	
-0.978928	0.110776	0.166286	3.5	31.15	-0.98	0.379	0.0041	-0.3502	
-0.974414	0.118706	0.147986	4.62	32.69	-1.26	0.3818	0.0056	-0.3471	
-0.983686	0.116144	0.142862	5.18	35	-1.4	0.3819	0.0026	-0.344	
-0.99308	0.110776	0.122854	4.9	35	-1.68	0.3962	-0.005	-0.3363	
-1.000034	0.11956	0.111752	4.62	33.04	-2.17	0.3976	-0.0021	-0.341	
-1.000522	0.11651	0.098698	4.62	32.2	-2.31	0.3931	0.0025	-0.3175	
-0.986736	0.114436	0.082838	4.48	29.61	-2.24	0.3932	-0.0004	-0.3269	
-0.998326	0.110532	0.07198	4.06	27.93	-1.4	0.3975	-0.002	-0.327	
-1.013332	0.113704	0.058072	4.2	29.75	-1.33	0.3975	-0.0019	-0.3176	
-1.025288	0.111752	0.041968	4.34	30.03	-2.1	0.4031	0.0024	-0.3192	
-1.022848	0.11529	0.030744	4.34	28.77	-2.17	0.4132	0.0008	-0.3193	
-1.031876	0.114192	0.024766	3.71	29.61	-1.89	0.4173	0.0129	-0.3146	
-1.031388	0.112972	0.01891	2.94	27.86	-1.33	0.4059	-0.0005	-0.302	
-1.020164	0.113338	0.010126	2.87	24.22	-0.84	0.4173	0.0008	-0.299	
-1.01687	0.11285	0.007198	3.01	23.52	-0.07	0.4159	0.0009	-0.2959	
-1.01382	0.116144	0.004636	3.92	22.12	-0.21	0.4215	0.0068	-0.299	
-1.012112	0.11773	-0.009272	3.5	20.09	0.14	0.4258	0.0068	-0.2928	
-1.00589	0.11529	-0.007686	3.64	19.39	0.56	0.4258	0.0008	-0.2803	
-1.018822	0.112728	-0.018544	3.57	20.93	0.35	0.433	0.0037	-0.2913	
-1.024312	0.117608	-0.025864	3.22	20.72	-0.14	0.4258	0.0068	-0.2897	
-1.010526	0.10919	-0.033672	2.66	18.62	-0.7	0.4258	-0.0051	-0.2804	
-0.999058	0.106262	-0.02867	1.89	19.32	-0.35	0.4314	0.0008	-0.2679	
-0.997472	0.106262	-0.030866	2.31	20.44	0.49	0.4328	0.0038	-0.2741	
-1.002718	0.10736	-0.038674	2.1	20.58	0.98	0.4243	-0.0051	-0.2647	
-1.010892	0.098942	-0.049288	1.61	21	1.33	0.4371	0.0083	-0.2804	
-1.021262	0.103944	-0.057584	1.96	21.42	1.05	0.4342	0.0083	-0.2663	
-1.017968	0.111264	-0.069174	1.05	20.37	0.7	0.4327	0.0099	-0.2647	
-1.014796	0.117364	-0.08174	0.77	18.76	0.56	0.4342	0.0008	-0.2539	
-1.018944	0.121756	-0.097112	0.35	17.64	0.77	0.437	0.0038	-0.2554	
-1.019188	0.125782	-0.112118	-0.14	16.17	1.19	0.4385	0.0023	-0.2586	
-1.02419	0.129076	-0.122244	0.28	16.52	1.26	0.4384	0.0023	-0.2461	
-1.031266	0.125904	-0.124074	1.19	14.56	0.98	0.4383	0.0084	-0.2476	
-1.03395	0.121268	-0.12993	3.36	10.92	-0.07	0.4456	-0.0007	-0.243	
-1.036512	0.12322	-0.138836	5.32	8.12	-1.61	0.4269	0.0009999999	-0.2413	
-1.023458	0.12993	-0.143838	6.09	6.93	-3.01	0.4398	-0.0021	-0.2399	
-1.02663	0.120292	-0.15128	4.9	7.35	-2.45	0.4411	0.0099	-0.2383	
-1.031266	0.123708	-0.149206	3.29	8.4	-1.54	0.4369	-0.002	-0.2352	
-1.033828	0.122122	-0.139446	1.61	8.75	-0.98	0.4384	-0.0036	-0.2352	
-1.0309	0.117242	-0.153842	2.03	7.14	-0.7	0.4527	-0.0053	-0.2337	
-1.027118	0.104676	-0.149572	2.31	6.16	-0.56	0.4454	0.0038	-0.2336	
-1.019066	0.100894	-0.140056	2.87	9.03	-0.63	0.4498	-0.0037	-0.2368	
-1.009672	0.110654	-0.132858	4.34	4.9	-0.56	0.4454	0.0038	-0.229	
-0.987346	0.11285	-0.13115	4.83	8.89	-0.91	0.4426	-0.0006	-0.2258	
-0.976366	0.114924	-0.127002	5.04	10.92	-1.26	0.4469	-0.0037	-0.229	
-0.993324	0.115778	-0.133102	3.29	8.54	-1.54	0.4512	-0.0022	-0.2244	
-0.995032	0.114924	-0.12932	1.54	7.49	-1.26	0.4511	0.0053	-0.2274	
-1.008452	0.115656	-0.115656	1.68	7.35	-2.03	0.4512	-0.0007	-0.2275	
-0.993324	0.104188	-0.12505	3.08	5.74	-2.73	0.4512	-0.0052	-0.2181	
-0.984906	0.103944	-0.1342	4.13	3.78	-3.43	0.4484	-0.0052	-0.229	
-0.9943	0.1037	-0.1403	5.88	3.15	-4.76	0.4539	0.0068	-0.2165	
-1.011014	0.105286	-0.161772	5.67	3.22	-5.39	0.4467	0.0099	-0.2196	
-1.018334	0.100894	-0.173362	3.15	3.08	-4.55	0.4454	-0.0006	-0.2196	
-1.020896	0.09552599	-0.178852	1.26	4.06	-3.15	0.4454	-0.0036	-0.2181	
-1.014918	0.09857599	-0.182024	1.12	2.94	-2.24	0.4496	0.0054	-0.2165	
-1.017724	0.098698	-0.19398	2.8	3.5	-1.89	0.4538	0.0099	-0.2134	
-1.007842	0.102968	-0.191174	4.06	4.76	-1.61	0.4495	0.0099	-0.2118	
-1.014918	0.106018	-0.180072	3.71	5.11	-1.68	0.4494	0.0145	-0.2087	
-1.0004	0.097112	-0.170556	2.73	4.55	-1.33	0.4495	0.0099	-0.2149	
-1.005158	0.092232	-0.16226	2.45	6.02	-1.12	0.4583	-0.0022	-0.215	
-0.995642	0.092354	-0.164456	1.82	6.86	-0.91	0.4453	0.0054	-0.2196	
-1.008452	0.099796	-0.175314	1.19	5.18	-0.98	0.4595	0.0143	-0.2197	
-0.995642	0.097112	-0.165554	0.91	3.92	-0.7	0.4481	0.0115	-0.2102	
-1.004182	0.096868	-0.182146	1.75	3.08	-0.7	0.4524	0.0038	-0.2119	
-1.005768	0.092354	-0.185196	0.63	3.01	-0.42	0.4509	0.0084	-0.2103	
-1.00833	0.091744	-0.188734	-0.7	3.08	-0.14	0.4553	0.0023	-0.2056	
-1.01626	0.091988	-0.191052	-1.89	2.31	0.49	0.451	0.0039	-0.204	
-1.009184	0.084302	-0.19215	-1.75	5.04	1.26	0.4553	0.0053	-0.2072	
-1.016138	0.082838	-0.196298	-1.96	4.06	1.82	0.4524	0.0023	-0.2072	
-0.996618	0.087474	-0.179828	-1.12	4.62	2.1	0.4666	0.0082	-0.2026	
-0.990396	0.093696	-0.17568	0.77	6.65	1.68	0.4667	0.0082	-0.2119	
-0.996984	0.096624	-0.176778	1.75	5.04	0.91	0.4581	-0.0006	-0.1994	
-0.995764	0.089792	-0.17568	2.17	2.24	0.77	0.4538	0.0054	-0.2025	
-0.990518	0.092842	-0.180682	1.89	1.75	0.63	0.4581	0.0038	-0.2072	
-0.987834	0.103334	-0.172508	1.82	2.17	0.56	0.4625	0.0007	-0.2073	
-1.009916	0.110898	-0.19154	3.15	1.26	0.21	0.4539	-0.0036	-0.2025	
-1.022238	0.110044	-0.214842	3.78	0.35	0.7	0.4567	0.0038	-0.2056	
-0.997838	0.104554	-0.19825	1.4	-2.8	1.33	0.4495	0.0084	-0.204	
-0.981978	0.107116	-0.186538	-0.07	-3.08	1.47	0.4611	-0.0037	-0.2041	
-0.966972	0.103822	-0.189344	1.4	3.36	0.56	0.4552	0.0023	-0.1994	
-0.978318	0.094428	-0.165432	-0.56	1.68	0.14	0.4567	0.0038	-0.2072	
-0.992592	0.08967	-0.149694	-2.24	2.38	0	0.4609	0.0113	-0.2056	
-1.0126	0.095892	-0.197518	-1.96	7.28	0.49	0.4509	0.0145	-0.2071	
-1.015528	0.101138	-0.213378	0.21	7.56	0.35	0.4582	-0.0037	-0.2104	
-0.998814	0.115168	-0.194712	1.89	0.98	-0.42	0.4567	0.0038	-0.2025	
-0.968436	0.105896	-0.177022	2.1	-2.59	-0.98	0.4468	-0.0035	-0.2056	
-0.950502	0.09516	-0.174704	0.28	-1.54	-0.63	0.4538	0.0084	-0.2103	
-0.977098	0.095404	-0.176656	-2.17	2.1	-0.63	0.4496	0.0009	-0.2056	
-0.989786	0.092354	-0.168116	-2.1	4.69	-1.05	0.4596	-0.0067	-0.2026	
-0.98881	0.088206	-0.183122	-0.63	4.27	-1.47	0.4568	-0.0037	-0.2119	
-0.982832	0.085278	-0.188978	-0.14	3.29	-1.4	0.4581	0.0023	-0.201	
-0.984784	0.088694	-0.176168	-1.47	0.84	-1.4	0.4625	-0.0007	-0.2119	
-0.998814	0.101748	-0.172752	-2.24	0.7	-1.19	0.4524	0.0084	-0.2071	
-0.996252	0.09552599	-0.203862	-1.82	3.22	-0.42	0.4523	0.0024	-0.1931	
-1.000034	0.10553	-0.221186	-1.19	4.06	-0.56	0.4524	0.0039	-0.2009	
-0.99735	0.099674	-0.221552	-0.21	1.61	-1.54	0.4623	0.0053	-0.1947	
-0.99369	0.09467199	-0.225822	0.21	-0.63	-1.89	0.4495	0.0054	-0.1978	
-0.996618	0.099674	-0.215696	0.35	-2.38	-2.38	0.4538	-0.0021	-0.1947	
-0.996008	0.091744	-0.214964	0.35	1.33	-1.96	0.4581	0.0008	-0.2025	
-1.009672	0.087718	-0.219112	0.42	4.76	-1.19	0.4567	0.0038	-0.201	
-1.022848	0.085034	-0.222162	0.14	4.9	-0.56	0.4579	0.013	-0.19	
-1.002352	0.094184	-0.223016	0.91	2.38	-0.42	0.4524	0.0023	-0.2056	
-0.995642	0.094184	-0.199592	1.61	-0.14	-0.42	0.4509	0.0024	-0.1947	
-0.991982	0.090158	-0.20252	1.05	-0.7	-0.56	0.4609	0.0023	-0.1979	
-0.979538	0.09272	-0.203008	0.21	0.21	-0.98	0.4524	0.0039	-0.1994	
-0.986858	0.097356	-0.193492	1.26	1.26	-1.47	0.4567	-0.0036	-0.1932	
-0.989298	0.090646	-0.191906	1.96	1.4	-1.4	0.4552	0.0129	-0.2056	
-0.995764	0.088938	-0.20191	1.47	0.07	-1.19	0.4508	0.013	-0.2009	
-0.998936	0.082228	-0.212158	-1.26	-0.91	-0.56	0.4494	0.0145	-0.1977	
-0.997838	0.087962	-0.202032	1.33	-4.27	-1.26	0.4538	0.0009	-0.1963	
-0.992348	0.088084	-0.19825	1.12	-3.85	-1.26	0.4466	0.0055	-0.1993	
-0.994666	0.088328	-0.207278	0.77	-3.36	-0.98	0.4495	-0.0005	-0.1994	
-0.997716	0.088206	-0.20618	-0.28	-2.59	-0.49	0.4566	0.0099	-0.2025	
-0.997838	0.091256	-0.210694	-0.77	-3.99	-0.14	0.4566	0.0129	-0.2025	
-0.999668	0.090524	-0.210084	-1.33	-4.13	-0.07	0.4507	0.0131	-0.1853	
-1.006256	0.09028	-0.204716	-0.84	-3.22	-0.21	0.4509	0.0114	-0.2118	
-1.005646	0.092476	-0.211792	-0.56	-4.41	-0.42	0.4496	0.0023	-0.2165	
-1.00162	0.089548	-0.207034	-0.28	-4.55	-0.42	0.4508	0.0205	-0.204	
-1.001132	0.088572	-0.202886	-0.91	-3.85	0.07	0.455	0.0205	-0.1993	
-1.003572	0.090646	-0.206668	-1.33	-2.73	0.56	0.4509	0.01	-0.1993	
-1.005524	0.08686399	-0.200446	-2.38	-3.29	1.12	0.4612	-0.0053	-0.2198	
-1.007842	0.086132	-0.197762	-2.17	-3.22	1.47	0.4451	0.0161	-0.2055	
-1.00406	0.088572	-0.202886	-2.1	-1.75	1.89	0.4538	0.0084	-0.2056	
-1.00406	0.091012	-0.199226	-2.17	-1.75	2.1	0.4497	-0.0021	-0.2181	
-1.009062	0.091988	-0.19337	-2.24	-3.36	2.24	0.4409	0.0085	-0.2102	
-1.008452	0.096746	-0.194224	-2.24	-4.69	2.52	0.4523	0.0114	-0.2056	
-1.013332	0.10126	-0.196298	-0.42	-2.1	2.24	0.451	0.0039	-0.2087	
-1.005036	0.094794	-0.192028	-2.38	-2.31	3.29	0.451	0.0008	-0.2119	
-1.003328	0.09747799	-0.185684	-3.01	-5.04	3.36	0.4466	0.013	-0.2086	
-1.00406	0.094428	-0.185196	-2.45	-4.76	3.08	0.4524	0.0069	-0.204	
-1.009672	0.102968	-0.200934	-1.33	-2.66	3.22	0.4582	0.0023	-0.2103	
-1.013942	0.10004	-0.184952	-2.87	-4.83	2.94	0.4524	0.0054	-0.2056	
-1.023092	0.11529	-0.191662	0.42	-4.69	1.05	0.451	-0.0006	-0.2103	
-1.012112	0.101626	-0.18483	-1.26	-6.09	1.12	0.4511	-0.0052	-0.215	
-1.006866	0.101138	-0.181048	-1.12	-7.77	0.7	0.4439	-0.002	-0.2024	
-1.006988	0.104676	-0.184952	-0.35	-8.12	0.21	0.4581	0.0098	-0.2165	
-1.00528	0.10553	-0.17812	0	-7.84	-0.28	0.4481	0.0099	-0.218	
-1.0065	0.105896	-0.174094	-0.21	-9.8	-0.35	0.4453	0.0054	-0.2133	
-1.006988	0.101016	-0.168116	-1.05	-11.83	-0.07	0.4583	-0.0052	-0.2166	
-1.011258	0.101016	-0.161284	-0.98	-11.13	-0.14	0.4498	-0.0007	-0.2431	
-1.00955	0.104432	-0.161772	0	-10.57	-0.42	0.4411	0.0069	-0.2289	
-1.003084	0.101504	-0.152988	-0.42	-13.23	-0.49	0.4483	0.0023	-0.2243	
-1.007842	0.097356	-0.14945	-0.77	-14.35	-0.77	0.4455	-0.0036	-0.2306	
-1.011746	0.09942999	-0.144082	-0.49	-14.21	-1.05	0.4453	0.0069	-0.2211	
-1.014308	0.102358	-0.144814	-0.49	-14.42	-0.91	0.4412	-0.0006	-0.2321	
-1.012356	0.100406	-0.136274	-1.68	-15.54	-0.21	0.4469	0.0038	-0.2368	
-1.00955	0.100894	-0.13054	-2.31	-16.94	0.21	0.4426	0.0099	-0.2414	
-1.004426	0.10126	-0.12566	-3.08	-18.48	0.7	0.4397	0.0054	-0.2367	
-1.00711	0.104798	-0.110776	-3.01	-18.76	0.35	0.4412	0.0024	-0.2321	
-1.009794	0.110044	-0.099796	-1.89	-18.97	-0.42	0.4354	0.016	-0.2444	
-1.005036	0.111264	-0.09699	-2.03	-19.95	-0.56	0.4354	0.016	-0.2444	
-0.999912	0.106994	-0.087352	-2.66	-20.51	-0.7	0.4399	0.0053	-0.257	
-0.994422	0.106018	-0.073688	-2.87	-20.09	-1.26	0.4341	0.0024	-0.2476	
-0.992592	0.10492	-0.06734399	-3.15	-19.11	-1.33	0.4298	0.0114	-0.2663	
-0.998936	0.10187	-0.054778	-3.01	-18.62	-1.33	0.4285	0.0009	-0.2616	
-1.016138	0.099918	-0.050874	-3.29	-19.88	-0.98	0.4327	0.0114	-0.2663	
-1.036268	0.099552	-0.049776	-4.41	-21.35	-0.42	0.4215	-0.002	-0.2756	
-1.02297	0.09821	-0.044652	-4.06	-24.5	-0.7	0.4343	0.0068	-0.2757	
-1.000278	0.091744	-0.033916	-3.71	-25.9	-1.12	0.4229	-0.0005	-0.2725	
-0.991006	0.086498	-0.022936	-3.15	-22.05	-0.91	0.4229	-0.0051	-0.2741	
-0.997472	0.086498	-0.02379	-2.94	-18.34	-0.56	0.4343	0.0083	-0.2772	
-1.022116	0.094184	-0.02562	-2.94	-16.87	-0.07	0.4315	0.0053	-0.2866	
-1.053714	0.10309	-0.017812	-3.15	-17.36	0	0.4199	0.0115	-0.2818	
-1.070062	0.106872	-0.012688	-3.57	-20.86	-0.35	0.4143	0.0115	-0.288	
-1.04981	0.107482	-0.002074	-3.99	-24.64	-0.98	0.4229	0.0129	-0.2943	
-1.029924	0.10431	0.006832	-4.41	-26.11	-0.84	0.4216	0.0068	-0.3006	
-1.011258	0.102846	0.018422	-4.34	-24.5	0.14	0.4172	0.0159	-0.3067	
-1.009428	0.101016	0.026108	-3.85	-23.17	1.26	0.4101	0.0115	-0.3036	
-1.025776	0.101504	0.032208	-3.64	-22.33	1.89	0.4172	0.0114	-0.3005	
-1.030656	0.10614	0.041724	-2.73	-22.96	1.61	0.4102	-0.002	-0.3036	
-1.013698	0.105896	0.052826	-2.17	-23.94	0.35	0.4087	0.013	-0.3145	
-0.998936	0.097112	0.06832	-2.03	-23.8	-1.82	0.3988	0.01	-0.3191	
-0.980392	0.098698	0.075884	-1.89	-22.05	-3.85	0.4075	0.0008	-0.3255	
-0.976244	0.103822	0.088206	-1.33	-20.02	-4.41	0.3958	0.0131	-0.316	
-0.974292	0.10248	0.10736	-1.12	-18.62	-3.5	0.3988	0.0115	-0.33	
-0.970388	0.095282	0.116754	-1.19	-19.25	-2.1	0.3988	0.0161	-0.3269	
-0.963312	0.081984	0.129076	-1.89	-17.78	-1.26	0.3946	0.0115	-0.3347	
-0.97844	0.077104	0.128344	-1.61	-13.86	-1.05	0.3989	0.007	-0.3301	
-1.003816	0.082106	0.131882	-1.4	-12.04	-1.19	0.3947	0.004	-0.3363	
-1.009428	0.087596	0.14701	-1.12	-15.61	-1.68	0.3947	0.0054	-0.3425	
-0.991128	0.091012	0.12139	-2.31	-26.46	-1.82	0.3946	0.013	-0.3409	
-0.978684	0.084424	0.127612	-2.38	-22.05	-1.05	0.3889	0.0131	-0.3393	
-0.986004	0.07869	0.12139	-2.87	-16.73	0	0.3875	0.0101	-0.3409	
-1.01321	0.081374	0.128222	-2.87	-14.7	0.28	0.3904	0.0115	-0.3471	
-1.01748	0.081496	0.12871	-2.66	-13.44	0.07	0.3891	0.0009	-0.355	
-1.014918	0.087962	0.145058	-3.01	-16.1	0	0.3891	0.0099	-0.3674	
-1.003938	0.094062	0.158112	-3.43	-14.42	0.77	0.3846	0.0191	-0.3533	
-0.998204	0.091012	0.166896	-2.73	-16.87	0.84	0.3862	0.004	-0.3534	
-0.978806	0.078446	0.166896	-3.64	-20.93	1.12	0.379	0.0101	-0.3549	
-0.998936	0.078934	0.169092	-4.34	-19.18	1.4	0.3732	0.0177	-0.361	
-1.00406	0.08723	0.182512	-3.85	-20.65	0.91	0.3733	0.0102	-0.3579	
-0.99979	0.090646	0.18056	-5.39	-24.78	2.31	0.3775	0.0132	-0.3564	
-0.968192	0.08784	0.201544	-5.46	-23.31	2.8	0.3747	0.0192	-0.3688	
-0.963434	0.082838	0.20313	-7	-21.35	3.64	0.3691	0.0147	-0.3782	
-0.96563	0.086986	0.2196	-7.35	-21.28	3.15	0.3691	0.0132	-0.3782	
-0.97234	0.088938	0.223626	-8.68	-21.14	2.24	0.3677	0.0177	-0.3828	
-0.979782	0.090402	0.238266	-7	-20.02	0.56	0.3605	0.0163	-0.3781	
-0.98576	0.089304	0.24583	-5.74	-19.25	0.07	0.3606	0.0057	-0.3797	
-0.987834	0.088816	0.248392	-4.62	-19.74	0.28	0.3592	0.0057	-0.3828	
-0.9699	0.085156	0.248758	-4.34	-19.25	0.35	0.3506	0.0103	-0.3859	
-0.970876	0.093208	0.249246	-2.8	-18.2	-0.63	0.3519	0.0164	-0.3843	
-0.965386	0.10004	0.261812	-2.17	-18.69	-1.26	0.3535	0.0193	-0.4015	
-0.953552	0.09638	0.269986	-3.36	-20.51	-0.84	0.3491	0.0164	-0.3921	
-0.951356	0.085644	0.278038	-2.73	-19.39	-0.42	0.342	0.0179	-0.3998	
-0.92903	0.077714	0.299266	-3.43	-18.34	0.42	0.3421	0.0179	-0.4076	
-0.928908	0.082594	0.310856	-3.5	-17.78	1.54	0.3434	0.0164	-0.3951	
-0.927688	0.080886	0.32269	-2.59	-15.89	1.89	0.3407	0.0209	-0.4138	
-0.935008	0.075518	0.329278	-2.1	-16.17	0.63	0.3463	0.0164	-0.3999	
-0.924394	0.073322	0.328302	-0.98	-16.1	-0.28	0.3349	0.0195	-0.406	
-0.905362	0.070394	0.331718	-0.84	-15.68	-0.28	0.3391	0.027	-0.4076	
-0.919636	0.081374	0.332938	-0.56	-11.69	0.49	0.3392	0.0149	-0.3998	
-0.944158	0.084546	0.335866	-0.98	-10.92	2.17	0.3378	0.0179	-0.4138	
-0.928908	0.090158	0.335622	-1.75	-12.74	3.43	0.3334	0.0256	-0.4091	
-0.929884	0.089182	0.341356	-1.68	-10.64	3.43	0.3278	0.0196	-0.4075	
-0.931714	0.09162199	0.347822	-1.26	-9.52	1.75	0.3349	0.0225	-0.4169	
-0.940132	0.086254	0.342332	-1.75	-8.89	1.54	0.3322	0.0195	-0.4231	
-0.934398	0.08357	0.340868	-0.91	-8.89	1.19	0.3292	0.0196	-0.4091	
-0.928176	0.08686399	0.33977	-0.91	-8.54	1.19	0.3264	0.0211	-0.42	
-0.926956	0.09552599	0.344772	0.07	-5.95	0.7	0.315	0.0197	-0.4199	
-0.942816	0.09942999	0.347822	0	-5.32	0.42	0.3278	0.0241	-0.4215	
-0.939034	0.098332	0.347944	0.14	-5.95	-0.56	0.3236	0.0181	-0.4215	
-0.934886	0.097844	0.346358	0.14	-4.97	-1.26	0.3351	0.0119	-0.4201	
-0.92781	0.101382	0.351116	-0.14	-4.06	-1.33	0.3207	0.0196	-0.4231	
-0.925492	0.097844	0.358802	-0.56	-2.59	-0.91	0.325	0.018	-0.4231	
-0.924638	0.091988	0.361608	-0.77	-1.47	-0.42	0.3221	0.0196	-0.4106	
-0.922076	0.083814	0.361486	-0.56	-0.7	-0.07	0.3251	0.0074	-0.42	
-0.92232	0.078446	0.357948	-0.28	0.28	0	0.3265	0.015	-0.4247	
-0.922442	0.08113	0.35807	-0.21	2.38	-0.14	0.3251	0.012	-0.4247	
-0.923174	0.08052	0.360998	-0.14	2.94	-0.49	0.3207	0.0136	-0.4184	
-0.924394	0.074298	0.359778	0.07	4.41	-0.7	0.3264	0.0196	-0.4122	
-0.924516	0.07686	0.362828	0.91	6.02	-0.7	0.3235	0.0241	-0.4231	
-0.922686	0.079788	0.35563	0.98	6.65	0	0.325	0.0195	-0.4231	
-0.921344	0.089304	0.3538	0.7	8.61	1.05	0.3251	0.0165	-0.4278	
-0.924882	0.09394	0.349408	0.91	9.24	0.98	0.3349	0.0195	-0.4107	
-0.922686	0.088816	0.349408	0.7	10.15	0.7	0.3294	0.0119	-0.4216	
-0.92659	0.084302	0.351604	0.21	11.69	0.42	0.3321	0.0119	-0.4091	
-0.938058	0.086376	0.335744	0.49	10.71	0.63	0.3292	0.0181	-0.4028	
-0.940376	0.091256	0.327692	-0.07	12.74	1.12	0.3365	0.0104	-0.4123	
-0.944402	0.097722	0.315858	0.28	13.51	-0.07	0.3292	0.0165	-0.4091	
-0.941352	0.09516	0.317688	0.28	13.02	-0.98	0.3292	0.0166	-0.4028	
-0.945378	0.091744	0.314516	0	14.56	-2.1	0.3306	0.0196	-0.406	
-0.949648	0.094184	0.307318	-0.7	15.89	-1.89	0.3292	0.0166	-0.4028	
-0.946476	0.096502	0.299632	-0.77	14.14	-1.61	0.3378	0.021	-0.4076	
-0.940742	0.094062	0.29829	-0.63	14.14	-1.61	0.3448	0.0255	-0.4029	
-0.954284	0.094062	0.297436	-0.56	15.4	-1.82	0.3449	0.0179	-0.3967	
-0.957822	0.091134	0.293288	-1.19	14.56	-1.12	0.3334	0.0195	-0.3997	
-0.960994	0.09333	0.285846	-1.12	14.98	-0.77	0.3534	0.0178	-0.3952	
-0.95892	0.092598	0.284992	-1.33	16.1	0.07	0.352	0.0194	-0.3936	
-0.954162	0.090036	0.2806	-1.47	15.96	0.63	0.3506	0.0133	-0.3874	
-0.950868	0.089426	0.268034	-0.77	15.4	0.42	0.3476	0.024	-0.392	
-0.956236	0.07991	0.269376	-1.4	16.73	0.35	0.3517	0.0361	-0.3826	
-0.956358	0.078446	0.257786	-1.61	17.22	0.28	0.3533	0.0254	-0.3889	
-0.960262	0.074664	0.250588	-0.91	17.43	0.28	0.3648	0.0177	-0.3875	
-0.957944	0.068564	0.245708	0.07	18.06	0.35	0.3647	0.0268	-0.3812	
-0.95648	0.0671	0.235582	1.33	18.48	0	0.3519	0.0179	-0.3749	
-0.962824	0.071492	0.233264	2.24	20.37	-0.21	0.3617	0.0314	-0.3765	
-0.978806	0.077226	0.227652	3.5	21.84	-0.56	0.359	0.0179	-0.3672	
-0.985272	0.081008	0.216916	3.08	21.84	-0.07	0.3633	0.0193	-0.3734	
-0.98027	0.087962	0.211914	3.15	23.17	0.42	0.3661	0.0268	-0.3765	
-0.981368	0.090524	0.194468	3.29	24.71	0.91	0.369	0.0177	-0.3704	
-0.980148	0.088816	0.190564	3.5	25.62	1.33	0.3775	0.0162	-0.3548	
-0.977464	0.092232	0.184464	3.85	25.27	0.35	0.3731	0.0253	-0.3594	
-0.974536	0.092842	0.177632	5.53	24.85	-2.31	0.376	0.0223	-0.3532	
-0.97966	0.086986	0.168604	4.06	25.34	-0.77	0.3818	0.0132	-0.3471	
-0.98942	0.091744	0.154696	4.69	25.48	-0.21	0.3745	0.0163	-0.3423	
-0.99064	0.090402	0.149572	4.9	25.06	0.07	0.3832	0.0131	-0.3518	
-0.993568	0.088572	0.142374	4.69	22.75	0.07	0.3903	0.0101	-0.3393	
-0.992104	0.09162199	0.135908	4.41	19.88	0.35	0.3902	0.0222	-0.3346	
-0.984906	0.095038	0.122366	4.06	18.55	0.63	0.3958	0.0192	-0.3222	
-0.99369	0.102358	0.122244	3.64	20.3	1.33	0.3945	0.0176	-0.3284	
-0.996496	0.10553	0.114924	2.8	21.84	1.96	0.3974	0.0176	-0.3378	
-1.00101	0.105164	0.103578	1.96	20.23	1.96	0.3973	0.0161	-0.3269	
-1.003816	0.099674	0.09747799	0.7	22.54	2.1	0.3917	0.0131	-0.3315	
-1.002352	0.093696	0.08295999	0.21	23.52	2.31	0.3958	0.0237	-0.3268	
-1.009916	0.095648	0.071492	0.07	23.59	2.94	0.403	0.013	-0.3207	
-1.012478	0.09638	0.068808	-0.14	21.98	4.13	0.4087	0.0115	-0.3161	
-1.013332	0.092232	0.063562	-0.28	20.65	4.83	0.3886	0.0208	-0.319	
-1.006866	0.087718	0.052826	-0.56	20.16	4.97	0.4086	0.0221	-0.3145	
-1.026142	0.092842	0.045262	0.21	19.04	3.64	0.4043	0.0146	-0.2973	
-1.01992	0.101016	0.043432	1.19	18.34	1.75	0.4014	0.0131	-0.2988	
-1.014918	0.104798	0.03538	1.33	17.92	1.61	0.4087	0.0039	-0.302	
-1.004182	0.10492	0.0305	2.38	18.34	2.73	0.4128	0.0191	-0.3004	
-1.006622	0.105164	0.019764	3.29	20.44	3.57	0.42	0.0114	-0.2881	
-1.00711	0.107604	0.012322	3.71	21.14	3.5	0.4171	0.016	-0.2911	
-1.012112	0.114802	0.003294	4.41	19.88	2.87	0.4115	0.004	-0.288	
-1.013088	0.117486	0.004758	4.83	20.09	2.17	0.4314	0.0174	-0.2912	
-1.012966	0.117974	-0.009881999	5.04	20.02	1.75	0.4243	0.0054	-0.2834	
-1.012478	0.112972	-0.012444	3.99	19.81	1.96	0.4242	0.0099	-0.2803	
-1.017358	0.112972	-0.01647	4.48	19.95	2.24	0.4185	0.0085	-0.274	
-1.017236	0.104554	-0.026474	4.55	19.95	2.03	0.4271	0.0023	-0.2741	
-1.0126	0.101138	-0.029402	5.25	19.32	1.75	0.4213	0.01	-0.2693	
-1.002596	0.107604	-0.039528	5.88	21.07	1.4	0.4341	0.0099	-0.2648	
-1.00589	0.114802	-0.04331	7.42	22.54	0.07	0.4314	0.0023	-0.2679	
-1.009916	0.120414	-0.05551	7.98	23.17	-1.05	0.4299	0.0024	-0.2601	
-1.014552	0.126148	-0.058072	7.84	20.44	-1.68	0.437	0.0053	-0.2617	
-1.007354	0.121024	-0.05551	7.28	17.64	-1.96	0.4356	0.0054	-0.2539	
-0.994788	0.117242	-0.068076	8.05	16.24	-2.87	0.4385	-0.0006	-0.257	
-1.002596	0.11285	-0.082472	7.84	16.94	-1.89	0.4386	-0.0052	-0.2571	
-1.013942	0.105774	-0.104066	8.82	18.06	-0.98	0.4312	0.0009	-0.2429	
-1.008208	0.109068	-0.114192	8.89	17.92	-1.19	0.4356	0.0008	-0.2476	
-1.009794	0.109556	-0.116022	9.59	17.92	-2.03	0.437	0.0023	-0.2461	
-1.02236	0.10675	-0.126148	9.59	16.59	-3.15	0.4369	0.0009	-0.2383	
-1.048102	0.10675	-0.138958	9.1	15.75	-3.85	0.4397	0.0054	-0.2336	
-1.050664	0.109312	-0.15189	8.96	13.23	-3.71	0.4456	-0.009699999	-0.2368	
-1.03822	0.114436	-0.152744	8.26	9.87	-2.94	0.4397	0.0054	-0.2336	
-1.00223	0.108336	-0.12932	7	7.91	-2.03	0.4454	0.0069	-0.2274	
-1.00101	0.105774	-0.142862	6.51	9.45	-1.54	0.4441	0.0008	-0.2368	
-1.009428	0.108458	-0.15006	6.3	10.5	-1.4	0.4469	0.0008	-0.2321	
-1.015528	0.096868	-0.149206	3.78	11.34	-0.28	0.4497	0.0053	-0.2259	
-1.018212	0.096746	-0.152988	2.73	9.24	0.28	0.4497	-0.0021	-0.215	
-1.027728	0.100528	-0.161528	2.03	6.65	0.49	0.4453	0.0084	-0.2258	
-1.019432	0.101748	-0.16897	1.68	3.85	0.49	0.4497	-0.0006	-0.2275	
-1.001742	0.097844	-0.16409	1.82	5.39	0.49	0.4396	0.0069	-0.2273	
-0.989908	0.09747799	-0.147742	0.84	7.07	1.05	0.4481	0.0099	-0.2165	
-1.000278	0.096502	-0.150914	0.28	8.75	1.75	0.4426	-0.0036	-0.2181	
-1.010282	0.108458	-0.160186	0	8.54	2.24	0.4481	0.0099	-0.2212	
-1.016992	0.111752	-0.170678	-0.21	6.51	2.17	0.4424	0.01	-0.2164	
-1.001498	0.114558	-0.163358	-0.07	3.22	1.4	0.454	0.0023	-0.2212	
-0.99247	0.109068	-0.158722	0.21	2.94	0.63	0.4469	-0.0051	-0.2165	
-0.991128	0.108458	-0.15372	0.14	4.2	0	0.4497	0.0038	-0.2243	
-0.991738	0.106018	-0.157624	0.14	5.67	-0.63	0.4568	-0.0022	-0.2166	
-1.000888	0.106872	-0.164822	0.42	6.72	-0.98	0.4468	0.0054	-0.2196	
-1.011136	0.104066	-0.172996	0	5.6	-1.05	0.4495	0.0144	-0.218	
-1.014552	0.095038	-0.186904	-0.21	2.94	-0.91	0.4525	0.0053	-0.2212	
-1.004792	0.090646	-0.182024	0.14	2.03	-0.77	0.4482	0.0054	-0.2165	
-1.010404	0.091988	-0.180316	0.7	2.31	-0.56	0.4467	0.0024	-0.2118	
-1.004548	0.095648	-0.181902	1.12	1.26	-0.28	0.444	0.0039	-0.229	
-1.008574	0.101382	-0.188734	1.75	1.89	-0.21	0.4582	0.0007	-0.2088	
-1.009672	0.10614	-0.190442	1.26	3.15	0.14	0.4496	0.0039	-0.2087	
-1.01382	0.107482	-0.195078	-0.14	3.5	0.77	0.4482	-0.0006	-0.2165	
-1.01077	0.107726	-0.198982	-0.56	3.01	0.91	0.4611	-0.0023	-0.2166	
-1.007476	0.10736	-0.18727	-1.05	1.68	0.91	0.4496	-0.0006	-0.2103	
-1.001498	0.10492	-0.182146	-0.63	2.87	0.7	0.4481	0.0084	-0.2149	
-0.98149	0.10553	-0.169458	-1.82	2.8	0.77	0.4554	-0.0067	-0.2135	
-0.97905	0.104432	-0.16043	-1.89	4.06	0.42	0.4525	0.0053	-0.2196	
-0.977586	0.100162	-0.165554	-1.33	5.25	0.28	0.4567	0.0083	-0.2165	
-0.993446	0.09821	-0.16104	-1.4	4.13	0.35	0.4496	0.0024	-0.2103	
-1.002474	0.103456	-0.167994	-0.49	1.4	0	0.4482	-0.0006	-0.215	
-1.005768	0.101748	-0.180926	0.84	-0.7	-0.14	0.4511	-0.0067	-0.215	
-0.98576	0.098332	-0.184952	1.54	-0.49	0.14	0.4625	-0.0022	-0.212	
-0.976854	0.097844	-0.172386	-0.42	-0.35	0.35	0.4581	0.0068	-0.2056	
-0.981856	0.104798	-0.175192	-0.42	1.82	0.63	0.4482	-0.0006	-0.215	
-0.999912	0.108092	-0.183488	-0.14	3.43	0.84	0.4524	0.0099	-0.2165	
-1.013088	0.109068	-0.1952	0	2.24	0.56	0.4525	-0.0082	-0.2057	
-1.014674	0.10736	-0.20923	0.42	1.19	0	0.4467	0.0069	-0.2102	
-1.00162	0.104432	-0.198006	0.07	-0.77	0.14	0.4539	0.0053	-0.2165	
-0.996008	0.107238	-0.19459	0.98	0.49	-0.14	0.4625	-0.0007	-0.2151	
-0.992226	0.109068	-0.19337	0.56	1.19	-0.14	0.4568	0.0023	-0.2135	
-0.994056	0.105652	-0.178974	-0.42	1.4	-0.14	0.4553	0.0068	-0.2103	
-0.999912	0.103212	-0.182146	-0.49	1.75	-0.07	0.4511	-0.0021	-0.2119	
-0.997106	0.102358	-0.186782	0.56	1.54	0	0.4581	0.0038	-0.1978	
-0.997106	0.105774	-0.18056	0.49	0.77	-0.07	0.4496	-0.0005	-0.2025	
-0.989908	0.107116	-0.177144	0.91	-0.21	-0.49	0.4624	0.0098	-0.2103	
-0.981368	0.10248	-0.179218	0.84	-0.49	-0.49	0.4595	0.0128	-0.2103	
-0.986248	0.101382	-0.181414	0.07	-0.07	-0.35	0.4538	0.0038	-0.2087	
-0.999912	0.104066	-0.190564	-0.49	0.28	-0.14	0.4481	0.0084	-0.2087	
-1.004792	0.10248	-0.202398	0.49	1.12	0.07	0.4553	-0.0006	-0.2025	
-1.005646	0.105286	-0.19947	0.35	-0.49	0.14	0.4509	0.0039	-0.1994	
-1.001986	0.105896	-0.19642	-0.07	-1.61	-0.07	0.454	-0.0112	-0.2072	
-1.00162	0.106628	-0.20069	0.21	-0.77	-0.14	0.4524	0.0038	-0.2087	
-1.00101	0.105896	-0.195444	0.14	0	-0.28	0.4611	-0.0052	-0.2057	
-1.00162	0.105896	-0.193492	0	-0.91	-0.42	0.454	-0.009699999	-0.2026	
-1.003328	0.104432	-0.194224	-0.28	-1.82	-0.28	0.4638	0.0052	-0.2057	
-1.003084	0.105286	-0.194102	-0.77	-1.54	-0.07	0.4595	0.0053	-0.2025	
-0.995032	0.106018	-0.190198	-0.98	-1.05	0	0.4583	-0.0098	-0.2104	
-0.992592	0.10309	-0.17873	-1.47	-1.75	0.07	0.4496	0.0069	-0.2181	
-1.00162	0.10065	-0.17812	-1.82	-2.73	0.07	0.4468	-0.0036	-0.2118	
-1.002596	0.100162	-0.188856	-1.33	-2.31	0.14	0.4524	0.0084	-0.2134	
-1.000156	0.10431	-0.186416	-0.91	-2.17	0.21	0.4539	0.0038	-0.2181	
-1.003328	0.106506	-0.182268	-0.63	-3.64	-0.07	0.4611	-0.0008	-0.2197	
-1.004426	0.106872	-0.187514	-0.63	-4.34	-0.21	0.451	0.0008	-0.2087	
-0.999424	0.105286	-0.18849	-1.19	-4.69	0	0.4554	-0.0007	-0.2181	
-1.00101	0.105896	-0.182268	-1.96	-5.04	0.21	0.454	0.0007	-0.2244	
-1.001742	0.103822	-0.180438	-1.96	-5.11	0.28	0.4511	-0.0021	-0.2197	
-1.005524	0.103578	-0.183732	-1.47	-5.39	0.28	0.4553	0.0098	-0.215	
-1.006256	0.105286	-0.179462	-1.47	-5.74	0.35	0.4553	0.0053	-0.2134	
-1.007354	0.10919	-0.178364	-1.61	-5.67	0.14	0.4552	0.0083	-0.2103	
-1.00467	0.11102	-0.177022	-1.54	-5.81	-0.07	0.4526	0.0007	-0.2244	
-0.99674	0.106872	-0.168604	-1.4	-6.65	-0.21	0.4525	0.0068	-0.2274	
-0.996008	0.10614	-0.160674	-1.19	-7.77	-0.35	0.4597	0.0082	-0.2275	
-1.000034	0.105042	-0.157502	-0.98	-7.84	-0.49	0.4539	0.0083	-0.2212	
-1.002474	0.10553	-0.15799	-0.7	-7.91	-0.7	0.4426	0.0038	-0.2399	
-1.00833	0.106384	-0.157014	-1.05	-9.1	-0.77	0.4483	-0.0021	-0.2228	
-1.00772	0.106506	-0.153354	-1.05	-9.94	-0.91	0.4469	0.0008	-0.2321	
-1.000888	0.105164	-0.150792	-1.19	-10.5	-1.05	0.4426	-0.0051	-0.2259	
-0.997106	0.104066	-0.14213	-1.33	-10.64	-0.98	0.444	0.0023	-0.2336	
-1.001498	0.101382	-0.140422	-1.47	-10.15	-0.77	0.4454	0.0084	-0.2336	
-1.003572	0.10004	-0.135786	-1.61	-10.57	-0.77	0.4483	0.0023	-0.2274	
-1.012478	0.102114	-0.133346	-1.47	-11.48	-0.77	0.4441	0.0008	-0.2383	
-1.011746	0.104066	-0.132858	-1.54	-11.9	-0.7	0.4384	0.0023	-0.243	
-1.006134	0.111996	-0.127612	-1.89	-12.6	-0.63	0.444	0.0084	-0.2352	
-1.002108	0.111874	-0.121634	-2.52	-12.95	-0.63	0.4413	-0.0036	-0.2415	
-0.99918	0.105286	-0.110776	-2.73	-12.6	-0.56	0.4398	0.0008	-0.2461	
-0.99857	0.103456	-0.107604	-3.5	-12.46	-0.49	0.4397	0.0039	-0.2383	
-1.000522	0.101504	-0.09882	-2.8	-12.39	-0.91	0.4369	0.0009	-0.2367	
-1.006256	0.099918	-0.094794	-1.33	-12.74	-1.4	0.4341	0.0069	-0.2492	
-0.995886	0.09552599	-0.085278	-0.98	-13.86	-1.33	0.4399	0.0053	-0.2586	
-1.01626	0.0976	-0.090158	-1.96	-13.86	-1.05	0.4356	0.0054	-0.2539	
-1.004792	0.098698	-0.081618	-2.45	-14.77	-0.77	0.4355	0.0084	-0.2585	
-0.985638	0.090524	-0.07198	-2.52	-13.72	-0.63	0.4354	0.013	-0.2429	
-0.986858	0.085644	-0.06405	-1.82	-9.45	-0.42	0.4413	0.0083	-0.2633	
-1.007842	0.092354	-0.066002	-0.77	-7.7	-0.56	0.437	0.0129	-0.2616	
-1.016504	0.101626	-0.067954	-0.21	-10.43	-0.77	0.4427	0.0053	-0.2586	
-1.014918	0.101504	-0.066368	-0.7	-12.95	-0.77	0.437	0.0113	-0.2679	
-1.006988	0.096136	-0.058072	-1.33	-12.11	-0.42	0.4442	0.0083	-0.2617	
-0.99247	0.093086	-0.052582	-1.26	-10.64	0	0.4328	0.0023	-0.271	
-0.99308	0.100162	-0.053558	-0.56	-8.68	0.21	0.4357	0.0023	-0.2679	
-1.01016	0.106018	-0.0549	0.07	-6.65	-0.14	0.4299	0.0099	-0.2678	
-1.031022	0.107848	-0.0549	-0.63	-6.93	-0.42	0.4257	0.0054	-0.2741	
-1.031266	0.106262	-0.05002	-1.26	-10.43	-0.42	0.4327	0.0099	-0.2694	
-1.023092	0.097234	-0.048556	-1.47	-13.23	-0.42	0.4257	0.0069	-0.285	
-1.019432	0.095404	-0.043676	-1.26	-12.6	-0.42	0.4299	0.0099	-0.2694	
-1.012478	0.09882	-0.041358	-0.56	-12.53	-0.91	0.4271	0.0039	-0.2694	
-1.005768	0.100894	-0.035502	-0.7	-11.76	-0.98	0.4286	0.0038	-0.2803	
-1.008208	0.102846	-0.028792	-1.12	-10.71	-0.56	0.4301	0.0038	-0.2866	
-1.014308	0.10309	-0.018666	-2.03	-9.52	-0.07	0.4259	0.0022	-0.3006	
-1.010038	0.101748	-0.014518	-3.08	-10.36	0.35	0.4243	0.0114	-0.2928	
-1.001864	0.097234	-0.007198	-3.29	-11.69	0.56	0.43	0.0068	-0.285	
-0.994788	0.09638	0.00061	-2.73	-11.2	0.42	0.4272	0.0068	-0.2944	
-0.995398	0.101138	0.002074	-2.24	-9.52	0	0.4329	0.0113	-0.2975	
-1.001864	0.108092	0.006222	-2.31	-9.24	-0.56	0.4187	0.0039	-0.2912	
-1.00345	0.10797	0.007929999	-2.73	-10.01	-1.12	0.4171	0.016	-0.2911	
-1.0065	0.102968	0.004026	-3.15	-10.15	-1.19	0.4229	0.0114	-0.2928	
-1.016016	0.09882	0.001464	-3.36	-9.59	-1.05	0.4158	0.0084	-0.3052	
-1.020774	0.099308	0.005978	-3.5	-10.01	-1.19	0.4258	0.0038	-0.2959	
-1.024556	0.102846	0.004026	-3.5	-10.57	-1.33	0.423	0.0038	-0.2928	
-1.031876	0.107116	0.006588	-3.43	-9.31	-1.68	0.4073	0.004	-0.2974	
-1.023824	0.107116	0.011468	-3.85	-9.94	-2.03	0.4159	0.0038	-0.3068	
-1.013088	0.101626	0.016958	-4.06	-10.57	-2.17	0.4117	0.0009	-0.3083	
-1.003694	0.094306	0.021716	-3.36	-9.73	-2.52	0.413	0.0115	-0.3052	
-1.003206	0.085522	0.030134	-2.45	-7.77	-2.94	0.4173	0.0114	-0.313	
-1.004792	0.081862	0.041846	-1.4	-7.14	-3.43	0.4159	0.0054	-0.3068	
-1.005158	0.082106	0.050386	-0.63	-8.05	-4.13	0.4173	0.0099	-0.3052	
-0.998326	0.084302	0.058926	-0.21	-8.68	-4.69	0.4071	0.0191	-0.3035	
-0.99186	0.08235	0.060634	0	-7.98	-4.62	0.4059	0.0115	-0.3223	
-0.984296	0.075762	0.059658	0.35	-7.14	-4.06	0.4072	0.0191	-0.3098	
-0.983442	0.06893	0.063684	0.84	-6.02	-3.29	0.4158	0.0159	-0.3114	
-0.985394	0.06466	0.065758	1.4	-4.9	-2.52	0.4172	0.0174	-0.313	
-0.989176	0.069418	0.065148	2.1	-3.01	-2.24	0.4144	0.0159	-0.313	
-0.991372	0.072346	0.06405	2.66	-1.82	-2.1	0.4087	0.013	-0.3114	
-0.991372	0.071492	0.068564	2.38	-1.4	-1.68	0.4116	0.016	-0.3192	
-0.995764	0.072102	0.066856	2.03	-1.05	-1.05	0.41	0.0146	-0.2973	
-0.996374	0.076616	0.067222	1.33	-0.63	0.14	0.4058	0.0145	-0.3145	
-0.995886	0.081374	0.06222	0.84	0.14	0.7	0.4071	0.0206	-0.2988	
-0.99613	0.080398	0.057218	0.91	0.91	0.56	0.4	0.0177	-0.3019	
-1.001498	0.07991	0.055998	0.77	0.77	0.98	0.4129	0.0266	-0.3145	
-1.00223	0.07905599	0.053192	0.56	0.7	1.47	0.4144	0.0159	-0.3161	
-1.003694	0.081496	0.05246	0.63	0.77	1.61	0.4073	0.0085	-0.3067	
-1.004182	0.083814	0.051362	0.91	1.96	1.4	0.4101	0.01	-0.3052	
-0.999058	0.08686399	0.055876	0.7	2.17	1.05	0.4072	0.0191	-0.3145	
-0.998326	0.087596	0.054046	0.42	2.8	0.98	0.4072	0.016	-0.3113	
-0.999668	0.089304	0.057096	0.21	3.57	1.05	0.4144	0.0129	-0.3083	
-1.004182	0.08357	0.05551	0.42	4.13	0.98	0.4101	0.016	-0.3067	
-1.005036	0.081008	0.052948	1.26	4.2	0.91	0.4157	0.022	-0.3067	
-1.00162	0.0854	0.051972	1.61	4.76	0.7	0.4173	0.0114	-0.3099	
-0.995154	0.09028	0.047092	1.89	4.83	0.14	0.4058	0.0085	-0.302	
-1.005646	0.088816	0.042944	2.24	5.18	-0.28	0.41	0.019	-0.3098	
-1.006866	0.084058	0.042456	2.38	4.34	-0.21	0.4101	0.016	-0.3145	
-1.015162	0.082228	0.033794	2.24	4.34	0.42	0.41	0.019	-0.3082	
-1.024068	0.085644	0.030378	2.31	5.18	0.7	0.4088	0.0054	-0.3083	
-1.023824	0.088084	0.025132	2.24	4.69	0.28	0.4245	0.0067	-0.3162	
-1.031388	0.08662	0.017202	2.17	4.2	-0.21	0.42	0.0174	-0.3052	
-1.041758	0.084302	0.019398	2.1	3.15	-0.63	0.4186	0.0145	-0.2974	
-1.028094	0.083326	0.01403	1.75	0.21	-0.49	0.41	0.0145	-0.3036	
-1.00162	0.092476	0.020374	2.03	0.21	0.49	0.4143	0.013	-0.2974	
-1.007598	0.091256	0.035502	3.5	3.85	-0.77	0.42	0.0114	-0.2959	
-1.025166	0.087962	0.036722	4.13	3.22	-2.1	0.4244	0.0128	-0.3052	
-1.020896	0.07869	0.027084	5.81	0.7	-2.73	0.4144	0.0114	-0.3067	
-1.003694	0.077348	0.024522	6.72	0.7	-2.59	0.4157	0.0145	-0.3005	
-1.00101	0.080276	0.02867	5.6	3.22	-1.89	0.4101	0.013	-0.3051	
-1.000034	0.08235	0.03599	5.39	2.8	-1.26	0.4216	0.0053	-0.299	
-1.000888	0.082106	0.031964	5.11	2.59	-0.28	0.4172	0.0129	-0.3005	
-1.009428	0.073932	0.029646	4.48	3.71	0.77	0.4171	0.019	-0.2942	
-1.021994	0.077958	0.023424	4.69	2.87	1.33	0.4187	0.0129	-0.3083	
-1.022482	0.083936	0.013298	5.46	2.03	1.19	0.4086	0.013	-0.3051	
-1.016748	0.087108	0.01281	5.11	1.4	0.49	0.4144	0.0115	-0.3005	
-1.020896	0.089182	0.005246	3.92	2.24	0.21	0.4157	0.0145	-0.2974	
-1.03212	0.083082	0.002074	2.87	3.85	0.84	0.4286	0.0098	-0.2959	
-1.03883	0.08113	0.003538	2.1	2.03	1.75	0.4172	0.0099	-0.2974	
-1.03761	0.0793	-0.003416	1.68	-0.56	2.94	0.4173	0.0069	-0.3021	
-1.022482	0.088084	0.004514	0.35	-1.26	3.78	0.4215	0.0068	-0.2975	
-1.008696	0.09552599	0.016348	-0.56	0.21	3.92	0.413	0.0069	-0.3099	
-1.001254	0.087596	0.018422	-0.84	1.68	2.87	0.4159	0.0023	-0.3068	
-0.997106	0.078812	0.02196	-0.56	1.4	2.31	0.4143	0.013	-0.3005	
-1.000278	0.084546	0.031842	-0.42	1.33	3.01	0.4172	0.013	-0.2974	
-1.006134	0.096014	0.030012	0.7	2.1	3.57	0.4144	0.0054	-0.3036	
-1.003572	0.09552599	0.022814	0.49	0.56	4.13	0.4144	0.0039	-0.2958	
-0.995764	0.09747799	0.021716	-0.35	0.63	4.13	0.4102	0.0039	-0.3036	
-0.991738	0.10187	0.018788	-0.77	0.7	3.43	0.4245	-0.0007	-0.2975	
-0.996008	0.105774	0.012688	-0.77	1.33	2.8	0.4159	-0.0021	-0.2974	
-1.00894	0.105652	0.009881999	0.28	1.96	2.31	0.4144	0.0084	-0.2974	
-1.02419	0.107848	0.002196	1.26	0.98	1.89	0.4217	-0.0007	-0.3053	
-1.03273	0.10797	0.003294	1.19	-0.7	1.75	0.4174	-0.0036	-0.3053	
-1.031388	0.106262	0.005124	1.68	-1.54	1.54	0.4188	-0.0036	-0.2975	
-1.023336	0.101382	0.008174	2.03	-1.82	0.91	0.4087	0.0009999999	-0.288	
-1.008574	0.09467199	0.01098	1.61	-2.8	0.63	0.4217	-0.0082	-0.3022	
-1.002718	0.099186	0.01159	1.82	-1.82	0.28	0.4145	0.0038	-0.3083	
-1.012966	0.104066	0.01037	2.45	-0.56	-0.35	0.4174	-0.0052	-0.3037	
-1.015284	0.107116	0.012444	3.08	-1.19	-1.12	0.4131	-0.0111	-0.2943	
-1.01443	0.113826	0.015982	2.52	-3.5	-1.19	0.4217	-0.0037	-0.3022	
-1.005768	0.11407	0.01586	2.31	-2.8	-0.84	0.406	-0.005	-0.3052	
-0.995032	0.111264	0.024888	1.47	-3.08	-0.7	0.4188	-0.0036	-0.2944	
-0.991494	0.105042	0.028548	0.98	-1.96	-0.63	0.4229	0.0114	-0.3021	
-0.993934	0.101138	0.035014	1.26	-0.42	-0.63	0.4144	0.0009	-0.2974	
-1.002596	0.09394	0.03355	0.91	-0.56	-0.35	0.4101	0.007	-0.3036	
-0.999668	0.08357	0.037698	0.56	-1.33	0.28	0.4145	0.0024	-0.3021	
-0.992714	0.08418	0.032208	0.49	-0.84	0.63	0.4088	-0.0005	-0.3099	
-0.9943	0.085766	0.02867	0.07	0.63	0.84	0.4159	0.0039	-0.3005	
-1.002596	0.091256	0.026352	0	2.03	0.84	0.4159	0.0008	-0.3021	
-1.00833	0.093818	0.017812	0.21	1.96	0.56	0.4072	0.0009999999	-0.288	
-1.015162	0.094184	0.013542	0.14	2.03	0.91	0.4173	0.0023	-0.3006	
-1.01565	0.09857599	0.011834	-0.28	1.75	1.54	0.4072	0.0085	-0.2942	
-1.011502	0.107726	0.010248	-0.56	1.68	2.03	0.4144	0.0009	-0.2959	
-1.012722	0.108702	0.0122	-1.26	2.52	2.24	0.4145	0.0024	-0.3005	
-1.013698	0.10858	0.014396	-1.89	1.96	2.45	0.4129	0.0024	-0.288	
-1.010404	0.111996	0.015006	-2.31	0.7	2.38	0.4231	-0.0007	-0.3053	
-1.007964	0.111142	0.01525	-2.31	1.82	2.03	0.4189	-0.0052	-0.3053	
-1.002474	0.11529	0.014518	-2.24	0.84	1.96	0.4159	0.0023	-0.3021	
-1.001254	0.112118	0.01525	-2.17	1.19	1.68	0.4188	-0.0051	-0.2944	
-1.00406	0.11346	0.018178	-2.03	1.54	0.98	0.4117	-0.0081	-0.3021	
-1.004792	0.113826	0.017324	-2.1	1.12	0.28	0.4202	-0.0051	-0.2897	
-1.002718	0.113094	0.013664	-1.96	0.91	-0.07	0.4147	-0.0127	-0.3069	
-1.002596	0.111508	0.013908	-1.61	1.12	-0.63	0.4259	0.0068	-0.3022	
-1.007842	0.111752	0.015616	-1.47	1.47	-1.05	0.4216	-0.0036	-0.2928	
-1.007598	0.109678	0.015738	-1.47	0	-1.33	0.4273	0.0023	-0.2913	
-1.002474	0.111996	0.01403	-1.05	-0.7	-1.96	0.4159	-0.0051	-0.2897	
-1.002108	0.109312	0.0122	-0.14	1.19	-2.59	0.4174	-0.0021	-0.3006	
-1.004426	0.106506	0.015128	0.14	0.63	-3.08	0.4216	0.0008	-0.2975	
-1.010038	0.103578	0.014152	0.28	-0.63	-3.5	0.416	-0.0051	-0.299	
-1.012966	0.10309	0.012566	0.42	-0.49	-3.92	0.4244	-0.0006	-0.2897	
-1.012112	0.101626	0.012322	0.77	-0.35	-4.06	0.4174	-0.0067	-0.3006	
-1.00711	0.098698	0.01342	0.7	-0.49	-3.92	0.4146	-0.0081	-0.3021	
-1.006134	0.098454	0.013908	0.77	0.35	-3.99	0.4188	-0.0021	-0.2975	
-1.007476	0.096258	0.012932	1.12	0.7	-4.27	0.423	0.0023	-0.3006	
-1.011868	0.091744	0.015372	0.84	0.28	-4.27	0.4188	-0.0036	-0.2928	
-1.012356	0.090646	0.013176	0.49	0	-3.99	0.4244	0.0068	-0.2975	
-1.01077	0.089914	0.012566	-0.14	-0.07	-3.5	0.4115	0.01	-0.3005	
-1.005158	0.090158	0.015128	-0.84	0.35	-3.01	0.4172	0.0024	-0.2896	
-1.005646	0.08906	0.016958	-1.19	0.84	-2.73	0.4158	0.0114	-0.3036	
-1.010892	0.08479	0.016348	-1.68	0.98	-2.24	0.4128	0.0145	-0.2911	
-1.01016	0.087596	0.012932	-1.89	0.84	-1.96	0.4202	0.0068	-0.3052	
-1.014186	0.087108	0.006588	-2.03	1.68	-1.47	0.4258	0.0068	-0.299	
-1.018456	0.08601	0.01342	-1.89	1.19	-0.91	0.4144	0.0054	-0.2912	
-1.01626	0.085278	0.013176	-1.96	0.28	-0.49	0.4086	0.0115	-0.2973	
-1.014186	0.080032	0.008296	-1.68	0.7	-0.56	0.4173	0.0023	-0.299	
-1.014064	0.076616	0.008296	-1.26	1.33	-0.56	0.4215	0.0099	-0.2959	
-1.012966	0.07808	0.00732	-0.98	0.91	-0.49	0.42	0.0175	-0.2974	
-1.011258	0.0793	0.005124	-0.98	0.77	-0.28	0.4173	0.0038	-0.3068	
-1.017846	0.078934	0.008417999	-0.63	1.61	-0.07	0.4258	0.0113	-0.3068	
-1.017358	0.08174	0.005124	-0.42	0.7	0.21	0.426	-0.0022	-0.3085	
-1.016016	0.090524	0.003416	-0.63	0.56	0.21	0.4145	-0.0006	-0.3052	
-1.018822	0.092476	0.003904	-0.63	0.84	0.14	0.4173	0.0084	-0.3037	
-1.01504	0.09516	0.004392	-0.7	-0.56	0.21	0.4115	0.01	-0.2958	
-1.011868	0.096136	0.00549	-1.47	-0.63	0.42	0.4172	0.0115	-0.2943	
-1.007964	0.09089	0.010614	-2.1	-0.21	0.42	0.4187	0.0023	-0.2959	
-1.01199	0.086376	0.009028	-2.1	0.84	0.49	0.4115	0.0115	-0.2958	
-1.01077	0.087108	0.010858	-1.33	-0.14	0.35	0.4145	0.0039	-0.3037	
-1.003206	0.087596	0.009393999	-1.19	-1.61	-0.14	0.423	0.0098	-0.3068	
-1.006256	0.084546	0.008662	-0.77	-1.54	-0.63	0.4129	0.0085	-0.2974	
-1.012966	0.078568	0.012566	-1.05	-1.05	-0.7	0.41	0.0161	-0.2973	
-1.008696	0.078568	0.0122	-0.98	-0.7	-0.28	0.42	0.0175	-0.3005	
-1.007842	0.08113	0.011834	-1.12	-0.49	0.14	0.4173	0.0099	-0.3099	
-1.010038	0.08418	0.016226	-1.26	0.07	0.21	0.4158	0.0099	-0.3005	
-1.016382	0.087718	0.01342	-0.77	-0.42	0.21	0.4201	0.0098	-0.3068	
-1.010526	0.092476	0.007929999	-1.19	-1.75	0.14	0.4115	0.0084	-0.3036	
-1.01382	0.092964	0.006344	-1.4	-0.56	0.21	0.4173	0.0009	-0.2943	
-1.019676	0.092964	0.01037	-1.4	-0.84	0.21	0.4186	0.0159	-0.3021	
-1.015894	0.097722	0.007198	-1.82	-1.75	0.21	0.4142	0.0191	-0.2927	
-1.0248	0.101626	0.008296	-2.87	-0.98	0.07	0.4187	0.0129	-0.3068	
-1.020896	0.093818	0.012566	-3.85	-1.75	-0.42	0.4072	0.01	-0.302	
-1.013576	0.087108	0.010492	-4.34	-2.8	-0.49	0.4187	0.0129	-0.3052	
-1.00406	0.083204	0.01342	-4.41	-3.22	-0.42	0.4216	0.0128	-0.313	
-1.005646	0.08113	0.015494	-3.92	-2.31	-0.21	0.4087	0.0055	-0.302	
-1.009184	0.079178	0.014762	-2.87	-1.05	-0.14	0.4173	0.0023	-0.299	
-1.013088	0.07991	0.019642	-2.1	-1.19	-0.42	0.4187	0.0099	-0.299	
-1.009672	0.081496	0.024522	-1.82	-1.19	-0.63	0.4244	0.0083	-0.299	
-1.0065	0.081496	0.023058	-2.03	-0.63	-0.91	0.4186	0.0175	-0.2989	
-1.008574	0.081374	0.02257	-2.17	0	-0.7	0.4157	0.019	-0.2942	
-1.010404	0.080764	0.026962	-2.24	-0.49	-0.35	0.4201	0.0099	-0.299	
-1.007964	0.082716	0.021594	-2.24	-1.12	0.28	0.4144	0.013	-0.3052	
-1.004792	0.088694	0.022448	-2.73	-1.33	0.77	0.4229	0.0189	-0.3005	
-1.011624	0.08967	0.019886	-2.66	-0.21	0.42	0.4144	0.0069	-0.3021	
-1.0126	0.089792	0.01647	-3.22	0	0.28	0.4143	0.0145	-0.3036	
-1.012966	0.08906	0.01403	-3.78	-0.42	0.49	0.4143	0.0145	-0.2974	
-1.012112	0.084912	0.0183	-3.92	-0.49	0.7	0.4257	0.0189	-0.2943	
-1.025654	0.085766	0.017446	-3.43	-0.42	0.42	0.4244	0.0053	-0.2975	
-1.025166	0.084912	0.02135	-3.01	-0.98	-0.14	0.4157	0.0205	-0.3036	
-1.012112	0.08723	0.019276	-2.73	-2.38	-0.35	0.4173	0.0069	-0.3068	
-1.000156	0.087474	0.015128	-3.22	-1.4	-0.07	0.4143	0.0145	-0.2974	
-1.015162	0.09455	0.015616	-3.99	1.54	0	0.4129	0.01	-0.2989	
-1.022482	0.100894	0.01769	-3.78	2.24	-0.7	0.4173	0.0084	-0.3099	
-1.01321	0.092842	0.025498	-2.94	1.54	-1.4	0.4157	0.016	-0.2911	
-0.996496	0.084668	0.030256	-1.89	2.03	-1.89	0.407	0.0207	-0.2926	
-0.993812	0.078934	0.030988	-1.19	3.15	-2.17	0.4158	0.013	-0.2989	
-0.993934	0.079666	0.027206	-1.4	3.36	-1.33	0.4171	0.0145	-0.2958	
-1.012234	0.087108	0.024888	-2.1	3.36	-0.84	0.4243	0.0159	-0.3052	
-1.020408	0.09076799	0.019154	-2.73	1.47	-0.84	0.4202	0.0068	-0.3068	
-1.016748	0.086254	0.020618	-4.69	-1.05	-1.19	0.4114	0.0176	-0.2926	
-1.011258	0.077348	0.006954	-5.32	-0.07	-1.05	0.4114	0.0145	-0.2989	
-1.002962	0.070516	0.010614	-6.16	1.12	0.42	0.4129	0.016	-0.3036	
-1.001742	0.069296	0.016592	-6.09	3.71	2.24	0.4157	0.0205	-0.3083	
-1.011746	0.07905599	0.014884	-6.3	5.81	2.73	0.4258	0.0204	-0.3099	
-1.016748	0.087474	0.022204	-5.95	5.25	1.68	0.42	0.016	-0.2958	
-1.014064	0.08906	0.023546	-5.11	4.34	-0.07	0.4214	0.0129	-0.2881	
-1.005646	0.086498	0.021716	-3.85	2.52	-1.19	0.4242	0.022	-0.299	
-1.002108	0.082472	0.021716	-3.22	1.47	-1.54	0.4227	0.0251	-0.2818	
-0.996862	0.087108	0.02867	-3.71	2.52	-1.75	0.4201	0.0084	-0.2943	
-0.998814	0.088206	0.025254	-2.66	3.85	-1.89	0.4185	0.0205	-0.2911	
-0.99796	0.085278	0.015006	-1.82	4.34	-1.75	0.4229	0.0159	-0.2974	
-1.001742	0.08357	0.015494	-1.19	4.06	-1.82	0.4184	0.0236	-0.2864	
-1.013942	0.08479	0.005246	-0.91	4.62	-1.61	0.4255	0.0265	-0.2865	
-1.017846	0.088084	0.007808	-1.26	3.36	-1.89	0.4156	0.0251	-0.2942	
-1.020286	0.084668	-0.005002	-2.1	2.1	-2.1	0.4227	0.025	-0.2943	
-1.018456	0.07625	-0.015982	-3.64	1.96	-1.75	0.4213	0.0266	-0.2911	
-1.020164	0.073688	-0.011468	-3.36	3.15	-1.68	0.4213	0.025	-0.2958	
-1.013454	0.06893	-0.010858	-2.87	3.01	-1.68	0.4213	0.0281	-0.2942	
-1.01016	0.06344	-0.011956	-2.31	2.24	-1.12	0.427	0.025	-0.2927	
-1.009794	0.064782	-0.008662	-1.75	2.59	-1.12	0.4227	0.0266	-0.288	
-1.021872	0.072712	-0.008174	-1.61	4.06	-1.61	0.4199	0.0281	-0.2973	
-1.030534	0.08662	-0.000732	-2.17	2.38	-2.8	0.424	0.0326	-0.2864	
-1.024434	0.085766	-0.000976	-2.31	1.05	-3.22	0.4312	0.028	-0.2865	
-1.017724	0.07905599	-0.001708	-2.1	0.35	-3.36	0.4226	0.0296	-0.2833	
-0.99674	0.071004	0.000244	-1.89	0.42	-1.89	0.4213	0.0205	-0.2849	
-0.990274	0.066734	0.005856	-1.26	0.63	-1.05	0.4212	0.0281	-0.2786	
-0.996252	0.069174	-0.000732	-0.56	1.26	-0.84	0.4241	0.0296	-0.2849	
-1.010892	0.071492	-0.002806	-0.56	1.33	-1.19	0.4184	0.0281	-0.2864	
-1.026142	0.070882	-0.00671	-0.7	1.33	-1.47	0.4198	0.0266	-0.2864	
-1.021384	0.065514	-0.005246	-0.84	-0.35	-1.68	0.4269	0.0341	-0.2833	
-1.010404	0.058804	-0.007686	-0.56	-1.26	-1.19	0.4183	0.0297	-0.2802	
-1.008574	0.058682	-0.011346	-0.42	-0.35	-0.7	0.4184	0.0266	-0.288	
-1.018578	0.063318	-0.010126	-0.56	0.91	-0.84	0.4184	0.0251	-0.288	
-1.024922	0.070394	-0.013542	-0.77	0.28	-1.26	0.4183	0.0342	-0.2848	
-1.016382	0.07076	-0.005978	-0.63	-1.68	-1.33	0.4169	0.0357	-0.2895	
-1.010038	0.06832	-0.007686	0.28	-1.4	-1.47	0.4155	0.0296	-0.2942	
-1.005158	0.06649	-0.001098	0.77	-0.7	-0.98	0.4183	0.0372	-0.2895	
-0.997716	0.063196	0.00549	0.77	-1.12	-0.7	0.4253	0.0387	-0.277	
-1.005524	0.061244	-0.001464	1.89	-0.84	-1.05	0.4255	0.0326	-0.2911	
-1.010526	0.06344	-0.004514	2.59	-1.12	-1.4	0.4241	0.025	-0.2896	
-1.011136	0.064416	0.000122	2.52	-1.96	-1.4	0.417	0.0251	-0.2911	
-1.012234	0.060024	0.000244	2.73	-2.52	-1.26	0.4255	0.025	-0.2865	
-1.013454	0.058072	-0.005368	2.24	-2.17	-0.35	0.4284	0.031	-0.2943	
-1.006012	0.05856	-0.001342	1.82	-1.33	0.28	0.4169	0.0372	-0.291	
-1.008574	0.062586	0.000854	2.31	-1.26	0.07	0.4298	0.037	-0.2974	
-1.014552	0.063562	-0.001342	2.73	-1.54	0.07	0.424	0.0386	-0.2926	
-1.01382	0.064538	0.00061	1.96	-1.68	0.28	0.4155	0.0297	-0.2895	
-1.005646	0.064782	0.009393999	1.75	-2.1	0.49	0.427	0.028	-0.2912	
-1.0065	0.064782	0.005612	2.45	-1.82	0.28	0.4184	0.0281	-0.288	
-1.011746	0.063318	-0.000854	2.52	-0.84	0.63	0.4211	0.0372	-0.2833	
-1.008696	0.06344	0.005246	1.68	-1.54	0.98	0.4213	0.0205	-0.2865	
-1.018212	0.061854	-0.001098	1.54	-2.38	1.4	0.427	0.0295	-0.2943	
-1.02236	0.05978	-0.006344	1.05	-3.29	2.31	0.4098	0.0343	-0.2941	
-1.012966	0.069052	0.005734	-0.42	-3.08	3.22	0.4213	0.0235	-0.2927	
-1.00955	0.066368	0.00488	0.21	-1.82	3.29	0.4141	0.0312	-0.2973	
-1.003816	0.067954	0.00488	0.56	-2.03	3.36	0.427	0.031	-0.2958	
-1.002718	0.067954	0.009516	0.84	-1.89	3.08	0.4171	0.0175	-0.288	
-1.00711	0.066856	0.01342	1.12	-1.54	2.94	0.4184	0.0326	-0.2973	
-1.01077	0.067222	0.011102	1.4	-2.45	2.8	0.4184	0.0341	-0.2973	
-1.010038	0.068198	0.01159	1.68	-2.8	2.8	0.4184	0.0266	-0.2895	
-1.00955	0.07564	0.013786	1.68	-2.94	2.87	0.4298	0.0325	-0.2943	
-1.006012	0.07747	0.01525	1.4	-3.5	3.36	0.417	0.0221	-0.2864	
-1.003938	0.076616	0.016348	1.4	-3.22	3.64	0.417	0.0251	-0.2942	
-1.00406	0.075884	0.016348	1.61	-1.82	3.71	0.4142	0.0236	-0.3051	
-1.00406	0.078202	0.018178	1.96	-1.4	3.43	0.417	0.0236	-0.2958	
-1.002596	0.078568	0.02135	1.54	-1.89	3.29	0.4285	0.0204	-0.299	
-1.012478	0.082228	0.013664	1.61	-2.17	3.36	0.4214	0.0175	-0.2943	
-1.021628	0.0854	0.010492	1.26	-2.03	3.85	0.4257	0.0144	-0.2974	
-1.01687	0.086742	0.012078	0.84	-3.08	4.34	0.42	0.0175	-0.2927	
-1.012234	0.08784	0.011712	0.98	-3.08	4.41	0.4115	0.01	-0.2942	
-1.013942	0.09162199	0.01159	1.68	-2.1	4.13	0.4242	0.028	-0.3083	
-1.01321	0.088816	0.016714	1.82	-1.4	3.5	0.4144	0.0114	-0.3083	
-1.01565	0.088084	0.017812	2.1	-1.68	3.01	0.41	0.0175	-0.3067	
-1.015406	0.08845	0.022204	1.82	-2.45	2.94	0.4186	0.0129	-0.3036	
-1.013332	0.089426	0.025376	1.4	-2.17	3.22	0.4129	0.016	-0.3005	
-1.0065	0.094794	0.02562	1.89	-1.61	3.36	0.4129	0.013	-0.3067	
-1.002474	0.0976	0.028304	1.82	-1.33	3.43	0.4173	0.0069	-0.3052	
-1.00162	0.098454	0.031598	2.24	-1.19	3.01	0.4144	0.0054	-0.3036	
-1.00589	0.099674	0.033184	2.8	-0.77	2.24	0.4172	0.0099	-0.3021	
-1.006988	0.100894	0.032818	3.29	-0.42	1.26	0.4202	0.0083	-0.3099	
-1.00955	0.103578	0.030866	3.78	-0.35	0.49	0.413	0.0099	-0.3052	
-1.00955	0.110654	0.02806	3.85	-0.35	0.07	0.4115	0.016	-0.3036	
-1.012112	0.114436	0.02196	3.5	-1.05	-0.07	0.4187	0.0099	-0.3037	
-1.013088	0.113216	0.00976	3.29	-0.56	-0.35	0.4187	0.0069	-0.3021	
-1.017236	0.114558	0.010004	2.52	0.63	-0.21	0.4216	0.0068	-0.3053	
-1.020896	0.110776	0.009393999	2.03	-0.14	-0.14	0.416	0.0008	-0.3099	
-1.020286	0.107848	0.015494	1.75	-0.56	-0.35	0.4144	0.0099	-0.3021	
-1.017114	0.106994	0.020862	1.54	-0.35	-0.77	0.413	0.013	-0.3083	
-1.010648	0.106384	0.02196	1.54	-0.63	-1.26	0.413	0.0054	-0.3021	
-1.00406	0.099308	0.026596	1.54	-0.35	-1.89	0.4201	0.0038	-0.2943	
-1.003084	0.094062	0.03233	1.4	-0.98	-1.96	0.423	0.0098	-0.3037	
-1.00345	0.089304	0.032452	1.05	-1.82	-1.68	0.4159	0.0008	-0.3052	
-1.005402	0.086376	0.030256	1.26	-1.68	-1.33	0.4216	0.0068	-0.3037	
-1.004792	0.08686399	0.02623	1.68	-1.61	-1.05	0.413	0.0009	-0.2974	
-1.008818	0.09211	0.026474	1.96	-0.63	-0.84	0.4116	0.0024	-0.3068	
-1.010648	0.096746	0.028548	2.59	0.07	-1.05	0.4044	0.004	-0.2989	
-1.012112	0.096502	0.026596	2.8	-0.35	-1.54	0.4201	0.0083	-0.3037	
-1.017358	0.092232	0.026596	2.45	-1.05	-1.54	0.4158	0.0054	-0.299	
-1.023214	0.088816	0.019398	3.01	-0.42	-1.19	0.4158	0.0054	-0.299	
-1.020042	0.083326	0.020984	2.66	-2.03	-0.77	0.4186	0.019	-0.3021	
-1.019554	0.083082	0.014884	3.15	-2.1	-0.42	0.4231	-0.0007	-0.31	
-1.019798	0.082594	0.013786	3.36	-1.68	-0.28	0.4172	0.0175	-0.3036	
-1.020286	0.086254	0.019276	3.29	0	0.84	0.4229	0.0159	-0.3083	
-1.017968	0.088084	0.021472	3.01	-0.21	1.33	0.4101	0.0115	-0.3005	
-1.01565	0.09357399	0.02745	3.01	-0.21	1.68	0.4131	0.0054	-0.3099	
-1.00955	0.0976	0.027328	3.5	0.35	1.82	0.4143	0.019	-0.3067	
-1.009184	0.106628	0.030988	3.85	0.91	1.61	0.4158	0.0114	-0.3036	
-1.012356	0.107238	0.029646	4.69	0.84	1.12	0.4186	0.0159	-0.3083	
-1.007354	0.103212	0.030012	4.34	-0.91	1.19	0.4173	0.0039	-0.3006	
-1.006744	0.10309	0.028304	3.92	-1.61	0.98	0.4144	0.0084	-0.3005	
-1.00955	0.104554	0.028792	3.64	-1.75	0.42	0.4159	0.0024	-0.3005	
-1.004792	0.108336	0.027938	3.15	-2.45	-0.28	0.4216	0.0053	-0.3006	
-0.99918	0.105286	0.029768	2.17	-2.66	-0.21	0.4145	-0.0006	-0.3068	
-1.008208	0.099918	0.031354	1.47	-1.47	0.28	0.4245	0.0022	-0.31	
-1.015284	0.09162199	0.030012	1.54	-0.77	0.98	0.4245	0.0022	-0.3037	
-1.014796	0.088572	0.033672	1.47	-0.7	1.89	0.4115	0.01	-0.302	
-1.011258	0.091988	0.036478	1.75	-0.63	2.45	0.423	0.0113	-0.3115	
-0.999668	0.093452	0.03782	2.03	-0.98	2.31	0.4245	0.0022	-0.3069	
-0.992592	0.09333	0.040382	1.75	-0.84	2.1	0.4259	0.0067	-0.31	
-1.000766	0.09455	0.037576	1.54	0.63	2.24	0.4203	-0.0037	-0.3053	
-1.007354	0.099064	0.035258	1.26	0.56	2.73	0.4016	0.004	-0.3051	
-1.014918	0.096746	0.037332	0.77	0.21	3.64	0.4059	-0.0004	-0.2958	
-1.015406	0.100772	0.033428	0.84	0.42	5.18	0.4159	0.0069	-0.3068	
-1.011868	0.101626	0.032696	0.98	1.12	6.44	0.4174	-0.0021	-0.3006	
-1.0187	0.105286	0.030622	1.05	1.05	7.21	0.4189	-0.0052	-0.3053	
-1.01748	0.108458	0.02684	1.47	0.56	7.49	0.4147	-0.0142	-0.3053	
-1.012234	0.103822	0.027572	1.47	-0.07	7.84	0.4159	-0.0006	-0.2974	
-1.014308	0.1037	0.022814	1.75	1.33	7.98	0.4103	-0.0081	-0.299	
-1.011014	0.10675	0.024278	1.68	1.75	8.26	0.4202	-0.0036	-0.2975	
-1.006256	0.112484	0.025986	1.4	1.12	8.26	0.4233	-0.0143	-0.31	
-0.999424	0.119438	0.024644	1.61	1.33	7.91	0.416	-0.0052	-0.3084	
-0.998936	0.129686	0.022448	2.03	1.96	6.93	0.4204	-0.0128	-0.3022	
-0.996862	0.136152	0.025254	2.17	1.89	5.74	0.4189	-0.0112	-0.2944	
-0.994178	0.13603	0.024034	2.03	2.17	4.76	0.4146	-0.0127	-0.299	
-0.998936	0.151768	0.01952	1.75	2.24	3.99	0.4161	-0.0172	-0.2991	
-1.00772	0.156526	0.013176	1.96	3.08	3.36	0.4174	-0.0127	-0.2944	
-1.005768	0.160796	0.017446	1.19	-0.63	3.36	0.4189	-0.0127	-0.2991	
-1.001132	0.1647	0.012932	0.77	-2.24	2.73	0.4146	-0.0081	-0.299	
-0.999668	0.17141	0.022082	0.63	0.07	1.33	0.406	-0.0111	-0.3021	
-0.998326	0.159454	0.027816	1.61	2.73	-0.49	0.4147	-0.0142	-0.3022	
-0.995642	0.1464	0.03172	2.94	1.47	-1.33	0.419	-0.0082	-0.3147	
-1.003816	0.136396	0.029768	5.04	1.05	-1.12	0.4161	-0.009699999	-0.3115	
-0.99491	0.134688	0.040138	5.39	-0.21	-0.77	0.4176	-0.0218	-0.3054	
-0.990884	0.13481	0.03599	5.39	-0.84	-1.26	0.4133	-0.0158	-0.3162	
-0.987956	0.132736	0.034648	5.53	0.42	-1.89	0.4189	-0.0112	-0.3053	
-0.988932	0.13054	0.03111	5.04	0.77	-2.17	0.4105	-0.0263	-0.3053	
-1.001742	0.12993	0.020862	4.41	0.77	-2.24	0.4233	-0.0249	-0.296	
-1.007232	0.130784	0.017324	3.64	1.4	-1.75	0.4089	-0.0156	-0.2928	
-1.016138	0.137006	0.010736	3.43	-0.42	-1.54	0.419	-0.009699999	-0.3116	
-1.022726	0.13115	0.008174	3.43	-0.77	-1.12	0.4217	-0.009699999	-0.3007	
-1.027118	0.127612	0.001952	3.08	-1.75	-0.84	0.4118	-0.0202	-0.3006	
-1.014674	0.127978	0.003538	1.96	-1.4	-0.28	0.4148	-0.0233	-0.3069	
-1.010526	0.132492	0.006466	1.4	-0.91	-0.21	0.4175	-0.0127	-0.2959	
-1.018212	0.133468	0.012078	0.98	-0.35	0.42	0.4148	-0.0248	-0.3038	
-1.019554	0.130784	0.02074	0.84	-1.47	1.19	0.429	-0.0204	-0.2992	
-1.005524	0.127978	0.026474	0.77	-3.01	1.75	0.4118	-0.0187	-0.2944	
-0.991494	0.127612	0.029646	1.19	-2.24	1.4	0.4117	-0.0171	-0.2897	
-0.989298	0.130174	0.032086	2.03	0.07	0.56	0.4162	-0.0263	-0.3038	
-0.997838	0.135786	0.031842	1.96	0.21	0.42	0.4119	-0.0308	-0.296	
-1.00162	0.139446	0.030866	1.33	-0.14	1.19	0.4218	-0.0203	-0.2945	
-0.99796	0.142496	0.033184	0.35	-0.7	2.24	0.4175	-0.0173	-0.3022	
-0.994544	0.14518	0.035014	-0.21	-0.98	2.73	0.4176	-0.0188	-0.3069	
-0.996862	0.1464	0.030256	-0.35	-0.77	2.38	0.419	-0.0203	-0.2944	
-0.995154	0.14823	0.027694	-0.07	-0.7	1.47	0.4277	-0.0265	-0.3008	
-0.997716	0.146766	0.025498	0.21	-0.07	0.7	0.4105	-0.0202	-0.3069	
-1.00711	0.140788	0.024766	0.56	0.7	0.28	0.4176	-0.0218	-0.2991	
-1.01077	0.138836	0.024278	0.91	0.84	0.28	0.4147	-0.0278	-0.2929	
-1.005158	0.13664	0.021472	0.91	-0.91	0.35	0.4262	-0.0204	-0.3023	
-1.003816	0.139934	0.01952	1.19	-0.07	-0.28	0.4175	-0.0188	-0.2975	
-1.000644	0.141398	0.021838	1.12	0.14	-0.63	0.419	-0.0188	-0.2991	
-1.00223	0.142618	0.02074	0.21	0.14	-0.28	0.4133	-0.0233	-0.3006	
-1.00101	0.145912	0.020008	-0.35	1.05	-0.07	0.4233	-0.0204	-0.3054	
-0.998204	0.147132	0.025742	-0.98	0.42	-0.28	0.4205	-0.0294	-0.3007	
-0.996008	0.147742	0.028426	-1.12	-0.21	-0.7	0.4133	-0.0233	-0.2975	
-0.995276	0.146644	0.027572	-1.19	-0.28	-1.33	0.4176	-0.0279	-0.2991	
-0.997228	0.14457	0.027938	-1.26	0.14	-1.61	0.4204	-0.0233	-0.2929	
-0.995642	0.143472	0.02989	-1.89	0	-1.61	0.4119	-0.0263	-0.2991	
-0.99796	0.141642	0.024766	-2.31	-0.07	-1.68	0.4147	-0.0203	-0.3038	
-1.000156	0.142496	0.025986	-2.52	0.42	-2.24	0.4146	-0.0157	-0.2975	
-1.000644	0.14091	0.026108	-2.24	0.42	-2.45	0.416	-0.0127	-0.2991	
-1.001498	0.135908	0.028426	-2.45	0.21	-2.59	0.4034	-0.0232	-0.3115	
-1.004548	0.131394	0.026718	-2.8	0.7	-2.45	0.4176	-0.0309	-0.2929	
-1.0004	0.128832	0.028304	-2.66	0.77	-2.52	0.4218	-0.0128	-0.3053	
-1.00284	0.126148	0.02745	-2.17	0.63	-2.66	0.419	-0.0263	-0.296	
-1.003328	0.12566	0.02562	-1.75	0.56	-2.94	0.4161	-0.0202	-0.2897	
-1.00345	0.127246	0.02135	-0.91	0.77	-3.57	0.4147	-0.0187	-0.2975	
-1.00162	0.127734	0.02196	-0.35	1.05	-3.99	0.4175	-0.0172	-0.2944	
-1.007354	0.132004	0.020984	-0.35	0.84	-4.41	0.4189	-0.0127	-0.3038	
-1.006744	0.131516	0.021472	-0.28	0.77	-4.62	0.4189	-0.0157	-0.2944	
-1.003206	0.129198	0.024034	-0.63	0.7	-4.55	0.4247	-0.0204	-0.2992	
-1.005402	0.128222	0.025986	-0.77	1.05	-4.34	0.4161	-0.0157	-0.2975	
-1.006622	0.12871	0.025132	-1.12	0.77	-4.2	0.4161	-0.0233	-0.296	
-1.007598	0.129198	0.023668	-1.4	-0.14	-4.06	0.4117	-0.0126	-0.2897	
-1.006378	0.127246	0.022204	-1.75	-0.84	-4.41	0.4188	-0.0066	-0.2959	
-1.005524	0.124074	0.019764	-1.82	-1.05	-4.97	0.4174	-0.0081	-0.2959	
-1.004792	0.119316	0.02013	-1.89	-0.63	-5.32	0.4131	-0.0051	-0.299	
-1.009428	0.116876	0.020618	-1.68	-0.63	-5.39	0.4089	-0.0081	-0.3052	
-1.010038	0.112728	0.02257	-1.47	-1.12	-5.53	0.4146	-0.0082	-0.31	
-1.006988	0.110654	0.026108	-1.68	-1.4	-5.67	0.4189	-0.0082	-0.31	
-1.005524	0.109068	0.030134	-1.33	-0.98	-5.81	0.416	-0.0127	-0.2959	
-1.003328	0.106872	0.034526	-1.12	-1.33	-5.88	0.4132	-0.0111	-0.299	
-1.001132	0.10309	0.03538	-0.98	-1.96	-6.02	0.4045	0.0025	-0.3036	
-0.996496	0.101626	0.03477	-1.05	-2.03	-6.23	0.4203	-0.0112	-0.296	
-1.000888	0.099186	0.031842	-0.84	-0.77	-6.44	0.4145	0.0069	-0.3099	
-1.010282	0.09577	0.033794	-0.49	0.28	-6.3	0.4217	0.0007	-0.31	
-1.0126	0.093696	0.0305	-0.49	-0.84	-6.09	0.4274	-0.0037	-0.2975	
-1.012356	0.0915	0.02806	-0.42	-0.7	-5.74	0.4201	0.0023	-0.2959	
-1.009428	0.089548	0.028792	-0.21	-0.56	-5.53	0.4073	-0.002	-0.2989	
-1.010282	0.088206	0.02745	-0.42	-0.28	-5.32	0.4116	-0.002	-0.2959	
-1.014796	0.084912	0.027816	-0.28	0.56	-5.25	0.4131	0.0009	-0.3037	
-1.0248	0.080032	0.027206	0	0.35	-4.9	0.4073	0.004	-0.2958	
-1.020164	0.07124799	0.02928	0.35	0	-4.06	0.4145	-0.0006	-0.3052	
-1.011136	0.069174	0.025986	0.07	-0.21	-3.01	0.4202	0.0068	-0.3115	
-1.00955	0.06832	0.024522	0.28	0.77	-2.45	0.4115	0.0145	-0.3098	
-1.01199	0.070516	0.025498	0.28	1.4	-2.24	0.4144	0.0039	-0.3021	
-1.018944	0.074176	0.023424	-0.56	1.12	-1.82	0.4187	0.0084	-0.3052	
-1.02602	0.07808	0.020008	-1.26	1.12	-1.12	0.4202	0.0038	-0.3021	
-1.03029	0.080032	0.019032	-2.17	0.49	-0.28	0.4186	0.0159	-0.3068	
-1.018578	0.080886	0.02257	-3.01	0.7	0.49	0.413	0.0024	-0.2974	
-1.009062	0.083448	0.021106	-3.29	0.98	1.12	0.4159	0.0024	-0.299	
-1.007598	0.082594	0.027328	-3.57	2.17	1.61	0.4101	0.0025	-0.2896	
-1.012844	0.084546	0.030256	-3.64	2.38	2.03	0.4116	0.0039	-0.2974	
-1.015772	0.087718	0.030134	-3.71	1.33	2.17	0.413	0.0024	-0.3021	
-1.020896	0.09089	0.025376	-3.78	1.05	1.61	0.4158	0.0054	-0.2943	
-1.017114	0.08845	0.028182	-3.01	0.07	0.63	0.4242	0.022	-0.2958	
-1.009672	0.082472	0.020252	-2.45	-1.68	-0.28	0.4215	0.0068	-0.2975	
-1.011014	0.078568	0.021228	-2.66	0.14	-0.07	0.4144	0.0069	-0.2974	
-1.010892	0.079178	0.025864	-2.38	0.98	0.28	0.4215	0.0129	-0.3052	
-1.013332	0.083082	0.023058	-2.52	0.56	0.56	0.4188	0.0023	-0.3037	
-1.0126	0.085644	0.029524	-2.52	0.63	0.21	0.42	0.0114	-0.2927	
-1.008818	0.085278	0.03111	-3.22	-0.49	-0.28	0.4189	-0.0052	-0.3069	
-1.009794	0.084668	0.029646	-3.99	-0.77	-0.56	0.4172	0.0084	-0.299	
-1.012356	0.083814	0.025986	-3.99	0.7	-0.84	0.4201	0.0084	-0.299	
-1.011258	0.081496	0.026596	-3.71	1.05	-0.63	0.42	0.0144	-0.299	
-1.007476	0.08479	0.027084	-3.5	-0.28	-0.14	0.4145	0.0024	-0.3005	
-1.006256	0.086132	0.024278	-3.15	-0.14	0.07	0.4099	0.0161	-0.2911	
-1.01199	0.09028	0.025376	-2.59	1.05	-0.14	0.4171	0.019	-0.302	
-1.01687	0.091012	0.029524	-2.73	0.63	-0.63	0.4215	0.0054	-0.2912	
-1.01504	0.087474	0.03233	-2.8	-0.63	-1.4	0.4128	0.0191	-0.2989	
-1.00955	0.079788	0.027084	-2.8	-1.05	-1.68	0.4157	0.016	-0.302	
-0.996008	0.072956	0.031354	-2.94	-0.91	-1.33	0.4244	0.0068	-0.3037	
-0.998936	0.072956	0.029524	-2.38	0.63	-0.84	0.4114	0.016	-0.3005	
-1.011746	0.076006	0.023912	-1.33	1.54	-0.42	0.4143	0.0145	-0.302	
-1.021628	0.079788	0.022692	-1.26	1.47	-0.56	0.4243	0.0099	-0.2943	
-1.026752	0.081984	0.022936	-1.54	1.12	-1.4	0.4257	0.0159	-0.2928	
-1.024312	0.082472	0.023912	-2.03	0.91	-2.45	0.4115	0.0055	-0.2943	
-1.014552	0.076372	0.02501	-2.8	0.7	-2.52	0.4144	0.0159	-0.313	
-1.003938	0.072468	0.025376	-3.36	1.82	-1.82	0.42	0.022	-0.3021	
-0.996618	0.0732	0.026596	-4.48	3.01	-0.35	0.4186	0.0174	-0.3083	
-0.998448	0.080398	0.02989	-5.18	3.71	0.56	0.4186	0.016	-0.2989	
-1.010404	0.09076799	0.030866	-5.46	4.2	0.14	0.4171	0.0235	-0.302	
-1.012966	0.092598	0.032574	-5.04	2.94	-1.33	0.4157	0.0175	-0.2927	
-1.012234	0.08601	0.024522	-4.9	2.03	-2.66	0.4113	0.0251	-0.2988	
-1.005646	0.081374	0.022692	-4.41	2.1	-3.15	0.4185	0.016	-0.2911	
-1.001254	0.07515199	0.019886	-3.92	2.45	-3.5	0.4128	0.0161	-0.2911	
-1.004914	0.075884	0.01525	-3.5	3.85	-3.5	0.4128	0.0191	-0.2989	
-1.010038	0.075274	0.018544	-3.22	3.85	-3.71	0.4213	0.022	-0.2943	
-1.013698	0.066734	0.020618	-1.82	3.64	-4.83	0.4128	0.0251	-0.3035	
-1.014796	0.062342	0.013298	-1.12	4.62	-4.9	0.4128	0.0251	-0.3035	
-1.029192	0.06161	0.005978	-0.14	6.02	-5.88	0.4227	0.0235	-0.2927	
-1.030534	0.069418	0.005978	-0.98	4.13	-7.21	0.4227	0.022	-0.288	
-1.023336	0.072102	-0.0061	-3.22	3.36	-7.42	0.4257	0.0189	-0.2943	
-1.009672	0.06588	-0.002806	-4.62	3.36	-6.37	0.4142	0.0251	-0.2942	
-1.007598	0.056242	-0.001708	-5.67	4.76	-4.06	0.4142	0.0236	-0.2973	
-1.008086	0.052948	0.011712	-5.25	4.76	-2.45	0.4184	0.0281	-0.2958	
-1.02053	0.055388	0.01098	-4.9	4.9	-1.96	0.4156	0.0236	-0.2973	
-1.031022	0.060512	0.009272	-3.71	3.01	-3.08	0.4184	0.0296	-0.288	
-1.021628	0.05551	0.008905999	-2.94	1.05	-4.55	0.4212	0.0357	-0.2911	
-0.995032	0.044652	0.00854	-2.38	-0.28	-5.04	0.4241	0.0296	-0.2849	
-0.97539	0.033916	0.010492	-1.68	-0.98	-4.69	0.4197	0.0417	-0.2926	
-0.994544	0.026596	0.000122	-0.35	1.61	-3.5	0.4255	0.0326	-0.2896	
-1.017236	0.033428	-0.000976	0.49	4.06	-3.22	0.421	0.0433	-0.2848	
-1.034926	0.040992	-0.005612	0.98	2.59	-4.34	0.4226	0.0386	-0.2958	
-1.034804	0.036722	-0.007929999	1.82	0.63	-5.25	0.4226	0.0296	-0.2849	
-1.017968	0.028914	-0.010858	1.61	-1.26	-4.83	0.4198	0.0326	-0.2958	
-0.99735	0.02562	-0.00671	0.7	-0.49	-3.43	0.4212	0.0296	-0.2911	
-1.000522	0.027816	-0.00122	0.21	2.38	-1.82	0.4198	0.0281	-0.2911	
-1.012478	0.033428	0.000366	0	2.94	-0.77	0.4241	0.0296	-0.2849	
-1.007476	0.03355	-0.000122	-0.14	1.19	-0.14	0.4197	0.0357	-0.2817	
-1.00162	0.033794	0.005124	-0.56	0.56	0.35	0.4197	0.0432	-0.2957	
-1.004792	0.03416	0.005124	-0.91	1.82	0.98	0.4197	0.0357	-0.2817	
-1.005158	0.034282	0.00915	-1.61	2.03	1.47	0.4296	0.0416	-0.2833	
-1.006378	0.036234	0.000244	-2.1	2.52	2.24	0.4197	0.0417	-0.2973	
-1.00711	0.04209	-0.001098	-2.03	2.87	2.59	0.4124	0.0419	-0.2785	
-1.012966	0.049288	-0.003294	-1.82	3.08	2.17	0.4184	0.0236	-0.2864	
-1.019188	0.051728	-0.005734	-1.89	2.94	1.82	0.4297	0.0371	-0.2818	
-1.016504	0.047824	-0.01037	-2.38	2.31	1.75	0.4212	0.0311	-0.2848	
-1.011136	0.048922	-0.012322	-2.17	2.03	1.82	0.417	0.0326	-0.2989	
-1.010648	0.048434	-0.016104	-1.75	1.54	1.82	0.4096	0.0419	-0.2769	
-1.016504	0.048922	-0.016104	-0.98	1.33	1.47	0.4283	0.0356	-0.2833	
-1.027728	0.051362	-0.021106	-0.56	1.19	1.19	0.4298	0.031	-0.2912	
-1.029314	0.053436	-0.016104	-0.98	0.56	0.7	0.4183	0.0312	-0.2817	
-1.027362	0.048312	-0.017812	-0.84	-0.35	-0.21	0.4284	0.0265	-0.2834	
-1.021262	0.042822	-0.015006	-0.28	0	-0.56	0.4298	0.028	-0.2881	
-1.016626	0.041602	-0.012566	0.07	-0.35	-0.7	0.4169	0.0327	-0.2879	
-1.015528	0.040748	-0.011224	0.84	0.07	-0.91	0.4311	0.0386	-0.2896	
-1.016992	0.043676	-0.01342	0.63	-0.21	-0.77	0.4212	0.0341	-0.2911	
-1.014064	0.048678	-0.007564	0.14	-0.63	-0.91	0.4226	0.0341	-0.2958	
-1.01321	0.04697	-0.008784	-0.07	-1.12	-1.05	0.4155	0.0327	-0.2942	
-1.013698	0.045506	-0.009028	-0.35	-0.63	-0.35	0.4255	0.0386	-0.2973	
-1.00833	0.043798	-0.003416	-0.56	-0.56	0.14	0.4198	0.0266	-0.2927	
-1.010038	0.04209	-0.005002	-0.49	-0.91	0.21	0.4126	0.0327	-0.2895	
-1.010892	0.045628	-0.008296	-0.49	-0.42	0.56	0.4227	0.0296	-0.2911	
-1.008086	0.045872	-0.003782	-0.63	-0.56	0.7	0.4313	0.031	-0.2974	
-1.010526	0.04453	-0.003416	-0.14	-0.49	0.49	0.4225	0.0387	-0.2879	
-1.0126	0.04087	-0.007686	0.21	-0.56	0.28	0.4198	0.0311	-0.2942	
-1.01077	0.037698	-0.005978	0.49	-0.56	0	0.4311	0.0386	-0.2911	
-1.012356	0.036966	-0.00671	1.05	0.07	-0.07	0.4282	0.0402	-0.2786	
-1.003816	0.038552	-0.002562	0.98	-0.28	0	0.4269	0.0401	-0.2927	
-1.005158	0.039894	-0.005002	1.33	0.49	0	0.4254	0.0386	-0.2895	
-1.015162	0.043554	-0.00732	2.45	1.05	0.21	0.4227	0.0296	-0.2911	
-1.020042	0.04514	-0.011834	2.66	-0.42	0.49	0.4241	0.0311	-0.2896	
-1.023702	0.04941	-0.0183	4.13	-0.63	-0.14	0.427	0.025	-0.288	
-1.023092	0.05368	-0.014396	4.41	0.14	-0.63	0.4255	0.0311	-0.2864	
-1.022238	0.058316	-0.012078	4.06	-0.07	-1.33	0.4283	0.0341	-0.2864	
-1.020652	0.057218	-0.00976	3.22	-1.26	-1.54	0.424	0.0402	-0.2911	
-1.013576	0.049776	-0.006588	2.52	-2.38	-1.33	0.4256	0.022	-0.2927	
-1.010038	0.043066	-0.003172	2.31	-2.45	-0.77	0.4198	0.0311	-0.2864	
-1.008696	0.042578	0.000976	2.17	-2.38	-0.35	0.4113	0.0237	-0.2879	
-1.00467	0.041602	0.000732	2.17	-2.66	-0.14	0.4213	0.0266	-0.2942	
-1.003572	0.038064	-0.000488	1.75	-3.01	0	0.417	0.0236	-0.2942	
-1.006012	0.031232	0.001098	1.05	-2.38	0.14	0.4155	0.0357	-0.2926	
-1.011624	0.029036	0.000366	0.63	-2.03	0.56	0.4226	0.0432	-0.3035	
-1.013942	0.030134	0.000244	0.63	-2.59	0.91	0.4284	0.034	-0.3005	
-1.013698	0.035136	-0.00244	0.98	-2.52	1.4	0.4198	0.0387	-0.2989	
-1.008452	0.040992	-0.002318	1.05	-2.45	1.96	0.424	0.0341	-0.288	
-1.01138	0.045628	-0.001952	1.12	-1.96	2.45	0.4198	0.0386	-0.3035	
-1.013088	0.046604	-0.002074	1.82	-1.96	2.66	0.4298	0.037	-0.2974	
-1.014918	0.044774	0.001708	1.82	-2.45	2.38	0.4284	0.034	-0.2974	
-1.017114	0.045506	0.002928	2.03	-2.45	2.17	0.4242	0.0295	-0.3005	
-1.006988	0.046238	0.00854	1.61	-2.8	2.31	0.4226	0.0356	-0.2958	
-0.998326	0.042456	0.009881999	1.33	-2.1	2.87	0.4184	0.0266	-0.2958	
-0.998936	0.043798	0.013298	1.12	-1.26	3.64	0.4113	0.0297	-0.3019	
-1.00101	0.043066	0.019398	0.42	-1.75	4.48	0.4184	0.0311	-0.302	
-1.002108	0.04697	0.020496	0.07	-2.17	5.04	0.4184	0.0251	-0.2927	
-1.004914	0.048678	0.016958	0.14	-1.61	5.46	0.4228	0.025	-0.2989	
-1.004792	0.052582	0.013664	-0.14	-0.84	6.3	0.4169	0.0357	-0.3004	
-1.009794	0.058804	0.012932	-0.14	-1.19	6.16	0.4243	0.0144	-0.3006	
-1.01565	0.064782	0.011224	-0.07	-1.89	6.3	0.417	0.0251	-0.2848	
-1.020042	0.06954	0.005368	-0.28	-1.89	6.86	0.4199	0.0235	-0.2958	
-1.019432	0.072834	0.002562	0.07	-1.82	7.07	0.4271	0.0249	-0.3021	
-1.021384	0.074908	0.000976	0.21	-1.54	6.79	0.4185	0.0205	-0.2974	
-1.023458	0.07686	0.003538	0.14	-1.75	6.58	0.4186	0.0159	-0.3021	
-1.024678	0.082106	0.00549	0	-2.66	5.95	0.4227	0.0265	-0.2942	
-1.01931	0.084912	0.00732	0.42	-2.73	5.18	0.4141	0.0312	-0.2973	
-1.011868	0.085888	0.01464	-0.07	-2.31	5.18	0.4201	0.0084	-0.2959	
-1.007232	0.08662	0.020496	-0.49	-2.24	5.25	0.4186	0.0175	-0.3021	
-1.005768	0.088816	0.022448	-0.7	-2.38	5.18	0.4214	0.019	-0.2974	
-1.00406	0.0915	0.024888	-0.56	-2.17	5.11	0.4143	0.013	-0.2958	
-1.006378	0.086986	0.023546	-0.07	-1.68	4.55	0.4072	0.013	-0.3051	
-1.007842	0.08967	0.023424	0.84	-1.89	3.64	0.4158	0.0144	-0.3083	
-1.008452	0.09162199	0.02257	1.61	-1.89	2.59	0.4158	0.0114	-0.3068	
-1.012112	0.09357399	0.022448	2.38	-1.33	1.82	0.4159	0.0009	-0.2974	
-1.011624	0.09455	0.019886	2.73	-1.75	1.4	0.4186	0.0129	-0.2974	
-1.01321	0.09516	0.019764	2.59	-1.4	1.12	0.42	0.0159	-0.3005	
-1.017846	0.09699	0.019032	2.73	-0.63	0.63	0.42	0.0189	-0.3067	
-1.019432	0.096746	0.016104	2.8	-0.63	0.35	0.4187	0.0069	-0.299	
-1.017602	0.09552599	0.017446	2.8	-1.61	-0.07	0.4172	0.0159	-0.3052	
-1.014674	0.09638	0.016958	2.87	-0.63	-0.35	0.4172	0.0114	-0.3052	
-1.01626	0.095892	0.017812	2.17	0.14	-0.28	0.4273	0.0083	-0.3053	
-1.01626	0.095282	0.020862	2.24	-0.91	-0.28	0.4173	0.0083	-0.3146	
-1.008574	0.09211	0.021594	1.61	-1.89	0	0.4201	0.0129	-0.3005	
-1.006744	0.091744	0.02257	1.05	-0.98	0.14	0.4173	0.0054	-0.2974	
-1.005646	0.094184	0.02806	0.84	-0.28	0.14	0.4158	0.0099	-0.299	
-1.006378	0.095892	0.02501	0.56	-0.77	0.35	0.423	0.0098	-0.3099	
-1.00955	0.09552599	0.024522	-0.14	-0.63	0.49	0.4201	0.0144	-0.3099	
-1.012112	0.092354	0.028182	-0.42	-0.49	0.63	0.4129	0.016	-0.3051	
-1.013088	0.090402	0.023058	-0.42	-1.05	0.77	0.4144	0.0114	-0.3052	
-1.005524	0.09028	0.025254	-0.35	-1.54	0.91	0.4188	0.0038	-0.3162	
-1.006866	0.093086	0.025132	0.35	-0.35	0.63	0.4073	0.0085	-0.3051	
-1.007232	0.093086	0.033184	1.26	0.42	-0.07	0.4086	0.013	-0.2989	
-1.002962	0.089548	0.032818	2.59	-0.21	-0.98	0.4158	0.0114	-0.3021	
-1.01199	0.083448	0.024522	4.27	0.56	-1.26	0.4087	0.0085	-0.3051	
-1.01809	0.084546	0.02623	4.9	0.21	-1.19	0.4173	0.0114	-0.3099	
-1.013576	0.08967	0.02379	4.69	-1.05	-1.19	0.413	0.0099	-0.3083	
-1.007354	0.091256	0.022204	4.06	-0.56	-1.33	0.4116	0.0084	-0.3099	
-1.00955	0.088938	0.021716	2.73	0.28	-0.7	0.4158	0.0159	-0.3099	
-1.013332	0.088938	0.023546	1.33	-0.21	0.21	0.4159	-0.0006	-0.3021	
-1.022482	0.087596	0.018788	1.82	0.63	0.77	0.4288	0.0067	-0.3147	
-1.028094	0.088694	0.019398	2.73	0.7	1.26	0.4215	0.0114	-0.299	
-1.024434	0.088572	0.014396	3.78	-0.7	1.61	0.4102	0.0054	-0.3114	
-1.011868	0.089548	0.020008	2.94	-1.89	1.68	0.4158	0.013	-0.3021	
-1.009428	0.09552599	0.015372	2.59	-1.33	1.54	0.4172	0.0114	-0.2974	
-1.014186	0.095282	0.021106	1.61	-1.26	1.26	0.4087	0.01	-0.3051	
-1.014186	0.094916	0.019032	1.33	-1.26	1.47	0.4202	0.0038	-0.3037	
-1.020896	0.086742	0.020618	1.61	-0.84	2.24	0.4187	0.0068	-0.3084	
-1.016626	0.087474	0.025376	1.61	-1.12	3.78	0.4116	0.01	-0.3067	
-1.016626	0.09747799	0.028426	1.33	-0.84	4.69	0.423	0.0053	-0.3006	
-1.0065	0.10614	0.030012	1.61	-0.56	4.55	0.4131	0.0039	-0.3083	
-0.997838	0.104554	0.030988	1.05	-1.12	3.78	0.4203	0.0007	-0.3115	
-0.99308	0.098942	0.035502	1.05	0.07	3.29	0.4187	0.0068	-0.3084	
-1.001498	0.095648	0.037454	1.4	0.28	3.22	0.4145	0.0053	-0.313	
-1.00589	0.097356	0.034404	1.47	-0.07	3.5	0.4259	0.0007	-0.3053	
-1.006012	0.099064	0.033062	1.4	-0.07	3.85	0.4145	0.0008	-0.3115	
-1.001132	0.106384	0.03172	0.63	-0.91	4.2	0.4216	0.0023	-0.3037	
-0.996374	0.109678	0.031598	0.49	-0.07	4.27	0.4117	-0.0051	-0.3084	
-0.996374	0.111508	0.0305	0.91	1.61	4.13	0.4132	-0.0096	-0.3021	
-0.995032	0.11346	0.030866	1.33	2.38	3.71	0.4174	-0.0082	-0.3022	
-0.993934	0.118462	0.03172	2.17	1.89	3.08	0.4131	-0.0036	-0.3037	
-1.00467	0.129442	0.030256	2.87	1.54	2.24	0.4189	-0.0082	-0.31	
-1.01748	0.125904	0.027816	2.87	0.56	1.19	0.4288	0.0022	-0.3053	
-1.024678	0.122488	0.016714	3.36	0.7	0.49	0.413	-0.005	-0.2912	
-1.014796	0.107726	0.0183	3.15	0.98	0.7	0.4188	-0.0082	-0.2944	
-0.995398	0.106506	0.01952	2.87	0.98	1.19	0.4203	-0.0037	-0.3069	
-0.986858	0.114314	0.012444	2.73	2.66	0.91	0.4188	-0.0037	-0.3053	
-0.986736	0.128588	0.027938	2.66	4.2	-0.14	0.4273	0.0052	-0.3037	
-1.001132	0.128344	0.02806	3.29	4.41	-1.33	0.4173	0.0023	-0.3006	
-1.016016	0.113338	0.035746	3.78	3.71	-1.33	0.4218	-0.0098	-0.31	
-1.02663	0.110044	0.028914	3.43	2.31	-0.07	0.4131	-0.0006	-0.3037	
-1.01626	0.111996	0.024278	3.15	0.98	1.33	0.4173	-0.0006	-0.2943	
-1.008086	0.11651	0.013542	2.94	0.42	2.24	0.416	-0.0081	-0.299	
-1.002718	0.119194	0.01098	1.89	1.05	2.38	0.4202	-0.0036	-0.2975	
-1.004792	0.112484	0.010858	1.82	0.28	1.96	0.4203	-0.0082	-0.2959	
-1.008574	0.105286	0.01098	1.89	1.05	1.61	0.4218	-0.0113	-0.3053	
-1.020164	0.107482	0.008784	2.1	2.03	1.89	0.4146	-0.0142	-0.2991	
-1.022238	0.111264	0.009272	2.03	0.98	2.38	0.4159	0.0008	-0.3052	
-1.010038	0.123464	0.00488	2.31	0.49	2.24	0.4217	-0.0067	-0.2991	
-1.005524	0.129442	0.008662	2.17	0.42	2.17	0.4146	-0.0141	-0.2897	
-1.016138	0.13298	0.00183	3.01	1.26	1.89	0.4188	-0.0066	-0.2944	
-1.02541	0.124318	0.007686	3.08	0	2.17	0.4232	-0.0067	-0.3038	
-1.022726	0.116876	0.002806	3.15	-1.33	2.45	0.4202	-0.0067	-0.2959	
-1.011624	0.121634	0.007198	3.01	-1.82	3.01	0.426	-0.0098	-0.3022	
-1.00894	0.127124	0.00915	3.29	-1.33	2.87	0.4132	-0.0172	-0.2928	
-1.001864	0.12993	0.010614	3.29	-0.91	2.31	0.4161	-0.0127	-0.3069	
-0.993446	0.130906	0.016592	3.29	-0.56	1.75	0.4176	-0.0158	-0.3069	
-0.99674	0.124806	0.022204	3.57	0.42	1.26	0.4217	-0.0127	-0.296	
-0.998204	0.122854	0.025742	3.78	0.21	1.47	0.4176	-0.0233	-0.3054	
-0.994666	0.125782	0.024034	3.85	-0.28	1.61	0.4175	-0.0127	-0.2991	
-0.989664	0.127368	0.027694	3.99	1.19	1.75	0.4219	-0.0204	-0.3038	
-0.990884	0.133102	0.024156	3.99	1.82	1.47	0.4133	-0.0218	-0.3069	
-0.996496	0.132858	0.023668	3.78	2.73	1.4	0.4204	-0.0203	-0.3007	
-0.995764	0.131028	0.028182	2.94	1.96	1.68	0.4145	-0.0021	-0.299	
-0.999058	0.132736	0.014274	2.45	0.98	2.03	0.4218	-0.0158	-0.2976	
-1.009794	0.1342	0.007686	2.24	1.33	2.1	0.4204	-0.0128	-0.3085	
-1.007842	0.139202	0.00061	1.12	0.63	2.52	0.4189	-0.0112	-0.3006	
-1.01138	0.142618	-0.007198	0.35	1.26	2.45	0.4118	-0.0187	-0.2928	
-1.011136	0.141276	-0.005368	-0.63	0.49	2.31	0.4218	-0.0233	-0.2913	
-1.008452	0.139568	0.001098	-1.33	0.42	1.96	0.416	-0.0127	-0.2928	
-1.015772	0.14457	-0.000366	-0.49	1.33	1.19	0.4146	-0.0187	-0.2944	
-1.02236	0.14518	0.000976	0	0.77	0.77	0.4147	-0.0172	-0.3006	
-1.012234	0.142374	0.008784	-0.84	-1.26	0.77	0.4203	-0.0157	-0.2897	
-1.00406	0.140544	0.00732	-1.54	-0.98	0.84	0.4232	-0.0113	-0.2991	
-0.999302	0.139324	0.010248	-1.89	-0.56	0.21	0.4246	-0.0158	-0.296	
-0.992592	0.135908	0.012444	-1.19	-0.84	-0.42	0.4204	-0.0218	-0.2913	
-0.990152	0.13359	0.017568	0	0.07	-0.77	0.4205	-0.0218	-0.3023	
-0.991982	0.133346	0.022082	0.84	0.84	-0.84	0.419	-0.0218	-0.2976	
-0.99674	0.138104	0.022814	0.91	0.98	-1.05	0.4234	-0.0279	-0.2992	
-0.997838	0.138714	0.019642	1.12	1.05	-1.12	0.4247	-0.0249	-0.2945	
-0.997716	0.133956	0.018544	0.42	0.42	-0.84	0.4103	-0.0141	-0.2959	
-0.997594	0.136518	0.011346	-0.63	0.21	-0.42	0.4203	-0.0157	-0.2897	
-1.000766	0.138836	0.008662	-0.91	1.47	-0.07	0.4174	-0.0172	-0.2882	
-1.009916	0.13664	0.004636	-0.7	1.96	-0.14	0.409	-0.0217	-0.299	
-1.012478	0.135176	0.002196	-0.98	0.77	-0.28	0.4247	-0.0219	-0.2992	
-1.011746	0.133346	-0.000122	-0.84	0.84	-0.63	0.4218	-0.0188	-0.3007	
-1.0065	0.131028	0.003782	-0.49	0.98	-0.77	0.4159	-0.0111	-0.2834	
-1.007476	0.13481	0.002318	-0.7	0.98	-0.91	0.4175	-0.0187	-0.2944	
-1.003938	0.138226	0.005002	-0.91	1.12	-1.05	0.4175	-0.0188	-0.2991	
-1.000034	0.139324	0.007808	-1.26	1.26	-1.05	0.4304	-0.0159	-0.3023	
-1.002718	0.139568	0.00488	-1.4	1.12	-1.26	0.4189	-0.0142	-0.3006	
-1.003084	0.137494	0.005612	-1.54	1.33	-1.68	0.4204	-0.0203	-0.3007	
-1.000644	0.13847	0.008052	-1.75	0.28	-1.89	0.4147	-0.0187	-0.296	
-0.99735	0.139446	0.006344	-1.68	0.7	-2.17	0.4219	-0.0234	-0.2992	
-0.996008	0.140422	0.009516	-1.75	1.05	-2.45	0.4189	-0.0142	-0.2991	
-0.99674	0.14152	0.00915	-1.54	0.98	-2.87	0.4218	-0.0158	-0.2944	
-1.000644	0.14091	0.01037	-1.61	0.21	-3.29	0.4161	-0.0202	-0.296	
-1.005402	0.1342	0.007808	-1.4	-0.14	-3.92	0.426	-0.0143	-0.2929	
-1.003206	0.131882	0.009516	-1.05	-1.05	-4.48	0.4247	-0.0188	-0.2945	
-1.0004	0.127246	0.009881999	-0.77	-1.19	-4.9	0.4203	-0.009699999	-0.2928	
-1.002718	0.127368	0.005124	-0.21	-0.14	-5.39	0.429	-0.0189	-0.2961	
-1.006866	0.12505	0.006588	0.28	0.14	-5.81	0.4231	-0.0127	-0.2897	
-1.006866	0.120658	0.010614	-0.14	-1.19	-6.02	0.4175	-0.0203	-0.2975	
-1.012966	0.122732	0.004514	-0.28	-2.38	-6.44	0.4203	-0.0127	-0.3007	
-1.00955	0.120658	0.00244	-0.28	-2.73	-7.07	0.4245	-0.0037	-0.2991	
-1.00589	0.113216	0.003904	0.14	-2.73	-7.84	0.4188	-0.0067	-0.2991	
-1.00955	0.106018	0.005246	0.21	-2.31	-7.91	0.4217	-0.0022	-0.3053	
-1.008208	0.104676	0.011224	-0.07	-2.52	-7.56	0.4231	-0.0037	-0.2975	
-1.011624	0.105042	0.00976	-0.28	-2.45	-7.07	0.4231	-0.0082	-0.296	
-1.019676	0.10431	0.00915	-0.84	-1.75	-6.65	0.4231	-0.0037	-0.2975	
-1.018456	0.099918	0.013176	-1.82	-3.15	-6.44	0.4161	-0.0052	-0.3146	
-1.00345	0.097844	0.015738	-2.73	-3.99	-6.23	0.4103	-0.0066	-0.3021	
-1.006134	0.096624	0.013908	-2.45	-2.87	-5.95	0.4146	-0.0051	-0.3084	
-1.013454	0.09272	0.01586	-2.1	-1.68	-5.74	0.413	0.0024	-0.3021	
-1.011868	0.091134	0.019642	-2.52	-3.5	-5.39	0.416	-0.0051	-0.3021	
-1.009672	0.089792	0.01708	-3.01	-2.87	-4.9	0.4173	0.0039	-0.2974	
-1.012234	0.08686399	0.024766	-2.94	-2.24	-4.55	0.413	0.0039	-0.3052	
-1.013454	0.082472	0.02684	-2.87	-2.52	-4.27	0.4188	0.0023	-0.3099	
-1.019432	0.082106	0.019764	-2.73	-1.89	-3.85	0.4102	0.0039	-0.3052	
-1.008818	0.077714	0.021472	-2.59	-0.98	-3.43	0.4117	-0.0021	-0.3068	
-1.003694	0.077592	0.024278	-2.73	-2.03	-2.87	0.4115	0.013	-0.3083	
-1.00955	0.078446	0.021472	-3.15	-0.49	-2.1	0.4158	0.0145	-0.3052	
-1.013088	0.077714	0.025132	-3.99	0.07	-1.75	0.4174	-0.0006	-0.3037	
-1.019676	0.075884	0.020008	-4.13	-0.28	-1.33	0.4144	0.0145	-0.3067	
-1.023214	0.072346	0.025498	-4.06	-0.77	-0.35	0.41	0.013	-0.2989	
-1.016382	0.074664	0.026352	-4.27	-1.4	0.7	0.4172	0.0084	-0.2958	
-1.011502	0.081984	0.02257	-3.78	0.84	0.98	0.4173	0.0069	-0.3052	
-1.011624	0.079544	0.024766	-3.99	1.4	0.98	0.42	0.0129	-0.2974	
-1.009672	0.077714	0.0244	-4.13	0.49	1.05	0.4172	0.0129	-0.3005	
-1.01077	0.07381	0.020008	-3.78	0.63	1.26	0.4158	0.0114	-0.3036	
-1.013088	0.073444	0.023424	-2.45	1.68	1.05	0.4186	0.022	-0.3083	
-1.016992	0.07747	0.028426	-1.75	1.26	1.33	0.4057	0.0146	-0.302	
-1.00833	0.082838	0.03172	-1.19	0.91	1.26	0.4143	0.013	-0.2974	
-0.998936	0.085888	0.026596	-0.91	1.19	0.98	0.4186	0.0129	-0.2958	
-1.005646	0.085156	0.021716	-1.12	2.24	0.84	0.4144	0.0114	-0.3052	
-1.01016	0.086498	0.022936	-1.33	1.26	0.77	0.4086	0.0131	-0.2973	
-1.011014	0.090524	0.022082	-1.75	0.14	0.98	0.4145	0.0008	-0.3068	
-1.018578	0.095404	0.02013	-2.03	1.47	1.12	0.4073	0.0039	-0.3098	
-1.020896	0.096014	0.01952	-2.03	1.54	0.84	0.413	0.0039	-0.3021	
-1.025044	0.099552	0.023424	-2.17	0.42	0.56	0.4158	0.0145	-0.3021	
-1.021872	0.099796	0.016348	-2.38	-0.91	0.07	0.4157	0.0175	-0.2974	
-1.0248	0.098454	0.01037	-3.29	0.07	-0.56	0.4088	0.0009	-0.3036	
-1.015406	0.09211	0.01342	-3.85	-0.63	-1.4	0.4245	0.0052	-0.3115	
-1.01687	0.084668	0.012444	-4.41	-1.12	-1.54	0.4143	0.0145	-0.2958	
-1.019432	0.08295999	0.010858	-4.34	-0.14	-1.26	0.4158	0.0084	-0.3052	
-1.018212	0.085156	0.016714	-4.34	0.07	-1.19	0.42	0.0114	-0.2881	
-1.01992	0.084058	0.025986	-3.5	-0.35	-1.47	0.4215	0.0069	-0.2959	
-1.018212	0.084668	0.022814	-2.94	-1.68	-1.96	0.413	0.0115	-0.3052	
-1.004182	0.085766	0.028182	-2.52	-1.68	-2.52	0.4214	0.0189	-0.3021	
-0.999302	0.078202	0.027206	-1.4	-0.77	-3.15	0.4143	0.0175	-0.2973	
-1.003694	0.078568	0.02989	-1.26	-0.84	-3.22	0.4187	0.0038	-0.299	
-1.003938	0.076738	0.028426	-1.75	-1.26	-2.73	0.4144	0.016	-0.3083	
-1.002108	0.077226	0.029768	-2.52	-0.49	-1.89	0.4143	0.025	-0.3145	
-1.00772	0.075396	0.033062	-3.36	0.63	-1.4	0.4144	0.0129	-0.3083	
-1.01321	0.074298	0.030012	-3.71	1.89	-1.54	0.4114	0.0236	-0.3051	
-1.013698	0.072834	0.031842	-3.64	2.24	-1.82	0.4256	0.0235	-0.2958	
-1.004792	0.067954	0.03233	-3.5	0.77	-1.68	0.4243	0.0174	-0.3052	
-0.996618	0.068808	0.03172	-3.15	0.49	-1.54	0.4156	0.0296	-0.2973	
-1.000034	0.07076	0.032574	-2.38	2.59	-1.47	0.4113	0.0221	-0.2942	
-1.001498	0.0732	0.030256	-2.38	3.01	-1.54	0.4128	0.0236	-0.2989	
-1.009184	0.075396	0.027938	-3.22	2.38	-1.61	0.4185	0.0175	-0.2958	
-1.014064	0.078446	0.023058	-3.01	3.22	-2.17	0.41	0.0221	-0.3067	
-1.013698	0.0793	0.016592	-2.8	3.5	-2.66	0.4142	0.0206	-0.2942	
-1.017968	0.079666	0.019276	-2.52	3.43	-3.15	0.4156	0.0236	-0.2989	
-1.020652	0.079178	0.01281	-2.17	3.15	-3.64	0.4143	0.0235	-0.3098	
-1.022604	0.08418	-0.000122	-2.31	2.24	-3.99	0.4084	0.0282	-0.3004	
-1.017968	0.088572	0.003904	-3.15	2.8	-4.06	0.4057	0.0161	-0.2988	
-1.017724	0.0854	0.007808	-3.29	3.36	-4.62	0.4171	0.019	-0.2989	
-1.012112	0.075762	0.009028	-2.66	3.5	-5.18	0.4157	0.0235	-0.3067	
-1.010648	0.060634	0.013176	-2.45	3.22	-5.11	0.4113	0.0236	-0.2989	
-1.010526	0.053314	0.018666	-1.54	3.64	-5.39	0.4156	0.0251	-0.3004	
-1.008696	0.051484	0.020374	-1.47	1.89	-6.02	0.4113	0.0251	-0.2973	
-1.012844	0.05002	0.021716	-1.96	0.77	-6.37	0.4155	0.0342	-0.3035	
-1.016016	0.047946	0.016836	-2.94	1.61	-6.23	0.4269	0.0356	-0.2958	
-1.00772	0.052094	0.021838	-4.06	3.15	-6.09	0.4213	0.0266	-0.2927	
-0.997228	0.053802	0.022448	-4.55	4.55	-6.3	0.4198	0.0386	-0.3051	
-0.997228	0.044286	0.01952	-3.78	6.16	-6.16	0.4182	0.0387	-0.2879	
-0.992836	0.029036	0.015372	-1.82	5.6	-5.67	0.4198	0.0356	-0.2989	
-0.990396	0.0244	0.011224	-0.07	3.5	-4.97	0.4212	0.0372	-0.2926	
-0.997228	0.020252	0.007076	1.89	3.43	-4.41	0.4283	0.0371	-0.2896	
-1.013698	0.027572	-0.007198	3.01	4.2	-3.85	0.424	0.0357	-0.2833	
-1.021262	0.026108	-0.005856	3.15	3.29	-3.85	0.4226	0.0371	-0.2973	
-1.030412	0.029036	-0.016958	3.15	2.59	-3.78	0.4153	0.0463	-0.2894	
-1.024678	0.023302	-0.016104	2.17	1.68	-2.87	0.4141	0.0282	-0.2911	
-1.024068	0.022936	-0.012688	1.12	1.89	-1.54	0.414	0.0388	-0.2941	
-1.034194	0.029524	-0.01037	0.77	2.59	-0.49	0.4225	0.0387	-0.2848	
-1.025776	0.037698	-0.010736	-0.21	1.12	0.49	0.4182	0.0448	-0.2957	
-1.01138	0.039528	-0.008784	-1.54	1.19	1.19	0.4239	0.0432	-0.2848	
-1.001986	0.041236	-0.003538	-1.75	2.03	1.75	0.4254	0.0402	-0.2864	
-0.995764	0.040016	0.003538	-1.96	2.31	2.8	0.4282	0.0402	-0.2786	
-0.999912	0.039894	0.00061	-2.87	3.01	3.29	0.4197	0.0357	-0.2926	
-1.020896	0.042944	-0.007076	-3.43	3.78	3.29	0.427	0.034	-0.2974	
-1.01992	0.04392	0.000244	-4.69	3.08	3.5	0.4167	0.0433	-0.2848	
-1.011136	0.045628	0	-5.32	2.24	3.22	0.4225	0.0417	-0.2801	
-1.013088	0.049166	-0.008052	-3.85	2.66	2.94	0.4269	0.0311	-0.2833	
-1.006744	0.04514	-0.00427	-3.15	3.01	2.59	0.4226	0.0432	-0.3004	
-1.002718	0.046116	-0.005856	-3.22	3.71	2.03	0.4282	0.0371	-0.2818	
-1.018822	0.056364	-0.01525	-3.43	5.39	1.61	0.4312	0.034	-0.2849	
-1.020164	0.06222	-0.010004	-3.64	5.95	0.14	0.4269	0.0311	-0.2849	
-1.016138	0.057584	-0.021106	-3.92	4.41	-0.98	0.4255	0.0296	-0.2849	
-1.00894	0.050142	-0.021106	-3.64	3.92	-0.91	0.4198	0.0281	-0.2911	
-1.008452	0.04331	-0.013542	-2.94	4.48	-0.77	0.431	0.0447	-0.2786	
-1.006378	0.039284	-0.021228	-2.1	4.13	-0.42	0.4226	0.0372	-0.2911	
-1.006256	0.038064	-0.020862	-1.82	4.2	-0.42	0.4339	0.0446	-0.2849	
-1.006744	0.037332	-0.022814	-0.7	3.71	-0.63	0.4197	0.0387	-0.2848	
-1.008452	0.02928	-0.02867	0.21	1.89	-0.21	0.4252	0.0478	-0.2786	
-1.015528	0.028304	-0.030866	0.63	1.75	0.63	0.4311	0.0371	-0.2771	
-1.035414	0.034404	-0.044042	0.7	2.1	1.4	0.431	0.0522	-0.2848	
-1.044076	0.04392	-0.041114	0.42	1.54	1.47	0.4167	0.0418	-0.2785	
-1.033218	0.04392	-0.042456	-0.21	-0.7	0.63	0.4268	0.0326	-0.2786	
-1.016748	0.043676	-0.040992	-0.7	-1.26	0.91	0.4311	0.0386	-0.2802	
-1.012112	0.04148	-0.032208	-0.91	-0.42	1.33	0.4297	0.0326	-0.2755	
-1.007232	0.043676	-0.02318	-1.19	0.35	1.82	0.424	0.0357	-0.2817	
-1.011502	0.048312	-0.025498	-1.47	0.91	2.17	0.4296	0.0401	-0.2817	
-1.015284	0.054656	-0.020374	-1.54	0.77	1.61	0.4283	0.0341	-0.2833	
-1.014064	0.055266	-0.018788	-1.54	-0.63	0.98	0.4269	0.0326	-0.2818	
-1.008452	0.056852	-0.016104	-1.12	-1.47	0.91	0.4254	0.0356	-0.2864	
-1.000278	0.05795	-0.011224	-0.77	-0.7	1.12	0.421	0.0372	-0.2755	
-0.997716	0.060512	-0.013542	-0.21	0.56	0.91	0.428	0.0508	-0.2754	
-1.001742	0.061	-0.019276	0.98	0.63	0.14	0.4281	0.0417	-0.2739	
-1.00833	0.057096	-0.024278	2.24	0.28	-0.35	0.4238	0.0418	-0.2739	
-1.013332	0.052826	-0.030866	2.73	-0.35	-0.49	0.4253	0.0432	-0.2817	
-1.018822	0.054046	-0.03172	2.8	-0.35	-0.84	0.4254	0.0372	-0.2802	
-1.023946	0.04941	-0.029524	3.29	-0.42	-1.54	0.4182	0.0358	-0.277	
-1.020164	0.04453	-0.035746	3.64	-1.19	-1.89	0.421	0.0372	-0.2739	
-1.012112	0.04209	-0.029402	3.99	-1.33	-1.89	0.4183	0.0342	-0.2817	
-1.012722	0.038308	-0.025132	4.27	-0.7	-1.68	0.4254	0.0371	-0.2911	
-1.013088	0.035258	-0.024156	4.2	-0.98	-1.33	0.4225	0.0387	-0.2817	
-1.013454	0.038308	-0.025376	3.92	-0.84	-1.12	0.4225	0.0372	-0.2864	
-1.017358	0.041114	-0.025132	3.78	-0.77	-1.05	0.4341	0.031	-0.2849	
-1.012966	0.043432	-0.02257	3.22	-1.82	-0.63	0.4254	0.0387	-0.2817	
-1.00833	0.043432	-0.024034	2.59	-2.31	0.21	0.4253	0.0463	-0.2801	
-1.012844	0.044774	-0.030134	2.94	0.14	0.7	0.4225	0.0387	-0.2817	
-1.011746	0.046238	-0.021228	1.89	0.07	1.82	0.4239	0.0402	-0.2833	
-1.014674	0.049288	-0.023912	1.75	-0.84	1.96	0.4312	0.028	-0.2787	
-1.015406	0.049898	-0.025376	1.54	-1.19	2.24	0.4282	0.0432	-0.2802	
-1.013332	0.046482	-0.022448	0.84	-1.68	2.52	0.4297	0.028	-0.2787	
-1.012112	0.044774	-0.023058	0.7	-2.17	2.8	0.4282	0.0371	-0.2802	
-1.01077	0.043188	-0.019642	0.7	-2.38	3.08	0.4312	0.028	-0.2803	
-1.015162	0.04392	-0.020618	0.42	-2.59	3.43	0.4241	0.0266	-0.2833	
-1.019554	0.04697	-0.019886	0	-3.29	3.64	0.4211	0.0357	-0.2817	
-1.021506	0.051606	-0.021838	-0.28	-4.13	3.71	0.4283	0.0281	-0.2771	
-1.017602	0.05551	-0.021472	0	-3.85	3.78	0.424	0.0326	-0.2802	
-1.014186	0.05978	-0.018056	-0.07	-3.01	3.78	0.4255	0.0265	-0.2849	
-1.009916	0.058438	-0.01403	0.07	-2.03	3.85	0.4213	0.022	-0.2896	
-1.009184	0.060634	-0.01403	0	-2.24	4.06	0.4384	0.0249	-0.2881	
-1.011502	0.061976	-0.010248	0.14	-2.45	3.99	0.4356	0.0174	-0.2772	
-1.011746	0.062342	-0.006588	0.42	-2.94	3.92	0.4226	0.0386	-0.3004	
-1.012356	0.06405	-0.010248	0.56	-3.92	3.99	0.4212	0.0296	-0.2802	
-1.012722	0.066002	-0.008174	0.98	-4.06	3.78	0.427	0.0265	-0.2927	
-1.010648	0.069174	-0.005002	0.98	-3.92	3.43	0.4298	0.028	-0.2896	
-1.00894	0.069296	-0.006222	0.84	-3.99	3.43	0.4242	0.0235	-0.2896	
-1.011014	0.068198	-0.003538	0.56	-3.57	3.64	0.4242	0.0175	-0.2849	
-1.010526	0.069052	0.000244	0.49	-3.08	3.71	0.4299	0.0204	-0.2834	
-1.01382	0.074542	-0.001342	0.42	-2.94	3.57	0.4299	0.0295	-0.2974	
-1.01626	0.075396	-0.003172	0.91	-3.29	3.5	0.4198	0.0296	-0.2926	
-1.01321	0.073688	-0.00122	1.05	-3.5	3.57	0.4171	0.019	-0.2942	
-1.006988	0.07564	0.000854	1.12	-3.5	3.57	0.4185	0.0205	-0.2896	
-1.009794	0.076982	0.001586	1.05	-3.36	3.43	0.4286	0.0143	-0.2943	
-1.015284	0.081252	0.00488	1.19	-3.5	3.36	0.4186	0.016	-0.3005	
-1.014308	0.078324	0.005734	1.33	-3.5	3.71	0.4228	0.025	-0.3021	
-1.009794	0.080398	0.008174	1.4	-3.57	3.99	0.4284	0.0235	-0.2896	
-1.009672	0.083082	0.01159	1.68	-3.43	3.64	0.4086	0.007	-0.2958	
-1.006012	0.080764	0.012932	2.1	-3.64	3.08	0.4114	0.0145	-0.2973	
-1.003938	0.080642	0.01281	1.96	-3.78	3.01	0.4172	0.0205	-0.3083	
-1.011258	0.08357	0.013908	2.1	-3.15	3.22	0.4244	0.0144	-0.3037	
-1.014552	0.086498	0.016348	2.17	-3.64	3.36	0.4185	0.016	-0.2911	
-1.013088	0.08906	0.01342	2.31	-4.13	3.22	0.4229	0.0189	-0.3021	
-1.01626	0.09028	0.015616	2.31	-3.22	2.94	0.4229	0.0099	-0.299	
-1.017602	0.091744	0.015738	2.45	-1.82	2.52	0.4273	0.0038	-0.2944	
-1.00406	0.092354	0.018422	2.31	-1.33	2.31	0.4157	0.016	-0.2942	
-1.003572	0.093086	0.023058	2.59	-0.77	1.82	0.4158	0.0069	-0.299	
-1.010404	0.094306	0.025254	3.43	-0.77	0.98	0.4157	0.019	-0.2942	
-1.010404	0.097844	0.019642	3.71	-1.61	0.56	0.4186	0.0159	-0.3052	
-1.006866	0.103944	0.019642	3.15	-1.54	0.35	0.423	0.0143	-0.3099	
-1.008086	0.106018	0.016348	2.59	0.07	0.21	0.4185	0.0175	-0.2943	
-1.0126	0.104798	0.01403	1.26	0.28	0.35	0.4258	0.0158	-0.3052	
-1.022726	0.1037	0.01098	0.56	-0.84	0.42	0.4243	0.0219	-0.3114	
-1.022116	0.096014	0.01281	0.56	-1.96	0.28	0.4171	0.0145	-0.288	
-1.018822	0.096136	0.009638	1.19	-1.89	0.07	0.42	0.019	-0.3036	
-1.00955	0.096014	0.009272	1.54	-1.61	-0.49	0.4186	0.0114	-0.2974	
-1.011868	0.096624	0.010736	1.61	-0.98	-0.98	0.4173	0.0084	-0.3021	
-1.023946	0.094916	0.012444	0.98	-1.12	-0.98	0.4157	0.019	-0.3052	
-1.02663	0.094794	0.018422	-0.42	-4.83	-0.28	0.4171	0.0221	-0.2958	
-1.011502	0.094428	0.01769	-0.35	-4.62	0.07	0.4073	0.01	-0.3067	
-1.00406	0.08686399	0.022448	0.42	-2.87	-0.07	0.4201	0.0144	-0.3068	
-0.999912	0.081008	0.026718	0.98	-2.24	-0.49	0.4129	0.016	-0.302	
-1.005646	0.081862	0.0305	1.75	-2.31	-0.98	0.4158	0.0144	-0.3099	
-1.007354	0.083326	0.029524	2.94	-2.24	-1.4	0.4088	0.0024	-0.3052	
-1.007842	0.084668	0.03233	4.27	-2.03	-2.03	0.4188	0.0083	-0.3115	
-1.006378	0.086498	0.035136	5.04	-2.66	-2.31	0.4157	0.0205	-0.302	
-0.996252	0.087352	0.032574	5.39	-2.73	-2.38	0.423	0.0068	-0.3037	
-1.013698	0.091134	0.030256	5.25	-2.45	-2.31	0.4115	0.0175	-0.3067	
-1.009306	0.09089	0.031842	4.97	-1.68	-2.03	0.4172	0.0114	-0.299	
-1.008086	0.086132	0.030744	4.06	-2.73	-1.4	0.4172	0.0114	-0.3052	
-1.019432	0.08113	0.031354	4.41	-2.87	-1.47	0.4243	0.0159	-0.299	
-1.028094	0.083326	0.02745	5.74	-2.45	-1.96	0.4115	0.01	-0.3005	
-1.021628	0.084424	0.01952	5.67	-1.75	-1.61	0.4173	0.0084	-0.3052	
-1.014064	0.0915	0.01769	4.27	-0.21	-1.68	0.4116	0.0069	-0.3099	
-1.008574	0.094306	0.02562	1.75	-0.14	-0.91	0.4159	0.0099	-0.3099	
-1.028704	0.093086	0.023912	-1.54	-1.05	1.19	0.4146	-0.0006	-0.3099	
-1.037122	0.091988	0.032696	-5.25	-2.8	3.85	0.4158	0.0114	-0.3005	
-1.00284	0.09089	0.042822	-7.98	-4.76	5.95	0.4072	0.016	-0.3098	
-0.977952	0.092232	0.047946	-7	-3.43	6.3	0.4216	0.0068	-0.3068	
-0.981002	0.090158	0.052094	-5.81	-0.21	5.25	0.423	0.0038	-0.3006	
-0.989664	0.089548	0.051972	-3.85	1.54	3.64	0.4117	0.0069	-0.3192	
-1.0065	0.08784	0.046482	-3.22	0.63	2.38	0.4074	-0.0066	-0.3068	
-1.013332	0.092598	0.04514	-2.52	0.77	1.54	0.4088	0.0009	-0.3099	
-1.000156	0.097112	0.037942	-2.66	-0.84	1.96	0.4188	0.0038	-0.3115	
-0.997472	0.098698	0.038796	-2.24	-0.14	2.45	0.4203	0.0007	-0.3146	
-1.00162	0.096502	0.034648	-2.24	0.49	2.66	0.4145	-0.0006	-0.3052	
-1.008086	0.098942	0.036844	-2.59	-0.91	2.31	0.4074	-0.0005	-0.3099	
-1.012112	0.102358	0.033062	-2.8	0.28	1.96	0.4217	0.0037	-0.3162	
-1.009184	0.110044	0.043554	-3.15	2.1	1.82	0.4131	0.0053	-0.3161	
-1.005768	0.1098	0.053924	-2.94	2.31	1.54	0.4102	0.0099	-0.313	
-1.003206	0.101504	0.049776	-2.24	-0.49	0.98	0.4102	0.0024	-0.3099	
-1.001986	0.087962	0.040504	-0.98	-3.08	-0.28	0.4131	0.0069	-0.3177	
-1.001254	0.085888	0.037332	1.61	-2.03	-0.77	0.416	-0.0051	-0.3068	
-1.003938	0.10004	0.033672	3.36	0.84	-1.05	0.4118	-0.0036	-0.3177	
-1.01199	0.110654	0.02928	3.78	3.64	-2.73	0.4117	0.0053	-0.3192	
-1.015406	0.109556	0.029768	4.62	4.13	-4.06	0.4158	0.0114	-0.3005	
-1.01687	0.104066	0.028914	4.76	1.61	-4.69	0.4131	0.0039	-0.3114	
-1.004914	0.08601	0.04331	3.78	-0.91	-4.83	0.416	0.0038	-0.3162	
-1.014064	0.086132	0.042334	4.34	0.98	-4.62	0.4116	0.0039	-0.3068	
-1.0126	0.09552599	0.039284	3.92	3.15	-3.5	0.4131	0.0039	-0.3083	
-0.991616	0.101992	0.035258	3.29	1.26	-3.22	0.4102	0.0084	-0.313	
-0.993934	0.105896	0.040382	2.31	2.31	-3.08	0.4159	0.0084	-0.3083	
-1.003694	0.09882	0.0305	-0.56	3.57	-2.17	0.4116	0.0129	-0.3145	
-1.015894	0.09333	0.037576	-2.94	1.75	-1.54	0.4116	0.0084	-0.3177	
-1.014186	0.087962	0.040016	-4.06	1.26	-0.7	0.4102	0.0084	-0.3114	
-1.007232	0.086376	0.034038	-5.04	1.26	0.35	0.4143	0.016	-0.2974	
-1.00101	0.086498	0.032086	-6.3	1.26	1.47	0.4258	0.0083	-0.299	
-1.006988	0.085034	0.025376	-6.86	1.54	2.59	0.413	0.0054	-0.2974	
-1.02297	0.081252	0.02318	-7.49	1.96	3.15	0.4057	0.0146	-0.302	
-1.026996	0.08479	0.022692	-8.19	2.03	4.13	0.413	0.0069	-0.3114	
-1.022238	0.076128	0.019032	-9.17	1.4	5.04	0.4087	0.0085	-0.3036	
-1.012966	0.08174	0.022082	-10.08	1.54	6.65	0.4145	0.0023	-0.3115	
-1.012966	0.083448	0.021106	-10.36	2.87	7.91	0.4159	0.0084	-0.3068	
-1.016504	0.087352	0.025132	-10.92	3.5	8.89	0.403	0.004	-0.2989	
-1.016138	0.102358	0.0244	-11.69	3.36	10.15	0.4072	0.0146	-0.3004	
-1.013942	0.115778	0.020252	-12.88	3.08	10.99	0.4131	-0.0021	-0.3021	
-1.007476	0.118218	0.028182	-14.56	2.8	11.97	0.4129	0.0175	-0.3005	
-1.012478	0.122976	0.027328	-16.45	4.27	13.79	0.42	0.0084	-0.2896	
-1.0126	0.133468	0.033672	-17.29	5.81	15.82	0.4129	0.0054	-0.2943	
-0.997228	0.135786	0.027694	-16.59	3.71	16.24	0.4101	0.0085	-0.2974	
-1.010038	0.144082	0.020374	-17.22	6.23	16.73	0.4287	0.0068	-0.2959	
-1.016992	0.150304	0.030134	-17.64	7.49	17.57	0.4202	0.0038	-0.3006	
-1.025288	0.14396	0.022936	-18.06	6.37	20.23	0.4115	0.0054	-0.2974	
-1.00162	0.152744	0.024888	-20.93	4.97	23.03	0.4229	0.0068	-0.2928	
-0.972218	0.164212	0.030134	-20.58	6.65	21.98	0.4159	0.0039	-0.3021	
-0.96807	0.17446	0.025742	-19.39	8.4	19.11	0.4202	-0.0006	-0.2975	
-0.981734	0.16714	0.035136	-16.03	8.61	15.68	0.4217	-0.0052	-0.2975	
-0.98942	0.17141	0.03172	-12.88	8.75	10.78	0.4245	-0.0082	-0.2929	
-0.984052	0.166286	0.01708	-11.34	5.39	7.49	0.4302	-0.0098	-0.2882	
-1.000156	0.17751	0.006588	-9.24	7	4.76	0.4245	-0.0052	-0.2866	
-1.007842	0.19215	0.002806	-8.12	7.84	3.43	0.4273	-0.0067	-0.2882	
-0.99796	0.188002	-0.000854	-6.58	5.39	2.66	0.4203	-0.0142	-0.296	
-0.993202	0.19032	-0.009272	-5.53	4.48	2.1	0.4259	-0.0022	-0.2944	
-1.007842	0.188734	-0.00854	-5.32	4.83	1.75	0.4216	-0.0006	-0.2881	
-1.024312	0.194102	-0.019886	-5.04	3.57	2.38	0.4288	-0.0068	-0.2944	
-1.008208	0.182756	-0.009638	-3.78	0.77	2.52	0.4259	-0.0037	-0.2866	
-0.997106	0.178974	-0.011712	-3.5	-0.42	1.96	0.4202	-0.0066	-0.2913	
-0.993568	0.184098	-0.015006	-2.94	0.07	1.75	0.4287	-0.0037	-0.2866	
-1.001864	0.192882	0.000122	-3.15	0.63	1.54	0.4287	-0.0082	-0.282	
-0.996618	0.186294	0.00122	-2.1	-0.49	1.82	0.4288	-0.0113	-0.2867	
-0.988688	0.17873	0.01037	-1.68	0.21	1.68	0.4274	-0.0098	-0.2913	
-0.9821	0.183244	0.011346	-1.12	-0.35	1.19	0.4174	-0.0096	-0.2913	
-0.984174	0.191174	0.011834	0.07	-0.42	0.35	0.4174	-0.0111	-0.2897	
-0.986248	0.192272	0.008662	0.91	-0.77	-0.35	0.4202	-0.0021	-0.2912	
-0.991616	0.190686	0.0061	1.47	-1.12	-1.05	0.4274	-0.0128	-0.2835	
-0.998814	0.194346	0.000854	1.96	-0.77	-1.33	0.4216	-0.0082	-0.2866	
-0.99308	0.192028	0.00427	2.03	-0.35	-1.54	0.4202	-0.0126	-0.2757	
-0.997716	0.191784	0.001586	1.68	0.14	-1.54	0.426	-0.0112	-0.2898	
-0.994178	0.191296	0.006832	1.75	1.47	-1.61	0.4143	0.0055	-0.2896	
-0.990152	0.187636	0.006222	1.68	0.77	-1.89	0.4302	-0.0052	-0.2851	
-0.988688	0.19032	0.003172	2.31	1.4	-2.24	0.4232	-0.0127	-0.2929	
-0.995398	0.189954	0.002562	2.94	1.75	-2.52	0.4229	-0.0036	-0.2757	
-1.000034	0.188734	0.000854	3.36	1.54	-2.66	0.4202	-0.009699999	-0.2913	
-0.996862	0.186904	0.000732	3.71	1.19	-3.22	0.4216	-0.0112	-0.2835	
-0.997594	0.181292	0.000122	3.71	0.91	-4.27	0.4216	-0.0081	-0.2819	
-0.995886	0.18056	-0.004026	3.99	0.56	-4.55	0.426	-0.0113	-0.2929	
-0.996252	0.17873	-0.00122	4.41	1.47	-4.62	0.4302	-0.0083	-0.2867	
-0.998936	0.1769	-0.001586	5.11	0.49	-4.69	0.4143	0.007	-0.2896	
-1.002718	0.181414	-0.002318	6.16	-0.35	-5.18	0.4174	-0.0096	-0.2928	
-0.994788	0.188978	-0.00305	8.47	-0.84	-7.63	0.42	0.0024	-0.2803	
-0.997228	0.176534	-0.005856	8.54	-1.33	-8.05	0.4158	-0.002	-0.2818	
-1.00284	0.163724	-0.005978	8.82	-0.7	-8.89	0.4216	-0.0051	-0.285	
-0.999058	0.159088	-0.003782	8.12	-1.47	-9.73	0.4216	-0.0036	-0.2881	
-1.006988	0.158844	-0.012444	7.7	-0.91	-9.17	0.4343	0.0083	-0.2851	
-1.007232	0.152988	-0.0061	7	1.61	-7.77	0.4288	-0.0037	-0.2913	
-1.001376	0.153354	-0.00427	7.84	1.54	-7.84	0.4329	0.0007	-0.282	
-1.002108	0.152134	0.002684	8.19	0.14	-8.12	0.4315	-0.0007	-0.2788	
-1.009306	0.146522	-0.004026	9.59	-0.42	-8.82	0.4301	0.0068	-0.2897	
-1.005524	0.147742	-0.00488	10.15	-3.57	-9.66	0.4202	-0.0066	-0.2913	
-0.99491	0.14396	-0.005612	9.8	-5.39	-10.08	0.4272	0.0098	-0.2944	
-0.998936	0.143716	-0.010126	10.43	-1.96	-10.01	0.4271	0.0053	-0.2788	
-1.01199	0.139324	-0.0061	10.22	1.19	-8.96	0.4187	-0.0006	-0.2943	
