Sensor string: E
Serial number: 1970-01-0000
Firmware version: 2,015
Hardware version: 2,2
Calibration quality: 5
ax	ay	az	gx	gy	gz	mx	my	mz

-0.773968	0.002562	0.615002	0.56	0.14	-0.21	-1.5247	-0.1764	-1.1342	Reference
-0.793732	0.022936	0.610366	-0.14	3.22	0.42	-1.5356	-0.1882	-1.1267	
-0.802394	0.030744	0.6161	0.91	0.42	-0.21	-1.5356	-0.1926	-1.1283	
-0.776408	0.02745	0.623298	1.33	-2.38	-0.07	-1.5355	-0.1808	-1.125	
-0.765916	0.017568	0.632448	1.26	-0.56	-0.56	-1.5204	-0.1881	-1.1285	
-0.764208	0.019276	0.63806	1.68	0.07	-0.49	-1.5233	-0.1897	-1.1345	
-0.764818	0.030134	0.634888	2.17	0.21	-1.05	-1.5309	-0.1837	-1.1282	
-0.768112	0.02684	0.632082	1.75	1.19	-0.63	-1.5279	-0.1882	-1.1314	
-0.768844	0.023668	0.62891	1.75	1.82	0.21	-1.5339	-0.1838	-1.1297	
-0.7808	0.025986	0.61915	2.1	2.1	0.35	-1.534	-0.1897	-1.1282	
-0.77348	0.02623	0.626348	1.61	1.47	-0.07	-1.5202	-0.1807	-1.1314	
-0.777384	0.031476	0.619272	1.75	1.33	-0.21	-1.5432	-0.1867	-1.1235	
-0.774334	0.03965	0.625616	0.77	1.05	-0.49	-1.5324	-0.1823	-1.1281	
-0.773846	0.025986	0.624762	0.14	1.33	0.07	-1.5326	-0.1896	-1.1253	
-0.780556	0.02196	0.620858	0.42	1.82	0.28	-1.525	-0.185	-1.1208	
-0.781898	0.024278	0.61976	0.14	1.61	0	-1.5237	-0.1938	-1.1179	
-0.786412	0.028426	0.618906	0.14	1.54	-0.42	-1.54	-0.1898	-1.1312	
-0.779702	0.026352	0.622932	-0.07	0.91	-0.07	-1.5279	-0.1793	-1.1267	
-0.775798	0.025376	0.621712	-0.28	1.54	0.14	-1.5341	-0.1807	-1.1205	
-0.77592	0.020252	0.621712	-0.14	2.03	-0.21	-1.5403	-0.1881	-1.1175	
-0.782508	0.024156	0.61671	0.07	2.31	0.14	-1.5323	-0.1928	-1.1404	
-0.782752	0.024156	0.618906	-0.35	2.1	0.35	-1.5252	-0.1938	-1.1149	
-0.779946	0.022814	0.618906	-0.14	1.61	0.28	-1.5311	-0.1896	-1.1238	
-0.78263	0.027328	0.617076	-0.35	1.75	0.07	-1.5249	-0.1852	-1.1299	
-0.787998	0.030256	0.613172	-0.49	1.96	0	-1.5206	-0.1909	-1.1195	
-0.790682	0.032086	0.611464	0.14	1.19	0.21	-1.5309	-0.1853	-1.1328	
-0.797636	0.0305	0.606462	0.07	0.77	0.14	-1.525	-0.1851	-1.1238	
-0.803614	0.030744	0.611342	-0.42	0.84	-0.35	-1.5265	-0.1866	-1.1253	
-0.785192	0.02867	0.618784	-0.14	-0.63	-0.56	-1.5189	-0.191	-1.1255	
-0.777018	0.031964	0.616222	0.21	-0.42	-1.12	-1.5311	-0.1866	-1.1237	
-0.785192	0.026718	0.604754	-0.14	1.33	-0.98	-1.5279	-0.1792	-1.1252	
-0.813618	0.024522	0.589626	0.35	1.68	-0.77	-1.5236	-0.1879	-1.1193	
-0.806054	0.03416	0.601704	-0.49	-1.4	-0.84	-1.5308	-0.1823	-1.1327	
-0.784216	0.027816	0.613782	-1.12	-3.08	-0.84	-1.5372	-0.1911	-1.1237	
-0.777628	0.017934	0.616832	-1.12	-1.96	-0.42	-1.5324	-0.1853	-1.1327	
-0.788608	0.016592	0.613172	-0.21	0.28	-0.07	-1.537	-0.1883	-1.1312	
-0.793854	0.02257	0.608048	0	-0.35	0.42	-1.5329	-0.1938	-1.1117	
-0.789584	0.0244	0.608414	0	-1.19	0.49	-1.5264	-0.1896	-1.1299	
-0.794098	0.020252	0.60878	-0.42	-0.84	0.84	-1.5325	-0.1867	-1.1267	
-0.781288	0.016714	0.616954	-0.63	-1.26	1.19	-1.5249	-0.1807	-1.1252	
-0.789218	0.019642	0.609756	0.35	-0.63	0.98	-1.5384	-0.1884	-1.1357	
-0.795684	0.0244	0.606462	0.42	-0.77	0.56	-1.5248	-0.1882	-1.1329	
-0.803004	0.028182	0.60085	0.98	-1.26	0.21	-1.5234	-0.1821	-1.1253	
-0.80886	0.03599	0.599386	0.91	-2.38	-0.21	-1.5281	-0.1836	-1.1192	
-0.803004	0.04087	0.59719	0.63	-4.06	-0.91	-1.5294	-0.1718	-1.122	
-0.804712	0.032696	0.60268	-0.42	-4.27	-1.12	-1.5294	-0.1897	-1.1329	
-0.803614	0.030012	0.600118	-0.14	-4.9	-1.47	-1.5205	-0.1909	-1.1225	
-0.803614	0.03416	0.596214	-0.42	-5.25	-1.75	-1.5341	-0.1837	-1.1221	
-0.803126	0.033062	0.601094	-0.98	-5.81	-1.75	-1.5264	-0.1852	-1.1283	
-0.80154	0.026962	0.605608	-1.61	-6.72	-1.33	-1.537	-0.1867	-1.1281	
-0.795684	0.02257	0.60451	-0.98	-7.28	-1.4	-1.5264	-0.1837	-1.1268	
-0.791658	0.025742	0.6039	-0.98	-7.84	-1.4	-1.5311	-0.1865	-1.1192	
-0.788974	0.029524	0.611342	-1.47	-7.84	-1.68	-1.5429	-0.1855	-1.1356	
-0.788852	0.029158	0.610244	-0.77	-9.03	-1.75	-1.5309	-0.1808	-1.1297	
-0.78995	0.024522	0.615124	-1.82	-9.73	-1.75	-1.5446	-0.1898	-1.1311	
-0.803248	0.024278	0.606462	-1.68	-10.22	-1.75	-1.5416	-0.1882	-1.1266	
-0.792512	0.02684	0.617076	-2.1	-12.46	-1.82	-1.5475	-0.1795	-1.1308	
-0.788242	0.026352	0.618174	-1.68	-13.65	-1.96	-1.5416	-0.1823	-1.1249	
-0.781044	0.018422	0.62159	-2.1	-14.77	-1.75	-1.5494	-0.1882	-1.1173	
-0.778604	0.01342	0.62403	-1.82	-15.4	-2.1	-1.5462	-0.1957	-1.1296	
-0.778116	0.014518	0.62464	-1.75	-16.31	-2.24	-1.5521	-0.184	-1.1293	
-0.772382	0.012322	0.625982	-1.54	-17.57	-2.17	-1.5521	-0.1855	-1.1339	
-0.775676	0.02074	0.633058	-1.68	-17.78	-2.24	-1.5521	-0.187	-1.1339	
-0.775676	0.017324	0.632082	-2.1	-19.18	-1.47	-1.5536	-0.184	-1.1323	
-0.762256	0.004514	0.639768	-2.66	-20.79	-0.7	-1.5716	-0.1755	-1.1394	
-0.75396	0.007442	0.645868	-2.31	-20.93	-0.56	-1.5655	-0.1829	-1.1426	
-0.758474	0.010858	0.648918	-2.52	-21.28	-0.14	-1.5655	-0.1814	-1.1426	
-0.755424	0.014152	0.64782	-2.59	-22.54	0.63	-1.558	-0.1887	-1.1414	
-0.750788	0.013908	0.650504	-3.01	-24.29	1.54	-1.5779	-0.1902	-1.1319	
-0.746762	0.008052	0.655262	-3.5	-25.06	1.75	-1.5792	-0.1889	-1.1425	
-0.73932	0.008296	0.659166	-3.15	-26.53	2.03	-1.5883	-0.192	-1.1454	
-0.735538	0.009393999	0.660996	-3.36	-28	1.96	-1.5865	-0.1788	-1.1497	
-0.730292	0.010736	0.666486	-4.48	-29.54	2.31	-1.5911	-0.1892	-1.1543	
-0.718946	0.00732	0.673318	-4.69	-30.87	2.45	-1.6063	-0.1715	-1.1447	
-0.721874	0.006588	0.674904	-4.76	-31.29	2.24	-1.6002	-0.1788	-1.1464	
-0.715896	0.006588	0.673196	-4.97	-33.32	1.89	-1.6109	-0.1804	-1.1447	
-0.701378	-0.002074	0.677588	-4.41	-36.33	2.38	-1.6167	-0.1762	-1.1551	
-0.68625	-0.005856	0.691862	-4.2	-37.87	0.91	-1.6243	-0.1703	-1.1534	
-0.68991	0.016836	0.689666	-4.06	-37.87	-0.63	-1.6229	-0.1806	-1.1506	
-0.67344	0.014152	0.69662	-6.72	-40.39	-0.56	-1.6334	-0.1779	-1.1563	
-0.651968	-0.001586	0.708576	-6.58	-42	-0.42	-1.6381	-0.1822	-1.1518	
-0.642208	-0.000732	0.730536	-5.53	-42.84	-0.84	-1.641	-0.1823	-1.1548	
-0.633546	-0.001464	0.735294	-6.16	-44.1	-0.7	-1.6548	-0.1898	-1.1531	
-0.611952	-0.010614	0.745054	-6.23	-45.36	-0.63	-1.656	-0.1811	-1.162	
-0.590846	-0.006222	0.749446	-5.67	-46.13	-0.7	-1.6619	-0.1679	-1.1632	
-0.575108	-0.001342	0.746884	-4.62	-49.49	-1.4	-1.6728	-0.1753	-1.1555	
-0.558638	-0.006344	0.74847	-5.53	-48.51	-2.24	-1.6865	-0.1753	-1.1492	
-0.53619	-0.010004	0.753472	-3.64	-50.12	-2.66	-1.6925	-0.1829	-1.1598	
-0.505568	-0.018788	0.772016	-3.15	-52.92	-2.59	-1.7028	-0.1713	-1.1655	
-0.48068	-0.030378	0.799832	-2.52	-55.79	-2.73	-1.7123	-0.1741	-1.1487	
-0.468602	-0.033916	0.823622	-0.91	-55.93	-2.87	-1.7302	-0.1685	-1.1604	
-0.45445	-0.04697	0.819352	0.7	-58.03	-2.24	-1.7257	-0.1789	-1.1622	
-0.422852	-0.047824	0.824598	3.78	-61.53	-2.31	-1.7379	-0.1789	-1.1589	
-0.38369	-0.025132	0.838384	4.41	-61.53	-4.27	-1.7559	-0.1718	-1.163	
-0.34831	-0.010004	0.848388	3.22	-60.62	-4.13	-1.7531	-0.176	-1.1525	
-0.308904	-0.01342	0.874862	2.24	-60.97	-3.08	-1.7759	-0.1807	-1.1537	
-0.264252	-0.012566	0.892918	3.15	-60.06	-3.08	-1.7849	-0.1793	-1.155	
-0.257542	-0.015006	0.905606	3.92	-56.77	-3.36	-1.7971	-0.1809	-1.1563	
-0.266204	-0.013054	0.913902	4.13	-55.02	-3.64	-1.7926	-0.1852	-1.1534	
-0.250832	-0.009272	0.91256	4.27	-54.88	-3.08	-1.8032	-0.1913	-1.1564	
-0.216672	-0.008784	0.925248	2.8	-55.23	-1.96	-1.817	-0.1824	-1.1469	
-0.172996	-0.010492	0.932202	1.4	-55.44	-0.35	-1.8154	-0.1824	-1.1469	
-0.154208	-0.020984	0.94611	0.91	-54.11	0.56	-1.8488	-0.1827	-1.1432	
-0.148474	-0.023058	0.950868	0.49	-50.4	0.28	-1.8581	-0.1841	-1.1371	
-0.13908	-0.021838	0.947818	0.21	-49.91	0.28	-1.8732	-0.1858	-1.1398	
-0.119926	-0.021472	0.95038	0.21	-49.98	0.49	-1.8642	-0.1856	-1.1324	
-0.103212	-0.020252	0.945256	0.35	-48.65	0.49	-1.8794	-0.1931	-1.1353	
-0.093208	-0.01525	0.942572	0.56	-47.88	0.91	-1.8991	-0.1844	-1.1287	
-0.08686399	-0.011834	0.939644	-0.28	-48.16	1.26	-1.8962	-0.1917	-1.1259	
-0.074054	-0.01464	0.940254	-0.49	-47.25	0.91	-1.8902	-0.1901	-1.1229	
-0.050752	-0.012688	0.945988	0	-48.16	0.84	-1.9038	-0.1828	-1.1226	
-0.032208	-0.007686	0.95038	-0.49	-48.02	0.98	-1.9115	-0.1887	-1.1165	
-0.014152	-0.007442	0.948306	-0.14	-48.09	1.05	-1.9205	-0.1844	-1.1208	
0.00732	-0.009272	0.95282	-0.49	-48.44	1.54	-1.9299	-0.1961	-1.1087	
0.022326	-0.004758	0.957944	-0.28	-47.32	1.47	-1.9285	-0.2019	-1.1058	
0.038552	-0.015982	0.960872	-0.84	-47.46	1.61	-1.9373	-0.1859	-1.1129	
0.0549	-0.02562	0.968314	-0.49	-47.81	2.31	-1.9483	-0.1991	-1.1039	
0.078934	-0.008052	0.969534	0.21	-47.32	2.87	-1.9421	-0.1858	-1.1007	
0.095404	0.004148	0.974658	0.63	-47.11	2.8	-1.9558	-0.1947	-1.1006	
0.117486	-0.017202	0.971608	1.4	-46.97	2.24	-1.9648	-0.1904	-1.1034	
0.146156	-0.027938	0.975512	3.08	-46.13	1.75	-1.9756	-0.1859	-1.0925	
0.170922	-0.015738	0.97234	4.69	-43.12	0.7	-1.9772	-0.1829	-1.0849	
0.191052	-0.004514	0.977586	4.69	-41.58	0.28	-1.9926	-0.2051	-1.0835	
0.204838	-0.000854	0.993202	4.34	-39.62	-0.14	-1.991	-0.1933	-1.0863	
0.213622	-0.002074	0.997106	3.78	-38.57	-1.12	-1.9911	-0.1977	-1.0819	
0.230214	0.000366	0.99857	3.5	-36.96	-1.75	-2.0033	-0.1932	-1.074	
0.250954	0.005124	0.998448	2.38	-36.82	-1.82	-2.0094	-0.1933	-1.0724	
0.26413	-0.005856	1.002596	1.61	-33.95	-1.96	-2.0171	-0.1947	-1.0677	
0.279624	-0.018422	0.997594	1.75	-32.48	-1.96	-2.0157	-0.1887	-1.0586	
0.289384	-0.003294	1.006012	1.12	-30.66	-1.05	-2.0159	-0.1974	-1.0497	
0.28853	0.007564	0.999668	0.14	-27.3	-0.63	-2.0217	-0.1962	-1.0661	
0.29219	0.002806	0.989786	-0.42	-25.34	-0.21	-2.031	-0.1932	-1.0553	
0.30317	0.007808	0.99247	-0.35	-24.22	0.21	-2.0174	-0.2019	-1.0558	
0.310612	0.008784	0.998326	-0.35	-22.19	0.07	-2.037	-0.1933	-1.0582	
0.318786	0.007808	0.993568	-1.12	-18.9	0.21	-2.0447	-0.1932	-1.049	
0.32025	0.00305	0.989542	-2.17	-17.22	0.7	-2.0387	-0.196	-1.0462	
0.313418	0.00183	0.986492	-2.17	-16.45	1.26	-2.042	-0.1959	-1.0355	
0.311222	0.001708	0.991372	-2.38	-13.72	1.19	-2.0373	-0.196	-1.0432	
0.325252	0.003172	0.999668	-2.66	-12.18	0.98	-2.0371	-0.1872	-1.0476	
0.34099	-0.004026	0.998326	-2.94	-10.78	0.42	-2.054	-0.1842	-1.0351	
0.34282	-0.015494	0.995032	-2.73	-9.66	0.35	-2.0448	-0.1961	-1.0461	
0.33672	-0.008417999	0.99308	-2.87	-7.98	0.07	-2.0555	-0.1901	-1.0367	
0.340014	-0.006222	0.992836	-3.36	-4.34	-0.14	-2.051	-0.1975	-1.0369	
0.34892	-0.006832	0.993934	-3.43	-3.15	-0.49	-2.0492	-0.1858	-1.0458	
0.351482	-0.01098	1.001864	-3.71	-0.84	-0.42	-2.0493	-0.1887	-1.0428	
0.36051	-0.01769	1.004182	-3.92	3.15	-0.56	-2.054	-0.1902	-1.0382	
0.365634	-0.024522	1.00894	-3.78	6.02	-1.47	-2.06	-0.1872	-1.0365	
0.366732	-0.026596	1.008818	-2.38	7.84	-1.75	-2.0508	-0.1918	-1.0489	
0.363316	-0.025986	1.006012	-1.82	11.06	-1.26	-2.0388	-0.19	-1.0385	
0.356484	-0.024156	1.005768	-1.68	13.3	-0.91	-2.0493	-0.1843	-1.0427	
0.35624	-0.025254	1.00223	-0.7	16.24	-1.05	-2.0388	-0.1886	-1.04	
0.35746	-0.031232	1.002352	-0.14	18.2	-1.05	-2.0479	-0.1887	-1.0398	
0.353556	-0.02867	0.998936	0.63	20.58	-0.84	-2.0387	-0.1857	-1.0445	
0.331596	-0.025986	1.000156	0.91	23.52	-0.98	-2.0296	-0.1841	-1.0431	
0.319274	-0.022326	0.99613	0.91	25.62	-1.12	-2.0371	-0.1902	-1.0491	
0.313662	-0.015494	0.993446	0.91	26.88	-0.56	-2.025	-0.1916	-1.0509	
0.308294	-0.012444	0.999912	0.14	29.12	0.14	-2.0279	-0.1917	-1.0554	
0.296826	-0.011468	0.998448	-1.05	32.41	0.35	-2.0234	-0.1886	-1.0494	
0.282064	-0.018788	0.99735	-2.24	34.37	0.42	-2.0231	-0.1933	-1.0676	
0.26718	-0.023912	0.99857	-2.59	36.96	0.77	-2.0125	-0.1933	-1.0693	
0.249246	-0.02745	0.995398	-3.08	39.48	0.84	-2.0126	-0.1857	-1.0616	
0.227774	-0.033062	0.993202	-2.66	41.65	0.7	-2.0033	-0.1903	-1.0755	
0.216062	-0.03416	0.989542	-2.31	42.77	1.05	-1.9942	-0.1872	-1.071	
0.207644	-0.037454	0.987712	-1.82	44.73	1.54	-1.9894	-0.1889	-1.0848	
0.187514	-0.036722	0.982588	-0.98	46.9	1.82	-1.9878	-0.1875	-1.0893	
0.158844	-0.033306	0.983076	0	49.14	1.82	-1.9834	-0.1918	-1.0849	
0.144204	-0.030866	0.977586	0.07	49.91	1.82	-1.9726	-0.1829	-1.0895	
0.132126	-0.030012	0.978562	0.7	50.68	2.24	-1.9514	-0.1827	-1.0914	
0.116022	-0.025864	0.970388	0.63	52.22	2.73	-1.9511	-0.1859	-1.1051	
0.086986	-0.022814	0.968192	0.63	54.39	3.29	-1.9434	-0.1905	-1.1159	
0.060268	-0.02501	0.96258	0.35	55.23	3.57	-1.9373	-0.183	-1.1113	
0.04087	-0.030378	0.956236	0.35	56.21	3.64	-1.9312	-0.177	-1.1144	
0.018178	-0.027572	0.957822	0.42	57.19	3.92	-1.9085	-0.1886	-1.115	
-0.002562	-0.023302	0.953674	0.7	57.96	3.99	-1.9039	-0.1723	-1.1103	
-0.026596	-0.02806	0.945744	1.19	59.01	3.99	-1.9039	-0.1872	-1.1211	
-0.05307	-0.0305	0.939644	1.54	59.78	4.2	-1.8976	-0.18	-1.1302	
-0.074786	-0.033672	0.928542	2.31	60.13	4.55	-1.8763	-0.1798	-1.1306	
-0.09699	-0.033184	0.925492	3.01	60.2	4.41	-1.8762	-0.1828	-1.1367	
-0.126026	-0.030256	0.919148	4.2	60.97	3.64	-1.867	-0.1709	-1.1366	
-0.15189	-0.02623	0.914756	4.76	61.25	3.29	-1.8656	-0.1842	-1.1399	
-0.169336	-0.02867	0.91195	5.46	60.69	3.29	-1.8382	-0.1796	-1.1419	
-0.187026	-0.027572	0.90585	6.44	60.76	3.22	-1.8351	-0.1856	-1.1511	
-0.214476	-0.014396	0.898652	6.37	61.67	2.8	-1.8229	-0.1856	-1.1544	
-0.240096	-0.003416	0.894138	6.65	61.46	2.24	-1.8199	-0.1796	-1.1513	
-0.255468	0.00122	0.887062	6.72	60.55	2.17	-1.8093	-0.181	-1.1515	
-0.275598	0.003538	0.881694	6.51	62.44	2.24	-1.8001	-0.1779	-1.1532	
-0.301462	0.003416	0.876814	6.16	62.65	2.94	-1.7883	-0.188	-1.143	
-0.325252	0.004758	0.8662	5.95	62.72	3.43	-1.7742	-0.1823	-1.1658	
-0.340136	0.007808	0.852536	5.46	63.28	3.92	-1.7576	-0.1835	-1.1586	
-0.359046	0.013664	0.840946	5.39	62.86	4.13	-1.7516	-0.1894	-1.1588	
-0.387472	0.019764	0.826672	5.88	64.12	3.71	-1.7456	-0.1818	-1.1528	
-0.414922	0.024766	0.817034	6.3	64.47	3.36	-1.7305	-0.1847	-1.1546	
-0.438468	0.030866	0.816302	6.58	63.63	2.94	-1.7227	-0.1862	-1.1639	
-0.458232	0.035136	0.8052	6.93	63.21	2.87	-1.7078	-0.1948	-1.1552	
-0.480192	0.03477	0.787632	6.65	62.37	3.36	-1.7048	-0.1918	-1.1537	
-0.506666	0.034404	0.78263	5.6	62.3	3.57	-1.6865	-0.1873	-1.1585	
-0.532652	0.032452	0.770064	5.74	62.3	2.1	-1.6802	-0.1829	-1.1661	
-0.553636	0.025864	0.751154	4.55	61.25	1.4	-1.6761	-0.187	-1.1481	
-0.574864	0.036844	0.731268	3.78	60.55	1.05	-1.6563	-0.1913	-1.1516	
-0.60695	0.04697	0.712968	3.36	61.46	0.21	-1.6426	-0.1867	-1.1533	
-0.622566	0.050142	0.69052	3.29	59.99	0.35	-1.632	-0.1955	-1.1567	
-0.641354	0.042944	0.68259	2.1	58.8	0.91	-1.6259	-0.197	-1.1599	
-0.654286	0.033184	0.670878	2.59	58.66	0.49	-1.6153	-0.191	-1.1584	
-0.665022	0.02989	0.66124	3.57	57.05	0.35	-1.6109	-0.1848	-1.1448	
-0.670634	0.039406	0.65636	3.71	56.84	1.82	-1.5927	-0.1876	-1.1467	
-0.673684	0.036234	0.642208	2.87	54.74	4.13	-1.5959	-0.1861	-1.1406	
-0.708698	0.038674	0.630374	4.83	55.02	3.78	-1.5763	-0.1813	-1.1318	
-0.73871	0.06734399	0.612684	5.53	56.28	0.63	-1.5749	-0.1946	-1.1321	
-0.734562	0.065392	0.597922	4.48	55.09	-0.14	-1.5641	-0.1857	-1.1382	
-0.735782	0.050264	0.583404	4.83	54.25	1.19	-1.5474	-0.1856	-1.14	
-0.75457	0.051728	0.564738	5.04	54.95	0.49	-1.5475	-0.1855	-1.137	
-0.789706	0.063562	0.54717	6.79	54.46	-2.38	-1.5358	-0.1954	-1.1193	
-0.81252	0.056974	0.536556	6.3	50.82	-2.38	-1.5221	-0.1849	-1.1133	
-0.807274	0.039772	0.529236	7.49	49.49	-2.17	-1.5159	-0.1805	-1.1194	
-0.797636	0.044774	0.524234	10.08	50.05	-3.29	-1.5146	-0.1907	-1.115	
-0.814472	0.059414	0.511546	10.43	50.82	-5.04	-1.4904	-0.1979	-1.1171	
-0.84241	0.062464	0.482632	11.55	52.15	-6.72	-1.4907	-0.1976	-1.102	
-0.871446	0.064538	0.465796	10.43	52.08	-7.98	-1.4817	-0.193	-1.0946	
-0.91622	0.07564	0.471164	8.47	53.69	-7.21	-1.4666	-0.1987	-1.095	
-0.930128	0.078202	0.46177	6.16	50.75	-6.23	-1.4589	-0.2033	-1.1042	
-0.930372	0.071858	0.456036	3.01	48.58	-6.23	-1.4546	-0.2	-1.0861	
-0.887306	0.04758	0.435052	0.56	46.27	-3.85	-1.45	-0.1955	-1.0877	
-0.908168	0.05856	0.396866	0	49.84	-6.3	-1.4471	-0.1998	-1.0833	
-0.962092	0.072712	0.373564	-4.06	51.87	-7.91	-1.4381	-0.1862	-1.0696	
-0.970022	0.081862	0.358192	-6.86	48.58	-5.32	-1.4306	-0.1965	-1.0714	
-0.947086	0.07259	0.364658	-9.52	44.59	-1.4	-1.4231	-0.1934	-1.0685	
-0.925614	0.057584	0.320494	-11.2	43.19	-1.68	-1.4247	-0.1919	-1.0639	
-0.93452	0.04453	0.281454	-11.62	45.92	-1.96	-1.4123	-0.1801	-1.0715	
-1.00284	0.029646	0.24095	-9.52	45.5	-0.07	-1.4064	-0.1873	-1.0657	
-1.039562	0.040016	0.248758	-7.28	41.02	-0.7	-1.4036	-0.1812	-1.052	
-1.038464	0.045628	0.243268	-3.29	35.56	-1.54	-1.3991	-0.1811	-1.0506	
-0.991982	0.030378	0.28182	-0.42	32.2	-0.35	-1.3976	-0.1825	-1.0461	
-0.95709	0.021716	0.266692	1.12	32.34	0.84	-1.3932	-0.1853	-1.0402	
-0.997228	0.026596	0.227652	4.48	34.09	-0.07	-1.3795	-0.1792	-1.0404	
-1.00833	0.060756	0.21472	5.32	33.39	-2.24	-1.3841	-0.1822	-1.0388	
-1.0553	0.061488	0.19825	3.15	31.78	-1.75	-1.3705	-0.1836	-1.0391	
-1.025288	0.049898	0.210206	2.73	27.02	-1.4	-1.3631	-0.1819	-1.0301	
-1.025776	0.048068	0.218258	4.34	25.97	-2.38	-1.3677	-0.1833	-1.0255	
-1.004792	0.065514	0.210206	3.57	23.52	-2.8	-1.3617	-0.1832	-1.0257	
-1.035658	0.06832	0.217648	1.61	22.12	-2.73	-1.3572	-0.1876	-1.0258	
-1.024922	0.060268	0.231068	-2.24	19.53	-0.98	-1.3693	-0.1848	-1.024	
-1.001864	0.046238	0.23119	-3.43	17.71	0.98	-1.3634	-0.1816	-1.015	
-0.984784	0.045994	0.198128	-3.64	17.85	0.84	-1.3619	-0.1934	-1.0168	
-1.032974	0.043798	0.174826	-3.64	18.27	0.28	-1.3602	-0.1802	-1.0211	
-1.054446	0.050508	0.184464	-3.15	15.68	-0.14	-1.3559	-0.1784	-1.0076	
-1.043832	0.04026	0.187148	-3.43	12.74	1.26	-1.3514	-0.1813	-1.0077	
-1.003694	0.033916	0.176656	-0.91	10.08	0.77	-1.3559	-0.1769	-1.006	
-1.018578	0.038552	0.168848	1.33	10.22	-1.54	-1.3438	-0.1813	-1.0109	
-1.034316	0.047946	0.16653	0.07	9.59	-3.08	-1.3287	-0.1826	-1.0066	
-1.024068	0.038674	0.169336	0.35	7.91	-2.8	-1.3513	-0.1844	-1.0123	
-1.027606	0.030622	0.17141	1.4	8.12	-3.92	-1.3425	-0.1871	-1.0019	
-1.023702	0.03904	0.162138	2.38	8.61	-5.53	-1.3333	-0.1826	-1.005	
-1.018212	0.042334	0.14518	3.22	8.12	-5.39	-1.3408	-0.1798	-1.0079	
-1.046882	0.032086	0.151158	2.24	7.63	-5.25	-1.3439	-0.1812	-1.0018	
-1.040904	0.03782	0.156404	3.08	5.67	-5.88	-1.3425	-0.187	-0.9989	
-1.008818	0.042944	0.17385	2.52	4.55	-5.18	-1.3317	-0.1692	-1.0003	
-0.992348	0.039162	0.185196	2.1	3.71	-4.76	-1.3393	-0.1752	-1.0033	
-0.97539	0.04453	0.215086	0.98	4.2	-4.48	-1.3378	-0.1708	-1.0002	
-0.933788	0.05124	0.230702	-1.05	4.97	-4.27	-1.3439	-0.1723	-0.9985999	
-0.919514	0.040382	0.22204	-2.24	8.26	-3.85	-1.3348	-0.1781	-1.0004	
-0.94611	0.03477	0.183976	-3.43	11.2	-4.69	-1.3379	-0.1692	-0.9956	
-0.986614	0.01586	0.181414	-3.57	12.11	-5.6	-1.3379	-0.1662	-0.9941	
-1.008452	0.00244	0.179584	-2.59	10.71	-5.18	-1.3351	-0.1704	-0.9836	
-1.006256	0.00549	0.176778	-0.42	9.17	-7.07	-1.3394	-0.1662	-0.9941	
-1.016382	0.01342	0.167628	0.91	8.19	-7.49	-1.3258	-0.1616	-0.9912	
-1.016138	0.01891	0.168726	0.35	8.19	-7	-1.3257	-0.1617	-0.9942	
-1.022604	0.001708	0.161162	-0.35	8.82	-5.74	-1.3335	-0.1735	-0.9883	
-1.026752	-0.010736	0.143106	1.4	9.66	-5.18	-1.3364	-0.1632	-0.988	
-1.051518	-0.003172	0.121878	2.94	11.34	-6.65	-1.3337	-0.1762	-0.9791999	
-1.063718	0.011468	0.091866	3.15	11.13	-7.14	-1.3288	-0.1587	-0.9911	
-1.067744	0.020008	0.074908	2.94	8.26	-6.02	-1.3246	-0.1732	-0.9809	
-1.068598	-0.002806	0.081252	0	5.25	-3.64	-1.32	-0.1702	-0.9809	
-1.040782	-0.02806	0.084424	1.12	2.59	-1.82	-1.323	-0.1614	-0.9791999	
-1.013942	-0.022204	0.09076799	2.45	1.12	-2.59	-1.3229	-0.163	-0.9852	
-1.021262	-0.010614	0.08906	2.24	0.14	-2.1	-1.3245	-0.1644	-0.9791999	
-1.0431	-0.00427	0.094916	0.35	-1.33	-0.63	-1.3366	-0.1571	-0.9773	
-1.040904	-0.013298	0.097844	-0.28	-3.85	1.4	-1.3215	-0.1629	-0.9791999	
-1.033584	-0.016958	0.100528	-0.07	-5.11	2.1	-1.3216	-0.1717	-0.9779	
-1.052982	-0.002196	0.099796	-0.14	-5.88	1.12	-1.3244	-0.163	-0.9837	
-1.061278	0.017934	0.104432	-2.1	-7.56	1.33	-1.3228	-0.1705	-0.9914	
-1.065426	0.0122	0.103334	-4.9	-10.08	4.13	-1.3166	-0.1526	-0.9881999	
-1.063718	-0.005978	0.106018	-6.09	-12.11	6.58	-1.3319	-0.1676	-0.9897	
-1.058838	-0.006344	0.100894	-4.48	-14.35	7.07	-1.3379	-0.1617	-0.991	
-1.073234	0.003172	0.09942999	-3.71	-16.38	7.07	-1.3409	-0.1707	-0.9956	
-1.065304	0.010614	0.101382	-4.48	-19.67	7.56	-1.3274	-0.1689	-0.9868	
-1.044808	0.004026	0.116876	-3.92	-21.84	8.33	-1.3427	-0.1765	-0.9866	
-1.03822	0.002562	0.12322	-2.31	-22.68	7.35	-1.3335	-0.169	-0.9881999	
-1.047248	0.003538	0.125294	-1.26	-23.45	5.25	-1.3408	-0.1648	-0.997	
-1.052738	0.008417999	0.124928	-0.49	-25.55	3.71	-1.3455	-0.1618	-0.9908	
-1.04005	0.020618	0.130662	-0.14	-28.07	3.36	-1.3466	-0.1651	-1.0105	
-1.03334	0.020496	0.150792	0	-29.75	3.43	-1.3466	-0.1651	-1.0105	
-1.020774	0.026962	0.156282	0.49	-31.08	2.03	-1.3544	-0.174	-1.0075	
-1.045784	0.027816	0.149938	0.98	-31.92	1.47	-1.3542	-0.1726	-1.0135	
-1.045906	0.02745	0.16226	1.54	-35.49	1.68	-1.3603	-0.1786	-1.0165	
-1.03456	0.024156	0.179828	2.94	-38.57	1.4	-1.3617	-0.1728	-1.0209	
-1.040538	0.01464	0.194712	4.34	-41.16	1.61	-1.3752	-0.1775	-1.0268	
-1.028338	0.000244	0.208254	5.53	-43.61	1.68	-1.375	-0.1688	-1.0342	
-1.026996	0.01647	0.205082	8.54	-45.57	1.82	-1.3767	-0.1776	-1.0313	
-1.01626	0.029402	0.21472	7.84	-47.67	2.1	-1.3856	-0.1808	-1.0418	
-1.003572	0.05368	0.227896	6.72	-48.09	0	-1.3914	-0.1781	-1.0522	
-1.015894	0.057706	0.245952	4.76	-47.88	0.56	-1.393	-0.1855	-1.0523	
-0.979172	0.053924	0.26901	2.8	-51.31	0.84	-1.4187	-0.1784	-1.0532	
-0.969412	0.042578	0.2928	2.45	-52.01	2.66	-1.4051	-0.1886	-1.0536	
-0.944402	0.036966	0.304024	2.59	-52.99	3.5	-1.4229	-0.1772	-1.0682	
-0.933544	0.039284	0.327204	4.2	-52.15	3.57	-1.4275	-0.1921	-1.0729	
-0.916708	0.063562	0.34709	6.16	-52.29	2.66	-1.4304	-0.1863	-1.0758	
-0.889258	0.043554	0.36112	2.31	-53.48	3.43	-1.4485	-0.1925	-1.0876	
-0.876936	0.044286	0.394304	0.7	-53.27	3.92	-1.4454	-0.1881	-1.0861	
-0.863516	0.035014	0.413946	-0.42	-52.08	4.48	-1.4517	-0.1969	-1.0816	
-0.857904	0.05673	0.434686	-2.17	-50.82	4.62	-1.4542	-0.1736	-1.0947	
-0.823744	0.047458	0.472018	-4.83	-55.16	6.65	-1.4544	-0.1868	-1.0919	
-0.79666	0.02257	0.486048	-3.22	-58.03	6.65	-1.4723	-0.1872	-1.1067	
-0.801662	0.031598	0.491294	-2.45	-55.37	6.93	-1.4829	-0.1992	-1.1143	
-0.77348	0.034892	0.542412	-5.6	-56.84	9.1	-1.4903	-0.1831	-1.1139	
-0.775066	0.03172	0.55022	-3.92	-59.5	8.19	-1.5102	-0.195	-1.1076	
-0.74725	0.049288	0.590724	-5.74	-58.87	6.79	-1.5115	-0.1938	-1.1212	
-0.708942	0.041968	0.600728	-7.35	-58.24	8.33	-1.5146	-0.1892	-1.115	
-0.706502	0.02013	0.600484	-6.02	-55.86	6.58	-1.5265	-0.2	-1.1331	
-0.75396	0.006222	0.60939	-3.71	-51.45	5.88	-1.5372	-0.2	-1.1284	
-0.737368	0.01586	0.619516	-2.1	-58.31	7.63	-1.5507	-0.2032	-1.1357	
-0.718336	0.064294	0.62708	-2.31	-63.14	5.32	-1.5537	-0.1988	-1.1326	
-0.685884	0.075762	0.663924	-3.15	-64.96	1.82	-1.5615	-0.2032	-1.1265	
-0.630252	0.034404	0.672342	-5.81	-66.22	2.8	-1.5747	-0.1903	-1.1396	
-0.611952	0.00732	0.695156	-2.8	-62.58	2.73	-1.5912	-0.195	-1.1499	
-0.609268	0.02623	0.698084	-1.61	-59.64	0.28	-1.6081	-0.1965	-1.1421	
-0.629032	0.057218	0.690886	-2.45	-58.52	-2.1	-1.6199	-0.1955	-1.1584	
-0.62403	0.068076	0.694546	-3.01	-60.55	-1.75	-1.6215	-0.1924	-1.1523	
-0.604998	0.060634	0.712724	-5.18	-61.11	0.35	-1.6275	-0.191	-1.1522	
-0.565714	0.05002	0.74176	-4.97	-60.69	1.47	-1.6455	-0.1959	-1.167	
-0.504958	0.056974	0.760426	-3.92	-61.04	1.05	-1.6591	-0.187	-1.1606	
-0.517646	0.059902	0.770064	-3.15	-57.61	0.84	-1.667	-0.1899	-1.1499	
-0.563274	0.054656	0.773358	-4.41	-55.58	1.68	-1.667	-0.2017	-1.1531	
-0.53009	0.046116	0.765062	-5.18	-58.24	3.22	-1.6897	-0.2005	-1.1572	
-0.45628	0.02989	0.79544	-4.83	-58.8	4.27	-1.6989	-0.196	-1.1464	
-0.41297	0.016592	0.808372	-5.25	-52.36	6.93	-1.7093	-0.1918	-1.1551	
-0.446154	0.009638	0.807762	-5.53	-51.31	7.21	-1.7076	-0.1905	-1.1627	
-0.454694	0.02013	0.816668	-6.44	-53.55	6.02	-1.7168	-0.1875	-1.1549	
-0.4209	0.027938	0.824842	-6.51	-55.16	5.39	-1.7245	-0.195	-1.1564	
-0.39528	0.016226	0.844606	-5.25	-56.42	5.18	-1.7289	-0.1877	-1.1577	
-0.369416	0.009393999	0.86742	-3.85	-52.99	6.51	-1.7502	-0.1878	-1.1543	
-0.34953	0.02196	0.854122	-0.91	-50.4	5.6	-1.7623	-0.2028	-1.1619	
-0.378444	0.005124	0.854732	0.35	-51.66	5.53	-1.7608	-0.1894	-1.1541	
-0.318786	-0.02196	0.886696	-0.35	-53.41	8.26	-1.7731	-0.1983	-1.151	
-0.259616	-0.007442	0.896334	-0.42	-47.11	9.38	-1.776	-0.1999	-1.1586	
-0.28304	0.003294	0.879498	-0.28	-49	8.54	-1.779	-0.1895	-1.1538	
-0.25498	0.004758	0.894626	0.63	-52.99	7.28	-1.7912	-0.2	-1.1568	
-0.230336	0.013786	0.909266	0.35	-50.89	5.74	-1.8005	-0.194	-1.1429	
-0.197884	0.020008	0.917074	-0.98	-49.07	4.97	-1.8155	-0.1958	-1.1517	
-0.204716	0.031964	0.93025	-1.54	-50.12	4.83	-1.8139	-0.2003	-1.1578	
-0.198738	0.047946	0.94367	-0.91	-50.61	4.76	-1.8262	-0.1927	-1.1424	
-0.1769	0.041968	0.959408	-1.47	-48.23	3.92	-1.8337	-0.1914	-1.1467	
-0.154208	0.031964	0.955748	-2.73	-49	3.92	-1.8458	-0.196	-1.1511	
-0.136396	0.035136	0.955626	-3.85	-51.52	2.52	-1.8475	-0.1988	-1.1421	
-0.09821	0.027206	0.9516	-3.57	-49.63	1.54	-1.8671	-0.1947	-1.1446	
-0.081984	0.019764	0.94245	-3.5	-51.45	2.31	-1.8718	-0.1946	-1.14	
-0.082716	0.016104	0.978806	-3.15	-52.57	1.89	-1.8839	-0.1992	-1.1399	
-0.050508	0.016348	0.976732	-2.24	-51.87	0.63	-1.8809	-0.1857	-1.1321	
-0.029524	0.016592	0.97051	-2.45	-52.36	0.77	-1.8961	-0.1888	-1.1334	
-0.02745	0.02196	0.95343	-2.03	-51.87	0.14	-1.8992	-0.2007	-1.1351	
0.012078	0.028182	0.968924	-2.66	-48.09	0.63	-1.9128	-0.1859	-1.127	
0.033672	0.025742	0.973072	-3.29	-44.1	1.05	-1.9207	-0.1917	-1.1163	
0.01037	0.02013	0.96929	-3.57	-45.71	0.98	-1.9313	-0.1993	-1.1193	
0.028792	0.020008	0.952332	-2.87	-45.92	0.91	-1.9297	-0.1933	-1.1177	
0.04392	0.020618	0.978928	-3.78	-47.6	1.82	-1.9344	-0.1888	-1.1115	
0.088572	0.015738	0.994056	-3.43	-45.43	2.24	-1.945	-0.1859	-1.1097	
0.101016	0.007198	0.98942	-3.29	-44.38	2.66	-1.9467	-0.1873	-1.1022	
0.099308	0.012566	0.979172	-2.31	-44.87	1.82	-1.9587	-0.1905	-1.1096	
0.126514	0.019032	0.982222	-1.75	-44.73	1.47	-1.9737	-0.1818	-1.1091	
0.147498	0.022204	0.984784	-1.75	-43.89	1.75	-1.9619	-0.1814	-1.0942	
0.149816	0.02318	0.977098	-0.56	-43.54	2.73	-1.9711	-0.1785	-1.0895	
0.158722	0.04026	0.99308	-1.12	-43.61	1.75	-1.9818	-0.1844	-1.0863	
0.183	0.037088	0.986126	-2.73	-42.35	1.4	-1.9851	-0.1961	-1.0774	
0.17873	0.027328	0.961604	-2.94	-46.13	1.4	-1.9971	-0.1903	-1.0801	
0.213866	-0.000122	0.974536	-3.99	-44.31	2.1	-2.0017	-0.1948	-1.0786	
0.24766	-0.001464	0.982588	-2.94	-41.65	1.82	-2.0031	-0.189	-1.0845	
0.244732	0.01281	0.968192	-2.38	-42.21	-0.14	-2.0018	-0.1948	-1.0771	
0.253882	0.01708	0.977342	-1.75	-40.6	-1.61	-2.0033	-0.1813	-1.0677	
0.278892	0.02074	0.96563	-2.52	-35.84	-0.84	-2.0173	-0.1856	-1.0524	
0.280844	0.02684	0.966362	-3.15	-32.83	0.77	-2.0309	-0.1799	-1.0536	
0.284748	0.014396	0.958676	-2.8	-29.82	2.52	-2.028	-0.1931	-1.0493	
0.293166	0.013664	0.989664	-3.29	-27.23	3.5	-2.028	-0.1871	-1.0477	
0.306708	0.020862	0.997716	-4.06	-24.36	3.5	-2.0325	-0.1828	-1.0506	
0.317078	0.025498	0.99491	-4.83	-25.2	2.24	-2.0387	-0.1857	-1.0445	
0.312686	0.0183	0.981734	-5.18	-26.53	0	-2.0522	-0.1799	-1.0456	
0.31781	-0.00061	1.003206	-5.6	-28.14	0.35	-2.0509	-0.1842	-1.0351	
0.364414	-0.015006	1.019432	-3.29	-25.06	0.63	-2.0584	-0.1784	-1.0364	
0.366488	-0.010126	1.007842	-0.84	-22.12	-0.49	-2.0602	-0.1812	-1.0259	
0.368684	0.00183	1.012112	1.61	-17.29	-1.33	-2.0601	-0.1931	-1.0351	
0.385886	0.017934	1.00833	-0.28	-10.43	-1.68	-2.06	-0.1798	-1.0334	
0.392474	0.008174	1.012722	-1.68	-4.97	0	-2.0525	-0.1841	-1.0306	
0.397232	-0.000488	1.011136	-2.45	-1.61	0.77	-2.0558	-0.1825	-1.0184	
0.402722	-0.00244	1.027484	-3.29	0.28	0.21	-2.0664	-0.187	-1.0213	
0.409066	-0.002562	1.028948	-3.5	3.29	-1.33	-2.0617	-0.1842	-1.0289	
0.399794	0.008417999	1.001742	-3.99	4.55	-3.5	-2.0616	-0.1738	-1.0272	
0.398208	0.001952	1.000766	-4.34	4.62	-3.43	-2.0616	-0.1798	-1.0303	
0.41297	-0.022204	1.005036	-4.27	7.84	-1.82	-2.0645	-0.1769	-1.0332	
0.40382	-0.027206	0.99857	-3.43	9.59	-1.75	-2.0601	-0.1828	-1.0334	
0.385764	-0.021228	0.989176	-1.75	12.39	-2.8	-2.0554	-0.1784	-1.038	
0.369416	-0.013786	0.975878	-0.91	15.82	-4.34	-2.0494	-0.1797	-1.0351	
0.3599	-0.013664	0.970754	-1.54	18.97	-4.62	-2.0522	-0.1815	-1.0472	
0.358314	-0.01891	0.97539	-2.38	22.05	-4.27	-2.0523	-0.1783	-1.038	
0.343552	-0.01708	0.982466	-2.8	22.96	-4.27	-2.0523	-0.1813	-1.0396	
0.33001	-0.007929999	0.991494	-3.22	23.03	-4.97	-2.0386	-0.1783	-1.0443	
0.319396	-0.007929999	0.990518	-3.29	23.66	-4.48	-2.046	-0.1696	-1.0501	
0.312442	-0.017202	0.999546	-3.78	22.33	-3.71	-2.0461	-0.1814	-1.0488	
0.31781	-0.026108	1.003206	-3.01	24.15	-3.57	-2.0384	-0.174	-1.0503	
0.31415	-0.03233	1.007354	-3.29	24.71	-3.71	-2.0279	-0.1813	-1.0506	
0.30927	-0.03172	1.01199	-2.59	27.72	-3.71	-2.0143	-0.1871	-1.051	
0.302438	-0.03172	1.00528	-1.47	29.47	-3.99	-2.0248	-0.1888	-1.0584	
0.300486	-0.032818	1.006134	-1.75	32.97	-3.85	-2.0214	-0.1727	-1.0703	
0.293532	-0.03172	1.001254	-1.75	37.17	-3.5	-2.0125	-0.1873	-1.0677	
0.280234	-0.023912	1.003206	-2.1	39.41	-3.22	-2.0064	-0.1858	-1.0662	
0.259128	-0.024888	1.006012	-2.03	41.37	-3.01	-2.0064	-0.1813	-1.0662	
0.251808	-0.02867	0.994544	-1.96	43.89	-2.87	-1.9956	-0.1814	-1.077	
0.238388	-0.033062	0.983198	-1.4	42.63	-2.73	-1.9907	-0.1847	-1.0952	
0.22753	-0.03477	0.987956	-0.98	41.44	-2.38	-1.9847	-0.183	-1.0908	
0.208376	-0.031842	0.981368	0.49	42.42	-2.66	-1.9862	-0.1861	-1.0938	
0.189954	-0.035014	0.985516	1.26	44.87	-2.94	-1.9847	-0.1876	-1.0954	
0.177022	-0.044164	0.97722	1.82	48.93	-2.1	-1.9741	-0.1815	-1.0925	
0.147864	-0.038308	0.965264	3.5	49.07	-1.61	-1.9648	-0.1816	-1.1017	
0.121878	-0.027206	0.96624	3.57	50.61	-1.82	-1.9586	-0.1742	-1.1032	
0.111874	-0.020496	0.966606	2.59	54.11	-1.47	-1.9464	-0.1771	-1.1111	
0.084668	-0.022326	0.952332	2.87	55.23	-0.77	-1.939	-0.1873	-1.1084	
0.05368	-0.022692	0.94916	2.8	53.27	-0.21	-1.9328	-0.1784	-1.1083	
0.027328	-0.024278	0.935862	3.85	54.18	0.49	-1.928	-0.1786	-1.122	
-0.008174	-0.015372	0.928542	4.9	52.5	-0.21	-1.916	-0.2022	-1.1272	
-0.02501	-0.012566	0.931348	4.2	52.29	-0.42	-1.9054	-0.1872	-1.1211	
-0.029036	-0.018788	0.931104	4.48	54.32	-0.21	-1.9006	-0.1845	-1.1332	
-0.074542	-0.025864	0.90768	5.74	55.16	-0.07	-1.8899	-0.1933	-1.1411	
-0.116632	-0.019764	0.90402	6.02	56.7	-0.14	-1.8856	-0.1812	-1.1229	
-0.13298	-0.007442	0.899262	5.74	60.13	0.63	-1.8748	-0.1812	-1.1306	
-0.14701	0.000976	0.89548	5.11	62.02	1.82	-1.8656	-0.1783	-1.1353	
-0.182512	0.002562	0.89304	4.62	60.13	3.08	-1.8505	-0.1945	-1.1434	
-0.217282	0.006344	0.884866	4.41	58.1	2.8	-1.8442	-0.1797	-1.1463	
-0.221308	0.019398	0.887916	4.41	57.4	2.59	-1.8366	-0.1782	-1.1479	
-0.235216	0.01952	0.873398	3.64	57.12	3.29	-1.8365	-0.1902	-1.1572	
-0.26413	0.010004	0.867176	3.22	53.34	4.41	-1.8231	-0.1988	-1.1516	
-0.269742	0.011102	0.869128	3.5	51.45	4.55	-1.8138	-0.181	-1.1545	
-0.289506	0.005124	0.857782	0.98	48.58	8.19	-1.8109	-0.1898	-1.1486	
-0.319884	0.013298	0.86864	0.98	47.39	6.09	-1.7955	-0.1824	-1.1579	
-0.335988	0.001952	0.855098	3.85	54.11	5.18	-1.7895	-0.1823	-1.158	
-0.356362	0.001342	0.847534	5.39	54.32	4.9	-1.7743	-0.1852	-1.1598	
-0.377956	0.010736	0.838506	5.67	55.3	4.48	-1.7728	-0.1807	-1.1568	
-0.395158	0.027206	0.83387	6.09	55.16	4.34	-1.7652	-0.1895	-1.1616	
-0.40687	0.037454	0.821304	5.95	53.62	4.06	-1.7516	-0.1731	-1.154	
-0.416142	0.048678	0.805932	5.53	51.8	3.99	-1.7454	-0.1791	-1.1633	
-0.44835	0.048434	0.796294	4.9	51.8	3.92	-1.729	-0.189	-1.1517	
-0.49227	0.044164	0.805078	4.55	50.4	3.92	-1.732	-0.1891	-1.1562	
-0.510204	0.042578	0.813984	4.13	47.95	3.92	-1.703	-0.1891	-1.1688	
-0.526552	0.044042	0.798002	4.06	48.44	3.99	-1.6984	-0.1845	-1.1643	
-0.522282	0.057584	0.785436	5.53	46.9	2.87	-1.6849	-0.1798	-1.1569	
-0.518012	0.063806	0.780312	4.2	46.2	2.52	-1.6971	-0.1888	-1.1584	
-0.544852	0.053924	0.770064	2.38	46.27	4.2	-1.6683	-0.1855	-1.1543	
-0.570472	0.053558	0.75335	2.03	46.41	5.18	-1.6638	-0.1929	-1.1591	
-0.596824	0.060268	0.747372	2.73	45.29	4.55	-1.6669	-0.1825	-1.1497	
-0.594262	0.061976	0.743102	3.64	44.73	2.8	-1.6562	-0.1795	-1.1529	
-0.57401	0.05612	0.740662	6.37	41.79	1.47	-1.635	-0.1941	-1.1581	
-0.594384	0.056242	0.72651	9.59	44.17	-0.77	-1.6366	-0.1881	-1.1504	
-0.624274	0.066124	0.70333	10.22	48.16	-2.52	-1.6335	-0.1956	-1.1612	
-0.651968	0.061122	0.699304	10.99	48.72	-4.55	-1.6123	-0.1909	-1.154	
-0.660508	0.055754	0.70638	11.55	49.42	-5.18	-1.6126	-0.1921	-1.1419	
-0.656116	0.055998	0.691374	11.06	50.82	-4.9	-1.6019	-0.1966	-1.1467	
-0.670146	0.060146	0.674172	11.34	53.13	-4.2	-1.5945	-0.1994	-1.1424	
-0.671488	0.065758	0.659898	11.13	55.65	-3.08	-1.5946	-0.1978	-1.1363	
-0.684664	0.09552599	0.627202	10.57	57.61	-2.38	-1.5733	-0.1947	-1.1397	
-0.724314	0.11529	0.594262	8.4	58.94	-2.59	-1.5735	-0.2019	-1.1322	
-0.750788	0.10614	0.593652	5.81	57.68	-1.19	-1.5597	-0.1945	-1.1369	
-0.752252	0.08662	0.580842	7	54.74	-0.63	-1.5475	-0.2033	-1.1433	
-0.7747	0.061732	0.569984	6.37	53.06	-3.01	-1.5356	-0.2001	-1.1314	
-0.789828	0.070882	0.561322	8.12	50.26	-6.16	-1.5338	-0.2077	-1.1482	
-0.823256	0.103578	0.542534	6.65	48.79	-7.07	-1.5192	-0.2086	-1.1228	
-0.8601	0.11895	0.532164	4.48	46.34	-6.65	-1.5269	-0.2115	-1.1152	
-0.904752	0.101992	0.520452	3.71	45.78	-6.02	-1.5146	-0.2012	-1.1213	
-0.881694	0.07869	0.52033	4.55	39.2	-5.11	-1.5209	-0.2129	-1.1138	
-0.864736	0.073566	0.501054	5.04	39.76	-5.6	-1.4905	-0.2052	-1.1127	
-0.864736	0.069418	0.478362	5.11	40.67	-5.81	-1.4891	-0.2021	-1.1082	
-0.890478	0.08174	0.450424	3.85	40.39	-6.72	-1.4891	-0.2066	-1.1098	
-0.891454	0.09699	0.457012	7.14	37.03	-6.44	-1.4753	-0.1947	-1.1113	
-0.870836	0.101016	0.450912	5.32	34.23	-6.23	-1.4699	-0.2134	-1.0861	
-0.854366	0.091744	0.463234	5.53	32.69	-5.67	-1.4647	-0.199	-1.1116	
-0.88206	0.075518	0.44347	5.32	35	-6.16	-1.4665	-0.2003	-1.0995	
-0.90951	0.081618	0.436028	5.6	34.37	-6.65	-1.4529	-0.206	-1.0984	
-0.924882	0.084668	0.452254	3.99	32.9	-6.58	-1.453	-0.206	-1.0938	
-0.901214	0.064538	0.461404	2.66	32.2	-4.55	-1.4486	-0.2058	-1.0848	
-0.89426	0.05795	0.442616	2.31	36.12	-5.18	-1.4502	-0.2043	-1.0818	
-0.895358	0.066612	0.44652	2.94	39.06	-6.37	-1.4319	-0.1952	-1.082	
-0.876082	0.068198	0.444568	1.4	41.79	-7.14	-1.4336	-0.2055	-1.0776	
-0.86742	0.056242	0.421022	-0.91	46.97	-6.51	-1.4246	-0.1994	-1.0716	
-0.888648	0.031476	0.387594	0.42	49.21	-6.16	-1.4124	-0.1845	-1.07	
-0.913902	0.03233	0.344894	3.85	51.52	-7.14	-1.4066	-0.1931	-1.0597	
-0.963556	0.030988	0.332572	7.07	49.91	-9.03	-1.3946	-0.1974	-1.057	
-0.962824	0.040626	0.281332	10.29	45.22	-11.69	-1.41	-0.1958	-1.0416	
-0.975268	0.049044	0.296948	13.02	45.08	-13.23	-1.3977	-0.1959	-1.0524	
-0.921466	0.04209	0.318786	11.48	38.78	-14.98	-1.3886	-0.2002	-1.0527	
-0.924394	0.02928	0.295484	13.51	42.42	-17.15	-1.3781	-0.1955	-1.0437	
-0.989298	0.028182	0.247782	12.88	45.36	-18.06	-1.3783	-0.2028	-1.0363	
-1.03334	0.053924	0.218258	13.23	44.73	-15.96	-1.3738	-0.1908	-1.0301	
-1.022604	0.051362	0.245098	14.42	38.57	-14.42	-1.3737	-0.1969	-1.0393	
-0.961848	0.060634	0.26596	12.74	37.45	-14.21	-1.3589	-0.2009	-1.023	
-0.903044	0.053192	0.211792	10.15	41.93	-13.93	-1.3515	-0.1976	-1.0125	
-1.032486	0.045384	0.112118	10.78	48.09	-15.19	-1.3589	-0.1874	-1.0152	
-1.090192	0.054656	0.115534	6.93	47.53	-14.42	-1.3515	-0.1931	-1.0079	
-1.079944	0.053192	0.15616	4.27	35.21	-10.92	-1.3471	-0.1945	-1.0035	
-0.987224	0.05612	0.168482	0.21	26.53	-7.77	-1.3366	-0.1927	-0.9931	
-0.967948	0.024034	0.174826	0.14	29.89	-4.55	-1.3367	-0.1942	-0.9931	
-0.97173	0.017202	0.171288	1.12	35.42	-1.26	-1.3336	-0.1853	-0.9899999	
-0.989664	0.0244	0.136396	1.89	33.88	-2.52	-1.3275	-0.1868	-0.9931	
-1.044808	0.027572	0.116876	-0.63	35	-3.08	-1.3292	-0.1822	-0.9824	
-1.04493	0.03721	0.099308	-4.69	32.34	-1.89	-1.3126	-0.1819	-0.9752	
-1.027118	0.041724	0.107604	-7.77	26.32	-2.45	-1.3246	-0.1776	-0.9794	
-0.980026	0.038674	0.098454	-8.96	21.84	-6.44	-1.3189	-0.1818	-0.966	
-1.041392	0.03599	0.064294	-11.41	25.27	-7.84	-1.3217	-0.182	-0.9765	
-1.128256	0.02135	0.019886	-12.6	20.09	-5.46	-1.3159	-0.1787	-0.963	
-1.120692	-0.02684	0.023302	-15.47	15.75	-1.33	-1.3099	-0.1816	-0.9617	
-1.114226	-0.04941	0.023058	-10.5	14.14	-0.56	-1.3053	-0.1742	-0.9601	
-1.068354	-0.0305	0.025376	-6.51	13.86	0.14	-1.3129	-0.1741	-0.9554	
-1.052128	-0.01891	0.006588	-4.76	13.23	1.12	-1.3038	-0.1741	-0.9556	
-1.07238	-0.009028	0.003294	-3.99	12.81	1.75	-1.3055	-0.1695	-0.9479	
-1.05774	-0.008905999	0.000854	-4.06	9.94	1.75	-1.3008	-0.18	-0.9588	
-1.039074	-0.030378	0.00366	-3.36	7.28	1.54	-1.2978	-0.1784	-0.9543	
-1.031388	-0.019642	0.002074	-0.28	5.46	-1.4	-1.3038	-0.1711	-0.9554999	
-1.028704	-0.002684	0.012932	-0.49	4.83	-3.5	-1.3114	-0.1741	-0.9539	
-1.042856	0.007198	0.019032	-0.14	3.78	-3.64	-1.2948	-0.1813	-0.9544	
-1.037244	-0.003538	0.015128	-2.03	1.54	-2.73	-1.2979	-0.1679	-0.9465	
-1.036512	-0.030012	0.02745	-0.98	0.49	-1.47	-1.2994	-0.1709	-0.9481	
-1.045784	-0.01098	0.023912	0.49	0.07	-2.24	-1.3011	-0.1738	-0.942	
-1.057496	0.004392	0.015372	0.28	-1.54	-1.61	-1.3041	-0.1857	-0.9482	
-1.065792	-0.003294	0.02196	-1.19	-3.99	-0.07	-1.3084	-0.1651	-0.9493	
-1.052982	-0.006832	0.020984	-0.77	-6.51	0.28	-1.3087	-0.1797	-0.9405	
-1.061766	-0.004514	0.027328	-0.35	-7.63	-0.35	-1.2978	-0.1754	-0.9527	
-1.052616	0.007686	0.025986	0.14	-9.52	-0.21	-1.2979	-0.1724	-0.9466	
-1.052738	0.01647	0.033184	-0.35	-11.34	-0.35	-1.3085	-0.1769	-0.9495	
-1.056764	0.005124	0.036356	-1.4	-13.3	0.63	-1.3085	-0.174	-0.951	
-1.043832	-0.006954	0.038796	-1.19	-14.98	1.47	-1.3068	-0.1697	-0.9554999	
-1.056642	-0.004026	0.02928	0.84	-15.61	0.63	-1.3128	-0.1757	-0.9615	
-1.064328	0.009272	0.038918	-0.07	-17.5	-0.35	-1.3173	-0.1728	-0.9614	
-1.043466	0.00183	0.043798	-0.91	-20.09	0.63	-1.3112	-0.1713	-0.9645	
-1.04249	0.00122	0.049898	-0.63	-21	0.91	-1.3144	-0.1772	-0.9615	
-1.050908	0.001464	0.056242	-0.35	-21.84	1.05	-1.3143	-0.1848	-0.9707	
-1.036024	0.00122	0.065026	-0.84	-22.47	1.68	-1.3247	-0.1716	-0.9718	
-1.049932	0.00488	0.071126	0.14	-22.82	1.33	-1.3111	-0.1669	-0.9659	
-1.036024	0.00366	0.08357	0	-23.31	0.98	-1.3294	-0.182	-0.9719	
-1.01443	-0.001342	0.09699	-0.21	-23.03	0.63	-1.3261	-0.1821	-0.9825	
-1.030534	0.00732	0.100162	0.77	-21.49	-0.35	-1.3219	-0.1833	-0.969	
-1.045906	0.015494	0.097112	-0.42	-22.05	-0.7	-1.3365	-0.1765	-0.9913	
-1.05713	0.011346	0.10126	-1.82	-24.15	0.07	-1.3335	-0.172	-0.9897	
-1.043222	-0.004514	0.11773	-3.29	-26.25	1.05	-1.3381	-0.1794	-0.9868	
-1.040782	-0.01037	0.123098	-2.1	-27.58	0.84	-1.3304	-0.178	-0.9959	
-1.035658	-0.005856	0.131638	-1.47	-28.91	-0.07	-1.3408	-0.1738	-1.0017	
-1.02541	0.002684	0.14579	-1.96	-29.82	-0.56	-1.3533	-0.184	-0.9896	
-1.028704	0.002074	0.154818	-3.36	-30.73	0.21	-1.3424	-0.1812	-1.0048	
-1.024068	-0.00671	0.166042	-3.85	-31.57	0.7	-1.3483	-0.174	-1.0091	
-1.031022	-0.00915	0.167262	-3.08	-32.2	0.56	-1.3587	-0.1713	-1.0179	
-1.02541	-0.00671	0.176412	-2.24	-33.67	0.63	-1.3695	-0.1742	-1.0087	
-1.026142	-0.002928	0.188856	-2.52	-34.44	0.77	-1.3527	-0.1756	-1.0181	
-1.011258	-0.005856	0.202154	-3.64	-35.56	2.1	-1.3721	-0.1716	-1.0268	
-0.994544	-0.006344	0.211914	-4.48	-36.05	3.29	-1.3706	-0.1701	-1.0298	
-1.013332	-0.013054	0.219966	-5.11	-36.05	4.9	-1.3705	-0.185	-1.0391	
-0.997228	-0.023546	0.230214	-5.04	-37.31	6.02	-1.3811	-0.1747	-1.0342	
-0.99308	-0.018544	0.24034	-2.38	-37.73	6.3	-1.3779	-0.1763	-1.0434	
-0.982344	-0.010492	0.250954	-0.84	-38.29	5.67	-1.3885	-0.1794	-1.0462	
-0.972096	-0.00549	0.272304	-0.35	-38.36	6.16	-1.3931	-0.1705	-1.0399	
-0.967704	-0.001342	0.284138	-0.28	-38.64	6.51	-1.3914	-0.1855	-1.0554	
-0.963434	-0.007198	0.30073	-0.77	-39.62	6.16	-1.3869	-0.1825	-1.0524	
-0.958676	0.001952	0.310246	0.77	-40.81	5.39	-1.4124	-0.183	-1.0655	
-0.94794	0.01342	0.321836	0.42	-41.93	5.32	-1.417	-0.1845	-1.0654	
-0.938546	0.01159	0.33977	-0.21	-43.26	5.67	-1.4276	-0.1905	-1.0684	
-0.944402	0.012932	0.340136	-0.14	-44.94	5.95	-1.4245	-0.1846	-1.0698	
-0.939888	0.019154	0.354166	0.28	-47.39	5.81	-1.4304	-0.1848	-1.0788	
-0.91744	0.03599	0.36539	1.12	-49.7	5.32	-1.4379	-0.1835	-1.0816	
-0.903166	0.045872	0.370148	0.21	-51.03	5.39	-1.4439	-0.191	-1.0862	
-0.906582	0.040748	0.38125	0	-50.75	6.79	-1.4498	-0.1868	-1.0935	
-0.892552	0.03965	0.3965	-0.42	-50.61	7.28	-1.4497	-0.1928	-1.1012	
-0.88755	0.0366	0.430172	-1.54	-51.66	7.49	-1.4633	-0.184	-1.0993	
-0.857782	0.040504	0.438956	-4.97	-53.62	6.79	-1.4678	-0.1901	-1.1069	
-0.842776	0.04392	0.460306	-2.17	-52.22	6.02	-1.4784	-0.1903	-1.1082	
-0.849608	0.02928	0.483852	-5.88	-52.57	7.14	-1.4888	-0.1905	-1.114	
-0.811056	0.017812	0.511058	-6.86	-55.44	8.61	-1.4994	-0.1921	-1.1154	
-0.777018	0.026108	0.545218	-6.16	-57.05	7.14	-1.5086	-0.1921	-1.1106	
-0.760304	0.035014	0.541192	-2.8	-55.37	5.74	-1.5116	-0.1981	-1.1167	
-0.76616	0.044408	0.551074	-4.34	-52.36	6.09	-1.5222	-0.1953	-1.118	
-0.758352	0.049166	0.564738	-3.99	-53.2	7.63	-1.531	-0.1941	-1.1299	
-0.746518	0.054412	0.57706	-3.57	-55.23	7.84	-1.5325	-0.1912	-1.1298	
-0.721508	0.05856	0.589016	-6.3	-56.14	7.91	-1.5491	-0.1973	-1.1357	
-0.68991	0.06039	0.60634	-6.93	-57.05	7.14	-1.5581	-0.19	-1.1353	
-0.681858	0.058194	0.623298	-8.05	-56.49	5.81	-1.5734	-0.2064	-1.1384	
-0.693326	0.06039	0.640134	-9.8	-56.98	4.69	-1.5794	-0.1902	-1.1319	
-0.693326	0.061122	0.65697	-11.9	-60.62	4.13	-1.581	-0.2021	-1.1366	
-0.660508	0.04575	0.681126	-12.39	-64.68	3.5	-1.5988	-0.1891	-1.1466	
-0.625738	0.033672	0.69723	-11.27	-66.5	3.36	-1.6078	-0.1938	-1.1556	
-0.597434	0.026596	0.715042	-10.99	-66.22	3.01	-1.6155	-0.1849	-1.1462	
-0.575962	0.015006	0.748836	-10.71	-65.66	2.24	-1.6274	-0.1821	-1.152	
-0.540216	-0.003416	0.757742	-10.15	-66.57	1.75	-1.6351	-0.1925	-1.152	
-0.504592	-0.016226	0.770186	-9.66	-65.87	2.59	-1.6484	-0.1781	-1.1621	
-0.501786	-0.010492	0.77592	-6.72	-62.79	4.06	-1.6578	-0.1913	-1.1531	
-0.499346	-0.006344	0.781532	-6.79	-62.79	5.18	-1.6713	-0.1752	-1.1541	
-0.47214	-0.001708	0.791048	-6.16	-64.61	5.11	-1.6851	-0.1827	-1.1494	
-0.448472	0.002196	0.793244	-6.09	-64.26	5.04	-1.6895	-0.1828	-1.1569	
-0.444568	0.003782	0.787754	-6.72	-64.05	4.06	-1.6968	-0.1891	-1.172	
-0.443714	0.004758	0.786168	-7.14	-65.94	2.59	-1.703	-0.1846	-1.1657	
-0.411994	-0.002684	0.808006	-6.51	-69.02	2.59	-1.7136	-0.1817	-1.1639	
-0.3904	0.00305	0.816668	-5.53	-69.65	3.08	-1.7258	-0.1877	-1.1623	
-0.374784	0.003416	0.834114	-6.16	-70.35	3.85	-1.7456	-0.1804	-1.1542	
-0.361242	0.001586	0.8296	-5.46	-72.31	3.43	-1.7487	-0.1848	-1.1512	
-0.334646	-0.014152	0.83814	-5.04	-74.76	2.59	-1.7698	-0.1791	-1.1538	
-0.287676	-0.02135	0.853268	-2.24	-75.74	1.89	-1.7757	-0.163	-1.1549	
-0.235338	-0.016104	0.87291	-1.47	-75.67	2.24	-1.8078	-0.1809	-1.1516	
-0.204716	-0.016226	0.887794	-3.15	-74.69	3.78	-1.8137	-0.1751	-1.1544	
-0.197884	-0.022082	0.893284	-3.36	-73.92	4.13	-1.8243	-0.1812	-1.1558	
-0.185074	-0.022326	0.89975	-2.87	-73.08	3.57	-1.8366	-0.1752	-1.1449	
-0.17141	-0.017934	0.909266	-3.57	-73.08	2.8	-1.8533	-0.1739	-1.143	
-0.125416	-0.019276	0.930982	-4.48	-72.94	3.15	-1.8698	-0.1712	-1.1487	
-0.056486	-0.016348	0.946476	-4.55	-73.71	3.64	-1.8763	-0.1738	-1.1274	
-0.020008	-0.006954	0.95648	-5.46	-71.19	4.62	-1.893	-0.1769	-1.1272	
-0.033184	-0.012688	0.947208	-6.65	-67.2	4.69	-1.893	-0.174	-1.1302	
-0.040504	-0.02928	0.936106	-6.93	-66.08	3.43	-1.9142	-0.1712	-1.1267	
-0.002928	-0.036966	0.94306	-6.51	-68.39	1.89	-1.9191	-0.1784	-1.1131	
0.03843	-0.034648	0.941108	-5.18	-66.15	0.84	-1.9282	-0.177	-1.1114	
0.060146	-0.027206	0.955016	-6.44	-62.65	0.49	-1.9357	-0.1726	-1.1127	
0.051606	-0.006344	0.961238	-7.7	-59.78	0.63	-1.9495	-0.1696	-1.1018	
0.084424	0.004026	0.964776	-9.31	-56.28	0.91	-1.9511	-0.1741	-1.1018	
0.141764	0.00244	0.9577	-10.71	-58.24	3.43	-1.9572	-0.1711	-1.0971	
0.165432	-0.005368	0.983808	-13.51	-56.49	5.88	-1.9664	-0.1681	-1.0878	
0.198982	-0.036112	0.981978	-15.54	-53.34	7.98	-1.9756	-0.1666	-1.0846	
0.206424	-0.055998	0.995764	-14.98	-50.75	7.42	-1.9832	-0.1696	-1.0815	
0.22387	-0.052704	0.977586	-14.21	-54.6	8.19	-1.9785	-0.1608	-1.086	
0.244976	-0.060024	0.974902	-15.12	-49.56	9.03	-1.9923	-0.1653	-1.0813	
0.26291	-0.080032	0.98149	-14.7	-48.23	9.1	-2.0211	-0.1581	-1.076	
0.268644	-0.101626	0.976488	-12.46	-43.05	7.7	-2.0075	-0.1431	-1.0685	
0.297558	-0.110288	0.972828	-9.87	-41.58	5.95	-2.0137	-0.1534	-1.064	
0.325374	-0.110288	0.970266	-7.42	-41.86	5.74	-2.0094	-0.1576	-1.0566	
0.328424	-0.10675	0.965264	-5.6	-40.04	5.04	-2.0246	-0.1473	-1.0486	
0.32513	-0.09857599	0.961482	-1.68	-36.47	2.94	-2.0276	-0.1489	-1.0516	
0.339892	-0.086498	0.973194	1.05	-35.77	0.14	-2.0279	-0.1471	-1.0349	
0.356362	-0.082594	0.970876	2.66	-35.49	-1.68	-2.0323	-0.1546	-1.0425	
0.370514	-0.08235	0.976122	3.08	-34.16	-1.47	-2.0371	-0.1456	-1.0287	
0.379176	-0.08601	0.9638	3.92	-32.55	-2.17	-2.049	-0.1488	-1.0391	
0.370148	-0.083204	0.987834	4.55	-29.12	-2.45	-2.0568	-0.1443	-1.0268	
0.375882	-0.075884	0.97783	3.99	-25.69	-2.38	-2.0538	-0.1531	-1.0285	
0.388936	-0.07124799	0.981002	4.62	-24.99	-2.94	-2.0525	-0.1619	-1.0241	
0.408822	-0.065392	0.993812	5.11	-22.61	-3.57	-2.0509	-0.156	-1.0256	
0.424804	-0.061854	0.99735	4.97	-18.34	-3.29	-2.0692	-0.1635	-1.0223	
0.425048	-0.058804	1.002352	4.06	-16.73	-4.13	-2.0616	-0.1559	-1.0163	
0.426024	-0.05612	1.000888	3.64	-13.93	-4.48	-2.0691	-0.1547	-1.0237	
0.432246	-0.044774	0.99979	3.22	-10.01	-3.78	-2.0677	-0.156	-1.0147	
0.440298	-0.03477	0.997228	1.96	-6.16	-3.57	-2.0741	-0.1602	-1.0025	
0.440786	-0.0427	0.994788	0.63	-2.8	-4.48	-2.0664	-0.1588	-1.0087	
0.443836	-0.048068	0.996252	-1.33	0.21	-5.11	-2.0738	-0.156	-1.013	
0.448594	-0.047946	0.98881	-3.08	3.99	-5.11	-2.0693	-0.1633	-1.0148	
0.440298	-0.036356	0.986004	-3.43	7.14	-5.74	-2.0663	-0.1633	-1.0163	
0.435296	-0.030622	0.981978	-4.76	9.59	-5.39	-2.0723	-0.156	-1.0146	
0.433222	-0.038064	0.986248	-5.95	11.83	-4.48	-2.0678	-0.1574	-1.0117	
0.441518	-0.052582	0.981002	-6.16	14.7	-3.57	-2.0736	-0.1577	-1.0237	
0.428586	-0.062342	0.972096	-5.95	17.5	-3.78	-2.0647	-0.1574	-1.0148	
0.414922	-0.069906	0.983808	-5.6	20.72	-4.13	-2.0633	-0.1573	-1.0102	
0.41602	-0.074908	0.979782	-4.97	22.75	-4.27	-2.0736	-0.1591	-1.0237	
0.407846	-0.085766	0.986736	-3.92	25.13	-4.27	-2.0478	-0.1575	-1.0287	
0.394548	-0.088816	0.983564	-2.45	27.86	-4.76	-2.0615	-0.1545	-1.0208	
0.369416	-0.087474	0.984052	-1.47	29.82	-4.9	-2.06	-0.156	-1.0239	
0.364658	-0.083448	0.981002	-0.91	32.27	-4.41	-2.0494	-0.1619	-1.0272	
0.36234	-0.072712	0.984418	-1.19	33.18	-3.36	-2.0551	-0.1563	-1.0406	
0.337574	-0.068198	0.987834	-2.03	36.26	-1.68	-2.0431	-0.168	-1.0426	
0.305244	-0.082716	0.972828	-2.66	39.69	-0.21	-2.0415	-0.1726	-1.0502	
0.27328	-0.08601	0.979172	-2.87	41.86	0.84	-2.0278	-0.162	-1.0458	
0.271816	-0.079178	0.969778	-3.64	45.01	1.61	-2.0201	-0.1635	-1.052	
0.260104	-0.072102	0.970998	-3.92	46.97	3.01	-2.0275	-0.1519	-1.0562	
0.233386	-0.066978	0.96624	-4.83	49	3.99	-2.0245	-0.1608	-1.0594	
0.20496	-0.0671	0.964776	-6.23	50.47	4.27	-2.0095	-0.1575	-1.0506	
0.19093	-0.080276	0.959286	-7.21	50.61	5.32	-2.0092	-0.1578	-1.0672	
0.167506	-0.097722	0.957456	-7.98	49.77	6.65	-1.9954	-0.1504	-1.0719	
0.1464	-0.100162	0.956358	-7.35	52.01	6.23	-1.9738	-0.149	-1.0874	
0.14152	-0.104432	0.95282	-5.88	51.94	6.09	-1.9785	-0.1445	-1.0811	
0.11407	-0.11468	0.954894	-5.32	51.17	5.32	-1.9602	-0.1503	-1.0861	
0.101382	-0.120292	0.958188	-2.24	52.08	3.71	-1.9584	-0.1371	-1.0935	
0.07442	-0.110532	0.960628	0.84	52.78	0.91	-1.9537	-0.1373	-1.1042	
0.06405	-0.106018	0.95953	3.08	52.15	-0.28	-1.9404	-0.1547	-1.0972	
0.056974	-0.107116	0.961848	5.11	50.47	0	-1.9386	-0.149	-1.1062	
0.035624	-0.103212	0.956602	7.56	52.5	0.21	-1.9264	-0.1415	-1.1078	
0.011102	-0.097234	0.94977	9.94	51.66	-0.56	-1.9218	-0.1445	-1.1124	
-0.015982	-0.086986	0.957944	10.92	51.17	-1.68	-1.9083	-0.1397	-1.102	
-0.04087	-0.078202	0.953064	11.76	52.85	-2.66	-1.905	-0.1563	-1.1236	
-0.059292	-0.07137	0.948306	11.55	53.13	-2.94	-1.8915	-0.1591	-1.1208	
-0.06405	-0.074542	0.956358	11.97	53.2	-2.8	-1.9021	-0.1621	-1.1207	
-0.081496	-0.070882	0.945744	12.04	54.25	-2.66	-1.8854	-0.1561	-1.1194	
-0.103334	-0.052826	0.950014	11.41	54.67	-2.38	-1.8761	-0.1725	-1.1395	
-0.114436	-0.043554	0.944646	10.92	55.93	-2.38	-1.8642	-0.1558	-1.1168	
-0.127246	-0.041846	0.935252	9.38	55.65	-1.89	-1.8473	-0.1559	-1.1322	
-0.155428	-0.04636	0.932446	7.42	57.26	-0.14	-1.8471	-0.1724	-1.1491	
-0.180926	-0.035624	0.924394	6.37	58.24	1.75	-1.8426	-0.1664	-1.1446	
-0.204838	-0.015616	0.909876	4.83	59.57	2.73	-1.8307	-0.1631	-1.1312	
-0.229238	-0.013908	0.898896	2.87	60.2	4.55	-1.8215	-0.1556	-1.1312	
-0.246074	-0.023302	0.89243	0.91	60.69	6.58	-1.8077	-0.1587	-1.1436	
-0.268034	-0.035014	0.884134	0.14	61.25	7.63	-1.797	-0.1616	-1.1484	
-0.298412	-0.035502	0.871934	-0.42	61.6	7.63	-1.7924	-0.1676	-1.1561	
-0.335256	-0.034038	0.868152	-0.84	61.32	7.42	-1.7757	-0.1645	-1.1564	
-0.352946	-0.032086	0.852658	-1.12	60.69	7.35	-1.7682	-0.1569	-1.1473	
-0.36112	-0.024888	0.849364	-1.33	59.57	7.56	-1.7604	-0.1555	-1.158	
-0.378688	-0.035136	0.844972	-1.26	59.64	7.21	-1.7469	-0.1582	-1.1523	
-0.404674	-0.041968	0.838506	-1.54	59.57	7.77	-1.7303	-0.161	-1.1481	
-0.422486	-0.036356	0.825452	-0.91	58.94	8.26	-1.7243	-0.1505	-1.1435	
-0.43798	-0.033184	0.818376	-0.21	57.82	8.19	-1.7045	-0.1563	-1.1501	
-0.452986	-0.03416	0.810568	0.42	58.03	8.54	-1.7061	-0.1518	-1.1424	
-0.481412	-0.03294	0.792146	1.4	57.47	8.26	-1.6878	-0.1651	-1.1551	
-0.503006	-0.02745	0.779092	2.52	56.91	7.63	-1.6785	-0.1503	-1.158	
-0.524966	-0.026352	0.762622	3.36	55.65	6.65	-1.668	-0.1501	-1.1537	
-0.544364	-0.031354	0.7625	3.01	55.09	6.37	-1.6726	-0.1546	-1.1522	
-0.56181	-0.035502	0.755912	3.01	53.83	5.95	-1.6514	-0.1529	-1.154	
-0.577304	-0.041602	0.745664	3.15	52.64	5.46	-1.6453	-0.1618	-1.1573	
-0.593286	-0.051972	0.739442	4.13	51.87	4.76	-1.6349	-0.1541	-1.1438	
-0.601338	-0.047458	0.725778	5.46	50.75	3.99	-1.6286	-0.1527	-1.1545	
-0.605486	-0.036478	0.72285	6.3	50.4	3.22	-1.6303	-0.157	-1.147	
-0.611342	-0.022082	0.714066	6.93	51.38	2.52	-1.6103	-0.1452	-1.1592	
-0.627446	0.008174	0.703818	7.49	52.01	1.96	-1.6048	-0.164	-1.14	
-0.635864	0.043798	0.692838	6.72	52.29	1.68	-1.6063	-0.1551	-1.1368	
-0.659532	0.044896	0.679174	5.18	52.85	2.38	-1.5851	-0.1638	-1.1404	
-0.684908	0.02135	0.658556	4.55	54.25	3.08	-1.582	-0.1549	-1.1388	
-0.690154	0.002318	0.622322	4.62	52.78	3.43	-1.576	-0.1578	-1.1374	
-0.702842	-0.026962	0.603534	7.07	53.13	2.59	-1.5656	-0.153	-1.124	
-0.744078	-0.044164	0.567788	12.25	53.34	0.7	-1.5487	-0.162	-1.1396	
-0.77775	-0.030378	0.558516	17.92	52.22	-1.75	-1.5504	-0.1633	-1.129	
-0.796294	-0.005612	0.542412	21.35	49.91	-3.57	-1.5368	-0.1676	-1.1308	
-0.796538	0.023302	0.537898	22.89	48.93	-5.18	-1.5292	-0.172	-1.1341	
-0.795562	0.028182	0.541802	23.03	49.7	-6.51	-1.525	-0.1806	-1.1222	
-0.778238	0.036112	0.538142	25.2	49.42	-8.82	-1.5189	-0.1761	-1.1177	
-0.790682	0.050264	0.534116	24.5	52.64	-11.34	-1.5054	-0.1729	-1.1134	
-0.83448	0.05246	0.515572	22.19	57.33	-10.08	-1.4994	-0.1832	-1.1122	
-0.84668	0.03538	0.489708	20.58	57.33	-7.77	-1.4859	-0.1814	-1.1064	
-0.832772	0.038918	0.461526	19.18	56.35	-8.05	-1.4797	-0.1755	-1.1094	
-0.853268	0.0366	0.4209	16.24	59.36	-8.47	-1.4784	-0.1798	-1.1004	
-0.9455	0.043188	0.390766	15.4	63.7	-8.75	-1.4617	-0.1797	-1.1023	
-0.991982	0.054778	0.38796	14.42	60.27	-8.96	-1.4558	-0.1794	-1.0933	
-0.964776	0.053192	0.375638	11.62	53.2	-6.72	-1.447	-0.1925	-1.0846	
-0.910364	0.043554	0.376858	9.38	49.63	-4.62	-1.4348	-0.1879	-1.0848	
-0.922808	0.054656	0.337452	9.38	52.85	-5.46	-1.4259	-0.1847	-1.0743	
-0.964044	0.07503	0.313662	7.91	52.99	-6.16	-1.4186	-0.1874	-1.0624	
-1.00101	0.080886	0.293776	4.76	51.1	-4.06	-1.4233	-0.1858	-1.0547	
-0.993812	0.071736	0.298778	1.75	43.96	1.05	-1.4019	-0.1857	-1.0612	
-0.967704	0.069662	0.295118	0.28	40.39	1.47	-1.3976	-0.19	-1.0523	
-0.963678	0.06649	0.290238	-0.28	40.04	2.31	-1.3946	-0.1824	-1.0462	
-0.970876	0.057828	0.270962	-1.19	37.8	3.15	-1.3962	-0.1794	-1.04	
-0.994788	0.030012	0.253028	0	37.1	3.64	-1.3782	-0.1925	-1.0376	
-1.019432	0.031598	0.24522	2.8	34.72	2.1	-1.3749	-0.1748	-1.0404	
-1.022726	0.053192	0.241804	4.27	30.59	-0.14	-1.3691	-0.182	-1.0346	
-0.99857	0.051362	0.259128	2.52	26.6	0.49	-1.3888	-0.1896	-1.0358	
-0.958554	0.047458	0.2745	2.24	24.92	0	-1.3662	-0.1878	-1.0302	
-0.930372	0.058072	0.267424	2.45	26.53	-3.36	-1.3663	-0.1892	-1.0257	
-0.94794	0.071492	0.2379	1.96	29.19	-6.02	-1.3589	-0.1919	-1.0168	
-0.995032	0.056608	0.222894	-1.12	30.87	-4.13	-1.3648	-0.1862	-1.0226	
-1.001254	0.046604	0.19581	-1.82	29.33	-3.64	-1.3619	-0.1905	-1.0182	
-1.01443	0.044408	0.19154	-1.26	29.26	-4.48	-1.3604	-0.1874	-1.0137	
-0.990762	0.044042	0.177388	-1.19	28.7	-4.62	-1.3544	-0.1948	-1.0185	
-1.003206	0.041846	0.180804	-0.63	29.4	-6.3	-1.341	-0.1855	-1.0004	
-0.984784	0.04819	0.168848	-0.35	28.7	-6.44	-1.3394	-0.1826	-1.0034	
-0.986248	0.045506	0.140666	-1.96	29.61	-6.51	-1.3517	-0.1841	-0.9941	
-1.021872	0.04026	0.116998	-2.03	32.48	-7.14	-1.3259	-0.1749	-0.9914	
-1.042856	0.033184	0.09467199	-2.52	31.57	-5.95	-1.3318	-0.1721	-0.9958	
-1.066524	0.03294	0.116022	-2.1	29.54	-4.9	-1.329	-0.1734	-0.9868	
-1.044686	0.021106	0.11773	-0.28	25.76	-2.38	-1.3381	-0.1735	-0.9867	
-1.02236	0.03477	0.127246	1.19	24.15	-2.8	-1.3322	-0.1747	-0.9762	
-1.006012	0.041724	0.113216	1.05	22.89	-2.66	-1.3262	-0.1776	-0.9748999	
-1.045784	0.035868	0.089548	-0.07	22.75	-1.82	-1.3187	-0.1775	-0.9735	
-1.066646	0.018788	0.071736	-1.12	19.32	-0.77	-1.3232	-0.1746	-0.9734	
-1.06689	0.011346	0.058438	0.07	16.73	0	-1.3188	-0.1729	-0.9659	
-1.067378	0.01586	0.057706	1.96	13.79	0.49	-1.3128	-0.1743	-0.9645	
-1.040782	0.016592	0.063562	2.73	12.32	0.35	-1.3204	-0.1788	-0.9659	
-1.028094	0.028792	0.061854	2.24	11.55	-0.7	-1.3112	-0.1669	-0.9614	
-1.028216	0.031964	0.065148	0.14	11.06	-1.19	-1.3082	-0.1772	-0.9646	
-1.014918	0.023058	0.056242	-1.75	10.78	-0.49	-1.3144	-0.1772	-0.9585	
-1.033584	0.021594	0.047092	-1.26	11.2	-0.98	-1.3156	-0.167	-0.9687999	
-1.041636	0.019642	0.050752	-1.33	10.71	-0.91	-1.3116	-0.1755	-0.9479	
-1.026142	0.014274	0.045628	-0.91	10.5	-0.07	-1.3128	-0.1669	-0.9598	
-1.03456	0.024278	0.043798	0.42	10.64	0.35	-1.3083	-0.1756	-0.9586	
-1.046394	0.021228	0.040748	0.28	9.87	0.63	-1.313	-0.1785	-0.9525	
-1.05408	0.025376	0.041114	-0.28	8.61	0.77	-1.31	-0.186	-0.9587	
-1.056032	0.028548	0.034526	-0.14	6.72	1.05	-1.3054	-0.174	-0.951	
-1.071038	0.022326	0.028426	0	5.46	0.91	-1.2947	-0.177	-0.9588	
-1.050664	0.02684	0.026596	0	3.43	0.42	-1.301	-0.1739	-0.9466	
-1.0553	0.02562	0.020618	-0.14	2.45	0.56	-1.3009	-0.1784	-0.9542	
-1.061034	0.024644	0.01708	-0.28	0.84	0.42	-1.298	-0.1678	-0.9405	
-1.048712	0.019886	0.01769	-0.91	-0.77	1.12	-1.2998	-0.1721	-0.9284	
-1.042002	0.024644	0.019276	-0.42	-1.96	0.84	-1.3039	-0.1696	-0.951	
-1.041026	0.030988	0.020008	-0.35	-2.94	0.91	-1.3025	-0.1739	-0.945	
-1.048346	0.029646	0.018544	-0.7	-4.34	1.68	-1.307	-0.174	-0.948	
-1.035902	0.02745	0.026596	-1.19	-5.88	1.96	-1.3129	-0.1786	-0.9585	
-1.039196	0.030378	0.03294	-1.12	-6.3	1.89	-1.2978	-0.1755	-0.9572	
-1.047492	0.031964	0.036112	-1.54	-6.65	1.82	-1.3024	-0.1829	-0.9558	
-1.042002	0.034892	0.035746	-1.75	-7.77	2.38	-1.2934	-0.1709	-0.9467	
-1.039196	0.030622	0.041114	-3.29	-9.1	2.59	-1.3084	-0.1682	-0.9524	
-1.043466	0.018422	0.045872	-3.57	-9.73	3.01	-1.3083	-0.1742	-0.96	
-1.050786	0.028792	0.044408	-1.82	-10.29	2.52	-1.3128	-0.1683	-0.9583	
-1.045296	0.050142	0.045384	-2.1	-11.41	2.1	-1.3113	-0.1713	-0.9599	
-1.041148	0.046604	0.050386	-4.27	-12.25	3.29	-1.3159	-0.1712	-0.9553	
-1.042246	0.029036	0.053924	-4.83	-13.23	3.78	-1.3053	-0.1816	-0.9633	
-1.037244	0.030866	0.05551	-3.64	-13.93	3.08	-1.3145	-0.1667	-0.9507	
-1.044442	0.037332	0.057706	-3.01	-14.77	2.66	-1.3128	-0.1773	-0.9645	
-1.049444	0.045506	0.05978	-3.57	-15.75	2.73	-1.3203	-0.17	-0.9658	
-1.041514	0.040382	0.072468	-4.13	-17.01	3.22	-1.3175	-0.1801	-0.9554	
-1.02846	0.038918	0.078324	-3.29	-18.13	3.22	-1.3279	-0.1744	-0.9626999	
-1.028948	0.037698	0.091134	-2.94	-18.62	2.52	-1.3188	-0.1758	-0.9644	
-1.030046	0.042212	0.097112	-2.38	-19.88	1.89	-1.3217	-0.1805	-0.975	
-1.025166	0.04331	0.104676	-2.24	-21.35	1.61	-1.3262	-0.1821	-0.9809999	
-1.020774	0.04026	0.116266	-2.31	-22.4	1.19	-1.3308	-0.1836	-0.9779	
-1.01626	0.038064	0.126514	-2.03	-23.03	0.98	-1.3276	-0.1777	-0.9839	
-1.018456	0.036234	0.132736	-1.4	-23.52	0.7	-1.3274	-0.1689	-0.9868	
-1.021018	0.035868	0.14152	-0.77	-23.73	-0.28	-1.3366	-0.1779	-0.9852	
-1.025166	0.041236	0.142008	1.12	-24.36	0.35	-1.3276	-0.1881	-0.9886	
-1.01443	0.044408	0.149328	1.54	-25.48	-0.56	-1.3517	-0.1781	-0.9895	
-1.016626	0.04758	0.158966	2.03	-25.69	-1.4	-1.347	-0.1841	-0.9988	
-1.009428	0.053192	0.1708	1.54	-26.11	-1.33	-1.3471	-0.1796	-0.9957	
-1.00345	0.04941	0.180804	-0.21	-26.32	-0.77	-1.3422	-0.1695	-1.0092	
-0.990274	0.045994	0.193858	0.49	-27.09	-0.63	-1.3438	-0.1768	-1.0062	
-0.990152	0.047092	0.20984	0.49	-26.67	-0.28	-1.3513	-0.1814	-1.0137	
-0.981734	0.046482	0.219478	-0.28	-26.95	-0.14	-1.3545	-0.1813	-1.0031	
-0.97905	0.03782	0.230458	-1.26	-26.88	0.63	-1.3619	-0.1845	-1.0121	
-0.979782	0.029036	0.242536	-0.84	-27.02	0.84	-1.3587	-0.1816	-1.0196	
-0.970754	0.033916	0.24705	0.91	-27.58	-0.42	-1.3664	-0.1846	-1.018	
-0.980148	0.044164	0.260592	1.33	-27.86	-1.26	-1.3677	-0.1863	-1.0316	
-0.965386	0.048312	0.272914	0.35	-28.56	-0.7	-1.3631	-0.1848	-1.0302	
-0.952576	0.039284	0.282064	-0.7	-28.56	0.42	-1.3753	-0.1849	-1.0269	
-0.959774	0.022692	0.292068	-0.91	-27.93	1.4	-1.3781	-0.1836	-1.0374	
-0.949404	0.02196	0.289628	0.28	-28.07	1.61	-1.3793	-0.178	-1.0509	
-0.967216	0.031964	0.297314	3.64	-26.6	1.68	-1.3919	-0.1896	-1.0358	
-0.963312	0.048922	0.313784	3.64	-27.16	2.03	-1.387	-0.1868	-1.0479	
-0.948672	0.058194	0.323788	1.96	-27.44	3.29	-1.39	-0.1824	-1.0478	
-0.944524	0.052094	0.34343	0.35	-27.72	4.97	-1.3777	-0.178	-1.0555	
-0.9394	0.047458	0.348676	0	-28.42	4.83	-1.4037	-0.181	-1.0445	
-0.92903	0.049532	0.357948	-2.17	-28.49	4.06	-1.3977	-0.1884	-1.0477	
-0.93757	0.060878	0.351238	0.42	-28.49	3.29	-1.4038	-0.1988	-1.0508	
-0.927444	0.05612	0.365878	-2.31	-29.61	1.96	-1.4065	-0.1872	-1.0581	
-0.903166	0.05246	0.381982	-1.47	-28.91	2.59	-1.414	-0.1904	-1.0671	
-0.90219	0.059902	0.40565	-2.17	-27.86	1.89	-1.4277	-0.1949	-1.0669	
-0.892796	0.05429	0.404186	-2.24	-27.58	0.98	-1.4214	-0.1891	-1.0745	
-0.880474	0.058194	0.415776	-2.31	-27.02	0.49	-1.4259	-0.1773	-1.0727	
-0.876936	0.071614	0.427976	-2.31	-25.13	-1.33	-1.4183	-0.1846	-1.0745	
-0.88633	0.08601	0.434686	-4.48	-24.43	-1.33	-1.4349	-0.1879	-1.0833	
-0.882914	0.077714	0.444324	-7.21	-24.99	-0.84	-1.4393	-0.1777	-1.0845	
-0.870348	0.06039	0.453962	-6.79	-25.2	-0.77	-1.435	-0.1833	-1.0741	
-0.875472	0.059292	0.454328	-4.06	-24.57	-2.24	-1.438	-0.2072	-1.0881	
-0.88023	0.06161	0.460916	-3.71	-25.27	-2.94	-1.4408	-0.188	-1.0877	
-0.872056	0.064416	0.467992	-2.03	-26.39	-3.57	-1.4606	-0.1837	-1.0827	
-0.872544	0.072834	0.484462	-2.66	-26.32	-3.85	-1.4467	-0.1868	-1.0951	
-0.857904	0.068198	0.491416	-3.29	-26.46	-4.13	-1.4589	-0.1854	-1.0949	
-0.841556	0.06039	0.497638	-3.99	-26.74	-4.97	-1.4632	-0.1707	-1.0975	
-0.834358	0.056242	0.50935	-1.61	-25.41	-5.46	-1.4709	-0.196	-1.1039	
-0.850218	0.05185	0.514108	-1.89	-24.5	-7.07	-1.4603	-0.1825	-1.0948	
-0.834846	0.052094	0.527772	-0.21	-26.11	-8.68	-1.4678	-0.1916	-1.1084	
-0.820084	0.053924	0.550952	-0.91	-26.6	-10.78	-1.4783	-0.1903	-1.1112	
-0.794098	0.03721	0.570716	-3.08	-27.93	-11.06	-1.4831	-0.1946	-1.1006	
-0.781166	0.008784	0.584624	-5.18	-27.44	-9.17	-1.4845	-0.1798	-1.1003	
-0.79361	-0.019886	0.593652	-7.14	-24.22	-6.58	-1.4903	-0.1712	-1.1091	
-0.790316	-0.042578	0.606706	-7.14	-23.03	-3.85	-1.5055	-0.1772	-1.1074	
-0.770674	-0.055388	0.62037	-5.18	-23.66	-2.1	-1.5038	-0.1729	-1.1149	
-0.748348	-0.054046	0.62586	-3.92	-22.12	-0.84	-1.5039	-0.1684	-1.1103	
-0.75579	-0.044774	0.634156	-3.57	-18.2	1.4	-1.5068	-0.1759	-1.1164	
-0.758962	-0.05246	0.637084	-3.01	-16.31	4.97	-1.5052	-0.17	-1.1179	
-0.754204	-0.057462	0.646722	-1.19	-15.33	6.23	-1.4993	-0.1758	-1.1135	
-0.747616	-0.05551	0.644404	1.19	-13.93	6.16	-1.5035	-0.1702	-1.1285	
-0.7503	-0.048434	0.648796	2.87	-11.83	5.95	-1.5054	-0.1803	-1.1135	
-0.750178	-0.035624	0.65697	4.76	-10.78	5.74	-1.5192	-0.1848	-1.1088	
-0.737612	-0.030134	0.661972	7	-10.36	5.81	-1.5083	-0.1819	-1.1226	
-0.725656	-0.0244	0.653676	9.17	-9.66	5.6	-1.5189	-0.1821	-1.1239	
-0.734318	-0.018788	0.65392	9.59	-7.84	7	-1.5205	-0.188	-1.1239	
-0.75335	-0.011346	0.658434	10.36	-5.74	7.35	-1.519	-0.1924	-1.1225	
-0.750666	0.00183	0.655384	11.27	-5.18	5.6	-1.5219	-0.1821	-1.1253	
-0.740052	0.000854	0.65209	10.36	-4.06	6.02	-1.5265	-0.185	-1.1208	
-0.754082	0.000244	0.651358	10.99	-1.75	6.44	-1.5251	-0.1998	-1.1241	
-0.763232	-0.000854	0.643428	12.53	-1.19	6.65	-1.5116	-0.1907	-1.1151	
-0.75274	0.009272	0.641598	13.93	-1.05	7.07	-1.5191	-0.1982	-1.1196	
-0.755058	0.024034	0.642818	14.28	-0.07	8.12	-1.5251	-0.2014	-1.1271	
-0.757254	0.029524	0.640622	14.14	0.35	10.15	-1.5253	-0.1982	-1.115	
-0.756522	0.030622	0.63867	14.21	0.35	12.46	-1.5162	-0.1996	-1.1152	
-0.760548	0.033062	0.628544	15.26	1.61	14.56	-1.5252	-0.2087	-1.1242	
-0.774212	0.038674	0.625494	15.96	2.45	16.31	-1.5222	-0.2086	-1.1228	
-0.77592	0.039284	0.618784	16.94	2.38	18.27	-1.5252	-0.2013	-1.1211	
-0.78629	0.050386	0.610366	17.36	2.59	20.51	-1.5238	-0.2101	-1.1197	
-0.784948	0.05978	0.60634	16.73	2.1	22.82	-1.5149	-0.2158	-1.114	
-0.788364	0.057584	0.598288	17.43	1.19	25.41	-1.5224	-0.2278	-1.1246	
-0.797026	0.068198	0.596214	19.25	0.21	28.14	-1.5238	-0.2219	-1.123	
-0.781654	0.098088	0.590846	20.3	-0.35	29.68	-1.5133	-0.2262	-1.1218	
-0.783728	0.115046	0.590846	19.95	-0.49	29.89	-1.5211	-0.2365	-1.1157	
-0.786778	0.126636	0.59597	20.02	-0.56	30.73	-1.5256	-0.2396	-1.1218	
-0.777018	0.13603	0.59475	20.37	-0.7	32.69	-1.521	-0.2425	-1.1219	
-0.773602	0.137372	0.580964	21.84	-0.49	33.18	-1.5211	-0.2558	-1.1237	
-0.774578	0.1464	0.581574	23.8	0.49	32.48	-1.5287	-0.2544	-1.122	
-0.79239	0.177144	0.570716	26.25	1.96	31.99	-1.5288	-0.2602	-1.1191	
-0.80398	0.197152	0.564128	24.36	2.8	32.69	-1.523	-0.2748	-1.1149	
-0.783118	0.198006	0.567422	26.81	1.12	35.63	-1.5198	-0.272	-1.1225	
-0.748836	0.19947	0.570228	31.36	-0.49	35.07	-1.5291	-0.2748	-1.1118	
-0.73932	0.230702	0.56974	35.07	-0.42	31.78	-1.5277	-0.2941	-1.1167	
-0.741394	0.271572	0.556198	36.82	-0.07	30.38	-1.5307	-0.2926	-1.1166	
-0.757376	0.298656	0.553514	35.77	0.77	31.71	-1.5293	-0.3015	-1.1153	
-0.762744	0.307806	0.544486	36.26	0.07	33.18	-1.5355	-0.3059	-1.1107	
-0.767868	0.30866	0.52704	38.29	-0.77	32.69	-1.5296	-0.3191	-1.111	
-0.764452	0.31781	0.528748	41.86	-1.75	31.99	-1.5297	-0.3264	-1.1097	
-0.756766	0.353678	0.52826	44.87	-3.22	32.41	-1.5299	-0.3426	-1.1084	
-0.74481	0.413336	0.521428	43.75	-3.92	31.99	-1.5436	-0.3412	-1.1051	
-0.73383	0.45933	0.518866	41.23	-4.48	32.69	-1.5377	-0.3588	-1.101	
-0.72346	0.47458	0.512644	37.52	-4.9	33.18	-1.5528	-0.3531	-1.1052	
-0.716018	0.466284	0.50813	35.14	-4.76	34.23	-1.544	-0.3661	-1.095	
-0.706014	0.472994	0.518134	35.14	-5.74	34.65	-1.544	-0.3765	-1.0982	
-0.716262	0.51179	0.514718	34.37	-5.04	33.67	-1.5486	-0.3825	-1.0997	
-0.714676	0.525576	0.517646	31.78	-5.6	32.13	-1.5611	-0.3957	-1.0892	
-0.676368	0.54351	0.505446	29.68	-8.47	29.96	-1.5547	-0.3855	-1.1012	
-0.66917	0.547048	0.497028	26.74	-7.63	28.91	-1.5579	-0.4002	-1.0984	
-0.672464	0.547658	0.496906	24.99	-7.35	28.35	-1.5641	-0.4017	-1.0937	
-0.657336	0.562664	0.49959	23.8	-9.03	28	-1.5643	-0.4089	-1.0878	
-0.656604	0.602802	0.505812	22.75	-8.47	26.32	-1.5629	-0.4088	-1.0818	
-0.66368	0.61976	0.497516	20.09	-8.75	25.76	-1.5704	-0.4268	-1.0941	
-0.651846	0.59658	0.493246	18.69	-9.66	25.62	-1.5779	-0.4254	-1.0939	
-0.63318	0.588772	0.490196	20.58	-9.73	24.78	-1.5779	-0.421	-1.0953	
-0.627934	0.602436	0.48068	23.1	-9.59	23.38	-1.5888	-0.4446	-1.0895	
-0.64172	0.622322	0.475922	24.01	-9.66	21.42	-1.5888	-0.4342	-1.0848	
-0.635986	0.625738	0.473604	23.31	-11.55	21	-1.583	-0.4353	-1.0698	
-0.61061	0.634034	0.480436	23.45	-13.44	20.72	-1.5935	-0.4504	-1.0835	
-0.602924	0.665998	0.489464	23.24	-13.44	19.46	-1.6027	-0.4386	-1.0755	
-0.608536	0.696376	0.486414	20.09	-13.23	17.71	-1.5964	-0.4446	-1.0879	
-0.58987	0.693326	0.493612	15.05	-14.14	18.41	-1.6042	-0.4595	-1.088	
-0.567544	0.69601	0.493978	13.02	-14.63	17.85	-1.6029	-0.4547	-1.0713	
-0.571936	0.696742	0.498614	12.32	-11.76	18.2	-1.6151	-0.4682	-1.0774	
-0.556076	0.7015	0.502762	11.9	-11.69	20.16	-1.615	-0.4563	-1.0726	
-0.537166	0.699548	0.512034	11.97	-9.66	21.28	-1.6135	-0.4578	-1.0742	
-0.51789	0.691008	0.506788	11.83	-7.63	19.95	-1.615	-0.4713	-1.0819	
-0.505812	0.682224	0.495686	12.81	-5.67	17.36	-1.6361	-0.4537	-1.0767	
-0.528382	0.703208	0.496052	13.09	-3.15	14.77	-1.6335	-0.4712	-1.0665	
-0.566202	0.720166	0.493246	11.62	-1.75	12.81	-1.6347	-0.467	-1.0785	
-0.54107	0.718336	0.497394	10.29	-3.78	10.78	-1.6287	-0.4624	-1.0725	
-0.513498	0.724558	0.505812	9.24	-3.15	8.82	-1.6289	-0.4712	-1.0696	
-0.53192	0.743956	0.503128	7.77	-1.26	6.58	-1.641	-0.4683	-1.0693	
-0.546072	0.743224	0.498248	5.18	-1.05	5.74	-1.626	-0.4844	-1.0669	
-0.534848	0.741638	0.49837	3.36	-1.47	4.2	-1.6319	-0.4682	-1.0695	
-0.518012	0.74054	0.497028	1.89	-0.98	2.24	-1.635	-0.4846	-1.0727	
-0.523014	0.741516	0.48983	0.42	0.28	1.05	-1.6242	-0.4742	-1.0758	
-0.529724	0.73993	0.489342	-0.28	0.63	0	-1.6289	-0.4801	-1.0743	
-0.534726	0.746152	0.489708	-1.82	0.77	-1.54	-1.6348	-0.4654	-1.0724	
-0.529724	0.73627	0.48678	-3.5	1.19	-2.59	-1.6349	-0.4728	-1.074	
-0.531676	0.73078	0.49105	-3.71	1.61	-3.85	-1.6366	-0.4801	-1.0681	
-0.528748	0.734928	0.485316	-4.62	1.75	-5.67	-1.638	-0.4772	-1.0695	
-0.528382	0.735172	0.47946	-5.53	2.87	-6.93	-1.6288	-0.4757	-1.0742	
-0.535092	0.741638	0.483364	-6.3	3.5	-8.26	-1.632	-0.483	-1.0713	
-0.53619	0.742614	0.477264	-8.4	3.92	-8.96	-1.6424	-0.4654	-1.0707	
-0.543022	0.731756	0.474458	-9.59	4.48	-10.01	-1.6242	-0.4653	-1.0741	
-0.552416	0.726632	0.477142	-10.64	4.69	-10.92	-1.6197	-0.4652	-1.0697	
-0.55449	0.73322	0.478484	-11.69	4.9	-11.83	-1.6304	-0.4637	-1.0634	
-0.557662	0.729438	0.479948	-13.79	4.62	-12.53	-1.612	-0.4593	-1.0727	
-0.559126	0.707722	0.47946	-15.82	4.62	-12.74	-1.6257	-0.4668	-1.0741	
-0.563884	0.691008	0.484096	-15.89	4.76	-14.21	-1.6225	-0.4669	-1.0832	
-0.571326	0.693692	0.487634	-16.1	4.27	-16.66	-1.6059	-0.4607	-1.0744	
-0.571448	0.684054	0.48983	-17.71	3.92	-18.27	-1.6179	-0.4535	-1.0785	
-0.571326	0.672952	0.498614	-17.85	3.85	-19.6	-1.6012	-0.4505	-1.0818	
-0.580232	0.662216	0.5002	-18.34	4.13	-20.79	-1.6042	-0.4475	-1.0787	
-0.586454	0.65148	0.50142	-18.13	4.06	-21.91	-1.6072	-0.4475	-1.0786	
-0.598898	0.645502	0.5063	-18.48	4.62	-23.52	-1.6148	-0.4446	-1.0769	
-0.607316	0.638304	0.507398	-18.9	4.13	-24.5	-1.598	-0.4401	-1.0817	
-0.60451	0.619638	0.511302	-19.11	3.99	-25.27	-1.604	-0.4239	-1.0798	
-0.61366	0.605486	0.512888	-19.25	4.34	-26.32	-1.6039	-0.4329	-1.086	
-0.61915	0.601948	0.523014	-19.46	4.41	-27.51	-1.59	-0.4181	-1.092	
-0.61915	0.604754	0.528992	-20.79	4.62	-28.91	-1.5858	-0.4222	-1.0771	
-0.63135	0.596824	0.527406	-23.24	4.62	-29.89	-1.5931	-0.4226	-1.0921	
-0.639402	0.565958	0.524112	-25.34	4.34	-30.24	-1.5913	-0.4109	-1.1009	
-0.640622	0.55083	0.528138	-24.57	3.92	-31.36	-1.5779	-0.4135	-1.0877	
-0.650504	0.54046	0.532408	-24.64	4.06	-32.34	-1.5761	-0.4064	-1.1027	
-0.66124	0.525332	0.542046	-25.62	3.57	-32.34	-1.5884	-0.3974	-1.0887	
-0.667096	0.5063	0.54107	-26.74	3.08	-32.62	-1.5685	-0.3944	-1.095	
-0.667706	0.483608	0.554246	-27.02	3.01	-32.2	-1.5682	-0.3753	-1.1007	
-0.675636	0.463356	0.55632	-27.51	3.15	-32.34	-1.5652	-0.3827	-1.104	
-0.687714	0.455304	0.556442	-26.74	3.5	-33.39	-1.5651	-0.3738	-1.1023	
-0.700646	0.436272	0.554246	-28.42	3.22	-35	-1.565	-0.365	-1.1036	
-0.701256	0.420412	0.559004	-27.16	3.15	-35.77	-1.5636	-0.3694	-1.1037	
-0.71675	0.415288	0.55815	-25.83	3.43	-36.12	-1.5391	-0.3679	-1.1133	
-0.724436	0.393816	0.556686	-25.69	3.08	-36.61	-1.5529	-0.3589	-1.0992	
-0.720044	0.373808	0.563762	-25.41	2.52	-37.03	-1.5528	-0.3516	-1.1036	
-0.724924	0.369904	0.56425	-24.22	2.73	-38.15	-1.5478	-0.3371	-1.1201	
-0.738588	0.360632	0.56242	-24.43	3.08	-38.71	-1.5585	-0.3311	-1.1107	
-0.739442	0.341112	0.562786	-26.25	2.66	-38.71	-1.5434	-0.322	-1.1048	
-0.735416	0.310612	0.567666	-28.42	2.1	-38.15	-1.5492	-0.3119	-1.1105	
-0.737856	0.295728	0.572546	-28.21	1.89	-38.36	-1.5367	-0.3076	-1.1273	
-0.75701	0.28487	0.57462	-27.86	2.03	-38.57	-1.5461	-0.3135	-1.1182	
-0.758718	0.279868	0.578646	-26.74	2.03	-39.69	-1.5368	-0.3002	-1.1211	
-0.751154	0.26352	0.585234	-28.07	1.68	-40.04	-1.5384	-0.303	-1.1166	
-0.751276	0.246928	0.584502	-28.35	1.82	-40.46	-1.5308	-0.2955	-1.1121	
-0.763598	0.22936	0.580964	-28.56	2.59	-40.46	-1.5292	-0.2822	-1.1119	
-0.771772	0.214354	0.574498	-28.7	1.47	-40.18	-1.5322	-0.2868	-1.118	
-0.772016	0.19825	0.576816	-28.91	1.47	-38.22	-1.5318	-0.2707	-1.1283	
-0.774212	0.185806	0.582306	-27.72	1.33	-37.45	-1.5261	-0.2704	-1.1117	
-0.770918	0.16836	0.586088	-28	0.91	-35.98	-1.5273	-0.2602	-1.1191	
-0.763476	0.148352	0.58865	-28.28	0.63	-34.44	-1.5211	-0.2603	-1.1298	
-0.773114	0.1281	0.588528	-28.07	1.33	-33.11	-1.5257	-0.2544	-1.122	
-0.780312	0.124074	0.590236	-27.23	2.03	-32.48	-1.5241	-0.244	-1.1219	
-0.782264	0.118462	0.590724	-28.07	1.12	-32.06	-1.5268	-0.2428	-1.1354	
-0.784338	0.10065	0.588406	-29.12	1.89	-32.27	-1.5149	-0.2292	-1.1203	
-0.774578	0.071126	0.598532	-32.41	1.05	-31.5	-1.5223	-0.2205	-1.126	
-0.772138	0.046848	0.589504	-32.55	1.75	-31.22	-1.5238	-0.216	-1.1214	
-0.780556	0.038308	0.593042	-32.13	2.73	-32.97	-1.5207	-0.2101	-1.1228	
-0.79788	0.032208	0.592432	-34.44	2.45	-33.46	-1.5282	-0.1954	-1.1209	
-0.783118	0.018178	0.593652	-36.12	0.14	-33.18	-1.5099	-0.1864	-1.1211	
-0.779702	0.001586	0.586332	-38.29	-0.77	-32.9	-1.5278	-0.1734	-1.1266	
-0.77531	-0.020008	0.594628	-39.27	-0.14	-31.5	-1.5173	-0.1866	-1.1285	
-0.77653	-0.042822	0.596092	-39.55	0.21	-31.99	-1.5234	-0.1762	-1.1222	
-0.78629	-0.065392	0.584746	-39.9	0	-32.62	-1.5248	-0.1584	-1.1173	
-0.773358	-0.0854	0.584624	-39.97	-1.33	-32.97	-1.5216	-0.1481	-1.1202	
-0.770186	-0.105164	0.58072	-40.6	-1.33	-33.53	-1.5278	-0.1422	-1.1139	
-0.781654	-0.127612	0.576816	-40.81	-0.7	-33.6	-1.5216	-0.1303	-1.1153	
-0.792512	-0.149328	0.57828	-41.09	-0.49	-33.53	-1.5185	-0.1303	-1.1169	
-0.79117	-0.169702	0.571448	-39.76	-1.89	-34.65	-1.5291	-0.129	-1.1182	
-0.795074	-0.184708	0.565226	-37.87	-2.8	-36.47	-1.5184	-0.1215	-1.1182	
-0.787266	-0.19886	0.561322	-36.68	-4.34	-37.03	-1.5274	-0.1038	-1.1117	
-0.759572	-0.192516	0.574742	-37.45	-6.16	-37.45	-1.5392	-0.0893	-1.1203	
-0.7503	-0.210206	0.583282	-39.48	-5.11	-37.52	-1.5393	-0.0848	-1.1126	
-0.774944	-0.248514	0.572058	-39.97	-4.83	-37.31	-1.5317	-0.0832	-1.1128	
-0.758962	-0.249246	0.577182	-39.2	-4.97	-38.08	-1.5501	-0.0817	-1.1018	
-0.746396	-0.269742	0.589016	-39.2	-4.27	-36.68	-1.5347	-0.0669	-1.1079	
-0.750544	-0.313296	0.587552	-38.36	-3.22	-35.49	-1.5347	-0.0625	-1.1078	
-0.748226	-0.339282	0.58072	-36.05	-2.52	-35.7	-1.5513	-0.0582	-1.1059	
-0.743834	-0.340502	0.559858	-34.44	-1.89	-35.49	-1.5484	-0.0461	-1.0921	
-0.74969	-0.331108	0.558882	-34.37	0.35	-35.21	-1.5573	-0.039	-1.0994	
-0.74237	-0.333182	0.543022	-34.02	-1.61	-32.13	-1.5605	-0.033	-1.0901	
-0.736026	-0.341966	0.54717	-34.37	-3.08	-30.8	-1.5527	-0.0271	-1.0962	
-0.726266	-0.362096	0.54656	-33.46	-4.06	-29.54	-1.5527	-0.0286	-1.0993	
-0.700646	-0.379908	0.557662	-33.18	-6.02	-26.95	-1.5556	-0.0064	-1.0943	
-0.694302	-0.416874	0.55449	-32.9	-5.74	-25.27	-1.5603	-0.0123	-1.0883	
-0.678808	-0.433344	0.545584	-33.39	-4.76	-24.85	-1.5694	-0.0124	-1.0896	
-0.690276	-0.429684	0.534604	-34.58	-3.43	-24.78	-1.5618	-0.0079	-1.0882	
-0.690398	-0.404064	0.562908	-33.11	-2.59	-24.57	-1.5725	-0.0005	-1.0803	
-0.69357	-0.469944	0.539972	-35	-5.04	-23.38	-1.5754	0.0052	-1.0846	
-0.683566	-0.521428	0.533262	-30.66	-5.53	-22.61	-1.5722	0.0156	-1.0845	
-0.660386	-0.501298	0.52582	-27.16	-4.13	-20.86	-1.5711	0.0085	-1.0665	
-0.663436	-0.477874	0.519598	-27.79	-2.87	-18.83	-1.5784	0.0201	-1.0767	
-0.676368	-0.4941	0.528748	-27.79	-1.82	-19.6	-1.5771	0.0188	-1.0677	
-0.695766	-0.547292	0.507642	-27.86	-3.99	-21.42	-1.577	0.0306	-1.0645	
-0.687958	-0.574864	0.483486	-24.43	-5.32	-19.53	-1.5861	0.035	-1.0642	
-0.675758	-0.5551	0.491538	-20.37	-5.67	-17.43	-1.5876	0.0439	-1.0595	
-0.670634	-0.543144	0.477752	-18.83	-4.9	-19.95	-1.5874	0.0363	-1.0702	
-0.682468	-0.558028	0.490562	-19.11	-5.53	-18.9	-1.589	0.0513	-1.0578	
-0.674782	-0.578158	0.482022	-17.43	-7.7	-19.67	-1.6012	0.0423	-1.0593	
-0.63867	-0.56852	0.486902	-15.68	-10.22	-16.38	-1.5934	0.0496	-1.0669	
-0.632204	-0.58316	0.5002	-16.94	-8.68	-16.1	-1.6071	0.0584	-1.0604	
-0.637328	-0.583648	0.483608	-16.87	-5.88	-15.75	-1.6073	0.0511	-1.056	
-0.638792	-0.577304	0.490684	-17.22	-6.72	-11.2	-1.6041	0.0541	-1.059	
-0.627324	-0.583892	0.481656	-15.96	-8.68	-10.64	-1.6133	0.0645	-1.0481	
-0.62281	-0.598898	0.481168	-14.84	-7.56	-10.22	-1.6026	0.0615	-1.0559	
-0.625372	-0.615612	0.479704	-15.54	-6.93	-8.05	-1.6133	0.0645	-1.0496	
-0.624274	-0.620004	0.492514	-13.65	-7.21	-6.58	-1.6148	0.06	-1.0511	
-0.612684	-0.640256	0.479216	-14.07	-7.49	-7.7	-1.6224	0.0762	-1.0462	
-0.606706	-0.639524	0.466894	-12.25	-5.67	-7.21	-1.6195	0.066	-1.0449	
-0.620248	-0.621102	0.462502	-12.32	-3.29	-6.3	-1.6211	0.0631	-1.0404	
-0.641354	-0.619516	0.453718	-12.88	-2.73	-6.02	-1.6088	0.0854	-1.0372	
-0.636352	-0.615368	0.44469	-12.39	-5.39	-5.88	-1.6194	0.0763	-1.0417	
-0.630252	-0.635376	0.455914	-12.25	-7.21	-5.81	-1.6148	0.0852	-1.0416	
-0.612684	-0.654896	0.462014	-10.29	-7.91	-6.51	-1.621	0.0808	-1.0371	
-0.596336	-0.665876	0.4636	-9.17	-8.75	-6.58	-1.6314	0.0895	-1.0412	
-0.590602	-0.654286	0.461404	-7.35	-8.26	-6.3	-1.63	0.0806	-1.0429	
-0.600728	-0.640744	0.461648	-7.28	-6.23	-6.37	-1.639	0.0865	-1.0427	
-0.608048	-0.661606	0.475678	-7.49	-7.28	-6.09	-1.6299	0.08199999	-1.0474	
-0.586088	-0.679296	0.469456	-4.9	-8.68	-6.02	-1.6271	0.0883	-1.0308	
-0.571082	-0.684298	0.475434	-2.8	-7.35	-5.74	-1.6359	0.0969	-1.0395	
-0.569374	-0.669902	0.4758	-0.07	-5.39	-6.23	-1.6422	0.0791	-1.0397	
-0.581696	-0.671854	0.478606	0	-3.78	-5.6	-1.6361	0.0852	-1.0337	
-0.583404	-0.683688	0.472506	1.47	-4.06	-4.34	-1.6467	0.0835	-1.0365	
-0.574254	-0.689056	0.467138	3.5	-3.57	-3.99	-1.645	0.0849	-1.0441	
-0.576694	-0.67283	0.46909	5.25	-2.45	-2.73	-1.6422	0.0762	-1.0382	
-0.589626	-0.668072	0.473238	5.81	-1.26	-0.84	-1.6436	0.0761	-1.0428	
-0.585478	-0.662094	0.471896	7.84	-2.17	0.77	-1.6376	0.0822	-1.0367	
-0.573522	-0.669048	0.483608	8.33	-2.87	1.47	-1.6375	0.0909	-1.0411	
-0.566446	-0.677588	0.486658	9.8	-1.96	2.66	-1.6497	0.07759999	-1.0396	
-0.572668	-0.67283	0.484462	10.71	-1.61	3.64	-1.6542	0.07889999	-1.0455	
-0.576938	-0.66734	0.488	10.99	-1.4	3.57	-1.6314	0.0791	-1.0475	
-0.579134	-0.65148	0.494344	13.3	-1.4	5.46	-1.6419	0.0818	-1.0517	
-0.578524	-0.663558	0.499102	13.51	-1.61	6.65	-1.633	0.0806	-1.0414	
-0.558028	-0.655872	0.495686	14.91	-1.61	7.35	-1.6361	0.0628	-1.0492	
-0.574986	-0.63501	0.502518	14.84	0.77	9.1	-1.6344	0.07009999	-1.0551	
-0.591456	-0.627202	0.504714	15.05	1.68	9.94	-1.636	0.0672	-1.0491	
-0.586088	-0.63379	0.506422	16.1	0.42	11.2	-1.633	0.0717	-1.0476	
-0.578402	-0.634278	0.518134	17.71	0.07	12.6	-1.6284	0.0613	-1.0524	
-0.569374	-0.622078	0.525454	18.34	0.63	13.37	-1.6345	0.0642	-1.0537	
-0.582062	-0.618174	0.52277	19.11	2.24	15.05	-1.6239	0.0524	-1.0587	
-0.587186	-0.613172	0.522404	19.18	2.03	15.89	-1.6194	0.0496	-1.0543	
-0.593042	-0.60085	0.531066	21.21	3.08	16.73	-1.6267	0.0566	-1.0691	
-0.59597	-0.5917	0.52765	21.49	3.99	18.76	-1.6283	0.0538	-1.0631	
-0.593774	-0.585356	0.533872	22.54	4.2	19.67	-1.6208	0.0464	-1.0649	
-0.597922	-0.577426	0.535702	23.31	5.04	20.72	-1.6284	0.0434	-1.0633	
-0.615612	-0.569984	0.531554	23.38	6.37	20.93	-1.6237	0.0373	-1.0771	
-0.631594	-0.551196	0.528626	24.85	5.53	22.61	-1.6132	0.0316	-1.0728	
-0.63867	-0.538996	0.530456	24.71	4.06	22.89	-1.6237	0.0314	-1.0772	
-0.643916	-0.522526	0.53741	24.57	3.57	23.1	-1.604	0.0256	-1.0837	
-0.653188	-0.522038	0.544608	23.8	3.22	24.99	-1.5995	0.0272	-1.0792	
-0.646844	-0.508862	0.546926	25.55	2.87	26.81	-1.6162	0.0271	-1.0759	
-0.647332	-0.49837	0.55022	26.18	3.15	26.67	-1.607	0.0152	-1.0869	
-0.646844	-0.47336	0.561566	28	3.71	26.11	-1.5919	0.0287	-1.0809	
-0.65697	-0.464454	0.563884	28.14	3.92	26.95	-1.601	0.0138	-1.0885	
-0.657824	-0.455914	0.561566	28.98	3.78	27.72	-1.58	0.0067	-1.08	
-0.666852	-0.441396	0.576816	30.24	4.83	29.05	-1.5859	-0.009699999	-1.0953	
-0.670268	-0.422242	0.576084	31.85	5.18	29.75	-1.5905	-0.0038	-1.0921	
-0.666608	-0.40199	0.581452	31.78	5.11	30.38	-1.5783	-0.009699999	-1.0984	
-0.67405	-0.38186	0.589748	31.43	5.46	30.87	-1.5965	-0.0158	-1.1012	
-0.667096	-0.370514	0.604144	31.43	4.69	31.22	-1.5889	-0.0172	-1.0999	
-0.672586	-0.365146	0.600484	32.06	6.58	31.43	-1.5815	-0.0259	-1.0941	
-0.70089	-0.349286	0.587674	32.83	9.03	31.71	-1.5785	-0.0333	-1.0989	
-0.734196	-0.321348	0.574376	31.92	9.52	32.55	-1.571	-0.0376	-1.0946	
-0.752008	-0.289872	0.586698	32.27	7.77	32.06	-1.5635	-0.0508	-1.0995	
-0.762988	-0.270352	0.586576	31.71	5.67	33.46	-1.568	-0.0539	-1.104	
-0.758352	-0.281942	0.588406	30.94	3.22	34.51	-1.5682	-0.0567	-1.0965	
-0.751032	-0.250222	0.594994	32.55	2.03	35.98	-1.5618	-0.0555	-1.1132	
-0.72651	-0.221918	0.61122	34.23	1.26	38.92	-1.5589	-0.0672	-1.1089	
-0.712968	-0.195078	0.60634	35	2.66	37.8	-1.5574	-0.0806	-1.1183	
-0.757498	-0.183244	0.602802	33.46	4.41	35.77	-1.5455	-0.0788	-1.1064	
-0.760914	-0.175192	0.593774	34.58	2.94	35.98	-1.5501	-0.0922	-1.1095	
-0.745664	-0.15311	0.60085	33.39	0	39.2	-1.5407	-0.0953	-1.1249	
-0.741516	-0.12932	0.606706	32.06	1.12	37.94	-1.5454	-0.1072	-1.1265	
-0.762134	-0.110654	0.60268	30.8	2.1	37.73	-1.5441	-0.1129	-1.1146	
-0.775554	-0.09699	0.595848	29.19	1.4	38.29	-1.5409	-0.1175	-1.1268	
-0.769088	-0.083692	0.603778	29.54	-0.49	38.29	-1.5518	-0.1203	-1.1146	
-0.763842	-0.079788	0.6039	28.28	-0.98	38.29	-1.5503	-0.1352	-1.1224	
-0.773236	-0.077836	0.600118	28.07	-0.84	39.06	-1.5413	-0.1469	-1.1228	
-0.781166	-0.072956	0.60146	28.49	-2.66	38.92	-1.5399	-0.1423	-1.1152	
-0.757864	-0.053558	0.619272	29.54	-3.99	38.29	-1.5474	-0.1544	-1.1258	
-0.743346	-0.03477	0.6161	29.68	-3.85	38.64	-1.5444	-0.1572	-1.1229	
-0.754692	-0.017202	0.616832	29.68	-0.14	36.61	-1.5368	-0.1691	-1.1308	
-0.766038	0.001586	0.619516	30.03	-0.28	32.55	-1.5367	-0.1662	-1.1338	
-0.753838	0.025742	0.63928	29.19	-3.08	30.45	-1.5354	-0.1794	-1.1311	
-0.733464	0.04453	0.639646	31.78	-3.85	30.87	-1.528	-0.1866	-1.1253	
-0.74725	0.051484	0.637084	29.47	1.47	32.55	-1.5358	-0.1969	-1.1193	
-0.754204	0.048678	0.632082	30.1	2.87	34.44	-1.5418	-0.1985	-1.1237	
-0.753106	0.070516	0.628544	31.57	1.75	34.93	-1.5355	-0.1971	-1.1329	
-0.743956	0.096258	0.628056	34.23	1.96	35.49	-1.5313	-0.2072	-1.1226	
-0.754082	0.095038	0.621956	34.58	5.18	36.68	-1.5358	-0.2207	-1.1318	
-0.7503	0.116632	0.61488	37.03	6.16	37.17	-1.5268	-0.2175	-1.1244	
-0.737368	0.158478	0.615002	38.08	5.32	37.17	-1.5314	-0.2354	-1.1291	
-0.743712	0.196908	0.617564	37.38	7.35	36.68	-1.539	-0.2399	-1.1306	
-0.753472	0.214598	0.61366	35.28	8.68	37.1	-1.5364	-0.2514	-1.1157	
-0.745298	0.223382	0.606218	35.07	7.21	36.96	-1.5378	-0.2545	-1.1233	
-0.733708	0.228872	0.599874	34.72	6.86	36.4	-1.5334	-0.2663	-1.1236	
-0.724192	0.24522	0.59109	34.09	6.3	35.98	-1.5364	-0.2677	-1.1221	
-0.730292	0.262178	0.594994	34.86	7.42	35.7	-1.5334	-0.2721	-1.1222	
-0.73932	0.279014	0.588528	34.23	7.7	35.98	-1.535	-0.281	-1.1254	
-0.739808	0.29951	0.587308	33.46	6.72	36.12	-1.5291	-0.2794	-1.1179	
-0.74847	0.332572	0.580476	31.85	7	36.61	-1.5445	-0.2986	-1.1149	
-0.757254	0.35502	0.572912	30.52	6.58	36.75	-1.5262	-0.3045	-1.1214	
-0.75762	0.363194	0.566202	29.33	4.76	36.26	-1.5281	-0.3161	-1.108	
-0.7503	0.370636	0.557296	27.72	3.01	35.42	-1.5251	-0.322	-1.1112	
-0.73749	0.377102	0.558272	26.46	2.24	34.93	-1.534	-0.3192	-1.1155	
-0.731146	0.388448	0.549366	25.83	1.47	34.51	-1.5372	-0.3251	-1.1125	
-0.737002	0.403698	0.547536	24.78	0.63	33.74	-1.5389	-0.3309	-1.105	
-0.753716	0.415898	0.554124	24.57	-0.84	31.78	-1.5344	-0.3353	-1.1067	
-0.743712	0.416142	0.567788	23.38	-3.92	29.75	-1.5452	-0.35	-1.1022	
-0.723338	0.431636	0.54778	21.21	-6.65	27.79	-1.5467	-0.353	-1.1038	
-0.726022	0.468724	0.544974	22.05	-5.25	23.66	-1.5405	-0.3501	-1.1099	
-0.71919	0.476044	0.54107	20.65	-5.11	19.88	-1.5436	-0.356	-1.1084	
-0.698206	0.448228	0.53802	20.23	-6.02	19.32	-1.5544	-0.3604	-1.1022	
-0.681614	0.434198	0.525332	20.79	-5.25	18.55	-1.5514	-0.3678	-1.104	
-0.70821	0.45811	0.5063	22.26	-2.8	16.38	-1.547	-0.3766	-1.1042	
-0.746152	0.474336	0.494222	21.21	-3.22	15.61	-1.5606	-0.3768	-1.1055	
-0.721142	0.48556	0.494832	22.82	-8.89	16.24	-1.5486	-0.375	-1.0966	
-0.717604	0.513376	0.489098	22.61	-8.61	18.55	-1.5609	-0.3765	-1.0903	
-0.705526	0.531188	0.479582	22.68	-11.41	20.79	-1.5638	-0.3825	-1.0964	
-0.6954	0.550952	0.48007	22.4	-13.44	23.73	-1.5624	-0.384	-1.0935	
-0.683566	0.562786	0.510326	22.61	-15.75	25.34	-1.5671	-0.3883	-1.0889	
-0.644526	0.556076	0.52216	21	-18.27	25.55	-1.5792	-0.3973	-1.0904	
-0.601704	0.548756	0.523624	19.88	-19.32	25.27	-1.5733	-0.4017	-1.0875	
-0.602802	0.591456	0.517524	21.21	-17.15	22.68	-1.5822	-0.4078	-1.0996	
-0.60939	0.608414	0.515328	20.23	-16.73	21.7	-1.5761	-0.4079	-1.1042	
-0.603412	0.6222	0.528016	19.11	-17.5	23.31	-1.5884	-0.4078	-1.0919	
-0.595848	0.627324	0.547902	18.06	-16.8	23.73	-1.5839	-0.4151	-1.0936	
-0.582794	0.62586	0.541802	16.94	-15.54	22.47	-1.6066	-0.4332	-1.1026	
-0.571204	0.612928	0.520574	17.08	-14.07	21.56	-1.6142	-0.4259	-1.1023	
-0.58621	0.605486	0.509716	17.43	-13.09	22.68	-1.6052	-0.4331	-1.0966	
-0.615978	0.608048	0.50874	18.27	-13.09	23.66	-1.6053	-0.4345	-1.0936	
-0.616222	0.630008	0.504714	20.23	-16.52	21.84	-1.6144	-0.4361	-1.0934	
-0.594262	0.653554	0.50569	19.95	-19.32	18.76	-1.6236	-0.4346	-1.0872	
-0.560102	0.669902	0.515816	18.97	-20.58	16.31	-1.6207	-0.4404	-1.0858	
-0.551196	0.69357	0.532896	16.87	-20.37	14.63	-1.6222	-0.4464	-1.0889	
-0.550464	0.689178	0.533994	13.72	-18.69	13.23	-1.6359	-0.4465	-1.0871	
-0.539728	0.682712	0.539118	13.02	-18.34	11.76	-1.6406	-0.4612	-1.0828	
-0.523014	0.682956	0.544974	11.97	-17.92	10.78	-1.6329	-0.4657	-1.0921	
-0.517524	0.682834	0.548146	10.64	-17.15	9.87	-1.6378	-0.4625	-1.0753	
-0.51362	0.686372	0.548146	10.15	-16.45	8.12	-1.636	-0.4597	-1.0844	
-0.515572	0.6832	0.541314	10.01	-15.89	5.46	-1.6587	-0.4645	-1.0901	
-0.512766	0.684908	0.542168	9.8	-15.4	4.41	-1.6512	-0.4613	-1.0841	
-0.506178	0.689056	0.546072	9.24	-15.4	4.55	-1.6589	-0.4687	-1.0811	
-0.49044	0.68869	0.546316	9.52	-15.82	3.64	-1.6591	-0.4731	-1.0766	
-0.492026	0.694302	0.55083	10.15	-15.75	2.66	-1.6649	-0.4674	-1.0839	
-0.501664	0.69662	0.552294	9.52	-16.17	1.05	-1.6651	-0.4701	-1.0749	
-0.48312	0.703696	0.553026	8.75	-17.43	-0.42	-1.6591	-0.4626	-1.0704	
-0.46421	0.708698	0.552538	6.86	-17.64	-1.05	-1.6634	-0.4584	-1.0778	
-0.459208	0.726266	0.548024	6.16	-16.17	-2.38	-1.6667	-0.4672	-1.0718	
-0.475068	0.72956	0.544608	5.04	-15.4	-2.59	-1.6726	-0.4673	-1.0762	
-0.463234	0.73444	0.555222	4.9	-13.23	-3.78	-1.6742	-0.4821	-1.081	
-0.44835	0.74115	0.562054	4.13	-11.76	-5.11	-1.6725	-0.4689	-1.0838	
-0.447252	0.73383	0.55632	2.52	-9.17	-4.27	-1.6715	-0.4833	-1.0675	
-0.44103	0.730902	0.558638	2.03	-6.3	-3.64	-1.6769	-0.4661	-1.0882	
-0.447862	0.743712	0.562176	1.12	-3.92	-3.22	-1.6803	-0.4821	-1.0779	
-0.470188	0.749202	0.5551	-1.68	-2.03	-3.71	-1.6743	-0.4821	-1.078	
-0.479094	0.732366	0.55022	-4.55	-1.75	-4.62	-1.6727	-0.4717	-1.0748	
-0.457378	0.726632	0.557662	-5.39	-2.66	-6.16	-1.691	-0.4807	-1.0746	
-0.44347	0.726144	0.554612	-6.79	-1.54	-7.77	-1.6832	-0.4764	-1.0853	
-0.46055	0.72712	0.561688	-8.19	0.7	-8.05	-1.6741	-0.4777	-1.0824	
-0.474824	0.729682	0.562908	-10.64	1.12	-8.47	-1.6787	-0.4659	-1.0776	
-0.471286	0.707722	0.569252	-12.67	1.12	-10.22	-1.6725	-0.4764	-1.09	
-0.461892	0.69357	0.578158	-13.16	1.89	-10.64	-1.6801	-0.4675	-1.0821	
-0.466406	0.695644	0.58438	-13.09	2.87	-11.2	-1.6772	-0.4673	-1.0746	
-0.478728	0.682224	0.582428	-14.14	3.29	-12.39	-1.674	-0.4675	-1.0868	
-0.489464	0.66978	0.58011	-14.28	2.8	-13.58	-1.671	-0.4555	-1.0761	
-0.509716	0.660386	0.566568	-13.65	2.59	-15.54	-1.6738	-0.4587	-1.0912	
-0.508984	0.651846	0.57279	-12.74	1.75	-17.08	-1.6665	-0.4643	-1.0778	
-0.497638	0.657824	0.575596	-11.13	1.82	-17.5	-1.6754	-0.4512	-1.0835	
-0.513864	0.659166	0.573522	-12.67	3.85	-18.55	-1.6646	-0.4572	-1.0928	
-0.520696	0.653798	0.568398	-13.3	4.06	-20.02	-1.6586	-0.4511	-1.0868	
-0.516182	0.651968	0.577182	-14	4.27	-20.16	-1.6647	-0.4467	-1.0836	
-0.531066	0.647454	0.576572	-15.68	5.39	-20.65	-1.6541	-0.4496	-1.0884	
-0.533994	0.63623	0.582794	-16.87	5.46	-21.98	-1.6402	-0.4378	-1.0945	
-0.53314	0.625982	0.582428	-17.71	5.53	-23.31	-1.6584	-0.4409	-1.0942	
-0.544608	0.620492	0.580964	-17.85	5.95	-24.5	-1.6538	-0.4395	-1.0988	
-0.554978	0.615978	0.585112	-18.69	6.3	-25.41	-1.6582	-0.4337	-1.1016	
-0.557906	0.604998	0.57828	-20.23	5.74	-26.32	-1.6354	-0.4246	-1.0988	
-0.568764	0.595726	0.581696	-22.05	6.3	-26.6	-1.6339	-0.4245	-1.0974	
-0.5734	0.579988	0.579744	-23.31	6.16	-27.02	-1.6475	-0.4277	-1.1002	
-0.586576	0.565348	0.585234	-23.73	6.16	-27.51	-1.6291	-0.4188	-1.1079	
-0.58255	0.562176	0.595726	-24.08	5.39	-28	-1.62	-0.4187	-1.1081	
-0.577914	0.541802	0.607194	-26.46	5.46	-28.14	-1.6305	-0.41	-1.1123	
-0.580354	0.530578	0.608292	-26.81	7	-29.61	-1.6244	-0.4084	-1.1093	
-0.595848	0.515084	0.60451	-27.86	7.63	-30.52	-1.6197	-0.3996	-1.1153	
-0.609268	0.492392	0.60573	-28.84	7.91	-30.87	-1.6287	-0.4043	-1.1213	
-0.608048	0.477264	0.610122	-29.05	8.33	-31.22	-1.6152	-0.3965	-1.1093	
-0.619272	0.471896	0.614392	-29.4	9.8	-31.71	-1.612	-0.3893	-1.1183	
-0.633668	0.455548	0.616954	-30.73	10.36	-32.13	-1.6103	-0.3746	-1.1211	
-0.639768	0.440908	0.619882	-31.43	9.8	-32.34	-1.6072	-0.3656	-1.1149	
-0.65087	0.423462	0.615246	-31.43	9.73	-33.18	-1.604	-0.3643	-1.1255	
-0.65697	0.404796	0.620126	-31.5	9.03	-33.95	-1.601	-0.3642	-1.1226	
-0.665266	0.381494	0.621346	-32.41	8.19	-33.81	-1.5874	-0.3551	-1.1181	
-0.670756	0.354288	0.62464	-32.62	8.12	-34.09	-1.5781	-0.3537	-1.1258	
-0.675636	0.331962	0.630862	-34.23	7.14	-34.3	-1.5885	-0.3451	-1.1346	
-0.676612	0.313052	0.635132	-35.14	7.14	-33.04	-1.5871	-0.3316	-1.1223	
-0.688202	0.308904	0.630618	-35.7	7.42	-33.74	-1.5746	-0.3185	-1.1359	
-0.701378	0.317444	0.622322	-33.67	9.24	-34.02	-1.5718	-0.3241	-1.1239	
-0.715286	0.304512	0.626958	-34.51	10.64	-35.14	-1.5745	-0.3141	-1.1373	
-0.711992	0.287188	0.625738	-35.98	10.22	-35.98	-1.5639	-0.3035	-1.1313	
-0.708576	0.26108	0.630862	-36.89	10.5	-36.82	-1.567	-0.2976	-1.125	
-0.704062	0.231068	0.6344	-36.26	10.29	-38.01	-1.5698	-0.2934	-1.1355	
-0.70394	0.199958	0.641232	-33.67	11.06	-37.24	-1.5652	-0.2829	-1.1324	
-0.696986	0.181658	0.647454	-31.57	10.29	-34.93	-1.5588	-0.2668	-1.1413	
-0.711626	0.159332	0.64111	-31.71	10.78	-30.94	-1.5517	-0.2723	-1.1203	
-0.735416	0.152866	0.638792	-29.75	11.41	-29.4	-1.553	-0.2695	-1.1308	
-0.744078	0.150792	0.632082	-29.61	10.08	-31.08	-1.5452	-0.2488	-1.1306	
-0.737734	0.12993	0.632326	-30.1	7.91	-32.41	-1.5559	-0.2532	-1.126	
-0.733952	0.119804	0.632936	-29.19	8.75	-32.41	-1.5482	-0.2533	-1.1337	
-0.749202	0.098942	0.63074	-29.96	9.66	-31.43	-1.5543	-0.2415	-1.1273	
-0.758962	0.066002	0.62281	-29.68	9.03	-29.96	-1.5466	-0.234	-1.1288	
-0.763354	0.04514	0.625128	-29.26	7.14	-28.84	-1.5525	-0.2283	-1.1346	
-0.760304	0.03294	0.618418	-29.19	5.39	-29.54	-1.5356	-0.2119	-1.1347	
-0.784826	0.026108	0.612806	-28.56	4.69	-34.37	-1.5327	-0.2103	-1.1302	
-0.762256	0.040626	0.61366	-26.67	3.71	-37.8	-1.5478	-0.215	-1.133	
-0.746762	0.025986	0.614636	-31.08	4.41	-35.35	-1.5416	-0.2031	-1.1329	
-0.77653	-0.012566	0.614148	-30.38	8.96	-31.64	-1.5402	-0.1896	-1.1236	
-0.765672	-0.037576	0.613416	-28.49	6.09	-30.8	-1.5387	-0.197	-1.1238	
-0.756278	-0.052948	0.614514	-28.28	6.86	-29.47	-1.5385	-0.1793	-1.125	
-0.76555	-0.061122	0.613294	-27.37	6.72	-29.75	-1.5249	-0.1703	-1.122	
-0.773968	-0.068442	0.609634	-27.79	5.32	-28.49	-1.5399	-0.1661	-1.1277	
-0.77958	-0.076006	0.61244	-28.49	4.27	-27.86	-1.5414	-0.1721	-1.1293	
-0.777506	-0.078446	0.61061	-29.96	2.45	-28.56	-1.5306	-0.1484	-1.1291	
-0.772748	-0.093696	0.596702	-31.71	1.68	-27.51	-1.5353	-0.1497	-1.1199	
-0.773724	-0.111874	0.59292	-34.3	-1.05	-25.27	-1.526	-0.1409	-1.126	
-0.78629	-0.14213	0.578524	-36.54	-3.08	-20.23	-1.526	-0.1349	-1.1214	
-0.77043	-0.139568	0.58987	-36.96	-5.04	-14.07	-1.5473	-0.1366	-1.1195	
-0.759206	-0.121146	0.601338	-34.37	-2.31	-15.33	-1.5366	-0.1321	-1.1226	
-0.777628	-0.133834	0.605608	-33.04	-0.14	-23.8	-1.541	-0.107	-1.1175	
-0.773846	-0.165554	0.604022	-30.59	-2.31	-28.56	-1.5457	-0.1232	-1.1178	
-0.743956	-0.19581	0.596946	-31.43	-3.5	-26.88	-1.544	-0.1115	-1.1206	
-0.74237	-0.213744	0.589626	-31.85	-3.22	-25.55	-1.541	-0.104	-1.1145	
-0.741638	-0.224114	0.59048	-32.41	-1.96	-27.79	-1.5485	-0.1056	-1.1189	
-0.749202	-0.221918	0.583892	-30.17	-2.31	-29.12	-1.5412	-0.1038	-1.1054	
-0.773114	-0.245708	0.574498	-31.36	-4.83	-27.37	-1.5468	-0.08199999	-1.12	
-0.775676	-0.273402	0.58011	-31.57	-6.72	-26.67	-1.5482	-0.0761	-1.1199	
-0.769698	-0.307806	0.561932	-28.91	-6.65	-27.16	-1.5572	-0.06879999	-1.1196	
-0.74847	-0.290848	0.564982	-27.79	-7.42	-27.37	-1.5482	-0.0613	-1.1136	
-0.756156	-0.283284	0.579866	-28.7	-3.99	-25.9	-1.5559	-0.0627	-1.1089	
-0.739198	-0.302438	0.574864	-28.7	-5.32	-24.36	-1.5573	-0.0554	-1.1118	
-0.715408	-0.324642	0.573888	-28.56	-8.54	-24.08	-1.5662	-0.0482	-1.113	
-0.718824	-0.334524	0.574254	-28.56	-6.16	-22.26	-1.5664	-0.0465	-1.1039	
-0.712358	-0.299388	0.574986	-27.79	-8.54	-20.3	-1.5633	-0.0361	-1.1022	
-0.719312	-0.274866	0.555832	-35.7	-12.18	-18.06	-1.5723	-0.0349	-1.1081	
-0.754082	-0.303658	0.54961	-38.08	-5.53	-10.78	-1.5664	-0.0302	-1.096	
-0.735294	-0.327936	0.562908	-38.36	-3.08	-3.15	-1.5617	-0.0288	-1.1036	
-0.697718	-0.380152	0.573156	-42.98	-7.21	-0.56	-1.566	-0.0053	-1.1062	
-0.72712	-0.45567	0.552782	-39.76	-3.57	-0.63	-1.5737	-0.0067	-1.1	
-0.696132	-0.47641	0.5429	-34.58	-3.85	-3.15	-1.5708	-0.007999999	-1.0895	
-0.703086	-0.45384	0.556198	-33.88	-2.59	-3.64	-1.5646	-0.0037	-1.0986	
-0.714188	-0.440908	0.537898	-32.06	0.56	-7.77	-1.5679	-0.0064	-1.0835	
-0.742614	-0.472262	0.546072	-31.99	-0.84	-10.85	-1.5691	0.011	-1.0937	
-0.71736	-0.50142	0.506788	-29.12	-5.6	-12.74	-1.5694	0.0114	-1.0741	
-0.71675	-0.498126	0.509106	-25.27	-5.39	-11.97	-1.5737	0.0021	-1.0938	
-0.710284	-0.486048	0.499224	-23.03	-4.62	-12.46	-1.5844	0.0156	-1.0797	
-0.691496	-0.464454	0.495076	-22.05	-4.34	-13.58	-1.5829	0.0215	-1.0781	
-0.707844	-0.469578	0.531554	-21.49	-4.41	-14.42	-1.5797	0.0244	-1.0842	
-0.681126	-0.513986	0.518256	-21	-4.97	-17.01	-1.5935	0.0363	-1.0686	
-0.682102	-0.54107	0.51789	-18.55	-5.25	-16.66	-1.5874	0.0363	-1.0733	
-0.645258	-0.49898	0.516914	-13.93	-7.77	-16.52	-1.589	0.0393	-1.0671	
-0.650016	-0.48495	0.525454	-17.78	-4.76	-17.64	-1.5859	0.0378	-1.0717	
-0.659654	-0.508252	0.509594	-21.14	-5.46	-19.95	-1.589	0.0393	-1.0671	
-0.675392	-0.53009	0.508008	-20.51	-7	-18.69	-1.6011	0.0421	-1.0684	
-0.657702	-0.543754	0.50142	-20.72	-10.08	-17.85	-1.5981	0.0392	-1.067	
-0.656238	-0.55022	0.503372	-19.6	-10.78	-18.13	-1.5968	0.0409	-1.0549	
-0.654774	-0.54473	0.504958	-16.66	-9.1	-18.13	-1.6074	0.0483	-1.05	
-0.651236	-0.550342	0.502152	-17.15	-11.06	-17.36	-1.6118	0.0496	-1.0559	
-0.645258	-0.55571	0.51057	-12.74	-12.18	-15.54	-1.6175	0.0671	-1.0646	
-0.657946	-0.582184	0.50752	-10.92	-13.09	-15.61	-1.6101	0.0554	-1.0634	
-0.656604	-0.57523	0.492636	-9.24	-15.54	-14	-1.6116	0.0628	-1.0617	
-0.64538	-0.557784	0.520696	-7.7	-16.52	-11.69	-1.6193	0.0628	-1.0571	
-0.621346	-0.56791	0.530334	-6.16	-16.87	-15.33	-1.6298	0.0686	-1.0552	
-0.610122	-0.602802	0.516304	-8.89	-15.89	-16.45	-1.6193	0.0583	-1.0586	
-0.595238	-0.596214	0.522404	-6.02	-14.98	-13.3	-1.6344	0.0627	-1.0553	
-0.593774	-0.589748	0.522526	-6.93	-13.3	-11.9	-1.6329	0.0656	-1.0567	
-0.590846	-0.573278	0.518988	-8.19	-12.39	-9.87	-1.6374	0.0715	-1.0566	
-0.614026	-0.601582	0.551928	-9.38	-10.5	-8.05	-1.6419	0.067	-1.0565	
-0.581452	-0.627202	0.521062	-6.23	-13.51	-7.91	-1.633	0.0597	-1.0553	
-0.570472	-0.615612	0.546194	-5.67	-13.3	-5.53	-1.6372	0.0744	-1.061	
-0.57523	-0.607926	0.541436	-5.95	-10.08	-6.44	-1.6418	0.0743	-1.0609	
-0.578768	-0.605852	0.537288	-6.37	-9.1	-6.93	-1.6434	0.0699	-1.0565	
-0.571692	-0.617076	0.549366	-6.3	-10.5	-4.55	-1.6418	0.0773	-1.0609	
-0.553148	-0.632326	0.550586	-4.48	-9.87	-5.53	-1.6509	0.0727	-1.0608	
-0.546438	-0.633912	0.540582	-2.87	-7.7	-5.32	-1.6572	0.07	-1.0486	
-0.55693	-0.623054	0.54656	-1.61	-5.67	-3.36	-1.6555	0.0802	-1.0545	
-0.567788	-0.627446	0.546072	-1.26	-5.04	-4.06	-1.6494	0.0787	-1.0577	
-0.558028	-0.634644	0.53924	-0.49	-5.18	-3.92	-1.6494	0.0773	-1.0562	
-0.558394	-0.629642	0.55388	2.38	-3.85	-0.21	-1.6616	0.0683	-1.0577	
-0.552294	-0.644526	0.542534	3.29	-3.5	-0.98	-1.6555	0.0683	-1.0578	
-0.546438	-0.632692	0.545584	4.76	-3.01	-0.28	-1.6631	0.0697	-1.0606	
-0.550586	-0.619272	0.551684	4.55	-2.31	1.05	-1.6647	0.0698	-1.0515	
-0.554734	-0.619516	0.548268	5.32	-1.89	0.84	-1.6617	0.0773	-1.0469	
-0.552294	-0.622688	0.553758	6.23	-1.33	1.96	-1.6571	0.0713	-1.0562	
-0.54656	-0.63013	0.556076	7	-1.82	3.78	-1.6599	0.0696	-1.0667	
-0.543266	-0.621102	0.558272	9.1	-0.77	3.99	-1.668	0.0685	-1.0394	
-0.546194	-0.609268	0.57096	10.15	1.05	6.51	-1.6599	0.0696	-1.0667	
-0.543266	-0.604632	0.565836	11.69	1.89	9.1	-1.6586	0.0624	-1.0593	
-0.555222	-0.604998	0.56852	11.48	4.06	10.85	-1.6539	0.0593	-1.0685	
-0.573766	-0.602924	0.558272	11.76	5.95	12.25	-1.6495	0.0565	-1.0611	
-0.58987	-0.595604	0.564128	13.86	5.04	13.65	-1.6541	0.0609	-1.0594	
-0.582672	-0.607438	0.556686	14.07	4.41	13.65	-1.6586	0.0475	-1.0656	
-0.57523	-0.600118	0.562176	15.05	4.83	15.26	-1.6541	0.058	-1.061	
-0.571692	-0.585478	0.564372	15.96	5.39	16.31	-1.6359	0.0552	-1.0629	
-0.59048	-0.579622	0.559858	15.4	6.51	16.03	-1.6359	0.0374	-1.0693	
-0.611586	-0.596092	0.551074	14.49	6.37	15.82	-1.6418	0.0476	-1.072	
-0.612074	-0.576328	0.551562	17.99	4.83	17.57	-1.642	0.0432	-1.0676	
-0.605364	-0.55327	0.558272	19.67	4.41	18.76	-1.6358	0.0447	-1.0722	
-0.60024	-0.559248	0.575352	19.46	2.8	18.27	-1.6358	0.0462	-1.0722	
-0.59597	-0.5673	0.56791	20.37	3.01	17.43	-1.6207	0.0404	-1.071	
-0.605974	-0.54046	0.581818	24.01	4.27	20.37	-1.6313	0.0418	-1.0723	
-0.593652	-0.528626	0.59414	26.25	3.08	21.42	-1.6313	0.0329	-1.074	
-0.581696	-0.517768	0.592676	27.93	3.71	19.6	-1.6314	0.024	-1.0757	
-0.604754	-0.489952	0.610122	29.26	7.49	21.07	-1.6207	0.0181	-1.085	
-0.612928	-0.4758	0.5978	27.51	7.35	23.45	-1.6268	0.0165	-1.085	
-0.617198	-0.466894	0.604876	27.3	6.93	23.66	-1.6207	0.0166	-1.082	
-0.618906	-0.466406	0.596336	26.39	7.42	22.96	-1.6131	0.0032	-1.0945	
-0.622322	-0.445666	0.59597	25.2	8.68	23.87	-1.6114	0.0135	-1.0989	
-0.634522	-0.427122	0.600118	22.89	10.01	24.36	-1.6071	0.0019	-1.0916	
-0.651114	-0.405772	0.596214	21.77	10.92	23.94	-1.6054	-0.0012	-1.1038	
-0.667828	-0.408212	0.593286	19.53	10.08	24.36	-1.607	0.0032	-1.0961	
-0.654652	-0.404186	0.597312	20.58	8.12	25.48	-1.6041	-0.0054	-1.0933	
-0.667584	-0.40565	0.599508	19.25	8.68	25.41	-1.5902	-0.0099	-1.1058	
-0.67283	-0.382226	0.60207	20.93	8.89	25.41	-1.5873	-0.0187	-1.1045	
-0.686616	-0.374784	0.599752	19.11	7.84	25.27	-1.5816	-0.0288	-1.0942	
-0.6893	-0.365268	0.60146	21.63	7.7	25.27	-1.5843	-0.0247	-1.1077	
-0.690276	-0.358802	0.603412	21.7	8.12	24.85	-1.5877	-0.0303	-1.0926	
-0.69113	-0.338916	0.60573	22.82	8.96	24.78	-1.5736	-0.0202	-1.1093	
-0.697474	-0.321592	0.61122	23.52	9.87	24.36	-1.5769	-0.0274	-1.1018	
-0.713944	-0.31049	0.607926	22.61	11.06	24.71	-1.5755	-0.0392	-1.1021	
-0.722728	-0.302804	0.600118	23.52	10.5	25.13	-1.5754	-0.0512	-1.1129	
-0.721386	-0.284626	0.603656	25.62	11.48	26.25	-1.571	-0.0406	-1.1007	
-0.739076	-0.273402	0.59963	24.22	11.62	26.95	-1.5664	-0.0585	-1.1116	
-0.733708	-0.25437	0.592676	24.99	9.94	27.72	-1.5574	-0.0538	-1.1057	
-0.754326	-0.246928	0.59719	23.24	10.43	28.07	-1.5649	-0.0584	-1.1087	
-0.756034	-0.230214	0.59536	24.29	11.2	27.37	-1.5528	-0.0672	-1.1151	
-0.76189	-0.216672	0.602924	24.71	10.57	27.86	-1.5498	-0.0716	-1.1122	
-0.75335	-0.21594	0.59414	26.11	7.91	28.91	-1.5529	-0.0715	-1.1076	
-0.752252	-0.204106	0.602192	29.96	8.26	28.77	-1.5499	-0.0775	-1.1138	
-0.75945	-0.182268	0.598776	30.59	8.89	29.26	-1.5423	-0.0893	-1.1172	
-0.760426	-0.157136	0.60268	33.25	9.31	28.63	-1.544	-0.0951	-1.1097	
-0.769576	-0.144204	0.598288	31.71	10.22	28.63	-1.5362	-0.0982	-1.1235	
-0.768966	-0.124318	0.596214	30.66	8.89	28.28	-1.5333	-0.1025	-1.1206	
-0.770796	-0.10492	0.599752	30.38	9.03	27.02	-1.532	-0.1083	-1.1132	
-0.772626	-0.082716	0.596336	30.94	9.45	26.39	-1.5305	-0.1127	-1.1133	
-0.776042	-0.069662	0.5978	30.38	8.33	25.62	-1.5307	-0.1245	-1.112	
-0.781776	-0.063562	0.591944	30.66	8.12	25.13	-1.5245	-0.1245	-1.1167	
-0.790438	-0.055632	0.589016	29.89	7.35	25.2	-1.5275	-0.1364	-1.1229	
-0.791414	-0.036478	0.585844	29.33	6.51	24.99	-1.5111	-0.1465	-1.1173	
-0.781288	-0.013542	0.588284	29.61	5.18	25.48	-1.5338	-0.1526	-1.1185	
-0.77775	-0.013176	0.591456	28.28	4.9	26.88	-1.5263	-0.1496	-1.1156	
-0.784338	-0.010858	0.593042	26.46	6.23	27.44	-1.5263	-0.1644	-1.1219	
-0.788974	0.003172	0.590968	26.67	6.44	28	-1.5266	-0.1656	-1.1068	
-0.786168	0.016348	0.589992	25.76	5.18	27.86	-1.5022	-0.1685	-1.1179	
-0.78324	0.024766	0.588284	25.76	4.69	27.58	-1.5111	-0.1747	-1.1299	
-0.789584	0.026962	0.585478	25.9	5.11	27.79	-1.5191	-0.1849	-1.1148	
-0.788974	0.025742	0.58194	27.51	4.9	28.35	-1.5145	-0.1819	-1.1149	
-0.784704	0.044896	0.577426	28.77	5.53	27.93	-1.4979	-0.1906	-1.1184	
-0.790926	0.073688	0.576816	28.35	6.65	27.16	-1.5086	-0.2054	-1.1169	
-0.803614	0.111752	0.574498	27.44	8.12	26.95	-1.4982	-0.2037	-1.1095	
-0.805932	0.14274	0.570228	26.39	8.75	28.56	-1.4998	-0.217	-1.1098	
-0.812886	0.148596	0.557784	23.38	8.19	29.61	-1.5057	-0.2158	-1.1187	
-0.809104	0.145058	0.546804	23.59	7.28	29.82	-1.4969	-0.2332	-1.1101	
-0.814594	0.145668	0.545096	22.54	6.37	29.68	-1.5151	-0.2334	-1.1082	
-0.815448	0.150792	0.554002	23.17	4.9	30.1	-1.4939	-0.2391	-1.1118	
-0.814228	0.17629	0.561688	23.52	3.22	30.31	-1.4969	-0.2377	-1.1117	
-0.808128	0.207888	0.555466	23.73	2.73	29.47	-1.4941	-0.242	-1.1058	
-0.805322	0.230336	0.548146	20.79	3.01	28.98	-1.4986	-0.2524	-1.1119	
-0.80032	0.215086	0.53985	18.97	1.12	28.84	-1.503	-0.2556	-1.1195	
-0.796172	0.20496	0.541802	18.06	-0.14	29.4	-1.5048	-0.2569	-1.1089	
-0.788242	0.221918	0.545828	19.18	0.28	31.5	-1.5079	-0.2687	-1.1075	
-0.785436	0.249246	0.55083	20.93	0.77	32.69	-1.4987	-0.2762	-1.1214	
-0.796172	0.2928	0.542534	22.12	1.68	31.15	-1.505	-0.2686	-1.103	
-0.809958	0.293166	0.53131	21.28	2.59	30.87	-1.5033	-0.2717	-1.1122	
-0.794708	0.295362	0.533994	21.56	0.14	31.78	-1.5051	-0.2848	-1.1048	
-0.772748	0.287066	0.541436	21.49	-1.05	32.55	-1.5127	-0.2834	-1.1047	
-0.763476	0.315614	0.53192	22.68	-1.05	31.01	-1.5113	-0.3041	-1.1066	
-0.788242	0.34526	0.527284	20.86	1.12	29.82	-1.5069	-0.298	-1.099	
-0.807274	0.35807	0.52338	18.2	-0.84	28.35	-1.5082	-0.3041	-1.1112	
-0.788974	0.358192	0.519964	16.66	-5.67	28.14	-1.5068	-0.307	-1.1082	
-0.7625	0.359412	0.518256	16.38	-7.98	29.96	-1.519	-0.31	-1.105	
-0.767746	0.37759	0.520208	16.52	-8.19	30.17	-1.5237	-0.3114	-1.0974	
-0.782264	0.389668	0.522526	16.8	-9.31	29.19	-1.5222	-0.3263	-1.1068	
-0.784704	0.389912	0.5185	16.59	-12.32	29.96	-1.5266	-0.3219	-1.1081	
-0.74115	0.384422	0.524356	17.15	-15.12	32.27	-1.5193	-0.338	-1.104	
-0.71065	0.394304	0.53436	19.53	-15.47	32.83	-1.5253	-0.3396	-1.1054	
-0.704306	0.41297	0.53375	20.37	-13.23	31.64	-1.5269	-0.3381	-1.1024	
-0.69296	0.418704	0.542778	21.14	-12.81	30.1	-1.545	-0.3368	-1.1065	
-0.683688	0.452742	0.549244	22.54	-12.32	29.96	-1.5317	-0.3513	-1.098	
-0.692594	0.473604	0.538264	21.91	-11.34	30.24	-1.5452	-0.3545	-1.1053	
-0.703818	0.468724	0.52582	23.1	-11.97	30.03	-1.5407	-0.3544	-1.1009	
-0.687592	0.457988	0.513376	24.57	-14.91	30.1	-1.5514	-0.3649	-1.1054	
-0.67039	0.481412	0.537898	28.49	-15.75	30.38	-1.5559	-0.3753	-1.1085	
-0.6588	0.532164	0.542168	28.07	-16.17	29.47	-1.5591	-0.3797	-1.1055	
-0.646356	0.559614	0.544242	29.26	-16.8	26.53	-1.5667	-0.3857	-1.1055	
-0.653798	0.585722	0.53131	25.76	-15.96	24.64	-1.5638	-0.3751	-1.0948	
-0.655384	0.569984	0.525088	22.05	-15.61	24.15	-1.5715	-0.3885	-1.0934	
-0.67222	0.564982	0.51667	21.21	-14.98	23.31	-1.57	-0.3989	-1.0996	
-0.664168	0.568398	0.52521	20.58	-16.24	21.28	-1.5714	-0.4049	-1.1073	
-0.635376	0.590236	0.52277	18.97	-19.04	20.3	-1.5806	-0.4049	-1.1026	
-0.623298	0.59231	0.52521	17.64	-18.06	20.3	-1.5868	-0.4019	-1.0918	
-0.611586	0.5917	0.524844	17.01	-17.92	20.44	-1.5914	-0.4197	-1.0981	
-0.599264	0.58682	0.524234	16.38	-18.62	18.83	-1.5883	-0.4138	-1.1011	
-0.599996	0.602924	0.532774	16.94	-18.2	17.5	-1.6022	-0.4241	-1.0919	
-0.595726	0.615124	0.53863	16.45	-18.2	17.43	-1.5989	-0.4155	-1.1039	
-0.5612	0.623786	0.55571	16.73	-18.55	17.36	-1.6037	-0.4316	-1.095	
-0.543754	0.624884	0.549366	16.94	-17.57	16.1	-1.6082	-0.4198	-1.0947	
-0.560834	0.617686	0.548878	17.64	-13.93	14.42	-1.6144	-0.4317	-1.0948	
-0.571814	0.617198	0.543754	18.9	-13.51	13.16	-1.6158	-0.4154	-1.0885	
-0.555344	0.627446	0.5429	21.28	-15.26	12.46	-1.6159	-0.4346	-1.0934	
-0.525454	0.650504	0.542778	22.4	-15.26	11.97	-1.6189	-0.4436	-1.0995	
-0.52704	0.670878	0.53741	21.7	-14	10.99	-1.6147	-0.4478	-1.0876	
-0.53253	0.675026	0.534116	20.09	-12.88	8.75	-1.6282	-0.445	-1.0933	
-0.53131	0.668682	0.531432	19.74	-13.86	8.47	-1.6375	-0.4434	-1.078	
-0.523502	0.691984	0.530578	18.48	-14.42	7.91	-1.6404	-0.445	-1.0855	
-0.519964	0.70943	0.516304	16.52	-14.49	7.42	-1.6375	-0.4538	-1.0842	
-0.52521	0.71126	0.52399	15.26	-14.84	8.4	-1.6483	-0.4641	-1.0782	
-0.526674	0.721752	0.52704	12.25	-16.24	9.1	-1.6452	-0.4613	-1.0842	
-0.511546	0.722728	0.52216	10.08	-16.87	8.12	-1.6634	-0.4658	-1.0824	
-0.486536	0.724436	0.533262	9.24	-17.08	8.61	-1.6527	-0.4599	-1.0856	
-0.471408	0.726754	0.533628	6.51	-15.89	10.08	-1.6542	-0.4629	-1.0871	
-0.478484	0.723338	0.534848	5.53	-13.65	10.22	-1.6606	-0.4716	-1.075	
-0.493612	0.71919	0.539728	4.9	-11.9	8.96	-1.6695	-0.4718	-1.0824	
-0.468846	0.713578	0.53741	3.99	-13.09	7.49	-1.6697	-0.4746	-1.0764	
-0.447984	0.718092	0.541802	3.85	-12.39	6.93	-1.6679	-0.4674	-1.0869	
-0.440908	0.726754	0.560956	3.57	-10.5	6.44	-1.6711	-0.4718	-1.0809	
-0.432368	0.737856	0.561932	2.8	-9.24	5.25	-1.6725	-0.4644	-1.0807	
-0.437492	0.738466	0.560346	1.96	-6.58	3.5	-1.6816	-0.4749	-1.0853	
-0.449936	0.731146	0.55266	1.82	-3.71	1.96	-1.6879	-0.4748	-1.0746	
-0.451522	0.737002	0.548634	2.66	-3.43	-0.35	-1.6696	-0.4613	-1.0732	
-0.46177	0.740418	0.54595	1.12	-2.52	-1.82	-1.6801	-0.469	-1.0837	
-0.461648	0.732366	0.540704	0.21	-2.73	-2.8	-1.6802	-0.4644	-1.076	
-0.450424	0.731268	0.543754	0.14	-3.01	-3.43	-1.6741	-0.4674	-1.0807	
-0.455548	0.732122	0.548268	0.28	-2.24	-4.27	-1.6847	-0.4749	-1.0852	
-0.461648	0.74298	0.55022	-0.07	-1.96	-5.25	-1.6698	-0.4686	-1.0657	
-0.461282	0.750666	0.54839	-1.75	-2.03	-6.65	-1.6696	-0.4747	-1.0795	
-0.463844	0.749568	0.543754	-3.71	-1.96	-7.49	-1.6819	-0.4672	-1.067	
-0.462868	0.744688	0.554856	-5.46	-1.33	-8.47	-1.6742	-0.4673	-1.0747	
-0.46299	0.74908	0.550952	-7.56	-0.77	-10.15	-1.6726	-0.4718	-1.0793	
-0.47092	0.747982	0.554246	-10.15	-0.07	-12.25	-1.6709	-0.4705	-1.0914	
-0.474702	0.735294	0.552172	-12.67	0.35	-13.79	-1.6678	-0.4616	-1.0913	
-0.46909	0.718702	0.552782	-14.28	0.63	-15.33	-1.6649	-0.4644	-1.0824	
-0.474214	0.708454	0.558272	-15.96	2.1	-16.66	-1.668	-0.4644	-1.0793	
-0.481656	0.70211	0.559126	-16.24	3.29	-17.99	-1.6708	-0.4557	-1.0866	
-0.485438	0.695644	0.562176	-16.52	3.22	-19.18	-1.6661	-0.4558	-1.0943	
-0.479704	0.687836	0.574498	-16.73	4.62	-20.02	-1.6587	-0.4466	-1.0837	
-0.471164	0.687714	0.57157	-16.94	5.53	-20.79	-1.657	-0.4557	-1.0945	
-0.480924	0.677588	0.56791	-17.85	7.35	-21.07	-1.6478	-0.4378	-1.0913	
-0.508496	0.666486	0.563274	-19.04	8.47	-21	-1.6617	-0.4585	-1.0869	
-0.526918	0.654652	0.563518	-19.53	7.56	-21.42	-1.6448	-0.4467	-1.096	
-0.52277	0.650504	0.56669	-19.6	6.44	-22.54	-1.6399	-0.438	-1.1081	
-0.52338	0.640622	0.574864	-20.37	6.3	-24.57	-1.6462	-0.4424	-1.1005	
-0.528138	0.628422	0.577182	-20.93	6.72	-26.11	-1.6339	-0.4261	-1.1019	
-0.537044	0.611708	0.577792	-21.21	6.86	-27.37	-1.646	-0.4202	-1.0955	
-0.549366	0.602436	0.580842	-20.02	7.07	-28.56	-1.6445	-0.4217	-1.1001	
-0.556198	0.596458	0.588528	-19.32	7.35	-29.68	-1.6354	-0.4216	-1.1003	
-0.563396	0.58865	0.591456	-20.93	8.33	-30.73	-1.6277	-0.4187	-1.1034	
-0.569008	0.57645	0.584258	-21.56	9.24	-31.64	-1.6278	-0.4201	-1.0989	
-0.57401	0.557662	0.587064	-23.24	10.5	-31.92	-1.62	-0.4039	-1.1033	
-0.586942	0.54656	0.588528	-23.45	12.6	-32.9	-1.6172	-0.4051	-1.0928	
-0.60085	0.53985	0.587308	-23.73	12.39	-33.04	-1.6139	-0.4023	-1.1034	
-0.609634	0.542534	0.59048	-23.52	12.04	-32.97	-1.614	-0.4052	-1.0974	
-0.61915	0.52277	0.593286	-24.15	12.67	-31.85	-1.6061	-0.3906	-1.1094	
-0.622566	0.497028	0.588162	-24.5	12.67	-31.78	-1.5924	-0.38	-1.1049	
-0.62525	0.47885	0.599752	-23.66	13.16	-32.76	-1.6	-0.3861	-1.1094	
-0.64538	0.475312	0.5856	-23.38	13.44	-33.32	-1.5892	-0.3742	-1.1124	
-0.664168	0.455548	0.583892	-23.59	13.37	-32.62	-1.5829	-0.3684	-1.12	
-0.661606	0.441884	0.590236	-24.15	11.62	-31.36	-1.5874	-0.3596	-1.1197	
-0.664656	0.435784	0.598288	-24.92	11.2	-31.57	-1.5754	-0.3624	-1.117	
-0.678442	0.417362	0.598532	-26.6	11.41	-31.43	-1.5722	-0.3491	-1.1153	
-0.68442	0.385764	0.605242	-27.09	10.85	-29.82	-1.5738	-0.3505	-1.1138	
-0.678076	0.36905	0.601582	-27.16	10.29	-29.4	-1.5615	-0.3476	-1.12	
-0.691496	0.364292	0.602192	-27.16	11.55	-30.52	-1.5674	-0.3299	-1.1196	
-0.71431	0.35563	0.602924	-28.14	11.9	-31.43	-1.5657	-0.3271	-1.1271	
-0.725412	0.344406	0.59048	-29.05	10.99	-31.36	-1.5582	-0.318	-1.118	
-0.715774	0.314394	0.590114	-29.33	9.66	-30.66	-1.5491	-0.315	-1.1197	
-0.719434	0.292068	0.594384	-28.56	9.59	-30.59	-1.5492	-0.3194	-1.1167	
-0.735782	0.274378	0.596092	-27.93	9.24	-31.15	-1.54	-0.3194	-1.1214	
-0.738344	0.265472	0.61122	-27.58	7.84	-32.13	-1.5596	-0.3047	-1.1178	
-0.73871	0.254614	0.603778	-26.6	7.21	-33.46	-1.5503	-0.2989	-1.1254	
-0.745908	0.23668	0.588406	-25.48	6.86	-33.67	-1.5548	-0.2915	-1.1237	
-0.756888	0.208864	0.602802	-23.59	7.98	-33.18	-1.5365	-0.2737	-1.1237	
-0.761768	0.19581	0.605364	-21.77	5.32	-33.74	-1.5351	-0.2884	-1.124	
-0.761524	0.190198	0.596946	-19.95	3.57	-34.3	-1.5351	-0.2884	-1.124	
-0.75884	0.163968	0.598044	-23.52	4.34	-34.37	-1.5274	-0.2676	-1.1192	
-0.756888	0.154574	0.596214	-22.26	2.66	-32.97	-1.5332	-0.2634	-1.1281	
-0.7625	0.14701	0.593286	-21.77	2.66	-31.85	-1.5392	-0.2487	-1.1277	
-0.773114	0.152012	0.595482	-20.16	3.36	-30.87	-1.5315	-0.2457	-1.1293	
-0.782386	0.145912	0.595238	-22.89	1.19	-30.59	-1.5317	-0.247	-1.1188	
-0.78019	0.121878	0.600362	-24.92	-1.26	-29.33	-1.524	-0.2441	-1.1264	
-0.760426	0.103822	0.611098	-25.97	-2.03	-27.09	-1.5392	-0.2308	-1.1168	
-0.753594	0.08967	0.606096	-26.74	-1.47	-26.04	-1.5255	-0.2263	-1.1185	
-0.775066	0.084912	0.604754	-26.95	1.12	-24.57	-1.536	-0.2235	-1.1243	
-0.777994	0.074298	0.60756	-27.09	0.63	-22.47	-1.5299	-0.2205	-1.1213	
-0.763232	0.062708	0.607316	-26.88	-0.21	-23.52	-1.5328	-0.2162	-1.1288	
-0.762988	0.045384	0.610244	-28.91	0.07	-23.45	-1.5268	-0.2146	-1.1228	
-0.778604	0.000976	0.601094	-28.98	2.03	-21.35	-1.5342	-0.2014	-1.1239	
-0.783362	-0.021716	0.609756	-27.02	1.54	-20.65	-1.5281	-0.1984	-1.127	
-0.786046	-0.02562	0.615978	-26.67	1.75	-22.19	-1.5142	-0.1866	-1.1346	
-0.786778	-0.020862	0.61061	-28	0.63	-20.72	-1.5389	-0.1954	-1.1147	
-0.790804	-0.027694	0.610732	-27.37	0.28	-18.83	-1.5295	-0.1911	-1.1284	
-0.787876	-0.034892	0.601826	-25.2	0.35	-18.48	-1.5201	-0.1734	-1.1343	
-0.785436	-0.051484	0.605486	-23.8	0.56	-17.36	-1.5398	-0.1751	-1.1339	
-0.76311	-0.048312	0.603168	-22.68	-0.07	-17.43	-1.5309	-0.1734	-1.1265	
-0.754814	-0.053924	0.620248	-24.01	1.89	-17.22	-1.5324	-0.1674	-1.1203	
-0.751642	-0.07905599	0.624274	-25.2	3.36	-14.63	-1.5352	-0.1647	-1.1338	
-0.754204	-0.096258	0.632082	-25.13	3.78	-14.07	-1.5308	-0.1601	-1.1247	
-0.740418	-0.102236	0.630008	-24.78	3.99	-17.29	-1.5323	-0.1586	-1.1217	
-0.753716	-0.121756	0.625616	-26.18	4.83	-17.5	-1.5276	-0.1483	-1.1246	
-0.752984	-0.111752	0.610732	-25.13	4.76	-18.41	-1.5322	-0.1498	-1.1245	
-0.772504	-0.08967	0.599142	-26.04	7	-22.26	-1.5321	-0.135	-1.1228	
-0.799222	-0.108702	0.583282	-28.07	6.44	-21.21	-1.5245	-0.1334	-1.1214	
-0.813374	-0.113094	0.56486	-28.07	3.5	-20.86	-1.5216	-0.1288	-1.1123	
-0.806786	-0.10431	0.56303	-29.4	0.91	-24.22	-1.5289	-0.1232	-1.1241	
-0.842166	-0.106018	0.54778	-30.24	-1.26	-25.41	-1.5321	-0.1141	-1.1103	
-0.81923	-0.124074	0.557906	-30.59	-7.77	-26.39	-1.5441	-0.1069	-1.113	
-0.787998	-0.135298	0.563274	-31.71	-8.05	-26.67	-1.532	-0.0993	-1.1055	
-0.779824	-0.130174	0.565226	-30.66	-4.2	-28.91	-1.5424	-0.0967	-1.1173	
-0.765062	-0.139446	0.579256	-32.9	-3.36	-28.28	-1.5347	-0.0848	-1.1173	
-0.756644	-0.191174	0.584258	-34.23	-2.24	-24.22	-1.5454	-0.0818	-1.1094	
-0.751276	-0.24949	0.580598	-32.76	-1.19	-21.91	-1.5363	-0.0847	-1.1112	
-0.756156	-0.287676	0.574864	-32.13	1.05	-20.86	-1.5409	-0.0699	-1.1048	
-0.749568	-0.281942	0.573034	-31.71	1.33	-20.3	-1.5485	-0.0714	-1.1016	
-0.74054	-0.273158	0.572546	-32.9	1.61	-20.09	-1.5363	-0.058	-1.1016	
-0.744566	-0.30073	0.576206	-36.05	1.47	-17.85	-1.5318	-0.0534	-1.0941	
-0.772382	-0.352946	0.56181	-36.61	-0.63	-15.33	-1.5436	-0.0419	-1.1042	
-0.772748	-0.402234	0.566934	-35.49	-6.58	-9.66	-1.5391	-0.0462	-1.1029	
-0.698572	-0.378688	0.595482	-30.45	-7.21	-8.12	-1.5452	-0.0433	-1.1012	
-0.72163	-0.38979	0.587552	-32.41	-0.49	-4.83	-1.5423	-0.0402	-1.0952	
-0.795806	-0.409798	0.564738	-28.63	0.28	-5.6	-1.5421	-0.0255	-1.0964	
-0.75274	-0.413092	0.55632	-21.98	-6.02	-11.34	-1.5528	-0.0241	-1.0932	
-0.713578	-0.419558	0.538142	-20.23	-7.42	-15.68	-1.5469	-0.0268	-1.0858	
-0.74359	-0.406626	0.54168	-14.91	-5.46	-18.48	-1.5575	-0.0285	-1.0871	
-0.716872	-0.360266	0.550342	-11.97	-6.09	-24.57	-1.5572	-0.0213	-1.0991	
-0.717604	-0.355386	0.53924	-13.3	-6.86	-24.78	-1.5571	-0.0065	-1.0958	
-0.728706	-0.363072	0.52887	-13.16	-6.58	-25.62	-1.5601	-0.002	-1.0926	
-0.717482	-0.359778	0.54168	-14.14	-5.95	-23.59	-1.5571	-0.0139	-1.0959	
-0.719678	-0.37576	0.521428	-15.61	-6.02	-21.14	-1.5662	-0.0021	-1.0925	
-0.702354	-0.364414	0.543998	-16.24	-6.16	-20.44	-1.5677	-0.0021	-1.094	
-0.707112	-0.38674	0.542534	-19.88	-5.46	-19.53	-1.5753	-0.0036	-1.0908	
-0.684298	-0.39162	0.546072	-19.81	-7.49	-19.6	-1.5754	-0.0006	-1.0847	
-0.694058	-0.421022	0.538386	-24.22	-5.88	-21.42	-1.5725	0.0055	-1.0726	
-0.69235	-0.428098	0.526674	-25.55	-4.69	-21.98	-1.5741	0.004	-1.0696	
-0.684054	-0.405772	0.518378	-27.3	-4.9	-24.15	-1.5752	0.0125	-1.089	
-0.709064	-0.424194	0.512522	-30.45	-4.76	-22.96	-1.5709	0.0143	-1.0725	
-0.696376	-0.44408	0.52216	-31.01	-5.81	-21.98	-1.5785	0.0246	-1.0706	
-0.691496	-0.499102	0.522404	-32.06	-7.7	-21.14	-1.5813	0.0363	-1.0764	
-0.704916	-0.54412	0.510448	-33.18	-8.12	-20.79	-1.5811	0.0391	-1.0824	
-0.70821	-0.539972	0.513498	-31.5	-9.1	-20.16	-1.5891	0.0335	-1.0627	
-0.70394	-0.549732	0.507032	-27.65	-10.22	-18.13	-1.5876	0.0365	-1.0612	
-0.725412	-0.58011	0.48312	-27.93	-14.7	-12.74	-1.6057	0.0526	-1.059	
-0.698694	-0.571082	0.51423	-27.02	-18.97	-9.52	-1.6101	0.0524	-1.065	
-0.670512	-0.618906	0.516548	-26.74	-21.49	-11.83	-1.6011	0.063	-1.0559	
-0.646112	-0.61183	0.513498	-18.34	-20.51	-13.02	-1.6147	0.0584	-1.0572	
-0.641964	-0.583892	0.516914	-17.85	-16.87	-16.03	-1.6118	0.06	-1.0527	
-0.63623	-0.564006	0.50325	-15.12	-16.24	-16.8	-1.61	0.0717	-1.0586	
-0.61122	-0.5978	0.510448	-15.96	-18.62	-15.12	-1.6207	0.0702	-1.0569	
-0.62891	-0.602436	0.5002	-11.76	-14.42	-14.35	-1.6224	0.0599	-1.0525	
-0.62281	-0.587308	0.500322	-8.89	-13.44	-14.77	-1.6405	0.0641	-1.0566	
-0.59292	-0.579622	0.495686	-7	-13.58	-13.86	-1.6328	0.0671	-1.0582	
-0.583526	-0.580232	0.501054	-5.53	-11.9	-12.04	-1.6405	0.07449999	-1.0504	
-0.579988	-0.577426	0.50264	-6.16	-10.78	-11.83	-1.6343	0.0849	-1.0503	
-0.568276	-0.581696	0.538142	-6.02	-10.71	-12.04	-1.6419	0.0788	-1.0548	
-0.545218	-0.607804	0.534482	-9.45	-11.06	-11.48	-1.6405	0.0641	-1.0536	
-0.550464	-0.608048	0.542778	-9.17	-8.4	-11.41	-1.648	0.0669	-1.0595	
-0.559492	-0.615246	0.529602	-8.82	-7.42	-10.78	-1.645	0.0729	-1.0534	
-0.556198	-0.626104	0.537044	-9.31	-7.28	-7.56	-1.6464	0.0818	-1.0532	
-0.554612	-0.646478	0.529724	-8.96	-5.88	-6.86	-1.6435	0.0804	-1.0502	
-0.563518	-0.646966	0.539118	-6.93	-4.9	-6.65	-1.6571	0.0714	-1.0532	
-0.567666	-0.669048	0.536678	-6.44	-4.62	-5.25	-1.6373	0.0819	-1.0533	
-0.563152	-0.665632	0.538264	-1.82	-3.22	-3.29	-1.6525	0.0832	-1.05	
-0.563518	-0.6649	0.533384	0.7	-1.75	-1.75	-1.6602	0.0744	-1.0485	
-0.57035	-0.671976	0.528626	2.1	-0.63	-0.56	-1.6572	0.0774	-1.0455	
-0.573278	-0.671122	0.526918	4.62	0.42	0.63	-1.6573	0.076	-1.0395	
-0.571204	-0.64294	0.521184	7.91	0.98	1.54	-1.6693	0.0743	-1.0483	
-0.57096	-0.625006	0.524112	8.82	0.63	2.52	-1.6586	0.0803	-1.0484	
-0.569618	-0.636718	0.531066	9.24	0.7	3.15	-1.6571	0.08769999	-1.0438	
-0.57035	-0.647942	0.527772	9.87	0.84	4.13	-1.6525	0.0714	-1.0548	
-0.566934	-0.628056	0.530456	11.83	1.19	5.53	-1.6494	0.0847	-1.0515	
-0.5673	-0.609878	0.530212	11.97	2.03	6.65	-1.6645	0.077	-1.062	
-0.56486	-0.61244	0.528748	11.13	1.89	7.63	-1.6494	0.0817	-1.0576	
-0.57035	-0.61549	0.532164	11.13	2.66	7.91	-1.657	0.0742	-1.0576	
-0.572546	-0.610244	0.53192	12.04	3.22	7.42	-1.6556	0.0699	-1.0532	
-0.580354	-0.611098	0.532652	12.53	3.15	8.68	-1.6466	0.0656	-1.052	
-0.58804	-0.616588	0.531798	12.39	3.5	10.29	-1.6465	0.061	-1.0611	
-0.590602	-0.605852	0.530456	13.65	4.2	11.27	-1.6451	0.0685	-1.0519	
-0.599996	-0.590236	0.534116	15.05	4.06	13.02	-1.6387	0.0609	-1.0688	
-0.60329	-0.596336	0.5368	15.12	2.59	12.67	-1.6417	0.0668	-1.0671	
-0.59658	-0.579622	0.541802	16.73	3.01	13.16	-1.6387	0.0669	-1.0672	
-0.607316	-0.567422	0.541192	15.75	2.8	14	-1.6405	0.0582	-1.0567	
-0.602192	-0.562298	0.541314	15.82	2.03	13.65	-1.6433	0.0549	-1.0718	
-0.608536	-0.549732	0.543144	14.91	2.45	14.42	-1.6374	0.0566	-1.0644	
-0.617808	-0.54473	0.54656	14.42	2.1	14.77	-1.6296	0.0595	-1.072	
-0.624152	-0.534848	0.548756	14.91	1.26	16.03	-1.6314	0.0419	-1.0678	
-0.60695	-0.52826	0.560712	15.26	0.14	16.73	-1.6296	0.052	-1.0767	
-0.618296	-0.532164	0.56059	14.35	0.84	16.94	-1.6221	0.0448	-1.0739	
-0.625616	-0.52338	0.56547	15.68	1.26	16.66	-1.6297	0.0417	-1.0769	
-0.623908	-0.519598	0.569618	16.73	0.98	17.01	-1.6207	0.0315	-1.0757	
-0.624518	-0.516182	0.56425	16.52	1.12	18.2	-1.616	0.0403	-1.0802	
-0.625128	-0.495686	0.574742	17.5	1.82	18.2	-1.6328	0.0388	-1.0754	
-0.634156	-0.4941	0.5795	16.87	2.17	18.2	-1.6203	0.0326	-1.0969	
-0.638914	-0.493246	0.581574	16.94	1.47	19.25	-1.6238	0.027	-1.0758	
-0.636718	-0.485438	0.584868	18.41	2.17	19.18	-1.6146	0.0285	-1.0819	
-0.64355	-0.48129	0.57828	18.34	2.59	19.74	-1.6086	0.0242	-1.0806	
-0.653066	-0.468724	0.585722	19.74	2.87	20.51	-1.6163	0.0227	-1.0745	
-0.654896	-0.45201	0.583282	20.51	2.8	20.93	-1.6147	0.0122	-1.0837	
-0.657092	-0.441274	0.591212	21.84	2.66	20.44	-1.6099	0.021	-1.0897	
-0.656726	-0.438102	0.601582	22.96	2.59	20.3	-1.5948	0.0048	-1.0979	
-0.653554	-0.429318	0.602802	24.01	3.01	21.35	-1.604	0.0108	-1.09	
-0.65331	-0.413458	0.598532	24.64	4.27	22.54	-1.6055	0.0033	-1.0932	
-0.665144	-0.38796	0.60878	24.64	5.11	23.24	-1.5889	-0.0112	-1.0968	
-0.674782	-0.394792	0.608414	24.43	4.06	23.52	-1.6009	-0.0071	-1.104	
-0.666242	-0.3904	0.608048	27.23	3.01	23.87	-1.5994	-0.0055	-1.101	
-0.677832	-0.375638	0.607926	27.72	3.85	23.24	-1.5874	-0.0217	-1.1045	
-0.678686	-0.361608	0.612562	28.77	4.97	21.7	-1.5888	-0.0262	-1.1106	
-0.683932	-0.352092	0.618662	29.12	4.55	23.94	-1.5951	-0.038	-1.1062	
-0.678808	-0.340014	0.621468	30.45	4.27	25.06	-1.589	-0.0305	-1.1001	
-0.684664	-0.3172	0.616344	30.94	5.11	23.73	-1.5814	-0.0409	-1.111	
-0.693448	-0.292556	0.61793	30.87	6.3	22.96	-1.5753	-0.0453	-1.1112	
-0.70638	-0.281088	0.620736	30.1	6.72	23.87	-1.5799	-0.0483	-1.1112	
-0.7015	-0.269742	0.626348	30.1	5.46	25.27	-1.5799	-0.0483	-1.1142	
-0.700158	-0.257054	0.625616	30.52	6.58	25.83	-1.5617	-0.0586	-1.1193	
-0.718946	-0.24339	0.6283	30.52	8.54	24.64	-1.577	-0.066	-1.1146	
-0.715652	-0.213012	0.628666	32.62	7.98	22.82	-1.5711	-0.0762	-1.1119	
-0.71919	-0.194834	0.632692	33.04	8.89	22.33	-1.5771	-0.0793	-1.1148	
-0.737612	-0.198128	0.624884	32.48	8.96	22.4	-1.5587	-0.0719	-1.1256	
-0.74359	-0.183976	0.615612	35.84	8.33	22.89	-1.5694	-0.0838	-1.1241	
-0.753594	-0.160796	0.625982	33.53	8.4	26.25	-1.5557	-0.0911	-1.1306	
-0.74786	-0.11773	0.62525	34.16	7.91	26.67	-1.5575	-0.0984	-1.1231	
-0.749324	-0.096014	0.630374	30.17	8.26	25.2	-1.5573	-0.09999999	-1.1322	
-0.776164	-0.090646	0.622078	28.84	8.4	24.01	-1.5484	-0.1087	-1.1265	
-0.771284	-0.104066	0.61732	27.72	3.85	25.34	-1.5425	-0.1189	-1.1253	
-0.746274	-0.086742	0.618052	30.1	2.17	25.69	-1.5439	-0.1234	-1.1299	
-0.75091	-0.063684	0.620126	28.98	5.81	23.94	-1.55	-0.122	-1.1282	
-0.758718	-0.038186	0.622688	28.91	6.65	22.89	-1.544	-0.1309	-1.133	
-0.76372	-0.023668	0.617564	27.79	5.04	22.33	-1.544	-0.1338	-1.1331	
-0.76372	-0.049776	0.6222	30.31	2.8	23.59	-1.5366	-0.141	-1.1243	
-0.752862	-0.061488	0.62525	33.95	3.78	21.63	-1.5291	-0.1498	-1.1261	
-0.75457	-0.031964	0.63074	35.91	4.83	17.99	-1.5428	-0.1484	-1.1258	
-0.761036	0.001952	0.626592	35.49	5.32	13.79	-1.5443	-0.1559	-1.1289	
-0.764086	0.016714	0.623542	34.79	4.83	9.73	-1.5293	-0.1749	-1.1311	
-0.763964	0.031354	0.628178	34.65	4.76	5.32	-1.5401	-0.1749	-1.1218	
-0.760792	0.036966	0.63196	35.14	5.11	1.47	-1.5401	-0.1822	-1.122	
-0.76067	0.037332	0.619516	35	6.3	-0.84	-1.5385	-0.1972	-1.1343	
-0.759694	0.05002	0.625372	32.76	7	-2.31	-1.5342	-0.197	-1.1238	
-0.763842	0.059536	0.626592	31.29	7.49	-1.47	-1.5266	-0.2059	-1.1302	
-0.770308	0.063196	0.616466	29.33	7.14	-0.21	-1.5265	-0.197	-1.1315	
-0.780068	0.061854	0.613538	28.63	6.3	1.19	-1.5327	-0.1969	-1.1224	
-0.774212	0.062708	0.62342	27.72	4.76	4.06	-1.5296	-0.2089	-1.1332	
-0.757864	0.099674	0.621956	24.01	3.92	7.84	-1.528	-0.206	-1.1362	
-0.765428	0.157136	0.629276	19.81	6.65	10.43	-1.5282	-0.2221	-1.132	
-0.75945	0.204838	0.615124	11.76	8.61	11.76	-1.5297	-0.2177	-1.1303	
-0.786778	0.201422	0.613294	-2.59	11.97	18.83	-1.5296	-0.2163	-1.1349	
-0.804712	0.170556	0.590846	-5.74	10.99	26.53	-1.5282	-0.2132	-1.1288	
-0.789828	0.162382	0.610244	-8.68	8.12	32.41	-1.5327	-0.2148	-1.1317	
-0.799222	0.178242	0.601704	-12.25	9.1	35.14	-1.5193	-0.2278	-1.1262	
-0.814716	0.169458	0.59109	-17.01	8.68	33.25	-1.5222	-0.2205	-1.129	
-0.816424	0.144814	0.590602	-14.91	5.25	31.99	-1.5207	-0.216	-1.1244	
-0.797148	0.148474	0.59414	-15.61	0.56	31.92	-1.5193	-0.2144	-1.1169	
-0.779214	0.155428	0.604754	-19.53	0.7	30.66	-1.5284	-0.216	-1.1198	
-0.781044	0.166286	0.612562	-21.84	3.43	30.94	-1.5268	-0.222	-1.1275	
-0.786534	0.152256	0.611586	-18.06	-0.07	29.68	-1.5237	-0.2205	-1.1275	
-0.77531	0.106994	0.61122	-14.7	-0.98	25.2	-1.5282	-0.2162	-1.1288	
-0.765306	0.10858	0.611708	-10.01	-1.82	21.07	-1.5178	-0.2233	-1.1231	
-0.759816	0.121024	0.618174	-7	-2.45	17.92	-1.5224	-0.2189	-1.1199	
-0.762744	0.132248	0.61854	-3.78	-1.54	13.44	-1.5283	-0.2175	-1.1228	
-0.769698	0.148962	0.623664	-1.12	-0.7	9.03	-1.5207	-0.2205	-1.1291	
-0.765794	0.156282	0.618418	2.38	-1.61	6.79	-1.5054	-0.2145	-1.1308	
-0.763598	0.154574	0.622444	2.45	-1.4	3.92	-1.5344	-0.2161	-1.1242	
-0.755912	0.165066	0.619394	3.78	0	0.84	-1.5222	-0.2221	-1.1321	
-0.767258	0.180682	0.614636	1.68	1.82	0.98	-1.5118	-0.2306	-1.1219	
-0.786778	0.18971	0.607072	-0.77	3.5	-0.49	-1.5131	-0.2189	-1.1262	
-0.80642	0.210206	0.597312	-0.91	3.71	-3.43	-1.5133	-0.2232	-1.1202	
-0.77714	0.206302	0.601582	1.89	1.89	-0.56	-1.5146	-0.2264	-1.1308	
-0.751276	0.181536	0.606584	-1.19	0.84	0.77	-1.521	-0.2336	-1.1202	
-0.762622	0.15738	0.60329	-3.43	4.97	-3.08	-1.5209	-0.2174	-1.1184	
-0.78995	0.149084	0.590602	-2.45	5.67	-5.95	-1.524	-0.2158	-1.1123	
-0.787998	0.180682	0.599142	-3.99	2.94	-6.3	-1.5193	-0.2174	-1.1185	
-0.772504	0.214964	0.609268	-8.82	1.75	-3.57	-1.5147	-0.2189	-1.1231	
-0.778116	0.216062	0.608414	-16.31	3.15	1.33	-1.515	-0.2201	-1.1065	
-0.790072	0.201422	0.6039	-20.72	4.41	5.32	-1.5056	-0.2188	-1.1263	
-0.797392	0.200568	0.601338	-28.7	3.01	11.2	-1.5268	-0.213	-1.1197	
-0.791292	0.17629	0.604022	-34.02	2.59	17.5	-1.5103	-0.2143	-1.114	
-0.78507	0.15067	0.60268	-37.03	1.33	24.64	-1.5145	-0.1982	-1.1227	
