Sensor string: A
Serial number: 1970-01-0000
Firmware version: 2,015
Hardware version: 2,2
Calibration quality: 5
ax	ay	az	gx	gy	gz	mx	my	mz

0.224968	0.742736	0.695034	-0.14	1.75	0.77	-0.1096	-0.2114	-0.3554	Reference
0.238266	0.715164	0.67771	2.31	1.89	-4.2	-0.1123	-0.2143	-0.3615	
0.220454	0.700646	0.657702	5.88	1.89	-5.11	-0.1225	-0.2125	-0.3614	
0.232288	0.712236	0.63013	9.66	-1.26	-1.75	-0.1167	-0.2096	-0.3676	
0.213988	0.740174	0.598044	15.4	2.59	-3.22	-0.1078	-0.2176	-0.363	
0.166042	0.76799	0.556442	16.73	2.59	-3.71	-0.1077	-0.2206	-0.3722	
0.1403	0.800442	0.527406	17.99	-1.89	0.28	-0.1095	-0.2129	-0.36	
0.138714	0.845826	0.513498	16.94	-7.07	1.4	-0.1109	-0.2129	-0.3661	
0.152134	0.870104	0.52094	15.4	-12.25	1.12	-0.1076	-0.2268	-0.36	
0.187026	0.872544	0.535336	12.74	-13.09	-3.15	-0.1206	-0.2263	-0.3553	
0.217648	0.8357	0.5551	7.49	-11.83	-8.19	-0.1205	-0.231	-0.3461	
0.242902	0.803614	0.55693	4.9	-5.67	-9.73	-0.1136	-0.222	-0.3492	
0.245586	0.788364	0.549366	3.29	-0.07	-11.48	-0.116	-0.2326	-0.3583	
0.231312	0.791048	0.533994	1.33	0.7	-7.35	-0.1205	-0.2294	-0.3537	
0.211426	0.788242	0.535824	2.66	5.6	-3.92	-0.1162	-0.228	-0.3538	
0.199592	0.803126	0.540216	7.28	8.47	-1.75	-0.1031	-0.2331	-0.3493	
0.20069	0.80642	0.546072	5.04	5.46	-0.35	-0.1087	-0.2375	-0.3553	
0.227042	0.817644	0.541802	6.44	6.09	0.56	-0.1204	-0.2325	-0.3598	
0.216916	0.828502	0.534726	6.86	9.24	0.91	-0.1101	-0.2374	-0.3553	
0.185684	0.827892	0.518378	7	9.17	2.59	-0.1029	-0.2377	-0.3554	
0.172508	0.828624	0.50081	6.72	4.69	2.73	-0.1073	-0.2376	-0.3462	
0.157136	0.83021	0.488854	7.98	-0.21	3.64	-0.1191	-0.2279	-0.3598	
0.148718	0.890356	0.493246	13.51	-5.46	0.49	-0.1146	-0.2358	-0.3507	
0.166286	0.912682	0.486292	10.01	-5.53	-4.62	-0.113	-0.242	-0.3446	
0.16348	0.875472	0.472628	6.44	-4.83	-8.47	-0.113	-0.2389	-0.3477	
0.166164	0.876936	0.463356	2.03	-8.19	-7.56	-0.1115	-0.242	-0.3431	
0.19215	0.862296	0.479338	-2.38	-9.73	-6.93	-0.1085	-0.2421	-0.3569	
0.196054	0.840092	0.487024	-2.8	-8.68	-5.6	-0.1143	-0.2434	-0.3476	
0.196664	0.83631	0.497516	-0.98	-9.17	-6.86	-0.1044	-0.2392	-0.3477	
0.200324	0.833504	0.507886	-0.28	-7.98	-4.2	-0.1204	-0.2356	-0.3491	
0.210816	0.820084	0.527162	-1.61	-8.82	-1.61	-0.1143	-0.245	-0.3476	
0.210328	0.818864	0.545462	-1.47	-7.07	-1.19	-0.1087	-0.2421	-0.3385	
0.208986	0.801662	0.553514	0.21	-3.85	-0.84	-0.1131	-0.2404	-0.3415	
0.20557	0.79544	0.551684	5.18	-0.49	-2.52	-0.1145	-0.2388	-0.3476	
0.194346	0.812764	0.541924	7.91	2.17	-0.35	-0.1288	-0.2414	-0.349	
0.194346	0.817156	0.538996	7.07	1.89	2.38	-0.1117	-0.2328	-0.3553	
0.204228	0.817522	0.526186	6.3	1.26	2.59	-0.1171	-0.248	-0.3415	
0.220088	0.821792	0.51545	6.58	2.59	2.66	-0.107	-0.2498	-0.3431	
0.210694	0.840702	0.504714	7.21	3.71	1.82	-0.1127	-0.2512	-0.3446	
0.200934	0.859124	0.501664	7.28	5.11	1.75	-0.117	-0.251	-0.3445	
0.19215	0.861442	0.49288	6.09	5.88	0.77	-0.11	-0.2436	-0.3446	
0.18483	0.876326	0.475312	4.55	5.39	0.77	-0.1143	-0.2465	-0.3415	
0.17629	0.880596	0.471652	3.57	5.25	-0.28	-0.1155	-0.2557	-0.3354	
0.166652	0.876326	0.471286	2.87	5.25	-1.61	-0.12	-0.2478	-0.3415	
0.15799	0.873032	0.472872	3.15	5.11	-1.54	-0.1112	-0.2512	-0.3431	
0.157014	0.874984	0.472872	2.1	3.08	-1.12	-0.1127	-0.2512	-0.3431	
0.165554	0.86437	0.481168	0.7	2.31	-0.91	-0.1109	-0.262	-0.3461	
0.174338	0.860466	0.48312	0.42	1.89	-1.68	-0.1038	-0.2592	-0.3431	
0.171898	0.861564	0.482266	1.05	2.45	-2.59	-0.1082	-0.2606	-0.3309	
0.173118	0.862662	0.479826	1.19	3.29	-2.24	-0.1112	-0.2528	-0.3385	
0.174826	0.861564	0.482998	0.77	2.94	-1.82	-0.1068	-0.2544	-0.3462	
0.173606	0.859246	0.483608	-0.07	2.45	-1.19	-0.1023	-0.2592	-0.3416	
0.175436	0.848144	0.484462	-0.42	2.03	-0.63	-0.1012	-0.25	-0.3432	
0.179706	0.845948	0.479338	-0.35	0.63	-0.98	-0.1085	-0.2436	-0.3492	
0.183976	0.856318	0.484096	0.98	0.42	-0.7	-0.1027	-0.2485	-0.3447	
0.17629	0.855098	0.487634	0.42	1.05	-1.26	-0.1069	-0.2498	-0.3446	
0.164944	0.859002	0.486536	1.12	-0.07	-1.82	-0.1211	-0.2585	-0.3445	
0.161528	0.864248	0.485926	1.54	-0.42	-1.61	-0.1126	-0.2527	-0.3461	
0.166042	0.857538	0.48739	0.98	-0.77	-2.03	-0.1097	-0.2559	-0.3324	
0.168848	0.85339	0.48861	0.63	-0.91	-3.08	-0.1097	-0.2559	-0.337	
0.167628	0.851072	0.492514	1.12	-1.26	-3.99	-0.1096	-0.2574	-0.3385	
0.166408	0.855342	0.490318	1.47	-0.7	-3.64	-0.1038	-0.2592	-0.3385	
0.165066	0.851926	0.491782	2.17	-0.21	-3.43	-0.1023	-0.2608	-0.334	
0.168848	0.85583	0.490684	3.5	-0.91	-3.36	-0.1081	-0.2559	-0.3507	
0.171166	0.868884	0.49105	3.78	-1.33	-4.06	-0.0979	-0.2609	-0.3447	
0.171166	0.857294	0.483974	3.15	-0.14	-4.41	-0.1092	-0.2697	-0.3385	
0.167384	0.850828	0.4819	3.64	0.07	-4.83	-0.1027	-0.2516	-0.3325	
0.170678	0.85766	0.483364	4.41	0	-3.64	-0.0994	-0.2624	-0.334	
0.174948	0.863394	0.48007	3.01	-0.14	-1.96	-0.09519999	-0.2595	-0.334	
0.175558	0.866444	0.47153	1.96	0.42	-2.1	-0.1083	-0.2513	-0.3477	
0.1708	0.882426	0.463966	2.66	1.54	-2.73	-0.1009	-0.2592	-0.3447	
0.158966	0.891576	0.458354	2.45	2.94	-1.89	-0.1124	-0.2604	-0.34	
0.161528	0.89182	0.44042	-0.49	2.24	-0.77	-0.0964	-0.264	-0.3386	
0.146888	0.91195	0.438712	-1.54	2.03	-1.12	-0.1005	-0.2685	-0.3462	
0.13725	0.90158	0.44408	-2.31	3.01	-0.28	-0.1009	-0.2623	-0.3309	
0.134444	0.895236	0.4514	-2.59	2.17	-1.33	-0.1023	-0.2592	-0.3431	
0.134932	0.897066	0.457256	-2.52	1.12	-3.01	-0.1022	-0.2607	-0.3447	
0.138836	0.884256	0.452132	-4.69	1.82	-4.41	-0.1022	-0.2607	-0.3508	
0.14823	0.883036	0.460672	-4.2	0.91	-4.55	-0.0995	-0.2562	-0.3478	
0.142618	0.890112	0.467626	-5.53	1.89	-3.92	-0.1023	-0.2592	-0.3447	
0.145424	0.879498	0.457866	-6.79	1.05	-2.94	-0.0923	-0.258	-0.3387	
0.149694	0.878766	0.461038	-7.07	0	-2.94	-0.09649999	-0.2579	-0.3508	
0.147986	0.882426	0.455304	-6.09	0.98	-3.57	-0.0911	-0.2504	-0.3433	
0.137616	0.879376	0.45811	-5.67	1.47	-4.83	-0.0968	-0.2517	-0.3463	
0.12017	0.889502	0.444324	-6.79	1.26	-5.95	-0.0911	-0.2504	-0.3387	
0.105896	0.909266	0.430782	-7.98	0.56	-6.58	-0.0927	-0.2458	-0.3372	
0.09638	0.929884	0.42029	-8.33	0.21	-5.6	-0.101	-0.2562	-0.3432	
0.098698	0.928786	0.403454	-13.58	-1.19	-4.62	-0.0982	-0.2548	-0.3401	
0.106262	0.955504	0.393084	-16.17	-2.38	-4.48	-0.0937	-0.258	-0.3478	
0.096624	0.95953	0.388204	-20.93	2.17	-5.39	-0.1013	-0.2454	-0.3462	
0.082228	0.928298	0.394792	-27.02	2.94	-3.92	-0.0869	-0.2459	-0.3449	
0.07747	0.902922	0.40565	-32.69	-0.84	1.68	-0.0854	-0.2444	-0.354	
0.08845	0.898774	0.410408	-36.68	-6.23	5.25	-0.0958	-0.2364	-0.3524	
0.101992	0.923052	0.418338	-39.2	-8.54	5.88	-0.1026	-0.2484	-0.3554	
0.08784	0.917684	0.437858	-45.22	-4.9	6.51	-0.1001	-0.2347	-0.357	
0.09272	0.842166	0.475434	-52.43	-8.12	7.56	-0.1005	-0.2224	-0.357	
0.120292	0.81679	0.48739	-53.83	-11.76	9.52	-0.101	-0.204	-0.3677	
0.125538	0.834602	0.474824	-55.37	-12.88	11.76	-0.1113	-0.199	-0.3661	
0.114192	0.826916	0.469334	-59.29	-9.45	12.32	-0.1116	-0.1883	-0.3738	
0.11102	0.810202	0.472628	-64.82	-9.59	13.02	-0.1146	-0.1866	-0.3707	
0.099308	0.772016	0.495564	-74.69	-10.29	14.49	-0.1177	-0.1773	-0.3783	
0.112972	0.702964	0.580964	-75.74	-10.85	15.96	-0.1067	-0.1608	-0.3815	
0.16897	0.677832	0.60207	-73.85	-14.91	18.76	-0.1184	-0.1558	-0.3799	
0.169092	0.739808	0.614026	-73.08	-16.8	24.22	-0.1191	-0.1297	-0.3983	
0.162748	0.668438	0.613782	-76.79	-10.64	23.24	-0.128	-0.1217	-0.3982	
0.177388	0.600484	0.625982	-78.96	-10.22	23.1	-0.1268	-0.1141	-0.4028	
0.198006	0.538142	0.661362	-85.33	-11.41	20.37	-0.1417	-0.0982	-0.4103	
0.211304	0.496418	0.720288	-79.73	-12.46	25.76	-0.1351	-0.0816	-0.4028	
0.237778	0.53131	0.734806	-72.59	-13.51	23.94	-0.1282	-0.0726	-0.4029	
0.230458	0.569374	0.757864	-71.26	-13.72	23.52	-0.1285	-0.0619	-0.3999	
0.254858	0.518134	0.781654	-77.28	-11.97	26.53	-0.1421	-0.0446	-0.3998	
0.271084	0.430538	0.78751	-80.22	-10.29	26.46	-0.1509	-0.0366	-0.4089	
0.273402	0.390156	0.786534	-78.19	-7.49	24.92	-0.1475	-0.0122	-0.4013	
0.277062	0.36112	0.795806	-76.02	-6.72	22.26	-0.1506	-0.0059	-0.4059	
0.259982	0.362462	0.78507	-74.2	-7.21	20.93	-0.1499	0.0185	-0.409	
0.253516	0.354044	0.804712	-74.83	-6.93	22.26	-0.1502	0.0262	-0.3999	
0.277428	0.306098	0.823988	-77.49	-8.4	22.47	-0.1564	0.0355	-0.3907	
0.296338	0.257542	0.855098	-79.24	-9.31	23.03	-0.1409	0.0488	-0.3939	
0.313784	0.17812	0.902312	-77.49	-7.42	24.29	-0.153	0.0646	-0.3923	
0.324032	0.1342	0.920124	-71.75	-6.02	22.54	-0.1548	0.07539999	-0.3908	
0.33184	0.11712	0.935496	-65.17	-5.95	20.09	-0.1581	0.0816	-0.3786	
0.354044	0.101504	0.976122	-60.62	-6.3	20.58	-0.1528	0.0983	-0.3863	
0.364658	0.07198	1.001132	-58.59	-6.86	19.18	-0.1545	0.106	-0.3863	
0.37332	0.047336	1.027484	-54.04	-6.23	17.01	-0.1573	0.1046	-0.3878	
0.38979	0.031598	1.046516	-49.91	-4.48	13.93	-0.1609	0.1261	-0.3817	
0.396866	0.002074	1.056032	-46.76	-2.31	10.43	-0.1512	0.135	-0.3788	
0.384788	-0.037576	1.04005	-41.72	0.7	9.87	-0.1554	0.1305	-0.3772	
0.367464	-0.060024	1.024678	-34.44	1.96	8.33	-0.1555	0.1351	-0.3741	
0.359046	-0.060268	1.011258	-27.93	1.12	8.05	-0.1544	0.1458	-0.3849	
0.350994	-0.064904	1.010282	-22.12	0.42	7.28	-0.1577	0.1551	-0.3742	
0.358436	-0.067466	1.012722	-16.03	-1.19	6.58	-0.1578	0.1597	-0.3757	
0.37027	-0.065148	1.0187	-13.3	-4.55	5.04	-0.1535	0.1611	-0.3757	
0.381006	-0.04453	1.023336	-8.4	-4.41	2.38	-0.1506	0.161	-0.3788	
0.378688	-0.038796	1.021506	-4.83	-3.15	0.91	-0.1522	0.1672	-0.3804	
0.376126	-0.055632	1.024434	1.19	-2.1	-0.14	-0.1621	0.1599	-0.3757	
0.380274	-0.050508	1.028338	5.81	-2.52	-1.19	-0.1561	0.152	-0.3757	
0.38369	-0.042578	1.032486	10.15	-2.52	-2.59	-0.1518	0.1565	-0.3849	
0.382836	-0.02745	1.02907	13.02	-2.1	-1.82	-0.1665	0.16	-0.3726	
0.388814	-0.03111	1.027728	17.71	-0.49	-3.71	-0.146	0.1547	-0.3804	
0.390888	-0.02196	1.030168	21.56	-0.77	-5.6	-0.1432	0.1531	-0.3667	
0.388082	-0.011346	1.02602	25.41	0.28	-5.6	-0.1574	0.1505	-0.3818	
0.385276	-0.004636	1.021872	28	-0.91	-5.18	-0.1631	0.1446	-0.371	
0.38247	-0.009272	1.01626	33.39	1.05	-7.7	-0.1527	0.1381	-0.3772	
0.373564	-0.00488	1.01016	38.08	-1.26	-11.34	-0.1568	0.1321	-0.3802	
0.372222	0.02074	0.994056	43.33	-1.19	-11.83	-0.1556	0.1397	-0.3802	
0.375028	0.030012	0.989298	47.11	-2.03	-14.63	-0.1536	0.1244	-0.3924	
0.36661	0.041236	0.972218	51.52	-2.45	-16.31	-0.1682	0.1264	-0.377	
0.369904	0.064538	0.959896	53.76	-4.55	-14.63	-0.1631	0.1048	-0.3893	
0.367952	0.080032	0.952698	58.38	-5.32	-18.06	-0.1686	0.0973	-0.3907	
0.355264	0.1098	0.93879	62.51	-4.55	-21.35	-0.1564	0.0785	-0.3938	
0.358802	0.129808	0.924394	67.41	-5.88	-22.33	-0.1618	0.0679	-0.3892	
0.36539	0.14579	0.918904	69.93	-8.12	-21.77	-0.1672	0.0574	-0.3967	
0.364536	0.173362	0.907558	73.71	-7.28	-23.87	-0.1672	0.0559	-0.3921	
0.371002	0.1952	0.894626	76.44	-6.37	-24.5	-0.1575	0.0279	-0.3968	
0.358314	0.202398	0.870592	79.87	-3.78	-26.67	-0.1632	0.022	-0.3921	
0.338184	0.225334	0.841068	83.79	-3.57	-27.37	-0.1745	0.0178	-0.3966	
0.331352	0.271938	0.811056	87.78	-2.59	-30.24	-0.1651	-0.007	-0.3935	
0.320128	0.319152	0.793854	90.09	-0.84	-31.08	-0.172	-0.0175	-0.3904	
0.318664	0.329644	0.7869	91.14	0.35	-31.57	-0.1687	-0.0283	-0.3965	
0.318298	0.346358	0.77775	93.59	0.77	-31.08	-0.1664	-0.0514	-0.398	
0.309392	0.367586	0.76006	95.83	1.26	-32.06	-0.1632	-0.0622	-0.398	
0.288286	0.40565	0.724802	98.98	3.08	-33.04	-0.1684	-0.07889999	-0.3979	
0.25864	0.457378	0.683688	100.52	5.39	-33.53	-0.168	-0.09429999	-0.3841	
0.237534	0.49044	0.649406	101.57	8.26	-32.62	-0.1644	-0.1159	-0.3841	
0.22082	0.492758	0.61854	103.04	8.68	-30.87	-0.1684	-0.1295	-0.3733	
0.213866	0.535702	0.554002	106.54	5.67	-28.98	-0.1588	-0.159	-0.3703	
0.208986	0.59414	0.5063	108.15	5.32	-28	-0.1494	-0.1808	-0.3673	
0.209352	0.624884	0.464698	110.39	10.36	-30.45	-0.1547	-0.196	-0.3642	
0.194956	0.64477	0.41114	114.17	17.08	-34.23	-0.1469	-0.2147	-0.3596	
0.179462	0.67466	0.341844	116.41	17.78	-37.31	-0.132	-0.2336	-0.346	
0.180926	0.774578	0.303292	120.89	13.16	-36.47	-0.1302	-0.2475	-0.3368	
0.157136	0.82716	0.257908	119.42	10.85	-32.41	-0.1424	-0.2762	-0.3183	
0.118706	0.88145	0.203252	120.26	13.72	-28.42	-0.1349	-0.2811	-0.3275	
0.09821	0.914146	0.166774	113.82	5.95	-31.08	-0.1201	-0.2985	-0.3077	
0.078324	0.932324	0.130052	108.99	2.17	-31.01	-0.1166	-0.3232	-0.2894	
0.066612	0.93513	0.107726	101.71	-2.45	-35.42	-0.118	-0.3247	-0.2848	
0.063806	0.945866	0.078568	97.02	-5.25	-35.56	-0.1132	-0.3418	-0.2772	
0.056364	0.945012	0.03538	92.61	-7.7	-31.01	-0.1058	-0.3528	-0.2589	
0.059902	0.989664	0.013664	88.97	-13.65	-22.47	-0.104	-0.3652	-0.2466	
0.072102	1.05347	-0.015982	84.91	-17.43	-14.77	-0.1039	-0.3713	-0.239	
0.08662	1.066402	-0.047824	78.33	-16.03	-14	-0.0964	-0.3823	-0.2314	
0.033062	1.075796	-0.071858	66.99	-9.24	-21.42	-0.1007	-0.3884	-0.2115	
0.03782	1.102636	-0.061	65.31	-9.45	-20.02	-0.0946	-0.4009	-0.2024	
0.00427	1.121302	-0.073932	59.15	-7.35	-15.4	-0.0947	-0.3978	-0.2024	
0.009272	1.141432	-0.075396	57.4	-7.14	-3.64	-0.0988	-0.4084	-0.1855	
0.009272	1.147166	-0.086498	51.94	-3.78	-2.31	-0.099	-0.4054	-0.1824	
0.007442	1.122522	-0.069174	44.52	-6.65	-5.32	-0.0931	-0.4086	-0.184	
0.022326	1.08214	-0.078934	39.97	-2.73	-5.6	-0.0883	-0.4257	-0.1657	
0.023302	1.05164	-0.098332	37.1	1.19	-7.7	-0.0973	-0.4146	-0.1717	
0.03904	1.052738	-0.10126	35.21	2.8	-10.5	-0.0926	-0.4255	-0.1702	
0.038918	1.037	-0.103334	28.56	-0.63	-1.12	-0.0942	-0.4255	-0.1565	
0.012078	1.017114	-0.142008	25.13	2.17	1.12	-0.0896	-0.4349	-0.1534	
0.032818	1.038708	-0.135176	28.98	2.59	-1.4	-0.0967	-0.4377	-0.1534	
-0.004392	1.079578	-0.173484	28.07	2.73	-2.66	-0.0883	-0.4334	-0.1428	
-0.026718	1.16815	-0.18239	24.5	-3.08	-1.82	-0.0895	-0.438	-0.1473	
-0.016836	1.19316	-0.144936	15.12	-6.23	2.52	-0.0924	-0.4394	-0.1458	
0.040016	1.070184	-0.120536	3.99	-4.2	-1.68	-0.0928	-0.4287	-0.1382	
0.05124	1.06079	-0.117852	5.74	-3.43	-6.16	-0.098	-0.4454	-0.1396	
0.039284	1.071404	-0.11956	5.95	-3.08	-6.58	-0.0968	-0.4408	-0.1366	
0.036234	1.05957	-0.118828	3.99	-0.14	-4.9	-0.0881	-0.4427	-0.1336	
0.035014	1.03578	-0.129198	1.47	0.07	-5.39	-0.0821	-0.4444	-0.1443	
0.02379	1.036634	-0.139446	2.17	-1.12	-8.05	-0.0911	-0.4364	-0.1427	
0.009881999	1.093486	-0.134566	3.5	-0.77	-7.42	-0.0909	-0.4441	-0.1366	
0.016958	1.09861	-0.124684	1.33	-0.91	-3.92	-0.0809	-0.4429	-0.1337	
0.020496	1.061278	-0.12993	-1.33	-0.07	-5.74	-0.0849	-0.4489	-0.1382	
0.005002	1.036146	-0.148718	-2.59	0.84	-8.26	-0.0838	-0.4397	-0.1413	
0.00061	1.070916	-0.131882	-1.96	-1.61	-5.6	-0.0909	-0.441	-0.1443	
0.01891	1.0675	-0.112118	-4.34	-1.05	-2.66	-0.08199999	-0.4505	-0.1397	
0.026962	1.04737	-0.111386	-4.97	-0.14	-3.08	-0.0753	-0.4324	-0.1429	
0.009638	1.06872	-0.12505	-3.85	0.14	-3.22	-0.0839	-0.4351	-0.1398	
0.009028	1.06628	-0.12627	-6.16	0.42	-1.96	-0.0863	-0.4519	-0.1351	
0.015372	1.061522	-0.127124	-8.12	-0.91	-1.47	-0.0838	-0.4382	-0.1459	
0.008784	1.077504	-0.120048	-10.22	1.33	-1.75	-0.0764	-0.4446	-0.1444	
0.003904	1.08702	-0.121268	-11.83	1.47	-0.21	-0.0854	-0.4351	-0.1367	
0.008296	1.093486	-0.110776	-13.72	1.47	-0.21	-0.0871	-0.4258	-0.1443	
0.01403	1.077626	-0.119316	-15.96	1.96	-0.28	-0.0882	-0.4365	-0.1443	
0.012444	1.097878	-0.126514	-18.62	2.38	0.63	-0.0796	-0.4337	-0.1505	
-0.002074	1.114592	-0.123586	-23.38	2.87	2.73	-0.0882	-0.4349	-0.1519	
0.010004	1.107882	-0.104188	-27.37	3.36	4.06	-0.0812	-0.4291	-0.1505	
0.011346	1.091168	-0.10309	-29.54	3.64	4.2	-0.0823	-0.4367	-0.1566	
0.002928	1.099952	-0.09857599	-29.96	4.48	3.64	-0.0797	-0.426	-0.1597	
0.00061	1.098	-0.107116	-31.5	5.04	2.45	-0.0751	-0.4323	-0.1643	
0.000976	1.122278	-0.09882	-34.44	4.97	1.68	-0.0881	-0.4318	-0.1718	
0.010858	1.106174	-0.06466	-39.55	5.39	3.85	-0.0914	-0.4179	-0.1794	
0.00854	1.059448	-0.045628	-43.68	5.46	6.3	-0.0838	-0.4258	-0.1825	
0.000366	1.055056	-0.036112	-44.31	4.62	6.72	-0.0884	-0.418	-0.1886	
-0.005368	1.04066	-0.027572	-44.66	3.22	8.61	-0.087	-0.4119	-0.2039	
0.003538	1.036756	-0.02379	-44.45	3.29	8.89	-0.08549999	-0.415	-0.1963	
0.011224	1.0553	0.007442	-45.36	2.52	9.45	-0.09429999	-0.4054	-0.213	
0.015738	1.034316	0.023424	-47.95	2.8	15.33	-0.08899999	-0.3903	-0.2208	
0.023302	1.004914	0.042334	-50.4	2.8	16.31	-0.0946	-0.3947	-0.2222	
0.020618	1.01016	0.050264	-49.84	2.17	16.1	-0.085	-0.3781	-0.2315	
0.021472	1.044686	0.060512	-49.84	3.08	19.39	-0.1039	-0.3744	-0.2313	
0.019764	1.042124	0.068198	-53.76	3.85	21.98	-0.1063	-0.3866	-0.2405	
0.031842	1.034682	0.077348	-58.31	2.45	24.36	-0.0967	-0.3654	-0.2574	
0.048678	1.042002	0.11346	-60.13	1.05	25.13	-0.1055	-0.3605	-0.2558	
0.051972	1.033828	0.12627	-59.78	2.94	25.76	-0.1016	-0.3468	-0.265	
0.041724	1.042612	0.130174	-60.97	2.17	27.51	-0.1073	-0.3466	-0.2726	
0.036356	1.04798	0.142496	-67.55	-4.48	30.59	-0.109	-0.3358	-0.2787	
0.05429	1.015894	0.161528	-72.59	-5.39	30.1	-0.1092	-0.3296	-0.2864	
0.07442	1.000766	0.19154	-76.02	-6.79	33.18	-0.1066	-0.319	-0.291	
0.086498	0.999302	0.215818	-76.93	-3.01	34.09	-0.1182	-0.3139	-0.2986	
0.091012	0.97051	0.255102	-79.73	-1.54	31.57	-0.1346	-0.2965	-0.3122	
0.118096	0.89731	0.300608	-86.94	-4.69	27.65	-0.1376	-0.2918	-0.3137	
0.152866	0.82228	0.338794	-85.68	-1.33	28.28	-0.1309	-0.2736	-0.3214	
0.160796	0.795928	0.338672	-86.03	0.21	28.56	-0.1413	-0.2594	-0.3366	
0.181292	0.773358	0.335134	-86.03	3.29	29.4	-0.1376	-0.2411	-0.3352	
0.189588	0.762988	0.37088	-86.73	4.41	31.08	-0.1419	-0.2409	-0.3443	
0.198494	0.708576	0.421266	-91.63	3.78	33.46	-0.1437	-0.2255	-0.3596	
0.191296	0.648308	0.460794	-93.17	3.71	34.58	-0.1472	-0.207	-0.355	
0.196298	0.637572	0.473848	-92.19	1.47	35.35	-0.1506	-0.19	-0.3627	
0.218624	0.618418	0.483364	-93.66	1.96	33.81	-0.1568	-0.1744	-0.3688	
0.210084	0.560712	0.525698	-95.41	1.33	35.35	-0.1512	-0.1669	-0.378	
0.225578	0.520574	0.56425	-96.39	-0.42	37.94	-0.1545	-0.1546	-0.378	
0.26535	0.496784	0.618418	-94.78	-2.87	38.64	-0.1627	-0.1282	-0.3734	
0.308782	0.4636	0.666974	-93.38	-3.64	38.92	-0.163	-0.1144	-0.3857	
0.330376	0.435296	0.718946	-91.98	-5.11	40.53	-0.1622	-0.0929	-0.3934	
0.360632	0.43188	0.771528	-89.18	-3.92	38.57	-0.1595	-0.0884	-0.3858	
0.36844	0.410896	0.784338	-85.19	-0.21	33.39	-0.163	-0.0684	-0.3919	
0.358924	0.369416	0.791048	-83.79	1.54	29.61	-0.1633	-0.0607	-0.395	
0.339282	0.307196	0.793732	-78.47	1.33	27.86	-0.1613	-0.0332	-0.3966	
0.338794	0.290116	0.79544	-76.16	1.75	28.63	-0.1751	-0.0081	-0.3965	
0.346968	0.239852	0.818254	-75.74	1.4	28	-0.1609	0.0005	-0.3997	
0.369294	0.199226	0.837896	-73.71	-0.49	27.37	-0.1555	0.0125	-0.4028	
0.379542	0.200812	0.863028	-69.09	0.63	24.22	-0.1718	0.0238	-0.3997	
0.37698	0.194956	0.891088	-66.5	1.12	21.98	-0.1778	0.0271	-0.3904	
0.377956	0.161406	0.912194	-66.08	1.82	21.42	-0.1667	0.039	-0.3875	
0.393572	0.121878	0.934398	-64.05	1.26	21.49	-0.1598	0.051	-0.3922	
0.403698	0.11285	0.961116	-58.59	0.42	21.28	-0.1703	0.0636	-0.3891	
0.3904	0.12139	0.93696	-53.34	2.52	20.3	-0.1695	0.0851	-0.3983	
0.368318	0.135908	0.92354	-50.19	4.69	19.18	-0.1662	0.0727	-0.3968	
0.354776	0.113094	0.92964	-49.14	4.62	17.08	-0.1612	0.094	-0.3908	
0.363926	0.092354	0.945256	-46.76	2.03	15.89	-0.1672	0.1003	-0.3968	
0.376004	0.091012	0.984418	-43.12	-1.33	13.93	-0.1631	0.1048	-0.3847	
0.394914	0.078812	1.017114	-39.06	-2.8	9.87	-0.1575	0.1122	-0.3909	
0.412238	0.050996	1.036146	-32.2	-1.89	6.37	-0.1624	0.1246	-0.3801	
0.41114	0.028304	1.02541	-27.51	0.35	4.9	-0.1549	0.1167	-0.3802	
0.398208	0.014152	1.01138	-22.54	1.26	3.64	-0.1526	0.1319	-0.368	
0.397842	0.008905999	1.011136	-17.36	0.7	3.08	-0.1566	0.126	-0.3802	
0.406504	0.008784	1.010282	-12.95	-0.35	2.73	-0.1683	0.1295	-0.3801	
0.410164	0.012444	1.015894	-8.82	-0.63	2.1	-0.1642	0.1354	-0.3802	
0.396622	0.006588	0.998814	-5.46	0.28	-0.28	-0.1571	0.1382	-0.3756	
0.383934	0.00671	0.992592	-1.68	1.47	-1.82	-0.16	0.1399	-0.3787	
0.371124	-0.000488	0.984296	2.73	1.19	-3.08	-0.1557	0.1428	-0.3833	
0.377712	0.001342	0.99979	7.28	-1.05	-3.85	-0.1655	0.1309	-0.3786	
0.391254	0.002318	1.014186	10.78	-2.87	-5.25	-0.1631	0.1446	-0.3741	
0.404796	0.005002	1.022116	14.56	-3.85	-5.95	-0.1614	0.1369	-0.3756	
0.40443	0.005978	1.02663	17.99	-4.06	-7.49	-0.1673	0.1432	-0.3801	
0.396256	0.002928	1.018456	23.8	-2.45	-10.64	-0.1639	0.1262	-0.3786	
0.407236	0.009638	1.015406	28.07	-3.08	-11.76	-0.1522	0.1228	-0.3818	
0.409798	0.036722	1.007354	36.47	-3.08	-13.37	-0.1605	0.1123	-0.3771	
0.410408	0.052094	1.002474	40.95	-3.5	-14.35	-0.1627	0.094	-0.3862	
0.400038	0.066856	0.997838	45.43	-3.71	-15.89	-0.1688	0.1034	-0.3831	
0.387838	0.060634	0.983442	49.49	-2.94	-18.27	-0.1639	0.0849	-0.3846	
0.386496	0.062342	0.966118	55.44	-3.71	-19.88	-0.1635	0.0757	-0.3876	
0.388692	0.082716	0.94733	61.11	-5.11	-21.28	-0.1662	0.0712	-0.3922	
0.387472	0.108824	0.927322	65.45	-5.32	-22.33	-0.1718	0.0637	-0.3891	
0.386862	0.141276	0.923662	69.09	-4.9	-23.66	-0.1713	0.0468	-0.3814	
0.38064	0.152988	0.910242	73.15	-4.55	-25.2	-0.1649	0.0313	-0.3967	
0.374784	0.171776	0.896822	77.42	-3.78	-27.02	-0.1764	0.027	-0.3859	
0.371978	0.19215	0.877912	81.34	-3.01	-29.47	-0.173	0.0116	-0.3874	
0.363194	0.228872	0.84973	85.47	-2.87	-30.59	-0.1712	0.0039	-0.3935	
0.345382	0.254614	0.826794	88.55	-1.75	-32.27	-0.1692	-0.0145	-0.3904	
0.330864	0.25254	0.800808	91.14	-1.54	-33.95	-0.1742	-0.0389	-0.3857	
0.31476	0.27206	0.768844	95.06	-2.38	-35	-0.1811	-0.0463	-0.3887	
0.305976	0.310978	0.722362	99.26	-3.5	-36.19	-0.1761	-0.0695	-0.3841	
0.29646	0.41297	0.665022	103.04	-3.78	-37.03	-0.1757	-0.08329999	-0.378	
0.283406	0.45567	0.643306	103.74	-2.73	-37.52	-0.1734	-0.1048	-0.3856	
0.2684	0.483242	0.625494	104.3	-2.45	-35.56	-0.1672	-0.1188	-0.381	
0.259372	0.536068	0.591822	106.05	-3.01	-32.76	-0.1636	-0.1435	-0.3718	
0.257176	0.577914	0.56303	107.66	-1.54	-31.08	-0.1679	-0.1464	-0.3687	
0.246196	0.591456	0.520086	108.01	2.73	-31.43	-0.1658	-0.1649	-0.3702	
0.234728	0.60939	0.47519	111.02	3.22	-33.46	-0.1681	-0.1848	-0.3595	
0.222528	0.62281	0.386496	113.54	4.55	-35.63	-0.1633	-0.2034	-0.3518	
0.205448	0.66734	0.333548	114.87	3.92	-37.38	-0.1556	-0.219	-0.3458	
0.197762	0.701256	0.309636	113.19	1.12	-39.06	-0.1533	-0.2467	-0.3411	
0.179462	0.751886	0.261568	114.31	2.03	-37.24	-0.1444	-0.2562	-0.3305	
0.147864	0.826306	0.246318	116.97	-3.5	-36.19	-0.1485	-0.2668	-0.3182	
0.143594	0.907802	0.214232	115.78	-4.06	-37.66	-0.1508	-0.2852	-0.309	
0.168482	0.907192	0.166042	112.63	-3.22	-39.76	-0.1389	-0.3025	-0.2938	
0.151158	0.904264	0.063684	106.33	-1.05	-41.23	-0.1371	-0.3148	-0.2846	
0.130418	0.942206	0.030378	102.27	-1.89	-40.67	-0.1365	-0.3379	-0.2708	
0.085766	0.972706	0.029646	92.47	-1.75	-36.33	-0.1246	-0.3552	-0.2449	
0.0488	1.019554	0.01708	89.25	-9.59	-31.92	-0.1129	-0.3634	-0.2328	
0.04453	1.057496	-0.02989	83.37	-11.76	-29.61	-0.1152	-0.3817	-0.2297	
0.074176	1.085312	-0.04636	84.98	-13.16	-28.63	-0.1133	-0.394	-0.2281	
0.061488	1.110566	-0.10736	79.8	-12.25	-23.8	-0.1166	-0.3909	-0.2022	
0.02684	1.160586	-0.127856	73.92	-10.92	-24.85	-0.1075	-0.4035	-0.2007	
-0.007686	1.158024	-0.13908	62.51	-14.56	-27.93	-0.1061	-0.4035	-0.1946	
-0.004026	1.154486	-0.122854	55.51	-15.89	-22.75	-0.1059	-0.4143	-0.1808	
0.015006	1.118862	-0.129076	56.84	-9.73	-22.47	-0.1086	-0.4203	-0.1838	
0.040748	1.116178	-0.132248	43.12	-16.31	-9.94	-0.1014	-0.4222	-0.1656	
0.008296	1.114226	-0.130296	39.69	-7.98	-8.54	-0.1044	-0.4236	-0.1549	
0.058316	1.051884	-0.11102	37.52	-5.95	-6.93	-0.0909	-0.4348	-0.1641	
0.046116	1.022848	-0.119682	33.46	-6.58	-3.85	-0.09119999	-0.4302	-0.1519	
0.010858	1.050908	-0.168116	30.59	-9.24	-6.02	-0.0984	-0.4331	-0.1427	
0.000122	1.117276	-0.159576	30.87	-8.61	-10.43	-0.0999	-0.4361	-0.1304	
-0.003538	1.104954	-0.170434	26.6	-4.06	-9.8	-0.1014	-0.433	-0.1319	
-0.01037	1.123986	-0.19337	21.63	-4.27	-11.76	-0.0942	-0.4332	-0.1335	
-0.032574	1.162416	-0.204838	14.63	-8.47	-7.07	-0.091	-0.4441	-0.129	
-0.028304	1.11813	-0.214842	5.46	-8.47	-5.6	-0.0867	-0.4412	-0.1321	
-0.006832	1.125694	-0.1952	1.4	-10.01	-3.57	-0.0924	-0.4456	-0.1274	
0.036234	1.140456	-0.156038	-1.61	-7.84	0.77	-0.0968	-0.4408	-0.1289	
0.023424	1.144604	-0.166042	-3.92	-4.97	2.66	-0.0911	-0.4426	-0.1244	
0.004148	1.129476	-0.170678	-6.86	-2.87	1.75	-0.0983	-0.4439	-0.1182	
-0.002684	1.106418	-0.1769	-10.36	-2.31	-0.84	-0.1011	-0.4468	-0.1197	
-0.016348	1.080432	-0.17263	-13.37	-1.12	-4.9	-0.0982	-0.4439	-0.1228	
-0.007442	1.040172	-0.138958	-13.93	-0.49	-6.65	-0.0983	-0.4408	-0.132	
-0.026108	1.031144	-0.13725	-9.66	-1.4	-6.93	-0.09519999	-0.4455	-0.1381	
-0.023424	1.023946	-0.13969	-8.61	-3.36	-3.92	-0.0825	-0.4352	-0.1367	
-0.017568	1.021506	-0.140422	-9.52	-6.09	-2.8	-0.0897	-0.4365	-0.1321	
-0.002562	1.005646	-0.139568	-10.85	-4.97	-4.48	-0.09559999	-0.4332	-0.1366	
0.002196	1.01382	-0.1281	-12.04	-4.41	-2.24	-0.0954	-0.4393	-0.135	
-0.020008	1.04859	-0.123464	-12.53	-2.94	1.47	-0.08859999	-0.4242	-0.1382	
-0.006832	1.057496	-0.123708	-13.37	-3.15	2.45	-0.0896	-0.438	-0.1366	
0.006954	1.060668	-0.119682	-14.56	-0.56	2.45	-0.0909	-0.4425	-0.1458	
0.005002	1.084702	-0.1037	-14.63	2.87	2.94	-0.0971	-0.4301	-0.1427	
-0.005002	1.10654	-0.083936	-15.82	3.08	5.74	-0.0958	-0.424	-0.1473	
-0.008296	1.103612	-0.083448	-16.94	2.8	5.6	-0.0822	-0.4351	-0.1688	
-0.016104	1.11203	-0.10248	-18.27	2.24	4.55	-0.0968	-0.4362	-0.1488	
-0.021228	1.13033	-0.098454	-21.77	1.82	4.41	-0.0927	-0.4286	-0.1565	
-0.01037	1.113494	-0.089304	-27.58	1.96	6.58	-0.0984	-0.4284	-0.161	
0.010248	1.076894	-0.067222	-32.41	2.1	10.29	-0.0969	-0.43	-0.1564	
0.01464	1.065792	-0.044774	-34.65	2.52	12.74	-0.0985	-0.4223	-0.1748	
0.015738	1.078724	-0.030256	-34.02	2.87	13.79	-0.1017	-0.4114	-0.1748	
0.01159	1.059326	-0.028548	-34.23	4.83	14.35	-0.1044	-0.4175	-0.1717	
0.002318	1.053348	-0.029646	-35.14	5.81	13.58	-0.1074	-0.4112	-0.19	
0.015982	1.050542	-0.0244	-37.1	7	13.44	-0.09999999	-0.416	-0.19	
0.036234	1.06872	0.004148	-39.34	6.16	14.84	-0.1133	-0.4017	-0.2052	
0.031598	1.069818	0.013786	-42.21	5.67	15.26	-0.0973	-0.4069	-0.2054	
0.033672	1.058472	0.01464	-44.24	5.88	17.85	-0.1061	-0.3989	-0.2084	
0.031476	1.042978	0.026596	-46.2	6.23	20.23	-0.1134	-0.3956	-0.2129	
0.03599	1.040782	0.05002	-46.55	7.98	19.46	-0.1166	-0.3847	-0.222	
0.045018	1.034438	0.062708	-46.48	9.31	17.71	-0.1124	-0.3802	-0.2267	
0.051606	1.0492	0.075884	-46.76	8.19	18.27	-0.1182	-0.3785	-0.2312	
0.045994	1.058594	0.082228	-49.77	8.05	19.46	-0.1228	-0.3691	-0.2358	
0.0488	1.04127	0.10492	-52.85	7.07	21.35	-0.1269	-0.3705	-0.2464	
0.06283	1.011624	0.120902	-56.35	6.37	23.8	-0.1229	-0.3645	-0.2358	
0.07747	1.004548	0.145302	-58.8	4.06	29.4	-0.1246	-0.3491	-0.2587	
0.078812	1.001986	0.16775	-60.34	2.31	33.32	-0.1274	-0.3536	-0.2617	
0.08784	0.984662	0.179096	-61.53	1.89	35.77	-0.135	-0.3395	-0.2678	
0.109312	0.97295	0.189222	-61.04	1.61	35.98	-0.1408	-0.3347	-0.2784	
0.13237	0.952698	0.172752	-61.18	1.96	31.99	-0.1353	-0.3287	-0.2754	
0.16592	0.972828	0.179462	-58.38	6.3	32.27	-0.1383	-0.3209	-0.2907	
0.147132	1.025166	0.21594	-62.16	2.87	35.77	-0.1473	-0.3068	-0.3029	
0.115412	1.010526	0.22753	-67.13	-1.54	40.18	-0.1464	-0.2884	-0.3106	
0.155306	0.951966	0.267912	-71.26	-6.3	40.11	-0.1498	-0.2714	-0.3121	
0.194346	0.903044	0.291458	-71.54	-4.13	34.93	-0.1543	-0.2666	-0.3121	
0.228018	0.88999	0.308904	-72.31	-2.52	35.98	-0.1619	-0.2526	-0.3181	
0.236924	0.859978	0.293654	-75.53	1.05	35.56	-0.1622	-0.2418	-0.3288	
0.248636	0.838628	0.328302	-78.12	-0.21	40.25	-0.1709	-0.2399	-0.3333	
0.289628	0.768844	0.37576	-82.53	-0.35	40.18	-0.17	-0.2169	-0.3502	
0.314028	0.698328	0.409554	-85.47	-2.87	42.84	-0.1731	-0.2138	-0.3456	
0.30622	0.670146	0.421876	-85.19	-1.47	43.05	-0.1851	-0.1965	-0.3532	
0.294752	0.650626	0.439078	-84.63	-0.28	42.7	-0.1784	-0.1767	-0.367	
0.319762	0.614392	0.472384	-88.9	-1.12	42.77	-0.1791	-0.1583	-0.3579	
0.329278	0.547902	0.494832	-92.26	2.24	42	-0.1881	-0.1442	-0.3716	
0.319518	0.49776	0.516792	-96.25	5.67	43.19	-0.1817	-0.1199	-0.3732	
0.319274	0.477996	0.569008	-98.98	6.3	43.61	-0.1919	-0.1149	-0.3808	
0.348066	0.412116	0.669536	-98.98	8.12	44.8	-0.1925	-0.098	-0.3762	
0.345748	0.377834	0.709674	-97.3	9.24	40.46	-0.193	-0.0827	-0.3763	
0.344284	0.365756	0.731024	-95.2	8.12	37.03	-0.1879	-0.0614	-0.384	
0.335622	0.356606	0.744322	-93.03	8.05	35.56	-0.1915	-0.0429	-0.3749	
0.347822	0.308538	0.772138	-92.12	8.05	34.23	-0.1884	-0.0445	-0.3886	
0.361852	0.265106	0.80032	-90.44	5.95	33.18	-0.1878	-0.02	-0.3841	
0.380884	0.210206	0.823866	-88.9	4.48	32.55	-0.194	-0.0075	-0.3871	
0.383446	0.196054	0.82899	-84.42	4.97	29.89	-0.1892	0.0183	-0.3766	
0.365146	0.177876	0.82655	-80.57	8.05	23.03	-0.1938	0.0292	-0.3857	
0.373076	0.13359	0.84607	-77.77	7.98	22.33	-0.1869	0.0412	-0.3934	
0.38308	0.087474	0.86986	-77.21	4.62	24.43	-0.1915	0.049	-0.3904	
0.40504	0.066002	0.899994	-74.06	2.17	26.74	-0.1831	0.0549	-0.3828	
0.413458	0.045018	0.91439	-69.86	1.33	25.62	-0.1765	0.0761	-0.389	
0.41663	0.044286	0.929884	-64.82	1.12	23.38	-0.1784	0.0869	-0.386	
0.426512	0.005734	0.949892	-62.02	2.66	20.02	-0.1789	0.1038	-0.3876	
0.437004	-0.03782	0.965996	-58.59	1.33	18.76	-0.1852	0.1163	-0.3784	
0.460794	-0.052094	0.996496	-50.05	-0.77	18.62	-0.178	0.1175	-0.3769	
0.473604	-0.076372	1.014308	-44.1	-0.42	16.31	-0.1713	0.1326	-0.3816	
0.483974	-0.086132	1.027606	-37.52	-0.28	14.07	-0.1776	0.1482	-0.3801	
0.491294	-0.102358	1.043222	-31.71	0.42	11.97	-0.1745	0.1404	-0.3694	
0.491904	-0.125782	1.046028	-25.13	1.19	10.5	-0.175	0.1542	-0.3633	
0.485682	-0.137982	1.04615	-17.85	1.82	7.84	-0.1695	0.1601	-0.3634	
0.479704	-0.143716	1.036634	-10.01	1.19	5.11	-0.1749	0.1542	-0.374	
0.474702	-0.132736	1.030046	-2.94	0.42	2.66	-0.1678	0.1555	-0.3664	
0.472384	-0.118584	1.028094	3.08	-0.42	0.42	-0.1692	0.1555	-0.371	
0.47153	-0.109678	1.020652	8.82	-1.54	-1.61	-0.1753	0.1603	-0.3618	
0.473482	-0.107116	1.01931	13.37	-2.31	-4.13	-0.1766	0.1604	-0.3694	
0.467382	-0.101504	1.00955	18.83	-2.24	-7.07	-0.1825	0.1621	-0.3602	
0.471164	-0.088694	1.006744	23.31	-2.52	-8.89	-0.1836	0.1499	-0.3632	
0.470066	-0.068076	1.00101	28.77	-2.03	-10.85	-0.1747	0.1465	-0.377	
0.471286	-0.06527	0.993934	32.9	-1.33	-13.23	-0.1773	0.1374	-0.3754	
0.468968	-0.053558	0.984174	38.29	-1.26	-14.28	-0.1669	0.1294	-0.3771	
0.460428	-0.010858	0.976366	46.83	-0.84	-16.45	-0.1784	0.1283	-0.3708	
0.452864	0.007808	0.969168	51.94	-0.35	-18.97	-0.1793	0.1145	-0.3815	
0.451888	0.021106	0.95892	56.63	-0.91	-21.35	-0.1761	0.1037	-0.3784	
0.45079	0.040992	0.940742	61.39	-0.98	-22.61	-0.1834	0.107	-0.3799	
0.435296	0.076738	0.912682	66.08	-1.05	-24.99	-0.1826	0.0809	-0.3707	
0.420168	0.111996	0.893528	69.37	-0.77	-26.39	-0.1867	0.078	-0.3844	
0.41358	0.126148	0.880962	73.43	-0.42	-29.12	-0.1793	0.07009999	-0.3814	
0.404186	0.140056	0.859978	77.35	-1.4	-30.45	-0.1787	0.0563	-0.392	
0.395646	0.177876	0.83936	82.11	-3.57	-31.36	-0.1855	0.0412	-0.3889	
0.382958	0.22448	0.802028	85.19	-3.64	-33.32	-0.182	0.0226	-0.3843	
0.36905	0.267546	0.777872	87.43	-2.73	-35.21	-0.183	0.0104	-0.3888	
0.360022	0.285358	0.766038	88.76	-2.52	-36.47	-0.1826	-0.0018	-0.3857	
0.356728	0.30317	0.757132	90.37	-3.85	-36.47	-0.1821	-0.014	-0.3934	
0.357704	0.331108	0.731878	91.91	-4.55	-37.24	-0.1844	-0.0354	-0.3902	
0.359534	0.372832	0.72102	93.8	-4.48	-38.29	-0.1826	-0.0462	-0.3902	
0.324032	0.434442	0.659288	95.97	-3.92	-38.92	-0.171	-0.0911	-0.3887	
0.315126	0.474824	0.629276	96.46	-4.13	-38.64	-0.1807	-0.1046	-0.3794	
0.314028	0.503982	0.603656	98.21	-3.64	-38.78	-0.1876	-0.1181	-0.3686	
0.321104	0.533994	0.56791	99.54	-3.08	-39.9	-0.1729	-0.1263	-0.3703	
0.315492	0.562786	0.526308	100.52	-2.66	-41.02	-0.181	-0.1445	-0.3655	
0.284992	0.605242	0.48129	101.64	-0.7	-42.07	-0.1689	-0.1618	-0.3595	
0.249978	0.636718	0.446764	102.2	0.21	-44.17	-0.1786	-0.1737	-0.3579	
0.217648	0.688934	0.41602	101.85	-0.63	-42.63	-0.168	-0.1925	-0.3503	
0.217282	0.709552	0.3904	99.75	-2.03	-42.21	-0.1642	-0.2202	-0.3426	
0.211426	0.743956	0.348676	97.72	-2.1	-41.3	-0.1639	-0.2325	-0.338	
0.214354	0.785802	0.330132	94.78	-5.39	-41.02	-0.1565	-0.2389	-0.3258	
0.200324	0.828502	0.315736	90.58	-5.88	-38.92	-0.1589	-0.2557	-0.3212	
0.183488	0.842654	0.285358	89.46	-7.63	-38.92	-0.1599	-0.2726	-0.3105	
0.17629	0.894626	0.274744	90.58	-9.52	-39.76	-0.1522	-0.2882	-0.3013	
0.17019	0.924516	0.251076	88.34	-9.38	-43.12	-0.1595	-0.2895	-0.2967	
0.171044	0.913292	0.204594	87.92	-3.64	-43.89	-0.15	-0.3144	-0.2906	
0.130906	0.953186	0.146766	83.51	-5.67	-41.44	-0.1523	-0.3342	-0.2844	
0.102114	0.986736	0.126392	81.9	-5.18	-40.25	-0.1381	-0.3317	-0.2693	
0.101748	0.992226	0.11529	80.71	-4.48	-39.48	-0.1335	-0.3426	-0.2632	
0.074664	0.996862	0.081374	83.23	0.14	-40.6	-0.1258	-0.3582	-0.2541	
0.078202	1.001254	0.056852	81.9	-3.43	-35.28	-0.1343	-0.3656	-0.2448	
0.068198	1.0248	0.0244	75.67	-7.63	-27.44	-0.1211	-0.3784	-0.2296	
0.037088	1.03334	-0.004026	67.55	-12.39	-27.72	-0.1256	-0.3767	-0.2159	
0.053558	1.047126	-0.01952	68.25	-11.83	-22.96	-0.1106	-0.3911	-0.219	
0.050874	1.043222	-0.03965	67.41	-11.2	-19.25	-0.1148	-0.4001	-0.2067	
0.056974	1.065914	-0.059414	62.93	-10.85	-14.84	-0.1077	-0.4004	-0.19	
0.035868	1.082994	-0.056974	55.44	-9.17	-13.58	-0.119	-0.4077	-0.1914	
0.022692	1.042978	-0.081862	47.81	-7.35	-10.85	-0.1116	-0.4187	-0.1701	
0.048434	1.021994	-0.086376	46.55	-5.81	-11.48	-0.109	-0.4127	-0.1671	
0.05185	1.053226	-0.098454	48.16	-4.76	-12.25	-0.1061	-0.4128	-0.1656	
0.029646	1.094462	-0.113704	45.78	-3.64	-11.69	-0.1102	-0.4234	-0.1548	
0.018788	1.095316	-0.146522	40.95	-2.03	-12.18	-0.1074	-0.422	-0.1502	
0.017202	1.141066	-0.17263	32.83	-4.9	-10.57	-0.1068	-0.4404	-0.1426	
0.006954	1.151924	-0.180682	27.86	-7.42	-11.41	-0.1014	-0.4314	-0.1396	
0.002684	1.18462	-0.182878	21.35	-9.17	-6.65	-0.0969	-0.4378	-0.132	
0.037332	1.16937	-0.169824	9.8	-9.1	-4.9	-0.1096	-0.445	-0.1334	
0.02562	1.122888	-0.162016	-3.08	-18.27	-10.01	-0.0984	-0.4408	-0.1197	
0.035136	1.097268	-0.149938	-8.89	-21.56	-3.08	-0.1042	-0.436	-0.1319	
0.033916	1.092754	-0.142374	-9.94	-21.42	3.85	-0.09959999	-0.4438	-0.1274	
0.03782	1.067866	-0.123098	-5.88	-14.28	2.31	-0.1087	-0.4297	-0.1334	
0.025986	1.060912	-0.11163	1.4	-4.13	-7.42	-0.1054	-0.4451	-0.1227	
0.011346	1.044076	-0.1159	-2.45	-9.03	-5.46	-0.104	-0.4436	-0.1273	
0.01891	1.031754	-0.113094	3.22	0.14	-5.25	-0.1025	-0.4437	-0.1273	
0.02684	1.016626	-0.115046	3.99	0.63	-3.29	-0.1014	-0.4345	-0.1289	
0.003538	1.036268	-0.129076	6.37	1.26	-6.09	-0.1028	-0.436	-0.1273	
0.000122	1.070794	-0.140178	7.56	4.34	-7.14	-0.1011	-0.4422	-0.1289	
-0.000488	1.079334	-0.13908	3.85	3.5	-9.38	-0.1073	-0.4297	-0.1273	
0.011224	1.054446	-0.137494	-4.41	-1.89	-1.4	-0.0941	-0.4379	-0.1274	
-0.001342	1.075674	-0.150548	-3.43	-0.63	-1.82	-0.1054	-0.4451	-0.1273	
0.009393999	1.08885	-0.146522	-4.2	-0.28	0.14	-0.0955	-0.4378	-0.1289	
0.002562	1.08214	-0.138958	-5.81	3.36	1.26	-0.1009	-0.4468	-0.138	
-0.002684	1.07848	-0.12932	-8.12	3.64	2.94	-0.1099	-0.4373	-0.1288	
-0.006588	1.06628	-0.129686	-9.94	3.99	2.73	-0.1014	-0.433	-0.1274	
-0.00244	1.08214	-0.131882	-10.15	3.78	2.38	-0.1012	-0.4376	-0.1365	
-0.003904	1.090558	-0.133956	-11.69	3.99	1.96	-0.1011	-0.4376	-0.1442	
0.005978	1.101416	-0.12261	-13.93	3.15	1.33	-0.096	-0.4209	-0.1351	
0.013542	1.086776	-0.107238	-17.85	4.06	4.76	-0.094	-0.4394	-0.1259	
0.015616	1.066524	-0.10614	-20.86	2.38	6.16	-0.1013	-0.433	-0.1472	
0.020496	1.054446	-0.104554	-20.93	3.01	6.51	-0.104	-0.4375	-0.1472	
0.024278	1.06628	-0.10309	-20.58	6.16	5.67	-0.09999999	-0.4284	-0.1396	
0.022448	1.08946	-0.097844	-22.54	9.17	5.04	-0.101	-0.4391	-0.1548	
0.01464	1.092754	-0.07869	-25.9	11.55	5.39	-0.0927	-0.4286	-0.155	
0.010858	1.094828	-0.06405	-27.72	10.08	6.23	-0.1043	-0.4236	-0.1655	
0.029158	1.050298	-0.048068	-30.1	10.22	5.53	-0.1043	-0.4236	-0.1671	
0.037332	1.046028	-0.040748	-30.73	12.46	4.83	-0.0944	-0.4163	-0.1687	
0.02745	1.054324	-0.029646	-30.87	15.4	4.97	-0.09739999	-0.4116	-0.1718	
0.02318	1.062254	-0.021106	-31.92	16.03	6.65	-0.1028	-0.4175	-0.187	
0.041236	1.03883	-0.004026	-34.79	15.75	8.96	-0.1017	-0.4114	-0.1793	
0.057706	1.016016	0.022448	-35.07	14.63	10.36	-0.1058	-0.4158	-0.1854	
0.063562	1.005646	0.031598	-33.18	13.79	9.31	-0.1045	-0.4036	-0.2084	
0.07503	1.019432	0.048068	-32.83	13.58	7.77	-0.1102	-0.408	-0.2037	
0.070394	1.018822	0.055754	-33.95	15.54	5.81	-0.0945	-0.4024	-0.2069	
0.07076	1.014918	0.052094	-36.12	14.49	7.07	-0.0991	-0.393	-0.2161	
0.070272	1.026874	0.07015	-39.41	8.89	4.13	-0.1052	-0.3836	-0.2145	
0.083326	1.019798	0.088816	-38.78	9.03	3.08	-0.0933	-0.3917	-0.2192	
0.101504	1.011746	0.104798	-37.03	10.01	3.78	-0.1008	-0.3806	-0.2314	
0.108214	1.017602	0.114314	-36.54	10.92	3.85	-0.0977	-0.3854	-0.2314	
0.113094	1.039928	0.113826	-35.28	12.04	1.54	-0.1052	-0.3774	-0.2283	
0.12688	1.043832	0.155306	-36.61	14.35	-5.88	-0.1051	-0.3774	-0.239	
0.135176	1.030412	0.17568	-38.99	15.54	-10.99	-0.0981	-0.37	-0.2436	
0.123098	1.025654	0.20069	-37.24	16.73	-17.29	-0.0939	-0.3655	-0.2528	
0.130784	1.01748	0.22509	-38.22	14.91	-19.95	-0.0866	-0.3688	-0.2483	
0.141032	0.98149	0.229848	-38.01	14.14	-19.88	-0.0866	-0.3642	-0.2621	
0.149572	0.967582	0.242048	-38.99	9.31	-19.88	-0.075	-0.3662	-0.2607	
0.14457	0.969046	0.273768	-42.91	6.16	-21.49	-0.07669999	-0.3569	-0.2683	
0.14518	0.930128	0.30622	-45.43	8.68	-22.4	-0.0707	-0.3601	-0.276	
0.156892	0.904752	0.334158	-43.68	11.9	-24.43	-0.06659999	-0.3526	-0.2822	
0.152134	0.898408	0.338062	-37.94	19.74	-25.55	-0.0607	-0.3543	-0.2929	
0.12322	0.920734	0.326228	-33.81	24.78	-25.13	-0.061	-0.3436	-0.2899	
0.086132	0.920734	0.315858	-32.83	27.72	-24.5	-0.0469	-0.3333	-0.2946	
0.063074	0.920246	0.316224	-32.62	30.24	-25.69	-0.0471	-0.3241	-0.3069	
0.03843	0.941474	0.314516	-33.39	33.04	-26.32	-0.0455	-0.3303	-0.3053	
0.016958	0.95465	0.335134	-38.43	35	-26.04	-0.0313	-0.32	-0.3162	
0.005734	0.924882	0.348066	-47.88	41.3	-27.16	-0.0225	-0.325	-0.3102	
-0.0061	0.898774	0.371124	-51.87	41.3	-31.29	-0.0198	-0.3143	-0.327	
-0.015006	0.862174	0.40565	-54.18	34.79	-37.73	-0.0002	-0.295	-0.3349	
-0.05795	0.841068	0.442616	-55.37	29.68	-44.45	0.0012	-0.2966	-0.3334	
-0.100772	0.804834	0.467016	-54.46	22.19	-48.09	0.0096	-0.2877	-0.3335	
-0.093818	0.765184	0.484218	-58.59	21.14	-47.11	0.0152	-0.2802	-0.3504	
-0.12017	0.720044	0.486048	-58.66	18.34	-42.98	0.0236	-0.2713	-0.3489	
-0.166774	0.726632	0.479094	-54.53	13.37	-38.92	0.0261	-0.2591	-0.3521	
-0.188978	0.72895	0.502762	-51.94	9.38	-34.86	0.0391	-0.2596	-0.3552	
-0.188978	0.682468	0.54046	-53.97	5.04	-31.99	0.0403	-0.2489	-0.366	
-0.200568	0.69906	0.554734	-50.96	2.52	-29.33	0.046	-0.2475	-0.3614	
-0.216428	0.730292	0.566324	-49.14	0.91	-22.68	0.0458	-0.2383	-0.3706	
-0.216916	0.71614	0.614026	-50.26	0.63	-20.79	0.0398	-0.2304	-0.3721	
-0.215574	0.663436	0.643428	-50.05	0.77	-20.58	0.0438	-0.2183	-0.3813	
-0.220088	0.638792	0.657458	-46.41	3.01	-18.41	0.0494	-0.2139	-0.3829	
-0.223382	0.63013	0.692228	-41.09	8.05	-16.1	0.0405	-0.2074	-0.3813	
-0.273036	0.649284	0.68381	-35.21	12.53	-13.65	0.0487	-0.1909	-0.383	
-0.35075	0.659288	0.692228	-29.82	15.54	-11.76	0.0577	-0.2004	-0.3892	
-0.378932	0.662948	0.690276	-25.9	14.91	-9.03	0.053	-0.191	-0.3891	
-0.368074	0.645258	0.696498	-23.59	15.33	-8.47	0.0556	-0.1788	-0.3938	
-0.358924	0.608048	0.687958	-20.51	13.72	-5.6	0.0571	-0.1819	-0.3968	
-0.350384	0.607072	0.675026	-17.57	13.58	-4.69	0.0619	-0.1974	-0.3877	
-0.348798	0.60817	0.686738	-15.33	12.53	-2.52	0.0675	-0.1915	-0.3893	
-0.3477	0.6161	0.676856	-13.09	8.89	-0.14	0.0681	-0.1655	-0.3878	
-0.352946	0.624884	0.675758	-10.78	5.39	0.63	0.0714	-0.1763	-0.3955	
-0.355508	0.63135	0.687714	-8.05	2.38	1.47	0.0713	-0.1748	-0.3878	
-0.352946	0.624152	0.707112	-6.79	1.05	2.66	0.0639	-0.1699	-0.3893	
-0.34953	0.62342	0.707478	-4.62	-0.63	4.41	0.0728	-0.1764	-0.3924	
-0.35502	0.634034	0.701256	-0.98	-3.43	5.32	0.0639	-0.1699	-0.3939	
-0.353434	0.628666	0.69113	1.89	-5.53	6.09	0.0641	-0.173	-0.3969	
-0.345992	0.63074	0.689178	5.18	-7.63	6.23	0.0655	-0.173	-0.3939	
-0.342332	0.636718	0.674904	7.49	-8.33	6.79	0.0712	-0.1702	-0.3955	
-0.346846	0.63745	0.65026	8.75	-10.29	10.92	0.0627	-0.176	-0.4	
-0.356484	0.656116	0.660142	10.57	-13.02	13.16	0.0571	-0.1819	-0.3907	
-0.35929	0.659776	0.666852	11.34	-16.31	18.9	0.0555	-0.1757	-0.3984	
-0.352214	0.676368	0.657336	11.9	-20.65	23.87	0.054	-0.1772	-0.3861	
-0.332694	0.688446	0.64782	13.51	-24.36	27.09	0.0556	-0.1788	-0.3999	
-0.305	0.691984	0.640744	16.24	-27.37	29.12	0.0383	-0.1782	-0.3967	
-0.29036	0.68808	0.634766	20.02	-32.69	30.03	0.0343	-0.1919	-0.3859	
-0.292556	0.699182	0.621468	22.54	-38.78	33.95	0.0256	-0.1916	-0.3828	
-0.289384	0.716018	0.598044	22.82	-44.87	40.25	0.0186	-0.1974	-0.3857	
-0.248758	0.71858	0.596458	22.96	-51.03	44.31	0.0131	-0.2034	-0.3994	
-0.196664	0.723338	0.591456	24.36	-54.95	46.97	-0.0028	-0.2013	-0.3886	
-0.142984	0.723216	0.572058	23.59	-55.02	49.07	-0.0111	-0.2117	-0.393	
-0.101016	0.729316	0.566202	25.41	-55.72	49.28	-0.0271	-0.2112	-0.3776	
-0.067466	0.735416	0.541802	27.09	-56.35	49.84	-0.0238	-0.222	-0.3807	
-0.040138	0.800808	0.535092	30.17	-59.15	51.59	-0.0428	-0.2152	-0.379	
0.006466	0.830942	0.553026	29.82	-59.43	54.32	-0.0642	-0.2221	-0.3833	
0.044042	0.80947	0.549122	29.68	-59.36	56	-0.0643	-0.2237	-0.3665	
0.072346	0.829234	0.548268	30.38	-57.54	55.86	-0.08109999	-0.24	-0.3617	
0.111386	0.802882	0.535458	30.66	-55.65	54.67	-0.1019	-0.2239	-0.36	
0.12688	0.793122	0.506056	30.73	-53.13	55.65	-0.1061	-0.2268	-0.36	
0.149206	0.80703	0.501664	32.2	-53.41	60.41	-0.1188	-0.2387	-0.3552	
0.174704	0.822036	0.499346	32.27	-53.97	64.05	-0.1318	-0.2382	-0.3536	
0.212524	0.81496	0.485926	30.73	-52.78	64.89	-0.1506	-0.2422	-0.3366	
0.258152	0.812642	0.468114	31.01	-51.03	63.63	-0.1564	-0.2389	-0.3365	
0.271694	0.816302	0.440054	30.31	-46.69	61.04	-0.1608	-0.2403	-0.3304	
0.273402	0.823622	0.43798	31.92	-45.01	60.13	-0.1756	-0.2322	-0.315	
0.284992	0.82106	0.427976	30.66	-44.38	60.34	-0.1782	-0.2413	-0.318	
0.303048	0.808616	0.435418	26.46	-45.85	59.01	-0.1927	-0.2408	-0.3102	
0.297558	0.775066	0.409798	23.8	-45.85	59.64	-0.1997	-0.2451	-0.3178	
0.313906	0.765794	0.372344	20.79	-45.15	60.2	-0.2131	-0.2401	-0.2963	
0.35502	0.814106	0.374418	19.18	-47.39	61.74	-0.2233	-0.232	-0.3053	
0.39162	0.815204	0.370148	12.88	-47.81	62.44	-0.2382	-0.2223	-0.2915	
0.459086	0.770796	0.367952	4.9	-49.98	61.04	-0.2572	-0.2186	-0.2837	
0.474214	0.790316	0.350994	2.73	-48.44	58.1	-0.2701	-0.2212	-0.282	
0.496906	0.812642	0.324032	2.38	-47.53	56.84	-0.2775	-0.2148	-0.2804	
0.508374	0.785924	0.281454	-3.29	-42.84	55.3	-0.2778	-0.2103	-0.2667	
0.51484	0.749934	0.293532	-7.21	-41.09	54.81	-0.3026	-0.2002	-0.2726	
0.541558	0.74481	0.332572	-7.35	-42.77	55.86	-0.2968	-0.2004	-0.2787	
0.561444	0.729072	0.352702	-6.16	-42.91	57.68	-0.3001	-0.1926	-0.2573	
0.611098	0.677222	0.348798	-11.2	-42.49	56	-0.3207	-0.1843	-0.2541	
0.683932	0.683566	0.388082	-6.09	-47.32	62.79	-0.3255	-0.1703	-0.248	
0.72895	0.680272	0.384788	-3.36	-38.22	60.2	-0.3382	-0.1806	-0.2448	
0.71919	0.648552	0.319152	-0.77	-30.1	51.87	-0.3502	-0.1633	-0.2554	
0.716506	0.662338	0.285602	2.03	-25.97	49.49	-0.352	-0.1571	-0.2447	
0.736758	0.683078	0.268644	2.03	-21.77	47.32	-0.357	-0.1386	-0.2325	
0.768844	0.68015	0.274134	-2.8	-22.19	46.27	-0.3654	-0.1444	-0.2446	
0.808616	0.646478	0.280478	-6.09	-23.8	45.22	-0.3627	-0.1414	-0.2324	
0.84851	0.618906	0.284016	-4.13	-21.98	43.33	-0.3614	-0.1338	-0.2416	
0.84485	0.634888	0.265472	-3.29	-20.58	37.1	-0.3649	-0.1184	-0.2309	
0.859124	0.641842	0.2806	-2.17	-15.68	31.5	-0.3678	-0.1183	-0.2278	
0.848022	0.605608	0.246928	-3.08	-14.49	25.41	-0.3636	-0.1153	-0.2263	
0.825086	0.58682	0.214354	-5.46	-15.33	22.19	-0.3836	-0.1192	-0.2307	
0.808006	0.587064	0.201788	-7.49	-15.26	20.65	-0.3839	-0.1147	-0.2155	
0.833504	0.560956	0.223138	-8.12	-15.89	18.34	-0.3796	-0.1133	-0.217	
0.842166	0.544852	0.229848	-9.24	-16.59	17.5	-0.3961	-0.0989	-0.2108	
0.835456	0.546804	0.226432	-10.92	-17.36	17.01	-0.3784	-0.1056	-0.2201	
0.855342	0.561932	0.2318	-10.01	-17.99	15.89	-0.3845	-0.0962	-0.2186	
0.872056	0.562664	0.249612	-11.27	-14.07	12.95	-0.3904	-0.0976	-0.2047	
0.876204	0.543266	0.274134	-13.3	-9.1	10.99	-0.3973	-0.1035	-0.2169	
0.878888	0.519964	0.271694	-13.79	-6.93	7.98	-0.3978	-0.0881	-0.2169	
0.871202	0.523014	0.250832	-10.92	-3.78	5.6	-0.3903	-0.096	-0.217	
0.870714	0.533384	0.256688	-7.98	-2.73	5.6	-0.3893	-0.0853	-0.2139	
0.864492	0.532896	0.247904	-6.02	-4.62	5.04	-0.4049	-0.0955	-0.2077	
0.867786	0.551318	0.260836	-3.29	-1.96	2.38	-0.4008	-0.088	-0.2077	
0.869494	0.557174	0.265594	-3.64	0	-2.17	-0.3976	-0.09429999	-0.2123	
0.87352	0.544608	0.280844	-5.25	3.36	-4.62	-0.4007	-0.0895	-0.2108	
0.885598	0.524722	0.297192	-4.76	4.13	-7.7	-0.3996	-0.0788	-0.2154	
0.893284	0.528748	0.294264	-2.94	5.67	-7.98	-0.4066	-0.0847	-0.2123	
0.889502	0.547292	0.289018	-0.56	7	-11.06	-0.3937	-0.0821	-0.2154	
0.896578	0.577304	0.276818	1.05	9.8	-14	-0.3952	-0.0821	-0.2108	
0.905362	0.614148	0.276208	2.03	12.81	-17.22	-0.3835	-0.0871	-0.2064	
0.91012	0.61	0.284992	0.63	17.5	-22.96	-0.3907	-0.0853	-0.22	
0.909632	0.605852	0.302438	0.84	22.19	-27.86	-0.3872	-0.1023	-0.22	
0.91134	0.598898	0.314516	0.21	26.53	-31.99	-0.3829	-0.1009	-0.2262	
0.893528	0.581818	0.310734	3.22	35.21	-41.44	-0.3826	-0.1085	-0.2292	
0.87474	0.582794	0.306098	5.18	41.51	-46.34	-0.3794	-0.1163	-0.2354	
0.850828	0.574132	0.292678	4.06	46.69	-50.4	-0.3706	-0.1212	-0.2339	
0.81618	0.574498	0.299632	3.5	50.89	-52.71	-0.3632	-0.1214	-0.2492	
0.773724	0.60085	0.330132	5.67	53.69	-55.3	-0.3468	-0.1374	-0.2478	
0.75884	0.631838	0.35502	8.75	45.92	-58.38	-0.3396	-0.1361	-0.2525	
0.730902	0.610122	0.335866	6.79	42.7	-58.66	-0.3362	-0.1484	-0.2662	
0.678198	0.665388	0.303658	6.51	42.49	-59.71	-0.3374	-0.153	-0.2723	
0.639158	0.686738	0.29646	4.55	47.6	-61.32	-0.3227	-0.1627	-0.2694	
0.62403	0.724558	0.32696	1.75	53.55	-65.38	-0.3196	-0.1627	-0.2862	
0.59902	0.701012	0.385764	0.21	60.55	-71.19	-0.299	-0.1773	-0.2788	
0.543388	0.690154	0.437492	3.57	58.38	-72.87	-0.2827	-0.187	-0.2926	
0.50447	0.724314	0.419314	6.02	49.56	-72.1	-0.272	-0.2058	-0.2912	
0.465918	0.75396	0.427244	6.16	46.83	-68.88	-0.262	-0.2	-0.2974	
0.424438	0.773846	0.426268	6.51	45.43	-65.52	-0.2577	-0.2017	-0.2898	
0.391132	0.766282	0.411872	6.09	46.76	-66.29	-0.2601	-0.2139	-0.302	
0.37149	0.78263	0.386496	6.86	47.53	-66.78	-0.2472	-0.2113	-0.3006	
0.346236	0.798124	0.388692	2.94	49.91	-65.59	-0.228	-0.2196	-0.3145	
0.304512	0.82228	0.393328	2.1	50.61	-60.62	-0.2191	-0.226	-0.3161	
0.297192	0.867664	0.418704	2.03	46.34	-63.35	-0.2015	-0.2343	-0.3239	
0.28365	0.869128	0.427732	-6.86	43.33	-67.27	-0.1838	-0.2426	-0.3302	
0.280844	0.840092	0.423218	-11.62	42.21	-67.13	-0.168	-0.2385	-0.3318	
0.26596	0.851682	0.428586	-11.55	42.14	-65.52	-0.1649	-0.2478	-0.3303	
0.237168	0.843386	0.419924	-14.07	46.76	-66.99	-0.1505	-0.2437	-0.3335	
0.20313	0.796416	0.443836	-15.82	50.05	-67.41	-0.1387	-0.2503	-0.3397	
0.159576	0.791902	0.41602	-15.96	45.78	-63.91	-0.1271	-0.2507	-0.3444	
0.126148	0.801662	0.427854	-16.66	45.43	-62.37	-0.1142	-0.248	-0.3476	
0.084668	0.770186	0.44286	-19.04	48.44	-62.23	-0.1051	-0.2591	-0.3492	
0.047946	0.779336	0.477142	-17.57	50.05	-61.74	-0.0951	-0.2564	-0.3524	
-0.002684	0.81801	0.5063	-17.15	51.66	-58.87	-0.0822	-0.2553	-0.3449	
-0.03904	0.78446	0.519354	-21.91	53.13	-50.4	-0.0768	-0.2417	-0.3587	
-0.043066	0.761768	0.543876	-22.89	47.67	-42	-0.0549	-0.247	-0.365	
-0.052704	0.788974	0.540094	-21.21	43.68	-38.36	-0.0403	-0.2537	-0.359	
-0.086742	0.806664	0.523258	-18.97	40.95	-37.24	-0.048	-0.2365	-0.3666	
-0.100284	0.812032	0.523014	-21.21	42.63	-34.09	-0.0261	-0.2434	-0.3684	
-0.101016	0.811422	0.535336	-24.01	39.2	-32.76	-0.0264	-0.2358	-0.3699	
-0.081984	0.819474	0.525332	-25.9	37.59	-32.06	-0.0189	-0.2421	-0.3776	
-0.112484	0.818132	0.52033	-27.65	38.29	-32.83	-0.0105	-0.2348	-0.3701	
-0.15677	0.790316	0.528138	-28.42	36.61	-34.3	-0.0004	-0.2336	-0.3793	
-0.149572	0.752374	0.564982	-27.65	33.25	-35.63	0.0076	-0.217	-0.3795	
-0.150548	0.734318	0.592188	-24.43	29.05	-36.54	0.0113	-0.237	-0.3871	
-0.185684	0.739686	0.601704	-19.46	27.23	-34.58	0.0263	-0.2131	-0.3781	
-0.22082	0.750178	0.600484	-16.52	26.18	-30.8	0.0264	-0.2161	-0.3827	
-0.217892	0.742614	0.604754	-15.54	25.76	-28.84	0.0334	-0.2102	-0.3843	
-0.214842	0.721996	0.605852	-15.12	26.46	-28.7	0.0391	-0.2074	-0.3783	
-0.223992	0.716384	0.619272	-12.46	25.9	-25.48	0.0481	-0.2184	-0.3814	
-0.235582	0.7137	0.633058	-11.13	26.53	-21.56	0.0537	-0.214	-0.3815	
-0.244244	0.724192	0.630252	-9.31	25.97	-17.01	0.0602	-0.1928	-0.3755	
-0.2501	0.735294	0.618052	-9.1	26.95	-13.51	0.0662	-0.1976	-0.3877	
-0.271572	0.73871	0.612074	-8.33	28.14	-12.74	0.065	-0.2037	-0.3846	
-0.280478	0.735172	0.604266	-7.21	29.61	-12.6	0.0705	-0.1978	-0.3847	
-0.295118	0.724192	0.601216	-6.86	28.84	-12.11	0.07889999	-0.1873	-0.3848	
-0.298778	0.720532	0.59109	-6.23	26.39	-12.04	0.09339999	-0.1924	-0.3773	
-0.323544	0.72285	0.581818	-7.84	27.09	-11.76	0.0849	-0.1967	-0.3833	
-0.342454	0.72224	0.591334	-7.35	24.08	-10.64	0.096	-0.1849	-0.3774	
-0.361364	0.729438	0.58743	-6.65	20.86	-10.99	0.0962	-0.1879	-0.3804	
-0.357826	0.754204	0.59414	-7.14	19.04	-11.48	0.1091	-0.1884	-0.3775	
-0.361974	0.75335	0.591212	-9.03	17.64	-10.15	0.099	-0.1865	-0.3789	
-0.380396	0.748348	0.573766	-10.01	16.31	-10.71	0.1003	-0.1835	-0.382	
-0.387594	0.751642	0.58499	-10.22	14.49	-11.55	0.1162	-0.1825	-0.3837	
-0.39528	0.727852	0.596092	-11.06	12.67	-11.9	0.1092	-0.1884	-0.3836	
-0.405894	0.721386	0.585478	-10.36	10.71	-10.85	0.113	-0.1717	-0.3867	
-0.418826	0.720532	0.57523	-10.36	8.75	-10.29	0.1146	-0.1779	-0.3806	
-0.427122	0.716994	0.58377	-9.94	6.65	-8.89	0.1163	-0.1825	-0.3913	
-0.429318	0.704916	0.592676	-10.36	3.92	-7.42	0.1188	-0.1749	-0.3776	
-0.434808	0.693082	0.595116	-10.99	0.63	-4.97	0.1204	-0.1781	-0.3807	
-0.436028	0.69479	0.596702	-10.85	-2.73	-2.38	0.1172	-0.1687	-0.3883	
-0.441152	0.682468	0.614758	-10.99	-4.97	-0.49	0.1162	-0.181	-0.3913	
-0.431392	0.660508	0.622444	-10.5	-7.28	1.4	0.1116	-0.1716	-0.3882	
-0.43493	0.671122	0.622444	-8.82	-9.24	2.52	0.1158	-0.1687	-0.3913	
-0.440542	0.68564	0.625128	-8.4	-9.73	3.15	0.1125	-0.1594	-0.3806	
-0.428708	0.66368	0.634888	-8.82	-11.55	5.18	0.1158	-0.164	-0.4036	
-0.411994	0.629276	0.663558	-8.05	-14.14	6.72	0.1128	-0.1655	-0.3929	
-0.420778	0.628056	0.668316	-5.18	-15.96	8.33	0.1145	-0.1686	-0.4005	
-0.411872	0.654896	0.665632	-1.82	-16.31	10.43	0.0999	-0.1681	-0.3897	
-0.415654	0.647332	0.661728	-0.98	-15.19	11.55	0.1052	-0.1545	-0.3882	
-0.416508	0.62281	0.655628	1.54	-16.38	12.18	0.1088	-0.1715	-0.3974	
-0.413702	0.62037	0.66429	4.34	-18.41	14.35	0.0928	-0.1694	-0.3911	
-0.419802	0.626226	0.661972	6.93	-21	19.18	0.0985	-0.1681	-0.3958	
-0.40687	0.638792	0.663436	8.82	-24.29	22.89	0.0972	-0.1726	-0.3927	
-0.386496	0.630618	0.659288	10.29	-27.51	25.62	0.09999999	-0.1712	-0.3866	
-0.357704	0.63318	0.661118	12.67	-32.27	28.35	0.0758	-0.1811	-0.3848	
-0.319396	0.612318	0.674538	14.42	-35.35	32.97	0.0686	-0.1793	-0.397	
-0.3111	0.618418	0.66307	17.64	-35.63	36.82	0.0558	-0.1865	-0.3892	
-0.293166	0.638182	0.654652	20.3	-36.33	40.67	0.0573	-0.185	-0.3984	
-0.279624	0.65392	0.644648	22.54	-38.64	45.64	0.0386	-0.1905	-0.3921	
-0.274744	0.66795	0.625738	22.61	-42	49.35	0.0344	-0.1949	-0.392	
-0.22387	0.693936	0.655994	23.73	-45.15	51.73	0.0211	-0.1853	-0.3858	
-0.190564	0.656116	0.650992	23.94	-45.15	53.27	0.0231	-0.2037	-0.3858	
-0.160308	0.679906	0.638304	28.56	-46.62	52.85	0.0058	-0.2016	-0.3871	
-0.124928	0.697474	0.604754	29.96	-45.08	54.6	-0.0054	-0.2119	-0.3824	
-0.102602	0.71919	0.583892	30.59	-44.52	59.36	-0.0082	-0.2149	-0.3763	
-0.077958	0.751032	0.574742	30.66	-45.92	62.3	-0.0198	-0.2161	-0.3731	
-0.049776	0.764574	0.57035	32.2	-47.74	64.12	-0.0342	-0.2171	-0.3745	
-0.014762	0.793488	0.552294	32.9	-46.48	64.33	-0.0485	-0.2196	-0.3758	
0.04209	0.81801	0.524478	33.6	-47.11	64.33	-0.0617	-0.2161	-0.362	
0.093086	0.809592	0.501786	31.08	-46.76	65.52	-0.0714	-0.228	-0.368	
0.122732	0.80093	0.483364	29.89	-47.25	66.29	-0.0828	-0.2307	-0.3663	
0.157014	0.818742	0.448106	31.92	-48.44	64.12	-0.0941	-0.2411	-0.3601	
0.19093	0.832162	0.429684	32.2	-49.49	64.19	-0.1017	-0.2316	-0.3524	
0.223992	0.82838	0.417606	29.4	-51.38	65.52	-0.1189	-0.2387	-0.3415	
0.258274	0.80947	0.408822	28.56	-52.64	65.45	-0.1333	-0.2413	-0.3383	
0.291336	0.807884	0.395402	27.65	-52.22	64.19	-0.1411	-0.2226	-0.3383	
0.33489	0.79605	0.397964	24.92	-52.43	63	-0.1565	-0.2358	-0.3396	
0.365024	0.774944	0.408578	24.43	-51.73	65.66	-0.1535	-0.239	-0.3396	
0.38857	0.768478	0.413458	24.01	-50.82	69.44	-0.168	-0.24	-0.3303	
0.411262	0.786534	0.38674	24.5	-51.66	70.49	-0.1843	-0.2303	-0.3241	
0.43676	0.803248	0.387472	23.24	-49.77	73.5	-0.2073	-0.2341	-0.3162	
0.464088	0.808128	0.389058	21.56	-47.6	74.55	-0.216	-0.2369	-0.2993	
0.470554	0.832894	0.40321	19.67	-46.69	72.94	-0.2306	-0.2318	-0.3053	
0.474946	0.823378	0.39345	16.03	-43.89	67.2	-0.2349	-0.2347	-0.2976	
0.512156	0.809714	0.38064	15.68	-43.89	61.95	-0.2395	-0.2253	-0.2945	
0.543876	0.793854	0.34465	12.39	-40.6	57.75	-0.257	-0.2217	-0.2882	
0.551562	0.787998	0.335256	9.94	-37.94	54.18	-0.2731	-0.2165	-0.282	
0.587552	0.756278	0.335622	7.77	-34.93	52.64	-0.2908	-0.2083	-0.2742	
0.609512	0.735782	0.29768	2.1	-33.95	52.08	-0.2794	-0.2071	-0.2682	
0.632448	0.727486	0.290116	-1.96	-33.88	52.71	-0.294	-0.199	-0.2696	
0.642818	0.721386	0.2806	-6.09	-31.78	54.74	-0.3	-0.1926	-0.268	
0.654042	0.706136	0.266692	-8.4	-31.5	54.81	-0.3161	-0.1875	-0.2648	
0.669414	0.691862	0.284138	-9.45	-30.1	54.11	-0.3164	-0.1798	-0.2587	
0.663558	0.688202	0.298046	-12.53	-31.92	54.11	-0.3208	-0.1796	-0.2556	
0.670268	0.654652	0.269132	-13.44	-33.32	51.73	-0.324	-0.1688	-0.2572	
0.698694	0.651724	0.280356	-13.58	-33.74	49.07	-0.333	-0.1577	-0.2632	
0.751032	0.650504	0.308172	-10.29	-34.72	45.43	-0.3401	-0.1667	-0.2478	
0.772504	0.643794	0.30683	-12.18	-32.13	43.61	-0.3477	-0.1526	-0.2478	
0.798368	0.60024	0.291336	-12.67	-28	40.95	-0.3535	-0.1571	-0.2386	
0.800686	0.580964	0.261446	-12.88	-25.69	37.66	-0.3514	-0.1326	-0.2417	
0.797392	0.600972	0.270474	-8.61	-21	33.95	-0.373	-0.1318	-0.2476	
0.793488	0.618296	0.285236	-10.29	-22.96	30.38	-0.3529	-0.1295	-0.2371	
0.81069	0.600118	0.264862	-9.94	-23.59	33.53	-0.3589	-0.1247	-0.2325	
0.799466	0.58194	0.249978	-14.07	-24.92	34.23	-0.3679	-0.1136	-0.237	
0.814472	0.584014	0.268888	-9.73	-21.77	32.97	-0.374	-0.1073	-0.2293	
0.848632	0.59109	0.285968	-7.42	-18.55	28.91	-0.3824	-0.1131	-0.2353	
0.865224	0.572546	0.289628	-9.8	-18.2	23.94	-0.39	-0.1006	-0.2307	
0.891576	0.561444	0.285602	-9.73	-17.92	22.47	-0.3858	-0.1008	-0.2246	
0.898774	0.571082	0.281576	-8.19	-14.35	19.6	-0.3875	-0.0915	-0.2246	
0.904142	0.566202	0.277672	-7.14	-11.41	14.14	-0.3935	-0.0883	-0.217	
0.883036	0.536312	0.256444	-8.47	-7.77	7.35	-0.3936	-0.0852	-0.2139	
0.866932	0.523868	0.250466	-6.23	-3.64	3.43	-0.392	-0.0883	-0.22	
0.878278	0.52887	0.248148	-4.13	-1.68	0.63	-0.395	-0.0867	-0.2124	
0.88755	0.514474	0.244366	-5.81	-2.59	-1.12	-0.3994	-0.085	-0.2123	
0.883768	0.488854	0.225212	-6.3	-1.54	-2.38	-0.3907	-0.0853	-0.2185	
0.887062	0.494344	0.237412	-5.18	-2.03	-0.28	-0.3949	-0.0851	-0.2261	
0.897066	0.498004	0.247904	-5.18	-0.84	-1.47	-0.3907	-0.0853	-0.217	
0.921588	0.48556	0.260226	-5.39	1.12	-2.45	-0.3906	-0.0853	-0.2277	
0.93574	0.482632	0.262056	-5.88	1.26	-0.77	-0.3993	-0.085	-0.2169	
0.947086	0.478972	0.26352	-2.38	6.16	-4.27	-0.3892	-0.0853	-0.2216	
0.944036	0.510326	0.261446	1.68	10.43	-6.65	-0.3931	-0.0959	-0.2307	
0.934032	0.53009	0.262544	4.34	15.12	-11.55	-0.3937	-0.0806	-0.2185	
0.915244	0.535458	0.25559	3.36	20.09	-16.66	-0.3905	-0.0883	-0.2216	
0.913536	0.534238	0.25315	1.61	23.24	-20.58	-0.395	-0.0836	-0.2276	
0.910974	0.54473	0.266692	1.26	26.25	-23.45	-0.3805	-0.0841	-0.2339	
0.912072	0.548268	0.281088	4.9	33.74	-30.31	-0.3799	-0.0994	-0.2415	
0.915244	0.564372	0.297558	7.7	40.95	-35.49	-0.371	-0.1059	-0.2416	
0.90951	0.575596	0.312076	10.01	47.39	-41.16	-0.3594	-0.1047	-0.2509	
0.873154	0.577304	0.312076	9.38	52.78	-46.06	-0.3618	-0.1184	-0.26	
0.847778	0.582916	0.309148	8.4	54.95	-49.98	-0.3473	-0.1189	-0.2616	
0.83204	0.595238	0.314638	7.98	53.41	-54.39	-0.3457	-0.1235	-0.2662	
0.805078	0.596702	0.312198	6.86	54.04	-58.38	-0.3353	-0.1316	-0.2663	
0.767868	0.61671	0.299144	6.16	53.34	-61.88	-0.3277	-0.1395	-0.2755	
0.724558	0.64172	0.290482	4.83	51.94	-64.96	-0.3184	-0.1582	-0.2817	
0.719678	0.657824	0.336354	-0.77	49.49	-67.97	-0.3215	-0.1535	-0.2771	
0.697718	0.633058	0.35624	-4.2	50.96	-67.13	-0.3009	-0.1588	-0.2925	
0.660874	0.638914	0.379664	-3.78	52.57	-69.23	-0.2916	-0.179	-0.2987	
0.615368	0.673318	0.382348	-0.7	55.37	-73.01	-0.2729	-0.1735	-0.3065	
0.57035	0.712602	0.379298	0.49	52.36	-77.14	-0.271	-0.1859	-0.3065	
0.529236	0.75152	0.395158	2.03	49.35	-77.14	-0.2494	-0.1851	-0.3113	
0.48007	0.776042	0.398086	0.77	50.26	-75.74	-0.2389	-0.1947	-0.3144	
0.435418	0.742614	0.410896	-5.39	49.28	-76.02	-0.2328	-0.2056	-0.3191	
0.409676	0.750666	0.410652	-5.11	49.21	-76.79	-0.2226	-0.2075	-0.3176	
0.374296	0.786778	0.427	-3.99	51.66	-77.21	-0.2166	-0.2138	-0.3238	
0.347212	0.802394	0.434076	-5.25	53.97	-78.47	-0.2033	-0.2204	-0.3331	
0.299632	0.785314	0.448472	-7.28	58.03	-80.08	-0.1785	-0.2259	-0.3379	
0.242536	0.773724	0.449326	-10.15	58.1	-77.56	-0.1783	-0.2335	-0.3379	
0.185928	0.78812	0.450668	-9.52	59.08	-75.88	-0.1492	-0.2376	-0.3458	
0.155916	0.808982	0.460184	-8.47	60.13	-77.77	-0.1463	-0.2393	-0.3412	
0.125538	0.797026	0.489464	-8.96	62.72	-81.76	-0.1146	-0.2358	-0.3507	
0.098942	0.790194	0.49227	-9.8	59.71	-82.25	-0.1056	-0.2453	-0.3538	
0.078324	0.784704	0.500932	-12.46	57.4	-80.71	-0.0926	-0.2442	-0.357	
0.042822	0.769698	0.503494	-13.16	56.63	-78.4	-0.0741	-0.2341	-0.3649	
0.006466	0.769942	0.503128	-13.65	55.23	-77.21	-0.0584	-0.2316	-0.3543	
-0.03355	0.785436	0.502884	-14.14	53.9	-75.74	-0.041	-0.2322	-0.3621	
-0.069418	0.772138	0.522892	-17.5	51.66	-71.54	-0.0368	-0.2262	-0.3714	
-0.099186	0.759206	0.529846	-20.51	47.18	-61.67	-0.0216	-0.2466	-0.3745	
-0.113704	0.788242	0.52338	-20.02	42.21	-54.25	-0.0075	-0.2364	-0.3732	
-0.094184	0.77348	0.538386	-21	40.39	-51.17	0.0023	-0.2306	-0.3733	
-0.089304	0.7564	0.552416	-18.62	36.89	-49.91	0.0067	-0.2339	-0.3748	
-0.104066	0.768966	0.549854	-18.06	36.54	-51.73	0.0213	-0.2374	-0.3734	
-0.126392	0.785558	0.54778	-17.22	35.21	-52.01	0.0338	-0.2225	-0.3767	
-0.122122	0.765916	0.564738	-19.53	37.38	-50.75	0.0424	-0.2213	-0.3813	
-0.156038	0.730536	0.563884	-20.65	37.52	-48.02	0.0495	-0.22	-0.3738	
-0.210694	0.739564	0.568154	-17.22	34.23	-45.43	0.0552	-0.2141	-0.3845	
-0.28792	0.73139	0.56242	-18.2	33.46	-40.95	0.0665	-0.2099	-0.377	
-0.299144	0.726022	0.57157	-16.38	30.66	-37.17	0.0678	-0.2038	-0.377	
-0.324154	0.724558	0.578646	-15.68	29.26	-36.05	0.0778	-0.1996	-0.3802	
-0.365756	0.726022	0.582062	-13.79	26.88	-34.02	0.0837	-0.2028	-0.3864	
-0.392596	0.732244	0.587064	-11.9	23.66	-30.24	0.0909	-0.2031	-0.3803	
-0.396988	0.735416	0.589016	-11.97	20.09	-28.7	0.0931	-0.1848	-0.3789	
-0.38857	0.72956	0.591944	-13.09	17.29	-27.79	0.0995	-0.2003	-0.3804	
-0.372588	0.713212	0.616832	-14.35	15.61	-25.13	0.0964	-0.1941	-0.3835	
-0.375882	0.68381	0.620492	-14.28	15.33	-22.82	0.1047	-0.1821	-0.3927	
-0.38003	0.683932	0.62159	-11.9	16.03	-22.75	0.1091	-0.1853	-0.3821	
-0.40016	0.697108	0.604876	-10.01	18.55	-21.84	0.1146	-0.1809	-0.373	
-0.414434	0.690642	0.593408	-11.13	21.14	-19.46	0.119	-0.1811	-0.3791	
-0.447984	0.664534	0.58743	-11.83	20.44	-16.45	0.1148	-0.1824	-0.3928	
-0.469334	0.67649	0.58133	-9.8	16.66	-14	0.1261	-0.1767	-0.3777	
-0.474702	0.704306	0.572424	-9.24	13.44	-12.74	0.1231	-0.172	-0.3838	
-0.470676	0.704062	0.57462	-11.55	11.41	-10.92	0.126	-0.1706	-0.3899	
-0.45445	0.652334	0.590236	-13.44	3.57	-9.73	0.1234	-0.1781	-0.4006	
-0.442372	0.658434	0.597556	-10.71	-2.03	-10.15	0.14	-0.1603	-0.384	
-0.437492	0.67161	0.595726	-9.66	-2.31	-9.59	0.1403	-0.1665	-0.3885	
-0.446154	0.677222	0.599996	-10.22	-1.68	-8.4	0.1343	-0.1648	-0.3809	
-0.462136	0.657824	0.602314	-11.76	-1.68	-5.95	0.1343	-0.1632	-0.3793	
-0.466284	0.660508	0.613904	-10.92	-2.66	-4.55	0.1355	-0.1571	-0.3778	
-0.469334	0.650382	0.623908	-10.43	-2.52	-3.08	0.1284	-0.1584	-0.3839	
-0.463722	0.652578	0.627446	-9.66	-3.29	-1.19	0.1338	-0.1463	-0.3824	
-0.462014	0.644404	0.627446	-9.03	-3.85	-0.14	0.1429	-0.1604	-0.3855	
-0.47397	0.644526	0.623298	-7.7	-4.34	0.98	0.1326	-0.1524	-0.3946	
-0.481656	0.646478	0.62891	-6.65	-5.39	1.82	0.1326	-0.154	-0.3824	
-0.479826	0.639768	0.638792	-6.58	-6.93	3.85	0.1283	-0.1569	-0.3823	
-0.479704	0.62586	0.640256	-6.72	-8.82	6.02	0.1308	-0.1432	-0.3839	
-0.469212	0.612318	0.660386	-5.74	-10.57	6.93	0.1194	-0.1473	-0.3899	
-0.473604	0.602314	0.659044	-3.43	-12.18	9.31	0.1281	-0.1461	-0.3946	
-0.457134	0.615124	0.647698	0.84	-14.7	12.25	0.125	-0.1399	-0.3961	
-0.463966	0.619394	0.642696	2.59	-15.82	14.7	0.1125	-0.1563	-0.3868	
-0.47458	0.620858	0.638548	4.27	-19.32	18.41	0.1209	-0.1489	-0.3853	
-0.460794	0.61488	0.645868	5.11	-23.8	22.68	0.1079	-0.1485	-0.3928	
-0.45201	0.622078	0.650992	7.35	-28.7	26.6	0.1023	-0.1529	-0.3913	
-0.43432	0.620004	0.663558	8.12	-31.01	30.31	0.1055	-0.1591	-0.4004	
-0.42273	0.611952	0.667462	10.15	-36.33	34.86	0.0939	-0.1602	-0.3957	
-0.40565	0.623054	0.670146	13.02	-40.25	37.73	0.0894	-0.1539	-0.3942	
-0.380762	0.62952	0.656604	15.47	-42.98	40.81	0.0766	-0.1596	-0.391	
-0.352946	0.631472	0.643794	17.43	-45.08	44.1	0.0725	-0.1671	-0.3955	
-0.324886	0.6527	0.658922	19.67	-45.43	46.2	0.061	-0.1714	-0.3816	
-0.318298	0.640134	0.64111	20.93	-46.06	49.49	0.054	-0.1757	-0.3953	
-0.282918	0.67222	0.640866	22.89	-47.39	53.62	0.0457	-0.1861	-0.3937	
-0.237046	0.651114	0.640012	21.7	-47.81	56.14	0.0353	-0.1765	-0.3982	
-0.217648	0.647942	0.620858	23.38	-48.37	59.15	0.0182	-0.1836	-0.3965	
-0.18117	0.67344	0.63257	26.46	-47.81	58.52	0.0197	-0.1867	-0.3888	
-0.14091	0.682712	0.630008	29.33	-46.69	61.39	-0.0085	-0.2057	-0.3809	
-0.113948	0.681248	0.60695	30.87	-48.86	64.61	-0.0231	-0.2021	-0.3777	
-0.099552	0.711992	0.593896	32.55	-48.3	65.8	-0.0301	-0.2049	-0.3883	
-0.07515199	0.739564	0.570228	33.46	-48.65	66.57	-0.037	-0.2154	-0.3836	
-0.039162	0.750422	0.56242	33.04	-49.28	68.04	-0.0461	-0.2028	-0.3835	
-0.000122	0.762622	0.53924	33.53	-51.45	68.6	-0.0629	-0.2207	-0.3742	
0.0549	0.77958	0.52948	33.04	-54.46	70.14	-0.0758	-0.2217	-0.3756	
0.108214	0.789584	0.515816	30.73	-56.21	71.89	-0.0891	-0.2151	-0.3693	
0.142618	0.783362	0.488244	27.79	-55.79	72.66	-0.1016	-0.2347	-0.357	
0.183366	0.77043	0.459452	25.2	-55.44	75.39	-0.1132	-0.2296	-0.3645	
0.209474	0.757864	0.444324	24.08	-56.35	79.94	-0.1365	-0.2273	-0.3505	
0.252052	0.757132	0.436394	23.31	-57.4	83.09	-0.1366	-0.2258	-0.3414	
0.296338	0.745054	0.42456	21.21	-60.06	84.77	-0.1615	-0.2173	-0.3365	
0.34709	0.735904	0.415044	19.46	-61.46	86.03	-0.1728	-0.2245	-0.3379	
0.406504	0.719678	0.407114	17.5	-62.79	87.99	-0.1875	-0.2163	-0.3409	
0.511058	0.727486	0.414312	18.2	-64.12	86.8	-0.1977	-0.2129	-0.3347	
0.534238	0.73749	0.403088	16.59	-62.79	84	-0.2138	-0.2093	-0.3284	
0.535702	0.728462	0.386618	16.1	-56.98	82.04	-0.2323	-0.2194	-0.3175	
0.516548	0.732244	0.334402	12.88	-52.64	80.57	-0.2358	-0.204	-0.3038	
0.615734	0.755424	0.399916	11.41	-54.39	78.75	-0.2487	-0.2066	-0.3052	
0.68076	0.774822	0.439444	7.77	-55.51	77.77	-0.2623	-0.1924	-0.2913	
0.692594	0.744322	0.41724	5.25	-47.67	69.86	-0.2708	-0.1951	-0.2989	
0.654774	0.711748	0.386862	-0.07	-46.62	64.12	-0.2856	-0.1885	-0.288	
0.652578	0.672464	0.351238	-0.42	-43.12	57.61	-0.299	-0.1742	-0.2879	
0.666242	0.659532	0.317078	3.43	-35.91	48.44	-0.3051	-0.1694	-0.2757	
0.704794	0.677954	0.315858	4.34	-34.16	41.93	-0.3168	-0.1613	-0.2863	
0.739442	0.675148	0.30683	0.63	-31.71	42.21	-0.3082	-0.1601	-0.2787	
0.738466	0.65209	0.290482	-7.07	-31.78	40.6	-0.3239	-0.1657	-0.277	
0.7442	0.650748	0.289506	-10.92	-35.77	44.03	-0.3261	-0.1488	-0.2618	
0.761524	0.649162	0.300608	-11.55	-35.07	44.17	-0.3262	-0.1442	-0.2648	
0.778238	0.66368	0.312198	-11.62	-30.73	39.97	-0.3352	-0.1331	-0.2678	
0.848754	0.642452	0.33306	-13.93	-27.51	32.9	-0.3529	-0.1248	-0.257	
0.868274	0.598776	0.321226	-19.53	-27.79	30.94	-0.3457	-0.1236	-0.2571	
0.912438	0.557906	0.328058	-15.12	-23.94	31.92	-0.3645	-0.126	-0.2523	
0.922076	0.561078	0.31232	-8.19	-16.73	28.21	-0.3534	-0.1141	-0.2448	
0.912316	0.570594	0.317078	-1.61	-4.62	17.22	-0.3604	-0.1185	-0.2539	
0.862296	0.58499	0.305	-5.53	-2.87	12.04	-0.3707	-0.112	-0.2523	
0.864492	0.567178	0.289506	-5.88	-2.87	8.12	-0.3593	-0.1093	-0.2463	
0.85156	0.57096	0.275598	-3.71	0.7	-0.07	-0.3636	-0.1122	-0.2432	
0.843996	0.598044	0.263032	-4.13	1.26	-3.08	-0.3592	-0.1093	-0.2539	
0.839604	0.60939	0.270108	-4.76	-1.12	-6.79	-0.3651	-0.1076	-0.2447	
0.839238	0.59231	0.285724	-6.58	-1.26	-9.94	-0.3652	-0.1045	-0.2508	
0.853146	0.562298	0.291946	-9.66	-2.1	-15.89	-0.3575	-0.1186	-0.2493	
0.859612	0.55571	0.289872	-9.17	-3.36	-16.87	-0.3565	-0.1079	-0.2432	
0.85888	0.58072	0.295972	-10.08	-4.27	-13.44	-0.3722	-0.1119	-0.2477	
0.85949	0.573156	0.310002	-10.08	-1.33	-14.98	-0.3563	-0.1109	-0.2524	
0.856196	0.527162	0.322812	-10.22	3.29	-17.57	-0.3722	-0.1104	-0.2507	
0.827526	0.557784	0.318542	-4.13	6.02	-18.06	-0.3591	-0.1155	-0.2493	
0.8174	0.609268	0.338184	0.63	9.38	-20.86	-0.3617	-0.1246	-0.2462	
0.815082	0.616344	0.351482	2.8	13.37	-25.62	-0.3562	-0.114	-0.2478	
0.803004	0.604632	0.355264	2.8	14.91	-30.87	-0.3546	-0.1187	-0.2524	
0.788486	0.605852	0.358436	3.64	15.12	-31.36	-0.3586	-0.1262	-0.2569	
0.767502	0.617076	0.3599	7	18.2	-38.43	-0.3455	-0.1297	-0.2616	
0.768966	0.639158	0.358436	10.5	26.04	-47.11	-0.3555	-0.1324	-0.26	
0.774334	0.640256	0.359412	10.29	28.14	-48.3	-0.3383	-0.1284	-0.2602	
0.782386	0.640378	0.36539	8.4	27.23	-47.88	-0.3332	-0.1485	-0.2709	
0.756522	0.648918	0.364658	7.14	28.49	-46.97	-0.3331	-0.1578	-0.2525	
0.682468	0.692106	0.351848	5.67	29.19	-46.76	-0.3257	-0.158	-0.2663	
0.640988	0.726266	0.362218	5.18	29.68	-49.77	-0.3083	-0.1586	-0.2757	
0.658922	0.701134	0.405162	5.53	33.25	-51.66	-0.3079	-0.1739	-0.2695	
0.69601	0.601826	0.467016	4.27	41.72	-47.46	-0.3079	-0.1693	-0.2802	
0.713822	0.5978	0.44103	8.12	41.93	-46.97	-0.3047	-0.1817	-0.2772	
0.601582	0.70516	0.405162	10.36	53.55	-50.89	-0.2822	-0.2039	-0.2865	
0.58804	0.577182	0.50447	10.43	69.09	-44.24	-0.2624	-0.1908	-0.2913	
0.645746	0.535092	0.47702	20.3	71.4	-33.04	-0.2563	-0.1956	-0.3005	
0.61854	0.686738	0.397476	25.06	75.39	-29.05	-0.2547	-0.2033	-0.299	
0.531554	0.77958	0.355508	23.87	84.84	-26.88	-0.2382	-0.2161	-0.3129	
0.445056	0.825818	0.327448	24.08	105.28	-18.83	-0.2306	-0.2287	-0.3099	
0.338672	0.787632	0.316834	18.48	106.54	-12.32	-0.2105	-0.2186	-0.3345	
0.283406	0.771162	0.306098	23.24	99.05	-3.43	-0.1898	-0.2347	-0.3301	
0.21594	0.833504	0.292678	24.85	87.64	-1.54	-0.1798	-0.2304	-0.3348	
0.12444	0.879132	0.292922	27.23	72.73	-3.57	-0.1739	-0.2368	-0.3318	
0.111508	0.902312	0.332572	31.01	57.89	-3.92	-0.1566	-0.2343	-0.3381	
0.127734	0.906826	0.35197	28.21	43.82	-8.61	-0.1534	-0.2421	-0.3396	
0.15494	0.925248	0.36478	18.97	27.16	-19.95	-0.1447	-0.247	-0.3336	
0.15128	0.916586	0.360266	10.85	18.97	-24.71	-0.1458	-0.2546	-0.3351	
0.150182	0.894504	0.360022	4.41	9.52	-25.13	-0.1404	-0.2456	-0.3336	
0.14884	0.887916	0.370758	-0.35	-3.78	-31.29	-0.143	-0.2532	-0.3321	
0.124318	0.935618	0.38674	-1.96	-20.23	-40.04	-0.1429	-0.2547	-0.3351	
0.119438	0.964288	0.380762	-2.94	-28.35	-41.51	-0.1356	-0.258	-0.3413	
0.114802	0.98454	0.371978	-4.62	-39.34	-42.56	-0.1356	-0.2596	-0.3321	
0.101504	0.979538	0.349286	-9.03	-52.22	-43.61	-0.127	-0.2568	-0.3368	
0.106506	0.955626	0.364536	-18.2	-66.15	-40.32	-0.1386	-0.2549	-0.3352	
0.191052	0.874618	0.381372	-27.09	-66.15	-42.98	-0.15	-0.2621	-0.3304	
0.218136	0.850828	0.416142	-25.97	-64.61	-42.63	-0.1546	-0.2528	-0.3258	
0.260836	0.842044	0.41358	-24.08	-66.15	-44.73	-0.1516	-0.2575	-0.3213	
0.25498	0.860588	0.416752	-16.87	-63.63	-52.57	-0.1646	-0.2586	-0.3196	
0.202764	0.901702	0.37942	-12.32	-63.21	-54.53	-0.1604	-0.251	-0.3304	
0.175558	0.950746	0.363316	-8.12	-65.73	-54.04	-0.166	-0.2585	-0.3272	
0.218868	0.927932	0.372832	-18.76	-88.41	-59.78	-0.1701	-0.2676	-0.315	
0.261934	0.868274	0.39406	-29.96	-97.37	-61.18	-0.179	-0.2596	-0.3149	
0.30622	0.83143	0.39955	-32.83	-98.42	-61.74	-0.1803	-0.2673	-0.3103	
0.306586	0.826672	0.39589	-31.43	-94.15	-64.33	-0.1889	-0.27	-0.3056	
0.276452	0.869494	0.391986	-28.28	-95.97	-62.79	-0.1908	-0.2562	-0.3041	
0.266936	0.907314	0.406138	-27.51	-98.84	-61.46	-0.2032	-0.2757	-0.2978	
0.272182	0.89304	0.41968	-29.26	-100.31	-59.92	-0.2119	-0.2785	-0.2885	
0.274256	0.841312	0.3965	-31.08	-101.92	-57.96	-0.2254	-0.2627	-0.2885	
0.278038	0.860954	0.395036	-25.06	-105.84	-57.05	-0.2193	-0.2736	-0.2763	
0.284504	0.874862	0.394182	-21.28	-107.59	-58.87	-0.2364	-0.2807	-0.2776	
0.31598	0.85034	0.430294	-20.37	-109.55	-58.24	-0.2336	-0.2824	-0.2654	
0.334646	0.817156	0.436028	-19.81	-105.21	-60.76	-0.2484	-0.2742	-0.2515	
0.319152	0.787022	0.4148	-18.69	-104.02	-54.74	-0.2451	-0.2866	-0.2531	
0.311344	0.772016	0.447252	-11.48	-104.58	-49.14	-0.2509	-0.2895	-0.2438	
0.332694	0.79117	0.450912	-4.06	-99.68	-44.24	-0.2555	-0.2863	-0.2285	
0.396012	0.777018	0.465186	-5.74	-92.33	-34.51	-0.2724	-0.2964	-0.2283	
0.390034	0.777872	0.454572	-2.87	-80.64	-28.28	-0.2712	-0.2903	-0.2238	
0.377102	0.817034	0.446154	0.84	-70.07	-22.26	-0.2739	-0.301	-0.2069	
0.35014	0.847534	0.443714	3.08	-60.9	-20.3	-0.2727	-0.2949	-0.2024	
0.335744	0.88023	0.452864	2.73	-53.55	-16.66	-0.277	-0.2978	-0.2008	
0.316102	0.865224	0.410408	-1.4	-41.37	-16.31	-0.2753	-0.3087	-0.1855	
0.269986	0.865956	0.401746	-1.82	-37.8	-16.94	-0.2767	-0.3071	-0.1931	
0.258518	0.879742	0.39345	-1.82	-37.94	-13.02	-0.281	-0.3084	-0.1961	
0.237534	0.87901	0.383324	0.35	-37.24	-13.58	-0.2783	-0.3071	-0.1778	
0.272304	0.89731	0.36356	1.26	-38.22	-11.9	-0.2885	-0.3067	-0.1686	
0.265228	0.919148	0.366732	1.68	-39.34	-12.25	-0.2968	-0.3141	-0.1792	
0.259738	0.934764	0.38918	1.19	-39.41	-13.44	-0.2926	-0.3142	-0.1639	
0.253394	0.917318	0.37088	-2.24	-36.61	-15.89	-0.2898	-0.3143	-0.1624	
0.249368	0.91683	0.391376	-0.56	-36.26	-16.73	-0.2997	-0.3155	-0.1776	
0.262788	0.896334	0.405528	-1.19	-32.83	-16.87	-0.2999	-0.3171	-0.1547	
0.254614	0.877546	0.392596	-0.14	-28.77	-17.01	-0.2841	-0.3115	-0.164	
0.272548	0.858148	0.398208	-0.21	-24.5	-13.86	-0.2913	-0.3159	-0.1502	
0.291214	0.849852	0.39223	1.19	-20.09	-10.99	-0.2938	-0.3265	-0.1517	
0.31232	0.84546	0.406748	1.12	-14.98	-7.91	-0.3026	-0.3231	-0.147	
0.345382	0.847534	0.418826	-0.28	-8.19	-2.87	-0.2912	-0.3205	-0.141	
0.31964	0.849974	0.390156	-1.19	2.1	0.21	-0.2851	-0.3268	-0.1548	
0.302316	0.895358	0.370148	0.21	11.2	5.39	-0.2883	-0.3206	-0.1456	
0.28609	0.896456	0.342942	0.21	15.19	7.49	-0.2865	-0.3267	-0.1609	
0.264862	0.932568	0.32879	0.84	16.24	9.59	-0.2853	-0.3222	-0.1487	
0.249612	0.94001	0.332572	0	17.43	8.75	-0.3014	-0.3155	-0.1532	
0.244	0.932812	0.328668	0.49	18.69	8.05	-0.2925	-0.3204	-0.1609	
0.25193	0.91744	0.341356	1.05	19.74	8.54	-0.297	-0.3172	-0.1547	
0.276208	0.883036	0.359046	1.96	22.75	9.52	-0.2958	-0.3096	-0.1548	
0.313418	0.865102	0.388936	4.2	27.58	12.53	-0.2969	-0.3187	-0.1608	
0.339526	0.846924	0.401258	5.46	35.91	14.63	-0.2956	-0.3141	-0.1624	
0.350018	0.866566	0.405528	7.49	45.5	16.59	-0.2855	-0.313	-0.1594	
0.306464	0.870592	0.395036	7.42	54.67	20.51	-0.2866	-0.3175	-0.1777	
0.305244	0.85949	0.415288	10.78	58.45	22.19	-0.2795	-0.3147	-0.1778	
0.327448	0.843386	0.407602	15.12	64.89	24.43	-0.2827	-0.3054	-0.1824	
0.358436	0.848876	0.385398	19.53	72.87	29.12	-0.2738	-0.3072	-0.1947	
0.328546	0.898408	0.299632	22.68	79.87	29.4	-0.2753	-0.3102	-0.187	
0.25071	0.97966	0.335988	24.01	76.79	24.64	-0.2697	-0.3027	-0.1886	
0.31781	0.92232	0.387228	20.86	78.26	23.1	-0.2696	-0.3043	-0.1917	
0.38674	0.861564	0.43676	24.99	83.3	22.33	-0.2704	-0.318	-0.2115	
0.42151	0.813252	0.40443	31.5	91.77	25.62	-0.2576	-0.3107	-0.2223	
0.444812	0.844484	0.327204	33.32	96.81	32.34	-0.2562	-0.3093	-0.2239	
0.401502	0.909022	0.292922	30.45	102.55	39.34	-0.249	-0.308	-0.2194	
0.364902	0.897066	0.27816	24.36	106.96	38.92	-0.2407	-0.2944	-0.2393	
0.334768	0.891942	0.2623	15.96	115.15	43.4	-0.2375	-0.3022	-0.2424	
0.259982	0.899018	0.224968	1.82	104.3	45.01	-0.2348	-0.2962	-0.2409	
0.302316	0.937448	0.228384	2.17	96.39	55.86	-0.2259	-0.3041	-0.2425	
0.35075	0.96563	0.26474	3.64	102.97	61.39	-0.2202	-0.2997	-0.2472	
0.3782	0.952332	0.40321	2.38	112.77	60.69	-0.2272	-0.2994	-0.27	
0.325984	0.88206	0.292434	0.84	106.05	69.51	-0.2016	-0.285	-0.2779	
0.292434	0.982832	0.206668	20.37	110.18	73.78	-0.2102	-0.2893	-0.2778	
0.31354	1.022482	0.216794	21.07	119.49	65.8	-0.1948	-0.273	-0.2811	
0.331352	0.895602	0.274744	13.65	142.03	53.27	-0.193	-0.2776	-0.2994	
0.269254	0.867298	0.304634	16.24	148.82	43.26	-0.1686	-0.2723	-0.3027	
0.222162	0.89121	0.283406	18.41	140.98	44.66	-0.1556	-0.2712	-0.309	
0.23241	0.933178	0.31842	19.95	140.07	49.42	-0.1354	-0.2719	-0.3122	
0.210816	0.940742	0.344162	18.34	140.07	52.36	-0.1222	-0.2739	-0.32	
0.201788	0.935252	0.386374	15.68	139.65	56.21	-0.1164	-0.2741	-0.3246	
0.220576	0.916464	0.367464	17.36	136.5	59.01	-0.0989	-0.2793	-0.3263	
0.20618	0.892674	0.376492	21	142.1	58.17	-0.0831	-0.2737	-0.3387	
0.161406	0.905484	0.390156	21.56	137.13	61.95	-0.077	-0.2846	-0.3357	
0.156404	0.93086	0.404552	27.02	127.96	67.34	-0.0642	-0.279	-0.3404	
0.153476	0.94794	0.395402	25.41	120.33	64.47	-0.0568	-0.2854	-0.3374	
0.118584	0.962824	0.384056	24.85	115.57	57.05	-0.0468	-0.2796	-0.3391	
0.081862	0.928786	0.381982	22.89	109.76	50.12	-0.0265	-0.2834	-0.3362	
0.097112	0.901702	0.368806	21.7	99.26	48.09	-0.0323	-0.2816	-0.3468	
0.099674	0.865834	0.367708	21.28	89.32	49.14	-0.0247	-0.2957	-0.3362	
0.09638	0.891454	0.375516	25.97	82.39	51.03	-0.0059	-0.2979	-0.3348	
0.077958	0.92964	0.398696	27.93	79.17	50.4	0.0025	-0.2936	-0.3303	
0.08357	0.945622	0.398818	24.08	70	43.33	0.0055	-0.2999	-0.3227	
0.111752	0.936838	0.420168	20.79	63.07	36.26	0.0057	-0.3029	-0.3242	
0.153964	0.906948	0.41724	17.71	56.21	31.01	0.0071	-0.3061	-0.3181	
0.148474	0.882304	0.40382	16.73	51.66	27.3	0.0175	-0.311	-0.3243	
0.144448	0.905606	0.414068	17.64	45.15	24.64	0.0219	-0.3158	-0.3183	
0.138958	0.887306	0.415532	15.89	41.86	23.66	0.0146	-0.314	-0.3151	
0.16836	0.8601	0.416508	12.95	35.98	23.03	0.0262	-0.3175	-0.3122	
0.182512	0.883402	0.413946	12.11	31.08	21.84	0.0279	-0.3221	-0.3214	
0.172386	0.895236	0.426634	11.83	26.88	18.13	0.0306	-0.3192	-0.3061	
0.18178	0.904386	0.428464	10.43	24.36	15.05	0.0381	-0.3271	-0.3123	
0.190076	0.887916	0.404674	9.59	21.35	12.39	0.036	-0.3086	-0.3138	
0.16653	0.898164	0.405162	10.78	16.1	9.87	0.0336	-0.3224	-0.3077	
0.165798	0.912316	0.402844	10.57	11.06	7.14	0.0406	-0.3149	-0.3139	
0.170312	0.902556	0.400038	8.19	6.51	4.69	0.0304	-0.3146	-0.3077	
0.16226	0.8967	0.411506	5.53	2.17	2.38	0.0335	-0.3193	-0.3168	
0.1952	0.891332	0.427732	1.47	-4.69	1.68	0.0367	-0.3286	-0.3092	
0.196786	0.883036	0.42578	-0.84	-8.75	0	0.0411	-0.3318	-0.3077	
0.210328	0.896456	0.440298	-1.68	-11.62	-3.5	0.0393	-0.321	-0.3077	
0.211426	0.896212	0.427366	-1.82	-12.67	-6.79	0.0323	-0.3284	-0.3107	
0.178608	0.896578	0.410042	-2.59	-12.25	-10.15	0.0355	-0.3377	-0.3107	
0.180926	0.901946	0.414922	-3.43	-15.12	-11.13	0.0309	-0.3268	-0.3107	
0.189222	0.905118	0.420656	-4.69	-16.66	-11.55	0.0366	-0.3286	-0.3046	
0.207766	0.891332	0.418216	-5.88	-18.13	-11.55	0.0305	-0.3176	-0.3061	
0.192882	0.8906	0.407602	-6.23	-18.69	-13.65	0.0266	-0.3282	-0.3183	
0.200568	0.894748	0.406382	-4.69	-17.92	-14.42	0.0323	-0.3238	-0.3168	
0.196664	0.89609	0.399672	-3.29	-16.38	-13.86	0.0367	-0.3286	-0.3153	
0.175436	0.917074	0.380762	-3.64	-15.61	-14.35	0.0247	-0.3159	-0.3122	
0.151646	0.919148	0.382104	-6.02	-17.92	-14.98	0.0319	-0.3162	-0.3061	
0.151158	0.932446	0.365756	-7.56	-22.54	-15.82	0.0251	-0.3251	-0.3244	
0.129686	0.922564	0.372466	-8.96	-27.16	-17.15	0.0149	-0.3232	-0.3121	
0.127856	0.929762	0.361974	-10.92	-32.41	-17.99	0.0337	-0.3239	-0.3153	
0.11468	0.933544	0.359412	-14.7	-42.63	-20.09	0.0132	-0.3139	-0.3243	
0.11285	0.919148	0.396988	-16.03	-48.02	-22.12	0.0207	-0.3219	-0.3182	
0.131394	0.874496	0.416996	-16.66	-51.52	-25.83	0.0162	-0.3171	-0.3228	
0.142496	0.88816	0.425902	-13.02	-55.93	-32.06	0.006	-0.3137	-0.3273	
0.131882	0.906582	0.412238	-11.13	-58.1	-37.52	0.0059	-0.3091	-0.3242	
0.10248	0.929884	0.341722	-10.78	-64.89	-38.92	0.0014	-0.3028	-0.3334	
0.082594	0.953918	0.32757	-15.05	-71.75	-39.83	0.0014	-0.3058	-0.3227	
0.171044	0.896944	0.403332	-19.04	-76.72	-34.79	-0.0143	-0.3068	-0.324	
0.203374	0.890112	0.380152	-18.27	-78.33	-39.06	-0.0145	-0.3022	-0.321	
0.169824	0.99674	0.378688	-14.07	-79.52	-48.09	-0.02	-0.3066	-0.3316	
0.103822	1.018578	0.324154	-16.38	-75.95	-54.46	-0.0291	-0.2956	-0.3254	
0.055876	0.975634	0.285358	-22.33	-74.48	-52.08	-0.0263	-0.2941	-0.3209	
0.146156	0.90707	0.315248	-26.25	-89.25	-40.67	-0.0391	-0.2952	-0.3376	
0.25803	0.81801	0.408944	-25.06	-93.59	-37.52	-0.0508	-0.2933	-0.3283	
0.238388	0.886452	0.410652	-16.45	-93.03	-41.72	-0.0468	-0.2842	-0.3299	
0.17263	1.04371	0.343186	-8.54	-81.76	-54.18	-0.0639	-0.2913	-0.3236	
0.129808	1.013942	0.264008	-18.34	-80.29	-50.68	-0.0681	-0.2957	-0.322	
0.231922	0.85278	0.383934	-28.77	-92.47	-40.74	-0.078	-0.2984	-0.3341	
0.299022	0.78202	0.41114	-27.51	-105.84	-32.06	-0.0971	-0.287	-0.3355	
0.271816	0.8967	0.402234	-23.59	-101.08	-44.73	-0.0957	-0.2871	-0.3294	
0.251198	0.998936	0.36722	-11.2	-87.15	-59.5	-0.1131	-0.288	-0.32	
0.154818	1.066646	0.314882	-6.72	-75.95	-60.69	-0.1133	-0.2803	-0.3231	
0.119194	1.023824	0.283528	-17.43	-86.45	-47.11	-0.1189	-0.2878	-0.323	
0.241316	0.905118	0.402966	-33.04	-98.35	-31.78	-0.1246	-0.2876	-0.323	
0.302072	0.849242	0.41297	-37.31	-102.06	-36.4	-0.1323	-0.2735	-0.3214	
0.266326	0.861564	0.399306	-31.29	-97.37	-51.03	-0.1395	-0.2748	-0.3213	
0.24461	0.906582	0.384422	-20.51	-89.6	-54.67	-0.1423	-0.2824	-0.3076	
0.235826	0.934764	0.378078	-22.61	-101.85	-46.48	-0.1525	-0.279	-0.3044	
0.218258	0.915488	0.407114	-40.74	-111.65	-40.67	-0.1638	-0.2847	-0.3165	
0.29036	0.835822	0.438834	-47.6	-115.22	-30.24	-0.1818	-0.2641	-0.3164	
0.325618	0.78934	0.451766	-41.58	-113.47	-33.39	-0.1864	-0.2625	-0.2919	
0.333792	0.818498	0.45079	-29.54	-107.73	-39.55	-0.1961	-0.2729	-0.2964	
0.330132	0.825208	0.431758	-35.14	-103.95	-29.75	-0.2069	-0.2526	-0.2978	
0.338916	0.803492	0.463844	-35.35	-101.71	-23.87	-0.2197	-0.2582	-0.2977	
0.340502	0.771528	0.466284	-28.42	-97.79	-28.77	-0.2296	-0.2687	-0.2731	
0.352336	0.786046	0.490318	-23.8	-92.82	-33.6	-0.2326	-0.2655	-0.2823	
0.37088	0.792634	0.477142	-24.29	-88.69	-28.35	-0.24	-0.2622	-0.273	
0.40016	0.786656	0.471896	-21.84	-82.95	-25.83	-0.2426	-0.2728	-0.2623	
0.388204	0.800686	0.470798	-16.17	-77.84	-26.74	-0.2617	-0.2614	-0.2621	
0.384056	0.800564	0.466162	-14.28	-72.52	-23.52	-0.2602	-0.263	-0.2621	
0.374052	0.803858	0.476166	-14.21	-68.6	-19.18	-0.2658	-0.269	-0.259	
0.373076	0.810446	0.470798	-13.93	-61.04	-23.24	-0.2676	-0.2628	-0.2453	
0.371978	0.814228	0.471652	-16.38	-53.06	-26.18	-0.2807	-0.2593	-0.2436	
0.334402	0.820572	0.45933	-17.15	-48.44	-30.66	-0.2778	-0.2656	-0.2284	
0.321348	0.827038	0.496052	-15.89	-47.46	-32.55	-0.2792	-0.2639	-0.236	
0.345382	0.809348	0.501908	-15.61	-42.98	-31.57	-0.2821	-0.2654	-0.2268	
0.320128	0.799588	0.505446	-12.04	-33.39	-26.39	-0.2804	-0.2731	-0.2268	
0.299022	0.803736	0.492514	-9.87	-28.63	-24.57	-0.2831	-0.2838	-0.216	
0.279868	0.811666	0.47885	-8.19	-25.97	-22.05	-0.2804	-0.2747	-0.2253	
0.266082	0.827526	0.48556	-3.85	-25.76	-20.65	-0.2934	-0.2773	-0.219	
0.247416	0.85278	0.4758	-1.82	-24.99	-20.79	-0.2876	-0.2759	-0.2252	
0.2501	0.84302	0.468602	-1.19	-22.96	-19.11	-0.2786	-0.287	-0.2161	
0.212158	0.847534	0.462258	-0.77	-21.42	-18.2	-0.2903	-0.2805	-0.2236	
0.233142	0.847412	0.475678	-1.4	-20.93	-14.98	-0.2861	-0.2806	-0.2145	
0.22692	0.859856	0.455792	-0.77	-19.39	-13.37	-0.286	-0.2837	-0.216	
0.224846	0.88206	0.455426	-0.49	-18.69	-11.13	-0.2833	-0.2777	-0.2084	
0.21289	0.88206	0.4392	-1.61	-16.73	-10.78	-0.2859	-0.2899	-0.2007	
0.222284	0.867298	0.445422	-1.47	-16.17	-10.08	-0.2816	-0.2869	-0.213	
0.234972	0.870348	0.4453	-0.63	-15.33	-10.22	-0.2917	-0.2912	-0.1976	
0.235704	0.857782	0.44347	-0.28	-13.23	-9.52	-0.2817	-0.2854	-0.2008	
0.232532	0.853024	0.430172	-0.91	-12.11	-8.05	-0.2873	-0.2898	-0.2007	
0.221308	0.848998	0.436028	-0.28	-12.04	-6.09	-0.2828	-0.2992	-0.1931	
0.2501	0.858514	0.442616	-0.14	-10.5	-3.78	-0.2888	-0.2928	-0.1931	
0.254614	0.856928	0.432002	-0.77	-7.28	-2.45	-0.2859	-0.2883	-0.2053	
0.263154	0.86193	0.439932	0.77	-7.07	-2.38	-0.2887	-0.2928	-0.1992	
0.311954	0.867542	0.452132	1.19	-7.21	-0.14	-0.2901	-0.2959	-0.1915	
0.28731	0.856684	0.455914	2.45	-2.31	0.42	-0.2932	-0.2881	-0.1945	
0.28365	0.84302	0.442006	4.06	2.59	0.42	-0.2944	-0.2957	-0.193	
0.264252	0.859368	0.432734	3.71	5.88	2.03	-0.2932	-0.2912	-0.19	
0.268644	0.851926	0.43798	2.59	8.19	5.11	-0.2871	-0.299	-0.1931	
0.266326	0.839604	0.444568	3.15	10.64	7.98	-0.2871	-0.2944	-0.2068	
0.2806	0.85217	0.44896	4.41	12.81	10.36	-0.2869	-0.3052	-0.1915	
0.284992	0.84729	0.461038	5.46	16.31	12.6	-0.2862	-0.2822	-0.1962	
0.298656	0.854366	0.449692	5.95	20.3	14.91	-0.2844	-0.2899	-0.2038	
0.27877	0.878644	0.435418	5.39	23.31	16.8	-0.289	-0.2836	-0.1992	
0.266936	0.882426	0.426512	3.85	26.11	18.76	-0.2871	-0.2975	-0.2038	
0.26047	0.860344	0.43676	4.55	27.65	18.55	-0.2815	-0.29	-0.2054	
0.264862	0.837042	0.464454	7.91	29.12	17.15	-0.2871	-0.2929	-0.2114	
0.332816	0.796416	0.471896	12.46	38.15	22.61	-0.292	-0.2758	-0.2144	
0.331718	0.843142	0.46055	15.75	44.45	26.81	-0.2786	-0.2901	-0.2115	
0.357338	0.839116	0.465674	15.26	52.71	33.04	-0.2833	-0.2792	-0.2115	
0.369904	0.819474	0.482754	17.29	60.69	37.38	-0.273	-0.2841	-0.2161	
0.41053	0.786412	0.498126	22.68	69.86	38.99	-0.2786	-0.2824	-0.2359	
0.40565	0.792024	0.457256	31.5	80.78	32.27	-0.2759	-0.2779	-0.2299	
0.354288	0.824354	0.405528	36.19	84.84	29.89	-0.2643	-0.2783	-0.2315	
0.31293	0.865346	0.381494	34.93	81.06	29.33	-0.2526	-0.2833	-0.2393	
0.328424	0.86559	0.39772	33.46	79.94	31.71	-0.2611	-0.283	-0.2499	
0.332206	0.84363	0.387594	34.93	77.35	32.62	-0.2482	-0.2834	-0.2454	
0.337086	0.854366	0.377956	33.11	77.84	31.57	-0.2439	-0.2805	-0.25	
0.350628	0.88023	0.361364	32.76	81.06	29.12	-0.2465	-0.2881	-0.25	
0.369416	0.896578	0.372344	31.36	83.44	28.28	-0.2451	-0.2866	-0.2576	
0.364536	0.889502	0.346236	26.46	82.32	34.93	-0.222	-0.2843	-0.2655	
0.392962	0.839116	0.365878	17.5	78.54	38.22	-0.2277	-0.2856	-0.267	
0.376004	0.844362	0.364658	20.3	87.57	35.56	-0.2205	-0.2828	-0.2793	
0.341966	0.939766	0.320006	17.71	86.87	33.67	-0.2105	-0.2801	-0.2733	
0.290116	0.995398	0.28792	12.53	88.76	39.97	-0.2132	-0.2799	-0.2946	
0.276086	0.948306	0.29097	8.05	95.76	46.41	-0.2032	-0.2772	-0.2932	
0.283894	0.87047	0.322446	-1.19	97.65	48.58	-0.1933	-0.2684	-0.2979	
0.309758	0.882792	0.35197	0.98	97.58	45.22	-0.1916	-0.2761	-0.2979	
0.281088	0.929274	0.357216	8.61	104.02	44.03	-0.1774	-0.2674	-0.3118	
0.254736	0.921588	0.359534	11.27	110.95	50.26	-0.1699	-0.2691	-0.3302	
0.24888	0.879986	0.376614	10.08	113.12	58.1	-0.167	-0.2708	-0.3241	
0.251198	0.873276	0.380274	11.69	109.06	64.05	-0.15	-0.2622	-0.3213	
0.238022	0.890722	0.399428	13.65	110.18	68.18	-0.1526	-0.2713	-0.3228	
0.210694	0.901336	0.385398	17.29	115.01	71.54	-0.1386	-0.2595	-0.3199	
0.21838	0.882792	0.411628	19.39	118.16	72.1	-0.1268	-0.2614	-0.3398	
0.227774	0.885476	0.417362	21.28	116.13	70.49	-0.1196	-0.2617	-0.3399	
0.199226	0.884378	0.399794	21.84	112.91	68.95	-0.1056	-0.2453	-0.3477	
0.16897	0.890234	0.4087	21.7	110.6	70.98	-0.1048	-0.2714	-0.3446	
0.17568	0.92781	0.415654	29.96	107.87	69.72	-0.0878	-0.2612	-0.3463	
0.170434	0.96258	0.406382	30.38	104.3	62.02	-0.0746	-0.2678	-0.348	
0.155916	0.93269	0.407602	25.55	97.09	56.84	-0.0703	-0.268	-0.3419	
0.134444	0.915488	0.419436	24.15	89.95	53.06	-0.0628	-0.2728	-0.3557	
0.155672	0.909144	0.44774	25.83	84.56	50.19	-0.0424	-0.2812	-0.3452	
0.132492	0.896578	0.425292	23.1	80.71	47.18	-0.04	-0.2644	-0.3514	
0.127124	0.906704	0.433344	24.15	73.85	46.62	-0.0325	-0.277	-0.3392	
0.1342	0.882426	0.449082	21.77	69.58	45.43	-0.0324	-0.2754	-0.3545	
0.162626	0.854976	0.463234	19.53	59.57	42.77	-0.031	-0.2786	-0.3362	
0.195078	0.861686	0.448106	17.43	53.13	41.65	-0.0221	-0.2835	-0.3423	
0.192516	0.85095	0.454572	17.78	47.32	38.08	-0.0193	-0.2821	-0.347	
0.188856	0.867664	0.460184	19.46	43.96	35	-0.0133	-0.293	-0.3332	
0.205204	0.855342	0.45445	18.48	40.04	31.22	-0.0146	-0.2976	-0.3302	
0.200934	0.857782	0.449448	19.88	34.23	27.65	-0.009	-0.2886	-0.3409	
0.200202	0.869372	0.442982	20.3	27.79	25.48	-0.0102	-0.2962	-0.3363	
0.20313	0.872788	0.445422	19.6	22.96	20.02	-0.0071	-0.3024	-0.3394	
0.254614	0.850462	0.467138	16.03	20.65	15.47	-0.0102	-0.2993	-0.3241	
0.269864	0.854854	0.46848	15.26	18.69	11.83	0.0001	-0.3058	-0.3364	
0.266814	0.829966	0.460794	13.58	18.83	10.43	0.0044	-0.3059	-0.3334	
0.265594	0.848266	0.461648	13.16	18.55	9.17	-0.0013	-0.3088	-0.3257	
0.244	0.836554	0.439078	12.74	18.13	9.66	-0.004	-0.3118	-0.3257	
0.291702	0.859612	0.42883	14.77	14	9.38	0.0001	-0.3119	-0.3165	
0.274378	0.87413	0.427488	14.7	12.39	6.02	-0.0041	-0.3133	-0.315	
0.280966	0.877668	0.437858	13.79	10.57	-2.59	0.0046	-0.3182	-0.3166	
0.198128	0.930006	0.42883	0.63	-0.77	8.12	0.0002	-0.3196	-0.3043	
0.357704	0.830454	0.439566	6.86	16.45	-1.54	-0.0027	-0.3088	-0.3211	
0.290116	0.86925	0.427122	8.47	19.88	-14.91	0.0061	-0.3167	-0.3257	
0.266082	0.860466	0.422974	-9.87	-10.29	-8.05	0.0032	-0.3197	-0.315	
0.262666	0.864126	0.417606	-4.27	1.54	-7.42	0.0019	-0.3212	-0.3165	
0.266814	0.865956	0.436516	0.84	0	-2.73	0.0015	-0.312	-0.312	
0.286822	0.864248	0.44896	5.81	8.54	-11.76	0.0017	-0.3166	-0.3181	
0.199836	0.915732	0.438834	-5.6	-26.81	0.49	0.0075	-0.3199	-0.3044	
0.206546	0.858514	0.41175	67.13	57.68	-35	0.025	-0.3251	-0.3137	
0.253028	0.862052	0.412238	84.98	62.16	-35.28	0.0324	-0.3331	-0.3015	
0.047702	1.050664	0.273402	57.96	70.21	-15.96	0.0381	-0.3333	-0.2894	
0.152622	0.935862	0.421754	-53.76	-79.52	7.49	0.0313	-0.3438	-0.2954	
0.269864	0.859612	0.407236	-35.42	-32.13	10.85	0.031	-0.3345	-0.3	
0.203496	0.900238	0.38308	-9.17	1.19	0.14	0.0294	-0.3268	-0.3061	
0.158478	0.91744	0.402112	-41.02	-40.67	-19.81	0.0279	-0.3268	-0.3	
0.200446	0.884622	0.424438	-54.39	-70.28	-13.16	0.0221	-0.3219	-0.3167	
0.20435	0.863394	0.404674	-29.75	-42.63	-2.45	0.0192	-0.3203	-0.3213	
0.17812	0.88023	0.39345	1.68	-11.76	-11.62	0.0117	-0.3108	-0.3243	
0.16897	0.909022	0.399306	20.51	-5.53	-29.33	0.0131	-0.3139	-0.3136	
0.161284	0.932324	0.424682	26.04	3.01	-38.43	0.0204	-0.3157	-0.3106	
0.120048	0.959896	0.397842	14.77	-3.15	-32.97	0.0248	-0.3205	-0.3061	
0.1037	0.959652	0.355996	1.33	-18.9	-29.89	0.0278	-0.3221	-0.3076	
0.06649	0.977708	0.291092	-2.24	-26.39	-29.68	0.0195	-0.3295	-0.3167	
0.070882	0.93635	0.329644	-5.53	-40.6	-36.26	0.0207	-0.3234	-0.3152	
0.169092	0.891942	0.370636	-10.5	-55.86	-41.23	0.0203	-0.3142	-0.3121	
0.115046	0.937204	0.347456	-19.95	-65.45	-46.9	0.0193	-0.3249	-0.3136	
0.07905599	0.99308	0.292678	-28.98	-71.4	-52.08	0.0219	-0.3189	-0.3122	
0.010858	1.012478	0.228262	-31.43	-75.46	-54.25	0.0074	-0.3137	-0.3227	
0.049898	0.958676	0.317322	-27.51	-82.46	-55.37	0.0117	-0.3123	-0.3228	
0.09942999	0.912316	0.364292	-24.92	-87.99	-55.37	0.0003	-0.315	-0.3226	
0.180438	0.948916	0.415044	-15.61	-93.8	-49.98	0.0012	-0.2997	-0.3196	
0.176168	0.964898	0.394792	-12.32	-83.44	-50.47	-0.0132	-0.2946	-0.3332	
0.13298	0.987834	0.321958	-8.96	-78.4	-53.97	-0.0146	-0.2991	-0.3241	
0.101626	0.938302	0.285236	-6.65	-75.04	-57.33	-0.0321	-0.2939	-0.3239	
0.142496	0.906094	0.322568	0	-81.13	-53.06	-0.0291	-0.2925	-0.3331	
0.190686	0.936838	0.35502	-6.09	-88.55	-51.17	-0.0348	-0.2969	-0.33	
0.213012	0.932446	0.347212	-12.81	-98.35	-50.26	-0.0391	-0.2998	-0.3238	
0.167628	0.970876	0.319396	-18.2	-104.02	-47.04	-0.0505	-0.3025	-0.3298	
0.181048	0.954528	0.346236	-23.1	-106.89	-40.74	-0.0665	-0.3004	-0.3235	
0.157868	0.983686	0.33428	-23.52	-105.98	-45.92	-0.0778	-0.3061	-0.3326	
0.179706	0.955992	0.341112	-28.7	-109.83	-48.09	-0.0813	-0.286	-0.3372	
0.209962	0.94672	0.359778	-25.41	-109.62	-53.97	-0.0955	-0.2963	-0.3248	
0.1769	0.942084	0.33977	-31.36	-115.01	-52.78	-0.1071	-0.2943	-0.3231	
0.178486	0.96502	0.34526	-27.37	-118.86	-57.82	-0.1086	-0.2881	-0.3354	
0.17385	0.952088	0.335744	-37.38	-124.67	-58.45	-0.1191	-0.2832	-0.3185	
0.162016	0.900238	0.331596	-40.11	-128.87	-63.63	-0.1364	-0.2826	-0.3198	
0.195444	0.879254	0.337574	-45.15	-137.76	-54.46	-0.1379	-0.2825	-0.3152	
0.234484	0.876692	0.355264	-37.94	-139.86	-61.25	-0.1567	-0.2788	-0.3212	
0.240096	0.862296	0.370758	-41.93	-143.71	-54.95	-0.1611	-0.2802	-0.3058	
0.320494	0.823744	0.423096	-52.64	-148.26	-33.88	-0.18	-0.2765	-0.3072	
0.324032	0.79239	0.462868	-41.79	-140.49	-46.13	-0.1961	-0.2729	-0.2979	
0.30195	0.793244	0.493978	-27.86	-131.04	-56	-0.2048	-0.271	-0.2932	
0.36844	0.801906	0.5002	-38.15	-131.11	-33.67	-0.2209	-0.2674	-0.2839	
0.433588	0.767014	0.530334	-32.41	-121.59	-31.43	-0.2257	-0.2565	-0.2747	
0.368684	0.77043	0.531554	-17.71	-97.02	-45.01	-0.2355	-0.2685	-0.2624	
0.38491	0.789584	0.514108	-22.96	-90.44	-31.64	-0.2328	-0.2625	-0.2624	
0.370758	0.791902	0.492026	-20.93	-81.62	-29.33	-0.2511	-0.2756	-0.2637	
0.349896	0.813862	0.484096	-18.62	-78.61	-27.02	-0.2513	-0.2741	-0.2561	
0.34526	0.798978	0.47397	-20.79	-77.35	-25.41	-0.2574	-0.2662	-0.2499	
0.368074	0.793854	0.537166	-19.39	-74.41	-24.85	-0.2718	-0.2673	-0.2422	
0.389424	0.77287	0.543876	-19.39	-63.91	-24.78	-0.2702	-0.2735	-0.2391	
0.361852	0.78446	0.50996	-15.12	-53.9	-25.2	-0.2734	-0.2657	-0.2315	
0.297192	0.807274	0.500932	-11.83	-49.35	-25.97	-0.2775	-0.2732	-0.236	
0.30073	0.803858	0.524478	-8.12	-46.62	-25.41	-0.2822	-0.2639	-0.2283	
0.324886	0.802882	0.536434	-2.8	-39.76	-23.87	-0.2844	-0.2822	-0.2313	
0.29829	0.813008	0.531676	0.28	-31.15	-21.63	-0.2821	-0.2685	-0.2176	
0.279014	0.811544	0.521672	1.54	-23.38	-20.16	-0.2919	-0.2804	-0.2083	
0.29829	0.79666	0.528992	2.24	-18.06	-17.22	-0.2832	-0.2823	-0.213	
0.277184	0.79971	0.515938	3.57	-10.43	-15.47	-0.2859	-0.2868	-0.2084	
0.285358	0.808738	0.495076	3.5	-6.37	-10.22	-0.2818	-0.2839	-0.2008	
0.245098	0.848876	0.467382	3.99	-0.63	-6.51	-0.2872	-0.2929	-0.2038	
0.230946	0.863882	0.456158	2.52	0.63	-4.06	-0.2802	-0.2839	-0.21	
0.216794	0.86132	0.457744	-0.35	-0.49	-1.47	-0.2772	-0.2902	-0.2069	
0.208376	0.860588	0.45262	-0.21	1.33	-1.96	-0.2803	-0.2824	-0.213	
0.2135	0.859856	0.450546	-0.98	1.61	-0.63	-0.2801	-0.2885	-0.2084	
0.196176	0.862784	0.447252	0.35	3.08	-0.49	-0.2755	-0.2963	-0.2054	
0.191418	0.866078	0.44042	1.12	1.26	-0.14	-0.2726	-0.2949	-0.2161	
0.205814	0.868518	0.45018	2.38	-0.21	0.21	-0.2812	-0.2977	-0.2084	
0.217038	0.863638	0.451888	3.36	-0.14	0.49	-0.2787	-0.2855	-0.2115	
0.225334	0.873398	0.448838	1.89	1.54	1.26	-0.2772	-0.2917	-0.2039	
0.2318	0.857782	0.467748	1.33	3.01	2.38	-0.2876	-0.279	-0.213	
0.261934	0.850706	0.473726	2.1	5.39	3.57	-0.2711	-0.2965	-0.2177	
0.259006	0.8418	0.460306	2.24	8.96	5.53	-0.2755	-0.2963	-0.21	
0.23241	0.84668	0.457988	3.57	11.27	7.77	-0.2742	-0.2918	-0.2069	
0.235582	0.862662	0.460306	3.78	12.95	9.94	-0.276	-0.2841	-0.2039	
0.247538	0.850828	0.454816	3.29	15.96	11.62	-0.2829	-0.2899	-0.2099	
0.262544	0.840092	0.487878	5.11	17.99	13.09	-0.2785	-0.2885	-0.2237	
0.27816	0.827526	0.497882	5.88	22.96	14.84	-0.2742	-0.2902	-0.2146	
0.28365	0.830942	0.490196	6.37	26.53	21	-0.2744	-0.2826	-0.2192	
0.285968	0.828502	0.499102	8.75	33.46	22.05	-0.274	-0.2948	-0.2253	
0.2989	0.802882	0.482632	11.27	39.76	24.78	-0.2742	-0.2902	-0.2207	
0.320006	0.824598	0.484096	14.28	44.52	28.77	-0.2733	-0.2734	-0.2207	
0.339892	0.816668	0.490318	15.26	50.75	31.78	-0.2661	-0.269	-0.2285	
0.360876	0.800686	0.50142	18.34	56.91	33.32	-0.2714	-0.2857	-0.2253	
0.381982	0.790072	0.502152	22.61	63.21	36.33	-0.2601	-0.2738	-0.2346	
0.371734	0.792756	0.4697	26.53	72.03	41.58	-0.2613	-0.2814	-0.2392	
0.357094	0.80886	0.461892	28.35	80.36	44.94	-0.266	-0.2705	-0.2407	
0.353922	0.787876	0.459696	26.88	85.19	46.41	-0.2544	-0.2709	-0.2454	
0.35929	0.780434	0.439444	26.88	82.04	51.59	-0.2472	-0.2666	-0.2562	
0.378078	0.821426	0.39406	22.12	63.21	52.57	-0.2513	-0.2726	-0.2546	
0.39528	0.879864	0.38552	19.11	67.62	52.22	-0.2459	-0.262	-0.2546	
0.385276	0.863882	0.380884	15.61	81.9	56.28	-0.2586	-0.2661	-0.2774	
0.376858	0.83082	0.392596	16.17	86.73	54.67	-0.2427	-0.2651	-0.2791	
0.383446	0.84912	0.379054	17.43	87.01	50.61	-0.2357	-0.2608	-0.2761	
0.399428	0.879376	0.385642	19.74	91	51.1	-0.2312	-0.2609	-0.2869	
0.377834	0.883646	0.378566	23.17	100.59	56.42	-0.217	-0.2522	-0.2916	
0.33855	0.864858	0.36295	21.14	108.43	60.97	-0.2169	-0.2553	-0.2962	
0.324032	0.869616	0.364048	24.64	109.34	63.28	-0.2071	-0.2433	-0.3055	
0.300486	0.919392	0.33001	26.81	108.92	62.93	-0.2015	-0.2405	-0.301	
0.28487	0.931714	0.34282	30.31	112.84	63.77	-0.1821	-0.2534	-0.3225	
0.262666	0.923296	0.338306	30.66	119.63	68.11	-0.1853	-0.2441	-0.3164	
0.271938	0.921832	0.355142	29.89	122.22	70.77	-0.1636	-0.2433	-0.3319	
0.300852	0.909266	0.411994	29.54	121.52	71.33	-0.1693	-0.2446	-0.3349	
0.293288	0.87596	0.42517	27.09	119.35	69.44	-0.1476	-0.2454	-0.3351	
0.272548	0.862174	0.409066	31.08	117.6	71.12	-0.1445	-0.2485	-0.3412	
0.265472	0.873642	0.420778	36.12	115.99	70.84	-0.1315	-0.2521	-0.3337	
0.259494	0.8723	0.419436	39.06	114.45	70.63	-0.1128	-0.2465	-0.3507	
0.25376	0.87718	0.429806	40.67	107.94	69.86	-0.1111	-0.2543	-0.3522	
0.254248	0.859978	0.422974	43.12	104.23	69.79	-0.1025	-0.2531	-0.3432	
0.258396	0.901336	0.426024	45.22	103.25	68.32	-0.1009	-0.2562	-0.3493	
0.250222	0.910852	0.397964	45.57	99.75	61.53	-0.0893	-0.2597	-0.3463	
0.20984	0.93818	0.376858	42.28	98.91	52.64	-0.083	-0.2767	-0.3433	
0.174704	0.945622	0.37332	39.76	95.62	45.99	-0.07009999	-0.2741	-0.3419	
0.16836	0.928176	0.385764	35.49	89.74	41.23	-0.0642	-0.2759	-0.3465	
0.157624	0.919392	0.381494	28.84	81.27	36.96	-0.0452	-0.2842	-0.3406	
0.167994	0.91256	0.40016	24.43	72.17	33.67	-0.0349	-0.2907	-0.3437	
0.16836	0.908778	0.400038	20.93	65.45	31.36	-0.0394	-0.286	-0.3422	
0.180194	0.912682	0.423706	18.76	58.17	27.79	-0.0352	-0.2831	-0.3361	
0.172142	0.891088	0.405284	11.62	53.76	24.78	-0.0245	-0.3018	-0.3377	
0.184952	0.886208	0.429196	9.52	45.5	24.43	-0.019	-0.2928	-0.3362	
0.196786	0.882914	0.429562	8.61	39.41	22.33	-0.019	-0.2913	-0.3393	
0.18422	0.893284	0.432734	8.26	34.23	16.87	-0.0118	-0.2931	-0.3348	
0.173728	0.901702	0.425536	7.91	30.38	11.48	-0.0116	-0.2992	-0.3363	
0.179096	0.896578	0.421754	5.25	23.24	5.6	-0.0045	-0.298	-0.3257	
0.18422	0.876814	0.421388	2.31	17.92	2.87	-0.0069	-0.307	-0.3409	
0.174216	0.891698	0.425292	0.07	13.16	2.52	-0.0002	-0.295	-0.3349	
0.19947	0.872178	0.421632	-5.39	1.4	-3.64	-0.007	-0.3071	-0.3333	
0.196908	0.864492	0.430172	-8.12	-6.23	-3.5	-0.0002	-0.2981	-0.3273	
0.227286	0.846558	0.45079	-7.21	-9.45	-1.61	-0.01	-0.3039	-0.3348	
0.239974	0.850462	0.468114	-9.31	-17.43	-2.73	-0.0078	-0.284	-0.3333	
0.26108	0.85156	0.471896	-10.36	-20.16	-3.71	-0.0089	-0.2932	-0.3394	
0.273768	0.828502	0.464698	-12.11	-18.55	-4.97	-0.0047	-0.2872	-0.3395	
0.25315	0.848632	0.459086	-7.28	-17.29	-7.84	-0.0116	-0.2977	-0.3439	
0.236192	0.875594	0.450668	-6.72	-19.04	-9.52	-0.0132	-0.293	-0.3439	
0.21838	0.884622	0.418948	-7.63	-22.47	-11.34	-0.0175	-0.2929	-0.3439	
0.188856	0.897798	0.399062	-9.38	-30.1	-13.09	-0.0205	-0.2912	-0.3393	
0.20862	0.887306	0.442128	-12.32	-34.93	-15.47	-0.0164	-0.2853	-0.3348	
0.23668	0.870714	0.438834	-14.07	-37.03	-19.74	-0.0236	-0.2835	-0.3378	
0.21655	0.893284	0.443348	-14.77	-40.6	-26.46	-0.0311	-0.2771	-0.3377	
0.180682	0.901336	0.434198	-16.31	-42.63	-29.47	-0.0237	-0.2819	-0.3408	
0.152744	0.909998	0.42578	-17.36	-49.35	-30.38	-0.0336	-0.2877	-0.3376	
0.139202	0.890478	0.40992	-23.66	-47.95	-32.83	-0.0364	-0.286	-0.3544	
0.21655	0.872178	0.410042	-21	-54.81	-36.89	-0.0456	-0.2719	-0.3483	
0.230824	0.889136	0.400282	-20.51	-58.03	-48.02	-0.0412	-0.2721	-0.3559	
0.18422	0.950624	0.398696	-20.37	-63	-57.33	-0.0398	-0.2706	-0.3468	
0.151646	0.95953	0.39406	-24.64	-65.87	-60.13	-0.0469	-0.2734	-0.3513	
0.163846	0.900604	0.397842	-31.36	-70.56	-56.21	-0.0455	-0.2735	-0.3528	
0.2318	0.845094	0.432368	-35.91	-80.01	-53.06	-0.0557	-0.2716	-0.3482	
0.288774	0.87352	0.443592	-36.68	-86.59	-59.99	-0.0748	-0.2617	-0.348	
0.315004	0.91561	0.466162	-34.93	-85.75	-67.83	-0.0791	-0.26	-0.3525	
0.290238	0.902678	0.468602	-33.95	-76.23	-67.97	-0.0806	-0.2584	-0.351	
0.274012	0.835822	0.485804	-35.35	-68.6	-62.09	-0.0806	-0.2569	-0.3571	
0.28243	0.781654	0.465918	-38.36	-68.88	-55.37	-0.0805	-0.2599	-0.3556	
0.316224	0.757498	0.492636	-37.1	-73.01	-50.4	-0.08989999	-0.2397	-0.354	
0.356728	0.730658	0.587552	-24.15	-63.07	-40.04	-0.0985	-0.2409	-0.3524	
0.321226	0.735294	0.597922	-16.52	-48.37	-34.16	-0.104	-0.2468	-0.363	
0.316224	0.741394	0.596336	-10.57	-39.55	-29.68	-0.1145	-0.2373	-0.3522	
0.342698	0.756766	0.590236	-9.24	-34.09	-25.34	-0.1101	-0.2374	-0.3553	
0.351238	0.732122	0.578158	-8.54	-24.92	-17.15	-0.1201	-0.2386	-0.3629	
0.351482	0.721142	0.60329	-5.04	-16.73	-8.75	-0.1291	-0.2322	-0.3536	
0.343674	0.721508	0.605974	-2.52	-11.62	-4.13	-0.1235	-0.2278	-0.3491	
0.312686	0.741638	0.6039	-1.61	-7.91	-0.56	-0.1261	-0.2384	-0.3475	
0.297192	0.757864	0.597068	0.77	-4.13	1.96	-0.1319	-0.2367	-0.3444	
0.283894	0.760182	0.57828	0.91	0.7	4.13	-0.1264	-0.2292	-0.3414	
0.268034	0.773724	0.55632	0.77	4.55	5.81	-0.1218	-0.234	-0.3537	
0.24461	0.783606	0.534848	1.12	7.21	7.77	-0.1245	-0.24	-0.3506	
0.24217	0.795684	0.526552	2.52	8.47	10.08	-0.1249	-0.2293	-0.3476	
0.23912	0.808494	0.52399	2.8	8.96	12.53	-0.1235	-0.2309	-0.3399	
0.238876	0.819962	0.50996	2.73	8.61	15.05	-0.1233	-0.2339	-0.3537	
0.2379	0.837286	0.509594	2.66	8.61	17.22	-0.1186	-0.2448	-0.3491	
0.237168	0.850706	0.511058	3.36	8.96	16.1	-0.1162	-0.2326	-0.3461	
0.244732	0.851072	0.514596	3.85	9.52	14.98	-0.1203	-0.2371	-0.3476	
0.250466	0.846802	0.513742	2.87	10.01	14.56	-0.1261	-0.2353	-0.3567	
0.258762	0.839848	0.514352	1.12	9.87	13.93	-0.1248	-0.2292	-0.3583	
0.252662	0.821914	0.504104	-0.56	9.1	13.16	-0.1247	-0.2339	-0.3537	
0.23912	0.820206	0.489342	-0.35	6.23	12.04	-0.1278	-0.2276	-0.3521	
0.245464	0.8601	0.505934	1.75	3.22	7.07	-0.1234	-0.2278	-0.3583	
0.237534	0.874374	0.503738	0.7	5.88	2.17	-0.1133	-0.2266	-0.3599	
0.220942	0.855586	0.501176	-0.56	6.72	0.07	-0.123	-0.24	-0.3598	
0.231678	0.825818	0.504104	-3.08	4.9	-1.19	-0.1205	-0.2294	-0.3614	
0.230946	0.825086	0.50386	-3.43	2.8	-2.38	-0.1317	-0.2397	-0.3612	
0.220576	0.829478	0.501908	-0.49	2.24	-2.59	-0.1233	-0.2308	-0.3567	
0.207644	0.83387	0.50813	0.98	2.17	-3.15	-0.1202	-0.2371	-0.3613	
0.21289	0.84119	0.514962	1.54	0.21	-5.39	-0.129	-0.2352	-0.3536	
0.214476	0.841434	0.514474	0.84	-0.21	-8.12	-0.1161	-0.2326	-0.3553	
0.21838	0.826428	0.515694	0.21	1.54	-7.91	-0.1202	-0.2386	-0.3568	
0.216916	0.816302	0.521672	-0.91	0.98	-6.37	-0.1174	-0.2356	-0.3553	
0.21716	0.8052	0.526308	-2.31	0	-5.53	-0.116	-0.2357	-0.3476	
0.21106	0.808128	0.5246	-1.54	-1.12	-5.53	-0.1218	-0.2355	-0.3491	
0.200446	0.814838	0.526674	-0.42	-1.12	-5.46	-0.1145	-0.2373	-0.3538	
0.20191	0.81679	0.523136	0.56	-0.98	-4.9	-0.1115	-0.2389	-0.3553	
0.19459	0.824964	0.515694	0.07	-1.68	-4.48	-0.113	-0.2358	-0.3629	
0.200446	0.820206	0.516792	-0.21	-2.8	-3.64	-0.1173	-0.2418	-0.3507	
0.207156	0.823988	0.512278	-0.42	-3.01	-2.8	-0.1144	-0.2404	-0.3492	
0.19215	0.842532	0.520086	-0.14	-3.22	-2.31	-0.1216	-0.2386	-0.3567	
0.194346	0.833992	0.518134	-1.19	-3.15	-1.75	-0.1157	-0.2434	-0.3568	
0.211304	0.826672	0.524112	-2.8	-4.2	-2.59	-0.1129	-0.2389	-0.3599	
0.23302	0.820938	0.530944	-3.43	-4.13	-3.36	-0.1071	-0.2406	-0.3599	
0.220332	0.81191	0.527894	-2.52	-1.05	-3.85	-0.1176	-0.231	-0.3553	
0.20435	0.813984	0.52887	-0.42	0.84	-3.99	-0.1205	-0.2309	-0.3522	
0.203008	0.81435	0.529846	-0.42	1.12	-3.43	-0.129	-0.2337	-0.3567	
0.203496	0.811178	0.529724	-0.77	0.84	-0.7	-0.1117	-0.2359	-0.3477	
0.200568	0.808372	0.532164	-0.77	1.4	1.05	-0.1145	-0.2373	-0.3522	
0.205082	0.802516	0.535702	-0.07	2.03	2.31	-0.1145	-0.2373	-0.3477	
0.21411	0.809958	0.531066	-0.14	2.17	2.66	-0.1234	-0.2308	-0.3506	
0.217038	0.822524	0.530456	-0.21	2.8	3.36	-0.123	-0.2416	-0.3537	
0.215452	0.8235	0.534116	0.21	2.73	4.06	-0.1128	-0.245	-0.3522	
0.22387	0.819962	0.52704	-0.28	3.22	3.71	-0.1162	-0.2265	-0.3599	
0.23302	0.818254	0.53192	-0.49	2.8	1.82	-0.1216	-0.2416	-0.346	
0.230702	0.81069	0.536434	0	4.62	0.98	-0.1158	-0.2387	-0.3614	
0.212524	0.808494	0.52643	0.49	6.3	1.26	-0.1101	-0.239	-0.3569	
0.203252	0.82045	0.52155	1.12	5.74	2.52	-0.1088	-0.236	-0.3523	
0.201056	0.834358	0.517524	0.35	4.69	3.36	-0.1159	-0.2372	-0.3568	
0.193858	0.831308	0.518744	-0.49	4.2	4.27	-0.116	-0.2372	-0.3507	
0.201666	0.829478	0.526064	-0.84	3.5	4.62	-0.1217	-0.2386	-0.3537	
0.221064	0.834602	0.543876	-0.98	3.36	3.5	-0.1119	-0.2266	-0.3569	
0.219112	0.824842	0.546682	-0.21	6.09	1.82	-0.1069	-0.2467	-0.3553	
0.216428	0.81618	0.544852	0.56	7.28	1.4	-0.1088	-0.2344	-0.3599	
0.213378	0.81923	0.54473	0.91	7.07	1.19	-0.1087	-0.2344	-0.363	
0.199836	0.819962	0.537898	1.47	7.14	0.77	-0.1072	-0.2375	-0.3584	
0.193858	0.81862	0.535214	1.05	6.58	-0.98	-0.1088	-0.2344	-0.3538	
0.19642	0.81496	0.526552	0.56	5.46	-2.45	-0.103	-0.2377	-0.3462	
0.19581	0.811178	0.519476	0.07	3.99	-3.57	-0.1002	-0.2332	-0.3509	
0.202764	0.814716	0.512766	-0.42	3.01	-4.34	-0.1015	-0.2347	-0.3631	
0.218746	0.813252	0.524478	-1.12	2.17	-4.41	-0.1032	-0.2285	-0.3615	
0.22387	0.814228	0.519842	-1.61	2.1	-3.57	-0.1015	-0.2362	-0.3615	