Sensor string: A
Serial number: 1970-01-0000
Firmware version: 2,015
Hardware version: 2,2
Calibration quality: 5
ax	ay	az	gx	gy	gz	mx	my	mz

0.167628	-0.901946	0.335744	-2.73	-0.14	1.05	-0.1269	0.2832	-0.3206	Reference
0.169092	-0.899872	0.335378	-2.52	-0.7	1.05	-0.1299	0.2848	-0.3144	
0.170678	-0.90646	0.333792	-2.24	-0.98	0.84	-0.124	0.2847	-0.3221	
0.167628	-0.911218	0.335012	-2.03	-0.84	0.91	-0.1239	0.2769	-0.3283	
0.171776	-0.907558	0.332328	-1.89	-0.7	1.05	-0.1297	0.2755	-0.3267	
0.16714	-0.907314	0.33123	-1.61	-0.21	0.84	-0.1328	0.2893	-0.3189	
0.162382	-0.908412	0.328058	-1.54	-0.35	0.84	-0.1283	0.2831	-0.3251	
0.162626	-0.908534	0.327692	-1.12	-0.56	0.98	-0.1283	0.2816	-0.3267	
0.17263	-0.90219	0.326838	-0.49	-0.91	0.84	-0.1283	0.2756	-0.3176	
0.180072	-0.908778	0.335622	-0.21	-0.98	-0.21	-0.1312	0.2817	-0.3221	
0.159332	-0.915	0.335134	-0.35	0.42	0.07	-0.1327	0.2862	-0.322	
0.164578	-0.903654	0.336476	-0.7	-0.14	1.61	-0.1327	0.2923	-0.3265	
0.168238	-0.897676	0.337086	-0.77	-0.56	1.47	-0.1312	0.2755	-0.3252	
0.167872	-0.896578	0.335134	-0.35	-0.7	0.56	-0.137	0.2816	-0.3266	
0.166896	-0.899262	0.334158	0.28	-0.42	-0.28	-0.1255	0.2832	-0.3175	
0.163358	-0.903898	0.334768	0.7	-0.42	-0.63	-0.1327	0.2863	-0.3205	
0.169824	-0.905362	0.337818	0.84	-1.05	-0.21	-0.1298	0.2893	-0.322	
0.17629	-0.90646	0.33794	0.77	-1.12	-0.35	-0.1313	0.2877	-0.3235	
0.173972	-0.906704	0.336354	0.56	-0.7	-0.21	-0.1269	0.2786	-0.3206	
0.177998	-0.902678	0.330498	0.42	-0.28	-0.07	-0.1283	0.2725	-0.3176	
0.168604	-0.902678	0.332328	0.63	0.07	-0.56	-0.1312	0.274	-0.3191	
0.170922	-0.900726	0.329766	1.05	-0.42	-0.77	-0.1268	0.2816	-0.3267	
0.17385	-0.90341	0.335012	1.26	-0.21	-1.33	-0.1269	0.2786	-0.3206	
0.167628	-0.906948	0.341722	1.47	0.14	-1.26	-0.137	0.2832	-0.3235	
0.170068	-0.9028	0.345504	1.12	0.14	-0.49	-0.1312	0.2831	-0.3297	
0.172142	-0.895114	0.348066	0.14	-0.07	0.21	-0.1283	0.2755	-0.3252	
0.17446	-0.894138	0.348432	-0.07	0	-0.21	-0.1283	0.2786	-0.3191	
0.171532	-0.892796	0.344894	-0.21	0	-0.42	-0.1355	0.28	-0.3312	
0.172386	-0.895236	0.348432	-0.21	-0.49	-0.63	-0.137	0.2771	-0.3236	
0.1708	-0.891332	0.349042	-0.28	-0.21	-0.35	-0.124	0.2725	-0.3192	
0.171654	-0.892552	0.350872	-0.35	-0.35	-0.21	-0.1269	0.2786	-0.3176	
0.174704	-0.895114	0.350872	-0.56	-0.56	-0.21	-0.1355	0.2801	-0.3282	
0.174948	-0.893894	0.349896	-0.56	-0.42	-0.35	-0.1327	0.2786	-0.3236	
0.175558	-0.892918	0.347334	-0.7	-0.21	-0.21	-0.1298	0.2741	-0.3161	
0.177266	-0.896578	0.347334	-0.91	-0.14	-0.49	-0.1311	0.2709	-0.3268	
0.179828	-0.8967	0.344528	-1.12	0.07	-0.56	-0.137	0.2725	-0.3221	
0.176168	-0.897066	0.336354	-1.47	0.21	-0.7	-0.1313	0.2847	-0.3205	
0.181048	-0.902556	0.335378	-1.96	-0.35	-0.84	-0.1399	0.2771	-0.3205	
0.178852	-0.909754	0.33184	-1.75	-0.35	-1.33	-0.1312	0.274	-0.3206	
0.170312	-0.915244	0.324154	-1.05	-0.21	-1.33	-0.1341	0.2756	-0.3206	
0.167628	-0.911828	0.321104	0.21	0.56	-0.49	-0.1356	0.2787	-0.319	
0.167018	-0.912194	0.325862	0.84	0	-0.28	-0.1312	0.2831	-0.3251	
0.171044	-0.90829	0.334036	1.05	-0.84	-0.21	-0.1356	0.2802	-0.3175	
0.172142	-0.908778	0.338184	0.84	-0.91	-0.14	-0.1355	0.2846	-0.3342	
0.172996	-0.910242	0.33977	0.49	-0.77	-0.07	-0.1327	0.2801	-0.3206	
0.168726	-0.906338	0.339526	0.21	0	0.35	-0.1312	0.2847	-0.3236	
0.175558	-0.902312	0.332816	-0.07	-0.07	0.28	-0.1384	0.2771	-0.3236	
0.171044	-0.901946	0.338916	-0.21	-0.35	-0.21	-0.137	0.2635	-0.3116	
0.169336	-0.899018	0.335744	-0.07	0	-0.49	-0.1384	0.274	-0.3251	
0.170068	-0.898164	0.330376	-0.28	-0.35	-0.7	-0.1414	0.2817	-0.3235	
0.177876	-0.89914	0.329644	-0.7	-1.26	-0.7	-0.137	0.271	-0.3237	
0.170434	-0.93086	0.32879	-0.28	-0.42	-1.96	-0.134	0.2754	-0.3358	
0.158722	-0.942084	0.317932	0.63	-0.21	-1.47	-0.127	0.2893	-0.319	
0.159454	-0.920002	0.299754	0.91	-0.21	0.98	-0.1356	0.2847	-0.3251	
0.158112	-0.91805	0.274378	2.1	-0.7	1.12	-0.1399	0.2802	-0.322	
0.162382	-0.953918	0.283406	4.69	-4.34	-0.49	-0.1326	0.2709	-0.3268	
0.1464	-0.96929	0.27511	11.76	-3.5	-0.35	-0.1326	0.2724	-0.3267	
0.139568	-0.96014	0.277306	15.82	-3.92	1.26	-0.1312	0.2786	-0.3206	
0.12017	-0.962702	0.252296	18.9	-3.85	2.1	-0.1325	0.2693	-0.3344	
0.123952	-1.022482	0.267912	23.73	-9.52	6.16	-0.1369	0.2709	-0.3267	
0.138226	-1.00345	0.262056	29.68	-8.61	9.17	-0.1455	0.2602	-0.3359	
0.159088	-0.973682	0.266936	34.72	-7.49	8.61	-0.1339	0.2693	-0.3359	
0.168726	-0.955138	0.27633	40.32	-4.06	6.02	-0.1411	0.2601	-0.3405	
0.167872	-0.94245	0.282796	43.26	1.26	1.89	-0.1266	0.2601	-0.3346	
0.167628	-0.934886	0.269864	47.39	1.26	-2.17	-0.1309	0.2478	-0.3392	
0.153598	-0.9333	0.268888	51.24	2.73	-1.89	-0.1307	0.2461	-0.3515	
0.147742	-0.898774	0.299266	55.02	3.5	-2.8	-0.1394	0.2401	-0.3484	
0.141886	-0.870226	0.33123	57.47	6.3	-4.97	-0.1363	0.2247	-0.3623	
0.146278	-0.856318	0.377712	57.19	2.52	-6.93	-0.132	0.2247	-0.3578	
0.177998	-0.85766	0.40809	58.03	0.35	-8.26	-0.1463	0.2109	-0.37	
0.186904	-0.842654	0.413092	61.11	1.96	-9.1	-0.1333	0.2108	-0.3701	
0.163724	-0.82838	0.421998	66.01	5.46	-8.33	-0.1448	0.2062	-0.3762	
0.142984	-0.7564	0.457012	71.89	6.16	-7.56	-0.13	0.183	-0.3933	
0.151646	-0.732244	0.47824	73.57	3.64	-10.78	-0.1343	0.1632	-0.3859	
0.156038	-0.712358	0.521428	75.95	1.61	-13.16	-0.14	0.1616	-0.395	
0.178364	-0.693448	0.571326	77.77	-2.94	-12.04	-0.1342	0.1495	-0.3861	
0.20008	-0.696498	0.57706	80.43	-3.92	-10.57	-0.1397	0.1371	-0.4014	
0.193858	-0.668438	0.617686	82.46	0.21	-8.96	-0.1483	0.1263	-0.4106	
0.178242	-0.611342	0.647454	79.94	-0.63	-6.02	-0.1467	0.1155	-0.4184	
0.221918	-0.61732	0.6832	77.14	-5.6	-5.46	-0.1336	0.1032	-0.4171	
0.223138	-0.612684	0.70516	77.35	-1.89	-6.51	-0.1335	0.0894	-0.4218	
0.195078	-0.570472	0.7137	77.42	1.26	-5.67	-0.145	0.0773	-0.4188	
0.202276	-0.522526	0.703574	76.86	-0.56	-4.34	-0.1261	0.0588	-0.4192	
0.222162	-0.483974	0.695034	75.67	0	-6.79	-0.142	0.0589	-0.4236	
0.208254	-0.479704	0.7686	74.9	-1.26	-10.22	-0.1361	0.0436	-0.4223	
0.195322	-0.461282	0.803492	74.34	0.14	-10.99	-0.1374	0.0252	-0.4256	
0.212402	-0.431636	0.830576	73.5	-0.56	-9.73	-0.1359	0.0343	-0.4331	
0.224236	-0.376614	0.839604	69.79	0.7	-11.9	-0.1431	0.0114	-0.4287	
0.212646	-0.368684	0.866932	67.27	-1.26	-13.79	-0.1459	0.0023	-0.4242	
0.212402	-0.361486	0.871812	65.17	-1.47	-13.44	-0.1385	-0.0191	-0.4276	
0.242292	-0.318664	0.873276	63.21	-2.59	-11.06	-0.1385	-0.0237	-0.4322	
0.226676	-0.285602	0.879132	58.66	-4.2	-10.92	-0.1457	-0.0327	-0.4246	
0.23302	-0.272548	0.900848	56.63	-5.39	-9.17	-0.1311	-0.0481	-0.4249	
0.24827	-0.262056	0.916464	54.81	-5.39	-10.36	-0.1426	-0.0542	-0.431	
0.24705	-0.24522	0.930372	52.5	-5.04	-10.99	-0.1456	-0.0587	-0.4219	
0.256932	-0.219112	0.909632	49.35	-4.97	-9.17	-0.144	-0.0725	-0.4236	
0.26779	-0.21289	0.922076	45.92	-4.62	-11.13	-0.1382	-0.0787	-0.4268	
0.24705	-0.233264	0.945866	43.89	-3.08	-11.83	-0.1411	-0.0863	-0.4222	
0.264618	-0.21045	0.956846	41.58	-1.82	-8.96	-0.144	-0.0847	-0.4222	
0.292068	-0.163602	0.985028	36.47	-3.92	-6.3	-0.1583	-0.1045	-0.4253	
0.297192	-0.126758	0.978074	32.76	-3.64	-6.86	-0.1496	-0.1076	-0.4224	
0.288774	-0.1342	0.999058	28	-5.11	-7.28	-0.1497	-0.1136	-0.4148	
0.297924	-0.103212	1.030046	23.73	-0.49	-4.69	-0.1525	-0.1167	-0.4194	
0.304512	-0.071858	1.017602	20.72	1.05	-3.57	-0.1438	-0.1274	-0.409	
0.287188	-0.07259	1.020774	16.03	0.35	-3.5	-0.1467	-0.1229	-0.418	
0.289018	-0.066368	1.044686	10.5	-0.84	-2.1	-0.1409	-0.1244	-0.4151	
0.288286	-0.048068	1.045906	6.37	0.42	0.07	-0.1437	-0.1321	-0.4197	
0.288652	-0.027206	1.04859	1.33	-0.07	2.52	-0.1553	-0.135	-0.415	
0.286822	-0.005246	1.037488	-4.13	-0.56	4.06	-0.1424	-0.1198	-0.4135	
0.297924	-0.015128	1.056276	-10.64	-3.08	5.46	-0.1511	-0.1197	-0.4149	
0.305854	-0.030134	1.079212	-16.1	-3.99	7.07	-0.1481	-0.1275	-0.4196	
0.324642	-0.023668	1.097146	-21.7	-5.25	8.96	-0.1453	-0.1213	-0.415	
0.3172	-0.01098	1.078114	-28.21	-3.15	11.9	-0.1584	-0.1242	-0.4073	
0.308904	-0.040626	1.053592	-33.53	1.26	13.23	-0.1496	-0.1198	-0.4164	
0.307074	-0.056242	1.0492	-39.27	4.2	14.28	-0.1511	-0.1091	-0.4163	
0.298412	-0.068076	1.026874	-45.22	6.72	14.56	-0.1483	-0.0999	-0.4147	
0.287676	-0.093086	1.017602	-51.52	5.74	14.56	-0.1512	-0.0892	-0.4176	
0.27328	-0.140056	0.99125	-56.7	6.58	14.63	-0.1484	-0.0846	-0.4176	
0.26108	-0.174582	0.967948	-60.83	7.84	15.4	-0.144	-0.0786	-0.4267	
0.263764	-0.193004	0.967704	-65.45	7.49	17.01	-0.1368	-0.0695	-0.4282	
0.266936	-0.24095	0.93818	-70.7	10.5	18.13	-0.1471	-0.0465	-0.4233	
0.239852	-0.288164	0.889502	-72.45	14.63	17.36	-0.1457	-0.0297	-0.4261	
0.211426	-0.33001	0.866444	-75.25	14.7	16.87	-0.1371	-0.0221	-0.4276	
0.206912	-0.341844	0.841068	-78.96	13.72	17.71	-0.1329	-0.0053	-0.4214	
0.191052	-0.382958	0.827892	-81.97	14.63	17.36	-0.13	0.0083	-0.4258	
0.196054	-0.402234	0.810324	-84.21	14.63	18.27	-0.1315	0.0205	-0.4272	
0.187026	-0.433222	0.795684	-85.61	14.56	16.8	-0.1315	0.0281	-0.4317	
0.185318	-0.443348	0.766038	-87.01	14.63	18.06	-0.1259	0.045	-0.427	
0.171044	-0.4636	0.729682	-88.48	14.98	18.55	-0.1275	0.0542	-0.4208	
0.156404	-0.48556	0.695522	-90.51	14.98	17.22	-0.1159	0.0678	-0.4268	
0.133712	-0.539118	0.662216	-90.02	14.84	13.23	-0.1204	0.09079999	-0.428	
0.115778	-0.594994	0.620736	-88.13	13.3	11.55	-0.122	0.1016	-0.4172	
0.09699	-0.624396	0.575108	-86.59	10.29	10.64	-0.1205	0.1107	-0.4248	
0.098454	-0.646234	0.564616	-86.03	3.01	11.97	-0.1136	0.1353	-0.4062	
0.11224	-0.713822	0.55083	-82.74	-1.61	11.41	-0.1108	0.143	-0.4047	
0.112484	-0.766038	0.530334	-80.22	-3.01	9.66	-0.1122	0.152	-0.4137	
0.100284	-0.78202	0.491172	-79.24	-2.03	11.27	-0.1152	0.1659	-0.4089	
0.08723	-0.786412	0.485316	-78.89	-3.43	12.39	-0.1154	0.1722	-0.3921	
0.083204	-0.827526	0.480802	-78.05	-5.39	11.69	-0.1155	0.1859	-0.3965	
0.085888	-0.83631	0.443836	-77.7	-4.27	13.51	-0.107	0.1997	-0.3842	
0.094916	-0.815692	0.390644	-78.33	-3.99	15.61	-0.104	0.1982	-0.3873	
0.095892	-0.836188	0.378322	-78.54	-5.18	12.74	-0.116	0.2245	-0.364	
0.09162199	-0.870592	0.382226	-76.93	-5.04	10.29	-0.1145	0.2275	-0.3701	
0.086986	-0.891576	0.352092	-73.92	-2.31	8.33	-0.1131	0.2382	-0.3715	
0.064904	-0.865834	0.312442	-71.75	2.59	10.5	-0.1089	0.2444	-0.3578	
0.040992	-0.860954	0.280722	-70.63	3.99	10.43	-0.1033	0.2567	-0.3486	
0.030744	-0.890722	0.255224	-69.86	1.61	9.73	-0.1107	0.263	-0.3408	
0.031354	-0.907558	0.242048	-67.55	-1.26	9.45	-0.105	0.2767	-0.3376	
0.046482	-0.934276	0.244	-64.4	-4.62	8.4	-0.1036	0.2783	-0.3346	
0.074298	-0.948184	0.252418	-60.06	-6.86	7.28	-0.1023	0.2937	-0.3253	
0.082594	-0.946354	0.244488	-54.74	-7.07	5.18	-0.1025	0.3121	-0.3159	
0.067466	-0.9272	0.223748	-53.69	-7.7	5.95	-0.1055	0.3092	-0.3068	
0.04941	-0.943182	0.205326	-52.64	-8.4	5.88	-0.1085	0.3154	-0.3006	
0.038674	-0.955626	0.195322	-49.98	-9.87	6.23	-0.1085	0.3231	-0.2974	
0.053192	-0.944768	0.19337	-47.46	-11.97	7.77	-0.1072	0.3308	-0.2852	
0.07015	-0.96075	0.185562	-44.94	-11.41	6.16	-0.103	0.3324	-0.2791	
0.083204	-0.977586	0.17446	-42.14	-10.57	4.9	-0.1001	0.3339	-0.2806	
0.07564	-0.981246	0.158966	-39.69	-9.1	4.2	-0.0973	0.3416	-0.2729	
0.058804	-0.98576	0.136152	-37.94	-7.7	4.48	-0.1045	0.3462	-0.2743	
0.048434	-0.984906	0.130296	-36.47	-9.73	5.6	-0.1134	0.3526	-0.2605	
0.050996	-0.9882	0.12749	-34.86	-11.55	6.79	-0.099	0.3602	-0.2544	
0.026962	-0.995398	0.099186	-32.2	-9.31	6.02	-0.1076	0.3449	-0.256	
0.037332	-0.99308	0.082106	-30.66	-11.06	6.51	-0.1078	0.3634	-0.2436	
0.068198	-0.98637	0.09577	-29.75	-11.13	7.77	-0.1035	0.3558	-0.2422	
0.075884	-0.993934	0.090036	-28.91	-8.26	8.12	-0.1065	0.3742	-0.2405	
0.06527	-1.000156	0.038674	-26.32	-8.68	8.68	-0.1021	0.368	-0.2406	
0.040138	-1.01382	-0.005124	-25.2	-8.33	5.6	-0.1022	0.3682	-0.2284	
0.035746	-1.032364	-0.012688	-23.31	-10.78	3.71	-0.1036	0.3635	-0.236	
0.02623	-1.102636	0.002562	-20.44	-11.62	-0.91	-0.1038	0.382	-0.2252	
0.035014	-1.082872	0.015982	-17.08	-10.08	2.8	-0.1053	0.3759	-0.2176	
0.068808	-0.997594	0.014884	-14.49	-9.03	7.77	-0.1068	0.3775	-0.213	
0.090402	-0.962946	0.035502	-14.77	-7.56	4.97	-0.1081	0.3759	-0.2191	
0.052338	-0.99247	0.032452	-14.84	-3.15	-0.7	-0.1082	0.3776	-0.2084	
0.040016	-0.986858	0.032086	-14.07	-1.68	-0.28	-0.1082	0.3805	-0.219	
0.02196	-0.976854	0.02135	-13.72	0.84	-1.26	-0.1053	0.3806	-0.2145	
0.023546	-0.945134	0.026352	-14.91	-0.91	-0.35	-0.1053	0.3744	-0.2161	
0.04209	-0.96197	0.030134	-17.01	-2.8	-1.54	-0.1083	0.3868	-0.2068	
0.067222	-0.975024	0.03355	-17.64	-4.9	-1.4	-0.1142	0.3899	-0.2051	
0.064416	-0.970998	0.009028	-16.24	-1.82	-0.84	-0.1142	0.3854	-0.1976	
0.044408	-1.03151	0.016714	-14.07	-1.33	-2.31	-0.1054	0.3838	-0.2023	
0.081496	-1.030534	0.036478	-7.98	-2.24	-0.84	-0.1012	0.393	-0.1961	
0.087474	-1.012844	0.053558	-6.16	0.56	0.56	-0.107	0.399	-0.2051	
0.085766	-0.997472	0.053558	-6.02	3.15	2.1	-0.1055	0.3929	-0.2052	
0.076738	-0.94733	0.010614	-6.58	5.81	5.11	-0.1084	0.3838	-0.1992	
0.072712	-0.959408	-0.01403	-7.77	4.48	4.48	-0.1085	0.3885	-0.19	
0.090158	-0.990762	-0.004148	-7.63	1.96	1.05	-0.1099	0.3961	-0.1975	
0.104432	-0.988688	-0.007564	-5.88	2.94	-1.61	-0.1071	0.3961	-0.1929	
0.068686	-0.992348	-0.027572	-4.41	6.93	-3.08	-0.107	0.3869	-0.1931	
0.02806	-0.988688	-0.086498	-3.29	9.03	-1.75	-0.1055	0.3884	-0.1946	
0.02928	-1.047614	-0.084912	-1.89	3.64	-2.8	-0.1085	0.393	-0.196	
0.07503	-1.03212	-0.06588	-1.26	1.26	-3.57	-0.1142	0.3915	-0.196	
0.07381	-1.03395	-0.022814	-2.17	1.26	-7.56	-0.1012	0.3884	-0.1961	
0.077592	-1.020286	-0.011712	-2.73	3.43	-6.51	-0.1084	0.3823	-0.1992	
0.065514	-0.989664	-0.03294	-2.17	8.12	-4.48	-0.1143	0.3901	-0.1884	
0.047702	-1.00101	-0.036234	-0.07	9.38	-5.67	-0.1129	0.3993	-0.1852	
0.055022	-1.010038	-0.008905999	2.66	9.1	-5.88	-0.1012	0.39	-0.1931	
0.047824	-1.013942	-0.036966	6.09	11.83	-4.13	-0.1056	0.3931	-0.1899	
0.01708	-1.036634	-0.083082	7.77	10.22	-2.59	-0.1114	0.3992	-0.1959	
0.034648	-1.076406	-0.072346	11.13	3.43	-1.4	-0.1114	0.3946	-0.1929	
0.065514	-1.067012	-0.05673	14.77	0.98	-1.4	-0.1041	0.3854	-0.1946	
0.0305	-1.05286	-0.059048	18.62	2.45	-0.21	-0.1039	0.3898	-0.2113	
0.02013	-1.031388	-0.055998	22.12	0.49	2.66	-0.1055	0.3884	-0.1961	
0.032086	-1.032486	-0.039284	23.73	-1.26	2.1	-0.101	0.3791	-0.21	
0.06527	-1.009794	-0.004392	24.57	-2.8	2.03	-0.098	0.3713	-0.2162	
0.079422	-1.00345	0.002928	24.43	-0.98	0	-0.1125	0.3791	-0.2144	
0.047702	-1.02663	0.000854	24.15	2.03	-1.75	-0.1111	0.3776	-0.2129	
0.058804	-1.009428	0.005124	24.78	1.47	-0.7	-0.1023	0.3682	-0.2208	
0.06161	-1.00589	0.005002	26.39	1.75	-2.17	-0.1037	0.3697	-0.2299	
0.043188	-1.02968	0.018422	30.1	1.82	-3.99	-0.1094	0.3712	-0.2344	
0.062342	-1.014674	0.050874	33.88	1.26	-4.48	-0.108	0.3667	-0.2268	
0.054168	-1.011014	0.058072	36.75	3.5	-5.88	-0.1065	0.3681	-0.2375	
0.045994	-0.984906	0.046482	38.15	4.97	-5.81	-0.1194	0.3574	-0.2451	
0.049654	-1.00833	0.073932	39.34	3.5	-7.56	-0.102	0.3542	-0.2438	
0.041358	-1.015284	0.078324	42.49	3.08	-8.26	-0.1135	0.3542	-0.2498	
0.039772	-1.01931	0.085766	46.2	1.82	-8.19	-0.1075	0.3403	-0.2607	
0.043188	-1.0004	0.096014	49.56	0	-7.14	-0.1045	0.3386	-0.2699	
0.054778	-0.991128	0.110654	52.57	-0.7	-6.65	-0.1046	0.3402	-0.2653	
0.068808	-0.981612	0.139568	53.76	-1.19	-6.79	-0.116	0.337	-0.282	
0.067222	-0.958432	0.166042	54.81	-0.56	-6.72	-0.1087	0.3248	-0.2822	
0.053924	-0.947696	0.179828	55.65	0.14	-7.49	-0.1158	0.3186	-0.2944	
0.074054	-0.94489	0.203252	57.4	-1.61	-8.33	-0.12	0.3078	-0.299	
0.076128	-0.950136	0.21655	60.34	-0.49	-10.15	-0.1141	0.3031	-0.3083	
0.088694	-0.931592	0.229604	62.44	-0.63	-12.46	-0.1168	0.2892	-0.3252	
0.096624	-0.92903	0.260958	64.4	-1.89	-15.61	-0.1314	0.297	-0.3158	
0.129808	-0.899262	0.302316	66.85	-3.92	-16.94	-0.124	0.2862	-0.3251	
0.181292	-0.859978	0.35075	68.11	-4.13	-16.87	-0.1209	0.2723	-0.3314	
0.171654	-0.854122	0.361608	69.23	2.03	-18.62	-0.1411	0.2617	-0.3359	
0.134444	-0.856684	0.375638	70.14	6.3	-19.53	-0.1295	0.2585	-0.3422	
0.104432	-0.816302	0.454084	66.78	5.67	-16.66	-0.1278	0.2415	-0.3561	
0.111752	-0.765916	0.472506	63.7	3.64	-11.34	-0.1306	0.2354	-0.3546	
0.132248	-0.743468	0.480314	60.97	-0.21	-8.89	-0.1306	0.2324	-0.3531	
0.142862	-0.759694	0.502762	59.15	-7.35	-9.38	-0.1319	0.2169	-0.3655	
0.165432	-0.746518	0.514352	59.71	-7.35	-10.5	-0.1304	0.2214	-0.3746	
0.174216	-0.75213	0.531188	59.57	-6.65	-12.46	-0.1346	0.2001	-0.3718	
0.172752	-0.774212	0.538874	59.5	-5.18	-13.72	-0.136	0.2	-0.3824	
0.158356	-0.759816	0.516182	60.2	-2.59	-12.32	-0.1344	0.1801	-0.3811	
0.158234	-0.786046	0.512888	61.88	-2.66	-12.32	-0.1401	0.1724	-0.3873	
0.14152	-0.774822	0.510082	64.75	0.77	-12.46	-0.1531	0.174	-0.3917	
0.103822	-0.770796	0.486536	68.18	-0.07	-13.79	-0.1458	0.1572	-0.3859	
0.115534	-0.705648	0.506788	68.18	-6.65	-11.69	-0.1499	0.1447	-0.4073	
0.153964	-0.657458	0.583282	66.08	-14.21	-9.8	-0.1455	0.1401	-0.4044	
0.205814	-0.646722	0.626348	65.31	-15.33	-8.26	-0.144	0.1264	-0.4015	
0.215208	-0.618418	0.641964	66.29	-12.81	-7.21	-0.1482	0.1126	-0.4092	
0.189954	-0.598532	0.654286	64.82	-12.81	-9.52	-0.151	0.0942	-0.4125	
0.196176	-0.58194	0.689666	63.35	-17.57	-8.33	-0.1654	0.0837	-0.4094	
0.242292	-0.569618	0.710894	63.28	-17.85	-8.4	-0.1581	0.0804	-0.4217	
0.246928	-0.557906	0.731634	63.21	-14.91	-11.13	-0.174	0.0623	-0.4095	
0.239974	-0.526674	0.727852	64.89	-8.89	-15.12	-0.1623	0.056	-0.4174	
0.23973	-0.508496	0.711382	66.29	-5.95	-18.69	-0.1622	0.0468	-0.4175	
0.248392	-0.489464	0.72346	67.27	-4.97	-19.53	-0.1694	0.0392	-0.4221	
0.248758	-0.457378	0.766282	67.76	-5.74	-20.37	-0.1693	0.0209	-0.4162	
0.25681	-0.426268	0.790438	69.16	-2.73	-21.91	-0.1721	0.0132	-0.4238	
0.240584	-0.404552	0.773602	69.3	-3.01	-22.4	-0.1692	-0.0004	-0.4195	
0.231678	-0.390278	0.82167	67.48	-9.24	-21.63	-0.1691	-0.0096	-0.418	
0.26535	-0.380762	0.869494	66.78	-8.96	-21	-0.1865	-0.0277	-0.4089	
0.30866	-0.319884	0.892918	66.15	-7.49	-19.25	-0.1632	-0.0326	-0.4184	
0.31171	-0.271206	0.897798	63.98	-5.39	-20.09	-0.1674	-0.0478	-0.42	
0.310368	-0.238632	0.915732	60.34	-5.6	-19.6	-0.1775	-0.06	-0.417	
0.32818	-0.210816	0.931104	56.7	-4.34	-18.62	-0.1703	-0.06	-0.4156	
0.338306	-0.179706	0.923662	52.08	-1.54	-16.66	-0.1746	-0.0676	-0.4141	
0.326838	-0.162504	0.935252	47.67	-1.26	-17.78	-0.1803	-0.0783	-0.4157	
0.332572	-0.131882	0.971364	42.21	-3.36	-16.17	-0.1759	-0.0889	-0.4097	
0.341356	-0.10797	0.991616	37.31	-2.17	-13.79	-0.1758	-0.0951	-0.4174	
0.361364	-0.093696	1.005402	32.2	-1.68	-11.48	-0.1744	-0.0997	-0.416	
0.360266	-0.092232	1.013088	27.23	-0.63	-11.13	-0.1686	-0.1104	-0.407	
0.337452	-0.099552	1.031388	22.19	-1.19	-10.71	-0.1772	-0.1073	-0.413	
0.348798	-0.096258	1.037122	17.78	-1.54	-7.84	-0.1729	-0.1165	-0.4086	
0.361242	-0.071126	1.03395	13.23	-1.54	-3.43	-0.1701	-0.1149	-0.3994	
0.363682	-0.03538	1.02602	6.65	-3.99	0	-0.1685	-0.1226	-0.4056	
0.36295	-0.04148	1.042734	-0.84	-5.6	1.12	-0.1772	-0.1256	-0.4071	
0.387838	-0.033428	1.063474	-6.37	-1.89	3.5	-0.1685	-0.1195	-0.4071	
0.39162	-0.011224	1.061888	-11.27	-0.77	4.83	-0.1714	-0.1211	-0.4071	
0.39772	-0.017934	1.074088	-18.41	-1.47	6.16	-0.1801	-0.1149	-0.4085	
0.392718	-0.024034	1.081286	-25.2	0.07	7.49	-0.1772	-0.121	-0.404	
0.39284	-0.021472	1.062986	-35.14	6.37	11.06	-0.1687	-0.0935	-0.4053	
0.367342	-0.035258	1.041392	-43.12	10.15	11.48	-0.1774	-0.0935	-0.4113	
0.354532	-0.054778	1.037488	-50.75	10.43	12.25	-0.173	-0.086	-0.4174	
0.346968	-0.065514	1.02358	-56.84	10.22	14.35	-0.1717	-0.0783	-0.4081	
0.337818	-0.093452	1.007232	-62.3	10.08	16.59	-0.1673	-0.0768	-0.4127	
0.325496	-0.125416	0.976244	-68.67	13.23	17.5	-0.1703	-0.06	-0.4125	
0.313662	-0.14579	0.948428	-75.88	13.65	18.55	-0.1674	-0.0555	-0.4171	
0.293288	-0.176778	0.934398	-83.37	10.78	19.74	-0.1603	-0.0371	-0.4139	
0.287066	-0.239242	0.88938	-87.64	12.39	21	-0.1589	-0.0234	-0.4168	
0.264618	-0.296948	0.842898	-91.7	14.63	20.51	-0.1662	-0.0127	-0.4212	
0.23729	-0.335866	0.807274	-97.02	16.8	20.23	-0.1648	0.0009	-0.4271	
0.207034	-0.35807	0.760182	-100.87	18.34	20.65	-0.1533	0.0176	-0.4255	
0.193248	-0.392108	0.7198	-104.44	14.7	21.98	-0.1461	0.039	-0.4269	
0.207766	-0.44896	0.692228	-107.03	11.83	20.72	-0.155	0.0529	-0.4144	
0.186538	-0.527162	0.663558	-107.38	13.02	16.73	-0.1522	0.0682	-0.4173	
0.161772	-0.5978	0.625372	-105.7	15.54	12.74	-0.1466	0.0881	-0.4126	
0.146034	-0.682224	0.54046	-102.83	16.1	9.8	-0.1365	0.0972	-0.4141	
0.108458	-0.714554	0.49654	-101.71	13.3	8.47	-0.1469	0.1203	-0.4015	
0.099064	-0.736514	0.452742	-99.26	7.42	10.15	-0.1368	0.1263	-0.4031	
0.106384	-0.724802	0.417484	-98.84	2.31	13.44	-0.1442	0.1448	-0.3982	
0.121146	-0.734196	0.414556	-97.16	-3.57	13.23	-0.1299	0.1647	-0.3905	
0.139202	-0.765794	0.406382	-94.22	-8.19	12.53	-0.1271	0.1632	-0.3799	
0.192638	-0.766892	0.413336	-90.37	-11.27	14.49	-0.1403	0.1833	-0.375	
0.220942	-0.773968	0.378322	-87.99	-6.58	13.37	-0.1433	0.1987	-0.3671	
0.203252	-0.822768	0.346602	-85.05	-3.36	5.67	-0.1478	0.2109	-0.3685	
0.174582	-0.885964	0.312076	-80.22	-1.54	0.49	-0.129	0.2261	-0.3654	
0.168238	-0.881938	0.307928	-75.53	-2.59	1.82	-0.138	0.2371	-0.3484	
0.16165	-0.87535	0.296704	-72.1	-1.47	1.47	-0.1351	0.2493	-0.3483	
0.127612	-0.915244	0.284626	-68.18	-1.12	-1.26	-0.1353	0.2555	-0.3361	
0.102602	-0.929762	0.254858	-63.77	-2.24	-1.54	-0.1324	0.2556	-0.3315	
0.12139	-0.939156	0.23851	-59.92	-5.74	0.56	-0.1384	0.2724	-0.3297	
0.168482	-0.942084	0.224358	-55.3	-8.33	3.85	-0.1313	0.2832	-0.3205	
0.168116	-0.962824	0.226432	-52.43	-7.63	2.31	-0.1386	0.2864	-0.3128	
0.14335	-0.975146	0.21533	-49.35	-4.9	2.45	-0.1415	0.288	-0.3112	
0.105286	-0.977342	0.207034	-46.27	-5.25	4.13	-0.149	0.2974	-0.2928	
0.10614	-0.949038	0.19337	-42.91	-4.9	7.77	-0.1446	0.3034	-0.3004	
0.10736	-0.943548	0.196054	-42.42	-9.1	9.17	-0.1375	0.305	-0.2913	
0.121878	-0.927932	0.1952	-42.77	-10.71	11.06	-0.1375	0.3004	-0.2867	
0.15128	-0.920124	0.200324	-43.4	-11.41	12.88	-0.1464	0.3251	-0.2772	
0.17995	-0.93574	0.209108	-43.47	-10.36	11.97	-0.1319	0.3173	-0.279	
0.171898	-0.951722	0.180316	-43.4	-6.86	10.64	-0.1392	0.3327	-0.2742	
0.14823	-0.964288	0.16409	-43.33	-5.25	9.73	-0.1335	0.3313	-0.2636	
0.126758	-0.95526	0.147742	-41.65	-5.04	10.78	-0.1379	0.339	-0.2619	
0.124928	-0.973926	0.137494	-41.3	-6.37	11.76	-0.1322	0.3465	-0.2634	
0.108336	-0.988322	0.104554	-40.18	-7.14	11.76	-0.1338	0.3513	-0.2481	
0.119194	-0.977464	0.083326	-39.69	-10.36	13.23	-0.131	0.3529	-0.242	
0.125538	-0.983198	0.058926	-39.27	-11.27	12.11	-0.1252	0.3544	-0.2436	
0.131516	-1.00223	0.022936	-38.78	-10.5	11.9	-0.1355	0.3622	-0.2342	
0.101016	-1.030778	0.01769	-38.22	-10.71	9.87	-0.1269	0.3668	-0.2266	
0.08723	-1.025044	0.001586	-36.68	-10.43	10.64	-0.1341	0.3699	-0.225	
0.09467199	-1.005158	-0.024888	-35.49	-11.41	12.32	-0.1327	0.3791	-0.2264	
0.09455	-1.033462	-0.029036	-32.76	-12.04	8.05	-0.1314	0.3776	-0.2173	
0.119438	-1.009428	-0.008052	-29.68	-14	8.54	-0.1329	0.3762	-0.2066	
0.130174	-0.96685	-0.00183	-26.95	-11.2	7.49	-0.1329	0.3823	-0.2142	
0.11712	-0.97234	-0.008052	-25.06	-8.26	6.72	-0.136	0.3901	-0.1988	
0.145058	-0.980514	0.005124	-23.73	-7.98	6.58	-0.1272	0.3916	-0.202	
0.15433	-0.972584	-0.0061	-23.03	-4.13	5.81	-0.1346	0.3856	-0.1898	
0.113094	-1.020652	-0.036844	-21.21	1.33	1.82	-0.1273	0.3886	-0.1959	
0.050874	-1.052982	-0.0915	-15.82	4.2	0.84	-0.1245	0.3871	-0.1853	
0.052948	-1.050298	-0.088328	-11.27	1.89	2.24	-0.123	0.3811	-0.1792	
0.101626	-1.036878	-0.065392	-10.64	-0.42	3.5	-0.1304	0.3919	-0.176	
0.099552	-1.089826	-0.056852	-10.01	0.14	1.12	-0.1304	0.3995	-0.1759	
0.08686399	-1.084946	-0.077348	-4.62	0.28	3.5	-0.126	0.3918	-0.1821	
0.06466	-1.036146	-0.096136	0.21	2.87	4.62	-0.1303	0.3993	-0.1942	
0.054412	-1.014796	-0.079178	4.83	1.89	5.11	-0.1216	0.3872	-0.1807	
0.114924	-0.946232	-0.02257	6.02	-3.08	2.87	-0.1346	0.3948	-0.1866	
0.135786	-0.925492	-0.012078	4.27	-0.7	-1.61	-0.1317	0.3902	-0.1913	
0.10614	-0.961238	-0.039528	2.17	4.97	-5.67	-0.1158	0.4008	-0.1882	
0.070394	-1.003572	-0.059292	2.24	7.56	-6.79	-0.1229	0.387	-0.1929	
0.04941	-1.027118	-0.058194	4.27	6.3	-5.53	-0.1186	0.3794	-0.19	
0.072468	-0.998082	-0.070882	6.16	4.76	-2.52	-0.1216	0.3948	-0.1852	
0.136396	-0.97783	-0.04148	4.9	1.61	-1.68	-0.1172	0.3886	-0.1868	
0.12139	-1.016504	-0.041236	4.9	6.44	-5.46	-0.1244	0.3886	-0.1883	
0.063562	-1.034438	-0.064782	7.98	10.43	-5.88	-0.1186	0.3825	-0.1884	
0.066856	-1.012844	-0.063562	10.01	8.26	-4.2	-0.1229	0.3839	-0.199	
0.088572	-1.033096	-0.02013	10.43	3.08	-3.71	-0.1287	0.3886	-0.1959	
0.102846	-1.011014	-0.014762	11.13	2.94	-2.03	-0.1331	0.381	-0.1913	
0.087474	-1.016138	-0.024278	12.25	3.78	-1.96	-0.1288	0.3932	-0.1958	
0.0976	-0.996496	-0.013908	14.91	3.36	-0.21	-0.1243	0.3824	-0.1975	
0.100894	-0.981978	-0.019398	16.87	4.62	-1.4	-0.1183	0.3821	-0.2174	
0.077592	-1.007354	-0.013908	19.74	4.06	-3.29	-0.1212	0.3715	-0.2114	
0.075884	-1.020042	-0.020862	23.59	2.8	-3.15	-0.1198	0.3746	-0.2129	
0.108336	-1.005036	-0.00122	24.57	-0.77	-2.52	-0.1269	0.3699	-0.2251	
0.103456	-1.02724	0.020252	25.41	0.14	-3.85	-0.1314	0.3793	-0.2097	
0.090402	-1.02724	0.022082	27.86	0.7	-1.68	-0.1283	0.3577	-0.2221	
0.083814	-1.007598	0.01403	31.29	0.14	0.42	-0.1311	0.3683	-0.2342	
0.105164	-0.976244	0.024034	32.62	-2.31	0.7	-0.1298	0.3699	-0.2235	
0.129686	-0.978074	0.053436	31.43	-2.87	-2.66	-0.1268	0.3637	-0.2267	
0.13054	-0.996496	0.08479	30.45	-3.01	-3.64	-0.1224	0.3621	-0.2343	
0.126392	-1.010282	0.0854	30.17	-0.49	-3.57	-0.1368	0.356	-0.245	
0.115046	-1.002718	0.086986	31.43	1.61	-2.03	-0.1324	0.362	-0.248	
0.1159	-0.99491	0.089914	33.39	1.47	-1.68	-0.1252	0.3574	-0.2466	
0.111996	-0.972828	0.11712	35.07	0.7	-2.1	-0.1223	0.3483	-0.2406	
0.10919	-0.958554	0.137616	35.21	1.19	-2.31	-0.1308	0.3436	-0.2497	
0.12627	-0.96563	0.159454	33.53	-0.21	-0.91	-0.122	0.3404	-0.2636	
0.136884	-0.977586	0.177144	32.2	-0.21	-1.26	-0.1321	0.3358	-0.2696	
0.127368	-1.004792	0.180926	32.76	1.61	-2.17	-0.1276	0.3296	-0.2743	
0.094428	-1.001132	0.155428	36.47	4.76	-0.14	-0.1276	0.3249	-0.2789	
0.08906	-0.983808	0.158112	38.57	3.15	0.91	-0.1261	0.3234	-0.279	
0.096868	-0.964654	0.171166	39.34	0.98	-0.35	-0.1274	0.3156	-0.2943	
0.088694	-0.983808	0.196542	39.9	-0.14	-2.59	-0.1318	0.3217	-0.2927	
0.094306	-0.980026	0.192394	40.39	-0.49	-2.1	-0.1317	0.3095	-0.2943	
0.118462	-0.996984	0.205692	41.3	-1.33	-2.94	-0.1317	0.3065	-0.2928	
0.119316	-0.982466	0.200934	43.96	0.98	-4.2	-0.1287	0.3094	-0.302	
0.105652	-0.971852	0.211426	46.2	3.01	-4.9	-0.1284	0.2878	-0.3144	
0.09638	-0.968314	0.2257	49	3.36	-4.9	-0.127	0.2954	-0.3189	
0.103578	-0.95038	0.254004	51.66	1.12	-3.99	-0.1298	0.2862	-0.3205	
0.10431	-0.93208	0.278282	53.34	0.21	-3.08	-0.1326	0.2816	-0.3297	
0.115534	-0.913048	0.28365	53.97	1.19	-2.31	-0.1384	0.2816	-0.3342	
0.114192	-0.913048	0.290238	56.56	1.61	-4.41	-0.1383	0.2708	-0.3389	
0.10187	-0.901946	0.304878	62.86	1.68	-8.89	-0.1324	0.2524	-0.3361	
0.100528	-0.878156	0.357826	65.1	-0.35	-9.38	-0.1352	0.2554	-0.3483	
0.137006	-0.848754	0.402722	65.03	-1.47	-8.89	-0.1364	0.24	-0.3576	
0.140544	-0.82411	0.416264	64.75	0.35	-9.52	-0.1335	0.2369	-0.3561	
0.130662	-0.81313	0.4209	64.68	3.5	-10.43	-0.1392	0.2292	-0.3683	
0.135908	-0.815692	0.451034	65.87	2.73	-12.88	-0.1319	0.2093	-0.3625	
0.143472	-0.808738	0.46909	67.76	3.71	-14.21	-0.1273	0.1969	-0.3734	
0.120536	-0.787022	0.452864	69.58	4.97	-15.4	-0.1534	0.1985	-0.3823	
0.082716	-0.764452	0.442982	70.49	1.19	-16.03	-0.1431	0.1893	-0.384	
0.096868	-0.750056	0.474824	71.05	-4.69	-16.1	-0.14	0.1723	-0.3964	
0.157014	-0.72224	0.539484	71.05	-9.94	-15.47	-0.1342	0.1677	-0.392	
0.1891	-0.69174	0.5673	71.54	-6.86	-16.31	-0.1385	0.1495	-0.3876	
0.179462	-0.686982	0.57767	72.24	-3.57	-19.53	-0.1456	0.1402	-0.4013	
0.141032	-0.656604	0.5612	74.62	0.21	-20.3	-0.1542	0.1295	-0.4044	
0.127856	-0.656726	0.587552	75.11	-2.94	-21.14	-0.1483	0.1264	-0.4091	
0.153842	-0.615002	0.632326	76.09	-6.44	-19.95	-0.1496	0.1049	-0.4139	
0.19398	-0.56364	0.655994	76.02	-7.7	-17.64	-0.1551	0.0773	-0.4218	
0.197884	-0.522038	0.684908	75.95	-6.23	-18.9	-0.1582	0.0775	-0.4065	
0.214964	-0.502396	0.717238	74.13	-5.95	-20.02	-0.1623	0.056	-0.4158	
0.234362	-0.471164	0.734562	72.52	-6.3	-19.6	-0.1536	0.0544	-0.419	
0.244244	-0.411018	0.770308	69.09	-9.45	-18.69	-0.152	0.0361	-0.4162	
0.26535	-0.406138	0.811788	66.08	-7.35	-19.39	-0.1621	0.0284	-0.4238	
0.260958	-0.416752	0.817034	66.08	-4.13	-19.95	-0.1635	0.0224	-0.4162	
0.250832	-0.390156	0.814228	66.43	-3.22	-19.32	-0.1576	0.0115	-0.4286	
0.251686	-0.339892	0.841312	63.7	-6.51	-18.06	-0.1561	0.0024	-0.4196	
0.279746	-0.316224	0.87291	59.36	-7.98	-17.15	-0.1677	-0.0141	-0.4151	
0.298168	-0.310978	0.89487	57.61	-6.3	-17.29	-0.1647	-0.0173	-0.4182	
0.302926	-0.28548	0.906826	56.77	-4.55	-16.45	-0.1718	-0.0356	-0.4214	
0.309026	-0.241194	0.924272	54.74	-4.06	-15.19	-0.1631	-0.0433	-0.4215	
0.312442	-0.211548	0.927932	50.96	-3.92	-14.7	-0.1689	-0.0554	-0.4109	
0.310612	-0.219356	0.937814	47.39	-4.9	-14.56	-0.1732	-0.057	-0.4185	
0.324154	-0.192516	0.943548	42.63	-4.48	-10.5	-0.1673	-0.0692	-0.4172	
0.317444	-0.196786	0.962092	39.34	-3.99	-9.45	-0.1717	-0.0691	-0.4126	
0.31476	-0.185684	0.9577	36.61	-2.38	-7.98	-0.1673	-0.07979999	-0.4112	
0.320372	-0.163968	0.968436	33.6	-2.59	-6.16	-0.1585	-0.083	-0.4144	
0.312686	-0.151646	0.98027	28.7	-3.85	-6.58	-0.1643	-0.0875	-0.4144	
0.328424	-0.13359	0.990274	24.29	-3.99	-5.95	-0.1715	-0.1042	-0.4069	
0.351238	-0.124196	0.999424	19.04	-3.22	-5.6	-0.1803	-0.09649999	-0.4083	
0.353678	-0.128588	1.001986	13.79	-2.59	-4.69	-0.1788	-0.1042	-0.4053	
0.357338	-0.110776	1.033828	8.12	-2.66	-3.64	-0.1802	-0.0997	-0.4174	
0.361974	-0.0976	1.049566	2.31	-1.12	-2.38	-0.1743	-0.1104	-0.413	
0.36173	-0.099796	1.034316	-2.38	0.28	-0.14	-0.1715	-0.1073	-0.4085	
0.35441	-0.101138	1.00833	-6.86	1.54	1.54	-0.17	-0.1028	-0.4145	
0.346968	-0.106384	1.010892	-11.69	0.91	3.36	-0.1672	-0.1104	-0.4055	
0.353068	-0.081008	1.020286	-16.8	2.17	4.62	-0.1788	-0.1057	-0.4084	
0.346114	-0.081984	1.027728	-22.33	2.87	5.39	-0.1788	-0.09959999	-0.4083	
0.335622	-0.103212	1.009916	-30.87	3.85	7.7	-0.1788	-0.0875	-0.4158	
0.33855	-0.127124	1.016016	-36.61	2.66	9.31	-0.1701	-0.07539999	-0.4218	
0.339526	-0.141276	1.016992	-41.65	3.71	11.76	-0.1701	-0.0799	-0.4173	
0.331352	-0.139446	1.013332	-47.04	5.04	14.35	-0.1672	-0.07229999	-0.4234	
0.321104	-0.151036	0.986736	-53.2	6.93	15.89	-0.1644	-0.0662	-0.4218	
0.304634	-0.183854	0.957334	-58.66	8.33	16.24	-0.1644	-0.0616	-0.4187	
0.292434	-0.208376	0.952454	-63.84	8.75	17.01	-0.1732	-0.0448	-0.4215	
0.287066	-0.21899	0.935984	-68.88	10.15	17.64	-0.1675	-0.0402	-0.4184	
0.278892	-0.23546	0.903898	-74.13	10.5	17.57	-0.169	-0.0295	-0.4213	
0.272548	-0.277184	0.859612	-78.54	10.85	16.73	-0.1648	-0.0126	-0.4135	
0.25742	-0.320738	0.846314	-82.53	11.83	15.68	-0.1561	-0.002	-0.4196	
0.248148	-0.344406	0.834358	-86.1	12.32	15.12	-0.1562	0.0177	-0.424	
0.23546	-0.391498	0.798856	-88.97	13.02	13.79	-0.1548	0.0284	-0.4208	
0.205814	-0.414922	0.758474	-91.49	13.58	14.77	-0.1491	0.0329	-0.4223	
0.19337	-0.467382	0.728706	-94.64	12.67	14.07	-0.1506	0.0543	-0.4266	
0.190198	-0.535214	0.682956	-95.69	10.78	13.09	-0.1507	0.06659999	-0.4189	
0.18361	-0.574986	0.635498	-95.34	10.5	14.42	-0.1495	0.0926	-0.4155	
0.16287	-0.583404	0.596458	-95.62	10.15	14.63	-0.1481	0.09869999	-0.417	
0.139568	-0.60939	0.546438	-94.99	7.77	14.35	-0.1381	0.1081	-0.3987	
0.150426	-0.640134	0.513254	-94.22	3.43	14.56	-0.1484	0.1311	-0.3983	
0.129808	-0.682468	0.471164	-92.26	1.47	12.32	-0.1427	0.1387	-0.3968	
0.11163	-0.72285	0.447496	-90.37	-3.36	12.53	-0.1443	0.1616	-0.398	
0.130418	-0.758962	0.427244	-88.55	-7.91	13.16	-0.1488	0.1649	-0.3827	
0.160796	-0.802394	0.426024	-87.29	-11.06	14.14	-0.1316	0.1969	-0.3825	
0.15982	-0.858758	0.395524	-84.84	-9.31	11.97	-0.1388	0.1878	-0.3764	
0.145424	-0.868884	0.351726	-81.83	-7.77	12.53	-0.139	0.2047	-0.3732	
0.1342	-0.859124	0.324886	-79.1	-7.14	13.16	-0.1492	0.214	-0.3684	
0.129076	-0.88633	0.316956	-75.18	-6.3	12.04	-0.1334	0.2231	-0.3639	
0.110166	-0.874984	0.313784	-69.79	-5.6	12.74	-0.1452	0.2462	-0.3544	
0.102724	-0.845216	0.296094	-65.94	-6.51	14.91	-0.1438	0.2402	-0.3453	
0.127002	-0.891332	0.281088	-63.28	-8.26	11.69	-0.1452	0.2477	-0.3543	
0.113216	-0.930738	0.26657	-59.08	-6.86	8.26	-0.1397	0.2587	-0.3314	
0.11346	-0.944646	0.248026	-52.92	-5.81	7.21	-0.14	0.2848	-0.322	
0.139324	-0.933544	0.24583	-50.12	-6.51	9.8	-0.1399	0.2847	-0.3235	
0.140056	-0.951966	0.241072	-48.02	-4.41	7.56	-0.1356	0.2847	-0.322	
0.112606	-0.96685	0.216306	-44.03	-3.99	6.23	-0.1242	0.297	-0.3144	
0.108092	-0.947208	0.203984	-41.3	-5.95	7.28	-0.1416	0.2941	-0.3066	
0.133956	-0.932568	0.219356	-40.6	-7.77	9.17	-0.1374	0.3079	-0.3019	
0.165676	-0.950868	0.235582	-40.46	-7.56	7.84	-0.136	0.3034	-0.2928	
0.1525	-0.97844	0.225212	-39.97	-5.6	6.3	-0.1332	0.3111	-0.2867	
0.142374	-0.99003	0.203984	-39.27	-4.34	5.6	-0.1375	0.3126	-0.2897	
0.120414	-0.9943	0.166042	-38.43	-3.43	6.16	-0.1304	0.3203	-0.2805	
0.100894	-0.996984	0.14091	-37.52	-4.48	7.56	-0.1289	0.3173	-0.2821	
0.107848	-1.001986	0.142374	-35.84	-7.77	9.17	-0.1392	0.3235	-0.2727	
0.134932	-0.99064	0.139934	-33.25	-9.03	10.64	-0.1278	0.3313	-0.256	
0.130906	-1.000888	0.112118	-31.01	-5.74	7.7	-0.135	0.3328	-0.2605	
0.103334	-1.017846	0.091866	-28.28	-4.69	5.6	-0.1379	0.3343	-0.2681	
0.102968	-1.028948	0.092232	-23.8	-5.95	6.37	-0.1351	0.336	-0.2528	
0.134078	-1.026874	0.104798	-21.56	-6.23	6.65	-0.1322	0.3466	-0.2603	
0.122976	-1.001742	0.087474	-19.74	-2.45	6.16	-0.1294	0.3451	-0.2528	
0.129686	-0.99796	0.083204	-18.55	-0.77	4.13	-0.1367	0.3482	-0.2511	
0.121634	-0.999302	0.09394	-16.38	0.98	1.68	-0.128	0.3467	-0.2482	
0.099674	-0.961482	0.10004	-15.05	2.17	2.17	-0.131	0.356	-0.2404	
0.10309	-0.943548	0.099064	-14.21	1.54	2.31	-0.1266	0.3559	-0.2435	
0.120414	-0.937082	0.098332	-13.3	0.98	1.68	-0.1281	0.3575	-0.242	
0.121878	-0.971608	0.08967	-13.02	1.54	-0.28	-0.1383	0.35	-0.2359	
0.137616	-1.017846	0.09857599	-12.46	2.73	-3.36	-0.1267	0.3606	-0.2374	
0.104798	-1.038464	0.085644	-11.34	5.18	-3.22	-0.1324	0.359	-0.245	
0.111874	-1.034926	0.073688	-11.62	5.95	-0.49	-0.1326	0.3561	-0.2282	
0.11346	-1.044442	0.079788	-12.32	5.95	1.26	-0.1282	0.3606	-0.2374	
0.092354	-1.02297	0.053192	-11.34	7.21	2.45	-0.1295	0.3468	-0.236	
0.090524	-0.991494	0.030988	-10.01	5.88	1.89	-0.1195	0.359	-0.2344	
0.084058	-0.999546	0.025986	-8.26	4.62	-0.07	-0.1253	0.356	-0.2329	
0.086132	-1.02358	0.038186	-4.62	3.92	-1.54	-0.1224	0.3622	-0.2298	
0.104554	-1.004182	0.05185	-3.29	3.15	-0.91	-0.1311	0.3637	-0.2327	
0.110898	-0.988444	0.046848	-3.22	3.78	-0.35	-0.1196	0.3743	-0.2312	
0.107238	-0.983808	0.043188	-3.29	4.27	0.07	-0.1268	0.3622	-0.2313	
0.09882	-0.996984	0.036722	-2.66	4.41	-1.47	-0.121	0.3561	-0.2207	
0.099064	-1.003572	0.035624	-0.91	4.2	-2.45	-0.1224	0.3666	-0.2419	
0.096746	-0.98393	0.039528	1.4	4.55	-1.75	-0.1225	0.3683	-0.2282	
0.099796	-0.995276	0.041358	3.57	4.83	-2.1	-0.1152	0.3742	-0.2389	
0.097844	-1.0309	0.045262	5.67	4.69	-3.22	-0.1181	0.353	-0.2284	
0.09357399	-1.060668	0.047458	7.77	2.94	-3.08	-0.121	0.3636	-0.2328	
0.118096	-1.041148	0.064538	9.87	2.8	0.07	-0.1282	0.3683	-0.2342	
0.111752	-1.01931	0.057096	11.48	4.76	2.73	-0.1267	0.3576	-0.2328	
0.129808	-0.999546	0.048068	12.6	5.6	4.27	-0.1224	0.3651	-0.2358	
0.113216	-0.987712	0.062464	13.16	6.3	3.57	-0.118	0.3635	-0.2389	
0.090402	-1.01443	0.05612	13.51	5.53	1.96	-0.1179	0.3558	-0.2482	
0.085156	-1.00589	0.056974	14.49	2.87	4.27	-0.118	0.3544	-0.2391	
0.08235	-1.00772	0.07442	14.91	-0.63	6.58	-0.1193	0.3558	-0.2512	
0.096136	-0.985028	0.087596	15.33	-3.36	8.54	-0.115	0.3542	-0.2498	
0.10248	-0.9821	0.1098	15.05	-4.83	7.91	-0.1208	0.3558	-0.2482	
0.099552	-0.984052	0.126636	15.33	-4.55	7.63	-0.1164	0.3527	-0.2513	
0.098454	-0.973194	0.138958	15.75	-3.22	7.49	-0.1062	0.3571	-0.262	
0.09882	-0.973682	0.142984	15.61	-2.87	6.79	-0.1178	0.345	-0.2544	
0.092476	-0.976732	0.148474	15.61	-2.31	5.46	-0.1206	0.3495	-0.262	
0.099674	-0.98149	0.142618	16.1	-2.24	4.83	-0.1134	0.3526	-0.2605	
0.124562	-0.991494	0.164578	16.59	-2.52	4.34	-0.1178	0.3496	-0.2544	
0.141642	-0.978318	0.188002	17.22	-0.49	4.13	-0.1104	0.3448	-0.2667	
0.169824	-0.981978	0.203496	17.57	2.94	3.85	-0.1177	0.3494	-0.2696	
0.172752	-0.982954	0.19276	18.97	10.15	3.5	-0.1118	0.3417	-0.2713	
0.159454	-0.990762	0.168482	21.56	15.89	4.48	-0.1119	0.3433	-0.2636	
0.129686	-0.988566	0.165066	24.01	18.83	5.81	-0.1075	0.3433	-0.2682	
0.145302	-0.980636	0.181048	26.74	16.73	9.59	-0.0972	0.3324	-0.2761	
0.132126	-0.962092	0.17507	28.98	15.4	15.33	-0.0971	0.3338	-0.2852	
0.133468	-0.957334	0.186416	29.19	12.32	19.32	-0.097	0.3306	-0.2959	
0.12993	-0.970388	0.222162	29.75	8.96	21.77	-0.0927	0.3261	-0.2869	
0.121634	-0.953064	0.231312	30.52	8.19	25.06	-0.0897	0.3244	-0.3007	
0.1281	-0.945988	0.23729	29.82	6.65	27.16	-0.0796	0.3214	-0.2916	
0.115168	-0.94855	0.243512	28.07	6.79	30.03	-0.0809	0.3167	-0.3039	
0.109312	-0.968314	0.277428	27.51	6.16	31.92	-0.065	0.3258	-0.3009	
0.075884	-0.960506	0.271084	28.14	8.54	35.42	-0.078	0.3213	-0.3039	
0.04758	-0.93025	0.27755	29.05	7.21	38.99	-0.0721	0.3195	-0.3192	
0.044408	-0.915122	0.297802	28.77	5.74	41.02	-0.0502	0.2934	-0.3151	
0.000122	-0.912804	0.311466	27.37	6.37	41.16	-0.0518	0.3118	-0.3164	
-0.028426	-0.900238	0.341112	27.3	6.09	44.73	-0.053	0.3025	-0.3287	
-0.024888	-0.883646	0.35319	27.51	6.23	47.67	-0.0517	0.3056	-0.3241	
-0.047458	-0.875228	0.352214	27.86	6.16	49.21	-0.0371	0.2993	-0.3304	
-0.063318	-0.881206	0.356728	26.88	4.9	50.47	-0.0312	0.2947	-0.3305	
-0.08723	-0.893528	0.379176	27.16	7.7	52.08	-0.0254	0.2945	-0.3397	
-0.123342	-0.86803	0.388692	27.58	9.59	55.09	-0.0166	0.2975	-0.3428	
-0.14396	-0.86254	0.406016	27.65	9.52	54.11	-0.018	0.2944	-0.3474	
-0.166042	-0.848632	0.41541	29.05	11.69	52.22	-0.0079	0.2822	-0.337	
-0.168116	-0.839238	0.427488	28.7	14.28	51.03	0.0022	0.282	-0.3462	
-0.210328	-0.837164	0.441884	27.72	19.6	48.72	0.0066	0.2865	-0.3523	
-0.251564	-0.841068	0.427976	28.35	23.38	49.56	0.0124	0.2819	-0.3509	
-0.263154	-0.82228	0.418704	28.98	22.89	51.52	0.0197	0.2742	-0.3526	
-0.292312	-0.801052	0.435418	29.12	23.03	50.47	0.0271	0.2649	-0.3558	
-0.296948	-0.789096	0.465186	28.56	21.7	49.77	0.0417	0.2647	-0.3666	
-0.337818	-0.794098	0.460794	29.26	24.99	47.81	0.0532	0.2646	-0.3668	
-0.399306	-0.757376	0.427854	29.19	26.46	47.11	0.0532	0.2662	-0.3637	
-0.41724	-0.725168	0.414434	27.44	23.45	44.17	0.0664	0.2523	-0.3716	
-0.403698	-0.731024	0.450424	27.09	19.88	41.44	0.0665	0.2552	-0.3777	
-0.41602	-0.751154	0.45445	27.02	20.93	38.92	0.0738	0.2308	-0.3765	
-0.44469	-0.708698	0.450058	23.45	20.51	38.29	0.0809	0.2415	-0.3688	
-0.43432	-0.718336	0.502762	19.67	15.33	34.37	0.087	0.223	-0.3813	
-0.44469	-0.694058	0.492148	19.25	16.87	32.34	0.09999999	0.2319	-0.3904	
-0.495442	-0.650992	0.469578	15.54	15.26	27.58	0.0942	0.2199	-0.3768	
-0.532652	-0.697108	0.475678	14.49	9.45	21.07	0.103	0.2228	-0.386	
-0.501908	-0.670146	0.496174	14.91	5.74	19.74	0.1118	0.2165	-0.3938	
-0.49898	-0.635986	0.488854	13.65	5.67	15.19	0.1146	0.2135	-0.3878	
-0.504348	-0.668926	0.511912	12.04	3.01	10.08	0.1147	0.2165	-0.3953	
-0.5307	-0.651724	0.5002	9.1	4.2	6.79	0.1088	0.2136	-0.3892	
-0.546682	-0.659044	0.503006	5.25	-0.77	3.43	0.1103	0.2121	-0.3862	
-0.519964	-0.660264	0.519598	3.01	-4.69	0.14	0.1089	0.209	-0.3877	
-0.515694	-0.661606	0.517158	2.24	-5.53	-2.45	0.106	0.2105	-0.3877	
-0.518378	-0.65026	0.509594	0.42	-6.65	-4.55	0.106	0.2029	-0.3893	
-0.522038	-0.650016	0.504348	-1.96	-8.4	-7.35	0.1133	0.2044	-0.3894	
-0.525088	-0.661118	0.515816	-3.36	-9.17	-10.01	0.1146	0.2182	-0.3847	
-0.520574	-0.659654	0.512156	-3.43	-9.45	-11.41	0.1117	0.2136	-0.3847	
-0.511912	-0.658068	0.52155	-5.04	-11.9	-12.88	0.1147	0.2059	-0.3894	
-0.480558	-0.657946	0.550586	-8.68	-16.03	-16.45	0.1089	0.2074	-0.3939	
-0.460062	-0.669414	0.537532	-10.43	-14.56	-19.18	0.1103	0.2166	-0.3862	
-0.427122	-0.668682	0.52216	-12.04	-10.64	-21.7	0.0972	0.2198	-0.386	
-0.435052	-0.68076	0.503616	-13.09	-7.28	-25.2	0.09429999	0.2198	-0.389	
-0.434198	-0.684298	0.506056	-14	-6.3	-27.58	0.0986	0.2137	-0.3815	
-0.435906	-0.691374	0.49105	-14.7	-6.58	-29.96	0.0929	0.2167	-0.3875	
-0.427976	-0.702476	0.499224	-15.47	-7.49	-32.76	0.0768	0.2245	-0.3842	
-0.411018	-0.730536	0.493734	-15.96	-10.15	-34.51	0.08109999	0.2337	-0.3826	
-0.387106	-0.742126	0.482632	-16.24	-10.36	-35.63	0.0753	0.2292	-0.3811	
-0.397476	-0.75579	0.47397	-16.87	-8.82	-37.8	0.068	0.2262	-0.3734	
-0.407358	-0.768356	0.483974	-18.48	-10.29	-40.11	0.0623	0.2384	-0.3824	
-0.387472	-0.773968	0.480436	-19.53	-12.88	-40.81	0.0608	0.2354	-0.3809	
-0.328668	-0.747006	0.465064	-20.51	-14.28	-40.18	0.0491	0.2462	-0.3761	
-0.319762	-0.77104	0.446398	-21.91	-11.48	-43.47	0.0505	0.2462	-0.373	
-0.341478	-0.787876	0.446642	-22.68	-10.29	-46.48	0.0461	0.2524	-0.3744	
-0.352458	-0.81984	0.45933	-24.22	-13.93	-49.98	0.0346	0.2509	-0.3744	
-0.272426	-0.823256	0.429318	-23.87	-21.07	-50.61	0.033	0.2572	-0.3621	
-0.228506	-0.82167	0.404186	-25.34	-20.02	-51.45	0.014	0.265	-0.3572	
-0.201788	-0.830576	0.401258	-26.25	-18.9	-54.53	0.0155	0.2665	-0.3587	
-0.191906	-0.83387	0.381616	-26.25	-17.29	-57.89	0.0067	0.2713	-0.3495	
-0.172386	-0.820084	0.374784	-26.32	-18.62	-61.95	-0.0062	0.2713	-0.357	
-0.148596	-0.845338	0.376736	-25.9	-20.23	-66.36	-0.0064	0.2805	-0.3477	
-0.128222	-0.86376	0.364414	-24.71	-20.09	-67.69	-0.031	0.2792	-0.3414	
-0.113826	-0.88633	0.350872	-23.38	-21.14	-69.3	-0.0382	0.2746	-0.3459	
-0.127002	-0.902312	0.322202	-21.77	-22.89	-71.47	-0.0455	0.2839	-0.3473	
-0.09516	-0.892796	0.299876	-21	-29.19	-72.8	-0.0455	0.2823	-0.3488	
-0.022326	-0.872666	0.323544	-20.93	-36.19	-72.94	-0.063	0.2917	-0.3409	
0.018178	-0.8662	0.32879	-21.14	-35.56	-74.27	-0.0818	0.2842	-0.3424	
0.025132	-0.882304	0.287676	-21.07	-33.32	-77.91	-0.09209999	0.2889	-0.3315	
0.070028	-0.888648	0.295362	-19.74	-38.29	-78.89	-0.0992	0.2843	-0.3361	
0.137006	-0.847778	0.305244	-17.71	-40.46	-78.05	-0.1225	0.2755	-0.3222	
0.177876	-0.844728	0.296704	-17.08	-37.94	-80.78	-0.1312	0.2832	-0.3236	
0.203618	-0.868152	0.30683	-17.29	-36.75	-82.81	-0.1356	0.2832	-0.3235	
0.22692	-0.882304	0.315492	-16.94	-33.81	-82.74	-0.1602	0.2757	-0.3203	
0.272792	-0.874252	0.281942	-15.54	-30.66	-80.78	-0.166	0.2712	-0.3188	
0.342088	-0.86193	0.307074	-14.91	-30.94	-79.03	-0.1821	0.273	-0.3019	
0.377468	-0.86437	0.27877	-13.16	-23.45	-79.94	-0.1835	0.267	-0.3004	
0.395768	-0.868884	0.262178	-10.5	-20.16	-80.78	-0.2082	0.2626	-0.2987	
0.41785	-0.854	0.26413	-8.75	-20.93	-80.85	-0.2082	0.2641	-0.2971	
0.399184	-0.888404	0.24949	-6.44	-19.88	-81.34	-0.211	0.258	-0.2957	
0.439322	-0.889746	0.245952	-3.64	-24.57	-75.46	-0.2256	0.2536	-0.291	
0.501298	-0.831796	0.260226	-2.8	-26.32	-67.41	-0.2502	0.2447	-0.2832	
0.512644	-0.812398	0.257786	-3.5	-23.87	-63.28	-0.2458	0.24	-0.2833	
0.527528	-0.834358	0.244976	-3.64	-25.97	-62.23	-0.2587	0.2369	-0.3	
0.536312	-0.790804	0.23058	-3.99	-22.96	-56.28	-0.2587	0.2157	-0.2835	
0.563274	-0.782142	0.223626	-4.55	-25.55	-54.46	-0.2689	0.2173	-0.2773	
0.608902	-0.7686	0.253882	-3.99	-28.84	-50.26	-0.2791	0.2219	-0.2817	
0.625006	-0.770918	0.210572	-2.17	-22.4	-49.35	-0.2921	0.216	-0.2771	
0.607804	-0.739564	0.223382	-1.61	-24.5	-46.62	-0.3008	0.2069	-0.2679	
0.611098	-0.732244	0.19093	-1.12	-25.97	-42.56	-0.3022	0.1947	-0.2681	
0.628544	-0.717604	0.191296	-1.54	-28.28	-40.11	-0.3065	0.1947	-0.2711	
0.669536	-0.718214	0.197396	-1.26	-30.31	-40.67	-0.3183	0.195	-0.2542	
0.72712	-0.713212	0.241682	-0.63	-30.52	-40.81	-0.3197	0.1934	-0.2618	
0.761402	-0.697962	0.22936	1.54	-25.48	-40.95	-0.337	0.1783	-0.2572	
0.7747	-0.67832	0.228994	2.31	-18.48	-40.39	-0.3328	0.186	-0.248	
0.731146	-0.686372	0.18849	2.73	-12.74	-41.16	-0.3371	0.1829	-0.2496	
0.746762	-0.67588	0.194224	-0.91	-14.07	-37.45	-0.3414	0.1662	-0.2451	
0.779214	-0.717848	0.212158	-1.33	-14.98	-35.91	-0.3471	0.1662	-0.2512	
0.823988	-0.714188	0.231434	1.89	-12.11	-31.64	-0.3544	0.1633	-0.242	
0.806298	-0.661606	0.228506	5.67	-3.22	-26.25	-0.3557	0.1464	-0.2483	
0.768356	-0.628788	0.18361	6.09	3.36	-20.93	-0.35	0.154	-0.2482	
0.749934	-0.62342	0.186416	2.59	2.8	-18.83	-0.3586	0.1525	-0.2497	
0.762012	-0.656604	0.173972	1.68	4.83	-18.69	-0.3528	0.1463	-0.2529	
0.724558	-0.662216	0.167018	4.06	5.18	-14.49	-0.363	0.1434	-0.2421	
0.731634	-0.635376	0.176534	4.83	0.49	-11.13	-0.3557	0.1403	-0.2453	
0.735172	-0.597678	0.189588	3.15	-2.45	-8.96	-0.3572	0.1418	-0.2468	
0.776652	-0.61366	0.204472	0.21	-4.62	-11.69	-0.3615	0.1449	-0.2482	
0.849608	-0.651358	0.262056	-1.54	-7.21	-13.93	-0.3572	0.1282	-0.2347	
0.809714	-0.668072	0.233508	0.84	2.66	-9.31	-0.3572	0.1388	-0.2422	
0.76067	-0.669292	0.218258	1.19	5.74	-2.45	-0.3601	0.1389	-0.2376	
0.803492	-0.64355	0.23546	-0.98	6.37	5.67	-0.3601	0.1389	-0.2376	
0.802028	-0.652822	0.23302	-2.59	7.21	10.57	-0.3557	0.1402	-0.2514	
0.797148	-0.680028	0.239608	-1.26	8.12	14.77	-0.3585	0.125	-0.2485	
0.82167	-0.655628	0.267912	0.7	10.85	21.42	-0.3572	0.1449	-0.2483	
0.862906	-0.622078	0.275964	0.63	13.02	26.11	-0.35	0.151	-0.2437	
0.812642	-0.640744	0.250344	0.77	19.88	27.23	-0.35	0.1524	-0.2498	
0.72895	-0.656604	0.23729	2.1	23.45	31.64	-0.35	0.1524	-0.2498	
0.684176	-0.647942	0.18971	2.59	20.79	39.76	-0.3425	0.1401	-0.2591	
0.72041	-0.638182	0.237046	0.07	13.65	43.61	-0.3412	0.1569	-0.2574	
0.71675	-0.645136	0.249368	0.91	15.82	46.2	-0.3311	0.1614	-0.2605	
0.707722	-0.642696	0.258762	-0.35	16.24	47.39	-0.318	0.1704	-0.2636	
0.71431	-0.681736	0.259006	-3.5	16.03	48.02	-0.3223	0.1704	-0.2697	
0.701012	-0.692472	0.219112	-5.11	19.53	52.99	-0.321	0.1766	-0.2605	
0.62708	-0.714432	0.184464	-6.37	21.84	57.54	-0.3065	0.1871	-0.2727	
0.587552	-0.769698	0.165554	-6.65	14.63	59.15	-0.3124	0.1948	-0.2695	
0.598654	-0.798246	0.221064	-5.39	6.51	61.74	-0.3021	0.1961	-0.2772	
0.605608	-0.801418	0.267058	-1.19	8.75	64.75	-0.2949	0.2067	-0.2848	
0.581452	-0.76616	0.245952	2.45	17.92	70	-0.2878	0.2145	-0.2725	
0.557052	-0.747616	0.206668	1.47	20.79	71.96	-0.2805	0.2219	-0.2817	
0.554856	-0.812032	0.237656	-0.7	17.99	68.11	-0.2747	0.225	-0.2817	
0.54839	-0.869372	0.269498	1.82	21.7	68.74	-0.2646	0.2371	-0.2878	
0.531188	-0.872666	0.287188	6.3	28.63	73.57	-0.2486	0.2414	-0.2985	
0.484828	-0.873276	0.255956	9.8	39.9	78.19	-0.2443	0.2323	-0.2911	
0.428098	-0.878644	0.263886	11.83	45.22	80.29	-0.2342	0.246	-0.2895	
0.390522	-0.878888	0.270718	14.21	46.83	84.98	-0.2153	0.261	-0.3047	
0.33367	-0.873886	0.27511	17.22	45.92	85.4	-0.1964	0.2623	-0.3171	
0.268034	-0.869372	0.263764	19.39	45.43	85.33	-0.1747	0.2728	-0.3157	
0.192516	-0.853268	0.224968	19.74	43.89	87.15	-0.163	0.2635	-0.322	
0.152988	-0.893284	0.265594	17.92	30.03	84.98	-0.1529	0.2726	-0.322	
0.125904	-0.926712	0.306098	20.72	20.23	85.96	-0.1516	0.2803	-0.3189	
0.118218	-0.91134	0.335012	24.64	15.54	88.9	-0.1282	0.2785	-0.3298	
0.090646	-0.867908	0.303048	25.06	18.13	89.46	-0.1123	0.2844	-0.3375	
0.044652	-0.834236	0.311466	21.84	18.41	88.34	-0.1006	0.2781	-0.3438	
-0.004758	-0.842532	0.336354	18.34	19.6	83.3	-0.1006	0.2736	-0.3392	
-0.025742	-0.864858	0.391132	17.15	15.33	80.71	-0.0759	0.2657	-0.3441	
-0.016958	-0.855464	0.435662	18.27	17.29	78.75	-0.0803	0.2811	-0.3394	
-0.020252	-0.847656	0.445178	19.32	22.47	74.9	-0.0702	0.2841	-0.344	
-0.052338	-0.821792	0.429928	20.16	28	71.89	-0.0571	0.2839	-0.3502	
-0.112972	-0.767868	0.37088	16.73	32.69	67.97	-0.0424	0.273	-0.3627	
-0.158844	-0.801296	0.399794	10.71	23.03	59.22	-0.0396	0.2685	-0.3475	
-0.15128	-0.840336	0.446276	10.29	20.37	54.67	-0.0236	0.2713	-0.3598	
-0.157258	-0.86559	0.465674	12.95	24.57	51.8	-0.0119	0.2712	-0.366	
-0.155184	-0.838018	0.47885	15.47	30.1	51.8	-0.0077	0.2758	-0.3584	
-0.167994	-0.815326	0.44774	16.31	38.36	49.28	0.0038	0.2636	-0.351	
-0.224236	-0.79727	0.409432	15.82	46.83	46.13	0.0083	0.2573	-0.3634	
-0.255346	-0.834358	0.410896	15.4	45.78	43.47	0.0329	0.2663	-0.365	
-0.276086	-0.856684	0.421876	17.01	44.87	44.03	0.0329	0.2603	-0.359	
-0.308416	-0.836188	0.4026	15.68	41.72	45.57	0.0431	0.2616	-0.3682	
-0.31598	-0.817766	0.423462	14.28	33.11	46.41	0.0577	0.2539	-0.3684	
-0.33184	-0.80398	0.413092	11.97	29.75	46.83	0.0664	0.2508	-0.3686	
-0.338794	-0.768722	0.415532	9.31	26.32	46.76	0.0605	0.2524	-0.3639	
-0.376736	-0.78873	0.41724	9.31	26.25	43.26	0.0852	0.2491	-0.3657	
-0.402356	-0.793976	0.4026	10.15	27.58	40.6	0.0867	0.2476	-0.3673	
-0.435784	-0.788242	0.394548	11.34	25.55	37.94	0.0969	0.2429	-0.3674	
-0.471896	-0.788608	0.405406	11.55	22.75	36.26	0.0954	0.2445	-0.3643	
-0.484218	-0.79544	0.409676	12.67	20.02	35.63	0.1071	0.2458	-0.3782	
-0.476288	-0.761768	0.402356	12.32	15.61	36.19	0.1259	0.2351	-0.3708	
-0.490928	-0.733464	0.397842	12.11	14.49	33.95	0.126	0.2335	-0.3724	
-0.493856	-0.72102	0.405528	12.67	11.41	31.71	0.1318	0.2303	-0.3786	
-0.498004	-0.706624	0.418948	13.3	10.5	27.65	0.1362	0.2227	-0.3741	
-0.51972	-0.706624	0.428342	13.3	10.57	24.29	0.1463	0.2228	-0.3651	
-0.535824	-0.701988	0.43859	12.46	7.98	22.61	0.1507	0.2165	-0.3759	
-0.533262	-0.703208	0.449326	11.2	5.46	21.63	0.1377	0.2136	-0.3697	
-0.527406	-0.692228	0.447984	10.85	5.53	20.65	0.1465	0.2149	-0.3865	
-0.543388	-0.680638	0.453474	11.06	8.26	17.36	0.1363	0.2165	-0.3834	
-0.560224	-0.67283	0.450912	10.43	7.98	14.14	0.1493	0.2104	-0.3775	
-0.555954	-0.665876	0.469334	10.64	5.88	12.39	0.1479	0.2104	-0.3729	
-0.569618	-0.657702	0.46421	9.66	4.69	10.15	0.1581	0.2026	-0.3792	
-0.562664	-0.660996	0.474092	8.26	1.19	9.24	0.1537	0.2043	-0.373	
-0.550708	-0.662704	0.47519	7.42	0.77	7.7	0.1508	0.2103	-0.3805	
-0.543144	-0.652456	0.480558	5.6	0.63	5.25	0.148	0.1997	-0.3791	
-0.542412	-0.651358	0.47946	5.04	0.77	3.57	0.1568	0.1949	-0.3884	
-0.56669	-0.646966	0.479338	5.18	1.33	1.75	0.1494	0.1966	-0.3791	
-0.611708	-0.641476	0.463722	4.06	1.12	-0.7	0.1452	0.1904	-0.3837	
-0.60024	-0.637938	0.473848	3.01	-5.32	-2.87	0.1495	0.1965	-0.3837	
-0.595604	-0.623298	0.49715	1.54	-10.29	-5.6	0.1451	0.1951	-0.3745	
-0.583526	-0.621712	0.499956	0.21	-13.09	-9.8	0.1481	0.192	-0.3822	
-0.55022	-0.61427	0.497516	-2.03	-14.21	-14	0.1437	0.2027	-0.3851	
-0.513742	-0.62769	0.51972	-4.62	-13.58	-17.5	0.1422	0.2027	-0.3851	
-0.527894	-0.64782	0.501054	-6.79	-9.94	-21.35	0.1408	0.1981	-0.3851	
-0.526674	-0.648796	0.487024	-8.89	-9.59	-23.94	0.1335	0.1952	-0.3775	
-0.529602	-0.673196	0.4819	-9.59	-9.87	-26.81	0.1291	0.2105	-0.3818	
-0.521062	-0.685884	0.471896	-8.89	-11.55	-28.49	0.1263	0.1982	-0.3835	
-0.519476	-0.699914	0.448838	-7.77	-13.44	-29.61	0.1319	0.2136	-0.3757	
-0.493734	-0.675392	0.456036	-8.89	-16.73	-29.75	0.1233	0.2196	-0.3862	
-0.494832	-0.686494	0.500444	-12.95	-19.74	-32.2	0.1175	0.2091	-0.3772	
-0.486658	-0.708332	0.497638	-17.85	-22.26	-37.38	0.0986	0.2214	-0.3814	
-0.46787	-0.723216	0.457256	-19.18	-24.15	-39.48	0.0985	0.226	-0.3798	
-0.465674	-0.729194	0.41907	-20.23	-23.24	-42.49	0.0927	0.2291	-0.3782	
-0.474946	-0.736026	0.392474	-20.79	-26.39	-46.76	0.0854	0.2338	-0.3735	
-0.444446	-0.732244	0.408334	-21.7	-34.58	-50.61	0.0782	0.2307	-0.3781	
-0.400038	-0.731878	0.4209	-22.75	-38.78	-54.25	0.07229999	0.2446	-0.3717	
-0.339892	-0.749934	0.442616	-23.66	-43.26	-57.61	0.0505	0.2417	-0.3716	
-0.296582	-0.757254	0.430538	-24.57	-40.11	-61.6	0.0375	0.2508	-0.382	
-0.284504	-0.769698	0.404796	-25.41	-37.1	-66.43	0.0317	0.2509	-0.3774	
-0.29158	-0.796782	0.384178	-25.83	-36.96	-71.47	0.0229	0.2542	-0.3651	
-0.277428	-0.813618	0.366976	-24.43	-40.11	-73.22	0.0098	0.2588	-0.371	
-0.24217	-0.808494	0.372466	-22.82	-46.34	-72.38	-0.0076	0.2651	-0.3601	
-0.198372	-0.788974	0.383446	-23.38	-50.47	-71.96	-0.0322	0.2637	-0.3614	
-0.14701	-0.79727	0.410652	-25.41	-54.04	-74.41	-0.0294	0.2638	-0.3553	
-0.120292	-0.83875	0.397964	-26.25	-52.99	-78.89	-0.0512	0.2792	-0.3564	
-0.064172	-0.825086	0.385154	-26.6	-54.88	-78.61	-0.0497	0.267	-0.3535	
0.032086	-0.856196	0.377956	-27.51	-54.6	-81.13	-0.0831	0.278	-0.3485	
0.127978	-0.828868	0.403942	-26.6	-52.71	-80.15	-0.0876	0.2796	-0.3423	
0.176412	-0.799588	0.382714	-25.13	-41.93	-83.86	-0.1094	0.2722	-0.3315	
0.194346	-0.826184	0.352824	-24.78	-32.69	-90.02	-0.121	0.2739	-0.3284	
0.196786	-0.853634	0.34892	-23.17	-28.21	-93.1	-0.1283	0.2755	-0.3237	
0.204594	-0.834846	0.332084	-21.98	-25.06	-91.91	-0.1442	0.274	-0.3266	
0.288774	-0.868274	0.378444	-22.82	-32.06	-89.32	-0.1559	0.2727	-0.3143	
0.364536	-0.858148	0.40626	-22.4	-32.13	-87.78	-0.1689	0.2698	-0.3142	
0.403454	-0.850828	0.353312	-22.26	-27.02	-86.73	-0.182	0.2653	-0.3096	
0.406626	-0.85278	0.321836	-23.24	-20.23	-86.59	-0.1834	0.2562	-0.3051	
0.364414	-0.882304	0.308172	-23.1	-16.17	-85.47	-0.208	0.2518	-0.3049	
0.380762	-0.904996	0.292068	-20.23	-18.06	-80.22	-0.2167	0.2488	-0.3018	
0.418826	-0.881328	0.32086	-15.89	-19.95	-72.03	-0.2198	0.2566	-0.288	
0.439444	-0.85827	0.318054	-12.04	-18.62	-65.1	-0.2312	0.2413	-0.3002	
0.488366	-0.846802	0.288896	-11.69	-19.53	-59.15	-0.2342	0.246	-0.294	
0.461038	-0.841922	0.266814	-9.73	-16.87	-55.02	-0.2443	0.2339	-0.288	
0.470432	-0.836676	0.240218	-9.24	-21.63	-49.98	-0.2574	0.2401	-0.2863	
0.542534	-0.826794	0.265838	-10.22	-27.93	-43.54	-0.2618	0.2326	-0.2756	
0.56913	-0.829478	0.279014	-7.07	-25.83	-41.79	-0.2704	0.2189	-0.2772	
0.554978	-0.798368	0.243024	-2.94	-22.05	-37.66	-0.2777	0.2251	-0.271	
0.547658	-0.783606	0.217282	-2.03	-23.1	-37.73	-0.282	0.2235	-0.2771	
0.550708	-0.782142	0.215818	-2.59	-24.57	-37.66	-0.2835	0.2099	-0.2696	
0.580964	-0.760792	0.235338	-4.06	-27.65	-36.26	-0.2965	0.216	-0.274	
0.583282	-0.750544	0.20557	-3.85	-26.11	-33.11	-0.3024	0.2162	-0.2648	
0.584746	-0.74908	0.19764	-4.69	-28.49	-31.29	-0.3081	0.204	-0.2618	
0.61244	-0.734074	0.21167	-4.55	-29.82	-30.45	-0.3197	0.1904	-0.2588	
0.633058	-0.723216	0.225456	-4.9	-29.33	-31.85	-0.3154	0.1965	-0.2527	
0.667218	-0.751154	0.225212	-4.83	-28	-35.98	-0.3169	0.1965	-0.2511	
0.63135	-0.786656	0.193004	-2.38	-22.61	-36.4	-0.3271	0.1876	-0.2344	
0.61061	-0.761158	0.173606	-1.96	-22.12	-30.94	-0.33	0.1907	-0.2389	
0.640012	-0.747616	0.150914	-2.52	-24.71	-27.51	-0.3342	0.1799	-0.2466	
0.700036	-0.750056	0.177144	-5.46	-30.03	-26.6	-0.3415	0.1739	-0.2389	
0.70943	-0.752984	0.210938	-4.83	-28.84	-26.53	-0.3532	0.1878	-0.2356	
0.711992	-0.734806	0.202154	-4.13	-24.78	-23.94	-0.3489	0.1802	-0.2281	
0.716994	-0.729804	0.194712	-4.2	-18.9	-20.02	-0.3575	0.1802	-0.2341	
0.714066	-0.718092	0.180072	-3.85	-14	-16.1	-0.3518	0.1741	-0.2251	
0.700524	-0.716506	0.140422	-3.71	-9.87	-12.74	-0.3489	0.1803	-0.2236	
0.695278	-0.71126	0.125904	-3.71	-9.66	-10.01	-0.3561	0.1711	-0.2251	
0.687348	-0.742492	0.146156	-2.59	-10.57	-10.36	-0.3518	0.159	-0.2162	
0.728706	-0.71614	0.143594	-1.26	-9.45	-6.23	-0.3562	0.1713	-0.2114	
0.737734	-0.7015	0.147742	-0.56	-8.4	-5.6	-0.3604	0.1635	-0.2267	
0.72773	-0.696498	0.137006	0.21	-4.62	-3.92	-0.3633	0.1605	-0.2221	
0.725778	-0.703696	0.128344	0.35	-3.01	-3.22	-0.3648	0.159	-0.2191	
0.759694	-0.701988	0.153476	-0.21	-4.48	-2.45	-0.3576	0.1621	-0.2145	
0.767502	-0.707722	0.176778	-0.07	-1.82	-2.03	-0.3619	0.1636	-0.2206	
0.75823	-0.708576	0.159454	0.14	3.78	0.42	-0.3604	0.1651	-0.2221	
0.738832	-0.691008	0.124806	-1.96	8.61	3.43	-0.3634	0.1667	-0.2144	
0.727242	-0.718336	0.127002	-2.59	8.61	3.85	-0.3633	0.1605	-0.2252	
0.72651	-0.740052	0.137128	-0.84	7	7.42	-0.359	0.1681	-0.2236	
0.746518	-0.722362	0.151158	2.03	6.65	11.9	-0.3692	0.1546	-0.2084	
0.74359	-0.702476	0.163114	4.55	10.15	15.96	-0.3604	0.1681	-0.2266	
0.744444	-0.694912	0.16043	5.39	12.39	18.97	-0.3444	0.1679	-0.2283	
0.742614	-0.685762	0.182268	5.6	13.79	20.51	-0.3503	0.1727	-0.2206	
0.72468	-0.693692	0.172264	6.44	15.75	21.07	-0.3474	0.1786	-0.2297	
0.712846	-0.71431	0.161162	7.49	16.66	22.75	-0.346	0.1787	-0.2236	
0.715042	-0.73383	0.166286	8.75	16.38	24.99	-0.34	0.1739	-0.2405	
0.730292	-0.722362	0.19093	9.45	16.8	27.79	-0.3415	0.1739	-0.2359	
0.722728	-0.716506	0.191296	9.8	20.16	30.1	-0.3329	0.1921	-0.2434	
0.707112	-0.701622	0.178242	9.17	22.33	31.92	-0.3284	0.186	-0.2481	
0.668438	-0.73322	0.160186	9.1	23.66	31.85	-0.3241	0.1829	-0.2482	
0.663192	-0.754936	0.180072	9.66	22.89	34.37	-0.3213	0.2012	-0.2495	
0.672708	-0.773602	0.215452	10.22	22.47	36.96	-0.324	0.198	-0.2632	
0.651968	-0.783362	0.22997	10.99	29.19	44.66	-0.3111	0.2056	-0.2557	
0.634888	-0.764208	0.210938	8.75	33.53	52.01	-0.3096	0.2025	-0.2633	
0.608902	-0.767014	0.21716	6.09	33.32	55.02	-0.2994	0.2084	-0.2695	
0.581574	-0.79788	0.21838	4.97	31.57	56.49	-0.2921	0.2145	-0.274	
0.563518	-0.826428	0.239974	6.3	30.87	58.8	-0.2835	0.216	-0.2695	
0.54839	-0.86254	0.250466	10.78	32.06	60.48	-0.2777	0.2189	-0.2756	
0.50996	-0.85705	0.246806	14.56	36.82	66.29	-0.2676	0.2235	-0.2742	
0.485438	-0.833504	0.224724	16.87	38.64	72.24	-0.2458	0.2355	-0.2819	
0.442738	-0.814594	0.227896	17.36	40.6	73.92	-0.2501	0.2338	-0.2925	
0.409798	-0.8113	0.25559	14.21	37.73	74.06	-0.2283	0.2397	-0.2988	
0.397232	-0.835456	0.320494	13.58	34.16	70.56	-0.2225	0.2519	-0.3017	
0.354532	-0.860588	0.331962	16.66	39.2	69.79	-0.2168	0.2534	-0.3018	
0.322934	-0.859368	0.340014	18.34	43.4	73.15	-0.208	0.2563	-0.311	
0.28182	-0.868152	0.373076	17.92	44.87	73.22	-0.1936	0.2654	-0.311	
0.234728	-0.88206	0.368684	17.01	47.32	74.34	-0.1731	0.2544	-0.322	
0.208864	-0.88999	0.377224	17.22	48.51	75.53	-0.1659	0.2681	-0.3234	
0.16226	-0.885354	0.381982	18.34	55.23	78.82	-0.1398	0.2663	-0.3298	
0.12688	-0.868762	0.379542	16.87	54.74	80.92	-0.1223	0.263	-0.3392	
0.075274	-0.844484	0.355264	15.75	53.48	81.62	-0.1107	0.2661	-0.3362	
0.014762	-0.836798	0.354654	14	49.21	83.51	-0.0874	0.2658	-0.3486	
-0.017324	-0.841434	0.351604	13.72	43.12	85.05	-0.0816	0.2657	-0.3532	
-0.065514	-0.842776	0.353678	15.89	39.27	84.14	-0.0641	0.2518	-0.3551	
-0.097356	-0.825208	0.373564	18.55	32.27	83.58	-0.0483	0.2761	-0.355	
-0.111508	-0.832528	0.371978	21.28	29.61	81.55	-0.041	0.2699	-0.3597	
-0.109678	-0.820938	0.394182	21.91	27.09	83.3	-0.0309	0.2715	-0.3521	
-0.119072	-0.783606	0.425902	21.63	29.26	82.74	-0.0149	0.2682	-0.36	
-0.1769	-0.761036	0.401502	18.76	32.34	77.14	-0.0105	0.2681	-0.3661	
-0.246806	-0.770552	0.398452	16.24	28.77	70.49	0.0098	0.2557	-0.368	
-0.266936	-0.809836	0.43798	16.59	19.74	64.61	0.0186	0.2556	-0.3757	
-0.230092	-0.832772	0.472262	18.34	16.03	62.79	0.0201	0.2494	-0.3803	
-0.202886	-0.797514	0.46238	18.83	22.05	60.62	0.0287	0.2495	-0.3652	
-0.26108	-0.768722	0.446398	17.08	31.01	53.9	0.0346	0.2508	-0.3805	
-0.291336	-0.74542	0.457378	14.28	30.31	50.54	0.0519	0.2432	-0.3685	
-0.320006	-0.754082	0.46482	12.81	28.98	46.83	0.0477	0.2432	-0.3761	
-0.341478	-0.77226	0.45933	13.72	28	43.05	0.0708	0.2476	-0.3778	
-0.355996	-0.766892	0.456524	15.33	28	41.02	0.0696	0.2322	-0.3841	
-0.399916	-0.757254	0.442128	15.05	28.56	39.69	0.0812	0.2291	-0.3857	
-0.417972	-0.749568	0.448838	13.51	26.11	38.92	0.0854	0.2307	-0.3736	
-0.4453	-0.753472	0.459208	13.58	24.71	36.26	0.0942	0.2351	-0.3843	
-0.509228	-0.757376	0.438346	13.86	25.2	33.25	0.0986	0.2198	-0.3814	
-0.528504	-0.730536	0.420412	13.16	17.99	32.76	0.1058	0.2244	-0.3814	
-0.498492	-0.70699	0.445422	11.69	8.82	32.13	0.1059	0.2197	-0.3922	
-0.511058	-0.722606	0.466284	11.13	7.77	28.7	0.116	0.2228	-0.38	
-0.510936	-0.704062	0.463478	10.64	6.72	27.09	0.1205	0.215	-0.3908	
-0.518744	-0.694912	0.468236	9.1	6.44	26.11	0.1262	0.212	-0.3818	
-0.522526	-0.684908	0.470188	8.89	7.14	23.87	0.1234	0.2074	-0.3879	
-0.53131	-0.67161	0.46421	8.82	8.47	21.07	0.1306	0.2073	-0.391	
-0.537654	-0.671976	0.478362	10.36	5.32	16.8	0.135	0.2027	-0.3896	
-0.55144	-0.66185	0.47885	9.87	7.14	15.33	0.1292	0.2028	-0.3834	
-0.543998	-0.654652	0.483974	10.15	6.72	14.28	0.1378	0.2073	-0.382	
-0.552904	-0.635376	0.492148	9.52	6.93	12.25	0.1394	0.1981	-0.3866	
-0.58011	-0.634156	0.492392	9.66	5.6	9.45	0.1452	0.195	-0.3852	
-0.58987	-0.620614	0.488854	8.89	0.98	6.58	0.1524	0.1934	-0.3853	
-0.57096	-0.609146	0.492392	5.95	-5.39	4.69	0.1481	0.1858	-0.3884	
-0.560224	-0.613416	0.518622	3.08	-5.88	1.61	0.1466	0.1935	-0.3868	
-0.561322	-0.615246	0.544364	1.61	-4.83	-1.47	0.1408	0.1935	-0.3867	
-0.57157	-0.60634	0.544364	0.7	-3.64	-5.25	0.1438	0.1919	-0.3883	
-0.580842	-0.595848	0.535092	-1.26	-3.43	-8.12	0.1408	0.1981	-0.3882	
-0.594506	-0.600606	0.526552	-3.92	-4.41	-10.99	0.1322	0.1875	-0.3852	
-0.568642	-0.618418	0.520574	-5.04	-7.35	-13.37	0.1336	0.198	-0.3957	
-0.555588	-0.609146	0.52521	-5.67	-9.03	-16.31	0.1335	0.1982	-0.3851	
-0.549244	-0.616222	0.520452	-6.65	-9.24	-19.67	0.1307	0.1905	-0.3897	
-0.561688	-0.627934	0.523258	-8.05	-9.31	-24.43	0.1336	0.2042	-0.3911	
-0.569496	-0.62586	0.508984	-9.73	-11.9	-27.58	0.1279	0.195	-0.3957	
-0.571814	-0.63806	0.493002	-12.32	-15.89	-30.8	0.1262	0.2135	-0.3863	
-0.547536	-0.654408	0.484462	-14.21	-21.77	-33.67	0.1162	0.1967	-0.3895	
-0.515816	-0.655994	0.482998	-16.31	-25.76	-35.91	0.1162	0.2073	-0.3939	
-0.485438	-0.678564	0.476898	-18.2	-26.39	-39.9	0.1001	0.2121	-0.3861	
-0.480924	-0.6954	0.457134	-20.02	-25.76	-44.38	0.0972	0.2137	-0.383	
-0.443714	-0.703452	0.466284	-21.14	-28.35	-47.39	0.08419999	0.2214	-0.3889	
-0.41785	-0.706624	0.465308	-21.77	-28.14	-50.05	0.0813	0.2244	-0.3965	
-0.392352	-0.709918	0.457744	-23.38	-28.84	-52.92	0.0769	0.226	-0.3872	
-0.35075	-0.724924	0.467748	-24.08	-31.71	-56.07	0.07099999	0.2338	-0.3795	
-0.304756	-0.739198	0.458232	-24.36	-30.31	-59.78	0.0536	0.2384	-0.3854	
-0.302438	-0.762866	0.459818	-24.22	-26.81	-63.7	0.0477	0.2477	-0.3821	
-0.305244	-0.798368	0.441762	-23.45	-26.81	-66.64	0.0419	0.2508	-0.379	
-0.294264	-0.796538	0.42517	-23.52	-28.28	-66.85	0.036	0.2463	-0.3714	
-0.251442	-0.787022	0.408456	-24.5	-32.13	-67.34	0.0186	0.251	-0.3727	
-0.155428	-0.814716	0.4148	-25.83	-39.83	-72.73	-0.0074	0.2512	-0.3709	
-0.11407	-0.829966	0.430538	-25.41	-41.58	-75.6	-0.0119	0.2605	-0.3662	
-0.066978	-0.83265	0.422486	-25.48	-40.11	-77.49	-0.0351	0.2637	-0.3659	
-0.04453	-0.853146	0.382836	-26.11	-35.91	-80.64	-0.0496	0.2684	-0.3627	
-0.003294	-0.857904	0.366976	-26.81	-36.33	-82.18	-0.0555	0.2731	-0.358	
0.017446	-0.844484	0.368562	-25.76	-36.33	-83.79	-0.0656	0.2732	-0.3579	
0.017568	-0.865102	0.32574	-23.17	-34.86	-86.66	-0.0859	0.2657	-0.3501	
0.057584	-0.821304	0.321958	-20.44	-41.23	-84.98	-0.1006	0.2736	-0.3423	
0.124684	-0.819962	0.350262	-20.09	-46.83	-86.1	-0.1078	0.2675	-0.3392	
0.166652	-0.828258	0.355874	-20.72	-47.6	-86.8	-0.1266	0.263	-0.3422	
0.242658	-0.854976	0.355386	-21.84	-43.26	-89.04	-0.131	0.2677	-0.3344	
0.278404	-0.902434	0.38064	-19.25	-36.89	-92.26	-0.1542	0.2558	-0.3252	
0.283406	-0.894992	0.35136	-15.54	-25.55	-89.18	-0.1631	0.2651	-0.3159	
0.295606	-0.89914	0.313906	-13.16	-21	-85.68	-0.1731	0.259	-0.3204	
0.308294	-0.880474	0.317444	-11.9	-21.63	-82.04	-0.1905	0.2531	-0.3157	
0.346968	-0.866444	0.328668	-11.97	-26.25	-77.21	-0.1991	0.2393	-0.3219	
0.424316	-0.860344	0.370148	-10.36	-25.76	-72.38	-0.2021	0.2485	-0.3202	
0.4453	-0.852902	0.333182	-7.98	-19.95	-69.72	-0.2093	0.2318	-0.3127	
0.449448	-0.829722	0.31903	-7.28	-14.63	-65.73	-0.2239	0.2366	-0.3049	
0.456646	-0.82594	0.302316	-6.93	-13.93	-63.42	-0.234	0.2305	-0.3049	
0.478118	-0.821914	0.283406	-6.72	-16.31	-60.48	-0.2411	0.2259	-0.3125	
0.493734	-0.830942	0.285724	-5.88	-21.98	-59.57	-0.2412	0.2229	-0.3064	
0.496662	-0.842532	0.287676	-3.85	-24.64	-57.89	-0.247	0.2185	-0.2958	
0.515084	-0.820572	0.286944	-2.1	-24.71	-53.2	-0.2601	0.214	-0.2926	
0.542778	-0.794952	0.294752	-0.21	-24.22	-49	-0.2701	0.2064	-0.2972	
0.567422	-0.77043	0.268156	1.33	-21.91	-47.04	-0.2702	0.2065	-0.2926	
0.56425	-0.761524	0.254492	2.38	-21.49	-45.15	-0.2817	0.202	-0.2926	
0.57828	-0.756522	0.253394	2.59	-23.73	-43.61	-0.2818	0.1944	-0.2805	
0.61183	-0.759084	0.269132	3.5	-26.25	-41.37	-0.2963	0.1914	-0.2834	
0.646844	-0.747982	0.294386	5.81	-25.41	-39.41	-0.289	0.1868	-0.282	
0.66429	-0.733464	0.286212	8.26	-21.35	-37.03	-0.305	0.1809	-0.2728	
0.66246	-0.7015	0.271816	8.26	-17.71	-36.26	-0.3092	0.1686	-0.282	
0.64416	-0.715652	0.25864	7.7	-15.26	-36.96	-0.3194	0.1672	-0.2774	
0.63501	-0.718458	0.25742	7.98	-15.33	-34.3	-0.3295	0.1566	-0.2728	
0.658922	-0.706868	0.274744	7.14	-18.62	-29.82	-0.3221	0.1443	-0.2745	
0.700524	-0.687104	0.285236	6.44	-19.81	-26.46	-0.3251	0.1566	-0.2759	
0.716628	-0.67771	0.294142	6.09	-17.78	-25.2	-0.3324	0.1598	-0.2682	
0.726144	-0.670634	0.285846	4.97	-14.98	-23.94	-0.3324	0.1475	-0.2668	
0.729316	-0.680516	0.269986	2.94	-12.95	-22.89	-0.3352	0.146	-0.2713	
0.734806	-0.699182	0.274988	0.91	-10.99	-19.32	-0.3382	0.1445	-0.2652	
0.75884	-0.68625	0.297802	0.28	-12.18	-13.58	-0.3381	0.146	-0.2728	
0.75945	-0.69357	0.29646	2.38	-9.31	-11.2	-0.3425	0.1339	-0.2638	
0.752984	-0.656238	0.265472	4.55	-3.22	-7.28	-0.3381	0.1324	-0.2593	
0.736514	-0.633912	0.233752	1.89	-2.52	-5.74	-0.3555	0.1324	-0.2652	
0.73688	-0.663802	0.270596	-1.4	-5.25	-3.22	-0.344	0.1385	-0.2576	
0.747494	-0.651602	0.27938	-0.28	-4.69	2.8	-0.3339	0.1446	-0.2592	
0.76311	-0.628056	0.285968	0.42	-1.26	6.51	-0.3513	0.1401	-0.2575	
0.78019	-0.615856	0.27755	0.42	5.11	6.3	-0.3338	0.1323	-0.2593	
0.732244	-0.633668	0.265838	1.05	8.19	6.02	-0.3468	0.1339	-0.2653	
0.701134	-0.629886	0.249856	1.12	8.26	8.19	-0.3425	0.14	-0.2622	
0.70394	-0.625738	0.261812	0.21	4.83	9.66	-0.328	0.14	-0.2593	
0.713334	-0.639036	0.275354	0.63	3.43	10.01	-0.3352	0.1459	-0.2744	
0.73627	-0.635254	0.288652	1.33	2.87	10.57	-0.3411	0.1385	-0.2607	
0.721874	-0.646966	0.277428	0.7	5.53	10.57	-0.3324	0.1415	-0.2592	
0.708698	-0.670878	0.264374	0	7.42	11.62	-0.3324	0.1476	-0.2622	
0.696132	-0.666486	0.275598	-0.77	7.77	14.14	-0.3381	0.1399	-0.2729	
0.687958	-0.670024	0.285358	-0.77	7.63	15.75	-0.328	0.1475	-0.2714	
0.688934	-0.684786	0.28548	-0.21	8.68	16.59	-0.3295	0.1476	-0.2638	
0.699792	-0.7015	0.302682	-0.28	7.7	17.64	-0.3367	0.1476	-0.2667	
0.712236	-0.72529	0.317566	0.63	8.12	18.48	-0.3296	0.1552	-0.2621	
0.671732	-0.712846	0.307318	2.52	13.37	22.61	-0.3208	0.1551	-0.2653	
0.646844	-0.715286	0.266692	1.12	14.84	28.07	-0.3194	0.1612	-0.2713	
0.638426	-0.716384	0.297436	-1.05	12.53	32.06	-0.3209	0.1673	-0.2667	
0.65636	-0.733464	0.322934	-2.59	10.08	35.77	-0.3252	0.1673	-0.2758	
0.675636	-0.749934	0.345016	-2.66	11.41	36.89	-0.3179	0.1688	-0.2743	
0.627446	-0.743346	0.29524	-2.24	19.67	43.12	-0.3078	0.1732	-0.282	
0.569862	-0.721996	0.266448	-5.39	20.16	47.53	-0.3035	0.1808	-0.2789	
0.538874	-0.75274	0.2623	-8.68	12.11	48.02	-0.2933	0.1883	-0.2865	
0.563396	-0.757376	0.312198	-10.64	7.49	49.07	-0.2932	0.1851	-0.3018	
0.58255	-0.787632	0.332938	-8.89	10.5	48.02	-0.2877	0.2036	-0.2818	
0.556686	-0.773724	0.303902	-4.97	20.3	52.99	-0.2775	0.2036	-0.2804	
0.489342	-0.735904	0.27145	-6.51	24.15	56.77	-0.2688	0.2111	-0.2865	
0.466162	-0.748714	0.280478	-12.18	17.08	54.11	-0.2558	0.208	-0.2851	
0.467626	-0.800076	0.324398	-16.1	14.28	49.56	-0.2602	0.2233	-0.2849	
0.447862	-0.84912	0.341966	-15.4	19.18	47.25	-0.253	0.2324	-0.2849	
0.414434	-0.836432	0.329278	-12.39	26.46	50.33	-0.2514	0.2277	-0.2987	
0.35075	-0.789584	0.265106	-12.81	28.7	51.1	-0.2443	0.2414	-0.294	
0.308782	-0.779092	0.234606	-17.43	19.04	47.39	-0.2385	0.2368	-0.2911	
0.313906	-0.88328	0.289994	-17.43	7.91	41.65	-0.2342	0.249	-0.294	
0.291336	-0.914146	0.29402	-11.2	11.2	44.8	-0.2226	0.252	-0.2926	
0.264252	-0.87474	0.274744	-5.88	13.02	48.02	-0.2154	0.2596	-0.2956	
0.242292	-0.831308	0.255346	-5.18	7.98	46.62	-0.2081	0.2641	-0.3002	
0.228628	-0.846436	0.28609	-5.88	1.19	40.6	-0.2026	0.2658	-0.2789	
0.233874	-0.875472	0.316102	-3.01	-0.49	35.91	-0.1995	0.2641	-0.2911	
0.229604	-0.886818	0.347456	0.91	5.81	31.71	-0.188	0.2671	-0.2897	
0.199104	-0.939278	0.360876	4.62	12.11	27.79	-0.1865	0.2701	-0.2958	
0.157624	-0.965874	0.30561	5.95	17.85	27.93	-0.1822	0.2762	-0.2927	
0.10736	-0.93391	0.23546	1.33	17.85	33.11	-0.1808	0.2838	-0.2926	
0.086986	-0.930128	0.235948	-5.18	8.19	39.48	-0.1807	0.2792	-0.3018	
0.092964	-0.986492	0.255346	-6.23	-3.78	43.82	-0.1691	0.2867	-0.3049	
0.056486	-1.030656	0.176656	-1.61	-13.79	52.71	-0.1692	0.2883	-0.2957	
-0.012444	-1.054324	0.125294	3.01	-21	63.56	-0.1677	0.2807	-0.2958	
-0.008052	-0.999302	0.170312	6.09	-34.79	73.99	-0.1648	0.2882	-0.3003	
0.066856	-0.942694	0.172386	5.67	-49.07	78.12	-0.1605	0.2913	-0.3003	
0.088572	-0.97478	0.163724	8.61	-61.18	72.52	-0.1491	0.3005	-0.2866	
0.091744	-0.977952	0.174948	13.44	-65.38	71.47	-0.1563	0.3036	-0.2865	
0.074298	-0.934642	0.20618	17.08	-66.29	70.35	-0.1506	0.3098	-0.2819	
0.057584	-0.929518	0.214354	16.24	-70.14	67.55	-0.1521	0.3098	-0.2819	
0.049044	-0.960384	0.232898	14.14	-80.71	66.43	-0.1477	0.3112	-0.2865	
0.078202	-0.965508	0.207034	12.74	-83.02	68.74	-0.1565	0.3114	-0.2788	
0.053314	-0.95526	0.20679	10.29	-80.22	69.58	-0.1522	0.3175	-0.2742	
0.051606	-0.96136	0.264984	8.47	-92.47	68.46	-0.1449	0.3159	-0.2743	
0.088694	-0.986858	0.240828	6.3	-96.46	69.3	-0.1552	0.3222	-0.2665	
0.07991	-0.99613	0.274744	3.85	-94.5	69.86	-0.1596	0.3238	-0.2664	
0.03233	-0.954162	0.293166	0.91	-94.43	68.32	-0.1452	0.3344	-0.2588	
0.041236	-0.899262	0.323544	-3.99	-98.35	68.04	-0.1553	0.3284	-0.2573	
0.087962	-0.905484	0.313418	-4.97	-97.86	61.95	-0.1525	0.3285	-0.2512	
0.07503	-0.924028	0.302072	-4.9	-95.34	56	-0.1714	0.3363	-0.2433	
0.026352	-0.916464	0.30317	-3.5	-92.19	53.06	-0.1714	0.3378	-0.2448	
0.013298	-0.887184	0.336842	-3.22	-93.03	52.57	-0.1643	0.3394	-0.2342	
0.02135	-0.900848	0.336598	-3.99	-88.48	52.5	-0.1629	0.3516	-0.2371	
0.019032	-0.916952	0.32025	-6.09	-87.08	50.05	-0.1732	0.3595	-0.2202	
-0.034038	-0.937692	0.349652	-3.71	-88.62	45.99	-0.1761	0.3565	-0.2186	
-0.032208	-0.88694	0.323422	-3.5	-81.62	46.34	-0.1776	0.3657	-0.2185	
-0.008905999	-0.857782	0.329766	-5.46	-78.05	42.35	-0.169	0.3597	-0.2065	
-0.003294	-0.871202	0.338428	-7.14	-72.24	36.05	-0.1763	0.375	-0.2093	
-0.021716	-0.894626	0.34282	-6.79	-66.71	29.68	-0.1792	0.3629	-0.2002	
-0.024644	-0.914756	0.34831	-5.88	-60.97	24.71	-0.1765	0.3798	-0.1925	
-0.062952	-0.868274	0.35014	-5.6	-51.24	23.73	-0.181	0.3905	-0.1908	
-0.013298	-0.847778	0.354044	-6.37	-42.98	20.58	-0.181	0.3876	-0.1817	
0.013664	-0.883768	0.354532	-4.41	-38.29	14.21	-0.1811	0.3937	-0.1755	
0.00549	-0.875106	0.373686	-2.59	-32.83	8.19	-0.1826	0.3953	-0.1724	
-0.41602	-0.891332	0.324886	1.19	-26.18	0.63	-0.1957	0.3954	-0.1708	
0.424682	-1.090802	0.367098	1.96	-45.22	-22.33	-0.1985	0.3908	-0.1754	
0.052216	-0.898896	0.394304	0.35	-13.23	-8.12	-0.2101	0.3833	-0.1723	
0.012444	-0.9211	0.352214	0.63	-0.21	-7.77	-0.2058	0.3803	-0.1647	
0.001708	-0.88755	0.345504	1.61	7.07	-8.19	-0.2116	0.391	-0.1645	
0.039894	-0.915854	0.333182	0.14	11.27	-11.34	-0.2115	0.3712	-0.1617	
0.030012	-0.909754	0.332206	2.38	12.46	-16.24	-0.2144	0.3817	-0.1768	
0.001586	-0.885476	0.340014	3.85	16.66	-16.17	-0.2129	0.3787	-0.1738	
0.035258	-0.90829	0.348066	0.56	20.93	-14.7	-0.2173	0.3818	-0.1707	
0.064294	-0.940376	0.36661	-0.14	24.78	-16.1	-0.2114	0.3756	-0.1754	
0.018666	-0.930372	0.34038	-0.7	31.57	-19.18	-0.2114	0.3755	-0.183	
0.0061	-0.915976	0.341356	0.07	38.15	-18.83	-0.2158	0.3787	-0.1768	
0.045018	-0.904996	0.341356	-0.84	43.12	-16.31	-0.207	0.3663	-0.1816	
0.102358	-0.868518	0.378078	-1.82	47.95	-17.57	-0.2099	0.3755	-0.1815	
0.155428	-0.82045	0.401014	-3.15	57.89	-20.86	-0.2098	0.3632	-0.1862	
0.080032	-0.914634	0.300608	-4.97	66.08	-27.79	-0.2025	0.36	-0.194	
0.027694	-0.955626	0.31781	-3.5	68.53	-28.28	-0.2039	0.3509	-0.191	
0.052948	-0.878766	0.336842	-1.33	71.26	-28.07	-0.1981	0.363	-0.1985	
0.116632	-0.880718	0.313906	-4.97	78.89	-32.2	-0.1979	0.3522	-0.2109	
0.164212	-0.988566	0.335378	-5.04	83.86	-44.94	-0.1994	0.3523	-0.2032	
0.09467199	-0.998326	0.30683	1.19	99.75	-47.46	-0.1891	0.3505	-0.2216	
0.03294	-0.925614	0.252784	6.23	100.45	-51.03	-0.2051	0.3521	-0.2199	
-0.010004	-0.888648	0.255102	4.2	85.61	-47.04	-0.1933	0.3397	-0.2309	
0.067222	-0.92354	0.286578	-3.22	69.44	-44.94	-0.1991	0.3443	-0.2338	
0.120658	-0.962824	0.283772	-6.86	69.58	-42.77	-0.1889	0.3396	-0.2385	
0.150914	-0.987102	0.31476	-9.24	71.54	-39.83	-0.1859	0.3304	-0.2387	
0.124562	-0.946232	0.28731	-7.84	81.69	-41.86	-0.183	0.3364	-0.2447	
0.07137	-0.948794	0.266692	-6.02	95.97	-38.78	-0.1829	0.3332	-0.2524	
-0.006954	-0.909022	0.219356	-0.35	100.03	-46.55	-0.177	0.3285	-0.2586	
0.005002	-0.92415	0.228262	-3.36	87.85	-42.7	-0.1697	0.3254	-0.2648	
0.044896	-1.036146	0.248148	-6.65	70.21	-41.72	-0.1769	0.3147	-0.2679	
0.031842	-0.942694	0.257298	-5.46	67.13	-40.46	-0.1711	0.3223	-0.2694	
0.036844	-0.922076	0.293654	-8.4	66.5	-41.02	-0.1652	0.316	-0.2771	
0.076616	-0.929396	0.284016	-11.76	69.65	-41.72	-0.1653	0.3237	-0.271	
0.123464	-0.9333	0.264984	-10.57	73.92	-44.52	-0.1549	0.3188	-0.2925	
0.16104	-1.017114	0.316346	-11.34	74.76	-40.25	-0.1536	0.3144	-0.2758	
0.11163	-0.97966	0.254736	-7.98	90.16	-41.02	-0.1579	0.3174	-0.2848	
0.03721	-0.938424	0.214598	-6.65	100.17	-40.53	-0.1491	0.3096	-0.2911	
0.019276	-0.975146	0.187636	-7.21	94.64	-41.23	-0.1447	0.3141	-0.2972	
0.074542	-0.954894	0.229482	-7.42	86.38	-43.89	-0.1361	0.3263	-0.2971	
0.142984	-0.955016	0.273524	-8.26	86.24	-47.81	-0.133	0.3018	-0.2974	
0.19032	-0.946354	0.27328	-10.92	92.26	-52.15	-0.1332	0.3126	-0.2927	
0.176656	-0.945988	0.23973	-12.39	104.86	-55.58	-0.117	0.3107	-0.3112	
0.1159	-0.941474	0.198128	-12.46	115.08	-57.33	-0.1199	0.3001	-0.3098	
0.116388	-0.912438	0.213622	-18.69	109.9	-54.88	-0.1084	0.3168	-0.3067	
0.131272	-0.946964	0.251808	-22.89	106.89	-53.9	-0.0981	0.3075	-0.313	
0.086742	-1.014918	0.241438	-19.46	110.11	-53.76	-0.0981	0.3029	-0.313	
0.060878	-0.979538	0.174216	-18.48	108.57	-49.07	-0.0953	0.3106	-0.313	
0.0854	-0.891088	0.132858	-29.33	98.56	-39.69	-0.0894	0.312	-0.3176	
0.083448	-0.956846	0.227774	-28.56	78.26	-46.13	-0.0751	0.309	-0.304	
0.110166	-0.996008	0.228018	-24.64	84.98	-46.41	-0.0866	0.3166	-0.3114	
0.086498	-0.99552	0.208742	-20.3	85.12	-44.31	-0.0664	0.3166	-0.3071	
0.080398	-0.955748	0.192272	-19.6	80.64	-42.21	-0.0722	0.3197	-0.307	
0.102114	-0.933788	0.184342	-21.28	74.69	-37.31	-0.0649	0.3181	-0.3071	
0.123342	-0.923174	0.205204	-24.22	69.93	-34.23	-0.0563	0.3212	-0.298	
0.239242	-0.884134	0.209474	-29.05	69.3	-30.73	-0.0476	0.3211	-0.3041	
-0.031964	-1.01138	0.18361	-36.05	93.8	-20.51	-0.0419	0.3272	-0.2996	
0.121756	-0.934154	0.176778	-31.85	69.37	-25.41	-0.0346	0.3241	-0.2966	
0.135054	-0.924272	0.206058	-31.5	67.41	-24.36	-0.0404	0.3272	-0.298	
0.09882	-0.997838	0.198006	-28.63	67.41	-31.36	-0.0335	0.3488	-0.2781	
0.062708	-1.015162	0.183976	-23.1	63.42	-30.38	-0.0145	0.3379	-0.2845	
0.071004	-0.962946	0.164212	-19.95	55.44	-24.92	-0.0218	0.3456	-0.2858	
0.08357	-0.96746	0.172142	-18.27	48.79	-24.85	-0.0233	0.3456	-0.2828	
0.047946	-0.975634	0.165066	-15.33	43.75	-25.55	-0.0218	0.344	-0.2874	
0.085766	-0.976732	0.19947	-14.63	33.32	-22.96	-0.0204	0.3471	-0.2812	
0.110288	-0.970144	0.203618	-11.48	26.88	-18.9	-0.0089	0.3487	-0.2737	
0.112362	-0.94916	0.190442	-9.59	22.82	-16.31	-0.0205	0.3503	-0.2751	
0.125904	-0.967948	0.198372	-9.31	18.06	-13.44	-0.0219	0.3396	-0.2691	
0.132858	-0.96075	0.18971	-8.33	16.03	-10.99	-0.0061	0.3442	-0.2616	
0.145546	-0.975634	0.20069	-7.77	12.18	-10.22	-0.0104	0.3547	-0.2782	
0.138348	-0.968558	0.195078	-4.76	11.69	-8.26	-0.0076	0.358	-0.263	
0.156648	-0.961238	0.198738	-2.8	9.31	-5.32	-0.0089	0.3533	-0.2737	
0.1464	-0.956968	0.197274	-1.75	9.17	-3.29	-0.0133	0.3472	-0.2706	
0.104554	-0.95831	0.196664	-0.28	7.07	-1.4	-0.0133	0.3594	-0.2766	
0.114802	-0.965752	0.20374	0.63	0.84	1.19	-0.0104	0.3533	-0.2721	
0.150792	-0.966362	0.222894	1.26	-3.36	4.27	-0.0162	0.3564	-0.272	
0.158844	-0.9638	0.213622	2.38	-4.27	6.93	-0.0089	0.3441	-0.2753	
0.135176	-0.961116	0.188978	3.71	-4.9	8.61	-0.0089	0.3548	-0.2736	
0.126392	-0.951478	0.18971	4.97	-7.91	9.17	-0.003	0.3424	-0.2845	
0.103822	-0.948916	0.190198	5.6	-12.32	9.31	-0.006	0.3516	-0.2813	
0.11163	-0.957334	0.203984	5.39	-17.08	9.45	-0.0117	0.3501	-0.2859	
0.144326	-0.946598	0.210084	7.14	-20.3	10.92	-0.0088	0.3501	-0.2813	
0.140666	-0.938668	0.204594	7.77	-20.86	11.76	-0.0219	0.3487	-0.2782	
0.133102	-0.919758	0.218868	7.21	-23.73	13.58	-0.0133	0.3609	-0.2796	
0.130052	-0.929762	0.246074	5.67	-26.67	13.44	-0.0132	0.3456	-0.2798	
0.102358	-0.936594	0.235094	5.32	-25.83	12.32	-0.0088	0.3425	-0.2784	
0.095038	-0.993568	0.191296	6.58	-29.19	14	-0.0147	0.3502	-0.2797	
0.117608	-0.981246	0.178852	8.96	-31.85	15.12	-0.0146	0.3395	-0.2799	
0.092598	-0.9699	0.1891	11.06	-33.67	18.34	-0.013	0.3332	-0.2906	
0.094184	-0.931714	0.241438	11.13	-36.33	20.86	-0.0175	0.3379	-0.2814	
0.052704	-0.940132	0.260958	10.85	-34.02	20.86	-0.0145	0.3423	-0.2951	
0.003782	-0.955748	0.176046	13.93	-36.47	22.26	-0.0261	0.3379	-0.292	
0.06222	-0.922442	0.157868	14	-44.87	23.17	-0.0189	0.3424	-0.2905	
0.082106	-0.950258	0.180682	11.41	-52.64	19.81	-0.0274	0.3348	-0.2981	
0.083814	-0.966484	0.213988	10.78	-54.11	17.92	-0.0261	0.3409	-0.2935	
0.073078	-0.979782	0.231678	13.44	-53.62	17.01	-0.0318	0.3333	-0.292	
0.081618	-0.97783	0.191296	17.92	-60.76	20.65	-0.0435	0.3396	-0.2887	
0.150182	-0.957456	0.230458	18.27	-68.81	21.56	-0.0389	0.3226	-0.3012	
0.182024	-0.931836	0.23607	16.87	-66.99	18.48	-0.0548	0.3256	-0.3147	
0.158966	-0.922442	0.237656	15.89	-63.28	15.82	-0.0491	0.3287	-0.3025	
0.1586	-0.915366	0.225578	16.24	-62.23	14.77	-0.0665	0.3303	-0.3054	
0.171654	-0.90402	0.21228	16.31	-62.16	14.28	-0.065	0.3181	-0.3025	
0.192272	-0.933544	0.251076	16.24	-60.34	10.92	-0.0664	0.312	-0.3025	
0.178242	-0.942206	0.277794	17.71	-54.88	10.78	-0.07229999	0.3289	-0.3038	
0.108702	-0.964532	0.236314	22.05	-49.98	8.96	-0.0736	0.3227	-0.31	
0.077104	-0.971608	0.21228	24.15	-49	12.67	-0.0779	0.309	-0.307	
0.07503	-0.957822	0.195444	27.51	-58.1	14.28	-0.0867	0.3121	-0.3054	
0.117486	-0.896456	0.154696	24.01	-66.71	19.25	-0.0895	0.306	-0.3054	
0.185928	-0.883036	0.236802	18.69	-75.25	15.47	-0.0967	0.3106	-0.3145	
0.192516	-0.922076	0.257664	16.38	-67.69	12.6	-0.09959999	0.3091	-0.3129	
0.10431	-0.97295	0.23851	17.43	-63.21	15.54	-0.1111	0.3	-0.3129	
0.102602	-1.009794	0.236192	21.14	-71.82	16.31	-0.101	0.2938	-0.3116	
0.158234	-0.970388	0.213012	27.23	-84.07	27.16	-0.1199	0.2985	-0.3098	
0.18849	-0.928786	0.227042	23.66	-88.62	33.46	-0.13	0.297	-0.3128	
0.191418	-0.933422	0.245098	22.68	-88.9	31.36	-0.1286	0.2895	-0.3037	
0.171166	-0.978318	0.226432	22.96	-80.5	32.13	-0.1402	0.2927	-0.3005	
0.136274	-0.991982	0.222162	25.48	-81.13	35.35	-0.1445	0.2881	-0.3005	
0.128344	-0.97051	0.219478	25.2	-84.98	42.28	-0.1503	0.2942	-0.3035	
0.144814	-0.950624	0.215208	22.89	-92.4	45.78	-0.1445	0.2881	-0.3036	
0.149816	-0.938912	0.201544	19.74	-93.8	49	-0.1605	0.2944	-0.2973	
0.16714	-0.942816	0.228994	19.67	-95.34	51.38	-0.1605	0.2913	-0.2958	
0.149694	-0.960628	0.213256	22.19	-92.26	46.13	-0.1664	0.29	-0.2851	
0.158356	-0.961726	0.215086	24.15	-88.41	49.14	-0.1736	0.293	-0.2926	
0.155794	-0.960506	0.248026	24.36	-88.2	49.63	-0.1939	0.2947	-0.2893	
0.121634	-0.954162	0.25071	22.26	-89.88	46.13	-0.1882	0.2886	-0.2833	
0.183	-0.94184	0.24949	20.72	-91.49	46.55	-0.1941	0.301	-0.274	
0.181536	-0.936838	0.250222	18.2	-88.76	49.28	-0.1984	0.2948	-0.2786	
0.17202	-0.92964	0.274134	18.2	-82.88	49.91	-0.1911	0.3008	-0.2832	
0.174704	-0.920734	0.30378	16.52	-82.46	46.97	-0.2056	0.2918	-0.2786	
0.155306	-0.912804	0.292312	16.24	-77.56	48.37	-0.1927	0.2995	-0.2679	
0.12871	-0.919636	0.288652	15.96	-76.93	48.72	-0.2058	0.2966	-0.2633	
0.140056	-0.913902	0.320006	15.05	-78.75	46.34	-0.2103	0.3028	-0.254	
0.19093	-0.90768	0.33977	12.18	-76.23	48.65	-0.2059	0.3028	-0.254	
0.189344	-0.897554	0.357948	8.68	-71.61	46.2	-0.2147	0.3105	-0.2508	
0.191174	-0.895968	0.373442	5.32	-65.94	42.91	-0.2118	0.3105	-0.2493	
0.215818	-0.87718	0.372954	2.17	-57.68	40.74	-0.2133	0.3076	-0.2417	
0.193858	-0.933788	0.376004	2.38	-52.08	36.19	-0.2047	0.3076	-0.2342	
0.122244	-0.924272	0.373686	4.76	-41.58	34.02	-0.2235	0.3031	-0.234	
0.053558	-0.87169	0.353556	2.94	-39.41	33.67	-0.2148	0.3122	-0.2401	
0.063562	-0.893162	0.356484	-0.98	-46.69	32.69	-0.225	0.3123	-0.2354	
0.089792	-0.925614	0.34282	-1.68	-48.23	29.89	-0.2092	0.3139	-0.2234	
0.097112	-0.90463	0.332938	-1.82	-43.26	28.35	-0.215	0.3215	-0.2293	
0.09821	-0.90585	0.34465	-2.8	-40.11	26.04	-0.2092	0.326	-0.2293	
0.074908	-0.888648	0.3538	-3.36	-35.49	23.66	-0.2223	0.3232	-0.2186	
0.082594	-0.889258	0.351726	-3.78	-32.48	22.75	-0.2151	0.3338	-0.2201	
0.087596	-0.8662	0.362706	-3.29	-30.66	19.32	-0.2122	0.3323	-0.2216	
0.116998	-0.859124	0.3843	-3.43	-26.18	15.4	-0.2152	0.3264	-0.2034	
0.143106	-0.871934	0.391742	-3.22	-17.78	9.52	-0.2166	0.3369	-0.2154	
0.122854	-0.88267	0.39833	-2.52	-6.58	3.99	-0.2197	0.3432	-0.2062	
0.11102	-0.88999	0.396256	-2.66	1.75	-0.35	-0.211	0.3401	-0.2048	
0.076982	-0.916708	0.364902	-2.94	8.96	-4.06	-0.2125	0.3432	-0.2002	
0.025864	-0.924272	0.330254	-1.82	14.91	-6.16	-0.2095	0.334	-0.2049	
0.02318	-0.915976	0.335866	-1.68	15.68	-7.07	-0.208	0.3324	-0.2064	
0.040138	-0.906094	0.331352	-2.73	15.82	-9.38	-0.2052	0.3279	-0.1958	
0.041114	-0.919514	0.330254	-3.29	17.01	-11.69	-0.2167	0.334	-0.2048	
0.029524	-0.91683	0.329278	-2.38	21.49	-15.05	-0.2152	0.3309	-0.2125	
0.026962	-0.90585	0.322202	-2.24	23.17	-16.17	-0.2122	0.3293	-0.214	
0.028182	-0.882792	0.327082	-4.69	22.68	-19.67	-0.2094	0.3248	-0.208	
0.110898	-0.936472	0.350506	-8.05	18.41	-18.2	-0.2137	0.3308	-0.2155	
0.15616	-0.920612	0.35075	-10.36	26.88	-19.6	-0.2092	0.3246	-0.2248	
0.142618	-0.904386	0.336476	-9.66	36.19	-23.8	-0.2093	0.3201	-0.2126	
0.117242	-0.874862	0.308294	-10.36	39.48	-28	-0.2121	0.3291	-0.2278	
0.13298	-0.895602	0.329034	-11.76	41.3	-28.77	-0.2136	0.3323	-0.2231	
0.14945	-0.876936	0.329644	-13.09	46.62	-29.33	-0.2107	0.3277	-0.2186	
0.197762	-0.854122	0.308294	-18.34	51.52	-28	-0.2106	0.3245	-0.2278	
0.230458	-0.868762	0.272182	-22.96	62.09	-32.2	-0.2149	0.3245	-0.2339	
0.274134	-0.959042	0.332694	-25.41	70.7	-35.49	-0.2135	0.3199	-0.2294	
0.262056	-0.967704	0.293532	-22.19	87.15	-38.36	-0.2019	0.3199	-0.2295	
0.163846	-0.991372	0.249978	-15.05	103.04	-39.55	-0.2003	0.3136	-0.2387	
0.086132	-0.987834	0.220942	-9.66	107.52	-38.99	-0.2018	0.3197	-0.2417	
0.063806	-0.935984	0.209718	-8.96	99.12	-40.67	-0.1944	0.321	-0.257	
0.087352	-0.906094	0.189466	-12.88	88.9	-42.84	-0.1973	0.3226	-0.2569	
0.146034	-0.929396	0.244	-18.9	80.85	-43.47	-0.1931	0.3288	-0.2478	
0.146888	-0.955992	0.25864	-20.37	81.48	-46.34	-0.1872	0.3149	-0.2526	
0.067466	-0.996374	0.21289	-17.15	88.62	-50.26	-0.1885	0.3179	-0.2617	
-0.02501	-0.995764	0.155428	-9.52	91.98	-50.54	-0.1857	0.3133	-0.2572	
0.06161	-1.000278	0.201178	-9.59	78.19	-44.59	-0.1783	0.307	-0.2695	
0.170922	-1.013332	0.233142	-12.32	69.58	-43.19	-0.1782	0.31	-0.2771	
0.189954	-0.994422	0.240218	-12.95	71.26	-36.33	-0.1768	0.3146	-0.2771	
0.19764	-0.958798	0.235582	-10.36	81.41	-32.83	-0.1739	0.3024	-0.2726	
0.155916	-0.931836	0.210816	-9.24	89.6	-31.78	-0.1724	0.3023	-0.2772	
0.115412	-0.936838	0.182634	-7.98	91.77	-30.24	-0.1637	0.3099	-0.2772	
0.149938	-0.955504	0.2013	-8.47	82.74	-30.66	-0.1564	0.3067	-0.2819	
0.190442	-0.916586	0.268034	-12.88	79.59	-26.95	-0.152	0.3021	-0.2835	
0.177266	-0.896822	0.272792	-17.5	86.03	-27.16	-0.152	0.3021	-0.2851	
0.155672	-0.907924	0.248026	-20.44	92.61	-30.52	-0.1374	0.3049	-0.2943	
0.167994	-0.909022	0.25437	-22.54	94.71	-31.01	-0.1316	0.3064	-0.3005	
0.173362	-0.923052	0.24461	-24.43	97.16	-31.08	-0.1214	0.3002	-0.2991	
0.146644	-0.936838	0.227774	-25.06	102.41	-33.39	-0.1157	0.3032	-0.2976	
0.124806	-0.915976	0.218502	-26.53	105.14	-33.11	-0.1172	0.3063	-0.2945	
0.107848	-0.949404	0.19337	-27.02	107.17	-36.68	-0.0925	0.3122	-0.2992	
0.113948	-0.949526	0.224968	-31.71	98.98	-34.44	-0.0883	0.3214	-0.2946	
0.132858	-0.951722	0.2135	-33.39	92.47	-32.97	-0.0839	0.3138	-0.2932	
0.148962	-0.94123	0.199714	-36.75	89.04	-33.95	-0.0752	0.3259	-0.2962	
0.170556	-0.932202	0.189344	-37.03	86.94	-34.65	-0.0709	0.3259	-0.2962	
0.187514	-0.945744	0.176046	-35	95.27	-36.4	-0.0664	0.3197	-0.304	
0.104066	-0.98088	0.136396	-32.97	99.96	-34.37	-0.0579	0.3304	-0.2948	
0.09638	-0.925004	0.111386	-31.29	87.71	-31.08	-0.055	0.3304	-0.2948	
0.14091	-0.924272	0.136152	-30.66	78.47	-32.27	-0.0406	0.3365	-0.2857	
0.159942	-0.954894	0.16287	-28.77	84	-36.05	-0.045	0.3412	-0.2826	
0.105896	-0.987834	0.167384	-28.28	92.33	-32.06	-0.0377	0.3411	-0.2857	
0.117364	-0.95587	0.101626	-24.15	87.01	-38.92	-0.0306	0.3518	-0.2796	
0.135786	-0.93879	0.109312	-26.39	80.22	-38.92	-0.0176	0.3517	-0.2812	
0.051484	-1.022482	0.093696	-26.81	76.3	-40.46	-0.0249	0.3473	-0.2721	
0.008174	-1.021872	0.092232	-22.54	65.1	-34.51	-0.0306	0.3533	-0.2811	
0.05124	-0.972218	0.141154	-20.44	48.23	-28.07	-0.022	0.3594	-0.2765	
0.105408	-0.98454	0.153476	-15.82	36.75	-22.4	-0.0322	0.3611	-0.2733	
0.170312	-0.944036	0.154696	-13.02	32.41	-21.49	-0.009099999	0.3549	-0.2599	
0.169336	-0.987346	0.147498	-12.67	34.3	-22.47	-0.0236	0.3581	-0.2597	
0.079544	-1.014552	0.110776	-9.8	33.18	-22.4	-0.0222	0.3627	-0.2551	
0.054412	-1.01321	0.132858	-7.7	22.26	-18.83	-0.0192	0.3687	-0.2703	
0.08174	-0.990396	0.149084	-5.11	11.97	-12.81	-0.0207	0.3611	-0.2597	
0.155916	-0.943548	0.163602	-3.92	4.13	-7.07	-0.0178	0.3626	-0.2643	
0.202886	-0.9455	0.166896	-3.36	2.1	-5.39	-0.0178	0.3702	-0.2688	
0.20496	-0.954284	0.152134	-3.08	3.43	-4.83	-0.0193	0.3581	-0.2537	
0.147742	-0.964166	0.133224	-3.15	2.1	-3.99	-0.0149	0.3596	-0.2583	
0.168116	-0.974658	0.149572	-4.55	-3.5	-1.19	-0.0251	0.3627	-0.2612	
0.235582	-0.947086	0.165432	-4.97	-6.86	-0.14	-0.0366	0.3611	-0.2687	
0.22509	-0.966362	0.176778	-3.85	-6.51	-0.49	-0.0266	0.3628	-0.2536	
0.199836	-0.993568	0.15494	-2.45	-6.23	2.1	-0.0221	0.3626	-0.2658	
0.221308	-0.931226	0.13481	-0.28	-5.46	4.76	-0.0252	0.3674	-0.252	
0.252174	-0.940376	0.171044	-1.12	-6.86	2.73	-0.0207	0.3596	-0.2582	
0.17812	-0.986248	0.149572	1.12	-4.97	5.39	-0.0309	0.3689	-0.258	
0.138226	-0.983442	0.107482	3.5	-6.58	9.31	-0.0251	0.3658	-0.2566	
0.165554	-0.962336	0.122122	4.83	-12.88	10.71	-0.0236	0.3657	-0.2642	
0.170922	-0.954406	0.142618	6.02	-15.47	9.59	-0.0193	0.3627	-0.2597	
0.132492	-0.977586	0.134566	8.47	-17.78	10.08	-0.0265	0.3612	-0.2566	
0.129198	-0.980758	0.131272	10.71	-23.45	15.05	-0.0164	0.3657	-0.2567	
0.15799	-0.969046	0.13969	11.27	-29.26	20.72	-0.0134	0.3595	-0.2675	
0.161284	-0.960506	0.130052	10.43	-32.2	23.45	-0.0206	0.358	-0.2659	
0.11224	-0.968924	0.136396	10.99	-34.93	23.73	-0.0249	0.3595	-0.275	
0.09272	-0.972218	0.14823	11.97	-39.69	24.99	-0.0265	0.3581	-0.2628	
0.075762	-1.009672	0.161894	12.81	-44.1	27.93	-0.0235	0.3595	-0.2704	
0.055998	-1.025044	0.124318	14.56	-45.64	35.56	-0.0264	0.3564	-0.2719	
0.047824	-1.001742	0.027938	21.42	-50.75	42.49	-0.0204	0.341	-0.2783	
0.12688	-0.891576	0.06344	21.35	-66.57	39.2	-0.0306	0.3427	-0.2705	
0.19459	-0.925736	0.167384	14.35	-73.64	28.07	-0.0248	0.3457	-0.2751	
0.138592	-0.960506	0.187514	15.33	-68.25	27.58	-0.0234	0.3487	-0.2782	
0.115046	-0.971974	0.197884	15.05	-64.4	26.88	-0.0363	0.3396	-0.2797	
0.05307	-0.965996	0.121024	17.99	-61.04	27.02	-0.0392	0.3487	-0.2887	
0.085644	-0.96014	0.13481	18.76	-73.92	21.63	-0.0408	0.3473	-0.2749	
0.175924	-0.96685	0.18117	19.39	-79.8	15.26	-0.045	0.3366	-0.2842	
0.173484	-0.985882	0.203618	21	-74.27	12.67	-0.0508	0.3305	-0.2811	
0.117486	-0.96319	0.141276	25.13	-66.36	16.1	-0.0668	0.3352	-0.2779	
0.177266	-0.899872	0.177266	21.98	-70.21	22.96	-0.0668	0.3352	-0.2779	
0.14396	-0.94672	0.167628	18.76	-67.2	18.69	-0.0725	0.3352	-0.2809	
0.110166	-0.999668	0.206424	21.21	-68.81	16.87	-0.074	0.3398	-0.2854	
0.10858	-0.997106	0.24766	25.13	-69.72	19.11	-0.0739	0.3367	-0.2915	
0.05917	-0.923052	0.110166	29.89	-63.56	27.72	-0.0869	0.3246	-0.287	
0.06344	-0.908778	0.148962	24.5	-76.93	31.43	-0.0825	0.3214	-0.2901	
0.09272	-0.973804	0.169092	20.51	-82.04	27.02	-0.097	0.3185	-0.2869	
0.087352	-1.028338	0.167384	25.69	-90.86	29.05	-0.1159	0.3247	-0.2897	
0.120536	-1.017846	0.158234	34.09	-102.55	35.49	-0.1159	0.3247	-0.2897	
0.120536	-0.931592	0.125294	30.66	-108.64	43.75	-0.1158	0.3171	-0.2913	
0.146034	-0.929396	0.17141	26.32	-115.08	40.6	-0.1187	0.3079	-0.2884	
0.124806	-0.987224	0.19154	24.22	-112	37.94	-0.136	0.3095	-0.2973	
0.120658	-1.006134	0.19276	25.55	-110.46	41.65	-0.1346	0.3081	-0.2852	
0.12566	-0.998448	0.21045	29.12	-111.02	47.95	-0.1476	0.3111	-0.2957	
0.140422	-0.949526	0.194956	27.51	-103.53	52.15	-0.1506	0.3052	-0.2835	
0.164456	-0.972584	0.212646	25.55	-104.16	51.24	-0.1463	0.3113	-0.2789	
0.188124	-1.013698	0.205814	26.46	-105.28	51.1	-0.1651	0.3053	-0.2757	
0.15006	-1.020896	0.180194	28.56	-98.49	56.91	-0.158	0.3114	-0.2742	
0.082106	-0.976732	0.18666	29.47	-89.04	57.05	-0.1681	0.313	-0.2787	
0.06588	-1.000278	0.166408	27.86	-91.07	51.59	-0.174	0.3116	-0.2649	
0.0061	-1.019188	0.154208	29.68	-94.92	63.98	-0.1696	0.3161	-0.2771	
0.029158	-0.976122	0.199958	31.43	-107.17	51.31	-0.1754	0.3131	-0.274	
0.171776	-0.937204	0.27267	30.45	-111.16	69.93	-0.1841	0.3056	-0.2618	
0.159088	-0.92232	0.236558	27.51	-105.35	63.7	-0.1855	0.3132	-0.2709	
0.165554	-0.897554	0.262788	25.06	-97.44	64.68	-0.1813	0.3239	-0.2647	
0.143106	-0.908046	0.2684	21.28	-101.36	55.51	-0.2016	0.3119	-0.2585	
0.09162199	-0.853146	0.340868	9.66	-107.87	56.21	-0.2002	0.3181	-0.2539	
0.160552	-0.88084	0.338916	1.68	-110.88	54.04	-0.2061	0.3182	-0.2401	
0.16653	-0.879132	0.365878	-1.68	-107.52	49	-0.2078	0.3306	-0.2308	
0.149328	-0.892064	0.391254	-4.34	-98.98	45.08	-0.2062	0.3168	-0.2356	
0.149694	-0.89853	0.392718	-5.67	-90.72	38.5	-0.2093	0.3292	-0.2232	
0.134932	-0.888404	0.369538	-5.53	-80.64	34.3	-0.208	0.337	-0.2079	
0.0671	-0.856684	0.364048	-6.51	-76.02	32.69	-0.2138	0.3385	-0.2139	
0.095404	-0.868396	0.378566	-9.94	-75.74	33.67	-0.2197	0.3371	-0.2017	
0.12444	-0.887062	0.378078	-13.3	-68.04	30.73	-0.2154	0.3463	-0.1955	
0.13908	-0.886818	0.375516	-13.3	-56.77	25.9	-0.2213	0.3419	-0.1833	
0.111508	-0.884988	0.36051	-12.32	-45.08	19.32	-0.2257	0.3481	-0.1771	
0.112484	-0.908656	0.34465	-12.39	-37.52	14.14	-0.2097	0.3434	-0.1804	
0.103334	-0.910974	0.371246	-8.75	-30.66	9.73	-0.2141	0.345	-0.1803	
0.087352	-0.888038	0.34526	-7.42	-20.58	8.68	-0.2229	0.3482	-0.1741	
0.046238	-0.915854	0.333548	-6.37	-14.56	5.25	-0.2273	0.3498	-0.171	
0.07076	-0.904264	0.331352	-4.13	-10.99	1.75	-0.2228	0.3466	-0.1771	
0.065148	-0.893894	0.335256	-3.78	-4.13	-0.98	-0.2098	0.3465	-0.1757	
0.06954	-0.919514	0.315858	-3.5	1.61	-3.78	-0.2213	0.345	-0.1818	
0.066246	-0.935984	0.31354	-2.38	5.11	-5.81	-0.2215	0.3543	-0.1694	
0.050508	-0.935496	0.307806	-0.84	9.45	-6.58	-0.2216	0.362	-0.1694	
0.043554	-0.930494	0.296948	-0.91	13.65	-6.93	-0.2214	0.3481	-0.1771	
0.031842	-0.923052	0.282186	-1.47	16.59	-7.07	-0.2272	0.3482	-0.1756	
0.040382	-0.944646	0.289018	-0.7	16.17	-7.98	-0.2156	0.3541	-0.1848	
0.040504	-0.921588	0.296094	-0.49	17.36	-8.96	-0.2244	0.3558	-0.1755	
0.049166	-0.911828	0.305366	-1.12	20.09	-10.08	-0.2199	0.348	-0.1863	
0.088938	-0.884378	0.320128	-1.89	25.2	-12.11	-0.2126	0.3373	-0.1865	
0.18971	-0.860832	0.362706	-4.76	32.55	-18.34	-0.2184	0.3389	-0.1788	
0.192638	-0.905606	0.35685	-5.53	48.37	-25.55	-0.2213	0.3495	-0.1893	
0.187636	-0.95404	0.32879	-5.04	61.6	-31.99	-0.2184	0.3404	-0.1834	
0.13115	-0.906216	0.308172	-0.84	73.92	-33.88	-0.2241	0.3388	-0.1909	
0.155184	-0.798124	0.30195	-2.03	82.32	-36.4	-0.2198	0.3464	-0.1939	
0.267424	-0.788364	0.331962	-21	71.54	-39.13	-0.2124	0.3386	-0.2048	
0.345504	-1.00711	0.386374	-32.9	67.9	-46.62	-0.2225	0.3295	-0.2048	
0.19764	-1.07055	0.247416	-24.99	97.37	-43.05	-0.2167	0.337	-0.2093	
0.041236	-1.03456	0.20984	-13.16	110.53	-43.26	-0.2122	0.3277	-0.2186	
0.04087	-0.958066	0.177998	-10.92	100.03	-38.85	-0.2094	0.3354	-0.2125	
0.109312	-0.866322	0.195078	-15.05	83.72	-40.88	-0.2121	0.32	-0.2263	
0.196542	-0.869738	0.194468	-22.54	79.52	-45.22	-0.1992	0.3261	-0.2142	
0.237046	-0.994544	0.235094	-30.03	85.33	-43.4	-0.202	0.3276	-0.2187	
0.084058	-1.062742	0.187758	-21.98	105.49	-44.45	-0.1976	0.3244	-0.2325	
0.02684	-0.995276	0.16165	-14.84	100.31	-43.82	-0.2047	0.3274	-0.2446	
0.09357399	-0.871812	0.202154	-19.11	85.47	-40.81	-0.2004	0.3182	-0.2387	
0.131516	-0.857416	0.17385	-25.27	77.35	-48.23	-0.2003	0.3212	-0.2463	
0.242292	-0.996008	0.135298	-28	78.19	-56.77	-0.1901	0.315	-0.2434	
0.251808	-1.133258	0.238754	-19.81	100.1	-50.96	-0.1829	0.3211	-0.2449	
0.106506	-0.932202	0.122	-16.73	117.95	-39.62	-0.1814	0.324	-0.254	
0.15006	-0.87596	0.130296	-23.52	109.83	-40.18	-0.177	0.3133	-0.2511	
0.215574	-0.903654	0.167628	-27.72	109.2	-52.36	-0.1653	0.3207	-0.2695	
0.221308	-0.965508	0.192638	-26.74	118.3	-62.37	-0.1696	0.3146	-0.2664	
0.180316	-1.023458	0.18117	-24.15	123.55	-67.34	-0.1726	0.3239	-0.2648	
0.21899	-1.025044	0.14091	-26.46	126.91	-56.91	-0.1565	0.316	-0.2757	
0.211182	-0.934032	0.09211	-28.07	127.4	-50.61	-0.155	0.3174	-0.2849	
0.24888	-0.899506	0.143838	-40.39	121.94	-44.87	-0.145	0.3251	-0.2772	
0.253028	-0.945622	0.134078	-40.46	126	-49.91	-0.1421	0.3266	-0.2773	
0.177998	-1.015528	0.089304	-41.09	129.85	-45.36	-0.129	0.3219	-0.2774	
0.13481	-0.979172	0.030744	-38.92	116.69	-32.62	-0.1189	0.3279	-0.279	
0.164578	-0.939766	0.05917	-40.74	114.03	-27.72	-0.1204	0.3325	-0.2774	
0.213988	-0.976366	0.117486	-39.69	107.87	-22.68	-0.1058	0.3339	-0.2836	
0.18178	-1.014064	0.085278	-35.91	111.44	-19.25	-0.0885	0.3369	-0.2777	
0.170678	-0.923784	0.085156	-31.85	109.41	-18.83	-0.0841	0.3322	-0.2823	
0.176778	-0.957212	0.080642	-33.74	107.52	-25.69	-0.08419999	0.343	-0.2776	
0.13237	-0.989176	0.052094	-35.56	105.21	-22.33	-0.064	0.3475	-0.2701	
0.133834	-0.972096	0.065636	-33.04	100.38	-30.31	-0.0568	0.3521	-0.2686	
0.135786	-0.973804	0.061366	-30.17	98.56	-31.22	-0.0554	0.3521	-0.2687	
0.099918	-1.007354	0.05551	-28.91	96.11	-33.32	-0.035	0.3503	-0.2765	
0.050752	-1.0248	0.052826	-28.07	98.42	-34.58	-0.0467	0.3567	-0.2626	
0.04697	-1.019676	0.056242	-28.84	90.72	-31.29	-0.038	0.3551	-0.2627	
0.053802	-1.018334	0.059536	-27.09	80.01	-27.09	-0.0236	0.3581	-0.2597	
0.042212	-1.020164	0.05917	-24.36	72.66	-20.58	-0.0163	0.358	-0.2644	
0.03599	-1.026752	0.059414	-19.88	63.7	-16.8	-0.0237	0.3643	-0.2536	
0.025742	-1.020042	0.066124	-14.56	53.13	-12.95	-0.0135	0.3672	-0.2582	
0.027328	-1.01138	0.081862	-12.04	44.66	-8.05	-0.0223	0.3765	-0.2535	
0.030378	-1.012966	0.08479	-8.33	32.76	-4.34	-0.005	0.3735	-0.2415	
0.049288	-1.008818	0.111874	-4.69	20.65	-0.91	-0.0093	0.3597	-0.2416	
0.06893	-1.006866	0.116876	-0.42	14.77	3.08	-0.0064	0.3795	-0.2505	
0.079666	-0.989176	0.085766	3.01	8.54	6.65	-0.0034	0.3687	-0.2537	
0.1037	-0.97722	0.115412	3.22	-3.01	8.96	0.0008	0.3703	-0.2522	
0.11163	-0.992226	0.12505	3.85	-9.17	10.22	-0.0006	0.3703	-0.2507	
0.141642	-0.947696	0.120048	5.95	-11.34	10.08	-0.0035	0.3779	-0.2536	
0.15555	-0.944402	0.140544	6.09	-13.86	8.61	-0.0035	0.3734	-0.2506	
0.173362	-0.941718	0.157136	6.16	-14.42	8.19	-0.015	0.3704	-0.2521	
0.168238	-0.960384	0.15616	6.58	-13.79	6.93	0.0022	0.3687	-0.2507	
0.151402	-0.970998	0.15433	6.44	-13.65	7.91	-0.0077	0.3671	-0.2628	
0.15555	-0.966484	0.15982	7.07	-14.14	9.03	-0.0077	0.3703	-0.2567	
0.16653	-0.958432	0.156038	7.98	-14.42	8.4	-0.0034	0.3642	-0.2523	
0.152378	-0.960018	0.166774	8.54	-14.63	8.12	-0.0018	0.3609	-0.266	
0.145424	-0.96075	0.1708	8.96	-14.7	8.89	-0.0019	0.3686	-0.2644	
0.116022	-0.958676	0.181414	9.1	-14.84	10.92	-0.012	0.355	-0.2599	
0.104798	-0.983564	0.172508	8.75	-16.45	13.58	-0.009	0.3624	-0.2736	
0.077104	-0.973438	0.142862	9.87	-19.46	16.73	-0.0075	0.3579	-0.2721	
0.104676	-0.955748	0.163236	8.82	-26.04	19.88	-0.0148	0.364	-0.2765	
0.086498	-0.945256	0.195688	7.56	-28.49	20.16	-0.0133	0.3533	-0.2736	
-0.023668	-1.016016	0.207156	5.53	-27.3	21.56	-0.0192	0.3611	-0.2659	
-0.084912	-1.045418	0.122732	7.77	-28.77	26.32	0.0011	0.3548	-0.2692	
-0.10736	-1.030778	0.028548	11.83	-37.59	31.71	-0.0089	0.3578	-0.2767	
-0.010492	-0.945256	0.057218	13.3	-53.69	32.27	-0.0089	0.3516	-0.2813	
0.052582	-0.96014	0.093086	11.83	-60.55	25.9	-0.0075	0.3548	-0.2721	
0.014396	-0.970022	0.10126	11.9	-60.62	21.07	-0.0031	0.3562	-0.2813	
0.020862	-0.98881	0.050508	15.68	-63.91	21.98	-0.0161	0.3533	-0.2782	
0.077714	-0.929518	0.026474	20.79	-69.44	21.77	-0.0161	0.3441	-0.2722	
0.199348	-0.943426	0.143594	17.08	-87.78	17.57	-0.0335	0.3457	-0.2811	
0.199714	-1.01382	0.19032	15.19	-82.39	17.01	-0.0335	0.3427	-0.2735	
0.136152	-1.002718	0.251808	17.08	-80.5	28.35	-0.0393	0.3427	-0.2781	
0.029158	-1.04371	0.179218	26.53	-84.98	15.4	-0.0435	0.3365	-0.2857	
0.106018	-0.861808	0.106506	27.72	-89.46	31.78	-0.0551	0.3442	-0.2901	
0.231678	-0.793854	0.171166	20.16	-97.37	24.01	-0.0623	0.3305	-0.2871	
0.215574	-0.91744	0.22509	16.31	-87.64	8.26	-0.0624	0.3428	-0.287	
0.144448	-1.014552	0.254858	23.73	-76.23	3.22	-0.07669999	0.3306	-0.2916	
0.14091	-0.94062	0.192516	27.93	-69.86	8.89	-0.08679999	0.326	-0.2976	
0.15067	-0.895114	0.20008	20.65	-63.42	12.04	-0.08549999	0.3276	-0.2869	
0.161528	-0.930128	0.245586	14.56	-63.49	9.73	-0.094	0.3199	-0.2946	
0.165554	-0.944036	0.266204	12.11	-59.99	10.36	-0.097	0.3322	-0.2959	
0.159454	-0.930738	0.28182	12.6	-60.13	10.22	-0.1029	0.3308	-0.2883	
0.193858	-0.896822	0.269254	12.6	-57.54	11.27	-0.097	0.3276	-0.2914	
0.216428	-0.87535	0.276696	10.5	-52.08	8.33	-0.1158	0.3232	-0.2913	
0.202764	-0.90463	0.27328	8.26	-40.6	5.6	-0.1158	0.3202	-0.2883	
0.153354	-0.944402	0.254126	7.56	-31.36	3.92	-0.1202	0.3156	-0.2883	
0.118096	-0.965752	0.239486	8.47	-28.91	5.11	-0.1215	0.3155	-0.2959	
0.1342	-0.97112	0.241682	9.17	-29.54	7.56	-0.1288	0.314	-0.2958	
0.153232	-0.93147	0.20313	9.73	-30.38	9.8	-0.1274	0.3156	-0.2882	
0.199958	-0.883158	0.217282	5.46	-32.55	9.87	-0.1332	0.3096	-0.2897	
0.217648	-0.920612	0.236558	1.19	-29.89	3.71	-0.1302	0.3141	-0.2943	
0.188856	-0.94977	0.250832	1.33	-23.8	1.96	-0.1376	0.3188	-0.282	
0.188368	-0.937326	0.23424	3.92	-18.13	3.85	-0.1347	0.3051	-0.2821	
0.218014	-0.925858	0.242414	4.06	-16.87	2.87	-0.1303	0.3111	-0.2897	
0.21228	-0.943304	0.261934	3.5	-13.44	0.42	-0.1346	0.3111	-0.2866	
0.190198	-0.94794	0.253516	5.32	-10.22	-0.07	-0.1477	0.3143	-0.288	
0.174826	-0.93879	0.210572	7.21	-7.77	-1.68	-0.1491	0.3112	-0.2865	
0.155062	-0.932446	0.202398	7.98	-3.01	-2.1	-0.1462	0.3112	-0.2896	
0.199958	-0.946232	0.254126	7.42	-6.16	-1.68	-0.1462	0.3158	-0.2895	
0.239242	-0.927932	0.274988	6.09	-3.64	-0.56	-0.1462	0.3081	-0.2866	
0.24705	-0.925736	0.282552	5.04	2.73	-0.28	-0.142	0.3158	-0.2835	
0.21716	-0.917318	0.25742	4.76	10.5	-1.19	-0.1477	0.3112	-0.2911	
0.189344	-0.91866	0.242902	3.78	14.63	-3.57	-0.1404	0.3066	-0.2851	
0.164212	-0.940376	0.24034	3.71	16.17	-5.18	-0.139	0.3142	-0.2911	
0.15677	-0.949526	0.248758	4.34	15.96	-4.55	-0.1418	0.302	-0.2897	
0.174948	-0.93879	0.262178	4.62	15.33	-3.43	-0.133	0.3094	-0.3019	
0.181902	-0.942816	0.267424	4.48	16.31	-4.2	-0.1346	0.308	-0.2897	
0.16348	-0.945622	0.262422	4.76	18.55	-4.2	-0.1274	0.311	-0.2913	
0.140422	-0.94123	0.257176	4.13	19.95	-3.57	-0.1418	0.308	-0.2942	
0.130174	-0.944402	0.254736	4.41	18.48	-2.24	-0.1302	0.3079	-0.2974	
0.139812	-0.931958	0.26352	4.55	15.47	-1.19	-0.1344	0.3018	-0.302	
0.136152	-0.928908	0.27267	4.55	14	-1.82	-0.1346	0.3095	-0.2958	
0.130662	-0.935252	0.274012	4.06	13.37	-1.89	-0.1315	0.2957	-0.3006	
0.122122	-0.935496	0.27999	3.71	11.97	-1.26	-0.1228	0.3047	-0.3051	
0.111996	-0.936228	0.274256	2.73	11.13	0.21	-0.1272	0.3063	-0.302	
0.107848	-0.92598	0.268278	1.4	9.03	2.03	-0.1301	0.3002	-0.3021	
0.108824	-0.937204	0.285968	-0.35	5.6	2.45	-0.1256	0.3046	-0.3173	
0.118218	-0.955382	0.282064	1.54	2.17	3.36	-0.1242	0.3001	-0.3097	
0.12322	-0.930982	0.270596	3.57	2.31	5.39	-0.1185	0.2986	-0.3052	
0.136396	-0.916586	0.27755	2.87	1.68	4.97	-0.1141	0.3016	-0.3098	
0.128344	-0.934154	0.278404	1.89	1.33	3.15	-0.1184	0.3	-0.3159	
0.106384	-0.95282	0.262056	3.36	2.52	3.15	-0.1228	0.2971	-0.3067	
0.10004	-0.947696	0.252906	5.11	2.45	5.18	-0.117	0.3	-0.3113	
0.097234	-0.94306	0.286578	6.44	1.68	5.81	-0.114	0.3015	-0.3144	
0.120658	-0.944524	0.319762	7.77	-4.55	7	-0.1169	0.2969	-0.3144	
0.122122	-0.910364	0.307074	8.75	-3.22	5.53	-0.1111	0.2999	-0.319	
0.115778	-0.903898	0.294264	8.26	-2.52	3.64	-0.1112	0.2985	-0.3099	
0.1098	-0.885476	0.256566	2.17	-1.19	1.54	-0.1198	0.3	-0.3128	
0.0976	-0.906948	0.271694	-4.13	-4.97	-1.61	-0.1197	0.2877	-0.3206	
0.08723	-0.94489	0.286822	-4.83	-5.18	-0.63	-0.1198	0.3	-0.3174	
0.152988	-0.933056	0.321592	-4.83	-6.3	2.17	-0.1227	0.2955	-0.3098	
0.1464	-0.935008	0.362828	-4.48	2.38	3.71	-0.1184	0.2985	-0.3129	
0.138958	-0.943304	0.338306	0.49	5.67	3.78	-0.1183	0.2984	-0.3174	
0.141032	-0.917806	0.305122	2.45	7.84	3.22	-0.1227	0.297	-0.3128	
0.138958	-0.913536	0.29707	1.12	6.93	0.91	-0.1125	0.2938	-0.3145	
0.142618	-0.930738	0.294264	-3.43	8.12	-0.35	-0.1183	0.3015	-0.3189	
0.140422	-0.950136	0.30927	-5.18	8.75	1.19	-0.1111	0.2969	-0.313	
0.150426	-0.920978	0.297924	-6.23	14.21	4.76	-0.1052	0.2983	-0.3237	
0.11285	-0.917562	0.284016	-7	20.09	5.25	-0.1111	0.2892	-0.3146	
0.091012	-0.91805	0.286334	-5.18	19.53	4.41	-0.1039	0.2999	-0.3115	
0.074786	-0.91988	0.305854	-3.01	17.78	3.57	-0.1097	0.3045	-0.3144	
0.071736	-0.921222	0.30622	0.56	17.78	2.03	-0.0995	0.2968	-0.3161	
0.041358	-0.935008	0.264618	6.3	20.02	0.49	-0.0995	0.2953	-0.3177	
0.000732	-0.928664	0.24278	10.99	18.13	0.84	-0.0966	0.2968	-0.3161	
0.00244	-0.93757	0.283284	13.44	8.54	0.7	-0.0981	0.3075	-0.3145	
0.00732	-0.962214	0.319274	15.12	1.4	0.77	-0.0951	0.2907	-0.3132	
0.007929999	-0.948184	0.346114	17.5	-4.83	4.13	-0.0923	0.3028	-0.3207	
0.022692	-0.91439	0.328058	18.69	-7.35	6.72	-0.0979	0.2966	-0.3283	
0.027206	-0.89853	0.326838	16.03	-10.85	7.84	-0.0935	0.2859	-0.3285	
0.05795	-0.891576	0.343674	12.32	-16.8	8.19	-0.095	0.2906	-0.3239	
0.09089	-0.889746	0.353068	8.33	-18.62	7.63	-0.0935	0.2889	-0.333	
0.113582	-0.886086	0.3599	5.53	-16.94	6.02	-0.0936	0.2829	-0.3209	
0.115168	-0.884378	0.35746	4.97	-13.65	3.78	-0.0951	0.2952	-0.3208	
0.109922	-0.889868	0.353312	4.97	-10.85	2.1	-0.1008	0.2936	-0.3299	
0.12871	-0.905972	0.369538	4.76	-9.87	0.35	-0.0993	0.2829	-0.3315	
0.120414	-0.929152	0.35441	6.72	-5.81	-2.87	-0.1066	0.2906	-0.3314	
0.103456	-0.913536	0.330376	8.19	-1.61	-3.22	-0.1008	0.292	-0.3345	
0.106628	-0.902556	0.332694	8.61	-2.59	-4.2	-0.1095	0.2876	-0.3283	
0.11834	-0.899994	0.338916	8.47	-3.08	-5.88	-0.1066	0.2875	-0.3299	
0.104798	-0.904508	0.3538	9.1	-1.05	-8.12	-0.1021	0.2737	-0.3347	
0.094306	-0.896578	0.382592	9.66	1.75	-10.08	-0.1064	0.2752	-0.3361	
0.102358	-0.901458	0.38125	9.8	4.83	-12.81	-0.1108	0.2829	-0.336	
0.09552599	-0.898408	0.37454	9.24	6.02	-13.86	-0.1094	0.2738	-0.33	
0.085766	-0.904752	0.358314	5.25	11.55	-11.76	-0.1195	0.2799	-0.3359	
0.055998	-0.911096	0.34892	2.94	11.2	-8.12	-0.1122	0.2797	-0.3452	
0.045018	-0.906704	0.354776	1.89	8.47	-4.41	-0.1006	0.2873	-0.3437	
0.029036	-0.909388	0.355386	2.17	5.04	-2.24	-0.1036	0.2783	-0.33	
0.024644	-0.906216	0.369172	3.01	-0.91	-0.49	-0.1094	0.2799	-0.3284	
0.036478	-0.888892	0.385276	3.71	-4.9	0.91	-0.1122	0.2706	-0.3376	
0.031598	-0.887794	0.382348	4.13	-5.67	0.35	-0.1064	0.2752	-0.3376	
0.025254	-0.889502	0.382714	5.32	-8.54	0.49	-0.1005	0.2659	-0.3424	
0.054656	-0.895968	0.40138	4.76	-13.79	0.56	-0.1107	0.2646	-0.3347	
0.089914	-0.891576	0.404918	3.99	-16.1	2.73	-0.1078	0.2752	-0.3422	
0.145058	-0.87657	0.38369	4.34	-16.38	6.58	-0.1151	0.2676	-0.3361	
0.19581	-0.870226	0.391742	3.43	-14.42	8.61	-0.1137	0.2676	-0.3331	
0.206546	-0.851072	0.409432	1.26	-8.89	8.05	-0.118	0.2707	-0.3361	
0.193004	-0.854244	0.405894	-1.12	-4.76	6.51	-0.118	0.2646	-0.3346	
0.204716	-0.865468	0.405528	-3.08	-2.45	4.9	-0.1238	0.2783	-0.3451	
0.1952	-0.90158	0.39833	-3.08	1.05	1.4	-0.115	0.266	-0.3407	
0.18422	-0.924272	0.38125	-1.12	3.85	-1.47	-0.1136	0.2676	-0.3407	
0.177266	-0.916586	0.373076	0.7	5.95	-2.52	-0.1107	0.2676	-0.3392	
0.159454	-0.903776	0.383446	0.7	8.89	-4.27	-0.118	0.2707	-0.3345	
0.140422	-0.889014	0.392474	1.12	10.15	-6.44	-0.1137	0.2646	-0.3316	
0.13237	-0.872544	0.390034	1.19	13.72	-7	-0.1063	0.266	-0.3408	
0.12749	-0.879986	0.385398	1.12	14.49	-8.05	-0.1093	0.2798	-0.3391	
0.11163	-0.883524	0.372344	0.49	15.33	-8.96	-0.1093	0.2737	-0.3392	
0.077714	-0.875594	0.35075	-1.12	12.39	-6.93	-0.1077	0.2614	-0.3408	
0.08784	-0.886086	0.36112	-2.52	6.93	-6.58	-0.1035	0.2721	-0.3377	
0.098942	-0.898896	0.377712	-2.66	4.13	-7.42	-0.1064	0.266	-0.3362	
0.100162	-0.909632	0.377102	-2.03	5.18	-7.14	-0.1063	0.2674	-0.3499	
0.098332	-0.926834	0.375638	-0.98	5.6	-6.44	-0.1063	0.2674	-0.3499	
0.093452	-0.932568	0.37576	0.63	5.18	-4.62	-0.1078	0.266	-0.3423	
0.090158	-0.924272	0.36966	2.38	5.04	-2.45	-0.1077	0.2583	-0.3454	
0.086132	-0.912926	0.365756	3.5	3.85	-0.84	-0.1078	0.2615	-0.3347	
0.087474	-0.906582	0.371246	3.99	2.66	0	-0.102	0.2705	-0.3423	
0.089182	-0.906338	0.378444	4.2	0.7	0.14	-0.1121	0.2675	-0.3468	
0.097112	-0.893162	0.379542	4.55	-0.84	0.98	-0.1092	0.2568	-0.3424	
0.1037	-0.877912	0.383934	4.27	-1.33	2.17	-0.1005	0.2629	-0.3394	
0.119072	-0.87047	0.399428	2.8	-1.26	1.89	-0.1048	0.2659	-0.3515	
0.129564	-0.870958	0.403576	1.47	-0.98	0	-0.1164	0.2554	-0.3393	
0.128832	-0.874984	0.402234	0.07	0.56	-1.26	-0.1091	0.2629	-0.3484	
0.126026	-0.87474	0.397354	-1.05	2.59	-1.68	-0.1034	0.2538	-0.3379	
0.108946	-0.88877	0.386374	-2.31	3.5	-2.8	-0.1005	0.2644	-0.3409	