Sensor string: E
Serial number: 1970-01-0000
Firmware version: 2,015
Hardware version: 2,2
Calibration quality: 5
ax	ay	az	gx	gy	gz	mx	my	mz

-0.99003	0.139324	-0.176534	-0.21	-0.28	-0.14	0.4529	-0.0044	-0.2073	Reference
-0.992592	0.13969	-0.175802	-0.07	-0.28	-0.07	0.4631	-0.0045	-0.1935	
-0.992714	0.140788	-0.17751	0.21	-0.14	-0.07	0.4644	-0.0031	-0.2118	
-0.99186	0.13969	-0.177876	0.42	0.21	-0.14	0.4647	-0.0183	-0.2043	
-0.991372	0.139446	-0.178852	0.42	0.28	-0.21	0.4718	-0.0092	-0.2057	
-0.990762	0.139934	-0.179706	0.21	0.14	-0.28	0.466	-0.0107	-0.2027	
-0.99186	0.139934	-0.17873	-0.07	-0.07	-0.21	0.459	-0.0197	-0.1829	
-0.991982	0.139324	-0.176534	0.07	-0.14	-0.21	0.4529	-0.0029	-0.2028	
-0.991006	0.139446	-0.176534	0.14	-0.07	-0.21	0.466	-0.0122	-0.2088	
-0.990152	0.139934	-0.176778	0.07	0.07	-0.14	0.4574	-0.009	-0.1966	
-0.989298	0.139202	-0.174948	0.07	0.14	-0.14	0.4572	0	-0.1981	
-0.989176	0.137982	-0.176534	0	0.07	-0.14	0.4589	-0.0182	-0.1967	
-0.989298	0.138958	-0.176656	0	0	-0.14	0.4559	-0.0044	-0.1936	
-0.989664	0.139568	-0.177266	0.07	-0.14	-0.07	0.4588	-0.0137	-0.2043	
-0.991494	0.139324	-0.17812	0	-0.21	-0.07	0.4546	-0.012	-0.189	
-0.992348	0.140422	-0.17812	0	-0.28	-0.07	0.4617	-0.0106	-0.1997	
-0.992592	0.141642	-0.177998	0.07	-0.07	-0.14	0.4575	-0.0197	-0.2028	
-0.992348	0.140056	-0.17751	0.14	0	-0.14	0.453	-0.0059	-0.1906	
-0.99186	0.140056	-0.17751	0.28	0.21	-0.21	0.453	-0.0105	-0.2043	
-0.99186	0.140056	-0.17751	0.21	0.28	-0.21	0.4574	-0.0167	-0.1997	
-0.991006	0.1403	-0.177998	0.07	0.21	-0.21	0.4705	-0.0138	-0.195	
-0.989786	0.139446	-0.177144	-0.07	0	-0.14	0.4602	-0.0075	-0.1966	
-0.989664	0.138958	-0.176046	-0.14	0	-0.07	0.4646	-0.0076	-0.1905	
-0.99064	0.13847	-0.176412	-0.14	0.07	0	0.4544	-0.0059	-0.1997	
-0.990152	0.139934	-0.17568	-0.07	0.07	0	0.4689	-0.0138	-0.2073	
-0.990762	0.138592	-0.176168	0.14	0.07	-0.07	0.4646	-0.009099999	-0.1966	
-0.991006	0.13908	-0.17751	0.21	0.07	-0.07	0.4616	0.0031	-0.1859	
-0.991128	0.140422	-0.177754	0.14	0.07	-0.07	0.4618	-0.0167	-0.2027	
-0.991494	0.140788	-0.177022	0.14	0.07	0	0.466	-0.0092	-0.2057	
-0.99186	0.140056	-0.17873	0.14	0.07	-0.07	0.4617	-0.009099999	-0.1997	
-0.99186	0.139812	-0.178364	0.21	0.07	-0.14	0.4617	-0.0106	-0.1997	
-0.991128	0.138958	-0.17751	0.42	0.14	-0.14	0.4603	-0.0167	-0.2043	
-0.990762	0.1403	-0.177022	0.42	0.21	-0.14	0.4646	-0.0107	-0.2012	
-0.99003	0.1403	-0.176412	0.49	0.14	-0.28	0.4645	-0.0061	-0.2057	
-0.990152	0.140056	-0.175314	0.63	0.14	-0.21	0.4531	-0.012	-0.1936	
-0.991128	0.138226	-0.177876	0.63	0.35	-0.14	0.4776	-0.0108	-0.2011	
-0.991128	0.138348	-0.17995	0.63	0.49	-0.07	0.4618	-0.0137	-0.1966	
-0.99064	0.138592	-0.179828	0.49	0.28	0	0.4574	-0.0105	-0.1936	
-0.99125	0.139324	-0.17995	0.28	0.07	0	0.4675	-0.0122	-0.2027	
-0.991616	0.139568	-0.179096	0.21	-0.21	0	0.4559	-0.0044	-0.189	
-0.991372	0.138714	-0.177022	0.42	-0.21	-0.07	0.4661	-0.0168	-0.1981	
-0.99003	0.139324	-0.175436	0.63	0.21	-0.07	0.4646	-0.0122	-0.2012	
-0.990518	0.139324	-0.1769	0.35	0.49	-0.07	0.4574	-0.0075	-0.1966	
-0.98942	0.139446	-0.17751	0.07	0.56	0	0.4749	-0.0153	-0.1859	
-0.989298	0.138958	-0.1769	-0.07	0.56	0.14	0.4559	-0.0075	-0.1905	
-0.989176	0.139446	-0.178486	0.07	0.14	0	0.4617	-0.009099999	-0.1936	
-0.99125	0.139324	-0.177266	0.35	-0.14	0	0.4603	-0.0075	-0.1951	
-0.991372	0.140178	-0.17812	0.63	0.35	0.07	0.4688	-0.0046	-0.2042	
-0.992592	0.141276	-0.180438	0.63	0.84	0.07	0.459	-0.0182	-0.1906	
-0.992348	0.14091	-0.182756	0.49	0.63	-0.07	0.4561	-0.0182	-0.1906	
-0.990396	0.139446	-0.181536	0.35	0.35	-0.21	0.4661	-0.0107	-0.192	
-0.99125	0.139202	-0.18178	0.28	0.28	-0.28	0.4631	-0.009099999	-0.2027	
-0.99125	0.138836	-0.180072	0.14	-0.07	-0.14	0.4559	-0.0121	-0.2028	
-0.99003	0.139446	-0.17995	0.07	-0.14	-0.07	0.453	-0.012	-0.2028	
-0.991006	0.139812	-0.17934	0.21	0	0	0.4632	-0.0168	-0.2012	
-0.990884	0.139324	-0.179706	0.14	0	0.07	0.4691	-0.0183	-0.1951	
-0.991494	0.139324	-0.179584	0.28	0.07	0.07	0.4644	0.0045	-0.1996	
-0.990884	0.139934	-0.18056	0.28	0.28	0	0.466	-0.0046	-0.1966	
-0.989786	0.13847	-0.18117	0.28	0.42	-0.14	0.4631	-0.0122	-0.2073	
-0.99003	0.13908	-0.17934	0.21	0.28	-0.21	0.4617	-0.0106	-0.2027	
-0.988566	0.138592	-0.17934	0.21	0.07	-0.21	0.4559	-0.009	-0.2073	
-0.98881	0.139324	-0.178242	0.21	0	-0.14	0.4631	-0.0061	-0.2042	
-0.988932	0.139324	-0.178852	0.21	0.14	-0.07	0.4617	-0.009099999	-0.2042	
-0.989908	0.140788	-0.179096	0.28	-0.07	-0.07	0.4589	-0.0136	-0.1982	
-0.990396	0.140178	-0.179828	0.35	-0.07	-0.21	0.4601	-0.0014	-0.2012	
-0.991128	0.140666	-0.180438	0.42	-0.14	-0.35	0.4719	-0.0123	-0.1966	
-0.989542	0.140788	-0.179096	0.35	-0.14	-0.35	0.4617	-0.0106	-0.1966	
-0.989542	0.139202	-0.178974	0.14	0	-0.28	0.4646	-0.0122	-0.1981	
-0.989908	0.138348	-0.180316	0	0	-0.14	0.4674	-0.0046	-0.1981	
-0.990884	0.137982	-0.181536	-0.21	-0.07	-0.07	0.4586	0.003	-0.2073	
-0.991006	0.137738	-0.181292	-0.28	0.14	-0.14	0.4617	-0.0122	-0.2058	
-0.99064	0.137494	-0.181536	-0.14	0.07	-0.21	0.4718	-0.0077	-0.2088	
-0.990518	0.136762	-0.180682	-0.07	-0.14	-0.21	0.4661	-0.0138	-0.2058	
-0.990274	0.13786	-0.178852	0.07	-0.14	-0.21	0.4646	-0.0122	-0.2027	
-0.99064	0.138836	-0.180316	0.07	-0.07	-0.14	0.4674	-0.0046	-0.2073	
-0.988078	0.138714	-0.178242	0.21	-0.21	-0.14	0.4631	-0.009099999	-0.2073	
-0.990518	0.141398	-0.177388	0.07	-0.42	-0.14	0.4587	-0.0014	-0.1997	
-0.99125	0.140788	-0.176656	-0.14	-0.14	0	0.4617	-0.009099999	-0.1951	
-0.991738	0.138836	-0.180438	-0.35	0.35	0	0.4604	-0.0121	-0.189	
-0.992348	0.139324	-0.180682	-0.28	0.42	-0.07	0.4589	-0.0151	-0.1921	
-0.99125	0.14091	-0.18117	-0.07	0.14	-0.07	0.4631	-0.0076	-0.1981	
-0.991616	0.140178	-0.182878	0	-0.14	-0.21	0.4661	-0.0122	-0.1996	
-0.990762	0.139324	-0.180072	0	-0.14	-0.21	0.4616	-0.0076	-0.2042	
-0.989054	0.137982	-0.175802	-0.07	-0.07	-0.14	0.4617	-0.0076	-0.1951	
-0.989176	0.138348	-0.176168	-0.14	0	-0.14	0.4616	-0.0015	-0.2027	
-0.98881	0.138348	-0.177754	-0.21	0.21	-0.14	0.466	-0.0061	-0.1981	
-0.988688	0.138348	-0.180194	-0.14	0.14	-0.14	0.4646	-0.0076	-0.1951	
-0.988444	0.138104	-0.179828	0	-0.21	-0.14	0.4632	-0.0168	-0.1997	
-0.991616	0.139202	-0.178852	0.14	-0.42	-0.14	0.466	-0.0046	-0.1981	
-0.991494	0.139934	-0.179218	0.07	-0.21	0	0.4675	-0.0092	-0.195	
-0.99186	0.140544	-0.180194	-0.14	0.14	0	0.4632	-0.0183	-0.2073	
-0.990152	0.139324	-0.17934	-0.28	0.14	-0.07	0.4675	-0.0076	-0.1981	
-0.989542	0.138958	-0.178608	-0.21	0.07	-0.07	0.4573	-0.0106	-0.2073	
-0.989908	0.139812	-0.17934	0	-0.07	-0.07	0.4603	-0.0121	-0.2043	
-0.99125	0.139812	-0.178364	0.21	0	-0.07	0.4631	-0.0045	-0.1981	
-0.991982	0.1403	-0.179584	0	0.14	-0.07	0.4645	-0.0061	-0.2057	
-0.99186	0.140422	-0.181048	-0.07	0.21	-0.07	0.4573	-0.009	-0.2012	
-0.991738	0.140422	-0.181048	-0.14	0.28	-0.07	0.4644	0	-0.2042	
-0.991006	0.139324	-0.179706	-0.14	0.14	-0.14	0.4602	-0.0014	-0.1951	
-0.991006	0.13969	-0.179706	-0.07	0	-0.21	0.4589	-0.0182	-0.1982	
-0.991494	0.139934	-0.180194	0.07	0	-0.21	0.4633	-0.0213	-0.1921	
-0.991372	0.139446	-0.179828	0.07	0.14	-0.21	0.4603	-0.0183	-0.2058	
-0.991616	0.139446	-0.180682	0.07	0.21	-0.14	0.4675	-0.0138	-0.2042	
-0.989786	0.139568	-0.179218	-0.14	0.35	-0.14	0.4617	-0.009099999	-0.1997	
-0.989786	0.139568	-0.179828	-0.28	0.28	-0.14	0.4588	-0.0106	-0.2073	
-0.989908	0.139324	-0.179584	-0.28	0.14	-0.21	0.4603	-0.0137	-0.1997	
-0.98942	0.138226	-0.177998	-0.21	0.14	-0.21	0.4631	-0.0045	-0.1966	
-0.988688	0.137128	-0.175924	-0.07	0.14	-0.14	0.4718	-0.0077	-0.195	
-0.990274	0.137982	-0.17385	0	0.28	-0.07	0.4617	-0.0106	-0.1981	
-0.994544	0.142984	-0.178364	0.42	0.98	0	0.4733	-0.0138	-0.2042	
-0.997838	0.144082	-0.18666	0.63	1.68	0	0.4719	-0.0153	-0.195	
-1.000156	0.143106	-0.193248	0.35	2.66	-0.07	0.4645	-0.0076	-0.2058	
-0.997838	0.141398	-0.195444	-0.14	2.73	-0.28	0.4589	-0.0167	-0.2043	
-0.996374	0.142984	-0.197152	-0.35	2.59	-0.49	0.4703	-0.0046	-0.2011	
-0.997472	0.142618	-0.198738	-0.56	1.54	-0.63	0.4603	-0.0136	-0.1951	
-0.995764	0.142008	-0.193736	-0.56	0.35	-0.98	0.4574	-0.0106	-0.1982	
-0.996008	0.153232	-0.191052	1.4	-1.12	-1.96	0.4574	-0.006	-0.1905	
-0.993812	0.14213	-0.186782	-0.28	-0.14	-1.12	0.4661	-0.0138	-0.2042	
-0.99064	0.13847	-0.180194	-1.12	-0.91	-0.98	0.4617	-0.0045	-0.1874	
-0.99003	0.135786	-0.180926	-1.4	-0.84	-0.91	0.4545	-0.0059	-0.1936	
-0.992714	0.134688	-0.17995	-1.4	0.21	-0.56	0.4632	-0.0076	-0.192	
-0.994178	0.134322	-0.178974	-1.4	0.7	-0.42	0.4559	-0.0059	-0.1951	
-0.996374	0.1403	-0.185684	0	1.89	-0.84	0.4646	-0.0122	-0.1966	
-0.999546	0.140788	-0.189954	-0.42	3.71	-0.35	0.4747	-0.0016	-0.1934	
-0.998448	0.141154	-0.19581	-1.12	2.94	-0.35	0.4703	-0.0016	-0.2011	
-0.997228	0.140666	-0.196664	-1.33	2.59	-0.28	0.4588	-0.0075	-0.1997	
-0.99674	0.138104	-0.197152	-1.82	2.59	-0.14	0.469	-0.0138	-0.2027	
-0.99918	0.136274	-0.197396	-1.75	2.59	-0.07	0.4604	-0.0167	-0.1936	
-0.995398	0.137738	-0.195078	-1.4	1.96	-0.28	0.4631	-0.0045	-0.1981	
-0.993934	0.141886	-0.19276	-0.98	1.12	-0.63	0.4688	-0.0015	-0.1981	
-0.989908	0.145912	-0.188856	-1.33	-0.84	-0.91	0.456	-0.0105	-0.1921	
-0.991616	0.14335	-0.193004	-2.24	-1.4	-0.7	0.4574	-0.0136	-0.2012	
-0.997472	0.14091	-0.197518	-3.64	-1.05	0.14	0.4646	-0.0122	-0.1966	
-1.010648	0.141154	-0.20557	-4.2	0.63	0.63	0.4601	0	-0.2042	
-1.023092	0.145546	-0.220454	-5.25	0.49	1.05	0.4603	-0.0106	-0.1951	
-1.034926	0.149572	-0.239608	-5.67	0.07	1.05	0.4617	-0.0122	-0.2058	
-1.046516	0.155428	-0.249734	-5.6	-0.49	0.84	0.4617	-0.0045	-0.1966	
-1.055544	0.157746	-0.248148	-6.02	-1.68	0.91	0.4617	-0.009099999	-0.1936	
-1.060668	0.154818	-0.24156	-6.16	-1.89	1.12	0.4588	-0.0044	-0.192	
-1.058106	0.148718	-0.22936	-6.44	-3.64	0.91	0.4674	-0.0031	-0.2088	
-1.038708	0.14152	-0.210572	-7.21	-5.46	0.84	0.4748	-0.0154	-0.1965	
-1.006866	0.136518	-0.193126	-7.21	-7.07	0.98	0.4646	-0.0138	-0.2104	
-0.986614	0.1464	-0.19398	-6.51	-5.67	1.33	0.4659	0.003	-0.2027	
-0.990396	0.148718	-0.192272	-7.49	-4.69	2.1	0.4676	-0.0199	-0.1966	
-1.002962	0.144326	-0.181414	-8.96	-7	2.94	0.4674	-0.0031	-0.2042	
-1.006988	0.147498	-0.17141	-9.24	-8.75	3.43	0.4617	-0.0152	-0.2058	
-1.00284	0.15067	-0.168848	-9.45	-6.93	4.27	0.4645	-0.0061	-0.2057	
-1.003694	0.152134	-0.15982	-7.91	-7.56	3.5	0.4602	-0.009099999	-0.2073	
-0.998936	0.151768	-0.16043	-5.88	-9.17	2.17	0.4558	-0.009	-0.2089	
-0.991738	0.14945	-0.161772	-4.41	-10.36	1.4	0.466	-0.0076	-0.2027	
-0.987712	0.151524	-0.161894	-2.59	-10.22	0.77	0.4617	-0.0122	-0.2043	
-0.980636	0.153598	-0.165554	-2.59	-8.75	0.77	0.4558	-0.0029	-0.2089	
-0.984418	0.156892	-0.156892	-4.55	-11.55	0.49	0.4587	-0.006	-0.2058	
-0.9821	0.164212	-0.149694	-4.62	-14.98	0.14	0.4632	-0.0122	-0.2042	
-0.9821	0.163236	-0.14762	-3.29	-17.08	0.07	0.4688	-0.0092	-0.2134	
-0.985394	0.156038	-0.137738	-2.24	-17.5	0.14	0.4556	0.0015	-0.2226	
-0.990152	0.153476	-0.126148	-2.59	-19.04	0.35	0.4572	-0.009099999	-0.2257	
-0.985394	0.161284	-0.110288	-2.52	-19.04	-0.28	0.4571	-0.0045	-0.2272	
-0.986004	0.169946	-0.101016	-2.87	-17.57	-1.19	0.4571	-0.003	-0.2287	
-0.982466	0.173972	-0.092842	-4.27	-18.06	-1.96	0.4571	-0.0015	-0.2256	
-0.978318	0.166774	-0.08479	-5.11	-18.55	-2.17	0.4541	-0.003	-0.2379	
-0.966728	0.160552	-0.07808	-6.72	-19.39	-2.59	0.454	0.0061	-0.2409	
-0.96807	0.145424	-0.05673	-6.3	-17.64	-0.35	0.4511	0.0092	-0.2379	
-0.969046	0.141886	-0.046726	-5.46	-16.87	-0.28	0.441	0.0016	-0.2441	
-0.965264	0.139202	-0.040626	-4.97	-16.52	-0.91	0.4439	0.0016	-0.244	
-0.959042	0.142496	-0.026596	-5.39	-15.96	-1.47	0.4425	-0.0059	-0.2487	
-0.970754	0.143838	-0.014762	-6.16	-15.19	-1.82	0.4351	0.0063	-0.2517	
-0.966362	0.141398	-0.00854	-5.95	-13.09	-1.75	0.4409	0.0031	-0.2563	
-0.971486	0.134566	-0.006832	-7.14	-12.81	-1.61	0.4423	0.0062	-0.2532	
-0.977342	0.134078	-0.006344	-7	-10.85	-0.77	0.4423	0.0108	-0.2501	
-0.97295	0.132126	0.00549	-6.44	-9.59	-0.21	0.4381	0.0017	-0.2517	
-0.969046	0.134932	0.008417999	-4.83	-7.63	0.28	0.4424	0.0047	-0.2456	
-0.960994	0.138836	0.007929999	-3.78	-5.74	0.98	0.4437	0.0123	-0.2532	
-0.96258	0.142862	0.010492	-3.78	-4.69	0.98	0.4408	0.0031	-0.2685	
-0.959896	0.138104	0.010004	-2.66	-1.96	0.91	0.4379	0.0077	-0.2685	
-0.956602	0.13115	0.014152	-2.1	-1.05	0.56	0.4366	0.0017	-0.2594	
-0.954406	0.131638	0.014152	-1.12	0.42	0.07	0.4381	0.0001	-0.2502	
-0.959042	0.127612	0.018544	-0.28	2.17	-0.07	0.4336	0.0047	-0.2716	
-0.95648	0.125172	0.022082	0.35	2.87	0	0.4423	0.0046	-0.2639	
-0.954406	0.12993	0.020008	1.26	4.9	0.35	0.4409	0.0016	-0.2624	
-0.953064	0.135298	0.016348	1.12	6.02	0.49	0.4409	0.0077	-0.2517	
-0.945988	0.135786	0.011346	1.12	7.28	0.35	0.4322	0.0002	-0.2594	
-0.943914	0.134322	0.006832	1.47	9.24	0.14	0.4381	-0.0059	-0.2624	
-0.939156	0.132858	0.002562	2.03	11.27	0.14	0.4351	0.0001	-0.2594	
-0.943914	0.138592	-0.006832	2.73	13.58	0.14	0.4366	0.0001	-0.2533	
-0.947696	0.140422	-0.018056	3.43	13.3	0	0.4511	-0.003	-0.2639	
-0.95404	0.142862	-0.02745	4.34	15.54	0.07	0.4381	0.0017	-0.2517	
-0.965142	0.147864	-0.036112	4.69	16.94	0.56	0.4482	-0.0014	-0.2501	
-0.971852	0.150914	-0.048556	4.76	16.31	0.84	0.4497	0.0061	-0.2394	
-0.97478	0.158478	-0.055388	5.67	17.15	0.35	0.4468	-0.0029	-0.2517	
-0.971364	0.167384	-0.066002	4.06	17.36	0.91	0.4512	-0.0015	-0.2455	
-0.97295	0.152012	-0.061854	3.36	18.2	1.33	0.4426	-0.0074	-0.2364	
-0.967094	0.154574	-0.075762	1.12	16.38	1.82	0.4571	-0.0046	-0.2363	
-0.963922	0.15433	-0.080764	4.06	19.25	2.31	0.447	-0.0029	-0.2272	
-0.960262	0.155428	-0.089182	4.76	20.79	2.59	0.4456	-0.012	-0.2303	
-0.959408	0.152012	-0.096014	4.62	19.95	2.52	0.4529	-0.0182	-0.2334	
-0.95526	0.15616	-0.098942	4.9	19.53	2.1	0.4442	-0.012	-0.2181	
-0.952698	0.158356	-0.100894	4.41	16.59	1.33	0.4615	-0.0015	-0.2226	
-0.951356	0.156038	-0.101138	5.32	16.31	0.84	0.4616	-0.0061	-0.2134	
-0.958554	0.158722	-0.114802	5.39	13.93	0	0.4558	-0.0137	-0.2242	
-0.958798	0.157502	-0.114314	4.48	8.33	-0.84	0.4604	-0.0244	-0.2104	
-0.971486	0.15799	-0.128954	5.11	7.42	-0.98	0.46	0.003	-0.2073	
-0.996862	0.171654	-0.156648	7.21	9.66	-1.54	0.4485	-0.0044	-0.2089	
-1.03334	0.180316	-0.178608	9.31	10.29	-2.73	0.4602	-0.0122	-0.2119	
-1.059326	0.180316	-0.187392	11.34	9.73	-4.48	0.4586	0.0015	-0.2119	
-1.084214	0.172752	-0.210206	13.86	10.15	-6.09	0.4661	-0.0168	-0.2042	
-1.085312	0.156404	-0.218258	17.29	10.01	-7.35	0.4646	-0.0107	-0.2027	
-1.084946	0.143838	-0.222894	19.11	8.68	-7.63	0.4602	-0.0076	-0.2073	
-1.057496	0.134322	-0.22204	17.36	4.41	-5.67	0.4602	-0.0076	-0.2012	
-1.034072	0.133102	-0.219844	15.4	6.44	-2.1	0.4588	-0.0075	-0.2027	
-1.050786	0.146278	-0.2257	12.04	8.05	1.26	0.4661	-0.0168	-0.2042	
-1.02785	0.153598	-0.195566	7.42	3.29	3.5	0.4633	-0.0198	-0.1966	
-0.988566	0.15067	-0.202764	6.44	5.81	5.46	0.4558	-0.0044	-0.1997	
-0.996496	0.146644	-0.212768	5.67	12.74	5.74	0.4574	-0.0151	-0.1982	
-1.01565	0.137982	-0.208986	4.76	15.33	4.97	0.4561	-0.0227	-0.1906	
-1.01138	0.133102	-0.197762	4.34	15.19	3.85	0.4575	-0.0182	-0.1967	
-1.002718	0.140056	-0.204838	4.69	19.67	4.06	0.4646	-0.006	-0.1889	
-0.99735	0.152378	-0.22082	5.18	22.05	4.48	0.4648	-0.0167	-0.1813	
-0.987712	0.159698	-0.23668	4.97	22.19	5.11	0.4692	-0.0168	-0.1798	
-0.983442	0.158234	-0.248758	3.29	20.44	5.53	0.4633	-0.0136	-0.1813	
-0.983076	0.15921	-0.271694	1.26	17.85	5.39	0.4678	-0.0275	-0.1814	
-0.998692	0.163602	-0.284992	0.42	13.51	5.11	0.4707	-0.0183	-0.1737	
-1.005646	0.165066	-0.287432	0.77	8.61	4.41	0.4692	-0.0183	-0.1737	
-1.00894	0.1708	-0.287798	1.05	6.72	3.85	0.4778	-0.0138	-0.1736	
-1.008086	0.173362	-0.285724	2.24	5.39	3.22	0.4619	-0.0121	-0.1676	
-0.997716	0.173972	-0.279014	2.38	4.34	2.59	0.465	-0.0213	-0.1646	
-0.98881	0.172508	-0.268156	2.03	3.36	2.17	0.4679	-0.0244	-0.1676	
-0.974536	0.166896	-0.255712	1.68	1.68	1.82	0.4751	-0.0214	-0.1706	
-0.961726	0.160186	-0.240584	1.54	1.61	2.03	0.4694	-0.0274	-0.1691	
-0.95648	0.154696	-0.232532	1.54	1.47	2.59	0.4707	-0.0198	-0.1691	
-0.9577	0.160308	-0.229238	2.03	0.84	2.87	0.4767	-0.0321	-0.1691	
-0.965874	0.163846	-0.227774	1.96	1.75	3.08	0.4651	-0.032	-0.1676	
-0.970144	0.167506	-0.237656	1.33	3.57	3.08	0.4767	-0.029	-0.1584	
-0.977952	0.171288	-0.251198	1.26	5.74	2.8	0.4608	-0.0334	-0.1616	
-0.97234	0.17019	-0.258518	0.91	6.65	2.45	0.4709	-0.0274	-0.1615	
-0.972218	0.176168	-0.262544	1.61	7.42	2.24	0.4738	-0.029	-0.1615	
-0.975268	0.1769	-0.267424	2.1	5.95	1.82	0.4724	-0.0274	-0.1508	
-0.978562	0.17995	-0.27816	2.03	4.97	1.4	0.4694	-0.0259	-0.1615	
-0.98698	0.179706	-0.287554	1.19	3.71	1.12	0.4652	-0.0304	-0.1539	
-0.989176	0.178974	-0.292312	0.49	2.38	0.77	0.4636	-0.0258	-0.1631	
-0.9882	0.177632	-0.28975	0.77	1.4	0.35	0.4753	-0.029	-0.1492	
-0.984784	0.178852	-0.29219	0.98	0.91	0	0.4709	-0.0274	-0.1508	
-0.981246	0.178364	-0.286578	0.14	-0.21	-0.42	0.4737	-0.0229	-0.1615	
-0.975878	0.177266	-0.277184	-0.7	-0.42	-0.56	0.4751	-0.0214	-0.1584	
-0.975756	0.17629	-0.279014	-0.98	-1.33	-0.91	0.4738	-0.0275	-0.1615	
-0.974414	0.177998	-0.277306	-0.7	-2.38	-1.26	0.4767	-0.0321	-0.1584	
-0.975634	0.1769	-0.269986	-0.49	-2.94	-1.54	0.4738	-0.0305	-0.1569	
-0.982344	0.176656	-0.270962	-0.7	-3.5	-1.82	0.4652	-0.035	-0.1554	
-0.982832	0.176168	-0.27633	-0.98	-2.87	-1.89	0.468	-0.0274	-0.1569	
-0.98271	0.17446	-0.279868	-1.4	-2.8	-2.17	0.4738	-0.0275	-0.1554	
-0.978684	0.174094	-0.274744	-2.03	-3.99	-2.38	0.4708	-0.0213	-0.1599	
-0.981368	0.171532	-0.276574	-2.66	-5.18	-2.8	0.4678	-0.0213	-0.1722	
-0.98454	0.170068	-0.274622	-3.36	-6.65	-3.08	0.4693	-0.0213	-0.163	
-0.988444	0.168116	-0.272304	-3.78	-7.14	-3.08	0.4809	-0.0276	-0.1691	
-0.99064	0.170922	-0.271084	-3.64	-7.35	-3.15	0.4796	-0.0337	-0.1614	
-0.990152	0.174094	-0.271572	-3.64	-7.49	-3.64	0.4723	-0.0275	-0.163	
-0.993324	0.176412	-0.272914	-3.99	-8.4	-4.41	0.4736	-0.0168	-0.1645	
-0.981856	0.16653	-0.279868	-6.58	-14.91	-5.18	0.4663	-0.0152	-0.1661	
-0.991372	0.168482	-0.264496	-5.67	-13.3	-5.32	0.475	-0.0199	-0.1767	
-0.995032	0.167262	-0.24949	-6.93	-14.35	-5.18	0.4765	-0.0199	-0.1721	
-1.00467	0.164212	-0.260592	-6.86	-12.6	-4.9	0.4676	-0.009099999	-0.1828	
-1.016626	0.166774	-0.263276	-7.84	-13.23	-5.18	0.4532	-0.0089	-0.1738	
-1.022116	0.16714	-0.262788	-8.68	-14.35	-5.46	0.472	-0.0153	-0.1798	
-1.035414	0.170922	-0.273158	-9.94	-16.66	-5.95	0.4764	-0.0153	-0.1797	
-1.042612	0.167262	-0.271694	-10.57	-18.13	-6.3	0.4749	-0.0123	-0.1828	
-1.054568	0.15677	-0.273524	-11.41	-19.18	-5.46	0.4776	-0.0032	-0.1873	
-1.05957	0.154818	-0.254858	-10.71	-20.37	-4.27	0.4632	-0.0137	-0.1981	
-1.0614	0.15494	-0.22875	-9.24	-17.71	-3.01	0.4617	-0.006	-0.189	
-1.06445	0.150914	-0.20923	-7.63	-17.08	-2.52	0.4646	-0.0061	-0.1981	
-1.043588	0.141886	-0.189344	-6.72	-19.95	-2.03	0.4586	-0.0045	-0.2149	
-1.0248	0.133834	-0.165798	-5.95	-18.83	-1.33	0.4616	-0.0045	-0.2042	
-1.023458	0.137616	-0.162992	-5.11	-14	0	0.46	0.003	-0.2119	
-1.032608	0.141642	-0.155672	-5.53	-8.75	1.82	0.4572	-0.003	-0.2165	
-1.028704	0.154818	-0.164944	-5.46	-7.7	3.22	0.4643	0.006	-0.2088	
-1.023702	0.167262	-0.17812	-7.21	-5.53	5.39	0.4544	-0.009	-0.2089	
-1.002474	0.165432	-0.178486	-6.3	-10.43	4.34	0.4573	-0.0121	-0.2135	

-0.94855	0.170922	-0.151768	-4.97	-21.91	0.49	0.4558	-0.006	-0.2134	
-0.928054	0.151524	-0.116144	-5.39	-26.46	-0.21	0.4543	-0.0029	-0.2196	
-0.915244	0.145912	-0.085644	-5.74	-28.14	-0.77	0.447	-0.0044	-0.2166	
-0.908534	0.147376	-0.05063	-6.58	-28.35	-0.7	0.4629	-0.0046	-0.2271	
-0.914878	0.147254	-0.028914	-7.56	-27.65	-0.21	0.4542	-0.003	-0.2287	
-0.926224	0.152622	-0.00976	-7	-26.25	0.35	0.4512	-0.0014	-0.2364	
-0.936594	0.149328	0.000732	-5.32	-24.36	0.98	0.4527	-0.009099999	-0.2455	
-0.937448	0.14457	0.005856	-3.85	-20.51	1.12	0.4425	-0.0013	-0.2471	
-0.94306	0.138836	0.006466	-3.57	-16.8	0.77	0.4468	-0.0014	-0.2486	
-0.940986	0.135298	0.009393999	-2.94	-14.77	-0.42	0.438	0.0032	-0.2517	
-0.93391	0.13786	0.016592	-2.52	-12.39	-1.19	0.4424	-0.0014	-0.2532	
-0.93086	0.140422	0.014762	-2.8	-9.94	-0.98	0.441	-0.0029	-0.2487	
-0.933666	0.143106	0.01525	-3.01	-7.98	-0.35	0.4366	0.0032	-0.2548	
-0.93452	0.14152	0.01952	-3.22	-6.51	-0.07	0.4395	-0.0013	-0.2517	
-0.948306	0.147986	0.021228	-3.64	-5.04	-0.42	0.4382	-0.0105	-0.2579	
-0.957944	0.14213	0.021472	-3.71	-3.57	-0.77	0.4397	-0.012	-0.2502	
-0.959774	0.134566	0.019276	-3.43	-1.4	-0.91	0.435	0.0078	-0.2578	
-0.959164	0.124806	0.016226	-2.52	1.47	-0.42	0.4379	0.0031	-0.2685	
-0.957944	0.119438	0.010004	-1.4	3.78	-0.07	0.4394	0.0031	-0.2593	
-0.952576	0.127612	0.007198	-0.07	4.76	-0.07	0.4352	0.0002	-0.2563	
-0.944402	0.132736	0.009272	0.56	5.46	-0.07	0.4394	0.0031	-0.2685	
-0.943182	0.129686	0.006222	0.7	7.56	0.14	0.4482	-0.0014	-0.2578	
-0.94611	0.12627	0.001952	1.12	9.52	0.21	0.4381	-0.0044	-0.2594	
-0.944402	0.131882	-0.00305	1.19	10.64	0.07	0.4409	0.0062	-0.2547	
-0.939888	0.13664	-0.013786	1.82	11.48	0.14	0.4424	0.0016	-0.2593	
-0.94184	0.134688	-0.019398	2.87	11.9	-0.35	0.451	0.0107	-0.247	
-0.94672	0.138958	-0.027206	5.25	13.37	-1.05	0.441	0.0016	-0.2471	
-0.95038	0.14152	-0.028182	5.81	15.12	-0.98	0.4468	-0.0014	-0.2456	
-0.946842	0.143472	-0.034038	6.37	14.77	-1.12	0.4569	0	-0.2501	
-0.953308	0.15311	-0.043676	6.37	16.38	-0.91	0.4498	-0.0044	-0.2318	
-0.959042	0.155916	-0.053436	6.16	17.08	-0.77	0.4439	0.0062	-0.241	
-0.962214	0.152012	-0.05734	5.74	17.64	-0.84	0.4338	-0.0043	-0.2472	
-0.968436	0.154818	-0.07124799	3.01	18.55	0.56	0.4497	0.0061	-0.2318	
-0.970388	0.153842	-0.079422	4.83	18.76	-0.21	0.4527	0	-0.2226	
-0.970876	0.152866	-0.085156	5.11	21.35	0.56	0.4513	-0.0014	-0.2287	
-0.96258	0.15128	-0.09394	4.41	20.65	1.05	0.4513	-0.0014	-0.2226	
-0.957456	0.155306	-0.104798	4.69	20.3	1.19	0.4528	-0.0029	-0.2165	
-0.947574	0.15189	-0.114924	5.39	18.83	0.49	0.4514	-0.0044	-0.2226	
-0.94916	0.154574	-0.124562	5.67	17.64	-0.35	0.4585	0.003	-0.2165	
-0.959652	0.154086	-0.133834	6.09	16.03	-0.7	0.4558	-0.0075	-0.2165	
-0.992958	0.16592	-0.158234	5.46	10.36	-1.33	0.4515	-0.009	-0.2028	
-1.018212	0.172264	-0.1708	5.6	7.28	-1.68	0.4573	-0.0075	-0.2058	
-1.043344	0.182512	-0.183488	7.28	6.86	-1.68	0.4629	0.0076	-0.2011	
-1.058106	0.186782	-0.19947	8.4	7.7	-2.03	0.4674	-0.0046	-0.2073	
-1.063718	0.179584	-0.215818	8.96	11.06	-2.66	0.4544	-0.009	-0.2028	
-1.071526	0.168604	-0.221552	9.1	10.71	-4.27	0.4675	-0.0061	-0.1981	
-1.064206	0.147254	-0.216794	10.08	9.45	-5.67	0.4531	-0.012	-0.1952	
-1.057496	0.135176	-0.217526	11.41	6.93	-5.88	0.4573	0	-0.1951	
-1.037366	0.129808	-0.214964	11.55	5.11	-3.99	0.4557	0.0031	-0.2012	
-1.025776	0.12688	-0.210206	11.62	6.79	-1.26	0.4616	-0.0045	-0.1981	
-1.034194	0.138226	-0.20984	10.08	7.56	1.68	0.4617	-0.0075	-0.1936	


-0.981978	0.135298	-0.197152	4.83	17.57	6.16	0.4588	-0.009	-0.1966	
-0.985882	0.141398	-0.190076	4.27	18.97	5.32	0.4689	-0.0107	-0.2012	
-0.97783	0.13664	-0.19825	4.62	18.83	4.97	0.4546	-0.0166	-0.189	
-0.981124	0.14457	-0.210938	6.02	20.23	4.48	0.4721	-0.0198	-0.1721	
-0.983686	0.155672	-0.227408	6.79	22.26	4.83	0.4662	-0.0106	-0.1798	
-0.995032	0.163114	-0.248026	6.16	22.33	5.25	0.4634	-0.0197	-0.1737	
-0.991616	0.165798	-0.274378	3.99	21.07	6.23	0.4707	-0.0214	-0.1722	
-0.996252	0.168238	-0.293654	3.22	20.65	6.37	0.4678	-0.0152	-0.1691	
-0.998692	0.16836	-0.302682	2.45	17.71	6.23	0.478	-0.023	-0.1629	
-0.99613	0.166164	-0.30988	2.03	13.58	5.11	0.468	-0.0274	-0.1584	
-0.994544	0.169336	-0.304512	2.38	9.52	4.13	0.4679	-0.0197	-0.1538	
-0.995764	0.169458	-0.302438	2.45	6.65	3.78	0.4708	-0.0213	-0.1599	
-0.99674	0.168238	-0.298534	1.89	5.39	3.43	0.4737	-0.0213	-0.1553	
-0.991372	0.165432	-0.294142	1.19	4.48	3.43	0.4765	-0.0107	-0.1553	
-0.981978	0.166042	-0.287676	1.26	3.99	3.57	0.4752	-0.0214	-0.1523	
-0.974902	0.167384	-0.280478	1.54	2.52	3.5	0.4738	-0.0259	-0.1554	
-0.974536	0.170434	-0.275354	2.17	1.47	3.15	0.4752	-0.0244	-0.1538	
-0.972584	0.170678	-0.271816	2.66	1.05	2.59	0.4811	-0.0352	-0.1538	
-0.970266	0.172386	-0.269498	2.59	2.24	2.52	0.4667	-0.0304	-0.1447	
-0.967338	0.177022	-0.271206	1.54	3.15	2.73	0.4709	-0.0259	-0.1523	
-0.966972	0.174948	-0.273646	0.42	3.08	2.8	0.4811	-0.0352	-0.1553	
-0.967704	0.172874	-0.275598	0.21	2.38	2.45	0.4796	-0.0275	-0.1523	
-0.971486	0.172386	-0.279014	0.56	3.15	1.96	0.4753	-0.0305	-0.1569	
-0.972462	0.176656	-0.287066	1.33	3.22	1.68	0.4666	-0.0304	-0.1493	
-0.97356	0.184464	-0.290116	1.4	3.29	1.19	0.4813	-0.0459	-0.1569	
-0.973804	0.185318	-0.296948	0.77	2.17	0.7	0.4694	-0.0259	-0.1539	
-0.97661	0.180926	-0.303536	-0.07	0.49	0.49	0.4782	-0.026	-0.1462	
-0.980026	0.179706	-0.299266	-0.63	-0.7	0.35	0.4679	-0.0197	-0.1569	
-0.981856	0.178608	-0.29707	-0.42	-1.75	0.07	0.4768	-0.0321	-0.1492	
-0.978806	0.180194	-0.290482	-0.56	-2.38	-0.21	0.4797	-0.0321	-0.1446	
-0.973194	0.18422	-0.289506	-0.14	-1.12	-0.7	0.4796	-0.0291	-0.1538	
-0.971242	0.178486	-0.288408	-0.07	-1.68	-1.54	0.4679	-0.0213	-0.1523	
-0.972584	0.173728	-0.282918	-0.35	-2.24	-1.89	0.4724	-0.0259	-0.1508	
-0.971852	0.17324	-0.280112	-0.98	-3.36	-1.75	0.4623	-0.0304	-0.1539	
-0.974414	0.173728	-0.28182	-1.33	-3.36	-1.19	0.4767	-0.0321	-0.1554	
-0.972828	0.169702	-0.27816	-1.12	-3.64	-1.05	0.4651	-0.0273	-0.1554	
-0.971852	0.168116	-0.278404	-1.12	-3.85	-1.26	0.4694	-0.0213	-0.1584	
-0.97173	0.171898	-0.27694	-1.47	-4.48	-1.54	0.4666	-0.0304	-0.1524	
-0.975024	0.175192	-0.275598	-1.75	-5.39	-2.1	0.4739	-0.0382	-0.1646	
-0.97783	0.17751	-0.276696	-1.68	-6.02	-2.52	0.4667	-0.0365	-0.1509	
-0.981124	0.175192	-0.274012	-1.47	-6.3	-2.59	0.4579	-0.0257	-0.1509	
-0.985394	0.17385	-0.27999	-1.82	-6.16	-2.45	0.4693	-0.0228	-0.1645	
-0.983808	0.171166	-0.278282	-2.45	-6.65	-2.52	0.4679	-0.0259	-0.1615	
-0.97356	0.162016	-0.279258	-4.55	-13.23	-3.22	0.4751	-0.0199	-0.1614	
-0.980026	0.172264	-0.275964	-3.92	-13.16	-4.06	0.4708	-0.0275	-0.1722	
-0.988078	0.175924	-0.273524	-3.5	-11.76	-4.48	0.4766	-0.0214	-0.163	
-0.99735	0.177632	-0.273158	-4.06	-11.9	-5.04	0.4766	-0.0276	-0.1767	
-1.010526	0.17629	-0.283894	-5.25	-13.09	-5.18	0.4633	-0.0106	-0.1768	
-1.02541	0.17751	-0.288286	-7	-13.51	-5.04	0.4649	-0.0198	-0.1752	
-1.035292	0.186904	-0.29097	-8.75	-12.81	-4.55	0.4619	-0.0136	-0.1814	
-1.04554	0.182634	-0.312442	-10.85	-13.09	-4.48	0.4706	-0.0199	-0.1859	
-1.043466	0.182512	-0.2989	-11.97	-15.68	-5.25	0.4605	-0.0197	-0.1799	
-1.0431	0.184464	-0.27999	-11.48	-17.71	-6.51	0.4602	-0.006	-0.1981	
-1.059814	0.171776	-0.265106	-9.87	-20.09	-6.58	0.4618	-0.0152	-0.1951	
-1.044808	0.15311	-0.228018	-11.27	-25.55	-4.55	0.4662	-0.0122	-0.1844	
-1.014552	0.145668	-0.20801	-11.2	-24.85	-2.24	0.4632	-0.0152	-0.2012	
-0.998814	0.140056	-0.171044	-10.36	-19.39	-1.89	0.4662	-0.0152	-0.1874	
-0.98698	0.139568	-0.149694	-10.29	-15.4	-1.61	0.4588	-0.0121	-0.1982	
-0.985272	0.13115	-0.13969	-10.15	-12.81	-0.07	0.466	-0.0061	-0.1996	
-0.979416	0.124684	-0.13969	-9.31	-12.6	1.68	0.4618	-0.0198	-0.2104	
-0.979416	0.126026	-0.144692	-7.56	-9.24	3.29	0.4573	-0.0106	-0.2043	
-0.98332	0.127612	-0.144448	-5.95	-8.26	3.78	0.4559	-0.0121	-0.2119	
-0.985272	0.14518	-0.141398	-4.41	-10.29	2.8	0.4558	-0.0106	-0.2135	
-0.981246	0.16409	-0.131516	-3.57	-8.19	3.5	0.45	-0.0044	-0.2074	
-0.971486	0.1586	-0.136884	-2.24	-10.43	4.2	0.4572	-0.0075	-0.2134	
-0.961238	0.165066	-0.135786	-2.94	-11.06	4.9	0.4543	-0.009099999	-0.218	
-0.95831	0.170678	-0.129198	-4.9	-14.42	3.99	0.4514	-0.0029	-0.215	
-0.960872	0.177388	-0.124562	-5.18	-14.7	3.29	0.4602	-0.0122	-0.215	
-0.959774	0.185562	-0.104676	-4.76	-15.12	2.03	0.4472	-0.0135	-0.2166	
-0.972584	0.182146	-0.100406	-4.62	-16.59	2.38	0.4515	-0.009	-0.2089	
-0.975878	0.17751	-0.095282	-3.99	-16.8	2.66	0.4585	-0.0015	-0.2272	
-0.978196	0.177388	-0.086376	-3.43	-15.26	2.87	0.4442	-0.0074	-0.2212	
-0.977464	0.177388	-0.071614	-4.27	-15.54	2.94	0.45	-0.0136	-0.2272	
-0.972584	0.180804	-0.067222	-4.2	-14.98	2.24	0.4427	-0.0105	-0.2303	
-0.971852	0.184586	-0.062098	-3.64	-14.28	1.19	0.4413	-0.015	-0.2319	
-0.972096	0.183	-0.06283	-3.15	-13.51	0.42	0.4471	-0.0151	-0.2319	
-0.97051	0.166896	-0.060756	-3.08	-13.65	0.14	0.4439	0.0032	-0.2379	
-0.97234	0.158722	-0.056486	-3.29	-13.93	-0.56	0.4455	-0.0029	-0.2349	
-0.972462	0.158112	-0.050874	-3.78	-12.74	-0.7	0.4513	-0.0045	-0.2379	
-0.968436	0.160796	-0.04087	-3.36	-11.9	-1.05	0.4297	-0.0103	-0.232	
-0.962824	0.161772	-0.031354	-2.66	-10.92	-1.4	0.4455	-0.0059	-0.241	
-0.959286	0.160796	-0.029646	-2.59	-10.36	-1.89	0.4425	-0.0059	-0.2517	
-0.964166	0.15494	-0.025132	-3.29	-9.87	-2.24	0.4425	-0.0059	-0.2441	
-0.962946	0.157624	-0.022082	-2.73	-8.05	-2.59	0.4382	-0.0059	-0.2441	
-0.960994	0.156648	-0.013908	-3.5	-6.3	-2.31	0.4382	-0.0105	-0.2563	
-0.959042	0.152256	-0.010614	-3.15	-5.53	-2.24	0.4382	-0.012	-0.2579	
-0.95709	0.149328	-0.006344	-2.1	-5.32	-2.03	0.4397	-0.0105	-0.2517	
-0.95648	0.147132	0.003172	-0.7	-4.13	-1.96	0.4396	-0.0013	-0.2471	
-0.955138	0.143228	0.011956	0.35	-2.52	-2.03	0.4381	-0.0059	-0.2563	
-0.951478	0.14335	0.017934	0.98	-0.49	-1.96	0.4439	-0.0075	-0.2563	
-0.943548	0.142008	0.020862	1.4	1.68	-1.89	0.4411	-0.0105	-0.2456	
-0.941596	0.141398	0.016226	1.68	4.27	-1.89	0.4411	-0.0074	-0.2487	
-0.938912	0.138958	0.009393999	2.17	5.81	-1.82	0.4352	-0.0028	-0.2517	
-0.936716	0.138836	0.00488	3.08	6.86	-1.89	0.4381	-0.0013	-0.2563	
-0.936716	0.142374	0.003294	4.06	8.4	-2.03	0.4382	-0.0059	-0.2502	
-0.934154	0.151646	-0.001464	5.04	10.5	-2.31	0.4525	-0.003	-0.2608	
-0.942328	0.15006	-0.00427	4.27	11.27	-2.73	0.4367	-0.0074	-0.2487	
-0.936228	0.153232	-0.015494	4.34	13.93	-2.8	0.4353	-0.0058	-0.2456	
-0.947574	0.15677	-0.029402	4.76	15.89	-2.73	0.4483	-0.0014	-0.244	
-0.95587	0.155794	-0.042578	5.46	17.71	-2.73	0.4569	0	-0.2485	
-0.959286	0.145912	-0.05002	5.67	18.55	-2.52	0.4397	-0.0089	-0.241	
-0.962336	0.143472	-0.059536	6.58	19.04	-2.31	0.4468	-0.0014	-0.2456	
-0.964776	0.149206	-0.066856	7.84	20.3	-2.59	0.4484	-0.0029	-0.2211	
-0.95953	0.148962	-0.07381	7.84	21.14	-2.52	0.4527	0	-0.2348	
-0.955016	0.148108	-0.087962	8.05	21.42	-2.73	0.4514	-0.0121	-0.2364	
-0.961726	0.148352	-0.08967	5.88	20.58	-2.52	0.4585	0.0045	-0.221	
-0.967216	0.165676	-0.104798	5.67	21.14	-2.24	0.4602	-0.0168	-0.218	
-0.957212	0.155794	-0.10736	6.72	18.83	-2.94	0.4586	-0.0015	-0.221	
-0.955504	0.155794	-0.11773	6.79	19.81	-2.66	0.4559	-0.0151	-0.2058	
-0.9516	0.148474	-0.123708	6.44	17.78	-2.66	0.4572	0	-0.2073	
-0.952576	0.148962	-0.137372	5.95	16.94	-2.45	0.4587	-0.003	-0.2073	
-0.972706	0.151402	-0.155428	5.67	16.1	-2.31	0.4616	-0.0015	-0.2027	
-0.997472	0.156038	-0.167628	5.81	14.35	-2.17	0.4602	-0.006	-0.2073	
-1.020774	0.16348	-0.185074	6.23	10.71	-2.73	0.4675	-0.0107	-0.2057	
-1.046394	0.169824	-0.199226	6.86	6.65	-3.92	0.4618	-0.0137	-0.1982	
-1.048956	0.170678	-0.21106	7.07	5.11	-4.27	0.4602	-0.0137	-0.2089	
-1.050786	0.16165	-0.220698	7.77	5.32	-4.83	0.4573	-0.006	-0.1997	
-1.05347	0.151768	-0.220332	8.33	5.95	-4.9	0.4602	-0.0045	-0.1981	
-1.060912	0.135908	-0.220332	8.05	4.83	-4.97	0.4588	-0.0121	-0.2012	
-1.068354	0.123342	-0.224724	7.98	3.57	-4.62	0.4602	-0.009099999	-0.2088	
-1.074088	0.131394	-0.237412	5.25	1.47	-2.45	0.4629	0.0045	-0.2042	
-1.045418	0.13115	-0.200202	4.13	0.35	1.54	0.4601	-0.0015	-0.2058	
-0.99857	0.12566	-0.207278	5.95	11.27	4.9	0.4761	-0.0032	-0.1996	
-0.9882	0.135298	-0.19276	6.23	19.81	5.46	0.4616	-0.0015	-0.2073	
-0.99674	0.13298	-0.19276	6.51	23.1	5.18	0.4603	-0.0152	-0.2012	
-0.999424	0.131272	-0.21533	6.44	23.73	4.27	0.4675	-0.009099999	-0.1905	
-0.995764	0.137616	-0.251076	6.79	24.43	3.15	0.4705	-0.0076	-0.1828	
-0.991128	0.141154	-0.27084	6.86	21.84	2.45	0.4748	-0.0077	-0.1889	
-0.988688	0.144814	-0.276086	6.44	17.57	2.03	0.4677	-0.0214	-0.1874	
-0.9882	0.148718	-0.274256	5.46	12.67	1.89	0.4633	-0.0121	-0.1737	
-0.989786	0.150548	-0.27145	4.97	8.4	1.82	0.4763	0	-0.1644	
-0.997594	0.15128	-0.267546	4.76	6.79	1.75	0.4705	-0.0061	-0.1736	
-1.004548	0.15433	-0.273158	4.55	5.95	1.47	0.4721	-0.0152	-0.166	
-1.008086	0.152988	-0.27999	4.97	6.93	0.56	0.4708	-0.0228	-0.1554	
-1.00833	0.152622	-0.282186	5.04	6.3	-0.07	0.4606	-0.0227	-0.1646	
-0.99918	0.151646	-0.281698	4.55	5.74	-0.49	0.4721	-0.0152	-0.166	
-0.998082	0.15372	-0.280234	3.78	5.11	-0.63	0.475	-0.0168	-0.1645	
-0.996496	0.153964	-0.279258	2.66	3.57	-0.49	0.4633	-0.009	-0.1691	
-0.996252	0.152622	-0.281942	2.31	3.01	-0.28	0.4662	-0.0075	-0.1721	
-1.004548	0.159942	-0.280844	1.82	0.77	-0.77	0.468	-0.0259	-0.16	
-0.998692	0.15433	-0.28975	1.89	-0.07	-1.33	0.4706	-0.0076	-0.1599	
-0.999546	0.152622	-0.285968	1.54	-0.28	-1.89	0.4751	-0.0153	-0.1584	
-0.992958	0.144082	-0.274134	0.49	-1.89	-2.31	0.4707	-0.0152	-0.1553	
-0.981124	0.134932	-0.254736	1.26	-1.26	-2.31	0.4692	-0.009099999	-0.163	
-0.974902	0.130174	-0.251808	0.84	-0.91	-1.68	0.4809	-0.02	-0.1675	
-0.97234	0.129442	-0.249124	0.49	-0.77	-1.19	0.4808	-0.0154	-0.1644	
-0.97234	0.129076	-0.249856	0.49	-0.98	-0.77	0.4733	-0.0046	-0.1797	
-0.972096	0.128344	-0.246196	0.35	-2.1	-0.63	0.4807	-0.0046	-0.1613	
-0.974414	0.124196	-0.243634	0.91	-2.17	-0.42	0.4736	-0.0137	-0.1599	
-0.97783	0.123464	-0.249734	1.12	-1.75	-0.21	0.4707	-0.0152	-0.163	
-0.978074	0.126514	-0.252296	0.91	-1.26	0.07	0.475	-0.0138	-0.1721	
-0.97966	0.128222	-0.255346	0.63	-0.84	0.49	0.4765	-0.0184	-0.1675	
-0.980148	0.130174	-0.255102	0.07	-1.12	1.12	0.4734	-0.0061	-0.1751	
-0.978928	0.128588	-0.254248	-0.77	-1.19	1.96	0.4763	-0.0015	-0.1644	
-0.98027	0.131638	-0.253638	-1.75	-1.26	2.8	0.4764	-0.0092	-0.1675	
-0.982832	0.132248	-0.253882	-2.24	-1.82	3.64	0.4778	-0.0123	-0.1751	
-0.982832	0.135176	-0.250588	-3.01	-1.82	4.55	0.4721	-0.0152	-0.1645	
-0.981856	0.140178	-0.255224	-3.29	-1.47	5.32	0.4722	-0.0198	-0.1691	
-0.982344	0.140178	-0.253516	-4.06	-2.31	5.88	0.4735	-0.0076	-0.1675	
-0.981124	0.139568	-0.247904	-5.04	-2.17	6.79	0.4736	-0.0183	-0.163	
-0.981612	0.138836	-0.247294	-6.37	-1.61	7.98	0.4722	-0.0214	-0.1721	
-0.980026	0.142374	-0.253638	-8.05	-1.75	9.31	0.4677	-0.0106	-0.1691	
-0.981246	0.14457	-0.250954	-9.03	-3.15	10.29	0.4722	-0.0198	-0.1615	
-0.981734	0.149084	-0.250466	-9.52	-4.13	10.64	0.4693	-0.0244	-0.1737	
-0.982954	0.150426	-0.246928	-10.01	-4.34	11.06	0.4663	-0.0152	-0.1691	
-0.983686	0.149328	-0.239852	-10.36	-4.27	11.9	0.4766	-0.0275	-0.1645	
-0.985028	0.153232	-0.240218	-10.15	-3.78	13.02	0.4736	-0.0245	-0.1767	
-0.986736	0.160674	-0.246074	-10.57	-2.38	14.49	0.4606	-0.0258	-0.1738	
-0.988932	0.170556	-0.246928	-11.76	-1.89	15.54	0.4621	-0.0304	-0.1738	
-0.987834	0.180194	-0.249978	-11.62	-0.84	16.24	0.4592	-0.0289	-0.1829	
-0.986736	0.188246	-0.24766	-10.99	1.26	17.5	0.4666	-0.035	-0.1661	
-0.99003	0.204716	-0.23973	-10.43	1.75	18.9	0.4739	-0.0443	-0.1691	
-0.969046	0.207034	-0.23668	-11.62	2.66	20.16	0.4636	-0.035	-0.1722	
-0.968802	0.220576	-0.234118	-11.2	5.67	20.51	0.4639	-0.0518	-0.1647	
-0.971364	0.227042	-0.228628	-13.3	4.76	20.23	0.4609	-0.0457	-0.1692	
-0.961116	0.231434	-0.218258	-14.49	1.68	19.6	0.4638	-0.0442	-0.1738	
-0.955504	0.243878	-0.214232	-14.84	2.73	19.74	0.4684	-0.0564	-0.1555	
-0.955138	0.243024	-0.215574	-14.35	5.25	20.44	0.4798	-0.0505	-0.1661	
-0.946598	0.249978	-0.213744	-14.21	4.83	20.44	0.4655	-0.0595	-0.1647	
-0.935252	0.26474	-0.215696	-14.42	3.99	20.37	0.4655	-0.061	-0.1601	
-0.9394	0.279746	-0.2196	-12.53	4.48	19.32	0.4699	-0.0702	-0.1677	
-0.937448	0.292556	-0.213866	-10.29	4.48	17.85	0.4655	-0.0671	-0.1693	
-0.935862	0.306586	-0.21594	-9.17	3.99	16.45	0.4642	-0.0747	-0.1693	
-0.937204	0.314638	-0.22448	-7.63	4.34	15.33	0.4697	-0.0611	-0.1753	
-0.934032	0.31903	-0.224358	-6.44	4.06	14.21	0.467	-0.0702	-0.1723	
-0.932446	0.325252	-0.226066	-6.51	3.99	13.58	0.4686	-0.0778	-0.1617	
-0.931592	0.335256	-0.225212	-6.09	3.43	12.39	0.457	-0.0762	-0.1663	
-0.934764	0.343674	-0.225822	-5.6	3.92	11.41	0.4526	-0.0731	-0.1663	
-0.931836	0.345016	-0.233386	-5.67	3.36	10.57	0.4685	-0.0748	-0.1647	
-0.929396	0.343796	-0.234728	-5.53	2.66	9.31	0.4685	-0.0763	-0.1662	
-0.924272	0.335988	-0.23424	-5.67	1.75	7.91	0.4686	-0.084	-0.1678	
-0.920124	0.334158	-0.230458	-4.83	1.33	6.3	0.4643	-0.087	-0.1739	
-0.914268	0.329034	-0.228018	-4.27	0.21	4.83	0.4628	-0.0793	-0.1663	
-0.914634	0.329278	-0.225578	-3.5	0.21	3.71	0.4599	-0.0793	-0.1663	
-0.917318	0.328424	-0.218624	-2.87	0.28	2.8	0.4715	-0.08549999	-0.1693	
-0.922564	0.32818	-0.220576	-2.03	1.75	2.17	0.4672	-0.0901	-0.1709	
-0.92476	0.331718	-0.228506	-1.12	2.1	1.33	0.4527	-0.09299999	-0.1801	
-0.923418	0.33367	-0.2257	-1.26	1.82	0.98	0.4686	-0.0825	-0.1769	
-0.920002	0.337086	-0.232776	-0.56	2.03	0.35	0.4599	-0.0762	-0.1571	
-0.915366	0.334768	-0.232898	0.63	1.47	-0.35	0.46	-0.0869	-0.1709	
-0.91439	0.33123	-0.231068	1.4	0.84	-1.4	0.463	-0.09299999	-0.1617	
-0.917196	0.329278	-0.228384	1.54	0.14	-2.52	0.4645	-0.0946	-0.1633	
-0.92171	0.3355	-0.218746	3.71	2.31	-3.99	0.4657	-0.0824	-0.1708	
-0.923662	0.330376	-0.223748	4.27	2.52	-5.25	0.4657	-0.0809	-0.1663	
-0.911462	0.327936	-0.231312	6.93	2.38	-6.93	0.4673	-0.0901	-0.1647	
-0.907558	0.33062	-0.230946	9.8	2.17	-8.68	0.4643	-0.0824	-0.1571	
-0.90585	0.332816	-0.22448	10.99	1.89	-9.87	0.4687	-0.08549999	-0.1586	
-0.920124	0.3355	-0.227286	10.5	2.24	-11.2	0.4585	-0.0807	-0.1571	
-0.93208	0.337086	-0.232654	10.08	0.21	-12.67	0.4685	-0.0702	-0.157	
-0.932568	0.332084	-0.23119	10.29	-1.54	-13.44	0.4671	-0.0778	-0.1647	
-0.928542	0.321836	-0.234118	10.08	-2.38	-14	0.4658	-0.0793	-0.154	
-0.925492	0.316224	-0.23302	11.2	-3.15	-15.4	0.4744	-0.0748	-0.1509	
-0.923418	0.310246	-0.23485	13.16	-3.57	-17.43	0.4641	-0.061	-0.1586	
-0.928908	0.305244	-0.235338	15.19	-3.78	-19.6	0.4713	-0.0626	-0.1601	
-0.93574	0.295606	-0.230214	16.87	-4.34	-21.49	0.4713	-0.0641	-0.1601	
-0.943548	0.288164	-0.230214	17.78	-6.09	-22.54	0.4756	-0.0642	-0.1692	
-0.951112	0.2745	-0.240462	17.43	-7	-22.96	0.4786	-0.0658	-0.1661	
-0.958798	0.26779	-0.24705	17.43	-7.07	-23.8	0.4668	-0.0595	-0.1723	
-0.968558	0.267912	-0.244976	17.29	-8.05	-24.57	0.4683	-0.0549	-0.1707	
-0.994666	0.259616	-0.24766	17.01	-11.83	-24.57	0.4697	-0.0519	-0.1677	
-0.995764	0.251076	-0.230946	13.23	-18.83	-22.68	0.471	-0.0427	-0.1692	
-0.975634	0.238876	-0.239608	12.04	-19.18	-19.53	0.4682	-0.0504	-0.1753	
-0.975878	0.208986	-0.247172	12.32	-1.05	-17.29	0.4695	-0.0443	-0.1738	
-0.98698	0.187636	-0.242902	11.48	2.31	-17.29	0.4652	-0.0427	-0.1723	
-0.97051	0.159454	-0.241316	9.73	0.07	-16.94	0.4593	-0.0411	-0.1799	
-0.974048	0.144692	-0.25315	8.96	1.33	-16.17	0.4666	-0.0412	-0.1677	
-0.986004	0.14213	-0.25681	9.38	4.06	-15.89	0.468	-0.0397	-0.1722	
-0.998204	0.14152	-0.259982	9.94	4.13	-16.24	0.4664	-0.0259	-0.1737	
-1.000644	0.139812	-0.272548	11.06	4.27	-16.94	0.468	-0.032	-0.1707	
-0.998204	0.140666	-0.273768	12.04	4.41	-17.57	0.478	-0.026	-0.1721	
-0.99735	0.137372	-0.264496	11.9	4.27	-17.01	0.4678	-0.0244	-0.1783	
-0.999668	0.137372	-0.266692	12.39	4.69	-16.52	0.4736	-0.0168	-0.1706	
-0.999302	0.141642	-0.268522	13.37	3.15	-17.36	0.4692	-0.0167	-0.1676	
-0.985882	0.141642	-0.258152	13.93	2.1	-18.2	0.4721	-0.0107	-0.1645	
-0.980758	0.135054	-0.254004	13.44	2.38	-18.06	0.475	-0.0137	-0.1614	
-0.979782	0.126026	-0.252174	12.74	2.94	-17.64	0.4751	-0.0229	-0.1676	
-0.983076	0.113826	-0.251076	12.18	3.57	-17.15	0.4736	-0.0168	-0.1614	
-0.976244	0.10248	-0.25498	12.04	3.78	-16.73	0.4763	0.0014	-0.1659	
-0.972462	0.09467199	-0.253882	11.41	3.71	-15.82	0.4719	-0.0015	-0.1736	
-0.96929	0.07869	-0.25254	10.15	3.22	-14.35	0.4734	-0.0015	-0.1644	
-0.965752	0.066246	-0.24766	8.61	3.01	-13.02	0.4749	0	-0.1614	
-0.969412	0.056608	-0.247782	7.35	2.17	-12.88	0.4661	0.0107	-0.1553	
-0.976854	0.04758	-0.250588	7.35	2.8	-13.02	0.4734	0.0061	-0.1553	
-0.981124	0.040748	-0.249246	8.19	3.64	-13.16	0.4661	0.0077	-0.1568	
-0.981978	0.036356	-0.25315	10.08	4.48	-12.95	0.4734	0.0045	-0.1598	
-0.978196	0.040016	-0.265228	11.76	3.99	-12.6	0.4717	0.0121	-0.1751	
-0.97783	0.052094	-0.271206	12.74	3.29	-12.25	0.4674	0.0183	-0.1614	
-0.980026	0.060268	-0.26779	12.67	2.73	-12.11	0.4718	0.0122	-0.1614	
-0.986248	0.068442	-0.267546	12.39	3.57	-12.32	0.4659	0.0168	-0.1629	
-0.983808	0.062342	-0.277428	10.71	6.51	-11.83	0.4791	0.0167	-0.1506	
-0.980392	0.055754	-0.274988	7.7	9.17	-10.99	0.4818	0.0228	-0.1567	
-0.974414	0.046726	-0.282308	4.97	10.64	-9.1	0.4774	0.032	-0.1597	
-0.967338	0.035014	-0.281576	2.73	10.99	-7	0.4672	0.0306	-0.1598	
-0.966728	0.023302	-0.293532	0.91	10.29	-4.97	0.4819	0.0166	-0.1582	
-0.969168	0.017934	-0.296704	-0.84	7.63	-3.01	0.4745	0.029	-0.1567	
-0.972584	0.010492	-0.300608	-0.7	6.44	-1.82	0.4745	0.029	-0.1521	
-0.977464	0.007076	-0.30073	-0.77	5.53	-1.47	0.4833	0.0258	-0.1506	
-0.975024	0.005002	-0.296826	-0.21	4.27	-1.82	0.4688	0.026	-0.1506	
-0.969168	0.00488	-0.293044	-0.21	3.15	-2.17	0.4733	0.0122	-0.1507	
-0.963434	0.000976	-0.290604	-0.77	1.89	-1.61	0.4718	0.0245	-0.1415	
-0.96197	-0.006832	-0.284626	-1.61	0.98	-0.07	0.4732	0.0244	-0.143	
-0.95709	-0.010248	-0.284016	-2.38	-0.42	2.1	0.4776	0.0228	-0.1445	
-0.957212	-0.007808	-0.27999	-2.8	-1.26	3.99	0.4802	0.0335	-0.1582	
-0.956968	-0.000244	-0.279014	-3.99	-2.59	5.25	0.4861	0.0334	-0.152	
-0.961848	0.004148	-0.284992	-5.46	-4.13	6.86	0.4746	0.0229	-0.1506	
-0.965752	0.008784	-0.289262	-6.86	-5.04	8.96	0.4732	0.026	-0.146	
-0.971608	0.008052	-0.290238	-7.7	-5.67	10.71	0.4733	0.0153	-0.1491	
-0.97478	0.01342	-0.295362	-8.96	-6.65	12.46	0.4733	0.0168	-0.1506	
-0.970388	0.017324	-0.289994	-10.64	-8.82	13.93	0.4832	0.0273	-0.1536	
-0.968436	0.02684	-0.279136	-12.46	-10.92	15.68	0.4732	0.0198	-0.1522	
-0.967582	0.033062	-0.27511	-13.37	-13.09	17.36	0.4719	0.0137	-0.1491	
-0.968924	0.036478	-0.26352	-14.14	-14.49	18.83	0.4703	0.0122	-0.1629	
-0.977342	0.04697	-0.260958	-14.91	-13.37	20.65	0.4848	0.0135	-0.1613	
-0.981978	0.053192	-0.251198	-15.54	-13.51	21.77	0.4777	0.0029	-0.1629	
-0.980148	0.062464	-0.250832	-16.59	-14	21.91	0.4748	-0.0015	-0.169	
-0.983076	0.07015	-0.240828	-16.24	-13.02	21.63	0.472	0	-0.1568	
-0.984296	0.081618	-0.244244	-15.68	-11.41	21.7	0.4704	0.0046	-0.1629	
-0.987712	0.095038	-0.243634	-15.4	-10.15	21.98	0.4706	-0.0076	-0.1614	
-0.992836	0.107238	-0.25071	-16.17	-10.92	22.4	0.4676	-0.0045	-0.1721	
-0.99796	0.125294	-0.245586	-15.05	-8.33	22.26	0.4676	-0.009099999	-0.1798	
-0.997106	0.152256	-0.243268	-12.6	-4.41	21.14	0.4721	-0.0153	-0.1767	
-0.992348	0.183488	-0.247538	-10.08	0.84	19.81	0.4721	-0.026	-0.1859	
-0.99125	0.204838	-0.248392	-8.68	3.64	19.25	0.4692	-0.0214	-0.1783	
-0.983076	0.223382	-0.245586	-10.85	-0.42	18.48	0.4706	-0.0214	-0.1859	
-0.984174	0.233996	-0.238632	-12.74	3.57	18.55	0.4693	-0.0259	-0.1707	
-0.98881	0.23424	-0.250344	-14.7	4.97	18.83	0.4665	-0.0289	-0.1737	
-0.993934	0.235094	-0.249368	-14.21	6.72	18.97	0.4679	-0.0305	-0.1783	
-0.98576	0.227774	-0.261324	-15.19	5.88	19.6	0.468	-0.0351	-0.1737	
-0.983076	0.225334	-0.251564	-15.96	4.62	18.83	0.4695	-0.0397	-0.1737	
-0.974048	0.228384	-0.258152	-15.96	2.38	17.57	0.4695	-0.0443	-0.1799	
-0.977342	0.235338	-0.244976	-13.51	2.8	16.66	0.4697	-0.0565	-0.1768	
-0.978806	0.240584	-0.242902	-12.18	1.33	16.38	0.4651	-0.0397	-0.1829	
-0.967216	0.24644	-0.226432	-12.67	-1.19	16.38	0.4566	-0.0441	-0.1662	
-0.95831	0.24949	-0.213378	-12.46	-1.75	16.1	0.4653	-0.0549	-0.1738	
-0.946476	0.255712	-0.212646	-12.67	-0.98	15.89	0.4696	-0.0504	-0.1753	
-0.943792	0.255834	-0.209596	-12.53	0.14	15.4	0.4698	-0.058	-0.1662	
-0.943304	0.255346	-0.209474	-13.23	-0.14	15.12	0.4727	-0.0642	-0.1738	
-0.94916	0.257908	-0.215818	-13.23	0.42	14.63	0.4625	-0.0595	-0.1784	
-0.949038	0.259494	-0.221552	-13.16	1.19	14.49	0.4654	-0.0641	-0.1738	
-0.945744	0.266082	-0.21777	-11.13	2.24	13.58	0.4711	-0.0565	-0.1845	
-0.94428	0.272792	-0.220698	-8.96	3.22	12.95	0.4755	-0.0642	-0.1799	
-0.94794	0.274866	-0.221918	-7.21	3.57	12.25	0.4755	-0.0642	-0.1799	
-0.941352	0.29402	-0.214476	-3.99	4.34	10.85	0.4684	-0.0656	-0.1693	
-0.931592	0.296948	-0.223016	-3.5	5.04	10.36	0.4655	-0.0671	-0.1708	
-0.93635	0.30805	-0.225822	-3.22	5.74	9.52	0.4756	-0.0703	-0.1799	
-0.941352	0.314394	-0.22936	-4.13	4.2	9.31	0.4626	-0.0686	-0.1724	
-0.945988	0.319518	-0.231068	-4.06	4.83	9.24	0.4598	-0.0762	-0.18	
-0.94489	0.31659	-0.230336	-4.48	3.08	9.03	0.4641	-0.0717	-0.1724	
-0.937936	0.314272	-0.23241	-3.64	2.38	8.4	0.4715	-0.0809	-0.1601	
-0.935862	0.312564	-0.23119	-3.15	2.87	7.49	0.4656	-0.0763	-0.1708	
-0.933178	0.314394	-0.22875	-2.87	3.64	6.44	0.46	-0.0838	-0.1663	
-0.930372	0.310978	-0.24095	-2.24	3.22	5.53	0.4629	-0.0885	-0.1663	
-0.924882	0.301218	-0.240584	-1.12	2.31	4.62	0.4687	-0.087	-0.1663	
-0.921344	0.305244	-0.227286	0	1.68	3.36	0.4716	-0.0871	-0.1662	
-0.922808	0.315492	-0.2318	1.19	2.45	2.31	0.4701	-0.0809	-0.1586	
-0.928298	0.32086	-0.23241	2.1	3.57	1.4	0.4643	-0.0824	-0.1709	
-0.930738	0.32757	-0.23058	2.24	4.62	0.84	0.4658	-0.0885	-0.1739	
-0.930738	0.333426	-0.232776	1.96	5.18	0.84	0.46	-0.0854	-0.1663	
-0.92842	0.342454	-0.241682	2.31	4.83	0.35	0.4616	-0.0976	-0.1633	
-0.92598	0.350994	-0.250954	1.26	1.75	0.14	0.4687	-0.0839	-0.1525	
-0.924272	0.340502	-0.242536	1.75	-0.77	-1.4	0.47	-0.0763	-0.1616	
-0.92293	0.32757	-0.242902	2.17	-1.82	-3.08	0.4627	-0.0747	-0.1663	
-0.926224	0.327326	-0.236558	3.71	-1.75	-5.04	0.4629	-0.0854	-0.1678	
-0.929518	0.327326	-0.231678	4.9	-1.4	-6.65	0.4716	-0.0901	-0.1708	
-0.925248	0.329766	-0.2257	5.74	1.12	-7.28	0.4773	-0.0826	-0.1692	
-0.92842	0.327082	-0.2318	6.86	3.29	-8.12	0.4701	-0.0809	-0.1662	
-0.926102	0.324154	-0.237778	7.28	0.7	-9.1	0.4658	-0.087	-0.1678	
-0.920734	0.321836	-0.235216	7.77	-1.47	-10.36	0.4613	-0.0747	-0.1602	
-0.918416	0.31537	-0.22997	7.63	-2.31	-11.62	0.4613	-0.0778	-0.1678	
-0.922442	0.31232	-0.222772	7.84	-3.71	-13.3	0.4756	-0.0673	-0.1738	
-0.925614	0.311222	-0.2196	8.05	-4.48	-14.98	0.4815	-0.0673	-0.16	
-0.924394	0.30317	-0.223748	9.66	-3.15	-16.66	0.467	-0.0656	-0.1616	
-0.93025	0.29585	-0.234118	12.04	-1.89	-18.41	0.4756	-0.0642	-0.1677	
-0.930494	0.293166	-0.234118	14.14	-3.22	-20.23	0.4626	-0.0656	-0.1693	
-0.937082	0.291824	-0.235826	15.61	-6.3	-22.26	0.4683	-0.058	-0.1646	
-0.945378	0.288408	-0.235582	16.73	-9.03	-24.22	0.4641	-0.0671	-0.1601	
-0.95892	0.27145	-0.241438	17.92	-9.31	-25.34	0.4726	-0.0534	-0.1616	
-0.976732	0.261934	-0.241438	18.27	-11.41	-26.18	0.4711	-0.0534	-0.1677	
-1.001132	0.252906	-0.246318	16.24	-13.16	-25.2	0.4638	-0.0457	-0.1631	
-1.000522	0.227896	-0.230824	12.04	-14.7	-22.68	0.461	-0.0548	-0.1708	
-0.970876	0.218136	-0.252418	11.76	-12.81	-20.16	0.4711	-0.0443	-0.1631	
-0.967582	0.198982	-0.238022	13.23	-9.24	-19.6	0.4695	-0.0412	-0.1722	
-0.974414	0.185074	-0.224602	14	-7.49	-18.83	0.4651	-0.0366	-0.1768	
-0.986736	0.158478	-0.221796	12.88	-4.55	-17.64	0.4636	-0.0381	-0.1784	
-0.996496	0.138958	-0.235094	11.2	0.28	-16.8	0.4664	-0.0305	-0.1798	
-0.995032	0.13176	-0.247294	10.57	4.13	-17.01	0.4591	-0.0212	-0.1722	
-0.985882	0.1342	-0.24644	11.2	7	-16.38	0.4651	-0.0274	-0.1631	
-0.980392	0.133834	-0.248758	12.53	7.28	-15.33	0.4736	-0.0245	-0.1783	
-0.980026	0.129808	-0.251686	12.53	4.62	-15.54	0.4678	-0.0152	-0.1645	
-0.986736	0.132248	-0.255834	13.16	2.8	-16.38	0.4663	-0.0152	-0.1737	
-0.992226	0.137128	-0.257298	13.44	2.73	-17.15	0.4722	-0.0214	-0.1721	
-0.993324	0.134566	-0.254004	13.09	3.78	-17.08	0.4692	-0.0137	-0.1721	
-0.990518	0.128222	-0.254248	13.02	4.83	-16.59	0.4705	-0.0045	-0.1691	
-0.984662	0.12505	-0.24766	13.09	4.76	-16.45	0.4676	-0.0045	-0.1675	
-0.980148	0.116876	-0.240218	12.39	3.85	-16.38	0.4634	-0.0105	-0.1676	
-0.971486	0.10614	-0.230214	12.39	3.85	-16.38	0.4648	-0.006	-0.166	
-0.96624	0.104676	-0.230824	13.3	5.74	-16.31	0.4632	0	-0.1767	
-0.969534	0.10065	-0.23851	14.77	7	-16.31	0.4748	0.0045	-0.169	
-0.971852	0.091012	-0.238876	16.03	7.42	-16.59	0.4705	0.0015	-0.1675	
-0.976	0.08723	-0.250832	17.36	9.45	-17.08	0.4704	0.0061	-0.1721	
-0.976366	0.08601	-0.256444	17.29	12.25	-17.22	0.4762	0.0029	-0.1659	
-0.976732	0.076982	-0.262666	15.33	14	-16.45	0.4675	0.0015	-0.1706	
-0.975756	0.057828	-0.27816	12.25	14.21	-14.91	0.4746	0.0167	-0.1629	
-0.972462	0.041358	-0.279746	9.73	13.51	-13.51	0.4806	-0.0001	-0.169	
-0.97112	0.02684	-0.288042	7.98	13.3	-11.69	0.4734	0.0045	-0.1568	
-0.968314	0.012322	-0.294874	6.58	11.69	-10.15	0.4748	0.0076	-0.1568	
-0.97417	0.003416	-0.299144	5.67	9.1	-8.89	0.4733	0.0137	-0.1537	
-0.983442	-0.004636	-0.30683	5.32	7.21	-7.77	0.4834	0.0167	-0.146	
-0.989298	0.001342	-0.313174	5.18	5.81	-6.79	0.4676	0.0123	-0.1461	
-0.988688	0.007198	-0.31598	5.18	4.48	-6.65	0.4747	0.0198	-0.1476	
-0.983198	0.019398	-0.31171	5.39	2.73	-6.58	0.4833	0.0243	-0.149	
-0.973438	0.024156	-0.306098	4.76	2.38	-5.95	0.4834	0.0243	-0.1429	
-0.964654	0.02318	-0.298168	3.01	1.19	-4.41	0.4733	0.0152	-0.1522	
-0.961848	0.021594	-0.294264	0.98	0.98	-2.66	0.4894	0.009	-0.1368	
-0.966728	0.021838	-0.294752	-0.77	1.89	-0.98	0.4762	0.0183	-0.1369	
-0.969412	0.024522	-0.29585	-1.68	2.31	0.42	0.4732	0.0229	-0.1476	
-0.969412	0.023424	-0.298778	-2.31	3.15	1.26	0.4776	0.0183	-0.1414	
-0.971974	0.02501	-0.307806	-2.52	3.36	2.1	0.4732	0.0244	-0.1399	
-0.970388	0.019398	-0.309148	-2.73	3.36	2.87	0.4762	0.0198	-0.1399	
-0.968436	0.029158	-0.308538	-1.75	3.99	3.01	0.4704	0.0199	-0.1415	
-0.97356	0.015372	-0.307928	-2.03	2.73	3.57	0.4762	0.0183	-0.146	
-0.962214	0.014396	-0.3111	-4.48	-1.54	4.83	0.4675	0.023	-0.1308	
-0.962458	0.019886	-0.305366	-5.67	-3.29	5.6	0.4704	0.0138	-0.1446	
-0.965142	0.021838	-0.305244	-6.23	-6.09	6.37	0.4776	0.0183	-0.1414	
-0.973316	0.019032	-0.305488	-7	-7.49	7.7	0.4748	0.0199	-0.1292	
-0.978196	0.021106	-0.306098	-7.7	-7.91	9.17	0.4864	0.009	-0.1536	
-0.975146	0.02745	-0.30134	-8.12	-8.82	9.8	0.4689	0.0184	-0.1476	
-0.967704	0.041724	-0.289018	-7.98	-10.15	9.94	0.4734	0.0122	-0.143	
-0.96868	0.044896	-0.281454	-8.05	-11.48	10.29	0.4689	0.0199	-0.1491	
-0.96868	0.038796	-0.268156	-9.03	-11.34	11.83	0.4879	0.0059	-0.1506	
-0.96807	0.04636	-0.265716	-9.8	-9.59	14.07	0.4661	0.0077	-0.1584	
-0.965386	0.056242	-0.262666	-11.83	-8.82	15.68	0.4777	0.0045	-0.1613	
-0.967338	0.06527	-0.26962	-13.65	-9.17	16.73	0.469	0.003	-0.1645	
-0.976122	0.072346	-0.271206	-14.63	-9.45	17.5	0.4777	0.0075	-0.1613	
-0.980026	0.074054	-0.268522	-14.56	-11.2	17.78	0.4749	0	-0.1598	
-0.987346	0.083936	-0.25925	-13.51	-10.15	17.85	0.4721	-0.0106	-0.1584	
-0.986614	0.090402	-0.25986	-13.37	-9.66	17.92	0.4794	-0.0123	-0.1553	
-0.984418	0.096868	-0.255346	-12.88	-8.47	18.2	0.4719	0.003	-0.1629	
-0.984174	0.104554	-0.256932	-13.23	-8.68	18.55	0.4777	-0.0062	-0.1766	
-0.9882	0.114924	-0.253516	-13.16	-8.12	18.55	0.4721	-0.0152	-0.1645	
-0.994544	0.127856	-0.257786	-12.6	-6.58	18.48	0.4693	-0.0229	-0.1706	
-0.991982	0.145912	-0.259128	-11.76	-5.74	18.34	0.475	-0.0168	-0.1675	
-0.982832	0.167872	-0.257542	-10.08	-3.22	18.06	0.4679	-0.029	-0.1722	
-0.97844	0.180316	-0.256566	-10.15	-1.89	17.5	0.471	-0.0412	-0.1707	
-0.974048	0.199592	-0.244244	-11.48	-1.26	17.08	0.4679	-0.0213	-0.1661	
-0.970022	0.21167	-0.235216	-13.86	-2.31	16.66	0.4766	-0.026	-0.1706	
-0.9699	0.213622	-0.234728	-14.98	-2.03	16.45	0.465	-0.0305	-0.1768	
-0.979172	0.208498	-0.23485	-14.63	1.26	17.01	0.4622	-0.0381	-0.1738	
-0.993324	0.212768	-0.239608	-15.12	2.87	17.64	0.4695	-0.0427	-0.1722	
-0.98637	0.216062	-0.2501	-16.17	4.41	18.27	0.4681	-0.0396	-0.1646	
-0.98454	0.219722	-0.258518	-15.68	6.16	18.2	0.4768	-0.0413	-0.1676	
-0.980758	0.221308	-0.268156	-14.7	6.23	17.85	0.4609	-0.0426	-0.1708	
-0.975268	0.21899	-0.261324	-12.74	4.34	17.08	0.4666	-0.0396	-0.1722	
-0.972096	0.218624	-0.246196	-11.34	1.96	16.38	0.4668	-0.0503	-0.1631	
-0.963068	0.221674	-0.234728	-11.13	1.61	16.03	0.4624	-0.0487	-0.1708	
-0.958554	0.227774	-0.232166	-12.04	0.49	16.03	0.4695	-0.0397	-0.1722	
-0.960018	0.240584	-0.227652	-11.34	2.03	16.94	0.4611	-0.0625	-0.1723	
-0.957822	0.251198	-0.221674	-10.36	4.41	17.64	0.4624	-0.0487	-0.1677	
-0.953308	0.26596	-0.221186	-11.55	5.88	18.76	0.4697	-0.058	-0.1723	
-0.95343	0.27633	-0.235582	-12.81	6.23	18.83	0.4596	-0.0594	-0.1662	
-0.947818	0.281454	-0.235948	-14.07	4.55	18.48	0.4597	-0.0686	-0.1693	
-0.949648	0.283406	-0.240584	-14.28	4.9	17.99	0.4671	-0.0748	-0.1662	
-0.942694	0.28487	-0.247904	-12.88	4.13	16.31	0.4654	-0.061	-0.1708	
-0.93818	0.294264	-0.247904	-9.66	3.85	13.79	0.467	-0.0733	-0.1693	
-0.932202	0.305488	-0.243268	-6.51	2.66	11.55	0.4628	-0.0793	-0.1586	
-0.928542	0.318908	-0.238876	-5.39	0.7	10.5	0.4612	-0.0671	-0.1708	
-0.928176	0.3294	-0.233386	-4.55	-0.77	8.89	0.4657	-0.0793	-0.1586	
-0.928664	0.338306	-0.229726	-5.18	-2.94	7.7	0.4655	-0.0686	-0.1678	
-0.929762	0.335134	-0.227774	-4.55	-3.15	6.37	0.4671	-0.0778	-0.1678	
-0.929518	0.335866	-0.223016	-3.57	-2.38	5.39	0.4643	-0.0778	-0.154	
-0.929762	0.336354	-0.225334	-2.8	-1.61	4.41	0.4642	-0.0763	-0.1647	
-0.926956	0.33306	-0.21533	-2.59	-1.4	3.99	0.4685	-0.0733	-0.1632	
-0.928176	0.325374	-0.218014	-2.73	-1.89	3.57	0.4599	-0.0854	-0.1724	
-0.923906	0.317688	-0.21777	-1.61	-1.89	2.59	0.4642	-0.0809	-0.1739	
-0.922198	0.31537	-0.224358	-0.49	-1.89	1.68	0.4599	-0.0823	-0.1739	
-0.918538	0.314882	-0.22387	0.42	-2.45	0.42	0.4555	-0.0731	-0.1602	
-0.920368	0.316834	-0.217404	1.19	-2.73	-0.77	0.4643	-0.0824	-0.1632	
-0.927688	0.31354	-0.216428	2.17	-2.1	-1.82	0.4672	-0.0824	-0.1647	
-0.932934	0.311832	-0.221552	2.1	-1.26	-2.31	0.4526	-0.0761	-0.1633	
-0.93452	0.316468	-0.226066	1.61	-0.28	-2.59	0.4542	-0.0914	-0.171	
-0.92903	0.317688	-0.22875	1.96	0.42	-3.29	0.46	-0.0854	-0.1694	
-0.92354	0.310734	-0.227042	3.08	-0.63	-4.2	0.4701	-0.0809	-0.1586	
-0.92232	0.307196	-0.219966	4.13	-2.59	-5.18	0.4628	-0.0808	-0.1663	
-0.923418	0.307318	-0.210328	4.55	-2.59	-6.16	0.4598	-0.07319999	-0.1693	
-0.933178	0.317078	-0.205082	4.27	0.14	-6.86	0.4628	-0.0824	-0.1678	
-0.933544	0.308538	-0.211304	3.01	-0.14	-7.35	0.4628	-0.0808	-0.1709	
-0.928298	0.30866	-0.216794	5.04	0.42	-8.61	0.4656	-0.0763	-0.1724	
-0.926712	0.30805	-0.223748	7.84	-0.14	-10.15	0.4714	-0.081	-0.1784	
-0.923662	0.306586	-0.21716	9.31	-1.75	-11.55	0.4613	-0.0762	-0.1739	
-0.928908	0.307684	-0.21533	9.94	-1.89	-12.6	0.4684	-0.0687	-0.1677	
-0.937082	0.302072	-0.219722	9.38	-2.38	-13.58	0.4715	-0.0825	-0.1739	
-0.94306	0.297436	-0.218502	8.26	-2.52	-13.86	0.4598	-0.0762	-0.1724	
-0.94489	0.296704	-0.212524	7.91	-2.94	-14.35	0.4597	-0.0625	-0.1678	
-0.94428	0.291702	-0.218624	8.12	-3.01	-15.26	0.4698	-0.0641	-0.1708	
-0.940864	0.281576	-0.220332	8.82	-3.43	-16.52	0.461	-0.0564	-0.183	
-0.94489	0.278892	-0.21899	10.85	-3.99	-18.34	0.4639	-0.0564	-0.1738	
-0.955992	0.27206	-0.215574	13.65	-5.04	-20.58	0.4595	-0.0548	-0.1769	
-0.95953	0.26779	-0.219722	13.79	-5.67	-20.93	0.4625	-0.0641	-0.1784	
-0.979416	0.25315	-0.2379	13.09	-6.02	-21.07	0.4696	-0.0488	-0.1707	
-0.987956	0.236192	-0.243268	11.13	-7	-20.79	0.4711	-0.055	-0.1738	
-0.995032	0.232532	-0.25376	7.84	-9.24	-19.53	0.4578	-0.035	-0.1799	
-1.000522	0.22021	-0.236314	4.2	-14.28	-17.15	0.468	-0.0412	-0.1799	
-0.975756	0.20496	-0.234728	6.37	-10.29	-16.1	0.4767	-0.0398	-0.1783	
-0.976732	0.187514	-0.224846	6.51	-5.95	-14.63	0.4578	-0.038	-0.1815	
-0.981612	0.17629	-0.207034	6.37	-0.49	-13.37	0.4665	-0.032	-0.1799	
-0.984296	0.171166	-0.218014	6.3	4.62	-12.81	0.4664	-0.0336	-0.1844	
-0.984174	0.16531	-0.228506	4.76	4.48	-12.95	0.4723	-0.0321	-0.1768	
-0.985028	0.162748	-0.23302	5.25	4.13	-12.6	0.4694	-0.0305	-0.1752	
-0.981368	0.154208	-0.230946	5.6	2.52	-12.11	0.4693	-0.0259	-0.1768	
-0.981002	0.159942	-0.229116	5.32	0.84	-11.48	0.4649	-0.0197	-0.1676	
-0.985882	0.167994	-0.227652	6.16	2.66	-11.13	0.4665	-0.0289	-0.1707	
-0.99369	0.17141	-0.227896	7.63	5.11	-11.48	0.4721	-0.0183	-0.1737	
-0.987834	0.163846	-0.227164	8.61	5.88	-12.6	0.4678	-0.0213	-0.1706	
-0.981734	0.148352	-0.224724	8.54	8.68	-13.3	0.4707	-0.0229	-0.1706	
-0.982832	0.14152	-0.234118	8.19	10.85	-13.3	0.4649	-0.0228	-0.1753	
-0.982222	0.128466	-0.239608	9.03	10.99	-13.51	0.4677	-0.0076	-0.1706	
-0.98698	0.122122	-0.243634	10.22	11.06	-14.07	0.4721	-0.0214	-0.1752	
-0.992836	0.119804	-0.255956	11.83	10.29	-14.91	0.4721	-0.0199	-0.1828	
-0.991006	0.116998	-0.264862	13.09	9.03	-14.84	0.4735	-0.0092	-0.169	
-0.985638	0.11834	-0.272182	13.02	8.19	-14.28	0.4749	-0.0061	-0.1644	
-0.98027	0.110654	-0.267912	13.02	6.65	-14.49	0.4764	-0.0061	-0.166	
-0.978074	0.11102	-0.264008	13.23	4.48	-15.61	0.4647	-0.0014	-0.1691	
-0.969656	0.108092	-0.252784	13.58	3.29	-16.94	0.4706	-0.003	-0.1614	
-0.966484	0.097356	-0.243512	13.79	4.76	-17.64	0.4763	0	-0.1614	
-0.96685	0.086742	-0.247172	13.51	5.6	-17.43	0.469	0.0015	-0.1736	
-0.969412	0.072468	-0.252662	12.74	6.58	-16.45	0.4704	0	-0.1721	
-0.974292	0.063318	-0.261812	12.46	6.86	-15.47	0.4733	0.0076	-0.1598	
-0.97661	0.064172	-0.268522	12.6	7.28	-14.91	0.4776	0.0075	-0.1629	
-0.976976	0.061976	-0.277184	11.76	7.63	-14.21	0.4733	0.0076	-0.1629	
-0.979294	0.053558	-0.280722	10.15	7.49	-13.37	0.4733	0.0107	-0.1522	
-0.981612	0.0427	-0.282674	8.75	7.91	-12.32	0.482	0.009	-0.1567	
-0.980392	0.030744	-0.29219	7.28	8.33	-10.92	0.4704	0.0153	-0.1507	
-0.980026	0.029768	-0.294874	6.23	7.77	-9.73	0.4659	0.023	-0.1507	
-0.97539	0.02074	-0.29829	5.04	5.74	-8.68	0.4659	0.023	-0.1507	
-0.975756	0.016226	-0.299022	4.55	3.71	-8.05	0.4689	0.0214	-0.1507	
-0.973804	0.004148	-0.296948	4.34	0.77	-7.42	0.4833	0.0289	-0.149	
-0.969168	0.004758	-0.292312	3.43	-1.4	-6.58	0.466	0.0184	-0.1583	
-0.969778	0.003782	-0.27999	3.01	-2.66	-5.95	0.4687	0.0321	-0.1613	
-0.970144	0.002806	-0.277062	3.08	-2.8	-4.83	0.4804	0.0258	-0.1552	
-0.96807	0.008174	-0.280478	1.47	-3.43	-3.01	0.4717	0.029	-0.1476	
-0.967216	0.002684	-0.27755	-0.14	-3.29	-1.12	0.4716	0.0367	-0.1506	
-0.968192	0.00549	-0.277306	-1.33	-2.87	0.35	0.4804	0.0197	-0.1643	
-0.970754	0.01403	-0.275232	-1.96	-3.29	1.19	0.4703	0.0275	-0.1445	
-0.976244	0.014152	-0.274134	-1.75	-3.43	1.75	0.473	0.0336	-0.1521	
-0.976122	0.018788	-0.279746	-1.68	-2.87	2.59	0.4746	0.0274	-0.1537	
-0.975878	0.023912	-0.281576	-2.59	-2.38	3.36	0.4746	0.029	-0.143	
-0.970266	0.024888	-0.275964	-4.83	-2.66	4.34	0.4732	0.0214	-0.1491	
-0.967094	0.024034	-0.271816	-6.86	-2.73	5.67	0.4659	0.026	-0.1522	
-0.97112	0.026962	-0.27511	-8.4	-3.5	7.14	0.4718	0.0198	-0.1537	
-0.978318	0.024034	-0.272548	-9.38	-3.85	8.68	0.4686	0.0336	-0.1628	
-0.982344	0.030378	-0.276574	-9.94	-2.73	9.73	0.4776	0.0182	-0.1552	
-0.984174	0.041114	-0.282796	-11.13	-4.27	10.15	0.4761	0.0167	-0.1598	
-0.98149	0.044408	-0.275354	-12.11	-5.74	10.22	0.4731	0.0213	-0.1613	
-0.980392	0.046726	-0.271572	-12.6	-6.3	10.78	0.4717	0.0213	-0.1674	
-0.98332	0.046848	-0.268766	-13.02	-6.65	11.83	0.4776	0.009	-0.1674	
-0.987468	0.051118	-0.26779	-14.56	-6.16	13.16	0.4748	0.0029	-0.169	
-0.996008	0.061976	-0.269864	-16.1	-5.67	14.21	0.4719	0.0015	-0.1629	
-1.002596	0.071736	-0.276086	-16.66	-5.39	14.77	0.4718	0.0107	-0.1583	
-1.01016	0.085888	-0.283162	-15.89	-5.11	14.7	0.4704	0.0076	-0.1614	
-1.009184	0.10309	-0.28731	-15.12	-5.46	14	0.4733	0.0076	-0.1583	
-1.00528	0.119316	-0.284016	-15.61	-6.09	13.02	0.4849	0.0059	-0.1689	
-0.999058	0.138836	-0.27816	-17.01	-5.88	12.53	0.469	0	-0.1645	
-0.991128	0.146888	-0.272426	-18.55	-6.58	12.6	0.4734	-0.003	-0.1644	
-0.989176	0.157014	-0.272792	-20.86	-6.72	13.23	0.4618	-0.0014	-0.1691	
-0.993568	0.164578	-0.267668	-22.82	-7.49	13.16	0.4761	0.0106	-0.172	
-0.996496	0.170434	-0.26047	-23.03	-7.91	12.6	0.466	0.0046	-0.1736	
-0.996984	0.17934	-0.257542	-22.96	-7.14	12.11	0.4632	-0.0045	-0.1798	
-1.000766	0.185684	-0.254614	-23.24	-7.21	10.57	0.4675	-0.003	-0.1798	
-0.998936	0.179584	-0.234728	-21.98	-4.97	9.38	0.4559	-0.0029	-0.1814	
-0.996252	0.184952	-0.22387	-21.84	-5.04	7.91	0.4705	-0.0061	-0.1828	
-0.99308	0.174826	-0.222528	-21.98	-3.64	7.49	0.4733	-0.0046	-0.1813	
-0.976854	0.168116	-0.220454	-22.89	-2.73	7.63	0.4733	-0.0015	-0.1782	
-0.966484	0.15555	-0.21228	-23.31	-1.05	8.47	0.4733	-0.0092	-0.1904	
-0.969778	0.166896	-0.212158	-23.1	-0.77	8.68	0.4704	0.0045	-0.1767	
-0.975756	0.166408	-0.207522	-20.37	-1.61	7.84	0.4676	-0.0076	-0.1782	
-0.965386	0.163358	-0.208498	-18.55	-5.11	7.56	0.4632	-0.006	-0.1798	
-0.978318	0.162992	-0.214842	-17.43	-4.06	6.37	0.4632	-0.0075	-0.1844	
-0.98332	0.168116	-0.215086	-16.52	-3.57	5.18	0.4662	-0.0076	-0.1783	
-0.984662	0.165066	-0.207522	-15.89	-4.2	3.78	0.4689	-0.0015	-0.1843	
-0.985882	0.171166	-0.199592	-14.7	-5.32	3.01	0.4689	0	-0.1843	
-0.980026	0.17629	-0.193736	-13.65	-4.55	2.8	0.4604	-0.0167	-0.186	
-0.978562	0.180926	-0.187148	-12.46	-4.76	2.03	0.4691	-0.0122	-0.1859	
-0.976	0.191174	-0.18239	-12.32	-3.15	2.1	0.4646	-0.006	-0.1889	
-0.969046	0.196542	-0.17568	-11.69	-2.38	2.03	0.4718	-0.0046	-0.1889	
-0.968558	0.196176	-0.170434	-11.13	-1.05	1.68	0.469	-0.0107	-0.1859	
-0.964532	0.199348	-0.172386	-10.01	-1.33	1.54	0.4615	0.0107	-0.1859	
-0.956236	0.197396	-0.171532	-10.01	-1.61	0.77	0.4675	0	-0.1843	
-0.959896	0.200446	-0.173972	-10.57	-1.12	0.7	0.4732	0.0014	-0.1904	
-0.963678	0.197518	-0.171166	-11.34	-0.49	1.05	0.4603	-0.0029	-0.1768	
-0.970388	0.18788	-0.17568	-11.48	0.49	1.75	0.469	-0.0092	-0.1889	
-0.976244	0.180804	-0.17446	-11.06	0.28	2.31	0.4646	-0.003	-0.1935	
-0.96929	0.178364	-0.175192	-9.45	-0.42	2.1	0.4718	0	-0.1797	
-0.965386	0.171166	-0.17385	-7.35	-0.98	1.68	0.4719	-0.0123	-0.1935	
-0.970876	0.175192	-0.164334	-5.39	-1.54	1.33	0.4691	-0.009099999	-0.1813	
-0.96258	0.178852	-0.156404	-4.06	-2.38	0.98	0.4676	-0.0122	-0.1935	
-0.956236	0.178242	-0.15555	-2.8	-2.87	0.7	0.4486	-0.0028	-0.1997	
-0.950014	0.184098	-0.156648	-1.75	-2.8	0.84	0.4734	-0.0107	-0.1874	
-0.95038	0.182512	-0.152744	-1.47	-2.59	0.84	0.4632	-0.0045	-0.1844	
-0.958188	0.192882	-0.148596	-1.19	-2.03	0.49	0.4573	-0.0029	-0.189	
-0.95648	0.197396	-0.155184	-0.28	-2.03	0	0.4632	-0.0076	-0.189	
-0.95404	0.195688	-0.159698	1.12	-2.38	-0.14	0.4704	-0.0031	-0.1904	
-0.9638	0.196298	-0.154452	2.52	-2.8	-0.77	0.4618	-0.0106	-0.1905	
-0.96624	0.20496	-0.15677	2.94	-3.36	-1.47	0.463	0.0061	-0.1874	
-0.971364	0.210328	-0.156892	3.01	-3.85	-2.17	0.4573	-0.0029	-0.192	
-0.966362	0.2074	-0.15921	4.27	-3.78	-2.66	0.4689	-0.0061	-0.1935	
-0.96563	0.197396	-0.160308	6.23	-4.34	-2.52	0.4631	0	-0.1935	
-0.968314	0.186416	-0.163846	8.05	-5.25	-2.38	0.4573	-0.0029	-0.1966	
-0.980758	0.194956	-0.17202	9.31	-5.53	-3.01	0.4632	-0.0121	-0.192	
-0.99247	0.20374	-0.175558	8.54	-6.58	-4.27	0.4587	0.0016	-0.1966	
-0.997228	0.195688	-0.17141	7.63	-6.58	-5.18	0.4673	0.0045	-0.2042	
-0.995764	0.169946	-0.162504	8.54	-7.35	-5.81	0.4603	-0.0121	-0.1936	
-0.977708	0.15982	-0.153232	11.48	-8.68	-6.37	0.453	-0.0029	-0.1951	
-0.963556	0.163114	-0.14945	14.49	-8.19	-6.44	0.4545	-0.0136	-0.1951	
-0.96868	0.169824	-0.148352	15.26	-7.7	-6.44	0.4485	0.0001	-0.2013	
-0.981246	0.173606	-0.141886	14.42	-6.23	-5.88	0.4615	0.0015	-0.2027	
-0.991982	0.170312	-0.137982	13.44	-4.06	-5.11	0.4557	0.0077	-0.1997	
-0.987834	0.172996	-0.139934	14.42	-1.96	-4.27	0.4645	-0.003	-0.2042	
-0.98027	0.169214	-0.148474	16.17	-1.89	-3.99	0.4529	0.0001	-0.2043	
-0.976366	0.160918	-0.157136	17.78	-3.36	-4.41	0.4601	0	-0.2012	
-0.980392	0.162016	-0.171044	19.18	-5.6	-5.74	0.4587	0.0015	-0.1997	
-0.984418	0.15921	-0.16653	18.69	-6.79	-6.79	0.4529	0.0016	-0.1905	
-1.004182	0.161284	-0.16836	18.69	-6.02	-7.35	0.4631	-0.0015	-0.1966	
-1.019066	0.156038	-0.163236	20.02	-5.74	-7.35	0.4586	0.0046	-0.1966	
-1.014308	0.165676	-0.15067	22.12	-5.25	-6.86	0.4601	0.003	-0.2042	
-0.997716	0.169824	-0.14579	21.63	-3.08	-5.25	0.4615	0	-0.2134	
-0.987712	0.16775	-0.155306	18.97	0.63	-3.08	0.4658	0.0045	-0.2072	
-0.990884	0.162016	-0.164456	16.59	2.38	-1.68	0.4542	0.0016	-0.2165	
-0.99735	0.168116	-0.169946	15.19	1.89	-1.89	0.4544	-0.0044	-0.1982	
-1.0065	0.155794	-0.179828	15.19	0.7	-2.59	0.4574	-0.0106	-0.2028	
-1.015528	0.144204	-0.18544	15.68	-1.4	-2.87	0.4573	-0.0075	-0.2073	
-1.015162	0.120048	-0.175314	16.52	-2.8	-2.31	0.4543	-0.0014	-0.215	
-1.02297	0.115168	-0.184464	19.46	0.07	-2.24	0.4529	-0.0121	-0.215	
-1.014308	0.113948	-0.19215	22.26	0.42	-2.73	0.4572	-0.0014	-0.2088	
-1.00955	0.106018	-0.191052	23.94	-1.47	-3.29	0.4531	-0.0136	-0.2013	
-0.997838	0.103334	-0.173606	25.9	-1.82	-1.75	0.4616	-0.003	-0.1966	
-0.996496	0.10126	-0.182024	27.23	0.28	-0.63	0.4616	-0.0045	-0.2012	
-1.004914	0.10248	-0.170678	29.12	1.61	0.63	0.4588	-0.0152	-0.2043	
-1.000156	0.109556	-0.17873	28.7	2.31	2.1	0.4719	-0.0169	-0.2027	
-1.005646	0.13115	-0.185806	31.99	3.99	1.89	0.4574	-0.0182	-0.2028	
-1.025166	0.169214	-0.189954	30.59	-0.42	1.05	0.4532	-0.0227	-0.2043	
-1.013454	0.162504	-0.178486	28.42	5.67	1.19	0.4633	-0.0167	-0.189	
-1.000278	0.142984	-0.184464	26.81	6.86	1.54	0.4573	-0.009099999	-0.2089	
-0.99796	0.14457	-0.178852	23.59	6.23	2.38	0.4661	-0.0153	-0.1951	
-0.987468	0.143594	-0.169336	23.66	8.26	2.94	0.4647	-0.0198	-0.2012	
-0.987346	0.147376	-0.17629	25.83	9.66	2.31	0.4591	-0.0304	-0.1906	
-0.961848	0.156892	-0.177754	25.76	7.21	0.56	0.4691	-0.0229	-0.1951	
-0.968802	0.152378	-0.19947	24.08	7.28	0.49	0.4635	-0.0305	-0.1814	
-0.977708	0.163602	-0.18239	22.26	4.9	-0.28	0.4635	-0.032	-0.189	
-1.001742	0.18544	-0.235826	19.18	5.04	-0.21	0.4649	-0.0351	-0.1951	
-0.991616	0.184952	-0.201666	16.45	1.26	-0.07	0.462	-0.0336	-0.2028	
-0.98576	0.15921	-0.199226	9.8	0.56	-0.7	0.4664	-0.0351	-0.1982	
-0.98515	0.147986	-0.180438	3.43	-4.62	0.28	0.4576	-0.0258	-0.1936	
-0.979172	0.133346	-0.184098	4.06	0.35	1.12	0.459	-0.0274	-0.1982	
-0.978562	0.124562	-0.186172	2.73	1.96	0.77	0.4576	-0.0304	-0.1967	
-0.982222	0.120414	-0.18605	2.45	3.92	1.05	0.4679	-0.0351	-0.1875	
-0.983076	0.119072	-0.195932	0.7	1.61	1.47	0.4663	-0.0336	-0.1997	
-0.978928	0.115778	-0.200202	0.77	0.63	0.98	0.4679	-0.0397	-0.1951	
-0.976854	0.111508	-0.193492	0.07	0.14	0.35	0.4721	-0.0306	-0.1966	
-0.978318	0.11041	-0.196786	-0.98	1.61	0.21	0.4679	-0.0382	-0.1967	
-0.98088	0.11224	-0.200446	-1.89	0.98	0.49	0.4678	-0.0321	-0.1951	
-0.98088	0.120536	-0.199348	-1.96	0	0.7	0.4649	-0.0228	-0.1844	
-0.9882	0.13237	-0.201666	-0.84	0.77	0.63	0.4722	-0.0306	-0.192	
-0.977952	0.135664	-0.200202	-0.77	-0.28	0.21	0.4678	-0.0321	-0.1982	
-0.974048	0.133224	-0.198006	-1.89	0.14	0.42	0.4678	-0.0367	-0.2012	
-0.97478	0.137128	-0.18788	-3.5	-1.4	-0.07	0.465	-0.0366	-0.1921	
-0.97966	0.138348	-0.191052	-4.41	-1.33	-0.56	0.4677	-0.026	-0.1936	
-0.979782	0.134688	-0.193614	-6.3	-1.82	-0.7	0.4592	-0.0289	-0.1829	
-0.980148	0.134078	-0.197396	-7.7	-2.31	-1.12	0.4693	-0.0321	-0.189	
-0.984906	0.140666	-0.19703	-10.71	-5.6	-1.68	0.462	-0.029	-0.1951	
-0.991616	0.139446	-0.198494	-11.76	-5.95	-2.17	0.4576	-0.0212	-0.186	
-1.004792	0.14091	-0.202276	-13.72	-5.74	-1.4	0.465	-0.0305	-0.1844	
-1.012478	0.15006	-0.205082	-17.71	-8.05	0.49	0.452	-0.0395	-0.1891	
-1.010892	0.154574	-0.199836	-17.08	-8.26	0.07	0.4619	-0.0259	-0.1997	
-1.0004	0.154818	-0.192516	-18.06	-8.75	0	0.4692	-0.0352	-0.2089	
-0.985394	0.143838	-0.161284	-19.25	-6.86	-0.21	0.4649	-0.0336	-0.1967	
-0.999546	0.16958	-0.175924	-18.83	-5.39	-0.56	0.4618	-0.0213	-0.1997	
-1.004914	0.163358	-0.170434	-20.65	-7.84	-1.47	0.4604	-0.0228	-0.1997	
-0.999546	0.156038	-0.17751	-22.4	-7.98	-1.4	0.4619	-0.0244	-0.2043	
-0.99735	0.150304	-0.180316	-24.29	-5.18	0.07	0.4604	-0.0259	-0.2089	
-1.005158	0.14152	-0.185562	-26.18	-3.99	1.26	0.4676	-0.0229	-0.2058	
-1.010892	0.1403	-0.165066	-28.84	-6.3	2.17	0.4561	-0.0289	-0.2059	
-1.002352	0.124928	-0.149816	-29.89	-4.55	3.5	0.4587	-0.0152	-0.2211	
-0.992958	0.131638	-0.167018	-28.91	-3.99	3.36	0.4603	-0.0152	-0.2058	
-0.995032	0.1525	-0.17812	-28.21	-3.15	2.52	0.4472	-0.0166	-0.2166	
-0.99247	0.159088	-0.165066	-27.3	1.89	2.24	0.4574	-0.0152	-0.2089	
-1.002596	0.157746	-0.155916	-28.63	4.41	3.08	0.456	-0.0197	-0.2104	
-1.011014	0.16165	-0.158112	-28.84	2.03	3.08	0.453	-0.0136	-0.2089	
-0.994056	0.168726	-0.155916	-27.23	0	2.8	0.4602	-0.0122	-0.2119	
-0.994178	0.171654	-0.147986	-26.88	2.94	4.27	0.4545	-0.0182	-0.215	
-0.996496	0.17995	-0.151036	-26.04	6.44	4.34	0.4589	-0.0182	-0.2058	
-1.003938	0.18788	-0.153842	-27.09	8.4	4.41	0.4644	0	-0.2103	
-1.00711	0.195322	-0.16287	-30.31	8.61	5.04	0.4529	-0.006	-0.215	
-1.01138	0.204594	-0.16836	-35.98	5.11	7.14	0.4499	-0.0013	-0.2119	
-0.987224	0.176656	-0.17751	-34.02	5.25	7.49	0.4573	-0.0044	-0.1982	
-0.993934	0.17507	-0.185684	-28.91	10.92	5.32	0.4544	-0.006	-0.2028	
-1.00772	0.16104	-0.184586	-26.67	13.37	4.2	0.4644	-0.0031	-0.2103	
-1.01992	0.169946	-0.187636	-26.32	9.45	2.73	0.4644	0.0045	-0.195	
-1.004914	0.163968	-0.197396	-25.06	8.47	1.47	0.4544	-0.0044	-0.1966	
-1.00711	0.176656	-0.19886	-24.22	8.68	0.91	0.46	0.0061	-0.2057	
-1.009672	0.175558	-0.198616	-22.89	8.19	0.14	0.4558	-0.0045	-0.2058	
-1.010282	0.172996	-0.193248	-22.12	7.7	-0.63	0.4557	0.0062	-0.2012	
-1.003572	0.178608	-0.189588	-20.86	4.55	-1.96	0.4644	0.009099999	-0.192	
-0.98515	0.167628	-0.175558	-19.18	2.17	-2.87	0.4602	0.0015	-0.192	
-0.976732	0.164578	-0.162016	-17.78	1.75	-3.08	0.4572	0.0077	-0.1966	
-0.978196	0.15799	-0.142984	-16.17	1.05	-2.8	0.4657	0.0121	-0.2042	
-0.97173	0.144692	-0.135664	-15.12	1.12	-1.75	0.4557	0.0077	-0.1981	
-0.966362	0.14579	-0.132736	-14.91	1.61	-0.84	0.4687	0.0121	-0.198	
-0.962946	0.147742	-0.13176	-14.07	1.82	0.14	0.4543	0.0062	-0.2012	
-0.961604	0.147132	-0.131028	-12.81	1.96	0.42	0.4687	0.0106	-0.1996	
-0.960018	0.152256	-0.133102	-10.71	1.33	0.21	0.4658	0.0075	-0.2103	
-0.967216	0.148596	-0.131516	-8.47	0.28	-0.07	0.4658	0.009099999	-0.1935	
-0.96502	0.156404	-0.130784	-6.02	-0.21	-0.07	0.4701	0.0152	-0.195	
-0.958432	0.163358	-0.125172	-3.99	-0.49	0.35	0.46	0.0138	-0.195	
-0.959774	0.170434	-0.130174	-2.31	-0.77	1.05	0.4571	0.0077	-0.1996	
-0.960018	0.18422	-0.13603	-0.21	-1.68	1.54	0.4527	0.0108	-0.2073	
-0.964044	0.188246	-0.14091	1.33	-1.96	1.75	0.4586	0.0061	-0.1966	
-0.966362	0.186416	-0.146278	2.1	-2.66	1.33	0.4643	0.0106	-0.2026	
-0.972462	0.183732	-0.141398	2.8	-3.64	0.77	0.4674	0.003	-0.1965	
-0.973438	0.18666	-0.13847	3.64	-4.06	0.28	0.4615	0.0107	-0.195	
-0.972096	0.185562	-0.142252	4.27	-4.34	0	0.4584	0.0199	-0.1981	
-0.975268	0.18727	-0.138348	5.11	-5.04	-0.14	0.4571	0.0092	-0.1981	
-0.970998	0.185074	-0.131638	5.95	-5.39	-0.35	0.4687	0.0075	-0.2072	
-0.970144	0.186294	-0.13298	7	-5.95	-0.63	0.4529	0.0032	-0.1982	
-0.974536	0.186416	-0.133224	7.28	-6.37	-0.07	0.4643	0.0121	-0.2103	
-0.978928	0.187026	-0.137738	9.87	-7.84	-1.05	0.4513	0.0108	-0.2088	
-0.991982	0.18666	-0.137616	10.5	-6.79	-1.82	0.4542	0.0046	-0.2058	
-0.992348	0.182878	-0.138958	10.5	-8.47	-2.52	0.4599	0.009099999	-0.2134	
-0.98759	0.177388	-0.13664	11.27	-9.17	-3.01	0.4643	0.0106	-0.2103	
-0.988688	0.166774	-0.138836	12.39	-8.96	-3.29	0.4542	0.0046	-0.2195	
-0.989298	0.15311	-0.137494	14	-9.52	-3.71	0.4658	0.006	-0.2057	
-0.995276	0.162138	-0.134444	15.19	-8.61	-3.64	0.46	0.0015	-0.2119	
-1.00589	0.172996	-0.129564	17.08	-6.09	-4.83	0.4527	0.0046	-0.2134	
-1.003816	0.179706	-0.128466	18.06	-3.71	-5.88	0.4498	0.0062	-0.2119	
-0.994788	0.178608	-0.12871	19.39	-3.36	-6.3	0.4614	0.0045	-0.2164	
-0.982954	0.162138	-0.128954	21.77	-3.43	-6.44	0.4571	0.003	-0.2134	
-0.978562	0.159454	-0.12932	22.96	-3.5	-6.16	0.4499	-0.0029	-0.2242	
-0.979294	0.155672	-0.120414	22.75	-3.36	-5.67	0.4498	0.0031	-0.2226	
-0.981368	0.15128	-0.122122	22.54	-2.03	-5.39	0.4441	0.0017	-0.2059	
-0.989786	0.148962	-0.123708	23.17	-2.73	-5.25	0.4528	0.0046	-0.2104	
-0.999668	0.152012	-0.124074	24.92	-3.15	-5.53	0.4585	0.003	-0.2165	
-1.002474	0.149328	-0.13115	27.86	-3.43	-5.11	0.4485	0.0016	-0.2119	
-1.010282	0.14762	-0.143838	29.68	-1.19	-4.97	0.4571	-0.0014	-0.2165	
-1.013454	0.14152	-0.156038	31.36	0.35	-4.9	0.4471	-0.0059	-0.2059	
-1.006988	0.129442	-0.139934	32.41	-0.28	-4.27	0.4485	-0.0028	-0.2135	
-0.991494	0.126636	-0.167262	34.58	2.8	-3.08	0.4457	-0.0135	-0.212	
-1.016748	0.12261	-0.145546	34.09	4.76	-2.45	0.4515	-0.009	-0.2074	
-1.012112	0.111508	-0.168238	35.91	3.71	-0.28	0.4486	-0.0074	-0.212	
-1.006378	0.107238	-0.180804	36.75	2.73	1.05	0.4545	-0.0136	-0.2074	
-1.014186	0.111508	-0.195566	38.57	4.62	2.31	0.4589	-0.0198	-0.2104	
-1.007964	0.11163	-0.17446	36.89	2.03	2.94	0.4587	-0.0076	-0.2104	
-1.001376	0.116022	-0.164822	36.12	3.15	3.64	0.4602	-0.009099999	-0.2058	
-0.995642	0.121024	-0.167018	35.84	7.07	4.97	0.4646	-0.0153	-0.2104	
-0.995398	0.131638	-0.167384	35.77	10.43	6.86	0.4518	-0.0242	-0.1952	
-0.99613	0.156038	-0.170312	34.23	13.58	8.05	0.4575	-0.0274	-0.2074	
-0.988078	0.16775	-0.18422	30.17	14	8.47	0.4649	-0.0305	-0.1905	
-0.982222	0.163114	-0.185074	24.08	10.92	8.26	0.4561	-0.0274	-0.1998	
-0.9943	0.157868	-0.183732	20.65	10.01	8.33	0.4619	-0.0228	-0.1936	
-0.994544	0.155428	-0.188368	19.11	9.45	8.82	0.462	-0.0274	-0.1936	
-0.993446	0.15494	-0.180804	20.51	14.56	9.59	0.4607	-0.0396	-0.1937	
-0.987834	0.168848	-0.20069	17.15	15.26	10.01	0.468	-0.0397	-0.1783	
-0.982954	0.17812	-0.220088	15.12	14.14	9.52	0.4636	-0.0427	-0.1906	
-0.984174	0.192638	-0.220454	14	13.58	9.45	0.4638	-0.0503	-0.1845	
-0.965264	0.188368	-0.220088	11.2	6.93	8.47	0.4594	-0.0457	-0.1799	
-0.970022	0.191662	-0.211182	13.79	9.38	7	0.4665	-0.0397	-0.1814	
-0.970998	0.196908	-0.221918	11.69	8.96	6.3	0.4595	-0.0518	-0.1769	
-0.97051	0.20252	-0.218136	7.7	6.16	5.39	0.4609	-0.0518	-0.1784	
-0.966362	0.19337	-0.22387	2.31	2.52	4.9	0.4623	-0.0442	-0.1769	
-0.973072	0.193126	-0.225822	0.91	3.08	4.48	0.4609	-0.0503	-0.1754	
-0.97661	0.190686	-0.22936	0.98	3.92	4.41	0.461	-0.0579	-0.1723	
-0.97722	0.181048	-0.227408	0.56	2.87	3.92	0.4683	-0.0641	-0.1738	
-0.96868	0.174948	-0.224114	0.49	3.29	3.22	0.4667	-0.0458	-0.1738	
-0.963068	0.16897	-0.224846	0.28	3.85	2.45	0.4697	-0.0611	-0.1799	
-0.970144	0.166774	-0.234606	0.28	4.83	1.82	0.4597	-0.064	-0.1739	
-0.975512	0.175924	-0.240706	-0.14	4.69	1.33	0.4727	-0.0611	-0.1677	
-0.980148	0.183488	-0.246928	-1.05	3.22	1.05	0.471	-0.0504	-0.1799	
-0.974414	0.180316	-0.24034	-2.17	1.33	0.91	0.4799	-0.0582	-0.1722	
-0.969534	0.18117	-0.235216	-2.8	0.56	0.77	0.4712	-0.0565	-0.1662	
-0.962946	0.180682	-0.235582	-3.22	-0.56	0.35	0.4625	-0.061	-0.1739	
-0.958188	0.177754	-0.234484	-3.5	-2.45	-0.35	0.4639	-0.0549	-0.1677	
-0.9577	0.170068	-0.222772	-2.45	-3.29	-1.33	0.4655	-0.0687	-0.1739	
-0.965508	0.17385	-0.22448	-1.05	-3.08	-2.03	0.4669	-0.0641	-0.1662	
-0.96746	0.178242	-0.224724	-1.26	-2.8	-2.38	0.4683	-0.0595	-0.1723	
-0.967338	0.183	-0.216672	-3.29	-3.01	-2.45	0.4683	-0.0611	-0.1753	
-0.96502	0.18544	-0.215696	-4.48	-3.78	-2.87	0.4741	-0.0535	-0.1661	
-0.963312	0.176534	-0.220454	-5.18	-5.53	-3.57	0.4697	-0.058	-0.1738	
-0.968436	0.169092	-0.223992	-4.97	-5.81	-4.27	0.4799	-0.0535	-0.1646	
-0.984052	0.177632	-0.224968	-5.04	-4.76	-4.48	0.4696	-0.0519	-0.1875	
-0.990274	0.189832	-0.235094	-6.72	-4.76	-4.9	0.4667	-0.0458	-0.1753	
-1.010892	0.18361	-0.25559	-11.48	-7.35	-4.9	0.4638	-0.0503	-0.186	
-1.011746	0.186904	-0.251686	-14.42	-8.89	-4.83	0.458	-0.0518	-0.1846	
-1.007232	0.200324	-0.237046	-16.94	-10.57	-3.15	0.4783	-0.0551	-0.1859	
-1.000888	0.204106	-0.22326	-18.83	-11.48	-2.45	0.4638	-0.0534	-0.1876	
-0.988078	0.183122	-0.206058	-19.88	-14.21	-3.29	0.4535	-0.0426	-0.1846	
-0.972462	0.177266	-0.194712	-19.95	-15.61	-4.13	0.4652	-0.0519	-0.1891	
-0.973194	0.177144	-0.190808	-20.3	-10.92	-3.71	0.4665	-0.0474	-0.2074	
-0.984052	0.19398	-0.197274	-19.95	-2.59	-2.52	0.4577	-0.032	-0.1967	
-0.99857	0.179828	-0.204594	-24.71	-9.1	-3.36	0.4649	-0.0382	-0.2013	
-0.997838	0.179462	-0.198372	-26.6	-9.17	-3.15	0.4622	-0.0488	-0.1967	
-1.016504	0.181048	-0.202276	-24.08	-9.66	-3.5	0.4621	-0.0381	-0.1967	
-1.009306	0.17324	-0.185806	-25.83	-13.16	-3.01	0.4591	-0.0381	-0.2089	
-0.987712	0.157014	-0.16836	-22.05	-6.51	-2.24	0.462	-0.0412	-0.2089	
-0.98942	0.167384	-0.170068	-23.66	-5.39	-2.1	0.4634	-0.0336	-0.2043	
-0.992226	0.171654	-0.159942	-24.57	-7.91	-2.38	0.456	-0.0243	-0.2089	
-0.98393	0.170556	-0.141154	-24.57	-7.56	-2.52	0.4576	-0.0305	-0.2104	
-0.981246	0.179706	-0.142862	-24.99	-5.18	-3.01	0.4589	-0.0228	-0.2043	
-0.986492	0.17995	-0.146034	-25.2	-2.1	-2.52	0.4575	-0.0259	-0.2074	
-0.991372	0.180926	-0.147376	-25.76	0.63	-1.96	0.456	-0.0243	-0.212	
-0.994056	0.188368	-0.149206	-28.35	1.96	-0.91	0.4546	-0.0212	-0.2074	
-0.998692	0.192638	-0.15555	-33.46	5.53	2.31	0.4633	-0.0214	-0.2058	
-1.001864	0.199104	-0.161406	-34.79	9.03	3.92	0.4588	-0.009099999	-0.2073	
-1.005646	0.20313	-0.153232	-42.14	4.83	7.28	0.4574	-0.0152	-0.2028	
-1.005524	0.219356	-0.155428	-37.87	7.91	7.84	0.4588	-0.0106	-0.2104	
-0.994422	0.182756	-0.16043	-34.72	13.3	6.58	0.4532	-0.0227	-0.2028	
-0.997228	0.175558	-0.173606	-33.04	15.82	3.43	0.4574	-0.0167	-0.2135	
-0.998936	0.181902	-0.186294	-31.57	14	1.26	0.4617	-0.0168	-0.2104	
-0.99491	0.18422	-0.182146	-31.99	12.67	0.07	0.4588	-0.006	-0.1982	
-0.9943	0.177754	-0.175924	-31.85	13.09	-0.49	0.4603	-0.0075	-0.1936	
-0.998448	0.168726	-0.18483	-30.8	14.49	-0.56	0.4588	-0.0121	-0.2043	
-0.993202	0.159942	-0.18605	-27.86	12.46	-0.7	0.4646	-0.0107	-0.1981	
-0.981246	0.15189	-0.17324	-25.55	9.94	-0.07	0.4602	-0.0029	-0.1951	
-0.967216	0.144082	-0.157258	-22.61	8.89	0.28	0.4703	0.0014	-0.1965	
-0.97051	0.150182	-0.15677	-19.18	7.35	0.28	0.4515	-0.0013	-0.1875	
-0.97356	0.155428	-0.152744	-16.03	5.25	-0.49	0.4659	0.009099999	-0.1919	
-0.971364	0.146888	-0.141886	-13.37	3.08	-1.47	0.4601	0.0015	-0.1966	
-0.963312	0.13908	-0.14274	-10.71	1.05	-1.68	0.4602	-0.0045	-0.1905	
-0.956724	0.146034	-0.143716	-7.63	-0.77	-1.33	0.4601	0.0031	-0.1996	
-0.957944	0.1525	-0.130662	-5.25	-1.61	-0.56	0.4571	0.0169	-0.1874	
-0.952088	0.161406	-0.116998	-2.8	-2.03	0.07	0.4615	0.0122	-0.1935	
-0.94855	0.16958	-0.114924	-0.07	-1.61	0.7	0.4572	0.0046	-0.1935	
-0.950502	0.181048	-0.127612	2.52	-1.26	0.98	0.4717	0.0075	-0.1843	
-0.954162	0.198616	-0.13908	3.71	-1.68	0.7	0.4704	-0.0031	-0.1889	
-0.961726	0.205448	-0.150914	3.57	-1.68	0.56	0.4631	0	-0.1905	
-0.973926	0.203496	-0.159576	3.36	-1.82	0.28	0.4674	0	-0.1935	
-0.978196	0.199958	-0.158966	4.34	-3.71	-0.42	0.4645	0	-0.195	
-0.976488	0.198006	-0.152744	5.39	-4.9	-0.98	0.4602	-0.0014	-0.1951	
-0.973682	0.188612	-0.160552	6.16	-4.69	-0.98	0.4629	0.0137	-0.1904	
-0.983808	0.183122	-0.146156	5.25	-4.69	-0.07	0.4647	-0.009099999	-0.1874	
-0.973926	0.188368	-0.147132	6.58	-5.67	-0.35	0.4631	-0.003	-0.1951	
-0.978562	0.191784	-0.151646	8.61	-4.34	-0.35	0.4631	-0.0107	-0.2027	
-0.982832	0.198006	-0.154208	10.85	-7.21	-1.05	0.4529	-0.0029	-0.1967	
-0.986736	0.19764	-0.155062	13.51	-9.59	-1.89	0.4659	0.0014	-0.2042	
-0.989542	0.19093	-0.15616	15.26	-10.22	-3.08	0.4588	-0.0075	-0.2027	
-0.990884	0.186904	-0.15555	15.96	-10.99	-4.34	0.4587	-0.006	-0.2073	
-0.992226	0.177022	-0.145424	16.31	-10.78	-5.46	0.4543	-0.0044	-0.2073	
-0.993324	0.182146	-0.140422	16.31	-10.29	-5.95	0.4513	0.0031	-0.2165	
-0.985028	0.191052	-0.131394	16.52	-8.61	-6.16	0.4587	-0.009099999	-0.215	
-0.985882	0.189832	-0.135298	18.27	-6.79	-6.51	0.4587	-0.0076	-0.2104	
-0.9943	0.175802	-0.135054	20.3	-6.44	-6.79	0.4557	-0.003	-0.2165	
-0.996862	0.1647	-0.139446	21.63	-7.35	-6.51	0.4586	-0.0061	-0.218	
-1.000522	0.162748	-0.14396	22.75	-5.11	-6.09	0.4529	-0.0044	-0.215	
-1.007842	0.154208	-0.149206	22.82	-3.71	-5.53	0.4514	-0.0044	-0.2165	
-1.009428	0.15677	-0.145424	23.1	-5.32	-5.04	0.4543	-0.006	-0.2165	
-0.998814	0.152256	-0.146278	24.85	-5.25	-4.76	0.4558	-0.0045	-0.2119	
-0.997594	0.141764	-0.157258	26.95	-3.78	-5.04	0.4586	-0.003	-0.2195	
-1.003816	0.143472	-0.153842	27.58	-3.29	-5.46	0.4543	-0.0044	-0.2104	
-1.010648	0.145424	-0.156526	28.56	-3.08	-5.53	0.4499	-0.0014	-0.2211	
-1.01077	0.144082	-0.154696	31.08	-1.96	-4.48	0.463	-0.0092	-0.218	
-1.011624	0.135176	-0.153964	33.6	-2.03	-3.01	0.4515	-0.0029	-0.2028	
-1.003816	0.130296	-0.15433	36.47	-3.01	-1.68	0.4515	-0.009	-0.212	
-0.995886	0.117852	-0.142862	38.64	-0.84	0.21	0.4602	-0.0107	-0.2165	
-1.008086	0.12078	-0.155062	39.55	2.59	1.47	0.4472	-0.0151	-0.2181	
-1.00772	0.128222	-0.164578	38.22	1.89	2.31	0.4632	-0.0168	-0.2058	
-1.011136	0.127856	-0.162992	38.57	4.13	3.43	0.4617	-0.0122	-0.2088	
-1.00528	0.132614	-0.158478	37.8	4.55	4.34	0.459	-0.0274	-0.2089	
-1.001986	0.127002	-0.163724	36.61	9.94	6.23	0.4574	-0.0244	-0.2165	
-1.006622	0.135054	-0.17629	35.49	12.18	8.05	0.4676	-0.0214	-0.2058	
-0.99918	0.136274	-0.183244	35.56	11.06	8.68	0.4519	-0.0349	-0.1998	
-0.991128	0.135298	-0.184464	35.07	12.46	10.5	0.4534	-0.038	-0.1983	
-0.977952	0.13847	-0.196298	36.12	11.62	12.04	0.4548	-0.035	-0.1983	
-0.981978	0.154818	-0.184952	33.25	10.22	13.3	0.4607	-0.0442	-0.2028	
-0.975756	0.183	-0.183976	30.66	11.34	13.16	0.4607	-0.0442	-0.2013	
-0.99125	0.211914	-0.188002	25.83	11.2	12.11	0.4652	-0.0488	-0.183	
-0.986736	0.212646	-0.183488	21.91	13.51	11.97	0.4695	-0.0535	-0.1921	
-0.984296	0.20618	-0.198006	19.95	11.69	10.64	0.4711	-0.0596	-0.1875	
-0.978074	0.20191	-0.194468	18.06	10.99	10.36	0.4639	-0.0595	-0.1845	
-0.967704	0.196786	-0.199226	17.01	10.64	10.43	0.4639	-0.0595	-0.1784	
-0.956236	0.205814	-0.212158	16.1	9.94	9.87	0.4639	-0.0564	-0.1784	
-0.9577	0.213134	-0.21655	13.58	8.19	9.17	0.4668	-0.0641	-0.183	
-0.966728	0.213012	-0.21777	10.15	6.51	8.33	0.4597	-0.0671	-0.1724	
-0.968192	0.20984	-0.214598	7.42	5.25	7.56	0.4698	-0.0626	-0.1769	
-0.966362	0.206058	-0.215574	5.95	5.11	7.28	0.4741	-0.06879999	-0.1891	
-0.963068	0.209718	-0.222894	5.6	7	6.79	0.4627	-0.07319999	-0.1678	
-0.957944	0.212036	-0.232898	4.13	6.37	5.32	0.4655	-0.0671	-0.1769	
-0.95587	0.210694	-0.24156	2.73	5.88	3.71	0.4627	-0.0762	-0.1678	
-0.958432	0.207644	-0.248026	2.31	4.55	2.59	0.4657	-0.084	-0.1754	
-0.970632	0.216672	-0.23851	1.68	2.73	1.4	0.4656	-0.07319999	-0.1617	
-0.972706	0.219722	-0.242414	0.14	2.8	0.77	0.4698	-0.061	-0.1631	
-0.971852	0.219478	-0.246562	-0.63	2.38	0.49	0.4698	-0.061	-0.1631	
-0.967582	0.212768	-0.248026	-1.68	1.05	-0.77	0.4642	-0.07319999	-0.1678	
-0.962702	0.2074	-0.244122	-2.45	0.14	-1.61	0.4701	-0.0779	-0.1601	
-0.960262	0.206668	-0.238144	-3.08	-1.19	-2.38	0.4685	-0.0733	-0.1723	
-0.960872	0.202276	-0.235704	-3.85	-2.31	-2.87	0.47	-0.0733	-0.1662	
-0.962214	0.199592	-0.235582	-3.99	-2.66	-3.5	0.4597	-0.064	-0.1663	
-0.96319	0.198006	-0.232898	-3.64	-3.57	-4.69	0.4714	-0.0764	-0.1708	
-0.964654	0.197152	-0.236558	-3.71	-4.48	-5.53	0.4612	-0.07319999	-0.1708	
-0.967338	0.198738	-0.23546	-4.48	-5.11	-6.16	0.4597	-0.0686	-0.1724	
-0.968192	0.198372	-0.228994	-6.23	-7.21	-6.72	0.4627	-0.0717	-0.1693	
-0.971852	0.191296	-0.226066	-7.7	-9.1	-6.93	0.4611	-0.0702	-0.1815	
-0.974902	0.187148	-0.224846	-8.4	-9.52	-6.79	0.4683	-0.0641	-0.1799	
-0.975024	0.181902	-0.225822	-8.54	-10.29	-7.49	0.4639	-0.0656	-0.1876	
-0.96624	0.169214	-0.217038	-12.32	-15.4	-7.63	0.4611	-0.0656	-0.1785	
-0.966606	0.176046	-0.222284	-10.36	-10.01	-8.12	0.4697	-0.0596	-0.183	
-0.992958	0.185562	-0.222284	-13.02	-10.78	-8.05	0.4695	-0.0489	-0.1845	
-0.998082	0.180316	-0.210694	-16.8	-14.07	-7.7	0.4624	-0.0564	-0.18	
-1.000888	0.170312	-0.200202	-18.06	-13.65	-6.93	0.4681	-0.055	-0.1891	
-0.99613	0.171776	-0.193492	-18.83	-12.04	-6.09	0.4537	-0.0624	-0.1922	
-0.988322	0.17019	-0.197152	-19.74	-9.45	-5.67	0.4666	-0.0504	-0.1906	
-0.982466	0.165432	-0.196664	-21.21	-8.89	-5.6	0.4579	-0.0549	-0.1983	
-0.98454	0.159088	-0.185928	-22.33	-8.96	-4.83	0.4637	-0.0565	-0.1983	
-0.990518	0.164212	-0.176534	-22.61	-7.98	-3.29	0.4621	-0.0412	-0.1998	
-0.993934	0.166164	-0.177876	-22.61	-7	-2.52	0.4536	-0.0533	-0.1983	
-0.992226	0.161772	-0.173118	-22.61	-5.6	-2.45	0.4563	-0.0411	-0.2013	
-0.98759	0.162382	-0.167018	-22.75	-3.15	-2.73	0.4535	-0.0426	-0.1952	
-0.989664	0.165188	-0.164334	-21.91	-0.56	-3.01	0.4592	-0.0442	-0.2105	
-0.986858	0.166408	-0.159698	-21.21	1.61	-3.43	0.4707	-0.0382	-0.1997	
-0.984662	0.164578	-0.155184	-20.37	1.61	-4.13	0.4662	-0.0229	-0.1982	
-0.982832	0.165676	-0.169702	-22.33	-4.34	-4.62	0.4606	-0.0335	-0.1936	
-0.986248	0.170678	-0.16653	-21.63	-1.47	-3.36	0.4633	-0.029	-0.2089	
-0.995886	0.1647	-0.165066	-21.21	-0.56	-2.59	0.4636	-0.0443	-0.2043	
-0.992958	0.167018	-0.153354	-22.05	-3.22	-2.17	0.459	-0.029	-0.2104	
-0.986126	0.167262	-0.14335	-20.58	-4.76	-2.24	0.4517	-0.0289	-0.2105	
-0.979782	0.163114	-0.139202	-18.62	-3.78	-2.8	0.456	-0.0243	-0.2089	
-0.980636	0.154452	-0.135786	-17.15	-0.7	-3.36	0.4488	-0.0227	-0.2105	
-0.98515	0.144814	-0.13298	-16.45	1.12	-3.85	0.456	-0.0244	-0.2196	
-0.979294	0.1464	-0.126636	-15.33	2.03	-3.78	0.4545	-0.0259	-0.2196	
-0.9821	0.13969	-0.12566	-13.37	3.71	-3.43	0.4662	-0.026	-0.2119	
-0.975146	0.134566	-0.124928	-10.99	2.8	-3.5	0.4617	-0.0152	-0.2119	
-0.970632	0.136396	-0.129198	-8.05	2.45	-3.71	0.4544	-0.0121	-0.2089	
-0.973072	0.134078	-0.134932	-5.46	2.87	-3.57	0.4632	-0.0137	-0.2073	
-0.976244	0.132614	-0.13237	-4.48	3.92	-2.94	0.456	-0.0167	-0.2074	
-0.977952	0.132858	-0.128222	-3.57	5.39	-2.59	0.4559	-0.0106	-0.2104	
-0.989542	0.140178	-0.134688	-2.17	6.44	-2.52	0.4559	-0.0152	-0.2089	
-0.98698	0.134078	-0.145546	-2.1	5.67	-2.1	0.4545	-0.0197	-0.2074	
-0.991738	0.14213	-0.16226	-1.05	5.95	-1.61	0.4602	-0.0106	-0.2088	
-1.000278	0.12688	-0.174826	-0.49	6.02	-1.05	0.4589	-0.0259	-0.2165	
-1.003206	0.123586	-0.180682	0.7	6.79	-0.91	0.456	-0.0136	-0.2012	
-1.023946	0.129442	-0.199104	1.89	7.98	-0.14	0.4647	-0.0137	-0.1981	
-1.02541	0.15433	-0.213012	2.59	5.11	-0.07	0.4632	-0.0137	-0.1997	
-1.022116	0.158234	-0.213256	2.03	0.98	-0.28	0.4545	-0.0197	-0.2089	
-1.017236	0.163236	-0.209474	2.8	-1.61	-0.7	0.4646	-0.0107	-0.2027	
-1.013576	0.169458	-0.19947	4.41	-2.66	-1.61	0.4502	-0.0166	-0.2013	
-1.010282	0.169824	-0.18971	4.9	-3.64	-2.24	0.4645	-0.0076	-0.2103	
-1.006988	0.16653	-0.179462	4.41	-3.99	-2.1	0.4588	-0.0137	-0.2043	
-1.006988	0.154452	-0.183976	5.39	-1.4	-2.24	0.466	-0.0122	-0.2103	
-1.004304	0.15311	-0.162626	4.62	-4.9	-2.45	0.4573	-0.0121	-0.2119	
-0.993568	0.156404	-0.157136	5.25	-4.9	-2.73	0.4545	-0.0167	-0.2058	
-0.98942	0.16897	-0.146766	4.27	1.19	-2.66	0.4546	-0.0166	-0.1982	
-0.98149	0.133956	-0.171044	2.52	2.38	-1.82	0.4529	-0.0059	-0.2074	
-0.981246	0.116754	-0.165432	4.06	-3.29	-1.75	0.4588	-0.0137	-0.2089	
-0.980026	0.117364	-0.152378	6.09	-3.22	-1.96	0.4661	-0.0183	-0.2027	
-0.995642	0.132126	-0.153598	5.39	-1.12	-1.19	0.4644	-0.0031	-0.2103	
-0.98881	0.138104	-0.155062	5.95	-3.64	-1.26	0.4574	-0.0152	-0.2058	
-0.988688	0.14823	-0.158112	6.93	-1.89	-0.28	0.4602	-0.0168	-0.215	
-0.99552	0.15616	-0.151036	6.23	-0.56	-0.28	0.4632	-0.0168	-0.2088	
-0.989176	0.15738	-0.147376	4.9	-0.14	-0.35	0.466	-0.0107	-0.2134	
-0.9882	0.161894	-0.16043	4.27	0.42	-0.07	0.4573	-0.0167	-0.2226	
-0.995398	0.164944	-0.163846	3.15	0.56	0.21	0.4588	-0.009099999	-0.2073	
-0.995642	0.16043	-0.161162	1.26	0.49	0.28	0.4486	-0.0089	-0.2074	
-0.99186	0.160674	-0.16836	0.14	-0.21	-0.07	0.4544	-0.009	-0.2028	
-0.994788	0.15799	-0.166164	-1.68	-0.91	0.07	0.4559	-0.009	-0.2073	
-0.995398	0.147132	-0.161162	-2.66	-1.82	0.28	0.4529	-0.0075	-0.2058	
-0.990274	0.138836	-0.156404	-3.29	-1.54	0.63	0.4532	-0.0258	-0.2089	
-0.986736	0.141886	-0.14762	-2.73	-0.84	0.63	0.4574	-0.0136	-0.2089	
-0.987224	0.148352	-0.14091	-1.82	-0.21	0.28	0.4545	-0.0197	-0.215	
-0.986736	0.145668	-0.155916	-0.84	0.49	0	0.4529	-0.0106	-0.2165	
-0.990762	0.140178	-0.15799	-0.7	-0.07	-0.28	0.4603	-0.0183	-0.2119	
-0.99125	0.140666	-0.16043	-1.19	-0.28	-0.56	0.456	-0.0198	-0.212	
-0.995398	0.147132	-0.150792	-1.47	0.7	-0.56	0.4618	-0.0229	-0.2119	
-0.989908	0.1525	-0.150304	-1.61	-0.49	-0.77	0.453	-0.0151	-0.2104	
-0.98515	0.152988	-0.147132	-0.63	0.21	-0.7	0.4602	-0.009099999	-0.2119	
-0.98393	0.14396	-0.145302	-0.21	0	-0.56	0.4632	-0.0168	-0.2104	
-0.980514	0.138714	-0.139934	-0.14	-0.28	-0.42	0.4589	-0.0228	-0.2058	
-0.980148	0.144326	-0.13847	0.07	0.7	-0.42	0.4602	-0.0183	-0.218	
-0.98088	0.144082	-0.142496	0.21	1.12	-0.35	0.4602	-0.009099999	-0.2043	
-0.981246	0.153354	-0.147254	0.56	1.12	-0.07	0.4588	-0.0137	-0.2058	
-0.992592	0.158966	-0.15006	-0.35	1.47	0.35	0.4545	-0.0136	-0.2074	
-1.000766	0.154574	-0.15982	-1.33	2.31	0.63	0.466	-0.0107	-0.2042	
-1.00162	0.150304	-0.168604	-1.54	4.27	0.98	0.4573	-0.0167	-0.2196	
-0.999424	0.144326	-0.17507	-1.26	4.83	0.84	0.4646	-0.0168	-0.2195	
-1.006256	0.157746	-0.183366	-2.52	6.09	1.4	0.4675	-0.0123	-0.2103	
-1.005036	0.15982	-0.188978	-2.94	4.13	1.26	0.4574	-0.0136	-0.2073	
-1.006256	0.152866	-0.19093	-3.64	3.85	1.68	0.4632	-0.0122	-0.1997	
-1.006012	0.145302	-0.191418	-4.55	3.29	1.96	0.4589	-0.0198	-0.2058	
-0.999668	0.13847	-0.189466	-4.83	1.82	1.75	0.4631	-0.0045	-0.2042	
-0.999302	0.135176	-0.181536	-4.34	1.19	1.33	0.4544	-0.0029	-0.2028	
-0.99674	0.133468	-0.175436	-3.78	0.14	0.91	0.4531	-0.0166	-0.2059	
-0.99369	0.131882	-0.170556	-3.57	-0.49	0.98	0.4603	-0.0183	-0.2089	
-0.987346	0.130052	-0.163846	-3.5	-0.84	1.4	0.4617	-0.0137	-0.2088	
-0.980392	0.135786	-0.152378	-3.15	-0.56	2.1	0.4602	-0.0106	-0.2058	
-0.979782	0.139446	-0.146522	-2.8	0	2.8	0.4574	-0.0167	-0.2089	
-0.979904	0.143716	-0.152744	-2.24	0.35	3.01	0.4603	-0.0167	-0.2028	
-0.984662	0.150304	-0.161528	-2.03	0.91	3.29	0.456	-0.0213	-0.215	
-0.989542	0.157624	-0.167018	-2.03	0.91	3.29	0.4602	-0.0122	-0.2058	
-0.99308	0.165432	-0.17141	-2.24	0.84	3.29	0.4559	-0.009	-0.2043	
-0.994788	0.170922	-0.173362	-2.73	0.56	3.29	0.453	-0.012	-0.2013	
-0.99491	0.171166	-0.171776	-3.43	0.7	3.57	0.4532	-0.0212	-0.1982	
-0.994666	0.173118	-0.175192	-3.71	0.77	3.85	0.4545	-0.0167	-0.2089	
-0.9943	0.171532	-0.171532	-3.57	0.91	4.34	0.4632	-0.0152	-0.1981	
-0.994788	0.173362	-0.176656	-3.29	0.77	4.34	0.4675	-0.0107	-0.2027	
-0.993812	0.174704	-0.176656	-3.57	-0.14	4.27	0.4559	-0.0136	-0.2104	
-0.992104	0.176534	-0.173606	-3.78	-0.63	3.99	0.4646	-0.009099999	-0.2042	
-0.990762	0.177144	-0.170312	-3.64	-0.49	3.57	0.4618	-0.0152	-0.1982	
-0.99064	0.176412	-0.16531	-3.71	-0.91	3.57	0.4574	-0.0152	-0.2012	
-0.987712	0.171898	-0.161894	-3.57	-0.98	3.71	0.4632	-0.0168	-0.2058	
-0.986492	0.17324	-0.160918	-3.5	-0.7	4.06	0.4589	-0.0183	-0.2089	
-0.98515	0.17629	-0.16104	-3.71	-0.49	4.34	0.4647	-0.0214	-0.2073	
-0.984662	0.177754	-0.165066	-4.2	0	4.62	0.4675	-0.0153	-0.2058	
-0.985516	0.181658	-0.161406	-4.34	0.42	4.69	0.4574	-0.0167	-0.2074	
-0.984662	0.181902	-0.161528	-3.92	0.07	4.48	0.459	-0.0274	-0.2058	
-0.982832	0.186294	-0.161894	-3.57	0.28	4.27	0.4559	-0.0152	-0.2074	
-0.983442	0.190198	-0.163602	-3.5	-0.21	3.78	0.4661	-0.0214	-0.2073	
-0.983076	0.190564	-0.162138	-3.71	-0.7	3.5	0.4503	-0.0273	-0.2059	
-0.983076	0.195078	-0.16165	-3.43	-0.91	3.08	0.4706	-0.0291	-0.2058	
-0.982832	0.195932	-0.155062	-2.52	-0.63	2.94	0.4589	-0.0213	-0.2028	
-0.97844	0.198738	-0.155184	-1.33	-0.28	2.45	0.456	-0.0136	-0.1997	
-0.978562	0.2013	-0.152866	-1.12	0.21	2.1	0.4561	-0.0258	-0.1998	
-0.97661	0.202398	-0.155672	-1.47	0.35	1.68	0.4633	-0.0229	-0.2043	
-0.977708	0.202764	-0.158112	-1.54	0.7	1.47	0.4604	-0.0213	-0.2043	
-0.98149	0.198616	-0.16104	-1.47	0.21	1.61	0.4591	-0.0351	-0.2089	
-0.98454	0.193614	-0.15921	-1.61	0	1.89	0.4589	-0.0228	-0.2058	






-0.979294	0.187514	-0.156282	-0.42	-0.49	0.56	0.4588	-0.0167	-0.2104	
-0.984296	0.20923	-0.164822	-0.63	1.05	0.21	0.459	-0.0259	-0.2089	
-0.983442	0.205204	-0.16165	-0.84	1.12	0.42	0.4546	-0.0274	-0.2105	
-0.983686	0.202764	-0.164578	-0.7	1.33	0.49	0.4504	-0.0365	-0.2105	
-0.984052	0.203618	-0.169824	-0.84	1.33	0.56	0.462	-0.0305	-0.1997	
-0.98271	0.200812	-0.169824	-0.84	1.12	0.49	0.4548	-0.0365	-0.2059	
-0.983564	0.201178	-0.16775	-0.77	0.28	0.42	0.4646	-0.0199	-0.2165	
-0.981002	0.203252	-0.1647	-0.42	-0.21	0.28	0.4561	-0.0289	-0.2074	
-0.981612	0.202886	-0.16043	-0.35	0.07	0.35	0.4504	-0.0365	-0.2075	
-0.981612	0.203496	-0.16287	-0.14	0.21	0.28	0.4532	-0.0273	-0.2044	
-0.981246	0.204472	-0.163236	-0.14	0.21	0.35	0.456	-0.0213	-0.2043	
-0.982832	0.205692	-0.164456	-0.14	0.49	0.35	0.4546	-0.0304	-0.2135	
-0.981734	0.20557	-0.165554	-0.14	0.49	0.28	0.4619	-0.0229	-0.1997	
-0.9821	0.207644	-0.165554	-0.21	0.63	0.42	0.4547	-0.0289	-0.2013	
-0.979172	0.208132	-0.164456	-0.14	0.35	0.28	0.4591	-0.032	-0.2043	
-0.978196	0.206912	-0.16714	0	0.07	0.14	0.4633	-0.0244	-0.2058	
-0.980392	0.205814	-0.162138	0	0.14	0	0.4678	-0.0367	-0.2012	
-0.977098	0.202764	-0.16104	0.42	0.14	-0.21	0.4603	-0.0183	-0.2043	
-0.978562	0.203862	-0.161284	0.7	-0.07	-0.35	0.4532	-0.0227	-0.1967	
-0.979538	0.205448	-0.166408	0.49	0.42	-0.42	0.4664	-0.0351	-0.1982	
-0.984052	0.21228	-0.166652	0.07	0.91	-0.28	0.4577	-0.0396	-0.2013	
-0.984174	0.20801	-0.169214	-0.56	0.56	0.21	0.4547	-0.0335	-0.2044	
-0.98271	0.20862	-0.168726	-0.77	0.42	0.42	0.459	-0.029	-0.2104	
-0.980758	0.20496	-0.166774	-0.91	0.28	0.49	0.4574	-0.0198	-0.2074	
-0.983808	0.206546	-0.166896	-0.98	0.63	0.49	0.4518	-0.035	-0.2166	
-0.981856	0.20801	-0.168238	-1.12	0.28	0.42	0.4591	-0.0366	-0.212	
-0.981612	0.207522	-0.168116	-1.33	0.21	0.7	0.4691	-0.0214	-0.1981	
-0.98271	0.203618	-0.167994	-1.54	0.21	0.91	0.4576	-0.0305	-0.2104	
-0.984052	0.2013	-0.167018	-1.68	-0.14	0.91	0.4618	-0.0275	-0.2119	
-0.980392	0.202154	-0.165066	-0.98	-0.49	0.7	0.4532	-0.0319	-0.2135	
-0.977952	0.204472	-0.162504	-0.35	-0.42	0.49	0.459	-0.0289	-0.2074	
-0.977098	0.205204	-0.16043	-0.07	-0.21	0	0.4677	-0.0291	-0.2119	
-0.976976	0.208376	-0.1586	0.14	-0.42	-0.21	0.4503	-0.0288	-0.2029	
-0.977464	0.208132	-0.163846	0.28	-0.35	-0.21	0.4619	-0.029	-0.2013	
-0.977586	0.20923	-0.162992	0.49	-0.7	-0.14	0.4576	-0.0304	-0.2043	
-0.981002	0.208864	-0.161772	0.77	-0.77	-0.14	0.4576	-0.035	-0.2059	
-0.978684	0.211914	-0.162138	0.56	-0.28	-0.14	0.4604	-0.0275	-0.2135	
-0.98149	0.216306	-0.167384	0.7	0.21	-0.21	0.4662	-0.0229	-0.2088	
-0.981978	0.21411	-0.16531	0.42	0.35	-0.42	0.4533	-0.0335	-0.2074	
-0.98149	0.212768	-0.167994	0	-0.28	-0.35	0.4546	-0.0243	-0.1998	
-0.981124	0.209352	-0.169336	0.07	-0.21	-0.28	0.459	-0.029	-0.2104	
-0.984418	0.206546	-0.167628	-0.28	-0.35	-0.14	0.4662	-0.0321	-0.215	
-0.981734	0.206302	-0.16348	-0.56	-0.7	-0.07	0.4546	-0.0243	-0.2105	
-0.981856	0.208986	-0.161528	-0.49	0.07	0.07	0.4532	-0.0304	-0.2044	
-0.978806	0.208742	-0.161162	-0.35	0.21	0.07	0.4605	-0.0305	-0.2074	
-0.977342	0.206546	-0.161284	0.14	0.14	0	0.4634	-0.0259	-0.1967	
-0.97783	0.205448	-0.163358	0.42	-0.07	-0.14	0.4663	-0.0306	-0.2012	
-0.97966	0.209352	-0.16287	0.42	-0.35	-0.21	0.4678	-0.0398	-0.2089	
-0.981856	0.209474	-0.16104	0.21	-0.42	-0.35	0.4548	-0.0365	-0.2074	
-0.981368	0.211426	-0.163724	0.14	-0.91	-0.35	0.4591	-0.0335	-0.1998	
-0.981612	0.212036	-0.163236	0.35	0.28	-0.42	0.4577	-0.035	-0.1998	
-0.981734	0.207644	-0.161894	0.21	0.42	-0.49	0.4532	-0.0304	-0.2105	
-0.979172	0.207156	-0.163236	0.28	0.21	-0.7	0.4533	-0.0334	-0.2044	
-0.977586	0.206912	-0.162992	0.98	-0.42	-0.7	0.4561	-0.0258	-0.2043	
-0.982588	0.207156	-0.162016	1.19	-0.42	-0.7	0.4619	-0.032	-0.2089	
-0.984174	0.208742	-0.163846	0.28	-0.07	-0.7	0.459	-0.0335	-0.212	
-0.98393	0.206912	-0.171166	-0.49	0.35	-0.35	0.4562	-0.0335	-0.2059	
-0.984174	0.202276	-0.167018	-0.49	0.35	-0.14	0.4633	-0.0275	-0.2043	
-0.98393	0.201544	-0.162626	-0.35	0	-0.07	0.459	-0.029	-0.212	
-0.979172	0.203618	-0.16165	0.28	-0.14	-0.21	0.4576	-0.0305	-0.2074	
-0.979538	0.207156	-0.162504	0.91	-0.07	-0.56	0.459	-0.0289	-0.2059	
-0.978318	0.210206	-0.161528	0.91	0.07	-0.77	0.459	-0.0274	-0.2013	
-0.978684	0.210084	-0.166164	0.42	0.14	-0.42	0.4504	-0.0303	-0.2029	
-0.9821	0.208986	-0.166652	0.42	-0.42	-0.35	0.4649	-0.0321	-0.2028	
-0.982954	0.210572	-0.16226	-0.35	-0.56	-0.14	0.4548	-0.0334	-0.1967	
-0.981978	0.207888	-0.163602	-0.98	0.21	0.14	0.4619	-0.0274	-0.1982	
-0.981734	0.206424	-0.162748	-0.7	0.07	0.28	0.4576	-0.0304	-0.2013	
-0.980392	0.20496	-0.15921	0	0	0.21	0.456	-0.0228	-0.2059	
-0.97905	0.205326	-0.163602	0	0.35	0.28	0.4576	-0.0243	-0.1982	
-0.980392	0.20679	-0.164212	-0.56	0.28	0.35	0.4633	-0.029	-0.2104	
-0.982954	0.210816	-0.165432	-0.63	0.21	0.28	0.4619	-0.0305	-0.2074	
-0.986004	0.213622	-0.167384	-0.28	-0.21	0.21	0.4618	-0.0275	-0.2135	
-0.984418	0.212768	-0.166408	-0.14	-0.21	0.14	0.4605	-0.029	-0.2043	
-0.98027	0.210206	-0.1647	-0.35	0.28	0	0.4648	-0.0321	-0.2074	
-0.97905	0.207522	-0.159576	-0.42	0.21	-0.21	0.4503	-0.0273	-0.2013	
-0.977342	0.207156	-0.158478	-0.35	0.28	-0.35	0.4548	-0.035	-0.1952	
-0.977464	0.207034	-0.160064	-0.07	0.07	-0.56	0.4604	-0.0228	-0.2028	
-0.978806	0.208254	-0.163358	0.42	0.07	-0.56	0.4561	-0.0289	-0.2074	
-0.98088	0.207766	-0.160674	0.77	-0.07	-0.7	0.4546	-0.0243	-0.2105	
-0.981612	0.208132	-0.16714	0.77	0.35	-0.7	0.459	-0.0274	-0.2089	
-0.981002	0.204472	-0.167628	0.42	0.14	-0.77	0.4562	-0.0335	-0.2089	
-0.981734	0.204228	-0.16348	0.14	-0.7	-0.56	0.4562	-0.032	-0.2028	
-0.985272	0.205082	-0.16287	0.07	0.14	-0.56	0.4575	-0.0243	-0.2043	
-0.986614	0.208132	-0.1647	-0.14	0.42	-0.56	0.4665	-0.0382	-0.189	
-0.981734	0.21106	-0.16653	-0.07	0.49	-0.63	0.4547	-0.0304	-0.2013	
-0.981978	0.205814	-0.16836	0.21	0.84	-0.7	0.4677	-0.0321	-0.2104	
-0.982344	0.20374	-0.166042	0	-0.07	-0.84	0.4561	-0.0274	-0.2013	
-0.979294	0.203374	-0.162626	-0.21	-0.28	-0.7	0.456	-0.0228	-0.2074	
-0.97966	0.202642	-0.159698	-0.21	-0.28	-0.35	0.4675	-0.0168	-0.2073	
-0.978318	0.204106	-0.157136	0	-0.42	-0.07	0.4677	-0.026	-0.2043	
-0.98088	0.206058	-0.159942	0.21	-0.21	0	0.4533	-0.0304	-0.2013	
-0.980636	0.206058	-0.161894	0.28	0.14	0.07	0.4633	-0.0259	-0.2043	
-0.9821	0.204228	-0.164944	0.07	0.21	0	0.4547	-0.0289	-0.1967	
-0.984784	0.207156	-0.167384	0	0.07	0	0.4547	-0.0335	-0.2059	
-0.984174	0.207522	-0.165066	0.07	0.14	-0.14	0.4619	-0.0275	-0.2058	
-0.981734	0.209718	-0.164212	0.42	-0.07	-0.35	0.4546	-0.0258	-0.2043	
-0.979904	0.207644	-0.162382	0.7	-0.21	-0.56	0.4576	-0.0304	-0.2043	
-0.978928	0.205082	-0.162138	0.84	-0.07	-0.63	0.4649	-0.0305	-0.2012	
-0.978684	0.203374	-0.162382	0.35	0.28	-0.56	0.4619	-0.0274	-0.1997	
-0.981368	0.203984	-0.16287	0.14	0.14	-0.42	0.4591	-0.0351	-0.2089	
-0.9821	0.205204	-0.16409	0.49	-0.21	-0.28	0.4633	-0.0275	-0.2104	
-0.98149	0.20374	-0.16775	0.77	-0.35	-0.14	0.459	-0.0244	-0.2043	
-0.981734	0.20496	-0.165066	0.56	-0.63	-0.07	0.4647	-0.0275	-0.2165	
-0.983076	0.205448	-0.160552	0.35	-0.56	0.07	0.4548	-0.035	-0.2044	
-0.981856	0.205326	-0.158234	-0.07	-0.07	0.07	0.4634	-0.0351	-0.2074	
-0.981246	0.204838	-0.16226	-0.42	0.49	0.07	0.4619	-0.0274	-0.2043	
-0.982466	0.20374	-0.16592	-0.28	0.49	0	0.4635	-0.0351	-0.2028	
-0.9821	0.203496	-0.167262	0.07	0.28	0.07	0.4691	-0.0291	-0.2058	
-0.983442	0.205326	-0.165554	0.14	-0.21	0.07	0.456	-0.0213	-0.2059	
-0.983198	0.205326	-0.164334	0	0	-0.07	0.4576	-0.0274	-0.2013	
-0.981246	0.202642	-0.163724	0	-0.07	-0.14	0.456	-0.0182	-0.2043	
-0.97905	0.202764	-0.16165	0.35	-0.21	-0.28	0.4533	-0.0304	-0.1922	
-0.980514	0.204106	-0.159698	0.7	-0.35	-0.49	0.4547	-0.0243	-0.1967	
-0.982344	0.205448	-0.163114	0.63	-0.07	-0.42	0.4575	-0.0182	-0.1997	
-0.979904	0.201422	-0.163114	0.56	-0.14	-0.28	0.4531	-0.0182	-0.2043	
-0.983076	0.205082	-0.162382	0.21	-0.14	-0.14	0.4633	-0.0229	-0.2073	
-0.982222	0.206668	-0.16165	0	0.35	0	0.4634	-0.0321	-0.2043	
-0.982466	0.207766	-0.164456	-0.14	0.63	0.21	0.4605	-0.029	-0.2043	
-0.981978	0.20801	-0.167384	0.21	0.07	0.07	0.4605	-0.0335	-0.2013	
-0.98271	0.205936	-0.165432	0.14	-0.21	0.07	0.456	-0.0228	-0.2089	
-0.984052	0.20679	-0.16531	-0.35	0	0	0.4606	-0.0366	-0.2043	
-0.984784	0.205082	-0.165066	-0.63	0.07	-0.14	0.462	-0.0336	-0.2043	
-0.985272	0.204594	-0.161406	-0.77	-0.07	-0.21	0.4647	-0.0229	-0.2119	
-0.984906	0.204716	-0.162382	-0.42	0.35	-0.14	0.4591	-0.032	-0.1998	
-0.981734	0.20557	-0.166774	-0.07	0.49	-0.28	0.4574	-0.0213	-0.2104	
-0.97905	0.207888	-0.165676	0.07	0.35	-0.35	0.4661	-0.0214	-0.2119	
-0.977098	0.206424	-0.162626	0.21	-0.28	-0.49	0.4576	-0.0305	-0.2059	
-0.976488	0.206424	-0.159454	0.56	-0.98	-0.7	0.4647	-0.0214	-0.1997	
-0.977342	0.202764	-0.157258	0.49	-0.91	-0.77	0.4605	-0.0305	-0.2028	
-0.978806	0.20252	-0.153476	0.21	-0.28	-0.91	0.4619	-0.0244	-0.1997	
-0.978684	0.200934	-0.158844	-0.28	0.14	-0.28	0.4663	-0.0306	-0.2089	
-0.980514	0.204228	-0.160186	-0.14	0.91	0	0.4678	-0.0336	-0.2012	
-0.984052	0.205448	-0.16531	-0.28	1.19	0.07	0.4633	-0.0229	-0.2058	
-0.98454	0.207766	-0.165798	-0.49	0.28	0.07	0.4648	-0.0214	-0.1982	
-0.985882	0.210938	-0.169336	-0.7	1.05	0.14	0.4706	-0.0276	-0.2027	
-0.987468	0.20984	-0.168848	-1.47	1.61	0.28	0.4575	-0.0243	-0.2043	
-0.987834	0.208864	-0.170922	-1.96	1.33	0.42	0.4604	-0.0305	-0.2104	
-0.986858	0.20496	-0.171166	-1.47	0.63	0.35	0.4576	-0.0305	-0.2089	
-0.9882	0.204594	-0.173118	-1.19	0.42	0.35	0.462	-0.032	-0.1997	
-0.99003	0.207156	-0.168604	-0.56	-0.49	0	0.4618	-0.0259	-0.2089	
-0.992592	0.207522	-0.170312	0.07	-0.49	-0.28	0.4632	-0.0214	-0.2089	
-0.992348	0.204716	-0.170434	0.56	-0.56	-0.56	0.4576	-0.0243	-0.1967	
-0.987956	0.203618	-0.167262	0.35	-1.05	-0.49	0.4605	-0.0305	-0.2028	
-0.985272	0.203374	-0.170678	0.28	-0.91	-0.35	0.4648	-0.0275	-0.2058	
-0.984296	0.200812	-0.16958	0.35	-1.19	-0.07	0.4546	-0.0243	-0.2013	
-0.9821	0.19886	-0.167994	-0.21	-1.96	0.42	0.4648	-0.0306	-0.2089	
-0.981612	0.196908	-0.160308	-0.49	-2.17	0.7	0.4591	-0.032	-0.1967	
-0.977586	0.198982	-0.158844	-1.05	-1.89	0.98	0.4576	-0.0304	-0.2028	
-0.980514	0.201788	-0.156892	-1.61	-1.54	1.26	0.4678	-0.0321	-0.1997	
-0.977708	0.203618	-0.157258	-1.26	-1.96	1.05	0.4677	-0.0321	-0.2089	
-0.979538	0.205936	-0.152744	-0.98	-1.19	1.33	0.4605	-0.0336	-0.2135	
-0.98454	0.204716	-0.152744	-0.7	-1.26	0.84	0.4561	-0.0274	-0.2043	
-0.984296	0.206912	-0.157746	0.28	-0.84	0.49	0.4633	-0.0275	-0.2104	
-0.982954	0.213866	-0.160674	0.07	-0.28	0.91	0.4576	-0.0274	-0.2013	
-0.981124	0.218502	-0.164822	-0.42	-1.05	0.91	0.4589	-0.0228	-0.2043	
-0.978196	0.224236	-0.16165	-1.54	-1.26	1.05	0.4591	-0.0335	-0.2059	
-0.977708	0.223504	-0.157136	-2.45	-1.54	1.33	0.4561	-0.0289	-0.2013	
-0.977342	0.221674	-0.152988	-3.01	-2.24	1.26	0.4678	-0.0351	-0.1982	
-0.980514	0.218136	-0.149084	-2.94	-1.61	1.12	0.4635	-0.0336	-0.1982	
-0.981612	0.21594	-0.15006	-2.45	-0.98	0.7	0.4662	-0.026	-0.2027	
-0.98149	0.210572	-0.155184	-2.17	-0.77	0.7	0.4591	-0.032	-0.1967	
-0.975634	0.21106	-0.151402	-1.54	-1.47	0.35	0.4678	-0.0351	-0.1982	
-0.96929	0.2135	-0.146034	-1.12	-1.75	0	0.4635	-0.0382	-0.2043	
-0.968802	0.214232	-0.13908	-0.98	-1.89	-0.42	0.4502	-0.0166	-0.2013	
-0.970144	0.211792	-0.135542	-0.84	-2.24	-0.84	0.4547	-0.0258	-0.2013	
-0.970266	0.208986	-0.134322	-0.07	-1.96	-1.05	0.4649	-0.0321	-0.2028	
-0.97417	0.210084	-0.132858	0.28	-1.12	-0.98	0.4591	-0.0366	-0.2105	
-0.979294	0.209352	-0.139934	0.49	-0.14	-1.26	0.4561	-0.0274	-0.2028	
-0.978196	0.211182	-0.14579	0.98	0.63	-1.05	0.4603	-0.0198	-0.2058	
-0.980514	0.21045	-0.148108	0.84	1.33	-0.98	0.4517	-0.0304	-0.2181	
-0.982588	0.207888	-0.152378	0.77	0.77	-0.84	0.4661	-0.0184	-0.2119	
-0.984662	0.207888	-0.15616	0.84	1.12	-0.91	0.4532	-0.0289	-0.212	
-0.984906	0.203252	-0.156526	0.63	0.7	-1.26	0.4576	-0.032	-0.2135	
-0.983442	0.20313	-0.152744	0.7	0.49	-1.33	0.4605	-0.032	-0.212	
-0.984296	0.204106	-0.153598	0.77	0.42	-1.05	0.4574	-0.0213	-0.2165	
-0.983076	0.207156	-0.155916	0.56	0.07	-0.91	0.4604	-0.0213	-0.2058	
-0.983564	0.20862	-0.151524	0.56	-0.35	-0.91	0.4502	-0.0181	-0.2089	
-0.98515	0.206912	-0.147986	0.42	-0.28	-0.91	0.4574	-0.0198	-0.2074	
-0.9821	0.204594	-0.146644	0.21	0.28	-0.7	0.4661	-0.0199	-0.2119	
-0.981612	0.204716	-0.148596	0.21	0.98	-0.56	0.462	-0.0366	-0.2074	
-0.981734	0.207888	-0.15311	0.77	1.12	-0.63	0.4661	-0.0245	-0.215	
-0.981856	0.2074	-0.153842	1.05	0.77	-0.77	0.4562	-0.032	-0.2059	
-0.98332	0.210328	-0.156648	1.19	0.28	-0.91	0.4547	-0.032	-0.2105	
-0.981734	0.210572	-0.153476	1.12	0.07	-0.98	0.4618	-0.0244	-0.215	
-0.981368	0.209962	-0.151158	0.63	-0.35	-0.98	0.4545	-0.0213	-0.2135	
-0.980392	0.20862	-0.149572	0.42	-0.07	-0.84	0.4518	-0.0304	-0.2044	
-0.982466	0.207034	-0.151768	0.28	-0.14	-0.84	0.4547	-0.0273	-0.2028	
-0.982954	0.205326	-0.157136	0.42	-0.35	-0.98	0.4647	-0.0229	-0.2119	
-0.983076	0.202154	-0.155672	0.28	-0.56	-0.77	0.4576	-0.032	-0.2089	
-0.986126	0.197884	-0.153598	-0.35	-0.42	-0.56	0.4604	-0.0228	-0.2012	
-0.989054	0.197762	-0.152622	-0.77	-0.49	-0.07	0.4518	-0.0288	-0.2028	
-0.986614	0.199104	-0.156648	-0.49	0	0.07	0.4604	-0.029	-0.2074	
-0.985516	0.200446	-0.154086	-0.7	0.21	0.14	0.4589	-0.0244	-0.2165	
-0.982588	0.20252	-0.146766	-0.7	0.28	-0.14	0.4532	-0.0273	-0.2059	
-0.980148	0.206424	-0.147498	0	0.42	-0.42	0.469	-0.0169	-0.2103	
-0.981246	0.206302	-0.152012	0.91	-0.28	-0.84	0.4662	-0.0321	-0.215	
-0.979904	0.20435	-0.15494	0.91	-0.28	-0.84	0.4588	-0.0167	-0.2104	
-0.982588	0.201422	-0.15128	0.07	-0.07	-0.63	0.4546	-0.0228	-0.2013	
-0.980636	0.201788	-0.149328	-0.56	-0.35	-0.56	0.4562	-0.0381	-0.2105	
-0.981002	0.199592	-0.149572	-0.77	-0.49	-0.35	0.4547	-0.0289	-0.2059	
-0.981612	0.2013	-0.149206	-0.84	-1.89	-0.49	0.4617	-0.0229	-0.2196	
-0.981002	0.207766	-0.1525	0.07	-1.61	-0.63	0.4572	-0.009099999	-0.218	
-0.981612	0.205326	-0.147132	0.77	-0.91	-0.63	0.4604	-0.0259	-0.2119	
-0.983564	0.199592	-0.144448	0.14	-1.4	-0.14	0.4574	-0.0198	-0.215	
-0.983076	0.195444	-0.14396	-0.07	-0.84	0	0.4533	-0.0335	-0.209	
-0.982222	0.194224	-0.144692	0.56	-0.07	-0.14	0.4646	-0.0245	-0.2211	
-0.981856	0.20191	-0.14152	1.61	-0.35	-0.98	0.4589	-0.0228	-0.2089	
-0.975146	0.209596	-0.140056	3.22	-1.05	-2.31	0.4547	-0.0289	-0.2074	
-0.973804	0.205692	-0.14335	3.5	-0.28	-2.59	0.4546	-0.0274	-0.2105	
-0.976366	0.210328	-0.14152	5.04	-0.91	-4.2	0.4574	-0.0244	-0.2165	
-0.97661	0.208498	-0.142862	5.32	0.14	-4.76	0.4648	-0.0336	-0.218	
-0.97844	0.20618	-0.141276	5.04	-0.28	-5.11	0.4589	-0.0244	-0.2196	
-0.980636	0.202642	-0.139446	4.41	-0.35	-4.97	0.4561	-0.032	-0.2181	
-0.981978	0.196542	-0.142252	3.99	0.35	-4.69	0.4532	-0.0289	-0.2151	
-0.97966	0.19703	-0.138348	4.27	1.05	-4.62	0.4617	-0.0168	-0.218	
-0.98088	0.196664	-0.141398	5.32	1.4	-4.97	0.4573	-0.0198	-0.2226	
-0.979904	0.192272	-0.145546	6.3	1.19	-5.74	0.4603	-0.0198	-0.2104	
-0.981124	0.189954	-0.152012	6.58	1.05	-6.51	0.4618	-0.0214	-0.2104	
-0.988932	0.188612	-0.15616	5.81	0.98	-6.86	0.4633	-0.0275	-0.218	
-0.997838	0.184098	-0.162626	3.85	1.19	-6.23	0.4501	-0.0136	-0.2135	
-1.003694	0.177144	-0.17385	2.59	1.33	-5.18	0.4532	-0.0227	-0.2013	
-1.006012	0.168238	-0.178242	1.47	1.05	-3.78	0.4545	-0.0197	-0.2104	
-1.00162	0.161528	-0.176534	0.56	0.35	-2.52	0.4518	-0.0258	-0.2013	
-0.999424	0.158356	-0.170556	-0.21	-0.21	-1.61	0.4588	-0.0106	-0.2012	
-0.999668	0.156404	-0.164578	-0.7	-0.7	-0.91	0.4501	-0.0182	-0.215	
-0.996496	0.158234	-0.15982	-0.84	-0.56	-0.21	0.4646	-0.0184	-0.218	
-0.995154	0.15738	-0.156282	-0.77	-0.28	0.35	0.453	-0.0182	-0.2166	
-0.995398	0.158478	-0.15311	-0.56	0.49	0.84	0.4632	-0.0229	-0.2104	
-0.992836	0.163358	-0.158234	0.21	0.56	1.12	0.4618	-0.0214	-0.215	
-0.987956	0.171654	-0.155794	0.91	0.14	1.05	0.4661	-0.0183	-0.2058	
-0.98393	0.176778	-0.154574	1.75	-0.56	0.63	0.4589	-0.0244	-0.2119	
-0.980758	0.180194	-0.151158	2.45	-1.4	0.07	0.4617	-0.0198	-0.2134	
-0.98027	0.184586	-0.145302	3.15	-1.61	-0.63	0.4603	-0.0198	-0.2119	
-0.980392	0.18422	-0.138592	3.64	-1.33	-1.12	0.4574	-0.0198	-0.215	
-0.9821	0.182512	-0.13847	4.06	-1.26	-1.61	0.4575	-0.0228	-0.2104	
-0.983442	0.179462	-0.144082	4.41	-0.14	-2.03	0.4574	-0.0182	-0.2104	
-0.98576	0.178486	-0.149572	4.13	0.98	-2.1	0.456	-0.0213	-0.2104	
-0.990518	0.174338	-0.154452	3.5	1.54	-1.89	0.4618	-0.0213	-0.2043	
-0.992226	0.173362	-0.161894	3.08	1.19	-1.82	0.4617	-0.0153	-0.2165	
-0.995032	0.16897	-0.164944	3.22	0.28	-1.75	0.456	-0.0228	-0.2181	
-0.996618	0.163724	-0.16592	3.5	-0.77	-1.61	0.4617	-0.0152	-0.2088	
-0.99857	0.161772	-0.167262	3.85	-1.05	-1.54	0.4474	-0.0242	-0.2074	
-1.000888	0.163724	-0.164944	4.13	-0.84	-1.54	0.4632	-0.0153	-0.2073	
-0.998448	0.166408	-0.16653	4.34	-1.33	-2.1	0.4574	-0.0244	-0.2165	
-0.994178	0.169336	-0.160918	4.34	-1.26	-2.66	0.4517	-0.0274	-0.2181	
-0.993446	0.16836	-0.160186	3.99	-1.26	-3.01	0.4502	-0.0197	-0.2135	
-0.993812	0.161528	-0.156526	3.57	-1.05	-2.87	0.459	-0.0274	-0.212	
-0.99003	0.156648	-0.152744	3.92	-0.7	-2.73	0.4471	-0.0059	-0.2135	
-0.99064	0.158356	-0.154086	4.69	-1.19	-2.38	0.4673	-0.0062	-0.2179	
-0.988078	0.153232	-0.153232	5.18	-1.68	-2.1	0.4603	-0.0137	-0.2058	
-0.988078	0.157868	-0.151402	5.6	-1.68	-1.96	0.4615	-0.003	-0.2164	
-0.989054	0.16104	-0.14884	5.46	-1.12	-1.75	0.4617	-0.0152	-0.2104	
-0.992348	0.167872	-0.149206	5.32	-0.56	-2.1	0.4589	-0.0275	-0.2181	
-0.991616	0.164212	-0.14945	5.74	-0.42	-2.45	0.453	-0.0151	-0.2165	
-0.991128	0.161406	-0.149816	6.16	-0.56	-2.45	0.4574	-0.0198	-0.2135	
-0.989298	0.151646	-0.152622	6.02	-0.7	-2.31	0.4545	-0.0182	-0.2074	
-0.98698	0.143228	-0.151402	4.97	-0.42	-1.54	0.4574	-0.0152	-0.2119	
-0.98942	0.144326	-0.152866	3.85	0.35	-0.7	0.4574	-0.0167	-0.2012	
-0.989664	0.149694	-0.15311	2.8	0.63	-0.07	0.4573	-0.0121	-0.2104	
-0.988078	0.149328	-0.150548	1.47	0.63	0.7	0.4502	-0.0197	-0.2059	
-0.986492	0.148108	-0.149206	1.05	0.07	1.12	0.4502	-0.0166	-0.1982	
-0.982222	0.14762	-0.150792	1.75	-0.07	1.12	0.4532	-0.0227	-0.2028	
-0.97661	0.142618	-0.145912	2.31	-0.42	1.19	0.4547	-0.0304	-0.2059	
-0.970022	0.142374	-0.135908	2.66	-1.19	1.19	0.4603	-0.0137	-0.2073	
-0.968558	0.146034	-0.129564	3.08	-1.89	1.05	0.4531	-0.0243	-0.2181	
-0.970876	0.148352	-0.126148	2.73	-1.61	1.33	0.4632	-0.0244	-0.2165	
-0.979782	0.149572	-0.128954	2.31	0.49	1.96	0.4547	-0.0335	-0.212	
-0.98881	0.15189	-0.140178	2.73	3.08	2.66	0.4647	-0.0229	-0.2043	
-0.997228	0.156282	-0.151036	3.85	3.99	2.59	0.4545	-0.0197	-0.212	
-1.003938	0.159454	-0.16714	3.71	4.97	3.01	0.4618	-0.0229	-0.2073	
-1.0065	0.160796	-0.18239	3.43	4.76	3.01	0.4603	-0.0183	-0.2073	
-1.01016	0.168238	-0.191906	3.71	4.41	2.38	0.4532	-0.0304	-0.2151	
-1.009916	0.171898	-0.19642	3.43	2.66	1.68	0.4559	-0.0105	-0.1967	
-1.00772	0.17141	-0.195444	3.15	0.91	0.91	0.4545	-0.0182	-0.215	
-1.009916	0.173362	-0.190808	3.15	-0.21	0	0.4647	-0.026	-0.2089	
-1.002352	0.173728	-0.185562	3.15	-1.82	-1.05	0.4604	-0.0198	-0.2012	
-0.999546	0.170434	-0.173484	3.15	-1.96	-1.75	0.4576	-0.0335	-0.2059	
-0.995276	0.16348	-0.164578	2.45	-1.89	-1.96	0.4604	-0.0213	-0.1982	
-0.988932	0.161894	-0.154086	2.17	-0.7	-1.96	0.4603	-0.0183	-0.2073	
-0.9882	0.163724	-0.149572	1.4	0.21	-1.68	0.4618	-0.0213	-0.2028	
-0.983198	0.169092	-0.150914	1.61	2.03	-1.47	0.4559	-0.0151	-0.2058	
-0.98271	0.166896	-0.155306	0.98	0.84	-1.19	0.456	-0.0228	-0.2089	
-0.983076	0.159942	-0.160064	0.7	0.35	-1.12	0.4517	-0.0196	-0.1952	
-0.98759	0.157624	-0.160918	0.21	-0.63	-1.33	0.4531	-0.0228	-0.2166	
-0.991128	0.15982	-0.167018	0.28	-0.98	-1.68	0.4604	-0.0198	-0.2028	
-0.992714	0.160796	-0.1647	0	-1.05	-1.82	0.459	-0.0274	-0.212	
-0.992226	0.158478	-0.163114	-0.56	-0.91	-1.82	0.4604	-0.0259	-0.2028	
-0.993568	0.152012	-0.161406	-1.47	-0.7	-1.54	0.4517	-0.0243	-0.2028	
-0.992592	0.1464	-0.15982	-1.82	-0.35	-1.19	0.4635	-0.0366	-0.2058	
-0.991616	0.14152	-0.160796	-1.33	0.07	-1.05	0.4618	-0.0183	-0.2012	
-0.989664	0.141886	-0.16043	-0.84	0.35	-1.12	0.459	-0.0274	-0.2074	
-0.990152	0.144692	-0.1586	-0.49	0.56	-1.05	0.4531	-0.0197	-0.2089	
-0.99125	0.146888	-0.16043	-0.56	0.77	-0.91	0.4575	-0.0197	-0.1982	
-0.99125	0.14884	-0.162626	-0.91	1.05	-0.63	0.4749	-0.023	-0.2042	
-0.99247	0.152744	-0.165066	-1.19	1.12	-0.49	0.4633	-0.0229	-0.2058	
-0.99247	0.157624	-0.1647	-1.54	1.19	-0.35	0.459	-0.0244	-0.2043	
-0.99186	0.161284	-0.163236	-1.05	0.91	-0.7	0.4589	-0.0198	-0.2043	
-0.992592	0.15738	-0.1647	-0.21	0.49	-0.91	0.4575	-0.0228	-0.2089	
-0.99308	0.155062	-0.166774	0.42	0.56	-1.26	0.4662	-0.0199	-0.2027	
-0.994056	0.156038	-0.170556	0.42	0.07	-1.47	0.4573	-0.0075	-0.2104	
-0.994422	0.154696	-0.170434	-0.77	-0.14	-1.4	0.4618	-0.0214	-0.2119	
-0.996008	0.1525	-0.170678	-1.96	-0.21	-1.19	0.4647	-0.0244	-0.2058	
-0.995032	0.148352	-0.168116	-2.73	-0.42	-0.84	0.4676	-0.0153	-0.1966	
-0.993202	0.143716	-0.16409	-2.94	-0.56	-0.42	0.4488	-0.0181	-0.2028	
-0.992348	0.139568	-0.162626	-3.08	-0.49	0	0.4589	-0.0167	-0.2058	
-0.992104	0.138958	-0.162382	-2.8	-0.21	0.14	0.4661	-0.0183	-0.2088	
-0.990884	0.139446	-0.162504	-2.38	-0.14	0	0.4604	-0.0136	-0.1921	
-0.99003	0.141764	-0.16104	-2.31	-0.42	-0.21	0.4618	-0.0198	-0.2058	
-0.990884	0.14396	-0.16104	-2.03	-0.7	-0.35	0.4544	-0.0121	-0.2089	
-0.991128	0.14823	-0.15921	-1.75	-0.63	-0.49	0.469	-0.0153	-0.2073	
-0.993568	0.150304	-0.159454	-1.05	-0.7	-0.63	0.4514	-0.0044	-0.2196	
-0.994788	0.14884	-0.156526	0.07	-0.42	-0.77	0.4603	-0.0152	-0.1982	
-0.996496	0.14945	-0.158478	1.33	0.35	-1.05	0.4631	-0.0122	-0.2058	
-0.99186	0.153232	-0.15921	1.82	0.91	-1.54	0.4516	-0.0135	-0.1967	
-0.989542	0.16409	-0.160186	1.68	2.52	-1.82	0.4589	-0.0198	-0.2074	
-0.983808	0.17141	-0.153354	0.91	1.68	-2.03	0.4632	-0.0122	-0.2012	
-0.981124	0.170922	-0.15372	-0.21	1.47	-1.89	0.4632	-0.0214	-0.215	
-0.983198	0.162504	-0.150182	-1.12	0.49	-1.82	0.4602	-0.0122	-0.215	
-0.978806	0.149694	-0.151158	-1.75	0.07	-1.89	0.4632	-0.0168	-0.1997	
-0.981734	0.144204	-0.14884	-1.54	1.54	-1.68	0.4574	-0.0151	-0.1982	
-0.982832	0.141032	-0.14884	-1.05	2.87	-1.89	0.4616	-0.0045	-0.2073	
-0.98027	0.138714	-0.151402	-0.28	3.22	-2.24	0.4617	-0.0106	-0.1997	
-0.981856	0.138104	-0.15067	0.28	3.78	-2.24	0.4603	-0.0106	-0.192	
-0.982954	0.136762	-0.162016	-0.21	3.99	-1.75	0.4661	-0.0153	-0.1966	
-0.985394	0.137128	-0.16714	-0.84	4.83	-0.7	0.4559	-0.0075	-0.1951	
-0.99247	0.144814	-0.177144	-1.4	4.13	0	0.4516	-0.0089	-0.1936	
-1.00223	0.156404	-0.187636	-2.38	3.43	0.7	0.4588	-0.009099999	-0.2027	
-1.015162	0.156526	-0.201666	-4.34	4.41	1.61	0.4631	-0.0076	-0.1981	
-1.010648	0.142862	-0.205448	-4.69	3.15	1.82	0.4646	-0.0076	-0.1996	
-1.009916	0.137616	-0.208132	-4.69	2.87	1.68	0.4588	-0.0106	-0.1997	
-1.006012	0.138958	-0.19825	-4.2	0.7	0.63	0.4617	-0.0122	-0.2119	
-1.00101	0.141032	-0.188734	-4.34	-0.21	0.35	0.4632	-0.0183	-0.2043	
-0.998814	0.143228	-0.180682	-4.2	-0.28	0.07	0.4574	-0.0136	-0.2058	
-0.989786	0.134932	-0.173118	-3.99	-0.21	0.56	0.4575	-0.0167	-0.1921	
-0.984662	0.130662	-0.170434	-3.64	0.07	1.26	0.4573	-0.009099999	-0.2043	
-0.98332	0.12871	-0.169214	-3.22	0	1.61	0.4603	-0.0136	-0.1951	
-0.986614	0.13176	-0.169092	-2.94	-0.35	1.75	0.4603	-0.0152	-0.1982	
-0.987346	0.13603	-0.169458	-2.31	-1.05	1.68	0.4602	-0.0076	-0.2043	
-0.98759	0.1403	-0.168482	-1.89	-1.47	1.82	0.4618	-0.0183	-0.1997	
-0.987956	0.146644	-0.170434	-2.1	-0.77	2.17	0.4602	-0.0075	-0.1981	
-0.99064	0.150914	-0.168116	-1.96	-0.21	2.31	0.4588	-0.0106	-0.2027	
-0.993202	0.158722	-0.173362	-1.61	0.21	2.24	0.4604	-0.0213	-0.1997	
-0.99003	0.167262	-0.174948	-1.54	0.56	2.17	0.4589	-0.0213	-0.2104	
-0.990762	0.16836	-0.180804	-2.03	0.7	2.45	0.4516	-0.0151	-0.2074	
-0.993202	0.170678	-0.182146	-2.24	0.21	2.38	0.4748	-0.0154	-0.2027	
-0.993446	0.166896	-0.178608	-3.01	-0.7	2.31	0.469	-0.0153	-0.2027	
-0.98942	0.169458	-0.172874	-3.78	-0.91	2.17	0.4531	-0.0166	-0.1936	
-0.987834	0.172752	-0.168482	-3.71	-0.28	1.82	0.4617	-0.0122	-0.2058	
-0.989054	0.167262	-0.163724	-3.29	0.42	1.61	0.4546	-0.0243	-0.1998	
-0.981978	0.162138	-0.164456	-2.38	0.28	1.47	0.4647	-0.0168	-0.1997	
-0.980636	0.157746	-0.165676	-2.17	0.63	1.47	0.456	-0.0197	-0.2058	
-0.98515	0.155306	-0.172142	-3.08	0.56	1.75	0.4662	-0.0198	-0.192	
-0.988932	0.155306	-0.172264	-3.29	0.21	2.03	0.4589	-0.0182	-0.2043	
-0.992348	0.162504	-0.171654	-2.52	-0.14	2.03	0.4575	-0.0213	-0.2013	
-0.992104	0.169214	-0.169092	-1.12	-0.49	1.54	0.4618	-0.0152	-0.2027	
-0.989664	0.172508	-0.168482	-0.49	-0.21	1.33	0.4588	-0.0137	-0.2028	
-0.988688	0.173972	-0.172386	-0.77	0.28	1.33	0.4619	-0.0213	-0.1936	
-0.987346	0.175314	-0.169458	-2.1	0.56	1.47	0.4675	-0.0122	-0.1981	
-0.986004	0.176168	-0.172508	-3.92	1.4	1.89	0.4602	-0.009099999	-0.2012	
-0.987956	0.173606	-0.172386	-4.97	0.84	2.45	0.4661	-0.0107	-0.1996	
-0.987468	0.166652	-0.170556	-4.9	0.42	2.59	0.4691	-0.0199	-0.2012	
-0.989298	0.160918	-0.175558	-4.62	0.7	2.66	0.4618	-0.0152	-0.1982	
-0.988078	0.160064	-0.170556	-3.36	-0.42	2.1	0.456	-0.0182	-0.1952	
-0.975756	0.164456	-0.16836	-2.52	-0.7	2.31	0.4572	-0.006	-0.2134	
-0.989298	0.162504	-0.167994	-2.66	2.03	2.73	0.4546	-0.0197	-0.1997	
-0.98454	0.149084	-0.160674	-3.15	-0.42	1.82	0.4531	-0.0197	-0.2074	
-0.97905	0.175192	-0.173362	-1.26	-0.63	2.1	0.4546	-0.0197	-0.1967	
-0.986492	0.186904	-0.175558	0.42	-0.21	1.82	0.4633	-0.0275	-0.2073	
-0.98698	0.184342	-0.165066	0.49	-1.12	1.54	0.4531	-0.0212	-0.2043	
-0.986126	0.183854	-0.15982	-0.49	-1.47	1.68	0.4546	-0.0197	-0.1997	
-0.983076	0.192638	-0.163968	-2.1	0.77	1.82	0.4532	-0.0227	-0.2043	
-0.983564	0.191052	-0.17324	-2.31	1.82	1.75	0.4546	-0.0213	-0.2089	
-0.986614	0.184342	-0.176046	-1.96	1.05	1.33	0.4632	-0.0183	-0.2012	
-0.986492	0.179096	-0.17324	-1.61	-0.77	1.05	0.4545	-0.0167	-0.2074	
-0.987346	0.178364	-0.168848	-1.89	-0.49	0.98	0.4648	-0.029	-0.2028	
-0.98759	0.176778	-0.167384	-2.17	0	0.84	0.4532	-0.0197	-0.1936	
-0.986004	0.178242	-0.167384	-1.61	-0.14	0.77	0.4559	-0.0151	-0.2058	
-0.983808	0.17812	-0.16653	-0.91	0	0.84	0.4649	-0.0275	-0.1936	
-0.985882	0.17934	-0.168726	-0.49	0.21	0.7	0.4618	-0.0213	-0.2043	
-0.984906	0.180804	-0.171288	-0.42	-0.35	0.56	0.4503	-0.0242	-0.2044	
-0.982954	0.180316	-0.16958	-0.35	-0.98	0.49	0.4604	-0.0228	-0.2043	
-0.982344	0.17812	-0.163968	-0.42	-1.33	0.63	0.4546	-0.0243	-0.2013	
-0.981368	0.18483	-0.1647	-0.77	-0.35	0.63	0.4503	-0.0273	-0.2059	
-0.983564	0.189344	-0.164334	-0.77	-0.42	0.63	0.4735	-0.0215	-0.1966	
-0.977952	0.18666	-0.163602	-0.91	-0.84	0.7	0.4604	-0.0198	-0.2012	
-0.97783	0.183854	-0.161528	-0.91	0	0.77	0.4547	-0.0304	-0.2074	
-0.98088	0.181292	-0.162992	-0.84	-0.28	0.63	0.4604	-0.0244	-0.2028	
-0.983198	0.18361	-0.16226	-0.77	-0.07	0.56	0.4662	-0.0214	-0.2058	
-0.983686	0.183976	-0.166774	-0.63	-0.42	0.42	0.4632	-0.0152	-0.2058	
-0.98393	0.183	-0.164334	-0.28	-0.28	0.35	0.4661	-0.0168	-0.2042	
-0.983564	0.182512	-0.166408	0.14	-0.56	0.21	0.4589	-0.0228	-0.2074	
-0.983808	0.185074	-0.166042	0.14	-0.07	0.28	0.4605	-0.0274	-0.1951	
-0.98454	0.187392	-0.16592	0.28	-0.7	-0.07	0.4647	-0.026	-0.215	
-0.98698	0.18971	-0.16653	0.49	-0.28	-0.28	0.4575	-0.0197	-0.2013	
-0.987346	0.191418	-0.166896	0.7	-0.14	-0.42	0.459	-0.0244	-0.2058	
-0.986248	0.191784	-0.168482	0.63	-0.77	-0.49	0.4561	-0.0228	-0.2028	
-0.984662	0.189466	-0.16592	0.56	-0.56	-0.49	0.4574	-0.0198	-0.2104	
-0.98637	0.189344	-0.162992	0.07	-0.07	-0.49	0.4517	-0.0258	-0.2135	
-0.983564	0.186538	-0.162138	-0.07	-0.14	-0.63	0.4646	-0.0138	-0.2134	
-0.984784	0.186416	-0.165188	-0.07	0.28	-0.56	0.4618	-0.0137	-0.1936	
-0.986126	0.182756	-0.167384	0	0.42	-0.42	0.4547	-0.0258	-0.2013	
-0.98454	0.180682	-0.16714	0.14	-0.07	-0.49	0.4647	-0.0152	-0.1997	
-0.984784	0.182024	-0.165676	0.21	-0.21	-0.49	0.4662	-0.0244	-0.2012	
-0.984906	0.18361	-0.162992	0.14	-0.21	-0.63	0.459	-0.0228	-0.1936	
-0.98393	0.18239	-0.16165	0.28	-0.14	-0.63	0.4648	-0.0306	-0.2089	
-0.983442	0.181414	-0.162138	0.42	-0.07	-0.42	0.4546	-0.0228	-0.2089	
-0.983442	0.183854	-0.1647	0.42	0.35	-0.49	0.4517	-0.0212	-0.2059	
-0.985272	0.183732	-0.16836	0.49	0	-0.49	0.4531	-0.0228	-0.2135	
-0.984784	0.185562	-0.167872	0.28	-0.42	-0.42	0.4647	-0.0199	-0.2088	
-0.985394	0.187026	-0.164456	-0.14	-0.21	-0.21	0.4546	-0.0213	-0.2089	
-0.98637	0.185562	-0.163358	-0.28	-0.07	-0.07	0.4618	-0.0152	-0.1936	
-0.986126	0.182756	-0.16409	-0.42	0	0	0.4604	-0.0228	-0.1982	
-0.984296	0.185196	-0.16348	-0.35	0.28	0	0.4619	-0.0259	-0.2058	
-0.985272	0.181902	-0.166896	0	0.28	-0.07	0.4647	-0.0214	-0.2043	
-0.985882	0.18239	-0.164822	0.28	-0.07	-0.21	0.4647	-0.0183	-0.1981	
-0.9882	0.183244	-0.164944	0.28	-0.07	-0.21	0.4632	-0.0168	-0.2012	
-0.987468	0.185684	-0.167872	-0.21	0	-0.07	0.456	-0.0182	-0.2043	
-0.987346	0.18422	-0.169214	-0.77	0.35	0.14	0.4517	-0.0151	-0.1952	
-0.987224	0.181658	-0.165554	-0.63	-0.07	0.28	0.4531	-0.0212	-0.2059	
-0.985272	0.181048	-0.162748	0.21	-0.35	0.21	0.456	-0.0259	-0.212	
-0.986248	0.182146	-0.163968	0.84	-0.21	-0.14	0.4648	-0.0229	-0.1997	
-0.985272	0.185684	-0.163358	0.91	0	-0.35	0.4588	-0.0152	-0.2058	
-0.983686	0.187392	-0.16348	0.84	0.28	-0.28	0.456	-0.0213	-0.2028	
-0.986248	0.188002	-0.168238	0.91	0.14	-0.07	0.459	-0.0244	-0.2058	
-0.986492	0.190198	-0.169336	0.63	-0.35	0.14	0.4575	-0.0259	-0.2043	
-0.986614	0.18971	-0.170312	0	-0.56	0.14	0.4575	-0.0228	-0.2013	
-0.987224	0.190564	-0.165066	0	-1.12	-0.21	0.4604	-0.0259	-0.2058	
-0.985638	0.187636	-0.162138	0.63	-1.4	-0.63	0.4576	-0.0258	-0.1997	
-0.98393	0.184464	-0.159454	1.05	-1.26	-0.91	0.4647	-0.0198	-0.1982	
-0.981856	0.181414	-0.157746	0.98	-0.98	-1.05	0.4617	-0.0152	-0.2043	
-0.980148	0.179462	-0.156648	0.35	-0.21	-0.77	0.4488	-0.0196	-0.2028	
-0.984052	0.175436	-0.15982	0.35	-0.28	-0.7	0.4589	-0.0183	-0.2089	
-0.984052	0.178974	-0.160674	1.47	-0.56	-0.7	0.456	-0.0182	-0.1997	
-0.98393	0.18239	-0.16348	2.59	-1.19	-1.12	0.459	-0.0274	-0.2089	
-0.987468	0.182878	-0.162016	3.36	-1.54	-1.61	0.4632	-0.0137	-0.1997	
-0.989786	0.184342	-0.16531	3.22	-1.68	-1.89	0.4545	-0.0167	-0.2058	
-0.990274	0.184098	-0.163846	2.17	-1.47	-1.89	0.4559	-0.0136	-0.2028	
-0.989786	0.18056	-0.164578	1.05	-1.19	-1.61	0.4633	-0.0214	-0.2043	
-0.986858	0.17873	-0.162504	0.49	-1.12	-1.33	0.4588	-0.0137	-0.2089	
-0.979294	0.175314	-0.173972	0.84	-1.33	-1.26	0.4618	-0.0183	-0.2012	
