Sensor string: E
Serial number: 1970-01-0000
Firmware version: 2,015
Hardware version: 2,2
Calibration quality: 5
ax	ay	az	gx	gy	gz	mx	my	mz

-0.79788	0.009516	0.601582	4.62	3.99	-1.75	0.2203	0.1166	-0.3497	Reference
-0.805078	0.015982	0.598654	4.9	4.06	-1.47	0.2141	0.1214	-0.3531	
-0.806542	0.02135	0.59536	4.83	3.99	-1.12	0.197	0.1245	-0.3567	
-0.809104	0.021838	0.592554	4.62	3.71	-0.63	0.2097	0.1253	-0.3465	
-0.808738	0.023302	0.591944	4.13	3.29	-0.21	0.2097	0.1253	-0.3465	
-0.804102	0.025498	0.59231	3.57	2.73	0.14	0.2109	0.1152	-0.3526	
-0.807762	0.029768	0.58926	2.94	2.52	0.42	0.2172	0.1184	-0.3528	
-0.806298	0.030134	0.588406	1.96	2.1	0.84	0.2139	0.1106	-0.3521	
-0.80947	0.030378	0.587186	0.7	1.82	1.33	0.2172	0.1184	-0.3528	
-0.807396	0.030012	0.587308	-0.63	1.61	1.75	0.2077	0.1222	-0.3619	
-0.812642	0.023546	0.585112	-1.33	1.68	1.82	0.2186	0.1156	-0.3553	
-0.812886	0.027084	0.58316	-2.17	1.54	1.61	0.211	0.1149	-0.3497	
-0.817766	0.028914	0.581696	-2.59	1.19	1.54	0.2208	0.1363	-0.3473	
-0.813252	0.015982	0.586698	-2.73	0.91	1.4	0.2154	0.1126	-0.3565	
-0.813862	0.013298	0.582916	-2.8	0.98	0.91	0.217	0.1141	-0.3552	
-0.812886	0.017568	0.585356	-2.8	0.91	0.77	0.2202	0.1188	-0.3556	
-0.811178	0.013664	0.588162	-2.38	0.84	0.98	0.2123	0.1191	-0.36	
-0.806908	0.015494	0.588894	-2.1	0.7	1.19	0.222	0.1161	-0.3439	
-0.807152	0.013908	0.590114	-1.54	0.63	1.33	0.2184	0.1164	-0.3625	
-0.804712	0.017446	0.591578	-0.98	0.49	1.19	0.2172	0.1184	-0.3528	
-0.80398	0.01952	0.591578	-0.7	0.42	1.12	0.2139	0.1175	-0.3599	
-0.803248	0.020008	0.595482	-0.49	0.49	0.98	0.2139	0.1092	-0.3534	
-0.80459	0.019154	0.596092	-0.21	0.7	0.63	0.2111	0.1226	-0.3505	
-0.798124	0.015982	0.596702	-0.14	0.91	0.42	0.2218	0.1153	-0.3509	
-0.799954	0.018544	0.591822	0	1.12	0.14	0.2171	0.1187	-0.3556	
-0.799588	0.016348	0.592554	0.07	0.98	-0.07	0.2173	0.118	-0.3485	
-0.80398	0.014396	0.592432	0.28	1.12	-0.42	0.2266	0.1197	-0.3484	
-0.804224	0.01342	0.592798	0.35	1.26	-0.7	0.2201	0.1176	-0.3597	
-0.804102	0.01342	0.591334	0.28	1.26	-0.84	0.2201	0.1176	-0.3597	
-0.80947	0.016714	0.588284	0.42	1.89	-0.98	0.222	0.1295	-0.3551	
-0.812764	0.016348	0.58621	0.49	2.1	-0.91	0.222	0.1295	-0.3551	
-0.81679	0.017324	0.579378	0.77	2.17	-1.19	0.2251	0.1214	-0.35	
-0.81679	0.0183	0.580842	0.84	2.24	-1.19	0.2251	0.1214	-0.35	
-0.821304	0.022082	0.575596	0.84	2.17	-1.4	0.211	0.1198	-0.353	
-0.82289	0.020862	0.574132	0.63	1.82	-1.19	0.2281	0.11	-0.3432	
-0.818376	0.019886	0.570472	0.63	1.47	-1.12	0.2236	0.1093	-0.3375	
-0.817522	0.021594	0.566324	0.49	1.54	-1.26	0.2206	0.1221	-0.3431	
-0.828502	0.019032	0.56181	0.56	1.4	-1.05	0.2155	0.1105	-0.3506	
-0.839848	0.018788	0.55693	0.63	1.19	-0.91	0.2206	0.119	-0.3428	
-0.84241	0.017446	0.550708	0.7	0.84	-1.05	0.2204	0.1199	-0.3514	
-0.857904	0.020374	0.54412	0.84	0.07	-1.19	0.2297	0.1116	-0.3433	
-0.858148	0.024034	0.53131	1.05	-1.4	-1.12	0.2188	0.1166	-0.3497	
-0.86498	0.019032	0.520818	0.98	-3.29	-0.56	0.219	0.1205	-0.343	
-0.887672	0.02318	0.518134	-0.14	-6.02	-0.77	0.2128	0.1203	-0.3417	
-0.895236	0.02013	0.51179	-1.26	-9.59	-0.91	0.2161	0.1299	-0.3453	
-0.891454	0.022936	0.51118	-3.22	-13.72	-0.98	0.222	0.1144	-0.3423	
-0.891698	0.018788	0.509838	-5.81	-18.34	0	0.2238	0.1268	-0.3435	
-0.89792	0.019032	0.503494	-7.21	-23.66	0.14	0.2187	0.1137	-0.3509	
-0.907314	0.017202	0.501786	-8.89	-29.12	-0.35	0.2065	0.1255	-0.3494	
-0.91012	0.026962	0.49532	-8.47	-35.28	-1.19	0.1997	0.1081	-0.3607	
-0.909266	0.019398	0.497516	-8.82	-41.65	-2.03	0.1969	0.1214	-0.3564	
-0.926834	0.025132	0.486902	-10.01	-49.14	-2.1	0.1892	0.123	-0.3581	
-0.907558	0.01891	0.489586	-8.26	-57.47	-1.96	0.1874	0.124	-0.3682	
-0.895114	0.016104	0.507764	-4.41	-65.73	-3.57	0.1703	0.1218	-0.3655	
-0.850828	0.00488	0.51179	-3.36	-72.8	-2.73	0.1639	0.1257	-0.3746	
-0.820084	-0.007076	0.52826	-0.21	-79.66	-2.87	0.15	0.1282	-0.3723	
-0.767014	0.007686	0.55815	-2.38	-84.7	-2.38	0.1298	0.1278	-0.3727	
-0.751642	0.000122	0.575108	-1.33	-88.76	-0.77	0.1232	0.1342	-0.392	
-0.724436	0.011346	0.572668	-1.4	-94.36	-1.19	0.0954	0.1314	-0.3853	
-0.68381	0.012078	0.593042	-2.52	-99.33	-1.19	0.0859	0.1303	-0.3911	
-0.626592	0.005246	0.61488	-3.92	-104.72	-0.91	0.0719	0.1267	-0.3882	
-0.546194	0.000854	0.66368	-4.62	-108.29	-0.63	0.0657	0.1298	-0.3901	
-0.504592	0.00427	0.703696	-6.65	-109.83	-2.17	0.0314	0.1291	-0.3908	
-0.499102	-0.005002	0.705526	-5.88	-112.56	-3.64	0.0173	0.1312	-0.3984	
-0.477508	-0.001708	0.699426	-4.41	-116.48	-3.08	-0.0105	0.1233	-0.3869	
-0.404064	-0.000244	0.748592	-7.35	-119.21	-2.03	-0.0325	0.1374	-0.4101	
-0.301828	-0.007686	0.813008	-7.63	-118.65	-2.17	-0.0462	0.1243	-0.3893	
-0.259372	-0.02623	0.839482	-7.98	-116.41	-2.87	-0.0649	0.1338	-0.3963	
-0.26108	-0.052338	0.849242	-6.51	-114.45	-6.09	-0.0881	0.1297	-0.3908	
-0.217282	-0.051728	0.847656	-4.41	-113.05	-9.24	-0.1102	0.1303	-0.4013	
-0.151646	-0.036844	0.840214	-3.01	-112.63	-8.89	-0.1255	0.134	-0.3949	
-0.091012	-0.024644	0.847778	-3.22	-112.35	-7.49	-0.1442	0.1256	-0.3917	
-0.026596	-0.023912	0.883646	-3.5	-111.09	-7.07	-0.1671	0.13	-0.3799	
0.024034	-0.024278	0.898774	-3.99	-108.71	-6.37	-0.1937	0.125	-0.3814	
0.057706	-0.040016	0.896334	-4.06	-106.89	-5.81	-0.2136	0.118	-0.3613	
0.073688	-0.066368	0.901214	-3.43	-105.14	-4.97	-0.2306	0.1309	-0.3715	
0.102114	-0.080764	0.894748	-2.24	-103.46	-3.78	-0.2507	0.1181	-0.3551	
0.147376	-0.07905599	0.879376	-0.91	-102.2	-2.73	-0.2534	0.116	-0.3351	
0.189832	-0.070516	0.868884	0.49	-101.64	-2.24	-0.2797	0.1183	-0.333	
0.228262	-0.06588	0.859734	1.26	-100.03	-1.68	-0.2889	0.1143	-0.3258	
0.276818	-0.06954	0.859856	1.89	-98.63	-1.68	-0.2998	0.1123	-0.323	
0.332816	-0.074786	0.864492	2.94	-97.79	-1.96	-0.3214	0.1095	-0.3147	
0.378078	-0.077104	0.877668	3.71	-96.74	-2.38	-0.3168	0.0948	-0.3047	
0.406382	-0.06771	0.892552	5.25	-94.99	-2.66	-0.3458	0.1037	-0.2934	
0.444934	-0.051362	0.893772	6.23	-92.75	-1.4	-0.3548	0.1103	-0.2843	
0.4819	-0.040138	0.889258	5.95	-90.79	0.14	-0.3607	0.0971	-0.2619	
0.523502	-0.039894	0.898774	6.37	-89.04	1.19	-0.37	0.0933	-0.256	
0.566568	-0.032818	0.907924	6.72	-86.17	2.87	-0.3834	0.1072	-0.2449	
0.6039	-0.024888	0.905118	6.51	-82.95	4.2	-0.3911	0.1032	-0.2376	
0.634766	-0.0305	0.90524	6.23	-79.24	5.04	-0.4022	0.0939	-0.2384	
0.656482	-0.042212	0.900238	6.37	-74.97	4.9	-0.402	0.08989999	-0.2295	
0.655384	-0.035868	0.876448	7.21	-71.61	4.06	-0.4111	0.0835	-0.2134	
0.655506	-0.0305	0.863028	6.65	-67.34	4.48	-0.423	0.0895	-0.2001	
0.666852	-0.036234	0.851316	6.3	-63.49	3.99	-0.432	0.1047	-0.2003	
0.693814	-0.032818	0.835822	6.37	-61.18	3.01	-0.443	0.0812	-0.1827	
0.719678	-0.030134	0.824964	5.81	-59.01	3.01	-0.4411	0.0901	-0.1792	
0.726998	-0.01708	0.817766	4.97	-55.51	4.55	-0.4473	0.0848	-0.1732	
0.731268	-0.000976	0.800198	4.13	-52.15	4.9	-0.4502	0.08549999	-0.1662	
0.748958	-0.009638	0.791536	1.96	-48.44	5.25	-0.452	0.0933	-0.1826	
0.772748	-0.025986	0.79178	0.56	-43.26	5.88	-0.4654	0.0887	-0.1555	
0.770308	-0.03477	0.772992	-0.14	-38.29	6.72	-0.461	0.07979999	-0.1574	
0.776408	-0.034038	0.768112	0.21	-33.95	6.86	-0.467	0.0821	-0.1506	
0.804712	-0.039162	0.779702	0.07	-28.84	6.23	-0.4622	0.0847	-0.1451	
0.825696	-0.044774	0.774822	0.35	-23.52	5.32	-0.4679	0.0907	-0.1301	
0.816668	-0.036844	0.767502	1.12	-18.62	4.06	-0.4649	0.0896	-0.1342	
0.801784	-0.033672	0.772748	1.54	-14.14	3.57	-0.4713	0.08549999	-0.1397	
0.809836	-0.036356	0.776774	1.89	-9.73	3.85	-0.4743	0.08329999	-0.1339	
0.811544	-0.0305	0.77348	2.45	-4.9	3.43	-0.4744	0.0802	-0.1336	
0.804712	-0.022936	0.770918	2.66	0.14	3.5	-0.4711	0.0861	-0.1312	
0.79727	-0.016714	0.763598	2.38	4.97	3.85	-0.4806	0.085	-0.137	
0.78751	-0.026596	0.756278	2.1	9.52	3.99	-0.4697	0.0884	-0.1385	
0.77531	-0.040138	0.765428	2.03	14.14	3.36	-0.4678	0.097	-0.1322	
0.793854	-0.038796	0.795928	2.45	18.41	2.94	-0.4651	0.0871	-0.1397	
0.807884	-0.037454	0.79605	2.38	22.54	2.73	-0.4649	0.09649999	-0.142	
0.793366	-0.047336	0.80215	2.17	25.76	1.82	-0.4585	0.0975	-0.1348	
0.797636	-0.04697	0.82045	3.92	30.17	0.77	-0.4576	0.08859999	-0.1524	
0.822768	-0.0366	0.827648	5.6	35.84	0	-0.4638	0.0851	-0.1494	
0.807762	-0.02501	0.813008	6.72	41.79	-0.07	-0.4594	0.0962	-0.1674	
0.774822	-0.025986	0.811666	7.14	46.97	-0.7	-0.4638	0.0966	-0.1576	
0.773724	-0.017568	0.827648	7.77	52.71	-1.54	-0.4455	0.09519999	-0.1698	
0.77104	-0.01952	0.824598	7.49	58.73	-2.73	-0.4487	0.0957	-0.1757	
0.7442	-0.016958	0.82228	7	64.19	-2.73	-0.449	0.09209999	-0.1853	
0.722362	-0.012688	0.838262	6.86	69.37	-3.64	-0.4506	0.0988	-0.1916	
0.726266	-0.015616	0.854732	6.51	73.99	-4.27	-0.4231	0.0949	-0.2077	
0.719678	-0.001098	0.858758	5.04	79.45	-2.66	-0.4278	0.08989999	-0.2045	
0.677954	0.004392	0.856684	3.43	85.05	-1.96	-0.4157	0.09	-0.2184	
0.639158	0.005612	0.870104	2.59	89.6	-2.31	-0.4098	0.0932	-0.2328	
0.609268	-0.000732	0.866444	1.96	94.29	-2.24	-0.4024	0.0881	-0.2421	
0.570228	-0.000488	0.863272	1.19	98.98	-2.03	-0.3946	0.0883	-0.2419	
0.519232	0.001708	0.856074	0	102.41	-1.96	-0.3749	0.1028	-0.2755	
0.474458	-0.016836	0.860588	-0.49	105.7	-1.96	-0.3673	0.0937	-0.2745	
0.414922	-0.020496	0.852902	0.49	109.13	-2.45	-0.3566	0.1045	-0.288	
0.3538	-0.019032	0.84058	1.26	111.79	-2.73	-0.3415	0.0985	-0.3013	
0.296216	-0.026108	0.834846	1.33	113.4	-3.08	-0.323	0.0947	-0.3048	
0.250954	-0.01708	0.840336	1.82	114.52	-3.71	-0.3139	0.1045	-0.324	
0.215574	-0.009272	0.83387	2.52	115.64	-3.78	-0.2895	0.0919	-0.3308	
0.162626	-0.015372	0.838384	2.52	116.27	-3.15	-0.266	0.0983	-0.3294	
0.090158	-0.018666	0.833138	3.29	115.99	-1.68	-0.2692	0.1069	-0.3388	
0.048556	-0.007564	0.846192	4.41	114.31	-0.49	-0.2492	0.1101	-0.3515	
0.027694	0.006588	0.844362	4.62	112.84	-0.21	-0.2276	0.1177	-0.3616	
-0.013542	0.010858	0.842898	4.2	111.37	0.49	-0.1936	0.1177	-0.3694	
-0.068686	0.008052	0.844606	4.13	109.48	0.98	-0.1828	0.1151	-0.3717	
-0.108824	0.008784	0.843386	4.69	108.01	0.7	-0.1592	0.1228	-0.3676	
-0.137738	0.011468	0.843996	5.32	107.31	0.7	-0.1347	0.1252	-0.3858	
-0.169214	0.005002	0.83936	5.67	106.54	1.12	-0.1319	0.1098	-0.3842	
-0.212768	0.009028	0.830942	5.67	105.84	1.47	-0.1024	0.1123	-0.388	
-0.255346	0.010858	0.826916	5.95	105	1.68	-0.0885	0.1112	-0.389	
-0.295728	0.015616	0.819596	6.3	104.44	1.26	-0.0698	0.1229	-0.3954	
-0.32025	0.012566	0.80398	6.58	104.65	0.77	-0.0484	0.1084	-0.3992	
-0.361242	0.018666	0.7808	6.79	104.93	0.35	-0.0342	0.1163	-0.3982	
-0.421998	0.033672	0.764208	6.72	105.14	0.28	-0.0106	0.1191	-0.3908	
-0.465918	0.02074	0.743224	6.86	104.72	0	-0.0016	0.1156	-0.4002	
-0.474336	0.016104	0.72285	6.86	103.81	0	0.0296	0.1203	-0.3943	
-0.495686	0.021472	0.700036	6.58	103.74	0.77	0.0435	0.1159	-0.3935	
-0.56242	0.030744	0.661606	6.65	103.46	1.54	0.0559	0.1113	-0.3914	
-0.637084	0.040626	0.637572	6.93	102.55	1.89	0.0857	0.1129	-0.3851	
-0.66307	0.050386	0.609268	5.88	102.27	1.89	0.09779999	0.1044	-0.3897	
-0.693692	0.050142	0.585966	4.41	101.78	1.47	0.1167	0.1136	-0.3859	
-0.727364	0.049532	0.553636	2.87	100.8	1.82	0.1262	0.1099	-0.3782	
-0.736514	0.05307	0.533994	1.89	101.5	3.01	0.139	0.1135	-0.3655	
-0.741272	0.059536	0.52399	0.35	103.88	4.48	0.164	0.1201	-0.3655	
-0.788852	0.073932	0.48739	-0.7	106.68	5.25	0.1717	0.1107	-0.3616	
-0.868762	0.077958	0.432612	-1.19	107.94	6.23	0.1952	0.1155	-0.3587	
-0.916586	0.071736	0.396378	-2.17	108.5	7.7	0.2111	0.1093	-0.3392	
-0.992958	0.06771	0.343064	-3.99	106.96	8.05	0.2405	0.107	-0.3412	
-1.048346	0.06466	0.307684	-5.04	100.38	8.89	0.244	0.1138	-0.3318	
-1.024434	0.066124	0.295484	-4.41	92.47	7.56	0.2628	0.1054	-0.3206	
-1.029436	0.07686	0.293776	-3.36	84.14	6.65	0.2846	0.1141	-0.3266	
-1.023946	0.078812	0.295972	-2.87	75.67	6.44	0.2928	0.1125	-0.3092	
-1.004426	0.082228	0.299022	-3.5	70.77	7.14	0.3235	0.0997	-0.313	
-1.007598	0.091988	0.298412	-2.87	65.94	7.91	0.3103	0.1126	-0.2918	
-0.990518	0.089792	0.299632	-1.4	61.74	8.4	0.3195	0.1049	-0.2894	
-0.98271	0.083448	0.296216	1.4	59.99	8.33	0.3247	0.1063	-0.2724	
-0.973438	0.085522	0.291458	0.7	58.94	7.63	0.3416	0.1009	-0.2757	
-0.968192	0.092232	0.272426	1.12	57.61	6.09	0.3479	0.1106	-0.2793	
-0.96624	0.095892	0.265106	1.54	57.12	4.2	0.3576	0.1044	-0.2615	
-0.961238	0.085766	0.258152	2.8	55.93	3.22	0.3606	0.0998	-0.261	
-0.93879	0.080154	0.243024	4.06	53.83	1.05	0.3688	0.0999	-0.2452	
-0.945378	0.081374	0.24034	2.1	55.37	-1.05	0.3892	0.1009	-0.2363	
-0.955382	0.078568	0.22814	3.99	55.58	-0.77	0.3717	0.0905	-0.2428	
-0.954162	0.081984	0.203252	5.6	55.09	-0.98	0.3987	0.09869999	-0.2273	
-0.99918	0.081252	0.17263	7.42	54.11	-0.98	0.3909	0.09869999	-0.2289	
-1.035902	0.079422	0.163114	9.45	50.89	-1.33	0.4018	0.087	-0.2176	
-1.00467	0.084546	0.141642	10.01	48.3	-1.89	0.4022	0.09559999	-0.2113	
-1.015528	0.089182	0.123586	9.52	47.18	-2.59	0.4148	0.0968	-0.2054	
-1.03517	0.102358	0.113216	9.24	45.08	-3.29	0.421	0.09519999	-0.2037	
-1.026386	0.105896	0.09211	9.03	42.56	-3.08	0.4228	0.1008	-0.1985	
-1.01626	0.106262	0.052948	7.21	40.88	-2.24	0.4318	0.0823	-0.1951	
-1.05286	0.103456	0.026474	5.18	39.13	-1.68	0.4309	0.0961	-0.1808	
-1.07238	0.10675	0.016348	6.02	33.18	-1.19	0.4466	0.09779999	-0.1792	
-1.015284	0.093696	0.002684	4.13	30.73	-1.89	0.4483	0.09559999	-0.1718	
-1.05225	0.116876	-0.02562	1.4	31.5	-2.87	0.4466	0.0925	-0.1716	
-1.09983	0.105896	-0.060024	0.21	29.19	-2.17	0.4575	0.0962	-0.1759	
-1.121302	0.073932	-0.096136	0.7	25.9	-2.03	0.4453	0.09339999	-0.166	
-1.132038	0.080764	-0.118828	4.41	17.78	-2.8	0.4419	0.076	-0.1616	
-1.077138	0.102602	-0.113094	5.25	11.62	-2.94	0.4515	0.09	-0.1613	
-1.087752	0.10187	-0.0976	1.68	5.53	-1.82	0.4609	0.0866	-0.1565	
-1.080554	0.085644	-0.092964	-0.42	0.7	-0.14	0.4626	0.1009	-0.1606	
-1.053348	0.082106	-0.07442	0.7	-1.89	1.19	0.4532	0.0896	-0.1569	
-1.040416	0.092354	-0.060634	-0.56	-3.22	2.87	0.4483	0.0805	-0.159	
-1.029924	0.114314	-0.057706	-2.52	-4.97	4.97	0.4544	0.0809	-0.1618	
-1.035902	0.098088	-0.071004	-4.55	-6.51	6.79	0.4607	0.0809	-0.1602	
-1.087142	0.092842	-0.065758	-5.04	-8.54	7.21	0.4561	0.087	-0.1609	
-1.085312	0.086376	-0.046116	-5.46	-11.76	6.72	0.453	0.0904	-0.1656	
-1.052494	0.098698	-0.025254	-5.46	-13.79	5.46	0.4606	0.0796	-0.1629	
-1.034072	0.104066	-0.004148	-5.25	-15.82	5.18	0.4609	0.0784	-0.1514	
-1.040538	0.105042	-0.002684	-5.25	-17.99	4.62	0.4482	0.09429999	-0.1746	
-1.050054	0.09516	-0.002318	-4.2	-19.81	4.06	0.4402	0.0867	-0.1769	
-1.06445	0.092842	0.006344	-3.15	-21.98	2.73	0.4403	0.09119999	-0.1759	
-1.043954	0.097356	0.025986	-2.17	-24.92	1.12	0.4386	0.08989999	-0.1786	
-1.0065	0.09882	0.042578	-1.26	-26.88	-0.07	0.4448	0.0902	-0.1799	
-1.013088	0.109434	0.05246	0.14	-28.42	-1.19	0.4398	0.08679999	-0.1925	
-1.009794	0.116754	0.068686	0.42	-29.75	-1.61	0.4321	0.0861	-0.1869	
-1.020774	0.111386	0.07905599	0.35	-31.22	-1.61	0.4291	0.09739999	-0.1938	
-1.0187	0.10797	0.083448	0	-32.9	-1.54	0.4211	0.0815	-0.1896	
-1.016138	0.111752	0.085156	0.63	-33.74	-1.75	0.4256	0.0874	-0.2014	
-1.031876	0.121268	0.096746	-1.26	-34.37	-2.38	0.4162	0.084	-0.1999	
-1.012356	0.1159	0.10919	-2.94	-35.42	-2.45	0.407	0.09649999	-0.2041	
-1.019432	0.102602	0.12444	-3.92	-36.54	-2.73	0.4129	0.09299999	-0.2136	
-1.029558	0.1037	0.142252	-3.99	-39.41	-3.92	0.41	0.0957	-0.2111	
-0.992592	0.112362	0.144814	-3.99	-43.82	-4.97	0.4005	0.0992	-0.2174	
-1.009916	0.115412	0.180072	-3.57	-45.92	-4.83	0.3941	0.09519999	-0.2242	
-0.997228	0.118096	0.20862	-4.06	-49.28	-5.04	0.3938	0.0962	-0.2343	
-0.981734	0.106628	0.245952	-5.46	-52.78	-4.76	0.3889	0.1038	-0.2493	
-0.972462	0.094794	0.258274	-6.72	-56.7	-4.76	0.3717	0.0991	-0.2521	
-0.918782	0.090402	0.255834	-8.4	-57.47	-5.25	0.3749	0.0989	-0.2492	
-0.948062	0.09455	0.30378	-7.84	-55.09	-5.74	0.3577	0.1039	-0.2572	
-0.95221	0.093452	0.325496	-6.86	-54.39	-6.3	0.3605	0.0953	-0.262	
-0.918782	0.084668	0.350384	-7.28	-55.79	-5.39	0.3494	0.1058	-0.2774	
-0.876814	0.064904	0.369172	-8.54	-54.18	-4.06	0.3447	0.1059	-0.279	
-0.912438	0.055388	0.368562	-8.82	-49.28	-3.36	0.3351	0.1019	-0.2874	
-0.902434	0.054412	0.37698	-9.24	-45.29	-4.48	0.3243	0.1012	-0.2818	
-0.921222	0.048556	0.384544	-8.26	-41.58	-4.76	0.3303	0.1109	-0.3011	
-0.881816	0.050264	0.389058	-6.23	-39.41	-5.88	0.3055	0.1148	-0.2992	
-0.902678	0.066978	0.385154	-5.39	-36.33	-7.28	0.3165	0.1113	-0.2929	
-0.91744	0.058926	0.393694	-5.39	-34.58	-7.35	0.31	0.1191	-0.3109	
-0.919514	0.036722	0.406626	-4.55	-32.97	-7.07	0.2977	0.1232	-0.3087	
-0.897798	0.033306	0.426268	-3.29	-31.78	-7.91	0.3023	0.1167	-0.3037	
-0.892308	0.053558	0.433832	-3.78	-31.36	-9.17	0.2959	0.1192	-0.3141	
-0.881084	0.05246	0.445544	-4.76	-31.71	-8.19	0.2974	0.1144	-0.3121	
-0.857172	0.035746	0.47275	-6.51	-32.06	-7	0.2864	0.1265	-0.3278	
-0.851072	0.020618	0.49471	-6.58	-31.29	-6.3	0.2786	0.1263	-0.3279	
-0.856928	0.019276	0.499468	-5.74	-30.94	-6.37	0.2741	0.1321	-0.3257	
-0.873886	0.016958	0.500566	-7.35	-31.22	-6.23	0.271	0.1353	-0.3275	
-0.863272	0.017202	0.50813	-5.32	-31.99	-4.97	0.271	0.1304	-0.3242	
-0.838994	0.020252	0.530456	-4.83	-32.48	-3.64	0.255	0.1254	-0.3383	
-0.829112	0.016592	0.5368	-4.76	-31.71	-2.94	0.2551	0.1302	-0.3402	
-0.858514	0.007686	0.526186	-4.62	-31.29	-2.24	0.2475	0.1322	-0.332	
-0.860222	0.005368	0.521916	-3.08	-32.55	-2.1	0.2442	0.138	-0.344	
-0.853634	0.007929999	0.527284	-1.75	-34.37	-2.31	0.2502	0.1291	-0.3459	
-0.851072	0.0122	0.530456	-0.84	-36.61	-2.73	0.2334	0.1292	-0.3349	
-0.85217	0.009272	0.528992	-0.77	-39.06	-3.15	0.2207	0.1315	-0.3454	
-0.83265	0.007929999	0.551806	-1.12	-41.86	-3.08	0.2252	0.134	-0.3541	
-0.817888	0.010004	0.56364	-2.1	-43.68	-2.31	0.2112	0.1307	-0.3541	
-0.801418	0.005124	0.574986	-2.66	-44.66	-1.54	0.2144	0.1435	-0.3595	
-0.798734	0.005368	0.582672	-2.24	-45.36	-0.98	0.202	0.1347	-0.3504	
-0.79971	0.004148	0.587918	-0.98	-46.27	-0.98	0.1921	0.1287	-0.3685	
-0.796172	0.011956	0.596946	0.07	-47.53	-1.54	0.177	0.1364	-0.3568	
-0.794464	0.010126	0.59475	-0.07	-49	-1.82	0.1769	0.132	-0.3593	
-0.785924	0.009393999	0.591212	-0.84	-51.66	-2.52	0.1705	0.1393	-0.3715	
-0.774212	0.002928	0.599142	-0.28	-54.04	-3.43	0.1612	0.1322	-0.3639	
-0.769454	0.006832	0.60573	2.45	-56.84	-4.27	0.1563	0.1399	-0.3804	
-0.765306	0.015616	0.607926	3.22	-60.48	-5.88	0.138	0.1462	-0.3715	
-0.76006	0.015006	0.601948	3.22	-66.57	-5.95	0.1362	0.1474	-0.383	
-0.743224	0.022326	0.605242	2.1	-72.8	-6.44	0.1231	0.133	-0.3947	
-0.703574	0.010126	0.620492	0.56	-78.75	-6.44	0.1078	0.1334	-0.3866	
-0.679662	0.017934	0.63257	0.14	-83.44	-7.21	0.07979999	0.1327	-0.3857	
-0.656238	0.018666	0.64599	1.05	-88.83	-8.05	0.09079999	0.1375	-0.3859	
-0.61488	0.0122	0.665144	1.26	-94.43	-9.87	0.0657	0.1315	-0.3916	
-0.589748	0.02196	0.667462	0.56	-99.19	-10.99	0.0519	0.1337	-0.3865	
-0.546926	0.021106	0.682712	0.49	-104.16	-9.94	0.0343	0.127	-0.399	
-0.5002	0.027938	0.708698	-0.7	-108.22	-10.22	-0.0108	0.1246	-0.3999	
-0.451644	0.023302	0.725168	-2.03	-113.47	-12.88	-0.0246	0.1352	-0.4012	
-0.42029	0.009272	0.736636	-4.13	-116.9	-14.49	-0.0415	0.1341	-0.3944	
-0.35441	-0.002074	0.77104	-4.2	-120.54	-14.35	-0.0743	0.119	-0.388	
-0.308172	0.00061	0.785924	-4.13	-122.15	-14.21	-0.0945	0.1351	-0.4	
-0.264984	0.000854	0.80093	-3.78	-122.78	-14.42	-0.1116	0.1263	-0.3924	
-0.197274	-0.013298	0.832528	-4.9	-123.13	-13.3	-0.1426	0.1203	-0.384	
-0.13298	-0.031598	0.852902	-5.74	-123.06	-11.76	-0.1534	0.1215	-0.383	
-0.087962	-0.04575	0.855464	-5.18	-122.64	-11.83	-0.1847	0.1065	-0.378	
-0.045872	-0.047336	0.857172	-4.41	-121.8	-12.18	-0.2061	0.1145	-0.3708	
0.02379	-0.049898	0.880962	-3.92	-120.33	-11.06	-0.2136	0.1164	-0.3612	
0.08479	-0.043188	0.881084	-4.34	-117.25	-10.15	-0.2334	0.1259	-0.3526	
0.127368	-0.031354	0.88511	-3.99	-114.31	-9.38	-0.2474	0.1242	-0.3542	
0.143472	-0.032574	0.862662	-3.78	-111.86	-8.26	-0.2611	0.1191	-0.337	
0.192394	-0.040992	0.879742	-3.99	-110.04	-6.65	-0.2875	0.1202	-0.3377	
0.246806	-0.046482	0.895724	-3.92	-108.01	-4.76	-0.292	0.116	-0.3274	
0.283894	-0.041602	0.8845	-4.27	-106.26	-2.8	-0.304	0.1105	-0.3059	
0.321226	-0.04453	0.881694	-4.13	-105.07	-2.03	-0.3133	0.1166	-0.3081	
0.373442	-0.050142	0.887672	-3.64	-103.11	-1.68	-0.3258	0.1015	-0.297	
0.414678	-0.049532	0.890844	-3.29	-100.31	-0.77	-0.3537	0.0988	-0.2917	
0.471164	-0.062098	0.89487	-2.45	-97.23	-0.56	-0.3515	0.1144	-0.2789	
0.487878	-0.06771	0.899262	-2.03	-95.83	-1.05	-0.3776	0.1092	-0.2634	
0.535702	-0.075884	0.910608	-0.63	-92.26	-0.7	-0.3744	0.09869999	-0.2495	
0.5734	-0.070638	0.909144	1.26	-88.9	-0.42	-0.4004	0.1063	-0.2395	
0.629032	-0.063928	0.898286	3.15	-82.88	-0.7	-0.4126	0.1067	-0.2313	
0.668316	-0.055632	0.888892	3.99	-77.35	0.07	-0.4035	0.09779999	-0.2316	
0.671122	-0.049532	0.879132	4.34	-74.2	0.63	-0.4266	0.0883	-0.2185	
0.656116	-0.043798	0.818986	3.15	-67.48	1.61	-0.4169	0.0949	-0.2061	
0.67405	-0.049776	0.807518	2.73	-64.26	2.03	0	0	0	
0.68869	-0.048556	0.78568	3.08	-60.48	1.89	-0.4307	0.0924	-0.1991	
0.699792	-0.050142	0.760548	3.57	-58.66	0.77	-0.4397	0.0907	-0.1849	
0.719434	-0.0549	0.764818	3.29	-56.63	0.7	-0.4551	0.0897	-0.1781	
0.748836	-0.053802	0.757132	2.59	-52.5	1.12	-0.4445	0.0675	-0.1686	
0.763598	-0.051118	0.738222	2.1	-48.58	1.54	-0.4546	0.086	-0.1564	
0.759938	-0.050142	0.735904	1.68	-47.6	1.75	-0.4641	0.0796	-0.156	
0.77714	-0.05307	0.74359	1.33	-45.29	2.52	-0.4638	0.0918	-0.1557	
0.820206	-0.059292	0.76128	1.47	-40.46	2.94	-0.4746	0.0844	-0.1453	
0.843386	-0.05185	0.752252	1.47	-35.63	3.64	-0.4663	0.0906	-0.1287	
0.849486	-0.060512	0.752984	1.33	-31.08	3.99	-0.4726	0.0826	-0.1266	
0.865468	-0.05612	0.750788	2.17	-25.69	3.99	-0.4787	0.0867	-0.1229	
0.86315	-0.05612	0.738954	2.66	-20.23	3.64	-0.4647	0.084	-0.1238	
0.85583	-0.048068	0.737856	2.31	-14.63	3.29	-0.4736	0.0967	-0.1152	
0.85522	-0.058072	0.737002	1.47	-8.89	3.71	-0.4787	0.08	-0.118	
0.861198	-0.064782	0.745054	1.47	-4.2	3.99	-0.4831	0.0942	-0.1223	
0.863516	-0.063562	0.743712	1.82	0.7	3.15	-0.4756	0.0835	-0.1211	
0.868884	-0.073932	0.750544	2.1	6.51	2.31	-0.4815	0.09209999	-0.1164	
0.864492	-0.063806	0.756034	3.5	11.97	2.59	-0.4848	0.0878	-0.1203	
0.870958	-0.062342	0.767136	3.64	16.73	2.38	-0.4707	0.0878	-0.1171	
0.893772	-0.058072	0.796538	4.55	22.4	1.4	-0.4708	0.0883	-0.1229	
0.926224	-0.055998	0.819108	4.97	29.4	1.4	-0.4711	0.0977	-0.1394	
0.952088	-0.058072	0.827892	6.02	38.22	1.19	-0.4742	0.0942	-0.1363	
0.9394	-0.052826	0.82899	7.56	47.25	-0.21	-0.4573	0.0957	-0.1474	
0.912682	-0.053802	0.83631	7.98	55.44	-0.77	-0.4698	0.0873	-0.1427	
0.909266	-0.037576	0.843142	8.54	64.82	-0.07	-0.453	0.0825	-0.1518	
0.882914	-0.011834	0.841068	8.05	75.25	0.21	-0.4578	0.0928	-0.1642	
0.840092	-0.008905999	0.819352	6.23	84.84	-0.49	-0.4424	0.0989	-0.1758	
0.788974	-0.00732	0.825452	4.83	93.52	-1.12	-0.4333	0.0967	-0.1825	
0.746396	-0.007442	0.82899	3.15	101.29	-0.84	-0.4244	0.1019	-0.2013	
0.698694	-0.009393999	0.823866	1.61	108.29	-0.7	-0.4279	0.0953	-0.2121	
0.641476	-0.0061	0.81984	0.21	114.59	-0.91	-0.4188	0.0949	-0.2218	
0.586454	-0.014152	0.826184	-1.54	120.19	-1.19	-0.4064	0.1022	-0.2307	
0.530334	-0.024644	0.815814	-2.45	124.67	-0.42	-0.3838	0.0988	-0.2526	
0.475068	-0.023912	0.816424	-2.38	129.01	0.28	-0.3654	0.1057	-0.2713	
0.419192	-0.020496	0.82106	-2.03	131.95	0.28	-0.3455	0.0992	-0.2788	
0.366244	-0.042212	0.83021	-1.47	134.26	-0.77	-0.335	0.1059	-0.2976	
0.320616	-0.044164	0.829112	-0.42	135.59	-1.33	-0.3288	0.1146	-0.3068	
0.271938	-0.048678	0.827648	0.14	136.01	-0.91	-0.3029	0.119	-0.3294	
0.222284	-0.047458	0.835944	1.33	135.24	-0.14	-0.2876	0.1137	-0.3342	
0.169458	-0.042456	0.84058	2.87	134.05	-0.07	-0.269	0.1111	-0.335	
0.126392	-0.039894	0.844728	4.2	133.21	-0.49	-0.2491	0.1212	-0.3554	
0.07503	-0.03355	0.837896	5.11	132.44	-0.84	-0.2338	0.1193	-0.3633	
0.030866	-0.038552	0.84363	6.23	130.55	-0.84	-0.2013	0.1139	-0.3635	
-0.008052	-0.04087	0.834114	7.77	128.94	-0.56	-0.1875	0.1204	-0.3794	
-0.064416	-0.032818	0.828502	9.45	127.54	-0.42	-0.1641	0.1255	-0.3794	
-0.118584	-0.035624	0.82228	10.36	125.65	-0.21	-0.1457	0.1168	-0.381	
-0.15311	-0.042334	0.818376	11.97	123.55	-0.35	-0.1229	0.1094	-0.3939	
-0.178486	-0.040382	0.823134	13.16	123.2	-0.14	-0.1085	0.123	-0.3892	
-0.233874	-0.01525	0.797636	13.65	123.13	0.28	-0.0807	0.1196	-0.3953	
-0.302194	0.006344	0.775066	12.6	121.8	0.49	-0.07319999	0.1142	-0.4003	
-0.341356	0.01769	0.768722	11.06	120.12	0.63	-0.0434	0.1057	-0.386	
-0.353922	0.017324	0.762988	9.73	120.19	2.24	-0.011	0.1189	-0.4036	
-0.395768	0.01586	0.726632	8.47	120.26	3.99	0.0044	0.1113	-0.4011	
-0.49044	0.026718	0.69479	8.61	119.07	4.76	0.0234	0.1166	-0.3898	
-0.551074	0.03904	0.674294	7.56	116.06	5.32	0.0355	0.1051	-0.3941	
-0.554978	0.024156	0.667218	7.35	113.33	7	0.0592	0.1176	-0.3919	
-0.590968	0.011834	0.63074	7.21	112.42	7.84	0.0809	0.1166	-0.3927	
-0.646966	0.028304	0.578524	7.42	111.79	7.28	0.0962	0.1044	-0.3898	
-0.696376	0.053558	0.53924	5.95	110.95	6.58	0.126	0.1025	-0.3804	
-0.708088	0.06039	0.50264	3.43	110.95	6.37	0.1416	0.1093	-0.3835	
-0.73566	0.070028	0.47702	1.12	111.93	5.95	0.1481	0.1062	-0.3674	
-0.816668	0.063562	0.434442	-0.84	112.42	7.28	0.1809	0.115	-0.3718	
-0.879986	0.058438	0.41236	-2.59	112.91	7.07	0.195	0.1079	-0.3594	
-0.964776	0.06649	0.361364	-3.29	111.3	5.74	0.2139	0.1057	-0.3488	
-0.9699	0.040748	0.330254	-3.5	107.17	5.67	0.2344	0.1081	-0.3386	
-0.967216	0.048556	0.30378	-1.61	100.24	4.55	0.2453	0.1002	-0.3333	
-0.967704	0.063562	0.28792	-0.35	95.62	3.71	0.2748	0.099	-0.3311	
-0.95709	0.08357	0.272914	-0.07	95.13	4.06	0.2707	0.1085	-0.3193	
-0.959774	0.080154	0.244244	-0.35	95.13	4.97	0.3035	0.1035	-0.3096	
-1.007598	0.0671	0.206302	-1.05	96.67	5.25	0.3239	0.0929	-0.291	
-1.030656	0.06832	0.15372	0.14	94.92	3.85	0.3244	0.1058	-0.2823	
-1.079944	0.084424	0.107726	-1.96	92.26	2.87	0.3526	0.1088	-0.2762	
-1.112396	0.092354	0.078934	-0.28	84.98	3.08	0.3607	0.1044	-0.2614	
-1.082994	0.07503	0.098454	-0.77	74.48	3.92	0.3626	0.1062	-0.2487	
-1.053104	0.06283	0.088328	0.49	67.13	4.62	0.381	0.0962	-0.2516	
-1.034926	0.070272	0.092964	1.4	63	2.52	0.3893	0.0988	-0.2304	
-1.037854	0.082594	0.092598	0.77	59.78	0.49	0.3829	0.0962	-0.2359	
-1.026264	0.074542	0.112606	4.13	55.09	0.28	0.3942	0.1014	-0.2248	
-1.021994	0.063928	0.115656	6.16	53.27	-0.91	0.3973	0.08639999	-0.2119	
-1.046028	0.066978	0.104798	8.05	49.7	-2.24	0.4178	0.0939	-0.2065	
-0.985516	0.074176	0.111386	8.68	44.1	-2.66	0.4226	0.0985	-0.2054	
-1.017968	0.087596	0.109312	7.56	42.91	-4.13	0.4257	0.09869999	-0.2068	
-1.040904	0.093696	0.10675	8.75	38.15	-4.41	0.4213	0.0925	-0.1921	
-1.032608	0.08113	0.09076799	7.56	34.79	-3.78	0.4261	0.0918	-0.1848	
-1.042612	0.084546	0.08174	9.03	33.25	-2.87	0.4263	0.1042	-0.186	
-1.0614	0.082106	0.06893	8.54	29.4	-2.31	0.4322	0.09559999	-0.1907	
-1.029192	0.080032	0.056608	8.47	25.62	-1.68	0.4436	0.0972	-0.1735	
-1.055422	0.088816	0.057706	7.91	23.59	-1.89	0.4434	0.08639999	-0.1725	
-1.01809	0.097356	0.049532	7.07	19.04	-1.75	0.4407	0.09959999	-0.1681	
-1.031144	0.106018	0.032818	4.55	17.15	-1.47	0.4468	0.09339999	-0.166	
-1.045906	0.0915	0.0488	1.61	14.07	-0.35	0.45	0.0883	-0.1597	
-1.011868	0.0732	0.052948	2.45	10.29	1.12	0.4439	0.1009	-0.1653	
-0.985394	0.07808	0.038918	1.61	9.17	0.91	0.4513	0.0875	-0.1667	
-1.043588	0.084302	0.02684	-0.28	8.4	-0.14	0.4515	0.09	-0.1613	
-1.03761	0.092598	0.005612	-0.91	5.95	-0.84	0.4453	0.0866	-0.1597	
-1.030778	0.089792	-0.005124	-1.12	6.3	0	0.448	0.0735	-0.1655	
-1.050542	0.079422	-0.00671	-1.54	5.32	0.35	0.4496	0.0763	-0.1629	
-1.032364	0.091744	-0.0061	-1.75	3.92	-0.35	0.4578	0.095	-0.1645	
-1.02419	0.099674	-0.010736	-2.45	2.87	0	0.4453	0.0832	-0.1565	
-1.023946	0.083936	-0.017568	-4.27	1.75	1.33	0.4531	0.0882	-0.1582	
-1.031144	0.066368	-0.015494	-5.25	0.98	1.54	0.4514	0.0856	-0.1637	
-1.038952	0.073688	-0.02074	-5.74	0	0	0.4487	0.09519999	-0.1533	
-1.028216	0.076372	-0.033672	-7.7	-1.05	-0.56	0.4485	0.0913	-0.1601	
-1.04676	0.069906	-0.047702	-7.63	-2.31	0	0.4563	0.0979	-0.1633	
-1.067988	0.066856	-0.054168	-7.56	-4.48	-0.49	0.4592	0.08549999	-0.1607	
-1.04676	0.07076	-0.05185	-6.65	-7.49	-1.26	0.4501	0.0909	-0.1557	
-1.046638	0.070882	-0.043066	-6.58	-7.56	-1.47	0.4472	0.0951	-0.1519	
-1.037	0.059902	-0.045384	-7.28	-7.28	-1.26	0.4512	0.088	-0.1725	
-1.050542	0.05795	-0.050996	-5.32	-8.05	-1.12	0.4456	0.09869999	-0.158	
-1.055666	0.067222	-0.063318	-4.27	-8.96	-1.33	0.4575	0.0913	-0.1726	
-1.056032	0.05856	-0.052338	-4.27	-10.57	-0.77	0.4516	0.0981	-0.1663	
-1.054934	0.04941	-0.052216	-4.13	-12.95	-1.47	0.4421	0.0984	-0.1708	
-1.0553	0.055876	-0.04453	-4.13	-15.4	-2.38	0.4467	0.0972	-0.1735	
-1.060546	0.059658	-0.03416	-3.85	-18.62	-1.82	0.4372	0.0944	-0.1777	
-1.0675	0.057462	-0.02684	-3.29	-21.63	-1.33	0.4325	0.0894	-0.1745	
-1.074088	0.058926	-0.015128	-3.92	-24.57	-0.49	0.4435	0.1024	-0.1797	
-1.069574	0.05856	-0.01342	-4.13	-28.21	0.07	0.4198	0.0954	-0.191	
-1.070794	0.059292	-0.005856	-4.13	-31.43	0.42	0.4371	0.0981	-0.1837	
-1.05835	0.06344	0.009393999	-4.41	-34.72	0.42	0.4324	0.1048	-0.1901	
-1.072502	0.060146	0.02196	-4.97	-37.73	0.49	0.4214	0.1037	-0.1974	
-1.070794	0.065514	0.04392	-5.32	-42.42	0.7	0.4213	0.0954	-0.1909	
-1.050542	0.064172	0.073444	-6.23	-48.93	0.91	0.4183	0.1169	-0.2072	
-1.033218	0.060146	0.092598	-6.3	-52.92	1.26	0.4193	0.0941	-0.2079	
-0.998936	0.061976	0.102358	-5.74	-55.44	1.4	0.3959	0.1075	-0.2239	
-1.021628	0.060756	0.13725	-5.67	-54.39	1.54	0.405	0.1053	-0.2306	
-1.004182	0.063318	0.164212	-5.32	-56.07	1.12	0.3956	0.1038	-0.2335	
-1.003694	0.067222	0.182268	-5.81	-57.89	0.63	0.38	0.1068	-0.2356	
-1.003572	0.059292	0.202642	-5.46	-58.38	0.63	0.3813	0.1046	-0.2439	
-0.979416	0.054534	0.211426	-4.69	-58.8	0.49	0.3735	0.1032	-0.2468	
-0.99125	0.063318	0.234484	-4.13	-58.1	-0.35	0.3688	0.1045	-0.2456	
-0.96624	0.062342	0.253516	-2.87	-58.52	-0.49	0.353	0.1137	-0.2639	
-0.95221	0.059292	0.274622	-3.08	-58.73	-0.63	0.3526	0.1073	-0.2761	
-0.94977	0.061366	0.296704	-2.66	-58.87	-1.4	0.3338	0.1075	-0.2822	
-0.948184	0.068686	0.312442	-2.17	-59.78	-1.75	0.3338	0.1091	-0.2824	
-0.92171	0.066368	0.330498	-1.26	-62.3	-1.61	0.3291	0.1141	-0.2872	
-0.923784	0.066612	0.355264	-1.82	-64.26	-1.75	0.3162	0.1125	-0.3044	
-0.901336	0.068564	0.38125	-1.61	-68.11	-2.8	0.2943	0.1143	-0.3122	
-0.855098	0.072468	0.42151	-2.31	-70.7	-3.85	0.2881	0.1106	-0.3063	
-0.828014	0.068808	0.454328	-4.41	-69.3	-3.78	0.274	0.1093	-0.3122	
-0.834602	0.058194	0.47946	-6.09	-65.31	-4.06	0.2771	0.1228	-0.3234	
-0.833992	0.050386	0.490196	-5.67	-62.23	-3.92	0.2644	0.1202	-0.3305	
-0.83387	0.048068	0.502396	-5.25	-60.2	-3.64	0.2533	0.1242	-0.3425	
-0.832894	0.047824	0.512766	-4.55	-59.71	-3.64	0.2438	0.1146	-0.3404	
-0.820572	0.058316	0.524234	-3.71	-61.88	-3.64	0.2329	0.113	-0.3419	
-0.797026	0.049654	0.547048	-5.53	-64.33	-3.57	0.2095	0.1211	-0.3504	
-0.778116	0.04087	0.564128	-5.74	-66.15	-4.2	0.2079	0.1263	-0.3566	
-0.777872	0.03355	0.566202	-6.86	-68.88	-4.27	0.1969	0.1233	-0.3594	
-0.793488	0.030134	0.56547	-6.86	-72.38	-4.76	0.1782	0.1197	-0.3581	
-0.784094	0.028914	0.577792	-4.06	-77.07	-4.62	0.1753	0.1403	-0.3658	
-0.750788	0.036966	0.599142	-2.59	-82.32	-5.81	0.1656	0.1302	-0.3736	
-0.70699	0.031842	0.613538	-0.98	-86.38	-6.3	0.1344	0.1231	-0.3708	
-0.706136	0.033306	0.630374	-0.28	-87.85	-7.07	0.125	0.1332	-0.3819	
-0.677344	0.035136	0.662704	0.77	-89.25	-7.63	0.1153	0.1179	-0.3835	
-0.647454	0.034648	0.684054	2.59	-91.49	-8.05	0.0999	0.1289	-0.3892	
-0.628056	0.031598	0.67893	1.33	-92.82	-8.68	0.0951	0.1211	-0.3885	
-0.597434	0.029524	0.684176	0.28	-95.83	-9.52	0.081	0.116	-0.387	
-0.560224	0.033916	0.711748	-1.61	-98.84	-10.99	0.0498	0.1209	-0.3967	
-0.507886	0.028182	0.743224	-1.4	-99.68	-11.48	0.0251	0.1362	-0.4016	
-0.484462	0.016226	0.74786	-0.56	-100.66	-10.29	0.0173	0.1276	-0.3938	
-0.480436	0.036112	0.754204	-1.47	-102.34	-10.01	0.0046	0.1186	-0.3975	
-0.468358	0.033794	0.745786	-2.8	-104.37	-10.43	-0.0249	0.1183	-0.401	
-0.41175	0.02806	0.756888	-4.48	-108.29	-10.15	-0.0451	0.121	-0.4018	
-0.33001	0.022936	0.775188	-6.02	-112.07	-10.08	-0.0575	0.1122	-0.3927	
-0.282918	0.006466	0.811788	-5.67	-114.73	-10.85	-0.0729	0.1198	-0.3952	
-0.270474	-0.00549	0.812764	-4.69	-115.01	-12.46	-0.0914	0.1272	-0.3963	
-0.239974	-0.006344	0.81008	-5.11	-115.85	-13.44	-0.1133	0.1204	-0.3948	
-0.17385	-0.02379	0.8418	-6.23	-117.18	-13.09	-0.132	0.1202	-0.3966	
-0.14091	-0.03111	0.867786	-5.6	-117.32	-12.11	-0.1581	0.1231	-0.3847	
-0.102114	-0.02013	0.867054	-5.11	-115.57	-12.39	-0.1765	0.1249	-0.3768	
-0.063562	-0.035624	0.887428	-4.34	-114.66	-11.62	-0.1936	0.126	-0.3758	
-0.022448	-0.055266	0.891454	-3.01	-112.98	-10.99	-0.2122	0.1138	-0.3652	
0.034648	-0.051362	0.900848	-2.1	-110.39	-9.59	-0.2091	0.1005	-0.3539	
0.086376	-0.046726	0.907802	-2.24	-108.08	-8.19	-0.2445	0.1118	-0.3515	
0.11041	-0.050996	0.89304	-1.47	-106.75	-6.93	-0.2567	0.1071	-0.3386	
0.139568	-0.052826	0.86864	-0.7	-104.79	-6.58	-0.2771	0.1024	-0.3414	
0.196908	-0.064172	0.875106	0.49	-102.76	-6.58	-0.2845	0.1022	-0.3259	
0.25437	-0.049654	0.885842	1.96	-101.01	-5.32	-0.3014	0.101	-0.3177	
0.300608	-0.029036	0.87474	2.03	-100.1	-2.66	-0.3151	0.101	-0.3052	
0.336476	-0.036722	0.877058	0.21	-99.89	-0.07	-0.3257	0.0993	-0.2911	
0.38552	-0.047824	0.884256	0.21	-99.26	0.91	-0.3365	0.1038	-0.2918	
0.44347	-0.053192	0.8906	1.05	-97.02	1.61	-0.3565	0.094	-0.2757	
0.470676	-0.053802	0.880474	2.73	-95.69	2.24	-0.3641	0.0935	-0.2715	
0.501176	-0.048068	0.8845	3.43	-92.96	2.03	-0.375	0.08639999	-0.264	
0.559492	-0.039162	0.892674	3.43	-88.55	2.24	-0.3868	0.1003	-0.2528	
0.62098	-0.034526	0.905972	2.38	-83.16	2.94	-0.3943	0.0985	-0.2372	
0.635986	-0.028304	0.901092	0.42	-77.56	4.34	-0.399	0.087	-0.2305	
0.635742	-0.029402	0.87047	-1.75	-73.5	4.83	-0.4097	0.0895	-0.2267	
0.659898	-0.033672	0.865834	-3.36	-70.98	4.97	-0.4234	0.09119999	-0.2159	
0.694546	-0.032696	0.861076	-3.57	-67.2	5.53	-0.4201	0.0905	-0.2086	
0.699914	-0.0305	0.845338	-2.8	-62.79	6.51	-0.4417	0.0826	-0.1956	
0.688324	-0.032818	0.815204	-2.87	-59.01	6.3	-0.4415	0.0948	-0.1953	
0.71126	-0.03416	0.802394	-4.2	-54.74	6.79	-0.4445	0.0829	-0.1843	
0.72895	-0.049044	0.790804	-5.67	-50.33	7.98	-0.4552	0.0869	-0.1807	
0.722362	-0.061488	0.759816	-5.95	-47.32	8.54	-0.4566	0.0828	-0.1703	
0.726388	-0.069662	0.735172	-6.79	-46.55	8.4	-0.4562	0.0861	-0.1579	
0.74542	-0.065026	0.743468	-8.33	-44.45	9.03	-0.4639	0.0954	-0.1603	
0.75091	-0.074908	0.742126	-9.45	-40.81	10.64	-0.4656	0.0845	-0.1594	
0.746396	-0.065636	0.724802	-9.1	-38.92	11.69	-0.4665	0.1034	-0.1498	
0.747982	-0.081008	0.730658	-10.5	-37.94	11.48	-0.462	0.0906	-0.1428	
0.788486	-0.087474	0.746762	-8.75	-33.95	10.36	-0.4741	0.0958	-0.1365	
0.817644	-0.077348	0.750666	-8.82	-28.7	9.45	-0.4739	0.1031	-0.1329	
0.827648	-0.08357	0.737612	-8.54	-24.71	9.24	-0.4662	0.0984	-0.1308	
0.843142	-0.09857599	0.734806	-7.42	-19.53	8.4	-0.4753	0.1073	-0.129	
0.84363	-0.116998	0.718702	-4.62	-14.35	7.35	-0.4779	0.1019	-0.1073	
0.837774	-0.111752	0.720776	-0.84	-11.97	6.3	-0.4861	0.1049	-0.1234	
0.84546	-0.106994	0.735294	2.31	-6.65	5.74	-0.4829	0.1031	-0.1203	

0.836066	-0.099186	0.728096	3.57	5.81	2.87	-0.4765	0.1076	-0.1177	
0.835578	-0.112118	0.747616	4.62	10.01	1.61	-0.478	0.1205	-0.1247	
0.855342	-0.116754	0.770796	7.91	15.54	0.14	-0.4828	0.1059	-0.1177	
0.86132	-0.092964	0.758962	12.25	20.86	-1.12	-0.4719	0.1112	-0.1222	
0.847534	-0.09333	0.76616	11.76	25.76	-1.4	-0.4799	0.107	-0.1277	
0.843996	-0.086986	0.763476	12.32	31.57	-1.19	-0.4786	0.1081	-0.1377	
0.840824	-0.08418	0.775066	12.6	36.75	-1.19	-0.4741	0.1021	-0.1385	
0.83814	-0.06222	0.780312	12.6	40.25	-1.12	-0.4743	0.0981	-0.1438	
0.840824	-0.07124799	0.787144	13.3	45.01	-0.7	-0.4682	0.1021	-0.1526	
0.836432	-0.072468	0.812154	15.26	51.73	-1.19	-0.4667	0.0941	-0.1489	
0.833626	-0.07747	0.82716	15.4	59.71	-1.96	-0.4589	0.1092	-0.1601	
0.810568	-0.06466	0.813862	15.47	66.57	-3.5	-0.4453	0.106	-0.1709	
0.786534	-0.05307	0.815326	15.33	72.87	-4.2	-0.4454	0.1098	-0.1783	
0.776164	-0.045262	0.828746	14.91	79.24	-4.2	-0.4472	0.1008	-0.1804	
0.748226	-0.033062	0.847046	14.98	84.84	-4.76	-0.4414	0.0994	-0.1957	
0.712846	-0.02562	0.853146	13.51	91.21	-5.46	-0.4293	0.103	-0.2128	
0.68564	-0.028548	0.86132	12.53	98.49	-5.11	-0.4124	0.1075	-0.2243	
0.664046	-0.024278	0.867054	12.18	105.56	-5.04	-0.4049	0.1058	-0.2353	
0.627934	-0.024766	0.864614	11.48	111.37	-5.25	-0.3917	0.0975	-0.2569	
0.584014	-0.030988	0.879254	10.99	117.46	-5.25	-0.3823	0.0976	-0.2553	
0.527406	-0.025498	0.878644	10.57	124.39	-4.69	-0.3703	0.1065	-0.28	
0.46665	-0.012566	0.867908	9.8	130.97	-5.04	-0.3536	0.1017	-0.2906	
0.402966	-0.009516	0.864858	9.24	137.13	-6.23	-0.3269	0.1214	-0.2975	
0.34709	-0.003294	0.87352	9.38	143.57	-7	-0.3214	0.0998	-0.3095	
0.304512	-0.010004	0.874862	8.54	150.36	-6.65	-0.3034	0.101	-0.3334	
0.234362	-0.007564	0.842288	8.12	157.36	-6.37	-0.2709	0.0959	-0.3364	
0.153354	0.015494	0.813374	7.63	162.19	-6.3	-0.2525	0.1008	-0.3507	
0.087718	0.023668	0.826428	6.3	166.39	-5.53	-0.2188	0.0918	-0.3604	
0.027206	0.013176	0.787266	4.9	170.03	-3.92	-0.2046	0.09299999	-0.3545	
-0.072834	0.016592	0.752374	4.55	170.94	-3.57	-0.1848	0.092	-0.371	
-0.152134	0.013176	0.728706	4.34	168.77	-3.22	-0.1522	0.1114	-0.3891	
-0.214476	0.013664	0.723582	5.18	165.13	-3.29	-0.1196	0.104	-0.3848	
-0.273158	0.012444	0.708698	4.97	160.51	-2.8	-0.0964	0.1151	-0.3995	
-0.35746	0.013298	0.690886	6.23	153.86	-2.03	-0.0703	0.1017	-0.3977	
-0.400892	0.016226	0.704672	6.72	148.05	-1.33	-0.039	0.1134	-0.4009	
-0.436394	0.00915	0.69479	6.3	143.78	-0.84	-0.0094	0.1172	-0.402	
-0.498858	0.00427	0.673074	7.49	139.09	-0.98	0.0108	0.1088	-0.3908	
-0.540948	0.013664	0.648674	8.54	134.61	-0.7	0.0311	0.1107	-0.3905	
-0.590114	0.018178	0.618052	9.45	127.89	-0.7	0.0604	0.1054	-0.3921	
-0.620004	0.028426	0.610976	9.31	121.17	-0.49	0.0806	0.1061	-0.3946	
-0.633302	0.02196	0.607804	8.4	115.92	-1.05	0.1027	0.1099	-0.3831	
-0.650016	0.028426	0.590114	8.61	110.88	-1.33	0.1307	0.1072	-0.3807	
-0.693082	0.026962	0.574376	8.19	105.84	-1.19	0.1372	0.1077	-0.3692	
-0.735782	0.036234	0.558394	7.07	100.8	-1.26	0.1545	0.1024	-0.3584	
-0.764452	0.038796	0.542534	6.37	95.9	-1.05	0.1779	0.1044	-0.358	
-0.780068	0.045628	0.522526	5.53	91.42	0.42	0.1949	0.0966	-0.3541	
-0.777384	0.044164	0.49837	4.97	88.27	1.68	0.2215	0.1083	-0.3574	
-0.804834	0.062342	0.451156	4.83	85.68	2.38	0.2216	0.1044	-0.3499	
-0.860222	0.067832	0.418094	3.85	82.39	3.15	0.2438	0.0998	-0.3305	
-0.882548	0.070394	0.387838	3.85	78.96	3.22	0.2439	0.1062	-0.3325	
-0.9089	0.073444	0.324642	2.24	74.9	3.22	0.275	0.0982	-0.3225	
-0.980758	0.072956	0.302072	2.73	72.17	2.8	0.275	0.0982	-0.3225	
-1.056154	0.068442	0.274988	5.18	65.8	2.24	0.2892	0.0958	-0.312	
-1.028216	0.062098	0.259006	5.95	60.41	1.89	0.2972	0.1071	-0.3157	
-1.026874	0.080276	0.235948	5.53	54.74	2.17	0.3237	0.0939	-0.3011	
-1.020164	0.088084	0.230702	5.11	53.13	2.59	0.3237	0.0939	-0.3011	
-1.0065	0.078934	0.2318	3.5	49.49	3.15	0.3317	0.09119999	-0.2878	
-1.004426	0.084668	0.219844	4.06	47.74	2.03	0.3333	0.0911	-0.2864	
-1.002474	0.081984	0.210206	3.71	46.41	2.1	0.3332	0.085	-0.2872	
-1.005524	0.072224	0.212524	3.36	45.57	2.1	0.3538	0.0971	-0.2808	
-0.982466	0.0793	0.210572	5.67	44.03	0.98	0.3509	0.08769999	-0.2643	
-0.955382	0.08052	0.2257	5.32	43.33	-0.77	0.3621	0.0935	-0.2589	
-0.95648	0.076006	0.222284	6.37	45.92	-1.96	0.3744	0.0843	-0.2563	
-0.953918	0.08235	0.223626	5.53	47.32	-1.75	0.3712	0.0793	-0.2531	
-0.972096	0.102358	0.214964	4.9	48.93	-1.61	0.3607	0.0909	-0.2488	
-0.97661	0.103212	0.198006	2.87	51.52	-0.56	0.3779	0.0809	-0.2375	
-1.012234	0.08295999	0.177266	1.54	51.94	0.98	0.3826	0.0839	-0.2362	
-1.034316	0.09699	0.149572	2.24	48.23	0.07	0.3951	0.0791	-0.2312	
-1.02846	0.107116	0.135664	1.96	42.91	-0.14	0.4093	0.0768	-0.2207	
-1.045296	0.083448	0.136762	1.47	38.78	0.42	0.4003	0.0802	-0.2113	
-1.027728	0.07564	0.147498	1.54	34.23	-0.14	0.4049	0.0771	-0.2095	
-0.9943	0.093696	0.13054	2.52	30.87	-0.7	0.4036	0.086	-0.2075	
-0.988444	0.096258	0.122366	2.31	29.54	-0.07	0.4254	0.08639999	-0.207	
-1.020164	0.087474	0.124196	3.36	28.42	0.77	0.4118	0.09119999	-0.1964	
-0.996496	0.0854	0.10065	4.48	26.81	1.19	0.4255	0.0775	-0.1948	
-0.998692	0.092476	0.07259	4.2	28.21	1.12	0.421	0.0733	-0.1846	
-1.056886	0.091256	0.051728	4.13	27.86	1.54	0.4367	0.0866	-0.1912	
-1.036756	0.099796	0.036966	5.32	26.53	1.12	0.4382	0.0786	-0.1875	
-1.02968	0.103212	0.032208	4.13	26.18	1.19	0.424	0.07889999	-0.1936	
-1.020042	0.101992	0.02745	1.54	25.83	1.12	0.4389	0.0888	-0.1671	
-1.033218	0.102846	0.02562	0.77	25.97	1.4	0.4322	0.0756	-0.1746	
-1.028948	0.104798	0.023912	-0.14	24.5	1.75	0.4372	0.081	-0.1665	
-1.009062	0.104676	0.012322	-1.68	22.89	1.75	0.456	0.086	-0.1665	
-1.032974	0.09821	0.001464	-3.15	21.63	1.68	0.4399	0.063	-0.1689	
-1.03639	0.09455	-0.00854	-3.5	19.39	1.33	0.4557	0.0705	-0.165	
-1.03639	0.101382	-0.020008	-3.99	17.5	0.98	0.4513	0.0707	-0.1524	
-1.042978	0.112728	-0.028792	-4.48	15.68	0.77	0.4499	0.067	-0.1464	
-1.05713	0.104188	-0.0366	-4.69	11.97	1.4	0.4435	0.0676	-0.1537	
-1.059814	0.097844	-0.044042	-3.99	8.33	1.68	0.453	0.0818	-0.1562	
-1.048468	0.102358	-0.047336	-4.76	5.53	1.19	0.4562	0.0765	-0.1485	
-1.062864	0.09467199	-0.061732	-5.25	2.87	1.33	0.4346	0.0769	-0.142	
-1.071404	0.095038	-0.078202	-4.76	0.49	0.77	0.4422	0.0763	-0.1488	
-1.072624	0.101016	-0.085156	-4.97	-2.1	-0.07	0.4638	0.0775	-0.157	
-1.063962	0.097234	-0.084912	-4.27	-4.41	-0.14	0.4469	0.0663	-0.1407	
-1.072624	0.09357399	-0.095892	-3.71	-7.49	-0.35	0.4546	0.0686	-0.1464	
-1.063474	0.093452	-0.088694	-2.94	-10.78	-0.84	0.4451	0.0806	-0.1605	
-1.062376	0.094794	-0.082716	-2.59	-13.51	-1.4	0.459	0.0748	-0.1611	
-1.066768	0.09882	-0.07625	-2.24	-16.24	-1.61	0.4543	0.0747	-0.1612	
-1.060546	0.094794	-0.066978	-2.66	-19.18	-1.4	0.4467	0.0757	-0.1572	
-1.05957	0.087596	-0.052704	-2.8	-21.7	-1.26	0.4495	0.0653	-0.1604	
-1.058716	0.087352	-0.042212	-3.29	-23.59	-1.75	0.4509	0.0724	-0.1696	
-1.060912	0.088206	-0.029768	-3.15	-26.25	-1.82	0.4496	0.0846	-0.1693	
-1.05347	0.091378	-0.012322	-2.73	-28.42	-1.75	0.4355	0.0834	-0.1752	
-1.052738	0.101504	-0.002684	-2.24	-30.8	-1.54	0.437	0.0787	-0.1733	
-1.047126	0.092598	0.00976	-2.73	-33.46	-1.12	0.429	0.0826	-0.1838	
-1.049444	0.085278	0.032086	-2.52	-36.26	-0.84	0.4352	0.0895	-0.19	
-1.016504	0.087108	0.056608	-2.45	-38.43	-1.19	0.4243	0.0893	-0.1903	
-1.02297	0.092842	0.070882	-2.45	-40.32	-1.26	0.4132	0.0917	-0.2007	
-1.01626	0.097112	0.087718	-2.94	-43.19	-1.82	0.4131	0.0889	-0.2033	
-1.010038	0.096258	0.10858	-3.57	-45.57	-1.89	0.4115	0.0876	-0.206	
-1.012478	0.093208	0.127246	-4.06	-47.46	-1.54	0.4051	0.088	-0.2119	
-0.996374	0.092476	0.152256	-4.2	-49.28	-1.47	0.4157	0.08769999	-0.2216	
-0.99735	0.092232	0.172264	-4.34	-50.4	-1.68	0.391	0.08329999	-0.2132	
-0.98454	0.088328	0.194346	-6.02	-51.45	-1.75	0.3938	0.0862	-0.2262	
-0.971364	0.084302	0.211548	-6.44	-51.66	-1.89	0.3874	0.0968	-0.2416	
-0.981002	0.087718	0.230824	-6.86	-51.38	-2.38	0.3795	0.09079999	-0.244	
-0.967094	0.078568	0.24949	-7.56	-52.36	-2.17	0.3687	0.0969	-0.2463	
-0.950502	0.074298	0.264008	-7.14	-52.5	-2.59	0.3589	0.0951	-0.2606	
-0.948306	0.068686	0.282308	-6.79	-52.5	-3.57	0.3622	0.0995	-0.2581	
-0.946598	0.066856	0.305244	-7.56	-53.2	-3.85	0.3368	0.0895	-0.2705	
-0.924516	0.06527	0.33184	-7.35	-53.48	-4.34	0.3384	0.0927	-0.2708	
-0.921466	0.07259	0.35563	-7.42	-53.06	-4.34	0.3413	0.0988	-0.2855	
-0.908168	0.070028	0.386862	-7.49	-52.99	-3.99	0.3338	0.0975	-0.2742	
-0.886452	0.065758	0.413214	-7.28	-53.27	-3.71	0.3271	0.1028	-0.2976	
-0.861686	0.049776	0.447008	-7.91	-52.29	-3.22	0.3194	0.1055	-0.2952	
-0.861442	0.037698	0.471286	-7.63	-49.56	-2.73	0.31	0.1107	-0.303	
-0.853756	0.02684	0.490196	-8.05	-47.04	-2.24	0.2958	0.1064	-0.3086	
-0.834602	0.028182	0.5002	-7.14	-46.2	-1.96	0.3037	0.0976	-0.2962	
-0.828502	0.031232	0.507764	-6.44	-44.1	-1.26	0.2927	0.1129	-0.3135	
-0.829234	0.030134	0.526918	-6.58	-41.09	0.14	0.2753	0.1068	-0.3176	
-0.80886	0.028182	0.54351	-4.62	-38.08	1.12	0.2752	0.1056	-0.3204	
-0.80947	0.036356	0.556442	-2.87	-34.3	1.89	0.2674	0.1093	-0.328	
-0.79849	0.044042	0.567788	-1.26	-31.85	2.59	0.2597	0.1101	-0.3226	
-0.78995	0.033794	0.5856	-1.54	-29.19	3.64	0.2549	0.1123	-0.33	
-0.793976	0.027938	0.580476	3.57	-25.69	4.06	0.2531	0.1083	-0.3368	
-0.798734	0.031232	0.580232	3.64	-22.54	4.9	0.2549	0.119	-0.3363	
-0.7991	0.034282	0.584136	2.73	-20.02	5.11	0.2483	0.1155	-0.3475	
-0.803492	0.048556	0.575596	2.45	-18.76	5.25	0.2436	0.1106	-0.3457	
-0.797148	0.05307	0.56364	1.61	-18.06	5.53	0.2312	0.1053	-0.3412	
-0.805932	0.049288	0.568642	0.07	-15.4	5.6	0.2374	0.1069	-0.3413	
-0.812642	0.055632	0.573034	0.14	-13.16	4.76	0.2343	0.1036	-0.3396	
-0.816302	0.049898	0.576816	0.28	-12.11	4.13	0.2376	0.1078	-0.3342	
-0.811788	0.041968	0.571692	-0.14	-11.06	4.06	0.2281	0.1066	-0.34	
-0.820328	0.05856	0.573278	0.07	-9.87	3.22	0.2404	0.1059	-0.3454	
-0.813374	0.058926	0.577304	-0.35	-9.59	3.64	0.2328	0.1066	-0.3385	
-0.803858	0.063928	0.5795	-0.07	-9.38	3.85	0.2204	0.1128	-0.3422	
-0.805322	0.069418	0.583282	0.49	-8.89	4.2	0.2327	0.109	-0.3472	
-0.804346	0.07442	0.586088	0.98	-8.61	4.34	0.22	0.1029	-0.3498	
-0.799466	0.07564	0.58987	1.26	-8.33	4.34	0.2172	0.1099	-0.3449	
-0.795806	0.077226	0.593774	1.47	-7.56	3.99	0.2214	0.09519999	-0.349	
-0.79788	0.081008	0.595848	0.56	-6.65	3.85	0.2172	0.1067	-0.3431	
-0.797026	0.08357	0.595116	0.63	-5.88	4.13	0.2203	0.1051	-0.3415	
-0.796172	0.08479	0.59414	0.28	-5.32	4.55	0.2247	0.09959999	-0.3465	
-0.791658	0.089426	0.600362	0.14	-4.55	4.76	0.2171	0.1036	-0.3428	
-0.797148	0.096258	0.596824	0.14	-4.13	5.04	0.2248	0.0993	-0.3437	
-0.797758	0.095404	0.595482	0.21	-4.2	5.11	0.2076	0.094	-0.3407	
-0.798856	0.091988	0.594628	0	-4.27	4.83	0.2089	0.1086	-0.3634	
-0.793732	0.090646	0.598288	0	-4.55	4.27	0.2201	0.1026	-0.3469	
-0.790438	0.092964	0.60329	0.14	-4.41	3.99	0.2202	0.1006	-0.3425	
-0.787388	0.094428	0.607682	0.42	-3.92	3.36	0.1968	0.1021	-0.3474	
-0.785802	0.093208	0.607682	0.49	-3.43	2.73	0.2153	0.0964	-0.3479	
-0.78812	0.09211	0.607804	0.7	-3.15	2.03	0.2074	0.1034	-0.3573	
-0.784704	0.100162	0.613538	1.26	-3.15	0.77	0.2124	0.1035	-0.3429	
-0.779458	0.1037	0.613782	1.33	-2.94	0.07	0.2137	0.0999	-0.3525	
-0.780556	0.10431	0.615246	0.98	-2.38	-0.49	0.2186	0.1058	-0.3487	
-0.784582	0.102724	0.609756	0.7	-2.03	-1.19	0.2074	0.09519999	-0.3522	
-0.783484	0.108214	0.612684	-0.21	-2.17	-2.03	0.1981	0.1047	-0.3576	
-0.780556	0.114558	0.614514	-1.26	-2.17	-2.87	0.2027	0.0985	-0.3555	
-0.789218	0.114192	0.61061	-1.75	-2.1	-3.5	0.2091	0.101	-0.3485	
-0.79666	0.11956	0.609756	-6.16	-3.36	-2.94	0.2073	0.09559999	-0.3565	
-0.78202	0.116632	0.61549	-3.85	-3.57	-3.99	0.2059	0.098	-0.3497	
-0.782142	0.127246	0.612928	-3.5	-3.5	-7	0.2015	0.1138	-0.3555	
-0.786534	0.136884	0.611342	-4.41	-3.29	-9.52	0.209	0.0951	-0.3507	
-0.786778	0.13908	0.612196	-5.11	-3.5	-12.6	0.2058	0.1002	-0.357	
-0.784704	0.129076	0.612318	-4.9	-3.92	-16.1	0.1955	0.1108	-0.3426	
-0.792512	0.127002	0.605974	-1.89	-4.69	-19.67	0.2042	0.1053	-0.3618	
-0.80825	0.133102	0.592432	0.77	-7.07	-24.01	0.1984	0.117	-0.3573	
-0.802882	0.127856	0.600362	3.29	-9.73	-28.91	0.1952	0.1072	-0.3522	
-0.788974	0.157014	0.599264	0.77	-9.52	-33.67	0.1999	0.1154	-0.3571	
-0.7991	0.148718	0.612562	-3.01	-8.26	-36.96	0.2	0.1249	-0.3595	
-0.77653	0.128588	0.613782	-6.86	-7.14	-41.37	0.2013	0.1162	-0.3643	
-0.774944	0.123586	0.611098	-9.59	-6.3	-45.22	0.1953	0.1269	-0.3654	
-0.76799	0.117974	0.611586	-12.46	-5.88	-48.65	0.2001	0.1296	-0.3613	
-0.766404	0.111508	0.609634	-15.68	-5.81	-50.75	0.1988	0.1301	-0.3515	
-0.747738	0.089548	0.626714	-21.21	-5.11	-52.5	0.1893	0.1356	-0.3621	
-0.732	0.06344	0.625006	-27.02	-5.04	-53.27	0.1881	0.1443	-0.3573	
-0.721386	0.043188	0.617442	-29.82	-5.39	-54.46	0.1879	0.1486	-0.3691	
-0.72834	0.026352	0.62403	-32.2	-5.81	-56.77	0.182	0.1535	-0.3583	
-0.717604	0.003294	0.628544	-35.49	-4.97	-57.75	0.1838	0.1674	-0.3596	
-0.695888	-0.031964	0.628788	-39.2	-3.78	-58.8	0.1887	0.1882	-0.3671	
-0.687714	-0.069662	0.624396	-42.7	-3.01	-59.5	0.1919	0.1849	-0.3639	
-0.691374	-0.099308	0.61549	-44.94	-2.94	-60.76	0.184	0.1885	-0.3715	
-0.662704	-0.132004	0.62098	-46.69	-2.24	-62.02	0.1828	0.2034	-0.3673	
-0.661484	-0.162748	0.61061	-48.86	-0.91	-63.21	0.1799	0.2178	-0.3744	
-0.671	-0.223504	0.598044	-52.01	0.07	-64.54	0.1758	0.2234	-0.3551	
-0.66673	-0.292922	0.591334	-53.76	0.49	-65.17	0.1742	0.2388	-0.3708	
-0.675636	-0.345626	0.582672	-53.55	1.19	-66.01	0.1681	0.2395	-0.3639	
-0.67954	-0.365268	0.572302	-54.81	1.26	-67.55	0.1625	0.2637	-0.3621	
-0.668438	-0.367464	0.552294	-54.81	0.56	-67.97	0.164	0.2655	-0.3651	
-0.669048	-0.404918	0.53619	-58.87	0.91	-65.66	0.1646	0.2862	-0.3571	
-0.679418	-0.4697	0.525698	-57.96	0.56	-62.16	0.1539	0.292	-0.3565	
-0.684176	-0.532652	0.520452	-54.11	-0.21	-59.43	0.1477	0.3084	-0.3681	
-0.670146	-0.554368	0.500444	-49.91	-1.12	-58.1	0.1593	0.3258	-0.3567	
-0.65453	-0.562664	0.48129	-49.28	-1.96	-56.91	0.1435	0.3096	-0.3513	
-0.624152	-0.57828	0.488366	-50.75	-2.45	-54.74	0.152	0.3352	-0.345	
-0.62342	-0.61427	0.482876	-47.67	-3.08	-52.92	0.1444	0.3411	-0.3443	
-0.617198	-0.63257	0.461038	-47.18	-3.01	-50.54	0.1305	0.3418	-0.339	
-0.621102	-0.639646	0.437614	-46.55	-4.69	-49.28	0.1246	0.3505	-0.3357	
-0.609512	-0.668438	0.437492	-45.71	-5.46	-46.97	0.1203	0.367	-0.3331	
-0.612318	-0.697718	0.435052	-42.42	-6.65	-46.2	0.1187	0.3705	-0.3377	
-0.610976	-0.71004	0.421388	-41.09	-8.4	-44.66	0.1127	0.386	-0.3407	
-0.596702	-0.727974	0.412116	-39.9	-9.24	-42.49	0.1052	0.3833	-0.3307	
-0.564616	-0.748226	0.422974	-36.96	-9.8	-40.74	0.0959	0.391	-0.3331	
-0.562176	-0.750056	0.416386	-32.34	-9.59	-39.2	0.0948	0.3992	-0.3239	
-0.551074	-0.745542	0.404796	-28.7	-10.64	-37.87	0.0821	0.3934	-0.3293	
-0.532774	-0.762134	0.401868	-26.81	-10.15	-37.03	0.0796	0.4109	-0.3211	
-0.507154	-0.769454	0.389302	-24.43	-9.38	-34.72	0.0858	0.4128	-0.324	
-0.51789	-0.783362	0.387594	-23.31	-9.1	-33.6	0.0685	0.4099	-0.3284	
-0.509472	-0.773846	0.382104	-23.24	-10.15	-33.04	0.0706	0.424	-0.3169	
-0.499712	-0.768966	0.37637	-22.12	-11.2	-31.99	0.0687	0.409	-0.3198	
-0.475678	-0.764452	0.408212	-22.26	-12.18	-29.82	0.0536	0.4151	-0.3079	
-0.450912	-0.767502	0.41968	-22.68	-11.2	-24.22	0.0518	0.4178	-0.3196	
-0.454816	-0.788242	0.407236	-22.68	-10.43	-17.43	0.0522	0.4359	-0.317	
-0.430904	-0.805566	0.409066	-21.42	-10.36	-15.61	0.0427	0.4248	-0.3148	
-0.413946	-0.806176	0.409798	-20.16	-10.08	-13.23	0.0495	0.4309	-0.2981	
-0.410164	-0.817278	0.411018	-21.49	-9.59	-9.59	0.0444	0.4292	-0.3123	
-0.401868	-0.823134	0.410286	-20.3	-9.59	-7.49	0.0405	0.4493	-0.3001	
-0.412116	-0.841068	0.398452	-18.76	-7.91	-4.69	0.0418	0.4388	-0.3019	
-0.411994	-0.861808	0.4026	-18.69	-7.28	-1.89	0.031	0.45	-0.3089	
-0.38125	-0.852902	0.397476	-16.73	-6.79	-1.33	0.0422	0.4555	-0.3006	
-0.388326	-0.87047	0.385032	-16.17	-3.78	-0.98	0.0311	0.4476	-0.3001	
-0.413824	-0.858148	0.366	-16.8	-4.2	0.84	0.0361	0.4582	-0.2982	
-0.410408	-0.85217	0.3782	-13.02	-6.3	1.54	0.0374	0.454	-0.302	
-0.383934	-0.858026	0.377346	-10.01	-6.72	-0.42	0.0298	0.4551	-0.2994	
-0.387106	-0.858758	0.367952	-7.91	-6.79	-1.82	0.0328	0.447	-0.2943	
-0.396134	-0.858392	0.368562	-5.74	-7	-2.52	0.0342	0.451	-0.3032	
-0.401624	-0.863272	0.37515	-3.36	-7.21	-2.52	0.025	0.4536	-0.3008	
-0.394792	-0.86681	0.3782	-0.98	-7.42	-2.66	0.0223	0.4537	-0.2867	
-0.391254	-0.875106	0.373076	1.05	-7	-2.31	0.0235	0.4516	-0.2964	
-0.39223	-0.866322	0.373198	3.57	-6.58	-1.82	0.0284	0.4527	-0.2907	
-0.38857	-0.874984	0.388448	6.3	-6.51	-0.49	0.0235	0.4482	-0.2933	
-0.38247	-0.857294	0.387594	8.4	-5.39	1.47	0.0266	0.4534	-0.2979	
-0.393816	-0.859978	0.392718	10.22	-3.92	3.43	0.0204	0.4451	-0.293	
-0.39223	-0.851194	0.398208	11.97	-3.08	6.65	0.0294	0.4418	-0.3039	
-0.392962	-0.864736	0.406016	13.23	-3.15	10.57	0.0234	0.4473	-0.2989	
-0.4026	-0.876204	0.406626	15.33	-2.45	12.67	0.0251	0.4515	-0.2949	
-0.396256	-0.855586	0.412482	16.8	-2.1	15.12	0.0297	0.4502	-0.2961	
-0.395402	-0.843142	0.430416	17.01	-1.61	18.06	0.0218	0.4458	-0.3002	
-0.40382	-0.854244	0.440298	17.64	-0.42	21.98	0.0326	0.4463	-0.3028	
-0.405772	-0.864858	0.43981	20.65	1.54	24.36	0.0198	0.4377	-0.3108	
-0.403698	-0.84607	0.435662	23.1	2.94	26.88	0.0337	0.4364	-0.3104	
-0.420656	-0.83692	0.435296	24.5	3.64	28.07	0.0352	0.4319	-0.3113	
-0.439444	-0.818254	0.42944	26.04	3.29	29.61	0.046	0.4341	-0.3156	
-0.43676	-0.788486	0.44103	28.21	3.29	32.27	0.0475	0.4309	-0.3138	
-0.451522	-0.78141	0.44652	30.87	5.04	35.21	0.0552	0.4284	-0.3176	
-0.447984	-0.767014	0.45018	33.53	6.09	37.38	0.0659	0.421	-0.3181	
-0.458842	-0.759206	0.443958	36.19	6.3	36.75	0.058	0.4198	-0.3225	
-0.474946	-0.730414	0.451034	36.82	6.37	36.33	0.0718	0.4089	-0.3183	
-0.503494	-0.701134	0.467138	37.8	4.69	36.05	0.0681	0.4116	-0.3456	
-0.524478	-0.679174	0.46238	36.61	3.71	36.47	0.0747	0.4135	-0.3328	
-0.539606	-0.671122	0.468114	36.26	4.34	36.82	0.0836	0.3987	-0.3355	
-0.562786	-0.684176	0.465186	37.59	3.99	37.45	0.0739	0.3867	-0.3403	
-0.562908	-0.66063	0.477386	39.27	3.15	37.8	0.0878	0.3806	-0.338	
-0.580232	-0.637328	0.470554	37.24	2.59	39.48	0.0891	0.3701	-0.3398	
-0.595116	-0.632326	0.482876	36.61	0.21	40.46	0.1013	0.3748	-0.3527	
-0.611464	-0.638304	0.485072	38.57	-2.17	40.95	0.1044	0.3651	-0.3475	
-0.61061	-0.611952	0.48983	40.6	-3.57	42.91	0.107	0.359	-0.3625	
-0.61549	-0.599386	0.507276	39.13	-5.25	44.24	0.1102	0.362	-0.3613	
-0.631716	-0.572424	0.506056	37.8	-5.25	46.41	0.1116	0.3443	-0.3524	
-0.611708	-0.555344	0.539606	38.99	-6.79	48.93	0.1131	0.336	-0.3459	
-0.618296	-0.55937	0.546804	40.04	-7.21	51.24	0.1192	0.3386	-0.3546	
-0.631716	-0.534726	0.547414	39.48	-6.23	52.71	0.1203	0.3254	-0.3604	
-0.625128	-0.517036	0.56547	40.88	-6.02	55.65	0.1187	0.3223	-0.3601	
-0.626592	-0.494832	0.573278	42.77	-5.32	59.36	0.12	0.3133	-0.3621	
-0.633302	-0.479826	0.58926	43.33	-6.72	61.11	0.1338	0.3078	-0.3655	
-0.62403	-0.46238	0.601948	42	-7	63	0.1258	0.297	-0.3661	
-0.630862	-0.437248	0.601826	43.05	-6.37	65.87	0.127	0.285	-0.3678	
-0.633668	-0.411628	0.61183	42.42	-6.02	69.3	0.1407	0.2699	-0.3675	
-0.652822	-0.398208	0.62525	43.12	-6.58	72.66	0.1422	0.2718	-0.3704	
-0.646356	-0.359778	0.636596	47.74	-6.86	76.09	0.1433	0.2423	-0.3662	
-0.63379	-0.301584	0.63928	48.86	-6.3	79.03	0.165	0.2479	-0.3719	
-0.633302	-0.264862	0.639646	46.76	-5.6	82.95	0.1432	0.2442	-0.3707	
-0.646844	-0.250222	0.63867	48.02	-3.92	86.59	0.143	0.2386	-0.3758	
-0.65087	-0.224724	0.632448	52.08	-6.3	88.55	0.1515	0.212	-0.383	
-0.639158	-0.190076	0.63928	52.64	-7.07	89.04	0.1487	0.2173	-0.3751	
-0.634278	-0.143472	0.635742	54.04	-7.63	90.16	0.1559	0.1983	-0.3831	
-0.628788	-0.106628	0.632448	53.06	-7	92.05	0.1528	0.1764	-0.364	
-0.613172	-0.074542	0.634034	53.55	-6.51	92.82	0.1586	0.1601	-0.368	
-0.608414	-0.016836	0.634522	53.48	-5.46	92.19	0.1554	0.1586	-0.3694	
-0.637206	0.055632	0.638304	49.21	-4.48	90.58	0.1568	0.1495	-0.3699	
-0.619638	0.124074	0.642574	48.79	-4.69	90.58	0.1596	0.1423	-0.3734	
-0.615368	0.152134	0.640256	51.24	-4.06	90.37	0.1592	0.124	-0.3745	
-0.604266	0.183854	0.630496	55.44	-3.85	88.69	0.16	0.0922	-0.3772	
-0.616954	0.237778	0.63806	52.5	-1.82	87.5	0.1629	0.0714	-0.3681	
-0.625494	0.295118	0.624518	50.33	-0.77	87.22	0.1611	0.0657	-0.3732	
-0.615734	0.32879	0.610244	51.17	-0.84	85.82	0.1615	0.0609	-0.3557	
-0.619516	0.358924	0.596946	54.53	-1.82	84.07	0.1484	0.0333	-0.3577	
-0.630984	0.417606	0.60756	52.99	-1.4	84.21	0.1406	0.0297	-0.3547	
-0.634644	0.454328	0.596336	50.61	-2.59	84.28	0.1466	0.0227	-0.3596	
-0.601338	0.486292	0.577548	49.91	-4.27	85.05	0.1463	-0.0059	-0.3483	
-0.601826	0.490318	0.58621	51.03	-4.9	84.28	0.1336	-0.0154	-0.3477	
-0.592432	0.533994	0.607072	49.63	-6.44	82.53	0.1367	-0.0235	-0.3426	
-0.586332	0.593164	0.57462	46.55	-9.45	80.36	0.121	-0.0348	-0.3405	
-0.532774	0.595482	0.553392	44.73	-11.97	78.47	0.1161	-0.0391	-0.3445	
-0.541314	0.610732	0.562054	47.88	-13.79	77.63	0.1081	-0.0634	-0.3324	
-0.550098	0.626226	0.554734	47.53	-15.05	74.34	0.1005	-0.0526	-0.335	
-0.525088	0.618784	0.56364	50.61	-17.22	69.09	0.1064	-0.0726	-0.333	
-0.501908	0.622688	0.561444	48.65	-18.13	63.7	0.0876	-0.0907	-0.3246	
-0.494222	0.641842	0.592554	47.67	-19.74	58.24	0.0879	-0.0923	-0.3088	
-0.461404	0.656726	0.578036	46.06	-21.28	53.13	0.0781	-0.1069	-0.3176	
-0.459818	0.683322	0.58682	49	-22.12	49	0.0515	-0.1085	-0.3223	
-0.440908	0.740174	0.57401	47.95	-22.68	43.19	0.0529	-0.1194	-0.3199	
-0.435052	0.735782	0.573644	46.83	-22.26	41.51	0.0543	-0.1404	-0.3093	
-0.421388	0.744444	0.560224	44.52	-22.26	39.34	0.0296	-0.1317	-0.3093	
-0.410774	0.748348	0.544974	45.15	-23.45	36.4	0.0387	-0.1508	-0.3002	
-0.385764	0.759572	0.575474	45.15	-25.2	31.85	0.0245	-0.1519	-0.3075	
-0.382836	0.8052	0.560834	46.9	-25.41	29.54	0.0215	-0.1689	-0.2917	
-0.355752	0.811178	0.559248	40.32	-24.5	23.73	0.0092	-0.1651	-0.2867	
-0.348432	0.800076	0.557418	39.2	-23.73	20.72	0.0138	-0.1713	-0.2846	
-0.341966	0.82106	0.55449	41.37	-22.05	19.18	-0.0019	-0.184	-0.2838	
-0.320372	0.860832	0.541192	39.41	-21.84	16.87	-0.0065	-0.1942	-0.2744	
-0.297558	0.82289	0.53375	34.16	-20.51	15.12	-0.0143	-0.2028	-0.2666	
-0.295728	0.810202	0.523746	31.29	-18.41	14.14	-0.0145	-0.2101	-0.2702	
-0.286578	0.813618	0.520452	29.19	-15.54	12.67	-0.0114	-0.2036	-0.2736	
-0.290238	0.826916	0.51484	29.82	-14.77	11.76	-0.0111	-0.1978	-0.2699	
-0.269986	0.835212	0.504226	29.54	-13.65	9.94	-0.0251	-0.2098	-0.2605	
-0.266448	0.88023	0.499834	29.96	-11.2	8.61	-0.0221	-0.2193	-0.2567	
-0.27084	0.903044	0.482144	24.92	-7.49	9.03	-0.0315	-0.2277	-0.2519	
-0.25254	0.911828	0.461282	20.93	-4.48	7.84	-0.0329	-0.2149	-0.2574	
-0.263154	0.88389	0.448594	17.08	-0.35	9.31	-0.0316	-0.2241	-0.2565	
-0.263154	0.916098	0.437858	15.75	1.68	9.8	-0.0437	-0.224	-0.2454	
-0.272914	0.923296	0.422486	11.69	2.94	10.29	-0.0332	-0.2388	-0.248	
-0.26718	0.890722	0.428708	7.28	4.2	11.62	-0.0407	-0.2301	-0.2448	
-0.266326	0.891088	0.424926	6.58	5.11	11.62	-0.0361	-0.2383	-0.2382	
-0.257176	0.901702	0.416386	4.83	6.23	11.2	-0.0316	-0.2324	-0.25	
-0.26596	0.89426	0.416996	2.73	6.93	11.83	-0.041	-0.2391	-0.2468	
-0.261568	0.887428	0.419192	1.54	7.42	11.9	-0.0422	-0.2354	-0.2386	
-0.262544	0.876814	0.416996	1.75	7.35	10.71	-0.0407	-0.2484	-0.2302	
-0.259616	0.892918	0.404918	3.22	6.44	9.31	-0.0345	-0.2384	-0.2367	
-0.259738	0.899628	0.405528	2.66	5.53	8.33	-0.0424	-0.2428	-0.2408	
-0.271572	0.897676	0.408822	2.1	5.18	7.98	-0.0469	-0.2388	-0.2356	
-0.265472	0.906704	0.418704	2.31	4.06	6.86	-0.0374	-0.2261	-0.238	
-0.2562	0.915244	0.424804	1.33	4.13	6.02	-0.0483	-0.233	-0.2333	
-0.262056	0.916586	0.419558	0	4.55	4.83	-0.0547	-0.2438	-0.2338	
-0.268888	0.913658	0.411506	-1.82	4.48	3.64	-0.0441	-0.2439	-0.245	
-0.287066	0.89792	0.410652	-2.66	4.06	2.8	-0.0532	-0.2385	-0.24	
-0.280234	0.895724	0.412848	-2.8	2.94	0.63	-0.0378	-0.2342	-0.2486	
-0.269132	0.897188	0.41663	-3.01	2.87	-1.12	-0.047	-0.2351	-0.2416	
-0.279624	0.912804	0.414434	-2.87	2.73	-2.52	-0.0332	-0.2439	-0.2433	
-0.290238	0.90524	0.413824	-3.43	1.89	-3.85	-0.058	-0.2365	-0.246	
-0.290848	0.90158	0.420412	-3.15	1.47	-5.25	-0.0406	-0.2274	-0.2407	
-0.28365	0.899384	0.425536	-4.2	1.19	-6.79	-0.041	-0.2391	-0.2468	
-0.282552	0.882914	0.426268	-4.76	1.68	-8.12	-0.0345	-0.2267	-0.2464	
-0.287676	0.875106	0.431636	-4.62	0.84	-10.08	-0.0362	-0.2361	-0.2455	
-0.289628	0.88999	0.435174	-4.34	0.56	-12.53	-0.0377	-0.2364	-0.2427	
-0.28609	0.90524	0.43432	-5.67	0.56	-13.58	-0.0218	-0.2289	-0.2373	
-0.29524	0.889136	0.430538	-8.19	0.91	-13.02	-0.0376	-0.2253	-0.2466	
-0.297436	0.880962	0.431636	-8.75	0.98	-13.3	-0.0286	-0.2386	-0.2494	
-0.3172	0.906948	0.426878	-8.89	0.07	-13.79	-0.0236	-0.2279	-0.2474	
-0.300608	0.889136	0.43249	-11.06	-0.07	-14.84	-0.0194	-0.2378	-0.2549	
-0.291702	0.885232	0.441762	-11.13	0.42	-15.89	-0.0236	-0.2298	-0.2444	
-0.308782	0.896212	0.444934	-11.83	0.56	-17.15	-0.0252	-0.2214	-0.2523	
-0.324032	0.893406	0.44652	-13.37	-0.14	-18.62	-0.0205	-0.223	-0.2507	
-0.31842	0.895724	0.449082	-14.63	-1.19	-20.58	-0.0269	-0.2276	-0.2518	
-0.32208	0.896456	0.45628	-17.43	-1.19	-22.05	-0.0129	-0.2202	-0.2607	
-0.326716	0.873886	0.46055	-20.16	-0.14	-23.66	-0.0113	-0.219	-0.2579	
-0.324398	0.864492	0.464576	-21.21	0.35	-25.48	-0.0112	-0.2125	-0.2614	
-0.32635	0.853512	0.46238	-23.24	0.98	-27.37	-0.0144	-0.2123	-0.2643	
-0.339282	0.83326	0.473726	-24.08	2.03	-28.98	-0.0082	-0.2088	-0.2673	
-0.346114	0.828624	0.478362	-24.78	3.5	-29.89	0.0056	-0.203	-0.2761	
-0.3599	0.82228	0.492758	-25.62	4.62	-30.52	0.009	-0.191	-0.2729	
-0.365024	0.807518	0.50081	-26.67	5.18	-32.13	0.009099999	-0.1879	-0.2732	
-0.376736	0.786168	0.508252	-28.7	6.3	-33.25	-0.0031	-0.1887	-0.2677	
-0.38857	0.77226	0.509228	-30.17	6.44	-34.37	0.0058	-0.1923	-0.2757	
-0.40321	0.759694	0.515084	-30.8	6.79	-35.49	0.0308	-0.1803	-0.2833	
-0.405284	0.746518	0.52277	-31.85	6.58	-37.52	0.0245	-0.1801	-0.2863	
-0.41114	0.733952	0.538142	-31.71	7.35	-38.85	0.0324	-0.1722	-0.2869	
-0.42334	0.729438	0.538874	-32.55	9.1	-38.92	0.0388	-0.1627	-0.2891	
-0.447862	0.711626	0.526552	-32.55	9.38	-38.92	0.0468	-0.1551	-0.2868	
-0.472018	0.701378	0.518622	-31.78	9.03	-39.06	0.042	-0.1497	-0.2959	
-0.478118	0.6771	0.529724	-31.99	8.4	-39.83	0.0482	-0.1479	-0.2974	
-0.496174	0.663436	0.53436	-29.89	7.56	-41.44	0.0527	-0.1471	-0.3045	
-0.50874	0.657824	0.540704	-29.05	5.88	-42.7	0.0624	-0.1169	-0.3128	
-0.51362	0.64477	0.56242	-29.33	3.71	-42.28	0.0622	-0.1394	-0.3021	
-0.510936	0.633546	0.58255	-30.38	1.4	-42.42	0.0639	-0.12	-0.3124	
-0.508374	0.637938	0.588528	-31.71	0.84	-43.05	0.064	-0.1235	-0.3078	
-0.523258	0.630862	0.577304	-33.81	0.7	-42.42	0.078	-0.1165	-0.3139	
-0.542656	0.600362	0.576938	-37.17	-0.35	-41.51	0.0872	-0.1157	-0.3194	
-0.55022	0.601338	0.59048	-36.4	-0.7	-42	0.0784	-0.09339999	-0.3146	
-0.552904	0.586576	0.58438	-41.65	-1.4	-43.4	0.0906	-0.0922	-0.3244	
-0.573522	0.556442	0.594018	-41.93	-2.1	-43.82	0.0923	-0.0707	-0.3392	
-0.585356	0.526552	0.602192	-41.16	-3.43	-45.22	0.0911	-0.0622	-0.3329	
-0.588894	0.524844	0.612684	-39.48	-5.74	-48.65	0.0972	-0.0603	-0.3358	
-0.581452	0.508862	0.611708	-41.86	-6.16	-53.2	0.1053	-0.0445	-0.3385	
-0.593652	0.470676	0.625494	-46.06	-7.28	-56.42	0.1024	-0.0356	-0.3366	
-0.595604	0.463966	0.640378	-46.48	-8.26	-58.8	0.1006	-0.0394	-0.3448	
-0.597312	0.456402	0.644648	-50.05	-8.96	-62.44	0.1026	-0.0197	-0.3424	
-0.599264	0.438224	0.647332	-49.63	-8.54	-66.01	0.101	-0.0063	-0.3536	
-0.607804	0.403454	0.670878	-48.72	-8.19	-67.48	0.1072	-0.0059	-0.3563	
-0.625982	0.377712	0.662704	-48.23	-8.61	-69.02	0.1028	0.006	-0.3547	
-0.62708	0.359168	0.664046	-48.23	-9.8	-71.33	0.1092	0.0154	-0.3555	
-0.625128	0.32513	0.664778	-48.44	-10.15	-73.43	0.1139	0.0304	-0.3667	
-0.626104	0.29158	0.665998	-49.49	-11.06	-75.53	0.1126	0.0412	-0.3678	
-0.616466	0.262544	0.677832	-49.91	-11.9	-76.65	0.1077	0.0485	-0.38	
-0.603168	0.236192	0.690886	-51.94	-11.48	-79.24	0.1019	0.0634	-0.3772	
-0.593164	0.197152	0.700158	-51.24	-11.55	-81.48	0.1147	0.07229999	-0.3721	
-0.58133	0.163602	0.70028	-54.6	-11.13	-83.65	0.1087	0.086	-0.3721	
-0.576206	0.144936	0.695766	-57.19	-10.57	-85.61	0.1041	0.099	-0.3806	
-0.568276	0.120902	0.696132	-58.59	-10.5	-85.75	0.1026	0.1037	-0.3825	
-0.538508	0.088694	0.692594	-61.18	-10.57	-85.61	0.1078	0.1301	-0.3848	
-0.545462	0.050386	0.701256	-58.94	-11.62	-85.82	0.1035	0.1403	-0.3802	
-0.540338	0.009638	0.702354	-59.01	-12.46	-85.68	0.0942	0.1548	-0.3889	
-0.529602	-0.025864	0.700768	-61.46	-12.46	-86.59	0.0928	0.156	-0.3862	
-0.532652	-0.057218	0.696742	-62.79	-13.02	-85.89	0.1042	0.1757	-0.3821	
-0.503006	-0.107116	0.69601	-62.86	-13.51	-85.89	0.0887	0.185	-0.3862	
-0.497882	-0.17019	0.709552	-59.36	-13.72	-85.4	0.0779	0.1927	-0.3886	
-0.486414	-0.235216	0.72224	-55.79	-13.65	-85.05	0.0872	0.2013	-0.3963	
-0.499224	-0.30744	0.737612	-55.93	-13.3	-84.91	0.0828	0.2019	-0.388	
-0.474092	-0.382104	0.721752	-58.31	-11.76	-84.35	0.0679	0.2439	-0.398	
-0.481534	-0.417606	0.709918	-60.48	-7	-84.49	0.07889999	0.2434	-0.3906	
-0.465796	-0.463844	0.709552	-62.09	-4.41	-80.71	0.0698	0.249	-0.387	
-0.467016	-0.497882	0.707356	-64.26	-1.61	-76.86	0.062	0.2539	-0.3919	
-0.47092	-0.560346	0.690398	-68.6	1.26	-69.86	0.0563	0.2668	-0.3848	
-0.443104	-0.600484	0.693204	-71.75	6.23	-62.65	0.0488	0.2872	-0.3911	
-0.471896	-0.633912	0.68137	-68.6	7.63	-58.17	0.0571	0.2898	-0.3699	
-0.46787	-0.659532	0.661728	-66.08	10.99	-54.04	0.0514	0.3009	-0.3597	
-0.457988	-0.674782	0.649284	-65.24	15.33	-48.86	0.0392	0.3212	-0.3662	
-0.459452	-0.686128	0.637572	-61.25	14.98	-42	0.0504	0.3369	-0.3674	
-0.45201	-0.686006	0.61244	-57.47	16.24	-33.88	0.0473	0.3353	-0.3673	
-0.41663	-0.643062	0.591578	-53.97	17.43	-30.38	0.0396	0.3414	-0.368	
-0.454084	-0.68503	0.596214	-47.39	16.94	-27.23	0.051	0.3478	-0.3542	
-0.454206	-0.713334	0.5856	-47.53	16.24	-22.54	0.0449	0.3522	-0.3533	
-0.448472	-0.69113	0.563396	-45.22	15.54	-18.34	0.0514	0.3593	-0.3467	
-0.461038	-0.690032	0.567178	-45.36	16.24	-16.24	0.0468	0.3673	-0.3504	
-0.462258	-0.707966	0.542656	-47.46	15.33	-15.4	0.05	0.3735	-0.3509	
-0.477142	-0.721386	0.523502	-48.16	15.61	-12.6	0.0488	0.3803	-0.3431	
-0.471042	-0.721264	0.523746	-43.19	12.04	-10.78	0.0521	0.3883	-0.3452	
-0.46421	-0.731878	0.53436	-38.5	12.18	-9.73	0.0398	0.3972	-0.3449	
-0.460062	-0.734074	0.499224	-38.71	12.11	-10.5	0.0524	0.4051	-0.3454	
-0.485438	-0.764574	0.483486	-38.15	13.02	-8.89	0.0511	0.4055	-0.3341	
-0.495442	-0.753716	0.475678	-37.59	14.84	-6.58	0.0545	0.4061	-0.3241	
-0.484096	-0.740174	0.46177	-35.42	14.77	-3.85	0.0578	0.4139	-0.3247	
-0.514474	-0.768356	0.451888	-32.62	12.53	-1.82	0.0594	0.4188	-0.328	
-0.528748	-0.785192	0.443348	-31.78	12.32	-1.82	0.0488	0.4222	-0.3186	
-0.519232	-0.784216	0.440542	-31.29	14.07	-0.42	0.0612	0.4209	-0.3182	
-0.510692	-0.771162	0.40992	-27.51	14	1.75	0.0599	0.4266	-0.3145	
-0.510204	-0.76677	0.401624	-29.26	15.54	3.15	0.0726	0.4359	-0.3123	
-0.529358	-0.777994	0.385032	-27.86	15.26	4.97	0.0683	0.4422	-0.3002	
-0.52216	-0.768844	0.376736	-27.58	14.56	6.72	0.0681	0.4348	-0.3023	
-0.52399	-0.764086	0.37393	-24.85	14.14	8.12	0.0716	0.4484	-0.3007	
-0.536434	-0.781532	0.356118	-22.82	11.48	7.91	0.0779	0.4447	-0.2931	
-0.530212	-0.777994	0.342088	-21.28	10.5	6.51	0.0809	0.4435	-0.2957	
-0.520452	-0.767136	0.339648	-18.76	11.41	5.25	0.087	0.441	-0.2996	
-0.539606	-0.795196	0.34038	-11.2	10.5	3.22	0.069	0.4562	-0.2873	
-0.559614	-0.80459	0.317078	-6.37	8.54	2.94	0.0796	0.4543	-0.2968	
-0.555832	-0.807396	0.316102	-3.43	7.49	2.24	0.0873	0.4511	-0.2935	
-0.560102	-0.812154	0.308172	0.84	6.37	0.77	0.0937	0.4522	-0.2877	
-0.569984	-0.801174	0.311954	3.29	5.53	-0.14	0.09209999	0.4492	-0.2889	
-0.565714	-0.794586	0.315492	5.18	4.06	0.77	0.0887	0.4452	-0.2957	
-0.556564	-0.796172	0.324764	7.84	2.66	1.82	0.0875	0.4487	-0.2847	
-0.55998	-0.793366	0.323666	10.78	1.05	2.66	0.0966	0.4449	-0.2912	
-0.566202	-0.798124	0.327204	12.88	-0.07	4.13	0.0889	0.443	-0.2884	
-0.568642	-0.804346	0.338184	14.14	-1.26	7	0.0963	0.4346	-0.2945	
-0.564616	-0.80337	0.345626	15.47	-2.45	9.94	0.106	0.4447	-0.2867	
-0.571814	-0.81618	0.346846	16.94	-4.13	12.32	0.09339999	0.4452	-0.2942	
-0.56547	-0.812764	0.351482	17.78	-4.97	15.19	0.0946	0.445	-0.3069	
-0.559126	-0.813252	0.355508	20.09	-6.09	17.85	0.0962	0.4332	-0.2958	
-0.563152	-0.803736	0.362218	23.1	-6.72	20.23	0.1025	0.4414	-0.3007	
-0.568642	-0.795928	0.372832	26.32	-7.91	22.89	0.0973	0.4303	-0.3126	
-0.564006	-0.777384	0.368684	28.07	-10.15	25.27	0.1004	0.4254	-0.3092	
-0.588406	-0.767136	0.37454	29.96	-12.11	28.91	0.0923	0.4232	-0.3191	
-0.585356	-0.749324	0.381616	32.48	-14.63	31.78	0.1048	0.4165	-0.3111	
-0.576206	-0.739564	0.39345	33.39	-15.19	35.35	0.108	0.4261	-0.3148	
-0.596092	-0.741882	0.396378	34.09	-15.54	38.78	0.0969	0.4105	-0.3136	
-0.601826	-0.733952	0.403332	35.21	-16.66	42.49	0.1043	0.407	-0.323	
-0.597556	-0.726144	0.420168	38.64	-17.71	45.43	0.1043	0.4053	-0.3214	
-0.606462	-0.716384	0.428464	41.16	-19.67	47.39	0.1117	0.3906	-0.3255	
-0.603412	-0.690764	0.422852	43.89	-21.28	49.91	0.1176	0.3837	-0.3319	
-0.60573	-0.671366	0.445544	42.98	-22.61	52.99	0.1174	0.3793	-0.3343	
-0.624518	-0.67954	0.460916	45.57	-22.05	56	0.1171	0.3657	-0.3359	
-0.608292	-0.664168	0.47275	46.76	-22.75	58.87	0.1151	0.3594	-0.3495	
-0.616466	-0.631472	0.473116	53.97	-22.12	61.74	0.1227	0.3487	-0.3483	
-0.603046	-0.607316	0.495442	55.16	-22.75	65.17	0.1321	0.3483	-0.3424	
-0.61488	-0.604388	0.522038	58.45	-22.61	69.16	0.1302	0.345	-0.3549	
-0.593042	-0.575596	0.539118	61.46	-24.99	72.1	0.1296	0.3273	-0.3618	
-0.5978	-0.546682	0.555344	66.43	-23.94	75.67	0.1295	0.3129	-0.3562	
-0.597068	-0.49898	0.588528	67.48	-25.27	77.77	0.1242	0.297	-0.3661	
-0.640012	-0.454572	0.635864	68.11	-27.09	78.47	0.1347	0.284	-0.3718	
-0.63745	-0.363194	0.64477	66.5	-28.84	79.38	0.1315	0.2808	-0.3716	
-0.587186	-0.2867	0.63989	64.26	-26.95	84.07	0.134	0.257	-0.3778	
-0.57035	-0.241804	0.633668	62.16	-25.55	88.83	0.1324	0.257	-0.3778	
-0.575108	-0.197518	0.648308	61.32	-24.29	90.16	0.1258	0.2449	-0.3811	
-0.593896	-0.163602	0.643062	62.51	-23.24	90.09	0.133	0.2194	-0.3842	
-0.594384	-0.140178	0.649772	63.49	-23.38	90.44	0.133	0.2061	-0.3744	
-0.576572	-0.102724	0.645136	66.36	-23.73	90.44	0.1248	0.1911	-0.3789	
-0.561444	-0.047458	0.654408	69.65	-23.38	89.81	0.1259	0.1829	-0.388	
-0.554246	0.008905999	0.653066	70.28	-22.82	87.71	0.1323	0.1741	-0.3756	
-0.549122	0.05917	0.668072	68.6	-21.35	86.1	0.1158	0.1462	-0.3904	
-0.542046	0.114192	0.678564	65.1	-19.39	85.19	0.1129	0.145	-0.379	
-0.510082	0.163358	0.681858	65.03	-17.71	85.05	0.111	0.1348	-0.3852	
-0.503738	0.228872	0.712846	62.09	-15.47	84.07	0.1044	0.1095	-0.3787	
-0.520086	0.293044	0.700402	60.41	-13.16	80.71	0.1149	0.1029	-0.3864	
-0.514596	0.302072	0.696254	64.19	-10.36	80.15	0.1024	0.0898	-0.3812	
-0.503738	0.31354	0.693692	70.77	-7.98	80.43	0.0957	0.0681	-0.3793	
-0.49532	0.356484	0.681492	71.75	-5.32	79.45	0.08769999	0.0572	-0.3798	
-0.52521	0.411018	0.67954	69.44	-2.66	76.58	0.097	0.0491	-0.3732	
-0.532408	0.456158	0.683322	68.25	-1.47	73.85	0.0875	0.0398	-0.3739	
-0.530334	0.493246	0.671	64.4	-2.24	70	0.0809	0.0162	-0.369	
-0.511912	0.491172	0.651602	63.98	-1.54	66.92	0.0902	0.0016	-0.3589	
-0.510326	0.501908	0.633668	62.93	-1.75	65.45	0.0805	-0.0121	-0.3606	
-0.498004	0.523624	0.63928	63.77	-2.17	64.19	0.079	-0.0208	-0.3513	
-0.475556	0.563152	0.646844	59.08	-2.45	62.93	0.079	-0.0373	-0.3398	
-0.47946	0.594018	0.62769	55.58	-4.2	61.6	0.07099999	-0.0365	-0.3486	
-0.460062	0.593652	0.623054	52.99	-5.39	61.25	0.0646	-0.0493	-0.3447	
-0.479216	0.643306	0.63257	51.38	-6.3	60.55	0.0738	-0.0621	-0.3376	
-0.468846	0.66246	0.611708	49.56	-7.14	56.56	0.0628	-0.0768	-0.3308	
-0.474824	0.70943	0.631228	47.88	-10.01	52.71	0.0502	-0.0929	-0.3253	
-0.463844	0.715042	0.615124	46.34	-12.32	51.03	0.0531	-0.0938	-0.3308	
-0.446398	0.69479	0.601704	47.18	-13.02	49.91	0.0468	-0.1054	-0.3242	
-0.415166	0.699914	0.612318	46.2	-14.63	47.95	0.0406	-0.1105	-0.3196	
-0.401258	0.714798	0.607438	45.78	-14.35	45.01	0.0263	-0.1227	-0.323	
-0.385032	0.71431	0.59902	48.09	-13.3	40.88	0.0248	-0.1232	-0.3187	
-0.386618	0.745664	0.599386	47.32	-12.39	37.17	0.0172	-0.1372	-0.3034	
-0.384788	0.76677	0.601826	46.83	-12.53	33.39	0.0168	-0.1624	-0.2967	
-0.358558	0.767014	0.592188	45.64	-11.41	30.03	0.0059	-0.1593	-0.2987	
-0.34526	0.791048	0.576572	42.7	-9.73	27.44	0.0077	-0.1654	-0.2839	
-0.337086	0.823378	0.56242	40.81	-8.54	26.18	0.0013	-0.176	-0.2859	
-0.332328	0.828136	0.551318	38.64	-7.42	25.2	-0.0218	-0.1872	-0.2711	
-0.329888	0.83021	0.53985	37.38	-5.81	23.17	-0.0159	-0.1839	-0.2869	
-0.314272	0.840458	0.513742	35.49	-4.41	21.49	-0.016	-0.1887	-0.2851	
-0.31598	0.869982	0.50752	32.9	-3.15	21.14	-0.0172	-0.1905	-0.2679	
-0.305	0.881816	0.50142	29.19	-2.1	20.09	-0.0206	-0.1991	-0.2742	
-0.286334	0.859978	0.497516	25.55	0	19.11	-0.0177	-0.2116	-0.2716	
-0.29036	0.863882	0.484828	22.33	1.19	19.32	-0.0313	-0.2053	-0.2611	
-0.305854	0.868396	0.479338	20.51	1.68	19.95	-0.0298	-0.2031	-0.267	
-0.300364	0.846924	0.467992	18.06	2.38	19.25	-0.03	-0.2108	-0.2662	
-0.285968	0.841312	0.471896	17.22	2.38	17.78	-0.028	-0.2092	-0.2521	
-0.284626	0.855586	0.466162	16.73	1.54	16.31	-0.0299	-0.2213	-0.2539	
-0.275598	0.852048	0.458964	15.4	1.54	15.26	-0.0253	-0.226	-0.2519	
-0.271084	0.86132	0.455914	15.12	1.96	14.14	-0.0411	-0.2284	-0.262	
-0.273524	0.890356	0.45384	14.35	2.31	12.88	-0.0282	-0.2152	-0.253	
-0.277672	0.9028	0.449692	13.23	2.24	10.85	-0.0409	-0.2295	-0.2505	
-0.279014	0.884134	0.44286	10.08	2.59	9.24	-0.0378	-0.2361	-0.2455	
-0.281576	0.889014	0.442372	9.73	3.15	8.19	-0.0454	-0.2284	-0.2479	
-0.262056	0.89975	0.442616	9.17	2.8	6.86	-0.03	-0.2359	-0.2454	
-0.272426	0.9089	0.43005	7.91	2.1	5.67	-0.0314	-0.2167	-0.2543	
-0.270108	0.904508	0.418826	5.18	2.45	4.13	-0.0486	-0.2363	-0.2458	
-0.275232	0.895236	0.419314	3.99	2.66	3.29	-0.0426	-0.2422	-0.2465	
-0.26535	0.902434	0.420168	3.29	2.59	2.03	-0.0501	-0.2332	-0.2461	
-0.272792	0.8967	0.413092	2.17	2.73	1.54	-0.0443	-0.2433	-0.2507	
-0.268644	0.88206	0.406626	1.26	2.17	0.63	-0.0362	-0.2291	-0.2533	
-0.269132	0.885354	0.406748	1.68	1.4	0.28	-0.0376	-0.2302	-0.2433	
-0.26718	0.894748	0.407846	0.91	0.28	-0.28	-0.0358	-0.2195	-0.2428	
-0.269864	0.888648	0.405162	-0.28	0	0.49	-0.039	-0.234	-0.2358	
-0.270596	0.906704	0.399306	-0.56	-0.28	2.24	-0.0454	-0.2351	-0.2416	
-0.267058	0.900848	0.419436	-2.03	-1.19	2.73	-0.0374	-0.2277	-0.2378	
-0.256566	0.879742	0.43249	-2.38	-1.33	2.1	-0.0454	-0.2351	-0.2416	
-0.252662	0.8784	0.43432	-1.4	-1.19	1.75	-0.0376	-0.23	-0.2447	
-0.255224	0.888648	0.424804	-1.75	-0.42	1.68	-0.0252	-0.2331	-0.2427	
-0.26962	0.879986	0.418948	-2.03	-0.49	0.28	-0.0391	-0.2337	-0.2387	
-0.269498	0.88084	0.429806	-1.61	-1.26	-0.98	-0.0375	-0.2223	-0.2454	
-0.26596	0.88755	0.433832	-1.61	-2.31	-1.4	-0.0345	-0.2281	-0.2476	
-0.276696	0.88084	0.433832	-2.24	-3.01	-2.24	-0.0409	-0.2278	-0.2521	
-0.272426	0.864736	0.439566	-2.73	-3.08	-3.92	-0.0437	-0.2272	-0.2437	
-0.265838	0.878522	0.446764	-1.96	-2.94	-5.67	-0.039	-0.2342	-0.2344	
-0.266448	0.885598	0.451888	-2.66	-3.22	-6.58	-0.0346	-0.2343	-0.2471	
-0.278404	0.876692	0.449448	-3.29	-3.15	-7.21	-0.0409	-0.2392	-0.2453	
-0.276086	0.88633	0.448716	-3.22	-3.78	-8.68	-0.0392	-0.2281	-0.2492	
-0.27633	0.904386	0.450424	-4.55	-4.06	-9.38	-0.0456	-0.231	-0.2519	
-0.28121	0.909144	0.458232	-6.72	-4.06	-10.01	-0.0438	-0.2319	-0.2432	
-0.280722	0.905362	0.461526	-8.89	-4.2	-11.97	-0.0392	-0.2298	-0.2476	
-0.27877	0.892186	0.462258	-11.06	-3.85	-14.07	-0.0439	-0.2248	-0.2524	
-0.281698	0.914634	0.461526	-12.11	-3.71	-16.1	-0.0314	-0.2216	-0.251	
-0.281698	0.920978	0.462136	-15.26	-2.66	-17.78	-0.0375	-0.2239	-0.2453	
-0.283284	0.902434	0.460184	-19.25	-1.26	-19.81	-0.0326	-0.2148	-0.2432	
-0.283772	0.879254	0.468968	-20.86	-0.07	-21.77	-0.0331	-0.2177	-0.26	
-0.281088	0.86559	0.472628	-21.63	1.4	-23.03	-0.0265	-0.2224	-0.2423	
-0.29036	0.860222	0.481778	-22.4	4.2	-23.73	-0.0316	-0.2189	-0.2627	
-0.296826	0.847656	0.48556	-22.75	4.76	-23.94	-0.0316	-0.2189	-0.2627	
-0.312686	0.834968	0.48983	-22.4	5.95	-24.64	-0.0224	-0.2131	-0.273	
-0.310124	0.805078	0.497638	-22.19	6.86	-27.16	-0.0252	-0.1995	-0.2715	
-0.316224	0.804956	0.5002	-20.86	6.86	-28.07	-0.0252	-0.1995	-0.2715	
-0.331962	0.808616	0.500566	-19.6	6.86	-30.66	-0.007999999	-0.2013	-0.2652	
-0.353312	0.800442	0.495686	-18.83	6.16	-32.9	-0.0126	-0.1915	-0.2719	
-0.372222	0.796294	0.48922	-18.27	3.85	-34.23	0.0009999999	-0.1969	-0.2768	
-0.38552	0.783972	0.49837	-18.34	0.84	-36.12	0.0104	-0.1852	-0.2848	
-0.406138	0.807518	0.492148	-17.43	-2.45	-38.99	0.0137	-0.1809	-0.2808	
-0.413214	0.809958	0.504714	-19.6	-4.55	-41.72	0.0136	-0.1823	-0.2821	
-0.416386	0.809836	0.520452	-27.16	-4.34	-44.94	0.0218	-0.1737	-0.2742	
-0.413946	0.80825	0.526308	-28.98	-7.07	-48.23	0.0248	-0.1549	-0.293	
-0.433954	0.808738	0.524722	-34.3	-7.56	-51.03	0.0199	-0.1689	-0.2918	
-0.44896	0.799588	0.530456	-36.68	-8.33	-55.02	0.031	-0.1561	-0.2956	
-0.438712	0.799466	0.53863	-40.6	-8.05	-59.29	0.0341	-0.1445	-0.3037	
-0.43371	0.78019	0.55205	-47.04	-7.63	-62.65	0.0389	-0.1366	-0.3043	
-0.451888	0.747738	0.53802	-49.35	-8.89	-65.38	0.0437	-0.1368	-0.3014	
-0.464576	0.742004	0.558882	-52.36	-9.31	-68.18	0.0406	-0.1239	-0.3083	
-0.46421	0.706746	0.575352	-55.58	-7.56	-72.31	0.0578	-0.1071	-0.3195	
-0.465064	0.673806	0.582794	-59.15	-6.72	-74.27	0.053	-0.1082	-0.3252	
-0.46848	0.640012	0.587064	-61.18	-5.74	-76.37	0.059	-0.099	-0.3387	
-0.49349	0.626348	0.589382	-57.96	-5.95	-77.49	0.0673	-0.0757	-0.3407	
-0.487512	0.600484	0.59353	-57.96	-5.32	-78.68	0.0735	-0.07229999	-0.3423	
-0.496174	0.567422	0.600118	-57.75	-5.74	-78.19	0.074	-0.0542	-0.3398	
-0.497394	0.52033	0.628788	-56.14	-5.88	-77.98	0.0878	-0.0483	-0.3499	
-0.506178	0.494954	0.647576	-56.56	-5.18	-78.75	0.0832	-0.0404	-0.3536	
-0.526064	0.47763	0.65148	-58.87	-5.67	-79.52	0.0788	-0.0114	-0.3678	
-0.52704	0.433832	0.659532	-61.18	-5.18	-80.57	0.0916	-0.0042	-0.3611	
-0.530456	0.408944	0.675026	-64.54	-6.86	-82.53	0.0854	-0.0014	-0.3601	
-0.527284	0.364292	0.695522	-65.52	-7.35	-84.42	0.0931	0.0107	-0.3725	
-0.54351	0.314028	0.687348	-65.87	-7.35	-86.8	0.1014	0.0286	-0.3669	
-0.539606	0.251686	0.67466	-66.15	-8.82	-89.6	0.0953	0.0333	-0.3689	
-0.520818	0.196176	0.679052	-66.01	-8.19	-92.19	0.09079999	0.0456	-0.3701	
-0.500078	0.168116	0.68076	-68.18	-6.65	-94.78	0.1021	0.0627	-0.3701	
-0.478362	0.143228	0.678442	-74.41	-5.11	-96.46	0.0958	0.0795	-0.386	
-0.48251	0.105774	0.652334	-80.5	-3.08	-96.74	0.0946	0.088	-0.3797	
-0.465064	0.023424	0.650504	-82.53	-1.19	-94.71	0.0903	0.1131	-0.3865	
-0.458476	-0.085278	0.695278	-75.67	-0.49	-92.47	0.1001	0.1412	-0.3903	
-0.513376	-0.184586	0.716384	-68.11	-3.15	-89.25	0.1032	0.1464	-0.395	
-0.578402	-0.253394	0.66673	-70.77	-2.59	-92.75	0.1101	0.1602	-0.3791	
-0.488122	-0.258884	0.658556	-78.47	-0.91	-98.98	0.1055	0.1684	-0.3857	
-0.489342	-0.31903	0.641964	-81.13	1.61	-96.6	0.0994	0.1876	-0.3947	
-0.496906	-0.3782	0.636108	-80.71	1.89	-94.36	0.1011	0.1923	-0.3951	
-0.521916	-0.460184	0.651114	-75.04	-0.7	-93.8	0.0945	0.2388	-0.3869	
-0.542168	-0.539606	0.65636	-71.26	-3.36	-92.54	0.0851	0.2486	-0.3952	
-0.523502	-0.565226	0.632448	-74.41	-3.29	-91.56	0.08419999	0.2641	-0.3824	
-0.493368	-0.578036	0.597068	-80.29	-1.68	-91.49	0.0692	0.2817	-0.3773	
-0.478972	-0.598532	0.603412	-82.25	-0.77	-91.28	0.0646	0.2928	-0.3828	
-0.495076	-0.619028	0.604998	-77	-1.82	-90.02	0.0601	0.2973	-0.3819	
-0.45262	-0.621956	0.620858	-73.29	-2.1	-85.05	0.0512	0.3035	-0.3699	
-0.467626	-0.686982	0.623664	-66.29	-1.82	-76.23	0.0499	0.3208	-0.3744	
-0.460794	-0.719068	0.614636	-66.01	2.03	-68.46	0.0427	0.3314	-0.3599	
-0.432002	-0.727242	0.586942	-58.52	3.71	-61.88	0.0488	0.3403	-0.3706	
-0.43981	-0.74847	0.568764	-54.25	4.9	-56.28	0.0413	0.351	-0.3718	
-0.451644	-0.75213	0.565714	-51.1	5.11	-52.08	0.0323	0.3643	-0.369	
-0.43615	-0.749568	0.558882	-52.5	5.39	-46.06	0.0278	0.3753	-0.373	
-0.439078	-0.750666	0.56303	-48.02	5.04	-40.95	0.0247	0.3699	-0.3654	
-0.43005	-0.75396	0.548756	-44.59	3.08	-36.26	0.0189	0.3748	-0.3546	
-0.424316	-0.775432	0.554246	-44.31	3.36	-32.9	0.0282	0.3816	-0.3593	
-0.41053	-0.780434	0.554246	-41.93	3.99	-30.31	0.0165	0.39	-0.3391	
-0.413946	-0.801662	0.538874	-38.29	3.5	-27.44	0.0087	0.3966	-0.3456	
-0.418826	-0.784094	0.52643	-33.18	2.59	-25.34	0.015	0.398	-0.3427	
-0.410652	-0.802516	0.508374	-31.43	3.15	-21.28	0.0169	0.4064	-0.3349	
-0.400282	-0.80276	0.494466	-30.24	3.71	-18.48	0.0032	0.4116	-0.3286	
-0.406138	-0.800564	0.491172	-27.51	3.71	-16.17	0.0031	0.4089	-0.3327	
-0.399062	-0.808982	0.480924	-26.39	3.15	-13.16	0.0108	0.3977	-0.3257	
-0.396012	-0.822768	0.474092	-24.78	4.41	-10.15	0.009699999	0.4189	-0.3235	
-0.403698	-0.836188	0.462014	-21.14	3.71	-9.45	0.0048	0.4147	-0.3289	
-0.387106	-0.802272	0.445544	-20.51	3.64	-8.54	0.0051	0.4203	-0.3237	
-0.389058	-0.809592	0.446886	-21.84	5.53	-7.56	0.0082	0.4169	-0.3191	
-0.390278	-0.822768	0.424072	-18.97	4.2	-6.37	0.021	0.4293	-0.3185	
-0.388692	-0.83692	0.427732	-17.01	3.08	-6.3	0.0068	0.4112	-0.3086	
-0.392596	-0.853268	0.42578	-10.5	0.98	-8.26	0.0117	0.4339	-0.3206	
-0.374662	-0.84729	0.421266	-8.61	-0.35	-8.12	0.0069	0.4309	-0.3218	
-0.359778	-0.846314	0.426024	-7.14	-1.12	-7.84	0.0071	0.4283	-0.3117	
-0.348066	-0.85461	0.431392	-4.41	-1.33	-6.72	0.0116	0.4293	-0.3202	
-0.346236	-0.85461	0.42944	-2.31	-1.75	-6.02	-0.0007	0.4252	-0.313	
-0.34587	-0.829966	0.42395	-1.61	-2.45	-5.6	-0.0021	0.4331	-0.3152	
-0.34465	-0.822402	0.424194	-3.57	-1.89	-4.06	0.0011	0.4424	-0.316	
-0.345992	-0.847656	0.426146	-4.62	-0.91	-1.54	-0.0053	0.4184	-0.3067	
-0.336232	-0.859368	0.440542	-2.8	-0.77	0.84	0.0041	0.4363	-0.3153	
-0.330254	-0.8296	0.42517	-1.61	-0.77	2.45	-0.002	0.436	-0.314	
-0.337086	-0.846436	0.426268	-2.73	1.33	4.69	-0.0006	0.4316	-0.315	
-0.32757	-0.846436	0.433222	1.26	1.05	6.93	0.0118	0.4332	-0.3134	
-0.330498	-0.850218	0.440664	4.76	1.33	8.4	0.0055	0.4337	-0.3193	
-0.343308	-0.858148	0.43981	6.79	0.21	9.45	0.0023	0.4321	-0.3192	
-0.342088	-0.868884	0.44957	8.26	-0.28	11.76	0.0025	0.4313	-0.312	
-0.332816	-0.851316	0.454206	9.45	0.35	14.77	0.0114	0.4249	-0.3226	
-0.352458	-0.872544	0.456646	9.03	1.89	18.55	0.0083	0.4267	-0.3257	
-0.354044	-0.88206	0.456646	10.22	3.57	23.17	0.0192	0.4266	-0.3226	
-0.356484	-0.86498	0.449936	12.67	5.53	26.11	0.03	0.4274	-0.3281	
-0.36722	-0.848876	0.450668	14.28	6.44	29.26	0.0128	0.4109	-0.3198	
-0.38369	-0.84119	0.459208	16.94	6.93	31.71	0.0334	0.4362	-0.3232	
-0.406504	-0.849974	0.45262	19.04	7.42	34.23	0.0285	0.4172	-0.3186	
-0.40931	-0.831552	0.4514	20.72	7.77	36.61	0.0206	0.406	-0.3149	
-0.421144	-0.800076	0.464698	22.68	7.56	38.78	0.0345	0.4201	-0.3301	
-0.455914	-0.79483	0.466772	23.59	6.93	41.37	0.0405	0.4143	-0.3323	
-0.46848	-0.780678	0.467138	24.43	6.51	44.73	0.0466	0.4048	-0.3284	
-0.479582	-0.777506	0.467626	29.12	4.9	47.18	0.0496	0.4105	-0.3388	
-0.491172	-0.768112	0.465552	31.71	4.62	50.05	0.0668	0.4123	-0.3372	
-0.507032	-0.752496	0.46604	33.25	2.66	50.61	0.054	0.4016	-0.3407	
-0.545706	-0.764574	0.460916	33.32	1.82	51.45	0.0681	0.3996	-0.3331	
-0.554612	-0.74603	0.452254	35.84	-0.56	52.85	0.0771	0.3831	-0.3342	
-0.553758	-0.732854	0.467138	38.92	-2.03	53.41	0.0831	0.3827	-0.3439	
-0.559126	-0.71614	0.474092	42.84	-2.52	54.04	0.086	0.3753	-0.346	
-0.571692	-0.692228	0.469212	45.85	-4.62	54.6	0.0905	0.3692	-0.3453	
-0.58377	-0.66246	0.46665	48.79	-7.35	56.35	0.09649999	0.3635	-0.3489	
-0.579134	-0.651358	0.4941	51.73	-8.82	59.08	0.0961	0.3571	-0.3611	
-0.577914	-0.638548	0.494588	56.21	-9.59	62.3	0.1007	0.3589	-0.3626	
-0.574742	-0.612562	0.508496	60.27	-10.15	65.8	0.0969	0.3302	-0.3671	
-0.580964	-0.585844	0.52582	66.64	-11.55	69.09	0.12	0.3232	-0.3687	
-0.590236	-0.570228	0.555588	69.72	-12.25	72.59	0.1135	0.3127	-0.3721	
-0.609512	-0.532042	0.560346	71.12	-13.16	75.32	0.1114	0.2984	-0.3822	
-0.60817	-0.464942	0.589992	72.94	-14.07	77.28	0.1128	0.2842	-0.378	
-0.624274	-0.412238	0.626226	73.99	-13.93	81.2	0.1171	0.2589	-0.3698	
-0.617442	-0.354776	0.60756	74.2	-12.95	86.8	0.1245	0.2422	-0.3695	
-0.588284	-0.310978	0.603534	71.19	-11.76	93.03	0.1211	0.2404	-0.3822	
-0.579256	-0.271084	0.620126	69.16	-10.64	96.46	0.1301	0.2285	-0.3837	
-0.590358	-0.251442	0.62403	70.14	-10.08	99.68	0.128	0.2157	-0.3939	
-0.59231	-0.206668	0.613294	70.21	-10.43	102.13	0.1308	0.1869	-0.3812	
-0.557296	-0.160552	0.627202	68.6	-10.22	104.16	0.1369	0.181	-0.3819	
-0.544364	-0.10126	0.632204	70.63	-8.47	104.44	0.1319	0.1658	-0.3848	
-0.543266	-0.040016	0.622444	73.29	-6.51	104.51	0.1316	0.1367	-0.3693	
-0.550342	0.042212	0.62037	74.48	-4.41	104.23	0.1361	0.141	-0.381	
-0.551562	0.092842	0.610488	71.82	-3.99	103.81	0.1262	0.1215	-0.3864	
-0.51667	0.148108	0.618662	68.88	-3.71	102.97	0.1195	0.0866	-0.3762	
-0.546804	0.255956	0.665388	62.16	-1.96	101.01	0.1193	0.0843	-0.3831	
-0.60085	0.362462	0.655994	58.87	-1.68	97.44	0.1223	0.0729	-0.3762	
-0.60573	0.389668	0.633424	58.52	-2.66	95.55	0.1192	0.0662	-0.3714	
-0.593774	0.394548	0.629764	60.13	-3.57	93.59	0.1189	0.046	-0.3681	
-0.60451	0.42944	0.61671	57.12	-3.85	88.97	0.1153	0.0361	-0.3772	
-0.604876	0.48373	0.625372	54.11	-5.39	82.11	0.12	0.0196	-0.3641	
-0.606828	0.512156	0.615124	55.65	-7.28	77.14	0.1089	0.0101	-0.3635	
-0.575596	0.499712	0.60695	56.42	-9.1	75.46	0.1057	-0.0081	-0.3505	
-0.548146	0.501298	0.586088	58.66	-9.31	72.87	0.0961	-0.0217	-0.3537	
-0.556076	0.529114	0.573278	56.56	-10.71	70.07	0.09739999	-0.0257	-0.359	
-0.547048	0.542778	0.588162	55.37	-13.86	68.53	0.0832	-0.0537	-0.3424	
-0.508252	0.59353	0.62159	54.32	-15.89	68.04	0.0829	-0.0574	-0.352	
-0.473238	0.654896	0.634278	51.31	-17.29	68.04	0.069	-0.0679	-0.3414	
-0.45262	0.668316	0.613172	47.39	-17.85	67.69	0.0657	-0.07229999	-0.3439	
-0.43981	0.64965	0.622444	48.51	-17.92	68.11	0.061	-0.0807	-0.3375	
-0.434076	0.698816	0.609268	50.61	-19.11	65.87	0.0436	-0.0998	-0.3347	
-0.415898	0.708454	0.60817	49.49	-19.18	62.86	0.0309	-0.1073	-0.3386	
-0.403088	0.716262	0.626958	49.14	-19.04	59.71	0.0371	-0.1153	-0.3334	
-0.406138	0.73749	0.632448	47.6	-17.92	56.21	0.0277	-0.1221	-0.3287	
-0.389546	0.7503	0.615734	44.66	-16.8	49.84	0.0187	-0.1269	-0.3143	
-0.38064	0.763354	0.62281	42.42	-12.81	39.62	0.0245	-0.1499	-0.3119	
-0.374906	0.768844	0.62098	40.6	-12.95	40.18	0.003	-0.1416	-0.3075	
-0.362462	0.761646	0.606706	40.67	-11.69	38.08	-0.0051	-0.1533	-0.3152	
-0.356484	0.768722	0.604144	38.92	-10.85	33.32	0.0059	-0.1593	-0.2987	
-0.343186	0.769698	0.593652	37.52	-10.78	28.56	-0.0098	-0.1651	-0.3056	
-0.332572	0.782874	0.579012	39.06	-10.5	24.57	-0.0238	-0.1739	-0.2966	
-0.329766	0.807518	0.576694	36.61	-8.4	21.49	-0.0173	-0.1813	-0.2829	
-0.326106	0.825086	0.571204	33.53	-7.07	18.34	-0.0174	-0.1809	-0.2873	
-0.326228	0.81679	0.557784	30.8	-5.74	15.47	-0.0315	-0.1844	-0.2858	
-0.320982	0.826794	0.538752	29.96	-5.04	12.6	-0.0333	-0.2	-0.283	
-0.312564	0.827648	0.53558	28.14	-4.76	10.71	-0.0282	-0.1883	-0.2769	
-0.306708	0.82533	0.530822	25.76	-3.71	8.89	-0.0329	-0.195	-0.2721	
-0.30866	0.833138	0.525698	24.01	-2.38	7.77	-0.0284	-0.2141	-0.2645	
-0.299144	0.824598	0.513864	21.28	-0.98	6.79	-0.0223	-0.2086	-0.272	
-0.309392	0.822402	0.501908	19.81	-0.35	7.28	-0.0285	-0.2156	-0.2643	
-0.310978	0.84119	0.48922	19.39	0.21	7.35	-0.0347	-0.2225	-0.2581	
-0.307196	0.854122	0.482998	17.29	0.63	7.28	-0.0332	-0.2203	-0.264	
-0.303902	0.850828	0.477874	14.28	1.12	6.93	-0.0284	-0.2143	-0.2616	
-0.300364	0.854976	0.476288	11.13	2.03	7.07	-0.033	-0.2163	-0.2587	
-0.300364	0.862418	0.467016	8.82	2.59	7.98	-0.0347	-0.2357	-0.2484	
-0.304634	0.861198	0.459452	6.79	2.31	8.54	-0.0378	-0.2176	-0.2615	
-0.306342	0.848266	0.458476	5.6	2.24	7.98	-0.0377	-0.2248	-0.2509	
-0.295728	0.853024	0.46238	5.53	2.03	7.98	-0.0329	-0.2199	-0.2526	
-0.288408	0.856684	0.460184	4.34	2.24	8.75	-0.033	-0.2229	-0.2538	
-0.299022	0.853634	0.460428	4.34	2.17	8.68	-0.0408	-0.2181	-0.2573	
-0.29585	0.853756	0.459818	4.34	1.75	7.56	-0.0362	-0.2262	-0.2521	
-0.289628	0.841556	0.45872	3.78	1.75	6.51	-0.0362	-0.2291	-0.2533	
-0.29707	0.84668	0.45567	4.55	1.26	6.37	-0.0519	-0.2373	-0.2514	
-0.295972	0.863516	0.448594	5.18	0.14	5.81	-0.0409	-0.2344	-0.2472	
-0.288286	0.873154	0.456402	3.85	-0.56	5.18	-0.0406	-0.2238	-0.2468	
-0.289628	0.871202	0.464088	2.31	-0.91	4.9	-0.0345	-0.2249	-0.2494	
-0.286944	0.873032	0.467992	0.98	-0.77	5.04	-0.0452	-0.2241	-0.244	
-0.279868	0.877668	0.46726	0.14	-0.42	4.48	-0.0344	-0.2304	-0.2403	
-0.2745	0.877546	0.461282	-0.84	0.07	3.36	-0.0405	-0.2293	-0.2377	
-0.279014	0.876814	0.457622	-1.96	0.28	2.59	-0.0489	-0.2487	-0.2446	
-0.289506	0.877546	0.455792	-2.8	0.35	2.17	-0.0408	-0.2215	-0.2541	
-0.282674	0.875106	0.46238	-3.85	0.14	0.7	-0.0487	-0.2312	-0.2505	
-0.274622	0.87352	0.466894	-4.69	0	-0.49	-0.0546	-0.2208	-0.2488	
-0.272304	0.87352	0.466162	-5.18	0.42	-1.4	-0.0469	-0.2237	-0.2483	
-0.275476	0.871812	0.466528	-5.46	0.63	-2.17	-0.0454	-0.2253	-0.2482	
-0.27694	0.871202	0.469212	-5.39	0.42	-3.22	-0.0377	-0.2214	-0.254	
-0.277916	0.88023	0.466284	-5.88	-0.07	-4.76	-0.0408	-0.2264	-0.2508	
-0.27511	0.877668	0.470066	-7.98	0.28	-5.53	-0.0423	-0.2251	-0.2495	
-0.272304	0.871568	0.473848	-9.66	0.7	-6.44	-0.0343	-0.2175	-0.2472	
-0.27572	0.870836	0.477264	-10.43	1.12	-7.07	-0.0376	-0.2282	-0.2477	
-0.271084	0.880352	0.476898	-10.99	1.4	-8.26	-0.0424	-0.208	-0.2668	
-0.27816	0.883646	0.487756	-12.11	1.68	-9.24	-0.0377	-0.2312	-0.2489	
-0.280478	0.884744	0.48617	-13.79	2.38	-10.57	-0.0406	-0.2087	-0.2596	
-0.281088	0.881694	0.48861	-15.47	3.08	-11.97	-0.0301	-0.2204	-0.2625	
-0.283284	0.872666	0.496174	-17.01	3.43	-13.51	-0.0393	-0.2095	-0.2666	
-0.28975	0.87169	0.500078	-18.69	4.06	-14.91	-0.0299	-0.1994	-0.273	
-0.292068	0.874618	0.501298	-20.79	4.76	-16.66	-0.0283	-0.2045	-0.2682	
-0.306952	0.874862	0.501542	-23.66	4.83	-19.11	-0.0175	-0.2024	-0.271	
-0.311588	0.860466	0.510692	-26.95	5.53	-22.19	-0.0192	-0.2033	-0.2781	
-0.303902	0.854854	0.51362	-28.7	6.23	-25.69	-0.0332	-0.1989	-0.2788	
-0.308904	0.847778	0.523624	-30.45	7.35	-27.93	-0.0032	-0.195	-0.2657	
-0.312808	0.836188	0.520208	-32.48	8.54	-29.75	-0.0098	-0.192	-0.2818	
-0.322324	0.82899	0.527772	-34.23	9.8	-31.78	-0.0096	-0.1761	-0.2875	
-0.337574	0.812886	0.537044	-35.98	11.41	-33.81	-0.0001	-0.1731	-0.2847	
-0.346846	0.782264	0.535824	-37.66	12.39	-36.33	0	-0.1634	-0.2899	
-0.362828	0.779092	0.538752	-37.73	14	-38.43	0.0075	-0.1645	-0.2925	
-0.369172	0.784338	0.53802	-38.01	14.77	-40.67	0.0153	-0.1575	-0.3001	
-0.376492	0.753594	0.551196	-39.48	15.12	-42.91	0.0106	-0.164	-0.2967	
-0.387716	0.72163	0.557906	-40.18	15.61	-44.73	0.0291	-0.1415	-0.3183	
-0.40321	0.707356	0.56669	-40.53	16.31	-46.83	0.0341	-0.1445	-0.3037	
-0.424072	0.70577	0.566324	-40.46	16.52	-49	0.0341	-0.1326	-0.3148	
-0.429562	0.671366	0.579012	-41.44	15.82	-51.24	0.0529	-0.1178	-0.3214	
-0.447008	0.656116	0.598044	-40.67	16.38	-53.62	0.0498	-0.1161	-0.3231	
-0.467626	0.63013	0.591212	-42	16.24	-55.16	0.0595	-0.1045	-0.3154	
-0.479826	0.605974	0.627202	-42.42	15.82	-56.84	0.053	-0.1066	-0.3253	
-0.492392	0.574132	0.64477	-41.51	16.24	-59.36	0.0764	-0.0882	-0.3365	
-0.52948	0.54595	0.654774	-40.46	18.34	-61.81	0.0799	-0.0762	-0.3333	
-0.556442	0.495686	0.656482	-41.02	19.11	-62.44	0.0846	-0.0681	-0.3368	
-0.559248	0.453352	0.656726	-42.07	20.16	-63.14	0.0986	-0.0678	-0.3365	
-0.574376	0.413702	0.634034	-41.37	23.03	-63.91	0.1064	-0.0543	-0.3475	
-0.585356	0.36112	0.635132	-38.92	26.53	-64.05	0.1005	-0.0472	-0.3426	
-0.63562	0.341112	0.616466	-34.23	30.94	-65.03	0.1196	-0.0389	-0.3302	
-0.685884	0.310612	0.592066	-31.29	34.3	-64.47	0.1287	-0.0311	-0.3449	
-0.707356	0.27511	0.58194	-27.58	37.24	-62.93	0.1291	-0.0142	-0.3451	
-0.726632	0.269376	0.56608	-29.19	39.34	-62.51	0.1385	-0.0163	-0.3376	
-0.724558	0.244976	0.559858	-31.29	37.73	-60.13	0.1587	-0.0105	-0.3462	
-0.722728	0.204228	0.554246	-29.54	37.03	-56.21	0.1575	0.0077	-0.3451	
-0.774456	0.217038	0.53131	-26.81	36.26	-54.11	0.1717	0.0037	-0.333	
-0.779336	0.196176	0.541558	-27.23	32.97	-50.47	0.17	0.0144	-0.3483	
-0.77653	0.155794	0.54839	-23.45	29.47	-46.83	0.1784	0.0372	-0.3446	
-0.782752	0.136274	0.565958	-19.88	27.3	-43.47	0.1955	0.0289	-0.3348	
-0.80947	0.127002	0.560834	-18.2	25.83	-40.67	0.1953	0.0348	-0.3482	
-0.826794	0.117974	0.553026	-15.75	22.89	-37.03	0.2112	0.042	-0.34	
-0.824354	0.117608	0.554856	-14.98	19.18	-33.95	0.21	0.052	-0.3339	
-0.83448	0.117486	0.546682	-14.35	15.4	-31.08	0.2018	0.0453	-0.3448	
-0.842654	0.104432	0.554124	-12.46	11.76	-27.93	0.2118	0.0627	-0.3334	
-0.829356	0.089792	0.561688	-10.64	8.19	-25.9	0.2257	0.0654	-0.3419	
-0.82594	0.081374	0.560712	-9.1	5.32	-23.87	0.2194	0.0687	-0.3452	
-0.828258	0.088816	0.55998	-7.56	2.87	-22.12	0.229	0.068	-0.3363	
-0.831796	0.09089	0.559614	-8.12	0.63	-19.39	0.2165	0.0744	-0.3415	
-0.813862	0.093696	0.57279	-7.63	-1.05	-17.22	0.2227	0.0779	-0.3445	
-0.814716	0.08723	0.572546	-5.88	-1.47	-15.33	0.2229	0.0739	-0.3356	
-0.81313	0.088938	0.575718	-5.67	-1.89	-14.63	0.2213	0.0773	-0.3388	
-0.804224	0.09699	0.580842	-5.81	-2.45	-13.79	0.2278	0.0831	-0.335	
-0.808982	0.091134	0.57584	-2.31	-3.15	-12.95	0.2307	0.0771	-0.3358	
-0.823988	0.081862	0.571082	0.7	-3.15	-12.04	0.2243	0.0731	-0.3426	
-0.823866	0.0793	0.57645	2.31	-3.36	-12.6	0.223	0.0869	-0.3425	
-0.8174	0.086132	0.574864	3.57	-4.34	-13.09	0.2152	0.0818	-0.3394	
-0.818742	0.07905599	0.575108	4.9	-5.25	-13.79	0.2228	0.0793	-0.3432	
-0.813252	0.075518	0.577548	7.21	-6.86	-14.49	0.2278	0.09119999	-0.3386	
-0.804102	0.071492	0.578402	9.1	-7.63	-15.54	0.2183	0.08859999	-0.3457	
-0.8113	0.078812	0.589382	10.85	-8.12	-16.52	0.2167	0.0935	-0.349	
-0.803858	0.077104	0.595116	12.18	-8.4	-17.71	0.2184	0.0883	-0.3428	
-0.803248	0.067832	0.586698	12.6	-9.03	-18.55	0.2087	0.083	-0.3525	
-0.817766	0.062464	0.582916	18.97	-10.36	-19.25	0.2134	0.0795	-0.3478	
-0.806298	0.071614	0.593042	21.49	-11.27	-22.82	0.2229	0.0773	-0.3388	
-0.818498	0.057462	0.5795	23.73	-11.76	-27.58	0.2087	0.0795	-0.3479	
-0.815326	0.053558	0.590968	25.27	-12.95	-33.53	0.2056	0.0876	-0.353	
-0.811178	0.055266	0.595848	31.36	-14.28	-38.01	0.21	0.0623	-0.3448	
-0.802638	0.053436	0.601704	37.31	-14.7	-42.14	0.2072	0.0794	-0.3479	
-0.806054	0.043188	0.60756	42.49	-16.73	-49.21	0.1976	0.0717	-0.3488	
-0.800808	0.041968	0.6161	42.7	-17.43	-51.87	0.207	0.07319999	-0.3473	
-0.78873	0.033428	0.613904	41.79	-17.29	-55.58	0.2021	0.0625	-0.3478	
-0.787144	0.069784	0.627568	44.38	-14.77	-63.98	0.2022	0.0671	-0.3483	
-0.767746	0.066246	0.647576	45.99	-16.38	-56.91	0.1895	0.0597	-0.3535	
-0.732732	0.049288	0.667828	47.67	-15.96	-55.3	0.1895	0.0547	-0.3488	
-0.725656	0.041724	0.668438	47.67	-14.7	-54.95	0.1944	0.0623	-0.348	
-0.726876	0.028182	0.65148	49.63	-11.13	-55.72	0.1893	0.044	-0.3492	
-0.745054	0.023302	0.649406	55.44	-5.53	-57.12	0.2001	0.0495	-0.3566	
-0.748348	0.031354	0.648918	57.47	-4.13	-57.68	0.1956	0.0487	-0.3495	
-0.750666	0.040138	0.648674	60.62	-2.38	-57.19	0.1924	0.0388	-0.343	
-0.747006	0.037332	0.645868	59.57	-2.17	-57.47	0.2017	0.0343	-0.3423	
-0.73322	0.029158	0.63562	63.98	0.07	-57.89	0.1955	0.0325	-0.3409	
-0.75823	0.03294	0.627324	71.05	3.64	-57.12	0.2047	0.0281	-0.3402	
-0.771772	0.05551	0.625494	73.64	4.41	-56.35	0.1955	0.0141	-0.3249	
-0.774822	0.076128	0.62525	77.28	4.97	-53.83	0.2015	-0.0016	-0.319	
-0.779702	0.083692	0.625494	77.56	6.58	-52.85	0.2107	-0.004	-0.3243	
-0.779946	0.10309	0.613782	77.98	8.33	-52.92	0.209	-0.0168	-0.3188	
-0.79178	0.082594	0.600972	79.24	9.8	-50.75	0.2155	-0.0162	-0.3088	
-0.798002	0.070638	0.589626	79.66	11.13	-50.61	0.2106	-0.0303	-0.3061	
-0.80642	0.090036	0.58621	78.33	11.62	-51.66	0.2311	-0.0329	-0.2912	
-0.798856	0.08723	0.58499	75.67	11.48	-52.29	0.2183	-0.0416	-0.2992	
-0.798612	0.087962	0.585844	73.71	12.74	-52.85	0.2276	-0.0499	-0.2911	
-0.80825	0.102846	0.585112	72.8	14.98	-54.18	0.2463	-0.0612	-0.2811	
-0.8113	0.115046	0.577304	70.49	15.61	-54.95	0.2481	-0.0574	-0.2729	
-0.809348	0.088938	0.581208	69.65	15.4	-55.58	0.2492	-0.0687	-0.2817	
-0.839482	0.074908	0.566568	68.88	15.4	-58.94	0.2574	-0.067	-0.2675	
-0.818132	0.066856	0.56913	63.21	13.79	-60.27	0.2638	-0.0625	-0.2649	
-0.822646	0.049776	0.56547	58.52	13.3	-58.38	0.2639	-0.0629	-0.2606	
-0.861808	0.049288	0.550708	54.6	13.09	-55.65	0.2747	-0.0708	-0.2568	
-0.860588	0.050996	0.540094	47.53	11.13	-52.5	0.2808	-0.0787	-0.253	
-0.830698	0.07381	0.54046	39.83	8.61	-48.65	0.2874	-0.0782	-0.2416	
-0.827892	0.051728	0.56059	34.51	8.12	-43.12	0.2859	-0.0771	-0.2374	
-0.815936	0.055632	0.555344	29.12	7.84	-39.83	0.2827	-0.0681	-0.2511	
-0.8235	0.02257	0.553636	25.27	6.93	-35.21	0.2859	-0.0785	-0.2387	
-0.822646	0.020374	0.562298	22.4	7	-32.55	0.303	-0.0832	-0.2336	
-0.822158	0.017812	0.574986	19.18	7	-29.68	0.3029	-0.0827	-0.2394	
-0.816424	0.024034	0.56181	14.77	8.12	-26.25	0.3079	-0.0774	-0.2298	
-0.83021	0.035502	0.543632	10.64	9.94	-22.68	0.3077	-0.07669999	-0.237	
-0.826672	0.041846	0.538508	6.16	9.73	-20.37	0.3033	-0.0712	-0.2319	
-0.856196	0.01403	0.529846	2.59	10.36	-18.2	0.3097	-0.0616	-0.2341	
-0.855098	-0.004026	0.52216	1.54	10.08	-16.59	0.3082	-0.0653	-0.2281	
-0.837896	-0.010248	0.531798	1.19	9.03	-16.45	0.3239	-0.0675	-0.219	
-0.82899	-0.020984	0.539362	0.35	8.47	-14.42	0.3191	-0.0619	-0.2296	
-0.835212	-0.014884	0.54046	0.56	9.31	-13.3	0.3144	-0.06659999	-0.2292	
-0.846558	-0.037088	0.540094	0.77	11.34	-13.16	0.3254	-0.0704	-0.2201	
-0.848876	-0.048678	0.54412	1.82	12.32	-12.25	0.3255	-0.0543	-0.2273	
-0.8479	-0.037942	0.5307	1.05	11.06	-11.97	0.3177	-0.0577	-0.2257	
-0.853878	-0.028914	0.513498	-1.4	8.75	-8.75	0.3274	-0.049	-0.2192	
-0.874862	-0.029768	0.516182	-3.78	7.07	-5.46	0.3282	-0.0741	-0.2282	
-0.863516	-0.012322	0.497882	-5.74	6.23	-3.99	0.3257	-0.0566	-0.22	
-0.87413	-0.040626	0.496662	-7.07	5.74	-1.96	0.3288	-0.0601	-0.2153	
-0.869372	-0.048434	0.500688	-7.35	5.53	0.28	0.3445	-0.0519	-0.2171	
-0.865956	-0.021716	0.495076	-8.12	5.67	1.82	0.329	-0.0556	-0.2143	
-0.859124	-0.005612	0.486658	-11.27	5.6	3.85	0.3271	-0.0561	-0.2242	
-0.859612	-0.003294	0.482266	-14.7	6.44	6.86	0.3396	-0.0577	-0.221	
-0.863028	-0.006832	0.489098	-18.69	7.7	9.66	0.3411	-0.0559	-0.2239	
-0.878522	-0.01403	0.476044	-22.68	7.07	12.04	0.3396	-0.0542	-0.2256	
-0.888892	0.004392	0.459818	-26.46	6.51	14.42	0.3429	-0.0484	-0.2218	
-0.886574	0.01708	0.447374	-29.75	6.3	18.48	0.3524	-0.0505	-0.2142	
-0.881572	0.022204	0.447984	-33.88	7.14	24.43	0.3412	-0.0494	-0.2274	
-0.89792	0.004758	0.454328	-38.71	8.89	30.17	0.3319	-0.048	-0.2277	
-0.891576	-0.002806	0.455304	-44.52	8.61	34.16	0.3367	-0.042	-0.2254	
-0.909754	0.00427	0.44103	-49.42	8.82	36.12	0.3428	-0.0481	-0.2246	
-0.894992	-0.00061	0.446154	-54.39	8.89	36.61	0.332	-0.0437	-0.2253	
-0.91561	0.011956	0.423218	-58.59	10.5	36.89	0.3397	-0.0432	-0.228	
-0.928908	0.027084	0.401014	-64.19	10.15	39.55	0.3286	-0.0472	-0.2364	
-0.942572	0.046848	0.382592	-70.98	7.91	43.54	0.3303	-0.038	-0.2358	
-0.967216	0.049898	0.37515	-77.35	6.51	44.52	0.3181	-0.0308	-0.234	
-0.948184	0.025376	0.38552	-83.72	4.13	45.71	0.3427	-0.0272	-0.2494	
-0.953674	-0.010614	0.387594	-88.34	3.71	47.32	0.3198	-0.0248	-0.2331	
-0.954162	-0.0122	0.372466	-93.52	2.94	46.55	0.3256	-0.0178	-0.2549	
-0.971242	-0.000976	0.359656	-98.14	2.8	44.17	0.3196	-0.0204	-0.2463	
-1.000278	-0.006344	0.34404	-101.36	1.96	44.24	0.3149	-0.0106	-0.253	
-0.973438	-0.026474	0.354654	-101.92	-0.7	45.36	0.3164	0.0132	-0.2765	
-0.98942	-0.035502	0.349286	-104.72	-2.52	45.64	0.3228	0.0243	-0.2789	
-0.973804	-0.032452	0.352092	-107.38	-7.7	47.88	0.3151	0.0303	-0.2796	
-0.970754	-0.020496	0.358802	-108.22	-10.78	51.03	0.3165	0.0263	-0.2849	
-0.978928	-0.02623	0.351726	-109.9	-13.44	54.11	0.3104	0.0336	-0.2829	
-0.971242	-0.039772	0.351116	-111.86	-16.31	57.82	0.3013	0.0461	-0.2871	
-0.992348	-0.051362	0.345382	-111.72	-19.74	62.51	0.292	0.059	-0.2957	
-0.986248	-0.027938	0.353068	-114.87	-22.33	63.56	0.3063	0.0714	-0.2937	
-0.953918	-0.001464	0.364658	-122.5	-25.13	63.21	0.2875	0.0733	-0.3014	
-0.940132	-0.030256	0.376126	-127.4	-26.39	71.4	0.2936	0.0906	-0.3199	
-0.968802	-0.063806	0.361486	-129.08	-27.09	80.22	0.2955	0.09429999	-0.3103	
-0.958798	-0.080764	0.37149	-128.03	-27.86	85.82	0.2784	0.1123	-0.3252	
-0.938912	-0.049532	0.399428	-130.76	-29.33	87.15	0.2815	0.1154	-0.3254	
-0.93696	-0.046726	0.41968	-129.15	-30.1	92.61	0.2752	0.111	-0.328	
-0.91134	-0.066246	0.434442	-130.27	-31.08	101.01	0.2678	0.1308	-0.3286	
-0.880474	-0.083204	0.454206	-130.55	-30.24	104.02	0.2571	0.1348	-0.325	
-0.87901	-0.105774	0.466894	-122.08	-28.63	105.07	0.2632	0.1387	-0.3323	
-0.852292	-0.085034	0.492758	-121.66	-24.99	98.77	0.2621	0.1603	-0.3344	
-0.853024	-0.086376	0.497028	-119.98	-20.51	94.71	0.2654	0.1659	-0.3277	
-0.859124	-0.103212	0.499224	-116.62	-16.8	90.51	0.2511	0.1689	-0.3454	
-0.87108	-0.085034	0.505202	-112.42	-15.05	84.21	0.253	0.1809	-0.3422	
-0.854976	-0.061732	0.515572	-112	-12.18	81.83	0.2612	0.1839	-0.3252	
-0.85461	-0.070028	0.523258	-107.73	-9.45	83.16	0.2737	0.1974	-0.3348	
-0.840824	-0.069174	0.522404	-104.86	-7.21	84.28	0.2555	0.2051	-0.3246	
-0.837652	-0.071736	0.531432	-100.45	-5.53	84.7	0.2646	0.2012	-0.3297	
-0.839848	-0.05551	0.540826	-96.18	-1.33	84.56	0.2619	0.2076	-0.3175	
-0.841434	-0.056608	0.540216	-96.32	2.52	85.33	0.276	0.2157	-0.3194	
-0.846192	-0.091378	0.553392	-93.24	5.67	85.05	0.27	0.2183	-0.3155	
-0.845948	-0.074542	0.543022	-90.86	7.49	84.49	0.2858	0.229	-0.3119	
-0.846924	-0.04087	0.537898	-88.48	9.45	85.68	0.2828	0.2302	-0.3092	
-0.864858	-0.0427	0.542656	-81.48	9.1	84.91	0.2832	0.2421	-0.3061	
-0.881938	-0.03965	0.530456	-75.95	7.84	83.37	0.2971	0.2294	-0.2989	
-0.864492	-0.054412	0.532164	-70.28	5.81	80.71	0.3096	0.2361	-0.3021	
-0.85278	-0.047824	0.54107	-63.98	4.13	77.28	0.3065	0.2356	-0.2978	
-0.84363	-0.017446	0.542534	-57.4	2.73	74.97	0.3145	0.2483	-0.3003	
-0.827648	0.007076	0.54839	-47.95	0.56	70.14	0.3208	0.2396	-0.2893	
-0.826794	0.02074	0.55449	-40.04	-0.56	65.59	0.3208	0.2364	-0.2876	
-0.83021	0.032818	0.550708	-33.67	-0.21	59.99	0.3302	0.2261	-0.2751	
-0.825452	0.038552	0.549	-25.69	-1.12	53.48	0.3268	0.2358	-0.296	
-0.80154	0.091378	0.55937	-18.34	-2.8	49.56	0.3285	0.2301	-0.284	
-0.781898	0.130906	0.5734	-13.09	-3.92	46.27	0.3317	0.2351	-0.2872	
-0.788852	0.152134	0.58682	-7.56	-3.71	43.4	0.3284	0.2225	-0.2847	
-0.802882	0.148718	0.583282	-4.69	-4.27	39.41	0.3234	0.2185	-0.2915	
-0.798246	0.175436	0.574254	-0.35	-4.13	35.35	0.3265	0.207	-0.2833	
-0.772138	0.228872	0.568276	1.75	-5.25	33.95	0.3327	0.2057	-0.2844	
-0.753838	0.2806	0.57218	0.98	-6.02	33.18	0.3235	0.2083	-0.2821	
-0.750544	0.258762	0.580598	-0.7	-6.16	31.15	0.3404	0.2009	-0.281	
-0.772748	0.250954	0.582306	0.91	-6.44	27.44	0.3263	0.1962	-0.2823	
-0.76006	0.277672	0.581696	3.64	-6.02	25.13	0.3375	0.2084	-0.2803	
-0.779214	0.323666	0.57096	3.22	-6.44	23.94	0.3324	0.197	-0.2893	
-0.761524	0.326228	0.57096	1.96	-7.07	23.59	0.3434	0.1866	-0.2753	
-0.738588	0.3233	0.59414	2.66	-6.93	22.54	0.3292	0.1922	-0.2875	
-0.757132	0.33001	0.597434	4.55	-6.72	20.23	0.3291	0.2009	-0.2983	
-0.732488	0.338184	0.59048	7.14	-6.02	16.73	0.3398	0.1801	-0.2875	
-0.732732	0.35319	0.581452	7.63	-5.6	13.02	0.3337	0.1728	-0.277	
-0.753472	0.35441	0.577548	8.61	-5.39	8.89	0.3334	0.171	-0.2897	
-0.741516	0.357338	0.579012	8.82	-5.6	5.6	0.3398	0.1752	-0.2842	
-0.738344	0.356972	0.58621	10.08	-5.18	3.36	0.3411	0.1781	-0.2973	
-0.746762	0.359656	0.587064	10.08	-4.55	2.1	0.3347	0.1652	-0.2919	
-0.745786	0.33916	0.568642	9.87	-3.29	-0.35	0.3285	0.17	-0.2954	
-0.735904	0.366366	0.57218	9.45	-2.73	-0.84	0.3192	0.1666	-0.2938	
-0.761768	0.36417	0.568398	7.98	-1.89	-1.4	0.3332	0.1582	-0.2842	
-0.755302	0.354288	0.567178	6.58	-1.89	-1.4	0.3349	0.1694	-0.2881	
-0.760914	0.34465	0.560834	5.88	-1.68	-3.36	0.3316	0.1654	-0.2949	
-0.757498	0.343064	0.567544	6.09	-1.75	-4.13	0.3224	0.1679	-0.291	
-0.769088	0.329644	0.575596	5.88	-1.19	-4.34	0.3255	0.1579	-0.2829	
-0.76616	0.324764	0.573644	5.95	-1.68	-4.27	0.3301	0.1634	-0.2904	
-0.754814	0.330132	0.56608	5.74	-1.89	-5.6	0.3236	0.1646	-0.3035	
-0.757986	0.31903	0.565592	4.69	-1.54	-7.21	0.3269	0.1618	-0.2904	
-0.77653	0.306098	0.560956	5.67	-1.89	-8.19	0.3253	0.1556	-0.2898	
-0.773846	0.325984	0.554856	6.65	-2.73	-9.66	0.322	0.1646	-0.3035	
-0.76189	0.336354	0.565348	6.09	-3.15	-10.36	0.3284	0.1553	-0.2869	
-0.767746	0.319396	0.562786	5.04	-2.59	-10.5	0.3392	0.1728	-0.3053	
-0.769698	0.300364	0.553514	6.02	-2.52	-11.06	0.3239	0.1681	-0.2924	
-0.766038	0.314638	0.561444	7.21	-2.87	-12.67	0.3315	0.1558	-0.2911	
-0.780434	0.320128	0.56791	5.6	-3.15	-14.35	0.3254	0.1699	-0.2954	
-0.772504	0.271206	0.56913	3.29	-3.08	-14.77	0.3176	0.1651	-0.2952	
-0.767624	0.246806	0.565104	7.28	-3.22	-16.59	0.3193	0.1794	-0.2993	
-0.769942	0.255224	0.570594	12.88	-3.36	-20.86	0.3191	0.1721	-0.3029	
-0.765428	0.258884	0.569984	15.4	-3.57	-24.08	0.3141	0.1618	-0.3077	
-0.774334	0.244	0.56974	17.01	-2.8	-26.39	0.3223	0.1716	-0.2971	
-0.773602	0.22021	0.57584	22.4	-2.87	-29.68	0.3254	0.1785	-0.3048	
-0.77287	0.223382	0.564006	28.28	-2.24	-34.58	0.3079	0.168	-0.3099	
-0.780922	0.233508	0.552782	32.13	-2.17	-39.69	0.3082	0.1784	-0.3066	
-0.785436	0.252418	0.562054	34.37	-3.43	-44.94	0.3162	0.1726	-0.2931	
-0.822768	0.220454	0.543266	37.1	-3.85	-47.53	0.3051	0.1666	-0.297	
-0.843386	0.193614	0.522526	42.07	-5.67	-50.68	0.3162	0.1744	-0.2961	
-0.847778	0.17995	0.523502	47.88	-6.44	-54.04	0.3079	0.1683	-0.3127	
-0.848144	0.183488	0.512034	56	-8.96	-57.05	0.3048	0.1664	-0.3098	
-0.85766	0.210084	0.511302	60.83	-10.64	-61.04	0.2988	0.1686	-0.303	
-0.868884	0.209474	0.500566	64.89	-12.88	-64.89	0.3032	0.1713	-0.3131	
-0.89548	0.197274	0.481046	68.39	-14.56	-68.88	0.2937	0.1635	-0.314	
-0.921466	0.184952	0.46055	74.69	-16.38	-73.43	0.2888	0.1597	-0.3223	
-0.90829	0.18788	0.453108	83.93	-20.37	-77	0.2903	0.1566	-0.322	
-0.883768	0.208986	0.45994	91.49	-23.94	-80.43	0.2809	0.1515	-0.3189	
-0.86803	0.2562	0.457012	95.83	-26.81	-84.07	0.2901	0.1556	-0.3276	
-0.877546	0.285358	0.468358	93.87	-28.42	-84.84	0.2699	0.1537	-0.3279	
-0.876204	0.274134	0.488122	93.03	-29.96	-83.93	0.2726	0.1403	-0.3308	
-0.854488	0.25559	0.501298	94.71	-30.45	-83.72	0.2617	0.1301	-0.323	
-0.846436	0.226798	0.503738	95.9	-30.17	-83.86	0.2596	0.1324	-0.346	
-0.834846	0.220088	0.514108	98.98	-29.61	-85.75	0.255	0.1238	-0.3382	
-0.831308	0.220698	0.532774	101.43	-29.33	-87.22	0.2502	0.1174	-0.3363	
-0.831918	0.22082	0.538874	102.48	-29.19	-88.2	0.2361	0.1094	-0.3358	
-0.839848	0.203496	0.546316	105.77	-28.21	-89.11	0.2419	0.1011	-0.3434	
-0.815448	0.175314	0.55266	112.42	-26.32	-90.02	0.2323	0.0906	-0.3469	
-0.798734	0.164456	0.533262	117.18	-24.43	-94.22	0.2197	0.08109999	-0.3463	
-0.80886	0.16836	0.532286	118.23	-22.54	-98.84	0.2304	0.0718	-0.3438	
-0.8723	0.21167	0.537044	118.51	-21.42	-102.48	0.2176	0.0597	-0.3472	
-0.864614	0.216428	0.536312	118.3	-22.4	-103.39	0.2254	0.0515	-0.3406	
-0.820206	0.212768	0.54839	119.56	-21.91	-102.69	0.2113	0.0364	-0.3309	
-0.84119	0.217526	0.530944	117.95	-19.46	-103.6	0.2143	0.032	-0.3319	
-0.841434	0.224724	0.523746	117.81	-18.62	-104.79	0.2171	0.0237	-0.3395	
-0.836554	0.227164	0.532652	115.85	-18.55	-103.6	0.2202	0.0171	-0.3346	
-0.823622	0.220454	0.53802	115.64	-16.87	-101.64	0.2187	0.0082	-0.3224	
-0.79788	0.208254	0.54351	117.11	-15.33	-99.89	0.22	-0.0124	-0.3147	
-0.796538	0.207888	0.548268	116.2	-14.35	-99.54	0.2143	-0.0061	-0.3027	
-0.794464	0.208254	0.556442	115.29	-12.95	-99.19	0.2247	-0.0172	-0.3113	
-0.787998	0.222528	0.546926	116.27	-11.13	-98.42	0.2247	-0.0308	-0.2987	
-0.75945	0.228384	0.545706	116.69	-8.54	-96.53	0.2294	-0.0325	-0.2955	
-0.785802	0.207156	0.574132	114.03	-5.53	-94.78	0.226	-0.0527	-0.2937	
-0.75762	0.178242	0.56303	114.38	-3.01	-93.03	0.2495	-0.05	-0.2849	
-0.81923	0.213744	0.564738	114.66	0.84	-89.32	0.2401	-0.0679	-0.2763	
-0.825818	0.244488	0.54778	111.23	3.5	-86.66	0.2414	-0.0704	-0.2817	
-0.83692	0.27206	0.542168	106.4	5.18	-82.95	0.2558	-0.0782	-0.2622	
-0.846192	0.260958	0.521184	99.05	6.23	-77.07	0.2665	-0.0859	-0.2598	
-0.900482	0.260836	0.498614	89.53	6.58	-72.45	0.265	-0.0944	-0.2519	
-0.886696	0.242292	0.5002	78.68	5.11	-68.88	0.2763	-0.086	-0.2425	
-0.883158	0.232532	0.49166	68.32	3.57	-63.63	0.2746	-0.0988	-0.2371	
-0.87901	0.232288	0.483608	56.98	1.68	-56.42	0.2858	-0.08989999	-0.232	
-0.854732	0.210938	0.493368	46.55	-2.45	-48.51	0.292	-0.0898	-0.2318	
-0.837042	0.19642	0.51362	35.28	-5.95	-40.25	0.2937	-0.1051	-0.2161	
-0.834358	0.153354	0.51911	26.46	-8.12	-35.35	0.2936	-0.0916	-0.2288	
-0.864614	0.129686	0.519476	20.23	-9.31	-31.57	0.3046	-0.0835	-0.2307	
-0.860222	0.08686399	0.54107	13.65	-11.55	-26.46	0.3094	-0.0923	-0.2184	
-0.848144	0.067466	0.55022	9.24	-12.95	-26.18	0.3019	-0.0852	-0.215	
-0.827648	0.047336	0.563762	6.23	-12.18	-26.88	0.3156	-0.0904	-0.2213	
-0.851316	0.01647	0.557906	4.06	-11.76	-27.44	0.3	-0.09559999	-0.2183	
-0.841312	0.015982	0.542656	2.17	-12.32	-27.09	0.3079	-0.08419999	-0.2235	
-0.813618	0.014152	0.55388	-0.91	-13.51	-26.11	0.3019	-0.0752	-0.223	
-0.809714	0.011834	0.557296	-2.66	-13.16	-25.83	0.306	-0.0878	-0.2331	
-0.818986	-0.002684	0.55571	-5.25	-13.65	-23.52	0.3049	-0.0731	-0.2274	
-0.792512	-0.022326	0.576084	-8.61	-15.26	-20.79	0.3018	-0.0747	-0.2273	
-0.82045	-0.04209	0.585722	-9.8	-15.12	-20.3	0.3051	-0.0654	-0.2281	
-0.818132	-0.07686	0.591334	-10.57	-14.7	-18.97	0.3032	-0.0624	-0.2427	
-0.804346	-0.08357	0.595482	-9.87	-14.35	-17.71	0.2952	-0.06	-0.253	
-0.780312	-0.073444	0.584624	-8.68	-14.28	-17.08	0.3046	-0.0667	-0.2451	
-0.770796	-0.071126	0.59597	-7.91	-13.09	-14.84	0.3031	-0.0652	-0.2453	
-0.765306	-0.070028	0.610366	-8.47	-11.48	-12.74	0.2985	-0.0608	-0.2444	
-0.76677	-0.080398	0.607072	-9.94	-10.71	-10.15	0.2985	-0.064	-0.2426	
-0.795928	-0.089548	0.609512	-10.22	-10.08	-7.91	0.2891	-0.0572	-0.252	
-0.78873	-0.083936	0.615856	-10.57	-8.89	-5.39	0.3002	-0.046	-0.2543	
-0.76982	-0.06649	0.618906	-11.9	-6.65	-3.29	0.2985	-0.0571	-0.2504	
-0.754448	-0.060756	0.607194	-14.63	-5.46	-1.82	0.3003	-0.0464	-0.2499	
-0.784216	-0.070272	0.606584	-17.29	-4.69	1.26	0.3077	-0.0567	-0.2531	
-0.77714	-0.076616	0.607316	-18.76	-3.71	4.2	0.2892	-0.0393	-0.2623	
-0.775432	-0.080398	0.612806	-18.83	-2.8	4.83	0.2866	-0.0364	-0.2455	
-0.78019	-0.064294	0.603534	-19.25	-2.03	5.67	0.3017	-0.0373	-0.2636	
-0.771162	-0.064294	0.597068	-21.07	-1.33	8.54	0.297	-0.0457	-0.2572	
-0.794952	-0.0671	0.609024	-22.12	0.21	12.81	0.3033	-0.0327	-0.264	
-0.805078	-0.085034	0.593896	-22.61	-0.07	13.3	0.3033	-0.0276	-0.2687	
-0.810812	-0.076128	0.576572	-22.54	-0.35	13.23	0.2892	-0.0425	-0.2605	
-0.796416	-0.079544	0.575596	-22.54	-0.42	14.49	0.2956	-0.0297	-0.2644	
-0.80093	-0.060268	0.589382	-23.87	0.56	17.57	0.2941	-0.0251	-0.2649	
-0.80947	-0.069906	0.593042	-27.44	0.91	20.51	0.2844	-0.0321	-0.273	
-0.824842	-0.078446	0.568764	-28.63	1.4	21.77	0.2953	-0.0352	-0.271	
-0.83814	-0.076128	0.560346	-29.4	1.4	24.57	0.2894	-0.0298	-0.2646	
-0.825086	-0.052094	0.566934	-33.11	0.7	26.81	0.2876	-0.0225	-0.2767	
-0.794464	-0.041602	0.572058	-42.07	-0.28	29.75	0.2922	-0.0269	-0.2776	
-0.791048	-0.053314	0.572668	-49.63	-0.07	35.84	0.272	-0.0207	-0.2829	
-0.822646	-0.069662	0.557906	-51.31	0.98	41.16	0.2844	-0.0104	-0.2907	
-0.837042	-0.06893	0.558272	-52.78	2.31	43.68	0.2878	-0.0129	-0.2804	
-0.817156	-0.06893	0.558272	-56.7	3.15	45.57	0.2785	-0.0169	-0.2731	
-0.813008	-0.074908	0.567178	-59.43	2.87	48.51	0.2721	-0.0111	-0.2866	
-0.821792	-0.057828	0.564982	-63.42	3.22	49	0.2754	-0.0002	-0.2876	
-0.831674	-0.063074	0.549976	-68.67	3.57	50.05	0.2726	0.0102	-0.2858	
-0.863394	-0.059414	0.537654	-68.74	4.13	49.7	0.2785	0.005	-0.2937	
-0.875594	-0.058682	0.520086	-69.23	3.08	50.82	0.277	0.0031	-0.2907	
-0.870714	-0.051606	0.5185	-74.62	-0.49	52.57	0.2721	0.0071	-0.3012	



-0.866566	-0.080398	0.512644	-84.42	-6.86	54.88	0.2664	0.0401	-0.3101	
-0.869006	-0.110776	0.516548	-84.7	-9.45	58.52	0.2601	0.0484	-0.3181	
-0.865956	-0.112484	0.513376	-83.65	-11.48	60.62	0.2602	0.0447	-0.3121	
-0.884866	-0.101748	0.502762	-83.3	-12.88	60.41	0.2509	0.0593	-0.3222	
-0.877668	-0.10553	0.509472	-86.94	-14.7	61.95	0.2479	0.0638	-0.3213	
-0.882304	-0.087596	0.500566	-90.58	-15.68	65.66	0.2431	0.0643	-0.3271	
-0.888282	-0.070882	0.50325	-95.13	-17.29	68.81	0.237	0.07539999	-0.3326	
-0.905606	-0.069296	0.499346	-98.7	-19.88	72.73	0.259	0.08639999	-0.3303	
-0.894138	-0.09357399	0.492758	-104.3	-23.52	79.52	0.242	0.0907	-0.3311	
-0.90341	-0.110776	0.493734	-106.47	-27.09	87.92	0.2357	0.1009	-0.3421	
-0.877424	-0.118096	0.513132	-107.45	-30.52	93.73	0.2251	0.1195	-0.347	
-0.852658	-0.117364	0.53802	-106.54	-31.92	98.84	0.2327	0.1121	-0.3475	
-0.848998	-0.130174	0.540826	-105.14	-31.5	104.09	0.2284	0.127	-0.3448	
-0.842654	-0.144814	0.54778	-104.79	-31.43	107.31	0.2222	0.1255	-0.3462	
-0.817766	-0.090524	0.565836	-101.01	-31.36	108.64	0.2116	0.1455	-0.3498	
-0.813008	-0.074664	0.583648	-102.13	-30.45	109.55	0.2148	0.1502	-0.3501	
-0.803492	-0.061	0.604144	-101.29	-28.91	111.44	0.1977	0.1649	-0.3619	
-0.774456	-0.08235	0.611952	-103.53	-26.67	116.41	0.1976	0.1602	-0.3614	
-0.762256	-0.085522	0.623664	-102.76	-26.11	116.55	0.1996	0.1701	-0.3524	
-0.741882	-0.056364	0.652578	-102.83	-21.42	114.17	0.1934	0.19	-0.3686	
-0.735294	-0.06649	0.660752	-103.46	-18.76	112.49	0.1982	0.1876	-0.3598	
-0.730658	-0.066734	0.666486	-101.57	-15.61	112.98	0.2092	0.1975	-0.3647	
-0.724314	-0.048922	0.67527	-100.03	-12.81	111.79	0.2125	0.205	-0.3625	
-0.702476	-0.05063	0.690642	-99.75	-9.8	110.53	0.2128	0.2171	-0.3608	
-0.716018	-0.041968	0.689788	-98.35	-5.81	108.5	0.2021	0.2194	-0.3556	
-0.745298	-0.049044	0.67283	-98.14	-2.59	107.1	0.2227	0.2334	-0.3536	
-0.758352	-0.053314	0.657702	-95.48	-2.1	106.19	0.2275	0.2328	-0.3463	
-0.749934	-0.055998	0.657336	-89.74	-2.66	107.17	0.2321	0.2415	-0.3555	
-0.752374	-0.054412	0.666974	-82.18	-2.31	103.67	0.2264	0.2426	-0.3373	
-0.761646	-0.06222	0.656726	-74.97	-2.73	101.15	0.2373	0.2495	-0.3434	
-0.765428	-0.047092	0.655384	-66.71	-3.85	97.02	0.2406	0.2453	-0.3315	
-0.761036	-0.043188	0.662338	-57.12	-3.99	91.84	0.2421	0.254	-0.3409	
-0.728462	-0.043554	0.663558	-48.23	-3.85	87.57	0.2486	0.2531	-0.3307	
-0.684908	-0.027572	0.677588	-37.94	-3.78	82.6	0.2517	0.2596	-0.3341	
-0.697474	0.053436	0.68991	-30.1	-3.29	75.81	0.2609	0.2521	-0.3331	
-0.694058	0.084424	0.684542	-26.53	-3.01	70	0.2732	0.2429	-0.3306	
-0.703452	0.096746	0.684054	-22.12	-3.85	63.56	0.2653	0.2367	-0.3316	
-0.682468	0.117852	0.68564	-15.47	-5.53	57.68	0.2731	0.2368	-0.3314	
-0.692716	0.132492	0.684298	-9.31	-6.51	51.38	0.2718	0.2407	-0.3247	
-0.675392	0.164212	0.688202	-3.64	-7.77	45.99	0.2761	0.2224	-0.3243	
-0.661728	0.182756	0.696742	0.77	-8.47	42.35	0.2606	0.2317	-0.3284	
-0.650626	0.21594	0.712602	4.34	-8.68	39.41	0.2623	0.2312	-0.324	
-0.652578	0.246806	0.717238	6.02	-7.84	35.91	0.2682	0.2259	-0.3305	
-0.66551	0.249734	0.702598	6.72	-6.23	31.85	0.2745	0.2273	-0.3276	
-0.659288	0.244244	0.695644	7.98	-4.76	28.98	0.2742	0.2155	-0.3322	
-0.650138	0.254492	0.70272	10.5	-4.13	25.76	0.2804	0.2121	-0.3275	
-0.65148	0.292312	0.70516	12.04	-4.13	23.52	0.2771	0.2029	-0.3281	
-0.650382	0.30378	0.711382	12.67	-3.85	19.81	0.263	0.2029	-0.3313	
-0.648674	0.296338	0.705038	13.23	-2.8	16.73	0.2736	0.1826	-0.3248	
-0.64416	0.301828	0.70272	14.77	-1.96	13.02	0.2782	0.188	-0.3324	
-0.65331	0.328546	0.691618	16.17	-1.26	9.94	0.2627	0.1859	-0.3297	
-0.650504	0.34038	0.693082	16.31	-0.91	7.49	0.2767	0.1914	-0.3355	
-0.652334	0.346236	0.69296	15.47	-0.84	4.76	0.2863	0.1821	-0.3174	
-0.656116	0.338428	0.68869	14.98	-0.7	2.73	0.2781	0.1852	-0.3349	
-0.642696	0.337086	0.68198	14.49	-1.33	1.75	0.2781	0.1786	-0.33	
-0.643672	0.34587	0.685274	13.44	-0.63	0.21	0.2719	0.18	-0.3303	
-0.657824	0.358436	0.681858	12.04	-0.77	-1.4	0.2626	0.1816	-0.3321	
-0.650748	0.354532	0.682834	10.15	-0.91	-2.45	0.27	0.1698	-0.3351	
-0.661362	0.35014	0.682102	8.19	-0.56	-3.71	0.2828	0.1736	-0.3252	
-0.679662	0.32147	0.669658	8.4	-0.63	-4.48	0.2593	0.1773	-0.336	
-0.666974	0.338306	0.66734	9.1	-1.33	-4.48	0.2622	0.1665	-0.335	
-0.679174	0.353556	0.664046	7.7	-1.12	-5.67	0.2718	0.1669	-0.322	
-0.682346	0.357582	0.663192	5.25	-0.77	-6.65	0.278	0.1706	-0.3264	
-0.678564	0.361486	0.664656	2.73	-0.98	-5.46	0.2625	0.172	-0.3284	
-0.664046	0.320128	0.674904	0.91	-0.98	-4.41	0.2719	0.1765	-0.3257	
-0.673806	0.295362	0.677222	0.91	-0.56	-5.95	0.2657	0.1767	-0.3287	
-0.67771	0.293288	0.670756	2.73	-0.07	-10.71	0.27	0.1665	-0.3334	
-0.6649	0.329278	0.662216	3.78	0.42	-13.23	0.2626	0.1763	-0.3259	
-0.661118	0.320372	0.674904	1.96	1.19	-12.46	0.2856	0.1731	-0.335	
-0.680882	0.297558	0.678808	-0.63	1.26	-10.64	0.2746	0.1683	-0.3348	
-0.691862	0.253394	0.674416	0.84	1.47	-14.28	0.2765	0.1755	-0.3298	
-0.662216	0.228018	0.67466	5.39	1.82	-19.6	0.2717	0.1709	-0.3309	
-0.653188	0.216306	0.671732	9.38	2.73	-25.06	0.278	0.1792	-0.3358	
-0.68503	0.20191	0.663314	13.79	5.11	-29.61	0.2749	0.1804	-0.3331	
-0.698816	0.185928	0.665876	17.99	5.95	-34.02	0.2623	0.1792	-0.339	
-0.710162	0.189344	0.667584	23.94	5.81	-39.34	0.2657	0.1813	-0.3292	
-0.732244	0.18788	0.653432	30.73	5.32	-43.89	0.2735	0.1884	-0.3368	
-0.737002	0.182024	0.633668	36.33	4.48	-48.3	0.2765	0.1722	-0.3281	
-0.754936	0.183976	0.6222	42.21	4.27	-52.92	0.269	0.1759	-0.32	
-0.773114	0.17751	0.60695	49	3.64	-58.59	0.255	0.1787	-0.3206	
-0.79056	0.193614	0.60634	55.23	1.75	-63.21	0.2591	0.1631	-0.3319	
-0.803858	0.213378	0.59414	60.83	-0.42	-68.81	0.2686	0.1676	-0.3292	
-0.79178	0.209962	0.584258	66.64	-2.24	-71.61	0.2671	0.1773	-0.3344	
-0.79727	0.19276	0.572302	73.08	-4.13	-74.83	0.2684	0.1614	-0.3286	
-0.806664	0.199836	0.567056	76.86	-6.09	-77.77	0.2638	0.1712	-0.3354	
-0.817766	0.210328	0.559126	79.8	-9.31	-79.31	0.2542	0.1589	-0.3373	
-0.814838	0.232166	0.558394	82.74	-12.39	-81.13	0.2461	0.1518	-0.3439	
-0.827648	0.222772	0.565226	86.87	-14.14	-81.27	0.2555	0.145	-0.3359	
-0.815326	0.209596	0.561444	88.2	-17.36	-82.18	0.2427	0.1411	-0.3444	
-0.812642	0.207034	0.55815	92.12	-18.62	-84.98	0.2473	0.135	-0.3437	
-0.802272	0.209108	0.559858	95.69	-20.16	-87.78	0.2269	0.1321	-0.3496	
-0.797148	0.211426	0.554978	97.51	-20.51	-90.79	0.233	0.1208	-0.3427	
-0.79727	0.21289	0.556808	101.29	-20.09	-91.84	0.2315	0.1255	-0.3446	
-0.810934	0.224846	0.549488	103.81	-20.72	-92.54	0.2187	0.117	-0.354	
-0.818376	0.221796	0.536068	104.37	-21.49	-93.73	0.223	0.0984	-0.3507	
-0.796782	0.203008	0.534604	110.18	-22.05	-92.68	0.2167	0.0904	-0.3487	
-0.79605	0.195322	0.531432	115.57	-20.37	-93.73	0.2119	0.0809	-0.3465	
-0.837408	0.242292	0.549244	117.46	-20.44	-96.67	0.2148	0.0783	-0.3504	
-0.878644	0.28975	0.540216	116.55	-22.12	-96.67	0.2117	0.0749	-0.3474	
-0.839482	0.283772	0.557296	118.37	-21.28	-95.41	0.2147	0.0623	-0.3432	
-0.828502	0.27755	0.5429	118.37	-19.46	-95.34	0.1988	0.0416	-0.3388	
-0.833748	0.289994	0.522038	115.5	-17.92	-97.16	0.2	0.0331	-0.3451	
-0.831552	0.28792	0.531188	108.78	-17.64	-98.21	0.1996	0.0049	-0.3396	
-0.820694	0.30439	0.542168	107.94	-16.03	-97.86	0.2109	0.0166	-0.3319	
-0.817888	0.317688	0.53924	106.96	-13.79	-96.11	0.2046	0.005	-0.3238	
-0.829722	0.291946	0.528992	102.83	-13.16	-95.13	0.2121	-0.0103	-0.3222	
-0.808128	0.263276	0.538508	98.49	-13.93	-93.66	0.2091	-0.0122	-0.3193	
-0.803126	0.248148	0.537044	96.04	-12.95	-91.21	0.2108	-0.0078	-0.3168	
-0.826916	0.238998	0.53009	90.79	-11.69	-89.11	0.2105	-0.0252	-0.3109	
-0.832284	0.226554	0.52277	89.39	-10.92	-89.18	0.2133	-0.0471	-0.3059	
-0.822646	0.222528	0.5429	92.12	-9.8	-89.88	0.2152	-0.0485	-0.2915	
-0.799466	0.21533	0.554124	92.61	-9.8	-89.53	0.231	-0.0391	-0.2906	
-0.803492	0.208376	0.53314	92.54	-6.93	-89.04	0.2354	-0.0482	-0.2911	
-0.8296	0.193614	0.52887	94.01	-4.62	-88.41	0.2448	-0.0649	-0.2751	
-0.798002	0.180438	0.53497	95.97	-3.22	-86.66	0.246	-0.0667	-0.2877	
-0.862418	0.198616	0.549366	98.84	-2.03	-86.31	0.2477	-0.08199999	-0.272	
-0.847534	0.227652	0.553636	97.44	-0.91	-87.22	0.2523	-0.0784	-0.2765	
-0.83875	0.249246	0.53314	92.61	0.21	-86.17	0.2728	-0.0827	-0.2599	
-0.86376	0.235094	0.531432	85.61	-0.14	-80.15	0.2621	-0.08199999	-0.2546	
-0.862296	0.23912	0.524722	76.93	-1.82	-75.11	0.2716	-0.0958	-0.2374	
-0.87901	0.241804	0.520086	66.64	-3.57	-70.42	0.2652	-0.0968	-0.2432	
-0.845826	0.223626	0.526918	54.18	-7.28	-65.31	0.2764	-0.09299999	-0.2333	
-0.839482	0.208132	0.524478	42.98	-10.08	-58.38	0.2902	-0.1037	-0.2305	
-0.84424	0.188978	0.530456	31.08	-12.25	-48.79	0.284	-0.0991	-0.2326	
-0.819596	0.146156	0.553026	20.58	-14.77	-42.77	0.2826	-0.0844	-0.2411	
-0.808128	0.110654	0.561688	13.65	-16.87	-39.27	0.2888	-0.0826	-0.2425	
-0.794708	0.074054	0.572424	9.38	-17.71	-36.75	0.286	-0.0774	-0.2346	
-0.79971	0.060756	0.574742	6.16	-17.36	-34.79	0.2906	-0.077	-0.2373	
-0.804834	0.051362	0.566202	1.47	-17.64	-31.15	0.2841	-0.0876	-0.2393	
-0.796782	0.037942	0.574254	-2.24	-16.87	-27.86	0.284	-0.08199999	-0.2498	
-0.79178	0.033794	0.572668	-4.69	-15.75	-25.69	0.2876	-0.0675	-0.2411	
-0.771528	0.008174	0.58621	-6.58	-15.05	-24.64	0.2936	-0.0599	-0.2545	
-0.78019	-0.0061	0.59048	-7.91	-14.21	-24.01	0.2938	-0.0637	-0.247	
-0.77653	-0.032818	0.593286	-8.05	-13.86	-22.05	0.2904	-0.0694	-0.2523	
-0.804468	-0.036478	0.595238	-7.84	-13.16	-19.46	0.2892	-0.056	-0.2479	
-0.780068	-0.048312	0.602314	-10.01	-13.3	-17.29	0.2828	-0.057	-0.255	
-0.76372	-0.07259	0.608902	-12.53	-12.11	-12.95	0.2908	-0.0492	-0.2542	
-0.796904	-0.08906	0.604144	-13.51	-10.71	-8.05	0.2733	-0.0549	-0.2626	
-0.80093	-0.07869	0.609512	-14.49	-9.87	-5.6	0.2795	-0.0529	-0.2654	
-0.774456	-0.08686399	0.613904	-16.45	-9.38	-5.67	0.2843	-0.0483	-0.2644	
