Sensor string: A
Serial number: 1970-01-0000
Firmware version: 2.015
Hardware version: 2.2
Calibration quality: 5
ax	ay	az	gx	gy	gz	mx	my	mz

0.100772	0.973194	0.322446	-7	3.71	-0.14	-0.1145	-0.3346	-0.3249	Reference
0.123586	0.972462	0.36722	-3.15	1.89	-1.54	-0.1175	-0.3252	-0.3232	
0.151402	0.952698	0.360266	-2.8	2.31	-2.03	-0.1176	-0.3267	-0.3154	
0.164334	0.929274	0.367586	-1.89	2.31	-2.24	-0.1133	-0.3267	-0.317	
0.148596	0.894992	0.34892	-1.82	3.43	-0.28	-0.1163	-0.3159	-0.3153	
0.141398	0.880596	0.35746	0.63	3.01	0.98	-0.1145	-0.33	-0.3326	
0.128588	0.890112	0.353922	3.15	2.1	2.73	-0.1121	-0.3205	-0.3123	
0.12139	0.914512	0.356728	6.65	1.96	3.01	-0.116	-0.3299	-0.3248	
0.11346	0.919026	0.35624	7.98	-1.75	3.08	-0.1019	-0.3331	-0.3235	
0.135908	0.93635	0.346846	6.51	-8.61	2.38	-0.1134	-0.3251	-0.3123	
0.14579	0.941352	0.349408	5.11	-10.15	1.75	-0.1105	-0.3314	-0.3171	
0.152012	0.95404	0.345504	5.25	-9.31	-0.07	-0.1217	-0.3283	-0.3216	
0.14579	0.9577	0.33855	3.92	-6.58	-0.63	-0.1161	-0.3421	-0.3125	
0.122732	0.968802	0.310734	1.54	-5.11	-0.56	-0.1219	-0.3235	-0.3106	
0.121756	0.955748	0.310368	0.28	-5.74	0.21	-0.1274	-0.3281	-0.3168	
0.14152	0.94184	0.310734	-1.89	-5.95	1.12	-0.1217	-0.3344	-0.3154	
0.167018	0.951112	0.30988	-4.06	-8.96	4.2	-0.1204	-0.3266	-0.3153	
0.15921	0.966972	0.276208	-6.09	-4.76	6.37	-0.1316	-0.3281	-0.3183	
0.104066	0.997716	0.265228	-12.81	-2.8	8.82	-0.1218	-0.3358	-0.3092	
0.099064	1.022604	0.274134	-20.51	-4.69	10.71	-0.1247	-0.3189	-0.3167	
0.112484	1.011258	0.274866	-31.64	-2.94	12.39	-0.1275	-0.3219	-0.3167	
0.119438	0.985882	0.27267	-41.37	-3.29	14	-0.1261	-0.3204	-0.3167	
0.122244	0.997838	0.287188	-51.73	-2.45	17.22	-0.1302	-0.3189	-0.3244	
0.08174	1.006988	0.244244	-59.92	-4.41	21.14	-0.1289	-0.3112	-0.3243	
0.104676	1.00345	0.299632	-60.27	-6.23	22.54	-0.1401	-0.2943	-0.3426	
0.138592	0.978196	0.338428	-70.21	-10.5	26.74	-0.1416	-0.2773	-0.3424	
0.148474	0.95465	0.392718	-73.36	-13.02	29.19	-0.1432	-0.2649	-0.3422	
0.177266	0.918294	0.38674	-73.15	-17.36	31.92	-0.1514	-0.2604	-0.3637	
0.17141	0.83326	0.366488	-72.94	-12.88	30.31	-0.1584	-0.2527	-0.3682	
0.224602	0.76555	0.435784	-74.06	-4.62	30.03	-0.1518	-0.231	-0.3571	
0.248148	0.70821	0.473726	-67.62	-6.72	30.8	-0.1614	-0.231	-0.371	
0.239486	0.729438	0.476898	-59.43	-9.8	31.64	-0.1702	-0.2092	-0.3659	
0.20618	0.784948	0.499468	-55.58	-8.19	34.3	-0.1671	-0.2048	-0.383	
0.21045	0.81496	0.563274	-52.78	-9.94	32.97	-0.1673	-0.1985	-0.3736	
0.263032	0.808494	0.611952	-49	-15.05	32.27	-0.1714	-0.1909	-0.3874	
0.30134	0.7869	0.641476	-48.65	-17.85	29.61	-0.1831	-0.169	-0.376	
0.303536	0.76311	0.650626	-47.32	-20.58	26.25	-0.1703	-0.16	-0.3886	
0.320738	0.715652	0.659166	-45.43	-25.06	25.06	-0.19	-0.1706	-0.3837	
0.317688	0.664534	0.58621	-44.31	-30.8	26.04	-0.1973	-0.1504	-0.3818	
0.311466	0.64172	0.584502	-44.94	-31.99	25.41	-0.1903	-0.1443	-0.3849	
0.350384	0.604998	0.604266	-44.17	-30.66	24.29	-0.1974	-0.1411	-0.3801	
0.40809	0.582428	0.618662	-40.95	-28.91	25.34	-0.2087	-0.121	-0.3937	
0.400648	0.61305	0.636596	-40.39	-22.4	25.83	-0.2144	-0.1224	-0.3874	
0.36356	0.60573	0.6161	-43.12	-16.87	25.48	-0.2146	-0.1161	-0.3795	
0.371246	0.569618	0.637084	-44.1	-12.6	21.91	-0.2118	-0.113	-0.3795	
0.403088	0.543022	0.64782	-44.52	-11.34	18.62	-0.2204	-0.0944	-0.3807	
0.415898	0.516914	0.636474	-46.2	-9.59	17.57	-0.2203	-0.0915	-0.3916	
0.40382	0.490928	0.650626	-48.93	-7.91	17.78	-0.2177	-0.0806	-0.3852	
0.40809	0.451034	0.67954	-50.4	-8.96	18.62	-0.2233	-0.0774	-0.3835	
0.42151	0.45933	0.698938	-49.07	-11.48	20.93	-0.2248	-0.062	-0.3895	
0.416752	0.442372	0.705526	-49.42	-12.6	22.68	-0.2249	-0.0588	-0.3848	
0.451766	0.402844	0.752252	-49.28	-13.02	23.73	-0.2153	-0.0465	-0.3786	
0.480192	0.397476	0.736758	-47.25	-13.51	26.25	-0.2306	-0.0496	-0.3893	
0.50386	0.384056	0.776164	-47.6	-11.62	28.63	-0.2195	-0.0372	-0.3831	
0.51972	0.366122	0.80337	-45.22	-10.01	28.56	-0.2337	-0.0278	-0.3858	
0.524966	0.384178	0.808372	-40.39	-7.14	26.88	-0.2412	-0.0044	-0.3714	
0.527894	0.348432	0.794098	-38.22	-5.74	24.22	-0.2341	0.0047	-0.3776	
0.531432	0.336598	0.787266	-35.63	-3.78	21.35	-0.2301	0.014	-0.3698	
0.527162	0.33245	0.772748	-34.86	-1.68	20.65	-0.2358	0.0141	-0.3697	
0.52826	0.301584	0.771528	-35.91	0.77	20.02	-0.2415	0.0203	-0.3664	
0.514718	0.293776	0.789462	-32.2	1.75	18.2	-0.2401	0.0296	-0.3694	
0.520086	0.293776	0.782386	-28.91	2.73	16.24	-0.233	0.031	-0.3742	
0.5063	0.3111	0.785436	-28.21	2.94	15.12	-0.236	0.0296	-0.3648	
0.501176	0.296948	0.804346	-29.12	3.99	13.51	-0.2331	0.0357	-0.371	
0.503006	0.27816	0.792878	-29.26	2.45	14.07	-0.236	0.048	-0.377	
0.49288	0.261568	0.793244	-29.61	2.17	14.56	-0.2417	0.0527	-0.3722	
0.498248	0.23851	0.795074	-29.75	1.47	14.49	-0.2334	0.062	-0.3691	
0.508374	0.231068	0.80154	-29.4	1.47	14.21	-0.2391	0.0652	-0.3659	
0.512522	0.22753	0.820938	-28.56	0.84	14	-0.2238	0.0774	-0.3644	
0.510814	0.231556	0.841556	-28.28	-0.63	13.51	-0.2293	0.0651	-0.366	
0.525576	0.203618	0.840702	-28	-1.61	13.37	-0.2366	0.0853	-0.361	
0.53375	0.181292	0.840092	-26.25	-0.7	11.97	-0.2251	0.0727	-0.366	
0.538752	0.16531	0.842288	-23.52	0	10.36	-0.2211	0.0897	-0.3643	
0.538386	0.167262	0.850828	-21.91	0.84	9.1	-0.2225	0.0851	-0.3612	
0.530212	0.172874	0.846436	-19.81	-0.07	8.19	-0.2325	0.1022	-0.3655	
0.543754	0.142618	0.839726	-19.04	0.21	7.35	-0.231	0.0929	-0.3657	
0.55205	0.141032	0.839726	-17.29	1.05	6.72	-0.227	0.1007	-0.3563	
0.549244	0.136762	0.843386	-16.94	2.59	6.72	-0.2354	0.0992	-0.3593	
0.544242	0.144692	0.851438	-15.47	3.64	5.88	-0.2297	0.1068	-0.3686	
0.535458	0.145546	0.843142	-13.79	2.45	5.53	-0.2255	0.1098	-0.3671	
0.53314	0.13115	0.847778	-13.37	2.31	4.62	-0.2284	0.1084	-0.3608	
0.533262	0.128222	0.838872	-12.04	1.61	4.13	-0.2312	0.1054	-0.3577	
0.517036	0.132126	0.851804	-10.92	1.4	3.85	-0.2159	0.1207	-0.3593	
0.514962	0.116998	0.837042	-10.15	-1.05	4.48	-0.223	0.1193	-0.3546	
0.526186	0.112972	0.848144	-8.47	-1.61	4.2	-0.2271	0.1146	-0.3577	
0.529968	0.109312	0.856928	-7.42	-1.26	3.64	-0.2271	0.1192	-0.3623	
0.537044	0.112484	0.868152	-5.74	-0.77	2.8	-0.223	0.1254	-0.3591	
0.547536	0.117974	0.884866	-1.75	-1.96	1.68	-0.2272	0.1208	-0.3545	
0.543876	0.122366	0.878522	-0.56	-1.33	0.42	-0.2301	0.1225	-0.3513	
0.545584	0.11712	0.881816	2.03	-2.59	-0.56	-0.2242	0.1191	-0.3654	
0.558394	0.100772	0.881206	3.64	-2.52	-2.17	-0.2327	0.1162	-0.3622	
0.5551	0.106872	0.884622	7.14	-2.66	-3.43	-0.2243	0.1176	-0.3608	
0.569862	0.0915	0.904142	8.68	-2.03	-5.32	-0.2216	0.1193	-0.3499	
0.56547	0.073932	0.912804	12.11	-3.5	-5.81	-0.2215	0.1177	-0.3546	
0.580232	0.064538	0.920856	18.55	-6.3	-6.93	-0.2327	0.1177	-0.3606	
0.580842	0.084912	0.923174	23.87	-5.67	-9.17	-0.2271	0.1162	-0.3561	
0.589138	0.061366	0.920002	25.13	-4.69	-10.99	-0.2284	0.1023	-0.3531	
0.607316	0.055998	0.93452	29.75	-5.46	-13.58	-0.2311	0.1007	-0.3609	
0.601948	0.056242	0.909266	34.16	-3.08	-16.31	-0.231	0.0975	-0.3672	
0.58499	0.0732	0.894138	38.85	-0.21	-19.18	-0.2381	0.0838	-0.3563	
0.575108	0.085888	0.881328	41.65	2.31	-22.05	-0.2323	0.0883	-0.3673	
0.57584	0.111264	0.888648	47.04	1.26	-24.08	-0.2323	0.076	-0.3596	
0.564616	0.165554	0.852536	53.06	2.87	-27.37	-0.2348	0.062	-0.3691	
0.53131	0.180438	0.823012	55.09	3.43	-28.14	-0.2489	0.0499	-0.3628	
0.516304	0.212158	0.802394	58.87	3.71	-30.38	-0.2391	0.0498	-0.3614	
0.497638	0.232654	0.777872	61.46	3.57	-30.94	-0.2373	0.0372	-0.3772	
0.485926	0.266814	0.749568	64.05	4.69	-32.06	-0.2359	0.0341	-0.3726	
0.481534	0.29219	0.753228	66.01	5.11	-32.13	-0.2316	0.014	-0.3667	
0.4819	0.335622	0.72834	67.55	4.83	-31.01	-0.2412	0.0048	-0.3744	
0.470066	0.35563	0.717604	68.11	6.93	-31.01	-0.2381	-0.0184	-0.3794	
0.465552	0.391864	0.699548	69.02	9.24	-29.82	-0.2353	-0.0169	-0.3779	
0.457134	0.42212	0.6893	69.37	10.85	-29.75	-0.2381	-0.0353	-0.3688	
0.452864	0.446886	0.686494	70	10.71	-30.52	-0.2406	-0.0524	-0.3798	
0.449936	0.4636	0.66856	72.03	9.73	-31.57	-0.2279	-0.0586	-0.3708	
0.45079	0.487634	0.649528	72.66	11.27	-32.2	-0.2262	-0.0804	-0.3789	
0.436638	0.514962	0.65819	73.64	12.39	-32.69	-0.2234	-0.0805	-0.3805	
0.436272	0.54656	0.64477	74.69	15.61	-33.39	-0.2275	-0.1019	-0.3714	
0.420778	0.58499	0.638304	73.29	13.3	-31.57	-0.2161	-0.1083	-0.3747	
0.398574	0.616954	0.619882	73.29	14.42	-32.13	-0.2115	-0.1347	-0.3814	
0.386496	0.6222	0.599996	73.36	14.77	-32.83	-0.2131	-0.1422	-0.3628	
0.37393	0.632082	0.568276	73.71	14.7	-34.02	-0.1972	-0.1581	-0.3803	
0.360022	0.649894	0.563274	75.18	15.82	-37.17	-0.2057	-0.1794	-0.3634	
0.34038	0.674904	0.554612	77.49	15.75	-39.83	-0.1999	-0.1873	-0.3714	
0.33428	0.696864	0.549488	79.45	14.56	-41.02	-0.1886	-0.2027	-0.3577	
0.332572	0.73017	0.521062	81.48	14.49	-41.65	-0.1885	-0.212	-0.3579	
0.330254	0.740662	0.484706	79.31	16.1	-42	-0.1884	-0.2351	-0.3488	
0.307562	0.731024	0.440298	76.79	19.53	-41.16	-0.191	-0.2475	-0.3552	
0.28914	0.749446	0.429684	74.62	21.77	-42.56	-0.1756	-0.2507	-0.3524	
0.276574	0.780922	0.441274	77.63	24.57	-37.94	-0.1684	-0.2723	-0.3434	
0.253394	0.83753	0.39162	83.23	20.79	-34.02	-0.1642	-0.277	-0.3389	
0.225578	0.878278	0.3477	80.71	19.6	-26.18	-0.1529	-0.291	-0.3346	
0.207034	0.872544	0.295118	73.99	22.12	-24.36	-0.1502	-0.3046	-0.3146	
0.180804	0.869372	0.256322	74.06	25.9	-23.52	-0.1487	-0.3063	-0.3193	
0.150914	0.895724	0.21533	74.06	29.96	-23.73	-0.1415	-0.3218	-0.3181	
0.102602	0.928542	0.181292	69.72	33.53	-24.92	-0.1376	-0.3277	-0.2964	
0.103212	0.952332	0.160918	66.08	38.08	-24.01	-0.1403	-0.337	-0.2981	
0.098698	0.959896	0.153964	59.08	39.27	-25.69	-0.1218	-0.3358	-0.3061	
0.096868	0.951234	0.148718	54.6	43.61	-25.9	-0.1191	-0.3618	-0.2863	
0.116144	0.947574	0.130296	53.06	43.96	-27.02	-0.1064	-0.3528	-0.2895	
0.113704	0.98881	0.118218	52.36	37.87	-28.49	-0.0951	-0.3744	-0.2806	
0.082472	1.019432	0.100284	50.12	43.68	-26.74	-0.1021	-0.382	-0.2775	
0.047214	1.010526	0.080764	47.88	45.29	-23.03	-0.091	-0.3759	-0.2714	
0.03599	1.007354	0.109312	52.01	40.32	-23.73	-0.0796	-0.3837	-0.2701	
0.03965	1.013576	0.07747	56.21	35.14	-24.78	-0.0839	-0.3867	-0.2638	
0.031232	1.035292	0.034404	53.69	34.86	-25.06	-0.0642	-0.3977	-0.2596	
0.01891	1.027484	0.062586	53.69	34.23	-23.52	-0.0627	-0.4146	-0.249	
0.010858	1.027484	0.036356	59.15	22.75	-23.17	-0.0614	-0.4053	-0.2489	
0.01586	1.05286	0.031476	57.33	19.18	-20.65	-0.0545	-0.416	-0.2352	
0.019642	1.047858	0.009881999	54.11	17.64	-20.02	-0.0489	-0.4222	-0.226	
0.02928	1.011746	0.00366	47.6	15.12	-17.5	-0.0405	-0.4238	-0.223	
0.025742	0.996862	-0.009393999	48.51	15.75	-17.01	-0.0307	-0.4376	-0.2063	
0.008052	0.998692	-0.018544	53.55	13.51	-17.01	-0.0364	-0.4374	-0.2	
-0.025864	1.038586	-0.042822	52.85	13.37	-18.34	-0.0294	-0.4344	-0.2016	
-0.01159	1.086654	-0.066978	47.11	15.05	-18.06	-0.0294	-0.4482	-0.1909	
0.001708	1.064206	-0.080032	38.92	17.08	-17.36	-0.0225	-0.4467	-0.1863	
-0.03355	1.046638	-0.097112	35.21	14.98	-17.85	-0.024	-0.4466	-0.1801	
-0.070638	1.045662	-0.10431	34.37	14.56	-17.71	-0.0112	-0.4606	-0.1789	
-0.066856	1.061034	-0.118706	34.09	13.02	-17.5	-0.0114	-0.4497	-0.1679	
-0.043066	1.067744	-0.123464	30.94	10.5	-17.78	-0.0129	-0.4542	-0.1632	
-0.037332	1.050176	-0.122854	26.67	11.97	-17.64	-0.0143	-0.4603	-0.1571	
-0.066978	1.035414	-0.134688	25.2	11.76	-20.23	-0.0044	-0.4559	-0.1634	
-0.062342	1.033584	-0.121024	25.2	8.96	-18.34	-0.0001	-0.4652	-0.162	
-0.049654	1.020164	-0.12444	25.69	8.4	-17.92	0.0123	-0.4667	-0.1514	
-0.047946	0.993446	-0.129198	24.71	7.28	-16.1	0.0052	-0.4681	-0.1435	
-0.05124	0.999546	-0.137738	25.48	7.14	-16.87	0.0137	-0.4682	-0.1452	
-0.049776	1.023092	-0.140056	21.49	8.75	-14.35	0.0134	-0.4649	-0.1296	
-0.065758	1.0187	-0.14884	19.11	9.52	-13.02	0.0163	-0.4666	-0.1359	
-0.075884	1.023946	-0.158112	17.22	10.22	-13.37	0.025	-0.4822	-0.1393	
-0.084546	1.031754	-0.151646	13.3	10.71	-11.27	0.0231	-0.4695	-0.1158	
-0.091378	1.020774	-0.146278	10.15	8.75	-7.07	0.026	-0.4681	-0.1236	
-0.08418	1.01565	-0.13054	8.82	7.49	-4.48	0.0191	-0.4742	-0.1267	
-0.076494	1.000278	-0.126392	9.03	6.51	-3.22	0.0274	-0.4742	-0.1144	
-0.05551	1.000644	-0.128832	7.98	5.6	-4.27	0.026	-0.465	-0.1236	
-0.053314	1.000034	-0.141032	7.77	6.16	-3.08	0.0262	-0.4744	-0.133	
-0.051118	1.009794	-0.152622	8.61	5.6	-2.17	0.0204	-0.4726	-0.1205	
-0.070028	1.012356	-0.165798	7.91	6.65	-2.17	0.0289	-0.4743	-0.1206	
-0.095282	1.017602	-0.166042	7.56	6.23	-2.17	0.0303	-0.4697	-0.1268	
-0.101016	1.018334	-0.167994	7.14	5.81	-2.59	0.0375	-0.4852	-0.124	
-0.095282	1.011624	-0.172142	5.74	3.01	-4.48	0.0301	-0.4771	-0.1036	
-0.09357399	0.990518	-0.186782	5.18	2.1	-3.78	0.0303	-0.4743	-0.1207	
-0.086254	0.999058	-0.17568	4.76	1.19	-3.5	0.0343	-0.4696	-0.1113	
-0.086132	0.996618	-0.177998	5.18	1.61	-2.8	0.0247	-0.485	-0.1145	
-0.087108	0.975146	-0.185562	3.5	2.8	-2.87	0.0385	-0.4711	-0.1099	
-0.08479	0.98515	-0.190076	5.81	1.75	-3.71	0.0343	-0.4665	-0.116	
-0.095404	1.002352	-0.182024	5.67	2.73	-3.01	0.0288	-0.4819	-0.113	
-0.100162	1.00528	-0.182634	4.83	2.1	-0.56	0.0357	-0.4696	-0.1114	
-0.091378	0.978196	-0.185318	3.71	5.88	-2.94	0.0356	-0.4679	-0.1036	
-0.094062	0.971974	-0.184464	4.2	4.76	-3.43	0.0275	-0.488	-0.1115	
-0.094428	0.986004	-0.193736	4.34	5.04	-1.89	0.0371	-0.4787	-0.1006	
-0.096136	1.000156	-0.205692	4.55	5.32	-1.68	0.037	-0.4726	-0.1036	
-0.109678	1.002718	-0.20801	4.34	6.86	-1.33	0.0358	-0.4758	-0.113	
-0.110044	1.021018	-0.211304	6.65	8.33	-1.47	0.0357	-0.4757	-0.1068	
-0.091256	1.012478	-0.224724	9.73	18.27	0.7	0.0371	-0.4819	-0.1038	
-0.132126	1.013698	-0.2196	10.57	10.22	-4.9	0.0399	-0.4773	-0.1053	
-0.112118	1.016138	-0.213134	4.83	6.72	-3.08	0.0399	-0.4726	-0.1037	
-0.101992	1.000278	-0.201666	3.22	2.8	-2.24	0.0429	-0.4774	-0.1147	
-0.084546	0.979294	-0.211426	4.48	3.78	-2.38	0.0442	-0.4804	-0.107	
-0.072102	0.991006	-0.2257	3.36	3.92	-0.84	0.0426	-0.4818	-0.0945	
-0.087352	0.995032	-0.231068	2.87	3.78	0	0.0484	-0.4804	-0.1008	
-0.102236	0.999912	-0.232776	2.87	3.85	-0.14	0.0342	-0.4741	-0.1036	
-0.115046	1.01382	-0.227408	2.24	3.78	-0.35	0.0441	-0.4712	-0.1068	
-0.117608	1.0126	-0.235582	1.82	2.31	0.07	0.0427	-0.4741	-0.1006	
-0.091256	0.991982	-0.23119	1.05	2.03	0.91	0.0553	-0.4834	-0.0901	
-0.078446	0.99674	-0.23485	-1.33	2.17	0.35	0.0454	-0.4849	-0.08989999	
-0.089914	1.003694	-0.238876	-3.22	2.73	0.49	0.0371	-0.4818	-0.1007	
-0.097112	0.987956	-0.221918	-4.55	3.99	1.54	0.0441	-0.4742	-0.1007	
-0.094184	0.988444	-0.220698	-3.85	3.29	2.66	0.037	-0.4725	-0.099	
-0.0915	0.991494	-0.23485	-3.36	2.31	1.68	0.0425	-0.4694	-0.0944	
-0.103334	1.000644	-0.220942	-2.31	0.35	1.05	0.0314	-0.4786	-0.09739999	
-0.116022	1.016626	-0.221674	-2.87	0.56	1.05	0.0327	-0.477	-0.0927	
-0.11468	1.001132	-0.23546	-4.41	-0.07	0.91	0.0456	-0.4758	-0.1054	
-0.085888	0.98515	-0.222162	-3.78	-0.91	2.38	0.0399	-0.4695	-0.1052	
-0.081496	0.99125	-0.21289	-4.83	0.14	3.5	0.0454	-0.4741	-0.0945	
-0.09357399	1.02297	-0.227652	-6.3	-0.07	3.29	0.037	-0.4726	-0.1036	
-0.097966	0.998448	-0.22814	-6.44	-1.26	3.36	0.0427	-0.4742	-0.1053	
-0.092964	1.005768	-0.226188	-7.84	-1.68	3.22	0.0302	-0.4819	-0.1099	
-0.102602	1.03578	-0.220088	-9.73	-1.96	3.71	0.0301	-0.4772	-0.1067	
-0.113582	1.05042	-0.224724	-11.2	-2.31	3.22	0.0344	-0.4819	-0.1068	
-0.093452	1.00223	-0.21899	-12.25	-2.73	2.45	0.0469	-0.4742	-0.1038	
-0.063318	1.009916	-0.20496	-14.63	-3.78	2.45	0.0358	-0.4727	-0.1129	
-0.07259	1.014918	-0.197396	-15.96	-3.36	3.5	0.0358	-0.4758	-0.113	
-0.09552599	1.0248	-0.194468	-17.71	-3.78	4.13	0.0303	-0.4758	-0.1207	
-0.123464	1.03456	-0.19215	-19.04	-5.95	4.62	0.0331	-0.4774	-0.1176	
-0.110532	1.035658	-0.191174	-20.65	-8.05	3.85	0.036	-0.4744	-0.127	
-0.093086	1.020774	-0.181658	-22.61	-11.83	1.89	0.0346	-0.476	-0.1301	
-0.08174	1.042368	-0.161162	-26.11	-12.6	-0.21	0.0373	-0.4621	-0.1315	
-0.122854	1.051518	-0.15372	-29.12	-13.72	0.42	0.0404	-0.47	-0.1441	
-0.15799	1.050298	-0.150182	-30.17	-19.04	-0.07	0.0319	-0.4668	-0.1424	
-0.074298	1.111054	-0.129564	-39.83	-27.09	4.97	0.0249	-0.4637	-0.1453	
-0.049776	1.01565	-0.117242	-44.8	-25.55	7.07	0.0306	-0.4608	-0.1516	
-0.072224	0.949526	-0.10919	-46.69	-23.45	2.8	0.0222	-0.4668	-0.1515	
-0.111874	0.970754	-0.07625	-44.31	-22.54	2.73	0.0268	-0.4672	-0.178	
-0.133224	1.040416	-0.053192	-38.36	-27.72	7.49	0.0183	-0.4702	-0.1748	
-0.10431	1.115324	-0.070394	-36.82	-26.25	10.15	0.0113	-0.4609	-0.1824	
-0.031598	1.072258	-0.017202	-41.09	-26.6	14.63	0.0098	-0.4501	-0.1822	
-0.016714	0.900238	0.007808	-51.38	-25.13	9.87	0.0085	-0.4456	-0.1915	
-0.019154	0.917806	-0.003538	-55.44	-24.36	4.06	0.0114	-0.4488	-0.1978	
-0.075518	1.022726	0.02013	-49.21	-24.29	13.79	0.0074	-0.4428	-0.2178	
-0.139568	1.1407	0.002806	-42.28	-22.75	23.24	0.0018	-0.4412	-0.2193	
-0.108458	1.05652	0.036234	-41.51	-22.26	27.44	-0.0081	-0.4363	-0.2113	
0.036844	0.902068	0.070028	-54.04	-29.54	14.91	-0.0151	-0.4256	-0.2235	
0.068198	0.952942	0.027572	-61.74	-30.94	3.22	-0.0051	-0.4166	-0.2391	
-0.066734	1.00894	0.045384	-56.21	-23.31	10.64	-0.0191	-0.4227	-0.242	
-0.10492	1.007232	0.063562	-52.22	-22.89	19.74	-0.0206	-0.4103	-0.2418	
-0.027694	1.044442	0.091134	-57.12	-33.32	23.24	-0.0232	-0.4074	-0.2604	
-0.018544	1.090558	0.053192	-64.19	-28.84	22.75	-0.0358	-0.4043	-0.268	
-0.02806	0.993202	0.13054	-66.5	-22.33	19.46	-0.0371	-0.3921	-0.2818	
-0.004758	0.975024	0.119072	-71.82	-27.79	14.91	-0.0472	-0.3826	-0.2753	
-0.039406	1.002352	0.14945	-72.94	-32.27	19.46	-0.0626	-0.3672	-0.2935	
-0.028304	0.999302	0.139202	-75.74	-32.55	24.71	-0.054	-0.3628	-0.3029	
0.047214	0.95343	0.219356	-73.36	-34.51	29.4	-0.061	-0.3566	-0.3089	
0.077714	0.944646	0.222284	-78.96	-34.51	32.13	-0.0708	-0.3489	-0.3195	
0.031598	0.952576	0.249734	-79.94	-34.65	34.3	-0.0779	-0.3458	-0.3225	
0.042822	0.92598	0.274866	-79.03	-32.9	35.28	-0.075	-0.3366	-0.3302	
0.058194	0.920856	0.300852	-80.92	-36.26	35.56	-0.0963	-0.3148	-0.3373	
0.12932	0.87901	0.35624	-79.1	-33.6	34.72	-0.1118	-0.3023	-0.3416	
0.159698	0.86437	0.388204	-76.93	-37.52	37.45	-0.1132	-0.3008	-0.3447	
0.157624	0.880596	0.410042	-72.94	-31.01	40.25	-0.1135	-0.2761	-0.3443	
0.120902	0.910486	0.423584	-71.54	-30.03	41.44	-0.1274	-0.2837	-0.3504	
0.212402	0.825208	0.435662	-64.61	-27.37	40.18	-0.1317	-0.2545	-0.3655	
0.228872	0.793732	0.467992	-63.14	-25.41	29.61	-0.1288	-0.2469	-0.3733	
0.220576	0.778604	0.455182	-66.71	-33.6	37.52	-0.1459	-0.2373	-0.3651	
0.252784	0.769576	0.485438	-62.86	-27.65	34.16	-0.1529	-0.2357	-0.3696	
0.292068	0.766526	0.47885	-63.56	-26.32	34.65	-0.1517	-0.2172	-0.3678	
0.299754	0.743224	0.53436	-65.31	-20.16	37.24	-0.1615	-0.2111	-0.3816	
0.293532	0.703818	0.579012	-62.51	-15.96	34.79	-0.1588	-0.1972	-0.3815	
0.287798	0.730536	0.586088	-57.05	-14	33.46	-0.166	-0.1816	-0.378	
0.291946	0.751154	0.585966	-54.67	-12.88	30.94	-0.1742	-0.1909	-0.3905	
0.28548	0.752862	0.547536	-55.16	-13.16	29.68	-0.1816	-0.1721	-0.3792	
0.309636	0.689666	0.594018	-60.62	-10.64	26.11	-0.1732	-0.1661	-0.3793	
0.303414	0.633546	0.591944	-61.25	-14.21	24.43	-0.176	-0.1523	-0.3915	
0.317322	0.61	0.623298	-60.62	-15.47	24.29	-0.1859	-0.1429	-0.3928	
0.335256	0.579744	0.622322	-58.94	-14.07	23.45	-0.196	-0.1257	-0.3908	
0.347822	0.566202	0.652212	-59.57	-11.48	22.19	-0.189	-0.1242	-0.3878	
0.375882	0.601582	0.685152	-60.41	-11.83	25.41	-0.192	-0.09649999	-0.3967	
0.32147	0.58865	0.675392	-60.27	-12.53	27.51	-0.1892	-0.09339999	-0.3967	
0.330498	0.524722	0.69052	-58.59	-14.77	25.34	-0.2033	-0.0887	-0.4011	
0.36112	0.480558	0.67893	-56.63	-18.76	24.5	-0.1965	-0.0686	-0.3947	
0.37332	0.46665	0.693936	-58.73	-17.5	23.1	-0.2009	-0.0638	-0.3884	
0.404674	0.41846	0.732488	-61.95	-15.26	24.43	-0.2164	-0.0529	-0.3942	
0.439932	0.371856	0.756766	-62.3	-14.84	27.44	-0.2039	-0.0391	-0.3911	
0.460672	0.36478	0.770308	-61.39	-14.98	32.13	-0.2097	-0.025	-0.3877	
0.446154	0.357582	0.780434	-61.11	-13.02	34.72	-0.2168	-0.0142	-0.3922	
0.434198	0.33428	0.787876	-59.15	-12.04	33.88	-0.2184	0.0012	-0.3919	
0.437736	0.305976	0.80337	-57.4	-12.18	32.41	-0.2072	0.0012	-0.3859	
0.4758	0.262544	0.819596	-55.44	-10.71	28.84	-0.22	0.0121	-0.384	
0.49715	0.229116	0.83814	-51.38	-9.24	27.23	-0.2272	0.0215	-0.3806	
0.495198	0.218868	0.843508	-47.6	-7.98	25.97	-0.2176	0.0385	-0.3775	
0.497516	0.20923	0.846436	-44.45	-6.51	24.71	-0.219	0.0416	-0.3774	
0.510814	0.19764	0.852902	-40.6	-5.6	22.19	-0.2191	0.0494	-0.3757	
0.514352	0.178364	0.857172	-38.5	-5.81	20.58	-0.2193	0.0648	-0.3755	
0.520452	0.147986	0.864614	-36.75	-5.46	18.27	-0.2194	0.0665	-0.3677	
0.530212	0.125416	0.865834	-32.9	-5.25	16.24	-0.2263	0.07099999	-0.3816	
0.534116	0.147498	0.890478	-28.42	-6.23	14.56	-0.2235	0.068	-0.3754	
0.52399	0.136274	0.867542	-25.97	-7.63	12.74	-0.221	0.0835	-0.3706	
0.522404	0.128588	0.85156	-23.59	-7	9.31	-0.2282	0.0913	-0.3657	
0.518378	0.137616	0.86254	-21.42	-7.35	8.12	-0.2255	0.0914	-0.3549	
0.526308	0.147132	0.839848	-19.95	-7.56	6.79	-0.2111	0.0849	-0.3692	
0.512156	0.134688	0.81923	-18.9	-5.32	5.95	-0.2283	0.0991	-0.361	
0.48922	0.140666	0.816058	-18.55	-4.48	5.88	-0.2226	0.0975	-0.3642	
0.503982	0.114436	0.823622	-19.11	-3.22	5.11	-0.2171	0.1037	-0.358	
0.530822	0.109312	0.832894	-17.92	-2.24	5.6	-0.2269	0.1114	-0.367	
0.535336	0.121512	0.83753	-17.99	-0.35	7.56	-0.2271	0.11	-0.3562	
0.528748	0.134932	0.827892	-18.97	0.21	8.89	-0.2255	0.1053	-0.3625	
0.53009	0.148108	0.840336	-20.16	1.4	10.29	-0.2257	0.1177	-0.3592	
0.539118	0.152256	0.844728	-19.74	1.96	10.22	-0.2242	0.1176	-0.3639	
0.522038	0.168116	0.855098	-19.32	2.24	9.52	-0.2173	0.1207	-0.3577	
0.521794	0.136396	0.850706	-18.76	2.66	8.12	-0.2187	0.1253	-0.3592	
0.532164	0.123952	0.857416	-18.2	2.87	7.77	-0.2259	0.1378	-0.3589	
0.526186	0.108214	0.863272	-17.29	3.99	7.7	-0.2106	0.1454	-0.3513	
0.526064	0.123586	0.881328	-14.91	3.15	7.21	-0.2132	0.1315	-0.3561	
0.51789	0.124074	0.852536	-13.72	2.31	7.07	-0.2217	0.1393	-0.3605	
0.512766	0.107604	0.857172	-13.37	2.03	6.51	-0.2162	0.1454	-0.3574	
0.512644	0.104554	0.857172	-12.25	1.4	5.6	-0.2176	0.1516	-0.3573	
0.501542	0.089182	0.849242	-11.76	1.54	4.69	-0.2076	0.1361	-0.3546	
0.493246	0.071858	0.840946	-11.76	1.89	3.99	-0.2092	0.1531	-0.3543	
0.490074	0.063806	0.83021	-8.89	0.7	3.64	-0.2146	0.1453	-0.3652	
0.492148	0.069174	0.836798	-8.19	0.7	2.73	-0.2147	0.1454	-0.359	
0.49715	0.061976	0.839116	-9.03	0.84	2.24	-0.2133	0.1408	-0.356	
0.514474	0.060512	0.855342	-8.33	0	2.03	-0.2163	0.1456	-0.345	
0.507032	0.0732	0.848388	-7.42	-0.28	2.38	-0.2191	0.1486	-0.3511	
0.50142	0.069418	0.843752	-8.33	-1.12	2.38	-0.215	0.1533	-0.3465	
0.51118	0.05246	0.851926	-9.17	-1.33	2.73	-0.2108	0.1579	-0.348	
0.518378	0.051362	0.862174	-7.63	-2.31	3.5	-0.2262	0.1595	-0.3571	
0.527528	0.038308	0.868152	-6.65	-1.89	3.15	-0.2108	0.161	-0.3464	
0.53253	0.041968	0.87291	-5.25	-1.61	2.45	-0.2107	0.1532	-0.3497	
0.53131	0.037942	0.867298	-4.41	-1.12	1.26	-0.2095	0.1641	-0.3449	
0.539362	0.030622	0.869006	-3.5	-0.7	0.49	-0.2164	0.1564	-0.348	
0.537898	0.024644	0.875106	-1.26	0.14	-0.07	-0.2233	0.1533	-0.3541	
0.539118	0.023912	0.88084	0.49	0.56	-0.91	-0.2165	0.1687	-0.3494	
0.544852	0.00488	0.882548	1.54	1.4	-1.54	-0.2108	0.1702	-0.3525	
0.535458	0.020374	0.88633	4.41	1.4	-1.68	-0.2207	0.1626	-0.3494	
0.521916	0.012688	0.870592	6.09	1.12	-2.8	-0.2093	0.1501	-0.3497	
0.52033	0.009881999	0.858514	7.28	1.68	-4.27	-0.2235	0.1688	-0.3508	
0.521916	0.021594	0.865102	9.66	1.68	-4.97	-0.2192	0.1579	-0.351	
0.529724	0.022082	0.865346	10.29	2.38	-5.74	-0.2164	0.1595	-0.3479	
0.524112	0.033794	0.861442	11.2	2.17	-7	-0.2221	0.1657	-0.3493	
0.540094	0.034282	0.87352	12.46	2.17	-8.19	-0.2133	0.1485	-0.359	
0.536312	0.033306	0.876448	13.86	1.89	-8.19	-0.2178	0.1441	-0.3419	
0.549732	0.022326	0.883524	14.84	2.52	-9.24	-0.2133	0.1438	-0.3591	
0.547292	0.031476	0.886208	17.64	2.8	-9.1	-0.2232	0.144	-0.3558	
0.548268	0.03599	0.893772	19.81	3.36	-10.5	-0.2203	0.1346	-0.3575	
0.549366	0.032452	0.914756	22.82	3.36	-12.95	-0.2161	0.1408	-0.3544	
0.550342	0.035014	0.91012	27.65	1.05	-13.44	-0.2202	0.1362	-0.3606	
0.547292	0.036234	0.90036	31.57	0.77	-14.21	-0.2176	0.1317	-0.3452	
0.539728	0.05429	0.889258	33.81	1.61	-14.84	-0.223	0.13	-0.3606	
0.529602	0.061244	0.896944	37.52	0.84	-16.17	-0.2171	0.1113	-0.3641	
0.529114	0.078324	0.892308	41.37	0.07	-17.71	-0.22	0.1114	-0.3578	
0.52704	0.09357399	0.900848	44.52	0.7	-19.25	-0.2198	0.102	-0.3673	
0.525942	0.101992	0.892918	48.02	0.28	-20.16	-0.2139	0.0879	-0.3769	
0.523136	0.114192	0.875106	51.59	0.98	-21.56	-0.2167	0.08639999	-0.3753	
0.523746	0.150182	0.87291	54.39	2.17	-22.26	-0.2137	0.0663	-0.3725	
0.512888	0.168482	0.856684	57.47	2.52	-22.33	-0.2248	0.0617	-0.3802	
0.505202	0.192028	0.829112	58.24	3.43	-21.98	-0.2248	0.0648	-0.3817	
0.47763	0.211914	0.798002	60.34	5.04	-22.05	-0.2119	0.0414	-0.3853	
0.456158	0.26413	0.785924	62.16	5.46	-22.68	-0.2329	0.0355	-0.385	
0.439322	0.293044	0.766282	63.7	4.41	-22.89	-0.2202	0.0215	-0.3776	
0.444934	0.317566	0.754326	65.59	3.22	-23.59	-0.2243	0.0168	-0.3854	
0.453352	0.35563	0.758718	66.57	2.94	-24.22	-0.2227	0.0028	-0.3887	
0.436028	0.392596	0.738222	67.34	3.43	-25.83	-0.2197	-0.011	-0.3874	
0.428586	0.401502	0.725656	69.3	3.57	-28.56	-0.2266	-0.0248	-0.3875	
0.429074	0.418338	0.692228	71.33	3.22	-29.26	-0.2252	-0.0387	-0.383	
0.435784	0.447618	0.680882	73.43	4.06	-29.4	-0.2194	-0.045	-0.3863	
0.42212	0.47458	0.671976	75.04	4.55	-30.03	-0.2193	-0.0512	-0.3879	
0.411628	0.505812	0.657336	76.23	5.67	-30.38	-0.2179	-0.0697	-0.3789	
0.402844	0.54534	0.655994	77.77	5.95	-30.73	-0.212	-0.0807	-0.3884	
0.386496	0.567422	0.620248	77.84	6.58	-31.57	-0.2134	-0.0929	-0.3792	
0.366854	0.592554	0.586698	77.91	6.72	-32.97	-0.2077	-0.1161	-0.3703	
0.349408	0.613538	0.563762	78.61	7.21	-34.23	-0.2031	-0.1333	-0.3799	
0.356606	0.643794	0.550098	79.31	7.07	-33.88	-0.2017	-0.144	-0.3708	
0.347822	0.676368	0.548146	78.89	7.07	-33.81	-0.1987	-0.1703	-0.368	
0.336476	0.691008	0.537532	77.91	7.56	-34.3	-0.1958	-0.1704	-0.3728	
0.317322	0.704306	0.508862	76.58	8.19	-34.16	-0.1971	-0.1888	-0.3652	
0.315126	0.713212	0.49105	76.09	10.08	-34.16	-0.1929	-0.2057	-0.3562	
0.305	0.73261	0.457012	75.88	11.06	-33.25	-0.1927	-0.2151	-0.3625	
0.291702	0.773358	0.444446	75.18	10.99	-31.36	-0.1885	-0.2243	-0.3518	
0.267302	0.803492	0.433832	73.92	9.73	-29.89	-0.1842	-0.2367	-0.3505	
0.270352	0.838018	0.428464	72.59	10.64	-28.7	-0.1757	-0.2552	-0.3384	
0.2806	0.859002	0.420778	69.58	9.8	-29.19	-0.1756	-0.266	-0.3401	
0.275476	0.865102	0.393694	67.62	12.88	-30.87	-0.1713	-0.2753	-0.3356	
0.260592	0.874496	0.367464	64.05	15.12	-29.19	-0.1698	-0.2877	-0.3358	
0.265472	0.873642	0.35258	61.95	16.17	-27.3	-0.1642	-0.2923	-0.3266	
0.246196	0.886818	0.32513	59.29	14.98	-26.25	-0.1529	-0.3109	-0.3193	
0.20252	0.902678	0.296826	57.26	15.89	-22.82	-0.1602	-0.2999	-0.3113	
0.180804	0.92293	0.2745	55.02	14.49	-22.19	-0.1514	-0.317	-0.3178	
0.17568	0.945134	0.253028	53.48	14.07	-22.68	-0.1475	-0.3153	-0.3008	
0.161162	0.968924	0.23607	50.61	13.37	-22.33	-0.1558	-0.3322	-0.3009	
0.143472	0.980392	0.213134	47.39	14	-22.96	-0.1431	-0.3324	-0.2995	
0.142984	0.981734	0.210694	43.12	13.65	-23.45	-0.1318	-0.3402	-0.2951	
0.146888	0.979538	0.21167	43.26	13.86	-23.1	-0.1345	-0.3602	-0.2907	
0.13969	0.972706	0.190198	42.77	12.18	-21.42	-0.1276	-0.3586	-0.283	
0.14945	0.966484	0.172386	41.86	14.07	-21.21	-0.1234	-0.354	-0.2846	
0.157624	0.983198	0.16653	41.51	16.31	-20.93	-0.1262	-0.3678	-0.2738	
0.139446	1.006744	0.14335	42.7	18.62	-19.32	-0.1233	-0.371	-0.2817	
0.102114	1.014918	0.12261	39.55	20.44	-18.34	-0.1221	-0.3754	-0.2631	
0.095892	0.986736	0.108946	36.96	23.17	-19.6	-0.1163	-0.374	-0.2709	
0.11407	0.95709	0.11529	36.89	24.29	-21.49	-0.1079	-0.3787	-0.2649	
0.111142	0.952088	0.115168	40.39	24.64	-22.61	-0.0995	-0.3834	-0.262	
0.09272	0.995886	0.092354	42.7	18.69	-21.7	-0.0967	-0.3972	-0.2513	
0.098942	0.9943	0.075762	46.06	23.17	-20.02	-0.09519999	-0.408	-0.2468	
0.092354	1.026874	0.06405	48.51	21.84	-20.09	-0.0812	-0.4096	-0.2393	
0.072346	1.0431	0.045872	44.59	23.8	-18.69	-0.08109999	-0.4082	-0.2471	
0.036844	1.035658	0.02135	41.09	25.34	-18.27	-0.0742	-0.4204	-0.2333	
0.024278	1.044198	-0.001952	39.9	22.89	-18.76	-0.0739	-0.4344	-0.2382	
0.024644	1.03639	0.00854	35.84	23.03	-20.09	-0.0657	-0.4328	-0.2243	
0.042578	0.983198	0.013298	37.94	20.51	-20.23	-0.0657	-0.4297	-0.2289	
0.059658	0.990274	0.00671	40.74	22.54	-23.59	-0.0533	-0.4266	-0.2135	
0.022936	1.024434	-0.000244	45.71	24.5	-23.17	-0.0477	-0.4358	-0.2013	
0.008905999	1.05713	-0.00122	44.8	24.64	-19.74	-0.042	-0.4421	-0.2046	
0.016226	1.031144	-0.02074	42.49	22.26	-20.44	-0.0434	-0.4389	-0.203	
0.010736	1.029924	-0.035136	39.55	22.33	-20.51	-0.0423	-0.4403	-0.1859	
-0.000122	1.028094	-0.037088	39.69	20.72	-18.27	-0.031	-0.4481	-0.1831	
-0.00488	1.025166	-0.045506	36.82	18.76	-17.22	-0.0267	-0.4589	-0.1755	
-0.02379	1.028338	-0.058926	32.9	19.67	-18.2	-0.0184	-0.4527	-0.1709	
-0.03416	1.037732	-0.064416	30.38	18.9	-16.24	-0.0242	-0.4494	-0.1599	
-0.02928	1.056764	-0.073078	23.8	14.77	-14.91	-0.0185	-0.4542	-0.1663	
-0.032208	1.035902	-0.072468	20.51	14.56	-12.81	-0.01	-0.4543	-0.1648	
-0.01647	1.025288	-0.077104	20.51	11.27	-13.23	-0.013	-0.4495	-0.1601	
-0.025864	1.039562	-0.080886	19.25	11.62	-13.51	-0.0129	-0.4619	-0.1571	
-0.038552	1.035658	-0.091744	16.38	10.92	-12.67	-0.0058	-0.4681	-0.1542	
-0.025742	1.020042	-0.101748	14.63	10.43	-12.6	-0.006	-0.4664	-0.1433	
-0.027084	1.01809	-0.090646	15.75	12.11	-12.25	0.0009999999	-0.465	-0.1465	
-0.04758	1.00101	-0.102358	14.63	13.16	-12.32	0.0009	-0.4618	-0.1402	
-0.049044	0.997594	-0.111508	15.68	13.44	-13.09	-0.0017	-0.4726	-0.1419	
-0.053314	0.997106	-0.129198	16.24	12.18	-13.44	0.007999999	-0.4666	-0.1466	
-0.059536	1.014918	-0.130174	14.21	14	-13.23	0.0092	-0.4619	-0.1357	
-0.071492	1.013454	-0.137128	14.56	12.95	-10.71	0.0135	-0.4696	-0.1359	
-0.068564	1.006134	-0.142862	13.09	14.7	-10.92	0.0135	-0.4696	-0.1328	
-0.069418	1.002352	-0.152012	11.48	14.49	-11.2	0.0149	-0.4742	-0.1282	
-0.076372	1.001132	-0.155916	9.1	14.07	-9.45	0.0107	-0.4711	-0.1312	
-0.084912	1.012112	-0.142618	8.4	14.14	-6.58	0.0078	-0.468	-0.1311	
-0.093696	1.00345	-0.157136	7.91	4.2	-9.24	0.0263	-0.4729	-0.1361	
-0.103456	1.018822	-0.142618	7.49	6.79	-6.86	0.0233	-0.4697	-0.1314	
-0.082594	1.02236	-0.164578	6.23	6.65	-4.76	0.0274	-0.4619	-0.1236	
-0.06771	1.03151	-0.152134	4.69	5.11	-5.18	0.0261	-0.4774	-0.1237	
-0.085644	1.011014	-0.152256	3.22	7.21	-5.6	0.0274	-0.4696	-0.1221	
-0.096502	1.002352	-0.149572	2.94	6.93	-6.86	0.0345	-0.4728	-0.1254	
-0.092842	1.011868	-0.146888	3.78	6.79	-6.09	0.0231	-0.471	-0.1143	
-0.099918	1.00711	-0.142984	4.76	7.77	-5.88	0.0305	-0.4806	-0.1316	
-0.080764	0.998082	-0.130052	9.38	13.3	-6.58	0.0358	-0.4758	-0.113	
-0.09272	0.975268	-0.121512	7.14	21.21	0.7	0.0301	-0.4695	-0.1128	
-0.085766	0.988444	-0.148108	5.25	8.61	-3.36	0.0372	-0.4773	-0.1099	
-0.07564	0.996618	-0.155306	3.64	7	-0.63	0.0301	-0.471	-0.1082	
-0.073444	0.988932	-0.159698	3.08	6.51	-1.12	0.0359	-0.4728	-0.1192	
-0.086132	0.989298	-0.17629	3.15	7.77	-0.49	0.036	-0.4729	-0.1316	
-0.093452	1.00223	-0.179584	4.13	7.14	-0.35	0.0343	-0.4695	-0.1082	
-0.087596	1.01565	-0.19459	4.41	6.65	-0.28	0.0274	-0.4757	-0.1144	
-0.08662	1.003328	-0.191662	2.1	7.07	0	0.0399	-0.4696	-0.1099	
-0.077592	0.993812	-0.18666	0.56	7.07	1.96	0.0344	-0.4742	-0.1114	
-0.08113	0.998936	-0.185196	-0.63	7.63	3.22	0.0343	-0.4787	-0.1037	
-0.08686399	1.015284	-0.187636	-0.14	7.49	3.43	0.04	-0.4697	-0.1161	
-0.090646	1.003816	-0.187636	0.35	6.23	3.5	0.0457	-0.4744	-0.1162	
-0.080886	0.996984	-0.186782	0.28	4.48	3.22	0.0358	-0.4727	-0.1114	
-0.089182	1.009062	-0.203984	-1.68	6.3	3.99	0.0359	-0.4713	-0.1223	
-0.089304	1.01016	-0.204106	-2.03	7.35	4.9	0.033	-0.4788	-0.1114	
-0.083448	1.011014	-0.193248	-1.89	5.46	4.41	0.0344	-0.4681	-0.116	
-0.09882	1.01382	-0.20252	-2.87	5.46	3.85	0.04	-0.4789	-0.11	
-0.087718	1.030534	-0.191784	-2.73	3.85	2.52	0.0443	-0.4713	-0.1162	
-0.106506	1.012234	-0.1891	-3.08	2.03	2.31	0.0429	-0.4744	-0.1177	
-0.068686	1.002108	-0.18544	-2.1	-1.12	1.68	0.0288	-0.4773	-0.1145	
-0.06161	0.971364	-0.188246	-3.92	-1.12	1.12	0.0371	-0.4727	-0.1099	
-0.057096	0.990152	-0.17812	-2.24	-1.75	1.33	0.0441	-0.4742	-0.1053	
-0.047214	1.015284	-0.179096	-1.33	0.56	3.01	0.0401	-0.4697	-0.1192	
-0.045506	1.000644	-0.190198	-2.1	1.89	2.24	0.0273	-0.4772	-0.1113	
-0.06039	0.990762	-0.18666	-2.59	1.68	2.8	0.0316	-0.4696	-0.1175	
-0.078324	1.02236	-0.17812	-2.87	1.82	2.59	0.0346	-0.479	-0.127	
-0.079788	1.024922	-0.194712	-1.61	1.05	2.66	0.0399	-0.4788	-0.1038	
-0.05551	0.99186	-0.176656	-3.36	1.12	1.96	0.0302	-0.4773	-0.116	
-0.04636	0.992348	-0.17995	-4.9	0.56	2.03	0.0345	-0.4743	-0.1223	
-0.050996	0.999424	-0.177022	-6.58	2.1	2.59	0.0289	-0.4758	-0.1191	
-0.053924	1.016992	-0.172996	-5.88	2.17	2.8	0.0316	-0.4712	-0.1175	
-0.081984	1.025776	-0.182146	-6.72	2.38	2.94	0.0329	-0.4665	-0.1159	
-0.065026	1.015162	-0.18666	-8.61	1.54	2.03	0.0358	-0.4712	-0.1176	
-0.05246	1.019066	-0.180194	-8.68	-0.35	2.52	0.0247	-0.4712	-0.1267	
-0.071004	1.030168	-0.178974	-14.07	1.4	3.15	0.0373	-0.4728	-0.1239	
-0.071126	1.017724	-0.190442	-18.34	0	2.17	0.0318	-0.4713	-0.13	
-0.04575	1.035536	-0.171654	-20.51	-2.94	2.52	0.0332	-0.4744	-0.1316	
-0.066124	1.02175	-0.162382	-20.09	-6.58	3.08	0.0346	-0.4729	-0.1285	
-0.090036	1.041758	-0.13847	-21.84	-7.77	2.59	0.0247	-0.4666	-0.1314	
-0.108214	1.028826	-0.126026	-22.82	-10.99	0.98	0.0193	-0.4667	-0.1437	
-0.068198	1.056276	-0.132248	-25.97	-12.6	-1.05	0.0248	-0.4636	-0.1406	
-0.07808	1.028338	-0.123952	-26.88	-15.82	0.07	0.0207	-0.4591	-0.1514	
-0.083814	1.011502	-0.121756	-30.73	-16.73	0.14	0.0192	-0.459	-0.1467	
-0.09747799	1.001864	-0.107848	-30.45	-17.22	1.19	0.0221	-0.4499	-0.1544	
-0.09577	1.045174	-0.0915	-33.04	-22.47	4.48	0.0139	-0.4607	-0.1638	
-0.086132	1.077504	-0.101382	-34.44	-26.88	4.76	0.0224	-0.464	-0.167	
-0.05307	1.077626	-0.079178	-37.03	-25.41	7.35	0.0183	-0.4533	-0.1824	
-0.06734399	1.049444	-0.070516	-39.06	-26.81	10.01	0.0196	-0.4502	-0.1808	
-0.084668	1.049078	-0.056608	-41.16	-28.28	10.08	0.0127	-0.4471	-0.1884	
-0.063074	1.069818	-0.076128	-43.68	-27.79	9.52	0.0001	-0.444	-0.1975	
-0.039284	1.041148	-0.069296	-48.37	-27.02	12.32	0.0115	-0.4458	-0.2055	
-0.037698	0.961604	-0.015494	-49.49	-28.84	13.93	-0.0039	-0.4441	-0.2083	
-0.02257	0.963312	0.01098	-47.81	-27.16	13.3	-0.0026	-0.4364	-0.2067	
-0.016714	1.00223	0.033672	-51.03	-27.02	15.47	0.0045	-0.432	-0.2208	
-0.037454	1.052494	0.045018	-49.56	-27.02	16.73	-0.0235	-0.4133	-0.2372	
-0.054168	1.022726	0.057218	-53.48	-28.07	18.27	-0.0248	-0.4256	-0.2342	
-0.02684	0.965508	0.082228	-57.82	-24.22	16.31	-0.0262	-0.4165	-0.2449	
0.026962	0.92232	0.152866	-59.71	-28.28	15.75	-0.022	-0.4073	-0.2496	
0.035136	0.963068	0.160552	-56.7	-26.81	15.19	-0.0359	-0.4026	-0.2602	
0.014884	0.99186	0.196542	-51.87	-29.96	21.35	-0.0416	-0.3949	-0.2631	
0.020862	0.991738	0.183366	-54.95	-36.05	23.8	-0.0443	-0.3919	-0.2754	
0.03965	1.000522	0.15982	-60.69	-41.44	25.41	-0.0555	-0.3842	-0.2845	
0.022448	0.985516	0.1647	-65.52	-35.84	22.19	-0.0626	-0.3749	-0.2874	
0.020862	0.934642	0.179096	-65.17	-32.97	21.63	-0.0681	-0.3733	-0.2935	
0.065392	0.934398	0.194834	-64.75	-33.32	22.12	-0.0766	-0.361	-0.3025	
0.098698	0.950868	0.287554	-63.42	-33.25	27.86	-0.078	-0.3487	-0.3116	
0.139202	0.983198	0.284626	-63.28	-33.67	33.32	-0.0837	-0.3471	-0.31	
0.121146	0.962092	0.28975	-85.12	-18.55	36.33	-0.0879	-0.3256	-0.3252	
0.1281	0.98454	0.289872	-73.78	-24.92	37.03	-0.0962	-0.324	-0.3328	
0.134322	0.876204	0.343918	-70.7	-24.29	32.48	-0.109	-0.3207	-0.3279	
0.174216	0.852536	0.330254	-70.77	-28.49	31.36	-0.1062	-0.3162	-0.3341	
0.145668	0.864004	0.343308	-71.19	-28	31.92	-0.1146	-0.2962	-0.3508	
0.115534	0.908168	0.360144	-69.79	-26.32	34.16	-0.1259	-0.293	-0.3459	
0.110166	0.920124	0.397598	-70	-23.1	35.14	-0.1316	-0.2729	-0.3565	
0.214964	0.851926	0.472506	-71.05	-29.82	35.49	-0.1301	-0.2684	-0.3642	
0.295362	0.836066	0.468236	-70.42	-35.49	32.55	-0.1417	-0.2557	-0.3514	
0.26047	0.839238	0.47641	-67.9	-34.16	31.64	-0.1488	-0.2372	-0.3604	
0.244366	0.811788	0.470676	-55.93	-14.35	21.07	-0.1543	-0.2419	-0.3666	
0.242902	0.794708	0.475556	-56.21	-29.54	20.51	-0.1529	-0.2265	-0.3757	
0.299388	0.731756	0.505568	-53.69	-28.98	23.45	-0.16	-0.2249	-0.3725	
0.32086	0.739198	0.527406	-51.38	-31.01	23.66	-0.1702	-0.2046	-0.3689	
0.340868	0.766038	0.512644	-52.64	-30.1	26.25	-0.1731	-0.1907	-0.3687	
0.297802	0.763232	0.51606	-56.35	-26.6	28.77	-0.1886	-0.1905	-0.3669	
0.307684	0.693326	0.578646	-54.74	-23.8	25.55	-0.1957	-0.1827	-0.3714	
0.338184	0.670268	0.593164	-47.74	-27.02	22.61	-0.1944	-0.1612	-0.3773	
0.3721	0.689544	0.58438	-44.38	-26.95	21.42	-0.2043	-0.1579	-0.3771	
0.363926	0.69845	0.580354	-46.34	-22.75	21	-0.2073	-0.1455	-0.3738	
0.345016	0.663558	0.591944	-48.09	-19.88	19.04	-0.1961	-0.1425	-0.3724	
0.373686	0.597434	0.612562	-46.06	-20.23	16.03	-0.2046	-0.1362	-0.3737	
0.396256	0.570594	0.607316	-44.87	-18.34	14.07	-0.2116	-0.13	-0.3782	
0.391376	0.576084	0.61183	-44.17	-14.7	13.79	-0.2257	-0.1238	-0.3857	
0.397598	0.582794	0.63623	-43.4	-11.06	14.7	-0.2176	-0.1128	-0.3654	
0.427244	0.52277	0.673074	-47.11	-7.91	15.19	-0.2134	-0.1052	-0.3716	
0.42395	0.493978	0.68137	-46.48	-6.16	16.03	-0.2174	-0.1007	-0.3871	
0.388204	0.504348	0.67344	-46.41	-4.83	18.76	-0.2233	-0.0882	-0.3806	
0.394548	0.503738	0.690642	-47.74	-4.55	19.25	-0.2191	-0.079	-0.3836	
0.421266	0.479094	0.701378	-50.47	-4.62	20.58	-0.2192	-0.0698	-0.3866	
0.442982	0.447984	0.72041	-50.05	-4.9	22.47	-0.222	-0.0697	-0.3819	
0.437004	0.45506	0.723216	-48.3	-4.48	25.27	-0.2235	-0.0588	-0.3833	
0.431514	0.449204	0.739686	-47.88	-2.8	25.62	-0.2237	-0.0541	-0.377	
0.455426	0.436272	0.75457	-45.78	-4.2	24.29	-0.2279	-0.0449	-0.3862	
0.473726	0.412604	0.778604	-45.92	-3.78	23.73	-0.2197	-0.0294	-0.3752	
0.485194	0.38613	0.795684	-45.5	-3.99	23.03	-0.2268	-0.0263	-0.3782	
0.497638	0.370758	0.791292	-44.03	-4.48	23.03	-0.2253	-0.011	-0.392	
0.497394	0.367586	0.806176	-43.19	-4.76	22.75	-0.2256	0.003	-0.3809	
0.503006	0.344772	0.80581	-42.56	-3.78	21.84	-0.2256	0.0029	-0.384	
0.498858	0.34892	0.80947	-38.29	-3.01	20.02	-0.2285	0.0076	-0.3824	
0.508252	0.315248	0.8174	-36.05	-1.75	17.43	-0.2299	0.0107	-0.3838	
0.518012	0.304024	0.838506	-31.99	-1.4	15.12	-0.226	0.0339	-0.3774	
0.521428	0.29585	0.849486	-29.47	-1.89	13.86	-0.233	0.0309	-0.3773	
0.519842	0.284992	0.82472	-28.07	-2.73	13.3	-0.2301	0.0293	-0.3805	
0.51301	0.259738	0.81557	-27.86	-2.17	13.3	-0.2374	0.0388	-0.3709	
0.513132	0.247538	0.815692	-25.62	-1.33	12.11	-0.2249	0.048	-0.3679	
0.516304	0.24522	0.826062	-24.29	-0.56	10.99	-0.2304	0.0433	-0.3741	
0.516426	0.233874	0.826794	-22.47	-0.49	10.5	-0.2333	0.0542	-0.3739	
0.515572	0.235094	0.822402	-20.79	-0.42	9.94	-0.236	0.0495	-0.3755	
0.507642	0.228872	0.801174	-20.93	1.75	9.24	-0.2304	0.051	-0.374	
0.512644	0.212768	0.815814	-22.61	3.29	8.33	-0.2236	0.0665	-0.3708	
0.512644	0.200934	0.838994	-21.28	3.43	8.75	-0.2208	0.0818	-0.3815	
0.505446	0.206424	0.828502	-19.74	2.59	9.31	-0.2252	0.07889999	-0.3659	
0.51057	0.200202	0.8296	-20.09	3.36	8.82	-0.2236	0.0787	-0.38	
0.51362	0.194346	0.851926	-19.95	3.43	9.38	-0.2224	0.08199999	-0.3659	
0.517524	0.213012	0.86681	-17.99	2.31	9.38	-0.221	0.08199999	-0.3644	
0.523014	0.202154	0.868884	-17.57	3.01	7.77	-0.2224	0.0866	-0.369	
0.517646	0.190442	0.870714	-15.26	3.22	6.16	-0.2127	0.09119999	-0.3629	
0.511912	0.189588	0.864126	-13.23	2.94	4.83	-0.2225	0.0897	-0.3643	
0.50874	0.191296	0.860466	-11.83	3.43	3.01	-0.2184	0.099	-0.3658	
0.503006	0.18178	0.852414	-9.94	3.71	1.26	-0.2183	0.0881	-0.3644	
0.511424	0.182634	0.856562	-9.24	4.41	-0.07	-0.2256	0.1038	-0.3594	
0.50691	0.186294	0.86193	-7.63	3.57	0.49	-0.2155	0.09429999	-0.3643	
0.48617	0.196542	0.850462	-4.48	1.96	0.56	-0.2156	0.1066	-0.3704	
0.475922	0.18605	0.83204	-4.34	1.12	-0.77	-0.2255	0.0976	-0.361	
0.482754	0.180194	0.82838	-2.73	-0.56	0.21	-0.2114	0.0989	-0.3612	
0.483608	0.18727	0.830088	-2.73	-0.7	1.05	-0.2213	0.1021	-0.3626	
0.484706	0.183244	0.827404	-2.1	-0.63	1.12	-0.2284	0.1023	-0.3531	
0.492514	0.196176	0.83143	-1.75	-0.63	1.26	-0.2225	0.1035	-0.3734	
0.49532	0.216306	0.821548	-1.05	-1.33	1.61	-0.214	0.1019	-0.3751	
0.494344	0.215452	0.826794	-1.89	-0.28	1.33	-0.2212	0.0975	-0.3642	
0.494954	0.22326	0.825452	-2.38	0.77	0.98	-0.2226	0.1021	-0.3657	
0.496418	0.20862	0.8296	-1.96	1.54	0.35	-0.2226	0.1052	-0.3672	
0.496174	0.206424	0.831918	-1.47	1.54	0.28	-0.2141	0.1004	-0.3721	
0.490196	0.221674	0.836798	-1.12	0.77	0.14	-0.2226	0.1098	-0.3702	
0.488854	0.202154	0.833992	-1.68	0.98	-0.63	-0.2213	0.1067	-0.3656	
0.488976	0.206424	0.827526	-1.75	0.49	-0.84	-0.21	0.1066	-0.3627	
0.486414	0.199958	0.83753	-1.75	0.07	-0.84	-0.2156	0.1036	-0.3642	
0.487878	0.187148	0.84058	-2.17	0.28	-1.61	-0.2187	0.113	-0.3547	
0.488	0.184098	0.838994	-1.33	0.21	-2.03	-0.2269	0.1068	-0.3671	
0.490562	0.180682	0.849852	0.21	0.28	-1.75	-0.2156	0.1021	-0.3627	
0.486536	0.182878	0.848876	1.19	-0.07	-1.96	-0.2254	0.099	-0.3657	
0.487024	0.168482	0.851682	1.89	-0.35	-2.31	-0.2183	0.0989	-0.3673	
0.484584	0.174948	0.850096	3.43	-0.77	-2.52	-0.2183	0.0989	-0.372	
0.49898	0.165798	0.857538	4.27	-1.05	-3.01	-0.2267	0.0913	-0.3704	
0.508252	0.165066	0.86437	6.09	-1.33	-3.29	-0.2184	0.09739999	-0.3627	
0.524478	0.167628	0.88389	6.86	-0.7	-3.85	-0.2213	0.1067	-0.3641	
0.536556	0.154696	0.890966	9.31	-0.07	-5.25	-0.2226	0.1067	-0.3703	
0.531188	0.155184	0.893162	12.39	1.05	-5.74	-0.2127	0.1019	-0.3689	
0.520574	0.16165	0.906704	17.29	0.35	-6.51	-0.2268	0.1051	-0.3733	
0.5307	0.15433	0.905972	20.09	0.63	-8.47	-0.2238	0.0866	-0.369	
0.529358	0.166286	0.884378	24.57	0.63	-10.57	-0.2155	0.0896	-0.366	
0.524112	0.172264	0.89731	26.81	1.19	-13.02	-0.2238	0.0835	-0.3721	
0.522892	0.162382	0.895968	29.89	1.96	-16.17	-0.2209	0.0727	-0.3692	
0.521672	0.167994	0.892918	34.65	1.33	-18.48	-0.2195	0.0727	-0.3677	
0.521062	0.18178	0.89975	42.49	1.54	-22.33	-0.2222	0.0726	-0.3769	
0.504714	0.212524	0.890356	48.16	0.35	-23.17	-0.2165	0.0572	-0.3664	
0.496662	0.228872	0.86742	50.54	-0.91	-24.08	-0.2234	0.051	-0.3725	
0.497638	0.238754	0.842532	52.64	-1.4	-24.71	-0.2288	0.034	-0.3758	
0.49349	0.271084	0.853268	54.25	-0.49	-24.57	-0.2173	0.0306	-0.39	
0.488244	0.279136	0.824476	56.49	0.7	-25.55	-0.2174	0.0215	-0.3777	
0.479216	0.305366	0.809104	59.29	2.03	-27.16	-0.2258	0.0077	-0.3731	
0.486658	0.327936	0.807762	62.51	2.45	-28.42	-0.2213	-0.0032	-0.3857	
0.47397	0.376004	0.775432	64.68	1.54	-27.79	-0.224	-0.0124	-0.3827	
0.4636	0.385276	0.765794	62.93	3.08	-28.49	-0.2251	-0.0357	-0.3861	
0.44896	0.40077	0.73749	64.05	3.22	-28.14	-0.2181	-0.045	-0.3817	
0.43249	0.442616	0.722484	65.38	2.73	-27.3	-0.2207	-0.0543	-0.3864	
0.421266	0.472506	0.709064	65.8	2.73	-26.74	-0.2165	-0.059	-0.3865	
0.424804	0.488	0.703452	64.4	2.66	-26.32	-0.2191	-0.0774	-0.3821	
0.417972	0.497516	0.670512	64.05	2.17	-25.06	-0.2176	-0.0852	-0.3837	
0.404552	0.531066	0.65392	64.12	2.66	-23.94	-0.2191	-0.0882	-0.3775	
0.396378	0.554368	0.641598	61.53	4.55	-23.17	-0.2259	-0.1067	-0.3792	
0.385154	0.577792	0.624884	60.76	4.55	-20.3	-0.216	-0.1237	-0.3687	
0.384788	0.599752	0.5917	60.62	5.18	-18.55	-0.2101	-0.1363	-0.383	
0.376004	0.633668	0.583282	59.43	7.7	-18.69	-0.2074	-0.1392	-0.3691	
0.362706	0.643184	0.578158	58.8	8.89	-18.69	-0.2158	-0.1545	-0.3613	
0.36173	0.65575	0.5551	60.06	10.71	-18.9	-0.2087	-0.1593	-0.3677	
0.35929	0.679296	0.549732	60.27	12.74	-18.83	-0.2044	-0.1824	-0.3557	
0.338184	0.699182	0.52521	60.2	12.11	-19.04	-0.2112	-0.1886	-0.3634	
0.316468	0.724436	0.50508	60.69	11.41	-19.95	-0.204	-0.1965	-0.3683	
0.301828	0.741394	0.482998	60.83	10.5	-21.28	-0.1986	-0.2026	-0.3545	
0.293654	0.765794	0.467748	61.53	10.99	-23.03	-0.187	-0.2121	-0.3657	
0.291702	0.775676	0.464698	60.48	11.97	-25.41	-0.1885	-0.2181	-0.3548	
0.28792	0.787754	0.447496	58.94	11.41	-26.88	-0.1896	-0.2414	-0.3613	
0.286334	0.808494	0.451888	57.68	12.46	-27.72	-0.1772	-0.2444	-0.3429	
0.293166	0.81862	0.443226	58.52	12.11	-27.93	-0.1855	-0.2505	-0.346	
0.286578	0.837286	0.422852	59.01	11.69	-27.93	-0.1842	-0.252	-0.3367	
0.2684	0.88023	0.38979	59.15	11.41	-26.74	-0.1685	-0.2722	-0.3356	
0.2501	0.890844	0.374296	57.54	13.65	-26.32	-0.1743	-0.2721	-0.3278	
0.238876	0.900238	0.34892	55.51	13.16	-26.67	-0.1574	-0.2799	-0.3235	
0.22936	0.905972	0.338428	52.15	14.28	-26.46	-0.1601	-0.2969	-0.3205	
0.22204	0.900604	0.335622	50.96	17.5	-27.44	-0.1698	-0.2969	-0.3266	
0.203618	0.914512	0.316224	50.4	17.43	-25.9	-0.1586	-0.3092	-0.313	
0.176778	0.920978	0.29951	50.96	14.84	-24.22	-0.1558	-0.3107	-0.3115	
0.168482	0.915732	0.276208	48.51	12.46	-21.56	-0.1613	-0.3292	-0.307	
0.180316	0.920124	0.279136	47.46	14	-21.91	-0.1488	-0.3262	-0.3025	
0.188734	0.931836	0.270718	47.74	13.86	-21.63	-0.1403	-0.3247	-0.3057	
0.177144	0.957578	0.241682	47.81	13.3	-20.44	-0.1276	-0.3448	-0.2921	
0.157624	0.98149	0.215086	45.92	15.05	-18.97	-0.1345	-0.3464	-0.2983	
0.147132	0.98149	0.199104	42.35	16.38	-17.85	-0.1248	-0.354	-0.2814	
0.123342	0.979172	0.189832	40.18	17.5	-17.64	-0.1305	-0.3493	-0.2844	
0.109556	0.984296	0.187148	38.85	18.34	-17.85	-0.1178	-0.3556	-0.2831	
0.108946	0.97966	0.182268	37.17	17.5	-18.48	-0.1162	-0.368	-0.2817	
0.1098	0.981246	0.161284	36.82	16.73	-19.04	-0.1205	-0.3726	-0.2786	
0.100528	0.997472	0.157136	33.6	17.01	-17.71	-0.1108	-0.3741	-0.2664	
0.117486	0.980636	0.144814	31.08	18.27	-17.78	-0.0979	-0.3912	-0.2652	
0.121878	0.98393	0.147132	31.15	21	-17.92	-0.0951	-0.3912	-0.2637	
0.102114	0.987834	0.128466	31.99	22.82	-17.78	-0.0981	-0.388	-0.2559	
0.083692	0.9821	0.116876	32.55	22.33	-17.71	-0.0867	-0.4005	-0.2578	
0.078446	0.985028	0.10431	33.39	22.47	-17.92	-0.0896	-0.4049	-0.2453	
0.072712	1.003572	0.094428	33.88	24.01	-17.29	-0.08679999	-0.4111	-0.2408	
0.07869	1.004914	0.097966	31.71	27.09	-16.8	-0.0728	-0.4035	-0.2394	
0.076738	0.974048	0.116266	34.79	30.03	-17.85	-0.0672	-0.4143	-0.2318	
0.070638	0.956724	0.086376	37.59	29.05	-19.11	-0.0657	-0.4206	-0.2366	
0.06344	1.001254	0.058682	40.46	27.16	-18.48	-0.0557	-0.4223	-0.2414	
0.036112	1.02663	0.056364	42.14	27.72	-16.03	-0.0505	-0.4144	-0.2212	
0.023668	1.019554	0.027328	40.95	25.13	-14.28	-0.0575	-0.425	-0.2166	
0.048556	0.997106	0.049532	40.46	22.05	-15.47	-0.0447	-0.439	-0.2107	
0.039772	1.001986	0.01525	43.89	24.78	-16.87	-0.0463	-0.4281	-0.2075	
0.016592	1.022604	-0.007198	43.82	26.74	-16.73	-0.0407	-0.4327	-0.1998	
0	1.043222	-0.013176	42.28	24.43	-16.1	-0.0435	-0.4374	-0.2014	
0.004148	1.044808	-0.02806	36.47	21.84	-11.97	-0.0407	-0.4419	-0.1922	
0.017446	1.040416	-0.039894	33.53	24.85	-12.46	-0.0295	-0.4374	-0.1923	
0.007564	1.008574	-0.037454	33.18	23.59	-10.92	-0.0282	-0.4465	-0.1784	
-0.019276	1.01687	-0.044164	33.04	20.93	-11.83	-0.0225	-0.4497	-0.1817	
-0.027328	1.036756	-0.063074	33.46	19.53	-13.23	-0.0212	-0.4496	-0.1739	
-0.01708	1.046882	-0.0793	32.41	17.78	-12.39	-0.0155	-0.4605	-0.1742	
-0.02318	1.026752	-0.077348	30.24	17.57	-12.39	-0.008599999	-0.4574	-0.1665	
-0.0244	1.01992	-0.088938	29.75	14.07	-11.97	-0.0157	-0.4542	-0.1616	
-0.033062	1.025044	-0.10065	27.51	13.37	-11.41	-0.0129	-0.4618	-0.1525	
-0.036356	1.02358	-0.101504	25.97	13.16	-10.85	-0.0115	-0.4634	-0.1509	
-0.041114	1.02053	-0.123708	24.43	10.92	-10.08	-0.0046	-0.4664	-0.1402	
-0.028182	1.032852	-0.128832	20.09	12.74	-8.89	-0.0018	-0.4542	-0.1494	
-0.046116	1.030778	-0.147864	16.24	13.02	-8.4	0.0007	-0.4602	-0.134	
-0.065514	1.04066	-0.142862	13.72	13.02	-6.86	0.0025	-0.4743	-0.1451	
-0.069296	1.040416	-0.131516	11.2	9.38	-5.04	0.0121	-0.4619	-0.1404	
-0.049654	1.034804	-0.138226	8.75	6.79	-5.18	-0.0004	-0.4772	-0.1342	
-0.024888	1.037976	-0.127612	6.72	5.04	-4.76	0.0051	-0.4665	-0.1404	
-0.024766	1.018944	-0.13542	4.2	6.16	-3.29	0.0108	-0.4743	-0.139	
-0.043066	1.006622	-0.129686	4.34	7	-1.89	0.0052	-0.4727	-0.1389	
-0.03843	1.007232	-0.13664	3.99	7.49	-2.94	0.0078	-0.4603	-0.1372	
-0.034404	0.995886	-0.14274	6.16	7.21	-3.08	0.0106	-0.4618	-0.1326	
-0.02806	0.991006	-0.142496	7.28	7.49	-2.87	0.0123	-0.4774	-0.1406	
-0.029768	1.00833	-0.157624	5.39	8.26	-2.52	0.0134	-0.4772	-0.1235	
-0.036356	1.021262	-0.152134	5.88	10.29	-1.12	0.007999999	-0.4742	-0.1374	
-0.037942	1.025776	-0.160186	5.04	8.96	-1.33	0.0164	-0.4697	-0.1375	
-0.05063	1.022482	-0.159698	4.27	10.15	-1.96	0.009099999	-0.4664	-0.1249	
-0.05978	1.025288	-0.170068	4.06	9.31	-4.06	0.0248	-0.4774	-0.1299	
-0.057584	1.028704	-0.161406	3.36	8.47	-4.9	0.0108	-0.4743	-0.1374	
-0.057828	1.019554	-0.156282	2.59	6.79	-5.04	0.0147	-0.4679	-0.1172	
-0.052826	1.008818	-0.153598	0	5.81	-4.48	0.0246	-0.4604	-0.1282	
-0.05002	0.994544	-0.14945	-1.68	4.9	-3.99	0.0076	-0.4571	-0.1247	
-0.05429	1.000766	-0.148108	-0.7	3.08	-3.43	0.0118	-0.4709	-0.1141	
-0.06893	1.019432	-0.138592	0.07	2.17	-2.94	0.0148	-0.468	-0.1265	
-0.076372	1.000888	-0.152744	-0.77	0.14	-2.94	0.019	-0.4742	-0.122	
-0.035868	1.017724	-0.157502	-1.68	-1.05	-2.03	0.0135	-0.4818	-0.1236	
-0.031354	1.004548	-0.150426	-0.63	0.63	-1.26	0.0232	-0.4681	-0.1251	
-0.055876	1.014796	-0.15067	-2.66	1.19	-0.14	0.0248	-0.4743	-0.1299	
-0.060878	1.019554	-0.155306	-3.36	1.89	0.7	0.0177	-0.4711	-0.1266	
-0.059902	0.99857	-0.154452	-4.55	-0.14	0.42	0.0262	-0.4728	-0.1299	
-0.052216	1.003694	-0.151524	-4.13	-0.91	-0.98	0.0135	-0.4758	-0.1313	
-0.058438	1.020774	-0.152378	-4.34	-0.21	-1.12	0.0163	-0.4666	-0.1343	
-0.067588	1.026142	-0.14518	-5.18	-0.35	-1.33	0.0135	-0.4727	-0.1297	
-0.063684	1.026752	-0.141154	-7.28	-1.26	-1.54	0.0193	-0.4683	-0.1453	
-0.063318	1.04066	-0.138104	-9.45	-1.54	-1.47	0.0262	-0.4758	-0.1268	
-0.07259	1.032852	-0.122976	-11.97	-0.91	-0.28	0.0289	-0.4666	-0.1299	
-0.069174	0.994056	-0.119316	-13.86	-3.08	-0.7	0.0289	-0.459	-0.1344	
-0.067832	0.995276	-0.112972	-11.9	-4.97	-1.12	0.0274	-0.4558	-0.1281	
-0.060756	1.012966	-0.121878	-11.41	-4.83	-0.77	0.0094	-0.4635	-0.1435	
-0.053802	1.0431	-0.112118	-8.96	-4.83	0.91	0.0235	-0.4683	-0.1422	
-0.109678	1.038952	-0.124074	-9.66	-5.53	2.94	0.0219	-0.462	-0.1375	
-0.120658	1.027484	-0.112972	-14.56	-10.15	6.09	0.015	-0.4605	-0.1451	
-0.115168	1.07238	-0.100284	-15.33	-13.72	2.87	0.0138	-0.4714	-0.153	
-0.134932	1.129598	-0.112362	-16.94	-14.91	4.83	0.0193	-0.4667	-0.1437	
-0.136152	1.043954	-0.107726	-23.59	-15.82	6.86	0.011	-0.4683	-0.1529	
-0.068808	0.96197	-0.09028	-29.75	-21.98	3.64	0.0124	-0.4591	-0.1606	
-0.017812	1.025044	-0.105896	-33.04	-27.51	-3.01	0.0111	-0.4638	-0.1669	
-0.024644	1.052982	-0.091256	-30.8	-22.26	0.28	0.0124	-0.4561	-0.1668	
-0.03721	1.016382	-0.06832	-32.55	-19.6	2.73	0.0054	-0.4561	-0.1698	
-0.046482	0.988078	-0.06954	-35.91	-22.61	4.55	0.0111	-0.4515	-0.1714	
-0.019032	0.99918	-0.042578	-37.03	-24.29	8.4	-0.0042	-0.4484	-0.1851	
-0.01098	0.987834	-0.035014	-37.03	-24.57	9.45	0.0014	-0.4455	-0.1898	
-0.009881999	0.990152	-0.029646	-37.66	-22.19	9.59	-0.004	-0.447	-0.1975	
-0.024522	0.997838	-0.01769	-36.68	-19.74	11.06	-0.0055	-0.4469	-0.1913	
-0.037576	1.007354	-0.010736	-38.43	-18.48	13.23	-0.0054	-0.4379	-0.2067	
-0.03477	1.013088	-0.005002	-37.87	-17.29	15.4	-0.0181	-0.4346	-0.208	
-0.024156	1.012356	-0.002196	-36.61	-15.82	17.43	-0.0096	-0.4286	-0.2143	
-0.008662	1.002718	0.005246	-38.36	-15.96	17.36	-0.0194	-0.4347	-0.2095	
-0.011346	0.998204	0.020252	-39.34	-15.26	17.22	-0.022	-0.4349	-0.2297	
-0.01952	0.99918	0.025254	-41.37	-13.86	19.11	-0.0264	-0.4162	-0.2263	
-0.022936	0.986248	0.04636	-39.76	-13.37	21.98	-0.0361	-0.4255	-0.234	
-0.006344	0.989664	0.06222	-36.89	-13.3	23.1	-0.0319	-0.4102	-0.2417	
0.0122	1.029802	0.061366	-32.83	-14.35	24.64	-0.0374	-0.4041	-0.2524	
0.002562	1.0187	0.104554	-34.02	-10.99	24.57	-0.043	-0.4102	-0.2539	
-0.000976	0.97478	0.155306	-33.53	-11.76	20.79	-0.0444	-0.4025	-0.2569	
0.010492	0.960018	0.177144	-33.67	-15.26	18.41	-0.0571	-0.4039	-0.2583	
0.080032	0.932812	0.169702	-27.58	-17.64	17.99	-0.05	-0.3994	-0.2614	
0.129808	0.972462	0.146278	-25.9	-12.18	18.2	-0.0557	-0.3977	-0.2567	
0.10309	1.029924	0.161528	-19.11	-8.61	22.75	-0.0656	-0.3869	-0.2673	
0.07905599	1.052494	0.18727	-17.36	-5.67	21.28	-0.0654	-0.3932	-0.2751	
0.089792	1.006134	0.21472	-16.52	-5.53	14.7	-0.07539999	-0.3853	-0.2686	
0.092354	0.981002	0.227896	-13.02	-8.12	7.14	-0.0782	-0.3884	-0.2717	
0.073566	0.941596	0.240706	-10.01	-7.7	2.38	-0.0711	-0.387	-0.2749	
0.085644	0.935984	0.253882	-7.63	-10.5	-0.56	-0.0795	-0.3884	-0.2748	
0.127124	0.923418	0.259616	-6.09	-11.06	-1.33	-0.0712	-0.3823	-0.2733	
0.186904	0.941108	0.266936	-5.25	-10.57	0.21	-0.0626	-0.3718	-0.2873	
0.185806	0.950624	0.266814	-5.04	-6.51	3.85	-0.0808	-0.3778	-0.2902	
0.14457	0.973438	0.25803	-3.85	-3.43	5.81	-0.0881	-0.3806	-0.273	
0.116022	0.988688	0.252784	-3.85	-1.19	5.25	-0.0853	-0.376	-0.273	
0.1098	0.977342	0.251076	-3.78	-0.35	2.87	-0.0739	-0.3823	-0.2764	
0.123586	0.962824	0.253028	-4.9	-0.7	0.07	-0.0725	-0.3823	-0.2764	
0.134688	0.951234	0.25681	-5.53	-0.98	0	-0.07539999	-0.3715	-0.2809	
0.139934	0.948794	0.26047	-5.46	-1.82	1.26	-0.0781	-0.3762	-0.2809	
0.140788	0.962946	0.263642	-5.67	-1.54	1.26	-0.0783	-0.3715	-0.2762	
0.13298	0.96624	0.260348	-5.95	-0.7	0.98	-0.0839	-0.3775	-0.2731	
0.124806	0.98088	0.256078	-5.88	0.7	0.07	-0.0825	-0.3729	-0.2746	
0.109556	0.984784	0.257176	-5.95	2.52	-0.56	-0.081	-0.373	-0.2808	
0.11285	0.979904	0.258152	-6.65	2.17	-2.17	-0.0839	-0.3638	-0.2838	
0.113948	0.976732	0.252296	-7	0.56	-3.22	-0.0839	-0.376	-0.2761	
0.108702	0.970632	0.250954	-8.12	0.28	-3.92	-0.074	-0.3746	-0.2747	
0.114314	0.9699	0.252052	-7.42	-0.42	-5.11	-0.0879	-0.3716	-0.2931	
0.116022	0.972828	0.25559	-6.51	1.54	-6.51	-0.0753	-0.3762	-0.2825	
0.114802	0.976976	0.261568	-6.86	0.21	-6.65	-0.078	-0.3686	-0.2964	
0.112362	0.973926	0.26413	-6.44	0.35	-7.77	-0.0781	-0.367	-0.2917	
0.1037	0.97783	0.264374	-5.53	1.19	-9.66	-0.0724	-0.3717	-0.2918	
0.099308	0.97905	0.263032	-5.74	2.1	-11.06	-0.0824	-0.3669	-0.2885	
0.096136	0.984052	0.261202	-6.02	1.61	-12.6	-0.0724	-0.3687	-0.2964	
0.08479	1.011502	0.271816	-7.35	2.03	-15.47	-0.067	-0.3701	-0.2779	
0.101504	1.012234	0.280234	-7.49	1.61	-18.9	-0.0726	-0.3654	-0.2809	
0.109678	1.036146	0.260836	-7.35	2.1	-23.31	-0.064	-0.3718	-0.2904	
0.095648	1.063352	0.263642	-8.12	4.69	-26.18	-0.0597	-0.3703	-0.2936	
0.076616	1.055178	0.264008	-9.17	7.49	-29.54	-0.0597	-0.3703	-0.2936	
0.077958	1.046516	0.262056	-11.9	8.05	-34.93	-0.0541	-0.3734	-0.2875	
0.069296	1.028582	0.2684	-14.21	8.26	-39.06	-0.0513	-0.3627	-0.2967	
0.07198	1.007964	0.2745	-18.34	6.44	-42.07	-0.0414	-0.3659	-0.2969	
0.06527	0.998448	0.282186	-21.07	5.88	-43.54	-0.0315	-0.3661	-0.3017	
0.046848	0.989176	0.284382	-22.4	6.37	-45.64	-0.0302	-0.3614	-0.2955	
0.03355	1.026996	0.29463	-22.4	9.45	-47.67	-0.0287	-0.3615	-0.3017	
0.002806	1.012234	0.312198	-23.66	12.81	-50.75	-0.0246	-0.3553	-0.297	
0.002196	0.976366	0.318664	-23.8	14.42	-53.55	-0.0216	-0.3616	-0.3049	
-0.012322	0.968924	0.319274	-22.68	14.07	-55.23	-0.0087	-0.362	-0.3191	
-0.009516	0.958066	0.301462	-25.41	17.85	-57.47	0.007999999	-0.3514	-0.3239	
-0.081618	0.914146	0.309148	-29.89	25.06	-57.05	0.0222	-0.3562	-0.3242	
-0.104798	0.892186	0.322446	-27.72	23.8	-56.35	0.0247	-0.333	-0.324	
-0.124928	0.872056	0.32391	-27.16	21.07	-55.3	0.0375	-0.3317	-0.3335	
-0.126514	0.869494	0.315858	-27.44	21.7	-55.3	0.0431	-0.3379	-0.3259	
-0.152866	0.872544	0.331962	-27.65	28.42	-52.43	0.0503	-0.3335	-0.3399	
-0.210206	0.871202	0.338062	-26.6	30.8	-48.02	0.057	-0.3165	-0.3305	
-0.230214	0.867908	0.346236	-25.97	29.19	-45.15	0.0641	-0.3166	-0.3353	
-0.228506	0.867054	0.34404	-24.57	31.64	-45.92	0.0726	-0.3198	-0.3323	
-0.323178	0.88084	0.349164	-25.76	27.93	-48.3	0.0867	-0.3138	-0.3403	
-0.347456	0.889258	0.349286	-21.49	28.14	-49.35	0.0867	-0.3046	-0.3464	
-0.348798	0.846192	0.383446	-20.16	28.21	-51.73	0.1049	-0.317	-0.3313	
-0.360266	0.851194	0.381128	-17.43	25.13	-52.15	0.0993	-0.3047	-0.3372	
-0.379298	0.83509	0.38064	-17.5	24.01	-51.73	0.1162	-0.2972	-0.3467	
-0.414556	0.814594	0.34282	-17.85	23.73	-51.03	0.1246	-0.2927	-0.3468	
-0.445178	0.815204	0.390888	-17.57	21	-51.17	0.1261	-0.2912	-0.3515	
-0.453108	0.832284	0.396866	-17.43	27.79	-53.55	0.133	-0.282	-0.3484	
-0.492758	0.777262	0.41419	-18.48	22.26	-52.78	0.1427	-0.2804	-0.3407	
-0.459574	0.734928	0.420168	-17.43	5.67	-51.8	0.154	-0.2729	-0.3455	
-0.475068	0.68503	0.40809	-15.96	0.84	-50.12	0.1484	-0.2683	-0.35	
-0.486048	0.661484	0.410896	-14.49	-0.28	-45.92	0.1497	-0.2574	-0.3499	
-0.506666	0.672464	0.406748	-13.93	1.26	-41.23	0.1568	-0.2622	-0.3531	
-0.512888	0.67283	0.422364	-15.33	1.89	-37.45	0.1651	-0.2499	-0.35	
-0.52155	0.681126	0.443104	-15.54	1.19	-34.58	0.1622	-0.236	-0.3576	
-0.530334	0.69357	0.45445	-16.31	1.47	-32.06	0.1693	-0.2361	-0.3592	
-0.52033	0.699182	0.453108	-17.78	1.68	-29.89	0.1748	-0.233	-0.3531	
-0.529724	0.6771	0.46116	-18.06	3.36	-28.56	0.189	-0.2379	-0.3596	
-0.536434	0.666364	0.469212	-18.06	4.13	-27.65	0.1804	-0.2208	-0.3608	
-0.542656	0.667218	0.459086	-17.15	5.53	-26.6	0.1875	-0.2179	-0.3671	
-0.57096	0.653066	0.465308	-17.57	7.77	-25.41	0.1917	-0.2179	-0.3671	
-0.609146	0.6588	0.475922	-17.01	5.88	-24.36	0.1917	-0.2225	-0.3594	
-0.59597	0.664168	0.474458	-15.82	4.2	-23.59	0.1889	-0.2087	-0.3716	
-0.597678	0.651602	0.469944	-14.91	3.29	-21.63	0.1833	-0.2132	-0.3685	
-0.622932	0.632082	0.462502	-13.37	4.2	-18.76	0.1973	-0.2133	-0.3656	
-0.622932	0.62586	0.478484	-13.3	5.46	-18.2	0.1944	-0.1995	-0.3716	
-0.620614	0.616466	0.482388	-12.32	5.25	-16.8	0.1957	-0.1978	-0.3623	
-0.61671	0.60817	0.48373	-12.04	6.65	-14.63	0.1927	-0.1884	-0.3574	
-0.612196	0.609024	0.491538	-11.83	8.68	-12.6	0.2041	-0.1963	-0.3608	
-0.623664	0.59902	0.482388	-11.62	8.61	-10.43	0.2111	-0.1872	-0.3624	
-0.644404	0.598532	0.489342	-10.92	7.35	-9.8	0.2013	-0.1918	-0.3669	
-0.65941	0.598288	0.483974	-10.22	5.46	-9.87	0.204	-0.1855	-0.3607	
-0.641598	0.602314	0.477752	-9.73	4.76	-10.43	0.2096	-0.1825	-0.3638	
-0.634644	0.617198	0.491904	-9.1	3.29	-10.36	0.2154	-0.1873	-0.3718	
-0.643306	0.624396	0.49532	-7.98	3.36	-10.08	0.2068	-0.1748	-0.3684	
-0.653554	0.610122	0.489342	-7.28	2.94	-9.1	0.2054	-0.1764	-0.3699	
-0.682102	0.607072	0.482998	-6.37	3.08	-8.26	0.2054	-0.1794	-0.3622	
-0.682346	0.60146	0.492392	-5.32	2.1	-8.33	0.2137	-0.1686	-0.3622	
-0.65514	0.590724	0.49654	-5.04	0.21	-8.82	0.2124	-0.1733	-0.3653	
-0.629032	0.581086	0.493734	-3.64	0.63	-8.68	0.2123	-0.164	-0.3652	
-0.647576	0.57767	0.493856	-2.66	-0.14	-7.77	0.2152	-0.1718	-0.37	
-0.642086	0.579012	0.497028	-2.03	0.07	-7.49	0.2109	-0.1625	-0.3714	
-0.64599	0.578524	0.499712	-1.82	0.56	-7.14	0.2209	-0.1765	-0.3655	
-0.65514	0.582916	0.504348	-2.17	1.05	-7	0.2236	-0.1734	-0.3655	
-0.652334	0.579622	0.497638	-1.96	0.84	-7.07	0.204	-0.1686	-0.3713	
-0.647454	0.581208	0.491172	-1.26	0.84	-7.28	0.2167	-0.1719	-0.3716	
-0.665144	0.588772	0.487146	-1.4	1.54	-7.21	0.2136	-0.1594	-0.3652	
-0.664412	0.585844	0.485316	-1.68	1.05	-6.86	0.2193	-0.164	-0.3606	
-0.65941	0.582062	0.484218	-1.89	0.7	-6.09	0.2251	-0.1566	-0.3777	
-0.665266	0.571814	0.481412	-2.1	1.19	-5.88	0.2208	-0.1672	-0.3654	
-0.669414	0.576206	0.489952	-1.4	0.56	-5.53	0.2194	-0.1641	-0.3684	
-0.674416	0.569496	0.485804	-1.12	0	-5.11	0.218	-0.1641	-0.37	
-0.683932	0.576084	0.483364	-0.35	-1.05	-4.34	0.2251	-0.1689	-0.3701	
-0.671366	0.580598	0.47641	-0.14	-1.89	-3.64	0.2151	-0.161	-0.3652	
-0.667706	0.582062	0.472384	-0.49	-1.12	-3.01	0.2181	-0.1719	-0.3732	
-0.67161	0.582306	0.473726	-1.33	-1.26	-1.68	0.2124	-0.1595	-0.376	
-0.678076	0.569984	0.478606	-1.61	-1.12	-1.75	0.225	-0.1673	-0.3686	
-0.670634	0.568154	0.49044	-1.4	-2.45	-1.26	0.2165	-0.161	-0.3699	
-0.65453	0.564738	0.487878	-1.54	-2.31	-0.28	0.2223	-0.1704	-0.3717	
-0.647088	0.56242	0.498858	-0.7	-2.31	0.77	0.2181	-0.1642	-0.3777	
-0.636474	0.57401	0.49654	0.28	-2.1	1.33	0.2151	-0.1594	-0.3683	
-0.64904	0.583038	0.487512	0.49	-0.56	1.54	0.2181	-0.1643	-0.3793	
-0.658434	0.587552	0.478728	-0.63	0.84	1.47	0.2123	-0.1548	-0.3697	
-0.659166	0.582062	0.483364	-1.4	0.91	1.33	0.2152	-0.1596	-0.3776	
-0.658068	0.586576	0.483974	-1.26	0.7	1.33	0.2251	-0.1627	-0.3732	
-0.654286	0.580232	0.48068	-1.75	1.33	1.4	0.2251	-0.1581	-0.3762	
-0.666974	0.578768	0.482632	-1.47	1.05	1.89	0.2194	-0.158	-0.3715	
-0.677222	0.576694	0.490196	-1.19	-0.49	2.31	0.2208	-0.1611	-0.3731	
-0.66734	0.574864	0.502396	-1.05	-0.35	2.8	0.2136	-0.1486	-0.3712	
-0.671854	0.56486	0.501176	-0.42	-0.63	3.5	0.2194	-0.1534	-0.3761	
-0.674172	0.5551	0.499102	0.42	-0.84	4.69	0.2137	-0.1563	-0.3682	
-0.660996	0.55632	0.49959	1.4	-1.96	7.35	0.2193	-0.1548	-0.3667	
-0.652822	0.55876	0.500566	1.75	-1.4	9.45	0.2111	-0.1611	-0.3822	
-0.65209	0.568886	0.508496	2.73	-1.82	11.34	0.2151	-0.1625	-0.3668	
-0.65331	0.56303	0.50264	4.41	-2.31	14.14	0.218	-0.1672	-0.37	
-0.647332	0.544364	0.515328	4.97	-1.4	16.94	0.2152	-0.1595	-0.3745	
-0.645868	0.525576	0.527406	5.46	0.77	19.32	0.2181	-0.1673	-0.3731	
-0.647942	0.468968	0.544364	7.42	-1.33	22.12	0.2124	-0.1687	-0.3699	
-0.615856	0.423462	0.52826	12.81	-3.99	23.52	0.2166	-0.1595	-0.3714	
-0.575962	0.435296	0.503006	20.79	-4.48	27.79	0.2083	-0.178	-0.37	
-0.568032	0.58072	0.455792	20.37	4.83	37.03	0.2112	-0.1842	-0.3701	
-0.671488	0.656238	0.46177	11.69	9.87	47.95	0.2012	-0.1901	-0.3591	
-0.67649	0.616588	0.517768	12.67	6.79	55.44	0.2041	-0.1902	-0.3654	
-0.651846	0.543632	0.569252	18.27	-5.32	55.3	0.207	-0.2041	-0.3594	
-0.581452	0.593042	0.318542	23.45	-13.51	55.51	0.1943	-0.1994	-0.3638	
-0.614636	0.806664	0.43737	13.58	4.83	57.68	0.1944	-0.2086	-0.3624	
-0.611342	0.686128	0.497882	-0.98	-6.44	66.15	0.1818	-0.2284	-0.3516	
-0.587918	0.61854	0.513742	5.53	-19.88	61.04	0.1705	-0.2206	-0.3559	
-0.549976	0.63074	0.508496	16.87	-27.23	56.63	0.1777	-0.2316	-0.3624	
-0.47214	0.651114	0.351604	18.27	-28.21	56.56	0.1622	-0.2314	-0.3591	
-0.483852	0.745542	0.420778	15.75	-13.44	62.16	0.1595	-0.2407	-0.3622	
-0.551318	0.744078	0.393328	8.89	-14.63	69.16	0.1496	-0.2436	-0.3575	
-0.510692	0.707966	0.50264	15.96	-23.59	70.63	0.1457	-0.2622	-0.3654	
-0.45689	0.693814	0.478484	26.04	-35.91	67.76	0.1358	-0.2651	-0.3591	
-0.36966	0.770552	0.41602	27.09	-38.78	66.5	0.1357	-0.2589	-0.3559	
-0.38857	0.904508	0.427	20.23	-26.25	69.86	0.1105	-0.2711	-0.3619	
-0.403088	0.841434	0.44469	14.98	-27.44	77.28	0.1119	-0.2771	-0.3511	
-0.366122	0.757742	0.5063	21.7	-34.58	72.59	0.0992	-0.2662	-0.3569	
-0.281698	0.80093	0.43188	26.32	-42.56	65.94	0.0839	-0.2877	-0.357	
-0.202642	0.898408	0.471042	29.96	-42	63	0.0769	-0.2969	-0.3539	
-0.190564	0.87718	0.415898	27.65	-28.56	64.4	0.0671	-0.2953	-0.3599	
-0.217404	0.855952	0.43493	29.26	-29.12	66.01	0.0573	-0.3075	-0.3553	
-0.166286	0.897798	0.40504	34.44	-34.93	60.9	0.0559	-0.3121	-0.3506	
-0.115168	0.905972	0.428586	38.85	-35.07	59.08	0.0389	-0.321	-0.338	
-0.085888	0.872422	0.390156	38.5	-30.66	59.29	0.0164	-0.3131	-0.3469	
-0.080642	0.904264	0.355264	39.13	-25.97	59.15	0.0221	-0.327	-0.341	
-0.085522	0.93574	0.32269	38.15	-25.2	61.32	0.007999999	-0.3314	-0.3361	
-0.06466	0.939766	0.31537	34.58	-24.15	60.2	-0.0017	-0.3329	-0.3375	
-0.030012	0.932568	0.309148	31.29	-24.36	59.78	-0.0062	-0.3373	-0.3204	
-0.0061	0.923784	0.291824	29.96	-23.38	58.94	-0.0117	-0.3434	-0.3235	
0.019398	0.9211	0.274988	29.19	-25.34	59.5	-0.0131	-0.3464	-0.3189	
0.052338	0.930494	0.25864	28.21	-24.01	59.29	-0.0441	-0.3476	-0.3168	
0.066612	0.949282	0.252052	26.88	-24.22	58.45	-0.0455	-0.3507	-0.3153	
0.05795	0.934886	0.235704	24.43	-22.82	59.08	-0.0541	-0.3413	-0.3119	
0.085278	0.911584	0.235948	25.41	-21.84	57.61	-0.0624	-0.3582	-0.312	
0.12932	0.921832	0.257054	25.9	-26.32	57.4	-0.0751	-0.3549	-0.3087	
0.167018	0.92415	0.243634	25.41	-28.98	57.54	-0.0823	-0.3547	-0.2992	
0.19215	0.907192	0.237534	26.18	-29.05	57.05	-0.0892	-0.3578	-0.3069	
0.241194	0.911706	0.219356	28	-32.13	56.7	-0.112	-0.365	-0.288	
0.26596	0.916098	0.207156	26.74	-31.08	58.59	-0.1093	-0.3604	-0.2833	
0.290238	0.911828	0.193248	29.12	-30.03	59.01	-0.1389	-0.3646	-0.2782	
0.312808	0.917806	0.177998	27.93	-28.42	60.48	-0.132	-0.3599	-0.2674	
0.320616	0.941474	0.17324	30.94	-28.98	60.83	-0.1545	-0.3673	-0.2625	
0.331718	0.959774	0.175314	32.41	-25.76	59.57	-0.1588	-0.3688	-0.2624	
0.345992	0.948306	0.178974	30.59	-27.58	57.26	-0.1686	-0.3733	-0.2577	
0.374662	0.912804	0.17263	32.34	-29.82	53.76	-0.1787	-0.3638	-0.2496	
0.409066	0.904508	0.145546	29.54	-29.96	50.4	-0.1845	-0.3529	-0.2463	
0.418582	0.909388	0.133468	30.87	-29.05	48.86	-0.1917	-0.3526	-0.2337	
0.427122	0.9394	0.12261	30.38	-29.61	48.86	-0.2085	-0.3679	-0.2336	
0.424926	0.947452	0.111996	29.89	-25.9	47.32	-0.2129	-0.3584	-0.2225	
0.456646	0.933422	0.09942999	28.42	-26.32	46.13	-0.2087	-0.357	-0.2257	
0.483486	0.945256	0.0732	27.58	-25.69	41.16	-0.2255	-0.3599	-0.227	
0.499712	0.953186	0.071492	27.37	-25.76	39.34	-0.2356	-0.3749	-0.2006	
0.50508	0.954162	0.0366	24.99	-20.86	36.12	-0.2355	-0.3658	-0.2145	
0.491416	0.937326	0.022204	22.75	-17.29	32.55	-0.254	-0.3593	-0.2048	
0.489708	0.9211	0.008784	21.49	-16.59	29.82	-0.2472	-0.3515	-0.1955	
0.495564	0.903898	0.005246	20.51	-17.15	28.84	-0.2471	-0.3638	-0.191	
0.515694	0.88755	-0.000976	19.81	-17.08	26.74	-0.2628	-0.3543	-0.1859	
0.530212	0.870958	-0.005246	20.51	-16.45	26.53	-0.2572	-0.3528	-0.186	
0.539484	0.864492	-0.050996	18.34	-15.75	27.23	-0.2603	-0.3464	-0.1719	
0.537654	0.862662	-0.034526	16.31	-14.7	29.89	-0.2699	-0.3511	-0.1827	
0.577548	0.85705	-0.022448	17.08	-20.37	34.51	-0.2673	-0.3448	-0.1733	
0.641354	0.873032	-0.025986	12.95	-18.55	35.91	-0.2828	-0.3477	-0.1715	
0.657336	0.885354	-0.0244	12.39	-14.21	36.75	-0.2871	-0.3445	-0.1652	
0.63806	0.881084	-0.03843	8.26	-10.01	36.12	-0.2899	-0.3445	-0.1667	
0.616344	0.869982	-0.06771	5.74	-5.39	31.01	-0.2972	-0.335	-0.1603	
0.571936	0.875472	-0.06771	2.66	-2.17	27.09	-0.2957	-0.3366	-0.1634	
0.558028	0.876692	-0.067954	1.96	-1.82	25.27	-0.3086	-0.324	-0.1584	
0.572302	0.85095	-0.061244	-1.75	-1.4	23.45	-0.3	-0.335	-0.1618	
0.614148	0.804346	-0.036356	-7.63	-2.52	20.3	-0.314	-0.3303	-0.1677	
0.62464	0.787632	-0.043554	-6.72	-5.18	18.2	-0.314	-0.3303	-0.1661	
0.619394	0.78995	-0.0427	-3.85	-6.86	18.2	-0.3142	-0.3132	-0.1628	
0.60817	0.79178	-0.035624	-2.45	-8.12	19.81	-0.3158	-0.3223	-0.1489	
0.615124	0.780068	-0.026718	-4.2	-8.19	19.25	-0.3114	-0.3133	-0.166	
0.63928	0.78019	-0.04819	-1.47	-10.29	20.3	-0.3199	-0.3239	-0.1551	
0.635864	0.792512	-0.03294	-1.82	-10.15	20.58	-0.334	-0.3099	-0.1609	
0.647576	0.798856	-0.02318	-4.2	-8.96	19.95	-0.3284	-0.3068	-0.161	
0.669048	0.78812	-0.026718	-5.04	-9.8	18.76	-0.3256	-0.3069	-0.1594	
0.68198	0.768112	-0.027938	-8.26	-7.84	15.47	-0.3313	-0.3037	-0.1578	
0.71187	0.768722	-0.037332	-8.4	-7.49	16.17	-0.3357	-0.3035	-0.1499	
0.712846	0.769454	-0.023302	-6.51	-6.58	17.92	-0.3342	-0.3021	-0.1577	
0.694912	0.80337	-0.006954	-6.3	-3.43	17.22	-0.3357	-0.2974	-0.1545	
0.685396	0.793732	-0.00427	-8.89	-0.7	16.45	-0.3385	-0.2928	-0.1559	
0.691862	0.752618	-0.004636	-10.22	1.19	13.58	-0.3427	-0.2927	-0.1574	
0.692594	0.736758	-0.020862	-4.69	1.68	13.44	-0.3469	-0.2957	-0.1558	
0.665754	0.75701	-0.020496	-3.36	3.22	14.07	-0.3442	-0.2865	-0.1558	
0.66795	0.759572	-0.021594	-5.32	4.27	12.95	-0.3469	-0.2927	-0.1574	
0.69845	0.739564	-0.01647	-5.53	2.59	12.6	-0.3498	-0.2865	-0.1603	
0.704306	0.748104	-0.014762	-4.27	3.36	11.83	-0.3483	-0.285	-0.1635	
0.687226	0.74481	-0.00732	-3.64	3.78	10.5	-0.34	-0.2773	-0.1588	
0.701378	0.72407	-0.004392	-4.83	3.99	9.24	-0.3427	-0.2804	-0.1635	
0.698328	0.714432	-0.002196	-1.61	2.94	8.47	-0.3483	-0.2804	-0.1696	
0.681248	0.737612	-0.005734	-0.42	4.27	7.63	-0.3525	-0.2773	-0.1726	
0.668682	0.732976	-0.003538	-0.77	3.64	6.79	-0.354	-0.2741	-0.1648	
0.691374	0.716628	-0.002318	-1.19	2.66	6.86	-0.3526	-0.2773	-0.168	
0.709796	0.707722	-0.00061	-0.42	2.45	6.79	-0.3471	-0.2726	-0.1618	
0.706868	0.710284	0.004392	0.91	2.17	7.91	-0.3511	-0.2804	-0.1696	
0.70089	0.726754	-0.000976	1.61	1.68	8.96	-0.3471	-0.2711	-0.1633	
0.700768	0.739686	-0.00305	1.61	1.33	8.33	-0.3568	-0.2742	-0.1725	
0.70455	0.729072	-0.007929999	-1.12	1.82	6.72	-0.3512	-0.2727	-0.171	
0.703696	0.718092	-0.011468	0.77	-0.56	6.51	-0.3596	-0.2772	-0.1694	
0.70638	0.723948	-0.006222	0.7	-0.98	5.81	-0.3569	-0.2664	-0.1662	
0.71187	0.714798	-0.008296	-0.07	-0.14	5.95	-0.3513	-0.2649	-0.1647	
0.73078	0.716018	-0.008905999	0.49	-0.63	6.58	-0.3496	-0.2743	-0.1773	
0.699426	0.723582	-0.01098	-0.07	-0.7	6.37	-0.3582	-0.268	-0.1709	
0.705282	0.722606	-0.009393999	-0.21	-1.89	5.53	-0.3513	-0.2634	-0.1662	
0.732366	0.700646	-0.009638	-0.49	-2.17	4.41	-0.3597	-0.2695	-0.1677	
0.744566	0.694302	-0.012688	1.19	-1.89	4.48	-0.3571	-0.2617	-0.1599	
0.731878	0.721386	-0.008905999	2.94	-0.7	4.13	-0.3584	-0.271	-0.1616	
0.716506	0.725046	-0.018178	1.05	-0.28	3.36	-0.3598	-0.2679	-0.1631	
0.7198	0.717482	-0.019398	0.98	-0.63	2.31	-0.3555	-0.2649	-0.1677	
0.707478	0.732732	-0.020496	0.21	0	1.47	-0.3598	-0.2602	-0.1676	
0.71065	0.699792	-0.015372	-2.52	-0.63	0.98	-0.3641	-0.2616	-0.1629	
0.739076	0.680394	-0.017934	-1.82	-1.82	1.75	-0.3599	-0.2616	-0.1567	
0.733098	0.707478	-0.011834	1.19	-1.4	2.31	-0.354	-0.2726	-0.1679	
0.708332	0.731756	-0.010492	0	-0.91	2.38	-0.3584	-0.2618	-0.1677	
0.740662	0.702354	-0.006832	-2.1	-0.77	2.31	-0.35	-0.2633	-0.1632	
0.733464	0.70577	-0.011346	-1.75	0	2.52	-0.354	-0.268	-0.1709	
0.724314	0.70394	-0.005246	-1.33	0.14	2.59	-0.3598	-0.2632	-0.163	
0.728706	0.711626	-0.011712	-0.98	0.98	2.17	-0.3599	-0.2509	-0.1691	
0.723948	0.716384	-0.013176	-1.33	1.4	1.82	-0.3625	-0.2679	-0.1661	
0.739442	0.705892	-0.010614	-1.89	0.63	2.24	-0.3554	-0.2665	-0.1724	
0.745542	0.69967	-0.016226	-2.03	1.4	1.05	-0.3585	-0.2724	-0.1522	
0.747006	0.704672	-0.015982	-2.1	3.15	0.14	-0.3626	-0.2617	-0.166	
0.737002	0.720166	-0.015616	-1.61	3.92	-1.26	-0.3527	-0.2695	-0.1632	
0.72651	0.721874	-0.008296	-2.8	3.92	-1.61	-0.3584	-0.2571	-0.1692	
0.734318	0.711748	0.006832	-3.99	2.38	-1.61	-0.3683	-0.2616	-0.1628	
0.753228	0.698206	0.010004	-4.48	3.08	-1.96	-0.3653	-0.2602	-0.1737	
0.762622	0.69235	0.003538	-3.08	3.43	-2.52	-0.357	-0.251	-0.1691	
0.74481	0.71614	-0.000732	-1.19	5.25	-2.73	-0.3625	-0.2556	-0.1753	
0.726998	0.726022	0.005612	-2.73	5.95	-3.78	-0.3514	-0.2649	-0.1631	
0.752008	0.709552	0.005246	-4.27	4.34	-3.57	-0.3542	-0.2587	-0.1677	
0.742858	0.712846	-0.004392	-4.41	5.25	-5.6	-0.3527	-0.2618	-0.1693	
0.735416	0.724436	-0.001464	-4.55	5.32	-6.58	-0.3595	-0.2651	-0.1848	
0.748836	0.735904	0.00671	-5.39	5.53	-7	-0.3498	-0.2696	-0.171	
0.761646	0.736148	0.022692	-7	6.65	-8.75	-0.3555	-0.2588	-0.1723	
0.774334	0.737612	0.025132	-7.21	8.05	-10.85	-0.3526	-0.2619	-0.174	
0.777018	0.744444	0.024522	-6.79	10.71	-13.79	-0.3512	-0.2589	-0.1802	
0.769942	0.756644	0.025254	-6.09	13.72	-17.22	-0.3482	-0.2698	-0.1804	
0.756766	0.768112	0.020008	-5.67	14.49	-21	-0.3496	-0.2775	-0.1804	
0.736392	0.76921	0.03355	-7.35	16.31	-25.34	-0.3382	-0.27	-0.1914	
0.740906	0.762378	0.039772	-8.54	16.52	-28.35	-0.331	-0.2809	-0.1932	
0.722118	0.74542	0.033306	-8.54	18.06	-30.94	-0.3353	-0.2778	-0.1947	
0.688324	0.744688	0.021106	-7.21	19.6	-35.77	-0.3324	-0.2763	-0.1978	
0.676002	0.776652	0.029768	-4.62	18.83	-39.48	-0.3225	-0.2811	-0.1965	
0.684664	0.77653	0.047946	-7.63	17.92	-42.98	-0.3209	-0.2951	-0.2013	
0.689056	0.748226	0.062586	-8.89	18.48	-46.62	-0.3183	-0.2812	-0.1997	
0.679418	0.742126	0.060268	-7.35	17.99	-46.06	-0.3111	-0.2936	-0.1999	
0.64599	0.758474	0.04758	-6.16	18.27	-46.41	-0.3025	-0.2924	-0.214	
0.608292	0.767502	0.059536	-7.28	19.32	-46.97	-0.2968	-0.3063	-0.2081	
0.584746	0.804712	0.060512	-4.69	18.06	-45.01	-0.2954	-0.3047	-0.2081	
0.570472	0.851072	0.072224	-7.35	17.22	-42.77	-0.2826	-0.3065	-0.2161	
0.60146	0.855586	0.088694	-11.97	20.79	-47.11	-0.2768	-0.3113	-0.2194	
0.591944	0.808494	0.110044	-15.75	17.15	-48.72	-0.2711	-0.3176	-0.2258	
0.590602	0.826916	0.119194	-12.53	20.37	-52.36	-0.2696	-0.3192	-0.2289	
0.552416	0.842776	0.112484	-13.58	21.28	-52.08	-0.264	-0.3161	-0.2243	
0.545706	0.865956	0.110654	-13.79	20.3	-51.24	-0.2497	-0.3288	-0.234	
0.541192	0.878766	0.114314	-15.68	21.14	-52.01	-0.2414	-0.3242	-0.2294	
0.502518	0.875228	0.119926	-17.5	24.99	-54.81	-0.2356	-0.3366	-0.2281	
0.486048	0.879132	0.139324	-18.55	24.71	-55.16	-0.2325	-0.3414	-0.2422	
0.479826	0.875594	0.159332	-19.67	26.67	-54.95	-0.2283	-0.3369	-0.2438	
0.438224	0.864492	0.16775	-19.95	26.04	-53.62	-0.2098	-0.3373	-0.2596	
0.387838	0.881572	0.17019	-18.76	26.25	-51.24	-0.2072	-0.3372	-0.2472	
0.363804	0.912072	0.192516	-18.9	25.06	-49.84	-0.1969	-0.3484	-0.2678	
0.376492	0.906338	0.19764	-19.67	20.23	-48.93	-0.1716	-0.344	-0.265	
0.366122	0.915488	0.206058	-22.96	16.59	-48.86	-0.1799	-0.3533	-0.2743	
0.349652	0.910974	0.225578	-23.24	22.47	-47.67	-0.1699	-0.3565	-0.2761	
0.302682	0.913414	0.231434	-23.59	23.38	-46.97	-0.1615	-0.3443	-0.2823	
0.28243	0.923052	0.238144	-21.7	20.02	-48.02	-0.1444	-0.3601	-0.289	
0.294508	0.952454	0.250222	-20.65	24.64	-48.16	-0.1431	-0.3477	-0.2873	
0.259738	0.950136	0.262178	-22.4	26.95	-49.21	-0.1418	-0.3445	-0.2826	
0.21838	0.937692	0.25193	-21.49	23.94	-49.49	-0.1273	-0.3543	-0.3047	
0.182146	0.94123	0.26108	-22.12	23.94	-49.84	-0.1218	-0.345	-0.3016	
0.159088	0.929762	0.278892	-22.68	23.59	-49.14	-0.1162	-0.3497	-0.2986	
0.132004	0.914268	0.30927	-22.82	21.98	-50.75	-0.1148	-0.3405	-0.3063	
0.116998	0.923784	0.31537	-21.56	18.69	-50.96	-0.0949	-0.3485	-0.3083	
0.104798	0.950746	0.320616	-20.58	18.41	-50.61	-0.0936	-0.3454	-0.3067	
0.101382	0.948306	0.321226	-22.05	17.64	-49.77	-0.0891	-0.3488	-0.3239	
0.098332	0.924394	0.330132	-24.43	16.24	-49.21	-0.0836	-0.341	-0.3177	
0.05734	0.919148	0.345504	-21.35	19.6	-49.56	-0.0751	-0.3442	-0.3179	
0.023912	0.937448	0.360022	-18.34	18.55	-50.19	-0.068	-0.3443	-0.3211	
0.000366	0.948306	0.349408	-15.96	19.53	-52.57	-0.065	-0.343	-0.3367	
-0.009516	0.906704	0.355752	-17.57	19.32	-52.22	-0.054	-0.3368	-0.3228	
-0.007198	0.906826	0.363926	-17.85	22.96	-55.86	-0.0427	-0.3338	-0.3245	
-0.04941	0.898774	0.368318	-16.59	25.76	-58.8	-0.0273	-0.3278	-0.3277	
-0.044896	0.9089	0.388936	-15.05	23.45	-58.03	-0.0312	-0.3465	-0.3372	
-0.040626	0.943304	0.394426	-12.95	26.88	-60.83	-0.0173	-0.3265	-0.3341	
-0.106384	0.957456	0.401502	-13.37	30.87	-60.69	0.0024	-0.336	-0.3361	
-0.144204	0.930738	0.373564	-9.24	28.49	-61.18	0.0023	-0.3344	-0.3314	
-0.140788	0.876082	0.364536	-12.11	26.95	-64.47	0.0151	-0.3224	-0.3486	
-0.134322	0.88938	0.369416	-12.81	25.13	-67.27	0.0277	-0.3225	-0.3441	
-0.166042	0.887062	0.387716	-12.25	32.55	-66.22	0.0333	-0.3194	-0.341	
-0.184098	0.845826	0.393328	-13.86	32.34	-66.43	0.0489	-0.3167	-0.3552	
-0.228506	0.836798	0.370514	-12.53	31.22	-62.65	0.0657	-0.3075	-0.3507	
-0.25376	0.813374	0.386008	-13.37	30.38	-60.27	0.0669	-0.3059	-0.3414	
-0.272792	0.802516	0.383202	-10.29	31.57	-57.61	0.0827	-0.3109	-0.3557	
-0.295118	0.814838	0.397354	-7.21	31.99	-54.67	0.0825	-0.3077	-0.3463	
-0.31232	0.814594	0.375272	-7.91	32.62	-52.36	0.09649999	-0.3001	-0.3433	
-0.330376	0.809958	0.39711	-6.79	31.64	-48.79	0.1093	-0.3004	-0.356	
-0.34526	0.830698	0.380396	-5.88	32.2	-45.92	0.1219	-0.3019	-0.3453	
-0.37027	0.845826	0.388448	-3.92	33.53	-42.14	0.1232	-0.3003	-0.3407	
-0.385154	0.83753	0.356972	-5.95	33.04	-38.92	0.1274	-0.2973	-0.3438	
-0.419436	0.829112	0.359534	-7.7	30.59	-37.03	0.1485	-0.2883	-0.344	
-0.428098	0.823134	0.38003	-7.14	28.7	-36.75	0.1498	-0.2806	-0.3439	
-0.437736	0.816058	0.365146	-6.72	27.44	-36.47	0.1569	-0.2792	-0.3487	
-0.44286	0.805566	0.359778	-7.14	27.86	-35.63	0.1639	-0.2823	-0.3442	
-0.465552	0.804346	0.367952	-6.51	29.4	-33.95	0.1707	-0.2714	-0.3379	
-0.49288	0.799832	0.37088	-5.88	30.17	-33.18	0.168	-0.2822	-0.3334	
-0.510448	0.795318	0.341478	-5.88	30.94	-33.25	0.1833	-0.2669	-0.3319	
-0.513742	0.783972	0.335866	-4.97	26.25	-34.16	0.1861	-0.2684	-0.3319	
-0.544242	0.772992	0.319396	-7.63	24.5	-33.53	0.196	-0.2671	-0.3352	
-0.55327	0.774456	0.336842	-7.07	21.35	-32.76	0.1959	-0.2593	-0.3304	
-0.57584	0.760182	0.333548	-8.61	19.53	-31.57	0.1916	-0.2592	-0.3303	
-0.601216	0.745542	0.345382	-10.36	17.36	-30.24	0.1946	-0.2593	-0.3382	
-0.594994	0.721508	0.35014	-11.55	16.1	-30.59	0.2169	-0.2533	-0.3307	
-0.569252	0.701866	0.35441	-11.62	14	-30.31	0.2183	-0.2517	-0.3276	
-0.55876	0.693204	0.36661	-11.06	14.84	-30.17	0.2224	-0.241	-0.3275	
-0.59414	0.694058	0.366732	-10.15	15.05	-28.35	0.2224	-0.2348	-0.3321	
-0.612928	0.703696	0.362218	-9.94	15.61	-26.67	0.2254	-0.2442	-0.3385	
-0.621956	0.720776	0.355996	-9.66	14.84	-26.18	0.2265	-0.2286	-0.3258	
-0.623542	0.709796	0.328668	-11.83	13.72	-25.69	0.2323	-0.2319	-0.3353	
-0.639402	0.693692	0.34709	-12.25	11.83	-24.78	0.2321	-0.2287	-0.3259	
-0.65697	0.67954	0.359656	-11.83	11.13	-24.5	0.2376	-0.2256	-0.3213	
-0.665388	0.672342	0.357948	-11.06	11.06	-23.59	0.2421	-0.2274	-0.3354	
-0.66307	0.66978	0.364414	-11.41	11.62	-22.4	0.2421	-0.2289	-0.3354	
-0.66917	0.654286	0.378566	-11.62	11.62	-21	0.2474	-0.2057	-0.3274	
-0.677954	0.629154	0.375394	-10.43	11.62	-20.93	0.2545	-0.2043	-0.3337	
-0.673684	0.622932	0.38308	-8.4	10.01	-20.23	0.2544	-0.2088	-0.3276	
-0.68503	0.609756	0.379298	-6.16	9.38	-18.97	0.2529	-0.198	-0.3274	
-0.682834	0.621102	0.370148	-4.69	9.1	-17.15	0.2655	-0.1919	-0.3229	
-0.702476	0.627934	0.3538	-5.04	9.45	-15.26	0.2614	-0.1997	-0.3291	
-0.71919	0.629764	0.343918	-5.18	9.03	-14.14	0.2557	-0.1934	-0.329	
-0.72529	0.622566	0.335256	-6.37	7.7	-13.79	0.2712	-0.1951	-0.3246	
-0.721508	0.615246	0.339282	-7.28	5.88	-13.58	0.2682	-0.1796	-0.3243	
-0.719312	0.611098	0.349408	-8.12	3.78	-13.79	0.2697	-0.1858	-0.326	
-0.723338	0.615856	0.36112	-8.33	1.89	-13.09	0.2695	-0.1887	-0.3136	
-0.71614	0.627324	0.36295	-8.4	2.17	-11.48	0.2824	-0.1844	-0.3277	
-0.732366	0.62281	0.356362	-8.82	1.96	-9.45	0.2739	-0.1736	-0.3352	
-0.736392	0.606828	0.374418	-9.31	-0.14	-7.49	0.2697	-0.1782	-0.3321	
-0.73688	0.588284	0.372588	-9.38	1.26	-8.19	0.2769	-0.183	-0.3385	
-0.734562	0.585112	0.354654	-7.56	0.21	-6.93	0.2809	-0.1767	-0.3276	
-0.736392	0.611464	0.377956	-5.25	-1.89	-4.48	0.2781	-0.1782	-0.3291	
-0.721264	0.60512	0.387716	-4.9	-1.33	-5.88	0.2696	-0.1735	-0.332	
-0.706502	0.584258	0.383446	-4.27	-0.7	-6.44	0.2736	-0.1657	-0.3211	
-0.706624	0.577182	0.388448	-3.57	0.77	-7.14	0.2668	-0.1734	-0.3289	
-0.71004	0.586332	0.38918	-2.45	0.7	-6.79	0.2752	-0.1766	-0.3275	
-0.71126	0.587186	0.377834	-2.03	0.84	-6.02	0.2694	-0.1641	-0.321	
-0.717604	0.587918	0.374662	-1.54	0.77	-5.6	0.278	-0.1689	-0.3305	
-0.7198	0.587064	0.366	-1.54	-0.42	-5.32	0.2682	-0.1735	-0.3289	
-0.729804	0.592188	0.365878	-1.82	-1.26	-5.53	0.2807	-0.1658	-0.3228	
-0.725778	0.59902	0.374906	-1.96	-2.66	-5.32	0.2738	-0.172	-0.3321	
-0.719068	0.594994	0.371124	-2.45	-3.29	-5.67	0.2751	-0.1688	-0.3243	
-0.716384	0.594262	0.380884	-2.73	-3.5	-5.81	0.2723	-0.1611	-0.3304	
-0.714432	0.58865	0.38918	-2.38	-2.8	-5.81	0.2723	-0.1627	-0.3288	
-0.710772	0.58316	0.390766	-1.75	-1.96	-5.39	0.2723	-0.1581	-0.3319	
-0.706868	0.598288	0.391376	-0.7	-1.82	-4.34	0.268	-0.158	-0.3302	
-0.716628	0.590846	0.37271	0.14	-1.12	-3.15	0.2821	-0.1551	-0.3304	
-0.714066	0.589748	0.372222	0.21	-0.77	-2.52	0.2808	-0.1644	-0.3336	
-0.716384	0.598288	0.36905	-0.56	-0.42	-1.89	0.2766	-0.1551	-0.3381	
-0.722972	0.59719	0.364048	-1.26	-0.14	-1.05	0.2821	-0.152	-0.3319	
-0.749202	0.591456	0.370514	-1.75	-0.98	-0.84	0.2821	-0.1612	-0.3274	
-0.75152	0.583526	0.374906	-1.82	-2.38	-0.7	0.2752	-0.1612	-0.3351	
-0.734074	0.57889	0.381982	-1.19	-3.15	-0.35	0.2681	-0.1565	-0.3349	
-0.7198	0.576694	0.380884	-0.49	-3.15	0.21	0.2821	-0.1582	-0.332	
-0.721142	0.586454	0.37637	-0.49	-2.8	1.12	0.2724	-0.1674	-0.3335	
-0.710528	0.600362	0.377712	-0.7	-1.89	1.75	0.2639	-0.1489	-0.3441	
-0.716262	0.595482	0.374662	-1.82	-1.4	1.75	0.278	-0.1658	-0.329	
-0.713944	0.58743	0.379542	-1.47	-1.68	1.05	0.2779	-0.1581	-0.3289	
-0.709186	0.588406	0.384178	-1.12	-1.4	0.21	0.2736	-0.1534	-0.3303	
-0.718336	0.587308	0.384788	-0.98	-0.77	-0.07	0.2695	-0.1596	-0.3303	
-0.720288	0.57462	0.38613	-1.33	-2.17	0.77	0.2822	-0.1475	-0.3412	
-0.710772	0.58072	0.394792	-0.63	-1.68	-0.84	0.2737	-0.1566	-0.3365	
-0.711626	0.593164	0.384544	-0.63	-0.7	-0.35	0.2738	-0.1582	-0.3412	
-0.723094	0.587918	0.380762	-1.05	-0.21	-0.14	0.2766	-0.1674	-0.3321	
-0.723094	0.588772	0.380396	-1.33	-0.63	-0.14	0.2723	-0.1673	-0.3289	
-0.72895	0.578524	0.382958	-1.61	-1.05	-0.35	0.2681	-0.1581	-0.3365	
-0.728462	0.58865	0.385764	-0.84	-2.31	-0.42	0.2682	-0.1627	-0.335	
-0.730292	0.585478	0.384422	-0.63	-2.38	-0.35	0.2723	-0.1658	-0.3289	
-0.72407	0.58682	0.38491	-0.28	-2.45	-0.42	0.2738	-0.1582	-0.3381	
-0.724314	0.585844	0.384666	-0.14	-2.59	-0.07	0.2765	-0.1596	-0.3304	
-0.7259	0.58316	0.390888	0.07	-2.8	0.28	0.2753	-0.1629	-0.3444	
-0.71858	0.587552	0.395036	0.56	-2.31	0.42	0.2766	-0.1582	-0.3397	
-0.708698	0.586332	0.389668	0.35	-1.75	0.49	0.2625	-0.1595	-0.3333	
-0.703452	0.589504	0.396622	0.98	-0.84	0.7	0.2695	-0.1612	-0.3334	
-0.687958	0.569496	0.392108	1.47	0.63	0.7	0.2696	-0.1643	-0.3335	
-0.70272	0.581574	0.388936	1.26	3.22	1.47	0.2779	-0.1642	-0.3227	
-0.731512	0.59597	0.390034	1.05	2.31	2.38	0.2737	-0.155	-0.335	
-0.721508	0.589016	0.391742	0.7	1.54	1.47	0.2709	-0.1581	-0.3318	
-0.722484	0.595848	0.394914	1.33	-0.56	1.19	0.2711	-0.1674	-0.3382	
-0.713944	0.577792	0.396988	1.19	-0.98	0.63	0.2654	-0.1612	-0.338	
-0.71187	0.57035	0.39223	1.54	-0.84	0.63	0.2668	-0.1627	-0.3381	
-0.730658	0.57462	0.392596	1.75	-0.14	2.52	0.2738	-0.1643	-0.3366	
-0.730292	0.569618	0.392718	2.17	-1.12	3.99	0.2724	-0.1704	-0.3289	
-0.738466	0.564128	0.388082	2.31	-1.61	6.93	0.2681	-0.155	-0.3349	
-0.755424	0.574986	0.388936	3.29	-2.52	8.68	0.2681	-0.1612	-0.335	
-0.738588	0.566812	0.38857	3.22	-3.29	10.99	0.2696	-0.1658	-0.3366	
-0.740906	0.561688	0.39894	3.92	-4.13	12.67	0.2712	-0.169	-0.3429	
-0.738222	0.551928	0.40565	4.9	-3.85	15.68	0.2654	-0.1689	-0.3381	
-0.744566	0.550464	0.413214	5.46	-4.76	18.06	0.2698	-0.1767	-0.3383	
-0.731146	0.554368	0.40687	7.14	-7.28	19.39	0.2586	-0.1828	-0.3397	
-0.730414	0.573156	0.398208	8.47	-9.24	21.14	0.2641	-0.1766	-0.3398	
-0.719434	0.584014	0.398574	8.82	-11.34	23.45	0.2627	-0.1766	-0.3351	
-0.711504	0.584014	0.395524	8.61	-11.83	24.5	0.2501	-0.1826	-0.3381	
-0.715164	0.559736	0.40626	10.08	-16.59	27.65	0.2613	-0.1889	-0.3321	
-0.700402	0.615856	0.39467	13.79	-19.6	32.13	0.2446	-0.1904	-0.3443	
-0.679296	0.625982	0.362584	11.55	-20.02	35.91	0.2589	-0.1999	-0.3524	
-0.681858	0.631594	0.402844	8.47	-16.1	38.92	0.2391	-0.2011	-0.3428	
-0.690154	0.624762	0.407236	9.45	-17.36	41.58	0.2418	-0.2026	-0.3351	
-0.67222	0.629032	0.445666	13.72	-22.12	44.24	0.2238	-0.2134	-0.3505	
-0.652212	0.627446	0.375394	15.33	-28.14	47.32	0.2182	-0.2241	-0.3427	
-0.629032	0.643184	0.36905	13.37	-26.25	50.54	0.2182	-0.2241	-0.3427	
-0.665876	0.668438	0.349286	7.91	-25.83	55.65	0.2113	-0.2241	-0.3504	
-0.641964	0.686738	0.423218	9.17	-30.59	59.92	0.2029	-0.2395	-0.3474	
-0.556076	0.699426	0.402478	7.63	-33.25	59.29	0.2029	-0.2395	-0.3474	
-0.5185	0.727486	0.428342	12.67	-35.84	58.52	0.1973	-0.2363	-0.3472	
-0.512766	0.729072	0.381372	11.06	-36.26	58.94	0.1862	-0.2486	-0.3519	
-0.514474	0.763232	0.39711	10.08	-37.87	59.22	0.1764	-0.2531	-0.3502	
-0.500322	0.77775	0.39894	8.12	-38.5	59.08	0.1526	-0.2637	-0.3515	
-0.417728	0.762622	0.393084	11.62	-44.31	56	0.15	-0.2731	-0.361	
-0.38796	0.812276	0.39406	15.54	-43.68	55.93	0.147	-0.2729	-0.3531	
-0.374052	0.843386	0.384544	10.92	-37.1	56.77	0.1331	-0.2667	-0.3653	
-0.376858	0.81618	0.414312	9.66	-35.49	57.61	0.119	-0.2788	-0.3574	
-0.322446	0.796172	0.427366	14.77	-42.14	57.4	0.1175	-0.2757	-0.3542	
-0.28609	0.795562	0.406992	19.6	-42.14	54.53	0.09079999	-0.2846	-0.3477	
-0.292678	0.832894	0.397476	21.63	-43.47	55.02	0.0911	-0.2956	-0.3603	
-0.29097	0.883646	0.367342	19.46	-39.41	56.98	0.08639999	-0.2891	-0.3384	
-0.274378	0.866566	0.364292	16.1	-40.53	60.06	0.074	-0.2968	-0.3492	
-0.225456	0.865834	0.385642	13.37	-41.09	59.15	0.0515	-0.3042	-0.3442	
-0.173484	0.852658	0.420778	16.87	-44.03	59.29	0.0417	-0.3011	-0.3487	
-0.153842	0.876692	0.40748	21.84	-45.08	58.73	0.0433	-0.3135	-0.3551	
-0.1586	0.914756	0.381738	19.04	-42.91	59.78	0.0248	-0.3071	-0.3485	
-0.123342	0.920246	0.355386	16.59	-41.79	60.62	0.0222	-0.3149	-0.3563	
-0.091744	0.881572	0.37881	11.69	-39.9	59.22	0.0024	-0.3145	-0.3498	
-0.06893	0.858758	0.393816	10.64	-40.04	58.66	-0.0062	-0.3097	-0.3403	
-0.002928	0.864736	0.390522	17.78	-43.05	62.02	-0.023	-0.3218	-0.3371	
0.025254	0.881938	0.384422	17.64	-42.91	61.53	-0.0285	-0.3264	-0.3401	
0.014762	0.921588	0.369416	15.61	-38.36	62.37	-0.0513	-0.3152	-0.3287	
0.041236	0.965264	0.366366	13.16	-37.38	60.9	-0.0638	-0.3291	-0.3334	
0.074664	0.903044	0.38125	13.65	-33.6	60.76	-0.0766	-0.3227	-0.33	
0.120414	0.862174	0.37515	16.38	-35.77	56.42	-0.0852	-0.3209	-0.3221	
0.148352	0.862662	0.36539	18.2	-37.73	54.6	-0.0922	-0.3255	-0.3204	
0.178852	0.9028	0.35685	18.48	-39.76	56.28	-0.0922	-0.3255	-0.3204	
0.19642	0.906948	0.33977	18.97	-37.52	57.54	-0.09779999	-0.3285	-0.3173	
0.217648	0.897188	0.331474	19.32	-34.65	56.56	-0.1232	-0.3328	-0.3123	
0.226798	0.900726	0.321836	21.98	-32.27	56	-0.1275	-0.3265	-0.309	
0.252662	0.904142	0.31049	23.24	-29.68	55.79	-0.1331	-0.3341	-0.3059	
0.283406	0.907802	0.298412	22.75	-28.91	54.81	-0.1502	-0.3292	-0.2994	
0.312686	0.904264	0.299022	21.28	-28.91	54.32	-0.1602	-0.3182	-0.2975	
0.331962	0.889136	0.285968	21.35	-25.83	53.69	-0.1657	-0.3321	-0.2976	
0.334402	0.887916	0.275354	22.68	-24.43	52.99	-0.1743	-0.3303	-0.2834	
0.352824	0.922686	0.249734	24.85	-21.56	51.52	-0.1729	-0.3288	-0.2866	
0.36905	0.93818	0.230458	23.8	-21.35	50.82	-0.1983	-0.3238	-0.283	
0.393328	0.928054	0.248636	24.08	-20.02	49.42	-0.1941	-0.3223	-0.283	
0.413092	0.900604	0.227774	20.79	-17.43	47.95	-0.204	-0.3329	-0.2768	
0.421022	0.88694	0.223626	21.28	-17.92	46.41	-0.211	-0.3298	-0.2782	
0.433222	0.898774	0.213134	21.35	-16.24	45.71	-0.2111	-0.3312	-0.2689	
0.42944	0.891698	0.207034	22.82	-14	44.45	-0.2212	-0.3217	-0.2608	
0.44347	0.899628	0.19154	21	-15.68	43.4	-0.2227	-0.3186	-0.2592	
0.456402	0.900848	0.197762	19.74	-14.07	43.68	-0.2283	-0.3154	-0.2591	
0.470676	0.878156	0.193248	19.18	-13.93	42.56	-0.2312	-0.3215	-0.2513	
0.48739	0.882792	0.190564	19.25	-15.12	39.62	-0.244	-0.3197	-0.2449	
0.48556	0.883402	0.194346	17.92	-14.49	37.38	-0.2496	-0.3166	-0.2479	
0.493124	0.862784	0.173972	17.78	-15.68	35.77	-0.2498	-0.3041	-0.2415	
0.515816	0.849974	0.162138	18.06	-16.87	34.58	-0.2637	-0.3179	-0.2445	
0.529846	0.84302	0.15189	17.29	-16.87	33.46	-0.2669	-0.3145	-0.2242	
0.52826	0.850218	0.13847	15.96	-16.73	32.55	-0.2681	-0.3055	-0.2412	
0.5185	0.857294	0.1281	15.19	-17.64	31.85	-0.2768	-0.3068	-0.2286	
0.536678	0.855586	0.113704	14.49	-19.88	31.36	-0.2767	-0.3099	-0.2302	
0.565348	0.820572	0.105408	14	-23.59	32.41	-0.2896	-0.3064	-0.2144	
0.599264	0.826916	0.09467199	15.26	-28.14	33.74	-0.2938	-0.308	-0.2175	
0.625006	0.846436	0.088694	11.76	-28.77	35.28	-0.2955	-0.2924	-0.211	
0.633668	0.834846	0.089548	9.52	-27.79	33.67	-0.3068	-0.303	-0.2017	
0.645258	0.822524	0.071004	8.54	-26.6	29.68	-0.3154	-0.2874	-0.1998	
0.650138	0.824842	0.074054	6.58	-24.22	26.6	-0.3096	-0.2937	-0.2031	
0.644404	0.807396	0.05368	4.69	-22.96	25.62	-0.3223	-0.2935	-0.2013	
0.647332	0.797514	0.04331	6.51	-22.26	25.13	-0.3239	-0.2934	-0.1935	
0.659898	0.77958	0.053802	6.23	-21.14	24.57	-0.3324	-0.2871	-0.1902	
0.676734	0.776896	0.046116	6.16	-19.04	22.33	-0.3282	-0.2795	-0.1979	
0.681736	0.797026	0.0305	6.37	-18.34	22.19	-0.3298	-0.2778	-0.1854	
0.676368	0.78812	0.030134	8.12	-19.39	21.28	-0.3427	-0.2651	-0.1773	
0.691862	0.785924	0.042944	8.26	-19.6	18.13	-0.3425	-0.2852	-0.1744	
0.681736	0.782752	0.0183	8.61	-18.55	15.4	-0.3469	-0.2759	-0.1727	
0.673318	0.765428	0.005734	6.09	-18.62	13.51	-0.3456	-0.2666	-0.1695	
0.675148	0.754448	0.010614	4.69	-17.15	10.71	-0.3497	-0.2789	-0.168	
0.697474	0.737856	0.014884	3.5	-16.59	9.03	-0.3511	-0.2742	-0.171	
0.702964	0.733464	0.020618	3.71	-13.79	8.12	-0.3486	-0.2633	-0.1616	
0.703574	0.742126	0.010126	6.72	-15.75	10.01	-0.3568	-0.2726	-0.1709	
0.704184	0.74542	0.006222	6.51	-17.85	12.88	-0.3555	-0.2725	-0.1601	
0.705526	0.747006	0.000732	4.06	-16.24	10.43	-0.3585	-0.2647	-0.1584	
0.70272	0.743956	0.00915	0.63	-15.05	7.98	-0.364	-0.2678	-0.1599	
0.702354	0.73566	0.007076	-0.84	-13.09	6.79	-0.3584	-0.2693	-0.1569	
0.715042	0.718336	-0.010492	-2.59	-9.17	5.11	-0.3584	-0.2679	-0.1631	
0.734074	0.706624	-0.0183	0.91	-9.45	4.55	-0.3598	-0.2739	-0.1538	
0.725168	0.737124	-0.024034	-0.49	-7.07	4.06	-0.3458	-0.2756	-0.1525	
0.702354	0.742492	-0.014152	-1.89	-3.22	3.43	-0.3572	-0.2692	-0.1429	
0.696254	0.74969	-0.006832	-0.42	-6.23	3.85	-0.3699	-0.2553	-0.155	
0.69357	0.750178	-0.015738	-0.63	-4.97	4.41	-0.3585	-0.2693	-0.1522	
0.703818	0.732244	-0.024644	0.7	-5.04	5.18	-0.3668	-0.2755	-0.1599	
0.712236	0.732244	-0.019032	1.4	-2.52	3.57	-0.3685	-0.266	-0.1458	
0.715652	0.754082	-0.02318	1.19	-2.03	3.01	-0.3642	-0.2738	-0.146	
0.720044	0.756522	-0.024766	-1.26	0.07	2.52	-0.3658	-0.2628	-0.138	
0.71919	0.750666	-0.021228	-0.98	2.17	0.63	-0.3656	-0.2599	-0.1535	
0.7198	0.74786	-0.026596	-0.98	1.96	0	-0.3626	-0.2724	-0.1568	
0.708454	0.747128	-0.029402	-2.17	3.01	-0.56	-0.363	-0.2583	-0.1442	
0.686006	0.737978	-0.025986	-2.31	2.73	-1.12	-0.37	-0.2628	-0.1426	
0.687958	0.736026	-0.022082	-2.1	2.52	-2.24	-0.3685	-0.2599	-0.1504	
0.673074	0.737612	-0.010858	-0.84	2.45	-3.85	-0.3615	-0.263	-0.1459	
0.676856	0.732244	-0.021838	0.77	-1.4	-3.08	-0.3601	-0.263	-0.1428	
0.67649	0.711504	-0.024888	0.21	-1.82	-3.29	-0.3572	-0.26	-0.149	
0.693692	0.708332	-0.028548	0.77	-3.22	-2.59	-0.3755	-0.2583	-0.1549	
0.700036	0.72468	-0.02501	-0.35	-2.87	-2.59	-0.3727	-0.2644	-0.1473	
0.682346	0.741272	-0.021228	-0.07	-2.1	-1.89	-0.3628	-0.2661	-0.1474	
0.687836	0.7381	-0.007808	-0.14	-2.24	-0.7	-0.3656	-0.2722	-0.1459	
0.699426	0.731512	-0.009393999	-0.35	-2.66	-0.07	-0.3614	-0.2662	-0.1521	
0.710894	0.725412	-0.016592	0.07	-1.54	0.49	-0.3629	-0.2629	-0.1443	
0.701988	0.735416	-0.017568	0.42	-0.21	0.35	-0.3616	-0.2675	-0.135	
0.690032	0.756522	-0.022936	0.98	0.14	-0.28	-0.3614	-0.2661	-0.149	
0.682224	0.774334	-0.028182	-0.07	-0.07	-0.98	-0.3686	-0.2613	-0.1442	
0.681004	0.76921	-0.03355	-1.26	0.07	-1.89	-0.3655	-0.2707	-0.1521	
0.697718	0.755058	-0.031964	-0.35	-0.91	-2.38	-0.3642	-0.2707	-0.1444	
0.687714	0.757376	-0.026474	-1.33	-0.28	-3.08	-0.3615	-0.2599	-0.1474	
0.679418	0.754326	-0.02135	-1.4	-0.28	-3.92	-0.3656	-0.2677	-0.1521	
0.688446	0.744566	-0.022204	-0.49	-0.98	-3.92	-0.3644	-0.2659	-0.1381	
0.687348	0.746518	-0.026718	-0.42	-1.19	-4.13	-0.3599	-0.2754	-0.1476	
0.676124	0.746274	-0.022082	-0.84	-1.47	-4.55	-0.3614	-0.2676	-0.1475	
0.684298	0.744688	-0.020496	-0.91	-1.4	-4.9	-0.3588	-0.2583	-0.1365	
0.700646	0.74298	-0.024034	-1.12	-0.35	-4.83	-0.3628	-0.2753	-0.1413	
0.698938	0.74908	-0.02745	-2.1	0.63	-4.83	-0.3699	-0.2736	-0.1381	
0.682468	0.760914	-0.027938	-2.73	1.54	-4.83	-0.3673	-0.2628	-0.1349	
0.682956	0.76067	-0.019398	-4.06	2.38	-4.83	-0.3615	-0.2737	-0.1382	
0.697718	0.76006	-0.019398	-4.41	2.31	-4.62	-0.3557	-0.277	-0.1461	
0.70638	0.768478	-0.010614	-4.06	3.15	-4.34	-0.357	-0.274	-0.157	
0.712724	0.769332	-0.014152	-4.41	4.97	-4.13	-0.3585	-0.2785	-0.1446	
0.727364	0.787388	-0.0061	-4.55	7.28	-4.62	-0.3556	-0.2786	-0.1508	
0.719556	0.80764	-0.000122	-5.67	9.17	-4.62	-0.354	-0.2864	-0.1603	
0.711016	0.805932	-0.011224	-8.4	11.97	-6.79	-0.371	-0.2724	-0.1614	
0.70028	0.800808	-0.018544	-8.75	14.56	-11.2	-0.3513	-0.2741	-0.1633	
0.693692	0.802394	-0.00854	-10.5	17.15	-15.68	-0.3499	-0.2772	-0.1602	
0.687348	0.792024	0.001952	-9.87	18.2	-20.16	-0.3414	-0.2834	-0.1542	
0.683444	0.790072	0.011224	-8.47	16.73	-23.03	-0.3385	-0.279	-0.1682	
0.673074	0.79788	0.007686	-9.03	16.94	-26.11	-0.3412	-0.2897	-0.1636	
0.66551	0.775798	0.005246	-12.81	19.18	-28.56	-0.3427	-0.2759	-0.1696	
0.675758	0.752374	0.007686	-13.72	20.3	-31.29	-0.3424	-0.2915	-0.1792	
0.673562	0.765062	0.039284	-15.26	22.61	-33.46	-0.334	-0.2823	-0.1808	
0.649284	0.785802	0.060512	-13.51	24.78	-34.79	-0.3214	-0.2885	-0.1748	
0.65392	0.82838	0.076738	-9.17	23.87	-33.74	-0.3157	-0.2917	-0.1781	
0.64721	0.832772	0.075518	-8.61	22.12	-34.86	-0.3098	-0.2997	-0.1907	
0.653798	0.800808	0.068442	-10.92	21.35	-39.41	-0.3109	-0.306	-0.2016	
0.655262	0.798734	0.0671	-10.64	23.24	-41.44	-0.3052	-0.3108	-0.208	
0.619638	0.812398	0.075884	-11.97	28.56	-42.84	-0.2982	-0.3062	-0.2034	
0.584014	0.833016	0.09699	-13.72	28.56	-40.39	-0.2911	-0.3094	-0.2067	
0.560956	0.836554	0.103578	-12.88	28.7	-41.09	-0.2882	-0.3095	-0.2129	
0.55205	0.838506	0.117364	-11.48	23.59	-41.58	-0.2742	-0.3111	-0.2054	
0.560102	0.852658	0.114924	-9.87	18.69	-40.53	-0.2726	-0.3082	-0.2194	
0.542656	0.859002	0.113948	-11.41	19.95	-41.65	-0.2613	-0.3207	-0.2151	
0.518012	0.858636	0.116998	-12.39	20.58	-41.86	-0.2639	-0.3208	-0.229	
0.508252	0.86376	0.127856	-14.28	22.4	-41.79	-0.2569	-0.3286	-0.2246	
0.490318	0.872178	0.153598	-14.42	25.9	-43.05	-0.2498	-0.3302	-0.2263	
0.458354	0.878034	0.162626	-10.99	26.53	-43.96	-0.2427	-0.3319	-0.2295	
0.428464	0.89426	0.172386	-8.89	26.53	-43.82	-0.2426	-0.332	-0.2373	
0.402112	0.904264	0.172142	-8.12	22.68	-43.75	-0.2198	-0.3386	-0.2471	
0.383812	0.893772	0.172386	-11.97	18.76	-44.24	-0.2184	-0.3325	-0.2563	
0.372344	0.91012	0.177022	-11.76	21.98	-43.54	-0.2083	-0.3466	-0.2598	
0.35502	0.906338	0.20008	-12.39	19.53	-43.61	-0.2071	-0.3418	-0.2457	
0.372588	0.919514	0.212768	-10.08	16.45	-43.61	-0.1997	-0.3514	-0.2678	
0.354288	0.92964	0.21167	-9.73	19.04	-42.77	-0.1942	-0.3529	-0.2601	
0.343552	0.9272	0.209718	-10.85	20.02	-41.79	-0.1772	-0.3471	-0.2696	
0.311832	0.914146	0.19642	-10.64	23.31	-41.44	-0.1815	-0.3515	-0.2603	
0.266692	0.917562	0.192394	-11.62	25.2	-41.93	-0.1685	-0.3658	-0.2747	
0.245708	0.926102	0.201666	-12.04	26.88	-41.65	-0.1672	-0.3564	-0.2683	
0.238876	0.933788	0.206546	-13.93	27.58	-43.47	-0.1573	-0.3536	-0.2793	
0.2318	0.921832	0.224846	-16.1	25.2	-45.92	-0.1516	-0.3644	-0.2734	
0.223504	0.921222	0.22753	-15.47	28.91	-48.09	-0.1346	-0.3647	-0.283	
0.19215	0.938302	0.249124	-16.59	27.51	-48.51	-0.1245	-0.3681	-0.2941	
0.179706	0.951356	0.249246	-14.28	28.42	-48.09	-0.122	-0.3633	-0.2785	
0.1586	0.95465	0.252906	-15.75	27.44	-49.14	-0.1108	-0.3557	-0.2801	
0.134932	0.953308	0.250832	-15.96	29.12	-50.26	-0.1022	-0.3528	-0.2911	
0.096136	0.960384	0.263398	-15.61	33.11	-53.76	-0.0937	-0.3529	-0.2912	
0.063806	0.965142	0.272182	-14.35	32.13	-54.81	-0.0823	-0.3562	-0.2992	
0.049166	0.95709	0.285114	-14.07	32.69	-56.35	-0.0739	-0.3548	-0.2978	
0.020252	0.94672	0.285724	-16.66	26.39	-58.24	-0.0598	-0.3503	-0.2995	
0.017202	0.92598	0.27389	-16.73	26.67	-59.43	-0.0612	-0.3518	-0.2995	
-0.002806	0.92659	0.274622	-17.22	26.88	-59.99	-0.0428	-0.3522	-0.3107	
-0.028304	0.93147	0.297802	-16.38	24.22	-59.22	-0.0341	-0.3555	-0.3202	
-0.043188	0.937082	0.308294	-16.03	26.04	-59.22	-0.0286	-0.3555	-0.3141	
-0.0793	0.923906	0.30195	-17.57	26.74	-58.66	-0.0185	-0.3558	-0.3282	
-0.09467199	0.914146	0.287066	-17.64	25.69	-57.26	-0.0102	-0.3497	-0.3267	
-0.087596	0.910486	0.3172	-16.73	26.53	-57.54	-0.0033	-0.3527	-0.3144	
-0.08174	0.895114	0.330864	-19.32	29.54	-58.87	0.0037	-0.3497	-0.3192	
-0.13786	0.88999	0.344406	-18.83	33.39	-57.96	0.0234	-0.3408	-0.3272	
-0.202886	0.88084	0.363072	-14.98	34.09	-54.88	0.0304	-0.3423	-0.3195	
-0.216672	0.88755	0.352824	-10.71	32.62	-53.97	0.0572	-0.3319	-0.3291	
-0.213988	0.881572	0.357948	-10.99	33.67	-53.06	0.0615	-0.3412	-0.3262	
-0.240706	0.873764	0.353556	-9.38	36.26	-49.28	0.06	-0.3273	-0.3307	
-0.26291	0.88206	0.3355	-9.45	40.39	-48.37	0.0725	-0.3258	-0.3246	
-0.321958	0.896822	0.332572	-4.97	42.42	-48.02	0.0825	-0.3306	-0.3264	
-0.355752	0.907558	0.285968	-4.27	42.14	-47.39	0.0923	-0.3169	-0.3326	
-0.381128	0.90158	0.292922	-7.77	43.61	-49.42	0.095	-0.3199	-0.3265	
-0.407358	0.852902	0.292312	-11.97	41.44	-50.26	0.1092	-0.3278	-0.3253	
-0.429684	0.825086	0.305244	-14.35	36.68	-48.86	0.1221	-0.3282	-0.341	
-0.438102	0.818864	0.343064	-13.51	32.2	-45.99	0.1302	-0.3218	-0.3224	
-0.43066	0.805322	0.338306	-12.39	26.11	-42.35	0.1372	-0.3096	-0.327	
-0.406504	0.819474	0.361974	-10.57	23.66	-40.25	0.1471	-0.3051	-0.3318	
-0.419314	0.816546	0.355264	-11.34	23.94	-38.78	0.1427	-0.2957	-0.3269	
-0.46787	0.827404	0.353312	-8.89	23.87	-38.08	0.1597	-0.2945	-0.335	
-0.53253	0.838384	0.342698	-5.25	22.19	-38.08	0.1638	-0.2913	-0.3272	
-0.540948	0.813984	0.328668	-5.04	16.87	-39.27	0.1637	-0.2851	-0.3271	
-0.521672	0.79056	0.320982	-5.32	15.12	-39.97	0.1721	-0.2837	-0.3272	
-0.509472	0.77043	0.313784	-6.58	14.42	-37.38	0.1807	-0.2869	-0.3305	
-0.531432	0.754326	0.32025	-7.14	12.6	-33.11	0.1804	-0.2852	-0.3165	
-0.560224	0.775066	0.335256	-5.39	10.71	-30.03	0.1876	-0.2854	-0.3275	
-0.554246	0.789096	0.330132	-8.96	10.64	-28.35	0.1947	-0.281	-0.3353	
-0.534116	0.765672	0.347944	-10.71	10.08	-26.81	0.1903	-0.2776	-0.3212	
-0.536678	0.73932	0.345504	-11.2	9.1	-24.5	0.1946	-0.2747	-0.329	
-0.549976	0.743712	0.35624	-9.66	7.42	-21.84	0.2015	-0.2701	-0.326	
-0.5551	0.75091	0.350384	-7.77	8.26	-21.21	0.2031	-0.2672	-0.3384	
-0.549366	0.759816	0.3416	-6.72	8.96	-21.63	0.203	-0.2671	-0.3291	
-0.554368	0.757254	0.341112	-8.05	10.92	-21.07	0.2099	-0.2655	-0.3245	
-0.579866	0.755424	0.34038	-7.98	10.64	-21	0.2155	-0.264	-0.3246	
-0.607926	0.748592	0.338794	-8.96	10.01	-20.23	0.2169	-0.2579	-0.3276	
-0.621346	0.749446	0.356362	-9.31	7.42	-19.18	0.2112	-0.2562	-0.3228	
-0.621346	0.739442	0.365756	-9.8	5.39	-18.34	0.2156	-0.2549	-0.3338	
-0.572058	0.711748	0.352336	-9.94	3.43	-17.64	0.221	-0.244	-0.3244	
-0.578402	0.712236	0.351848	-8.33	4.83	-16.45	0.2268	-0.2489	-0.337	
-0.617564	0.73139	0.34709	-7.35	5.74	-15.54	0.2252	-0.241	-0.326	
-0.637206	0.734196	0.3416	-9.1	5.39	-15.4	0.2265	-0.244	-0.3214	
-0.627446	0.713822	0.353678	-9.52	4.83	-15.96	0.2224	-0.2348	-0.3321	
-0.621346	0.692106	0.352458	-9.38	4.62	-15.54	0.2265	-0.2225	-0.3351	
-0.623054	0.697108	0.368928	-8.05	4.34	-13.93	0.2293	-0.2333	-0.3275	
-0.632082	0.707478	0.355264	-8.12	3.85	-13.16	0.225	-0.2255	-0.3258	
-0.64416	0.704184	0.35563	-8.54	3.85	-12.32	0.2294	-0.2287	-0.3321	
-0.654652	0.704428	0.363072	-9.1	3.29	-12.46	0.2292	-0.2301	-0.3212	
-0.659776	0.695278	0.376004	-9.31	2.1	-12.81	0.2379	-0.2289	-0.3354	
-0.642452	0.674294	0.383812	-8.19	0.07	-12.88	0.2364	-0.2242	-0.3337	
-0.629276	0.657092	0.379786	-7.63	0.21	-12.04	0.2308	-0.2241	-0.3352	
-0.614636	0.6405	0.390888	-4.48	2.1	-11.62	0.2334	-0.2164	-0.3289	
-0.628422	0.65026	0.390278	-4.34	4.2	-10.57	0.239	-0.2179	-0.3243	
-0.65392	0.67466	0.381494	-3.15	8.54	-9.8	0.2447	-0.212	-0.3368	
-0.666242	0.669414	0.38125	-3.08	10.01	-9.17	0.2376	-0.2179	-0.3259	
-0.666974	0.662094	0.38613	-2.24	11.27	-9.59	0.2363	-0.2164	-0.3305	
-0.67222	0.658556	0.370514	-0.84	11.83	-10.22	0.2532	-0.2136	-0.3338	
-0.678564	0.65514	0.367952	-0.56	12.32	-9.87	0.2489	-0.2119	-0.3306	
-0.675392	0.655262	0.359046	-0.28	11.9	-9.52	0.2545	-0.2135	-0.3292	
-0.672952	0.64111	0.354776	-1.05	12.74	-8.89	0.2487	-0.2072	-0.3212	
-0.690276	0.632936	0.348432	-0.7	12.39	-7.77	0.2516	-0.2088	-0.3244	
-0.689544	0.631228	0.346358	0.63	10.57	-7.14	0.2613	-0.2011	-0.3183	
-0.714554	0.652212	0.330864	-0.98	10.22	-6.51	0.2516	-0.2104	-0.3276	
-0.716262	0.659044	0.336354	-2.45	7.98	-5.95	0.26	-0.2042	-0.3245	
-0.712114	0.644282	0.332084	-4.97	6.3	-6.23	0.2585	-0.198	-0.3228	
-0.70211	0.624274	0.33733	-4.62	4.06	-5.88	0.2642	-0.1951	-0.3307	
-0.678686	0.613294	0.363682	-2.87	3.92	-5.6	0.2545	-0.2089	-0.3322	
-0.684054	0.610244	0.354898	-2.1	3.85	-5.04	0.2599	-0.2011	-0.3198	
-0.697596	0.624884	0.345748	-0.7	1.61	-3.43	0.2627	-0.2026	-0.3183	
-0.690398	0.635498	0.333304	-0.42	-0.7	-2.45	0.2684	-0.2074	-0.32	
-0.6893	0.650748	0.335744	0.07	-1.33	-1.54	0.26	-0.2058	-0.3276	
-0.687348	0.655628	0.333914	-1.47	-0.35	-0.63	0.2656	-0.2089	-0.3215	
-0.697108	0.647942	0.336964	-2.73	0.49	-0.56	0.2613	-0.1995	-0.3182	
-0.693692	0.646356	0.343552	-2.24	0.35	-1.12	0.2726	-0.2058	-0.3185	
-0.676856	0.641354	0.347578	-1.82	0.77	-2.03	0.2682	-0.1949	-0.3167	
-0.68076	0.645624	0.352824	-1.05	0.56	-2.66	0.2613	-0.1995	-0.3182	
-0.68137	0.643428	0.348676	-1.19	-0.07	-2.52	0.26	-0.2058	-0.3261	
-0.678442	0.632936	0.337208	-0.35	-0.84	-2.87	0.2684	-0.1966	-0.3261	
-0.686616	0.656726	0.340624	0.49	0.56	-2.73	0.2556	-0.2009	-0.3135	
-0.696376	0.654774	0.327204	-1.26	1.26	-2.03	0.2698	-0.2028	-0.3262	
-0.706014	0.654042	0.330986	-1.89	-0.07	-1.68	0.2782	-0.1998	-0.3232	
-0.709674	0.651724	0.329644	-1.47	-0.21	-1.75	0.2725	-0.1904	-0.323	
-0.702842	0.655506	0.340136	-1.26	0.14	-1.75	0.2713	-0.2013	-0.3278	
-0.707234	0.64965	0.34587	-0.91	-0.28	-1.33	0.2712	-0.1998	-0.3277	
-0.710406	0.640988	0.341722	-0.91	-1.05	-1.33	0.2627	-0.1965	-0.3198	
-0.70455	0.641964	0.350384	-0.42	-1.75	-0.56	0.2613	-0.1903	-0.3259	
-0.685884	0.634034	0.34587	-0.7	-2.24	-0.49	0.2697	-0.2027	-0.3184	
-0.677222	0.625982	0.343552	-0.07	-2.31	0.63	0.2669	-0.1966	-0.323	
-0.678076	0.63318	0.348432	0.42	-1.4	1.19	0.2642	-0.2043	-0.323	
-0.694302	0.640378	0.344772	0.14	-1.68	1.82	0.2655	-0.195	-0.3214	
-0.696498	0.648674	0.351116	0.77	-1.75	1.26	0.2726	-0.1982	-0.3277	
-0.686006	0.647698	0.343552	-0.35	-0.77	0.14	0.2657	-0.2013	-0.3308	
-0.68381	0.654774	0.34892	-0.56	-0.21	0.14	0.2655	-0.1919	-0.3244	
-0.68686	0.63989	0.345626	-1.4	0.28	-0.21	0.2726	-0.2028	-0.3247	
-0.692106	0.634156	0.342698	-1.19	-0.14	-0.84	0.2699	-0.1998	-0.3308	
-0.704306	0.640622	0.351604	-1.47	0.42	-0.77	0.2741	-0.2044	-0.3263	
-0.698572	0.637206	0.358314	-1.68	1.12	-0.63	0.2601	-0.2074	-0.3292	
-0.703574	0.634278	0.356972	-2.45	1.26	0.21	0.2644	-0.2029	-0.337	
-0.697718	0.632692	0.360998	-1.89	0.49	1.26	0.2712	-0.1966	-0.3261	
-0.697718	0.625616	0.355874	-1.12	0.77	1.96	0.2655	-0.1873	-0.3275	
-0.72163	0.627324	0.350384	-1.33	-0.63	3.78	0.2672	-0.2044	-0.3339	
-0.72163	0.621468	0.349164	-0.49	-0.49	4.76	0.2599	-0.1919	-0.3274	
-0.736636	0.610488	0.349774	2.17	-3.71	7.14	0.267	-0.1997	-0.3246	
-0.731756	0.620004	0.352946	4.27	-5.53	8.82	0.2614	-0.2027	-0.3261	
-0.722606	0.627324	0.340624	4.9	-7.98	10.01	0.2627	-0.2011	-0.3198	
-0.71309	0.62464	0.355142	4.48	-9.31	11.27	0.2558	-0.2073	-0.3276	
-0.715286	0.625738	0.362584	5.53	-11.55	11.97	0.26	-0.1966	-0.3322	
-0.712724	0.625738	0.362828	6.65	-12.74	13.3	0.2556	-0.2025	-0.3166	
-0.701866	0.62525	0.361974	8.75	-13.16	13.79	0.246	-0.2073	-0.3321	
-0.701134	0.622566	0.347822	9.8	-13.93	14.98	0.2446	-0.2164	-0.3244	
-0.730902	0.625128	0.340746	11.34	-15.75	17.36	0.2559	-0.2119	-0.3261	
-0.738588	0.644404	0.341112	11.97	-18.55	19.18	0.2375	-0.2148	-0.3212	
-0.721996	0.63928	0.361974	12.32	-22.33	21.28	0.2419	-0.2241	-0.3245	
-0.69845	0.614514	0.387838	13.23	-25.69	24.08	0.2421	-0.2274	-0.3354	
-0.66795	0.622078	0.382348	15.33	-28.91	26.67	0.2308	-0.2272	-0.3321	
-0.637816	0.656726	0.398696	16.17	-28.14	30.73	0.2196	-0.2364	-0.3352	
-0.590968	0.665998	0.400404	16.1	-25.13	37.38	0.2112	-0.2302	-0.3427	
-0.598044	0.647942	0.405772	16.59	-25.55	40.18	0.2086	-0.2426	-0.3444	
-0.61427	0.665632	0.35441	19.67	-28	42.7	0.2128	-0.2472	-0.3399	
-0.59231	0.713822	0.349652	19.81	-25.41	43.54	0.2029	-0.2501	-0.3366	
-0.561566	0.748714	0.357826	15.19	-22.89	46.34	0.193	-0.2516	-0.3365	
-0.559004	0.73627	0.368684	9.52	-20.65	48.16	0.1946	-0.2594	-0.3428	
-0.550952	0.712846	0.383324	8.96	-21.77	47.88	0.1804	-0.2576	-0.3317	
-0.526796	0.732	0.386252	11.97	-28	47.11	0.1707	-0.2699	-0.3364	
-0.504104	0.773846	0.316224	13.23	-30.94	46.69	0.1707	-0.2714	-0.3348	
-0.496296	0.827404	0.365024	10.64	-28.49	48.93	0.168	-0.2807	-0.3349	
-0.488366	0.803004	0.367586	7.49	-27.3	52.71	0.1512	-0.2836	-0.3409	
-0.453962	0.750178	0.4026	12.18	-29.68	50.54	0.1414	-0.2897	-0.3439	
-0.453596	0.769088	0.35258	14.98	-33.95	50.33	0.1427	-0.2881	-0.3377	
-0.443348	0.833138	0.349164	16.73	-30.66	51.73	0.1331	-0.2944	-0.3485	
-0.435906	0.859124	0.34831	15.33	-28.77	53.97	0.1233	-0.3081	-0.3408	
-0.421876	0.820572	0.372832	14.49	-31.43	55.37	0.09649999	-0.3124	-0.3388	
-0.39223	0.816424	0.336232	17.15	-35.77	54.32	0.0966	-0.314	-0.3435	
-0.333304	0.87535	0.352702	17.64	-36.12	52.99	0.0824	-0.3168	-0.334	
-0.287066	0.894992	0.338306	15.75	-33.39	54.74	0.0728	-0.32	-0.3479	
-0.257786	0.88206	0.340014	16.1	-34.65	58.59	0.0657	-0.3274	-0.3354	
-0.252296	0.88694	0.3294	15.68	-33.18	59.57	0.0601	-0.3198	-0.3446	
-0.264496	0.907802	0.319274	16.1	-33.95	59.01	0.0559	-0.3304	-0.3369	
-0.247172	0.921466	0.329034	14.07	-34.02	57.47	0.0347	-0.3363	-0.3304	
-0.217892	0.890356	0.31293	11.13	-33.81	56.42	0.0179	-0.3393	-0.3348	
-0.166774	0.867054	0.328668	7.49	-34.3	56	0.0206	-0.3423	-0.3256	
-0.131516	0.857416	0.332206	7.42	-36.4	58.66	0.0066	-0.336	-0.3346	
-0.07515199	0.884378	0.338062	8.75	-38.64	61.25	-0.0101	-0.3451	-0.3329	
-0.008662	0.92903	0.353922	8.75	-37.17	64.54	-0.0102	-0.342	-0.3313	
0.000976	0.923906	0.345138	11.41	-26.04	66.43	-0.0257	-0.3418	-0.3264	
-0.017812	0.927078	0.334768	12.74	-26.88	67.06	-0.0329	-0.3447	-0.3185	
-0.010492	0.913658	0.332938	12.74	-26.6	65.66	-0.0371	-0.3385	-0.3231	
0.032818	0.870958	0.334524	18.69	-25.97	59.43	-0.061	-0.3398	-0.3227	
0.060634	0.871446	0.330986	19.46	-30.24	60.34	-0.0695	-0.3504	-0.3118	
0.11285	0.88816	0.33184	22.4	-33.18	61.74	-0.07229999	-0.3458	-0.3164	
0.167384	0.912682	0.331718	24.29	-33.39	63.7	-0.0807	-0.3564	-0.3117	
0.17812	0.929518	0.316834	24.08	-30.45	65.24	-0.09209999	-0.3531	-0.3068	
0.15921	0.94916	0.303048	22.54	-25.69	66.43	-0.09779999	-0.3546	-0.3021	
0.158112	0.945988	0.293532	23.73	-23.03	64.75	-0.1148	-0.3543	-0.294	
0.18849	0.921222	0.278282	25.2	-24.78	61.81	-0.1234	-0.3495	-0.2892	
0.227774	0.91744	0.26535	24.64	-22.26	57.68	-0.1445	-0.3538	-0.2873	
0.255956	0.945256	0.24705	26.46	-24.08	57.12	-0.1487	-0.3461	-0.2903	
0.269254	0.949892	0.244732	26.11	-21.49	58.17	-0.1502	-0.3491	-0.2841	
0.298656	0.945012	0.231922	24.78	-22.12	56.35	-0.1657	-0.3519	-0.2776	
0.32147	0.956602	0.219112	24.64	-18.97	52.57	-0.163	-0.3581	-0.2715	
0.32391	0.951844	0.213622	24.43	-18.48	51.59	-0.1731	-0.3408	-0.2634	
0.332816	0.942206	0.20252	23.73	-15.26	49.28	-0.183	-0.3483	-0.2524	
0.348432	0.931958	0.192882	24.57	-11.97	46.41	-0.1926	-0.3608	-0.268	
0.36722	0.927932	0.179706	25.69	-13.51	46.2	-0.1986	-0.3435	-0.2537	
0.38674	0.920002	0.166042	26.32	-13.86	45.92	-0.2042	-0.3511	-0.249	
0.421632	0.919026	0.166652	25.27	-12.32	45.29	-0.2141	-0.3525	-0.2427	
0.434808	0.903654	0.159942	26.25	-10.29	44.73	-0.2156	-0.3448	-0.2457	
0.44347	0.89548	0.13786	25.2	-9.45	45.99	-0.2198	-0.3524	-0.2426	
0.449448	0.895236	0.119194	22.89	-8.33	46.41	-0.2242	-0.3415	-0.2377	
0.462502	0.895114	0.110532	23.1	-8.05	45.85	-0.2412	-0.3442	-0.225	
0.477996	0.924394	0.114192	21.21	-7	45.29	-0.2343	-0.3319	-0.225	
0.487146	0.904264	0.105042	17.85	-6.65	44.87	-0.244	-0.3442	-0.2265	
0.502762	0.880352	0.093696	19.39	-9.45	43.61	-0.2484	-0.3425	-0.2187	
0.538386	0.888038	0.083204	19.74	-12.25	43.47	-0.2654	-0.3284	-0.2198	
0.549488	0.896944	0.081984	16.31	-11.06	43.19	-0.2668	-0.3299	-0.2198	
0.547414	0.886818	0.081252	14.84	-10.5	40.46	-0.2669	-0.3283	-0.212	
0.577792	0.86742	0.076494	11.9	-10.99	38.64	-0.2839	-0.325	-0.207	
0.604266	0.851438	0.077104	10.92	-10.99	35.21	-0.2809	-0.3221	-0.2225	
0.5978	0.828258	0.07015	7	-8.82	31.43	-0.281	-0.3251	-0.2133	
0.594384	0.821304	0.05917	6.72	-7.49	30.38	-0.2785	-0.3187	-0.1961	
0.598044	0.82533	0.051606	6.44	-6.65	30.1	-0.2896	-0.3249	-0.2053	
0.59719	0.805688	0.060268	5.67	-7.63	30.8	-0.2895	-0.3219	-0.2131	
0.615246	0.806054	0.055388	4.9	-8.4	30.1	-0.2969	-0.3092	-0.1988	
0.623176	0.807884	0.047336	3.64	-8.05	28.91	-0.294	-0.3078	-0.2035	
0.64538	0.807274	0.043066	2.73	-7.63	26.04	-0.2941	-0.3092	-0.1957	
0.642208	0.816058	0.050142	0.98	-7.42	26.39	-0.3096	-0.2999	-0.2047	
0.655384	0.809714	0.050996	-1.47	-9.87	24.57	-0.3	-0.2936	-0.1892	
0.682468	0.780068	0.05673	-0.14	-6.02	25.06	-0.3111	-0.2967	-0.2	
0.694058	0.778238	0.061244	1.68	-6.65	23.52	-0.314	-0.2997	-0.1922	
0.699548	0.808982	0.055632	-1.4	-4.2	23.1	-0.3209	-0.3028	-0.1968	
0.670024	0.806054	0.058194	-1.96	-0.56	19.39	-0.314	-0.2982	-0.1937	
0.668438	0.785436	0.0549	-1.47	-0.7	15.61	-0.3225	-0.2827	-0.1996	
0.6771	0.754814	0.043798	-2.87	-2.45	12.04	-0.314	-0.2858	-0.1982	
0.649772	0.7625	0.042578	-3.01	-3.64	10.57	-0.3154	-0.2797	-0.2028	
0.654652	0.766404	0.05063	-2.52	-5.25	9.03	-0.3326	-0.2762	-0.1838	
0.673074	0.743346	0.044652	-2.94	-6.65	7.42	-0.3197	-0.2857	-0.1919	
0.706136	0.722362	0.052582	-0.84	-8.05	6.23	-0.3326	-0.2701	-0.1899	
0.710284	0.734684	0.057462	0.63	-7.49	6.23	-0.3225	-0.2826	-0.1965	
0.685884	0.754692	0.052704	0.07	-5.18	5.88	-0.3267	-0.2888	-0.1981	
0.677222	0.754448	0.050752	-0.07	-4.97	5.74	-0.3409	-0.2809	-0.1946	
0.688568	0.75335	0.054168	0.14	-5.25	5.25	-0.3299	-0.2639	-0.1868	
0.711016	0.743712	0.05307	0	-5.46	4.55	-0.3368	-0.2731	-0.1884	
0.720288	0.752252	0.05429	0.63	-3.99	3.64	-0.3283	-0.2809	-0.187	
0.708576	0.752374	0.059658	1.4	-2.59	2.94	-0.3407	-0.2779	-0.2055	
0.693936	0.748958	0.057706	1.89	-1.82	1.82	-0.3353	-0.2794	-0.1947	
0.689422	0.749324	0.04148	2.24	-1.33	0.42	-0.3411	-0.2714	-0.1852	
0.671488	0.754814	0.033062	1.19	-0.28	-1.19	-0.3356	-0.273	-0.1775	
0.662704	0.76067	0.031354	0.91	-1.19	-2.24	-0.3354	-0.2762	-0.1884	
0.678686	0.75213	0.033306	0.42	-2.52	-2.31	-0.3326	-0.2777	-0.1838	
0.701378	0.754082	0.033794	0.49	-2.17	-1.96	-0.3453	-0.2791	-0.179	
0.697108	0.759816	0.040382	0.56	-1.26	-3.78	-0.3341	-0.2746	-0.1838	
0.685396	0.76433	0.037698	-0.28	-0.35	-5.25	-0.3325	-0.2793	-0.1901	
0.683078	0.755424	0.04209	-0.49	-0.49	-5.95	-0.3327	-0.2792	-0.1761	
0.692106	0.755912	0.036478	0	-0.42	-6.23	-0.3297	-0.2809	-0.1901	
0.693204	0.764818	0.033184	0.28	0.77	-6.3	-0.3297	-0.2732	-0.1947	
0.690398	0.776164	0.029402	-0.63	2.38	-7.28	-0.3338	-0.2871	-0.1917	
0.682712	0.782996	0.03599	-1.33	3.57	-8.61	-0.3297	-0.284	-0.1871	
0.688202	0.79239	0.045506	-2.94	4.83	-9.8	-0.3368	-0.2731	-0.1915	
0.710894	0.78995	0.047092	-3.57	5.25	-10.22	-0.3252	-0.2889	-0.2027	
0.728462	0.793732	0.04331	-2.52	7.7	-11.76	-0.3296	-0.2871	-0.1902	
0.701988	0.820328	0.049776	-0.63	9.8	-13.23	-0.3253	-0.2918	-0.1903	
0.683688	0.842532	0.054412	-1.26	13.16	-15.61	-0.3168	-0.2905	-0.1998	
0.698694	0.829234	0.055998	-2.8	16.03	-18.69	-0.3225	-0.2857	-0.1934	
0.707112	0.806664	0.053558	-2.45	21.77	-23.8	-0.3153	-0.2905	-0.2029	
0.690154	0.852414	0.055266	0.35	25.9	-29.19	-0.3181	-0.2981	-0.1968	
0.636718	0.852658	0.03294	-7.49	32.76	-39.62	-0.3068	-0.2999	-0.2016	
0.62159	0.834602	0.035868	-3.22	33.18	-44.66	-0.2996	-0.3001	-0.2095	
0.62037	0.822646	0.035258	-6.72	34.02	-46.48	-0.2839	-0.3097	-0.2208	
0.608048	0.811056	0.042822	-4.76	31.92	-49.21	-0.2783	-0.3097	-0.2162	
0.576938	0.840946	0.047946	-1.68	25.76	-48.58	-0.2755	-0.3143	-0.2116	
0.54656	0.883768	0.059414	-4.34	25.06	-46.97	-0.2671	-0.3113	-0.2133	
0.541802	0.891332	0.077836	-6.65	25.62	-46.9	-0.2611	-0.3286	-0.2276	
0.555954	0.879498	0.096502	-6.93	25.2	-51.38	-0.2512	-0.3287	-0.2278	
0.569862	0.896578	0.103822	-9.59	31.78	-59.78	-0.2399	-0.3319	-0.2264	
0.547536	0.868274	0.104554	-10.15	28.63	-58.03	-0.234	-0.346	-0.2345	
0.530334	0.878156	0.098698	-11.13	29.75	-61.74	-0.2255	-0.3385	-0.2454	
0.488122	0.928176	0.124562	-14.21	31.22	-59.71	-0.2142	-0.3463	-0.2395	
0.4819	0.928298	0.148352	-16.24	30.17	-53.06	-0.2113	-0.3449	-0.2519	
0.476532	0.938058	0.122244	-19.46	34.65	-51.59	-0.2054	-0.3544	-0.2599	
0.423462	0.889868	0.121878	-18.41	42.21	-51.94	-0.1927	-0.3529	-0.2601	
0.36539	0.869738	0.129076	-15.12	43.68	-54.11	-0.1758	-0.3516	-0.2635	
0.32391	0.906216	0.17629	-12.39	41.72	-53.48	-0.1672	-0.3564	-0.2683	
0.27999	0.943914	0.200202	-13.16	39.69	-52.92	-0.1573	-0.3643	-0.2717	
0.246318	0.90219	0.203496	-12.74	36.96	-51.59	-0.153	-0.3582	-0.2764	
0.256932	0.89121	0.21167	-11.97	30.17	-55.58	-0.1487	-0.3569	-0.2857	
0.228018	0.85339	0.222528	-10.29	23.52	-55.51	-0.1319	-0.3631	-0.2768	
0.193126	0.848388	0.222162	-8.75	23.1	-52.43	-0.122	-0.3602	-0.2816	
0.160918	0.890722	0.22631	-7.07	16.31	-49.63	-0.1092	-0.3589	-0.2911	
0.168604	0.896944	0.250832	-7.28	15.96	-44.17	-0.1063	-0.359	-0.2911	
0.187148	0.898896	0.261446	-8.61	15.47	-41.23	-0.0924	-0.3621	-0.2805	
0.170312	0.898896	0.27328	-9.17	14.35	-36.82	-0.1006	-0.3683	-0.2913	
0.131272	0.92842	0.273524	-10.01	13.16	-32.27	-0.0865	-0.3716	-0.2916	
0.081862	0.935618	0.274622	-9.17	8.89	-28.07	-0.0838	-0.3685	-0.2885	
0.05124	0.942572	0.296826	-8.47	7.49	-26.74	-0.0809	-0.3639	-0.2947	
0.066246	0.925492	0.310734	-7.56	3.01	-25.48	-0.07539999	-0.3654	-0.287	
0.070028	0.903532	0.316346	-7.28	-3.29	-22.89	-0.0752	-0.3702	-0.2933	
0.084668	0.895114	0.32391	-4.69	-4.06	-21.35	-0.0654	-0.3718	-0.2904	
0.096136	0.948428	0.309148	-2.94	-5.53	-17.92	-0.0736	-0.3673	-0.3073	
0.08479	0.981612	0.30195	-2.03	-2.73	-15.68	-0.0639	-0.3611	-0.3027	
0.079544	0.962824	0.303048	-2.31	-2.38	-14.63	-0.064	-0.3565	-0.3026	
0.045384	0.927444	0.2928	-3.64	-0.7	-16.38	-0.0709	-0.3657	-0.3042	
0.019642	0.912926	0.301706	-5.6	-1.68	-16.66	-0.0596	-0.3628	-0.3075	
0.017568	0.906704	0.309392	-8.4	-2.66	-16.24	-0.0654	-0.3611	-0.2996	
0.04453	0.902068	0.325862	-9.03	-6.51	-14.77	-0.061	-0.3597	-0.3074	
0.062708	0.910242	0.322446	-8.75	-8.19	-11.27	-0.0654	-0.361	-0.2965	
0.064782	0.9394	0.327448	-8.54	-9.31	-8.82	-0.0582	-0.3628	-0.3075	
0.040138	0.960262	0.308416	-7.98	-9.45	-7	-0.0612	-0.3626	-0.2966	
0.011956	0.946232	0.2989	-7.98	-11.48	-7	-0.054	-0.3567	-0.3075	
-0.011102	0.96258	0.291336	-6.72	-17.22	-9.87	-0.0555	-0.3566	-0.3043	
-0.003782	0.995886	0.308294	-7.42	-23.1	-12.18	-0.0611	-0.3551	-0.3089	
0.000366	0.999424	0.31476	-7.77	-26.81	-15.19	-0.0596	-0.3613	-0.309	
0.010736	0.987102	0.302926	-2.38	-33.74	-17.36	-0.0639	-0.355	-0.3042	
-0.061	0.964044	0.285236	-3.08	-40.11	-17.71	-0.0625	-0.3565	-0.3042	
-0.063806	0.973926	0.28304	-4.27	-46.62	-19.6	-0.0737	-0.361	-0.3041	
-0.033428	0.972096	0.285724	-5.39	-55.16	-21.49	-0.0681	-0.3672	-0.2981	
-0.017202	0.97539	0.25925	-6.58	-60.06	-25.06	-0.07229999	-0.3626	-0.3041	
-0.014762	0.986126	0.242902	-8.54	-63.91	-28	-0.0768	-0.3578	-0.2931	
-0.033794	0.984052	0.253882	-7.7	-68.39	-29.47	-0.0948	-0.3578	-0.3084	
-0.009638	1.003084	0.254248	-5.11	-75.6	-33.18	-0.0851	-0.3669	-0.2916	
-0.011102	1.026996	0.24705	-4.83	-80.85	-36.12	-0.0894	-0.3622	-0.2883	
-0.002684	1.037976	0.242658	-8.12	-88.27	-38.57	-0.102	-0.3591	-0.2974	
-0.012078	1.039928	0.232532	-9.17	-89.39	-42.91	-0.1146	-0.3682	-0.2973	
-0.003172	1.028826	0.240584	-9.03	-97.93	-46.06	-0.1106	-0.3558	-0.2895	
-0.01281	1.015406	0.238632	-7.91	-104.37	-47.39	-0.1163	-0.3634	-0.2832	
-0.004514	0.993812	0.224724	-6.37	-110.46	-49.07	-0.1205	-0.3695	-0.2786	
0.001098	0.986614	0.214964	-3.92	-116.97	-48.58	-0.1221	-0.3601	-0.2722	
0.017934	0.946842	0.21106	-2.1	-117.39	-49.63	-0.1361	-0.3676	-0.2705	
0.001342	0.928664	0.197884	2.73	-117.74	-50.68	-0.1433	-0.369	-0.2611	
0.046116	0.957822	0.201788	8.26	-116.2	-53.27	-0.1405	-0.3751	-0.255	
0.063806	1.002718	0.248392	7.14	-111.09	-53.76	-0.149	-0.375	-0.2533	
0.061976	0.952576	0.241926	1.96	-104.44	-53.27	-0.1589	-0.3809	-0.2424	
0.052948	0.912926	0.244732	8.26	-105.42	-52.36	-0.1573	-0.3964	-0.2441	
0.074176	0.988932	0.283406	15.05	-104.65	-51.45	-0.152	-0.3839	-0.2301	
0.068686	1.043588	0.259128	11.97	-106.4	-45.5	-0.1592	-0.3914	-0.2145	
0.035746	1.027728	0.239242	14.21	-107.73	-39.83	-0.1591	-0.3976	-0.2161	
0.018178	1.039196	0.207644	13.44	-103.88	-37.73	-0.1678	-0.3973	-0.2036	
0.057584	1.086532	0.246196	3.43	-96.04	-35.56	-0.1677	-0.4081	-0.1975	
0.04819	0.980026	0.268888	9.94	-94.57	-31.99	-0.1791	-0.4155	-0.185	
0.087352	0.974414	0.264008	15.05	-94.92	-32.34	-0.1722	-0.4125	-0.1804	
0.088572	0.906582	0.25132	20.79	-89.53	-29.96	-0.1794	-0.4091	-0.1678	
0.050142	0.923296	0.24339	20.3	-79.31	-27.93	-0.1779	-0.4185	-0.171	
0.014274	0.96197	0.209352	20.3	-75.18	-24.99	-0.1852	-0.4151	-0.1538	
-0.009516	0.972584	0.274988	14.7	-66.08	-21.14	-0.1795	-0.4197	-0.1524	
0.012688	0.955138	0.22143	9.87	-68.11	-15.75	-0.1881	-0.4226	-0.1429	
0.006344	0.945134	0.255346	7.35	-64.61	-14.28	-0.1854	-0.4164	-0.1382	
0.037088	0.918416	0.229604	7.77	-60.27	-14.49	-0.1884	-0.4208	-0.1258	
0.033062	0.935862	0.273646	2.8	-51.17	-14.98	-0.1884	-0.4162	-0.1288	
0.039284	0.983686	0.313662	2.45	-45.71	-16.31	-0.187	-0.4285	-0.1181	
0.024156	0.93208	0.274012	2.73	-46.41	-13.3	-0.1785	-0.4255	-0.1198	
0.018056	0.93452	0.267668	-0.07	-41.23	-11.55	-0.1954	-0.4361	-0.115	
0.031232	0.936228	0.257542	-5.88	-32.13	-9.94	-0.1913	-0.4314	-0.1072	
0.0549	0.956846	0.296582	-10.43	-24.08	-9.31	-0.1871	-0.4222	-0.1118	
0.049288	0.963312	0.306708	-14.42	-16.8	-8.47	-0.1871	-0.4222	-0.1118	
0.042212	0.989786	0.31537	-17.15	-9.59	-8.54	-0.1898	-0.4269	-0.1181	
0.036478	0.980392	0.347334	-19.53	-4.9	-9.03	-0.1926	-0.4331	-0.1166	
0.018544	0.962702	0.374784	-21.98	0.49	-8.47	-0.1828	-0.4255	-0.1197	
0.007564	0.939034	0.38735	-19.32	2.73	-8.05	-0.1841	-0.4332	-0.1198	
-0.010736	0.929884	0.343064	-16.94	5.18	-7.07	-0.1757	-0.4271	-0.1214	
-0.032696	0.96502	0.32452	-16.1	8.4	-6.86	-0.191	-0.4378	-0.1229	
-0.060512	0.91378	0.31903	-14.42	8.75	-4.83	-0.1797	-0.4242	-0.1353	
-0.071614	0.93757	0.326228	-12.81	8.82	-2.8	-0.1853	-0.4226	-0.1383	
-0.074786	0.954894	0.340624	-10.64	8.96	-1.12	-0.1867	-0.4365	-0.1354	
-0.07905599	0.925492	0.35258	-7.7	7.84	-0.49	-0.1781	-0.4335	-0.1417	
-0.06283	0.926712	0.347822	-5.88	6.93	-0.35	-0.1697	-0.4275	-0.1433	
-0.070516	0.947452	0.320006	-5.25	6.93	0.42	-0.1797	-0.4212	-0.143	
-0.069052	0.946842	0.328912	-6.37	8.61	1.33	-0.1782	-0.4258	-0.1447	
-0.095038	0.96746	0.339526	-6.79	8.82	1.61	-0.1839	-0.4226	-0.1414	
-0.09857599	0.937692	0.32147	-6.23	7.14	1.75	-0.1768	-0.4243	-0.1416	
-0.092964	0.952942	0.310978	-8.96	7.84	2.17	-0.1725	-0.4183	-0.154	
-0.10004	0.932812	0.32635	-9.8	7.84	2.8	-0.1782	-0.4151	-0.1492	
-0.082716	0.949648	0.33367	-8.68	5.88	2.59	-0.1852	-0.4166	-0.1507	
-0.080032	0.949404	0.339892	-5.95	3.85	1.61	-0.1768	-0.4151	-0.1508	
-0.065392	0.94123	0.346358	-3.36	0.77	0.35	-0.1893	-0.4243	-0.1538	
-0.063562	0.933666	0.318176	-1.19	-0.77	0.91	-0.1851	-0.4197	-0.1569	
-0.056242	0.960384	0.330254	-1.61	0.56	1.61	-0.1755	-0.4089	-0.1492	
-0.05612	0.943792	0.33855	-1.26	-0.56	1.89	-0.1851	-0.4152	-0.1615	
-0.042334	0.953674	0.34099	0.63	-2.03	0.63	-0.1739	-0.4152	-0.1586	
-0.02074	0.950258	0.343796	1.82	-2.73	-0.49	-0.1712	-0.409	-0.1492	
-0.029158	0.93269	0.333792	1.82	-1.68	0.14	-0.1795	-0.4198	-0.157	
-0.019764	0.943182	0.327692	-0.7	1.82	1.4	-0.1837	-0.4274	-0.1508	
-0.043432	0.948916	0.33428	-0.77	2.87	2.59	-0.1741	-0.4166	-0.1446	
-0.049654	0.942328	0.327326	-0.63	2.31	2.66	-0.171	-0.4291	-0.1495	
-0.045506	0.954528	0.341112	-1.61	2.8	1.75	-0.1796	-0.4121	-0.1569	
-0.057584	0.949892	0.321958	-1.4	3.01	1.75	-0.1851	-0.4183	-0.1616	
-0.05246	0.95343	0.321714	-2.03	2.94	1.89	-0.1823	-0.4213	-0.1554	
-0.052338	0.944646	0.337208	-3.22	4.06	2.52	-0.1837	-0.4182	-0.1554	
-0.040504	0.936106	0.343186	-0.91	2.87	2.03	-0.1737	-0.4246	-0.1618	
-0.03599	0.943914	0.335256	-0.42	3.92	0.77	-0.1823	-0.4244	-0.1555	
-0.05551	0.948794	0.345992	0.14	4.9	0.42	-0.1739	-0.4244	-0.1525	
-0.038064	0.95465	0.345504	0.35	4.97	0	-0.1724	-0.4261	-0.1572	
-0.052216	0.94977	0.341112	-0.56	7.42	1.12	-0.1753	-0.4214	-0.1556	
-0.05246	0.937082	0.33977	-1.82	8.61	1.33	-0.1752	-0.4169	-0.1648	
-0.047702	0.94428	0.345992	-3.15	9.94	1.47	-0.1795	-0.4198	-0.157	
-0.051972	0.928786	0.3355	-3.22	10.85	2.38	-0.178	-0.4229	-0.1586	
-0.066368	0.926712	0.338306	-3.08	12.04	3.92	-0.1755	-0.4043	-0.1522	
-0.042578	0.935008	0.355386	-2.73	12.18	4.06	-0.1795	-0.4106	-0.1616	
-0.04636	0.91378	0.353556	-3.78	14.21	4.62	-0.1737	-0.4215	-0.1649	
-0.02867	0.922442	0.365878	-3.43	16.59	5.32	-0.1739	-0.4137	-0.1601	
-0.022692	0.914878	0.37393	-3.29	19.81	6.65	-0.1794	-0.4107	-0.1693	
-0.018056	0.913048	0.374174	-1.4	22.61	8.4	-0.1737	-0.4154	-0.1711	
0.039284	0.902678	0.423584	-1.82	27.23	9.52	-0.1723	-0.4154	-0.1695	
0.101748	0.859978	0.461526	-0.98	32.55	12.74	-0.1822	-0.4061	-0.1739	
0.146278	0.80154	0.424194	1.82	41.09	16.73	-0.1764	-0.417	-0.1788	
0.099796	0.768722	0.392352	12.74	54.95	16.17	-0.1667	-0.4139	-0.1711	
0.078568	0.8418	0.366976	21.35	56.42	19.11	-0.1793	-0.4092	-0.174	
0.109556	0.99369	0.315858	24.36	66.15	19.39	-0.1665	-0.4064	-0.1866	
0.08686399	0.99613	0.344528	14.49	78.89	22.19	-0.162	-0.4266	-0.1916	
0.047336	0.944158	0.278038	9.24	84.49	28.07	-0.1706	-0.4157	-0.1882	
0.014762	0.88511	0.238266	2.1	91.91	32.83	-0.165	-0.4111	-0.1898	
0.026962	0.918416	0.25925	3.85	97.51	33.6	-0.1509	-0.4098	-0.1931	
