Sensor string: A
Serial number: 1970-01-0000
Firmware version: 2,015
Hardware version: 2,2
Calibration quality: 5
ax	ay	az	gx	gy	gz	mx	my	mz

-0.085034	0.844118	0.538142	0.28	-0.14	-0.07	-0.0126	-0.2584	-0.391	Reference
-0.086986	0.835212	0.54351	0.28	0	-0.35	-0.0054	-0.2461	-0.3969	
-0.08295999	0.83997	0.54351	0.91	-0.28	-0.35	0.0019	-0.2508	-0.3894	
-0.08295999	0.83875	0.541924	1.12	-0.14	-0.21	-0.0054	-0.2477	-0.3969	
-0.08295999	0.837774	0.543754	1.12	-0.14	-0.21	-0.0038	-0.2554	-0.4029	
-0.084424	0.837042	0.541558	0.84	0.21	-0.07	-0.0009999999	-0.2508	-0.3954	
-0.087108	0.837652	0.539728	0.98	0.28	-0.14	-0.0024	-0.2523	-0.3939	
-0.087718	0.83997	0.539484	1.12	0.21	-0.28	-0.0083	-0.2476	-0.3909	
-0.08784	0.839482	0.53802	1.12	0.28	-0.56	-0.0098	-0.2461	-0.385	
-0.0854	0.840092	0.538508	1.33	0	-0.56	-0.0083	-0.2523	-0.3939	
-0.085278	0.84058	0.53863	1.54	-0.21	-0.42	-0.009699999	-0.2523	-0.3999	
-0.085522	0.842654	0.53802	1.96	-0.28	-0.28	-0.0039	-0.2523	-0.3969	
-0.083448	0.84241	0.537776	1.89	-0.49	-0.42	-0.0084	-0.2399	-0.385	
-0.085278	0.842288	0.537166	2.31	-0.21	-0.56	0.0004	-0.2493	-0.3954	
-0.083692	0.842044	0.53741	2.24	0	-0.84	-0.0009	-0.257	-0.3909	
-0.084912	0.844118	0.53802	2.31	0.07	-0.77	-0.0126	-0.2538	-0.3969	
-0.087108	0.84485	0.534238	2.1	0.28	-0.56	-0.0009999999	-0.2493	-0.3924	
-0.086132	0.842898	0.534848	2.17	0.21	-0.7	-0.0053	-0.2554	-0.3895	
-0.087474	0.844728	0.532286	2.38	0.28	-0.77	-0.0009999999	-0.2508	-0.3999	
-0.08686399	0.846192	0.530944	3.01	0.14	-0.63	-0.0112	-0.2569	-0.3999	
-0.087596	0.847412	0.523258	2.8	0.21	-0.49	-0.0141	-0.2507	-0.388	
-0.08686399	0.8479	0.523624	2.73	-0.07	-0.56	-0.0054	-0.2477	-0.3924	
-0.088084	0.84851	0.52094	2.17	-0.28	-0.7	-0.0068	-0.2538	-0.385	
-0.085522	0.84851	0.524722	2.31	-0.7	-0.77	-0.0067	-0.2569	-0.3939	
-0.089182	0.852414	0.527284	2.45	-0.84	-0.91	0.0006	-0.2616	-0.3894	
-0.08723	0.848632	0.525454	1.75	-0.49	-1.19	0.0004	-0.2508	-0.3879	
-0.087962	0.849974	0.528626	1.82	-0.63	-1.61	-0.0024	-0.2508	-0.3879	
-0.087718	0.851804	0.523624	1.96	-0.84	-1.89	0.002	-0.2617	-0.3879	
-0.088938	0.85034	0.525088	1.54	-0.7	-1.89	-0.0082	-0.2569	-0.391	
-0.09272	0.853024	0.529724	1.75	-0.21	-2.17	-0.0052	-0.2631	-0.382	
-0.08906	0.852536	0.522282	0.77	-0.14	-2.24	-0.0022	-0.2647	-0.3909	
-0.086132	0.852048	0.517646	-0.35	0.21	-2.24	-0.0038	-0.2554	-0.3924	
-0.097356	0.856806	0.530456	0.77	-0.07	-2.52	-0.0053	-0.2554	-0.3969	
-0.09942999	0.848266	0.526918	1.12	-0.21	-2.31	-0.0112	-0.2538	-0.388	
-0.093208	0.842166	0.52643	1.54	-0.14	-2.45	-0.0052	-0.2662	-0.3895	
-0.088938	0.845704	0.52216	1.82	-0.07	-2.73	-0.0068	-0.2554	-0.3909	
-0.09467199	0.848266	0.52277	1.4	-0.14	-2.45	-0.0067	-0.26	-0.3924	
-0.094428	0.846924	0.523624	0.49	-0.21	-2.31	-0.0111	-0.2631	-0.391	
-0.105042	0.847778	0.520818	0.07	-0.21	-2.31	-0.0067	-0.2631	-0.388	
-0.099918	0.849974	0.521184	0.63	-1.05	-2.03	0.005	-0.2663	-0.3924	
-0.096746	0.849486	0.524234	0.7	-0.91	-2.52	0.005	-0.2679	-0.382	
-0.093208	0.848388	0.52582	1.4	-1.26	-2.59	-0.0022	-0.2647	-0.3835	
-0.093208	0.84729	0.523502	1.26	-0.98	-2.17	-0.0096	-0.26	-0.385	
-0.088328	0.848754	0.532652	-4.48	-5.39	3.78	-0.0081	-0.2631	-0.385	
-0.092232	0.85217	0.51667	1.54	0.63	-1.61	-0.0082	-0.2569	-0.3865	
-0.097356	0.856196	0.526064	2.24	-0.35	-1.96	-0.0038	-0.26	-0.3895	
-0.104798	0.851682	0.52521	0.63	0.7	-1.82	-0.0098	-0.2476	-0.388	
-0.100528	0.851804	0.522526	0.7	0.07	-2.1	-0.0052	-0.2631	-0.3805	
-0.09857599	0.854366	0.520818	1.54	0.28	-2.24	-0.0009	-0.2524	-0.3909	
-0.100284	0.847412	0.520818	1.12	0.63	-2.31	0.0006	-0.2647	-0.3865	
-0.101382	0.849364	0.521184	1.26	0.63	-2.17	0.0034	-0.254	-0.3909	
-0.104432	0.850096	0.517768	0.77	0.98	-2.1	-0.0052	-0.2616	-0.382	
-0.103456	0.848388	0.515084	1.33	0.7	-2.31	-0.0051	-0.2677	-0.385	
-0.106628	0.85034	0.516304	1.54	0.21	-2.31	0.0005	-0.2601	-0.3894	
-0.105286	0.853268	0.512766	1.61	-0.14	-2.17	0.0006	-0.2678	-0.382	
-0.103822	0.851682	0.514352	1.82	-0.35	-2.1	-0.0008	-0.2616	-0.382	
-0.102846	0.852048	0.515572	1.19	-0.56	-1.75	-0.0067	-0.2569	-0.379	
-0.096502	0.85034	0.51728	-0.91	-2.31	0	0.0036	-0.2663	-0.385	
-0.099308	0.85034	0.514596	1.26	-0.91	-1.4	-0.0036	-0.2693	-0.3865	
-0.102236	0.85095	0.518988	1.61	-0.98	-1.33	-0.0124	-0.2723	-0.3746	
-0.100772	0.85034	0.51484	0.7	-0.77	-0.98	-0.0096	-0.2646	-0.385	
-0.102602	0.85095	0.514352	0.49	-0.7	-0.77	-0.0008	-0.2616	-0.382	
-0.105652	0.85339	0.515084	0.35	-0.49	-0.56	0.0006	-0.2601	-0.3745	
-0.10492	0.853146	0.516182	0.07	-0.35	-0.42	0.002	-0.2632	-0.3879	
-0.106384	0.852292	0.516792	0	-0.42	-0.21	-0.005	-0.2739	-0.376	
-0.106872	0.853634	0.515084	-0.14	-0.42	-0.14	-0.0038	-0.2569	-0.376	
-0.107604	0.85217	0.515572	-0.21	-0.35	-0.21	-0.011	-0.2677	-0.385	
-0.105774	0.853024	0.515572	-0.28	-0.35	-0.07	-0.0066	-0.2646	-0.382	
-0.103822	0.851438	0.514718	-0.07	-0.35	0.14	0.0006	-0.2632	-0.382	
-0.104554	0.849364	0.514474	-0.56	-0.35	0.49	-0.0008	-0.2663	-0.388	
-0.105774	0.848388	0.517402	-0.84	-0.35	0.84	-0.014	-0.263	-0.391	
-0.106628	0.852292	0.513986	-0.35	-0.56	0.98	-0.0039	-0.2508	-0.388	
-0.100894	0.854488	0.515084	-1.12	-0.77	1.33	0.0079	-0.2664	-0.3909	
-0.099674	0.859002	0.514352	-1.19	-0.84	1.61	-0.0081	-0.2615	-0.382	
-0.106506	0.859002	0.518622	-2.1	-0.28	1.26	-0.0008	-0.2585	-0.382	
-0.108946	0.85461	0.521794	-0.84	-0.28	0.7	0.002	-0.2617	-0.385	
-0.105652	0.844484	0.5246	0	-0.42	0.21	-0.0082	-0.2554	-0.388	
-0.097234	0.846558	0.52277	0.07	-0.77	0.07	0.0006	-0.2601	-0.3805	
-0.094916	0.85095	0.518988	-0.14	-0.63	0.56	-0.0081	-0.2677	-0.391	
-0.09942999	0.850218	0.520574	-1.05	0.28	1.12	-0.0009	-0.2493	-0.385	
-0.102602	0.849608	0.519476	-1.05	0.63	0.84	-0.0022	-0.2662	-0.376	
-0.100528	0.852048	0.519354	-0.91	0.63	0.77	0.0064	-0.2586	-0.3849	
-0.100406	0.852658	0.518866	-0.42	0.35	0.84	-0.0038	-0.2585	-0.3805	
-0.098942	0.850706	0.516914	-0.35	0.14	0.91	-0.0068	-0.2523	-0.3865	
-0.101382	0.850096	0.52338	-0.42	-0.14	0.91	-0.0111	-0.2584	-0.3865	
-0.099552	0.850462	0.516304	-0.56	0.21	0.77	-0.0111	-0.26	-0.3865	
-0.099796	0.855464	0.521062	-1.12	0.21	0.77	-0.0067	-0.2585	-0.3909	
-0.1037	0.855708	0.519598	0	0.07	0.56	0.0005	-0.2555	-0.3894	
-0.105652	0.846314	0.51789	-0.07	0.28	0.07	-0.0066	-0.2693	-0.382	
-0.100528	0.849852	0.521428	-0.14	0	-0.07	-0.0038	-0.2539	-0.3924	
-0.096014	0.857294	0.517646	0.28	-0.21	0.07	0.002	-0.257	-0.3909	
-0.096624	0.852902	0.518988	0.07	-0.35	0.21	-0.0096	-0.2615	-0.3775	
-0.099918	0.850096	0.5185	-0.77	0.28	0.21	-0.0083	-0.2507	-0.3835	
-0.102724	0.852536	0.518256	-0.98	0.56	0.28	-0.0022	-0.2632	-0.385	
-0.10187	0.854488	0.516304	-0.91	0.35	0.28	-0.0067	-0.2615	-0.382	
-0.101138	0.854	0.516792	-0.7	0.07	0.28	-0.0053	-0.2554	-0.382	
-0.099064	0.853756	0.516182	-0.7	0	0.35	-0.0007	-0.2678	-0.388	
-0.099552	0.854488	0.518744	-0.84	-0.21	0.42	-0.0052	-0.2585	-0.3909	
-0.100894	0.854244	0.515694	-0.63	-0.35	0.49	-0.0038	-0.2554	-0.385	
-0.101992	0.852658	0.516426	-0.7	-0.42	0.56	-0.0051	-0.2678	-0.388	
-0.099674	0.855952	0.51667	-0.7	-0.56	0.56	0.0005	-0.2539	-0.3865	
-0.098088	0.85766	0.516182	-0.77	-0.49	0.42	-0.011	-0.2677	-0.3925	
-0.10065	0.85339	0.517036	-1.54	-0.28	0.14	0.002	-0.2601	-0.3909	
-0.10065	0.853878	0.518744	-1.33	-0.49	0.07	-0.0023	-0.2632	-0.3909	
-0.09882	0.850584	0.519232	-1.05	-0.56	0	-0.0096	-0.2662	-0.388	
-0.096746	0.850218	0.521672	-0.84	-0.63	0	-0.009699999	-0.2553	-0.3895	
-0.09821	0.856196	0.516426	-0.91	-0.35	0.21	0.0005	-0.2586	-0.3924	
-0.096502	0.863028	0.512888	-1.68	0.35	0.35	-0.0096	-0.2646	-0.3865	
-0.098088	0.87535	0.507886	-1.75	0.98	0.7	-0.0023	-0.2585	-0.3835	
-0.106872	0.890722	0.501908	-2.31	1.33	1.19	-0.0023	-0.257	-0.3865	
-0.111996	0.881572	0.496662	-5.39	1.54	0.49	-0.0024	-0.2523	-0.3805	
-0.11163	0.873764	0.493856	-6.44	1.33	-0.49	0.0005	-0.2555	-0.3939	
-0.101626	0.867908	0.48373	-8.12	0.42	-0.49	-0.0038	-0.2569	-0.379	
-0.09882	0.865224	0.485194	-8.82	-0.84	-0.07	-0.0009	-0.2585	-0.3939	
-0.10553	0.862418	0.495686	-8.26	-2.59	0.77	0.0049	-0.254	-0.3864	
-0.106384	0.856806	0.508984	-7.07	-4.55	1.47	-0.0069	-0.2461	-0.3954	
-0.10614	0.85583	0.521306	-4.97	-6.44	1.4	-0.0038	-0.2616	-0.3969	
-0.097844	0.853146	0.528138	-7.7	-5.81	1.12	-0.0054	-0.2461	-0.3924	
-0.091988	0.864126	0.532408	-8.61	-6.09	1.26	-0.0098	-0.243	-0.3924	
-0.092598	0.875472	0.534116	-8.96	-5.6	0.91	-0.0112	-0.2507	-0.3895	
-0.096136	0.862418	0.541192	-11.13	-3.71	0.77	-0.0083	-0.2492	-0.3969	
-0.09942999	0.848022	0.536678	-13.09	-2.38	0.7	-0.0112	-0.2476	-0.388	
-0.093086	0.846802	0.536068	-14.49	-2.1	0.35	-0.0068	-0.2477	-0.3924	
-0.091256	0.860588	0.531554	-15.26	-2.31	0.42	-0.0127	-0.2507	-0.3999	
-0.095404	0.872178	0.517158	-16.03	-3.08	1.12	-0.0187	-0.2398	-0.4014	
-0.102602	0.873398	0.49715	-22.26	-3.08	1.82	-0.0128	-0.2399	-0.3969	
-0.1037	0.875228	0.479216	-28.63	-3.71	2.66	-0.0144	-0.2275	-0.3969	
-0.117242	0.88511	0.465796	-35.42	-4.55	3.43	-0.008599999	-0.2291	-0.4073	
-0.129564	0.87291	0.456158	-38.92	-6.37	3.99	-0.0174	-0.2228	-0.4059	
-0.136396	0.856806	0.47092	-38.29	-10.5	3.22	-0.0233	-0.2181	-0.4074	
-0.11712	0.854366	0.502884	-35.84	-15.26	2.73	-0.0176	-0.2043	-0.4103	
-0.104554	0.864492	0.521794	-33.53	-20.02	3.01	-0.0338	-0.1979	-0.4118	
-0.100406	0.865224	0.533262	-35.84	-21.63	3.64	-0.0207	-0.1935	-0.4207	
-0.101992	0.853634	0.550098	-36.05	-22.47	3.01	-0.0339	-0.1948	-0.4268	
-0.097234	0.842532	0.557662	-43.54	-21.07	2.8	-0.0296	-0.1825	-0.4193	
-0.08723	0.835212	0.562908	-46.76	-21.56	2.03	-0.0356	-0.1747	-0.4267	
-0.070638	0.808982	0.583282	-48.65	-22.47	0.14	-0.0415	-0.1716	-0.4312	
-0.06734399	0.785192	0.617564	-47.74	-24.71	-2.66	-0.0489	-0.1653	-0.4312	
-0.056364	0.752008	0.637816	-49.7	-24.36	-2.66	-0.0504	-0.1653	-0.4297	
-0.02135	0.726022	0.64599	-55.09	-23.87	1.12	-0.0506	-0.1483	-0.4267	
-0.021716	0.704794	0.64477	-58.73	-20.93	0.49	-0.0594	-0.1436	-0.4327	
-0.030622	0.663802	0.675148	-61.18	-21.07	-0.77	-0.0522	-0.139	-0.4357	
-0.007198	0.625982	0.695156	-60.55	-22.05	-1.19	-0.0568	-0.1143	-0.4312	
-0.01037	0.601826	0.716262	-60.41	-23.03	-0.28	-0.0627	-0.1173	-0.4461	
-0.007686	0.58316	0.72712	-62.3	-21.77	0.84	-0.0659	-0.0925	-0.4357	
0.006222	0.559492	0.733342	-63.35	-21.28	1.54	-0.0717	-0.094	-0.4372	
-0.001952	0.532164	0.742004	-66.22	-20.93	2.59	-0.0719	-0.0817	-0.4506	
-0.002074	0.513986	0.758596	-61.11	-23.66	0.28	-0.0778	-0.0769	-0.4417	
0.008052	0.490928	0.77836	-60.97	-25.55	-1.12	-0.0824	-0.0614	-0.4521	
0.030012	0.469944	0.798612	-61.81	-27.02	-2.17	-0.0825	-0.0553	-0.4476	
0.056364	0.431636	0.808738	-65.45	-26.39	-3.78	-0.1003	-0.0365	-0.4462	
0.07381	0.399916	0.817766	-66.57	-25.97	-3.36	-0.09299999	-0.0289	-0.4506	
0.076616	0.378688	0.831674	-63.63	-26.46	-3.71	-0.1049	-0.0148	-0.4402	
0.096624	0.33977	0.846802	-65.03	-27.02	-1.26	-0.102	-0.0133	-0.4402	
0.100528	0.320128	0.880108	-63	-27.79	1.47	-0.0993	0.0035	-0.4446	
0.11041	0.321104	0.887794	-61.6	-26.32	1.61	-0.1154	0.0084	-0.4417	
0.124318	0.308172	0.92354	-62.65	-24.57	3.64	-0.1215	0.027	-0.4387	
0.138958	0.273402	0.939766	-57.82	-24.92	-0.21	-0.1231	0.0409	-0.4357	
0.127368	0.262666	0.94428	-58.24	-23.59	-0.56	-0.129	0.0441	-0.4312	
0.176778	0.216062	0.960262	-60.2	-19.81	-0.28	-0.135	0.0534	-0.4312	
0.185196	0.196786	0.957212	-58.73	-16.73	-1.47	-0.1308	0.0704	-0.4342	
0.183976	0.174582	0.959774	-53.2	-16.59	-1.89	-0.1337	0.0719	-0.4267	
0.180316	0.155672	0.95831	-54.74	-14.77	0	-0.1382	0.0766	-0.4282	
0.176046	0.13481	0.974536	-49.84	-15.61	1.47	-0.1398	0.0875	-0.4282	
0.18666	0.105408	0.979294	-47.46	-15.26	1.12	-0.1473	0.1076	-0.4223	
0.192028	0.105286	1.00406	-48.37	-14.98	2.45	-0.1442	0.09209999	-0.4267	
0.20679	0.073566	0.99979	-42.14	-13.16	1.26	-0.1473	0.1107	-0.4238	
0.219478	0.061732	1.008086	-39.76	-13.16	2.03	-0.1504	0.1262	-0.4163	
0.227652	0.058804	1.027118	-36.75	-12.74	-0.7	-0.1563	0.1263	-0.4103	
0.230092	0.04758	1.045174	-32.97	-12.18	-0.28	-0.1564	0.1325	-0.4088	
0.2318	0.03843	1.060058	-29.54	-11.2	-0.49	-0.1506	0.1401	-0.4088	
0.242292	0.013176	1.062132	-25.48	-9.1	-1.19	-0.155	0.1402	-0.4044	
0.256078	-0.014274	1.069574	-19.39	-5.11	-1.05	-0.1579	0.134	-0.4148	
0.26291	-0.027328	1.087752	-14.56	-3.43	-2.45	-0.1668	0.145	-0.4074	
0.268644	-0.041724	1.093364	-9.59	-2.03	-4.2	-0.1668	0.1496	-0.4059	
0.280112	-0.052704	1.11203	-7	0.14	-2.1	-0.1639	0.1511	-0.4118	
0.272426	-0.055266	1.109712	1.47	3.08	-2.66	-0.1565	0.1495	-0.4029	
0.257176	-0.050874	1.11508	3.71	5.32	-2.1	-0.1624	0.1434	-0.4133	
0.271084	-0.064904	1.11447	5.46	9.24	-2.17	-0.1623	0.1418	-0.4133	
0.28243	-0.078202	1.124474	6.44	9.24	1.68	-0.1551	0.1479	-0.4148	
0.269498	-0.082716	1.126426	13.37	12.74	2.1	-0.1492	0.1463	-0.4058	
0.27755	-0.0793	1.11752	19.11	17.64	2.03	-0.158	0.151	-0.4148	
0.263032	-0.076006	1.10166	23.52	22.05	2.94	-0.1477	0.1416	-0.4118	
0.253394	-0.077836	1.106662	31.64	24.43	4.97	-0.1505	0.1309	-0.4133	
0.241072	-0.07076	1.089216	40.88	27.02	4.83	-0.149	0.1262	-0.4178	
0.224358	-0.050996	1.085678	46.69	31.43	7.84	-0.1401	0.1153	-0.4193	
0.230702	-0.02745	1.058594	58.8	31.5	10.36	-0.1356	0.1121	-0.4192	
0.19825	0.00427	1.01138	62.58	37.59	14.77	-0.1149	0.0964	-0.4296	
0.183244	0.03111	0.98393	68.74	40.46	16.94	-0.1134	0.0902	-0.4297	
0.157746	0.055998	0.971974	77.28	40.11	14.14	-0.1059	0.0716	-0.4371	
0.137128	0.08845	0.93513	84.28	42.49	8.54	-0.1059	0.0762	-0.4311	
0.123952	0.104066	0.915366	90.86	43.4	7.35	-0.0911	0.0544	-0.4505	
0.083326	0.147498	0.87718	91.14	44.73	10.22	-0.0777	0.0404	-0.4415	
0.082228	0.18666	0.842776	96.95	44.03	10.29	-0.0835	0.0312	-0.4445	
0.087718	0.223626	0.79727	98.35	44.66	8.75	-0.07	0.0109	-0.449	
0.0549	0.267058	0.76189	110.6	59.85	-8.19	-0.0626	0.0015	-0.4505	
-0.027206	0.332572	0.727486	103.18	67.69	-3.15	-0.0448	-0.0186	-0.4475	
-0.036112	0.37698	0.698938	107.1	48.16	1.4	-0.046	-0.0387	-0.4445	
-0.071736	0.408822	0.65941	103.25	53.55	0.7	-0.0311	-0.0605	-0.446	
-0.082106	0.433832	0.648796	109.06	47.95	0.21	-0.028	-0.0713	-0.4326	
-0.116144	0.49532	0.631838	105.84	44.03	4.55	-0.0175	-0.0931	-0.4356	
-0.098942	0.539484	0.599996	104.3	36.54	4.34	-0.0144	-0.1055	-0.44	
-0.115656	0.598654	0.597556	102.97	29.82	4.55	-0.0041	-0.1149	-0.4341	
-0.108702	0.713578	0.59048	108.99	27.79	4.9	0.007999999	-0.1506	-0.4355	
-0.12627	0.745908	0.555466	101.57	27.23	4.76	0.0022	-0.1598	-0.4296	
-0.115412	0.76067	0.52704	96.6	25.48	1.54	0.0039	-0.1768	-0.4162	
-0.130296	0.765916	0.500322	96.18	24.99	-2.59	0.0099	-0.1845	-0.4132	
-0.139446	0.791048	0.46604	92.82	28.21	-1.82	0.016	-0.2062	-0.4072	
-0.127856	0.822158	0.425536	91.42	23.66	0.42	0.0147	-0.217	-0.4043	
-0.133224	0.85461	0.389668	85.89	18.27	1.4	0.0295	-0.2296	-0.4043	
-0.164212	0.903776	0.383324	86.8	14.35	1.47	0.021	-0.2526	-0.3864	
-0.14335	0.95587	0.351238	85.05	17.64	-0.21	0.0239	-0.2527	-0.3849	
-0.163724	0.987712	0.33367	78.82	21.77	-0.49	0.0283	-0.2527	-0.3774	
-0.181902	1.017724	0.32208	78.33	27.09	1.26	0.0375	-0.2852	-0.3715	
-0.172874	1.030412	0.283284	75.18	30.8	3.08	0.0318	-0.2975	-0.367	
-0.20313	0.985028	0.26047	63.77	35.91	3.85	0.0421	-0.3007	-0.3521	
-0.198494	0.989786	0.231556	62.72	33.95	0.98	0.0394	-0.313	-0.3446	
-0.197396	0.9882	0.219722	56.77	27.51	-0.28	0.0483	-0.3255	-0.3357	
-0.213378	0.985516	0.222406	54.67	22.26	-0.42	0.0527	-0.3271	-0.3342	
-0.202642	0.992226	0.200812	48.72	13.51	-1.12	0.0557	-0.3287	-0.3222	
-0.192028	0.993202	0.198982	51.31	12.46	-2.52	0.0589	-0.3488	-0.3193	
-0.183854	0.997594	0.193248	45.5	15.68	-3.01	0.0661	-0.338	-0.3133	
-0.17202	1.002962	0.192394	44.94	16.17	-2.59	0.07229999	-0.3582	-0.2924	
-0.160552	1.003328	0.17934	38.85	17.29	-1.68	0.0634	-0.355	-0.3103	
-0.192516	1.015772	0.144814	36.47	16.38	-2.17	0.0635	-0.3627	-0.2969	
-0.20435	1.025532	0.127368	32.27	18.48	-1.33	0.0783	-0.3706	-0.2909	
-0.205692	1.035902	0.105164	30.24	18.69	-1.61	0.0636	-0.3658	-0.2775	
-0.2013	1.066524	0.087718	25.69	18.48	-2.73	0.0752	-0.3629	-0.2954	
-0.222772	1.06445	0.102724	22.12	13.3	-1.82	0.0651	-0.3704	-0.285	
-0.241682	1.075186	0.083692	16.17	12.74	-0.91	0.0753	-0.3675	-0.2745	
-0.253882	1.095316	0.067588	13.93	11.76	1.12	0.07539999	-0.369	-0.276	
-0.275354	1.087264	0.066124	10.29	8.47	1.61	0.0741	-0.386	-0.279	
-0.274988	1.07604	0.075884	9.24	4.69	0.14	0.0826	-0.3629	-0.279	
-0.263886	1.071648	0.079788	5.18	0.35	0.63	0.0784	-0.3799	-0.27	
-0.23119	1.067012	0.067954	-1.33	-5.6	-0.35	0.0784	-0.3814	-0.27	
-0.231678	1.050664	0.059658	-2.59	-5.88	-1.96	0.0784	-0.3752	-0.2715	
-0.2013	1.041148	0.088572	-0.63	-5.6	-1.61	0.0783	-0.3737	-0.2849	
-0.188368	1.039806	0.1159	0.35	-3.71	-2.03	0.0784	-0.3783	-0.285	
-0.199958	1.049932	0.09638	-6.23	-0.35	-0.77	0.0769	-0.3768	-0.276	
-0.211914	1.054568	0.076372	-13.86	0.84	0.14	0.0725	-0.3798	-0.2775	
-0.192638	1.067866	0.091988	-13.44	-3.22	-0.91	0.0709	-0.369	-0.2865	
-0.201056	1.053592	0.130418	-16.94	-4.97	-0.14	0.0784	-0.3799	-0.2909	
-0.218502	1.047126	0.110776	-24.57	-0.49	-0.49	0.0812	-0.3722	-0.2849	
-0.212768	1.034926	0.10736	-24.29	-2.03	-1.19	0.0812	-0.3675	-0.2894	
-0.209352	1.055056	0.111874	-13.02	0.49	-1.82	0.0783	-0.3721	-0.279	
-0.21228	1.038342	0.124196	-46.13	-16.52	1.89	0.0797	-0.366	-0.2954	
-0.190442	1.004792	0.157868	-42.35	-28.56	-0.07	0.0766	-0.3567	-0.3133	
-0.190564	1.026264	0.166408	-37.66	-25.62	-3.29	0.0737	-0.3582	-0.3028	
-0.199348	1.044564	0.15494	-40.32	-20.02	-1.61	0.078	-0.3521	-0.3133	
-0.214476	1.052982	0.16287	-41.44	-11.41	2.45	0.0677	-0.3473	-0.3043	
-0.207644	1.026874	0.183854	-45.5	-17.92	2.45	0.0558	-0.341	-0.3357	
-0.178852	0.985272	0.227896	-54.18	-23.45	3.15	0.063	-0.3288	-0.3357	
-0.172996	0.985394	0.237168	-49.84	-21.49	1.19	0.0557	-0.3256	-0.3372	
-0.164212	0.985882	0.22021	-54.46	-17.22	0.28	0.0584	-0.3148	-0.3431	
-0.202154	0.995032	0.210328	-60.55	-15.89	1.47	0.0468	-0.3224	-0.3431	
-0.179584	0.987468	0.22326	-59.99	-23.66	-0.07	0.0554	-0.3024	-0.3476	
-0.212036	0.951356	0.261812	-69.3	-26.32	4.13	0.0522	-0.29	-0.3655	
-0.175192	0.902678	0.2989	-67.83	-30.45	3.92	0.0508	-0.2885	-0.367	
-0.166042	0.906338	0.30866	-74.69	-31.29	0.63	0.0403	-0.276	-0.3744	
-0.155306	0.921954	0.30988	-71.75	-32.34	0.84	0.024	-0.2635	-0.3849	
-0.18788	0.898042	0.333914	-79.59	-32.97	0.91	0.0238	-0.2465	-0.3909	
-0.185928	0.872422	0.378566	-83.09	-35.49	0.49	0.0369	-0.2405	-0.4042	
-0.154818	0.841922	0.403454	-86.1	-42.21	1.05	0.0149	-0.2387	-0.3968	
-0.170312	0.828746	0.440786	-81.55	-47.95	2.24	0.0074	-0.22	-0.4073	
-0.104432	0.789096	0.496052	-75.67	-55.44	1.05	-0.0015	-0.206	-0.4103	
-0.076128	0.77409	0.542656	-75.53	-56.35	0.56	-0.0119	-0.1936	-0.4163	
-0.064416	0.745054	0.563884	-87.15	-47.46	-0.98	-0.0062	-0.1813	-0.4237	
-0.074664	0.708576	0.589382	-90.44	-44.66	-5.11	-0.0181	-0.1688	-0.4252	
-0.040382	0.68808	0.617564	-97.02	-41.51	-3.57	-0.0255	-0.1594	-0.4282	
-0.04209	0.643306	0.634278	-98.49	-38.36	-1.96	-0.0389	-0.1423	-0.4342	
-0.053192	0.58072	0.677588	-98.49	-37.1	-1.54	-0.0464	-0.1267	-0.4342	
-0.007198	0.528138	0.721874	-97.3	-36.47	-1.33	-0.0423	-0.1067	-0.4416	
-0.008662	0.488854	0.77348	-94.15	-36.19	-0.77	-0.0572	-0.088	-0.4431	
0.05002	0.431148	0.791658	-89.88	-33.25	-0.63	-0.0588	-0.0756	-0.4476	
0.054046	0.374418	0.788974	-92.61	-29.96	1.54	-0.0588	-0.0725	-0.4491	
0.060146	0.340014	0.795562	-89.53	-28.28	2.52	-0.0649	-0.0555	-0.4386	

0.060878	0.263398	0.861076	-83.02	-28.28	-1.05	-0.0784	-0.0229	-0.4401	
0.076616	0.230092	0.890478	-80.57	-27.93	-2.17	-0.086	-0.0042	-0.4461	
0.09333	0.201544	0.915122	-78.05	-26.67	-1.75	-0.0861	0.0018	-0.4476	
0.108824	0.162504	0.92171	-74.62	-23.38	-2.38	-0.0951	0.0205	-0.4461	
0.127734	0.10919	0.940986	-67.41	-22.54	-1.33	-0.09959999	0.0329	-0.4401	
0.10431	0.106384	0.983076	-61.95	-22.96	-0.42	-0.0997	0.0452	-0.4476	
0.116266	0.09882	1.00284	-59.01	-22.89	0.35	-0.1014	0.0592	-0.4386	
0.14091	0.09516	1.02724	-56.63	-21.84	0.49	-0.1058	0.067	-0.4356	
0.157868	0.082594	1.037244	-53.76	-20.44	1.75	-0.1118	0.0748	-0.4312	
0.162992	0.06734399	1.047248	-49.42	-18.9	0.49	-0.1206	0.0749	-0.4312	
0.18483	0.043066	1.061766	-47.53	-16.87	0.07	-0.1076	0.0963	-0.4356	
0.194956	0.02867	1.0553	-43.96	-14.91	0.7	-0.1224	0.1042	-0.4252	
0.19581	0.029768	1.072502	-39.27	-13.23	1.75	-0.1298	0.109	-0.4312	
0.201544	0.018544	1.092876	-34.23	-11.55	2.52	-0.1209	0.1089	-0.4192	
0.21045	0.011224	1.109468	-27.79	-10.36	1.89	-0.1269	0.1167	-0.4252	
0.228506	-0.003904	1.138504	-23.17	-8.12	1.4	-0.127	0.1213	-0.4282	
0.234606	-0.010492	1.159244	-15.68	-5.67	0	-0.1269	0.1182	-0.4267	
0.235216	-0.011346	1.158268	-6.86	-2.8	-2.03	-0.1342	0.1167	-0.4252	
0.22692	-0.016592	1.163636	-2.8	0.84	-1.12	-0.1357	0.1168	-0.4222	
0.218136	-0.019764	1.163026	2.87	3.92	-1.33	-0.1343	0.1229	-0.4252	
0.209108	-0.028304	1.151558	11.48	7.91	-2.24	-0.127	0.1228	-0.4326	
0.219478	-0.03721	1.16022	13.93	8.61	0.21	-0.1137	0.1196	-0.4237	
0.21716	-0.037088	1.146434	22.05	10.71	2.52	-0.121	0.1135	-0.4296	
0.252174	-0.062342	1.14131	30.73	10.01	6.44	-0.1268	0.1105	-0.4297	
0.25376	-0.049288	1.10898	38.36	16.73	2.59	-0.1136	0.1072	-0.4252	
0.197152	-0.008662	1.087508	49.77	19.81	1.89	-0.115	0.098	-0.4341	
0.20252	-0.002318	1.067378	52.99	24.15	2.8	-0.1237	0.09339999	-0.4297	
0.182878	0.030744	1.034316	60.97	28.07	4.27	-0.1003	0.0932	-0.4356	
0.17141	0.063806	1.011746	66.5	31.99	6.79	-0.0958	0.0838	-0.4415	
0.1281	0.102114	0.970388	75.18	31.29	7.42	-0.1059	0.0685	-0.4431	
0.139446	0.132736	0.947696	78.4	29.12	4.34	-0.0881	0.0513	-0.4356	
0.129686	0.155428	0.91622	85.19	35.63	1.82	-0.09519999	0.0375	-0.4371	
0.092354	0.208498	0.883158	87.99	41.16	-0.63	-0.07759999	0.0264	-0.4505	
0.08174	0.243146	0.859612	94.99	38.5	0.21	-0.07449999	0.0156	-0.446	
0.062342	0.27511	0.81618	90.37	43.4	-0.84	-0.0669	-0.0029	-0.4431	
0.085156	0.307196	0.772138	93.73	45.64	-0.42	-0.0564	-0.0262	-0.4445	
-0.013542	0.375516	0.72041	102.55	72.59	-11.48	-0.0519	-0.0386	-0.449	
-0.060634	0.402966	0.695766	99.89	64.61	-5.53	-0.031	-0.0667	-0.443	
-0.06588	0.442616	0.66368	103.95	52.43	-4.55	-0.0191	-0.0807	-0.44	
-0.087352	0.486414	0.636718	102.06	54.95	-2.94	-0.0189	-0.0993	-0.4445	
-0.104432	0.52948	0.623908	103.18	49.84	-3.29	-0.007	-0.1133	-0.437	
-0.141886	0.600728	0.605486	102.69	44.17	-0.98	-0.0009999999	-0.1304	-0.4356	
-0.185562	0.655018	0.601216	100.03	39.69	1.61	0.0079	-0.1475	-0.4281	
-0.165554	0.708088	0.570106	100.38	32.13	3.22	0.011	-0.1614	-0.4296	
-0.185562	0.73993	0.529602	96.32	28.49	3.92	0.0185	-0.1692	-0.4251	
-0.162382	0.754082	0.504592	91	29.75	3.15	0.0202	-0.1955	-0.4192	
-0.170678	0.756522	0.469578	89.53	29.33	1.12	0.0306	-0.2049	-0.4117	
-0.151768	0.769088	0.436028	88.62	28.98	-0.14	0.0293	-0.2188	-0.4027	
-0.145058	0.80398	0.415532	89.95	29.89	2.52	0.0265	-0.228	-0.4043	
-0.158966	0.85705	0.390034	88.69	29.68	2.8	0.0442	-0.2328	-0.3878	
-0.181902	0.908656	0.376736	85.47	29.89	5.18	0.0386	-0.2559	-0.3834	


-0.20618	1.000278	0.304146	63.77	33.39	3.5	0.0507	-0.2838	-0.355	
-0.2196	0.99003	0.283284	49.77	37.94	1.33	0.0552	-0.2916	-0.3535	
-0.22692	0.97051	0.250954	39.55	41.44	0.98	0.0568	-0.3009	-0.352	
-0.249246	0.96319	0.240096	40.53	37.8	0.7	0.07	-0.2964	-0.3446	
-0.24583	0.947208	0.226676	44.66	31.64	0.35	0.0702	-0.315	-0.352	
-0.24461	0.98088	0.217282	45.85	23.38	1.61	0.0805	-0.3197	-0.3222	
-0.239974	0.997106	0.225944	46.34	14.63	0.21	0.08639999	-0.3167	-0.3281	
-0.221552	1.022848	0.232044	43.47	14.91	-0.56	0.0835	-0.3275	-0.3296	
-0.223138	1.009794	0.20374	33.25	22.4	0.56	0.0865	-0.3244	-0.3162	
-0.233996	0.992958	0.17568	29.05	22.82	0.07	0.0808	-0.3413	-0.3177	
-0.238754	0.998936	0.165798	30.1	17.78	-0.77	0.0881	-0.3368	-0.3162	
-0.25132	1.004182	0.159088	31.08	12.95	-0.21	0.0984	-0.3415	-0.3087	
-0.247782	1.018944	0.157624	30.03	8.75	0.84	0.0897	-0.3476	-0.3147	
-0.2623	1.025776	0.144204	30.52	6.02	1.05	0.0927	-0.3523	-0.3043	
-0.268034	1.03273	0.10492	21.49	2.87	1.26	0.0972	-0.3554	-0.2923	
-0.261568	1.05591	0.092598	20.93	-3.15	1.26	0.0897	-0.3476	-0.3028	
-0.261812	1.084336	0.10309	24.57	-6.93	-0.49	0.0958	-0.3631	-0.2983	
-0.262178	1.088606	0.110776	19.6	-7	-0.7	0.09429999	-0.3631	-0.2938	
-0.259494	1.086044	0.097112	8.82	-6.3	-0.7	0.0958	-0.3615	-0.2909	
-0.249734	1.068476	0.101138	-1.47	-6.44	-0.63	0.08989999	-0.3599	-0.2894	
-0.252906	1.056398	0.111752	-5.39	-6.09	-0.28	0.0854	-0.3568	-0.2954	
-0.258274	1.056032	0.110654	-0.56	-2.31	-3.64	0.1001	-0.3601	-0.2908	
-0.256444	1.039684	0.12444	-0.07	0.7	-1.96	0.0915	-0.3677	-0.2819	
-0.240828	1.014674	0.110044	-8.61	5.81	-4.2	0.1016	-0.3616	-0.2953	
-0.194346	1.05652	0.113338	-4.06	1.26	-2.31	0.0958	-0.3662	-0.2879	
-0.209718	1.027118	0.15616	-6.93	-0.77	-0.21	0.1001	-0.357	-0.2938	
-0.16531	0.983442	0.148962	2.38	-7.84	-0.21	0.09429999	-0.3677	-0.2983	
-0.26047	1.040782	0.179096	-21.14	-13.23	4.41	0.0928	-0.3631	-0.2924	
-0.253272	1.025654	0.11224	-46.34	-13.79	4.76	0.09119999	-0.3461	-0.2998	
-0.206302	1.07482	0.09942999	-31.29	-27.51	-2.52	0.0882	-0.3491	-0.3103	
-0.20191	0.991616	0.287432	-11.34	-15.19	3.71	0.0897	-0.3445	-0.3088	
-0.205082	1.018212	0.176656	-28.28	-5.6	2.8	0.0853	-0.3475	-0.3043	
-0.22936	1.032486	0.160796	-30.59	-13.37	3.43	0.075	-0.3474	-0.3088	
-0.223382	1.062986	0.182634	-39.13	-13.23	3.64	0.069	-0.3396	-0.3222	
-0.227774	1.021384	0.203618	-44.73	-13.3	3.99	0.0808	-0.3382	-0.3237	
-0.218014	0.984296	0.242414	-39.83	-18.27	3.57	0.0733	-0.3304	-0.3177	
-0.214476	0.96929	0.228018	-45.15	-17.43	3.36	0.0747	-0.3243	-0.3311	
-0.211304	0.985272	0.226188	-40.81	-21.7	2.8	0.0674	-0.3242	-0.3371	
-0.20313	1.01016	0.235582	-42.21	-26.18	1.33	0.0731	-0.315	-0.3326	
-0.23546	0.96624	0.276696	-46.76	-29.54	2.1	0.0598	-0.3071	-0.3535	
-0.183976	0.921222	0.302926	-53.41	-28.77	3.15	0.0598	-0.3087	-0.355	
-0.19154	0.91378	0.303902	-57.4	-30.1	0.98	0.0524	-0.3024	-0.3595	
-0.174216	0.947574	0.30439	-58.52	-29.96	-0.49	0.0523	-0.2978	-0.364	
-0.17812	0.97478	0.301462	-61.67	-30.31	-0.77	0.0492	-0.2807	-0.3685	
-0.177144	0.916952	0.34221	-68.81	-32.48	2.17	0.0358	-0.2682	-0.3759	
-0.187636	0.879132	0.391498	-66.71	-31.57	2.38	0.0284	-0.2589	-0.3894	
-0.188368	0.867176	0.404796	-72.94	-33.6	3.99	0.0238	-0.2434	-0.3968	
-0.166286	0.871324	0.436028	-66.43	-37.66	3.22	0.0224	-0.248	-0.3953	
-0.146644	0.85766	0.46665	-67.97	-38.08	2.52	0.0133	-0.2294	-0.4103	
-0.15006	0.820084	0.499346	-68.67	-38.92	2.87	0.0146	-0.2109	-0.4087	
-0.111996	0.769576	0.53741	-69.02	-39.2	4.2	-0.0001	-0.1999	-0.4118	
-0.085888	0.75091	0.559248	-66.01	-35.35	-0.07	-0.003	-0.2029	-0.4207	
-0.101748	0.745054	0.577792	-69.16	-35.14	0.7	-0.0061	-0.1859	-0.4192	
-0.124684	0.749446	0.588162	-69.02	-36.68	2.66	-0.0136	-0.1781	-0.4207	
-0.106994	0.707112	0.611464	-70.14	-36.89	2.8	-0.0196	-0.1641	-0.4312	
-0.073932	0.644892	0.66856	-75.88	-36.68	3.99	-0.0241	-0.1579	-0.4312	
-0.02806	0.622566	0.71004	-74.48	-34.79	3.08	-0.0346	-0.1392	-0.4267	
-0.019886	0.594994	0.72407	-75.67	-33.67	4.13	-0.0435	-0.1268	-0.4342	
-0.011956	0.576938	0.726022	-72.87	-30.66	4.2	-0.0422	-0.1175	-0.4506	
0.007442	0.530944	0.729438	-73.08	-28.63	3.92	-0.057	-0.1019	-0.4461	
0.008052	0.479094	0.744566	-75.25	-26.32	4.83	-0.0498	-0.0896	-0.4386	
0.021838	0.45872	0.761036	-71.75	-27.93	4.13	-0.0558	-0.0834	-0.4416	
0.003172	0.440298	0.786412	-71.12	-28.49	1.96	-0.0602	-0.0818	-0.4506	
0.02135	0.419436	0.80093	-71.89	-29.33	-0.56	-0.0707	-0.0616	-0.4476	
0.03111	0.394548	0.814228	-71.47	-30.45	-1.68	-0.0709	-0.0446	-0.4535	
0.058804	0.349164	0.82411	-71.75	-32.06	-0.28	-0.08109999	-0.0476	-0.4506	
0.056364	0.325008	0.844972	-68.67	-32.76	0.84	-0.0828	-0.0305	-0.4476	
0.080276	0.305366	0.8601	-66.22	-32.41	1.68	-0.083	-0.0105	-0.4431	
0.11285	0.289994	0.882792	-63.56	-31.08	1.82	-0.086	0.0003	-0.4461	
0.093818	0.29219	0.899872	-64.26	-28.7	2.87	-0.0993	0.0082	-0.4491	
0.114558	0.286944	0.919148	-62.37	-28.07	2.8	-0.1024	0.0159	-0.4536	
0.108214	0.265594	0.941718	-60.83	-27.93	3.08	-0.0979	0.0143	-0.4461	
0.139324	0.230946	0.951356	-60.97	-26.25	3.71	-0.1098	0.0268	-0.4461	
0.127612	0.232044	0.95221	-57.4	-24.85	3.71	-0.1159	0.0485	-0.4401	
0.154086	0.197274	0.96258	-56.28	-23.38	2.94	-0.116	0.0578	-0.4401	
0.15189	0.184342	0.974414	-54.95	-20.93	2.38	-0.1102	0.0686	-0.4341	
0.183366	0.14823	0.992226	-49	-21.21	2.45	-0.1264	0.0672	-0.4342	
0.205204	0.130052	0.997838	-46.83	-19.11	2.38	-0.1281	0.095	-0.4282	
0.209474	0.133956	1.01687	-44.17	-16.8	3.01	-0.1222	0.09339999	-0.4297	
0.204838	0.122	1.03334	-44.66	-15.05	6.23	-0.1296	0.0935	-0.4237	
0.211792	0.096502	1.04066	-35.98	-13.72	2.8	-0.137	0.106	-0.4252	
0.229238	0.075396	1.055422	-36.12	-11.27	2.66	-0.1282	0.1059	-0.4163	
0.237168	0.068198	1.062132	-30.03	-8.82	1.47	-0.1385	0.1106	-0.4222	
0.237168	0.053192	1.068964	-24.99	-7.21	-0.28	-0.1414	0.106	-0.4193	
0.256566	0.035014	1.074942	-24.64	-5.11	1.47	-0.1401	0.1168	-0.4148	
0.24888	0.022936	1.086898	-15.47	-2.87	0.21	-0.1431	0.123	-0.4178	
0.24461	0.013542	1.09373	-11.41	-0.49	-2.38	-0.1402	0.1292	-0.4133	
0.243756	0.000244	1.101904	-6.51	1.82	-2.94	-0.1387	0.1292	-0.4177	
0.237778	-0.00976	1.113738	-3.5	3.92	-3.29	-0.1461	0.1277	-0.4222	
0.271206	-0.034038	1.111542	-3.29	5.32	-3.15	-0.1388	0.1323	-0.4192	
0.238876	-0.029036	1.118618	4.62	5.04	-2.38	-0.1344	0.1322	-0.4192	
0.241926	-0.037576	1.112152	10.15	7.7	-2.52	-0.1372	0.1261	-0.4148	
0.197274	-0.011102	1.1041	15.61	9.87	2.87	-0.1461	0.1308	-0.4267	
0.24095	-0.030866	1.097878	23.38	11.97	1.61	-0.146	0.12	-0.4222	
0.211548	-0.02806	1.098122	31.22	16.03	-2.17	-0.1313	0.1183	-0.4267	
0.23302	-0.023546	1.090924	37.94	19.39	-3.85	-0.1282	0.1074	-0.4222	
0.223138	-0.012444	1.079578	40.67	23.52	-2.31	-0.1297	0.1043	-0.4282	
0.219112	0.004514	1.056154	49.49	24.99	-1.4	-0.1297	0.109	-0.4282	
0.210694	0.027572	1.043588	57.4	27.51	-0.7	-0.1163	0.0872	-0.4386	
0.200934	0.055754	1.018212	60.48	30.87	0.98	-0.1104	0.084	-0.4237	
0.157136	0.086498	0.996618	68.6	31.71	2.52	-0.1088	0.0685	-0.4326	
0.164578	0.10919	0.974048	70.42	28.84	1.61	-0.1044	0.0638	-0.449	
0.162748	0.114314	0.934642	74.55	32.97	0.98	-0.1086	0.0515	-0.4431	
0.124806	0.154574	0.915244	82.6	35.91	-0.91	-0.0969	0.0514	-0.4475	
0.107482	0.18056	0.869006	87.36	40.18	-4.55	-0.0909	0.0374	-0.4475	
0.072712	0.236436	0.846558	88.06	40.18	-1.68	-0.0818	0.011	-0.4505	
0.084546	0.268522	0.803736	90.58	36.19	0.14	-0.0772	-0.0013	-0.4505	
0.025376	0.342088	0.759938	101.01	64.82	-14.77	-0.0636	-0.0354	-0.4475	
-0.009272	0.37881	0.725656	98.56	57.47	-9.38	-0.043	-0.0465	-0.443	
-0.026474	0.414556	0.69784	96.32	53.27	-7.49	-0.0355	-0.0605	-0.4475	
-0.055022	0.467504	0.660996	98	56.7	-9.94	-0.0367	-0.0852	-0.449	
-0.106506	0.52887	0.64416	93.24	51.59	-5.95	-0.0233	-0.0977	-0.446	
-0.099796	0.56364	0.636108	97.65	41.93	-6.3	-0.0144	-0.1132	-0.4415	
-0.122732	0.61305	0.632082	96.32	41.02	-7.35	-0.0113	-0.1272	-0.4475	
-0.143716	0.661728	0.622932	93.66	35.84	-2.87	-0.0068	-0.1303	-0.443	
-0.14396	0.69174	0.590236	88.2	31.85	-1.89	-0.0051	-0.1535	-0.4326	
-0.145058	0.725534	0.539972	82.46	29.96	-1.96	0.0037	-0.1613	-0.4296	
-0.145302	0.77043	0.518134	79.73	25.41	-2.73	0.0127	-0.1784	-0.4266	
-0.177998	0.807884	0.512034	80.15	26.67	-2.59	0.0216	-0.1847	-0.4191	
-0.183122	0.8296	0.482266	77.07	31.08	0.28	0.0202	-0.1924	-0.4102	
-0.18422	0.860344	0.466528	81.55	26.04	0.35	0.0278	-0.2095	-0.4117	
-0.199714	0.903898	0.442494	78.89	21.63	-2.52	0.0234	-0.2156	-0.4043	
-0.178242	0.930738	0.406992	70.42	19.67	-2.24	0.0251	-0.2295	-0.3983	
-0.194102	0.958798	0.361486	59.36	21.42	-2.24	0.034	-0.2373	-0.4013	
-0.22631	0.96929	0.34099	53.9	24.78	-4.62	0.0312	-0.2497	-0.3923	
-0.25437	0.952698	0.326838	47.53	26.32	-6.23	0.0505	-0.2653	-0.3744	
-0.270718	0.951356	0.313662	45.64	22.61	-7.42	0.0416	-0.2637	-0.3864	
-0.274134	0.955382	0.296216	43.33	16.52	-7.91	0.0475	-0.2653	-0.3789	
-0.264374	0.945866	0.30195	37.38	13.09	-8.19	0.0447	-0.2745	-0.3774	
-0.251808	0.95099	0.314028	37.45	8.12	-7.84	0.0566	-0.2901	-0.3655	
-0.255834	0.96868	0.307318	36.75	6.51	-7.21	0.0522	-0.2854	-0.3565	
-0.263764	0.978684	0.287798	33.18	5.74	-6.72	0.0509	-0.2993	-0.3655	
-0.281454	0.988322	0.272548	31.22	0.7	-5.46	0.0626	-0.2948	-0.3565	
-0.284138	1.006744	0.261202	28.84	-2.94	-5.11	0.0568	-0.3055	-0.355	
-0.279746	1.011624	0.278526	30.94	-8.89	-4.2	0.0569	-0.3071	-0.3506	
-0.257908	0.982344	0.295728	25.83	-7.56	-4.27	0.0584	-0.3102	-0.3476	
-0.242902	0.949648	0.310978	22.19	-5.46	-5.04	0.0598	-0.3087	-0.3446	
-0.225334	0.973438	0.300364	21.35	-5.39	-5.32	0.057	-0.3133	-0.3446	
-0.246684	0.982466	0.285114	15.12	-3.78	-4.69	0.0541	-0.3194	-0.3386	
-0.272426	0.942816	0.279136	5.46	-1.4	-2.24	0.0512	-0.3209	-0.3387	
-0.27267	0.944036	0.283772	7.77	-3.29	0.21	0.0482	-0.3147	-0.3387	
-0.276208	0.944036	0.290482	11.41	-4.55	3.08	0.0527	-0.3194	-0.3342	
-0.274866	0.940498	0.298168	14	-4.41	6.09	0.0482	-0.3116	-0.3252	
-0.263642	0.942328	0.285846	11.13	-3.36	8.47	0.0483	-0.327	-0.3342	
-0.261568	0.93513	0.289262	9.94	-6.51	10.78	0.0542	-0.324	-0.3357	
-0.257786	0.956846	0.292068	6.37	-7.28	13.23	0.0482	-0.3162	-0.3342	
-0.262788	0.942816	0.30012	4.76	-10.22	16.66	0.0454	-0.327	-0.3312	
-0.244366	0.930372	0.326838	2.45	-11.48	18.97	0.0424	-0.3208	-0.3402	
-0.223138	0.937082	0.316834	-3.08	-13.86	20.3	0.041	-0.3239	-0.3342	
-0.22387	0.926834	0.313784	-6.51	-15.61	21.21	0.0309	-0.3361	-0.3268	
-0.216916	0.914756	0.323056	-11.55	-15.05	23.66	0.0264	-0.3299	-0.3283	
-0.220088	0.894138	0.338794	-13.23	-12.46	26.6	0.0278	-0.3222	-0.3402	
-0.220332	0.891088	0.341966	-12.39	-9.31	30.66	0.019	-0.3221	-0.3373	
-0.175802	0.895602	0.346114	-1.82	-6.51	35.91	0.0131	-0.3282	-0.3462	
-0.18056	0.870958	0.347212	-12.39	-0.21	42.77	0.0234	-0.3283	-0.3372	
-0.158722	0.8723	0.363438	-14.56	-1.96	46.13	0.0087	-0.3219	-0.3447	
-0.126758	0.888282	0.373198	-17.5	-1.26	50.61	0.0014	-0.3234	-0.3462	
-0.113704	0.891576	0.387472	-21.28	2.03	53.69	-0.0073	-0.3202	-0.3388	
-0.108092	0.894016	0.367708	-21.98	6.02	56	-0.0176	-0.3185	-0.3463	
-0.096624	0.888282	0.368562	-24.78	5.53	56.77	-0.0146	-0.3309	-0.3523	
-0.082228	0.889624	0.384422	-27.65	-1.54	59.29	-0.0221	-0.3123	-0.3552	
-0.049166	0.89548	0.386862	-33.39	-7.28	60.76	-0.0295	-0.306	-0.3567	
-0.022326	0.89975	0.40199	-36.61	-11.13	62.44	-0.034	-0.3014	-0.3582	
0.000122	0.894992	0.418826	-36.75	-15.96	63.91	-0.0428	-0.2966	-0.3568	
0.029402	0.872544	0.432978	-39.69	-17.57	63.49	-0.0561	-0.2903	-0.3643	
0.074664	0.876448	0.446032	-43.75	-19.32	66.92	-0.0621	-0.284	-0.3613	
0.104798	0.87352	0.456158	-45.22	-21.21	67.2	-0.07669999	-0.2839	-0.3703	
0.126392	0.85522	0.475922	-49.21	-22.82	68.74	-0.08419999	-0.2776	-0.3792	
0.169946	0.863882	0.494344	-46.62	-26.81	67.13	-0.0843	-0.2699	-0.3867	
0.199592	0.855708	0.50996	-42.14	-31.57	64.82	-0.0961	-0.2636	-0.3867	
0.241926	0.819962	0.555466	-43.61	-31.71	60.69	-0.1169	-0.2402	-0.3897	
0.25132	0.835334	0.513254	-41.23	-30.1	53.97	-0.1271	-0.24	-0.3912	
0.262056	0.823378	0.508252	-33.25	-36.54	46.06	-0.1346	-0.2307	-0.3883	
0.31537	0.859856	0.547292	-23.17	-43.33	37.38	-0.139	-0.2291	-0.3942	
0.31659	0.740662	0.52216	-27.44	-40.46	19.74	-0.1464	-0.2182	-0.3883	
0.35624	0.7869	0.55571	-16.59	-46.9	35.28	-0.1583	-0.2119	-0.4017	
0.391986	0.803126	0.57462	-29.47	-43.19	31.5	-0.1729	-0.2101	-0.3913	
0.402478	0.776042	0.561688	-33.95	-39.62	30.45	-0.1715	-0.2086	-0.3883	
0.443836	0.76006	0.568276	-31.71	-40.04	28.07	-0.1863	-0.1961	-0.3913	
0.450546	0.721752	0.579256	-30.73	-38.99	23.87	-0.1922	-0.1945	-0.3958	
0.454816	0.714066	0.582306	-25.13	-39.62	23.45	-0.2025	-0.1881	-0.3929	
0.462258	0.699426	0.592554	-18.48	-38.57	22.33	-0.201	-0.1866	-0.3929	
0.474824	0.692106	0.590968	-20.93	-33.6	21.77	-0.2085	-0.1757	-0.3884	
0.502274	0.680394	0.589382	-20.23	-29.4	20.65	-0.2143	-0.1787	-0.3929	
0.503372	0.674538	0.584014	-16.94	-26.04	19.53	-0.2291	-0.1677	-0.3929	
0.5246	0.655872	0.590236	-21.91	-21.91	17.57	-0.213	-0.1633	-0.3854	
0.524844	0.648796	0.581696	-19.32	-17.08	15.68	-0.2276	-0.1678	-0.3929	
0.531066	0.657336	0.57523	-18.48	-14.49	13.79	-0.2307	-0.1554	-0.3869	
0.53558	0.65087	0.560956	-12.81	-15.12	10.85	-0.2336	-0.1553	-0.3929	
0.543998	0.656726	0.588772	-10.29	-16.45	8.33	-0.2366	-0.1553	-0.387	
0.538508	0.654408	0.58804	-8.75	-13.79	3.99	-0.2366	-0.1491	-0.3884	
0.558394	0.654896	0.603412	-6.3	-11.9	0.21	-0.244	-0.149	-0.3825	
0.556564	0.664168	0.603656	-4.83	-9.31	-1.96	-0.241	-0.1537	-0.387	
0.57523	0.665144	0.59475	-3.01	-6.58	-4.76	-0.244	-0.1506	-0.3885	
0.575962	0.67954	0.602802	-3.71	-4.83	-5.74	-0.2454	-0.1506	-0.39	
0.584258	0.68625	0.617808	-5.88	-1.12	-9.94	-0.2425	-0.149	-0.387	
0.560224	0.69174	0.612806	-5.04	2.73	-13.79	-0.2469	-0.1444	-0.3825	
0.565348	0.690886	0.614758	-3.36	5.46	-19.67	-0.244	-0.1475	-0.3974	
0.56242	0.680028	0.633912	2.52	6.44	-24.57	-0.2337	-0.1492	-0.3884	
0.567056	0.676002	0.63745	5.39	11.76	-28.98	-0.2439	-0.1521	-0.387	
0.541314	0.671488	0.603656	5.11	19.53	-33.74	-0.2395	-0.1537	-0.384	
0.535092	0.68625	0.607682	-0.91	27.72	-38.5	-0.2218	-0.1617	-0.3884	
0.515816	0.701012	0.5917	4.06	31.43	-42.28	-0.2131	-0.1602	-0.3869	
0.501176	0.708332	0.589504	6.58	33.81	-46.27	-0.2115	-0.1695	-0.3854	
0.476654	0.719678	0.580842	3.92	37.38	-51.24	-0.2012	-0.1712	-0.4003	
0.446398	0.734928	0.567422	5.25	39.34	-55.58	-0.1938	-0.1774	-0.3973	
0.408578	0.735904	0.570838	7.21	37.73	-59.08	-0.1937	-0.1898	-0.3973	
0.41236	0.731512	0.579744	19.18	33.04	-60.48	-0.1835	-0.1853	-0.4003	
0.39772	0.718946	0.582794	23.52	32.2	-61.32	-0.1686	-0.1994	-0.3943	
0.377346	0.740174	0.570838	23.73	32.9	-59.92	-0.1642	-0.2056	-0.4017	
0.35502	0.74786	0.553148	24.01	33.81	-62.58	-0.1509	-0.2104	-0.3987	
0.313662	0.751154	0.556076	28.7	32.34	-63.42	-0.1451	-0.2089	-0.4002	
0.28731	0.76921	0.573156	32.13	33.18	-63.77	-0.1405	-0.2229	-0.3957	
0.275232	0.776408	0.570594	24.78	38.08	-63	-0.123	-0.2169	-0.3867	
0.260348	0.778116	0.538264	23.17	42.7	-63	-0.1097	-0.231	-0.3942	
0.233996	0.797758	0.53314	25.13	44.1	-65.73	-0.0992	-0.2435	-0.3927	
0.157868	0.815326	0.525576	11.83	48.79	-66.36	-0.0906	-0.2312	-0.3911	
0.133102	0.847168	0.540094	16.73	43.96	-62.23	-0.0802	-0.2437	-0.3941	
0.106262	0.869738	0.556076	12.46	44.94	-60.06	-0.0611	-0.2424	-0.3881	
0.070516	0.85949	0.530456	5.46	48.51	-58.52	-0.0537	-0.2548	-0.3985	
0.011712	0.851682	0.50752	0.77	49.49	-59.78	-0.0347	-0.2458	-0.3895	
-0.010736	0.855342	0.511302	-1.96	46.76	-54.95	-0.0273	-0.252	-0.397	
-0.037332	0.877912	0.509838	-2.73	45.36	-52.22	-0.0201	-0.2444	-0.3969	
-0.05673	0.854244	0.49471	-12.46	48.02	-51.59	-0.0024	-0.2524	-0.4014	
-0.093452	0.812886	0.49532	-10.92	44.73	-55.72	0.0061	-0.2385	-0.3969	
-0.131394	0.833748	0.493612	-6.16	40.81	-59.08	0.0193	-0.2356	-0.3909	
-0.186782	0.817888	0.483364	-9.24	39.62	-59.29	0.0297	-0.2466	-0.3953	
-0.222284	0.799588	0.500444	-8.33	35.28	-59.78	0.0486	-0.2329	-0.3997	
-0.253028	0.799832	0.495198	-8.68	35.28	-64.26	0.0501	-0.2344	-0.3908	
-0.268644	0.80093	0.488732	-9.45	34.37	-69.23	0.0662	-0.2331	-0.3922	
-0.289994	0.785802	0.503494	-12.46	33.81	-70.35	0.0646	-0.2238	-0.3937	
-0.338916	0.773114	0.506666	-16.94	32.76	-70.42	0.0733	-0.2177	-0.3937	
-0.381738	0.739686	0.509716	-15.75	24.29	-69.37	0.0879	-0.2148	-0.4071	
-0.396744	0.723216	0.530578	-11.69	20.86	-67.2	0.1069	-0.2027	-0.3981	
-0.44225	0.692472	0.544852	-15.4	22.33	-64.68	0.1098	-0.1996	-0.3951	
-0.458232	0.671976	0.543266	-15.19	20.58	-62.02	0.1156	-0.1966	-0.401	
-0.46604	0.670146	0.534482	-15.61	19.46	-60.76	0.1302	-0.1937	-0.398	
-0.482998	0.653432	0.526064	-16.24	16.24	-60.34	0.1316	-0.1875	-0.3995	
-0.504226	0.622322	0.524966	-20.16	15.26	-58.38	0.1359	-0.1799	-0.395	
-0.513498	0.599752	0.541802	-19.11	13.16	-56.14	0.1461	-0.1723	-0.3964	
-0.508618	0.58926	0.525454	-19.04	13.44	-52.29	0.1417	-0.1738	-0.3979	
-0.512156	0.599874	0.533628	-19.53	12.11	-49.28	0.152	-0.1708	-0.3949	
-0.524356	0.578768	0.551562	-21.21	10.43	-46.83	0.1517	-0.1507	-0.4009	
-0.52582	0.55388	0.545828	-21.14	10.99	-42.28	0.1518	-0.1538	-0.3949	
-0.550708	0.539728	0.551562	-20.3	10.22	-38.5	0.1486	-0.1352	-0.4039	
-0.593774	0.533506	0.551196	-18.9	8.54	-35.63	0.1604	-0.1369	-0.3979	
-0.63501	0.527528	0.553636	-16.8	7.84	-31.15	0.1765	-0.1371	-0.4053	
-0.6771	0.52704	0.559004	-17.99	8.68	-26.74	0.1689	-0.1216	-0.4127	
-0.694302	0.505934	0.566202	-16.31	5.18	-23.1	0.1691	-0.1324	-0.4023	
-0.698084	0.490928	0.577426	-16.1	1.68	-18.76	0.1735	-0.1293	-0.3993	
-0.667828	0.482632	0.596092	-12.04	-3.01	-14.28	0.172	-0.1324	-0.4098	
-0.646478	0.465186	0.601338	-10.22	-1.47	-9.73	0.1779	-0.131	-0.4038	
-0.637572	0.445544	0.607438	-7.21	-4.34	-3.57	0.1748	-0.1155	-0.4038	
-0.633912	0.44896	0.617564	-4.34	-8.96	2.87	0.1734	-0.1232	-0.4008	
-0.648186	0.470432	0.611342	-3.01	-7.91	9.66	0.1748	-0.1232	-0.4097	
-0.648308	0.460062	0.59597	-2.73	-5.67	14.63	0.1631	-0.1184	-0.4053	
-0.642574	0.439078	0.592554	-4.83	0.42	18.48	0.1674	-0.1138	-0.4097	
-0.628666	0.444812	0.599996	-3.92	-1.82	24.01	0.1602	-0.123	-0.4083	
-0.638914	0.452376	0.611464	-2.17	-3.22	28.91	0.1616	-0.1169	-0.4068	
-0.655628	0.467626	0.595604	2.03	-5.6	33.04	0.1675	-0.12	-0.4038	
-0.656604	0.482266	0.591212	5.39	-8.75	36.47	0.1602	-0.123	-0.4053	
-0.642696	0.497638	0.58499	7.49	-8.96	38.5	0.1602	-0.1261	-0.4083	
-0.612928	0.535824	0.587796	9.31	-12.39	41.37	0.1545	-0.1368	-0.4023	
-0.605364	0.541802	0.59597	11.9	-15.54	42.56	0.1515	-0.1337	-0.4158	
-0.584136	0.531798	0.589992	14.21	-18.76	45.99	0.1413	-0.1382	-0.4054	
-0.556564	0.54351	0.59109	17.29	-20.86	48.09	0.1415	-0.1537	-0.4084	
-0.536068	0.58133	0.586332	18.9	-21.84	49	0.1312	-0.1489	-0.4084	
-0.511302	0.58804	0.57645	19.32	-23.38	50.54	0.1225	-0.1612	-0.4129	
-0.476288	0.5917	0.573766	20.23	-25.69	53.69	0.1166	-0.1596	-0.4114	
-0.436882	0.594384	0.57096	21.07	-25.62	56.63	0.1197	-0.1735	-0.4114	
-0.423218	0.630008	0.576694	22.82	-24.78	57.54	0.1051	-0.1795	-0.4204	
-0.42151	0.643794	0.563396	22.19	-24.5	59.71	0.1022	-0.1779	-0.41	
-0.407968	0.662948	0.549732	21.63	-26.32	63.07	0.0936	-0.1948	-0.4085	
-0.386374	0.676978	0.543754	20.44	-27.16	65.38	0.0788	-0.1885	-0.413	
-0.33977	0.693936	0.534238	20.93	-30.66	63.49	0.076	-0.1992	-0.4131	
-0.309026	0.716018	0.521428	18.69	-30.87	64.54	0.06879999	-0.2069	-0.4056	
-0.288652	0.755546	0.498858	15.4	-33.32	66.08	0.0615	-0.213	-0.4056	
-0.23973	0.775676	0.517158	17.01	-35.77	67.76	0.0571	-0.2098	-0.3967	
-0.20923	0.790316	0.520086	11.2	-34.44	68.6	0.0382	-0.2204	-0.4027	
-0.15921	0.813374	0.533872	8.47	-39.27	70.35	0.0278	-0.2141	-0.4042	
-0.117852	0.830698	0.535824	6.09	-54.04	72.03	0.0177	-0.2279	-0.4102	
-0.07869	0.810202	0.542534	-2.03	-54.18	74.55	0.0045	-0.2308	-0.4133	
-0.013786	0.80215	0.541558	-3.78	-52.22	72.52	-0.0115	-0.2275	-0.4073	
0.028792	0.798124	0.545218	-7.07	-52.15	71.05	-0.0247	-0.2274	-0.4089	
0.098332	0.789218	0.55022	-8.19	-51.38	70.42	-0.0408	-0.2272	-0.4044	
0.147376	0.771894	0.542778	-13.16	-49.35	70.7	-0.0497	-0.2194	-0.4074	
0.206058	0.78446	0.556686	-13.37	-51.45	71.19	-0.06	-0.2146	-0.406	
0.227286	0.769576	0.566934	-13.58	-50.75	71.05	-0.0775	-0.2252	-0.3986	
0.247416	0.751764	0.574498	-15.4	-49.07	73.29	-0.0951	-0.2203	-0.4061	
0.236924	0.743956	0.592554	-11.9	-49.84	75.88	-0.0997	-0.2064	-0.4046	
0.263154	0.767014	0.5978	-15.05	-46.48	77.14	-0.1069	-0.2187	-0.4046	
0.291336	0.804102	0.59231	-17.08	-44.94	75.53	-0.1233	-0.1922	-0.4001	
0.33794	0.771162	0.59414	-16.94	-43.54	67.9	-0.1423	-0.1966	-0.4091	
0.329522	0.772138	0.608658	-19.25	-41.44	60.9	-0.1395	-0.1874	-0.4091	
0.35563	0.771162	0.613294	-22.68	-40.6	58.59	-0.1571	-0.1856	-0.4121	
0.421266	0.757864	0.622688	-20.16	-41.16	50.96	-0.1747	-0.1839	-0.3988	
0.421022	0.744322	0.618784	-21.91	-38.92	46.83	-0.1807	-0.1699	-0.4062	
0.447984	0.728218	0.603656	-29.47	-35.98	42	-0.1823	-0.1606	-0.4032	
0.441518	0.720532	0.603412	-24.78	-36.82	35.35	-0.1999	-0.1604	-0.4048	
0.451888	0.716384	0.632692	-21.63	-39.76	32.69	-0.2059	-0.1495	-0.3973	
0.461404	0.697718	0.63501	-21.98	-38.08	28.77	-0.2119	-0.1371	-0.3958	
0.466528	0.6954	0.629764	-13.65	-38.85	26.67	-0.2163	-0.1355	-0.4003	
0.484096	0.666974	0.63318	-16.24	-35	23.17	-0.2236	-0.1385	-0.3973	
0.508618	0.654286	0.616588	-16.8	-31.5	20.23	-0.2325	-0.1306	-0.3974	
0.504836	0.66612	0.623298	-13.79	-30.59	18.2	-0.2295	-0.1353	-0.3944	
0.530578	0.66307	0.625372	-11.06	-28.91	15.26	-0.2383	-0.1275	-0.3869	
0.523502	0.673074	0.626104	-8.4	-26.04	11.76	-0.2502	-0.1196	-0.3974	
0.54351	0.665144	0.636718	-12.95	-21.91	10.22	-0.2502	-0.1181	-0.3884	
0.554978	0.651236	0.637938	-11.76	-18.69	8.26	-0.2516	-0.1227	-0.384	
0.57218	0.65514	0.629886	-7	-16.59	4.97	-0.2561	-0.1164	-0.39	
0.581452	0.651236	0.640866	-2.03	-14.84	1.4	-0.2604	-0.1257	-0.3885	
0.5978	0.646112	0.635254	1.47	-9.03	-2.73	-0.2589	-0.1257	-0.3915	
0.593042	0.643794	0.629276	-0.91	-4.69	-5.81	-0.2662	-0.124	-0.387	
0.58621	0.643916	0.633424	-2.17	1.12	-7.77	-0.2604	-0.1195	-0.3795	
0.582062	0.656238	0.633912	-1.75	4.48	-9.73	-0.2575	-0.1226	-0.384	
0.58072	0.655018	0.645258	1.68	5.81	-11.97	-0.2546	-0.1165	-0.3914	
0.576938	0.660508	0.663558	2.45	10.57	-14.56	-0.2588	-0.1288	-0.3825	
0.579256	0.645502	0.665632	-1.12	18.06	-19.11	-0.253	-0.1226	-0.3795	
0.590846	0.64111	0.661118	1.4	24.85	-23.17	-0.2502	-0.1165	-0.3884	
0.571448	0.631838	0.664656	9.1	29.75	-26.25	-0.2486	-0.1274	-0.3944	
0.562786	0.628666	0.668682	11.06	35.84	-29.26	-0.2325	-0.1291	-0.3869	
0.501298	0.655506	0.660508	13.79	40.95	-29.96	-0.2281	-0.1261	-0.3959	
0.54473	0.602436	0.65392	19.18	45.78	-35.35	-0.2206	-0.14	-0.3899	
0.507764	0.645136	0.624518	14.77	52.71	-35.98	-0.2177	-0.1385	-0.3973	
0.472262	0.642818	0.612562	18.27	52.71	-38.5	-0.2059	-0.1495	-0.3973	
0.444324	0.659776	0.628178	22.47	51.31	-38.57	-0.1882	-0.1559	-0.4003	
0.433222	0.668194	0.633668	27.72	51.94	-40.18	-0.1911	-0.1589	-0.4047	
0.391986	0.708942	0.61488	37.24	52.5	-42.7	-0.1616	-0.1763	-0.4032	
0.369416	0.692472	0.601094	34.65	53.48	-46.62	-0.1586	-0.1841	-0.4047	
0.336964	0.701988	0.593286	37.8	55.23	-51.03	-0.1453	-0.1904	-0.4091	
0.32513	0.730902	0.589138	39.41	55.86	-54.95	-0.1321	-0.1983	-0.4106	
0.30195	0.747616	0.589138	36.54	57.96	-57.47	-0.1276	-0.2014	-0.4046	
0.263886	0.758596	0.553514	31.57	60.06	-56.14	-0.1026	-0.2079	-0.4061	
0.226676	0.780556	0.569252	36.68	56.56	-58.03	-0.0981	-0.2188	-0.4165	
0.199714	0.794586	0.571936	40.11	56.98	-62.16	-0.0863	-0.2251	-0.4016	
0.16531	0.786656	0.570838	38.15	57.96	-64.19	-0.0686	-0.2361	-0.4045	
0.14396	0.813374	0.536922	34.23	57.54	-65.8	-0.054	-0.2301	-0.4015	
0.105286	0.822036	0.517036	32.9	52.15	-69.86	-0.0494	-0.2441	-0.406	
0.083936	0.846436	0.52216	30.73	48.58	-70.63	-0.0319	-0.2335	-0.397	
0.052216	0.811544	0.529602	28.77	45.64	-72.24	-0.0186	-0.2491	-0.3969	
-0.015372	0.803614	0.506788	17.99	40.81	-62.65	-0.0039	-0.2539	-0.3984	
-0.053314	0.841678	0.47336	11.69	37.66	-58.24	-0.0096	-0.2584	-0.391	
-0.094062	0.87657	0.45567	7.35	45.29	-57.47	0.0123	-0.2618	-0.3954	
-0.180316	0.860588	0.461648	0.63	45.29	-58.03	0.024	-0.2573	-0.3819	
-0.2135	0.819474	0.451644	0.49	39.41	-59.29	0.0357	-0.2543	-0.3864	
-0.244976	0.815692	0.446276	-2.52	36.96	-61.67	0.0518	-0.2514	-0.3789	
-0.262056	0.80581	0.444202	1.4	35.77	-66.36	0.0663	-0.2439	-0.3818	
-0.297924	0.792634	0.44469	-2.45	40.46	-68.04	0.0664	-0.2485	-0.3863	
-0.327204	0.790926	0.463966	4.2	33.74	-69.44	0.0751	-0.2425	-0.3803	
-0.340868	0.771284	0.46726	4.06	31.15	-66.43	0.0854	-0.2426	-0.3728	
-0.330986	0.758962	0.466284	1.82	32.62	-67.06	0.1014	-0.2366	-0.3802	
-0.361852	0.748958	0.47153	1.26	32.27	-64.05	0.1045	-0.2459	-0.3832	
-0.409554	0.726998	0.45689	-3.36	35.07	-61.88	0.1088	-0.2367	-0.3727	
-0.443958	0.743468	0.47397	1.61	33.46	-58.38	0.1322	-0.2354	-0.3831	
-0.478606	0.72895	0.454938	-3.15	32.97	-56.63	0.1365	-0.2277	-0.3801	
-0.491294	0.742614	0.453596	-5.18	31.22	-54.88	0.1366	-0.2324	-0.3712	
-0.515328	0.726022	0.450912	-7.98	28.07	-54.53	0.1585	-0.2265	-0.3726	
-0.53558	0.712236	0.43676	-13.65	28.77	-54.6	0.1569	-0.211	-0.3696	
-0.5734	0.702964	0.447374	-10.08	17.71	-54.46	0.1656	-0.2096	-0.3726	
-0.60512	0.676246	0.44774	-12.53	21.91	-48.86	0.1787	-0.1958	-0.3665	
-0.631472	0.677832	0.446642	-9.87	19.95	-47.53	0.1816	-0.1958	-0.365	
-0.660874	0.652944	0.431758	-12.18	17.92	-45.36	0.1918	-0.1851	-0.365	
-0.641476	0.640866	0.444812	-12.67	13.93	-42.84	0.1919	-0.1929	-0.362	
-0.615978	0.63501	0.44042	-10.36	11.76	-42.21	0.1918	-0.1882	-0.3665	
-0.619638	0.612928	0.437858	-10.78	11.06	-38.92	0.2021	-0.1915	-0.3695	
-0.634644	0.606706	0.433832	-9.1	9.31	-34.79	0.2106	-0.1668	-0.362	
-0.648674	0.588284	0.424438	-8.96	7.84	-29.68	0.2033	-0.1714	-0.368	
-0.667828	0.585722	0.43981	-7.56	6.65	-24.64	0.2077	-0.1653	-0.3635	
-0.681248	0.586698	0.441152	-7.49	7.14	-20.79	0.218	-0.1685	-0.3634	
-0.706258	0.589016	0.440542	-7.21	5.18	-17.29	0.2208	-0.1639	-0.3664	
-0.733708	0.565836	0.449936	-8.68	5.32	-12.88	0.2252	-0.1577	-0.3574	
-0.694058	0.553758	0.45506	-8.33	3.5	-9.94	0.2178	-0.1515	-0.3604	
-0.689788	0.559736	0.456524	-8.96	2.94	-7.49	0.2179	-0.1592	-0.3634	
-0.732488	0.544608	0.450668	-8.26	0.84	-1.05	0.2149	-0.153	-0.3679	
-0.728218	0.533506	0.44774	-9.1	-0.07	3.85	0.2163	-0.1546	-0.3783	
-0.725656	0.536922	0.471896	-10.85	2.45	8.47	0.2192	-0.1453	-0.3664	
-0.73505	0.543266	0.47153	-8.26	3.85	12.74	0.2237	-0.1562	-0.3694	
-0.715042	0.55083	0.45262	-6.58	1.47	19.32	0.2178	-0.153	-0.3664	
-0.69418	0.54778	0.46482	-8.82	-2.94	26.18	0.2149	-0.1545	-0.3679	
-0.69052	0.53619	0.47153	-7.07	-7.91	30.94	0.2134	-0.1576	-0.3724	
-0.696864	0.531432	0.443714	-4.13	-12.32	34.72	0.2133	-0.1499	-0.3739	
-0.682224	0.57584	0.47092	2.59	-15.54	33.46	0.2164	-0.1623	-0.3619	
-0.669536	0.574986	0.489952	2.73	-13.23	35	0.2178	-0.1561	-0.3709	
-0.649406	0.577548	0.483364	2.45	-18.83	40.11	0.2032	-0.1575	-0.3784	
-0.614636	0.594872	0.481778	5.67	-24.85	44.87	0.1946	-0.1759	-0.3799	
-0.600728	0.608536	0.477752	7.42	-23.03	45.85	0.1857	-0.1727	-0.3784	
-0.591822	0.640012	0.470188	9.38	-27.44	48.72	0.1844	-0.1835	-0.371	
-0.572546	0.63501	0.485926	6.51	-29.47	52.08	0.1727	-0.188	-0.3815	
-0.541192	0.647454	0.498492	9.1	-29.75	51.8	0.164	-0.1925	-0.3815	
-0.525088	0.662582	0.496662	11.27	-29.89	52.64	0.164	-0.191	-0.38	
-0.47641	0.681736	0.495198	10.78	-29.75	57.19	0.1435	-0.1985	-0.3875	
-0.440176	0.686738	0.493978	9.8	-31.22	59.92	0.142	-0.1969	-0.389	
-0.404186	0.716872	0.487756	12.11	-30.1	60.48	0.1363	-0.2092	-0.3831	
-0.403698	0.729072	0.48861	9.8	-28.21	62.58	0.1305	-0.2169	-0.3965	
-0.40138	0.726632	0.49288	8.75	-29.12	63.35	0.116	-0.2275	-0.3876	
-0.37454	0.742736	0.48434	7.42	-29.61	63.49	0.0983	-0.2165	-0.3832	
-0.335622	0.750178	0.47519	5.25	-31.71	64.96	0.0925	-0.2272	-0.3862	
-0.273158	0.792878	0.463234	5.18	-34.16	64.61	0.0838	-0.2379	-0.3877	
-0.257664	0.774456	0.474458	3.43	-37.45	66.5	0.0809	-0.2333	-0.3892	
-0.232532	0.785314	0.478118	1.54	-37.38	65.94	0.0619	-0.2377	-0.3878	
-0.215208	0.823988	0.466528	-0.21	-38.08	66.57	0.053	-0.2391	-0.3982	
-0.189832	0.849242	0.483242	-2.87	-37.94	66.57	0.0457	-0.239	-0.3983	
-0.157502	0.837042	0.486536	-3.08	-39.62	65.59	0.0238	-0.2449	-0.3983	
-0.108824	0.823744	0.489098	-5.88	-33.32	64.82	0.0267	-0.2419	-0.3923	
-0.064416	0.80154	0.491904	-12.67	-36.4	63.07	0.0076	-0.2432	-0.4028	
-0.021106	0.790194	0.517402	-15.61	-53.9	64.96	0.0062	-0.2478	-0.3999	
0.004758	0.78873	0.517646	-20.86	-56.35	69.65	-0.013	-0.2244	-0.4073	
0.102602	0.808006	0.530334	-19.39	-61.46	68.39	-0.0259	-0.2459	-0.4014	
0.158966	0.7991	0.5551	-18.27	-61.88	67.13	-0.0363	-0.235	-0.4044	
0.176046	0.798368	0.562176	-25.2	-55.44	67.27	-0.0438	-0.2225	-0.4044	
0.200202	0.803126	0.55815	-24.22	-52.57	67.06	-0.0658	-0.2222	-0.4045	
0.19032	0.810202	0.582916	-24.43	-52.01	66.29	-0.07319999	-0.2175	-0.4075	
0.23058	0.803126	0.58865	-24.08	-52.08	64.68	-0.09079999	-0.2127	-0.406	
0.239486	0.798734	0.59841	-24.64	-51.03	60.34	-0.1055	-0.2141	-0.412	
0.272182	0.799344	0.611098	-27.44	-49.21	58.24	-0.1218	-0.1969	-0.4121	
0.291946	0.801052	0.611952	-28.84	-46.48	53.76	-0.1261	-0.2076	-0.4046	
0.357094	0.821182	0.60573	-27.93	-46.41	48.86	-0.1364	-0.2013	-0.4106	
0.35563	0.81191	0.605974	-27.44	-45.43	42.63	-0.1497	-0.1903	-0.4032	
0.351848	0.777872	0.604876	-32.76	-43.89	37.73	-0.1571	-0.1872	-0.4077	
0.369416	0.764452	0.630862	-25.27	-45.99	33.32	-0.1645	-0.1763	-0.4032	
0.40321	0.754204	0.638426	-22.82	-44.1	30.17	-0.169	-0.1716	-0.4062	
0.424804	0.735416	0.62159	-24.43	-42.77	27.02	-0.1821	-0.1791	-0.4032	
0.463966	0.708454	0.629032	-14.28	-43.61	22.12	-0.1984	-0.1604	-0.4063	
0.449692	0.700036	0.639524	-13.02	-38.57	19.04	-0.2015	-0.1496	-0.4048	
0.457866	0.684908	0.614758	-19.81	-30.87	15.54	-0.2117	-0.1494	-0.3958	
0.457744	0.674172	0.622688	-14	-30.66	14.84	-0.2089	-0.1417	-0.3973	
0.462136	0.66124	0.635742	-12.32	-28.7	14.07	-0.2146	-0.1525	-0.3944	
0.483608	0.664534	0.6283	-13.02	-24.22	12.39	-0.2236	-0.14	-0.3988	
0.492636	0.671244	0.619882	-9.94	-22.05	9.87	-0.225	-0.1462	-0.3944	
0.507154	0.661362	0.627446	-10.71	-20.37	7.42	-0.2353	-0.143	-0.3914	
0.514718	0.645136	0.631106	-9.59	-17.08	5.74	-0.231	-0.1322	-0.3944	
0.51789	0.644282	0.624152	-5.81	-15.89	4.48	-0.2427	-0.1305	-0.3884	
0.530822	0.640134	0.63318	-7.14	-13.93	4.06	-0.2426	-0.1429	-0.3959	
0.535336	0.646722	0.636718	-2.8	-12.32	3.57	-0.2382	-0.1429	-0.4004	
0.53375	0.663436	0.64538	3.22	-11.06	2.52	-0.2398	-0.1275	-0.3884	
0.542778	0.655262	0.651846	0.63	-4.55	0.63	-0.2486	-0.1243	-0.384	
0.529968	0.665144	0.65209	-1.75	0.35	-2.1	-0.25	-0.1335	-0.3825	
0.536922	0.665266	0.647332	-9.31	7.14	-5.46	-0.2485	-0.1335	-0.3885	
0.533628	0.677466	0.65636	-5.6	9.31	-8.05	-0.2501	-0.1304	-0.3989	
0.52277	0.676246	0.66856	-3.71	12.39	-11.34	-0.231	-0.1306	-0.3839	
0.533994	0.66917	0.6771	-4.83	16.1	-14.84	-0.2354	-0.1322	-0.3989	
0.53924	0.67649	0.671732	2.8	18.97	-17.5	-0.234	-0.1291	-0.3944	
0.508496	0.646722	0.660508	-2.31	28.77	-23.94	-0.2354	-0.1337	-0.3959	
0.535458	0.642574	0.657824	-0.98	31.22	-26.39	-0.2251	-0.1354	-0.4093	
0.487268	0.649406	0.645868	1.82	36.61	-29.75	-0.2134	-0.134	-0.4048	
0.450424	0.659898	0.664778	5.25	36.96	-31.01	-0.2133	-0.1386	-0.3988	
0.449448	0.654408	0.654164	5.88	39.9	-33.6	-0.2045	-0.1403	-0.4107	
0.412238	0.677466	0.641842	9.31	41.93	-34.86	-0.2015	-0.148	-0.4048	
0.417728	0.657336	0.651846	14.98	41.86	-38.01	-0.1823	-0.1606	-0.4047	
0.385764	0.658434	0.64843	12.04	46.48	-38.92	-0.1736	-0.1545	-0.4062	
0.360144	0.682712	0.641232	13.23	48.51	-38.78	-0.1662	-0.1577	-0.4077	
0.343552	0.705404	0.630252	17.64	49.77	-41.02	-0.1545	-0.1609	-0.4061	
0.31354	0.714066	0.631472	15.26	50.96	-43.12	-0.1486	-0.1595	-0.4151	
0.27023	0.718336	0.628788	18.55	52.5	-43.12	-0.1338	-0.1766	-0.4151	
0.256322	0.713212	0.633912	21.35	52.71	-44.03	-0.1133	-0.1738	-0.4195	
0.239486	0.723704	0.635498	25.69	51.38	-43.68	-0.1029	-0.1863	-0.418	
0.222528	0.736026	0.634644	26.53	52.64	-43.89	-0.0971	-0.1786	-0.4165	
0.194956	0.749446	0.628422	24.57	56	-44.45	-0.0895	-0.2003	-0.409	
0.169702	0.772748	0.598044	20.58	58.52	-43.26	-0.0792	-0.202	-0.4135	
0.160796	0.809104	0.608902	20.65	56.91	-42.63	-0.0778	-0.2005	-0.4164	
0.121634	0.806908	0.613904	13.93	59.57	-42.77	-0.0425	-0.2117	-0.4149	
0.091012	0.792024	0.604144	9.1	62.86	-44.17	-0.0411	-0.2025	-0.4059	
0.07503	0.822036	0.6039	8.96	63.21	-46.2	-0.0309	-0.201	-0.4133	
0.039528	0.81191	0.605486	4.9	63.98	-47.88	-0.0043	-0.2153	-0.4148	
-0.001708	0.799832	0.601216	3.36	66.43	-48.37	0.0087	-0.2154	-0.4222	
-0.02928	0.780068	0.59902	1.61	67.2	-49.07	0.0131	-0.2077	-0.4058	
-0.10736	0.76128	0.571936	1.47	67.62	-52.85	0.0336	-0.2065	-0.4057	
-0.1464	0.747982	0.548756	1.89	68.46	-56.21	0.0366	-0.2111	-0.4072	
-0.159088	0.709796	0.541192	0.56	68.39	-62.3	0.0541	-0.2052	-0.4042	
-0.2196	0.700524	0.543144	-3.22	67.13	-58.17	0.0746	-0.2054	-0.4071	
-0.269498	0.706868	0.54778	-5.18	62.23	-52.43	0.0746	-0.2085	-0.4175	
-0.322446	0.707722	0.518134	-5.25	54.74	-52.64	0.09209999	-0.1963	-0.4055	
-0.3782	0.704184	0.504226	-0.07	45.85	-52.57	0.1068	-0.1981	-0.404	
-0.39711	0.69662	0.522404	0.21	45.85	-54.46	0.12	-0.1982	-0.398	
-0.43127	0.688568	0.489464	-0.56	44.94	-59.5	0.136	-0.1907	-0.401	
-0.452864	0.70699	0.492026	0.77	37.94	-60.27	0.133	-0.1829	-0.3965	
-0.471896	0.698694	0.499468	-2.87	33.11	-54.11	0.1478	-0.1893	-0.389	
-0.489098	0.688446	0.508618	0.7	28.21	-50.61	0.1478	-0.1877	-0.3875	
-0.509472	0.679418	0.479582	-4.55	26.32	-47.32	0.1623	-0.1802	-0.3904	
-0.525454	0.644526	0.477996	-3.36	22.61	-44.8	0.1695	-0.1679	-0.3874	
-0.53985	0.633668	0.469212	-7.63	23.59	-42.42	0.1709	-0.1602	-0.3755	
-0.543022	0.639158	0.481046	-2.94	17.29	-43.75	0.1812	-0.165	-0.3844	
-0.562664	0.635864	0.479094	-4.34	11.55	-40.53	0.1812	-0.1619	-0.3829	
-0.574864	0.627324	0.498004	-4.62	7.28	-39.27	0.1855	-0.1573	-0.3904	
-0.594506	0.618296	0.504836	-4.69	5.39	-36.26	0.2047	-0.1621	-0.3784	
-0.619272	0.612074	0.508252	-4.9	4.2	-32.55	0.2047	-0.1621	-0.3784	
-0.623176	0.612196	0.52155	-5.81	2.66	-28.63	0.1824	-0.1433	-0.3904	
-0.614758	0.604632	0.527772	-5.25	-1.54	-27.65	0.1927	-0.1419	-0.3829	
-0.615734	0.592798	0.519476	-4.41	-4.55	-25.76	0.1897	-0.1403	-0.3888	
-0.608414	0.579744	0.532652	-4.13	-4.34	-21.07	0.1942	-0.1481	-0.3963	
-0.612684	0.567178	0.54473	-5.81	-4.97	-15.82	0.1941	-0.1373	-0.3918	
-0.634156	0.532286	0.538996	-4.34	-7.49	-10.64	0.1882	-0.1388	-0.3918	
-0.617686	0.534604	0.542656	-4.34	-9.59	-5.74	0.1882	-0.1388	-0.3918	
-0.596458	0.538996	0.563518	-2.94	-8.96	-0.84	0.1941	-0.1389	-0.3858	
-0.572912	0.517158	0.549244	-2.24	-8.4	4.27	0.1881	-0.1264	-0.3858	
-0.576694	0.550098	0.566568	-1.68	-8.89	4.34	0.1867	-0.1326	-0.3918	
-0.613172	0.569862	0.553026	0.56	-8.61	7.49	0.1896	-0.1295	-0.3933	
-0.602558	0.582062	0.564494	4.83	-11.06	12.81	0.1765	-0.134	-0.3918	
-0.587674	0.585112	0.563762	6.23	-13.44	14.35	0.1824	-0.1449	-0.3933	
-0.570594	0.606828	0.586088	8.96	-14.14	14.42	0.1883	-0.1434	-0.3963	
-0.560834	0.60817	0.59597	9.94	-12.95	16.1	0.1737	-0.1479	-0.3963	
-0.532774	0.613172	0.59109	9.1	-11.48	19.25	0.1796	-0.148	-0.3933	
-0.528016	0.625006	0.603656	10.22	-11.13	20.72	0.1693	-0.1447	-0.3919	
-0.53009	0.603534	0.58804	5.53	-7.91	21.56	0.1722	-0.1448	-0.3919	
-0.518012	0.604266	0.578768	7.28	-7.91	23.17	0.1663	-0.1462	-0.3919	
-0.498736	0.62525	0.578768	7.63	-6.09	27.58	0.168	-0.1617	-0.3844	
-0.4758	0.648064	0.592554	10.64	-4.27	31.01	0.1636	-0.1632	-0.3904	
-0.45689	0.63318	0.591578	6.86	1.82	34.37	0.1607	-0.1616	-0.3874	
-0.448472	0.634644	0.576084	6.58	4.62	36.75	0.1562	-0.16	-0.3919	
-0.450424	0.665144	0.569496	7.7	7.35	37.94	0.1534	-0.1677	-0.3919	
-0.43432	0.709308	0.574132	10.01	10.5	40.6	0.1563	-0.1708	-0.3979	
-0.40321	0.706502	0.555832	9.24	13.93	44.31	0.1622	-0.1694	-0.386	
-0.39528	0.707844	0.548756	5.25	19.18	48.23	0.1535	-0.1801	-0.3934	
-0.407602	0.739564	0.5429	5.32	21.56	49	0.1622	-0.1678	-0.3755	
-0.387838	0.74725	0.536556	6.3	21.49	49.91	0.1625	-0.1925	-0.389	
-0.3782	0.774212	0.532408	4.41	20.16	50.82	0.1538	-0.1971	-0.3815	
-0.328668	0.784338	0.558882	7.7	21.28	57.4	0.1595	-0.1879	-0.38	
-0.29524	0.799466	0.533018	1.12	41.37	62.79	0.1581	-0.194	-0.3726	
-0.308904	0.814228	0.535336	1.26	40.74	66.43	0.1596	-0.194	-0.3785	
-0.294142	0.81496	0.532896	-0.49	43.82	68.25	0.1582	-0.2048	-0.3815	
-0.293532	0.827282	0.508496	-1.47	44.52	71.05	0.1671	-0.2111	-0.374	
-0.266448	0.838628	0.511912	-5.46	47.04	76.86	0.1584	-0.2187	-0.3711	
-0.244488	0.828502	0.512888	-2.31	49.91	78.75	0.1687	-0.2219	-0.3621	
-0.224846	0.85034	0.49593	-3.71	54.18	83.23	0.1658	-0.2219	-0.3621	
-0.207156	0.881328	0.491782	-5.95	56.49	85.82	0.1674	-0.2296	-0.3681	
-0.223016	0.895114	0.48678	-11.06	57.96	86.45	0.1601	-0.2357	-0.3547	
-0.221552	0.905118	0.487878	-11.13	58.45	88.34	0.1675	-0.242	-0.3547	
-0.229604	0.905972	0.478606	-12.81	58.66	89.11	0.1661	-0.2451	-0.3577	
-0.202398	0.90463	0.477752	-15.12	56.77	90.02	0.172	-0.2436	-0.3457	
-0.191906	0.896212	0.460062	-20.09	55.37	88.06	0.1663	-0.2559	-0.3428	
-0.185318	0.89243	0.472262	-20.37	50.75	86.38	0.1691	-0.2482	-0.3472	
-0.174826	0.880718	0.471286	-20.72	48.09	83.37	0.1823	-0.253	-0.3412	
-0.145424	0.878522	0.484706	-20.02	43.68	80.36	0.1721	-0.2544	-0.3353	
-0.128832	0.874496	0.49105	-18.27	40.46	76.37	0.1692	-0.259	-0.3383	
-0.12444	0.87901	0.498492	-20.44	40.18	71.19	0.1693	-0.2621	-0.3398	
-0.127002	0.867542	0.499834	-18.76	36.33	65.73	0.1679	-0.2682	-0.3443	
-0.104188	0.870104	0.502518	-16.59	33.32	61.18	0.1693	-0.2667	-0.3428	
-0.098454	0.873764	0.503982	-10.99	30.73	56.42	0.1605	-0.2666	-0.3324	
-0.084912	0.87352	0.532408	-8.61	26.88	51.24	0.1605	-0.2604	-0.3309	
-0.067954	0.86803	0.535092	-13.93	28.28	45.43	0.1606	-0.2697	-0.3413	
-0.073932	0.862418	0.533506	-13.65	27.16	40.88	0.1649	-0.2651	-0.3443	
-0.036722	0.846802	0.533628	-12.74	25.13	36.96	0.1403	-0.2895	-0.3354	
-0.015494	0.851438	0.551196	-6.79	25.2	35.63	0.1709	-0.2775	-0.3323	
0.000244	0.84668	0.544852	-17.15	31.71	34.16	0.1592	-0.2759	-0.3309	
-0.013908	0.863516	0.536922	-11.9	27.44	29.26	0.1607	-0.2821	-0.3354	
-0.024522	0.861686	0.545462	-15.75	28.28	26.53	0.1724	-0.2806	-0.3323	
-0.019886	0.848266	0.544608	-17.08	29.26	22.96	0.1547	-0.2743	-0.3383	
-0.011346	0.841922	0.54473	-12.04	26.25	19.95	0.165	-0.2728	-0.3353	
-0.021106	0.83753	0.559004	-12.25	25.2	18.27	0.1577	-0.2789	-0.3339	
-0.032574	0.821914	0.569618	-13.65	25.76	17.22	0.1578	-0.2789	-0.3294	
-0.044408	0.82777	0.54534	-12.67	26.04	15.89	0.1709	-0.276	-0.3249	
-0.047946	0.81679	0.543022	-16.31	24.71	13.79	0.1665	-0.2713	-0.3309	
-0.069052	0.823134	0.54961	-15.47	21.98	11.97	0.1738	-0.2776	-0.3383	
-0.074054	0.833382	0.556442	-12.81	20.23	9.03	0.1723	-0.2729	-0.3308	
-0.093818	0.803614	0.533506	-14.84	17.57	6.72	0.1782	-0.2761	-0.3353	
-0.07869	0.81679	0.545584	-10.5	12.18	4.48	0.1737	-0.2668	-0.3353	
-0.074298	0.804468	0.575718	-12.74	9.52	1.26	0.1782	-0.2699	-0.3353	
-0.073444	0.797636	0.556076	-12.11	7.42	-1.82	0.1811	-0.2699	-0.3353	
-0.072956	0.804956	0.565958	-7.7	2.31	-3.64	0.1723	-0.2683	-0.3323	
-0.07686	0.80215	0.57645	-4.76	-1.19	-7.63	0.1781	-0.2622	-0.3383	
-0.090158	0.799222	0.582184	-0.49	-6.23	-13.44	0.1853	-0.2545	-0.3368	
-0.086132	0.796538	0.57462	-0.14	-8.47	-14.98	0.1766	-0.2622	-0.3353	
-0.101626	0.807396	0.567666	3.78	-13.86	-17.85	0.1767	-0.2668	-0.3249	
-0.137738	0.817888	0.550464	7.84	-17.15	-22.19	0.1839	-0.2592	-0.3353	
-0.164822	0.81496	0.53558	15.19	-23.8	-27.51	0.178	-0.256	-0.3413	
-0.167262	0.819108	0.522526	22.68	-30.94	-32.69	0.1706	-0.2497	-0.3353	
-0.167262	0.82533	0.510448	24.99	-38.99	-37.52	0.1854	-0.2623	-0.3338	
-0.191052	0.845582	0.49959	27.3	-44.17	-41.44	0.181	-0.2622	-0.3442	
-0.114314	0.811544	0.497638	47.39	-56.35	-38.43	0.1677	-0.2543	-0.3443	
-0.179462	0.843874	0.483242	29.19	-57.75	-41.51	0.1693	-0.2652	-0.3443	
-0.139202	0.85217	0.474092	30.31	-59.85	-45.92	0.1649	-0.2651	-0.3398	
-0.161406	0.884256	0.456036	29.96	-65.03	-48.72	0.1635	-0.2713	-0.3443	
-0.198982	0.895724	0.455914	34.58	-72.8	-49.63	0.162	-0.2666	-0.3443	
-0.199958	0.91256	0.440908	33.74	-76.37	-54.81	0.162	-0.2682	-0.3458	
-0.166164	0.92171	0.416996	30.8	-80.92	-60.34	0.1488	-0.2727	-0.3503	
-0.168238	0.931714	0.397354	30.24	-88.62	-65.59	0.1371	-0.2725	-0.3414	
-0.123464	0.932324	0.38613	37.1	-96.18	-71.19	0.1444	-0.2711	-0.3548	
-0.072346	0.95343	0.38369	43.33	-101.71	-72.24	0.1356	-0.274	-0.3563	
-0.084912	0.954894	0.385886	45.78	-104.16	-73.29	0.1196	-0.2785	-0.3534	
-0.149694	0.958066	0.391132	40.39	-108.5	-75.74	0.1182	-0.2816	-0.3504	
-0.151524	0.960872	0.394304	36.19	-110.6	-80.99	0.1122	-0.2768	-0.3489	
-0.119804	0.971852	0.349652	28.91	-109.34	-76.51	0.1079	-0.2799	-0.3549	
-0.106262	0.972096	0.31842	30.31	-118.72	-77.49	0.0975	-0.2751	-0.3564	
-0.119194	0.971242	0.3233	28.7	-126.35	-76.02	0.1021	-0.2906	-0.3594	
-0.128832	0.984784	0.343918	35.49	-125.65	-75.81	0.0743	-0.2934	-0.3639	
-0.106506	0.979416	0.34221	26.95	-123.2	-77.28	0.0712	-0.2841	-0.3609	
-0.114436	0.98637	0.315004	24.43	-125.23	-78.54	0.0581	-0.2917	-0.358	
-0.10553	0.983198	0.336964	33.53	-133.98	-78.96	0.0464	-0.29	-0.3565	
-0.082228	0.9943	0.349042	25.83	-134.33	-77.56	0.0347	-0.2898	-0.3491	
-0.060756	0.985882	0.347456	24.29	-130.76	-76.58	0.042	-0.293	-0.3625	
-0.073322	0.987102	0.350018	26.67	-130.62	-73.22	0.0275	-0.3006	-0.3611	
-0.083692	0.999424	0.337696	29.12	-133.84	-69.79	0.0039	-0.2941	-0.3522	
-0.063562	1.003572	0.34648	35.14	-141.89	-70.42	-0.0015	-0.3187	-0.3552	
-0.044896	0.977098	0.37027	44.87	-142.24	-74.9	-0.0192	-0.3139	-0.3523	
-0.085278	1.056398	0.378078	44.73	-141.61	-72.24	-0.0294	-0.3184	-0.3463	
-0.103334	1.030046	0.355142	34.23	-146.93	-71.82	-0.0366	-0.3245	-0.3344	
-0.01464	0.961116	0.376248	38.64	-141.05	-76.58	-0.035	-0.3369	-0.3374	
-0.035502	0.986858	0.363316	28.21	-132.23	-76.37	-0.0584	-0.3381	-0.33	
0.024888	0.979782	0.381616	41.93	-136.5	-80.5	-0.07009999	-0.341	-0.3196	
0.00732	0.919514	0.397354	30.87	-133.28	-79.87	-0.0803	-0.3471	-0.3211	
0.027084	0.83265	0.436028	17.99	-122.15	-68.39	-0.0773	-0.3487	-0.3077	
0.06466	0.878644	0.436516	27.16	-113.26	-63.49	-0.0875	-0.3578	-0.3092	
-0.018056	0.884988	0.405284	20.3	-101.15	-62.16	-0.0875	-0.3547	-0.3003	
-0.049776	0.868884	0.419802	14.42	-93.8	-54.39	-0.0844	-0.3671	-0.2913	
-0.041724	0.820938	0.441152	7.7	-84.56	-48.44	-0.0932	-0.3655	-0.2988	
-0.04941	0.828624	0.462624	7.28	-77.77	-39.9	-0.0933	-0.3593	-0.2928	
-0.114192	0.872544	0.480558	6.44	-70.56	-31.43	-0.1005	-0.3654	-0.2958	
-0.03416	0.822402	0.4758	4.9	-63.42	-20.79	-0.1063	-0.373	-0.2854	
-0.02806	0.859734	0.488854	-2.8	-53.69	-14.98	-0.1137	-0.3698	-0.2854	
-0.123342	0.88572	0.469822	15.12	-39.97	-19.32	-0.1181	-0.362	-0.2765	
-0.118462	0.867054	0.461526	-3.29	-32.41	-15.82	-0.1209	-0.3759	-0.2855	
-0.119072	0.874618	0.469822	-1.68	-32.34	-10.15	-0.1179	-0.379	-0.2795	
-0.152378	0.880596	0.473116	-3.5	-25.9	-8.33	-0.1165	-0.3729	-0.284	
-0.179218	0.890966	0.448472	-1.61	-18.34	-10.29	-0.1209	-0.3759	-0.2735	
-0.145302	0.870348	0.469578	-1.96	-19.53	-7.35	-0.1151	-0.3698	-0.2705	
-0.157868	0.849242	0.466772	-6.23	-14.63	-6.93	-0.1165	-0.3775	-0.2765	
-0.154208	0.85949	0.462746	-6.93	-12.32	-5.53	-0.1194	-0.3775	-0.272	
-0.171654	0.86559	0.470188	5.39	-8.12	-7.35	-0.1166	-0.3682	-0.272	
-0.15738	0.826794	0.487024	0.56	-3.64	-4.34	-0.1296	-0.3835	-0.2706	
-0.166164	0.848022	0.47824	-0.56	-0.49	-0.35	-0.1282	-0.3789	-0.2735	
-0.15921	0.85705	0.458842	3.43	0.14	2.24	-0.1223	-0.3774	-0.2765	
-0.158112	0.8357	0.476654	2.03	3.08	3.78	-0.118	-0.3729	-0.2854	
-0.1403	0.861808	0.478972	3.01	7.91	5.74	-0.1239	-0.3682	-0.278	
-0.112972	0.854854	0.503494	5.81	11.62	9.8	-0.1209	-0.3744	-0.2735	
-0.090158	0.870104	0.50264	3.99	21.77	14.49	-0.1165	-0.376	-0.269	
-0.089914	0.882792	0.483608	3.01	29.05	18.76	-0.1208	-0.3821	-0.2795	
-0.063074	0.860832	0.51301	6.79	36.96	23.59	-0.1224	-0.3744	-0.278	
-0.032086	0.871812	0.507764	7.84	50.68	25.2	-0.1151	-0.3744	-0.278	
-0.015372	0.898164	0.498248	11.48	54.67	27.86	-0.1253	-0.3728	-0.281	
0.013786	0.897676	0.482754	16.45	54.25	33.67	-0.1224	-0.3728	-0.284	
0.03904	0.930494	0.432734	15.82	65.87	36.33	-0.1238	-0.3774	-0.2765	
0.00366	0.940254	0.453474	-10.64	100.59	41.65	-0.1209	-0.379	-0.2795	
0.019764	0.900848	0.444568	-3.85	101.5	42.98	-0.1078	-0.3668	-0.2809	
0.015616	0.942206	0.398574	-8.82	112.42	46.06	-0.1034	-0.3746	-0.2899	
0.022204	0.914268	0.345382	-21.28	108.64	43.82	-0.0946	-0.3685	-0.2943	
-0.053314	1.042734	0.36661	-19.6	132.37	52.36	-0.0873	-0.3671	-0.2898	
-0.02623	0.91378	0.34709	-31.08	120.61	53.97	-0.08	-0.3656	-0.3092	
-0.01769	0.994056	0.3843	-19.67	114.73	57.54	-0.0742	-0.3611	-0.3077	
0.016592	0.966362	0.335866	2.31	107.87	69.09	-0.0743	-0.3549	-0.3151	
0.030866	1.038952	0.243878	-46.55	167.44	62.44	-0.0568	-0.3489	-0.3136	
-0.039528	1.05164	0.219722	-40.53	161.42	66.92	-0.0568	-0.3474	-0.3211	
-0.042334	0.999424	0.314882	-40.88	157.64	74.06	-0.035	-0.3353	-0.3195	
-0.017568	0.993568	0.320616	-51.52	164.92	86.17	-0.0292	-0.3369	-0.3419	
0.00488	0.99308	0.250222	-49.14	165.34	84.84	-0.0189	-0.3324	-0.3403	
0.008296	1.011868	0.184952	-54.6	162.89	93.59	-0.0058	-0.3279	-0.3388	
-0.02806	1.002718	0.225578	-68.74	178.5	95.69	0.01	-0.3127	-0.3522	
-0.096258	1.007232	0.242414	-71.47	186.34	94.71	0.0144	-0.3097	-0.3566	
-0.121634	1.003084	0.278648	-53.69	182.21	96.32	0.0348	-0.3006	-0.364	
-0.11224	1.000766	0.274378	-43.68	177.87	94.08	0.0449	-0.2869	-0.367	
-0.111264	0.995398	0.287432	-63.14	182.49	94.43	0.0508	-0.2947	-0.3655	
-0.158112	1.04066	0.235948	-64.19	174.65	94.08	0.0668	-0.2779	-0.352	
-0.224724	0.98759	0.259616	-58.1	156.45	93.1	0.0904	-0.292	-0.3624	
-0.221064	0.906338	0.372344	-56.42	143.15	97.93	0.1108	-0.2815	-0.3593	
-0.095282	0.895358	0.400648	-56.42	152.53	101.99	0.1151	-0.2723	-0.3668	
-0.109556	0.98393	0.270596	-30.52	144.06	95.76	0.137	-0.2694	-0.3593	
-0.22326	0.971852	0.336598	-42.56	136.71	94.08	0.1386	-0.2741	-0.3578	
-0.274012	0.915	0.413336	-34.79	116.2	84.42	0.1547	-0.2712	-0.3518	
-0.219478	0.91683	0.422486	-37.73	107.1	77.63	0.1634	-0.2636	-0.3547	
-0.196054	0.967094	0.424194	-37.73	104.44	70.28	0.1591	-0.265	-0.3294	
-0.210572	0.933666	0.43188	-38.99	94.08	65.03	0.1797	-0.2761	-0.3264	
-0.217404	0.882548	0.462746	-43.12	89.88	62.86	0.1825	-0.2653	-0.3263	
-0.192272	0.875472	0.433588	-32.83	79.73	59.01	0.1796	-0.2668	-0.3323	
-0.202276	0.869128	0.444446	-26.88	68.74	52.85	0.1913	-0.2654	-0.3323	
-0.249246	0.879742	0.448472	-24.36	62.65	46.97	0.1928	-0.2639	-0.3174	
-0.291946	0.863638	0.461648	-23.17	52.71	42	0.2001	-0.2624	-0.3173	
-0.241072	0.860588	0.4758	-19.6	45.15	37.52	0.1987	-0.2701	-0.3173	
-0.21655	0.9455	0.525698	-20.93	36.26	30.31	0.2061	-0.2733	-0.3218	
-0.22692	0.85217	0.393572	-18.2	32.41	27.93	0.2016	-0.264	-0.3203	
-0.209962	0.847168	0.53863	-11.48	14.98	20.93	0.2104	-0.2641	-0.3128	
-0.214598	0.845338	0.513742	-9.8	12.04	15.54	0.2001	-0.2624	-0.3188	
-0.183366	0.80886	0.521062	-7.77	2.66	9.87	0.2133	-0.2641	-0.3203	
-0.149328	0.812154	0.542168	-5.67	-2.03	6.02	0.1986	-0.2593	-0.3263	
-0.151158	0.787998	0.549366	-7.98	-3.29	3.36	0.1973	-0.2701	-0.3218	
-0.147132	0.782752	0.555222	-7.14	-7.98	2.66	0.2002	-0.2748	-0.3338	
-0.123952	0.777872	0.56364	-5.95	-11.62	1.47	0.1972	-0.2624	-0.3248	
-0.122854	0.795684	0.55815	-6.23	-13.58	-0.77	0.2	-0.2578	-0.3218	
-0.104432	0.79422	0.590236	-4.9	-16.24	-2.8	0.2016	-0.2702	-0.3323	
-0.113826	0.805566	0.587918	-1.26	-17.57	-6.09	0.2014	-0.2516	-0.3218	
-0.123952	0.80886	0.60146	2.17	-19.81	-9.52	0.2016	-0.2671	-0.3308	
-0.112728	0.81496	0.591822	5.25	-20.51	-13.09	0.2015	-0.2594	-0.3263	
-0.113216	0.808128	0.58194	10.01	-22.4	-18.69	0.1869	-0.2638	-0.3204	
-0.12322	0.818132	0.573644	16.1	-24.64	-22.89	0.1928	-0.2623	-0.3278	
-0.166896	0.848754	0.554002	21.84	-30.52	-26.95	0.1912	-0.2592	-0.3323	
-0.240706	0.862174	0.517524	23.31	-39.83	-29.75	0.1868	-0.2561	-0.3323	
-0.220576	0.862296	0.513986	26.18	-42.98	-35.14	0.1781	-0.2653	-0.3293	
-0.167872	0.87169	0.475922	31.64	-56.28	-47.18	0.1751	-0.2591	-0.3338	
-0.188124	0.888404	0.459574	29.82	-64.12	-52.36	0.1795	-0.2607	-0.3368	
-0.228628	0.872788	0.447252	22.33	-70.56	-57.68	0.1767	-0.2683	-0.3353	
-0.2135	0.888648	0.441884	26.32	-79.45	-60.34	0.1649	-0.2651	-0.3413	
-0.202886	0.88145	0.44957	29.82	-89.53	-64.19	0.1619	-0.2651	-0.3473	
-0.188978	0.889746	0.411628	29.26	-104.16	-66.64	0.1693	-0.2652	-0.3487	
-0.146278	0.904142	0.374296	42.56	-119.42	-69.37	0.1531	-0.2588	-0.3547	
-0.128344	0.919636	0.421754	45.29	-127.26	-73.01	0.14	-0.2679	-0.3473	
-0.121878	0.912316	0.34953	37.94	-130.69	-77.07	0.1311	-0.2632	-0.3578	
-0.0976	0.932446	0.357704	45.29	-133.91	-80.43	0.1209	-0.2692	-0.3578	
-0.08686399	0.946476	0.3782	43.68	-135.17	-82.39	0.1121	-0.2707	-0.3593	
-0.05978	0.93879	0.351604	41.65	-132.37	-82.39	0.0976	-0.2782	-0.3639	
-0.05612	0.941718	0.348798	46.06	-138.25	-83.02	0.0902	-0.2781	-0.3594	
-0.048068	0.973438	0.336842	40.25	-132.93	-79.87	0.0698	-0.2841	-0.3669	
-0.08686399	0.952698	0.329644	38.15	-133.63	-73.22	0.0699	-0.2918	-0.3624	
-0.07625	0.947208	0.337818	54.67	-138.04	-75.6	0.0507	-0.2838	-0.358	
-0.047458	0.96807	0.294386	56	-138.53	-80.15	0.0493	-0.2885	-0.3506	
-0.080642	0.997106	0.305854	38.22	-137.97	-73.5	0.026	-0.3021	-0.3596	
-0.041724	0.976366	0.306708	39.9	-152.95	-70.91	0.0247	-0.3082	-0.3447	
0.009393999	1.031632	0.321226	44.38	-148.82	-71.33	0.0114	-0.3081	-0.3537	
-0.061366	0.989298	0.289018	25.76	-139.16	-71.89	-0.0046	-0.3094	-0.3492	
-0.042334	0.973072	0.329644	39.2	-142.8	-71.82	-0.0118	-0.3124	-0.3448	
-0.009272	1.019676	0.33733	38.99	-144.83	-70.91	-0.0264	-0.3184	-0.3463	
0.010126	1.030046	0.303292	33.95	-147	-71.33	-0.0292	-0.3323	-0.3329	
0.013908	1.00955	0.335988	24.15	-139.23	-69.09	-0.038	-0.3275	-0.3344	
0.011346	0.990762	0.328668	21.63	-128.24	-66.36	-0.0526	-0.332	-0.324	
0.002928	1.008086	0.33672	22.54	-118.23	-68.67	-0.0657	-0.3427	-0.327	
-0.011834	0.998936	0.340624	19.81	-109.9	-67.55	-0.07009999	-0.338	-0.3166	
-0.02684	0.97905	0.353556	17.29	-106.54	-61.88	-0.0642	-0.338	-0.3121	
0.027084	0.964898	0.38125	19.25	-110.11	-59.78	-0.07	-0.3488	-0.3241	
0.035502	0.983442	0.380762	10.22	-102.06	-64.61	-0.0832	-0.3486	-0.3137	
0.020008	0.915366	0.415898	10.99	-108.57	-54.81	-0.1036	-0.3576	-0.3093	
-0.018788	0.915976	0.4331	12.53	-97.72	-50.82	-0.0933	-0.3593	-0.2854	
0.021106	0.86498	0.396622	5.6	-87.64	-47.53	-0.1049	-0.3684	-0.2884	
0.013664	0.871934	0.449082	10.71	-78.05	-39.13	-0.0991	-0.3654	-0.2943	
0.001342	0.868274	0.436516	7.98	-49.98	-36.96	-0.1092	-0.373	-0.2705	
-0.070882	0.873764	0.430782	7.14	-56.91	-33.18	-0.1019	-0.3746	-0.2824	
-0.0732	0.898042	0.450302	9.45	-53.83	-26.67	-0.1092	-0.3776	-0.281	
-0.09455	0.89914	0.416386	3.85	-44.52	-24.43	-0.1107	-0.373	-0.2795	
-0.100772	0.87352	0.430782	-2.45	-42.7	-19.74	-0.121	-0.3713	-0.2855	
-0.092354	0.887794	0.457378	3.99	-41.37	-17.5	-0.1194	-0.3744	-0.275	
-0.089304	0.875106	0.438956	-3.36	-30.66	-14.07	-0.1165	-0.3775	-0.2765	
-0.098088	0.889502	0.435052	1.33	-28	-10.29	-0.1165	-0.3729	-0.269	
-0.111508	0.911584	0.430782	-0.77	-22.12	-7.42	-0.1223	-0.3805	-0.2735	
-0.128466	0.894748	0.441396	-0.21	-18.97	-6.09	-0.1194	-0.3728	-0.269	
-0.117852	0.882304	0.444446	0.14	-13.23	-5.25	-0.1208	-0.379	-0.2705	
-0.135298	0.907436	0.428098	0.91	-6.86	-4.62	-0.1341	-0.3742	-0.2706	
-0.135664	0.885964	0.418582	-1.89	-4.2	-1.05	-0.1209	-0.3775	-0.2705	
-0.135298	0.874374	0.429196	-1.96	-0.42	0.98	-0.1208	-0.379	-0.2705	
-0.14457	0.865956	0.422242	-2.38	2.94	2.38	-0.1194	-0.379	-0.272	
-0.157258	0.888648	0.406748	-2.24	4.69	3.85	-0.1253	-0.3774	-0.272	
-0.150548	0.890356	0.412482	1.19	2.52	5.11	-0.1208	-0.3867	-0.281	
-0.132004	0.893284	0.43127	0.35	3.85	6.79	-0.1223	-0.3774	-0.2661	
-0.122366	0.885842	0.42822	1.4	6.37	6.72	-0.1239	-0.3728	-0.2765	
-0.13054	0.88694	0.437736	-0.42	10.57	7.56	-0.115	-0.3806	-0.2675	
-0.119072	0.888404	0.448472	-0.35	14.49	10.01	-0.1252	-0.3789	-0.2691	
-0.090402	0.884866	0.452376	0.21	17.71	12.6	-0.1209	-0.3759	-0.2646	
-0.059658	0.894992	0.471408	3.29	22.33	14.7	-0.1252	-0.3805	-0.2765	
-0.040016	0.891698	0.470432	4.34	28.7	17.15	-0.1282	-0.3743	-0.2706	
-0.028548	0.891088	0.480558	8.61	31.01	20.44	-0.1223	-0.3836	-0.2735	
-0.026962	0.903166	0.469944	11.62	37.24	24.71	-0.118	-0.3713	-0.2765	
0.002196	0.899628	0.45018	9.45	58.1	28.56	-0.1179	-0.3821	-0.2676	
0.023424	0.92354	0.42517	4.13	85.4	31.5	-0.1135	-0.3837	-0.269	
0.028548	0.920368	0.414678	-1.05	85.89	35.84	-0.1122	-0.3668	-0.278	
0.010492	0.974414	0.363926	-3.36	88.83	40.88	-0.1121	-0.376	-0.2825	
0.005368	0.974902	0.363682	-11.62	98.28	45.29	-0.0902	-0.3717	-0.2869	
0.029158	0.94855	0.353556	-17.78	103.25	51.8	-0.096	-0.3778	-0.2884	
0.050508	0.965264	0.324398	-18.27	107.45	51.38	-0.0888	-0.3686	-0.3003	
-0.003416	1.012722	0.29585	-24.5	110.74	51.87	-0.0903	-0.3639	-0.2973	
0.010126	1.012722	0.304878	7.98	111.86	53.76	-0.0786	-0.3641	-0.3137	
0.02135	0.99247	0.355874	-30.24	164.08	47.74	-0.0728	-0.3626	-0.3137	
0.051118	1.024922	0.303048	-32.62	175.28	52.71	-0.0553	-0.3536	-0.3091	
-0.00915	1.011136	0.233264	-54.32	171.5	57.54	-0.0465	-0.3506	-0.3255	
-0.058072	1.019066	0.216672	-42.21	147.49	64.47	-0.0261	-0.3462	-0.3284	
-0.006344	0.98881	0.32208	-44.31	140.42	70.14	-0.0146	-0.3278	-0.3284	
-0.026718	0.992226	0.28609	-52.78	147.56	77.77	-0.0088	-0.3248	-0.3418	
-0.008905999	1.00101	0.255346	-45.36	138.6	84	-0.0015	-0.3156	-0.3373	
0.010858	0.996374	0.265472	-40.04	140.28	84.14	0.0057	-0.3157	-0.3418	
-0.02501	0.989298	0.279014	-51.8	161.42	88.69	0.0114	-0.305	-0.3492	
-0.035136	0.976	0.275842	-50.89	160.51	93.87	0.0349	-0.3053	-0.3566	
-0.041114	0.98881	0.311588	-49.14	163.59	97.3	0.0467	-0.3131	-0.3521	
-0.100162	0.980026	0.279868	-51.17	161.35	101.57	0.0479	-0.29	-0.358	
-0.0915	0.997594	0.264496	-46.2	155.47	101.5	0.0581	-0.2855	-0.358	
-0.097966	0.983686	0.28609	-47.39	145.46	108.64	0.0802	-0.2919	-0.352	
-0.041846	0.970388	0.342942	-42.21	146.3	107.59	0.08	-0.2826	-0.355	
-0.077104	0.97966	0.317322	-49.42	147.98	100.8	0.083	-0.2873	-0.3535	
-0.13481	1.005402	0.337818	-47.39	145.81	95.48	0.1005	-0.2798	-0.3594	
-0.197274	0.850706	0.333914	-67.69	155.89	89.88	0.1151	-0.2723	-0.3519	
-0.173606	0.939644	0.391864	-24.92	120.47	85.47	0.1268	-0.2709	-0.3563	
-0.163602	0.932446	0.415776	-35.42	113.05	82.11	0.1356	-0.2725	-0.3473	
-0.109678	0.92659	0.426512	-37.1	118.23	79.66	0.1372	-0.2756	-0.3369	
-0.127124	0.935862	0.450302	-28.21	98.21	69.23	0.1415	-0.271	-0.3533	
-0.158966	0.917074	0.416508	-29.33	90.86	64.05	0.1562	-0.2727	-0.3383	
-0.189954	0.914634	0.434076	-22.96	80.64	58.8	0.1562	-0.2743	-0.3354	
-0.177876	0.89609	0.440908	-26.32	71.4	50.89	0.1695	-0.2806	-0.3353	
-0.178852	0.882182	0.437736	-20.51	61.18	44.52	0.1709	-0.2714	-0.3249	
-0.200202	0.84485	0.459574	-16.73	52.99	39.62	0.1709	-0.2744	-0.3294	
-0.195566	0.850828	0.453352	-14.77	45.29	34.37	0.1841	-0.2777	-0.3234	
-0.19154	0.873154	0.467504	-9.45	34.02	28.35	0.1826	-0.2746	-0.3249	
-0.182146	0.871812	0.469578	-12.46	26.74	22.4	0.1855	-0.27	-0.3189	
-0.163724	0.878766	0.484462	-7.77	17.99	16.66	0.1768	-0.2745	-0.3323	
-0.178974	0.850462	0.496662	-7.7	10.43	11.48	0.1871	-0.2839	-0.3234	
-0.140666	0.832406	0.504836	-8.33	3.85	6.93	0.1754	-0.276	-0.3114	
-0.133346	0.822402	0.504958	-7.7	-2.8	3.29	0.1798	-0.2807	-0.3278	
-0.128344	0.813496	0.520818	-5.88	-9.66	-0.7	0.1841	-0.2731	-0.3293	
-0.097356	0.82045	0.528382	-5.25	-14.56	-3.22	0.1738	-0.2729	-0.3264	
-0.08235	0.828868	0.557906	-3.15	-18.41	-6.23	0.1708	-0.2683	-0.3308	
-0.061976	0.829966	0.57035	-0.07	-19.6	-9.59	0.1767	-0.2652	-0.3264	
-0.071614	0.836554	0.55632	2.52	-20.72	-13.3	0.187	-0.27	-0.3263	
-0.086986	0.837286	0.559492	4.48	-22.47	-17.15	0.1767	-0.2668	-0.3338	
-0.078324	0.820572	0.557784	8.26	-24.78	-22.82	0.1752	-0.2699	-0.3308	
-0.101016	0.824964	0.537288	10.78	-28.84	-25.97	0.1677	-0.2543	-0.3264	
-0.116632	0.842044	0.51484	15.19	-33.67	-31.36	0.1723	-0.2729	-0.3308	
-0.130418	0.871568	0.496784	18.83	-38.57	-36.33	0.1738	-0.2714	-0.3383	
-0.203862	0.88267	0.479338	16.24	-47.32	-35.07	0.1811	-0.2684	-0.3368	
-0.120658	0.90097	0.484096	21.28	-49.56	-40.46	0.1738	-0.2745	-0.3338	
-0.156892	0.888892	0.434198	15.26	-55.72	-47.6	0.1679	-0.2729	-0.3368	
-0.156892	0.915244	0.452132	18.9	-63.35	-53.55	0.1532	-0.2681	-0.3428	
-0.145912	0.92537	0.450302	23.52	-74.34	-58.59	0.1503	-0.2742	-0.3503	
-0.122488	0.92598	0.420656	28.07	-81.2	-61.95	0.14	-0.2725	-0.3458	
-0.154818	0.91622	0.380274	22.33	-89.46	-64.75	0.14	-0.271	-0.3533	
-0.147986	0.913292	0.378322	26.88	-104.58	-69.37	0.1414	-0.2618	-0.3563	
-0.127002	0.924882	0.358192	30.31	-116.83	-74.97	0.1399	-0.2571	-0.3458	
-0.100528	0.934642	0.365634	31.08	-125.44	-76.3	0.1281	-0.2601	-0.3623	
-0.074664	0.945622	0.372832	39.9	-131.81	-77.77	0.1122	-0.2753	-0.3564	
-0.064294	0.967094	0.360754	47.53	-140.7	-80.92	0.0931	-0.2705	-0.3653	
-0.037454	0.964044	0.330864	42.07	-134.19	-77.63	0.0829	-0.2734	-0.352	
-0.054656	0.960018	0.310612	36.89	-135.24	-74.97	0.0712	-0.2825	-0.3609	
-0.07124799	0.976244	0.332328	46.13	-142.38	-77	0.0537	-0.287	-0.3655	
-0.00183	0.983198	0.318542	50.89	-146.72	-76.72	0.0465	-0.2977	-0.364	
0.029402	1.003084	0.310002	41.65	-145.88	-75.46	0.0274	-0.2913	-0.3506	
-0.002684	0.981246	0.304756	38.85	-140.56	-78.96	0.0274	-0.2975	-0.3611	
-0.015738	0.99796	0.303292	42.84	-138.74	-81.69	0.0129	-0.3096	-0.3566	
0.003538	1.036146	0.298046	49.42	-145.04	-83.51	0.0071	-0.3157	-0.3462	
0.011102	1.03883	0.28609	38.85	-146.44	-80.08	-0.0045	-0.3125	-0.3507	
-0.00122	1.028704	0.292312	32.55	-146.51	-77	-0.006	-0.3156	-0.3477	
0.00854	1.046882	0.300364	31.29	-149.59	-77	-0.0293	-0.323	-0.3344	
0.05185	1.016992	0.312686	23.17	-150.5	-76.93	-0.041	-0.3229	-0.3374	
0.02684	1.00894	0.352702	16.94	-150.01	-75.39	-0.0483	-0.3305	-0.3359	
0.03782	0.99918	0.358436	21.49	-148.47	-76.37	-0.0674	-0.3256	-0.327	
0.06161	1.005402	0.3599	22.4	-134.61	-73.71	-0.0614	-0.3365	-0.33	
0.036234	1.000888	0.368318	21.98	-128.87	-70.14	-0.0731	-0.3379	-0.3196	
0.07564	0.924638	0.352824	13.58	-123.48	-64.75	-0.09339999	-0.3531	-0.3182	
0.051606	0.93513	0.379664	21.91	-125.93	-63	-0.0905	-0.3547	-0.3167	
0.041846	0.901336	0.407114	19.53	-118.3	-61.95	-0.0963	-0.3562	-0.3122	
0.145912	0.862296	0.43188	20.44	-114.38	-57.75	-0.102	-0.3638	-0.2914	
0.102968	0.913048	0.453596	23.94	-79.03	-55.23	-0.1035	-0.3623	-0.3033	
0.038308	0.874008	0.388692	-1.68	-49.91	-59.22	-0.1049	-0.3622	-0.2839	
-0.046604	0.893894	0.411628	11.2	-74.55	-43.26	-0.1005	-0.3654	-0.2839	
-0.003172	0.878034	0.433832	12.18	-79.73	-34.09	-0.1166	-0.3698	-0.2839	
0.019642	0.884622	0.435296	6.86	-55.58	-29.47	-0.1005	-0.3684	-0.2809	
-0.03965	0.903776	0.420168	7.35	-44.87	-29.4	-0.1193	-0.3852	-0.281	
-0.049776	0.883524	0.423218	3.43	-48.93	-22.4	-0.1121	-0.3807	-0.281	
-0.049898	0.878766	0.433222	2.38	-44.87	-17.92	-0.1223	-0.3836	-0.2765	
-0.064416	0.903532	0.443714	5.81	-31.85	-16.87	-0.112	-0.3822	-0.2735	
-0.099552	0.926834	0.412848	0	-25.76	-12.53	-0.1194	-0.3775	-0.2705	
-0.089548	0.900726	0.403576	-0.77	-23.94	-7.98	-0.1192	-0.3914	-0.275	
-0.099918	0.918416	0.413824	2.24	-18.13	-7.77	-0.1252	-0.3789	-0.2706	
-0.095648	0.909876	0.41419	0.49	-13.58	-7.14	-0.1207	-0.3944	-0.2676	
-0.099796	0.904386	0.411872	-0.84	-9.66	-4.9	-0.1208	-0.3883	-0.2765	
-0.105774	0.903654	0.404674	1.26	-6.44	-3.43	-0.1296	-0.382	-0.2661	
-0.10858	0.882548	0.39955	-0.28	-0.84	-1.26	-0.1281	-0.382	-0.2586	
-0.118462	0.90341	0.382226	-0.42	1.05	0.42	-0.1238	-0.3759	-0.2765	
-0.122488	0.899506	0.38491	-2.38	3.08	3.01	-0.1237	-0.3851	-0.2616	
-0.120414	0.908046	0.384544	-4.06	5.11	5.18	-0.1208	-0.3821	-0.2616	
-0.126758	0.89975	0.40382	-3.01	6.09	6.23	-0.1222	-0.3883	-0.272	
-0.109068	0.89243	0.413092	-2.31	8.89	7.84	-0.1326	-0.3804	-0.2706	
-0.111386	0.90463	0.402966	-3.08	9.52	9.52	-0.1252	-0.3789	-0.2691	
-0.114192	0.906216	0.411262	-0.7	8.54	10.85	-0.1208	-0.3852	-0.2706	
-0.106018	0.915854	0.395036	-3.57	13.02	12.11	-0.1208	-0.3806	-0.2765	
-0.100894	0.912194	0.417728	-0.63	14.28	14.14	-0.1325	-0.3866	-0.2691	
-0.069662	0.887184	0.428708	-6.16	24.71	16.73	-0.1282	-0.382	-0.278	
-0.058316	0.92842	0.405528	1.26	23.8	19.53	-0.1208	-0.3821	-0.2676	
-0.060756	0.910364	0.403942	-2.8	35.98	23.52	-0.1208	-0.3805	-0.2691	
-0.04514	0.89853	0.41846	1.4	45.64	23.45	-0.1283	-0.3727	-0.2765	
-0.05795	0.909144	0.41358	-10.57	58.73	27.09	-0.1194	-0.3775	-0.2661	
-0.042456	0.92049	0.410652	-1.4	50.54	27.37	-0.1151	-0.3713	-0.2735	
-0.00671	0.906704	0.409676	-11.76	60.9	32.34	-0.121	-0.3697	-0.2855	
0.002806	0.905972	0.347456	-15.26	67.41	34.02	-0.1167	-0.3621	-0.2899	
-0.046482	0.941352	0.337574	-18.76	74.62	38.15	-0.1137	-0.3683	-0.2914	
-0.088084	0.943426	0.40321	-15.33	80.85	41.58	-0.1021	-0.3545	-0.2869	
-0.066978	0.94916	0.40931	-15.47	84.49	43.61	-0.1124	-0.356	-0.3018	
-0.042578	0.952088	0.389424	-21.28	88.34	46.34	-0.1021	-0.3545	-0.3003	
-0.04331	0.941718	0.351482	-28.07	88.55	45.29	-0.0964	-0.3484	-0.3137	
-0.05917	0.94489	0.340258	-33.46	87.5	45.64	-0.0891	-0.3501	-0.3256	
-0.044042	0.912194	0.360388	-38.57	89.88	46.9	-0.0818	-0.3424	-0.3107	
-0.056608	0.912804	0.377346	-36.61	93.94	47.11	-0.0819	-0.3301	-0.3196	
-0.028182	0.9333	0.353678	-22.54	107.38	48.09	-0.0718	-0.3287	-0.3435	
-0.05612	0.909022	0.370148	-37.8	117.95	50.54	-0.0588	-0.3134	-0.3479	
-0.080764	0.93635	0.378932	-31.92	108.64	56.07	-0.0572	-0.3165	-0.3464	
-0.099674	0.940864	0.401502	-38.22	95.97	63.91	-0.0485	-0.3104	-0.3538	
-0.038308	0.92354	0.36966	-37.45	77.7	62.58	-0.0515	-0.3073	-0.3523	
-0.060878	0.953552	0.34404	-37.73	72.87	68.81	-0.0413	-0.3013	-0.3627	
-0.09638	0.92842	0.374906	-38.92	75.11	70.56	-0.0327	-0.2844	-0.3642	
-0.128832	0.894992	0.428708	-32.83	80.64	71.68	-0.0357	-0.2875	-0.3776	
-0.109434	0.890844	0.449082	-31.08	76.37	68.53	-0.021	-0.2876	-0.3761	
-0.080032	0.909266	0.45567	-21.84	60.83	66.43	-0.0269	-0.2845	-0.3791	
-0.037088	0.938668	0.432978	-23.1	60.76	66.29	-0.0269	-0.2798	-0.3716	
-0.029646	0.94367	0.371978	-39.62	64.54	63.14	-0.0241	-0.2737	-0.3761	
-0.10065	0.935618	0.311954	-31.08	55.09	57.75	-0.0213	-0.2645	-0.391	
-0.137128	0.964898	0.468724	-11.76	44.45	54.04	-0.0125	-0.263	-0.3895	
-0.116266	0.95465	0.488732	-25.83	49.98	46.62	-0.0096	-0.2584	-0.385	
-0.094916	0.946842	0.46543	-31.22	45.15	37.24	-0.0083	-0.2492	-0.3865	
-0.116632	0.930738	0.448472	-46.41	43.12	25.76	-0.0142	-0.2491	-0.3984	
-0.137738	0.941474	0.455792	-43.19	34.3	18.76	-0.0011	-0.2385	-0.3969	
-0.146522	0.971608	0.481412	-29.54	22.61	12.53	0.0003	-0.2431	-0.3909	
-0.179828	0.899994	0.513986	-24.64	15.75	6.37	0.0048	-0.2493	-0.3984	
-0.15555	0.863394	0.526064	-21.7	12.18	-1.05	0.0089	-0.22	-0.3894	
-0.124196	0.851682	0.53497	-15.82	6.65	-10.71	0.0002	-0.2339	-0.4058	
-0.110532	0.846314	0.54473	-10.5	1.47	-16.52	0.006	-0.2262	-0.4043	
-0.081618	0.811422	0.573034	-5.81	-5.74	-19.11	0.0119	-0.2309	-0.4058	
-0.084302	0.77958	0.57828	-3.71	-10.57	-18.76	0.0133	-0.2278	-0.4073	
-0.080154	0.779092	0.585966	-4.27	-12.53	-18.2	0.0089	-0.2278	-0.4013	
-0.089914	0.790072	0.584624	-3.92	-16.1	-17.85	0.006	-0.2247	-0.4058	
-0.115168	0.796294	0.58316	-0.21	-20.65	-16.59	-0.0014	-0.2168	-0.4103	
-0.110776	0.804834	0.589138	8.54	-26.81	-18.48	0.0046	-0.2308	-0.4028	
-0.097234	0.795928	0.594628	10.99	-26.6	-19.04	0.0059	-0.22	-0.3954	
-0.090036	0.81313	0.586332	14	-26.95	-19.04	0.0045	-0.2277	-0.4043	
-0.085034	0.818254	0.574254	12.81	-30.17	-20.86	-0.0056	-0.2276	-0.4058	
-0.065392	0.843996	0.54839	11.34	-32.48	-25.9	-0.0071	-0.2291	-0.3999	
-0.073322	0.862662	0.616222	18.76	-32.2	-27.44	-0.0142	-0.2414	-0.3939	
-0.078934	0.836798	0.61	14.42	-27.3	-27.86	-0.0042	-0.2292	-0.4058	
-0.049776	0.76677	0.58987	1.61	-24.01	-25.69	-0.0143	-0.2398	-0.3984	
-0.052338	0.774578	0.608048	14.28	-29.19	-22.33	-0.0187	-0.2398	-0.4029	
-0.07564	0.796782	0.566446	35.35	-38.5	-15.47	-0.0334	-0.2334	-0.3955	
-0.02623	0.801174	0.558394	35	-41.3	-9.94	-0.0346	-0.2535	-0.3985	
0.02257	0.815448	0.537532	12.25	-29.26	-10.64	-0.0317	-0.2551	-0.3895	
-0.006466	0.833382	0.552782	5.32	-26.46	-10.15	-0.0317	-0.2535	-0.391	
-0.001952	0.821182	0.596824	4.69	-23.52	-8.68	-0.0377	-0.2457	-0.394	
0.010736	0.811422	0.584868	0.56	-16.8	-7.98	-0.0273	-0.2551	-0.3955	
0.031232	0.80825	0.581452	-7.07	-8.82	-6.16	-0.0317	-0.2504	-0.3925	
0.019276	0.812642	0.601948	-12.25	-0.35	-2.8	-0.0303	-0.2489	-0.3895	
0.015982	0.802638	0.6161	-11.69	3.43	2.03	-0.0376	-0.2473	-0.391	
0.01952	0.798612	0.598044	-14.14	6.79	5.67	-0.042	-0.2519	-0.3866	
0.023912	0.802882	0.59109	-17.71	10.99	9.59	-0.0435	-0.2441	-0.388	
0.009516	0.798246	0.591334	-17.29	12.74	11.97	-0.0422	-0.2349	-0.3895	
0.00671	0.78446	0.616588	-12.74	14.49	13.3	-0.0362	-0.2442	-0.3955	
0.014518	0.78019	0.62464	-8.68	14.56	13.86	-0.0348	-0.2381	-0.3925	
0.017934	0.773236	0.633424	-6.51	14.14	13.79	-0.0274	-0.2428	-0.3984	
0.014762	0.77592	0.626104	-4.41	13.02	12.81	-0.0275	-0.2366	-0.3984	
0.00183	0.773846	0.629276	-0.77	15.12	12.81	-0.0217	-0.2305	-0.3925	
0.005856	0.755302	0.621834	-3.99	15.26	13.93	-0.0362	-0.2411	-0.397	
0.002562	0.76372	0.618784	-1.75	16.87	16.87	-0.0275	-0.2351	-0.3984	
-0.00122	0.767868	0.601216	-4.06	17.08	20.93	-0.0174	-0.2228	-0.3984	
0.052094	0.76494	0.56791	2.87	21.98	17.99	-0.026	-0.2397	-0.4014	
-0.026108	0.830454	0.55327	4.41	19.67	23.8	-0.0231	-0.2351	-0.3954	
-0.003416	0.894016	0.511424	0	16.59	30.17	-0.0231	-0.2367	-0.3999	
-0.03355	0.889746	0.464088	-15.4	26.04	26.18	-0.0247	-0.2289	-0.3969	
-0.074908	0.877058	0.49532	-19.53	25.9	30.94	-0.0173	-0.2336	-0.3999	
-0.088694	0.84485	0.548512	-7.98	21.56	30.03	-0.0189	-0.2244	-0.4059	
-0.046604	0.86071	0.572058	-0.77	20.37	26.67	-0.0336	-0.2195	-0.4014	
-0.037088	0.850706	0.532408	-9.03	22.4	25.9	-0.0204	-0.2212	-0.3999	
-0.051972	0.835456	0.533384	-15.05	25.27	28.56	-0.0262	-0.2258	-0.4148	
-0.04636	0.815326	0.5551	-18.34	19.95	30.59	-0.0116	-0.2167	-0.3984	
-0.045628	0.785924	0.604022	-13.02	15.61	30.38	-0.0203	-0.229	-0.3984	
-0.024766	0.779092	0.607682	-12.18	14.35	29.68	-0.0189	-0.2228	-0.4074	
-0.01586	0.789462	0.604876	-11.97	14.21	29.12	-0.0058	-0.2168	-0.4133	
-0.019032	0.800686	0.589504	-9.87	13.51	28.07	-0.0102	-0.2152	-0.4028	
-0.010614	0.80947	0.591944	-7	10.71	26.32	-0.0073	-0.2075	-0.4058	
-0.012078	0.820694	0.602314	-7.84	10.15	24.36	-0.019	-0.2135	-0.4073	
-0.011102	0.821426	0.60512	-7.91	9.24	22.75	-0.0235	-0.2042	-0.4133	
-0.004392	0.812398	0.60451	-9.45	9.31	20.37	-0.0118	-0.2044	-0.4163	
0	0.801418	0.605242	-12.18	8.82	18.06	-0.0147	-0.2043	-0.4193	
0.006588	0.78507	0.60329	-10.22	6.02	16.87	-0.0176	-0.2043	-0.4088	
0.00488	0.778238	0.60878	-7.56	2.73	15.96	-0.0176	-0.2074	-0.4073	
0.014518	0.77714	0.621834	-5.25	-0.77	14.91	-0.0118	-0.2028	-0.4163	
0.044774	0.771284	0.61244	-3.71	-3.85	13.79	-0.0177	-0.2028	-0.4133	
0.048678	0.767014	0.62586	-4.27	-4.34	13.93	-0.0207	-0.1965	-0.4193	
0.059658	0.764696	0.615002	-4.06	-4.41	13.16	-0.0133	-0.1997	-0.4207	
0.072712	0.76921	0.629032	-2.1	-6.02	13.65	-0.0192	-0.1997	-0.4208	
0.080886	0.774578	0.630008	-3.08	-5.67	13.3	-0.0178	-0.1904	-0.4163	
0.078202	0.77104	0.632692	-3.78	-5.18	13.16	-0.0251	-0.198	-0.4193	
0.094428	0.763476	0.64538	-2.87	-4.2	12.88	-0.0235	-0.2058	-0.4133	
0.105042	0.769332	0.636962	-0.35	-4.2	13.16	-0.0235	-0.2042	-0.4163	
0.106262	0.762622	0.647454	1.4	-3.99	13.58	-0.0264	-0.2104	-0.4118	
0.134322	0.766038	0.646356	0.35	-1.4	14	-0.0353	-0.201	-0.4133	
0.131394	0.768356	0.652334	-1.54	1.61	15.4	-0.022	-0.2042	-0.4073	
0.138226	0.761402	0.64965	-4.2	5.53	16.8	-0.0324	-0.1979	-0.4178	
0.140056	0.762866	0.644648	-7.56	8.54	18.06	-0.0337	-0.2072	-0.4089	
0.125416	0.764818	0.643306	-9.31	9.94	18.41	-0.0369	-0.1902	-0.4193	
0.112972	0.762744	0.648186	-6.93	9.03	18.34	-0.0281	-0.1887	-0.4208	
0.11102	0.753716	0.64355	-5.39	8.89	16.94	-0.0369	-0.1886	-0.4193	
0.110044	0.750544	0.641598	-7.84	8.47	16.17	-0.0368	-0.1963	-0.4193	
0.104066	0.74542	0.643794	-7.49	7.84	15.19	-0.0282	-0.1841	-0.4223	
0.116998	0.735782	0.65148	-7	5.88	14.77	-0.0295	-0.1964	-0.4252	
0.124318	0.732732	0.65514	-6.72	4.83	14.56	-0.028	-0.1934	-0.4178	
0.125416	0.724802	0.6527	-8.12	3.99	14.56	-0.031	-0.1933	-0.4282	
0.122122	0.720532	0.659044	-5.18	1.61	14.28	-0.0296	-0.1887	-0.4193	
0.137128	0.718214	0.659288	-3.85	0.56	14.7	-0.0325	-0.1871	-0.4163	
0.141398	0.718946	0.650626	-5.6	0.56	14.91	-0.031	-0.1902	-0.4178	
0.13786	0.720166	0.65697	-4.55	-0.63	15.54	-0.0355	-0.1856	-0.4282	
0.132492	0.726388	0.677954	3.36	-2.73	15.96	-0.0341	-0.1794	-0.4252	
0.156282	0.727486	0.663924	4.62	-1.89	15.19	-0.0325	-0.1887	-0.4148	
0.168848	0.741516	0.649772	2.8	-2.52	15.61	-0.0369	-0.1855	-0.4223	
0.16592	0.740296	0.64721	-0.14	-1.26	15.47	-0.0384	-0.1871	-0.4238	






0.197274	0.71797	0.661972	-7.98	4.9	8.68	-0.0459	-0.1746	-0.4327	
0.183366	0.715408	0.673562	-7.91	5.18	7.35	-0.037	-0.1794	-0.4327	
0.180682	0.704794	0.674782	-7.28	3.85	6.86	-0.0387	-0.1654	-0.4282	
0.190564	0.70211	0.688812	-4.76	2.8	7.35	-0.0429	-0.1747	-0.4282	
0.1891	0.700524	0.683322	-6.16	3.99	6.86	-0.0431	-0.1654	-0.4327	
0.18361	0.701744	0.674538	-7.28	4.2	7.21	-0.0459	-0.17	-0.4297	
0.192028	0.70516	0.672952	-8.61	3.5	6.93	-0.0416	-0.1654	-0.4297	
0.17751	0.703574	0.680882	-7.28	2.8	6.65	-0.0445	-0.17	-0.4297	
0.186904	0.693204	0.69601	-6.79	1.96	6.23	-0.0386	-0.1716	-0.4267	
0.178974	0.686372	0.682712	-6.3	1.82	6.37	-0.0327	-0.1701	-0.4222	
0.190198	0.698938	0.691252	-1.89	-0.14	5.95	-0.0284	-0.1609	-0.4297	
0.200324	0.702476	0.707844	-0.49	-0.28	5.53	-0.0373	-0.1593	-0.4312	
0.196664	0.686616	0.69357	-5.39	3.71	4.55	-0.0329	-0.1609	-0.4357	
0.196176	0.683688	0.681858	-5.39	4.06	3.99	-0.0417	-0.1608	-0.4372	
0.19947	0.68991	0.69418	-3.57	2.45	3.71	-0.0372	-0.1701	-0.4357	
0.196542	0.681858	0.70394	-4.48	1.75	2.8	-0.0416	-0.167	-0.4402	
0.198982	0.67466	0.698938	-3.57	1.96	2.87	-0.0373	-0.1608	-0.4327	
0.21472	0.666608	0.699548	-4.27	3.08	3.78	-0.043	-0.1685	-0.4342	
0.23607	0.661484	0.692838	-7	5.74	5.46	-0.0388	-0.1562	-0.4372	
0.174094	0.690886	0.70272	-7.7	4.62	5.95	-0.0328	-0.164	-0.4357	
0.20313	0.694424	0.69174	-8.26	4.34	6.37	-0.0461	-0.1545	-0.4357	
0.198128	0.691496	0.70333	-9.52	4.2	5.6	-0.0374	-0.1516	-0.4342	
0.186782	0.66856	0.716018	-7.84	4.97	4.55	-0.0344	-0.1516	-0.4207	
0.178486	0.652944	0.708088	-7.63	5.95	5.25	-0.0285	-0.1563	-0.4327	
0.206668	0.673806	0.703086	-5.95	4.55	6.44	-0.0344	-0.1562	-0.4416	
0.176412	0.683688	0.704672	-7.56	3.43	6.65	-0.0432	-0.1515	-0.4282	
0.182878	0.671	0.702964	-6.86	2.24	4.97	-0.0359	-0.1516	-0.4297	
0.16592	0.663802	0.709674	-6.72	0.77	2.94	-0.036	-0.1454	-0.4431	
0.182512	0.661972	0.716262	-1.33	-1.96	1.33	-0.036	-0.1454	-0.4401	
0.191296	0.66307	0.71675	-1.12	-2.38	0	-0.0522	-0.1375	-0.4357	
0.193492	0.661118	0.713822	-0.98	-3.01	-1.47	-0.0286	-0.1517	-0.4371	
0.19642	0.656848	0.71431	0.56	-3.36	-2.17	-0.0402	-0.1562	-0.4372	
0.196908	0.655872	0.703452	-1.47	-3.85	-2.1	-0.0286	-0.1532	-0.4401	
0.203862	0.66307	0.71675	-0.07	-4.62	-2.24	-0.0286	-0.1455	-0.4341	
0.205814	0.6588	0.711626	0.56	-4.2	-2.87	-0.0389	-0.1469	-0.4327	
0.215452	0.662216	0.722484	1.54	-5.67	-3.08	-0.0388	-0.1531	-0.4401	
0.22204	0.660264	0.727974	0.7	-4.69	-2.73	-0.0389	-0.1407	-0.4312	
0.21899	0.653188	0.72102	-0.35	-2.24	-1.82	-0.049	-0.1561	-0.4312	
0.212768	0.64782	0.722728	-1.54	-0.77	-0.91	-0.0389	-0.1485	-0.4386	
0.206668	0.646966	0.720166	-1.82	0.14	0.56	-0.0404	-0.1423	-0.4282	
0.206912	0.657702	0.716018	-1.54	0.07	1.26	-0.0418	-0.1531	-0.4387	
0.202032	0.662826	0.714676	-1.12	0.07	0.77	-0.0345	-0.1501	-0.4357	
0.20313	0.664656	0.711626	-1.47	-0.14	-0.14	-0.0374	-0.1469	-0.4386	
0.202642	0.655506	0.716994	-1.05	-0.56	-0.21	-0.0433	-0.1422	-0.4372	
0.205692	0.656726	0.71675	-0.98	0.14	0.7	-0.0346	-0.1392	-0.4356	
0.206302	0.65941	0.718214	-2.38	0.14	1.19	-0.0432	-0.1515	-0.4357	
0.20069	0.662338	0.72285	-0.77	-0.35	0.84	-0.0389	-0.1469	-0.4357	
0.204716	0.660752	0.71858	0.35	-0.28	0.07	-0.0359	-0.1547	-0.4342	
0.206424	0.660386	0.718092	-0.98	-0.21	-1.4	-0.0404	-0.1423	-0.4416	
0.200446	0.643794	0.717604	-3.36	0.35	-1.4	-0.0271	-0.1517	-0.4371	
0.202276	0.645746	0.71797	-2.45	0.21	-1.05	-0.0433	-0.1469	-0.4327	
0.204106	0.650748	0.718702	-2.17	-1.05	-0.49	-0.0375	-0.1408	-0.4371	
0.203618	0.662216	0.72041	0.49	-2.31	-0.77	-0.0447	-0.1484	-0.4402	
0.198738	0.657824	0.71492	1.47	-1.47	-1.05	-0.0419	-0.1361	-0.4386	
0.193126	0.654652	0.725534	2.45	-1.89	-2.73	-0.0419	-0.1422	-0.4342	
0.191052	0.664656	0.717238	2.17	-1.75	-2.94	-0.0374	-0.1531	-0.4387	
0.192516	0.670512	0.708454	1.96	-2.1	-3.15	-0.0418	-0.1484	-0.4327	
0.200568	0.658556	0.713822	-0.35	-2.17	-3.36	-0.0359	-0.15	-0.4312	
0.202154	0.650748	0.719312	-1.68	-1.61	-2.52	-0.0476	-0.153	-0.4417	
0.206302	0.654286	0.714066	1.12	-2.17	-2.1	-0.0476	-0.153	-0.4417	
0.21899	0.659654	0.726266	4.55	-3.64	-1.61	-0.0403	-0.1484	-0.4327	
0.218746	0.65087	0.718214	0.28	-0.98	-1.12	-0.0403	-0.1484	-0.4387	
0.209718	0.655872	0.716018	-1.33	0.07	-1.26	-0.0388	-0.1515	-0.4327	
0.209474	0.658312	0.720166	-1.68	-0.21	-1.54	-0.0505	-0.1514	-0.4297	
0.203984	0.64965	0.72285	0.21	-0.28	-1.12	-0.0388	-0.1516	-0.4401	
0.203252	0.653188	0.712236	-4.2	1.12	0.42	-0.0314	-0.1578	-0.4297	
0.198372	0.65819	0.707844	-3.36	0.56	1.4	-0.0448	-0.1453	-0.4312	
0.202276	0.65148	0.719312	-0.49	-0.63	1.19	-0.0507	-0.1391	-0.4417	
0.21289	0.6527	0.714066	-0.42	-0.56	1.12	-0.0418	-0.1453	-0.4372	
0.205448	0.656848	0.717116	-4.9	0.42	1.19	-0.0404	-0.1423	-0.4342	
0.20069	0.657458	0.722484	-2.8	0.14	1.54	-0.0419	-0.1376	-0.4357	
0.2013	0.659654	0.722728	-1.89	-0.49	1.54	-0.0478	-0.1391	-0.4402	
0.204472	0.664656	0.725168	-0.49	-0.77	0.77	-0.0448	-0.1391	-0.4372	
0.205326	0.658434	0.716628	0.63	-0.91	-0.35	-0.0419	-0.1422	-0.4446	
0.209962	0.652944	0.71614	-1.47	-0.14	-0.7	-0.0375	-0.1438	-0.4386	
0.211914	0.655872	0.716262	-2.1	0	-0.63	-0.0433	-0.1484	-0.4446	
0.209962	0.65819	0.720898	-0.98	-0.42	-0.49	-0.0345	-0.1454	-0.4371	
0.208132	0.654286	0.72102	-1.4	0.7	-0.77	-0.0405	-0.1361	-0.4386	
0.209108	0.65697	0.724558	-1.61	0.63	-0.56	-0.0404	-0.1407	-0.4401	
0.2074	0.651846	0.72407	-1.4	1.33	-0.91	-0.0434	-0.1391	-0.4401	
0.19886	0.658434	0.717726	-2.03	1.26	-1.47	-0.0332	-0.1346	-0.4386	
0.201056	0.664168	0.725168	-0.21	0.35	-1.75	-0.0405	-0.1392	-0.4401	
0.201788	0.652456	0.72651	-0.28	0.7	-2.45	-0.0477	-0.1406	-0.4327	
0.19764	0.640866	0.726998	-0.7	0.63	-2.8	-0.0346	-0.1423	-0.4401	
0.199592	0.639402	0.728828	-0.56	0.35	-2.45	-0.0435	-0.1314	-0.4386	
0.197152	0.642818	0.728828	-1.68	0.77	-1.47	-0.0448	-0.1437	-0.4342	
0.194712	0.645746	0.723704	-1.82	1.19	-0.98	-0.0331	-0.1439	-0.4431	
0.195688	0.651968	0.714676	-2.17	1.05	-0.7	-0.0375	-0.1438	-0.4357	
0.192882	0.65331	0.716628	-2.94	0.35	-1.19	-0.0419	-0.1376	-0.4372	
0.18788	0.648308	0.721142	-2.24	-0.14	-2.17	-0.0419	-0.1422	-0.4357	
0.193004	0.646234	0.726022	-2.38	-1.05	-2.45	-0.0374	-0.1454	-0.4386	
0.191906	0.64721	0.7259	-2.94	-0.98	-2.45	-0.042	-0.1345	-0.4386	
0.193858	0.652456	0.732976	-1.12	-1.68	-2.45	-0.0419	-0.1361	-0.4357	
0.196664	0.653554	0.73139	-0.84	-2.17	-2.66	-0.036	-0.1408	-0.4431	
0.203008	0.658556	0.72468	-1.47	-0.7	-2.94	-0.0376	-0.133	-0.4356	
0.199348	0.652578	0.731634	-0.42	-0.42	-3.29	-0.0404	-0.1392	-0.4386	
0.191662	0.640378	0.730902	2.87	0.07	-4.06	-0.0434	-0.136	-0.4416	
0.20069	0.644892	0.731268	2.03	0.28	-3.71	-0.0331	-0.1393	-0.4356	
0.200446	0.644282	0.725778	0.07	0.98	-2.52	-0.0375	-0.1454	-0.4416	
0.191784	0.642086	0.72651	-0.77	1.54	-1.4	-0.0391	-0.1315	-0.4371	
0.1891	0.645258	0.728706	-0.56	1.68	-0.91	-0.0478	-0.1344	-0.4357	
0.18361	0.64904	0.726632	-0.07	1.89	-0.77	-0.0404	-0.1376	-0.4312	
0.183366	0.651724	0.721142	-0.07	2.17	-0.84	-0.0418	-0.1438	-0.4342	
0.1769	0.650626	0.722728	0.07	1.33	-1.12	-0.0375	-0.1407	-0.4312	
0.17507	0.644526	0.72651	1.26	0.56	-1.33	-0.0316	-0.1393	-0.4371	
0.176534	0.647698	0.722362	1.26	0.42	-1.19	-0.039	-0.1407	-0.4342	
0.177388	0.658556	0.721264	0.07	-0.28	-0.7	-0.0375	-0.1408	-0.4401	
0.180804	0.663314	0.718458	0.63	-0.77	-0.98	-0.0361	-0.1315	-0.4371	
0.18605	0.658678	0.71675	0.42	-1.54	-1.75	-0.0331	-0.1408	-0.4267	
0.186538	0.659532	0.722728	0.56	-2.03	-2.73	-0.0448	-0.1422	-0.4312	
0.190442	0.6588	0.723826	0.7	-2.38	-3.15	-0.0418	-0.1453	-0.4327	
0.19215	0.64843	0.730414	0.21	-1.54	-2.8	-0.0434	-0.133	-0.4342	
0.192394	0.650138	0.727486	-0.84	-0.7	-2.17	-0.036	-0.1423	-0.4401	
0.193858	0.655506	0.725656	-0.7	-0.63	-1.47	-0.0375	-0.1392	-0.4357	
0.194346	0.657946	0.724558	-1.33	0	-0.91	-0.0288	-0.1347	-0.4356	
0.191784	0.655628	0.727242	-1.4	0.42	-0.56	-0.0403	-0.1484	-0.4357	
0.18666	0.648918	0.72285	-1.26	1.33	0.07	-0.0375	-0.1407	-0.4342	
0.18483	0.659654	0.726022	0.7	0.91	0.98	-0.039	-0.1361	-0.4401	
0.17629	0.65392	0.72224	-0.49	2.17	1.54	-0.036	-0.1408	-0.4386	
0.165676	0.659166	0.720288	0.14	1.68	1.19	-0.0449	-0.1314	-0.4357	
0.16592	0.660264	0.714066	1.19	0.7	1.19	-0.0346	-0.1362	-0.4416	
0.169214	0.660874	0.719434	2.66	-0.91	0.7	-0.0331	-0.1439	-0.4356	
0.180682	0.655384	0.71431	2.24	-1.19	0.56	-0.0389	-0.1454	-0.4357	
0.188612	0.65941	0.710528	1.26	-1.54	0.35	-0.0374	-0.1469	-0.4386	
0.193614	0.666486	0.717604	0.98	-3.29	0.07	-0.0419	-0.1392	-0.4431	
0.18849	0.65697	0.71309	-0.07	-2.8	-0.63	-0.036	-0.1392	-0.4371	
0.183488	0.658434	0.72041	-1.4	-3.08	-1.68	-0.0405	-0.1345	-0.4371	
0.193858	0.649772	0.729194	-1.33	-3.71	-2.38	-0.0403	-0.1484	-0.4342	
0.193614	0.645014	0.726876	-2.87	-2.17	-1.47	-0.0404	-0.1392	-0.4342	
0.192882	0.649894	0.725656	-2.45	-1.82	0	-0.0419	-0.1376	-0.4386	
0.185318	0.655018	0.718824	-4.34	-1.26	1.19	-0.0405	-0.1376	-0.4401	
0.182634	0.662582	0.711138	-6.16	-0.49	2.17	-0.0464	-0.136	-0.4461	
0.167384	0.660752	0.710528	-6.86	-0.84	2.66	-0.0463	-0.1375	-0.4297	
0.16226	0.658678	0.711992	-4.83	-2.24	2.1	-0.0375	-0.1408	-0.4416	
0.177022	0.662826	0.719922	-3.15	-3.92	2.31	-0.0479	-0.1314	-0.4357	
0.185928	0.66612	0.718702	-5.11	-4.13	3.29	-0.0435	-0.1314	-0.4357	
0.187392	0.663192	0.716384	-8.26	-3.85	3.78	-0.0435	-0.1283	-0.4416	
0.1769	0.654042	0.701622	-12.11	-2.45	4.9	-0.0449	-0.1329	-0.4446	
0.181536	0.65575	0.700402	-10.78	-4.48	5.53	-0.0478	-0.1345	-0.4416	
0.174948	0.652456	0.701744	-8.82	-6.86	5.6	-0.0421	-0.1237	-0.4446	
0.197396	0.665266	0.720166	-5.88	-9.45	4.76	-0.0436	-0.116	-0.4386	
0.210084	0.66551	0.732	-5.6	-9.94	3.01	-0.0612	-0.125	-0.4461	
0.216672	0.648918	0.726022	-8.89	-7.84	2.45	-0.048	-0.119	-0.4431	
0.233386	0.649528	0.74969	-6.3	-10.36	1.82	-0.048	-0.1236	-0.4416	
0.238022	0.641232	0.74359	-6.44	-8.12	0.91	-0.0539	-0.1205	-0.4506	
0.219356	0.6344	0.749568	-8.89	-6.09	-0.07	-0.0582	-0.1235	-0.4417	
0.239852	0.63196	0.737734	-9.24	-5.46	-1.12	-0.0596	-0.1281	-0.4446	
0.24644	0.629154	0.749812	-8.47	-6.02	-2.66	-0.0597	-0.125	-0.4476	
0.244732	0.620736	0.754814	-5.39	-5.25	-3.15	-0.0582	-0.122	-0.4431	
0.251442	0.629154	0.780068	-7.14	-3.71	-3.71	-0.0643	-0.1064	-0.4387	
0.245342	0.617564	0.76921	-10.5	-0.28	-4.34	-0.0613	-0.1096	-0.4387	
0.242902	0.599142	0.760426	-14.28	2.8	-4.97	-0.0657	-0.1142	-0.4402	
0.232654	0.582916	0.755302	-10.15	2.45	-4.9	-0.0629	-0.1034	-0.4431	
0.243756	0.575352	0.756644	-9.66	1.47	-5.32	-0.0584	-0.1065	-0.4431	
0.22082	0.585478	0.775798	-7.56	0.63	-4.13	-0.0599	-0.105	-0.4476	
0.227896	0.5673	0.775798	-7.21	1.96	-4.06	-0.0555	-0.105	-0.4357	
0.222894	0.562054	0.781288	-5.25	3.57	-3.57	-0.0481	-0.1066	-0.4386	
0.212646	0.57035	0.767136	-2.73	3.92	-2.52	-0.054	-0.105	-0.4386	
0.219112	0.565104	0.767868	-4.55	1.12	-2.24	-0.0512	-0.102	-0.4476	
0.218502	0.568764	0.77348	-2.1	-0.49	-2.24	-0.0628	-0.1065	-0.4372	
0.216794	0.557906	0.776042	-5.53	-1.05	-2.03	-0.0585	-0.0988	-0.4416	
0.206424	0.554368	0.770064	-4.69	-0.7	-1.47	-0.0496	-0.1066	-0.4401	
0.207888	0.572302	0.760304	-5.53	-1.82	-0.07	-0.0424	-0.1005	-0.4431	
0.21045	0.57279	0.759206	-6.51	-2.73	0.49	-0.0599	-0.1019	-0.4387	
0.218014	0.571814	0.774822	-4.55	-3.64	0.98	-0.0526	-0.105	-0.4446	
0.222284	0.570106	0.793244	-2.31	-3.57	1.47	-0.0453	-0.09739999	-0.4401	
0.230946	0.574376	0.792634	-0.07	-3.01	1.26	-0.0512	-0.1004	-0.4431	
0.239974	0.582672	0.790926	-0.98	-2.24	1.12	-0.0556	-0.0957	-0.4491	
0.241316	0.589138	0.782752	-1.4	-0.28	0.49	-0.0599	-0.1096	-0.4461	
0.226676	0.575718	0.78873	-2.45	0.91	-0.21	-0.0511	-0.1082	-0.4461	
0.223016	0.564006	0.78934	-0.14	2.59	-0.28	-0.0527	-0.0973	-0.4476	
0.227164	0.570716	0.78263	0.84	2.8	0.21	-0.0571	-0.0942	-0.4476	
0.227408	0.57889	0.78507	1.75	2.8	0.63	-0.057	-0.0988	-0.4386	
0.221552	0.581696	0.77836	0.49	4.06	0.91	-0.0454	-0.09119999	-0.4461	
0.20435	0.582184	0.76738	-1.61	5.39	0.91	-0.0645	-0.091	-0.4551	
0.1952	0.587552	0.766892	0.7	3.85	0.7	-0.06	-0.0957	-0.4521	
0.197152	0.599386	0.76006	2.31	2.52	0	-0.0615	-0.0988	-0.4461	
0.195078	0.597678	0.765916	3.36	0.77	-1.33	-0.057	-0.1065	-0.4431	
0.199958	0.596092	0.762622	4.34	0.21	-2.73	-0.0527	-0.0958	-0.4491	
0.207522	0.594994	0.760182	4.41	-0.42	-3.01	-0.0571	-0.0957	-0.4416	
0.213744	0.593896	0.766648	2.59	-0.42	-2.73	-0.0556	-0.1004	-0.4521	
0.212524	0.587308	0.760182	0.35	0.98	-2.45	-0.0409	-0.1036	-0.4416	
0.215818	0.590602	0.762134	0.28	0.77	-2.24	-0.0525	-0.1143	-0.4476	
0.217282	0.586942	0.765672	0	0.77	-2.52	-0.0555	-0.1019	-0.4431	
0.213866	0.585234	0.764452	-2.24	2.1	-2.38	-0.0511	-0.1051	-0.4401	
0.20984	0.587918	0.768722	-3.71	2.8	-1.75	-0.0526	-0.1051	-0.4491	
0.201056	0.586088	0.768844	-4.34	2.59	-1.19	-0.0629	-0.1018	-0.4431	
0.20496	0.59536	0.781898	-0.98	1.26	-0.84	-0.0541	-0.0989	-0.4506	
0.20313	0.604754	0.776286	-0.35	1.26	-0.84	-0.0512	-0.0973	-0.4506	
0.206424	0.603778	0.785314	1.19	1.96	-1.89	-0.0452	-0.1067	-0.4431	
0.202398	0.591822	0.779702	0.56	3.29	-2.87	-0.0497	-0.0989	-0.4386	
0.19947	0.58804	0.783728	3.01	2.38	-3.29	-0.0468	-0.1005	-0.4461	
0.201422	0.585234	0.780434	4.9	2.73	-3.57	-0.0542	-0.0942	-0.4476	
0.209352	0.584502	0.782508	6.37	3.01	-3.85	-0.057	-0.105	-0.4491	
0.20557	0.578158	0.782264	4.2	4.55	-4.41	-0.0423	-0.1052	-0.452	
0.2013	0.583038	0.78263	5.11	4.9	-4.27	-0.0423	-0.1129	-0.455	
0.205936	0.592554	0.784704	7.91	4.48	-4.06	-0.0423	-0.1052	-0.4446	
0.201544	0.593408	0.78263	9.31	5.67	-4.55	-0.0408	-0.1067	-0.4371	
0.204838	0.58987	0.774944	9.38	6.93	-5.04	-0.0335	-0.1084	-0.4475	
0.19398	0.588528	0.767014	9.87	7.98	-8.19	-0.0439	-0.099	-0.455	
0.178486	0.591212	0.771528	10.29	7.84	-7.84	-0.0394	-0.1021	-0.449	
0.177388	0.605486	0.765428	13.44	6.93	-7.49	-0.0422	-0.1144	-0.4416	
0.17629	0.614636	0.768844	14.84	5.53	-8.19	-0.0348	-0.1192	-0.4461	
0.181536	0.6222	0.759938	13.72	5.88	-9.45	-0.0319	-0.1161	-0.4401	
0.178486	0.629642	0.742614	11.97	6.44	-11.2	-0.0261	-0.1162	-0.4386	
0.17202	0.628178	0.749446	11.9	5.6	-14.07	-0.0318	-0.1269	-0.4267	
0.164944	0.622932	0.75091	14.56	4.34	-16.03	-0.023	-0.127	-0.4446	
0.156526	0.62525	0.745054	15.89	3.64	-16.73	-0.0289	-0.1239	-0.4297	
0.168238	0.651236	0.73505	17.57	2.31	-16.66	-0.0303	-0.1316	-0.4401	
0.157746	0.646112	0.71614	13.86	2.94	-17.08	-0.0215	-0.1348	-0.4431	
0.136884	0.640988	0.718824	13.86	1.19	-17.36	-0.0302	-0.1377	-0.4356	
0.1281	0.648186	0.706624	14.35	-0.49	-18.34	-0.0317	-0.1315	-0.4297	
0.123586	0.666364	0.703208	13.58	-3.01	-18.97	-0.0257	-0.1455	-0.4356	
0.130906	0.6771	0.698816	10.99	-4.34	-19.32	-0.0243	-0.1363	-0.4311	
0.136274	0.666974	0.711504	9.8	-5.6	-19.53	-0.0213	-0.1487	-0.4326	
0.15006	0.653432	0.723216	11.97	-5.53	-18.06	-0.0257	-0.1471	-0.4386	
0.167872	0.66734	0.741516	13.86	-4.62	-14.84	-0.0243	-0.1425	-0.4371	
0.173606	0.686372	0.75701	14	-0.91	-11.55	-0.0314	-0.1563	-0.4312	
0.162382	0.69296	0.76006	11.97	5.95	-9.59	-0.0256	-0.1548	-0.4222	
0.148718	0.700158	0.743346	10.92	12.74	-9.1	-0.0242	-0.1502	-0.4356	
0.101504	0.70394	0.720898	11.97	18.97	-8.47	-0.0094	-0.1627	-0.4326	
0.074908	0.706258	0.697352	12.81	21.91	-7.49	-0.0153	-0.1595	-0.4297	
0.054534	0.71248	0.690398	14.35	21.35	-8.4	-0.0065	-0.1627	-0.4371	
0.027694	0.721142	0.676368	14.63	21.07	-9.8	-0.0019	-0.1721	-0.4237	
0.004148	0.73383	0.676124	16.31	19.95	-11.41	-0.0005	-0.1705	-0.4237	
-0.011834	0.739808	0.658678	14.91	18.2	-13.58	0.0009	-0.1706	-0.4281	
-0.02501	0.738832	0.652334	13.72	14.7	-16.1	0.0037	-0.1644	-0.4281	
-0.024156	0.747494	0.655872	19.6	9.24	-19.46	0.0068	-0.1706	-0.4266	
-0.01769	0.736636	0.657214	17.92	6.65	-22.54	0.0141	-0.1738	-0.4177	
-0.01098	0.743956	0.665632	19.04	5.39	-24.36	0.0112	-0.1722	-0.4192	
-0.00976	0.749812	0.653432	18.34	3.64	-24.71	0.0142	-0.1784	-0.4206	
-0.032574	0.756034	0.642452	17.99	1.05	-25.13	0.0128	-0.1892	-0.4207	
-0.011102	0.746152	0.629276	19.32	-5.81	-25.06	0.0231	-0.1863	-0.4206	
-0.034892	0.753716	0.599386	15.89	-3.71	-28.49	0.0187	-0.1924	-0.4192	
-0.038674	0.771406	0.593896	22.89	-11.83	-30.31	0.0231	-0.1863	-0.4176	
-0.054534	0.782874	0.583282	21.84	-15.54	-31.43	0.0173	-0.1908	-0.4147	
-0.052216	0.787144	0.553636	17.71	-23.73	-30.45	0.0188	-0.1955	-0.4132	
-0.08601	0.791536	0.572058	15.05	-26.04	-31.43	0.0131	-0.2093	-0.4147	
-0.076982	0.796416	0.611342	22.47	-36.54	-32.41	-0.0001	-0.2045	-0.4207	
-0.05429	0.811422	0.63867	27.16	-39.34	-33.67	0.0189	-0.2047	-0.4117	
-0.004026	0.819718	0.639036	27.58	-41.09	-35.21	0.008599999	-0.2046	-0.4102	
0.024888	0.825208	0.622688	22.33	-37.38	-35.49	0.0058	-0.2139	-0.4162	
0.026352	0.817888	0.607804	20.3	-34.72	-35.21	0.0043	-0.2092	-0.4043	
0.008296	0.806298	0.596458	21.14	-34.86	-34.09	0.0059	-0.2169	-0.4088	
-0.001952	0.809836	0.590724	27.23	-36.68	-35.42	-0.0057	-0.2276	-0.4103	
-0.006954	0.809714	0.582428	28.63	-36.96	-36.05	-0.0056	-0.2307	-0.3984	
-0.002196	0.826428	0.57157	29.4	-38.01	-36.26	-0.0041	-0.2323	-0.4014	
-0.00976	0.81984	0.567178	28.07	-36.68	-36.12	-0.007	-0.2384	-0.3999	
-0.005002	0.834358	0.579744	31.29	-37.03	-36.89	-0.007	-0.2369	-0.4044	
-0.001952	0.84668	0.572058	30.1	-35.84	-36.89	-0.0215	-0.2444	-0.394	
-0.005246	0.833138	0.560346	25.76	-32.27	-35.56	-0.0098	-0.2461	-0.4014	
-0.011468	0.83143	0.565104	26.32	-30.24	-34.79	-0.02	-0.2537	-0.3999	
-0.01586	0.841068	0.563762	24.5	-27.3	-31.92	-0.0316	-0.2628	-0.385	
-0.01952	0.846802	0.565348	20.65	-21.14	-28.91	-0.0214	-0.2567	-0.391	
-0.032818	0.826184	0.563518	13.72	-14.42	-25.55	-0.0212	-0.2691	-0.388	
-0.046482	0.804468	0.553758	9.17	-10.43	-22.82	-0.0286	-0.2644	-0.388	
-0.053802	0.797758	0.563152	8.54	-9.38	-20.65	-0.0301	-0.2628	-0.3806	
-0.053802	0.788364	0.558394	8.19	-9.03	-19.32	-0.0198	-0.2629	-0.382	
-0.051606	0.790316	0.54168	8.33	-7.7	-16.52	-0.0299	-0.2783	-0.391	
-0.064172	0.791048	0.522282	7.63	-6.58	-12.53	-0.0213	-0.266	-0.3776	
-0.07381	0.82899	0.519842	9.94	-6.16	-11.34	-0.0228	-0.2614	-0.3835	
-0.098088	0.880962	0.510204	11.13	-6.51	-10.5	-0.0255	-0.2783	-0.3791	
-0.102602	0.9211	0.496906	10.92	-6.93	-12.11	-0.0269	-0.2845	-0.3761	
-0.098454	0.938546	0.464942	4.48	-2.45	-14.42	-0.0241	-0.2721	-0.3746	
-0.123098	0.906948	0.442372	-2.94	1.61	-14.63	-0.0182	-0.2769	-0.3761	
-0.11712	0.89792	0.465918	1.96	2.31	-17.29	-0.0153	-0.2769	-0.3746	
-0.111752	0.907436	0.462624	4.55	3.01	-19.53	-0.0153	-0.2753	-0.3716	
-0.116022	0.923418	0.462502	2.94	-0.98	-18.2	-0.0241	-0.2737	-0.3716	
-0.10614	0.92659	0.439688	1.26	-14.21	-18.97	-0.0065	-0.2708	-0.3805	
-0.123098	0.91866	0.45689	-0.63	-12.11	-19.53	-0.0137	-0.2815	-0.3686	
-0.12932	0.88877	0.452376	-2.73	-12.04	-18.83	-0.0227	-0.266	-0.3656	
-0.109312	0.877302	0.45933	-0.63	-16.94	-19.95	-0.0094	-0.2769	-0.3626	
-0.099796	0.86681	0.4697	0.28	-18.69	-20.72	-0.0183	-0.2738	-0.385	
-0.107482	0.858514	0.47763	2.17	-17.64	-19.81	-0.0166	-0.2861	-0.3761	
-0.10126	0.872788	0.481778	1.05	-13.86	-18.97	-0.0109	-0.2708	-0.3805	
-0.114436	0.8967	0.468968	0.98	-13.23	-20.02	-0.0167	-0.2784	-0.3835	
-0.124196	0.856806	0.477996	-3.36	-10.29	-17.85	-0.0256	-0.2737	-0.3761	
-0.120902	0.854122	0.48983	-0.63	-12.67	-17.92	-0.0153	-0.2769	-0.3731	
-0.12139	0.851316	0.49715	-0.77	-12.04	-15.89	-0.024	-0.2799	-0.3836	
-0.12078	0.839482	0.497028	-1.05	-9.73	-12.32	-0.0139	-0.2707	-0.379	
-0.11346	0.839848	0.50569	-1.05	-8.33	-10.5	-0.0109	-0.2754	-0.3761	
-0.119072	0.83936	0.507276	-1.47	-4.55	-7.98	-0.0109	-0.2739	-0.3776	
-0.11285	0.833504	0.507276	-2.24	-3.43	-4.9	-0.0153	-0.2738	-0.3671	
-0.120048	0.824476	0.521306	-3.29	-2.94	-0.07	-0.0109	-0.2708	-0.379	
-0.11834	0.829356	0.513986	-4.13	-2.24	2.94	-0.0168	-0.2769	-0.3865	
-0.116266	0.840092	0.517158	-4.69	-0.84	4.9	-0.0153	-0.2738	-0.3835	
-0.11346	0.846192	0.513864	-6.02	1.05	6.23	-0.0168	-0.2753	-0.3835	
-0.111752	0.8418	0.515938	-7.21	3.01	7.49	-0.0256	-0.2721	-0.3791	
-0.108702	0.839482	0.515816	-8.89	3.71	8.47	-0.0169	-0.2645	-0.385	
-0.115412	0.841068	0.515694	-8.68	6.58	9.38	-0.011	-0.2692	-0.3835	
-0.12139	0.835944	0.50752	-8.33	9.59	10.29	-0.0125	-0.2677	-0.3835	
-0.122488	0.843752	0.506666	-7.28	11.2	10.5	-0.0169	-0.2661	-0.382	
-0.132004	0.848144	0.496052	-9.03	13.16	11.34	-0.0227	-0.2691	-0.388	
-0.096014	0.835578	0.50386	-7.91	14.63	9.03	-0.0153	-0.2707	-0.3791	
-0.166896	0.84241	0.499224	-10.36	19.32	10.5	-0.0199	-0.2629	-0.391	
-0.157136	0.829844	0.509106	-10.08	12.53	14.56	-0.0141	-0.2568	-0.391	
-0.150548	0.834968	0.508374	-9.17	12.95	13.02	-0.0213	-0.2691	-0.3925	
-0.169946	0.835822	0.51545	-8.26	14.7	13.23	-0.0096	-0.2646	-0.391	
-0.182512	0.833626	0.538752	-6.44	11.48	15.26	-0.0111	-0.2584	-0.3805	
-0.152744	0.832528	0.5429	-5.32	7.07	15.82	-0.0113	-0.243	-0.3865	
-0.148596	0.835212	0.546072	-5.88	5.95	16.24	-0.0199	-0.2598	-0.382	
-0.140666	0.837774	0.555466	-4.41	3.15	15.96	-0.0111	-0.26	-0.385	
-0.133468	0.835944	0.54168	-6.02	5.11	14.98	-0.0067	-0.2616	-0.388	
-0.125172	0.832162	0.548878	-5.46	4.69	14.7	-0.0184	-0.2599	-0.391	
-0.1098	0.8357	0.559126	-3.99	5.18	13.79	-0.0068	-0.2477	-0.3909	
-0.086498	0.82838	0.558272	-4.41	7.14	12.46	-0.0126	-0.2569	-0.3925	
-0.09357399	0.83753	0.557906	-8.05	10.92	11.41	-0.0082	-0.2554	-0.3954	
-0.082716	0.83631	0.568764	-6.09	6.72	12.18	-0.0112	-0.2461	-0.3865	
-0.064782	0.8235	0.579378	-8.82	9.59	12.32	-0.02	-0.2475	-0.3925	
-0.04392	0.800442	0.602558	-6.86	9.59	14.28	-0.009699999	-0.2492	-0.3835	
-0.016104	0.78751	0.603656	-5.39	14.07	14.49	-0.0069	-0.2446	-0.3865	
-0.008052	0.79483	0.591944	-6.3	17.08	15.19	-0.0112	-0.2507	-0.3895	
-0.016226	0.788974	0.607804	-2.38	21.7	16.8	-0.0112	-0.2507	-0.4014	
-0.034648	0.759938	0.59963	-6.86	30.45	17.99	-0.0185	-0.2537	-0.4014	
-0.046604	0.771772	0.583282	-7.35	29.96	21.07	-0.0098	-0.2461	-0.3939	
-0.040626	0.78751	0.592066	-5.6	27.93	23.03	-0.0024	-0.2554	-0.3954	
-0.058194	0.799588	0.599264	-4.34	32.27	25.69	-0.0009999999	-0.2477	-0.3954	
-0.066124	0.814228	0.556808	-8.26	35.84	30.73	-0.0024	-0.2477	-0.3909	
-0.047702	0.85766	0.519476	-11.27	36.4	31.15	0.0033	-0.2431	-0.3894	
-0.08479	0.884378	0.499224	-17.64	39.41	33.11	0.0047	-0.2447	-0.3999	
-0.098698	0.914512	0.478118	-21.98	39.34	34.72	0.015	-0.2433	-0.3998	
-0.14579	0.878888	0.4819	-24.43	40.74	35.28	0.0223	-0.2449	-0.3983	
-0.136518	0.893894	0.514474	-22.68	42.63	37.17	0.0236	-0.2295	-0.4043	
-0.14518	0.860832	0.541802	-24.71	42	38.85	0.0177	-0.2217	-0.3953	
-0.152256	0.843752	0.554002	-20.65	41.65	38.64	0.022	-0.2218	-0.4072	
-0.145546	0.82045	0.55693	-17.5	39.41	37.45	0.0279	-0.2172	-0.4013	
-0.14396	0.801296	0.578036	-14.63	37.73	37.24	0.0307	-0.2141	-0.4117	
-0.1403	0.802516	0.576206	-10.99	32.27	35.91	0.0411	-0.2251	-0.4087	
-0.126392	0.789218	0.56974	-16.45	28.7	35.7	0.0353	-0.2266	-0.4042	
-0.135298	0.795318	0.57401	-14.56	22.75	36.19	0.0454	-0.2143	-0.4087	
-0.12261	0.80337	0.576816	-15.05	17.78	36.12	0.0322	-0.2095	-0.4087	
-0.119194	0.82045	0.564372	-18.41	16.38	35.56	0.041	-0.2127	-0.4161	
-0.102236	0.819718	0.572912	-16.38	11.48	34.02	0.0336	-0.2111	-0.4087	
-0.097356	0.818742	0.579866	-16.38	9.17	30.73	0.0291	-0.2018	-0.4102	
-0.073078	0.818986	0.591212	-12.74	5.39	27.37	0.0439	-0.2066	-0.4087	
-0.061976	0.820694	0.58865	-14.28	3.71	23.1	0.0409	-0.2034	-0.3997	
-0.059414	0.80276	0.602192	-13.09	0.14	20.3	0.0291	-0.1956	-0.4072	
-0.052216	0.782752	0.610976	-10.85	-1.75	19.11	0.0349	-0.1957	-0.4161	
-0.038674	0.771894	0.621346	-8.26	-4.34	18.48	0.0321	-0.2018	-0.4147	
-0.01647	0.76494	0.620858	-10.43	-5.46	18.55	0.0291	-0.1987	-0.4191	
-0.01159	0.76128	0.618418	-10.64	-9.17	19.04	0.0305	-0.1972	-0.4206	
0.014274	0.764574	0.636108	-7.7	-12.39	18.83	0.01	-0.1969	-0.4147	
0.021106	0.771406	0.655262	-8.61	-11.76	19.32	0.0202	-0.1955	-0.4206	
0.032208	0.75701	0.64355	-10.64	-7.56	17.99	0.0173	-0.1955	-0.4251	
0.029646	0.759816	0.631228	-9.38	-7	18.06	0.0187	-0.1924	-0.4192	
0.059414	0.750788	0.63806	-9.59	-7.77	17.08	0.008599999	-0.1984	-0.4162	
0.07991	0.745786	0.672098	-6.16	-7.28	17.43	0.0129	-0.1969	-0.4192	
0.071736	0.743834	0.679174	-3.99	-4.55	16.87	0.007	-0.1923	-0.4266	
0.056608	0.758718	0.628788	-6.51	1.19	16.1	-0.0002	-0.1875	-0.4103	
0.045628	0.773602	0.606706	-7.56	-1.26	14.77	0.0041	-0.1984	-0.4281	
0.061366	0.759694	0.655628	-5.88	-9.03	13.3	0.0011	-0.1922	-0.4207	
0.08235	0.742858	0.67893	-7.56	-12.11	15.54	0.0055	-0.1876	-0.4192	
0.116388	0.707234	0.690032	-14.91	-6.65	18.41	-0.0033	-0.1844	-0.4267	
0.122122	0.705404	0.702598	-14.56	-3.36	21.63	0.004	-0.1829	-0.4147	
0.12627	0.711382	0.684908	-20.02	1.47	22.96	-0.0062	-0.1797	-0.4311	
0.111752	0.721752	0.67466	-18.41	1.82	22.12	0.004	-0.1907	-0.4341	
0.095648	0.728584	0.692106	-11.06	-0.98	20.93	-0.0064	-0.1658	-0.4207	
0.111386	0.734074	0.68503	-8.68	-1.12	18.97	0.0024	-0.1721	-0.4251	
0.110898	0.737612	0.694302	-7.14	-1.68	16.59	-0.0034	-0.1736	-0.4207	
0.117364	0.7259	0.713944	-1.75	-1.68	15.4	-0.0122	-0.175	-0.4326	
0.106018	0.724436	0.709674	8.4	0.63	14.28	-0.0078	-0.172	-0.4282	
0.095892	0.738588	0.6405	3.5	1.26	10.85	-0.0209	-0.1827	-0.4357	
0.105286	0.728462	0.65209	1.54	-2.59	8.12	-0.0092	-0.1797	-0.4371	
0.11895	0.707844	0.667706	-5.74	-5.6	9.59	-0.0078	-0.1735	-0.4252	
0.142984	0.686006	0.690642	-9.8	-7.7	11.76	-0.0108	-0.1673	-0.4311	
0.166896	0.681126	0.718824	-12.11	-6.58	14.56	-0.0165	-0.1811	-0.4192	
0.166408	0.691008	0.700402	-15.68	-1.68	16.94	-0.0123	-0.1627	-0.4341	
0.151524	0.70272	0.688812	-17.92	0.49	16.17	-0.0224	-0.1749	-0.4267	
0.147742	0.704916	0.688446	-17.71	1.33	13.16	-0.0224	-0.1795	-0.4327	
0.1525	0.703208	0.681614	-14.07	1.61	11.62	-0.0283	-0.1717	-0.4327	
0.14457	0.71431	0.689544	-11.76	-0.42	10.22	-0.0168	-0.1564	-0.4371	
0.15067	0.729804	0.691008	-7.49	-2.59	7.77	-0.0138	-0.1596	-0.4282	
0.152988	0.710894	0.688568	-5.67	-4.13	5.25	-0.0212	-0.1548	-0.4326	
0.166286	0.690886	0.704306	-3.92	-6.16	3.78	-0.0255	-0.1579	-0.4267	
0.171898	0.679174	0.717726	-0.35	-7.77	3.01	-0.0197	-0.1564	-0.4341	
0.172996	0.676124	0.711504	-2.45	-4.76	3.22	-0.03	-0.1517	-0.4356	
0.162748	0.680638	0.703452	-4.06	-3.57	2.94	-0.0211	-0.1626	-0.4341	
0.160552	0.681736	0.718946	-3.43	-4.9	2.17	-0.0211	-0.161	-0.4401	
0.17385	0.676856	0.72224	-3.92	-3.71	2.1	-0.0314	-0.1594	-0.4416	
0.181902	0.677344	0.710894	-4.2	-2.24	1.96	-0.03	-0.1516	-0.4282	
0.181902	0.677222	0.698328	-6.51	-2.17	1.12	-0.0226	-0.1564	-0.4312	
0.171288	0.6771	0.706502	-7.42	-3.29	0	-0.0257	-0.144	-0.4371	
0.170556	0.675392	0.706746	-5.67	-3.99	-1.54	-0.0257	-0.1471	-0.4326	
0.170678	0.673562	0.713456	-1.89	-6.65	-1.96	-0.0286	-0.1517	-0.4282	
0.182512	0.662216	0.745786	1.82	-8.75	-1.61	-0.0374	-0.1485	-0.4401	
0.18483	0.665876	0.747738	9.8	-7.07	-2.17	-0.0359	-0.15	-0.4327	
0.174948	0.66063	0.715774	9.38	-3.85	-1.75	-0.0373	-0.1608	-0.4342	
0.176046	0.673928	0.680638	8.82	-2.31	-1.89	-0.0387	-0.1593	-0.4267	
0.162992	0.687836	0.68015	7.42	-4.55	-2.87	-0.0388	-0.1531	-0.4342	
0.161162	0.696376	0.67954	6.02	-5.74	-3.64	-0.0344	-0.1578	-0.4372	
0.179584	0.690398	0.681004	1.54	-7.77	-2.59	-0.033	-0.1516	-0.4386	
0.201422	0.678198	0.709186	5.95	-10.99	-3.43	-0.03	-0.1517	-0.4356	
0.212402	0.68137	0.721264	5.67	-9.8	-3.29	-0.0401	-0.1654	-0.4357	
0.2013	0.690398	0.704306	-1.96	-3.43	-1.05	-0.0416	-0.167	-0.4342	
0.188246	0.681004	0.685762	-2.59	-2.45	-0.84	-0.0476	-0.1514	-0.4342	
0.187636	0.681126	0.68808	-0.21	-3.64	-0.84	-0.0446	-0.1561	-0.4357	
0.180682	0.701134	0.691008	0.91	-3.64	-1.68	-0.0505	-0.1514	-0.4297	
0.190076	0.698084	0.697718	1.05	-4.62	-3.36	-0.0519	-0.1606	-0.4283	
0.19032	0.690154	0.698938	-2.73	-3.43	-2.94	-0.0504	-0.1668	-0.4283	
0.186904	0.694668	0.703818	0.63	-3.08	-4.06	-0.0446	-0.1623	-0.4312	
0.184708	0.693448	0.699914	-0.28	-1.61	-4.2	-0.049	-0.1622	-0.4342	
0.183244	0.689178	0.699792	-1.26	-1.26	-4.9	-0.0402	-0.1577	-0.4267	
0.18056	0.686006	0.704794	-1.61	-0.42	-4.69	-0.0387	-0.1608	-0.4327	
0.196176	0.688934	0.691862	-1.4	-2.52	-2.66	-0.0461	-0.1576	-0.4297	
0.184708	0.682956	0.70699	0.21	-0.84	-3.15	-0.0416	-0.167	-0.4312	
0.178852	0.68198	0.698816	-2.8	0.07	-2.31	-0.0402	-0.1593	-0.4357	
0.177998	0.680394	0.71065	-1.96	-0.56	-1.82	-0.0504	-0.1622	-0.4342	
0.177022	0.676734	0.7015	-0.63	-0.07	-1.47	-0.0476	-0.1561	-0.4312	
0.173362	0.681126	0.68747	-1.96	0.14	-0.84	-0.03	-0.1532	-0.4312	
0.171898	0.684664	0.693326	-2.24	-0.84	-0.49	-0.0373	-0.1608	-0.4342	
0.173728	0.686494	0.697352	-1.33	-1.54	-0.21	-0.0431	-0.1638	-0.4253	
0.172874	0.685396	0.704672	-0.84	-1.89	-0.56	-0.0446	-0.1576	-0.4252	
0.174094	0.681248	0.705526	0.49	-1.26	-0.98	-0.0417	-0.1531	-0.4342	
0.183366	0.682956	0.708942	1.61	-0.56	-0.7	-0.0431	-0.1592	-0.4327	
0.185684	0.679662	0.721752	4.97	-0.7	-0.77	-0.0401	-0.1639	-0.4252	
0.187758	0.68869	0.70455	5.04	1.12	-0.7	-0.0504	-0.1607	-0.4268	
0.18605	0.699548	0.697352	4.41	1.47	-0.84	-0.0489	-0.1653	-0.4283	
0.187758	0.709064	0.673196	1.33	2.59	-1.47	-0.0343	-0.1624	-0.4312	
0.180682	0.70028	0.70699	1.26	1.26	-2.52	-0.0373	-0.1577	-0.4282	
0.174948	0.69235	0.698206	5.25	2.87	-3.15	-0.0374	-0.15	-0.4252	
0.185318	0.695766	0.691984	3.85	1.4	-3.5	-0.0416	-0.1623	-0.4267	
0.197518	0.6954	0.714676	3.71	0.98	-3.29	-0.0416	-0.17	-0.4357	
0.19581	0.686616	0.705526	1.19	4.41	-3.08	-0.0401	-0.1685	-0.4282	
0.191296	0.690886	0.702842	-0.07	6.09	-3.15	-0.0504	-0.1653	-0.4238	
