Sensor string: E
Serial number: 1970-01-0000
Firmware version: 2,015
Hardware version: 2,2
Calibration quality: 5
ax	ay	az	gx	gy	gz	mx	my	mz

-0.930738	-0.077226	0.372588	0	-0.07	0	0.3056	0.0576	-0.4576	Reference
-0.931348	-0.07747	0.373686	0.07	0	0	0.311	0.046	-0.4538	
-0.931592	-0.076494	0.37332	0.14	0	0	0.3019	0.0635	-0.4625	
-0.93086	-0.074786	0.372344	0.35	-0.07	0.07	0.2992	0.0509	-0.4622	
-0.931714	-0.074542	0.372344	0.28	0.14	0.07	0.2961	0.0564	-0.4565	
-0.93391	-0.074908	0.373198	0.07	0.07	-0.07	0.3001	0.0503	-0.447	
-0.933422	-0.076616	0.371002	0	-0.21	0	0.2998	0.0547	-0.4502	
-0.933788	-0.077348	0.371734	-0.14	-0.35	0.07	0.3059	0.0505	-0.4572	
-0.932568	-0.075274	0.371368	-0.07	-0.35	0	0.304	0.059	-0.4562	
-0.928298	-0.075274	0.373686	-0.14	-0.35	-0.07	0.3061	0.0504	-0.4542	
-0.929274	-0.07747	0.375028	-0.07	-0.21	-0.07	0.3109	0.0502	-0.4539	
-0.930982	-0.075396	0.37393	0.14	-0.28	-0.14	0.3031	0.0476	-0.4527	
-0.930128	-0.076128	0.37454	-0.07	-0.28	-0.07	0.2963	0.0467	-0.4591	
-0.93025	-0.077348	0.37454	-0.14	0.14	0	0.3101	0.0549	-0.4648	
-0.928542	-0.076616	0.37332	0	0.14	-0.07	0.2915	0.0592	-0.4523	
-0.928176	-0.075274	0.3721	0.14	0	-0.07	0.3092	0.0613	-0.4484	
-0.928664	-0.075762	0.372466	0.14	-0.07	-0.14	0.3041	0.0561	-0.4561	
-0.930494	-0.075884	0.373198	0.07	0	-0.07	0.3018	0.053	-0.444	
-0.932324	-0.074542	0.372588	0.14	0.07	0	0.3046	0.0449	-0.4556	
-0.9333	-0.075518	0.374784	-0.07	0	-0.14	0.3059	0.056	-0.4529	
-0.932324	-0.07625	0.372466	-0.14	-0.07	-0.14	0.2914	0.0538	-0.4567	
-0.931348	-0.076982	0.371124	0	0.07	-0.14	0.3039	0.0536	-0.462	
-0.931714	-0.077836	0.37271	0.07	0.07	-0.21	0.3015	0.049	-0.4514	
-0.931714	-0.077104	0.37393	0.14	-0.14	-0.14	0.3009	0.0563	-0.4562	
-0.931348	-0.076372	0.373808	0.14	-0.21	-0.14	0.3061	0.0573	-0.4499	
-0.930006	-0.075518	0.372954	0.07	0	-0.14	0.314	0.0515	-0.4538	
-0.93147	-0.075518	0.37393	-0.07	0	-0.14	0.2954	0.0408	-0.4514	
-0.93086	-0.076128	0.373442	-0.21	0	-0.14	0.2977	0.0578	-0.4565	
-0.931592	-0.076738	0.373442	-0.14	0	-0.07	0.3041	0.0562	-0.4576	
-0.931348	-0.078202	0.372222	0.14	-0.07	-0.07	0.3118	0.0616	-0.4589	
-0.930494	-0.077714	0.372588	0.07	-0.14	-0.07	0.3096	0.05	-0.4479	
-0.929884	-0.077226	0.374418	-0.14	-0.14	-0.14	0.2988	0.0621	-0.4611	
-0.928664	-0.075396	0.372832	-0.07	0	-0.14	0.2977	0.055	-0.4579	
-0.930738	-0.07625	0.37576	0.07	0	-0.07	0.3091	0.0532	-0.4557	
-0.929518	-0.076128	0.37393	0.14	0.14	-0.07	0.3022	0.0592	-0.4608	
-0.931836	-0.075762	0.37454	0	0.07	-0.14	0.3119	0.0468	-0.4386	
-0.930738	-0.074908	0.373442	0	0.14	-0.14	0.3024	0.0549	-0.4591	
-0.929152	-0.076494	0.371856	-0.14	0.14	-0.14	0.2933	0.0535	-0.452	
-0.929152	-0.076494	0.37271	-0.07	0.07	-0.14	0.311	0.0529	-0.4495	
-0.930006	-0.07686	0.372832	-0.07	0.07	-0.14	0.3112	0.05	-0.4479	
-0.931226	-0.07686	0.376126	0	0	-0.14	0.3012	0.0547	-0.4531	
-0.932446	-0.076738	0.374052	0.14	0.14	-0.21	0.3095	0.046	-0.4523	
-0.933178	-0.075518	0.370514	0	0.35	-0.07	0.2979	0.0562	-0.4534	
-0.933422	-0.076128	0.370148	-0.07	0.07	-0.07	0.3012	0.0533	-0.4531	
-0.933666	-0.076738	0.370514	-0.07	-0.07	-0.07	0.2933	0.0522	-0.4535	
-0.93391	-0.078568	0.37393	-0.21	-0.14	-0.14	0.309	0.0532	-0.4572	
-0.931104	-0.078202	0.372344	-0.07	-0.07	-0.07	0.3025	0.0576	-0.4562	
-0.930128	-0.07747	0.372588	0.21	-0.14	-0.14	0.3089	0.0505	-0.4601	
-0.929762	-0.076738	0.37515	0.28	-0.07	-0.07	0.3091	0.049	-0.457	
-0.928664	-0.076372	0.375028	0.21	0.14	0	0.3107	0.0559	-0.4542	
-0.930982	-0.07686	0.374662	0.14	0.14	0	0.3141	0.0583	-0.448	
-0.929274	-0.076738	0.373198	0.07	0.07	0	0.3062	0.0503	-0.4527	
-0.932812	-0.077104	0.370026	-0.07	0	0	0.3091	0.06	-0.4514	
-0.932324	-0.075762	0.371246	-0.14	-0.21	-0.14	0.3007	0.066	-0.4536	
-0.93086	-0.076738	0.374174	-0.14	-0.07	-0.07	0.2982	0.0533	-0.4502	
-0.929152	-0.077226	0.371368	0	0.14	-0.07	0.3055	0.0658	-0.4534	
-0.93025	-0.07564	0.372832	0	-0.21	0	0.3112	0.0459	-0.4507	
-0.929396	-0.074908	0.376126	-0.07	-0.14	0	0.3085	0.0563	-0.4634	
-0.928786	-0.074664	0.37637	-0.07	0.14	-0.07	0.2996	0.0506	-0.4546	
-0.929762	-0.07625	0.373442	-0.07	0.35	-0.14	0.301	0.0604	-0.4534	
-0.930738	-0.07625	0.371124	0.07	0.21	-0.14	0.3059	0.0574	-0.453	
-0.932568	-0.076372	0.370392	0.14	0.07	-0.21	0.3058	0.0588	-0.453	
-0.93147	-0.076616	0.373442	-0.07	-0.07	-0.21	0.2977	0.055	-0.4579	
-0.931714	-0.073566	0.371734	-0.07	0.07	-0.21	0.3028	0.0547	-0.453	
-0.93208	-0.076494	0.37576	-0.07	-0.07	-0.28	0.3088	0.0588	-0.4559	
-0.931958	-0.078324	0.372832	0.07	0.07	-0.21	0.3071	0.0535	-0.4618	
-0.931958	-0.077104	0.370758	0	0.28	-0.07	0.2884	0.0551	-0.4523	
-0.93147	-0.07808	0.372588	-0.21	0.07	-0.14	0.3043	0.0492	-0.4573	
-0.931836	-0.07747	0.374906	0	-0.07	-0.21	0.3011	0.0602	-0.4503	
-0.929518	-0.077592	0.3721	0.21	0.14	-0.35	0.3055	0.059	-0.4591	
-0.929762	-0.077714	0.371368	0.21	0.14	-0.21	0.2949	0.0521	-0.4534	
-0.930494	-0.076494	0.373076	0.14	-0.07	-0.14	0.3108	0.0503	-0.4555	
-0.93025	-0.074908	0.37332	-0.14	0.07	0	0.2934	0.0521	-0.4519	
-0.931226	-0.07564	0.37332	-0.21	0.28	-0.07	0.3026	0.0534	-0.4575	
-0.930494	-0.07869	0.37332	0.07	0.21	-0.07	0.3034	0.0488	-0.4467	
-0.930738	-0.078934	0.373076	0.07	0.07	-0.07	0.3034	0.0488	-0.4467	
-0.930372	-0.078202	0.3721	0.14	0.14	-0.07	0.3042	0.0492	-0.4588	
-0.93025	-0.077592	0.370758	0.07	0.21	-0.07	0.3024	0.0508	-0.462	
-0.931714	-0.076616	0.3721	0	0.35	0	0.3077	0.0571	-0.4483	
-0.933544	-0.076616	0.374174	0.07	0.28	0	0.3023	0.0591	-0.4578	
-0.932934	-0.076006	0.373686	0.14	0.21	0.07	0.3007	0.0591	-0.4579	
-0.931348	-0.075762	0.370758	0	0.21	0.07	0.3011	0.0493	-0.4575	
-0.932202	-0.075518	0.368806	0	0.42	0	0.3089	0.0587	-0.4544	
-0.93208	-0.077348	0.372222	0.07	0.28	0	0.3139	0.0598	-0.4511	
-0.933056	-0.07686	0.372588	0.28	0.07	-0.07	0.2962	0.0578	-0.4551	
-0.933666	-0.076128	0.370758	0.14	0.14	-0.07	0.3085	0.0604	-0.4605	
-0.932324	-0.07515199	0.371124	0.14	0.28	-0.07	0.3091	0.06	-0.4514	
-0.931836	-0.076738	0.372466	0.28	0.21	0	0.298	0.0493	-0.4561	
-0.934032	-0.076738	0.370758	0.35	0.14	0	0.3041	0.0561	-0.4561	
-0.932202	-0.076128	0.370026	0.14	0.21	0	0.3007	0.0619	-0.4565	
-0.93025	-0.07625	0.370514	0.07	0.28	0	0.3008	0.0618	-0.455	
-0.931714	-0.077348	0.371612	0.21	0.21	0	0.3069	0.0577	-0.462	
-0.93086	-0.07747	0.372954	0.7	0.28	0	0.303	0.0504	-0.4513	
-0.931714	-0.076494	0.371612	0.77	0.56	0	0.3056	0.052	-0.4603	
-0.932934	-0.076738	0.371246	0.49	0.21	0.07	0.3027	0.0561	-0.4531	
-0.9333	-0.07503	0.369538	0.35	0.07	0	0.2943	0.0608	-0.4583	
-0.934398	-0.075396	0.368074	0.07	0.21	0	0.3136	0.0587	-0.4572	
-0.931714	-0.074786	0.369538	0.07	0.07	-0.14	0.2992	0.0537	-0.4608	
-0.928542	-0.075274	0.372954	0	0.07	-0.14	0.3056	0.0631	-0.4548	
-0.930128	-0.074786	0.3721	0.28	0.28	-0.07	0.3022	0.0605	-0.4594	
-0.932568	-0.074664	0.372344	0.49	0.07	-0.07	0.3108	0.0557	-0.4511	
-0.931348	-0.075396	0.373808	0.14	0.07	0.07	0.3027	0.0533	-0.4545	
-0.93147	-0.07625	0.369782	0.14	0.49	0.14	0.3061	0.0586	-0.4485	
-0.932812	-0.075396	0.368684	0.07	0.35	0	0.3062	0.0571	-0.4469	
-0.932812	-0.075884	0.367586	0.07	0.21	-0.07	0.3156	0.0542	-0.4523	
-0.93391	-0.077348	0.370148	0.28	0.07	-0.14	0.3077	0.0503	-0.4541	
-0.932446	-0.076494	0.370636	0.49	0.14	-0.14	0.3063	0.0489	-0.4511	
-0.930982	-0.075274	0.371246	0.42	0.14	0	0.3038	0.0605	-0.4593	
-0.932202	-0.074298	0.371856	0	0	0	0.3124	0.0557	-0.451	
-0.932202	-0.073444	0.370636	-0.07	0.07	-0.07	0.2973	0.0608	-0.4612	
-0.930982	-0.075274	0.370026	0.07	0.35	-0.07	0.2999	0.0504	-0.45	
-0.931592	-0.076616	0.371124	0.21	0.42	-0.07	0.3045	0.0546	-0.4514	
-0.929762	-0.076006	0.367708	0.28	0.42	-0.07	0.2961	0.0647	-0.4523	
-0.931226	-0.076006	0.369782	-0.07	0.07	-0.07	0.2964	0.048	-0.4577	
-0.9333	-0.076616	0.370392	-0.07	0.14	-0.14	0.3058	0.0492	-0.4587	
-0.934276	-0.076372	0.371734	0.07	0.21	-0.07	0.3034	0.0635	-0.464	
-0.932324	-0.074786	0.368806	0.28	0.35	0	0.3162	0.0552	-0.4417	
-0.932934	-0.074054	0.368806	0.07	0.35	-0.07	0.2993	0.0604	-0.4535	
-0.930616	-0.07442	0.369172	-0.07	0.14	0	0.3032	0.0517	-0.4484	
-0.932202	-0.075518	0.371124	-0.07	-0.14	-0.07	0.3054	0.0563	-0.4621	
-0.932934	-0.074298	0.369904	-0.07	0.07	0	0.3129	0.0526	-0.4448	
-0.93269	-0.074298	0.368684	-0.14	0	0	0.3024	0.059	-0.4563	
-0.932446	-0.074176	0.368318	-0.21	-0.07	0	0.3053	0.0619	-0.4608	
-0.932202	-0.07515199	0.36905	-0.14	0.14	0	0.3015	0.0463	-0.4528	
-0.933056	-0.075396	0.370392	-0.21	0	-0.14	0.3192	0.047	-0.4503	
-0.933056	-0.07381	0.368684	-0.21	0	-0.07	0.309	0.0573	-0.4543	
-0.933056	-0.073688	0.368928	-0.21	-0.14	-0.14	0.3106	0.0545	-0.4556	
-0.932934	-0.07515199	0.368196	-0.21	-0.07	-0.07	0.3039	0.0577	-0.4592	
-0.9333	-0.07686	0.370148	-0.35	-0.07	-0.07	0.3149	0.0561	-0.463	
-0.933178	-0.076494	0.370758	-0.28	-0.14	-0.14	0.3141	0.0487	-0.4537	
-0.9333	-0.075274	0.370026	-0.14	-0.07	-0.07	0.3011	0.0493	-0.4575	
-0.933544	-0.07564	0.370148	0	-0.07	-0.14	0.3046	0.0572	-0.447	
-0.931958	-0.075274	0.368684	-0.07	-0.07	-0.14	0.3062	0.0544	-0.4498	
-0.932446	-0.07686	0.369782	-0.28	-0.07	-0.07	0.3071	0.0562	-0.4604	
-0.931836	-0.076738	0.369416	-0.21	0	0	0.3191	0.0512	-0.449	
-0.934154	-0.07564	0.369172	-0.07	-0.07	0	0.3138	0.0544	-0.4555	
-0.933422	-0.07442	0.370026	0.21	-0.07	-0.14	0.3093	0.0503	-0.454	
-0.93269	-0.075396	0.369904	0.28	0.07	-0.21	0.3061	0.049	-0.4541	
-0.934032	-0.074664	0.37088	0	0	-0.14	0.3018	0.0489	-0.4468	
-0.931836	-0.07381	0.368196	-0.14	0	-0.14	0.3062	0.0544	-0.4498	



-0.932812	-0.076128	0.367952	0.07	0.14	-0.28	0.3135	0.0587	-0.4587	
-0.934032	-0.076372	0.367952	0.21	-0.14	-0.28	0.3024	0.0563	-0.4592	
-0.935618	-0.07869	0.369172	0.35	-0.56	-0.21	0.312	0.0601	-0.4558	
-0.937692	-0.076006	0.371124	0.56	-0.63	-0.35	0.3073	0.0519	-0.4587	
-0.938546	-0.073932	0.36722	0.42	-0.56	-0.28	0.3092	0.0572	-0.4513	
-0.937692	-0.0732	0.365634	0.07	-0.84	-0.35	0.3169	0.0517	-0.4597	
-0.935984	-0.074054	0.368196	0	-0.77	-0.07	0.2974	0.0511	-0.4653	
-0.933788	-0.075884	0.369172	-0.07	-1.12	0	0.3055	0.048	-0.4647	
-0.931592	-0.07625	0.374174	0.07	-1.68	-0.07	0.3122	0.049	-0.4599	
-0.928908	-0.075884	0.373564	0.56	-1.05	-0.28	0.3006	0.0592	-0.4594	
-0.93147	-0.07515199	0.3721	1.19	-0.98	-0.49	0.3023	0.0509	-0.4635	
-0.934398	-0.07625	0.371368	1.4	-1.19	-0.56	0.3033	0.0609	-0.4684	
-0.935496	-0.077104	0.367708	0.84	-1.4	-0.35	0.3004	0.0539	-0.4668	
-0.938668	-0.076372	0.368318	1.47	-1.96	-0.28	0.3086	0.0507	-0.4647	
-0.938546	-0.072834	0.370026	2.03	-2.66	-0.56	0.3008	0.0495	-0.4635	
-0.937692	-0.074298	0.374174	2.24	-3.29	-0.84	0.3087	0.0534	-0.4617	
-0.936106	-0.076372	0.37515	2.45	-3.5	-0.84	0.302	0.0607	-0.4624	
-0.933544	-0.076128	0.373076	2.45	-3.64	-0.49	0.3021	0.0593	-0.4624	

-0.928908	-0.07808	0.379908	2.1	-4.48	-0.14	0.2974	0.0539	-0.4639	
-0.93696	-0.074176	0.377834	3.92	-4.9	-0.91	0.3084	0.0536	-0.4663	
-0.93391	-0.07442	0.381128	3.5	-5.67	-0.84	0.2958	0.058	-0.4611	
-0.933544	-0.069174	0.385032	3.78	-5.74	-0.56	0.3072	0.0521	-0.4618	
-0.933788	-0.07137	0.384544	2.87	-6.16	-0.98	0.2967	0.0396	-0.4573	
-0.935008	-0.070394	0.386618	3.29	-6.86	-0.91	0.296	0.0483	-0.4637	
-0.93513	-0.072712	0.3904	2.45	-7.28	-0.42	0.2945	0.0538	-0.4595	
-0.928664	-0.073322	0.38613	2.45	-7.28	-0.21	0.2851	0.0484	-0.4583	
-0.933178	-0.068808	0.390644	3.22	-8.33	-0.56	0.2924	0.0486	-0.47	
-0.935496	-0.072102	0.391864	3.29	-8.61	-0.77	0.2826	0.0533	-0.4723	
-0.934642	-0.074542	0.39467	3.64	-9.45	-0.84	0.294	0.05	-0.47	
-0.934276	-0.07625	0.401746	4.48	-11.34	-0.98	0.2849	0.0472	-0.4628	
-0.939766	-0.070516	0.403332	5.67	-11.48	-0.84	0.2884	0.0576	-0.4797	
-0.929762	-0.073444	0.408578	5.32	-13.02	-0.49	0.2804	0.0496	-0.4843	
-0.925004	-0.07076	0.410652	4.97	-14.98	-0.42	0.2861	0.0488	-0.4689	
-0.920002	-0.072224	0.416874	5.04	-14.49	-0.35	0.2856	0.0451	-0.4808	
-0.92598	-0.072468	0.416996	5.18	-14.35	-0.21	0.2711	0.0429	-0.4846	
-0.934398	-0.073322	0.420046	5.32	-16.31	0.42	0.278	0.0436	-0.4736	
-0.934764	-0.069784	0.428098	6.09	-18.06	0.42	0.2745	0.0426	-0.4798	
-0.926712	-0.065758	0.433466	6.65	-19.67	0.49	0.2697	0.0401	-0.483	
-0.917318	-0.05551	0.44347	7.21	-20.86	0.56	0.2666	0.04	-0.4802	
-0.914268	-0.055876	0.442982	6.44	-21.63	0.49	0.2648	0.0361	-0.4861	
-0.915366	-0.060268	0.453718	4.9	-22.89	0.63	0.2672	0.0489	-0.4926	
-0.91073	-0.05734	0.458842	5.04	-24.85	1.12	0.2539	0.0377	-0.4808	
-0.910242	-0.061976	0.460184	5.39	-25.27	1.68	0.2444	0.0458	-0.5013	
-0.909754	-0.06588	0.463234	6.16	-27.23	2.1	0.2468	0.0315	-0.4975	
-0.896944	-0.06649	0.4758	6.65	-30.52	1.96	0.2381	0.035	-0.5072	
-0.895236	-0.063928	0.502762	8.4	-31.08	1.26	0.2346	0.0394	-0.5091	
-0.89914	-0.054412	0.493124	8.12	-30.03	1.68	0.2302	0.0325	-0.5076	
-0.889746	-0.044164	0.513864	7.35	-32.27	1.68	0.219	0.0355	-0.5053	
-0.87962	-0.049898	0.517646	4.9	-35.07	1.47	0.2174	0.0329	-0.5083	
-0.874862	-0.04148	0.536556	6.44	-34.72	1.68	0.2205	0.026	-0.5139	
-0.857538	-0.041114	0.543266	6.3	-36.19	0.49	0.2055	0.0365	-0.5182	
-0.83448	-0.045384	0.552782	5.46	-37.31	0.42	0.2022	0.0367	-0.5199	
-0.823744	-0.043554	0.558638	5.6	-37.45	0.28	0.2037	0.0326	-0.5242	
-0.810934	-0.043188	0.580476	6.58	-38.64	0.56	0.2024	0.0365	-0.5168	
-0.809226	-0.034038	0.588406	8.4	-40.39	1.47	0.1834	0.0343	-0.5147	
-0.805444	-0.032208	0.605486	11.06	-42	0.77	0.18	0.0291	-0.5223	
-0.78751	-0.034038	0.620248	9.66	-42.14	1.54	0.1652	0.0298	-0.5292	
-0.756766	-0.031476	0.633546	7.21	-40.6	1.89	0.166	0.0234	-0.547	
-0.736636	-0.028426	0.6344	4.83	-39.2	2.24	0.1616	0.0288	-0.5369	
-0.730414	-0.020496	0.64294	5.04	-37.8	2.03	0.1562	0.0321	-0.5449	
-0.724558	-0.019398	0.65636	6.93	-38.29	0.98	0.1485	0.0226	-0.5464	
-0.706868	-0.025254	0.673928	8.05	-38.57	-0.91	0.1266	0.0134	-0.5442	
-0.692472	-0.023668	0.68869	8.89	-38.57	-2.73	0.1183	0.0194	-0.5465	
-0.687958	-0.013664	0.68381	7.91	-34.23	-2.94	0.1287	0.0168	-0.5609	
-0.696742	-0.010004	0.682346	7.42	-33.04	-1.26	0.114	0.0271	-0.5606	
-0.689056	-0.005002	0.696254	6.3	-41.65	0.63	0.103	0.0177	-0.5639	
-0.675148	-0.013298	0.718702	6.58	-38.78	3.78	0.1111	0.0201	-0.559	
-0.66185	-0.020862	0.71797	7.07	-33.32	5.46	0.1002	0.023	-0.5537	
-0.651846	-0.017202	0.725168	5.6	-34.37	5.88	0.0839	0.0128	-0.5647	
-0.643794	-0.010858	0.738466	6.02	-33.39	5.11	0.08859999	0.0209	-0.5618	
-0.641354	-0.00549	0.75335	8.12	-32.27	3.43	0.0806	0.0171	-0.5651	
-0.637328	-0.010126	0.76189	6.58	-32.34	2.52	0.0755	0.016	-0.5699	
-0.62891	-0.016226	0.770674	4.41	-31.43	1.75	0.069	0.0218	-0.5689	
-0.608414	-0.016348	0.783118	4.69	-29.75	1.75	0.0549	0.0152	-0.5679	
-0.587552	-0.00854	0.786168	6.3	-28.56	1.47	0.0592	0.0182	-0.5754	
-0.56669	-0.004636	0.784948	7	-27.65	0.7	0.0586	0.0066	-0.5643	
-0.55144	0.004636	0.786046	6.86	-25.97	-0.28	0.0453	0.0101	-0.5713	
-0.533506	0.010614	0.798612	5.53	-25.9	-0.56	0.0355	0.0092	-0.5763	
-0.515938	0.00183	0.808616	4.55	-23.24	0.07	0.0387	0.009099999	-0.5761	
-0.506788	-0.003416	0.812398	4.69	-19.53	0.49	0.0325	0.0064	-0.5748	
-0.501176	0.004392	0.813496	4.76	-17.78	0.84	0.0281	0.0022	-0.5704	
-0.487146	0.013542	0.829844	3.43	-14.21	1.54	0.0303	0.0083	-0.5841	
-0.503128	0.02684	0.8174	3.36	-17.08	1.89	0.0273	0.0055	-0.5827	
-0.482144	0.012688	0.825208	0.77	-18.48	1.89	0.0209	0.0043	-0.583	
-0.48556	0.018178	0.861442	4.41	4.62	0.42	0.0164	0.0029	-0.5801	
-0.493002	0.0305	0.823622	3.22	3.22	0.28	0.0196	0.011	-0.5742	
-0.489464	0.031964	0.845338	-0.98	0	0.84	0.018	0.0056	-0.5771	
-0.488	0.017446	0.831552	0.7	7.42	-0.14	0.0193	0.0085	-0.5802	
-0.493978	0.02074	0.824354	-1.26	8.89	0.14	0.0227	0.0206	-0.5699	
-0.511058	0.02745	0.819596	-1.47	10.5	0.63	0.0163	0.0016	-0.5816	
-0.514718	0.035624	0.824476	-0.49	12.04	-0.84	0.0159	0.0074	-0.5849	
-0.508984	0.036234	0.826062	-3.5	15.26	-1.26	0.0259	0.0068	-0.5783	
-0.516914	0.03355	0.804346	-5.04	18.69	-1.61	0.0292	0.0135	-0.5723	
-0.513376	0.02501	0.811544	-5.53	23.94	-2.31	0.0294	0.0092	-0.5721	
-0.515084	0.010614	0.794708	-4.97	28.7	-3.15	0.0444	0.0056	-0.5636	
-0.528992	0.00976	0.780922	-4.69	32.69	-3.64	0.0424	0.022	-0.587	
-0.535092	0.008905999	0.776774	-4.83	34.65	-3.36	0.0582	0.0096	-0.5705	
-0.55205	0.006832	0.775066	-4.69	36.82	-2.8	0.06439999	0.015	-0.5704	
-0.568154	0.00366	0.764086	-5.6	39.83	-2.03	0.076	0.0034	-0.5693	
-0.585844	-0.00244	0.753472	-5.67	43.75	-2.45	0.0678	0.012	-0.5686	
-0.603046	-0.010858	0.74115	-6.37	46.13	-2.73	0.0678	0.0134	-0.5671	
-0.622078	-0.012688	0.729804	-6.23	48.51	-3.15	0.09339999	0.0221	-0.56	
-0.641476	-0.009272	0.719312	-6.09	49.91	-3.36	0.0968	0.015	-0.5611	
-0.664046	-0.012688	0.701744	-6.02	52.92	-3.92	0.1109	0.0216	-0.5621	
-0.683566	-0.021228	0.686616	-7.07	55.09	-3.64	0.1194	0.0142	-0.5583	
-0.70699	-0.013908	0.668072	-7.91	57.05	-2.73	0.121	0.0073	-0.5625	
-0.725046	-0.010248	0.648918	-7.7	58.17	-1.61	0.1292	0.026	-0.5461	
-0.742492	-0.022692	0.634766	-7.28	58.94	-1.19	0.1506	0.0154	-0.543	
-0.750788	-0.02257	0.625982	-7	59.78	-1.68	0.165	0.0176	-0.5408	
-0.758108	-0.015982	0.601338	-7.84	60.83	-1.89	0.1776	0.0256	-0.5389	
-0.765062	-0.007076	0.586088	-9.31	60.97	-1.54	0.1796	0.0239	-0.5327	
-0.777018	-0.00488	0.560712	-10.43	62.86	-0.35	0.189	0.0305	-0.5309	
-0.796538	-0.009881999	0.540704	-9.52	62.86	0.42	0.2003	0.0246	-0.5331	
-0.818742	-0.017568	0.5246	-8.96	62.23	0.56	0.2204	0.0233	-0.5168	
-0.845582	-0.023302	0.510936	-8.47	60.97	-0.14	0.2094	0.0277	-0.5115	
-0.869982	-0.021472	0.497516	-9.1	59.43	-1.26	0.2287	0.0256	-0.5104	
-0.88145	-0.019642	0.484218	-9.45	59.15	-1.75	0.2389	0.0276	-0.4978	
-0.893894	-0.0183	0.473116	-9.73	59.01	-2.52	0.247	0.03	-0.4944	
-0.913536	-0.023912	0.454572	-10.29	60.62	-2.73	0.2716	0.0234	-0.4883	
-0.934032	-0.02989	0.431636	-10.85	60.2	-2.8	0.2707	0.0188	-0.4791	
-0.949648	-0.047458	0.41968	-11.55	58.45	-2.87	0.2642	0.0342	-0.471	
-0.952332	-0.058804	0.397598	-14.14	56.7	-3.15	0.2863	0.0322	-0.4757	
-0.970266	-0.061	0.377712	-16.73	54.88	-4.2	0.292	0.0287	-0.4632	
-0.977952	-0.061244	0.364292	-17.78	54.67	-3.64	0.3017	0.0311	-0.4597	
-0.985028	-0.059414	0.324276	-15.96	57.75	-3.22	0.3029	0.045	-0.4572	
-1.00284	-0.077714	0.301828	-15.26	54.67	-2.87	0.3245	0.0438	-0.4438	
-1.03822	-0.07808	0.305854	-12.39	51.52	-4.62	0.3296	0.0434	-0.4375	
-1.036878	-0.083082	0.290482	-12.11	56.21	-3.5	0.3298	0.0488	-0.4317	
-1.032608	-0.084302	0.24827	-9.1	60.69	-4.62	0.3352	0.0386	-0.4279	
-0.996374	-0.068198	0.20435	-10.78	62.72	-4.34	0.3562	0.0515	-0.4152	
-0.987712	-0.072468	0.191052	-13.02	51.94	-3.01	0.3501	0.0446	-0.4137	
-1.003328	-0.062708	0.172874	-12.88	38.08	-3.15	0.3649	0.048	-0.4055	
-1.038098	-0.072468	0.179584	-15.82	39.83	-0.28	0.3557	0.044	-0.4013	
-1.014552	-0.091378	0.171776	-13.86	51.66	1.75	0.3787	0.0441	-0.3894	
-1.011624	-0.095282	0.210328	-12.39	51.52	1.05	0.3714	0.0587	-0.3965	
-0.994422	-0.099918	0.18788	-10.5	52.71	0.84	0.3897	0.0535	-0.3862	
-0.96624	-0.09162199	0.12261	-7.77	54.53	0.98	0.3934	0.0654	-0.3698	
-0.96014	-0.105164	0.085766	-7.42	48.51	1.05	0.3989	0.0565	-0.3631	
-0.975268	-0.106018	0.097844	-7.07	42.77	1.89	0.3997	0.0492	-0.3552	
-1.014308	-0.088572	0.10431	-3.85	40.18	3.36	0.409	0.0572	-0.3535	
-1.015772	-0.073932	0.12139	-2.31	41.72	3.85	0.4159	0.0553	-0.347	
-1.005524	-0.041114	0.085278	0.42	45.15	3.08	0.4226	0.0508	-0.3434	
-0.989542	-0.047824	0.039772	-2.52	43.47	1.75	0.4124	0.0492	-0.3288	
-0.991982	-0.052704	-0.005734	-4.9	38.92	2.45	0.4326	0.0543	-0.3339	
-1.013576	-0.06283	-0.007076	-5.46	33.95	3.92	0.4267	0.0556	-0.3252	
-1.016504	-0.069174	-0.005856	-3.08	22.89	3.22	0.431	0.0479	-0.3111	
-1.064938	-0.056852	-0.031476	-2.31	20.16	2.59	0.4383	0.0535	-0.3185	
-1.049078	-0.067954	-0.037454	-7.14	30.59	4.55	0.4371	0.0478	-0.3153	
-1.04798	-0.07503	-0.047092	-2.38	29.12	3.71	0.443	0.0497	-0.2954	
-1.057374	-0.06649	-0.074054	-0.7	18.9	3.08	0.4358	0.0399	-0.2893	
-1.050054	-0.057584	-0.087962	-0.98	11.55	2.73	0.4487	0.0448	-0.2827	
-1.04859	-0.064172	-0.071614	-0.91	11.69	2.38	0.4451	0.0466	-0.2891	
-1.048468	-0.071858	-0.08723	-2.73	11.34	2.38	0.4491	0.0511	-0.2996	
-1.042368	-0.061366	-0.104554	-1.26	9.38	1.19	0.4517	0.0407	-0.2885	
-1.039074	-0.054412	-0.088328	2.1	7.49	0.42	0.4402	0.0496	-0.2895	
-1.039684	-0.057828	-0.08845	1.26	6.65	0.56	0.4503	0.0448	-0.2826	
-1.038342	-0.05124	-0.086376	-0.07	2.73	0.49	0.4466	0.0493	-0.2891	
-1.048102	-0.057828	-0.082106	-1.33	0.63	0.77	0.4466	0.0479	-0.289	
-1.040294	-0.058682	-0.073078	-0.56	-0.49	0.49	0.4536	0.0405	-0.2838	
-1.032608	-0.058316	-0.05917	0.49	-0.7	0.35	0.4531	0.0463	-0.2886	
-1.022848	-0.056608	-0.062952	0.7	-0.7	0.28	0.4562	0.049	-0.2886	
-1.023946	-0.055266	-0.060756	-0.28	-2.03	0.14	0.4546	0.0477	-0.2901	
-1.027118	-0.061976	-0.056852	-2.03	-3.71	0.07	0.4528	0.0492	-0.2918	
-1.028826	-0.065636	-0.058194	-2.03	-5.81	-0.35	0.4545	0.0519	-0.2888	
-1.037244	-0.065026	-0.072102	-0.91	-8.05	-1.26	0.4419	0.0412	-0.292	
-1.055422	-0.057584	-0.074054	-0.49	-11.06	-1.96	0.4439	0.0501	-0.3074	
-1.056642	-0.049532	-0.085034	-0.21	-12.25	-2.38	0.4466	0.0425	-0.2934	
-1.067012	-0.045384	-0.111752	-2.66	-16.03	-1.54	0.4592	0.0463	-0.2943	
-1.062864	-0.056364	-0.07747	-4.83	-15.61	-0.91	0.4446	0.051	-0.2953	
-1.057984	-0.058438	-0.07259	-3.57	-16.31	-0.77	0.4443	0.0498	-0.2998	
-1.047858	-0.062342	-0.044286	-2.31	-19.81	-1.26	0.4426	0.0459	-0.3058	
-1.036878	-0.068564	-0.02806	0.7	-19.53	-0.91	0.4346	0.0502	-0.3019	
-1.031022	-0.072224	-0.027328	1.75	-19.39	-0.28	0.4423	0.0502	-0.3075	
-1.02236	-0.073322	-0.005978	1.89	-17.57	-0.7	0.4453	0.0475	-0.3133	
-1.01992	-0.07198	-0.013664	2.03	-21	-1.61	0.43	0.0554	-0.3235	
-1.020286	-0.066856	0.000244	0.77	-24.08	-2.8	0.4175	0.0515	-0.321	
-1.025044	-0.063074	0.012932	0.7	-23.03	-3.36	0.4309	0.0493	-0.3127	
-1.019188	-0.072834	0.01403	2.52	-15.61	-4.34	0.432	0.0455	-0.323	
-1.07726	-0.046116	0.018666	10.01	-35.35	-4.55	0.4351	0.0482	-0.323	
-1.04676	-0.053802	0.038796	3.71	-51.24	-3.92	0.4266	0.0515	-0.3296	
-1.021506	-0.060756	0.039284	7.35	-55.3	-3.57	0.4164	0.055	-0.3379	
-1.03029	-0.058072	0.050752	7.84	-47.88	-3.01	0.4149	0.044	-0.3436	
-1.030168	-0.057828	0.06954	6.23	-51.38	-3.64	0.4045	0.0559	-0.3507	
-1.03151	-0.065026	0.086132	5.67	-51.66	-4.27	0.3955	0.0554	-0.3678	
-1.036512	-0.072224	0.116754	7	-51.94	-5.04	0.3955	0.0513	-0.3707	
-1.034682	-0.082228	0.148718	7.63	-55.3	-5.11	0.3907	0.0542	-0.368	
-1.023214	-0.075274	0.159942	9.45	-59.71	-4.97	0.3828	0.0462	-0.3727	
-0.993568	-0.081252	0.206668	9.52	-61.25	-3.36	0.3797	0.0527	-0.3943	
-0.970876	-0.082594	0.219234	10.92	-59.99	-3.5	0.3661	0.0537	-0.4087	
-0.950502	-0.085766	0.25742	10.85	-59.43	-3.5	0.3527	0.0477	-0.4228	
-0.951234	-0.091744	0.286822	11.97	-59.64	-2.94	0.3398	0.0523	-0.4222	
-0.951966	-0.088572	0.301584	14.91	-57.47	-3.01	0.3379	0.047	-0.4296	
-0.95831	-0.08235	0.33001	15.75	-55.58	-1.4	0.3343	0.0461	-0.4389	
-0.964044	-0.090524	0.366488	16.24	-54.04	-0.07	0.3204	0.0527	-0.4535	
-0.969534	-0.091988	0.36051	17.71	-51.94	0	0.3124	0.0488	-0.4553	
-0.968314	-0.08723	0.384056	18.41	-51.03	-1.05	0.3094	0.0393	-0.4596	
-0.968192	-0.080398	0.39284	18.41	-49.49	-2.24	0.2977	0.0413	-0.4664	
-0.967338	-0.080276	0.415654	17.15	-51.03	-1.68	0.288	0.0376	-0.4713	
-0.967094	-0.07259	0.404552	17.01	-48.44	0.91	0.2894	0.0377	-0.4743	
-0.966972	-0.062586	0.39589	15.4	-49.63	1.61	0.2812	0.034	-0.4806	
-0.951722	-0.05307	0.397842	12.81	-48.58	1.61	0.2675	0.0446	-0.4894	
-0.912682	-0.044286	0.394426	7.49	-51.24	1.4	0.2664	0.0279	-0.4918	
-0.87596	-0.043188	0.415654	5.39	-56.84	-0.35	0.2452	0.0329	-0.4962	
-0.852292	-0.057584	0.462624	6.44	-54.11	-0.63	0.2378	0.0461	-0.5047	
-0.84119	-0.075396	0.504104	6.86	-51.87	-0.07	0.2401	0.0388	-0.4982	
-0.83265	-0.065636	0.52704	6.23	-48.37	1.54	0.2292	0.0345	-0.5228	
-0.804712	-0.042456	0.567056	6.02	-50.33	2.94	0.2175	0.0355	-0.5038	
-0.78507	-0.017568	0.554734	6.86	-51.94	3.92	0.2114	0.0393	-0.524	
-0.759938	-0.02745	0.573522	7.63	-51.66	3.36	0.2038	0.0394	-0.5184	
-0.742492	-0.042456	0.582428	8.96	-50.26	2.8	0.1983	0.0373	-0.5322	
-0.723216	-0.049166	0.592066	9.52	-47.04	2.03	0.1921	0.0263	-0.5351	
-0.724314	-0.032452	0.605852	10.36	-44.1	0.98	0.1685	0.0269	-0.5289	
-0.735538	-0.014518	0.61915	11.97	-42.07	-0.42	0.1753	0.0342	-0.5439	
-0.740784	-0.013664	0.628422	12.18	-42.21	-0.35	0.1536	0.0318	-0.5344	
-0.730414	-0.024156	0.642452	11.41	-43.05	0.35	0.1566	0.025	-0.5431	
-0.72041	-0.029768	0.656604	10.99	-42.28	0.77	0.1502	0.0211	-0.5448	
-0.706502	-0.022936	0.671366	9.38	-41.09	0.7	0.145	0.0229	-0.5512	
-0.697474	-0.018788	0.678808	8.05	-39.69	0.07	0.1446	0.0259	-0.5559	
-0.688934	-0.022814	0.68442	7.07	-36.89	-0.28	0.132	0.0207	-0.5564	
-0.680638	-0.030134	0.697108	6.37	-32.48	0.35	0.131	0.0149	-0.5501	
-0.673684	-0.028426	0.68625	4.13	-38.85	1.96	0.1241	0.008599999	-0.5639	
-0.645502	-0.027816	0.724314	4.06	-38.01	1.61	0.105	0.0229	-0.5534	
-0.617808	-0.025498	0.75152	4.2	-40.18	1.68	0.0997	0.0206	-0.5627	
-0.621346	-0.014518	0.77043	5.81	-22.54	0.14	0.0966	0.0206	-0.5613	
-0.605608	-0.017812	0.7686	5.32	-18.62	-0.21	0.1075	0.0164	-0.5696	
-0.610976	-0.014396	0.745054	5.32	-22.4	-0.84	0.0893	0.0187	-0.5783	
-0.604754	-0.018422	0.75274	3.92	-19.6	-0.7	0.0835	0.0213	-0.5666	
-0.594628	-0.008052	0.761036	2.38	-17.57	-0.35	0.087	0.01	-0.569	
-0.585112	0.001708	0.763354	1.89	-16.24	-0.07	0.0794	0.01	-0.5618	
-0.57401	0.00122	0.769332	1.12	-14.77	0.07	0.0637	0.0155	-0.5811	
-0.573644	-0.002806	0.778726	0.35	-11.83	0.07	0.0643	0.0137	-0.5719	
-0.57157	-0.005246	0.789462	-0.21	-5.25	0.28	0.07889999	0.009	-0.5709	
-0.575352	-0.008174	0.775798	0	-3.01	0.07	0.0661	0.0149	-0.5673	
-0.57462	-0.007564	0.780922	-0.56	-0.84	0.21	0.0669	0.0103	-0.558	
-0.575718	0.002806	0.781898	-0.28	2.66	-0.07	0.077	0.0093	-0.5771	
-0.579744	0.006466	0.775432	-0.07	4.27	-1.05	0.0648	0.0161	-0.5614	
-0.581574	-0.006344	0.784704	-1.26	5.95	-1.82	0.0739	0.0079	-0.5757	
-0.584746	-0.008174	0.774456	-2.24	8.75	-2.45	0.0728	0.009	-0.5667	
-0.582062	-0.01464	0.779214	-4.13	11.69	-2.38	0.0736	0.0245	-0.5703	
-0.590846	-0.013054	0.752984	-4.34	14.91	-2.31	0.0726	0.0132	-0.5669	
-0.591822	-0.018666	0.753228	-5.39	17.22	-2.38	0.0848	0.0256	-0.5697	
-0.596214	-0.020618	0.752252	-5.67	19.81	-2.73	0.0872	0.0126	-0.563	
-0.598898	-0.018422	0.744932	-5.95	22.19	-3.08	0.092	0.0234	-0.5572	
-0.599264	-0.020008	0.738588	-6.09	26.46	-2.87	0.08679999	0.017	-0.5678	
-0.61244	-0.032452	0.72163	-5.32	31.78	-3.22	0.09959999	0.0152	-0.5685	
-0.622444	-0.038552	0.71309	-6.02	35.56	-2.87	0.1126	0.0215	-0.5605	
-0.632082	-0.035258	0.704184	-6.3	39.48	-2.94	0.1106	0.026	-0.5653	
-0.6405	-0.03416	0.697962	-6.65	42.91	-3.01	0.1206	0.0226	-0.5586	
-0.65636	-0.031354	0.687348	-6.93	46.83	-2.66	0.1384	0.0246	-0.5531	
-0.672952	-0.026474	0.67405	-6.93	49.21	-2.87	0.1273	0.0277	-0.5508	
-0.69113	-0.03111	0.664412	-8.12	51.38	-2.1	0.1443	0.0384	-0.5534	
-0.70333	-0.033306	0.647088	-8.89	53.41	-1.33	0.163	0.0275	-0.5413	
-0.721508	-0.040382	0.627568	-10.15	55.79	-0.07	0.1756	0.0327	-0.5408	
-0.74176	-0.03843	0.604388	-10.99	57.19	0.98	0.1775	0.0256	-0.5404	
-0.751642	-0.044652	0.58865	-11.41	56.63	1.47	0.1801	0.0355	-0.5437	
-0.758962	-0.052704	0.566812	-11.2	57.61	1.89	0.2003	0.0341	-0.5259	
-0.779336	-0.054778	0.543632	-9.17	60.34	1.61	0.1958	0.0328	-0.5231	
-0.81801	-0.054534	0.521428	-8.33	61.39	1.4	0.2151	0.0402	-0.5148	
-0.854976	-0.053802	0.512034	-9.38	60.48	1.89	0.2299	0.0382	-0.5093	
-0.87535	-0.04636	0.501176	-10.08	60.06	2.03	0.2346	0.0394	-0.5091	
-0.881694	-0.037576	0.481778	-10.22	59.36	2.45	0.2462	0.0402	-0.5025	
-0.902678	-0.027572	0.464454	-9.87	59.57	1.96	0.2629	0.0337	-0.4937	
-0.91744	-0.03111	0.44835	-9.73	58.73	2.17	0.2695	0.0306	-0.4917	
-0.923296	-0.049044	0.427488	-10.71	57.54	1.75	0.2781	0.034	-0.4793	
-0.954162	-0.06649	0.409432	-12.18	56.63	0.84	0.2845	0.0366	-0.4775	
-0.985882	-0.069296	0.39284	-12.18	56.28	0.98	0.2852	0.0388	-0.464	
-0.980026	-0.07564	0.369416	-11.55	57.47	1.05	0.3091	0.0449	-0.4599	
-0.99186	-0.064294	0.349408	-9.73	52.85	0.14	0.3014	0.045	-0.4558	
-1.034438	-0.069052	0.315248	-8.26	56.63	0.28	0.321	0.04	-0.4514	
-1.052982	-0.071736	0.29768	-9.17	56.21	-0.21	0.3225	0.0441	-0.45	
-1.018212	-0.091256	0.264862	-10.36	61.81	-0.21	0.3256	0.055	-0.4442	
-0.971608	-0.092232	0.255224	-11.76	66.36	-0.49	0.3393	0.054	-0.4298	
-0.985638	-0.076006	0.213744	-14.07	61.6	-2.8	0.3511	0.0409	-0.4271	
-1.008696	-0.060878	0.204838	-16.45	60.41	-1.61	0.3607	0.0515	-0.4195	
-1.037732	-0.070028	0.246562	-17.01	58.17	0.63	0.368	0.0507	-0.4039	
-1.01931	-0.07381	0.207278	-14.49	47.04	2.03	0.3717	0.0461	-0.399	
-0.983076	-0.078568	0.192272	-12.95	44.73	2.17	0.3722	0.054	-0.3857	
-0.97051	-0.071614	0.149938	-9.38	52.36	2.03	0.3821	0.0467	-0.3848	
-0.987834	-0.07015	0.118584	-8.89	53.41	1.26	0.3888	0.0504	-0.377	
-0.992592	-0.081374	0.149084	-8.89	51.94	0.77	0.3973	0.0484	-0.3689	
-1.011136	-0.08784	0.115412	-7.77	50.75	0.91	0.4012	0.0464	-0.358	
-1.009428	-0.099186	0.151768	-6.65	49.63	2.38	0.3993	0.0535	-0.3584	
-0.99918	-0.08235	0.080276	-4.55	50.68	2.59	0.4085	0.0511	-0.3397	
-0.991006	-0.07137	0.043066	-4.06	49	2.1	0.4216	0.0395	-0.3415	
-0.99308	-0.063928	0.030378	-2.38	46.27	0.84	0.4237	0.0515	-0.3252	
-1.013576	-0.062586	0.01769	-2.24	41.79	-0.35	0.4222	0.0528	-0.3223	
-1.030046	-0.058438	-0.014274	-1.75	38.01	-0.35	0.4306	0.0536	-0.3144	
-1.054446	-0.052948	-0.00854	-3.08	35.42	1.54	0.4296	0.0464	-0.3081	
-1.042856	-0.049166	-0.027328	-2.38	27.72	2.17	0.4246	0.0522	-0.3086	
-1.043954	-0.05978	-0.029768	-2.73	18.55	2.17	0.434	0.0602	-0.3069	
-1.0614	-0.070028	-0.077836	-3.43	14.35	1.96	0.4456	0.0541	-0.303	
-1.04188	-0.088938	-0.077714	-8.05	25.13	3.71	0.4465	0.0521	-0.2892	
-1.037976	-0.09076799	-0.069784	-3.43	26.46	2.87	0.4483	0.041	-0.2917	
-1.043222	-0.08174	-0.064172	-1.82	20.23	1.96	0.4436	0.0438	-0.289	
-1.04615	-0.066612	-0.081374	-0.98	10.15	1.12	0.46	0.0499	-0.2778	
-1.058106	-0.060756	-0.104432	-0.42	4.13	0.28	0.449	0.0337	-0.2853	
-1.061766	-0.069296	-0.106018	-0.63	2.8	0.07	0.455	0.0515	-0.2796	
-1.053836	-0.064416	-0.088206	0.42	3.57	0.21	0.4469	0.0505	-0.2831	
-1.034072	-0.064294	-0.064416	1.89	5.39	0.42	0.4643	0.0542	-0.2838	
-1.02297	-0.052826	-0.084668	1.4	3.57	0.14	0.4587	0.0456	-0.2747	
-1.034072	-0.055632	-0.088206	-1.19	0	0.42	0.4531	0.0531	-0.2844	
-1.036512	-0.06734399	-0.078446	-1.68	-0.28	0.28	0.4618	0.0387	-0.2818	
-1.031632	-0.074542	-0.04514	-0.42	-1.05	-0.42	0.4502	0.0503	-0.2814	
-1.03212	-0.066368	-0.05368	-0.21	-3.71	-0.42	0.4436	0.0466	-0.2876	
-1.021506	-0.05978	-0.04087	-0.98	-6.72	-0.07	0.454	0.0498	-0.2705	
-1.021628	-0.061366	-0.066246	-1.26	-7.49	-0.14	0.4518	0.0475	-0.2827	
-1.025044	-0.071614	-0.069662	-1.75	-9.73	-0.77	0.4613	0.0473	-0.2852	
-1.036512	-0.072712	-0.062586	-1.12	-12.18	-1.61	0.453	0.0505	-0.2873	
-1.04432	-0.067832	-0.082838	-2.17	-12.81	-1.26	0.4449	0.0535	-0.2878	
-1.047126	-0.066002	-0.062586	-1.47	-11.69	-1.05	0.4488	0.0581	-0.2999	
-1.048468	-0.064904	-0.063074	-1.12	-10.29	-0.7	0.4414	0.0512	-0.2955	
-1.043954	-0.06649	-0.071126	-0.84	-12.04	-0.35	0.4445	0.0524	-0.2954	
-1.034682	-0.06734399	-0.067466	-1.75	-12.46	0.42	0.44	0.0483	-0.2924	
-1.039806	-0.066612	-0.06283	-0.42	-10.85	-0.63	0.4366	0.0472	-0.2971	
-1.043588	-0.068564	-0.02074	3.99	-15.61	-2.38	0.4411	0.0486	-0.3015	
-1.037488	-0.066002	-0.014152	0.35	-24.15	-1.54	0.4339	0.0603	-0.3084	
-1.022604	-0.069174	-0.013664	0.49	-29.26	-1.89	0.4294	0.0466	-0.3126	
-1.022116	-0.064782	-0.004148	1.12	-26.04	-1.82	0.4404	0.0504	-0.3122	
-1.020042	-0.067954	0.00671	0.14	-29.4	-2.59	0.4388	0.0518	-0.3108	
-1.03029	-0.077592	0.020862	-0.91	-34.72	-2.87	0.4263	0.0572	-0.3314	
-1.03639	-0.070028	0.040504	2.1	-37.17	-3.57	0.4255	0.0512	-0.3206	
-1.028216	-0.06649	0.064172	5.95	-39.2	-3.71	0.4155	0.056	-0.3259	
-1.019676	-0.06832	0.065392	6.58	-40.6	-3.85	0.4157	0.0568	-0.3486	
-1.02053	-0.074786	0.06283	5.6	-43.47	-3.78	0.4107	0.0544	-0.3533	
-1.022482	-0.06466	0.075884	6.09	-44.94	-4.34	0.4008	0.0508	-0.3613	
-1.021384	-0.066246	0.09467199	5.46	-47.18	-4.34	0.4004	0.0607	-0.3632	
-1.039318	-0.06405	0.106506	4.83	-50.26	-4.62	0.4004	0.0579	-0.3646	
-1.044808	-0.07747	0.127856	5.67	-52.36	-4.62	0.3906	0.0597	-0.3667	
-1.042612	-0.084912	0.141886	8.68	-54.88	-4.55	0.3768	0.065	-0.3813	
-1.027728	-0.09076799	0.188124	10.36	-58.31	-3.99	0.3718	0.0584	-0.3889	
-0.996008	-0.08686399	0.222162	10.64	-59.78	-2.94	0.3681	0.0547	-0.3995	
-0.973926	-0.089182	0.232898	10.71	-56.84	-2.31	0.3582	0.0553	-0.4062	
-0.97112	-0.093208	0.239486	12.04	-54.6	-2.45	0.3444	0.0604	-0.4192	
-0.974292	-0.088572	0.266448	14.14	-56.84	-2.94	0.3528	0.0572	-0.4141	
-0.973804	-0.089426	0.314882	15.47	-59.5	-2.17	0.3296	0.0585	-0.429	
-0.960994	-0.096136	0.33489	17.43	-57.61	-0.21	0.3233	0.0504	-0.4321	
-0.974414	-0.083692	0.354898	18.2	-53.83	1.19	0.3178	0.0565	-0.4402	
-0.9577	-0.089304	0.354654	17.57	-52.71	2.59	0.3073	0.0615	-0.4531	
-0.94916	-0.094794	0.393816	15.96	-53.83	2.17	0.2998	0.056	-0.4487	
-0.951356	-0.08662	0.399062	17.08	-52.92	0.63	0.3041	0.052	-0.4589	
-0.94306	-0.067466	0.427244	16.73	-50.4	-0.91	0.2961	0.0441	-0.4651	
-0.91317	-0.057096	0.415654	16.87	-49.56	-0.84	0.2845	0.042	-0.4732	
-0.892308	-0.05551	0.441762	14.21	-50.61	-0.35	0.2755	0.0406	-0.4646	
-0.883646	-0.052094	0.4331	14.07	-50.68	-0.14	0.2734	0.0382	-0.4752	
-0.886208	-0.049776	0.443958	14.63	-49.63	0.35	0.2518	0.0449	-0.4842	
-0.887306	-0.055144	0.48251	14.14	-51.66	1.05	0.2418	0.04	-0.4951	
-0.890844	-0.032086	0.479948	15.61	-55.16	1.61	0.2518	0.034	-0.4928	
-0.86437	-0.02989	0.525942	12.6	-57.54	3.5	0.234	0.0347	-0.4953	
-0.859246	-0.027694	0.51118	10.92	-51.31	3.57	0.2433	0.0277	-0.5051	
-0.843874	-0.030622	0.528504	9.1	-54.32	3.99	0.2267	0.0369	-0.5094	
-0.82533	-0.03721	0.549854	7.35	-56.98	3.29	0.2073	0.0295	-0.5193	
-0.802272	-0.02196	0.563518	8.33	-55.51	2.17	0.1994	0.0201	-0.5239	
-0.773236	-0.022082	0.58621	8.47	-55.65	1.33	0.1828	0.0237	-0.5325	
-0.74176	-0.036478	0.609634	7.49	-54.88	1.33	0.1787	0.0234	-0.5206	
-0.724558	-0.0427	0.638792	7.56	-52.92	0.63	0.1647	0.0233	-0.541	
-0.716262	-0.03782	0.6588	6.79	-50.26	0.63	0.1564	0.0238	-0.5476	
-0.70394	-0.03965	0.663436	7.56	-50.05	0	0.1458	0.0251	-0.5361	
-0.689178	-0.040504	0.676734	9.1	-50.33	-0.21	0.1293	0.026	-0.5446	
-0.664046	-0.042456	0.677466	8.96	-47.39	1.19	0.1275	0.0248	-0.5492	
-0.645746	-0.03172	0.652944	8.19	-50.82	3.22	0.1078	0.0271	-0.5564	
-0.636962	-0.014396	0.690642	7.14	-50.54	3.15	0.1119	0.0233	-0.5712	
-0.621102	-0.015494	0.710406	9.31	-46.27	2.38	0.0933	0.0277	-0.5588	
-0.61732	-0.01098	0.69967	8.68	-49.98	2.31	0.0898	0.0253	-0.5664	
-0.598166	-0.02074	0.78141	8.19	-36.75	1.54	0.0825	0.0141	-0.5603	
-0.603778	-0.01769	0.757132	7.49	-29.68	2.59	0.09649999	0.0125	-0.5686	
-0.5917	-0.005368	0.761158	7.21	-31.57	0.63	0.0692	0.0203	-0.5658	
-0.580232	0.002928	0.7747	4.41	-29.96	2.03	0.0734	0.0137	-0.5805	
-0.567422	-0.001464	0.773602	3.85	-29.12	2.24	0.0661	0.0163	-0.5674	
-0.559004	-0.001586	0.779702	3.57	-27.16	1.75	0.0577	0.0099	-0.5781	
-0.54717	0.000366	0.784338	3.36	-24.92	1.89	0.0501	0.01	-0.5725	
-0.539606	0.005002	0.784948	3.15	-22.19	2.31	0.0549	0.0152	-0.5679	
-0.534604	0.011956	0.807762	3.43	-15.54	2.87	0.045	0.0172	-0.5731	
-0.541924	0.020374	0.807884	2.52	-14	3.08	0.047	0.01	-0.5697	
-0.543144	0.024766	0.820206	0.07	-12.6	2.38	0.0486	0.0141	-0.5682	
-0.53375	0.004636	0.822768	-0.49	-8.89	2.03	0.0405	0.0089	-0.573	
-0.528504	-0.006832	0.814594	0	-6.37	1.68	0.0438	0.0074	-0.5728	
-0.527406	-0.000122	0.812886	1.12	-3.92	1.12	0.0339	0.0202	-0.5693	
-0.528382	0.014152	0.817522	2.45	0.28	0.14	0.0443	0.007	-0.5636	
-0.531798	0.020984	0.80581	1.19	2.31	-0.7	0.0361	0.0088	-0.5657	
-0.533628	0.020496	0.798734	-1.33	5.39	-0.91	0.0372	0.005	-0.5776	
-0.535336	0.015128	0.79971	-2.52	7.77	-1.4	0.0452	0.0047	-0.5771	
-0.53314	0.009881999	0.801906	-3.43	9.24	-2.1	0.0516	0.0127	-0.571	
-0.536068	0.003782	0.801418	-4.13	11.48	-2.52	0.0448	0.0145	-0.5775	
-0.549244	-0.004758	0.80032	-4.27	13.65	-2.8	0.0374	0.0158	-0.5674	
-0.558028	-0.006344	0.80642	-3.99	15.19	-3.36	0.0435	0.0048	-0.5787	
-0.56486	-0.001342	0.805932	-3.85	17.01	-3.57	0.0596	0.0124	-0.5721	
-0.563518	-0.008052	0.790072	-3.15	19.95	-4.06	0.0516	0.01	-0.5739	
-0.563762	-0.01342	0.777262	-3.99	23.38	-3.92	0.0628	0.0164	-0.5691	
-0.573278	-0.015128	0.761036	-4.34	27.58	-3.92	0.0551	0.0096	-0.5677	
-0.582916	-0.00732	0.754936	-4.76	30.17	-3.99	0.0625	0.0153	-0.5751	
-0.593652	-0.004514	0.748836	-4.27	32.2	-4.62	0.0741	0.0119	-0.5698	
-0.601216	-0.005734	0.757376	-4.83	34.79	-4.83	0.0805	0.0172	-0.5666	
-0.613294	-0.01342	0.753838	-5.32	38.5	-5.32	0.08859999	0.0154	-0.5646	
-0.623542	-0.016836	0.74115	-6.86	43.05	-4.69	0.0918	0.0208	-0.5616	
-0.631228	-0.018788	0.72102	-7.56	44.59	-4.13	0.1079	0.0133	-0.5634	
-0.640378	-0.018788	0.703696	-8.26	47.32	-3.01	0.1078	0.0326	-0.5536	
-0.653066	-0.021472	0.692472	-8.33	48.79	-2.45	0.1241	0.0209	-0.5553	
-0.66795	-0.024278	0.675758	-8.47	50.68	-2.31	0.1291	0.0165	-0.5548	
-0.684542	-0.028182	0.666242	-9.31	52.64	-2.24	0.1423	0.0213	-0.5437	
-0.709308	-0.028914	0.649162	-9.38	55.65	-1.96	0.1474	0.0196	-0.5403	
-0.730658	-0.029158	0.632814	-9.59	57.05	-1.4	0.16	0.0261	-0.5384	
-0.750178	-0.042334	0.607804	-10.36	57.33	-0.91	0.1794	0.0226	-0.5357	
-0.761036	-0.045872	0.593896	-10.22	58.52	-0.28	0.1857	0.0321	-0.5327	
-0.777384	-0.0427	0.570716	-10.22	60.9	0.49	0.1974	0.0272	-0.5258	
-0.795074	-0.042334	0.54656	-10.99	61.46	1.47	0.2069	0.0365	-0.5211	
-0.812398	-0.045994	0.535946	-11.83	59.22	2.03	0.2199	0.0346	-0.5188	
-0.840458	-0.052094	0.519842	-11.76	58.38	2.45	0.2177	0.0272	-0.5065	
-0.86803	-0.05673	0.494588	-11.62	58.94	3.01	0.2385	0.0348	-0.5012	
-0.88572	-0.062586	0.482998	-12.53	57.54	3.57	0.2518	0.0435	-0.4857	
-0.895602	-0.062342	0.47275	-12.18	57.33	2.87	0.2505	0.0338	-0.4868	
-0.912682	-0.055632	0.440542	-10.64	59.15	2.73	0.2731	0.0316	-0.484	
-0.91195	-0.044896	0.427732	-10.99	59.08	2.24	0.2672	0.0355	-0.4724	
-0.943304	-0.042578	0.40443	-11.97	57.89	1.05	0.2705	0.034	-0.4721	
-0.9394	-0.06344	0.3965	-13.51	54.53	0.28	0.2866	0.0348	-0.4698	
-0.959408	-0.07259	0.374784	-16.66	54.04	0.42	0.2997	0.0437	-0.4573	
-0.977464	-0.065148	0.367098	-14.14	56	0.63	0.3046	0.0449	-0.4556	
-0.98515	-0.065758	0.319762	-13.65	59.57	0.49	0.3193	0.0414	-0.4516	
-1.0065	-0.06588	0.29524	-15.4	54.53	-0.77	0.3298	0.0447	-0.4345	
-1.037366	-0.067466	0.315736	-14.21	50.33	-2.52	0.3343	0.0529	-0.4331	
-1.035658	-0.076738	0.28975	-10.36	53.83	-3.01	0.3408	0.043	-0.4384	
-1.02114	-0.078202	0.268278	-10.64	58.38	-1.54	0.3508	0.0452	-0.4288	
-0.990762	-0.07625	0.23424	-11.76	61.53	-1.68	0.353	0.0488	-0.4168	
-0.964776	-0.0732	0.183122	-13.58	63.63	0.35	0.3563	0.0569	-0.4093	
-0.965752	-0.07015	0.16592	-14.77	53.69	-0.63	0.3765	0.0473	-0.3973	
-1.010282	-0.065392	0.16165	-14.21	46.06	0.21	0.3718	0.0474	-0.396	
-1.021506	-0.065636	0.204716	-14.63	44.1	0.49	0.3766	0.0596	-0.3887	
-1.022482	-0.066246	0.195444	-11.41	49.21	0.91	0.3805	0.0645	-0.3735	
-0.991616	-0.071492	0.162504	-10.99	54.32	0.91	0.3904	0.0544	-0.3741	
-0.978928	-0.079788	0.131394	-9.03	52.15	0.56	0.389	0.0543	-0.3711	
-0.979172	-0.102358	0.08662	-8.47	46.97	0.07	0.408	0.0528	-0.3458	
-0.97417	-0.107604	0.095404	-8.61	43.26	1.4	0.4014	0.0477	-0.3535	
-1.003938	-0.104188	0.0671	-5.67	45.22	2.87	0.4092	0.0543	-0.3519	
-1.006134	-0.098942	0.099796	-3.01	45.64	1.96	0.4168	0.0479	-0.3361	
-1.02907	-0.081008	0.062708	-0.07	46.13	1.26	0.4231	0.0587	-0.3301	
-1.020042	-0.068564	0.019276	-0.42	41.09	1.4	0.4221	0.0501	-0.3253	
-1.019554	-0.060512	-0.007442	-1.68	35.21	2.03	0.4271	0.0553	-0.3176	
-1.02541	-0.059658	-0.012322	-0.35	23.31	1.4	0.4338	0.0508	-0.3156	
-1.034682	-0.064904	-0.023668	-8.54	23.94	4.76	0.4374	0.049	-0.3093	
-1.02846	-0.068198	0.00244	-3.99	26.11	4.34	0.441	0.0473	-0.3044	
-1.032974	-0.077348	-0.023546	-2.38	23.87	3.57	0.4393	0.0488	-0.3046	
-1.02419	-0.090158	-0.049044	-0.49	17.64	0.7	0.448	0.0481	-0.2935	
-1.050298	-0.073566	-0.092842	0.7	15.61	0.42	0.4446	0.0469	-0.2967	
-1.070306	-0.074786	-0.0671	0.7	13.86	-0.07	0.4462	0.0523	-0.2938	
-1.070672	-0.072102	-0.074664	-2.17	13.09	0	0.454	0.0522	-0.2979	
-1.074942	-0.066978	-0.097356	-1.26	7.91	-0.56	0.4521	0.0377	-0.2838	
-1.0675	-0.061732	-0.105652	-1.4	8.61	-0.07	0.4458	0.0594	-0.2956	
-1.049444	-0.062586	-0.118096	-0.63	5.88	-0.21	0.4463	0.0564	-0.2894	
-1.043954	-0.067954	-0.10126	-2.31	3.08	0.21	0.4567	0.05	-0.2795	
-1.040538	-0.069174	-0.097844	-1.96	2.52	0.63	0.4582	0.0514	-0.2795	
-1.03822	-0.071858	-0.097112	-1.4	2.24	0.7	0.4513	0.0506	-0.2889	
-1.044686	-0.07198	-0.097234	-1.61	-0.56	0.35	0.4483	0.0533	-0.2846	
-1.040904	-0.084546	-0.071614	-0.56	-2.24	-0.07	0.4544	0.0574	-0.2875	
-1.02968	-0.080276	-0.046482	0.98	-3.22	-0.42	0.4463	0.0564	-0.2894	
-1.020164	-0.074664	-0.038552	1.89	-3.29	-0.7	0.4443	0.0567	-0.2956	
-1.019554	-0.06893	-0.038674	0.56	-3.36	-0.77	0.4416	0.0537	-0.2895	
-1.021872	-0.060756	-0.048434	-0.14	-5.81	-0.84	0.4513	0.0506	-0.2889	
-1.027972	-0.066002	-0.041236	-1.68	-7.49	-0.84	0.4581	0.0501	-0.2824	
-1.027972	-0.061976	-0.047092	-1.19	-10.22	-0.7	0.4468	0.0519	-0.2831	
-1.024922	-0.06588	-0.039162	-0.35	-10.01	-1.19	0.4394	0.0611	-0.296	
-1.02663	-0.070394	-0.046482	0.42	-8.19	-1.4	0.4472	0.0568	-0.3015	
-1.026264	-0.072224	-0.056242	0.14	-7.49	-0.84	0.4394	0.0624	-0.2946	
-1.041148	-0.074664	-0.069296	0.42	-9.38	-0.63	0.4455	0.0542	-0.3045	
-1.048224	-0.076982	-0.065392	0.7	-12.95	-0.91	0.4495	0.0481	-0.2949	
-1.057496	-0.07686	-0.05124	-0.49	-16.52	-0.77	0.4424	0.057	-0.3017	
-1.040416	-0.090402	-0.033306	1.19	-17.43	-1.12	0.4404	0.0573	-0.3079	
-1.037366	-0.07124799	-0.033428	4.13	-16.73	-2.38	0.439	0.0531	-0.3078	
-1.02663	-0.076982	-0.019398	3.85	-17.78	-1.89	0.4376	0.053	-0.3049	
-1.026386	-0.075274	-0.00671	3.22	-19.95	-1.12	0.4452	0.0585	-0.3077	
-1.026874	-0.072468	-0.002562	3.22	-26.6	-1.19	0.4355	0.0547	-0.3111	
-1.019432	-0.074054	0.008662	2.45	-33.39	-1.68	0.4329	0.0476	-0.3064	
-1.026386	-0.073566	0.016592	2.45	-36.26	-2.17	0.4291	0.0536	-0.3129	
-1.036146	-0.074908	0.037088	2.45	-36.47	-2.94	0.4295	0.0557	-0.3311	
-1.03456	-0.075884	0.04758	2.45	-39.13	-3.43	0.4286	0.0512	-0.3219	
-1.028216	-0.084424	0.064172	2.31	-40.88	-3.15	0.4166	0.0521	-0.3362	
-1.025288	-0.082228	0.07991	2.45	-45.99	-3.85	0.4096	0.0555	-0.3443	
-1.016138	-0.07686	0.103578	4.41	-46.97	-4.48	0.4079	0.046	-0.3531	
-1.011746	-0.068564	0.11163	6.23	-47.18	-4.97	0.4071	0.0479	-0.3653	
-1.0004	-0.068442	0.119316	6.65	-48.51	-5.46	0.3916	0.0614	-0.3758	
-1.01016	-0.08235	0.1647	7.77	-51.03	-5.46	0.3836	0.0604	-0.3777	
-1.00894	-0.089548	0.18361	10.36	-51.1	-5.25	0.3787	0.0647	-0.3767	
-0.99552	-0.090524	0.210938	13.51	-53.27	-5.18	0.3698	0.0669	-0.3909	
-0.98576	-0.089792	0.243634	15.26	-52.36	-5.11	0.3659	0.0689	-0.4017	
-0.974536	-0.08418	0.248148	15.61	-50.12	-4.76	0.3571	0.0495	-0.3999	
-0.968436	-0.081252	0.262788	15.47	-47.6	-3.71	0.3558	0.0586	-0.417	
-0.970266	-0.098698	0.258152	14.91	-47.18	-2.1	0.3524	0.0575	-0.4217	
-0.984418	-0.113216	0.296948	14.84	-49	-0.35	0.3413	0.0564	-0.4207	
-0.985516	-0.118218	0.341966	16.59	-47.11	0.84	0.3448	0.0396	-0.4259	
-0.96685	-0.123464	0.355752	17.08	-41.23	1.54	0.3221	0.0434	-0.4303	
-0.926224	-0.101016	0.372588	15.89	-36.89	-0.07	0.3276	0.0519	-0.4395	
-0.898286	-0.081862	0.369294	15.12	-34.58	-2.66	0.3195	0.0441	-0.4472	
-0.884012	-0.091378	0.362096	11.69	-30.94	-3.29	0.3149	0.0427	-0.4443	
-0.867786	-0.088328	0.39162	11.06	-27.79	-2.59	0.3097	0.0472	-0.4478	
-0.85644	-0.085766	0.407724	11.76	-28.49	-0.63	0.3007	0.0523	-0.4621	
-0.833992	-0.076128	0.412116	11.41	-30.59	2.66	0.3079	0.0433	-0.4538	
-0.828746	-0.076006	0.43676	11.48	-31.57	5.39	0.2984	0.0501	-0.4758	
-0.838506	-0.0671	0.432612	12.11	-25.27	6.51	0.2924	0.0459	-0.4729	
-0.869372	-0.07124799	0.448838	10.08	-20.72	4.97	0.2914	0.0387	-0.4666	
-0.89731	-0.068564	0.457744	7.91	-17.5	3.92	0.2813	0.0476	-0.4706	
-0.895724	-0.055876	0.457866	5.53	-17.15	4.55	0.2843	0.0367	-0.4806	
-0.88023	-0.049044	0.46848	3.01	-17.78	6.65	0.2826	0.0422	-0.4779	
-0.871812	-0.050752	0.439322	0.49	-14.91	8.4	0.2805	0.0389	-0.4627	
-0.857904	-0.058316	0.447984	-0.56	-14.7	9.03	0.2621	0.0441	-0.473	
-0.85583	-0.052948	0.454572	0.56	-13.02	8.05	0.2716	0.0357	-0.4797	
-0.862662	-0.051362	0.45689	3.43	-11.9	6.37	0.2683	0.0372	-0.4799	
-0.881816	-0.04453	0.464088	6.02	-12.18	4.83	0.2635	0.036	-0.4817	
-0.890844	-0.027206	0.47641	7	-10.43	3.57	0.2718	0.0355	-0.4767	
-0.88023	-0.01281	0.477264	6.37	-10.15	2.38	0.2648	0.0242	-0.4675	
-0.86803	-0.005246	0.474946	4.13	-10.78	1.96	0.2571	0.028	-0.4862	
-0.856196	-0.009028	0.4697	3.43	-8.96	1.4	0.2608	0.0289	-0.477	
-0.857538	-0.017446	0.473116	3.99	-8.61	1.12	0.2589	0.021	-0.4889	
-0.868396	-0.032452	0.472384	4.83	-7.56	0.84	0.2601	0.028	-0.4906	
-0.872788	-0.03782	0.481778	7	-7.42	0.7	0.2557	0.0252	-0.4862	
-0.862174	-0.02196	0.486414	8.4	-7.7	0.56	0.2704	0.0245	-0.4808	
-0.843142	-0.002928	0.493856	7.84	-8.19	-0.07	0.2584	0.0281	-0.4922	
-0.828624	-0.000488	0.496784	6.51	-5.25	-1.26	0.2698	0.0208	-0.4928	
-0.829356	-0.010858	0.496784	6.3	-2.59	-2.38	0.2487	0.0271	-0.4942	
-0.835578	-0.04209	0.497028	4.27	-1.26	-2.8	0.2603	0.0252	-0.489	
-0.848754	-0.07991	0.50386	3.85	-1.19	-2.03	0.2518	0.0179	-0.4755	
-0.857538	-0.069174	0.50264	4.9	0.98	1.82	0.2523	0.0172	-0.4936	
-0.859856	-0.058316	0.49654	5.67	1.12	4.34	0.2568	0.0255	-0.4937	
-0.864858	-0.044042	0.492514	5.74	2.8	5.67	0.2557	0.0197	-0.489	
-0.87108	-0.04758	0.484584	4.9	5.53	6.51	0.2518	0.023	-0.4984	
-0.872422	-0.057706	0.482998	3.78	5.81	8.33	0.2538	0.0213	-0.4937	
-0.86986	-0.062098	0.482022	2.52	5.32	10.29	0.2508	0.0131	-0.495	
-0.872178	-0.052948	0.486658	1.89	6.23	12.25	0.2564	0.0042	-0.4868	
-0.872422	-0.039162	0.489708	2.38	7.42	13.09	0.248	0.0088	-0.4905	
-0.876204	-0.032452	0.483242	2.1	8.82	13.37	0.2593	0.0152	-0.4841	
-0.889624	-0.023912	0.471042	1.19	8.47	13.16	0.2659	0.007999999	-0.4864	
-0.898286	-0.019764	0.50203	0.56	7.28	14.35	0.2559	0.008599999	-0.4931	
-0.902678	0.005734	0.489098	0.84	8.12	15.12	0.2605	0.0209	-0.4873	
-0.889014	0.016348	0.463356	1.96	9.24	14.7	0.2615	0.0011	-0.4834	
-0.8967	0.01586	0.458964	3.22	10.15	14.56	0.2679	-0.0004	-0.4845	
-0.918904	0.015128	0.453474	4.13	9.38	14.84	0.2652	-0.002	-0.477	
-0.94489	0.02196	0.460062	5.11	7.7	15.75	0.2649	0.0008	-0.4802	
-0.946354	0.032086	0.459452	6.93	7.21	17.22	0.2713	-0.0048	-0.4841	
-0.936228	0.044408	0.434686	9.59	6.37	16.94	0.2766	-0.0012	-0.4719	
-0.916586	0.052948	0.42029	7.98	4.83	16.87	0.2675	-0.019	-0.4762	
-0.910486	0.065514	0.420168	5.39	4.2	17.43	0.2694	-0.0124	-0.4657	
-0.914024	0.072956	0.425414	4.76	2.59	18.34	0.2678	-0.0192	-0.4701	
-0.923052	0.077104	0.440176	7.07	0	18.41	0.2625	-0.0173	-0.478	
-0.928176	0.081618	0.454694	9.59	-1.05	16.94	0.2706	-0.0177	-0.4761	
-0.90707	0.081008	0.454328	9.38	-0.28	14.35	0.2688	-0.0216	-0.482	
-0.884622	0.089304	0.440664	7.98	1.12	12.39	0.2803	-0.0263	-0.4797	
-0.882792	0.102968	0.424316	7.91	1.05	12.95	0.271	-0.0234	-0.4728	
-0.890234	0.115778	0.44225	9.1	-1.47	14.21	0.2758	-0.0249	-0.474	
-0.906704	0.119194	0.4453	9.59	-3.29	14.28	0.2662	-0.026	-0.4744	
-0.92049	0.099918	0.463112	9.17	-4.48	13.72	0.2631	-0.0314	-0.4774	
-0.915122	0.09516	0.458842	9.66	-3.15	12.32	0.2712	-0.0358	-0.4783	
-0.88511	0.115534	0.442006	10.92	-2.52	10.99	0.2647	-0.0329	-0.4773	
-0.86193	0.135908	0.426146	10.5	-3.57	11.27	0.2711	-0.0303	-0.4755	
-0.866688	0.153354	0.43188	9.8	-3.99	11.41	0.2668	-0.0332	-0.4696	
-0.876082	0.162382	0.444568	8.68	-3.36	10.15	0.2826	-0.035	-0.4732	
-0.890112	0.156404	0.449448	6.93	-1.47	7.98	0.2738	-0.0517	-0.4699	
-0.894016	0.141032	0.446276	6.65	-0.42	6.51	0.2736	-0.0515	-0.4745	
-0.884988	0.142252	0.445422	7.63	-1.19	5.88	0.2687	-0.0458	-0.472	
-0.874496	0.155672	0.443226	8.68	-2.59	5.46	0.2687	-0.0417	-0.4691	
-0.866566	0.168604	0.455548	7.63	-3.92	4.34	0.2656	-0.0499	-0.4735	
-0.870714	0.177998	0.464942	5.25	-3.22	2.45	0.272	-0.0514	-0.4746	
-0.869982	0.177754	0.46299	3.08	-0.42	1.12	0.269	-0.0515	-0.4702	
-0.860954	0.174216	0.446642	1.26	1.26	0.56	0.2737	-0.0543	-0.4744	
-0.864614	0.175802	0.433466	-0.35	1.12	0.07	0.2621	-0.0496	-0.4782	
-0.874496	0.171288	0.44835	-0.91	-0.77	-1.54	0.266	-0.0543	-0.4688	
-0.880108	0.176168	0.453352	-0.7	-0.63	-2.94	0.2627	-0.0513	-0.4691	
-0.873886	0.17812	0.454816	-1.4	0.98	-3.99	0.2719	-0.0473	-0.4733	
-0.866322	0.17446	0.453962	-2.52	1.75	-4.69	0.2626	-0.0499	-0.4706	
-0.869616	0.165676	0.45201	-3.08	2.38	-5.04	0.2573	-0.0508	-0.48	
-0.865956	0.160308	0.460306	-3.36	0.28	-5.11	0.2679	-0.0425	-0.4843	
-0.868762	0.15311	0.451888	-3.08	0.49	-5.81	0.2668	-0.0456	-0.4766	
-0.872056	0.147254	0.453718	-2.73	1.68	-7	0.2719	-0.0473	-0.4733	
-0.876326	0.144692	0.448594	-2.59	2.94	-8.33	0.2705	-0.0515	-0.4716	
-0.87718	0.140666	0.438102	-3.71	3.08	-9.73	0.2713	-0.0469	-0.4824	
-0.872056	0.142374	0.437248	-4.76	3.29	-11.41	0.2783	-0.0489	-0.4744	
-0.865102	0.140544	0.432246	-5.53	4.62	-13.23	0.267	-0.0485	-0.475	
-0.86559	0.144448	0.422242	-5.32	6.02	-14.07	0.2677	-0.0328	-0.4816	
-0.873154	0.141032	0.438956	-4.76	3.92	-16.1	0.2605	-0.0427	-0.4741	
-0.879498	0.141764	0.446764	-5.53	3.43	-17.36	0.274	-0.0343	-0.4843	
-0.879132	0.138592	0.447862	-7	4.06	-18.69	0.2739	-0.0274	-0.4815	
-0.882304	0.131882	0.444446	-9.38	3.78	-19.74	0.2776	-0.032	-0.4751	
-0.88877	0.122976	0.436882	-10.99	2.94	-20.37	0.2738	-0.0246	-0.4801	
-0.898042	0.10248	0.435906	-11.83	2.31	-20.93	0.2771	-0.0193	-0.4756	
-0.904264	0.08357	0.428098	-11.41	2.17	-22.12	0.282	-0.0209	-0.4753	
-0.903654	0.07076	0.44164	-10.92	0.91	-23.8	0.2719	-0.0189	-0.482	
-0.900482	0.062708	0.43798	-11.13	0.49	-25.34	0.2735	-0.0175	-0.482	
-0.90829	0.05185	0.444446	-11.83	0.07	-25.9	0.2846	-0.009699999	-0.4771	
-0.912194	0.037454	0.446642	-12.95	0.42	-25.2	0.2782	-0.0081	-0.476	
-0.912926	0.015128	0.440298	-14.7	0.07	-23.8	0.2696	-0.0019	-0.4828	
-0.907436	-0.000854	0.44225	-16.03	-0.42	-21.91	0.2761	0.0059	-0.4767	
-0.902922	-0.017568	0.441518	-15.33	-1.05	-20.58	0.2742	0.0103	-0.4785	
-0.900726	-0.023424	0.456768	-11.83	-0.21	-20.93	0.2792	0.0141	-0.4723	
-0.909022	-0.02989	0.455304	-8.75	2.03	-21.84	0.2704	0.0149	-0.4865	
-0.912316	-0.037454	0.44774	-6.37	2.52	-23.66	0.2767	0.0216	-0.4834	
-0.908534	-0.052704	0.448594	-5.39	4.48	-23.73	0.2688	0.0246	-0.4809	
-0.90951	-0.059292	0.437492	-5.25	6.51	-21.98	0.2663	0.0214	-0.4703	
-0.914512	-0.061366	0.431148	-5.95	5.81	-19.39	0.2896	0.0225	-0.4812	
-0.928908	-0.06734399	0.424072	-6.72	3.36	-16.87	0.2811	0.0354	-0.4822	
-0.933666	-0.082106	0.43615	-6.02	2.66	-15.12	0.2667	0.0263	-0.4871	
-0.93635	-0.09552599	0.443348	-4.76	3.57	-13.58	0.2799	0.027	-0.4804	
-0.9333	-0.104798	0.43554	-4.97	4.06	-12.74	0.2688	0.0273	-0.478	
-0.91256	-0.094794	0.420656	-4.9	4.48	-12.6	0.2883	0.036	-0.4667	
-0.899506	-0.0793	0.423584	-4.27	5.18	-12.81	0.2893	0.0364	-0.4772	
-0.911706	-0.07015	0.4026	-3.92	6.72	-13.16	0.2799	0.0311	-0.4775	
-0.922442	-0.0671	0.42822	-5.88	6.37	-13.93	0.2896	0.0389	-0.4698	
-0.91927	-0.079178	0.429318	-7.35	6.72	-13.58	0.2813	0.0462	-0.4705	
-0.907314	-0.111264	0.424072	-11.34	-0.7	-11.48	0.2825	0.0492	-0.4766	
-0.906948	-0.09857599	0.380884	-7.35	2.38	-9.31	0.2761	0.0508	-0.4755	
-0.893528	-0.09357399	0.427976	-4.62	2.87	-9.03	0.2923	0.0474	-0.473	
-0.909266	-0.079544	0.426756	-3.92	4.55	-10.01	0.2796	0.0409	-0.4765	
-0.92659	-0.084302	0.412482	-1.4	10.36	-13.86	0.2907	0.0488	-0.4731	
-0.926224	-0.110532	0.422364	-2.38	12.81	-14.91	0.2876	0.0461	-0.4732	
-0.91195	-0.13481	0.390522	-6.3	7.21	-12.74	0.2765	0.0464	-0.4708	
-0.89609	-0.153842	0.395768	-6.3	2.24	-12.88	0.2875	0.053	-0.4705	
-0.890234	-0.155306	0.395402	-5.39	4.76	-9.59	0.2821	0.0591	-0.4771	
-0.90341	-0.143106	0.399184	-4.69	4.2	-10.71	0.2771	0.0635	-0.4775	
-0.932202	-0.13908	0.405406	-4.9	3.85	-13.86	0.2887	0.0642	-0.4693	
-0.949282	-0.142008	0.418094	-5.88	6.02	-14.49	0.289	0.0544	-0.4704	
-0.9516	-0.1464	0.401502	-5.39	5.67	-15.19	0.2857	0.0669	-0.4651	
-0.928664	-0.154208	0.392718	-6.65	3.78	-15.12	0.2932	0.07099999	-0.4694	
-0.90158	-0.159942	0.379176	-7.35	2.73	-14.49	0.2969	0.0638	-0.4658	
-0.88999	-0.167018	0.383812	-7.49	2.66	-12.32	0.2918	0.0765	-0.4636	
-0.888038	-0.171532	0.383568	-5.74	2.38	-10.71	0.2839	0.0808	-0.4597	
-0.89121	-0.173972	0.372222	-4.69	1.12	-9.59	0.2768	0.0828	-0.4692	
-0.908778	-0.184098	0.377346	-3.78	0.91	-8.96	0.2919	0.075	-0.462	
-0.926102	-0.187758	0.397232	-3.78	1.61	-7.84	0.2804	0.0687	-0.4715	
-0.927688	-0.191296	0.394304	-3.99	0.63	-5.95	0.2912	0.0851	-0.4686	
-0.914268	-0.197518	0.39345	-4.97	-1.4	-5.32	0.2971	0.0746	-0.4557	
-0.88633	-0.204594	0.378932	-4.55	-1.96	-5.11	0.2884	0.0863	-0.4612	
-0.885232	-0.216062	0.377102	-3.71	1.47	-4.76	0.2897	0.0933	-0.4614	
-0.900238	-0.221308	0.388448	-2.66	1.05	-5.11	0.293	0.0849	-0.4639	
-0.9089	-0.20923	0.393938	-1.26	-0.84	-4.83	0.2842	0.0709	-0.4593	
-0.908046	-0.201544	0.389668	-0.35	-0.77	-3.71	0.286	0.091	-0.4706	
-0.895236	-0.199348	0.380884	-0.91	-0.28	-2.17	0.2962	0.0821	-0.4666	
-0.887428	-0.200202	0.38552	-0.7	1.12	-1.05	0.2965	0.086	-0.4592	
-0.888282	-0.20191	0.384544	-0.7	0.77	0	0.2906	0.0937	-0.472	
-0.88755	-0.197884	0.382958	-0.77	-2.24	0.42	0.2816	0.08679999	-0.4676	
-0.897798	-0.198372	0.393816	-1.82	-2.52	1.89	0.2827	0.0884	-0.4752	
-0.897798	-0.206302	0.389668	-0.21	-0.49	3.22	0.2869	0.0822	-0.4611	
-0.899384	-0.204716	0.387594	0.35	-0.56	3.57	0.2861	0.084	-0.4733	
-0.908778	-0.20069	0.392962	1.19	-0.84	3.29	0.2896	0.0838	-0.4686	
-0.91073	-0.195566	0.389546	1.4	-1.19	3.08	0.2805	0.0824	-0.4615	
-0.905606	-0.194346	0.389668	1.4	-1.05	3.57	0.2802	0.0853	-0.4646	
-0.889746	-0.19032	0.38857	1.89	-0.14	4.83	0.2873	0.0778	-0.4579	
-0.890844	-0.18361	0.38613	1.47	-2.03	6.02	0.2867	0.0809	-0.4656	
-0.888648	-0.176778	0.384788	1.05	-2.59	6.44	0.2801	0.0813	-0.469	
-0.893528	-0.178852	0.387716	1.26	-3.01	6.58	0.2784	0.0869	-0.4678	
-0.89548	-0.184708	0.395524	1.68	-2.87	7.21	0.2926	0.0742	-0.4786	
-0.891454	-0.184098	0.401868	2.59	-3.36	7.63	0.2791	0.0768	-0.4613	
-0.880718	-0.179462	0.397598	3.29	-2.87	8.68	0.2805	0.0755	-0.4657	
-0.880352	-0.180804	0.395646	3.01	-3.01	9.66	0.2785	0.07449999	-0.4733	
-0.883402	-0.18605	0.406138	3.08	-3.15	10.71	0.2839	0.0725	-0.4639	
-0.883402	-0.18605	0.407602	3.36	-2.73	11.97	0.2887	0.0683	-0.4665	
-0.883036	-0.179218	0.407724	2.94	-2.73	13.72	0.2916	0.0752	-0.4666	
-0.886208	-0.172264	0.401136	2.38	-1.82	15.05	0.2764	0.067	-0.4595	
-0.895602	-0.1647	0.406748	1.54	-1.12	16.24	0.2821	0.0659	-0.4713	
-0.906948	-0.15616	0.405772	1.4	-1.54	17.15	0.2855	0.0629	-0.471	
-0.912926	-0.15189	0.41236	2.31	-3.15	17.85	0.2771	0.0662	-0.4761	
-0.911096	-0.148962	0.407968	4.06	-1.47	18.83	0.2871	0.0629	-0.4709	
-0.912438	-0.137738	0.391864	3.85	0.07	20.37	0.2855	0.0643	-0.4695	
-0.908168	-0.133468	0.401502	1.47	-3.85	21.35	0.2824	0.0561	-0.4739	
-0.913536	-0.117242	0.403332	3.36	-1.4	21.42	0.2743	0.0564	-0.4744	
-0.920978	-0.11102	0.406992	3.01	-0.63	21.98	0.2859	0.0476	-0.4734	
-0.927444	-0.106384	0.41419	2.94	-2.24	21.7	0.2862	0.046	-0.4687	
-0.934642	-0.099308	0.427244	3.78	-1.61	21.56	0.2849	0.05	-0.4614	
-0.9272	-0.079178	0.408822	3.64	-0.14	21.14	0.2862	0.046	-0.4687	
-0.924638	-0.057706	0.41053	3.78	-0.14	19.88	0.2844	0.0435	-0.4748	
-0.934154	-0.041724	0.400038	6.09	5.74	18.13	0.2885	0.0346	-0.4651	
-0.959042	-0.027328	0.391986	8.33	5.25	15.4	0.296	0.0387	-0.4694	
-0.9577	-0.04026	0.417484	8.12	-0.42	13.93	0.2884	0.0319	-0.468	
-0.96685	-0.039284	0.414312	10.92	2.17	14.35	0.2851	0.0375	-0.4654	
-0.949892	-0.02989	0.418216	9.8	-0.35	16.03	0.2906	0.0191	-0.4659	
-0.925248	-0.01159	0.395524	8.05	1.12	16.17	0.2891	0.0232	-0.4616	
-0.926224	0.004392	0.379908	6.79	3.5	15.54	0.2938	0.019	-0.4657	
-0.94184	0.002196	0.37942	5.53	5.04	14.42	0.3027	0.0301	-0.4702	
-0.967948	-0.011102	0.375882	8.33	2.31	13.44	0.281	0.0221	-0.4635	
-0.976122	-0.014762	0.404064	13.23	-1.61	14.14	0.2915	0.0277	-0.4722	
-0.953918	-0.008784	0.403088	15.96	-3.92	13.79	0.2927	0.0119	-0.4624	
-0.92903	0.005856	0.42517	15.96	-6.86	13.93	0.295	0.0124	-0.4775	
-0.922076	0.006588	0.384788	16.17	-3.78	14.42	0.2842	0.0138	-0.469	
-0.911584	-0.020008	0.42456	15.61	-7.28	16.94	0.294	-0.003	-0.4769	
-0.923418	-0.018178	0.405894	18.13	-5.04	19.18	0.2933	-0.0049	-0.4617	
-0.913292	0.00366	0.414312	19.32	-4.97	19.67	0.2704	-0.0052	-0.472	
-0.892918	0.032574	0.418094	18.83	-6.44	18.97	0.2833	-0.0111	-0.4741	
-0.87596	0.056974	0.418216	17.78	-5.67	16.66	0.2885	-0.0157	-0.4691	
-0.8845	0.054778	0.425048	15.05	-3.71	14.56	0.2874	-0.0201	-0.4629	
-0.893162	0.049288	0.429074	13.65	-0.28	13.23	0.288	-0.014	-0.4768	
-0.910486	0.05368	0.417972	12.53	1.33	13.72	0.2914	-0.0156	-0.475	
-0.916464	0.06832	0.415776	10.92	0.21	13.93	0.2886	-0.024	-0.4733	
-0.903044	0.101748	0.408334	11.69	-0.84	12.88	0.2928	-0.0289	-0.4592	
-0.90463	0.133956	0.415166	10.85	1.19	11.83	0.2898	-0.0303	-0.4563	
-0.917318	0.130418	0.403454	9.24	3.5	10.78	0.2908	-0.0368	-0.4711	
-0.92842	0.11407	0.412482	9.1	1.19	9.66	0.2926	-0.0411	-0.4693	
-0.915976	0.11651	0.417484	8.68	0.98	9.8	0.295	-0.0444	-0.4585	
-0.899262	0.140178	0.403454	9.17	0.56	9.31	0.2957	-0.0315	-0.465	
-0.891088	0.147132	0.405528	5.88	1.12	8.82	0.2812	-0.0419	-0.4745	
-0.895724	0.142008	0.400892	3.64	0.56	8.19	0.29	-0.0441	-0.4618	
-0.90829	0.135664	0.397842	3.5	-1.26	7.21	0.2961	-0.0414	-0.4646	
-0.91744	0.123952	0.395402	4.06	-2.24	5.6	0.2871	-0.0374	-0.4516	
-0.923906	0.120048	0.40748	4.55	-2.73	3.64	0.2823	-0.04	-0.4533	
-0.91317	0.122488	0.405284	4.41	-3.01	2.38	0.2829	-0.0444	-0.447	
-0.902434	0.125782	0.405406	3.08	-2.8	1.61	0.2868	-0.0399	-0.4591	
-0.889136	0.135176	0.413458	2.73	-1.82	1.19	0.2869	-0.0427	-0.459	
-0.89548	0.158112	0.41175	1.54	-1.89	1.26	0.298	-0.043	-0.4599	
-0.904264	0.158966	0.417484	-0.49	-2.94	1.05	0.2903	-0.047	-0.4586	
-0.902922	0.132004	0.426268	-0.28	-3.08	0.28	0.2805	-0.0466	-0.4622	
-0.891698	0.127856	0.4209	-0.07	-2.03	-1.4	0.2847	-0.0463	-0.4726	
-0.886086	0.127002	0.40443	0.42	-0.21	-3.15	0.2868	-0.0495	-0.4648	
-0.878156	0.138104	0.411628	-0.49	0.28	-4.13	0.2886	-0.0442	-0.4588	
-0.8784	0.146522	0.418948	-1.96	1.19	-4.27	0.2876	-0.0408	-0.4727	
-0.890722	0.143106	0.41663	-3.08	1.12	-4.62	0.2832	-0.034	-0.4626	
-0.90219	0.133224	0.420412	-3.15	-0.35	-5.6	0.2871	-0.0538	-0.4631	
-0.908412	0.127978	0.421144	-1.96	-0.98	-6.86	0.293	-0.0468	-0.4676	
-0.910242	0.12322	0.416874	-1.33	-0.63	-7.98	0.2879	-0.0423	-0.4696	
-0.903532	0.11651	0.413092	-2.45	-0.98	-8.61	0.2847	-0.0381	-0.4669	
-0.894504	0.118218	0.411262	-3.22	-0.14	-8.96	0.2912	-0.0412	-0.4664	
-0.895968	0.115168	0.404674	-5.81	-0.7	-9.52	0.2845	-0.0367	-0.4685	
-0.89914	0.112972	0.405528	-6.72	-1.26	-10.01	0.2765	-0.035	-0.469	
-0.903288	0.104798	0.414556	-6.79	-2.1	-11.69	0.2743	-0.0318	-0.4768	
-0.911584	0.097722	0.417362	-6.58	-1.75	-13.3	0.2842	-0.031	-0.4702	
-0.912072	0.098088	0.422852	-6.86	-0.91	-14.28	0.2855	-0.0253	-0.4719	
-0.907802	0.09516	0.420534	-8.12	-0.56	-14.35	0.2811	-0.0309	-0.4689	
-0.90463	0.076616	0.415532	-10.43	-2.17	-13.72	0.2851	-0.0209	-0.4766	
-0.903776	0.070516	0.417972	-11.34	-2.8	-14	0.2894	-0.0245	-0.4596	
-0.906582	0.06893	0.424072	-11.2	-1.89	-14.7	0.2838	-0.0225	-0.4721	
-0.89975	0.062464	0.42517	-10.78	-0.77	-16.94	0.2792	-0.0197	-0.4664	
-0.896456	0.053924	0.432978	-11.13	0.63	-18.55	0.2774	-0.0168	-0.4681	
-0.893162	0.054046	0.4331	-11.41	-0.07	-19.25	0.2798	-0.0013	-0.4717	
-0.89487	0.042456	0.43188	-13.16	-1.82	-18.97	0.2816	-0.0069	-0.4729	
-0.901824	0.02013	0.434808	-14.77	-1.54	-18.2	0.286	0	-0.4744	
-0.910486	0.01037	0.427488	-13.65	0.14	-18.27	0.2933	0.0111	-0.479	
-0.904752	-0.000976	0.425902	-11.55	0.35	-19.6	0.2856	0.0112	-0.4749	
-0.905484	-0.004636	0.42944	-9.45	0	-20.58	0.2812	0.0001	-0.4747	
-0.911584	-0.006832	0.434808	-8.12	1.26	-21.21	0.286	0	-0.4744	
-0.90829	-0.010004	0.43615	-8.05	1.33	-22.26	0.2805	0.0156	-0.4769	
-0.922076	-0.029524	0.422486	-10.92	2.1	-20.65	0.2755	0.0132	-0.4816	
-0.935374	-0.054778	0.43066	-12.6	3.36	-18.69	0.294	0.012	-0.4669	
-0.938424	-0.063684	0.411994	-11.48	4.13	-17.22	0.2824	0.0195	-0.4694	
-0.92476	-0.07124799	0.41602	-11.2	-1.19	-17.57	0.2838	0.0236	-0.4695	
-0.916098	-0.06832	0.430904	-9.38	-1.4	-17.92	0.2754	0.0215	-0.4789	
-0.922686	-0.072224	0.436638	-7.98	1.4	-18.34	0.2854	0.025	-0.4694	
-0.926712	-0.084058	0.439688	-7.56	4.2	-17.64	0.2818	0.0336	-0.47	
-0.94001	-0.101016	0.405528	-8.33	6.72	-15.89	0.2783	0.0394	-0.4719	
-0.933666	-0.117608	0.407602	-8.75	5.18	-13.44	0.2795	0.0409	-0.478	
-0.928908	-0.10553	0.39528	-5.95	5.81	-11.97	0.291	0.0404	-0.4728	
-0.925248	-0.095038	0.41053	-3.43	6.02	-13.09	0.2897	0.0402	-0.4683	
-0.93574	-0.073566	0.383324	-3.22	4.27	-15.54	0.2814	0.0421	-0.4719	
-0.91927	-0.094062	0.420656	-5.95	-1.12	-17.57	0.2827	0.0504	-0.4721	
-0.91378	-0.111752	0.40504	-6.72	-1.68	-16.03	0.292	0.0517	-0.4762	
-0.892186	-0.121146	0.45262	-7.07	2.38	-12.6	0.2839	0.0479	-0.4795	
-0.904996	-0.112484	0.391864	-8.96	6.72	-10.36	0.2875	0.0475	-0.4733	
-0.893406	-0.112606	0.421388	-7.56	4.97	-10.92	0.2854	0.063	-0.4725	
-0.913292	-0.108824	0.402478	-4.2	12.25	-12.81	0.2877	0.0569	-0.463	
-0.937082	-0.113948	0.395768	-3.85	9.94	-14.91	0.2855	0.0506	-0.478	
-0.929152	-0.133712	0.407358	-7.07	2.31	-15.82	0.2759	0.0605	-0.4729	
-0.913414	-0.15433	0.417972	-8.61	4.2	-14.28	0.2692	0.0637	-0.4764	
-0.900116	-0.167872	0.38796	-7.7	7.21	-12.32	0.2868	0.0617	-0.4769	
-0.887062	-0.179706	0.373686	-7.49	4.97	-10.92	0.2921	0.0639	-0.4661	
-0.89243	-0.18544	0.372588	-4.48	4.9	-10.92	0.2917	0.0724	-0.468	
-0.91073	-0.178242	0.374052	-2.52	6.3	-11.9	0.2901	0.0752	-0.4652	
-0.926956	-0.174826	0.387472	-2.66	3.85	-12.25	0.2945	0.074	-0.474	
-0.921832	-0.181902	0.400526	-5.25	2.52	-11.27	0.2946	0.0794	-0.4681	
-0.901702	-0.190076	0.393206	-6.23	4.76	-9.1	0.2916	0.0766	-0.4667	
-0.887794	-0.197274	0.379542	-6.79	6.37	-7.7	0.2914	0.07669999	-0.4697	
-0.901214	-0.206668	0.366244	-7.56	7.07	-7.56	0.2814	0.0856	-0.4721	
-0.918416	-0.196664	0.372222	-7.42	7.28	-8.82	0.294	0.0907	-0.4717	
-0.939156	-0.175192	0.376614	-7.14	6.79	-9.73	0.2947	0.0862	-0.4623	
-0.9394	-0.170678	0.37515	-7.91	5.04	-9.38	0.2948	0.0806	-0.4636	
-0.922198	-0.183366	0.372466	-7.77	2.31	-7.77	0.29	0.0862	-0.4596	
-0.899994	-0.196908	0.367708	-6.58	1.68	-6.3	0.2829	0.0938	-0.4678	
-0.892796	-0.20252	0.363682	-4.62	2.1	-5.81	0.2891	0.0749	-0.4561	
-0.902312	-0.200324	0.359778	-2.24	2.8	-5.95	0.3029	0.0871	-0.4574	
-0.916464	-0.2013	0.354654	-2.1	2.31	-5.88	0.2878	0.0867	-0.4703	
-0.922442	-0.209596	0.357704	-2.31	0.84	-5.74	0.2994	0.0888	-0.4622	
-0.920978	-0.223138	0.363072	-1.75	0.56	-5.11	0.2973	0.096	-0.4656	
-0.909632	-0.228628	0.360388	-1.26	0.28	-3.99	0.2977	0.0875	-0.4637	
-0.916098	-0.232044	0.368318	-1.75	-0.56	-3.08	0.2867	0.0932	-0.457	
-0.901824	-0.233142	0.350018	-2.59	-2.31	-1.61	0.2961	0.0958	-0.4596	
-0.901824	-0.237656	0.35746	-1.26	-0.77	-0.84	0.2978	0.09299999	-0.4594	
-0.90829	-0.236314	0.356362	0.56	-1.4	-0.56	0.2959	0.09869999	-0.4613	
-0.911584	-0.235704	0.368684	1.12	-1.96	0.42	0.2913	0.0918	-0.4613	
-0.914268	-0.225944	0.368928	2.03	-1.82	1.05	0.2909	0.1017	-0.4617	
-0.911828	-0.218746	0.368562	1.54	-2.38	1.47	0.2915	0.08899999	-0.4596	
-0.896822	-0.216794	0.3721	0.98	-2.38	2.38	0.2911	0.1002	-0.4601	
-0.886818	-0.217648	0.372466	1.33	-2.31	3.5	0.2957	0.0892	-0.47	
-0.880474	-0.215696	0.369416	1.61	-2.38	4.55	0.2946	0.0944	-0.4582	
-0.8845	-0.211426	0.372588	1.82	-2.45	5.11	0.2896	0.0906	-0.4643	
-0.89182	-0.203862	0.371734	2.17	-0.98	5.74	0.2929	0.0932	-0.4612	
-0.901214	-0.20374	0.376736	1.96	-1.54	6.58	0.2903	0.0901	-0.4522	
-0.900604	-0.202642	0.37637	1.75	-1.61	7.84	0.2958	0.0947	-0.4657	
-0.899506	-0.205082	0.369538	1.68	-3.29	8.89	0.2859	0.0845	-0.4491	
-0.897066	-0.212036	0.368806	1.75	-4.13	9.66	0.285	0.0851	-0.4644	
-0.900238	-0.21411	0.368928	3.08	-4.9	10.08	0.2882	0.0878	-0.4628	
-0.896822	-0.20862	0.376126	4.34	-4.69	11.2	0.2976	0.0862	-0.4667	
-0.890966	-0.195566	0.376614	3.22	-4.69	13.16	0.2939	0.0894	-0.4731	
-0.891576	-0.188002	0.38064	1.33	-5.32	15.33	0.29	0.0808	-0.4639	
-0.894382	-0.189222	0.395524	0.42	-4.48	17.22	0.2911	0.0797	-0.4729	
-0.898408	-0.19703	0.393938	0.84	-3.5	19.11	0.2914	0.0781	-0.4698	
-0.90463	-0.1891	0.385032	2.66	-1.54	19.88	0.2953	0.072	-0.4602	
-0.91256	-0.176778	0.388326	4.69	-2.38	19.88	0.292	0.0736	-0.462	
-0.918904	-0.160674	0.388326	5.46	-3.43	20.16	0.2969	0.0679	-0.463	
-0.922564	-0.140422	0.387838	5.04	-4.41	21.14	0.2858	0.0531	-0.4721	
-0.926712	-0.135664	0.385764	3.29	-4.27	22.75	0.2891	0.0543	-0.4689	
-0.930128	-0.133834	0.386984	2.17	-4.34	23.8	0.2939	0.0556	-0.4687	
-0.929884	-0.128954	0.388204	3.99	-4.9	23.66	0.2909	0.0569	-0.4644	
-0.935008	-0.115534	0.39772	7.63	-6.72	23.03	0.286	0.0557	-0.4661	
-0.936228	-0.09857599	0.3965	9.66	-6.37	22.75	0.2892	0.0529	-0.4673	
-0.942572	-0.07991	0.400526	8.54	-4.62	22.19	0.2975	0.051	-0.4638	
-0.947086	-0.066978	0.395036	6.79	-1.68	21.56	0.2924	0.0473	-0.4715	
-0.957334	-0.059902	0.399794	6.51	1.05	19.88	0.2899	0.0456	-0.4609	
-0.968802	-0.05795	0.413214	6.09	0.35	18.76	0.293	0.0387	-0.4665	
-0.950014	-0.056242	0.451156	7.77	3.36	17.08	0.2906	0.0245	-0.4616	
-0.949526	-0.041724	0.397232	10.29	2.94	17.78	0.2948	0.0385	-0.4634	
-0.934276	-0.027694	0.38735	9.1	-3.01	17.78	0.3018	0.0269	-0.461	
-0.920246	-0.010004	0.391986	9.17	-3.22	18.13	0.2929	0.0333	-0.4724	
-0.926834	-0.006344	0.390888	11.06	1.68	17.36	0.2904	0.0302	-0.4618	
-0.940864	0.003538	0.395158	10.36	1.12	16.66	0.295	0.0274	-0.4675	
-0.931836	0.011834	0.403576	11.13	-0.63	14.98	0.2964	0.022	-0.4732	
-0.921466	0.013298	0.408212	13.37	-2.45	13.79	0.2809	0.0222	-0.465	
-0.93086	0.015982	0.387838	12.11	-1.89	12.88	0.2957	0.0132	-0.4638	
-0.904386	-0.001342	0.438224	13.44	-3.71	13.09	0.2904	0.0179	-0.4704	
-0.910486	0.007076	0.398208	18.06	2.17	14.84	0.3021	0.0061	-0.4677	
-0.895846	0.010492	0.408456	17.43	1.19	15.4	0.304	0.0073	-0.4631	
-0.902312	0.022326	0.402112	15.96	-5.32	14.63	0.2959	0.0062	-0.4651	
-0.920856	0.019032	0.414556	13.93	-5.67	14.63	0.2886	-0.0034	-0.4605	
-0.952698	0.015006	0.421632	15.96	-1.12	13.58	0.277	0.0012	-0.4644	
-0.94123	0.015128	0.409798	15.68	-1.89	13.79	0.2966	-0.012	-0.4643	
-0.91134	0.02135	0.38979	12.53	-3.22	14.07	0.2995	-0.0023	-0.463	
-0.890234	0.030134	0.39955	10.22	-2.03	14.98	0.2933	-0.0076	-0.4646	
-0.887062	0.04087	0.404552	10.08	1.68	15.89	0.2943	-0.0059	-0.4737	
-0.91378	0.05856	0.407724	10.99	1.96	16.17	0.2854	-0.0143	-0.4663	
-0.938668	0.075518	0.421632	11.27	3.22	15.33	0.298	-0.009099999	-0.4658	
-0.930982	0.088694	0.42456	11.97	4.9	13.3	0.2937	-0.0271	-0.4699	
-0.907192	0.097966	0.404552	11.76	5.46	10.5	0.2973	-0.0302	-0.465	
-0.882792	0.10797	0.397476	10.64	5.39	8.96	0.2933	-0.0347	-0.4544	
-0.874984	0.131638	0.38613	11.62	6.37	8.33	0.3026	-0.0403	-0.4628	
-0.900726	0.15006	0.372832	11.41	6.23	7.7	0.2947	-0.0387	-0.4603	
-0.939888	0.155428	0.375394	10.01	5.67	6.51	0.2998	-0.0391	-0.4539	
-0.958066	0.13847	0.38247	9.87	6.58	4.97	0.3072	-0.0362	-0.4627	
-0.959774	0.126636	0.377224	9.94	3.01	3.64	0.3156	-0.0326	-0.4533	
-0.938424	0.120414	0.368806	10.36	1.19	3.5	0.2998	-0.0391	-0.4554	
-0.91195	0.13237	0.368684	8.12	-0.77	2.94	0.3046	-0.0406	-0.4551	
-0.907558	0.14396	0.37515	3.64	-2.59	3.08	0.3118	-0.0509	-0.4482	
-0.91561	0.134932	0.38125	1.12	-3.78	2.38	0.2999	-0.0419	-0.4553	
-0.919514	0.11773	0.389058	-0.21	-4.2	0.63	0.2997	-0.0445	-0.4597	
-0.91622	0.11407	0.391498	-1.26	-3.01	-0.14	0.2979	-0.0443	-0.4629	
-0.9089	0.121024	0.39467	-0.49	-3.78	-1.05	0.3015	-0.0461	-0.4565	
-0.897188	0.133346	0.40199	-0.28	-5.04	-2.24	0.2983	-0.0501	-0.4596	
-0.896822	0.138958	0.40626	-0.63	-3.43	-3.01	0.2919	-0.0484	-0.46	
-0.90463	0.13542	0.39711	-1.61	-1.89	-3.5	0.298	-0.0457	-0.4628	
-0.917806	0.128344	0.40199	-2.87	-2.45	-3.5	0.2908	-0.0405	-0.4453	
-0.920734	0.119438	0.397476	-3.08	-2.8	-3.29	0.2949	-0.0471	-0.4614	
-0.917074	0.113338	0.39772	-2.94	-2.94	-3.64	0.2908	-0.0327	-0.4683	
-0.908412	0.115778	0.394548	-3.15	-2.24	-4.83	0.2995	-0.0403	-0.4599	
-0.89609	0.116266	0.394182	-4.48	-1.4	-6.23	0.2881	-0.037	-0.4622	
-0.890722	0.113704	0.395524	-4.9	-0.56	-7.49	0.2866	-0.0315	-0.458	
-0.888892	0.1098	0.39589	-5.18	-0.14	-8.68	0.3	-0.0286	-0.4725	
-0.89548	0.108336	0.399794	-6.02	0.28	-9.8	0.2862	-0.0409	-0.4697	
-0.90402	0.109068	0.400892	-5.88	1.12	-11.13	0.2955	-0.0287	-0.4667	
-0.906338	0.106506	0.398696	-5.6	1.54	-11.9	0.2944	-0.0372	-0.4634	
-0.905362	0.099796	0.400892	-6.51	0.56	-13.16	0.294	-0.0246	-0.4624	
-0.904142	0.096624	0.402722	-8.05	0.21	-14.28	0.3012	-0.0349	-0.4555	
-0.90341	0.09357399	0.397354	-10.29	0.42	-15.89	0.2969	-0.0327	-0.4725	
-0.910364	0.09076799	0.39284	-12.04	0.14	-17.22	0.2991	-0.029	-0.4604	
-0.915488	0.082716	0.388936	-12.53	0	-17.78	0.2977	-0.0264	-0.4545	
-0.915122	0.06832	0.391498	-13.09	-0.84	-18.69	0.2905	-0.016	-0.4629	
-0.922808	0.05612	0.395768	-13.37	-1.96	-19.6	0.2951	-0.0092	-0.4614	
-0.927688	0.043554	0.409188	-12.46	-3.08	-20.58	0.3112	-0.0071	-0.4576	
-0.926834	0.034648	0.413824	-11.69	-2.52	-22.33	0.287	-0.0034	-0.4591	
-0.918172	0.028914	0.406626	-11.34	-1.12	-24.43	0.2964	-0.0077	-0.466	
-0.915854	0.017568	0.399672	-11.34	-0.77	-24.99	0.3073	-0.0024	-0.4671	
-0.915488	0.000976	0.410164	-10.92	0.07	-24.22	0.2973	0.005	-0.4695	
-0.922564	-0.014762	0.41358	-11.06	-0.77	-22.82	0.3021	0.0048	-0.4692	
-0.93269	-0.033184	0.42578	-10.5	-1.89	-23.24	0.2928	0.009	-0.4623	
-0.93635	-0.053558	0.423828	-10.15	-0.21	-23.8	0.2863	0.0203	-0.4571	
-0.94184	-0.054046	0.411872	-10.29	0.91	-24.36	0.295	0.0233	-0.4703	
-0.945622	-0.06222	0.399916	-10.15	2.24	-25.13	0.2946	0.0263	-0.475	
-0.931958	-0.081984	0.405528	-10.36	1.4	-24.01	0.2931	0.0249	-0.4735	
-0.929396	-0.097966	0.401624	-10.29	0.14	-21.91	0.2947	0.0235	-0.4749	
-0.935252	-0.10004	0.387228	-7.63	1.96	-18.41	0.2916	0.0386	-0.4636	
-0.931226	-0.094184	0.41236	-7.56	-2.73	-18.55	0.2884	0.0305	-0.4695	
-0.944768	-0.089914	0.399428	-6.37	0	-19.18	0.2872	0.0385	-0.4563	
-0.948184	-0.10187	0.40382	-7.63	3.57	-19.88	0.2868	0.0415	-0.4625	
-0.949648	-0.123464	0.40443	-9.73	6.37	-19.53	0.2897	0.0361	-0.4696	
-0.930494	-0.145912	0.390888	-12.6	5.39	-18.27	0.2899	0.0469	-0.4595	
-0.912804	-0.14579	0.388448	-11.13	1.4	-15.05	0.2972	0.0567	-0.4655	
-0.899262	-0.144082	0.403942	-7.42	0.07	-13.09	0.2946	0.0455	-0.4622	
-0.917074	-0.136884	0.383202	-3.99	-0.07	-11.55	0.2923	0.0556	-0.4688	
-0.906582	-0.13054	0.398818	-5.67	-7	-12.46	0.2856	0.0601	-0.4709	
-0.895236	-0.133224	0.433466	-8.68	-6.37	-14.42	0.2952	0.0639	-0.4675	
-0.8967	-0.144204	0.417728	-9.8	1.54	-14.14	0.2973	0.0635	-0.4598	
-0.900238	-0.155184	0.382714	-11.83	6.16	-12.6	0.2924	0.0596	-0.4629	
-0.905606	-0.17019	0.399184	-9.66	6.16	-10.99	0.2943	0.0621	-0.4568	
-0.930616	-0.168848	0.379908	-3.08	11.9	-12.04	0.2919	0.07229999	-0.4634	
-0.925126	-0.1647	0.400892	-2.87	7.63	-12.46	0.2874	0.0668	-0.4635	
-0.899872	-0.165066	0.38857	-6.3	3.78	-12.39	0.2863	0.0678	-0.453	
-0.883158	-0.171532	0.379664	-9.24	5.39	-11.55	0.2941	0.0746	-0.4528	
-0.880108	-0.183366	0.375882	-9.52	8.12	-10.43	0.291	0.0787	-0.4486	
-0.90402	-0.194468	0.382958	-8.4	7.28	-9.03	0.2986	0.076	-0.4557	
-0.92232	-0.194468	0.382348	-5.18	6.79	-9.59	0.2891	0.0803	-0.4518	
-0.917318	-0.19703	0.385276	-5.53	-0.07	-9.1	0.2935	0.0777	-0.4606	
-0.901824	-0.19215	0.38186	-5.53	6.3	-8.4	0.2966	0.0818	-0.459	
-0.907802	-0.193248	0.366976	-8.47	9.38	-8.26	0.2961	0.0807	-0.4681	
-0.932324	-0.207156	0.368196	-10.5	7.35	-10.22	0.2884	0.0863	-0.4597	
-0.946964	-0.213378	0.367098	-9.45	8.75	-12.11	0.2932	0.0929	-0.4551	
-0.93086	-0.213744	0.35563	-7.14	5.74	-12.74	0.2936	0.0845	-0.4548	
-0.901214	-0.214354	0.345016	-5.6	3.64	-11.55	0.284	0.0862	-0.4539	
-0.891454	-0.228262	0.34587	-4.2	4.2	-9.59	0.2893	0.1032	-0.4618	
-0.894626	-0.237412	0.349042	-3.15	3.64	-8.54	0.297	0.1072	-0.4631	
-0.90585	-0.240096	0.345382	-2.59	1.61	-7.7	0.3057	0.09959999	-0.4562	
-0.91988	-0.23912	0.348554	-1.89	1.68	-7.14	0.3056	0.0983	-0.4592	
-0.918172	-0.238876	0.346968	-0.14	1.75	-7.07	0.2946	0.0985	-0.4553	
-0.90707	-0.241194	0.340746	-0.07	1.05	-6.51	0.29	0.0986	-0.4525	
-0.90463	-0.252784	0.343186	-1.19	0.91	-5.74	0.2912	0.1029	-0.4572	
-0.920734	-0.261568	0.340136	-1.75	-2.45	-5.39	0.288	0.1071	-0.4545	
-0.921832	-0.261568	0.345748	-1.68	-2.87	-3.99	0.2979	0.1011	-0.4522	
-0.912194	-0.25193	0.34709	0	-1.54	-3.01	0.3011	0.0982	-0.4534	
-0.897066	-0.249612	0.346358	1.12	-1.19	-2.31	0.2963	0.1039	-0.4509	
-0.884744	-0.249734	0.357948	1.4	-2.73	-1.89	0.2886	0.0998	-0.4481	
-0.88633	-0.249856	0.359778	2.17	-2.1	-1.05	0.286	0.1088	-0.4592	
-0.891332	-0.249246	0.36051	1.61	-1.19	0.42	0.2854	0.1027	-0.4469	
-0.896822	-0.252662	0.361364	0.98	-1.33	1.75	0.2917	0.1025	-0.4481	
-0.895724	-0.255712	0.363072	1.12	-1.4	2.8	0.2895	0.1057	-0.4559	
-0.892308	-0.25193	0.357826	1.26	-0.98	3.78	0.2943	0.1056	-0.4556	
-0.889258	-0.2501	0.35441	1.54	-2.03	4.76	0.2975	0.1028	-0.4583	
-0.889624	-0.246074	0.357826	1.82	-1.82	5.74	0.2806	0.0919	-0.4543	
-0.89426	-0.242658	0.362584	2.17	-1.54	6.65	0.3054	0.1025	-0.4594	
-0.90097	-0.238998	0.364902	2.24	-1.75	7.35	0.2884	0.1014	-0.4512	
-0.89304	-0.237534	0.368318	1.68	-2.17	8.4	0.2998	0.1009	-0.4475	
-0.892674	-0.231312	0.366	3.22	-0.63	9.31	0.2931	0.0931	-0.4582	
-0.89304	-0.226554	0.360998	4.13	-0.84	9.66	0.2961	0.1027	-0.4554	
-0.892064	-0.220332	0.361364	5.25	-1.47	9.87	0.303	0.0898	-0.4545	
-0.90036	-0.216916	0.365878	5.88	-1.68	10.36	0.2939	0.0898	-0.4459	
-0.906826	-0.216916	0.374052	5.74	-2.94	11.69	0.2983	0.0926	-0.4503	
-0.905484	-0.216306	0.372954	5.88	-3.99	13.72	0.2902	0.0902	-0.4537	
-0.903898	-0.215086	0.357338	5.74	-4.13	15.19	0.2966	0.0804	-0.4605	
-0.898896	-0.213256	0.357216	5.18	-3.78	15.54	0.2866	0.0823	-0.4657	
-0.9028	-0.20435	0.364658	5.04	-3.64	15.61	0.2951	0.0804	-0.4591	
-0.909632	-0.198494	0.373198	3.92	-2.66	16.38	0.2932	0.0821	-0.4638	
-0.925614	-0.198494	0.376736	2.1	-3.43	18.13	0.2858	0.07229999	-0.4592	
-0.924028	-0.195078	0.387594	0.7	-4.27	20.23	0.2982	0.0722	-0.4661	
-0.906826	-0.18605	0.380274	0.07	-4.97	21.91	0.2898	0.0727	-0.4727	
-0.91378	-0.17568	0.365146	-0.77	-5.81	22.82	0.2956	0.0663	-0.4585	
-0.930006	-0.172752	0.362462	-0.84	-5.04	23.73	0.2999	0.0747	-0.4616	
-0.938668	-0.169458	0.372832	0.35	-4.27	24.08	0.2923	0.0638	-0.4631	
-0.955382	-0.153232	0.369904	0.91	-5.74	25.2	0.2999	0.0693	-0.4659	
-0.959774	-0.14335	0.379908	1.05	-8.47	25.2	0.3099	0.066	-0.4607	
-0.955382	-0.130662	0.393694	1.61	-7.07	24.5	0.2796	0.0587	-0.4651	
-0.954772	-0.110166	0.392474	2.66	-4.41	23.1	0.2917	0.0642	-0.4722	
-0.953064	-0.092598	0.38979	2.8	-4.2	21.28	0.2895	0.0541	-0.4628	
-0.946476	-0.077226	0.398452	3.22	-5.88	19.53	0.291	0.05	-0.4671	
-0.927322	-0.067954	0.401868	4.06	-6.44	17.85	0.2954	0.0542	-0.4701	
-0.9089	-0.054778	0.403454	4.62	-1.96	16.45	0.2942	0.0499	-0.4669	
-0.904752	-0.042456	0.40687	5.18	-3.57	15.4	0.2977	0.0441	-0.465	
-0.90341	-0.031232	0.410652	5.53	0	14.91	0.2895	0.0431	-0.4684	
-0.915122	-0.016836	0.417484	7.98	0.49	14.07	0.2895	0.0404	-0.4713	
-0.91744	-0.009272	0.41663	8.47	-0.98	12.74	0.2913	0.0429	-0.4653	
-0.904386	-0.00244	0.423706	7.7	-1.12	11.2	0.3027	0.0342	-0.4673	
-0.899262	-0.001098	0.40626	7.21	2.24	8.96	0.2996	0.0329	-0.4675	
-0.912194	-0.010614	0.374784	7.28	5.81	6.02	0.2916	0.0304	-0.4693	
-0.935862	-0.021716	0.380884	4.34	1.89	3.99	0.2947	0.0331	-0.4693	
-0.95099	-0.025986	0.393694	3.92	-1.26	3.08	0.298	0.0247	-0.4717	
-0.944524	-0.018056	0.385398	5.67	-0.14	2.94	0.2907	0.0231	-0.4615	
-0.92903	-0.010614	0.388814	4.62	-3.5	1.82	0.2951	0.0274	-0.466	
-0.916708	-0.011468	0.405284	2.17	-3.08	0.63	0.2897	0.0306	-0.474	
-0.9089	-0.016104	0.403698	1.12	-0.98	-0.56	0.2987	0.0201	-0.4624	
-0.91256	-0.020252	0.398574	0.56	-2.03	-1.68	0.2957	0.0173	-0.461	
-0.914634	-0.027694	0.406016	0.35	-3.01	-2.59	0.2875	0.0301	-0.4574	
-0.912072	-0.02989	0.412238	0.91	-3.15	-3.43	0.2951	0.0259	-0.4659	
-0.912072	-0.033916	0.405284	1.47	-2.73	-4.2	0.293	0.0291	-0.4737	
-0.917684	-0.038918	0.402844	1.4	-3.22	-4.55	0.2987	0.0201	-0.4624	
-0.920368	-0.047214	0.410408	1.05	-2.94	-4.55	0.3013	0.0327	-0.4643	
-0.927688	-0.056974	0.396012	1.12	-3.22	-4.48	0.2836	0.0279	-0.4712	
-0.935496	-0.067588	0.402112	1.19	-4.48	-4.41	0.2908	0.0323	-0.4815	
-0.940132	-0.063928	0.40443	2.38	-4.69	-3.99	0.2921	0.0273	-0.4616	
-0.94611	-0.053192	0.391742	3.22	-4.41	-3.85	0.2819	0.028	-0.4728	
-0.934154	-0.029768	0.406626	1.05	-4.69	-3.92	0.2897	0.0334	-0.4726	
-0.918172	-0.025498	0.410896	-2.52	-4.83	-3.99	0.2853	0.0292	-0.4681	
-0.909022	-0.045994	0.418826	-6.23	-2.94	-2.31	0.2868	0.0278	-0.471	
-0.91073	-0.05795	0.408944	-6.86	-2.38	0.21	0.277	0.031	-0.4716	
-0.901336	-0.05673	0.421266	-7.14	-4.06	1.4	0.2881	0.032	-0.4726	
-0.910852	-0.03294	0.409432	-5.46	-1.05	0.42	0.2964	0.0275	-0.4704	
-0.910974	-0.032452	0.449814	-5.67	-1.47	-0.56	0.2786	0.0337	-0.4702	
-0.927322	-0.013786	0.40382	-4.41	1.33	-1.82	0.2932	0.0303	-0.4692	
-0.911828	-0.049288	0.443226	-6.65	-3.01	-1.54	0.2909	0.0349	-0.4771	
-0.941962	-0.044164	0.405406	-6.09	-2.1	-1.26	0.2831	0.0323	-0.4759	
-0.92964	-0.078812	0.41419	-6.93	4.55	-0.28	0.2786	0.0309	-0.4716	
-0.938546	-0.060146	0.38674	-4.13	3.08	-2.52	0.2863	0.035	-0.4743	
-0.956846	-0.047824	0.3965	-8.96	-2.52	-3.92	0.2835	0.028	-0.4727	
-0.968924	-0.016226	0.393206	-12.11	-5.18	-2.1	0.2843	0.0476	-0.4734	
-0.953918	-0.041358	0.402844	-15.26	-4.27	-1.19	0.2757	0.0349	-0.4643	
-0.965996	-0.049044	0.376858	-18.62	-2.52	0.42	0.2813	0.038	-0.4762	
-0.945378	-0.078446	0.384178	-20.86	-9.1	1.82	0.2859	0.0517	-0.4705	
-0.91378	-0.103212	0.412482	-19.95	-16.17	3.01	0.2811	0.0463	-0.4736	
-0.896212	-0.105286	0.421144	-17.08	-15.89	4.13	0.2711	0.0483	-0.4802	
-0.89304	-0.107604	0.44042	-14.63	-15.75	4.48	0.2793	0.052	-0.4739	
-0.888038	-0.113948	0.454938	-14.07	-13.37	3.57	0.2722	0.0541	-0.485	
-0.870592	-0.119194	0.452498	-11.97	-14	1.47	0.2758	0.0537	-0.4787	
-0.84119	-0.124318	0.46665	-11.41	-14.84	0.21	0.2627	0.0544	-0.484	
-0.831064	-0.119682	0.471774	-9.94	-10.78	-0.84	0.2601	0.0523	-0.5022	
-0.85217	-0.105652	0.473848	-7.14	-8.05	-1.19	0.2611	0.0461	-0.4883	
-0.857294	-0.09272	0.471042	-3.64	-7.21	-1.68	0.2685	0.0572	-0.4913	
-0.856684	-0.085644	0.459818	-0.84	-7.84	-2.17	0.2588	0.0673	-0.4878	
-0.85888	-0.080764	0.4575	-0.77	-7	-1.68	0.2622	0.0588	-0.4887	
-0.858148	-0.075274	0.465674	-2.31	-5.95	-0.63	0.2585	0.0633	-0.4952	
-0.874008	-0.06649	0.472262	-2.24	-4.2	-0.07	0.2604	0.0672	-0.4877	
-0.872422	-0.073444	0.473726	-0.14	-3.99	-0.56	0.2594	0.0545	-0.4857	
-0.85034	-0.088572	0.471164	1.26	-6.93	-1.26	0.2655	0.0586	-0.487	
-0.843386	-0.10126	0.483608	3.22	-5.32	-1.47	0.2492	0.0566	-0.4954	
-0.859978	-0.09455	0.473482	5.25	-1.82	-1.19	0.2507	0.0593	-0.4939	
-0.858758	-0.094062	0.476654	4.48	-1.82	-1.4	0.2512	0.0535	-0.4891	
-0.84241	-0.092354	0.484706	3.29	-1.75	-1.61	0.2556	0.0592	-0.4937	
-0.851804	-0.097966	0.482144	4.34	1.26	-1.68	0.2504	0.0637	-0.4971	
-0.872422	-0.108214	0.47885	5.04	2.94	-1.68	0.2557	0.0549	-0.4935	
-0.88633	-0.100894	0.46421	9.52	-0.07	-3.64	0.2585	0.062	-0.4966	
-0.87962	-0.105408	0.468968	5.6	-0.7	-0.91	0.2587	0.0673	-0.4893	
-0.872056	-0.08845	0.462868	7.14	3.57	-0.14	0.2584	0.0621	-0.4982	
-0.86742	-0.080886	0.46238	6.37	4.48	0.42	0.2446	0.0512	-0.4954	
-0.876814	-0.075396	0.4636	7.35	3.08	-0.7	0.2505	0.0554	-0.4998	

-0.898286	-0.088084	0.476532	11.41	0.49	-3.43	0.2522	0.0594	-0.4969	
-0.88755	-0.081618	0.47702	10.22	-0.42	-2.17	0.2525	0.0564	-0.4922	
-0.878766	-0.064904	0.465308	9.31	2.24	-0.7	0.2689	0.0515	-0.4881	
-0.884622	-0.07503	0.448838	7.98	5.04	0.49	0.2506	0.0636	-0.4941	
-0.894992	-0.08662	0.45262	8.68	2.87	-1.05	0.2548	0.0463	-0.4871	
-0.893162	-0.081252	0.471042	10.29	0.42	-3.15	0.2605	0.048	-0.499	
-0.887062	-0.074664	0.471652	10.71	-0.63	-3.29	0.2625	0.049	-0.4913	
-0.88511	-0.050142	0.474336	9.24	0.84	-3.29	0.2462	0.0484	-0.4967	
-0.886452	-0.052216	0.47702	7.56	4.41	-2.03	0.2516	0.0478	-0.4858	
-0.888892	-0.082594	0.4575	6.3	5.95	-0.49	0.2644	0.0474	-0.4866	
-0.888526	-0.095404	0.451034	7.77	2.38	0.77	0.256	0.0438	-0.496	
-0.885354	-0.084058	0.460062	8.4	2.87	0.35	0.2531	0.0437	-0.4916	
-0.882426	-0.069418	0.452986	9.31	3.64	0.49	0.263	0.0377	-0.4893	
-0.906948	-0.052216	0.454328	7.35	3.99	0	0.2569	0.0281	-0.4908	
-0.912316	-0.05307	0.468358	5.04	4.2	0.28	0.263	0.0391	-0.4879	
-0.9089	-0.061976	0.460306	6.51	3.5	0.14	0.2673	0.0502	-0.4896	
-0.896578	-0.060634	0.44774	5.74	2.94	0.49	0.2682	0.0373	-0.483	
-0.876814	-0.071614	0.451156	4.76	2.8	0.35	0.2711	0.0333	-0.4902	
-0.8784	-0.084302	0.450302	4.97	2.73	1.26	0.2634	0.0347	-0.4847	
-0.890478	-0.086132	0.459574	8.19	3.71	1.96	0.2676	0.0404	-0.4907	
-0.898652	-0.072712	0.436394	13.37	7.42	1.82	0.2762	0.0261	-0.4896	
-0.894992	-0.06893	0.45262	14.56	3.36	0.28	0.262	0.0291	-0.4845	
-0.885598	-0.039162	0.447618	14.07	7.63	-0.49	0.2749	0.0286	-0.4823	
-0.884012	-0.037576	0.47153	9.03	7.77	-0.84	0.2761	0.0357	-0.484	
-0.897798	-0.04819	0.432734	6.44	13.16	0.63	0.2776	0.0275	-0.4911	
-0.921832	-0.045994	0.447252	2.38	9.94	3.36	0.2701	0.0288	-0.4825	
-0.935496	-0.02745	0.412726	0.91	0.35	4.48	0.2755	0.0228	-0.4759	
-0.931348	-0.016226	0.441762	1.82	-2.17	2.8	0.2688	0.0246	-0.4809	
-0.938058	-0.004514	0.41541	7.14	5.04	-0.28	0.2734	0.0231	-0.4836	
-0.926834	-0.03416	0.399794	8.89	1.54	-2.94	0.2891	0.0283	-0.486	
-0.895846	-0.045994	0.441518	6.16	1.68	-1.89	0.2796	0.0285	-0.4835	
-0.909632	-0.044652	0.41297	8.33	3.15	-1.68	0.2718	0.0232	-0.4837	
-0.908168	-0.04392	0.452498	8.05	2.59	-0.35	0.2743	0.0239	-0.4685	
-0.92415	-0.061122	0.41846	11.27	-0.49	1.26	0.2751	0.0313	-0.4778	
-0.912926	-0.06734399	0.442006	15.4	0.35	2.59	0.2788	0.0198	-0.4756	
-0.909144	-0.042578	0.421388	18.9	0.63	1.4	0.2754	0.0256	-0.4761	
-0.902922	-0.046116	0.452498	20.93	2.1	1.26	0.2719	0.0218	-0.4837	
-0.914878	-0.061732	0.438712	18.97	6.23	0.56	0.2682	0.0088	-0.4727	
-0.925126	-0.073444	0.426634	20.72	4.62	0.98	0.2708	0.0188	-0.4775	
-0.914268	-0.056486	0.411262	27.02	3.5	-0.07	0.281	0.0057	-0.4749	
-0.915854	-0.000488	0.41053	29.12	0.7	-1.68	0.2727	0.0007	-0.4827	
-0.909144	0.026962	0.42395	25.55	2.8	-3.5	0.2899	-0.0074	-0.4679	
-0.92476	0.029768	0.422608	22.54	5.67	-5.32	0.2845	0	-0.473	
-0.93025	0.01525	0.404674	20.16	2.52	-4.55	0.2768	-0.0136	-0.4774	
-0.92293	0.003782	0.411262	17.5	-3.29	-2.31	0.2818	-0.0085	-0.4698	
-0.90341	0.015494	0.436028	15.68	-4.69	0	0.2865	-0.008599999	-0.471	
-0.891576	0.044164	0.437858	14.28	-3.15	-0.14	0.2817	-0.0138	-0.4756	
-0.88938	0.047824	0.442616	10.64	-4.48	-0.35	0.2796	-0.0094	-0.4804	
-0.899262	0.026474	0.441396	6.86	-3.78	-1.12	0.2818	-0.0153	-0.474	
-0.889502	0.00549	0.446398	4.06	-4.34	-1.33	0.2858	-0.0108	-0.4846	
-0.871812	-0.002196	0.446154	1.96	-4.2	-1.33	0.2749	-0.0079	-0.4777	
-0.852658	0.008905999	0.448838	0.56	-2.52	-1.96	0.2821	-0.0168	-0.4709	
-0.864492	0.008052	0.452986	-0.49	-0.98	-2.52	0.2883	-0.0156	-0.4721	
-0.887428	0.004636	0.45872	-0.77	0.49	-2.45	0.2814	-0.0123	-0.4787	
-0.898408	0.0061	0.452742	-1.19	0.91	-2.03	0.2766	-0.007999999	-0.4761	
-0.890112	0.005368	0.447618	-2.45	0.49	-1.4	0.2775	-0.0168	-0.4666	
-0.884744	0.015982	0.440908	-2.31	0.98	-1.19	0.2825	-0.0079	-0.4849	
-0.902312	-0.011956	0.427488	-2.73	1.05	-1.19	0.2778	-0.0105	-0.485	
-0.928054	-0.007929999	0.428098	-4.83	0.56	-1.47	0.2812	-0.0094	-0.4803	
-0.91988	-0.001098	0.422974	-5.81	-0.63	-0.49	0.2719	-0.0065	-0.4749	
-0.907192	-0.009881999	0.432002	-5.88	-0.56	-0.14	0.265	-0.0006	-0.4786	
-0.911706	-0.022326	0.429806	-6.09	-0.63	0.42	0.2652	0.0047	-0.4727	
-0.921466	-0.02379	0.435418	-6.3	-1.54	1.05	0.2749	-0.0079	-0.4777	
-0.91195	-0.01342	0.44225	-5.39	-2.66	0.63	0.2764	-0.0024	-0.4764	
-0.903044	-0.008174	0.44408	-3.5	-1.61	-0.21	0.2782	-0.0012	-0.4718	
-0.90097	-0.006588	0.442738	-2.45	-1.26	-0.98	0.2769	-0.0137	-0.4759	
-0.894504	-0.018422	0.442494	-5.53	-2.31	-0.7	0.2738	-0.0082	-0.4702	
-0.885842	-0.013054	0.449326	-9.24	-3.29	0.84	0.2765	-0.0052	-0.4762	
-0.886208	-0.003294	0.443226	-10.99	-3.92	2.8	0.2713	-0.0007	-0.4813	
-0.895968	0.004148	0.448106	-11.62	-4.69	3.64	0.2699	-0.0049	-0.4796	
-0.899872	0.007198	0.454328	-11.9	-4.27	2.66	0.275	-0.0025	-0.4734	
-0.897066	-0.014152	0.443226	-12.81	-3.5	1.61	0.2706	-0.0016	-0.4934	
-0.882304	-0.023912	0.43554	-14.7	-4.06	0.77	0.2811	0.0001	-0.4762	
-0.90951	-0.029158	0.439078	-16.52	-4.48	2.38	0.2697	-0.0047	-0.4842	
-0.933666	-0.023546	0.454816	-15.82	-4.55	4.13	0.2758	0.0075	-0.4813	
-0.923662	0.002074	0.445056	-13.79	-3.92	4.13	0.2793	-0.0009	-0.4808	
-0.902434	-0.000366	0.449692	-13.65	-0.7	2.45	0.2546	0.0126	-0.4857	
-0.89243	-0.023424	0.437126	-12.6	-1.54	0.91	0.2756	0.0076	-0.4844	
-0.894992	-0.048678	0.441762	-13.02	-2.8	1.61	0.2675	0.0052	-0.4878	
-0.899384	-0.056852	0.442982	-12.74	-2.1	2.38	0.2659	0.0162	-0.4807	
-0.892064	-0.032086	0.464698	-10.43	-3.92	2.59	0.2705	0.0203	-0.4806	
-0.902312	-0.01464	0.461648	-9.31	-3.71	1.82	0.2656	0.0151	-0.4868	
-0.912926	-0.020984	0.462258	-10.92	-1.05	1.89	0.2766	0.0176	-0.4878	
-0.891088	-0.036966	0.458476	-9.87	-0.84	-0.07	0.2625	0.0151	-0.4854	
-0.880962	-0.05307	0.44896	-7.28	1.4	-0.7	0.2593	0.0193	-0.4827	
-0.864004	-0.052216	0.452132	-6.23	0.07	-1.12	0.2699	0.0194	-0.4927	
-0.88084	-0.03538	0.452864	-5.88	-0.07	-0.35	0.2637	0.029	-0.4829	
-0.902434	-0.013786	0.46055	-8.82	3.85	1.12	0.2742	0.0144	-0.4757	
-0.912438	-0.007808	0.467138	-11.9	7.56	1.82	0.2656	0.0233	-0.481	
-0.87962	-0.019154	0.422242	-18.48	-4.41	2.03	0.2671	0.0247	-0.4825	
-0.872788	-0.036478	0.466772	-17.36	-2.17	1.47	0.2669	0.018	-0.4898	
-0.88389	-0.038064	0.451644	-11.62	6.44	0.91	0.269	0.0286	-0.475	
-0.896212	-0.056364	0.434198	-10.08	4.62	-0.77	0.259	0.025	-0.4845	
-0.90158	-0.043066	0.430538	-8.12	-3.99	-1.68	0.2646	0.0432	-0.4864	
-0.884622	-0.05734	0.477508	-8.82	0.98	-2.38	0.283	0.0297	-0.4803	
-0.903288	-0.067588	0.440542	-8.89	8.89	-1.61	0.2723	0.0376	-0.4934	
-0.911706	-0.065636	0.437736	-8.54	6.09	-0.63	0.2825	0.041	-0.4808	
-0.926224	-0.049898	0.443348	-9.1	3.43	1.54	0.2814	0.0366	-0.4762	
-0.926468	-0.053924	0.429074	-10.5	5.95	1.75	0.2747	0.0452	-0.4754	
-0.932934	-0.050142	0.428342	-8.96	3.64	0.14	0.268	0.0402	-0.4846	
-0.935374	-0.048068	0.422608	-6.58	1.96	0.21	0.2729	0.0317	-0.487	
-0.928054	-0.045384	0.4148	-10.36	1.4	-0.91	0.2826	0.0395	-0.4808	
-0.920124	-0.055632	0.425658	-14.98	3.22	-0.56	0.2727	0.0455	-0.4816	
-0.932934	-0.05002	0.40687	-14.7	1.4	0.98	0.2653	0.0372	-0.4771	
-0.932324	-0.067222	0.410652	-13.16	1.05	1.68	0.282	0.0399	-0.4899	
-0.948428	-0.04819	0.41602	-11.2	-1.82	0.42	0.2811	0.0422	-0.4764	
-0.928786	-0.062098	0.42822	-9.31	-4.34	-1.05	0.2788	0.0524	-0.483	
-0.91561	-0.045872	0.430904	-8.47	-7.07	-2.38	0.2674	0.0529	-0.4867	
-0.904752	-0.06283	0.426634	-11.06	-8.05	-1.89	0.2759	0.0564	-0.4758	
-0.894382	-0.08418	0.438712	-11.9	-8.61	-1.05	0.2787	0.0497	-0.4859	
-0.89304	-0.08357	0.44408	-11.76	-7.63	0.35	0.2609	0.0559	-0.4857	
-0.877302	-0.092598	0.455426	-10.99	-7	0.14	0.2688	0.0516	-0.4896	
-0.86742	-0.10309	0.456768	-10.08	-7.49	-0.98	0.2644	0.0542	-0.4824	
-0.858758	-0.098942	0.465918	-10.78	-6.3	-1.75	0.2719	0.0611	-0.4853	
-0.865224	-0.101504	0.462014	-9.31	-3.64	-2.52	0.2771	0.0566	-0.4818	
-0.87047	-0.103944	0.461404	-8.26	-4.41	-2.24	0.2672	0.0585	-0.4854	
-0.868274	-0.11041	0.460428	-5.11	-5.04	-2.73	0.2612	0.0626	-0.4768	
-0.849486	-0.117364	0.461526	-2.17	-5.04	-2.66	0.2623	0.0601	-0.4873	
-0.836432	-0.121634	0.457622	-1.05	-2.73	-1.89	0.2673	0.0584	-0.4839	
-0.873276	-0.098942	0.454816	0.91	-0.56	-1.05	0.2671	0.0572	-0.4884	
-0.885842	-0.09577	0.454694	0.98	-0.35	-0.56	0.262	0.0575	-0.4932	
-0.87657	-0.096624	0.454572	1.05	-3.71	-1.19	0.2625	0.0613	-0.4828	
-0.870836	-0.10187	0.466894	1.89	-3.01	-1.19	0.2618	0.0686	-0.4892	
-0.875716	-0.10614	0.475556	3.57	-0.14	-0.77	0.2536	0.0622	-0.4984	
-0.890478	-0.100772	0.454694	4.13	-0.35	-0.77	0.2489	0.0609	-0.4971	
-0.891088	-0.091378	0.458476	3.78	-1.47	-1.12	0.2609	0.06	-0.4843	
-0.88328	-0.083692	0.456524	3.22	-0.28	-0.98	0.2584	0.0662	-0.4953	
-0.864248	-0.08235	0.453718	1.54	-0.14	-0.28	0.2589	0.0589	-0.4904	
-0.859734	-0.084058	0.457012	1.47	-0.07	0.35	0.2503	0.0582	-0.5015	
-0.884378	-0.087108	0.467504	3.57	0.42	0.35	0.254	0.0633	-0.4909	
-0.89609	-0.096746	0.476532	4.27	0.42	0.14	0.2535	0.0609	-0.4999	
-0.895358	-0.080398	0.457012	6.23	-1.26	-1.47	0.2573	0.059	-0.4905	
-0.863882	-0.08784	0.466528	3.08	-1.26	-0.35	0.2703	0.0585	-0.4883	
-0.850096	-0.09747799	0.448228	3.43	0.98	0.21	0.256	0.0575	-0.4875	
-0.854976	-0.112362	0.447374	4.27	-0.28	1.19	0.2625	0.0572	-0.4856	
-0.892186	-0.117364	0.461282	7.49	-0.91	2.17	0.2553	0.0529	-0.4753	
-0.910608	-0.104676	0.466406	13.37	-1.33	0.07	0.2652	0.0602	-0.4916	
-0.905484	-0.084058	0.469944	15.82	-0.42	-2.59	0.2606	0.0575	-0.4903	
-0.895236	-0.06405	0.474214	14.98	0.42	-4.62	0.2518	0.0637	-0.5001	
-0.864614	-0.06527	0.474336	12.25	-2.8	-3.85	0.2638	0.0505	-0.4944	
-0.856196	-0.08174	0.460062	8.4	2.03	-2.38	0.2594	0.0504	-0.4885	
-0.878522	-0.094306	0.458476	6.58	4.48	-0.28	0.2593	0.0505	-0.4901	
-0.889014	-0.085278	0.471286	8.82	4.62	0.84	0.2601	0.0592	-0.4979	
-0.907314	-0.051606	0.461282	12.53	4.48	0.14	0.2484	0.0465	-0.4875	
-0.910608	-0.025376	0.468602	12.25	4.27	-0.91	0.2713	0.0441	-0.4801	
-0.897066	-0.035624	0.464942	9.87	2.8	-1.75	0.2575	0.0562	-0.4904	
-0.867908	-0.049898	0.46665	5.53	1.54	-2.52	0.2549	0.0463	-0.4856	
-0.856806	-0.07869	0.45201	3.36	5.46	-2.1	0.2676	0.0391	-0.4922	
-0.8784	-0.092232	0.451522	5.11	6.93	-0.84	0.2612	0.042	-0.4896	
-0.905484	-0.086498	0.457988	7.91	7.28	0.42	0.2696	0.0387	-0.4845	
-0.919026	-0.07442	0.448228	10.43	6.72	0.7	0.2764	0.0327	-0.4808	
-0.901702	-0.072712	0.448106	11.48	7	-0.21	0.2758	0.0346	-0.4915	
-0.90707	-0.058804	0.443958	9.59	5.39	-1.33	0.2794	0.0328	-0.4852	
-0.900604	-0.07015	0.453108	8.05	6.3	-0.84	0.2712	0.036	-0.4873	
-0.895236	-0.08662	0.439444	6.02	8.47	2.03	0.2662	0.0376	-0.4892	
-0.892064	-0.09357399	0.432246	4.9	8.82	5.46	0.2765	0.0313	-0.4808	
-0.898408	-0.095892	0.430294	5.18	4.69	7.42	0.2831	0.0296	-0.4788	
-0.931348	-0.05856	0.44347	7.49	6.37	8.4	0.278	0.0272	-0.4851	
-0.9455	-0.04331	0.437248	10.36	9.24	6.44	0.2734	0.0327	-0.478	
-0.940742	-0.020984	0.438956	10.99	5.81	3.71	0.2765	0.0258	-0.4836	
-0.925858	-0.03355	0.414678	9.17	7.21	1.54	0.2782	0.0298	-0.4791	
-0.91805	-0.065148	0.427122	9.1	5.74	3.85	0.2737	0.0229	-0.4791	
-0.92049	-0.06222	0.402234	10.99	7.42	5.67	0.2803	0.024	-0.4757	
-0.915244	-0.040748	0.40992	11.41	0	7.42	0.2839	0.0222	-0.4694	
-0.91073	-0.012078	0.429928	13.86	-0.21	7.7	0.2826	0.0207	-0.4649	
-0.920002	0.001098	0.412238	18.83	4.48	5.6	0.2821	0.0169	-0.4753	
-0.927688	-0.00122	0.43737	19.04	1.61	4.48	0.2795	0.0098	-0.4706	
-0.948306	-0.005124	0.41053	18.2	4.76	3.64	0.2796	0.0015	-0.4733	
-0.922076	-0.018422	0.398574	16.59	2.94	3.78	0.2963	-0.0008	-0.4632	
-0.91439	-0.016592	0.41724	18.76	1.47	4.06	0.2908	0.0066	-0.4699	
-0.921954	0.002196	0.399062	24.15	3.85	3.5	0.2845	0.0054	-0.4702	
-0.933666	0.018544	0.393694	25.41	1.47	2.8	0.2914	-0.0046	-0.4679	
-0.944158	0.037088	0.415776	24.15	-3.85	1.05	0.2838	0.0017	-0.4837	
-0.932324	0.04392	0.42517	21	-2.31	0.21	0.288	-0.0071	-0.4725	
-0.91256	0.044164	0.419314	17.36	-0.91	-1.19	0.2835	-0.0072	-0.4682	
-0.899262	0.008052	0.402966	14.63	-4.34	-1.96	0.2924	-0.007	-0.4798	
-0.909998	0.019764	0.40809	17.08	-6.23	-2.45	0.2865	-0.0058	-0.4696	
-0.916464	0.016592	0.425536	16.87	-6.58	-2.8	0.2974	-0.0074	-0.475	
-0.913536	0.032818	0.442738	15.54	-6.44	-2.8	0.2862	-0.0166	-0.4813	
-0.89426	0.048434	0.44408	12.18	-5.81	-2.94	0.2915	-0.0211	-0.4763	
-0.868518	0.050264	0.445056	7.91	-5.18	-3.29	0.2863	-0.0139	-0.4784	
-0.847168	0.03111	0.446032	4.76	-3.71	-3.92	0.2704	-0.0161	-0.4792	
-0.853512	0.008417999	0.449936	3.43	-2.31	-4.55	0.2834	-0.0181	-0.4768	
-0.877912	0.006832	0.451278	3.29	-1.82	-4.13	0.2882	-0.0182	-0.4766	
-0.895358	0.00854	0.452254	2.45	-3.01	-3.01	0.2734	-0.0281	-0.4619	
-0.901946	0.019276	0.456768	0.7	-1.89	-2.03	0.2867	-0.021	-0.4765	
-0.89365	0.008296	0.450424	-0.7	-0.07	-1.54	0.284	-0.024	-0.469	
-0.88877	-0.001098	0.43981	-1.12	1.33	-1.47	0.2738	-0.0232	-0.4802	
-0.889258	0.010004	0.430782	-0.28	2.03	-1.89	0.2918	-0.0213	-0.4717	
-0.904874	0.020374	0.429318	0.07	2.24	-2.03	0.2929	-0.0115	-0.4736	
-0.920368	0.016348	0.43981	-1.47	0.91	-1.82	0.286	-0.0137	-0.4829	
-0.913414	0.016836	0.436882	-3.43	-1.4	-0.56	0.2853	-0.0238	-0.475	
-0.898042	0.032208	0.431026	-4.76	-1.33	0.28	0.2816	-0.0165	-0.4785	
-0.885476	0.036234	0.428952	-5.32	-0.63	-0.28	0.2787	-0.0125	-0.4713	
-0.895968	0.017202	0.43615	-4.62	0.56	-1.75	0.2783	-0.0123	-0.4774	
-0.913536	0.007564	0.436394	-3.85	0.63	-2.17	0.2879	-0.0125	-0.4783	
-0.917196	0.001464	0.439688	-5.39	-1.75	-1.12	0.2807	-0.0156	-0.4665	
-0.900238	0.01098	0.445666	-7.35	-3.36	0.07	0.2748	-0.0009999999	-0.475	
-0.892552	0.014396	0.441762	-8.33	-3.08	0.56	0.2897	-0.0182	-0.478	
-0.905362	0.00549	0.439932	-7.07	-1.68	-0.28	0.2852	-0.0278	-0.4794	
-0.917684	-0.000976	0.431026	-5.46	-1.33	-1.4	0.2752	-0.015	-0.4774	
-0.906338	-0.00305	0.440786	-5.39	-1.75	-2.1	0.2818	-0.0153	-0.474	
-0.896822	-0.007198	0.442738	-6.37	-2.03	-1.82	0.2777	0.0004	-0.4794	
-0.894748	-0.005368	0.441274	-8.54	-2.8	-0.42	0.2762	-0.0009	-0.4795	
-0.903654	0.011468	0.431392	-11.06	-4.69	0.35	0.2792	-0.0105	-0.488	
-0.914146	0.025498	0.445666	-11.55	-5.74	-0.14	0.2817	-0.009699999	-0.4727	
-0.91012	0.007442	0.448838	-10.36	-4.76	-1.19	0.276	0.0046	-0.4797	
-0.897798	-0.012932	0.44408	-11.27	-4.9	-1.47	0.28	0.005	-0.4931	
-0.902922	-0.032452	0.44713	-12.53	-5.39	-0.28	0.2854	0.0017	-0.4836	
-0.908168	-0.033428	0.452986	-11.76	-4.55	1.75	0.2757	0.0021	-0.4857	
-0.916342	-0.022204	0.45201	-10.15	-4.83	2.87	0.2742	0.0021	-0.4842	
-0.918416	-0.015006	0.448472	-10.36	-6.86	3.08	0.261	0.0124	-0.4854	
-0.905118	-0.00976	0.451766	-9.45	-6.09	1.47	0.2856	0.0029	-0.4791	
-0.889258	-0.014762	0.451644	-9.66	-3.71	0.21	0.2641	0.0096	-0.4881	
-0.883768	-0.00915	0.44774	-12.74	-2.38	0.42	0.2671	0.0178	-0.4868	
-0.884256	-0.018178	0.45933	-15.96	-4.69	1.75	0.2785	0.0077	-0.4888	
-0.869372	-0.024522	0.464576	-15.12	-3.15	2.87	0.2599	0.0039	-0.4821	
-0.866078	-0.0183	0.462624	-13.3	-2.73	3.08	0.2657	0.0082	-0.4895	
-0.872178	-0.02074	0.481168	-10.64	-2.17	2.59	0.2593	0.0084	-0.4899	
-0.886696	-0.024034	0.476288	-9.17	-0.91	1.47	0.2753	0.0119	-0.4861	
-0.898652	-0.022082	0.46665	-10.78	-1.26	0.84	0.2658	0.0094	-0.4865	
-0.884012	-0.03904	0.463234	-12.25	-0.63	1.19	0.261	0.0165	-0.4825	
-0.8662	-0.052094	0.470432	-12.04	3.43	3.36	0.2656	0.0151	-0.4868	
-0.8723	-0.034648	0.461648	-8.4	4.76	2.31	0.2653	0.018	-0.4899	
-0.879132	-0.012932	0.470676	-7.28	4.13	1.12	0.2622	0.0276	-0.4814	
-0.889746	-0.001952	0.476166	-6.3	4.97	-0.77	0.2646	0.0093	-0.4805	
-0.898042	-0.016714	0.45689	-7.21	8.33	-2.59	0.2661	0.0106	-0.4805	
-0.89975	-0.035746	0.442982	-10.15	6.51	-2.59	0.2764	0.0218	-0.4879	
-0.89914	-0.05612	0.453596	-10.29	2.87	-1.75	0.274	0.0172	-0.4773	
-0.903288	-0.04148	0.44469	-5.32	3.36	-2.17	0.2695	0.0278	-0.4931	
-0.919026	-0.01403	0.443958	-3.64	3.01	-2.87	0.2747	0.0113	-0.4695	
-0.941474	-0.02196	0.434808	-5.04	2.38	-2.8	0.275	0.0258	-0.4821	
-0.954162	-0.031842	0.450302	-9.03	1.61	-2.17	0.2754	0.0269	-0.4746	
-0.936472	-0.042944	0.413946	-10.15	-0.98	-2.1	0.2702	0.0232	-0.4838	
-0.899018	-0.048312	0.454328	-9.66	-0.49	-1.75	0.2622	0.0304	-0.48	
-0.89975	-0.03721	0.421144	-10.29	1.96	-2.38	0.2699	0.0289	-0.4856	
-0.9028	-0.045994	0.43432	-11.27	0.14	-2.52	0.2652	0.0277	-0.4858	
-0.924394	-0.044164	0.42578	-8.75	-2.38	-3.36	0.2732	0.0315	-0.4825	
-0.91927	-0.054778	0.47702	-8.05	-2.8	-3.85	0.2667	0.0386	-0.4801	
-0.93635	-0.035746	0.4575	-6.72	-2.87	-3.99	0.2648	0.0375	-0.4862	
-0.89121	-0.061122	0.457378	-7.77	-5.39	-5.18	0.27	0.0357	-0.4798	
-0.89365	-0.052094	0.430172	-8.19	0.14	-4.69	0.2755	0.043	-0.4904	
-0.92049	-0.062952	0.440786	-11.34	1.96	-4.83	0.2693	0.0485	-0.4834	
-0.960872	-0.055632	0.414678	-8.96	-0.91	-5.46	0.2614	0.0391	-0.488	
-0.946354	-0.061122	0.43493	-9.24	-10.36	-6.23	0.2715	0.0398	-0.4784	
-0.91012	-0.066978	0.447008	-8.05	-14.63	-5.81	0.2643	0.0419	-0.4909	
-0.892308	-0.090524	0.428586	-9.45	-11.69	-4.41	0.252	0.0366	-0.4869	
-0.886696	-0.11163	0.46787	-10.43	-13.02	-3.85	0.2599	0.058	-0.5024	
-0.888282	-0.126026	0.46726	-7.07	-15.75	-3.85	0.2519	0.0435	-0.4841	
-0.868518	-0.144082	0.46909	-4.76	-14.98	-4.76	0.2551	0.0489	-0.4812	
-0.856562	-0.116998	0.48251	-2.94	-14.63	-4.83	0.2411	0.0556	-0.4973	
-0.839238	-0.129808	0.48983	-2.24	-15.12	-4.41	0.2446	0.0539	-0.4925	
-0.837164	-0.108458	0.502762	-1.19	-12.25	-3.71	0.2445	0.054	-0.4956	
-0.833992	-0.099552	0.505324	-1.33	-7.98	-2.38	0.2443	0.0582	-0.4957	
-0.845948	-0.090524	0.489952	1.82	-8.61	-3.57	0.2364	0.0625	-0.4918	
-0.825086	-0.104676	0.507032	1.12	-11.06	-3.01	0.2455	0.0612	-0.5003	
-0.810934	-0.109068	0.517524	-0.07	-10.08	-0.84	0.2411	0.0556	-0.4973	
-0.816302	-0.104798	0.517036	-0.35	-4.62	1.19	0.2474	0.0472	-0.5042	
-0.84363	-0.10492	0.505324	2.45	-1.82	1.26	0.2458	0.0582	-0.4972	
-0.851804	-0.104432	0.507764	2.73	-4.62	0.35	0.2441	0.0556	-0.5002	
-0.837896	-0.105774	0.510814	2.38	-4.55	0	0.2323	0.0591	-0.5085	
-0.834358	-0.10614	0.507032	1.68	-2.59	0.14	0.2476	0.0525	-0.4968	
-0.850218	-0.110654	0.499224	1.68	0.07	0.14	0.2439	0.0503	-0.5075	
-0.860466	-0.105042	0.502884	2.52	-0.28	0.21	0.243	0.0512	-0.4955	
-0.849242	-0.093818	0.504958	2.94	-1.96	0.63	0.2314	0.0532	-0.5008	
-0.84546	-0.095404	0.504104	3.29	-0.84	1.47	0.2425	0.0598	-0.4989	
-0.844484	-0.091378	0.507154	3.78	0.42	1.96	0.2301	0.0503	-0.4977	
-0.837164	-0.08601	0.512034	3.71	0.28	2.24	0.2346	0.0559	-0.4992	
-0.845338	-0.089182	0.507642	3.36	1.26	2.45	0.2359	0.045	-0.5108	
-0.862052	-0.09089	0.513498	4.13	1.96	1.89	0.233	0.0463	-0.505	
-0.843996	-0.089182	0.522648	4.06	1.12	0.63	0.2283	0.0478	-0.5038	
-0.840214	-0.076738	0.50813	3.5	1.61	0.07	0.2356	0.059	-0.5084	
-0.870226	-0.086742	0.506056	1.4	4.55	0.49	0.241	0.0488	-0.5031	
-0.878644	-0.104554	0.505202	3.43	3.36	1.47	0.2373	0.0519	-0.5095	
-0.864248	-0.101504	0.499346	3.85	0.21	2.45	0.2375	0.0587	-0.5022	
-0.83997	-0.076006	0.493124	6.72	2.03	0.35	0.2474	0.0513	-0.5013	
-0.84058	-0.045872	0.505202	4.76	3.43	-1.12	0.2315	0.0504	-0.5007	
-0.864614	-0.05612	0.504958	4.2	4.83	-2.1	0.2297	0.0479	-0.5067	
-0.88816	-0.068076	0.509594	2.87	3.64	-1.54	0.2345	0.0559	-0.5007	
-0.86681	-0.089304	0.508252	3.29	2.38	-0.77	0.2325	0.0604	-0.5056	
-0.858148	-0.087352	0.490318	6.02	1.89	-1.05	0.2303	0.0461	-0.4975	
-0.848998	-0.079422	0.498736	9.03	4.62	-1.96	0.2398	0.0472	-0.497	
-0.851682	-0.07124799	0.495686	11.2	5.39	-3.29	0.2507	0.0498	-0.5011	
-0.871934	-0.065758	0.489708	9.45	4.55	-4.27	0.2396	0.0487	-0.5002	
-0.897676	-0.067466	0.489098	6.3	5.6	-3.71	0.2477	0.0402	-0.5039	
-0.88206	-0.10004	0.495442	5.95	4.41	-1.4	0.248	0.0358	-0.5007	
-0.86437	-0.09857599	0.477142	5.25	3.29	0.49	0.2431	0.0457	-0.4968	
-0.84424	-0.083082	0.48861	5.67	3.5	0.63	0.2494	0.0428	-0.5009	
-0.877546	-0.072102	0.482876	8.05	7.84	-0.7	0.2385	0.0457	-0.494	
-0.910608	-0.073932	0.48373	7.35	7.42	-1.75	0.2466	0.0371	-0.4963	
-0.912316	-0.083204	0.492392	4.41	5.11	-1.05	0.2527	0.0412	-0.4991	
-0.892674	-0.083326	0.484706	4.34	5.88	1.19	0.245	0.0427	-0.4936	
-0.87596	-0.07625	0.471896	3.99	3.57	3.29	0.2467	0.0288	-0.5005	
-0.875716	-0.064172	0.471774	3.64	2.38	2.94	0.2663	0.0307	-0.4919	
-0.868152	-0.050874	0.48251	3.36	2.17	2.24	0.2503	0.0381	-0.4885	
-0.879742	-0.077714	0.475434	1.89	5.32	1.89	0.2603	0.0252	-0.489	
-0.892918	-0.084912	0.473238	2.94	7.42	3.01	0.2547	0.0272	-0.5015	
-0.88816	-0.089914	0.468358	4.9	4.69	3.22	0.2517	0.0299	-0.4957	
-0.88694	-0.077104	0.476654	8.12	3.92	3.43	0.2582	0.031	-0.4939	
-0.887184	-0.061854	0.466772	10.85	4.9	3.15	0.2497	0.0357	-0.4991	
-0.89792	-0.07124799	0.48312	12.6	3.5	2.87	0.2639	0.0179	-0.487	
-0.90036	-0.064904	0.468114	13.23	9.17	3.78	0.265	0.0237	-0.4917	
-0.8723	-0.066246	0.487146	13.72	3.78	2.03	0.2507	0.0172	-0.4937	
-0.864614	-0.045628	0.46177	15.47	6.02	2.17	0.2671	0.0178	-0.4868	
-0.867786	-0.03111	0.469456	17.08	9.03	2.52	0.2733	0.0177	-0.4895	
-0.891088	-0.038918	0.461892	19.6	12.39	1.75	0.277	0.0132	-0.4845	
-0.924882	-0.057096	0.469334	17.99	2.45	3.64	0.2592	0.0084	-0.4914	
-0.931836	-0.04697	0.457744	20.58	8.75	3.64	0.2608	0.0166	-0.4856	
-0.913536	-0.005612	0.450058	23.52	8.89	3.15	0.2677	0.0037	-0.4847	
-0.912682	-0.006832	0.45872	22.68	4.9	1.68	0.2628	0.0122	-0.4823	
-0.917562	0.000244	0.438346	22.89	8.12	1.75	0.2766	-0.0025	-0.4733	
-0.92171	0.0061	0.426268	19.88	1.61	1.68	0.2829	-0.0068	-0.4773	
-0.923052	0.009028	0.439444	17.43	-1.54	2.38	0.273	0.0005	-0.4782	
-0.903166	0.027206	0.434076	15.82	-1.05	1.68	0.2732	-0.0105	-0.4823	
-0.900116	0.044774	0.428586	14.14	-2.31	-0.7	0.2684	-0.0076	-0.4811	
-0.900116	0.029036	0.443226	10.99	-1.96	-2.17	0.2738	-0.0003	-0.4932	
-0.900482	0.012932	0.44896	8.82	-1.89	-2.17	0.2733	-0.0078	-0.4793	
-0.894504	-0.003538	0.453352	5.25	-3.92	-1.47	0.2619	-0.0128	-0.4858	
-0.876326	-0.003904	0.465674	3.99	-4.34	-0.7	0.2761	-0.0022	-0.4824	
-0.854488	-0.004392	0.464454	4.55	-3.01	-1.19	0.2678	-0.0113	-0.4931	
-0.859612	-0.005124	0.47519	5.25	-1.68	-2.59	0.2648	-0.0141	-0.4916	
-0.876692	0.00244	0.477508	3.85	-0.49	-2.73	0.268	-0.0128	-0.49	
-0.878278	0.008662	0.466772	1.54	-0.21	-2.31	0.2748	-0.0119	-0.4836	
-0.873276	0.010004	0.460672	0.14	1.19	-1.96	0.2654	-0.0104	-0.4781	
-0.872422	0.012322	0.460794	0.28	2.17	-1.75	0.2732	-0.0146	-0.4851	
-0.870592	0.01342	0.458842	-0.84	1.47	-1.89	0.2763	-0.0092	-0.4821	
-0.876082	0.004636	0.455304	-3.85	1.68	-2.66	0.27	-0.0104	-0.4824	
-0.910852	-0.00854	0.455304	-5.39	2.03	-2.31	0.2651	-0.0129	-0.4856	
-0.924516	-0.013786	0.44713	-6.16	0.28	-0.98	0.2862	-0.0165	-0.4828	
-0.915122	-0.013908	0.445178	-4.9	-1.12	0.28	0.2651	-0.0102	-0.4842	
-0.90341	-0.01403	0.449448	-4.06	-0.7	0.42	0.2692	-0.0044	-0.4918	
-0.899018	-0.013786	0.449326	-4.41	-0.77	0.28	0.2663	-0.0182	-0.4959	
-0.892186	-0.016348	0.448838	-5.6	-1.75	-0.28	0.2694	-0.0059	-0.4902	
-0.89975	-0.029158	0.453596	-9.24	-2.66	0.28	0.2718	0.004	-0.4965	
-0.90219	-0.0305	0.463966	-10.22	-4.55	0.49	0.2702	-0.0037	-0.4751	
-0.89487	-0.012078	0.47031	-7.98	-6.16	-0.35	0.2651	-0.002	-0.4785	
-0.88694	0.003782	0.465064	-5.18	-2.87	-1.89	0.2721	0.0038	-0.492	
-0.87962	0.00854	0.453718	-3.78	1.26	-2.24	0.2724	0.0036	-0.4859	
-0.876448	0.000854	0.453108	-6.3	-0.14	-0.91	0.2679	0.0022	-0.4831	
-0.891332	-0.010004	0.463234	-9.94	-3.64	0.63	0.2643	0.0094	-0.4851	
-0.903532	-0.020984	0.473116	-11.48	-5.18	2.31	0.2663	0.0009	-0.4831	
-0.89426	-0.02806	0.46604	-10.57	-5.95	2.94	0.2661	-0.0016	-0.4891	
-0.889868	-0.033672	0.466528	-10.5	-5.04	3.01	0.2594	0.0069	-0.4883	
-0.882426	-0.024888	0.462746	-10.15	-3.43	1.19	0.2622	0.003	-0.4986	
-0.878888	-0.014884	0.46421	-9.45	-0.98	-1.89	0.2628	-0.0028	-0.4907	
-0.88633	-0.023912	0.459452	-10.15	1.19	-2.8	0.2563	0.0029	-0.4898	
-0.886696	-0.038552	0.45933	-12.04	0.28	-0.7	0.2688	0.0109	-0.4894	
-0.887184	-0.041846	0.47092	-13.65	-2.59	2.8	0.2576	0.0154	-0.4872	
-0.878888	-0.025132	0.482998	-13.09	0.56	5.32	0.2576	0.0099	-0.49	
-0.875106	-0.017446	0.480802	-10.36	0.42	3.99	0.2688	0.0081	-0.4908	
-0.884866	-0.026596	0.467382	-12.11	1.12	2.31	0.2539	0.0171	-0.4935	
-0.898774	-0.052338	0.457134	-12.6	1.89	1.75	0.267	0.0248	-0.484	
-0.893894	-0.076372	0.457622	-12.39	3.64	2.52	0.2591	0.0208	-0.4843	
-0.88816	-0.063196	0.458598	-10.43	4.41	2.66	0.2631	0.0092	-0.4776	
-0.884866	-0.033672	0.460794	-7.56	4.41	2.59	0.2692	0.0161	-0.479	
-0.883158	-0.02135	0.464576	-4.27	2.94	1.12	0.2701	0.0219	-0.4868	
-0.870592	-0.014762	0.473482	-4.13	3.85	1.68	0.2591	0.0181	-0.4872	
-0.857172	-0.01586	0.466162	-7.7	5.32	0.84	0.2727	0.0103	-0.4771	
-0.86498	-0.015128	0.466406	-11.13	5.95	0.21	0.2729	0.0156	-0.4697	
-0.889624	-0.018788	0.45567	-12.11	8.4	-1.05	0.2656	0.0246	-0.4796	
-0.917684	-0.020618	0.453474	-13.09	9.94	-1.75	0.2721	0.023	-0.4792	
-0.936106	-0.0244	0.452864	-13.72	8.19	-0.77	0.2735	0.0286	-0.4793	
-0.914634	-0.037942	0.437004	-13.02	7.98	-0.49	0.2726	0.0401	-0.4874	
-0.902434	-0.042944	0.43188	-11.27	5.04	-0.56	0.2737	0.027	-0.4762	
-0.890112	-0.056364	0.433344	-11.06	4.62	-1.19	0.2736	0.0381	-0.4721	
-0.89731	-0.057706	0.44652	-10.57	7.91	-2.87	0.2841	0.0355	-0.4851	
-0.90158	-0.070028	0.428464	-10.08	9.73	-4.27	0.2783	0.0325	-0.4762	
-0.902678	-0.079422	0.421632	-8.47	8.19	-5.32	0.2794	0.0342	-0.4838	
-0.89731	-0.090646	0.428708	-6.65	6.86	-5.25	0.2668	0.0331	-0.4814	
-0.896578	-0.07991	0.432856	-4.76	8.61	-5.04	0.2814	0.0352	-0.4761	
-0.895358	-0.064172	0.435906	-4.62	8.96	-4.76	0.2798	0.038	-0.4748	
-0.901092	-0.039528	0.416752	-5.95	10.71	-4.13	0.2766	0.0354	-0.4764	
-0.90402	-0.06344	0.416386	-9.45	10.64	-3.57	0.2849	0.0363	-0.4699	
-0.92476	-0.074908	0.411872	-9.73	11.97	-0.91	0.2887	0.0464	-0.4807	
-0.929152	-0.088694	0.405162	-8.54	8.96	0.56	0.291	0.0404	-0.4728	
-0.935008	-0.09089	0.398574	-6.23	5.74	0.7	0.288	0.0417	-0.4685	
-0.930128	-0.10004	0.394914	-3.85	4.83	-0.35	0.2942	0.0375	-0.474	
-0.933056	-0.102724	0.390156	-2.17	4.48	-1.4	0.2843	0.0435	-0.4763	
-0.925858	-0.106506	0.388448	-2.1	4.62	-1.75	0.2864	0.0445	-0.4671	
-0.9211	-0.110532	0.38796	-1.26	4.2	-0.49	0.2901	0.0427	-0.4593	
-0.924882	-0.108458	0.38186	-1.33	2.59	1.4	0.2897	0.0402	-0.4683	
-0.92842	-0.104188	0.38857	-1.89	2.31	3.22	0.2837	0.0388	-0.4625	
-0.925614	-0.09638	0.39833	-0.49	2.17	3.92	0.2893	0.0446	-0.4715	
-0.922076	-0.080276	0.39955	-0.56	2.31	4.2	0.293	0.0469	-0.4608	
-0.923662	-0.071858	0.39162	-0.91	1.68	3.99	0.2819	0.0472	-0.4599	
-0.92659	-0.077226	0.405772	-1.12	1.4	3.5	0.2912	0.0403	-0.4697	
-0.91988	-0.07905599	0.407358	-0.91	1.82	3.43	0.2993	0.0468	-0.4635	
-0.903898	-0.070272	0.401502	0	1.89	3.5	0.2918	0.0412	-0.4576	
-0.899994	-0.062708	0.390034	0.28	2.1	3.71	0.3043	0.0424	-0.4631	
-0.91317	-0.061122	0.385764	0.21	1.54	3.85	0.3028	0.0451	-0.4587	
-0.931592	-0.06161	0.398574	1.12	1.26	4.06	0.3046	0.0367	-0.4613	
-0.938546	-0.059902	0.393938	1.68	1.26	3.99	0.2951	0.0383	-0.4589	
-0.941108	-0.056242	0.386618	0.49	0.77	3.78	0.3061	0.0367	-0.4627	
-0.939156	-0.055754	0.391498	-0.35	0.98	3.5	0.2959	0.0483	-0.4653	
-0.928786	-0.063196	0.390888	-0.49	1.47	3.22	0.2901	0.0358	-0.4636	
-0.920612	-0.06344	0.386008	-0.7	1.26	2.66	0.2963	0.0412	-0.4634	
-0.925248	-0.060756	0.386862	0	0.63	2.1	0.3025	0.0385	-0.469	
-0.928054	-0.059292	0.38247	0.28	0.77	1.61	0.2834	0.039	-0.4671	
-0.932568	-0.055876	0.3782	-0.49	0.21	1.61	0.303	0.0394	-0.4585	
-0.939156	-0.05673	0.391132	-0.84	-0.56	2.03	0.2979	0.0453	-0.4605	
-0.935252	-0.061732	0.400282	-0.49	-0.91	2.45	0.2891	0.0475	-0.4732	
-0.92476	-0.056974	0.397842	-0.07	-0.42	2.45	0.2961	0.0373	-0.4693	
-0.913048	-0.050142	0.390644	0.21	-0.14	1.82	0.2917	0.0412	-0.4592	
-0.90829	-0.045994	0.392962	-0.42	0.07	0.84	0.3002	0.0324	-0.4568	
-0.904752	-0.04148	0.395524	-0.98	0.77	0.07	0.2931	0.04	-0.4636	
-0.91073	-0.049776	0.400404	-1.54	0.84	-0.35	0.3043	0.0423	-0.4615	
-0.923174	-0.056974	0.39894	-1.12	0.7	-0.56	0.2977	0.0427	-0.4649	
-0.929518	-0.061976	0.394426	-0.35	0.91	-0.49	0.2914	0.0469	-0.4609	
-0.93391	-0.061488	0.38552	0.07	0.84	-0.49	0.2933	0.0371	-0.4619	
-0.93635	-0.058438	0.38125	0.07	0.35	-0.84	0.3012	0.0424	-0.4602	
-0.932934	-0.060512	0.379664	-0.14	0.21	-1.12	0.2932	0.033	-0.4663	
-0.930494	-0.062464	0.379786	-0.49	0	-1.4	0.2928	0.0415	-0.4682	
-0.930616	-0.067466	0.390766	-0.77	-0.42	-1.26	0.2982	0.0369	-0.4617	
-0.929518	-0.06734399	0.393694	-0.42	-0.42	-0.98	0.2899	0.0401	-0.4637	
-0.92415	-0.06283	0.388814	0.07	-0.56	-0.63	0.2854	0.0387	-0.4609	
-0.92049	-0.05917	0.391986	0.07	-0.98	-0.49	0.2981	0.0342	-0.4646	
-0.919392	-0.05978	0.394548	-0.07	-0.84	-0.56	0.291	0.0486	-0.4671	
-0.92232	-0.060146	0.395524	-0.14	-0.7	-0.77	0.2992	0.0386	-0.4692	
-0.923784	-0.06161	0.390156	-0.07	-0.7	-0.91	0.3006	0.0428	-0.4708	
-0.923662	-0.060146	0.387594	-0.14	-0.84	-1.12	0.2932	0.0358	-0.4649	
-0.925614	-0.059536	0.389546	-0.07	-0.77	-1.05	0.3019	0.0296	-0.4566	
-0.9272	-0.062342	0.395158	0.14	-0.77	-1.05	0.2949	0.037	-0.4618	
-0.924272	-0.059902	0.394182	0.14	-0.63	-0.98	0.3027	0.0342	-0.4673	
-0.922808	-0.058438	0.385764	-0.42	-0.56	-0.84	0.2985	0.0353	-0.457	
-0.925858	-0.064416	0.39589	-0.98	-0.91	-0.56	0.3003	0.0402	-0.4768	
-0.925004	-0.064294	0.395524	-0.63	-0.63	-0.42	0.2964	0.033	-0.4676	
-0.921344	-0.068564	0.394304	-0.28	-0.77	-0.28	0.298	0.0397	-0.4618	
-0.922076	-0.068808	0.39101	-0.07	-0.7	-0.28	0.2979	0.0371	-0.4662	
-0.923052	-0.070028	0.395524	-0.14	-0.63	-0.14	0.3042	0.0342	-0.4688	
-0.921832	-0.070394	0.394914	-0.14	-0.42	-0.07	0.2898	0.036	-0.4681	
-0.9211	-0.07137	0.392108	0.28	-0.49	0.14	0.2929	0.0442	-0.4653	
-0.92476	-0.072346	0.39406	0.42	-0.77	0.21	0.2942	0.0485	-0.4669	
-0.925126	-0.06832	0.392474	1.12	-0.84	0.21	0.293	0.04	-0.4651	
-0.926224	-0.066856	0.393206	0.63	-0.84	0.49	0.2971	0.0513	-0.4699	
-0.92476	-0.063196	0.388082	0.42	-0.7	0.7	0.2949	0.0398	-0.4604	
-0.923052	-0.06161	0.3965	-0.14	-1.12	0.84	0.2929	0.036	-0.471	
-0.91744	-0.060268	0.396378	-0.28	-0.28	0.91	0.2994	0.0371	-0.4676	
-0.91622	-0.057584	0.395524	-0.21	-0.49	0.77	0.3005	0.0347	-0.4781	
-0.915366	-0.056364	0.399794	0	-0.84	0.49	0.3024	0.0303	-0.4748	
-0.915122	-0.05612	0.40138	0.28	-0.56	0.07	0.3027	0.0355	-0.4659	
-0.916464	-0.056852	0.401136	0.42	-0.14	-0.14	0.2877	0.0378	-0.4759	
-0.916586	-0.055876	0.396256	0.21	0.21	-0.49	0.2991	0.0359	-0.4737	
-0.919758	-0.055266	0.397354	0.07	0.14	-0.84	0.2994	0.0371	-0.4676	
-0.9211	-0.053436	0.396378	0.35	-0.07	-1.19	0.2948	0.0385	-0.4634	
-0.920978	-0.052948	0.396622	0.77	-0.14	-1.61	0.2963	0.033	-0.4692	
-0.92537	-0.052582	0.394548	0.98	0.42	-2.1	0.2966	0.0315	-0.4645	
-0.926102	-0.057096	0.39589	0.49	-0.14	-2.31	0.3077	0.0352	-0.4626	







-0.91744	-0.076738	0.397354	0.28	-0.07	0.21	0.296	0.0455	-0.4651	
-0.917074	-0.06222	0.399062	-0.35	-0.35	-0.56	0.2899	0.0346	-0.4681	
-0.921344	-0.063318	0.395646	-0.14	-0.07	-0.49	0.2991	0.04	-0.4708	
-0.92171	-0.063318	0.399184	-0.21	-0.07	-0.42	0.2901	0.0317	-0.4664	
-0.92171	-0.063928	0.398696	-0.21	-0.14	-0.42	0.3042	0.0438	-0.4631	
-0.919026	-0.064416	0.39711	-0.21	-0.28	-0.14	0.2902	0.0344	-0.462	
-0.919636	-0.063684	0.396378	-0.14	0	-0.21	0.3059	0.0382	-0.4643	
-0.92049	-0.064172	0.399794	-0.14	0.21	-0.35	0.3028	0.0245	-0.4715	
-0.921344	-0.065026	0.396134	-0.42	0.21	-0.42	0.298	0.0384	-0.4632	
-0.926346	-0.067588	0.395646	-0.21	-0.14	-0.28	0.2963	0.0371	-0.4663	
-0.921588	-0.067222	0.397598	-0.07	-0.63	-0.28	0.2881	0.043	-0.4655	
-0.918538	-0.066002	0.397354	-0.07	-0.07	-0.07	0.2881	0.0307	-0.4741	
-0.916342	-0.065148	0.399306	-0.14	0.14	-0.07	0.293	0.0387	-0.4665	
-0.91744	-0.063318	0.39772	0.07	-0.14	-0.07	0.2979	0.0453	-0.4605	
-0.918172	-0.063318	0.396622	-0.21	-0.28	-0.07	0.2911	0.0458	-0.4669	
-0.918416	-0.063928	0.400648	-0.28	0.35	0	0.3013	0.0369	-0.463	
-0.920856	-0.065514	0.399672	-0.28	0.49	0.07	0.2959	0.0346	-0.4738	
-0.91988	-0.06466	0.397232	-0.42	-0.07	0.07	0.2933	0.0302	-0.4662	
-0.919636	-0.063684	0.397232	-0.21	-0.35	0	0.2942	0.043	-0.4712	
-0.920612	-0.062342	0.399062	-0.07	0	-0.07	0.2836	0.0389	-0.464	
-0.922686	-0.061854	0.39711	0.07	0.35	-0.07	0.2963	0.0426	-0.462	
-0.92354	-0.06283	0.395524	-0.28	0.21	0.07	0.298	0.0384	-0.4632	
-0.925614	-0.063318	0.395036	-0.42	-0.14	0.14	0.2834	0.039	-0.4671	
-0.925736	-0.064172	0.396134	-0.42	-0.49	0.07	0.2931	0.04	-0.4636	
-0.923906	-0.065148	0.395402	-0.21	-0.07	-0.14	0.2959	0.0374	-0.4724	
-0.921344	-0.065392	0.396256	-0.21	-0.14	-0.28	0.2943	0.0388	-0.471	
-0.91988	-0.06527	0.397964	-0.07	-0.14	-0.14	0.2977	0.04	-0.4679	
-0.919148	-0.064294	0.39894	-0.28	-0.49	0	0.2849	0.0418	-0.4671	
-0.918782	-0.06405	0.399916	-0.42	-0.35	0	0.2964	0.0412	-0.4619	
-0.919026	-0.064538	0.401014	-0.35	-0.07	0.07	0.2949	0.0371	-0.4634	
-0.920734	-0.064294	0.398208	-0.21	0.14	0.14	0.2962	0.0441	-0.4636	
-0.920246	-0.06405	0.39772	-0.14	-0.21	0	0.2766	0.0477	-0.4678	
-0.922076	-0.064172	0.398208	-0.14	-0.07	0.07	0.2943	0.0402	-0.4711	
-0.9211	-0.065392	0.396256	0.07	0.07	-0.07	0.2945	0.0455	-0.4637	
-0.922686	-0.06405	0.3965	0.07	0.14	0	0.2974	0.0442	-0.4696	
-0.92293	-0.063562	0.396622	-0.14	-0.21	0.07	0.2946	0.0359	-0.4679	
-0.923174	-0.062952	0.395646	-0.35	-0.49	0	0.2966	0.0411	-0.4589	
-0.923662	-0.06405	0.397232	-0.14	-0.35	0.07	0.3012	0.041	-0.4617	
-0.923174	-0.062586	0.395402	-0.14	-0.49	0	0.2966	0.0315	-0.4645	
-0.922808	-0.06283	0.396988	-0.49	-0.91	-0.07	0.2908	0.0432	-0.4744	
-0.923174	-0.06161	0.398086	-0.35	-0.98	-0.14	0.2949	0.0398	-0.4604	
-0.923296	-0.063562	0.40138	0	-0.98	-0.28	0.2827	0.049	-0.4721	
-0.920246	-0.064416	0.39711	-0.07	-0.91	-0.35	0.3	0.0394	-0.4556	
-0.91988	-0.063562	0.39467	-0.35	-0.91	-0.21	0.2978	0.0481	-0.4606	
-0.915854	-0.06344	0.402234	-0.42	-1.4	-0.21	0.2901	0.0413	-0.4592	
-0.913048	-0.061732	0.403942	-0.56	-1.05	-0.28	0.2958	0.0484	-0.4668	
-0.909266	-0.059414	0.404186	-0.49	-0.63	-0.42	0.2943	0.0374	-0.4725	
-0.909754	-0.060024	0.402966	-0.84	-0.28	-0.35	0.2925	0.0445	-0.4713	
-0.917196	-0.064294	0.402966	-0.91	0	-0.21	0.2913	0.0456	-0.4639	
-0.920978	-0.067466	0.404308	-0.98	-0.35	-0.28	0.2948	0.0412	-0.462	
-0.921466	-0.068198	0.39955	-0.84	-0.28	-0.28	0.2961	0.04	-0.4679	
-0.922076	-0.069662	0.39406	-0.98	0	-0.35	0.2785	0.0378	-0.4688	
-0.926102	-0.069906	0.394792	-1.05	-0.56	-0.56	0.2965	0.037	-0.4633	
-0.923174	-0.070638	0.402112	-0.63	-1.05	-0.63	0.2851	0.0389	-0.4655	
-0.919636	-0.06893	0.399672	-0.35	-0.49	-0.28	0.2896	0.0417	-0.4684	
-0.918294	-0.069662	0.402966	-0.7	-0.42	0.14	0.2902	0.0317	-0.4649	
-0.919636	-0.066856	0.4026	-0.35	-0.91	0.07	0.294	0.0404	-0.4756	
-0.91866	-0.064782	0.40504	-0.35	-1.26	-0.07	0.3048	0.0297	-0.4625	
-0.91744	-0.065148	0.40565	-0.28	-0.63	-0.14	0.2899	0.0374	-0.4667	
-0.918172	-0.06649	0.402722	-0.07	-0.07	-0.21	0.292	0.0397	-0.4561	
-0.919026	-0.065026	0.40138	-0.14	-0.35	-0.28	0.2927	0.0471	-0.4669	
-0.912926	-0.064172	0.403942	-0.28	-0.49	-0.14	0.2946	0.0468	-0.4607	
-0.909998	-0.066124	0.403698	-0.35	0	-0.07	0.3056	0.0411	-0.4675	
-0.910364	-0.06734399	0.405406	-0.28	-0.21	-0.21	0.2861	0.0434	-0.4732	
-0.912438	-0.06954	0.4087	-0.35	-0.14	-0.35	0.297	0.0431	-0.4771	
-0.917074	-0.067832	0.404186	-0.14	0.35	-0.42	0.2962	0.0413	-0.465	
-0.92049	-0.066368	0.401258	-0.28	0.42	-0.35	0.2929	0.0401	-0.4681	
-0.91927	-0.070272	0.40565	-0.14	0.14	-0.14	0.2959	0.0456	-0.4667	
-0.914634	-0.071492	0.401014	0.42	0.28	-0.07	0.2942	0.0458	-0.4698	
-0.916098	-0.071614	0.397598	0.35	0.42	-0.28	0.2833	0.0363	-0.47	
-0.918538	-0.064294	0.394792	-0.35	0.35	-0.56	0.2959	0.0415	-0.4695	
-0.923296	-0.059536	0.396744	-1.26	0.35	-0.91	0.293	0.0442	-0.4637	
-0.92415	-0.062708	0.404552	-1.82	0.56	-0.98	0.2849	0.0472	-0.4628	
-0.918416	-0.067466	0.406626	-1.89	0.91	-0.7	0.2909	0.0432	-0.4729	
-0.910852	-0.06832	0.417362	-2.03	0.91	-0.42	0.2916	0.0399	-0.4621	
-0.896822	-0.06527	0.416386	-1.75	1.47	-0.35	0.2957	0.0403	-0.474	
-0.893772	-0.06466	0.41419	-1.26	2.45	-0.49	0.2899	0.0415	-0.4638	
-0.898164	-0.067222	0.407602	-0.77	3.57	-0.84	0.2915	0.0441	-0.4608	
-0.91256	-0.068686	0.399672	-0.77	4.62	-0.98	0.2943	0.0389	-0.4725	
-0.929518	-0.070394	0.388692	-1.4	4.48	-1.12	0.2948	0.0426	-0.4606	
-0.942572	-0.074542	0.38857	-1.96	3.29	-0.91	0.2883	0.036	-0.4667	
-0.942206	-0.07442	0.387716	-1.61	2.1	-0.77	0.2902	0.0508	-0.4521	
-0.937326	-0.071736	0.38247	-1.05	1.26	-0.7	0.2914	0.0456	-0.4624	
-0.934764	-0.072224	0.38369	-1.12	0.56	-0.7	0.2945	0.0469	-0.4638	
-0.9333	-0.075762	0.385032	-1.19	0.84	-0.63	0.2883	0.047	-0.4596	
-0.938546	-0.074664	0.38247	-1.68	0.21	-0.35	0.2994	0.048	-0.4605	
-0.93513	-0.07515199	0.384788	-1.89	-0.42	-0.35	0.2944	0.0456	-0.4652	
-0.932568	-0.078202	0.390888	-0.98	-0.49	-0.56	0.2977	0.0454	-0.4635	
-0.926956	-0.077226	0.392474	-0.07	-0.63	-0.56	0.2926	0.0526	-0.4641	
-0.919514	-0.08235	0.393328	-0.14	-0.91	-0.56	0.2928	0.0429	-0.4682	
-0.91439	-0.07869	0.389668	0.07	-0.63	-0.63	0.2844	0.0435	-0.4748	
-0.915976	-0.075884	0.396378	0.91	-0.07	-1.12	0.301	0.0466	-0.4619	
-0.92293	-0.073078	0.396256	1.12	-1.12	-1.54	0.2855	0.0496	-0.4523	
-0.926346	-0.072956	0.406748	0.91	-0.28	-1.61	0.2922	0.0406	-0.4788	
-0.925248	-0.070394	0.3965	1.54	0.49	-0.91	0.2865	0.0445	-0.4656	
-0.917074	-0.071492	0.392352	0.77	-1.12	-0.14	0.3023	0.0468	-0.4664	
-0.909754	-0.077348	0.390156	0.84	-1.68	-0.07	0.2939	0.0487	-0.473	
-0.91134	-0.081252	0.393694	1.61	-0.98	-0.28	0.3014	0.0368	-0.4615	
-0.920734	-0.08052	0.39711	1.82	-0.77	-0.84	0.2941	0.0444	-0.4713	
-0.926956	-0.076372	0.394792	1.05	-0.63	-1.05	0.2849	0.05	-0.4614	
-0.927322	-0.07381	0.39467	0.42	-0.14	-0.77	0.2846	0.0488	-0.4674	
-0.923662	-0.07515199	0.391498	-0.35	-0.7	0.21	0.2974	0.047	-0.4682	
-0.920856	-0.077348	0.391864	-0.91	-1.4	1.26	0.2955	0.05	-0.4714	
-0.922564	-0.07442	0.390888	-1.4	-2.03	1.68	0.2961	0.0414	-0.4665	
-0.921588	-0.07442	0.401624	-1.4	-2.38	1.47	0.2848	0.0459	-0.4658	
-0.917074	-0.074298	0.404064	-0.63	-1.96	1.05	0.2823	0.0466	-0.4811	
-0.917806	-0.074542	0.407602	-0.35	-1.19	0.7	0.2958	0.0471	-0.4682	
-0.918172	-0.075884	0.40687	-0.77	-0.63	0.7	0.2903	0.0532	-0.4764	
-0.91622	-0.073688	0.400648	-0.98	-0.56	0.84	0.2843	0.0476	-0.4734	
-0.91744	-0.068686	0.399184	-0.49	-0.7	0.77	0.3011	0.0411	-0.4632	
-0.920002	-0.069418	0.399062	0.42	-0.77	0.63	0.294	0.0486	-0.4699	
-0.924638	-0.068564	0.400282	0.63	-0.7	0.56	0.2911	0.0485	-0.4655	
-0.925126	-0.07124799	0.403332	0	-1.19	0.49	0.2942	0.0457	-0.4683	
-0.92171	-0.071004	0.395524	-0.98	-0.63	0.77	0.2979	0.0453	-0.4605	
-0.920856	-0.074176	0.390278	-1.82	-0.35	0.84	0.2892	0.0515	-0.4688	
-0.91927	-0.07625	0.390278	-1.4	-0.49	0.77	0.2965	0.0411	-0.4604	
-0.918172	-0.07625	0.395036	0.28	-1.05	0.35	0.296	0.0538	-0.461	
-0.918782	-0.07442	0.402112	1.89	-1.26	-0.21	0.2945	0.0455	-0.4637	
-0.920368	-0.068808	0.40809	2.31	-1.05	-0.49	0.2912	0.0485	-0.464	
-0.91744	-0.066002	0.41053	1.68	-0.63	-0.56	0.2908	0.0542	-0.4673	
-0.91073	-0.065636	0.410164	0.91	-0.7	-0.7	0.2897	0.0457	-0.464	
-0.907436	-0.067588	0.402844	0	-0.91	-0.7	0.2856	0.0505	-0.4765	
-0.91683	-0.07381	0.397842	-0.49	-0.14	-0.42	0.2913	0.0525	-0.4596	
-0.927322	-0.077714	0.390522	-0.7	0.21	0.07	0.2993	0.044	-0.4649	
-0.93574	-0.077226	0.39406	-0.56	-0.98	0.56	0.286	0.0516	-0.469	
-0.935984	-0.075762	0.395158	-0.28	-1.47	0.98	0.3007	0.0427	-0.4693	
-0.931836	-0.076616	0.395402	-0.42	-1.96	0.91	0.2922	0.0447	-0.4759	
-0.924882	-0.078446	0.40809	-0.42	-2.1	0.84	0.2892	0.0447	-0.4731	
-0.916708	-0.075274	0.41541	0.28	-2.24	0.49	0.2898	0.0402	-0.4668	
-0.908778	-0.07198	0.41358	0.63	-1.96	-0.07	0.2938	0.046	-0.4759	
-0.904142	-0.067588	0.412604	0.7	-1.05	-0.49	0.2925	0.0445	-0.4713	
-0.897798	-0.065148	0.413946	0.63	-0.77	-1.19	0.2884	0.0387	-0.4638	
-0.892552	-0.057828	0.414434	0.21	-0.7	-1.75	0.2904	0.0503	-0.4762	
-0.90829	-0.051362	0.390156	-0.49	0.91	-1.4	0.2832	0.0487	-0.4645	
-0.91866	-0.071858	0.387594	-1.61	0.35	-0.21	0.2893	0.0528	-0.4658	
-0.924882	-0.083326	0.410408	-1.05	-1.61	0.21	0.2878	0.0459	-0.4686	
-0.921832	-0.069418	0.426512	1.33	-1.82	-0.84	0.288	0.0458	-0.4656	
-0.921344	-0.054656	0.42151	0.91	0.7	-1.47	0.2849	0.0472	-0.4628	
-0.912072	-0.063562	0.409188	0.56	0.14	-2.03	0.2844	0.0435	-0.4748	
-0.897432	-0.081252	0.407724	-0.14	-1.05	-1.96	0.2891	0.0543	-0.4689	
-0.897676	-0.093208	0.406382	-0.21	-0.28	-1.33	0.276	0.0563	-0.4727	
-0.91744	-0.088206	0.397476	-0.28	1.05	-0.42	0.2928	0.0402	-0.4696	
-0.935984	-0.08052	0.395158	-0.91	0.56	0.21	0.3023	0.0427	-0.4692	
-0.936472	-0.07991	0.402234	-1.05	-0.91	0.49	0.2844	0.0448	-0.4733	
-0.925248	-0.082106	0.411872	-0.84	-0.77	0.98	0.2899	0.0415	-0.4638	
-0.911706	-0.083692	0.41602	-0.98	-0.49	1.75	0.2911	0.0389	-0.4712	
-0.902434	-0.086254	0.409066	-1.12	-1.19	2.31	0.2858	0.0504	-0.4735	
-0.905606	-0.07625	0.396866	-1.05	-0.07	2.24	0.2926	0.0472	-0.4684	
-0.91378	-0.064782	0.40565	-1.05	0.42	1.75	0.2829	0.0476	-0.4705	
-0.918538	-0.066612	0.423706	-1.47	-0.42	1.96	0.284	0.0478	-0.478	
-0.915854	-0.076372	0.41602	-1.05	-0.91	2.31	0.2874	0.0448	-0.4762	
-0.909266	-0.078202	0.406504	-0.35	-0.84	1.96	0.2847	0.046	-0.4673	
-0.904874	-0.07015	0.403332	0.14	-0.21	1.26	0.2955	0.0541	-0.4686	
-0.909388	-0.062952	0.408578	0.56	0.42	0.77	0.2805	0.0468	-0.4842	
-0.92171	-0.063684	0.413824	1.19	1.05	0.77	0.2844	0.0503	-0.4705	
-0.927078	-0.06283	0.404796	1.47	0.7	0.63	0.2895	0.0404	-0.4713	
-0.92598	-0.060878	0.398086	0.35	-0.28	0.56	0.2923	0.0474	-0.473	
-0.929518	-0.060268	0.397476	-0.84	-0.35	0.35	0.2822	0.0494	-0.4812	
-0.918172	-0.062464	0.40931	-0.63	-0.84	0.07	0.2897	0.0402	-0.4683	
-0.907558	-0.070638	0.416508	0.42	-1.33	0	0.286	0.0448	-0.4732	
-0.902068	-0.07515199	0.413214	0.84	-0.84	0	0.2909	0.0459	-0.47	
-0.904264	-0.07442	0.41541	0.84	-0.28	-0.21	0.2898	0.0401	-0.4653	
-0.914512	-0.070638	0.40809	0.84	0.56	0	0.2813	0.0435	-0.4719	
