Sensor string: A
Serial number: 1970-01-0000
Firmware version: 2,015
Hardware version: 2,2
Calibration quality: 5
ax	ay	az	gx	gy	gz	mx	my	mz

-0.070638	0.84424	0.534726	-0.28	-0.35	-0.21	-0.0273	-0.252	-0.382	Reference
-0.071858	0.841922	0.53619	-0.42	-0.28	-0.07	-0.0303	-0.2505	-0.391	
-0.072468	0.84363	0.53375	-0.49	-0.21	-0.07	-0.0258	-0.2551	-0.388	
-0.071492	0.846314	0.534482	-0.49	-0.28	0	-0.0258	-0.2536	-0.388	
-0.07076	0.84485	0.534238	-0.49	-0.42	-0.07	-0.0229	-0.2536	-0.3805	
-0.07076	0.842898	0.534848	-0.56	-0.21	-0.07	-0.0186	-0.2491	-0.3969	
-0.071126	0.845704	0.53558	-0.56	-0.35	0	-0.0214	-0.2552	-0.3895	
-0.07076	0.844484	0.536556	-0.63	-0.35	0.07	-0.0214	-0.2552	-0.391	
-0.07076	0.845216	0.536068	-0.77	-0.28	0.07	-0.0215	-0.2521	-0.3925	
-0.06954	0.84546	0.53619	-0.77	-0.28	0.14	-0.0215	-0.2475	-0.3895	
-0.070516	0.843752	0.53558	-0.84	-0.21	0	-0.0244	-0.2521	-0.397	
-0.069174	0.843874	0.538508	-0.7	-0.35	0	-0.0287	-0.2613	-0.3835	
-0.06832	0.843264	0.538996	-0.56	-0.42	0	-0.0214	-0.2536	-0.3805	
-0.07124799	0.840458	0.538752	-0.7	-0.07	-0.07	-0.0258	-0.2567	-0.385	
-0.070516	0.841556	0.539484	-0.49	-0.14	0	-0.0199	-0.2537	-0.385	
-0.071004	0.842776	0.538386	-0.63	0.14	0	-0.0214	-0.2521	-0.388	
-0.071492	0.841556	0.53497	-0.77	0.21	0	-0.0273	-0.2474	-0.3835	
-0.072102	0.840824	0.538386	-0.7	0.07	-0.07	-0.02	-0.2521	-0.391	
-0.071614	0.844484	0.539484	0.21	-0.63	0	-0.0317	-0.2504	-0.3925	
-0.067832	0.838018	0.53436	-0.77	-0.42	-0.14	-0.0229	-0.2521	-0.391	
-0.0671	0.848632	0.53497	-1.54	-0.07	-0.14	-0.0214	-0.2567	-0.388	
-0.076982	0.848022	0.538996	-0.98	-0.14	-0.28	-0.023	-0.2459	-0.385	
-0.079178	0.83509	0.542168	-0.14	-0.56	-0.49	-0.0288	-0.2505	-0.3895	
-0.069784	0.839116	0.543754	1.05	-1.26	-0.56	-0.0244	-0.2521	-0.3895	
-0.06466	0.84485	0.538264	0.56	-0.91	-0.28	-0.0186	-0.246	-0.3835	
-0.068076	0.83997	0.537776	-0.56	-0.28	0.14	-0.0229	-0.2552	-0.397	
-0.070272	0.840824	0.537288	-0.91	0.07	0.28	-0.0199	-0.2583	-0.3955	
-0.072346	0.842044	0.538264	-0.98	0	0.14	-0.0376	-0.2457	-0.391	
-0.069418	0.844118	0.538264	-0.77	-0.14	-0.07	-0.0099	-0.2383	-0.3909	
-0.070394	0.842044	0.539972	-0.63	-0.28	-0.21	-0.0244	-0.2521	-0.3865	
-0.071492	0.8418	0.539728	-0.21	-0.35	-0.28	-0.0317	-0.2504	-0.3865	
-0.070882	0.840092	0.541436	0	-0.56	-0.35	-0.0215	-0.2521	-0.3955	
-0.070516	0.838506	0.53863	-0.14	-0.42	-0.35	-0.0215	-0.249	-0.394	
-0.070028	0.847046	0.5368	-0.77	-0.42	-0.14	-0.0171	-0.246	-0.3865	
-0.073688	0.843508	0.540948	-0.56	-0.35	-0.42	-0.0214	-0.2552	-0.3925	
-0.072468	0.838018	0.53985	-0.07	-0.42	-0.91	-0.0244	-0.2474	-0.3805	
-0.07015	0.839848	0.541314	0.49	-0.7	-0.98	-0.0244	-0.2505	-0.3835	
-0.066978	0.842654	0.53985	0.35	-0.56	-0.63	-0.0186	-0.246	-0.379	
-0.068686	0.84058	0.538508	-0.07	-0.07	-0.56	-0.0141	-0.2568	-0.3969	
-0.072468	0.841312	0.538752	-0.35	0.07	-0.35	-0.0274	-0.2397	-0.3835	
-0.074054	0.842654	0.536434	-0.28	0	-0.28	-0.017	-0.2568	-0.3925	
-0.074908	0.844606	0.537288	-0.42	-0.07	-0.35	-0.0169	-0.2614	-0.3865	
-0.077592	0.847534	0.535824	-0.42	-0.35	-0.56	-0.0288	-0.2458	-0.382	
-0.071614	0.84363	0.534116	-1.12	-0.35	-0.49	-0.0141	-0.2537	-0.3835	
-0.071492	0.844972	0.535458	-0.35	-0.56	-0.91	-0.02	-0.2537	-0.3895	
-0.071492	0.844362	0.536678	-0.63	-0.84	-0.77	-0.009699999	-0.2492	-0.3895	
-0.071736	0.841068	0.537898	-0.7	-0.91	-0.63	-0.0258	-0.2567	-0.3895	
-0.071736	0.839604	0.539118	-0.56	-0.91	-0.77	-0.0113	-0.2445	-0.3954	
-0.072468	0.844972	0.537776	-0.91	-0.63	-0.7	-0.023	-0.2413	-0.379	
-0.077592	0.848388	0.53497	-1.19	-0.49	-0.7	-0.0259	-0.2459	-0.3791	
-0.074786	0.853634	0.532164	-1.26	-0.49	-0.42	-0.0347	-0.2504	-0.3895	
-0.077348	0.85034	0.531554	-2.45	-0.56	-0.28	-0.0215	-0.249	-0.385	
-0.076128	0.851682	0.530944	-2.1	-0.63	-0.49	-0.0185	-0.2552	-0.385	
-0.078934	0.850706	0.528382	-2.73	-1.12	-0.28	-0.0243	-0.2567	-0.3835	
-0.072224	0.842898	0.528748	-3.08	-1.33	-0.42	-0.0215	-0.249	-0.385	
-0.069906	0.852902	0.526308	-2.8	-1.68	0	-0.0259	-0.2459	-0.385	
-0.07198	0.861686	0.530334	-2.8	-1.33	0.42	-0.023	-0.2475	-0.391	
-0.07905599	0.872666	0.522648	-4.41	-0.07	0.77	-0.0257	-0.2598	-0.3835	
-0.082716	0.877668	0.516304	-5.81	0.42	0.7	-0.0259	-0.2443	-0.394	
-0.081862	0.881206	0.512766	-7.21	-0.07	0.28	-0.023	-0.2428	-0.388	
-0.081008	0.872056	0.514352	-7.84	-0.91	-0.63	-0.0288	-0.2489	-0.394	
-0.083326	0.857782	0.513498	-9.1	-1.19	-0.28	-0.0171	-0.2506	-0.3954	
-0.08418	0.850462	0.512766	-7.63	-1.96	-0.35	-0.0304	-0.2397	-0.3984	
-0.088206	0.860954	0.515816	-9.24	-2.73	0.42	-0.0273	-0.249	-0.3895	
-0.078324	0.861564	0.508984	-9.87	-4.2	1.12	-0.0274	-0.2412	-0.385	
-0.079422	0.87901	0.50691	-15.75	-4.06	1.75	-0.0318	-0.2443	-0.394	
-0.088328	0.890112	0.50752	-17.43	-4.48	2.03	-0.0231	-0.232	-0.388	
-0.091012	0.878644	0.509472	-19.11	-5.74	2.38	-0.0334	-0.2319	-0.3984	
-0.084668	0.867908	0.518622	-17.78	-8.82	2.1	-0.0305	-0.2304	-0.391	
-0.07747	0.851804	0.524722	-18.9	-9.52	1.75	-0.0291	-0.2289	-0.3984	
-0.072468	0.841312	0.529846	-21.84	-9.73	1.96	-0.0364	-0.2241	-0.3984	
-0.08906	0.857172	0.525332	-22.47	-10.78	2.17	-0.038	-0.2164	-0.3984	
-0.079666	0.8296	0.532042	-30.52	-9.87	2.8	-0.0409	-0.221	-0.4059	
-0.069296	0.82228	0.541192	-33.25	-10.5	2.31	-0.0409	-0.2148	-0.3984	
-0.067832	0.823378	0.554978	-31.29	-13.3	2.17	-0.0264	-0.2057	-0.4133	
-0.07625	0.842898	0.556686	-32.62	-14.35	2.94	-0.0411	-0.2056	-0.4059	
-0.078446	0.830942	0.561322	-34.3	-15.75	2.59	-0.0398	-0.1917	-0.4118	
-0.066612	0.805688	0.570472	-38.99	-16.17	2.38	-0.0442	-0.187	-0.4104	
-0.058926	0.795196	0.590236	-39.34	-17.29	0.42	-0.0486	-0.1916	-0.4134	
-0.042822	0.780434	0.60329	-40.53	-17.57	0.63	-0.059	-0.176	-0.4134	
-0.039162	0.76433	0.615856	-43.19	-17.85	0.35	-0.0635	-0.1698	-0.4238	
-0.028304	0.745176	0.647454	-43.96	-20.65	1.61	-0.0679	-0.1697	-0.4268	
-0.00915	0.73566	0.65209	-40.46	-20.65	1.82	-0.0635	-0.1667	-0.4164	
0.003904	0.704916	0.66307	-47.6	-18.48	4.2	-0.0608	-0.1513	-0.4238	
0.008296	0.699548	0.675636	-50.4	-16.94	5.32	-0.0682	-0.1465	-0.4238	
0.001464	0.682468	0.67588	-51.59	-15.68	4.76	-0.0727	-0.1403	-0.4343	
-0.012688	0.665998	0.68991	-51.17	-17.15	4.83	-0.0772	-0.1264	-0.4268	
0.0061	0.643428	0.707234	-52.29	-18.97	5.18	-0.0787	-0.1279	-0.4238	
-0.002318	0.636596	0.721996	-52.22	-20.16	5.39	-0.0819	-0.1016	-0.4313	
0.027572	0.604876	0.72834	-54.18	-19.32	4.48	-0.08329999	-0.1047	-0.4342	
0.023058	0.590968	0.750056	-56.42	-19.32	3.99	-0.0834	-0.0954	-0.4327	
0.022814	0.564372	0.766648	-57.26	-19.95	3.78	-0.08639999	-0.0938	-0.4402	
0.038674	0.534482	0.771284	-56.56	-20.44	3.64	-0.0939	-0.07669999	-0.4298	
0.055022	0.517524	0.78812	-56.49	-21.77	4.27	-0.0866	-0.0706	-0.4268	
0.079178	0.49227	0.80581	-57.89	-23.52	5.53	-0.0986	-0.0551	-0.4342	
0.067466	0.486902	0.818864	-53.62	-23.94	4.27	-0.0913	-0.0521	-0.4372	
0.100284	0.45445	0.84302	-53.97	-23.17	1.4	-0.1106	-0.0287	-0.4447	
0.108702	0.427976	0.84607	-55.86	-21.63	2.17	-0.1194	-0.0286	-0.4402	
0.101016	0.407724	0.856318	-52.92	-21.56	1.33	-0.1224	-0.0208	-0.4372	
0.11895	0.380274	0.866444	-53.55	-21.42	0	-0.1152	-0.0147	-0.4372	
0.111996	0.366	0.872178	-53.69	-21.35	1.96	-0.1301	0.0101	-0.4313	
0.13298	0.33916	0.89121	-51.52	-22.26	1.68	-0.1345	0.0117	-0.4268	
0.131638	0.333792	0.904874	-48.58	-22.82	0.35	-0.1361	0.0179	-0.4417	
0.135908	0.321226	0.906582	-48.72	-21.14	0.98	-0.1244	0.0255	-0.4387	
0.153598	0.29341	0.913902	-48.09	-21.28	0.84	-0.1391	0.0272	-0.4268	
0.170068	0.27755	0.923906	-49.7	-21.21	3.71	-0.1407	0.0396	-0.4342	
0.156038	0.272792	0.920856	-51.52	-20.86	4.41	-0.1481	0.0474	-0.4283	
0.337086	0.219722	0.984784	-85.33	-26.25	25.69	-0.1468	0.06439999	-0.4342	
0.209718	0.228994	0.948794	-31.15	-18.76	-0.42	-0.1424	0.0659	-0.4268	
0.205204	0.213256	0.947452	-43.61	-17.5	0	-0.1454	0.0674	-0.4312	
0.21045	0.191174	0.968436	-43.33	-17.22	0.21	-0.1588	0.0892	-0.4208	
0.215574	0.158234	0.964166	-42.77	-15.61	-0.42	-0.1588	0.08769999	-0.4178	
0.21838	0.16043	0.96319	-39.41	-15.61	0.98	-0.1676	0.094	-0.4089	
0.222406	0.155794	0.973804	-38.36	-14.77	0.35	-0.153	0.0969	-0.4178	
0.21655	0.129808	0.989176	-37.73	-15.47	0.42	-0.1693	0.1048	-0.4178	
0.229482	0.119194	0.991494	-33.67	-13.79	-0.7	-0.162	0.1125	-0.4104	
0.242048	0.101626	0.990274	-32.76	-13.09	-2.1	-0.1635	0.1156	-0.4119	
0.243756	0.101138	1.014674	-31.29	-12.53	-0.77	-0.1708	0.1157	-0.4119	
0.263642	0.09272	1.025898	-28.7	-11.34	-2.59	-0.1737	0.1126	-0.4104	
0.264496	0.078568	1.024556	-28	-9.73	-1.96	-0.1753	0.125	-0.4014	
0.269132	0.069052	1.023946	-24.64	-7.7	-3.15	-0.171	0.1326	-0.4089	
0.285602	0.041602	1.031266	-22.68	-4.97	-3.29	-0.1725	0.1327	-0.4029	
0.290482	0.031842	1.03578	-18.06	-2.87	-2.45	-0.177	0.1404	-0.4074	
0.291824	0.021228	1.03944	-14.49	-0.91	-1.61	-0.174	0.1404	-0.4074	
0.292068	0.01281	1.04859	-11.13	1.19	-1.05	-0.1755	0.1435	-0.3969	
0.294508	0.011956	1.0553	-5.53	2.59	-0.84	-0.1725	0.1388	-0.4074	
0.294508	0.010614	1.064328	-1.68	4.2	-1.26	-0.18	0.1482	-0.4089	
0.288774	-0.004148	1.07177	5.18	5.74	-2.52	-0.18	0.1482	-0.4029	
0.288042	-0.015006	1.075064	9.94	7.7	-2.94	-0.1799	0.1389	-0.4029	
0.275598	-0.01891	1.064816	13.79	9.59	-3.29	-0.1857	0.1344	-0.3985	
0.291214	-0.023912	1.065182	14.49	9.38	-1.89	-0.1681	0.1373	-0.4074	
0.279868	-0.020862	1.063352	21.98	10.71	-2.52	-0.1739	0.1265	-0.4059	
0.294508	-0.028792	1.060424	26.32	12.04	-2.45	-0.1724	0.128	-0.4104	
0.30012	-0.02806	1.056154	34.3	14.7	-4.69	-0.1666	0.128	-0.4178	
0.277428	0.002196	1.031754	41.79	18.13	-7	-0.1767	0.1173	-0.4074	
0.261934	0.02684	1.012478	45.22	20.16	-4.62	-0.165	0.1171	-0.4133	
0.230092	0.050142	0.992958	52.15	22.54	-5.74	-0.1649	0.1063	-0.4149	
0.240828	0.069784	0.988566	53.9	24.01	-4.13	-0.1691	0.0925	-0.4223	
0.213988	0.096258	0.957212	57.89	26.74	-7.63	-0.1573	0.0892	-0.4163	
0.203618	0.125416	0.94001	63.07	26.6	-5.39	-0.1543	0.0799	-0.4208	
0.18666	0.161894	0.925126	65.24	27.16	-5.18	-0.1527	0.066	-0.4253	
0.174948	0.194346	0.914268	67.06	26.95	-4.97	-0.1468	0.0613	-0.4283	
0.138592	0.241072	0.881694	70.56	27.09	-4.76	-0.1437	0.0473	-0.4298	
0.12017	0.274378	0.86803	72.38	28	-4.62	-0.1333	0.0379	-0.4342	
0.11163	0.313296	0.853878	72.45	27.44	-2.59	-0.1303	0.0286	-0.4327	
0.07625	0.352214	0.833382	74.97	28.49	-3.29	-0.1244	0.0239	-0.4357	
0.06527	0.383202	0.834724	76.93	26.53	-2.66	-0.1271	0.0039	-0.4328	
0.060146	0.414556	0.815082	75.67	26.95	-3.22	-0.1152	-0.0085	-0.4372	
0.067588	0.43432	0.809104	75.81	25.97	-3.57	-0.1121	-0.0271	-0.4342	
0.06344	0.467992	0.793488	76.86	28.7	-4.62	-0.1119	-0.041	-0.4372	
0.052094	0.482266	0.785558	77.14	29.75	-5.18	-0.1017	-0.0458	-0.4521	
0.030134	0.497028	0.765794	77	33.53	-5.53	-0.097	-0.0628	-0.4447	
0.021472	0.518012	0.741516	78.75	36.54	-5.53	-0.094	-0.0706	-0.4402	
0.007808	0.542656	0.714188	78.33	38.99	-5.18	-0.0836	-0.0846	-0.4402	
0.01769	0.574986	0.705892	80.08	41.79	-5.25	-0.0761	-0.0986	-0.4372	
-0.00854	0.598166	0.686372	83.16	45.43	-8.05	-0.0774	-0.1078	-0.4372	
-0.019398	0.629276	0.691374	84.49	45.36	-8.05	-0.0728	-0.1326	-0.4328	
-0.016226	0.655384	0.656726	85.4	47.39	-7.98	-0.061	-0.1374	-0.4312	
-0.029402	0.682102	0.63257	84.49	53.83	-8.96	-0.0491	-0.1468	-0.4223	
-0.076128	0.72346	0.590724	82.32	55.37	-8.05	-0.0327	-0.1701	-0.4148	
-0.108214	0.724924	0.564128	77.28	57.82	-6.16	-0.0222	-0.1888	-0.4148	
-0.09089	0.71126	0.522892	83.93	53.2	-9.8	-0.0251	-0.198	-0.4163	
-0.14335	0.73932	0.524844	84.07	53.2	-10.43	-0.0102	-0.2167	-0.4058	
-0.151158	0.767502	0.513132	87.29	50.75	-9.45	0.0002	-0.2277	-0.3939	
-0.124562	0.756522	0.45445	80.85	54.53	-11.06	0.0061	-0.2324	-0.3909	
-0.145058	0.790438	0.423218	91.84	51.38	-15.75	0.0181	-0.2526	-0.3789	
-0.18056	0.879742	0.409798	88.55	53.13	1.68	0.0328	-0.2558	-0.3819	
-0.256322	0.88633	0.372832	71.61	50.68	23.03	0.036	-0.2759	-0.364	
-0.206302	0.88267	0.331352	66.5	28.21	6.44	0.0434	-0.2822	-0.355	
-0.185074	0.869738	0.357948	64.12	25.34	6.3	0.0348	-0.2991	-0.3625	
-0.174582	0.90646	0.324276	60.76	30.31	2.52	0.0392	-0.2991	-0.3551	
-0.194712	0.931348	0.303658	58.1	30.45	1.05	0.0467	-0.3116	-0.3461	
-0.206424	0.95648	0.280112	58.8	29.4	1.68	0.0525	-0.3086	-0.3386	
-0.221674	0.975024	0.252296	56	30.17	3.15	0.0528	-0.3271	-0.3327	
-0.201666	1.001742	0.242658	52.15	21.07	2.38	0.0543	-0.3348	-0.3267	
-0.233996	1.005646	0.204228	41.72	22.12	3.36	0.0499	-0.3348	-0.3223	
-0.1952	1.019676	0.211548	40.32	17.15	1.82	0.0617	-0.3395	-0.3193	
-0.149816	0.976854	0.20557	41.72	26.6	2.52	0.0633	-0.3488	-0.3133	
-0.2135	0.985516	0.159698	13.58	41.02	-0.28	0.0721	-0.3443	-0.3073	
-0.2196	1.001498	0.135054	22.47	19.95	-1.12	0.0737	-0.3551	-0.3058	
-0.214354	1.02785	0.149816	23.45	19.32	-0.7	0.0751	-0.3536	-0.2998	
-0.232776	1.05347	0.144082	22.61	25.69	0.49	0.0649	-0.3565	-0.2954	
-0.235948	1.045906	0.151646	18.41	18.41	0.28	0.081	-0.3583	-0.2983	
-0.236314	1.03334	0.184098	15.61	13.44	1.89	0.0812	-0.366	-0.2864	
-0.234972	1.024922	0.186294	13.3	12.25	2.73	0.0841	-0.3645	-0.2894	
-0.210572	1.017114	0.175802	15.4	15.4	0.98	0.0812	-0.3675	-0.2805	
-0.19581	1.023702	0.159576	16.73	16.24	0.98	0.0885	-0.3676	-0.2834	
-0.188734	1.001986	0.183854	11.48	23.94	-0.84	0.0916	-0.3769	-0.2819	
-0.191662	1.00711	0.170434	4.69	29.82	-2.66	0.08419999	-0.3738	-0.2775	
-0.231556	1.01016	0.12932	-5.53	32.62	-1.96	0.09429999	-0.3646	-0.2834	
-0.248514	0.99796	0.121634	-3.85	25.06	-1.96	0.1061	-0.3678	-0.2759	
-0.260592	1.001254	0.123708	0.7	19.11	-1.61	0.0959	-0.3693	-0.2789	
-0.25071	1.014064	0.141886	8.33	13.72	-0.98	0.1104	-0.3555	-0.2789	
-0.243268	1.01016	0.15677	7.56	13.58	-1.82	0.109	-0.3632	-0.2714	
-0.245586	1.010038	0.14457	1.82	15.26	-0.14	0.106	-0.3601	-0.2789	
-0.243512	1.014308	0.123464	2.03	10.36	1.26	0.1091	-0.3663	-0.261	
-0.229116	1.012478	0.12932	2.8	4.83	1.12	0.1076	-0.3648	-0.2759	
-0.242414	1.0065	0.139568	1.26	2.87	1.26	0.1149	-0.3679	-0.2774	
-0.24156	1.01382	0.151768	2.8	0.7	1.82	0.1076	-0.3725	-0.2849	
-0.227652	0.995642	0.156526	-1.05	1.47	1.26	0.1018	-0.3724	-0.2774	
-0.222894	0.994788	0.14701	-0.21	2.52	1.05	0.1106	-0.371	-0.2714	
-0.232288	0.995154	0.13542	-0.84	3.36	0.21	0.112	-0.3648	-0.2729	
-0.227286	1.008452	0.141276	3.43	-0.91	0.56	0.1003	-0.3724	-0.27	
-0.228018	1.01077	0.165188	2.17	-2.8	0.91	0.1106	-0.3725	-0.267	
-0.22875	1.006256	0.162138	0.98	-1.96	0.63	0.1149	-0.3648	-0.2684	
-0.22265	0.991982	0.15433	-6.02	0.98	-0.63	0.1121	-0.3756	-0.2729	
-0.226676	0.99674	0.14152	-6.02	-1.05	-0.35	0.1076	-0.3694	-0.27	
-0.245342	1.011014	0.142374	-1.05	-5.6	0.35	0.1061	-0.3678	-0.27	
-0.238144	1.006256	0.1464	1.33	-11.27	0.28	0.1076	-0.3709	-0.2714	
-0.255712	1.008574	0.144692	-0.07	-10.71	0.07	0.1033	-0.3755	-0.2774	
-0.245586	1.01199	0.151768	1.26	-14.28	0	0.0959	-0.3724	-0.2864	
-0.218746	1.004792	0.17385	-1.68	-13.51	-1.12	0.1002	-0.3647	-0.2729	
-0.19337	0.999302	0.183488	-3.78	-13.23	-2.52	0.109	-0.3663	-0.2789	
-0.205692	1.010648	0.176412	-3.64	-15.68	-2.17	0.09739999	-0.3724	-0.2774	
-0.223748	0.999302	0.152866	-9.8	-11.9	-2.52	0.1017	-0.3693	-0.2789	
-0.229848	0.99186	0.155306	-11.34	-15.26	-1.47	0.1003	-0.3678	-0.2804	
-0.229604	0.991372	0.180438	-8.68	-17.57	-1.96	0.0915	-0.3738	-0.2789	
-0.209962	0.9943	0.190198	-12.53	-15.33	-3.43	0.09	-0.3677	-0.2879	
-0.22082	0.99491	0.194346	-15.54	-12.18	-3.15	0.1017	-0.3693	-0.2879	
-0.22387	0.996496	0.18544	-17.57	-12.53	-4.06	0.0988	-0.3647	-0.2819	
-0.22143	1.01504	0.175436	-16.59	-13.09	-5.6	0.08989999	-0.3599	-0.2819	
-0.21167	0.973438	0.216062	-18.2	-15.33	-3.99	0.0942	-0.3569	-0.3043	
-0.218014	0.978196	0.201666	-16.8	-12.88	-4.69	0.0914	-0.363	-0.2939	
-0.22997	0.986126	0.207156	-25.06	-16.66	-3.92	0.0927	-0.3492	-0.2909	
-0.231556	0.996984	0.201666	-24.43	-16.73	-4.34	0.0897	-0.3491	-0.3117	
-0.24827	0.995276	0.215574	-20.44	-16.87	-2.87	0.0867	-0.3414	-0.3073	
-0.230336	0.97722	0.233874	-21.49	-20.65	-2.45	0.0911	-0.3476	-0.3147	
-0.198006	0.951966	0.260104	-24.36	-22.05	-1.61	0.0822	-0.3336	-0.3147	
-0.205204	0.966484	0.259982	-23.66	-19.6	-2.1	0.0823	-0.3429	-0.3192	
-0.21838	0.972706	0.252174	-27.58	-16.8	-2.73	0.0749	-0.3397	-0.3162	
-0.230214	0.97295	0.235338	-32.9	-15.54	-2.94	0.0762	-0.3274	-0.3192	
-0.232776	0.98576	0.239364	-31.57	-17.36	-0.84	0.0717	-0.3165	-0.3282	
-0.223138	0.91744	0.291092	-33.39	-24.36	1.12	0.0718	-0.3304	-0.3312	
-0.197152	0.917928	0.305366	-24.71	-22.05	0.63	0.06879999	-0.3165	-0.3341	
-0.204472	0.942572	0.291336	-28.7	-20.65	0.42	0.0643	-0.3102	-0.3371	
-0.209962	0.989786	0.293166	-25.55	-26.04	-0.49	0.0643	-0.3103	-0.3461	
-0.23058	0.960872	0.311344	-35.63	-24.92	-0.98	0.0657	-0.3118	-0.3505	
-0.197884	0.929884	0.337452	-35.42	-27.02	0.28	0.0598	-0.3056	-0.3565	
-0.182146	0.896822	0.349164	-41.72	-24.85	-1.33	0.0554	-0.3055	-0.3506	
-0.177388	0.900726	0.355264	-41.23	-25.34	-3.57	0.045	-0.2915	-0.3536	
-0.18483	0.907924	0.358192	-42	-24.43	-4.55	0.0421	-0.2945	-0.3536	
-0.217526	0.917806	0.37576	-42.77	-26.88	-3.29	0.0449	-0.2853	-0.361	
-0.188002	0.88816	0.406748	-44.8	-28.14	-3.08	0.0506	-0.2761	-0.3714	
-0.186416	0.859856	0.431392	-45.29	-29.96	-3.36	0.036	-0.2806	-0.373	
-0.162138	0.828502	0.462136	-44.1	-32.2	-2.38	0.027	-0.2681	-0.3789	
-0.16531	0.826184	0.475434	-41.37	-30.52	-4.06	0.0298	-0.2558	-0.3774	
-0.1464	0.818254	0.48922	-44.17	-30.52	-2.94	0.024	-0.2604	-0.3939	
-0.15738	0.82228	0.51118	-41.65	-29.54	-4.27	0.0239	-0.2496	-0.3924	
-0.15189	0.812032	0.525576	-45.01	-28.77	-3.71	0.0076	-0.2401	-0.3909	
-0.149328	0.8052	0.557418	-43.33	-29.82	-2.73	0.0165	-0.2464	-0.3983	
-0.1281	0.776286	0.571692	-45.22	-29.47	-0.91	0.0178	-0.231	-0.3953	
-0.12383	0.762012	0.588528	-46.69	-28.07	-0.07	0.0045	-0.2262	-0.4058	
-0.096624	0.74542	0.599874	-48.16	-25.48	-0.21	0	-0.2153	-0.4043	
-0.110166	0.72285	0.626348	-49.7	-22.61	-1.61	-0.0045	-0.1967	-0.4118	
-0.092964	0.69418	0.651968	-51.03	-19.67	-1.82	-0.0149	-0.1889	-0.4192	
-0.112728	0.678808	0.655628	-52.57	-17.99	0.49	-0.0075	-0.1936	-0.4207	
-0.080886	0.660264	0.650748	-49.91	-16.24	0.14	-0.015	-0.1796	-0.4177	
-0.081984	0.661118	0.664412	-53.2	-17.43	3.5	-0.024	-0.1641	-0.4222	
-0.113216	0.665876	0.653798	-51.17	-17.64	4.97	-0.0212	-0.1564	-0.4282	
-0.10858	0.657092	0.668682	-51.8	-19.53	5.39	-0.0198	-0.1533	-0.4371	
-0.114802	0.642086	0.692106	-52.78	-20.16	4.9	-0.0315	-0.1516	-0.4282	
-0.101382	0.625006	0.698572	-52.5	-20.51	2.31	-0.0287	-0.1409	-0.4341	
-0.096136	0.614514	0.700524	-54.46	-21.63	1.26	-0.0318	-0.1238	-0.4282	
-0.102724	0.596946	0.700158	-55.09	-23.24	0.84	-0.0289	-0.1254	-0.4371	
-0.078202	0.582672	0.714676	-54.95	-24.99	1.47	-0.0348	-0.1161	-0.4341	
-0.062464	0.573888	0.735904	-55.58	-27.44	3.29	-0.0467	-0.1082	-0.4431	
-0.071736	0.55754	0.754204	-55.37	-29.33	5.32	-0.0513	-0.0927	-0.4431	
-0.037454	0.549244	0.786412	-55.16	-29.96	5.81	-0.0484	-0.0835	-0.4371	
-0.012566	0.542046	0.7991	-56.28	-29.19	5.6	-0.0675	-0.0817	-0.4461	
-0.008905999	0.536434	0.816302	-56.84	-28.42	4.55	-0.0633	-0.0663	-0.4386	
-0.003172	0.520574	0.828014	-59.99	-26.67	3.78	-0.0692	-0.0616	-0.4476	
0.005734	0.487756	0.84119	-62.37	-26.25	3.71	-0.0738	-0.0446	-0.4446	
0.016226	0.458964	0.86254	-60.97	-26.11	2.73	-0.0797	-0.0414	-0.4431	
0.049288	0.422242	0.8723	-61.67	-24.64	2.87	-0.0857	-0.0259	-0.4431	
0.057462	0.397476	0.871934	-60.76	-22.68	2.94	-0.0932	-0.0134	-0.4461	
0.053436	0.375516	0.89487	-56.84	-22.89	2.38	-0.0874	-0.012	-0.4476	
0.066368	0.346724	0.9211	-57.61	-23.17	3.22	-0.0875	-0.0042	-0.4476	
0.085888	0.324032	0.956114	-52.5	-23.45	1.68	-0.1009	0.0159	-0.4476	
0.107726	0.315736	0.96258	-50.82	-21.98	1.05	-0.1009	0.0221	-0.4431	
0.108702	0.308172	0.960262	-48.93	-17.5	-0.28	-0.1083	0.0268	-0.4387	
0.12688	0.266814	0.959286	-50.12	-14.98	0.56	-0.1054	0.0268	-0.4521	
0.110044	0.24156	0.969046	-45.85	-13.72	1.82	-0.1142	0.0315	-0.4342	
0.111142	0.221064	0.975512	-42.7	-12.39	2.1	-0.1086	0.0531	-0.4401	
0.115412	0.199104	0.980514	-39.41	-12.32	2.31	-0.11	0.0438	-0.4416	
0.106506	0.188856	1.003938	-34.37	-11.83	2.31	-0.116	0.0578	-0.4386	
0.116144	0.181048	1.010892	-31.92	-11.41	2.87	-0.1205	0.0702	-0.4371	
0.10187	0.17629	1.019432	-27.65	-10.99	1.89	-0.1235	0.0749	-0.4401	
0.138592	0.140788	1.030534	-25.69	-9.52	1.4	-0.1279	0.0734	-0.4372	
0.144448	0.129564	1.048468	-19.32	-8.26	-0.21	-0.1309	0.0843	-0.4252	
0.151646	0.124928	1.059448	-17.08	-7.77	1.19	-0.1281	0.0904	-0.4297	
0.14762	0.121024	1.067256	-10.01	-7.28	0.42	-0.1281	0.0889	-0.4312	
0.176168	0.10858	1.07421	-5.81	-5.04	-0.14	-0.1265	0.08419999	-0.4297	
0.177876	0.107238	1.079456	-1.89	-3.08	-0.14	-0.1192	0.0857	-0.4222	
0.175436	0.109312	1.082994	1.4	-0.84	0.42	-0.1295	0.0889	-0.4327	
0.180438	0.10675	1.081286	3.43	0.84	1.82	-0.1237	0.09339999	-0.4341	
0.182878	0.102114	1.079578	6.37	3.01	2.66	-0.1236	0.0857	-0.4237	
0.179218	0.08906	1.079578	10.71	5.32	2.87	-0.1368	0.0859	-0.4357	
0.224358	0.054168	1.082384	12.04	4.97	5.39	-0.128	0.0858	-0.4297	
0.211426	0.066978	1.086776	22.26	8.89	1.89	-0.1266	0.0858	-0.4312	
0.195078	0.080398	1.073478	31.36	13.02	0.35	-0.125	0.0796	-0.4237	
0.203618	0.089792	1.076772	37.03	12.46	5.25	-0.1133	0.084	-0.4326	
0.181658	0.100406	1.046272	40.95	19.53	0.21	-0.1161	0.0671	-0.4431	
0.15921	0.127978	1.025532	47.04	22.12	-0.84	-0.1145	0.0593	-0.4401	
0.152134	0.153598	0.993568	51.52	24.64	-0.28	-0.1189	0.0563	-0.4431	
0.13542	0.174338	0.976488	54.95	26.74	0.07	-0.1026	0.0438	-0.4371	
0.11102	0.193736	0.961238	59.85	28.77	-0.49	-0.11	0.0423	-0.4431	
0.087474	0.213988	0.935984	68.53	26.04	0.14	-0.09649999	0.0205	-0.4401	
0.090524	0.237168	0.899506	64.89	31.01	1.05	-0.0951	0.022	-0.4371	
0.07503	0.280722	0.865834	68.32	33.04	2.24	-0.08899999	0.005	-0.4416	
0.055144	0.313784	0.838262	71.19	33.74	2.17	-0.0772	-0.0028	-0.4505	
0.028548	0.352458	0.816424	76.51	32.76	0.07	-0.0785	-0.0198	-0.452	
-0.003172	0.389668	0.789584	74.76	35.77	1.33	-0.074	-0.0245	-0.452	
-0.01159	0.433588	0.76616	76.58	34.02	1.12	-0.0636	-0.037	-0.4476	
-0.026474	0.476166	0.750422	77.63	33.81	-0.91	-0.0679	-0.0446	-0.4446	
-0.050874	0.546316	0.738954	76.3	30.94	0.63	-0.0529	-0.0772	-0.4461	
-0.053436	0.581818	0.727242	86.1	41.09	-10.85	-0.044	-0.0851	-0.4431	
-0.108824	0.624274	0.716994	76.16	37.8	-5.6	-0.0336	-0.1006	-0.4416	
-0.068442	0.63562	0.69479	76.44	29.89	-2.38	-0.0289	-0.1254	-0.4326	
-0.094184	0.645624	0.660996	73.36	37.8	-5.32	-0.0348	-0.1176	-0.4401	
-0.120414	0.652212	0.654896	76.44	35.42	-5.53	-0.02	-0.1317	-0.4311	
-0.095282	0.646478	0.627446	77.14	33.11	-5.6	-0.0257	-0.1471	-0.4282	
-0.111874	0.670634	0.60085	78.89	36.05	-6.79	-0.0137	-0.1657	-0.4297	
-0.115046	0.690032	0.563884	75.46	35.21	-4.2	-0.0078	-0.172	-0.4222	
-0.106872	0.71126	0.528992	73.92	37.66	-4.41	0.0099	-0.1861	-0.4222	
-0.164456	0.762012	0.507886	76.51	39.62	-7.35	0.0056	-0.1953	-0.4147	
-0.169458	0.79971	0.501298	74.9	31.01	-2.38	0.0131	-0.2062	-0.4087	
-0.175192	0.845094	0.487268	76.23	29.54	-0.91	0.0162	-0.2248	-0.4088	
-0.180804	0.874984	0.475678	74.76	28.42	-0.7	0.0236	-0.2295	-0.3998	
-0.187026	0.91073	0.459208	70.98	30.24	-2.31	0.0208	-0.2387	-0.3879	
-0.19764	0.916952	0.445422	64.68	30.8	-2.59	0.0357	-0.2574	-0.3968	
-0.20679	0.892796	0.406992	55.86	34.79	-5.04	0.0371	-0.2544	-0.3878	
-0.215208	0.88206	0.374052	53.34	34.58	-4.9	0.0372	-0.2605	-0.3759	
-0.212646	0.87291	0.356118	51.03	33.39	-4.69	0.0461	-0.2637	-0.3684	
-0.211304	0.867908	0.353556	49.98	30.03	-3.99	0.061	-0.2917	-0.3699	
-0.215574	0.884866	0.331962	53.2	25.55	-4.97	0.0523	-0.2962	-0.361	
-0.220942	0.897432	0.320738	48.79	25.06	-1.96	0.0552	-0.2885	-0.358	
-0.241072	0.92232	0.301096	48.44	22.26	-0.14	0.0671	-0.3041	-0.349	
-0.250832	0.934886	0.274378	45.85	19.88	0.14	0.076	-0.3104	-0.3416	
-0.264984	0.957944	0.263276	50.82	15.26	1.26	0.0775	-0.315	-0.3326	
-0.254736	0.975268	0.243634	49.14	14.77	2.31	0.0747	-0.3274	-0.3297	
-0.259616	0.976244	0.232898	42.42	15.89	-0.21	0.0733	-0.3273	-0.3312	
-0.236314	0.987956	0.236558	46.41	13.79	-1.05	0.0764	-0.3413	-0.3162	
-0.252906	0.985882	0.232166	35.28	16.66	-1.05	0.0734	-0.3381	-0.3162	
-0.2379	0.979904	0.219966	31.78	14.84	-0.77	0.0764	-0.3413	-0.3088	
-0.251808	0.98759	0.221796	29.89	14.98	-0.28	0.0766	-0.3536	-0.3118	
-0.259006	0.97661	0.195078	29.89	13.72	1.82	0.0839	-0.3568	-0.3043	
-0.254858	0.960994	0.192516	26.25	11.9	3.5	0.0913	-0.36	-0.2953	
-0.243634	0.96868	0.194834	26.04	10.85	2.73	0.0898	-0.3569	-0.2983	
-0.239852	0.981368	0.178364	24.01	11.27	2.38	0.0854	-0.3537	-0.2924	
-0.245098	0.991982	0.164334	19.39	11.48	2.31	0.0885	-0.363	-0.2849	
-0.25254	1.002108	0.15677	17.78	8.33	2.45	0.0884	-0.3584	-0.2864	
-0.240096	1.021018	0.155184	14.56	10.85	1.82	0.0944	-0.3662	-0.2879	
-0.251442	1.032364	0.151036	13.23	10.85	2.1	0.0959	-0.3739	-0.2849	
-0.258396	1.031998	0.152744	8.75	10.5	2.73	0.0871	-0.3723	-0.2924	
-0.261446	1.021262	0.144936	7.63	9.31	2.17	0.0915	-0.3708	-0.2775	
-0.258152	1.0248	0.132126	6.93	9.31	2.52	0.0945	-0.377	-0.2715	
-0.25376	1.009916	0.13969	6.16	5.74	2.73	0.09299999	-0.3723	-0.2894	
-0.24644	0.995642	0.146034	2.24	5.95	2.45	0.0959	-0.3708	-0.2834	
-0.24461	1.001986	0.141154	2.17	4.76	1.96	0.1017	-0.3678	-0.2759	
-0.243634	1.001132	0.144692	1.96	3.22	2.24	0.0959	-0.3739	-0.2849	
-0.244854	1.002718	0.149572	2.66	1.82	2.38	0.0916	-0.3785	-0.27	
-0.231434	0.994544	0.144692	1.05	1.47	1.96	0.09739999	-0.3755	-0.2804	
-0.232044	0.99491	0.151402	2.1	-0.28	1.47	0.08419999	-0.3707	-0.2834	
-0.22875	1.004182	0.146034	0.98	0	0	0.0857	-0.3769	-0.2805	
-0.2257	1.018212	0.143228	-0.63	0.35	-0.21	0.1004	-0.3755	-0.2685	
-0.238754	1.006012	0.148962	-3.64	-0.7	1.33	0.0945	-0.3739	-0.2774	
-0.232288	0.998448	0.144082	-6.02	-0.91	1.96	0.0841	-0.3645	-0.2715	
-0.231312	1.01016	0.145058	-6.65	-2.45	2.24	0.0945	-0.377	-0.2789	
-0.221308	1.015528	0.149694	-6.16	-3.43	1.89	0.09739999	-0.3708	-0.27	
-0.22631	1.013698	0.155672	-5.18	-3.64	2.45	0.09299999	-0.3785	-0.2819	
-0.228994	1.00894	0.154818	-9.1	-3.57	2.66	0.0841	-0.3691	-0.2805	
-0.22326	1.01016	0.148108	-10.57	-5.67	2.45	0.0946	-0.3847	-0.2819	
-0.217404	1.000034	0.155916	-9.24	-5.32	3.5	0.0885	-0.3676	-0.2804	
-0.226554	1.00528	0.16653	-6.93	-7.63	2.8	0.08859999	-0.3769	-0.2864	
-0.230214	1.017602	0.15738	-11.48	-9.1	3.15	0.0871	-0.3707	-0.2879	
-0.229848	1.008086	0.159942	-14.77	-9.8	3.15	0.09299999	-0.3754	-0.2849	
-0.229604	1.005768	0.17202	-11.62	-11.27	1.96	0.0826	-0.3629	-0.2939	
-0.212158	1.001376	0.167628	-11.62	-14.56	2.45	0.084	-0.3568	-0.2819	
-0.20984	1.002596	0.181414	-14.98	-14.42	2.66	0.0782	-0.366	-0.2984	
-0.213378	1.011136	0.193492	-14.91	-13.86	1.19	0.08109999	-0.3645	-0.2969	
-0.213622	1.019066	0.194224	-17.43	-13.79	0.49	0.0869	-0.3599	-0.2909	
-0.21533	1.014674	0.193492	-19.46	-13.72	-0.91	0.0766	-0.3552	-0.3058	
-0.213256	1.006378	0.204228	-22.12	-14.21	-1.61	0.0752	-0.3629	-0.3014	
-0.21472	0.99613	0.210816	-22.75	-15.26	-1.26	0.0795	-0.3567	-0.3058	
-0.1952	0.978196	0.219356	-22.05	-16.31	-1.89	0.0707	-0.3566	-0.3148	
-0.185074	0.977586	0.233142	-23.87	-15.54	-0.84	0.0648	-0.3504	-0.3193	
-0.184952	0.983808	0.233142	-24.01	-19.25	-1.82	0.0736	-0.3474	-0.3088	
-0.180682	0.989054	0.252052	-24.08	-21.77	-2.1	0.0661	-0.3381	-0.3282	
-0.19825	0.964898	0.263032	-31.57	-19.46	-2.38	0.0587	-0.3302	-0.3163	
-0.207034	0.975146	0.26535	-30.52	-19.6	-2.94	0.0616	-0.3334	-0.3267	
-0.21411	0.967216	0.278648	-34.02	-20.44	-1.68	0.0659	-0.3242	-0.3282	
-0.198738	0.952576	0.283528	-32.34	-21.56	-1.05	0.06	-0.3241	-0.3312	
-0.196176	0.94977	0.28792	-33.53	-23.31	-0.63	0.06439999	-0.3195	-0.3312	
-0.199226	0.947452	0.307074	-35.56	-22.54	-1.4	0.0495	-0.3008	-0.3401	
-0.190076	0.943182	0.31842	-36.61	-23.45	-0.49	0.051	-0.307	-0.3446	
-0.18971	0.93635	0.32147	-44.45	-21	0	0.0451	-0.2992	-0.3476	
-0.185928	0.938912	0.331962	-43.19	-22.33	-1.4	0.0451	-0.3023	-0.3551	
-0.19459	0.918904	0.351726	-45.43	-22.96	-1.05	0.0494	-0.2946	-0.358	
-0.194102	0.90585	0.363438	-45.22	-22.75	-1.68	0.0375	-0.2852	-0.3655	
-0.20374	0.896212	0.375028	-46.83	-25.55	0.56	0.0346	-0.2867	-0.361	
-0.164578	0.88328	0.38735	-46.41	-27.09	-0.28	0.0257	-0.2789	-0.3715	
-0.17568	0.88999	0.40382	-46.06	-28.56	-0.63	0.03	-0.2666	-0.373	
-0.179462	0.86681	0.424438	-49.98	-28.63	0	0.0256	-0.2681	-0.3819	
-0.174948	0.86498	0.437614	-51.8	-28.7	-0.77	0.0138	-0.2618	-0.3879	
-0.177876	0.874862	0.443226	-52.64	-29.54	-1.4	0.0033	-0.2478	-0.3879	
-0.176412	0.859246	0.468724	-53.48	-31.08	-1.26	0.0048	-0.2493	-0.3909	
-0.155794	0.846436	0.49715	-52.36	-33.04	-0.49	-0.0011	-0.2431	-0.4043	
-0.166042	0.8113	0.527894	-49.49	-34.51	-1.26	0.0046	-0.2339	-0.4028	
-0.13969	0.762012	0.555954	-54.67	-33.32	-2.94	-0.016	-0.2151	-0.4058	
-0.116754	0.753228	0.553148	-53.69	-34.3	-2.94	-0.022	-0.2104	-0.4133	
-0.123342	0.739198	0.577548	-53.41	-35.07	-0.98	-0.0206	-0.1996	-0.4088	
-0.115046	0.71431	0.618906	-52.01	-37.03	0.42	-0.0178	-0.195	-0.4193	
-0.077348	0.69174	0.638304	-52.64	-36.54	2.17	-0.0326	-0.1825	-0.4133	
-0.074176	0.687714	0.659166	-52.71	-34.37	3.92	-0.0401	-0.167	-0.4267	
-0.08906	0.673196	0.668072	-52.29	-32.48	4.34	-0.0401	-0.167	-0.4208	
-0.049044	0.651724	0.67466	-54.95	-31.01	3.92	-0.0388	-0.1531	-0.4193	
-0.067832	0.640622	0.677832	-58.1	-29.19	5.39	-0.0492	-0.1421	-0.4297	
-0.046726	0.621346	0.68686	-59.43	-28.77	7.56	-0.0522	-0.139	-0.4297	
-0.055754	0.61854	0.67771	-61.46	-28.84	7.98	-0.0596	-0.1281	-0.4312	
-0.045872	0.617198	0.676124	-66.08	-29.61	9.31	-0.067	-0.1234	-0.4327	
-0.041114	0.58804	0.699426	-69.09	-29.75	9.45	-0.0628	-0.1065	-0.4417	
-0.028914	0.546316	0.718702	-71.54	-30.24	8.54	-0.0687	-0.1049	-0.4402	
-0.002074	0.500932	0.736392	-73.01	-31.99	9.1	-0.0879	-0.0876	-0.4357	
0.010736	0.473848	0.777018	-69.51	-34.93	8.19	-0.091	-0.0783	-0.4387	
0.038552	0.461648	0.812154	-66.5	-36.12	8.4	-0.08679999	-0.0645	-0.4447	
0.075762	0.435174	0.832772	-69.51	-33.81	9.45	-0.09119999	-0.0598	-0.4447	
0.084668	0.404552	0.855952	-68.04	-32.55	9.31	-0.1089	-0.0472	-0.4447	
0.10248	0.370392	0.871812	-66.22	-30.52	7.14	-0.1105	-0.0364	-0.4447	
0.103456	0.360144	0.889868	-67.55	-29.47	8.4	-0.1108	-0.0117	-0.4432	
0.124562	0.336964	0.906826	-63.07	-29.47	8.26	-0.1211	-0.0085	-0.4432	
0.13115	0.313906	0.93391	-60.55	-29.68	8.26	-0.1169	0.0084	-0.4372	
0.142984	0.289506	0.934642	-58.52	-28.42	7.7	-0.1228	0.0131	-0.4342	
0.162138	0.26657	0.932202	-56.07	-26.04	7.14	-0.1273	0.0224	-0.4387	
0.173972	0.26718	0.930982	-54.81	-23.8	7.98	-0.1376	0.0287	-0.4238	
0.178364	0.246684	0.922686	-53.55	-21.77	6.44	-0.1421	0.0319	-0.4387	
0.175558	0.214476	0.922198	-52.29	-21.14	5.46	-0.1393	0.0442	-0.4313	
0.183854	0.18361	0.930738	-52.08	-21.63	7.28	-0.151	0.0412	-0.4358	
0.160918	0.183488	0.945134	-45.71	-22.68	6.72	-0.1528	0.0737	-0.4268	
0.210816	0.154696	0.958188	-45.36	-23.73	5.95	-0.1542	0.066	-0.4238	
0.21472	0.153232	0.973194	-43.33	-23.73	5.81	-0.1571	0.0691	-0.4238	
0.216184	0.162016	0.983076	-42.42	-22.89	6.3	-0.1662	0.097	-0.4238	
0.238998	0.146278	1.001742	-38.5	-22.33	4.41	-0.175	0.0972	-0.4209	
0.253272	0.116876	1.007232	-37.38	-20.79	4.34	-0.1648	0.1048	-0.4059	
0.283528	0.09211	1.01992	-40.32	-16.87	5.46	-0.1649	0.1125	-0.4163	
0.293288	0.08174	1.028704	-30.8	-15.96	2.59	-0.1826	0.1173	-0.4134	
0.289506	0.076372	1.026874	-29.05	-13.37	1.61	-0.1826	0.1173	-0.4044	
0.29951	0.061488	1.043222	-24.5	-12.25	0.14	-0.1723	0.1172	-0.3999	
0.300974	0.056608	1.059936	-27.72	-10.92	2.1	-0.1841	0.1266	-0.4015	
0.288408	0.052094	1.064084	-20.16	-9.1	0.84	-0.1827	0.1251	-0.4164	
0.316712	0.025376	1.069574	-14.91	-5.88	0.07	-0.1797	0.1281	-0.4059	
0.312686	0.011712	1.064328	-13.16	-1.68	-0.49	-0.1783	0.1327	-0.4074	
0.310978	0.00549	1.058594	-9.24	0.49	-0.7	-0.1828	0.139	-0.4119	
0.297924	0.004636	1.055544	-5.04	2.1	-0.84	-0.1902	0.1437	-0.4059	
0.288652	0.009028	1.061278	-1.05	3.92	-1.12	-0.1813	0.1421	-0.3955	
0.286578	0.005246	1.063474	3.01	5.6	-2.17	-0.1783	0.1343	-0.4014	
0.294996	0.01708	1.056276	7.21	9.03	-3.15	-0.1711	0.145	-0.3969	
0.333182	-0.005978	1.063474	4.2	9.8	1.54	-0.1725	0.1342	-0.4104	
0.274012	0.023058	1.06445	16.38	11.34	-0.91	-0.1769	0.1327	-0.3984	
0.285236	-0.007686	1.062864	23.17	13.3	-3.64	-0.171	0.1327	-0.4014	
0.300364	-0.00976	1.062986	24.29	14.28	-1.4	-0.1738	0.1234	-0.4104	
0.287554	0.011834	1.057008	32.06	17.78	-4.55	-0.1768	0.1265	-0.4059	
0.270962	0.031842	1.043954	33.88	20.93	-3.92	-0.1664	0.1141	-0.4134	
0.267424	0.0427	1.036634	38.08	23.1	-3.43	-0.1679	0.1156	-0.4178	
0.25925	0.048922	1.031754	43.96	24.85	-3.36	-0.1547	0.1124	-0.4178	
0.249734	0.053802	1.006256	50.75	27.02	-3.43	-0.162	0.1124	-0.4193	
0.235948	0.074786	0.992592	52.36	29.33	-2.73	-0.1574	0.0954	-0.4223	
0.207766	0.110288	0.964532	59.5	30.59	-1.82	-0.1617	0.09079999	-0.4119	
0.197518	0.133712	0.961726	59.22	32.27	-0.42	-0.147	0.07979999	-0.4223	
0.175924	0.149328	0.9333	61.6	34.02	0	-0.1425	0.069	-0.4253	
0.161528	0.173118	0.914146	67.27	35.07	0.63	-0.1453	0.0582	-0.4313	
0.138714	0.218624	0.87901	68.32	35.07	3.71	-0.1231	0.0378	-0.4282	
0.126636	0.241926	0.866322	72.87	36.19	3.78	-0.1245	0.0332	-0.4432	
0.105408	0.271816	0.854488	78.54	36.19	0.63	-0.1156	0.0192	-0.4432	
0.102236	0.301096	0.84241	81.69	36.96	0.84	-0.1124	0.0053	-0.4312	
0.096746	0.32269	0.810934	80.5	38.15	2.1	-0.0992	-0.0025	-0.4521	
0.078568	0.366122	0.792512	80.5	38.71	3.64	-0.099	-0.018	-0.4417	
0.068076	0.393938	0.764818	87.36	41.37	-2.94	-0.0915	-0.0335	-0.4387	
0.026474	0.440054	0.747616	86.73	54.11	-10.01	-0.0796	-0.046	-0.4416	
-0.002318	0.468358	0.733464	84.63	47.32	-6.02	-0.0809	-0.0692	-0.4536	
0.003172	0.496662	0.720532	85.68	46.76	-6.37	-0.0646	-0.0755	-0.4386	
-0.01525	0.517646	0.693082	85.33	52.43	-7.56	-0.0587	-0.0849	-0.4431	
-0.051606	0.568276	0.666608	86.38	52.36	-6.86	-0.0423	-0.099	-0.4267	
-0.104188	0.617808	0.633302	84.7	52.5	-6.86	-0.0336	-0.0991	-0.4356	
-0.142862	0.653188	0.6161	86.94	47.46	-8.12	-0.0391	-0.1253	-0.4267	
-0.149572	0.67405	0.593774	84.42	43.05	-8.75	-0.0198	-0.1471	-0.4282	
-0.156892	0.70577	0.561322	84.56	42.98	-11.27	-0.0139	-0.1534	-0.4282	
-0.152378	0.743956	0.532774	85.4	37.17	-12.74	-0.0107	-0.1719	-0.4207	
-0.157014	0.766526	0.514718	84.42	36.75	-11.55	0.0009	-0.1736	-0.4177	
-0.17263	0.807762	0.494222	85.82	31.99	-10.43	0.0012	-0.1937	-0.4058	
-0.16897	0.8418	0.492392	85.26	29.12	-7.21	0.0103	-0.2185	-0.4132	
-0.164212	0.88511	0.462868	84.77	29.82	-7.91	0.0104	-0.2232	-0.3983	
-0.166652	0.911218	0.42334	71.33	35.63	-6.58	0.0223	-0.2387	-0.3909	
-0.168604	0.930372	0.39711	66.85	35.77	-6.51	0.0239	-0.248	-0.3864	
-0.204472	0.946354	0.374174	59.92	36.19	-5.32	0.024	-0.2619	-0.3834	
-0.229482	0.925736	0.377346	54.88	34.37	-4.2	0.0299	-0.2589	-0.3744	
-0.222894	0.91256	0.359534	50.26	32.41	-2.8	0.0447	-0.2699	-0.3714	
-0.23424	0.900238	0.358314	45.15	29.26	-3.15	0.0389	-0.2744	-0.361	
-0.206424	0.89731	0.356362	50.47	26.11	-3.36	0.0477	-0.2776	-0.3595	
-0.226676	0.89243	0.329644	40.25	28.91	-0.56	0.0507	-0.2838	-0.3595	
-0.230214	0.912194	0.307684	47.67	20.79	-1.75	0.0494	-0.3008	-0.361	
-0.25132	0.916342	0.310612	44.66	22.75	-1.68	0.0627	-0.2979	-0.3416	
-0.263276	0.93025	0.293288	42.91	24.36	-0.56	0.0685	-0.2964	-0.3446	
-0.269864	0.956236	0.27511	45.64	16.8	-0.21	0.0658	-0.3133	-0.3356	
-0.222284	0.980392	0.26108	51.17	13.44	-1.96	0.0689	-0.3257	-0.3207	
-0.214842	0.984174	0.261324	40.46	19.04	-0.56	0.0704	-0.3319	-0.3237	
-0.21594	0.988566	0.247538	32.83	24.01	0	0.0778	-0.332	-0.3118	
-0.22692	0.980636	0.221552	29.4	25.27	-0.21	0.0793	-0.3398	-0.3192	
-0.235216	0.990152	0.201666	25.48	26.81	0.35	0.0867	-0.3383	-0.3043	
-0.263398	0.990518	0.19276	22.75	24.64	2.31	0.08679999	-0.3507	-0.3147	
-0.27694	1.003328	0.188978	21.56	21.21	2.94	0.0838	-0.346	-0.3013	
-0.283894	1.002352	0.175192	17.92	18.34	2.52	0.0897	-0.3445	-0.2938	
-0.28548	1.030656	0.15982	18.06	16.87	1.47	0.0869	-0.3568	-0.2998	
-0.295484	1.027118	0.16226	17.64	14.07	0.56	0.0839	-0.3506	-0.3028	
-0.291092	1.001376	0.16165	16.66	10.71	-0.91	0.1014	-0.3462	-0.2938	
-0.278038	1.008696	0.140422	17.64	8.61	-0.98	0.09869999	-0.3616	-0.2983	
-0.280356	1.014308	0.14518	18.62	4.55	-1.33	0.103	-0.3555	-0.2849	
-0.285114	1.001376	0.143472	15.05	2.24	-2.03	0.0914	-0.3599	-0.276	
-0.274866	1.008086	0.140422	14.98	-0.7	-1.89	0.0988	-0.3708	-0.2849	
-0.267546	1.00284	0.142618	14.07	-5.25	-1.33	0.0915	-0.3692	-0.2834	
-0.266814	0.996496	0.148718	16.03	-6.51	-1.26	0.1032	-0.3663	-0.2849	
-0.259372	0.997106	0.14335	15.54	-7.77	-0.63	0.0929	-0.3646	-0.2789	
-0.25864	0.981856	0.14579	12.95	-8.47	0.14	0.1003	-0.3662	-0.2715	
-0.261812	0.99247	0.146034	11.48	-8.82	0.35	0.09739999	-0.3739	-0.2774	
-0.270474	1.000766	0.151646	11.9	-9.87	1.54	0.0856	-0.366	-0.276	
-0.265472	0.998326	0.150304	9.59	-10.22	2.24	0.0945	-0.3754	-0.2819	
-0.264008	0.983808	0.132004	2.17	-11.2	3.78	0.09299999	-0.3754	-0.273	
-0.260104	0.979294	0.142374	-0.56	-11.9	4.76	0.0916	-0.38	-0.2819	
-0.244976	1.006378	0.151524	2.52	-12.88	6.93	0.09	-0.3723	-0.2804	
-0.24766	0.984052	0.158234	-2.24	-10.5	8.47	0.0915	-0.3738	-0.273	
-0.244488	0.98027	0.16043	-6.16	-9.87	9.94	0.08859999	-0.3723	-0.2715	
-0.26291	0.967826	0.169092	-8.4	-11.48	11.62	0.0916	-0.3754	-0.2775	
-0.279624	0.946354	0.175802	-11.62	-10.57	13.58	0.0813	-0.3768	-0.2835	
-0.263276	0.942816	0.165798	-12.81	-11.13	16.17	0.07539999	-0.3721	-0.276	
-0.242902	0.919148	0.19459	-9.94	-14.98	20.44	0.0651	-0.3704	-0.276	
-0.235826	0.921466	0.203862	-11.13	-14.21	22.4	0.0651	-0.3751	-0.285	
-0.226554	0.954772	0.202276	-5.95	-12.6	22.96	0.0519	-0.3734	-0.288	
-0.213378	0.970388	0.204838	-11.13	-10.92	27.72	0.046	-0.3687	-0.2835	
-0.229116	0.964898	0.211914	-15.05	-7.91	30.66	0.049	-0.3718	-0.2835	
-0.22753	0.942938	0.219722	-20.23	-8.26	33.39	0.046	-0.3718	-0.2985	
-0.215086	0.936838	0.223626	-18.9	-6.72	34.72	0.0371	-0.3624	-0.2985	
-0.19642	0.945988	0.214476	-20.16	-7.14	35.28	0.0342	-0.3639	-0.3	
-0.186782	0.950014	0.228262	-23.45	-10.15	38.92	0.0269	-0.3669	-0.2895	
-0.172142	0.936838	0.251442	-25.97	-9.8	41.09	0.0313	-0.3701	-0.3059	
-0.136274	0.934154	0.256078	-26.53	-6.44	42.91	0.021	-0.3638	-0.3119	
-0.121146	0.962458	0.240462	-28	-8.75	45.99	0.0166	-0.3668	-0.309	
-0.115656	0.951966	0.25742	-33.6	-14.07	48.65	0.0136	-0.3575	-0.306	
-0.073688	0.97234	0.257298	-33.67	-16.59	50.19	-0.0127	-0.3618	-0.315	
-0.076616	0.951844	0.290604	-34.23	-21.28	52.36	-0.007	-0.348	-0.3105	
-0.055022	0.936594	0.320982	-33.04	-20.93	53.06	-0.0232	-0.3416	-0.3254	
-0.01525	0.939034	0.314516	-41.37	-14.7	56.28	-0.0173	-0.3432	-0.3224	
0.01464	0.941474	0.304268	-43.47	-15.05	56.7	-0.0482	-0.3367	-0.3315	
0.02806	0.954772	0.32513	-49.42	-16.45	57.33	-0.0439	-0.3321	-0.3434	
0.05246	0.958066	0.340258	-40.32	-22.96	53.62	-0.0513	-0.3212	-0.3464	
0.069296	0.928542	0.39284	-38.5	-26.25	51.66	-0.0616	-0.3242	-0.3509	
0.096136	0.906094	0.401624	-46.48	-19.88	49.56	-0.0719	-0.3179	-0.3494	
0.125782	0.887794	0.388204	-51.45	-18.97	48.58	-0.075	-0.307	-0.3479	
0.153476	0.882548	0.410042	-43.89	-25.06	47.25	-0.0809	-0.3023	-0.3703	
0.190198	0.901702	0.429318	-44.94	-28.7	48.23	-0.09869999	-0.2867	-0.3614	
0.215818	0.875228	0.45018	-45.99	-29.82	46.69	-0.1016	-0.2882	-0.3659	
0.23302	0.842776	0.475678	-48.72	-29.89	46.69	-0.1133	-0.2896	-0.3629	
0.254004	0.832162	0.479948	-49.07	-28	44.24	-0.1135	-0.2772	-0.3718	
0.278892	0.824354	0.48495	-52.99	-26.88	43.75	-0.1239	-0.2601	-0.3734	
0.29707	0.8235	0.488244	-47.88	-30.87	42.28	-0.1254	-0.2586	-0.3734	
0.315858	0.781776	0.534482	-45.85	-33.95	39.2	-0.1445	-0.2568	-0.3749	
0.34099	0.750788	0.522404	-41.02	-34.79	34.16	-0.1609	-0.2288	-0.3749	
0.384422	0.757376	0.549	-31.29	-40.11	31.85	-0.1595	-0.2273	-0.3838	
0.392108	0.806542	0.581696	-27.86	-40.95	20.51	-0.1742	-0.2225	-0.3839	
0.330986	0.621102	0.532774	-28.35	-46.9	23.1	-0.1758	-0.2147	-0.3869	
0.436028	0.758474	0.594628	8.4	-57.47	28.7	-0.1875	-0.2146	-0.3824	
0.448106	0.707234	0.612806	-13.37	-42.35	27.44	-0.1948	-0.216	-0.372	
0.463844	0.7137	0.55632	-19.04	-31.64	26.6	-0.2066	-0.2097	-0.384	
0.45506	0.70333	0.552904	-22.26	-27.09	24.5	-0.2095	-0.2112	-0.3825	
0.44469	0.718092	0.543754	-19.6	-27.23	22.26	-0.2272	-0.2064	-0.3751	
0.463234	0.717238	0.562908	-23.24	-26.46	20.3	-0.2243	-0.1956	-0.3676	
0.475434	0.705892	0.565836	-17.78	-25.27	17.71	-0.2333	-0.18	-0.378	
0.493856	0.70089	0.56669	-13.44	-24.64	16.38	-0.2362	-0.1862	-0.3736	
0.511668	0.700402	0.560834	-11.83	-22.33	12.81	-0.2376	-0.1846	-0.3646	
0.516548	0.697596	0.552904	-13.44	-20.02	10.5	-0.2436	-0.1753	-0.3766	
0.517158	0.690886	0.551806	-11.41	-18.55	7.42	-0.2466	-0.1768	-0.3766	
0.524844	0.696254	0.558028	-7.07	-18.34	5.39	-0.2481	-0.166	-0.3766	
0.541314	0.698938	0.556076	-5.74	-15.33	2.66	-0.2495	-0.1721	-0.3781	
0.545218	0.696864	0.573888	-3.22	-13.86	0.07	-0.248	-0.1799	-0.3736	
0.541314	0.69601	0.563274	-1.82	-10.43	-2.17	-0.251	-0.169	-0.3736	
0.553636	0.668072	0.560224	-5.46	-4.97	-3.57	-0.2584	-0.1674	-0.3796	
0.54107	0.685152	0.549488	-3.5	-2.17	-4.41	-0.2554	-0.169	-0.3721	
0.539606	0.692106	0.549122	-9.94	2.1	-5.74	-0.2583	-0.1751	-0.3811	
0.527894	0.690764	0.533506	-7.14	3.57	-7.07	-0.2656	-0.1766	-0.3721	
0.519232	0.703208	0.543632	-5.04	2.94	-8.75	-0.257	-0.155	-0.3676	
0.501054	0.705526	0.543998	-4.76	3.08	-10.57	-0.2614	-0.1643	-0.3781	
0.51667	0.695522	0.543754	-3.99	3.64	-12.11	-0.2466	-0.1706	-0.3706	
0.522404	0.709552	0.55022	-1.19	3.29	-12.95	-0.2481	-0.1675	-0.378	
0.519476	0.709552	0.546926	-3.01	6.16	-14.07	-0.251	-0.169	-0.3751	
0.519476	0.724924	0.546682	-3.36	6.02	-14.84	-0.2436	-0.1799	-0.3766	
0.511668	0.722728	0.56486	-2.66	7.21	-16.17	-0.2466	-0.1691	-0.3766	
0.490196	0.73444	0.549366	-4.83	10.08	-17.57	-0.251	-0.169	-0.3676	
0.50996	0.729926	0.566202	-1.19	9.31	-20.02	-0.2378	-0.1769	-0.375	
0.50325	0.75274	0.579378	0.56	11.48	-21.91	-0.2421	-0.183	-0.3855	
0.496418	0.752618	0.585478	-0.35	16.38	-25.48	-0.2246	-0.1755	-0.375	
0.488244	0.755302	0.574254	-4.97	22.75	-28.63	-0.2332	-0.1878	-0.3736	
0.478972	0.74908	0.56364	-3.15	25.55	-31.57	-0.2289	-0.1863	-0.3855	
0.468114	0.758962	0.565348	-2.59	28.21	-33.74	-0.2186	-0.1833	-0.3795	
0.447496	0.768844	0.551196	-7	31.64	-36.68	-0.2098	-0.1881	-0.3929	
0.424682	0.768356	0.565226	-5.25	31.85	-39.62	-0.2084	-0.1834	-0.3824	
0.397476	0.76799	0.56059	-2.03	33.46	-42.56	-0.1908	-0.1867	-0.3899	
0.377712	0.749202	0.54473	-2.8	35.28	-45.5	-0.1834	-0.1899	-0.3988	
0.392352	0.737856	0.54778	1.4	32.27	-46.62	-0.1821	-0.1791	-0.3973	
0.365634	0.739808	0.563396	5.11	31.15	-45.99	-0.1746	-0.1885	-0.3883	
0.341234	0.746762	0.552782	-0.49	34.86	-47.32	-0.1672	-0.1994	-0.3988	
0.310368	0.742736	0.534726	-1.75	35.28	-48.37	-0.1613	-0.1995	-0.4002	
0.27328	0.762866	0.537654	2.38	32.13	-47.88	-0.1496	-0.1996	-0.3942	
0.255712	0.780556	0.546926	4.06	29.26	-49.56	-0.1409	-0.1966	-0.4121	
0.23729	0.774334	0.562054	7.07	27.02	-51.45	-0.1261	-0.2045	-0.4016	
0.226798	0.793244	0.545096	16.59	23.45	-53.97	-0.1245	-0.2185	-0.4076	
0.224602	0.78385	0.566202	15.33	23.17	-53.83	-0.1142	-0.2186	-0.4031	
0.183732	0.80398	0.565348	12.81	26.39	-53.34	-0.1084	-0.214	-0.3986	
0.158844	0.790682	0.55693	9.03	28.91	-53.34	-0.098	-0.2234	-0.3986	
0.127368	0.822402	0.558394	16.24	27.3	-52.15	-0.076	-0.2252	-0.403	
0.113338	0.81862	0.571936	15.26	29.89	-51.94	-0.0848	-0.2282	-0.3956	
0.093086	0.835822	0.576328	14.98	32.62	-49	-0.0643	-0.2254	-0.4105	
0.06588	0.855464	0.547292	2.31	39.76	-49.49	-0.0612	-0.2393	-0.403	
0.035502	0.88938	0.54168	-4.76	40.53	-49.14	-0.0612	-0.2393	-0.403	
0.010248	0.906216	0.550708	-4.2	38.5	-51.52	-0.054	-0.2301	-0.4015	
-0.035746	0.887916	0.553148	-6.09	40.88	-56.7	-0.0482	-0.2255	-0.4	
-0.05917	0.853146	0.54717	-15.82	45.08	-59.43	-0.0172	-0.2367	-0.3999	
-0.065514	0.804712	0.535336	-21.21	47.11	-61.81	-0.0057	-0.2276	-0.4118	
-0.10126	0.821914	0.541314	-15.96	45.99	-64.26	-0.0057	-0.2276	-0.4118	
-0.138958	0.801906	0.553148	-19.18	44.94	-65.73	0.0132	-0.2217	-0.4147	
-0.185562	0.777872	0.548024	-20.23	47.46	-67.27	0.0323	-0.2219	-0.4057	
-0.21899	0.743102	0.53192	-26.39	51.52	-69.51	0.0337	-0.2126	-0.4027	
-0.260592	0.748714	0.557906	-24.22	48.37	-70.91	0.0512	-0.2113	-0.4057	
-0.303414	0.74664	0.557296	-23.03	47.53	-72.24	0.07009999	-0.193	-0.4011	
-0.335378	0.695156	0.561688	-24.99	44.73	-71.96	0.0687	-0.1961	-0.4041	
-0.370636	0.695522	0.553392	-23.52	41.44	-70.07	0.0774	-0.19	-0.4056	
-0.386618	0.664534	0.564738	-24.5	37.31	-67.83	0.0963	-0.1748	-0.4085	
-0.38735	0.679052	0.599386	-20.93	33.32	-65.52	0.1096	-0.1842	-0.398	
-0.43005	0.657946	0.596458	-20.58	31.57	-68.25	0.1109	-0.1719	-0.4055	
-0.458232	0.635498	0.599386	-21.28	28	-64.19	0.1181	-0.1642	-0.4099	
-0.469822	0.614392	0.577426	-20.72	26.25	-59.64	0.124	-0.1612	-0.4114	
-0.492636	0.567422	0.578646	-23.59	23.94	-59.85	0.1282	-0.152	-0.4099	
-0.503738	0.543998	0.593286	-22.33	18.41	-54.67	0.14	-0.1568	-0.4099	
-0.50508	0.52704	0.602436	-20.86	16.66	-52.57	0.1282	-0.1427	-0.4069	
-0.521306	0.51545	0.60024	-22.96	18.97	-52.78	0.1515	-0.1337	-0.4053	
-0.531432	0.503372	0.611342	-22.54	16.38	-48.93	0.1544	-0.1276	-0.4023	
-0.54168	0.48983	0.596824	-22.96	13.23	-44.8	0.1556	-0.1106	-0.4023	
-0.589016	0.462258	0.610732	-21	7.21	-38.01	0.1643	-0.0968	-0.3993	
-0.596458	0.47336	0.624396	-21.14	8.05	-35.77	0.1716	-0.0953	-0.4023	
-0.60756	0.465552	0.612684	-21.91	9.66	-34.65	0.1673	-0.103	-0.4023	
-0.614148	0.462624	0.634522	-19.39	6.51	-31.92	0.1686	-0.0891	-0.4142	
-0.616954	0.42822	0.632448	-22.47	9.94	-31.22	0.1729	-0.0846	-0.4172	
-0.621224	0.420412	0.641598	-19.88	8.61	-29.89	0.1685	-0.0799	-0.4037	
-0.64477	0.433222	0.63318	-19.04	10.57	-29.05	0.1786	-0.0707	-0.4127	
-0.662826	0.418338	0.633424	-19.32	10.57	-27.65	0.1684	-0.0752	-0.4067	
-0.657458	0.385764	0.649528	-17.71	7.07	-25.27	0.1829	-0.0631	-0.4156	
-0.647698	0.37088	0.641476	-14.49	5.6	-22.19	0.1815	-0.0646	-0.4097	
-0.649894	0.371978	0.639158	-12.53	5.53	-20.79	0.1784	-0.0522	-0.4126	
-0.66856	0.371002	0.629276	-12.11	7.35	-17.57	0.1814	-0.0569	-0.4052	
-0.686128	0.363194	0.62159	-10.29	3.08	-13.02	0.1815	-0.063	-0.4067	
-0.695644	0.353068	0.627446	-7.7	1.75	-8.26	0.1872	-0.0507	-0.4037	
-0.70516	0.353556	0.620614	-4.55	2.03	-4.9	0.1828	-0.0476	-0.4022	
-0.720532	0.359168	0.62769	-2.24	1.75	-1.96	0.1857	-0.0492	-0.4111	
-0.715896	0.364658	0.63684	0.91	-4.34	3.01	0.1784	-0.0537	-0.4067	
-0.727486	0.379176	0.615368	1.54	-3.08	7.21	0.1798	-0.0445	-0.4096	
-0.720044	0.377102	0.632326	4.2	-7	10.92	0.1902	-0.057	-0.4052	
-0.711504	0.370392	0.628422	5.39	-7.98	14.07	0.1814	-0.0553	-0.4052	
-0.694424	0.365634	0.639158	7.84	-10.64	18.48	0.1755	-0.0506	-0.4022	
-0.67344	0.365756	0.63806	10.22	-15.12	24.08	0.1815	-0.063	-0.4052	
-0.66429	0.38674	0.632204	11.9	-19.11	29.61	0.1727	-0.0614	-0.4112	
-0.65697	0.386252	0.612318	12.6	-10.99	31.43	0.1727	-0.0676	-0.4037	
-0.66063	0.403088	0.623542	13.58	-8.33	34.58	0.1641	-0.07979999	-0.4067	
-0.671732	0.41541	0.613538	16.52	-12.88	37.17	0.1669	-0.0752	-0.4187	
-0.66795	0.430294	0.601582	17.92	-17.22	39.06	0.1554	-0.0874	-0.4083	
-0.617686	0.433466	0.607072	18.97	-20.16	41.3	0.1582	-0.0797	-0.4053	
-0.596946	0.452254	0.61915	19.53	-20.23	42.35	0.151	-0.0889	-0.4083	
-0.599752	0.463478	0.618296	21.98	-21.63	45.36	0.1553	-0.0859	-0.4127	
-0.582062	0.503616	0.61976	23.73	-22.96	49.42	0.1424	-0.1027	-0.4083	
-0.540216	0.512888	0.618052	23.59	-25.83	51.87	0.1395	-0.1089	-0.4173	
-0.52643	0.513986	0.605486	24.22	-24.99	54.11	0.1324	-0.1289	-0.4113	
-0.512156	0.530212	0.609268	25.06	-27.79	57.47	0.1294	-0.1257	-0.4158	
-0.492392	0.552416	0.596336	24.5	-27.37	58.94	0.1194	-0.1426	-0.4084	
-0.470188	0.567422	0.585112	24.64	-28.7	60.83	0.112	-0.1425	-0.4114	
-0.432856	0.584136	0.585478	25.97	-30.66	62.09	0.1121	-0.1503	-0.4189	
-0.400038	0.596702	0.58682	25.13	-31.57	64.26	0.099	-0.1547	-0.41	
-0.376126	0.623298	0.574498	24.71	-31.43	65.45	0.0917	-0.1593	-0.4145	
-0.350384	0.661972	0.569374	24.85	-34.65	67.83	0.0771	-0.1637	-0.41	
-0.324398	0.68747	0.560956	23.17	-35.07	69.09	0.0743	-0.173	-0.4071	
-0.302926	0.70638	0.562908	20.37	-35.14	70.63	0.0568	-0.1836	-0.4146	
-0.28853	0.72346	0.558516	17.22	-35.42	70.84	0.0522	-0.1743	-0.4265	
-0.24644	0.735782	0.546072	15.47	-40.88	71.75	0.0436	-0.1865	-0.4191	
-0.189222	0.759938	0.560102	14.42	-50.33	71.75	0.029	-0.1879	-0.4132	
-0.129686	0.768112	0.568032	13.16	-56.63	72.31	0.0247	-0.1971	-0.4221	
-0.093696	0.747494	0.571204	7.98	-59.08	74.83	-0.0001	-0.2014	-0.4132	
-0.038552	0.760792	0.585966	7	-59.71	75.88	-0.0162	-0.2012	-0.4222	
0.018788	0.765184	0.586942	4.55	-58.73	76.65	-0.0266	-0.1934	-0.4133	
0.060756	0.778726	0.60268	3.64	-58.45	76.79	-0.0339	-0.1964	-0.4103	
0.095892	0.784094	0.61915	4.55	-56.98	76.79	-0.044	-0.2086	-0.4089	
0.137128	0.783484	0.589992	1.12	-54.18	77.07	-0.069	-0.2037	-0.4149	
0.166896	0.80581	0.575718	-0.98	-52.5	75.04	-0.0748	-0.2021	-0.4075	
0.202276	0.799222	0.573278	-7.21	-49.21	72.94	-0.0837	-0.1958	-0.406	
0.238876	0.782264	0.562054	-7.91	-47.74	69.72	-0.0998	-0.2018	-0.415	
0.274744	0.781532	0.582428	-10.57	-49.56	68.39	-0.1101	-0.197	-0.3986	
0.293288	0.775432	0.611342	-9.8	-49	66.85	-0.1176	-0.1861	-0.421	
0.279746	0.764452	0.602924	-13.3	-44.59	61.74	-0.1337	-0.1828	-0.4016	
0.300852	0.767624	0.582306	-14.35	-43.96	56.49	-0.1542	-0.1826	-0.4032	
0.345748	0.751886	0.605242	-13.86	-46.97	51.52	-0.1484	-0.1795	-0.3972	
0.380152	0.750056	0.605974	-16.73	-47.39	49.63	-0.1676	-0.1654	-0.3987	
0.401014	0.740174	0.625494	-14.63	-50.33	48.65	-0.1866	-0.1652	-0.3973	
0.404796	0.739808	0.627446	-22.33	-48.37	44.24	-0.1954	-0.1666	-0.3973	
0.404064	0.718458	0.63501	-23.31	-49.77	36.05	-0.2087	-0.1572	-0.3943	
0.394548	0.677466	0.67039	-5.81	-48.65	31.85	-0.2219	-0.1586	-0.3929	
0.419802	0.686616	0.651968	-1.54	-42.42	30.1	-0.2249	-0.1477	-0.3869	
0.45445	0.681248	0.611098	-4.83	-36.54	27.16	-0.2338	-0.1414	-0.3989	
0.464942	0.676734	0.596946	-6.65	-34.86	24.64	-0.2351	-0.1522	-0.381	
0.470676	0.674416	0.611342	-4.76	-37.03	22.54	-0.244	-0.1444	-0.384	
0.48251	0.664778	0.62952	-4.48	-34.72	21.21	-0.2528	-0.1443	-0.3885	
0.494954	0.665754	0.615734	-8.33	-30.31	20.44	-0.2543	-0.1396	-0.3795	
0.501298	0.665144	0.609146	-11.27	-26.81	18.76	-0.2645	-0.1441	-0.3825	
0.53314	0.66185	0.607316	-10.08	-26.25	18.76	-0.2646	-0.1349	-0.3736	
0.5185	0.683444	0.609512	-7.07	-26.39	17.64	-0.2647	-0.124	-0.3736	
0.535946	0.691374	0.607072	-10.22	-24.29	14.77	-0.2749	-0.1301	-0.3781	
0.553758	0.68686	0.603046	-12.95	-22.05	11.55	-0.2794	-0.1192	-0.3691	
0.557662	0.682834	0.613904	-10.5	-20.37	8.05	-0.2838	-0.1207	-0.3721	
0.556076	0.677954	0.616832	-9.45	-17.64	5.53	-0.278	-0.1192	-0.3661	
0.557662	0.66368	0.60634	-10.78	-12.88	2.52	-0.2795	-0.1161	-0.3647	
0.557296	0.657946	0.597922	-5.67	-10.5	-0.98	-0.2897	-0.1237	-0.3721	
0.560102	0.648552	0.60329	-8.82	-7.21	-5.04	-0.2854	-0.113	-0.3736	
0.571204	0.655506	0.590358	-0.07	-7.77	-4.76	-0.2926	-0.1222	-0.3647	
0.572424	0.645746	0.587552	-2.24	-5.04	-7.98	-0.2956	-0.1175	-0.3736	
0.577182	0.641842	0.59841	-2.38	-2.66	-8.19	-0.2897	-0.116	-0.3527	
0.574376	0.648796	0.589504	-4.34	1.33	-9.38	-0.2882	-0.1191	-0.3677	
0.569862	0.64477	0.588528	-3.78	2.59	-8.89	-0.2867	-0.1269	-0.3736	
0.57645	0.644038	0.587796	-2.03	3.78	-8.96	-0.2912	-0.1191	-0.3736	
0.587308	0.6527	0.592798	-1.89	4.2	-8.89	-0.2853	-0.1207	-0.3691	
0.603656	0.662704	0.619638	1.47	5.39	-8.82	-0.2839	-0.1192	-0.3766	
0.618662	0.669536	0.623786	4.76	9.24	-10.36	-0.2809	-0.1177	-0.3676	
0.620736	0.668438	0.634644	3.22	14.49	-12.25	-0.2794	-0.1239	-0.3766	
0.60756	0.653188	0.646112	5.25	22.12	-14.07	-0.2838	-0.1285	-0.3826	
0.593896	0.653188	0.61	-5.18	38.15	-18.97	-0.2706	-0.1209	-0.3676	
0.581208	0.667096	0.629032	-2.1	42.14	-20.93	-0.2633	-0.1256	-0.3766	
0.552294	0.671244	0.628788	-0.28	48.02	-24.29	-0.2588	-0.1288	-0.381	
0.536922	0.67222	0.605364	-6.02	52.85	-27.09	-0.247	-0.1366	-0.3855	
0.515694	0.66063	0.611098	-1.26	52.22	-29.61	-0.2412	-0.1367	-0.3914	
0.493124	0.648064	0.61366	-1.82	55.23	-32.69	-0.228	-0.1322	-0.3854	
0.451522	0.663924	0.584746	13.44	51.31	-31.64	-0.2148	-0.1339	-0.3973	
0.44408	0.648918	0.630252	16.52	49.63	-37.24	-0.2074	-0.1479	-0.3958	
0.432124	0.665022	0.610244	12.67	51.03	-38.22	-0.2016	-0.1418	-0.3943	
0.398208	0.664534	0.597434	11.2	54.04	-40.46	-0.1927	-0.1497	-0.4018	
0.366488	0.695278	0.581452	12.39	54.6	-42.49	-0.1854	-0.1529	-0.4181	
0.36417	0.682956	0.593042	14.91	52.85	-46.34	-0.1677	-0.1546	-0.4092	
0.333792	0.712602	0.59292	13.3	51.94	-46.76	-0.1602	-0.1701	-0.4017	
0.305122	0.711992	0.613904	11.48	51.17	-47.67	-0.1499	-0.1718	-0.4047	
0.273158	0.712236	0.60695	9.1	51.94	-45.22	-0.1513	-0.1795	-0.4062	
0.243268	0.723216	0.616222	8.4	53.76	-45.99	-0.1279	-0.1813	-0.4121	
0.221308	0.749568	0.612562	6.58	54.74	-46.83	-0.122	-0.1814	-0.424	
0.198494	0.769332	0.622932	2.73	56.63	-47.6	-0.103	-0.177	-0.4224	
0.161772	0.750056	0.624518	-2.1	58.94	-48.02	-0.0942	-0.1802	-0.4254	
0.121512	0.748226	0.609024	0	58.8	-46.48	-0.0854	-0.1803	-0.4254	
0.090646	0.757376	0.604998	-8.82	59.22	-45.22	-0.0766	-0.182	-0.4224	
0.043798	0.77348	0.613782	-4.48	57.68	-46.2	-0.059	-0.1822	-0.4164	
0.004514	0.786778	0.63379	-5.32	56.21	-48.16	-0.046	-0.1592	-0.4238	
-0.02928	0.79239	0.640012	-7.35	54.81	-49.42	-0.0341	-0.1809	-0.4193	
-0.052704	0.767258	0.646722	-7.63	55.79	-53.06	-0.0209	-0.178	-0.4267	
-0.084668	0.757742	0.646478	-12.39	58.45	-56.14	-0.0078	-0.1689	-0.4177	
-0.120658	0.748348	0.630252	-13.16	60.69	-60.27	0.0054	-0.1752	-0.4207	
-0.167506	0.723704	0.631472	-15.75	60.27	-63.63	0.0111	-0.1691	-0.4266	
-0.20618	0.699426	0.631838	-16.38	60.27	-65.73	0.0198	-0.1584	-0.4266	
-0.250954	0.677954	0.610366	-17.29	60.48	-66.64	0.033	-0.1601	-0.4221	
-0.275232	0.664046	0.618052	-16.94	58.1	-66.99	0.0476	-0.1541	-0.4235	
-0.335744	0.627568	0.626226	-15.82	54.25	-69.16	0.0827	-0.1484	-0.4234	
-0.365634	0.609512	0.657092	-13.93	50.26	-68.39	0.0884	-0.133	-0.4249	
-0.40016	0.615856	0.66002	-11.62	47.67	-66.57	0.1031	-0.1301	-0.4204	
-0.426634	0.599996	0.624762	-15.96	48.58	-67.27	0.1074	-0.1286	-0.4204	
-0.446032	0.57584	0.62952	-16.38	42.49	-65.59	0.1118	-0.1209	-0.4174	
-0.471042	0.559492	0.620126	-17.22	39.06	-63.98	0.1323	-0.1227	-0.4173	
-0.4941	0.548878	0.629398	-17.22	34.58	-61.88	0.141	-0.1182	-0.4158	
-0.485804	0.533872	0.61183	-16.45	27.09	-57.12	0.1352	-0.1181	-0.4054	
-0.506422	0.522526	0.623664	-16.45	26.25	-56.21	0.1437	-0.0966	-0.4128	
-0.54839	0.5124	0.6222	-17.64	28.35	-55.51	0.1496	-0.0982	-0.4172	
-0.564616	0.493978	0.623176	-17.85	23.45	-51.59	0.1627	-0.0891	-0.4172	
-0.567788	0.478606	0.621468	-16.24	18.76	-49.28	0.1495	-0.0889	-0.4113	
-0.586698	0.474092	0.634278	-16.59	18.2	-47.53	0.1612	-0.0813	-0.4082	
-0.573278	0.458354	0.620248	-16.87	16.1	-45.78	0.1714	-0.0784	-0.4112	
-0.58194	0.43371	0.633058	-17.5	16.1	-42.91	0.1669	-0.0659	-0.4008	
-0.587552	0.412848	0.628544	-15.75	13.93	-36.89	0.177	-0.0568	-0.4127	
-0.617442	0.399184	0.63806	-16.03	17.36	-37.52	0.1785	-0.0568	-0.4126	
-0.635132	0.395158	0.638182	-13.65	14.07	-33.25	0.1784	-0.0568	-0.4201	
-0.645014	0.38491	0.645868	-12.53	12.88	-30.8	0.1843	-0.0522	-0.4022	
-0.65819	0.384788	0.64233	-10.92	11.76	-26.67	0.1857	-0.0523	-0.4111	
-0.670512	0.386862	0.637938	-9.24	9.17	-23.03	0.1798	-0.0429	-0.4067	
-0.692106	0.38552	0.636962	-8.26	7	-19.39	0.1842	-0.0461	-0.4081	
-0.696376	0.3721	0.646966	-8.12	5.6	-15.82	0.1959	-0.0431	-0.4021	
-0.689056	0.362096	0.65087	-6.72	6.65	-14.14	0.1827	-0.0368	-0.4022	
-0.671488	0.356362	0.651602	-4.69	5.32	-12.18	0.1987	-0.0323	-0.4051	
-0.669658	0.357582	0.644404	-2.87	4.55	-8.19	0.1958	-0.0369	-0.4081	
-0.684176	0.359168	0.6466	-1.75	4.62	-4.34	0.1929	-0.0369	-0.4036	
-0.695766	0.356972	0.629032	-1.05	5.6	-0.56	0.1973	-0.037	-0.4036	
-0.724436	0.353678	0.615856	-0.21	0.07	4.62	0.1856	-0.0337	-0.4037	
-0.733708	0.354898	0.631472	1.26	-4.76	9.59	0.1841	-0.0337	-0.4022	
-0.728462	0.370758	0.619638	3.64	-5.74	12.18	0.2002	-0.0308	-0.4006	
-0.741272	0.371856	0.624884	5.32	-8.4	14.84	0.1812	-0.0398	-0.3947	
-0.710894	0.362096	0.627202	8.33	-12.67	17.22	0.19	-0.0415	-0.4081	
-0.68259	0.360632	0.629276	9.73	-14.56	19.46	0.19	-0.0431	-0.4066	
-0.689788	0.371856	0.6222	10.15	-12.11	22.4	0.1916	-0.0477	-0.4066	
-0.695766	0.3965	0.646112	11.41	-15.61	25.9	0.1886	-0.043	-0.4066	
-0.67405	0.392718	0.60329	12.81	-18.9	30.52	0.177	-0.0553	-0.4186	
-0.652578	0.39223	0.606096	15.26	-22.61	33.18	0.1712	-0.0583	-0.4112	
-0.65758	0.39406	0.612684	17.08	-22.54	35.77	0.1726	-0.0552	-0.4067	
-0.650016	0.444446	0.654042	21.28	-28.42	36.12	0.1551	-0.0674	-0.4187	
-0.61366	0.450546	0.630252	23.03	-29.33	37.45	0.1595	-0.0659	-0.4038	
-0.576938	0.466528	0.629398	22.19	-30.59	38.99	0.1611	-0.07979999	-0.4142	
-0.574376	0.4697	0.616344	20.23	-29.19	41.86	0.1524	-0.0812	-0.4112	
-0.548024	0.477264	0.61732	21.98	-34.3	44.66	0.1363	-0.0841	-0.4143	
-0.536922	0.482022	0.629032	22.19	-33.04	46.62	0.1349	-0.0903	-0.4188	
-0.50569	0.521916	0.648918	24.92	-35.7	46.62	0.132	-0.0964	-0.4247	
-0.492514	0.543754	0.635742	24.92	-33.46	46.55	0.1233	-0.1056	-0.4099	
-0.448228	0.5551	0.621224	25.13	-34.3	50.19	0.119	-0.1148	-0.4203	
-0.433466	0.570472	0.606096	25.55	-35.49	53.41	0.1059	-0.1239	-0.4278	
-0.41907	0.602802	0.611098	23.8	-35.98	54.81	0.106	-0.1286	-0.4159	
-0.412482	0.609146	0.62464	23.17	-36.68	55.58	0.0884	-0.1268	-0.4174	
-0.389912	0.627934	0.618052	24.22	-38.85	55.72	0.0827	-0.1453	-0.4234	
-0.36173	0.633058	0.605364	21.98	-38.92	57.26	0.0681	-0.1482	-0.413	
-0.32086	0.645258	0.602314	20.65	-41.51	59.08	0.0696	-0.1544	-0.4205	
-0.285846	0.66185	0.58804	20.09	-43.54	59.71	0.0696	-0.1544	-0.4294	
-0.245586	0.691008	0.587918	19.32	-44.94	60.55	0.0433	-0.1587	-0.4191	
-0.223748	0.674782	0.578402	16.1	-45.85	63	0.0389	-0.1633	-0.4236	
-0.184708	0.684664	0.602192	16.17	-50.26	64.61	0.0316	-0.1647	-0.428	
-0.137494	0.703574	0.60085	16.1	-52.15	64.19	0.0171	-0.1738	-0.4206	
-0.080276	0.731024	0.618662	17.64	-62.93	65.03	0.0054	-0.1768	-0.4207	
-0.027206	0.743346	0.594628	15.82	-67.48	68.67	-0.0167	-0.1642	-0.4177	
0.032086	0.731024	0.620126	12.11	-69.02	71.68	-0.0252	-0.1841	-0.4193	
0.0976	0.70394	0.618296	7.35	-67.06	74.41	-0.0559	-0.1899	-0.4149	
0.12261	0.72712	0.628422	9.31	-65.45	74.41	-0.0619	-0.1806	-0.4149	
0.165188	0.753472	0.603778	6.65	-62.44	74.13	-0.0809	-0.185	-0.4194	
0.194468	0.743346	0.621956	3.78	-61.81	72.66	-0.097	-0.191	-0.4165	
0.231678	0.73688	0.600362	-0.42	-58.31	72.45	-0.1117	-0.1877	-0.4105	
0.261324	0.72346	0.615002	0.14	-58.94	72.24	-0.1147	-0.1799	-0.4046	
0.292312	0.713212	0.61427	-4.41	-56.7	72.38	-0.1323	-0.1782	-0.4121	
0.325862	0.734318	0.646234	-3.22	-54.04	71.75	-0.1528	-0.181	-0.4047	
0.346114	0.794708	0.602924	1.68	-49.98	66.99	-0.1572	-0.1763	-0.4047	
0.34221	0.764452	0.605242	-4.34	-47.81	62.72	-0.1704	-0.1746	-0.4047	
0.368318	0.726144	0.615246	-8.68	-45.57	56.56	-0.1778	-0.1684	-0.3958	
0.401014	0.70882	0.62098	-10.71	-47.18	52.64	-0.1925	-0.1636	-0.4062	
0.422608	0.700524	0.6527	-10.99	-48.37	53.41	-0.2014	-0.1573	-0.4003	
0.445666	0.70089	0.667096	-11.34	-43.89	52.01	-0.2103	-0.1463	-0.3943	
0.45933	0.709918	0.634888	-12.95	-39.9	49.56	-0.2087	-0.1541	-0.3839	
0.467992	0.700402	0.627202	-16.59	-37.03	46.41	-0.2177	-0.1447	-0.3988	
0.48007	0.673928	0.633058	-18.06	-35.7	42.14	-0.2441	-0.1429	-0.3989	
0.497394	0.675148	0.640622	-14.63	-34.79	40.18	-0.2383	-0.1321	-0.3944	
0.512766	0.669902	0.643916	-10.43	-34.44	37.8	-0.2559	-0.1288	-0.387	
0.53558	0.68259	0.630618	-12.11	-28	32.34	-0.2544	-0.1319	-0.39	
0.515084	0.66856	0.616222	-13.86	-25.2	26.95	-0.259	-0.121	-0.3944	
0.532774	0.65392	0.619638	-12.04	-24.36	23.52	-0.2649	-0.1102	-0.3825	
0.53253	0.668316	0.614148	-8.96	-21.77	19.95	-0.2633	-0.1241	-0.378	
0.55754	0.667218	0.604632	-10.78	-21.63	17.36	-0.2692	-0.1209	-0.381	
0.569496	0.65819	0.61976	-6.16	-22.05	13.58	-0.2796	-0.1038	-0.381	
0.58499	0.65636	0.624152	-4.48	-19.39	10.15	-0.2781	-0.1115	-0.3766	
0.592798	0.651968	0.612806	-6.09	-15.54	6.44	-0.2767	-0.1023	-0.3825	
0.597434	0.644648	0.614514	-3.71	-13.58	2.8	-0.2841	-0.0991	-0.3766	
0.59902	0.639402	0.61549	-4.2	-10.64	-0.28	-0.2899	-0.1083	-0.3781	
0.613782	0.634766	0.613294	-2.59	-8.47	-3.43	-0.2825	-0.1084	-0.3691	
0.612806	0.634156	0.620248	2.8	-6.58	-5.67	-0.2826	-0.0991	-0.3781	
0.604632	0.61915	0.592554	-1.12	-0.77	-8.82	-0.2972	-0.1082	-0.3781	
0.608414	0.616344	0.607316	-0.35	0.77	-9.52	-0.284	-0.1084	-0.3706	
0.60268	0.62891	0.605242	-0.42	3.92	-10.99	-0.2928	-0.1052	-0.3721	
0.595238	0.631838	0.604388	0.35	6.23	-12.81	-0.2811	-0.1053	-0.3751	
0.59475	0.627446	0.592432	0.49	8.61	-14.98	-0.284	-0.1053	-0.3736	
0.600484	0.637694	0.601582	1.61	9.52	-18.27	-0.284	-0.1084	-0.3721	
0.614148	0.646356	0.614148	3.78	10.92	-18.9	-0.2752	-0.1069	-0.3825	
0.601948	0.650138	0.626104	3.99	15.26	-20.72	-0.2722	-0.1147	-0.384	
0.616832	0.631594	0.630984	4.2	20.93	-24.08	-0.2735	-0.1239	-0.3751	
0.604876	0.63867	0.636474	5.25	27.16	-27.02	-0.2766	-0.1177	-0.3796	
0.592066	0.639768	0.61488	2.24	34.37	-28.49	-0.2618	-0.1241	-0.3855	
0.579988	0.638548	0.612806	0	38.99	-29.89	-0.2604	-0.1241	-0.3885	
0.55571	0.664168	0.618052	-2.1	41.72	-30.45	-0.2501	-0.1258	-0.3885	
0.528992	0.677954	0.62159	-2.1	44.24	-31.99	-0.2457	-0.1274	-0.3899	
0.499468	0.669902	0.61061	0.35	45.71	-34.93	-0.2311	-0.1245	-0.3944	
0.486414	0.653676	0.625616	4.34	45.43	-37.8	-0.231	-0.1307	-0.3944	
0.459452	0.63745	0.615368	8.82	46.9	-42.21	-0.2075	-0.1387	-0.3973	
0.427244	0.655262	0.600728	1.89	50.82	-41.16	-0.2088	-0.151	-0.3988	
0.404674	0.660386	0.61305	6.44	49.35	-42.91	-0.203	-0.1434	-0.4003	
0.379664	0.672464	0.59719	4.55	52.22	-43.47	-0.1824	-0.1529	-0.4047	
0.355142	0.684542	0.603778	7.42	50.96	-45.64	-0.1869	-0.142	-0.3958	
0.315614	0.686982	0.61427	9.31	49.84	-47.46	-0.1677	-0.1531	-0.4092	
0.299388	0.697962	0.622932	10.64	49.07	-47.53	-0.1604	-0.1562	-0.4166	
0.287798	0.73078	0.635742	11.55	49.14	-48.3	-0.1515	-0.1625	-0.4106	
0.279258	0.73749	0.63867	8.19	52.08	-49.14	-0.134	-0.1627	-0.4225	
0.247904	0.72285	0.625128	2.03	56.35	-49.91	-0.1281	-0.1566	-0.4135	
0.221308	0.724802	0.636474	3.71	58.17	-49.49	-0.1177	-0.1737	-0.4195	
0.193248	0.741638	0.63013	0.42	61.18	-50.05	-0.0958	-0.1647	-0.4239	
0.16836	0.752374	0.639402	1.4	61.67	-52.36	-0.0914	-0.171	-0.4254	
0.127612	0.752252	0.645136	0.77	62.51	-53.62	-0.0708	-0.1712	-0.4209	
0.076738	0.753228	0.64477	0.49	64.75	-53.62	-0.0694	-0.1697	-0.4268	
0.03721	0.763476	0.638914	-3.08	66.5	-54.81	-0.0533	-0.1668	-0.4298	
-0.020862	0.793854	0.64294	-6.65	65.8	-58.24	-0.0298	-0.1733	-0.4312	
-0.064782	0.785558	0.646112	-11.27	66.01	-60.97	-0.0049	-0.1658	-0.4192	
-0.09747799	0.730902	0.603046	-16.03	68.6	-63.21	0.0068	-0.1722	-0.4221	
-0.139446	0.725656	0.624274	-15.19	70.56	-66.57	0.0243	-0.1693	-0.4281	
-0.20252	0.709308	0.6283	-14.21	67.2	-70.14	0.0344	-0.1524	-0.4176	
-0.24278	0.698206	0.626592	-15.96	64.4	-73.01	0.0418	-0.1618	-0.428	
-0.281454	0.651114	0.610854	-16.73	62.72	-74.48	0.0506	-0.1557	-0.4175	
-0.310978	0.612074	0.604876	-18.62	64.26	-74.41	0.0709	-0.1405	-0.4249	
-0.371734	0.596336	0.60756	-17.08	61.74	-74.83	0.0872	-0.1484	-0.4145	
-0.40992	0.586332	0.62464	-14.56	51.8	-71.61	0.1016	-0.13	-0.4174	
-0.423218	0.575718	0.63257	-14.7	49.63	-68.67	0.103	-0.127	-0.4174	
-0.438834	0.568032	0.641964	-15.33	48.58	-66.92	0.1088	-0.1209	-0.4189	
-0.4697	0.548024	0.613172	-14.21	47.81	-65.03	0.1307	-0.1119	-0.4128	
-0.493978	0.530456	0.608536	-15.68	45.78	-63.14	0.1291	-0.1026	-0.4143	
-0.496784	0.519354	0.593164	-14.28	41.23	-59.5	0.1395	-0.1089	-0.4128	
-0.508862	0.515816	0.604998	-12.53	38.22	-52.64	0.1554	-0.08899999	-0.4172	
-0.518256	0.51057	0.602436	-14.84	39.2	-47.04	0.1584	-0.0983	-0.4008	
-0.556076	0.497394	0.597922	-19.18	40.39	-41.86	0.1627	-0.0829	-0.4053	
-0.585356	0.47763	0.595726	-15.61	32.76	-37.52	0.1759	-0.0892	-0.4037	
-0.62037	0.465064	0.58987	-18.97	38.29	-37.87	0.1847	-0.0847	-0.4007	
-0.651358	0.46665	0.585844	-18.76	34.23	-36.82	0.1787	-0.0784	-0.3992	
-0.661118	0.454328	0.5917	-17.64	25.62	-35.91	0.1904	-0.0709	-0.3977	
-0.655262	0.449204	0.596458	-16.87	24.08	-33.88	0.1976	-0.057	-0.3947	
-0.656238	0.444568	0.586576	-17.01	24.36	-31.78	0.2021	-0.0694	-0.3962	
-0.674904	0.429928	0.599264	-16.31	21.98	-29.96	0.2036	-0.0679	-0.3947	
-0.68686	0.40992	0.597434	-16.24	19.81	-26.32	0.2167	-0.065	-0.3932	
-0.6832	0.40321	0.59536	-14.56	16.94	-23.52	0.2033	-0.0494	-0.4021	
-0.679174	0.390034	0.59292	-13.37	16.17	-21.07	0.218	-0.0449	-0.3902	
-0.69235	0.386252	0.597068	-12.04	14.07	-18.27	0.2165	-0.0449	-0.3902	
-0.7015	0.387716	0.601338	-10.5	12.74	-14.77	0.2195	-0.0527	-0.3931	
-0.719678	0.371978	0.595116	-10.64	11.13	-11.06	0.2179	-0.0387	-0.3902	
-0.740174	0.361608	0.60085	-9.17	6.72	-6.65	0.228	-0.0296	-0.3946	
-0.74176	0.355142	0.587918	-8.12	6.23	-4.76	0.2208	-0.0357	-0.3916	
-0.73505	0.35868	0.594994	-6.02	2.59	-3.15	0.2194	-0.0388	-0.3931	
-0.732488	0.364292	0.597312	-3.78	0.56	-1.33	0.2235	-0.0187	-0.3931	
-0.72712	0.376858	0.610366	-1.54	-1.4	-0.42	0.228	-0.0219	-0.3916	
-0.737734	0.364658	0.591822	-0.35	-4.48	1.33	0.2222	-0.0342	-0.3901	
-0.736148	0.368928	0.599142	0	-7	3.29	0.2222	-0.0295	-0.3901	
-0.708454	0.361242	0.608048	1.54	-7.84	4.83	0.2164	-0.0325	-0.3887	
-0.688202	0.368684	0.605486	2.59	-10.71	6.23	0.2222	-0.0311	-0.3961	
-0.711138	0.373686	0.605364	2.73	-9.17	7.35	0.2163	-0.0279	-0.3931	
-0.698694	0.364902	0.596092	3.29	-12.53	9.8	0.2148	-0.0279	-0.3946	
-0.684908	0.379176	0.606828	6.44	-14.98	11.06	0.2134	-0.0294	-0.3991	
-0.687226	0.393572	0.621956	7.56	-14.49	11.76	0.2164	-0.0387	-0.4036	
-0.678442	0.392962	0.618662	9.87	-16.38	11.41	0.2076	-0.0355	-0.4006	
-0.653798	0.382226	0.61793	9.66	-17.92	15.05	0.2105	-0.0371	-0.3961	
-0.645136	0.41297	0.65514	12.88	-15.68	19.25	0.2077	-0.0433	-0.3991	
-0.639646	0.416874	0.614514	14.07	-16.24	21.21	0.2032	-0.0386	-0.3991	
-0.6222	0.422608	0.627568	14.84	-18.48	24.64	0.1989	-0.0462	-0.3947	
-0.59109	0.46238	0.687836	17.36	-18.62	26.95	0.205	-0.0633	-0.3962	
-0.582306	0.47092	0.660386	19.67	-17.15	29.19	0.1962	-0.0647	-0.4007	
-0.56364	0.47763	0.65453	18.06	-15.05	31.78	0.1992	-0.0663	-0.3902	
-0.56547	0.467382	0.638304	17.01	-12.32	35.07	0.1889	-0.0724	-0.4067	
-0.51972	0.518988	0.675636	19.88	-11.34	36.4	0.1903	-0.0693	-0.4082	
-0.523258	0.53802	0.626714	20.93	-7.84	37.66	0.1802	-0.0738	-0.3933	
-0.493124	0.522892	0.652456	15.4	-3.99	40.81	0.1788	-0.0846	-0.4022	
-0.53192	0.533994	0.622322	15.4	0.49	41.51	0.1876	-0.0863	-0.4007	
-0.528138	0.572668	0.62708	17.08	-2.03	44.73	0.1862	-0.0909	-0.3977	
-0.508618	0.596092	0.611464	13.09	0.21	46.34	0.1717	-0.1031	-0.4112	
-0.484706	0.618174	0.615612	10.71	2.17	46.76	0.179	-0.1016	-0.4052	
-0.490562	0.608292	0.590968	6.93	3.57	48.02	0.1718	-0.1077	-0.3948	
-0.476166	0.640622	0.629642	11.62	1.19	47.32	0.1704	-0.1139	-0.3978	
-0.473848	0.648308	0.599508	5.25	4.62	46.34	0.1748	-0.1186	-0.3978	
-0.458232	0.670634	0.59963	5.6	1.47	47.25	0.1603	-0.1323	-0.3964	
-0.444324	0.677222	0.61427	5.67	0.77	48.23	0.1661	-0.1293	-0.3963	
-0.436272	0.677466	0.601216	4.41	3.36	48.02	0.1778	-0.1263	-0.4008	
-0.41053	0.657214	0.586942	2.03	3.36	46.97	0.1692	-0.1417	-0.4023	
-0.386862	0.672342	0.613416	6.65	4.06	47.46	0.1618	-0.1338	-0.4008	
-0.396378	0.694546	0.586576	4.97	4.2	48.93	0.1576	-0.1477	-0.3934	
-0.40443	0.709186	0.590846	2.59	4.41	48.58	0.1533	-0.1616	-0.4068	
-0.380152	0.732976	0.596336	2.73	2.03	47.95	0.1649	-0.1493	-0.4053	
-0.378322	0.718946	0.587674	-1.54	1.96	49.07	0.1577	-0.1631	-0.4009	
-0.376736	0.712724	0.582916	-0.56	2.31	47.95	0.162	-0.1539	-0.4009	
-0.373686	0.703696	0.590236	1.05	0.49	49.77	0.1576	-0.1492	-0.4024	
-0.359412	0.732854	0.589382	3.92	-2.66	49.63	0.149	-0.1661	-0.3994	
-0.318908	0.766282	0.57035	1.75	-1.68	49.28	0.1372	-0.1613	-0.395	
-0.307806	0.7625	0.612806	5.25	-7.49	46.55	0.146	-0.1615	-0.4039	
-0.264984	0.757742	0.608048	-0.28	-3.85	46.06	0.1255	-0.1674	-0.398	
-0.251076	0.753472	0.62708	1.33	-4.27	45.01	0.13	-0.1721	-0.398	
-0.229116	0.769332	0.648674	6.65	-5.88	46.34	0.1374	-0.1768	-0.4009	
-0.175924	0.78202	0.64965	4.34	-0.77	47.67	0.1212	-0.1751	-0.392	
-0.146156	0.795806	0.648186	4.83	5.67	46.9	0.1229	-0.189	-0.3861	
-0.120658	0.79971	0.638792	3.92	12.25	46.69	0.1199	-0.1889	-0.3876	
-0.097356	0.802638	0.664412	8.96	17.57	47.32	0.1302	-0.1891	-0.3965	
-0.09076799	0.834724	0.655384	7.63	27.3	47.6	0.1243	-0.1905	-0.401	
-0.066612	0.849242	0.649406	8.89	34.65	46.97	0.1288	-0.1921	-0.3861	
-0.07747	0.837896	0.616222	3.5	45.43	46.83	0.1317	-0.1937	-0.3875	
-0.116022	0.832162	0.606462	7.42	50.82	46.9	0.1245	-0.2044	-0.3816	
-0.098698	0.83204	0.611708	9.8	53.55	45.85	0.126	-0.2075	-0.3816	
-0.09394	0.85888	0.600118	9.38	59.22	45.01	0.132	-0.2153	-0.3816	
-0.115168	0.854976	0.570228	5.95	65.73	44.73	0.1422	-0.2124	-0.3756	
-0.147742	0.844972	0.532042	0.91	71.4	45.08	0.1555	-0.2202	-0.3726	
-0.154818	0.842044	0.535702	2.8	68.95	45.36	0.1584	-0.2187	-0.3681	
-0.144692	0.834602	0.53619	2.52	68.11	44.38	0.1688	-0.225	-0.3591	
-0.160186	0.848632	0.526674	1.96	67.69	43.05	0.1747	-0.2282	-0.3561	
-0.169336	0.860588	0.516304	-0.21	68.6	41.51	0.1732	-0.2251	-0.3442	
-0.19459	0.865468	0.511546	2.52	66.08	39.9	0.1835	-0.2283	-0.3397	
-0.199104	0.85034	0.499346	0.35	66.5	36.82	0.1939	-0.2408	-0.3427	
-0.20679	0.850462	0.485438	-6.79	65.94	36.89	0.191	-0.2438	-0.3427	
-0.225212	0.845582	0.46543	-6.09	64.26	36.54	0.2043	-0.247	-0.3322	
-0.20313	0.849852	0.468846	-5.11	58.94	35.63	0.2117	-0.2502	-0.3218	
-0.223016	0.852048	0.480924	-5.95	59.85	32.27	0.2146	-0.2472	-0.3247	
-0.226554	0.857416	0.451034	-11.34	61.88	29.47	0.2145	-0.2394	-0.3203	
-0.27145	0.868274	0.460794	-10.29	58.38	26.6	0.2205	-0.2488	-0.3143	
-0.288286	0.874252	0.44347	-14.21	57.19	23.59	0.2293	-0.2504	-0.3083	
-0.293044	0.869494	0.434198	-14.98	53.48	22.75	0.2324	-0.2597	-0.3068	
-0.30378	0.88023	0.43676	-11.69	48.09	17.78	0.2308	-0.2504	-0.3098	
-0.308294	0.84546	0.447374	-16.87	43.61	15.19	0.2439	-0.2475	-0.3083	
-0.29768	0.848632	0.45262	-15.54	40.39	14.07	0.2441	-0.2583	-0.3038	
-0.299388	0.831186	0.426268	-12.67	33.46	10.92	0.2438	-0.2382	-0.3038	
-0.288164	0.80825	0.463722	-14.42	28.56	9.45	0.247	-0.2583	-0.2933	
-0.28853	0.836432	0.465552	-13.51	28.21	8.82	0.2498	-0.246	-0.2963	
-0.296582	0.822768	0.437492	-12.53	24.85	7.98	0.2542	-0.2461	-0.2903	
-0.300486	0.806298	0.5063	-13.37	21.42	5.39	0.2453	-0.2336	-0.2918	
-0.312076	0.807518	0.474336	-16.73	24.5	4.83	0.2599	-0.2353	-0.2978	
-0.298168	0.808006	0.460306	-11.48	18.06	6.02	0.2527	-0.2429	-0.2859	
-0.290238	0.812642	0.484828	-12.39	14.14	4.83	0.26	-0.2415	-0.2963	
-0.305854	0.820328	0.487512	-13.3	12.39	2.87	0.269	-0.2524	-0.2933	
-0.289018	0.807152	0.466894	-10.57	8.75	0.84	0.2644	-0.2415	-0.2888	
-0.304268	0.8174	0.490684	-7.91	3.64	-0.63	0.2704	-0.2509	-0.2948	
-0.306098	0.813008	0.485072	-7.98	1.47	-2.1	0.26	-0.2415	-0.2948	
-0.302804	0.816424	0.49349	-4.27	-2.66	-4.41	0.2673	-0.2354	-0.2858	
-0.323056	0.811056	0.497028	-2.1	-5.67	-8.82	0.2747	-0.2386	-0.2843	
-0.338916	0.812886	0.493246	-1.54	-9.38	-12.04	0.2673	-0.2385	-0.2918	
-0.33306	0.798856	0.4819	-1.96	-15.47	-13.79	0.2613	-0.2276	-0.2933	
-0.363438	0.796416	0.467138	5.67	-20.58	-18.06	0.2569	-0.2307	-0.3037	
-0.373442	0.7991	0.455548	8.82	-27.72	-18.9	0.2628	-0.2276	-0.2978	
-0.371978	0.819962	0.44957	17.29	-35.35	-23.17	0.2643	-0.2276	-0.2918	
-0.397598	0.82594	0.430782	19.25	-41.72	-26.53	0.2452	-0.2336	-0.3157	
-0.418704	0.82655	0.436882	21.35	-48.02	-29.75	0.251	-0.2213	-0.3023	
-0.390522	0.812642	0.455548	21.07	-55.3	-28	0.251	-0.226	-0.3097	
-0.44652	0.84851	0.452742	22.89	-60.13	-26.88	0.251	-0.226	-0.3172	
-0.34892	0.81496	0.421876	32.69	-67.13	-25.27	0.248	-0.2213	-0.3127	
-0.389912	0.824354	0.399428	21.14	-68.46	-27.09	0.2365	-0.2397	-0.3202	
-0.389058	0.832406	0.397598	30.31	-77.63	-29.75	0.2247	-0.2318	-0.3262	
-0.330864	0.83875	0.418338	29.19	-84.14	-33.39	0.2174	-0.2364	-0.3322	
-0.30073	0.856806	0.434686	40.18	-95.2	-35.14	0.213	-0.2394	-0.3337	
-0.234606	0.859978	0.43554	43.47	-101.64	-36.05	0.2042	-0.2424	-0.3397	
-0.25376	0.87596	0.419558	42.56	-105.56	-35.7	0.1911	-0.2469	-0.3352	
-0.307806	0.917928	0.445788	50.26	-113.68	-33.67	0.191	-0.2438	-0.3457	
-0.246562	0.924394	0.423706	39.2	-112.7	-34.65	0.169	-0.242	-0.3442	
-0.200568	0.905118	0.389302	29.4	-110.39	-39.06	0.1456	-0.251	-0.3577	
-0.16775	0.895236	0.386618	32.13	-114.24	-44.1	0.1472	-0.2603	-0.3548	
-0.14579	0.91927	0.407358	35.91	-119.7	-47.53	0.1413	-0.2571	-0.3592	
-0.155062	0.897432	0.357216	23.17	-115.85	-47.25	0.1237	-0.2569	-0.3578	
-0.140666	0.929152	0.354776	28.7	-120.47	-46.9	0.1164	-0.2615	-0.3698	
-0.153964	0.95648	0.358314	31.92	-125.16	-49.63	0.1033	-0.2675	-0.3698	
-0.146522	0.984662	0.371368	39.62	-133.56	-51.94	0.0843	-0.2719	-0.3698	
-0.126148	0.992226	0.39467	36.33	-129.01	-53.76	0.0725	-0.2702	-0.3624	
-0.117364	0.976366	0.368196	29.12	-129.57	-56.14	0.0608	-0.2747	-0.3744	
-0.09699	0.976488	0.362462	28	-134.19	-60.2	0.0358	-0.2651	-0.3744	
-0.077226	0.980758	0.35807	33.18	-134.89	-66.29	0.0418	-0.2745	-0.3595	
-0.08357	0.961848	0.350506	27.02	-133.63	-65.03	0.0229	-0.2851	-0.3641	
-0.059048	0.97905	0.37454	35.91	-140.98	-65.52	0.0126	-0.2865	-0.3641	
-0.06734399	0.981002	0.368196	35.14	-135.87	-67.27	-0.0048	-0.2924	-0.3671	
-0.046848	0.962946	0.36417	26.18	-134.89	-63.56	-0.0135	-0.3032	-0.3627	
-0.033062	0.964044	0.376614	35	-140.7	-69.3	-0.0384	-0.2982	-0.3448	
0.011468	0.931592	0.381128	34.79	-134.68	-67.06	-0.0471	-0.3105	-0.3493	
0.027572	0.940498	0.383812	33.39	-126.91	-65.73	-0.0588	-0.3119	-0.3449	
0.005124	0.94001	0.395402	35.49	-120.19	-64.05	-0.066	-0.3195	-0.339	
0.065514	0.875228	0.40443	29.82	-109.97	-59.5	-0.0791	-0.3255	-0.333	
-0.022448	0.90951	0.409188	23.66	-118.58	-52.22	-0.0718	-0.321	-0.3375	
0.041236	0.936472	0.398452	24.43	-112.77	-50.96	-0.0922	-0.3331	-0.3226	
0.01098	0.927078	0.421754	20.16	-106.26	-49.35	-0.0891	-0.3454	-0.3167	
-0.007076	0.923906	0.448472	18.2	-101.64	-44.1	-0.1008	-0.3422	-0.3107	
0.030622	0.926102	0.472018	13.93	-94.36	-38.92	-0.1126	-0.3359	-0.3048	
0.041114	0.908168	0.468724	12.6	-84.21	-38.99	-0.1154	-0.3451	-0.2988	
0.01464	0.918904	0.463966	12.39	-74.06	-37.24	-0.1125	-0.3452	-0.3093	
0.009881999	0.894016	0.44591	8.75	-64.96	-33.67	-0.1227	-0.3527	-0.2959	
-0.00427	0.879742	0.463844	6.23	-53.55	-30.03	-0.1227	-0.3466	-0.2974	
-0.004148	0.861564	0.457256	0.28	-45.43	-22.89	-0.1315	-0.3542	-0.2959	
-0.05002	0.860344	0.45994	0.35	-36.89	-16.8	-0.133	-0.3495	-0.2974	
-0.042334	0.849242	0.483608	-1.75	-31.5	-12.25	-0.1329	-0.3526	-0.2989	
-0.039894	0.840702	0.48495	-2.87	-22.82	-7.07	-0.1313	-0.3619	-0.2825	
-0.054168	0.857904	0.49288	-3.36	-15.68	-0.7	-0.1387	-0.3618	-0.2855	
-0.065636	0.873398	0.485682	-3.71	-10.29	4.34	-0.1285	-0.3573	-0.2929	
-0.05185	0.845948	0.493734	-3.85	-5.6	8.82	-0.1418	-0.3479	-0.2855	
-0.044164	0.85217	0.506788	-3.99	0.84	12.39	-0.1462	-0.3478	-0.287	
-0.037698	0.880352	0.486658	-3.15	7.14	16.03	-0.1343	-0.3603	-0.2929	
-0.037698	0.890722	0.477996	-6.37	12.88	20.16	-0.1387	-0.3572	-0.2959	
-0.016592	0.886208	0.496052	-8.05	19.46	23.52	-0.1417	-0.3541	-0.2915	
0.004758	0.900848	0.49776	-6.86	27.72	24.43	-0.1447	-0.3525	-0.2944	
0.00854	0.897798	0.508374	-6.44	34.37	24.64	-0.1462	-0.3447	-0.2989	
0.029036	0.902556	0.512644	-3.5	42.56	25.13	-0.1388	-0.3495	-0.2944	
0.058804	0.908534	0.510692	-4.48	51.24	27.44	-0.1418	-0.3448	-0.2974	
0.05734	0.940864	0.47824	-3.57	59.92	28.14	-0.1376	-0.334	-0.3048	
0.053314	0.934764	0.457134	-6.65	63.49	32.13	-0.1389	-0.3417	-0.2974	
0.023302	0.908656	0.479338	-10.15	76.72	34.16	-0.1199	-0.3466	-0.3138	
0.025376	0.907192	0.479338	-12.95	82.95	36.75	-0.123	-0.3327	-0.3153	
0.050142	0.889502	0.483852	-10.92	87.43	38.29	-0.1113	-0.3282	-0.3167	
0.066856	0.898164	0.4575	-10.15	99.12	37.38	-0.1053	-0.3391	-0.3227	
0.054656	0.943914	0.390644	-13.72	104.86	39.41	-0.1026	-0.3237	-0.3271	
0.003294	0.929274	0.408334	-17.64	107.17	41.72	-0.0967	-0.3268	-0.3361	
0.00549	0.89243	0.426634	-21.91	112.77	44.17	-0.0865	-0.3177	-0.336	
0.024278	0.918416	0.433832	-18.76	115.64	43.54	-0.0674	-0.3256	-0.3345	
0.027328	0.930738	0.430294	-21.7	124.32	43.33	-0.0632	-0.3103	-0.3434	
0.028182	0.945866	0.398452	-21.56	126.21	45.85	-0.0469	-0.3213	-0.3508	
0.007076	0.944158	0.359046	-27.79	129.43	48.23	-0.0382	-0.3121	-0.3478	
-0.04758	0.940864	0.351238	-28.42	130.34	49.91	-0.0223	-0.2999	-0.3537	
-0.097844	0.923296	0.358192	-35.63	134.82	51.59	-0.0107	-0.2893	-0.3582	
-0.122976	0.939522	0.377468	-33.81	131.81	52.29	-0.0005	-0.2817	-0.3641	
-0.113216	0.938058	0.407602	-34.86	128.94	54.18	-0.002	-0.2832	-0.3626	
-0.09076799	0.927566	0.400892	-31.64	125.93	55.16	0.0184	-0.2819	-0.3626	
-0.137006	0.943914	0.358192	-34.3	126.28	55.86	0.0331	-0.2821	-0.3715	
-0.158966	0.928542	0.361608	-34.93	125.72	54.6	0.0417	-0.2683	-0.364	
-0.15799	0.919636	0.387106	-32.34	122.5	55.16	0.0521	-0.2761	-0.367	
-0.150792	0.915366	0.382714	-33.95	119.98	55.93	0.0843	-0.2734	-0.3728	
-0.172142	0.923662	0.37088	-32.48	115.85	56.07	0.08419999	-0.2673	-0.3639	
-0.199348	0.907436	0.375272	-36.4	114.45	59.01	0.0872	-0.2688	-0.3698	
-0.168848	0.891576	0.394304	-34.51	107.24	61.74	0.1105	-0.2599	-0.3623	
-0.212036	0.903654	0.415654	-38.5	108.36	61.53	0.1105	-0.2537	-0.3653	
-0.223504	0.900482	0.405894	-31.64	103.18	61.04	0.1222	-0.2569	-0.3682	
-0.227408	0.91134	0.416386	-30.45	99.12	61.46	0.131	-0.2555	-0.3667	
-0.215818	0.878522	0.444568	-25.76	93.87	61.67	0.1354	-0.254	-0.3637	
-0.19886	0.863272	0.472628	-21.84	92.54	56.84	0.1382	-0.2416	-0.3533	
-0.183976	0.891942	0.445666	-20.86	97.02	51.38	0.1398	-0.2556	-0.3488	
-0.22143	0.886818	0.407236	-28.14	96.46	51.59	0.1544	-0.2496	-0.3532	
-0.22631	0.862662	0.4331	-23.8	87.5	51.94	0.1692	-0.2544	-0.3428	
-0.218624	0.83387	0.450912	-26.32	84.63	49.14	0.1735	-0.2467	-0.3398	
-0.189588	0.859612	0.436882	-18.41	79.24	44.66	0.1898	-0.2608	-0.3308	
-0.269132	0.888404	0.421022	-19.11	74.55	40.6	0.2	-0.2532	-0.3322	
-0.27694	0.89731	0.422242	-20.23	66.99	39.34	0.2045	-0.2656	-0.3233	
-0.27572	0.906704	0.43981	-16.52	60.34	36.75	0.2045	-0.2625	-0.3158	
-0.27755	0.901702	0.442494	-18.27	56.63	32.83	0.2	-0.2563	-0.3263	
-0.275842	0.881206	0.445422	-19.25	51.94	28.49	0.2073	-0.2455	-0.3143	
-0.277794	0.854488	0.45323	-22.54	47.67	25.97	0.2221	-0.2565	-0.3068	
-0.289506	0.85705	0.454328	-17.22	39.76	23.59	0.2161	-0.2503	-0.3068	
-0.25986	0.838994	0.455792	-14.28	33.88	21.56	0.2176	-0.2549	-0.3158	
-0.266326	0.826428	0.474946	-10.5	28	18.97	0.2206	-0.2611	-0.3098	
-0.262544	0.833504	0.474702	-9.1	22.82	16.73	0.2176	-0.2565	-0.3128	
-0.252418	0.84363	0.482144	-6.65	18.83	14	0.2177	-0.258	-0.3128	
-0.247172	0.838018	0.469212	-8.89	16.45	10.64	0.2264	-0.2566	-0.3173	
-0.238998	0.851926	0.473726	-2.73	10.15	6.58	0.2264	-0.255	-0.3053	
-0.239974	0.85644	0.47275	-4.27	7.35	3.43	0.225	-0.2565	-0.3038	
-0.226066	0.865956	0.482632	-4.13	1.89	-1.05	0.2294	-0.2612	-0.3128	
-0.194956	0.864004	0.487146	-0.49	0	-6.72	0.2207	-0.2642	-0.3039	
-0.201422	0.844362	0.491904	0.14	-2.87	-9.66	0.228	-0.2643	-0.3083	
-0.20069	0.843386	0.486292	1.05	-6.23	-11.48	0.2308	-0.2504	-0.3038	
-0.209718	0.846192	0.500566	4.97	-10.36	-13.3	0.2279	-0.2581	-0.3068	
-0.22509	0.848876	0.50325	8.75	-14.07	-16.24	0.2322	-0.2474	-0.3083	
-0.21655	0.865346	0.496174	11.83	-16.03	-19.81	0.2235	-0.255	-0.3098	
-0.250832	0.869738	0.47153	15.68	-19.04	-25.27	0.2264	-0.2535	-0.3143	
-0.283528	0.882548	0.45079	18.97	-23.38	-30.31	0.2294	-0.2566	-0.3053	
-0.300852	0.884378	0.432734	22.75	-29.82	-35.07	0.2308	-0.2535	-0.3128	
-0.325496	0.886574	0.424438	23.66	-35.42	-41.72	0.2249	-0.2504	-0.3113	
-0.35075	0.87535	0.408334	23.59	-40.18	-48.02	0.2161	-0.2533	-0.3143	
-0.380396	0.856806	0.40565	14.35	-51.38	-39.62	0.2248	-0.2473	-0.3232	
-0.372466	0.88267	0.414312	22.82	-60.06	-41.23	0.2234	-0.2519	-0.3158	
-0.309392	0.872544	0.399062	23.59	-63.84	-45.85	0.2219	-0.2457	-0.3202	
-0.348066	0.86437	0.38369	22.75	-68.6	-48.79	0.2131	-0.2487	-0.3233	
-0.350872	0.87779	0.36783	35.7	-85.12	-52.5	0.2087	-0.2502	-0.3307	
-0.350262	0.873398	0.372588	36.26	-94.85	-53.9	0.2014	-0.2501	-0.3263	
-0.282552	0.858148	0.392474	34.3	-103.04	-53.76	0.1911	-0.2454	-0.3412	
-0.23668	0.870592	0.384666	35.21	-107.1	-54.81	0.1822	-0.2437	-0.3382	
-0.251686	0.87108	0.349896	35.84	-111.23	-54.39	0.1691	-0.2497	-0.3517	
-0.253028	0.876082	0.375516	40.46	-122.01	-52.08	0.1631	-0.2404	-0.3458	
-0.247172	0.880718	0.380518	37.66	-127.75	-49.49	0.1559	-0.2527	-0.3532	
-0.196908	0.876692	0.38857	40.04	-131.53	-50.4	0.1311	-0.2586	-0.3608	
-0.172142	0.900116	0.4026	41.3	-132.93	-51.17	0.1266	-0.2554	-0.3533	
-0.191174	0.907558	0.361974	39.2	-134.61	-51.8	0.112	-0.2614	-0.3638	
-0.177022	0.933178	0.36844	42.84	-139.02	-50.61	0.09739999	-0.2659	-0.3594	
-0.143228	0.928054	0.369538	40.18	-140.56	-48.79	0.0756	-0.2795	-0.3669	
-0.13176	0.941718	0.385886	37.87	-138.67	-49.91	0.0653	-0.2794	-0.3624	
-0.1281	0.967826	0.379054	39.83	-137.9	-52.99	0.0521	-0.2777	-0.3655	
-0.101016	0.9577	0.35929	35.91	-135.52	-54.67	0.039	-0.2868	-0.3655	
-0.066856	0.965874	0.3599	32.69	-135.8	-56.91	0.02	-0.2866	-0.3596	
-0.066368	0.966362	0.380152	35.77	-134.05	-59.36	0.017	-0.2865	-0.3641	
-0.058438	0.938058	0.381006	30.52	-128.31	-57.26	0.0068	-0.2926	-0.3581	
-0.018056	0.932812	0.388326	34.86	-128.94	-56.63	-0.0062	-0.3017	-0.3671	
-0.02074	0.947818	0.405162	31.5	-127.47	-56.07	-0.0282	-0.2968	-0.3552	
-0.043432	0.934154	0.404064	35.14	-122.92	-57.4	-0.0251	-0.3107	-0.3508	
-0.024034	0.947086	0.411384	37.73	-119.07	-57.96	-0.0382	-0.3121	-0.3463	
-0.029524	0.927566	0.417728	29.82	-116.34	-55.02	-0.0573	-0.3072	-0.3419	
-0.00671	0.92781	0.437858	33.67	-112.63	-53.06	-0.0557	-0.3211	-0.33	
-0.00488	0.920978	0.426512	29.47	-104.3	-50.61	-0.0689	-0.3194	-0.3255	
-0.013054	0.9211	0.428464	29.54	-98.14	-46.83	-0.07319999	-0.3256	-0.3241	
-0.013054	0.93513	0.410774	24.64	-92.82	-41.93	-0.0803	-0.3456	-0.3226	
-0.032086	0.939888	0.41175	21.35	-86.73	-38.92	-0.0905	-0.347	-0.3137	
-0.03538	0.93086	0.414922	15.26	-81.13	-35.21	-0.0994	-0.3391	-0.3092	
-0.00915	0.91012	0.449082	12.88	-76.44	-32.97	-0.09779999	-0.3484	-0.3063	
-0.002318	0.912438	0.454572	10.15	-64.75	-28.14	-0.1051	-0.3514	-0.2929	
-0.019154	0.912194	0.455548	7.56	-56.84	-24.36	-0.1095	-0.3529	-0.2929	
-0.000854	0.907192	0.467748	6.86	-49.84	-21	-0.1109	-0.3591	-0.2959	
-0.042456	0.906216	0.459696	3.36	-40.46	-18.83	-0.1123	-0.3575	-0.2914	
-0.038918	0.888648	0.459696	0.35	-33.81	-16.31	-0.1137	-0.3668	-0.2914	
-0.053436	0.886818	0.460184	-0.7	-25.41	-13.72	-0.1211	-0.3651	-0.2914	
-0.085888	0.88206	0.459086	-3.43	-18.69	-10.99	-0.1255	-0.362	-0.2884	
-0.076006	0.865834	0.43798	-4.9	-12.88	-6.44	-0.1211	-0.3605	-0.2929	
-0.102358	0.85034	0.443226	-4.62	-8.26	-2.38	-0.1196	-0.3621	-0.2989	
-0.085278	0.834236	0.470554	-3.43	-3.29	1.54	-0.1211	-0.3574	-0.2899	
-0.0915	0.854122	0.456524	-4.41	2.8	5.39	-0.1211	-0.3651	-0.2959	
-0.096136	0.879986	0.451278	0.14	4.83	8.05	-0.1255	-0.362	-0.2899	
-0.094306	0.886452	0.442006	-1.33	9.38	11.55	-0.1241	-0.3558	-0.2884	
-0.089914	0.88938	0.449448	-3.85	14	15.26	-0.1197	-0.359	-0.2944	
-0.060146	0.880718	0.468114	-5.88	18.9	18.76	-0.1182	-0.3543	-0.2929	
-0.047336	0.891332	0.471774	-2.8	27.02	18.9	-0.1197	-0.3512	-0.2884	
-0.021838	0.906582	0.462868	-1.75	36.19	25.34	-0.1153	-0.359	-0.2929	
-0.01037	0.919514	0.471042	-0.28	43.05	26.46	-0.1256	-0.3496	-0.2974	
0.014518	0.915366	0.481534	-2.66	51.87	30.03	-0.1169	-0.3482	-0.2974	
0.034404	0.924882	0.466772	-2.52	61.81	31.15	-0.1184	-0.3435	-0.2988	
0.030622	0.946476	0.440176	-3.85	72.66	32.34	-0.1139	-0.3529	-0.3093	
0.037942	0.947452	0.43859	-6.86	79.31	37.38	-0.0979	-0.3438	-0.3122	
0.032818	0.959774	0.426146	-9.45	86.38	40.39	-0.1023	-0.3406	-0.3048	
0.014762	0.955016	0.41419	-14.07	93.31	43.89	-0.0935	-0.3438	-0.3092	
0.015372	0.926224	0.405162	-15.61	97.58	46.62	-0.095	-0.3407	-0.3122	
0.031842	0.933788	0.389668	-15.89	106.61	46.83	-0.0862	-0.3393	-0.3226	
0.024278	0.951722	0.367708	-19.67	114.24	47.25	-0.0805	-0.3332	-0.3256	
0.006588	0.96197	0.379664	-20.37	117.04	48.93	-0.0674	-0.3226	-0.3315	
-0.00488	0.96136	0.381006	-21.91	121.17	52.57	-0.0527	-0.3243	-0.3345	
0.012444	0.959652	0.382714	-23.94	123.69	56.21	-0.0513	-0.3228	-0.3344	
0.008905999	0.97844	0.361486	-23.59	126.98	54.53	-0.0396	-0.3167	-0.3404	
-0.007442	0.990518	0.355386	-25.76	128.45	54.74	-0.0397	-0.3105	-0.3419	
-0.007808	0.995398	0.33306	-32.97	134.12	56.49	-0.0045	-0.3125	-0.3492	
-0.057096	1.010526	0.328424	-30.66	134.82	54.46	-0.003	-0.3141	-0.3477	
-0.08601	0.985882	0.34221	-37.31	135.45	56.42	0.0099	-0.3019	-0.3671	
-0.072468	0.96563	0.354532	-38.5	129.22	58.24	0.026	-0.3005	-0.3447	
-0.064172	0.963068	0.352824	-39.55	133.14	57.19	0.0421	-0.2961	-0.364	
-0.076616	0.968924	0.349652	-41.51	136.64	56.63	0.0523	-0.2885	-0.3535	
-0.095404	0.95343	0.355874	-42.28	136.01	56	0.0727	-0.2826	-0.355	
-0.130418	0.943182	0.342942	-43.47	133	58.31	0.0756	-0.2795	-0.3609	
-0.15433	0.93269	0.32879	-43.75	126.28	61.04	0.0814	-0.2749	-0.3594	
-0.187026	0.914512	0.350018	-41.86	121.38	59.43	0.096	-0.2751	-0.3668	
-0.196786	0.91439	0.366732	-40.11	116.76	61.11	0.1092	-0.2706	-0.3549	
-0.177754	0.8906	0.38735	-39.2	113.89	61.25	0.1195	-0.2692	-0.3548	
-0.218624	0.883524	0.404064	-42.49	110.53	60.62	0.1312	-0.2663	-0.3548	
-0.183732	0.865468	0.40504	-31.43	104.16	61.74	0.1414	-0.2602	-0.3533	
-0.197518	0.871568	0.441152	-24.64	98.84	62.65	0.1413	-0.254	-0.3473	
-0.219112	0.862052	0.429928	-25.55	98	60.41	0.1545	-0.2588	-0.3473	
-0.199226	0.85888	0.434564	-27.58	93.87	56.7	0.1634	-0.262	-0.3398	
-0.20679	0.882182	0.442982	-17.71	87.71	51.59	0.162	-0.2713	-0.3383	
-0.23302	0.880108	0.42761	-23.73	85.96	50.47	0.1765	-0.2544	-0.3323	
-0.25925	0.86315	0.419924	-28.63	81.83	48.51	0.1825	-0.2638	-0.3293	
-0.273036	0.880108	0.433222	-20.16	71.54	44.52	0.1972	-0.2639	-0.3293	
-0.285358	0.884866	0.407846	-20.3	68.74	37.59	0.1957	-0.2639	-0.3218	
-0.31537	0.888282	0.410774	-20.09	60.2	30.45	0.1957	-0.2593	-0.3248	
-0.355264	0.871324	0.426024	-20.79	51.03	26.39	0.203	-0.2625	-0.3263	
-0.3172	0.856928	0.45872	-14.14	38.85	24.08	0.2017	-0.2717	-0.3188	
-0.265472	0.842776	0.464332	-15.47	35.14	21	0.1985	-0.2531	-0.3188	
-0.237168	0.83936	0.45079	-10.36	28.28	16.38	0.2074	-0.2594	-0.3248	
-0.265106	0.842654	0.454084	-13.58	22.54	13.65	0.2103	-0.2564	-0.3218	
-0.239852	0.856806	0.466284	-7.7	15.05	10.71	0.2075	-0.2641	-0.3158	
-0.228018	0.842044	0.4758	-10.5	9.73	8.26	0.2192	-0.2596	-0.3083	
-0.190808	0.83143	0.4697	-10.43	5.81	6.93	0.2118	-0.2579	-0.3143	
-0.191906	0.838018	0.485926	-6.93	-1.33	6.09	0.2192	-0.2657	-0.3188	
-0.166286	0.84241	0.498736	-3.01	-6.51	4.2	0.2205	-0.2503	-0.3217	
-0.15311	0.862296	0.513498	0.42	-9.73	1.19	0.2103	-0.2595	-0.3248	
-0.1647	0.878034	0.50752	1.19	-10.43	-2.59	0.2103	-0.2595	-0.3173	
-0.169458	0.86437	0.521306	2.87	-10.78	-6.58	0.2102	-0.2517	-0.3218	
-0.167262	0.85034	0.524234	6.09	-11.9	-10.15	0.2074	-0.2594	-0.3084	
-0.164212	0.843508	0.520452	9.17	-14.63	-13.3	0.2147	-0.2533	-0.3203	
-0.18422	0.851194	0.49471	10.5	-16.1	-16.45	0.2029	-0.2517	-0.3322	
-0.208986	0.875838	0.477508	15.75	-19.67	-21.35	0.2147	-0.258	-0.3173	
-0.247172	0.869982	0.478728	17.22	-23.59	-27.23	0.2074	-0.261	-0.3188	
-0.273646	0.86986	0.45628	13.02	-29.61	-31.08	0.2058	-0.2486	-0.3233	
-0.277428	0.870226	0.437126	14.98	-35.98	-36.68	0.206	-0.2625	-0.3203	
-0.308416	0.867786	0.405284	16.17	-42.14	-43.19	0.2	-0.2563	-0.3203	
-0.419924	0.885964	0.399062	20.23	-48.23	-49.98	0.2029	-0.2532	-0.3322	
-0.35685	0.86681	0.40016	20.09	-61.32	-41.37	0.197	-0.2485	-0.3263	
-0.294508	0.862784	0.407968	20.37	-68.32	-43.61	0.1983	-0.2408	-0.3367	
-0.305732	0.871568	0.373076	26.32	-79.73	-51.03	0.1896	-0.2484	-0.3352	
-0.30561	0.866932	0.369416	30.59	-90.16	-53.27	0.1882	-0.2515	-0.3353	
-0.271084	0.889136	0.365268	42	-101.92	-54.11	0.1764	-0.2498	-0.3413	
-0.204838	0.909266	0.360754	45.22	-111.3	-56	0.1735	-0.2529	-0.3428	
-0.174582	0.923784	0.371856	43.47	-117.74	-57.75	0.1517	-0.2696	-0.3458	
-0.15677	0.932446	0.415288	48.51	-123.48	-57.54	0.153	-0.2495	-0.3488	
-0.132492	0.926468	0.402112	47.46	-123.48	-55.93	0.1443	-0.2649	-0.3533	
-0.134566	0.925736	0.381616	44.66	-125.37	-53.76	0.1224	-0.2662	-0.3533	
-0.153232	0.910852	0.374174	43.68	-126.91	-52.01	0.1165	-0.2692	-0.3578	
-0.125416	0.944402	0.37027	47.32	-129.92	-52.57	0.1019	-0.2736	-0.3534	
-0.11163	0.974536	0.369416	48.23	-130.55	-54.04	0.0902	-0.2735	-0.3549	
-0.110044	0.981246	0.34892	39.9	-129.43	-52.85	0.0727	-0.2841	-0.3535	
-0.103822	0.961726	0.360388	38.78	-131.6	-53.55	0.0655	-0.2886	-0.3535	
-0.09089	0.953552	0.356362	31.29	-128.87	-52.99	0.0434	-0.2822	-0.3536	
-0.085156	0.972218	0.346846	31.99	-128.38	-54.74	0.0421	-0.2992	-0.3521	
-0.068808	0.938302	0.329522	25.48	-123.06	-57.54	0.0202	-0.3066	-0.3507	
-0.068808	0.944768	0.349164	29.61	-125.16	-57.33	0.007	-0.308	-0.3522	
-0.09552599	0.952088	0.350018	29.82	-122.99	-60.76	0.0011	-0.3064	-0.3597	
-0.074054	0.948916	0.361364	31.43	-127.54	-59.78	-0.0163	-0.3093	-0.3433	
-0.033306	0.970388	0.373564	38.57	-131.11	-60.76	-0.0192	-0.3108	-0.3418	
-0.046116	0.973194	0.369904	35.42	-128.24	-59.64	-0.0336	-0.3276	-0.3374	
-0.041724	0.964654	0.368074	36.54	-127.47	-58.45	-0.0337	-0.3261	-0.3344	
-0.02684	0.983686	0.38552	36.75	-125.16	-56.98	-0.0483	-0.3305	-0.3359	
-0.023912	0.970998	0.37515	31.29	-118.79	-56.7	-0.054	-0.3382	-0.3285	
-0.029524	0.96502	0.389912	30.17	-114.1	-55.16	-0.0584	-0.3396	-0.3196	
-0.0122	0.96014	0.396866	29.54	-107.73	-55.02	-0.0744	-0.3441	-0.3151	
-0.033306	0.93696	0.39894	23.8	-99.75	-52.36	-0.0743	-0.3549	-0.3107	
-0.001708	0.925614	0.410286	24.92	-96.53	-47.53	-0.083	-0.3579	-0.3017	
-0.030744	0.920002	0.40138	21.21	-85.89	-45.36	-0.0786	-0.3656	-0.3003	
-0.01769	0.951234	0.410164	21.91	-80.99	-42.28	-0.0888	-0.364	-0.2943	
-0.029036	0.93147	0.410286	15.26	-73.92	-36.75	-0.0903	-0.367	-0.2988	
-0.051484	0.912804	0.41175	11.69	-65.24	-30.66	-0.0918	-0.3593	-0.2928	
-0.02257	0.91317	0.437004	7.49	-57.68	-27.23	-0.1122	-0.3683	-0.2854	
-0.047702	0.915244	0.425048	2.8	-48.37	-25.34	-0.0975	-0.3716	-0.2854	
-0.047824	0.90524	0.419924	2.8	-40.46	-21.56	-0.1005	-0.3638	-0.2869	
-0.068442	0.881938	0.412726	-0.56	-33.39	-18.06	-0.1093	-0.3683	-0.2884	
-0.08967	0.889624	0.436394	0.98	-27.79	-14.98	-0.1077	-0.3776	-0.2824	
-0.099674	0.869006	0.418948	-3.78	-17.99	-12.18	-0.1152	-0.3574	-0.278	
-0.118828	0.875838	0.435784	-4.2	-12.81	-8.19	-0.1078	-0.3699	-0.278	
-0.11712	0.903044	0.411018	-3.5	-6.65	-5.81	-0.1121	-0.3729	-0.278	
-0.123708	0.867054	0.40931	-4.27	-3.29	-2.31	-0.112	-0.3807	-0.275	
-0.12627	0.892186	0.412238	-3.29	2.52	2.24	-0.1048	-0.3715	-0.2794	
-0.112484	0.882548	0.395036	-3.29	5.88	6.37	-0.0975	-0.3685	-0.2705	
-0.119804	0.910364	0.39162	-2.66	9.52	10.78	-0.1033	-0.3761	-0.2809	
-0.132004	0.931348	0.381128	-3.08	13.23	14	-0.1064	-0.3591	-0.2839	
-0.132736	0.934154	0.37271	-4.41	16.17	15.33	-0.1107	-0.3714	-0.2795	
-0.137128	0.907802	0.392474	-8.47	20.02	17.57	-0.1151	-0.3714	-0.2825	
-0.140422	0.918538	0.379298	-9.52	21.98	19.6	-0.1166	-0.3667	-0.2869	
-0.14457	0.920978	0.368562	-7.7	22.82	19.53	-0.1005	-0.3669	-0.275	
-0.144936	0.927566	0.38064	-7.77	24.64	19.32	-0.1108	-0.3621	-0.2824	
-0.135298	0.921222	0.390766	-7.21	25.55	19.18	-0.1152	-0.3606	-0.2929	
-0.108824	0.91134	0.40016	-7	27.72	19.53	-0.1065	-0.356	-0.2899	
-0.08479	0.911462	0.415776	-5.74	31.99	18.34	-0.1006	-0.3576	-0.2928	
-0.061976	0.917562	0.424194	-3.43	39.34	19.32	-0.1182	-0.3559	-0.2989	
-0.064538	0.948062	0.393206	-2.45	43.26	22.89	-0.102	-0.3623	-0.2973	
-0.033794	0.8967	0.413946	-7	47.25	27.86	-0.1036	-0.3545	-0.3003	
-0.004758	0.905606	0.434442	-6.58	56.14	29.82	-0.0991	-0.3623	-0.3018	
-0.011956	0.931592	0.415776	-6.37	66.85	31.36	-0.09779999	-0.3546	-0.3063	
-0.02135	0.958188	0.379786	-9.66	71.4	35.56	-0.0876	-0.3455	-0.3077	
-0.041236	0.94123	0.367342	-18.06	75.04	42	-0.0949	-0.3469	-0.3107	
-0.052338	0.936228	0.368806	-20.44	70.98	46.48	-0.0876	-0.3455	-0.3196	
-0.038552	0.893528	0.4087	-21.28	73.29	47.95	-0.0832	-0.3455	-0.3167	
-0.019154	0.929762	0.38979	-15.75	81.62	45.92	-0.0804	-0.3332	-0.3211	
-0.009638	0.928908	0.40016	-20.16	84.14	49.77	-0.08329999	-0.3409	-0.3286	
0.010126	0.908412	0.411384	-21.21	85.19	53.62	-0.07319999	-0.3317	-0.3285	
0.037332	0.901702	0.390156	-25.13	90.02	59.92	-0.0718	-0.3225	-0.3256	
0.011712	0.96319	0.302804	-20.37	90.58	58.73	-0.063	-0.3272	-0.3404	
-0.083936	0.967582	0.309148	-25.69	94.64	56.14	-0.0615	-0.3288	-0.339	
-0.100894	0.891576	0.40077	-28.28	91.84	57.19	-0.0602	-0.3118	-0.3449	
-0.020252	0.910364	0.43005	-25.97	86.94	55.16	-0.0455	-0.3136	-0.3434	
0.02074	0.938302	0.414678	-21.21	90.79	51.45	-0.0413	-0.2982	-0.3478	
-0.004636	0.945256	0.358192	-25.83	96.95	55.09	-0.0443	-0.2997	-0.3583	
-0.081008	0.955626	0.299998	-28.21	91.7	59.78	-0.0254	-0.2891	-0.3657	
-0.11224	0.868274	0.383812	-34.72	86.45	61.32	-0.0252	-0.2984	-0.3508	
-0.091378	0.862174	0.462746	-20.16	74.76	59.22	-0.015	-0.2939	-0.3597	
-0.049898	0.908778	0.46604	-14.07	70.63	57.54	-0.0092	-0.2939	-0.3641	
-0.03721	0.930372	0.417484	-16.52	69.44	55.3	-0.0107	-0.2939	-0.3761	
-0.049166	0.95526	0.408334	-10.15	54.67	50.4	0.0053	-0.2848	-0.3641	
-0.054046	0.987102	0.396378	-13.23	48.65	44.94	-0.0034	-0.2832	-0.3641	
-0.122366	1.007964	0.396744	-18.2	48.09	35.56	0.0009	-0.2848	-0.3731	
-0.172264	0.97905	0.396378	-23.73	49.7	29.96	0.0023	-0.2786	-0.3745	
-0.178486	0.950868	0.403332	-25.62	42.98	25.69	0.0139	-0.2757	-0.379	
-0.173972	0.94184	0.418094	-22.47	33.32	19.18	0.0183	-0.268	-0.373	
-0.182634	0.93696	0.414434	-19.74	25.62	10.99	0.0138	-0.268	-0.379	
-0.18666	0.925614	0.416264	-18.06	18.41	4.2	0.0255	-0.2635	-0.3819	
-0.17324	0.924272	0.440786	-12.53	10.01	-3.36	0.0255	-0.265	-0.3804	
-0.148474	0.902922	0.447496	-9.73	4.27	-10.08	0.0299	-0.262	-0.3745	
-0.15555	0.884134	0.448472	-10.22	0	-14.91	0.0299	-0.262	-0.3834	
-0.14884	0.86254	0.456036	-13.65	-6.93	-16.73	0.0271	-0.2697	-0.3745	
-0.163968	0.861198	0.457866	-10.22	-10.08	-19.18	0.0181	-0.2588	-0.379	
-0.141032	0.859246	0.486414	-3.85	-19.25	-22.33	0.0284	-0.2604	-0.3879	
-0.14152	0.8723	0.510204	2.52	-24.99	-23.45	0.0269	-0.2558	-0.3774	
-0.084424	0.842776	0.542412	6.58	-29.4	-25.48	0.0299	-0.2635	-0.3789	
-0.09467199	0.859124	0.513742	2.59	-23.38	-25.62	0.0224	-0.2495	-0.3819	
-0.09882	0.865468	0.49532	1.75	-23.45	-24.22	0.0196	-0.2619	-0.3834	
-0.104188	0.877668	0.489098	-0.49	-21.98	-23.38	0.0182	-0.2618	-0.3819	
-0.117242	0.862418	0.49654	-1.33	-25.62	-23.45	0.0196	-0.2619	-0.379	
-0.09394	0.851438	0.506666	1.47	-30.38	-23.66	0.0136	-0.2479	-0.3954	
-0.092842	0.85095	0.510692	6.16	-32.13	-23.73	0.0181	-0.2619	-0.3924	
-0.108824	0.829722	0.53009	7.7	-34.86	-22.82	0.0108	-0.2587	-0.3909	
-0.080764	0.854	0.535702	8.4	-34.51	-21.77	-0.0008	-0.2601	-0.385	
-0.086498	0.857904	0.535336	7.49	-32.27	-21.21	0.0034	-0.257	-0.3894	
-0.100406	0.851926	0.519842	7.42	-32.55	-18.34	0.002	-0.2586	-0.3805	
-0.065392	0.846192	0.522282	6.65	-31.29	-17.01	0.0006	-0.2647	-0.3835	
-0.06222	0.847656	0.52277	9.17	-31.08	-14.63	-0.0081	-0.2631	-0.376	
-0.054778	0.85949	0.523258	9.31	-30.1	-12.25	-0.0109	-0.2708	-0.379	
-0.038674	0.862418	0.518256	6.65	-27.02	-10.92	-0.0125	-0.2692	-0.391	
-0.038674	0.85461	0.521794	3.78	-23.8	-9.24	-0.0065	-0.2739	-0.3805	
-0.03355	0.855952	0.515694	2.94	-19.74	-8.61	-0.0081	-0.2615	-0.385	
-0.033184	0.85644	0.510326	1.05	-15.47	-7.7	-0.0257	-0.266	-0.3776	
-0.04819	0.85583	0.516304	-0.7	-13.58	-5.95	-0.0183	-0.2676	-0.382	
-0.044408	0.856928	0.515084	-1.12	-12.25	-4.48	-0.0242	-0.2675	-0.3716	
-0.059292	0.863028	0.5124	0.28	-11.34	-3.08	-0.0285	-0.269	-0.3701	
-0.067588	0.863028	0.509594	2.38	-11.27	-2.87	-0.0197	-0.2707	-0.3776	
-0.06649	0.867298	0.523502	3.43	-11.76	-2.73	-0.0183	-0.2676	-0.3731	
-0.049654	0.870226	0.531188	1.82	-10.15	-2.52	-0.0139	-0.2707	-0.3805	
-0.037332	0.867664	0.520208	-1.89	-6.3	-2.87	-0.033	-0.2628	-0.3791	
-0.032208	0.855708	0.526308	-6.09	-2.59	-2.94	-0.0315	-0.2659	-0.3806	
-0.038796	0.855342	0.52399	-8.33	0.77	-2.03	-0.0199	-0.2598	-0.3805	
-0.048678	0.861076	0.524112	-9.52	2.38	-0.56	-0.0316	-0.2643	-0.3851	
-0.054046	0.861808	0.53619	-8.82	3.22	0.28	-0.0229	-0.2552	-0.382	
-0.05856	0.849852	0.534726	-9.1	5.04	0.49	-0.0227	-0.2629	-0.3701	
-0.061854	0.84058	0.530822	-10.5	6.72	1.05	-0.0141	-0.2553	-0.3835	
-0.062586	0.843874	0.53009	-10.99	7.63	2.17	-0.0214	-0.2552	-0.388	
-0.06405	0.84302	0.524844	-12.11	9.17	2.94	-0.0141	-0.2553	-0.391	
-0.07137	0.847168	0.533018	-12.04	9.45	3.5	-0.0229	-0.2521	-0.3895	
-0.07137	0.846436	0.529968	-11.06	9.8	3.64	-0.0244	-0.2521	-0.394	
-0.075396	0.849852	0.519598	-10.85	9.45	4.06	-0.0185	-0.2491	-0.3865	
-0.082472	0.849608	0.521306	-10.57	8.82	4.41	-0.02	-0.2475	-0.3925	
-0.080886	0.84912	0.521184	-11.55	8.89	3.85	-0.0142	-0.2476	-0.3969	
-0.086498	0.852414	0.529358	-12.6	8.19	2.8	-0.0201	-0.2429	-0.385	
-0.0915	0.853634	0.541802	-10.92	6.23	1.96	-0.0141	-0.2538	-0.3954	
-0.089304	0.850218	0.541436	-8.89	4.55	1.47	-0.0142	-0.2507	-0.3984	
-0.085766	0.828258	0.541924	-7.14	3.22	0.84	-0.0083	-0.2461	-0.388	
-0.086254	0.82899	0.549122	-4.27	0.42	2.45	-0.0171	-0.2475	-0.385	
-0.08113	0.843996	0.542778	-2.94	-0.7	3.5	-0.0127	-0.2429	-0.388	
-0.074542	0.845338	0.545584	-3.29	-0.14	1.89	-0.0201	-0.2398	-0.382	
-0.076494	0.823988	0.557174	-5.04	2.03	0.35	-0.0127	-0.2507	-0.3895	
-0.07905599	0.82167	0.5673	-4.76	1.26	-0.28	-0.0128	-0.2429	-0.3909	
-0.084302	0.822646	0.556198	-1.19	-1.68	-0.28	-0.0128	-0.2383	-0.3984	
-0.079422	0.815936	0.565958	1.54	-3.29	-0.21	-0.0142	-0.246	-0.3924	
-0.06954	0.822646	0.5612	-0.14	-2.66	1.54	-0.0113	-0.243	-0.3924	
-0.06466	0.829722	0.557662	-2.1	-1.96	2.66	-0.0216	-0.2413	-0.3925	
-0.063928	0.828258	0.551684	-5.18	-1.26	3.57	-0.0157	-0.246	-0.3999	
-0.068808	0.832772	0.554856	-4.34	-1.96	2.87	-0.0114	-0.2322	-0.3954	
-0.089304	0.827038	0.559614	-3.85	-2.52	1.96	-0.0202	-0.2336	-0.3969	
-0.087474	0.810324	0.563518	-2.8	-3.99	0.56	-0.0172	-0.2336	-0.3865	
-0.070882	0.812642	0.55571	-1.12	-5.53	-0.07	-0.0202	-0.2321	-0.3969	
-0.055144	0.82289	0.55388	1.96	-7	-0.98	-0.0216	-0.2413	-0.394	
-0.045872	0.826062	0.565714	2.31	-7.7	-1.68	-0.0201	-0.2444	-0.391	
-0.04331	0.827526	0.568032	0.56	-6.44	-0.84	-0.0275	-0.2397	-0.3969	
-0.04026	0.823378	0.570838	-0.98	-4.27	-0.35	-0.0187	-0.2336	-0.3954	
-0.044164	0.82655	0.567666	-1.12	-2.8	0.98	-0.0231	-0.2351	-0.3999	
-0.050874	0.827526	0.569496	-1.19	-2.03	1.47	-0.0157	-0.2445	-0.3939	
-0.055388	0.823988	0.573278	-1.05	-1.82	1.96	-0.0304	-0.235	-0.3925	
-0.05429	0.824476	0.563518	-1.54	-1.89	2.87	-0.0274	-0.2459	-0.3895	
-0.058926	0.829234	0.564372	0.56	-2.17	2.17	-0.023	-0.2428	-0.394	
-0.059536	0.836798	0.567788	1.4	-2.73	1.05	-0.0275	-0.232	-0.391	
-0.048312	0.83631	0.568764	-0.21	-1.68	0.14	-0.0245	-0.2397	-0.3969	
-0.04941	0.821426	0.56547	-1.82	-0.42	-0.21	-0.0217	-0.2336	-0.3999	
-0.046848	0.820572	0.568642	-2.45	-0.21	0.42	-0.0231	-0.2413	-0.3999	





-0.043188	0.81801	0.583892	1.68	-2.59	2.45	-0.0247	-0.2289	-0.4059	
-0.040992	0.826428	0.578524	0.49	-1.33	2.31	-0.0261	-0.2351	-0.3999	
-0.048312	0.815448	0.582428	-1.05	0	1.82	-0.029	-0.2319	-0.3984	
-0.050996	0.815082	0.584746	-0.7	0.77	0.63	-0.0262	-0.2258	-0.4014	
-0.0549	0.812276	0.584014	-1.12	1.61	0.21	-0.0305	-0.2319	-0.394	
-0.055022	0.817034	0.5795	-0.84	2.03	0.35	-0.0319	-0.2381	-0.4074	
-0.056486	0.823622	0.573766	-0.56	1.96	0.35	-0.0231	-0.2351	-0.3925	
-0.056608	0.819596	0.575962	0.49	1.19	0.28	-0.029	-0.2366	-0.3969	
-0.05063	0.815326	0.586332	1.19	0.42	-0.07	-0.032	-0.2257	-0.4059	
-0.053314	0.815814	0.589626	2.24	0.91	-0.56	-0.0276	-0.2289	-0.3999	
-0.0549	0.817644	0.586698	2.59	1.54	-1.05	-0.0349	-0.2303	-0.4029	
-0.053192	0.81496	0.587064	2.31	1.33	-0.77	-0.0261	-0.2304	-0.3999	
-0.05063	0.819108	0.583038	3.08	3.01	-1.19	-0.0378	-0.2303	-0.3955	
-0.052582	0.813374	0.579256	3.08	3.15	-1.05	-0.0261	-0.2304	-0.3999	
-0.052948	0.811544	0.577914	4.69	3.36	-1.54	-0.026	-0.2366	-0.3969	
-0.054534	0.811666	0.570228	4.13	3.85	-2.03	-0.026	-0.2397	-0.3999	
-0.060634	0.825452	0.558516	3.08	4.2	-1.82	-0.026	-0.2397	-0.3969	
-0.069418	0.837408	0.54595	1.33	4.69	-1.96	-0.0187	-0.2398	-0.4044	
-0.076494	0.83448	0.54107	0.98	4.13	-2.52	-0.0275	-0.2412	-0.3999	
-0.069418	0.82533	0.544608	2.31	0.98	-3.36	-0.0232	-0.2336	-0.4074	
-0.075396	0.82533	0.553514	0.84	-0.35	-4.2	-0.0188	-0.2321	-0.4118	
-0.085034	0.829966	0.553636	1.12	-1.26	-4.48	-0.0143	-0.2368	-0.4118	
-0.059048	0.822524	0.551562	0.35	-2.03	-4.55	-0.0275	-0.2397	-0.4119	
-0.077348	0.815692	0.555832	0.35	-3.5	-4.13	-0.0232	-0.232	-0.4044	
-0.080886	0.820816	0.575718	2.94	-5.04	-3.85	-0.0246	-0.2366	-0.3984	
-0.082472	0.83265	0.584868	5.6	-5.53	-3.71	-0.0259	-0.2474	-0.4014	
-0.078934	0.86254	0.578158	5.18	-5.18	-4.34	-0.0202	-0.2398	-0.4074	
-0.084912	0.887428	0.559004	2.17	-1.82	-6.79	-0.0172	-0.2352	-0.3924	
-0.091378	0.87474	0.542534	-3.64	1.33	-9.8	-0.0142	-0.2429	-0.3969	
-0.094184	0.846192	0.555466	-6.16	2.24	-13.72	-0.0217	-0.2336	-0.3939	
-0.067466	0.801296	0.555832	-4.97	0.35	-14.42	-0.0157	-0.2398	-0.3954	
-0.066734	0.782874	0.565104	-0.21	-4.69	-9.59	-0.0216	-0.2428	-0.3954	
-0.058438	0.776896	0.550342	5.53	-5.11	-5.18	-0.0202	-0.2382	-0.4014	
-0.061	0.778238	0.547414	4.97	-3.78	-1.19	-0.0201	-0.2429	-0.3999	
-0.0671	0.801784	0.54717	2.8	-0.91	-0.49	-0.0231	-0.2351	-0.4059	
-0.076982	0.838262	0.55388	-0.49	-0.84	0.77	-0.0187	-0.2352	-0.3954	
-0.089426	0.850584	0.550708	-1.68	-0.77	0.84	-0.0173	-0.2275	-0.3954	
-0.09747799	0.843752	0.553636	-0.91	-0.63	-0.56	-0.0216	-0.2382	-0.3969	
-0.09455	0.839848	0.562176	0.63	-1.4	-2.03	-0.0186	-0.2429	-0.3954	
-0.085888	0.845948	0.565226	0.14	-2.94	-3.29	-0.0158	-0.2336	-0.3954	
-0.09211	0.837652	0.564616	0.14	-2.24	-4.48	-0.0231	-0.2413	-0.4014	
-0.122732	0.83936	0.559004	-2.1	-2.31	-3.01	-0.0201	-0.246	-0.3999	
-0.072346	0.814594	0.547292	-2.59	-1.19	-2.59	-0.0201	-0.2413	-0.3999	
-0.079666	0.817156	0.553026	-1.75	-0.63	-3.01	-0.0128	-0.2383	-0.4014	
-0.096258	0.827038	0.55876	-1.47	-2.87	-0.49	-0.0215	-0.2428	-0.388	
-0.084302	0.822036	0.559858	0.98	-2.52	-0.98	-0.0245	-0.2413	-0.3955	
-0.08662	0.831674	0.569008	1.89	-2.24	-1.54	-0.0157	-0.2445	-0.3954	
-0.09638	0.842288	0.573888	1.4	-2.31	-1.82	-0.026	-0.2382	-0.3955	
-0.066856	0.825452	0.57035	-1.75	-3.29	-0.77	-0.0215	-0.2459	-0.4029	
-0.083448	0.80947	0.580842	-1.68	-0.07	-2.94	-0.0186	-0.2444	-0.3925	
-0.07991	0.81374	0.579378	0.28	-0.14	-3.29	-0.0275	-0.2366	-0.3969	
-0.06832	0.806542	0.573522	0.21	0.21	-3.36	-0.0129	-0.2321	-0.3954	
-0.077348	0.813252	0.57523	3.15	-0.42	-3.99	-0.0246	-0.2366	-0.3954	
-0.071126	0.815814	0.56974	3.01	-0.42	-3.5	-0.0114	-0.2383	-0.3969	
-0.071492	0.83082	0.560224	2.59	0.35	-3.5	-0.02	-0.2491	-0.4029	
-0.078568	0.836676	0.55632	0.07	1.4	-3.15	-0.0172	-0.2429	-0.4044	
-0.085644	0.837652	0.557296	0.28	1.54	-3.36	-0.0203	-0.2305	-0.4029	
-0.077836	0.81923	0.566202	-0.42	0.7	-2.38	-0.0187	-0.2382	-0.3925	
-0.078202	0.815082	0.57157	1.82	1.47	-2.8	-0.0231	-0.2397	-0.3954	
-0.0854	0.82106	0.57279	1.75	2.17	-2.66	-0.0158	-0.2352	-0.3984	
-0.08295999	0.818742	0.568154	0.84	3.5	-2.66	-0.0186	-0.2413	-0.3925	
-0.101382	0.833382	0.56791	-3.01	2.52	0.07	-0.0126	-0.2538	-0.3925	
-0.10248	0.823622	0.545828	-1.54	5.6	-1.82	-0.0085	-0.2291	-0.3954	
-0.102846	0.826672	0.540826	-3.08	4.69	-1.96	-0.0215	-0.2444	-0.394	
-0.106872	0.841678	0.528504	-4.97	4.13	-1.61	-0.0113	-0.2399	-0.3894	
-0.114192	0.846802	0.523258	-5.53	3.15	-1.89	-0.0143	-0.2383	-0.3924	
-0.121268	0.822402	0.533872	-4.55	2.03	-2.45	-0.0114	-0.2368	-0.4014	
-0.1159	0.800442	0.549854	-2.31	-0.91	-1.89	-0.0099	-0.2399	-0.3999	
-0.106262	0.793366	0.562908	-0.35	-3.99	-1.12	-0.0143	-0.2352	-0.3895	
-0.10248	0.789584	0.566934	0.07	-5.32	0.28	-0.0055	-0.2384	-0.3909	
-0.105652	0.795318	0.572058	-0.7	-5.46	2.45	-0.0056	-0.2307	-0.3894	
-0.103334	0.795806	0.573034	-1.33	-4.97	3.57	-0.0129	-0.2337	-0.3969	
-0.097356	0.799588	0.571936	-1.26	-5.32	5.25	-0.0159	-0.229	-0.3954	
-0.09552599	0.806786	0.5734	-1.4	-5.6	6.86	-0.0246	-0.232	-0.3895	
-0.093818	0.824842	0.567422	-1.4	-5.6	7.56	-0.0202	-0.2321	-0.3984	
-0.091378	0.826794	0.56059	-4.34	-4.41	7.56	-0.0187	-0.2367	-0.3984	
-0.087108	0.838506	0.568032	-4.83	-4.27	6.86	-0.0216	-0.2367	-0.3895	
-0.088206	0.832284	0.569618	-4.48	-2.45	5.81	-0.0246	-0.2351	-0.3999	
-0.09028	0.827282	0.575718	-4.48	-1.96	5.18	-0.0187	-0.2352	-0.4029	
-0.084912	0.823134	0.58133	-3.92	-2.45	4.9	-0.0334	-0.2303	-0.391	
-0.083692	0.813618	0.584502	-2.8	-2.17	4.55	-0.0187	-0.2367	-0.3984	
-0.077104	0.810934	0.585966	-1.89	-2.1	4.2	-0.0305	-0.2304	-0.3999	
-0.073444	0.815814	0.576816	-2.03	-0.84	3.64	-0.0246	-0.2351	-0.3984	
-0.07198	0.818254	0.569374	-2.38	-0.49	3.85	-0.0275	-0.232	-0.391	
-0.078202	0.81618	0.57035	-2.1	-1.05	4.27	-0.0231	-0.2351	-0.3999	
-0.081008	0.818864	0.582672	-2.03	-1.47	3.92	-0.026	-0.2366	-0.4014	
-0.0732	0.812764	0.592554	-2.31	-0.14	3.08	-0.0261	-0.2335	-0.4014	
-0.066978	0.818864	0.593652	-1.4	0.49	2.73	-0.0246	-0.2351	-0.3984	
-0.068564	0.816302	0.58621	-2.03	1.4	2.31	-0.0407	-0.2364	-0.3925	
-0.068564	0.81374	0.577426	-3.22	2.94	2.45	-0.0261	-0.2351	-0.3999	
-0.066734	0.81496	0.571448	-4.06	3.64	2.59	-0.0319	-0.2381	-0.397	
-0.069784	0.811422	0.568398	-4.2	3.5	2.94	-0.029	-0.2289	-0.394	
-0.06954	0.806298	0.574254	-2.94	2.38	3.08	-0.029	-0.2289	-0.391	
-0.071126	0.803248	0.577182	-2.03	1.12	3.29	-0.0218	-0.2243	-0.4103	
-0.06893	0.804346	0.581574	-0.7	-0.07	3.64	-0.0188	-0.229	-0.3984	
-0.07259	0.809836	0.5795	0	-0.28	3.92	-0.0218	-0.2243	-0.3969	
-0.064416	0.814106	0.573034	-0.84	-0.56	4.27	-0.0276	-0.2273	-0.3984	
-0.05978	0.817156	0.57462	-1.33	-0.49	4.2	-0.0261	-0.2304	-0.4044	
-0.063562	0.8174	0.582672	-0.98	-0.63	3.71	-0.0349	-0.235	-0.3985	
-0.071126	0.810934	0.585966	0.21	-0.84	3.57	-0.0305	-0.235	-0.397	
-0.065392	0.811422	0.584868	0.77	-1.75	3.5	-0.0334	-0.2365	-0.3925	
-0.053558	0.815326	0.581452	0.14	-0.98	2.94	-0.0202	-0.2382	-0.4044	
-0.051484	0.81252	0.579378	-1.05	-1.4	3.15	-0.029	-0.2335	-0.4059	
-0.059414	0.808006	0.582916	-1.68	-0.77	3.08	-0.0261	-0.2335	-0.3969	
-0.054534	0.808616	0.584502	-1.68	-1.68	2.87	-0.029	-0.232	-0.4044	
-0.050142	0.815082	0.585234	-1.19	-1.61	2.73	-0.0335	-0.2288	-0.3955	
-0.045506	0.821426	0.5856	-1.19	-1.89	2.66	-0.0276	-0.232	-0.3969	
-0.046238	0.821304	0.586332	-0.7	-0.63	2.1	-0.0349	-0.2303	-0.4059	
-0.04209	0.809836	0.586942	-1.4	-0.56	1.4	-0.0349	-0.2272	-0.3984	
-0.038064	0.806298	0.593164	-1.26	-0.42	0.91	-0.0321	-0.2211	-0.3999	
-0.048556	0.80947	0.590114	0.07	0.42	0.91	-0.0262	-0.2212	-0.4089	
-0.048434	0.808616	0.585722	-0.49	-0.14	0.91	-0.0305	-0.2304	-0.3999	
-0.046482	0.810934	0.584502	-0.77	-0.14	0.91	-0.032	-0.2288	-0.3984	
-0.045628	0.81557	0.582184	-1.26	0.56	0.91	-0.0378	-0.2334	-0.4	
-0.042944	0.81008	0.586454	-2.03	0.63	0.56	-0.0291	-0.2289	-0.4014	
-0.050142	0.805688	0.587064	-2.52	1.33	0.49	-0.0379	-0.2272	-0.3955	
-0.049288	0.806908	0.586088	-1.68	0.14	0.84	-0.0379	-0.2257	-0.3955	
-0.074542	0.817522	0.58194	4.06	8.96	-3.99	-0.0291	-0.2273	-0.3984	
-0.057096	0.8174	0.581574	-1.89	-1.19	1.82	-0.0203	-0.2228	-0.3954	
-0.05612	0.815448	0.578158	-1.19	-0.98	1.54	-0.0305	-0.2304	-0.4044	
-0.056242	0.80825	0.581208	-1.54	-1.19	0.84	-0.0349	-0.2319	-0.4014	
-0.053558	0.808494	0.584624	-0.56	-1.89	0.7	-0.0277	-0.2242	-0.4059	
-0.05246	0.807762	0.584624	0.07	-2.31	0.49	-0.0276	-0.2273	-0.4029	
-0.053924	0.808006	0.585844	0.28	-2.17	0.49	-0.032	-0.2304	-0.4044	
-0.051484	0.80947	0.586088	0.14	-2.03	0.49	-0.0231	-0.2305	-0.385	
-0.050386	0.809348	0.58377	-0.56	-1.68	0.63	-0.0277	-0.2212	-0.4059	
-0.049654	0.809104	0.585722	-0.91	-1.4	0.77	-0.0292	-0.2196	-0.4014	
-0.04941	0.80947	0.587918	-1.4	-1.4	0.98	-0.0408	-0.2272	-0.4029	
-0.049898	0.80825	0.590358	-0.84	-0.98	0.63	-0.0379	-0.2226	-0.3999	
-0.04941	0.815936	0.59231	-0.21	-1.61	0.91	-0.0262	-0.2196	-0.3999	
-0.045018	0.819962	0.580354	-0.49	-0.84	0.14	-0.0407	-0.2349	-0.4059	
-0.043676	0.81008	0.58804	-1.54	-0.28	-0.84	-0.0305	-0.2273	-0.394	
-0.050996	0.804834	0.593896	0.56	0.42	-0.42	-0.0379	-0.2303	-0.4059	
-0.050142	0.798978	0.596824	0.7	0	-0.21	-0.0261	-0.232	-0.4044	
-0.040382	0.805444	0.591212	1.96	-0.77	0.35	-0.0394	-0.2256	-0.3985	
-0.038186	0.808616	0.589626	1.26	-0.56	0.84	-0.0409	-0.2225	-0.4029	
-0.038186	0.80642	0.58987	-0.7	0.28	0.91	-0.0379	-0.2272	-0.4014	
-0.04087	0.806054	0.587308	-1.61	0.91	0.77	-0.0336	-0.2211	-0.4029	
-0.041358	0.804346	0.586454	-1.68	1.26	0.77	-0.0335	-0.2242	-0.4089	
-0.040016	0.80337	0.588894	-1.47	0.98	0.98	-0.032	-0.2273	-0.4014	
-0.03965	0.80947	0.58926	-0.98	0.7	1.4	-0.0306	-0.2257	-0.3955	
-0.044286	0.809226	0.59048	-0.77	0.7	1.61	-0.0246	-0.2305	-0.3925	
-0.047336	0.803126	0.587552	-1.26	1.05	1.47	-0.0437	-0.2256	-0.3925	
-0.046726	0.80825	0.589626	-2.31	0.63	1.12	-0.0305	-0.2319	-0.3955	
-0.048922	0.81008	0.589992	-1.47	0.98	0.28	-0.0335	-0.2211	-0.3955	
-0.049288	0.803614	0.590968	-0.42	0.7	0	-0.0424	-0.2163	-0.4014	
-0.043432	0.804834	0.590846	0.77	-0.14	0.14	-0.0379	-0.2272	-0.3999	
-0.040504	0.808982	0.590114	0.98	-0.49	0.35	-0.0393	-0.2303	-0.4014	
-0.045018	0.808128	0.587796	0	0.14	0.35	-0.0335	-0.2226	-0.394	
-0.050142	0.805688	0.587186	-0.14	0.42	0.07	-0.0379	-0.2303	-0.4119	
-0.051118	0.805688	0.587064	0.42	0.14	-0.14	-0.0393	-0.2272	-0.394	
-0.049044	0.81008	0.587308	1.19	-0.42	-0.21	-0.0321	-0.2149	-0.3969	
-0.04453	0.811666	0.588284	1.33	-0.63	-0.42	-0.0291	-0.2273	-0.4074	
-0.041358	0.814106	0.585356	1.26	-0.49	-0.84	-0.0349	-0.2272	-0.3955	
-0.044774	0.807518	0.584868	0.42	-0.49	-1.19	-0.0378	-0.2303	-0.3925	
-0.045384	0.802882	0.587918	0.42	-0.98	-1.05	-0.0335	-0.2226	-0.3999	
-0.044408	0.808128	0.58987	0.98	-1.33	-0.7	-0.0393	-0.2303	-0.4	
-0.045018	0.811178	0.585234	0.98	-1.19	-0.56	-0.0407	-0.2334	-0.4029	
-0.04697	0.811544	0.593164	1.47	-1.68	-0.84	-0.0394	-0.221	-0.3999	
-0.044164	0.812764	0.59536	2.31	-1.61	-0.98	-0.0321	-0.2226	-0.3984	
-0.04209	0.808982	0.5917	2.73	-0.56	-1.75	-0.0379	-0.2272	-0.3999	
-0.044408	0.809348	0.591822	3.99	-0.14	-2.73	-0.0379	-0.2288	-0.397	
-0.035136	0.854976	0.519476	3.78	0.98	-2.8	-0.0436	-0.2426	-0.4045	
-0.05612	0.861564	0.483486	4.34	-7.77	-7.98	-0.0305	-0.2319	-0.3984	
-0.058804	0.847046	0.610244	12.95	-28.84	-10.29	-0.0349	-0.2288	-0.3984	
-0.049288	0.929518	0.676734	27.09	-30.87	-10.71	-0.0409	-0.221	-0.4044	
-0.021228	0.870104	0.64782	21.35	-17.92	-15.89	-0.0538	-0.2409	-0.3881	
-0.024034	0.791902	0.643916	23.1	-9.24	-17.01	-0.0407	-0.2349	-0.397	
-0.018422	0.753594	0.57523	8.12	7.28	-17.43	-0.0437	-0.2318	-0.394	
-0.019764	0.746518	0.576328	9.59	11.06	-14.14	-0.0479	-0.2425	-0.3895	
-0.02379	0.740418	0.53863	6.09	13.93	-7.91	-0.0391	-0.2504	-0.3895	
-0.045506	0.79178	0.493124	7.35	8.75	0	-0.0347	-0.2458	-0.394	
-0.069906	0.884378	0.488244	11.06	-0.91	5.11	-0.0304	-0.2427	-0.394	
-0.09394	0.928542	0.551684	20.3	-8.68	4.62	-0.0288	-0.2536	-0.3925	
-0.076616	0.870958	0.585234	14.14	-3.64	1.33	-0.042	-0.2457	-0.3836	
-0.033062	0.80886	0.606828	2.45	7	-3.57	-0.0317	-0.2489	-0.388	
-0.009028	0.801418	0.572302	-8.26	17.29	-4.34	-0.0346	-0.2566	-0.3806	
-0.044286	0.813252	0.542046	-9.31	22.75	-5.88	-0.0302	-0.2551	-0.394	
-0.074176	0.833138	0.480314	-5.04	18.48	-2.8	-0.0259	-0.249	-0.382	
-0.120902	0.883158	0.477142	7.14	-0.14	-0.21	-0.02	-0.2537	-0.3895	
-0.109434	0.864004	0.510448	12.18	-7.98	-0.07	-0.0184	-0.2661	-0.391	
-0.083814	0.85217	0.555466	8.68	-9.66	-1.61	-0.0317	-0.2566	-0.3925	
-0.064416	0.818498	0.55205	-2.1	-0.56	-5.53	-0.0258	-0.2521	-0.3835	
-0.067588	0.790194	0.543876	-7.21	6.65	-6.16	-0.0272	-0.2582	-0.3746	
-0.07015	0.793244	0.52948	-7.28	8.4	-3.57	-0.0272	-0.2582	-0.3835	
-0.07905599	0.808616	0.507032	-2.1	6.02	-0.91	-0.0156	-0.2537	-0.3865	
-0.099064	0.885232	0.46055	4.55	-1.33	2.38	-0.0215	-0.2521	-0.3925	
-0.114192	0.919392	0.492026	10.01	-11.9	2.8	-0.0142	-0.2429	-0.3865	
-0.108702	0.909388	0.537288	13.51	-16.8	0.63	-0.0301	-0.2613	-0.3865	
-0.078202	0.864248	0.56486	5.18	-11.97	-3.08	-0.0228	-0.2598	-0.385	
-0.06466	0.827038	0.549	-6.02	-1.05	-7.42	-0.0332	-0.252	-0.3836	
-0.06832	0.803492	0.53436	-9.94	5.81	-7	-0.0345	-0.2612	-0.3851	
-0.061854	0.788974	0.53009	-6.86	5.18	-3.92	-0.017	-0.2522	-0.3865	
-0.072346	0.832528	0.518256	-3.15	4.69	-0.14	-0.0286	-0.2628	-0.3865	
-0.095404	0.925248	0.452132	3.01	-1.4	4.06	-0.0244	-0.2521	-0.3805	
-0.112606	0.8967	0.510204	5.95	-11.83	1.68	-0.0286	-0.2659	-0.394	
-0.082838	0.85766	0.57584	2.45	-13.02	0.21	-0.0301	-0.2597	-0.3836	
-0.05124	0.809714	0.579378	-8.12	-3.85	-4.2	-0.0272	-0.2598	-0.3776	
-0.052948	0.780068	0.56364	-12.6	5.18	-4.97	-0.0258	-0.2551	-0.391	
-0.059048	0.77775	0.547658	-11.48	8.05	-1.4	-0.0274	-0.2474	-0.3895	
-0.058194	0.773602	0.559248	-5.53	7.91	2.45	-0.0259	-0.2521	-0.397	
-0.04941	0.79422	0.574986	3.22	7.21	9.31	-0.0288	-0.2458	-0.385	
-0.035502	0.81618	0.544486	5.67	10.5	19.53	-0.0185	-0.2568	-0.388	
-0.068686	0.930616	0.478362	1.68	9.24	24.22	-0.0229	-0.2521	-0.394	
-0.123098	0.908778	0.547048	-4.9	5.25	21.56	-0.0287	-0.2536	-0.385	
-0.053924	0.80398	0.581086	-10.85	9.52	16.94	-0.0303	-0.2474	-0.397	
-0.072834	0.808738	0.59231	-3.29	15.19	5.81	-0.0244	-0.249	-0.3925	
-0.039894	0.807884	0.581818	-3.92	16.66	4.69	-0.0317	-0.2504	-0.3925	
-0.051972	0.820938	0.548878	-0.77	17.85	3.92	-0.0215	-0.2506	-0.3865	
-0.059658	0.818254	0.520574	0.77	17.22	6.79	-0.0244	-0.2474	-0.3895	
-0.064904	0.818132	0.514474	1.61	16.73	7.91	-0.0185	-0.2537	-0.388	
-0.069662	0.838384	0.515938	3.43	15.19	7.84	-0.0111	-0.2553	-0.3865	
-0.080764	0.86864	0.511668	4.55	12.74	6.44	-0.0259	-0.2459	-0.391	
-0.096868	0.897188	0.527406	4.9	8.47	2.66	-0.02	-0.2475	-0.3835	
-0.113704	0.916586	0.53619	3.15	7.14	0.56	-0.0053	-0.2492	-0.385	
-0.098332	0.872178	0.548024	0.07	5.11	-0.56	-0.0154	-0.263	-0.385	
-0.086132	0.848876	0.548512	0.63	4.83	-2.03	-0.0156	-0.2537	-0.388	
-0.076128	0.840702	0.535946	-1.26	3.78	-2.94	-0.0067	-0.2554	-0.3865	
-0.077104	0.848266	0.537654	-2.31	2.24	-1.96	-0.0052	-0.2585	-0.3865	
-0.072956	0.851194	0.522038	-2.73	1.89	-1.4	-0.0111	-0.2569	-0.3895	
-0.078812	0.844118	0.509838	-2.59	2.52	-1.4	-0.009699999	-0.2523	-0.3924	
-0.080764	0.843752	0.506544	-2.03	0.56	-1.47	-0.0054	-0.2461	-0.385	
-0.07991	0.837896	0.504348	-0.56	-1.61	-1.68	-0.0082	-0.2523	-0.3895	
-0.074664	0.82594	0.521794	2.45	-3.92	-1.82	-0.02	-0.2537	-0.391	
-0.0732	0.822524	0.538264	4.48	-5.6	-1.61	-0.0127	-0.2491	-0.3805	
-0.07259	0.826306	0.545096	4.2	-6.37	-0.56	-0.0127	-0.2491	-0.391	
-0.072346	0.837896	0.55388	2.8	-6.09	2.45	-0.0112	-0.2522	-0.388	
-0.070638	0.840458	0.564738	2.1	-4.62	3.15	-0.009699999	-0.2492	-0.388	
-0.068686	0.85583	0.557296	0.21	-1.54	2.87	-0.0186	-0.246	-0.391	
-0.067466	0.874374	0.537532	-3.08	1.68	1.54	-0.0141	-0.2491	-0.388	
-0.072102	0.87962	0.517036	-5.32	3.29	0.07	-0.0126	-0.2569	-0.388	
-0.081496	0.868762	0.508374	-6.37	3.29	-0.98	-0.02	-0.2521	-0.394	
-0.084912	0.853024	0.50813	-5.53	1.75	-1.54	-0.0185	-0.2552	-0.3925	
-0.079544	0.84058	0.518012	-2.38	-0.91	-1.96	-0.0199	-0.2568	-0.391	
-0.077714	0.829356	0.532774	-0.56	-3.01	-1.89	-0.0171	-0.2444	-0.3925	
-0.070394	0.833748	0.54717	1.26	-4.2	-1.61	-0.0156	-0.2491	-0.3925	
-0.06649	0.829234	0.548268	-0.21	-2.59	-1.61	-0.0126	-0.2569	-0.3925	
-0.06771	0.826794	0.553392	-0.42	-2.17	-1.05	-0.0185	-0.2537	-0.3954	
-0.078324	0.827892	0.550586	0	-2.24	-0.07	-0.0096	-0.26	-0.3984	
-0.07686	0.838872	0.542412	-0.84	-2.24	0.98	-0.009699999	-0.2523	-0.3939	
-0.068686	0.85278	0.53253	-2.52	-1.4	1.4	-0.0171	-0.2475	-0.3954	
-0.078324	0.861076	0.51972	-6.09	1.05	0.77	-0.0155	-0.2599	-0.394	
-0.084424	0.84912	0.518988	-7.7	0.98	0.42	-0.0127	-0.2491	-0.3924	
-0.082716	0.834602	0.532774	-6.37	-0.56	0.07	-0.0156	-0.2475	-0.3895	
-0.080764	0.827648	0.538386	-5.11	-2.03	-0.21	-0.0127	-0.2491	-0.391	
-0.075518	0.81862	0.553148	-4.06	-3.5	0.35	-0.0112	-0.2476	-0.3954	
-0.070882	0.819962	0.566934	-2.59	-4.13	1.26	-0.0156	-0.2522	-0.3954	
-0.06466	0.833138	0.5612	-2.24	-3.08	2.45	-0.0156	-0.2506	-0.3984	
-0.065148	0.850706	0.555954	-4.06	-2.03	3.01	-0.0201	-0.2382	-0.3895	
-0.066856	0.862052	0.549976	-5.88	-0.77	2.03	-0.0215	-0.2444	-0.3925	
-0.067832	0.857172	0.54473	-7.63	0.07	0.56	-0.02	-0.249	-0.391	
-0.064172	0.85339	0.540582	-8.61	0.91	-0.98	-0.02	-0.2537	-0.394	
-0.062952	0.839238	0.536556	-7.77	0.49	-2.24	-0.0172	-0.2383	-0.4044	
-0.07015	0.827648	0.542412	-6.3	-1.12	-1.96	-0.02	-0.2506	-0.382	
-0.065758	0.81862	0.550464	-5.6	-1.82	-1.68	-0.0202	-0.2367	-0.3969	
-0.065026	0.811544	0.563396	-4.27	-3.15	-1.75	-0.0246	-0.2335	-0.4014	
-0.070394	0.813008	0.571936	-2.59	-4.48	-1.05	-0.0114	-0.2368	-0.4014	
-0.066246	0.809226	0.58804	-1.33	-4.34	-0.21	-0.0186	-0.2413	-0.3939	
-0.070028	0.8113	0.590724	-0.21	-3.78	0.21	-0.0275	-0.2335	-0.3969	
-0.076494	0.814716	0.589504	0.35	-2.66	0.42	-0.0231	-0.2382	-0.4029	
-0.07503	0.816546	0.584136	-0.28	-1.89	-0.14	-0.0216	-0.2429	-0.4014	
-0.066368	0.82533	0.579744	-0.07	-1.54	-0.56	-0.0245	-0.2397	-0.3895	
-0.063806	0.831064	0.564616	-1.33	-0.14	-0.7	-0.032	-0.2273	-0.3984	
-0.066246	0.825086	0.560346	-2.73	0.77	-1.12	-0.0246	-0.2351	-0.3984	
-0.06771	0.823988	0.559004	-2.31	0.14	-1.05	-0.0246	-0.2351	-0.394	
-0.070638	0.822158	0.561688	-1.26	-0.56	-0.84	-0.0201	-0.2398	-0.3954	
-0.06734399	0.814228	0.560102	-0.77	-0.63	-1.05	-0.0158	-0.2383	-0.3954	
-0.069052	0.805566	0.572546	-0.49	-1.61	-1.33	-0.023	-0.2428	-0.4029	
-0.068442	0.8174	0.578768	0.77	-2.17	-0.56	-0.0187	-0.2398	-0.4014	
-0.05856	0.82594	0.574742	-1.05	-1.96	0.91	-0.0173	-0.229	-0.3954	
-0.065392	0.842654	0.55693	-1.05	-1.54	1.33	-0.0261	-0.2382	-0.4119	
-0.061976	0.849608	0.548024	-3.85	-0.42	0.84	-0.0159	-0.2306	-0.3999	
-0.07124799	0.825208	0.562542	-2.52	-0.49	-0.21	-0.0304	-0.2366	-0.3955	
-0.073444	0.809226	0.569252	-1.61	-0.56	-1.19	-0.0173	-0.229	-0.3984	
-0.06893	0.807518	0.573644	-0.98	-1.4	-1.12	-0.0201	-0.2398	-0.388	
-0.065392	0.801784	0.574498	0.91	-1.75	-1.12	-0.0202	-0.2321	-0.4014	
-0.067832	0.80154	0.579012	1.26	-1.75	-0.91	-0.0202	-0.2351	-0.4014	
-0.06283	0.808494	0.580842	0.7	-1.54	-0.21	-0.0216	-0.2367	-0.3925	
-0.063318	0.823988	0.568398	-0.28	-1.47	0.84	-0.0304	-0.2381	-0.4029	
-0.063928	0.84485	0.556686	-2.24	-1.96	0.77	-0.0187	-0.2382	-0.3969	
-0.062342	0.851926	0.560224	-2.45	-3.15	-0.21	-0.0217	-0.232	-0.3954	
-0.056364	0.832894	0.571448	-4.2	-3.85	-1.33	-0.0157	-0.2398	-0.3984	
-0.051118	0.820816	0.56913	-3.29	-2.87	-2.87	-0.026	-0.2366	-0.3955	
-0.051606	0.81801	0.568642	-1.75	-2.38	-3.01	-0.026	-0.2382	-0.391	
-0.059536	0.808738	0.569496	-2.24	-1.89	-1.96	-0.0262	-0.2227	-0.3984	
-0.060268	0.796416	0.567788	-1.4	-1.89	-1.26	-0.0305	-0.2335	-0.3984	
-0.060268	0.790804	0.57096	-0.91	-2.03	-0.7	-0.013	-0.2244	-0.4044	
-0.060634	0.795806	0.57767	-0.42	-2.52	0.49	-0.0203	-0.229	-0.3999	
-0.067832	0.812764	0.58255	-0.35	-2.87	1.82	-0.0259	-0.2459	-0.3984	
-0.062464	0.828136	0.596336	0.07	-1.68	3.01	-0.0246	-0.2305	-0.3954	
-0.06344	0.83387	0.589382	-1.05	-0.35	3.01	-0.029	-0.2335	-0.4044	
-0.062464	0.835212	0.582306	-2.94	0.91	2.31	-0.0216	-0.2382	-0.3969	
-0.061	0.834358	0.576816	-4.2	1.82	1.26	-0.0216	-0.2382	-0.3969	
-0.061976	0.823134	0.570228	-5.11	2.73	0.07	-0.0275	-0.2381	-0.3969	
-0.060512	0.81435	0.565958	-4.55	2.8	-0.84	-0.0335	-0.2304	-0.4029	
-0.063806	0.814228	0.562786	-4.06	1.89	-0.84	-0.0218	-0.2274	-0.4029	
-0.061488	0.8113	0.565104	-2.59	0.77	-1.19	-0.0159	-0.2275	-0.3984	
-0.060268	0.79849	0.57279	-1.82	-0.49	-1.68	-0.0247	-0.2274	-0.3969	
-0.064172	0.795074	0.585478	-0.7	-1.82	-0.91	-0.035	-0.2272	-0.4044	
-0.063074	0.797392	0.591822	0.35	-2.38	0.35	-0.0189	-0.2244	-0.4059	
-0.06405	0.805932	0.598532	1.75	-2.66	1.68	-0.0305	-0.2304	-0.4044	
-0.06283	0.81313	0.590236	1.82	-1.96	2.45	-0.0393	-0.2318	-0.3955	
-0.067222	0.817644	0.588528	0.56	-1.33	1.82	-0.0233	-0.2259	-0.4118	
-0.06039	0.823378	0.598654	1.4	-1.4	0.49	-0.0187	-0.2398	-0.3999	
-0.049044	0.820206	0.586942	-2.1	1.12	-1.4	-0.0378	-0.2349	-0.4014	
-0.044286	0.83082	0.57828	-0.91	1.89	-1.61	-0.0261	-0.2304	-0.4059	
-0.05368	0.82106	0.568032	-1.12	1.82	-0.91	-0.0218	-0.2259	-0.4059	
-0.035502	0.808616	0.582306	0.91	0.63	0	-0.0291	-0.2258	-0.4029	
-0.02196	0.823256	0.590114	2.45	0.77	0.21	-0.0204	-0.2212	-0.3999	
-0.02745	0.82655	0.598776	-2.03	3.01	2.03	-0.0334	-0.235	-0.3925	
-0.049776	0.842166	0.61854	0.14	5.04	1.96	-0.0188	-0.2305	-0.4029	
-0.081374	0.7869	0.57828	-5.95	12.81	2.24	-0.0246	-0.2351	-0.3999	
-0.0854	0.809104	0.551074	-10.64	13.72	-0.35	-0.0188	-0.2274	-0.4044	
-0.096136	0.836188	0.577426	-11.41	10.78	-2.66	-0.0202	-0.2398	-0.4044	
-0.079422	0.82533	0.58316	-11.97	11.13	-5.11	-0.0232	-0.232	-0.4014	
-0.067466	0.793	0.589016	-16.45	13.16	-7.07	-0.0247	-0.2274	-0.4014	
-0.07198	0.781898	0.58255	-17.43	13.16	-6.44	-0.0231	-0.2397	-0.3984	
