Sensor string: E
Serial number: 1970-01-0000
Firmware version: 2,015
Hardware version: 2,2
Calibration quality: 5
ax	ay	az	gx	gy	gz	mx	my	mz

-0.942694	0.125416	-0.2928	1.33	13.02	-1.05	0.4659	-0.056	-0.1651	Reference
-0.959164	0.121512	-0.265716	3.15	11.69	-1.68	0.4659	-0.0467	-0.1665	
-0.993446	0.134688	-0.316712	-4.41	11.69	-0.98	0.4743	-0.045	-0.1622	
-0.969778	0.122	-0.310978	-0.28	10.15	0.21	0.4713	-0.0465	-0.1576	
-0.950014	0.125294	-0.298412	2.31	9.52	0.49	0.4713	-0.045	-0.1576	
-0.9272	0.113582	-0.335378	0.07	14.28	0.35	0.4641	-0.0433	-0.1558	
-0.94428	0.118828	-0.326228	2.73	11.83	2.03	0.4682	-0.037	-0.1483	
-0.924394	0.13359	-0.308416	3.15	13.3	2.87	0.4638	-0.0463	-0.1453	
-0.965264	0.129564	-0.319762	-6.02	15.4	1.68	0.4668	-0.0433	-0.1514	
-0.986736	0.133834	-0.338672	-12.6	10.78	3.36	0.4663	-0.043	-0.1332	
-0.986736	0.128222	-0.368318	-8.54	4.34	7	0.4683	-0.0558	-0.1516	
-0.976	0.129564	-0.369904	-1.61	-2.73	9.1	0.4792	-0.0493	-0.1352	
-0.954284	0.129808	-0.345016	0.07	-3.15	9.03	0.4724	-0.0416	-0.1455	
-0.950136	0.15067	-0.344528	-1.47	-2.8	8.05	0.4694	-0.0494	-0.1425	
-0.953064	0.161284	-0.341478	-4.62	-4.2	7.28	0.4666	-0.051	-0.1424	
-0.950502	0.155184	-0.351848	-15.19	-2.31	6.37	0.4695	-0.0557	-0.1456	
-0.927322	0.138958	-0.37637	-11.13	5.04	6.02	0.4685	-0.0716	-0.1579	
-0.964654	0.159576	-0.348188	-1.47	0.63	5.74	0.467	-0.0574	-0.1546	
-0.953186	0.173728	-0.316346	-2.24	0.7	4.55	0.4613	-0.0574	-0.1544	
-0.933788	0.174704	-0.30988	-12.18	4.06	3.15	0.4664	-0.0587	-0.1349	
-0.930006	0.162382	-0.324398	-21.63	6.72	2.73	0.468	-0.065	-0.1396	
-0.939766	0.157868	-0.327082	-17.64	7.49	2.24	0.4751	-0.0525	-0.1412	
-0.949526	0.171288	-0.310978	-10.85	5.04	3.01	0.4691	-0.0571	-0.1305	
-0.945134	0.176412	-0.297436	-8.89	2.59	2.52	0.4665	-0.0587	-0.138	
-0.949892	0.170556	-0.294142	-7.49	1.82	3.08	0.4652	-0.0541	-0.1439	
-0.955138	0.166408	-0.298168	-2.31	0.07	3.29	0.4654	-0.0636	-0.1486	
-0.94672	0.177998	-0.301584	-2.45	0.07	3.01	0.4696	-0.0589	-0.1487	
-0.939034	0.19032	-0.295728	-7.07	0.42	1.96	0.4655	-0.0621	-0.1516	
-0.93208	0.186782	-0.311222	-13.44	3.78	1.05	0.4682	-0.0636	-0.1487	
-0.923052	0.173972	-0.323422	-10.08	6.86	0.49	0.4681	-0.0541	-0.144	
-0.934398	0.183366	-0.307928	0.77	6.65	0.63	0.4683	-0.0652	-0.1502	
-0.953064	0.191174	-0.309392	0.7	6.23	1.05	0.4622	-0.0462	-0.1407	
-0.947818	0.187392	-0.304512	-1.12	5.74	0.42	0.4685	-0.0497	-0.1591	
-0.937814	0.185684	-0.311222	-8.96	4.62	-0.84	0.4667	-0.0542	-0.1455	
-0.927078	0.17873	-0.329034	-13.79	3.99	-1.33	0.4738	-0.0682	-0.1444	
-0.932812	0.18056	-0.347456	-10.57	3.92	-0.98	0.4696	-0.0526	-0.1486	
-0.942694	0.184952	-0.340624	-3.99	2.45	-0.63	0.4681	-0.0557	-0.144	
-0.94306	0.191906	-0.332816	-2.1	2.45	-0.49	0.4711	-0.0605	-0.1503	
-0.933422	0.190564	-0.34465	-2.17	4.9	-1.75	0.461	-0.0588	-0.1454	
-0.92659	0.18483	-0.353678	-2.17	5.6	-2.38	0.4677	-0.0508	-0.1334	
-0.930616	0.170556	-0.37027	-5.67	6.58	-2.38	0.4762	-0.0586	-0.1292	
-0.937814	0.175436	-0.383446	1.68	7.63	-1.05	0.4735	-0.0587	-0.1337	
-0.942694	0.186538	-0.360876	6.09	5.32	-0.7	0.4762	-0.0508	-0.1306	
-0.937204	0.186782	-0.375394	-0.98	4.9	-1.75	0.4751	-0.0541	-0.1412	
-0.928298	0.168848	-0.380884	-3.85	6.37	-2.38	0.4752	-0.0604	-0.1443	
-0.915366	0.16531	-0.398086	-2.45	5.74	-1.82	0.4736	-0.0572	-0.1367	
-0.908656	0.178364	-0.407724	2.8	5.88	-1.19	0.4693	-0.0603	-0.1381	
-0.912682	0.193736	-0.399062	5.74	6.44	-0.98	0.4706	-0.0524	-0.1335	
-0.926346	0.188612	-0.392352	0	5.32	-1.26	0.4734	-0.0587	-0.1321	
-0.924638	0.176046	-0.396012	-0.77	3.99	-0.49	0.4706	-0.0555	-0.132	
-0.921466	0.165188	-0.408212	0.14	3.92	0.21	0.4746	-0.0554	-0.1246	
-0.925858	0.162016	-0.420778	1.05	1.68	0.56	0.4721	-0.054	-0.1351	
-0.924638	0.165798	-0.435296	2.8	0.28	1.68	0.4674	-0.0538	-0.1228	
-0.920124	0.161162	-0.426512	7.35	-1.82	2.94	0.4721	-0.0493	-0.1365	
-0.937448	0.180926	-0.397964	14.49	-3.29	3.99	0.4763	-0.054	-0.1322	
-0.947818	0.192272	-0.374784	10.57	-3.08	2.38	0.4761	-0.0648	-0.1263	
-0.925614	0.18849	-0.36661	6.44	0.35	1.26	0.4692	-0.0681	-0.1337	
-0.915	0.179462	-0.3721	1.33	0.56	-0.21	0.4648	-0.0555	-0.1303	
-0.91866	0.186416	-0.373564	4.55	-1.54	-0.7	0.472	-0.054	-0.132	
-0.914024	0.19215	-0.403088	-5.67	-5.81	-1.4	0.4721	-0.0634	-0.1352	
-0.92964	0.208376	-0.373442	-3.71	-6.72	-1.26	0.4676	-0.0508	-0.1288	
-0.94428	0.212646	-0.34526	-2.17	-6.44	-1.4	0.4708	-0.0588	-0.1396	
-0.941718	0.198494	-0.345138	-5.32	-3.5	-2.94	0.4719	-0.0602	-0.1291	
-0.94062	0.186904	-0.346968	-7.7	-2.66	-3.64	0.4694	-0.0509	-0.1395	
-0.942328	0.177388	-0.33855	-9.03	-6.58	-4.06	0.4692	-0.0571	-0.135	
-0.943548	0.161894	-0.323178	-7.84	-8.96	-4.06	0.4762	-0.0524	-0.1306	
-0.940498	0.152256	-0.325618	-7.63	-8.12	-3.64	0.4766	-0.0526	-0.1443	
-0.94733	0.147376	-0.332938	-11.83	-7.42	-2.52	0.4693	-0.0478	-0.1379	
-0.953918	0.154086	-0.326838	-6.79	-9.24	-1.19	0.468	-0.051	-0.1409	
-0.946842	0.155306	-0.333182	-4.48	-10.78	0.14	0.4725	-0.0511	-0.1502	
-0.935984	0.158722	-0.342576	-0.84	-10.22	1.12	0.4656	-0.0496	-0.156	
-0.931226	0.166164	-0.338916	3.57	-11.13	2.59	0.4738	-0.0479	-0.1456	
-0.921832	0.175924	-0.340258	5.18	-10.71	3.57	0.4741	-0.0622	-0.1549	
-0.925858	0.178486	-0.340868	3.99	-9.1	4.97	0.4667	-0.0604	-0.1441	
-0.927566	0.18056	-0.342088	3.15	-8.19	6.16	0.4626	-0.0542	-0.1514	
-0.924394	0.182268	-0.33306	7.21	-7.63	7.07	0.4697	-0.0636	-0.1503	
-0.938302	0.188856	-0.326106	9.38	-5.25	7.28	0.4643	-0.0544	-0.1605	
-0.936716	0.185318	-0.335256	7.84	-5.25	6.86	0.474	-0.0574	-0.1518	
-0.938668	0.189466	-0.33123	10.92	-5.04	6.51	0.4702	-0.0623	-0.1654	
-0.939888	0.190198	-0.33428	8.61	-4.27	5.46	0.4726	-0.059	-0.1518	
-0.940864	0.186416	-0.333914	8.89	-3.92	4.97	0.4671	-0.0637	-0.1577	
-0.94428	0.187026	-0.32086	12.46	-4.48	4.83	0.4697	-0.0605	-0.1517	
-0.95404	0.193614	-0.301462	10.36	-3.92	3.99	0.4672	-0.0591	-0.1607	
-0.948794	0.200812	-0.294264	7.21	-3.78	3.64	0.4658	-0.0763	-0.1609	
-0.941962	0.194346	-0.308172	1.54	-0.98	3.22	0.4659	-0.0623	-0.1652	
-0.94062	0.186172	-0.324032	-0.21	-2.66	3.22	0.4644	-0.0654	-0.1622	
-0.950258	0.198738	-0.303536	1.82	-4.27	2.66	0.4629	-0.07	-0.1607	
-0.957944	0.200202	-0.28914	1.61	-5.6	2.24	0.4685	-0.0622	-0.1578	
-0.952454	0.19703	-0.294264	0.56	-5.11	1.61	0.4673	-0.0654	-0.1638	
-0.9516	0.19703	-0.29463	0	-5.53	1.12	0.4599	-0.07	-0.1561	
-0.951844	0.199592	-0.287432	-1.54	-6.51	1.05	0.4698	-0.0637	-0.1533	
-0.951234	0.194468	-0.288286	-2.66	-7.28	1.12	0.4701	-0.067	-0.1624	
-0.949526	0.194712	-0.289384	-2.31	-7.49	1.33	0.4716	-0.0686	-0.164	
-0.953064	0.199714	-0.295362	-2.52	-7.28	1.47	0.463	-0.0654	-0.1652	
-0.954528	0.196542	-0.29036	-2.45	-8.19	2.03	0.4716	-0.07009999	-0.164	
-0.951356	0.198128	-0.28487	-0.63	-8.61	2.38	0.4657	-0.0607	-0.1607	
-0.949404	0.195688	-0.284992	-0.84	-7.98	1.61	0.4644	-0.0623	-0.1652	
-0.949282	0.191662	-0.292068	-2.73	-8.05	0.84	0.4632	-0.0718	-0.1698	
-0.952576	0.189954	-0.288652	-3.08	-8.33	-0.28	0.4663	-0.0672	-0.179	
-0.951478	0.193492	-0.284992	-2.87	-8.19	-0.77	0.4635	-0.0673	-0.1819	
-0.95038	0.195322	-0.283284	-4.13	-6.86	-1.54	0.4648	-0.0656	-0.1774	
-0.954894	0.197762	-0.278892	-4.62	-6.3	-2.17	0.462	-0.0609	-0.1787	
-0.955626	0.200812	-0.272792	-5.04	-6.58	-2.8	0.4703	-0.0655	-0.1685	
-0.95526	0.20374	-0.269376	-5.6	-6.37	-3.22	0.4648	-0.0734	-0.1775	
-0.953796	0.203008	-0.263154	-7.14	-5.46	-3.43	0.4605	-0.0687	-0.1773	
-0.953308	0.204228	-0.266936	-7.21	-4.76	-3.43	0.4733	-0.0734	-0.1747	
-0.955992	0.201178	-0.264008	-7.77	-3.85	-3.5	0.4634	-0.0625	-0.1788	
-0.957456	0.198494	-0.25864	-7.21	-3.08	-3.36	0.4678	-0.0625	-0.1804	
-0.957212	0.194468	-0.261568	-7.91	-1.26	-3.43	0.4662	-0.0562	-0.1758	
-0.95526	0.19093	-0.262422	-6.79	-0.63	-3.36	0.4688	-0.0655	-0.1669	
-0.957334	0.189344	-0.25498	-5.6	-1.05	-3.22	0.4777	-0.06879999	-0.1793	
-0.95526	0.19032	-0.25925	-6.16	0.07	-3.36	0.4662	-0.0515	-0.1757	
-0.95648	0.188734	-0.260226	-5.6	1.05	-3.29	0.4634	-0.0546	-0.1772	
-0.9577	0.189222	-0.260958	-4.48	1.47	-3.22	0.4763	-0.0594	-0.1807	
-0.960994	0.18849	-0.249246	-2.87	0.84	-3.15	0.465	-0.0548	-0.1848	
-0.966484	0.19032	-0.242292	-1.96	0.49	-2.87	0.4676	-0.0562	-0.1743	
-0.965874	0.189466	-0.247782	-2.73	0.56	-2.59	0.4635	-0.0547	-0.1817	
-0.96441	0.185562	-0.25437	-3.22	0.21	-2.03	0.4649	-0.0609	-0.1788	
-0.957944	0.182268	-0.259738	-3.15	-0.07	-1.47	0.4646	-0.0514	-0.1711	
-0.958554	0.179828	-0.25681	-2.31	-0.14	-0.91	0.4695	-0.0643	-0.1896	
-0.963556	0.185562	-0.24888	-0.77	-0.84	-0.42	0.4578	-0.0532	-0.183	
-0.962214	0.186172	-0.25925	-0.77	0.91	0.14	0.4635	-0.061	-0.1818	
-0.963678	0.185318	-0.26474	-0.56	1.12	0.28	0.4578	-0.0563	-0.1815	
-0.968192	0.184952	-0.25925	0.77	0.14	0.7	0.4665	-0.0532	-0.1848	
-0.961482	0.18605	-0.262422	1.4	0.28	0.98	0.4647	-0.0468	-0.174	
-0.957822	0.185928	-0.264496	0.7	0.77	1.05	0.4662	-0.0531	-0.1772	
-0.958554	0.188246	-0.267912	0.21	1.19	1.05	0.4635	-0.0531	-0.1802	
-0.960018	0.189466	-0.265472	0.77	1.19	0.84	0.4678	-0.0532	-0.1833	
-0.959896	0.19154	-0.261324	0.98	1.54	0.63	0.4535	-0.0484	-0.1813	
-0.962824	0.192882	-0.263032	0.28	2.17	0.35	0.4608	-0.0595	-0.1877	
-0.963068	0.190686	-0.263398	-0.07	1.47	0.21	0.4604	-0.0483	-0.1739	
-0.95892	0.189832	-0.267912	-0.07	1.61	0.07	0.4592	-0.0531	-0.1815	
-0.96014	0.192394	-0.262788	0.21	1.4	-0.21	0.4619	-0.0562	-0.1771	
-0.961482	0.194468	-0.263886	-0.84	1.54	-0.56	0.4718	-0.0546	-0.1714	
-0.962702	0.195078	-0.259494	-0.7	1.19	-0.91	0.4649	-0.0516	-0.1802	
-0.964044	0.196664	-0.265838	-2.45	1.05	-1.19	0.4676	-0.0578	-0.1758	
-0.956968	0.192394	-0.270474	-3.01	1.05	-1.12	0.4718	-0.0484	-0.1743	
-0.957578	0.18971	-0.263642	-2.38	0	-1.12	0.4674	-0.0561	-0.1682	
-0.958676	0.188002	-0.258884	-1.82	0	-1.12	0.4619	-0.0468	-0.177	
-0.95892	0.190076	-0.25986	-1.82	0.63	-1.19	0.4692	-0.05	-0.1818	
-0.96075	0.187636	-0.25742	-1.89	0.35	-1.19	0.4622	-0.0563	-0.1847	
-0.959042	0.188856	-0.261934	-1.96	0.84	-1.05	0.4607	-0.0578	-0.1817	
-0.960506	0.188612	-0.267302	-2.17	1.12	-0.84	0.4678	-0.0563	-0.1819	
-0.959652	0.18971	-0.2684	-1.4	0.42	-0.77	0.4634	-0.0562	-0.1772	
-0.960262	0.188368	-0.261568	-0.91	0.14	-0.7	0.4623	-0.0595	-0.1878	
-0.961482	0.187148	-0.25925	-0.91	0.56	-0.56	0.4591	-0.0531	-0.1785	
-0.96136	0.188002	-0.259494	-0.98	0.84	-0.28	0.4664	-0.0532	-0.1818	
-0.959042	0.186172	-0.267546	-0.35	0.63	-0.07	0.4663	-0.05	-0.1787	
-0.960872	0.187758	-0.264862	0	-0.21	-0.07	0.4636	-0.0469	-0.1846	
-0.96197	0.188246	-0.265106	-0.84	-0.21	-0.28	0.4663	-0.0469	-0.1817	
-0.959652	0.188002	-0.268888	-0.28	0	-0.21	0.4591	-0.0531	-0.1785	
-0.95953	0.188856	-0.269986	0.07	0.14	-0.14	0.4548	-0.0452	-0.1767	
-0.960018	0.188002	-0.267302	0.42	0.28	-0.35	0.4592	-0.05	-0.1815	
-0.960506	0.190442	-0.266204	0.07	0.7	-0.42	0.4677	-0.0547	-0.1788	
-0.96136	0.190442	-0.266448	0.49	0.84	-0.35	0.4692	-0.0516	-0.1818	
-0.957334	0.190076	-0.271206	0.42	0.7	-0.35	0.4665	-0.0548	-0.1848	
-0.956846	0.192272	-0.27023	1.68	0.7	-0.07	0.4652	-0.0517	-0.1893	
-0.95953	0.193004	-0.268644	1.96	0.98	0.07	0.4607	-0.0579	-0.1832	
-0.958432	0.191784	-0.272426	0.98	0.77	0.14	0.4589	-0.0452	-0.1723	
-0.955992	0.190076	-0.277794	0.21	1.33	0.14	0.469	-0.0468	-0.1742	
-0.958798	0.188978	-0.27206	0.07	1.19	0.35	0.4664	-0.0563	-0.1818	
-0.95831	0.182878	-0.269986	0.35	1.26	0.77	0.462	-0.05	-0.1801	
-0.957456	0.181902	-0.277428	0.56	2.38	0.98	0.462	-0.05	-0.1785	
-0.961238	0.176412	-0.267424	3.29	1.26	1.4	0.4691	-0.05	-0.1788	
-0.956236	0.170434	-0.261446	5.6	1.26	2.1	0.4665	-0.0563	-0.1848	
-0.964532	0.171288	-0.271694	6.93	1.12	3.08	0.4704	-0.0468	-0.1757	
-0.962824	0.175802	-0.268522	9.1	-0.7	3.85	0.4735	-0.0516	-0.182	
-0.96136	0.180804	-0.265838	8.26	-1.26	3.99	0.4618	-0.0624	-0.1727	
-0.964044	0.191174	-0.266692	8.19	-1.54	3.85	0.4578	-0.0547	-0.1815	
-0.962824	0.195322	-0.268156	6.93	-3.08	3.78	0.465	-0.0579	-0.1833	
-0.95465	0.19947	-0.262056	6.44	-3.78	3.99	0.4576	-0.0655	-0.1741	
-0.957334	0.205692	-0.262544	4.55	-2.24	3.71	0.4606	-0.0531	-0.1786	
-0.95526	0.209962	-0.264984	1.96	-1.19	2.45	0.4578	-0.0594	-0.1801	
-0.949404	0.209962	-0.261324	-0.35	-0.35	0.56	0.4604	-0.0546	-0.1725	
-0.962458	0.214964	-0.261324	-4.9	0.77	-1.75	0.4681	-0.0612	-0.1925	
-0.959164	0.218502	-0.264374	-8.89	1.19	-4.9	0.4579	-0.061	-0.1862	
-0.964044	0.215086	-0.26779	-13.23	2.38	-8.33	0.4605	-0.0562	-0.1756	
-0.95892	0.200324	-0.27023	-17.43	3.15	-10.5	0.4589	-0.0545	-0.171	
-0.961848	0.190564	-0.269986	-18.55	5.11	-11.76	0.4607	-0.0579	-0.1832	
-0.956236	0.18727	-0.273524	-18.06	6.51	-12.04	0.469	-0.0593	-0.1744	
-0.960262	0.180072	-0.28182	-16.17	6.72	-11.41	0.4632	-0.0499	-0.1725	
-0.961238	0.180316	-0.276086	-11.48	5.32	-9.87	0.476	-0.0389	-0.1698	
-0.956358	0.17019	-0.277428	-8.75	4.97	-8.12	0.4632	-0.0452	-0.1725	
-0.956114	0.162016	-0.284016	-8.4	4.83	-6.09	0.4634	-0.0343	-0.1799	
-0.957578	0.152622	-0.284626	-4.06	2.38	-2.59	0.4662	-0.039	-0.177	
-0.959896	0.155916	-0.283406	-1.12	1.12	-0.84	0.4749	-0.0344	-0.1833	
-0.96258	0.158478	-0.281454	2.66	1.12	0.35	0.4692	-0.0453	-0.1817	
-0.962824	0.164212	-0.272792	4.97	0.63	0.84	0.4789	-0.0437	-0.1729	
-0.96258	0.16836	-0.275476	5.67	0.77	1.54	0.4535	-0.0437	-0.1812	
-0.962092	0.171898	-0.279502	5.88	0	2.31	0.4676	-0.0374	-0.177	
-0.958066	0.173972	-0.277916	6.65	-1.33	3.15	0.4689	-0.0452	-0.1711	
-0.95831	0.179218	-0.279258	6.44	-1.75	3.85	0.4664	-0.0281	-0.1844	
-0.95831	0.183732	-0.279258	5.67	-1.61	4.13	0.4688	-0.0436	-0.1681	
-0.958066	0.185562	-0.277184	5.88	-1.96	4.34	0.4719	-0.0453	-0.1773	
-0.957944	0.18849	-0.275354	6.86	-2.38	4.34	0.4602	-0.0373	-0.1677	
-0.956602	0.190198	-0.271206	6.58	-2.45	3.92	0.4605	-0.053	-0.1755	
-0.957212	0.190686	-0.268766	4.9	-2.17	3.22	0.4734	-0.0484	-0.1774	
-0.95953	0.190198	-0.269864	2.94	-1.82	2.38	0.4631	-0.0451	-0.1694	
-0.965508	0.192028	-0.264496	1.68	-2.24	1.82	0.4692	-0.0484	-0.1803	
-0.961604	0.188856	-0.266692	-0.35	-1.89	1.12	0.4704	-0.0437	-0.1757	
-0.960384	0.183732	-0.272426	-0.28	-1.68	0.7	0.4619	-0.0468	-0.1755	
-0.963556	0.182146	-0.26962	0.7	-2.03	0.56	0.4689	-0.0389	-0.1726	
-0.960384	0.177632	-0.263764	2.03	-2.31	0.35	0.4617	-0.0514	-0.171	
-0.953918	0.17812	-0.278892	2.52	-0.28	0.63	0.4695	-0.0549	-0.1895	
-0.958798	0.178608	-0.270596	3.92	-1.26	1.19	0.4561	-0.0514	-0.1738	
-0.955138	0.177144	-0.271328	4.34	-0.84	1.68	0.4692	-0.0407	-0.1832	
-0.955138	0.176168	-0.275842	4.69	-0.21	2.03	0.4622	-0.0548	-0.1847	
-0.96075	0.179828	-0.271694	6.3	-0.42	2.52	0.4635	-0.0516	-0.1816	
-0.959286	0.182268	-0.27145	6.72	-0.35	3.08	0.4661	-0.0593	-0.1728	
-0.961482	0.183	-0.270474	6.86	0.28	3.57	0.4633	-0.0483	-0.174	
-0.960628	0.183854	-0.27084	6.3	0.21	4.06	0.4644	-0.0482	-0.1635	
-0.958188	0.184464	-0.270474	5.67	0.21	4.62	0.4661	-0.0593	-0.1728	
-0.957822	0.184586	-0.272426	5.88	-0.28	5.04	0.4574	-0.0623	-0.1695	
-0.959774	0.185074	-0.271084	6.3	-1.05	5.39	0.462	-0.0516	-0.1801	
-0.959164	0.18605	-0.27389	7.35	-2.03	5.88	0.4617	-0.0655	-0.1697	
-0.955016	0.1891	-0.27267	7.7	-1.96	5.95	0.4606	-0.0594	-0.1802	
-0.954772	0.187758	-0.273036	9.66	-2.31	6.79	0.4618	-0.0499	-0.1725	
-0.955992	0.200812	-0.27023	8.82	-2.38	6.23	0.4646	-0.0624	-0.1713	
-0.954162	0.203496	-0.274744	7.49	-1.61	5.11	0.4563	-0.0672	-0.1801	
-0.958554	0.205814	-0.274622	6.02	-1.12	4.48	0.4678	-0.0579	-0.1834	
-0.956236	0.208132	-0.273036	6.3	-2.03	3.99	0.4693	-0.0579	-0.185	
-0.955382	0.209474	-0.271328	3.92	-1.61	2.45	0.4677	-0.0609	-0.1789	
-0.95526	0.20801	-0.269254	1.89	-1.05	1.12	0.4561	-0.064	-0.1725	
-0.952698	0.20435	-0.271694	0.28	-0.35	-0.07	0.4648	-0.0687	-0.1774	
-0.952454	0.200324	-0.273524	-0.84	0.21	-0.84	0.4649	-0.06879999	-0.1789	
-0.956114	0.198616	-0.273646	-1.33	0.7	-1.26	0.4634	-0.0625	-0.1773	
-0.958554	0.196786	-0.27084	-1.75	1.12	-1.82	0.469	-0.0671	-0.1745	
-0.956358	0.19398	-0.270474	-1.54	1.68	-2.31	0.4688	-0.0577	-0.1683	
-0.956846	0.191296	-0.27084	-1.54	2.17	-2.73	0.4706	-0.0625	-0.179	
-0.956968	0.191174	-0.269742	-1.82	2.1	-2.73	0.4635	-0.0625	-0.1803	
-0.955992	0.189222	-0.274134	-2.24	2.1	-2.59	0.4662	-0.0578	-0.1758	
-0.959286	0.187514	-0.27145	-1.82	1.68	-2.31	0.467	-0.0637	-0.1547	
-0.962214	0.189588	-0.271572	-1.68	1.47	-2.1	0.4677	-0.0594	-0.1774	
-0.961604	0.18788	-0.272426	-1.47	1.26	-1.75	0.4635	-0.061	-0.1818	
-0.960018	0.187514	-0.273158	-1.54	0.77	-1.4	0.4636	-0.061	-0.1833	
-0.958798	0.185684	-0.27328	-1.75	0.21	-1.05	0.4649	-0.0563	-0.1803	
-0.9577	0.184342	-0.274012	-1.96	-0.35	-0.7	0.4633	-0.0578	-0.1757	
-0.956724	0.183854	-0.277184	-1.4	-0.56	-0.21	0.4576	-0.0577	-0.174	
-0.95709	0.185562	-0.276574	-1.26	-0.49	0.07	0.4607	-0.0594	-0.1832	
-0.959042	0.187026	-0.272548	-0.84	-0.35	0.49	0.4631	-0.0623	-0.1667	
-0.96136	0.190076	-0.26657	-1.12	-0.28	0.63	0.4634	-0.0453	-0.18	
-0.959164	0.188124	-0.269376	-1.75	-0.28	0.7	0.4579	-0.0532	-0.1845	
-0.959408	0.189466	-0.270474	-1.54	-1.26	0.98	0.4622	-0.0595	-0.1848	
-0.962336	0.189832	-0.268278	-1.54	-1.61	1.26	0.4636	-0.0626	-0.1833	
-0.960994	0.19093	-0.26962	-1.4	-2.17	1.54	0.462	-0.0594	-0.1787	
-0.959164	0.193492	-0.270108	-0.77	-2.38	1.54	0.4694	-0.0533	-0.1894	
-0.95526	0.193858	-0.274256	-0.84	-2.38	1.54	0.4636	-0.0689	-0.1849	
-0.956114	0.197518	-0.274866	-0.84	-1.96	1.33	0.4707	-0.0532	-0.1834	
-0.955626	0.199836	-0.269376	-0.63	-1.89	1.19	0.4592	-0.0578	-0.1816	
-0.955016	0.198372	-0.272548	-1.54	-1.19	0.98	0.4647	-0.0577	-0.1727	
-0.95099	0.197518	-0.271572	-1.05	-0.28	0.7	0.4606	-0.0516	-0.18	
-0.956236	0.198494	-0.269376	0.28	1.12	0.63	0.4623	-0.0705	-0.1895	
-0.953674	0.20069	-0.273036	-0.28	1.19	0.7	0.4622	-0.0611	-0.1863	
-0.954772	0.204106	-0.274622	-0.56	1.54	0.49	0.4722	-0.0548	-0.185	
-0.956358	0.20313	-0.27145	-1.96	2.17	0.14	0.4608	-0.0657	-0.1863	
-0.9577	0.202276	-0.268034	-2.94	2.87	0	0.4634	-0.0687	-0.1774	
-0.958676	0.2013	-0.263276	-4.34	2.73	0	0.4579	-0.0626	-0.1831	
-0.959286	0.205936	-0.263764	-6.65	0.98	-1.33	0.4619	-0.064	-0.1757	
-0.955748	0.20923	-0.265594	-6.72	0.35	-2.1	0.4619	-0.0609	-0.1757	
-0.955748	0.203618	-0.26779	-8.61	1.26	-2.45	0.462	-0.0609	-0.1772	
-0.959652	0.200324	-0.270352	-8.47	2.31	-2.1	0.4636	-0.0563	-0.1848	
-0.956358	0.196176	-0.275598	-10.22	3.08	-2.1	0.4647	-0.0561	-0.1727	
-0.952454	0.19215	-0.280234	-7.49	3.22	-2.24	0.4672	-0.0576	-0.1622	
-0.953796	0.192882	-0.272548	-4.2	2.66	-2.31	0.456	-0.0545	-0.1693	
-0.951234	0.191418	-0.270962	-5.04	3.78	-2.52	0.4619	-0.0578	-0.1772	
-0.951844	0.192028	-0.272792	-4.34	4.55	-2.31	0.4677	-0.0563	-0.1788	
-0.952698	0.195078	-0.273524	-2.87	4.41	-1.82	0.4606	-0.0594	-0.1786	
-0.953918	0.19581	-0.273158	-1.54	3.71	-1.12	0.4676	-0.0546	-0.1758	
-0.957212	0.20191	-0.267424	0.77	3.08	-0.49	0.4649	-0.0516	-0.1802	
-0.960262	0.20313	-0.266692	0.98	2.03	0.21	0.4648	-0.064	-0.1758	
-0.959652	0.200446	-0.268278	1.75	1.61	0.63	0.4662	-0.0578	-0.1773	
-0.956846	0.202154	-0.26962	2.03	0.77	0.77	0.4661	-0.0499	-0.1726	
-0.958554	0.204716	-0.271084	2.38	0.63	0.91	0.4573	-0.0576	-0.1649	
-0.954772	0.200934	-0.27633	0.49	0.49	0.56	0.4675	-0.0468	-0.1726	
-0.95343	0.198738	-0.278404	0.77	0	0.49	0.4527	-0.0558	-0.1556	
-0.954894	0.199836	-0.279746	1.96	0.07	0.49	0.4604	-0.0514	-0.1725	
-0.953796	0.199958	-0.279014	1.82	0.28	0.49	0.469	-0.0593	-0.1744	
-0.95038	0.199714	-0.284748	0.14	2.17	-0.21	0.4677	-0.0563	-0.1788	
-0.950624	0.19764	-0.289384	-0.77	2.59	-0.7	0.4559	-0.0545	-0.1663	
-0.95282	0.196176	-0.285846	-0.56	3.01	-0.77	0.4689	-0.053	-0.1713	
-0.949892	0.194712	-0.288408	-0.98	3.78	-0.98	0.4674	-0.0561	-0.1682	
-0.953308	0.19703	-0.28853	-0.35	3.78	-0.84	0.4702	-0.0514	-0.1682	
-0.955504	0.197396	-0.284992	0.63	2.87	-0.63	0.4674	-0.0514	-0.1697	
-0.952332	0.194834	-0.285358	-0.21	2.73	-0.49	0.4674	-0.0608	-0.1683	
-0.954284	0.192394	-0.28426	-0.49	1.96	-0.21	0.4704	-0.0468	-0.1757	
-0.953674	0.188978	-0.284626	0.07	1.54	0.07	0.4618	-0.0499	-0.174	
-0.955748	0.188612	-0.285114	0.91	0.91	0.21	0.4648	-0.0578	-0.1757	
-0.955992	0.191174	-0.285724	1.96	0.28	0.35	0.4661	-0.0593	-0.1728	
-0.954528	0.193492	-0.28914	2.73	-0.14	0.7	0.4601	-0.0466	-0.1648	
-0.952454	0.195932	-0.287554	3.08	-0.84	0.84	0.4687	-0.0591	-0.1638	
-0.953796	0.198738	-0.285358	2.73	-1.26	0.98	0.4675	-0.0577	-0.1713	
-0.949892	0.199592	-0.287676	2.24	-1.47	1.12	0.4649	-0.0609	-0.1788	
-0.951722	0.2013	-0.288042	2.73	-1.75	1.4	0.4703	-0.0639	-0.1684	
-0.952088	0.203496	-0.287066	2.45	-1.47	1.75	0.4547	-0.0593	-0.1739	
-0.95282	0.203496	-0.288042	1.96	-1.47	1.54	0.46	-0.0591	-0.1605	
-0.95099	0.202398	-0.287188	0.7	-1.33	1.12	0.4702	-0.053	-0.1683	
-0.95221	0.201422	-0.28548	0.07	-1.26	0.7	0.4702	-0.0654	-0.1654	
-0.95404	0.197152	-0.284992	-1.19	-1.19	0.28	0.4687	-0.0623	-0.1638	
-0.953186	0.194834	-0.282552	-1.33	-0.98	-0.07	0.4617	-0.0624	-0.1697	
-0.95465	0.19398	-0.282796	-1.47	-0.49	-0.35	0.4648	-0.0562	-0.1772	
-0.953186	0.195932	-0.27999	-1.54	-0.28	-0.35	0.4673	-0.0545	-0.1667	
-0.95282	0.198616	-0.281332	-1.82	-0.7	-0.07	0.4644	-0.0513	-0.165	
-0.95465	0.199836	-0.279502	-1.54	-1.05	0.14	0.4673	-0.0623	-0.1653	
-0.953674	0.200568	-0.282552	-0.84	-1.19	0.49	0.4705	-0.0531	-0.1758	
-0.953308	0.198006	-0.27938	-0.42	-1.19	0.91	0.4631	-0.0483	-0.1695	
-0.954894	0.195688	-0.27389	-0.28	-1.4	1.12	0.4675	-0.0514	-0.1712	
-0.953064	0.198006	-0.269742	1.26	-1.33	1.47	0.469	-0.0546	-0.1743	
-0.954406	0.195444	-0.273036	0.77	-0.49	2.1	0.4602	-0.0607	-0.1666	
-0.956358	0.198616	-0.27511	-1.19	-1.12	1.82	0.4617	-0.053	-0.1695	
-0.956114	0.205814	-0.289994	-0.91	-0.7	2.1	0.4705	-0.0578	-0.1759	
-0.952698	0.207644	-0.296704	1.4	-2.03	2.66	0.475	-0.0579	-0.1851	
-0.956236	0.206424	-0.280844	3.71	-4.83	2.8	0.4591	-0.0656	-0.1757	
-0.953186	0.200934	-0.27145	3.15	-3.36	2.45	0.4647	-0.0609	-0.1743	
-0.950624	0.199714	-0.272426	2.31	-2.24	2.1	0.4618	-0.0514	-0.1725	
-0.950014	0.203618	-0.272548	2.17	-1.82	1.96	0.469	-0.0577	-0.1728	
-0.949404	0.20679	-0.27572	0.98	-2.24	1.75	0.469	-0.0577	-0.1744	
-0.954162	0.211182	-0.271206	1.12	-2.24	1.75	0.4591	-0.0672	-0.1772	
-0.953308	0.214232	-0.271938	0.77	-1.75	1.68	0.4632	-0.0608	-0.1697	
-0.955138	0.213378	-0.27084	1.12	-1.54	1.75	0.4579	-0.061	-0.1846	
-0.954406	0.212158	-0.269132	1.19	-0.98	1.75	0.455	-0.0672	-0.1816	
-0.95404	0.21045	-0.26657	1.05	-0.91	1.82	0.4652	-0.0595	-0.1894	
-0.953186	0.207766	-0.268034	0.63	-0.77	1.89	0.4635	-0.0657	-0.1804	
-0.953552	0.203984	-0.269376	1.19	-0.49	2.17	0.455	-0.0563	-0.1845	
-0.954528	0.204838	-0.2684	2.52	-0.63	2.52	0.4664	-0.0657	-0.182	
-0.95587	0.204838	-0.271816	2.73	-0.63	2.59	0.4604	-0.0593	-0.1726	
-0.95282	0.208132	-0.274134	3.15	-0.56	2.59	0.4635	-0.0563	-0.1802	
-0.955382	0.209352	-0.271694	3.64	-0.91	2.66	0.4689	-0.0687	-0.1715	
-0.954162	0.210084	-0.271328	3.5	-1.05	2.59	0.469	-0.0546	-0.1758	
-0.954162	0.20862	-0.272182	3.01	-0.84	2.38	0.4576	-0.0577	-0.174	
-0.9516	0.213012	-0.272426	3.71	-0.21	2.24	0.472	-0.06879999	-0.1776	
-0.95099	0.212524	-0.26718	3.5	0.14	1.4	0.4649	-0.0704	-0.1805	
-0.948062	0.216428	-0.278648	3.08	1.19	1.12	0.4648	-0.075	-0.176	
-0.948306	0.21716	-0.282552	2.45	1.4	1.12	0.4593	-0.06879999	-0.1833	
-0.951844	0.218624	-0.270596	3.29	0.49	1.4	0.4719	-0.0687	-0.1761	
-0.95038	0.217404	-0.268888	2.73	1.26	1.47	0.4577	-0.0672	-0.1772	
-0.952698	0.21716	-0.271084	2.94	1.19	1.54	0.4663	-0.0625	-0.1804	
-0.9516	0.218258	-0.271694	2.73	0.7	1.61	0.4622	-0.0642	-0.1848	
-0.953186	0.21777	-0.269498	2.24	0.49	1.4	0.4561	-0.0718	-0.1726	
-0.949404	0.216062	-0.273036	1.12	0.42	1.12	0.462	-0.0656	-0.1788	
-0.949648	0.215086	-0.272792	2.03	0.42	1.05	0.4576	-0.0718	-0.1727	
-0.950746	0.216184	-0.269254	2.59	0.42	0.91	0.4637	-0.0611	-0.1879	
-0.953918	0.218014	-0.268278	2.31	0.56	0.77	0.4632	-0.0702	-0.1698	
-0.951234	0.215208	-0.273158	1.26	1.05	0.49	0.4689	-0.0655	-0.1699	
-0.948428	0.213134	-0.281332	1.68	0.98	0.35	0.4633	-0.0671	-0.1743	
-0.951722	0.218502	-0.276208	3.36	0.07	0.28	0.466	-0.0639	-0.1698	
-0.945988	0.219722	-0.280966	1.89	0.14	0	0.4674	-0.0639	-0.1668	
-0.945378	0.220332	-0.290116	0.56	0.49	-0.77	0.4604	-0.0702	-0.1728	
-0.94977	0.220088	-0.280478	1.12	-0.91	-1.4	0.4646	-0.0608	-0.1697	
-0.963922	0.22143	-0.268278	-0.56	-1.05	-2.52	0.462	-0.0719	-0.1789	
-0.967704	0.221796	-0.27206	-3.5	-2.24	-3.08	0.4688	-0.067	-0.1684	
-0.96075	0.22143	-0.28304	-4.34	-4.83	-2.87	0.4648	-0.0672	-0.1774	
-0.96197	0.227896	-0.272792	-0.98	-9.45	-3.57	0.4605	-0.0609	-0.1772	
-0.974414	0.222772	-0.249734	-4.27	-12.32	-5.18	0.469	-0.0624	-0.1729	
-0.974536	0.218258	-0.265472	-12.88	-10.57	-5.95	0.4689	-0.0546	-0.1713	
-0.975024	0.207766	-0.294142	-16.66	-10.29	-5.53	0.4647	-0.0624	-0.1743	
-0.977098	0.206058	-0.296338	-10.99	-12.6	-4.62	0.4649	-0.0563	-0.1818	
-0.978562	0.216428	-0.28426	-1.05	-16.31	-4.06	0.4526	-0.0659	-0.1966	
-0.966484	0.225212	-0.270352	-2.59	-19.04	-3.36	0.4707	-0.0564	-0.185	
-0.961482	0.219478	-0.265838	-4.13	-18.34	-2.24	0.4582	-0.0643	-0.1953	
-0.958066	0.205448	-0.259982	-6.37	-17.64	-0.49	0.4671	-0.0629	-0.2062	
-0.961116	0.1952	-0.251198	-8.54	-17.85	0.84	0.4542	-0.0582	-0.2041	
-0.973438	0.195932	-0.234484	-8.61	-19.25	1.26	0.4557	-0.0535	-0.2056	
-0.98332	0.19825	-0.210694	-9.17	-20.79	1.33	0.4614	-0.0567	-0.2059	
-0.99491	0.198738	-0.193004	-10.43	-21.21	1.4	0.4627	-0.0535	-0.2028	
-1.011624	0.198006	-0.159332	-10.57	-23.38	1.54	0.4614	-0.0551	-0.2074	
-1.025532	0.21045	-0.129198	-10.29	-29.47	2.38	0.4531	-0.0615	-0.2148	
-1.004182	0.213256	-0.127612	-12.25	-35.63	4.83	0.4549	-0.0523	-0.2268	
-0.920978	0.199592	-0.219844	-15.96	-34.09	5.6	0.4554	-0.0619	-0.2421	
-0.957944	0.216794	-0.225822	6.65	-27.65	5.67	0.4524	-0.0571	-0.2374	
-0.998082	0.244732	-0.146522	5.67	-36.26	4.55	0.4453	-0.0618	-0.2387	
-0.998082	0.241438	-0.12261	-2.59	-34.58	2.66	0.4385	-0.0589	-0.2506	
-1.003816	0.22387	-0.108214	-12.25	-31.5	-0.63	0.4443	-0.0574	-0.2537	
-0.994422	0.212036	-0.107238	-18.62	-31.71	-2.38	0.4414	-0.0605	-0.2522	
-0.992226	0.1952	-0.127124	-28.63	-31.64	-2.73	0.4444	-0.059	-0.2583	
-0.975268	0.193248	-0.144204	-24.29	-34.58	-3.22	0.4402	-0.0481	-0.2626	
-0.975024	0.189344	-0.177144	-21.63	-32.2	-3.64	0.4416	-0.0606	-0.2598	
-1.02114	0.229726	-0.107604	0.42	-40.04	-3.08	0.4432	-0.0466	-0.2672	
-1.016626	0.243268	-0.039406	1.54	-43.26	-1.26	0.432	-0.042	-0.2743	
-0.9882	0.245342	-0.046482	-11.97	-39.2	-1.4	0.4264	-0.0467	-0.2772	
-0.990396	0.209352	-0.073322	-26.53	-33.95	-3.43	0.4327	-0.0565	-0.2957	
-1.029192	0.232044	-0.114314	-8.61	-28.98	-3.78	0.4184	-0.0486	-0.2936	
-1.040416	0.234484	-0.063196	4.97	-36.12	-5.39	0.4272	-0.0503	-0.303	
-1.003938	0.208376	0.000976	5.81	-42.14	-8.33	0.4283	-0.0486	-0.2924	
-0.96319	0.174582	0.045018	-0.28	-43.82	-7.84	0.4133	-0.0473	-0.3162	
-0.96502	0.181292	0.071004	-4.34	-39.41	-5.6	0.4106	-0.0505	-0.3191	
-0.979538	0.17751	0.09857599	-17.43	-31.5	-3.5	0.4178	-0.0412	-0.3238	
-0.974536	0.185196	0.108336	-19.39	-27.44	-5.53	0.3981	-0.046	-0.3308	
-0.953552	0.173606	0.115168	-15.05	-29.47	-6.09	0.4066	-0.035	-0.3324	
-0.934032	0.179218	0.133102	-5.11	-31.92	-5.11	0.4055	-0.0321	-0.3429	
-0.943426	0.180194	0.1647	-1.61	-38.36	-3.57	0.401	-0.0335	-0.3352	
-0.956846	0.181536	0.205814	-0.21	-37.59	-1.33	0.3931	-0.0307	-0.3561	
-0.9699	0.193248	0.211182	-10.15	-33.18	-0.42	0.3902	-0.0338	-0.3545	
-0.963556	0.187148	0.174948	-15.75	-26.11	0.35	0.3846	-0.0338	-0.3589	
-0.958188	0.174216	0.146888	-13.37	-26.46	1.12	0.3773	-0.0275	-0.354	
-0.959896	0.164822	0.178608	1.47	-34.86	3.01	0.379	-0.037	-0.3633	
-0.96685	0.197884	0.227774	11.62	-39.97	3.08	0.3847	-0.0402	-0.362	
-0.991616	0.207278	0.228384	0.28	-31.08	2.17	0.3806	-0.0355	-0.3679	
-0.991982	0.207156	0.19093	-7.84	-27.02	1.47	0.3806	-0.034	-0.3694	
-0.976976	0.195444	0.196542	-4.34	-33.6	2.24	0.3708	-0.034	-0.3736	
-0.956846	0.201178	0.234606	1.82	-38.92	2.52	0.375	-0.0262	-0.3736	
-0.935984	0.194712	0.249002	-3.08	-33.04	2.03	0.3551	-0.0371	-0.3731	
-0.946964	0.181902	0.262544	-7.42	-29.33	0.91	0.3582	-0.0342	-0.3838	
-0.939888	0.190808	0.283772	-6.58	-24.85	0.98	0.3582	-0.0216	-0.3836	
-0.93025	0.208254	0.307074	-8.12	-22.61	0.7	0.3571	-0.0296	-0.3943	
-0.930006	0.22204	0.310978	-11.2	-18.97	0.63	0.36	-0.0328	-0.3959	
-0.914634	0.211792	0.31049	-14.84	-19.46	0.7	0.3532	-0.0298	-0.4062	
-0.908046	0.176656	0.320494	-19.95	-17.78	-0.14	0.3433	-0.0283	-0.4089	
-0.92171	0.163114	0.315858	-19.39	-10.57	-0.91	0.3491	-0.0252	-0.4136	
-0.93391	0.162382	0.34892	-9.73	-7.56	-0.56	0.3403	-0.0188	-0.4057	
-0.932812	0.148108	0.359168	-10.57	-5.18	0.21	0.349	-0.0283	-0.4076	
-0.927322	0.141886	0.348188	-6.23	-3.36	1.33	0.346	-0.0251	-0.4044	
-0.914146	0.150792	0.353678	3.92	-2.52	2.17	0.3462	-0.0252	-0.412	
-0.903654	0.163114	0.351482	6.72	3.29	2.17	0.3375	-0.0282	-0.4057	
-0.898164	0.171288	0.357094	7.91	7.56	2.03	0.3447	-0.0361	-0.4061	
-0.889136	0.167994	0.362218	8.19	12.74	1.89	0.3459	-0.0313	-0.4	
-0.882182	0.16592	0.346358	7.42	18.97	1.47	0.3429	-0.0265	-0.3968	
-0.884378	0.163114	0.329156	10.64	23.94	0.98	0.3546	-0.0298	-0.4048	
-0.883036	0.164212	0.31781	12.53	30.24	-0.14	0.3547	-0.0252	-0.4093	
-0.888282	0.169824	0.289994	12.81	35.84	-0.98	0.3572	-0.036	-0.3974	
-0.883036	0.176656	0.259372	15.61	39.41	-1.61	0.3571	-0.0281	-0.3927	
-0.898408	0.190198	0.23302	22.96	43.4	-1.19	0.3783	-0.0217	-0.3857	
-0.9028	0.192882	0.20435	24.85	47.18	-1.33	0.3723	-0.0372	-0.3767	
-0.92598	0.2135	0.182268	31.08	46.97	-0.63	0.3708	-0.0403	-0.3737	
-0.94306	0.235948	0.179706	36.96	44.03	-0.21	0.3749	-0.0324	-0.3676	
-0.96563	0.25559	0.177632	32.41	48.37	-0.21	0.3918	-0.0449	-0.3608	
-0.995398	0.26474	0.150182	18.83	58.52	-1.05	0.3931	-0.0463	-0.3548	
-1.022238	0.246318	0.122488	9.45	65.73	-2.24	0.4012	-0.0492	-0.34	
-1.017968	0.237534	0.104188	5.25	66.01	-3.08	0.4042	-0.0478	-0.3461	
-1.003206	0.217892	0.079666	1.33	65.94	-2.17	0.4123	-0.046	-0.3312	
-0.995764	0.191174	0.044896	1.19	63.63	-2.73	0.4107	-0.049	-0.3252	
-0.986858	0.179706	0.01891	5.18	58.1	-4.06	0.4205	-0.0474	-0.3179	
-1.011502	0.174216	0.000122	1.68	58.17	-5.39	0.4159	-0.0457	-0.3086	
-1.022116	0.177632	-0.011468	2.73	54.46	-6.09	0.4227	-0.0439	-0.2952	
-1.028826	0.174948	-0.035624	1.61	53.34	-5.74	0.4223	-0.039	-0.2845	
-1.030534	0.16531	-0.046238	7.98	47.39	-5.88	0.4335	-0.0436	-0.2744	
-1.009428	0.159332	-0.068808	7.14	42.98	-6.37	0.4348	-0.0498	-0.27	
-1.019798	0.153354	-0.098698	9.17	41.02	-6.72	0.4391	-0.0342	-0.2744	
-1.021628	0.14945	-0.104798	13.37	38.01	-6.37	0.4429	-0.0433	-0.2565	
-1.01077	0.166774	-0.119194	15.75	33.39	-5.25	0.4373	-0.0309	-0.2622	
-1.00528	0.17751	-0.119438	17.99	32.2	-4.48	0.4525	-0.0306	-0.2445	
-0.987712	0.16714	-0.150426	9.03	33.67	-3.99	0.4513	-0.0495	-0.2493	
-0.974902	0.160308	-0.181414	9.66	34.79	-3.64	0.4494	-0.0414	-0.2355	
-0.975268	0.167872	-0.196664	15.75	34.3	-2.31	0.4534	-0.0444	-0.2266	
-0.993202	0.180194	-0.19032	22.61	33.18	0.14	0.4574	-0.0396	-0.2176	
-0.974048	0.187148	-0.201056	18.83	33.88	1.82	0.4545	-0.0505	-0.2161	
-0.987224	0.183976	-0.1952	18.83	33.53	2.87	0.4547	-0.0459	-0.2221	
-0.956724	0.170556	-0.230946	13.02	33.32	3.08	0.4558	-0.0379	-0.2099	
-0.968558	0.17995	-0.250588	15.26	36.4	3.92	0.464	-0.0425	-0.1982	
-0.993934	0.188978	-0.223382	16.66	30.17	4.55	0.4613	-0.0425	-0.2026	
-0.972218	0.184342	-0.231068	9.87	30.59	3.99	0.4582	-0.0424	-0.195	
-0.959042	0.179706	-0.256688	6.16	32.06	3.29	0.4625	-0.0503	-0.1967	
-0.966362	0.184952	-0.257176	9.31	29.75	2.24	0.4697	-0.055	-0.1985	
-0.984784	0.18239	-0.264984	10.78	30.38	1.26	0.4651	-0.0548	-0.1878	
-0.981978	0.18788	-0.259982	12.95	29.05	0.49	0.4608	-0.0485	-0.1861	
-0.978562	0.190808	-0.259128	10.64	25.06	0.77	0.4664	-0.061	-0.1819	
-0.960384	0.180072	-0.283894	5.74	23.45	0.7	0.4617	-0.053	-0.171	
-0.935862	0.16592	-0.32452	5.81	24.64	1.05	0.4703	-0.0467	-0.1697	
-0.929884	0.159576	-0.329644	9.87	25.41	2.24	0.4758	-0.0623	-0.1641	
-0.938058	0.17141	-0.319762	11.97	25.83	2.38	0.4687	-0.0591	-0.1638	
-0.947452	0.178974	-0.306708	10.36	27.79	1.82	0.4729	-0.0544	-0.1608	
-0.934764	0.177998	-0.32025	6.09	31.5	1.26	0.4684	-0.0559	-0.1562	
-0.924882	0.168116	-0.33733	3.99	35.14	0.7	0.4723	-0.0479	-0.144	
-0.913536	0.165066	-0.352824	4.34	37.03	0.77	0.4764	-0.0587	-0.1353	
-0.91866	0.166774	-0.346602	5.25	36.47	1.4	0.4717	-0.0491	-0.1244	
-0.924882	0.166774	-0.342698	2.8	36.19	2.31	0.473	-0.0694	-0.1172	
-0.936472	0.174216	-0.349286	5.81	37.8	3.22	0.4728	-0.0474	-0.1108	
-0.931348	0.177022	-0.397598	3.78	42.42	2.73	0.4741	-0.0583	-0.108	
-0.899872	0.160552	-0.40382	7.56	40.81	2.1	0.4698	-0.0598	-0.1078	
-0.897676	0.175192	-0.427732	5.18	41.02	2.24	0.4694	-0.069	-0.0928	
-0.897066	0.19947	-0.443714	11.27	40.39	1.68	0.4708	-0.0659	-0.0928	
-0.901214	0.191784	-0.466894	8.75	36.19	2.31	0.4693	-0.0548	-0.0896	
-0.892918	0.1769	-0.489586	11.34	36.54	2.73	0.4675	-0.0656	-0.07759999	
-0.890722	0.16836	-0.480558	15.61	34.65	3.29	0.4732	-0.0609	-0.0762	
-0.87779	0.176412	-0.50325	8.61	33.67	4.34	0.477	-0.0623	-0.0627	
-0.838384	0.17507	-0.563396	1.26	34.72	5.11	0.474	-0.0559	-0.058	
-0.846924	0.175314	-0.559492	3.78	30.17	6.51	0.4739	-0.0621	-0.0535	
-0.85766	0.199714	-0.573522	4.97	26.18	7.21	0.4753	-0.0715	-0.0522	
-0.864614	0.176046	-0.602924	-7.63	18.27	10.99	0.4695	-0.0652	-0.0489	
-0.836676	0.164944	-0.526308	0.21	7.7	13.79	0.4668	-0.0715	-0.0534	
-0.794586	0.192028	-0.514596	0	9.87	10.29	0.4682	-0.0684	-0.0534	
-0.826672	0.18666	-0.548146	4.9	18.9	7.56	0.4681	-0.0777	-0.049	
-0.82838	0.181048	-0.550342	9.31	16.87	6.65	0.4634	-0.0775	-0.0368	
-0.827648	0.19398	-0.550586	6.16	13.44	7.07	0.4652	-0.073	-0.0489	
-0.816302	0.198738	-0.549976	4.69	12.67	5.18	0.4679	-0.0854	-0.0416	
-0.819962	0.221186	-0.56425	4.06	17.29	3.08	0.4692	-0.0822	-0.0386	
-0.814716	0.226798	-0.57706	1.33	18.83	1.05	0.4707	-0.0697	-0.0399	
-0.843386	0.232532	-0.545584	0.42	15.54	0.28	0.4574	-0.0773	-0.0245	
-0.850584	0.208742	-0.579256	-1.54	15.82	0.63	0.4644	-0.0694	-0.0231	
-0.831918	0.202276	-0.579988	0.91	13.02	0.28	0.4758	-0.0788	-0.019	
-0.824476	0.214354	-0.574376	-1.75	10.43	-1.61	0.4717	-0.0805	-0.0265	
-0.80947	0.20069	-0.585722	-4.69	9.38	-3.36	0.4715	-0.0741	-0.0204	
-0.810324	0.189466	-0.610732	-6.23	6.58	-3.85	0.463	-0.0741	-0.0231	
-0.809104	0.185928	-0.600484	-5.81	2.59	-3.36	0.4628	-0.0772	-0.0171	
-0.806176	0.19215	-0.60207	-6.23	3.29	-3.08	0.4644	-0.0725	-0.0216	
-0.797758	0.191052	-0.607072	-6.44	2.73	-2.73	0.4641	-0.063	-0.0124	
-0.786412	0.18666	-0.624884	-7.42	1.12	-1.96	0.4643	-0.0803	-0.0187	
-0.790804	0.192272	-0.62525	-6.44	-1.54	-1.75	0.46	-0.0662	-0.0183	
-0.787632	0.199348	-0.620248	-6.58	-2.8	-2.1	0.4599	-0.0646	-0.0138	
-0.794342	0.204472	-0.60634	-6.09	-2.17	-2.66	0.4628	-0.0771	-0.0156	
-0.814228	0.213378	-0.597556	-10.5	-2.17	-4.76	0.4658	-0.0741	-0.0202	
-0.798246	0.215086	-0.59536	-14.07	-5.04	-6.79	0.4613	-0.0662	-0.0154	
-0.79666	0.236436	-0.592554	-13.93	-7	-7.77	0.4671	-0.0646	-0.0155	
-0.802272	0.24339	-0.590968	-12.74	-9.03	-8.26	0.4671	-0.0646	-0.0155	
-0.811056	0.228384	-0.608658	-13.93	-9.45	-7.91	0.4647	-0.0774	-0.0308	
-0.821304	0.225334	-0.595848	-10.5	-13.02	-7.35	0.4574	-0.0695	-0.0274	
-0.82167	0.222162	-0.576938	-8.12	-16.73	-7.7	0.4702	-0.0726	-0.0233	
-0.82045	0.205448	-0.574376	-11.97	-16.8	-8.19	0.4662	-0.0743	-0.0323	
-0.835822	0.19276	-0.56913	-13.3	-20.65	-7.49	0.4704	-0.0633	-0.0307	
-0.850828	0.190076	-0.548634	-12.39	-26.04	-6.51	0.4733	-0.0712	-0.0325	
-0.85461	0.18422	-0.528382	-12.88	-30.24	-6.23	0.4733	-0.054	-0.0352	
-0.866566	0.196176	-0.50203	-13.02	-32.48	-6.37	0.4723	-0.0605	-0.0489	
-0.868884	0.193492	-0.499468	-14.63	-35.14	-6.3	0.484	-0.0637	-0.0569	
-0.872544	0.194834	-0.509594	-14.56	-36.12	-5.04	0.474	-0.045	-0.0593	
-0.891088	0.208498	-0.488488	-10.29	-36.61	-3.57	0.4817	-0.0578	-0.0749	
-0.882548	0.208132	-0.471774	-11.83	-37.1	-2.87	0.4749	-0.0517	-0.0867	
-0.91012	0.212402	-0.44469	-10.85	-38.71	-1.68	0.4762	-0.0563	-0.0823	
-0.925614	0.213744	-0.40565	-9.17	-41.65	-1.12	0.4822	-0.0612	-0.0916	
-0.952576	0.203618	-0.34465	-9.59	-45.29	-1.19	0.4767	-0.0597	-0.0975	
-0.922564	0.194224	-0.340624	-14.42	-49.14	-4.48	0.4812	-0.0567	-0.1051	
-0.806176	0.188124	-0.468846	-18.69	-30.8	-8.19	0.4756	-0.0521	-0.1109	
-0.809104	0.208132	-0.505934	-4.9	-13.72	-6.72	0.4757	-0.0583	-0.1125	
-0.870348	0.214354	-0.418704	3.15	-24.92	-4.62	0.4715	-0.06	-0.117	
-0.88511	0.210084	-0.356118	0.14	-22.05	-3.92	0.4805	-0.0602	-0.1294	
-0.902068	0.204472	-0.381128	-10.78	-10.5	-4.76	0.472	-0.0602	-0.1306	
-0.90402	0.210328	-0.392474	-7.35	-12.11	-5.67	0.4734	-0.0493	-0.132	
-0.906704	0.210084	-0.371612	-6.65	-15.26	-6.58	0.4778	-0.0509	-0.1367	
-0.935252	0.210572	-0.372588	-12.74	-14	-7.63	0.4821	-0.0525	-0.1354	
-0.913658	0.208254	-0.382714	-14.42	-13.93	-7.84	0.4695	-0.0463	-0.1454	
-0.927932	0.21289	-0.35807	-10.92	-10.43	-7.56	0.4679	-0.0446	-0.1378	
-0.930372	0.190686	-0.330742	-8.12	-11.2	-5.46	0.4719	-0.0414	-0.1303	
-0.953918	0.188368	-0.324886	-4.13	-9.73	-2.31	0.4794	-0.0369	-0.1411	
-0.935252	0.188002	-0.327936	-3.43	-11.2	-0.42	0.4764	-0.0431	-0.1381	
-0.931958	0.195932	-0.31476	-1.19	-13.23	0.35	0.4766	-0.0416	-0.1426	
-0.935374	0.193248	-0.317688	-4.62	-14.84	0.91	0.4808	-0.0494	-0.1398	
-0.942938	0.18849	-0.321226	-3.64	-16.03	1.12	0.4669	-0.0464	-0.1529	
-0.948916	0.186904	-0.316712	-1.33	-16.03	1.68	0.4742	-0.0465	-0.1577	
-0.94916	0.1952	-0.321836	-1.12	-16.87	2.17	0.464	-0.0448	-0.1513	
-0.954894	0.206668	-0.317078	0	-18.34	2.66	0.4784	-0.0387	-0.1577	
-0.973682	0.206058	-0.297924	2.03	-21.35	2.52	0.4697	-0.0355	-0.1529	
-0.979538	0.199836	-0.284138	1.26	-24.85	2.1	0.4673	-0.042	-0.1665	
-0.953918	0.20252	-0.307074	-0.56	-26.74	0.42	0.4728	-0.045	-0.1607	
-0.952332	0.210084	-0.299632	1.33	-27.3	-1.33	0.4674	-0.0404	-0.1695	
-0.957822	0.221552	-0.28548	0.77	-28.49	-3.08	0.4647	-0.0452	-0.1755	
-0.972462	0.214354	-0.263642	-0.91	-28.42	-3.36	0.465	-0.0344	-0.1845	
-0.978928	0.205448	-0.246562	-2.1	-30.1	-2.8	0.4668	-0.0471	-0.1968	
-0.976	0.196298	-0.227042	-1.54	-30.59	-1.96	0.4651	-0.0501	-0.1877	
-0.99003	0.188124	-0.203984	-0.35	-32.2	-1.54	0.4652	-0.0549	-0.1908	
-0.975634	0.187758	-0.18666	-8.89	-38.43	-2.38	0.4554	-0.0424	-0.1979	
-0.993568	0.183	-0.170678	-3.92	-35.21	-2.94	0.459	-0.0428	-0.2222	
-0.972706	0.18483	-0.188612	-6.72	-34.3	-5.74	0.4516	-0.0333	-0.2143	
-0.995398	0.2074	-0.177998	-1.61	-33.46	-4.2	0.4573	-0.0427	-0.2131	
-0.981002	0.196542	-0.17934	-4.55	-35.56	-5.25	0.4503	-0.0318	-0.2187	
-0.964044	0.180438	-0.206058	-7.35	-28.84	-5.18	0.4549	-0.021	-0.2308	
-1.000278	0.191174	-0.167628	-1.4	-33.25	-6.23	0.4537	-0.0399	-0.2356	
-0.992836	0.209108	-0.126514	3.22	-35.7	-4.9	0.4595	-0.0384	-0.2388	
-1.01138	0.222162	-0.11773	-7	-33.81	-3.71	0.4595	-0.0321	-0.2402	
-0.995642	0.189222	-0.148108	-23.45	-29.68	-4.27	0.4496	-0.0353	-0.243	
-0.990518	0.191052	-0.124196	-6.65	-31.71	-2.87	0.4456	-0.0354	-0.2519	
-0.99491	0.182024	-0.07564	-0.35	-31.29	-3.08	0.4487	-0.0293	-0.2595	
-0.98759	0.203862	-0.014152	8.33	-34.51	-6.86	0.4362	-0.0357	-0.2698	
-1.002352	0.182634	-0.017934	4.9	-28.77	-11.9	0.4404	-0.0388	-0.267	
-1.050054	0.156282	-0.121512	-17.71	-12.81	-9.52	0.4306	-0.0264	-0.2755	
-0.992958	0.079666	-0.16714	1.61	-14.49	-3.01	0.4292	-0.0404	-0.2742	
-1.026508	0.11285	-0.12566	46.9	-44.31	2.8	0.4403	-0.0325	-0.2653	
-0.984662	0.142618	-0.015616	90.93	-66.5	15.82	0.4308	-0.0374	-0.2818	
-0.956602	0.185928	-0.028426	51.73	-54.6	19.18	0.4268	-0.0422	-0.2893	
-0.948184	0.169702	-0.063318	16.87	-41.44	13.65	0.4156	-0.0408	-0.2965	
-0.95343	0.168604	-0.055144	23.87	-42.63	10.29	0.4169	-0.047	-0.2936	
-0.977464	0.211426	-0.008784	31.22	-47.18	8.05	0.4202	-0.0472	-0.3073	
-1.003694	0.249002	0.029036	18.2	-45.43	3.57	0.4004	-0.0566	-0.3129	
-1.008452	0.230946	0.044896	-8.68	-41.09	-1.33	0.4035	-0.0615	-0.3221	
-1.017968	0.20618	0.041236	-11.41	-39.9	-5.11	0.3978	-0.0521	-0.3203	
-1.0309	0.196542	0.048678	-3.15	-46.55	-9.8	0.3967	-0.0522	-0.3323	
-1.053836	0.183244	0.05368	-3.85	-52.92	-12.11	0.4008	-0.035	-0.3292	
-1.059814	0.172142	0.040992	-9.59	-57.75	-10.01	0.397	-0.043	-0.3428	
-1.049322	0.158722	0.101504	-8.47	-66.71	-5.11	0.3944	-0.0431	-0.3503	
-1.006622	0.15799	0.152378	-9.03	-60.62	-0.98	0.3857	-0.0368	-0.3484	
-0.973438	0.154818	0.146156	-33.46	-58.8	4.76	0.3692	-0.0402	-0.3691	
-0.940986	0.146888	0.131516	-28	-46.69	7.42	0.3749	-0.0402	-0.3678	
-0.939766	0.161894	0.162016	-3.99	-46.2	7.77	0.3595	-0.0403	-0.3779	
-0.92415	0.1769	0.204838	-8.4	-50.05	7.7	0.3655	-0.0452	-0.3857	
-0.91927	0.180682	0.234972	-12.32	-47.25	5.18	0.3556	-0.0578	-0.3901	
-0.92842	0.168848	0.238022	-20.16	-40.81	2.03	0.3513	-0.0405	-0.3882	
-0.931226	0.172752	0.307806	-12.11	-37.17	0.07	0.3473	-0.0313	-0.3985	
-0.930128	0.174216	0.33489	-13.23	-33.04	0.14	0.3302	-0.0391	-0.4011	
-0.92842	0.168116	0.357338	-12.32	-31.99	0.21	0.3391	-0.0408	-0.412	
-0.936594	0.174704	0.372832	-10.64	-29.33	-0.14	0.3405	-0.0377	-0.4105	
-0.923784	0.174338	0.387594	-10.01	-26.67	-0.28	0.3264	-0.0377	-0.4146	
-0.903044	0.170068	0.39894	-9.87	-24.29	0.21	0.3337	-0.0284	-0.4207	
-0.88938	0.154696	0.403576	-10.08	-23.38	1.26	0.3237	-0.03	-0.4219	
-0.866322	0.143106	0.412482	-9.1	-22.82	2.24	0.331	-0.0285	-0.4282	
-0.854122	0.136518	0.413336	-8.33	-20.23	3.01	0.3139	-0.0332	-0.4262	
-0.840336	0.13969	0.414556	-4.06	-17.01	3.78	0.3182	-0.0317	-0.4294	
-0.829478	0.146034	0.429074	0.91	-15.19	4.41	0.3171	-0.0381	-0.4385	
-0.832284	0.14457	0.442128	3.71	-10.57	4.62	0.3098	-0.0348	-0.4322	
-0.849242	0.154452	0.438102	2.8	-5.18	3.99	0.3126	-0.0332	-0.4307	
-0.869738	0.176656	0.443592	6.86	-0.28	3.29	0.311	-0.0347	-0.4261	
-0.893894	0.17751	0.451156	9.1	3.85	2.8	0.3095	-0.0316	-0.4245	
-0.904996	0.18056	0.447618	7.77	8.12	2.24	0.3094	-0.0409	-0.4186	
-0.916464	0.183488	0.44591	9.31	11.41	2.1	0.3153	-0.0394	-0.4264	
-0.905362	0.186172	0.437736	10.71	17.15	2.24	0.3209	-0.041	-0.422	
-0.89609	0.178852	0.434564	11.13	20.86	1.89	0.3136	-0.0362	-0.4187	
-0.885842	0.171532	0.4209	9.87	24.29	1.82	0.3196	-0.0473	-0.4266	
-0.871934	0.169702	0.410286	10.29	27.93	1.54	0.3207	-0.0362	-0.4174	
-0.867908	0.171532	0.396012	10.85	31.43	1.33	0.335	-0.0456	-0.415	
-0.86681	0.172752	0.37637	11.69	35.42	1.19	0.3323	-0.0504	-0.421	
-0.871934	0.18544	0.353312	12.46	39.2	0.42	0.3407	-0.0456	-0.4152	
-0.88511	0.19398	0.33672	13.44	40.39	0.14	0.3372	-0.05	-0.3955	
-0.890966	0.196542	0.315004	12.46	43.96	0.14	0.3433	-0.0533	-0.4078	
-0.902068	0.208254	0.300364	11.13	47.18	0.49	0.3575	-0.0486	-0.4067	
-0.89975	0.217404	0.28182	10.01	48.65	0.84	0.3597	-0.042	-0.3855	
-0.923418	0.20069	0.263276	11.13	53.97	0.84	0.3584	-0.053	-0.3871	
-0.90463	0.181048	0.230458	15.68	61.04	1.47	0.3693	-0.059	-0.3694	
-0.908778	0.186294	0.197152	18.76	60.41	2.38	0.378	-0.0607	-0.3727	
-0.9333	0.204594	0.179584	21.56	61.39	2.59	0.3762	-0.059	-0.3636	
-0.96563	0.22448	0.148108	18.55	67.48	4.62	0.3844	-0.065	-0.3503	
-0.983076	0.223626	0.111264	15.82	70.91	6.93	0.3912	-0.057	-0.3398	
-1.0065	0.227774	0.077226	23.45	75.46	7.56	0.3967	-0.0616	-0.3325	
-1.003694	0.22875	0.02379	28.07	71.47	6.3	0.4106	-0.0693	-0.3179	
-1.001986	0.227652	0.01098	29.47	65.52	5.81	0.4016	-0.0737	-0.3026	
-0.986736	0.227896	-0.010248	29.54	60.34	4.69	0.4161	-0.07229999	-0.3106	
-0.995276	0.232776	-0.040016	27.51	60.27	2.94	0.4171	-0.08	-0.2986	
-0.999912	0.234606	-0.064782	23.52	59.64	0.91	0.4253	-0.0813	-0.2853	
-1.006622	0.243634	-0.098942	15.68	55.86	1.19	0.4251	-0.0812	-0.2792	
-1.009184	0.234118	-0.109434	4.9	52.22	0.14	0.439	-0.0748	-0.2675	
-1.041392	0.232166	-0.13847	8.26	48.16	-3.01	0.4341	-0.076	-0.2461	
-1.01321	0.220088	-0.151524	12.32	42.35	-5.67	0.443	-0.0793	-0.2556	
-1.016748	0.210694	-0.164944	13.86	41.51	-8.26	0.4426	-0.0869	-0.242	
-1.007232	0.18971	-0.184708	13.65	38.99	-10.5	0.442	-0.0773	-0.2252	
-0.995276	0.186172	-0.189466	14.14	35.07	-11.83	0.4422	-0.07889999	-0.2298	
-0.981734	0.185806	-0.21167	11.06	33.11	-13.3	0.4506	-0.07099999	-0.2254	
-0.96624	0.188368	-0.236314	8.68	32.13	-15.19	0.4374	-0.0693	-0.2144	
-0.971974	0.193492	-0.249734	7.35	29.96	-16.87	0.4517	-0.0771	-0.2134	
-0.966118	0.19276	-0.268156	3.01	28.42	-17.01	0.4545	-0.0693	-0.2119	
-0.988078	0.187392	-0.27145	3.64	26.6	-16.31	0.4517	-0.0724	-0.2134	
-0.988932	0.174338	-0.267546	2.73	22.54	-14.77	0.4557	-0.0645	-0.2073	
-0.96502	0.14579	-0.271572	2.03	24.99	-13.09	0.46	-0.0567	-0.2058	
-0.953674	0.15067	-0.303536	-6.65	26.67	-10.08	0.4572	-0.0598	-0.2073	
-0.967094	0.13908	-0.311832	-5.32	29.05	-5.25	0.4656	-0.066	-0.2031	
-0.97234	0.152012	-0.288286	-0.42	27.23	-2.94	0.4654	-0.0706	-0.1971	
-0.95648	0.148474	-0.265472	-3.01	29.26	0.21	0.4653	-0.069	-0.1941	
-0.96136	0.148596	-0.257176	-3.99	32.76	-0.42	0.461	-0.0596	-0.1938	
-0.960384	0.150792	-0.271572	-3.78	33.67	-0.56	0.4608	-0.061	-0.1847	
-0.957334	0.138714	-0.28365	-3.29	33.53	0.21	0.4734	-0.061	-0.1791	
-0.956236	0.137738	-0.28792	0.77	31.36	-0.21	0.4604	-0.0593	-0.1726	
-0.963312	0.142862	-0.301096	1.82	29.89	-2.52	0.4644	-0.0576	-0.1651	
-0.982588	0.15311	-0.29707	7.84	25.41	-3.92	0.463	-0.0513	-0.165	
-0.980514	0.157502	-0.290848	7.98	23.03	-5.04	0.4601	-0.0607	-0.1635	
-0.949648	0.157624	-0.304634	8.82	23.73	-5.25	0.4598	-0.059	-0.1529	
-0.95526	0.16409	-0.310368	10.36	24.29	-4.13	0.4697	-0.0527	-0.1516	
-0.930494	0.170678	-0.329522	3.99	28.35	-2.45	0.4667	-0.0557	-0.1455	
-0.926712	0.168482	-0.356606	2.03	30.8	-0.7	0.4775	-0.0539	-0.1262	
-0.93208	0.175192	-0.378444	2.45	27.02	1.96	0.4691	-0.0539	-0.1304	
-0.916952	0.17263	-0.389668	3.57	27.37	3.71	0.4719	-0.0539	-0.129	
-0.892918	0.15738	-0.401502	5.39	30.66	4.27	0.4647	-0.0585	-0.1258	
-0.891454	0.148108	-0.38918	0.56	32.06	4.48	0.4673	-0.0569	-0.1198	
-0.898042	0.150548	-0.387106	-7.14	35.63	6.09	0.4699	-0.0505	-0.1092	
-0.90524	0.163724	-0.377102	-3.71	37.24	7.42	0.4743	-0.0631	-0.1141	
-0.911706	0.18727	-0.403088	-6.44	37.17	9.66	0.4751	-0.0674	-0.0915	
-0.909754	0.1952	-0.431514	-10.22	37.52	11.55	0.4722	-0.0627	-0.0898	
-0.90463	0.165798	-0.442494	-9.73	34.3	14.35	0.4779	-0.0549	-0.0914	
-0.915854	0.142618	-0.460428	-6.58	29.61	15.82	0.4679	-0.0783	-0.08989999	
-0.892552	0.14152	-0.48556	-1.61	26.39	14.63	0.4734	-0.0735	-0.084	
-0.892308	0.175558	-0.484218	3.43	25.48	12.32	0.472	-0.0735	-0.0824	
-0.878278	0.206668	-0.492514	5.88	30.59	9.45	0.4647	-0.0781	-0.0777	
-0.86132	0.211426	-0.489098	2.59	33.11	6.37	0.4658	-0.067	-0.0685	
-0.849364	0.2257	-0.507764	4.06	37.38	4.97	0.4643	-0.0748	-0.0655	
-0.841678	0.236192	-0.523258	1.96	36.4	4.97	0.4614	-0.0794	-0.0625	
-0.840214	0.246318	-0.540582	-3.57	33.04	5.67	0.4627	-0.0794	-0.058	
-0.828868	0.240096	-0.557662	-4.06	29.4	5.81	0.4597	-0.0809	-0.0549	
-0.821548	0.22997	-0.57279	-1.4	25.27	5.04	0.4708	-0.07759999	-0.0431	
-0.823256	0.224236	-0.566568	2.03	22.33	3.85	0.4722	-0.0791	-0.0416	
-0.817034	0.223138	-0.591944	1.68	20.72	2.59	0.4647	-0.0742	-0.0307	
-0.81435	0.21472	-0.580476	9.73	19.25	-0.21	0.4574	-0.0726	-0.0259	
-0.812764	0.21106	-0.587552	8.12	20.02	-1.61	0.4706	-0.0822	-0.0371	
-0.810568	0.21472	-0.576816	-0.77	18.48	-2.17	0.4659	-0.08199999	-0.0233	
-0.807152	0.22143	-0.593042	-3.92	19.04	-1.89	0.4604	-0.0774	-0.0306	
-0.806664	0.232898	-0.586576	-2.87	12.46	-0.77	0.4599	-0.0802	-0.0125	
-0.80154	0.214842	-0.582794	-2.52	11.13	-0.63	0.457	-0.0802	-0.0109	
-0.80703	0.20984	-0.598044	-1.4	10.43	-0.63	0.4584	-0.0739	-0.0124	
-0.801418	0.214842	-0.594506	-0.21	8.75	-1.61	0.464	-0.0739	-0.007999999	
-0.799832	0.22082	-0.583648	-0.35	8.33	-2.59	0.4625	-0.0848	-0.0036	
-0.801418	0.211548	-0.60024	-3.43	7.7	-3.22	0.4483	-0.0817	-0.009099999	
-0.803492	0.19093	-0.61854	-4.48	5.81	-3.5	0.4642	-0.0771	-0.0156	
-0.79483	0.19703	-0.62464	-2.66	1.68	-3.57	0.4572	-0.0803	-0.0185	
-0.79361	0.206302	-0.62647	-1.05	-1.68	-3.22	0.4613	-0.0724	-0.0139	
-0.792634	0.210816	-0.612928	-1.54	-2.73	-2.73	0.46	-0.0818	-0.0171	
-0.804224	0.208864	-0.625982	-4.9	-4.76	-2.03	0.4615	-0.0819	-0.0186	
-0.811056	0.207034	-0.616344	-2.66	-12.39	-0.28	0.4569	-0.077	-0.0093	
-0.815204	0.205692	-0.615856	-1.12	-17.71	1.12	0.4614	-0.0803	-0.0156	
-0.803004	0.1891	-0.611098	0	-23.94	2.38	0.4582	-0.0816	-0.0034	
-0.793244	0.2013	-0.608902	2.59	-25.62	3.15	0.4661	-0.0805	-0.0294	
-0.80093	0.215696	-0.61	3.43	-24.57	3.78	0.4603	-0.0758	-0.0276	
-0.809958	0.222894	-0.574742	3.43	-28.49	4.34	0.4608	-0.0823	-0.0428	
-0.817644	0.21838	-0.569862	0	-25.76	4.41	0.4596	-0.08859999	-0.0489	
-0.826062	0.222406	-0.548634	0.84	-24.57	4.2	0.4706	-0.0838	-0.0371	
-0.823256	0.225456	-0.5551	-1.54	-22.68	2.87	0.4625	-0.084	-0.052	
-0.83448	0.221552	-0.557052	-1.33	-22.96	1.12	0.4738	-0.0887	-0.0494	
-0.846436	0.21045	-0.55144	1.33	-23.73	0.91	0.4626	-0.0778	-0.0549	
-0.847656	0.206912	-0.544364	0.91	-28.28	1.19	0.4641	-0.0794	-0.058	
-0.843752	0.213866	-0.531066	-1.75	-32.2	1.26	0.4631	-0.0859	-0.0717	
-0.854976	0.225578	-0.519964	-3.99	-32.41	0.49	0.4644	-0.0795	-0.0671	
-0.878766	0.230458	-0.506788	-4.97	-34.51	0.7	0.4732	-0.0906	-0.0751	
-0.881206	0.227164	-0.483242	-4.48	-36.82	1.05	0.4674	-0.0765	-0.07319999	
-0.88877	0.23058	-0.463112	-3.43	-37.66	-0.07	0.4736	-0.0815	-0.08859999	
-0.899872	0.235948	-0.439932	-3.43	-42.21	-0.42	0.4636	-0.083	-0.0883	
-0.900726	0.222406	-0.43066	-5.11	-47.11	-0.28	0.4635	-0.0704	-0.0851	
-0.899384	0.215574	-0.436638	-2.8	-49.49	1.12	0.4694	-0.0815	-0.09299999	
-0.921344	0.223382	-0.425536	-2.66	-53.48	3.15	0.463	-0.09119999	-0.1142	
-0.955382	0.231556	-0.373564	-1.82	-56.35	5.53	0.4675	-0.0742	-0.1231	
-0.970266	0.227042	-0.297558	2.24	-56.56	4.34	0.4678	-0.0774	-0.1323	
-0.943548	0.23119	-0.261812	6.86	-54.53	2.52	0.4583	-0.098	-0.1474	
-0.939522	0.207278	-0.25742	-5.11	-42.14	-3.64	0.4584	-0.0871	-0.1518	
-0.849852	0.16348	-0.421876	-2.24	-21.84	-8.82	0.4598	-0.0793	-0.1532	
-0.86254	0.165798	-0.447984	2.17	-15.05	-2.8	0.4571	-0.0872	-0.1563	
-0.88633	0.216306	-0.399184	8.75	-31.01	3.5	0.467	-0.0731	-0.1549	
-0.883036	0.226676	-0.315004	0.14	-33.67	0.91	0.4631	-0.08419999	-0.1655	
-0.921588	0.24034	-0.266204	-5.74	-19.81	-2.52	0.4631	-0.0717	-0.1683	
-0.932324	0.23241	-0.266692	-9.94	-6.65	-7.91	0.4606	-0.0844	-0.1775	
-0.935984	0.218014	-0.266814	-12.46	-7.49	-11.48	0.4648	-0.0734	-0.176	
-0.91378	0.180316	-0.284504	-12.18	-15.75	-11.62	0.4565	-0.0751	-0.1833	
-0.958432	0.203984	-0.224114	-2.17	-21.28	-0.98	0.472	-0.0797	-0.1763	
-0.969656	0.217892	-0.213256	-3.99	-15.12	0.77	0.462	-0.0797	-0.1775	
-0.98942	0.213866	-0.230336	-5.39	-16.03	0.28	0.4576	-0.0796	-0.1743	
-0.985028	0.214232	-0.227286	-4.9	-19.95	0.07	0.4579	-0.0657	-0.1832	
-0.9821	0.212524	-0.21899	-6.16	-22.68	-0.28	0.4593	-0.0751	-0.1819	
-0.97905	0.211182	-0.199714	-5.39	-23.1	-0.49	0.4552	-0.07669999	-0.1878	
-0.965142	0.203252	-0.216794	-12.04	-19.67	-0.84	0.4598	-0.0738	-0.1985	
-0.96136	0.206302	-0.226066	-12.6	-19.18	-0.35	0.4642	-0.0692	-0.2046	
-0.967216	0.21411	-0.20923	-10.08	-22.61	0.14	0.4545	-0.0865	-0.2122	
-0.967338	0.218502	-0.186904	-4.76	-22.33	-0.14	0.4458	-0.0911	-0.2059	
-0.96563	0.219478	-0.164822	-9.03	-19.81	-0.21	0.4516	-0.0755	-0.2119	
-0.97112	0.217038	-0.168726	-13.44	-15.96	-0.14	0.4577	-0.0757	-0.2242	
-0.973682	0.202276	-0.2013	-18.76	-14.84	0.56	0.4521	-0.0711	-0.2285	
-0.978196	0.192028	-0.182878	-13.58	-18.2	2.1	0.4534	-0.0742	-0.224	
-0.97661	0.22021	-0.153476	-10.08	-20.02	1.68	0.4574	-0.0662	-0.2165	
-0.981246	0.220698	-0.141398	-15.47	-16.17	0.91	0.4436	-0.0602	-0.2326	
-0.981124	0.224846	-0.149328	-15.4	-14.63	-0.14	0.4553	-0.0775	-0.2378	
-0.980392	0.218502	-0.160918	-16.17	-16.45	-1.47	0.4496	-0.0822	-0.2377	
-0.977586	0.233508	-0.154086	-8.12	-20.23	-1.75	0.4411	-0.0713	-0.2402	
-0.987712	0.251564	-0.127734	-7.28	-23.03	-1.82	0.4485	-0.0793	-0.2497	
-0.988688	0.260104	-0.110532	-8.61	-23.24	-1.33	0.4485	-0.0714	-0.2496	
-1.001498	0.256688	-0.101992	-15.26	-23.94	-3.01	0.44	-0.0683	-0.2538	
-0.994544	0.217038	-0.104554	-19.88	-26.39	-3.01	0.4444	-0.0606	-0.2568	
-0.975634	0.232898	-0.11163	-13.02	-24.99	-2.1	0.4402	-0.0622	-0.2613	
-0.980758	0.21716	-0.128832	-23.87	-25.83	-6.72	0.4359	-0.0668	-0.2582	
-0.984662	0.207644	-0.11712	-21.49	-27.3	-7.42	0.4476	-0.0717	-0.2677	
-1.01199	0.229726	-0.066124	-15.12	-29.4	-8.26	0.4363	-0.0592	-0.2732	
-0.993568	0.20679	-0.086986	-15.89	-25.34	-9.24	0.4324	-0.0532	-0.2851	
-0.964776	0.175192	-0.14701	-22.4	-18.41	-10.08	0.4391	-0.0436	-0.273	
-1.009306	0.197152	-0.066978	-8.05	-27.65	-8.12	0.4325	-0.0517	-0.2896	
-0.991982	0.201544	-0.038918	-15.12	-23.66	-8.47	0.4308	-0.0468	-0.2804	
-0.99247	0.193858	-0.032208	-12.67	-20.16	-7.49	0.4268	-0.0391	-0.2892	
-1.001498	0.183488	-0.020496	-8.68	-23.73	-7.49	0.4268	-0.0422	-0.2893	
-1.019432	0.185074	-0.010736	-11.97	-24.92	-8.19	0.4269	-0.0454	-0.2923	
-0.999668	0.191296	-0.043798	-17.15	-23.66	-9.24	0.4269	-0.0408	-0.2953	
-1.00284	0.17324	-0.036478	-18.76	-26.32	-7.63	0.4242	-0.0299	-0.3011	
-1.023946	0.16653	0.006222	-16.59	-32.41	-7.77	0.423	-0.0284	-0.3056	
-1.019798	0.17873	0.038796	-16.87	-36.47	-7.14	0.4171	-0.0236	-0.3023	
-1.01504	0.177388	0.038186	-20.93	-35.28	-5.11	0.4202	-0.0332	-0.3101	
-1.00101	0.190442	0.025254	-20.93	-38.29	-3.36	0.4091	-0.0239	-0.3187	
-0.988322	0.171654	0.024766	-21	-37.52	-2.59	0.4109	-0.0335	-0.331	
-0.97661	0.15494	0.046604	-14.35	-41.44	-1.4	0.4041	-0.0133	-0.3456	
-0.979416	0.15677	0.104676	-5.11	-48.3	-2.31	0.4083	-0.0242	-0.3398	
-0.9699	0.165432	0.121268	-5.53	-42.07	-1.05	0.4075	-0.0292	-0.3611	
-0.973072	0.18117	0.122976	-7.42	-38.99	0.98	0.3974	-0.0229	-0.3576	
-0.975634	0.160674	0.143716	-7.91	-35.77	0.7	0.3974	-0.0229	-0.3576	
-0.9638	0.159576	0.166164	-3.99	-37.94	-1.82	0.3906	-0.0137	-0.3709	
-0.964532	0.15433	0.1891	-5.39	-34.3	-3.43	0.3866	-0.02	-0.3769	
-0.957944	0.144448	0.202642	-8.89	-32.9	-2.66	0.3809	-0.0263	-0.3783	
-0.960872	0.148108	0.228384	-6.09	-28.28	-1.68	0.3749	-0.0168	-0.3704	
-0.96746	0.153476	0.237778	-13.65	-22.47	-1.05	0.3752	-0.0185	-0.378	
-0.971608	0.157502	0.242292	-14.91	-18.2	-0.42	0.3696	-0.0107	-0.3838	
-0.95465	0.165432	0.259738	-12.74	-20.3	-0.07	0.3697	-0.0155	-0.3869	
-0.927322	0.170434	0.276208	-3.22	-25.83	-1.4	0.3611	-0.0045	-0.3864	
-0.918538	0.15372	0.297314	-5.74	-24.57	-2.03	0.3699	-0.0124	-0.3929	
-0.911218	0.149694	0.306098	-7.77	-20.79	-0.98	0.3742	-0.014	-0.3931	
-0.931714	0.15067	0.311222	-14.14	-13.02	-0.21	0.3683	-0.0014	-0.3897	
-0.954528	0.1525	0.30805	-16.94	-6.09	0.49	0.3586	-0.0078	-0.3985	
-0.94977	0.147986	0.302926	-11.27	-4.41	1.12	0.363	-0.011	-0.4002	
-0.924516	0.14396	0.30866	0.56	-10.29	0.56	0.3587	-0.0172	-0.3987	
-0.91561	0.146156	0.309758	6.37	-7.77	0	0.3603	-0.0064	-0.4076	
-0.939156	0.158844	0.314028	12.88	-4.83	2.73	0.3602	-0.011	-0.4032	
-0.946476	0.170312	0.331108	10.92	0.28	3.08	0.366	-0.0189	-0.4065	
-0.9394	0.161894	0.318054	4.41	7.28	2.73	0.3617	-0.0142	-0.4048	
-0.923906	0.146278	0.30866	6.37	9.8	2.45	0.363	-0.0047	-0.4016	
-0.915	0.155672	0.307928	13.58	10.01	1.82	0.3572	-0.0203	-0.3987	
-0.90951	0.16409	0.310368	14.56	11.55	2.45	0.3685	-0.0093	-0.3928	
-0.92171	0.15555	0.307318	7.84	18.9	3.01	0.3599	-0.0046	-0.3925	
-0.922808	0.161406	0.283894	12.74	25.69	2.52	0.3597	-0.0107	-0.3865	
-0.921832	0.166408	0.28426	15.19	28	2.24	0.3683	-0.0139	-0.3883	
-0.91866	0.164822	0.27389	8.89	32.2	2.52	0.3738	-0.0169	-0.381	
-0.920978	0.157014	0.246684	9.87	36.68	1.61	0.3696	-0.0154	-0.3839	
-0.923052	0.158722	0.225456	18.2	36.26	0.7	0.3665	-0.02	-0.3747	
-0.944646	0.171532	0.210206	21.49	37.87	0.98	0.3892	-0.0262	-0.3695	
-0.958432	0.182634	0.21167	24.57	40.67	2.31	0.3877	-0.0246	-0.3679	
-0.959408	0.189222	0.191418	20.51	46.34	3.15	0.3888	-0.0369	-0.3561	
-0.94184	0.188734	0.158722	20.16	49.84	3.15	0.3944	-0.0338	-0.3532	
-0.976	0.19337	0.12505	23.45	50.19	2.38	0.4028	-0.0306	-0.3458	
-0.968192	0.20313	0.080276	30.45	50.54	3.64	0.4042	-0.0306	-0.3459	
-0.989054	0.222406	0.097966	35.7	49.84	4.48	0.4054	-0.0492	-0.3356	
-0.95831	0.224724	0.095404	32.34	57.96	3.01	0.3976	-0.0426	-0.3171	
-0.957944	0.208498	0.069174	17.71	66.29	1.47	0.4193	-0.0475	-0.3254	
-0.9455	0.19886	0.032574	13.3	71.47	1.82	0.4247	-0.0489	-0.3135	
-0.954284	0.195932	-0.006344	19.6	71.33	3.85	0.4282	-0.0438	-0.2909	
-0.976732	0.20618	-0.037332	32.69	69.86	3.92	0.4383	-0.0502	-0.2928	
-0.983686	0.208376	-0.044896	38.01	67.76	7.21	0.4365	-0.0468	-0.2806	
-0.98393	0.210816	-0.05734	41.51	69.3	7.91	0.4419	-0.0592	-0.2688	
-1.01565	0.204472	-0.084668	37.24	68.11	6.86	0.4543	-0.0621	-0.2557	
-1.020896	0.1952	-0.138714	32.27	64.26	3.85	0.4495	-0.065	-0.2374	
-1.032364	0.200568	-0.177876	32.13	62.02	3.57	0.4522	-0.068	-0.23	
-1.009306	0.189588	-0.214232	30.52	59.71	2.45	0.4564	-0.0664	-0.2286	
-0.992714	0.166652	-0.231434	26.25	56.77	-0.28	0.4545	-0.0646	-0.2148	
-0.987346	0.163724	-0.236436	20.02	53.48	-3.15	0.4526	-0.0784	-0.1984	
-0.969412	0.150182	-0.2562	12.95	55.09	-6.79	0.4582	-0.0752	-0.1924	
-0.9638	0.152256	-0.26901	10.22	51.8	-7.63	0.4694	-0.0674	-0.1881	
-0.925126	0.175558	-0.312076	1.33	46.41	-6.65	0.4622	-0.0657	-0.1849	
-0.940254	0.16531	-0.374296	4.2	43.82	-7.42	0.4688	-0.0576	-0.1668	
-0.92842	0.167994	-0.389058	10.71	42.28	-7.91	0.47	-0.0591	-0.1608	
-0.921832	0.19825	-0.373686	17.43	37.52	-7.21	0.4657	-0.0685	-0.1593	
-0.904142	0.19398	-0.394426	12.32	39.48	-4.83	0.4638	-0.0619	-0.1425	
-0.903898	0.180804	-0.4148	6.65	41.3	-2.73	0.4653	-0.0667	-0.1471	
-0.893162	0.180926	-0.451156	9.38	40.88	-1.33	0.4737	-0.0572	-0.1397	
-0.892918	0.190686	-0.468236	11.55	38.71	0.07	0.469	-0.0555	-0.1289	
-0.907436	0.194224	-0.461404	13.16	38.64	0.14	0.4744	-0.06	-0.1156	
-0.909388	0.18422	-0.455792	11.34	38.08	-0.28	0.4756	-0.0599	-0.1111	
-0.910852	0.16714	-0.447862	9.73	40.11	-1.89	0.4698	-0.0645	-0.1049	
-0.91134	0.15982	-0.440908	3.64	41.23	-3.64	0.4753	-0.0613	-0.1005	
-0.910364	0.162626	-0.456524	-6.3	39.69	-4.69	0.4697	-0.0707	-0.1019	
-0.907192	0.16714	-0.465064	-21.63	34.3	-5.88	0.4723	-0.0565	-0.0942	
-0.90646	0.172874	-0.488488	-15.33	34.23	-4.9	0.475	-0.0736	-0.0885	
-0.897554	0.170434	-0.507154	-7.42	33.95	-3.36	0.4789	-0.0594	-0.0779	
-0.88145	0.173728	-0.518256	1.19	33.6	-2.17	0.4775	-0.0656	-0.0764	
-0.870348	0.169336	-0.530456	-2.03	30.24	-1.33	0.4747	-0.0547	-0.0792	
-0.862662	0.166652	-0.541192	2.03	31.57	-1.19	0.4727	-0.0575	-0.0595	
-0.8479	0.165432	-0.567666	1.05	31.64	-0.63	0.4717	-0.0577	-0.0746	
-0.847534	0.168848	-0.5551	4.55	31.36	-0.21	0.4668	-0.0652	-0.0549	
-0.832406	0.172508	-0.548756	-0.21	30.52	-1.47	0.471	-0.0543	-0.0533	
-0.827648	0.163968	-0.55144	-5.25	31.85	-1.75	0.4737	-0.0636	-0.0475	
-0.824354	0.16043	-0.564982	-2.03	30.73	-0.42	0.4621	-0.0572	-0.041	
-0.823256	0.16104	-0.574132	0.49	27.02	1.4	0.4735	-0.0525	-0.0398	
-0.803126	0.167384	-0.579744	4.9	27.23	3.29	0.4719	-0.0587	-0.0337	
-0.811544	0.166652	-0.57096	8.26	27.09	4.06	0.4671	-0.0568	-0.0169	
-0.815814	0.166408	-0.561322	5.88	28.42	4.34	0.4702	-0.0585	-0.0246	
-0.812276	0.162992	-0.549854	1.68	28.98	4.69	0.4618	-0.0617	-0.032	
-0.809104	0.155184	-0.555954	-1.19	30.1	4.97	0.4627	-0.0614	-0.0138	
-0.825208	0.165676	-0.555954	1.19	29.96	7.07	0.4627	-0.0708	-0.0125	
-0.818742	0.169824	-0.57584	0.84	27.16	8.26	0.4611	-0.0535	-0.0076	
-0.811666	0.178852	-0.578768	6.79	26.04	6.93	0.4425	-0.0613	-0.0056	
-0.809348	0.183488	-0.591212	13.58	22.89	6.02	0.4579	-0.0612	0.0029	
-0.806786	0.187148	-0.598532	16.59	20.23	7.07	0.455	-0.0596	0.0045	
-0.79056	0.186538	-0.633302	12.67	18.13	6.86	0.465	-0.0658	0.0056	
-0.777872	0.202032	-0.630008	13.58	16.8	5.67	0.4562	-0.0626	0.0135	
-0.763842	0.19581	-0.634888	9.73	19.46	4.13	0.4675	-0.0782	0.019	
-0.774578	0.198006	-0.651114	6.79	16.66	4.06	0.4602	-0.0687	0.0224	
-0.76738	0.186538	-0.684298	2.66	12.6	4.41	0.4487	-0.0624	0.0228	
-0.756888	0.177998	-0.670024	7.49	7.84	4.27	0.4557	-0.067	0.0286	
-0.746762	0.175924	-0.679418	7	8.05	5.04	0.456	-0.075	0.0209	
-0.718946	0.182146	-0.693082	5.32	7.84	4.83	0.4515	-0.0686	0.0257	
-0.718092	0.178608	-0.698572	5.6	7.98	4.27	0.4485	-0.0779	0.0332	
-0.70455	0.173728	-0.70638	2.45	9.73	3.57	0.4599	-0.0748	0.0314	
-0.70028	0.164944	-0.705526	2.03	10.71	1.61	0.4526	-0.0716	0.0377	
-0.721874	0.172386	-0.676612	2.17	11.34	-0.98	0.4614	-0.0717	0.0314	
-0.723704	0.167018	-0.695034	-2.1	13.44	-1.82	0.4483	-0.0653	0.0379	
-0.715774	0.172508	-0.689422	-0.98	13.65	-2.1	0.4455	-0.07	0.0364	
-0.721752	0.179096	-0.68747	-3.43	11.48	-2.17	0.454	-0.0653	0.0393	
-0.72285	0.177632	-0.718458	-3.29	9.8	-1.19	0.4511	-0.0793	0.0406	
-0.717726	0.175436	-0.725168	-0.91	4.69	-0.56	0.4512	-0.0669	0.0363	
-0.72102	0.187636	-0.705526	1.47	4.62	-0.91	0.4511	-0.07	0.0393	
-0.726998	0.181414	-0.698328	1.26	6.51	-1.19	0.4436	-0.0698	0.0516	
-0.723826	0.179218	-0.68381	-0.63	6.58	-1.89	0.4493	-0.076	0.0513	
-0.727974	0.182512	-0.705404	-4.55	1.75	-1.33	0.4493	-0.076	0.0513	
-0.7076	0.182756	-0.73261	-3.01	-5.46	-0.42	0.4566	-0.0667	0.0467	
-0.720044	0.18666	-0.708698	-3.15	-9.87	0	0.4507	-0.0744	0.0528	
-0.723216	0.18849	-0.704794	-4.13	-6.72	-0.28	0.451	-0.0731	0.0423	
-0.731024	0.183488	-0.702964	-4.13	-5.04	-0.42	0.451	-0.0652	0.0424	
-0.72834	0.17446	-0.695766	-5.95	-6.44	-0.49	0.4524	-0.0652	0.0454	
-0.723826	0.170434	-0.704184	-6.16	-9.45	-0.77	0.454	-0.0684	0.0392	
-0.718702	0.182756	-0.716018	-6.23	-13.58	-0.7	0.4623	-0.0605	0.0466	
-0.721874	0.182146	-0.71431	-7.56	-16.66	-0.98	0.4471	-0.0717	0.0303	
-0.730658	0.190808	-0.688934	-7.84	-16.8	-1.61	0.447	-0.0685	0.0349	
-0.7381	0.19337	-0.675148	-10.71	-15.89	-2.17	0.4586	-0.0624	0.027	
-0.74054	0.187392	-0.675026	-13.09	-16.03	-3.01	0.4574	-0.0796	0.0223	
-0.742248	0.188246	-0.675026	-13.23	-19.18	-4.2	0.4515	-0.0702	0.0272	
-0.7503	0.197762	-0.669536	-13.16	-23.94	-4.9	0.4605	-0.07979999	0.0146	
-0.771772	0.20984	-0.658068	-16.87	-29.82	-4.69	0.4562	-0.0704	0.0119	
-0.783362	0.218624	-0.660142	-19.18	-35.35	-4.34	0.4617	-0.0672	0.0193	
-0.794708	0.211304	-0.664656	-19.95	-37.66	-3.64	0.4689	-0.0579	0.0162	
-0.794342	0.194224	-0.651968	-19.11	-38.15	-2.94	0.4652	-0.0691	-0.0019	
-0.807884	0.198372	-0.658556	-17.36	-39.97	-3.5	0.4668	-0.0629	-0.0079	
-0.800198	0.210328	-0.661362	-16.03	-40.25	-5.95	0.473	-0.0679	-0.0218	
-0.803492	0.207644	-0.635498	-13.37	-43.12	-6.79	0.4674	-0.0758	-0.0278	
-0.804834	0.199714	-0.60268	-14.14	-45.85	-5.04	0.4746	-0.0602	-0.0308	
-0.81923	0.200202	-0.568764	-13.86	-46.62	-4.13	0.465	-0.0697	-0.0428	
-0.833016	0.1952	-0.545828	-14.56	-50.05	-1.75	0.4611	-0.0605	-0.0561	
-0.838384	0.186538	-0.515572	-14.49	-54.53	1.19	0.474	-0.0715	-0.0552	
-0.841678	0.19886	-0.487634	-9.17	-55.79	3.01	0.4673	-0.0686	-0.0716	
-0.827404	0.204228	-0.504714	-5.04	-50.75	1.61	0.4631	-0.0624	-0.0744	
-0.858636	0.219722	-0.49776	3.85	-47.74	0.28	0.4688	-0.0671	-0.0746	
-0.874374	0.217648	-0.463722	7	-48.09	0.35	0.4664	-0.0611	-0.0881	
-0.879376	0.216306	-0.402966	10.22	-45.08	1.4	0.4741	-0.07229999	-0.1051	
-0.893894	0.204716	-0.414312	-5.04	-35.84	1.19	0.4739	-0.0675	-0.1005	
-0.870958	0.191784	-0.440542	-10.43	-32.62	0.21	0.4741	-0.0645	-0.108	
-0.862174	0.196786	-0.431026	-9.59	-37.31	1.96	0.4658	-0.0662	-0.1139	
-0.867054	0.203252	-0.396866	-0.98	-38.99	5.46	0.4703	-0.0554	-0.1229	
-0.889258	0.219966	-0.357948	2.52	-36.47	8.54	0.4688	-0.0757	-0.1202	
-0.908656	0.232288	-0.343064	2.45	-35.49	11.13	0.4719	-0.0727	-0.1278	
-0.927322	0.235704	-0.317688	-2.17	-32.41	10.36	0.4664	-0.0728	-0.1336	
-0.92598	0.234484	-0.32086	-4.2	-30.94	7.98	0.4748	-0.0743	-0.1294	
-0.922076	0.228994	-0.314394	-4.69	-30.38	5.6	0.472	-0.0774	-0.1294	
-0.925004	0.23058	-0.312442	-5.46	-28.7	3.5	0.463	-0.0795	-0.1624	
-0.930006	0.22936	-0.294508	-5.32	-28.35	1.61	0.4689	-0.0812	-0.1702	
-0.935984	0.23912	-0.267424	-6.09	-27.58	0.28	0.466	-0.08109999	-0.1671	
-0.939034	0.239608	-0.258762	-8.68	-25.69	-0.7	0.4617	-0.0796	-0.1684	
-0.93696	0.237412	-0.254248	-9.8	-23.87	-1.4	0.4691	-0.0766	-0.1777	
-0.936716	0.239242	-0.255468	-8.12	-21.49	-1.33	0.4618	-0.0733	-0.1713	
-0.93696	0.251686	-0.252662	-5.53	-21.07	-1.89	0.4596	-0.0784	-0.1925	
-0.946476	0.260592	-0.244122	-7	-21.07	-3.99	0.465	-0.0813	-0.1806	
-0.944402	0.24644	-0.245952	-10.5	-18.2	-5.67	0.4622	-0.0642	-0.1848	
-0.935008	0.226798	-0.241682	-9.52	-16.59	-5.32	0.4564	-0.0704	-0.1817	
-0.938668	0.22204	-0.232776	-5.74	-14.84	-3.57	0.461	-0.0658	-0.1924	
-0.944402	0.224968	-0.221308	-2.73	-12.6	-1.54	0.4694	-0.0689	-0.1882	
-0.954894	0.224602	-0.212036	-0.49	-10.64	-0.14	0.4582	-0.0674	-0.1938	
-0.959652	0.22326	-0.205326	1.54	-9.66	0.42	0.4613	-0.0707	-0.2015	
-0.957578	0.220454	-0.211914	2.38	-8.75	0.91	0.4667	-0.069	-0.1911	
-0.957334	0.224236	-0.205082	3.99	-8.54	1.4	0.4639	-0.0659	-0.1925	
-0.958676	0.232776	-0.203252	3.92	-8.26	1.4	0.4568	-0.0643	-0.1937	
-0.964654	0.246562	-0.196908	3.22	-8.05	0.7	0.4582	-0.0643	-0.1938	
-0.964776	0.254004	-0.195444	0.91	-7.49	-0.42	0.4585	-0.0738	-0.203	
-0.961848	0.251442	-0.193004	-1.05	-7	-1.82	0.4541	-0.0706	-0.1998	
-0.960018	0.24705	-0.191418	-2.31	-6.37	-2.59	0.4499	-0.066	-0.2026	
-0.954772	0.240096	-0.196542	-3.64	-5.46	-2.87	0.4529	-0.0755	-0.2074	
-0.958066	0.238022	-0.196786	-3.43	-5.11	-2.38	0.453	-0.063	-0.2102	
-0.962092	0.23607	-0.190442	-2.66	-4.97	-2.03	0.4544	-0.063	-0.2118	
-0.960262	0.233386	-0.190076	-2.17	-3.92	-1.68	0.453	-0.0739	-0.2104	
-0.960628	0.232044	-0.190198	-1.33	-3.22	-1.12	0.4618	-0.0756	-0.2168	
-0.960262	0.22997	-0.188124	-0.42	-2.59	-0.77	0.4672	-0.0708	-0.2078	
-0.96136	0.22692	-0.187636	1.12	-1.68	-0.35	0.4586	-0.0708	-0.206	
-0.9638	0.226554	-0.19032	2.1	-0.84	0.14	0.4528	-0.052	-0.207	
-0.963312	0.227408	-0.19215	2.1	-0.14	0.14	0.4626	-0.0691	-0.1985	
-0.965264	0.228262	-0.195444	0.91	0.56	-0.63	0.4555	-0.0534	-0.1996	
-0.967826	0.226676	-0.19642	0.63	1.75	-1.68	0.4531	-0.0756	-0.215	
-0.971608	0.226066	-0.198494	-0.35	2.52	-2.94	0.4589	-0.0647	-0.2165	
-0.965508	0.219722	-0.206546	0.91	2.1	-3.5	0.4643	-0.0676	-0.2061	
-0.967338	0.228628	-0.209962	3.29	1.89	-3.15	0.4587	-0.0583	-0.2119	
-0.96502	0.227286	-0.205692	2.8	2.03	-3.22	0.4584	-0.0582	-0.2028	
-0.96197	0.22021	-0.21411	0.98	3.01	-3.08	0.4701	-0.0693	-0.2094	
-0.961238	0.217404	-0.209352	1.12	2.94	-2.87	0.4587	-0.0662	-0.212	
-0.963678	0.218014	-0.21228	1.61	3.36	-2.31	0.453	-0.0661	-0.2103	
-0.963434	0.217282	-0.213256	3.15	3.57	-1.75	0.4643	-0.0708	-0.2062	
-0.967338	0.215696	-0.21106	3.71	3.64	-1.26	0.4642	-0.0645	-0.2031	
-0.967338	0.21838	-0.213256	4.48	3.92	-0.28	0.4614	-0.0661	-0.206	
-0.96502	0.215452	-0.216306	4.48	3.99	0.35	0.4557	-0.066	-0.2058	
-0.96563	0.2135	-0.21472	4.9	4.13	1.05	0.4612	-0.0597	-0.1999	
-0.968314	0.215574	-0.218258	3.36	4.69	0.77	0.4583	-0.0738	-0.1985	
-0.970144	0.217038	-0.220088	2.31	4.62	0.21	0.4572	-0.0661	-0.2074	
-0.965508	0.217282	-0.220698	1.4	4.62	-0.07	0.4642	-0.0707	-0.2047	
-0.964288	0.215574	-0.22387	1.12	4.62	0.07	0.4584	-0.0503	-0.2027	
-0.96502	0.21167	-0.224236	1.54	4.69	0.49	0.4597	-0.0503	-0.1982	
-0.960506	0.210938	-0.22997	1.4	4.69	0.98	0.4598	-0.06439999	-0.1984	
-0.957456	0.212158	-0.237534	2.1	5.18	1.54	0.458	-0.0595	-0.1892	
-0.962702	0.21594	-0.23485	3.08	4.55	2.03	0.4668	-0.0659	-0.1941	
-0.96197	0.217282	-0.230824	3.08	5.39	2.31	0.4568	-0.0596	-0.1967	
-0.956968	0.211792	-0.246196	2.45	5.88	2.24	0.4697	-0.0612	-0.1956	
-0.958066	0.213134	-0.24827	3.92	5.04	1.75	0.4724	-0.0659	-0.1927	
-0.961116	0.22265	-0.24766	5.88	4.41	1.82	0.4582	-0.0643	-0.1938	
-0.958798	0.227896	-0.244854	4.83	4.34	1.19	0.4652	-0.069	-0.1911	
-0.958432	0.23058	-0.24949	3.43	5.11	0.63	0.4654	-0.0706	-0.1971	
-0.955992	0.228628	-0.253638	2.8	4.83	0.35	0.4637	-0.0689	-0.188	
-0.955748	0.224236	-0.25437	4.69	5.67	0.07	0.4582	-0.0737	-0.1939	
-0.959286	0.219478	-0.257176	2.94	5.53	0.07	0.4609	-0.0736	-0.1895	
-0.959896	0.222894	-0.252052	3.15	4.13	-0.14	0.4581	-0.0658	-0.1923	
-0.953186	0.224968	-0.259738	1.54	3.92	-0.7	0.4581	-0.0705	-0.1908	
-0.956114	0.226554	-0.257298	4.62	3.15	-1.26	0.4666	-0.0689	-0.1881	
-0.955626	0.216306	-0.269376	3.71	3.64	-1.54	0.4752	-0.0674	-0.1913	
-0.954162	0.21106	-0.267058	2.52	3.08	-2.87	0.455	-0.06879999	-0.1832	
-0.955504	0.214354	-0.262056	2.73	3.5	-4.83	0.4623	-0.0642	-0.1879	
-0.949404	0.225212	-0.266814	2.1	4.2	-5.74	0.4622	-0.0673	-0.1864	
-0.960262	0.228872	-0.25193	2.45	3.85	-5.95	0.4635	-0.06879999	-0.1789	
-0.95465	0.223992	-0.260348	1.47	4.41	-6.44	0.4535	-0.0641	-0.1815	
-0.949404	0.19337	-0.267302	1.26	6.3	-7.91	0.4649	-0.0657	-0.1804	
-0.95526	0.19947	-0.257908	0.49	5.25	-10.29	0.4693	-0.061	-0.1835	
-0.950258	0.211914	-0.255712	2.1	5.95	-12.25	0.4649	-0.0579	-0.1818	
-0.95343	0.214476	-0.276574	-0.7	8.33	-13.02	0.4694	-0.058	-0.188	
-0.962092	0.209596	-0.263154	0	6.16	-13.72	0.4693	-0.0579	-0.1834	
-0.954894	0.20679	-0.260958	0.28	6.16	-15.19	0.4646	-0.0499	-0.1726	
-0.959652	0.205204	-0.26901	-3.15	7.21	-16.66	0.4692	-0.05	-0.1803	
-0.96014	0.194224	-0.263642	-3.43	6.23	-19.04	0.4763	-0.0484	-0.179	
-0.956968	0.194102	-0.26718	-3.71	6.58	-21	0.4649	-0.0469	-0.1801	
-0.957212	0.194712	-0.264496	-3.64	6.51	-23.24	0.4689	-0.039	-0.1741	
-0.960506	0.190808	-0.272182	-5.67	7	-25.27	0.4745	-0.0264	-0.1695	
-0.969046	0.179462	-0.275842	-10.57	6.58	-27.86	0.4772	-0.0326	-0.1652	
-0.948794	0.16775	-0.298168	-15.96	8.54	-30.87	0.4718	-0.0343	-0.1741	
-0.94184	0.161162	-0.312686	-24.29	11.55	-35.98	0.4664	-0.0266	-0.1844	
-0.948428	0.165432	-0.302438	-13.37	9.52	-38.36	0.4676	-0.0186	-0.1767	
-0.964288	0.151036	-0.274866	-11.06	8.82	-41.16	0.4817	-0.0217	-0.1727	
-0.967826	0.136884	-0.273524	-15.4	12.39	-43.05	0.4861	0.0016	-0.177	
-0.963068	0.102602	-0.295606	-21.07	13.58	-42.84	0.4786	0.0049	-0.1677	
-0.951478	0.065392	-0.289384	-24.99	12.25	-43.47	0.4738	0.0224	-0.1521	
-0.96014	0.06734399	-0.308538	-21.14	14.84	-43.82	0.4825	0.0286	-0.1553	
-0.96319	0.052338	-0.312076	-18.76	14.98	-43.54	0.4838	0.038	-0.1507	
-0.978806	0.04392	-0.311222	-15.26	14	-41.16	0.4894	0.0443	-0.1492	
-0.971242	0.013542	-0.308172	-11.76	13.72	-38.43	0.4823	0.0537	-0.1519	
-0.96685	-0.012688	-0.32025	-8.68	11.06	-36.75	0.4793	0.0569	-0.1472	
-0.964776	-0.019886	-0.313052	0.49	6.02	-35.14	0.4835	0.06	-0.1443	
-0.978562	-0.042822	-0.307806	2.59	5.67	-33.11	0.4893	0.0725	-0.1488	
-0.978196	-0.060512	-0.303902	7.77	4.06	-31.85	0.4822	0.0709	-0.1486	
-0.959774	-0.082106	-0.30744	5.39	0.42	-31.5	0.4881	0.0693	-0.1533	
-0.939766	-0.093696	-0.330498	0.7	-0.14	-29.19	0.4836	0.0882	-0.1484	
-0.95465	-0.098698	-0.344406	-4.06	-0.35	-23.87	0.4795	0.0849	-0.1543	
-0.976366	-0.101992	-0.317932	-0.07	-5.32	-22.75	0.4763	0.0914	-0.1451	
-0.98393	-0.13237	-0.278526	-2.03	-3.99	-25.34	0.4722	0.0897	-0.1495	
-0.961604	-0.158478	-0.303658	-14.84	-2.73	-29.26	0.4737	0.0991	-0.1539	
-0.904264	-0.1281	-0.393694	-11.55	1.19	-29.47	0.4739	0.1005	-0.16	
-0.875838	-0.077348	-0.453474	1.12	-3.15	-25.2	0.4767	0.1052	-0.1585	
-0.924028	-0.069174	-0.413946	12.32	-5.04	-19.74	0.4723	0.11	-0.1537	
-0.96624	-0.078446	-0.360144	30.1	-3.01	-18.76	0.4682	0.1131	-0.1596	
-0.955138	-0.106872	-0.35136	26.39	-1.05	-19.95	0.471	0.1178	-0.1581	
-0.991494	-0.09162199	-0.375028	43.19	6.02	-19.46	0.4795	0.1193	-0.1584	
-0.9211	-0.106994	-0.290726	38.57	-1.12	-21.77	0.471	0.124	-0.1595	
-0.935984	-0.137616	-0.31171	6.23	9.66	-23.59	0.4782	0.1224	-0.1613	
-0.936228	-0.14274	-0.329888	-4.97	9.73	-24.43	0.4709	0.1366	-0.1578	
-0.97295	-0.14823	-0.319274	-3.01	8.96	-21.7	0.475	0.1445	-0.1533	
-0.96197	-0.182756	-0.311954	-4.41	11.13	-20.37	0.4736	0.1335	-0.1519	
-0.946598	-0.192882	-0.333426	-5.74	9.17	-18.55	0.4652	0.1397	-0.1591	
-0.954406	-0.200568	-0.334036	-4.69	6.23	-15.75	0.4736	0.1492	-0.1532	
-0.946354	-0.206058	-0.327204	-1.33	2.66	-13.23	0.4707	0.143	-0.1501	
-0.936594	-0.217404	-0.331474	-1.19	1.89	-8.96	0.4762	0.1352	-0.1444	
-0.916586	-0.23485	-0.332938	-0.07	-0.77	-6.86	0.4634	0.1462	-0.1453	
-0.913414	-0.249612	-0.344162	-3.5	-2.24	-5.39	0.4706	0.1492	-0.15	
-0.920002	-0.256688	-0.329644	-1.19	-2.59	-1.82	0.4649	0.1399	-0.1485	
-0.930372	-0.241194	-0.345016	-2.31	-1.05	2.03	0.4706	0.1618	-0.1483	
-0.931348	-0.239974	-0.348066	3.36	-2.03	5.74	0.4605	0.1525	-0.1451	
-0.917684	-0.23729	-0.351482	6.58	-3.71	8.82	0.4665	0.157	-0.1558	
-0.93452	-0.219234	-0.345748	5.67	-3.71	11.83	0.4736	0.1398	-0.1518	
-0.939034	-0.21228	-0.349042	3.29	-2.03	13.51	0.4692	0.1399	-0.1501	
-0.944768	-0.198738	-0.359412	2.03	-1.89	14.42	0.4694	0.1398	-0.1547	
-0.936838	-0.197274	-0.365146	1.19	-1.68	15.05	0.4693	0.1367	-0.1532	
-0.933178	-0.190808	-0.352214	-1.4	-1.61	15.96	0.4725	0.1381	-0.1624	
-0.930982	-0.177388	-0.36661	-2.31	0.98	17.78	0.4737	0.135	-0.1564	
-0.93452	-0.148596	-0.359412	-0.56	4.48	17.57	0.465	0.1336	-0.1501	
-0.95587	-0.119682	-0.344772	-4.76	4.06	19.04	0.4692	0.1211	-0.1489	
-0.956724	-0.108946	-0.348798	-12.81	6.02	20.09	0.469	0.1259	-0.1428	
-0.947696	-0.12871	-0.340746	-13.51	3.71	21.7	0.4819	0.1227	-0.1433	
-0.937082	-0.125416	-0.347578	-14.56	2.66	24.29	0.4708	0.1194	-0.1535	
-0.953674	-0.117242	-0.338062	-13.79	2.87	27.51	0.4839	0.113	-0.1601	
-0.953552	-0.115656	-0.323788	-12.74	2.94	30.1	0.4694	0.1147	-0.1551	
-0.956358	-0.1159	-0.339404	-10.71	1.96	33.39	0.4777	0.1023	-0.1449	
-0.939278	-0.114436	-0.348432	-3.57	-2.1	36.82	0.4776	0.0946	-0.1405	
-0.951234	-0.115534	-0.317078	-7.49	-3.64	39.9	0.4794	0.0975	-0.1526	
-0.957334	-0.106262	-0.324398	-11.55	-2.73	38.57	0.4749	0.0914	-0.1435	
-0.909388	-0.09699	-0.358802	-13.23	-0.07	43.33	0.4793	0.0819	-0.1483	
-0.947452	-0.071004	-0.358314	4.2	-2.31	46.2	0.478	0.0756	-0.1514	
-0.939034	-0.054168	-0.33489	4.27	-3.99	45.92	0.478	0.0553	-0.1502	
-0.95221	-0.014884	-0.343918	7.98	-0.42	47.95	0.4836	0.0459	-0.1475	
-0.973316	0.023424	-0.362706	10.99	-3.64	51.94	0.4894	0.038	-0.1493	
-0.962702	0.071126	-0.34404	20.58	-12.95	49.77	0.4766	0.0365	-0.1505	
-0.9638	0.10126	-0.324276	18.48	-6.37	46.41	0.4751	0.0256	-0.1475	
-0.950502	0.118218	-0.338184	8.82	-3.08	40.6	0.4855	0.0206	-0.1601	
-0.939522	0.130052	-0.347456	-0.35	-2.38	35.63	0.4784	0.0191	-0.1599	
-0.93513	0.152256	-0.358192	-0.14	-0.35	32.62	0.4769	-0.0058	-0.1557	
-0.943182	0.170068	-0.36173	3.85	2.52	31.5	0.4839	0.0082	-0.1542	
-0.954894	0.180804	-0.341966	6.23	2.66	30.94	0.4779	0.0006	-0.1435	
-0.94428	0.176656	-0.332084	7	4.83	30.8	0.4836	-0.0103	-0.1408	
-0.939766	0.164212	-0.316834	6.3	5.81	29.4	0.4879	-0.0072	-0.1424	
-0.944646	0.178974	-0.305732	4.06	6.44	26.53	0.4767	-0.0009999999	-0.1495	
-0.922564	0.177388	-0.3355	-1.75	10.15	22.89	0.4782	-0.0167	-0.1513	
-0.937326	0.16165	-0.34343	-6.37	10.36	21.42	0.465	-0.0196	-0.1404	
-0.94428	0.144082	-0.322812	-4.34	7.42	20.23	0.4807	-0.0274	-0.138	
-0.946476	0.133346	-0.319884	-1.75	5.46	22.61	0.468	-0.0275	-0.1436	
-0.956236	0.15799	-0.322812	4.41	6.23	24.85	0.478	-0.0369	-0.1441	
-0.948672	0.179584	-0.334768	3.99	6.51	24.15	0.4749	-0.0243	-0.1362	
-0.948306	0.199592	-0.354288	-1.96	4.13	21.7	0.472	-0.0414	-0.1333	
-0.938912	0.185196	-0.34831	-9.73	0.07	21.98	0.4747	-0.0398	-0.1274	
-0.935496	0.18361	-0.349042	-5.46	-3.36	24.29	0.4663	-0.0508	-0.1333	
-0.929274	0.196054	-0.354166	4.62	-4.76	27.51	0.4649	-0.0508	-0.1333	
-0.930372	0.21106	-0.335256	11.69	-6.44	29.68	0.4791	-0.0633	-0.1309	
-0.94062	0.240828	-0.320006	10.99	-5.81	29.82	0.4712	-0.0653	-0.1534	
-0.947208	0.24217	-0.327692	0.98	-4.13	26.67	0.4639	-0.087	-0.1444	
-0.924882	0.245464	-0.351238	-6.86	-3.43	24.99	0.4593	-0.0728	-0.1364	
-0.923174	0.239364	-0.363194	-7.28	-5.04	24.36	0.4554	-0.08549999	-0.1486	
-0.909632	0.256566	-0.370514	-1.68	-6.72	25.48	0.4569	-0.0808	-0.1516	
-0.909754	0.25193	-0.357826	-1.47	-8.05	27.16	0.4623	-0.0885	-0.1383	
-0.914756	0.274988	-0.347334	3.22	-11.69	27.79	0.4621	-0.0993	-0.1324	
-0.920734	0.28975	-0.328912	0.7	-11.06	26.67	0.461	-0.0917	-0.1428	
-0.915122	0.290848	-0.339526	-9.1	-9.73	25.34	0.4598	-0.0949	-0.1504	
-0.915732	0.292434	-0.348066	-10.43	-8.47	25.97	0.4572	-0.1075	-0.1566	
-0.915122	0.278282	-0.328058	-9.73	-13.58	26.74	0.4513	-0.1043	-0.1533	
-0.911706	0.285358	-0.313296	-5.88	-15.54	26.74	0.4543	-0.1122	-0.155	
-0.925248	0.31354	-0.30866	-2.8	-15.82	26.67	0.4412	-0.1168	-0.1486	
-0.908778	0.340258	-0.309758	-1.96	-16.45	27.16	0.4515	-0.1357	-0.1553	
-0.922442	0.34709	-0.303048	-11.2	-15.05	24.64	0.4573	-0.1139	-0.1597	
-0.913658	0.357094	-0.297802	-13.86	-14.84	23.87	0.4503	-0.1311	-0.1628	
-0.923784	0.346358	-0.287676	-19.32	-14.21	22.19	0.4503	-0.1421	-0.1645	
-0.925858	0.360388	-0.272548	-14.7	-16.1	21.49	0.4505	-0.1313	-0.1719	
-0.917684	0.372954	-0.264984	-15.33	-16.52	22.68	0.4446	-0.1405	-0.1627	
-0.911828	0.403088	-0.259616	-13.65	-17.78	21.49	0.4419	-0.1422	-0.1702	
-0.902922	0.422974	-0.234484	-10.85	-17.22	19.39	0.4352	-0.1518	-0.1838	
-0.90158	0.447496	-0.217648	-10.99	-14.7	17.57	0.4509	-0.1487	-0.1827	
-0.874618	0.435296	-0.215086	-14.91	-12.32	16.87	0.4341	-0.1503	-0.1928	
-0.865834	0.437614	-0.24156	-7.91	-11.62	19.46	0.4366	-0.1549	-0.1824	
-0.874862	0.429806	-0.232166	-5.81	-11.9	24.85	0.4285	-0.1535	-0.1972	
-0.896212	0.433954	-0.257298	9.03	-13.51	22.61	0.4339	-0.1643	-0.187	
-0.872056	0.446032	-0.254614	9.66	-16.59	24.22	0.4269	-0.1628	-0.1897	
-0.852048	0.450424	-0.267302	12.25	-14.35	25.06	0.4327	-0.1738	-0.1931	
-0.848754	0.435418	-0.264374	9.38	-12.11	25.41	0.4224	-0.1642	-0.1821	
-0.832284	0.439444	-0.236192	6.23	-11.69	25.34	0.4311	-0.1691	-0.1885	
-0.83021	0.452254	-0.246684	3.71	-8.05	25.13	0.4153	-0.1783	-0.182	
-0.834968	0.44896	-0.254614	6.72	-5.81	26.39	0.4212	-0.1894	-0.19	
-0.820938	0.468846	-0.239364	19.95	-7	28.98	0.4171	-0.1879	-0.1959	
-0.831186	0.468236	-0.213378	19.53	-8.12	29.82	0.4055	-0.1894	-0.1895	
-0.839848	0.46848	-0.219966	15.61	-3.36	28.42	0.4126	-0.1987	-0.1868	
-0.851682	0.503616	-0.20374	18.69	-2.87	27.44	0.4071	-0.1973	-0.1927	
-0.828868	0.520208	-0.223504	22.12	-2.87	26.67	0.4054	-0.2002	-0.1836	
-0.811788	0.521184	-0.244	14.98	0	27.16	0.4084	-0.2207	-0.1885	
-0.827404	0.55327	-0.22692	20.02	-3.43	28	0.4087	-0.213	-0.1975	
-0.823012	0.544486	-0.218136	14.42	-3.43	26.53	0.3986	-0.2223	-0.1928	
-0.818132	0.526308	-0.247172	7	0.7	23.8	0.4013	-0.2316	-0.1885	
-0.828502	0.5551	-0.25437	10.99	-0.21	21.77	0.3983	-0.2222	-0.1852	
-0.829966	0.566202	-0.223504	9.31	-0.84	17.99	0.3842	-0.2378	-0.188	
-0.812642	0.55205	-0.246196	3.5	3.29	12.81	0.3825	-0.2346	-0.1803	
-0.79788	0.546682	-0.256322	0.28	6.23	9.52	0.3929	-0.2364	-0.1943	
-0.805932	0.55266	-0.229238	3.36	4.48	7.63	0.391	-0.2362	-0.1791	
-0.808982	0.554978	-0.233508	-2.38	4.9	3.64	0.3798	-0.2503	-0.185	
-0.798246	0.571814	-0.265472	-5.11	6.79	-1.12	0.3922	-0.2329	-0.17	
-0.800808	0.571692	-0.259006	0.63	3.5	-1.47	0.3938	-0.2392	-0.1762	
-0.814594	0.556442	-0.255834	9.52	0.7	-2.03	0.3984	-0.2535	-0.1842	
-0.817034	0.56852	-0.274988	8.47	0.07	-4.27	0.3867	-0.2424	-0.1776	
-0.79544	0.577304	-0.266326	2.87	0.07	-6.93	0.3913	-0.2363	-0.1882	
-0.787144	0.590114	-0.267668	1.75	0.63	-9.59	0.3912	-0.2441	-0.1838	
-0.78202	0.588284	-0.276574	0.28	0.28	-12.11	0.3983	-0.2425	-0.1825	
-0.78141	0.571082	-0.264374	2.66	-0.98	-14.21	0.401	-0.2284	-0.1793	
-0.783728	0.547048	-0.301218	7.07	0.63	-15.4	0.3925	-0.2346	-0.1807	
-0.788486	0.5612	-0.288408	-2.94	3.01	-18.2	0.3996	-0.2283	-0.1793	
-0.794708	0.557662	-0.279868	-5.39	7.63	-21.91	0.3937	-0.2314	-0.1746	
-0.76616	0.543144	-0.280966	-9.52	10.36	-26.25	0.4022	-0.2189	-0.1732	
-0.81557	0.524112	-0.284016	-18.13	10.57	-28.49	0.4152	-0.2158	-0.1781	
-0.813862	0.50996	-0.271084	-13.93	8.82	-27.72	0.3995	-0.2158	-0.1761	
-0.811422	0.515084	-0.268522	-9.8	6.79	-27.86	0.4195	-0.2112	-0.1781	
-0.829112	0.508252	-0.239486	-10.92	3.29	-30.03	0.4065	-0.2157	-0.1717	
-0.837774	0.494954	-0.231434	-9.8	5.88	-32.48	0.4123	-0.2064	-0.1763	
-0.836798	0.502152	-0.244732	-2.8	6.86	-32.97	0.414	-0.1909	-0.1867	
-0.84363	0.50264	-0.24217	3.36	5.53	-33.74	0.412	-0.1859	-0.1684	
-0.851804	0.483852	-0.252174	3.64	6.16	-34.3	0.415	-0.1813	-0.1715	
-0.86559	0.462746	-0.25559	7.91	4.83	-35.42	0.4293	-0.1704	-0.1763	
-0.87779	0.449326	-0.25315	10.43	2.17	-35.21	0.4208	-0.1735	-0.1761	
-0.88084	0.43371	-0.251198	15.75	2.73	-34.58	0.4348	-0.1734	-0.1675	
-0.880474	0.40687	-0.2623	17.85	1.4	-35.14	0.4466	-0.1658	-0.1798	
-0.879498	0.38491	-0.273768	19.6	-0.21	-33.88	0.4337	-0.1596	-0.1808	
-0.888038	0.367708	-0.289994	18.55	-1.47	-31.22	0.4362	-0.1468	-0.1686	
-0.912682	0.35441	-0.278404	22.05	-3.36	-28.91	0.4404	-0.1437	-0.1657	
-0.932568	0.338916	-0.285236	22.61	-4.55	-27.72	0.4461	-0.1374	-0.1673	
-0.944036	0.298778	-0.301096	22.68	-0.35	-26.46	0.4475	-0.1421	-0.1659	
-0.965508	0.283406	-0.305	26.6	0.56	-25.06	0.4519	-0.1391	-0.1705	
-0.966118	0.268522	-0.279014	19.67	0.63	-26.11	0.4404	-0.1343	-0.1686	
-0.941962	0.255468	-0.280112	13.09	3.57	-27.02	0.4419	-0.1328	-0.1686	
-0.925004	0.246318	-0.288896	8.12	4.48	-27.09	0.4473	-0.128	-0.1611	
-0.932812	0.237412	-0.289994	7.77	1.82	-24.78	0.4463	-0.1172	-0.1745	
-0.920368	0.248148	-0.298656	15.61	-2.45	-21.28	0.4488	-0.1076	-0.1624	
-0.799344	0.22936	-0.358802	15.54	-3.29	-13.16	0.4602	-0.1124	-0.1628	
-0.94001	0.267668	-0.274866	16.52	-13.72	-15.12	0.4459	-0.1107	-0.1608	
-0.962092	0.244366	-0.301584	8.54	-4.83	-15.26	0.4487	-0.1138	-0.1594	
-0.94062	0.249856	-0.311588	5.81	-5.88	-16.24	0.4592	-0.111	-0.1764	
-0.929152	0.249856	-0.310002	4.34	-4.69	-15.68	0.4561	-0.1124	-0.1672	
-0.93452	0.259128	-0.304146	4.06	-1.75	-14.07	0.4519	-0.09999999	-0.1729	
-0.929884	0.257298	-0.301096	1.05	-0.21	-14	0.4518	-0.1062	-0.17	
-0.914512	0.244244	-0.308782	1.05	0.56	-14.42	0.4518	-0.1046	-0.1685	
-0.932202	0.24705	-0.321958	-0.77	0.49	-15.33	0.4545	-0.0936	-0.1638	
-0.928298	0.227774	-0.314028	-4.27	1.47	-15.61	0.4547	-0.0999	-0.17	
-0.936594	0.237168	-0.296338	-4.69	-0.49	-16.03	0.4562	-0.0953	-0.1745	
-0.928054	0.22814	-0.279502	-10.71	2.73	-19.46	0.4562	-0.0828	-0.1743	
-0.939278	0.229848	-0.290848	-8.61	2.66	-21.91	0.4559	-0.0826	-0.1652	
-0.944524	0.228628	-0.2623	-9.03	1.05	-26.11	0.4677	-0.0844	-0.1762	
-0.940986	0.233508	-0.271572	-10.57	4.34	-28	0.4608	-0.0814	-0.1835	
-0.945622	0.231678	-0.260226	-10.01	4.76	-30.24	0.4615	-0.0669	-0.1606	
-0.955138	0.228872	-0.255468	-15.68	7.28	-33.39	0.4645	-0.0639	-0.1683	
-0.951478	0.219844	-0.252906	-18.76	6.23	-34.65	0.4664	-0.0563	-0.1818	
-0.96319	0.2013	-0.257664	-20.44	5.88	-35.49	0.4674	-0.0545	-0.1682	
-0.973438	0.171288	-0.270596	-21.14	7.42	-34.86	0.476	-0.0483	-0.1714	
-0.96624	0.138226	-0.289994	-15.96	5.67	-33.04	0.4756	-0.0387	-0.1591	
-0.96319	0.115412	-0.298168	-13.51	5.32	-33.88	0.4658	-0.0294	-0.1647	
-0.975024	0.099796	-0.275354	-1.75	-0.63	-34.3	0.47	-0.0184	-0.1617	
-0.960994	0.129198	-0.275232	-3.99	-0.35	-34.44	0.4728	-0.0184	-0.1603	
-0.980514	0.115778	-0.26657	-7.07	-1.96	-33.39	0.4729	-0.009099999	-0.1647	
-0.967826	0.084546	-0.2867	-13.02	0.49	-33.11	0.4715	-0.0138	-0.1647	
-0.958676	0.062952	-0.310002	-12.53	0.35	-32.55	0.4844	0.0017	-0.1694	
-0.976122	0.053192	-0.299266	-4.97	-3.43	-31.92	0.4716	0.0017	-0.1705	
-0.944768	0.084058	-0.304756	9.94	-6.79	-32.62	0.4732	0	-0.1766	
-0.962824	0.086132	-0.306952	8.61	-9.17	-32.27	0.4773	0.0064	-0.1691	
-0.990274	0.0671	-0.275964	6.93	-9.1	-32.97	0.4816	0.022	-0.172	
-0.984784	0.079788	-0.269864	10.71	-6.79	-31.22	0.47	0.0253	-0.1671	
-0.981002	0.06039	-0.27938	4.13	-4.76	-33.81	0.4857	0.0393	-0.1689	
-0.956114	0.033306	-0.284138	1.05	-6.09	-37.1	0.4745	0.033	-0.1747	
-0.980148	0.040138	-0.266692	1.19	-2.03	-39.27	0.4759	0.0424	-0.173	
-0.970266	0.036356	-0.278282	-8.26	0.07	-41.93	0.4761	0.0423	-0.1806	
-0.99491	0.015982	-0.290848	-3.85	-1.47	-43.4	0.4818	0.0423	-0.1793	
-0.985516	-0.007198	-0.254248	2.73	-7.56	-43.68	0.473	0.0487	-0.1728	
-0.971242	-0.068808	-0.269132	-7.49	-3.01	-44.94	0.4761	0.0751	-0.1816	
-0.966728	-0.094794	-0.268522	-4.27	-6.79	-44.24	0.4755	0.0832	-0.1648	
-0.969778	-0.11224	-0.256078	-8.19	-7.42	-45.08	0.483	0.0971	-0.1755	
-0.981978	-0.127612	-0.263642	-11.62	-7.35	-44.1	0.4717	0.0861	-0.1813	
-0.995886	-0.137982	-0.270596	-5.88	-7.28	-42	0.465	0.1062	-0.1959	
-0.983442	-0.138592	-0.265472	-2.87	-10.22	-39.27	0.473	0.1081	-0.1765	
-0.97417	-0.164822	-0.25315	2.45	-10.64	-35.56	0.4674	0.119	-0.1837	
-0.966118	-0.189344	-0.235704	-0.7	-14.7	-34.44	0.4664	0.125	-0.1957	
-0.960628	-0.209108	-0.241194	-3.15	-14.84	-31.57	0.4619	0.1205	-0.1895	
-0.9577	-0.220332	-0.247416	-0.14	-15.12	-27.58	0.4608	0.1281	-0.2015	
-0.955626	-0.225822	-0.24583	4.13	-12.67	-23.66	0.4649	0.1329	-0.1955	
-0.95099	-0.241316	-0.221064	6.3	-14.28	-24.71	0.4649	0.1564	-0.1951	
-0.922564	-0.251564	-0.218014	7.49	-11.27	-24.57	0.4619	0.1392	-0.1893	
-0.963068	-0.253394	-0.215208	1.12	-7.49	-24.15	0.4535	0.1439	-0.195	
-0.94489	-0.249856	-0.203008	2.94	-6.93	-23.38	0.4548	0.1643	-0.1932	
-0.93818	-0.27267	-0.232532	-3.08	-0.42	-23.31	0.4506	0.1642	-0.1961	
-0.948428	-0.264618	-0.254126	-0.77	-2.31	-23.03	0.4478	0.1642	-0.1975	
-0.963556	-0.26047	-0.230092	1.89	-4.06	-21.63	0.4609	0.164	-0.2055	
-0.948916	-0.268156	-0.2257	-0.14	-0.77	-18.13	0.4551	0.1625	-0.2023	
-0.954284	-0.264496	-0.228262	2.52	0.28	-16.66	0.4479	0.1626	-0.2021	
-0.942206	-0.259006	-0.24705	-0.42	-0.07	-14.7	0.4494	0.1719	-0.205	
-0.958554	-0.286578	-0.233142	-1.33	-0.7	-11.83	0.4494	0.1751	-0.2034	
-0.963312	-0.2867	-0.220454	-0.42	-2.52	-8.33	0.4467	0.1718	-0.211	
-0.959652	-0.288408	-0.211426	0.28	-1.4	-5.11	0.4468	0.1859	-0.2138	
-0.956236	-0.29951	-0.203496	1.4	-1.68	-2.45	0.4553	0.1781	-0.2096	
-0.930738	-0.312198	-0.205936	-1.12	-1.89	-0.84	0.4452	0.1734	-0.2079	
-0.931104	-0.31354	-0.22448	-2.73	-2.45	1.4	0.4437	0.1751	-0.2048	
-0.951722	-0.304268	-0.221552	-1.89	-4.2	3.57	0.4469	0.1749	-0.217	
-0.962946	-0.286212	-0.220576	-7.91	-3.36	6.16	0.4494	0.1703	-0.205	
-0.961238	-0.27877	-0.213012	-15.89	-0.98	8.61	0.4483	0.1749	-0.214	
-0.94123	-0.304268	-0.242658	-0.91	3.92	14.07	0.454	0.1733	-0.2157	
-0.935374	-0.29646	-0.22082	1.82	0.63	18.55	0.4483	0.1749	-0.214	
-0.941596	-0.265472	-0.223992	1.54	2.24	22.12	0.4482	0.1624	-0.2096	
-0.940864	-0.249856	-0.240584	0.21	5.25	25.27	0.4553	0.1609	-0.2099	
-0.943548	-0.245952	-0.255346	-3.78	8.61	27.23	0.4506	0.1658	-0.1976	
-0.947086	-0.233142	-0.252662	-2.66	10.5	29.4	0.4533	0.1674	-0.1931	
-0.960018	-0.207888	-0.268644	0.56	18.41	31.85	0.4563	0.1517	-0.1965	
-0.950746	-0.207034	-0.25315	5.53	17.01	33.39	0.4646	0.1503	-0.1862	
-0.945378	-0.197762	-0.24949	5.53	19.18	37.03	0.459	0.1471	-0.1906	
-0.946842	-0.187392	-0.272182	4.83	21.63	40.25	0.4718	0.1346	-0.1866	
-0.955016	-0.193248	-0.27816	6.86	22.33	42.63	0.4705	0.1283	-0.1897	
-0.941962	-0.20313	-0.274134	10.64	23.45	44.1	0.4646	0.1174	-0.1821	
-0.95709	-0.188002	-0.249612	14.49	21.21	45.22	0.4674	0.1096	-0.1823	
-0.962458	-0.163236	-0.246928	15.89	21.35	46.2	0.4687	0.1034	-0.1764	
-0.975634	-0.152622	-0.241194	14.42	17.29	46.97	0.473	0.094	-0.1752	
-0.955748	-0.12017	-0.264008	8.12	14.98	48.93	0.4755	0.0911	-0.1647	
-0.962702	-0.108092	-0.282552	5.04	15.82	49.28	0.4754	0.0802	-0.1603	
-0.944524	-0.094428	-0.295118	3.15	11.34	50.05	0.4742	0.0675	-0.1665	
-0.960994	-0.05551	-0.293654	4.34	8.89	49.42	0.4825	0.0598	-0.1594	
-0.978684	-0.014518	-0.28243	5.95	6.44	48.51	0.4698	0.0567	-0.162	
-0.9821	0.01464	-0.289994	2.73	9.38	48.58	0.4799	0.0456	-0.164	
-0.978074	0.01464	-0.306464	-0.84	10.92	47.67	0.4788	0.033	-0.1733	
-0.972462	0.024156	-0.301096	-2.66	9.31	46.13	0.4827	0.0285	-0.1614	
-0.964654	0.051728	-0.314516	-9.38	7.14	44.52	0.474	0.0207	-0.1567	
-0.97295	0.078446	-0.321104	-14.14	3.22	42.63	0.4812	0.016	-0.16	
-0.99186	0.135664	-0.304634	-8.12	-0.63	41.86	0.4755	0.0113	-0.1599	
-0.98759	0.11895	-0.29341	-10.5	2.94	42.14	0.4755	0.005	-0.1585	
-0.99308	0.14762	-0.271694	-13.37	-1.96	39.06	0.4786	0.0002	-0.1647	
-0.977586	0.15372	-0.305366	-24.29	-4.97	37.87	0.4741	-0.0137	-0.1587	
-0.967338	0.164822	-0.317444	-14.42	-4.69	35.56	0.4828	-0.0168	-0.1606	
-0.96563	0.17812	-0.302926	-4.9	-8.05	33.67	0.4744	-0.0294	-0.165	
-0.950624	0.199836	-0.286334	-5.18	-8.96	30.38	0.4674	-0.0264	-0.1708	
-0.94794	0.22692	-0.287676	-5.88	-6.93	28.35	0.4729	-0.0294	-0.1635	
-0.93818	0.25925	-0.299266	-6.09	-6.44	26.74	0.4728	-0.0372	-0.159	
-0.90768	0.261568	-0.315126	-7.98	-3.92	27.58	0.4644	-0.0466	-0.165	
-0.91317	0.25315	-0.310734	-6.65	0.63	30.94	0.4673	-0.0514	-0.1666	
-0.92659	0.24278	-0.296704	-0.98	2.17	35	0.4687	-0.0607	-0.1653	
-0.936472	0.25681	-0.285724	1.26	4.55	39.34	0.4645	-0.0576	-0.1666	
-0.94062	0.241804	-0.30073	-9.87	5.6	40.46	0.4673	-0.0654	-0.1653	
-0.957334	0.23119	-0.292068	-6.37	8.82	40.88	0.4545	-0.0764	-0.1651	
-0.947696	0.237046	-0.28243	-10.5	2.24	44.17	0.46	-0.0825	-0.1593	
-0.951356	0.225334	-0.287676	-12.25	3.64	42.77	0.4561	-0.0983	-0.1685	
-0.962824	0.22875	-0.302926	-14.21	0.98	39.97	0.4546	-0.0983	-0.1669	
-0.9577	0.258518	-0.307806	-14.21	-4.2	36.82	0.453	-0.092	-0.1623	
-0.951478	0.26657	-0.300608	-16.1	-5.25	34.02	0.4502	-0.1107	-0.1609	
-0.960994	0.286822	-0.287432	-6.58	-12.25	31.78	0.4529	-0.0998	-0.1594	
-0.960018	0.29097	-0.277184	-2.52	-18.69	30.24	0.4515	-0.1154	-0.158	
-0.930128	0.283162	-0.280112	0.21	-16.8	27.65	0.4474	-0.1108	-0.1654	
-0.914634	0.293898	-0.315004	12.18	-17.22	25.69	0.4489	-0.1124	-0.1655	
-0.904874	0.31598	-0.315858	13.3	-16.52	24.64	0.4461	-0.1218	-0.1686	
-0.91012	0.333304	-0.305	5.81	-14.21	24.5	0.4451	-0.122	-0.1806	
-0.91927	0.391986	-0.286334	2.24	-19.18	27.23	0.4406	-0.1281	-0.173	
-0.895602	0.388814	-0.258152	-2.66	-20.86	24.85	0.4406	-0.1391	-0.1717	
-0.889014	0.3965	-0.253516	-2.03	-17.22	24.57	0.4237	-0.1408	-0.1817	
-0.870714	0.384422	-0.23729	0.49	-17.36	29.54	0.4309	-0.1486	-0.1821	
-0.869982	0.434442	-0.29097	3.08	-20.23	29.82	0.4326	-0.1534	-0.1898	
-0.878644	0.417118	-0.219966	-6.65	-27.23	31.01	0.4324	-0.1611	-0.1823	
-0.874618	0.440542	-0.220942	-0.56	-23.38	37.45	0.4339	-0.1675	-0.187	
-0.87108	0.457988	-0.169458	5.53	-31.85	46.06	0.4242	-0.1723	-0.1943	
-0.854244	0.651724	-0.126392	8.89	-31.01	56.07	0.4089	-0.1803	-0.2076	
-0.83082	0.467016	-0.196664	-11.13	-19.67	42.77	0.413	-0.1865	-0.2018	
-0.88267	0.445056	-0.248636	3.22	-19.67	40.81	0.4187	-0.1943	-0.2006	
-0.91439	0.481778	-0.215818	19.18	-28.98	41.44	0.4005	-0.2132	-0.2093	
-0.872788	0.486048	-0.238632	15.19	-17.43	36.54	0.3948	-0.2038	-0.212	
-0.870226	0.511424	-0.245952	6.72	-15.75	34.16	0.3992	-0.218	-0.2154	
-0.858636	0.503982	-0.217038	0.49	-14.35	33.11	0.395	-0.2164	-0.2168	
-0.820328	0.505446	-0.208498	-1.4	-8.47	31.64	0.3863	-0.2195	-0.2135	
-0.795074	0.512156	-0.203496	-2.94	-3.08	28.42	0.3908	-0.2242	-0.2183	
-0.812642	0.537654	-0.187026	2.03	-5.25	27.23	0.3893	-0.2305	-0.2153	
-0.81252	0.549854	-0.18788	1.82	-6.02	27.51	0.3881	-0.24	-0.2245	
-0.802028	0.56669	-0.182146	2.94	-8.68	27.02	0.385	-0.2336	-0.2167	
-0.810934	0.595726	-0.159698	2.38	-11.97	25.62	0.3765	-0.2399	-0.2181	
-0.799222	0.601704	-0.152866	0.07	-8.12	22.54	0.3808	-0.2446	-0.2183	
-0.79178	0.617198	-0.16531	-1.61	-6.93	20.16	0.378	-0.2399	-0.2211	
-0.774212	0.650626	-0.161406	-1.19	-7.63	18.69	0.3767	-0.2415	-0.2241	
-0.751886	0.648674	-0.166164	-5.74	-6.09	16.73	0.371	-0.2478	-0.2241	
-0.762378	0.660874	-0.167994	-0.63	-8.82	16.38	0.3735	-0.2491	-0.2105	
-0.769332	0.659532	-0.154818	-6.93	-8.12	13.72	0.3698	-0.2572	-0.2287	
-0.764452	0.650504	-0.147132	-7.7	-7.49	9.66	0.3652	-0.2508	-0.2209	
-0.761524	0.634156	-0.137738	-6.23	-6.51	4.83	0.3637	-0.2571	-0.2179	
-0.757254	0.63684	-0.138348	-9.1	-4.76	1.89	0.3542	-0.2604	-0.2343	
-0.750056	0.625372	-0.137494	-7.77	-2.73	-1.26	0.3541	-0.2572	-0.2312	
-0.760914	0.637206	-0.145668	0	-2.45	-3.5	0.3585	-0.2573	-0.2344	
-0.767624	0.62891	-0.12688	0.91	-4.97	-5.67	0.3585	-0.2667	-0.233	
-0.772504	0.623664	-0.124806	0.56	-2.87	-8.82	0.357	-0.2604	-0.2314	
-0.767624	0.61671	-0.122732	0.56	-0.7	-11.48	0.3658	-0.2621	-0.2377	
-0.768844	0.618906	-0.12627	3.5	0.98	-13.16	0.357	-0.2588	-0.2313	
-0.771772	0.623054	-0.113826	3.92	0.28	-14.98	0.3642	-0.251	-0.233	
-0.77775	0.612684	-0.122854	4.13	1.33	-17.22	0.3586	-0.2464	-0.2373	
-0.780922	0.610244	-0.12566	4.69	2.59	-19.74	0.3728	-0.2511	-0.2363	
-0.78385	0.608048	-0.120048	6.51	3.29	-22.19	0.3738	-0.2446	-0.2226	
-0.79178	0.596458	-0.12505	6.93	5.04	-24.99	0.374	-0.2369	-0.2285	
-0.79361	0.597068	-0.13359	7.84	5.81	-27.65	0.3737	-0.2352	-0.2209	
-0.793366	0.582672	-0.133468	8.68	6.23	-30.24	0.3809	-0.2384	-0.2212	
-0.798368	0.570594	-0.13847	9.66	7.56	-33.11	0.3853	-0.2275	-0.2242	
-0.80276	0.54961	-0.156526	9.59	10.57	-35.98	0.3851	-0.2227	-0.2181	
-0.813862	0.547902	-0.160796	12.32	11.62	-37.94	0.388	-0.2243	-0.2212	
-0.827526	0.534482	-0.179218	11.97	14.28	-39.41	0.4009	-0.2196	-0.2216	
-0.837774	0.528992	-0.180926	10.78	15.26	-39.97	0.4007	-0.218	-0.217	
-0.848632	0.507276	-0.17995	8.4	13.51	-41.44	0.4109	-0.2024	-0.2231	
-0.846314	0.48678	-0.196908	17.36	16.31	-42	0.4107	-0.2008	-0.217	
-0.859612	0.470066	-0.201056	25.48	15.4	-41.72	0.4103	-0.1912	-0.2063	
-0.889502	0.4636	-0.193126	24.5	13.72	-41.23	0.4133	-0.1897	-0.2094	
-0.88572	0.4331	-0.190442	20.72	12.32	-41.44	0.4203	-0.1928	-0.2051	
-0.902312	0.40138	-0.225212	21.98	12.53	-41.72	0.4159	-0.1896	-0.2019	
-0.897554	0.38369	-0.251076	21.63	10.99	-41.37	0.4201	-0.1739	-0.2018	
-0.92964	0.374662	-0.252296	20.37	8.26	-39.41	0.417	-0.1738	-0.1911	
-0.959774	0.341356	-0.263276	15.75	11.13	-38.85	0.4231	-0.1615	-0.2078	
-0.983564	0.305976	-0.278038	11.83	12.25	-36.96	0.4255	-0.1581	-0.1911	
-0.978806	0.283284	-0.2806	10.99	9.66	-34.58	0.4324	-0.1518	-0.1852	
-0.96868	0.262056	-0.270596	1.96	7.63	-31.99	0.4339	-0.1549	-0.1853	
-0.941474	0.240096	-0.279502	-4.97	9.59	-30.38	0.434	-0.1441	-0.1912	
-0.945866	0.23363	-0.289384	-6.93	10.01	-25.9	0.4494	-0.1361	-0.1825	
-0.948184	0.233142	-0.269742	-7.63	6.86	-23.03	0.4408	-0.1392	-0.1808	
-0.9333	0.235704	-0.275354	0.07	10.5	-22.47	0.4495	-0.133	-0.1855	
-0.941718	0.255712	-0.27572	-2.03	10.08	-24.5	0.4493	-0.1282	-0.1778	
-0.937936	0.275964	-0.254492	-8.82	8.4	-27.86	0.4507	-0.1188	-0.1777	
-0.926834	0.270596	-0.26352	-15.19	10.92	-30.87	0.4523	-0.1142	-0.1838	
-0.941352	0.231556	-0.300608	-8.33	15.19	-30.73	0.4509	-0.1111	-0.1852	
-0.92659	0.267546	-0.27938	-8.75	13.16	-29.96	0.4491	-0.1031	-0.1729	
-0.94123	0.2684	-0.280356	-5.81	14.07	-28.77	0.4465	-0.0923	-0.1832	
-0.9333	0.277428	-0.267668	-6.86	10.85	-31.08	0.4506	-0.0953	-0.1759	
-0.950502	0.279502	-0.257054	-10.92	10.15	-30.73	0.4634	-0.0859	-0.1746	
-0.950136	0.271206	-0.266448	-11.62	9.52	-29.75	0.4602	-0.07319999	-0.1652	
-0.933788	0.258274	-0.278038	-12.32	7.63	-29.96	0.4518	-0.0764	-0.1711	
-0.959286	0.264252	-0.294874	-11.34	8.19	-29.54	0.4661	-0.0749	-0.173	
-0.955382	0.246196	-0.286822	-13.23	7.35	-30.45	0.4607	-0.075	-0.1804	
-0.956114	0.250588	-0.288042	-6.09	4.97	-32.27	0.4577	-0.0562	-0.1785	
-0.960872	0.21228	-0.288896	-7.63	5.81	-33.46	0.4604	-0.053	-0.174	
-0.940132	0.19032	-0.332694	-18.83	5.39	-35.49	0.4629	-0.0528	-0.1605	
-0.9577	0.118706	-0.325862	-22.82	4.62	-36.33	0.4685	-0.0497	-0.1576	
-0.94428	0.114436	-0.345992	-10.99	3.64	-37.17	0.4661	-0.039	-0.1755	
-0.928786	0.114192	-0.34526	-16.31	11.27	-38.36	0.4717	-0.0389	-0.1696	
-0.930494	0.136274	-0.319518	-3.43	9.03	-37.73	0.47	-0.0309	-0.1619	
-0.930982	0.10919	-0.304512	-11.55	11.97	-39.27	0.4685	-0.0106	-0.1615	
-0.907558	0.10736	-0.319152	-15.4	19.95	-37.1	0.4744	-0.0138	-0.1678	
-0.946598	0.07905599	-0.307928	-19.32	21.91	-36.82	0.4797	0.0004	-0.1556	
-0.960506	0.086498	-0.288408	-7.63	18.55	-36.75	0.4783	0.0082	-0.157	
-0.963556	0.105408	-0.292922	-7	19.46	-36.54	0.4709	0.0177	-0.149	
-0.998082	0.1098	-0.293044	-16.38	18.55	-40.18	0.4822	0.0209	-0.1448	
-1.001742	0.10248	-0.29463	-18.83	10.85	-46.41	0.4836	0.0318	-0.1447	
-0.990884	0.098332	-0.321226	-19.53	11.97	-49.91	0.4822	0.0319	-0.1447	
-0.993934	0.052948	-0.334524	-14.28	13.16	-49.21	0.4807	0.0553	-0.1458	
-1.017114	0.05429	-0.3111	-0.07	0.91	-47.25	0.4707	0.0585	-0.1454	
-1.026508	0.02074	-0.270962	1.89	-4.9	-44.38	0.4822	0.0631	-0.1472	
-1.022848	-0.002074	-0.294508	-6.44	-2.1	-42.28	0.4735	0.07099999	-0.1438	
-0.983076	-0.0427	-0.301462	-5.67	-6.86	-41.09	0.4836	0.0694	-0.1471	
-0.96502	-0.068564	-0.293776	0.14	-17.08	-39.76	0.4792	0.08199999	-0.1453	
-0.94672	-0.087352	-0.309392	1.4	-29.26	-39.83	0.4777	0.0836	-0.1437	
-0.93452	-0.073688	-0.289506	4.97	-28.28	-38.92	0.4722	0.0944	-0.1509	
-0.935862	-0.093818	-0.314516	-15.47	-25.06	-45.5	0.4753	0.1021	-0.1585	
-0.943304	-0.124196	-0.29219	9.45	-17.08	-38.78	0.474	0.1052	-0.1629	
-0.93818	-0.128222	-0.338916	3.01	-3.92	-38.5	0.4745	0.1143	-0.181	
-0.927322	-0.153354	-0.33306	7.42	0.42	-40.25	0.4585	0.138	-0.171	
-0.916342	-0.185562	-0.296338	2.87	-1.26	-39.97	0.4527	0.1302	-0.1694	
-0.926712	-0.18544	-0.30012	-1.61	6.44	-39.55	0.4641	0.1411	-0.1681	
-0.925004	-0.190198	-0.299266	-7.28	7.42	-38.99	0.4681	0.1413	-0.1592	
-0.945378	-0.189344	-0.294142	-11.41	5.67	-39.06	0.4667	0.1585	-0.1604	
-0.955504	-0.206058	-0.29646	-16.66	6.16	-38.22	0.4627	0.149	-0.1695	
-0.960994	-0.212768	-0.281088	-13.37	2.52	-37.66	0.4653	0.1522	-0.1619	
-0.969534	-0.21228	-0.296948	-11.55	2.17	-33.32	0.4594	0.168	-0.157	
-0.993568	-0.229726	-0.27511	-8.4	-2.24	-27.93	0.4469	0.1678	-0.1687	
-0.97356	-0.242902	-0.264374	-6.23	-5.04	-23.52	0.4649	0.1774	-0.1509	
-0.952454	-0.265594	-0.28853	-0.07	-5.88	-17.57	0.4467	0.1835	-0.1639	
-0.935252	-0.280966	-0.26901	6.93	-12.46	-14.42	0.454	0.1866	-0.1686	
-0.921588	-0.260836	-0.312198	5.81	-11.34	-10.08	0.4554	0.1741	-0.1673	
-0.954528	-0.251442	-0.325252	5.39	-11.13	-6.51	0.4613	0.1849	-0.1749	
-0.96624	-0.252174	-0.26047	-2.31	-13.23	-4.62	0.4541	0.1974	-0.1745	
-0.949526	-0.28487	-0.295606	-8.19	-3.64	0.56	0.4439	0.1898	-0.1652	
-0.917806	-0.2867	-0.315858	8.05	-3.92	9.03	0.4456	0.1912	-0.1758	
-0.898652	-0.28365	-0.301462	3.99	-4.48	13.16	0.4499	0.1849	-0.1746	
-0.908046	-0.249734	-0.303902	1.33	-1.05	17.78	0.4459	0.1911	-0.1834	
-0.928176	-0.236192	-0.292556	0.98	-0.35	21	0.4515	0.1707	-0.1809	
-0.955138	-0.240584	-0.283528	1.61	4.2	24.78	0.4557	0.177	-0.1779	
-0.939278	-0.242048	-0.283894	-0.91	9.52	28.63	0.454	0.1662	-0.1674	
-0.948916	-0.241072	-0.286212	-5.39	9.1	30.94	0.4612	0.1803	-0.1689	
-0.939034	-0.24461	-0.293288	-2.94	5.18	32.76	0.4624	0.1694	-0.1631	
-0.936838	-0.2318	-0.297924	0.49	5.32	34.79	0.4614	0.152	-0.1754	
-0.943792	-0.210938	-0.29829	0.14	4.62	37.1	0.4639	0.1522	-0.1649	
-0.949526	-0.191296	-0.288164	0.07	3.57	39.69	0.4685	0.1379	-0.1728	
-0.95343	-0.169458	-0.299998	-0.49	6.51	42.21	0.4628	0.1332	-0.1743	
-0.965996	-0.162138	-0.299876	-3.15	3.43	42.84	0.4639	0.1303	-0.1607	
-0.957822	-0.165554	-0.298168	-4.27	3.43	43.75	0.471	0.1287	-0.161	
-0.920734	-0.156404	-0.32452	-7.7	2.24	45.85	0.4715	0.116	-0.1748	
-0.935496	-0.15128	-0.314516	0.77	1.96	48.37	0.4654	0.1224	-0.1639	
-0.951234	-0.12261	-0.299876	4.9	-1.26	49.42	0.474	0.1052	-0.1644	
-0.95038	-0.095892	-0.294508	8.33	-0.35	51.94	0.4709	0.0975	-0.1554	
-0.971974	-0.036234	-0.285114	13.93	-2.1	56.98	0.4742	0.0894	-0.1692	
-0.97356	-0.01525	-0.28365	11.06	-1.82	57.89	0.4783	0.0801	-0.1619	
-0.968192	-0.002928	-0.299144	6.86	-1.19	57.82	0.477	0.0613	-0.1652	
-0.977342	0.02684	-0.31232	11.06	-0.84	58.17	0.4757	0.0534	-0.1698	
-0.99003	0.065758	-0.30622	18.48	-3.64	58.31	0.4787	0.0377	-0.1732	
-0.97844	0.110044	-0.29463	19.81	-4.06	54.88	0.4871	0.0362	-0.1674	
-0.978928	0.132614	-0.295484	15.75	0.07	51.52	0.4726	0.0348	-0.1594	
-0.95648	0.15677	-0.310734	11.41	-0.7	46.9	0.4787	0.0127	-0.169	
-0.946476	0.155184	-0.332816	6.09	-0.7	42.42	0.4686	0.0034	-0.1658	
-0.945744	0.163602	-0.327936	9.87	0	41.44	0.4757	0.0034	-0.163	
-0.97234	0.19947	-0.315492	16.59	0.35	40.53	0.4812	-0.0011	-0.1557	
-0.948428	0.2257	-0.298046	9.52	-3.43	40.95	0.4716	-0.0248	-0.1679	
-0.945134	0.246074	-0.285358	7.21	-3.99	41.09	0.4771	-0.0294	-0.1606	
-0.937814	0.242414	-0.279136	10.5	-5.11	42.63	0.4703	-0.0295	-0.1725	
-0.954528	0.254492	-0.293776	9.24	-2.52	42.35	0.466	-0.0373	-0.1709	
-0.939034	0.236558	-0.304146	1.61	-2.87	40.25	0.4715	-0.0357	-0.165	
-0.931348	0.22631	-0.29097	2.52	-1.47	37.87	0.4719	-0.0562	-0.1759	
-0.931226	0.20923	-0.273158	1.33	-0.35	36.89	0.4658	-0.0544	-0.1636	
-0.939644	0.205936	-0.27389	1.4	3.01	38.22	0.4671	-0.0559	-0.1591	
-0.95404	0.22753	-0.280112	-2.38	5.95	37.8	0.4619	-0.0671	-0.1743	
-0.950258	0.236436	-0.290726	-3.57	7.98	40.39	0.4573	-0.0779	-0.1637	
-0.9455	0.239852	-0.295484	-7.21	6.72	42.84	0.4573	-0.081	-0.1622	
-0.971608	0.251076	-0.273768	5.46	-2.52	34.51	0.4643	-0.0794	-0.1579	
-0.933788	0.276696	-0.293654	-11.2	1.68	42.14	0.4686	-0.0873	-0.1597	
-0.9455	0.238876	-0.33794	-19.67	1.68	37.45	0.4616	-0.0967	-0.1626	
-0.94428	0.246928	-0.30439	-16.59	-4.41	34.65	0.4644	-0.1076	-0.1614	
-0.938302	0.276086	-0.294386	-15.61	-5.67	31.57	0.4506	-0.1063	-0.1745	
-0.930372	0.311832	-0.283284	-10.36	-6.58	26.67	0.4545	-0.1123	-0.1626	
-0.933788	0.33306	-0.287188	-7.42	-8.75	23.66	0.4475	-0.1202	-0.1655	
-0.929762	0.338306	-0.280478	-8.89	-12.6	22.96	0.4478	-0.1266	-0.1747	
-0.921344	0.365634	-0.260104	-8.12	-16.87	20.44	0.4534	-0.1297	-0.1719	
-0.922686	0.362096	-0.264862	3.5	-17.71	23.59	0.4536	-0.1157	-0.1793	
-0.90402	0.399062	-0.27877	4.62	-19.53	27.3	0.4447	-0.1343	-0.1672	
-0.895724	0.398452	-0.277306	-5.18	-18.48	27.44	0.4449	-0.1407	-0.1749	
-0.891698	0.419802	-0.261812	4.41	-21.98	32.13	0.4394	-0.1407	-0.1792	
-0.890966	0.431636	-0.230458	-1.47	-23.66	34.09	0.4352	-0.1502	-0.1823	
-0.872056	0.463722	-0.23973	-1.75	-15.33	33.95	0.4276	-0.1546	-0.1669	
-0.859246	0.45018	-0.238022	-9.24	-15.05	33.74	0.4367	-0.1612	-0.1855	
-0.842654	0.477508	-0.222894	-7.84	-15.68	34.93	0.4269	-0.1628	-0.1913	
-0.838628	0.457256	-0.200324	-11.62	-16.17	34.16	0.4183	-0.1659	-0.1895	
-0.863272	0.465674	-0.204228	0.07	-14.91	31.71	0.4156	-0.166	-0.1925	
-0.859978	0.428342	-0.201422	10.08	-11.2	30.87	0.4098	-0.1847	-0.191	
-0.832528	0.54168	-0.301462	6.44	-0.98	27.02	0.4202	-0.1943	-0.2021	
-0.834114	0.455548	-0.260348	-4.13	-2.59	28.98	0.4142	-0.1957	-0.1929	
-0.842776	0.542412	-0.264984	-1.12	-6.16	27.44	0.4132	-0.1959	-0.2065	
-0.818498	0.549732	-0.216916	-3.99	-9.38	27.72	0.4087	-0.2005	-0.2003	
-0.814838	0.534116	-0.2135	-3.43	-5.18	25.48	0.4058	-0.2036	-0.1973	
-0.80825	0.5185	-0.225578	0.7	-5.46	23.8	0.3992	-0.2148	-0.2139	
-0.816424	0.511302	-0.216306	-2.31	-5.46	21.84	0.403	-0.2114	-0.1973	
-0.808128	0.501908	-0.218868	0.28	-4.83	19.81	0.3901	-0.2098	-0.1984	
-0.820084	0.511668	-0.21167	2.45	-4.9	17.64	0.3975	-0.2178	-0.2048	
-0.837164	0.536678	-0.204716	4.9	-4.9	15.82	0.3945	-0.2224	-0.1987	
-0.833138	0.552538	-0.210328	2.59	-4.76	13.65	0.3943	-0.2207	-0.1926	
-0.81679	0.570106	-0.202276	3.64	-4.34	11.48	0.4046	-0.2147	-0.205	
-0.796172	0.563884	-0.205814	7.35	-3.5	8.54	0.3959	-0.2239	-0.1988	
-0.796904	0.568398	-0.198616	6.65	-3.15	6.86	0.3859	-0.2145	-0.1998	
-0.811422	0.571936	-0.186416	11.62	-5.74	6.44	0.3972	-0.2255	-0.1958	
-0.799344	0.569008	-0.188612	15.68	-5.6	5.25	0.3847	-0.2271	-0.2045	
-0.794342	0.574742	-0.223748	19.11	-3.5	4.55	0.3929	-0.2254	-0.1942	
-0.789828	0.574376	-0.20801	15.33	-4.48	4.06	0.3871	-0.2254	-0.1925	
-0.795806	0.566202	-0.193492	15.26	-4.69	2.17	0.3901	-0.2317	-0.1957	
-0.802516	0.57279	-0.197274	14.28	-2.24	-0.21	0.3931	-0.2302	-0.2003	
-0.79422	0.577182	-0.201788	7.28	-0.21	-3.29	0.3898	-0.2284	-0.1865	
-0.78873	0.585112	-0.206424	8.89	1.75	-5.11	0.3932	-0.2397	-0.2035	
-0.786778	0.576572	-0.19581	10.85	0.42	-5.95	0.4018	-0.2334	-0.2036	
-0.796294	0.560102	-0.207034	11.62	1.47	-7.7	0.3959	-0.2349	-0.1974	
-0.812642	0.56486	-0.217038	12.39	1.33	-9.45	0.3918	-0.2318	-0.2033	
-0.817888	0.56669	-0.206302	10.36	2.94	-12.81	0.3959	-0.2318	-0.1974	
-0.808372	0.558028	-0.209474	7.49	4.69	-16.94	0.3999	-0.2238	-0.1883	
-0.810202	0.565226	-0.212768	7.49	4.83	-20.44	0.4043	-0.2286	-0.1946	
-0.804224	0.565348	-0.211548	5.81	5.6	-23.73	0.4028	-0.2301	-0.1915	
-0.801662	0.557296	-0.21533	4.2	6.02	-26.39	0.4015	-0.2114	-0.1972	
-0.8113	0.543998	-0.230702	1.33	7.77	-30.45	0.4044	-0.213	-0.1974	
-0.816424	0.541436	-0.22692	2.24	8.47	-33.32	0.4097	-0.2097	-0.1854	
-0.813618	0.523502	-0.227774	1.61	10.15	-36.54	0.4123	-0.2033	-0.1778	
-0.818864	0.506178	-0.225822	1.19	11.41	-39.48	0.4167	-0.1971	-0.1824	
-0.831918	0.48495	-0.23973	2.59	13.16	-41.58	0.4139	-0.1877	-0.1821	
-0.840092	0.462258	-0.261812	0.42	18.06	-42.91	0.4197	-0.1862	-0.1853	
-0.853512	0.44408	-0.286944	-2.52	21.84	-43.12	0.4224	-0.1783	-0.1808	
-0.867786	0.430172	-0.306098	-7.84	24.92	-43.05	0.415	-0.1657	-0.1758	
-0.895846	0.40809	-0.300242	-10.36	25.9	-41.37	0.4394	-0.1595	-0.1795	
-0.902068	0.39223	-0.311466	-12.6	24.08	-40.46	0.4339	-0.1565	-0.1853	
-0.912926	0.35807	-0.303658	-10.5	22.61	-40.32	0.4337	-0.1533	-0.1792	
-0.92537	0.320006	-0.321226	0.21	24.22	-40.6	0.4347	-0.1484	-0.1671	
-0.948306	0.304634	-0.357094	6.72	22.05	-39.2	0.4391	-0.1406	-0.1701	
-0.948306	0.283406	-0.35929	9.31	15.12	-36.19	0.4472	-0.1373	-0.1552	
-0.928176	0.268888	-0.330254	14	7.98	-35	0.4485	-0.1294	-0.1536	
-0.936716	0.255224	-0.311588	13.44	6.02	-35.35	0.4498	-0.123	-0.1475	
-0.929762	0.239364	-0.299998	12.25	11.97	-36.89	0.4486	-0.1216	-0.155	
-0.918538	0.24583	-0.317322	12.67	8.75	-37.17	0.4574	-0.117	-0.1628	
-0.904386	0.259494	-0.317566	16.59	3.08	-36.96	0.4573	-0.1076	-0.1611	
-0.91561	0.265228	-0.324886	18.97	3.5	-36.89	0.45	-0.1028	-0.1563	
-0.90951	0.284138	-0.341112	19.25	2.73	-32.97	0.4585	-0.0997	-0.1535	
-0.823866	0.240706	-0.398574	8.89	1.33	-23.73	0.4655	-0.09959999	-0.1507	
-0.958066	0.244732	-0.343918	15.19	-3.43	-25.83	0.46	-0.0888	-0.1579	
-0.92964	0.229238	-0.351848	13.58	0.35	-24.71	0.4755	-0.0887	-0.1523	
-0.945744	0.231312	-0.362218	5.04	4.27	-27.23	0.4697	-0.0761	-0.1489	
-0.945988	0.246074	-0.372344	-2.87	2.59	-28.35	0.4741	-0.0809	-0.1537	
-0.927688	0.256688	-0.366854	-11.69	-0.84	-27.79	0.474	-0.0668	-0.1504	
-0.922686	0.231922	-0.355508	-15.19	-4.41	-27.02	0.4711	-0.0652	-0.1503	
-0.92476	0.194102	-0.339526	-10.64	-3.85	-25.69	0.4725	-0.0511	-0.1486	
-0.927566	0.19703	-0.336476	-8.89	-0.84	-27.79	0.464	-0.048	-0.1529	
-0.935252	0.208498	-0.344284	-14.91	1.68	-29.89	0.4724	-0.0495	-0.1471	
-0.946476	0.183488	-0.320006	-17.57	1.89	-30.52	0.4668	-0.0433	-0.1514	
-0.963434	0.155672	-0.293166	-22.33	-2.03	-30.59	0.4814	-0.0278	-0.1622	
-0.961116	0.147986	-0.302438	-33.6	2.03	-30.94	0.467	-0.0262	-0.1572	
-0.956846	0.13786	-0.308416	-30.73	6.44	-29.26	0.467	-0.0262	-0.1572	
-0.97173	0.128222	-0.293044	-24.29	3.29	-25.27	0.474	-0.023	-0.1528	
-0.97173	0.105286	-0.26474	-23.45	-0.14	-21.14	0.4629	-0.0122	-0.1644	
-0.97478	0.093696	-0.267302	-22.26	2.66	-18.62	0.4714	-0.0168	-0.1617	
-0.979172	0.08174	-0.268034	-22.96	0.77	-15.68	0.4727	0.0019	-0.1599	
-0.960628	0.070028	-0.269254	-21.07	-1.75	-13.37	0.4729	-0.0059	-0.1646	
-0.964654	0.06588	-0.264252	-21.98	-1.96	-9.87	0.4669	0.0019	-0.1567	
-0.975512	0.05917	-0.267912	-18.76	-3.15	-7.98	0.4797	0.0113	-0.1555	
-0.964776	0.065148	-0.282186	-15.26	-2.59	-5.88	0.4769	-0.0011	-0.1571	
-0.963068	0.076006	-0.29646	-10.92	-3.01	-2.52	0.4726	0.0082	-0.1583	
-0.957944	0.095038	-0.304756	-5.74	-3.15	0.21	0.4672	0.0018	-0.1658	
-0.955992	0.106262	-0.31354	-4.97	-4.27	1.89	0.4799	0.0034	-0.1617	
-0.945622	0.110898	-0.315492	-1.12	-3.99	3.29	0.4671	0.0018	-0.1643	
-0.950136	0.12139	-0.315858	1.26	-2.66	4.41	0.4729	0.007999999	-0.1659	
-0.9516	0.123098	-0.314882	2.66	-2.45	5.39	0.4827	0.005	-0.1617	
-0.9577	0.128588	-0.304268	5.88	-2.03	6.93	0.4725	-0.0011	-0.1539	
-0.955992	0.13481	-0.29768	7.56	-1.54	7.98	0.4758	0.0002	-0.1661	
-0.947696	0.140666	-0.303292	6.93	-0.35	8.4	0.4784	-0.0074	-0.1603	
-0.950014	0.149328	-0.303902	7.63	-0.7	8.68	0.4757	0.0034	-0.163	
-0.959408	0.155428	-0.297558	6.44	-1.19	8.54	0.4727	0.005	-0.1599	
-0.954894	0.157624	-0.306708	4.48	-0.56	8.47	0.48	-0.0012	-0.1648	
-0.952942	0.165188	-0.30927	6.23	0	7.91	0.4799	-0.0106	-0.1604	
-0.965142	0.170678	-0.301096	6.65	-0.07	6.79	0.4673	-0.009099999	-0.169	
-0.963678	0.170434	-0.297924	4.06	-0.28	5.67	0.4713	-0.0184	-0.1602	
-0.954406	0.169092	-0.304024	3.15	0.7	5.25	0.4802	-0.017	-0.1711	
-0.952698	0.166042	-0.303414	1.47	-0.49	4.34	0.477	-0.0074	-0.1587	
-0.956846	0.16348	-0.297436	-0.28	-1.54	3.57	0.4786	-0.0138	-0.1649	
-0.95282	0.159332	-0.302438	-1.89	-1.33	2.73	0.4743	-0.0216	-0.1649	
-0.953186	0.161284	-0.31171	-1.96	-0.42	2.31	0.4743	-0.0232	-0.1649	
-0.95282	0.16104	-0.315248	-0.98	-0.98	2.38	0.473	-0.0185	-0.1678	
-0.955382	0.165188	-0.30683	1.68	-1.05	2.52	0.4729	-0.0106	-0.1662	
-0.95892	0.165066	-0.297802	2.8	-0.91	2.66	0.4801	-0.0185	-0.1665	
-0.957578	0.160308	-0.302926	1.54	-0.91	2.45	0.4715	-0.0216	-0.1663	
-0.95221	0.152622	-0.311954	0.77	-0.77	2.38	0.4688	-0.0201	-0.1692	
-0.9577	0.152256	-0.30866	1.82	-2.38	2.59	0.4715	-0.0247	-0.1664	
-0.95709	0.154208	-0.303536	2.73	-3.15	2.94	0.4743	-0.0278	-0.162	
-0.957822	0.155916	-0.303536	3.29	-2.73	3.01	0.4743	-0.0153	-0.1633	
-0.951356	0.160064	-0.303902	4.27	-2.87	2.66	0.4743	-0.0169	-0.1648	
-0.956602	0.161162	-0.303048	4.2	-3.22	2.87	0.4742	-0.0153	-0.1603	
-0.964776	0.15982	-0.293166	3.43	-4.48	3.5	0.4689	-0.0186	-0.1753	
-0.960018	0.158478	-0.291946	4.55	-3.29	4.13	0.4773	-0.0201	-0.168	
-0.955504	0.156892	-0.301096	4.9	-3.57	4.69	0.4657	-0.0247	-0.1632	
-0.955382	0.155306	-0.30561	4.48	-4.13	5.04	0.4773	-0.0217	-0.168	
-0.954894	0.160674	-0.305	5.81	-5.04	5.25	0.473	-0.0247	-0.1664	
-0.958554	0.169824	-0.300974	7.77	-6.09	5.25	0.479	-0.0203	-0.1786	
-0.964166	0.171776	-0.288774	7.14	-6.44	4.48	0.4746	-0.0295	-0.1726	
-0.960262	0.172142	-0.283772	6.23	-6.51	3.85	0.4774	-0.028	-0.1711	
-0.950258	0.172386	-0.29036	3.64	-4.34	2.87	0.4719	-0.0265	-0.1785	
-0.95282	0.172508	-0.295972	0.28	-3.64	1.68	0.4689	-0.0358	-0.174	
-0.955504	0.174216	-0.284992	1.19	-4.83	0.84	0.4605	-0.0265	-0.1781	
-0.954162	0.180438	-0.27755	0.91	-4.06	0.42	0.4704	-0.0327	-0.1755	
-0.950502	0.180926	-0.288774	-2.17	-1.82	0	0.4648	-0.0249	-0.1783	
-0.955992	0.179584	-0.290848	-1.82	-1.54	0	0.4662	-0.0296	-0.1769	
-0.959286	0.176656	-0.280112	-0.84	-2.38	-0.07	0.4731	-0.0264	-0.1695	
-0.962946	0.172752	-0.27084	-0.84	-1.54	0	0.4718	-0.0249	-0.1755	
-0.962336	0.16775	-0.26779	-0.77	-0.56	0.28	0.4715	-0.0232	-0.1663	
-0.962702	0.160186	-0.273646	-2.66	-1.05	0.42	0.4687	-0.0232	-0.1678	
-0.962336	0.158722	-0.274256	-2.38	-3.01	1.4	0.4789	-0.0186	-0.1741	
-0.965996	0.161894	-0.27328	-1.61	-3.71	2.1	0.4633	-0.0233	-0.1767	
-0.967948	0.164212	-0.27206	0.14	-3.92	2.59	0.476	-0.028	-0.1711	
-0.963556	0.167018	-0.26169	2.66	-4.62	3.08	0.4707	-0.0282	-0.1861	
-0.962458	0.169458	-0.262178	3.08	-4.41	3.5	0.469	-0.0343	-0.177	
-0.9577	0.17324	-0.270474	4.34	-3.57	3.57	0.4649	-0.025	-0.1813	
-0.95526	0.17629	-0.273158	5.25	-3.29	3.36	0.4661	-0.0264	-0.1753	
-0.955626	0.180926	-0.271328	5.04	-2.38	2.8	0.4717	-0.0248	-0.1724	
-0.957212	0.18178	-0.267912	4.06	-1.96	2.52	0.466	-0.0374	-0.1724	
-0.962092	0.18666	-0.261324	3.78	-1.61	2.1	0.4658	-0.0372	-0.1649	
-0.95892	0.188978	-0.262788	2.03	-1.12	1.4	0.4633	-0.0218	-0.1782	
-0.95587	0.18727	-0.26901	0.77	-0.63	0.63	0.4691	-0.0328	-0.1785	
-0.959652	0.185684	-0.264618	0.07	-0.84	0.21	0.4645	-0.0295	-0.1708	
-0.96197	0.18483	-0.262056	-0.42	-0.28	0	0.4779	-0.0314	-0.1879	
-0.962092	0.182878	-0.262544	-0.91	0.42	-0.56	0.4776	-0.0281	-0.1787	
-0.963922	0.181902	-0.2623	-1.12	0.07	-1.19	0.4646	-0.0373	-0.1709	
-0.965142	0.17873	-0.260836	-1.96	-0.35	-1.96	0.463	-0.031	-0.1662	
-0.963922	0.178364	-0.261568	-3.01	-0.35	-2.66	0.4749	-0.0219	-0.1831	
-0.959652	0.17751	-0.269254	-3.57	0.28	-3.15	0.4791	-0.0265	-0.1787	
-0.961116	0.17568	-0.26901	-2.38	-0.07	-3.01	0.4721	-0.0329	-0.1847	
-0.963922	0.174094	-0.262056	-1.19	-0.28	-2.59	0.4808	-0.0298	-0.1879	
-0.961482	0.173728	-0.266814	-0.49	0.14	-2.17	0.4691	-0.0375	-0.1786	
-0.958432	0.170312	-0.274378	-0.21	0.49	-1.96	0.4706	-0.0312	-0.1816	
-0.962092	0.168726	-0.270108	0.7	-0.07	-1.82	0.4677	-0.0391	-0.1816	
-0.96319	0.168604	-0.265472	1.61	-0.14	-1.54	0.4733	-0.0312	-0.1756	
-0.962824	0.16775	-0.268156	2.1	0.42	-1.33	0.465	-0.0297	-0.1859	
-0.965142	0.166164	-0.26779	2.38	0.28	-1.05	0.4706	-0.0297	-0.1831	
-0.96502	0.163846	-0.2684	2.45	-0.35	-0.91	0.4676	-0.0234	-0.1783	
-0.967216	0.163602	-0.261934	2.73	-0.63	-0.77	0.4704	-0.0249	-0.1754	
-0.964898	0.168604	-0.263276	2.94	-0.77	-0.91	0.4719	-0.0203	-0.1799	
-0.964288	0.172508	-0.268278	1.75	-0.77	-1.12	0.4748	-0.0281	-0.1786	
-0.964044	0.174094	-0.266326	1.61	-1.47	-1.19	0.4831	-0.0217	-0.1712	
-0.9638	0.170922	-0.268644	0.91	-1.12	-1.12	0.4735	-0.025	-0.1846	
-0.96075	0.168848	-0.266326	1.4	-1.61	-1.26	0.462	-0.0281	-0.1797	
-0.967704	0.173606	-0.268522	0.98	-1.82	-1.75	0.4687	-0.0216	-0.1662	
-0.987468	0.159942	-0.22448	-4.06	-7.07	-2.17	0.4706	-0.0219	-0.1829	
-0.960506	0.152256	-0.296704	-11.27	-5.46	1.96	0.4817	-0.0217	-0.1727	
-0.970022	0.154818	-0.324032	-14.84	-12.53	9.66	0.4761	-0.0187	-0.177	
-0.978196	0.115168	-0.229848	9.59	-22.12	14.91	0.4694	-0.0314	-0.1891	
-0.978806	0.0793	-0.22509	17.01	-13.16	23.73	0.4653	-0.033	-0.195	
-0.967582	0.070882	-0.252784	41.44	-5.04	36.33	0.468	-0.0282	-0.1905	
-0.966484	0.07625	-0.25803	69.3	-7.14	50.12	0.4611	-0.0424	-0.1966	
-0.98088	0.087718	-0.260226	82.39	-7.28	61.67	0.4594	-0.0595	-0.1862	
-0.969046	0.103456	-0.299876	92.68	-17.85	73.36	0.4553	-0.069	-0.1938	
-0.978562	0.142252	-0.28243	100.52	-31.78	80.71	0.4511	-0.0847	-0.1954	
-0.976854	0.201056	-0.230336	97.44	-28.84	80.01	0.4482	-0.0971	-0.1924	
-0.96258	0.280478	-0.182878	70.49	-8.96	65.94	0.4568	-0.1269	-0.1917	
-0.957578	0.087718	-0.317688	43.82	15.19	61.04	0.4338	-0.1236	-0.1863	
-0.969534	0.29097	-0.331596	83.16	-32.9	71.05	0.449	-0.1296	-0.1672	
-0.952698	0.333426	-0.240584	42.84	-26.18	57.12	0.4349	-0.1469	-0.1716	
-0.946598	0.310368	-0.298534	30.73	-28.49	48.65	0.4335	-0.1563	-0.1747	
-0.917318	0.39833	-0.24156	32.69	-42.14	39.55	0.4265	-0.1626	-0.1776	
-0.920856	0.41175	-0.258396	34.93	-29.96	37.8	0.4223	-0.1767	-0.1777	
-0.925248	0.391498	-0.25681	17.92	-31.57	34.51	0.4099	-0.1816	-0.1925	
-0.865468	0.410408	-0.209962	24.78	-17.57	35	0.4173	-0.1911	-0.2005	
-0.890722	0.406626	-0.233996	38.29	-21.56	34.51	0.4155	-0.191	-0.1898	
-0.929274	0.456158	-0.238144	25.55	-23.66	19.32	0.4112	-0.205	-0.1869	
-0.895724	0.385154	-0.19642	35.77	-35.35	29.05	0.407	-0.1988	-0.1912	
-0.890478	0.389058	-0.197762	19.67	-30.1	25.97	0.3984	-0.2034	-0.1895	
-0.873886	0.40321	-0.186294	22.61	-26.32	20.93	0.3989	-0.2225	-0.2049	
-0.896334	0.432978	-0.18849	22.05	-21.28	18.2	0.4014	-0.2207	-0.1928	
-0.887428	0.443226	-0.191662	16.8	-22.05	16.1	0.39	-0.2191	-0.1924	
-0.862418	0.432002	-0.159698	12.95	-17.29	11.83	0.3944	-0.2208	-0.1972	
-0.855586	0.454816	-0.20252	11.83	-27.3	10.78	0.3873	-0.2239	-0.1985	
-0.907314	0.456402	-0.198006	12.25	-19.18	11.76	0.3902	-0.2271	-0.1986	
-0.91012	0.459818	-0.167628	3.57	-19.53	11.48	0.3917	-0.2334	-0.2003	
-0.887428	0.464698	-0.174094	5.6	-17.99	10.36	0.3919	-0.2209	-0.2077	
-0.884988	0.467626	-0.19703	9.73	-13.23	3.29	0.3803	-0.2287	-0.2029	
-0.837042	0.374906	-0.06344	-10.01	-35.56	5.95	0.382	-0.2304	-0.212	
-0.859978	0.471042	-0.19947	5.18	-8.4	2.03	0.392	-0.2226	-0.2107	
-0.826794	0.469578	-0.157868	0.42	-10.57	-0.7	0.3833	-0.2241	-0.2074	
-0.834846	0.482266	-0.163602	4.2	-4.27	-1.89	0.3907	-0.2274	-0.2168	
-0.836676	0.486414	-0.162504	1.61	-0.21	-1.12	0.3821	-0.2273	-0.215	
-0.848388	0.481046	-0.14823	-2.8	3.78	-1.82	0.3806	-0.2288	-0.2135	
-0.859856	0.48129	-0.13908	-9.17	6.09	-2.73	0.388	-0.2196	-0.2211	
-0.874862	0.476898	-0.15982	-7.42	9.94	-3.29	0.3934	-0.221	-0.2123	
-0.8906	0.474214	-0.14945	-8.89	11.27	-3.99	0.3791	-0.2272	-0.2104	
-0.894748	0.47153	-0.145546	-14	12.25	-4.62	0.3893	-0.2227	-0.2167	
-0.888404	0.446886	-0.143472	-14.49	13.51	-5.95	0.3878	-0.2195	-0.2151	
-0.88938	0.447984	-0.152012	-13.23	13.37	-7.56	0.382	-0.2178	-0.2103	
-0.888282	0.42761	-0.159454	-15.82	14.7	-9.17	0.3892	-0.2211	-0.2152	
-0.899384	0.41419	-0.156648	-14.07	15.33	-10.71	0.3777	-0.221	-0.2118	
-0.888526	0.421388	-0.165432	-11.76	15.89	-12.11	0.3917	-0.2193	-0.2031	
-0.874252	0.42334	-0.163236	-13.79	16.87	-14.56	0.3935	-0.221	-0.2138	
-0.878888	0.439444	-0.152256	-14.98	17.85	-17.36	0.4002	-0.2083	-0.2017	
-0.872056	0.448594	-0.135176	-23.59	19.39	-20.51	0.4046	-0.2037	-0.2063	
-0.861564	0.458842	-0.139812	-20.72	24.29	-23.73	0.4104	-0.2037	-0.2065	
-0.883768	0.453108	-0.146766	-19.46	30.59	-25.76	0.4002	-0.1974	-0.2	
-0.885232	0.474946	-0.15555	-29.54	26.67	-31.01	0.4047	-0.2038	-0.2078	
-0.88084	0.45262	-0.156282	-41.23	30.66	-34.02	0.403	-0.1942	-0.2001	
-0.901092	0.407236	-0.201056	-41.44	37.94	-41.02	0.417	-0.1707	-0.1941	
-0.925004	0.367586	-0.21716	-35.77	39.06	-42.77	0.4157	-0.177	-0.1957	
-0.931714	0.35929	-0.243756	-22.96	40.53	-43.68	0.4285	-0.166	-0.1959	
-0.947452	0.388204	-0.233752	-41.16	35.7	-49.7	0.4226	-0.1581	-0.1895	
-0.93696	0.34404	-0.27145	-46.55	39.76	-48.09	0.4351	-0.1423	-0.1806	
-0.951722	0.245098	-0.291214	-32.83	40.25	-47.95	0.4368	-0.1409	-0.1882	
-0.958066	0.24461	-0.305366	-5.18	34.44	-43.05	0.4541	-0.1394	-0.1933	
-0.979904	0.203252	-0.347456	0.77	32.06	-39.83	0.4407	-0.1251	-0.1775	
-1.02846	0.169336	-0.325374	0.91	26.11	-37.03	0.4535	-0.1204	-0.1763	
-1.001498	0.151036	-0.334158	15.12	19.46	-21.77	0.4463	-0.1172	-0.173	
-0.970144	0.128588	-0.316956	-23.59	12.53	-32.97	0.4577	-0.1125	-0.1733	
-0.98881	0.108092	-0.326594	-26.46	13.79	-35.14	0.4546	-0.0936	-0.1684	
-0.930494	0.085278	-0.310734	-27.09	11.2	-30.87	0.4532	-0.1046	-0.167	
-0.970998	0.138104	-0.339038	-22.75	14.84	-29.61	0.4548	-0.1063	-0.1746	
-0.962214	0.09272	-0.296704	-19.32	12.32	-25.06	0.4505	-0.0859	-0.1757	
-0.957822	0.177998	-0.337452	-7.77	16.66	-18.76	0.462	-0.0797	-0.176	
-0.9699	0.13786	-0.295484	-10.5	4.62	-25.97	0.4532	-0.0843	-0.1697	
-0.951722	0.21228	-0.28182	-12.81	-0.7	-22.75	0.4545	-0.07009999	-0.1665	
-0.956114	0.185196	-0.302438	-17.78	11.27	-31.5	0.469	-0.0718	-0.1731	
-0.928298	0.227286	-0.315736	-15.4	8.4	-32.83	0.4718	-0.064	-0.1715	
-0.944036	0.247904	-0.331596	-20.72	15.54	-33.88	0.4745	-0.0545	-0.1684	
-1.047614	0.392352	-0.354288	-6.37	8.96	-36.12	0.4688	-0.0561	-0.1683	
-0.91805	0.234362	-0.315248	2.59	-2.52	-52.85	0.4686	-0.0419	-0.162	
-0.888038	0.139324	-0.23973	-44.1	-5.25	-42.14	0.4716	-0.0326	-0.1665	
-1.010648	0.266936	-0.278892	-27.86	21.84	-32.48	0.4787	-0.0357	-0.1652	
-0.958798	0.204838	-0.315126	-70.42	12.32	-44.24	0.4772	-0.0294	-0.1636	
-0.992592	0.190564	-0.352946	-73.92	14.63	-52.15	0.4771	-0.0169	-0.1634	
-0.911462	0.155428	-0.33916	-64.4	2.1	-48.02	0.4771	-0.0028	-0.1617	
-0.97783	0.208864	-0.281088	-66.64	-0.21	-45.36	0.4727	0.009699999	-0.1613	
-0.95343	0.205326	-0.279624	-88.97	6.58	-59.71	0.4697	0.0176	-0.1551	
-0.962702	0.1525	-0.3111	-113.12	9.52	-75.53	0.4755	0.0285	-0.1611	
-0.95221	0.110776	-0.30866	-108.99	25.55	-86.24	0.4752	0.0396	-0.1519	
-1.019798	0.127246	-0.260836	-95.34	14.14	-72.17	0.4724	0.0552	-0.1546	
-0.92232	0.059414	-0.261934	-148.47	28.98	-70.56	0.4791	0.0679	-0.141	
-1.037854	0.060756	-0.485804	-112.91	14.35	-82.25	0.4734	0.0945	-0.1434	
-0.91073	-0.050142	-0.339404	-80.01	-22.4	-81.97	0.4788	0.1009	-0.1344	
-0.970266	-0.157868	-0.30256	-78.12	-19.74	-75.95	0.4676	0.1212	-0.1413	
-0.945988	-0.135542	-0.331718	-61.32	-16.38	-59.85	0.4708	0.1367	-0.1533	
-0.928542	-0.108824	-0.298046	-54.18	-22.12	-44.52	0.475	0.1414	-0.1503	
-0.946232	-0.116754	-0.276452	-44.59	-14.77	-34.58	0.4606	0.1556	-0.1481	
-0.969656	-0.129686	-0.307074	-44.03	-6.86	-29.89	0.4632	0.1682	-0.142	
-0.954284	-0.112728	-0.324642	-33.04	-9.87	-28.42	0.4575	0.176	-0.1416	
-0.96136	-0.072468	-0.299632	-18.97	-11.34	-26.39	0.4519	0.1775	-0.1475	
-0.96197	-0.086376	-0.286212	-21.91	-5.04	-23.31	0.4549	0.179	-0.1506	
-0.98149	-0.116144	-0.264252	-23.45	-7.98	-19.95	0.4475	0.1854	-0.1427	
-1.023336	-0.121146	-0.238754	-22.05	-8.19	-20.44	0.4547	0.1791	-0.1445	
-0.96746	-0.080886	-0.301218	-27.09	-14.35	-15.33	0.4546	0.2011	-0.1412	
-0.988688	-0.11346	-0.273402	-23.73	-14.84	-11.62	0.4492	0.1978	-0.1532	
-0.978684	-0.114802	-0.241316	-17.5	-7.84	-11.69	0.4533	0.1854	-0.1444	
-0.968436	-0.113826	-0.262666	-16.1	-7.07	-11.62	0.4477	0.1994	-0.1501	
-0.947574	-0.084302	-0.226676	-10.64	-11.2	-11.76	0.4521	0.1947	-0.1533	
-0.963556	-0.142984	-0.254736	-15.75	-8.05	-10.01	0.4506	0.1962	-0.1532	
-0.970388	-0.164578	-0.234606	-11.48	-9.52	-8.19	0.4518	0.201	-0.1456	
-0.955016	-0.1708	-0.249246	-10.36	-8.75	-7.14	0.4477	0.1994	-0.1516	
-0.93025	-0.184098	-0.252418	-5.11	-6.3	-2.52	0.4378	0.2103	-0.1556	
-0.94367	-0.183366	-0.258518	4.06	-1.75	-0.07	0.448	0.2071	-0.162	
-0.939278	-0.147864	-0.259372	12.18	-3.01	1.82	0.4477	0.2025	-0.1515	
-0.95282	-0.14213	-0.28121	12.18	-0.21	3.29	0.4507	0.2103	-0.156	
-0.958798	-0.14457	-0.267546	13.16	0.14	3.71	0.4405	0.1995	-0.1468	
-0.958188	-0.137616	-0.25681	12.67	0.98	3.92	0.4492	0.1947	-0.1517	
-0.965264	-0.133834	-0.253516	9.38	2.38	3.92	0.4451	0.1962	-0.1576	
-0.96929	-0.130174	-0.246196	10.15	3.01	4.9	0.435	0.1994	-0.1557	
-0.974536	-0.121878	-0.24034	11.97	2.87	6.65	0.4409	0.1977	-0.1604	
-0.981124	-0.115046	-0.237656	12.81	1.68	8.4	0.4422	0.1962	-0.1575	
