Sensor string: E
Serial number: 1970-01-0000
Firmware version: 2,015
Hardware version: 2,2
Calibration quality: 5
ax	ay	az	gx	gy	gz	mx	my	mz

-0.7808	-0.123464	0.577426	-1.26	15.75	3.08	0.2424	0.1961	-0.4685	Reference
-0.808982	-0.125172	0.583648	0.21	13.51	2.24	0.2501	0.1962	-0.4795	
-0.821548	-0.127368	0.572302	0	14.21	1.96	0.2564	0.1873	-0.4699	
-0.806298	-0.123464	0.562054	-0.84	15.96	1.54	0.2484	0.1985	-0.4577	
-0.794464	-0.12322	0.55327	2.24	18.69	1.12	0.2424	0.1945	-0.4638	
-0.793	-0.119072	0.547292	7.98	23.31	1.26	0.2608	0.194	-0.4592	
-0.810446	-0.124074	0.53741	15.12	33.18	2.03	0.2625	0.1883	-0.4591	
-0.817888	-0.116022	0.513742	11.62	38.64	4.62	0.264	0.1897	-0.4607	
-0.858026	-0.090402	0.496906	7.49	38.36	2.1	0.2792	0.1932	-0.4468	
-0.876448	-0.1098	0.474824	13.3	39.06	0.35	0.2779	0.1863	-0.4529	
-0.863516	-0.107604	0.466772	18.69	42.7	-0.07	0.2931	0.1885	-0.4437	
-0.871446	-0.09076799	0.468236	30.17	48.51	-0.84	0.2887	0.1817	-0.4512	
-0.89426	-0.08906	0.443714	30.94	52.36	0.91	0.3011	0.1817	-0.4622	
-0.90402	-0.085278	0.423096	35	57.61	3.78	0.3027	0.1725	-0.4386	
-0.907924	-0.07808	0.41175	37.66	58.45	7.98	0.3073	0.1737	-0.4339	
-0.916952	-0.073078	0.419924	35	56.14	10.01	0.3196	0.1705	-0.4308	
-0.914634	-0.060878	0.408822	27.58	53.34	12.67	0.3306	0.1619	-0.4353	
-0.933666	-0.055144	0.387594	24.36	50.61	15.05	0.343	0.1554	-0.418	
-0.924272	-0.04148	0.364414	23.94	49.84	17.29	0.3432	0.1469	-0.4178	
-0.920978	-0.023668	0.363072	25.13	49.21	17.71	0.3647	0.1463	-0.4147	
-0.94428	-0.020618	0.37149	26.67	51.38	19.18	0.3587	0.1407	-0.413	
-0.969656	-0.01464	0.352946	27.16	46.69	16.03	0.3742	0.1374	-0.4067	
-0.97539	-0.005246	0.333426	19.6	47.11	13.93	0.3712	0.133	-0.3988	
-0.963434	-0.007686	0.32086	10.43	44.87	12.67	0.3789	0.1297	-0.3894	
-0.967826	-0.002806	0.333914	4.62	38.08	12.53	0.3914	0.1224	-0.3924	
-0.989176	0.002684	0.335134	3.85	35.77	12.25	0.3883	0.1205	-0.372	
-0.979782	0.00549	0.304756	3.71	31.5	12.6	0.3991	0.1174	-0.372	
-0.962214	0.018544	0.283528	0.42	27.02	9.73	0.4021	0.1201	-0.3705	
-0.968314	0.024034	0.273036	-3.29	26.95	7.77	0.4146	0.1098	-0.3687	
-0.968192	0.030012	0.266082	-4.13	27.79	7.35	0.4131	0.1097	-0.3609	
-0.962702	0.02745	0.26718	-3.29	26.46	7.07	0.4081	0.1211	-0.3597	
-0.992714	0.03294	0.257664	-4.48	26.74	9.17	0.4176	0.1108	-0.3548	
-1.003084	0.039406	0.236436	-4.2	25.34	9.73	0.433	0.1088	-0.3486	
-0.989786	0.030744	0.23424	-3.64	19.53	7	0.4146	0.1063	-0.3422	
-0.986248	0.031842	0.223992	-1.33	18.2	3.64	0.4235	0.1161	-0.3456	
-0.98881	0.03843	0.211914	-5.88	19.81	4.34	0.422	0.1145	-0.3393	
-0.994788	0.04148	0.205936	-9.1	20.3	4.9	0.4342	0.1216	-0.3505	
-0.991982	0.029524	0.19642	-7.49	20.65	4.06	0.4326	0.1168	-0.327	
-0.997228	0.025254	0.191906	-3.71	18.9	2.45	0.4342	0.1185	-0.3411	
-0.99552	0.025986	0.172996	-6.16	17.36	1.4	0.4315	0.1027	-0.3297	
-1.016748	0.032574	0.155062	-6.86	15.68	4.13	0.4451	0.1139	-0.3363	
-1.037488	0.035746	0.139202	-8.96	14.35	6.65	0.4435	0.1138	-0.3332	
-1.031022	0.035624	0.116876	-8.26	10.85	2.8	0.4389	0.1126	-0.3347	
-1.01809	0.0366	0.11834	-8.54	6.93	1.68	0.445	0.1138	-0.3316	
-1.02297	0.032208	0.112728	-7.07	7.7	2.73	0.4467	0.1063	-0.319	
-1.031266	0.023058	0.10553	-2.03	4.06	2.73	0.4422	0.1037	-0.3251	
-1.031266	0.024522	0.092232	0.56	-0.28	1.19	0.445	0.1149	-0.3223	
-1.036024	0.025742	0.08174	1.96	-0.84	-1.54	0.4467	0.1078	-0.3221	
-1.017968	0.031232	0.081496	7.14	-3.57	-4.41	0.4497	0.1076	-0.3175	
-1.011502	0.039406	0.0915	11.34	-5.18	-5.95	0.4406	0.108	-0.3252	
-1.00772	0.028792	0.090646	6.09	-2.59	-2.31	0.4419	0.1151	-0.3254	
-1.026386	0.016714	0.082594	5.6	-3.36	2.1	0.4484	0.1036	-0.3267	
-1.02907	0.02013	0.09333	7.14	-5.67	0.35	0.4437	0.1037	-0.3267	
-1.011868	0.026718	0.107482	2.66	-4.62	-1.61	0.4419	0.1151	-0.3254	
-1.024434	0.049654	0.107848	-1.68	-1.96	2.17	0.4513	0.1079	-0.3299	
-1.026752	0.054534	0.109922	-4.55	-2.45	3.15	0.4361	0.1025	-0.3266	
-0.998936	0.055754	0.123342	-3.22	-4.69	3.43	0.4479	0.1208	-0.335	
-0.998692	0.057828	0.14396	-2.52	-5.81	4.83	0.4373	0.1139	-0.3285	
-0.997106	0.061366	0.166652	-5.88	-6.09	2.8	0.4435	0.1152	-0.3301	
-1.001132	0.06527	0.177632	-8.89	-5.39	1.47	0.4294	0.1254	-0.3288	
-0.997716	0.074542	0.175192	-10.71	-3.99	2.03	0.4497	0.1109	-0.3347	
-0.99857	0.073932	0.178242	-9.45	-4.55	2.03	0.4253	0.1043	-0.3312	
-0.990274	0.069052	0.18605	-6.93	-5.81	2.8	0.4342	0.1154	-0.3285	
-1.003084	0.060878	0.17934	-8.89	-4.69	4.76	0.4374	0.114	-0.3347	
-0.997472	0.040138	0.180316	-9.87	-6.37	5.88	0.4343	0.1124	-0.3237	
-0.989542	0.03294	0.18422	-10.29	-5.11	3.78	0.4297	0.1157	-0.3378	
-0.99857	0.022448	0.18239	-10.29	-3.43	3.01	0.4406	0.1069	-0.3361	
-1.002108	0.011346	0.187758	-5.88	-4.2	1.47	0.4343	0.1142	-0.3378	
-0.998326	0.015494	0.193004	-3.08	-5.88	-0.28	0.4358	0.1171	-0.3441	
-0.991616	0.024522	0.192028	0.07	-5.81	-2.8	0.4371	0.1225	-0.335	
-0.992104	0.022204	0.191662	1.19	-5.67	-3.08	0.4358	0.1156	-0.3394	
-0.989054	0.017446	0.195322	4.69	-6.44	-2.87	0.4343	0.1125	-0.3284	
-0.989176	0.0183	0.194834	4.48	-5.81	-3.71	0.4309	0.1255	-0.3335	
-0.981612	0.026962	0.19398	6.44	-4.34	-4.13	0.4327	0.1169	-0.3317	
-0.98576	0.038308	0.196786	5.39	-2.38	-3.57	0.4265	0.1216	-0.3427	
-0.99186	0.041724	0.196542	6.86	-2.66	-3.36	0.431	0.1228	-0.3381	
-0.991128	0.042944	0.19703	7.63	-3.08	-4.62	0.4358	0.1158	-0.3457	
-0.991494	0.043798	0.199958	7.35	-2.66	-5.39	0.4313	0.1114	-0.3377	
-0.988078	0.043798	0.202398	7.91	-3.57	-4.55	0.4296	0.1173	-0.3426	
-0.9882	0.040016	0.203374	7.84	-3.08	-3.57	0.4267	0.1146	-0.3456	
-0.987468	0.036722	0.201666	6.44	-1.75	-2.31	0.4237	0.1118	-0.3439	
-0.99125	0.033306	0.195688	6.86	-0.7	-1.19	0.4218	0.1246	-0.3443	
-0.999302	0.03111	0.18971	6.72	-0.28	-0.56	0.4264	0.1215	-0.338	
-0.999058	0.034282	0.185928	5.67	-0.42	-2.24	0.4313	0.1115	-0.3393	
-0.992836	0.035258	0.19276	4.9	-1.12	-2.94	0.4392	0.1041	-0.3344	
-0.995032	0.035746	0.19764	5.6	-1.89	-2.8	0.4298	0.1113	-0.333	
-1.003572	0.038552	0.188978	3.92	-0.91	-2.45	0.4329	0.1101	-0.3439	
-1.00467	0.03843	0.186172	3.22	-3.08	-3.15	0.4205	0.1146	-0.3409	
-1.002474	0.03965	0.19032	2.24	-4.83	-2.73	0.4266	0.116	-0.3456	
-0.99857	0.027694	0.19459	3.08	-6.09	-2.31	0.4175	0.1136	-0.3548	
-0.9943	0.028182	0.210938	3.5	-7.63	-2.45	0.4219	0.1189	-0.3426	
-0.987224	0.02806	0.211304	-0.21	-7.56	-2.59	0.419	0.1133	-0.3439	
-0.992348	0.030744	0.214354	0.91	-7.84	-1.54	0.416	0.1105	-0.3423	
-0.991494	0.016104	0.212036	-0.84	-8.26	-0.7	0.4342	0.1216	-0.3489	
-0.987468	0.012078	0.221186	1.61	-9.59	-0.98	0.4237	0.1119	-0.347	
-0.982222	0.0244	0.225578	-1.4	-7.91	-1.19	0.4234	0.1235	-0.3583	
-0.980026	0.031964	0.228628	-1.75	-7.77	0.28	0.4146	0.1094	-0.3532	
-0.975756	0.025132	0.234118	0.28	-8.54	0.7	0.4206	0.1137	-0.3611	
-0.976	0.021472	0.233386	-0.14	-6.86	1.26	0.4268	0.112	-0.3548	
-0.97783	0.029402	0.236314	-1.19	-5.18	1.4	0.4223	0.1094	-0.3594	
-0.972706	0.027694	0.23668	-3.01	-5.32	1.33	0.4268	0.1123	-0.3642	
-0.980636	0.034892	0.236924	-0.84	-2.73	1.75	0.419	0.115	-0.3549	
-0.983442	0.040504	0.237778	-1.96	-2.31	1.61	0.4099	0.1111	-0.3594	
-0.981246	0.035136	0.238632	-0.07	-2.94	1.05	0.4222	0.1107	-0.3563	
-0.984052	0.03599	0.237168	-0.49	-2.1	0.98	0.4223	0.1079	-0.3563	
-0.98393	0.033794	0.238754	-1.4	-2.17	-0.28	0.4144	0.1137	-0.3548	
-0.983686	0.030134	0.240096	-0.14	-2.31	-0.77	0.4234	0.1265	-0.3662	
-0.981856	0.02745	0.241804	-0.84	-1.96	-1.26	0.419	0.1133	-0.3439	
-0.98088	0.024766	0.242536	-0.42	-2.03	-1.26	0.4189	0.1195	-0.3628	
-0.981246	0.02623	0.245342	-1.05	-1.89	-1.33	0.419	0.1148	-0.3471	
-0.977586	0.025864	0.24705	-1.26	-1.82	-0.98	0.4143	0.1194	-0.355	
-0.97417	0.025986	0.24888	-0.63	-2.1	-0.91	0.4114	0.1139	-0.3579	
-0.98149	0.018544	0.244122	-1.4	-0.21	-0.21	0.4224	0.1036	-0.353	
-0.978562	0.016104	0.248514	-0.98	-1.26	-0.35	0.4144	0.1136	-0.3517	
-0.976366	0.014152	0.25376	-1.12	-0.77	-0.07	0.422	0.1178	-0.3566	
-0.979294	0.016104	0.251076	0.21	-0.56	-0.14	0.4116	0.1083	-0.3624	
-0.978684	0.014762	0.250344	2.24	-1.33	-1.12	0.416	0.1139	-0.3626	
-0.97966	0.014396	0.24644	3.01	-0.91	-1.75	0.4145	0.1141	-0.3673	
-0.978928	0.015006	0.244244	3.43	-0.98	-2.1	0.4205	0.1148	-0.3487	
-0.980026	0.022204	0.243512	3.78	-0.91	-2.17	0.4113	0.1151	-0.3517	
-0.981002	0.020374	0.241682	2.94	-1.05	-2.17	0.4129	0.1138	-0.3564	
-0.985272	0.018178	0.23973	3.01	-1.12	-1.47	0.4176	0.1108	-0.3548	
-0.982832	0.02074	0.239974	2.52	-1.05	-1.61	0.4131	0.1081	-0.3531	
-0.985882	0.020496	0.24034	2.59	-0.35	-1.54	0.4068	0.1111	-0.3563	
-0.982588	0.01769	0.239486	2.94	-0.7	-2.03	0.4099	0.1126	-0.361	
-0.981246	0.015738	0.238144	2.73	-0.14	-2.94	0.4254	0.105	-0.3546	
-0.981978	0.017324	0.236436	1.96	0.35	-2.52	0.4188	0.1221	-0.3535	
-0.982466	0.017568	0.236436	2.17	0.14	-2.1	0.41	0.1113	-0.3672	
-0.984174	0.01647	0.235582	2.45	0.63	-1.4	0.4236	0.1194	-0.3644	
-0.986248	0.018788	0.234606	2.45	0.56	-1.26	0.4036	0.1169	-0.3564	
-0.983686	0.021472	0.236192	1.12	0.91	-0.91	0.4219	0.1206	-0.3551	
-0.984906	0.015372	0.234362	1.96	0.56	-0.28	0.4174	0.1196	-0.3644	
-0.988078	0.023912	0.23668	0.49	0.7	-1.05	0.4084	0.1111	-0.3578	
-0.986248	0.031598	0.231312	-1.05	0.63	0.07	0.4066	0.1196	-0.355	
-0.989786	0.031964	0.229238	-1.75	0.49	0.91	0.419	0.1149	-0.3502	
-0.991128	0.017324	0.232898	0.28	-0.91	2.52	0.4254	0.108	-0.361	
-0.985028	0.013054	0.235216	-1.12	-1.26	0.91	0.4098	0.1155	-0.3642	
-0.980392	0.030256	0.238022	-3.5	-0.14	0.7	0.4142	0.1224	-0.3613	
-0.983076	0.028426	0.239242	-3.36	-0.21	0.91	0.4158	0.1223	-0.3598	
-0.981612	0.018178	0.243878	-1.05	-1.26	1.19	0.4191	0.1124	-0.361	
-0.981368	0.01708	0.242902	-1.54	-0.7	1.54	0.4144	0.1166	-0.358	
-0.98332	0.019032	0.24156	-2.45	-0.7	1.61	0.413	0.1109	-0.3547	
-0.984174	0.01769	0.240462	-2.17	-0.56	1.68	0.405	0.1222	-0.3457	
-0.982466	0.018544	0.243878	-1.75	-0.63	1.4	0.4252	0.1165	-0.3612	
-0.982466	0.02074	0.243878	-0.98	-0.21	1.26	0.4127	0.1225	-0.3629	
-0.98393	0.021838	0.24095	-0.7	-0.07	0.49	0.4113	0.1198	-0.369	
-0.983808	0.025742	0.240828	-0.84	0.14	-0.07	0.4176	0.1139	-0.3658	
-0.983076	0.021594	0.238388	-0.42	-0.77	0.28	0.4037	0.1156	-0.3611	
-0.97966	0.018422	0.240218	-0.28	-0.84	-0.63	0.416	0.1154	-0.3658	
-0.982832	0.022692	0.24156	-0.84	-0.14	-0.14	0.4113	0.1183	-0.3659	
-0.98332	0.024278	0.24156	-0.91	0.07	-0.28	0.4066	0.1196	-0.3565	
-0.982344	0.023302	0.24095	-0.49	0.07	-0.28	0.4177	0.1081	-0.3609	
-0.984174	0.021716	0.238876	-0.49	0.49	0.21	0.4267	0.115	-0.3612	
-0.985394	0.021838	0.237168	-0.49	0.21	0.35	0.4189	0.1208	-0.3597	
-0.981612	0.022082	0.239242	-0.49	0.28	0	0.4114	0.1154	-0.3627	
-0.981612	0.022814	0.238266	-0.63	1.05	-0.28	0.4099	0.114	-0.3595	
-0.986614	0.023668	0.233264	-0.84	1.54	-0.14	0.4207	0.1109	-0.361	
-0.981612	0.021716	0.231068	-0.35	0.77	0.21	0.4129	0.1155	-0.3658	
-0.981734	0.01647	0.232044	-0.14	1.47	0.42	0.4206	0.1139	-0.3658	
-0.985028	0.018544	0.231556	0.49	1.96	0.28	0.4205	0.1178	-0.3534	
-0.985272	0.01708	0.231434	0.49	2.03	-0.63	0.4176	0.1094	-0.3532	
-0.984784	0.015738	0.232288	0.63	2.59	-1.05	0.4158	0.1177	-0.3456	
-0.984296	0.019032	0.232654	1.12	2.59	-1.96	0.41	0.1096	-0.3562	
-0.986004	0.017812	0.232532	2.31	2.24	-3.01	0.4205	0.1178	-0.355	
-0.982466	0.014762	0.23302	3.08	1.4	-3.29	0.416	0.1124	-0.3595	
-0.984174	0.007564	0.2318	4.48	1.4	-3.99	0.4113	0.1153	-0.3564	
-0.982832	0.010492	0.224968	2.45	2.73	-5.25	0.4191	0.1107	-0.3501	
-1.013088	0.003904	0.23546	-6.72	8.68	-12.11	0.4065	0.1253	-0.3567	
-1.019798	0.00183	0.2196	-19.53	-2.17	-30.45	0.4205	0.1177	-0.3488	
-0.957578	0.007686	0.2257	-5.39	-18.34	-13.02	0.42	0.1348	-0.3555	
-0.984418	-0.002684	0.2318	1.12	-5.39	-0.56	0.4249	0.1263	-0.3584	
-0.987102	-0.004636	0.232044	-0.63	-5.88	-3.22	0.4171	0.1278	-0.3537	
-0.983686	-0.003294	0.238754	-2.1	-7.14	-1.96	0.4096	0.124	-0.3629	
-0.98332	0.00244	0.246562	-5.67	-7.63	0.98	0.4049	0.1253	-0.3567	
-0.977464	0.005124	0.252906	-9.94	-8.26	2.38	0.4125	0.1325	-0.3663	
-0.97783	0.018178	0.247172	-14.91	-6.44	5.88	0.4094	0.1309	-0.3584	
-0.983076	0.00915	0.24705	-15.26	-5.39	10.01	0.414	0.1325	-0.3678	
-0.97356	-0.005734	0.250344	-13.86	-4.27	11.27	0.4081	0.1256	-0.3707	
-0.975512	-0.005856	0.252418	-13.86	-1.33	12.53	0.4124	0.1322	-0.3554	
-0.976854	0.00244	0.251686	-15.68	0.63	11.55	0.4079	0.1326	-0.3678	
-0.977952	0.000732	0.248636	-13.72	0.7	10.85	0.4158	0.1194	-0.3581	
-0.980636	-0.00244	0.243146	-10.71	0.77	10.08	0.4203	0.1234	-0.352	
-0.978196	0.000488	0.246074	-8.19	0.56	8.89	0.4126	0.1284	-0.374	
-0.977098	0.001098	0.24583	-5.95	0.84	7.28	0.4093	0.1367	-0.3617	
-0.972096	0.00732	0.247172	-2.03	1.05	5.88	0.4141	0.1279	-0.3553	
-0.978684	0.009272	0.245586	-0.77	2.94	4.97	0.414	0.1338	-0.3648	
-0.979538	0.004148	0.24034	0.49	1.96	3.22	0.411	0.1294	-0.3568	
-0.981978	0.01098	0.237778	2.1	2.94	1.47	0.4158	0.1224	-0.3613	
-0.978806	0.012444	0.23424	3.22	2.8	0.07	0.4156	0.1279	-0.3553	
-0.98027	0.009638	0.237656	6.58	3.5	-1.68	0.4062	0.1371	-0.3726	
-0.986248	0.008296	0.238144	6.44	4.13	-1.54	0.4169	0.1378	-0.3587	
-0.98088	0.011102	0.23668	7.56	3.15	-2.1	0.4156	0.1265	-0.3568	
-0.985394	0.014274	0.23607	8.68	4.55	-2.24	0.4081	0.1209	-0.3519	
-0.99125	0.018422	0.225822	7.98	4.97	-1.19	0.411	0.1279	-0.3537	
-0.996496	0.024034	0.228872	7.35	3.85	0	0.4141	0.1263	-0.349	
-0.990884	0.0244	0.230458	6.09	2.38	0.91	0.4172	0.1249	-0.3536	
-0.988688	0.028304	0.232288	4.83	2.1	1.75	0.4219	0.1206	-0.3551	
-0.991006	0.030988	0.231678	3.08	1.75	2.45	0.4343	0.1191	-0.3613	
-0.988932	0.030988	0.232288	1.54	0.63	2.8	0.4097	0.1182	-0.3596	
-0.988322	0.030134	0.237656	1.26	-0.7	2.66	0.419	0.1152	-0.3611	
-0.984174	0.028304	0.235094	-0.14	-0.91	3.01	0.4127	0.1223	-0.3566	
-0.984418	0.025864	0.23851	-0.21	-0.98	3.08	0.425	0.1191	-0.355	
-0.980636	0.0244	0.240462	-0.42	-1.33	2.24	0.422	0.1193	-0.3597	
-0.98027	0.025376	0.23973	-0.84	-0.63	1.68	0.4173	0.1209	-0.3597	
-0.981612	0.02745	0.241316	-0.42	0	1.26	0.4022	0.1113	-0.3578	
-0.977098	0.027694	0.244366	0.84	-0.07	0.35	0.4113	0.1168	-0.3596	
-0.975512	0.02806	0.24156	1.26	0.7	-0.14	0.4219	0.1206	-0.3551	
-0.97905	0.027694	0.242902	1.33	1.26	-0.7	0.4189	0.1193	-0.355	
-0.97966	0.024034	0.237534	3.01	1.96	-1.05	0.4142	0.1206	-0.3472	
-0.98393	0.021594	0.235948	3.99	2.59	-2.1	0.413	0.1109	-0.3547	
-0.984906	0.02135	0.230702	3.99	3.29	-2.87	0.4144	0.1152	-0.3564	
-0.987468	0.022448	0.228384	5.67	3.85	-3.78	0.4236	0.1165	-0.3628	
-0.987956	0.022814	0.224724	6.37	4.06	-4.9	0.413	0.1125	-0.3595	
-0.982222	0.026718	0.222894	6.93	4.06	-4.83	0.4127	0.1209	-0.3582	
-0.993446	0.017202	0.222406	8.89	3.99	-4.83	0.4142	0.124	-0.3676	
-0.988688	0.028304	0.2257	7.28	3.01	-6.51	0.4187	0.1248	-0.349	
-0.99003	0.033184	0.221308	4.69	4.2	-6.51	0.4311	0.1249	-0.3662	
-0.993324	0.037088	0.21594	4.55	3.36	-5.6	0.4189	0.1161	-0.3425	
-0.991738	0.022448	0.21655	5.81	1.96	-3.57	0.422	0.1193	-0.3597	
-0.989298	0.01342	0.219478	5.67	1.61	-4.34	0.4126	0.1282	-0.3646	
-0.993202	0.025254	0.217526	2.17	2.52	-4.13	0.4235	0.1189	-0.3457	
-0.990518	0.030134	0.21777	1.61	1.68	-3.22	0.4172	0.1264	-0.3552	
-0.98942	0.021106	0.21838	2.52	0.84	-2.03	0.4203	0.122	-0.3504	
-0.988322	0.019032	0.21899	1.75	0.49	-0.91	0.4219	0.1189	-0.3426	
-0.986248	0.02257	0.220576	-0.56	1.12	-0.56	0.4375	0.1129	-0.3456	
-0.987224	0.019886	0.2196	-0.98	1.68	-0.56	0.4236	0.1149	-0.3549	
-0.9882	0.01342	0.21899	-2.17	2.1	-0.77	0.4297	0.1174	-0.3488	
-0.986492	0.01037	0.2196	-2.1	2.03	-0.28	0.4202	0.1292	-0.3569	
-0.989176	0.005734	0.213378	-1.33	1.82	0.07	0.431	0.1261	-0.3568	
-0.993446	0.008296	0.211426	-1.89	1.82	0.42	0.4174	0.1177	-0.3487	
-0.991738	0.003416	0.20984	-0.56	0.63	0.21	0.4202	0.1245	-0.3412	
-0.99186	-0.001342	0.20984	-1.26	0.7	-0.7	0.4251	0.1145	-0.3409	
-0.993568	0.002806	0.208986	-1.47	0.91	-0.49	0.4248	0.1261	-0.3521	
-0.992958	0.001708	0.207644	-0.7	0.14	-0.49	0.413	0.1108	-0.3501	
-0.99247	0.000366	0.207644	-0.42	-0.28	-0.07	0.419	0.1136	-0.3533	
-0.992104	-0.002196	0.207278	0.21	-0.28	0.28	0.4189	0.119	-0.3457	
-0.989908	-0.001464	0.210084	-0.35	-0.56	0	0.428	0.1203	-0.3473	
-0.98942	-0.002928	0.210694	0.35	-0.07	-0.07	0.4189	0.1161	-0.3409	
-0.98942	-0.002562	0.209474	-0.07	0.14	0.35	0.4206	0.1134	-0.3486	
-0.991372	-0.002684	0.209962	0.28	0.35	0.56	0.4128	0.1163	-0.3424	
-0.992226	0.001464	0.209596	0.7	0.42	1.19	0.4142	0.1235	-0.3489	
-0.990518	0.002562	0.208132	0.7	-0.35	1.54	0.4202	0.1262	-0.349	
-0.990152	0.003172	0.210084	1.4	-0.42	1.68	0.4282	0.1161	-0.3519	
-0.990884	0.004148	0.209108	0.63	-0.07	1.26	0.4252	0.1148	-0.3534	
-0.99064	0.008905999	0.209596	0.63	-0.28	0.63	0.4095	0.1249	-0.3442	
-0.987834	0.012932	0.211548	1.26	-0.14	0.49	0.4188	0.1221	-0.3551	
-0.993812	0.010858	0.2135	1.89	1.12	1.12	0.4112	0.1193	-0.3472	
-0.985272	0.012566	0.211914	2.31	0.56	0.91	0.4159	0.1148	-0.3424	
-0.987712	0.017202	0.21289	1.75	1.68	0.77	0.4282	0.116	-0.3487	
-0.991738	0.01708	0.210694	2.31	1.47	0.7	0.4235	0.1177	-0.3519	
-0.987468	0.020008	0.212524	1.75	1.19	0.84	0.4313	0.1146	-0.3503	
-0.989542	0.022326	0.209596	0.63	1.68	1.4	0.4371	0.1257	-0.3475	
-0.989542	0.0244	0.209108	0.56	1.54	1.54	0.4266	0.1144	-0.3378	
-0.994422	0.027572	0.20557	-0.28	1.54	2.24	0.4172	0.1232	-0.3396	
-0.995032	0.030378	0.202398	-0.56	1.33	2.52	0.4236	0.1147	-0.3456	
-0.996984	0.034038	0.202886	-1.82	1.47	2.03	0.4357	0.1185	-0.3411	
-0.996374	0.025498	0.20679	-3.15	0.77	1.96	0.4189	0.1191	-0.3472	
-0.987956	0.014152	0.21594	-3.36	-0.98	1.75	0.425	0.1189	-0.3457	
-0.989176	0.02318	0.218136	-7	-0.35	1.68	0.4281	0.1159	-0.3441	
-0.984784	0.028914	0.212158	-5.81	-0.98	3.36	0.4205	0.1163	-0.3518	
-0.994056	0.020984	0.205082	-6.09	0.49	5.39	0.4265	0.1218	-0.3505	
-0.988932	0.010858	0.212402	-3.22	-0.56	4.76	0.4207	0.1074	-0.3375	
-0.980392	0.017934	0.218624	-5.25	0.63	2.31	0.4267	0.1118	-0.3455	
-0.983808	0.035746	0.214598	-6.44	3.15	1.61	0.4219	0.1187	-0.3348	
-0.99064	0.036844	0.211304	-3.5	3.08	0.49	0.4219	0.1204	-0.3473	
-0.988444	0.026596	0.205448	-0.7	2.31	-0.28	0.4143	0.1162	-0.3424	
-0.991616	0.025742	0.203618	-0.7	3.15	-0.35	0.4282	0.1114	-0.333	
-0.995154	0.02745	0.201056	-0.42	3.15	-1.05	0.4281	0.1158	-0.3409	
-0.99735	0.026352	0.199836	1.33	2.59	-1.54	0.428	0.1233	-0.3536	
-0.996252	0.023546	0.200202	2.38	1.96	-1.89	0.4327	0.1201	-0.3473	
-0.99674	0.024156	0.199226	2.94	1.61	-3.01	0.4375	0.1116	-0.3502	
-0.997716	0.027816	0.197884	3.15	1.05	-3.64	0.4312	0.1158	-0.3441	
-0.997838	0.024766	0.194102	2.31	0.77	-2.59	0.4235	0.1192	-0.355	
-0.991006	0.017324	0.20008	4.76	-0.56	-2.31	0.4269	0.1062	-0.3484	
-0.990152	0.011346	0.20191	4.2	-0.35	-1.75	0.4312	0.1171	-0.3394	
-0.991128	0.016592	0.200324	3.5	-0.35	-1.89	0.4418	0.1228	-0.349	
-0.990762	0.018788	0.19886	2.87	0.42	-2.45	0.4236	0.1117	-0.3392	
-0.987346	0.017324	0.198616	3.71	0.49	-2.45	0.4357	0.1199	-0.3411	
-0.989908	0.016104	0.198738	3.22	1.54	-1.12	0.4266	0.1174	-0.3441	
-0.994178	0.019032	0.194468	1.89	2.1	-0.07	0.4221	0.1115	-0.333	
-0.99125	0.018666	0.194468	1.68	1.89	0.07	0.422	0.1175	-0.3456	
-0.993568	0.016714	0.192028	2.17	2.1	0.35	0.4236	0.1145	-0.3393	
-0.99918	0.015616	0.188612	1.68	2.8	0.28	0.4219	0.1189	-0.3441	
-0.99918	0.015494	0.18666	1.68	2.17	0.07	0.4357	0.1214	-0.3427	
-0.997594	0.013176	0.187026	1.33	2.1	-0.28	0.425	0.1171	-0.3332	
-0.998326	0.013542	0.18361	0.91	2.03	-0.49	0.4298	0.1115	-0.3377	
-0.999668	0.012566	0.18239	0.35	1.89	-1.05	0.4357	0.1214	-0.3443	
-1.001986	0.0122	0.180438	-0.42	2.24	-1.33	0.4267	0.1131	-0.3424	
-0.998692	0.011468	0.180926	0.77	1.61	-1.05	0.4372	0.1214	-0.3458	
-0.995276	0.010614	0.183366	2.45	1.33	-0.63	0.4222	0.1104	-0.3439	
-1.001254	0.011712	0.187392	0.42	0.35	0.7	0.4296	0.1172	-0.3394	
-1.000888	0.010004	0.184708	-0.91	-0.7	0.49	0.4284	0.1075	-0.3469	
-0.99491	0.008905999	0.184952	-1.61	-1.05	0	0.4297	0.1144	-0.3425	
-0.998204	0.014274	0.184342	-2.38	0.07	0.42	0.4325	0.1227	-0.3381	
-0.996984	0.015738	0.184586	-2.52	-0.49	0.7	0.4314	0.1056	-0.3329	
-0.996984	0.016958	0.183976	-2.73	-0.21	1.61	0.4311	0.1169	-0.3301	
-0.996862	0.01769	0.187026	-2.38	-0.42	2.8	0.4296	0.1184	-0.3332	
-0.994056	0.019642	0.186416	-2.8	-0.42	3.08	0.4389	0.117	-0.3426	
-0.996862	0.020252	0.18544	-3.01	0.14	4.06	0.4249	0.123	-0.3411	
-0.998814	0.01403	0.186538	-2.17	-0.35	4.2	0.4372	0.1215	-0.349	
-0.99857	0.018422	0.189832	-1.82	-0.49	3.5	0.4249	0.1215	-0.3395	
-0.994544	0.027938	0.18971	-4.62	-0.35	2.87	0.431	0.1241	-0.335	
-0.999058	0.031842	0.18361	-3.64	-0.28	3.43	0.4279	0.1242	-0.3365	
-1.004304	0.022448	0.182268	-3.29	-0.07	4.06	0.4373	0.1139	-0.33	
-0.996008	0.017202	0.190198	-1.61	-2.38	1.82	0.4358	0.117	-0.3379	
-0.996862	0.030378	0.193004	-4.41	-1.96	-0.07	0.4249	0.1201	-0.3395	
-1.001986	0.04331	0.18849	-6.51	-2.45	-0.07	0.4251	0.1144	-0.3378	
-0.99979	0.03843	0.191052	-4.97	-5.39	-0.49	0.4236	0.1117	-0.3408	
-1.003572	0.027816	0.187636	-3.15	-5.46	0.21	0.4264	0.1244	-0.3412	
-0.99674	0.020008	0.192882	-2.59	-5.88	-1.05	0.4311	0.1215	-0.3427	
-0.987712	0.013542	0.200934	-3.22	-5.18	-2.38	0.4297	0.1143	-0.3394	
-0.985272	0.013176	0.201666	-3.36	-3.57	-2.31	0.4252	0.1134	-0.3533	
-0.987956	0.00549	0.203984	-1.68	-2.24	-1.68	0.4279	0.1259	-0.3475	
-0.983442	0.000732	0.204838	-0.21	-2.1	-0.49	0.4265	0.1187	-0.341	
-0.988444	0.008174	0.205936	-0.14	-0.98	0.7	0.4279	0.1273	-0.3475	
-0.985394	0.015372	0.20557	-0.21	-1.47	2.24	0.4262	0.133	-0.3461	
-0.987956	0.013054	0.206668	0.56	-1.54	3.15	0.419	0.1134	-0.3471	
-0.990152	0.020008	0.204472	0.7	-0.91	3.22	0.4403	0.1213	-0.3443	
-0.991128	0.025498	0.205448	0.21	-0.63	2.87	0.4235	0.1189	-0.3457	
-0.99003	0.031354	0.207278	0.21	-1.19	2.73	0.4268	0.1074	-0.3423	
-0.992348	0.033428	0.207278	0.07	-0.7	3.15	0.4283	0.1118	-0.3486	
-0.990152	0.03172	0.207522	-0.56	-0.77	2.94	0.419	0.1146	-0.3393	
-0.990396	0.027572	0.2074	-0.77	-0.49	2.03	0.416	0.112	-0.3454	
-0.991128	0.02745	0.206302	-0.98	-0.35	1.96	0.416	0.112	-0.3454	
-0.99247	0.024034	0.203008	0	-0.77	1.4	0.4312	0.1159	-0.3456	
-0.991738	0.022204	0.20435	0.42	-1.05	1.12	0.4312	0.1159	-0.3456	
-0.989298	0.02501	0.203862	1.05	-1.26	1.12	0.4295	0.1199	-0.3348	
-0.986858	0.025376	0.206424	1.19	-0.77	0.7	0.4343	0.1173	-0.3488	
-0.990518	0.027694	0.2074	1.61	0.07	1.05	0.4341	0.1242	-0.3428	
-0.990274	0.032574	0.205326	2.1	0.35	0.98	0.4191	0.1105	-0.3454	
-0.989664	0.03538	0.208376	1.75	0.49	0.77	0.4253	0.1105	-0.3501	
-0.989054	0.038796	0.208986	1.4	0.35	1.19	0.4437	0.1083	-0.3392	
-0.98942	0.03599	0.20923	1.19	0.77	1.47	0.4218	0.123	-0.3365	
-0.98942	0.035868	0.206302	0.91	1.19	1.47	0.4297	0.1176	-0.3535	
-0.99064	0.03782	0.206424	0.7	1.26	1.05	0.4251	0.1161	-0.3487	
-0.992104	0.040016	0.205692	0.77	1.19	1.26	0.4372	0.1212	-0.3396	
-0.992958	0.040382	0.206302	0.91	0.84	1.19	0.433	0.1059	-0.3438	
-0.99186	0.039284	0.205692	0.77	0.91	1.19	0.4235	0.1173	-0.3379	
-0.991738	0.038186	0.205082	1.05	1.12	0.91	0.4357	0.1185	-0.3426	
-0.990274	0.036478	0.205326	1.12	1.26	0.42	0.4343	0.1143	-0.3425	
-0.992714	0.040504	0.202154	0.84	1.12	0.07	0.4313	0.1116	-0.3455	
-0.995032	0.043798	0.201056	0.35	0.98	0	0.4359	0.1128	-0.3409	
-0.993324	0.035624	0.199714	0.84	0.14	0.35	0.4236	0.1147	-0.3456	
-0.993324	0.04209	0.20008	0.63	0.35	0	0.4266	0.1145	-0.3425	
-0.991494	0.051362	0.19581	-2.66	0.35	-0.63	0.4345	0.1073	-0.3454	
-0.990152	0.05185	0.19154	-0.56	-0.28	-0.21	0.4222	0.1089	-0.3407	
-0.996618	0.041724	0.183366	-1.61	0.98	1.4	0.4297	0.1128	-0.3362	
-0.99674	0.029402	0.178364	0.7	0.21	1.4	0.4344	0.1114	-0.3377	
-1.01077	0.033916	0.167018	-0.42	1.75	2.24	0.4296	0.1201	-0.3426	
-1.021628	0.045872	0.155916	-0.77	0.84	2.87	0.4283	0.1103	-0.3439	
-1.008696	0.05002	0.155062	1.47	-2.94	1.26	0.4313	0.1113	-0.3315	
-1.008574	0.060512	0.1464	2.38	-3.71	1.33	0.4298	0.1133	-0.3518	
-1.027728	0.072102	0.144204	1.05	-4.62	1.47	0.4296	0.1171	-0.3363	
-1.027362	0.0793	0.138348	0.77	-8.82	1.82	0.4269	0.1062	-0.35	
-1.023458	0.071492	0.142862	0.14	-11.76	2.73	0.4251	0.1115	-0.333	
-1.02358	0.062708	0.147376	0.14	-13.86	2.31	0.4268	0.1089	-0.3454	
-1.0126	0.055144	0.161284	0.14	-17.01	1.26	0.4191	0.1136	-0.3549	
-1.007476	0.045872	0.172752	-0.77	-17.92	0.35	0.4236	0.1116	-0.3361	
-0.998326	0.033916	0.182634	-0.98	-19.25	-2.03	0.4316	0.1033	-0.3499	
-0.995764	0.024156	0.191418	-0.28	-20.51	-4.06	0.4176	0.1122	-0.3548	
-0.997716	0.026474	0.195078	-2.73	-20.86	-4.62	0.4177	0.1079	-0.3531	
-0.99857	0.033062	0.19581	-4.41	-22.47	-4.48	0.4084	0.108	-0.3484	
-1.004914	0.032574	0.196542	-5.04	-25.2	-3.78	0.4005	0.1182	-0.3502	
-1.006988	0.032452	0.196786	-3.64	-29.4	-3.78	0.4052	0.1157	-0.3673	
-1.011136	0.035014	0.20069	-4.2	-34.58	-5.67	0.402	0.12	-0.3643	
-1.0004	0.044652	0.210572	-5.04	-40.88	-8.82	0.3838	0.1149	-0.3687	
-0.970144	0.031476	0.244732	-5.88	-49.14	-12.18	0.3927	0.1278	-0.3832	
-0.951844	0.018544	0.32208	-7.77	-56	-12.32	0.3944	0.1238	-0.394	
-0.957456	0.002318	0.329644	-7.07	-55.09	-9.03	0.3836	0.1255	-0.3955	
-0.932446	0.017812	0.336842	-8.26	-58.1	-7.63	0.3745	0.1213	-0.3876	
-0.931836	0.022448	0.339282	-11.13	-55.02	-6.23	0.3607	0.1216	-0.3875	
-0.936106	0.007198	0.329034	-9.87	-55.09	-0.77	0.3499	0.1268	-0.4141	
-0.933178	-0.000732	0.335012	-8.05	-58.87	-1.26	0.3344	0.1344	-0.4189	
-0.935618	0.001586	0.34831	-5.11	-61.74	-1.61	0.3359	0.1346	-0.4251	
-0.91866	0.004148	0.39772	-3.92	-64.54	-2.94	0.316	0.1367	-0.4329	
-0.917318	0.006222	0.427732	-1.61	-65.03	-2.03	0.3176	0.1339	-0.4344	
-0.907558	0.009272	0.440786	-1.54	-64.75	-3.08	0.3053	0.1327	-0.4327	
-0.88877	0.014396	0.44347	-2.66	-65.66	-4.69	0.302	0.1458	-0.444	
-0.826062	-0.001586	0.537166	-4.2	-67.9	-5.88	0.2884	0.1377	-0.4468	
-0.827526	-0.023912	0.642086	-0.35	-64.4	-3.99	0.2808	0.1355	-0.4607	
-0.88816	-0.01159	0.62342	-7.49	-55.72	-4.48	0.27	0.14	-0.4592	
-0.856196	-0.008296	0.604144	-13.09	-52.08	-6.65	0.2578	0.1377	-0.47	
-0.760548	-0.018056	0.600606	-11.2	-53.76	-5.11	0.2546	0.1405	-0.4654	
-0.701622	-0.029768	0.625494	-9.24	-51.52	-3.92	0.2362	0.1428	-0.4794	
-0.718824	-0.041602	0.626958	-5.6	-45.5	-3.99	0.2314	0.1485	-0.4764	
-0.757986	-0.035258	0.630862	-8.33	-42.21	-3.92	0.2268	0.147	-0.4717	
-0.724192	-0.05063	0.635132	-6.79	-41.51	-4.41	0.2148	0.1391	-0.4823	
-0.689056	-0.056608	0.615368	-7.56	-41.37	-5.25	0.2099	0.1505	-0.4795	
-0.677588	-0.047946	0.637206	-11.48	-41.44	-5.53	0.2065	0.165	-0.4892	
-0.659532	-0.053558	0.657946	-10.36	-42.42	-6.16	0.2055	0.1467	-0.4918	
-0.65514	-0.05734	0.675758	-8.05	-43.33	-6.58	0.1853	0.1543	-0.4935	
-0.666608	-0.06466	0.68442	-2.87	-44.52	-5.74	0.1837	0.1542	-0.4873	
-0.67771	-0.065148	0.699182	-3.43	-46.76	-5.46	0.1682	0.1633	-0.4968	
-0.649528	-0.062098	0.724314	-5.25	-48.93	-5.81	0.159	0.162	-0.492	
-0.626104	-0.060756	0.746884	-0.56	-50.05	-6.16	0.1606	0.1593	-0.4982	
-0.622688	-0.053558	0.771162	-0.49	-49.56	-7.28	0.153	0.1582	-0.5028	
-0.628178	-0.049044	0.778604	-1.33	-48.51	-7.77	0.1468	0.1613	-0.5075	
-0.626958	-0.061122	0.806908	0.63	-47.74	-5.39	0.142	0.1671	-0.5077	
-0.582306	-0.064172	0.820084	1.75	-46.34	-5.04	0.1223	0.1605	-0.5074	
-0.549976	-0.063684	0.826916	0	-43.26	-5.11	0.1193	0.158	-0.5182	
-0.539118	-0.061366	0.842898	0.77	-38.5	-4.34	0.1116	0.1564	-0.501	
-0.518256	-0.070516	0.854366	0.7	-34.44	-2.8	0.1085	0.1594	-0.5057	
-0.509716	-0.069906	0.865956	2.03	-29.61	-0.7	0.1007	0.1608	-0.4995	
-0.49837	-0.07442	0.870592	3.36	-25.06	0.7	0.0993	0.1568	-0.5056	
-0.493124	-0.08784	0.862906	5.46	-21.91	1.96	0.0915	0.1612	-0.5057	
-0.491782	-0.086742	0.875838	0.98	-20.44	4.97	0.08549999	0.1558	-0.5086	
-0.48861	-0.074664	0.897554	-1.05	-17.78	8.33	0.0792	0.1645	-0.5119	
-0.47519	-0.069296	0.918172	-2.17	-14.7	8.82	0.08419999	0.1488	-0.5099	
-0.461526	-0.07198	0.931348	-0.35	-10.99	7.49	0.0856	0.1544	-0.5101	
-0.45689	-0.084546	0.942572	1.33	-7.49	5.32	0.0717	0.1576	-0.5086	
-0.457866	-0.089914	0.956724	1.4	-3.29	4.48	0.0778	0.1591	-0.5196	
-0.440542	-0.083936	0.970022	0.84	1.05	3.5	0.08109999	0.1488	-0.5084	
-0.421754	-0.074542	0.974048	0.84	7.28	2.1	0.0703	0.155	-0.5163	
-0.414922	-0.069418	0.96441	2.45	14.77	0.77	0.0779	0.156	-0.5086	
-0.419802	-0.06893	0.95465	4.41	21.14	0.14	0.0888	0.1502	-0.5131	
-0.42456	-0.07515199	0.953308	7	26.74	-0.91	0.0993	0.1569	-0.5103	
-0.417118	-0.079178	0.944768	5.25	33.67	0.28	0.0824	0.1603	-0.5165	
-0.42822	-0.068686	0.924882	7	40.67	-0.49	0.095	0.1456	-0.5068	
-0.450424	-0.056242	0.899628	5.39	47.32	-1.33	0.1027	0.1453	-0.5037	
-0.466772	-0.045384	0.879132	6.09	53.06	-1.75	0.1195	0.1507	-0.5086	
-0.486658	-0.055876	0.855342	8.4	59.08	-1.75	0.1241	0.1492	-0.5102	
-0.507886	-0.051728	0.81862	8.05	64.47	-0.98	0.1363	0.15	-0.4993	
-0.543144	-0.037332	0.772992	6.86	69.86	0.91	0.1486	0.1498	-0.5025	
-0.59475	-0.022448	0.747128	6.16	72.87	2.94	0.1533	0.1452	-0.4931	
-0.649894	-0.010126	0.71919	5.18	73.64	6.93	0.1775	0.1574	-0.4951	
-0.702964	0.00427	0.699182	3.64	74.34	9.38	0.1808	0.1519	-0.5043	
-0.733708	0.00915	0.668072	5.95	73.36	9.17	0.1948	0.1456	-0.4948	
-0.748836	0.007686	0.641598	4.55	71.61	11.2	0.2056	0.1424	-0.4886	
-0.757986	0.009393999	0.601216	4.9	70.21	10.36	0.2146	0.1492	-0.4873	
-0.754936	0.010004	0.569496	1.47	67.13	11.83	0.2331	0.1443	-0.4794	
-0.777628	0.007808	0.554246	0.91	65.03	12.32	0.2451	0.1554	-0.4829	
-0.819474	0.008174	0.526186	0.35	65.8	12.53	0.2544	0.1507	-0.475	
-0.845704	0.008905999	0.50203	0.42	64.19	11.76	0.2686	0.1344	-0.4606	
-0.86315	0.004392	0.481656	1.75	61.04	10.57	0.2718	0.1286	-0.4589	
-0.87352	0.002074	0.461282	3.36	58.87	8.89	0.287	0.1324	-0.456	
-0.882548	0.001098	0.461282	4.13	56.49	8.75	0.2827	0.124	-0.4557	
-0.892674	0.002928	0.438468	3.64	55.3	7.63	0.2962	0.1316	-0.4373	
-0.897066	0.014884	0.429196	2.94	52.5	6.79	0.3026	0.1219	-0.448	
-0.916708	0.009638	0.403454	3.78	52.22	6.16	0.3119	0.1201	-0.4433	
-0.93452	0.006588	0.381494	6.44	50.82	4.2	0.3284	0.1308	-0.4375	
-0.92659	0.00976	0.381128	7.14	48.65	2.45	0.318	0.1197	-0.434	
-0.911828	0.014518	0.383202	8.05	46.41	0.84	0.3409	0.1217	-0.4263	
-0.924028	0.020618	0.367952	7.49	48.79	0.35	0.347	0.1211	-0.4092	
-0.931836	0.02562	0.351604	7.49	50.75	-0.7	0.3484	0.1284	-0.4172	
-0.935252	0.023302	0.33367	9.73	51.8	-2.17	0.3746	0.1233	-0.4125	
-0.935252	0.02623	0.325618	7.49	50.75	-1.47	0.3761	0.1216	-0.4016	
-0.940864	0.027938	0.329522	5.04	49.98	-2.03	0.3761	0.1183	-0.3828	
-0.956602	0.040016	0.293044	7.7	52.15	-1.82	0.3915	0.1165	-0.3844	
-0.969656	0.047702	0.271084	5.81	51.31	0.07	0.3869	0.1152	-0.3843	
-0.958066	0.043676	0.266204	7.49	48.23	0	0.3901	0.1106	-0.3733	
-0.971608	0.037088	0.249246	9.8	48.44	0.14	0.4099	0.1156	-0.3673	
-0.988078	0.045872	0.223504	6.37	47.46	0.98	0.4148	0.1041	-0.367	
-1.000156	0.042456	0.201544	7.98	45.57	0.98	0.4207	0.1079	-0.3547	
-1.006988	0.036356	0.19093	10.01	42.49	2.52	0.416	0.1138	-0.358	
-0.999546	0.03355	0.186538	11.06	39.41	3.01	0.4282	0.1164	-0.3628	
-0.981368	0.03355	0.191662	11.55	36.96	1.82	0.4301	0.1001	-0.3374	
-0.986614	0.033428	0.18056	10.5	39.06	1.61	0.436	0.1099	-0.3377	
-0.97478	0.027938	0.17141	10.92	38.15	1.12	0.4484	0.1025	-0.336	
-0.976732	0.025864	0.161528	9.94	39.83	1.19	0.4361	0.1024	-0.3219	
-0.990518	0.028182	0.142618	10.01	42.21	1.33	0.4513	0.1092	-0.3253	
-0.987346	0.038186	0.135054	9.59	41.09	-0.07	0.4497	0.1058	-0.3018	
-0.981002	0.041236	0.121146	10.22	40.53	-0.07	0.459	0.106	-0.319	
-0.973926	0.040626	0.119316	10.15	41.72	0.49	0.4557	0.1127	-0.3036	
-0.975756	0.043798	0.11651	10.57	43.54	-1.61	0.4532	0.0902	-0.3045	
-0.99308	0.04941	0.113094	6.44	48.93	-1.54	0.4746	0.09209999	-0.2891	
-0.994422	0.04087	0.072712	1.61	49.84	0.42	0.476	0.09779999	-0.2939	
-1.006012	0.037454	0.052826	16.66	49.35	1.89	0.4759	0.0971	-0.269	
-0.999546	0.030012	0.055388	5.53	47.32	-1.33	0.4911	0.101	-0.2692	
-0.98515	0.02806	0.021228	16.66	48.58	-0.7	0.4957	0.0992	-0.2582	
-0.99552	0.028914	-0.015982	11.34	49.21	-4.27	0.4882	0.09559999	-0.2768	
-1.008818	0.049044	-0.045872	10.01	53.27	-3.01	0.4837	0.0895	-0.2563	
-1.014552	0.05734	-0.080276	9.94	52.43	-3.29	0.4958	0.0961	-0.2488	
-1.00345	0.037942	-0.101626	8.89	51.73	-4.69	0.4986	0.1014	-0.2381	
-0.991982	0.033428	-0.13054	13.16	51.1	-5.46	0.5018	0.0954	-0.227	
-1.009672	0.048068	-0.162016	5.46	52.71	-6.65	0.5065	0.0878	-0.2128	
-1.001864	0.037088	-0.198494	6.16	53.13	-7.42	0.5126	0.0919	-0.2114	
-1.017968	0.0305	-0.219234	8.61	52.78	-6.3	0.5184	0.1043	-0.2071	
-1.037366	0.008052	-0.24583	5.25	51.87	-8.19	0.5089	0.1083	-0.1869	
-1.0187	-0.000732	-0.245464	10.99	45.5	-11.48	0.5199	0.101	-0.1883	
-0.99064	-0.0122	-0.23607	8.89	42.21	-12.81	0.5248	0.0881	-0.188	
-0.976976	0.017202	-0.25498	8.96	45.57	-14.07	0.5232	0.0905	-0.1725	
-1.015406	0.044652	-0.28792	9.17	43.96	-13.86	0.5288	0.1101	-0.17	
-1.024434	0.033306	-0.293288	9.87	36.19	-10.43	0.5228	0.1001	-0.1603	
-0.97356	-0.001464	-0.281942	4.06	30.31	-12.88	0.5365	0.1053	-0.1558	
-1.005158	0.001708	-0.310002	7.35	36.4	-17.99	0.5319	0.1053	-0.1496	
-1.011258	-0.008296	-0.341966	-7.49	34.23	-6.3	0.5226	0.1083	-0.1481	
-1.00894	0.014274	-0.344162	-7.21	24.64	-8.89	0.5409	0.1089	-0.1342	
-1.0553	0.01281	-0.359778	-9.52	25.34	-4.27	0.5303	0.1034	-0.1308	
-1.037366	-0.00671	-0.358192	-11.13	13.58	-3.08	0.5252	0.1204	-0.1282	
-0.997594	-0.005978	-0.36356	-12.25	8.61	-2.52	0.5332	0.1075	-0.1278	
-0.986614	-0.003904	-0.363682	-14.42	5.46	0.07	0.5314	0.1159	-0.125	
-0.988078	-0.006832	-0.367708	-13.44	3.5	1.68	0.5316	0.1087	-0.1185	
-0.997716	-0.011712	-0.37027	-11.83	1.96	0.63	0.5391	0.1171	-0.1219	
-0.991128	-0.017446	-0.366732	-10.99	-1.82	0.14	0.53	0.1132	-0.1264	
-0.97478	-0.009881999	-0.368684	-10.92	-4.62	0.49	0.5392	0.1114	-0.1202	
-0.969656	-0.000488	-0.358314	-12.11	-4.76	0.63	0.5346	0.1131	-0.1265	
-0.97783	0.01037	-0.353068	-10.57	-3.71	-0.63	0.5301	0.1104	-0.1279	
-0.981612	0.024888	-0.346846	-6.86	-5.32	-0.21	0.5376	0.1161	-0.1359	
-0.975878	0.031964	-0.352824	-3.29	-9.59	3.85	0.5269	0.1146	-0.1218	
-0.973194	0.033794	-0.366976	-2.45	-11.9	7.77	0.5268	0.1176	-0.1281	
-0.984296	0.028792	-0.35441	-9.52	-12.18	9.31	0.5314	0.1206	-0.1407	
-1.005158	0.036234	-0.363682	-8.19	-12.74	8.47	0.5361	0.1147	-0.1359	
-1.012966	0.031476	-0.359046	-9.73	-17.85	9.45	0.5377	0.1149	-0.1437	
-1.01077	0.029402	-0.354044	-9.38	-21.84	9.1	0.5471	0.1072	-0.131	
-1.013942	0.037942	-0.350994	-11.97	-23.59	8.68	0.5285	0.1154	-0.1545	
-1.021994	0.030256	-0.341356	-10.15	-25.27	8.68	0.5365	0.1051	-0.148	
-1.013332	0.02806	-0.328058	-8.26	-29.68	8.26	0.5287	0.1066	-0.1434	
-1.015528	0.024888	-0.312808	-9.45	-30.66	7.91	0.5273	0.1025	-0.1464	
-1.026386	0.016714	-0.297314	-8.47	-33.67	7.07	0.5179	0.1117	-0.1653	
-1.016626	0.01891	-0.268156	-6.44	-36.47	5.11	0.5243	0.1015	-0.1619	
-1.026142	0.035258	-0.257298	-7.14	-37.94	4.06	0.5242	0.1074	-0.1683	
-1.002474	0.04026	-0.239852	-7.28	-40.25	3.99	0.5213	0.1048	-0.176	
-0.998326	0.034282	-0.205936	-4.76	-41.65	1.61	0.5228	0.1068	-0.1979	
-1.015162	0.025132	-0.186904	-4.83	-40.88	0.21	0.5155	0.09559999	-0.1959	
-1.009062	0.017202	-0.163114	-1.75	-43.54	-1.33	0.5152	0.1057	-0.204	
-1.002108	0.024522	-0.144692	-0.56	-42.77	-2.17	0.5091	0.1074	-0.2087	
-1.020896	0.033794	-0.129808	0.21	-41.79	-2.1	0.5105	0.1101	-0.2041	
-1.015162	0.030256	-0.088572	1.61	-45.57	-1.54	0.4999	0.1066	-0.2211	
-0.995032	0.018788	-0.036844	3.92	-47.39	-0.77	0.4969	0.1085	-0.2383	
-0.92598	0.01769	0.028426	5.88	-51.73	-1.61	0.4922	0.1098	-0.2289	
-0.92659	0.04148	0.031598	4.83	-43.19	-3.57	0.4909	0.106	-0.2444	
-0.95282	0.059536	0.03782	-2.94	-30.94	-2.31	0.497	0.1075	-0.2523	
-0.962702	0.0488	0.038308	-5.04	-23.87	0.21	0.5016	0.1088	-0.2523	
-0.967948	0.035136	0.026474	-6.72	-19.81	1.68	0.4972	0.1035	-0.2631	
-0.995886	0.04758	0.008905999	-8.12	-18.13	2.03	0.4894	0.1079	-0.2616	
-1.00101	0.054778	-0.001342	-9.94	-18.69	2.94	0.4892	0.1136	-0.2633	
-1.026142	0.039406	0.003538	-10.78	-17.22	2.94	0.4939	0.1092	-0.2617	
-1.024068	0.023302	0.013664	-7.7	-17.15	2.38	0.4817	0.1068	-0.2646	
-1.021872	0.025864	0.015372	-4.97	-16.8	0.77	0.4786	0.1097	-0.2631	
-1.011502	0.041846	0.00549	-3.85	-18.2	-0.35	0.4848	0.1083	-0.2694	
-1.028826	0.03111	-0.001342	-2.24	-18.13	-0.28	0.4817	0.1068	-0.2662	
-1.031022	0.021228	0.004514	-0.7	-19.04	1.26	0.4863	0.1083	-0.2725	
-1.01321	0.024278	0.016592	1.26	-20.02	0.56	0.485	0.1028	-0.2785	
-1.00589	0.034038	0.021472	0.91	-19.25	-0.07	0.4789	0.1014	-0.2738	
-1.019432	0.032818	0.01769	0.21	-20.44	-0.14	0.4818	0.1087	-0.2834	
-1.033584	0.038552	0.024766	5.74	-25.83	-1.4	0.4772	0.1089	-0.2849	
-1.024556	0.042822	0.03904	6.44	-28.49	-4.27	0.4677	0.1176	-0.2867	
-1.020408	0.033062	0.037698	7.63	-30.1	-3.85	0.4649	0.1094	-0.2942	
-1.039562	0.037698	0.048922	9.66	-31.92	-5.32	0.4726	0.1109	-0.3036	
-1.024678	0.039528	0.06649	6.23	-35	-4.2	0.4541	0.1126	-0.2974	
-1.024556	0.041236	0.077836	3.08	-36.47	-3.5	0.4496	0.1116	-0.3082	
-1.016138	0.042334	0.101382	2.1	-40.74	-3.43	0.4604	0.1086	-0.3113	
-1.025898	0.026352	0.10919	-2.8	-41.44	-4.48	0.4481	0.1106	-0.3238	
-1.022482	0.012566	0.117974	-7.28	-42.56	-5.18	0.4514	0.1048	-0.3221	
-1.019188	0.013176	0.128222	-8.54	-43.05	-4.97	0.4328	0.1126	-0.33	
-1.009794	0.034282	0.141276	-8.89	-42.56	-6.02	0.4312	0.1143	-0.3378	
-1.004792	0.038308	0.163114	-10.71	-45.36	-1.96	0.4205	0.116	-0.3409	
-0.997716	0.036722	0.172264	-8.26	-48.3	-1.75	0.4284	0.109	-0.3485	
-0.980514	0.037454	0.183854	-10.71	-48.09	-1.05	0.4202	0.1277	-0.3537	
-0.989786	0.017934	0.213256	-11.83	-51.87	-0.63	0.4126	0.1251	-0.3552	
-0.988322	0.024644	0.228384	-11.2	-55.79	-1.68	0.4127	0.1223	-0.3566	
-0.975878	0.030012	0.257908	-12.46	-59.08	-3.5	0.3958	0.1246	-0.3738	
-0.96685	0.0305	0.276818	-10.57	-61.25	-3.85	0.3852	0.1207	-0.3751	
-0.951356	0.023424	0.28121	-9.8	-61.18	-2.59	0.3836	0.1239	-0.3877	
-0.962092	0.008296	0.30439	-8.26	-59.29	-2.45	0.3744	0.1258	-0.3986	
-0.968192	0.02196	0.320006	-9.87	-61.39	-4.06	0.365	0.1315	-0.3909	
-0.963068	0.019642	0.334646	-11.13	-68.11	-7.07	0.3528	0.1307	-0.4018	
-0.947086	-0.004148	0.33916	-2.73	-71.12	-5.81	0.3438	0.1257	-0.4171	
-0.93696	-0.050508	0.357948	8.68	-75.25	-1.61	0.3299	0.129	-0.4234	
-0.907924	-0.05673	0.38491	16.52	-80.08	-3.85	0.3267	0.1349	-0.4298	
-0.880108	-0.036722	0.474824	18.48	-87.22	-6.58	0.3285	0.1296	-0.4452	
-0.886696	-0.00732	0.55632	17.01	-88.41	-17.64	0.3025	0.1257	-0.4341	
-0.780434	0.023058	0.563396	17.99	-78.4	-23.38	0.2918	0.1265	-0.4527	
-0.78812	0.021106	0.536068	7.84	-86.24	-14.7	0.284	0.1296	-0.4559	
-0.791048	-0.001098	0.543876	7.7	-79.73	-16.1	0.2578	0.1375	-0.4622	
-0.749812	0.005124	0.569252	1.75	-74.34	-16.38	0.2425	0.1353	-0.4699	
-0.724192	0.00732	0.5917	1.89	-70.14	-20.58	0.2488	0.1326	-0.4807	
-0.703208	0.002806	0.62037	-0.56	-70.35	-19.88	0.2287	0.1372	-0.4745	
-0.74481	-0.014884	0.635986	-3.36	-64.54	-13.79	0.2211	0.1363	-0.4885	
-0.777872	-0.010736	0.62037	-3.99	-68.04	-12.67	0.2087	0.1425	-0.4979	
-0.752008	-0.00976	0.614026	-2.17	-70.98	-9.87	0.2045	0.1256	-0.4959	
-0.731268	-0.017568	0.609634	0.14	-75.18	-6.93	0.1843	0.1361	-0.4976	
-0.72163	-0.040138	0.631594	4.34	-80.01	-8.61	0.1673	0.1394	-0.5023	
-0.693814	-0.066246	0.670512	7.42	-83.51	-11.41	0.1504	0.1414	-0.5054	
-0.679906	-0.075396	0.702598	9.17	-80.15	-10.92	0.1443	0.1385	-0.499	
-0.637694	-0.068686	0.726754	10.08	-73.85	-14.21	0.1263	0.1251	-0.5095	
-0.621834	-0.05246	0.747616	5.74	-71.4	-17.5	0.117	0.1329	-0.5283	
-0.56608	-0.038186	0.77043	-0.49	-69.02	-16.59	0.1046	0.1343	-0.5143	
-0.518622	-0.042334	0.799954	-5.04	-65.17	-14.28	0.0878	0.1307	-0.525	
-0.493246	-0.044652	0.809226	-5.32	-61.11	-10.78	0.0739	0.1322	-0.5156	
-0.460794	-0.03965	0.836676	-6.93	-58.24	-6.93	0.0476	0.1428	-0.5174	
-0.427122	-0.046238	0.87474	-4.41	-52.64	-5.46	0.0523	0.137	-0.5157	
-0.39772	-0.065758	0.929274	-1.61	-48.02	-3.08	0.0403	0.1275	-0.52	
-0.388448	-0.072712	0.931958	0.7	-43.4	-1.61	0.0354	0.142	-0.5266	
-0.39284	-0.059292	0.925248	-5.67	-41.09	0.07	0.0265	0.1295	-0.5262	
-0.36234	-0.062586	0.941352	-2.59	-40.04	-0.28	0.0155	0.1366	-0.5186	
-0.344894	-0.095282	0.961604	2.94	-37.59	0.49	0.0108	0.141	-0.5202	
-0.340624	-0.097844	0.966972	2.1	-35.56	0.63	0.0089	0.1507	-0.5096	
-0.314882	-0.086376	0.967216	2.31	-34.23	1.96	-0.0028	0.1326	-0.509	
-0.29402	-0.092354	0.968558	4.41	-31.85	1.33	-0.0105	0.1371	-0.5138	
-0.262178	-0.08601	0.975024	6.02	-28.42	1.61	-0.0088	0.1299	-0.5089	
-0.235094	-0.083326	0.989176	6.65	-23.87	1.68	-0.0137	0.1401	-0.5154	
-0.206912	-0.084302	0.988322	7.21	-17.5	1.05	-0.0135	0.1345	-0.5184	
-0.199592	-0.078934	0.997106	9.38	-10.08	0.07	-0.0136	0.1387	-0.5154	
-0.210572	-0.078324	1.01687	-4.69	-3.22	0.56	-0.0256	0.1263	-0.5181	
-0.216916	-0.076128	1.0309	-5.39	2.8	1.96	-0.0351	0.1378	-0.5152	
-0.230458	-0.07198	1.043466	-1.96	6.65	2.38	-0.0133	0.1289	-0.5229	
-0.243146	-0.070638	1.047126	0.28	11.69	3.08	-0.0227	0.1347	-0.5183	
-0.25559	-0.06649	1.053958	-0.21	15.54	3.43	-0.0198	0.1417	-0.5186	
-0.2745	-0.057096	1.042124	-1.89	19.95	2.66	-0.0092	0.1443	-0.5187	
-0.2745	-0.064172	1.032608	-3.15	24.36	2.52	-0.0121	0.1371	-0.5107	
-0.27145	-0.0671	1.018456	-1.05	28.7	2.17	-0.0137	0.1413	-0.5092	
-0.27023	-0.06466	1.006012	-2.45	33.74	2.52	-0.0027	0.1328	-0.5184	
-0.269376	-0.05856	0.991006	-3.15	38.5	2.31	0.0096	0.1281	-0.5136	
-0.269742	-0.058804	0.972096	-3.01	45.01	5.88	0.0185	0.1392	-0.514	
-0.293776	-0.062342	0.951234	-1.05	50.19	5.25	0.0277	0.1405	-0.5172	
-0.316956	-0.064294	0.9272	-1.12	55.44	5.18	0.0386	0.1344	-0.5108	
-0.344406	-0.061	0.91195	-1.12	60.83	7.42	0.0401	0.136	-0.5187	
-0.38003	-0.060512	0.890844	-1.96	64.68	9.1	0.0508	0.1385	-0.5173	
-0.416508	-0.05673	0.871202	1.19	68.74	9.1	0.0585	0.1368	-0.5141	
-0.444202	-0.058926	0.85217	4.69	72.31	9.31	0.0722	0.1407	-0.5143	
-0.466284	-0.061488	0.81557	0.07	74.2	7.49	0.0922	0.1358	-0.5065	
-0.471286	-0.055754	0.794586	0.35	77.91	8.89	0.1092	0.134	-0.5081	
-0.49105	-0.060024	0.77043	4.76	82.25	10.43	0.1166	0.1439	-0.5162	
-0.544608	-0.058438	0.75213	-0.28	88.62	9.94	0.1214	0.1352	-0.5144	
-0.577548	-0.049898	0.748836	-1.68	89.46	8.61	0.1507	0.1301	-0.5066	
-0.642086	-0.024644	0.728706	-7.49	93.24	16.38	0.1583	0.1296	-0.4957	
-0.690886	0.007442	0.67039	-7	91.07	19.88	0.1904	0.1343	-0.4898	
-0.72895	0.015616	0.631838	-5.74	92.61	21.56	0.207	0.142	-0.4777	
-0.770674	0.024034	0.594018	-3.01	91.84	19.32	0.2287	0.1372	-0.4776	
-0.778726	0.0305	0.559736	-0.49	86.38	17.5	0.235	0.1301	-0.4821	
-0.800686	0.041846	0.525942	1.82	81.62	18.34	0.2472	0.1355	-0.4823	
-0.850218	0.051118	0.487268	3.85	77.91	18.9	0.2564	0.1304	-0.4604	
-0.900848	0.059414	0.456524	4.9	75.46	22.47	0.2887	0.1284	-0.4668	
-0.909632	0.063562	0.439688	6.23	71.61	22.19	0.2887	0.1263	-0.4433	
-0.91683	0.066368	0.429928	7.49	68.32	18.69	0.3043	0.1162	-0.4509	
-0.943182	0.07124799	0.40321	5.39	67.69	19.53	0.3039	0.1304	-0.4498	
-0.951722	0.073322	0.388692	2.31	64.75	18.27	0.3242	0.1181	-0.4355	
-0.951966	0.073444	0.37515	5.39	56.91	14.98	0.3349	0.1192	-0.4309	
-0.934642	0.079544	0.365878	4.48	51.66	10.43	0.3225	0.1177	-0.4168	
-0.936594	0.084912	0.35441	3.08	48.51	6.51	0.3504	0.1102	-0.4276	
-0.953674	0.083936	0.327082	1.75	47.81	3.99	0.335	0.1105	-0.4229	
-0.958676	0.080398	0.30927	-2.17	45.22	1.75	0.3657	0.1095	-0.4152	
-0.959652	0.067954	0.300852	-0.28	42.91	5.04	0.3534	0.1109	-0.4027	
-0.958188	0.044164	0.295972	3.15	41.65	6.51	0.3686	0.1165	-0.4154	
-0.95282	0.01891	0.291824	9.87	42.14	4.62	0.3766	0.1002	-0.3963	
-0.958676	0.007198	0.278892	10.5	45.08	5.46	0.3809	0.1111	-0.3842	
-0.955626	0.002562	0.276452	11.06	47.25	5.74	0.3827	0.1044	-0.398	
-0.954528	-0.006222	0.263276	9.45	52.92	2.38	0.3905	0.0982	-0.3885	
-0.97356	0.001464	0.25437	9.45	60.55	3.22	0.3947	0.1075	-0.3686	
-0.991006	0.01525	0.231556	5.11	55.72	2.31	0.4086	0.1061	-0.3811	
-0.980148	0.031964	0.19825	7	51.1	3.08	0.404	0.1029	-0.3654	
-0.99857	0.040748	0.185806	5.25	50.54	4.34	0.415	0.0942	-0.3667	
-1.000644	0.048678	0.180804	9.66	47.32	1.75	0.4255	0.1021	-0.3545	
-0.993202	0.05917	0.180072	9.8	45.22	-1.68	0.4286	0.0991	-0.3498	
-1.004304	0.06771	0.171654	8.33	44.17	-0.91	0.4301	0.0989	-0.3436	
-1.002108	0.06954	0.162504	7.98	41.16	-1.19	0.4319	0.09	-0.3324	
-0.99735	0.061854	0.160918	14.49	38.29	-2.73	0.4424	0.0982	-0.328	
-0.999424	0.05368	0.142618	13.65	38.5	-3.08	0.4486	0.0937	-0.3264	
-1.000888	0.04575	0.141398	10.71	39.34	-2.17	0.4516	0.0964	-0.3234	
-0.996252	0.04453	0.129076	8.26	37.94	-2.03	0.4548	0.0905	-0.317	
-0.998204	0.061366	0.11834	5.81	40.18	-1.19	0.4623	0.0958	-0.3109	
-0.999424	0.063684	0.11529	3.64	40.6	-1.54	0.4624	0.09299999	-0.314	
-0.973804	0.053924	0.117852	11.41	39.27	-3.01	0.4655	0.0898	-0.3014	
-0.970632	0.065392	0.096624	14	43.68	-1.89	0.4653	0.09519999	-0.2907	
-0.971608	0.065514	0.07015	7.21	46.41	-3.71	0.4701	0.0894	-0.2905	
-0.984174	0.037332	0.051606	9.52	46.9	-0.35	0.4824	0.0859	-0.2765	
-1.004792	0.027816	0.009516	13.16	48.44	-0.84	0.4764	0.0787	-0.2684	
-1.02297	0.02989	-0.018178	12.6	46.48	-0.91	0.4914	0.0909	-0.2627	
-1.017968	0.033062	-0.036722	13.09	40.04	-1.96	0.4883	0.0924	-0.2627	
-0.994178	0.023546	-0.037576	12.74	37.59	-3.43	0.493	0.0851	-0.2563	
-0.999912	0.030012	-0.04453	12.25	38.99	-3.08	0.4929	0.0876	-0.2439	
-0.989542	0.033916	-0.054412	10.92	39.48	-4.27	0.4994	0.07449999	-0.2373	
-1.00284	0.054168	-0.083082	6.58	43.75	-3.43	0.4885	0.0788	-0.2311	
-1.002474	0.066368	-0.105042	4.2	43.33	-2.45	0.5067	0.0856	-0.2361	
-0.996496	0.072712	-0.137494	2.94	44.38	0.42	0.5082	0.0837	-0.2189	
-0.998692	0.068442	-0.164944	2.38	44.17	1.96	0.5175	0.0802	-0.2048	
-1.016504	0.082716	-0.18239	-2.24	45.43	2.8	0.5222	0.0759	-0.2047	
-0.997716	0.094184	-0.210816	-4.76	42.84	2.24	0.5204	0.08419999	-0.1987	
-0.998814	0.097966	-0.228628	-8.54	41.09	2.87	0.5173	0.0856	-0.1957	
-1.01138	0.118828	-0.266692	-9.66	42.21	6.16	0.5282	0.0782	-0.1908	
-1.04066	0.120292	-0.27572	-14.07	39.41	9.73	0.5219	0.081	-0.1862	
-1.005768	0.082716	-0.280234	-3.99	32.48	11.55	0.5202	0.0867	-0.1832	
-1.018944	0.070638	-0.304634	-1.47	33.04	12.11	0.525	0.0805	-0.1706	
-1.012234	0.084546	-0.303048	-3.01	30.73	9.1	0.5326	0.0801	-0.1613	
-1.010038	0.10614	-0.301096	-3.22	27.16	7.98	0.5417	0.0826	-0.1583	
-0.999912	0.10797	-0.316346	-2.45	22.75	6.09	0.5387	0.07979999	-0.1551	
-1.018212	0.11102	-0.32513	-2.94	20.51	5.53	0.5282	0.07009999	-0.1532	
-1.014186	0.099796	-0.327448	-3.85	15.4	5.46	0.5372	0.0769	-0.1519	
-1.006866	0.102114	-0.321714	-3.78	10.64	4.2	0.5327	0.0724	-0.1377	
-0.994422	0.103578	-0.322324	-5.39	8.33	1.68	0.5327	0.0755	-0.1487	
-1.001132	0.105774	-0.326594	-4.2	6.23	1.47	0.5326	0.0753	-0.1425	
-1.010404	0.099552	-0.330254	-2.52	2.8	2.59	0.531	0.0765	-0.1316	
-0.998326	0.102846	-0.324154	-0.91	-0.84	2.31	0.539	0.0685	-0.1563	
-0.987346	0.094306	-0.325374	-4.27	-1.26	-0.21	0.5343	0.07099999	-0.1408	
-1.000766	0.091134	-0.327204	-5.39	-0.14	-0.91	0.5434	0.0721	-0.1362	
-1.01748	0.0793	-0.344894	-8.05	-0.91	-4.13	0.5298	0.0655	-0.1406	
-1.024922	0.073566	-0.334646	-3.99	-2.45	-8.33	0.5265	0.0756	-0.1456	
-1.046638	0.094428	-0.371978	-21.49	-2.66	-17.92	0.5371	0.0809	-0.1411	
-1.012722	0.0854	-0.350994	-20.86	-11.97	-17.01	0.5353	0.0894	-0.1398	
-0.978684	0.07503	-0.348432	14.77	-15.82	-21.35	0.54	0.088	-0.1476	
-0.98759	0.09455	-0.293532	-5.53	-17.22	-13.51	0.5307	0.091	-0.1445	
-1.033096	0.091866	-0.31476	-12.81	-14.56	-12.25	0.5306	0.0953	-0.1462	
-0.992836	0.08235	-0.321714	-15.12	-26.74	-12.81	0.5291	0.09559999	-0.1539	
-0.970632	0.095892	-0.298046	-3.36	-27.09	-13.44	0.5215	0.0917	-0.1616	
-0.982832	0.102358	-0.291092	3.15	-25.97	-6.93	0.526	0.0988	-0.1665	
-1.004548	0.090036	-0.28609	-6.72	-23.66	-5.67	0.5293	0.0902	-0.1663	
-1.014674	0.068808	-0.28304	4.83	-27.51	-6.09	0.5276	0.0962	-0.1773	
-1.015162	0.062708	-0.259616	6.16	-33.18	-5.67	0.5277	0.0949	-0.1804	
-1.000034	0.064782	-0.250344	4.13	-35.14	-6.37	0.5213	0.1021	-0.179	
-1.02175	0.064904	-0.254126	1.89	-36.96	-6.79	0.5291	0.1021	-0.1884	
-1.031022	0.053436	-0.252296	-2.03	-39.69	-5.32	0.5277	0.098	-0.1914	
-1.036024	0.065026	-0.237778	-2.03	-43.05	-6.72	0.5106	0.1057	-0.1993	
-1.03029	0.056486	-0.215696	-1.4	-46.27	-6.72	0.5202	0.0931	-0.2115	
-1.036756	0.048678	-0.19337	0.35	-49.14	-4.34	0.5062	0.1023	-0.2241	
-1.04005	0.043676	-0.166408	0.49	-52.78	-2.73	0.5078	0.1008	-0.2256	
-1.029314	0.041968	-0.13542	0.7	-57.54	-2.73	0.503	0.1064	-0.218	
-1.027728	0.035258	-0.11407	-0.42	-60.83	-3.78	0.5016	0.1058	-0.246	
-1.012844	0.036844	-0.084912	-4.34	-63.98	-2.24	0.4925	0.1049	-0.2568	
-1.02541	0.029036	-0.057828	-6.3	-62.79	-2.31	0.4939	0.1121	-0.2633	
-1.023214	0.027938	-0.029036	-3.29	-65.17	-0.14	0.482	0.0984	-0.2675	
-1.00223	0.037088	0.023668	-2.1	-70.42	0.35	0.4819	0.106	-0.2864	
-0.959652	0.041724	0.098332	-4.06	-74.34	-3.92	0.4787	0.1119	-0.2928	
-0.928176	0.011224	0.16836	-7.91	-68.04	-4.69	0.4668	0.0983	-0.3048	
-0.892308	0.010492	0.21289	-3.08	-62.72	-5.95	0.4587	0.1156	-0.3068	
-0.891698	0.002928	0.234362	-0.98	-52.01	-1.54	0.4619	0.1114	-0.3114	
-0.902434	0.002684	0.238144	-2.17	-42.91	-1.96	0.4542	0.1134	-0.3254	
-0.923662	0.011102	0.230214	-3.36	-31.78	0.7	0.4466	0.1154	-0.341	
-0.956236	0.026596	0.221064	-1.33	-26.53	1.19	0.4392	0.1058	-0.3469	
-0.97173	0.012322	0.21594	-2.8	-24.85	7.21	0.4438	0.1027	-0.3391	
-0.978318	0.014152	0.212036	1.33	-25.83	7.98	0.4374	0.1127	-0.3362	
-0.983442	0.026596	0.219112	-4.69	-25.9	8.33	0.4344	0.113	-0.3456	
-0.996984	0.026718	0.201788	-5.39	-22.26	5.81	0.4328	0.116	-0.3503	
-1.00345	0.029402	0.210938	0.35	-23.38	1.75	0.4295	0.1216	-0.3458	
-0.991128	0.033794	0.22814	0.91	-25.34	2.73	0.4194	0.1008	-0.3514	
-0.991128	0.040382	0.22753	-1.61	-24.85	3.22	0.4299	0.1104	-0.3517	
-0.991616	0.033672	0.238144	-2.31	-26.04	2.17	0.4206	0.1136	-0.3564	
-0.977952	0.036478	0.242414	-5.32	-26.04	0.56	0.4178	0.1039	-0.3592	
-0.97295	0.044774	0.257908	-5.74	-24.5	-1.61	0.4114	0.1126	-0.361	
-0.96319	0.05063	0.261446	-8.4	-24.08	-2.8	0.4145	0.1127	-0.3688	
-0.96807	0.048556	0.271206	-7.98	-23.52	-2.94	0.4083	0.1172	-0.3736	
-0.960506	0.033428	0.281332	-6.65	-24.15	-5.04	0.399	0.1202	-0.3705	
-0.960262	0.03721	0.291824	-6.72	-23.45	-5.67	0.4053	0.1145	-0.3735	
-0.935252	0.038674	0.304756	-5.11	-25.48	-9.1	0.3994	0.1092	-0.3827	
-0.936838	0.046116	0.31415	-4.97	-23.45	-11.9	0.4097	0.1244	-0.38	
-0.948306	0.048068	0.313418	-7	-19.88	-13.65	0.3806	0.1225	-0.3876	
-0.951844	0.042456	0.32025	-9.1	-19.39	-17.01	0.3837	0.1195	-0.3813	
-0.946354	0.04514	0.330254	-6.51	-18.83	-16.31	0.3865	0.1293	-0.3801	
-0.947574	0.015616	0.328424	-4.62	-18.34	-17.57	0.3864	0.1365	-0.3865	
-0.947818	-0.011834	0.32208	1.12	-17.5	-18.41	0.3727	0.1311	-0.3847	
-0.959408	-0.009516	0.305122	0.35	-16.94	-16.17	0.3807	0.12	-0.4	
-0.970388	-0.015982	0.303048	2.31	-19.74	-17.5	0.3805	0.1287	-0.4049	
-0.972584	-0.014884	0.28975	3.57	-22.12	-20.37	0.3618	0.1403	-0.399	
-0.965142	-0.019032	0.297802	0.7	-25.55	-19.74	0.3664	0.1388	-0.4005	
-0.951478	-0.043066	0.318176	3.92	-29.54	-19.32	0.3677	0.1488	-0.407	
-0.95343	-0.048312	0.33672	1.61	-32.41	-15.96	0.3558	0.1365	-0.4113	
-0.951234	-0.056242	0.337574	0.56	-36.12	-11.62	0.3573	0.1378	-0.4082	
-0.955138	-0.061122	0.3477	1.19	-39.41	-8.12	0.3479	0.1453	-0.4131	
-0.937204	-0.078568	0.371734	-1.47	-42	-8.33	0.3541	0.1423	-0.4146	
-0.914634	-0.091134	0.45079	-2.66	-45.92	-6.09	0.3387	0.1472	-0.4255	
-0.913658	-0.090524	0.43066	-1.54	-45.5	-6.23	0.3341	0.1458	-0.4192	
-0.894382	-0.098088	0.420534	-5.04	-45.15	-6.44	0.3173	0.1406	-0.4221	
-0.879254	-0.094794	0.412848	-7.77	-41.37	-10.22	0.3143	0.1441	-0.444	
-0.86071	-0.07905599	0.4331	-10.15	-42	-7.28	0.3061	0.1597	-0.4366	
-0.885232	-0.077714	0.435662	-11.83	-39.62	-2.59	0.3019	0.1485	-0.4394	
-0.889136	-0.07686	0.442738	-9.1	-41.79	0.49	0.3096	0.1456	-0.444	
-0.866566	-0.091256	0.455548	-8.96	-43.68	1.96	0.2955	0.1574	-0.4474	
-0.859246	-0.09272	0.44835	-6.3	-45.15	3.15	0.2941	0.1534	-0.4535	
-0.867664	-0.100772	0.47336	-3.22	-42.77	1.61	0.2695	0.157	-0.4597	
-0.857538	-0.10309	0.488732	-0.84	-45.29	2.31	0.2649	0.1571	-0.4613	
-0.83631	-0.092842	0.523502	0.63	-47.53	2.52	0.2589	0.1516	-0.4626	
-0.814594	-0.084302	0.54168	0.07	-49.49	2.73	0.2543	0.1517	-0.4595	
-0.786778	-0.086132	0.592066	-1.68	-50.75	1.26	0.2465	0.1592	-0.469	
-0.76128	-0.082838	0.615612	-1.89	-47.53	0.77	0.2375	0.1495	-0.4687	
-0.745298	-0.0793	0.654042	-3.22	-45.85	-0.21	0.2358	0.1554	-0.4767	
-0.74054	-0.078202	0.672098	-2.45	-44.24	0.63	0.2204	0.1587	-0.4782	
-0.720654	-0.080032	0.70455	-2.31	-42.63	1.33	0.2127	0.1619	-0.4845	
-0.68198	-0.082228	0.717238	-1.19	-39.9	1.26	0.2053	0.1508	-0.4873	
-0.665266	-0.088206	0.72773	1.4	-33.81	1.75	0.1941	0.1648	-0.4705	
-0.682224	-0.086742	0.727486	-0.56	-26.18	1.54	0.1958	0.1639	-0.4907	
-0.69296	-0.090402	0.729072	3.57	-18.83	2.1	0.1959	0.1611	-0.4937	
-0.682224	-0.09333	0.735904	8.75	-19.95	3.64	0.2035	0.1621	-0.4845	
-0.691008	-0.082838	0.735782	8.68	-19.95	5.95	0.1977	0.1494	-0.481	
-0.689544	-0.071614	0.734318	3.5	-19.67	6.72	0.1836	0.1615	-0.4953	
-0.65514	-0.085888	0.739686	3.36	-20.09	6.72	0.1805	0.1615	-0.4937	
-0.618418	-0.077958	0.74542	1.82	-19.25	6.72	0.1762	0.1502	-0.4902	
-0.62586	-0.070272	0.774944	3.71	-16.8	6.23	0.1791	0.1575	-0.4998	
-0.643062	-0.058438	0.791902	2.8	-14.91	5.88	0.173	0.1559	-0.4888	
-0.655506	-0.048922	0.804224	7.07	-13.86	6.44	0.1792	0.1532	-0.4981	
-0.647088	-0.05185	0.812764	5.11	-12.53	5.53	0.1719	0.1406	-0.4961	
-0.593774	-0.050752	0.8235	3.5	-10.99	3.36	0.1702	0.1464	-0.5025	
-0.56608	-0.052582	0.833748	3.5	-6.58	3.78	0.1671	0.1494	-0.5057	
-0.613782	-0.050752	0.839116	7.49	-0.21	3.57	0.1764	0.1419	-0.4978	
-0.644038	-0.05307	0.833138	7.21	4.55	3.99	0.1626	0.1408	-0.4945	
-0.638426	-0.055876	0.838262	5.25	6.16	5.18	0.1673	0.1409	-0.5055	
-0.61244	-0.048312	0.834724	3.71	9.73	4.83	0.178	0.1419	-0.4993	
-0.592554	-0.04636	0.833992	3.71	14.28	3.92	0.1719	0.1406	-0.4961	
-0.575596	-0.043798	0.835456	4.34	19.74	1.82	0.1796	0.1404	-0.4977	
-0.584746	-0.036722	0.819596	4.97	26.46	2.87	0.1887	0.1432	-0.5041	
-0.626104	-0.033184	0.799466	7	31.92	2.24	0.1891	0.1273	-0.4927	
-0.626592	-0.040138	0.787632	6.37	35.56	2.52	0.1905	0.1331	-0.4991	
-0.625616	-0.033794	0.773602	5.39	40.46	2.66	0.1982	0.1327	-0.4898	
-0.63013	-0.02806	0.762744	6.51	44.66	2.31	0.2057	0.1366	-0.4868	
-0.634888	-0.030988	0.748104	7	48.37	2.94	0.2102	0.1422	-0.4855	
-0.646478	-0.0183	0.722484	7	52.29	4.83	0.2242	0.1347	-0.4838	
-0.725168	-0.032818	0.701988	5.95	58.87	8.89	0.2274	0.1276	-0.4882	
-0.740296	-0.027816	0.675758	6.93	61.39	5.32	0.2349	0.1345	-0.4869	
-0.73444	-0.01342	0.666852	3.15	60.62	6.37	0.2444	0.1241	-0.4789	
-0.735904	-0.003904	0.647576	3.22	64.96	7.21	0.2628	0.1235	-0.4727	
-0.757986	0.012566	0.615368	4.9	69.02	6.09	0.2732	0.1345	-0.4684	
-0.768478	0.01464	0.581208	4.06	71.54	5.95	0.2872	0.1267	-0.4558	
-0.803126	0.010858	0.54961	3.78	75.74	9.03	0.2978	0.1306	-0.4529	
-0.810324	0.008296	0.510814	4.62	76.79	9.66	0.3101	0.1287	-0.4451	
-0.811056	0.020374	0.477508	3.29	76.09	10.64	0.3195	0.1227	-0.4434	
-0.81801	0.030134	0.449936	2.52	75.6	10.57	0.3256	0.1222	-0.431	
-0.848998	0.035014	0.4026	1.54	73.85	11.27	0.3396	0.1147	-0.4261	
-0.915732	0.02257	0.367464	2.38	71.61	14.42	0.3515	0.1253	-0.4094	
-0.931226	0.014274	0.341478	3.22	67.06	14.21	0.3595	0.1108	-0.4059	
-0.92354	0.026474	0.312564	2.45	62.44	12.04	0.3731	0.119	-0.4077	
-0.94611	0.042822	0.282064	2.59	60.97	10.64	0.3699	0.123	-0.3938	
-0.997228	0.052094	0.247782	4.9	61.32	10.08	0.3856	0.1098	-0.392	
-1.000034	0.057828	0.225822	2.94	56.63	7.21	0.3903	0.1068	-0.3919	
-0.981856	0.07076	0.201422	4.34	51.94	4.62	0.3917	0.1093	-0.378	
-1.00467	0.069418	0.177998	4.34	50.4	3.08	0.3995	0.1033	-0.3731	
-0.994056	0.05734	0.15738	9.17	44.66	-0.77	0.4085	0.1084	-0.3609	
-0.990518	0.0549	0.144814	8.05	41.58	-3.99	0.4314	0.1119	-0.3549	
-1.003816	0.064172	0.125416	6.86	40.25	-2.38	0.4222	0.1075	-0.3422	
-1.011502	0.058316	0.109556	9.03	37.8	-3.22	0.4268	0.1088	-0.3423	
-0.99552	0.038064	0.108946	14.07	35.84	-5.67	0.4317	0.0989	-0.3451	
-0.997106	0.028426	0.106262	14.84	38.29	-6.72	0.4408	0.1012	-0.3359	
-0.991372	0.050752	0.09747799	11.9	37.17	-8.33	0.4408	0.0997	-0.3312	
-0.989176	0.055144	0.091134	10.29	36.54	-8.61	0.4438	0.101	-0.3297	
-0.981002	0.043554	0.081008	12.67	36.19	-6.02	0.4498	0.1079	-0.3299	
-0.98698	0.045872	0.07259	10.99	37.59	-3.99	0.4483	0.105	-0.3236	
-0.994178	0.058926	0.067588	6.93	39.55	-3.36	0.4482	0.1075	-0.3128	
-0.99918	0.059536	0.053924	5.81	42.7	-0.28	0.4588	0.1083	-0.2988	
-1.00528	0.051972	0.037088	6.58	43.75	0.28	0.4684	0.0939	-0.2984	
-1.005036	0.04514	0.00915	7.7	44.31	0.91	0.4713	0.1024	-0.3034	
-1.015406	0.05063	-0.017812	6.79	44.59	1.96	0.4728	0.1006	-0.2909	
-1.026264	0.049288	-0.032452	6.86	42.77	0.49	0.4728	0.0975	-0.2799	
-1.043588	0.046116	-0.043188	4.06	42.77	0.35	0.4757	0.1013	-0.266	
-1.034682	0.033306	-0.053924	7	38.78	-0.91	0.4944	0.0924	-0.2658	
-1.032852	0.018056	-0.057096	7.91	34.93	0.07	0.482	0.0969	-0.2643	
-1.001498	0.022692	-0.07198	5.25	34.3	-1.61	0.4864	0.1052	-0.2631	
-1.001132	0.042822	-0.08418	2.38	37.52	-3.99	0.4895	0.1006	-0.2536	
-1.009306	0.03416	-0.09333	1.96	39.34	-2.17	0.497	0.1059	-0.246	
-1.012234	0.027328	-0.114436	2.38	42.14	0	0.4912	0.0932	-0.2409	
-1.020408	0.035258	-0.133346	0	44.87	1.82	0.5079	0.0998	-0.2381	
-1.017968	0.040016	-0.143106	-0.49	44.1	3.36	0.5066	0.0897	-0.23	
-1.016138	0.028426	-0.147376	0.77	43.05	3.71	0.5094	0.0964	-0.2209	
-1.008818	0.025986	-0.146888	0.7	41.79	2.87	0.511	0.0949	-0.2177	
-0.98881	0.0305	-0.133956	1.47	42	1.75	0.5154	0.09869999	-0.2054	
-0.98515	0.037942	-0.134688	0.14	43.12	1.47	0.5233	0.09	-0.2067	
-0.982954	0.023058	-0.135664	0.77	42.77	0.91	0.5279	0.088	-0.1895	
-0.983198	0.022692	-0.15921	-1.33	43.47	1.19	0.5186	0.091	-0.1849	
-0.993202	0.03416	-0.179218	0.21	44.73	0.91	0.5124	0.0939	-0.1834	
-1.006378	0.03782	-0.18178	2.24	41.93	2.45	0.5324	0.0907	-0.1865	
-1.00345	0.031232	-0.207522	4.9	37.66	0.84	0.5293	0.0903	-0.1709	
-1.002108	0.033428	-0.236314	6.3	32.2	-1.54	0.5321	0.0971	-0.1634	
-1.017846	0.039772	-0.262788	4.34	32.55	-0.63	0.5353	0.0911	-0.1523	
-1.015772	0.044286	-0.252418	7.49	29.19	-2.17	0.5461	0.088	-0.1507	
-0.99613	0.053924	-0.269254	8.68	26.74	-4.69	0.5383	0.0937	-0.1462	
-0.992836	0.047702	-0.29219	8.33	26.39	-3.5	0.5353	0.09119999	-0.1539	
-0.99369	0.050874	-0.332328	4.76	29.26	-1.05	0.5445	0.0905	-0.1367	
-0.987224	0.048922	-0.333914	2.94	29.33	0.35	0.5323	0.0879	-0.1366	
-0.991738	0.038796	-0.360144	2.73	30.31	2.45	0.5339	0.0834	-0.1256	
-1.00711	0.031476	-0.380274	1.12	28.07	2.24	0.5414	0.0858	-0.1195	
-0.988444	0.034038	-0.382104	-1.54	26.53	3.01	0.5397	0.0929	-0.1181	
-0.97539	0.044652	-0.389058	-1.96	23.66	-0.35	0.5368	0.0841	-0.1022	
-0.957334	0.065148	-0.378078	-3.36	21.98	0.84	0.5396	0.0955	-0.1104	
-0.94733	0.062342	-0.381982	-3.36	21.42	3.08	0.5396	0.0955	-0.1104	
-0.92842	0.052704	-0.385398	-5.6	18.97	5.25	0.5337	0.0871	-0.1086	
-0.919758	0.045994	-0.399184	-5.81	19.74	4.27	0.5445	0.0854	-0.1054	
-0.964532	0.063196	-0.421266	-8.54	23.03	5.39	0.5489	0.08769999	-0.0915	
-0.965752	0.066124	-0.42822	-7.21	18.55	4.34	0.5473	0.092	-0.0901	
-0.961116	0.055876	-0.432856	-4.83	16.17	2.31	0.5322	0.0809	-0.0866	
-0.972828	0.06527	-0.43676	-7.77	14.28	2.66	0.5489	0.0862	-0.08679999	
-0.959286	0.057828	-0.441396	-5.88	11.06	2.17	0.5394	0.0961	-0.0777	
-0.962336	0.061244	-0.442616	-4.83	10.57	2.03	0.5351	0.0862	-0.0758	
-0.966362	0.074786	-0.455426	-4.69	7.77	2.59	0.5411	0.09209999	-0.09	
-0.975024	0.084912	-0.461648	-4.62	4.83	4.34	0.5461	0.0763	-0.0849	
-0.978928	0.080398	-0.44835	-4.41	0.35	5.18	0.5425	0.096	-0.0761	
-0.956602	0.083692	-0.441274	-3.29	-4.97	2.66	0.5474	0.0878	-0.0915	
-0.940986	0.073078	-0.441274	-4.2	-5.88	1.47	0.5458	0.0845	-0.0727	
-0.94916	0.069906	-0.449326	-3.99	-6.51	3.99	0.5491	0.0773	-0.0725	
-0.96746	0.077836	-0.46543	-4.2	-8.54	4.13	0.5383	0.0804	-0.0741	
-0.9699	0.08845	-0.45933	-3.57	-12.74	3.64	0.5491	0.08199999	-0.0898	
-0.965996	0.08784	-0.453718	-2.66	-16.24	2.87	0.5523	0.0778	-0.0928	
-0.950502	0.083936	-0.446642	-2.38	-19.88	0.98	0.537	0.0739	-0.0926	
-0.960262	0.08052	-0.442616	-2.94	-20.44	1.19	0.5431	0.078	-0.09429999	
-0.964776	0.08052	-0.44591	-3.22	-22.54	0.98	0.543	0.081	-0.1006	
-0.986858	0.081496	-0.447618	-3.36	-25.34	1.75	0.5322	0.08419999	-0.1038	
-0.983808	0.086498	-0.439566	-3.92	-31.71	1.47	0.5443	0.088	-0.0993	
-0.982832	0.098454	-0.427488	-4.34	-35.98	1.4	0.5369	0.083	-0.1147	
-0.989054	0.104432	-0.412848	-6.72	-38.36	0.98	0.5371	0.0774	-0.1176	
-0.99857	0.105164	-0.406992	-5.46	-42.49	0.35	0.5414	0.08899999	-0.1336	
-1.001742	0.09516	-0.396012	-6.58	-46.41	0.07	0.5278	0.0806	-0.1239	
-1.00711	0.083814	-0.375028	-6.37	-49.07	-0.98	0.5401	0.0806	-0.1333	
-0.99613	0.076616	-0.349042	-4.97	-52.08	-1.75	0.5402	0.0778	-0.1363	
-0.990396	0.081862	-0.33123	-4.55	-53.41	-3.36	0.5386	0.0825	-0.1505	
-0.986858	0.078568	-0.30988	-5.81	-53.48	-3.57	0.5309	0.0875	-0.1709	
-0.988444	0.0671	-0.29402	-3.22	-53.69	-3.36	0.5312	0.0777	-0.1768	
-0.986736	0.062464	-0.272182	-1.26	-53.48	-3.92	0.5173	0.0809	-0.1768	
-0.989176	0.074786	-0.248026	-0.56	-53.62	-5.81	0.5281	0.081	-0.1925	
-0.98637	0.07381	-0.21167	-1.12	-53.55	-4.76	0.5199	0.1029	-0.2086	
-0.977098	0.055388	-0.171654	1.54	-54.53	-4.83	0.5188	0.0873	-0.2051	
-0.966972	0.055632	-0.132614	1.4	-52.85	-5.25	0.5111	0.0889	-0.2066	
-0.951966	0.060878	-0.09577	2.1	-52.57	-5.53	0.5111	0.09079999	-0.2238	
-0.971608	0.067832	-0.074298	2.03	-46.97	-2.52	0.5159	0.0851	-0.2252	
-0.976488	0.069784	-0.048556	1.75	-44.31	-1.33	0.4944	0.0871	-0.2298	
-0.983442	0.065026	-0.013054	1.75	-41.65	-2.87	0.5037	0.0857	-0.2376	
-0.974414	0.064538	0.006832	1.61	-39.9	-4.2	0.4991	0.0848	-0.2516	
-0.963556	0.078324	0.031964	-1.12	-37.73	-4.41	0.4913	0.09079999	-0.258	
-0.960384	0.059536	0.035868	5.32	-33.32	-3.43	0.4927	0.0964	-0.2582	
-0.981978	0.030012	0.050874	8.75	-26.95	-6.58	0.4852	0.0941	-0.2689	
-0.984662	0.039162	0.05246	7.7	-25.2	-12.04	0.4881	0.0982	-0.266	
-1.012356	0.058072	0.062952	7.84	-25.27	-10.85	0.4913	0.0941	-0.2768	
-0.996496	0.06222	0.078568	4.62	-26.53	-14.98	0.47	0.0904	-0.2765	
-0.961726	0.05124	0.081496	-0.35	-26.95	-10.22	0.4712	0.1005	-0.2831	
-0.997106	0.033916	0.080276	-0.42	-23.66	-2.52	0.4744	0.0991	-0.2862	
-0.99674	0.025498	0.088206	-1.33	-24.92	-5.39	0.4791	0.0945	-0.2798	
-0.996374	0.030622	0.097966	-1.75	-23.66	-5.74	0.4759	0.0991	-0.2893	
-0.989298	0.025986	0.112362	-0.84	-24.43	-3.71	0.4731	0.0924	-0.3	
-0.985394	0.031354	0.123952	-1.33	-24.01	-3.22	0.4576	0.097	-0.2985	
-0.988078	0.036844	0.125904	-3.85	-21.7	-3.99	0.4557	0.1083	-0.2957	
-0.982954	0.040504	0.124318	-5.74	-20.3	-5.88	0.4589	0.1071	-0.3066	
-0.995642	0.03233	0.137616	-7.84	-18.97	-4.27	0.4618	0.1128	-0.3114	
-0.994178	0.018544	0.1525	-8.12	-18.48	-0.07	0.4514	0.1003	-0.3126	
-0.981978	0.013786	0.16592	-6.02	-17.22	0.21	0.448	0.1132	-0.3145	
-0.975634	0.014274	0.174826	-5.04	-15.82	0.42	0.4482	0.109	-0.3159	
-0.97417	0.009881999	0.18117	-4.62	-15.05	-0.7	0.4513	0.1046	-0.3127	
-0.977708	0.006832	0.184464	-2.94	-12.6	-2.03	0.4482	0.1093	-0.3253	
-0.993568	0.01403	0.18544	-1.54	-10.43	-1.75	0.4497	0.1091	-0.3191	
-0.992104	0.01952	0.186294	0.14	-10.57	-1.12	0.4481	0.1135	-0.3254	
-0.9882	0.0183	0.188124	2.38	-9.8	-1.19	0.4483	0.1049	-0.3205	
-0.988566	0.027084	0.186294	2.03	-7.49	-2.59	0.4512	0.1121	-0.3301	
-0.989176	0.030988	0.182024	0.98	-7.42	-4.55	0.4544	0.1061	-0.319	
-1.000522	0.030988	0.18117	0.98	-6.58	-5.53	0.4419	0.1151	-0.3254	
-1.000766	0.03538	0.181292	0.98	-6.16	-3.71	0.4434	0.115	-0.3254	
-0.99796	0.031598	0.180194	1.47	-6.79	-2.87	0.4436	0.1092	-0.3206	
-0.993812	0.02257	0.184098	1.33	-5.95	-2.87	0.4373	0.1168	-0.3317	
-0.990518	0.020374	0.18727	0.42	-5.39	-2.38	0.4375	0.1051	-0.3204	
-0.988688	0.023058	0.188978	0.07	-4.2	-3.08	0.4327	0.1138	-0.3238	
-0.989908	0.013664	0.194346	-0.07	-3.5	-2.66	0.4388	0.1169	-0.3379	
-0.992958	0.005124	0.195444	0.49	-2.73	-2.94	0.4328	0.1128	-0.3362	
-0.985882	0.011956	0.19642	0.84	-2.52	-3.29	0.4498	0.1097	-0.344	
-0.986614	0.010614	0.196664	1.61	-1.82	-2.66	0.439	0.1082	-0.3283	
-0.988078	0.005734	0.193858	2.38	-0.91	-1.75	0.4466	0.1092	-0.3222	
-0.989664	0.00915	0.193126	2.94	-0.21	-2.38	0.4389	0.1138	-0.3285	
-0.990884	0.015494	0.18849	1.68	0.14	-2.8	0.4374	0.114	-0.3347	
-0.992714	0.01159	0.181902	2.24	1.26	-2.94	0.4405	0.1096	-0.3299	
-0.991128	0.008417999	0.17568	2.8	1.47	-3.15	0.4344	0.1099	-0.3346	
-1.00223	0.00915	0.16958	1.96	2.87	-2.59	0.439	0.1111	-0.3315	
-0.996862	0.011956	0.16836	2.1	2.45	-2.8	0.4467	0.1063	-0.3205	
-1.000888	0.005124	0.16592	2.52	3.29	-3.01	0.4343	0.1124	-0.3222	
-1.001498	0.002196	0.16165	1.75	3.43	-2.94	0.4466	0.1108	-0.3284	
-0.997472	-0.001586	0.163602	2.24	3.85	-3.22	0.4451	0.1123	-0.33	
-0.997838	0.002562	0.164334	0.56	4.13	-3.71	0.4465	0.1149	-0.3223	
-0.99796	-0.000366	0.158356	0.98	4.62	-2.52	0.442	0.114	-0.3378	
-0.9943	-0.002562	0.156282	0.35	5.25	-2.1	0.4265	0.1153	-0.3176	
-1.004182	-0.017324	0.155428	1.19	5.88	-1.54	0.448	0.1194	-0.3334	
-1.00162	-0.020252	0.153476	0.7	5.39	-2.52	0.4513	0.1077	-0.3237	
-0.999302	-0.007808	0.151646	-0.21	5.67	-2.8	0.4481	0.1135	-0.327	
-1.00162	-0.009516	0.147864	0	6.23	-2.17	0.4449	0.1176	-0.3177	
-1.004304	-0.015006	0.14152	0.91	6.79	-2.03	0.4558	0.1134	-0.3286	
-1.006744	-0.017934	0.139934	0.84	6.93	-1.26	0.4497	0.1091	-0.3206	
-1.005158	-0.01464	0.13542	0.7	6.72	0.14	0.448	0.1162	-0.3208	
-1.003572	-0.015982	0.13542	0.91	6.37	0.7	0.4555	0.1185	-0.3085	
-1.005158	-0.017446	0.134444	0.35	6.16	1.26	0.451	0.1176	-0.3209	
-1.001132	-0.013298	0.130052	0.28	5.88	1.12	0.4543	0.1075	-0.3175	
-1.002718	-0.01342	0.128832	0.7	6.37	0.63	0.4541	0.1189	-0.3225	
-1.006866	-0.008417999	0.121878	1.05	6.93	0.91	0.4554	0.1246	-0.3242	
-1.00833	-0.003294	0.119926	0.14	6.79	1.47	0.4482	0.1075	-0.3128	
-1.002962	-0.000976	0.117974	0.49	6.44	1.26	0.4574	0.1089	-0.3191	
-1.004914	0.006344	0.114314	0.14	7.21	0.35	0.4511	0.113	-0.3098	
-1.012844	0.014762	0.10797	-0.35	8.47	-0.42	0.4572	0.1143	-0.3115	
-1.016504	0.013298	0.103212	1.19	7.56	-0.7	0.4558	0.1103	-0.3191	
-1.011258	0.009028	0.097844	1.19	6.3	-0.49	0.4556	0.1157	-0.3068	
-1.009306	0.008662	0.09552599	1.12	6.09	-0.28	0.4633	0.1139	-0.3006	
-1.005524	0.010736	0.091988	0.77	5.95	-0.42	0.4557	0.1159	-0.3177	
-1.01687	0.007929999	0.087718	0.35	6.58	-1.05	0.4558	0.11	-0.3082	
-1.0187	0.008417999	0.082716	-0.07	5.53	-2.03	0.4556	0.1171	-0.3084	
-1.012722	0.012566	0.082594	-0.42	3.85	-2.73	0.4572	0.1142	-0.3068	
-1.003572	0.02013	0.09357399	-0.56	2.87	-4.41	0.4616	0.1198	-0.3101	
-1.013088	0.0244	0.094306	-2.31	4.41	-3.85	0.4587	0.1142	-0.3068	
-1.009916	0.020862	0.092232	-2.38	4.48	-4.41	0.4586	0.1184	-0.3069	
-1.015406	0.022814	0.088694	-2.59	4.97	-5.18	0.4663	0.1168	-0.3053	
-1.00955	0.023912	0.085156	-2.66	3.99	-7.28	0.4601	0.1213	-0.3101	
-1.012478	0.033794	0.086376	-4.13	3.78	-10.15	0.4583	0.1282	-0.3041	
-1.012112	0.035258	0.09552599	-4.76	3.64	-12.67	0.4447	0.1213	-0.2976	
-1.016138	0.032574	0.089548	-5.39	4.34	-15.19	0.4556	0.1139	-0.2959	
-1.014918	0.028182	0.090158	-4.69	3.01	-18.2	0.4603	0.1112	-0.3052	
-1.005036	0.02745	0.093208	-5.74	1.68	-21.91	0.4612	0.1338	-0.3027	
-1.013576	0.015006	0.09211	-4.69	1.19	-24.43	0.4645	0.1266	-0.2994	
-1.006622	0.011712	0.09455	-5.67	1.4	-27.65	0.4691	0.1263	-0.2932	
-1.000644	0.009516	0.097112	-4.9	2.52	-31.01	0.4399	0.1285	-0.2978	
-1.00284	0.003782	0.09747799	-5.53	2.66	-33.74	0.4533	0.1439	-0.3014	
-1.001132	-0.00854	0.09747799	-6.72	3.5	-35.35	0.4687	0.1436	-0.3062	
-0.99552	-0.019642	0.095038	-6.72	3.64	-37.38	0.45	0.1495	-0.2984	
-0.997594	-0.034282	0.092598	-7	3.57	-38.36	0.4621	0.1564	-0.3003	
-0.986126	-0.058072	0.087108	-6.37	3.71	-39.69	0.4496	0.1667	-0.3067	
-0.970266	-0.075884	0.095404	-6.23	4.41	-42.7	0.4575	0.161	-0.3097	
-0.960262	-0.081984	0.105896	-6.86	8.19	-42.42	0.4537	0.1863	-0.3011	
-0.976976	-0.111386	0.086498	-8.89	13.09	-41.02	0.4504	0.1903	-0.2903	
-0.98088	-0.129808	0.075762	-9.38	13.72	-40.95	0.4488	0.1963	-0.2983	
-0.985516	-0.156038	0.063806	-11.48	14	-39.34	0.4444	0.1862	-0.287	
-0.991738	-0.171654	0.051484	-14.28	12.88	-39.41	0.4489	0.1905	-0.295	
-0.981734	-0.195078	0.044408	-12.25	9.03	-40.67	0.4515	0.2074	-0.2924	
-0.970144	-0.218136	0.035624	-13.09	6.93	-43.33	0.4388	0.2215	-0.2818	
-0.966484	-0.243146	0.033428	-12.04	6.37	-44.24	0.4451	0.2173	-0.288	
-0.96929	-0.28426	0.029768	-8.89	4.41	-45.01	0.4417	0.2285	-0.2805	
-0.978196	-0.312198	0.021228	-7.63	4.62	-47.74	0.4354	0.236	-0.2885	
-0.970632	-0.326106	0.010492	-7.14	0.91	-48.3	0.4412	0.2471	-0.2857	
-0.954894	-0.33977	0.008784	-5.46	-3.01	-49.77	0.4227	0.2488	-0.281	
-0.942572	-0.361974	0.009516	-1.33	-5.39	-50.61	0.4258	0.2506	-0.2982	
-0.936716	-0.389058	0.007198	1.96	-6.65	-52.29	0.421	0.2546	-0.2843	
-0.923296	-0.403698	0.01159	2.17	-8.75	-55.58	0.4114	0.2689	-0.28	
-0.893528	-0.414678	0.025132	3.78	-12.32	-58.03	0.4038	0.2649	-0.2845	
-0.889746	-0.443714	0.02562	9.17	-11.97	-59.5	0.3957	0.2839	-0.2959	
-0.869006	-0.470066	0.03294	8.68	-12.11	-59.71	0.3941	0.2898	-0.3039	
-0.853268	-0.487878	0.041846	8.12	-12.18	-60.34	0.3877	0.2954	-0.2978	
-0.82106	-0.510448	0.054534	10.71	-13.65	-60.41	0.3939	0.2954	-0.3009	
-0.837042	-0.530456	0.061122	17.78	-12.25	-62.86	0.3831	0.3	-0.3072	
-0.854976	-0.553148	0.07198	19.39	-8.61	-64.19	0.3692	0.305	-0.3198	
-0.857294	-0.572912	0.119316	21.49	-12.88	-67.41	0.3657	0.3173	-0.3014	
-0.83265	-0.608658	0.089548	20.09	-7	-62.51	0.3658	0.3165	-0.3248	
-0.803248	-0.567422	0.10004	9.45	-3.08	-55.51	0.3532	0.3266	-0.3188	
-0.807518	-0.551562	0.077836	8.4	3.15	-46.34	0.3471	0.3268	-0.3218	
-0.7991	-0.572302	0.074786	5.6	5.04	-39.69	0.3438	0.3324	-0.3173	
-0.795928	-0.584502	0.074786	-1.12	4.97	-30.1	0.3361	0.3339	-0.3111	
-0.788852	-0.595848	0.072956	-2.24	4.83	-26.18	0.3451	0.3453	-0.3224	
-0.801052	-0.654652	0.059292	-7.14	3.71	-21.28	0.3329	0.3412	-0.3191	
-0.792146	-0.693082	0.060878	-7.84	3.5	-18.9	0.333	0.3357	-0.3236	
-0.785558	-0.693814	0.063074	-10.43	1.19	-17.57	0.3299	0.3385	-0.319	
-0.782996	-0.699914	0.058438	-9.66	0.42	-15.05	0.3266	0.3486	-0.3255	
-0.783728	-0.701622	0.049166	-9.52	-0.63	-13.44	0.3249	0.3499	-0.3162	
-0.779824	-0.705892	0.052216	-8.12	-2.45	-11.55	0.3356	0.3523	-0.3101	
-0.762744	-0.69784	0.06466	-9.24	-5.18	-8.47	0.3355	0.3565	-0.3102	
-0.74481	-0.699182	0.086254	-9.1	-5.88	-4.9	0.3217	0.3555	-0.3132	
-0.733342	-0.7137	0.0915	-4.97	-6.44	-2.66	0.3235	0.3469	-0.3114	
-0.72163	-0.728096	0.093208	-0.98	-6.86	-0.7	0.314	0.357	-0.3086	
-0.719312	-0.725778	0.091866	0.91	-3.78	-0.14	0.3125	0.3543	-0.3131	
-0.736026	-0.717848	0.077836	2.45	-0.21	-1.05	0.3124	0.3615	-0.318	
-0.745542	-0.705648	0.071004	2.03	-1.05	1.47	0.3235	0.3469	-0.3099	
-0.748226	-0.695888	0.062464	-0.14	-0.42	5.04	0.3231	0.3612	-0.3165	
-0.75396	-0.699792	0.058194	1.68	0.14	9.03	0.3266	0.3456	-0.3176	
-0.75091	-0.694912	0.06954	2.52	0.84	13.37	0.3186	0.3555	-0.3101	
-0.74603	-0.694424	0.071492	1.19	2.52	17.57	0.3233	0.3542	-0.3194	
-0.739808	-0.686006	0.077226	1.61	3.99	20.93	0.3155	0.3569	-0.307	
-0.757498	-0.679784	0.066246	-1.05	7.56	23.94	0.3205	0.3429	-0.316	
-0.78507	-0.679174	0.048678	-4.06	8.75	31.29	0.3328	0.3422	-0.3035	
-0.812032	-0.672586	0.044164	-5.6	12.46	41.58	0.3374	0.3423	-0.3098	
-0.83326	-0.64355	0.030988	-6.51	11.27	49.28	0.3359	0.3379	-0.3019	
-0.833138	-0.638914	0.046848	-7.84	10.01	55.3	0.3435	0.3405	-0.302	
-0.834602	-0.634766	0.048556	-6.09	10.99	56.84	0.3484	0.3303	-0.2955	
-0.842166	-0.631716	0.040992	-5.25	9.24	59.22	0.3594	0.3233	-0.3093	
-0.854366	-0.62098	0.026474	-3.64	5.67	62.16	0.3702	0.3201	-0.3062	
-0.854244	-0.58255	0.017934	-3.43	4.06	66.15	0.3735	0.3145	-0.3092	
-0.860832	-0.557418	0.019032	-3.29	3.43	70	0.3796	0.3112	-0.2966	
-0.865956	-0.52704	0.021716	-3.01	1.47	72.17	0.3893	0.2938	-0.2899	
-0.879498	-0.496662	0.03172	-3.99	0.07	75.53	0.3894	0.2911	-0.2976	
-0.88938	-0.47275	0.023546	-2.17	-0.98	75.88	0.4018	0.2853	-0.3022	
-0.886086	-0.429318	0.034648	0.7	-5.74	74.9	0.4142	0.2834	-0.296	
-0.879986	-0.385276	0.036234	0.07	-5.04	75.53	0.4144	0.2719	-0.2894	
-0.909876	-0.351726	0.030622	-4.97	-2.38	76.72	0.4224	0.2619	-0.2954	
-0.94245	-0.307562	0.037088	-8.26	-1.47	74.76	0.4196	0.2506	-0.2919	
-0.974292	-0.259128	0.04636	-7.07	-0.7	70.63	0.4339	0.2362	-0.2978	
-0.969168	-0.189832	0.0488	-10.15	-3.57	68.88	0.4291	0.2421	-0.2995	
-0.960628	-0.122	0.050386	-9.45	-3.29	67.69	0.4373	0.2203	-0.288	
-0.95282	-0.088694	0.057096	-4.83	-4.83	64.4	0.4389	0.2172	-0.2801	
-0.97478	-0.097722	0.059048	-3.29	-3.64	63.98	0.4482	0.2129	-0.2832	
-0.985638	-0.103456	0.054046	-1.68	-4.69	63.14	0.4567	0.1875	-0.2949	
-0.989664	-0.09162199	0.052826	-2.52	-5.46	62.09	0.46	0.1773	-0.2884	
-0.97478	-0.057218	0.062464	-6.58	-6.51	61.46	0.457	0.1745	-0.2852	
-0.987956	-0.03843	0.072346	-10.01	-5.32	61.81	0.4508	0.1747	-0.2867	
-0.988566	-0.033306	0.08052	-11.41	-6.23	61.95	0.4543	0.1589	-0.2816	
-0.980026	-0.035746	0.093818	-8.47	-9.52	61.67	0.4607	0.1534	-0.2955	
-0.985882	-0.040626	0.08052	-6.3	-8.75	62.58	0.4593	0.1464	-0.2968	
-0.973316	-0.0183	0.078324	-3.57	-9.66	61.32	0.481	0.14	-0.289	
-0.984906	0.004026	0.0732	-3.01	-9.38	59.15	0.4626	0.1393	-0.2966	
-0.99064	0.028182	0.076372	-3.57	-9.38	54.95	0.4736	0.129	-0.2948	
-0.997472	0.026962	0.086132	-1.61	-9.03	51.73	0.4631	0.1178	-0.2898	
-1.00528	0.052216	0.076616	2.24	-8.54	49.7	0.4725	0.1137	-0.3022	
-1.007232	0.077348	0.072834	5.18	-10.15	48.3	0.4622	0.0999	-0.3048	
-0.98759	0.08845	0.071492	7.14	-11.9	47.39	0.47	0.0922	-0.2906	
-0.985394	0.09747799	0.061732	9.38	-11.41	46.41	0.4654	0.0926	-0.3	
-0.999424	0.117974	0.059048	9.03	-10.85	44.87	0.4669	0.0909	-0.2906	
-1.00772	0.150914	0.060268	6.65	-11.69	43.82	0.4658	0.0783	-0.2964	
-1.00589	0.168116	0.069418	8.19	-15.47	42	0.4659	0.074	-0.2947	
-1.001254	0.17324	0.075762	12.53	-18.62	41.72	0.4661	0.0687	-0.3055	
-0.999302	0.177632	0.08113	12.32	-21.14	42.7	0.4724	0.0596	-0.2912	
-0.976244	0.17263	0.097966	14.77	-23.17	42.7	0.465	0.0518	-0.3097	
-0.965508	0.17324	0.111508	16.1	-24.92	45.29	0.4574	0.0507	-0.3143	
-0.95343	0.178242	0.11407	18.41	-27.23	51.1	0.4547	0.0365	-0.3107	
-0.965752	0.204838	0.131272	21.21	-31.22	54.46	0.4578	0.0352	-0.3169	
-0.958798	0.2196	0.140178	16.87	-31.01	56.56	0.4535	0.0268	-0.3166	
-0.965996	0.266814	0.149572	7.49	-30.66	57.4	0.4383	0.0232	-0.3274	
-0.951478	0.300242	0.1586	3.15	-32.27	56.35	0.4292	0.0165	-0.3302	
-0.948306	0.320372	0.170678	-0.63	-31.5	58.52	0.4312	0.0023	-0.3314	
-0.935862	0.326838	0.177998	0.63	-32.41	61.04	0.422	0.0025	-0.3313	
-0.929274	0.340868	0.193126	4.48	-32.34	59.57	0.4193	-0.0128	-0.3355	
-0.922076	0.376492	0.2074	6.58	-33.88	58.73	0.4134	-0.0195	-0.3415	
-0.907558	0.40931	0.217648	6.16	-32.76	56.35	0.4151	-0.0237	-0.3445	
-0.91439	0.44469	0.235704	6.3	-31.36	54.46	0.4014	-0.032	-0.3411	
-0.903898	0.481046	0.23851	6.65	-33.53	50.89	0.3987	-0.0446	-0.3438	
-0.853024	0.501908	0.256566	9.03	-38.5	44.94	0.3883	-0.0526	-0.3529	
-0.848632	0.52155	0.27389	9.52	-34.65	43.4	0.3883	-0.0541	-0.3482	
-0.837042	0.538752	0.264984	11.13	-39.27	43.54	0.376	-0.0522	-0.3544	
-0.823988	0.540582	0.26657	7.7	-39.34	43.47	0.3719	-0.0704	-0.357	
-0.83875	0.545706	0.264374	4.27	-38.57	43.89	0.3611	-0.0656	-0.3695	
-0.804346	0.52033	0.268522	-0.42	-42.28	44.31	0.3612	-0.0683	-0.3757	
-0.775188	0.522648	0.280966	-1.89	-43.19	45.22	0.3521	-0.0738	-0.3708	
-0.774944	0.516914	0.29707	1.33	-38.29	43.89	0.3307	-0.0772	-0.383	
-0.763232	0.52216	0.332572	3.92	-34.86	39.48	0.3295	-0.0901	-0.3764	
-0.747616	0.532286	0.35502	7.28	-33.53	34.72	0.3282	-0.0969	-0.3856	
-0.718458	0.532164	0.334036	9.38	-31.64	32.55	0.3124	-0.0809	-0.3875	
-0.700646	0.537288	0.322202	15.05	-27.02	31.71	0.3205	-0.0936	-0.395	
-0.680882	0.545706	0.34404	20.72	-24.43	31.43	0.3036	-0.09339999	-0.3855	
-0.704916	0.57279	0.371246	27.16	-19.88	31.64	0.3023	-0.1018	-0.3884	
-0.697718	0.596824	0.36539	29.47	-18.55	29.33	0.2947	-0.1044	-0.3898	
-0.68564	0.626104	0.371246	30.87	-16.1	26.18	0.2891	-0.1269	-0.3891	
-0.665388	0.648918	0.3599	30.73	-13.23	24.85	0.283	-0.1253	-0.3907	
-0.669048	0.68991	0.340624	31.57	-10.85	24.64	0.2858	-0.12	-0.3815	
-0.650382	0.67527	0.338306	32.62	-9.1	24.78	0.2876	-0.1285	-0.3829	
-0.682712	0.7015	0.352458	35.28	-8.61	22.47	0.2723	-0.1324	-0.3795	
-0.673562	0.726998	0.342942	32.83	-8.47	18.13	0.2772	-0.144	-0.3761	
-0.676612	0.762256	0.34221	28.98	-8.82	15.47	0.2804	-0.1454	-0.3776	
-0.65331	0.763842	0.352214	22.82	-8.96	14.28	0.2745	-0.1554	-0.3695	
-0.65148	0.777872	0.343186	18.97	-7.35	16.03	0.2791	-0.1567	-0.3804	
-0.645868	0.757986	0.331352	15.47	-5.32	16.31	0.2701	-0.1622	-0.3771	
-0.664534	0.74115	0.331596	13.09	-3.64	15.05	0.2548	-0.1678	-0.3628	
-0.648674	0.733952	0.338794	10.15	-4.48	9.87	0.2657	-0.1721	-0.3737	
-0.655628	0.76982	0.3172	10.22	-4.9	4.83	0.2658	-0.1749	-0.372	
-0.62708	0.762012	0.29829	8.19	-1.82	3.64	0.2565	-0.1718	-0.3736	
-0.652212	0.765672	0.277916	13.23	-1.89	5.88	0.261	-0.1707	-0.369	
-0.689666	0.763232	0.285968	15.89	-2.59	2.45	0.2565	-0.1748	-0.3673	
-0.659776	0.798612	0.300974	13.02	-6.65	-0.21	0.2612	-0.175	-0.3673	
-0.620126	0.833626	0.296582	11.55	-7.21	-2.52	0.2613	-0.1808	-0.3609	
-0.59048	0.834602	0.28487	7.56	-6.02	-4.41	0.2657	-0.1753	-0.3596	
-0.622688	0.850584	0.278526	6.16	-5.6	-6.37	0.2629	-0.1837	-0.3608	
-0.636108	0.805444	0.285968	-1.61	-3.85	-12.74	0.2626	-0.1724	-0.3565	
-0.63379	0.80764	0.29219	-2.17	-4.06	-15.12	0.2565	-0.175	-0.3626	
-0.612196	0.809104	0.305244	-7.42	-3.29	-20.23	0.2686	-0.1666	-0.3692	
-0.621468	0.77653	0.2989	-12.39	2.87	-27.44	0.2622	-0.158	-0.3663	
-0.627934	0.770552	0.298778	-14.56	3.64	-30.1	0.2578	-0.1637	-0.3614	
-0.660996	0.793732	0.29951	-19.46	7.28	-35.7	0.2746	-0.1612	-0.3662	
-0.672952	0.764452	0.304024	-24.85	10.01	-41.93	0.2712	-0.1468	-0.3713	
-0.69235	0.741516	0.299144	-26.53	10.08	-47.11	0.2867	-0.1542	-0.3743	
-0.680028	0.736514	0.307806	-27.58	10.57	-51.17	0.2773	-0.1439	-0.3808	
-0.665998	0.716628	0.335622	-28.35	13.23	-57.47	0.3016	-0.1377	-0.3702	
-0.673928	0.690276	0.310612	-29.54	17.78	-63.91	0.2878	-0.1358	-0.3749	
-0.694912	0.668926	0.341234	-27.51	19.32	-68.46	0.3102	-0.1151	-0.3771	
-0.71919	0.640378	0.336842	-28.7	18.34	-67.83	0.3211	-0.1196	-0.3755	
-0.742004	0.60146	0.324886	-28.7	20.79	-64.75	0.3174	-0.0967	-0.3808	
-0.76555	0.558028	0.320616	-26.74	18.2	-60.97	0.3298	-0.0999	-0.3792	
-0.789828	0.5246	0.305366	-26.74	17.92	-61.11	0.3279	-0.0858	-0.375	
-0.800686	0.504836	0.30317	-27.51	15.61	-60.06	0.343	-0.0746	-0.3847	
-0.802272	0.471164	0.307196	-27.58	12.95	-60.13	0.3429	-0.072	-0.3786	
-0.814716	0.437858	0.315614	-27.02	13.37	-58.31	0.3411	-0.0633	-0.3835	
-0.823988	0.402722	0.313296	-26.04	15.61	-57.4	0.3565	-0.0637	-0.3836	
-0.857172	0.354166	0.314394	-24.99	15.89	-57.82	0.3652	-0.0456	-0.381	
-0.896334	0.323056	0.309148	-22.75	16.31	-57.54	0.3633	-0.0359	-0.372	
-0.903776	0.28487	0.309514	-20.79	15.89	-56.49	0.3692	-0.026	-0.377	
-0.91866	0.25681	0.299144	-18.69	17.64	-56.49	0.3784	-0.0234	-0.374	
-0.91744	0.219234	0.296704	-18.34	17.85	-57.26	0.3872	-0.007999999	-0.3791	
-0.923174	0.191418	0.29097	-16.03	17.5	-59.78	0.3702	-0.0061	-0.3791	
-0.911584	0.173118	0.278526	-14.98	16.03	-59.71	0.3805	0.0133	-0.3797	
-0.931714	0.173484	0.277916	-12.39	14.91	-60.55	0.3881	0.0115	-0.3719	
-0.921588	0.168848	0.2623	-12.95	15.47	-59.64	0.3939	0.0257	-0.3786	
-0.933056	0.142862	0.25925	-9.94	15.54	-58.03	0.3923	0.0299	-0.3741	
-0.958066	0.119926	0.249002	-6.51	15.54	-57.12	0.3967	0.0369	-0.3743	
-0.966484	0.109556	0.25071	-6.58	13.02	-56.42	0.4028	0.0397	-0.3806	
-0.954406	0.102602	0.255346	-6.23	10.43	-54.88	0.4023	0.052	-0.3623	
-0.959774	0.094794	0.256932	-6.44	9.73	-53.69	0.4055	0.0507	-0.3716	
-0.96014	0.081008	0.255834	-7.91	10.85	-51.17	0.4129	0.0634	-0.3767	
-0.9516	0.067588	0.251076	-8.05	10.78	-49.98	0.4066	0.0643	-0.3533	
-0.953308	0.05612	0.259494	-10.78	14.35	-50.19	0.4044	0.0889	-0.3696	
-0.958554	0.054168	0.256688	-9.94	16.52	-49.35	0.4092	0.0861	-0.3758	
-0.96075	0.04148	0.248636	-9.8	14.21	-44.31	0.4057	0.0985	-0.359	
-0.960262	0.035746	0.246562	-11.13	15.89	-43.19	0.4105	0.09119999	-0.3573	
-0.966728	0.035624	0.239364	-12.95	16.66	-41.51	0.3995	0.1016	-0.3637	
-0.969046	0.025742	0.237534	-16.03	16.38	-37.52	0.4268	0.112	-0.3564	
-0.975756	0.0183	0.232898	-15.05	13.86	-34.58	0.4173	0.122	-0.3489	
-0.977098	0.006954	0.22631	-14.28	13.86	-33.46	0.4099	0.1125	-0.3594	
-0.983076	-0.007564	0.22204	-15.54	13.16	-33.32	0.4157	0.125	-0.3552	
-0.981612	-0.013908	0.221186	-16.31	9.66	-32.83	0.4234	0.1265	-0.3662	
-0.972584	-0.011468	0.216306	-16.52	6.65	-31.71	0.423	0.136	-0.3509	
-0.976854	-0.01586	0.208742	-15.61	7.77	-32.76	0.4212	0.1458	-0.3449	
-0.977464	-0.038918	0.21167	-15.96	4.41	-33.53	0.4118	0.1534	-0.3529	
-0.973438	-0.065514	0.20923	-13.23	1.68	-35.91	0.4088	0.1535	-0.3544	
-0.959896	-0.071736	0.218136	-16.8	1.47	-38.85	0.4102	0.1564	-0.3592	
-0.976854	-0.071492	0.206424	-19.53	3.43	-42.28	0.4129	0.1702	-0.3487	
-0.959652	-0.073444	0.197518	-17.43	2.87	-47.74	0.4253	0.1659	-0.358	
-0.946354	-0.089914	0.195688	-15.54	-0.77	-51.73	0.4143	0.176	-0.3551	
-0.95343	-0.129076	0.190076	-8.47	2.66	-56.28	0.4075	0.1986	-0.3464	
-0.955626	-0.169702	0.179462	-5.32	3.15	-58.59	0.4062	0.1887	-0.3477	
-0.960628	-0.207888	0.171166	-0.7	3.78	-63.07	0.4089	0.2027	-0.3434	
-0.939522	-0.227652	0.175314	-1.68	1.19	-67.97	0.4012	0.2045	-0.3512	
-0.939522	-0.229604	0.180194	1.26	2.52	-71.19	0.3931	0.2204	-0.3563	
-0.96197	-0.269742	0.171654	3.78	5.11	-70.91	0.3975	0.2274	-0.355	
-0.93757	-0.287676	0.16714	3.64	1.26	-71.61	0.3852	0.2288	-0.3441	
-0.89121	-0.300974	0.165676	0.14	-0.42	-74.06	0.3816	0.2473	-0.3446	
-0.918782	-0.326228	0.180316	-2.17	2.52	-71.05	0.3816	0.2476	-0.3555	
-0.921588	-0.352092	0.184342	-6.44	1.26	-64.26	0.3815	0.253	-0.3463	
-0.926956	-0.41053	0.18239	-8.89	-5.32	-54.95	0.3642	0.2679	-0.3576	
-0.903776	-0.453596	0.177144	-2.24	-7.98	-55.37	0.3703	0.2676	-0.3514	
-0.862052	-0.457988	0.193126	-8.68	-11.9	-53.27	0.364	0.2749	-0.3562	
-0.852658	-0.4575	0.180438	-14.77	-8.75	-53.62	0.3534	0.268	-0.3513	
-0.870104	-0.471896	0.173484	-14.07	-6.02	-54.6	0.3499	0.2853	-0.358	
-0.854854	-0.491416	0.17751	-12.11	-10.08	-55.79	0.342	0.2938	-0.3536	
-0.852048	-0.525942	0.181658	-11.76	-14.28	-52.15	0.3282	0.2942	-0.3551	
-0.828014	-0.560712	0.182634	-7.28	-14.21	-50.82	0.3356	0.3053	-0.3539	
-0.802516	-0.589016	0.190442	-6.86	-15.12	-52.71	0.3154	0.3145	-0.3603	
-0.789096	-0.595604	0.211182	-7.63	-14.84	-52.85	0.32	0.3114	-0.3555	
-0.791292	-0.610488	0.20557	-7.49	-14.98	-50.05	0.3122	0.3173	-0.3588	
-0.756644	-0.634644	0.209718	-4.34	-18.13	-49.7	0.3059	0.3231	-0.3558	
-0.742614	-0.64965	0.199958	-2.45	-16.45	-52.22	0.295	0.3293	-0.3653	
-0.717238	-0.651968	0.20374	-7.28	-16.52	-52.01	0.2918	0.3349	-0.3607	
-0.69967	-0.653798	0.210694	-12.46	-15.05	-47.81	0.2841	0.3366	-0.3639	
-0.706136	-0.656116	0.206668	-15.75	-13.02	-42.21	0.2871	0.3409	-0.3687	
-0.694912	-0.653798	0.203374	-19.04	-11.76	-36.12	0.2683	0.3525	-0.3627	
-0.674294	-0.65697	0.22387	-26.53	-16.52	-34.51	0.2638	0.3486	-0.3704	
-0.675148	-0.731634	0.230458	-27.86	-13.58	-39.13	0.2573	0.3611	-0.3551	
-0.678686	-0.78019	0.197396	-28.07	-7.84	-36.4	0.2481	0.3632	-0.3738	
-0.683078	-0.76494	0.227408	-30.45	-8.54	-27.72	0.2524	0.3712	-0.3585	
-0.670268	-0.758108	0.19459	-15.75	-7.28	-22.47	0.2478	0.3713	-0.3585	
-0.667706	-0.760914	0.19154	-11.76	-8.54	-17.71	0.2432	0.3713	-0.3538	
-0.664412	-0.768722	0.202276	-7.28	-7.77	-15.05	0.2353	0.3788	-0.3618	
-0.671122	-0.77531	0.201056	-5.53	-4.48	-11.83	0.2399	0.3786	-0.3587	
-0.667462	-0.785436	0.201666	-2.8	-2.8	-8.61	0.2366	0.3872	-0.3605	
-0.661484	-0.79056	0.209596	-0.07	-2.03	-4.13	0.2339	0.3746	-0.3616	
-0.643062	-0.770918	0.20557	2.94	-0.63	-0.28	0.2396	0.3912	-0.3528	
-0.647454	-0.764696	0.212524	2.8	-2.52	-0.42	0.2322	0.3815	-0.354	
-0.643672	-0.791902	0.21533	5.18	-0.49	1.75	0.2383	0.3798	-0.3478	
-0.64599	-0.808128	0.215086	7	1.68	4.69	0.2368	0.3784	-0.3477	
-0.658556	-0.812764	0.219478	9.45	5.11	8.26	0.2339	0.3713	-0.3459	
-0.6527	-0.793	0.225456	12.04	5.88	10.92	0.2382	0.3872	-0.362	
-0.641598	-0.785436	0.235948	11.69	4.9	15.61	0.2459	0.384	-0.3557	
-0.64111	-0.791536	0.233264	12.81	8.19	20.72	0.2322	0.3803	-0.3618	
-0.639158	-0.774578	0.23485	13.3	11.2	24.92	0.2384	0.3756	-0.3508	
-0.652944	-0.761402	0.236192	14.35	13.93	29.05	0.2554	0.3755	-0.3618	
-0.681492	-0.774944	0.22509	15.54	18.2	35.28	0.248	0.3626	-0.352	
-0.68991	-0.769088	0.23912	16.17	20.58	45.29	0.2481	0.3599	-0.355	
-0.69113	-0.741394	0.223138	15.05	23.52	52.43	0.2726	0.3619	-0.3474	
-0.71492	-0.717116	0.215086	14.91	27.02	59.43	0.2652	0.3508	-0.3486	
-0.718824	-0.694302	0.2074	16.03	28.42	67.06	0.2945	0.3475	-0.358	
-0.728096	-0.669658	0.201666	15.68	30.17	70.63	0.2887	0.3348	-0.3561	
-0.735538	-0.62952	0.190686	15.61	31.64	71.33	0.3151	0.3242	-0.3528	
-0.746518	-0.598532	0.163968	16.38	32.69	70.91	0.3229	0.3182	-0.3479	
-0.765428	-0.57279	0.137982	15.12	33.39	73.64	0.3352	0.3195	-0.3543	
-0.806664	-0.540338	0.110654	12.74	31.99	74.62	0.3475	0.3175	-0.3434	
-0.822158	-0.503006	0.110776	10.78	27.51	73.22	0.3666	0.2899	-0.3349	
-0.850584	-0.475678	0.114192	9.17	24.36	70	0.3557	0.2945	-0.3396	
-0.849974	-0.448106	0.119682	7.42	17.64	65.24	0.376	0.2841	-0.3394	
-0.870836	-0.439322	0.122488	5.46	13.02	67.34	0.3699	0.28	-0.3393	
-0.856196	-0.4026	0.124318	5.25	14.7	61.6	0.3995	0.2635	-0.3311	
-0.903898	-0.372588	0.1159	0.77	14.98	65.87	0.395	0.2595	-0.3357	
-0.904874	-0.329766	0.114436	-1.61	11.76	67.27	0.3997	0.2561	-0.3216	
-0.91561	-0.29951	0.104798	-3.08	10.64	68.95	0.4093	0.2417	-0.3196	
-0.930616	-0.26291	0.09638	-6.3	9.24	69.79	0.4065	0.2304	-0.3193	
-0.952942	-0.238266	0.095892	-10.36	7.49	71.61	0.4248	0.2344	-0.3242	
-0.979904	-0.219844	0.091988	-11.62	6.16	73.5	0.4193	0.2103	-0.3188	
-0.986492	-0.187392	0.09028	-15.61	3.01	74.48	0.4241	0.2029	-0.3123	
-0.992836	-0.159332	0.100894	-17.92	-0.63	72.66	0.4362	0.2099	-0.3204	
-0.992104	-0.132248	0.110898	-19.04	-5.11	71.68	0.4353	0.1872	-0.3166	
-0.985882	-0.107848	0.123586	-14.42	-7.7	69.51	0.4369	0.1858	-0.3197	
-1.002962	-0.080032	0.128954	-13.79	-7.63	68.67	0.4371	0.1774	-0.3226	
-0.991006	-0.044164	0.134566	-10.78	-9.17	64.82	0.4465	0.1713	-0.3162	
-0.967582	-0.007076	0.142008	-7.21	-11.41	60.83	0.4264	0.1744	-0.3068	
-0.975512	0.011834	0.135908	-3.01	-8.33	58.31	0.4361	0.159	-0.3236	
-0.973194	0.007808	0.129442	1.4	-7.63	58.03	0.4391	0.1587	-0.3127	
-0.97844	0.00427	0.122976	6.37	-7.84	60.62	0.447	0.1516	-0.3203	
-0.989054	0.007442	0.109922	8.54	-9.52	62.3	0.4443	0.1388	-0.3152	
-0.986858	0.02013	0.116754	8.96	-12.39	62.51	0.4385	0.1278	-0.3211	
-0.99003	0.041724	0.107116	4.97	-16.94	65.31	0.4495	0.1161	-0.3161	
-0.992104	0.0549	0.110166	5.18	-21	67.41	0.445	0.115	-0.3239	
-0.991616	0.050386	0.118706	5.39	-23.52	70.07	0.4422	0.1023	-0.325	
-0.983198	0.062342	0.13908	5.53	-25.2	69.51	0.4441	0.0911	-0.331	
-0.97478	0.089426	0.148352	7.91	-27.02	68.74	0.4305	0.0799	-0.3212	
-0.975268	0.122	0.155672	6.3	-27.58	67.34	0.4368	0.0773	-0.3352	
-0.97478	0.139568	0.164334	7.98	-27.58	66.92	0.4404	0.059	-0.3456	
-0.985638	0.17507	0.173606	7.98	-28.49	65.24	0.4282	0.0579	-0.3424	
-0.984174	0.229604	0.184098	3.85	-29.47	61.81	0.4252	0.0551	-0.3438	
-0.96441	0.245952	0.182268	2.59	-30.59	63.07	0.4314	0.0537	-0.35	
-0.95953	0.239974	0.21411	1.75	-34.16	65.8	0.4274	0.033	-0.365	
-0.948672	0.261812	0.237412	2.73	-33.88	63.84	0.4167	0.0314	-0.3493	
-0.91988	0.293654	0.259006	4.34	-31.22	63.21	0.4203	0.0115	-0.3472	
-0.914634	0.313418	0.259372	6.16	-29.75	62.58	0.4035	0.007999999	-0.3594	
-0.896578	0.316834	0.252784	6.44	-30.45	62.3	0.4067	0.0036	-0.3578	
-0.891698	0.327814	0.274866	9.38	-35.21	66.15	0.3852	0.0058	-0.3655	
-0.881328	0.346602	0.275964	7.21	-36.68	69.58	0.3903	-0.0112	-0.3666	
-0.864004	0.356972	0.279868	9.73	-40.39	68.67	0.3858	-0.0166	-0.3711	
-0.845216	0.386862	0.292678	13.72	-45.78	67.2	0.3769	-0.0245	-0.3864	
-0.81557	0.410408	0.287432	16.52	-47.6	67.34	0.3694	-0.033	-0.3799	
-0.793854	0.412604	0.306586	18.55	-50.54	67.13	0.3575	-0.0453	-0.3826	
-0.747372	0.450302	0.300242	21.63	-49.77	66.36	0.3531	-0.0507	-0.3902	
-0.722972	0.495442	0.30134	23.1	-47.46	67.9	0.3378	-0.0516	-0.3932	
-0.727852	0.527772	0.33672	23.24	-46.76	66.71	0.3258	-0.0626	-0.3959	
-0.758596	0.611098	0.399794	25.06	-49.35	63.91	0.3107	-0.0735	-0.3955	
-0.73627	0.65575	0.418582	22.89	-51.73	59.22	0.3249	-0.0851	-0.3999	
-0.683078	0.654286	0.44713	20.44	-53.27	56.14	0.2929	-0.0942	-0.3995	
-0.651602	0.650992	0.442494	17.85	-43.19	53.97	0.2853	-0.0966	-0.4103	
-0.6466	0.666486	0.428708	18.9	-34.79	47.32	0.2704	-0.1119	-0.4051	
-0.637694	0.68442	0.4209	17.57	-27.86	38.99	0.2626	-0.1072	-0.4161	
-0.637694	0.690276	0.413824	19.46	-24.5	32.97	0.2536	-0.1171	-0.4064	
-0.63745	0.701988	0.410042	21.63	-22.19	28.21	0.2477	-0.1238	-0.4139	
-0.624518	0.710772	0.41419	20.23	-21.07	25.41	0.2414	-0.1183	-0.4047	
-0.616588	0.726876	0.413458	17.92	-19.88	22.54	0.2416	-0.1252	-0.4092	
-0.607682	0.751154	0.417606	13.72	-18.48	19.25	0.2343	-0.1377	-0.4103	
-0.593042	0.786168	0.421144	14.77	-17.43	17.29	0.2329	-0.1435	-0.4055	
-0.586332	0.770552	0.421388	10.78	-16.52	11.55	0.228	-0.135	-0.401	
-0.566446	0.776652	0.430904	8.61	-16.24	7.98	0.2266	-0.1374	-0.4165	
-0.565104	0.790072	0.447008	3.78	-15.75	8.96	0.219	-0.1402	-0.4102	
-0.54351	0.804468	0.430904	1.89	-14.77	8.82	0.2143	-0.1372	-0.4118	
-0.527284	0.780434	0.447252	-1.54	-12.18	7.63	0.2268	-0.1475	-0.4085	
-0.551074	0.772992	0.451766	-0.56	-10.08	8.68	0.2219	-0.1348	-0.4026	
-0.540948	0.775798	0.459208	-2.17	-10.29	7.56	0.2176	-0.1488	-0.4037	
-0.521428	0.785314	0.454938	-3.78	-9.45	4.55	0.2054	-0.1514	-0.4036	
-0.528138	0.781898	0.464454	-5.81	-7.84	3.22	0.2052	-0.1426	-0.4147	
-0.53558	0.768112	0.477996	-6.44	-4.97	1.54	0.2005	-0.1414	-0.4023	
-0.542778	0.75701	0.476776	-6.58	-3.01	-1.26	0.1976	-0.144	-0.4084	
-0.532896	0.76616	0.476898	-5.6	-1.12	-4.48	0.2065	-0.1342	-0.4103	
-0.53314	0.780922	0.479094	-4.9	3.08	-8.05	0.1991	-0.141	-0.4132	
-0.532652	0.76982	0.47763	-7.42	4.83	-11.9	0.2125	-0.1286	-0.4136	
-0.544242	0.759084	0.485194	-8.89	4.48	-16.1	0.2098	-0.1413	-0.4117	
-0.54229	0.765306	0.490196	-11.13	7.42	-19.46	0.2237	-0.1416	-0.4164	
-0.54046	0.762012	0.487878	-13.23	9.59	-24.85	0.2186	-0.1258	-0.4184	
-0.545096	0.752618	0.480802	-16.31	12.11	-31.01	0.2264	-0.1303	-0.4152	
-0.560468	0.7381	0.48007	-17.92	13.37	-36.89	0.2339	-0.1234	-0.417	
-0.571936	0.726876	0.480924	-19.04	15.26	-40.46	0.2277	-0.1206	-0.4093	
-0.588528	0.7198	0.485682	-19.53	15.26	-42.63	0.2397	-0.1107	-0.4221	
-0.60329	0.706136	0.473726	-20.86	18.2	-45.71	0.2443	-0.1092	-0.4299	
-0.616344	0.673318	0.480924	-23.66	20.16	-50.47	0.2503	-0.1023	-0.427	
-0.61732	0.656238	0.487878	-25.62	20.93	-52.36	0.2514	-0.0882	-0.4259	
-0.645624	0.656482	0.485072	-24.85	24.92	-53.76	0.2651	-0.0859	-0.4183	
-0.650504	0.633302	0.470066	-26.32	22.54	-52.22	0.2772	-0.0746	-0.4296	
-0.667828	0.596336	0.454938	-28.84	29.54	-57.54	0.2833	-0.0781	-0.4108	
-0.691862	0.557906	0.439078	-31.99	37.45	-56.28	0.2924	-0.0708	-0.4266	
-0.714676	0.515694	0.429318	-34.23	39.27	-54.32	0.2951	-0.0597	-0.4207	
-0.740052	0.482144	0.418216	-34.23	41.16	-55.09	0.2978	-0.0443	-0.4165	
-0.764086	0.451766	0.414922	-30.45	40.11	-57.82	0.3053	-0.0404	-0.412	
-0.779458	0.434198	0.416142	-26.39	38.78	-57.75	0.3233	-0.0253	-0.4126	
-0.806786	0.413946	0.427732	-25.13	38.92	-58.1	0.3188	-0.0264	-0.4187	
-0.841922	0.40565	0.417728	-23.45	39.62	-57.33	0.3476	-0.0146	-0.413	
-0.881572	0.381738	0.392108	-24.36	41.65	-55.09	0.3398	-0.01	-0.4162	
-0.89975	0.319152	0.36112	-23.66	40.18	-51.59	0.3533	-0.0007	-0.4057	
-0.891454	0.252784	0.333548	-23.03	37.52	-49.98	0.3577	0.0056	-0.3856	
-0.904386	0.219844	0.312198	-19.11	37.8	-50.19	0.35	0.0077	-0.4059	
-0.919758	0.194712	0.289628	-18.62	38.29	-52.5	0.3649	0.0225	-0.3908	
-0.928298	0.17568	0.283772	-19.32	37.87	-54.04	0.3876	0.0346	-0.3866	
-0.9211	0.15616	0.279136	-17.92	36.82	-54.11	0.3829	0.0407	-0.3992	
-0.91561	0.152012	0.279746	-16.1	33.81	-55.09	0.3935	0.0414	-0.3822	
-0.921466	0.165432	0.269498	-17.15	33.39	-56.7	0.398	0.0484	-0.3855	
-0.923296	0.160674	0.25254	-17.15	31.64	-56.07	0.3933	0.0484	-0.3777	
-0.923906	0.143472	0.252174	-12.74	29.33	-54.67	0.388	0.0724	-0.3706	
-0.92537	0.10797	0.251808	-7.14	26.95	-51.52	0.4048	0.07759999	-0.3709	
-0.941962	0.095648	0.240706	-1.75	25.06	-48.72	0.3986	0.0777	-0.3693	
-0.960262	0.104798	0.234972	1.82	24.29	-48.58	0.4063	0.0774	-0.3646	
-0.971242	0.126148	0.241316	-0.49	24.57	-46.69	0.4092	0.0812	-0.3523	
-0.976732	0.144082	0.238144	-6.09	21.56	-43.89	0.415	0.0955	-0.3621	
-0.97295	0.151524	0.232532	-6.51	14.56	-43.47	0.4101	0.1057	-0.367	
-0.966484	0.142252	0.236558	-8.19	10.15	-40.25	0.4098	0.1153	-0.358	
-0.96807	0.128466	0.229848	-13.79	9.03	-38.08	0.416	0.1153	-0.3627	
-0.969168	0.110044	0.23729	-15.75	8.96	-39.48	0.4204	0.1176	-0.3472	
-0.95892	0.100406	0.239242	-20.58	11.62	-41.02	0.411	0.1266	-0.3583	
-0.960872	0.086742	0.23424	-21.84	12.18	-40.11	0.4185	0.135	-0.3602	
-0.93696	0.046604	0.245708	-16.17	9.94	-44.73	0.4091	0.1408	-0.3572	
-0.928176	0.016592	0.25925	-17.5	16.24	-50.61	0.4213	0.1415	-0.3401	
-0.906704	-0.01037	0.250222	-16.87	25.41	-58.59	0.4166	0.1462	-0.3527	
-0.907924	-0.035136	0.234484	-13.23	28	-60.27	0.4118	0.1531	-0.3435	
-0.919514	-0.072102	0.207644	-11.41	32.83	-65.17	0.4188	0.1785	-0.3474	
-0.925736	-0.099674	0.188734	-5.53	35	-67.76	0.4065	0.1742	-0.3317	
-0.937814	-0.136884	0.161162	2.66	33.46	-69.93	0.4247	0.1836	-0.3305	
-0.935618	-0.14762	0.144082	6.93	35	-68.04	0.4245	0.1905	-0.326	
-0.963922	-0.171166	0.12261	5.25	33.6	-67.97	0.4212	0.1992	-0.3294	
-0.976244	-0.180804	0.0976	10.36	34.09	-72.1	0.4164	0.2078	-0.328	
-0.963434	-0.204716	0.097722	11.62	25.06	-80.78	0.4055	0.2123	-0.3265	
-1.002352	-0.243756	0.070394	19.88	24.92	-80.92	0.4142	0.229	-0.3271	
-1.019676	-0.276574	0.054534	15.54	22.96	-83.72	0.4172	0.233	-0.3179	
-1.006866	-0.317444	0.047458	15.47	17.78	-82.18	0.4124	0.2386	-0.3133	
-0.994788	-0.34892	0.035014	13.65	12.18	-78.19	0.3983	0.2489	-0.3151	
-0.98454	-0.380518	0.027084	7.49	7.77	-74.27	0.3997	0.2546	-0.3184	
-0.969656	-0.397598	0.035014	2.8	1.75	-67.9	0.4036	0.2784	-0.3114	
-0.943792	-0.408456	0.049532	3.08	-3.99	-66.36	0.3886	0.2694	-0.3313	
-0.901092	-0.425292	0.065514	-0.56	-11.34	-64.4	0.3867	0.2819	-0.3207	
-0.881816	-0.453596	0.086742	-2.73	-16.45	-58.24	0.3866	0.2861	-0.3193	
-0.851316	-0.45811	0.121756	-3.15	-23.1	-57.26	0.3774	0.2837	-0.3254	
-0.8113	-0.488366	0.16287	-6.3	-25.9	-57.89	0.3711	0.2925	-0.3319	
-0.782752	-0.542412	0.169702	-6.58	-21.28	-52.78	0.3553	0.3116	-0.3417	
-0.772382	-0.59841	0.176778	-12.88	-13.09	-51.38	0.3431	0.306	-0.3321	
-0.764086	-0.597556	0.176046	-17.5	-5.39	-53.27	0.3365	0.3246	-0.3357	
-0.777872	-0.58621	0.146766	-26.88	-0.35	-46.76	0.3242	0.322	-0.3309	
-0.807884	-0.600606	0.124684	-27.65	-0.77	-41.37	0.3316	0.3346	-0.3329	
-0.803126	-0.607438	0.108946	-20.02	-1.75	-40.67	0.3268	0.3385	-0.3174	
-0.795928	-0.619638	0.110288	-21.07	-3.85	-34.37	0.3157	0.3532	-0.3271	
-0.798368	-0.649772	0.104432	-16.8	-2.38	-34.23	0.3097	0.3475	-0.3207	
-0.787754	-0.648552	0.089792	-15.68	-5.67	-33.46	0.3189	0.3491	-0.3348	
-0.813374	-0.687836	0.096746	-13.93	-8.82	-31.29	0.3079	0.3576	-0.3241	
-0.798612	-0.718702	0.089426	-9.87	-7.14	-28.42	0.3124	0.3602	-0.3195	
-0.783118	-0.721142	0.09162199	-10.5	-7.84	-27.16	0.3077	0.3616	-0.3149	
-0.767258	-0.71858	0.104798	-9.59	-11.41	-23.52	0.303	0.366	-0.3165	
-0.757864	-0.71553	0.11224	-11.27	-13.72	-17.57	0.2935	0.379	-0.3169	
-0.749446	-0.706502	0.137494	-9.1	-15.47	-16.87	0.2861	0.3681	-0.3274	
-0.763232	-0.737002	0.147498	-7.42	-17.22	-17.29	0.2874	0.3778	-0.3215	
-0.735538	-0.760548	0.157746	-2.52	-15.05	-10.36	0.289	0.3766	-0.3293	
-0.716018	-0.804834	0.156648	-0.63	-13.16	-0.28	0.283	0.3712	-0.3337	
-0.693936	-0.815204	0.180438	-8.68	-4.69	3.29	0.2798	0.3739	-0.326	
-0.70394	-0.752252	0.12078	7.63	-5.04	9.94	0.2707	0.3712	-0.3228	
-0.731878	-0.740662	0.14335	8.33	-1.96	19.88	0.2922	0.371	-0.3353	
-0.728462	-0.73749	0.133468	8.68	-2.66	27.65	0.2771	0.3613	-0.3303	
-0.729438	-0.741394	0.136396	8.4	-0.28	37.24	0.2907	0.3693	-0.3244	
-0.740174	-0.738344	0.128222	11.69	2.45	43.26	0.303	0.3692	-0.3322	
-0.751764	-0.723826	0.12139	11.13	4.69	52.01	0.3095	0.3564	-0.3365	
-0.761646	-0.70577	0.129686	12.81	5.74	56.91	0.3095	0.3532	-0.3193	
-0.773724	-0.685396	0.126636	15.12	5.39	57.12	0.316	0.3405	-0.3268	
-0.782386	-0.649772	0.115778	16.45	5.46	61.88	0.3179	0.3306	-0.3312	
-0.799222	-0.614514	0.113094	13.72	6.72	68.04	0.3268	0.3386	-0.319	
-0.81862	-0.594506	0.115656	14.63	6.86	70.28	0.3441	0.3258	-0.3327	
-0.82106	-0.55144	0.121146	14.42	6.93	71.68	0.3519	0.32	-0.3357	
-0.828014	-0.521062	0.12871	13.37	7.56	74.27	0.3509	0.3029	-0.3321	
-0.852902	-0.51789	0.129564	12.32	6.58	76.65	0.3661	0.3067	-0.3276	
-0.839482	-0.474824	0.13115	14	4.97	75.25	0.3617	0.2984	-0.332	
-0.869128	-0.444568	0.115778	11.97	6.23	75.81	0.3838	0.2767	-0.333	
-0.87108	-0.420534	0.110166	12.39	5.18	74.62	0.3885	0.2722	-0.3313	
-0.878766	-0.360632	0.124196	7.84	4.06	74.41	0.3977	0.2732	-0.3221	
-0.912804	-0.332206	0.124928	5.95	4.76	75.32	0.3938	0.2451	-0.3259	
-0.939766	-0.274744	0.133224	5.18	0.98	73.29	0.394	0.2408	-0.3258	
-0.967338	-0.237168	0.12871	5.04	0	70.21	0.4065	0.2321	-0.3287	
-0.96197	-0.19703	0.133712	6.37	-3.36	68.95	0.4206	0.2203	-0.3253	
-0.958432	-0.150914	0.147376	4.48	-4.13	65.24	0.4118	0.205	-0.3248	
-0.955992	-0.102114	0.151158	1.89	-3.64	64.12	0.4164	0.2063	-0.3249	
-0.947452	-0.08052	0.167384	3.15	-5.18	62.3	0.435	0.2004	-0.3357	
-0.964288	-0.074542	0.150548	6.09	-4.48	64.47	0.4292	0.1893	-0.3353	
-0.97661	-0.058316	0.144936	6.51	-7.63	66.22	0.4247	0.1837	-0.3351	
-0.976976	-0.042578	0.13054	1.61	-7.42	71.96	0.4384	0.1857	-0.3181	
-0.963434	0.014884	0.144082	-7.91	-8.68	67.76	0.4389	0.1674	-0.3207	
-0.964044	0.05734	0.152988	-11.76	-10.43	62.44	0.4379	0.1507	-0.3296	
-0.996618	0.055266	0.147742	-5.18	-12.81	63.21	0.4359	0.1665	-0.3363	
-0.991372	0.036844	0.1464	1.33	-19.74	66.99	0.435	0.1437	-0.3309	
-0.96929	0.033794	0.167384	2.17	-22.4	67.2	0.4414	0.1353	-0.3416	
-0.965996	0.025986	0.18544	-1.05	-17.92	69.93	0.4432	0.127	-0.3507	
-0.947208	0.039528	0.186172	2.52	-20.44	71.61	0.4313	0.1144	-0.344	
-0.945866	0.062708	0.19215	-4.69	-19.04	71.19	0.4328	0.1128	-0.3378	
-0.961848	0.087474	0.196664	-3.71	-16.45	71.12	0.4268	0.1089	-0.3454	
-0.945134	0.095648	0.197884	-1.89	-18.62	73.57	0.4457	0.09299999	-0.3497	
-0.974414	0.100772	0.210328	1.82	-19.81	76.44	0.4352	0.08329999	-0.3463	
-0.93269	0.144936	0.185806	3.36	-23.8	79.17	0.4275	0.0835	-0.3478	
-0.943548	0.166896	0.225578	-10.29	-22.68	75.18	0.4218	0.06659999	-0.3457	
-0.951844	0.205692	0.243512	-8.96	-24.57	76.44	0.4205	0.0628	-0.3596	
-0.935984	0.245708	0.25376	-12.04	-29.4	77.49	0.4098	0.0588	-0.361	
-0.930982	0.282796	0.260104	-10.15	-29.82	74.27	0.4085	0.0504	-0.3623	
-0.923174	0.30988	0.269498	-6.51	-33.74	70.35	0.4134	0.0388	-0.3573	
-0.910486	0.33733	0.275476	-0.56	-34.23	67.97	0.4136	0.0333	-0.3618	
-0.919026	0.371246	0.27328	3.71	-33.81	65.66	0.4065	0.0154	-0.3753	
-0.895358	0.394304	0.276574	7.7	-38.92	64.47	0.403	0.0282	-0.3725	
-0.861686	0.41053	0.287676	9.1	-38.43	64.4	0.3928	0.0116	-0.3797	
-0.862906	0.41968	0.297192	11.55	-36.96	61.74	0.373	0.005	-0.3763	
-0.854732	0.44652	0.309758	8.54	-37.38	57.61	0.3735	-0.0117	-0.3867	
-0.821792	0.4758	0.302926	5.95	-39.69	57.05	0.3721	-0.0172	-0.3912	
-0.79727	0.474824	0.313662	9.45	-42	58.8	0.3615	-0.0225	-0.3926	
-0.79239	0.462746	0.323788	12.88	-41.72	59.85	0.3523	-0.0221	-0.3988	
-0.7747	0.479094	0.337452	22.12	-44.31	58.24	0.348	-0.0318	-0.4032	
-0.735782	0.51179	0.351604	29.4	-48.37	50.75	0.342	-0.036	-0.3983	
-0.714066	0.579134	0.366122	37.03	-47.32	48.09	0.3301	-0.0483	-0.4041	
-0.681614	0.61061	0.398208	41.86	-48.09	45.36	0.3227	-0.0607	-0.41	
-0.660264	0.626714	0.413824	39.48	-51.45	44.38	0.3184	-0.0704	-0.4159	
-0.664534	0.65697	0.433588	39.76	-44.17	43.61	0.3002	-0.0803	-0.3984	
-0.654896	0.692228	0.464332	36.26	-42.35	39.27	0.2925	-0.08	-0.403	
-0.630618	0.71431	0.46055	29.4	-31.78	32.13	0.2807	-0.0936	-0.4119	
-0.617442	0.729804	0.44835	27.93	-21.91	27.58	0.2781	-0.1117	-0.4191	
-0.611464	0.717482	0.427366	24.22	-17.71	26.32	0.2823	-0.09649999	-0.4103	
-0.625616	0.71675	0.416752	25.9	-14.7	26.6	0.2686	-0.1017	-0.4147	
-0.64172	0.700646	0.416996	17.22	-12.67	22.75	0.2718	-0.1075	-0.4114	
-0.63379	0.706014	0.424194	7.63	-14.35	21.21	0.2722	-0.1217	-0.4126	
-0.637328	0.743346	0.421632	-0.77	-14.98	25.9	0.2644	-0.1158	-0.4127	
-0.614392	0.746274	0.430416	-7.35	-17.15	21.07	0.2522	-0.1167	-0.4188	
-0.583648	0.747982	0.432978	-4.41	-15.19	11.41	0.2492	-0.1226	-0.4093	
-0.600728	0.726388	0.436638	-0.28	-9.52	5.18	0.2415	-0.1222	-0.4155	
-0.60817	0.707722	0.438712	4.41	-7.49	-0.77	0.2398	-0.115	-0.4188	
-0.605242	0.720044	0.434442	6.58	-7.56	-4.06	0.2415	-0.1223	-0.414	
-0.585356	0.716994	0.440786	5.04	-8.4	-4.9	0.2368	-0.118	-0.4109	
-0.57279	0.724314	0.453474	8.75	-6.93	-2.94	0.2386	-0.1295	-0.4059	
-0.587674	0.724192	0.44896	8.96	-3.08	-3.36	0.24	-0.1223	-0.4093	
-0.596092	0.7198	0.450912	8.89	-3.22	-7.28	0.2398	-0.1182	-0.4047	
-0.58316	0.726266	0.44347	5.95	-1.89	-10.64	0.2417	-0.1265	-0.4138	
-0.58255	0.730414	0.452376	7	-1.75	-12.04	0.2385	-0.1236	-0.4139	
-0.585234	0.724924	0.444324	9.1	-1.05	-14.35	0.2508	-0.124	-0.4093	
-0.59963	0.721264	0.450424	10.36	-0.56	-17.22	0.2507	-0.1211	-0.4125	
-0.599142	0.717604	0.453474	7.91	0.49	-19.46	0.2506	-0.1187	-0.397	
-0.605608	0.715164	0.447618	7.35	0.49	-23.31	0.2509	-0.1285	-0.4014	
-0.61061	0.72468	0.448106	7.21	0.21	-26.18	0.2567	-0.1189	-0.397	
-0.608048	0.741394	0.441518	6.72	0.56	-26.46	0.2477	-0.1237	-0.4171	
-0.609268	0.749324	0.443836	3.36	3.78	-28.98	0.2537	-0.1198	-0.411	
-0.613538	0.740174	0.437492	-0.28	7.35	-31.78	0.2616	-0.1258	-0.4062	
-0.624396	0.719068	0.442982	-4.62	8.61	-33.32	0.2614	-0.1216	-0.4047	
-0.623908	0.71614	0.44225	-8.75	9.8	-35.14	0.2595	-0.1073	-0.4067	
-0.625494	0.70821	0.444202	-12.81	12.32	-37.66	0.2687	-0.1077	-0.4005	
-0.630374	0.704184	0.443348	-16.59	14	-38.78	0.2747	-0.1007	-0.4039	
-0.631594	0.683444	0.443348	-22.12	15.61	-40.39	0.287	-0.1023	-0.4101	
-0.650016	0.653554	0.440054	-23.73	18.62	-40.18	0.2929	-0.0927	-0.4026	
-0.667218	0.624762	0.437614	-25.2	19.6	-38.64	0.2896	-0.0841	-0.4029	
-0.682712	0.603168	0.432368	-27.51	26.04	-38.29	0.3049	-0.083	-0.4061	
-0.709552	0.586332	0.417728	-31.92	35.21	-44.94	0.3139	-0.0762	-0.4048	
-0.748836	0.568398	0.412848	-34.23	40.25	-52.01	0.3169	-0.0721	-0.4018	
-0.761158	0.539484	0.403942	-38.15	44.03	-55.02	0.3271	-0.0509	-0.4103	
-0.778726	0.51179	0.400038	-37.66	49.56	-58.8	0.3362	-0.05	-0.401	
-0.806664	0.48434	0.391498	-39.48	49.42	-64.89	0.3387	-0.0287	-0.4048	
-0.81557	0.459452	0.357704	-40.67	51.8	-70.56	0.3542	-0.032	-0.4032	
-0.851682	0.401746	0.313662	-49.14	63.14	-76.65	0.3659	-0.0127	-0.3945	
-0.888526	0.358436	0.265594	-49.28	69.79	-68.11	0.3609	0.0001	-0.3964	
-0.90585	0.295606	0.238022	-45.29	64.26	-70.35	0.3774	0.0136	-0.3844	
-0.924638	0.26047	0.207766	-39.13	62.72	-71.68	0.3958	0.013	-0.3798	
-0.925248	0.230824	0.188734	-36.19	58.31	-73.08	0.4058	0.0395	-0.3744	
-0.91866	0.198372	0.177998	-32.27	52.64	-73.36	0.4024	0.0507	-0.37	
-0.935862	0.168726	0.16897	-25.34	52.64	-71.82	0.4065	0.0656	-0.3456	
-0.954894	0.145302	0.16287	-21.77	48.72	-71.68	0.4187	0.0697	-0.352	
-0.958188	0.136518	0.162016	-13.23	40.46	-71.19	0.423	0.081	-0.3555	
-0.945256	0.122732	0.147254	-5.67	34.02	-68.95	0.4321	0.08329999	-0.3462	
-0.96441	0.086742	0.153842	-0.84	33.32	-66.64	0.4348	0.09429999	-0.3357	
-0.961482	0.0549	0.145424	8.47	26.74	-62.65	0.4286	0.1003	-0.342	
-0.983076	0.031476	0.137982	11.83	27.65	-58.59	0.433	0.1043	-0.3391	
-1.005646	0.025498	0.12383	11.9	30.87	-56.49	0.4465	0.1152	-0.3332	
-1.00406	0.019886	0.125904	6.65	26.11	-53.76	0.4417	0.1221	-0.3241	
-1.00101	0.015128	0.109678	3.92	25.62	-48.51	0.4416	0.1278	-0.3258	
-1.007232	-0.001098	0.103822	-1.26	25.06	-43.19	0.4459	0.1378	-0.3323	
-1.011746	-0.026474	0.099552	-3.64	21.91	-37.45	0.4491	0.1334	-0.3276	
-1.015772	-0.062342	0.09394	-1.61	17.29	-34.09	0.4518	0.1429	-0.3169	
-1.012478	-0.086376	0.099918	-7.42	15.54	-28.21	0.444	0.1519	-0.3265	
-1.01199	-0.10431	0.088816	-12.32	13.79	-20.65	0.4485	0.1526	-0.3063	
-1.016382	-0.117242	0.08662	-12.32	12.46	-13.72	0.4515	0.1556	-0.3158	
-1.021506	-0.132736	0.094184	-14.7	12.32	-9.73	0.4591	0.1552	-0.308	
-1.01199	-0.137494	0.101626	-13.44	9.66	-4.62	0.4482	0.1609	-0.2972	
-1.01016	-0.137128	0.108946	-9.59	8.68	-2.31	0.45	0.1557	-0.3158	
-1.00833	-0.12749	0.116388	-7.84	6.86	-0.91	0.4436	0.1614	-0.3112	
-1.004426	-0.125538	0.11834	-9.17	6.23	0.84	0.4607	0.1523	-0.3064	
-1.004304	-0.117242	0.111508	-5.6	5.25	3.08	0.4496	0.1666	-0.3021	
-1.004548	-0.124318	0.116144	-2.66	1.96	4.97	0.4668	0.1547	-0.2971	
-1.00955	-0.11651	0.11773	-3.36	1.05	5.25	0.4559	0.161	-0.3082	
-1.006134	-0.10492	0.114802	-2.38	-1.54	7.07	0.4558	0.165	-0.3005	
-0.999302	-0.10126	0.119926	-0.42	-2.73	5.74	0.4513	0.1596	-0.3065	
-0.998082	-0.090036	0.12444	-0.07	-1.96	3.5	0.456	0.1567	-0.3065	
-0.996862	-0.073688	0.121512	-0.63	-0.14	1.82	0.4438	0.1527	-0.3063	
-1.00467	-0.059902	0.116144	-1.75	1.12	3.64	0.4499	0.1537	-0.2954	
-1.000156	-0.053192	0.112972	2.8	-0.21	4.48	0.4483	0.1564	-0.2893	
-1.004792	-0.049898	0.112728	3.85	0.7	4.2	0.4577	0.1523	-0.3048	
-1.006744	-0.032452	0.113094	2.24	1.26	4.62	0.4636	0.1577	-0.2988	
-1.009428	-0.021228	0.108336	3.71	1.26	5.46	0.4485	0.1513	-0.3094	
-1.00589	-0.014396	0.108336	5.04	-0.21	5.81	0.4454	0.1495	-0.2922	
-1.009062	-0.002806	0.10797	3.78	-0.49	6.37	0.4513	0.158	-0.3003	
-1.014552	0.012444	0.104798	1.96	0.49	6.93	0.4517	0.1467	-0.3015	
-1.009428	0.0183	0.104798	0.84	-0.84	7.21	0.4485	0.1511	-0.3032	
-1.007354	0.02074	0.104188	0.42	-0.7	7.42	0.4593	0.1495	-0.3047	
-1.017724	0.028182	0.099308	-1.12	0.63	8.26	0.4607	0.1551	-0.3065	
-1.020286	0.033062	0.096502	-1.26	0.42	8.75	0.4548	0.1454	-0.3061	
-1.011014	0.031842	0.099918	-1.26	-1.33	7.42	0.4564	0.1423	-0.2998	
-1.012844	0.033916	0.09882	-1.96	-0.84	6.79	0.4608	0.1507	-0.2985	
-1.014552	0.036234	0.096746	-2.66	-1.4	7.07	0.4549	0.1426	-0.3076	
-1.012356	0.034892	0.097234	-1.33	-3.36	6.93	0.4594	0.1467	-0.3078	
-1.009672	0.02806	0.100772	0.14	-3.92	6.37	0.4535	0.1353	-0.2996	
-1.006988	0.02928	0.099918	-0.07	-3.08	6.16	0.4655	0.1449	-0.2968	
-1.013088	0.035868	0.102724	-0.63	-2.52	5.25	0.452	0.1371	-0.3121	
-1.013576	0.037088	0.100894	-0.21	-2.94	4.41	0.4597	0.1353	-0.3027	
-1.009428	0.02867	0.102602	3.01	-4.06	3.92	0.4564	0.1409	-0.2982	
-1.010648	0.025742	0.103578	5.04	-4.2	2.52	0.4626	0.1411	-0.3123	
-1.007354	0.027938	0.102358	3.92	-3.5	1.75	0.4519	0.1385	-0.3106	
-1.011136	0.028792	0.103578	5.67	-3.85	1.4	0.4628	0.1338	-0.3027	
-1.008696	0.031232	0.106384	4.62	-4.13	0.42	0.4549	0.1412	-0.3076	
-1.006622	0.030744	0.109434	4.9	-5.04	0.91	0.4536	0.1326	-0.3042	
-1.013088	0.02318	0.107116	5.32	-5.67	2.87	0.4548	0.144	-0.3092	
-1.015406	0.009028	0.105408	6.3	-5.18	3.92	0.4519	0.1364	-0.2872	
-1.014308	0.014152	0.11041	8.05	-6.23	1.19	0.4522	0.1287	-0.315	
-1.001864	0.027206	0.113338	6.02	-6.44	-0.14	0.458	0.1397	-0.3075	
-1.00833	0.040748	0.111874	8.89	-5.18	1.05	0.4565	0.1397	-0.3075	
-1.00955	0.035014	0.116144	7.56	-6.02	1.33	0.4503	0.1412	-0.3044	
-1.010038	0.030378	0.123342	7.35	-5.46	0.35	0.4599	0.13	-0.3182	
-1.010526	0.038918	0.126514	4.2	-3.78	-0.91	0.4475	0.1344	-0.3136	
-1.005158	0.049532	0.13115	1.89	-4.48	0.35	0.4507	0.1274	-0.3165	
-1.000766	0.044164	0.136396	2.52	-5.04	1.19	0.4599	0.1285	-0.315	
-0.997838	0.040382	0.138958	0.91	-4.62	2.52	0.4431	0.123	-0.3054	
-1.006012	0.041846	0.138836	-1.19	-3.15	3.36	0.4491	0.1331	-0.3198	
-0.999302	0.04331	0.142862	-3.78	-3.36	3.36	0.4446	0.1291	-0.3243	
-1.000278	0.037454	0.145058	-3.36	-3.29	4.13	0.449	0.1346	-0.3229	
-0.998692	0.038552	0.145058	-3.5	-2.94	4.41	0.4444	0.1361	-0.3214	
-1.003938	0.039528	0.143472	-3.92	-1.96	4.48	0.449	0.1314	-0.3072	
-1.004304	0.03904	0.138714	-3.78	-1.89	4.2	0.4493	0.1216	-0.3132	
-1.007232	0.043188	0.140788	-3.92	-1.89	4.27	0.4462	0.1247	-0.3195	
-1.004914	0.035624	0.139812	-0.91	-3.85	4.06	0.4428	0.1376	-0.3214	
-1.003572	0.02989	0.143472	-0.49	-3.5	2.66	0.4552	0.1314	-0.312	
-1.00345	0.039406	0.143716	-0.98	-2.38	1.68	0.4584	0.1289	-0.329	
-1.00406	0.04148	0.147498	-0.14	-1.96	0.7	0.4412	0.139	-0.3215	
-1.001742	0.043188	0.15067	0.21	-1.47	-0.21	0.4465	0.1148	-0.3192	
-1.000278	0.044652	0.155062	0.91	-1.61	-0.21	0.4523	0.1273	-0.3165	
-0.998814	0.042578	0.157746	1.68	-1.4	-0.35	0.4508	0.1276	-0.3258	
-0.99613	0.044774	0.158966	2.03	-2.17	-0.7	0.4492	0.1277	-0.3289	
-0.995642	0.052216	0.159454	1.89	-1.47	-0.56	0.4478	0.1233	-0.321	
-0.996496	0.054778	0.159576	1.96	-1.4	-0.42	0.4416	0.1279	-0.3289	
-1.000522	0.055022	0.157868	1.61	-0.98	0.07	0.4433	0.1206	-0.3209	
-0.99857	0.056608	0.157014	1.26	-1.54	0.63	0.4536	0.1373	-0.3215	
-0.996374	0.05429	0.15921	0.56	-1.33	1.33	0.4493	0.1234	-0.3257	
-1.000156	0.058926	0.154818	-0.14	-0.07	1.4	0.4477	0.1246	-0.3179	
-1.001376	0.061244	0.154818	-1.19	0.28	0	0.446	0.1316	-0.3135	
-1.002962	0.063318	0.152866	-1.75	0.07	-0.28	0.4492	0.129	-0.3243	
-1.003572	0.064172	0.15189	-2.45	0	-0.21	0.4307	0.1309	-0.3243	
-1.002596	0.058926	0.152866	-2.24	-0.56	0.42	0.446	0.1319	-0.3244	
-1.001498	0.054046	0.152744	-2.73	-1.05	0.49	0.4522	0.1303	-0.3228	
-0.99979	0.055144	0.153232	-2.59	-0.84	-0.07	0.443	0.1305	-0.3212	
-1.0004	0.050752	0.15128	-2.17	-0.98	-0.7	0.4479	0.1192	-0.3271	
-1.002474	0.045994	0.150792	-1.89	-0.77	-0.7	0.4475	0.1346	-0.3214	
-0.999668	0.045262	0.152012	-1.05	-0.98	-1.54	0.4505	0.1374	-0.323	
-0.999912	0.047336	0.151646	-1.33	-0.56	-2.24	0.4506	0.1346	-0.3245	
-1.001498	0.044286	0.150792	0.07	0.35	-2.73	0.4386	0.1251	-0.3257	
-1.001742	0.042334	0.149938	0.35	-0.07	-3.01	0.4445	0.1351	-0.3338	
-1.003206	0.0366	0.148596	1.47	0.14	-3.22	0.4491	0.1319	-0.3244	
-1.00284	0.038186	0.147864	1.4	0.21	-3.57	0.4399	0.1305	-0.3181	
-1.001742	0.032696	0.14701	2.24	-0.07	-3.57	0.4479	0.1205	-0.3209	
-1.00467	0.034282	0.151036	3.08	0.35	-3.92	0.4493	0.1233	-0.3226	
-1.00101	0.040748	0.148474	0.49	0.35	-4.41	0.443	0.1321	-0.329	
-1.00345	0.046238	0.146766	2.45	-0.14	-3.85	0.4473	0.1417	-0.3216	
-1.005402	0.035624	0.145668	3.08	-0.56	-2.66	0.4444	0.1331	-0.3119	
-1.002474	0.025986	0.150426	4.34	-1.47	-4.48	0.4399	0.1307	-0.3274	
-0.999546	0.034038	0.152622	1.33	-0.35	-5.46	0.4445	0.1304	-0.3181	
-1.011868	0.023424	0.141398	3.08	-1.05	-2.73	0.4491	0.1319	-0.3275	
-1.025532	-0.000976	0.126148	7.56	-3.64	-1.26	0.4415	0.1291	-0.3212	
-1.042734	-0.061	0.11468	10.29	-4.41	-0.21	0.4412	0.1391	-0.3246	
-1.04981	-0.113094	0.091256	23.45	-7.42	5.67	0.4523	0.1289	-0.3228	
-1.020286	-0.165554	0.10187	42.42	-18.76	9.17	0.446	0.1331	-0.3151	
-1.009916	-0.217404	0.11407	71.68	-19.53	7.21	0.4371	0.1238	-0.3288	
-1.004792	-0.181658	0.12017	91.42	-14.21	-1.05	0.4342	0.1184	-0.3348	
-1.039196	-0.122488	0.11407	96.04	-16.59	-9.1	0.4575	0.1048	-0.3268	
-0.996618	-0.068076	0.137494	100.73	-23.94	-17.71	0.4424	0.1001	-0.3483	
-1.025288	-0.040748	0.12871	108.15	-28.49	-25.69	0.4505	0.084	-0.337	
-1.024556	-0.022936	0.13847	129.5	-29.89	-37.31	0.4259	0.0878	-0.3479	
-1.014064	-0.007442	0.149328	125.72	-30.87	-49	0.4199	0.0794	-0.3461	
-0.998448	0.02379	0.152622	123.48	-31.57	-47.39	0.4216	0.0768	-0.3553	
-1.012844	0.053314	0.169214	113.82	-31.29	-49.98	0.4252	0.0583	-0.3548	
-1.00162	0.07442	0.167628	101.64	-31.99	-56.28	0.4159	0.0585	-0.3548	
-1.003206	0.073932	0.198494	101.64	-23.8	-57.82	0.4114	0.0573	-0.3578	
-1.01748	0.043676	0.187758	103.67	-22.19	-59.85	0.41	0.053	-0.3546	
-1.014796	0.027206	0.22082	104.79	-18.41	-64.47	0.4039	0.0535	-0.367	
-0.946476	0.05612	0.259372	100.45	-11.34	-68.46	0.4056	0.0466	-0.3762	
-1.01443	0.060878	0.274866	97.93	-2.94	-61.95	0.3997	0.0381	-0.3697	
-0.987102	0.060634	0.270718	74.41	-3.15	-66.78	0.3994	0.0479	-0.3653	
-0.94672	0.04453	0.228872	77	-6.37	-72.8	0.4011	0.0421	-0.3636	
-0.966484	0.006832	0.339404	108.01	-13.09	-69.37	0.4028	0.0365	-0.365	
-0.909022	-0.000122	0.320494	85.19	-6.58	-63	0.401	0.0464	-0.3637	
-0.9638	0.012078	0.310734	74.06	-1.68	-60.2	0.3981	0.0392	-0.3588	
-1.00711	-0.018178	0.300852	69.44	-0.84	-55.51	0.4103	0.0387	-0.351	
-0.96929	-0.073566	0.320372	71.47	-5.32	-54.74	0.418	0.0401	-0.3558	
-0.904142	-0.084424	0.330132	66.5	-5.39	-51.87	0.412	0.033	-0.3493	
-0.947452	-0.091866	0.331596	58.94	-6.37	-48.44	0.4168	0.0274	-0.357	
-0.986492	-0.112484	0.327082	57.47	-6.44	-47.04	0.4228	0.0315	-0.3587	
-0.973926	-0.12017	0.33001	61.25	-12.04	-46.48	0.412	0.0331	-0.3556	
-0.930372	-0.106872	0.341844	56.91	-12.46	-43.96	0.4149	0.04	-0.3495	
-0.939644	-0.089182	0.333304	49.35	-8.96	-42.84	0.4136	0.0318	-0.3602	
-0.92659	-0.083814	0.33428	38.92	-6.51	-38.64	0.4044	0.0319	-0.3539	
-0.924882	-0.11102	0.347456	31.78	-3.15	-33.32	0.4088	0.0389	-0.3573	
-0.86742	-0.136396	0.354654	27.79	-2.45	-28.14	0.3998	0.0307	-0.3601	
-0.867786	-0.169702	0.370026	22.54	-1.4	-23.52	0.4056	0.043	-0.3496	
-0.870958	-0.153598	0.37698	17.29	-0.42	-18.13	0.4164	0.0417	-0.3636	
-0.871446	-0.160308	0.377346	11.34	0.49	-9.94	0.418	0.0416	-0.359	
-0.88694	-0.155062	0.371124	2.8	0.98	-2.31	0.4061	0.0263	-0.3584	
-0.915366	-0.15067	0.36295	-6.16	-0.42	2.66	0.4119	0.0373	-0.351	
-0.938546	-0.177388	0.35563	-11.76	-2.87	7.28	0.4169	0.0261	-0.36	
-0.92354	-0.184952	0.357826	-15.4	-5.25	10.85	0.415	0.0344	-0.3509	
-0.924516	-0.176412	0.361852	-20.02	-5.81	12.32	0.4057	0.0405	-0.3604	
-0.920368	-0.160064	0.363316	-25.62	-6.44	14.07	0.4042	0.0405	-0.3604	
-0.919636	-0.163968	0.35746	-27.65	-6.58	16.24	0.3981	0.0379	-0.3619	
-0.915366	-0.181658	0.357704	-28.63	-8.47	18.41	0.4058	0.0376	-0.3572	
-0.908656	-0.181536	0.36966	-30.66	-9.31	19.46	0.3996	0.0378	-0.3603	
-0.894016	-0.167262	0.382958	-33.88	-10.36	21.91	0.3933	0.0468	-0.3714	
-0.869128	-0.125172	0.403698	-41.16	-10.5	26.25	0.398	0.0453	-0.373	
-0.89609	-0.09516	0.402966	-50.47	-5.74	33.11	0.3917	0.0511	-0.3731	
-0.902678	-0.072346	0.38674	-57.82	-3.92	42.35	0.3887	0.0483	-0.3699	
-0.912926	-0.080398	0.381616	-66.64	-3.43	51.8	0.3994	0.048	-0.3715	
-0.925248	-0.068076	0.375516	-80.5	-3.85	59.57	0.3888	0.0425	-0.3682	
-0.907192	-0.043432	0.340502	-92.96	-3.92	69.65	0.3916	0.0554	-0.3732	
-0.945012	-0.035258	0.344162	-87.22	-2.87	78.19	0.3932	0.054	-0.3779	
-1.00223	-0.036722	0.3233	-110.18	-11.62	80.64	0.3961	0.058	-0.3718	
-1.000644	-0.03599	0.32269	-112.49	-16.94	80.64	0.3961	0.058	-0.3718	
-0.995886	-0.014518	0.311466	-110.04	-22.75	79.94	0.3854	0.0586	-0.3842	
-0.976854	-0.026596	0.31232	-113.26	-24.29	78.75	0.3851	0.0686	-0.3861	
-0.979782	-0.029402	0.312686	-114.94	-21.42	74.76	0.376	0.066	-0.3859	
-0.986858	-0.03782	0.297436	-113.05	-17.57	71.75	0.3743	0.0747	-0.394	
-0.96075	-0.098698	0.279502	-104.16	-14.7	69.09	0.3771	0.08329999	-0.4005	
-0.967216	-0.169946	0.278282	-88.83	-3.08	62.51	0.3738	0.0935	-0.407	
-0.981246	-0.151158	0.268522	-79.17	5.53	54.67	0.3723	0.0903	-0.3929	
-0.981246	-0.110166	0.257908	-72.66	12.67	46.9	0.3693	0.0876	-0.3928	
-0.983198	-0.100284	0.255224	-64.26	18.27	41.37	0.3936	0.09999999	-0.4026	
-0.99857	-0.086254	0.24766	-51.03	20.72	37.66	0.3813	0.0971	-0.3884	
-1.00589	-0.078324	0.245098	-42.42	20.72	31.29	0.3766	0.1014	-0.3885	
-0.98027	-0.06649	0.233386	-38.71	17.78	23.8	0.3874	0.0969	-0.39	
-0.981002	-0.075396	0.25925	-30.1	17.99	17.57	0.3951	0.098	-0.3823	
-0.988078	-0.05673	0.246928	-24.15	19.53	9.24	0.3902	0.105	-0.3778	
-0.971608	-0.025742	0.254248	-18.27	21.35	1.61	0.3934	0.1036	-0.3809	
-0.968314	-0.015616	0.25925	-7.84	22.12	3.36	0.3977	0.1103	-0.3702	
-0.966728	-0.032452	0.26108	-6.44	21.28	9.38	0.3949	0.1017	-0.3637	
-0.965752	-0.018544	0.286212	-9.45	23.1	15.26	0.4054	0.1103	-0.3781	
-0.98576	0.02745	0.292312	-31.43	30.03	12.11	0.4043	0.0931	-0.3682	
-1.027606	0.057706	0.252906	-52.08	33.25	8.96	0.404	0.1059	-0.3701	
-1.006256	0.085522	0.232654	-61.46	21.56	8.96	0.4314	0.1136	-0.3643	
-0.999912	0.056852	0.221186	-72.1	19.6	14	0.4098	0.1168	-0.3611	
-0.995886	0.061732	0.21472	-79.03	16.94	22.89	0.4158	0.1209	-0.3597	
-0.99125	0.06771	0.209596	-90.65	16.17	29.05	0.4246	0.1346	-0.3524	
-1.031266	0.084912	0.198738	-104.02	16.87	37.8	0.4202	0.1263	-0.3537	
-1.03456	0.085644	0.162382	-108.15	9.87	46.27	0.4306	0.1386	-0.3463	
-1.009062	0.097112	0.178364	-124.67	6.72	45.99	0.4212	0.1459	-0.3465	
-0.981856	0.089182	0.176778	-131.46	4.41	45.71	0.4274	0.1428	-0.3417	
-0.99613	0.053558	0.160064	-129.08	4.13	51.52	0.4318	0.1512	-0.3451	
-1.003206	0.050264	0.145058	-134.12	2.38	57.89	0.4378	0.1549	-0.3297	
-1.025044	0.04026	0.146034	-129.15	1.4	60.13	0.4328	0.1691	-0.3254	
-1.007842	0.031598	0.149084	-123.27	-1.12	56.63	0.4388	0.1719	-0.3302	
-1.020652	0.044164	0.14335	-123.2	1.89	55.44	0.4388	0.1716	-0.3177	
-1.020774	0.05917	0.14762	-125.09	2.87	49.35	0.4418	0.1741	-0.3116	
-1.000888	0.050996	0.145912	-115.43	-2.17	47.18	0.4491	0.1868	-0.3151	
-1.015406	0.028182	0.160552	-115.99	-3.78	38.71	0.4583	0.1864	-0.3089	
-0.999546	0.025864	0.168482	-123.62	0.35	31.22	0.4476	0.1822	-0.2994	
-0.99735	0.036966	0.178608	-122.5	-2.38	24.71	0.452	0.1903	-0.2903	
-1.016382	0.046604	0.189832	-121.73	-6.09	21.28	0.4502	0.1987	-0.2859	
-0.976976	0.04148	0.225822	-113.82	-12.11	17.64	0.45	0.2046	-0.2923	
-0.986248	0.054656	0.24095	-110.95	-14.28	19.39	0.4375	0.2132	-0.2862	
-0.985638	0.063928	0.227042	-112.77	-11.27	21.21	0.4451	0.2143	-0.2832	
-0.989298	0.037088	0.219722	-106.75	-11.76	19.46	0.4479	0.2239	-0.2742	
-0.999546	0.034282	0.23729	-115.57	-18.97	15.61	0.4526	0.2209	-0.271	
-1.007842	0.068686	0.255468	-137.76	-25.69	19.74	0.4509	0.225	-0.2633	
-0.989054	0.08967	0.249734	-137.69	-23.24	15.68	0.4567	0.2375	-0.2606	
-0.952942	0.073566	0.24644	-112.98	-18.13	12.18	0.4459	0.2392	-0.2621	
-0.960018	0.018666	0.246318	-78.12	-15.05	10.08	0.4411	0.2432	-0.2482	
-0.955504	-0.00915	0.263032	-71.82	-18.62	7.35	0.4517	0.25	-0.2485	
-0.993202	-0.017324	0.258152	-61.6	-14.77	7.77	0.4438	0.2544	-0.2439	
-0.959896	-0.027694	0.26596	-43.61	-13.09	4.41	0.4499	0.2585	-0.2456	
-0.94245	-0.035868	0.282796	-23.8	-11.55	0.07	0.4497	0.2639	-0.2348	
-0.937692	-0.0488	0.287676	-10.22	-7.63	-4.27	0.4452	0.2616	-0.2503	
-0.950868	-0.031476	0.28853	-4.62	-4.27	-8.33	0.4484	0.2572	-0.2471	
-0.956968	-0.00915	0.290482	1.12	-1.47	-11.34	0.4344	0.263	-0.241	
-0.963678	-0.012444	0.294264	10.22	1.4	-13.58	0.4344	0.2633	-0.2503	
-0.954162	-0.01037	0.293898	17.71	3.43	-13.02	0.4403	0.27	-0.2428	
-0.967216	0.00061	0.289994	24.01	4.48	-12.53	0.4419	0.2686	-0.2458	
-0.956602	-0.007808	0.28182	24.5	5.53	-12.39	0.4436	0.2661	-0.2598	
-0.978196	-0.012322	0.267912	27.37	5.88	-15.19	0.4451	0.2673	-0.2521	
-0.974902	-0.00549	0.280844	27.16	1.82	-16.03	0.4344	0.2649	-0.2597	
-0.966728	-0.005612	0.296094	28.63	2.1	-15.26	0.4357	0.2718	-0.2537	
-0.964044	-0.018788	0.30805	33.32	2.94	-15.96	0.4296	0.2689	-0.2442	
-0.961726	-0.026474	0.30988	33.88	3.15	-15.68	0.4388	0.2718	-0.2553	
-0.949892	-0.036356	0.303536	35.35	3.99	-14.7	0.4327	0.2706	-0.2568	
-0.936106	-0.04941	0.27877	42.84	5.11	-16.38	0.4298	0.2666	-0.2644	
-0.973438	-0.05124	0.264374	47.88	5.95	-18.06	0.4312	0.2708	-0.2661	
-0.9882	-0.051118	0.258518	47.67	4.41	-21.98	0.4375	0.2649	-0.2613	
-0.988688	-0.041602	0.281576	51.59	3.29	-22.82	0.4316	0.2567	-0.2672	
-0.959164	-0.042212	0.290726	52.22	4.55	-22.89	0.4267	0.2713	-0.2786	
-0.942938	-0.059658	0.286578	57.26	7.63	-22.47	0.43	0.2611	-0.2705	
-0.947696	-0.090036	0.27023	66.22	11.06	-23.45	0.4176	0.2658	-0.2752	
-0.934642	-0.090646	0.245586	80.99	13.09	-26.53	0.427	0.26	-0.2813	
-0.989542	-0.056486	0.242536	92.68	15.96	-32.34	0.4227	0.2488	-0.281	
-1.006988	-0.027206	0.254858	93.73	15.54	-34.93	0.4193	0.2603	-0.2844	
-0.975878	-0.016714	0.251686	92.61	16.24	-31.08	0.4257	0.2503	-0.2857	
-0.958798	-0.039162	0.242902	100.73	20.93	-27.58	0.4166	0.251	-0.3059	
-0.95038	-0.055876	0.220698	114.66	24.36	-24.22	0.429	0.2463	-0.2981	
-0.997472	-0.031598	0.204228	118.79	26.74	-21.49	0.4276	0.2421	-0.2995	
-1.021994	0.012322	0.194102	113.75	23.94	-22.26	0.4219	0.2255	-0.3083	
-1.009306	0.055754	0.204228	106.96	19.46	-26.53	0.4296	0.2253	-0.3068	
-1.000522	0.07015	0.200202	105.84	18.48	-21.14	0.4269	0.2142	-0.3127	
-1.00772	0.041846	0.21045	109.34	19.46	-15.96	0.4193	0.2103	-0.3203	
-0.999302	0.008784	0.206668	99.75	20.79	-15.19	0.4272	0.2044	-0.3186	
-1.012356	0.017934	0.194834	101.08	18.69	-16.17	0.4272	0.2031	-0.3217	
-1.021384	0.04392	0.17507	100.59	13.51	-21.77	0.4365	0.1999	-0.317	
-1.006378	0.050508	0.188612	95.06	8.4	-26.18	0.4246	0.1847	-0.318	
-1.00223	0.027572	0.18178	91.21	9.66	-20.09	0.4386	0.1834	-0.3352	
-1.003206	0.027084	0.182024	92.47	10.08	-18.27	0.4248	0.1777	-0.3241	
-1.00406	0.038308	0.182512	85.75	9.52	-21.07	0.4328	0.1678	-0.3285	
