Sensor string: B
Serial number: 1970-01-0000
Firmware version: 2,015
Hardware version: 2,2
Calibration quality: 5
ax	ay	az	gx	gy	gz	mx	my	mz

0.15067	-0.945622	0.279258	-0.63	-0.07	-0.07	-0.157	0.3208	-0.3808	Reference
0.149572	-0.945622	0.280234	-0.56	-0.07	-0.21	-0.1598	0.3363	-0.3854	
0.150548	-0.945256	0.282064	-0.56	-0.21	-0.21	-0.1668	0.3239	-0.3763	
0.149816	-0.94794	0.282308	-0.49	-0.28	-0.21	-0.1698	0.3145	-0.3858	
0.152012	-0.948672	0.280478	-0.42	-0.21	-0.28	-0.1597	0.3317	-0.3777	
0.148596	-0.948062	0.278038	-0.07	-0.14	-0.21	-0.1611	0.327	-0.3778	
0.14762	-0.949892	0.27755	-0.14	0	-0.28	-0.164	0.327	-0.3825	
0.1464	-0.94733	0.27877	-0.07	0	-0.28	-0.1698	0.3161	-0.3873	
0.144814	-0.94855	0.277672	-0.21	0.07	-0.28	-0.164	0.3208	-0.3794	
0.14823	-0.95099	0.274256	-0.28	-0.14	-0.14	-0.1612	0.3177	-0.3794	
0.148962	-0.950502	0.279624	-0.28	-0.07	0.07	-0.1655	0.3223	-0.3856	
0.147864	-0.952332	0.27633	0.07	0.21	0	-0.1666	0.3209	-0.3671	
0.147986	-0.948794	0.275842	0.35	0.56	-0.07	-0.1711	0.3254	-0.3826	
0.148596	-0.946354	0.277672	0.35	0.21	-0.07	-0.1613	0.3254	-0.384	
0.149328	-0.946476	0.279136	0.14	-0.07	0.07	-0.1669	0.3332	-0.384	
0.150792	-0.949648	0.279502	0.07	-0.28	0.14	-0.1611	0.3271	-0.3747	
0.153476	-0.949404	0.28182	0.07	-0.35	0.21	-0.1669	0.3208	-0.3826	
0.151158	-0.944646	0.279868	0.42	0.28	0.14	-0.1711	0.3223	-0.3826	
0.15311	-0.942938	0.280966	0.21	-0.07	0.14	-0.157	0.3193	-0.3824	
0.15128	-0.945378	0.27877	0	0.35	0	-0.164	0.3255	-0.3778	
0.151646	-0.947818	0.276818	-0.21	0	-0.14	-0.1696	0.3177	-0.378	
0.151768	-0.950014	0.277672	-0.07	-0.21	-0.14	-0.1626	0.3286	-0.3809	
0.15128	-0.94977	0.278526	0	-0.42	0.14	-0.167	0.3145	-0.3857	
0.14762	-0.951966	0.27999	-0.14	-0.21	0.49	-0.1654	0.3208	-0.3794	
0.14762	-0.948306	0.278892	-0.21	0.07	0.56	-0.1642	0.3207	-0.3887	
0.14701	-0.947452	0.277672	-0.35	0.07	0.56	-0.1611	0.3224	-0.3762	
0.146644	-0.94794	0.27511	-0.42	0.14	0.56	-0.1613	0.3208	-0.384	
0.145912	-0.948184	0.27633	-0.56	0.14	0.42	-0.1683	0.3254	-0.3857	
0.148718	-0.948916	0.276208	-0.42	0	0.35	-0.1598	0.3208	-0.3809	
0.149694	-0.949648	0.276696	-0.14	-0.28	0.28	-0.1668	0.3193	-0.3764	
0.149938	-0.947574	0.277428	0	-0.56	0.42	-0.1654	0.3348	-0.3809	
0.15067	-0.945744	0.276818	0	-0.42	0.35	-0.1596	0.324	-0.37	
0.153598	-0.948184	0.27633	-0.14	-0.28	0.14	-0.1653	0.327	-0.3763	
0.153598	-0.949648	0.277062	-0.07	-0.07	0.07	-0.1612	0.3162	-0.3794	
0.153598	-0.94794	0.27633	-0.07	0.35	-0.07	-0.1541	0.3317	-0.3791	
0.1525	-0.948184	0.276696	0	0.42	-0.28	-0.1669	0.3239	-0.3841	
0.150304	-0.949282	0.274378	0.21	0.42	-0.42	-0.1571	0.3223	-0.387	
0.14884	-0.948306	0.271816	0.35	0.28	-0.42	-0.1597	0.3224	-0.3731	
0.146278	-0.954894	0.263642	0.35	0.77	-0.42	-0.1696	0.3224	-0.3764	
0.14335	-0.96624	0.261446	1.12	0.77	-0.77	-0.1527	0.3271	-0.3791	
0.150548	-0.960628	0.27511	2.59	0.77	-1.19	-0.1596	0.3255	-0.3715	
0.151646	-0.957212	0.285968	2.17	2.52	-1.33	-0.1669	0.3332	-0.384	
0.146522	-0.958432	0.265472	3.15	3.99	-1.33	-0.1612	0.3146	-0.3778	
0.151158	-0.942206	0.270962	3.64	2.87	-1.26	-0.1599	0.3177	-0.3856	
0.156282	-0.94611	0.276696	3.5	2.24	-1.61	-0.1612	0.3162	-0.3809	
0.152622	-0.945256	0.280844	3.64	2.24	-1.61	-0.1668	0.3208	-0.3795	
0.156892	-0.945744	0.283772	3.5	1.61	-1.47	-0.1626	0.3255	-0.3793	
0.157136	-0.952942	0.303902	2.59	1.89	-1.26	-0.1585	0.3192	-0.384	
0.147864	-0.957944	0.283284	3.43	3.43	-1.05	-0.1598	0.3177	-0.3778	
0.149572	-0.951844	0.278404	4.41	3.22	-0.63	-0.1542	0.3162	-0.3792	
0.153354	-0.951234	0.286944	4.69	2.8	-0.77	-0.1713	0.3067	-0.3905	
0.153476	-0.947452	0.284748	4.9	3.15	-0.98	-0.1613	0.3254	-0.3871	
0.163602	-0.947696	0.28121	5.25	3.08	-0.84	-0.1599	0.3161	-0.3825	
0.155916	-0.94794	0.289994	5.95	3.15	-1.19	-0.1585	0.3177	-0.3871	
0.152744	-0.952454	0.285968	6.93	3.29	-1.68	-0.16	0.313	-0.3902	
0.153476	-0.952942	0.289872	8.12	2.38	-1.82	-0.1502	0.3223	-0.3915	
0.149328	-0.954406	0.291946	9.03	3.71	-1.68	-0.1672	0.3082	-0.3982	
0.143228	-0.948184	0.28731	9.94	3.15	-1.4	-0.16	0.3176	-0.3902	
0.145424	-0.945622	0.28975	10.43	2.8	-1.61	-0.1686	0.3036	-0.3998	
0.143594	-0.947086	0.289994	10.92	2.59	-2.24	-0.1627	0.3084	-0.3826	
0.141642	-0.95038	0.298168	11.55	2.1	-2.38	-0.1532	0.3052	-0.3995	
0.142252	-0.947208	0.300852	11.97	1.89	-2.31	-0.17	0.3067	-0.3982	
0.144448	-0.94184	0.304024	12.53	1.54	-2.38	-0.163	0.3145	-0.398	
0.142862	-0.946354	0.30622	13.3	1.82	-2.87	-0.1771	0.288	-0.3954	
0.146034	-0.953796	0.308416	14	1.4	-2.73	-0.1574	0.3005	-0.4011	
0.145668	-0.95099	0.307318	15.12	0.77	-2.31	-0.1575	0.3005	-0.4058	
0.146034	-0.949404	0.310124	16.45	0.56	-2.17	-0.1658	0.3036	-0.3997	
0.14823	-0.942328	0.310978	18.13	-0.84	-2.8	-0.1687	0.2973	-0.4029	
0.158112	-0.936472	0.323544	18.76	-0.49	-3.08	-0.1632	0.288	-0.406	
0.160064	-0.939156	0.318542	20.37	-0.07	-4.34	-0.1646	0.288	-0.4045	
0.158722	-0.937204	0.30805	22.68	-0.77	-2.8	-0.1577	0.2787	-0.4137	
0.154208	-0.945622	0.306708	23.66	-1.68	-3.92	-0.1688	0.2942	-0.4076	
0.165066	-0.945378	0.314394	26.46	-1.61	-5.67	-0.1662	0.2739	-0.417	
0.168238	-0.937936	0.311466	28.84	-0.98	-6.16	-0.1634	0.2786	-0.4169	
0.168116	-0.940498	0.332084	29.89	0.07	-6.72	-0.165	0.2739	-0.4247	
0.168482	-0.92903	0.330498	30.94	2.24	-7.42	-0.1691	0.2723	-0.4217	
0.173362	-0.926834	0.354654	31.78	3.43	-8.19	-0.165	0.2584	-0.4202	
0.175802	-0.91195	0.357582	34.09	4.9	-8.61	-0.1607	0.2631	-0.4185	
0.178486	-0.90768	0.376858	34.93	4.55	-9.45	-0.1693	0.2536	-0.4281	
0.178242	-0.895602	0.389302	36.54	4.97	-8.96	-0.1652	0.2474	-0.4327	
0.172386	-0.886086	0.384422	41.86	5.81	-8.96	-0.1626	0.2474	-0.4419	
0.170922	-0.87596	0.401136	44.17	3.85	-9.59	-0.1739	0.2333	-0.4423	
0.17507	-0.868518	0.416386	46.55	3.43	-9.73	-0.1711	0.2395	-0.4468	
0.169702	-0.85949	0.438102	50.47	0.49	-10.64	-0.1712	0.224	-0.4469	
0.174094	-0.852902	0.45323	52.43	1.4	-8.4	-0.1727	0.2193	-0.4501	
0.193614	-0.83509	0.461892	54.32	-2.38	-7.49	-0.1672	0.2084	-0.4563	
0.187026	-0.81679	0.476654	57.96	-0.07	-4.9	-0.173	0.2052	-0.4657	
0.218136	-0.829234	0.507398	61.46	-6.58	-3.92	-0.1758	0.2068	-0.4642	
0.2013	-0.814228	0.481168	71.19	0.21	-4.06	-0.1759	0.1897	-0.4674	
0.245708	-0.78202	0.544852	72.24	-9.8	-2.73	-0.183	0.171	-0.4708	
0.20801	-0.762134	0.523014	80.01	0.49	-4.27	-0.1788	0.1648	-0.4708	
0.24217	-0.732122	0.585844	74.83	-10.15	-5.6	-0.1831	0.1523	-0.4725	
0.19093	-0.701866	0.557662	78.68	-1.54	-5.88	-0.179	0.1368	-0.4772	
0.168238	-0.687226	0.614514	74.48	-3.5	-6.44	-0.1666	0.1414	-0.4878	
0.207522	-0.684786	0.60756	72.24	-5.39	-5.46	-0.1848	0.1181	-0.479	
0.167384	-0.650016	0.618662	76.44	-5.39	-6.23	-0.1809	0.1071	-0.4976	
0.219722	-0.64294	0.660386	76.86	-8.61	-7.56	-0.1766	0.0885	-0.4899	
0.22509	-0.599386	0.655262	82.74	-7.49	-7.21	-0.1924	0.062	-0.4997	
0.199104	-0.56608	0.731146	81.41	-8.75	-10.36	-0.1783	0.0559	-0.4964	
0.20862	-0.534238	0.705404	84.35	-7.35	-9.52	-0.191	0.048	-0.4967	
0.23363	-0.498248	0.748836	82.88	-6.44	-8.96	-0.1925	0.0356	-0.4999	
0.239242	-0.468724	0.724314	86.1	-7.98	-10.01	-0.1884	0.0138	-0.5015	
0.226554	-0.443104	0.753228	83.09	-5.74	-10.01	-0.1926	0.0045	-0.4986	
0.226554	-0.41724	0.812276	81.62	-10.01	-13.58	-0.1926	-0.0063	-0.5002	
0.218136	-0.364414	0.782386	87.01	-4.83	-12.04	-0.1857	-0.0187	-0.5063	
0.228994	-0.330254	0.84119	83.3	-12.74	-9.87	-0.2012	-0.042	-0.4991	
0.239486	-0.312076	0.838872	84.56	-8.68	-13.09	-0.1886	-0.0497	-0.5004	
0.257054	-0.280112	0.831308	81.13	-8.12	-11.2	-0.1957	-0.0731	-0.4992	
0.280478	-0.237046	0.883402	76.44	-15.05	-7.42	-0.2025	-0.0761	-0.49	
0.265716	-0.205204	0.894992	76.09	-8.26	-9.1	-0.1927	-0.0885	-0.4884	
0.289506	-0.156526	0.910364	77.7	-12.81	-8.61	-0.2054	-0.0932	-0.4902	
0.30134	-0.136152	0.890844	77.91	-6.44	-9.8	-0.2096	-0.1103	-0.4827	
0.272426	-0.11529	0.91195	73.5	-7.28	-9.59	-0.2082	-0.1273	-0.4797	
0.28731	-0.07869	0.93513	69.02	-11.97	-11.69	-0.2024	-0.1366	-0.4719	
0.2989	-0.06039	0.905362	69.23	-7.49	-12.88	-0.204	-0.1428	-0.4781	
0.292312	-0.038308	0.918172	64.75	-7.21	-11.76	-0.2055	-0.1661	-0.4799	
0.269376	0.001098	0.902556	66.43	-5.88	-4.41	-0.2052	-0.1583	-0.4659	
0.277916	-0.015982	0.932812	55.23	-10.36	-12.04	-0.208	-0.1738	-0.4629	
0.29097	-0.007564	0.932324	54.67	-10.22	-12.88	-0.2066	-0.1738	-0.4614	
0.299998	0.012322	0.923052	56.77	-8.61	-13.02	-0.2121	-0.1924	-0.4492	
0.305	0.012932	0.93574	57.75	-10.43	-12.39	-0.2123	-0.1986	-0.4585	
0.346846	0.043798	0.942206	57.19	-9.31	-10.36	-0.2164	-0.2079	-0.4509	
0.345016	0.06588	0.932324	56.21	-8.05	-9.1	-0.2037	-0.2125	-0.4476	
0.32025	0.111142	0.923418	56.56	-8.61	-8.61	-0.2091	-0.214	-0.4369	
0.32513	0.132492	0.934398	54.46	-8.75	-9.03	-0.2092	-0.2342	-0.4355	
0.335134	0.159454	0.926468	57.19	-9.59	-10.08	-0.2104	-0.245	-0.4232	
0.361486	0.183488	0.928908	55.09	-6.72	-9.24	-0.2118	-0.2434	-0.4216	
0.354532	0.182512	0.967338	51.59	-7	-10.29	-0.2033	-0.2527	-0.42	
0.351238	0.207156	0.959652	51.87	-6.79	-9.17	-0.2018	-0.2604	-0.4138	
0.356972	0.254858	0.944646	49.35	-6.09	-6.3	-0.2131	-0.262	-0.4125	
0.367586	0.271084	0.94306	50.05	-4.9	-6.44	-0.2088	-0.2728	-0.4334	
0.35624	0.298656	0.950868	48.02	-2.24	-5.67	-0.2129	-0.2836	-0.4002	
0.336232	0.30195	0.925858	42.07	-1.54	-5.74	-0.2087	-0.2914	-0.3956	
0.35014	0.328546	0.937326	38.57	-2.66	-5.74	-0.2059	-0.296	-0.3955	
0.343796	0.318664	0.936106	37.24	-0.98	-5.81	-0.2044	-0.296	-0.3909	
0.350506	0.329278	0.943792	34.37	-2.45	-4.2	-0.2085	-0.3021	-0.3817	
0.36478	0.32391	0.947452	31.57	-1.4	-1.61	-0.2043	-0.3053	-0.3863	
0.354776	0.341722	0.93635	29.61	-0.35	-0.7	-0.207	-0.3037	-0.377	
0.358558	0.330742	0.936594	23.59	-2.31	-0.91	-0.2055	-0.3145	-0.3709	
0.37271	0.327448	0.93391	22.96	-0.21	0.56	-0.2027	-0.3191	-0.3708	
0.360144	0.342698	0.933178	20.65	-0.49	0.21	-0.1929	-0.316	-0.3722	
0.354654	0.341112	0.918416	18.76	-0.7	-1.33	-0.2097	-0.3207	-0.3663	
0.365146	0.330742	0.927078	15.54	-0.77	-1.12	-0.2042	-0.3238	-0.3724	
0.360754	0.321104	0.903898	14.7	-0.63	-0.56	-0.207	-0.3347	-0.371	
0.360266	0.337086	0.90951	13.86	-0.56	1.47	-0.2054	-0.3284	-0.3616	
0.34343	0.315248	0.897432	12.11	-0.42	1.61	-0.2082	-0.3253	-0.3648	
0.335378	0.325862	0.877668	11.41	-2.31	1.96	-0.2066	-0.3221	-0.3539	
0.336476	0.335378	0.880596	10.92	-5.25	2.1	-0.2068	-0.3222	-0.3616	
0.349774	0.339404	0.871568	8.12	-6.23	3.01	-0.2095	-0.3268	-0.3571	
0.349896	0.33428	0.867542	7.84	-6.09	2.73	-0.2038	-0.3376	-0.3493	
0.354044	0.331352	0.873032	6.23	-5.11	2.52	-0.2038	-0.333	-0.3508	
0.355996	0.34343	0.880108	3.57	-4.34	2.52	-0.2066	-0.3376	-0.3509	
0.365756	0.331352	0.886086	2.66	-4.76	1.54	-0.2093	-0.3329	-0.3447	
0.36722	0.325496	0.88633	2.87	-3.36	1.82	-0.2094	-0.3314	-0.3509	
0.358314	0.343064	0.876448	3.64	-1.82	2.52	-0.215	-0.3345	-0.3479	
0.362828	0.347578	0.886818	2.73	-2.73	1.47	-0.211	-0.3284	-0.3587	
0.356972	0.367586	0.890966	1.19	-1.12	1.54	-0.2065	-0.3283	-0.3462	
0.367342	0.365024	0.909754	-0.42	-2.1	0.21	-0.2109	-0.3315	-0.354	
0.379176	0.399062	0.921832	0.42	-2.03	0.49	-0.2065	-0.3407	-0.3447	
0.399062	0.42761	0.926956	-1.82	-2.24	1.19	-0.208	-0.333	-0.3524	
0.41968	0.44896	0.94611	-6.3	-3.01	2.38	-0.2123	-0.3237	-0.354	
0.435174	0.473726	0.961726	-12.67	-3.36	3.22	-0.2081	-0.3283	-0.3539	
0.436394	0.486536	0.962702	-19.95	-1.89	2.73	-0.2068	-0.3331	-0.3617	
0.430904	0.481656	0.973804	-25.62	-1.4	3.01	-0.2151	-0.3299	-0.3525	
0.425536	0.484462	0.964044	-29.33	0.21	2.94	-0.211	-0.3269	-0.3633	
0.417972	0.484218	0.963678	-34.09	0.84	3.22	-0.2124	-0.3113	-0.3632	
0.409676	0.476288	0.951478	-36.19	3.08	3.64	-0.2211	-0.3177	-0.3805	
0.404918	0.460184	0.957822	-42.7	2.31	4.48	-0.2111	-0.316	-0.371	
0.410652	0.445056	0.959896	-48.37	2.66	6.23	-0.2155	-0.3037	-0.3834	
0.415654	0.41602	0.964654	-53.69	3.5	7.35	-0.2183	-0.3084	-0.3819	
0.413336	0.38796	0.96258	-57.96	5.04	7.77	-0.2197	-0.2836	-0.3864	
0.409188	0.368684	0.949648	-59.85	6.09	9.52	-0.2085	-0.2866	-0.3878	
0.391864	0.35624	0.940498	-63.7	7.49	11.9	-0.2242	-0.2806	-0.4004	
0.374418	0.345504	0.927688	-68.74	7	13.09	-0.2171	-0.2697	-0.3987	
0.352824	0.300608	0.915732	-75.67	7.35	15.75	-0.2117	-0.262	-0.4171	
0.352336	0.258152	0.913292	-82.25	6.44	17.43	-0.2145	-0.2434	-0.4201	
0.342454	0.205326	0.905728	-87.08	6.16	17.85	-0.2203	-0.2435	-0.4265	
0.339648	0.156892	0.911828	-88.97	4.83	18.13	-0.2315	-0.2264	-0.4265	
0.32452	0.142008	0.893284	-90.23	6.16	19.39	-0.2191	-0.2094	-0.4448	
0.322446	0.092598	0.88084	-93.59	5.67	21.56	-0.2219	-0.2017	-0.4448	
0.312198	0.031232	0.852536	-96.95	5.74	23.59	-0.2234	-0.1878	-0.454	
0.298168	0.00854	0.842166	-99.89	3.92	24.57	-0.2135	-0.1722	-0.4553	
0.293044	-0.039772	0.826306	-104.16	5.74	27.51	-0.2221	-0.1615	-0.4662	
0.273158	-0.085888	0.787876	-106.05	6.3	27.02	-0.2247	-0.1381	-0.4599	
0.241926	-0.143594	0.765062	-109.34	7.91	32.06	-0.215	-0.1149	-0.4719	
0.230214	-0.212036	0.79727	-111.58	5.88	30.52	-0.2264	-0.1103	-0.4799	
0.300974	-0.264252	0.74847	-112.35	7.77	29.89	-0.2264	-0.0917	-0.4875	
0.256322	-0.265228	0.760792	-114.87	4.48	28.98	-0.2249	-0.0731	-0.4842	
0.228994	-0.332206	0.730902	-112.7	10.64	24.57	-0.232	-0.0545	-0.4904	
0.255346	-0.375272	0.752496	-119.07	6.51	26.6	-0.2305	-0.0219	-0.4902	
0.250588	-0.408578	0.716872	-119.28	5.53	25.48	-0.2191	-0.0063	-0.4883	
0.27084	-0.452132	0.735782	-118.65	9.45	25.76	-0.229	0.0044	-0.4931	
0.230702	-0.449448	0.695156	-117.39	12.67	25.48	-0.2163	0.02	-0.4958	
0.279868	-0.51728	0.64111	-115.57	15.68	21.28	-0.2204	0.0495	-0.4926	
0.234606	-0.541924	0.654896	-121.31	12.11	24.01	-0.2132	0.062	-0.4877	
0.235582	-0.570716	0.591212	-113.4	32.62	24.43	-0.2106	0.0852	-0.4999	
0.19581	-0.592554	0.590358	-117.81	24.36	24.78	-0.2102	0.1055	-0.4858	
0.16531	-0.62098	0.480558	-113.75	21.07	22.96	-0.2171	0.1226	-0.4811	
0.158478	-0.668926	0.493002	-117.46	8.33	23.8	-0.2045	0.1412	-0.4869	
0.185074	-0.771772	0.46238	-111.3	10.92	23.1	-0.19	0.171	-0.4678	
0.168726	-0.826062	0.46665	-110.39	23.1	22.19	-0.1928	0.1865	-0.4709	
0.128222	-0.822646	0.363804	-104.86	19.18	24.08	-0.1897	0.2021	-0.4552	
0.128588	-0.836188	0.381372	-98.21	13.51	24.36	-0.1809	0.224	-0.4409	
0.09857599	-0.865468	0.342332	-89.25	7.91	22.96	-0.1767	0.2395	-0.4438	
0.132492	-0.904264	0.313662	-86.52	4.9	19.11	-0.1737	0.2505	-0.4375	
0.141642	-0.91317	0.34404	-86.31	3.92	16.31	-0.1751	0.2598	-0.4374	
0.124318	-0.919514	0.26047	-80.85	-0.42	19.6	-0.1649	0.2708	-0.4186	
0.161894	-0.926956	0.239974	-73.43	10.29	13.79	-0.1619	0.2756	-0.4092	
0.114924	-0.919758	0.231922	-73.92	-5.32	19.67	-0.1717	0.2942	-0.4092	
0.098942	-0.908046	0.219234	-72.87	4.27	16.59	-0.1631	0.2958	-0.4013	
0.117486	-0.926346	0.229604	-74.97	-8.75	18.83	-0.1614	0.2975	-0.3842	
0.077104	-0.96441	0.147742	-71.4	-0.56	18.34	-0.1572	0.3176	-0.3917	
0.090646	-0.96624	0.125172	-73.71	-14.91	20.93	-0.1625	0.3317	-0.3731	
0.110288	-0.977464	0.097722	-71.82	-13.51	18.27	-0.158	0.3412	-0.359	
0.06283	-0.992714	0.087596	-70.21	-11.06	15.82	-0.1552	0.3381	-0.3605	
0.105652	-1.040782	0.100528	-71.82	-17.78	16.1	-0.1465	0.3522	-0.3478	
0.062342	-1.045906	0.027572	-65.87	-13.02	18.06	-0.1477	0.3615	-0.3416	
0.110654	-1.06628	0.036966	-59.57	-8.26	13.58	-0.1504	0.374	-0.3338	
0.076372	-1.123742	0.072468	-55.44	-4.55	8.19	-0.153	0.3741	-0.3245	
0.07515199	-1.091412	0.073566	-52.15	-8.61	10.15	-0.1502	0.3818	-0.3244	
0.070272	-1.05713	0.07991	-46.55	-1.89	10.15	-0.1528	0.3912	-0.3167	
0.055388	-0.988444	0.065514	-42.98	-7.42	12.88	-0.1514	0.3866	-0.3136	
0.048068	-1.023214	0.019032	-35.28	-4.2	11.48	-0.1438	0.3915	-0.287	
0.030256	-1.007964	0.022326	-31.5	-4.34	8.68	-0.1411	0.3945	-0.2931	
0.0488	-1.034926	0.029524	-31.85	-3.08	7.7	-0.1439	0.3992	-0.2901	
0.091866	-1.04432	0.04941	-35.63	-8.4	11.27	-0.1411	0.4023	-0.2915	
0.08235	-1.044564	0.010126	-26.67	-5.04	10.92	-0.138	0.4055	-0.2775	
0.064416	-0.993324	0.01769	-20.58	-4.62	10.15	-0.1407	0.3978	-0.2714	
0.048312	-1.0248	-0.008784	-20.72	-0.07	8.12	-0.1383	0.4101	-0.293	
0.030622	-1.021018	-0.01952	-21.91	-3.64	6.72	-0.1437	0.4132	-0.2822	
0.050264	-1.016992	-0.031476	-21.49	0.56	8.26	-0.1365	0.4087	-0.2728	
0.05124	-1.04005	-0.044042	-17.78	-2.38	9.17	-0.1322	0.418	-0.2711	
0.049166	-1.010526	-0.03843	-14.42	-1.89	8.75	-0.1307	0.4289	-0.2663	
0.01891	-1.015772	-0.055388	-11.2	0	7.56	-0.1293	0.4166	-0.2617	
0.021838	-0.970266	-0.06405	-10.22	1.61	7.91	-0.1306	0.4212	-0.2617	
0.02318	-0.989786	-0.060024	-12.32	0.49	5.53	-0.1291	0.4228	-0.257	
0.04148	-0.981612	-0.04636	-11.9	2.1	5.11	-0.1349	0.4243	-0.2649	
0.033672	-1.000522	-0.046848	-10.01	1.12	4.62	-0.1307	0.4165	-0.2633	
0.039406	-1.02358	-0.053436	-8.68	2.94	5.74	-0.129	0.4244	-0.2508	
0.034404	-1.020164	-0.039894	-10.5	4.34	5.39	-0.125	0.429	-0.26	
0.03233	-1.038952	-0.052826	-10.43	3.01	5.11	-0.1192	0.4229	-0.2522	
0.017324	-1.049566	-0.045628	-9.73	1.19	4.69	-0.1247	0.4338	-0.246	
0.018666	-1.039196	-0.041968	-8.68	4.13	2.17	-0.129	0.4291	-0.2477	
0.02318	-1.00772	-0.043676	-7.7	5.25	1.26	-0.1192	0.4322	-0.2521	
0.029646	-0.998692	-0.04697	-9.94	4.97	-0.07	-0.1248	0.4368	-0.2522	
0.033794	-0.99186	-0.05368	-9.87	5.67	0.35	-0.1247	0.4275	-0.2476	
0.030012	-0.996984	-0.067222	-9.03	3.43	0.35	-0.1247	0.4291	-0.2429	
0.012078	-1.006744	-0.058926	-9.73	0.28	1.4	-0.119	0.4307	-0.2428	
0.013908	-1.021018	-0.05551	-13.16	2.94	0.63	-0.119	0.4292	-0.2397	
0.014884	-1.009184	-0.079788	-12.67	0.35	2.1	-0.1262	0.4306	-0.2507	
0.025742	-1.01626	-0.099308	-12.95	2.59	1.96	-0.1218	0.4338	-0.2398	
0.009516	-1.002474	-0.096258	-13.65	1.68	1.96	-0.1205	0.4353	-0.2459	
0.034648	-1.02053	-0.097234	-13.72	2.8	1.61	-0.1229	0.4401	-0.2273	
0.035258	-1.02968	-0.106506	-8.96	4.27	0.14	-0.1218	0.44	-0.2413	
0.019032	-1.000156	-0.113094	-7.63	4.06	-0.49	-0.1161	0.437	-0.2365	
0.015006	-0.982954	-0.116266	-8.05	3.36	0.07	-0.1146	0.437	-0.2318	
0.027694	-1.0065	-0.11346	-12.04	3.22	0.35	-0.1187	0.4386	-0.2257	
0.024644	-1.025654	-0.12383	-13.09	1.12	0.7	-0.1186	0.4371	-0.2226	
0.016348	-1.017968	-0.137616	-11.27	3.64	1.54	-0.1228	0.4464	-0.2211	
0.023546	-1.021506	-0.146766	-10.92	2.03	1.26	-0.1174	0.4386	-0.2303	
0.017812	-1.028704	-0.150914	-8.54	2.03	0.49	-0.1215	0.4309	-0.2212	
0.005856	-1.048346	-0.157624	-7	3.5	0.49	-0.1101	0.4449	-0.2162	
0.011224	-1.030778	-0.164212	-7.63	1.75	-0.14	-0.12	0.4448	-0.221	
0.007442	-0.998692	-0.160308	-8.68	3.92	-0.49	-0.1117	0.4402	-0.2271	
0.016592	-0.999546	-0.184464	-9.45	3.43	0.07	-0.1157	0.4449	-0.2163	
0.059292	-0.985272	-0.092598	0.77	-0.07	4.27	-0.1228	0.4433	-0.2195	
0.023668	-1.068598	-0.180804	-3.99	2.8	1.05	-0.1143	0.4387	-0.2179	
-0.00732	-1.023214	-0.166774	-2.03	4.83	2.17	-0.1198	0.4402	-0.2118	
-0.009516	-0.99735	-0.157746	-6.3	4.69	0.98	-0.1199	0.4387	-0.2118	
0.009393999	-1.01016	-0.154696	-7	2.8	1.26	-0.1298	0.437	-0.2197	
0.0244	-1.024556	-0.162992	-5.25	1.33	2.31	-0.113	0.4402	-0.2209	
0.030134	-1.017968	-0.160064	-3.01	1.82	2.66	-0.1087	0.4418	-0.2193	
0.017812	-1.02236	-0.17934	-1.89	2.66	2.03	-0.1129	0.4403	-0.2147	
0.005124	-1.015406	-0.180072	0.56	1.75	0.63	-0.1157	0.448	-0.2163	
0.004758	-1.017968	-0.182512	0.56	1.75	-0.14	-0.1169	0.4496	-0.2085	
-0.002928	-1.013332	-0.17263	0.7	1.75	-0.21	-0.1128	0.4434	-0.21	
0.004026	-1.01321	-0.170556	0.98	1.26	-0.07	-0.1185	0.4511	-0.2179	
0.012078	-1.01931	-0.166774	3.08	1.54	-0.42	-0.1031	0.4449	-0.2176	
0.012444	-1.018212	-0.15799	4.41	1.33	-0.35	-0.1115	0.4496	-0.2162	
0.014396	-1.016382	-0.154574	3.43	1.96	-0.42	-0.1199	0.448	-0.2164	
0.012078	-1.020896	-0.155428	4.62	2.45	-0.7	-0.106	0.4371	-0.2208	
0.007686	-1.027362	-0.16104	6.51	1.33	-0.91	-0.1157	0.4418	-0.2163	
0	-1.044686	-0.17263	7.21	1.75	-0.35	-0.1128	0.4449	-0.2116	
0.001098	-1.049444	-0.171898	8.75	1.12	-1.05	-0.1158	0.4386	-0.221	
0.008784	-1.04859	-0.167018	8.75	1.4	-1.89	-0.1102	0.4526	-0.227	
0.009516	-1.035048	-0.160552	10.78	2.45	-3.15	-0.1145	0.4309	-0.2226	
0.00549	-1.026142	-0.148596	11.76	1.75	-3.01	-0.1116	0.4371	-0.224	
0.010858	-1.026996	-0.139446	12.11	2.38	-3.43	-0.116	0.4324	-0.2288	
0.01586	-1.020896	-0.138226	12.67	3.15	-3.99	-0.1259	0.4338	-0.2111	
0.013298	-1.017358	-0.137372	12.53	2.87	-4.13	-0.1132	0.437	-0.2334	
0.016958	-1.02663	-0.135542	11.34	3.64	-4.41	-0.1202	0.4401	-0.2335	
0.020374	-1.04371	-0.124806	9.73	2.03	-5.25	-0.1132	0.4324	-0.2334	
0.027694	-1.043954	-0.115656	10.01	2.03	-5.11	-0.1258	0.4401	-0.232	
0.034282	-1.033828	-0.08723	9.52	-0.49	-5.53	-0.1259	0.4307	-0.2368	
0.037332	-1.037122	-0.083936	10.43	-2.59	-5.25	-0.1232	0.4354	-0.2413	
0.026962	-1.03761	-0.084912	14.14	-1.4	-7.14	-0.1232	0.4323	-0.2398	
0.032452	-1.035048	-0.08723	16.24	-4.2	-8.82	-0.1232	0.4354	-0.2429	
0.038186	-1.036268	-0.10248	19.95	-6.93	-8.82	-0.1303	0.4244	-0.2446	
0.051484	-0.990762	-0.103944	21.91	-5.25	-8.68	-0.1289	0.426	-0.2431	
0.04941	-1.025898	-0.084546	24.22	-7.07	-9.8	-0.1291	0.4244	-0.2555	
0.05307	-1.04493	-0.063928	24.99	-5.95	-11.62	-0.1377	0.4227	-0.2409	
0.047092	-1.026264	-0.061	25.76	-3.85	-12.6	-0.1347	0.4337	-0.254	
0.068808	-0.951356	-0.052094	28.77	-2.73	-13.37	-0.1334	0.4228	-0.2331	
0.067588	-0.965386	-0.050142	29.61	-2.87	-14	-0.1365	0.4164	-0.2758	
0.060878	-1.0004	-0.04331	28.91	-2.52	-14.63	-0.142	0.4165	-0.2682	
0.052582	-1.050054	-0.049898	27.79	-2.24	-14	-0.138	0.4133	-0.279	
0.05734	-1.075918	-0.051972	30.8	-0.35	-13.44	-0.138	0.4071	-0.2775	
0.081374	-1.032852	-0.061488	40.32	0.91	-13.16	-0.1438	0.407	-0.2853	
0.094184	-0.973926	-0.00244	46.69	-2.94	-13.3	-0.1523	0.3976	-0.2871	
0.085644	-0.985638	0.005734	49.14	-1.61	-15.05	-0.1495	0.3961	-0.2886	
0.073444	-0.995764	0.01403	44.73	0.91	-15.4	-0.1399	0.3867	-0.3009	
0.072346	-1.005524	0.018666	41.09	0.42	-16.03	-0.1497	0.3805	-0.295	
0.099064	-1.023214	0.02623	44.17	0.91	-16.73	-0.1625	0.385	-0.306	
0.119072	-1.040904	0.02989	48.51	3.85	-15.19	-0.1612	0.3788	-0.3123	
0.119438	-1.012356	0.051484	52.08	3.5	-15.19	-0.1587	0.3709	-0.3278	
0.066124	-0.958188	0.068198	52.01	4.76	-14.63	-0.1644	0.3693	-0.331	
0.093208	-0.973804	0.070272	54.67	7.28	-15.89	-0.1589	0.3662	-0.3387	
0.113826	-0.969778	0.096136	56.14	6.3	-17.08	-0.1746	0.3474	-0.3453	
0.14274	-0.981368	0.12871	60.48	8.54	-18.55	-0.169	0.3474	-0.3514	
0.137128	-0.98088	0.149572	65.03	1.26	-20.51	-0.1705	0.3443	-0.3561	
0.119194	-0.95892	0.106262	68.88	11.13	-16.1	-0.1666	0.3317	-0.3701	
0.125416	-0.960018	0.151036	70.28	7.7	-17.78	-0.1695	0.324	-0.3717	
0.118828	-0.947086	0.19032	71.47	2.38	-15.75	-0.1724	0.3115	-0.3734	
0.108946	-0.944036	0.207766	73.99	8.05	-20.16	-0.174	0.3067	-0.3859	
0.119316	-0.91439	0.247538	72.31	7.84	-20.44	-0.1825	0.3067	-0.3892	
0.195932	-0.918416	0.256688	74.41	7	-23.31	-0.1815	0.2786	-0.4033	
0.207522	-0.87718	0.243634	83.79	6.09	-19.6	-0.1901	0.2801	-0.4143	
0.358436	-0.96197	0.523014	71.47	49.21	-28.77	-0.1805	0.2568	-0.4221	
0.204594	-0.853268	0.460306	71.75	-2.38	-21.21	-0.1823	0.2426	-0.4439	
0.290116	-0.793488	0.291702	104.09	10.29	-22.12	-0.1866	0.2193	-0.4442	
0.21838	-0.797148	0.409432	98.7	7	-21.91	-0.1855	0.2006	-0.4551	
0.231922	-0.793122	0.452742	100.59	6.44	-21.63	-0.1785	0.1975	-0.4566	
0.256688	-0.746152	0.441884	109.76	3.15	-20.3	-0.1856	0.1819	-0.4615	
0.235338	-0.686982	0.485682	112.21	2.03	-19.11	-0.1832	0.1616	-0.4786	
0.08906	-0.652212	0.520452	109.27	-2.24	-14.28	-0.1862	0.146	-0.485	
0.255468	-0.65392	0.526186	110.46	-7.49	-19.46	-0.1834	0.1181	-0.482	
0.185196	-0.627568	0.64721	113.05	-9.03	-19.95	-0.2019	0.1055	-0.4934	
0.201788	-0.601704	0.670146	115.78	-3.85	-17.5	-0.1922	0.0915	-0.4979	
0.182634	-0.554856	0.646966	115.15	3.5	-11.97	-0.1979	0.0728	-0.4982	
0.18544	-0.535702	0.685518	108.22	-11.9	-14.91	-0.2106	0.0604	-0.497	
0.238754	-0.463722	0.666608	111.16	-4.06	-13.51	-0.1924	0.0418	-0.4967	
0.227408	-0.4514	0.691862	112.35	-11.69	-20.44	-0.2024	0.0184	-0.5017	
0.246684	-0.372588	0.701744	117.18	-11.76	-17.64	-0.2039	0.0013	-0.5019	
0.270108	-0.379176	0.692594	110.39	-10.5	-18.34	-0.1941	-0.0109	-0.5033	
0.239364	-0.350384	0.779824	109.34	-9.52	-18.83	-0.1969	-0.0342	-0.4958	
0.245098	-0.297558	0.784582	110.18	-10.5	-18.13	-0.1956	-0.0575	-0.4991	
0.240218	-0.274988	0.80581	109.55	-10.57	-18.55	-0.2068	-0.0669	-0.4947	
0.258518	-0.227286	0.822646	108.43	-10.08	-18.48	-0.2041	-0.0731	-0.4978	
0.299266	-0.157258	0.815448	112.28	-3.92	-10.08	-0.2082	-0.0963	-0.4903	
0.289506	-0.126026	0.889136	105	-16.1	-15.96	-0.2139	-0.1197	-0.4906	
0.33794	-0.051118	0.85217	110.67	-6.93	-13.93	-0.2151	-0.1382	-0.4721	
0.329278	0.02684	0.88938	112.63	-6.86	-13.37	-0.2124	-0.1553	-0.4753	
0.315614	0.066124	0.904874	107.66	-5.39	-13.79	-0.208	-0.166	-0.4629	
0.333548	0.156892	0.915244	100.87	-5.46	-14	-0.2035	-0.183	-0.4458	
0.350018	0.199958	0.928542	97.72	-5.18	-13.51	-0.2122	-0.1955	-0.4539	
0.346602	0.244366	0.93086	95.97	-4.27	-13.44	-0.1994	-0.2078	-0.4475	
0.35746	0.285114	0.944524	90.65	-3.78	-12.11	-0.2091	-0.2218	-0.4369	
0.345382	0.314272	0.97844	81.2	-3.85	-12.95	-0.2065	-0.2404	-0.4432	
0.349042	0.323056	0.981246	74.62	-1.89	-13.65	-0.202	-0.2496	-0.423	
0.359778	0.327814	0.996008	68.39	0.98	-12.53	-0.2063	-0.2559	-0.4278	
0.35929	0.361974	1.000766	64.54	3.71	-12.67	-0.1935	-0.2666	-0.4168	
0.350262	0.383202	0.990274	59.22	5.6	-13.86	-0.1949	-0.2744	-0.4169	
0.346724	0.384178	0.989786	52.71	5.11	-12.39	-0.1963	-0.2852	-0.4123	
0.351848	0.393084	0.985638	46.69	5.88	-10.64	-0.1962	-0.2914	-0.4062	
0.350994	0.389424	0.96624	44.66	6.79	-8.89	-0.1975	-0.3007	-0.397	
0.32696	0.388814	0.956602	38.71	5.81	-6.23	-0.2029	-0.3037	-0.3878	
0.326838	0.37637	0.964654	34.37	2.87	-5.04	-0.1918	-0.3068	-0.3938	
0.293166	0.36661	0.94916	31.08	3.01	-3.71	-0.179	-0.3051	-0.3842	
0.29646	0.354654	0.968314	27.3	-0.49	-3.29	-0.1959	-0.3037	-0.3876	
0.29219	0.36417	0.95587	27.02	0.98	-1.05	-0.1859	-0.3222	-0.3752	
0.287798	0.358802	0.945744	25.2	-0.42	-1.05	-0.186	-0.3222	-0.3783	
0.293898	0.342698	0.942938	21.91	0.42	-0.49	-0.1928	-0.3206	-0.3676	
0.293044	0.346236	0.925004	21.49	-3.15	-1.12	-0.173	-0.3267	-0.361	
0.287554	0.357094	0.912682	21.14	-3.29	-0.14	-0.1901	-0.3268	-0.3706	
0.288896	0.37881	0.905728	21.07	-5.46	0.84	-0.1913	-0.3299	-0.3614	
0.299144	0.378322	0.918294	16.94	-6.79	0.28	-0.1871	-0.3221	-0.3643	
0.307074	0.391498	0.911462	15.26	-6.86	0.91	-0.1843	-0.3314	-0.3628	
0.322202	0.390034	0.911584	12.46	-7.77	1.61	-0.1898	-0.3345	-0.3536	
0.38552	0.429562	0.959286	10.64	-9.31	2.45	-0.1914	-0.3532	-0.36	
0.3233	0.413946	0.918172	5.04	2.24	-4.27	-0.1941	-0.333	-0.3599	
0.306952	0.385032	0.897188	2.24	0.98	-2.73	-0.19	-0.3361	-0.363	
0.316712	0.391498	0.898042	2.17	-1.12	0.98	-0.1858	-0.3361	-0.3675	
0.326716	0.381494	0.915244	-0.56	-4.27	3.22	-0.19	-0.3485	-0.3646	
0.333182	0.37454	0.93574	-3.01	-4.69	4.13	-0.1844	-0.3423	-0.366	
0.329888	0.386618	0.92415	-4.27	-3.29	4.41	-0.2011	-0.3408	-0.357	
0.345504	0.412116	0.933056	-5.74	-3.85	4.62	-0.1983	-0.3407	-0.3569	
0.358558	0.434442	0.942816	-7.14	-2.94	3.57	-0.1829	-0.3283	-0.3643	
0.368562	0.454572	0.94916	-10.29	-1.96	2.59	-0.1925	-0.336	-0.3475	
0.37088	0.464942	0.938302	-13.09	-2.17	1.61	-0.1941	-0.333	-0.3568	
0.364658	0.475922	0.947574	-17.64	-1.61	2.94	-0.2011	-0.3423	-0.357	
0.37332	0.476654	0.959408	-22.26	-2.8	3.43	-0.1969	-0.3284	-0.3615	
0.383934	0.474092	0.972584	-26.67	-3.01	4.55	-0.1999	-0.3331	-0.3662	
0.39284	0.48495	0.970022	-29.68	-1.89	6.51	-0.1913	-0.3314	-0.3614	
0.39955	0.486048	0.98332	-35.28	-2.45	7.84	-0.2043	-0.3192	-0.3802	
0.397842	0.489708	1.003572	-38.85	-1.68	9.66	-0.2	-0.3254	-0.3755	
0.4026	0.488732	0.982466	-39.48	3.36	10.08	-0.1972	-0.3067	-0.3784	
0.393816	0.489464	0.98332	-46.55	2.31	10.43	-0.1958	-0.3099	-0.3815	
0.394426	0.483852	0.981246	-52.36	2.94	11.27	-0.2044	-0.3022	-0.3909	
0.387106	0.4514	0.97539	-59.15	4.27	12.04	-0.2129	-0.2852	-0.3987	
0.379664	0.410164	0.970144	-66.5	5.39	11.9	-0.2058	-0.2944	-0.3909	
0.362828	0.389668	0.94123	-70.98	8.26	13.02	-0.2117	-0.2775	-0.411	
0.34282	0.351726	0.930738	-78.82	7.98	14.91	-0.2048	-0.2682	-0.4186	
0.337696	0.30439	0.909876	-86.59	5.95	16.73	-0.2035	-0.2574	-0.4278	
0.331108	0.263154	0.890966	-95.34	5.6	18.83	-0.2148	-0.2497	-0.4326	
0.315858	0.210206	0.859124	-105.07	4.83	22.54	-0.2064	-0.2357	-0.437	
0.301706	0.157868	0.877302	-112.56	3.08	24.78	-0.2106	-0.2094	-0.44	
0.30622	0.096136	0.87596	-117.46	1.26	24.99	-0.2149	-0.197	-0.4477	
0.275598	0.035624	0.825574	-121.94	6.02	27.44	-0.2122	-0.1831	-0.4584	
0.273646	-0.055632	0.826794	-129.64	0.35	27.02	-0.2136	-0.1614	-0.4629	
0.256444	-0.074786	0.782386	-130.69	2.8	33.25	-0.2181	-0.1429	-0.4831	
0.259738	-0.134444	0.782508	-134.75	3.92	36.54	-0.2165	-0.1196	-0.4767	
0.255834	-0.20069	0.77409	-139.02	-2.1	36.96	-0.2195	-0.1041	-0.4875	
0.233996	-0.265472	0.722972	-134.75	-0.98	40.18	-0.2247	-0.073	-0.4749	
0.240218	-0.338428	0.727242	-131.81	2.87	42	-0.2233	-0.0559	-0.4748	
0.225578	-0.335134	0.644892	-122.78	8.26	37.66	-0.2247	-0.0342	-0.4809	
0.205326	-0.376614	0.64233	-125.44	6.09	36.68	-0.2176	-0.0124	-0.4821	
0.188856	-0.436272	0.625982	-128.1	1.4	34.86	-0.2149	0.0169	-0.4911	
0.241682	-0.550098	0.629154	-130.06	-2.17	34.86	-0.2147	0.0294	-0.4848	
0.221674	-0.551928	0.598898	-118.58	1.82	36.12	-0.2161	0.0511	-0.4894	
0.220332	-0.575962	0.624884	-121.1	-2.52	34.58	-0.2146	0.0682	-0.4861	
0.250466	-0.64965	0.572058	-118.09	11.97	29.26	-0.2116	0.0869	-0.4782	
0.195322	-0.655506	0.549	-115.57	11.48	27.51	-0.2073	0.1087	-0.4795	
0.19032	-0.696742	0.52704	-108.5	19.46	26.11	-0.1973	0.1274	-0.4714	
0.181048	-0.722972	0.492148	-102.97	19.95	24.43	-0.2	0.1476	-0.4713	
0.17019	-0.730536	0.47214	-98	18.62	20.58	-0.1957	0.1616	-0.468	
0.195322	-0.818864	0.465552	-102.48	16.59	18.97	-0.2024	0.1772	-0.4556	
0.204106	-0.862052	0.400526	-92.47	21.56	17.57	-0.1926	0.2036	-0.4614	
0.174338	-0.888282	0.405284	-92.05	17.22	20.23	-0.1825	0.2069	-0.4473	
0.15616	-0.902312	0.33733	-83.58	21.98	20.16	-0.1894	0.2193	-0.4458	
0.175436	-0.898042	0.405162	-88.83	15.4	18.34	-0.1767	0.2317	-0.4454	
0.137616	-0.89609	0.32269	-78.82	19.04	19.6	-0.1805	0.2567	-0.4267	
0.140788	-0.873398	0.285602	-72.1	18.13	16.66	-0.1692	0.2614	-0.4249	
0.114924	-0.87962	0.277794	-72.52	11.83	16.8	-0.1677	0.2693	-0.4186	
0.116998	-0.904508	0.27267	-70.77	8.47	13.44	-0.1632	0.288	-0.406	
0.112728	-0.953674	0.246196	-70.7	14.28	10.43	-0.1674	0.3004	-0.4091	
0.100284	-0.945256	0.197152	-69.37	0.77	15.89	-0.1518	0.3083	-0.3994	
0.098088	-0.924882	0.183976	-67.41	3.78	15.61	-0.16	0.3083	-0.3903	
0.118462	-0.94062	0.172264	-69.37	-2.87	16.45	-0.1572	0.3208	-0.3901	
0.080032	-0.968436	0.131516	-68.88	-3.78	18.06	-0.1497	0.338	-0.3969	
0.111386	-0.985272	0.11834	-71.61	-6.44	17.64	-0.1495	0.3443	-0.3603	
0.036844	-0.99796	0.13847	-71.75	-9.03	16.24	-0.1481	0.3474	-0.3618	
0.019154	-1.00223	0.13969	-68.32	-6.16	15.89	-0.1493	0.3584	-0.3765	
0.063196	-1.030046	0.103334	-63.28	-9.38	16.03	-0.1392	0.3585	-0.3368	
0.052582	-1.053714	0.055022	-57.19	-4.55	16.1	-0.1477	0.3724	-0.3415	
-0.013298	-1.047858	-0.009638	-56.42	-3.99	19.74	-0.1488	0.3756	-0.326	
-0.02257	-0.989908	-0.020374	-56.7	-3.57	20.79	-0.1459	0.3757	-0.3213	
0.027206	-1.027606	0.015494	-50.05	-0.42	10.36	-0.1388	0.3773	-0.318	
0.040626	-1.03151	0.011346	-51.73	-9.45	14.91	-0.1344	0.3851	-0.3101	
0.02684	-1.04493	-0.001464	-43.82	-7.77	11.97	-0.1301	0.3914	-0.3069	
-0.00732	-1.008696	-0.02684	-33.11	-1.61	10.57	-0.1327	0.4054	-0.2976	
0.010248	-1.0248	-0.046482	-22.75	-4.2	8.4	-0.1228	0.3993	-0.2912	
0.019154	-1.017358	0.001586	-17.08	-7.98	6.72	-0.1396	0.3993	-0.2853	
0.026108	-1.040172	-0.011346	-16.31	-6.51	7.49	-0.1325	0.4086	-0.282	
0.051728	-1.018578	0.028914	-20.65	-11.97	10.92	-0.1197	0.4056	-0.2756	
0.025986	-1.011502	-0.008174	-16.94	-6.51	9.8	-0.131	0.4056	-0.2774	
0.000854	-0.968436	-0.012932	-14.84	-7.56	9.45	-0.1224	0.4165	-0.2725	
0.006954	-0.995642	-0.010004	-17.08	-14.07	9.8	-0.1309	0.4149	-0.2726	
0.024034	-1.018822	-0.011346	-19.32	-10.08	9.17	-0.1282	0.4102	-0.2788	
0.048434	-1.017602	-0.02745	-17.08	-13.58	10.64	-0.1351	0.4118	-0.2758	
0.064782	-1.018212	-0.005978	-11.69	-10.64	9.94	-0.1293	0.4258	-0.2648	
0.053924	-1.032364	-0.01525	-5.81	-9.38	10.15	-0.1322	0.4227	-0.2726	
0.027694	-1.011136	0.00976	-0.7	-11.27	9.17	-0.1252	0.4196	-0.274	
0.023546	-1.044198	0.027572	-2.87	-4.06	4.69	-0.1209	0.4274	-0.2708	
0.024278	-1.03273	0.00366	-8.68	-0.84	3.08	-0.1167	0.429	-0.2676	
0.019886	-1.044686	0.016958	-10.01	0.14	-0.63	-0.1126	0.4134	-0.2707	
0.01281	-1.032242	0.007076	-9.45	2.38	-1.54	-0.1223	0.4321	-0.2677	
-0.00976	-1.012234	-0.016714	-1.89	1.19	-2.24	-0.1265	0.4258	-0.2678	
0.023302	-1.006134	-0.01159	-3.99	-0.63	-1.19	-0.125	0.415	-0.2586	
0.020984	-1.030656	-0.02074	-5.6	2.73	-1.12	-0.1151	0.4306	-0.2567	
0.021228	-1.011258	0.002928	-4.27	3.22	1.19	-0.1151	0.4244	-0.2568	
0.023058	-0.99735	-0.001708	-2.03	4.55	-1.68	-0.1193	0.4198	-0.2538	
0.013542	-1.001742	-0.02562	9.87	6.02	-4.83	-0.1236	0.4259	-0.26	
0.038064	-0.959774	0.027938	-1.47	9.73	-4.41	-0.1194	0.4244	-0.2615	
-0.007198	-1.008086	-0.049044	-14.77	11.97	-4.69	-0.1221	0.4353	-0.2568	
-0.015006	-1.03273	-0.047458	-21.98	13.65	-6.02	-0.1181	0.4259	-0.2692	
0.001098	-1.045662	-0.044164	-24.5	11.97	-3.99	-0.1249	0.429	-0.2554	
0.021472	-1.02663	-0.061366	-20.3	7.7	-1.68	-0.1248	0.4322	-0.2538	
0.026474	-1.035658	-0.086254	-16.24	8.89	-1.33	-0.1233	0.4229	-0.2461	
0.027694	-1.027728	-0.07137	-14.21	8.05	-3.29	-0.1248	0.4322	-0.2491	
0.031964	-1.02541	-0.077836	-15.33	9.87	-4.2	-0.1192	0.4244	-0.2522	
0.009881999	-1.017114	-0.08906	-12.6	10.15	-4.55	-0.1234	0.4244	-0.2507	
-0.01769	-1.032852	-0.103578	-13.44	8.75	-4.2	-0.1149	0.4322	-0.2474	
-0.000122	-1.02663	-0.116876	-11.55	6.93	-3.01	-0.1218	0.4323	-0.2413	
0.015006	-1.018334	-0.117852	-8.96	4.27	-2.17	-0.1205	0.4431	-0.2474	
0.030134	-1.009916	-0.112728	-7.7	2.45	-0.63	-0.1245	0.4354	-0.2367	
0.01708	-1.008086	-0.114802	-10.01	2.38	0.14	-0.1105	0.437	-0.2411	
0.019276	-1.018334	-0.112118	-10.92	4.34	-0.07	-0.1147	0.4416	-0.238	
0.024766	-1.027118	-0.119316	-8.19	2.66	1.12	-0.116	0.4417	-0.2303	
0.021838	-1.043222	-0.12871	-5.81	3.5	1.82	-0.1218	0.4369	-0.2413	
0.01342	-1.03578	-0.138592	-3.85	0.77	1.47	-0.119	0.4431	-0.2412	
0.014762	-1.03639	-0.135542	-2.31	-0.42	1.26	-0.116	0.4355	-0.2303	
0.030988	-1.029436	-0.146278	-1.54	-1.33	1.19	-0.1132	0.4417	-0.2333	
0.035868	-1.03639	-0.132736	-1.33	-0.49	0.7	-0.1217	0.4416	-0.2381	
0.026718	-1.032974	-0.139812	-0.14	0.84	-0.21	-0.1231	0.4416	-0.2382	
0.01647	-1.027118	-0.157624	2.03	-0.28	0	-0.1147	0.4432	-0.2364	
0.024888	-1.034682	-0.151524	3.78	0.14	-0.63	-0.1188	0.4401	-0.2335	
0.022814	-1.046394	-0.147132	3.71	0.07	-1.12	-0.1216	0.4308	-0.2305	
0.014518	-1.053592	-0.155306	6.3	0.91	-2.03	-0.1162	0.4307	-0.2428	
0.003904	-1.050786	-0.166408	7.35	0.98	-2.52	-0.1162	0.4307	-0.2412	
0.013176	-1.05774	-0.158234	9.24	2.03	-2.94	-0.1245	0.4292	-0.2352	
0.014274	-1.067866	-0.15128	11.48	3.15	-3.15	-0.119	0.4385	-0.2412	
0.004148	-1.05286	-0.158478	14.35	3.36	-3.22	-0.1261	0.4431	-0.246	
0.001464	-1.049566	-0.156648	17.36	2.94	-3.64	-0.1234	0.4291	-0.2491	
0.007808	-1.07543	-0.149572	17.92	1.82	-3.64	-0.1191	0.4353	-0.2474	
0.022448	-1.070672	-0.136884	20.51	2.31	-3.5	-0.129	0.4337	-0.2492	
0.01708	-1.044686	-0.144082	24.64	3.01	-3.36	-0.1248	0.4198	-0.2492	
0.013542	-1.051884	-0.136518	26.46	1.26	-3.85	-0.1334	0.4321	-0.2602	
0.022814	-1.083238	-0.107238	27.86	-0.91	-5.88	-0.1238	0.4165	-0.2694	
0.022082	-1.07909	-0.092354	32.2	-0.21	-7.07	-0.1209	0.4181	-0.2693	
0.0366	-1.042124	-0.07686	34.02	-1.54	-9.8	-0.1236	0.4197	-0.2616	
0.044408	-1.021506	-0.063684	34.72	-3.01	-10.5	-0.1323	0.4133	-0.2758	
0.049288	-1.021628	-0.044652	35	-3.78	-11.55	-0.1353	0.4117	-0.2867	
0.053192	-1.031388	-0.027084	32.55	-5.6	-12.46	-0.1353	0.4086	-0.2821	
0.03294	-1.047248	-0.024156	33.18	-6.65	-13.93	-0.1299	0.4101	-0.2959	
0.043676	-1.03517	-0.009516	35.91	-5.81	-14.42	-0.1425	0.407	-0.2931	
0.063318	-0.994056	-0.005978	37.1	-6.93	-14.63	-0.1398	0.396	-0.2993	
0.06893	-0.992348	0.028304	35.42	-8.19	-15.19	-0.1442	0.3959	-0.3102	
0.07747	-0.99491	0.031354	36.68	-8.12	-16.24	-0.1414	0.3913	-0.3087	
0.07991	-1.008574	0.040382	35.07	-5.88	-18.2	-0.1498	0.3742	-0.3012	
0.087718	-0.985638	0.066734	35.49	-6.44	-17.99	-0.1557	0.3912	-0.3198	
0.099674	-0.96136	0.068198	40.74	-0.98	-18.76	-0.1516	0.3694	-0.3261	
0.09857599	-0.978928	0.055144	47.32	2.59	-18.41	-0.1602	0.374	-0.3324	
0.092964	-0.999546	0.061122	52.85	5.11	-19.46	-0.1573	0.3678	-0.3278	
0.081618	-0.991738	0.065026	57.47	6.3	-19.81	-0.1616	0.3647	-0.331	
0.09076799	-0.959896	0.114558	59.64	4.69	-18.41	-0.1689	0.3583	-0.3451	
0.104676	-0.933666	0.155062	59.22	6.3	-17.99	-0.1608	0.352	-0.3605	
0.135054	-0.910486	0.20252	61.81	7.35	-17.71	-0.168	0.3364	-0.3716	
0.132492	-0.884988	0.225822	64.33	12.18	-19.53	-0.1638	0.3395	-0.3731	
0.110288	-0.913292	0.161772	65.87	26.25	-21	-0.1652	0.3317	-0.37	
0.154696	-0.948672	0.26047	65.66	26.39	-23.87	-0.1683	0.3177	-0.3811	
0.009638	-0.912804	-0.072956	86.1	58.8	-21.56	-0.1713	0.3021	-0.3921	
0.17324	-0.97417	0.26657	78.47	-0.21	-19.6	-0.1659	0.2958	-0.4029	
0.14945	-0.913902	0.271816	78.4	14.14	-18.69	-0.1815	0.291	-0.4063	
0.164578	-0.864004	0.286944	80.99	7.49	-15.12	-0.1748	0.2785	-0.4249	
0.14457	-0.862784	0.316956	77.07	11.55	-17.78	-0.1736	0.249	-0.4297	
0.199714	-0.890722	0.315858	84.84	13.93	-17.43	-0.1681	0.2458	-0.439	
0.14884	-0.858636	0.331352	96.95	7.77	-14.7	-0.1782	0.2333	-0.447	
0.214964	-0.823744	0.341356	106.47	8.4	-14.98	-0.1727	0.2162	-0.4517	
0.124074	-0.74115	0.408822	106.05	0.77	-13.51	-0.1784	0.2021	-0.4565	
0.162016	-0.710772	0.448716	95.27	12.39	-15.68	-0.1716	0.1835	-0.4643	
0.158356	-0.70882	0.485316	85.61	7.77	-16.52	-0.1733	0.1803	-0.4783	
0.240706	-0.737246	0.46238	93.03	9.45	-21.28	-0.1775	0.1647	-0.4754	
0.195078	-0.671488	0.555954	105.07	-1.47	-20.37	-0.1875	0.1398	-0.4773	
0.13481	-0.693204	0.565836	116.41	7.35	-17.64	-0.1836	0.1227	-0.4913	
0.180316	-0.643672	0.621712	108.85	2.45	-14.28	-0.1809	0.1024	-0.4976	
0.170678	-0.599142	0.574498	116.76	-0.35	-13.93	-0.1754	0.0838	-0.4961	
0.16226	-0.537654	0.654408	116.83	-4.9	-16.24	-0.1754	0.07759999	-0.4977	
0.157746	-0.488122	0.673074	124.46	-13.65	-10.92	-0.1771	0.0542	-0.5072	
0.197274	-0.48556	0.690032	134.96	-14.63	-13.02	-0.1884	0.0262	-0.5045	
0.145058	-0.364292	0.756644	132.37	-21.49	-10.01	-0.187	0.0092	-0.5015	
0.20191	-0.31781	0.722606	131.6	-18.62	-8.61	-0.1969	-0.0063	-0.5018	
0.216062	-0.29585	0.77043	126.98	-26.67	-13.86	-0.1955	-0.0218	-0.4988	
0.251076	-0.257298	0.768112	127.82	-24.71	-15.05	-0.2041	-0.0514	-0.5038	
0.24156	-0.232044	0.848754	126.98	-24.78	-16.31	-0.1969	-0.073	-0.4914	
0.286822	-0.144326	0.84668	125.86	-19.88	-7.49	-0.1998	-0.0808	-0.4947	
0.231556	-0.119926	0.907924	103.11	-33.88	-9.94	-0.2082	-0.1041	-0.4872	
0.286822	-0.110654	0.865224	104.3	-20.23	-7.28	-0.2039	-0.1273	-0.478	
0.32025	-0.043676	0.888038	109.06	-21.7	-6.16	-0.2193	-0.1382	-0.4691	
0.332206	0.047824	0.90646	104.58	-20.16	-10.43	-0.2151	-0.1537	-0.4691	
0.347212	0.10675	0.912804	99.82	-19.32	-13.65	-0.2151	-0.177	-0.4662	
0.332938	0.122122	0.937082	93.17	-17.78	-15.26	-0.2206	-0.1862	-0.4555	
0.354654	0.160796	0.953064	90.93	-13.3	-13.23	-0.2245	-0.197	-0.434	
0.362706	0.172752	0.959896	84.84	-9.73	-15.05	-0.2233	-0.2079	-0.4177	
0.355264	0.21716	0.985272	80.43	-8.19	-15.54	-0.2134	-0.2187	-0.4401	
0.36844	0.248026	0.955626	75.74	-4.34	-14.42	-0.2203	-0.2373	-0.4311	
0.375882	0.277916	0.988566	69.44	-5.18	-15.05	-0.2189	-0.2435	-0.4264	
0.377224	0.294386	0.965508	66.92	-1.61	-16.17	-0.2202	-0.2497	-0.4203	
0.350384	0.32025	0.968802	62.02	-1.75	-14.63	-0.2145	-0.2667	-0.4141	
0.349408	0.341478	0.966972	56.14	-1.82	-14.21	-0.2118	-0.2744	-0.4157	
0.36112	0.353922	0.953186	51.52	-2.31	-13.02	-0.2158	-0.2744	-0.4049	
0.370636	0.347456	0.961482	44.8	-1.47	-12.81	-0.2171	-0.2961	-0.3973	
0.354898	0.35929	0.933544	42.84	0.84	-12.81	-0.206	-0.2961	-0.4048	
0.343186	0.349164	0.942328	38.01	0.49	-12.18	-0.2129	-0.2976	-0.3941	
0.348798	0.357216	0.944158	36.96	-0.98	-11.83	-0.2015	-0.3037	-0.3847	
0.341478	0.368684	0.942938	33.81	0.56	-9.94	-0.2198	-0.3053	-0.3866	
0.348676	0.347578	0.93757	31.22	0.28	-9.45	-0.2029	-0.3161	-0.3817	
0.342698	0.329156	0.927078	30.03	0.56	-8.68	-0.2028	-0.3145	-0.3786	
0.33977	0.321104	0.92415	29.54	-0.56	-6.72	-0.2028	-0.3207	-0.3755	
0.346114	0.32452	0.940864	26.6	-1.61	-5.88	-0.1955	-0.3252	-0.3583	
0.340624	0.329156	0.92659	27.72	-0.63	-4.97	-0.1941	-0.3268	-0.3614	
0.32757	0.355264	0.917074	27.16	-1.47	-4.2	-0.2083	-0.3362	-0.3649	
0.340746	0.362096	0.91134	24.29	-2.52	-5.11	-0.2042	-0.3269	-0.3725	
0.346846	0.375394	0.899262	22.12	-2.17	-4.83	-0.1998	-0.3377	-0.3616	
0.34648	0.383812	0.88511	20.79	-2.73	-5.11	-0.1955	-0.3423	-0.3538	
0.39101	0.432002	0.943426	15.54	-3.01	-6.86	-0.1956	-0.3392	-0.3615	
0.332816	0.421754	0.874618	14.56	3.29	-8.12	-0.1997	-0.3407	-0.3554	
0.342576	0.40504	0.887184	11.55	-0.7	-5.32	-0.1954	-0.3329	-0.3537	
0.345016	0.427122	0.891454	10.78	-3.64	-1.75	-0.2037	-0.3438	-0.3447	
0.361852	0.417362	0.909754	6.58	-4.2	-0.49	-0.1983	-0.3531	-0.3524	
0.360144	0.399306	0.898042	4.83	-2.52	0.49	-0.1913	-0.3423	-0.3568	
0.360998	0.407602	0.900726	3.29	-3.85	1.96	-0.1996	-0.3438	-0.3477	
0.362584	0.40443	0.885964	1.4	-2.66	2.66	-0.1995	-0.3438	-0.343	
0.357338	0.39894	0.879986	-1.26	-2.24	3.43	-0.1939	-0.3453	-0.3476	
0.368318	0.39589	0.86742	-2.87	-2.31	3.71	-0.1925	-0.3484	-0.346	
0.368318	0.3904	0.87047	-4.48	-1.33	3.5	-0.1996	-0.3438	-0.3492	
0.35868	0.390034	0.869372	-4.76	-0.14	3.01	-0.2024	-0.3454	-0.3478	
0.36661	0.377102	0.88023	-6.09	-0.7	2.87	-0.1938	-0.3453	-0.3398	
0.37332	0.399428	0.902556	-6.65	-1.19	3.64	-0.1912	-0.3438	-0.3522	
0.3843	0.41907	0.911828	-8.4	-0.7	3.85	-0.1982	-0.3407	-0.3492	
0.38735	0.448228	0.90951	-8.82	-0.49	3.92	-0.201	-0.3469	-0.3508	
0.39162	0.46421	0.94489	-11.48	-1.96	4.48	-0.1926	-0.3376	-0.3522	
0.39162	0.477508	0.975634	-15.19	-3.08	5.18	-0.2011	-0.3454	-0.3539	
0.41114	0.510326	0.993568	-17.64	-2.1	7.14	-0.208	-0.3283	-0.3493	
0.418704	0.53741	0.997838	-21.35	-0.77	8.68	-0.2024	-0.3361	-0.3523	
0.415532	0.554856	0.99003	-26.74	0.07	10.01	-0.2067	-0.3377	-0.354	
0.411872	0.558272	0.991982	-28.07	2.59	10.57	-0.2066	-0.333	-0.3493	
0.418216	0.580354	0.992592	-33.6	1.4	12.95	-0.2097	-0.3284	-0.3648	
0.42151	0.574132	0.994666	-41.16	1.47	14.07	-0.2109	-0.3237	-0.3811	
0.427732	0.567544	1.002962	-50.26	3.29	16.31	-0.2055	-0.3191	-0.3678	
0.412848	0.550586	0.981612	-60.69	7	17.99	-0.2068	-0.3113	-0.3678	
0.394304	0.515816	0.954772	-74.13	9.03	21.98	-0.2086	-0.296	-0.3894	
0.388936	0.47336	0.944768	-83.72	9.38	24.29	-0.2212	-0.2867	-0.3911	
0.372222	0.407236	0.931836	-92.89	10.64	25.9	-0.22	-0.279	-0.4034	
0.357948	0.359412	0.882792	-101.78	11.83	25.48	-0.223	-0.2636	-0.4158	
0.342576	0.343308	0.86254	-112	9.24	26.32	-0.2145	-0.2403	-0.4155	
0.340258	0.269376	0.854244	-123.97	8.05	24.99	-0.2189	-0.2326	-0.4295	
0.330498	0.182146	0.831308	-132.02	10.08	25.2	-0.2121	-0.211	-0.4206	
0.31598	0.121024	0.809958	-137.34	13.86	27.79	-0.2107	-0.1939	-0.4492	
0.27999	0.039162	0.760304	-136.29	19.04	22.12	-0.215	-0.1753	-0.4569	
0.281698	-0.035014	0.789096	-147.49	15.26	27.02	-0.2164	-0.1537	-0.466	
0.260958	-0.081496	0.749812	-151.41	13.02	27.09	-0.2195	-0.1336	-0.4815	
0.229848	-0.157014	0.752496	-152.74	14.14	34.16	-0.2206	-0.0963	-0.475	
0.2501	-0.277306	0.756766	-152.88	15.82	34.37	-0.2206	-0.0761	-0.4795	
0.22631	-0.259616	0.725534	-143.85	21	35.63	-0.2179	-0.056	-0.4615	
0.222284	-0.304024	0.65941	-142.38	21.28	35	-0.2193	-0.0343	-0.4916	
0.207522	-0.392596	0.633302	-144.41	16.17	29.33	-0.208	-0.0078	-0.4958	
0.168116	-0.446886	0.619394	-142.03	14.56	32.41	-0.2024	0.0138	-0.5018	
0.182146	-0.529114	0.562664	-135.38	16.73	29.89	-0.2064	0.0325	-0.494	
0.198494	-0.579866	0.594628	-136.64	15.05	31.01	-0.2034	0.0698	-0.489	
0.147864	-0.571692	0.567056	-130.2	21.77	30.87	-0.2006	0.0682	-0.4889	
0.13847	-0.602314	0.491538	-127.75	17.08	29.61	-0.1975	0.0947	-0.4794	
0.130906	-0.639646	0.504836	-126.42	17.78	27.58	-0.196	0.1211	-0.4807	
0.131394	-0.72285	0.458476	-118.93	13.58	22.05	-0.1987	0.1506	-0.4806	
0.130784	-0.766892	0.469944	-119.84	6.37	24.5	-0.1887	0.1678	-0.4725	
0.138592	-0.81984	0.475434	-110.74	12.88	21.07	-0.1788	0.1834	-0.4722	
0.140178	-0.821182	0.400526	-112.21	5.53	22.96	-0.1785	0.2006	-0.4581	
0.16531	-0.838384	0.348798	-109.2	3.22	23.45	-0.1742	0.2099	-0.4548	
0.124928	-0.81984	0.373686	-102.97	0.21	25.2	-0.1752	0.2302	-0.4392	
0.104066	-0.825208	0.387838	-97.51	3.78	25.83	-0.1765	0.2489	-0.436	
0.144692	-0.811788	0.354898	-98.77	7	27.09	-0.1652	0.249	-0.4311	
0.10309	-0.843264	0.208376	-101.22	3.99	24.85	-0.1692	0.2723	-0.4264	
0.079178	-0.871324	0.157624	-103.46	2.45	25.27	-0.1619	0.2957	-0.4152	
0.106262	-0.918172	0.14701	-95.55	7.56	15.4	-0.1518	0.2912	-0.3995	
0.065392	-0.948428	0.13908	-94.78	-7.21	24.15	-0.1584	0.3162	-0.3793	
0.076738	-0.976122	0.103456	-89.46	-1.47	21.7	-0.1556	0.3224	-0.3792	
0.025864	-1.016138	0.031964	-84.84	-8.05	22.33	-0.1484	0.3318	-0.3713	
0.020252	-1.090924	-0.021472	-78.12	-7.14	22.61	-0.1454	0.3427	-0.3649	
-0.004636	-1.079334	-0.001464	-77.49	-7.35	20.44	-0.1494	0.3568	-0.3572	
-0.019764	-1.067866	0.043432	-74.55	-9.45	18.69	-0.1463	0.377	-0.3461	
0.06405	-1.080798	0.064172	-72.1	-4.27	12.53	-0.139	0.3741	-0.3289	
0.037454	-1.045296	-0.013786	-62.93	-3.78	17.15	-0.1362	0.3725	-0.3304	
-0.015494	-1.04005	-0.051484	-55.79	1.96	17.22	-0.1346	0.4036	-0.3255	
0.00549	-1.053104	-0.058194	-46.76	5.11	15.05	-0.1316	0.3867	-0.307	
0.0244	-1.027728	-0.026352	-41.02	4.34	13.58	-0.1371	0.3883	-0.3009	
0.02013	-1.046516	-0.038552	-36.68	-6.65	13.79	-0.1287	0.4038	-0.3052	
0.030744	-1.033828	-0.066612	-29.54	-5.25	10.29	-0.1285	0.407	-0.2959	
-0.004026	-1.04981	-0.08479	-27.02	-5.11	9.66	-0.1297	0.4024	-0.2867	
0.006466	-1.030412	-0.050996	-28.56	-12.04	11.06	-0.1325	0.4086	-0.2867	
0.032086	-1.040904	-0.052948	-31.22	-8.05	10.71	-0.1256	0.4039	-0.2897	
0.0183	-1.04615	-0.089304	-26.11	-7.98	10.92	-0.1239	0.4149	-0.2756	
0.0244	-1.006378	-0.057218	-21.07	-5.74	11.55	-0.1196	0.4087	-0.2725	
0.020374	-1.03944	-0.068198	-19.39	-10.64	7.49	-0.1265	0.4212	-0.2679	
0.03843	-0.98698	-0.011956	-18.48	-7.49	5.25	-0.1236	0.4212	-0.2631	
0.024888	-1.03761	-0.049532	-16.17	-5.88	6.44	-0.1236	0.4259	-0.26	
0.015982	-1.0431	-0.025132	-12.67	-10.5	8.19	-0.1123	0.412	-0.2552	
0.019642	-1.064328	-0.047702	-10.01	0.21	6.09	-0.1221	0.4291	-0.2553	
0.036722	-1.06079	-0.049898	-5.53	-3.01	5.39	-0.1248	0.4322	-0.2507	
0.002928	-1.068598	-0.04758	-0.35	-0.56	5.32	-0.1136	0.4182	-0.2537	
0.012322	-1.066768	-0.039772	-3.85	0	4.55	-0.1206	0.426	-0.2506	
0.00183	-1.062498	-0.04636	-1.75	1.05	4.27	-0.1137	0.4229	-0.2583	
-0.001952	-1.055788	-0.04331	-3.15	3.99	0.77	-0.1136	0.4244	-0.2536	
-0.02379	-1.017114	-0.064904	-1.68	-0.07	1.26	-0.1164	0.4306	-0.2536	
-0.02074	-1.00162	-0.06405	-0.91	-2.8	1.82	-0.1168	0.4336	-0.2784	
0.007808	-0.99125	-0.034526	-5.88	-2.87	3.29	-0.1195	0.4336	-0.2676	
0.003172	-1.0065	-0.025254	-6.93	0	4.55	-0.1176	0.4276	-0.2413	
0.006222	-1.010892	-0.030134	-4.83	-2.66	4.06	-0.1109	0.4291	-0.2582	
-0.019764	-1.005646	-0.041358	-0.7	0.7	1.89	-0.1107	0.4214	-0.2458	
-0.051118	-1.0126	-0.050752	-1.47	1.47	0.28	-0.1109	0.4291	-0.2613	
-0.03172	-1.022848	-0.06222	-5.18	0.7	-2.73	-0.1164	0.4291	-0.2552	
0.000488	-1.008208	-0.072346	-6.16	4.13	-3.71	-0.1206	0.426	-0.2522	
-0.01342	-1.023824	-0.074664	-4.55	3.22	-2.94	-0.1149	0.4338	-0.2458	
-0.017568	-1.032852	-0.085766	-1.96	2.66	-2.73	-0.1092	0.4323	-0.2426	
-0.033916	-1.01931	-0.076006	-2.31	3.92	-4.97	-0.1191	0.4307	-0.2475	
-0.030866	-1.026386	-0.10004	-6.79	3.57	-5.53	-0.1135	0.4291	-0.2505	
-0.00671	-1.031998	-0.11407	-4.69	2.66	-4.13	-0.1192	0.4306	-0.2552	
-0.003294	-1.035536	-0.094794	0.21	-0.98	-2.52	-0.1191	0.4338	-0.2459	
0.005124	-1.035536	-0.09272	3.36	-1.05	-4.2	-0.1219	0.4307	-0.2475	
-0.000732	-1.016992	-0.095648	2.87	0.21	-4.83	-0.1206	0.4275	-0.2491	
-0.018666	-1.04066	-0.102968	0.63	1.4	-4.76	-0.1148	0.4245	-0.2397	
-0.00976	-1.04371	-0.098454	0.63	1.33	-4.34	-0.1148	0.4338	-0.2443	
-0.003782	-1.031876	-0.089426	2.73	-0.42	-3.99	-0.1206	0.4368	-0.2537	
0.007564	-1.026508	-0.079666	6.16	-0.77	-4.2	-0.1177	0.4353	-0.249	
0.015006	-1.036024	-0.072956	6.58	-1.4	-4.27	-0.1192	0.4244	-0.2522	
0.009516	-1.048712	-0.071858	4.69	0.77	-4.83	-0.1193	0.4321	-0.2583	
0.011468	-1.04432	-0.06893	5.74	1.89	-4.9	-0.1177	0.4291	-0.249	
0.01159	-1.045784	-0.074664	8.12	2.03	-4.06	-0.1122	0.4229	-0.2505	
0.006588	-1.043954	-0.08357	11.2	1.4	-3.71	-0.1207	0.4197	-0.2538	
0.007564	-1.05835	-0.072102	11.13	1.26	-3.92	-0.1249	0.429	-0.2569	
0.014518	-1.066036	-0.060268	12.04	2.52	-4.69	-0.1207	0.4197	-0.2553	
0.01952	-1.048346	-0.058316	12.6	4.27	-5.53	-0.1265	0.4274	-0.2694	
0.024888	-1.02358	-0.05429	13.44	3.57	-6.44	-0.1264	0.4197	-0.2617	
0.030622	-1.00223	-0.045506	13.65	2.24	-6.79	-0.1237	0.4134	-0.2663	
0.039284	-1.012356	-0.042334	11.97	-1.19	-7.42	-0.1238	0.4212	-0.2709	
0.038308	-1.026996	-0.026108	13.23	-0.35	-6.86	-0.1293	0.4227	-0.2648	
0.037698	-1.02663	-0.021228	14.91	-0.28	-7.35	-0.1168	0.415	-0.2724	
0.036234	-1.021384	-0.032208	15.96	-0.14	-7.42	-0.1297	0.4117	-0.2835	
0.046116	-1.0187	-0.011834	16.73	-0.21	-8.68	-0.131	0.4071	-0.306	
0.047092	-1.024068	-0.00366	17.43	-1.26	-9.59	-0.1322	0.4196	-0.2695	
0.045262	-1.0187	-0.007442	18.2	1.05	-10.15	-0.1409	0.4055	-0.2807	
0.045384	-1.020896	0.010492	16.8	-0.63	-10.29	-0.1381	0.4179	-0.2852	
0.04636	-1.023458	0.020252	14.42	-1.61	-9.8	-0.1381	0.4055	-0.2821	
0.055388	-1.003694	0.04148	16.87	-2.24	-8.82	-0.1339	0.4008	-0.2837	
0.058438	-1.004304	0.052948	17.01	-4.2	-7.84	-0.1369	0.4023	-0.2961	
0.050264	-1.002718	0.061488	16.87	-1.82	-8.68	-0.144	0.4023	-0.2962	
0.047214	-0.99003	0.056608	10.85	-0.56	-7.98	-0.1496	0.4007	-0.2979	
0.053802	-1.01199	0.043188	7.84	0.35	-7.77	-0.1411	0.3946	-0.29	
0.065392	-1.023458	0.05307	6.86	-0.14	-6.51	-0.1439	0.3976	-0.2932	
0.074176	-1.004548	0.055022	11.2	0.07	-5.32	-0.1385	0.3867	-0.304	
0.072834	-0.97478	0.073688	14.98	-0.49	-5.39	-0.144	0.3914	-0.2932	
0.075518	-0.953064	0.07015	18.34	0.21	-5.25	-0.1428	0.3913	-0.3056	
0.074298	-0.952698	0.074664	17.36	0.91	-4.69	-0.1441	0.396	-0.304	
0.07625	-0.957822	0.087962	15.47	0.49	-4.13	-0.1554	0.3882	-0.3043	
0.097844	-0.959286	0.08906	16.17	0.42	-3.43	-0.1528	0.3866	-0.3136	
0.10919	-0.95892	0.100528	16.73	-0.14	-2.73	-0.1529	0.385	-0.3198	
0.099674	-0.960384	0.108702	16.87	-0.28	-3.5	-0.1487	0.385	-0.3213	
0.087962	-0.955016	0.107848	14.35	0.77	-4.06	-0.1556	0.385	-0.3168	
0.09516	-0.962946	0.13359	13.58	1.54	-4.69	-0.1682	0.3788	-0.3124	
0.092964	-0.96807	0.121756	13.09	0.56	-6.51	-0.1557	0.3788	-0.3168	
0.09394	-0.970998	0.1281	14.56	4.13	-6.93	-0.1612	0.3803	-0.3107	
0.11285	-0.961604	0.159942	10.57	-0.35	-6.58	-0.1573	0.3756	-0.3308	
0.114802	-0.972096	0.182146	10.15	2.17	-5.6	-0.1572	0.3756	-0.3262	
0.099308	-0.985272	0.15677	10.01	7.42	-5.32	-0.1571	0.3896	-0.3198	
0.154086	-0.926224	0.324276	6.51	3.15	-4.41	-0.1614	0.3772	-0.3216	
0.08906	-0.91744	0.034282	23.59	17.08	-4.76	-0.1544	0.3694	-0.323	
0.126636	-0.94794	0.203618	10.15	-0.63	-3.71	-0.1545	0.374	-0.3292	
0.115778	-0.967338	0.19093	6.02	1.33	-5.11	-0.1629	0.3724	-0.3294	
0.115656	-0.960384	0.19947	7.7	1.26	-4.83	-0.1632	0.363	-0.3403	
0.11712	-0.96746	0.19337	8.26	2.45	-5.04	-0.1589	0.3615	-0.3356	
0.121756	-0.974292	0.213256	7.63	2.03	-4.76	-0.1559	0.3678	-0.3293	
0.127368	-0.96563	0.205082	8.68	2.1	-4.9	-0.1588	0.3724	-0.3355	
0.128954	-0.967582	0.20008	10.43	2.59	-4.76	-0.1689	0.3568	-0.3451	
0.130052	-0.972828	0.210816	9.94	1.75	-4.76	-0.1576	0.3584	-0.3418	
0.12993	-0.969046	0.210816	9.66	2.59	-4.83	-0.1534	0.3631	-0.3432	
0.132126	-0.966728	0.213866	9.66	2.8	-4.62	-0.1534	0.363	-0.3448	
0.132126	-0.965508	0.214476	8.75	3.71	-3.99	-0.1563	0.3444	-0.3434	
0.121756	-0.964044	0.207888	8.54	4.06	-4.2	-0.159	0.3506	-0.3388	
0.126148	-0.96136	0.19764	8.26	3.78	-4.06	-0.1647	0.349	-0.342	
0.132248	-0.966728	0.19581	8.61	2.03	-3.99	-0.1619	0.3459	-0.3435	
0.131638	-0.981978	0.200324	8.96	-0.49	-4.27	-0.1618	0.3615	-0.345	
0.128954	-0.974536	0.200812	9.17	0.49	-3.64	-0.1592	0.3505	-0.3543	
0.132248	-0.962458	0.205936	8.75	-0.14	-3.36	-0.1549	0.3521	-0.348	
0.12993	-0.961116	0.210084	6.86	0.91	-2.17	-0.1563	0.3444	-0.3481	
0.129076	-0.969778	0.218624	5.25	-0.21	-2.1	-0.1662	0.3536	-0.3513	
0.137006	-0.969656	0.219478	5.39	-0.91	-2.24	-0.1633	0.3583	-0.3466	
0.144326	-0.958188	0.225944	5.39	0.7	-0.63	-0.1577	0.3428	-0.3466	
0.138836	-0.956968	0.215208	5.11	1.47	-0.56	-0.176	0.3536	-0.3484	
0.13603	-0.95709	0.215208	4.27	2.03	-0.7	-0.1677	0.3412	-0.353	
0.136152	-0.960628	0.21655	3.43	1.75	-0.77	-0.1649	0.3427	-0.3529	
0.13115	-0.96624	0.221186	2.31	0.84	-1.05	-0.165	0.3427	-0.3591	
0.133834	-0.964898	0.21594	2.52	0.63	-0.42	-0.169	0.3428	-0.3499	
0.134932	-0.970144	0.214964	2.8	-0.35	0.07	-0.1704	0.3474	-0.3514	
0.133956	-0.970022	0.21533	3.22	-0.7	0.21	-0.1703	0.3567	-0.3467	
0.134078	-0.969656	0.216184	3.29	-0.7	0.14	-0.1622	0.3412	-0.3591	
0.137494	-0.966362	0.216428	2.8	-0.14	0.07	-0.1691	0.3427	-0.353	
0.139568	-0.96502	0.219234	2.52	-0.21	0.14	-0.1637	0.3489	-0.3652	
0.139934	-0.96197	0.22082	2.1	-0.35	0.21	-0.1692	0.3458	-0.3576	
0.141886	-0.957822	0.22387	1.89	-0.35	0.28	-0.1705	0.3412	-0.3546	
0.138592	-0.961482	0.224724	1.33	0	0.28	-0.1748	0.3427	-0.3562	
0.136274	-0.966728	0.222894	0.63	0	0.28	-0.1635	0.3396	-0.3545	
0.134566	-0.966362	0.226798	1.05	0.49	0.42	-0.1719	0.3489	-0.3545	
0.135908	-0.963556	0.229238	1.05	0.63	0.49	-0.1665	0.3411	-0.3654	
0.134322	-0.961482	0.227896	0.77	0.63	0.63	-0.1691	0.3458	-0.3561	
0.135298	-0.964532	0.227042	0.35	0.28	0.77	-0.1635	0.352	-0.3559	
0.13359	-0.964532	0.225822	0.14	0.14	0.84	-0.1619	0.349	-0.3482	
0.136274	-0.958676	0.232898	-0.35	-0.77	0.91	-0.1623	0.3334	-0.3622	
0.137738	-0.960994	0.232776	-0.98	-0.7	1.05	-0.1635	0.3458	-0.356	
0.137616	-0.958066	0.235948	-1.33	-0.77	0.84	-0.1721	0.3458	-0.3623	
0.13847	-0.95465	0.227652	-1.61	-0.91	0.42	-0.1692	0.3474	-0.3576	
0.133712	-0.959164	0.228628	-0.98	-0.35	0.35	-0.1536	0.3568	-0.3526	
0.135176	-0.960994	0.225456	-1.68	-0.28	0.07	-0.1635	0.3459	-0.3529	
0.133346	-0.96502	0.226676	-1.26	-0.14	0.07	-0.1652	0.3488	-0.3715	
0.133834	-0.968802	0.223992	-1.19	0.07	0.14	-0.1677	0.3474	-0.3576	
0.132248	-0.970998	0.226188	-0.63	0.28	0.07	-0.1635	0.3582	-0.359	
0.125416	-0.972584	0.224724	-0.84	0.91	0.14	-0.165	0.3411	-0.3591	
0.12627	-0.96136	0.218624	-0.84	0.98	0.28	-0.1633	0.3521	-0.3466	
0.13481	-0.960628	0.229238	-1.89	-0.07	0.49	-0.1593	0.3443	-0.3574	
0.137128	-0.965508	0.220454	-1.68	0.35	0.35	-0.1619	0.3444	-0.3466	
0.137128	-0.967216	0.22875	-1.68	-0.21	0.49	-0.1692	0.3365	-0.3577	
0.130052	-0.965996	0.233996	-1.89	0.21	0.42	-0.1676	0.3521	-0.3482	
0.128832	-0.960994	0.234606	-1.96	0.77	1.05	-0.1703	0.3428	-0.3406	
0.132492	-0.955748	0.228262	-2.38	0.63	1.33	-0.1663	0.3427	-0.356	
0.142374	-0.947086	0.244	-4.9	-0.28	1.05	-0.1648	0.3536	-0.3513	
0.11163	-0.980758	0.235582	-9.24	0.21	0.07	-0.165	0.3411	-0.3607	
0.09357399	-0.993934	0.181658	-8.68	-0.35	0.7	-0.1536	0.3443	-0.3542	
0.09394	-0.959164	0.21045	-7	-3.99	1.4	-0.1648	0.3443	-0.3498	
0.11285	-0.94428	0.22265	-5.32	-4.76	0.98	-0.1648	0.3614	-0.3543	
0.132248	-0.951478	0.226554	-4.34	-3.71	0	-0.1649	0.3459	-0.3529	
0.133346	-0.956236	0.219478	-4.76	-1.61	-0.98	-0.1634	0.3521	-0.3497	
0.110532	-0.953064	0.209596	-6.23	-1.4	-2.87	-0.1619	0.3521	-0.345	
0.102724	-0.9516	0.190564	-5.81	-1.26	-5.74	-0.1619	0.3521	-0.3435	
0.098698	-0.944524	0.194834	-6.02	-1.26	-8.47	-0.1688	0.3568	-0.3405	
0.111508	-0.943792	0.205448	-7.07	-1.54	-10.5	-0.1563	0.3459	-0.3481	
0.127734	-0.943914	0.212158	-8.19	-1.12	-12.18	-0.1675	0.3537	-0.3436	
0.127002	-0.946232	0.213744	-8.33	0.98	-14.21	-0.1702	0.3459	-0.339	
0.11773	-0.945256	0.19947	-8.26	2.52	-16.52	-0.176	0.3629	-0.3483	
0.11651	-0.931104	0.2013	-7.98	3.85	-19.32	-0.1732	0.3505	-0.3484	
0.114314	-0.934032	0.193614	-8.47	4.55	-22.75	-0.1828	0.3552	-0.3346	
0.111142	-0.936716	0.19032	-9.38	4.13	-25.9	-0.1787	0.349	-0.3407	
0.119194	-0.944402	0.189466	-9.03	3.36	-29.26	-0.1817	0.3365	-0.3486	
0.13237	-0.948428	0.195688	-9.03	2.31	-32.69	-0.1827	0.3537	-0.3299	
0.140178	-0.956358	0.177022	-9.24	2.38	-35	-0.1914	0.3504	-0.3472	
0.144082	-0.948062	0.160064	-7.7	1.12	-37.94	-0.1969	0.352	-0.338	
0.160552	-0.930128	0.166164	-5.95	-1.33	-41.16	-0.2026	0.3535	-0.3427	
0.181414	-0.923052	0.173484	-6.93	-2.8	-44.45	-0.1998	0.3365	-0.3381	
0.205082	-0.926468	0.172508	-9.73	-3.5	-46.97	-0.2096	0.3396	-0.3398	
0.217648	-0.932202	0.13664	-11.76	-5.88	-51.1	-0.2165	0.3458	-0.3322	
0.243512	-0.913048	0.129442	-8.33	-9.38	-55.09	-0.2292	0.3411	-0.334	
0.284138	-0.904386	0.123464	-5.6	-11.83	-59.08	-0.2376	0.3302	-0.3312	
0.329278	-0.886208	0.126148	-4.83	-14.07	-62.23	-0.2445	0.324	-0.3205	
0.371856	-0.884134	0.109678	-2.94	-16.1	-64.19	-0.2433	0.3162	-0.3298	
0.431026	-0.905484	0.122	-3.64	-18.62	-65.31	-0.2532	0.3053	-0.3301	
0.465064	-0.92049	0.108946	-0.49	-18.2	-66.01	-0.2643	0.3115	-0.3241	
0.478728	-0.928908	0.119682	4.9	-16.24	-65.59	-0.2726	0.2991	-0.3135	
0.480314	-0.922564	0.134932	7.84	-13.86	-64.68	-0.2838	0.3006	-0.3121	
0.486292	-0.91073	0.138958	9.94	-11.27	-63.84	-0.291	0.2881	-0.3185	
0.472994	-0.902556	0.12566	13.37	-11.2	-61.39	-0.2981	0.2788	-0.3203	
0.495686	-0.87901	0.156526	19.32	-12.11	-59.57	-0.3093	0.2772	-0.3174	
0.5185	-0.84912	0.151158	20.23	-10.78	-56.63	-0.3136	0.2725	-0.3237	
0.535702	-0.836798	0.141276	21.49	-9.94	-54.04	-0.3136	0.2554	-0.3192	
0.55937	-0.823256	0.140544	21.28	-10.85	-51.94	-0.3319	0.2491	-0.3196	
0.573766	-0.807518	0.140178	22.89	-11.69	-50.54	-0.3362	0.2475	-0.3213	
0.59597	-0.798978	0.12749	19.25	-11.34	-48.23	-0.3305	0.2383	-0.3166	
0.612928	-0.801418	0.139324	15.96	-13.3	-46.06	-0.3431	0.2196	-0.3123	
0.651968	-0.783728	0.142862	11.06	-15.26	-43.61	-0.3446	0.2273	-0.32	
0.663558	-0.769088	0.132736	9.45	-15.61	-42.14	-0.3405	0.2289	-0.3246	
0.68442	-0.761524	0.148474	12.32	-14.91	-41.09	-0.3518	0.2195	-0.3249	
0.694058	-0.761768	0.149206	13.44	-13.93	-40.11	-0.3545	0.2071	-0.3188	
0.701744	-0.742004	0.167994	14.42	-11.2	-39.83	-0.3629	0.2117	-0.3174	
0.709308	-0.7259	0.149206	13.16	-7.98	-38.85	-0.3587	0.1963	-0.3112	
0.68564	-0.696742	0.12688	13.72	-6.02	-37.17	-0.3618	0.1899	-0.3268	
0.700524	-0.671	0.136884	12.25	-8.05	-35.56	-0.3772	0.1852	-0.3225	
0.731146	-0.671	0.158722	5.95	-8.89	-33.32	-0.3701	0.1698	-0.3178	
0.748104	-0.684298	0.162138	2.59	-7	-31.71	-0.3827	0.1853	-0.3164	
0.726388	-0.684176	0.1403	5.81	-6.44	-29.75	-0.387	0.1759	-0.3181	
0.719312	-0.679784	0.15372	5.46	-9.38	-26.18	-0.38	0.1682	-0.318	
0.737124	-0.674782	0.149938	1.19	-10.71	-23.31	-0.3787	0.1635	-0.3227	
0.750666	-0.667462	0.132614	2.31	-10.08	-22.47	-0.373	0.162	-0.3195	
0.757742	-0.65331	0.135054	3.99	-10.5	-20.58	-0.3911	0.1713	-0.312	
0.779336	-0.637938	0.154818	3.36	-10.43	-19.39	-0.3925	0.1527	-0.3075	
0.7991	-0.625372	0.143838	2.66	-9.45	-17.85	-0.3911	0.1542	-0.3106	
0.813008	-0.614514	0.147254	4.76	-8.68	-16.31	-0.3996	0.1542	-0.3108	
0.823866	-0.60329	0.170556	3.71	-7.42	-14.91	-0.3953	0.1496	-0.3076	
0.829356	-0.597068	0.155184	2.03	-4.83	-13.23	-0.3952	0.1403	-0.2999	
0.818376	-0.589748	0.150304	0.77	-3.5	-11.27	-0.401	0.134	-0.3094	
0.802638	-0.578036	0.151402	1.75	-2.24	-9.38	-0.3967	0.1371	-0.3062	
0.803492	-0.577792	0.148962	-0.07	-1.54	-7.98	-0.3982	0.1387	-0.3078	
0.810446	-0.57706	0.138348	-0.98	-1.47	-6.44	-0.3953	0.1387	-0.3062	
0.82167	-0.572668	0.145058	-2.45	-1.75	-4.34	-0.4054	0.1293	-0.3157	
0.824964	-0.586576	0.151158	-4.48	-0.28	-2.73	-0.4037	0.1371	-0.3048	
0.835334	-0.593408	0.155062	-2.1	0.49	-1.4	-0.4037	0.1387	-0.3001	
0.830698	-0.604022	0.141886	-0.84	1.68	0.21	-0.4037	0.1387	-0.3001	
0.831308	-0.599752	0.15311	-0.35	3.08	2.1	-0.4066	0.1402	-0.3079	
0.808372	-0.596092	0.130662	-0.7	4.83	3.08	-0.3954	0.1325	-0.3077	
0.804102	-0.599996	0.121146	-1.47	3.99	4.83	-0.3983	0.1324	-0.3125	
0.8052	-0.620248	0.128466	-0.77	2.73	7.35	-0.4023	0.1356	-0.3017	
0.805078	-0.628544	0.14823	-1.47	2.31	10.57	-0.3913	0.1418	-0.3154	
0.821304	-0.624884	0.155428	-1.75	1.82	13.65	-0.3911	0.1371	-0.3076	
0.825452	-0.61854	0.156892	-1.33	3.85	15.54	-0.3941	0.1386	-0.3139	
0.812032	-0.62159	0.144448	-0.98	5.74	17.5	-0.394	0.1542	-0.3153	
0.79605	-0.62403	0.14518	-1.33	7.49	20.51	-0.3869	0.148	-0.3075	
0.807396	-0.623664	0.157136	-2.66	7.98	22.47	-0.3925	0.1604	-0.3106	
0.80093	-0.636718	0.141764	-1.54	10.43	24.08	-0.3796	0.1683	-0.2994	
0.793244	-0.6466	0.153476	-2.38	10.29	26.88	-0.3828	0.1666	-0.3166	
0.786656	-0.672464	0.135298	-1.26	11.83	29.68	-0.3771	0.1558	-0.3134	
0.777018	-0.695766	0.15799	-2.45	12.25	33.25	-0.3771	0.1558	-0.3134	
0.776164	-0.724192	0.151524	-2.8	12.88	38.57	-0.3771	0.1698	-0.3149	
0.787388	-0.702842	0.170922	-3.99	14.91	44.03	-0.3715	0.176	-0.3163	
0.783972	-0.710528	0.152256	-6.37	17.43	48.72	-0.3715	0.176	-0.3163	
0.754814	-0.709796	0.144814	-4.55	18.76	53.55	-0.3815	0.1805	-0.3257	
0.727486	-0.71248	0.135908	-1.54	22.75	57.05	-0.3533	0.19	-0.3236	
0.717726	-0.722118	0.149328	-2.38	22.12	60.41	-0.3533	0.19	-0.3236	
0.694668	-0.744322	0.168848	-8.75	24.92	64.96	-0.3477	0.1962	-0.3296	
0.669658	-0.744078	0.18666	-16.66	25.97	68.53	-0.3407	0.2272	-0.3339	
0.634644	-0.762012	0.151524	-29.4	26.67	73.64	-0.3306	0.2181	-0.3198	
0.611098	-0.787388	0.13481	-34.09	17.22	77.42	-0.3351	0.2304	-0.3369	
0.564128	-0.80276	0.114558	-22.33	18.55	79.17	-0.3208	0.2429	-0.3288	
0.533384	-0.809592	0.110898	-14.56	17.5	80.08	-0.3126	0.2491	-0.3394	
0.539362	-0.828014	0.138592	-12.25	13.86	81.27	-0.3082	0.2646	-0.3361	
0.522892	-0.84119	0.135542	-8.4	13.23	83.79	-0.2984	0.2786	-0.3374	
0.485804	-0.84058	0.137128	-6.93	10.71	85.89	-0.2871	0.2849	-0.3355	
0.441396	-0.86559	0.127856	-6.93	7.91	87.29	-0.2703	0.2865	-0.3399	
0.40504	-0.923296	0.180438	-6.37	4.55	87.01	-0.2575	0.3021	-0.3348	
0.39162	-0.963556	0.218014	-2.94	5.39	88.06	-0.2476	0.3177	-0.3361	
0.340014	-0.939034	0.188124	3.43	7.35	90.79	-0.2377	0.327	-0.3358	
0.261568	-0.93269	0.172996	6.51	7.14	91.63	-0.2263	0.3303	-0.3278	
0.222528	-0.908656	0.155428	7.49	5.95	91.84	-0.2096	0.3442	-0.3398	
0.218868	-0.946232	0.185318	7.98	4.34	91.56	-0.2027	0.3411	-0.3428	
0.218136	-0.978074	0.215452	9.17	6.16	91.42	-0.1914	0.3598	-0.3471	
0.184586	-0.907436	0.2135	11.34	11.62	93.45	-0.1815	0.3397	-0.3362	
0.130174	-0.934764	0.208742	13.93	13.44	91.7	-0.1759	0.3614	-0.3452	
0.087596	-0.972096	0.222894	14.98	18.27	89.95	-0.155	0.3645	-0.3541	
0.054412	-0.933422	0.216916	16.8	21.63	89.88	-0.1422	0.3615	-0.3477	
0.013054	-0.949404	0.227042	14.28	24.92	90.44	-0.1326	0.3537	-0.3568	
-0.051362	-0.940742	0.215086	16.1	21.84	89.67	-0.1171	0.3615	-0.3611	
-0.103212	-0.933056	0.214842	21.49	24.78	88.13	-0.1004	0.3553	-0.3671	
-0.160064	-0.96746	0.21045	20.65	23.1	85.19	-0.0905	0.3616	-0.3622	
-0.193736	-0.953796	0.20008	20.93	20.51	84	-0.0905	0.36	-0.3668	
-0.209962	-0.952942	0.211914	20.37	12.39	84.42	-0.0638	0.357	-0.3663	
-0.21045	-0.946964	0.232776	22.05	13.58	82.25	-0.0584	0.357	-0.3755	
-0.234606	-0.926834	0.25315	17.5	9.59	78.61	-0.0402	0.3586	-0.3798	
-0.260714	-0.948062	0.244122	16.59	10.64	72.8	-0.0389	0.3477	-0.383	
-0.265106	-0.930006	0.264008	16.24	7.21	68.39	-0.0305	0.3493	-0.3859	
-0.269132	-0.90707	0.251076	19.04	10.78	65.31	-0.0192	0.3586	-0.3841	
-0.282308	-0.87474	0.256444	20.93	10.01	62.23	-0.0121	0.3478	-0.3809	
-0.319152	-0.889624	0.26779	20.51	12.25	59.5	0.0031	0.3416	-0.3884	
-0.357338	-0.867542	0.287432	21.07	12.53	56.84	-0.0009	0.354	-0.3868	
-0.363438	-0.84668	0.282796	21.7	14.14	54.53	0.0128	0.3385	-0.3975	
-0.36905	-0.8479	0.291214	17.57	10.92	50.68	0.0198	0.3401	-0.3958	
-0.389302	-0.853634	0.285846	19.81	12.74	48.44	0.0309	0.3385	-0.4049	
-0.39467	-0.844728	0.292068	21.56	13.02	45.78	0.0381	0.3262	-0.394	
-0.411384	-0.822646	0.310856	21.84	13.72	43.05	0.0353	0.3293	-0.3925	
-0.448594	-0.820572	0.295484	22.4	15.19	40.81	0.0534	0.3293	-0.403	
-0.469944	-0.808738	0.34526	19.81	14.7	40.04	0.0505	0.3199	-0.4093	
-0.492148	-0.814472	0.354044	19.25	15.68	40.18	0.0703	0.3231	-0.3996	
-0.483364	-0.850462	0.343308	19.88	13.72	40.88	0.07449999	0.3169	-0.4011	
-0.454328	-0.824354	0.340624	18.9	9.1	40.18	0.0743	0.3091	-0.4074	
-0.455304	-0.784582	0.347944	20.44	9.8	36.89	0.077	0.3168	-0.4197	
-0.483242	-0.73505	0.346602	21.49	10.01	33.67	0.0911	0.3076	-0.4117	
-0.52643	-0.749202	0.349408	19.25	9.87	29.75	0.0897	0.2967	-0.4103	
-0.523258	-0.757498	0.349042	16.59	7.21	27.02	0.0869	0.2936	-0.4119	
-0.515572	-0.795074	0.354166	17.22	3.99	25.2	0.1024	0.2937	-0.4326	
-0.506544	-0.772748	0.35563	16.73	5.18	24.08	0.0883	0.2843	-0.3848	
-0.503494	-0.75884	0.363438	14.91	7.42	21.28	0.1093	0.2921	-0.4146	
-0.51484	-0.73261	0.351604	16.38	8.96	19.6	0.0937	0.2967	-0.4242	
-0.543998	-0.738344	0.385032	13.3	10.01	15.89	0.1106	0.2859	-0.4177	
-0.568032	-0.775432	0.378932	13.65	11.41	15.4	0.1007	0.2843	-0.4226	
-0.5673	-0.750178	0.375394	11.83	9.66	14.91	0.1133	0.2874	-0.4239	
-0.562542	-0.743712	0.367952	12.11	8.4	13.86	0.109	0.2812	-0.4271	
-0.57828	-0.754448	0.37088	11.69	9.52	12.88	0.1133	0.2657	-0.424	
-0.591944	-0.758474	0.377224	11.62	10.15	11.62	0.1204	0.2704	-0.4207	
-0.60146	-0.74725	0.369416	11.76	10.15	11.2	0.1273	0.2673	-0.4237	
-0.581696	-0.720776	0.365756	11.62	7.35	10.99	0.1272	0.2703	-0.4299	
-0.569862	-0.703452	0.367342	11.13	5.6	9.03	0.1202	0.2626	-0.4286	
-0.57157	-0.685396	0.37271	9.03	4.55	6.93	0.1287	0.2657	-0.4253	
-0.618784	-0.701134	0.383324	9.24	3.71	4.69	0.1259	0.2533	-0.4223	
-0.63684	-0.715774	0.374174	7.28	6.02	4.2	0.133	0.2673	-0.4236	
-0.642818	-0.700158	0.377834	6.23	3.99	1.61	0.1216	0.2626	-0.4301	
-0.642452	-0.691252	0.384544	5.95	3.01	-0.35	0.1272	0.2626	-0.4284	
-0.637206	-0.675392	0.397476	5.39	0.77	-1.68	0.13	0.2595	-0.4315	
-0.612684	-0.640988	0.391132	4.41	-2.31	-2.8	0.1315	0.2549	-0.4222	
-0.61427	-0.656238	0.397232	4.06	-4.9	-5.39	0.1341	0.2501	-0.4346	
-0.636108	-0.68564	0.40687	4.76	-3.5	-8.75	0.1272	0.261	-0.4284	
-0.629764	-0.67893	0.412848	1.47	-2.8	-8.96	0.123	0.2532	-0.4286	
-0.621346	-0.679418	0.414922	0.07	-1.54	-9.94	0.1216	0.2594	-0.4301	
-0.61305	-0.66551	0.417118	-0.63	-1.54	-11.41	0.1313	0.261	-0.4105	
-0.606462	-0.674782	0.412604	-1.89	-0.56	-14.07	0.1229	0.2579	-0.4588	
-0.60878	-0.671244	0.410164	-2.1	-0.7	-15.47	0.1216	0.2579	-0.427	
-0.619272	-0.660508	0.406626	-2.52	-1.61	-17.64	0.1158	0.2625	-0.4123	
-0.632082	-0.682834	0.402966	-3.78	-2.94	-19.74	0.1187	0.2594	-0.4573	
-0.608414	-0.69784	0.400648	-5.18	-5.6	-21.14	0.1216	0.2579	-0.4286	
-0.597922	-0.703574	0.400892	-6.09	-7.35	-22.89	0.1076	0.2532	-0.4242	
-0.600362	-0.705648	0.409554	-6.86	-8.75	-24.78	0.1132	0.2687	-0.4302	
-0.601216	-0.713822	0.404308	-8.19	-10.15	-27.65	0.0949	0.2593	-0.4291	
-0.57645	-0.698694	0.403576	-9.73	-11.97	-30.1	0.1048	0.2687	-0.4273	
-0.55632	-0.698816	0.388082	-11.55	-13.86	-32.2	0.099	0.2671	-0.4367	
-0.540704	-0.717604	0.389424	-13.37	-15.26	-35.7	0.092	0.2748	-0.4368	
-0.538996	-0.744688	0.387106	-14.28	-16.8	-39.83	0.09079999	0.2842	-0.4274	
-0.533262	-0.754936	0.401136	-14.91	-17.36	-43.26	0.0781	0.2795	-0.4293	
-0.495076	-0.740662	0.395402	-16.03	-15.89	-47.81	0.081	0.2904	-0.4229	
-0.455426	-0.75457	0.384666	-18.34	-17.43	-52.22	0.0697	0.2919	-0.4309	
-0.426634	-0.772138	0.387716	-20.37	-18.34	-55.72	0.0726	0.295	-0.4246	
-0.416508	-0.777384	0.378322	-21.14	-17.36	-58.66	0.0543	0.2981	-0.4234	
-0.4148	-0.785436	0.36722	-21.14	-21.28	-63.98	0.0474	0.3027	-0.4204	
-0.404674	-0.793976	0.366488	-22.05	-19.46	-65.03	0.0334	0.3027	-0.416	
-0.369538	-0.794708	0.38735	-22.47	-21.84	-66.85	0.0305	0.3088	-0.4222	
-0.327936	-0.80642	0.35685	-21.14	-22.75	-69.09	0.0278	0.3182	-0.4191	
-0.27999	-0.808616	0.359656	-21.77	-20.79	-70.42	0.0096	0.3244	-0.4132	
-0.266692	-0.834724	0.356606	-24.78	-21.28	-73.15	0.0027	0.3151	-0.4072	
-0.259128	-0.869738	0.348432	-26.53	-18.9	-74.34	-0.0069	0.3306	-0.3995	
-0.219844	-0.877058	0.325496	-28.56	-18.83	-75.18	-0.0181	0.3352	-0.3966	
-0.172874	-0.88572	0.313784	-29.26	-18.62	-75.46	-0.0292	0.3445	-0.3952	
-0.12871	-0.924394	0.319762	-29.96	-18.76	-76.93	-0.0434	0.3367	-0.3987	
-0.087962	-0.932812	0.289506	-29.19	-16.03	-79.52	-0.0518	0.3336	-0.3957	
-0.040138	-0.923174	0.269742	-28.7	-17.36	-81.83	-0.0645	0.3366	-0.4006	
0.013542	-0.911218	0.25681	-28.07	-16.31	-82.11	-0.0755	0.3351	-0.3853	
0.038674	-0.922564	0.255346	-29.4	-13.37	-82.46	-0.08679999	0.3413	-0.3871	
0.039528	-0.923174	0.210938	-30.66	-11.13	-82.6	-0.09779999	0.3537	-0.3794	
0.06832	-0.920856	0.19581	-29.19	-8.75	-84.35	-0.1077	0.3428	-0.3797	
0.093208	-0.934276	0.19581	-32.27	-14	-84.07	-0.1187	0.349	-0.369	
0.111386	-0.93025	0.168482	-31.71	-13.51	-84.07	-0.1301	0.3474	-0.3755	
0.149328	-0.926346	0.15189	-30.45	-16.87	-84.7	-0.1454	0.3381	-0.3619	
0.211426	-0.923174	0.148474	-27.93	-20.86	-86.24	-0.1424	0.3475	-0.3555	
0.271694	-0.933666	0.14945	-22.61	-22.68	-88.06	-0.1496	0.3381	-0.3604	
0.322568	-0.96563	0.167872	-20.02	-23.73	-88.48	-0.1789	0.3412	-0.3485	
0.368562	-1.009428	0.158844	-16.03	-23.59	-85.82	-0.2027	0.3396	-0.3444	
0.374052	-1.007964	0.13908	-13.09	-22.82	-82.39	-0.2126	0.3426	-0.3507	
0.386862	-0.998692	0.1586	-10.57	-24.71	-77.28	-0.2253	0.3317	-0.348	
0.416996	-0.992226	0.176168	-12.67	-22.4	-71.47	-0.2351	0.3223	-0.3451	
0.437248	-0.9638	0.145424	-11.2	-18.55	-66.5	-0.2433	0.3177	-0.3329	
0.45201	-0.950258	0.100528	-7.07	-16.17	-63.14	-0.2587	0.3162	-0.3255	
0.443348	-0.912926	0.108458	-0.77	-14.91	-60.2	-0.2658	0.3208	-0.3302	
0.453962	-0.91012	0.10553	2.24	-12.04	-58.73	-0.2658	0.3021	-0.3273	
0.453596	-0.909876	0.0976	2.52	-11.48	-57.26	-0.2798	0.3037	-0.3244	
0.485072	-0.904996	0.117242	3.64	-11.9	-55.65	-0.287	0.2943	-0.3308	
0.505934	-0.883402	0.11895	4.83	-9.24	-54.53	-0.2896	0.2959	-0.3231	
0.528504	-0.851926	0.119438	5.67	-8.33	-53.48	-0.294	0.2819	-0.3264	
0.532164	-0.843508	0.118462	2.73	-8.19	-53.83	-0.3038	0.2849	-0.3266	
0.522038	-0.832894	0.09857599	4.34	-9.31	-52.85	-0.3038	0.2694	-0.3251	
0.525698	-0.845338	0.112362	5.95	-12.39	-51.73	-0.3109	0.2632	-0.3253	
0.541436	-0.855464	0.11956	8.19	-12.74	-50.47	-0.3096	0.2662	-0.3361	
0.558882	-0.835944	0.135054	18.41	-12.74	-49	-0.3293	0.2475	-0.332	
0.58682	-0.808128	0.148962	27.65	-11.9	-48.23	-0.3208	0.246	-0.3241	
0.612928	-0.809226	0.15555	27.09	-10.71	-47.74	-0.3335	0.2351	-0.3291	
0.630618	-0.786168	0.169702	27.09	-10.71	-45.71	-0.3419	0.2351	-0.3277	
0.64782	-0.776164	0.191662	25.97	-10.57	-44.59	-0.3463	0.2257	-0.3309	
0.646356	-0.775066	0.20984	20.23	-10.43	-42.21	-0.3475	0.218	-0.3233	
0.658922	-0.75579	0.202886	16.73	-8.82	-39.34	-0.3532	0.204	-0.3204	
0.662338	-0.763232	0.187636	18.06	-8.19	-36.4	-0.3534	0.2101	-0.3327	
0.671244	-0.733952	0.183244	14.84	-6.72	-32.41	-0.3519	0.1993	-0.3266	
0.686372	-0.735172	0.201056	11.97	-7.28	-30.24	-0.3577	0.1914	-0.3376	
0.677222	-0.742736	0.170678	4.83	-6.72	-25.41	-0.3648	0.1883	-0.3362	
0.691862	-0.723094	0.172264	4.83	-7.56	-22.12	-0.3746	0.1867	-0.3349	
0.696864	-0.711992	0.166896	3.36	-6.23	-21.07	-0.3688	0.1852	-0.327	
0.69784	-0.703086	0.163724	3.5	-7	-20.3	-0.359	0.1806	-0.3253	
0.716018	-0.693082	0.174948	1.75	-7.7	-20.23	-0.3745	0.1821	-0.3271	
0.727852	-0.689666	0.16043	0.07	-7.63	-19.32	-0.373	0.1868	-0.3224	
0.734684	-0.678564	0.172874	-0.56	-8.54	-18.48	-0.3661	0.1744	-0.3301	
0.724924	-0.676124	0.148352	1.05	-7.63	-16.73	-0.3757	0.176	-0.3164	
0.721874	-0.667828	0.157502	0.63	-7.49	-14.49	-0.3787	0.1713	-0.3242	
0.727608	-0.659898	0.16348	-0.63	-7	-13.3	-0.3787	0.1666	-0.3227	
0.738222	-0.662338	0.149572	-1.96	-6.86	-11.9	-0.3817	0.1681	-0.3336	
0.746152	-0.65087	0.165432	-0.77	-6.44	-11.2	-0.3745	0.1666	-0.3273	
0.747494	-0.661118	0.159942	-0.07	-4.97	-11.55	-0.3843	0.1588	-0.3213	
0.754204	-0.660508	0.174582	-0.42	-5.18	-10.57	-0.3899	0.1634	-0.3229	
0.760792	-0.653432	0.173362	1.19	-4.48	-9.8	-0.3785	0.1589	-0.3119	
0.749446	-0.643306	0.162748	3.22	-3.5	-8.75	-0.3871	0.1572	-0.3229	
0.7442	-0.63867	0.160064	3.22	-3.78	-7.7	-0.3856	0.1604	-0.3151	
0.763232	-0.629886	0.148352	3.01	-5.04	-7	-0.3955	0.151	-0.32	
0.773114	-0.6344	0.159942	3.43	-4.76	-6.3	-0.3855	0.1558	-0.312	
0.76372	-0.650138	0.180438	2.1	-3.78	-5.46	-0.3914	0.1432	-0.3246	
0.771772	-0.644892	0.179096	1.47	-3.36	-4.06	-0.394	0.1542	-0.3153	
0.775432	-0.642696	0.177144	1.75	-2.87	-2.8	-0.3841	0.1527	-0.3105	
0.779824	-0.635498	0.172142	1.33	-1.82	-0.63	-0.3982	0.148	-0.3123	
0.789828	-0.6344	0.176168	1.12	-1.96	1.68	-0.391	0.1527	-0.3029	
0.783484	-0.637328	0.159454	0.14	-1.05	3.78	-0.3899	0.1557	-0.3214	
0.792878	-0.624762	0.164334	-0.07	-0.28	6.79	-0.3871	0.1557	-0.3198	
0.798124	-0.624518	0.1708	0.63	1.12	8.54	-0.3913	0.1588	-0.3214	
0.80154	-0.625982	0.170678	-0.21	1.75	10.36	-0.401	0.1604	-0.3108	
0.795196	-0.630496	0.153476	-0.28	2.8	12.39	-0.3912	0.1526	-0.3137	
0.791292	-0.641232	0.159088	-0.84	2.45	14.91	-0.39	0.1619	-0.3276	
0.79727	-0.652944	0.175436	-1.26	2.94	17.64	-0.3883	0.1573	-0.3121	
0.80154	-0.660752	0.171654	-1.89	4.9	20.44	-0.3799	0.1682	-0.3165	
0.799344	-0.656482	0.166408	-1.19	7.49	23.31	-0.3799	0.1605	-0.3119	
0.784948	-0.656238	0.17019	-1.4	9.31	27.09	-0.3855	0.1635	-0.3135	
0.77775	-0.68137	0.157746	-1.61	11.41	29.68	-0.3815	0.1728	-0.3273	
0.764696	-0.702232	0.160064	-2.87	12.95	32.55	-0.3717	0.1728	-0.3272	
0.75762	-0.717116	0.163846	-1.96	15.75	35.35	-0.3759	0.1837	-0.3272	
0.74725	-0.721874	0.160918	-3.08	17.57	39.2	-0.3731	0.1821	-0.3318	
0.732122	-0.726266	0.154086	-2.52	17.15	43.19	-0.3548	0.1931	-0.3298	
0.72468	-0.739076	0.165676	-2.73	17.15	46.97	-0.3589	0.1931	-0.3252	
0.70028	-0.757254	0.160064	-3.36	19.81	50.75	-0.3549	0.1883	-0.336	
0.703086	-0.754936	0.171532	-5.25	19.39	54.95	-0.3576	0.2163	-0.3343	
0.681248	-0.75579	0.170312	-5.67	21.84	58.73	-0.3436	0.2163	-0.3387	
0.646844	-0.760914	0.15006	-2.1	22.82	60.48	-0.3366	0.2241	-0.3401	
0.606828	-0.746274	0.157868	0.07	21.98	61.6	-0.3224	0.2351	-0.3366	
0.576328	-0.771894	0.141154	3.92	20.37	62.02	-0.3225	0.235	-0.3397	
0.577914	-0.785558	0.147498	-0.63	15.89	64.33	-0.3072	0.2397	-0.3502	
0.58621	-0.80886	0.188002	-2.8	13.09	67.13	-0.3112	0.2459	-0.3425	
0.5856	-0.853512	0.213134	-3.01	13.37	70.42	-0.3113	0.2475	-0.3471	
0.584868	-0.855708	0.253272	-2.66	14.42	74.83	-0.2987	0.2584	-0.3515	
0.534482	-0.853024	0.191784	-4.76	16.59	79.59	-0.2803	0.2662	-0.3449	
0.467382	-0.850706	0.16714	1.26	16.94	83.79	-0.2818	0.2771	-0.351	
0.434564	-0.86498	0.178486	1.68	15.47	86.03	-0.2718	0.288	-0.3476	
0.420412	-0.88755	0.212402	1.19	17.78	89.25	-0.255	0.3051	-0.3534	
0.413092	-0.925126	0.280722	-6.37	16.03	92.19	-0.2467	0.302	-0.3594	
0.324642	-0.934276	0.225212	-4.41	18.69	94.78	-0.2381	0.3021	-0.35	
0.216794	-0.957456	0.194224	3.99	14.35	95.55	-0.2171	0.3161	-0.3572	
0.160064	-0.965996	0.187148	10.85	10.99	97.23	-0.2087	0.3192	-0.3648	
0.187758	-0.963068	0.25498	10.22	7.35	98.63	-0.1904	0.3224	-0.3629	
0.227164	-0.932568	0.286456	13.51	5.95	103.46	-0.1916	0.3333	-0.3535	
0.188368	-0.86864	0.254126	17.92	12.53	104.23	-0.1707	0.3287	-0.364	
0.10187	-0.893162	0.263886	18.9	14.77	101.64	-0.1652	0.3411	-0.3715	
0.003782	-0.940376	0.249978	16.31	18.83	98.14	-0.1497	0.338	-0.3681	
-0.043676	-0.92171	0.28121	14.56	18.27	96.53	-0.14	0.3458	-0.3803	
-0.085644	-0.902678	0.289262	12.04	18.13	97.16	-0.1106	0.3396	-0.3813	
-0.141764	-0.902434	0.267058	11.83	19.67	94.99	-0.109	0.3506	-0.3735	
-0.183854	-0.924882	0.279502	10.5	16.45	91.91	-0.09649999	0.3335	-0.3827	
-0.2013	-0.927932	0.270962	8.26	15.54	87.85	-0.0923	0.3537	-0.3855	
-0.193858	-0.91195	0.244488	11.27	15.54	84.49	-0.0726	0.3475	-0.3836	
-0.183488	-0.895846	0.280234	12.74	11.62	80.57	-0.0614	0.3491	-0.3834	
-0.208254	-0.917196	0.285236	16.1	14.98	77.56	-0.0516	0.3414	-0.3879	
-0.247782	-0.899628	0.303536	16.31	16.94	73.57	-0.0319	0.343	-0.3844	
-0.251564	-0.905972	0.28487	17.22	19.11	71.47	-0.0264	0.3446	-0.3936	
-0.262788	-0.860954	0.283528	21.21	17.5	70.35	-0.0095	0.3462	-0.3933	
-0.287432	-0.87413	0.29341	23.8	18.48	65.38	0.0044	0.3353	-0.3946	
-0.306098	-0.865712	0.306708	23.66	17.15	63.63	-0.0013	0.3415	-0.4024	
-0.330986	-0.831064	0.305122	24.64	17.29	59.64	0.0099	0.3322	-0.3976	
-0.3721	-0.820206	0.320372	24.01	11.83	55.58	0.0322	0.3276	-0.4081	
-0.408456	-0.801662	0.30622	23.45	11.76	51.52	0.0252	0.3291	-0.4082	
-0.42639	-0.803858	0.321958	20.44	7.42	50.05	0.0533	0.3215	-0.4062	
-0.434198	-0.794586	0.339404	19.25	7.56	48.58	0.0394	0.3261	-0.4018	
-0.435174	-0.786412	0.341844	16.87	6.72	49.07	0.0475	0.3183	-0.4156	
-0.449936	-0.800564	0.362096	15.26	5.32	48.3	0.0615	0.3059	-0.4185	
-0.462136	-0.802028	0.395158	14.14	4.97	45.92	0.0546	0.3106	-0.4109	
-0.468846	-0.775188	0.384056	15.96	6.65	42.35	0.07009999	0.3091	-0.4075	
-0.497394	-0.76616	0.351604	16.1	7.63	39.34	0.077	0.3013	-0.4167	
-0.531798	-0.753228	0.348188	15.89	8.12	38.15	0.0782	0.2966	-0.4229	
-0.538752	-0.747128	0.358558	18.55	9.59	36.05	0.08109999	0.2904	-0.4214	
-0.544486	-0.759206	0.360144	17.78	10.36	35.14	0.0795	0.2903	-0.4307	
-0.54656	-0.76128	0.355386	18.27	10.5	31.78	0.0922	0.2842	-0.4274	
-0.542412	-0.742736	0.365268	20.09	7.35	28	0.09779999	0.278	-0.4242	
-0.558516	-0.736026	0.379786	18.27	6.09	25.69	0.1005	0.2764	-0.4304	
-0.577792	-0.700158	0.37881	18.69	8.33	24.99	0.0977	0.2718	-0.4305	
-0.618052	-0.736148	0.382104	17.36	6.51	23.66	0.1034	0.2718	-0.4288	
-0.61122	-0.740784	0.389912	15.4	0.84	22.68	0.1119	0.2703	-0.4209	
-0.545828	-0.725778	0.39894	15.61	-3.92	22.4	0.1061	0.264	-0.4319	
-0.538752	-0.695888	0.410408	17.01	-4.13	19.88	0.1061	0.2687	-0.4319	
-0.571692	-0.67649	0.423828	16.45	-2.31	16.17	0.1117	0.264	-0.4334	
-0.594018	-0.67527	0.430904	14.84	-0.07	12.25	0.1172	0.2547	-0.4395	
-0.601704	-0.687104	0.427976	12.46	2.17	10.92	0.1146	0.2641	-0.4287	
-0.594872	-0.68747	0.436516	9.38	0.98	11.34	0.11	0.253	-0.449	
-0.597556	-0.694302	0.431148	8.89	1.96	9.8	0.1171	0.2578	-0.4457	
-0.605242	-0.66002	0.442006	10.57	4.27	4.76	0.1228	0.2532	-0.4379	
-0.606828	-0.640256	0.45567	9.59	6.37	2.17	0.1171	0.2547	-0.4442	
-0.59048	-0.632936	0.447984	8.19	8.26	0.77	0.1213	0.2469	-0.4442	
-0.61122	-0.63928	0.440054	7	5.32	-1.05	0.1173	0.2485	-0.4318	
-0.639646	-0.642574	0.44042	3.78	5.18	-2.31	0.1184	0.2484	-0.4458	
-0.64965	-0.661118	0.44042	3.5	1.47	-5.81	0.1198	0.2469	-0.4473	
-0.658068	-0.6344	0.452864	-0.91	-0.35	-6.23	0.1158	0.2454	-0.4365	
-0.662338	-0.652212	0.451766	-2.66	-2.52	-6.79	0.1171	0.2469	-0.4396	
-0.635498	-0.661484	0.4392	-3.85	-3.71	-7.07	0.1129	0.2562	-0.4443	
-0.623664	-0.657458	0.435906	-3.5	-5.18	-8.68	0.1213	0.2454	-0.4395	
-0.62708	-0.646234	0.438956	-4.48	-4.48	-11.41	0.1116	0.2485	-0.4366	
-0.615856	-0.634522	0.440298	-5.53	-3.36	-13.44	0.1128	0.25	-0.4443	
-0.619394	-0.655994	0.443592	-6.44	-3.78	-12.95	0.116	0.2579	-0.4287	
-0.615246	-0.65575	0.456646	-6.51	-3.85	-14.42	0.113	0.2578	-0.438	
-0.61793	-0.668072	0.449082	-7.14	-2.73	-17.57	0.1074	0.264	-0.4381	
-0.61	-0.668926	0.440298	-8.82	-3.71	-19.88	0.1016	0.2546	-0.446	
-0.600484	-0.663436	0.43615	-10.15	-6.02	-21	0.103	0.2624	-0.4475	
-0.598288	-0.684176	0.429684	-9.66	-6.3	-24.43	0.0989	0.2671	-0.4398	
-0.578524	-0.671976	0.438956	-11.69	-6.93	-27.09	0.103	0.2515	-0.446	
-0.560102	-0.67161	0.438102	-12.39	-7.49	-30.73	0.099	0.2686	-0.4382	
-0.56608	-0.695522	0.437492	-13.86	-8.68	-33.88	0.0849	0.2732	-0.4369	
-0.563762	-0.707234	0.415776	-14.21	-9.73	-35.63	0.0949	0.2686	-0.4321	
-0.554002	-0.709674	0.410774	-16.87	-11.55	-38.22	0.0766	0.2795	-0.4308	
-0.521306	-0.726266	0.402356	-16.87	-11.34	-42.21	0.0765	0.2778	-0.4402	
-0.516548	-0.745542	0.39589	-17.57	-14.49	-45.64	0.0682	0.2918	-0.434	
-0.49776	-0.763232	0.396744	-17.43	-15.75	-49.21	0.0724	0.2918	-0.437	
-0.453352	-0.762622	0.40443	-19.25	-16.52	-52.22	0.0501	0.3011	-0.425	
-0.42761	-0.768478	0.418216	-20.23	-15.47	-55.72	0.0514	0.3057	-0.4342	
-0.411262	-0.773602	0.410286	-20.51	-13.93	-59.5	0.0317	0.3057	-0.4346	
-0.391254	-0.780434	0.403332	-22.19	-14.91	-61.67	0.0192	0.315	-0.4286	
-0.37759	-0.794342	0.38247	-24.36	-16.17	-63.28	0.0207	0.3104	-0.4209	
-0.352824	-0.81557	0.385276	-23.73	-12.88	-66.78	0.0123	0.3104	-0.4179	
-0.338428	-0.818132	0.3843	-25.27	-16.31	-64.96	0.0067	0.3165	-0.4211	
-0.306098	-0.833504	0.384788	-24.92	-14.35	-65.73	-0.0072	0.3181	-0.4167	
-0.286212	-0.850584	0.371246	-26.11	-15.05	-67.48	-0.0157	0.3211	-0.4184	
-0.269376	-0.853756	0.343918	-27.44	-14.49	-68.6	-0.0269	0.318	-0.4186	
-0.242902	-0.882426	0.341966	-28.98	-14.07	-71.47	-0.0352	0.3258	-0.4079	
-0.197152	-0.900238	0.33611	-29.82	-13.58	-71.82	-0.0394	0.3304	-0.4095	
-0.141276	-0.934642	0.315492	-29.47	-14.14	-70.98	-0.0548	0.3381	-0.4097	
-0.09272	-0.931592	0.296948	-27.3	-12.95	-72.24	-0.06439999	0.3444	-0.3959	
-0.063074	-0.90646	0.272304	-27.16	-10.08	-72.52	-0.0757	0.3397	-0.3977	
-0.049898	-0.909876	0.264374	-28.84	-7.84	-73.01	-0.0854	0.3382	-0.3871	
-0.025498	-0.926468	0.243512	-29.96	-6.16	-74.34	-0.091	0.3474	-0.3886	
0.012322	-0.926956	0.25559	-32.41	-7.77	-75.88	-0.1092	0.3443	-0.3828	
0.045628	-0.920368	0.208498	-30.45	-4.69	-75.46	-0.1075	0.3475	-0.3719	
0.067832	-0.940376	0.182634	-32.2	-3.99	-77.63	-0.1174	0.3568	-0.3751	
0.081008	-0.947696	0.159088	-30.52	-7.35	-79.59	-0.1244	0.3443	-0.3692	
0.110044	-0.945622	0.157746	-27.86	-10.71	-81.34	-0.1285	0.3475	-0.3661	
0.159454	-0.945622	0.16104	-24.36	-12.32	-81.48	-0.1496	0.3521	-0.3634	
0.20618	-0.954406	0.157258	-21.35	-12.18	-81.13	-0.1552	0.3411	-0.3651	
0.241926	-0.980148	0.167262	-21	-15.19	-82.04	-0.1678	0.352	-0.3591	
0.258762	-0.988566	0.15311	-17.92	-14.42	-81.55	-0.1816	0.3443	-0.3455	
0.259982	-0.977952	0.142984	-10.15	-15.26	-81.27	-0.1888	0.3426	-0.3534	
0.292922	-0.963678	0.15677	-7.98	-15.82	-81.2	-0.1986	0.3318	-0.3474	
0.336598	-0.964654	0.169214	-8.33	-15.47	-80.08	-0.2168	0.3302	-0.3478	
0.3843	-0.964898	0.165432	-9.17	-16.8	-77.56	-0.2224	0.3255	-0.3433	
0.40992	-0.9699	0.173484	-12.32	-16.66	-73.71	-0.2364	0.3224	-0.3374	
0.40199	-0.917318	0.136396	-7.21	-13.09	-72.52	-0.2335	0.3193	-0.3343	
0.419192	-0.88755	0.136518	-2.87	-12.18	-72.24	-0.2518	0.3208	-0.333	
0.437614	-0.896944	0.13298	-3.43	-12.53	-72.1	-0.2604	0.2974	-0.3396	
0.453474	-0.950502	0.170434	-6.86	-15.12	-70.49	-0.2618	0.3098	-0.3395	
0.430782	-0.938302	0.138958	-4.9	-13.3	-68.32	-0.2812	0.2928	-0.3245	
0.430172	-0.904996	0.124074	-0.63	-13.58	-63.7	-0.2801	0.2942	-0.3384	
0.458354	-0.877302	0.110898	4.97	-15.33	-59.71	-0.2939	0.2943	-0.3232	
0.522038	-0.858514	0.148108	-0.14	-17.78	-56.42	-0.3026	0.274	-0.3344	
0.545218	-0.836554	0.13054	-1.54	-17.15	-54.04	-0.3122	0.2725	-0.3222	
0.567788	-0.825574	0.121756	2.59	-16.66	-54.25	-0.3081	0.2693	-0.3299	
0.581574	-0.825452	0.11468	7.84	-17.64	-54.11	-0.3222	0.2538	-0.3256	
0.6039	-0.826184	0.157014	10.71	-17.15	-53.62	-0.3291	0.2585	-0.3211	
0.618296	-0.812032	0.14823	10.5	-16.73	-51.59	-0.3334	0.246	-0.3259	
0.626104	-0.782386	0.131394	19.81	-16.24	-49.63	-0.3389	0.2522	-0.3182	
0.641476	-0.750056	0.125294	25.27	-15.19	-47.46	-0.3446	0.2335	-0.32	
0.664046	-0.741638	0.177998	21	-14.91	-44.59	-0.3502	0.2289	-0.3186	
0.66673	-0.772626	0.155916	20.16	-11.48	-45.71	-0.3501	0.2227	-0.3109	
0.674416	-0.756034	0.165066	22.47	-12.39	-43.96	-0.363	0.2024	-0.319	
0.70333	-0.723826	0.192272	13.09	-13.65	-41.3	-0.3617	0.2039	-0.3252	
0.719922	-0.713456	0.188246	5.53	-11.9	-39.97	-0.3616	0.1931	-0.316	
0.725778	-0.735538	0.195078	0.35	-7.98	-35.91	-0.3755	0.2024	-0.31	
0.739076	-0.729438	0.201422	-0.84	-4.83	-33.18	-0.3671	0.1869	-0.3099	
0.74176	-0.744688	0.16897	-3.08	-1.82	-30.87	-0.3813	0.1915	-0.3195	
0.741028	-0.702232	0.15494	-6.09	-0.35	-28.98	-0.3729	0.1806	-0.3209	
0.721996	-0.696864	0.129686	-1.61	-1.54	-28.49	-0.3813	0.1682	-0.315	
0.728828	-0.684908	0.121024	-1.82	-0.56	-28.7	-0.3898	0.1728	-0.3198	
0.712114	-0.702476	0.119926	0.91	0.21	-27.86	-0.3785	0.176	-0.3133	
0.717482	-0.682346	0.12322	-0.07	-2.24	-26.18	-0.3814	0.1651	-0.3165	
0.745786	-0.657702	0.133712	-2.38	-4.48	-23.1	-0.3842	0.1635	-0.3166	
0.76433	-0.621346	0.14579	-4.34	-4.97	-21.42	-0.3884	0.1527	-0.3121	
0.779702	-0.609756	0.139202	-5.67	-3.64	-21.42	-0.3856	0.1558	-0.3151	
0.781532	-0.594262	0.131028	-2.8	-4.9	-20.72	-0.3857	0.1573	-0.3213	
0.793122	-0.59902	0.139934	-4.55	-3.5	-20.09	-0.401	0.1402	-0.3078	
0.795562	-0.596946	0.136274	-7	-1.61	-19.46	-0.3828	0.1496	-0.3151	
0.782752	-0.616344	0.124806	-5.88	-0.7	-18.41	-0.3925	0.148	-0.3091	
0.790804	-0.635742	0.114802	-4.41	-0.91	-16.59	-0.3968	0.148	-0.3123	
0.79727	-0.624274	0.122244	-2.24	-1.47	-14.49	-0.401	0.1464	-0.3093	
0.810446	-0.619272	0.14091	-2.59	-0.28	-13.02	-0.3967	0.1418	-0.3062	
0.818254	-0.605974	0.140056	-2.66	-0.21	-11.55	-0.4012	0.1355	-0.3171	
0.818376	-0.595604	0.130052	-0.7	0.98	-9.87	-0.3997	0.1433	-0.3155	
0.813252	-0.598044	0.145424	-2.31	1.75	-8.68	-0.3998	0.1355	-0.3171	
0.803248	-0.599264	0.135664	0.14	3.36	-7.21	-0.3997	0.1324	-0.3125	
0.800442	-0.601582	0.132614	0.91	2.45	-4.69	-0.404	0.1324	-0.3157	
0.800564	-0.593408	0.128588	1.26	1.05	-2.03	-0.4054	0.1339	-0.3203	
0.820938	-0.58072	0.149816	-0.21	0.28	0	-0.3996	0.1356	-0.3078	
0.820084	-0.581452	0.1525	0.49	1.05	1.19	-0.404	0.1324	-0.3157	
0.80886	-0.583526	0.152866	0.35	1.68	3.29	-0.3981	0.1403	-0.3302	
0.809348	-0.586942	0.14457	0.28	2.59	5.04	-0.4067	0.1324	-0.3142	
0.82167	-0.58682	0.15982	-0.07	1.47	7	-0.39	0.1324	-0.3216	
0.820938	-0.59231	0.153232	0	2.52	8.05	-0.3995	0.1387	-0.3062	
0.822646	-0.595238	0.147498	1.19	2.59	9.38	-0.3957	0.137	-0.3248	
0.825574	-0.59597	0.154574	-0.07	2.24	11.76	-0.4081	0.1463	-0.3156	
0.82594	-0.592798	0.1525	-1.4	3.36	14.07	-0.3967	0.1449	-0.3077	
0.81923	-0.585966	0.152744	-1.68	4.41	15.47	-0.394	0.1464	-0.3123	
0.814106	-0.59292	0.138592	-1.61	6.37	16.31	-0.394	0.1464	-0.3107	
0.79788	-0.61122	0.139568	0.14	5.67	18.97	-0.3899	0.1464	-0.3168	
0.80581	-0.627934	0.159454	-0.42	5.81	20.86	-0.3898	0.1465	-0.3106	
0.816912	-0.63135	0.158844	-3.71	8.47	23.59	-0.3914	0.1526	-0.323	
0.84851	-0.634766	0.156404	-0.84	9.94	27.02	-0.3883	0.1635	-0.3105	
0.822158	-0.65148	0.211914	0.63	11.76	29.82	-0.3855	0.1667	-0.3104	
0.803736	-0.63806	0.15128	1.33	16.8	32.13	-0.3854	0.1605	-0.3074	
0.797026	-0.62891	0.13054	2.38	17.01	36.26	-0.3759	0.1635	-0.3258	
0.76616	-0.656726	0.105774	1.47	16.73	40.25	-0.3759	0.1713	-0.3257	
0.735538	-0.689422	0.136518	2.38	14.63	45.15	-0.3659	0.1915	-0.3223	
0.738466	-0.708088	0.201788	-6.16	14.07	50.05	-0.3603	0.1868	-0.3253	
0.757254	-0.692838	0.189344	-10.29	15.96	53.62	-0.3604	0.1961	-0.3299	
0.712236	-0.710162	0.131638	-4.13	17.99	57.82	-0.3589	0.207	-0.3267	
0.67832	-0.73932	0.110044	-1.82	18.83	61.88	-0.3522	0.2038	-0.3452	
0.671488	-0.756888	0.126758	-7.7	15.12	65.73	-0.3479	0.2101	-0.3435	
0.670878	-0.758596	0.181536	-14.49	14.42	69.37	-0.345	0.2272	-0.3417	
0.64965	-0.756156	0.171532	-13.16	15.61	71.75	-0.3282	0.2334	-0.3429	
0.56913	-0.786778	0.113826	-6.58	14.7	74.76	-0.3296	0.2412	-0.3444	
0.563518	-0.808982	0.113582	-6.37	11.27	77.98	-0.3154	0.2428	-0.3395	
0.593896	-0.828868	0.164456	-8.75	7.91	79.94	-0.3014	0.2413	-0.3439	
0.6222	-0.851194	0.22448	-15.4	2.87	82.81	-0.3041	0.2631	-0.3422	
0.556564	-0.838628	0.150304	-8.19	2.66	84.56	-0.2915	0.2677	-0.3451	
0.502762	-0.820206	0.125904	2.94	1.68	82.88	-0.2786	0.2772	-0.3339	
0.490562	-0.834236	0.145912	5.25	2.24	80.64	-0.2716	0.2881	-0.3368	
0.497394	-0.859612	0.20862	-0.84	2.31	79.17	-0.2745	0.2989	-0.3445	
0.462136	-0.906582	0.217282	-4.55	4.69	79.73	-0.2604	0.3052	-0.3442	
0.378566	-0.94489	0.217892	-4.27	6.23	81.27	-0.2434	0.3037	-0.3361	
0.271694	-0.958066	0.176168	-2.94	10.5	84.56	-0.2407	0.3161	-0.3406	
0.223138	-0.957334	0.189588	-3.43	5.11	87.92	-0.2252	0.3208	-0.3434	
0.262544	-0.956846	0.21533	-1.96	5.53	92.05	-0.2238	0.3317	-0.3417	
0.23302	-0.929274	0.193736	1.96	6.58	95.13	-0.2095	0.3365	-0.3562	
0.159576	-0.902312	0.141764	9.66	12.67	94.22	-0.1999	0.3427	-0.3443	
0.112118	-0.93513	0.124196	12.04	12.18	92.61	-0.1815	0.349	-0.3423	
0.089792	-0.947818	0.137128	13.86	13.09	92.4	-0.1719	0.3536	-0.3576	
0.127978	-1.009794	0.234362	9.52	9.1	95.06	-0.1591	0.3568	-0.3465	
0.02684	-0.967216	0.224846	14.21	14.63	98.14	-0.1423	0.3568	-0.3493	
-0.071492	-0.94611	0.2074	19.67	21.84	95.13	-0.1295	0.3616	-0.3459	
-0.138348	-0.935862	0.167628	20.37	23.8	92.47	-0.1239	0.3616	-0.3473	
-0.183488	-0.936228	0.18422	16.87	20.72	90.44	-0.1141	0.3632	-0.3502	
-0.19276	-0.96197	0.202032	17.08	14.42	89.53	-0.1059	0.3724	-0.3639	
-0.178486	-0.968192	0.21533	19.81	10.36	87.15	-0.0822	0.3662	-0.3728	
-0.18544	-0.93696	0.231678	20.93	11.69	84.91	-0.0708	0.3632	-0.3618	
-0.221796	-0.915	0.234606	17.36	10.5	81.2	-0.0626	0.3538	-0.3772	
-0.263642	-0.926224	0.222894	17.43	8.47	76.44	-0.0372	0.3556	-0.3689	
-0.2745	-0.93086	0.2379	19.53	5.18	73.22	-0.0331	0.3571	-0.3781	
-0.273158	-0.926224	0.255956	21.14	4.13	72.59	-0.0232	0.3556	-0.3764	
-0.280112	-0.90341	0.254858	21.56	4.2	71.05	-0.0121	0.3509	-0.3824	
-0.269376	-0.870226	0.27511	21	4.13	67.62	-0.0023	0.354	-0.3822	
-0.29402	-0.85949	0.252906	23.66	6.02	62.93	0.0073	0.3416	-0.3627	
-0.32208	-0.86986	0.267546	22.82	3.85	61.32	0.017	0.3447	-0.3974	
-0.348188	-0.880352	0.264618	23.31	3.5	58.94	0.0224	0.3446	-0.4082	
-0.357094	-0.854976	0.286822	23.59	2.59	57.33	0.0198	0.3354	-0.3943	
-0.371124	-0.834236	0.30439	26.67	7.14	55.37	0.031	0.337	-0.3972	
-0.427976	-0.831918	0.346724	23.24	8.47	51.52	0.031	0.3432	-0.4034	
-0.464576	-0.845094	0.34587	24.92	9.24	48.93	0.0364	0.3276	-0.4111	
-0.466894	-0.870958	0.335622	24.36	5.81	45.64	0.0547	0.3308	-0.4092	
-0.407724	-0.795684	0.3477	22.33	2.1	47.25	0.0575	0.3199	-0.4061	
-0.40565	-0.781898	0.362096	18.41	5.81	44.03	0.0617	0.3153	-0.4092	
-0.436882	-0.75457	0.3599	16.73	9.94	39.9	0.0744	0.3122	-0.4058	
-0.4636	-0.788364	0.356606	16.59	9.73	36.47	0.0729	0.3153	-0.4136	
-0.47519	-0.780068	0.341234	16.24	12.04	34.23	0.0814	0.3169	-0.4313	
-0.467138	-0.737002	0.36783	16.03	10.57	32.34	0.0853	0.3106	-0.4227	
-0.47275	-0.734318	0.388204	14.7	12.81	28.28	0.0839	0.3013	-0.4212	
-0.47092	-0.723094	0.384666	12.25	14.63	24.43	0.0869	0.2952	-0.4104	
-0.496174	-0.726998	0.369294	10.5	18.55	20.02	0.1022	0.289	-0.4179	
-0.555954	-0.735416	0.342576	10.01	20.79	15.4	0.1035	0.3014	-0.424	
-0.598044	-0.739808	0.33733	11.2	22.05	11.69	0.1008	0.2797	-0.4164	
-0.6161	-0.729316	0.34526	10.71	19.67	9.8	0.1092	0.2766	-0.4178	
-0.62891	-0.733952	0.349286	9.94	15.89	10.36	0.1149	0.2859	-0.413	
-0.644648	-0.745908	0.354166	9.87	11.34	11.69	0.1164	0.2891	-0.4114	
-0.640744	-0.743712	0.345382	10.15	10.29	11.97	0.1149	0.2859	-0.4145	
-0.622688	-0.722972	0.354044	9.94	7.7	11.83	0.1177	0.2766	-0.413	
-0.60878	-0.730048	0.338794	9.94	6.58	9.59	0.1189	0.2797	-0.4238	
-0.605486	-0.715286	0.333304	10.08	3.64	9.45	0.1133	0.2796	-0.4255	
-0.63013	-0.701256	0.345138	8.82	2.66	7.07	0.1191	0.2859	-0.416	
-0.635864	-0.695278	0.355874	7.63	1.26	5.46	0.126	0.2751	-0.4206	
-0.634644	-0.689178	0.35502	7.28	-1.89	5.67	0.1316	0.2735	-0.4205	
-0.639768	-0.69296	0.363926	6.79	-3.57	4.34	0.1247	0.2782	-0.416	
-0.633302	-0.6954	0.37027	6.44	-4.41	1.96	0.1272	0.2672	-0.4315	
-0.626592	-0.683566	0.386862	5.32	-4.06	-0.42	0.1244	0.2672	-0.4315	
-0.624518	-0.68503	0.39955	3.99	-3.85	-2.59	0.1188	0.2796	-0.43	
-0.626714	-0.691984	0.393084	2.94	-3.78	-3.64	0.1258	0.2734	-0.4315	
-0.6039	-0.684908	0.393694	1.82	-4.83	-4.76	0.1161	0.2564	-0.4209	
-0.588528	-0.674172	0.39406	1.12	-3.36	-6.51	0.1245	0.275	-0.4284	
-0.605608	-0.680882	0.39589	0	-2.66	-8.47	0.1231	0.2672	-0.4269	
-0.621834	-0.680272	0.401502	-0.7	-1.89	-10.64	0.1133	0.2672	-0.4225	
-0.618418	-0.672952	0.396744	-2.03	-1.54	-12.6	0.1104	0.2719	-0.4256	
-0.62525	-0.692106	0.395158	-3.08	-2.1	-14.49	0.1175	0.2766	-0.4239	
-0.622932	-0.70699	0.396744	-3.08	-4.34	-15.33	0.1104	0.2687	-0.4287	
-0.604266	-0.684664	0.401502	-3.43	-6.37	-17.08	0.1132	0.2734	-0.4317	
-0.602436	-0.688202	0.403332	-5.53	-5.74	-19.74	0.1063	0.2688	-0.421	
-0.58987	-0.696864	0.399062	-7.35	-6.16	-22.61	0.109	0.278	-0.4287	
-0.58499	-0.700158	0.397964	-8.47	-8.12	-25.9	0.1091	0.2781	-0.4256	
-0.589016	-0.706014	0.396622	-9.03	-8.54	-29.61	0.09779999	0.2827	-0.4257	
-0.55632	-0.716872	0.388204	-10.01	-11.69	-35.49	0.0909	0.292	-0.4212	
-0.544242	-0.730536	0.392596	-10.5	-14.14	-38.08	0.0838	0.2982	-0.4259	
-0.543388	-0.727486	0.394426	-11.06	-15.82	-40.25	0.088	0.2966	-0.4289	
-0.521672	-0.728462	0.378566	-12.67	-14.35	-43.12	0.0824	0.2904	-0.426	
-0.48495	-0.743224	0.383934	-15.75	-12.32	-46.41	0.0685	0.2997	-0.4184	
-0.476532	-0.777628	0.375272	-17.08	-11.55	-49.35	0.0616	0.3013	-0.4124	
-0.48617	-0.793732	0.369294	-17.36	-15.05	-51.52	0.056	0.3028	-0.4078	
-0.448228	-0.78934	0.370758	-17.64	-15.89	-53.06	0.0488	0.3105	-0.4219	
-0.42212	-0.804956	0.364414	-18.27	-16.1	-54.67	0.046	0.3043	-0.4204	
-0.404796	-0.83387	0.368318	-18.83	-19.39	-56.98	0.0364	0.3152	-0.4066	
-0.380884	-0.829478	0.351726	-19.74	-16.52	-54.53	0.0264	0.3135	-0.4161	
-0.33672	-0.834724	0.338916	-17.92	-15.54	-56.35	0.0182	0.3167	-0.4038	
-0.300364	-0.847412	0.347578	-22.4	-17.36	-55.02	0.004	0.3337	-0.4133	
-0.266692	-0.876448	0.33123	-22.47	-16.17	-55.79	0.0056	0.3337	-0.4024	
-0.233752	-0.894626	0.324398	-23.87	-14.98	-57.61	-0.0029	0.3352	-0.4149	
-0.20374	-0.923296	0.318664	-25.34	-12.53	-58.66	-0.014	0.3367	-0.4058	
-0.186172	-0.930616	0.29219	-24.78	-11.9	-60.48	-0.0195	0.3383	-0.4013	
-0.165188	-0.92781	0.281454	-24.22	-11.48	-60.62	-0.0322	0.3414	-0.4031	
-0.140422	-0.915244	0.254858	-24.85	-9.17	-59.57	-0.0376	0.3414	-0.3892	
-0.101382	-0.942694	0.261812	-24.92	-9.24	-60.34	-0.0503	0.3491	-0.3925	
-0.099186	-0.960262	0.245098	-22.89	-10.85	-62.79	-0.0389	0.3477	-0.3876	
-0.082228	-0.962214	0.242902	-21.35	-11.97	-62.23	-0.067	0.3553	-0.3835	
-0.041358	-0.948916	0.224114	-20.02	-7.98	-59.71	-0.067	0.3507	-0.3851	
0.000122	-0.951234	0.223382	-20.16	-7.42	-58.52	-0.0697	0.3553	-0.3804	
0.027328	-0.960994	0.240096	-19.39	-7.91	-58.66	-0.085	0.3554	-0.3699	
0.028914	-0.969534	0.224968	-18.62	-8.12	-58.38	-0.0893	0.3506	-0.3762	
0.053436	-0.963068	0.209108	-17.08	-7	-56.7	-0.0991	0.3568	-0.3748	
0.080154	-0.967338	0.196176	-15.96	-6.02	-54.39	-0.1076	0.3459	-0.375	
0.091866	-0.989908	0.197274	-15.12	-9.73	-54.74	-0.1102	0.3507	-0.3611	
0.097844	-0.998692	0.20557	-14.07	-11.55	-53.97	-0.1215	0.3537	-0.3659	
0.125782	-0.99003	0.208254	-13.44	-11.34	-50.05	-0.1242	0.3537	-0.3598	
0.15433	-0.995764	0.203374	-14.49	-11.2	-45.92	-0.1342	0.349	-0.3662	
0.160674	-0.993812	0.194346	-13.44	-11.34	-43.19	-0.1397	0.349	-0.3601	
0.172508	-0.975878	0.194102	-11.9	-12.04	-41.02	-0.1412	0.3567	-0.3694	
0.183	-0.987712	0.205082	-11.27	-11.83	-40.6	-0.1523	0.3474	-0.3604	
0.174826	-0.998448	0.202398	-10.99	-10.64	-40.6	-0.1593	0.3474	-0.3574	
0.178242	-0.997472	0.205692	-11.76	-9.66	-37.8	-0.1635	0.3458	-0.3575	
0.189466	-0.990274	0.207278	-11.62	-7.84	-34.72	-0.1676	0.3474	-0.3514	
0.200202	-0.989908	0.198006	-11.62	-5.32	-31.5	-0.1745	0.3474	-0.3438	
0.201666	-0.99857	0.184952	-10.85	-5.88	-27.65	-0.1759	0.3521	-0.3422	
0.210206	-0.994544	0.179462	-10.43	-5.32	-24.85	-0.1802	0.3551	-0.3485	
0.216306	-1.008696	0.17751	-8.89	-5.6	-21.42	-0.1873	0.3489	-0.3502	
0.223626	-0.995398	0.182634	-8.19	-6.02	-18.27	-0.2027	0.3473	-0.3459	
0.223504	-1.003816	0.175314	-7.91	-5.04	-15.33	-0.1999	0.3504	-0.3489	
0.22692	-1.005646	0.177022	-6.02	-3.43	-11.48	-0.1942	0.3489	-0.3426	
0.232288	-0.988688	0.172996	-5.95	-1.68	-8.54	-0.1956	0.3365	-0.3396	
0.230214	-0.990884	0.15189	-6.16	-0.49	-6.16	-0.1955	0.3458	-0.3395	
0.234362	-0.98454	0.156282	-5.25	-0.28	-4.2	-0.1997	0.3505	-0.338	
0.247172	-0.983198	0.157136	-4.06	0.42	-3.01	-0.1998	0.3396	-0.3397	
0.2501	-0.977464	0.15738	-3.92	2.03	-1.82	-0.1998	0.3427	-0.3412	
0.249246	-0.970998	0.16531	-5.18	2.17	-0.98	-0.1967	0.3537	-0.3271	
0.249612	-0.971242	0.172142	-4.55	5.25	-0.98	-0.1983	0.3427	-0.3381	
0.249124	-0.974902	0.16897	-3.78	4.97	-0.42	-0.1914	0.3489	-0.3425	
0.243024	-0.9699	0.170678	-3.71	5.53	0.63	-0.197	0.3365	-0.3412	
0.236924	-0.976	0.157624	-5.6	5.95	1.54	-0.2009	0.3444	-0.3257	
0.21899	-0.97844	0.135298	-3.71	3.92	2.66	-0.1954	0.3521	-0.3302	
0.217404	-0.971364	0.13481	-1.26	3.36	2.87	-0.2054	0.3458	-0.3382	
0.214964	-0.970998	0.13664	-0.21	2.03	3.01	-0.1913	0.349	-0.3394	
0.20923	-0.972706	0.139568	-0.42	1.19	3.29	-0.1941	0.3505	-0.3364	
0.209718	-0.974902	0.141886	-0.77	0.21	3.5	-0.1913	0.3567	-0.3378	
0.215452	-0.970388	0.147742	-0.7	-0.7	4.13	-0.1955	0.3458	-0.3395	
0.221674	-0.973804	0.14762	-0.14	-1.68	5.11	-0.1884	0.349	-0.3332	
0.221552	-0.96868	0.14762	0.49	-2.24	5.88	-0.1927	0.3552	-0.3378	
0.227774	-0.969168	0.176656	0.21	-3.43	6.65	-0.1955	0.3489	-0.3395	
0.225578	-0.965264	0.180072	-0.21	-2.31	7.14	-0.1928	0.3489	-0.3457	
0.217404	-0.9577	0.168482	0.49	-0.84	7.49	-0.1912	0.3475	-0.3301	
0.21106	-0.95953	0.1586	-0.14	0.28	7.7	-0.194	0.3428	-0.3302	
0.200324	-0.97417	0.157502	-1.19	1.89	7.84	-0.1983	0.3489	-0.3365	
0.185806	-0.987102	0.159088	-1.96	3.71	7.63	-0.1799	0.3599	-0.3329	
0.189344	-0.99552	0.149084	-1.89	3.5	8.19	-0.1813	0.3553	-0.333	
0.174704	-0.979416	0.14091	-1.33	1.75	8.96	-0.1941	0.349	-0.3379	
0.147376	-0.977708	0.153842	-0.35	0.56	7.84	-0.1897	0.363	-0.3315	
0.14884	-0.970754	0.155672	-0.21	0.35	7.49	-0.1829	0.3536	-0.3423	
0.143716	-0.974902	0.125904	-0.7	0.91	6.86	-0.1856	0.3614	-0.3377	
0.145912	-0.98515	0.117486	0.77	-1.19	5.95	-0.1701	0.3584	-0.3343	
0.14152	-0.98698	0.14762	2.24	-2.52	5.74	-0.1813	0.3599	-0.3329	
0.141642	-1.002718	0.156526	1.4	-2.38	5.53	-0.1897	0.363	-0.33	
0.118706	-0.997594	0.145668	4.13	-3.43	6.16	-0.1798	0.3662	-0.3282	
0.106018	-0.992714	0.119804	7	-3.43	6.44	-0.1841	0.3615	-0.333	
0.09857599	-0.985394	0.128588	7.77	-7.14	5.39	-0.1841	0.3584	-0.3299	
0.086986	-0.99186	0.127246	7.63	-9.73	5.18	-0.1829	0.363	-0.3407	
0.075274	-0.99857	0.11712	7.56	-13.44	6.37	-0.1843	0.3459	-0.3378	
0.072956	-0.99918	0.11041	9.1	-18.48	7.84	-0.1816	0.3412	-0.3439	
0.076006	-1.006744	0.107848	11.41	-25.27	7.63	-0.1787	0.3583	-0.3407	
0.087718	-1.000766	0.11285	13.44	-29.89	10.15	-0.1744	0.3521	-0.3375	
0.065758	-1.008696	0.114924	14.77	-36.12	9.66	-0.1871	0.349	-0.3409	
0.07747	-1.008818	0.107726	16.59	-42.49	12.6	-0.1871	0.3443	-0.3378	
0.093818	-1.000156	0.132614	15.68	-50.96	16.1	-0.1871	0.3521	-0.3424	
0.122488	-0.990518	0.114558	17.57	-55.93	18.41	-0.1983	0.3583	-0.3379	
0.142984	-0.990152	0.114192	17.99	-60.27	19.46	-0.18	0.3521	-0.3345	
0.146888	-0.984662	0.13054	17.36	-65.45	21.77	-0.1983	0.3458	-0.3365	
0.136518	-1.005768	0.133956	15.26	-67.76	22.33	-0.1953	0.3521	-0.3255	
0.137494	-0.99125	0.107116	16.17	-69.3	24.22	-0.2037	0.349	-0.3257	
0.151036	-0.987102	0.118706	19.67	-73.64	24.5	-0.2052	0.3443	-0.3304	
0.144082	-0.979172	0.134932	24.36	-74.97	24.22	-0.2108	0.349	-0.3274	
0.163236	-0.970022	0.147254	30.8	-80.5	23.03	-0.2122	0.3474	-0.329	
0.14945	-0.972828	0.163602	32.55	-83.37	23.59	-0.2178	0.3474	-0.326	
0.15067	-0.984418	0.19581	34.72	-85.05	23.52	-0.208	0.3397	-0.3243	
0.157746	-0.991616	0.176168	37.52	-85.82	29.19	-0.2235	0.3365	-0.3262	
0.194468	-0.974292	0.19276	35	-86.24	31.5	-0.2219	0.3443	-0.3168	
0.189466	-0.967338	0.2013	35.35	-85.4	30.17	-0.2318	0.3396	-0.3232	
0.17873	-0.93513	0.246928	33.11	-84.07	29.82	-0.2276	0.335	-0.3216	
0.125294	-0.955138	0.240584	23.8	-83.16	28.49	-0.2329	0.3397	-0.3062	
0.184098	-0.946354	0.245708	17.71	-85.33	26.11	-0.2372	0.3412	-0.3063	
0.193004	-0.953186	0.249734	13.93	-81.06	26.53	-0.2442	0.3412	-0.3064	
0.143106	-0.971608	0.257908	11.41	-76.3	25.55	-0.2438	0.3476	-0.2862	
0.23485	-0.94977	0.238876	10.29	-70.77	24.78	-0.2469	0.3475	-0.3017	
0.219478	-0.970144	0.263642	3.64	-72.8	25.06	-0.2566	0.3413	-0.2927	
0.259128	-0.937448	0.265472	4.27	-60.41	21.84	-0.2494	0.3351	-0.2848	
0.137372	-0.951966	0.260104	3.5	-59.85	22.4	-0.2546	0.3493	-0.2631	
0.208132	-0.951844	0.24095	4.13	-46.76	22.12	-0.2563	0.3414	-0.2772	
0.201666	-0.958432	0.26779	-1.61	-49.07	20.58	-0.2591	0.3461	-0.2741	
0.210816	-0.916586	0.284504	-0.07	-42.35	16.8	-0.2519	0.3554	-0.2692	
0.166408	-0.94489	0.273524	-1.89	-37.31	14.07	-0.2504	0.3648	-0.2629	
0.165188	-0.958554	0.265106	-3.5	-33.95	12.32	-0.2506	0.3554	-0.2738	
0.150304	-0.968314	0.236314	-1.75	-34.3	9.73	-0.2545	0.3617	-0.2599	
0.19337	-0.951112	0.26047	-1.89	-26.95	11.2	-0.2588	0.357	-0.26	
0.159576	-0.958798	0.252174	-0.42	-28	10.99	-0.2503	0.3633	-0.2567	
0.128466	-0.962824	0.2501	2.73	-22.12	9.73	-0.2614	0.3509	-0.2462	
0.149938	-0.939034	0.283406	2.59	-22.61	8.89	-0.2556	0.3541	-0.2367	
0.123708	-0.910608	0.283406	6.93	-19.11	7.49	-0.2498	0.3635	-0.2319	
0.122854	-0.931714	0.27755	4.9	-15.54	4.9	-0.2572	0.3618	-0.2491	
0.122366	-0.954406	0.278892	4.62	-14.35	4.9	-0.2559	0.3679	-0.2599	
0.13481	-0.940498	0.267058	6.44	-12.67	4.97	-0.2615	0.3617	-0.2539	
0.12871	-0.946964	0.288286	4.9	-11.83	3.71	-0.26	0.3648	-0.2523	
0.112118	-0.957944	0.269986	4.27	-9.24	2.59	-0.2516	0.3602	-0.2552	
0.102114	-0.941718	0.282308	4.06	-11.27	3.15	-0.2542	0.3587	-0.2413	
0.10614	-0.954528	0.268156	5.32	-8.47	2.17	-0.2557	0.3602	-0.246	
0.1098	-0.945012	0.284016	6.09	-8.12	2.31	-0.26	0.3524	-0.2492	
0.092598	-0.953552	0.27938	4.76	-7.35	0.98	-0.2642	0.3493	-0.2493	
0.10187	-0.938546	0.285968	4.76	-6.3	1.54	-0.2515	0.3509	-0.2475	
0.110898	-0.93452	0.290726	4.06	-7.21	0.7	-0.2528	0.3588	-0.2382	
0.130662	-0.943914	0.298168	3.57	-4.55	-0.28	-0.2556	0.3634	-0.2429	
0.116998	-0.960018	0.300486	4.06	-0.07	-1.19	-0.2556	0.3572	-0.2398	
0.11163	-0.94611	0.278892	4.06	2.87	-1.05	-0.2613	0.3587	-0.2461	
0.107848	-0.935374	0.274012	3.85	3.29	-1.82	-0.2627	0.3618	-0.2461	
0.119194	-0.927078	0.271816	3.01	4.27	-3.01	-0.2559	0.3555	-0.2538	
0.132614	-0.93452	0.283772	1.47	3.78	-4.62	-0.2642	0.3602	-0.2477	
0.141276	-0.930128	0.279502	3.01	6.86	-6.44	-0.2656	0.354	-0.2493	
0.155672	-0.947452	0.290726	1.54	8.96	-6.3	-0.2615	0.3601	-0.257	
0.172142	-0.940498	0.287432	3.01	12.04	-7.07	-0.2601	0.3493	-0.2524	
0.19398	-0.914878	0.296826	3.78	13.58	-9.03	-0.26	0.3617	-0.2507	
0.23973	-0.883036	0.2989	6.44	18.06	-12.95	-0.2602	0.3508	-0.2601	
0.227408	-0.869494	0.288286	7.49	24.64	-19.25	-0.2603	0.3446	-0.2617	
0.233996	-0.927322	0.30134	3.15	34.72	-26.04	-0.2642	0.3524	-0.2462	
0.24278	-0.968924	0.317322	0.7	46.2	-26.32	-0.2646	0.3492	-0.268	
0.264496	-0.961604	0.355142	0	56.07	-28.21	-0.2631	0.343	-0.2649	
0.27572	-0.967216	0.358558	0.28	67.34	-31.57	-0.2605	0.3367	-0.2757	
0.263398	-0.881572	0.388082	-1.75	82.6	-35.56	-0.2677	0.3382	-0.2821	
0.25803	-0.871934	0.315492	-5.32	97.79	-40.04	-0.2607	0.3366	-0.285	
0.258884	-0.890356	0.258518	-6.72	105.42	-47.74	-0.2637	0.3272	-0.2945	
0.213744	-0.923052	0.27755	-15.19	106.54	-46.41	-0.2611	0.3365	-0.3052	
0.242414	-0.96075	0.280478	-19.74	108.08	-47.46	-0.264	0.324	-0.3131	
0.254614	-0.94367	0.312686	-27.58	106.47	-43.75	-0.2613	0.3224	-0.3193	
0.262178	-0.943792	0.370392	-42.56	112.42	-37.1	-0.2557	0.3147	-0.3161	
0.271572	-0.949038	0.267668	-41.37	120.19	-29.05	-0.2544	0.3333	-0.3268	
0.28426	-0.94489	0.229848	-38.36	122.36	-27.16	-0.2418	0.3209	-0.3267	
0.270596	-0.946354	0.244488	-44.45	118.09	-26.53	-0.2418	0.324	-0.3266	
0.276696	-0.981978	0.195688	-34.93	120.68	-23.87	-0.2392	0.3332	-0.3405	
0.25315	-0.957944	0.182146	-27.72	117.18	-24.78	-0.2252	0.3271	-0.3402	
0.216184	-0.983808	0.196908	-24.71	118.44	-23.87	-0.2028	0.3364	-0.3475	
0.210816	-1.000156	0.177876	-22.05	118.09	-23.31	-0.193	0.3318	-0.3535	
0.182756	-0.975024	0.151402	-20.16	115.57	-25.83	-0.2071	0.3317	-0.3554	
0.161528	-0.954406	0.088084	-16.03	117.32	-32.48	-0.1973	0.3333	-0.3583	
0.11529	-0.941352	0.116144	-18.2	109.13	-35.28	-0.1805	0.3348	-0.3626	
0.086742	-0.966606	0.08906	-20.44	110.32	-41.44	-0.1682	0.3317	-0.381	
0.071492	-0.960506	0.096868	-24.5	104.09	-42.14	-0.1695	0.3333	-0.3748	
0.104798	-0.987102	0.145302	-27.93	100.17	-40.67	-0.1596	0.3318	-0.3715	
0.141886	-1.023214	0.142374	-30.1	98.14	-36.82	-0.1543	0.3332	-0.3915	
0.124806	-1.016138	0.150792	-30.59	100.8	-30.1	-0.1442	0.3426	-0.3789	
0.112484	-1.001376	0.133224	-28.07	96.67	-29.68	-0.1442	0.338	-0.3773	
0.075274	-1.006256	0.15921	-29.54	93.73	-21.7	-0.1358	0.3489	-0.3818	
0.113704	-0.975634	0.150182	-25.41	92.75	-22.33	-0.1244	0.3412	-0.3707	
0.120902	-0.960262	0.132858	-21.77	90.3	-25.76	-0.1216	0.3537	-0.3721	
0.138592	-0.97478	0.115412	-18.2	92.33	-29.54	-0.1218	0.3396	-0.38	
0.076616	-1.00772	0.119194	-17.43	83.72	-32.97	-0.1119	0.3428	-0.3767	
0.073322	-0.99125	0.125782	-13.23	80.08	-32.9	-0.1021	0.3474	-0.3842	
0.09028	-0.97051	0.134444	-9.17	69.09	-33.95	-0.1006	0.3491	-0.3749	
0.102236	-0.968314	0.158966	-6.65	63	-33.6	-0.0993	0.3568	-0.3825	
0.149328	-0.97417	0.169336	-10.71	61.46	-34.3	-0.0948	0.3615	-0.37	
0.142374	-0.998448	0.17995	-7.77	54.74	-32.06	-0.0979	0.3583	-0.3841	
0.149572	-0.984662	0.187514	-3.36	51.03	-32.06	-0.0894	0.3491	-0.3809	
0.165066	-0.97478	0.182024	-6.16	46.48	-29.82	-0.0937	0.3521	-0.3825	
0.173118	-0.981246	0.186538	-7.28	43.47	-27.37	-0.09209999	0.3522	-0.3747	
0.185928	-0.987224	0.181902	-5.95	43.61	-26.11	-0.0907	0.3475	-0.3747	
0.16592	-0.989298	0.175558	-2.24	36.96	-25.27	-0.0838	0.3506	-0.3823	
0.171776	-0.960506	0.174704	-1.4	32.76	-23.03	-0.09209999	0.3491	-0.3747	
0.193004	-0.962702	0.205326	-2.24	27.09	-19.74	-0.0796	0.3568	-0.3837	
0.195566	-0.968314	0.202764	0.28	26.32	-19.67	-0.0824	0.3646	-0.3837	
0.220454	-0.955992	0.194346	-0.91	24.57	-18.2	-0.0895	0.349	-0.3824	
0.22997	-0.955138	0.219844	-3.15	20.44	-16.03	-0.0812	0.3568	-0.3674	
0.217648	-0.953674	0.218258	-4.97	18.62	-15.19	-0.095	0.3522	-0.3763	
0.228018	-0.953064	0.229848	-5.67	18.06	-12.32	-0.0839	0.3537	-0.3869	
0.224236	-0.956114	0.224358	-5.95	15.75	-9.59	-0.08639999	0.3476	-0.394	
0.24644	-0.945134	0.222528	-2.87	13.86	-7.84	-0.0824	0.3491	-0.3823	
0.22326	-0.95221	0.233752	-1.96	12.25	-7.77	-0.0881	0.3444	-0.3855	
0.2318	-0.946842	0.223138	-2.17	10.85	-6.51	-0.088	0.3522	-0.3808	
0.247172	-0.947818	0.234606	-2.31	9.03	-4.97	-0.0936	0.3522	-0.3778	
0.255346	-0.944402	0.252906	-3.01	8.05	-3.15	-0.0866	0.3537	-0.3792	
0.262056	-0.951478	0.250832	-1.82	7.35	-3.22	-0.0865	0.3569	-0.3745	
0.247294	-0.940254	0.240096	-1.12	6.86	-1.96	-0.0768	0.3569	-0.3821	
0.259372	-0.9272	0.240706	-1.19	6.44	-1.33	-0.08109999	0.3568	-0.3868	
0.253638	-0.928298	0.229848	-1.12	5.6	-0.49	-0.0824	0.3506	-0.3792	
0.243268	-0.931226	0.242048	-1.61	3.85	-0.21	-0.0893	0.346	-0.3731	
0.236436	-0.95343	0.24827	-2.31	3.85	-0.14	-0.0809	0.3569	-0.3791	
0.230092	-0.931958	0.233996	-2.94	3.43	1.19	-0.081	0.3537	-0.3838	
0.235216	-0.91927	0.230702	-1.96	0.91	1.47	-0.0824	0.3506	-0.3823	
0.236314	-0.932812	0.225334	-1.47	-1.75	1.4	-0.0838	0.3553	-0.3822	
0.22936	-0.949038	0.236314	-0.63	-3.5	1.47	-0.0895	0.3475	-0.3824	
0.23607	-0.952332	0.244976	-0.14	-4.2	2.1	-0.0739	0.3538	-0.379	
0.239852	-0.946232	0.24583	0.28	-4.76	2.52	-0.0838	0.3522	-0.3823	
0.236192	-0.941108	0.231922	0.56	-5.39	3.43	-0.0714	0.349	-0.3929	
0.247416	-0.935374	0.242536	0.35	-6.44	4.34	-0.0697	0.36	-0.3788	
0.232044	-0.94855	0.242414	-0.7	-5.81	5.25	-0.0824	0.3522	-0.3807	
0.216062	-0.946598	0.222894	-0.84	-6.3	6.79	-0.0839	0.3614	-0.39	
0.22875	-0.929518	0.22265	-0.63	-9.17	7.07	-0.0837	0.3569	-0.376	
0.216672	-0.942084	0.223504	-0.49	-11.34	7.14	-0.0768	0.3568	-0.3868	
0.18544	-0.951356	0.209352	0.56	-13.44	7.98	-0.0768	0.3599	-0.3867	
0.160796	-0.952576	0.207766	1.12	-17.43	10.15	-0.0867	0.349	-0.3839	
0.15799	-0.962458	0.2074	0.21	-21.35	13.3	-0.0797	0.346	-0.3853	
0.138836	-0.973926	0.193614	2.31	-26.81	15.68	-0.0809	0.3522	-0.3776	
0.118462	-0.990396	0.194834	2.87	-33.81	20.65	-0.0853	0.3537	-0.3869	
0.084424	-0.996374	0.147376	5.32	-39.76	26.88	-0.0837	0.3522	-0.3776	
0.086254	-0.975634	0.12505	9.24	-51.52	32.13	-0.0923	0.3661	-0.3854	
0.111386	-0.954284	0.137128	9.03	-62.58	33.74	-0.092	0.3569	-0.3715	
0.108092	-0.967582	0.140422	9.45	-71.12	32.55	-0.0866	0.3553	-0.3792	
0.116022	-1.002718	0.147742	14.63	-74.9	26.95	-0.088	0.3553	-0.3792	
0.084668	-0.995642	0.111508	23.8	-88.41	28.56	-0.0949	0.36	-0.3747	
0.150914	-0.971364	0.166408	17.85	-89.81	22.26	-0.1022	0.3552	-0.3888	
0.164578	-0.988444	0.16836	17.99	-100.87	21.77	-0.1077	0.3459	-0.3828	
0.173362	-1.008696	0.167262	14.35	-99.47	23.03	-0.1216	0.3412	-0.3691	
0.183122	-1.018456	0.141154	22.96	-102.9	21.77	-0.1356	0.3489	-0.3709	
0.214842	-1.00162	0.14396	29.89	-97.51	17.08	-0.1457	0.3426	-0.3835	
0.222772	-0.95892	0.120292	45.43	-84.42	19.67	-0.1512	0.3395	-0.3728	
0.219722	-0.985394	0.119316	41.51	-97.86	16.94	-0.1555	0.3395	-0.3807	
0.271572	-0.959042	0.169824	40.39	-90.16	23.52	-0.1582	0.3395	-0.373	
0.238266	-0.984418	0.133102	37.52	-87.64	24.36	-0.1653	0.3348	-0.3747	
0.278526	-0.970266	0.201056	33.04	-88.97	24.57	-0.1625	0.3271	-0.3762	
0.281576	-0.982344	0.168238	35.98	-73.36	27.16	-0.1723	0.3394	-0.3763	
0.268156	-0.956236	0.17507	28.49	-83.65	30.1	-0.1822	0.3208	-0.3751	
0.248148	-0.96441	0.164212	25.9	-78.33	27.86	-0.1905	0.3255	-0.3675	
0.24034	-0.969412	0.183732	21.63	-77.7	29.12	-0.1977	0.3254	-0.3769	
0.235338	-0.974048	0.191784	22.75	-81.34	32.69	-0.1933	0.3208	-0.3645	
0.224236	-0.972584	0.19276	19.32	-84.28	35.56	-0.2003	0.3223	-0.3677	
0.229848	-0.965508	0.15982	22.54	-83.16	35.21	-0.2074	0.3207	-0.3694	
0.241926	-0.99491	0.128954	22.4	-91.07	38.85	-0.2057	0.3193	-0.3492	
0.249978	-0.999302	0.20191	21.21	-101.43	42.77	-0.217	0.3239	-0.3556	
0.231678	-1.01626	0.203618	30.66	-102.55	47.18	-0.224	0.3208	-0.3511	
0.218746	-1.022726	0.180682	37.87	-102.83	53.2	-0.2297	0.3223	-0.3559	
0.214842	-1.007598	0.227042	40.81	-105.14	60.06	-0.2295	0.3162	-0.3435	
0.197274	-0.984174	0.243634	40.53	-101.78	63.21	-0.235	0.3146	-0.3359	
0.1891	-0.974292	0.231434	36.96	-96.46	65.73	-0.2182	0.3224	-0.3432	
0.194346	-0.953064	0.258518	31.85	-97.65	60.34	-0.2336	0.3177	-0.3405	
0.180072	-0.917928	0.225578	32.06	-90.93	56.35	-0.2293	0.3317	-0.3387	
0.218746	-0.889868	0.283772	21.63	-89.67	50.89	-0.2378	0.3239	-0.3405	
0.237412	-0.885964	0.278648	15.61	-86.8	44.1	-0.2378	0.3255	-0.3389	
0.228384	-0.89487	0.30988	9.1	-80.92	40.18	-0.2472	0.3256	-0.3143	
0.242902	-0.915244	0.33245	6.37	-73.08	34.37	-0.2373	0.3334	-0.3141	
0.240462	-0.945012	0.313052	6.09	-63.42	32.83	-0.2374	0.3381	-0.3171	
0.21411	-0.961604	0.295118	3.92	-57.26	30.8	-0.2417	0.3256	-0.322	
0.21167	-0.932446	0.306708	-0.63	-51.17	33.11	-0.2514	0.3365	-0.3143	
0.180682	-0.923784	0.30805	1.12	-48.44	29.26	-0.2455	0.3382	-0.3243	
0.185318	-0.89365	0.320494	-3.5	-44.1	27.3	-0.2453	0.3522	-0.2939	
0.163602	-0.920246	0.322202	-3.5	-43.12	24.22	-0.2495	0.346	-0.291	
0.1403	-0.935862	0.33306	-3.64	-37.8	21.91	-0.2426	0.3506	-0.2985	
0.147132	-0.93879	0.341478	-5.74	-31.78	18.48	-0.2425	0.3491	-0.2908	
0.151402	-0.919392	0.315614	-2.31	-25.2	17.22	-0.2441	0.3444	-0.3002	
0.12566	-0.917806	0.343552	-1.75	-25.2	15.33	-0.2381	0.3507	-0.2845	
0.104554	-0.915244	0.335622	-1.05	-18.69	11.34	-0.2367	0.3585	-0.286	
0.099674	-0.931958	0.35319	4.34	-15.82	10.92	-0.2423	0.3554	-0.307	
0.100528	-0.935008	0.338672	-2.17	-14.42	6.51	-0.2422	0.3663	-0.2767	
0.09394	-0.94062	0.315492	3.57	-8.82	6.37	-0.2478	0.3616	-0.2784	
0.101016	-0.948062	0.343918	0.21	-8.26	5.67	-0.2423	0.3569	-0.2814	
0.09699	-0.935618	0.347456	1.68	-5.11	5.46	-0.238	0.3601	-0.2767	
0.076372	-0.930494	0.319518	2.87	-1.61	3.57	-0.2366	0.3601	-0.2766	
0.056852	-0.937326	0.316712	1.54	-2.03	2.31	-0.2408	0.3539	-0.2768	
0.04392	-0.940864	0.310246	4.06	-3.29	2.73	-0.252	0.3647	-0.2738	
0.055266	-0.93513	0.318298	3.29	-2.03	2.17	-0.2422	0.357	-0.2783	
0.058194	-0.945012	0.30866	3.92	-2.73	1.82	-0.2407	0.3601	-0.2736	
0.047824	-0.936472	0.321104	2.87	-2.87	1.26	-0.2436	0.3694	-0.2783	
0.044896	-0.94123	0.303902	2.17	-1.54	1.26	-0.2408	0.3616	-0.2783	
0.055632	-0.936838	0.31293	2.59	-3.01	1.82	-0.2366	0.3741	-0.2796	
0.055998	-0.938058	0.306098	0.77	-2.66	0.84	-0.245	0.3616	-0.2752	
0.059536	-0.93208	0.309636	-0.63	-1.82	0.56	-0.2465	0.3585	-0.2831	
0.069174	-0.949038	0.300242	-0.14	-1.96	-0.21	-0.2378	0.3617	-0.2689	
0.058194	-0.956602	0.313052	-0.7	-1.75	0	-0.2408	0.3539	-0.2752	
0.062708	-0.96197	0.302804	-1.12	-1.05	0.07	-0.2394	0.357	-0.2798	
0.07124799	-0.939888	0.300974	-0.42	-1.26	0.14	-0.2408	0.3523	-0.2752	
0.08052	-0.926102	0.309758	-0.35	-1.54	-0.42	-0.2351	0.3617	-0.2751	
0.088206	-0.93452	0.31415	-0.35	0.35	-1.26	-0.2407	0.3586	-0.2721	
0.081252	-0.95892	0.311222	0.7	2.45	-2.24	-0.2394	0.3508	-0.2737	
0.06283	-0.956602	0.307562	0.42	4.48	-2.45	-0.2437	0.3569	-0.2799	
0.067954	-0.939278	0.30561	0.98	4.69	-2.38	-0.2423	0.3585	-0.283	
0.06954	-0.940376	0.307318	0.98	4.27	-2.24	-0.2436	0.3523	-0.2993	
0.079666	-0.934032	0.307074	0.21	4.27	-2.66	-0.2394	0.3554	-0.2752	
0.086986	-0.942694	0.325374	0.63	5.67	-3.5	-0.2422	0.3585	-0.2752	
0.09882	-0.947086	0.314638	0.21	9.66	-3.92	-0.2438	0.3538	-0.2605	
0.105896	-0.929762	0.31903	-0.49	10.43	-4.97	-0.2421	0.357	-0.2737	
0.12261	-0.909266	0.318176	1.47	13.09	-6.3	-0.2395	0.36	-0.286	
0.140056	-0.906216	0.344528	1.4	15.33	-9.38	-0.2508	0.3646	-0.2877	
0.163114	-0.904874	0.367098	-0.14	21	-12.18	-0.2454	0.3522	-0.2955	
0.201666	-0.881206	0.386618	-2.73	30.31	-15.47	-0.2425	0.3475	-0.2908	
0.213988	-0.893162	0.385032	-8.96	42.63	-21	-0.2437	0.3538	-0.283	
0.234118	-0.930616	0.381616	-18.41	52.64	-25.83	-0.241	0.3522	-0.2876	
0.248636	-0.963922	0.373198	-25.27	64.47	-26.53	-0.2466	0.3538	-0.2893	
0.257298	-0.94245	0.355996	-26.04	76.37	-27.65	-0.2397	0.3538	-0.2938	
0.249734	-0.91256	0.30134	-22.68	82.04	-31.71	-0.2271	0.3507	-0.2936	
0.213012	-0.895602	0.271938	-16.87	86.8	-35.91	-0.2396	0.3538	-0.2907	
0.203618	-0.914268	0.260348	-20.79	92.89	-41.09	-0.23	0.3429	-0.3015	
0.217282	-0.926468	0.235704	-21.56	98.14	-45.22	-0.233	0.3459	-0.3123	
0.215208	-0.94245	0.259738	-23.45	98.84	-44.03	-0.2234	0.3505	-0.3276	
0.201788	-0.948428	0.2379	-23.94	101.85	-40.46	-0.2346	0.3396	-0.3202	
0.196664	-0.975268	0.226066	-25.2	101.5	-41.93	-0.2165	0.3349	-0.3323	
0.173484	-1.001986	0.191662	-22.82	103.95	-39.76	-0.2207	0.3442	-0.3307	
0.160308	-1.003328	0.209474	-23.87	102.2	-36.89	-0.2081	0.3396	-0.3336	
0.171532	-0.992592	0.201422	-22.19	105.63	-35.63	-0.2081	0.3412	-0.3336	
0.17568	-0.994178	0.207766	-21.21	106.05	-36.82	-0.2054	0.3303	-0.3367	
0.174582	-1.001742	0.186538	-19.39	105.98	-34.16	-0.197	0.3396	-0.3396	
0.168726	-1.004304	0.150914	-17.78	104.09	-31.43	-0.193	0.3287	-0.352	
0.168604	-1.012722	0.166042	-16.73	97.65	-32.97	-0.1873	0.3303	-0.3488	
0.134444	-0.99064	0.099552	-13.65	97.51	-29.82	-0.179	0.3489	-0.3593	
0.108214	-0.97905	0.127734	-15.96	88.83	-29.19	-0.1706	0.3411	-0.3561	
0.125538	-1.001132	0.148718	-15.61	87.36	-29.05	-0.1706	0.3365	-0.3577	
0.12688	-1.003816	0.156404	-14.35	86.31	-27.09	-0.1805	0.3364	-0.3595	
0.1098	-0.991372	0.157502	-13.72	84.14	-26.04	-0.1666	0.3426	-0.37	
0.104188	-0.991128	0.116266	-13.86	84.56	-21.84	-0.1581	0.3411	-0.3698	
0.083814	-0.976976	0.133468	-15.4	79.8	-23.31	-0.1555	0.3426	-0.3806	
0.138226	-0.989054	0.160552	-15.26	74.48	-24.57	-0.1427	0.3396	-0.368	
0.162138	-0.990274	0.168482	-14.28	76.02	-20.72	-0.1384	0.3366	-0.3633	
0.159088	-0.97234	0.166408	-10.5	74.69	-17.22	-0.1357	0.3396	-0.3725	
0.1525	-0.985516	0.170922	-13.44	73.57	-16.1	-0.1287	0.3381	-0.3739	
0.160308	-0.959164	0.176168	-12.53	75.88	-12.6	-0.1314	0.3381	-0.3693	
0.15982	-0.945378	0.16897	-10.78	75.74	-20.86	-0.1273	0.3489	-0.3769	
0.122244	-0.947696	0.138104	-20.09	77.49	-30.1	-0.1218	0.352	-0.3861	
0.218502	-0.97417	0.19093	-27.16	79.1	-39.2	-0.1008	0.3428	-0.3842	
0.204228	-0.984906	0.146156	-22.75	86.03	-40.32	-0.1036	0.3598	-0.3873	
0.119072	-0.952332	0.101138	-20.09	83.3	-40.6	-0.1063	0.349	-0.3812	
0.082472	-0.961482	0.081374	-19.18	78.61	-40.39	-0.0936	0.3413	-0.3779	
0.066246	-0.972706	0.15677	-13.44	69.65	-38.22	-0.0867	0.3599	-0.3869	
0.08662	-1.004426	0.149694	-26.46	65.03	-34.02	-0.0838	0.3553	-0.3807	
0.102846	-1.0065	0.146522	-26.67	62.16	-30.24	-0.088	0.3522	-0.3824	
0.10065	-1.00894	0.152744	-26.18	53.41	-27.65	-0.0849	0.357	-0.3652	
0.088328	-1.025532	0.148474	-23.59	50.96	-27.02	-0.085	0.3569	-0.3699	
0.136396	-0.998692	0.159576	-21.56	43.68	-24.08	-0.0737	0.3694	-0.3726	
0.15006	-1.006012	0.144692	-15.4	41.16	-21.49	-0.0891	0.3709	-0.3667	
0.105286	-1.013088	0.121634	-8.61	36.12	-18.13	-0.0808	0.3647	-0.3728	
0.093452	-1.02114	0.160186	-8.19	31.99	-17.78	-0.0737	0.3601	-0.3681	
0.14274	-0.980514	0.171288	-12.88	26.32	-11.83	-0.0875	0.3663	-0.3559	
0.178974	-0.980514	0.192882	-12.67	21.91	-10.5	-0.0764	0.3632	-0.365	
0.180072	-0.9821	0.174216	-8.26	16.38	-8.82	-0.08199999	0.3663	-0.3635	
0.179706	-0.981002	0.166164	-3.22	14.91	-10.29	-0.0779	0.3647	-0.3681	
0.198128	-0.970388	0.176534	-2.38	13.44	-7.98	-0.0807	0.3756	-0.3696	
0.2318	-0.952454	0.190686	-0.91	8.4	-7.49	-0.0835	0.3694	-0.3682	
0.231678	-0.957822	0.18727	-3.22	8.61	-5.88	-0.0777	0.3648	-0.3588	
0.221552	-0.964532	0.182512	-3.64	10.85	-5.67	-0.0778	0.371	-0.3665	
0.224358	-0.966972	0.193614	-2.66	7.56	-5.18	-0.0736	0.3741	-0.3633	
0.237656	-0.964532	0.19825	-2.73	7.77	-4.55	-0.0749	0.3741	-0.3618	
0.228994	-0.957578	0.19398	-2.31	6.16	-3.29	-0.0764	0.3648	-0.3619	
0.21289	-0.963922	0.189466	-2.03	4.76	-2.94	-0.0765	0.3647	-0.3665	
0.231434	-0.944768	0.190564	-0.56	3.01	0.21	-0.0695	0.3648	-0.3679	
0.243024	-0.950258	0.196542	-0.35	3.57	0.98	-0.0722	0.371	-0.3648	
0.24461	-0.955138	0.193858	0.49	4.69	0.63	-0.0807	0.3663	-0.3666	
0.229848	-0.954406	0.183244	1.89	4.34	-1.47	-0.0736	0.3741	-0.368	
0.222162	-0.963556	0.193614	0.14	3.08	0	-0.0706	0.3695	-0.3555	
0.234972	-0.944768	0.195566	0.49	3.5	-1.26	-0.0764	0.3694	-0.3665	
0.24278	-0.939644	0.208986	-0.28	2.45	-0.49	-0.07759999	0.3695	-0.3526	
0.23485	-0.94977	0.203008	-1.4	3.29	-0.35	-0.075	0.3725	-0.3633	
0.23729	-0.948794	0.19886	-1.19	3.15	-0.49	-0.0679	0.3741	-0.3632	
0.230214	-0.943914	0.199104	-1.96	3.78	-0.7	-0.0624	0.3756	-0.3708	
0.225334	-0.949648	0.200568	-2.45	2.52	-0.21	-0.0679	0.371	-0.3601	
0.219478	-0.95465	0.206912	-2.45	2.24	0.07	-0.0793	0.3678	-0.3666	
0.217038	-0.96685	0.210694	-2.31	1.89	0.91	-0.0792	0.3679	-0.3604	
0.20679	-0.961726	0.192394	-1.96	2.66	1.47	-0.0693	0.371	-0.3601	
0.202032	-0.970266	0.184586	-1.47	0.63	1.75	-0.0806	0.3679	-0.3604	
0.21411	-0.965264	0.180316	-1.05	-0.77	2.73	-0.06659999	0.3632	-0.3663	
0.225212	-0.949892	0.17751	-0.07	-2.17	2.94	-0.0777	0.3757	-0.3587	
0.226798	-0.946842	0.179218	0.35	-4.41	3.5	-0.0693	0.3741	-0.3632	
0.206424	-0.959652	0.18971	-0.49	-4.34	3.15	-0.0763	0.3695	-0.3556	
0.223016	-0.953308	0.178852	-1.61	-3.99	3.85	-0.06659999	0.3632	-0.3663	
0.20801	-0.960506	0.171288	-1.33	-5.46	3.15	-0.0792	0.3741	-0.3665	
0.193004	-0.974902	0.171776	-0.35	-7.77	3.78	-0.0722	0.3694	-0.3649	
0.181292	-0.959042	0.173728	-0.07	-9.03	5.18	-0.0749	0.3757	-0.3618	
0.152134	-0.96746	0.172752	-0.77	-10.85	6.58	-0.0707	0.3803	-0.3601	
0.158844	-0.9638	0.16104	-0.91	-12.04	7.49	-0.0735	0.3757	-0.3586	
0.1342	-0.976122	0.157746	-0.63	-16.87	8.12	-0.0763	0.3772	-0.3618	
0.084424	-0.998204	0.135908	3.15	-28.07	13.86	-0.0778	0.3787	-0.3649	
0.063562	-1.013088	0.101016	8.26	-36.96	19.74	-0.0721	0.371	-0.3617	
0.08686399	-1.005158	0.11651	11.41	-48.58	27.93	-0.0805	0.3757	-0.3588	
0.121878	-1.009062	0.130906	11.27	-57.61	32.76	-0.0793	0.3663	-0.3697	
0.113948	-0.988078	0.102724	14.56	-63.14	34.3	-0.0793	0.3694	-0.3697	
0.124928	-0.980758	0.105652	18.62	-68.18	30.38	-0.0805	0.3788	-0.3603	
0.117608	-0.986858	0.109434	23.66	-77.77	27.72	-0.0832	0.3726	-0.3542	
0.10858	-0.998692	0.119804	24.5	-81.06	23.94	-0.08639999	0.3662	-0.3714	
0.113338	-1.002718	0.08845	29.54	-85.33	18.69	-0.0933	0.3631	-0.3669	
0.120414	-0.981002	0.100406	24.36	-88.06	20.16	-0.1004	0.3522	-0.3686	
0.122122	-0.999546	0.129808	14.35	-90.79	19.04	-0.1089	0.3584	-0.3688	
0.124196	-1.026508	0.132614	9.94	-91.91	19.39	-0.1102	0.3568	-0.3657	
0.10492	-1.04371	0.049898	15.61	-88.97	17.22	-0.1173	0.3568	-0.3705	
0.17141	-0.984784	0.09455	14.77	-97.02	13.3	-0.1284	0.3599	-0.3598	
0.22265	-1.001986	0.103944	25.48	-99.4	14.35	-0.1369	0.3459	-0.3647	
0.190686	-1.033096	0.095648	36.19	-94.71	13.09	-0.1399	0.3443	-0.371	
0.157624	-1.061034	0.06649	42.56	-93.59	10.29	-0.1468	0.3598	-0.3679	
0.16409	-1.052128	0.163968	49.07	-97.51	12.39	-0.1624	0.3426	-0.3699	
0.202886	-0.953064	0.058316	50.82	-74.27	19.6	-0.1638	0.3364	-0.37	
0.251198	-0.96685	0.133224	39.34	-94.43	19.6	-0.1822	0.3285	-0.3751	
0.222406	-0.994422	0.127734	40.67	-89.39	23.45	-0.1849	0.3332	-0.372	
0.238632	-0.988932	0.127734	37.87	-95.41	26.81	-0.1863	0.3192	-0.369	
0.255712	-0.915488	0.095282	45.57	-82.11	37.1	-0.2004	0.3269	-0.3708	
0.238022	-0.981368	0.148596	33.95	-93.52	28.56	-0.2002	0.3255	-0.3599	
0.252174	-0.961604	0.145058	34.86	-92.12	34.09	-0.2045	0.3208	-0.3616	
