Sensor string: B
Serial number: 1970-01-0000
Firmware version: 2,015
Hardware version: 2,2
Calibration quality: 5
ax	ay	az	gx	gy	gz	mx	my	mz

0.03599	-0.93879	0.288286	-1.33	1.54	0.35	-0.1165	0.3071	-0.3829	Reference
0.035746	-0.939156	0.290848	-1.75	1.68	0.91	-0.113	0.2861	-0.3602	
0.032208	-0.938546	0.28853	-1.4	1.33	1.19	-0.1093	0.2921	-0.3589	
0.035502	-0.937448	0.286334	-1.05	0.63	1.33	-0.1091	0.2905	-0.3603	
0.03965	-0.932446	0.28609	-0.35	0.14	1.26	-0.1091	0.2905	-0.3618	
0.039894	-0.932568	0.28609	-0.77	0.28	1.19	-0.1066	0.295	-0.3619	
0.03599	-0.936228	0.285602	-0.77	0.35	0.98	-0.1148	0.3037	-0.3558	
0.036356	-0.939156	0.286212	-1.26	0.7	1.12	-0.101	0.2818	-0.3649	
0.038552	-0.939278	0.287432	-0.91	0.84	1.12	-0.103	0.2851	-0.3531	
0.038674	-0.94062	0.28975	-0.98	0.98	1.33	-0.1061	0.3044	-0.359	
0.036356	-0.93757	0.287188	-0.14	0.98	1.4	-0.1076	0.2887	-0.383	
0.035746	-0.936228	0.282552	-0.14	0.56	1.4	-0.1104	0.289	-0.3633	
0.042334	-0.932202	0.281942	-0.14	0.28	0.84	-0.1048	0.29	-0.359	
0.033794	-0.931958	0.281942	0.28	0.42	0.49	-0.106	0.2902	-0.3678	
0.034404	-0.934398	0.284382	-0.98	0.35	0.7	-0.1037	0.2947	-0.3635	
0.033428	-0.936716	0.286212	-1.05	0.14	0.56	-0.1046	0.2901	-0.3649	
0.03416	-0.935984	0.284504	-0.77	0.07	0.56	-0.1068	0.2966	-0.3604	
0.03355	-0.933788	0.282918	-0.42	0	0.35	-0.1076	0.2887	-0.3559	
0.031842	-0.935984	0.282064	-0.63	-0.7	0.14	-0.09869999	0.2862	-0.3591	
0.031354	-0.937204	0.281454	-0.35	-0.91	0	-0.1081	0.2919	-0.3471	
0.030378	-0.93818	0.27877	-0.28	-1.26	-0.14	-0.1068	0.2966	-0.3604	
0.03294	-0.938912	0.282308	-0.91	-1.61	-0.14	-0.1122	0.294	-0.3662	
0.032574	-0.936838	0.279746	-0.07	-1.4	-0.07	-0.1032	0.2899	-0.3634	
0.035624	-0.937082	0.2806	-0.42	-1.75	-0.14	-0.102	0.2914	-0.3605	
0.033794	-0.937692	0.28121	-0.21	-1.96	-0.28	-0.1081	0.2968	-0.3663	
0.033184	-0.938058	0.282186	0.28	-1.89	-0.42	-0.1034	0.2899	-0.3575	
0.034892	-0.937326	0.28182	0.21	-2.03	-0.56	-0.107	0.2982	-0.359	
0.033916	-0.939278	0.281942	0.07	-2.03	-0.49	-0.1133	0.2909	-0.3676	
0.035136	-0.939644	0.284382	-0.21	-1.89	-0.49	-0.108	0.2935	-0.3604	
0.033794	-0.9394	0.282064	0.14	-1.89	-0.35	-0.1109	0.2954	-0.3633	
0.036966	-0.938058	0.283772	-0.21	-1.75	-0.21	-0.1095	0.2937	-0.3574	
0.034648	-0.937448	0.282796	0.42	-1.75	-0.28	-0.1094	0.2937	-0.3618	
0.035502	-0.936838	0.2806	0.35	-1.82	-0.28	-0.1077	0.2903	-0.3589	
0.037454	-0.937326	0.28243	0.35	-1.75	-0.42	-0.1047	0.2901	-0.3634	
0.033794	-0.940132	0.283894	0.35	-1.54	-0.49	-0.1125	0.2939	-0.3514	
0.039528	-0.937692	0.27938	0.63	-1.47	-0.42	-0.1032	0.2883	-0.359	
0.04087	-0.940376	0.282308	-0.14	-1.89	-0.35	-0.1189	0.3042	-0.3646	
0.040504	-0.939522	0.279258	1.19	-0.98	-0.7	-0.1035	0.2915	-0.356	
0.042334	-0.938912	0.28731	0.35	-0.7	-0.91	-0.1031	0.2867	-0.3575	
0.036722	-0.93635	0.285358	0.84	-0.28	-0.56	-0.1112	0.2812	-0.3602	
0.03538	-0.939278	0.287188	-0.14	-0.14	-0.28	-0.1121	0.2907	-0.3829	
0.038064	-0.93696	0.284626	0.63	-0.14	-0.14	-0.1024	0.2835	-0.3723	
0.038918	-0.935496	0.286822	0.21	-0.28	-0.07	-0.1192	0.2882	-0.3512	
0.039528	-0.937082	0.288286	0	-0.21	-0.07	-0.1024	0.2962	-0.362	
0.036356	-0.93635	0.285358	0.63	0.56	-0.42	-0.1132	0.2877	-0.3617	
0.037454	-0.935008	0.283284	0.7	0.63	-0.7	-0.1083	0.2984	-0.3648	
0.039406	-0.931958	0.282186	0.91	0.84	-0.98	-0.1173	0.2833	-0.3542	
0.038186	-0.935252	0.284138	-0.07	0.35	-0.98	-0.1159	0.3007	-0.3573	
0.037332	-0.93879	0.286944	-0.56	0.07	-1.05	-0.1092	0.2905	-0.3589	
0.033306	-0.939156	0.279868	1.19	0.28	-0.91	-0.1166	0.2928	-0.3587	
0.040016	-0.941962	0.286578	-0.56	-0.28	-0.49	-0.1139	0.2957	-0.3617	
0.037942	-0.932446	0.280966	2.24	0.63	-0.63	-0.1149	0.2927	-0.3661	
0.039894	-0.937326	0.285358	-0.84	-0.56	-0.28	-0.1022	0.2929	-0.359	
0.03965	-0.939278	0.290116	-0.07	-0.14	-0.28	-0.1101	0.2875	-0.3692	
0.03782	-0.934764	0.28365	1.82	0.63	-0.42	-0.1046	0.2884	-0.3604	
0.042212	-0.93635	0.287188	-0.56	-0.35	-0.07	-0.118	0.2946	-0.3675	
0.042212	-0.937326	0.289384	0.49	0.35	-0.21	-0.1142	0.2973	-0.3543	
0.041236	-0.936594	0.285968	1.05	0.63	-0.28	-0.1136	0.2941	-0.3662	
0.043432	-0.936472	0.288164	0	0.21	-0.21	-0.1121	0.2924	-0.3632	
0.0427	-0.935618	0.288042	0.91	0.49	-0.28	-0.1089	0.2889	-0.3633	
0.042456	-0.935374	0.286212	0.49	0.35	-0.42	-0.1129	0.3004	-0.3588	
0.039894	-0.936716	0.287554	0.56	0.21	-0.42	-0.1094	0.2953	-0.3648	
0.039772	-0.939278	0.28365	0.84	-0.07	-0.35	-0.1102	0.2874	-0.3618	
0.040138	-0.94245	0.282308	1.19	-0.28	-0.42	-0.1132	0.3019	-0.3544	
0.040382	-0.950502	0.27999	1.68	0	-0.35	-0.109	0.2905	-0.3648	
0.04209	-0.96502	0.27938	1.96	0.35	-0.49	-0.1122	0.2907	-0.3543	
0.038186	-0.944768	0.268766	7.21	1.89	-1.54	-0.1131	0.2861	-0.3572	
0.035136	-0.942206	0.272426	6.86	2.87	-1.89	-0.1088	0.2889	-0.3677	
0.029768	-0.930372	0.273524	9.59	4.06	-3.57	-0.1089	0.2889	-0.3618	
0.026596	-0.943426	0.277306	8.82	3.85	-4.55	-0.1086	0.2841	-0.3573	
0.024644	-0.969412	0.283406	10.57	5.67	-4.62	-0.1186	0.2851	-0.366	
0.012932	-0.971364	0.267302	16.38	6.93	-5.04	-0.1055	0.2838	-0.3663	
0.017568	-0.960872	0.249978	19.81	6.86	-5.88	-0.1147	0.2736	-0.366	
0.021594	-0.961726	0.25437	19.74	5.53	-5.53	-0.1096	0.2843	-0.3765	
0.0183	-0.960872	0.259738	24.64	6.3	-6.44	-0.1113	0.2844	-0.3676	
0.015372	-0.966362	0.26352	26.32	4.48	-7.28	-0.1093	0.2795	-0.3706	
0.024156	-0.959286	0.264008	32.55	5.11	-7.98	-0.1128	0.2719	-0.3764	
-0.007076	-0.96746	0.25559	36.61	4.97	-9.1	-0.1079	0.2667	-0.3794	
0.07991	-0.93574	0.198616	35.63	-24.01	-1.61	-0.1152	0.2532	-0.388	
0.016226	-0.97539	0.264862	47.46	-10.57	-8.89	-0.1082	0.2557	-0.3882	
0.009638	-0.936716	0.24949	54.18	0.77	-11.9	-0.1188	0.2472	-0.3923	
0.014762	-0.942206	0.269864	62.02	0.56	-10.29	-0.112	0.2403	-0.4102	
0.012566	-0.949648	0.28365	62.3	-8.75	-7.91	-0.1138	0.2294	-0.4145	
0.051606	-0.931836	0.291824	66.22	-10.85	-6.37	-0.1115	0.2197	-0.4145	
0.041602	-0.902434	0.319274	76.86	-5.18	-8.47	-0.1222	0.2128	-0.423	
0.035624	-0.8784	0.336842	78.33	-4.06	-8.33	-0.1058	0.2048	-0.4145	
0.033428	-0.844728	0.352336	78.61	-8.12	-7.35	-0.1247	0.1957	-0.4317	
0.064416	-0.81923	0.396134	79.17	-8.33	-7.07	-0.1167	0.187	-0.4348	
0.060512	-0.82594	0.435662	80.85	-7.63	-8.4	-0.1228	0.1765	-0.439	
0.067588	-0.804102	0.47458	84.84	-7.42	-11.06	-0.1204	0.1684	-0.4494	
0.079544	-0.787266	0.493612	84.84	-12.67	-11.34	-0.1229	0.148	-0.4492	
0.072224	-0.768234	0.49898	84.28	-13.09	-8.75	-0.1207	0.1415	-0.4551	
0.131516	-0.743102	0.517768	86.66	-10.15	-9.94	-0.1234	0.1243	-0.4564	
0.12017	-0.708942	0.551928	91.56	-7.98	-8.19	-0.1279	0.1121	-0.4636	
0.118218	-0.682956	0.604998	96.39	-8.19	-8.47	-0.1301	0.0901	-0.4678	
0.131882	-0.655506	0.652334	96.25	-9.52	-7.63	-0.1353	0.0827	-0.4662	
0.14457	-0.586576	0.677222	100.45	-4.2	-8.68	-0.1148	0.0506	-0.4768	
0.14518	-0.559248	0.687836	96.95	-4.41	-8.54	-0.1245	0.0293	-0.472	
0.14762	-0.517524	0.68137	97.37	-6.58	-8.82	-0.1143	0.0124	-0.4722	
0.155428	-0.472262	0.689666	101.01	-3.85	-9.66	-0.1211	-0.0058	-0.4837	
0.121268	-0.438346	0.719556	101.85	-4.34	-10.22	-0.1276	-0.0147	-0.4776	
0.119194	-0.389546	0.735782	105.7	-7.07	-9.52	-0.1193	-0.0409	-0.4609	
0.143716	-0.36661	0.773846	106.75	-9.17	-8.75	-0.1168	-0.0555	-0.4746	
0.146034	-0.315736	0.802028	109.55	-9.94	-9.1	-0.1259	-0.0641	-0.4832	
0.14457	-0.290726	0.823378	109.55	-9.66	-9.38	-0.1305	-0.0796	-0.4726	
0.153842	-0.253516	0.840214	112.98	-8.68	-8.19	-0.1179	-0.1046	-0.4816	
0.191662	-0.213134	0.866322	111.51	-15.05	-5.39	-0.1188	-0.1157	-0.4638	
0.187636	-0.153964	0.86864	115.15	-9.17	-5.39	-0.1162	-0.1429	-0.4711	
0.171044	-0.123464	0.889502	110.11	-10.64	-5.67	-0.1221	-0.1582	-0.4679	
0.199592	-0.10187	0.91378	104.3	-12.67	-2.45	-0.1255	-0.1706	-0.4603	
0.20801	-0.071614	0.922686	100.24	-9.17	-0.42	-0.1298	-0.191	-0.4453	
0.2135	-0.014152	0.930982	95.76	-10.71	1.19	-0.1257	-0.2008	-0.4586	
0.236436	0.015738	0.93513	84.42	-12.18	3.29	-0.1239	-0.2058	-0.4513	
0.227774	0.03477	0.934764	76.23	-11.9	6.16	-0.1253	-0.2248	-0.4437	
0.235826	0.087108	0.94428	73.92	-13.72	7.21	-0.1254	-0.239	-0.4436	
0.21045	0.11895	0.944524	66.57	-17.29	6.09	-0.1264	-0.2469	-0.4603	
0.25559	0.116266	0.982832	64.33	-19.39	5.25	-0.137	-0.2586	-0.4284	
0.241926	0.137006	1.01016	63.07	-19.32	4.76	-0.1297	-0.2626	-0.4197	
0.271694	0.164944	1.016992	60.62	-17.85	7	-0.1377	-0.2714	-0.4106	
0.290482	0.223016	1.01382	59.57	-16.59	9.1	-0.1427	-0.2788	-0.4163	
0.322568	0.263642	0.998692	55.93	-15.82	7.77	-0.1385	-0.2792	-0.409	

0.296948	0.287798	0.987346	52.92	-14.35	2.52	-0.1428	-0.2979	-0.3999	
0.31354	0.294264	1.012478	48.16	-12.04	1.26	-0.1396	-0.3014	-0.4	
0.312442	0.29219	1.011014	39.76	-10.5	1.61	-0.133	-0.3149	-0.3838	
0.326716	0.301706	0.987712	34.65	-10.01	1.82	-0.1422	-0.3267	-0.3791	
0.313662	0.301828	0.975268	31.64	-8.68	0.14	-0.1464	-0.3263	-0.3834	
0.302804	0.279746	0.955138	24.85	-8.75	1.54	-0.1493	-0.3292	-0.3715	
0.310978	0.300486	0.96258	22.4	-8.68	0.91	-0.152	-0.3322	-0.3684	
0.32696	0.294752	0.933178	20.79	-16.52	0.63	-0.1486	-0.3389	-0.367	
0.305854	0.279014	0.946842	20.44	-5.81	-2.45	-0.146	-0.3343	-0.37	
0.310734	0.286212	0.950624	16.31	-9.24	-1.54	-0.1489	-0.3357	-0.3655	
0.32147	0.286456	0.96075	14.98	-7.42	-3.22	-0.1472	-0.3374	-0.37	
0.312198	0.281698	0.978074	14.49	-6.37	-3.36	-0.1516	-0.3386	-0.361	
0.341966	0.296216	0.972706	10.5	-11.69	-1.26	-0.1496	-0.3468	-0.3566	
0.336598	0.317566	0.980392	11.97	-2.38	-3.5	-0.1536	-0.332	-0.3625	
0.344406	0.31171	0.977586	7.07	-4.06	-2.24	-0.1555	-0.3446	-0.3594	
0.352824	0.326716	0.974048	5.95	-2.38	-2.24	-0.1551	-0.351	-0.352	
0.34953	0.328912	0.974292	3.15	-0.91	-1.89	-0.156	-0.3382	-0.3594	
0.346236	0.334158	0.97539	0.49	-0.63	-1.12	-0.1496	-0.3468	-0.3566	
0.350872	0.34526	0.975024	-1.61	0.28	-0.42	-0.1533	-0.3511	-0.3653	
0.354654	0.361242	0.976732	-4.69	0.7	-0.14	-0.1445	-0.352	-0.3655	
0.36661	0.363804	0.980026	-8.61	1.05	0.07	-0.1495	-0.3451	-0.3655	
0.365512	0.376614	0.996984	-13.72	2.73	0.21	-0.1551	-0.3462	-0.3668	
0.370758	0.36478	1.009062	-17.5	3.5	0.07	-0.1446	-0.3345	-0.3686	
0.37637	0.373076	1.02358	-19.6	4.9	0.42	-0.1544	-0.3399	-0.3609	
0.382104	0.377956	1.029314	-23.24	6.3	0.49	-0.1523	-0.3322	-0.3566	
0.374906	0.378444	1.029558	-28	8.26	1.05	-0.1564	-0.3317	-0.3668	
0.37942	0.37149	1.025898	-33.95	9.38	1.4	-0.1567	-0.3269	-0.3728	
0.373076	0.356362	1.023458	-38.92	10.92	1.75	-0.1492	-0.3292	-0.3774	
0.365024	0.33611	1.03151	-43.61	11.48	2.24	-0.1421	-0.3283	-0.3761	
0.35258	0.32452	1.03944	-49.84	13.16	3.22	-0.1497	-0.3053	-0.3849	
0.35502	0.30805	1.01992	-57.12	13.44	3.29	-0.1503	-0.3131	-0.3922	
0.351848	0.282186	1.023336	-61.95	15.47	3.57	-0.1434	-0.2899	-0.4044	
0.330742	0.254492	1.011624	-69.65	23.45	3.64	-0.1445	-0.2929	-0.4073	
0.329888	0.224968	0.984052	-74.55	18.06	7.49	-0.1464	-0.288	-0.4088	
0.304634	0.199592	0.97356	-75.95	23.66	6.02	-0.1464	-0.2721	-0.4089	
0.288896	0.187026	0.951356	-80.43	21.63	7.49	-0.1348	-0.2684	-0.4255	
0.284748	0.154818	0.953186	-84.14	23.31	7.28	-0.1344	-0.2573	-0.4226	
0.270962	0.09552599	0.933788	-91.42	21.28	6.93	-0.1328	-0.2208	-0.445	
0.251442	0.049532	0.92049	-95.13	22.12	6.02	-0.1454	-0.2101	-0.4403	
0.23363	0.011956	0.910242	-97.72	20.16	6.09	-0.1288	-0.2006	-0.4482	
0.221308	-0.017934	0.896944	-101.01	20.09	6.09	-0.1299	-0.1861	-0.4586	
0.212768	-0.063928	0.88023	-102.34	18.34	7	-0.1281	-0.1736	-0.4573	
0.189222	-0.100162	0.848144	-103.53	17.99	7.28	-0.1377	-0.1456	-0.4646	
0.177876	-0.13237	0.82716	-103.74	21.91	6.44	-0.1185	-0.1348	-0.4637	
0.170312	-0.158966	0.807762	-106.05	20.16	4.62	-0.1303	-0.1288	-0.4767	
0.14762	-0.217038	0.758596	-113.96	16.59	4.13	-0.1175	-0.0951	-0.4773	
0.139324	-0.269376	0.73749	-118.37	13.51	3.29	-0.1183	-0.08549999	-0.4773	
0.128832	-0.326594	0.698084	-124.95	10.64	3.29	-0.1244	-0.0658	-0.4803	
0.122122	-0.38796	0.690886	-126.56	12.25	0.84	-0.1304	-0.0478	-0.4758	
0.110166	-0.451644	0.685396	-131.88	8.82	2.17	-0.1217	-0.0153	-0.4821	
0.083082	-0.510204	0.66856	-130.83	3.92	2.45	-0.1246	0.0008	-0.4822	
0.086498	-0.572424	0.66246	-131.39	2.87	5.04	-0.1284	0.0107	-0.4792	
0.110044	-0.6161	0.651968	-122.43	8.68	7.98	-0.1304	0.0315	-0.4763	
0.102724	-0.6222	0.61	-119.49	10.57	10.92	-0.1276	0.0645	-0.4751	
0.08295999	-0.639768	0.573644	-121.73	8.4	13.16	-0.1306	0.0758	-0.4559	
0.088206	-0.687836	0.53009	-118.86	9.24	15.54	-0.1162	0.09339999	-0.4594	
0.072346	-0.7198	0.488854	-115.99	6.86	17.36	-0.1308	0.1124	-0.4665	
0.061732	-0.756034	0.452132	-107.24	8.19	17.5	-0.1205	0.124	-0.458	
0.03965	-0.785192	0.420778	-103.18	7.91	15.68	-0.1237	0.1401	-0.4462	
0.021106	-0.830332	0.41419	-100.87	7.35	15.4	-0.124	0.1576	-0.4389	
0.009393999	-0.860222	0.381738	-96.88	2.38	16.73	-0.1214	0.178	-0.4435	
0.046604	-0.894382	0.364902	-94.43	2.59	16.17	-0.1228	0.1859	-0.4169	
0.009272	-0.898042	0.363438	-85.61	1.19	14.98	-0.1181	0.1981	-0.4186	
-0.036844	-0.894382	0.314638	-70.28	6.65	12.53	-0.1232	0.2065	-0.4156	
0.00427	-0.893894	0.310856	-67.62	5.74	12.46	-0.1179	0.225	-0.407	
0.000854	-0.890356	0.31232	-68.32	-1.54	14.21	-0.1186	0.2298	-0.3981	
-0.002562	-0.92171	0.323178	-59.92	2.94	12.88	-0.125	0.2416	-0.4128	
0.03416	-0.921588	0.303292	-57.05	1.96	12.81	-0.1067	0.2396	-0.3881	
0.03111	-0.906094	0.299876	-48.86	7	12.67	-0.1196	0.2678	-0.3777	
0.01159	-0.93513	0.283894	-52.29	8.61	14.56	-0.1137	0.2673	-0.3808	
0.029036	-0.946842	0.297558	-56.98	8.61	18.2	-0.1101	0.2748	-0.3779	
0.041602	-0.958554	0.28792	-52.29	11.06	15.96	-0.1066	0.2775	-0.3574	
0.018422	-0.939888	0.25437	-45.43	12.6	15.33	-0.0993	0.2943	-0.365	
-0.005246	-0.947208	0.20984	-42.14	11.9	14.98	-0.09649999	0.2956	-0.3636	
-0.00671	-0.946842	0.190808	-47.18	4.62	15.4	-0.0966	0.294	-0.3562	
-0.006466	-0.956358	0.187148	-43.89	5.11	15.75	-0.0991	0.3037	-0.3489	
-0.007076	-0.977952	0.190198	-44.31	5.11	15.05	-0.0997	0.3133	-0.3563	
-0.019764	-0.980026	0.18117	-38.78	6.72	14.91	-0.09559999	0.3128	-0.346	
-0.019642	-1.000156	0.168604	-38.43	6.72	15.54	-0.0948	0.3158	-0.3328	
-0.055632	-0.992348	0.147254	-30.8	7.42	14	-0.098	0.3193	-0.3342	
-0.053802	-1.002474	0.126392	-32.34	4.27	14.35	-0.0845	0.3307	-0.3376	
-0.055754	-0.982222	0.130296	-28.35	-0.28	15.33	-0.0887	0.3279	-0.333	
-0.026352	-0.974902	0.136152	-24.15	0.56	13.58	-0.0878	0.3326	-0.3257	
-0.021472	-0.97234	0.132614	-17.99	4.62	10.22	-0.0829	0.3241	-0.3198	
-0.047336	-0.965752	0.122976	-23.94	0.28	11.2	-0.0823	0.3336	-0.3214	
-0.036478	-0.984418	0.101016	-26.6	-1.4	10.85	-0.0799	0.338	-0.3156	
-0.052338	-0.991494	0.103334	-21.49	-0.56	8.75	-0.0795	0.3332	-0.3141	
-0.06588	-0.994178	0.091134	-19.25	-0.84	7.98	-0.0788	0.3395	-0.3067	
-0.067222	-0.999058	0.10309	-22.68	-3.92	9.38	-0.0804	0.3396	-0.3023	
-0.067466	-1.007842	0.11407	-16.52	0.14	6.23	-0.07229999	0.3467	-0.3055	
-0.053558	-0.976122	0.11102	-14.28	-0.98	5.6	-0.0765	0.3456	-0.3068	
-0.068076	-0.97661	0.104188	-12.11	-1.4	4.13	-0.0695	0.3464	-0.3026	
-0.052948	-0.97783	0.09699	-18.41	-6.09	5.88	-0.07	0.3528	-0.3026	
-0.07442	-0.991372	0.071126	-14	-4.9	5.39	-0.0704	0.3544	-0.2937	
-0.089792	-1.006622	0.073566	-11.55	-5.95	4.41	-0.081	0.3619	-0.3009	
-0.074298	-1.015772	0.086498	-1.89	-3.71	3.01	-0.0787	0.3631	-0.2818	
-0.0854	-1.00833	0.088694	-0.56	-2.87	3.29	-0.0682	0.3479	-0.2997	
-0.103944	-0.997716	0.085644	-2.03	-5.46	3.36	-0.0705	0.356	-0.2938	

-0.081618	-0.989908	0.077348	1.33	-0.84	-0.14	-0.0752	0.3613	-0.2996	
-0.072346	-0.976488	0.077714	2.17	-1.82	-0.98	-0.0766	0.3582	-0.2921	
-0.07381	-1.008208	0.086376	0.21	-4.41	-0.42	-0.0756	0.3502	-0.3025	
-0.08662	-1.024068	0.082716	-1.47	-6.16	0.35	-0.0675	0.3541	-0.2923	
-0.111142	-1.025654	0.074908	-0.42	-8.33	0.63	-0.0738	0.3595	-0.2922	
-0.122	-1.005524	0.077104	3.15	-9.66	1.12	-0.08329999	0.3557	-0.3008	
-0.101626	-0.988566	0.086742	7.35	-8.19	0.28	-0.0834	0.3574	-0.3053	
-0.090036	-0.962092	0.09747799	9.73	-7.84	-0.42	-0.0727	0.3642	-0.2952	
-0.07869	-0.966484	0.09162199	6.65	-7.7	-0.49	-0.0807	0.357	-0.295	
-0.076616	-0.984296	0.089914	3.64	-8.96	0.42	-0.0918	0.3567	-0.311	
-0.080642	-1.002718	0.08235	4.48	-9.17	0.35	-0.08859999	0.3642	-0.2934	
-0.102724	-1.00955	0.07808	4.41	-8.89	0.42	-0.0763	0.3582	-0.304	
-0.105896	-1.016138	0.09076799	6.65	-6.3	0.07	-0.0851	0.3591	-0.2978	
-0.10675	-0.997106	0.09821	9.59	-2.73	-1.89	-0.08549999	0.348	-0.3022	
-0.093208	-0.98759	0.098088	9.31	-0.42	-2.94	-0.0829	0.3509	-0.2993	
-0.086254	-0.995398	0.100528	7.63	-0.21	-2.87	-0.0784	0.3473	-0.2935	
-0.087718	-1.009916	0.105408	7.07	0.77	-4.06	-0.0894	0.3437	-0.3006	
-0.083448	-1.007476	0.112972	10.15	2.87	-6.09	-0.0836	0.3431	-0.3022	
-0.08784	-1.017114	0.120536	9.94	3.99	-7	-0.0955	0.3475	-0.3049	
-0.09638	-1.029314	0.127612	11.06	5.46	-6.93	-0.0866	0.3466	-0.3095	
-0.106384	-1.046028	0.141276	15.12	9.94	-7.49	-0.07979999	0.3507	-0.3097	
-0.10187	-1.046516	0.140056	19.46	14.42	-8.82	-0.0834	0.3431	-0.3111	
-0.087596	-1.042978	0.138104	26.11	18.13	-11.27	-0.0815	0.3382	-0.3096	
-0.13542	-0.99308	0.127978	33.67	8.19	-12.74	-0.0781	0.349	-0.3142	
-0.05978	-1.012112	0.17446	4.9	-3.64	-4.48	-0.0851	0.3306	-0.311	
-0.002318	-0.982588	0.195322	17.92	-1.33	-5.95	-0.08	0.3238	-0.3184	
-0.004758	-1.001864	0.201178	23.73	8.26	-14.28	-0.0883	0.3357	-0.3198	
0.026108	-1.00833	0.177388	31.22	14.07	-18.97	-0.087	0.3213	-0.3197	
0.05246	-1.016748	0.18422	40.32	11.41	-22.19	-0.0924	0.322	-0.3344	
0.081618	-0.987956	0.189588	48.51	5.39	-25.27	-0.0913	0.325	-0.3344	
-0.008296	-0.963556	0.264008	43.96	-1.75	-23.94	-0.09429999	0.3143	-0.3476	
-0.095404	-0.939522	0.213012	30.8	-12.39	-13.09	-0.0895	0.3091	-0.3477	
-0.066246	-0.919026	0.111508	39.2	-14.42	-10.01	-0.0995	0.2926	-0.3502	
-0.123098	-0.899018	0.13115	43.82	-17.85	-13.51	-0.1059	0.3029	-0.3605	
-0.030622	-0.952942	0.187636	41.23	-16.45	-7.56	-0.0957	0.2876	-0.368	
0.08174	-0.973316	0.381372	17.01	-4.27	-13.23	-0.1081	0.2968	-0.3663	
0.058072	-0.969168	0.2257	64.12	-8.61	-18.9	-0.114	0.2847	-0.3735	
-0.05429	-0.925736	0.152378	73.71	1.26	-19.81	-0.1119	0.2782	-0.3779	
0.0061	-0.877058	0.27023	43.4	-11.97	-16.31	-0.1189	0.2614	-0.3821	
0.026352	-0.924516	0.281332	47.32	-9.8	-15.96	-0.1116	0.2591	-0.3778	
0.014396	-0.898408	0.28975	73.64	8.19	-16.45	-0.1134	0.2514	-0.3925	
0.006954	-0.890478	0.304512	60.13	-5.67	-12.18	-0.1154	0.2564	-0.3895	
0.019764	-0.94062	0.304024	49.49	-16.24	-7.49	-0.1203	0.2347	-0.4025	
0.016836	-0.909998	0.31232	70	6.3	-12.32	-0.1136	0.2245	-0.4026	
0.002074	-0.864126	0.362706	74.2	12.53	-13.09	-0.1217	0.219	-0.4083	
0.053802	-0.840824	0.377346	64.47	3.29	-9.8	-0.1171	0.2186	-0.4158	
0.051484	-0.801052	0.416508	69.79	0.07	-11.41	-0.1191	0.1951	-0.4245	
0.033184	-0.798734	0.418826	69.86	-11.06	-5.32	-0.1145	0.1947	-0.4349	
0.049044	-0.8113	0.416874	66.85	-8.4	-8.89	-0.1262	0.1942	-0.4258	
0.041602	-0.794708	0.427366	79.1	8.89	-15.89	-0.1208	0.1699	-0.4376	
0.030866	-0.790316	0.473482	79.73	5.81	-15.19	-0.1293	0.1692	-0.4418	
0.028426	-0.77043	0.507276	86.03	-4.83	-15.89	-0.1188	0.1508	-0.4508	
0.05673	-0.794586	0.541924	82.74	-4.48	-15.61	-0.1153	0.1315	-0.4626	
0.061854	-0.766526	0.55266	88.13	-2.59	-15.75	-0.111	0.1278	-0.4479	
0.034526	-0.69418	0.55754	89.95	-2.94	-14.07	-0.1072	0.1069	-0.4656	
0.081496	-0.644404	0.572058	83.23	-8.26	-7.35	-0.1168	0.0856	-0.4667	
0.07076	-0.605242	0.585356	94.85	1.26	-14.98	-0.1255	0.0865	-0.4679	
0.067222	-0.594506	0.621956	85.12	-8.89	-11.76	-0.118	0.0699	-0.4769	
0.090036	-0.57828	0.647088	87.78	-9.8	-11.41	-0.122	0.0497	-0.4737	
0.09882	-0.567178	0.677222	93.59	-11.9	-16.66	-0.1247	0.0451	-0.4662	
0.092476	-0.539484	0.701378	94.15	-12.74	-18.9	-0.1178	0.0207	-0.478	
0.13237	-0.511058	0.702964	90.3	-11.41	-17.64	-0.1271	0.0105	-0.4748	
0.129442	-0.44408	0.755546	92.05	-9.1	-14.91	-0.124	-0.0214	-0.4806	
0.133956	-0.432246	0.800076	94.99	-12.04	-15.33	-0.1271	-0.037	-0.476	
0.156038	-0.384056	0.835212	97.09	-14.91	-17.22	-0.1217	-0.0503	-0.4686	
0.198128	-0.347212	0.866322	95.41	-8.47	-16.45	-0.1198	-0.0695	-0.4759	
0.217526	-0.299632	0.877668	96.6	-6.23	-14.28	-0.1359	-0.0822	-0.4799	
0.213622	-0.239608	0.874374	98.98	-6.37	-14.21	-0.1177	-0.0919	-0.4788	
0.218746	-0.205204	0.866322	92.82	-6.02	-13.09	-0.1187	-0.1141	-0.4742	
0.195078	-0.16714	0.876326	86.94	-5.74	-11.97	-0.1144	-0.1304	-0.4727	
0.193736	-0.142984	0.90463	83.37	-5.39	-10.78	-0.1221	-0.1424	-0.465	
0.200568	-0.124684	0.932202	82.25	-4.06	-12.04	-0.1172	-0.1635	-0.4695	
0.205082	-0.126026	0.94062	78.47	-5.53	-10.57	-0.1216	-0.1614	-0.4738	
0.215086	-0.092842	0.939644	77.77	-8.19	-8.12	-0.1249	-0.1787	-0.4529	
0.220576	-0.072224	0.948794	73.36	-7.84	-4.55	-0.1211	-0.187	-0.4589	
0.221796	-0.022936	0.939888	71.05	-8.4	-2.24	-0.121	-0.2044	-0.4587	
0.235094	0.001708	0.953064	68.6	-9.87	-0.14	-0.1225	-0.2059	-0.4513	
0.238754	0.017324	0.933544	65.1	-11.13	0.91	-0.1246	-0.2185	-0.4364	
0.23058	0.04636	0.931958	59.92	-10.5	3.85	-0.1174	-0.2319	-0.4468	
0.241072	0.0671	0.919636	57.4	-11.55	6.3	-0.1161	-0.2463	-0.4438	
0.23973	0.086376	0.92842	58.73	-10.92	5.67	-0.1202	-0.2507	-0.4363	
0.228628	0.110166	0.941352	58.24	-14.77	5.53	-0.1246	-0.2535	-0.4514	
0.247538	0.12688	0.952332	57.68	-14.14	4.27	-0.1191	-0.2668	-0.4244	
0.244244	0.144326	0.971974	56.14	-15.61	3.92	-0.1232	-0.2679	-0.4302	
0.249978	0.155428	0.966728	53.62	-16.38	3.78	-0.1254	-0.2789	-0.4168	
0.287798	0.173118	0.974048	51.52	-16.8	3.71	-0.1379	-0.2856	-0.412	
0.267668	0.185806	0.94794	49.56	-18.06	2.31	-0.1317	-0.2927	-0.4002	
0.270596	0.202642	0.95221	47.25	-18.97	1.33	-0.1367	-0.2968	-0.3907	
0.298168	0.239608	0.956724	46.27	-18.34	0.42	-0.135	-0.3067	-0.4168	
0.313296	0.255224	0.930128	45.22	-20.16	-0.21	-0.1358	-0.3146	-0.3911	
0.324398	0.243756	0.947452	43.26	-19.46	-0.77	-0.1385	-0.3191	-0.3792	
0.33672	0.259006	0.96319	43.05	-16.45	-0.42	-0.1398	-0.319	-0.388	
0.317566	0.264984	0.96258	38.57	-15.89	-0.42	-0.1509	-0.3226	-0.3907	
0.344284	0.273036	0.967094	33.39	-13.93	1.68	-0.1465	-0.3438	-0.3729	
0.343674	0.291824	0.96868	30.17	-13.09	1.89	-0.1562	-0.3349	-0.3653	
0.347822	0.299998	0.97234	27.3	-11.69	1.33	-0.1489	-0.3357	-0.3655	
0.335866	0.290482	0.963068	23.38	-10.71	1.05	-0.1492	-0.3483	-0.3654	
0.354654	0.311832	0.946476	23.1	-10.99	0.84	-0.1526	-0.3591	-0.3638	
0.343064	0.332816	0.945134	23.87	-7.7	-1.19	-0.1448	-0.3537	-0.3478	
0.351238	0.32208	0.941108	18.97	-10.08	-1.05	-0.1538	-0.3638	-0.3549	
0.355264	0.327692	0.937448	19.88	-6.44	-1.54	-0.161	-0.3505	-0.3459	
0.344894	0.327692	0.939522	16.52	-7.14	-0.98	-0.1594	-0.3506	-0.3533	
0.355996	0.331474	0.928664	15.75	-6.65	-0.77	-0.1507	-0.3673	-0.352	
0.355752	0.341356	0.93879	13.65	-5.67	-0.07	-0.1574	-0.3604	-0.34	
0.359168	0.352946	0.93696	12.88	-4.27	0.07	-0.1531	-0.3576	-0.3475	
0.362462	0.359168	0.92598	9.66	-4.62	1.19	-0.158	-0.3666	-0.3488	
0.36234	0.354654	0.930372	7.42	-4.34	1.96	-0.1491	-0.3691	-0.352	
0.370026	0.359168	0.912194	6.02	-4.55	2.87	-0.1593	-0.3555	-0.34	
0.37454	0.38064	0.91378	5.53	-3.29	2.94	-0.1534	-0.3719	-0.343	
0.388448	0.40504	0.933178	1.61	-1.47	2.24	-0.1636	-0.3709	-0.3413	
0.398208	0.401258	0.952942	-0.84	0.49	1.4	-0.1628	-0.3646	-0.3399	
0.416142	0.418094	0.981368	-3.22	3.29	1.54	-0.1579	-0.3699	-0.3429	
0.417362	0.425536	0.999424	-7.49	5.18	1.68	-0.1604	-0.3601	-0.3355	
0.421876	0.442006	0.995642	-11.2	5.6	1.68	-0.1549	-0.3559	-0.3401	
0.417728	0.448838	0.998936	-16.38	7.56	2.03	-0.1622	-0.3535	-0.3459	
0.421266	0.453962	1.00223	-21.21	8.05	2.24	-0.1584	-0.3618	-0.3503	
0.416752	0.44896	1.01138	-27.09	10.01	2.87	-0.1545	-0.3591	-0.3445	
0.412482	0.436516	1.002718	-32.55	10.99	4.13	-0.1555	-0.3479	-0.3461	
0.392108	0.431758	0.99613	-37.38	13.23	4.97	-0.1499	-0.3452	-0.3477	
0.378688	0.408456	0.989298	-43.89	13.65	6.09	-0.1495	-0.3435	-0.3699	
0.369416	0.393938	0.976732	-48.16	13.16	6.72	-0.1518	-0.337	-0.361	
0.36112	0.357948	0.965508	-53.55	12.25	7.56	-0.156	-0.3365	-0.3668	
0.354654	0.347212	0.969534	-56.35	13.02	8.68	-0.1445	-0.3186	-0.3746	
0.346358	0.320006	0.976976	-63.07	18.41	9.1	-0.1517	-0.3178	-0.3774	
0.33733	0.288774	0.983686	-68.39	15.12	12.25	-0.1578	-0.2982	-0.3774	
0.33306	0.247904	0.985516	-74.2	18.76	13.16	-0.1482	-0.2879	-0.3954	
0.31903	0.218136	0.985882	-80.15	19.67	13.44	-0.1551	-0.2713	-0.4072	
0.317566	0.184952	0.98149	-86.45	22.75	14.42	-0.1603	-0.2645	-0.3982	
0.304756	0.161528	0.959164	-90.93	22.75	14.63	-0.1431	-0.2581	-0.4194	
0.29402	0.13725	0.938058	-94.08	23.94	15.19	-0.1509	-0.2318	-0.4312	
0.286212	0.103822	0.945866	-99.05	26.32	14.07	-0.1436	-0.2325	-0.4329	
0.269742	0.062952	0.917928	-104.23	24.43	13.37	-0.15	-0.2064	-0.4432	
0.257176	0.021106	0.885842	-107.94	24.85	12.11	-0.1497	-0.1937	-0.4463	
0.237046	-0.009272	0.858392	-109.9	24.78	11.06	-0.1423	-0.1769	-0.4539	
0.232654	-0.07076	0.83448	-112.91	23.66	9.24	-0.1412	-0.1564	-0.4571	
0.21899	-0.12139	0.809714	-111.3	25.83	7.84	-0.1363	-0.1457	-0.4617	
0.19337	-0.169336	0.790926	-108.22	25.62	3.71	-0.1386	-0.1185	-0.4677	
0.173728	-0.249734	0.760914	-111.65	22.75	2.87	-0.1409	-0.1054	-0.484	
0.170312	-0.291702	0.729316	-109.97	20.58	1.82	-0.1446	-0.0829	-0.4722	
0.154208	-0.334524	0.690154	-110.74	19.53	0.63	-0.1348	-0.0824	-0.4636	
0.119804	-0.416996	0.677344	-109.69	17.57	-1.05	-0.1307	-0.0605	-0.4772	
0.10492	-0.454084	0.68625	-110.25	12.11	-3.15	-0.1392	-0.0453	-0.48	

0.117608	-0.529358	0.684908	-110.39	7.98	0.14	-0.1299	-0.0066	-0.4716	
0.097234	-0.542412	0.655018	-112.21	6.72	1.82	-0.1278	0.0185	-0.4748	
0.146766	-0.582306	0.622566	-114.17	8.4	5.32	-0.1315	0.0252	-0.4674	
0.115778	-0.601948	0.603168	-109.2	10.43	8.4	-0.1351	0.0477	-0.463	
0.130296	-0.630008	0.585844	-115.29	8.4	13.65	-0.1241	0.0737	-0.4782	
0.111752	-0.679052	0.567666	-113.33	8.61	13.44	-0.126	0.07539999	-0.4649	
0.10187	-0.720288	0.527162	-104.23	13.37	12.81	-0.1312	0.0997	-0.462	
0.070882	-0.780434	0.507276	-105.77	10.57	12.6	-0.1338	0.111	-0.4546	
0.068442	-0.806908	0.476166	-101.15	8.89	11.06	-0.1283	0.1279	-0.4489	
0.042578	-0.81801	0.44957	-90.44	14.07	11.69	-0.1299	0.1472	-0.4549	
0.014152	-0.848876	0.439322	-92.89	7.84	10.92	-0.1329	0.16	-0.4372	
0.031842	-0.8784	0.41236	-94.64	5.46	14.56	-0.1266	0.1689	-0.4345	
0.005368	-0.870104	0.390156	-74.62	14.84	13.65	-0.1239	0.1861	-0.4287	
0.014152	-0.859612	0.401258	-73.71	7.77	11.34	-0.1242	0.2035	-0.4244	
0.006832	-0.837042	0.366732	-62.09	7.28	12.04	-0.1172	0.2203	-0.4188	
0.019642	-0.835456	0.35563	-61.39	4.13	16.17	-0.1188	0.2204	-0.4114	
0.03721	-0.885598	0.355508	-71.12	-3.08	19.04	-0.1138	0.2278	-0.4071	
0.03233	-0.908046	0.344162	-63.56	-1.54	19.04	-0.122	0.2365	-0.3981	
0.02196	-0.895602	0.328424	-56.63	2.1	18.2	-0.1203	0.249	-0.3967	
0.009638	-0.870714	0.338062	-59.15	4.69	19.18	-0.1075	0.2476	-0.3837	
-0.0061	-0.915122	0.300242	-53.55	8.82	16.8	-0.1168	0.2691	-0.3792	
0.029646	-0.945988	0.330742	-56.91	8.47	17.29	-0.1104	0.278	-0.3809	
0.003416	-0.914512	0.305	-41.65	13.02	15.47	-0.1167	0.2802	-0.3675	
-0.012566	-0.913414	0.2562	-44.66	10.99	14.21	-0.107	0.2872	-0.3737	
0.00732	-0.938424	0.261202	-49.84	10.71	17.15	-0.1091	0.2905	-0.3618	
-0.023424	-0.94428	0.241682	-39.48	13.79	14	-0.0982	0.2973	-0.3621	
-0.033184	-0.94672	0.201788	-44.66	12.95	14.14	-0.104	0.2995	-0.3664	
-0.008417999	-0.928054	0.202276	-44.87	9.03	13.65	-0.0957	0.3002	-0.3563	
-0.02684	-0.953552	0.191052	-38.92	12.18	11.2	-0.0971	0.3146	-0.3534	
-0.048434	-1.018212	0.168726	-49	0.63	13.93	-0.0786	0.3175	-0.3524	
-0.05063	-1.012356	0.157868	-39.83	-0.98	12.88	-0.0883	0.3121	-0.3477	

-0.065148	-0.965874	0.152378	-22.96	0.98	7.14	-0.0827	0.3241	-0.3258	
-0.030622	-0.99125	0.153842	-27.37	-2.87	8.96	-0.0882	0.3231	-0.3345	
-0.031354	-1.01626	0.131394	-28.14	-4.97	8.82	-0.0839	0.321	-0.3242	
-0.040016	-1.013942	0.123952	-20.72	-4.62	6.93	-0.0881	0.3341	-0.3183	
-0.0427	-0.99674	0.144204	-16.73	-3.36	5.11	-0.08679999	0.3356	-0.3198	
-0.019764	-0.992104	0.154818	-12.39	-0.28	3.22	-0.0844	0.3401	-0.3184	
-0.043676	-0.97783	0.138958	-8.33	0.91	1.68	-0.0948	0.3427	-0.3137	
-0.051484	-0.968436	0.122122	-13.65	-3.64	4.2	-0.0849	0.3306	-0.3213	
-0.041846	-0.98759	0.12139	-16.03	-5.6	5.88	-0.08769999	0.3293	-0.3198	
-0.055632	-0.981368	0.109556	-14.91	-6.72	6.23	-0.0905	0.3422	-0.3094	
-0.072102	-0.965996	0.112118	-13.93	-7.07	5.67	-0.0891	0.3437	-0.3154	
-0.044896	-0.970266	0.130052	-7.49	-2.94	4.76	-0.07889999	0.3411	-0.3097	
-0.000488	-0.981124	0.156648	-7.63	-1.19	4.41	-0.0859	0.3386	-0.308	
-0.03477	-0.96929	0.141154	-16.38	-3.92	5.18	-0.0844	0.3352	-0.2992	
-0.05063	-0.989786	0.115168	-22.89	-5.6	7.28	-0.0856	0.3496	-0.3037	
-0.015128	-1.049566	0.094184	-23.73	6.23	6.09	-0.0797	0.3474	-0.3023	
-0.076006	-0.971852	0.05978	4.2	6.23	-2.59	-0.07539999	0.347	-0.2965	
-0.054412	-0.991982	0.106872	4.13	6.58	-0.84	-0.0817	0.354	-0.3023	
-0.09333	-0.991494	0.110288	-4.2	-1.26	2.1	-0.07889999	0.3553	-0.3054	
-0.072834	-1.017358	0.10431	-12.81	-8.19	7.14	-0.0781	0.3457	-0.3009	
-0.061122	-1.035292	0.0732	-10.15	-8.89	7.77	-0.0807	0.357	-0.2965	
-0.07076	-1.003328	0.090402	1.12	-7.56	4.48	-0.0771	0.3487	-0.2921	
-0.06954	-0.984418	0.092598	3.64	-5.39	2.31	-0.0846	0.351	-0.2919	
-0.076494	-0.975878	0.093818	-1.96	-8.96	3.36	-0.0821	0.3572	-0.2964	
-0.067588	-0.992592	0.085522	-1.89	-8.75	2.52	-0.07539999	0.3612	-0.2922	
-0.072346	-0.999424	0.08418	0.84	-8.89	1.19	-0.0852	0.3591	-0.2964	
-0.09089	-0.996252	0.085278	1.75	-8.05	1.89	-0.0837	0.3573	-0.2934	
-0.094916	-1.01321	0.08295999	1.96	-5.25	3.5	-0.0846	0.351	-0.2919	
-0.086132	-1.007232	0.083326	4.76	-6.51	1.75	-0.0881	0.3594	-0.2948	
-0.059048	-0.98759	0.090036	9.03	-4.41	0.21	-0.0828	0.3493	-0.2993	
-0.063196	-0.99918	0.082594	4.76	-5.6	1.12	-0.0808	0.3586	-0.2965	
-0.10126	-0.999058	0.088694	3.85	-6.72	1.12	-0.083	0.3509	-0.2964	
-0.08723	-0.987468	0.090646	8.05	-3.57	-1.61	-0.0805	0.3571	-0.3024	
-0.063196	-0.982344	0.09272	8.4	-2.1	-3.22	-0.0818	0.354	-0.2979	
-0.06954	-0.989298	0.08906	4.97	-2.94	-2.31	-0.0945	0.3521	-0.302	
-0.097234	-1.000278	0.087108	4.48	-2.03	-1.26	-0.0829	0.3493	-0.2964	
-0.104676	-1.003206	0.090402	7.49	0.56	-2.24	-0.0821	0.3413	-0.2993	
-0.107482	-1.003328	0.088328	8.05	1.89	-3.29	-0.0905	0.339	-0.2976	
-0.088938	-0.992958	0.090158	10.71	2.24	-5.95	-0.0848	0.3416	-0.3066	
-0.065148	-0.995642	0.092354	12.95	4.27	-9.31	-0.0783	0.3505	-0.3083	
-0.052216	-1.021384	0.101138	9.66	3.92	-10.36	-0.0906	0.3581	-0.308	
-0.064416	-1.039684	0.10919	12.67	5.67	-12.32	-0.084	0.3495	-0.3082	
-0.083326	-1.057618	0.105774	10.71	4.76	-12.18	-0.0836	0.3305	-0.3139	
-0.08601	-1.072868	0.13603	13.51	4.9	-12.88	-0.08859999	0.3389	-0.3168	
-0.133102	-1.020774	0.162382	25.62	1.54	-12.04	-0.0968	0.335	-0.3225	
-0.05368	-1.05713	0.194834	11.06	4.06	-8.75	-0.09209999	0.3298	-0.3182	
-0.034038	-1.008086	0.14579	25.27	6.44	-7.21	-0.102	0.3276	-0.3179	
-0.067588	-1.024922	0.170556	21	-0.77	-4.34	-0.092	0.3298	-0.3211	
-0.059414	-1.012722	0.165432	23.03	0.07	-4.06	-0.0881	0.3199	-0.3271	
-0.033672	-0.98942	0.155306	29.47	3.64	-7.21	-0.1033	0.331	-0.3341	
-0.014762	-0.97417	0.170312	38.5	7.84	-13.44	-0.1014	0.3277	-0.343	
0.01098	-0.973682	0.18056	42.84	6.02	-17.71	-0.0918	0.3156	-0.3373	
0.045994	-0.980148	0.181902	41.58	4.06	-16.66	-0.0975	0.3178	-0.346	
0.047336	-0.984296	0.15189	37.73	-0.14	-15.89	-0.0988	0.3005	-0.3459	
0.027938	-0.986736	0.147742	37.87	-5.81	-14.42	-0.0957	0.2969	-0.3415	
-0.061	-0.986614	0.18727	37.66	-11.69	-15.05	-0.1017	0.3024	-0.3532	
-0.07198	-0.954894	0.193248	47.39	-13.09	-15.82	-0.1105	0.2906	-0.3618	
-0.078568	-0.917196	0.205204	45.64	-22.68	-13.58	-0.1127	0.2829	-0.3646	
-0.079666	-0.950502	0.221674	51.87	-24.92	-10.92	-0.1142	0.2863	-0.372	
-0.01769	-0.925736	0.262422	69.86	-17.85	-12.32	-0.1176	0.2788	-0.3837	
-0.106872	-0.92659	0.206912	76.3	-14.98	-11.69	-0.1153	0.2674	-0.3763	
0.011956	-0.927322	0.248026	51.59	-20.51	-9.17	-0.1175	0.2629	-0.3851	
0.053314	-0.939156	0.357338	52.22	-16.1	-12.81	-0.1237	0.2524	-0.3893	
0.129686	-0.85888	0.38491	72.1	-11.76	-16.45	-0.1195	0.2394	-0.3967	
0.09272	-0.796172	0.313906	94.92	-2.73	-19.67	-0.1317	0.2327	-0.4022	
0.106262	-0.79239	0.428586	77.14	1.4	-16.31	-0.148	0.2216	-0.4018	
0.121024	-0.73566	0.399916	78.05	-6.44	-11.62	-0.1264	0.2084	-0.4111	
0.07808	-0.722728	0.390888	72.52	-3.08	-10.29	-0.1355	0.1982	-0.4123	
0.044164	-0.778116	0.430172	70.07	4.34	-10.01	-0.1258	0.1894	-0.4243	
0.063928	-0.849974	0.420412	64.61	6.09	-10.5	-0.126	0.18	-0.4405	
0.018544	-0.78934	0.405162	85.82	12.39	-15.33	-0.1285	0.1755	-0.4374	
0.024156	-0.773846	0.429196	87.5	9.45	-14.49	-0.1284	0.158	-0.4388	
0.022936	-0.72956	0.469334	84.91	-8.89	-12.74	-0.1221	0.1367	-0.4373	
0.0549	-0.730902	0.497638	98.98	6.58	-17.01	-0.1291	0.1375	-0.4505	
0.074298	-0.664656	0.59353	104.3	15.19	-16.94	-0.1173	0.1205	-0.4566	
0.112728	-0.629154	0.635742	84.07	-13.3	-17.57	-0.1327	0.084	-0.4604	
0.148108	-0.647698	0.618662	82.04	-6.51	-21.63	-0.128	0.0677	-0.4707	
0.07869	-0.623298	0.620614	89.88	10.92	-28.77	-0.1347	0.062	-0.4705	
0.090524	-0.535824	0.680882	83.3	-0.7	-24.22	-0.1301	0.0425	-0.469	
0.09577	-0.53558	0.651968	79.59	-14.35	-23.66	-0.1146	0.0315	-0.4723	
0.090158	-0.523258	0.68076	85.4	-5.74	-27.51	-0.1281	0.0233	-0.4793	
0.104554	-0.46909	0.668194	86.59	-7.14	-26.32	-0.1294	0.0044	-0.4762	
0.135176	-0.471286	0.705648	82.04	-9.59	-23.8	-0.1223	-0.0089	-0.4807	
0.12688	-0.458842	0.728218	86.87	-7.42	-23.24	-0.1294	-0.0273	-0.476	
0.123708	-0.401624	0.76128	90.3	-8.54	-21.07	-0.1316	-0.0317	-0.4877	
0.15372	-0.396622	0.799222	89.6	-13.79	-18.55	-0.1293	-0.059	-0.4802	
0.151646	-0.348188	0.844362	94.36	-16.8	-15.54	-0.1279	-0.0766	-0.4727	
0.180194	-0.320616	0.880962	94.57	-12.81	-13.65	-0.132	-0.092	-0.4829	
0.18239	-0.289018	0.9028	92.68	-13.16	-9.24	-0.131	-0.0906	-0.4696	
0.198372	-0.229482	0.895968	95.83	-16.87	-7.21	-0.1364	-0.1107	-0.4693	
0.236802	-0.1769	0.940742	92.68	-13.02	-5.74	-0.1392	-0.1279	-0.4691	
0.223138	-0.156526	0.909876	86.1	-13.72	-2.8	-0.1294	-0.1575	-0.4647	
0.216916	-0.179096	0.892552	77.7	-17.85	-0.56	-0.1296	-0.1559	-0.4633	
0.198982	-0.148474	0.88023	71.54	-16.66	3.29	-0.1296	-0.1718	-0.4632	
0.246684	-0.078568	0.893894	68.25	-15.26	7.14	-0.1318	-0.1811	-0.4571	
0.291702	0.010858	0.937936	69.37	-10.01	9.38	-0.1445	-0.1863	-0.4494	
0.363194	0.119438	0.961238	77.14	-9.1	3.57	-0.1375	-0.1997	-0.4495	
0.31171	0.10553	0.932446	72.94	-12.46	-4.27	-0.1368	-0.2077	-0.4495	
0.28792	0.06649	0.948306	60.48	-12.95	-6.86	-0.1475	-0.2194	-0.4388	
0.302926	0.072468	0.939156	65.03	-10.15	-8.12	-0.1398	-0.2282	-0.4271	
0.302682	0.083692	0.987712	63	-10.08	-7.14	-0.1459	-0.2386	-0.4342	
0.296582	0.127246	0.996618	65.24	-10.43	-4.83	-0.136	-0.254	-0.4285	
0.298778	0.162016	0.98454	63.14	-14.56	-3.71	-0.1354	-0.262	-0.424	
0.314028	0.168726	0.994056	54.18	-19.6	-0.84	-0.1381	-0.2665	-0.415	
0.337696	0.199348	0.996862	56.21	-18.9	-1.4	-0.1464	-0.2705	-0.4133	
0.360998	0.216916	0.982954	53.2	-19.39	-0.84	-0.1482	-0.2847	-0.4058	
0.36356	0.228384	0.954772	46.9	-22.96	-0.63	-0.1446	-0.2978	-0.3881	
0.355386	0.22326	0.933178	46.41	-21.49	-1.33	-0.1528	-0.3018	-0.3908	
0.339526	0.212646	0.94672	39.83	-21.21	-1.12	-0.1494	-0.3068	-0.3938	
0.353434	0.211182	0.929884	40.6	-18.76	-0.35	-0.1538	-0.3081	-0.3833	
0.376248	0.2074	0.939888	38.71	-16.38	-0.14	-0.1577	-0.3157	-0.3758	
0.36478	0.221308	0.924028	39.83	-17.08	0.77	-0.1562	-0.3174	-0.3714	
0.352092	0.226432	0.932812	40.74	-16.03	0.21	-0.1583	-0.3251	-0.3742	
0.354776	0.248514	0.940986	42.63	-16.66	-0.07	-0.1578	-0.3316	-0.3698	
0.351116	0.26901	0.945744	37.59	-18.9	1.19	-0.1635	-0.3342	-0.3637	
0.361242	0.303414	0.954284	36.82	-16.24	2.03	-0.167	-0.3467	-0.3517	
0.387594	0.32208	0.964044	30.94	-14.77	2.73	-0.1647	-0.3564	-0.3502	
0.399062	0.339892	0.965508	30.73	-10.29	2.03	-0.1627	-0.3488	-0.3414	
0.416874	0.33672	0.95526	21.56	-11.97	2.87	-0.1703	-0.3464	-0.3368	
0.406626	0.34953	0.968802	22.19	-5.39	1.61	-0.1737	-0.354	-0.347	
0.424926	0.363804	0.951356	17.64	-5.88	2.52	-0.166	-0.3595	-0.3457	
0.418216	0.377102	0.958798	13.23	-0.84	1.61	-0.168	-0.3546	-0.3383	
0.415288	0.392108	0.939034	4.48	-0.42	2.59	-0.1682	-0.353	-0.3383	
0.418948	0.397476	0.953064	2.94	3.64	1.82	-0.1731	-0.3461	-0.3397	
0.422242	0.405528	0.94245	0.21	4.48	1.54	-0.1564	-0.3541	-0.3445	
0.424194	0.397964	0.956236	-5.18	5.04	1.33	-0.1695	-0.3545	-0.3368	
0.43798	0.414312	0.969534	-7.56	6.44	1.4	-0.1679	-0.3562	-0.3383	
0.446032	0.430294	0.98942	-10.29	8.47	1.47	-0.1613	-0.3489	-0.34	
0.445056	0.42883	0.999546	-15.54	8.61	1.82	-0.1677	-0.3578	-0.3398	
0.442616	0.428098	0.997472	-19.74	10.78	3.01	-0.1667	-0.3531	-0.3384	
0.439566	0.438468	1.000278	-23.1	12.39	3.78	-0.1654	-0.3468	-0.3562	
0.430782	0.436272	0.989176	-28.49	12.81	5.18	-0.1662	-0.3563	-0.3502	
0.419924	0.42517	0.997106	-35.63	14.49	6.58	-0.1622	-0.3503	-0.3562	
0.41663	0.402478	0.989054	-41.72	15.19	8.12	-0.1651	-0.3341	-0.3592	
0.400038	0.376736	0.994422	-48.23	16.1	9.38	-0.1619	-0.3343	-0.3696	
0.38674	0.362828	0.994788	-53.34	17.64	11.06	-0.1641	-0.3278	-0.3637	
0.379054	0.335988	0.981978	-61.25	17.08	12.04	-0.1609	-0.3154	-0.3624	
0.3721	0.285114	0.962092	-70.14	17.78	12.74	-0.1588	-0.3012	-0.3847	
0.365878	0.24888	0.949526	-78.61	15.54	14.14	-0.1605	-0.293	-0.4025	
0.353312	0.205082	0.959408	-79.24	18.76	13.65	-0.1642	-0.2847	-0.401	
0.330132	0.162626	0.96624	-83.3	23.1	14.21	-0.1637	-0.2594	-0.3982	
0.320982	0.142008	0.950136	-84.42	23.24	15.4	-0.1576	-0.2583	-0.4131	
0.32635	0.108458	0.949892	-88.55	24.64	14.7	-0.1537	-0.2364	-0.4193	
0.31232	0.095404	0.943304	-87.36	27.51	12.67	-0.1572	-0.2297	-0.4163	
0.30195	0.051362	0.964776	-93.59	30.66	11.62	-0.1566	-0.217	-0.4312	
0.309148	0.00915	0.930738	-98.35	31.43	12.67	-0.1503	-0.2065	-0.4343	
0.285968	-0.026718	0.869128	-97.79	30.38	14.28	-0.1557	-0.1916	-0.4417	
0.26047	-0.054534	0.864004	-96.95	33.6	13.02	-0.153	-0.1711	-0.4522	
0.222162	-0.08723	0.8418	-97.65	31.92	11.55	-0.1442	-0.1577	-0.4496	
0.20313	-0.127002	0.838384	-99.54	31.78	11.69	-0.1471	-0.1383	-0.4615	
0.188124	-0.145424	0.799222	-98.35	33.53	8.82	-0.1355	-0.1252	-0.4545	
0.174094	-0.194956	0.754814	-100.38	35.28	5.81	-0.1309	-0.1097	-0.465	
0.145302	-0.251808	0.75152	-99.54	35.07	0.35	-0.1291	-0.094	-0.4785	
0.100772	-0.319396	0.69418	-99.61	24.71	-0.91	-0.1249	-0.0769	-0.4772	
0.102114	-0.378078	0.687958	-102.27	23.38	-1.61	-0.1298	-0.0684	-0.4831	
0.087352	-0.416752	0.675758	-103.67	20.51	-4.69	-0.1315	-0.0525	-0.4757	
0.11834	-0.46909	0.681858	-106.82	14.56	-5.04	-0.1276	-0.0306	-0.4775	
0.12688	-0.509838	0.668804	-110.04	9.94	-4.9	-0.1244	-0.0182	-0.4761	
0.068808	-0.557784	0.621468	-113.26	11.55	-1.89	-0.1162	0.0031	-0.478	
0.064538	-0.597678	0.60756	-110.81	14.91	0.63	-0.1278	0.0185	-0.4763	
0.070638	-0.637572	0.616466	-111.58	15.4	2.52	-0.1249	0.0215	-0.4853	
0.07503	-0.672952	0.609146	-114.1	14.63	7	-0.1244	0.0594	-0.4722	
0.034038	-0.713334	0.573888	-116.9	10.01	11.48	-0.1158	0.076	-0.4726	
0.052094	-0.740052	0.526186	-114.24	8.54	12.67	-0.1199	0.0875	-0.4651	
0.062708	-0.735172	0.499468	-101.85	10.85	10.78	-0.1159	0.1061	-0.4609	
0.009638	-0.793	0.467382	-108.64	6.02	10.43	-0.1133	0.1249	-0.4611	
0.048434	-0.838506	0.457744	-100.66	7.77	8.33	-0.1206	0.1366	-0.4418	
0.060268	-0.820328	0.451644	-94.29	8.75	11.34	-0.1113	0.1452	-0.4421	
0.042578	-0.872056	0.43249	-93.31	7.77	11.9	-0.1238	0.1861	-0.4332	
0.007198	-0.862174	0.397354	-78.12	9.87	10.71	-0.1084	0.1893	-0.4292	
-0.008784	-0.867908	0.407846	-76.72	8.33	11.76	-0.1218	0.208	-0.4186	
-0.000244	-0.85949	0.36783	-71.47	6.02	13.65	-0.1156	0.2152	-0.407	
-0.00732	-0.86376	0.379176	-64.4	7	11.76	-0.1032	0.222	-0.4088	
-0.00427	-0.86864	0.383934	-64.75	2.87	11.62	-0.1147	0.2199	-0.3996	
0.03843	-0.897432	0.345748	-60.97	5.11	15.54	-0.1044	0.2348	-0.4044	
0.022082	-0.897554	0.352946	-57.47	4.83	15.4	-0.1033	0.2345	-0.3912	
0.004636	-0.89304	0.331474	-52.92	6.86	13.3	-0.1107	0.2527	-0.3896	
0.044408	-0.908412	0.330742	-47.74	16.52	9.87	-0.1028	0.2615	-0.3913	
0.019154	-0.913902	0.314028	-47.46	17.08	11.41	-0.1106	0.267	-0.3882	
-0.016958	-0.940498	0.292922	-48.86	14.77	12.88	-0.1011	0.2708	-0.3811	
-0.002318	-0.93818	0.271084	-49.77	14.7	15.82	-0.0947	0.278	-0.3724	
0.011712	-0.921954	0.281454	-40.88	17.01	11.83	-0.0973	0.2751	-0.3753	
-0.005124	-0.92171	0.271816	-36.96	20.23	9.24	-0.0884	0.2853	-0.3638	
-0.018422	-0.915732	0.245098	-33.53	17.01	8.19	-0.0841	0.2864	-0.3654	
-0.048556	-0.916098	0.25864	-44.24	7.42	12.04	-0.0773	0.2889	-0.3597	
-0.04209	-0.94306	0.222406	-42.56	8.19	12.39	-0.09209999	0.2903	-0.3489	
-0.046848	-0.954162	0.17446	-40.88	4.27	11.2	-0.0787	0.3033	-0.3553	
-0.04331	-0.97539	0.20008	-45.99	1.96	12.88	-0.0808	0.3066	-0.339	
-0.045628	-0.939766	0.16592	-34.65	2.73	11.97	-0.0809	0.3098	-0.3479	
-0.03904	-1.014186	0.153232	-40.95	-0.14	11.9	-0.0809	0.324	-0.3421	
-0.038796	-1.000522	0.163968	-36.68	-3.5	10.01	-0.07319999	0.3185	-0.3393	
-0.054778	-0.978196	0.159088	-24.01	0.21	5.74	-0.0764	0.3204	-0.3348	
-0.038918	-0.98393	0.16104	-24.29	-0.98	5.81	-0.0773	0.3283	-0.3259	
-0.034526	-0.973682	0.138714	-22.47	-1.05	4.34	-0.0707	0.334	-0.3246	
-0.036478	-0.960262	0.13847	-20.23	-3.01	1.75	-0.0668	0.3384	-0.3218	
-0.02989	-0.988444	0.121634	-24.78	-5.11	2.38	-0.07539999	0.336	-0.3171	
-0.042456	-0.986858	0.109312	-22.47	-5.53	1.75	-0.07759999	0.3425	-0.3097	
-0.074786	-1.001742	0.104188	-17.85	-6.09	0.98	-0.0742	0.3391	-0.3172	
-0.052826	-1.017968	0.108946	-14.49	-5.81	0.84	-0.0808	0.346	-0.3112	
-0.044042	-0.997106	0.122976	-10.71	-6.93	-0.56	-0.079	0.3411	-0.3067	
-0.090158	-0.97539	0.054046	-0.91	1.75	-5.18	-0.0728	0.3532	-0.3085	
-0.081374	-0.97051	0.113094	-4.9	-1.33	-5.11	-0.0758	0.3392	-0.3112	
-0.081008	-0.980636	0.111386	-8.19	-2.24	-3.57	-0.07669999	0.3488	-0.3113	
-0.03294	-1.01138	0.105408	-16.8	-7.84	-0.35	-0.0773	0.3536	-0.3054	
-0.032818	-1.019066	0.10248	-11.2	-7.56	-1.54	-0.0708	0.345	-0.2996	
-0.053558	-1.008208	0.095282	-6.09	-6.37	-1.68	-0.08109999	0.3476	-0.3008	
-0.051362	-1.00467	0.110776	-6.16	-7	-0.84	-0.08769999	0.3562	-0.3007	
-0.041236	-1.008452	0.099186	-5.04	-6.93	-0.98	-0.0944	0.3521	-0.305	
-0.055388	-1.000766	0.1037	-4.27	-8.47	-0.77	-0.0849	0.3559	-0.2963	
-0.061854	-0.988322	0.093818	-2.03	-5.74	-2.24	-0.092	0.3566	-0.305	
-0.040138	-1.0004	0.088084	-1.4	-5.46	-2.03	-0.0859	0.3545	-0.3081	
-0.02928	-0.999668	0.087962	2.87	-4.76	-1.96	-0.0891	0.3547	-0.2977	
-0.060024	-0.992226	0.08686399	0.21	-8.19	0.07	-0.09209999	0.355	-0.2932	
-0.06466	-1.00711	0.082228	-2.52	-8.54	2.52	-0.08549999	0.3464	-0.2933	
-0.052582	-1.012234	0.071736	0	-7.21	0.98	-0.0881	0.3435	-0.2977	
-0.059292	-0.98515	0.070882	7.14	-4.76	-2.52	-0.0884	0.3467	-0.2977	
-0.059292	-1.002596	0.074298	4.2	-2.87	-0.49	-0.0922	0.3423	-0.3005	
-0.05734	-1.011624	0.078446	6.16	-0.56	-2.03	-0.0849	0.3416	-0.3007	
-0.054656	-0.998204	0.090036	7.42	1.4	-3.57	-0.0882	0.3483	-0.2824	
-0.040626	-0.998814	0.093208	6.58	2.66	-2.73	-0.0992	0.359	-0.3123	
-0.044774	-0.994422	0.077348	6.58	2.94	-3.43	-0.0913	0.3486	-0.3035	
-0.04941	-1.000644	0.063196	4.41	-0.21	-4.2	-0.0894	0.3453	-0.3095	
-0.055266	-1.01504	0.068686	6.3	-1.89	-5.18	-0.0878	0.3435	-0.3095	
-0.065514	-1.025532	0.080154	9.52	-0.35	-6.3	-0.0928	0.352	-0.3139	
-0.065026	-1.036756	0.091744	13.02	3.92	-5.95	-0.08769999	0.3419	-0.3307	
-0.05185	-1.024434	0.094062	17.71	5.53	-7.35	-0.0979	0.343	-0.3078	
-0.032818	-1.00162	0.0915	18.06	4.41	-7.28	-0.0981	0.3462	-0.3093	
-0.02257	-1.008574	0.10492	19.32	6.51	-5.95	-0.0885	0.3373	-0.3153	
-0.02623	-1.038342	0.110898	16.66	7.56	-3.85	-0.0968	0.335	-0.321	
-0.09747799	-1.01992	0.110288	17.08	-5.11	1.12	-0.0982	0.3319	-0.3106	
-0.042822	-1.092022	0.158112	0.42	-7.77	4.69	-0.0937	0.3315	-0.3181	
-0.054046	-1.03517	0.16043	18.69	6.23	-3.29	-0.083	0.3257	-0.3198	
-0.05429	-1.006744	0.140056	24.5	12.6	-6.65	-0.0904	0.3313	-0.3345	
-0.00549	-1.01565	0.120902	25.27	14.84	-8.12	-0.0937	0.3331	-0.3241	
0.007686	-1.019188	0.138958	31.01	11.27	-9.66	-0.0869	0.3405	-0.309	
0.038186	-1.00101	0.163602	31.43	11.76	-10.64	-0.0919	0.3172	-0.3358	
0.01647	-0.953308	0.203618	35.28	11.76	-11.76	-0.0918	0.3156	-0.3373	
-0.0305	-0.924638	0.231068	34.79	7.14	-14.14	-0.0935	0.3063	-0.349	
-0.029158	-0.92842	0.230214	25.13	-3.01	-11.9	-0.0935	0.3063	-0.352	
-0.035136	-0.913658	0.219478	26.39	-9.59	-6.58	-0.0902	0.3028	-0.355	
-0.017568	-0.889502	0.232776	26.74	-14.98	-6.93	-0.0942	0.3127	-0.3461	
0.014518	-0.904996	0.252906	30.03	-16.1	-8.26	-0.1077	0.3046	-0.3531	
0.019642	-0.912194	0.259494	23.52	-19.81	-9.66	-0.1051	0.2949	-0.3378	
-0.00732	-0.916342	0.246684	25.62	-19.74	-12.32	-0.109	0.2905	-0.3633	
0.02318	-0.931958	0.258518	19.88	-20.37	-10.92	-0.1096	0.2953	-0.383	
0.011102	-0.88877	0.318908	22.96	-19.46	-8.05	-0.1076	0.2887	-0.3574	
0.036356	-0.864614	0.315614	32.83	-15.75	-12.18	-0.119	0.2899	-0.3419	
0.058316	-0.852658	0.278526	41.44	-7.56	-19.04	-0.1189	0.2883	-0.366	
0.054656	-0.901336	0.32086	30.73	-4.13	-14.98	-0.1246	0.273	-0.3717	
0.091378	-0.906094	0.349896	26.81	-3.5	-11.06	-0.1176	0.2755	-0.3718	
0.049776	-0.907558	0.382714	22.26	-2.73	-6.65	-0.1288	0.2735	-0.376	
0.051362	-0.869372	0.393816	24.85	-4.41	-7.84	-0.1226	0.2697	-0.3791	
0.058316	-0.90097	0.366244	25.48	-6.65	-4.62	-0.1304	0.261	-0.3833	
0.09516	-0.90524	0.386984	19.11	-13.23	-1.54	-0.1237	0.2651	-0.3775	
0.123342	-0.865834	0.384422	25.97	-16.52	-1.96	-0.1307	0.2626	-0.3759	
0.10797	-0.786656	0.391498	34.65	-17.99	-4.34	-0.1321	0.2644	-0.3832	
0.16287	-0.786656	0.425902	24.15	-14.77	-7.07	-0.1307	0.25	-0.3906	
0.179584	-0.830332	0.431392	22.4	1.19	-9.52	-0.1366	0.2505	-0.3875	

0.19642	-0.850218	0.482144	12.53	15.82	-8.26	-0.1417	0.248	-0.4051	
0.175558	-0.87596	0.477996	0.28	1.89	-3.57	-0.1227	0.2412	-0.3907	
0.133834	-0.903288	0.420534	-5.11	-3.36	-0.07	-0.1282	0.2402	-0.3965	
0.080886	-0.901702	0.406504	4.55	11.83	-0.7	-0.1367	0.2379	-0.3933	
0.07905599	-0.876936	0.401502	-3.71	10.22	2.66	-0.1277	0.2497	-0.3906	
0.112484	-0.851438	0.417972	-4.06	7.56	5.53	-0.1316	0.2437	-0.3861	
0.127734	-0.85705	0.43981	-4.76	9.1	6.23	-0.1263	0.2369	-0.4009	
0.14274	-0.86376	0.461892	-3.5	6.86	10.29	-0.1242	0.243	-0.3936	
0.152988	-0.883402	0.466528	-3.85	6.37	11.06	-0.1256	0.2432	-0.3966	
0.14213	-0.900726	0.464088	-1.19	9.8	12.32	-0.1259	0.2431	-0.3832	
0.120292	-0.938668	0.450912	-7.56	6.86	16.66	-0.1217	0.2475	-0.3937	
0.123464	-0.937448	0.42517	-2.73	11.41	20.58	-0.1133	0.2323	-0.3879	
0.086132	-0.925126	0.43249	4.41	20.3	21.98	-0.1146	0.25	-0.3998	
0.066002	-0.898042	0.411506	3.15	19.95	26.53	-0.098	0.2404	-0.3913	
0.065026	-0.905972	0.420534	-0.84	17.78	31.22	-0.108	0.2573	-0.4015	
0.066002	-0.891088	0.41236	3.36	18.27	34.09	-0.099	0.2374	-0.3987	
0.050752	-0.877302	0.419192	3.64	17.99	36.33	-0.0862	0.2409	-0.4064	
0.032086	-0.877058	0.426146	2.45	19.46	36.89	-0.0889	0.2522	-0.3946	
0.000854	-0.881816	0.409188	0.77	17.71	40.39	-0.0788	0.2528	-0.3978	
-0.030866	-0.91256	0.410774	0.21	18.41	42.28	-0.0746	0.2413	-0.4082	
-0.039894	-0.894382	0.394304	5.18	19.04	43.4	-0.0667	0.2468	-0.401	
-0.067954	-0.890722	0.408334	2.03	17.15	44.8	-0.055	0.2457	-0.4013	
-0.089792	-0.899872	0.394792	0.77	17.08	47.04	-0.0573	0.2396	-0.4042	
-0.11346	-0.886208	0.391986	3.01	17.36	49	-0.044	0.2525	-0.4046	
-0.133224	-0.882426	0.392108	1.96	17.57	50.96	-0.039	0.2457	-0.4061	
-0.150304	-0.875716	0.399184	3.22	19.46	52.36	-0.0286	0.2431	-0.4093	
-0.158844	-0.87169	0.409676	5.25	20.3	51.8	-0.0215	0.2566	-0.3978	
-0.18666	-0.860222	0.412848	7.77	19.88	51.52	-0.0213	0.2408	-0.4051	
-0.20557	-0.854976	0.41236	7.49	18.62	52.22	-0.009099999	0.2348	-0.4113	
-0.223016	-0.851194	0.401868	11.41	19.39	50.19	0.0014	0.2465	-0.4146	
-0.246318	-0.83875	0.404674	12.04	17.29	49	0	0.2324	-0.4189	
-0.265594	-0.833626	0.403332	10.22	16.66	49	0.0117	0.2439	-0.4163	
-0.28426	-0.830332	0.404674	11.55	17.36	46.41	0.0174	0.2307	-0.4208	
-0.2928	-0.828502	0.400404	11.48	16.87	45.71	0.0354	0.2384	-0.4198	
-0.310002	-0.817522	0.410408	13.23	17.99	42.91	0.0386	0.2365	-0.4243	
-0.329766	-0.8113	0.407968	9.24	17.01	39.34	0.052	0.2304	-0.4187	
-0.341478	-0.792024	0.409432	16.59	21.49	36.12	0.0437	0.2264	-0.4214	

-0.383324	-0.781166	0.41724	11.34	17.08	34.02	0.0679	0.2129	-0.4175	
-0.403332	-0.773602	0.412604	13.72	17.36	31.29	0.0809	0.2132	-0.4193	
-0.416874	-0.772626	0.416264	14.35	16.52	28.56	0.0802	0.2086	-0.4311	
-0.420046	-0.767868	0.415532	13.86	15.75	27.44	0.0932	0.2073	-0.4284	
-0.429928	-0.774334	0.422974	13.51	14.91	25.62	0.0853	0.2002	-0.4312	
-0.43615	-0.7564	0.426756	14.63	15.61	24.64	0.0981	0.1988	-0.4211	
-0.456158	-0.754448	0.440176	14.49	15.05	22.61	0.098	0.1862	-0.4284	
-0.462624	-0.740906	0.43981	14.21	13.3	21.77	0.1073	0.1964	-0.4332	
-0.462136	-0.738954	0.441762	12.81	12.25	21.07	0.1022	0.1889	-0.4315	
-0.477996	-0.737002	0.445178	13.86	13.44	20.02	0.1145	0.1956	-0.4289	
-0.482632	-0.73322	0.451766	13.65	14.35	19.18	0.118	0.1889	-0.429	
-0.498492	-0.72102	0.449692	13.86	15.75	18.48	0.1209	0.187	-0.4261	
-0.517158	-0.70089	0.450912	13.44	17.71	16.87	0.1227	0.187	-0.4394	
-0.527772	-0.70089	0.452742	12.6	16.59	16.38	0.1276	0.1801	-0.435	
-0.530334	-0.686738	0.433466	14	14.14	15.54	0.1336	0.1747	-0.4263	
-0.543388	-0.686982	0.442982	12.18	12.25	15.61	0.1354	0.173	-0.4352	
-0.551928	-0.678564	0.455304	11.9	10.01	15.61	0.1402	0.1677	-0.4353	
-0.563396	-0.659776	0.464576	11.62	8.19	14.56	0.138	0.1616	-0.4396	
-0.547658	-0.645502	0.458842	8.19	5.39	13.51	0.1438	0.161	-0.4368	
-0.540582	-0.643916	0.466528	7.35	3.85	10.08	0.1497	0.1588	-0.4369	
-0.544486	-0.630252	0.468968	6.93	2.45	6.37	0.1426	0.1738	-0.4354	
-0.544242	-0.625616	0.468724	4.83	0.77	2.73	0.1506	0.1635	-0.4311	
-0.55449	-0.65209	0.478728	0.7	-0.49	0.14	0.1496	0.1604	-0.437	
-0.578036	-0.660752	0.471774	2.24	0.84	-2.59	0.1473	0.1543	-0.4383	
-0.590968	-0.648552	0.472384	3.71	2.03	-5.88	0.151	0.157	-0.4251	
-0.59597	-0.639402	0.47153	2.03	-1.12	-8.96	0.1458	0.1703	-0.4354	
-0.589992	-0.636718	0.465918	0.49	-4.13	-12.11	0.1612	0.1609	-0.4432	
-0.58133	-0.63501	0.467138	-1.05	-7.7	-17.57	0.1378	0.149	-0.4425	
-0.577914	-0.646844	0.468724	-4.2	-10.29	-20.23	0.1395	0.1615	-0.4426	
-0.571692	-0.645868	0.454694	-3.5	-10.78	-23.17	0.1293	0.1625	-0.4394	
-0.575474	-0.639402	0.451766	-6.02	-13.58	-26.74	0.1283	0.1721	-0.4365	
-0.562542	-0.643916	0.461404	-9.73	-17.29	-30.94	0.1227	0.1711	-0.4393	
-0.535946	-0.647454	0.462014	-10.22	-19.74	-36.19	0.1287	0.1689	-0.4409	
-0.505568	-0.644404	0.458842	-9.52	-20.02	-41.09	0.1247	0.1804	-0.4365	
-0.460428	-0.656848	0.485316	-12.18	-18.34	-44.59	0.1037	0.1729	-0.4344	
-0.448228	-0.677466	0.475068	-10.22	-16.87	-48.93	0.0992	0.175	-0.4343	
-0.428708	-0.71919	0.469578	-17.01	-17.92	-50.96	0.0975	0.1958	-0.4433	
-0.425902	-0.734318	0.45811	-13.93	-19.04	-55.72	0.0878	0.1888	-0.4341	
-0.418704	-0.758352	0.469578	-19.04	-22.4	-57.96	0.0828	0.1956	-0.4311	
-0.410164	-0.763964	0.437126	-16.24	-26.81	-61.53	0.0768	0.1994	-0.4339	
-0.361608	-0.770918	0.426512	-20.3	-31.36	-62.79	0.0632	0.2055	-0.4321	
-0.312198	-0.76921	0.41724	-20.16	-34.93	-64.47	0.0511	0.2115	-0.4333	
-0.263642	-0.788486	0.43066	-24.22	-36.82	-65.1	0.0438	0.2122	-0.4317	
-0.221552	-0.842166	0.443836	-26.74	-37.31	-65.38	0.0244	0.2189	-0.4297	
-0.220698	-0.828624	0.418948	-18.62	-35.98	-68.53	0.0223	0.2238	-0.4194	
-0.178608	-0.826306	0.409676	-19.25	-35.7	-69.44	0.0026	0.2162	-0.4114	
-0.14762	-0.851316	0.408944	-16.52	-35.77	-71.05	0.0016	0.2307	-0.4263	
-0.117608	-0.842288	0.41297	-18.06	-36.4	-69.44	-0.025	0.2222	-0.4196	
-0.08601	-0.83387	0.412116	-17.5	-34.51	-68.81	-0.0288	0.2305	-0.4167	
-0.055754	-0.835456	0.395402	-19.11	-35.14	-68.11	-0.0364	0.2344	-0.415	
-0.038186	-0.848266	0.402234	-23.66	-39.69	-68.04	-0.0487	0.2403	-0.4029	
-0.012322	-0.865346	0.376126	-21.63	-40.11	-70.42	-0.0628	0.2386	-0.4099	
0.101748	-0.818986	0.338184	-18.55	-35.35	-68.67	-0.0758	0.2542	-0.4082	
0.026962	-0.85583	0.37027	-11.41	-28.42	-73.78	-0.0878	0.2585	-0.4065	
0.077836	-0.859368	0.33306	-19.25	-31.92	-67.62	-0.0959	0.2497	-0.3974	
0.074908	-0.89731	0.362584	-29.96	-35.21	-65.1	-0.1187	0.2505	-0.4086	
0.085278	-0.901092	0.357338	-19.95	-35.77	-66.29	-0.1205	0.249	-0.3893	
0.111874	-0.930006	0.356484	-23.66	-41.93	-64.12	-0.1354	0.2695	-0.3876	
0.141764	-0.912682	0.355752	-15.89	-45.01	-64.19	-0.1431	0.2416	-0.3798	
0.23668	-0.91134	0.356484	-18.27	-46.34	-57.12	-0.1661	0.2566	-0.3808	
0.249002	-0.91744	0.35136	-21.14	-45.57	-53.97	-0.1801	0.2516	-0.379	
0.290482	-0.91927	0.320128	-17.36	-39.13	-53.13	-0.1833	0.2519	-0.3686	
0.31537	-0.91378	0.341112	-14.98	-31.36	-48.93	-0.1986	0.2455	-0.3681	
0.32147	-0.895602	0.319396	-16.66	-30.66	-45.08	-0.1972	0.2421	-0.3534	
0.32452	-0.89975	0.308538	-16.66	-28.77	-44.38	-0.2086	0.2433	-0.3619	
0.357582	-0.912194	0.304268	-20.3	-29.12	-42.35	-0.2187	0.241	-0.3528	
0.374662	-0.896212	0.300242	-11.55	-25.97	-42.56	-0.2302	0.2406	-0.3555	
0.383446	-0.888404	0.288408	-7.14	-26.18	-43.19	-0.2399	0.2511	-0.3509	
0.39284	-0.876814	0.298778	-10.01	-27.51	-42.42	-0.2367	0.2459	-0.345	
0.38064	-0.835456	0.287432	-6.09	-24.36	-42	-0.2468	0.2437	-0.3373	
0.387106	-0.842776	0.26718	-7.35	-23.52	-43.75	-0.2551	0.2398	-0.3341	
0.407724	-0.843996	0.27206	-13.72	-27.79	-42.49	-0.2615	0.2309	-0.3354	
0.427	-0.850706	0.266814	-12.95	-27.37	-41.23	-0.2724	0.2383	-0.3322	
0.432612	-0.842532	0.26108	-10.78	-27.44	-41.51	-0.2745	0.2289	-0.3262	
0.44652	-0.832528	0.224846	-4.34	-21.98	-41.3	-0.2792	0.2326	-0.3276	
0.443592	-0.836676	0.203374	-6.3	-22.82	-39.97	-0.2863	0.2268	-0.3081	
0.44591	-0.84241	0.196908	-5.88	-24.78	-38.64	-0.2854	0.2188	-0.317	
0.445666	-0.84058	0.206302	-4.48	-26.25	-37.38	-0.2882	0.2159	-0.3095	
0.465186	-0.823988	0.203252	-1.61	-26.32	-36.89	-0.2955	0.215	-0.3034	
0.510814	-0.812642	0.198006	-0.42	-28.07	-36.89	-0.2983	0.201	-0.3136	
0.559126	-0.832284	0.211426	-7.7	-33.95	-35.21	-0.316	0.2027	-0.3013	
0.582428	-0.832162	0.221064	-5.11	-33.46	-31.78	-0.3191	0.203	-0.2968	
0.585844	-0.799588	0.228506	0.35	-28.49	-28.77	-0.3257	0.2116	-0.2923	
0.601338	-0.7808	0.198738	2.59	-24.71	-26.25	-0.319	0.2014	-0.2924	
0.594384	-0.785924	0.180438	2.38	-22.82	-25.34	-0.3282	0.1879	-0.2802	
0.61061	-0.772992	0.164334	1.47	-22.26	-22.12	-0.3377	0.1968	-0.2786	
0.61122	-0.778238	0.153842	0.98	-23.31	-21.77	-0.3356	0.1902	-0.2801	
0.628422	-0.804956	0.150426	-0.63	-24.64	-18.41	-0.344	0.1863	-0.2769	
0.642574	-0.80276	0.155916	1.75	-22.96	-16.03	-0.3374	0.192	-0.2741	
0.65697	-0.790926	0.157258	2.8	-19.39	-15.19	-0.3462	0.1786	-0.2753	
0.679662	-0.771284	0.146156	5.25	-13.86	-12.39	-0.3528	0.1839	-0.2618	
0.683322	-0.746396	0.149694	5.04	-11.97	-11.55	-0.3554	0.1667	-0.2705	
0.694058	-0.737124	0.149938	4.76	-8.89	-10.08	-0.3623	0.1801	-0.2704	
0.696376	-0.745176	0.141154	1.96	-7.77	-7.56	-0.3567	0.1795	-0.2647	
0.698938	-0.744444	0.142618	2.73	-4.55	-6.58	-0.3629	0.1707	-0.2704	
0.711626	-0.750544	0.15067	1.33	-1.05	-4.9	-0.3635	0.1771	-0.2704	
0.718458	-0.732854	0.160186	0.28	3.29	-2.8	-0.3577	0.1765	-0.2691	
0.706014	-0.71919	0.148108	3.64	8.26	-3.5	-0.3586	0.1735	-0.2794	
0.68015	-0.754814	0.12932	-1.05	5.88	-0.14	-0.3662	0.1725	-0.2629	
0.699914	-0.782508	0.140056	-7.84	3.36	6.3	-0.3575	0.1716	-0.2587	
0.72956	-0.76189	0.167994	-2.17	8.47	8.19	-0.345	0.1784	-0.2635	
0.724558	-0.747738	0.156404	2.38	12.11	9.94	-0.353	0.1745	-0.278	
0.700036	-0.759816	0.129198	1.26	11.69	14.7	-0.3457	0.1738	-0.2782	
0.66734	-0.784094	0.139446	0.14	12.04	20.3	-0.3459	0.1754	-0.2767	
0.685274	-0.802028	0.167506	-0.49	13.23	27.58	-0.3479	0.1819	-0.2782	
0.68442	-0.789584	0.201056	2.66	18.2	33.18	-0.3446	0.1927	-0.2769	
0.64538	-0.781532	0.17568	6.02	21.98	40.46	-0.3416	0.194	-0.2844	
0.631838	-0.803492	0.20069	-4.83	21.42	50.75	-0.3301	0.1945	-0.2847	
0.610122	-0.829844	0.213744	-0.21	29.54	58.31	-0.3345	0.1966	-0.2905	
0.592676	-0.82777	0.214354	7.21	39.9	64.47	-0.3272	0.2101	-0.2863	
0.578768	-0.80154	0.213012	6.51	44.8	66.5	-0.3181	0.2076	-0.2939	
0.50996	-0.827038	0.243024	-9.87	43.12	72.73	-0.3102	0.2196	-0.306	
0.478606	-0.890966	0.225334	0.42	47.81	75.53	-0.3015	0.2172	-0.3018	
0.464942	-0.869128	0.211426	5.88	51.24	74.62	-0.2913	0.232	-0.3021	
0.385154	-0.922198	0.214232	-0.91	46.06	72.31	-0.2772	0.2386	-0.3114	
0.376614	-0.926346	0.21899	-3.57	41.79	75.46	-0.2702	0.2411	-0.3131	
0.396988	-0.88999	0.247904	7.28	44.45	72.24	-0.2524	0.2537	-0.321	
0.361364	-0.868762	0.247172	13.37	46.69	69.44	-0.2434	0.2496	-0.3182	
0.310124	-0.870714	0.250588	9.03	40.04	69.72	-0.2283	0.2625	-0.3364	
0.27999	-0.884012	0.249734	5.25	35.07	70.21	-0.2268	0.264	-0.3424	
0.257054	-0.886452	0.247904	13.93	41.3	66.99	-0.2093	0.2622	-0.3443	
0.194346	-0.900116	0.252906	16.45	41.51	66.5	-0.1892	0.2651	-0.3508	
0.176778	-0.915488	0.272426	17.5	40.67	68.39	-0.1643	0.2626	-0.3588	
0.140544	-0.900482	0.281454	21.77	41.02	69.65	-0.1637	0.2737	-0.3648	
0.11285	-0.89548	0.297924	17.29	37.03	71.4	-0.1536	0.2727	-0.3621	
0.10736	-0.892918	0.312198	15.54	33.6	71.89	-0.1314	0.2673	-0.367	
0.102846	-0.892918	0.317322	20.16	35.56	70.56	-0.1254	0.2668	-0.3745	
0.068198	-0.88328	0.335866	22.4	35.91	68.74	-0.1174	0.2597	-0.3791	
0.034282	-0.861686	0.32269	22.4	34.02	66.99	-0.0982	0.2721	-0.3841	
-0.012566	-0.887672	0.338794	15.12	29.68	67.06	-0.09339999	0.2652	-0.3768	
-0.015006	-0.923174	0.361486	19.25	30.8	65.52	-0.0861	0.2661	-0.3844	
-0.04026	-0.86803	0.364292	26.53	31.99	65.52	-0.0741	0.2618	-0.3876	
-0.084302	-0.864614	0.36844	20.02	28.42	66.01	-0.0631	0.2703	-0.3968	
-0.179218	-0.897066	0.412116	19.74	26.04	63.35	-0.0509	0.2611	-0.3926	
-0.122854	-0.836554	0.33062	10.85	14.07	71.19	-0.0355	0.2659	-0.3901	
-0.183976	-0.841922	0.384056	18.55	18.06	65.94	-0.0348	0.2611	-0.4004	
-0.231312	-0.826306	0.376736	28.84	26.53	61.88	-0.0151	0.2512	-0.4038	
-0.22509	-0.823988	0.396256	20.51	23.59	60.62	-0.0101	0.2587	-0.3996	
-0.24644	-0.839726	0.399184	22.05	21.7	56.21	-0.002	0.25	-0.4056	
-0.24095	-0.823622	0.41419	25.55	23.59	52.29	0.0057	0.2444	-0.4088	
-0.27938	-0.817522	0.414312	23.45	23.24	50.82	0.0209	0.2366	-0.4091	
-0.285114	-0.807762	0.418704	19.53	19.25	51.17	0.0259	0.244	-0.4048	
-0.29219	-0.80703	0.415776	19.74	21.98	48.58	0.0339	0.2353	-0.4064	
-0.310246	-0.77531	0.412726	25.83	25.83	45.15	0.0417	0.233	-0.4199	
-0.33123	-0.77531	0.429318	19.11	22.05	45.85	0.0512	0.2274	-0.4349	
-0.35624	-0.769088	0.432368	16.38	18.48	45.15	0.0478	0.2292	-0.4201	
-0.36112	-0.767502	0.438956	15.05	18.27	42.35	0.0637	0.2134	-0.4218	
-0.374174	-0.759328	0.431758	15.33	17.22	39.55	0.06879999	0.2224	-0.4294	
-0.392108	-0.753106	0.426268	14.7	16.24	36.68	0.0729	0.2077	-0.425	
-0.41236	-0.756888	0.432612	13.51	16.17	35.07	0.09079999	0.2011	-0.4254	
-0.429318	-0.754814	0.43981	16.31	17.71	32.83	0.0858	0.2096	-0.4298	
-0.429684	-0.74481	0.440542	15.19	16.45	31.15	0.09559999	0.1959	-0.4255	
-0.452986	-0.742248	0.426268	15.68	18.48	27.23	0.1005	0.1907	-0.4285	
-0.451522	-0.739686	0.448106	17.5	22.75	25.76	0.1142	0.1846	-0.4347	
-0.452254	-0.725656	0.456158	17.29	26.04	24.36	0.1191	0.192	-0.429	
-0.466162	-0.717848	0.45384	17.36	29.75	22.26	0.121	0.1854	-0.4231	
-0.479704	-0.715408	0.456036	16.38	33.04	21.07	0.1358	0.1824	-0.4264	
-0.517158	-0.702598	0.4331	17.85	34.72	19.32	0.1336	0.1747	-0.4248	
-0.555588	-0.69601	0.424804	19.6	34.79	16.66	0.1467	0.1766	-0.4399	
-0.590846	-0.683932	0.40321	19.46	30.31	14.91	0.1465	0.1623	-0.4369	
-0.606584	-0.665998	0.419924	20.09	25.9	13.3	0.1425	0.1722	-0.425	
-0.62891	-0.638548	0.421998	21.56	22.26	9.87	0.1542	0.1552	-0.4296	
-0.617076	-0.629154	0.42944	17.71	15.54	8.4	0.161	0.1609	-0.4358	
-0.60451	-0.621834	0.452132	16.73	10.22	7.21	0.1685	0.1427	-0.4373	
-0.61488	-0.620248	0.455792	9.8	4.27	6.58	0.1652	0.1445	-0.4525	
-0.596458	-0.649772	0.471042	3.29	0.56	7.07	0.1731	0.1549	-0.436	
-0.61854	-0.659166	0.45567	4.41	1.05	5.25	0.1693	0.1489	-0.4329	
-0.629764	-0.659898	0.457378	3.71	0.84	4.27	0.1697	0.1457	-0.4374	
-0.616222	-0.643184	0.464942	4.06	-0.56	3.01	0.1687	0.1411	-0.4417	
-0.615734	-0.63379	0.467382	3.71	-1.05	1.4	0.1616	0.1577	-0.4476	
-0.598288	-0.62098	0.473116	3.64	1.05	-0.14	0.1669	0.1444	-0.4358	
-0.592798	-0.601826	0.479948	4.83	3.29	-3.5	0.1612	0.1418	-0.4297	
-0.603656	-0.591822	0.48068	2.31	2.31	-6.23	0.1657	0.1414	-0.4372	
-0.607438	-0.601216	0.467138	-1.68	-2.87	-9.59	0.1591	0.1499	-0.4327	
-0.60695	-0.608536	0.479582	-0.98	-3.36	-12.67	0.1585	0.1405	-0.4326	
-0.605242	-0.59658	0.48556	0	-3.92	-16.45	0.1634	0.1511	-0.4358	
-0.605242	-0.5917	0.485194	-3.71	-8.26	-19.04	0.1633	0.1527	-0.4387	
-0.60268	-0.602558	0.471896	-6.86	-12.53	-22.12	0.1579	0.1501	-0.4445	
-0.609024	-0.60268	0.462014	-5.67	-13.37	-26.81	0.1575	0.1549	-0.4445	
-0.58804	-0.618662	0.460794	-9.03	-15.96	-31.15	0.1487	0.1574	-0.4473	
-0.589382	-0.63684	0.458964	-10.15	-16.38	-34.51	0.146	0.1688	-0.4414	
-0.568886	-0.660752	0.456402	-13.51	-17.08	-37.73	0.1467	0.1624	-0.4428	
-0.537166	-0.660508	0.461526	-12.53	-17.01	-42.21	0.1398	0.1583	-0.4411	
-0.518134	-0.666242	0.44408	-16.52	-21.42	-49.14	0.1226	0.1694	-0.4304	
-0.490196	-0.675392	0.444568	-16.31	-22.61	-53.41	0.1091	0.1772	-0.4375	
-0.45811	-0.704062	0.447618	-18.97	-22.4	-57.4	0.1089	0.1804	-0.4375	
-0.448838	-0.732122	0.436272	-19.18	-25.06	-60.9	0.1055	0.1855	-0.439	
-0.419924	-0.76128	0.433222	-22.26	-28.21	-62.23	0.0922	0.1867	-0.4283	
-0.398818	-0.76311	0.43127	-21.14	-31.78	-63.56	0.0681	0.1987	-0.4292	
-0.371734	-0.774578	0.418094	-21.7	-36.12	-64.12	0.0645	0.2086	-0.4366	
-0.32513	-0.793854	0.417484	-27.86	-41.79	-65.52	0.0601	0.2074	-0.4291	
-0.27572	-0.804712	0.387472	-24.01	-42.42	-66.57	0.0407	0.2141	-0.4272	
-0.23546	-0.813374	0.421266	-27.79	-44.1	-65.94	0.0397	0.2221	-0.4168	
-0.21472	-0.822036	0.401258	-21.35	-42.77	-67.34	0.0242	0.2205	-0.4268	
-0.18849	-0.84912	0.385642	-25.41	-42.98	-67.55	0.0117	0.2296	-0.4191	
-0.154574	-0.860466	0.39223	-18.48	-42.84	-69.44	-0.0103	0.2334	-0.4157	
-0.128832	-0.86986	0.391864	-19.95	-43.33	-67.69	-0.0129	0.2305	-0.4156	
-0.105652	-0.856928	0.380518	-15.82	-44.45	-67.41	-0.0299	0.24	-0.4063	
-0.07137	-0.8357	0.391742	-16.8	-47.04	-65.66	-0.0355	0.2407	-0.4136	
-0.031232	-0.851804	0.371734	-15.4	-47.88	-65.17	-0.0563	0.2426	-0.3968	
0.008296	-0.87291	0.369904	-13.72	-47.18	-67.27	-0.0633	0.2434	-0.4085	
0.031598	-0.855098	0.370392	-12.46	-46.76	-66.15	-0.0746	0.2397	-0.4023	
0.05246	-0.846314	0.364414	-11.34	-46.97	-66.36	-0.0989	0.25	-0.3928	
0.112728	-0.887306	0.356972	-19.18	-51.17	-64.26	-0.09959999	0.2454	-0.4046	
0.114436	-0.867298	0.358558	-14.7	-50.19	-64.12	-0.1157	0.2579	-0.3821	
0.151158	-0.852292	0.337818	-11.62	-49.7	-66.01	-0.1309	0.2516	-0.3861	
0.214598	-0.854854	0.344284	-14.07	-50.61	-66.71	-0.1466	0.2499	-0.3857	
0.238754	-0.846802	0.324764	-10.99	-49.98	-66.36	-0.1573	0.2399	-0.3854	
0.295606	-0.884256	0.329888	-18.2	-49.21	-64.33	-0.1683	0.2473	-0.3733	
0.31598	-0.88755	0.355508	-12.6	-42.7	-64.4	-0.1792	0.2388	-0.3686	
0.318298	-0.88511	0.358314	-7.14	-38.92	-65.59	-0.1871	0.2459	-0.3669	
0.334158	-0.883158	0.338184	-10.22	-38.15	-58.59	-0.2013	0.2442	-0.368	
0.358314	-0.893406	0.359046	-15.26	-43.4	-58.38	-0.2111	0.2387	-0.3619	
0.364536	-0.878034	0.329034	-9.66	-40.25	-56.7	-0.2229	0.2224	-0.3481	
0.396378	-0.871568	0.318542	-13.72	-36.82	-55.02	-0.232	0.2281	-0.3539	
0.42761	-0.836798	0.320616	-11.83	-31.78	-54.53	-0.2481	0.2296	-0.349	
0.452498	-0.834236	0.314882	-14.56	-31.78	-52.57	-0.2506	0.2218	-0.3356	
0.439932	-0.832162	0.292556	-16.24	-32.76	-50.82	-0.2578	0.2226	-0.3369	
0.448472	-0.849364	0.277428	-18.27	-31.15	-48.79	-0.2674	0.2156	-0.3307	
0.466894	-0.845094	0.268156	-17.64	-31.29	-46.76	-0.2767	0.2196	-0.3231	
0.473238	-0.861076	0.243878	-17.71	-31.22	-46.27	-0.2893	0.2161	-0.3228	
0.477874	-0.868518	0.241316	-15.54	-31.64	-44.8	-0.3022	0.2126	-0.315	
0.50386	-0.861198	0.230946	-9.87	-27.86	-41.16	-0.297	0.2025	-0.3107	
0.512034	-0.845826	0.229726	-10.22	-27.23	-38.43	-0.3071	0.2178	-0.3105	
0.519354	-0.84424	0.215818	-11.2	-24.43	-35.35	-0.3056	0.1985	-0.2986	
0.539972	-0.82899	0.208986	-7.91	-21.07	-33.88	-0.3179	0.206	-0.2954	
0.564128	-0.811544	0.20801	-8.96	-21.42	-32.97	-0.3188	0.2014	-0.2998	
0.582794	-0.79849	0.197762	-6.37	-21.28	-32.27	-0.3296	0.1913	-0.2935	
0.584014	-0.784826	0.192394	-4.9	-20.02	-31.99	-0.3262	0.1862	-0.2965	
0.586332	-0.790682	0.182268	-3.15	-19.25	-31.78	-0.328	0.1879	-0.2876	
0.609634	-0.773846	0.177266	-1.26	-18.76	-29.33	-0.3297	0.1913	-0.292	
0.622322	-0.767136	0.16775	0.77	-17.36	-28.49	-0.3339	0.1726	-0.2844	
0.6405	-0.759694	0.155184	1.82	-18.76	-25.76	-0.3365	0.184	-0.28	
0.637816	-0.756034	0.162748	0.07	-19.6	-24.71	-0.3455	0.1881	-0.2813	
0.645868	-0.747494	0.158356	2.8	-18.55	-22.89	-0.3462	0.1786	-0.2768	
0.668316	-0.74725	0.157868	2.1	-17.01	-20.58	-0.353	0.1729	-0.2721	
0.688934	-0.742492	0.167262	1.54	-15.82	-18.2	-0.3561	0.1764	-0.275	
0.707356	-0.75152	0.16897	-1.75	-14.07	-14.63	-0.3592	0.1624	-0.2748	
0.725778	-0.749934	0.182878	0.21	-9.1	-13.3	-0.3546	0.1746	-0.2706	
0.72956	-0.75213	0.184098	-1.54	-7.77	-10.99	-0.3591	0.1592	-0.2674	
0.73078	-0.745664	0.166896	0.91	-4.62	-8.19	-0.3731	0.1558	-0.27	
0.712602	-0.717604	0.154818	8.47	2.8	-7	-0.3609	0.1482	-0.2717	
0.716384	-0.71614	0.138714	5.74	2.52	-3.01	-0.3754	0.1623	-0.2611	
0.719068	-0.739198	0.129808	2.66	2.59	-0.49	-0.3627	0.1532	-0.2747	
0.712724	-0.732732	0.140788	3.15	3.99	3.22	-0.3752	0.164	-0.2759	
0.71858	-0.732244	0.152988	1.05	3.78	7.35	-0.3667	0.1647	-0.2702	
0.712602	-0.731878	0.160552	1.33	4.55	12.04	-0.3624	0.1642	-0.2659	
0.6954	-0.723094	0.14823	8.61	9.24	13.16	-0.3642	0.1708	-0.2777	
0.684542	-0.718702	0.145912	7.63	8.33	17.01	-0.3538	0.1666	-0.275	
0.70211	-0.72651	0.1647	2.94	8.26	20.51	-0.351	0.1663	-0.2706	
0.706868	-0.721996	0.183	1.47	8.26	22.61	-0.3535	0.165	-0.2794	
0.707356	-0.741638	0.177876	-1.05	7.49	26.32	-0.3513	0.1711	-0.2766	
0.697962	-0.764208	0.178364	1.68	10.99	30.24	-0.3556	0.1716	-0.2765	
0.663192	-0.77775	0.185318	5.32	14.07	33.67	-0.3413	0.175	-0.2842	
0.651846	-0.797148	0.192028	4.9	16.45	41.23	-0.3428	0.1894	-0.2799	
0.630862	-0.81618	0.231434	0.35	20.58	49.7	-0.3394	0.1875	-0.2903	
0.622932	-0.814228	0.243268	2.73	28.63	57.19	-0.3348	0.1997	-0.2875	
0.617808	-0.803736	0.224114	5.18	34.23	63.49	-0.3302	0.1977	-0.295	
0.581208	-0.821304	0.230092	-2.73	34.72	70.56	-0.3139	0.2104	-0.2999	
0.55144	-0.8479	0.24034	-6.86	35.63	77.98	-0.3099	0.2132	-0.2942	
0.51179	-0.874984	0.255224	-6.93	40.39	82.53	-0.2995	0.2106	-0.3003	
0.490562	-0.866566	0.24827	1.19	46.76	81.9	-0.2947	0.2245	-0.3094	
0.383934	-0.871812	0.22692	11.06	49.91	73.43	-0.2804	0.2279	-0.3186	
0.36356	-0.895114	0.209474	1.4	41.51	74.06	-0.2627	0.2388	-0.3147	
0.360632	-0.906094	0.241804	1.54	39.76	73.71	-0.2552	0.2365	-0.3208	
0.344162	-0.881816	0.24339	11.48	41.58	72.73	-0.2516	0.2473	-0.3313	
0.300852	-0.873642	0.263032	11.69	41.02	71.54	-0.2258	0.2495	-0.3305	
0.273036	-0.876204	0.245586	15.47	39.48	69.44	-0.2237	0.2588	-0.3336	
0.257054	-0.87291	0.267058	17.5	38.85	66.22	-0.2098	0.2654	-0.3369	
0.236314	-0.887794	0.26779	19.39	40.67	64.4	-0.2022	0.2647	-0.3489	
0.21533	-0.868884	0.289262	21.42	41.72	64.75	-0.1956	0.2704	-0.3447	
0.178852	-0.888038	0.300852	16.87	40.6	65.52	-0.1694	0.2711	-0.3602	
0.145424	-0.88145	0.310246	19.18	41.93	66.29	-0.1678	0.2534	-0.3586	
0.127368	-0.88023	0.319152	17.15	41.23	68.39	-0.1613	0.2782	-0.3619	
0.098332	-0.886208	0.32086	18.34	40.25	66.5	-0.1472	0.2673	-0.3681	
0.07381	-0.89426	0.33123	17.99	38.57	65.52	-0.1259	0.2716	-0.3701	
0.057706	-0.901702	0.342454	14.77	36.68	66.5	-0.1189	0.2757	-0.3777	
0.018422	-0.889258	0.355996	17.15	39.06	65.73	-0.0969	0.2752	-0.3886	
-0.00183	-0.880352	0.363804	16.38	36.89	65.73	-0.0893	0.2696	-0.3843	
-0.035014	-0.87657	0.379664	21.21	37.73	63.42	-0.0716	0.2679	-0.3936	
-0.08686399	-0.848632	0.385886	22.82	37.45	62.72	-0.062	0.2733	-0.3954	
-0.126636	-0.849364	0.377468	20.51	34.3	63	-0.0479	0.2608	-0.3957	
-0.165188	-0.845948	0.380518	21.84	32.97	62.72	-0.0403	0.2569	-0.3944	
-0.18422	-0.840214	0.386374	15.61	28.98	62.86	-0.0331	0.2578	-0.3975	
-0.190686	-0.78263	0.39223	21	22.96	59.99	-0.009699999	0.2555	-0.404	
-0.228262	-0.824842	0.404552	12.46	24.36	60.27	-0.0049	0.2535	-0.4145	
-0.250588	-0.825696	0.410408	14.7	27.58	56.14	-0.0032	0.2485	-0.4071	
-0.267546	-0.813618	0.407358	17.08	31.22	52.92	0.0112	0.2328	-0.3862	
-0.281454	-0.8052	0.4148	15.54	29.61	51.17	0.0282	0.2359	-0.4093	
-0.303536	-0.777994	0.405284	18.13	28.7	48.58	0.035	0.2416	-0.3913	
-0.332816	-0.785924	0.393206	13.37	25.69	47.6	0.0331	0.2449	-0.4094	
-0.345504	-0.79361	0.39101	15.89	26.53	45.22	0.0478	0.2402	-0.4024	
-0.353556	-0.786656	0.409066	17.99	25.69	43.47	0.0643	0.2196	-0.413	
-0.37698	-0.794952	0.423218	15.75	22.33	40.81	0.0673	0.2193	-0.4146	
-0.388326	-0.771528	0.432124	20.79	23.66	38.43	0.0648	0.2197	-0.4337	
-0.394182	-0.768234	0.423218	17.29	20.3	36.47	0.0729	0.2236	-0.4251	
-0.394304	-0.780678	0.424682	15.33	18.76	35.63	0.0813	0.2116	-0.4282	
-0.407846	-0.78019	0.415532	18.97	19.67	33.32	0.0892	0.2045	-0.4298	
-0.428098	-0.765062	0.425536	20.86	19.39	31.57	0.0845	0.2082	-0.4297	
-0.445178	-0.744932	0.42883	21.56	19.25	30.8	0.0892	0.2013	-0.418	
-0.4575	-0.747494	0.421388	21.28	18.62	28.91	0.1104	0.1945	-0.4347	
-0.460672	-0.733342	0.435784	21.77	18.34	26.67	0.1182	0.1874	-0.4319	
-0.467992	-0.703696	0.441884	22.33	20.02	24.85	0.1204	0.1918	-0.4231	
-0.488976	-0.701744	0.448472	17.64	19.95	23.73	0.1204	0.1918	-0.4231	
-0.499224	-0.720898	0.455182	16.94	21.63	20.79	0.1283	0.1721	-0.435	
-0.519354	-0.70272	0.449692	15.19	21.07	20.09	0.118	0.1731	-0.4303	
-0.551074	-0.68625	0.44957	16.1	21.77	17.5	0.1427	0.1739	-0.4398	
-0.576694	-0.669414	0.45323	14.56	21.07	16.38	0.1427	0.1739	-0.4398	
-0.593164	-0.654286	0.43737	13.23	16.73	13.51	0.1541	0.1551	-0.4237	
-0.594018	-0.65636	0.446032	10.64	12.46	12.46	0.1467	0.1607	-0.4384	
-0.603168	-0.645624	0.444812	9.66	10.08	12.18	0.1559	0.1567	-0.4445	
-0.598044	-0.643306	0.436394	7.35	6.58	11.13	0.1631	0.156	-0.4432	
-0.575474	-0.656848	0.44774	5.32	3.5	10.08	0.1544	0.1568	-0.4444	
-0.593286	-0.650992	0.44164	6.79	2.66	8.19	0.1583	0.1596	-0.4372	
-0.585478	-0.649528	0.458964	4.62	2.87	6.86	0.1662	0.1541	-0.4432	
-0.573766	-0.639036	0.454572	5.25	4.13	5.04	0.1657	0.1572	-0.4373	
-0.571326	-0.642818	0.452986	2.52	2.38	3.29	0.173	0.1406	-0.4359	
-0.605608	-0.64294	0.436638	1.89	1.4	1.89	0.1683	0.1601	-0.4345	
-0.604144	-0.659776	0.447008	0.56	1.47	0.56	0.1708	0.1488	-0.4359	
-0.597312	-0.652944	0.447252	3.15	2.66	-1.47	0.1607	0.1498	-0.4416	
-0.591334	-0.651114	0.465918	2.38	4.41	-3.22	0.1683	0.1459	-0.4403	
-0.594262	-0.644038	0.459818	1.19	3.43	-4.27	0.1699	0.1425	-0.4344	
-0.593286	-0.650016	0.45323	0.42	2.17	-5.67	0.1647	0.1526	-0.4358	
-0.605486	-0.647088	0.441762	1.12	0.77	-8.12	0.1617	0.1561	-0.4446	
-0.583526	-0.659166	0.454816	0.35	-1.54	-10.15	0.1624	0.1448	-0.4327	
-0.598654	-0.651968	0.466162	-1.19	-1.89	-12.04	0.1675	0.1539	-0.4388	
-0.601704	-0.636474	0.457622	-0.28	-3.15	-15.4	0.1618	0.1512	-0.4313	
-0.590724	-0.62708	0.449204	-3.15	-6.86	-19.18	0.1618	0.1512	-0.4313	
-0.586576	-0.62586	0.440542	-5.18	-12.04	-23.52	0.1541	0.1568	-0.4326	
-0.572546	-0.635132	0.452986	-7.28	-14.98	-26.67	0.1552	0.1456	-0.434	
-0.575352	-0.643428	0.44835	-9.66	-16.1	-30.1	0.1379	0.1649	-0.447	
-0.573766	-0.661484	0.443714	-13.37	-17.5	-33.95	0.1447	0.1673	-0.4413	
-0.57828	-0.665632	0.448594	-12.46	-17.85	-39.13	0.1384	0.1727	-0.4382	
-0.564738	-0.670024	0.459086	-17.29	-21	-42.77	0.1313	0.1718	-0.441	
-0.535336	-0.662704	0.43493	-14.77	-22.33	-47.67	0.1164	0.1764	-0.4347	
-0.499346	-0.67161	0.438834	-16.59	-24.22	-52.15	0.1188	0.1826	-0.4393	
-0.472872	-0.681858	0.430294	-16.87	-27.58	-56.35	0.1012	0.1843	-0.4329	
-0.43432	-0.702842	0.451888	-23.45	-31.29	-59.01	0.0951	0.1897	-0.4387	
-0.408212	-0.730658	0.438102	-23.31	-33.95	-61.74	0.084	0.2003	-0.437	
-0.360388	-0.763964	0.438834	-25.69	-35.56	-62.44	0.0738	0.2013	-0.4383	
-0.32269	-0.787876	0.424438	-26.04	-36.82	-63.91	0.0628	0.2087	-0.4292	
-0.302682	-0.802394	0.416874	-24.15	-37.03	-66.64	0.0449	0.2169	-0.4332	
-0.278404	-0.804956	0.403576	-23.87	-40.18	-66.85	0.0401	0.2189	-0.4213	
-0.245586	-0.808128	0.398452	-22.61	-43.4	-68.39	0.018	0.2226	-0.4178	
-0.197152	-0.809836	0.390766	-22.96	-46.62	-67.41	0.0138	0.2373	-0.4193	
-0.171654	-0.823012	0.402356	-21.84	-47.81	-67.55	0.0025	0.2369	-0.4264	
-0.152134	-0.838018	0.38247	-17.71	-46.97	-67.48	-0.0172	0.2468	-0.4185	
-0.12322	-0.866444	0.39528	-19.18	-48.51	-67.76	-0.0246	0.2316	-0.4123	
-0.087596	-0.850462	0.400526	-15.68	-49.21	-68.81	-0.0346	0.2294	-0.4106	
-0.047946	-0.838994	0.373076	-14.56	-48.3	-69.3	-0.0529	0.255	-0.4315	
-0.005368	-0.857782	0.393084	-20.09	-47.25	-69.58	-0.0672	0.2549	-0.4085	
0.004392	-0.8479	0.382958	-14.91	-45.99	-73.22	-0.0762	0.2557	-0.3994	
0.044164	-0.850706	0.365634	-14.98	-45.08	-73.29	-0.091	0.2429	-0.393	
0.060756	-0.847412	0.36966	-17.78	-46.83	-72.94	-0.1029	0.2489	-0.4016	
0.086376	-0.85095	0.357216	-16.31	-44.59	-73.64	-0.1145	0.2452	-0.3865	
0.154574	-0.862662	0.362218	-14.98	-44.8	-73.43	-0.1313	0.2421	-0.3934	
0.211548	-0.86986	0.345138	-16.1	-47.32	-73.15	-0.1398	0.2365	-0.3799	
0.243268	-0.86803	0.346236	-11.9	-43.19	-74.97	-0.1745	0.2494	-0.3628	
0.265106	-0.842288	0.343186	-11.41	-40.74	-74.2	-0.1768	0.2433	-0.3642	
0.30927	-0.8723	0.347944	-20.51	-40.11	-72.31	-0.1968	0.2405	-0.3652	
0.328546	-0.877302	0.329034	-20.02	-40.25	-68.81	-0.1973	0.2437	-0.3548	
0.380762	-0.885354	0.327936	-22.05	-39.83	-67.83	-0.2176	0.2441	-0.3529	
0.38613	-0.90341	0.32635	-19.74	-34.44	-68.53	-0.2211	0.2365	-0.3572	
0.403332	-0.882426	0.293288	-14.14	-29.96	-67.27	-0.225	0.2289	-0.3481	
0.397354	-0.866688	0.292678	-13.37	-30.1	-65.66	-0.2462	0.2231	-0.3431	
0.41907	-0.888892	0.279258	-20.93	-35.91	-62.3	-0.2526	0.2284	-0.3371	
0.433954	-0.89731	0.267668	-19.39	-34.3	-58.59	-0.2594	0.2101	-0.3427	
0.460916	-0.85705	0.265106	-9.87	-28.63	-58.94	-0.2594	0.2101	-0.3427	
0.485682	-0.847412	0.235094	-17.29	-28	-56.42	-0.2727	0.2097	-0.3305	
0.539728	-0.838506	0.24583	-16.03	-25.76	-54.88	-0.2927	0.2212	-0.3198	
0.554002	-0.83631	0.233752	-10.92	-23.17	-53.83	-0.2927	0.2212	-0.3198	
0.550586	-0.836432	0.222284	-14.56	-24.78	-48.37	-0.2904	0.2098	-0.3138	
0.54534	-0.826428	0.20557	-8.47	-22.89	-46.27	-0.2982	0.1994	-0.3091	
0.547536	-0.825086	0.19154	-7.77	-21.42	-41.02	-0.3104	0.2054	-0.3044	
0.564738	-0.819474	0.186904	-8.12	-19.95	-36.05	-0.318	0.195	-0.3101	
0.572668	-0.782508	0.196786	-5.39	-18.06	-35.56	-0.3137	0.1962	-0.3117	
0.583038	-0.7747	0.186782	-4.97	-17.08	-36.33	-0.3284	0.196	-0.2995	
0.590602	-0.751276	0.193492	-1.89	-16.8	-33.67	-0.3287	0.1817	-0.2964	
0.622322	-0.750544	0.172996	-1.82	-21.56	-32.76	-0.3403	0.1845	-0.3035	
0.650992	-0.75274	0.186904	-6.37	-26.74	-31.43	-0.3308	0.1899	-0.2994	
0.655628	-0.749324	0.207034	-7.35	-26.25	-29.68	-0.3428	0.1751	-0.2827	
0.657092	-0.742736	0.191296	-1.68	-21.63	-28.56	-0.3327	0.1741	-0.2815	
0.650992	-0.742126	0.163114	-2.38	-19.6	-26.53	-0.3497	0.1726	-0.2855	
0.66917	-0.741272	0.152256	0.42	-18.55	-26.39	-0.3492	0.1678	-0.2884	
0.675636	-0.743468	0.1464	-1.4	-19.18	-23.87	-0.349	0.1614	-0.2766	
0.703208	-0.733342	0.156526	-1.33	-17.78	-22.75	-0.3573	0.1591	-0.2793	
0.745664	-0.727364	0.172142	-3.57	-16.52	-20.79	-0.3548	0.1636	-0.2794	
0.772626	-0.709796	0.184342	-1.96	-12.6	-19.95	-0.3619	0.1611	-0.2762	
0.770308	-0.702354	0.168604	0.07	-7.14	-18.69	-0.3665	0.1615	-0.2687	
0.766526	-0.720166	0.155428	1.05	-3.85	-14.98	-0.3674	0.1585	-0.2761	
0.747616	-0.724924	0.166164	-0.35	-1.19	-8.75	-0.3664	0.144	-0.2657	
0.754082	-0.693814	0.170678	-0.28	5.53	-2.66	-0.3648	0.1439	-0.2716	
0.734074	-0.677466	0.149938	6.02	11.76	-0.63	-0.3636	0.1469	-0.2746	
0.747616	-0.695278	0.125172	0.42	8.54	5.53	-0.3621	0.1436	-0.2643	
0.753228	-0.71919	0.145424	-5.74	5.18	11.41	-0.3703	0.1396	-0.267	
0.75213	-0.709186	0.181048	-1.61	9.24	12.04	-0.3615	0.1563	-0.2762	
0.75701	-0.700646	0.166286	-2.45	9.73	15.54	-0.3587	0.1592	-0.2837	
0.743468	-0.718702	0.162382	-4.2	9.87	18.62	-0.3573	0.1574	-0.2749	
0.715286	-0.723948	0.162992	-1.68	12.81	22.33	-0.356	0.1589	-0.2719	
0.693204	-0.752496	0.164578	-4.2	14.7	28.98	-0.3551	0.1668	-0.2824	
0.683078	-0.768722	0.17751	-1.47	18.48	35.77	-0.3474	0.1629	-0.287	
0.68137	-0.750178	0.18666	3.99	22.82	41.65	-0.3465	0.1675	-0.2811	
0.6588	-0.758596	0.174582	1.33	23.59	47.18	-0.3397	0.1891	-0.2844	
0.619516	-0.835212	0.226432	-3.43	24.43	54.53	-0.3377	0.1825	-0.2859	
0.606096	-0.848632	0.241194	5.53	36.4	62.65	-0.33	0.1961	-0.2965	
0.582794	-0.784582	0.211304	15.96	43.47	67.2	-0.3166	0.1933	-0.3042	
0.567666	-0.767624	0.24217	9.31	41.86	69.51	-0.3062	0.2082	-0.309	
0.51972	-0.75762	0.224602	12.6	41.23	67.48	-0.2998	0.1995	-0.3032	
0.471042	-0.814472	0.25071	3.85	34.65	69.16	-0.2955	0.2199	-0.3197	
0.432978	-0.809714	0.23912	3.01	26.32	69.16	-0.2795	0.2183	-0.3216	
0.395524	-0.859612	0.233996	5.32	25.76	59.01	-0.2709	0.2206	-0.3262	
0.34892	-0.835456	0.234118	9.24	25.27	53.34	-0.2699	0.2237	-0.3189	
0.347578	-0.833748	0.241438	8.26	22.33	50.89	-0.2594	0.2211	-0.328	
0.320372	-0.851072	0.235948	5.74	14.49	49.7	-0.2558	0.2286	-0.3267	
0.285114	-0.876814	0.236314	4.97	10.36	49.21	-0.2506	0.2377	-0.3357	
0.271572	-0.874252	0.239974	4.69	3.92	51.31	-0.236	0.2363	-0.3376	
0.258152	-0.895358	0.24217	1.26	-1.96	53.48	-0.237	0.2459	-0.3332	
0.25193	-0.906582	0.249246	1.96	-4.9	53.97	-0.2376	0.2523	-0.3317	
0.232776	-0.885232	0.242658	7	-4.97	52.5	-0.2291	0.2546	-0.3334	
0.228384	-0.908656	0.25498	4.06	-10.36	52.85	-0.2208	0.2602	-0.3381	
0.214476	-0.908168	0.235948	6.3	-13.44	52.08	-0.2128	0.2673	-0.3413	
0.187026	-0.904874	0.227042	10.15	-16.17	49.42	-0.2039	0.2665	-0.346	
0.177144	-0.90585	0.246684	8.33	-19.81	47.18	-0.2079	0.2588	-0.3325	
0.177998	-0.926224	0.252418	5.04	-21.28	46.13	-0.2063	0.273	-0.3297	
0.165554	-0.924882	0.246562	10.43	-19.74	43.12	-0.2019	0.2742	-0.3401	
0.178486	-0.884744	0.218746	12.88	-31.43	44.59	-0.201	0.2613	-0.3297	
0.120536	-0.956358	0.23973	5.6	-37.73	44.73	-0.203	0.2679	-0.3312	
0.133956	-0.95221	0.218868	11.34	-38.08	45.85	-0.1932	0.2717	-0.3315	
0.127246	-0.967582	0.243634	9.31	-41.09	47.18	-0.208	0.2763	-0.3326	
0.124318	-0.958554	0.241926	12.67	-44.8	47.46	-0.1948	0.2718	-0.3241	
0.125782	-0.959286	0.247782	12.04	-46.13	48.3	-0.1989	0.2849	-0.3255	
0.111508	-0.941474	0.225456	13.51	-52.71	51.1	-0.199	0.2865	-0.3255	
0.083326	-0.964898	0.223138	12.46	-55.09	52.15	-0.1967	0.2926	-0.3256	
0.097844	-0.958066	0.233264	14.28	-60.9	54.25	-0.2035	0.2869	-0.3195	
0.077226	-0.950868	0.197518	12.53	-68.11	53.9	-0.2012	0.2914	-0.3122	
0.084424	-0.947452	0.194346	12.25	-73.36	54.04	-0.1913	0.2936	-0.3139	
0.066246	-1.000278	0.227408	4.48	-76.58	57.68	-0.1986	0.2943	-0.3138	
0.07124799	-0.98271	0.234972	17.15	-73.57	55.02	-0.2071	0.2919	-0.3106	
0.074786	-0.921954	0.243146	19.6	-75.04	53.06	-0.1977	0.2973	-0.3035	
0.105042	-0.899506	0.224968	16.31	-76.3	52.01	-0.2025	0.3025	-0.3034	
0.080154	-0.916708	0.233874	16.45	-73.5	50.47	-0.2054	0.3187	-0.3019	
0.05917	-0.934154	0.26291	15.89	-69.51	48.86	-0.2095	0.3143	-0.2959	
0.05673	-0.908534	0.262178	14.84	-71.33	48.23	-0.2018	0.3088	-0.2946	
0.03111	-0.91683	0.24949	9.73	-75.53	46.27	-0.1992	0.3117	-0.2932	
0.04148	-0.947818	0.28914	10.43	-76.23	43.54	-0.2101	0.3191	-0.287	
0.044408	-0.92049	0.28487	15.47	-76.65	39.48	-0.2182	0.3103	-0.2764	
0.049044	-0.89548	0.296216	12.6	-76.58	38.29	-0.2134	0.3209	-0.2766	
0.05002	-0.903898	0.29158	10.43	-77.56	35.77	-0.2068	0.314	-0.2841	
0.051118	-0.93696	0.31049	5.81	-76.79	32.9	-0.209	0.3189	-0.2738	
0.068198	-0.927444	0.319762	10.85	-73.57	31.22	-0.2152	0.3226	-0.2707	
0.077714	-0.914146	0.336842	4.9	-77.14	32.83	-0.2232	0.3281	-0.2587	
0.09857599	-0.923174	0.344406	4.41	-73.92	33.25	-0.2214	0.3231	-0.2543	
0.081862	-0.912316	0.357704	7.63	-65.31	32.55	-0.2187	0.3261	-0.2558	
0.083082	-0.891698	0.348676	6.51	-62.86	29.54	-0.2264	0.3458	-0.2498	
0.095038	-0.903288	0.353068	4.27	-61.25	27.58	-0.2212	0.3358	-0.2514	
0.10492	-0.91927	0.349042	2.8	-56.91	25.2	-0.2212	0.3325	-0.2395	
0.073688	-0.944158	0.350628	4.62	-50.61	23.45	-0.2205	0.3404	-0.2381	
0.067588	-0.913536	0.363926	8.12	-45.99	23.52	-0.2233	0.3391	-0.2351	
0.056608	-0.920612	0.36966	6.16	-43.89	23.94	-0.2307	0.3414	-0.2379	
0.068808	-0.89548	0.379054	5.39	-45.01	25.69	-0.2181	0.3306	-0.2411	
0.060268	-0.894016	0.38003	2.1	-44.66	25.41	-0.2224	0.3295	-0.2365	
0.057096	-0.899018	0.391498	1.19	-44.31	24.64	-0.2291	0.3523	-0.2503	
0.055144	-0.86254	0.367952	0.07	-42.63	23.45	-0.2227	0.3453	-0.2248	
0.066856	-0.891088	0.378322	-2.87	-39.69	21.14	-0.2273	0.3489	-0.2247	
0.068808	-0.881084	0.390278	0	-32.27	17.5	-0.2246	0.3502	-0.2233	
0.062464	-0.88572	0.39528	-0.84	-27.16	15.19	-0.2258	0.3455	-0.2159	
0.054778	-0.894138	0.401136	-0.7	-22.47	12.6	-0.2219	0.3515	-0.219	
0.055998	-0.896456	0.406016	0.7	-19.11	11.62	-0.2227	0.3404	-0.2056	
0.046604	-0.896822	0.393206	-0.84	-19.46	11.76	-0.2194	0.356	-0.2205	
0.029524	-0.871934	0.38125	-0.56	-16.17	10.22	-0.2244	0.347	-0.2189	
0.041358	-0.900116	0.394426	-1.12	-12.67	9.03	-0.2199	0.3433	-0.2116	
0.048678	-0.902434	0.401136	-1.33	-9.8	7.77	-0.2208	0.3529	-0.2116	
0.045262	-0.879864	0.391864	1.4	-3.29	4.55	-0.2095	0.3566	-0.2164	
0.057462	-0.871934	0.391986	2.24	2.59	2.1	-0.2179	0.3559	-0.2235	
0.059414	-0.889502	0.375394	-1.61	5.25	0	-0.2154	0.3555	-0.2088	
0.027816	-0.89914	0.371612	1.54	9.45	-2.24	-0.2143	0.3602	-0.2089	
0.020984	-0.89121	0.38003	3.01	15.89	-3.29	-0.2136	0.3538	-0.2162	
0.02196	-0.883036	0.37149	2.73	20.44	-4.41	-0.2098	0.3456	-0.2237	
0.00244	-0.928298	0.362462	-3.01	20.09	-4.55	-0.2163	0.3509	-0.2117	
0.001708	-0.903532	0.37576	2.03	24.29	-6.79	-0.2104	0.3503	-0.2163	
0.033428	-0.89304	0.389302	-0.84	26.67	-7.49	-0.2156	0.3478	-0.2294	
0.078202	-0.91744	0.396134	-2.94	33.6	-10.57	-0.2083	0.347	-0.2281	
0.081252	-0.92232	0.368928	-0.28	40.74	-14	-0.2159	0.3477	-0.2161	
0.07515199	-0.920246	0.35929	0.49	46.34	-16.66	-0.2074	0.3533	-0.2297	
0.07442	-0.894504	0.343552	2.03	50.4	-19.04	-0.2109	0.3442	-0.2325	
0.09272	-0.889136	0.376492	2.8	56.42	-21.84	-0.2064	0.3421	-0.2296	
0.149328	-0.877302	0.413702	4.13	61.88	-27.37	-0.2031	0.3403	-0.2401	
0.204594	-0.863028	0.429074	5.25	68.67	-35.42	-0.2103	0.341	-0.2428	
0.21838	-0.844362	0.370026	4.48	75.81	-45.22	-0.2012	0.3386	-0.2534	
0.198982	-0.898408	0.31842	0.77	82.95	-52.43	-0.2088	0.3299	-0.262	
0.111508	-0.962458	0.276818	-0.63	90.44	-55.23	-0.1997	0.3258	-0.2681	
0.096014	-0.953796	0.284992	8.89	104.58	-55.02	-0.2149	0.3211	-0.2751	
0.09638	-0.94367	0.303658	7.28	109.76	-55.79	-0.2093	0.3221	-0.2708	
0.093696	-0.938546	0.252906	2.38	110.18	-57.47	-0.1984	0.3179	-0.2903	
0.165432	-0.905972	0.228262	5.81	121.38	-54.74	-0.197	0.3019	-0.2902	
0.042212	-0.94855	0.255956	14.77	131.11	-64.05	-0.1993	0.299	-0.302	
0.067832	-0.984052	0.293288	-4.69	117.6	-63.98	-0.1952	0.3034	-0.3065	
0.081984	-0.97905	0.265716	4.41	115.71	-64.19	-0.183	0.3008	-0.326	
0.046116	-0.95587	0.245342	4.97	116.2	-63.35	-0.1826	0.2976	-0.3319	
0.041968	-0.943792	0.258274	3.01	122.99	-61.11	-0.1813	0.2848	-0.3348	
0.020618	-0.949526	0.264862	4.48	127.89	-60.06	-0.1783	0.2862	-0.3467	
0.012078	-0.952576	0.284138	3.08	127.12	-58.59	-0.1733	0.2793	-0.3483	
0.034892	-0.945744	0.289506	1.68	127.05	-58.45	-0.1509	0.274	-0.3592	
0.018544	-0.90768	0.295118	4.34	131.39	-58.73	-0.1629	0.28	-0.3648	
0.02928	-0.9333	0.288652	-5.74	127.89	-61.74	-0.1488	0.2723	-0.3799	
0.042212	-0.96075	0.284626	-5.11	126.91	-64.12	-0.1337	0.2645	-0.3788	
0.080642	-0.950746	0.296094	-4.27	125.58	-63.77	-0.1324	0.2659	-0.3803	
0.059048	-0.90097	0.30317	-3.57	125.09	-63.35	-0.1198	0.2568	-0.3864	
0.028914	-0.889014	0.317932	-12.74	119.56	-62.3	-0.114	0.2562	-0.3881	
0.045872	-0.94977	0.276574	-24.92	112.14	-57.75	-0.1193	0.2679	-0.391	
0.050508	-0.956846	0.294386	-15.33	114.59	-57.61	-0.098	0.2579	-0.3973	
0.049898	-0.955016	0.306098	-9.66	114.59	-58.1	-0.09	0.2459	-0.3871	
0.028914	-0.936716	0.278526	-11.34	103.39	-54.95	-0.0808	0.2594	-0.4008	
0.028792	-0.940376	0.286822	-9.1	102.34	-52.01	-0.0749	0.2572	-0.3979	
0.03538	-0.909998	0.295362	-6.93	102.83	-50.19	-0.069	0.255	-0.3951	
0.06039	-0.93879	0.303536	-15.96	98.77	-49.07	-0.0504	0.2579	-0.4015	
0.073444	-0.956724	0.304512	-18.06	97.72	-45.29	-0.0442	0.2541	-0.4031	
0.052826	-0.950014	0.307318	-17.71	96.04	-47.39	-0.0535	0.2614	-0.4029	
0.031598	-0.948306	0.287554	-12.39	98.98	-51.38	-0.0414	0.2555	-0.4032	
0.02745	-0.950136	0.292556	-21.35	95.13	-47.81	-0.0379	0.2488	-0.4047	
0.043432	-0.950502	0.290604	-10.36	103.25	-45.57	-0.0288	0.259	-0.4021	
0.03721	-0.907314	0.309392	-7.84	96.81	-46.06	-0.0156	0.2544	-0.395	
0.041846	-0.944036	0.291214	-19.46	88.41	-45.57	-0.0196	0.2675	-0.3994	
0.006588	-0.946232	0.27877	-14.98	86.1	-44.94	0.0039	0.262	-0.3985	
0.004148	-0.95038	0.267546	-17.92	80.29	-41.51	-0.0033	0.2627	-0.3998	
-0.00244	-0.974658	0.277062	-19.88	78.12	-38.29	-0.005	0.2661	-0.3998	
0.01891	-0.980026	0.290116	-15.82	79.59	-34.23	0.0095	0.263	-0.3942	
0.0305	-0.9394	0.285724	-11.2	75.18	-33.04	0.0071	0.2728	-0.3942	
0.022936	-0.926834	0.278526	-13.02	69.02	-30.94	0.0116	0.2691	-0.3869	
0.01586	-0.939156	0.271816	-12.95	64.19	-29.26	0.0232	0.2695	-0.3901	
0.00915	-0.94001	0.2745	-11.55	63.7	-28.84	0.0254	0.2757	-0.3873	
-0.009516	-0.947452	0.259128	-11.2	59.5	-31.01	0.0291	0.2657	-0.3829	
0.015128	-0.97478	0.264496	-14.07	53.9	-29.89	0.0321	0.283	-0.3919	
0.000366	-0.981002	0.26047	-8.19	50.89	-26.81	0.0291	0.2832	-0.3859	
0.036112	-0.933544	0.276818	-4.27	48.65	-25.34	0.0416	0.2708	-0.3832	
0.03782	-0.939766	0.2928	-4.97	47.95	-24.08	0.0487	0.2717	-0.379	
0.068808	-0.936594	0.296338	-6.3	43.54	-24.08	0.0478	0.278	-0.3657	
0.04758	-0.943914	0.295362	-4.48	40.25	-24.36	0.0435	0.2818	-0.3819	
0.030622	-0.935618	0.296338	-3.78	38.5	-23.59	0.0507	0.2826	-0.385	
0.060268	-0.93818	0.304512	-1.33	35.7	-22.19	0.0474	0.2877	-0.3864	
0.018788	-0.942206	0.302804	-0.14	31.99	-20.86	0.0474	0.2845	-0.3731	
0.062464	-0.921832	0.3233	2.31	30.8	-19.88	0.0513	0.2746	-0.3776	
0.059292	-0.908534	0.328058	2.24	28.35	-19.04	0.0486	0.2875	-0.3746	
0.085522	-0.91378	0.328302	0.14	21.7	-16.8	0.0556	0.2884	-0.3704	
0.054778	-0.916586	0.318054	0.21	18.97	-16.45	0.0512	0.2921	-0.3792	
0.059414	-0.90585	0.317932	1.75	15.75	-15.33	0.0568	0.2915	-0.3719	
0.075884	-0.890844	0.315736	2.45	13.23	-14.98	0.056	0.2836	-0.3674	
0.0366	-0.920002	0.318054	-0.49	7.63	-13.3	0.0509	0.2794	-0.3791	
0.036234	-0.928176	0.333304	0.21	0.84	-10.29	0.0486	0.2876	-0.3761	
0.046482	-0.935984	0.339038	0.14	-3.43	-6.79	0.0599	0.2896	-0.372	
0.091744	-0.935862	0.332572	2.38	-4.83	-2.87	0.0525	0.2777	-0.3806	
0.071614	-0.935374	0.328424	3.43	-6.02	1.54	0.0502	0.2858	-0.3762	
0.065026	-0.928786	0.326594	5.53	-6.93	6.72	0.0462	0.283	-0.3775	
0.077348	-0.927444	0.324154	5.81	-8.33	10.92	0.049	0.2827	-0.3746	
0.084668	-0.9333	0.317688	6.65	-12.67	13.44	0.0461	0.283	-0.3746	
0.065392	-0.922076	0.323422	8.4	-19.11	14.98	0.0496	0.2796	-0.3879	
0.072224	-0.909998	0.335134	8.89	-22.89	15.96	0.0383	0.2759	-0.3817	
0.086498	-0.895114	0.337818	12.53	-22.82	15.82	0.0427	0.2771	-0.3892	
0.069662	-0.912194	0.32818	9.1	-29.12	18.83	0.0534	0.2681	-0.3806	
0.02196	-0.941474	0.341234	2.38	-46.2	24.92	0.0467	0.2783	-0.3834	
0.002806	-0.96197	0.301096	2.94	-50.61	29.54	0.0501	0.2748	-0.3879	
0.001952	-0.965264	0.272792	10.57	-47.74	31.71	0.0335	0.2844	-0.3964	
-0.024156	-0.962458	0.284138	9.45	-52.29	34.44	0.0426	0.2771	-0.3863	
-0.020374	-0.938912	0.292678	12.25	-56.98	36.75	0.0429	0.2755	-0.3922	
-0.02013	-0.966362	0.281332	12.53	-63	38.71	0.0328	0.2591	-0.3918	
-0.035014	-0.997838	0.30012	8.19	-70.42	43.75	0.0365	0.2524	-0.4007	
-0.019032	-0.965264	0.261202	15.89	-72.52	48.51	0.0314	0.2609	-0.4006	
-0.014152	-0.93635	0.27145	14	-77	52.01	0.017	0.2623	-0.4032	
0.042944	-0.949648	0.277062	10.08	-84.49	51.24	0.0228	0.2601	-0.3989	
0.017324	-0.92476	0.23912	10.29	-94.78	52.64	0.0117	0.2565	-0.4016	
0.01464	-0.92842	0.260592	-0.84	-102.27	54.39	0.0158	0.2593	-0.4047	
0.013664	-0.946476	0.232288	4.76	-105.84	50.82	-0.0007	0.2514	-0.4042	
0.049166	-0.948062	0.226676	2.45	-115.57	48.86	-0.004	0.2565	-0.4041	
0.05185	-0.95099	0.20923	6.09	-121.45	45.78	-0.0128	0.259	-0.4069	
0.0732	-0.978074	0.222528	9.94	-124.67	46.2	-0.0326	0.2672	-0.3961	
0.102236	-0.94977	0.231434	19.95	-126.35	45.57	-0.0403	0.2569	-0.3973	
0.121878	-0.926468	0.25742	17.15	-127.19	45.57	-0.0476	0.256	-0.3912	
0.145058	-0.923052	0.28792	11.76	-126.21	44.59	-0.056	0.2553	-0.3969	
0.153476	-0.924028	0.27938	13.79	-123.83	43.96	-0.07669999	0.2605	-0.3949	
0.147742	-0.92354	0.270718	13.09	-122.15	45.29	-0.08679999	0.2632	-0.4051	
0.066612	-0.942084	0.296826	13.3	-123.83	43.75	-0.0914	0.2652	-0.4005	
0.186172	-0.911218	0.288164	8.05	-128.59	49.63	-0.1008	0.2549	-0.3928	
0.157624	-0.890844	0.294508	21.56	-124.53	45.43	-0.1159	0.2612	-0.3881	
0.173362	-0.899994	0.320372	15.82	-120.12	44.1	-0.125	0.2669	-0.3879	
0.184098	-0.914634	0.310856	16.17	-116.2	43.47	-0.1335	0.2629	-0.4088	
0.146522	-0.93391	0.272548	12.74	-115.5	43.82	-0.1476	0.2563	-0.3695	
0.103334	-0.952332	0.264252	10.64	-115.78	46.13	-0.1526	0.2631	-0.3664	
0.070272	-0.96563	0.263764	11.69	-115.01	49.21	-0.1523	0.2615	-0.3753	
0.073566	-0.992104	0.295484	4.2	-112.91	55.51	-0.1709	0.2728	-0.3616	
0.113704	-0.948916	0.293288	7.56	-112.14	58.8	-0.1753	0.2733	-0.363	
0.11224	-0.924272	0.269254	9.31	-115.85	56.35	-0.174	0.2715	-0.3497	
0.115534	-0.948794	0.273158	3.22	-119.42	58.73	-0.1838	0.2835	-0.3481	
0.137128	-0.951844	0.283772	3.15	-117.46	58.38	-0.1794	0.2815	-0.3437	
0.158966	-0.927322	0.295972	10.57	-110.25	55.72	-0.192	0.2906	-0.3346	
0.149084	-0.918416	0.28853	7.14	-110.74	54.67	-0.1917	0.2858	-0.3287	
0.171776	-0.95038	0.286456	2.73	-105.21	56.28	-0.1901	0.2824	-0.3228	
0.157624	-0.935618	0.287798	2.17	-97.3	56.14	-0.2037	0.2869	-0.3121	
0.136274	-0.951844	0.285358	-5.39	-96.53	55.72	-0.2058	0.2934	-0.3091	
0.137372	-0.960994	0.275232	-7	-97.09	54.53	-0.2048	0.2948	-0.2988	
0.156648	-0.978074	0.308538	-4.62	-94.22	52.36	-0.2102	0.3032	-0.2854	
0.180682	-0.940498	0.324276	1.89	-91.21	50.61	-0.2093	0.3111	-0.2914	
0.173606	-0.935862	0.34587	-2.03	-88.97	49.63	-0.2078	0.3077	-0.2826	
0.167506	-0.91256	0.32147	-0.28	-85.19	47.11	-0.2138	0.3115	-0.2854	
0.159576	-0.920612	0.315614	-4.55	-81.76	45.36	-0.2137	0.3225	-0.2722	
0.147986	-0.93208	0.303658	-6.93	-81.27	42.91	-0.2204	0.331	-0.2632	
0.10675	-0.912194	0.285236	-2.45	-71.89	36.54	-0.2203	0.3278	-0.2558	
0.109068	-0.914878	0.297192	-1.75	-66.92	33.11	-0.2198	0.3356	-0.247	
0.111508	-0.911218	0.295362	-0.21	-63.91	31.92	-0.2217	0.3389	-0.2411	
0.1037	-0.930006	0.302438	-1.33	-62.93	30.87	-0.2269	0.3189	-0.2497	
0.08784	-0.899262	0.287798	3.15	-62.65	28.14	-0.2195	0.3467	-0.2426	
0.068076	-0.937814	0.306708	-3.08	-61.67	27.37	-0.2264	0.3393	-0.2276	
0.034648	-0.9333	0.28914	0.56	-57.75	27.02	-0.2209	0.3419	-0.2248	
0.039528	-0.923296	0.343918	-2.38	-53.2	27.79	-0.2269	0.3409	-0.2143	
0.053192	-0.917562	0.37027	-3.08	-49.21	25.76	-0.2238	0.3406	-0.2218	
0.062952	-0.933422	0.340502	-4.69	-46.97	24.43	-0.224	0.3564	-0.2115	
0.071858	-0.947696	0.337086	-6.86	-45.92	23.52	-0.2231	0.3485	-0.2204	
0.06771	-0.917684	0.365146	-1.82	-39.55	20.79	-0.2142	0.3427	-0.2102	
0.066734	-0.892796	0.358436	-1.54	-31.43	17.71	-0.2219	0.3483	-0.2071	
0.08845	-0.886818	0.37027	-3.71	-24.15	15.82	-0.2183	0.3542	-0.2028	
0.008174	-0.945866	0.358802	-1.26	-3.64	9.52	-0.2167	0.37	-0.2059	
0.036722	-0.910608	0.376736	-4.62	-10.57	9.45	-0.2181	0.3526	-0.2028	
0.013908	-0.913048	0.339282	-4.48	-8.19	8.82	-0.218	0.351	-0.1998	
0.002562	-0.90829	0.330986	-0.14	-1.68	7.07	-0.2183	0.3542	-0.2028	
0.01525	-0.881084	0.328912	5.18	3.71	4.27	-0.22	0.3592	-0.2087	
0.019642	-0.905484	0.33306	-2.59	3.01	2.94	-0.2153	0.3698	-0.2045	
0.030866	-0.899018	0.333426	2.38	8.89	-1.26	-0.2123	0.352	-0.2044	
0.047092	-0.900116	0.345748	0.49	13.51	-3.29	-0.2117	0.3615	-0.203	
0.03843	-0.934154	0.327814	-3.64	15.61	-4.62	-0.2212	0.3561	-0.2057	
0.042212	-0.915732	0.331108	1.68	22.33	-7	-0.2113	0.3599	-0.2119	
0.050874	-0.911828	0.354898	-1.54	26.04	-8.82	-0.2083	0.3597	-0.2164	
0.05612	-0.91805	0.351238	-0.28	30.59	-11.13	-0.2127	0.3585	-0.2089	
0.067466	-0.916952	0.359656	-1.68	36.54	-13.93	-0.2194	0.356	-0.2205	
0.085766	-0.908168	0.334524	-0.28	45.15	-16.45	-0.2191	0.3512	-0.2146	
0.093452	-0.936594	0.310734	-4.06	48.72	-16.87	-0.2088	0.3502	-0.2222	
0.118584	-0.977098	0.317566	0.91	56.21	-18.83	-0.2208	0.3529	-0.2131	
0.11346	-0.960994	0.31842	7.14	62.09	-23.66	-0.2113	0.3473	-0.2266	
0.16836	-0.919758	0.353922	17.99	78.19	-33.11	-0.2177	0.3417	-0.2367	
0.163968	-0.89487	0.28853	16.8	79.66	-38.43	-0.2117	0.3428	-0.2532	
0.143106	-0.935984	0.296704	11.83	85.68	-41.44	-0.2053	0.3358	-0.2518	
0.133102	-0.929396	0.267302	14.84	92.68	-44.66	-0.2059	0.3263	-0.2517	
0.091256	-0.967948	0.287188	13.37	96.32	-47.39	-0.2042	0.3262	-0.2621	
0.138104	-0.917928	0.264252	18.76	90.86	-47.95	-0.2072	0.3314	-0.2768	
0.11529	-0.948794	0.285358	18.76	101.71	-54.32	-0.1993	0.3243	-0.277	
0.125416	-0.92476	0.256688	23.31	107.17	-59.85	-0.199	0.3085	-0.2917	
0.115778	-0.94184	0.25681	11.55	103.46	-60.34	-0.2049	0.3106	-0.2915	
0.09516	-0.963068	0.259128	14.98	104.37	-63.42	-0.1939	0.3065	-0.3125	
0.05307	-0.997106	0.265228	11.27	108.71	-63	-0.2028	0.2931	-0.3136	
0.032452	-0.96868	0.272426	23.87	116.34	-65.94	-0.1878	0.2918	-0.3318	
0.085522	-0.932934	0.31842	21.07	122.5	-64.61	-0.1896	0.2825	-0.3405	
0.1098	-0.910852	0.330254	17.08	122.5	-62.79	-0.1854	0.2837	-0.3406	
0.122122	-0.883158	0.33794	13.79	125.37	-65.17	-0.1717	0.2776	-0.3498	
0.15128	-0.887062	0.327204	6.09	133.7	-68.25	-0.1679	0.2726	-0.3661	
0.15616	-0.892796	0.327936	1.12	139.09	-70.35	-0.1609	0.2608	-0.3736	
0.160918	-0.888648	0.352336	3.29	144.62	-77.77	-0.1494	0.2629	-0.3783	
0.153476	-0.908656	0.28609	-8.12	143.92	-78.54	-0.1468	0.2515	-0.3601	
0.154086	-0.900116	0.278038	-5.04	153.23	-82.18	-0.1346	0.2423	-0.3786	
0.120414	-0.91073	0.281454	-10.64	160.37	-84.7	-0.1261	0.2479	-0.3921	
0.09028	-0.954162	0.253638	-16.31	157.22	-85.4	-0.1176	0.2519	-0.3998	
0.069418	-0.947818	0.249002	-13.72	157.43	-87.22	-0.1059	0.2508	-0.403	
0.038918	-0.965508	0.270596	-15.33	157.64	-87.78	-0.0937	0.2432	-0.4033	
-0.00671	-0.997472	0.279136	-17.85	147.49	-83.3	-0.0743	0.2398	-0.417	
0.029158	-0.96258	0.290238	-1.89	142.45	-77.7	-0.0712	0.2521	-0.4142	
0.046116	-0.973682	0.285358	-19.32	129.92	-70.63	-0.0572	0.238	-0.4012	
0.023912	-0.940498	0.267302	-8.75	129.36	-66.78	-0.0512	0.2407	-0.4206	
0.077226	-0.93269	0.350994	-17.57	125.72	-62.72	-0.0356	0.2264	-0.4179	
0.05673	-0.917562	0.325862	-18.62	121.24	-57.12	-0.0284	0.2415	-0.4123	
0.033916	-0.952698	0.308416	-27.02	115.92	-56.49	-0.0266	0.2382	-0.4168	
0.040138	-0.944158	0.279746	-23.8	118.09	-56.7	-0.0057	0.2456	-0.4114	
0.01159	-0.919636	0.282064	-24.71	114.8	-55.65	0.0053	0.2476	-0.4014	
0.018422	-0.93757	0.262666	-30.73	100.94	-52.01	0.009	0.2377	-0.3999	
-0.04453	-0.966118	0.2745	-31.85	93.66	-49	0.0165	0.2529	-0.4091	
-0.066734	-0.968314	0.284504	-26.74	90.86	-47.6	0.0188	0.2557	-0.3973	
-0.066002	-0.983686	0.283528	-27.16	86.87	-42.14	0.0277	0.2691	-0.3976	
-0.044774	-0.958676	0.303902	-24.57	82.67	-39.2	0.0325	0.2782	-0.3919	
-0.071736	-0.952942	0.265106	-20.86	78.68	-37.66	0.0452	0.2674	-0.3966	
-0.02623	-0.9394	0.279502	-20.37	70.77	-35.91	0.0422	0.266	-0.3876	
0.008174	-0.957334	0.300852	-20.37	67.34	-33.81	0.0463	0.2688	-0.3907	
-0.027572	-0.947208	0.274012	-18.83	60.76	-31.5	0.0494	0.2812	-0.3864	
0.016592	-0.946476	0.300852	-20.72	53.83	-27.79	0.0504	0.2683	-0.3775	
0.01586	-0.936716	0.292434	-14.14	53.83	-27.37	0.0513	0.2746	-0.3805	
0.0122	-0.948672	0.27511	-14.84	47.95	-25.34	0.0528	0.2903	-0.3807	
0.015128	-0.944158	0.29097	-14.42	42.49	-23.17	0.0699	0.2727	-0.3647	
0.011956	-0.951844	0.294386	-10.92	40.32	-20.09	0.0632	0.2845	-0.3735	
0.058804	-0.92171	0.306952	-11.9	35.28	-19.81	0.0671	0.2905	-0.3781	
0.07991	-0.939644	0.305366	-11.97	30.66	-18.9	0.066	0.2858	-0.3751	
0.077104	-0.937936	0.305366	-11.55	25.97	-17.57	0.0611	0.291	-0.3676	
0.046848	-0.946842	0.312076	-12.04	23.31	-13.86	0.0785	0.2893	-0.3665	
0.051606	-0.938546	0.30805	-8.82	23.1	-12.18	0.0653	0.2906	-0.3633	
0.05246	-0.938546	0.310612	-8.33	20.65	-9.8	0.0711	0.29	-0.3619	
0.071858	-0.919026	0.29158	-4.83	17.08	-8.61	0.0661	0.2968	-0.3604	
0.090158	-0.912804	0.288042	-4.76	14.56	-9.17	0.0694	0.295	-0.3708	
0.025132	-0.959286	0.283894	-6.58	7.28	-6.51	0.075	0.296	-0.368	
0.000488	-0.964776	0.26291	-2.94	-1.47	-2.52	0.0762	0.2974	-0.3636	
0.015738	-0.95526	0.264008	1.33	-3.92	-0.07	0.0706	0.2964	-0.3634	
0.044652	-0.934398	0.283772	6.72	-3.64	1.26	0.0658	0.3	-0.3574	
0.080886	-0.93513	0.310856	3.29	-6.65	2.87	0.065	0.2938	-0.3633	
0.083204	-0.90768	0.300364	4.9	-10.78	4.13	0.0633	0.2955	-0.3559	
0.074664	-0.928786	0.300364	-0.49	-15.47	7.14	0.0704	0.2964	-0.3575	
0.101992	-0.903166	0.296094	6.44	-13.44	6.51	0.0744	0.3007	-0.3606	
0.067588	-0.935618	0.302926	3.71	-15.12	5.6	0.061	0.291	-0.3632	
0.022448	-0.95099	0.284504	3.43	-20.58	9.17	0.0619	0.2814	-0.3661	
0.008296	-0.970876	0.273036	6.79	-24.36	11.97	0.0626	0.2909	-0.3691	
0.006344	-0.958676	0.2745	9.38	-28.28	15.33	0.0612	0.2894	-0.3661	
0.026596	-0.937448	0.254736	10.78	-32.41	17.71	0.0584	0.2897	-0.372	
0.009638	-0.945256	0.250954	8.12	-37.66	19.18	0.0536	0.2791	-0.3703	
-0.001586	-0.968314	0.264008	8.47	-40.04	20.93	0.0549	0.2948	-0.3645	
-0.004026	-0.928176	0.298412	19.25	-49.07	25.06	0.0548	0.2805	-0.3688	
0.060268	-0.94977	0.271206	3.5	-60.76	31.22	0.0544	0.287	-0.3748	
0.029646	-0.928298	0.270474	12.04	-58.38	29.82	0.0444	0.2864	-0.3745	
-0.017568	-0.964166	0.264862	6.79	-64.61	31.71	0.0423	0.2913	-0.3686	
-0.074054	-1.02358	0.229726	7.91	-74.27	35.21	0.0355	0.2746	-0.3816	
-0.076616	-1.064816	0.223626	13.23	-73.85	42.84	0.0279	0.2785	-0.38	
-0.076616	-1.00284	0.213256	29.33	-71.54	49.63	0.0312	0.2751	-0.383	
-0.01952	-0.957334	0.19825	29.47	-77.98	55.44	0.032	0.2671	-0.3874	
-0.01159	-0.955382	0.206302	27.23	-92.75	53.13	0.0343	0.2748	-0.3934	
-0.002562	-0.937936	0.19642	29.54	-101.5	51.24	0.0329	0.2607	-0.4022	
0.020252	-0.970266	0.203984	18.9	-114.8	52.43	0.0197	0.262	-0.3959	
0.038064	-0.979538	0.21716	16.52	-125.79	52.22	0.0154	0.2641	-0.4032	
0.014152	-0.94977	0.234606	21.49	-125.93	48.09	0.0016	0.2559	-0.3999	
0.048434	-0.933544	0.207644	20.02	-130.76	48.16	-0.0099	0.2603	-0.4144	
0.04087	-0.95709	0.206302	17.22	-137.83	51.59	-0.0194	0.2517	-0.4052	
0.116266	-0.936716	0.193492	25.9	-148.4	55.51	-0.0426	0.2524	-0.4046	
0.110532	-0.955748	0.235094	24.29	-150.5	56.28	-0.0447	0.2589	-0.4017	
0.133346	-0.924638	0.234728	28	-150.57	55.23	-0.0625	0.248	-0.3997	
0.20374	-0.90463	0.285968	31.15	-148.05	52.43	-0.0693	0.2439	-0.4024	
0.274256	-0.895358	0.29707	29.33	-150.29	54.46	-0.0806	0.2403	-0.3962	
0.182878	-0.90097	0.308538	27.72	-147.49	56.7	-0.0925	0.2463	-0.4033	
0.132614	-0.907314	0.297924	21.7	-149.03	58.31	-0.1069	0.2445	-0.4	
0.171166	-0.933056	0.305854	14	-148.61	59.15	-0.1131	0.2483	-0.3954	
0.148596	-0.934764	0.312442	18.83	-138.18	57.75	-0.1249	0.2494	-0.3877	
0.149084	-0.945134	0.306708	10.22	-134.4	61.11	-0.1488	0.2565	-0.3813	
0.134078	-0.926834	0.281942	12.04	-133.35	62.02	-0.1587	0.2526	-0.3736	
0.09638	-0.928176	0.27328	13.02	-131.74	62.79	-0.1701	0.2506	-0.3733	
0.114436	-0.964044	0.274378	-0.63	-140.14	66.64	-0.1784	0.2593	-0.3613	
0.12749	-0.972096	0.28426	5.32	-136.08	67.13	-0.1867	0.268	-0.3494	
0.168482	-0.954406	0.319518	-0.91	-131.32	68.74	-0.1934	0.2781	-0.3463	
0.195688	-0.924638	0.310734	5.39	-119.07	67.9	-0.1924	0.2653	-0.3418	
0.212158	-0.934886	0.321958	-6.51	-120.68	66.78	-0.1994	0.2738	-0.321	
0.22326	-0.931592	0.315248	-7.42	-112.91	66.85	-0.2044	0.2965	-0.321	
0.194224	-0.8845	0.260714	-2.94	-106.05	63.7	-0.2072	0.276	-0.3046	
0.190198	-0.934642	0.310978	-18.2	-105.91	62.51	-0.2177	0.2961	-0.3059	
0.199836	-0.966118	0.309636	-14.98	-105.84	59.78	-0.2146	0.3069	-0.2957	
0.16409	-0.960384	0.281088	-13.72	-103.39	56.07	-0.2149	0.3068	-0.2839	
0.16531	-0.93635	0.28304	-11.27	-98.7	53.48	-0.2122	0.3097	-0.284	
0.170556	-0.926956	0.261202	-7	-98.35	52.43	-0.2237	0.3077	-0.2792	
0.164456	-0.958066	0.288774	-7.35	-98.28	49.91	-0.2191	0.315	-0.2572	
0.183854	-0.935374	0.29646	-7.49	-94.64	47.25	-0.2223	0.3169	-0.2512	
0.195444	-0.939766	0.306586	-3.43	-86.45	43.19	-0.2221	0.3311	-0.2543	
0.181902	-0.936228	0.315736	-4.62	-80.36	40.74	-0.2308	0.3304	-0.2511	
0.160308	-0.94428	0.313784	-2.03	-72.38	38.57	-0.2261	0.3378	-0.235	
0.136762	-0.948916	0.332084	-1.05	-63.7	37.8	-0.2217	0.3373	-0.2351	
0.11407	-0.940254	0.330376	-2.24	-60.69	37.59	-0.2176	0.3385	-0.2323	
0.123342	-0.889258	0.328668	0.35	-57.47	34.93	-0.2177	0.3368	-0.2219	
0.106262	-0.89609	0.3355	-1.96	-51.8	31.43	-0.2284	0.3459	-0.2291	
0.105286	-0.91866	0.3599	-6.3	-48.58	28.63	-0.2195	0.3418	-0.2219	
0.09516	-0.914146	0.334524	0.07	-38.85	24.57	-0.2195	0.3401	-0.216	
0.09455	-0.950258	0.361242	-5.95	-32.13	23.66	-0.2161	0.3509	-0.2221	
0.05307	-0.913658	0.33855	-0.56	-23.87	20.72	-0.2191	0.348	-0.2042	
0.062586	-0.910608	0.31476	-3.08	-23.1	20.79	-0.2231	0.3611	-0.2072	
0.061732	-0.891332	0.334768	0.63	-19.18	18.55	-0.2287	0.3568	-0.1981	
0.047092	-0.87474	0.318664	-0.28	-17.57	15.75	-0.2142	0.357	-0.2029	
0.04148	-0.891576	0.349896	-0.14	-9.8	10.71	-0.2147	0.3492	-0.2117	
0.030134	-0.89304	0.364902	-0.91	-4.69	7.7	-0.2119	0.3615	-0.1942	
0.043066	-0.889014	0.345748	2.1	0.42	4.62	-0.2217	0.3609	-0.2057	
0.01891	-0.904142	0.332938	0.63	4.27	2.03	-0.2095	0.3517	-0.1986	
-0.001708	-0.912072	0.329278	1.26	9.24	-0.42	-0.2143	0.357	-0.1985	
0.019642	-0.916586	0.315492	3.29	13.37	-3.57	-0.2156	0.3571	-0.2044	
-0.000244	-0.92781	0.327692	2.94	17.71	-5.32	-0.211	0.3567	-0.2134	
-0.017202	-0.89792	0.329156	4.97	22.05	-6.65	-0.2093	0.3501	-0.2001	
0.01464	-0.915366	0.33855	0.63	22.12	-7.14	-0.2195	0.3544	-0.2116	
0.01037	-0.899994	0.317688	1.4	23.87	-9.66	-0.216	0.3636	-0.2103	
0.033184	-0.920368	0.330498	-0.77	25.55	-10.92	-0.2149	0.3524	-0.2162	
0.038918	-0.904996	0.325252	3.08	28.98	-13.02	-0.2091	0.3518	-0.2134	
0.04575	-0.911828	0.327204	2.38	34.09	-14.84	-0.2083	0.3597	-0.2194	
0.08784	-0.907314	0.339892	4.13	40.74	-18.27	-0.2151	0.3572	-0.2236	
0.06734399	-0.913902	0.327448	3.85	47.67	-21.77	-0.2119	0.3521	-0.2207	
0.041358	-0.914268	0.31903	3.29	53.69	-28.07	-0.2119	0.3537	-0.2251	
0.061244	-0.946598	0.346724	-1.96	57.4	-30.52	-0.2077	0.3406	-0.2296	
0.104432	-0.933666	0.341966	2.1	65.94	-34.72	-0.208	0.3455	-0.237	
0.137616	-0.940498	0.333792	-1.96	69.93	-37.17	-0.2168	0.3337	-0.2441	
0.17141	-0.960628	0.331962	0.14	77.35	-39.27	-0.2128	0.3381	-0.2501	
0.172996	-0.935618	0.296948	6.65	86.24	-40.39	-0.2125	0.3365	-0.2531	
0.149694	-0.949282	0.269254	4.55	88.41	-42.21	-0.2057	0.3406	-0.2518	
0.156038	-0.95526	0.267302	15.47	99.12	-48.02	-0.2002	0.329	-0.2593	
0.185928	-0.936594	0.286456	12.88	101.29	-49.35	-0.2056	0.328	-0.268	
0.167872	-0.933666	0.265106	14.21	106.05	-52.92	-0.2142	0.3147	-0.2795	
0.15006	-0.95587	0.245464	11.9	109.48	-54.95	-0.1937	0.3127	-0.2874	
0.110654	-0.974048	0.244488	11.55	111.58	-57.12	-0.1999	0.3213	-0.3021	
0.113094	-0.943914	0.249856	14.91	113.54	-60.62	-0.1938	0.3017	-0.3021	
0.118096	-0.951112	0.248636	14.49	117.81	-63.07	-0.1919	0.2983	-0.3051	
0.114314	-0.958798	0.279624	8.89	124.39	-65.45	-0.1872	0.3012	-0.3318	
0.11163	-0.952576	0.249002	16.03	131.46	-65.66	-0.1758	0.2874	-0.3335	
0.088084	-0.966606	0.257298	5.88	135.87	-61.74	-0.1718	0.2759	-0.3394	
0.10126	-0.955138	0.256566	9.52	142.87	-62.44	-0.1616	0.2782	-0.3515	
0.092598	-0.916342	0.27145	13.79	146.72	-66.01	-0.1477	0.2705	-0.3577	
0.111996	-0.907558	0.281332	5.32	146.3	-70.07	-0.1466	0.2626	-0.3755	
0.08906	-0.908656	0.276086	3.78	149.73	-73.22	-0.1303	0.2578	-0.3758	
0.082594	-0.917684	0.227408	2.38	152.04	-74.69	-0.1202	0.2633	-0.3697	
0.052704	-0.953064	0.257298	-5.74	150.22	-75.25	-0.1192	0.2504	-0.3894	
0.105408	-0.92659	0.284138	-5.74	151.13	-76.02	-0.1128	0.2609	-0.394	
0.09357399	-0.918416	0.279136	-7.07	149.17	-76.86	-0.09559999	0.2465	-0.3959	
0.083814	-0.945622	0.288408	-9.24	148.33	-78.33	-0.0826	0.2485	-0.4051	
0.07442	-0.972096	0.27694	-6.51	147	-76.16	-0.0753	0.2494	-0.4112	
0.089426	-0.942572	0.29402	15.89	152.18	-80.99	-0.0584	0.2382	-0.413	
0.055388	-0.95099	0.287554	-7.84	136.57	-74.34	-0.0491	0.2309	-0.4117	
0.049166	-0.98027	0.302804	-17.01	133.7	-67.9	-0.0417	0.2444	-0.409	
0.03416	-0.974048	0.297924	-7.98	137.48	-70.07	-0.0243	0.2317	-0.4256	
0.02989	-0.926834	0.27694	-8.4	136.85	-70.56	-0.0224	0.2426	-0.4272	
0.01281	-0.943548	0.288408	-16.38	126.56	-71.89	-0.0143	0.2339	-0.4289	
0.028304	-0.935252	0.306952	-16.73	126.84	-70.07	-0.0032	0.2359	-0.4218	
0.024522	-0.927078	0.317322	-18.41	120.68	-63.7	0.0096	0.2394	-0.431	
-0.04026	-0.930372	0.275964	-34.37	94.43	-53.9	0.0146	0.2436	-0.4164	
-0.061	-0.97783	0.285724	-41.51	86.45	-49.7	0.0183	0.2479	-0.4032	
-0.072224	-0.961604	0.296338	-21.7	97.02	-50.47	0.0225	0.2491	-0.4048	
-0.04575	-0.918294	0.289994	-17.85	93.73	-48.16	0.0339	0.2511	-0.408	
0.021472	-0.930372	0.327082	-26.53	84.07	-44.45	0.0345	0.2447	-0.405	
0.021106	-0.956114	0.287066	-26.25	78.54	-41.79	0.0342	0.2622	-0.4007	
-0.009393999	-0.96746	0.287676	-23.1	73.78	-39.41	0.0537	0.2697	-0.3983	
-0.02318	-0.964776	0.277306	-20.09	71.96	-35.84	0.0506	0.27	-0.3938	
-0.037942	-0.965264	0.264984	-18.34	65.73	-31.43	0.0581	0.2644	-0.3821	
-0.022692	-0.985638	0.282552	-18.13	56.84	-26.39	0.0562	0.271	-0.3895	
-0.010126	-0.949648	0.269986	-10.08	54.74	-23.31	0.0578	0.2835	-0.3837	
0.034282	-0.923662	0.293654	-8.82	51.66	-20.86	0.0542	0.2727	-0.3717	
0.061366	-0.906826	0.288042	-8.82	44.59	-19.67	0.0593	0.2817	-0.3793	
0.017202	-0.945988	0.29463	-16.73	30.45	-16.03	0.0734	0.2851	-0.3767	
-0.012322	-0.943914	0.281454	-12.04	26.81	-15.54	0.0817	0.2874	-0.371	
0.01342	-0.915366	0.290238	-8.96	24.15	-15.96	0.0693	0.2807	-0.3722	
0.020008	-0.889624	0.293166	-8.26	20.16	-15.61	0.0729	0.2866	-0.3649	
0.030012	-0.891088	0.319762	-13.3	12.25	-15.54	0.0748	0.2817	-0.3649	
0.049288	-0.931348	0.339526	-16.38	5.95	-13.58	0.0677	0.2983	-0.3708	
0.031842	-0.949038	0.309148	-13.86	-0.14	-10.99	0.0773	0.3021	-0.3651	
0.01281	-0.955748	0.32086	-10.64	-3.99	-7.28	0.0717	0.2836	-0.3604	
0.049776	-0.93208	0.29951	-3.64	-6.02	-2.87	0.0675	0.2983	-0.3619	
0.0854	-0.911828	0.301584	-2.8	-10.15	0	0.0559	0.2978	-0.3601	
0.06893	-0.962092	0.29768	-5.53	-13.72	2.38	0.0623	0.2908	-0.3602	
0.089182	-0.960628	0.294996	1.54	-11.83	4.76	0.0588	0.2992	-0.3646	
0.086254	-0.956724	0.307806	6.51	-10.01	6.51	0.0686	0.303	-0.3664	
0.053314	-0.96136	0.329522	6.3	-12.95	8.82	0.0629	0.3003	-0.3603	
0.061854	-0.942816	0.310002	7.91	-17.29	11.06	0.07099999	0.2932	-0.3679	
0.073078	-0.922686	0.29524	8.05	-19.11	12.18	0.0588	0.2975	-0.3587	
0.02928	-0.924638	0.285602	10.99	-22.47	13.37	0.0639	0.294	-0.378	
-0.01464	-0.948428	0.278404	8.89	-29.4	16.87	0.0631	0.2877	-0.3794	
-0.02806	-0.95343	0.273646	10.99	-35.21	20.09	0.0679	0.2825	-0.3795	
-0.023302	-0.949038	0.222894	13.02	-41.72	21.49	0.052	0.2825	-0.3762	
-0.040504	-0.951478	0.225578	15.47	-47.25	22.61	0.0598	0.2753	-0.3763	
-0.061366	-0.97417	0.25925	16.66	-63.07	28.7	0.0564	0.2837	-0.3837	
-0.038918	-1.01138	0.241194	12.81	-70.28	37.66	0.0515	0.2747	-0.3638	
-0.03294	-0.934764	0.27145	24.64	-68.18	36.4	0.0456	0.2752	-0.3848	
0.043798	-0.907436	0.278892	15.12	-80.92	37.66	0.0484	0.2749	-0.3805	
0.01586	-0.966728	0.27938	6.72	-92.89	41.3	0.0348	0.2684	-0.389	
-0.025498	-1.007476	0.26169	8.26	-87.57	43.68	0.0304	0.2672	-0.3829	
-0.034282	-0.960872	0.22753	17.57	-84.42	47.88	0.0364	0.2666	-0.389	
0.035014	-0.905972	0.245586	14.7	-93.52	49.56	0.0261	0.2709	-0.3961	
0.107848	-0.921222	0.25315	8.05	-103.95	48.09	0.0153	0.2641	-0.4003	
0.074054	-0.984052	0.233996	4.55	-108.08	48.51	0.0121	0.2659	-0.3958	
0.052826	-0.997228	0.228628	6.44	-107.38	53.06	0.0009	0.2607	-0.3895	
0.047092	-0.902678	0.23912	14.56	-109.97	51.38	-0.0191	0.2786	-0.401	
0.134078	-0.939644	0.263642	3.08	-119.28	49.14	-0.0191	0.2627	-0.3994	
0.13786	-0.896822	0.290116	14.91	-117.46	44.31	-0.0272	0.2572	-0.4021	
0.16348	-0.91927	0.293654	3.36	-116.9	41.09	-0.0358	0.2581	-0.4093	
0.150426	-0.945866	0.29646	3.01	-112.28	38.85	-0.0483	0.2656	-0.3972	
0.134566	-0.92415	0.257908	9.8	-108.64	38.5	-0.0566	0.2633	-0.4014	
0.16043	-0.888038	0.284382	9.17	-104.65	38.5	-0.0682	0.2629	-0.3996	
0.196176	-0.90036	0.299388	2.94	-101.5	38.01	-0.0643	0.2672	-0.3953	
0.183366	-0.905484	0.314394	1.68	-94.99	36.96	-0.0817	0.2657	-0.386	
0.201544	-0.909022	0.316346	-0.98	-87.92	35.56	-0.0866	0.2709	-0.3829	
0.189222	-0.93818	0.328668	-4.34	-82.39	33.74	-0.0904	0.265	-0.3843	
0.171654	-0.925614	0.316956	1.82	-74.62	30.94	-0.1067	0.2714	-0.3898	
0.165188	-0.92354	0.320128	-4.13	-71.12	30.1	-0.1008	0.2676	-0.3811	
0.15311	-0.927444	0.30561	-1.61	-66.29	26.74	-0.1051	0.268	-0.3825	
0.20496	-0.900604	0.324276	3.64	-55.58	21.14	-0.1112	0.2844	-0.3706	
0.197762	-0.917806	0.306586	2.1	-52.15	19.74	-0.1152	0.2817	-0.3749	
0.199226	-0.916952	0.34831	2.17	-44.03	19.11	-0.1174	0.2739	-0.3748	
0.130418	-0.923906	0.36966	2.59	-34.79	15.19	-0.1224	0.2824	-0.3747	
0.19764	-0.923906	0.32452	-11.97	-41.58	19.81	-0.1332	0.2707	-0.3626	
0.17995	-0.926102	0.326716	1.05	-29.82	16.17	-0.1276	0.2733	-0.3671	
0.142862	-0.923296	0.327692	-1.33	-19.88	14.14	-0.1301	0.2847	-0.3657	
0.163602	-0.906582	0.339404	1.05	-14.07	12.95	-0.1325	0.2785	-0.3626	
0.14945	-0.887428	0.352702	4.83	-8.05	8.75	-0.1143	0.2847	-0.3616	
0.132858	-0.891088	0.345016	0.42	-8.82	6.58	-0.1297	0.2815	-0.3686	
0.125904	-0.927322	0.351116	-3.99	-7.84	5.6	-0.1183	0.2803	-0.3615	
0.099308	-0.937936	0.343552	-3.01	-3.71	4.06	-0.1343	0.2851	-0.37	
0.104188	-0.950502	0.327082	-2.1	-0.07	5.6	-0.1307	0.2894	-0.3568	
0.114924	-0.946354	0.32269	0.7	4.69	8.05	-0.1224	0.2807	-0.3432	
0.109068	-0.92842	0.336476	2.03	10.78	8.12	-0.1254	0.281	-0.3673	
0.076982	-0.902312	0.304024	2.59	11.34	4.97	-0.1155	0.2816	-0.3631	
0.061244	-0.931348	0.297802	-1.33	16.94	2.94	-0.1213	0.2838	-0.3689	
0.026718	-0.93757	0.29341	-2.45	17.64	1.82	-0.1216	0.2837	-0.3541	
0.008662	-0.932202	0.291702	1.05	16.52	-0.21	-0.1169	0.2817	-0.3616	
-0.001342	-0.924394	0.29219	2.87	15.68	-1.54	-0.1162	0.277	-0.3748	
-0.0122	-0.914878	0.293044	5.88	11.97	-2.73	-0.1156	0.2816	-0.3572	
-0.019642	-0.911462	0.29341	6.51	6.02	-3.01	-0.1147	0.2878	-0.3572	
-0.014396	-0.919026	0.301706	5.67	1.61	-3.22	-0.1124	0.2813	-0.3691	
-0.006832	-0.925858	0.314882	5.32	-1.68	-2.66	-0.1005	0.277	-0.3664	
-0.004392	-0.927322	0.318908	2.24	-3.22	-1.33	-0.1079	0.2793	-0.3706	
0.00854	-0.933666	0.33367	-0.63	-5.04	-0.07	-0.106	0.2727	-0.3633	
0.027328	-0.936106	0.326594	0	-7.35	1.54	-0.1072	0.2872	-0.3678	
0.030012	-0.922442	0.332816	0.7	-7.28	2.31	-0.1121	0.2781	-0.369	
0.04209	-0.90768	0.33184	0.91	-7.91	2.66	-0.1163	0.2786	-0.3763	
0.055388	-0.896334	0.331962	0.28	-8.12	2.31	-0.1156	0.2832	-0.3646	
0.060146	-0.90097	0.335744	-0.98	-6.16	1.33	-0.117	0.285	-0.3704	
0.06405	-0.906338	0.336476	-2.24	-4.06	0.35	-0.111	0.2796	-0.3617	
0.06771	-0.913292	0.33977	-2.24	0.42	-1.12	-0.124	0.2809	-0.3643	
0.075274	-0.934642	0.336842	-2.94	3.99	-1.54	-0.122	0.276	-0.3703	
0.074054	-0.94001	0.341844	-1.82	7.21	-1.89	-0.1226	0.284	-0.3747	
0.067466	-0.934276	0.334158	-0.98	9.8	-1.61	-0.117	0.285	-0.3704	
0.067466	-0.926956	0.324032	-0.77	11.2	-1.61	-0.1166	0.2802	-0.3689	
0.069662	-0.925492	0.322934	-1.26	12.95	-1.96	-0.1174	0.2739	-0.3733	
0.059902	-0.929274	0.314394	-1.33	13.79	-2.31	-0.1229	0.2839	-0.3629	
0.050752	-0.933178	0.309758	-1.4	14.14	-2.52	-0.1182	0.2803	-0.363	
0.040504	-0.935252	0.304512	-0.84	14.21	-2.73	-0.117	0.2866	-0.3778	
0.027938	-0.938302	0.298046	0.56	14.56	-2.73	-0.114	0.2815	-0.3631	
0.020496	-0.937082	0.296582	0.84	13.93	-2.24	-0.1079	0.2809	-0.3736	
0.017812	-0.934276	0.298168	1.12	13.37	-1.96	-0.1135	0.2767	-0.3675	
0.012932	-0.93391	0.297558	1.12	11.83	-1.68	-0.108	0.2809	-0.3706	
0.00915	-0.934764	0.304268	1.4	10.36	-1.4	-0.102	0.2771	-0.3649	
0.006832	-0.928054	0.301218	2.17	9.17	-1.26	-0.102	0.2804	-0.3767	
0.005734	-0.926346	0.307562	1.68	6.02	-0.63	-0.1053	0.2838	-0.3737	
0.008296	-0.923296	0.310368	1.82	4.48	-0.42	-0.09959999	0.2674	-0.3708	
0.008905999	-0.922076	0.314882	1.61	3.01	-0.21	-0.1119	0.2765	-0.3705	
0.003172	-0.924028	0.312808	1.33	1.05	0.21	-0.1047	0.2791	-0.3811	
0.004758	-0.91988	0.316956	1.12	-0.63	0.84	-0.1027	0.2758	-0.3929	
0.007198	-0.91744	0.322568	0.77	-2.17	1.4	-0.1024	0.2835	-0.3738	
0.012078	-0.916952	0.32757	-0.07	-3.71	1.75	-0.1024	0.2852	-0.3782	
0.020008	-0.919514	0.328058	-0.7	-4.76	1.82	-0.1033	0.2756	-0.3663	
0.025864	-0.91866	0.326472	-0.56	-5.88	1.96	-0.106	0.2744	-0.3707	
0.024156	-0.920856	0.318542	-0.91	-6.93	1.82	-0.1062	0.2759	-0.3662	
0.019154	-0.924272	0.313174	-0.21	-7.56	1.68	-0.102	0.2787	-0.3737	
0.024888	-0.92598	0.311344	0.28	-7.14	1.33	-0.1084	0.2841	-0.3677	
0.035746	-0.926834	0.317078	0.28	-6.37	0.63	-0.1022	0.2803	-0.3678	
0.033428	-0.926712	0.320372	0.49	-5.6	0.63	-0.1079	0.2809	-0.3736	
0.032574	-0.930372	0.32818	-0.21	-5.32	1.33	-0.0988	0.2752	-0.3723	
0.033306	-0.927688	0.329278	0.42	-4.62	1.89	-0.1025	0.2835	-0.3693	
0.039894	-0.91866	0.340502	0.14	-4.13	2.45	-0.1079	0.2793	-0.3677	
0.03599	-0.913048	0.335134	0.28	-2.87	2.45	-0.1126	0.2829	-0.3676	
0.036966	-0.914146	0.334402	-0.84	-1.82	2.1	-0.1123	0.2814	-0.372	
0.03538	-0.914756	0.33123	-1.61	-1.33	1.68	-0.1133	0.2767	-0.3734	
0.0305	-0.91561	0.33062	-1.68	-0.49	0.7	-0.1107	0.278	-0.3691	
0.025986	-0.920612	0.328546	-2.24	0.14	0	-0.1074	0.2729	-0.3647	
0.02623	-0.91805	0.32269	-1.68	1.19	-0.84	-0.1018	0.2739	-0.3634	
0.024156	-0.925492	0.315126	-1.75	0.91	-1.54	-0.1171	0.285	-0.369	
0.020618	-0.931226	0.309758	-1.05	0.98	-2.31	-0.1116	0.275	-0.3764	
0.017202	-0.929396	0.307684	-0.63	1.96	-2.73	-0.1045	0.2758	-0.3766	
0.015738	-0.929274	0.31293	-1.26	2.38	-2.8	-0.1088	0.2922	-0.381	
0.018788	-0.92903	0.311588	-1.12	2.73	-2.8	-0.1045	0.2742	-0.3692	
0.024522	-0.927444	0.312686	-1.4	1.61	-2.66	-0.1029	0.2708	-0.3663	
0.02684	-0.928664	0.310612	-0.98	0.98	-2.45	-0.1057	0.2728	-0.3751	
0.029158	-0.927444	0.313784	-0.7	0.63	-2.24	-0.1125	0.2813	-0.3631	
0.03172	-0.930006	0.314394	-0.14	0.42	-2.24	-0.1111	0.2828	-0.3676	
0.005856	-0.94611	0.325618	-0.07	-0.56	-3.01	-0.1018	0.2739	-0.3634	
0.036356	-0.943182	0.309636	-9.38	-8.75	0.42	-0.1164	0.277	-0.366	
0.031598	-0.92903	0.315736	5.32	3.57	-2.73	-0.1096	0.281	-0.3632	
0.036356	-0.929396	0.316834	-1.05	0.7	-1.12	-0.1093	0.2778	-0.3632	
0.0366	-0.929274	0.3172	1.26	1.33	-1.12	-0.107	0.2856	-0.3707	
0.039162	-0.927444	0.317078	1.05	0.35	-1.05	-0.1107	0.278	-0.3691	
0.045506	-0.913414	0.310002	3.01	-4.27	-1.12	-0.1028	0.2708	-0.3678	
0.03965	-0.934154	0.320616	-0.84	-4.55	0.21	-0.1089	0.2763	-0.375	
0.037332	-0.92415	0.314882	3.85	0.21	-0.49	-0.1047	0.2758	-0.3677	
0.040138	-0.92415	0.320982	1.19	-0.84	0.21	-0.1074	0.2729	-0.3647	
0.044774	-0.92049	0.320494	1.54	-1.54	0.21	-0.1101	0.2732	-0.375	
0.043798	-0.921466	0.326472	1.19	-1.54	0.28	-0.1099	0.2859	-0.3706	
0.04026	-0.917928	0.325008	1.19	-0.91	0.28	-0.1173	0.2882	-0.3705	