Sensor string: E
Serial number: 2106-01--26538169
Firmware version: 2,769288E-40
Hardware version: 1,092478E-36
Calibration quality: 204
ax	ay	az	gx	gy	gz	mx	my	mz

-0.990884	0.133468	0.148596	0.21	0.14	-0.14	0.3681	-0.0509	-0.2957	Reference
-0.992836	0.134078	0.1464	0.14	0.21	-0.14	0.3798	-0.0479	-0.302	
-0.99125	0.13359	0.147742	0	0.14	-0.14	0.3755	-0.0539	-0.305	
-0.992714	0.133712	0.147376	-0.07	0.07	-0.14	0.3842	-0.0661	-0.3051	
-0.99186	0.133224	0.14762	-0.14	0.21	-0.14	0.387	-0.0494	-0.3052	
-0.991372	0.132492	0.14945	-0.07	0.07	-0.14	0.3914	-0.0495	-0.3068	
-0.990762	0.131516	0.149694	0.07	0.42	-0.07	0.3754	-0.0509	-0.2943	
-0.99308	0.132248	0.143716	0.14	0.56	-0.14	0.3943	-0.0556	-0.3021	
-0.993324	0.133224	0.145546	0.35	0.07	-0.14	0.3769	-0.0615	-0.2989	
-0.991372	0.13481	0.14762	0.28	0	-0.14	0.3769	-0.0494	-0.3051	
-0.988932	0.135176	0.148352	-0.07	0.14	-0.14	0.387	-0.0525	-0.299	
-0.990274	0.133956	0.148474	-0.35	0.14	-0.07	0.3928	-0.0601	-0.2944	
-0.991372	0.131394	0.147742	-0.35	0.21	-0.07	0.3799	-0.0646	-0.3035	
-0.99247	0.131638	0.147254	0	0.21	-0.14	0.3783	-0.0539	-0.302	
-0.991616	0.133346	0.146522	0.21	0.28	-0.21	0.3695	-0.0509	-0.2911	
-0.991982	0.133224	0.144326	0.07	0.21	-0.28	0.3799	-0.0585	-0.3051	
-0.99308	0.131882	0.14457	-0.07	0.28	-0.14	0.3639	-0.0554	-0.3003	
-0.992714	0.132126	0.147376	0	-0.07	-0.07	0.3827	-0.054	-0.3005	
-0.990884	0.133834	0.147742	-0.07	-0.07	-0.07	0.3857	-0.054	-0.3098	
-0.991372	0.13359	0.14884	-0.07	0.14	-0.14	0.3812	-0.0464	-0.302	
-0.992958	0.134932	0.146034	0.07	0.28	-0.21	0.3812	-0.0494	-0.3005	
-0.992836	0.133834	0.146034	0.07	0.35	-0.21	0.3812	-0.0494	-0.3005	
-0.993202	0.132126	0.143838	-0.14	0.21	-0.21	0.3812	-0.0555	-0.3005	
-0.993202	0.132614	0.145424	-0.28	0.28	-0.21	0.39	-0.0509	-0.3175	
-0.992836	0.132614	0.143594	0.07	0.28	-0.21	0.3755	-0.06	-0.3035	
-0.994056	0.13115	0.145912	0.42	0.35	-0.21	0.3725	-0.0539	-0.2973	
-0.995764	0.129076	0.145912	0.91	0.35	-0.21	0.3814	-0.0645	-0.3097	
-0.997594	0.128954	0.143228	1.12	0.77	-0.28	0.3783	-0.054	-0.2958	
-0.996618	0.132248	0.141276	1.4	0.77	-0.28	0.387	-0.0525	-0.299	
-0.995642	0.134688	0.139934	1.4	0.98	-0.28	0.3856	-0.0601	-0.3005	
-0.996984	0.135664	0.140544	1.05	0.98	-0.28	0.3753	-0.0494	-0.2881	
-0.997716	0.131272	0.140788	0.35	0.56	-0.07	0.3827	-0.0585	-0.2989	
-0.998204	0.130784	0.138104	-0.35	0.14	0.07	0.3826	-0.051	-0.2974	
-0.998448	0.133834	0.13725	-0.63	0	0.07	0.3768	-0.054	-0.2896	
-0.998814	0.136396	0.139446	-0.7	-0.7	0	0.3841	-0.0509	-0.3036	
-0.999424	0.13664	0.139202	-0.7	-0.98	-0.14	0.3769	-0.0555	-0.2973	
-1.002352	0.135908	0.141886	-1.05	-1.05	0	0.3855	-0.0555	-0.2974	
-0.996862	0.133346	0.140056	-1.4	-1.4	0.07	0.3768	-0.0494	-0.2912	
-0.996862	0.132492	0.138104	-1.68	-2.1	0.07	0.3725	-0.0539	-0.3004	
-0.999058	0.13298	0.142252	-1.47	-3.08	0	0.3827	-0.0464	-0.3036	
-1.000888	0.133956	0.145912	-1.33	-3.22	-0.21	0.3726	-0.0524	-0.3066	
-0.99857	0.135054	0.150792	-1.33	-3.92	-0.21	0.3813	-0.0509	-0.3113	
-0.993934	0.13298	0.152622	-1.82	-3.92	-0.21	0.3739	-0.0448	-0.3004	
-0.9943	0.133346	0.15067	-2.1	-5.25	0	0.377	-0.0524	-0.3081	
-0.99369	0.133346	0.154818	-2.1	-5.67	0	0.3811	-0.0464	-0.2959	
-0.989298	0.134078	0.156038	-2.1	-5.67	-0.07	0.3682	-0.0539	-0.2988	
-0.99125	0.13542	0.159942	-1.89	-6.44	-0.07	0.3783	-0.0555	-0.2974	
-0.992592	0.136152	0.162138	-1.89	-6.58	-0.21	0.3755	-0.0584	-0.3081	
-0.993568	0.137372	0.164456	-1.61	-6.37	-0.21	0.3755	-0.0569	-0.305	
-0.993446	0.134322	0.169214	-2.24	-6.44	-0.14	0.3886	-0.057	-0.3098	
-0.994788	0.134078	0.169458	-2.31	-7.21	-0.14	0.3711	-0.0509	-0.3019	
-0.992958	0.134078	0.17324	-2.94	-6.65	-0.42	0.3812	-0.0494	-0.3051	
-0.992226	0.132248	0.174826	-3.22	-7.07	-0.21	0.3755	-0.0509	-0.3097	
-0.990152	0.131394	0.17751	-3.08	-8.19	-0.28	0.361	-0.0507	-0.3095	
-1.000034	0.129198	0.1769	-3.22	-7.91	-0.21	0.3727	-0.0538	-0.3189	
-1.004426	0.130418	0.182878	-3.29	-8.26	-0.42	0.3698	-0.0508	-0.3127	
-1.013088	0.132492	0.177266	-3.43	-8.33	-1.19	0.3625	-0.0432	-0.3111	
-1.020164	0.132492	0.18117	-3.99	-8.4	-1.89	0.3699	-0.0568	-0.3204	
-1.027606	0.12871	0.177754	-4.55	-9.73	-1.96	0.3713	-0.0462	-0.3281	
-1.030412	0.126026	0.17202	-4.83	-12.25	-1.33	0.364	-0.0431	-0.3188	
-1.028582	0.125294	0.174582	-5.11	-14.77	-0.49	0.3583	-0.0598	-0.3233	
-1.025654	0.125416	0.17934	-4.69	-16.52	0.56	0.3655	-0.0492	-0.3204	
-1.027118	0.129442	0.190808	-4.55	-16.66	1.12	0.367	-0.0477	-0.3281	
-1.026386	0.129686	0.191784	-4.9	-19.04	1.54	0.3628	-0.0461	-0.345	
-1.003816	0.129076	0.189832	-4.62	-21.14	1.47	0.3469	-0.0429	-0.3433	
-0.995154	0.134444	0.214476	-3.99	-22.4	1.12	0.354	-0.0445	-0.3357	
-0.982588	0.136518	0.21228	-3.57	-22.82	0.84	0.3512	-0.0399	-0.3511	
-0.976366	0.130662	0.23424	-3.99	-24.99	0.98	0.3467	-0.0338	-0.3357	
-0.966362	0.12688	0.251442	-5.11	-26.32	1.12	0.3541	-0.046	-0.3403	
-0.954406	0.122122	0.263032	-6.09	-27.16	1.47	0.344	-0.0383	-0.3556	
-0.952698	0.12383	0.271206	-6.58	-26.74	2.03	0.3412	-0.0489	-0.3556	
-0.94367	0.126148	0.279746	-6.44	-26.53	2.73	0.3353	-0.0322	-0.3494	
-0.93391	0.127246	0.294142	-7.07	-26.18	3.29	0.3311	-0.0427	-0.3601	
-0.931104	0.121024	0.304756	-7.56	-26.74	3.78	0.3268	-0.0488	-0.3539	
-0.925736	0.114436	0.324276	-8.68	-27.09	3.71	0.3297	-0.0427	-0.3693	
-0.914146	0.113582	0.336598	-8.47	-26.74	3.29	0.324	-0.0457	-0.3693	
-0.914146	0.11529	0.347822	-7.84	-24.78	2.66	0.321	-0.0396	-0.3677	
-0.917074	0.114192	0.362828	-7.42	-22.75	2.03	0.321	-0.0381	-0.3693	
-0.921466	0.11346	0.357094	-6.51	-22.54	1.96	0.3152	-0.038	-0.3677	
-0.923418	0.118706	0.362584	-6.3	-22.68	2.17	0.3066	-0.0364	-0.3768	
-0.909022	0.12871	0.370514	-6.51	-23.17	2.17	0.3052	-0.0394	-0.3722	
-0.898896	0.133834	0.377346	-7.35	-23.59	2.31	0.3067	-0.044	-0.3799	
-0.896456	0.132736	0.388814	-8.4	-23.45	1.89	0.2922	-0.0348	-0.3829	
-0.906826	0.129686	0.377224	-8.33	-21.98	1.4	0.3025	-0.0424	-0.3922	
-0.913902	0.129076	0.389302	-8.4	-21.91	1.26	0.2996	-0.0378	-0.3922	
-0.916952	0.126026	0.392352	-7.42	-23.17	1.26	0.2894	-0.0301	-0.3952	
-0.912316	0.12566	0.403332	-6.51	-23.66	1.26	0.2895	-0.0408	-0.3921	
-0.900848	0.124562	0.411872	-5.81	-22.82	1.12	0.2895	-0.0316	-0.4014	
-0.895968	0.127612	0.422242	-6.09	-22.47	0.98	0.2824	-0.0437	-0.4074	
-0.895724	0.129808	0.42639	-6.51	-20.02	1.4	0.2736	-0.03	-0.4027	
-0.88633	0.132248	0.43615	-6.51	-19.46	1.4	0.278	-0.0361	-0.4043	
-0.884012	0.124928	0.440054	-6.16	-19.18	1.54	0.2808	-0.0285	-0.4044	
-0.881084	0.119194	0.453718	-5.88	-17.78	1.75	0.278	-0.0315	-0.4059	
-0.870104	0.115412	0.468968	-5.32	-18.55	1.47	0.2621	-0.0283	-0.415	
-0.860222	0.115412	0.472018	-4.62	-16.8	1.26	0.2607	-0.0344	-0.4165	
-0.86132	0.116876	0.476532	-3.92	-15.05	1.33	0.2678	-0.0314	-0.4058	
-0.8601	0.116144	0.484706	-3.85	-14.63	1.19	0.2637	-0.0283	-0.4242	
-0.853268	0.115412	0.489586	-3.5	-14.7	1.26	0.2549	-0.0222	-0.418	
-0.848876	0.113582	0.497638	-2.17	-13.72	1.19	0.2563	-0.0237	-0.418	
-0.844728	0.111996	0.50081	-1.47	-12.46	0.91	0.2622	-0.0313	-0.4257	
-0.842532	0.11285	0.50264	-0.91	-10.99	0.49	0.2563	-0.0222	-0.4165	
-0.83692	0.116632	0.499956	-0.49	-9.87	0.42	0.2565	-0.0343	-0.4257	
-0.837042	0.119194	0.501664	-0.77	-8.82	0.35	0.2477	-0.0267	-0.421	
-0.838506	0.119804	0.506056	-1.12	-7.63	0.42	0.2405	-0.0342	-0.4193	
-0.839604	0.121634	0.508496	-1.26	-6.16	0.56	0.2491	-0.0206	-0.421	
-0.839482	0.12078	0.512644	-0.7	-5.88	0.35	0.2506	-0.0312	-0.4225	
-0.838506	0.116876	0.513986	-0.77	-5.04	0.28	0.2549	-0.0252	-0.4211	
-0.84058	0.11773	0.5124	-0.56	-3.43	0.35	0.245	-0.0387	-0.4286	
-0.844606	0.119804	0.510692	-0.07	-2.59	0.56	0.2463	-0.0327	-0.4256	
-0.843996	0.12017	0.513254	0.49	-2.59	0.49	0.2419	-0.0251	-0.4225	
-0.840946	0.11895	0.512278	0.56	-1.61	-0.07	0.2506	-0.0252	-0.421	
-0.841068	0.118096	0.513742	0.77	0	-0.63	0.2492	-0.0236	-0.4256	
-0.84546	0.118828	0.512522	1.4	-0.49	-0.98	0.245	-0.0372	-0.4286	
-0.838262	0.123464	0.511668	1.82	0.07	-1.4	0.2477	-0.0282	-0.4241	
-0.840458	0.125904	0.512522	1.75	1.68	-1.54	0.252	-0.0237	-0.4226	
-0.847534	0.125904	0.511058	1.47	1.82	-1.54	0.2448	-0.0266	-0.424	
-0.848632	0.127124	0.507276	0.98	1.33	-1.4	0.2435	-0.0373	-0.4224	
-0.853756	0.127246	0.504592	0.42	2.1	-1.12	0.2377	-0.0311	-0.4301	
-0.854976	0.12261	0.504714	-0.14	2.94	-0.91	0.2507	-0.0297	-0.4272	
-0.857538	0.117608	0.503006	-0.21	3.22	-0.84	0.2507	-0.0388	-0.4225	
-0.859856	0.111996	0.501542	0	3.57	-0.91	0.2419	-0.0281	-0.4225	
-0.860466	0.111874	0.501908	0.56	3.71	-0.98	0.2536	-0.0328	-0.4241	
-0.86071	0.112606	0.501786	1.26	3.64	-1.12	0.2476	-0.0237	-0.4133	
-0.859246	0.113582	0.498248	1.54	4.13	-1.12	0.2535	-0.0313	-0.4226	
-0.858636	0.11285	0.494954	1.68	4.48	-1.12	0.2608	-0.0313	-0.4303	
-0.85644	0.11224	0.495686	1.82	4.13	-1.4	0.2579	-0.0313	-0.4226	
-0.855342	0.11651	0.496662	2.52	4.06	-1.4	0.2493	-0.0342	-0.4302	
-0.856318	0.117486	0.497272	2.73	4.62	-1.19	0.2549	-0.0374	-0.4133	
-0.858026	0.116632	0.501176	3.36	5.39	-0.98	0.2593	-0.0374	-0.4149	
-0.853268	0.11834	0.496906	3.92	6.72	-1.19	0.2579	-0.0389	-0.4179	
-0.854244	0.116876	0.49227	4.13	7.98	-1.26	0.2578	-0.0328	-0.4134	
-0.852292	0.118462	0.491416	4.41	8.96	-1.26	0.2607	-0.0374	-0.4149	
-0.848998	0.119926	0.486658	4.62	9.24	-1.26	0.2665	-0.036	-0.4088	
-0.847412	0.121634	0.486292	4.48	9.52	-1.19	0.2563	-0.0329	-0.4103	
-0.849974	0.123464	0.482632	4.69	11.55	-1.26	0.2578	-0.0359	-0.4164	
-0.850828	0.121634	0.480436	4.34	13.09	-1.19	0.255	-0.0298	-0.4226	
-0.851072	0.11956	0.47702	3.99	14.35	-0.91	0.2621	-0.0359	-0.4103	
-0.851926	0.117974	0.471042	4.2	15.19	-0.7	0.2706	-0.0254	-0.4012	
-0.854122	0.117364	0.464942	4.97	16.73	-0.63	0.2707	-0.0284	-0.4089	
-0.851804	0.114436	0.463112	5.67	18.27	-0.77	0.2722	-0.0284	-0.4135	
-0.851926	0.113582	0.457012	6.3	19.39	-1.12	0.2679	-0.0345	-0.4104	
-0.856318	0.119316	0.45323	6.79	21.42	-1.47	0.2779	-0.0437	-0.395	
-0.854854	0.12444	0.442494	6.86	22.05	-1.47	0.2765	-0.027	-0.4059	
-0.871446	0.126514	0.435662	7.07	23.17	-1.54	0.2923	-0.0347	-0.3906	
-0.874374	0.127002	0.43066	6.79	26.18	-1.68	0.2851	-0.0392	-0.3905	
-0.876448	0.12627	0.4148	6.72	27.23	-1.4	0.2808	-0.0361	-0.392	
-0.883646	0.121756	0.408456	7.21	29.19	-1.33	0.2865	-0.0347	-0.3921	
-0.890844	0.12261	0.39833	7.56	31.99	-1.54	0.2995	-0.0394	-0.3814	
-0.897188	0.123342	0.385276	7.98	33.32	-1.89	0.304	-0.0515	-0.3891	
-0.898774	0.124562	0.368684	8.68	34.37	-2.59	0.3096	-0.0379	-0.383	
-0.895358	0.125538	0.35746	9.24	35.28	-3.01	0.3196	-0.0365	-0.3739	
-0.905362	0.126148	0.339404	9.52	36.82	-3.29	0.3111	-0.0364	-0.3846	
-0.912072	0.128222	0.337452	9.31	38.15	-3.29	0.3282	-0.0336	-0.3694	
-0.923662	0.13054	0.325008	9.45	39.06	-3.22	0.3196	-0.0456	-0.3692	
-0.931714	0.128466	0.320982	8.82	41.02	-3.29	0.3312	-0.0457	-0.3724	
-0.934398	0.127612	0.30378	9.31	40.32	-3.08	0.3354	-0.0413	-0.3525	
-0.937936	0.129198	0.294874	9.24	41.79	-3.43	0.3499	-0.052	-0.3541	
-0.960628	0.134078	0.271938	9.24	41.79	-3.64	0.3483	-0.0338	-0.348	
-0.981734	0.1342	0.259738	10.64	35.63	-3.01	0.3527	-0.0551	-0.3387	
-0.952088	0.135054	0.24217	11.62	28.77	-1.47	0.3511	-0.046	-0.3356	
-0.963678	0.136884	0.230214	11.06	30.87	-0.14	0.3554	-0.0491	-0.3264	
-0.957456	0.141642	0.212524	10.78	29.75	0.21	0.3641	-0.0492	-0.3311	
-0.970876	0.141886	0.202276	10.57	30.8	0.21	0.3685	-0.0537	-0.3358	
-0.975634	0.135786	0.19581	10.43	31.43	0.7	0.3684	-0.0614	-0.3173	
-0.97234	0.131394	0.174582	10.99	30.66	0	0.3655	-0.0568	-0.3142	
-0.996374	0.133712	0.17812	11.55	30.59	-0.98	0.3727	-0.0538	-0.3143	
-0.99735	0.140666	0.153232	11.34	30.1	-1.96	0.3682	-0.0584	-0.2988	
-1.012356	0.138592	0.159332	10.36	32.2	-3.22	0.3784	-0.0615	-0.305	
-1.008818	0.13359	0.123586	7.91	35.7	-3.78	0.3768	-0.0494	-0.2989	
-1.000522	0.134566	0.117852	6.72	38.78	-4.27	0.3825	-0.0541	-0.282	
-1.015162	0.138592	0.088816	7.7	39.97	-4.97	0.3855	-0.0616	-0.2897	
-1.000034	0.130418	0.065636	8.47	37.38	-5.18	0.3898	-0.0602	-0.2867	
-1.019676	0.129564	0.05246	10.78	36.89	-6.02	0.3954	-0.0496	-0.276	
-1.025532	0.120536	0.036112	12.32	38.01	-6.86	0.3867	-0.0511	-0.2743	
-1.028338	0.105408	0.020862	12.04	35.35	-6.65	0.4055	-0.0497	-0.2668	
-1.035048	0.103456	0.011834	12.32	35.21	-5.88	0.404	-0.0543	-0.2591	
-1.033584	0.107848	-0.005002	11.9	35.56	-4.97	0.4098	-0.0528	-0.2638	
-1.030046	0.11163	-0.02135	10.71	35	-3.99	0.4154	-0.0484	-0.2515	
-1.02236	0.1159	-0.023546	9.31	35.7	-3.36	0.4097	-0.059	-0.2468	
-1.006256	0.107238	-0.028792	7.98	32.76	-3.08	0.4124	-0.056	-0.2345	
-1.020652	0.102358	-0.039894	6.86	32.13	-3.57	0.4197	-0.0576	-0.2377	
-1.03029	0.101016	-0.050386	7	32.48	-3.85	0.4283	-0.0531	-0.2331	
-1.031754	0.112484	-0.068442	7.28	31.71	-3.99	0.4224	-0.0653	-0.2115	
-1.020896	0.119438	-0.068442	7.35	31.15	-4.13	0.4327	-0.0699	-0.2239	
-1.024068	0.124684	-0.071126	7	32.55	-4.48	0.431	-0.0563	-0.207	
-1.023092	0.129808	-0.089792	6.58	31.78	-4.48	0.4296	-0.0593	-0.2116	
-1.019432	0.133102	-0.112118	6.79	28.42	-4.55	0.4296	-0.0593	-0.2131	
-1.019554	0.130296	-0.123098	7.14	26.95	-4.83	0.4411	-0.0655	-0.1993	
-1.017358	0.122244	-0.126026	6.79	26.18	-4.97	0.4294	-0.0563	-0.1962	
-1.010892	0.115168	-0.130174	5.32	25.48	-4.62	0.4453	-0.0534	-0.1917	
-1.01016	0.12139	-0.140666	4.97	25.69	-4.55	0.4323	-0.0579	-0.19	
-1.01687	0.117364	-0.142496	4.27	26.11	-4.9	0.4439	-0.0579	-0.1932	
-1.017358	0.101016	-0.153476	4.83	24.01	-5.53	0.4494	-0.049	-0.1779	
-1.019676	0.085644	-0.162382	5.81	23.66	-5.53	0.4423	-0.0565	-0.184	
-1.01321	0.080764	-0.163114	6.79	22.61	-4.69	0.4509	-0.0596	-0.1748	
-1.015528	0.081862	-0.172386	7.42	22.05	-4.41	0.4494	-0.0626	-0.1686	
-1.012478	0.07503	-0.176168	7.49	20.58	-3.64	0.4567	-0.0581	-0.1748	
-1.020774	0.080764	-0.19703	7.35	19.04	-2.24	0.445	-0.0535	-0.167	
-1.029192	0.087718	-0.215208	6.72	18.06	-2.31	0.4391	-0.0444	-0.1639	
-1.015528	0.091134	-0.231922	6.23	17.29	-2.52	0.4494	-0.0566	-0.164	
-1.000278	0.083204	-0.24156	5.32	14.56	-1.61	0.4507	-0.0612	-0.1547	
-0.996008	0.076616	-0.237778	3.64	12.53	-0.21	0.4434	-0.0445	-0.1578	
-0.998204	0.081862	-0.228018	3.01	11.06	0.56	0.4434	-0.0551	-0.1485	
-0.99857	0.07747	-0.235216	3.01	10.5	0.35	0.4505	-0.0446	-0.144	
-0.990396	0.07747	-0.242048	2.94	8.68	0.49	0.4492	-0.0536	-0.1517	
-0.987468	0.08295999	-0.22265	1.82	7.49	0.77	0.4535	-0.0537	-0.1425	
-0.983808	0.091988	-0.218258	0.91	8.54	0.7	0.4462	-0.0506	-0.1455	
-0.984906	0.100528	-0.229116	1.12	8.61	0.56	0.4593	-0.0552	-0.1487	
-0.986614	0.105652	-0.226798	0.84	10.01	-0.21	0.4563	-0.0568	-0.1394	
-0.986126	0.103212	-0.224724	0.84	9.03	-0.91	0.4564	-0.0583	-0.144	
-0.986736	0.101138	-0.21472	-0.14	9.8	-1.12	0.4535	-0.0552	-0.144	
-0.987956	0.091012	-0.2135	0.21	9.87	-1.33	0.4506	-0.0598	-0.1393	
-0.985394	0.095038	-0.218746	2.1	10.22	-1.47	0.4606	-0.0614	-0.1317	
-0.98271	0.099186	-0.22814	2.87	10.92	-1.61	0.4491	-0.0537	-0.1347	
-0.985516	0.088938	-0.249246	2.17	10.57	-1.75	0.4635	-0.0629	-0.1256	
-0.985028	0.088206	-0.249246	2.1	10.85	-2.03	0.4605	-0.0553	-0.1256	
-0.98149	0.088816	-0.264374	2.45	11.41	-2.03	0.4619	-0.0554	-0.121	
-0.986736	0.0915	-0.273768	2.94	10.57	-2.31	0.462	-0.0569	-0.124	
-0.993446	0.085644	-0.27877	2.1	10.15	-2.03	0.4606	-0.0614	-0.1225	
-0.989664	0.072468	-0.286334	0.21	10.08	-1.26	0.4503	-0.0507	-0.1209	
-0.98576	0.066978	-0.28853	0.42	8.47	-0.77	0.4605	-0.0645	-0.1178	
-0.986858	0.066734	-0.279746	1.47	7.42	-0.98	0.4575	-0.0463	-0.1148	
-0.985394	0.06527	-0.28731	2.1	6.58	-0.98	0.4576	-0.0553	-0.1209	
-0.983686	0.065514	-0.296704	2.73	5.18	-0.63	0.459	-0.0539	-0.1163	
-0.985394	0.074054	-0.291336	2.17	3.85	-0.35	0.459	-0.0524	-0.1132	
-0.984052	0.078446	-0.284748	1.19	3.01	-0.42	0.4547	-0.0508	-0.1178	
-0.979416	0.08235	-0.283772	1.12	3.01	-0.56	0.4633	-0.0478	-0.1149	
-0.979416	0.089548	-0.284138	1.33	2.8	-0.49	0.4633	-0.0524	-0.1179	
-0.98088	0.089304	-0.289262	1.89	2.38	-0.28	0.4604	-0.0554	-0.1117	
-0.983564	0.085034	-0.2867	1.89	2.38	0	0.459	-0.0569	-0.1101	
-0.98149	0.082838	-0.288164	0.7	2.8	0.35	0.4532	-0.0492	-0.1225	
-0.97844	0.080276	-0.292434	-0.21	2.52	0.49	0.4532	-0.0553	-0.1116	
-0.97966	0.07869	-0.297802	-0.14	1.82	0.28	0.4604	-0.0539	-0.1117	
-0.97844	0.074786	-0.299144	0.14	0.84	0.28	0.4677	-0.0539	-0.118	
-0.979172	0.072834	-0.2989	0.14	-0.35	0.42	0.4662	-0.0539	-0.1149	
-0.980636	0.07686	-0.290726	-0.07	-1.54	0.63	0.4604	-0.0493	-0.1194	
-0.978562	0.076738	-0.281942	-0.21	-1.47	0.7	0.4532	-0.0523	-0.1147	
-0.975024	0.077958	-0.285724	-0.42	-1.12	0.56	0.4546	-0.0493	-0.1117	
-0.97417	0.085888	-0.277428	-0.21	-1.4	0.56	0.4561	-0.0523	-0.1148	
-0.978562	0.086742	-0.27328	-0.7	-0.77	0.56	0.4547	-0.0645	-0.1085	
-0.978806	0.08479	-0.276208	-1.33	0.21	0.49	0.4546	-0.0584	-0.1101	
-0.98088	0.081374	-0.279624	-1.75	0.98	0.49	0.4619	-0.0554	-0.1148	
-0.980636	0.075884	-0.27694	-1.68	1.05	0.84	0.4604	-0.0508	-0.1164	
-0.97905	0.078324	-0.28731	-0.56	1.75	0.77	0.4605	-0.0584	-0.1179	
-0.973682	0.078324	-0.296826	-0.42	1.61	0.49	0.4619	-0.06	-0.1132	
-0.971852	0.080398	-0.292556	-1.05	-0.21	0.42	0.4647	-0.0448	-0.1164	
-0.979416	0.080764	-0.293898	-1.05	-0.77	0.49	0.4532	-0.0568	-0.1163	
-0.98332	0.08418	-0.28731	-0.84	-1.47	0.7	0.4503	-0.0538	-0.1147	
-0.983076	0.085156	-0.287554	-1.26	-0.84	0.49	0.4605	-0.0569	-0.1163	
-0.97844	0.081374	-0.29341	-1.33	-0.91	0.28	0.4459	-0.0477	-0.1116	
-0.976366	0.084302	-0.286212	-0.35	-2.31	0.28	0.4634	-0.0569	-0.1164	
-0.978074	0.088572	-0.27633	0.07	-2.45	0.14	0.4692	-0.0585	-0.1195	
-0.977464	0.09162199	-0.271694	0	-2.24	0	0.4676	-0.057	-0.1041	
-0.978928	0.087962	-0.289872	-0.49	-1.54	0	0.4518	-0.0568	-0.1162	
-0.973072	0.085766	-0.280356	-0.63	-3.78	0.35	0.4576	-0.0614	-0.1132	
-0.982832	0.086254	-0.291336	-1.19	-2.66	0.14	0.4576	-0.0584	-0.1163	
-0.983686	0.088816	-0.293898	-1.05	-3.64	0.14	0.4619	-0.0584	-0.1179	
-0.98515	0.090402	-0.288652	-1.82	-4.34	0.28	0.4707	-0.0676	-0.1195	
-0.980392	0.09089	-0.286822	-2.94	-5.6	0.21	0.4635	-0.0645	-0.1225	
-0.982954	0.085766	-0.279868	-3.71	-6.09	0.28	0.4692	-0.0615	-0.1164	
-0.982466	0.08686399	-0.270596	-3.85	-6.65	0.63	0.4605	-0.0584	-0.1225	
-0.985028	0.082594	-0.268522	-3.5	-7	0.77	0.4649	-0.0493	-0.1303	
-0.987834	0.082594	-0.272182	-3.43	-6.3	0.49	0.4547	-0.0523	-0.1194	
-0.988566	0.085522	-0.26901	-3.43	-6.58	0.42	0.4532	-0.0538	-0.1132	
-0.99491	0.08723	-0.266936	-3.5	-6.79	0.21	0.462	-0.0493	-0.1287	
-0.992836	0.08723	-0.2684	-3.71	-6.79	0.21	0.4634	-0.0478	-0.1256	
-0.994666	0.084668	-0.280966	-3.71	-8.05	0.28	0.4547	-0.0523	-0.1209	
-0.99918	0.087474	-0.278038	-3.36	-9.8	0.56	0.4578	-0.0553	-0.1394	
-1.00345	0.088206	-0.277916	-3.64	-11.62	0.98	0.4505	-0.0552	-0.1316	
-0.99918	0.091866	-0.267424	-3.99	-12.95	1.12	0.4621	-0.0583	-0.1348	
-0.997838	0.092476	-0.26596	-4.06	-14.84	1.19	0.4577	-0.0553	-0.1333	
-0.996984	0.095648	-0.259006	-3.85	-16.87	1.12	0.4462	-0.0537	-0.1393	
-1.00162	0.098454	-0.253272	-4.06	-18.41	0.98	0.452	-0.0506	-0.144	
-1.005036	0.094062	-0.253516	-4.83	-20.3	1.12	0.4521	-0.0628	-0.147	
-1.008696	0.103944	-0.238998	-4.83	-23.17	1.4	0.4579	-0.0537	-0.1579	
-1.002474	0.106872	-0.223138	-5.6	-24.78	1.68	0.4593	-0.0552	-0.1487	
-0.99918	0.102968	-0.216794	-6.02	-25.06	1.75	0.4593	-0.0552	-0.1487	
-1.004426	0.097844	-0.192638	-6.37	-24.99	2.1	0.4478	-0.049	-0.1578	
-1.007476	0.094916	-0.181414	-6.09	-25.41	2.24	0.4392	-0.052	-0.1608	
-1.012112	0.094184	-0.181048	-5.95	-24.64	2.17	0.4464	-0.0581	-0.1562	
-1.01321	0.092598	-0.17812	-5.6	-24.5	2.1	0.448	-0.052	-0.1763	
-1.013332	0.09552599	-0.171532	-5.74	-24.29	1.75	0.4379	-0.0504	-0.1793	
-1.011624	0.097844	-0.17263	-6.93	-24.64	1.54	0.4409	-0.0671	-0.1762	
-1.010404	0.096868	-0.16287	-7.77	-23.24	1.68	0.448	-0.0596	-0.1748	
-1.009306	0.098698	-0.142252	-7.14	-23.59	1.89	0.451	-0.0596	-0.1809	
-1.006744	0.101504	-0.136762	-6.58	-23.45	1.82	0.4351	-0.061	-0.1792	
-1.010038	0.099064	-0.12627	-7.42	-24.15	1.68	0.4394	-0.0519	-0.1886	
-1.01443	0.10309	-0.117974	-8.05	-24.22	1.26	0.4337	-0.0442	-0.1978	
-1.012722	0.107604	-0.110166	-8.33	-24.92	1.12	0.4295	-0.0608	-0.2023	
-1.020286	0.108214	-0.103822	-9.1	-26.25	1.33	0.4353	-0.0487	-0.2086	
-1.024434	0.105286	-0.09516	-9.24	-30.8	2.03	0.431	-0.0608	-0.2054	
-1.018212	0.102846	-0.075884	-11.06	-33.6	2.59	0.4354	-0.0502	-0.2194	
-1.0004	0.108214	-0.044164	-11.76	-36.12	3.01	0.4239	-0.0592	-0.2192	
-0.997472	0.110898	-0.027816	-12.32	-35.42	3.22	0.4283	-0.0561	-0.23	
-0.998936	0.111996	-0.003904	-11.48	-37.31	3.43	0.4254	-0.0531	-0.2331	
-1.008696	0.110654	0.009881999	-11.06	-35.77	2.87	0.4168	-0.0576	-0.2361	
-1.015406	0.109434	0.015982	-10.43	-34.79	2.31	0.4097	-0.0635	-0.2483	
-1.00894	0.109434	0.02806	-8.89	-35.91	2.1	0.4126	-0.0483	-0.2561	
-1.0065	0.114192	0.04575	-7.28	-36.26	2.24	0.4154	-0.0514	-0.2515	
-0.997472	0.117852	0.057584	-6.79	-38.22	2.87	0.4039	-0.0468	-0.256	
-0.996252	0.130296	0.071614	-6.44	-38.78	2.87	0.4083	-0.0543	-0.2607	
-0.996862	0.141886	0.092232	-8.4	-36.05	1.96	0.4027	-0.0542	-0.2807	
-0.986736	0.145058	0.099064	-9.8	-36.68	1.19	0.4056	-0.0588	-0.2714	
-0.994666	0.142862	0.11285	-11.48	-32.69	0.14	0.3941	-0.0496	-0.2852	
-0.994056	0.137006	0.114436	-12.46	-33.11	-0.21	0.3927	-0.048	-0.2898	
-1.004548	0.126392	0.124684	-13.37	-32.97	0.28	0.3941	-0.0465	-0.2868	
-1.006622	0.11712	0.127246	-13.44	-33.53	0.7	0.387	-0.0525	-0.2959	
-0.999668	0.114924	0.1403	-11.2	-35.35	0.21	0.3884	-0.048	-0.299	
-0.999546	0.116876	0.160308	-8.54	-35.91	0.21	0.3841	-0.0434	-0.3036	
-0.996496	0.113826	0.165554	-6.51	-36.89	0.14	0.3755	-0.0509	-0.3081	
-1.00284	0.112118	0.177754	-6.16	-36.89	0.49	0.3842	-0.0464	-0.3113	
-0.997228	0.113826	0.180438	-6.44	-37.31	1.12	0.3756	-0.0402	-0.3221	
-0.982222	0.11712	0.198128	-6.09	-39.27	1.61	0.3683	-0.0417	-0.3173	
-0.971486	0.117364	0.2135	-6.09	-39.69	2.24	0.3655	-0.0355	-0.3297	
-0.9699	0.120292	0.22753	-7.07	-39.34	3.08	0.3481	-0.0339	-0.3326	
-0.97234	0.118828	0.239364	-8.12	-38.29	3.85	0.3438	-0.0247	-0.3357	
-0.96807	0.11712	0.260836	-9.31	-37.45	4.06	0.3452	-0.0324	-0.3264	
-0.959286	0.108458	0.273036	-10.43	-37.59	3.99	0.3395	-0.0323	-0.3402	
-0.950868	0.101016	0.283528	-11.06	-36.96	4.27	0.3339	-0.0428	-0.3447	
-0.949282	0.096502	0.291702	-10.5	-37.17	4.69	0.3383	-0.0397	-0.3587	
-0.951356	0.091866	0.30561	-9.87	-37.59	4.9	0.3238	-0.0381	-0.3539	
-0.943548	0.087474	0.317932	-10.01	-37.45	4.83	0.3311	-0.0321	-0.3632	
-0.936716	0.088694	0.343674	-9.94	-37.45	4.34	0.3167	-0.0365	-0.3662	
-0.921954	0.09552599	0.359534	-8.61	-36.19	3.92	0.3153	-0.041	-0.3754	
-0.904874	0.10309	0.368684	-7.84	-35.7	3.57	0.3096	-0.0455	-0.3722	
-0.890112	0.104432	0.385154	-8.61	-34.79	3.15	0.298	-0.0409	-0.3798	
-0.886574	0.101504	0.405284	-9.17	-34.09	3.22	0.3066	-0.0318	-0.38	
-0.879742	0.10187	0.416752	-8.82	-32.13	2.87	0.2967	-0.0378	-0.3952	
-0.884744	0.10248	0.423584	-8.19	-31.08	2.94	0.298	-0.0287	-0.3891	
-0.878644	0.106628	0.439932	-7.7	-30.31	3.08	0.2939	-0.0347	-0.4029	
-0.868274	0.109922	0.451644	-6.86	-29.47	3.43	0.2952	-0.0271	-0.3999	
-0.862174	0.11895	0.460916	-5.95	-28	3.71	0.2765	-0.0406	-0.3981	
-0.856806	0.121878	0.465308	-5.88	-26.53	3.99	0.2809	-0.03	-0.409	
-0.860466	0.124074	0.467382	-5.88	-25.69	3.36	0.262	-0.0329	-0.3995	
-0.855708	0.12566	0.472872	-5.88	-24.71	2.66	0.2795	-0.0315	-0.4197	
-0.853756	0.122732	0.471164	-5.67	-24.29	2.52	0.2635	-0.0314	-0.4088	
-0.851316	0.120292	0.477874	-5.95	-23.31	2.66	0.2535	-0.0343	-0.4148	
-0.843386	0.12139	0.478118	-4.97	-23.17	2.94	0.2564	-0.0237	-0.4226	
-0.852658	0.12627	0.490684	-4.41	-21.49	3.29	0.2549	-0.0267	-0.4195	
-0.850096	0.129442	0.505812	-4.69	-21.63	3.64	0.2522	-0.0357	-0.4349	
-0.84485	0.130052	0.510082	-4.76	-21.49	3.64	0.252	-0.0267	-0.421	
-0.840824	0.127368	0.518744	-4.97	-21.21	3.15	0.2449	-0.0327	-0.4225	
-0.84119	0.12566	0.521062	-5.11	-20.72	2.45	0.2449	-0.0175	-0.4318	
-0.841068	0.125904	0.537776	-4.41	-21.21	2.38	0.2377	-0.0326	-0.4286	
-0.817156	0.127124	0.544242	-3.71	-20.58	2.1	0.2362	-0.0144	-0.4394	
-0.815326	0.127612	0.545828	-2.94	-18.48	1.54	0.2378	-0.0356	-0.4424	
-0.81069	0.12627	0.546072	-2.52	-17.64	1.05	0.2436	-0.0296	-0.441	
-0.802394	0.125538	0.552172	-2.52	-16.52	0.63	0.2306	-0.0325	-0.4377	
-0.7991	0.129442	0.557418	-2.8	-15.12	0.21	0.2205	-0.0294	-0.4454	
-0.786534	0.12749	0.588162	-3.36	-15.33	0.21	0.2219	-0.0325	-0.4407	
-0.7869	0.121634	0.568154	-3.57	-13.09	0.14	0.2188	-0.0234	-0.4284	
-0.790682	0.118096	0.578646	-3.78	-11.13	0.14	0.2233	-0.0249	-0.4377	
-0.78934	0.11773	0.582306	-3.15	-9.66	0.21	0.2204	-0.0264	-0.4407	
-0.784826	0.118096	0.579134	-3.01	-6.23	-0.07	0.219	-0.0339	-0.4438	
-0.785192	0.116998	0.584502	-3.08	-5.95	-0.21	0.2132	-0.0339	-0.4406	
-0.782386	0.111264	0.584868	-2.87	-5.32	-0.84	0.2161	-0.0233	-0.4469	
-0.784094	0.105774	0.586698	-2.59	-3.78	-0.98	0.2219	-0.0188	-0.45	
-0.793122	0.100406	0.585356	-1.75	-2.66	-0.98	0.2061	-0.0262	-0.4514	
-0.79666	0.099064	0.586698	-0.98	-2.1	-0.84	0.2133	-0.0278	-0.4484	
-0.79727	0.10004	0.585356	-0.07	-1.47	-0.91	0.2103	-0.0218	-0.4437	
-0.797392	0.103944	0.58682	0.63	-0.7	-1.19	0.2074	-0.0187	-0.4483	
-0.796782	0.107604	0.587552	1.19	0.14	-1.33	0.2147	-0.0248	-0.4515	
-0.800686	0.106628	0.58255	1.54	0.98	-1.75	0.206	-0.0217	-0.4514	
-0.804468	0.107238	0.58255	2.1	1.19	-1.96	0.2176	-0.0248	-0.4484	
-0.802272	0.110288	0.580842	2.87	1.68	-1.96	0.2104	-0.0293	-0.4514	
-0.797392	0.115168	0.577792	2.94	1.89	-1.61	0.2247	-0.0128	-0.4408	
-0.795806	0.112728	0.58072	2.66	2.52	-1.47	0.2147	-0.0233	-0.4469	
-0.799344	0.110898	0.578158	1.89	3.22	-1.19	0.2162	-0.0248	-0.453	
-0.80215	0.110776	0.581086	1.54	3.08	-0.98	0.2117	-0.0218	-0.4453	
-0.801662	0.114192	0.584014	1.68	3.36	-0.77	0.2175	-0.0294	-0.4392	
-0.80276	0.111874	0.582306	1.96	4.27	-0.56	0.2218	-0.0188	-0.4392	
-0.80215	0.10675	0.579622	2.17	5.11	-0.56	0.216	-0.0188	-0.4407	
-0.798612	0.104554	0.572668	2.52	6.02	-0.63	0.2147	-0.0172	-0.45	
-0.798734	0.106506	0.571936	2.8	6.44	-0.63	0.2234	-0.0279	-0.4454	
-0.799954	0.111264	0.571814	3.15	7.14	-0.49	0.2132	-0.0263	-0.4468	
-0.803004	0.113948	0.5673	3.29	7.63	-0.35	0.2219	-0.037	-0.4422	
-0.803614	0.113704	0.568764	3.29	8.4	-0.28	0.232	-0.0219	-0.4409	
-0.802882	0.111752	0.565958	3.01	9.52	-0.35	0.2233	-0.0295	-0.4331	
-0.80215	0.113216	0.557418	3.64	11.06	-0.42	0.2203	-0.0173	-0.4362	
-0.798978	0.110044	0.570838	3.99	11.2	-0.49	0.232	-0.0341	-0.4362	
-0.80215	0.109556	0.556198	4.62	12.88	-0.42	0.2276	-0.034	-0.4346	
-0.802882	0.110288	0.554856	5.25	13.79	-0.35	0.2334	-0.0386	-0.4331	
-0.808616	0.114558	0.548634	5.81	15.26	-0.07	0.2262	-0.034	-0.4346	
-0.80947	0.117974	0.544486	6.23	15.96	-0.07	0.2422	-0.0387	-0.4409	
-0.811788	0.12078	0.537776	6.44	17.15	-0.14	0.2363	-0.0311	-0.4347	
-0.815448	0.12017	0.53375	6.3	18.2	-0.35	0.2406	-0.0326	-0.4301	
-0.81923	0.118828	0.528626	6.16	19.04	-0.35	0.2348	-0.0402	-0.427	
-0.826672	0.119804	0.52155	6.37	20.58	-0.42	0.242	-0.0327	-0.424	
-0.829356	0.121268	0.512522	7	21.56	-0.49	0.245	-0.0387	-0.4301	
-0.84058	0.121756	0.507276	7.21	23.52	-0.63	0.255	-0.0389	-0.4164	
-0.84302	0.122	0.495076	7	25.76	-0.77	0.2609	-0.0374	-0.4272	
-0.843752	0.125782	0.474336	7.42	25.9	-0.77	0.2578	-0.0359	-0.4164	
-0.854488	0.12993	0.47031	6.86	29.68	-1.26	0.2681	-0.0374	-0.4258	
-0.864492	0.13054	0.46482	7.28	28.49	-1.12	0.2637	-0.0496	-0.4118	
-0.864492	0.132492	0.45933	6.72	31.99	-1.54	0.2723	-0.042	-0.415	
-0.8662	0.131272	0.444812	6.72	32.55	-1.61	0.2781	-0.0436	-0.4151	
-0.868152	0.131394	0.43249	7.35	32.27	-1.4	0.2809	-0.0467	-0.4012	
-0.876936	0.13237	0.42273	6.58	37.59	-1.96	0.2866	-0.0331	-0.3998	
-0.893284	0.1342	0.408334	6.58	37.94	-2.31	0.2909	-0.0377	-0.3921	
-0.89487	0.132736	0.391864	6.23	38.92	-2.8	0.3039	-0.0424	-0.3907	
-0.905362	0.133346	0.384666	5.95	39.62	-3.29	0.301	-0.0485	-0.3814	
-0.91134	0.130906	0.3721	6.3	40.53	-3.43	0.3039	-0.0455	-0.3814	
-0.912072	0.128344	0.359534	6.3	40.11	-3.64	0.3197	-0.0502	-0.3723	
-0.91927	0.127612	0.347578	6.37	40.18	-3.99	0.314	-0.0425	-0.3815	
-0.928664	0.131516	0.334402	7.07	41.79	-4.27	0.3255	-0.0533	-0.3662	
-0.933422	0.139446	0.316712	7.7	40.53	-4.34	0.3342	-0.0457	-0.3786	
-0.942084	0.142374	0.304756	7.21	40.67	-4.55	0.3298	-0.0533	-0.3631	
-0.954894	0.140788	0.292556	7.14	38.92	-4.55	0.3382	-0.0443	-0.3479	
-0.956724	0.136152	0.280112	6.79	39.55	-4.55	0.3413	-0.0565	-0.3524	
-0.964654	0.133834	0.266204	7.42	37.66	-4.06	0.3528	-0.0505	-0.3588	
-0.980514	0.13237	0.260592	8.96	31.78	-3.08	0.3498	-0.049	-0.3449	
-0.960018	0.12932	0.24278	10.01	24.99	-2.1	0.3627	-0.0491	-0.3373	
-0.966972	0.124074	0.233142	9.8	25.2	-1.82	0.3554	-0.0415	-0.3357	
-0.965996	0.124318	0.22814	10.36	22.68	-1.05	0.3598	-0.0476	-0.3296	
-0.968558	0.129686	0.21777	10.22	22.75	-1.33	0.3568	-0.0431	-0.3265	
-0.977586	0.137006	0.202032	10.22	25.34	-1.89	0.3568	-0.0461	-0.3188	
-0.977708	0.137494	0.195078	9.94	27.86	-2.31	0.3698	-0.0553	-0.3173	
-0.991494	0.135542	0.184586	10.08	29.05	-2.59	0.3598	-0.0552	-0.3249	
-1.003938	0.134444	0.159942	10.36	30.8	-2.52	0.3684	-0.0583	-0.3188	
-1.019066	0.138714	0.147254	10.29	29.75	-2.59	0.3653	-0.0554	-0.3018	
-1.033096	0.13237	0.123342	9.45	28.63	-2.59	0.3856	-0.0464	-0.3052	
-1.033706	0.122	0.10675	9.87	26.04	-2.17	0.3741	-0.0584	-0.3112	
-1.02968	0.117852	0.097356	10.22	27.37	-1.96	0.3813	-0.057	-0.302	
-1.03151	0.116754	0.08686399	10.08	29.19	-2.38	0.3885	-0.0585	-0.3067	
-1.027484	0.12322	0.075396	9.87	24.22	-2.8	0.3913	-0.0525	-0.2975	
-1.04188	0.12566	0.072346	8.26	24.29	-3.43	0.3913	-0.0632	-0.2851	
-1.033584	0.116876	0.073322	7.63	20.37	-3.92	0.3956	-0.0556	-0.2883	
-1.029314	0.101992	0.083082	7.7	19.6	-4.34	0.397	-0.0678	-0.2759	
-1.024312	0.097234	0.076372	8.89	20.09	-4.13	0.3941	-0.0602	-0.279	
-1.016016	0.106262	0.07015	10.71	21.56	-3.64	0.4013	-0.0573	-0.2775	
-1.015528	0.118584	0.070638	11.34	22.54	-2.8	0.3926	-0.0602	-0.2805	
-1.022238	0.136274	0.060756	9.87	21.35	-1.82	0.4012	-0.0573	-0.2698	
-1.02114	0.143472	0.047214	8.26	21.21	-1.96	0.4041	-0.0603	-0.2729	
-1.01138	0.139202	0.028426	6.79	21.42	-2.31	0.4084	-0.0574	-0.2668	
-1.012478	0.126148	0.028182	5.6	20.16	-1.89	0.407	-0.0634	-0.2622	
-1.011258	0.114314	0.018788	5.25	19.39	-0.98	0.4155	-0.0651	-0.2484	
-1.016016	0.116144	0.015982	5.53	18.2	0.14	0.4112	-0.0726	-0.2437	
-1.00589	0.118584	0.015616	5.04	17.29	0.56	0.4097	-0.0681	-0.2437	
-1.00589	0.131638	0.010004	5.6	17.15	0.07	0.4125	-0.0545	-0.2422	
-1.011502	0.135542	0.0122	5.88	18.2	-0.42	0.4139	-0.0621	-0.2345	
-1.014308	0.13847	0.002074	5.25	19.74	-1.05	0.4183	-0.0621	-0.2407	
-1.009916	0.139446	-0.01647	4.55	19.18	-1.26	0.414	-0.0636	-0.2407	
-1.006866	0.13481	-0.0305	3.5	18.9	-1.47	0.424	-0.0561	-0.23	
-1.003084	0.127124	-0.032086	2.94	18.48	-1.19	0.4197	-0.056	-0.2392	
-0.995764	0.125416	-0.030256	3.22	18.55	-0.77	0.4226	-0.0652	-0.2299	
-0.99064	0.12322	-0.02745	3.29	16.94	-0.91	0.4241	-0.0728	-0.2299	
-0.98271	0.117974	-0.02562	3.5	17.36	-1.19	0.4196	-0.0546	-0.233	
-0.981978	0.11529	-0.033672	3.64	20.72	-1.54	0.4311	-0.0547	-0.2224	
-0.993934	0.116876	-0.04453	4.41	20.37	-2.1	0.4195	-0.0637	-0.2114	
-0.997716	0.116388	-0.045506	4.62	19.88	-2.24	0.4296	-0.0669	-0.2084	
-0.998082	0.11651	-0.050264	4.06	20.3	-2.38	0.4339	-0.0639	-0.21	
-0.988566	0.118462	-0.060878	3.29	20.79	-2.1	0.4295	-0.0593	-0.2038	
-0.991616	0.116876	-0.069296	3.43	21.28	-1.61	0.4267	-0.0653	-0.2038	
-1.005036	0.124074	-0.07991	2.87	21.35	-1.33	0.4266	-0.0608	-0.1976	
-1.020896	0.131028	-0.089426	2.03	22.26	-1.82	0.4366	-0.0594	-0.19	
-1.023946	0.126758	-0.115168	1.82	21.84	-2.45	0.4425	-0.0685	-0.1962	
-1.019432	0.121878	-0.135542	1.89	21.49	-2.73	0.428	-0.0654	-0.1961	
-1.01504	0.119194	-0.131028	1.96	20.23	-2.31	0.438	-0.0625	-0.1823	
-1.005524	0.114192	-0.13481	1.54	20.51	-1.61	0.4438	-0.0595	-0.184	
-1.002108	0.104798	-0.144326	1.33	21.21	-1.33	0.435	-0.0595	-0.1746	
-0.995154	0.10004	-0.133224	2.52	19.53	-1.61	0.4495	-0.058	-0.1794	
-1.001254	0.101748	-0.131028	3.29	20.3	-2.17	0.4421	-0.0535	-0.167	
-1.009306	0.099186	-0.14762	4.34	20.58	-2.1	0.4437	-0.058	-0.1747	
-1.013088	0.100528	-0.160308	6.16	20.58	-2.03	0.4537	-0.0551	-0.1671	
-1.009184	0.098088	-0.174338	7.14	20.58	-1.75	0.4494	-0.0596	-0.1671	
-1.004792	0.092476	-0.195078	7.7	19.95	-1.47	0.4436	-0.0596	-0.1624	
-1.00223	0.099552	-0.196542	8.47	18.69	-0.98	0.4552	-0.0749	-0.1593	
-1.004548	0.10797	-0.207522	7.84	18.06	-0.63	0.4522	-0.0597	-0.1563	
-1.005524	0.115778	-0.227408	6.72	17.5	-0.49	0.4479	-0.052	-0.164	
-1.007232	0.117852	-0.228384	4.62	16.24	-0.49	0.4463	-0.0627	-0.1439	
-0.997106	0.110898	-0.248514	2.24	14.21	-0.63	0.455	-0.0598	-0.1425	
-0.9882	0.107482	-0.242048	1.12	11.27	-0.63	0.455	-0.0567	-0.1471	
-0.998936	0.105896	-0.242658	0.7	9.45	-0.14	0.4535	-0.0674	-0.1378	
-1.004548	0.104188	-0.235826	0.91	9.1	0.42	0.4549	-0.0613	-0.1347	
-0.995032	0.105774	-0.237778	0.98	9.52	0.77	0.4478	-0.0703	-0.1454	
-0.985516	0.10858	-0.233264	0.63	8.96	0.21	0.4622	-0.0568	-0.1487	
-0.989908	0.105042	-0.226432	1.12	8.47	-0.63	0.4521	-0.0658	-0.1424	
-0.992104	0.10736	-0.22753	2.52	7.91	-1.05	0.455	-0.0658	-0.144	
-0.988932	0.114314	-0.24156	3.01	8.12	-1.05	0.4579	-0.0674	-0.1378	
-0.989542	0.121268	-0.246196	2.45	7.56	-0.63	0.4521	-0.0704	-0.1362	
-0.998692	0.125782	-0.24949	1.26	6.58	-0.49	0.4592	-0.06439999	-0.1348	
-1.001376	0.121878	-0.266814	0	6.3	-0.56	0.4592	-0.0583	-0.1302	
-0.988566	0.111508	-0.278282	-0.07	5.25	-0.98	0.4534	-0.06439999	-0.1301	
-0.98698	0.103334	-0.266936	-0.14	2.8	-1.19	0.4534	-0.06439999	-0.1301	
-0.988322	0.098332	-0.257298	-0.35	1.4	-0.91	0.4504	-0.0568	-0.1239	
-0.9882	0.101626	-0.252052	0.28	1.05	-0.49	0.4506	-0.075	-0.1269	
-0.987834	0.111386	-0.252052	0.42	0.49	-0.7	0.4621	-0.0629	-0.1348	
-0.991006	0.103578	-0.257908	-0.49	0	-1.05	0.4607	-0.072	-0.1348	
-0.994178	0.095038	-0.247538	-0.63	-0.35	-0.91	0.452	-0.0598	-0.1332	
-0.99186	0.097112	-0.249246	0	-0.49	-0.49	0.4534	-0.0568	-0.1347	
-0.987224	0.103212	-0.255102	0.56	-0.84	-0.42	0.4607	-0.0674	-0.1379	
-0.98393	0.101016	-0.245952	0.49	-1.61	-0.35	0.465	-0.0614	-0.1302	
-0.98637	0.095282	-0.242048	-0.28	-1.26	-0.14	0.462	-0.0569	-0.1256	
-0.985028	0.098088	-0.244122	-0.42	-1.47	0.07	0.4534	-0.0628	-0.1301	
-0.987224	0.101382	-0.243146	-0.42	-1.61	0.07	0.4519	-0.0613	-0.1285	
-0.989786	0.102724	-0.24339	-0.42	-1.47	0.14	0.4577	-0.0553	-0.1302	
-0.989054	0.099308	-0.245952	-0.77	-1.26	0.21	0.4607	-0.0598	-0.1348	
-0.982832	0.094794	-0.243878	-0.7	-1.54	0.42	0.4622	-0.0613	-0.141	
-0.98027	0.10065	-0.236314	-0.56	-1.75	0.49	0.4534	-0.0583	-0.1317	
-0.984052	0.108336	-0.228994	-0.42	-1.47	0.28	0.4607	-0.06439999	-0.1348	
-0.984906	0.107238	-0.227774	-0.42	-0.28	0.21	0.4505	-0.0659	-0.1301	
-0.98454	0.101626	-0.23546	-0.63	0.98	0.21	0.4535	-0.0613	-0.1455	
-0.986492	0.105164	-0.23302	-0.63	1.19	0.35	0.4564	-0.0613	-0.1378	
-0.988444	0.101382	-0.239852	-0.77	1.4	0.49	0.4578	-0.0629	-0.1317	
-0.985882	0.10065	-0.24705	-0.49	1.47	0.28	0.4521	-0.0658	-0.1393	
-0.984296	0.104188	-0.239852	-0.49	0.91	0.21	0.4591	-0.0584	-0.1271	
-0.98698	0.104554	-0.241804	-0.56	1.05	-0.07	0.452	-0.0476	-0.1409	
-0.986126	0.104188	-0.246074	-0.14	0.77	-0.14	0.4579	-0.0674	-0.1378	
-0.988444	0.10797	-0.248514	-0.14	0.21	-0.14	0.4592	-0.0583	-0.1333	
-0.990274	0.112728	-0.252052	-1.12	-0.91	-0.14	0.4505	-0.0704	-0.1254	
-0.986736	0.106628	-0.25864	-1.33	-2.1	-0.07	0.4548	-0.0689	-0.1239	
-0.989542	0.106628	-0.254492	-1.4	-3.29	0.07	0.452	-0.0613	-0.1316	
-0.989664	0.109556	-0.248514	-1.82	-4.2	-0.14	0.449	-0.0583	-0.1285	
-0.989054	0.111752	-0.24766	-1.75	-5.32	-0.21	0.4592	-0.0614	-0.1317	
-0.991982	0.111386	-0.24827	-1.68	-5.95	-0.07	0.4534	-0.0568	-0.1317	
-0.997716	0.109312	-0.24827	-2.03	-6.37	0.35	0.452	-0.0613	-0.1393	
-1.008086	0.10431	-0.25315	-2.45	-6.58	0.77	0.4607	-0.0614	-0.1348	
-0.998326	0.109068	-0.238876	-2.52	-7.42	0.77	0.465	-0.0568	-0.1364	
-1.005524	0.104066	-0.244244	-2.87	-9.38	0.63	0.4563	-0.06439999	-0.1317	
-1.007964	0.105652	-0.23302	-2.94	-8.26	0.7	0.4519	-0.0598	-0.1301	
-1.006988	0.104188	-0.230092	-2.87	-8.89	0.77	0.4533	-0.0583	-0.1255	
-1.00467	0.102358	-0.231068	-2.8	-10.22	0.91	0.4536	-0.0628	-0.1471	
-1.003328	0.10126	-0.242048	-2.66	-10.78	0.84	0.4592	-0.0598	-0.1379	
-1.00162	0.102358	-0.24339	-2.66	-13.02	0.91	0.4478	-0.0597	-0.1485	
-1.004304	0.102724	-0.236436	-2.73	-15.12	0.98	0.4522	-0.0673	-0.147	
-1.01321	0.11102	-0.231922	-2.66	-17.85	1.33	0.4464	-0.0536	-0.1578	
-1.019676	0.115778	-0.22509	-3.57	-18.27	1.54	0.4522	-0.0567	-0.1563	
-1.023336	0.117608	-0.219356	-4.13	-18.9	1.68	0.4435	-0.0581	-0.1562	
-1.014918	0.118584	-0.208498	-4.2	-21.14	1.4	0.4422	-0.0596	-0.1654	
-1.006012	0.121878	-0.191784	-4.76	-21.91	1.05	0.4464	-0.0627	-0.1531	
-1.000644	0.124806	-0.182756	-5.32	-22.82	0.77	0.4436	-0.0581	-0.167	
-1.010404	0.12993	-0.172142	-6.02	-22.33	0.56	0.4423	-0.0595	-0.1778	
-1.01382	0.129442	-0.163968	-6.79	-23.17	0.35	0.4452	-0.0671	-0.1809	
-1.014186	0.126758	-0.159942	-8.4	-21.7	0.28	0.4366	-0.0594	-0.187	
-1.022726	0.122976	-0.16836	-9.24	-21.63	0.21	0.4395	-0.0686	-0.1839	
-1.020408	0.11834	-0.170556	-9.1	-24.15	-0.07	0.4409	-0.0625	-0.1855	
-1.015528	0.109556	-0.144692	-10.01	-23.52	-0.35	0.4424	-0.0655	-0.1916	
-1.016504	0.106384	-0.14396	-10.57	-26.32	-0.7	0.4353	-0.0563	-0.2085	
-1.013332	0.108092	-0.12261	-10.78	-27.02	-1.05	0.4354	-0.0593	-0.2132	
-1.007842	0.107116	-0.09699	-10.71	-29.68	-0.91	0.4294	-0.0487	-0.2054	
-1.006012	0.110898	-0.088694	-11.27	-29.68	-0.56	0.4324	-0.0563	-0.2054	
-0.997716	0.110044	-0.073322	-10.78	-31.99	0.14	0.4267	-0.0486	-0.2239	
-1.001986	0.107604	-0.054046	-11.41	-33.67	1.12	0.4282	-0.0501	-0.2224	
-0.994788	0.104188	-0.031476	-12.53	-35.91	1.61	0.4327	-0.0577	-0.2316	
-0.990152	0.1037	-0.020496	-13.16	-36.54	1.33	0.4296	-0.0425	-0.2286	
-0.999424	0.104066	0.009272	-13.79	-36.33	0.77	0.4125	-0.0514	-0.2453	
-1.00162	0.111264	0.036234	-13.37	-35.21	0.35	0.4111	-0.0529	-0.2515	
-0.998692	0.124318	0.046726	-12.46	-35.07	0.28	0.4111	-0.0559	-0.2499	
-1.006622	0.125538	0.046116	-12.74	-31.99	-0.49	0.4082	-0.0514	-0.2453	
-1.025654	0.131516	0.056852	-12.18	-33.04	-1.05	0.3995	-0.0422	-0.2545	
-1.01504	0.127612	0.063074	-11.41	-34.37	-1.19	0.4039	-0.0361	-0.2623	
-1.010038	0.125904	0.063928	-10.5	-35.7	-0.84	0.4082	-0.0346	-0.2592	
-0.998448	0.12932	0.08174	-9.52	-35.42	-0.7	0.3982	-0.0451	-0.2714	
-0.986126	0.127856	0.098698	-9.17	-32.69	-1.19	0.4055	-0.0513	-0.2668	
-0.988566	0.127368	0.10431	-9.1	-32.13	-1.54	0.3925	-0.039	-0.2852	
-0.997106	0.130662	0.105652	-9.66	-30.38	-1.54	0.3853	-0.0435	-0.2851	
-1.002962	0.129564	0.114192	-10.36	-31.92	-1.47	0.3884	-0.0449	-0.2975	
-1.000278	0.11956	0.129076	-11.48	-33.18	-1.05	0.3884	-0.0449	-0.3052	
-1.0126	0.106506	0.13969	-12.04	-33.81	-0.49	0.3769	-0.0539	-0.3004	
-1.014308	0.09821	0.148474	-12.04	-36.26	0.21	0.3667	-0.0387	-0.3081	
-1.00833	0.097722	0.168848	-11.13	-36.89	0.63	0.3769	-0.0372	-0.3144	
-0.997716	0.094428	0.176656	-9.1	-37.59	1.33	0.3696	-0.0326	-0.3128	
-0.995398	0.095648	0.18666	-7.98	-37.8	2.1	0.3654	-0.0416	-0.3204	
-0.998082	0.10187	0.194712	-7.91	-38.01	2.31	0.3612	-0.037	-0.3312	
-0.980636	0.108336	0.20618	-7.49	-39.06	1.96	0.3598	-0.0355	-0.3373	
-0.976122	0.112728	0.219722	-7.56	-39.83	1.75	0.3468	-0.0429	-0.3356	
-0.976244	0.105774	0.237534	-8.26	-40.11	1.96	0.3598	-0.0369	-0.345	
-0.97661	0.095038	0.25315	-8.68	-38.78	2.66	0.3583	-0.0278	-0.3466	
-0.958432	0.085644	0.269864	-8.89	-39.41	3.36	0.3453	-0.0277	-0.3418	
-0.95099	0.085034	0.290482	-9.38	-38.99	3.57	0.3469	-0.0307	-0.3603	
-0.94245	0.091012	0.297802	-9.38	-37.73	3.5	0.3382	-0.0231	-0.3587	
-0.933666	0.09394	0.318664	-8.75	-38.92	4.06	0.3268	-0.0351	-0.3678	
-0.93086	0.094062	0.327692	-8.47	-38.36	4.48	0.3283	-0.0366	-0.374	
-0.927688	0.091744	0.348432	-8.12	-38.71	4.62	0.3195	-0.0229	-0.374	
-0.922442	0.089182	0.360388	-7.7	-38.29	3.99	0.3166	-0.0198	-0.3739	
-0.91195	0.087962	0.37942	-7.14	-37.03	3.08	0.3095	-0.0243	-0.3862	
-0.897188	0.092842	0.390644	-5.81	-36.4	2.17	0.2995	-0.0302	-0.3876	
-0.885842	0.096868	0.398208	-5.32	-34.93	1.61	0.3053	-0.0242	-0.3923	
-0.87352	0.10309	0.408822	-5.25	-33.67	1.75	0.2979	-0.0257	-0.3814	
-0.861686	0.10492	0.424438	-5.04	-32.9	2.45	0.2807	-0.0225	-0.4013	
-0.854976	0.108946	0.441274	-4.76	-32.2	2.94	0.2952	-0.0302	-0.3999	
-0.853512	0.111508	0.452376	-4.83	-31.5	3.01	0.2851	-0.0194	-0.4075	
-0.851194	0.11041	0.470432	-4.9	-29.75	2.8	0.2865	-0.024	-0.4014	
-0.846924	0.108092	0.484584	-4.34	-28.28	2.45	0.2736	-0.03	-0.4058	
-0.837896	0.1098	0.483486	-3.85	-26.11	1.75	0.2636	-0.0359	-0.4119	
-0.842898	0.107726	0.48861	-3.57	-24.57	1.75	0.2606	-0.0208	-0.4088	
-0.84912	0.103944	0.495198	-3.01	-22.96	1.96	0.2607	-0.0238	-0.4165	
-0.838384	0.109312	0.49227	-2.1	-23.45	2.52	0.2607	-0.0252	-0.4242	
-0.829844	0.122854	0.503616	-1.96	-21.63	2.59	0.252	-0.0267	-0.4195	
-0.837408	0.12688	0.505446	-2.17	-19.25	2.03	0.2491	-0.0252	-0.4195	
-0.846924	0.125294	0.512034	-3.15	-17.85	1.82	0.2477	-0.0297	-0.4225	
-0.853024	0.122366	0.519964	-2.87	-18.06	1.89	0.2406	-0.0251	-0.4317	
-0.852536	0.119926	0.518256	-2.31	-17.78	2.03	0.2435	-0.0296	-0.4333	
-0.83753	0.117608	0.52704	-1.96	-17.15	2.03	0.2463	-0.0221	-0.4318	
-0.8418	0.12017	0.531554	-1.68	-15.26	1.68	0.2435	-0.0296	-0.4348	
-0.84302	0.125172	0.538874	-1.47	-14.56	1.54	0.2435	-0.0327	-0.4302	
-0.828014	0.125416	0.527284	-0.98	-17.36	1.4	0.2348	-0.0326	-0.4332	
-0.818742	0.118462	0.536312	-2.45	-12.18	1.75	0.2363	-0.0204	-0.4394	
-0.812764	0.111142	0.548146	-2.24	-14.35	1.61	0.2262	-0.0279	-0.4408	
-0.811544	0.106384	0.550098	-2.38	-12.18	1.54	0.2319	-0.0204	-0.4409	
-0.802516	0.109068	0.562176	-1.4	-11.97	1.61	0.2248	-0.0203	-0.4516	
-0.797148	0.115168	0.565714	-0.84	-10.36	1.54	0.2377	-0.0189	-0.444	
-0.791536	0.115168	0.570594	-0.91	-8.82	1.26	0.2161	-0.0294	-0.4407	
-0.791902	0.11346	0.569984	-1.26	-7.21	0.98	0.2175	-0.0279	-0.4407	
-0.791048	0.110166	0.575962	-1.47	-6.3	0.84	0.2233	-0.0203	-0.4408	
-0.790072	0.109068	0.57767	-1.33	-5.53	0.63	0.2132	-0.0294	-0.4422	
-0.788608	0.111874	0.579622	-0.7	-4.62	0.35	0.2175	-0.0248	-0.4438	
-0.790682	0.11468	0.58194	-0.14	-3.29	0	0.2247	-0.0249	-0.4408	
-0.793488	0.115534	0.58011	0.07	-2.52	-0.14	0.2147	-0.0233	-0.4546	
-0.794342	0.113826	0.577914	0	-1.4	-0.28	0.2133	-0.0293	-0.4499	
-0.799222	0.11346	0.576572	0.14	-0.7	-0.42	0.2118	-0.0309	-0.4453	
-0.800198	0.113338	0.578402	0.7	-0.07	-0.35	0.2161	-0.0263	-0.4453	
-0.80093	0.113338	0.579378	1.89	0.63	-0.56	0.2219	-0.0294	-0.4392	
-0.805688	0.11712	0.572058	2.52	1.82	-0.84	0.2192	-0.0354	-0.4546	
-0.806298	0.11895	0.576572	2.24	1.96	-1.05	0.2104	-0.0308	-0.4452	
-0.804102	0.120048	0.572546	1.75	2.24	-1.05	0.216	-0.0233	-0.4392	
-0.803126	0.116022	0.57218	1.54	2.94	-0.98	0.2248	-0.0249	-0.447	
-0.804956	0.114802	0.570106	1.61	4.06	-0.77	0.2276	-0.0249	-0.4408	
-0.808372	0.116022	0.562664	2.1	4.76	-0.63	0.2132	-0.0187	-0.4438	
-0.810324	0.116388	0.567422	2.45	5.04	-0.63	0.2175	-0.0279	-0.4361	
-0.807152	0.116754	0.56791	2.45	5.32	-0.63	0.2102	-0.0218	-0.4391	
-0.802882	0.115168	0.571692	2.73	5.88	-0.63	0.2306	-0.0386	-0.4423	
-0.801906	0.113826	0.566812	3.01	6.72	-0.84	0.2277	-0.0294	-0.4485	
-0.80093	0.112118	0.56608	2.87	7.56	-0.98	0.2175	-0.0309	-0.4361	
-0.801174	0.11346	0.563396	2.45	8.89	-0.84	0.2204	-0.0309	-0.4407	
-0.801052	0.11285	0.562298	2.38	10.01	-0.49	0.2219	-0.0218	-0.4439	
-0.801662	0.114558	0.563518	2.73	11.48	-0.21	0.2262	-0.0295	-0.4392	
-0.80398	0.113338	0.558272	3.43	13.02	-0.35	0.2233	-0.034	-0.4392	
-0.807884	0.113094	0.563396	3.92	14.07	-0.7	0.2348	-0.0296	-0.4285	
-0.813862	0.112362	0.539606	4.55	15.61	-0.84	0.2377	-0.025	-0.4363	
-0.814838	0.113948	0.535702	5.53	16.24	-0.98	0.245	-0.0296	-0.4394	
-0.817766	0.11651	0.538996	6.02	17.01	-1.05	0.2376	-0.0266	-0.4224	
-0.82411	0.11834	0.52765	6.65	18.2	-1.05	0.245	-0.0327	-0.4317	
-0.82472	0.118096	0.517768	7	19.18	-1.12	0.2464	-0.0296	-0.4364	
-0.82716	0.119438	0.510082	7.21	20.44	-1.26	0.2449	-0.0312	-0.4271	
-0.831796	0.121146	0.50325	7.14	21.42	-1.19	0.2506	-0.0282	-0.4195	
-0.840824	0.122366	0.499712	6.65	22.82	-0.91	0.2463	-0.0388	-0.4163	
-0.843996	0.124196	0.489098	7.28	22.47	-0.56	0.2565	-0.0343	-0.4257	
-0.848266	0.124806	0.482632	7.49	25.27	-0.7	0.2593	-0.0374	-0.418	
-0.854122	0.12566	0.47885	7.63	27.37	-1.19	0.2607	-0.0344	-0.4103	
-0.861076	0.127856	0.467992	7.28	30.17	-2.03	0.2592	-0.0435	-0.4025	
-0.86071	0.129198	0.450546	7.28	30.17	-2.45	0.2752	-0.0421	-0.4119	
-0.870104	0.134566	0.444568	6.86	31.92	-2.87	0.2752	-0.0436	-0.4073	
-0.876326	0.136762	0.432002	6.23	33.6	-3.08	0.2852	-0.0392	-0.3997	
-0.88572	0.135176	0.415776	5.74	33.74	-2.66	0.2981	-0.0378	-0.3922	
-0.905484	0.131394	0.408212	5.11	36.61	-2.38	0.2923	-0.0332	-0.3968	
-0.911218	0.12749	0.396622	5.46	35.98	-1.96	0.2952	-0.0393	-0.386	
-0.91805	0.125172	0.384178	5.39	37.38	-2.24	0.3066	-0.0334	-0.3799	
-0.917318	0.124928	0.36417	6.16	37.31	-2.45	0.3082	-0.05	-0.3814	
-0.922564	0.131028	0.35563	6.79	37.31	-3.01	0.3095	-0.0471	-0.3691	
-0.936472	0.137006	0.340868	7	37.87	-3.29	0.3197	-0.0426	-0.3785	
-0.941108	0.13664	0.324886	6.37	37.8	-3.57	0.3196	-0.0426	-0.3692	
-0.951234	0.131394	0.316224	6.02	37.24	-3.78	0.3267	-0.0381	-0.3586	
-0.939766	0.124684	0.299998	6.93	34.93	-3.92	0.3325	-0.0458	-0.3509	
-0.95038	0.124684	0.29097	7.56	36.96	-4.69	0.3296	-0.0428	-0.3493	
-0.957944	0.125538	0.279624	8.68	36.05	-5.04	0.3354	-0.0428	-0.3525	
-0.957944	0.127002	0.261446	10.01	33.11	-5.18	0.3484	-0.0535	-0.3464	
-0.972706	0.129076	0.25742	10.43	34.51	-5.88	0.3498	-0.052	-0.3387	
-0.986248	0.135664	0.2501	11.83	29.12	-5.46	0.3512	-0.049	-0.3387	
-0.974292	0.143472	0.23729	12.32	23.52	-4.62	0.3525	-0.0521	-0.3264	
-0.971364	0.149694	0.229482	11.27	22.33	-3.71	0.3512	-0.0521	-0.3356	
-0.965874	0.151768	0.223748	9.87	19.46	-2.17	0.3555	-0.0612	-0.331	
-0.961848	0.151524	0.220088	8.12	18.41	-0.49	0.3511	-0.0384	-0.3326	
-0.963922	0.144814	0.21411	6.23	19.67	0.42	0.3598	-0.0506	-0.3311	
-0.976122	0.125416	0.210572	4.62	23.38	0.91	0.3583	-0.0476	-0.3234	
-0.964044	0.112484	0.200812	5.88	24.64	0.7	0.3655	-0.0523	-0.3173	
-0.97173	0.107848	0.194956	6.79	26.95	-0.14	0.377	-0.0524	-0.3128	
-0.980148	0.109678	0.183	7.7	28.35	-1.12	0.3712	-0.0493	-0.3112	
-0.991372	0.115778	0.180194	8.54	27.02	-1.96	0.3755	-0.0448	-0.3128	
-0.998326	0.122244	0.172874	9.94	24.5	-2.8	0.3771	-0.0675	-0.3158	
-0.997472	0.122976	0.15555	10.5	23.52	-3.36	0.3768	-0.0524	-0.2958	
-1.007476	0.12078	0.148108	9.38	29.12	-3.85	0.3726	-0.0569	-0.3035	
-1.001498	0.110166	0.13237	8.75	30.73	-3.85	0.3826	-0.0571	-0.2897	
-1.020286	0.105408	0.110532	8.26	33.11	-3.85	0.3856	-0.0677	-0.2958	
-1.034804	0.11285	0.100284	7.7	35.49	-3.99	0.3855	-0.0586	-0.2851	
-1.028338	0.12383	0.064294	8.26	34.58	-4.48	0.3941	-0.0632	-0.2805	
-1.028704	0.125294	0.030378	9.03	35.77	-5.67	0.3999	-0.0542	-0.2852	
-1.015772	0.120658	0.022448	10.22	32.41	-6.02	0.3998	-0.0557	-0.2775	
-1.016504	0.113826	0.027938	9.8	30.66	-5.46	0.4012	-0.0618	-0.2667	
-1.012112	0.111996	0.007076	9.38	27.44	-3.71	0.4126	-0.0498	-0.2623	
-1.014064	0.116022	0.02196	9.38	27.79	-2.8	0.4098	-0.0498	-0.2653	
-1.006744	0.110532	0.015982	8.68	27.44	-2.66	0.4112	-0.0559	-0.2545	
-1.004792	0.111508	0.024888	9.52	28.56	-3.64	0.4082	-0.059	-0.2452	
-1.011746	0.10431	0.015006	11.2	28.07	-4.55	0.4182	-0.053	-0.2377	
-1.001376	0.10492	0.006588	12.18	28.7	-5.25	0.4082	-0.06659999	-0.2375	
-0.999058	0.110898	-0.01037	11.41	30.03	-5.6	0.4211	-0.0667	-0.2284	
-0.987102	0.119804	-0.017324	9.8	28.35	-5.04	0.4224	-0.0698	-0.213	
-1.00223	0.122854	-0.026352	8.26	30.87	-4.55	0.4282	-0.0607	-0.2208	
-1.001254	0.120658	-0.041846	6.09	29.4	-3.85	0.4268	-0.0592	-0.2239	
-1.005036	0.125172	-0.050752	5.11	29.96	-3.92	0.4224	-0.0592	-0.2192	
-1.000888	0.122854	-0.056852	4.69	30.1	-4.55	0.4296	-0.0608	-0.2131	
-0.995886	0.116876	-0.083814	5.25	30.73	-5.46	0.4353	-0.0609	-0.2039	
-1.01321	0.109068	-0.091866	6.37	29.82	-5.67	0.4352	-0.0533	-0.2024	
-1.021994	0.10309	-0.10614	5.32	29.4	-4.69	0.4439	-0.0564	-0.2025	
-1.029924	0.09942999	-0.136518	3.92	28.21	-3.5	0.4294	-0.0594	-0.19	
-1.028704	0.091866	-0.150304	3.43	27.37	-2.59	0.4395	-0.0549	-0.1916	
-1.016138	0.089304	-0.160918	3.85	26.74	-2.31	0.438	-0.0564	-0.1839	
-1.002596	0.0854	-0.159332	4.13	27.37	-2.38	0.4451	-0.0459	-0.1763	
-0.998936	0.08357	-0.156282	4.55	26.67	-2.66	0.4524	-0.0565	-0.1841	
-1.005524	0.084424	-0.160796	4.69	24.99	-3.01	0.4494	-0.0474	-0.1794	
-1.022726	0.08784	-0.17934	5.46	24.57	-3.08	0.4392	-0.058	-0.1639	
-1.03456	0.085888	-0.19276	5.04	24.22	-2.8	0.4494	-0.052	-0.1686	
-1.030656	0.08723	-0.212036	4.48	23.38	-2.94	0.4551	-0.046	-0.1718	
-1.006378	0.0793	-0.20618	4.76	22.05	-2.8	0.4507	-0.0521	-0.1548	
-0.997838	0.084424	-0.185928	5.18	22.26	-2.38	0.4433	-0.046	-0.1486	
-0.995764	0.085522	-0.20679	4.55	21.84	-2.24	0.4651	-0.0553	-0.1503	
-0.996008	0.089182	-0.207522	4.9	19.67	-2.03	0.4607	-0.0507	-0.1441	
-1.003084	0.09089	-0.21167	4.55	20.93	-2.38	0.4477	-0.0628	-0.1393	
-1.004182	0.088694	-0.224602	4.48	20.93	-2.59	0.4506	-0.0537	-0.144	
-0.995276	0.085278	-0.238266	3.99	20.79	-3.15	0.4578	-0.0598	-0.1363	
-0.99674	0.083692	-0.250466	3.57	19.74	-3.36	0.4504	-0.0522	-0.1301	
-0.990274	0.08052	-0.245464	3.57	18.9	-2.8	0.4592	-0.0507	-0.1364	
-0.989664	0.072834	-0.26596	3.99	19.32	-2.03	0.4649	-0.0538	-0.1318	
-0.990884	0.078324	-0.270718	4.55	17.36	-1.47	0.4634	-0.0508	-0.1287	
-0.99491	0.08113	-0.280112	4.13	16.87	-1.96	0.4532	-0.0568	-0.1147	
-0.986492	0.07905599	-0.293654	3.36	16.52	-2.38	0.4662	-0.0539	-0.1164	
-0.976732	0.080154	-0.302926	2.87	14.21	-2.1	0.4605	-0.0508	-0.121	
-0.988444	0.093208	-0.285114	2.31	12.88	-2.03	0.4633	-0.0433	-0.118	
-0.989176	0.083936	-0.303658	1.05	13.3	-1.96	0.4604	-0.0509	-0.1102	
-0.980514	0.075274	-0.324642	0.84	11.34	-1.33	0.4619	-0.0447	-0.1226	
-0.981246	0.073688	-0.304512	0.56	9.45	-1.05	0.4661	-0.0555	-0.1056	
-0.98881	0.070272	-0.30195	0.07	8.68	-0.91	0.4617	-0.0509	-0.1025	
-0.983442	0.065636	-0.313052	0.49	8.96	-1.05	0.456	-0.0554	-0.107	
-0.976732	0.063562	-0.324276	0.7	7.91	-1.26	0.4545	-0.0463	-0.1009	
-0.971608	0.066734	-0.31293	1.05	5.88	-1.05	0.4632	-0.0509	-0.1041	
-0.975878	0.073688	-0.310124	1.4	4.9	-0.84	0.4631	-0.0479	-0.101	
-0.982832	0.079544	-0.314516	1.26	4.34	-0.98	0.4719	-0.0586	-0.0979	
-0.98454	0.079788	-0.317688	0.42	4.76	-1.12	0.4631	-0.0448	-0.1025	
-0.975512	0.069418	-0.325618	0.42	4.55	-1.12	0.4574	-0.0554	-0.104	
-0.970876	0.06832	-0.323666	1.47	2.66	-0.7	0.4662	-0.0615	-0.104	
-0.978684	0.073444	-0.31964	1.33	2.1	-0.28	0.4646	-0.054	-0.0979	
-0.98088	0.077348	-0.335866	0.14	1.75	-0.14	0.4575	-0.0539	-0.1071	
-0.978196	0.06832	-0.335256	-0.98	0.49	-0.21	0.4646	-0.0585	-0.0963	
-0.97783	0.055998	-0.328912	-1.61	-1.05	-0.21	0.4602	-0.0479	-0.0932	
-0.973438	0.059658	-0.320372	-0.63	-2.45	-0.07	0.4703	-0.0464	-0.098	
-0.972218	0.061854	-0.320738	0.07	-2.73	0.28	0.4573	-0.0479	-0.09779999	
-0.97173	0.06771	-0.310124	-0.28	-3.71	0.84	0.4632	-0.0539	-0.1025	
-0.973926	0.067466	-0.306586	-1.33	-3.85	0.7	0.4573	-0.0448	-0.0932	
-0.972462	0.067466	-0.30317	-2.17	-3.5	0.56	0.4588	-0.0433	-0.101	
-0.972096	0.07124799	-0.297924	-2.31	-3.5	0.49	0.4645	-0.0418	-0.0995	
-0.975634	0.070882	-0.293532	-1.47	-3.15	0.7	0.4718	-0.048	-0.1011	
-0.977464	0.074542	-0.297436	-1.05	-1.61	0.91	0.453	-0.0524	-0.0916	
-0.973804	0.07259	-0.314394	-1.33	-0.98	0.98	0.4631	-0.0449	-0.101	
-0.977586	0.076494	-0.30866	-2.17	-3.08	1.26	0.4632	-0.0509	-0.1041	
-0.978806	0.074786	-0.306342	-2.73	-3.64	1.26	0.4632	-0.0509	-0.1041	
-0.982588	0.06649	-0.313906	-3.5	-3.92	1.26	0.4632	-0.057	-0.104	
-0.978318	0.063806	-0.315858	-2.52	-4.9	1.26	0.4604	-0.0569	-0.1086	
-0.974902	0.0671	-0.304146	-1.47	-6.23	1.26	0.4617	-0.0494	-0.101	
-0.976366	0.071126	-0.2989	-1.05	-7.07	1.19	0.4616	-0.0388	-0.101	
-0.97905	0.07442	-0.293776	-0.84	-7.84	1.33	0.4646	-0.0524	-0.1025	
-0.982588	0.079422	-0.286456	-1.33	-7.77	1.68	0.4602	-0.0448	-0.0994	
-0.990274	0.080642	-0.289872	-2.1	-7.21	1.54	0.456	-0.0463	-0.1132	
-0.983808	0.083204	-0.294386	-2.24	-7.91	1.33	0.4589	-0.0524	-0.1086	
-0.986736	0.08601	-0.299876	-1.61	-9.1	1.47	0.4589	-0.0569	-0.1055	
-0.991616	0.084424	-0.301218	-1.33	-10.85	1.61	0.4619	-0.063	-0.1148	
-0.982954	0.088572	-0.286578	-1.68	-10.99	1.54	0.4605	-0.063	-0.1117	
-0.98698	0.087108	-0.285358	-2.59	-13.3	1.4	0.459	-0.0539	-0.1148	
-0.98454	0.089182	-0.267302	-3.36	-13.79	1.47	0.4475	-0.0492	-0.1286	
-0.989786	0.08601	-0.257176	-3.64	-14.49	1.26	0.4546	-0.0462	-0.1148	
-0.990518	0.08357	-0.256078	-3.01	-14.07	1.05	0.4606	-0.0523	-0.1318	
-0.992104	0.080276	-0.254736	-2.31	-14.84	1.05	0.4591	-0.0523	-0.1287	
-0.998326	0.077714	-0.258518	-1.96	-14.35	0.91	0.4576	-0.0584	-0.1225	
-1.0004	0.084546	-0.25376	-1.68	-15.61	1.05	0.4564	-0.0659	-0.1347	
-1.000522	0.086498	-0.256322	-2.17	-17.57	1.19	0.4649	-0.0493	-0.1318	
-0.996252	0.086742	-0.241072	-2.31	-18.55	1.4	0.4636	-0.0523	-0.141	
-0.998082	0.087962	-0.23668	-2.66	-18.83	1.4	0.4491	-0.0506	-0.144	
-0.996252	0.090158	-0.228994	-3.5	-19.67	1.4	0.4535	-0.0537	-0.144	
-0.999912	0.090524	-0.218014	-3.85	-20.09	1.4	0.4506	-0.0521	-0.1455	
-1.00528	0.094184	-0.212158	-3.5	-21.42	1.47	0.455	-0.0506	-0.1502	
-1.011258	0.092232	-0.209962	-4.34	-22.96	1.75	0.4478	-0.0566	-0.1563	
-1.005402	0.093208	-0.194224	-5.04	-23.03	1.89	0.4521	-0.0445	-0.1579	
-1.008208	0.09577	-0.192394	-5.95	-22.47	1.68	0.4535	-0.0521	-0.1517	
-1.007232	0.093696	-0.186782	-6.37	-23.87	1.89	0.4493	-0.0505	-0.1625	
-1.00589	0.084912	-0.17446	-6.72	-23.52	2.17	0.4407	-0.0489	-0.1747	
-1.00528	0.083692	-0.16653	-6.58	-23.03	2.24	0.4451	-0.0581	-0.1686	
-1.008452	0.085888	-0.162138	-6.79	-22.61	1.89	0.4523	-0.049	-0.1718	
-1.011014	0.091134	-0.154818	-7.56	-22.96	1.75	0.4553	-0.0596	-0.1764	
-1.01199	0.09272	-0.151524	-8.26	-22.47	1.54	0.4381	-0.0549	-0.1947	
-1.008818	0.099552	-0.134688	-7.91	-23.94	1.61	0.4322	-0.0518	-0.1931	
-1.006134	0.098942	-0.11956	-7.84	-24.57	1.68	0.4409	-0.0534	-0.1901	
-1.00955	0.097234	-0.107238	-7.91	-22.68	1.54	0.4336	-0.0427	-0.1886	
-1.012112	0.093086	-0.107726	-7.77	-24.22	1.89	0.4322	-0.0427	-0.1978	
-1.014186	0.09699	-0.101382	-9.24	-24.78	2.03	0.4352	-0.0518	-0.1978	
-1.017358	0.099552	-0.096502	-10.78	-26.11	2.31	0.4382	-0.0472	-0.2163	
-1.02358	0.098698	-0.088694	-11.55	-28.84	2.52	0.4338	-0.0548	-0.207	
-1.022604	0.094916	-0.07905599	-12.6	-31.92	2.52	0.4339	-0.0578	-0.2131	
-1.025288	0.096746	-0.063196	-12.95	-34.58	2.03	0.4325	-0.0577	-0.2178	
-1.011502	0.103822	-0.052948	-12.46	-37.52	1.82	0.421	-0.0576	-0.2253	
-1.020042	0.110288	-0.015006	-11.97	-39.62	1.47	0.4195	-0.047	-0.2238	
-1.001132	0.112484	0.008174	-11.27	-41.51	1.47	0.4211	-0.053	-0.2408	
-0.994056	0.11407	0.029158	-10.92	-40.6	1.12	0.4182	-0.0484	-0.2423	
-0.99003	0.113704	0.055266	-10.99	-36.96	0.42	0.4082	-0.0468	-0.2515	
-0.995032	0.125782	0.070028	-9.73	-35	-0.42	0.404	-0.0543	-0.2668	
-0.989054	0.137738	0.079178	-9.17	-32.76	-1.19	0.4112	-0.0437	-0.27	
-0.990884	0.141886	0.087474	-10.57	-31.99	-0.98	0.4026	-0.0451	-0.2776	
-0.987102	0.137006	0.10675	-11.62	-32.27	-0.77	0.3911	-0.0466	-0.2775	
-0.983076	0.126758	0.117852	-12.32	-31.64	-0.42	0.3941	-0.0496	-0.2868	
-0.987346	0.109434	0.135176	-12.25	-30.03	-0.56	0.3969	-0.0405	-0.2807	
-0.997106	0.094062	0.13359	-10.92	-28.35	-1.05	0.3983	-0.036	-0.2838	
-1.01382	0.087108	0.13298	-8.12	-24.43	-2.1	0.3897	-0.0419	-0.2914	
-0.997472	0.08686399	0.123342	-4.69	-26.95	-2.73	0.3869	-0.0434	-0.3006	
-0.988444	0.092476	0.140788	-2.03	-27.58	-2.66	0.3897	-0.0359	-0.296	
-0.988322	0.09821	0.139812	-2.31	-27.65	-2.31	0.3898	-0.0404	-0.3022	
-0.99979	0.098332	0.143716	-4.2	-27.93	-1.96	0.3796	-0.0312	-0.2975	
-1.009184	0.09357399	0.15311	-6.16	-29.12	-2.1	0.3798	-0.0418	-0.3144	
-1.007842	0.08686399	0.17385	-6.58	-30.1	-1.96	0.3812	-0.0312	-0.3129	
-0.992714	0.085034	0.185562	-5.53	-30.73	-1.61	0.3683	-0.0386	-0.3251	
-0.976732	0.085156	0.201666	-4.2	-30.17	-1.12	0.3754	-0.0311	-0.3175	
-0.960994	0.088938	0.212768	-2.8	-28.77	-0.91	0.364	-0.034	-0.3297	
-0.948428	0.09552599	0.223138	-1.68	-27.93	-0.77	0.3553	-0.034	-0.3265	
-0.941108	0.095038	0.239852	-1.47	-27.3	-0.98	0.3539	-0.0324	-0.3311	
-0.946354	0.085766	0.250222	-2.17	-25.48	-1.19	0.3525	-0.0278	-0.3373	
-0.942084	0.07503	0.265838	-2.38	-25.55	-1.12	0.3482	-0.0293	-0.3434	
-0.937326	0.071614	0.280722	-2.17	-24.78	-0.84	0.3525	-0.0278	-0.3434	
-0.936106	0.074786	0.29707	-1.75	-22.26	-0.77	0.3498	-0.0414	-0.3495	
-0.932324	0.084546	0.297314	-1.47	-20.72	-0.42	0.3468	-0.0323	-0.3495	
-0.932812	0.090036	0.30866	-2.1	-18.69	0	0.3411	-0.0292	-0.3526	
-0.93208	0.088572	0.316224	-3.22	-16.8	0.84	0.3309	-0.0215	-0.3494	
-0.924028	0.081862	0.317932	-4.13	-15.68	1.89	0.3498	-0.0292	-0.3588	
-0.925004	0.078934	0.31842	-4.34	-13.58	2.59	0.3354	-0.0367	-0.3633	
-0.92537	0.079422	0.322446	-3.71	-12.11	2.87	0.3352	-0.0246	-0.3479	
-0.920612	0.080886	0.32513	-2.73	-9.24	2.38	0.3368	-0.0322	-0.3587	
-0.917562	0.081618	0.324764	-2.24	-7.98	1.89	0.3267	-0.0367	-0.3539	
-0.925004	0.08235	0.327448	-1.82	-6.79	1.68	0.3296	-0.026	-0.3663	
-0.930982	0.08418	0.329766	-1.33	-5.18	1.54	0.3267	-0.0245	-0.3632	
-0.9333	0.084912	0.33184	-0.77	-3.85	1.61	0.3383	-0.0321	-0.3633	
-0.93025	0.084668	0.330132	-0.14	-2.17	1.68	0.334	-0.0321	-0.3648	
-0.929274	0.08967	0.322934	0.98	-2.87	1.89	0.3283	-0.0335	-0.3725	
-0.93452	0.097112	0.326472	0.98	0.21	1.68	0.3326	-0.0412	-0.3694	
-0.937448	0.100528	0.324398	1.05	0.42	1.61	0.3296	-0.0275	-0.3633	
-0.929152	0.107116	0.314882	1.61	-1.96	2.17	0.3324	-0.0291	-0.354	
-0.939766	0.107238	0.319274	0.7	1.75	2.03	0.3368	-0.0246	-0.3603	
-0.939888	0.101626	0.318298	0.42	1.82	2.17	0.3298	-0.0396	-0.3724	
-0.9394	0.101748	0.320494	0.07	2.03	2.38	0.3311	-0.0305	-0.371	
-0.935008	0.101992	0.32208	0	2.31	2.66	0.3325	-0.0306	-0.3633	
-0.934642	0.102602	0.322202	-0.21	3.15	3.01	0.3354	-0.0291	-0.3664	
-0.935374	0.104676	0.320494	0	4.34	3.01	0.3325	-0.0245	-0.3633	
-0.936106	0.106506	0.319762	0.35	4.97	2.8	0.3283	-0.0366	-0.374	
-0.939522	0.10614	0.317322	0.14	5.88	2.45	0.3326	-0.0412	-0.3648	
-0.942328	0.101138	0.31415	0.07	6.44	2.17	0.3253	-0.0366	-0.3585	
-0.948184	0.098454	0.308538	0.91	7	2.24	0.3268	-0.0396	-0.3693	
-0.952332	0.099796	0.30256	1.82	7.21	2.73	0.3281	-0.0367	-0.3539	
-0.95587	0.10187	0.305732	2.31	7.77	3.08	0.3311	-0.0366	-0.3632	
-0.957212	0.108824	0.293288	2.66	7.98	3.29	0.3383	-0.0367	-0.3618	
-0.950258	0.109434	0.293654	3.08	8.12	3.43	0.3412	-0.0367	-0.3618	
-0.949282	0.110288	0.289018	3.43	9.38	3.71	0.3368	-0.0428	-0.3494	
-0.961116	0.109678	0.296338	2.8	11.83	2.87	0.3411	-0.0383	-0.3541	
-0.954528	0.108702	0.27999	3.5	10.01	3.57	0.3412	-0.0398	-0.3541	
-0.956358	0.10431	0.284016	3.36	10.22	3.5	0.344	-0.0413	-0.351	
-0.953796	0.100406	0.284016	3.92	10.08	4.27	0.3339	-0.0443	-0.3463	
-0.957212	0.09942999	0.288042	4.76	12.46	4.62	0.3455	-0.0383	-0.3557	
-0.964654	0.0976	0.28243	5.11	13.86	5.74	0.3497	-0.0475	-0.3372	
-0.967216	0.099796	0.275476	4.9	13.79	7.21	0.3411	-0.052	-0.3448	
-0.968558	0.101504	0.261812	4.55	13.37	8.61	0.3468	-0.0445	-0.3372	
-0.971608	0.107848	0.257542	4.27	13.65	9.59	0.3468	-0.0551	-0.3279	
-0.97539	0.11163	0.254126	3.22	16.24	9.24	0.3525	-0.0445	-0.331	
-0.970632	0.115412	0.239608	3.22	15.47	9.94	0.3439	-0.049	-0.3325	
-0.96868	0.124928	0.228872	2.73	15.61	10.22	0.3482	-0.0521	-0.331	
-0.969656	0.130906	0.220332	1.82	15.61	10.57	0.3584	-0.0476	-0.3373	
-0.974536	0.134932	0.221064	1.26	15.89	10.99	0.3512	-0.0596	-0.3371	
-0.97417	0.138958	0.213378	1.05	15.05	11.97	0.3656	-0.06439999	-0.3218	
-0.978074	0.144448	0.221674	1.4	15.05	12.88	0.3613	-0.0552	-0.3311	
-0.974658	0.15433	0.2135	2.31	14.14	14.07	0.3569	-0.0598	-0.3218	
-0.971974	0.16348	0.213622	3.43	13.93	14.63	0.3729	-0.0705	-0.3265	
-0.97234	0.173362	0.20923	3.99	14.35	14.63	0.367	-0.0659	-0.3188	
-0.976732	0.181048	0.197884	3.64	14.77	14.77	0.3656	-0.0613	-0.3234	
-0.985028	0.195078	0.189466	3.01	14.63	14.98	0.3715	-0.0765	-0.3218	
-0.992104	0.21167	0.176168	1.96	13.72	15.47	0.3684	-0.072	-0.311	
-1.002474	0.219478	0.172142	0.7	13.37	15.68	0.3627	-0.0765	-0.3125	
-1.009672	0.217404	0.15494	-0.35	13.16	15.82	0.3657	-0.0856	-0.3125	
-1.011258	0.215818	0.146766	-0.7	11.9	16.1	0.37	-0.0857	-0.311	
-0.999424	0.218624	0.141642	0	11.55	15.82	0.3671	-0.0872	-0.3063	
-0.985028	0.230702	0.14335	1.12	11.27	15.26	0.3757	-0.0888	-0.3049	
-0.971974	0.236436	0.144326	1.75	10.5	14.7	0.3714	-0.0857	-0.311	
-0.961604	0.240462	0.142496	2.66	9.94	14.28	0.3728	-0.0888	-0.3002	
-0.959408	0.250954	0.134322	3.08	9.73	13.72	0.3685	-0.08419999	-0.3048	
-0.975024	0.265106	0.145302	2.94	10.08	12.88	0.3686	-0.1069	-0.3001	
-0.98149	0.271816	0.143838	2.73	8.54	12.25	0.37	-0.0887	-0.3094	
-0.979172	0.277184	0.14396	2.17	7.56	12.6	0.3671	-0.09779999	-0.2986	
-0.972218	0.279014	0.140422	1.47	7.56	13.09	0.3858	-0.0889	-0.2957	
-0.965508	0.272426	0.148352	0.63	10.29	13.3	0.3742	-0.1025	-0.2894	
-0.957212	0.26962	0.142862	1.12	10.71	13.51	0.3757	-0.0979	-0.294	
-0.96075	0.27084	0.136396	1.89	11.2	13.58	0.367	-0.1024	-0.2909	
-0.956114	0.272304	0.132614	1.96	11.48	13.09	0.3857	-0.092	-0.2865	
-0.952332	0.270108	0.128588	0.91	10.5	12.39	0.3786	-0.0995	-0.2925	
-0.958676	0.273158	0.127368	0.7	10.43	11.55	0.3801	-0.1116	-0.2879	
-0.96624	0.281332	0.122976	1.4	9.87	10.5	0.3743	-0.104	-0.294	
-0.960994	0.291336	0.117364	1.47	10.92	9.31	0.3814	-0.0995	-0.2849	
-0.959896	0.294752	0.112118	0.7	11.48	8.26	0.3713	-0.1086	-0.2816	
-0.962458	0.2989	0.094794	0.84	11.13	7.77	0.3786	-0.1207	-0.2847	
-0.973316	0.30439	0.086254	1.19	9.52	7.98	0.3845	-0.1268	-0.2832	
-0.97234	0.312686	0.083082	1.33	8.4	8.68	0.3829	-0.1147	-0.2771	
-0.969046	0.309026	0.078934	0.21	8.47	8.75	0.3757	-0.1222	-0.2801	
-0.964288	0.307684	0.080764	-0.28	7.35	8.96	0.3815	-0.1284	-0.277	
-0.958066	0.316224	0.078812	0.35	7.35	8.75	0.3815	-0.1208	-0.277	
-0.95221	0.321714	0.086132	-0.35	7.14	8.12	0.3756	-0.1193	-0.2693	
-0.949648	0.318298	0.075274	-0.14	5.81	7.42	0.3816	-0.1359	-0.2785	
-0.957456	0.31415	0.08357	1.61	4.48	6.3	0.3814	-0.1239	-0.2662	
-0.97234	0.317078	0.072346	2.59	4.55	5.11	0.3829	-0.1299	-0.2693	
-0.969046	0.308416	0.074542	2.31	2.1	4.41	0.3785	-0.1223	-0.2693	
-0.960872	0.305244	0.079788	2.1	1.89	4.41	0.3771	-0.1223	-0.2708	
-0.959774	0.310368	0.070516	1.96	1.61	4.48	0.3799	-0.1208	-0.2678	
-0.95953	0.315248	0.070516	2.52	0.77	4.13	0.3887	-0.1269	-0.2709	
-0.965874	0.313784	0.07808	2.59	1.26	3.15	0.3828	-0.1178	-0.2709	
-0.960628	0.316224	0.07808	2.66	-0.35	2.52	0.3858	-0.13	-0.2663	
-0.951722	0.320616	0.079544	1.89	-1.12	2.03	0.3714	-0.1328	-0.2738	
-0.953918	0.324642	0.081496	1.82	-0.91	1.4	0.3757	-0.1238	-0.2739	
-0.955748	0.328302	0.084058	1.75	-0.77	0.77	0.3786	-0.1329	-0.2677	
-0.953308	0.335988	0.087718	0.7	-0.49	0.28	0.3785	-0.1269	-0.2662	
-0.94855	0.336232	0.08479	-1.19	0.63	0	0.3799	-0.136	-0.2554	
-0.95099	0.329034	0.075884	-2.45	1.12	-0.21	0.3742	-0.1268	-0.2708	
-0.956358	0.322324	0.080398	-2.52	0.49	-0.42	0.3814	-0.1238	-0.2693	
-0.956846	0.324886	0.081862	-2.31	0.28	-0.28	0.3829	-0.1329	-0.2708	
-0.96319	0.322324	0.08418	-2.31	1.96	-0.56	0.3815	-0.136	-0.2739	
-0.955504	0.32147	0.081496	-1.96	1.4	-0.91	0.3758	-0.1253	-0.2816	
-0.957578	0.326228	0.07686	-1.54	1.54	-1.33	0.38	-0.136	-0.2646	
-0.95953	0.325008	0.075884	-1.47	1.26	-1.75	0.3785	-0.1284	-0.2647	
-0.956968	0.325862	0.066612	-1.19	0.56	-2.1	0.3857	-0.1284	-0.2647	
-0.954284	0.321714	0.07686	-1.33	0.14	-2.45	0.3814	-0.1284	-0.2647	
-0.959042	0.319518	0.073444	-0.56	0.21	-3.08	0.3771	-0.1238	-0.2677	
-0.958188	0.316224	0.069296	0.42	0.07	-4.06	0.3915	-0.1285	-0.2632	
-0.95038	0.322812	0.071126	0.56	-1.68	-4.83	0.3743	-0.1207	-0.2785	
-0.939766	0.321836	0.073688	-0.07	-2.38	-5.53	0.3914	-0.127	-0.254	
-0.9516	0.316834	0.065392	-0.42	-2.38	-6.58	0.3872	-0.1224	-0.2663	
-0.966118	0.308904	0.074664	0.21	-3.22	-7.91	0.3842	-0.1254	-0.2586	
-0.9577	0.304146	0.08686399	0.77	-4.69	-8.61	0.3844	-0.1345	-0.2724	
-0.949648	0.306586	0.087474	1.4	-5.95	-8.82	0.377	-0.1223	-0.2647	
-0.954772	0.313174	0.092842	1.96	-5.81	-9.52	0.3757	-0.1253	-0.277	
-0.957334	0.303658	0.09394	2.03	-5.46	-10.01	0.3771	-0.1208	-0.2708	
-0.961116	0.298046	0.090036	2.52	-6.02	-10.36	0.3627	-0.1252	-0.2784	
-0.96075	0.296338	0.096746	2.59	-6.65	-10.43	0.37	-0.1207	-0.2846	
-0.961238	0.292312	0.104066	2.66	-6.16	-10.92	0.3771	-0.1177	-0.2755	
-0.962824	0.286456	0.09857599	3.22	-5.81	-11.55	0.3886	-0.1118	-0.2695	
-0.958554	0.288774	0.10431	4.06	-6.65	-11.76	0.38	-0.1193	-0.277	
-0.960384	0.295118	0.104676	4.41	-6.51	-11.97	0.3757	-0.1162	-0.2801	
-0.962946	0.294142	0.10248	4.41	-6.02	-12.18	0.3801	-0.1208	-0.2801	
-0.961848	0.291702	0.096258	3.71	-6.16	-12.32	0.3857	-0.1087	-0.2787	
-0.961848	0.291458	0.09882	2.59	-6.3	-12.6	0.3857	-0.1102	-0.2771	
-0.967704	0.290726	0.105042	1.47	-7.14	-13.23	0.3771	-0.1116	-0.2801	
-0.969534	0.281454	0.101748	0.7	-6.79	-14.35	0.38	-0.1101	-0.2817	
-0.966362	0.274256	0.104676	1.05	-7.49	-15.12	0.3727	-0.1116	-0.2785	
-0.968558	0.266936	0.111752	1.47	-8.4	-15.68	0.3771	-0.1071	-0.2832	
-0.972706	0.26291	0.1098	1.26	-8.19	-16.1	0.3844	-0.098	-0.2926	
-0.971974	0.257542	0.111752	0.84	-7.42	-16.31	0.3799	-0.095	-0.2849	
-0.976976	0.246562	0.122488	1.19	-7	-16.38	0.38	-0.098	-0.2895	
-0.978928	0.232532	0.122	1.96	-6.65	-16.94	0.3799	-0.0858	-0.2911	
-0.982832	0.220576	0.11956	3.64	-8.12	-17.29	0.3857	-0.0844	-0.2896	
-0.990396	0.210572	0.130296	4.83	-7.14	-17.71	0.3785	-0.0812	-0.3003	
-0.986858	0.212402	0.137982	5.32	-7.7	-18.2	0.3785	-0.0813	-0.2957	
-0.981368	0.21594	0.130662	5.74	-6.16	-19.18	0.3785	-0.0889	-0.2926	
-0.984052	0.21838	0.131028	5.81	-6.3	-20.02	0.3812	-0.0753	-0.285	
-0.993324	0.2135	0.129564	4.97	-6.09	-20.51	0.374	-0.0782	-0.2849	
-0.99918	0.198616	0.1281	3.85	-5.88	-20.65	0.3914	-0.0738	-0.2912	
-1.006866	0.175802	0.12688	2.24	-5.18	-20.37	0.3799	-0.0782	-0.2988	
-1.016382	0.170434	0.120658	2.31	-4.97	-19.18	0.3813	-0.0722	-0.2927	
-1.009794	0.173362	0.125538	3.43	-5.04	-18.83	0.374	-0.0691	-0.2911	
-0.996374	0.171532	0.134688	3.64	-3.57	-19.25	0.3784	-0.0706	-0.2973	
-0.999912	0.16592	0.127856	2.87	-3.01	-19.6	0.3828	-0.0661	-0.302	
-1.007598	0.164944	0.1281	2.03	-3.36	-19.67	0.3755	-0.063	-0.2957	
-1.007476	0.167384	0.1342	0.14	-3.36	-19.74	0.3784	-0.0646	-0.3019	
-1.010648	0.16226	0.13359	-2.52	-3.64	-19.95	0.3812	-0.0555	-0.2943	
-1.008574	0.150914	0.123342	-3.78	-4.76	-19.88	0.3856	-0.051	-0.3021	
-0.996008	0.141032	0.143838	-4.48	-5.6	-19.95	0.3755	-0.06	-0.3004	
-0.990762	0.124196	0.154208	-6.02	-4.48	-19.74	0.377	-0.0493	-0.3112	
-0.991494	0.11041	0.164578	-5.39	-3.92	-19.67	0.3639	-0.0462	-0.3065	
-0.996862	0.0976	0.163602	-4.69	-1.89	-20.09	0.3812	-0.0373	-0.3052	
-1.003694	0.076494	0.156282	-6.16	-0.14	-20.72	0.3783	-0.0403	-0.3051	
-1.005036	0.061488	0.15372	-5.46	-1.33	-20.79	0.3768	-0.0327	-0.3082	
-1.001864	0.053924	0.155794	-4.27	-3.57	-20.65	0.3797	-0.0388	-0.3051	
-1.004792	0.044408	0.150304	-3.36	-4.69	-20.16	0.3752	-0.0236	-0.3021	
-1.00833	0.043188	0.1525	-3.08	-5.53	-19.88	0.384	-0.0434	-0.3005	
-1.003938	0.044896	0.157746	-1.82	-7.63	-19.67	0.3783	-0.0251	-0.3144	
-0.996984	0.039894	0.15982	-1.75	-7	-19.6	0.3798	-0.0327	-0.316	
-0.984052	0.035624	0.166042	-2.94	-6.93	-18.55	0.3869	-0.0267	-0.313	
-0.97417	0.035624	0.17202	-2.45	-7.98	-16.45	0.3766	-0.0069	-0.3083	
-0.960018	0.029036	0.188368	-2.03	-8.75	-13.93	0.3782	-0.0144	-0.3191	
-0.958066	-0.001342	0.192394	-4.9	-5.81	-10.92	0.3826	-0.0206	-0.316	
-0.964898	-0.019886	0.20679	-5.81	-3.5	-9.24	0.3739	-0.0114	-0.3191	
-0.977342	-0.041114	0.211548	-4.83	-3.36	-8.12	0.3651	-0.0053	-0.3129	
-0.973194	-0.03843	0.212402	-2.38	-3.92	-8.54	0.3738	-0.0068	-0.316	
-0.975756	-0.019642	0.221552	-2.31	-2.52	-10.43	0.3709	-0.0068	-0.3175	
-0.97661	-0.013908	0.22265	-3.15	-1.89	-11.48	0.3738	-0.0054	-0.3114	
-0.987102	-0.030622	0.208254	-3.01	-0.63	-13.02	0.3739	-0.0083	-0.3222	
-0.985638	-0.04331	0.213134	-0.84	0.35	-13.44	0.3753	-0.0038	-0.3268	
-0.980514	-0.04209	0.197518	1.47	3.85	-12.53	0.3781	0.0067	-0.3177	
-0.970022	-0.018422	0.188978	2.1	2.31	-10.99	0.3767	-0.0023	-0.3161	
-0.971242	0.00488	0.183732	2.59	3.71	-11.2	0.3738	0.0052	-0.3192	
-0.976	0.01708	0.187758	2.38	3.5	-11.2	0.3723	0.0037	-0.3114	
-0.993446	0.015616	0.186904	1.33	5.32	-11.13	0.3766	0.009699999	-0.3192	
-0.999302	-0.002806	0.187026	0.98	7	-10.15	0.3708	0.0158	-0.3146	
-1.006256	-0.02135	0.18666	1.61	7.98	-9.66	0.375	0.0112	-0.3069	
-1.011014	-0.037576	0.175436	1.82	9.1	-9.24	0.375	0.0112	-0.3069	
-1.00833	-0.05002	0.162016	3.78	9.59	-9.24	0.3837	0.0127	-0.31	
-1.006012	-0.04941	0.157502	5.04	7.7	-9.45	0.3807	0.0217	-0.2993	
-1.016748	-0.052704	0.14884	3.78	9.8	-10.08	0.3823	0.0142	-0.3131	
-1.002474	-0.056242	0.139202	4.48	9.73	-10.64	0.3837	0.0187	-0.3085	
-1.002596	-0.059292	0.138958	6.37	11.2	-11.62	0.3765	0.0142	-0.3115	
-1.00589	-0.06222	0.137128	5.74	11.27	-12.39	0.3807	0.0202	-0.3023	
-0.99735	-0.068808	0.134566	3.64	10.78	-12.67	0.3837	0.0218	-0.3116	
-0.987468	-0.077592	0.137738	3.85	10.92	-12.39	0.3894	0.0156	-0.3009	
-0.99491	-0.079178	0.138348	3.78	9.03	-11.83	0.3851	0.0141	-0.2993	
-0.997594	-0.0854	0.14335	1.82	8.19	-11.2	0.3835	0.0202	-0.2947	
-1.000644	-0.086498	0.140666	0.63	7.84	-10.92	0.3908	0.0201	-0.3009	
-0.997716	-0.08357	0.13481	0.07	5.74	-10.71	0.385	0.0262	-0.2947	
-0.987346	-0.070028	0.123464	-0.42	5.32	-10.01	0.3965	0.0292	-0.2979	
-0.99247	-0.068808	0.130784	0.63	5.18	-9.73	0.395	0.0277	-0.2933	
-0.987346	-0.081252	0.137006	-0.28	4.69	-9.17	0.3893	0.0262	-0.2917	
-1.005036	-0.083936	0.146888	-1.12	4.9	-8.82	0.3951	0.0307	-0.3041	
-1.004304	-0.077348	0.126758	-1.61	2.38	-7.98	0.3835	0.0278	-0.2993	
-1.016748	-0.085766	0.126758	-2.8	1.19	-6.86	0.3878	0.0368	-0.301	
-1.013942	-0.092964	0.138714	-2.59	1.4	-5.74	0.395	0.0292	-0.2917	
-1.001254	-0.09455	0.124928	-1.26	2.87	-4.69	0.3864	0.0323	-0.3009	
-0.99369	-0.091134	0.118828	0.63	3.71	-4.2	0.3879	0.0262	-0.2978	
-0.995886	-0.087962	0.117242	1.05	3.57	-3.71	0.3951	0.0398	-0.3026	
-1.000522	-0.096868	0.118706	1.05	3.99	-3.01	0.3893	0.0292	-0.2963	
-1.004914	-0.10919	0.11529	1.75	4.9	-2.31	0.3848	0.0414	-0.2886	
-1.008574	-0.110044	0.10248	1.96	4.48	-2.24	0.4008	0.0413	-0.3011	
-1.00589	-0.109068	0.101748	2.17	3.29	-2.31	0.3879	0.0277	-0.2978	
-1.003938	-0.121756	0.10248	1.89	2.73	-2.1	0.3951	0.0399	-0.3072	
-0.997838	-0.124562	0.10492	2.24	1.26	-1.4	0.3892	0.0368	-0.2917	
-0.993324	-0.124684	0.108092	1.82	-0.21	-0.7	0.3876	0.0337	-0.2794	
-0.992348	-0.126026	0.11651	1.4	-1.05	-0.77	0.3979	0.0367	-0.2918	
-0.996862	-0.122732	0.121512	1.47	-0.77	-0.7	0.3905	0.0413	-0.2841	
-1.000034	-0.118706	0.122366	1.19	-0.84	-0.14	0.3906	0.0337	-0.2902	
-1.00223	-0.117486	0.120292	0.77	-0.77	0.35	0.4022	0.0337	-0.2888	
-1.004426	-0.11407	0.114924	0.77	0	0.63	0.3936	0.0322	-0.2917	
-1.001742	-0.0976	0.107726	1.05	0.14	1.05	0.3893	0.0277	-0.2978	
-0.999424	-0.090036	0.110776	0.7	-0.21	1.47	0.3891	0.0337	-0.2855	
-1.00223	-0.088938	0.111996	-0.49	0	2.31	0.3935	0.0276	-0.284	
-1.002718	-0.096258	0.115534	-1.33	-0.07	3.22	0.3892	0.0323	-0.2932	
-1.005524	-0.100894	0.122854	-1.75	0.84	3.71	0.382	0.0293	-0.2901	
-1.001742	-0.089182	0.111386	-2.1	0.98	3.85	0.3936	0.0261	-0.2917	
-1.000522	-0.096258	0.106384	-2.38	0.42	4.06	0.3864	0.0262	-0.2994	
-1.004182	-0.102724	0.109434	-1.82	0.84	4.2	0.3906	0.0383	-0.2856	
-1.004426	-0.09211	0.10492	-0.91	0.42	4.97	0.3965	0.0261	-0.2948	
-1.001254	-0.08601	0.110654	-0.63	-0.91	5.32	0.3936	0.0307	-0.2933	
-1.00467	-0.094184	0.1098	-1.12	-0.77	5.6	0.3921	0.0368	-0.2918	
-1.006622	-0.101504	0.1098	-2.24	-0.07	5.67	0.398	0.0292	-0.2964	
-1.011136	-0.089914	0.108824	-1.75	0.56	5.81	0.3848	0.0353	-0.2886	
-1.00833	-0.08601	0.105164	-1.4	-0.42	6.65	0.3966	0.0246	-0.2994	
-0.998814	-0.091256	0.10675	-1.33	-0.56	7.7	0.395	0.0307	-0.2933	
-0.992592	-0.09272	0.112362	-0.63	-0.35	8.54	0.392	0.0307	-0.2809	
-0.994178	-0.0854	0.116998	0.35	-1.4	9.31	0.395	0.0307	-0.2902	
-0.997228	-0.069784	0.1159	-0.63	-2.03	10.08	0.3951	0.0262	-0.2948	
-0.996618	-0.066124	0.122976	-2.1	-2.03	10.64	0.3923	0.014	-0.2932	
-0.999668	-0.07015	0.127856	-2.8	-2.24	11.06	0.3878	0.0277	-0.2947	
-0.99979	-0.069052	0.12444	-3.64	-1.89	11.41	0.3849	0.0232	-0.2901	
-0.991738	-0.066246	0.126636	-3.57	-2.45	11.48	0.3894	0.0141	-0.2947	
-0.987346	-0.06588	0.130052	-3.01	-2.87	11.34	0.3895	0.0065	-0.3039	
-0.990884	-0.062586	0.127124	-2.73	-2.73	11.76	0.3937	0.0201	-0.2979	
-0.994178	-0.056242	0.127978	-3.5	-3.43	12.88	0.3951	0.0125	-0.2855	
-0.997838	-0.0488	0.126392	-4.27	-2.87	14.07	0.3951	0.0155	-0.2901	
-0.994788	-0.040504	0.13176	-4.27	-3.01	15.33	0.3879	0.0156	-0.2962	
-0.998326	-0.046482	0.132614	-3.29	-1.61	16.03	0.3894	0.007999999	-0.2962	
-0.998204	-0.048922	0.130418	-2.17	-2.1	16.38	0.3923	0.011	-0.2963	
-0.995276	-0.0427	0.13115	-1.05	-2.38	16.31	0.3938	0.0065	-0.2963	
-0.995886	-0.031354	0.1342	-0.21	-2.8	16.1	0.391	0.0035	-0.3085	
-0.997228	-0.025864	0.130418	0.28	-3.29	16.24	0.3838	-0.01	-0.3022	
-0.995764	-0.015128	0.140056	0.49	-2.87	16.8	0.3865	0.0004	-0.29	
-0.99247	-0.005368	0.14579	0.28	-2.45	17.5	0.3853	-0.0085	-0.3038	
-0.991128	0	0.138714	-0.28	-1.47	18.2	0.3851	-0.0071	-0.2884	
-0.990274	0.005246	0.140056	-0.77	-1.54	18.83	0.3968	-0.0162	-0.2977	
-0.995032	0.010492	0.146156	-1.05	-1.54	19.25	0.3925	-0.0177	-0.2977	
-0.992348	0.01708	0.13542	-0.98	-1.61	18.9	0.3911	-0.0177	-0.2961	
-1.01138	0.033794	0.138836	-0.91	0.56	17.64	0.3882	-0.0176	-0.3007	
-0.996618	0.055632	0.12444	0.28	-4.48	17.22	0.3881	-0.0131	-0.2946	
-0.993202	0.065758	0.127002	-0.49	-3.78	15.96	0.3825	-0.0175	-0.313	
-0.998326	0.068198	0.132492	-2.52	-2.8	15.61	0.381	-0.0222	-0.296	
-1.0065	0.067832	0.127734	-4.76	-1.33	16.24	0.3868	-0.0267	-0.3007	
-1.009794	0.069662	0.13725	-6.16	-0.77	17.71	0.3883	-0.0222	-0.3053	
-1.006744	0.077958	0.132248	-6.51	2.24	18.34	0.3941	-0.0283	-0.2992	
-0.996862	0.089548	0.124074	-5.25	3.92	17.99	0.3838	-0.0237	-0.2852	
-0.992104	0.096136	0.124928	-3.5	5.6	16.24	0.3912	-0.0359	-0.296	
-1.001376	0.095892	0.133712	-2.45	3.5	14.98	0.3898	-0.0343	-0.3022	
-0.995154	0.092842	0.138348	-2.31	2.66	14.07	0.3911	-0.0389	-0.2883	
-0.992714	0.096868	0.144326	-1.19	2.87	13.65	0.3855	-0.0449	-0.3006	
-0.996984	0.102602	0.144814	0.98	6.58	12.88	0.3797	-0.0358	-0.3005	
-0.995154	0.108946	0.133224	3.36	7.56	12.67	0.397	-0.0511	-0.2929	
-0.995642	0.111874	0.131638	5.53	8.82	12.32	0.3898	-0.045	-0.2929	
-0.996252	0.12322	0.122366	7.84	8.12	12.67	0.3883	-0.0419	-0.2929	
-0.993568	0.138958	0.119804	9.24	7.49	12.18	0.3983	-0.039	-0.2853	
-1.001254	0.14579	0.110898	8.54	9.24	11.48	0.3826	-0.051	-0.2928	
-1.008208	0.138348	0.09455	6.3	8.47	11.9	0.3797	-0.0494	-0.2974	
-1.0065	0.132492	0.09333	3.36	7.35	12.81	0.3912	-0.0571	-0.2851	
-1.011624	0.127856	0.0915	0.21	6.37	14.49	0.3927	-0.0617	-0.2867	
-1.016382	0.12139	0.086132	-1.89	6.44	16.31	0.3854	-0.0556	-0.282	
-1.015772	0.121268	0.089914	-3.15	4.48	18.13	0.3941	-0.0648	-0.2805	
-1.016138	0.13664	0.090402	-3.36	5.25	18.83	0.3927	-0.0647	-0.282	
-1.00955	0.154452	0.099064	-2.8	5.39	18.83	0.4013	-0.0664	-0.2729	
-1.002718	0.164944	0.086986	-3.22	4.83	18.55	0.3956	-0.0693	-0.2759	
-1.003694	0.169214	0.085644	-4.13	5.6	18.27	0.3839	-0.0678	-0.2727	
-1.00589	0.170922	0.080642	-4.69	5.46	18.9	0.3883	-0.0663	-0.2727	
-1.0126	0.174948	0.082106	-5.46	5.39	19.74	0.3941	-0.0769	-0.2681	
-1.004548	0.18605	0.082472	-5.53	5.39	20.02	0.3941	-0.0724	-0.2712	
-0.992104	0.203252	0.077592	-5.74	6.09	19.67	0.3869	-0.07229999	-0.2773	
-0.990762	0.2135	0.087108	-7.28	5.81	18.62	0.3898	-0.0845	-0.2696	
-0.992104	0.222406	0.08601	-7.49	5.32	17.78	0.3898	-0.08899999	-0.268	
-0.992348	0.232044	0.070516	-7.56	5.11	17.08	0.3899	-0.0875	-0.2742	
-0.99064	0.23485	0.07808	-7.98	4.83	16.8	0.4043	-0.0816	-0.2698	
-0.994056	0.23546	0.082472	-7.49	5.95	16.31	0.3769	-0.0859	-0.2772	
-0.98027	0.238632	0.08235	-7.07	5.25	16.03	0.3826	-0.0799	-0.2695	
-0.971364	0.244488	0.0854	-5.95	4.69	16.24	0.387	-0.08899999	-0.2695	
-0.975024	0.254614	0.0793	-5.04	5.25	16.59	0.3913	-0.0967	-0.2649	
-0.966362	0.26291	0.086132	-3.64	3.29	16.73	0.3813	-0.1026	-0.2756	
-0.96746	0.267058	0.089182	-3.22	4.69	15.96	0.3927	-0.09519999	-0.2588	
-0.967948	0.267058	0.081374	-3.78	4.41	15.82	0.3871	-0.1026	-0.2741	
-0.968436	0.274988	0.08686399	-3.57	4.2	15.54	0.3956	-0.0982	-0.2634	
-0.972828	0.285602	0.069174	-2.17	4.69	15.54	0.3871	-0.1072	-0.2679	
-0.97661	0.290848	0.06832	-1.82	4.48	15.82	0.3856	-0.1072	-0.2694	
-0.986736	0.297314	0.069906	-2.38	4.41	15.75	0.3886	-0.1072	-0.2741	
-0.977708	0.294386	0.068564	-3.22	4.62	15.61	0.3928	-0.1088	-0.2649	
-0.976	0.296826	0.058194	-2.66	4.06	15.33	0.3843	-0.1193	-0.2709	
-0.977952	0.297924	0.0488	-1.68	4.55	14.07	0.39	-0.1118	-0.2679	
-0.967582	0.297924	0.048312	-1.12	2.59	13.16	0.3944	-0.1149	-0.268	
-0.957822	0.296338	0.051118	-0.56	2.73	12.81	0.3856	-0.1118	-0.2586	
-0.949526	0.314394	0.073322	0.49	3.29	12.46	0.38	-0.1238	-0.2678	
-0.94123	0.335256	0.065758	1.82	4.13	11.83	0.3755	-0.1117	-0.2693	
-0.942938	0.34953	0.080032	1.96	5.74	11.34	0.377	-0.1208	-0.2631	
-0.930006	0.357826	0.072102	1.54	6.51	11.27	0.3872	-0.133	-0.2647	
-0.935374	0.374052	0.064294	0.07	6.79	10.71	0.3727	-0.136	-0.2538	
-0.93025	0.372588	0.062464	-1.54	5.74	9.94	0.377	-0.1299	-0.2585	
-0.927566	0.364902	0.052216	-4.06	6.86	8.96	0.3872	-0.1315	-0.2647	
-0.930738	0.357094	0.060512	-4.9	5.25	8.05	0.3872	-0.1315	-0.2601	
-0.938546	0.349042	0.06832	-5.53	6.09	7	0.3886	-0.13	-0.2586	
-0.939766	0.33367	0.06039	-4.13	6.44	6.44	0.3813	-0.1254	-0.2524	
-0.940864	0.333426	0.056974	-1.82	7.28	6.23	0.3828	-0.1345	-0.2523	
-0.939644	0.34526	0.051972	0.07	8.33	6.3	0.3827	-0.1224	-0.257	
-0.93147	0.357582	0.042822	1.12	7.21	5.81	0.3842	-0.133	-0.2524	
-0.939156	0.363926	0.029158	1.4	7.63	5.04	0.3842	-0.1421	-0.2492	
-0.946598	0.354044	0.026962	1.19	6.23	4.62	0.3829	-0.1391	-0.2585	
-0.953674	0.349652	0.020496	1.82	3.43	4.62	0.3944	-0.1422	-0.2555	
-0.950868	0.354044	0.032208	1.54	3.36	4.9	0.3872	-0.1406	-0.2539	
-0.947818	0.355874	0.026596	1.4	3.22	4.69	0.3929	-0.1346	-0.254	
-0.95038	0.349896	0.022082	1.19	2.59	4.48	0.3915	-0.1361	-0.2524	
-0.952332	0.347822	0.027694	1.26	0.91	4.62	0.3886	-0.1452	-0.2508	
-0.950136	0.346724	0.023424	0.49	0	4.48	0.3885	-0.1361	-0.2493	
-0.959042	0.351604	0.02196	-0.07	-0.49	3.78	0.3885	-0.1392	-0.2447	
-0.961116	0.347456	0.0305	-0.35	-0.7	2.94	0.3929	-0.1453	-0.2401	
-0.951722	0.344162	0.039162	-0.77	-0.49	1.82	0.3813	-0.1361	-0.2492	
-0.947208	0.352458	0.040138	-0.77	0.7	1.47	0.3813	-0.1345	-0.2508	
-0.945622	0.35197	0.033672	-0.21	1.54	1.19	0.393	-0.1422	-0.2524	
-0.9455	0.361974	0.033062	-0.07	1.96	0.91	0.3856	-0.1346	-0.2477	
-0.942816	0.371246	0.036478	-0.84	1.96	0.56	0.3958	-0.1362	-0.2494	
-0.939766	0.371124	0.0305	-1.75	1.96	0.14	0.3784	-0.133	-0.2477	
-0.940498	0.374174	0.03477	-2.52	2.24	-0.07	0.3784	-0.1421	-0.2476	
-0.94306	0.377712	0.025986	-2.38	2.59	0.07	0.3885	-0.1361	-0.2478	
-0.947452	0.375638	0.024888	-2.66	2.52	0.14	0.3813	-0.1361	-0.2477	
-0.946476	0.373808	0.019032	-2.59	2.66	0.35	0.39	-0.1346	-0.2524	
-0.953796	0.371612	0.016836	-2.94	1.61	-0.07	0.3973	-0.1453	-0.254	
-0.948794	0.373076	0.023668	-3.43	1.05	-0.21	0.3857	-0.1315	-0.2539	
-0.945988	0.37881	0.017934	-3.36	1.19	-0.28	0.3929	-0.1377	-0.2493	
-0.94977	0.374174	0.01464	-2.87	1.26	-0.35	0.3856	-0.1361	-0.2431	
-0.946476	0.372588	0.020862	-2.66	0.77	-0.35	0.3943	-0.1362	-0.2417	
-0.94184	0.370636	0.022448	-2.31	-0.28	-0.42	0.3886	-0.1361	-0.2524	
-0.943426	0.364048	0.025742	-2.03	-0.49	-0.98	0.3842	-0.1361	-0.2462	
-0.946598	0.369294	0.022082	-1.26	-0.7	-1.47	0.3885	-0.1255	-0.254	
-0.945134	0.363194	0.030744	-1.33	-0.77	-2.03	0.3914	-0.1331	-0.2463	
-0.946476	0.365268	0.024644	-0.42	-1.05	-2.52	0.3944	-0.1392	-0.2555	
-0.947208	0.364658	0.029524	0.07	-0.77	-2.87	0.3927	-0.1271	-0.2417	
-0.948916	0.361974	0.025864	0.07	-0.7	-3.22	0.3857	-0.1422	-0.2462	
-0.94611	0.358436	0.033062	-0.07	-1.26	-3.36	0.39	-0.1361	-0.2462	
-0.948062	0.357216	0.03172	0.35	-1.05	-3.71	0.3785	-0.1375	-0.2523	
-0.951722	0.357094	0.032208	0.56	-0.91	-3.99	0.3856	-0.1391	-0.2462	
-0.948916	0.355874	0.031964	0.77	-1.4	-4.34	0.3914	-0.1331	-0.2494	
-0.943792	0.350262	0.031354	1.4	-1.75	-4.76	0.3914	-0.1346	-0.2509	
-0.945622	0.343674	0.030012	1.33	-1.96	-5.39	0.3841	-0.1331	-0.2447	
-0.945744	0.344894	0.03721	1.12	-2.38	-5.95	0.3914	-0.1255	-0.2494	
-0.941596	0.34709	0.033306	-0.35	-1.61	-6.93	0.39	-0.1376	-0.2524	
-0.944158	0.339282	0.038308	-0.7	-2.1	-8.05	0.3855	-0.127	-0.2447	
-0.948672	0.334524	0.03172	0.07	-3.15	-9.1	0.3972	-0.1286	-0.2556	
-0.940864	0.337696	0.028548	1.68	-5.88	-9.8	0.3885	-0.1255	-0.2571	
-0.942816	0.336598	0.044286	2.66	-7.07	-10.57	0.3929	-0.1301	-0.2555	
-0.9455	0.337696	0.042578	3.22	-6.02	-11.9	0.3899	-0.1255	-0.2478	
-0.951722	0.331108	0.048556	3.29	-5.25	-12.74	0.3971	-0.1256	-0.2479	
-0.952332	0.331962	0.047946	3.71	-5.74	-12.95	0.3972	-0.1225	-0.2587	
-0.953552	0.341356	0.047214	4.55	-5.81	-12.39	0.3899	-0.1133	-0.2587	
-0.95831	0.336964	0.042578	5.04	-5.25	-11.69	0.3856	-0.1255	-0.2555	
-0.95526	0.329888	0.046482	6.16	-6.51	-11.13	0.3971	-0.1195	-0.2495	
-0.955382	0.32879	0.06283	6.16	-5.46	-11.34	0.3899	-0.1164	-0.2556	
-0.950746	0.328058	0.053558	5.95	-4.27	-12.81	0.3856	-0.1118	-0.2571	
-0.943914	0.322446	0.05063	5.6	-5.46	-14.07	0.3957	-0.1149	-0.2556	
-0.947452	0.310124	0.056486	4.83	-6.16	-15.05	0.3841	-0.1118	-0.2586	
-0.957456	0.306098	0.053802	4.55	-6.93	-15.47	0.4029	-0.1059	-0.2588	
-0.96319	0.299388	0.06039	4.9	-6.3	-16.03	0.3813	-0.1133	-0.2648	
-0.963312	0.296216	0.062342	4.97	-6.16	-16.66	0.3913	-0.1103	-0.2572	
-0.960506	0.292922	0.06344	5.11	-6.93	-17.15	0.3914	-0.1103	-0.2618	
-0.965264	0.287188	0.062464	5.32	-6.44	-17.71	0.3886	-0.1103	-0.2695	
-0.974292	0.280234	0.062098	5.32	-6.23	-18.06	0.3971	-0.0936	-0.2681	
-0.989176	0.272548	0.06161	5.25	-6.51	-18.48	0.3885	-0.1027	-0.2649	
-0.9943	0.262056	0.055998	6.02	-8.05	-18.97	0.3928	-0.0967	-0.2649	
-0.99491	0.250832	0.060024	6.37	-7.7	-19.46	0.3913	-0.09209999	-0.265	
-0.992958	0.243634	0.058926	6.44	-7.42	-19.67	0.3856	-0.1027	-0.2648	
-0.988078	0.239608	0.061732	6.37	-7.28	-19.46	0.3927	-0.0891	-0.2665	
-0.994178	0.235826	0.066246	6.44	-6.72	-19.32	0.3855	-0.08899999	-0.2695	
-1.002474	0.224968	0.06344	6.44	-6.65	-19.53	0.3913	-0.08899999	-0.2742	
-1.003572	0.213378	0.060878	5.67	-8.05	-19.81	0.387	-0.0981	-0.2695	
-1.001498	0.202276	0.069906	4.97	-9.1	-19.95	0.3898	-0.0891	-0.2634	
-1.003572	0.19459	0.070638	4.62	-8.75	-19.6	0.3928	-0.0951	-0.2696	
-1.00345	0.188612	0.08174	4.76	-9.31	-18.83	0.3942	-0.07539999	-0.2789	
-1.001986	0.182146	0.087474	5.32	-8.82	-18.55	0.384	-0.0784	-0.2742	
-1.005524	0.173362	0.088206	5.25	-8.12	-18.76	0.387	-0.0799	-0.2773	
-1.010404	0.161894	0.089304	4.9	-7.63	-19.04	0.4044	-0.0693	-0.2929	
-1.00345	0.157746	0.09821	5.25	-6.86	-19.04	0.4	-0.0724	-0.2852	
-0.9943	0.15982	0.101016	6.3	-5.18	-19.11	0.3942	-0.0769	-0.2789	
-0.989786	0.16531	0.109556	6.3	-4.62	-19.32	0.3884	-0.0708	-0.282	
-0.998326	0.16653	0.107238	5.32	-4.13	-19.46	0.384	-0.0571	-0.2897	
-1.006866	0.15982	0.103578	4.41	-3.57	-19.67	0.3926	-0.0557	-0.279	
-1.01016	0.152256	0.104066	4.13	-2.17	-19.74	0.394	-0.0572	-0.2775	
-1.004548	0.141032	0.095404	2.87	-0.56	-19.53	0.397	-0.0602	-0.2806	
-1.00162	0.133834	0.080398	1.82	-0.28	-18.83	0.3912	-0.0526	-0.2898	
-1.010282	0.142374	0.088206	0.7	-1.89	-17.92	0.3955	-0.0511	-0.2821	
-1.013698	0.144082	0.08113	-1.05	-3.5	-17.5	0.3926	-0.0511	-0.2852	
-1.014186	0.13298	0.085156	-2.8	-5.18	-17.43	0.3969	-0.0527	-0.2791	
-1.012112	0.096014	0.095038	-4.06	-5.25	-17.36	0.3912	-0.0419	-0.296	
-1.00406	0.08418	0.107726	-3.99	-5.95	-16.94	0.3941	-0.0435	-0.2914	
-1.003328	0.075762	0.116876	-2.38	-6.23	-17.08	0.394	-0.039	-0.2883	
-0.991616	0.07124799	0.126636	-0.49	-7.35	-17.08	0.3911	-0.0405	-0.2868	
-0.9943	0.05856	0.133834	0.7	-6.16	-17.71	0.3896	-0.042	-0.2821	
-0.999424	0.055876	0.141764	2.66	-5.81	-17.85	0.3839	-0.0358	-0.2944	
-0.99674	0.058682	0.144936	3.92	-4.9	-18.2	0.3969	-0.0329	-0.2884	
-0.987468	0.054168	0.14884	2.45	-2.38	-18.34	0.3823	-0.0207	-0.2898	
-0.977586	0.04087	0.134932	1.33	-1.75	-17.92	0.3911	-0.0253	-0.2945	
-0.97112	0.032086	0.13664	1.54	-1.82	-16.87	0.3882	-0.0252	-0.2976	
-0.971852	0.023912	0.147254	1.82	-3.15	-15.61	0.3808	-0.0025	-0.2884	
-0.97539	0.016348	0.145546	1.05	-3.5	-14.77	0.3867	-0.0101	-0.2976	
-0.98576	0.010126	0.153842	0.98	-3.08	-14.91	0.3968	-0.0162	-0.2977	
-1.0065	0.003294	0.16287	3.43	-0.84	-15.96	0.3881	-0.004	-0.2961	
-1.01199	-0.001098	0.155062	4.62	1.54	-17.15	0.3911	-0.0176	-0.3023	
-1.010282	-0.002196	0.129564	4.2	2.87	-17.71	0.3926	-0.0207	-0.3038	
-1.00467	-0.00671	0.119926	4.2	2.17	-17.78	0.3982	-0.0102	-0.2916	
-1.008818	-0.004392	0.114558	3.64	0.77	-17.64	0.3823	-0.0024	-0.2976	
-1.012722	-0.001098	0.108946	3.43	0.98	-17.5	0.3867	-0.0161	-0.2945	
-1.012356	-0.00366	0.106872	3.36	0.35	-17.57	0.3895	-0.0055	-0.2946	
-1.012722	-0.001464	0.11285	3.01	-1.19	-17.36	0.3866	0.0035	-0.2977	
-1.015772	-0.00366	0.115534	2.73	1.05	-17.71	0.3895	0.0004	-0.2962	
-1.0248	-0.012444	0.098698	2.38	3.64	-17.57	0.3953	0.011	-0.304	
-1.028704	-0.016104	0.103212	2.17	4.06	-17.36	0.3952	0.0019	-0.2932	
-1.013332	-0.02745	0.101992	1.12	3.29	-16.52	0.3937	0.0079	-0.2839	
-1.019676	-0.040138	0.113582	-0.91	3.15	-16.1	0.3909	0.0065	-0.2962	
-1.012234	-0.059048	0.118218	-1.68	2.73	-15.19	0.3895	0.0095	-0.3008	
-1.007598	-0.069052	0.117364	0	3.15	-14.35	0.3952	0.0201	-0.2994	
-1.00101	-0.068442	0.122976	1.19	3.92	-14.14	0.3879	0.011	-0.29	
-0.9882	-0.076372	0.118584	0.49	4.13	-13.93	0.3893	0.0171	-0.2932	
-0.974414	-0.09028	0.12261	0.21	5.32	-13.58	0.3908	0.0171	-0.2932	
-0.976366	-0.100406	0.121756	-0.28	6.44	-12.95	0.3951	0.0186	-0.2948	
-0.992348	-0.106018	0.125172	-1.12	5.53	-11.55	0.3908	0.0232	-0.2963	
-0.995642	-0.119682	0.130784	-3.08	4.2	-10.15	0.3922	0.0186	-0.2932	
-0.99064	-0.126026	0.133956	-3.29	5.46	-9.66	0.3921	0.0337	-0.2871	
-0.97539	-0.12688	0.129686	-3.01	5.39	-9.1	0.3978	0.0382	-0.2857	
-0.966484	-0.127002	0.121756	-2.45	5.67	-8.89	0.3936	0.0246	-0.2917	
-0.960994	-0.127002	0.121634	-1.96	5.46	-9.17	0.3979	0.0322	-0.2887	
-0.9699	-0.1281	0.124684	-2.8	4.83	-9.66	0.3949	0.0413	-0.2856	
-0.980026	-0.12993	0.112606	-2.31	5.74	-10.64	0.4021	0.0366	-0.2764	
-0.983564	-0.131516	0.118462	-0.21	3.99	-10.71	0.3992	0.0412	-0.2841	
-0.989176	-0.138714	0.11102	-0.63	2.59	-10.15	0.3963	0.0428	-0.2857	
-0.997472	-0.133468	0.11468	0.49	1.68	-9.31	0.3905	0.0413	-0.2763	
-0.998692	-0.124074	0.11651	1.47	1.61	-8.61	0.3933	0.0473	-0.2795	
-1.01077	-0.119072	0.096624	1.47	3.22	-8.12	0.3964	0.0413	-0.2903	
-1.012112	-0.113948	0.091012	1.96	4.9	-8.12	0.3905	0.0458	-0.2825	
-1.016382	-0.10858	0.074176	3.43	5.74	-7.56	0.4006	0.0412	-0.278	
-1.028582	-0.096258	0.058194	3.57	4.62	-6.86	0.3935	0.0352	-0.2856	
-1.030656	-0.100772	0.063928	1.75	4.55	-7.14	0.3963	0.0428	-0.2841	
-1.031022	-0.112728	0.052826	2.66	7	-7.84	0.4078	0.0518	-0.2812	
-1.030656	-0.111264	0.055754	3.57	6.65	-7.7	0.3962	0.0458	-0.2764	
-1.02175	-0.118706	0.049532	3.92	5.04	-6.86	0.3992	0.0443	-0.2872	
-1.014796	-0.135298	0.04941	4.27	5.53	-6.23	0.405	0.0488	-0.2858	
-1.007842	-0.138836	0.053192	4.13	5.74	-5.46	0.4036	0.0382	-0.2826	
-1.005646	-0.143106	0.052338	3.99	3.36	-4.41	0.3948	0.0458	-0.2764	
-1.00345	-0.15128	0.0671	2.73	2.38	-3.08	0.3947	0.0579	-0.2795	
-0.998326	-0.15311	0.073932	1.82	1.4	-1.68	0.3977	0.0412	-0.2733	
-0.993324	-0.156526	0.074176	1.61	-0.35	-0.98	0.3991	0.0473	-0.2734	
-0.981978	-0.164822	0.085156	1.4	-2.38	-1.19	0.3948	0.0458	-0.2764	
-0.974292	-0.165554	0.0854	0.84	-3.01	-1.89	0.4063	0.0579	-0.2843	
-0.976976	-0.151646	0.082838	-0.14	-2.66	-2.17	0.4019	0.0548	-0.275	
-0.98149	-0.145302	0.090402	-0.7	-3.85	-1.82	0.4078	0.0457	-0.2781	
-0.99064	-0.153354	0.101138	-1.12	-2.59	-1.05	0.4021	0.0427	-0.2842	
-0.999058	-0.157868	0.09552599	-2.31	-2.31	-0.07	0.4064	0.0503	-0.2843	
-0.998814	-0.164578	0.091988	-4.13	-1.75	0.35	0.4035	0.0488	-0.2842	
-0.996984	-0.160186	0.09455	-4.2	-1.96	0.7	0.3963	0.0443	-0.2826	
-0.995276	-0.14884	0.08686399	-2.66	-1.33	0.7	0.3991	0.0594	-0.2842	
-0.992958	-0.144448	0.082838	-2.17	-0.77	0.84	0.4006	0.0503	-0.2827	
-0.990762	-0.152988	0.09211	-2.1	-0.28	0.91	0.3947	0.064	-0.278	
-0.99613	-0.151158	0.084302	-1.75	0.91	1.19	0.3976	0.0533	-0.278	
-1.001742	-0.141276	0.077348	-1.05	0.7	1.4	0.3991	0.0458	-0.2811	
-0.998448	-0.147132	0.082716	-0.98	0.14	2.17	0.402	0.0625	-0.2889	
-0.99979	-0.155306	0.085644	-0.21	0.21	2.94	0.4049	0.0503	-0.2858	
-0.995886	-0.150914	0.078324	0.28	1.12	3.5	0.4048	0.0563	-0.275	
-0.998814	-0.150304	0.079422	0.42	-0.35	3.92	0.3861	0.0504	-0.2763	
-1.00223	-0.150304	0.078934	0.84	-0.63	4.83	0.4034	0.0533	-0.2796	
-1.005158	-0.142496	0.07808	0.35	-0.49	5.32	0.3991	0.0488	-0.2765	
-1.007232	-0.142984	0.078324	-0.14	-2.24	5.88	0.3977	0.0397	-0.2749	
-0.996618	-0.141764	0.082106	-0.07	-1.26	5.88	0.4021	0.0458	-0.2826	
-0.995398	-0.138226	0.082594	0.14	-2.1	6.37	0.3976	0.0533	-0.2765	
-0.989664	-0.133346	0.086254	-0.21	-2.8	7.21	0.4005	0.0397	-0.2718	
-0.990884	-0.129564	0.093818	-1.12	-2.1	8.05	0.3992	0.0427	-0.2826	
-0.987834	-0.122244	0.093818	-1.96	-1.96	9.45	0.395	0.0261	-0.2825	
-0.987468	-0.11712	0.097356	-3.01	-2.03	10.5	0.3904	0.0428	-0.2748	
-0.989664	-0.124318	0.101748	-3.92	-2.8	11.41	0.3992	0.0352	-0.2826	
-0.996008	-0.130662	0.101748	-4.55	-1.89	11.55	0.4065	0.0366	-0.2857	
-0.995398	-0.12322	0.096746	-4.55	-2.52	11.83	0.3993	0.0291	-0.2872	
-0.988566	-0.11102	0.098332	-3.36	-3.43	12.04	0.3993	0.0276	-0.2841	
-0.985272	-0.11102	0.108336	-1.82	-2.52	12.53	0.3993	0.0306	-0.2856	
-0.9882	-0.110288	0.105652	-1.4	-1.82	13.58	0.402	0.0397	-0.278	
-0.994422	-0.10492	0.105896	-1.47	-1.54	14.63	0.3993	0.0322	-0.2903	
-0.996496	-0.099918	0.099552	-1.68	-1.47	15.4	0.3977	0.0336	-0.2764	
-1.004182	-0.096014	0.101992	-1.75	-1.19	16.03	0.4051	0.0321	-0.2842	
-1.005646	-0.09552599	0.09577	-1.68	-1.26	16.45	0.4036	0.0276	-0.2841	
-0.998448	-0.091866	0.09455	-1.05	-2.1	16.45	0.3935	0.0322	-0.2887	
-0.999668	-0.084058	0.09211	-0.63	-2.52	16.38	0.3993	0.023	-0.281	
-1.008452	-0.075274	0.09076799	-0.21	-3.5	16.45	0.3951	0.014	-0.2932	
-1.01809	-0.065392	0.089426	0.21	-3.85	16.59	0.398	0.0216	-0.2994	
-1.018578	-0.05246	0.0854	-0.14	-4.13	16.94	0.3966	0.0034	-0.2839	
-1.018578	-0.04148	0.09028	-0.63	-3.64	17.36	0.3878	0.0094	-0.2762	
-1.014308	-0.032696	0.09211	-1.4	-3.57	17.92	0.4009	0.0124	-0.2902	
-1.011502	-0.027328	0.092964	-1.75	-3.85	18.48	0.3923	0.0049	-0.2885	
-1.011258	-0.018422	0.100162	-1.75	-3.57	18.69	0.3951	0.0064	-0.2809	
-1.019066	-0.011102	0.09942999	-2.31	-2.94	18.97	0.4068	0.0033	-0.2902	
-1.014918	-0.005246	0.099918	-2.59	-3.22	19.11	0.3952	-0.0087	-0.2854	
-1.007598	0.001952	0.091988	-3.01	-2.45	18.83	0.4025	0.0003	-0.2963	
-1.015162	0.011346	0.104432	-3.08	-3.08	18.34	0.3982	-0.0026	-0.2978	
-1.011258	0.014152	0.105164	-3.01	-3.99	17.99	0.3995	-0.0026	-0.2839	
-1.006378	0.015372	0.106872	-3.43	-3.5	17.57	0.3968	-0.008599999	-0.2947	
-0.998814	0.016836	0.110532	-3.29	-5.39	17.78	0.3938	-0.0056	-0.2854	
-0.999302	0.019886	0.120414	-3.64	-4.27	17.78	0.3967	-0.0193	-0.2854	
-0.996496	0.021594	0.124562	-4.27	-3.5	17.78	0.3952	-0.0087	-0.287	
-0.996618	0.027816	0.12322	-3.99	-5.04	17.92	0.3809	-0.0267	-0.2913	
-0.995276	0.037088	0.1281	-2.8	-5.95	17.64	0.3911	-0.0177	-0.2992	
-0.992104	0.049532	0.131028	-2.31	-6.44	17.22	0.3896	-0.0222	-0.293	
-0.99979	0.052704	0.137738	-2.52	-5.18	16.31	0.3881	-0.0222	-0.2868	
-0.998082	0.057218	0.136762	-3.15	-5.32	16.03	0.3809	-0.0267	-0.2913	
-0.99308	0.069174	0.141276	-3.29	-3.15	15.61	0.3868	-0.0282	-0.3022	
-0.993812	0.081252	0.144448	-2.8	0	14.56	0.3911	-0.0328	-0.2945	
-0.992958	0.088938	0.133712	-2.59	0.91	14.28	0.3912	-0.0344	-0.296	
-0.996862	0.097722	0.124806	-2.8	1.75	13.79	0.3927	-0.0374	-0.2976	
-0.99735	0.105774	0.124684	-2.94	3.78	12.67	0.3826	-0.0434	-0.3005	
-1.006744	0.106262	0.129564	-1.61	5.39	11.13	0.3825	-0.0373	-0.2898	
-0.99125	0.09638	0.139812	2.45	4.97	10.78	0.3897	-0.0374	-0.296	
-0.993202	0.09076799	0.135298	6.44	7.7	10.71	0.3854	-0.0358	-0.2913	
-0.998936	0.10126	0.117242	8.05	10.01	11.2	0.384	-0.0404	-0.2959	
-1.00772	0.121146	0.094794	7.42	10.15	11.83	0.3941	-0.0481	-0.2852	
-1.011868	0.134078	0.083326	4.48	7.14	12.11	0.3869	-0.051	-0.2867	
-1.009916	0.135054	0.086254	0.84	4.41	12.53	0.3912	-0.0495	-0.2883	
-1.004182	0.123342	0.09857599	-1.68	3.01	13.3	0.3942	-0.0587	-0.2883	
-1.001254	0.114802	0.10553	-2.59	2.94	14.7	0.3897	-0.045	-0.2867	
-1.00223	0.113582	0.11529	-2.17	3.64	15.75	0.3926	-0.0557	-0.2821	
-1.005646	0.118096	0.12017	-0.63	4.76	17.01	0.3868	-0.0587	-0.2728	
-1.0065	0.124318	0.105286	0	5.39	18.06	0.3954	-0.0527	-0.276	
-1.009428	0.13359	0.090524	-0.7	5.53	18.41	0.3927	-0.0572	-0.2836	
-1.009672	0.142008	0.077592	-1.61	4.97	18.27	0.3926	-0.0572	-0.279	
-1.008696	0.152988	0.077592	-3.85	3.36	18.2	0.3941	-0.0511	-0.2867	
-1.008086	0.167994	0.085156	-5.46	2.66	17.92	0.3898	-0.0632	-0.2866	
-1.003328	0.176412	0.08967	-6.16	3.01	17.36	0.3913	-0.07229999	-0.2805	
-0.996618	0.17263	0.095282	-7.14	3.43	16.94	0.3911	-0.0618	-0.2713	
-1.001864	0.172874	0.093452	-7.63	3.78	16.94	0.3912	-0.0678	-0.2712	
-1.005158	0.174216	0.08686399	-7.42	4.55	17.29	0.3913	-0.0739	-0.2758	
-0.999302	0.19337	0.08113	-6.72	5.32	17.36	0.3942	-0.0784	-0.2758	
-0.987834	0.212646	0.08235	-6.58	6.02	17.29	0.3928	-0.086	-0.2804	
-0.976976	0.220088	0.085156	-7.28	4.48	17.29	0.387	-0.0768	-0.2788	
-0.970144	0.225822	0.094306	-6.93	3.71	17.29	0.3942	-0.0815	-0.2774	
-0.96807	0.223992	0.099918	-5.95	4.2	17.36	0.3942	-0.0875	-0.2712	
-0.970632	0.229848	0.106506	-5.18	4.69	17.64	0.3942	-0.0845	-0.2743	
-0.98271	0.23485	0.100284	-4.27	5.81	17.78	0.3912	-0.0769	-0.2727	
-0.98454	0.244244	0.09638	-2.87	6.58	17.43	0.3884	-0.086	-0.2696	
-0.982832	0.248758	0.088694	-2.8	7.28	16.8	0.3885	-0.0981	-0.2772	
-0.981246	0.247782	0.076738	-3.01	8.96	16.03	0.3927	-0.0906	-0.265	
-0.978806	0.244976	0.066612	-2.94	7.28	16.31	0.3956	-0.0906	-0.2681	
-0.985028	0.257664	0.07991	-2.1	6.93	16.31	0.3927	-0.0906	-0.2634	
-0.980514	0.268278	0.074542	-1.61	5.88	15.61	0.3986	-0.0982	-0.2681	
-0.973438	0.271938	0.067954	-0.77	5.39	14.56	0.3973	-0.1027	-0.2773	
-0.975024	0.27938	0.055022	0.56	5.53	13.72	0.3841	-0.1072	-0.2648	
-0.975512	0.279258	0.054168	1.4	4.13	13.86	0.3885	-0.1057	-0.2664	
-0.987956	0.293898	0.058072	3.78	3.57	14.14	0.3928	-0.1118	-0.2633	
-0.986004	0.31842	0.049288	4.27	3.78	13.79	0.3856	-0.1057	-0.2664	
-0.974536	0.330132	0.048678	2.03	5.11	12.74	0.3971	-0.1149	-0.2572	
-0.968192	0.32452	0.041114	-0.35	4.83	12.81	0.3871	-0.1163	-0.2679	
-0.964898	0.325618	0.03416	-1.68	2.59	13.37	0.3943	-0.1133	-0.268	
-0.977098	0.323178	0.029524	-2.52	2.03	13.93	0.3915	-0.1194	-0.2679	
-0.971364	0.320006	0.042334	-3.29	0.98	13.37	0.3872	-0.1193	-0.2725	
-0.955626	0.314272	0.046482	-3.57	-1.19	11.69	0.3798	-0.1163	-0.257	
-0.94001	0.316712	0.058804	-3.01	-1.68	9.8	0.3929	-0.1194	-0.2587	
-0.943426	0.333304	0.049166	-2.24	-1.12	9.03	0.3857	-0.133	-0.2616	
-0.943548	0.327204	0.072224	-2.94	-1.26	9.1	0.3856	-0.1148	-0.2617	
-0.94611	0.32452	0.069784	-2.73	-1.12	9.31	0.3857	-0.1239	-0.2663	
-0.959408	0.338306	0.07991	-1.96	0.77	8.89	0.3829	-0.1284	-0.2662	
-0.954162	0.35563	0.071614	-2.52	2.38	8.4	0.3871	-0.1254	-0.2617	
-0.94489	0.348554	0.075274	-3.99	1.54	8.12	0.3829	-0.136	-0.2662	
-0.935862	0.337452	0.076494	-4.27	1.26	7.7	0.3799	-0.1284	-0.26	
-0.928664	0.335988	0.082594	-3.5	1.96	7.35	0.3843	-0.1239	-0.2678	
-0.926712	0.339282	0.082472	-1.82	2.73	6.72	0.3799	-0.1254	-0.2585	
-0.934032	0.3355	0.080032	0.28	3.5	5.74	0.3857	-0.1346	-0.2524	
-0.932568	0.342088	0.064294	2.38	1.89	5.39	0.39	-0.127	-0.2617	
-0.939278	0.34831	0.05734	2.17	3.22	5.53	0.39	-0.124	-0.2586	
-0.94062	0.34831	0.055022	2.1	1.96	6.09	0.3756	-0.1314	-0.2554	
-0.948428	0.356118	0.048434	2.66	0.56	6.44	0.3829	-0.1391	-0.26	
-0.945988	0.367708	0.042334	2.66	0.42	6.93	0.3843	-0.133	-0.2601	
-0.963068	0.37027	0.04331	1.19	2.03	6.37	0.3857	-0.1376	-0.257	
-0.965508	0.368562	0.03843	0.07	0.21	5.88	0.39	-0.1377	-0.2478	
-0.958676	0.366488	0.039772	-0.28	-0.91	6.02	0.3785	-0.1406	-0.2569	
-0.9516	0.366	0.042334	-0.84	-1.19	5.67	0.38	-0.1436	-0.2584	
-0.950502	0.353556	0.046604	-1.47	-0.91	5.18	0.3785	-0.1451	-0.2476	
-0.947818	0.356606	0.05856	-1.12	-1.33	4.34	0.383	-0.1451	-0.2708	
-0.946964	0.367586	0.05063	-1.33	-0.98	3.64	0.3771	-0.1375	-0.2646	
-0.946232	0.373076	0.057096	-1.89	-0.98	3.01	0.3873	-0.1436	-0.2678	
-0.93635	0.374174	0.059414	-3.5	-1.12	2.87	0.3784	-0.136	-0.2523	
-0.934398	0.37515	0.059292	-4.34	-1.47	2.73	0.3786	-0.1451	-0.2615	
-0.929762	0.372344	0.06283	-5.04	-1.26	1.82	0.3728	-0.142	-0.2599	
-0.93147	0.38186	0.062342	-4.55	-0.56	1.12	0.3843	-0.1376	-0.2554	
-0.925126	0.377224	0.066978	-4.06	-0.84	0.56	0.3887	-0.1345	-0.2709	
-0.930494	0.371002	0.058438	-2.94	-0.42	0.07	0.3815	-0.1466	-0.2661	
-0.93208	0.377224	0.066856	-1.68	-1.47	-0.07	0.3801	-0.1466	-0.263	
-0.930616	0.379908	0.067466	-1.26	-1.68	-0.49	0.3786	-0.1436	-0.2615	
-0.932568	0.374784	0.069906	-0.77	-1.33	-0.77	0.3772	-0.1435	-0.2646	
-0.930616	0.37881	0.072346	0.35	-1.96	-1.33	0.3756	-0.1284	-0.2615	
-0.926224	0.38857	0.06734399	0.84	-1.61	-1.96	0.3785	-0.136	-0.2615	
-0.92354	0.3843	0.068076	0.98	-1.33	-2.59	0.3816	-0.142	-0.2739	
-0.928054	0.3782	0.06527	0.35	-1.75	-3.08	0.3786	-0.1405	-0.2661	
-0.933056	0.37088	0.069418	0	-2.1	-3.5	0.3714	-0.142	-0.2691	
-0.934764	0.373686	0.071858	0.49	-1.96	-4.34	0.3756	-0.1329	-0.2631	
-0.934764	0.377956	0.073322	0.7	-0.91	-5.25	0.3729	-0.1419	-0.2753	
-0.938546	0.37759	0.070882	1.19	-0.98	-5.74	0.3844	-0.1406	-0.2677	
-0.941352	0.371246	0.064294	0.42	-1.12	-5.88	0.3815	-0.1345	-0.2677	
-0.947452	0.362462	0.065514	-0.28	-1.19	-5.67	0.3785	-0.1299	-0.2646	
-0.947574	0.36478	0.06893	-0.21	-1.19	-5.74	0.3728	-0.1374	-0.2646	
-0.94184	0.362462	0.066612	-1.05	-1.47	-5.95	0.3814	-0.136	-0.2631	
-0.940742	0.35258	0.066368	-1.05	-1.82	-5.95	0.3757	-0.1481	-0.2584	
-0.94489	0.35563	0.071858	-0.14	-2.24	-5.74	0.3843	-0.1345	-0.2616	
-0.948062	0.352092	0.073078	0.21	-1.89	-6.37	0.38	-0.1314	-0.2647	
-0.94306	0.347822	0.078324	-0.14	-2.24	-7.14	0.3873	-0.139	-0.2693	
-0.942084	0.342698	0.078568	-0.14	-2.31	-7.63	0.3743	-0.142	-0.2661	
-0.939522	0.340868	0.081984	-0.42	-2.45	-7.63	0.3771	-0.1284	-0.2677	
-0.939522	0.336598	0.08295999	-0.7	-2.1	-7.63	0.3871	-0.1285	-0.2586	
-0.946598	0.339038	0.084912	-0.35	-1.68	-8.26	0.3872	-0.1285	-0.2647	
-0.954406	0.32757	0.080154	-0.63	-1.54	-8.75	0.3756	-0.1299	-0.2662	
-0.959042	0.321836	0.078202	-1.19	-2.31	-8.68	0.3843	-0.1208	-0.2709	
-0.947452	0.319518	0.085522	-1.05	-2.59	-7.84	0.3887	-0.1239	-0.274	
-0.940376	0.320128	0.080154	-1.12	-1.47	-7.21	0.3888	-0.1284	-0.2848	
-0.937326	0.298778	0.086498	-0.63	-1.05	-6.79	0.38	-0.1238	-0.2709	
-0.932934	0.292068	0.096258	0.49	-2.45	-6.72	0.3844	-0.1238	-0.2755	
-0.943548	0.304024	0.110044	1.89	-1.96	-7.56	0.3815	-0.1253	-0.2739	
-0.96929	0.298656	0.096868	3.22	0.42	-9.31	0.3887	-0.1239	-0.274	
-0.979416	0.300242	0.088206	4.83	0.91	-10.92	0.3842	-0.1117	-0.271	
-0.974414	0.31171	0.088816	6.44	-1.96	-10.99	0.3699	-0.1177	-0.2785	
-0.972706	0.320372	0.071614	7.07	-1.33	-11.27	0.38	-0.1223	-0.2709	
-0.973316	0.324398	0.055266	7.7	-1.96	-11.48	0.3799	-0.1162	-0.2724	
-0.974414	0.327082	0.053436	7.21	-2.94	-11.69	0.393	-0.1103	-0.2757	
-0.978318	0.325862	0.055022	5.67	-2.8	-12.32	0.3871	-0.1194	-0.2663	
-0.980636	0.320982	0.047702	4.27	-3.08	-13.16	0.3757	-0.1192	-0.2785	
-0.976488	0.312076	0.05368	3.64	-5.6	-13.51	0.3769	-0.1132	-0.2632	
-0.97295	0.311466	0.059292	3.43	-6.23	-13.37	0.3769	-0.1132	-0.2632	
-0.973072	0.313418	0.068198	2.24	-7.07	-13.3	0.3814	-0.1087	-0.274	
-0.975024	0.305488	0.07198	1.89	-8.33	-13.72	0.3842	-0.1057	-0.2679	
-0.975268	0.293166	0.076006	1.47	-8.89	-14.49	0.3829	-0.1086	-0.2848	
-0.971364	0.280722	0.085888	0.91	-8.96	-15.26	0.3799	-0.09649999	-0.2787	
-0.968558	0.270352	0.100406	1.4	-8.96	-15.96	0.3798	-0.1011	-0.2694	
-0.96746	0.262056	0.109434	2.73	-9.03	-16.73	0.3828	-0.09649999	-0.2787	
-0.968314	0.255224	0.117242	3.99	-8.4	-17.85	0.3884	-0.086	-0.2742	
-0.967948	0.24339	0.11895	4.97	-9.45	-18.55	0.3828	-0.095	-0.2787	
-0.980636	0.23485	0.124562	5.81	-7.56	-19.25	0.3856	-0.0935	-0.2788	
-0.984418	0.227042	0.116632	6.58	-8.89	-19.39	0.3815	-0.1025	-0.2941	
-0.985882	0.218136	0.117974	6.37	-8.75	-19.39	0.3755	-0.0889	-0.2802	
-0.984418	0.213012	0.119072	6.3	-7.98	-19.32	0.3871	-0.0874	-0.2834	
-0.979294	0.212768	0.124318	6.23	-7.07	-19.39	0.3726	-0.0858	-0.2787	
-0.97905	0.213744	0.12017	5.88	-5.88	-19.67	0.3726	-0.07669999	-0.2849	
-0.979294	0.206058	0.121756	4.9	-6.37	-19.67	0.3886	-0.0814	-0.2912	
-0.978806	0.192638	0.124562	4.34	-7	-19.53	0.3785	-0.0843	-0.2926	
-0.97783	0.179462	0.127368	4.2	-7.35	-18.97	0.3784	-0.0828	-0.288	
-0.979782	0.173362	0.133102	4.69	-7.35	-18.41	0.3826	-0.0631	-0.2897	
-0.979294	0.172874	0.144814	4.41	-7.07	-17.92	0.3813	-0.0631	-0.302	
-0.985028	0.170068	0.146522	3.99	-5.6	-17.57	0.3856	-0.0661	-0.2989	
-0.988444	0.167872	0.148962	4.06	-3.71	-17.64	0.387	-0.0647	-0.2943	
-0.987224	0.162016	0.148596	3.85	-2.1	-17.99	0.377	-0.0706	-0.2957	
-0.991616	0.154696	0.14518	2.87	-0.77	-18.13	0.3798	-0.0631	-0.2989	
-0.995276	0.14701	0.134444	2.03	0.63	-17.85	0.3842	-0.0692	-0.2943	
-1.003328	0.140056	0.125416	1.12	1.12	-16.8	0.387	-0.0616	-0.2974	
-1.007476	0.134444	0.116632	0.14	0.14	-15.54	0.3898	-0.0632	-0.2851	
-1.00589	0.13176	0.11529	-1.54	-0.28	-14.56	0.3768	-0.0555	-0.2927	
-1.004914	0.135298	0.119316	-2.73	-0.91	-14.21	0.3768	-0.0509	-0.2974	
-1.006744	0.140544	0.123464	-3.99	-0.28	-14.56	0.3927	-0.0541	-0.2913	
-1.015162	0.129442	0.114192	-4.9	-0.49	-15.33	0.3767	-0.0464	-0.2866	
-1.014796	0.110898	0.120536	-5.04	-1.75	-15.75	0.3942	-0.0526	-0.2991	
-1.01626	0.101016	0.127124	-4.76	-1.26	-16.1	0.3855	-0.0479	-0.2975	
-1.017358	0.093696	0.126758	-4.06	-0.28	-17.36	0.3883	-0.0434	-0.2913	
-1.00528	0.09162199	0.127002	-3.29	-0.42	-18.2	0.3839	-0.0359	-0.2883	
-1.00223	0.086132	0.124928	-3.08	-0.91	-18.48	0.3753	-0.0342	-0.2959	
-0.996374	0.077348	0.133346	-3.57	-1.89	-18.06	0.3883	-0.0373	-0.3006	
-0.99979	0.068564	0.132736	-3.99	-1.68	-17.22	0.384	-0.0343	-0.3021	
-1.003328	0.061366	0.139324	-3.57	-2.59	-16.8	0.3854	-0.0313	-0.3022	
-0.999424	0.049288	0.142496	-3.64	-3.29	-16.45	0.3839	-0.0161	-0.3084	
-0.999912	0.040626	0.14335	-2.94	-3.22	-16.59	0.3839	-0.0206	-0.3022	
-0.997716	0.03904	0.141154	-0.07	-3.99	-17.15	0.3853	-0.0191	-0.296	
-0.994422	0.03477	0.154574	1.05	-4.06	-17.71	0.3853	-0.0131	-0.2992	
-0.987956	0.017568	0.157258	-0.56	-3.64	-17.29	0.3853	-0.01	-0.3007	
-0.980392	0.000244	0.159942	-0.84	-2.03	-16.24	0.3866	-0.0146	-0.2899	
-0.978074	-0.009881999	0.16104	0.63	-1.68	-14.21	0.3882	-0.0146	-0.2976	
-0.984662	-0.010858	0.15921	2.03	-1.75	-11.9	0.3867	-0.0055	-0.3038	
-0.984418	-0.010492	0.162992	1.61	-2.38	-10.01	0.3808	-0.0055	-0.2945	
-0.972828	-0.015494	0.165676	1.19	-3.29	-8.61	0.3766	-0.013	-0.3052	
-0.967704	-0.021228	0.178364	1.68	-3.29	-8.19	0.3853	0.0036	-0.3116	
-0.973316	-0.011712	0.179828	3.78	-2.31	-9.03	0.3853	-0.0161	-0.3007	
-0.9943	-0.00366	0.169214	3.78	-0.98	-10.71	0.3766	-0.0008	-0.3068	
-1.0126	0.001342	0.168116	2.1	0.35	-12.67	0.3823	0.002	-0.3069	
-1.022726	-0.00061	0.161894	1.96	-0.21	-14.28	0.3883	-0.0115	-0.3146	
-1.01748	0.004636	0.153964	1.68	0	-14.98	0.3809	-0.0054	-0.3053	
-1.018334	0.007686	0.142008	2.73	0.56	-15.47	0.3809	0.0051	-0.3069	
-1.020896	0.0122	0.142252	3.08	2.66	-15.4	0.3911	0.005	-0.3132	
-0.998326	0.00976	0.120902	1.61	5.18	-15.12	0.378	0.0036	-0.3084	
-0.987346	0.009638	0.124928	0.63	6.65	-14.56	0.3736	0.009699999	-0.3068	
-0.985272	0.00122	0.107604	-2.73	7.98	-13.79	0.375	0.0081	-0.3038	
-0.989298	-0.019764	0.116998	-5.67	5.46	-12.95	0.3867	0.0081	-0.3116	
-1.000034	-0.050874	0.13969	-8.33	4.34	-11.55	0.388	0.0156	-0.3039	
-1.013332	-0.078202	0.14396	-8.26	6.09	-10.99	0.3822	0.0157	-0.307	
-1.028338	-0.092476	0.1342	-6.02	7.42	-10.99	0.3865	0.0217	-0.2993	
-1.030778	-0.088938	0.12383	-3.85	6.09	-11.41	0.3864	0.0323	-0.2978	
-1.017846	-0.08906	0.11651	-0.98	5.81	-12.32	0.385	0.0187	-0.2962	
-1.003328	-0.084302	0.12383	1.82	3.92	-13.16	0.3806	0.0278	-0.2978	
-0.980148	-0.092476	0.128588	2.52	3.29	-13.23	0.3762	0.0354	-0.29	
-0.962336	-0.106384	0.14945	3.71	3.99	-13.16	0.3836	0.0293	-0.304	
-0.978684	-0.10309	0.150304	3.78	4.34	-12.81	0.3791	0.0308	-0.2962	
-0.995764	-0.108214	0.151402	2.31	5.04	-11.76	0.3965	0.0292	-0.2948	
-0.985882	-0.11468	0.154452	2.59	4.13	-10.5	0.3848	0.0399	-0.2917	
-0.976976	-0.116266	0.154574	3.85	3.29	-9.66	0.3878	0.0308	-0.2963	
-0.983442	-0.108336	0.155184	4.48	2.03	-9.03	0.395	0.0398	-0.2964	
-0.997228	-0.111508	0.146522	4.06	3.57	-8.75	0.3892	0.0383	-0.2917	
-1.001498	-0.114314	0.133468	5.32	5.53	-8.68	0.3878	0.0262	-0.2886	
-1.005646	-0.110898	0.118096	6.72	5.95	-8.19	0.3893	0.0323	-0.2963	
-1.007354	-0.092598	0.099918	5.88	5.95	-7.56	0.3892	0.0338	-0.2917	
-1.011014	-0.086254	0.092354	6.23	5.81	-7	0.3892	0.0368	-0.2933	
-1.021262	-0.07625	0.078324	5.74	3.78	-6.3	0.3892	0.0353	-0.2948	
-1.02175	-0.082594	0.08906	3.78	3.15	-6.02	0.3936	0.0338	-0.301	
-1.012112	-0.103822	0.097112	2.94	3.92	-6.3	0.3864	0.0277	-0.2917	
-1.008574	-0.111264	0.08967	2.87	3.57	-6.65	0.3906	0.0383	-0.2933	
-1.002352	-0.105042	0.095648	2.94	2.66	-6.93	0.3878	0.0338	-0.2917	
-0.997472	-0.108214	0.101138	2.03	1.96	-6.58	0.3848	0.0323	-0.287	
-1.001742	-0.116998	0.104432	1.26	0.98	-5.67	0.3906	0.0474	-0.2979	
-0.999424	-0.12932	0.113094	0.28	0.35	-4.83	0.3978	0.0474	-0.298	
-0.99247	-0.134444	0.108824	-0.84	0.63	-4.34	0.3877	0.0474	-0.2902	
-0.985638	-0.135786	0.112484	-2.1	-0.07	-3.64	0.3906	0.0429	-0.2979	
-0.98515	-0.143838	0.112362	-2.17	0	-2.87	0.3891	0.0459	-0.2933	
-0.986614	-0.140178	0.113826	-1.4	-0.21	-1.89	0.3963	0.0458	-0.2857	
-0.991006	-0.14091	0.112484	-1.75	-1.05	-1.26	0.3847	0.0565	-0.2856	
-0.981612	-0.141886	0.11468	-2.31	-1.4	-1.4	0.3949	0.061	-0.2981	
-0.98271	-0.147376	0.12139	-1.82	-1.26	-1.47	0.4006	0.0549	-0.2935	
-0.989908	-0.139934	0.11834	-0.77	-1.19	-1.12	0.3891	0.0459	-0.2871	
-0.997716	-0.132248	0.113338	-0.07	-1.61	-0.49	0.3978	0.0443	-0.2918	
-1.001986	-0.132492	0.114192	0.35	-1.05	-0.14	0.3934	0.061	-0.2919	
-1.002474	-0.136518	0.11773	-0.21	-0.42	0.07	0.4007	0.0428	-0.2934	
-1.000644	-0.133712	0.111142	0.42	0.35	0.14	0.3933	0.0549	-0.2857	
-0.997228	-0.121268	0.11224	1.75	0.56	0.21	0.392	0.0474	-0.2964	
-0.99613	-0.115412	0.106506	2.24	1.33	0.49	0.3964	0.0458	-0.2934	
-0.995764	-0.118462	0.108092	1.82	1.4	1.12	0.3788	0.0505	-0.2778	
-0.994666	-0.12932	0.104188	1.12	1.4	1.54	0.3949	0.0428	-0.2903	
-0.994544	-0.130174	0.113216	0.63	1.4	1.89	0.392	0.0398	-0.2871	
-0.992104	-0.125294	0.114558	0.42	1.4	2.24	0.3805	0.0414	-0.2932	
-0.991982	-0.128222	0.111508	0.7	0.98	2.59	0.3964	0.0398	-0.2949	
-0.992836	-0.133346	0.11224	0.28	1.19	2.8	0.3964	0.0443	-0.2918	
-0.998326	-0.134444	0.109312	-0.42	1.47	2.73	0.3949	0.0428	-0.2872	
-0.998936	-0.129198	0.109312	-0.63	1.05	3.15	0.3962	0.0519	-0.2826	
-0.99918	-0.124684	0.102724	-0.21	0.84	3.71	0.3949	0.0458	-0.2918	
-1.001254	-0.120292	0.11102	0	0.63	4.41	0.3891	0.0474	-0.2856	
-0.99796	-0.12383	0.10492	-0.63	0.28	4.41	0.3863	0.0399	-0.2948	
-1.002718	-0.123464	0.09821	-0.56	1.05	4.34	0.392	0.0367	-0.2794	
-1.004182	-0.118096	0.0976	-0.49	0.77	4.55	0.389	0.0428	-0.2794	
-1.00589	-0.112484	0.096014	-0.77	0.49	5.18	0.3862	0.0398	-0.2886	
-1.001132	-0.11346	0.104676	-0.7	-0.07	5.95	0.3905	0.0398	-0.2825	
-0.99491	-0.118096	0.101504	-0.14	-0.21	6.51	0.3921	0.0398	-0.2918	
-0.995032	-0.119072	0.10248	-0.21	-0.42	6.86	0.3993	0.0337	-0.2887	
-0.996618	-0.110776	0.107726	-0.63	-1.05	7	0.3905	0.0459	-0.2856	
-1.001986	-0.104554	0.108214	0	-1.54	7.28	0.3892	0.0353	-0.2933	
-1.004426	-0.103944	0.108092	0.35	-2.1	7.77	0.3863	0.0353	-0.2901	
-1.000522	-0.103212	0.117242	0.49	-1.89	7.98	0.3877	0.0353	-0.2871	
-0.996984	-0.101992	0.111874	0.49	-1.26	7.98	0.3951	0.0246	-0.2933	
-0.99918	-0.092842	0.106506	0.49	-1.05	8.05	0.3892	0.0383	-0.2933	
-1.006256	-0.08784	0.104066	0.28	-0.84	8.61	0.3877	0.0261	-0.2809	
-1.00711	-0.084546	0.106262	0.21	-1.12	9.52	0.395	0.0292	-0.2871	
-1.007598	-0.08295999	0.098454	-0.42	-1.54	10.15	0.3921	0.0292	-0.284	
-1.00223	-0.078324	0.101626	-1.4	-1.89	10.78	0.395	0.0216	-0.2886	
-0.998448	-0.076006	0.107116	-1.75	-2.8	11.06	0.3951	0.0262	-0.2948	
-0.997472	-0.074054	0.11346	-2.17	-3.01	11.48	0.3907	0.0246	-0.2855	
-0.99857	-0.070638	0.11712	-2.45	-2.87	12.04	0.4008	0.0276	-0.2887	
-1.001742	-0.073932	0.118462	-2.73	-2.87	12.67	0.3893	0.0125	-0.2901	
-1.000888	-0.074786	0.118584	-2.52	-2.87	13.16	0.3922	0.0201	-0.2932	
-0.997594	-0.068198	0.119926	-2.66	-3.36	13.58	0.3864	0.007999999	-0.2869	
-0.997594	-0.060512	0.120902	-2.17	-3.01	13.72	0.385	0.0141	-0.2916	
-0.999912	-0.058072	0.122244	-1.47	-3.36	13.86	0.3881	-0.004	-0.2961	
-1.000766	-0.057218	0.12627	-0.91	-2.66	14	0.3908	0.007999999	-0.2885	
-1.001254	-0.051972	0.122244	-0.7	-2.03	14.35	0.3924	0.007999999	-0.3009	
-1.000156	-0.037698	0.118706	-0.84	-2.59	15.19	0.3908	0.0125	-0.2947	
-0.997716	-0.027206	0.118584	-1.12	-3.22	16.24	0.3894	0.0111	-0.2993	
-0.998204	-0.02501	0.12505	-1.54	-3.29	17.57	0.3866	0.0005	-0.2977	
-0.999668	-0.022936	0.132126	-1.68	-2.52	18.55	0.3895	0.005	-0.2977	
-0.999424	-0.018056	0.130296	-1.33	-2.24	19.04	0.3939	-0.008599999	-0.2977	
-0.998814	-0.008417999	0.127978	-1.33	-2.17	19.53	0.3852	0.0035	-0.3039	
-0.998814	-0.002196	0.13359	-1.96	-2.17	19.6	0.3954	-0.0071	-0.2993	
-0.99796	0.001708	0.13237	-2.38	-2.1	19.6	0.378	-0.0191	-0.2929	
-0.998082	0.008174	0.141154	-2.52	-2.24	19.88	0.3809	-0.0176	-0.2976	
-1.002108	0.01647	0.142252	-2.38	-2.52	20.02	0.394	-0.0207	-0.3008	
-1.010892	0.0244	0.14518	-2.1	-1.75	19.88	0.3925	-0.0253	-0.293	
-1.010526	0.035136	0.13908	-1.05	-1.4	19.53	0.3781	-0.0252	-0.2975	
-1.006134	0.04697	0.1281	-0.63	-0.7	18.83	0.3897	-0.0252	-0.3022	
-0.998082	0.060756	0.130174	0.35	-3.15	18.62	0.3881	-0.0131	-0.2899	
-0.985272	0.071614	0.122	-0.42	-0.91	17.85	0.3811	-0.0312	-0.3021	
-1.00711	0.078568	0.127124	-1.68	-0.56	17.64	0.3868	-0.0298	-0.2976	
-1.000766	0.082594	0.125782	-3.85	-1.89	18.34	0.3839	-0.0267	-0.2991	
-1.002352	0.08686399	0.12871	-6.37	-2.38	18.62	0.384	-0.0373	-0.2975	
-1.001742	0.09076799	0.139202	-8.96	-2.24	18.06	0.3884	-0.0343	-0.3037	
-0.991738	0.094916	0.138714	-9.52	-0.14	17.01	0.371	-0.0418	-0.2958	
-0.996008	0.099308	0.13054	-7.7	0.42	15.82	0.381	-0.0282	-0.296	
-1.003816	0.108702	0.127002	-3.78	-0.28	14.07	0.3768	-0.0418	-0.3036	
-1.007232	0.12139	0.1281	-1.19	-0.14	12.11	0.3767	-0.0418	-0.2912	
-1.0004	0.129808	0.13603	-1.12	2.45	10.01	0.3825	-0.0328	-0.2975	
-0.996984	0.13542	0.129808	-0.77	1.54	9.73	0.3768	-0.0403	-0.3051	
-0.997228	0.142496	0.131028	0.35	1.26	9.52	0.3812	-0.0479	-0.302	
-0.994422	0.143472	0.136274	2.45	2.03	9.24	0.3826	-0.0494	-0.2974	
-0.99552	0.140422	0.135664	3.78	4.34	8.96	0.3797	-0.054	-0.2912	
-1.002718	0.145058	0.123098	4.27	7.21	8.82	0.3827	-0.0494	-0.3051	
-1.003938	0.157136	0.10858	3.71	6.16	8.54	0.3797	-0.0495	-0.2912	
-0.993812	0.169092	0.110532	2.45	4.76	7.56	0.384	-0.0495	-0.2944	
-0.988078	0.166652	0.116144	1.68	3.15	6.09	0.3839	-0.0541	-0.2743	
-0.985882	0.156282	0.120902	1.12	0.91	5.18	0.3826	-0.0525	-0.2912	
-0.996496	0.1464	0.127856	1.47	1.19	4.69	0.3898	-0.0556	-0.2898	
-0.997594	0.141764	0.129198	3.22	1.12	4.83	0.3841	-0.057	-0.2943	
-0.99613	0.142008	0.132248	4.13	1.54	5.32	0.3739	-0.06	-0.2896	
-0.995032	0.143838	0.130784	3.15	1.54	5.81	0.3854	-0.0525	-0.2866	
-0.9943	0.149206	0.114924	2.59	1.68	5.81	0.3869	-0.0617	-0.2866	
-0.994056	0.157868	0.110166	1.47	0.77	5.53	0.3897	-0.0481	-0.279	
-0.992958	0.165554	0.107116	-1.61	-0.35	5.18	0.3812	-0.0586	-0.2927	
-0.993446	0.170678	0.113582	-3.85	-0.91	4.83	0.3768	-0.0646	-0.285	
-0.990396	0.16714	0.122854	-5.46	-1.82	4.83	0.3812	-0.0525	-0.2989	
-0.987224	0.171898	0.12932	-5.88	-1.26	4.83	0.3856	-0.0661	-0.2958	
-0.98515	0.173972	0.134688	-6.3	-0.28	4.76	0.3754	-0.0676	-0.2834	
-0.990274	0.176534	0.129808	-7.7	1.12	4.9	0.3827	-0.0631	-0.2943	
-0.991738	0.173728	0.128222	-8.4	2.45	4.97	0.387	-0.0571	-0.2959	
-0.989786	0.165188	0.125294	-9.17	2.38	4.83	0.3841	-0.0677	-0.2866	
-0.98759	0.159088	0.121756	-9.31	2.66	4.55	0.3856	-0.054	-0.299	
-0.988078	0.158356	0.125538	-8.75	2.45	4.2	0.39	-0.0692	-0.2989	
-0.989664	0.159576	0.125538	-7.91	2.1	3.78	0.3797	-0.057	-0.2927	
-0.990518	0.163724	0.127734	-6.3	2.24	3.22	0.387	-0.0632	-0.2897	
-0.989664	0.168604	0.127978	-4.76	2.59	2.52	0.3912	-0.0632	-0.282	
-0.989054	0.18117	0.117486	-3.85	2.66	1.89	0.387	-0.0555	-0.2974	
-0.992348	0.191296	0.115168	-3.78	2.8	1.4	0.3826	-0.0601	-0.2881	
-0.994178	0.199836	0.109312	-4.41	3.43	0.91	0.3797	-0.057	-0.2927	
-0.995886	0.197152	0.105164	-5.67	2.87	0.35	0.3899	-0.0586	-0.2975	
-0.997228	0.187514	0.103456	-7.49	2.8	0.07	0.3886	-0.0738	-0.2958	
-0.99918	0.184464	0.105408	-8.82	2.66	-0.42	0.3797	-0.0616	-0.2896	
-1.003572	0.183732	0.106018	-9.31	3.15	-1.05	0.3883	-0.0541	-0.2882	
-1.0126	0.178486	0.094184	-9.94	2.45	-1.47	0.3796	-0.0571	-0.2773	
-1.01138	0.175924	0.096014	-9.8	2.17	-1.75	0.3913	-0.0617	-0.2882	
-1.005158	0.170434	0.0976	-10.22	1.82	-1.89	0.3768	-0.057	-0.2912	
-1.004914	0.173972	0.103212	-11.13	1.12	-2.24	0.3855	-0.0556	-0.2882	
-0.997716	0.181658	0.10614	-11.97	1.54	-2.17	0.3899	-0.0616	-0.2928	
-0.997594	0.18666	0.112484	-13.79	0.28	-2.1	0.3854	-0.0465	-0.2851	
-1.004304	0.195688	0.099918	-15.47	1.89	-2.38	0.3884	-0.048	-0.2975	
-0.998692	0.1891	0.118706	-16.24	0.14	-1.96	0.3898	-0.0541	-0.2882	
-0.989298	0.181414	0.119194	-18.69	1.05	-1.19	0.3854	-0.0495	-0.2897	
-0.981734	0.17019	0.116022	-21.07	0.49	-0.63	0.3825	-0.0434	-0.2851	
-0.976854	0.162748	0.1159	-23.31	1.47	-0.63	0.3898	-0.048	-0.2929	
-0.987834	0.16287	0.125782	-24.43	0.7	-0.98	0.3855	-0.0464	-0.2944	
-0.988688	0.15311	0.121268	-24.64	-0.49	-1.4	0.3898	-0.0358	-0.3037	
-0.996374	0.145302	0.132492	-23.87	-0.14	-2.17	0.391	-0.0238	-0.2884	
-0.99003	0.136396	0.127246	-22.12	0.84	-2.1	0.3838	-0.0359	-0.2852	
-0.99491	0.126514	0.136762	-20.37	0.07	-2.8	0.3939	-0.0238	-0.2822	
-0.98393	0.114924	0.00488	-17.85	1.19	-3.78	0.3895	-0.0192	-0.2868	
-0.973804	0.10614	0.1159	-15.75	-2.17	-3.78	0.3795	-0.0267	-0.2929	
-0.98393	0.108702	0.138958	-11.76	0.91	-4.41	0.3852	-0.0222	-0.2868	
-0.988322	0.098454	0.131516	-10.78	-0.98	-4.41	0.3952	-0.0117	-0.2823	
-0.99003	0.09942999	0.134444	-9.1	-0.07	-4.34	0.3969	-0.0223	-0.2962	
-0.982588	0.105042	0.135542	-6.23	-1.4	-3.85	0.3925	-0.0329	-0.2853	
-0.985028	0.10492	0.13359	-5.25	-1.61	-3.64	0.3823	-0.0115	-0.2961	
-0.9882	0.107726	0.131516	-4.27	-1.96	-3.71	0.3852	-0.0177	-0.2853	
-0.99613	0.1098	0.144204	-2.1	-1.96	-3.78	0.3882	-0.0161	-0.3007	
-0.996862	0.10919	0.133468	-0.42	-2.03	-3.78	0.3909	-0.0071	-0.29	
-0.993568	0.11651	0.138714	0.77	-2.59	-3.5	0.3853	-0.0161	-0.2961	
-0.99064	0.119804	0.142862	2.1	-2.24	-3.5	0.3808	-0.0055	-0.2961	
-0.991616	0.129198	0.14091	3.57	-1.26	-3.22	0.3809	-0.0191	-0.2914	
-0.998326	0.127124	0.142374	5.11	-1.33	-2.52	0.3853	-0.0131	-0.2976	
-0.985272	0.12444	0.144814	5.32	-1.96	-1.96	0.3808	-0.0116	-0.2868	
-0.974658	0.128344	0.147132	5.39	-1.4	-1.96	0.3809	-0.0191	-0.2898	
-0.986004	0.122244	0.143716	5.67	0	-2.03	0.3895	-0.0071	-0.2961	
-0.988566	0.120902	0.145546	6.02	-0.28	-1.75	0.3968	-0.0162	-0.2916	
-0.9821	0.116144	0.146522	5.39	0.07	-1.61	0.3851	-0.008599999	-0.2853	
-0.9821	0.11163	0.140666	4.62	0.91	-1.61	0.3838	-0.0146	-0.2945	
-0.987468	0.111508	0.148718	5.11	0.63	-1.54	0.3838	-0.0146	-0.2991	
-0.989298	0.106384	0.140666	4.83	1.4	-1.19	0.3838	-0.007	-0.3007	
-0.99186	0.108702	0.139202	5.18	1.82	-1.4	0.3838	-0.0207	-0.2945	
-0.996862	0.113338	0.130906	4.69	1.4	-1.54	0.3954	-0.0116	-0.2993	
-0.995886	0.113582	0.122854	3.92	0.84	-1.4	0.3867	-0.0207	-0.2945	
-0.998204	0.111264	0.124318	3.01	0.21	-0.77	0.3766	-0.0191	-0.296	
-1.000644	0.112484	0.129198	3.08	0.14	-0.07	0.3882	-0.0268	-0.2883	
-1.002962	0.119438	0.123952	3.01	0.07	0.28	0.391	-0.0207	-0.2869	
-1.003328	0.121634	0.119438	2.38	-0.28	0.35	0.3838	-0.0191	-0.2945	
-1.000766	0.121756	0.120658	2.17	-0.84	0.42	0.3881	-0.0192	-0.2899	
-0.998814	0.11956	0.124318	1.61	-1.47	0.7	0.3925	-0.0222	-0.293	
-0.996008	0.12139	0.12993	1.75	-2.03	0.91	0.3866	-0.0207	-0.2853	
-0.994544	0.122488	0.134566	2.31	-1.89	0.98	0.3895	-0.0101	-0.2946	
-0.992958	0.126392	0.137616	2.94	-1.96	0.91	0.3852	-0.0192	-0.2914	
-0.98698	0.126392	0.140666	3.57	-1.61	0.7	0.3839	-0.0222	-0.296	
-0.984662	0.125782	0.141764	4.27	-1.82	0.56	0.3838	-0.0253	-0.2837	
-0.987346	0.125904	0.14396	4.55	-1.4	0.14	0.3896	-0.0177	-0.2976	
-0.989298	0.132004	0.142618	5.39	-1.05	-0.35	0.3751	-0.0237	-0.2882	
-0.989176	0.131516	0.139568	5.88	-0.98	-0.63	0.381	-0.0252	-0.296	
-0.988444	0.134078	0.135908	6.02	-0.63	-0.7	0.3824	-0.0237	-0.2929	
-0.993324	0.13237	0.136518	6.65	-0.7	-0.77	0.3796	-0.0236	-0.2991	
-0.999546	0.12261	0.13298	7.28	-0.98	-0.84	0.3781	-0.0267	-0.2913	
-0.99674	0.122	0.13298	8.54	-1.96	-1.05	0.3809	-0.0191	-0.2945	
-0.99491	0.122366	0.137494	9.8	-1.61	-1.96	0.3926	-0.0253	-0.2976	
-0.99674	0.117852	0.13664	10.5	-1.05	-2.8	0.3824	-0.0191	-0.3006	
-0.995764	0.121146	0.132004	11.76	-1.47	-2.87	0.3911	-0.0283	-0.2961	
-0.991128	0.126392	0.135298	11.06	-1.61	-2.59	0.3883	-0.0343	-0.3006	
-0.986004	0.123952	0.131882	9.45	-1.89	-1.54	0.3838	-0.0222	-0.2914	
-0.989298	0.116754	0.131516	7.98	-1.75	-0.7	0.381	-0.0358	-0.2944	
-0.991982	0.110288	0.131394	7.84	-3.5	-0.21	0.3825	-0.0206	-0.3022	
-1.002718	0.103944	0.132248	8.05	-3.64	-0.07	0.3823	-0.0252	-0.2867	
-1.01016	0.10187	0.135908	9.03	-3.64	0	0.3868	-0.0313	-0.2975	
-0.99979	0.094428	0.146888	10.78	-3.43	0.28	0.3825	-0.0388	-0.2944	
-0.991982	0.090402	0.15067	12.6	-3.43	0.63	0.3839	-0.0313	-0.2991	
-0.985638	0.09882	0.157258	13.86	-2.38	0	0.3839	-0.0373	-0.2944	
-0.990762	0.115168	0.1525	14.49	-1.12	-0.98	0.3912	-0.0313	-0.3007	
-0.987712	0.130784	0.145058	13.93	0.35	-1.82	0.3897	-0.0344	-0.2929	
-1.002962	0.134444	0.133712	14.21	0.56	-1.82	0.3855	-0.0464	-0.2959	
-1.006256	0.13298	0.121024	15.12	0.07	-1.26	0.3782	-0.0358	-0.3005	
-1.007232	0.136274	0.11895	16.24	-1.47	-0.35	0.3897	-0.0374	-0.296	
-1.000766	0.141032	0.117364	16.87	-1.89	0.84	0.3841	-0.0449	-0.3052	
-0.993812	0.152622	0.13298	15.89	-0.84	1.05	0.387	-0.0464	-0.3067	
-0.994788	0.15433	0.128954	14.49	1.47	0.35	0.3812	-0.0403	-0.3067	
-0.999424	0.150914	0.1342	14.07	0.56	-0.35	0.3899	-0.0495	-0.3067	
-1.006378	0.139934	0.12932	14.42	2.31	-0.35	0.3898	-0.0404	-0.2975	
-1.004426	0.13115	0.128832	14.98	3.5	-0.28	0.3825	-0.0464	-0.2928	
-0.996252	0.127124	0.127002	15.4	3.64	0	0.3812	-0.0479	-0.3005	
-0.99003	0.131516	0.131394	16.1	3.08	0.49	0.3768	-0.054	-0.2912	
-0.989542	0.134932	0.126636	15.4	2.52	0.91	0.3911	-0.045	-0.2837	
-0.98881	0.13847	0.121878	14.7	2.17	0.28	0.3797	-0.0586	-0.285	
-0.987468	0.141032	0.12932	13.86	2.94	-0.21	0.3811	-0.0525	-0.2897	
-0.989542	0.136396	0.13786	11.9	3.43	-0.35	0.3898	-0.0601	-0.2897	
-0.998936	0.136518	0.122366	11.34	3.29	-0.07	0.3827	-0.0661	-0.2989	
-1.001132	0.129808	0.124928	11.55	4.06	-0.14	0.3913	-0.0617	-0.2928	
-1.003572	0.11956	0.121024	11.76	7.28	-0.07	0.3943	-0.0677	-0.2928	
-1.001254	0.116754	0.096502	11.9	6.65	0.21	0.3855	-0.0631	-0.2912	
-1.011258	0.127002	0.10187	13.09	4.9	-0.07	0.3869	-0.0617	-0.2835	
-1.006134	0.136518	0.103944	15.12	4.9	-0.14	0.3841	-0.0601	-0.2974	
-1.012966	0.154696	0.089792	15.4	5.18	-0.21	0.3825	-0.0571	-0.2774	
-1.017602	0.15433	0.096502	14.28	6.79	0	0.39	-0.0768	-0.2897	
-1.021506	0.135542	0.074542	13.86	6.44	1.4	0.3899	-0.0708	-0.2851	
-1.011746	0.12871	0.082594	13.51	5.46	1.96	0.3914	-0.07229999	-0.2912	
-1.015406	0.126636	0.07869	15.54	5.88	1.47	0.3927	-0.07539999	-0.2774	
-1.011868	0.139812	0.070028	17.71	5.25	0.21	0.397	-0.07539999	-0.2743	
-1.015772	0.137128	0.07198	18.13	2.59	-0.98	0.3941	-0.0678	-0.2774	
-1.007964	0.140178	0.073322	21	0.56	-1.68	0.3913	-0.083	-0.2712	
-1.003938	0.159332	0.060512	21.21	0	-2.66	0.3869	-0.0678	-0.2758	
-0.996374	0.178486	0.085278	19.67	0.28	-2.94	0.3912	-0.0769	-0.2681	
-1.000522	0.18788	0.06466	18.69	1.89	-2.87	0.3971	-0.0845	-0.2743	
-0.990396	0.183	0.078934	16.31	-0.21	-2.66	0.3942	-0.08899999	-0.2742	
-0.995764	0.16958	0.076006	15.54	-0.28	-2.59	0.3956	-0.083	-0.2712	
-1.00162	0.175314	0.084424	15.26	-0.07	-2.73	0.3913	-0.083	-0.2727	
-1.001498	0.179096	0.077836	15.61	0.7	-3.22	0.3913	-0.083	-0.2696	
-0.997838	0.17507	0.065392	14.14	-1.61	-3.92	0.3911	-0.0739	-0.265	
-0.99186	0.172386	0.071858	14.07	-2.8	-3.99	0.3941	-0.083	-0.265	
-0.99064	0.172386	0.0671	13.23	-3.57	-3.92	0.3855	-0.086	-0.2726	
-1.012478	0.147742	0.071492	11.97	-7.14	-3.29	0.3957	-0.0875	-0.2743	
