Sensor string: E
Serial number: 1970-01-0000
Firmware version: 2,015
Hardware version: 2,2
Calibration quality: 5
ax	ay	az	gx	gy	gz	mx	my	mz

-1.003938	0.140788	-0.048312	-0.21	-0.07	0.56	0.4248	-0.0179	-0.1845	Reference
-1.006012	0.139812	-0.04819	0.42	0.07	0.42	0.4247	-0.0166	-0.1921	
-1.007842	0.139202	-0.04087	0.07	0.21	0.35	0.4277	-0.0183	-0.1951	
-1.00345	0.141398	-0.039528	-0.56	0.07	0.35	0.4309	-0.0247	-0.1999	
-1.003328	0.14335	-0.045506	-0.7	-0.21	0.28	0.4291	-0.0169	-0.1966	
-1.006378	0.143228	-0.041358	0	-0.07	0.21	0.4235	-0.0227	-0.1953	
-1.00467	0.142618	-0.039528	-0.14	-0.07	0.28	0.4262	-0.0181	-0.1891	
-1.005158	0.141886	-0.043554	-0.35	0	0.28	0.4277	-0.02	-0.2012	
-1.006012	0.143838	-0.044286	-0.28	0.14	0.28	0.4338	-0.0231	-0.1937	
-1.005402	0.14213	-0.043432	-0.35	0.07	0.35	0.4205	-0.0224	-0.1907	
-1.006866	0.140422	-0.038064	0.35	0	0.28	0.4337	-0.0216	-0.1922	
-1.004914	0.1403	-0.042212	0.07	-0.21	-0.07	0.434	-0.0276	-0.1893	
-1.009184	0.137982	-0.048068	-1.19	-0.42	-0.14	0.438	-0.0187	-0.1906	
-1.006378	0.141276	-0.041968	-0.07	-0.14	-0.14	0.4234	-0.0211	-0.1922	
-1.005524	0.141276	-0.041236	-0.21	-0.35	-0.21	0.4324	-0.0261	-0.1923	
-1.006866	0.140666	-0.047824	0.07	-0.28	-0.28	0.4366	-0.0199	-0.183	
-1.006256	0.13908	-0.044774	0.56	-0.07	-0.21	0.4251	-0.0256	-0.1878	
-1.004304	0.137738	-0.044652	0.21	-0.14	-0.21	0.4277	-0.0181	-0.1876	
-1.005402	0.137738	-0.04392	0.14	-0.07	-0.21	0.4322	-0.0216	-0.1952	
-1.006134	0.140056	-0.041724	-0.14	0	-0.14	0.4248	-0.0178	-0.1815	
-1.004792	0.138348	-0.040748	-0.14	0	0	0.4179	-0.0284	-0.1924	
-1.005524	0.136884	-0.045628	-0.21	-0.14	-0.07	0.4337	-0.0216	-0.1922	
-1.005768	0.138592	-0.04453	0.28	0.07	-0.07	0.4364	-0.0173	-0.1981	
-1.006012	0.141276	-0.042822	0.63	0.21	-0.07	0.4266	-0.0257	-0.1893	
-1.006988	0.140056	-0.038674	0.28	0	-0.14	0.4307	-0.02	-0.1967	
-1.00833	0.138958	-0.042212	0.21	-0.14	-0.21	0.429	-0.0136	-0.1889	
-1.003572	0.141032	-0.043432	0.63	0.07	-0.28	0.4222	-0.0269	-0.1848	
-1.00589	0.142984	-0.04453	0.56	0.07	-0.21	0.4218	-0.0178	-0.1876	
-1.004792	0.141886	-0.041114	0.77	0.07	-0.14	0.4304	-0.0136	-0.1859	
-1.006988	0.141886	-0.0427	0.28	-0.21	-0.14	0.4294	-0.023	-0.1968	
-1.006256	0.141154	-0.044164	0.14	-0.07	-0.21	0.4276	-0.0167	-0.1921	
-1.0065	0.141886	-0.042212	0.42	0	-0.14	0.4321	-0.0184	-0.1921	
-1.006134	0.142496	-0.044774	0.07	-0.14	-0.14	0.4251	-0.0258	-0.1954	
-1.006134	0.140544	-0.044774	0.14	-0.07	-0.14	0.428	-0.026	-0.1969	
-1.006256	0.13847	-0.044042	-0.35	-0.14	-0.14	0.4354	-0.0276	-0.1878	
-1.00772	0.137006	-0.0427	-0.35	-0.28	-0.28	0.4267	-0.0287	-0.1894	
-1.007476	0.137738	-0.043066	-0.07	-0.49	-0.42	0.4318	-0.0106	-0.1858	
-1.006378	0.139202	-0.04514	0	-0.7	-0.49	0.4293	-0.0215	-0.1967	
-1.005158	0.139324	-0.049654	0.07	-0.7	-0.49	0.4308	-0.0229	-0.1922	
-1.005524	0.141276	-0.046116	0.35	-0.42	-0.49	0.4276	-0.0168	-0.1951	
-1.0065	0.139568	-0.04758	-0.07	-0.42	-0.21	0.4217	-0.015	-0.195	
-1.004548	0.139446	-0.046116	0.21	-0.56	-0.07	0.4323	-0.0232	-0.1983	
-1.001498	0.143228	-0.04514	0.7	-0.35	0	0.4247	-0.0182	-0.1951	
-1.001864	0.143106	-0.048068	0.56	-0.28	-0.21	0.4338	-0.0246	-0.1908	
-1.010404	0.133956	-0.045994	0.07	-0.63	-0.42	0.4188	-0.0162	-0.1875	
-1.02053	0.133224	-0.036112	0.28	-1.12	-0.98	0.4227	-0.0058	-0.1902	
-1.015284	0.140666	-0.036722	0.35	-2.03	-1.33	0.4231	-0.0133	-0.1874	
-1.013332	0.143228	-0.05307	0.07	-2.94	-1.61	0.4349	-0.0153	-0.1859	
-1.011258	0.139568	-0.051484	0.7	-3.01	-1.82	0.4208	-0.0287	-0.1985	
-1.013698	0.140788	-0.053802	0.21	-3.64	-1.54	0.4322	-0.02	-0.1937	
-1.012112	0.139324	-0.053192	-0.35	-3.92	-1.19	0.4205	-0.0209	-0.1892	
-1.012234	0.140422	-0.0488	0	-4.34	-1.26	0.4308	-0.0212	-0.1861	
-1.007598	0.135664	-0.047824	0.21	-4.9	-1.4	0.4221	-0.0242	-0.1953	
-1.014064	0.132248	-0.043676	-0.84	-5.95	-1.33	0.4217	-0.0167	-0.1996	
-1.011502	0.13481	-0.036722	1.05	-6.09	-1.68	0.4235	-0.0228	-0.1983	
-1.004792	0.134688	-0.042822	-0.35	-6.79	-1.96	0.4175	-0.0211	-0.2013	
-1.014308	0.135664	-0.048312	0.77	-7.21	-2.24	0.4175	-0.0209	-0.1952	
-1.012966	0.141276	-0.042822	3.36	-7.49	-2.24	0.4263	-0.0213	-0.1952	
-1.008452	0.146766	-0.041724	3.92	-8.12	-2.59	0.4217	-0.0151	-0.1966	
-1.016992	0.149084	-0.042578	4.13	-9.73	-3.22	0.4326	-0.0309	-0.2015	
-1.029436	0.144692	-0.04026	3.08	-11.62	-3.64	0.4141	-0.0104	-0.204	
-1.0309	0.130296	-0.02928	2.03	-13.23	-3.99	0.4189	-0.0183	-0.2073	
-1.031998	0.119316	-0.028914	-0.07	-14.84	-4.55	0.4144	-0.0181	-0.2088	
-1.02602	0.125538	-0.026596	1.26	-16.03	-5.39	0.4188	-0.0168	-0.2072	
-1.024678	0.124074	-0.018178	1.82	-17.01	-6.44	0.417	-0.009	-0.2055	
-1.012478	0.129076	-0.008174	3.78	-18.41	-5.81	0.423	-0.0126	-0.2147	
-1.01748	0.113948	-0.011712	-2.45	-19.11	-5.53	0.4125	-0.0075	-0.213	
-1.011014	0.123342	-0.012078	-2.59	-18.76	-4.62	0.4142	-0.0122	-0.2162	
-1.006256	0.130784	0.004026	0.35	-17.99	-4.48	0.4171	-0.0126	-0.2222	
-1.013088	0.122976	0.021228	-0.7	-19.6	-4.2	0.4129	-0.0171	-0.23	
-1.013576	0.115412	0.024278	2.52	-20.09	-4.83	0.4066	-0.0076	-0.2267	
-1.019554	0.108092	0.045018	3.08	-20.72	-4.55	0.4138	-0.005	-0.2296	
-1.011136	0.101138	0.043554	2.24	-21.49	-3.92	0.4079	-0.0032	-0.2296	
-1.004792	0.098454	0.047336	2.24	-21.35	-3.78	0.3991	-0.0045	-0.2357	
-1.005036	0.0915	0.051118	3.22	-20.3	-3.99	0.4011	-0.0155	-0.2436	
-1.006866	0.10126	0.074786	5.11	-21.28	-3.64	0.4041	-0.0183	-0.2315	
-1.012112	0.10065	0.072712	4.2	-23.31	-3.64	0.3981	-0.014	-0.2496	
-1.010526	0.09821	0.084058	4.55	-22.96	-3.29	0.3962	-0.0048	-0.2478	
-1.002352	0.101016	0.08662	5.74	-24.15	-3.36	0.3874	-0.0059	-0.2479	
-1.013576	0.085522	0.09638	2.52	-24.71	-3.78	0.3933	-0.0064	-0.2569	
-1.010892	0.09211	0.104432	3.99	-25.55	-3.99	0.3788	-0.0103	-0.2571	
-1.016016	0.085522	0.111508	3.5	-27.16	-4.2	0.392	-0.0112	-0.2662	
-1.014918	0.079544	0.113216	2.31	-28.14	-4.34	0.3802	-0.0089	-0.2601	
-0.994422	0.091744	0.117608	-0.35	-29.68	-4.34	0.3784	-0.0013	-0.2629	
-1.002352	0.08295999	0.131394	5.74	-29.82	-5.67	0.3741	-0.0028	-0.269	
-1.001742	0.086986	0.141886	3.92	-32.13	-5.04	0.3813	-0.0003	-0.2734	
-1.004426	0.089548	0.145912	2.17	-33.81	-5.67	0.3744	-0.0109	-0.2844	
-1.01931	0.081496	0.16287	4.13	-36.54	-4.97	0.3635	0.0034	-0.2779	
-0.998448	0.08113	0.177022	-0.21	-37.31	-4.83	0.3684	-0.0094	-0.2949	
-0.998082	0.082472	0.191418	0.84	-38.5	-4.76	0.3535	-0.0041	-0.2933	
-0.992104	0.087474	0.208254	1.75	-39.34	-3.92	0.3549	-0.003	-0.3054	
-0.99003	0.084912	0.212524	-0.35	-42	-3.01	0.3475	0.0002	-0.3053	
-0.97417	0.071492	0.2257	-1.19	-42	-2.1	0.3457	0.0062	-0.3127	
-0.974536	0.063806	0.248392	0.84	-43.89	-1.12	0.3387	-0.0011	-0.316	
-0.967826	0.066368	0.26169	2.31	-45.01	-0.35	0.3377	-0.0115	-0.3102	
-0.959652	0.072224	0.271328	3.43	-46.06	0.07	0.3211	-0.0019	-0.319	
-0.95587	0.069906	0.298778	5.39	-45.92	0.91	0.3285	-0.0041	-0.3312	
-0.94672	0.061366	0.305488	5.46	-47.39	1.75	0.3255	-0.0009999999	-0.3326	
-0.940376	0.063928	0.327082	5.53	-47.32	1.68	0.3125	-0.0067	-0.3419	
-0.934032	0.074176	0.344772	5.95	-46.83	1.26	0.3168	-0.004	-0.3464	
-0.922442	0.074176	0.352824	3.08	-46.97	1.26	0.3049	-0.0008	-0.3599	
-0.905728	0.072712	0.36478	0.98	-46.69	1.12	0.2934	-0.0062	-0.354	
-0.895236	0.081496	0.388448	-0.49	-46.2	0.49	0.292	-0.0079	-0.3632	
-0.8967	0.08479	0.405894	-3.57	-45.22	-0.49	0.2891	-0.0092	-0.3602	
-0.903776	0.080398	0.428342	-3.29	-46.76	-0.63	0.2873	-0.0018	-0.3691	
-0.881084	0.074176	0.442372	-2.66	-46.97	-0.21	0.2644	-0.0149	-0.3846	
-0.868152	0.07124799	0.4697	-2.31	-46.34	-0.21	0.2716	-0.0121	-0.3815	
-0.86559	0.06832	0.481656	-1.33	-47.25	-0.28	0.2642	-0.0119	-0.3861	
-0.85888	0.078202	0.49044	-2.45	-47.04	0.56	0.2581	-0.0055	-0.3829	
-0.84851	0.073688	0.508374	-4.41	-48.65	1.47	0.2581	-0.0071	-0.3875	
-0.832406	0.076982	0.51423	-4.13	-49.21	1.82	0.2461	0.0008	-0.3933	
-0.828502	0.07808	0.53924	-2.38	-48.58	1.89	0.2386	0.0039	-0.4008	
-0.838262	0.07564	0.558882	-3.85	-48.3	1.75	0.2154	-0.0026	-0.4026	
-0.827404	0.052948	0.56425	-5.04	-51.17	2.1	0.2152	0.0002	-0.41	
-0.80947	0.059048	0.569008	0.84	-50.4	3.29	0.1995	-0.0083	-0.4149	
-0.79117	0.071736	0.58621	-0.28	-51.52	3.22	0.2039	-0.008599999	-0.4179	
-0.781044	0.080642	0.593774	-2.17	-51.8	3.43	0.1993	-0.0056	-0.4269	
-0.770064	0.081374	0.606096	-2.59	-52.43	3.5	0.1877	-0.0078	-0.4179	
-0.763476	0.07259	0.618296	-3.22	-52.08	2.87	0.1812	0.0059	-0.4236	
-0.746884	0.08113	0.640866	-1.47	-51.8	2.87	0.1741	0	-0.4298	
-0.73688	0.083692	0.659654	-3.5	-52.5	2.59	0.1673	-0.0104	-0.4332	
-0.722484	0.070028	0.66856	-5.53	-52.5	1.54	0.1607	0.005	-0.4327	
-0.715164	0.060512	0.686982	-4.97	-52.08	1.12	0.1492	0.0009999999	-0.4313	
-0.682102	0.049532	0.709186	-4.41	-50.33	1.26	0.1433	-0.0004	-0.442	
-0.65941	0.064172	0.712358	-4.34	-49.84	0.98	0.1298	0.0063	-0.4373	
-0.657214	0.059414	0.739076	-4.76	-48.65	-0.07	0.1227	0.0019	-0.442	
-0.642574	0.063318	0.724802	-3.5	-49.21	-0.14	0.1168	0.0019	-0.4511	
-0.627812	0.058926	0.761036	-2.45	-49	0.28	0.1098	-0.005	-0.4407	
-0.621346	0.077714	0.76494	-3.29	-47.81	-0.49	0.0994	-0.0017	-0.4482	
-0.615124	0.05429	0.795196	-5.11	-43.89	-2.1	0.0889	0.0016	-0.4542	
-0.612196	0.039772	0.81923	-13.37	-44.1	-0.56	0.0891	-0.0028	-0.4513	
-0.58499	0.053558	0.825574	-1.05	-42.7	0.77	0.0799	0.0081	-0.4525	
-0.571814	0.049166	0.824598	-3.5	-39.9	-0.28	0.0694	0.0133	-0.4463	
-0.576572	0.063684	0.809348	-1.96	-37.87	-2.73	0.0579	0.0077	-0.448	
-0.556442	0.044408	0.856196	-12.81	-36.75	-3.01	0.0626	0.0013	-0.4512	
-0.555344	0.047336	0.840458	-8.68	-34.37	-2.8	0.0428	0.016	-0.4478	
-0.52338	0.058804	0.837042	-10.01	-32.69	-3.36	0.0358	0.01	-0.457	
-0.508252	0.064416	0.846802	-9.38	-30.59	-3.71	0.0461	0.007999999	-0.4571	
-0.498614	0.058682	0.854732	-4.76	-30.59	-3.99	0.0426	0.0218	-0.4582	
-0.483852	0.053314	0.861686	-8.33	-28.35	-4.69	0.0356	0.0146	-0.4539	
-0.47824	0.053924	0.867054	-4.69	-25.27	-3.43	0.0224	0.0135	-0.4615	
-0.476776	0.034648	0.897432	-5.11	-23.31	-4.2	0.0269	0.0104	-0.4555	
-0.472994	0.037576	0.910242	-1.47	-22.05	-1.47	0.0226	0.0094	-0.4465	
-0.46787	0.017934	0.924516	-1.96	-19.11	-1.47	0.0132	0.023	-0.4643	
-0.455426	0.011834	0.932568	-3.15	-15.82	-1.54	0.0151	0.0125	-0.454	
-0.452498	0.019032	0.932324	-1.26	-10.99	-1.47	0.0012	0.0282	-0.4611	
-0.433832	0.02135	0.933178	-1.47	-8.61	-1.4	0.01	0.0278	-0.4596	
-0.418582	0.042822	0.935984	2.52	-4.69	-0.07	0.0064	0.0113	-0.4571	
-0.405406	0.028304	0.932324	0.91	-1.12	-0.42	0.0019	0.013	-0.457	
-0.414312	0.028914	0.93635	0.98	3.57	-0.42	0.0087	0.0249	-0.4567	
-0.42822	0.02989	0.93452	2.1	5.32	-0.28	0.0034	0.013	-0.457	
-0.435418	0.031964	0.93147	2.94	6.44	0.14	0.0045	0.0201	-0.4704	
-0.434564	0.029158	0.9272	3.01	9.73	-1.19	-0.0042	0.019	-0.4705	
-0.445544	0.013298	0.915366	1.12	11.9	-0.35	0.0076	0.017	-0.4675	
-0.446398	0.016104	0.91012	0.56	13.51	-0.28	0.0015	0.0218	-0.4704	
-0.459574	0.021228	0.908168	2.52	16.24	-0.7	0.0179	0.0169	-0.4569	
-0.47275	0.029036	0.899506	1.75	18.41	-1.26	0.0117	0.0231	-0.4628	
-0.484096	0.038918	0.888892	2.94	20.23	-1.47	0.0251	0.0195	-0.4613	
-0.495808	0.026596	0.884378	1.61	21.77	-2.45	0.0267	0.0164	-0.4584	
-0.508374	0.025132	0.87779	1.68	24.71	-2.52	0.0204	0.0257	-0.4627	
-0.513864	0.027084	0.873642	2.38	26.25	-2.38	0.0325	0.0177	-0.4583	
-0.525576	0.023912	0.864004	0.77	29.33	-2.59	0.0365	0.0269	-0.449	
-0.546682	0.02196	0.859734	1.89	29.82	-2.03	0.0443	0.0156	-0.4584	
-0.555832	0.020984	0.843996	0.21	34.44	-3.29	0.0472	0.0171	-0.4568	
-0.542778	0.023058	0.847778	-3.5	34.16	-2.17	0.0575	0.0151	-0.4553	
-0.544364	0.032086	0.837042	3.08	35.49	-2.03	0.0529	0.02	-0.4507	
-0.552416	0.036478	0.829478	2.87	37.8	-1.82	0.0547	0.0125	-0.4448	
-0.558638	0.033794	0.817644	-0.98	40.39	-1.68	0.0704	0.0223	-0.4506	
-0.571326	0.02623	0.81557	0.77	41.93	-1.75	0.0779	0.0187	-0.4582	
-0.581208	0.028304	0.804102	1.89	43.54	-1.33	0.0837	0.0202	-0.4491	
-0.597922	0.02867	0.79422	2.17	45.92	-1.05	0.0928	0.015	-0.4583	
-0.606462	0.022204	0.780312	0.49	48.3	-0.7	0.0971	0.0165	-0.4492	
-0.615124	0.015494	0.769942	1.68	49.7	-0.35	0.1059	0.0163	-0.4431	
-0.626836	0.01525	0.760182	2.1	51.38	-0.21	0.1061	0.0117	-0.4463	
-0.638182	0.022936	0.753106	2.8	53.27	0	0.1175	0.0188	-0.4445	
-0.64721	0.023668	0.733708	2.45	54.95	0.28	0.1248	0.0215	-0.4429	
-0.664534	0.02379	0.710284	2.94	56.63	0.21	0.1339	0.0135	-0.4431	
-0.68991	0.020862	0.68381	3.29	59.15	0.56	0.1531	0.0114	-0.4356	
-0.703696	0.02379	0.672586	3.64	60.34	0.7	0.1573	0.0159	-0.4279	
-0.71431	0.027694	0.644038	3.29	62.02	1.26	0.1631	0.0172	-0.4278	
-0.731268	0.031354	0.631838	4.41	62.86	1.61	0.1766	0.0105	-0.4265	
-0.74115	0.028182	0.607438	3.57	63.7	1.4	0.19	0.0071	-0.419	
-0.75396	0.033794	0.580964	4.34	64.82	1.54	0.1985	0.0144	-0.4157	
-0.770918	0.030866	0.576572	4.27	65.17	1.68	0.2044	0.0143	-0.4112	
-0.791292	0.038796	0.548146	5.88	66.22	2.1	0.2105	0.0082	-0.4022	
-0.80032	0.043676	0.523502	6.79	65.87	2.52	0.2181	0.0017	-0.4039	
-0.810324	0.043554	0.50569	5.46	66.71	2.59	0.2327	0.0046	-0.3872	
-0.828624	0.040382	0.488	3.29	67.62	2.87	0.2398	0.0099	-0.4037	
-0.84607	0.03965	0.455182	2.52	68.04	3.01	0.2457	0.0102	-0.3824	
-0.856318	0.049166	0.441152	2.87	68.81	3.78	0.2531	0.0083	-0.3855	
-0.869982	0.05307	0.421876	1.75	69.23	3.85	0.2695	0.0017	-0.3751	
-0.890356	0.052216	0.397476	2.38	68.95	4.06	0.2784	0	-0.3721	
-0.902556	0.044896	0.37027	2.52	68.67	4.76	0.29	0.0043	-0.3598	
-0.911218	0.049654	0.346114	3.78	68.88	5.18	0.2857	0.0017	-0.3523	
-0.91195	0.055266	0.334646	4.76	68.53	5.46	0.305	-0.0036	-0.3494	
-0.92415	0.057828	0.293898	5.95	68.74	5.53	0.3213	-0.0068	-0.3298	
-0.943914	0.066246	0.273646	5.74	69.3	5.6	0.3257	-0.0069	-0.3267	
-0.951844	0.06954	0.25925	7.98	69.16	5.6	0.3329	-0.004	-0.3206	
-0.986614	0.082472	0.22997	6.58	67.62	5.46	0.3464	-0.0089	-0.3101	
-0.99552	0.09089	0.197518	8.61	66.85	5.81	0.355	-0.0045	-0.3024	
-0.980514	0.085644	0.15677	6.02	66.92	6.23	0.3569	-0.0149	-0.2906	
-0.99003	0.092964	0.133224	8.96	65.87	5.53	0.3744	-0.0109	-0.2844	
-0.981856	0.09162199	0.119804	8.26	65.66	5.67	0.367	-0.0106	-0.2844	
-1.003816	0.094794	0.109556	6.09	63.77	5.74	0.3773	-0.0107	-0.2722	
-0.984052	0.089304	0.072712	5.04	60.13	6.16	0.3834	-0.0154	-0.2678	
-0.982222	0.09857599	0.062464	2.59	59.15	5.74	0.3983	-0.0206	-0.2664	
-0.964288	0.104066	0.042212	0.49	60.27	5.53	0.401	-0.0142	-0.2526	
-0.969778	0.11956	0.011346	2.03	58.73	5.32	0.3983	-0.0198	-0.2407	
-0.983808	0.125416	0.010248	1.96	58.31	6.09	0.4053	-0.0109	-0.2358	
-0.99308	0.13054	-0.009516	-8.47	55.72	7.21	0.41	-0.0171	-0.233	
-0.980636	0.125416	-0.051118	-2.73	56.7	9.03	0.4159	-0.0183	-0.2118	
-0.972584	0.126148	-0.086132	-1.19	59.15	10.29	0.426	-0.014	-0.2041	
-0.94428	0.11834	-0.102358	-4.27	59.29	10.22	0.4249	-0.0215	-0.2043	
-0.96868	0.13603	-0.131272	-3.5	61.18	10.36	0.4292	-0.0185	-0.1982	
-0.965142	0.162992	-0.151524	1.89	63.77	11.34	0.4367	-0.0226	-0.1725	
-0.953796	0.136274	-0.14518	-11.76	65.59	12.67	0.4353	-0.0237	-0.1604	
-0.96807	0.133102	-0.172752	-3.5	64.05	13.44	0.4428	-0.0269	-0.1545	
-0.999912	0.124074	-0.213744	-1.12	61.32	13.02	0.4487	-0.0271	-0.1514	
-0.99918	0.129564	-0.238266	7.21	63.7	10.92	0.4534	-0.0332	-0.144	
-1.009306	0.16287	-0.255346	1.19	61.18	9.87	0.4533	-0.0313	-0.1319	
-1.006866	0.190564	-0.286456	-0.28	59.92	11.2	0.454	-0.0461	-0.1171	
-1.007354	0.171044	-0.300242	-3.36	58.31	12.32	0.4424	-0.0485	-0.1142	
-1.018578	0.176656	-0.266936	4.76	51.8	12.11	0.4641	-0.0431	-0.1019	
-1.005402	0.18544	-0.274378	3.64	48.09	10.78	0.4595	-0.0369	-0.1063	
-0.978562	0.187148	-0.297192	6.51	45.64	9.45	0.4629	-0.0472	-0.0884	
-0.973438	0.191052	-0.339282	5.46	38.92	9.17	0.4572	-0.0514	-0.08549999	
-0.968192	0.177876	-0.364048	10.43	38.22	8.4	0.4625	-0.0377	-0.0775	
-0.974048	0.184342	-0.369172	9.59	36.12	6.93	0.4644	-0.047	-0.0778	
-0.94977	0.183366	-0.364536	10.78	33.88	8.12	0.4685	-0.0408	-0.07	
-0.955504	0.17385	-0.397964	13.86	30.03	6.93	0.4676	-0.0527	-0.0598	
-0.944402	0.15921	-0.43554	14.77	29.82	7.21	0.4674	-0.0496	-0.0597	
-0.932446	0.175314	-0.434686	12.6	31.43	6.51	0.4751	-0.0572	-0.0462	
-0.945012	0.18727	-0.42761	12.6	29.96	5.6	0.4752	-0.0586	-0.0417	
-0.951966	0.182512	-0.425658	6.02	27.72	5.04	0.4614	-0.0457	-0.0384	
-0.960628	0.19459	-0.406016	7.63	27.02	3.64	0.4778	-0.0508	-0.0339	
-0.93147	0.211914	-0.41114	4.27	24.29	4.13	0.4709	-0.0597	-0.0342	
-0.892918	0.199714	-0.458354	8.26	19.25	4.69	0.4723	-0.0594	-0.0221	
-0.91256	0.200568	-0.496174	10.5	15.12	4.9	0.4693	-0.0565	-0.0311	
-0.924028	0.18483	-0.513498	3.64	16.03	2.66	0.4751	-0.0566	-0.0281	
-0.935862	0.188002	-0.493002	3.5	19.25	1.33	0.4711	-0.0654	-0.0207	
-0.935008	0.199836	-0.441274	6.72	18.9	2.31	0.4767	-0.0579	-0.016	
-0.905606	0.21167	-0.436394	11.97	15.89	4.06	0.478	-0.0531	-0.0052	
-0.916464	0.203496	-0.462868	10.01	10.08	3.92	0.4794	-0.0533	-0.0128	
-0.916098	0.176778	-0.493734	6.58	8.61	3.99	0.4742	-0.0682	-0.0087	
-0.928298	0.18971	-0.505324	5.04	10.78	3.57	0.4768	-0.0592	-0.01	
-0.937936	0.189954	-0.479338	1.61	12.74	4.34	0.4741	-0.0652	-0.0116	
-0.9028	0.198494	-0.44469	4.69	10.29	5.32	0.4772	-0.068	0.0033	
-0.873154	0.19947	-0.4514	6.02	7.21	4.41	0.4608	-0.0629	-0.0055	
-0.863638	0.175802	-0.502152	8.05	6.65	2.45	0.4784	-0.0637	-0.0055	
-0.8845	0.178364	-0.477874	5.88	6.58	1.05	0.4728	-0.068	-0.0057	
-0.917684	0.20252	-0.396744	-2.1	6.09	0.28	0.468	-0.0601	-0.0009	
-0.907558	0.189344	-0.398208	-1.4	2.59	-1.12	0.474	-0.062	-0.004	
-0.867054	0.179096	-0.454328	2.94	0.35	-0.77	0.4682	-0.0645	0.0034	
-0.857294	0.193248	-0.51972	6.02	-0.28	0.49	0.4781	-0.0561	-0.0053	
-0.888404	0.21411	-0.497882	4.83	1.05	0.14	0.471	-0.0617	0.0005	
-0.919026	0.204594	-0.44957	0.84	2.24	-0.49	0.4811	-0.0577	-0.0038	
-0.92354	0.204228	-0.426512	3.5	0.63	-0.91	0.4665	-0.06	-0.0009	
-0.901336	0.197762	-0.447008	2.52	-2.31	-0.98	0.4679	-0.0569	0.0036	
-0.884866	0.2074	-0.490562	1.26	-3.22	-0.91	0.4753	-0.0589	-0.0024	
-0.89609	0.204716	-0.487512	-1.33	-2.17	-1.4	0.4726	-0.0646	0.007999999	
-0.909266	0.183488	-0.4575	-3.22	-2.38	-1.54	0.4668	-0.0661	-0.0026	
-0.89975	0.174216	-0.451766	-4.62	-3.22	-1.82	0.467	-0.0705	0.0047	
-0.884378	0.181902	-0.47763	-2.73	-3.78	-1.96	0.468	-0.0599	0.0035	
-0.875228	0.179218	-0.491904	0.14	-4.83	-1.82	0.4692	-0.0539	0.0037	
-0.891698	0.171288	-0.482876	0.35	-4.41	-2.03	0.474	-0.0619	-0.0009999999	
-0.901824	0.173972	-0.454206	-1.26	-4.76	-2.24	0.4681	-0.0629	0.005	
-0.884988	0.17263	-0.456402	-0.84	-5.88	-2.17	0.4651	-0.061	0.0141	
-0.88999	0.182024	-0.469578	0.77	-7	-1.96	0.4756	-0.0667	-0.0087	
-0.89731	0.178974	-0.470188	-1.75	-8.05	-1.47	0.4722	-0.0559	-0.0068	
-0.901092	0.177632	-0.474824	-1.12	-8.12	-2.03	0.4683	-0.0663	-0.0056	
-0.9089	0.183732	-0.454572	-2.38	-7.7	-2.59	0.4722	-0.056	-0.0099	
-0.906582	0.18117	-0.449814	-5.18	-8.33	-2.38	0.4693	-0.0557	-0.0068	
-0.912926	0.17873	-0.450912	-3.64	-9.52	-2.38	0.4651	-0.0606	-0.0221	
-0.907558	0.180804	-0.454816	-2.59	-10.5	-2.45	0.4695	-0.0621	-0.0161	
-0.911218	0.186294	-0.443958	-4.27	-10.78	-2.24	0.4653	-0.06659999	-0.0193	
-0.91256	0.192272	-0.430782	-3.64	-11.41	-2.59	0.481	-0.0565	-0.0159	
-0.900482	0.189588	-0.443104	-2.17	-12.53	-2.59	0.4769	-0.0626	-0.0207	
-0.903532	0.17629	-0.457988	-2.1	-13.93	-2.31	0.4637	-0.0619	-0.0191	
-0.919758	0.175802	-0.445422	-2.66	-13.93	-2.03	0.4753	-0.0595	-0.0236	
-0.926834	0.173484	-0.426756	-4.2	-13.86	-2.24	0.4693	-0.0576	-0.019	
-0.930616	0.166896	-0.412482	-5.18	-15.05	-2.66	0.4721	-0.0533	-0.0219	
-0.927566	0.178608	-0.421022	-5.11	-17.15	-2.38	0.4768	-0.0612	-0.0267	
-0.934398	0.16897	-0.430904	-5.6	-18.41	-2.52	0.4649	-0.0579	-0.0357	
-0.944768	0.182024	-0.422364	-5.81	-19.39	-2.87	0.4692	-0.0551	-0.0356	
-0.947086	0.185318	-0.398086	-7.07	-20.44	-3.01	0.4661	-0.0518	-0.034	
-0.95099	0.177388	-0.38247	-8.26	-23.24	-3.15	0.4679	-0.0599	-0.0463	
-0.941352	0.17629	-0.384666	-6.16	-25.83	-2.87	0.4706	-0.054	-0.0507	
-0.934886	0.177876	-0.393694	-4.83	-26.81	-2.73	0.4705	-0.0525	-0.0491	
-0.94367	0.18056	-0.406748	-5.81	-27.93	-2.94	0.466	-0.0511	-0.0612	
-0.951112	0.17019	-0.396378	-7	-28.07	-3.36	0.4587	-0.0509	-0.0643	
-0.960018	0.177266	-0.377956	-8.54	-28.42	-3.5	0.4677	-0.0557	-0.0614	
-0.960262	0.189466	-0.368074	-8.47	-29.68	-3.57	0.469	-0.0516	-0.0718	
-0.961726	0.185928	-0.36234	-9.38	-30.87	-3.57	0.4645	-0.05	-0.0763	
-0.963678	0.177754	-0.355752	-12.18	-32.2	-3.22	0.4703	-0.0489	-0.0824	
-0.963312	0.168604	-0.346846	-13.44	-32.62	-2.94	0.4555	-0.0453	-0.0853	
-0.962214	0.167628	-0.331108	-12.74	-32.69	-3.29	0.4644	-0.0474	-0.0914	
-0.956968	0.175802	-0.310978	-11.34	-32.97	-3.57	0.4586	-0.0502	-0.09299999	
-0.96929	0.17812	-0.291824	-10.5	-33.74	-3.78	0.4639	-0.0387	-0.1093	
-0.980392	0.223748	-0.242536	-2.31	-37.87	-2.87	0.448	-0.0424	-0.1019	
-0.965752	0.176534	-0.260958	-16.94	-38.71	-2.66	0.4612	-0.0432	-0.111	
-0.973194	0.181902	-0.298656	-15.19	-32.27	-5.04	0.4542	-0.0507	-0.1173	
-0.979172	0.179706	-0.239486	-12.88	-35.56	-3.85	0.4553	-0.0433	-0.1231	
-0.977342	0.173484	-0.21594	-15.54	-37.66	-4.06	0.445	-0.0429	-0.1262	
-1.009672	0.196176	-0.209474	-12.88	-38.29	-6.37	0.4549	-0.0343	-0.1289	
-0.97112	0.179706	-0.192394	-11.34	-41.37	-4.62	0.4462	-0.0359	-0.1426	
-0.988566	0.186538	-0.173118	-4.97	-43.05	-5.6	0.4462	-0.036	-0.1471	
-0.995642	0.171532	-0.174704	-6.02	-42.56	-7.07	0.4419	-0.0406	-0.1549	
-0.995764	0.165188	-0.183976	-7.42	-43.4	-6.86	0.4474	-0.0302	-0.1546	
-0.995398	0.164822	-0.134932	-6.65	-42.56	-6.58	0.4359	-0.0375	-0.1639	
-0.991006	0.155184	-0.080886	-9.24	-40.88	-7	0.4357	-0.0334	-0.1789	
-0.979904	0.135786	-0.07747	-11.55	-43.19	-7.28	0.4357	-0.0335	-0.1819	
-0.989786	0.144936	-0.111874	-10.43	-47.67	-7.14	0.4308	-0.0213	-0.1892	
-0.998204	0.151402	-0.08479	-2.8	-46.34	-6.51	0.4233	-0.0181	-0.1951	
-0.976122	0.154818	-0.025986	-3.01	-43.96	-7.35	0.4191	-0.0225	-0.1968	
-0.985882	0.134932	-0.008784	-5.74	-47.11	-6.51	0.4217	-0.0154	-0.2072	
-0.984784	0.124074	0.022448	2.03	-47.18	-6.02	0.4181	-0.0335	-0.2077	
-0.977708	0.124684	0.030378	7.98	-48.51	-5.88	0.4164	-0.0309	-0.2273	
-0.984052	0.116998	0.033062	7	-48.02	-5.88	0.4146	-0.0232	-0.2271	
-0.986248	0.129198	0.051728	8.54	-46.69	-6.51	0.4116	-0.0217	-0.2301	
-0.996008	0.1281	0.08174	12.67	-46.13	-7.28	0.3959	-0.032	-0.2441	
-0.993812	0.126026	0.108824	8.47	-48.02	-6.58	0.3925	-0.0215	-0.2528	
-0.99491	0.113338	0.104554	0.56	-50.33	-5.67	0.3898	-0.0258	-0.2515	
-0.989908	0.121146	0.127368	1.82	-50.82	-5.39	0.3795	-0.027	-0.2561	
-0.995276	0.102236	0.156526	-1.12	-47.95	-6.3	0.3805	-0.0165	-0.2588	
-0.986248	0.104798	0.14518	5.53	-51.1	-5.46	0.3735	-0.024	-0.2666	
-0.968558	0.09638	0.169824	3.01	-51.8	-4.69	0.3719	-0.0214	-0.2847	
-0.962092	0.108702	0.184708	5.67	-51.17	-3.85	0.3672	-0.0151	-0.283	
-0.963068	0.117242	0.214598	6.23	-52.43	-3.08	0.3643	-0.0151	-0.2875	
-0.969168	0.113582	0.220332	5.04	-53.62	-3.01	0.3526	-0.0165	-0.3012	
-0.961604	0.105896	0.245098	6.09	-54.95	-2.87	0.354	-0.015	-0.2997	
-0.959774	0.102236	0.259616	5.74	-55.02	-2.66	0.3377	-0.0116	-0.3117	
-0.958066	0.106872	0.2745	4.62	-55.51	-2.66	0.3381	-0.0208	-0.315	
-0.94672	0.11834	0.276696	3.01	-55.79	-2.94	0.3277	-0.0175	-0.324	
-0.931104	0.11956	0.295484	1.54	-56.07	-3.57	0.3217	-0.0143	-0.327	
-0.931104	0.121878	0.333182	0.28	-55.58	-3.92	0.322	-0.0238	-0.3378	
-0.925736	0.117364	0.347822	-1.82	-56.21	-2.8	0.3114	-0.0159	-0.3437	
-0.910242	0.096624	0.371734	-3.99	-57.75	-2.38	0.3024	-0.0107	-0.3375	
-0.907802	0.089304	0.376492	-5.53	-57.54	-2.03	0.3014	-0.0218	-0.356	
-0.897554	0.098332	0.385886	-5.11	-56.77	-2.66	0.2864	-0.014	-0.3694	
-0.886696	0.0976	0.408456	-4.55	-55.44	-2.45	0.2893	-0.014	-0.3664	
-0.867786	0.085644	0.44103	-8.33	-56.63	-1.54	0.2805	-0.0153	-0.374	
-0.861198	0.09455	0.466772	-6.3	-56.21	-1.26	0.2687	-0.0133	-0.374	
-0.856562	0.08601	0.47031	-3.85	-54.53	-1.12	0.2658	-0.015	-0.3846	
-0.850218	0.07991	0.493002	-4.69	-54.95	-0.21	0.2568	-0.0101	-0.3891	
-0.836188	0.07015	0.51362	-9.31	-55.3	-0.28	0.2394	-0.0139	-0.3892	
-0.824842	0.07869	0.534116	-3.85	-56.56	0.07	0.2453	-0.0161	-0.4014	
-0.817034	0.084302	0.531432	-1.12	-57.96	-0.21	0.2246	-0.0122	-0.4058	
-0.817278	0.091012	0.56303	-1.82	-57.61	0.28	0.2203	-0.0151	-0.4074	
-0.798734	0.101626	0.578402	-4.48	-56.28	0	0.2175	-0.0179	-0.4045	
-0.777994	0.101626	0.589748	-3.99	-56.42	0.91	0.2023	-0.0054	-0.4163	
-0.77714	0.08479	0.60451	-6.65	-56.28	0.35	0.1995	-0.0098	-0.4134	
-0.774334	0.069906	0.616222	-8.05	-55.44	-0.35	0.18	0.0015	-0.4176	
-0.764696	0.048678	0.628422	-5.39	-55.02	-0.56	0.18	-0.0001	-0.4253	
-0.737612	0.06771	0.639646	-3.36	-53.13	0.56	0.1761	-0.0104	-0.421	
-0.725046	0.085522	0.661972	-7.42	-53.27	-0.42	0.1582	-0.0057	-0.4436	
-0.726632	0.09089	0.701256	-8.33	-52.85	0.07	0.1552	-0.0022	-0.4314	
-0.703818	0.077348	0.668682	-6.09	-52.78	1.26	0.1421	-0.0063	-0.4376	
-0.674538	0.030988	0.70089	-6.3	-51.38	2.03	0.1331	-0.0015	-0.4405	
-0.662948	0.033062	0.726266	-9.17	-50.75	0.98	0.1254	0.0062	-0.4464	
-0.643916	0.050264	0.73261	-8.47	-49.49	-0.49	0.12	-0.004	-0.4421	
-0.631228	0.055144	0.722362	-8.12	-47.67	-0.77	0.1051	0.0011	-0.4466	
-0.61061	0.061488	0.74603	-5.74	-46.55	0	0.1036	0.0011	-0.4466	
-0.606218	0.073688	0.76128	-2.1	-44.87	2.59	0.0948	0.0029	-0.4511	
-0.603168	0.055876	0.789096	-6.23	-42.98	1.61	0.0875	-0.0001	-0.4633	
-0.5795	0.061732	0.802028	-2.24	-41.51	2.38	0.0857	0.0095	-0.4494	
-0.580598	0.054534	0.818376	-3.5	-37.45	0.56	0.0829	0.0048	-0.4586	
-0.572424	0.041724	0.830942	-0.56	-35.7	0.91	0.0678	0.0163	-0.4523	
-0.558028	0.038796	0.83387	-5.11	-33.74	-0.28	0.0641	-0.0004	-0.4588	
-0.532896	0.051606	0.859246	-0.98	-32.83	0.63	0.0591	0.0135	-0.4569	
-0.532774	0.06588	0.855098	0.84	-29.82	0.42	0.0681	0.0084	-0.4601	
-0.510814	0.070272	0.86559	-2.59	-29.68	0.84	0.0435	0.0007	-0.4497	
-0.524112	0.068686	0.863394	0.77	-26.6	-0.49	0.0358	0.008599999	-0.451	
-0.49715	0.069296	0.87901	-2.8	-25.83	0.49	0.0356	0.0131	-0.4554	
-0.49776	0.062586	0.877058	-0.77	-21.91	-1.4	0.0382	0.0201	-0.4719	
-0.49898	0.073322	0.87474	-3.29	-21	-1.33	0.0287	0.0043	-0.4557	
-0.473482	0.06344	0.886452	-0.42	-17.78	-1.33	0.0255	0.0105	-0.4555	
-0.476654	0.05978	0.897798	-3.36	-11.06	-2.24	0.0207	0.018	-0.4644	
-0.494588	0.052338	0.894504	-3.5	-11.06	-1.4	0.0225	0.0104	-0.4616	
-0.478972	0.058682	0.892674	-0.7	-11.27	-0.91	0.0209	0.0154	-0.4524	
-0.475068	0.062098	0.899628	-0.56	-8.19	-1.26	0.0138	0.0078	-0.4632	
-0.471408	0.055388	0.905362	-0.14	-5.74	-1.54	0.0148	0.0181	-0.4735	
-0.475922	0.047946	0.898774	-1.82	-3.36	-1.4	0.0165	0.0137	-0.463	
-0.477508	0.055998	0.901092	-0.28	-1.61	-1.4	0.0132	0.0217	-0.4567	
-0.472262	0.05002	0.90524	-0.42	-0.28	-1.05	0.0163	0.0199	-0.4598	
-0.477752	0.046482	0.90768	0.28	1.33	-0.84	0.017	0.0033	-0.4542	
-0.483364	0.044164	0.907802	2.24	2.1	-1.26	0.0283	0.012	-0.4525	
-0.4758	0.03904	0.897188	-1.68	2.59	-0.63	0.0179	0.0155	-0.4524	
-0.464942	0.043676	0.914756	1.05	5.39	0.07	0.0108	0.0094	-0.4647	
-0.469456	0.03965	0.912682	0.98	8.47	-0.35	0.0214	0.003	-0.4588	
-0.472872	0.04087	0.904752	1.26	11.62	-0.91	0.0196	0.0106	-0.4601	
-0.468846	0.051484	0.89365	2.45	13.79	-0.42	0.0254	0.0118	-0.4615	
-0.477996	0.046238	0.8967	-0.14	14.91	-0.77	0.0109	0.007999999	-0.4587	
-0.478362	0.054778	0.886818	0.21	19.88	-1.19	0.0252	0.0166	-0.4554	
-0.47031	0.055388	0.878522	-0.07	24.5	-1.89	0.0284	0.0103	-0.457	
-0.506422	0.04941	0.868274	1.05	27.93	-1.61	0.046	0.0111	-0.4555	
-0.521672	0.035502	0.866688	-6.72	29.89	-2.17	0.0385	0.0142	-0.463	
-0.526064	0.025986	0.858514	-3.08	30.52	-2.03	0.0472	0.0171	-0.4553	
-0.551074	0.025742	0.854122	-0.63	32.55	-2.03	0.0548	0.0105	-0.4615	
-0.545096	0.035868	0.842288	-4.83	34.65	-1.12	0.0503	0.0124	-0.4569	
-0.554612	0.040016	0.824598	-3.71	37.94	-1.19	0.0575	0.0152	-0.4523	
-0.563884	0.05124	0.80642	-1.54	39.83	-0.35	0.07669999	0.0127	-0.4569	
-0.5734	0.040748	0.796538	-3.78	41.72	-1.12	0.0785	0.0068	-0.448	
-0.591212	0.041968	0.78873	-1.05	43.82	-0.63	0.0736	0.016	-0.4507	
-0.59841	0.04026	0.77409	-4.55	45.92	0.28	0.0871	0.011	-0.4478	
-0.616832	0.036966	0.7625	-3.57	47.53	0.77	0.0883	0.0152	-0.4553	
-0.635132	0.03294	0.753838	-0.42	48.79	1.12	0.1089	0.0144	-0.4507	
-0.645624	0.032208	0.743102	-0.21	49.63	2.1	0.1057	0.0224	-0.4429	
-0.656116	0.029646	0.735538	-2.03	51.66	2.31	0.1204	0.022	-0.4353	
-0.66124	0.023912	0.722362	-0.49	52.22	3.29	0.1252	0.0109	-0.4432	
-0.676002	0.022326	0.701866	2.73	52.99	3.85	0.1281	0.0125	-0.4356	
-0.6954	0.02623	0.692228	3.36	54.18	4.34	0.1441	0.0162	-0.4385	
-0.713578	0.031842	0.67405	2.87	55.72	4.83	0.1576	0.0096	-0.4371	
-0.724924	0.038186	0.645502	2.8	57.75	5.18	0.175	0.0154	-0.4188	
-0.736514	0.050752	0.62647	4.27	57.96	5.6	0.1768	0.0062	-0.419	
-0.7503	0.051972	0.610732	3.99	58.45	5.53	0.1852	0.0151	-0.4142	
-0.7625	0.053436	0.592554	5.11	59.01	5.81	0.1913	0.0102	-0.4143	
-0.774822	0.063684	0.581452	4.48	59.99	6.23	0.1999	0.0144	-0.4142	
-0.787022	0.056242	0.565836	3.85	60.27	6.72	0.2088	0.0143	-0.4051	
-0.794464	0.065758	0.54473	5.88	60.27	6.86	0.2104	0.0113	-0.3991	
-0.814228	0.08174	0.531066	8.05	60.62	7.91	0.2238	0.0061	-0.4008	
-0.828136	0.07991	0.504958	7.14	59.85	9.1	0.2385	0.0054	-0.4023	
-0.847412	0.08357	0.483608	7.28	59.43	9.8	0.2428	0.008599999	-0.3885	
-0.880474	0.077226	0.463356	7.07	59.78	9.38	0.2576	0.0049	-0.3886	
-0.890234	0.076372	0.446032	7.35	58.66	8.75	0.252	-0.0007	-0.3858	
-0.88389	0.08686399	0.435296	9.8	57.68	8.19	0.2727	-0.0046	-0.3813	
-0.892064	0.096136	0.413702	8.96	57.4	7.56	0.2744	-0.0087	-0.3632	
-0.88816	0.1037	0.393938	8.33	57.26	7.49	0.2801	-0.0044	-0.3631	
-0.901946	0.102602	0.378322	6.44	57.68	7.42	0.2997	-0.0173	-0.3589	
-0.904996	0.10065	0.366732	5.67	58.45	6.93	0.3007	-0.0049	-0.351	
-0.912194	0.105408	0.33245	4.69	59.57	8.05	0.3097	-0.0096	-0.3405	
-0.91073	0.095038	0.320738	2.1	60.62	9.17	0.3172	-0.0144	-0.3376	
-0.91988	0.10004	0.31842	0.56	62.93	9.03	0.3264	-0.0219	-0.3196	
-0.942694	0.11102	0.293654	5.25	61.25	8.61	0.3275	-0.0145	-0.3239	
-0.96075	0.128466	0.260592	5.46	62.58	9.73	0.3439	-0.0194	-0.3104	
-0.950014	0.119072	0.237534	0	58.94	8.12	0.3439	-0.0192	-0.3044	
-0.979172	0.132858	0.2074	1.68	58.94	8.54	0.3543	-0.0225	-0.2969	
-0.982954	0.146644	0.18788	3.78	56	7.28	0.3601	-0.0196	-0.2907	
-0.984296	0.153598	0.178852	4.83	57.05	6.44	0.3705	-0.023	-0.2878	
-0.987346	0.162748	0.134932	0	55.51	5.53	0.3621	-0.0313	-0.2729	
-1.00223	0.148108	0.13115	0.77	54.88	3.99	0.375	-0.0244	-0.2772	
-1.008208	0.133468	0.113826	-9.38	54.53	3.15	0.3806	-0.0185	-0.2755	
-0.99735	0.143106	0.11163	-1.61	52.15	2.8	0.3819	-0.0154	-0.2709	
-0.996618	0.157868	0.08052	-0.84	51.94	2.66	0.3883	-0.0257	-0.2499	
-0.973072	0.158112	0.071614	0.77	54.46	1.19	0.3912	-0.0242	-0.2453	
-0.974536	0.155916	0.019032	-0.7	50.68	2.94	0.3971	-0.0243	-0.2393	
-0.959042	0.162138	-0.006222	-4.69	52.92	5.53	0.4046	-0.029	-0.2333	
-0.944646	0.169336	-0.02501	-6.93	54.39	6.79	0.4033	-0.0316	-0.2198	
-0.923418	0.180438	-0.010858	-19.11	57.54	6.58	0.4135	-0.0304	-0.2152	
-0.953552	0.196908	-0.088816	-11.27	48.93	7.42	0.4161	-0.0227	-0.2059	
-0.970998	0.197518	-0.09577	-6.23	50.05	7.98	0.4281	-0.0277	-0.203	
-0.977098	0.17446	-0.093696	-10.64	53.97	7.63	0.4327	-0.0322	-0.194	
-1.012722	0.1586	-0.122976	-1.54	53.27	7.77	0.431	-0.0274	-0.1878	
-1.036268	0.166164	-0.124562	14.28	51.94	7.56	0.434	-0.0273	-0.1802	
-1.007598	0.182024	-0.118706	7.07	50.47	9.38	0.4371	-0.0316	-0.1682	
-1.021262	0.160796	-0.142496	11.55	50.19	8.54	0.4387	-0.0331	-0.1622	
-1.014064	0.144692	-0.119072	14.84	50.19	8.96	0.4432	-0.0362	-0.1578	
-1.00284	0.161528	-0.128954	13.72	48.02	7.42	0.4432	-0.0358	-0.1456	
-0.985394	0.163846	-0.160186	8.61	43.19	8.75	0.4496	-0.0482	-0.1445	
-0.996252	0.170556	-0.202276	8.33	39.69	8.75	0.4537	-0.0405	-0.1321	
-0.977464	0.181048	-0.214842	13.58	39.13	9.03	0.445	-0.0414	-0.1261	
-0.982344	0.1708	-0.218868	14.77	37.73	7.63	0.4522	-0.0389	-0.1336	
-0.990396	0.196542	-0.219112	19.74	35.63	2.94	0.4496	-0.0461	-0.1232	
-1.010038	0.227164	-0.213012	20.09	35.21	1.26	0.4571	-0.0492	-0.1127	
-1.009184	0.19825	-0.234484	20.09	33.6	2.03	0.4643	-0.0464	-0.1111	
-1.01138	0.17202	-0.242658	22.05	31.29	1.68	0.4557	-0.0518	-0.1006	
-0.96746	0.167872	-0.239486	21.49	28.14	0.91	0.4658	-0.0463	-0.1035	
-0.93269	0.193614	-0.35441	24.71	21.91	-1.47	0.4704	-0.0505	-0.0854	
-0.939522	0.208254	-0.418338	24.36	21.84	-2.59	0.4646	-0.0518	-0.087	
-0.962824	0.169702	-0.39528	19.95	25.13	-0.7	0.4658	-0.0473	-0.0884	
-0.9577	0.164334	-0.37454	18.2	28	-0.14	0.4661	-0.0531	-0.0764	
-0.958066	0.160064	-0.363316	17.15	27.93	0.63	0.4661	-0.0532	-0.0795	
-0.965142	0.166286	-0.352092	17.85	25.41	0.35	0.4644	-0.0483	-0.0718	
-0.939156	0.173728	-0.366122	19.25	25.06	0.35	0.4662	-0.056	-0.072	
-0.925614	0.198128	-0.403698	17.15	24.36	0.98	0.4676	-0.0526	-0.0567	
-0.916708	0.20618	-0.41541	13.3	24.22	2.1	0.4724	-0.0621	-0.0646	
-0.920978	0.211426	-0.406138	8.82	25.97	2.31	0.462	-0.0583	-0.0524	
-0.935252	0.199226	-0.389912	5.11	27.72	2.59	0.4705	-0.0511	-0.0552	
-0.951844	0.17507	-0.36295	5.74	28.98	2.59	0.4765	-0.0541	-0.0431	
-0.953064	0.16104	-0.345626	3.15	27.23	1.96	0.4763	-0.0511	-0.0446	
-0.938546	0.179218	-0.361974	5.67	25.48	0.7	0.4677	-0.0536	-0.0401	
-0.91378	0.19154	-0.369538	3.43	20.58	-0.14	0.4725	-0.0629	-0.0388	
-0.915	0.189832	-0.42761	5.18	18.69	0	0.4709	-0.0612	-0.0358	
-0.9211	0.180804	-0.456646	5.67	18.41	0.35	0.4763	-0.0507	-0.0309	
-0.942816	0.18239	-0.407114	3.15	21	0.56	0.4797	-0.0597	-0.0221	
-0.934886	0.17568	-0.382958	5.04	19.95	2.1	0.4691	-0.0532	-0.0234	
-0.899506	0.166774	-0.402356	7.28	16.52	2.73	0.4633	-0.0543	-0.0189	
-0.88755	0.175802	-0.43188	8.12	13.37	2.73	0.4647	-0.0525	-0.0068	
-0.896822	0.187514	-0.473482	6.37	12.6	2.52	0.472	-0.0514	-0.0113	
-0.906826	0.185196	-0.480314	4.48	14.91	3.36	0.4796	-0.0577	-0.0038	
-0.89975	0.169458	-0.458842	1.75	15.33	3.36	0.4709	-0.0604	-0.007	
-0.91134	0.16775	-0.44713	-0.91	14.84	2.52	0.4753	-0.0591	-0.0084	
-0.907192	0.155184	-0.46238	0.84	13.09	3.01	0.4638	-0.0647	-0.008599999	
-0.895968	0.162626	-0.475922	1.33	11.83	3.01	0.4726	-0.0634	-0.0025	
-0.878034	0.16836	-0.505446	0.98	10.92	4.13	0.4723	-0.0591	-0.0115	
-0.890112	0.177632	-0.515206	1.33	10.85	4.97	0.4785	-0.0651	-0.0009999999	
-0.910608	0.172874	-0.49654	-1.61	11.34	5.67	0.4697	-0.0663	-0.0041	
-0.89914	0.176412	-0.480924	-3.43	9.24	4.83	0.4756	-0.0649	0.0004	
-0.893528	0.173484	-0.483242	-1.61	9.03	4.83	0.4653	-0.0657	0.0109	
-0.896822	0.17141	-0.50447	-5.11	8.54	3.92	0.4664	-0.057	-0.0008	
-0.902068	0.186782	-0.495564	1.4	6.23	5.32	0.4758	-0.0693	0.0063	
-0.887062	0.174216	-0.490928	2.73	4.69	5.74	0.4711	-0.0631	0.0035	
-0.876448	0.179706	-0.513986	3.5	3.29	4.41	0.4772	-0.0677	0.0124	
-0.88938	0.192516	-0.51362	4.34	2.17	4.48	0.4684	-0.0691	0.0018	
-0.894504	0.193858	-0.506788	2.24	1.82	4.69	0.4726	-0.0631	0.0065	
-0.88633	0.180804	-0.493734	0.21	1.61	4.13	0.4714	-0.069	0.0109	
-0.869494	0.191662	-0.49654	0.14	0.21	3.57	0.4743	-0.0692	0.0093	
-0.871324	0.194224	-0.516792	-0.21	-1.47	3.85	0.4628	-0.0747	0.0122	
-0.876448	0.1952	-0.52521	-2.59	-3.08	4.2	0.4626	-0.07009999	0.0123	
-0.87352	0.20313	-0.512644	-4.34	-4.55	5.04	0.4654	-0.0672	0.0124	
-0.870348	0.213134	-0.495442	-4.76	-5.6	5.04	0.479	-0.077	0.0106	
-0.87596	0.213256	-0.492148	-7.63	-6.86	5.04	0.467	-0.0687	0.0139	
-0.892064	0.212036	-0.488366	-9.87	-7.98	3.57	0.4704	-0.0797	0.006	
-0.898042	0.223504	-0.494954	-10.15	-9.8	1.96	0.47	-0.0722	0.0032	
-0.895846	0.231068	-0.493856	-8.68	-9.8	1.05	0.4716	-0.0739	-0.0013	
-0.892552	0.211426	-0.499468	-5.74	-10.22	1.26	0.4727	-0.0662	0.0064	
-0.9028	0.20435	-0.494954	-5.32	-10.71	0.28	0.476	-0.0739	0.0062	
-0.900482	0.219722	-0.472994	-6.02	-11.48	-0.21	0.4671	-0.0739	-0.0059	
-0.890112	0.21167	-0.468602	-6.02	-12.67	-0.63	0.4673	-0.0784	-0.006	
-0.903654	0.221552	-0.465918	-5.18	-15.19	-1.75	0.4817	-0.0715	-0.0073	
-0.897798	0.217038	-0.485926	-3.85	-18.06	-2.31	0.4683	-0.0663	-0.0041	
-0.908412	0.21533	-0.474824	-4.62	-18.55	-2.52	0.4699	-0.0713	-0.0164	
-0.907924	0.208986	-0.459818	-6.58	-18.48	-3.36	0.4774	-0.0747	-0.0195	
-0.903776	0.21899	-0.46238	-7.49	-19.95	-3.5	0.4684	-0.0698	-0.0209	
-0.90707	0.223382	-0.468358	-6.44	-21.77	-3.36	0.4727	-0.0686	-0.0239	
-0.909876	0.236314	-0.450668	-8.61	-22.4	-2.94	0.4684	-0.0699	-0.0239	
-0.925248	0.224236	-0.431148	-14.49	-21.98	-1.96	0.4609	-0.065	-0.0253	
-0.91744	0.207766	-0.419192	-12.53	-23.38	-2.94	0.4713	-0.0702	-0.0285	
-0.931592	0.213622	-0.420046	-13.65	-25.69	-4.69	0.461	-0.0685	-0.039	
-0.9333	0.220576	-0.421632	-12.67	-26.67	-5.67	0.4667	-0.064	-0.0343	
-0.918416	0.223016	-0.40992	-11.76	-27.79	-5.25	0.4643	-0.0779	-0.0438	
-0.930982	0.22692	-0.41663	-10.99	-29.54	-5.46	0.4625	-0.07009999	-0.0406	
-0.945012	0.22814	-0.41114	-10.78	-30.94	-5.46	0.4696	-0.0647	-0.054	
-0.953064	0.214598	-0.384788	-11.41	-31.43	-5.81	0.4634	-0.0585	-0.0584	
-0.943914	0.213744	-0.352336	-13.09	-32.83	-6.02	0.4684	-0.0712	-0.0679	
-0.931226	0.215086	-0.346846	-12.53	-35.14	-6.3	0.4666	-0.065	-0.0677	
-0.939888	0.22692	-0.36417	-8.05	-40.39	-5.46	0.4621	-0.0622	-0.0828	
-0.974658	0.224358	-0.37332	-18.9	-37.94	-6.58	0.4681	-0.0654	-0.07979999	
-0.969412	0.21228	-0.334646	-21.21	-36.4	-6.09	0.4531	-0.059	-0.0903	
-0.978806	0.213134	-0.297436	-18.41	-38.5	-5.18	0.462	-0.0594	-0.0918	
-0.965874	0.200202	-0.277672	-16.38	-40.18	-5.53	0.4571	-0.0505	-0.1067	
-0.968314	0.192882	-0.273402	-15.26	-43.12	-7.14	0.4541	-0.0473	-0.1066	
-0.974658	0.205082	-0.267546	-13.23	-44.8	-7.56	0.4615	-0.0493	-0.1096	
-0.974048	0.202642	-0.253028	-11.27	-44.94	-7.28	0.4614	-0.048	-0.1187	
-0.96929	0.19581	-0.223626	-16.73	-45.71	-9.59	0.4484	-0.0538	-0.128	
-0.97112	0.181658	-0.20618	-14.63	-47.81	-10.71	0.4511	-0.0477	-0.1248	
-0.986126	0.180438	-0.174826	-14.21	-48.02	-11.41	0.4526	-0.0482	-0.1399	
-0.994056	0.176656	-0.151158	-14.91	-49.63	-10.29	0.4494	-0.0422	-0.1458	
-0.975634	0.184098	-0.129686	-15.75	-49.7	-10.99	0.4419	-0.0391	-0.1548	
-0.991372	0.176168	-0.090158	-18.83	-52.92	-10.43	0.445	-0.044	-0.1625	
-0.989664	0.176168	-0.062586	-6.09	-52.78	-10.78	0.4389	-0.0395	-0.173	
-0.982466	0.172142	-0.049166	-5.39	-56.7	-9.31	0.431	-0.0272	-0.1818	
-0.965996	0.136884	-0.093086	-3.36	-62.02	-9.87	0.4313	-0.0332	-0.1789	
-0.981856	0.164578	-0.086132	11.34	-61.32	-8.33	0.4255	-0.0346	-0.185	
-1.00833	0.177266	-0.025254	4.48	-60.97	-5.04	0.4145	-0.0197	-0.2119	
-1.006988	0.148718	0.03599	-0.56	-61.67	-4.2	0.4195	-0.0323	-0.2183	
-0.99857	0.157502	0.062464	-0.49	-63.07	-4.76	0.4132	-0.0249	-0.2362	
-0.980514	0.15982	0.059902	4.27	-64.4	-2.38	0.4019	-0.0351	-0.2366	
-0.969412	0.127368	0.101016	4.97	-62.37	-2.03	0.4075	-0.0281	-0.2485	
-0.970022	0.133712	0.0976	4.69	-62.86	-2.31	0.3857	-0.0334	-0.2547	
-0.974902	0.133102	0.08784	-1.54	-64.96	-2.8	0.3798	-0.0334	-0.2653	
-0.971608	0.13664	0.130296	2.94	-62.79	-3.85	0.3868	-0.0263	-0.2727	
-0.964654	0.15006	0.249734	24.36	-67.34	-5.39	0.3779	-0.0229	-0.2741	
-0.931226	0.203984	0.16348	-0.42	-66.71	-4.62	0.3724	-0.0321	-0.2835	
-0.928664	0.165188	0.184952	8.54	-68.6	-2.66	0.3638	-0.0365	-0.2912	
-0.923174	0.157868	0.202764	7.35	-66.15	-2.45	0.3633	-0.026	-0.2985	
-0.928298	0.144082	0.221064	4.76	-67.83	-2.38	0.3559	-0.0245	-0.309	
-0.93452	0.137006	0.263398	10.08	-68.46	-2.87	0.3449	-0.0422	-0.3081	
-0.942816	0.140544	0.307684	6.09	-69.09	-1.96	0.3388	-0.0365	-0.3306	
-0.939644	0.140788	0.33489	4.27	-68.81	-1.47	0.3223	-0.0279	-0.3243	
-0.916708	0.14396	0.337452	4.27	-67.34	-1.68	0.3167	-0.0357	-0.3382	
-0.884988	0.1464	0.3477	3.36	-65.94	-2.17	0.3077	-0.0309	-0.3426	
-0.87291	0.163236	0.373564	9.38	-65.1	-2.94	0.2987	-0.0277	-0.3516	
-0.871202	0.182756	0.409798	0.98	-68.95	-1.96	0.2916	-0.0334	-0.3518	
-0.87352	0.167262	0.426512	-12.32	-69.93	-2.1	0.2783	-0.0301	-0.3639	
-0.862418	0.1647	0.463356	-14.21	-66.5	-3.15	0.2632	-0.0223	-0.3788	
-0.846802	0.134688	0.463844	-22.05	-65.31	-3.36	0.2696	-0.0348	-0.3822	
-0.822524	0.127002	0.477142	-16.1	-65.17	-2.94	0.2472	-0.0248	-0.385	
-0.806786	0.125172	0.499468	-19.32	-63.84	-3.15	0.237	-0.0261	-0.3926	
-0.810934	0.116632	0.539118	-18.27	-65.03	-3.22	0.2309	-0.0213	-0.394	
-0.814594	0.10065	0.558516	-15.19	-65.87	-3.15	0.2247	-0.0154	-0.4105	
-0.788486	0.092354	0.560956	-14.84	-66.08	-3.08	0.2187	-0.0119	-0.4043	
-0.77226	0.085278	0.605486	-9.66	-62.16	-3.08	0.2056	-0.0131	-0.415	
-0.749812	0.08686399	0.627812	-10.22	-62.58	-2.73	0.1979	-0.007	-0.4254	
-0.72895	0.078934	0.622688	-7.63	-61.67	-2.1	0.185	-0.0124	-0.4211	
-0.714432	0.082472	0.66734	-4.9	-60.41	-1.96	0.18	-0.0001	-0.4237	
-0.713334	0.0915	0.676124	-4.41	-60.34	-2.17	0.1687	-0.0104	-0.4316	
-0.701256	0.08906	0.68869	-7.7	-59.29	-1.89	0.1727	-0.0002	-0.4389	
-0.669048	0.08662	0.711626	-10.85	-57.61	-1.68	0.1567	-0.0037	-0.4269	
-0.651968	0.075884	0.71126	-10.78	-55.44	-2.52	0.1348	-0.0062	-0.4452	
-0.649406	0.08295999	0.737856	-8.12	-52.64	-3.5	0.133	0.0001	-0.4375	
-0.63928	0.087596	0.753838	-8.19	-52.15	-3.64	0.1344	0.0012	-0.4465	
-0.627446	0.088206	0.78507	-8.4	-51.45	-3.64	0.1135	0.0113	-0.4478	
-0.614636	0.048922	0.79666	-6.86	-51.1	-3.01	0.1019	0.0071	-0.4525	
-0.603656	0.040382	0.813496	-10.43	-51.45	-3.92	0.0902	0.0063	-0.448	
-0.579012	0.070882	0.78019	-1.96	-48.79	-3.92	0.0829	0.0062	-0.4601	
-0.576938	0.06466	0.814228	-8.75	-47.95	-3.85	0.0712	0.0054	-0.4541	
-0.57828	0.07503	0.823256	-5.25	-42.14	-4.62	0.0663	0.0164	-0.4492	
-0.573278	0.062098	0.839238	-8.26	-40.67	-3.5	0.061	0.0043	-0.4556	
-0.560712	0.044774	0.83387	-6.58	-41.37	-4.27	0.0591	0.0137	-0.4508	
-0.538264	0.050874	0.857904	-4.76	-37.87	-5.53	0.0519	0.0108	-0.457	
-0.52643	0.052094	0.812642	-6.09	-37.45	-4.34	0.0461	0.009699999	-0.451	
-0.515328	0.080642	0.849486	-6.09	-32.97	-5.53	0.0368	0.0205	-0.4582	
-0.5002	0.077836	0.86071	-6.51	-33.74	-3.57	0.0326	0.0146	-0.4599	
-0.492636	0.069906	0.87413	-7.14	-30.1	-4.97	0.0192	0.02	-0.4522	
-0.472018	0.060756	0.876082	-7.56	-28.42	-4.62	0.0251	0.0195	-0.4583	
-0.46482	0.063318	0.884866	-1.47	-25.13	-4.06	0.0235	0.0226	-0.4597	
-0.467992	0.044164	0.909388	-7.63	-23.38	-4.41	0.013	0.0261	-0.4596	
-0.462502	0.029524	0.890478	-4.55	-22.68	-5.25	0.0104	0.02	-0.4674	
-0.461892	0.026962	0.913536	-3.29	-16.45	-4.55	0.0117	0.0232	-0.4597	
-0.440542	0.019886	0.898042	-3.78	-21.14	-1.12	0.0048	0.0146	-0.4524	
-0.429196	0.015372	0.890478	-0.91	-16.73	-1.54	-0.0015	0.0251	-0.4642	
-0.43493	0.04026	0.90951	-1.82	-12.46	-0.98	-0.0058	0.0225	-0.4583	
-0.430538	0.051362	0.913658	1.05	-12.46	-1.96	-0.0101	0.0211	-0.4598	
-0.427122	0.049532	0.915732	1.05	-7.7	-1.4	-0.0084	0.0165	-0.46	
-0.431392	0.029524	0.921466	-1.75	-5.18	-1.96	-0.0148	0.029	-0.4581	
-0.42761	0.033306	0.933056	-0.91	-3.92	-1.68	-0.0115	0.0196	-0.4629	
-0.427244	0.028426	0.934764	-0.14	-2.03	-1.4	-0.009	0.0305	-0.449	
-0.421144	0.028182	0.935496	0.35	-0.63	-0.98	-0.0177	0.0277	-0.4551	
-0.426756	0.02501	0.937814	0.28	0.84	0	-0.0103	0.0258	-0.4567	
-0.42578	0.021106	0.936716	1.33	1.75	1.05	-0.0163	0.0291	-0.4566	
-0.426146	0.021594	0.932934	1.75	3.01	2.24	-0.0058	0.0241	-0.4552	
-0.410286	0.02623	0.927932	3.22	5.67	2.45	-0.0016	0.0279	-0.4732	
-0.408212	0.0183	0.935252	2.59	8.96	2.45	-0.0088	0.0257	-0.4552	
-0.417484	0.027816	0.931348	3.92	13.23	1.54	-0.0075	0.0285	-0.4642	
-0.43066	0.0305	0.91805	5.39	17.22	0.14	-0.0069	0.0148	-0.4615	
-0.414556	0.03721	0.914146	0.56	17.92	0.07	-0.0102	0.0226	-0.4613	
-0.446642	0.023912	0.91012	6.02	18.83	0.21	-0.0028	0.0204	-0.472	
-0.433832	0.032452	0.90219	2.31	21.21	-0.63	0.005	0.0101	-0.4495	
-0.412726	0.050386	0.883768	2.73	27.65	-0.63	0.0118	0.02	-0.4629	
-0.4758	0.042578	0.88877	7.77	31.64	-1.47	0.0209	0.0151	-0.4615	
-0.491416	0.044408	0.881938	0.56	32.06	-0.21	0.0148	0.0202	-0.4538	
-0.51789	0.036844	0.870958	4.76	32.34	-1.05	0.028	0.0192	-0.4674	
-0.495442	0.049166	0.860832	1.96	33.88	-0.56	0.0283	0.0119	-0.454	
-0.520696	0.046116	0.85339	2.38	37.52	-1.75	0.0323	0.0205	-0.4673	
-0.506666	0.052826	0.850218	-0.7	43.05	-0.63	0.0489	0.0122	-0.4645	
-0.529236	0.062952	0.83326	4.06	40.95	-0.42	0.0489	0.0109	-0.457	
-0.54778	0.04697	0.818864	5.18	40.95	-0.77	0.0636	0.0117	-0.4585	
-0.57523	0.04636	0.810812	3.78	43.19	0.28	0.069	0.0225	-0.446	
-0.586942	0.04331	0.810324	2.38	45.85	-0.63	0.0681	0.008599999	-0.454	
-0.609634	0.049166	0.794952	4.9	45.5	-0.56	0.0722	0.0162	-0.4462	
-0.599752	0.05185	0.780312	5.11	46.06	-0.28	0.0884	0.0139	-0.4477	
-0.59658	0.057462	0.764696	4.76	47.95	-0.14	0.0985	0.0181	-0.4446	
-0.61793	0.056974	0.752618	4.2	49.84	0.14	0.1032	0.0104	-0.4433	
-0.629764	0.055876	0.746884	5.67	49.42	0.63	0.1149	0.0126	-0.4508	
-0.65026	0.05978	0.731268	5.53	50.4	0.91	0.1153	0.0023	-0.4405	
-0.654286	0.058682	0.719922	4.76	51.8	1.61	0.1254	0.0081	-0.4342	
-0.686616	0.059536	0.696254	6.16	53.13	1.82	0.1417	0.0043	-0.4343	
-0.690886	0.061	0.686128	7.14	54.25	2.31	0.1546	0.0099	-0.4326	
-0.711382	0.065026	0.673806	7	55.16	2.24	0.1518	0.007	-0.4296	
-0.724192	0.066124	0.6588	6.65	55.79	2.66	0.1621	0.0065	-0.4327	
-0.736636	0.07124799	0.638914	6.58	56.42	2.31	0.1753	0.0075	-0.4296	
-0.748836	0.077836	0.615368	7.63	57.33	2.45	0.18	0.0016	-0.4146	
-0.753594	0.078324	0.61	8.4	58.03	2.45	0.2018	0.0053	-0.4114	
-0.768234	0.07747	0.589382	7.49	58.52	2.45	0.1958	0.0083	-0.4204	
-0.782508	0.078446	0.572424	8.4	59.36	2.8	0.2067	-0.0054	-0.4087	
-0.800198	0.076738	0.555222	8.12	59.36	3.08	0.2125	-0.0041	-0.4056	
-0.814716	0.080032	0.536922	9.24	59.22	2.87	0.2201	-0.0089	-0.4027	
-0.827526	0.08784	0.517158	8.82	59.43	3.08	0.2347	-0.0077	-0.3936	
-0.830942	0.093208	0.500932	8.89	59.15	2.8	0.2483	-0.0175	-0.3954	
-0.837286	0.091012	0.487878	9.03	59.85	2.73	0.2448	-0.0035	-0.3889	
-0.845704	0.086498	0.46604	7.42	59.71	2.52	0.263	-0.0179	-0.3847	
-0.873032	0.09076799	0.449814	7.91	59.36	2.17	0.2642	-0.01	-0.3739	
-0.86925	0.098454	0.424316	9.03	60.06	2.45	0.2698	-0.0056	-0.3707	
-0.891088	0.10309	0.404552	7.91	60.13	2.31	0.2777	-0.0164	-0.3635	
-0.891088	0.102602	0.39589	8.75	59.85	2.45	0.29	-0.029	-0.3593	
-0.920124	0.112362	0.363926	9.1	59.85	3.08	0.2999	-0.0215	-0.3454	
-0.911706	0.111874	0.339648	9.52	59.57	2.59	0.3057	-0.0201	-0.3408	
-0.925004	0.11346	0.320372	9.1	59.92	2.66	0.3174	-0.0189	-0.3347	
-0.931958	0.111142	0.299266	8.4	59.78	2.94	0.3177	-0.0251	-0.3394	
-0.951966	0.116876	0.275232	7	60.76	2.87	0.3266	-0.0267	-0.3273	
-0.970998	0.132858	0.249612	9.59	58.38	3.15	0.3369	-0.0268	-0.3152	
-0.973194	0.139446	0.219478	9.45	56.49	3.08	0.3396	-0.0208	-0.312	
-0.983076	0.12871	0.21045	5.53	57.26	3.57	0.3561	-0.0289	-0.3046	
-1.004426	0.139202	0.189588	8.96	55.44	3.43	0.365	-0.0306	-0.2971	
-0.982832	0.131394	0.138714	7.63	55.44	3.43	0.3653	-0.0382	-0.2958	
-1.001986	0.13298	0.141764	6.72	54.88	1.54	0.3682	-0.038	-0.2837	
-0.990762	0.123586	0.111874	7.14	53.55	2.24	0.3712	-0.038	-0.2791	
-0.990884	0.130296	0.11102	6.93	52.92	1.75	0.3782	-0.0309	-0.2865	
-0.978196	0.132614	0.09455	5.46	51.59	2.59	0.3797	-0.0306	-0.2743	
-0.974658	0.137982	0.075396	4.9	50.96	3.15	0.3858	-0.0348	-0.2517	
-0.974414	0.142984	0.062586	4.34	49.42	3.15	0.389	-0.041	-0.2504	
-0.962092	0.141886	0.035746	2.73	49.91	3.92	0.3991	-0.0381	-0.2412	
-0.979538	0.16104	0.011102	6.3	48.37	3.5	0.4052	-0.043	-0.2428	
-0.98088	0.158844	-0.00549	2.45	47.11	4.34	0.4096	-0.043	-0.2353	
-0.97478	0.147498	-0.012566	-0.14	48.72	5.11	0.4094	-0.0365	-0.223	
-0.97966	0.1525	-0.05002	0.21	49.28	5.39	0.4142	-0.0457	-0.2156	
-0.976976	0.176778	-0.05673	-4.76	52.22	6.16	0.4199	-0.0427	-0.208	
-0.972706	0.199104	-0.070272	-1.82	51.73	6.02	0.424	-0.035	-0.1987	
-0.9821	0.194834	-0.100284	-7.49	50.47	6.86	0.4317	-0.0427	-0.1913	
-0.96502	0.172752	-0.111874	-5.53	54.11	7.98	0.4376	-0.0443	-0.1838	
-0.988078	0.161162	-0.12505	-6.51	55.3	9.1	0.4363	-0.047	-0.1732	
-0.991494	0.184464	-0.12688	-4.55	56.84	8.75	0.4437	-0.0473	-0.1747	
-0.998082	0.172142	-0.130906	-0.84	56.21	9.1	0.4453	-0.0515	-0.1582	
-0.994422	0.175924	-0.14945	2.94	53.97	9.31	0.4424	-0.0512	-0.1537	
-1.00101	0.180316	-0.163358	-0.14	51.8	8.26	0.448	-0.0452	-0.1459	
-0.98942	0.191906	-0.184464	0.07	48.58	9.59	0.4438	-0.0494	-0.143	
-0.99308	0.211914	-0.211792	1.68	46.2	8.54	0.444	-0.0536	-0.1295	
-1.01321	0.20008	-0.215452	-0.56	43.05	6.72	0.4514	-0.0541	-0.134	
-1.00772	0.199226	-0.216672	3.71	42	6.44	0.4502	-0.0613	-0.1221	
-0.971852	0.196786	-0.240218	7	38.99	5.32	0.4603	-0.0555	-0.1159	
-0.957456	0.190198	-0.291092	10.01	36.19	5.18	0.4676	-0.0542	-0.1113	
-0.950746	0.18971	-0.322812	14.35	35.98	5.04	0.453	-0.0561	-0.0947	
-0.949648	0.181048	-0.325252	18.76	35.77	5.11	0.4603	-0.0567	-0.1038	
-0.931592	0.184098	-0.321714	18.13	33.11	3.01	0.4473	-0.0604	-0.0964	
-0.918172	0.190198	-0.349286	15.47	33.25	4.69	0.4635	-0.0609	-0.0873	
-0.954772	0.181292	-0.370148	17.92	33.04	4.06	0.4636	-0.0636	-0.07669999	
-0.981124	0.19459	-0.372832	12.6	35.63	3.08	0.4547	-0.06	-0.0721	
-0.989542	0.176168	-0.338916	8.96	36.05	2.73	0.4636	-0.0617	-0.0646	
-0.965264	0.187026	-0.314882	10.36	35.35	3.08	0.4626	-0.0722	-0.0619	
-0.923174	0.21045	-0.352824	13.58	31.36	3.57	0.468	-0.0617	-0.0555	
-0.913414	0.217648	-0.429196	16.1	28.49	3.29	0.4714	-0.0724	-0.0543	
-0.926346	0.207278	-0.467504	17.29	28.63	2.94	0.4697	-0.0678	-0.0541	
-0.960506	0.220454	-0.427	13.09	31.22	1.05	0.4641	-0.0733	-0.0437	
-0.958188	0.220942	-0.342576	4.69	31.71	0.42	0.4551	-0.0681	-0.0345	
-0.946598	0.207766	-0.323544	6.72	28.35	-0.14	0.4669	-0.0699	-0.0254	
-0.901702	0.206912	-0.385642	13.51	24.22	0.35	0.4702	-0.0779	-0.0347	
-0.872178	0.200812	-0.473726	15.47	21.21	1.47	0.4797	-0.0597	-0.0221	
-0.882792	0.187514	-0.516914	12.18	21.63	2.38	0.4701	-0.07449999	-0.024	
-0.911584	0.185562	-0.46543	7.91	24.57	1.26	0.4715	-0.0741	-0.0089	
-0.927688	0.195078	-0.404552	4.83	25.13	1.05	0.4725	-0.0622	-0.0161	
-0.905972	0.222284	-0.4148	4.69	21.49	1.47	0.4726	-0.0636	-0.0101	
-0.883646	0.211426	-0.488732	5.32	16.45	1.33	0.4671	-0.0724	-0.0073	
-0.883158	0.1952	-0.554612	6.58	13.79	1.19	0.4673	-0.077	-0.0105	
-0.93757	0.183976	-0.54778	0	15.26	0.49	0.4713	-0.0679	-0.0026	
-0.952454	0.182146	-0.480436	-3.64	18.2	0.63	0.4625	-0.0689	0.0002	
-0.930006	0.17934	-0.421754	-4.55	16.73	0.21	0.4685	-0.0705	0.0078	
-0.899872	0.178242	-0.444324	-2.52	10.64	-0.07	0.4686	-0.0735	0.0077	
-0.87413	0.176656	-0.510082	1.68	6.16	-0.21	0.4686	-0.0734	0.0107	
-0.870348	0.186172	-0.546804	2.38	6.23	0.35	0.473	-0.0735	0.0153	
-0.87413	0.183854	-0.524112	3.36	6.79	0.35	0.4642	-0.0733	0.0092	
-0.881816	0.17751	-0.492514	4.9	6.16	-0.14	0.4682	-0.0627	0.0125	
-0.885964	0.190442	-0.480436	7.07	4.9	-1.12	0.4684	-0.0686	0.0199	
-0.880352	0.202642	-0.48251	6.37	3.08	-1.33	0.4714	-0.0706	0.0093	
-0.859978	0.207522	-0.51606	6.65	1.26	-0.49	0.4757	-0.0677	0.0109	
-0.86437	0.200568	-0.521672	5.74	1.12	0.21	0.4718	-0.0797	0.0105	
-0.878888	0.180438	-0.499712	1.33	2.45	-0.14	0.4772	-0.0677	0.0124	
-0.877912	0.194102	-0.49227	-0.07	1.68	-0.56	0.4744	-0.0719	0.0199	
-0.865834	0.199714	-0.502518	0.56	0.84	0.14	0.4773	-0.0706	0.0184	
-0.871324	0.19459	-0.51179	-0.49	-0.49	0	0.4702	-0.0749	0.0167	
-0.892186	0.197762	-0.506178	-2.31	1.4	-1.61	0.4696	-0.061	0.0232	
-0.898164	0.180316	-0.4819	-1.75	-0.84	-1.68	0.4681	-0.0611	0.0171	
-0.884378	0.17873	-0.486536	-0.91	-2.87	-1.75	0.4702	-0.0752	0.0061	
-0.867054	0.186538	-0.508984	-0.21	-3.92	-1.05	0.4714	-0.0704	0.0138	
-0.88145	0.185928	-0.507764	0	-4.76	-1.54	0.4715	-0.0721	0.0092	
-0.893406	0.181292	-0.500078	-1.12	-4.97	-1.47	0.4818	-0.0726	0.0093	
-0.882304	0.181658	-0.493978	-2.17	-5.81	-1.47	0.4667	-0.0629	0.005	
-0.88206	0.175558	-0.4941	-2.73	-7.28	-1.19	0.473	-0.0721	0.0108	
-0.883402	0.16836	-0.505934	-2.52	-8.4	-1.4	0.4714	-0.0691	0.0063	
-0.881572	0.178486	-0.503372	-1.68	-8.47	-1.61	0.471	-0.0612	0.0171	
-0.876936	0.177144	-0.497882	-2.52	-8.4	-1.54	0.4755	-0.0632	0.0065	
-0.889014	0.185806	-0.489708	-2.94	-9.31	-1.82	0.47	-0.0721	0.0077	
-0.895724	0.182512	-0.486292	-3.36	-10.22	-1.75	0.4668	-0.0659	0.0049	
-0.90829	0.169824	-0.478118	-3.92	-10.99	-2.17	0.4726	-0.0631	0.005	
-0.897676	0.16958	-0.469334	-4.9	-12.46	-2.45	0.4669	-0.0691	0.0018	
-0.891942	0.192882	-0.489586	-4.41	-14.84	-1.89	0.4701	-0.074	-0.0059	
-0.897188	0.204106	-0.49044	-2.87	-15.19	-1.47	0.4697	-0.0646	0.0034	
-0.901458	0.192638	-0.476166	-3.92	-15.05	-1.54	0.4641	-0.0706	-0.0027	
-0.905728	0.181902	-0.461648	-5.11	-15.96	-2.1	0.4755	-0.0638	-0.0131	
-0.904508	0.177754	-0.460184	-6.23	-17.29	-3.08	0.4699	-0.0711	-0.0118	
-0.906582	0.183366	-0.469944	-5.74	-18.27	-3.43	0.4707	-0.0546	-0.0174	
-0.91622	0.196054	-0.459696	-9.73	-19.32	-2.94	0.464	-0.0696	-0.0194	
-0.912438	0.196176	-0.444568	-6.72	-18.62	-3.01	0.4725	-0.0622	-0.0161	
-0.909144	0.184342	-0.4392	-8.05	-19.81	-2.66	0.4799	-0.0642	-0.0192	
-0.917074	0.17995	-0.4392	-8.19	-20.86	-3.01	0.4665	-0.0592	-0.0266	
-0.921954	0.189588	-0.432734	-8.19	-21.35	-3.08	0.4739	-0.0614	-0.0358	
-0.922076	0.191784	-0.41846	-7.56	-21.77	-2.73	0.4637	-0.0637	-0.0283	
-0.919148	0.180072	-0.407114	-8.4	-22.47	-2.66	0.4667	-0.0641	-0.0374	
-0.918172	0.164212	-0.412238	-8.96	-23.45	-2.73	0.4756	-0.0677	-0.0435	
-0.93086	0.177266	-0.411262	-8.4	-23.94	-2.94	0.4666	-0.0627	-0.0419	
-0.933666	0.18727	-0.394304	-7.14	-23.45	-3.22	0.4666	-0.0646	-0.0525	
-0.942206	0.18727	-0.376126	-8.19	-23.87	-3.36	0.4708	-0.0587	-0.0539	
-0.93696	0.181902	-0.370148	-8.26	-24.99	-3.71	0.4666	-0.0634	-0.0646	
-0.95282	0.17873	-0.36417	-9.38	-26.46	-4.06	0.4648	-0.0558	-0.0689	
-0.949892	0.183	-0.352946	-9.1	-26.6	-4.62	0.4586	-0.048	-0.0702	
-0.949404	0.185806	-0.339526	-8.47	-27.02	-5.11	0.465	-0.0607	-0.0782	
-0.955138	0.180804	-0.32574	-8.54	-27.65	-5.25	0.4632	-0.0545	-0.0765	
-0.958798	0.189344	-0.305	-7.63	-28.21	-5.46	0.4616	-0.05	-0.0809	
-0.949892	0.17751	-0.31171	-8.68	-31.15	-3.99	0.4585	-0.0486	-0.0915	
-0.97112	0.183	-0.318664	-9.66	-29.61	-5.25	0.4589	-0.0562	-0.0917	
-0.973804	0.181902	-0.2867	-10.64	-29.05	-6.44	0.4599	-0.0474	-0.099	
-0.961848	0.174704	-0.254736	-9.24	-29.75	-6.93	0.4629	-0.0491	-0.1021	
-0.957334	0.177998	-0.25132	-7.63	-30.94	-7.35	0.4673	-0.0479	-0.1066	
-0.971486	0.167018	-0.274866	-7.91	-31.64	-7.42	0.4544	-0.055	-0.1098	
-0.965142	0.15616	-0.284992	-8.82	-29.82	-7.56	0.451	-0.0458	-0.1111	
-0.982588	0.165432	-0.253272	-10.29	-28.91	-7.63	0.448	-0.0444	-0.1186	
-0.992348	0.167872	-0.192516	-13.02	-28.21	-7.7	0.4497	-0.0489	-0.1157	
-0.986126	0.160186	-0.152866	-12.32	-28.7	-8.61	0.445	-0.0429	-0.1246	
-0.96075	0.153598	-0.177388	-9.38	-30.59	-10.01	0.4562	-0.0315	-0.1319	
-0.95526	0.16409	-0.184586	-9.03	-29.96	-9.8	0.4506	-0.0373	-0.1336	
-0.952942	0.157258	-0.18422	-7.91	-28.7	-9.1	0.4493	-0.0405	-0.1412	
-0.971608	0.137128	-0.14213	-13.09	-27.02	-8.96	0.4458	-0.0285	-0.1515	
-0.98942	0.138226	-0.102114	-8.47	-26.18	-7.91	0.4504	-0.0318	-0.1531	
-0.967826	0.140178	-0.091256	-5.11	-27.3	-8.89	0.4502	-0.0289	-0.1591	
-0.979904	0.134078	-0.076372	-0.07	-25.97	-8.89	0.4398	-0.0254	-0.159	
-0.974658	0.122488	-0.063684	0.35	-23.59	-7	0.4265	-0.0234	-0.1635	
-0.966118	0.108824	-0.07808	2.87	-22.26	-4.13	0.4455	-0.0215	-0.1725	
-0.989664	0.123342	-0.0671	2.87	-20.23	-3.01	0.4423	-0.0165	-0.1632	
-0.994666	0.125294	-0.03172	-0.42	-17.15	-3.15	0.4395	-0.0183	-0.1754	
-0.993934	0.124806	-0.008052	-1.61	-15.75	-3.36	0.4423	-0.017	-0.1784	
-0.990396	0.121756	0.00976	0.07	-15.4	-3.08	0.4326	-0.0303	-0.1803	
-0.981856	0.115412	-0.002196	3.15	-15.4	-3.57	0.4362	-0.0122	-0.1798	
-0.99308	0.111142	-0.023546	2.17	-14.91	-4.34	0.4425	-0.0202	-0.183	
-0.997228	0.11285	-0.014762	3.15	-13.16	-3.78	0.4336	-0.0183	-0.186	
-0.990396	0.117364	0.000854	2.24	-11.06	-3.92	0.4351	-0.02	-0.1876	
-0.9943	0.115046	-0.004636	1.54	-10.57	-3.99	0.4322	-0.0214	-0.1892	
-0.993202	0.10065	-0.00915	1.68	-10.01	-4.2	0.4339	-0.0259	-0.1847	
-1.005158	0.093452	-0.001464	1.19	-8.05	-4.62	0.4277	-0.0181	-0.1891	
-0.99613	0.08601	-0.013542	-1.96	-7.77	-4.06	0.4246	-0.0151	-0.192	
-0.98576	0.099186	-0.02867	2.1	-3.57	-5.81	0.4205	-0.0211	-0.1967	
-0.998448	0.116876	-0.023058	5.11	-1.96	-5.04	0.4275	-0.0138	-0.195	
-0.995642	0.10919	-0.010736	0.77	-0.91	-4.69	0.422	-0.0226	-0.1938	
-1.001376	0.106628	-0.034282	-0.28	-1.19	-4.41	0.4274	-0.0121	-0.1904	
-1.009794	0.093452	-0.029158	-0.7	0.28	-4.34	0.4206	-0.024	-0.1938	
-1.002596	0.083204	-0.039284	-3.36	0.84	-4.48	0.4304	-0.0139	-0.195	
-0.996618	0.088816	-0.059658	0.98	1.26	-4.55	0.4249	-0.0209	-0.1846	
-1.014064	0.097112	-0.038186	-0.63	2.66	-3.22	0.4205	-0.0208	-0.1876	
-1.02053	0.096746	-0.030134	-1.33	3.08	-3.08	0.4217	-0.0164	-0.1921	
-1.018944	0.09699	-0.026596	-0.77	1.96	-2.17	0.4333	-0.0125	-0.195	
-1.007232	0.099674	-0.036356	0.14	0.63	-0.91	0.4334	-0.0137	-0.1844	
-1.00955	0.103578	-0.045018	4.97	0.84	-0.14	0.4193	0.005	-0.1854	
-1.01016	0.091256	-0.051728	2.1	0.56	0.98	0.4271	-0.0046	-0.1932	
-1.01016	0.111264	-0.066246	3.71	0.35	2.1	0.4364	-0.0155	-0.189	
-1.011136	0.0976	-0.047702	5.88	0.07	3.43	0.4319	-0.0137	-0.1874	
-1.00589	0.104188	-0.055754	5.88	-0.42	3.99	0.4262	-0.0164	-0.1845	
-1.01077	0.098454	-0.057706	3.43	0.42	4.97	0.4288	-0.0106	-0.1904	
-1.009062	0.105896	-0.063074	4.55	0.63	6.51	0.4244	-0.0104	-0.1904	
-1.016016	0.11102	-0.05673	4.13	0.35	8.05	0.4218	-0.0181	-0.1951	
-1.017358	0.106994	-0.05917	2.52	0.35	8.96	0.4231	-0.0149	-0.1875	
-1.00894	0.123586	-0.055754	3.36	0.14	10.08	0.4349	-0.0154	-0.1875	
-1.005524	0.10736	-0.054656	0.21	-0.49	11.27	0.4237	-0.0287	-0.1909	
-1.012356	0.131516	-0.065758	2.52	-0.35	11.06	0.434	-0.0277	-0.1939	
-1.019676	0.138104	-0.048312	1.89	-0.56	12.11	0.4236	-0.0256	-0.1893	
-1.013332	0.132248	-0.0366	0.21	-1.12	13.09	0.4295	-0.0261	-0.1969	
-1.00284	0.135054	-0.060024	1.75	-2.31	14.28	0.4253	-0.0302	-0.1894	
-1.006256	0.14213	-0.056486	-1.47	-3.5	17.08	0.4266	-0.0271	-0.1848	
-1.005768	0.138958	-0.063074	1.68	-1.47	16.45	0.4266	-0.0271	-0.1863	
-0.99918	0.141154	-0.066368	2.8	0.07	17.71	0.4285	-0.0365	-0.1926	
-1.004426	0.146766	-0.057462	0.42	-1.05	19.25	0.433	-0.0385	-0.2003	
-1.010648	0.157014	-0.059414	3.85	-1.47	20.79	0.4244	-0.0436	-0.1822	
-1.002718	0.183366	-0.039162	6.58	-0.91	21.98	0.4275	-0.0471	-0.1914	
-0.997472	0.184586	-0.029036	-0.84	-3.99	23.66	0.4276	-0.05	-0.187	
-1.007476	0.175192	-0.064172	7.14	-2.66	22.61	0.422	-0.0561	-0.1978	
-1.005646	0.185928	-0.047946	10.15	-1.05	25.13	0.4281	-0.0606	-0.1858	
-0.994788	0.188734	-0.044896	5.04	-3.01	25.55	0.4338	-0.0567	-0.1978	
-0.9943	0.186172	-0.04575	12.18	-3.43	28.28	0.4196	-0.068	-0.1921	
-0.992226	0.213744	-0.04636	10.5	-4.13	27.86	0.4197	-0.0708	-0.1846	
-0.985272	0.2318	-0.04575	10.22	-4.48	29.19	0.4145	-0.0847	-0.1986	
-0.983686	0.242658	-0.052094	9.1	-4.69	30.66	0.4159	-0.0829	-0.1879	
-0.983808	0.252052	-0.043676	11.34	-4.48	30.31	0.42	-0.0772	-0.1938	
-0.990762	0.268278	-0.03111	11.62	-5.18	31.64	0.4182	-0.1028	-0.187	
-0.985272	0.276452	-0.033306	12.32	-5.74	32.06	0.4169	-0.1075	-0.1962	
-0.976976	0.282064	-0.036112	9.59	-5.88	33.46	0.4168	-0.1046	-0.2007	
-0.96868	0.285236	-0.049898	9.38	-6.86	34.16	0.4143	-0.115	-0.1949	
-0.970388	0.282308	-0.046238	7.63	-7.21	34.02	0.4217	-0.1169	-0.1965	
-0.97051	0.297436	-0.067466	11.69	-7.21	34.44	0.4162	-0.1244	-0.2013	
-0.964166	0.320616	-0.038552	9.52	-5.81	33.32	0.412	-0.1286	-0.1953	
-0.960628	0.341966	-0.0427	10.01	-6.65	33.74	0.4092	-0.1317	-0.2015	
-0.959652	0.338794	-0.034892	6.79	-6.65	34.23	0.4094	-0.136	-0.1925	
-0.9638	0.323178	-0.039406	6.86	-6.51	36.47	0.4084	-0.1465	-0.1913	
-0.95953	0.321836	-0.060634	-0.77	-5.46	36.33	0.401	-0.1463	-0.1959	
-0.944402	0.369538	-0.059658	11.76	-8.4	36.33	0.4074	-0.1573	-0.1977	
-0.928298	0.37515	-0.026352	7.7	-6.09	34.51	0.4029	-0.1556	-0.1992	
-0.920368	0.409432	-0.045506	4.62	-7	34.23	0.3975	-0.1658	-0.1919	
-0.932446	0.415044	-0.027206	7.84	-7.28	35.42	0.4037	-0.174	-0.2012	
-0.924882	0.413214	-0.046238	1.33	-7.84	35.14	0.3953	-0.1826	-0.1985	
-0.929152	0.425048	-0.036722	3.36	-7.42	34.58	0.4022	-0.1738	-0.1967	
-0.91683	0.445056	-0.036844	3.29	-6.23	33.18	0.3912	-0.19	-0.1987	
-0.899628	0.456402	-0.043066	2.1	-5.39	31.15	0.3927	-0.1902	-0.2017	
-0.889868	0.479582	-0.031598	2.8	-4.69	31.01	0.3901	-0.1992	-0.202	
-0.891454	0.474336	-0.017202	3.36	-5.32	30.17	0.3831	-0.2065	-0.2037	
-0.897188	0.478118	-0.022448	1.4	-6.3	30.52	0.3887	-0.2008	-0.2081	
-0.882548	0.49288	-0.028792	0.07	-7.35	30.8	0.3802	-0.208	-0.2083	
-0.881938	0.504348	-0.02928	-2.24	-7.98	30.59	0.3876	-0.2083	-0.2068	
-0.85766	0.521428	-0.02074	1.82	-8.05	30.52	0.3728	-0.2061	-0.2052	
-0.85705	0.530212	-0.033184	-0.84	-9.87	30.24	0.3744	-0.2077	-0.2068	
-0.87413	0.536312	-0.028182	1.12	-10.36	29.19	0.3736	-0.2228	-0.2027	
-0.85949	0.540338	-0.020374	-0.21	-8.61	28.56	0.3662	-0.2226	-0.2088	
-0.864126	0.537776	-0.007564	-0.77	-8.4	28.7	0.3591	-0.2269	-0.2089	
-0.856562	0.525088	-0.00854	-0.77	-10.36	29.12	0.368	-0.2289	-0.212	
-0.85644	0.549244	-0.004148	1.68	-10.64	28.21	0.3655	-0.241	-0.2138	
-0.836066	0.562786	0.00183	-1.19	-10.36	26.74	0.3537	-0.2391	-0.2214	
-0.829844	0.573278	0.005612	0.42	-11.55	25.9	0.3597	-0.2421	-0.2109	
-0.828868	0.590358	0.019642	2.45	-11.83	25.06	0.3543	-0.2512	-0.2187	
-0.813252	0.599264	0.01464	0.21	-12.53	24.71	0.3556	-0.2483	-0.2217	
-0.804468	0.615612	0.007686	1.47	-12.04	23.94	0.3486	-0.2557	-0.2234	
-0.780434	0.608292	0.011468	2.59	-10.71	22.26	0.3428	-0.2586	-0.2295	
-0.776042	0.617808	0.010492	1.96	-10.85	21	0.3367	-0.2521	-0.2248	
-0.775676	0.624884	0.022692	4.27	-8.82	20.86	0.3398	-0.2568	-0.2234	
-0.787754	0.63013	0.030622	1.89	-7.56	19.6	0.3345	-0.2701	-0.2193	
-0.77958	0.63318	0.032818	2.52	-7.07	19.04	0.3271	-0.2686	-0.2314	
-0.77043	0.638182	0.042456	1.61	-7	18.76	0.3226	-0.2667	-0.2253	
-0.754814	0.642696	0.030988	1.61	-7.35	18.27	0.3317	-0.2718	-0.23	
-0.739686	0.652822	0.017812	1.82	-6.09	17.99	0.3362	-0.2749	-0.2255	
-0.735904	0.673074	0.025254	3.5	-4.83	17.36	0.3184	-0.2696	-0.2269	
-0.743956	0.676002	0.026718	2.24	-4.55	16.59	0.3349	-0.2778	-0.221	
-0.774944	0.68137	0.050142	2.45	-4.2	15.82	0.3202	-0.2772	-0.2241	
-0.760426	0.68503	0.04392	-0.56	-4.34	13.44	0.3158	-0.2786	-0.2256	
-0.76006	0.695888	0.039772	-2.59	-3.85	11.34	0.3188	-0.2786	-0.2211	
-0.735416	0.698938	0.03538	-8.19	-2.87	9.52	0.3334	-0.2779	-0.2286	
-0.734074	0.701622	0.032574	-5.18	-2.45	7.21	0.3118	-0.2862	-0.2319	
-0.728706	0.689788	0.033184	-6.37	-2.1	5.88	0.3163	-0.2892	-0.2259	
-0.723216	0.672342	0.036844	-5.32	-1.75	5.32	0.312	-0.2906	-0.2275	
-0.725534	0.67649	0.038308	-3.22	-1.47	5.18	0.3131	-0.2833	-0.2349	
-0.721508	0.68503	0.036234	-2.1	-1.47	4.97	0.3147	-0.2864	-0.235	
-0.739198	0.693692	0.048068	-0.84	-1.68	4.97	0.3118	-0.286	-0.2274	
-0.734074	0.691862	0.04514	0.42	-1.82	4.62	0.3104	-0.289	-0.2275	
-0.733098	0.684908	0.043554	-1.12	-0.91	4.06	0.3118	-0.2874	-0.2229	
-0.731146	0.687226	0.045872	0.63	-0.56	3.64	0.3134	-0.2892	-0.229	
-0.727852	0.702232	0.048678	1.89	-0.56	3.71	0.3132	-0.2864	-0.2365	
-0.722362	0.699914	0.05368	0.35	-0.21	3.08	0.3049	-0.2964	-0.2292	
-0.725656	0.695522	0.053192	0.7	-0.42	2.17	0.3058	-0.2843	-0.2304	
-0.726754	0.699914	0.045018	1.33	-0.98	2.24	0.3072	-0.2831	-0.2379	
-0.724314	0.703086	0.050264	1.33	-0.98	1.75	0.3088	-0.2861	-0.235	
-0.728462	0.699426	0.048922	1.82	-0.63	0.07	0.3139	-0.3013	-0.2263	
-0.726022	0.71065	0.048312	1.82	-0.28	-0.77	0.3073	-0.2858	-0.2259	
-0.726754	0.709186	0.0488	0.07	0.07	-1.89	0.3087	-0.2848	-0.241	
-0.732488	0.710528	0.049166	0.49	0	-3.78	0.3118	-0.2878	-0.235	
-0.735172	0.70211	0.042456	-4.34	0.56	-5.6	0.3146	-0.2833	-0.2333	
-0.733098	0.70089	0.046848	-4.34	0.14	-7.28	0.3148	-0.2881	-0.2395	
-0.730292	0.696498	0.046116	-5.74	0.21	-9.17	0.3103	-0.2876	-0.232	
-0.73932	0.688934	0.05002	-6.37	0.63	-10.78	0.315	-0.2923	-0.2291	
-0.74481	0.679296	0.055998	-5.46	0.56	-11.97	0.3129	-0.2787	-0.2332	
-0.746396	0.675636	0.050508	-4.48	0.56	-13.37	0.3162	-0.288	-0.2365	
-0.739686	0.673928	0.051484	-4.41	1.33	-14.28	0.3202	-0.2774	-0.2317	
-0.735416	0.66856	0.050142	-4.06	1.82	-15.4	0.3128	-0.2772	-0.2362	
-0.74908	0.66124	0.056364	-2.94	2.03	-16.45	0.3258	-0.2733	-0.2376	
-0.756644	0.652334	0.05673	-3.85	2.31	-17.43	0.3196	-0.2651	-0.2268	
-0.761768	0.658922	0.058438	-2.31	2.24	-18.69	0.317	-0.2714	-0.2391	
-0.75945	0.652822	0.059292	-1.82	2.38	-19.6	0.3197	-0.2667	-0.2298	
-0.758596	0.642696	0.053436	-0.91	2.73	-20.37	0.3311	-0.2581	-0.228	
-0.768966	0.645258	0.055022	0.35	3.01	-21.42	0.3242	-0.2688	-0.242	
-0.768356	0.64172	0.049166	0.56	3.36	-22.54	0.3311	-0.26	-0.2417	
-0.781776	0.627324	0.054412	-0.14	4.13	-23.24	0.3371	-0.2617	-0.2403	
-0.787876	0.622322	0.046604	1.96	4.13	-24.01	0.3353	-0.254	-0.24	
-0.78141	0.622322	0.043188	2.59	4.55	-24.92	0.3397	-0.254	-0.2309	
-0.785802	0.618906	0.039406	2.73	4.83	-25.69	0.3379	-0.2479	-0.2338	
-0.795806	0.613782	0.038796	0.7	5.04	-27.37	0.3352	-0.2522	-0.2294	
-0.803736	0.599752	0.040748	4.06	5.67	-26.81	0.3453	-0.2483	-0.2353	
-0.811788	0.590846	0.037698	1.47	5.81	-27.58	0.3407	-0.2436	-0.2367	
-0.830088	0.58682	0.043066	2.87	5.95	-28.49	0.3421	-0.242	-0.2321	
-0.838018	0.577182	0.033428	1.4	5.74	-29.89	0.3506	-0.2361	-0.2258	
-0.838994	0.569496	0.031842	0.14	5.74	-31.29	0.3589	-0.2246	-0.2361	
-0.839482	0.543144	0.022448	-2.45	6.02	-31.99	0.3577	-0.2303	-0.2257	
-0.84668	0.539972	0.026596	0.49	6.16	-32.83	0.3605	-0.2275	-0.2271	
-0.862418	0.535214	0.031476	-0.14	5.81	-33.74	0.3544	-0.2227	-0.2315	
-0.86559	0.512766	0.032208	-0.35	4.9	-34.51	0.3619	-0.2244	-0.224	
-0.885964	0.500322	0.016104	-1.82	4.55	-35	0.3731	-0.2128	-0.2251	
-0.897554	0.475678	0.024034	-2.87	5.11	-35.63	0.3713	-0.2051	-0.2249	
-0.90341	0.46421	0.022692	-1.05	4.9	-36.61	0.3721	-0.1917	-0.2321	
-0.914146	0.447008	0.023912	-1.26	4.69	-37.59	0.378	-0.1919	-0.2306	
-0.926712	0.433344	0.026718	0.07	4.62	-38.08	0.3737	-0.1932	-0.2291	
-0.93147	0.41663	0.022082	-3.99	4.06	-39.41	0.3731	-0.1793	-0.2242	
-0.94184	0.391864	0.014396	-0.49	4.13	-40.25	0.3788	-0.175	-0.2225	
-0.9333	0.373198	0.009881999	-2.03	4.06	-39.62	0.3759	-0.1766	-0.2316	
-0.954894	0.374662	0.007442	-2.66	3.5	-40.53	0.3856	-0.1631	-0.2237	
-0.95648	0.36234	0.011834	-3.85	3.08	-40.39	0.3798	-0.1658	-0.2207	
-0.956358	0.34526	0.011346	-4.83	2.66	-40.6	0.3999	-0.1548	-0.2279	
-0.947086	0.325618	-0.000732	-7.84	3.36	-41.16	0.3967	-0.1497	-0.2157	
-0.962336	0.321592	-0.002806	-2.8	3.64	-40.81	0.4042	-0.1532	-0.2188	
-0.951478	0.31476	-0.004636	-10.01	3.01	-41.72	0.4021	-0.1396	-0.2245	
-0.962336	0.314394	0.024156	-8.05	4.27	-41.3	0.3992	-0.1398	-0.2351	
-0.979416	0.314028	0.003172	-9.94	4.06	-41.51	0.401	-0.1136	-0.2207	
-0.96868	0.292312	0.011102	-12.18	4.06	-41.16	0.4029	-0.1228	-0.2194	
-0.96868	0.289994	0.00854	-12.74	3.85	-41.02	0.3995	-0.1134	-0.2176	
-0.978928	0.271938	0.01708	-15.19	4.34	-42.07	0.4055	-0.1156	-0.2313	
-0.978196	0.268156	0.015982	-13.93	5.88	-42.63	0.4003	-0.0968	-0.2187	
-0.987102	0.277428	0.010614	-13.72	6.23	-43.4	0.4078	-0.1016	-0.2143	
-0.9943	0.264374	0.014152	-14.42	7.14	-44.52	0.4073	-0.0895	-0.2184	
-0.990518	0.231922	0.028914	-20.44	4.97	-43.89	0.4144	-0.0854	-0.2229	
-0.9943	0.213622	0.002318	-19.74	3.99	-43.4	0.4036	-0.0728	-0.224	
-0.999424	0.210938	0.01342	-15.54	5.88	-43.19	0.409	-0.0606	-0.2161	
-1.014308	0.192028	0.005124	-19.74	3.78	-41.93	0.4116	-0.0532	-0.2174	
-1.012112	0.149084	0.00122	-17.15	4.41	-41.3	0.4083	-0.0455	-0.2202	
-1.018456	0.14274	0.0366	-17.99	6.3	-42.56	0.4112	-0.044	-0.2141	
-0.988566	0.116022	-0.017934	-13.44	6.16	-41.37	0.4195	-0.0339	-0.2213	
-1.001132	0.124074	-0.009272	-9.66	6.44	-42.28	0.4252	-0.0295	-0.2182	
-0.998814	0.096258	0.028548	-13.79	7.63	-42.49	0.4143	-0.0152	-0.2132	
-1.00162	0.07515199	-0.025864	-9.45	7.91	-41.93	0.4142	-0.0137	-0.2147	
-1.016992	0.05185	0.001708	-9.03	7.35	-40.67	0.4154	-0.006	-0.2099	
-1.020896	0.010126	0.006222	-4.06	6.23	-41.3	0.4205	0.0105	-0.2049	
-1.038708	0.02501	-0.001586	-9.1	1.89	-43.26	0.409	0.0061	-0.2172	
-1.02907	0.016836	0.01708	-8.33	1.61	-40.81	0.4086	0.0152	-0.2169	
-1.022726	0.02318	0.008174	-3.99	3.22	-39.55	0.4201	0.0209	-0.2137	
-1.03456	0.000488	0.004148	-6.58	2.38	-38.5	0.411	0.0274	-0.212	
-1.037488	-0.024034	0.00488	-5.6	2.38	-38.01	0.4169	0.0273	-0.2075	
-1.02724	-0.032696	-0.004148	-4.27	1.82	-37.52	0.4193	0.0394	-0.2056	
-1.007232	-0.02989	-0.00122	-3.08	1.26	-37.17	0.4112	0.0546	-0.2173	
-1.021018	-0.049898	0.009393999	-5.88	1.68	-37.24	0.4131	0.0456	-0.21	
-1.011136	-0.07015	0.00671	-3.5	1.89	-36.47	0.4079	0.064	-0.2125	
-1.016138	-0.080642	0.007686	-2.66	0.63	-34.65	0.3992	0.0631	-0.2049	
-1.01077	-0.092842	0.001464	-3.36	1.19	-33.6	0.4018	0.0691	-0.2047	
-1.014918	-0.111996	-0.007564	-3.08	-0.49	-33.81	0.4042	0.0826	-0.2059	
-1.02175	-0.11407	0.007198	-1.82	-0.49	-34.86	0.4057	0.081	-0.2089	
-1.01626	-0.125416	0.004026	-3.01	-2.03	-34.51	0.4054	0.0871	-0.2072	
-1.010892	-0.141764	0.011956	-6.16	-2.1	-34.93	0.3938	0.0845	-0.2104	
-1.008452	-0.1403	-0.002928	-3.08	-2.38	-34.51	0.3948	0.095	-0.2131	
-1.019798	-0.160918	0.00183	-3.08	-3.71	-32.06	0.4034	0.0994	-0.2054	
-1.002108	-0.182634	-0.00244	-2.59	-3.99	-30.8	0.3995	0.0888	-0.2102	
-0.988444	-0.192638	-0.014396	-6.23	-4.55	-30.17	0.3885	0.1046	-0.2083	
-0.99247	-0.207522	0.00488	-8.12	-3.71	-30.73	0.3909	0.1182	-0.2049	
-0.998692	-0.219234	0.024522	-7.28	-1.96	-32.69	0.3908	0.1198	-0.2033	
-0.995764	-0.21838	0.043432	-7.84	-2.94	-33.6	0.392	0.1257	-0.2077	
-0.96502	-0.246684	0.015738	-9.73	-2.31	-33.67	0.3936	0.1228	-0.1987	
-0.96563	-0.242902	0.02013	-7.28	-2.31	-34.79	0.3863	0.1228	-0.2108	
-0.977586	-0.23851	0.025498	-7.49	-2.03	-35.63	0.3782	0.1402	-0.1997	
-0.980392	-0.223626	-0.00671	-7.49	-3.99	-35.07	0.382	0.1536	-0.2038	
-1.000034	-0.24217	0.014762	-4.13	-3.71	-32.62	0.3822	0.1488	-0.2115	
-0.972584	-0.296582	-0.014884	-6.37	-2.24	-30.66	0.3746	0.1553	-0.2099	
-0.967582	-0.29524	-0.009028	-5.88	-1.96	-30.1	0.3683	0.1632	-0.2096	
-0.941718	-0.286212	-0.026596	-5.25	-0.84	-27.93	0.3649	0.174	-0.2093	
-0.942938	-0.289506	-0.032696	-5.25	1.26	-26.18	0.3649	0.174	-0.2078	
-0.96624	-0.315492	-0.003782	-6.37	3.99	-24.22	0.371	0.1708	-0.2049	
-0.963434	-0.315004	-0.00854	-5.67	4.83	-23.66	0.3645	0.183	-0.2121	
-0.95709	-0.3233	-0.010614	-6.09	3.36	-22.75	0.3612	0.1925	-0.2073	
-0.946598	-0.31781	-0.020496	-6.16	2.87	-22.12	0.3613	0.1894	-0.2074	
-0.957822	-0.332816	-0.02806	-8.26	4.2	-20.79	0.3584	0.1897	-0.2028	
-0.956114	-0.329888	-0.011346	-5.11	6.02	-19.11	0.3582	0.1942	-0.2057	
-0.95038	-0.33977	-0.017202	-5.39	5.39	-18.9	0.3522	0.1961	-0.2011	
-0.947696	-0.353312	-0.00549	-7.28	3.99	-18.55	0.3506	0.1992	-0.1995	
-0.947452	-0.37454	-0.008174	-7.98	4.48	-17.99	0.358	0.1987	-0.2056	
-0.938912	-0.377956	-0.016592	-9.66	2.87	-17.78	0.3493	0.1962	-0.2027	
-0.926346	-0.374662	-0.031964	-7.14	2.38	-16.87	0.3534	0.2035	-0.204	
-0.935618	-0.394182	-0.023668	-8.05	4.06	-15.47	0.3533	0.2052	-0.2009	
-0.93025	-0.421998	-0.035868	-9.24	3.92	-14.98	0.347	0.2145	-0.2021	
-0.942328	-0.44835	-0.033428	-8.54	2.87	-14.28	0.343	0.2072	-0.1978	
-0.936472	-0.441152	-0.019642	-5.04	2.1	-13.72	0.3462	0.2011	-0.195	
-0.934276	-0.442982	-0.023302	-4.9	-0.49	-12.46	0.3442	0.2115	-0.2053	
-0.935374	-0.46848	-0.036356	-4.62	-0.63	-12.11	0.3426	0.2149	-0.1961	
-0.920978	-0.46238	-0.040382	-2.45	-0.56	-11.06	0.3412	0.2147	-0.2052	
-0.920246	-0.466406	-0.027328	-0.21	-0.42	-10.08	0.3447	0.2348	-0.1894	
-0.911584	-0.468846	-0.030378	0.21	-1.4	-9.1	0.3349	0.2244	-0.1958	
-0.905362	-0.467504	-0.0427	1.89	-2.38	-7.42	0.3422	0.2241	-0.1943	
-0.91805	-0.459086	-0.0305	3.64	-2.24	-6.23	0.3378	0.2242	-0.1973	
-0.920734	-0.45811	-0.015616	-1.26	0.49	-7.14	0.3299	0.2367	-0.197	
-0.899994	-0.460672	-0.011102	3.22	-2.66	-5.25	0.3481	0.2237	-0.2003	
-0.898408	-0.475434	-0.035258	2.66	-2.73	-4.9	0.3404	0.2318	-0.1941	
-0.903044	-0.462136	-0.02745	3.78	-1.4	-4.62	0.3448	0.2315	-0.1971	
-0.906704	-0.453352	-0.008784	4.41	-1.61	-3.36	0.3302	0.2305	-0.2002	
-0.904386	-0.454572	-0.013054	3.01	-2.52	-2.24	0.3376	0.2303	-0.1971	
-0.902434	-0.459574	-0.012322	2.31	-2.73	-1.19	0.342	0.2301	-0.1971	
-0.901214	-0.463722	-0.018178	1.75	-2.45	-0.49	0.3288	0.2291	-0.2002	
-0.90097	-0.4636	-0.025864	2.03	-2.31	1.47	0.3331	0.232	-0.1986	
-0.910852	-0.453962	-0.000366	5.04	-1.75	4.55	0.3437	0.2237	-0.2064	
-0.918782	-0.45689	0.003904	3.01	-2.8	6.09	0.3379	0.2208	-0.2095	
-0.921954	-0.458842	-0.007929999	2.52	-3.92	7.56	0.3318	0.2273	-0.2048	
-0.911584	-0.454572	-0.006832	4.13	-4.48	8.54	0.3353	0.215	-0.2037	
-0.903288	-0.446276	-0.009881999	3.92	-4.55	9.66	0.3375	0.2317	-0.2032	
-0.90097	-0.440664	-0.00976	4.34	-4.06	11.55	0.3366	0.218	-0.2051	
-0.90829	-0.438102	-0.009638	4.41	-3.92	12.95	0.3365	0.2209	-0.2095	
-0.915732	-0.4392	-0.020008	4.13	-2.8	14.28	0.3498	0.2171	-0.2127	
-0.915488	-0.428464	-0.005612	6.16	-2.03	16.24	0.3335	0.2227	-0.2049	
-0.913902	-0.420534	-0.001464	4.97	-1.4	17.43	0.3442	0.2113	-0.2128	
-0.91805	-0.414312	0.007808	5.18	-0.91	18.9	0.3457	0.2112	-0.2128	
-0.92537	-0.41114	0.004148	3.92	0.14	20.37	0.3414	0.2099	-0.2144	
-0.919758	-0.410652	0.002928	5.04	0	22.19	0.3445	0.2052	-0.213	
-0.921954	-0.403576	0.002074	4.06	1.33	23.59	0.3448	0.1992	-0.2102	
-0.922564	-0.389546	-0.00915	6.16	1.26	24.92	0.3582	0.1941	-0.2072	
-0.927688	-0.381128	-0.001342	7.63	1.33	26.32	0.3579	0.1999	-0.2177	
-0.937936	-0.377346	-0.003172	6.16	1.26	27.3	0.3438	0.1888	-0.2044	
-0.945134	-0.359168	0.010614	6.3	2.24	27.58	0.363	0.1848	-0.2075	
-0.95282	-0.334768	-0.00305	3.5	1.82	27.44	0.3646	0.1815	-0.2121	
-0.972584	-0.344406	0.006954	1.05	0.28	28.07	0.3661	0.1816	-0.2076	
-0.971364	-0.340502	-0.004148	1.54	0.21	29.19	0.3665	0.1724	-0.2079	
-0.964532	-0.334768	-0.00244	4.9	1.19	30.66	0.3623	0.1665	-0.2111	
-0.95343	-0.313418	-0.01342	2.38	-3.78	34.37	0.3656	0.1587	-0.2128	
-0.955382	-0.306098	-0.016348	5.32	1.54	32.83	0.3685	0.1598	-0.2203	
-0.97112	-0.29707	0.001342	4.2	2.31	32.9	0.3719	0.1491	-0.2176	
-0.975512	-0.288774	-0.013664	3.01	-0.56	35.28	0.375	0.1462	-0.2101	
-0.981368	-0.281942	-0.00305	4.76	0.07	34.23	0.3748	0.1488	-0.2222	
-0.982344	-0.262422	0.00366	5.74	-2.59	36.4	0.3771	0.1309	-0.2075	
-0.991006	-0.236436	-0.01037	3.92	-0.98	35.91	0.3832	0.1243	-0.2168	
-0.990884	-0.226188	0.002806	5.25	-0.28	35.91	0.3803	0.1244	-0.2168	
-0.992104	-0.210206	0.020008	7.14	-1.68	37.52	0.3837	0.1136	-0.2186	
-0.989908	-0.205936	0.007929999	3.85	-1.96	37.31	0.3926	0.1116	-0.2217	
-0.990152	-0.195078	0.004514	4.27	-1.4	37.31	0.3838	0.112	-0.2202	
-0.995032	-0.166164	0.000732	3.22	-1.54	37.66	0.3945	0.101	-0.2175	
-0.992714	-0.153354	0.003416	3.29	-1.54	37.59	0.3959	0.1039	-0.2189	
-0.99674	-0.132492	0.007686	3.43	-0.63	37.73	0.3887	0.0998	-0.2145	
-1.01077	-0.110654	0.004514	2.17	0.28	37.45	0.3892	0.08899999	-0.2209	
-1.0248	-0.086986	0.022692	3.99	1.05	37.31	0.395	0.0902	-0.2208	
-1.030534	-0.073444	0.02196	0.07	0.35	37.66	0.4055	0.0852	-0.2194	
-1.028704	-0.04758	0.023424	2.24	-0.35	38.99	0.3989	0.0674	-0.2169	
-1.019066	-0.024034	0.008905999	4.2	-0.56	40.67	0.4021	0.061	-0.2201	
-1.020408	-0.009516	-0.016836	-6.16	-1.26	40.74	0.3959	0.06879999	-0.2245	
-1.027484	0.004148	-0.000732	-9.8	1.05	43.12	0.4028	0.0459	-0.2175	
-1.006744	-0.012322	0.01952	-7.07	1.82	43.4	0.4043	0.0458	-0.2175	
-1.018456	0.02562	0.031354	-2.17	1.4	40.81	0.4043	0.0458	-0.2191	
-1.009184	0.020618	0.009881999	-10.64	-0.84	42.21	0.4048	0.0336	-0.2194	
-1.01687	0.038186	0.00854	-3.01	-1.26	41.86	0.4052	0.0262	-0.212	
-1.009306	0.057462	0.000732	-3.85	-0.63	42.42	0.4201	0.0194	-0.2122	
-1.02053	0.068442	-0.012688	-2.8	-0.84	42.84	0.4142	0.0193	-0.2243	
-1.006378	0.061366	0.019886	4.48	1.47	44.31	0.4013	0.0141	-0.217	
-1.018334	0.058804	0.021228	5.46	-0.98	43.4	0.4121	0.0014	-0.2173	
-0.995276	0.077714	-0.019642	7.77	-2.03	43.61	0.4097	-0.0105	-0.2161	
-1.00528	0.125172	-0.023546	15.4	-0.49	41.72	0.4064	-0.0029	-0.2205	
-1.015284	0.110288	-0.00976	12.25	1.26	43.61	0.4201	-0.0125	-0.2162	
-1.001376	0.148718	0.01159	15.05	1.89	45.43	0.4157	-0.0141	-0.2268	
-0.998448	0.143472	0.00488	14.21	1.33	45.71	0.4209	-0.0307	-0.2137	
-1.000644	0.167994	-0.018544	16.73	1.33	45.71	0.4182	-0.0365	-0.2063	
-0.99979	0.188612	-0.013176	14.14	3.29	45.22	0.4168	-0.0381	-0.2139	
-0.988932	0.20801	-0.003538	15.68	4.69	45.43	0.4117	-0.0563	-0.219	
-0.979172	0.23058	-0.005856	10.92	2.52	45.5	0.421	-0.0674	-0.2223	
-0.97966	0.244732	-0.013298	13.65	2.8	45.15	0.4196	-0.0689	-0.2208	
-0.981368	0.2379	-0.00427	15.89	3.15	44.1	0.4115	-0.0852	-0.2213	
-0.986126	0.26352	-0.009028	19.04	3.29	44.59	0.4247	-0.0839	-0.2061	
-0.980758	0.284504	0.007198	18.34	3.43	43.89	0.4103	-0.0909	-0.2079	
-0.96624	0.316834	-0.007076	18.62	2.66	43.26	0.4152	-0.1035	-0.2158	
-0.97234	0.313418	-0.006466	16.17	3.43	41.65	0.4129	-0.115	-0.1995	
-0.962824	0.322812	0.016226	16.31	4.27	40.39	0.4058	-0.1225	-0.2058	
-0.964532	0.334768	0.002318	13.37	2.38	40.04	0.4013	-0.1191	-0.2011	
-0.963068	0.328912	-0.000976	11.13	2.31	38.22	0.406	-0.1257	-0.2119	
-0.937082	0.353678	-0.011712	11.62	3.22	36.75	0.4079	-0.1361	-0.2001	
-0.940864	0.375394	-0.014884	16.45	3.22	37.45	0.408	-0.1394	-0.2078	
-0.935374	0.413336	-0.02135	10.57	1.82	35.98	0.3937	-0.1479	-0.2081	
-0.928908	0.425536	-0.026962	10.92	1.33	36.89	0.4118	-0.1593	-0.2084	
-0.923174	0.414556	-0.041236	6.58	1.33	36.12	0.4043	-0.1543	-0.2052	
-0.927444	0.406138	-0.039406	8.05	2.1	35.28	0.4032	-0.1633	-0.2024	
-0.930128	0.419924	-0.065514	14.49	2.66	34.79	0.3917	-0.1689	-0.2026	
-0.933544	0.44347	-0.03294	7.77	0.14	33.39	0.3885	-0.1626	-0.1994	
-0.924638	0.458964	-0.043066	5.95	-0.28	31.92	0.3978	-0.1739	-0.2073	
-0.916098	0.45811	-0.049898	6.65	-0.84	30.94	0.3922	-0.1796	-0.2044	
-0.9028	0.46604	-0.062098	9.38	-0.28	31.57	0.3942	-0.1917	-0.2002	
-0.890722	0.472994	-0.048068	13.23	-0.35	32.48	0.3945	-0.1977	-0.1974	
-0.902434	0.469822	-0.05795	8.61	-0.56	32.34	0.3915	-0.1975	-0.1944	
-0.909388	0.477752	-0.047214	9.17	-0.98	30.24	0.3949	-0.2084	-0.1977	
-0.906826	0.488366	-0.034892	8.68	-2.66	30.24	0.3935	-0.2098	-0.1947	
-0.887062	0.522404	-0.03721	9.1	-3.78	30.31	0.3881	-0.2201	-0.1935	
-0.87779	0.541558	-0.055388	5.6	-4.97	31.22	0.3883	-0.2232	-0.1951	
-0.87169	0.537166	-0.05124	4.2	-4.41	29.89	0.3736	-0.2241	-0.1952	
-0.863394	0.547902	-0.057096	7.84	-4.41	28.7	0.3795	-0.2227	-0.1906	
-0.842532	0.528992	-0.058072	4.48	-5.74	29.68	0.3788	-0.2412	-0.2002	
-0.83692	0.554368	-0.063074	4.2	-5.18	30.17	0.3672	-0.2438	-0.2033	
-0.815936	0.561444	-0.075884	5.18	-3.57	30.94	0.3784	-0.2321	-0.203	
-0.831552	0.572058	-0.058194	2.52	-3.43	31.08	0.3644	-0.2481	-0.2004	
-0.847656	0.570228	-0.03233	-1.82	-3.15	29.61	0.3673	-0.2463	-0.1852	
-0.84058	0.585112	-0.031232	-0.49	-5.46	29.12	0.3632	-0.254	-0.1961	
-0.820328	0.586698	-0.065636	-6.02	-6.37	29.82	0.3542	-0.2491	-0.1959	
-0.802516	0.598166	-0.09516	-0.07	-4.97	29.75	0.347	-0.2518	-0.1975	
-0.79666	0.611342	-0.08113	-0.56	-4.9	28.98	0.3593	-0.2645	-0.1979	
-0.818498	0.606218	-0.039772	-3.57	-5.32	27.58	0.3505	-0.2657	-0.1995	
-0.836554	0.604754	-0.03233	-6.51	-4.76	25.62	0.349	-0.2643	-0.207	
-0.83204	0.626592	-0.05612	-3.36	-5.11	23.8	0.3421	-0.2745	-0.1997	
-0.815448	0.644038	-0.051118	-7.98	-4.97	22.82	0.3406	-0.2729	-0.2027	
-0.795074	0.640256	-0.050874	-9.52	-5.39	21.21	0.3415	-0.2945	-0.2109	
-0.790194	0.643428	-0.060268	-12.32	-6.09	20.44	0.3394	-0.2793	-0.2135	
-0.762378	0.64294	-0.05246	-13.09	-4.97	16.94	0.3321	-0.282	-0.2121	
-0.740784	0.632814	-0.04148	-17.08	-4.76	14.07	0.344	-0.2839	-0.2076	
-0.753838	0.643428	-0.047336	-18.97	-6.44	14	0.3291	-0.2787	-0.209	
-0.763598	0.649528	-0.026474	-14.91	-6.44	15.54	0.335	-0.2805	-0.2105	
-0.750422	0.651358	-0.010736	-14.07	-6.37	17.36	0.3353	-0.2883	-0.2168	
-0.743834	0.664656	-0.008905999	-13.86	-5.95	17.64	0.3365	-0.2808	-0.2166	
-0.743102	0.676856	-0.006222	-6.58	-5.95	17.43	0.3292	-0.282	-0.2166	
-0.7503	0.679662	0.02074	-8.12	-6.23	17.29	0.313	-0.2799	-0.2227	
-0.727364	0.679052	0.018544	-7.07	-7.14	16.94	0.3207	-0.2893	-0.2214	
-0.712968	0.701744	0.011834	-3.15	-7.7	16.59	0.3251	-0.288	-0.2229	
-0.712358	0.712846	0.02318	-3.85	-5.95	15.33	0.3253	-0.2925	-0.22	
-0.698084	0.712846	0.009028	-2.59	-6.58	14.63	0.3191	-0.2864	-0.2274	
-0.70455	0.722606	0.01891	1.12	-6.23	14.28	0.3093	-0.2983	-0.2338	
-0.698206	0.720288	0.036356	-4.06	-5.67	12.46	0.3196	-0.2984	-0.2217	
-0.70333	0.735904	0.017324	-0.35	-5.46	12.04	0.3033	-0.2933	-0.2291	
-0.68503	0.732366	0.031232	-2.8	-4.48	11.41	0.3112	-0.3074	-0.2295	
-0.681126	0.733586	0.03233	-2.66	-4.55	11.55	0.3032	-0.2917	-0.226	
-0.678808	0.733342	0.031964	-0.91	-4.13	10.5	0.311	-0.3028	-0.2294	
-0.669048	0.7381	0.036966	-1.82	-3.29	9.24	0.3109	-0.3	-0.2399	
-0.674904	0.741882	0.040382	-0.07	-2.38	7.98	0.3065	-0.3011	-0.2324	
-0.674782	0.746518	0.046238	1.47	-2.8	7.56	0.3053	-0.3054	-0.2249	
-0.669414	0.752374	0.041114	1.82	-3.36	7.49	0.2994	-0.3055	-0.2355	
-0.666364	0.757498	0.036966	1.33	-2.31	6.51	0.3055	-0.3119	-0.2372	
-0.668072	0.734318	0.03843	-4.34	-2.87	4.9	0.2991	-0.2992	-0.2293	
-0.673562	0.752374	0.049654	-0.77	-1.75	4.27	0.2931	-0.2958	-0.2262	
-0.669292	0.754448	0.037454	0.91	-1.61	3.57	0.298	-0.3068	-0.2326	
-0.663314	0.747006	0.02684	-3.15	-0.77	2.59	0.3012	-0.3131	-0.2342	
-0.671122	0.746884	0.052826	0.84	-0.14	1.61	0.3035	-0.2995	-0.2323	
-0.678808	0.741882	0.055266	-1.26	-0.07	0.7	0.2984	-0.3159	-0.2313	
-0.68076	0.736148	0.03721	0.91	-0.7	-0.49	0.3039	-0.3086	-0.2326	
-0.685518	0.74115	0.05124	0.28	0.35	-1.4	0.301	-0.3085	-0.2341	
-0.68015	0.747372	0.049776	1.33	0.28	-2.94	0.3019	-0.2947	-0.2276	
-0.689178	0.747494	0.035624	0.35	-0.07	-4.41	0.2983	-0.3146	-0.2373	
-0.679296	0.743956	0.031842	1.33	0.14	-5.11	0.2953	-0.3111	-0.2281	
-0.686372	0.73688	0.030622	0.42	0.84	-5.81	0.2997	-0.3129	-0.2282	
-0.689666	0.741028	0.034282	2.17	1.33	-7.07	0.3068	-0.3073	-0.2341	
-0.695888	0.73627	0.027694	2.66	0.84	-7.77	0.3024	-0.307	-0.231	
-0.697962	0.733708	0.027938	1.33	0.84	-9.1	0.3052	-0.3038	-0.2218	
-0.696986	0.734562	0.027328	2.24	0.49	-10.36	0.3037	-0.3041	-0.2355	
-0.699426	0.732122	0.023546	1.75	0.28	-11.69	0.3023	-0.3057	-0.2371	
-0.7076	0.714798	0.033306	0.35	-0.42	-12.6	0.308	-0.3008	-0.2172	
-0.705404	0.724192	0.023668	2.45	-0.77	-13.86	0.3037	-0.3025	-0.2324	
-0.702354	0.72468	0.019764	1.05	0	-16.17	0.305	-0.2996	-0.2323	
-0.705892	0.711504	0.022326	0.21	0.7	-17.29	0.3124	-0.3012	-0.2263	
-0.718824	0.704794	0.021106	-0.35	0.77	-18.9	0.3177	-0.2879	-0.2304	
-0.724314	0.704672	0.0305	-0.35	0.98	-20.3	0.3057	-0.2812	-0.2288	
-0.731756	0.69967	0.030256	-1.33	1.05	-21.28	0.3134	-0.2893	-0.2335	
-0.732488	0.687958	0.032696	-1.12	1.12	-22.68	0.3149	-0.2908	-0.229	
-0.734806	0.691374	0.030622	-1.12	1.05	-24.57	0.3156	-0.2725	-0.227	
-0.748714	0.68686	0.039162	-1.61	1.26	-25.76	0.3251	-0.29	-0.2366	
-0.747616	0.677588	0.045018	-2.73	0.98	-27.09	0.322	-0.2866	-0.2319	
-0.755424	0.678564	0.035746	-3.85	0.14	-28.56	0.3256	-0.267	-0.2298	
-0.756156	0.648186	0.0305	-9.31	0.28	-29.26	0.3271	-0.2684	-0.2253	
-0.762744	0.64477	0.030866	-2.66	1.05	-30.59	0.3256	-0.2672	-0.2389	
-0.78019	0.628788	0.049288	-6.65	1.89	-32.76	0.3399	-0.2587	-0.2371	
-0.79178	0.640134	0.035258	-3.36	1.19	-34.09	0.3442	-0.2574	-0.2356	
-0.783972	0.63379	0.036966	-5.74	1.61	-35.63	0.3381	-0.2525	-0.2354	
-0.783484	0.622932	0.02867	-5.46	2.1	-37.52	0.3422	-0.2434	-0.2291	
-0.796782	0.619272	0.031476	-6.58	2.59	-39.69	0.3396	-0.2527	-0.2385	
-0.80215	0.60451	0.036112	-5.67	1.89	-40.25	0.3422	-0.2434	-0.2276	
-0.82594	0.578646	0.01769	-5.25	1.12	-40.6	0.3534	-0.232	-0.2363	
-0.844972	0.56852	0.040748	-2.31	1.05	-40.39	0.3544	-0.2229	-0.2361	
-0.841922	0.549854	0.038918	-2.31	0.56	-40.53	0.3616	-0.2183	-0.2238	
-0.859978	0.532896	0.046482	-1.82	0.35	-41.72	0.3643	-0.2127	-0.2373	
-0.870958	0.51545	0.035502	-2.45	0.21	-43.54	0.3565	-0.2029	-0.2264	
-0.877302	0.508374	0.036356	-3.57	1.05	-43.61	0.361	-0.2048	-0.231	
-0.87108	0.50813	0.031354	-3.08	1.12	-43.82	0.3695	-0.1976	-0.2307	
-0.8784	0.49898	0.037698	-3.57	1.4	-44.52	0.3709	-0.1962	-0.2353	
-0.884378	0.491904	0.050996	-0.91	0.42	-45.36	0.3766	-0.1918	-0.2291	
-0.899018	0.469456	0.03965	-1.68	0.14	-45.99	0.3863	-0.1802	-0.2348	
-0.90646	0.433344	0.038186	0.91	-0.7	-45.08	0.379	-0.18	-0.2393	
-0.925492	0.426634	0.044774	-1.96	-0.49	-46.34	0.3828	-0.168	-0.2374	
-0.926346	0.41846	0.045994	-2.1	-0.98	-47.39	0.387	-0.162	-0.2357	
-0.932202	0.380518	0.046848	-2.17	-0.7	-46.97	0.3778	-0.1523	-0.2294	
-0.93879	0.362218	0.055998	-2.38	-1.47	-49.07	0.388	-0.1529	-0.2324	
-0.959408	0.342332	0.03233	-4.27	-2.45	-50.4	0.3893	-0.1468	-0.2292	
-0.970754	0.332938	0.037088	0.21	-1.82	-51.17	0.3916	-0.1334	-0.2364	
-0.96929	0.32147	0.03172	-2.03	0.63	-51.87	0.3958	-0.1288	-0.2302	
-0.973926	0.289872	0.04209	-4.13	-0.14	-52.22	0.3949	-0.109	-0.2296	
-0.986126	0.26352	0.03904	-1.26	-0.56	-53.06	0.3995	-0.1138	-0.2298	
-0.995276	0.254858	0.027084	-5.81	-0.49	-52.92	0.3961	-0.1035	-0.2476	
-1.00345	0.251076	0.048678	-6.3	-0.21	-54.25	0.3898	-0.0941	-0.2459	
-0.988322	0.22021	0.058926	-5.46	1.05	-53.69	0.3982	-0.0835	-0.2365	
-0.979782	0.221064	0.023302	-10.08	0.56	-54.25	0.4052	-0.0763	-0.2362	
-0.97905	0.207034	0.04392	-11.2	1.89	-54.67	0.4022	-0.0746	-0.2362	
-0.983442	0.172264	0.03782	-12.53	2.66	-54.6	0.4078	-0.0674	-0.242	
-0.986126	0.17263	0.040748	-15.82	1.05	-54.74	0.3952	-0.0485	-0.237	
-0.979294	0.140788	0.046238	-18.13	0.98	-56.84	0.4008	-0.0427	-0.2383	
-1.004182	0.155306	0.038918	-20.3	-0.42	-57.12	0.3973	-0.0304	-0.241	
-1.008208	0.131028	0.048312	-17.43	1.96	-54.95	0.3987	-0.0289	-0.2394	
-1.012478	0.098088	0.03904	-12.67	-0.7	-51.73	0.3894	-0.0163	-0.2391	
-1.008696	0.040138	0.02318	-17.36	0.21	-50.61	0.3951	-0.012	-0.2359	
-1.023336	0.071858	0.038064	-2.17	4.83	-51.31	0.4017	0.0027	-0.2415	
-1.021628	0.016226	0.048434	-10.71	4.55	-50.33	0.3988	0.0029	-0.237	
-1.036756	0.036356	0.043798	-5.6	5.32	-50.75	0.3997	0.0151	-0.2351	
-1.016138	-0.029402	0.056852	-3.92	5.46	-50.26	0.3981	0.0197	-0.2365	
-1.010648	-0.037942	0.04392	-4.62	4.2	-51.17	0.3961	0.0305	-0.2331	
-1.008208	-0.024644	0.060878	-3.43	3.71	-51.87	0.3972	0.0392	-0.248	
-1.010526	-0.023058	0.058682	-9.1	3.29	-50.82	0.3895	0.0473	-0.2402	
-1.016748	-0.076616	0.041724	-9.94	2.73	-48.86	0.3983	0.0486	-0.2372	
-1.004182	-0.081862	0.03294	-2.45	4.34	-46.69	0.3977	0.0608	-0.2338	
-1.006378	-0.111874	0.023302	-9.52	4.62	-44.87	0.3913	0.0733	-0.2349	
-1.00406	-0.116998	0.015372	-11.83	3.99	-44.52	0.3911	0.0795	-0.2302	
-1.004304	-0.132248	0.033306	-2.31	7.42	-44.94	0.3882	0.0779	-0.2363	
-0.993324	-0.143472	0.0305	-7.42	9.24	-45.64	0.392	0.0916	-0.2299	
-0.997716	-0.167262	0.02806	-12.18	8.96	-44.17	0.3816	0.0951	-0.2313	
-0.991372	-0.166286	0.031598	-9.59	9.66	-43.47	0.3856	0.1027	-0.2235	
-1.0004	-0.175924	0.03477	-9.45	10.29	-42.98	0.3867	0.1118	-0.2247	
-0.99125	-0.193004	0.024278	-16.17	11.2	-42	0.3748	0.1153	-0.2277	
-0.986614	-0.21167	0.009881999	-17.5	12.95	-40.88	0.3788	0.126	-0.2168	
-0.98027	-0.241316	0.031598	-15.61	12.39	-39.13	0.3713	0.1294	-0.2167	
-0.97539	-0.264374	0.023302	-12.32	13.44	-38.15	0.3784	0.1354	-0.2074	
-0.979538	-0.266326	0.019886	-7.21	13.65	-37.24	0.3795	0.1426	-0.2193	
-0.976366	-0.286578	0.003172	-7.7	10.5	-35.14	0.3796	0.1412	-0.2148	
-0.987712	-0.303658	0.014762	-6.65	9.03	-33.81	0.3731	0.1553	-0.2129	
-0.97356	-0.303902	-0.014518	-5.11	8.05	-31.22	0.3712	0.1646	-0.2081	
-0.972706	-0.316224	-0.002562	-6.16	8.05	-29.89	0.3634	0.1758	-0.2017	
-0.950136	-0.325252	-0.030378	-3.78	7.49	-30.03	0.3681	0.1695	-0.2019	
-0.964166	-0.344894	-0.015738	-2.73	7.7	-30.03	0.3692	0.1769	-0.2077	
-0.941718	-0.342454	-0.020374	-2.17	7.77	-29.68	0.3649	0.176	-0.1941	
-0.94367	-0.345626	-0.032086	-5.6	5.95	-28	0.3615	0.1867	-0.1969	
-0.968558	-0.361974	-0.019276	-3.78	5.39	-26.11	0.3603	0.1805	-0.2016	
-0.951966	-0.360266	-0.04697	-4.06	4.9	-24.57	0.3567	0.1944	-0.1997	
-0.935862	-0.375028	-0.036356	-1.82	4.13	-23.38	0.3494	0.1932	-0.2012	
-0.91866	-0.374296	-0.053802	-1.19	3.99	-23.66	0.3641	0.1942	-0.1966	
-0.951112	-0.377224	-0.056486	0.49	5.18	-21.91	0.3596	0.1959	-0.1966	
-0.942938	-0.381616	-0.05612	2.17	5.74	-19.88	0.3567	0.1945	-0.1966	
-0.933422	-0.393572	-0.067832	-0.91	3.15	-18.76	0.3532	0.2084	-0.1932	
-0.931104	-0.40016	-0.04758	-1.61	3.85	-19.11	0.3565	0.2007	-0.1934	
-0.922564	-0.419924	-0.055266	-3.36	2.59	-18.83	0.3532	0.2084	-0.1932	
-0.929762	-0.446886	-0.065392	-3.29	3.15	-17.99	0.3442	0.2118	-0.1946	
-0.939278	-0.443226	-0.04819	-3.15	3.43	-17.08	0.3459	0.2073	-0.1902	
-0.931348	-0.445544	-0.044408	-4.69	2.59	-17.01	0.3515	0.2148	-0.187	
-0.92842	-0.439444	-0.038796	-1.89	0.21	-15.61	0.3484	0.2183	-0.1748	
-0.923662	-0.453108	-0.044286	-1.54	0.7	-14.56	0.3498	0.2178	-0.1914	
-0.921954	-0.466162	-0.056364	-1.33	0.77	-14.42	0.3525	0.224	-0.1806	
-0.907802	-0.47458	-0.052338	-2.38	-0.28	-13.44	0.3481	0.2237	-0.1988	
-0.90646	-0.466528	-0.047702	0	-1.89	-11.55	0.3419	0.2319	-0.1865	
-0.912438	-0.4697	-0.037454	-0.28	-2.52	-9.87	0.3507	0.2332	-0.1819	
-0.909266	-0.46421	-0.032696	2.59	-2.17	-8.26	0.3476	0.236	-0.1954	
-0.890112	-0.467382	-0.04087	1.82	-2.24	-7	0.3378	0.2244	-0.1897	
-0.867664	-0.48129	-0.062098	-0.63	-0.56	-5.81	0.3405	0.2304	-0.188	
-0.868152	-0.46726	-0.05551	1.61	-0.35	-4.9	0.3376	0.229	-0.1896	
-0.878644	-0.471408	-0.081862	1.47	-0.49	-4.06	0.3374	0.2336	-0.188	
-0.884012	-0.486658	-0.07515199	2.31	0.21	-3.92	0.3462	0.2348	-0.1864	
-0.89365	-0.485316	-0.053314	2.1	1.05	-3.15	0.3434	0.2302	-0.1926	
-0.89731	-0.46238	-0.036356	1.47	1.05	-1.54	0.3402	0.2379	-0.1939	
-0.896456	-0.46787	-0.049166	0.77	0.98	-0.07	0.3377	0.2272	-0.2003	
-0.897676	-0.480314	-0.03843	0	2.03	0.84	0.3479	0.2305	-0.1759	
-0.89121	-0.4941	-0.052338	-1.82	1.68	2.1	0.3448	0.2313	-0.2032	
-0.898408	-0.499102	-0.055754	-1.26	1.26	2.94	0.3373	0.2365	-0.1924	
-0.906582	-0.498492	-0.052216	-0.42	0.63	4.2	0.3416	0.2379	-0.1909	
-0.914634	-0.494832	-0.039772	1.75	-0.07	5.25	0.3404	0.2333	-0.1955	
-0.914512	-0.482632	-0.050874	3.78	-2.45	5.95	0.3315	0.2351	-0.197	
-0.910608	-0.47031	-0.05917	5.25	-2.73	7	0.3449	0.2299	-0.1987	
-0.904386	-0.471408	-0.057706	5.39	-3.01	8.19	0.3479	0.2282	-0.2002	
-0.90219	-0.460428	-0.048434	5.46	-3.71	8.54	0.3391	0.2288	-0.1942	
-0.90585	-0.452742	-0.045384	4.55	-3.78	10.01	0.3375	0.2301	-0.2047	
-0.898408	-0.449204	-0.049288	2.59	-3.43	11.48	0.3452	0.2241	-0.1897	
-0.903044	-0.448838	-0.04026	2.17	-2.52	12.18	0.3422	0.2239	-0.2004	
-0.906216	-0.450912	-0.04392	1.19	-2.73	13.65	0.3498	0.2192	-0.1929	
-0.900726	-0.444446	-0.04941	1.4	-2.66	14.63	0.3512	0.2188	-0.205	
-0.90768	-0.440542	-0.040748	1.33	-1.75	15.75	0.344	0.2162	-0.2006	
-0.922564	-0.435906	-0.030744	1.19	-1.61	16.66	0.3498	0.2192	-0.1929	
-0.919514	-0.432124	-0.038552	1.75	-2.38	17.85	0.3488	0.2086	-0.1932	
-0.925858	-0.413458	-0.01891	1.33	-3.15	19.18	0.3486	0.2129	-0.2022	
-0.922808	-0.409432	-0.028914	2.1	-2.8	19.39	0.3458	0.2101	-0.2007	
-0.927688	-0.41236	-0.033306	1.19	-3.36	21.28	0.3581	0.1959	-0.1996	
-0.923296	-0.41541	-0.038186	1.54	-2.8	22.61	0.35	0.2144	-0.2021	
-0.922442	-0.410408	-0.030256	1.26	-1.82	23.8	0.3565	0.2006	-0.1965	
-0.934276	-0.402112	-0.029158	-0.35	-2.03	24.71	0.3592	0.2048	-0.2039	
-0.939888	-0.382226	-0.032208	0.07	-1.4	26.25	0.3555	0.1884	-0.1983	
-0.939644	-0.366488	-0.03233	0.35	-1.75	26.81	0.3613	0.1911	-0.2028	
-0.939888	-0.361486	-0.028548	1.33	-1.19	28	0.3611	0.1942	-0.2012	
-0.945012	-0.353312	-0.03843	1.75	-0.77	28.28	0.3704	0.1831	-0.2	
-0.94855	-0.351604	-0.02989	3.15	-0.7	29.05	0.3673	0.1863	-0.2014	
-0.963312	-0.355386	-0.035868	1.82	-1.12	29.61	0.3765	0.1785	-0.1925	
-0.97173	-0.300852	-0.000122	7.56	-2.24	31.64	0.3665	0.1711	-0.2034	
-0.957456	-0.324398	-0.038918	0.21	-1.26	31.71	0.3756	0.1661	-0.202	
-0.96136	-0.313906	-0.029402	2.94	1.05	30.87	0.3814	0.1675	-0.1989	
-0.970266	-0.29219	-0.032208	3.22	0.91	31.85	0.3727	0.1647	-0.202	
-0.96502	-0.285602	-0.051972	1.68	0.56	33.04	0.3894	0.1519	-0.1978	
-0.971608	-0.2684	-0.026962	5.04	2.1	32.27	0.3851	0.1503	-0.207	
-0.971608	-0.269498	-0.020862	2.38	-0.56	34.44	0.3883	0.1442	-0.2026	
-0.98393	-0.240828	-0.030256	3.64	-0.07	34.23	0.3884	0.1414	-0.1966	
-1.003694	-0.213622	-0.00915	3.36	-0.28	34.44	0.3832	0.1261	-0.2062	
-0.996008	-0.213256	-0.02989	1.19	-1.89	34.65	0.3847	0.125	-0.1895	
-1.002718	-0.20313	-0.022326	2.24	-0.07	34.37	0.3935	0.1243	-0.2016	
-1.011868	-0.17324	-0.01952	1.61	-0.56	34.02	0.4	0.1119	-0.2005	
-1.000766	-0.166896	-0.025254	1.12	-1.89	35.21	0.397	0.1119	-0.2035	
-1.002352	-0.153598	-0.014884	1.96	-2.17	35.56	0.4005	0.09959999	-0.2039	
-1.01077	-0.12932	-0.0122	0.98	-3.22	35.63	0.412	0.1051	-0.2037	
-1.014552	-0.116266	-0.032574	0	-3.36	35.21	0.4078	0.09959999	-0.1902	
-1.01138	-0.101016	-0.033672	2.17	-2.94	35.84	0.4008	0.0937	-0.1965	
-1.018822	-0.097966	-0.027328	1.96	-2.17	35.28	0.4038	0.0923	-0.1889	
-1.018334	-0.074908	-0.023302	1.68	-1.82	34.79	0.4116	0.0793	-0.2059	
-1.020286	-0.058438	-0.012932	1.89	-2.1	35.63	0.409	0.0734	-0.2016	
-1.019066	-0.04636	-0.01037	2.45	-2.94	36.68	0.4104	0.0749	-0.2015	
-1.023214	-0.046848	-0.022692	-0.35	-4.27	37.38	0.4064	0.066	-0.2003	
-1.023214	-0.019886	-0.025254	-1.12	-2.94	37.73	0.411	0.0612	-0.2004	
-1.01443	-0.007564	-0.02257	-3.64	-1.89	38.01	0.4187	0.0518	-0.1976	
-0.997838	0.013298	-0.02684	-2.66	-0.49	38.08	0.4085	0.0506	-0.2022	
-1.004304	0.011224	-0.011468	-1.26	0.91	38.43	0.4179	0.038	-0.2026	
-1.017236	0.032208	-0.003904	-2.59	-1.05	38.78	0.406	0.0418	-0.1964	
-1.016992	0.034526	-0.004636	-3.99	-1.33	38.5	0.4166	0.0335	-0.2027	
-1.016626	0.063806	-0.000854	0.49	-0.84	38.08	0.4171	0.0229	-0.2015	
-1.022482	0.054168	0.001464	-0.84	-0.91	39.34	0.4318	0.0205	-0.2091	
-1.021994	0.064538	-0.016348	-2.24	-1.75	39.13	0.4191	0.0107	-0.2004	
-1.028338	0.06771	-0.005978	2.52	0	38.57	0.4133	0.0078	-0.205	
-1.015406	0.084302	-0.001342	2.8	-0.98	39.41	0.4135	0.0048	-0.2021	
-1.014308	0.107116	-0.02684	1.05	-3.15	40.32	0.4181	-0.0014	-0.2022	
-1.0187	0.085766	-0.006222	3.64	-1.68	40.6	0.4211	-0.0029	-0.1977	
-1.001132	0.106628	-0.012078	11.2	-2.59	42.07	0.411	-0.0072	-0.2054	
-0.999546	0.135786	-0.019642	13.72	-3.92	42	0.4259	-0.0125	-0.2071	
-0.999546	0.165188	-0.037698	6.16	-4.2	42.42	0.4237	-0.0274	-0.1999	
-1.00711	0.170434	-0.033306	4.76	-2.66	42.14	0.4209	-0.0308	-0.2167	
-0.987102	0.182146	-0.020008	11.41	-0.7	43.12	0.4257	-0.0398	-0.2048	
-0.990884	0.200568	-0.02135	9.94	-0.35	42.77	0.4246	-0.0489	-0.2066	
-0.999668	0.194102	-0.033306	8.82	1.05	40.6	0.4207	-0.0611	-0.213	
-0.979782	0.22631	-0.00244	21.63	3.43	41.37	0.4251	-0.0612	-0.2085	
-0.983686	0.231556	-0.005368	5.53	0.7	40.81	0.4185	-0.0774	-0.2029	
-0.982588	0.264984	-0.036478	11.34	2.1	39.62	0.4215	-0.0792	-0.206	
-0.977098	0.254736	-0.006466	8.05	3.08	40.53	0.4265	-0.0914	-0.2018	
-0.972828	0.290848	-0.00305	12.6	2.1	42.28	0.4133	-0.09079999	-0.2003	
-0.953674	0.298656	-0.002318	11.06	-0.35	43.19	0.4257	-0.1064	-0.1962	
-0.96685	0.310612	-0.02806	12.74	-1.4	43.68	0.4154	-0.1063	-0.2068	
-0.965264	0.320494	-0.02562	11.2	0.35	43.05	0.4112	-0.112	-0.2024	
-0.96258	0.333548	-0.008174	8.4	1.47	42.63	0.4085	-0.1163	-0.1965	
-0.951112	0.356118	0.002806	13.16	-0.21	43.47	0.403	-0.1251	-0.1953	
-0.936594	0.37149	-0.031232	16.87	-0.84	43.4	0.4157	-0.1457	-0.2034	
-0.944646	0.381616	-0.041114	13.65	-0.91	44.38	0.4126	-0.1425	-0.2018	
-0.95953	0.392108	-0.025742	10.43	-1.75	44.1	0.4127	-0.1439	-0.2003	
-0.953308	0.420656	-0.025498	11.48	-1.47	42.7	0.4026	-0.1496	-0.202	
-0.942572	0.433222	-0.019032	8.19	-2.73	41.58	0.4018	-0.1631	-0.1979	
-0.927444	0.434442	-0.024644	8.4	-3.78	42.14	0.4073	-0.1558	-0.1977	
-0.917562	0.43615	-0.044774	10.78	-4.27	42.63	0.4006	-0.1692	-0.1996	
-0.919514	0.44652	-0.049044	13.02	-3.78	42.84	0.3982	-0.1813	-0.203	
-0.91683	0.467382	-0.030744	10.01	-4.48	42.98	0.4026	-0.1829	-0.1985	
-0.902922	0.476654	-0.019154	10.78	-5.25	42.91	0.3837	-0.1866	-0.1956	
-0.877668	0.49776	-0.038796	7.84	-6.79	41.86	0.3889	-0.2051	-0.1991	
-0.870104	0.514718	-0.050996	9.24	-5.95	39.9	0.3821	-0.2169	-0.198	
-0.852536	0.537044	-0.043798	9.03	-6.02	38.78	0.3793	-0.2199	-0.1981	
-0.864858	0.538874	-0.021594	0.91	-7.91	37.94	0.3708	-0.2273	-0.2044	
-0.870714	0.54839	-0.027816	-2.17	-7.7	36.82	0.3749	-0.2197	-0.1981	
-0.880474	0.550586	-0.055754	-1.96	-8.33	35.28	0.3696	-0.2318	-0.206	
-0.848632	0.557296	-0.022692	-1.89	-10.01	32.2	0.3668	-0.2347	-0.2061	
-0.825086	0.55571	-0.013176	-4.27	-10.57	30.94	0.3625	-0.2377	-0.2092	
-0.8418	0.569008	-0.038796	-4.41	-10.64	30.94	0.3581	-0.2388	-0.2032	
-0.838384	0.571082	-0.026474	-5.81	-11.34	30.17	0.3597	-0.2407	-0.2123	
-0.831186	0.58865	-0.009516	-4.27	-12.18	30.87	0.3568	-0.2421	-0.2124	
-0.808372	0.606584	-0.022326	-3.64	-11.69	30.66	0.3598	-0.2434	-0.2018	
-0.79788	0.63196	-0.02562	-2.38	-10.92	29.33	0.3472	-0.2569	-0.2143	
-0.788852	0.631472	-0.02074	-4.06	-10.57	28.21	0.3412	-0.2549	-0.2098	
-0.764208	0.609756	-0.02867	-2.73	-9.94	28.07	0.3505	-0.2661	-0.2116	
-0.782996	0.608658	-0.025864	-6.09	-10.64	26.67	0.3461	-0.2658	-0.2101	
-0.770918	0.648308	-0.019032	-2.66	-9.1	24.15	0.3389	-0.2688	-0.2193	
-0.768966	0.648552	0.003172	-6.3	-9.17	23.8	0.3359	-0.2672	-0.2207	
-0.767746	0.656726	0.03477	-10.01	-11.69	23.38	0.34	-0.2613	-0.2205	
-0.76372	0.661484	0.025254	-6.72	-12.81	22.54	0.3286	-0.2686	-0.2284	
-0.75884	0.655994	0.023302	-10.57	-11.48	20.79	0.3251	-0.2878	-0.2153	
-0.749568	0.667584	0.015616	-10.78	-10.92	18.69	0.335	-0.2811	-0.2287	
-0.7381	0.701134	0.043066	-4.48	-10.01	16.94	0.3248	-0.2836	-0.2288	
-0.737612	0.701134	0.054168	-4.9	-10.36	16.87	0.3162	-0.2866	-0.2395	
-0.73749	0.69845	0.050752	-4.97	-11.27	16.8	0.3162	-0.2864	-0.2334	
-0.725778	0.689056	0.036112	-4.76	-11.27	15.89	0.3144	-0.2805	-0.2424	
-0.721874	0.700402	0.04514	-4.69	-10.22	14.07	0.3206	-0.2866	-0.2319	
-0.70943	0.707234	0.064904	-3.43	-10.36	12.46	0.3133	-0.2896	-0.2441	
-0.701988	0.70699	0.04941	-4.2	-11.13	12.11	0.3118	-0.2878	-0.2365	
-0.684542	0.704428	0.058804	-2.17	-9.87	12.25	0.3117	-0.2863	-0.238	
-0.688446	0.705282	0.053314	2.31	-10.08	11.34	0.315	-0.2924	-0.2321	
-0.692716	0.720044	0.068564	-0.77	-9.24	10.71	0.3003	-0.292	-0.2427	
-0.6893	0.723582	0.066246	-1.82	-8.47	10.01	0.3059	-0.2878	-0.2441	
-0.69235	0.715164	0.078568	-1.4	-7.77	9.24	0.3109	-0.3004	-0.2505	
-0.695278	0.717726	0.072224	-1.47	-6.86	8.33	0.2915	-0.2933	-0.2473	
-0.695522	0.726022	0.09211	0.77	-6.72	7.42	0.3077	-0.2941	-0.2488	
-0.682712	0.726266	0.096136	-0.35	-6.58	6.44	0.2974	-0.2937	-0.2503	
-0.67893	0.735782	0.09333	1.19	-5.74	5.6	0.2906	-0.3053	-0.2431	
-0.67283	0.740784	0.099186	1.47	-5.67	4.9	0.2947	-0.2996	-0.2505	
-0.671366	0.74176	0.094306	-0.28	-4.83	3.71	0.2886	-0.2948	-0.2504	
-0.676002	0.74115	0.10187	0.63	-3.99	2.24	0.2902	-0.2963	-0.2474	
-0.674904	0.743224	0.096258	0.14	-3.64	1.12	0.2989	-0.2952	-0.2504	
-0.67344	0.747494	0.092598	0.77	-2.8	-0.42	0.2978	-0.3042	-0.2461	
-0.67405	0.74664	0.097356	-0.49	-1.96	-1.61	0.2918	-0.2993	-0.2445	
-0.679052	0.739564	0.096258	-1.89	-1.61	-2.73	0.2841	-0.2914	-0.2473	
-0.680028	0.749324	0.09942999	0.84	-1.47	-4.13	0.2917	-0.2977	-0.2429	
-0.681004	0.750056	0.10004	-2.1	-1.4	-5.04	0.2886	-0.2947	-0.2474	
-0.67893	0.741028	0.102114	-2.66	-1.12	-6.02	0.2916	-0.2962	-0.2429	
-0.678442	0.728218	0.097722	-2.45	-0.63	-6.79	0.29	-0.2935	-0.2549	
-0.688202	0.726632	0.08723	-2.66	-0.35	-7.91	0.2888	-0.2994	-0.252	
-0.688324	0.731634	0.086498	-1.82	-0.56	-9.31	0.2945	-0.295	-0.2504	
-0.695278	0.729316	0.08723	-2.03	-0.28	-10.99	0.2931	-0.2966	-0.255	
-0.704062	0.721874	0.087718	-3.01	0.14	-12.32	0.2928	-0.2905	-0.2533	
-0.707112	0.71248	0.087962	-1.82	1.05	-14	0.294	-0.2845	-0.2531	
-0.70455	0.708698	0.088328	-2.87	0.56	-14.98	0.3003	-0.2939	-0.2534	
-0.703452	0.706624	0.08967	0.91	0.63	-16.73	0.2953	-0.28	-0.253	
-0.713456	0.70028	0.090524	-2.1	2.31	-18.48	0.3085	-0.2808	-0.2621	
-0.715896	0.696254	0.091012	-0.21	1.82	-19.46	0.3056	-0.2804	-0.2515	
-0.716506	0.698206	0.102114	-0.63	2.24	-21	0.3007	-0.2698	-0.2602	
-0.709918	0.68259	0.08295999	-4.2	2.87	-22.33	0.3099	-0.2774	-0.2453	
-0.730658	0.68259	0.098698	0	3.99	-21.98	0.3082	-0.2729	-0.2527	
-0.742736	0.67039	0.098454	-1.54	4.13	-22.96	0.3127	-0.2762	-0.2543	
-0.743956	0.661484	0.09455	-1.05	3.99	-23.31	0.3109	-0.2669	-0.2511	
-0.743834	0.659776	0.091866	-1.33	5.04	-23.87	0.3123	-0.2672	-0.2586	
-0.749568	0.655872	0.087596	-0.56	5.6	-24.43	0.3209	-0.2613	-0.2494	
-0.758718	0.646722	0.088694	-0.91	5.67	-24.78	0.3176	-0.2533	-0.2416	
-0.773724	0.639524	0.08906	0.07	5.74	-25.83	0.3208	-0.2584	-0.2568	
-0.785558	0.637328	0.095892	0.28	5.81	-26.95	0.3193	-0.2582	-0.2508	
-0.780312	0.630252	0.091134	0.49	5.88	-27.58	0.3339	-0.2556	-0.2431	
-0.783728	0.615978	0.074542	-0.14	6.16	-28.28	0.325	-0.2554	-0.2507	
-0.789462	0.59841	0.079666	-3.85	6.09	-29.89	0.3333	-0.2435	-0.2473	
-0.802394	0.60207	0.075274	3.43	6.3	-30.17	0.329	-0.2448	-0.2443	
-0.814228	0.577548	0.071492	0.91	6.86	-31.15	0.3404	-0.2379	-0.2517	
-0.822646	0.568276	0.073688	1.82	7	-31.5	0.3496	-0.2457	-0.2428	
-0.82838	0.563884	0.074298	2.52	7.14	-31.71	0.3417	-0.2347	-0.2455	
-0.84424	0.553392	0.074176	0.42	7.14	-32.69	0.3486	-0.2241	-0.2361	
-0.85339	0.541802	0.066124	1.26	5.95	-32.83	0.3509	-0.2094	-0.2478	
-0.857416	0.534116	0.068686	1.61	5.88	-33.32	0.3568	-0.2094	-0.2402	
-0.864004	0.517402	0.07747	-2.52	5.74	-34.86	0.3567	-0.2078	-0.2371	
-0.87413	0.509106	0.075274	3.92	5.53	-35.14	0.3687	-0.213	-0.2388	
-0.886696	0.484828	0.066002	-0.14	4.62	-36.26	0.3624	-0.2035	-0.237	
-0.891454	0.479704	0.059292	3.01	3.78	-36.54	0.3593	-0.2005	-0.2415	
-0.88328	0.468846	0.040992	0.07	3.78	-37.38	0.3633	-0.1913	-0.2336	
-0.880474	0.475312	0.039528	5.95	4.13	-37.52	0.3679	-0.1961	-0.2353	
-0.895724	0.479216	0.041724	5.32	3.85	-37.59	0.3734	-0.1875	-0.2441	
-0.90707	0.45018	0.050508	3.43	4.13	-37.73	0.3673	-0.1809	-0.2348	
-0.923784	0.432124	0.054778	6.65	3.15	-38.36	0.376	-0.1796	-0.2302	
-0.928054	0.421388	0.037576	3.92	2.1	-38.71	0.3775	-0.1796	-0.2272	
-0.933422	0.413946	0.042822	6.44	4.06	-39.55	0.3841	-0.1636	-0.2403	
-0.920246	0.399428	0.000366	-3.78	4.62	-40.04	0.3796	-0.16	-0.2312	
-0.955138	0.366488	0.036844	2.24	5.67	-41.16	0.3787	-0.1737	-0.23	
-0.979294	0.337818	0.03172	1.05	5.04	-41.3	0.385	-0.1496	-0.2278	
-0.970632	0.3111	0.037942	1.75	5.18	-40.39	0.3895	-0.1512	-0.2248	
-0.94977	0.327936	0.012932	1.54	5.32	-40.67	0.3952	-0.1488	-0.2369	
-0.957944	0.3172	0.025498	4.13	7.28	-41.23	0.3919	-0.1407	-0.2275	
-0.968924	0.314516	0.02196	-0.14	6.16	-42.07	0.3959	-0.1318	-0.2288	
-0.962458	0.285724	0.030988	-5.18	6.02	-41.65	0.3999	-0.1229	-0.2285	
-0.97905	0.292068	0.017568	-3.99	5.67	-42.91	0.4074	-0.1248	-0.2301	
-0.983808	0.276452	0.034892	-3.57	6.3	-43.68	0.404	-0.114	-0.2298	
-0.98454	0.260714	0.017202	-3.92	6.02	-42.77	0.3993	-0.1092	-0.2296	
-0.986004	0.270718	0.025498	-7	5.6	-43.82	0.412	-0.0961	-0.2277	
-0.982344	0.248392	0.011468	-6.09	5.6	-42.49	0.4105	-0.096	-0.2277	
-0.986004	0.208498	0.00976	-9.38	7.7	-42.42	0.4074	-0.0924	-0.2125	
-0.986614	0.218014	0.012566	-8.54	8.05	-40.95	0.4021	-0.0728	-0.2255	
-0.98515	0.205936	0.030134	-11.76	8.61	-40.95	0.4153	-0.0699	-0.2118	
-0.996618	0.210816	0.035258	-13.79	8.4	-41.51	0.4133	-0.0591	-0.21	
-0.986736	0.173362	0.031842	-13.3	10.15	-40.53	0.4117	-0.0563	-0.2205	
-0.982466	0.172264	0.014884	-13.23	10.57	-40.25	0.4205	-0.0564	-0.2099	
-0.966972	0.13542	0.003538	-10.64	11.48	-38.15	0.4156	-0.0458	-0.2187	
-0.98942	0.141398	-0.006344	-10.5	11.06	-38.5	0.4094	-0.038	-0.22	
-1.00467	0.113826	0.00854	-12.11	11.69	-37.38	0.4163	-0.0259	-0.212	
-1.015406	0.08967	0.017202	-9.24	11.83	-36.68	0.4191	-0.0244	-0.209	
-1.006256	0.073444	-0.022814	-6.86	10.01	-35.42	0.4277	-0.0186	-0.2057	
-1.0126	0.080032	-0.00854	-6.86	10.85	-35.56	0.4247	-0.017	-0.2072	
-1.01931	0.084424	-0.043188	-7.49	9.73	-34.3	0.4225	-0.0018	-0.2098	
-1.040172	0.030012	-0.011224	-4.34	10.29	-32.48	0.415	0.0014	-0.2112	
-1.042124	0.018544	-0.02623	3.92	8.61	-32.41	0.4184	-0.0074	-0.2009	
-1.03883	0.017324	-0.02196	3.43	7.77	-33.04	0.4146	0.0125	-0.1988	
-1.038342	-0.005002	-0.005734	2.24	6.09	-33.32	0.4203	0.015	-0.2063	
-1.023824	0.013908	-0.019886	4.48	3.85	-34.02	0.4098	0.0205	-0.191	
-1.018456	0.018178	-0.033306	-4.41	1.19	-34.93	0.417	0.0243	-0.2045	
-1.02358	-0.01769	-0.03721	1.75	1.54	-35.91	0.4227	0.0271	-0.2044	
-1.026142	-0.040016	-0.030256	2.31	0.84	-35.42	0.4338	0.0434	-0.2009	
-1.037732	-0.051728	-0.03294	3.71	1.12	-35.14	0.4194	0.0365	-0.1996	
-1.032608	-0.04819	-0.02928	1.47	0.63	-34.58	0.4193	0.0382	-0.195	
-1.02114	-0.057218	-0.045994	0.28	0.07	-33.46	0.4223	0.0377	-0.2071	
-1.020896	-0.066002	-0.045018	2.1	1.82	-33.32	0.4159	0.049	-0.1962	
-1.015894	-0.0793	-0.022692	-2.52	1.96	-33.39	0.4151	0.0674	-0.1911	
-1.017602	-0.09516	-0.041236	-5.67	2.1	-34.23	0.4195	0.0668	-0.2048	
-1.014918	-0.099064	-0.034038	-1.82	1.82	-33.67	0.4153	0.0628	-0.1898	
-1.021384	-0.103578	-0.026352	-0.91	1.89	-31.99	0.4086	0.0813	-0.1938	
-1.01565	-0.134078	-0.034526	-4.76	1.12	-31.99	0.4016	0.0738	-0.2016	
-1.002718	-0.145302	-0.036112	-3.99	0.14	-32.27	0.4104	0.0734	-0.2001	
-1.001498	-0.174216	-0.037942	-7.21	0	-33.18	0.4084	0.0857	-0.1997	
-0.989786	-0.173972	-0.038064	-8.33	-0.14	-33.88	0.4039	0.0891	-0.1936	
-0.998936	-0.18117	-0.030134	-8.75	0.07	-35.35	0.4019	0.1015	-0.1887	
-0.997594	-0.192638	-0.028914	-4.55	-0.91	-35.63	0.405	0.09649999	-0.1979	
-0.997838	-0.188978	-0.018056	-7.42	-1.26	-37.8	0.4104	0.1071	-0.19	
-0.984174	-0.19337	-0.02562	-10.57	-1.68	-38.08	0.4088	0.1103	-0.1884	
-0.989176	-0.196298	-0.021594	-10.64	-1.05	-37.17	0.4012	0.1163	-0.2019	
-1.007476	-0.217648	-0.021838	-13.3	-1.61	-35.77	0.398	0.1224	-0.2077	
-0.992226	-0.259616	-0.026108	-11.76	-3.22	-35.77	0.3903	0.1307	-0.1939	
-1.000278	-0.26962	-0.014884	-9.52	-3.5	-34.37	0.3961	0.132	-0.1938	
-0.98149	-0.273768	-0.01464	-8.89	-3.78	-31.99	0.3866	0.1489	-0.2009	
-0.969046	-0.299266	-0.006954	-9.31	-4.13	-31.71	0.3823	0.1479	-0.1904	
-0.95282	-0.304634	-0.030622	-7.56	-5.25	-31.08	0.3818	0.1568	-0.1992	
-0.969534	-0.320982	-0.01891	-8.05	-5.81	-30.17	0.3756	0.1663	-0.1974	
-0.964898	-0.331596	-0.01708	-8.4	-7	-29.82	0.377	0.1661	-0.2005	
-0.96441	-0.327326	-0.005368	-7.98	-8.4	-29.96	0.3782	0.1723	-0.1957	
-0.954894	-0.324886	-0.034404	-5.46	-10.5	-28.49	0.3708	0.1741	-0.1972	
-0.957578	-0.366	-0.024278	-3.99	-10.15	-27.51	0.3692	0.1786	-0.2016	
-0.944646	-0.374906	-0.035624	-4.41	-7.98	-26.67	0.3645	0.1834	-0.2	
-0.94001	-0.374784	-0.006466	-7.07	-8.47	-26.25	0.3643	0.1894	-0.2028	
-0.93208	-0.366244	-0.005368	-7.91	-10.29	-25.62	0.3596	0.1956	-0.2057	
-0.9272	-0.360266	-0.009028	-8.54	-11.13	-24.99	0.3526	0.1868	-0.2044	
-0.934886	-0.357704	-0.02684	-7.77	-10.01	-24.15	0.3625	0.1973	-0.195	
-0.952576	-0.39162	-0.017812	-9.31	-8.12	-23.17	0.3448	0.1991	-0.2132	
-0.93879	-0.408212	-0.016714	-10.08	-8.4	-21.63	0.3427	0.2132	-0.2037	
-0.92964	-0.40809	-0.007564	-9.1	-9.87	-20.09	0.343	0.2057	-0.1979	
-0.92354	-0.418826	-0.019398	-9.59	-10.64	-20.09	0.3574	0.2124	-0.2067	
-0.924394	-0.43554	-0.01952	-10.5	-8.05	-18.76	0.3395	0.2176	-0.2111	
-0.939766	-0.47031	0.013786	-9.52	-5.88	-16.52	0.337	0.2087	-0.2084	
-0.92415	-0.462258	0.00488	-8.54	-5.6	-15.12	0.3351	0.2178	-0.2142	
-0.902434	-0.427366	-0.00366	-6.16	-8.75	-14.21	0.3324	0.2134	-0.2128	
-0.908534	-0.430782	0.00244	-6.65	-9.45	-13.58	0.3307	0.218	-0.2142	
-0.899872	-0.453596	-0.006588	-6.79	-9.31	-13.02	0.3261	0.2229	-0.2095	
-0.887672	-0.480802	0.000976	-5.67	-9.73	-12.81	0.3185	0.2292	-0.2139	
-0.879376	-0.482022	0.000732	-4.69	-8.33	-13.09	0.3288	0.2289	-0.2078	
-0.892918	-0.485682	0.014274	-2.66	-8.12	-12.46	0.3286	0.2334	-0.2077	
-0.889502	-0.48068	0.012566	-0.28	-7.98	-12.04	0.3154	0.2339	-0.2122	
-0.882426	-0.477874	0.021106	1.4	-6.86	-11.83	0.3152	0.2382	-0.2212	
-0.886086	-0.48434	0.022448	1.4	-5.6	-10.5	0.3168	0.2337	-0.2168	
-0.890478	-0.480436	0.026596	2.66	-4.69	-9.17	0.3267	0.2427	-0.2074	
-0.882182	-0.477142	0.02806	3.64	-4.2	-8.4	0.3178	0.2441	-0.224	
-0.88084	-0.485438	0.022326	2.17	-3.5	-7	0.3213	0.2319	-0.2183	
-0.881938	-0.492758	0.028792	1.96	-2.8	-5.95	0.3131	0.2522	-0.2132	
-0.886086	-0.49837	0.027816	1.61	-1.96	-5.53	0.3126	0.2307	-0.2229	
-0.885842	-0.50508	0.032452	2.31	-1.68	-4.62	0.3094	0.2355	-0.2198	
-0.885232	-0.496296	0.037088	2.03	-1.26	-3.78	0.3136	0.2401	-0.2105	
-0.885232	-0.498126	0.034404	2.17	-0.84	-2.87	0.3021	0.2343	-0.2183	
-0.891454	-0.508374	0.041358	2.45	-1.26	-1.61	0.3132	0.2507	-0.2117	
-0.878888	-0.499712	0.034404	2.94	-1.4	-0.42	0.3164	0.243	-0.212	
-0.877912	-0.498736	0.032696	2.45	-0.91	0.28	0.3178	0.2441	-0.2225	
-0.88145	-0.501298	0.035136	2.8	-0.7	1.26	0.3223	0.2423	-0.2271	
-0.876082	-0.49837	0.030622	1.96	-0.84	2.1	0.3088	0.2493	-0.2148	
-0.874618	-0.494344	0.02867	1.54	-0.42	3.08	0.3105	0.2429	-0.2241	
-0.87657	-0.492392	0.029158	1.47	0.35	4.41	0.3124	0.2354	-0.2167	
-0.885354	-0.489342	0.039284	1.47	0.63	5.81	0.3091	0.2416	-0.2181	
-0.886086	-0.493856	0.02806	1.05	0.7	6.72	0.3091	0.2429	-0.2256	
-0.87962	-0.491172	0.035868	1.89	0.84	7.14	0.3208	0.2424	-0.2256	
-0.884988	-0.488854	0.039772	1.4	1.05	7.84	0.3166	0.238	-0.2257	
-0.889868	-0.491782	0.04026	2.1	1.12	8.54	0.3196	0.2367	-0.2152	
-0.887306	-0.485072	0.037454	2.03	1.19	9.03	0.3197	0.2347	-0.2304	
-0.888282	-0.477508	0.035014	2.66	1.4	10.29	0.3183	0.2333	-0.2289	
-0.891454	-0.473116	0.036478	2.87	1.82	11.13	0.3186	0.2274	-0.2215	
-0.897188	-0.47031	0.033306	2.66	1.82	11.83	0.3231	0.2241	-0.2246	
-0.899628	-0.467016	0.033916	2.59	2.17	12.46	0.3232	0.2212	-0.2202	
-0.901946	-0.457378	0.03355	1.89	2.1	13.02	0.3201	0.2258	-0.2231	
-0.907802	-0.452498	0.036112	3.01	2.52	14.14	0.3216	0.2258	-0.22	
-0.906338	-0.445178	0.030744	3.5	2.94	15.19	0.3247	0.2209	-0.2262	
-0.907314	-0.440542	0.03233	3.29	3.15	16.17	0.3293	0.2179	-0.2172	
-0.915488	-0.438102	0.024278	3.22	2.94	17.08	0.3276	0.2223	-0.2262	
-0.915976	-0.423218	0.026352	2.73	2.87	17.5	0.3192	0.2137	-0.2204	
-0.914024	-0.41297	0.016592	2.1	3.71	17.85	0.3343	0.2041	-0.2161	
-0.924028	-0.415532	0.021838	2.73	4.2	18.34	0.3355	0.2099	-0.2235	
-0.9272	-0.41663	0.025742	2.66	4.2	19.11	0.3329	0.2007	-0.2298	
-0.932324	-0.402234	0.02623	2.1	3.78	19.67	0.3367	0.2146	-0.2173	
-0.927932	-0.395402	0.022204	3.01	3.92	20.58	0.3347	0.1948	-0.2194	
-0.933178	-0.386862	0.021594	2.45	3.36	21.14	0.3436	0.1913	-0.2225	
-0.94001	-0.374906	0.018666	2.03	3.08	21.49	0.3508	0.1955	-0.2239	
-0.943548	-0.372832	0.021838	2.59	3.15	22.19	0.3363	0.1917	-0.221	
-0.945256	-0.376004	0.020008	0.35	3.01	23.03	0.3508	0.1955	-0.2224	
-0.951112	-0.373808	0.016958	-0.28	2.73	23.52	0.3568	0.1921	-0.227	
-0.95221	-0.36112	0.016836	-0.49	2.52	23.31	0.347	0.1804	-0.2274	
-0.95038	-0.351238	0.021472	-0.7	2.52	23.73	0.3528	0.1816	-0.2288	
-0.951356	-0.342332	0.025254	-0.98	2.24	24.22	0.3631	0.1814	-0.2182	
-0.957212	-0.32818	0.013176	-0.35	2.66	24.36	0.3554	0.1893	-0.2195	
-0.958066	-0.326472	0.019886	0.98	3.01	24.78	0.3605	0.1755	-0.2169	
-0.96014	-0.323788	0.00915	-0.28	2.52	25.41	0.3681	0.1692	-0.214	
-0.96136	-0.3233	0.008296	1.26	2.59	26.11	0.3652	0.1676	-0.2186	
-0.968436	-0.311954	0.013542	1.54	2.52	26.04	0.3627	0.1586	-0.2204	
-0.97722	-0.296216	0.020862	1.4	2.59	25.97	0.3728	0.1611	-0.2218	
-0.978806	-0.291458	0.01586	0.21	2.31	26.67	0.3689	0.1509	-0.2115	
-0.981978	-0.27267	0.011102	1.12	2.8	26.74	0.3691	0.1465	-0.2086	
-0.984418	-0.257908	0.01159	2.31	2.59	27.16	0.3719	0.1475	-0.2207	
-0.981612	-0.251808	0.00427	2.17	2.38	27.72	0.3778	0.1473	-0.2177	
-0.984906	-0.244244	0.004636	2.52	2.52	28.14	0.3871	0.1379	-0.2134	
-0.989054	-0.244488	0.004392	1.47	2.52	28.35	0.3829	0.1318	-0.2196	
-0.991738	-0.22875	0.001586	3.15	2.66	28.63	0.3802	0.1273	-0.2228	
-0.995154	-0.213378	0.00061	1.96	1.96	28.63	0.379	0.1217	-0.2078	
-0.997228	-0.181292	0.007198	2.38	2.38	28.35	0.3802	0.1274	-0.2182	
-0.997594	-0.180194	-0.003782	2.24	1.33	29.75	0.3805	0.12	-0.2139	
-0.9943	-0.158478	0.009272	-1.47	-4.06	34.02	0.3955	0.1133	-0.2095	
-0.995764	-0.194224	-0.028792	-3.92	2.87	30.38	0.397	0.1117	-0.2111	
-1.00345	-0.164822	0.00427	8.05	3.92	29.12	0.3872	0.1014	-0.216	
-1.001254	-0.136518	-0.019642	-5.39	-0.21	31.5	0.3873	0.0999	-0.2145	
-1.008818	-0.111264	0.00305	-1.05	0.07	30.8	0.3964	0.0918	-0.2162	
-1.01199	-0.124684	-0.000122	-0.07	0.84	29.61	0.3935	0.0906	-0.2102	
-1.012234	-0.110532	-0.01403	-0.7	-0.42	29.12	0.4011	0.0858	-0.2073	
-0.999424	-0.097234	-0.018666	-3.64	-0.35	30.24	0.4038	0.09	-0.2147	
-1.008818	-0.092476	-0.02013	-0.98	2.1	30.8	0.403	0.0749	-0.2137	
-1.029802	-0.081496	0.0122	3.64	3.29	31.64	0.3971	0.075	-0.2167	
-1.039928	-0.060756	0.016104	3.08	2.52	31.29	0.4016	0.0733	-0.2167	
-1.031144	-0.034648	0.00061	0.28	0.56	30.94	0.4094	0.0622	-0.2201	
-1.021018	-0.031598	-0.01952	1.33	0.7	30.87	0.4083	0.0548	-0.2158	
-1.015894	-0.009638	0.004148	5.95	1.26	30.73	0.4037	0.0594	-0.2232	
-1.01443	-0.016958	-0.000122	0.84	-0.7	30.8	0.4116	0.047	-0.2175	
-1.006866	-0.002074	-0.029524	-0.28	-1.61	29.89	0.4074	0.0412	-0.2131	
-1.010648	0.007686	-0.016348	0.77	-0.21	28.63	0.4164	0.0379	-0.2087	
-1.010648	0.01098	-0.007076	1.26	0	28.56	0.4136	0.0332	-0.2179	
-1.017114	0.0122	-0.00061	-0.42	-0.49	27.72	0.4105	0.0382	-0.2087	
-1.018456	0.015372	-0.009638	-2.1	-0.63	26.67	0.4123	0.0303	-0.2165	
-1.020286	0.032696	-0.010004	1.47	-0.21	25.69	0.4066	0.0276	-0.2135	
-1.010648	0.049166	-0.018666	1.54	0.98	25.2	0.4108	0.0302	-0.221	
-1.019432	0.06954	0.00549	5.88	2.31	23.38	0.4072	0.0138	-0.2154	
-1.013942	0.06954	0.011224	4.06	1.54	22.75	0.4178	0.0059	-0.2096	
-1.01382	0.064782	0.00976	4.13	1.05	21.56	0.4148	0.0059	-0.2141	
-1.015772	0.068442	0.008417999	7.07	0.49	20.93	0.4163	0.0076	-0.205	
-1.008086	0.085766	-0.00244	7.49	0.35	20.23	0.4194	0.0027	-0.2142	
-1.008086	0.092232	-0.005246	6.51	1.19	19.11	0.4184	-0.0077	-0.21	
-1.0126	0.113582	0.0061	6.86	1.89	17.71	0.4124	-0.0045	-0.2144	
-1.007842	0.129808	0.004392	8.05	2.8	16.94	0.4155	-0.0075	-0.207	
-1.007354	0.141154	0.004758	8.75	2.87	15.89	0.43	-0.0036	-0.2068	
-1.00345	0.149206	-0.005124	5.18	2.87	14.07	0.4199	-0.0093	-0.21	
-1.004304	0.139202	-0.018422	4.41	3.5	13.86	0.4219	-0.0217	-0.2149	
-1.007964	0.147498	-0.004148	5.32	4.55	12.39	0.416	-0.0197	-0.2073	
-1.011502	0.157136	-0.000488	3.5	4.27	11.48	0.4162	-0.0245	-0.215	
-1.004548	0.157624	-0.00061	0.91	3.99	10.08	0.4174	-0.0185	-0.2164	
-1.006866	0.158112	-0.011712	-0.84	3.71	8.12	0.4221	-0.0248	-0.218	
-1.01382	0.16043	-0.01159	-1.12	3.57	6.37	0.4162	-0.0244	-0.2135	
-1.01016	0.157746	-0.014152	-1.68	3.22	5.39	0.4177	-0.0244	-0.209	
-0.996618	0.18788	-0.054656	-6.93	3.36	2.87	0.4119	-0.0269	-0.2015	
-0.998326	0.169458	-0.032574	-8.96	6.23	1.54	0.4177	-0.0258	-0.206	
-1.017846	0.178364	-0.008784	3.71	5.95	1.12	0.4207	-0.026	-0.2075	
-1.004182	0.177266	-0.000976	0.21	3.64	1.33	0.425	-0.0247	-0.209	
-1.010648	0.173728	-0.021106	-0.98	2.94	0.56	0.4236	-0.0261	-0.206	
-1.003938	0.19581	-0.018422	-2.17	3.36	0.07	0.4294	-0.0247	-0.2029	
-1.015284	0.197152	-0.024766	-12.88	3.29	-2.31	0.4249	-0.0215	-0.2043	
-0.996008	0.199714	-0.039528	-12.81	4.2	-3.08	0.4249	-0.0215	-0.2028	
-0.990396	0.196054	-0.063196	4.2	6.86	0.84	0.4151	-0.0318	-0.2092	
-1.011502	0.170922	0.010248	-22.96	6.3	-5.67	0.4238	-0.0304	-0.1985	
-0.996374	0.159332	-0.066002	-29.47	3.57	-4.83	0.4247	-0.0167	-0.1966	
-1.017358	0.138714	-0.041236	-31.71	3.85	-4.41	0.4159	-0.0179	-0.1982	
-1.020896	0.118096	-0.040748	-37.03	6.79	-4.83	0.4291	-0.0171	-0.2027	
-1.004792	0.116876	-0.050752	-32.48	6.86	-4.06	0.42	-0.0103	-0.1919	
-0.989786	0.134566	-0.081984	-29.68	7.07	-1.12	0.4213	-0.0076	-0.2009	
-1.019554	0.09089	-0.032452	-33.04	9.66	-2.73	0.4213	-0.0059	-0.1948	
-0.999912	0.072468	-0.038674	-32.13	10.22	-2.73	0.4199	-0.0087	-0.1888	
-1.01138	0.06588	-0.050508	-30.94	8.89	-3.08	0.4257	-0.0062	-0.1978	
-1.002718	0.086254	-0.02867	-21.14	9.66	-2.66	0.4311	0.0043	-0.1929	
-1.018212	0.088694	-0.055632	-25.69	8.54	-3.71	0.4298	-0.0001	-0.1931	
-1.019554	0.092842	-0.041846	-22.68	8.05	-4.83	0.4239	0.0003	-0.1855	
-1.006378	0.097966	-0.054168	-21.49	6.93	-5.18	0.4206	0.0095	-0.1883	
-1.007964	0.113338	-0.057096	-18.83	8.61	-6.23	0.4378	0.0194	-0.1864	
-1.001986	0.121512	-0.043066	-17.08	10.29	-5.88	0.4278	0.0125	-0.1776	
-1.000766	0.110044	-0.04819	-25.76	10.99	-4.62	0.4262	0.017	-0.1805	
-1.00833	0.130906	-0.06344	-17.85	12.39	-4.41	0.4278	0.0139	-0.1821	
-1.002352	0.128222	-0.049288	-24.85	12.53	-3.64	0.4265	0.009699999	-0.1701	
-1.006622	0.112606	-0.068076	-30.31	14	-2.73	0.425	0.0095	-0.1792	
-0.996984	0.128222	-0.071004	-23.1	14.42	-2.8	0.426	0.0219	-0.1712	
-1.001376	0.12261	-0.080032	-29.05	13.02	-3.57	0.433	0.0277	-0.1695	
-1.010892	0.111996	-0.079422	-25.62	14	-4.97	0.4387	0.0318	-0.174	
-1.001254	0.12444	-0.073322	-28.77	13.44	-6.09	0.4334	0.0204	-0.1592	
-1.014796	0.112606	-0.086498	-31.57	14.07	-6.58	0.4375	0.0278	-0.1589	
-1.004304	0.127856	-0.081252	-29.26	13.23	-7.56	0.4314	0.0326	-0.1603	
-1.011868	0.11712	-0.09333	-34.09	13.37	-5.46	0.4401	0.034	-0.1497	
-1.011868	0.113704	-0.099064	-26.6	13.09	-6.3	0.4331	0.0266	-0.1529	
-1.004548	0.102358	-0.115778	-31.29	13.16	-4.55	0.4355	0.0404	-0.148	
-0.99552	0.101016	-0.091988	-31.15	8.19	-1.26	0.4356	0.0373	-0.1496	
-1.016016	0.11651	-0.150182	-35.42	13.65	-4.13	0.4383	0.0417	-0.1494	
-0.999912	0.1098	-0.10492	-22.05	15.12	-5.25	0.4366	0.048	-0.1447	
-1.009794	0.077348	-0.121024	-30.17	10.85	-1.68	0.4385	0.0388	-0.1435	
-1.011624	0.091134	-0.130662	-25.34	12.25	-2.38	0.4354	0.0421	-0.1388	
-1.010282	0.087596	-0.127978	-22.19	12.39	-0.7	0.4379	0.0513	-0.134	
-1.0004	0.10065	-0.12261	-21.98	11.97	-0.91	0.4393	0.054	-0.143	
-1.004792	0.111264	-0.126148	-22.96	10.36	-0.21	0.4424	0.0495	-0.1356	
-1.007476	0.10248	-0.13115	-23.87	9.8	-0.28	0.4396	0.0466	-0.1357	
-1.005524	0.107604	-0.128344	-21.49	8.89	0.7	0.4405	0.0605	-0.1277	
-1.008086	0.091256	-0.139934	-26.39	7.84	1.26	0.4409	0.0513	-0.1295	
-1.007964	0.089426	-0.130296	-24.01	7.91	1.47	0.4361	0.0606	-0.1292	
-1.00711	0.100406	-0.13725	-19.04	8.4	1.54	0.4484	0.0467	-0.1175	
-1.013332	0.094306	-0.127978	-19.18	7.77	3.08	0.4468	0.0514	-0.1173	
-1.009672	0.091256	-0.13481	-17.43	6.79	3.85	0.4377	0.0577	-0.1232	
-1.00833	0.106872	-0.12688	-14.7	6.23	3.5	0.4393	0.0548	-0.1173	
-1.002962	0.127978	-0.131882	-14.49	4.97	4.13	0.4391	0.0576	-0.1232	
-0.996374	0.098942	-0.135542	-13.58	3.22	4.34	0.4425	0.0487	-0.1129	
-0.993934	0.119804	-0.148474	-13.09	2.66	3.43	0.439	0.0609	-0.114	
-0.997472	0.117974	-0.144204	-11.76	2.66	3.5	0.4466	0.0546	-0.1112	
-0.994544	0.116144	-0.142984	-10.71	2.66	4.06	0.4438	0.0531	-0.1158	
-0.990518	0.10309	-0.157014	-9.31	2.66	3.85	0.4469	0.0482	-0.1205	
-0.98881	0.113704	-0.144692	-5.95	3.08	4.41	0.4457	0.0426	-0.1085	
-1.003328	0.105896	-0.137372	-3.57	2.52	4.69	0.4379	0.0518	-0.1158	
-0.989786	0.103822	-0.133468	-0.14	1.19	4.9	0.4469	0.0484	-0.1144	
-0.99308	0.126026	-0.141398	3.15	0.49	5.18	0.4496	0.053	-0.1097	
-0.995154	0.1342	-0.1464	4.69	0.35	5.25	0.4509	0.0573	-0.1172	
-1.001864	0.14091	-0.143838	5.04	0.28	5.46	0.4482	0.0512	-0.1204	
-0.98942	0.135786	-0.149938	5.39	-0.28	5.32	0.4468	0.0515	-0.1113	
-0.99064	0.137494	-0.156038	6.3	-0.21	4.76	0.4514	0.0452	-0.1145	
-0.99796	0.137738	-0.150792	8.47	-0.42	4.06	0.4442	0.0439	-0.1176	
-0.992836	0.144448	-0.14823	10.5	-1.05	3.5	0.4575	0.0421	-0.107	
-0.997594	0.151524	-0.141886	11.34	-1.61	4.27	0.4456	0.044	-0.1115	
-1.00833	0.157014	-0.140056	12.25	-3.22	4.97	0.4384	0.0412	-0.1146	
-0.991982	0.149328	-0.152012	14.7	-3.85	4.9	0.4454	0.0502	-0.1083	
-0.99186	0.13908	-0.153232	14.91	-4.83	5.95	0.4442	0.044	-0.113	
-0.985272	0.14762	-0.148352	17.36	-6.58	5.67	0.4461	0.0329	-0.1255	
-0.998326	0.131516	-0.141764	17.85	-7.56	5.18	0.4458	0.0392	-0.1192	
-1.009428	0.133224	-0.126026	20.65	-7.28	5.67	0.453	0.0418	-0.1237	
-0.99369	0.149938	-0.132248	20.02	-9.31	5.53	0.4474	0.0361	-0.1193	
-0.997594	0.162626	-0.148596	24.43	-11.62	5.95	0.4519	0.0344	-0.1193	
-1.00284	0.155184	-0.142618	23.38	-10.99	5.25	0.4488	0.0375	-0.1208	
-0.99125	0.172142	-0.09747799	17.99	-11.41	6.44	0.449	0.0327	-0.13	
-1.00833	0.158844	-0.169824	16.87	-12.04	4.9	0.4347	0.0257	-0.1317	
-1.016748	0.18849	-0.126514	28.98	-10.01	4.48	0.455	0.0293	-0.1316	
-1.008574	0.169458	-0.132126	22.68	-14.84	6.79	0.4422	0.0206	-0.1379	
-0.982222	0.130784	-0.130174	24.08	-15.05	7.98	0.4435	0.0251	-0.1363	
-0.979416	0.132858	-0.136152	23.73	-14	5.46	0.4454	0.0157	-0.1426	
-0.97783	0.135176	-0.129808	20.86	-10.85	3.29	0.4437	0.0205	-0.1379	
-1.015284	0.170312	-0.11956	26.18	-11.41	2.1	0.4363	0.0208	-0.141	
-1.01016	0.18849	-0.121634	28.35	-11.41	0.98	0.4336	0.0161	-0.1502	
-1.005158	0.175924	-0.12322	28.56	-13.37	1.47	0.4381	0.0148	-0.1336	
-0.988932	0.143472	-0.12444	29.89	-11.69	3.5	0.4367	0.0113	-0.1518	
-0.993324	0.117974	-0.121878	28.7	-12.88	5.53	0.4325	0.0084	-0.1535	
-0.990274	0.124074	-0.085766	29.68	-10.36	4.41	0.4415	0.0032	-0.1612	
-1.020164	0.136762	-0.12749	28.21	-13.58	5.46	0.4402	-0.0011	-0.1598	
