Sensor string: E
Serial number: 1970-01-0000
Firmware version: 2,015
Hardware version: 2,2
Calibration quality: 5
ax	ay	az	gx	gy	gz	mx	my	mz

-1.007476	0.103822	0.044042	0.14	0	-0.07	0.4173	0.0039	-0.2959	Reference
-1.01138	0.105286	0.044286	0.14	0	0	0.4131	0.0038	-0.3146	
-1.01016	0.106872	0.044652	0.14	-0.14	-0.07	0.4086	0.01	-0.3005	
-1.004304	0.10614	0.04514	0.14	-0.28	-0.07	0.4044	0.0116	-0.3067	
-1.005646	0.105286	0.045506	0.07	0.21	0	0.4188	-0.0021	-0.3053	
-1.00894	0.10614	0.045628	-0.07	0.49	0.07	0.4158	0.0114	-0.3068	
-1.007842	0.10675	0.046238	-0.21	0.07	0.07	0.4116	0.0069	-0.3021	
-1.006988	0.10675	0.045384	-0.07	-0.14	0	0.4116	0.0084	-0.3083	
-1.005158	0.105286	0.046482	-0.14	0	-0.07	0.4074	-0.002	-0.3052	
-1.004914	0.105652	0.04453	-0.07	-0.07	-0.07	0.4002	0.007	-0.3129	
-1.0065	0.104188	0.045628	0	0.21	-0.14	0.4145	0.0069	-0.313	
-1.006866	0.10614	0.046116	0	0.35	-0.14	0.4159	0.0068	-0.3115	
-1.00772	0.105408	0.044652	0	0.07	-0.21	0.4188	0.0113	-0.3161	
-1.006988	0.104554	0.044042	0	0	-0.21	0.413	0.0084	-0.3052	
-1.00711	0.103456	0.044164	0.14	0.21	-0.07	0.4059	0.0025	-0.302	
-1.007598	0.105164	0.044652	0.14	0.14	-0.14	0.4102	0.0039	-0.3067	
-1.00772	0.10553	0.044774	0.07	-0.14	-0.14	0.4087	0.0039	-0.3036	
-1.007842	0.105408	0.043554	0	0.07	-0.14	0.4116	0.0009	-0.3005	
-1.009184	0.10614	0.043798	-0.14	0.14	-0.07	0.4004	-0.007999999	-0.3176	
-1.008452	0.105286	0.044652	-0.14	-0.07	0	0.4174	0.0023	-0.3162	
-1.0065	0.105286	0.045262	-0.14	-0.07	0	0.4144	0.0039	-0.3005	
-1.005646	0.105164	0.046116	-0.14	0.28	-0.07	0.4045	-0.0005	-0.3083	
-1.008818	0.105164	0.046604	-0.07	0.14	-0.07	0.4044	0.0131	-0.3098	
-1.007232	0.104676	0.045262	0	-0.14	-0.14	0.406	-0.002	-0.3083	
-1.005158	0.104432	0.045384	0.07	-0.07	-0.21	0.413	0.0084	-0.3067	
-1.00589	0.105408	0.045262	0.14	0	-0.21	0.4131	-0.0036	-0.3006	
-1.006988	0.105896	0.045262	0.21	0.14	-0.14	0.4059	0.004	-0.3036	
-1.008696	0.106262	0.044164	0.14	0.21	-0.14	0.4131	0.0008	-0.3146	
-1.007598	0.105408	0.044042	0.14	0	-0.21	0.4116	0.0024	-0.3068	
-1.0065	0.105408	0.043676	0.14	0.07	-0.21	0.4074	0.0039	-0.3145	
-1.008208	0.106872	0.044896	0	0.14	-0.14	0.4144	0.0069	-0.3052	
-1.006866	0.105042	0.045384	-0.14	0	-0.07	0.4116	0.0069	-0.3052	
-1.006622	0.10492	0.044896	-0.07	0	-0.07	0.4102	-0.002	-0.3005	
-1.007598	0.105652	0.044408	-0.07	0	-0.07	0.4014	0.0207	-0.3019	
-1.006866	0.104554	0.044042	-0.07	0	-0.07	0.4132	-0.0051	-0.3068	
-1.00772	0.106018	0.044408	-0.14	-0.07	-0.14	0.4129	0.0115	-0.3005	
-1.008208	0.10553	0.044774	-0.07	0.07	-0.14	0.413	0.0084	-0.3052	
-1.006134	0.103334	0.04575	0	-0.07	-0.14	0.4102	0.0054	-0.3067	
-1.00589	0.10309	0.045506	0.07	-0.14	-0.14	0.4117	-0.0021	-0.3052	
-1.009794	0.106018	0.043798	0.14	0	-0.14	0.4202	-0.0021	-0.2975	
-1.0126	0.106018	0.043188	0.14	-0.14	-0.21	0.4116	0.0009	-0.3005	
-1.009672	0.104676	0.043188	0.07	-0.56	-0.14	0.4086	0.0115	-0.2958	
-1.006866	0.10248	0.045384	0.14	-0.28	-0.14	0.4073	0.0055	-0.3005	
-1.007598	0.103822	0.048312	0.35	-0.07	-0.07	0.4159	0.0069	-0.3099	
-1.005158	0.108214	0.048556	0.42	-0.56	-0.07	0.4087	0.0115	-0.3098	
-1.002596	0.108946	0.047458	0.14	-0.56	-0.28	0.4074	0.0009	-0.3099	
-1.00162	0.10492	0.04514	-0.07	0	-0.07	0.413	0.0039	-0.3021	
-1.0126	0.106506	0.044652	-0.28	0.28	0.21	0.4002	0.0009999999	-0.3082	
-1.010892	0.108946	0.047336	-0.21	-0.42	0.07	0.4116	0.0054	-0.3005	
-1.006134	0.108824	0.044652	-0.14	-1.12	-0.21	0.4088	0.0009	-0.3036	
-1.007476	0.104798	0.044042	-0.35	-0.98	-0.21	0.4159	0.0039	-0.3005	
-1.011136	0.102602	0.041602	-0.35	-0.91	-0.14	0.4203	-0.0037	-0.3084	
-1.013332	0.10431	0.041846	0	-0.7	-0.35	0.4073	0.007	-0.302	
-1.013454	0.1037	0.042456	0.28	-0.49	-0.56	0.4103	-0.0021	-0.3099	
-1.006988	0.102236	0.046726	0	-0.63	-0.49	0.4101	0.013	-0.302	
-1.006012	0.103212	0.048678	0.07	-0.91	-0.35	0.4086	0.0146	-0.302	
-1.011136	0.1037	0.052826	0.42	-0.84	-0.42	0.4147	-0.0067	-0.3146	
-1.005524	0.102846	0.056486	0.49	-1.96	-0.35	0.4116	0.0084	-0.3145	
-0.999546	0.103578	0.05856	0.42	-1.75	-0.14	0.4017	0.0025	-0.3145	
-0.994544	0.100284	0.060268	0.77	-1.19	0	0.4175	-0.0037	-0.3131	
-1.005646	0.105042	0.05185	1.05	-0.7	0.07	0.4031	0.0025	-0.3083	
-1.009794	0.108824	0.046604	0.56	-0.56	0.14	0.416	-0.0006	-0.3131	
-1.013942	0.10919	0.040138	0.21	-0.91	0.28	0.4103	-0.0006	-0.3193	
-1.018456	0.108092	0.035258	-0.49	-0.84	0.42	0.4087	0.0145	-0.3129	
-1.024068	0.111264	0.035014	-0.77	-0.77	0.42	0.4074	0.0024	-0.3192	
-1.026508	0.115534	0.03782	-0.91	-2.1	0.07	0.4101	0.01	-0.3098	
-1.02663	0.112118	0.03599	-2.03	-3.36	0.14	0.4116	0.0099	-0.313	
-1.012112	0.103822	0.050142	-1.54	-4.69	-0.56	0.406	0.0009	-0.3098	
-1.013454	0.10248	0.050874	-1.33	-3.92	-0.21	0.4116	0.0084	-0.3099	
-1.020164	0.105774	0.052216	-0.98	-3.99	-0.35	0.4147	-0.0082	-0.3193	
-1.018578	0.107848	0.054778	-0.35	-5.11	-1.12	0.4074	-0.0065	-0.3021	
-1.008086	0.105408	0.05734	-0.35	-5.81	-1.61	0.4088	0.0084	-0.3161	
-1.00223	0.10431	0.059658	0.07	-5.18	-1.61	0.3973	0.0101	-0.3175	
-1.007476	0.106384	0.062586	0.21	-5.25	-1.54	0.403	0.0085	-0.3145	
-1.009306	0.10797	0.066368	0.21	-6.09	-1.61	0.3988	0.004	-0.316	
-1.014186	0.109922	0.066734	-0.21	-6.23	-1.75	0.4116	0.0084	-0.3161	
-1.003816	0.103578	0.075396	-0.63	-6.65	-1.54	0.4003	-0.002	-0.3207	
-0.995642	0.097966	0.076494	-0.91	-6.3	-1.12	0.406	0.0054	-0.3208	
-0.995764	0.09638	0.079178	-0.56	-5.25	-1.12	0.4002	0.0085	-0.3176	
-1.006622	0.096258	0.07808	-0.35	-5.32	-0.98	0.4088	0.0099	-0.3239	
-1.013698	0.09638	0.07869	0	-6.02	-1.26	0.4016	0.013	-0.3207	
-1.013454	0.097234	0.077348	-0.07	-6.02	-1.47	0.3989	0.0009	-0.3254	
-1.008818	0.096746	0.079422	-0.07	-5.88	-1.47	0.4031	0.0084	-0.327	
-1.003938	0.096624	0.081008	-0.14	-5.88	-1.33	0.3974	0.004	-0.3207	
-1.006744	0.097112	0.079666	0.28	-5.18	-1.05	0.4031	0.0069	-0.3238	
-1.017236	0.09699	0.08479	0.28	-3.78	-0.91	0.3959	0.0101	-0.3175	
-1.017968	0.099674	0.089182	0.56	-6.51	-1.05	0.4061	-0.0021	-0.3255	
-1.018822	0.101748	0.09089	0.63	-7.07	-1.33	0.3988	0.004	-0.3207	
-1.016138	0.099552	0.088328	0.49	-6.3	-1.19	0.3989	0.0054	-0.3347	
-1.025532	0.101748	0.086254	0.07	-5.74	-1.19	0.4017	0.0055	-0.3192	
-1.027972	0.09942999	0.088816	-2.59	-5.74	-0.14	0.3973	0.0176	-0.3331	
-1.017602	0.103456	0.08967	0	-7.49	-1.54	0.3961	-0.0065	-0.3254	
-1.012356	0.10065	0.093696	-0.56	-8.05	-1.47	0.4004	-0.0005	-0.3317	
-1.010526	0.099064	0.098454	-0.14	-7.7	-1.19	0.396	0.0085	-0.3269	
-1.0187	0.096014	0.09882	0	-7.77	-0.91	0.396	0.0085	-0.3316	
-1.02785	0.096502	0.103456	-0.07	-8.96	-1.33	0.3947	0.0024	-0.3363	
-1.003328	0.09333	0.108214	-0.35	-11.27	-1.89	0.3904	0.004	-0.3394	
-1.006988	0.092598	0.111752	0.14	-10.29	-2.45	0.3903	0.0116	-0.3378	
-1.012112	0.088572	0.116144	-0.14	-10.15	-0.98	0.3918	0.004	-0.3363	
-1.01138	0.080642	0.121634	-1.12	-13.3	0.91	0.3889	0.0131	-0.344	
-0.995764	0.084058	0.12688	-1.33	-13.86	1.96	0.3931	0.0131	-0.3362	
-0.9943	0.087108	0.13847	-1.47	-13.51	2.38	0.3846	0.0041	-0.3362	
-0.99674	0.092964	0.139934	-1.33	-16.94	2.31	0.3975	0.016	-0.3503	
-0.991982	0.090524	0.151402	-1.33	-18.97	2.1	0.3805	0.0101	-0.3611	
-0.979294	0.088694	0.163236	-0.21	-18.27	1.47	0.3861	0.0146	-0.3518	
-0.976732	0.088328	0.165676	0.56	-17.5	0.84	0.3819	0.0041	-0.3455	
-0.98515	0.088938	0.174338	0.63	-17.29	0.35	0.3834	0.0055	-0.3643	
-0.984052	0.091012	0.174948	0	-17.29	0.14	0.3805	0.008599999	-0.3627	
-0.979172	0.099064	0.184464	-0.49	-18.9	0.35	0.3706	-0.0003	-0.3689	
-0.969168	0.10431	0.193248	-0.84	-18.9	0.56	0.3791	0.004	-0.3596	
-0.981246	0.102602	0.197396	-1.68	-16.38	1.05	0.3677	0.0027	-0.3595	
-0.983808	0.101992	0.200446	-1.54	-15.89	1.82	0.3735	-0.0004	-0.3705	
-0.978196	0.098942	0.208498	-2.24	-18.34	2.31	0.3693	-0.0019	-0.3829	
-0.98088	0.105042	0.212402	-2.03	-17.78	1.82	0.3621	-0.0018	-0.3735	
-0.966484	0.103456	0.220454	-2.38	-16.66	1.47	0.3635	-0.0018	-0.3688	
-0.976488	0.097356	0.2196	-2.87	-16.38	2.17	0.3663	0.0102	-0.3782	
-0.984296	0.09467199	0.228506	-3.22	-16.59	2.87	0.3635	0.0026	-0.3829	
-0.980026	0.096136	0.234606	-3.29	-16.31	3.29	0.3648	0.0147	-0.3781	
-0.968192	0.099918	0.23363	-2.59	-14.63	2.73	0.3536	-0.0063	-0.3844	
-0.971608	0.096868	0.238022	-2.52	-12.6	2.17	0.3549	0.0103	-0.3828	
-0.980148	0.09882	0.238876	-2.24	-11.62	1.96	0.3578	0.0072	-0.3859	
-0.97417	0.10004	0.244488	-1.96	-9.73	1.96	0.355	0.0012	-0.3891	
-0.957822	0.103456	0.255712	-1.89	-7.56	1.96	0.3506	0.0118	-0.3921	
-0.9638	0.099064	0.252296	-1.05	-6.93	1.75	0.3507	0.0027	-0.3906	
-0.95282	0.096624	0.268278	-1.26	-10.22	3.29	0.3535	0.0102	-0.3984	
-0.956236	0.105652	0.266448	-1.89	-11.34	4.06	0.3522	0.0087	-0.4015	
-0.94306	0.104188	0.274744	-2.03	-10.29	4.83	0.3608	0.0009999999	-0.4	
-0.953064	0.11529	0.28731	-2.66	-9.31	4.48	0.3465	-0.0017	-0.3968	
-0.948306	0.112484	0.30134	-2.59	-9.31	3.99	0.3565	0.0026	-0.3953	
-0.95587	0.104188	0.280966	-1.89	-10.22	3.08	0.3508	0.0102	-0.4093	
-0.959896	0.100894	0.276574	-1.54	-8.54	1.05	0.3436	0.0043	-0.3936	
-0.980026	0.105164	0.269498	-0.7	-9.03	0.56	0.3464	0.0118	-0.4046	
-0.963922	0.11041	0.277306	-1.4	-9.8	2.38	0.3478	0.0103	-0.3999	
-0.954284	0.121024	0.276696	-2.66	-10.08	4.69	0.3451	0.0027	-0.4046	
-0.955382	0.133224	0.281576	-3.64	-8.96	6.16	0.3407	0.0104	-0.4014	
-0.95526	0.12932	0.287188	-3.78	-9.1	5.74	0.3422	0.0088	-0.4077	
-0.939034	0.111874	0.304634	-4.06	-9.03	5.67	0.3451	0.0072	-0.4202	
-0.94001	0.10797	0.311344	-3.85	-8.12	4.13	0.3379	0.0013	-0.3952	
-0.913414	0.1098	0.354288	-5.81	-13.3	2.1	0.3394	-0.0001	-0.4061	
-0.93025	0.113704	0.323056	-3.29	-7	0.84	0.3367	-0.0017	-0.4202	
-0.92293	0.110532	0.323666	-2.17	-5.74	-0.42	0.3437	-0.0002	-0.4046	
-0.955992	0.123464	0.319518	-1.33	-5.95	-0.77	0.3379	0.0043	-0.4076	
-0.955016	0.12017	0.3172	-0.49	-5.6	-0.56	0.3294	0.0044	-0.4107	
-0.946476	0.113826	0.326594	-0.77	-5.95	-0.49	0.3322	0.0074	-0.4138	
-0.939888	0.121024	0.325862	0.35	-4.06	-0.07	0.3365	0.0013	-0.4061	
-0.925614	0.126026	0.327204	0.42	-3.29	0.77	0.3294	0.0014	-0.4092	
-0.916098	0.128832	0.331474	0.42	-2.52	0.56	0.3264	0.0165	-0.42	
-0.909876	0.12078	0.330254	0.84	-1.61	-0.49	0.3308	0	-0.4061	
-0.902556	0.115046	0.338306	0.91	-0.49	-1.26	0.3308	0.0014	-0.4107	
-0.912438	0.114558	0.338306	0.84	1.4	-1.4	0.3309	0.0043	-0.4201	
-0.915854	0.109678	0.34099	0.7	2.45	-1.26	0.3338	-0.0017	-0.4233	
-0.920734	0.107116	0.339404	0.49	4.13	-0.98	0.3308	0.0059	-0.4123	
-0.915	0.10675	0.334524	0.28	5.6	-0.7	0.3352	-0.0032	-0.4155	
-0.914634	0.108702	0.330864	0.14	7.56	-0.42	0.3408	0.0013	-0.4014	
-0.92354	0.106262	0.324642	0.35	8.75	-0.21	0.3352	-0.0016	-0.4108	
-0.931592	0.11041	0.323666	0.35	9.73	-0.07	0.3365	0.0028	-0.4045	
-0.936838	0.11346	0.317444	0.84	10.64	-0.21	0.338	-0.0001	-0.4077	
-0.944524	0.114558	0.308904	1.19	12.04	0.07	0.3394	-0.0001	-0.4077	
-0.951234	0.114314	0.30378	0.91	13.16	0.63	0.3379	-0.0031	-0.3905	
-0.953796	0.121756	0.292312	0.56	13.58	1.26	0.3379	-0.0016	-0.3967	
-0.96197	0.124318	0.284992	0.42	14.28	1.61	0.3452	-0.0033	-0.4093	
-0.970388	0.123098	0.277428	0.21	14.07	2.38	0.345	0.0073	-0.3983	
-0.964044	0.123342	0.275476	0.14	14.14	2.45	0.3407	0.0059	-0.3921	
-0.957822	0.125416	0.269742	2.03	13.65	0.84	0.3508	-0.0033	-0.3953	
-0.95587	0.125172	0.268278	3.15	14.21	-0.35	0.3493	0.0012	-0.3953	
-0.951234	0.12017	0.26779	2.73	15.4	-0.7	0.3494	-0.0123	-0.3797	
-0.955016	0.123342	0.258518	3.5	15.4	-1.26	0.3565	0.0011	-0.3906	
-0.954894	0.125538	0.252906	3.78	16.73	-1.19	0.3536	-0.0002	-0.3844	
-0.960506	0.121878	0.25193	3.43	18.55	-1.12	0.3593	0.0026	-0.3891	
-0.95587	0.113826	0.250222	3.15	19.67	-1.26	0.3549	-0.0002	-0.3766	
-0.95282	0.116876	0.241682	3.08	20.37	-1.75	0.3535	0.0043	-0.3765	
-0.955504	0.114314	0.23424	3.57	21.42	-1.82	0.3636	-0.0079	-0.3814	
-0.967216	0.110654	0.222528	3.85	22.96	-2.03	0.3649	0.0026	-0.3735	
-0.960872	0.11285	0.226432	4.13	22.05	-1.68	0.3735	0.0009999999	-0.3705	
-0.964044	0.115656	0.206302	4.13	23.66	-1.54	0.3749	-0.0019	-0.3674	
-0.961482	0.120536	0.192516	4.06	25.83	-1.61	0.3719	0.0101	-0.3704	
-0.968314	0.122	0.188856	3.92	28.07	-2.03	0.3792	-0.005	-0.3627	
-0.97051	0.117608	0.179706	3.71	29.75	-2.52	0.3776	0.0041	-0.358	
-0.97966	0.11224	0.168482	3.29	29.75	-2.66	0.3833	0.0056	-0.3456	
-0.97539	0.117242	0.161162	5.6	29.68	-4.13	0.3863	-0.0005	-0.355	
-0.968924	0.11163	0.15555	4.06	29.75	-1.96	0.3833	-0.0019	-0.344	
-0.967582	0.110898	0.146156	3.92	31.15	-1.05	0.3947	0.0039	-0.341	
-0.965996	0.1098	0.1342	3.99	30.31	-0.84	0.3861	-0.0004	-0.3362	
-0.97051	0.115656	0.121634	4.48	31.36	-0.91	0.3891	-0.0095	-0.3332	
-0.983686	0.111142	0.098454	4.41	34.65	-1.47	0.3874	0.0101	-0.3331	
-0.980148	0.109434	0.090036	4.13	34.44	-1.82	0.3904	-0.005	-0.3316	
-0.987224	0.114436	0.079178	4.48	34.51	-2.38	0.3989	0.0024	-0.3254	
-0.996252	0.10858	0.055022	3.78	33.81	-1.75	0.4102	0.0024	-0.3083	
-0.988322	0.114924	0.043798	4.48	32.9	-2.1	0.4017	-0.002	-0.3145	
-1.013088	0.119072	0.024888	3.08	34.16	-1.4	0.4132	-0.0051	-0.3131	
-1.022848	0.117852	0.022326	3.29	32.76	-0.7	0.4131	-0.0081	-0.2943	
-1.032852	0.114192	0.002928	2.8	30.73	-0.63	0.4072	0.0055	-0.2958	
-1.020408	0.112606	-0.006588	3.99	28.35	-1.19	0.4273	-0.0037	-0.2897	
-1.00955	0.11163	-0.016348	3.99	28.49	-0.98	0.4215	0.0069	-0.2865	
-1.013332	0.112972	-0.026718	3.78	28.91	-0.91	0.43	0.0053	-0.2835	
-1.006988	0.116144	-0.035746	4.2	27.72	-1.19	0.4229	-0.0036	-0.2757	
-1.026142	0.115046	-0.047946	4.9	27.65	-1.82	0.4286	0.0053	-0.2835	
-1.036512	0.110166	-0.052948	4.62	24.78	-0.84	0.4157	0.0009999999	-0.2756	
-1.040904	0.110898	-0.064904	5.11	23.73	-0.91	0.4299	0.0084	-0.271	
-1.043832	0.1098	-0.079178	4.41	24.71	-0.42	0.4314	0.0023	-0.2726	
-1.039318	0.111874	-0.076372	4.76	24.64	-0.56	0.4314	-0.0006	-0.2695	
-1.039684	0.11529	-0.07625	4.06	23.59	-0.49	0.4356	-0.0081	-0.2446	
-1.03395	0.122244	-0.089426	3.08	23.45	-1.82	0.4313	-0.005	-0.2414	
-1.006012	0.121146	-0.09089	2.1	20.58	-2.03	0.4299	-0.0005	-0.2492	
-0.9882	0.1098	-0.10675	1.19	19.46	0.14	0.4369	0.0024	-0.243	
-0.989908	0.10858	-0.131882	1.19	21.7	2.1	0.4355	-0.002	-0.2367	
-1.07543	0.163602	-0.094062	1.54	22.89	0.98	0.4485	-0.0083	-0.2447	
-1.093852	0.125904	-0.15799	6.65	19.11	-7.7	0.4354	0.0054	-0.2382	
-1.008086	0.124318	-0.151524	-1.61	-2.1	-7.28	0.4413	-0.0021	-0.2446	
-1.003084	0.10919	-0.15921	1.82	9.66	-4.83	0.4455	-0.0006	-0.2321	
-1.006256	0.111508	-0.134444	0.35	16.59	-4.13	0.4369	0.0009	-0.2305	
-0.99857	0.10431	-0.135176	-0.84	14.98	-3.78	0.4382	0.0085	-0.2305	
-1.012722	0.099186	-0.16409	2.31	9.24	-2.8	0.4539	0.0098	-0.2306	
-1.01626	0.102358	-0.16592	2.59	5.67	-3.01	0.4426	0.0039	-0.2305	
-1.019188	0.095038	-0.164456	3.64	5.74	-2.94	0.4511	-0.0006	-0.2228	
-1.019676	0.09821	-0.162626	4.62	7.98	-3.08	0.4482	0.0084	-0.2243	
-1.00406	0.09638	-0.163846	4.13	7.91	-2.73	0.4468	0.0023	-0.2274	
-0.984052	0.09638	-0.156038	3.99	9.45	-2.45	0.4511	0.0053	-0.2212	
-0.987224	0.094306	-0.148962	3.15	10.29	-2.31	0.4554	0.0022	-0.2212	
-1.004304	0.08967	-0.152744	3.36	8.82	-2.45	0.4381	0.004	-0.2133	
-1.000156	0.087718	-0.136884	1.4	6.16	-1.96	0.4482	0.0054	-0.2181	
-1.005036	0.097844	-0.159088	2.24	8.61	-1.47	0.4554	0.0037	-0.2228	
-0.992836	0.096624	-0.16775	1.68	9.1	-1.12	0.4482	-0.0066	-0.2072	
-0.989176	0.090158	-0.167872	0.63	9.03	-1.05	0.4482	0.0054	-0.2181	
-0.999546	0.09394	-0.173484	0.49	9.45	-1.4	0.4553	0.0053	-0.2197	
-1.002474	0.084424	-0.180926	-0.56	10.08	-0.84	0.4496	0.0054	-0.2134	
-1.010038	0.101504	-0.199958	1.4	9.87	-1.54	0.4538	0.0159	-0.2165	
-1.004792	0.096746	-0.1952	0.21	6.79	-1.61	0.4495	0.0039	-0.2071	
-1.007232	0.09455	-0.204472	1.26	7.14	-1.4	0.4581	0.0083	-0.2103	
-1.01199	0.092842	-0.211914	0.49	6.79	-1.12	0.4509	0.0024	-0.2009	
-1.024556	0.09028	-0.223992	0.28	7	-0.84	0.4537	0.0099	-0.2009	
-1.031632	0.09028	-0.226066	1.05	5.53	-1.05	0.4567	0.0053	-0.2041	
-1.006256	0.087474	-0.21167	0.07	1.82	-0.63	0.4552	0.0054	-0.2009	
-0.994788	0.083082	-0.206912	0.56	4.41	-0.14	0.4523	0.0114	-0.204	
-0.993934	0.082594	-0.196176	0	5.46	0.21	0.4666	0.0098	-0.2041	
-0.992104	0.085644	-0.20801	-0.07	5.88	0.14	0.4466	0.01	-0.1993	
-1.000034	0.086254	-0.203618	0.63	6.09	0.07	0.4524	0.0069	-0.2072	
-1.011014	0.093696	-0.216062	0.91	2.94	0	0.4508	0.0115	-0.2009	
-1.004914	0.090036	-0.215574	1.05	2.24	-0.21	0.4551	0.0129	-0.204	
-0.994422	0.09272	-0.204716	0.21	0.14	-0.21	0.4537	0.013	-0.2009	
-0.98881	0.091988	-0.199958	0.07	0.28	-0.28	0.4637	0.0128	-0.201	
-0.989176	0.090646	-0.1952	0.28	0.91	-0.35	0.4581	0.0068	-0.2056	
-0.990274	0.092598	-0.201178	0.35	1.54	-0.49	0.458	0.0069	-0.1994	
-0.987102	0.09357399	-0.193858	0.21	0.21	-0.84	0.458	0.0099	-0.1978	
-1.002108	0.096014	-0.208498	0.21	-0.7	-1.12	0.4537	0.0099	-0.1993	
-1.004914	0.083692	-0.218624	0.07	-0.07	-0.91	0.4552	0.0054	-0.1978	
-1.012356	0.078202	-0.223382	-0.91	-0.07	-0.35	0.4594	0.0114	-0.2009	
-1.012234	0.080154	-0.235582	-0.07	0.91	0.07	0.4595	0.0053	-0.1978	
-1.003938	0.080764	-0.226554	0.63	2.1	0	0.4509	0.0085	-0.1993	
-0.990152	0.077836	-0.21167	1.89	0.77	-0.14	0.4509	0.0069	-0.2056	
-0.990884	0.08357	-0.20496	1.89	0.07	-0.07	0.4523	0.0069	-0.1947	
-0.989664	0.091134	-0.205082	1.4	1.47	-0.21	0.4507	0.0206	-0.1977	
-0.98942	0.090524	-0.202154	1.19	1.75	-0.21	0.4609	0.0008	-0.1916	
-0.995032	0.088328	-0.2074	1.12	1.68	-0.35	0.4638	-0.0007	-0.1948	
-0.99491	0.084058	-0.22143	1.61	0.91	-0.7	0.4566	0.0008	-0.1932	
-0.992226	0.091256	-0.202764	0.84	0.07	-0.35	0.4536	0.0175	-0.2009	
-0.99003	0.08845	-0.188124	0.49	-1.4	-0.07	0.4637	0.0068	-0.1916	
-0.985638	0.086254	-0.193492	-0.84	-1.61	0.28	0.4494	0.0085	-0.1915	
-0.978928	0.089182	-0.19581	-0.7	-1.54	-0.07	0.4594	0.0114	-0.1947	
-0.984418	0.088816	-0.198006	0.14	-0.98	-0.63	0.4551	0.0099	-0.1947	
-0.997228	0.08845	-0.20374	-0.35	-2.1	-0.91	0.4509	0.0039	-0.1962	
-1.000278	0.085034	-0.212402	-0.63	-2.59	-0.7	0.4537	0.0115	-0.1947	
-0.998204	0.080764	-0.210084	-0.14	-0.7	-0.35	0.4609	0.0038	-0.201	
-1.005402	0.081984	-0.218502	-0.21	-0.21	0	0.4524	0.0009	-0.1978	
-1.002352	0.084302	-0.220088	-0.77	-1.19	0.14	0.4452	0.007	-0.1993	
-0.996984	0.085278	-0.213378	-0.28	-0.42	0.21	0.4565	0.016	-0.1993	
-0.99979	0.08662	-0.206424	-0.56	-0.21	0.63	0.4538	0.0069	-0.2025	
-1.002718	0.08418	-0.212402	-1.75	-0.7	0.91	0.4565	0.0129	-0.1978	
-0.996496	0.084302	-0.21289	-1.54	0.21	1.05	0.4651	0.0113	-0.1947	
-0.993812	0.086254	-0.200446	-1.19	0.07	0.84	0.4566	0.0114	-0.2009	
-0.994788	0.086376	-0.196176	-0.56	-0.91	0.56	0.4552	0.0023	-0.1994	
-0.991006	0.089426	-0.199958	-0.35	-1.75	0.49	0.4551	0.0099	-0.1947	
-0.996008	0.088084	-0.20069	-0.98	-2.24	0.63	0.4495	0.0084	-0.204	
-0.99674	0.091378	-0.202886	-1.75	-2.45	0.77	0.4581	0.0053	-0.1994	
-0.99857	0.092476	-0.203984	-1.33	-1.89	0.7	0.4637	0.0038	-0.1916	
-0.995032	0.087962	-0.202032	-1.26	-2.24	0.84	0.4624	0.0098	-0.2072	
-0.996984	0.08845	-0.201178	-1.26	-2.31	1.05	0.4481	0.0084	-0.2071	
-1.000522	0.09028	-0.204594	-1.19	-2.52	0.91	0.4624	0.0007	-0.1979	
-1.001986	0.091988	-0.203984	-0.63	-2.45	0.77	0.4508	0.0145	-0.1931	
-0.99735	0.08967	-0.193858	-0.14	-3.08	0.63	0.4537	0.0129	-0.204	
-0.997228	0.091866	-0.195688	-0.07	-2.17	0.91	0.4595	0.0098	-0.2056	
-0.995276	0.091378	-0.195566	-0.91	-3.22	0.98	0.4595	0.0038	-0.1979	
-0.999302	0.094184	-0.196908	-0.84	-3.57	0.98	0.4638	0.0067	-0.2072	
-1.000644	0.09162199	-0.194224	-0.63	-3.85	1.05	0.448	0.0145	-0.2102	
-0.998692	0.08967	-0.192638	-0.91	-4.2	1.26	0.451	0.0008	-0.2119	
-1.000278	0.092964	-0.194468	-0.84	-4.76	1.19	0.4538	0.0069	-0.2087	
-1.001376	0.09272	-0.19459	-0.35	-5.32	1.05	0.4566	0.0129	-0.2025	
-1.00162	0.090646	-0.191418	0	-6.23	0.98	0.4509	0.0039	-0.2025	
-1.007354	0.091134	-0.192394	-0.14	-6.3	1.05	0.451	0.0038	-0.2134	
-1.006256	0.095404	-0.190686	0.07	-6.72	0.98	0.4567	0.0008	-0.2057	
-1.004914	0.097234	-0.189344	-0.14	-7.84	1.19	0.4581	0.0038	-0.2088	
-1.003694	0.093818	-0.184586	-0.56	-7.84	1.47	0.4468	0.0008	-0.2181	
-1.009428	0.097112	-0.18422	-0.84	-7.84	1.82	0.4467	0.0039	-0.2134	
-1.013942	0.101992	-0.181658	-1.19	-8.33	1.96	0.4538	0.0023	-0.2056	
-1.015162	0.10553	-0.183	-0.91	-9.73	1.54	0.4424	0.0115	-0.2164	
-1.023702	0.102236	-0.176412	-0.98	-10.71	0.98	0.4583	-0.0083	-0.2182	
-1.017724	0.099796	-0.173972	-1.82	-11.2	0.77	0.444	0.0009	-0.2212	
-1.005768	0.102724	-0.165188	2.8	-9.59	-1.26	0.4496	0.0053	-0.2227	
-1.017236	0.099918	-0.173118	0.84	-8.33	0.35	0.4496	0.0053	-0.2212	
-1.004548	0.096868	-0.152744	-2.59	-14.42	1.12	0.4411	0.0009	-0.2274	
-1.005646	0.101138	-0.152134	-1.19	-13.86	0.21	0.4427	-0.0112	-0.2243	
-1.010892	0.099796	-0.146034	-1.82	-12.53	0.63	0.4411	-0.0035	-0.2196	
-1.010282	0.100528	-0.137738	-2.38	-17.15	0.91	0.4554	0.0037	-0.2275	
-1.01138	0.103822	-0.13298	-2.38	-19.18	0.42	0.4411	0.0054	-0.232	
-1.013332	0.10309	-0.12749	-2.31	-16.66	0.21	0.4455	-0.0022	-0.2368	
-1.014796	0.106384	-0.123464	-2.87	-18.48	0.56	0.444	0.0038	-0.2383	
-1.007354	0.10553	-0.109556	-3.78	-21.7	0.63	0.4369	0.0024	-0.2367	
-1.004304	0.107848	-0.10797	-4.06	-21.35	0.56	0.4484	-0.0022	-0.2337	
-1.00711	0.108702	-0.09942999	-4.9	-20.65	0.56	0.4455	0.0038	-0.243	
-1.007842	0.10858	-0.089914	-4.62	-21.28	0.28	0.4327	0.0024	-0.2554	
-1.004182	0.105286	-0.082228	-3.99	-21.84	0.21	0.4441	0.0143	-0.257	
-1.004792	0.10492	-0.075274	-3.92	-21.56	0.14	0.4313	0.0009	-0.257	
-1.01504	0.10858	-0.063196	-3.15	-21.56	-0.49	0.4314	-0.0021	-0.257	
-1.0126	0.103456	-0.05612	-2.8	-23.03	-1.47	0.4342	0.0023	-0.2601	
-1.005768	0.09467199	-0.044286	-2.24	-24.57	-2.24	0.43	-0.0006	-0.2663	
-1.002718	0.087108	-0.03477	-1.26	-22.75	-2.87	0.4343	-0.0007	-0.2695	
-1.004792	0.087352	-0.028792	-0.56	-21.28	-3.08	0.4256	0.0114	-0.2772	
-1.015894	0.09162199	-0.0183	-0.49	-19.32	-2.31	0.4258	0.0023	-0.2819	
-1.016626	0.098088	-0.01159	-0.77	-19.18	-1.47	0.4329	-0.0007	-0.2757	
-1.01931	0.102968	-0.009272	-1.33	-18.97	-1.33	0.4244	0.0008	-0.2881	
-1.010038	0.104066	-0.001586	-2.24	-18.69	-1.47	0.4258	-0.0036	-0.2835	
-1.011868	0.101138	0.001952	-2.8	-18.27	-1.75	0.4244	0.0038	-0.2897	
-1.01321	0.099796	0.014884	-2.8	-18.55	-2.03	0.4172	0.0039	-0.2896	
-1.013942	0.101992	0.023302	-2.45	-17.22	-0.98	0.4243	0.0144	-0.2928	
-1.00406	0.098088	0.029646	-2.73	-15.82	-0.42	0.4201	0.0114	-0.3037	
-1.001986	0.093818	0.034404	-1.68	-14	-1.26	0.4187	0.0099	-0.3068	
-1.00467	0.093208	0.035746	-0.63	-15.4	-2.38	0.4129	0.0115	-0.3005	
-1.001254	0.084546	0.037576	-0.28	-17.15	-3.01	0.4144	0.0084	-0.3021	
-1.012234	0.083326	0.045018	0.14	-15.54	-3.5	0.413	0.0114	-0.3067	
-1.022604	0.08418	0.05551	0.07	-16.31	-3.43	0.4001	0.008599999	-0.3082	
-1.024556	0.08295999	0.04514	-0.56	-16.31	-2.73	0.4087	0.0084	-0.3114	
-1.018212	0.080276	0.059292	-1.61	-16.8	-1.82	0.4059	0.0055	-0.3114	
-1.00528	0.085278	0.06344	-2.59	-16.03	-0.35	0.4088	0.0054	-0.3208	
-0.998936	0.084302	0.067466	-2.66	-15.47	0.14	0.4058	0.0176	-0.316	
-1.00528	0.082594	0.077592	-3.01	-14.91	0.49	0.4104	0.0008	-0.327	
-1.002718	0.080154	0.084424	-3.29	-15.19	0.7	0.3974	0.007	-0.3254	
-1.007354	0.086986	0.087718	-3.99	-15.4	1.33	0.3989	0.0009	-0.3285	
-1.010892	0.088206	0.103944	-4.2	-15.47	2.45	0.4016	0.013	-0.3207	
-0.99857	0.093452	0.097966	-4.55	-22.82	3.08	0.3987	0.0101	-0.3144	
-0.993202	0.098942	0.11773	-5.11	-22.47	3.5	0.3973	0.0191	-0.3315	
-0.98454	0.100162	0.121146	-4.34	-21.14	2.73	0.3945	0.01	-0.33	
-0.98393	0.091134	0.137616	-3.99	-20.09	1.82	0.3903	0.0115	-0.344	
-0.97844	0.088572	0.138592	-3.01	-19.81	0.56	0.386	0.0101	-0.3377	
-0.978806	0.079544	0.148474	-2.66	-21.35	0.28	0.386	0.008599999	-0.3346	
-0.978562	0.082106	0.149816	-2.45	-20.09	0.77	0.3975	0.0115	-0.3472	
-0.975268	0.08906	0.159332	-1.96	-17.36	0.98	0.3831	0.0132	-0.3362	
-0.989664	0.098942	0.175924	-2.52	-15.26	0.77	0.3833	0.004	-0.3471	
-0.99796	0.098332	0.17263	-2.24	-13.65	0.42	0.3861	0.0131	-0.358	
-0.988688	0.08967	0.16958	-2.52	-13.65	0	0.3832	0.0131	-0.3533	
-0.988688	0.08479	0.176412	-2.66	-13.16	0.21	0.3862	0.01	-0.358	
-0.994178	0.085644	0.175802	-1.82	-11.69	1.12	0.3648	0.0027	-0.3626	
-0.9821	0.084546	0.17873	-1.89	-9.31	1.82	0.3762	0.0056	-0.3564	
-0.981734	0.088328	0.179828	-1.82	-8.54	1.75	0.3705	0.0071	-0.3673	
-0.998814	0.10492	0.179706	-1.61	-11.69	1.12	0.3848	0.0085	-0.3596	
-1.006378	0.100284	0.179706	-1.54	-17.29	0.98	0.3704	0.0087	-0.3548	
-0.99064	0.093818	0.19154	-2.31	-18.06	0.42	0.3705	0.0087	-0.3673	
-0.97234	0.084424	0.205936	-1.96	-17.01	-0.35	0.3705	0.0056	-0.3657	
-0.976122	0.084302	0.207888	-2.1	-15.4	-0.49	0.3691	0.0101	-0.3798	
-0.984784	0.08686399	0.207034	-2.66	-15.19	1.05	0.3634	0.0027	-0.3704	
-0.975878	0.090036	0.223992	-3.78	-17.85	3.57	0.3649	0.0057	-0.3719	
-0.960262	0.09942999	0.235948	-4.2	-17.08	5.11	0.3676	0.0238	-0.3797	
-0.968192	0.103822	0.243634	-3.99	-15.47	4.83	0.3621	0.0011	-0.3782	
-0.978074	0.092354	0.249612	-3.43	-15.68	2.66	0.3648	0.0163	-0.375	
-0.96563	0.07991	0.239242	-3.08	-15.82	0.56	0.3577	0.0102	-0.3844	
-0.966362	0.076616	0.245952	-1.68	-14.14	-0.56	0.3679	0.0025	-0.3876	
-0.96441	0.081984	0.244854	-1.47	-13.37	0.7	0.3677	0.0102	-0.3735	
-0.954162	0.09162199	0.260348	-1.33	-12.88	2.38	0.3564	0.0087	-0.3937	
-0.953918	0.100528	0.269132	-1.33	-11.97	3.15	0.3578	0.0162	-0.3984	
-0.96075	0.10553	0.274988	-0.56	-11.27	2.59	0.3591	0.0163	-0.389	
-0.953796	0.104066	0.281576	-0.63	-11.48	1.82	0.3479	0.0057	-0.3999	
-0.951966	0.09942999	0.284504	0.21	-9.31	0.49	0.3477	0.0119	-0.3858	
-0.945134	0.095892	0.28548	-0.28	-9.73	-0.07	0.3478	0.0073	-0.3905	
-0.936106	0.099918	0.294996	-0.35	-9.1	-0.07	0.3506	0.0148	-0.3952	
-0.939522	0.10614	0.293654	-0.91	-7	0.63	0.3406	0.0104	-0.3952	
-0.93391	0.104798	0.302804	-1.05	-6.3	0.84	0.3393	0.0059	-0.3983	
-0.94672	0.101626	0.295728	-0.28	-5.04	0.63	0.3464	0.0073	-0.3968	
-0.950502	0.101992	0.296826	-0.35	-4.83	0.35	0.3507	0.0148	-0.403	
-0.941596	0.102846	0.301218	-0.21	-4.48	0.07	0.3436	0.0073	-0.4046	
-0.939522	0.105408	0.305732	-0.42	-2.87	-0.07	0.3408	0.0013	-0.3968	
-0.945866	0.101748	0.294996	0.07	-2.03	-0.21	0.3422	0.0028	-0.4046	
-0.951966	0.096502	0.29707	-0.28	-1.82	0	0.3466	0.0027	-0.4108	
-0.951112	0.097112	0.296094	-0.14	-1.54	0.21	0.348	-0.0063	-0.3968	
-0.942816	0.097844	0.30073	0.21	-0.91	0.07	0.3478	0.0118	-0.3952	
-0.942938	0.095648	0.301828	-0.07	0	-0.07	0.3464	0.0103	-0.403	
-0.950136	0.098088	0.297558	-0.14	0.84	-0.35	0.3421	0.0164	-0.4045	
-0.95404	0.096868	0.297192	0	0.98	0.28	0.3392	0.0119	-0.3967	
-0.94001	0.093208	0.30073	-0.14	0.91	0.98	0.3408	0.0043	-0.4061	
-0.937204	0.096868	0.301096	0.56	2.73	0.49	0.3393	0.0043	-0.3983	
-0.943792	0.09638	0.299022	0.63	3.85	0.35	0.3437	0.0027	-0.4077	
-0.944768	0.099308	0.301096	-0.21	4.62	0.84	0.345	0.0073	-0.3936	
-0.941474	0.10248	0.300242	-0.7	5.6	1.33	0.3392	0.0119	-0.3951	
-0.934154	0.096502	0.30012	-0.91	7.84	1.75	0.3506	0.0148	-0.3983	
-0.928908	0.09882	0.296704	-1.54	8.75	1.54	0.3451	-0.0017	-0.4062	
-0.937326	0.106384	0.28975	-1.12	9.87	1.47	0.355	0.0027	-0.3922	
-0.953674	0.104798	0.282918	-0.7	10.92	1.33	0.3463	0.0119	-0.3874	
-0.960994	0.104554	0.279136	-0.56	10.5	1.96	0.3407	0.0044	-0.3874	
-0.96624	0.11163	0.270596	0.49	11.48	2.31	0.3437	-0.0002	-0.3999	
-0.96868	0.119194	0.269376	0.84	12.18	2.1	0.3607	-0.0003	-0.3891	
-0.961726	0.117608	0.262056	0.56	12.46	0.77	0.352	0.0148	-0.3921	
-0.951356	0.10065	0.255834	0.77	12.25	-1.68	0.3448	0.0119	-0.3827	
-0.953552	0.097356	0.252662	1.47	12.95	-1.96	0.3449	0.0043	-0.3812	
-0.953796	0.10187	0.249002	1.47	14.98	-0.7	0.3535	-0.0017	-0.3781	
-0.965508	0.099796	0.242536	1.33	15.89	0.35	0.3579	0.0011	-0.3875	
-0.962946	0.101748	0.242536	1.47	15.61	0.63	0.3563	0.0088	-0.3812	
-0.966606	0.100406	0.236314	1.68	17.01	0.56	0.3693	0.0009999999	-0.3814	
-0.970266	0.102968	0.231068	1.82	18.41	0.21	0.3691	0.0071	-0.372	
-0.966362	0.10126	0.221552	1.61	19.11	0.07	0.382	-0.0005	-0.3627	
-0.964288	0.102846	0.2135	1.82	20.58	0.35	0.3635	0.0011	-0.3735	
-0.96624	0.103822	0.205448	2.24	21.35	0.49	0.3677	-0.0018	-0.3595	
-0.97844	0.10126	0.195444	2.03	21.98	0.63	0.3633	0.0057	-0.3594	
-0.975878	0.103822	0.189588	2.1	22.82	0.56	0.3748	0.0071	-0.358	
-0.981734	0.10248	0.181414	2.17	23.38	0.7	0.3835	0.0039	-0.3721	
-0.978806	0.105408	0.176412	2.31	24.57	0.7	0.379	0.0161	-0.3642	
-0.976976	0.103334	0.162382	2.38	24.85	0.63	0.3934	0.0039	-0.3628	
-0.97173	0.102968	0.154818	4.06	24.99	-1.4	0.3845	0.0177	-0.3408	
-0.980758	0.107482	0.154574	3.29	25.55	0	0.3847	0.0071	-0.3487	
-0.977098	0.107848	0.142618	3.71	23.38	0.14	0.3889	0.0085	-0.3425	
-0.976976	0.106994	0.131638	3.5	23.45	0.42	0.3846	0.008599999	-0.3409	
-0.986248	0.111386	0.120292	3.92	24.64	0.28	0.4017	0.0069	-0.3316	
-1.001742	0.112728	0.109068	4.76	26.53	-0.42	0.4075	0.0023	-0.3317	
-0.996984	0.113094	0.098088	5.11	26.46	-1.33	0.4032	0.0099	-0.3332	
-0.995032	0.113826	0.09089	5.25	25.97	-2.17	0.4003	0.0024	-0.327	
-0.99857	0.115534	0.0793	6.09	26.88	-2.8	0.3961	0.0009999999	-0.3269	
-1.008818	0.113948	0.064416	5.46	27.02	-2.1	0.4018	-0.0095	-0.3099	
-1.01138	0.116144	0.054534	4.69	26.25	-1.19	0.4076	-0.0112	-0.3193	
-1.017114	0.116998	0.044042	4.34	25.69	-0.77	0.4088	-0.0051	-0.3052	
-1.02175	0.119194	0.033184	4.13	25.2	-0.28	0.4017	0.0009999999	-0.3083	
-1.026996	0.116388	0.02074	4.48	24.01	0.07	0.4087	0.0009	-0.3005	
-1.03334	0.117608	0.031476	4.06	20.51	0.42	0.4131	-0.0051	-0.299	
-1.039318	0.113338	-0.000732	5.53	21	1.4	0.4216	0.0008	-0.2959	
-1.025898	0.10797	0.002562	4.48	18.83	2.66	0.4245	-0.0037	-0.2944	
-1.026508	0.105408	-0.001342	4.41	19.11	2.94	0.4187	0.0054	-0.2959	
-1.026874	0.114558	0.007808	4.97	22.47	1.05	0.4201	-0.0021	-0.2881	
-1.00467	0.1159	0.008905999	4.34	21.07	-0.84	0.4242	0.0024	-0.2663	
-0.979538	0.10492	-0.007686	3.43	19.74	-1.12	0.4257	0.0054	-0.2756	
-0.972096	0.09357399	-0.016958	3.29	19.81	0	0.4244	-0.0006	-0.2819	
-0.98454	0.093208	-0.012688	2.38	23.66	1.61	0.4243	-0.0005	-0.2663	
-0.995032	0.099796	-0.010004	2.24	24.43	1.96	0.4342	0.0053	-0.2695	
-1.012234	0.10614	-0.024766	2.45	21.91	1.4	0.4214	0.0009	-0.2694	
-1.025898	0.112972	-0.04148	3.01	21.14	1.54	0.4385	-0.0006	-0.257	
-1.02114	0.122854	-0.05734	2.45	19.25	1.54	0.4385	-0.0036	-0.2477	
-1.013576	0.121756	-0.080032	1.33	19.04	2.31	0.4472	-0.0083	-0.2603	
-1.007354	0.120536	-0.098698	0.7	20.3	3.08	0.4372	-0.0052	-0.2664	
-1.012112	0.120048	-0.111386	-1.26	21	3.71	0.427	-0.0035	-0.2492	
-1.050054	0.130906	-0.133834	-1.54	20.02	3.92	0.4443	-0.0128	-0.2493	
-1.072868	0.150792	-0.133956	-2.03	13.3	2.73	0.4399	-0.0067	-0.243	
-1.056398	0.158966	-0.130418	-2.1	5.81	0.84	0.4327	-0.0005	-0.2445	
-1.035292	0.14823	-0.129442	-1.75	0.07	-0.7	0.4371	-0.0096	-0.2399	
-1.002596	0.115778	-0.112362	-1.68	-1.05	-0.21	0.4413	-0.0082	-0.2399	
-0.986492	0.112606	-0.11102	-0.84	3.78	0.7	0.4369	0.0024	-0.2336	
-0.993324	0.122366	-0.111996	1.89	11.06	0.07	0.4413	-0.0021	-0.243	
-1.01931	0.12627	-0.1159	4.62	14.7	-1.61	0.4456	-0.0082	-0.2337	
-1.02236	0.121146	-0.120902	5.39	12.25	-3.08	0.4442	-0.009699999	-0.2431	
-1.012234	0.118218	-0.116998	4.55	10.71	-3.57	0.4456	-0.0112	-0.2368	
-0.992104	0.111874	-0.096502	2.73	9.8	-3.15	0.4485	-0.0067	-0.2384	
-0.987468	0.11834	-0.107482	3.5	11.41	-3.08	0.4455	-0.0036	-0.2259	
-0.981978	0.111752	-0.10248	3.43	11.9	-2.66	0.4412	-0.0021	-0.2383	
-0.985516	0.116022	-0.107238	3.36	12.32	-2.1	0.4397	-0.0005	-0.2211	
-0.998082	0.113826	-0.112728	2.66	11.55	-1.75	0.4484	-0.0052	-0.2337	
-1.00101	0.10797	-0.121146	2.94	11.13	-2.24	0.4482	0.0054	-0.2181	
-0.99735	0.108336	-0.13054	3.71	9.17	-2.8	0.4598	0.0006	-0.2353	
-0.98881	0.106018	-0.131028	4.2	8.54	-3.08	0.4397	-0.002	-0.2196	
-0.98271	0.100406	-0.129564	4.62	9.17	-3.08	0.4456	-0.0157	-0.2197	
-0.995398	0.099552	-0.149572	5.18	12.6	-2.66	0.4454	-0.0021	-0.2243	
-1.037488	0.117608	-0.143228	5.18	15.05	-3.5	0.4382	-0.0005	-0.218	
-1.029924	0.10309	-0.168726	6.02	11.69	-6.02	0.4469	-0.0021	-0.2212	
-1.017846	0.110288	-0.187148	4.13	5.25	-4.97	0.4511	-0.0006	-0.215	
-1.01199	0.101504	-0.200202	4.48	9.03	-3.64	0.457	-0.0083	-0.226	
-1.025166	0.110532	-0.19337	3.64	10.29	-2.94	0.4454	-0.0005	-0.2165	
-1.021384	0.1159	-0.19764	3.43	5.39	-2.45	0.4469	-0.0111	-0.2088	
-1.032242	0.1159	-0.215452	2.66	4.27	-1.05	0.4525	-0.0006	-0.2119	
-1.053836	0.099796	-0.22143	-1.19	6.65	0.84	0.451	0.0039	-0.2087	
-1.036512	0.087962	-0.194468	-3.01	8.19	3.92	0.4438	0.0055	-0.2055	
-1.000644	0.09857599	-0.22082	-4.2	7.28	4.55	0.451	-0.0006	-0.2025	
-1.000156	0.110532	-0.202032	-4.2	6.72	4.34	0.4539	-0.0021	-0.2025	
-0.99247	0.105408	-0.196176	-2.59	6.86	3.71	0.4595	0.0038	-0.2041	
-1.014308	0.103822	-0.188612	-4.27	5.04	3.64	0.4523	0.0069	-0.1993	
-1.009672	0.102846	-0.185074	-4.06	4.9	4.48	0.4523	0.0069	-0.1993	
-0.976854	0.107848	-0.182024	-5.95	4.76	4.69	0.4497	-0.0126	-0.201	
-0.974902	0.118096	-0.17446	-4.2	6.09	3.99	0.461	0.0023	-0.1994	
-0.98637	0.125172	-0.186294	-3.64	5.95	2.73	0.4568	-0.0067	-0.2026	
-0.98271	0.12383	-0.182512	-3.43	2.94	1.96	0.4525	-0.0127	-0.1994	
-0.98027	0.125904	-0.181048	-2.38	0.98	1.19	0.4554	-0.0082	-0.2041	
-0.97661	0.122	-0.18361	-1.19	0.14	0.63	0.451	-0.0096	-0.1932	
-0.977342	0.119682	-0.177632	-0.7	-1.12	0	0.4582	-0.009699999	-0.201	
-0.98149	0.117974	-0.180194	-0.56	-0.63	-0.49	0.4652	0.0053	-0.1979	
-0.987346	0.117364	-0.193858	0.14	0.56	-0.84	0.4496	-0.0051	-0.1978	
-0.983808	0.11224	-0.196054	1.4	1.54	-1.33	0.4581	-0.0036	-0.1948	
-0.98759	0.11041	-0.203862	3.01	2.38	-1.75	0.4539	-0.0051	-0.2025	
-0.98881	0.112728	-0.195932	3.01	0.42	-2.52	0.4611	-0.0037	-0.2041	
-0.99735	0.11651	-0.207034	4.13	1.19	-2.94	0.4554	-0.009699999	-0.1979	
-0.999912	0.117852	-0.21289	4.27	2.59	-2.73	0.4537	0.0009	-0.19	
-0.99857	0.115778	-0.205692	2.87	1.82	-2.45	0.4567	-0.0052	-0.1994	
-0.998082	0.111874	-0.205692	2.17	1.47	-2.03	0.4495	0.0024	-0.2009	
-0.992226	0.10736	-0.206912	1.82	0.7	-1.82	0.4554	-0.009699999	-0.1994	
-0.995642	0.106384	-0.204838	2.17	1.19	-2.1	0.4481	-0.005	-0.1963	
-0.993202	0.105774	-0.202886	2.52	0.63	-2.24	0.454	-0.0112	-0.201	
-0.992958	0.106506	-0.196786	2.38	-1.19	-2.38	0.4567	-0.0006	-0.1979	
-0.995032	0.101016	-0.201544	2.45	-0.35	-2.31	0.4509	0.0054	-0.1947	
-0.996008	0.102358	-0.201666	1.75	-0.98	-2.03	0.4581	-0.0036	-0.1948	
-0.994544	0.103944	-0.198982	1.68	-2.1	-1.96	0.4481	0.0009	-0.2071	
-0.994788	0.104798	-0.2013	2.38	-1.96	-2.03	0.451	0.0009	-0.204	
-0.997228	0.100162	-0.20435	2.1	-1.4	-1.82	0.4552	-0.0005	-0.1869	
-0.998204	0.096014	-0.204838	1.26	-1.47	-1.4	0.451	-0.002	-0.1947	
-0.998204	0.100772	-0.202154	0.77	-1.96	-1.12	0.4538	-0.0096	-0.1823	
-0.99735	0.105164	-0.200202	1.19	-1.61	-0.98	0.4566	0.0069	-0.1931	
-0.999912	0.104676	-0.203496	1.26	-1.26	-0.56	0.4595	-0.0006	-0.1948	
-1.00284	0.104798	-0.204594	0.35	-1.61	-0.07	0.4566	0.0024	-0.19	
-0.999668	0.107116	-0.206302	-0.28	-2.31	0.35	0.4553	-0.0021	-0.2025	
-0.99979	0.105164	-0.205448	-0.14	-2.87	0.56	0.4494	0.0085	-0.1946	
-1.001986	0.102236	-0.20801	-0.28	-2.38	0.56	0.4553	-0.0051	-0.1994	
-0.996862	0.098698	-0.198738	-0.42	-2.66	0.63	0.4524	-0.0021	-0.1963	
-0.994422	0.10309	-0.18117	-0.14	-2.94	0.63	0.4539	-0.0021	-0.2025	
-0.989298	0.10736	-0.183	0.21	-2.59	0.63	0.4596	-0.0067	-0.1979	
-0.991372	0.108458	-0.185196	-0.42	-2.73	0.63	0.4568	-0.0022	-0.2057	
-0.999424	0.108824	-0.188734	-1.26	-3.22	0.42	0.4567	0.0038	-0.201	
-0.994666	0.106506	-0.189588	-1.26	-2.73	0.21	0.4555	-0.0082	-0.2151	
-1.0065	0.107604	-0.190808	-0.84	-3.29	-0.07	0.4567	0.0008	-0.2088	
-1.005158	0.101748	-0.197518	-0.77	-4.76	-0.35	0.4511	-0.0051	-0.2041	
-1.0004	0.101504	-0.190686	-1.05	-5.88	-0.21	0.4454	-0.0051	-0.2134	
-1.002962	0.102602	-0.187514	-0.84	-5.6	-0.42	0.4454	-0.0081	-0.2072	
-1.002718	0.101626	-0.188246	-0.14	-5.46	-0.56	0.4438	0.004	-0.204	
-1.008818	0.102602	-0.187392	-0.14	-6.44	-0.56	0.4467	-0.0005	-0.2056	
-1.019554	0.10248	-0.195566	-1.12	-7.28	-0.28	0.4482	-0.0005	-0.2056	
-1.012356	0.10309	-0.184586	-2.03	-7.49	0.07	0.4569	-0.0082	-0.2135	
-1.003572	0.105652	-0.171532	-2.1	-8.47	0.14	0.4525	-0.0006	-0.215	
-0.995642	0.107848	-0.172142	-1.54	-9.45	0.14	0.4538	0.0084	-0.2118	
-0.997106	0.109434	-0.169946	-2.1	-9.52	0.14	0.4512	-0.0022	-0.2228	
-0.998082	0.108336	-0.159332	-2.17	-8.96	-0.21	0.4467	0.0054	-0.2118	
-1.003938	0.10919	-0.155184	-2.45	-9.59	-0.28	0.4383	-0.005	-0.2227	
-1.0126	0.108092	-0.160308	-2.87	-12.04	-0.21	0.451	0.0039	-0.2072	
-1.014552	0.10614	-0.162626	-3.29	-14.56	-0.21	0.4439	0.0054	-0.218	
-1.005646	0.103944	-0.1525	-3.29	-16.03	-0.35	0.4483	-0.0006	-0.2259	
-1.005524	0.104188	-0.145302	-3.71	-16.24	-0.14	0.4383	-0.002	-0.2227	
-1.015894	0.103822	-0.140788	-6.23	-14.14	0.84	0.4384	-0.0111	-0.2259	
-1.01748	0.10919	-0.139568	-4.76	-14.84	0.35	0.4411	0.0069	-0.2305	
-1.016992	0.106262	-0.133102	-4.06	-17.29	0.07	0.4411	0.0039	-0.2321	
-1.002718	0.10675	-0.108458	-4.48	-19.95	0.07	0.4412	0.0009	-0.2305	
-1.000888	0.109556	-0.106018	-3.78	-19.46	-0.07	0.4427	0.0008	-0.243	
-1.003938	0.106872	-0.102846	-3.29	-17.36	-0.21	0.4369	-0.0005	-0.2367	
-1.005768	0.105408	-0.099674	-3.36	-17.64	-0.49	0.4441	0.0023	-0.2446	
-1.006134	0.102724	-0.085888	-3.78	-18.97	-0.42	0.4355	0.0054	-0.2507	
-1.008574	0.09942999	-0.087718	-4.27	-19.95	0.21	0.4427	0.0068	-0.2539	
-1.007842	0.099552	-0.08113	-4.83	-21.07	0.98	0.4369	0.0114	-0.2538	
-1.011502	0.104798	-0.071614	-4.69	-22.26	1.54	0.4371	-0.0006	-0.2586	
-1.017358	0.109068	-0.062952	-4.41	-21	1.54	0.427	0.0085	-0.26	
-1.016382	0.114192	-0.05795	-3.78	-18.48	0.91	0.4328	0.0008	-0.2679	
-1.013942	0.11468	-0.051362	-3.5	-17.99	0.35	0.4314	0.0053	-0.2679	
-1.011136	0.111386	-0.035746	-3.22	-18.83	-0.77	0.4299	0.0084	-0.2678	
-1.011746	0.11224	-0.030256	-1.47	-18.83	-2.31	0.4257	0.0009	-0.2694	
-1.02053	0.116632	-0.032208	-1.68	-18.69	-2.45	0.4243	0.0009	-0.2725	
-1.00528	0.105652	-0.013908	-0.56	-20.86	-2.8	0.4315	0.0023	-0.2804	
-1.008818	0.107482	-0.011346	0.21	-20.72	-2.73	0.4243	0.0054	-0.2787	
-1.021994	0.10248	-0.005368	-0.56	-19.74	-2.31	0.4301	0.0023	-0.285	
-1.015894	0.100162	0.001464	0.21	-21.28	-2.73	0.4215	0.0008	-0.2881	
-1.003084	0.09467199	0.012932	0.28	-18.69	-2.52	0.4187	0.0069	-0.3006	
-1.004548	0.096136	0.019886	1.47	-10.92	-2.73	0.4229	0.0053	-0.2912	
-1.01565	0.09516	0.013176	1.47	-9.31	-2.66	0.4229	0.0053	-0.2912	
-1.037	0.101504	0.022692	0.84	-11.06	-2.1	0.4143	0.0055	-0.2896	
-1.037976	0.093208	0.020862	0.07	-14.35	-1.68	0.4086	0.01	-0.2973	
-1.0065	0.08686399	0.024034	0.21	-16.59	-1.26	0.4201	0.0038	-0.299	
-0.980636	0.081252	0.047946	0	-15.33	-0.98	0.4045	-0.0005	-0.3083	
-0.986736	0.09028	0.047336	0.35	-9.17	-0.63	0.4101	0.0085	-0.3067	
-1.01626	0.10614	0.032696	0	-9.03	-0.91	0.4088	0.0039	-0.3145	
-1.05652	0.11468	0.034526	0.35	-10.15	-1.19	0.4072	0.01	-0.3051	
-1.050176	0.108702	0.054412	-0.7	-16.87	-0.98	0.4101	0.0085	-0.3005	
-1.019066	0.10126	0.045994	-1.05	-21.35	-1.12	0.4045	-0.002	-0.3052	
-0.993202	0.090158	0.061854	-1.82	-17.78	-0.21	0.406	-0.002	-0.313	
-0.98393	0.08686399	0.06527	-2.31	-13.16	0.84	0.3987	0.008599999	-0.3098	
-0.998814	0.096868	0.090402	-2.8	-14	1.68	0.4017	0.007	-0.3207	
-1.023336	0.102846	0.083204	-3.43	-24.01	2.8	0.4016	0.013	-0.3207	
-1.026508	0.103212	0.09028	-4.27	-24.92	3.92	0.3988	0.0116	-0.3207	
-1.00772	0.097112	0.10248	-5.53	-22.96	4.2	0.4003	0.0055	-0.3254	
-0.99186	0.09747799	0.115778	-5.04	-23.31	3.08	0.3989	0.0085	-0.3332	
-0.982344	0.093818	0.115778	-5.39	-23.59	3.01	0.4032	0.0039	-0.3363	
-0.98576	0.098942	0.122488	-6.02	-24.71	3.15	0.3888	0.008599999	-0.3268	
-0.99796	0.107116	0.12993	-6.51	-25.69	3.85	0.3847	-0.0004	-0.3393	
-1.01138	0.116022	0.137738	-6.65	-24.99	3.99	0.3933	0.0069	-0.3519	
-1.002474	0.112362	0.157624	-6.02	-23.87	2.59	0.3861	0.008599999	-0.3471	
-0.984296	0.104066	0.163602	-4.13	-22.12	0.28	0.3846	0.0131	-0.344	
-0.971486	0.097966	0.167628	-3.08	-20.23	-1.12	0.3918	0.0055	-0.3441	
-0.98149	0.09638	0.16775	-1.89	-19.04	-1.33	0.3761	0.0102	-0.3486	
-0.977464	0.098454	0.18056	-2.03	-17.15	-0.42	0.3849	-0.0005	-0.3643	
-0.985028	0.10553	0.182512	-1.75	-15.54	-0.63	0.3733	0.0177	-0.3657	
-0.985882	0.111752	0.198006	-1.54	-15.61	-0.84	0.3706	-0.0018	-0.3642	
-0.97478	0.105286	0.20069	-1.61	-19.53	-1.54	0.3762	0.0131	-0.3658	
-0.953064	0.092232	0.22082	-2.94	-20.37	-1.12	0.3661	0.0133	-0.3626	
-0.951966	0.090402	0.226432	-3.01	-19.18	-0.14	0.3676	0.0072	-0.3626	
-0.965874	0.092964	0.235582	-3.08	-17.29	0.98	0.3748	0.0101	-0.3689	
-0.975634	0.09857599	0.240218	-2.45	-17.5	1.61	0.3563	0.0057	-0.3797	
-0.96441	0.093818	0.252784	-2.8	-17.36	2.1	0.3706	0.0041	-0.3704	
-0.948794	0.085156	0.25315	-1.96	-16.31	1.33	0.3705	0.0041	-0.3642	
-0.929518	0.077714	0.259738	-1.61	-14.28	0.28	0.3678	0.0041	-0.3813	
-0.93757	0.085522	0.25498	-1.12	-10.57	-0.07	0.3563	0.0088	-0.3781	
-0.953186	0.101016	0.255102	-0.21	-8.82	0.63	0.3548	0.0178	-0.3921	
-0.980758	0.111386	0.257908	-0.91	-8.89	1.47	0.3521	0.0057	-0.3921	
-0.975024	0.111386	0.270474	-0.7	-10.64	1.47	0.3519	0.0073	-0.3703	
-0.952942	0.10553	0.265716	-0.7	-10.99	0.07	0.3563	0.0133	-0.3859	
-0.951966	0.101504	0.26108	-1.05	-8.61	-0.21	0.3577	0.0133	-0.3875	
-0.976	0.097234	0.249368	-1.12	-7.28	0.91	0.3505	0.0149	-0.378	
-0.966606	0.102846	0.26108	-1.82	-10.29	2.66	0.3506	0.0133	-0.3874	
-0.9638	0.105042	0.27389	-2.52	-9.24	2.87	0.3433	0.0165	-0.3811	
-0.965752	0.106384	0.27694	-2.45	-7.77	2.66	0.3449	0.0119	-0.3889	
-0.956968	0.102358	0.280112	-3.43	-8.75	2.24	0.3536	0.0102	-0.4031	
-0.955138	0.103944	0.277916	-2.66	-7.98	1.26	0.355	0.0087	-0.3937	
-0.95526	0.100406	0.27328	-2.66	-7.35	0.77	0.3421	0.0089	-0.3905	
-0.955382	0.10492	0.280844	-2.1	-7.49	0	0.3493	0.0027	-0.3906	
-0.946476	0.106872	0.29524	-2.66	-6.37	0.49	0.3536	0.0042	-0.3937	
-0.953186	0.10736	0.298168	-2.87	-5.88	0.84	0.3464	0.0088	-0.3936	
-0.93818	0.101382	0.308172	-2.17	-5.46	0.63	0.3464	0.0103	-0.403	
-0.935862	0.098698	0.307196	-1.68	-4.97	0.07	0.3463	0.0164	-0.3905	
-0.948428	0.109434	0.30256	-0.98	-4.76	-0.63	0.3422	0.0013	-0.403	
-0.944524	0.108458	0.309026	-0.56	-4.41	-0.77	0.3421	0.0119	-0.3998	
-0.94428	0.105652	0.30744	-0.63	-3.99	-0.7	0.3279	0	-0.4029	
-0.951356	0.105896	0.299144	-0.7	-2.31	-1.12	0.3378	0.0119	-0.3982	
-0.94977	0.10492	0.299144	-0.56	-2.8	-1.4	0.3506	0.0194	-0.3983	
-0.945378	0.104554	0.303292	-0.7	-2.38	-0.98	0.3465	0.0042	-0.4062	
-0.94855	0.09942999	0.304634	-0.7	-0.77	-0.77	0.345	0.0103	-0.403	
-0.953552	0.096624	0.305	-0.63	-0.21	-0.56	0.3379	0.0043	-0.4076	
-0.956724	0.096624	0.30683	0.14	0.49	0	0.3435	0.0133	-0.4045	
-0.939278	0.09821	0.309148	0.28	0.91	0.77	0.3507	0.0087	-0.4046	
-0.927078	0.09455	0.311344	0.35	2.94	1.12	0.3349	0.015	-0.3966	
-0.929762	0.100894	0.305854	0.42	4.62	0.63	0.3421	0.0134	-0.3998	
-0.937814	0.093818	0.304634	0.14	5.67	0.35	0.3379	0.0104	-0.4092	
-0.939766	0.093208	0.305244	-0.21	6.44	0.35	0.3379	0.0043	-0.4014	
-0.94428	0.093696	0.307196	0.14	7.14	0.28	0.3364	0.0104	-0.4014	
-0.939278	0.092964	0.305854	0.35	9.03	1.12	0.3493	0.0118	-0.4077	
-0.934764	0.09857599	0.300608	0.21	9.38	1.82	0.3479	0.0133	-0.4077	
-0.934642	0.102724	0.296338	1.4	9.94	1.33	0.3422	0.0073	-0.4014	
-0.942694	0.107116	0.28792	1.61	11.34	1.19	0.3435	0.0164	-0.403	
-0.954162	0.107116	0.282918	1.47	11.41	1.82	0.3492	0.0149	-0.3921	
-0.959652	0.109678	0.276818	1.19	12.46	1.96	0.345	0.0088	-0.3999	
-0.961726	0.11224	0.268888	1.68	13.23	1.68	0.3421	0.0074	-0.3889	
-0.955992	0.112606	0.26779	1.47	13.3	1.82	0.3506	0.0118	-0.3921	
-0.959164	0.112972	0.259128	1.82	12.95	1.19	0.3564	-0.0017	-0.3797	
-0.957212	0.10675	0.251808	1.82	12.81	1.19	0.3592	0.0011	-0.3813	
-0.961604	0.106994	0.249002	2.03	13.44	0.63	0.3563	0.0133	-0.3875	
-0.96929	0.108092	0.247904	2.52	14.21	0	0.3721	0.0055	-0.3798	
-0.972706	0.106506	0.243024	2.73	15.54	-0.35	0.362	0.0102	-0.3781	
-0.97234	0.105286	0.235582	2.52	15.96	-0.42	0.3636	-0.0003	-0.3829	
-0.9638	0.11224	0.231678	2.87	16.38	-0.21	0.3562	0.0103	-0.3765	
-0.955748	0.112972	0.228506	3.29	16.73	0.07	0.3663	0.0026	-0.3735	
-0.955382	0.11224	0.225212	3.36	18.34	0.21	0.3735	0.0041	-0.372	
-0.956724	0.109068	0.220698	3.36	19.32	-0.28	0.3635	-0.0018	-0.372	
-0.961726	0.11163	0.20923	3.64	20.3	-0.98	0.3734	0.008599999	-0.3673	
-0.97417	0.114924	0.20435	3.36	21.7	-1.19	0.382	0.0025	-0.3674	
-0.979172	0.116266	0.19459	3.29	23.03	-1.12	0.3748	0.0071	-0.3595	
-0.977586	0.11468	0.182512	3.36	22.47	-0.91	0.3777	0.0071	-0.3674	
-0.980148	0.110776	0.172386	3.36	22.96	-0.63	0.3705	0.0026	-0.3611	
-0.98088	0.109556	0.159576	3.5	24.22	-0.77	0.3762	0.0056	-0.3549	
-0.986004	0.109678	0.153232	3.71	24.43	-1.26	0.3847	0.007	-0.3518	
-0.983808	0.104432	0.136152	5.25	25.62	-3.5	0.3848	0.0025	-0.3503	
-0.987956	0.10675	0.137616	3.92	26.53	-2.17	0.3932	0.0055	-0.3409	
-0.986004	0.107726	0.123952	4.83	27.37	-2.38	0.3846	0.008599999	-0.3331	
-0.995642	0.107604	0.118706	4.69	26.11	-2.31	0.3904	0.004	-0.3347	
-0.997106	0.106994	0.10858	4.76	24.57	-2.24	0.3975	0.0055	-0.3332	
-0.994178	0.107848	0.09699	4.55	24.01	-2.1	0.3959	0.0161	-0.3222	
-0.990152	0.107116	0.095892	4.06	24.99	-1.4	0.3931	0.0071	-0.3238	
-0.996618	0.106872	0.082472	3.78	25.13	-1.05	0.4045	0.0054	-0.3192	
-0.996496	0.107848	0.076128	3.85	24.64	-1.19	0.403	0.0115	-0.3176	
-0.989054	0.107726	0.070394	3.29	25.69	-1.26	0.4103	0.0024	-0.3146	
-1.000522	0.107604	0.059536	3.78	26.67	-1.26	0.4058	0.0145	-0.3098	
-0.995154	0.104798	0.057584	3.64	27.44	-0.98	0.4131	0.0054	-0.313	
-1.005036	0.10553	0.0366	4.2	28.21	-0.77	0.4129	0.0085	-0.2943	
-1.010282	0.11041	0.031964	4.55	27.51	-0.35	0.4087	0.01	-0.3051	
-1.006134	0.109678	0.016836	4.48	27.86	-0.42	0.42	0.0129	-0.2958	
-1.006744	0.11346	0.003416	5.74	27.16	-0.98	0.4157	0.0085	-0.2849	
-1.008696	0.110166	-0.00488	4.76	26.74	-0.7	0.4271	0.0084	-0.2756	
-1.016504	0.108702	-0.019886	5.39	27.3	-0.42	0.4217	-0.0082	-0.2913	
-1.022238	0.111508	-0.024644	5.67	28.07	-0.07	0.4314	0.0038	-0.2772	
-1.018456	0.117608	-0.030622	6.16	26.25	-0.35	0.4428	-0.0007	-0.2602	
-1.020774	0.121268	-0.041236	7.14	25.69	-0.63	0.43	-0.0051	-0.2632	
-1.02114	0.116998	-0.052704	6.58	24.01	-1.05	0.4386	-0.0037	-0.2664	
-1.029192	0.106018	-0.069784	5.74	23.1	-1.26	0.4272	-0.0051	-0.2632	
-1.03273	0.10004	-0.074298	4.2	21.28	-1.54	0.4299	0.0039	-0.2569	
-1.034316	0.10004	-0.085644	3.36	19.81	-1.05	0.4355	0.0114	-0.2538	
-1.029436	0.09942999	-0.100894	2.52	19.81	0.63	0.4326	0.0129	-0.26	
-1.026264	0.104066	-0.106506	1.82	19.18	1.68	0.4456	-0.0007	-0.2462	
-1.020042	0.108824	-0.115168	1.4	17.36	1.96	0.4442	0.0022	-0.2524	
-1.016016	0.106018	-0.118096	1.19	16.31	1.89	0.4441	0.0007	-0.2477	
-1.016504	0.103944	-0.122244	2.24	16.24	1.12	0.4354	0.0084	-0.2414	
-1.027606	0.108824	-0.125294	2.66	14.35	0.21	0.4427	0.0023	-0.2446	
-1.042002	0.105164	-0.133834	3.43	13.44	0.28	0.4397	0.0024	-0.2336	
-1.036146	0.11224	-0.128954	3.57	12.04	-0.14	0.444	0.0068	-0.243	
-1.02541	0.124562	-0.135908	3.36	10.5	-0.7	0.4397	0.0009	-0.2305	
-1.004304	0.122244	-0.139812	3.43	10.36	-0.98	0.4426	0.0054	-0.2321	
-0.997472	0.108702	-0.14274	3.5	11.13	-0.35	0.4411	0.0054	-0.2242	
-1.006866	0.096502	-0.152134	3.08	11.34	0.56	0.4541	-0.0038	-0.2322	
-1.015406	0.106872	-0.156038	2.66	10.29	0.77	0.444	-0.0021	-0.229	
-1.047614	0.129198	-0.140788	3.64	10.71	-1.12	0.4455	-0.0051	-0.2212	
-1.032242	0.118096	-0.169092	4.41	7	-3.36	0.4483	-0.0036	-0.2228	
-1.001132	0.107726	-0.158844	2.87	5.18	-2.1	0.4541	-0.0053	-0.2291	
-1.001864	0.106628	-0.151402	3.22	11.9	-1.19	0.4526	-0.0007	-0.229	
-0.986126	0.108336	-0.139812	2.31	12.88	-0.77	0.4583	-0.0007	-0.2197	
-0.98637	0.110166	-0.133956	2.1	10.01	-0.98	0.4467	0.0069	-0.2165	
-0.975146	0.105408	-0.139568	2.66	8.26	-1.61	0.4511	-0.0006	-0.2134	
-0.984174	0.104188	-0.145058	2.66	10.01	-1.75	0.4483	-0.0082	-0.2166	
-0.990274	0.103822	-0.15921	2.1	9.8	-2.17	0.4454	-0.0111	-0.2087	
-0.995398	0.09857599	-0.174216	1.26	8.47	-2.31	0.4567	0.0053	-0.215	
-0.998448	0.10248	-0.175924	0.28	5.95	-1.96	0.4525	-0.0021	-0.2056	
-1.00711	0.104432	-0.187392	0.07	5.32	-2.1	0.4467	0.0009	-0.2009	
-1.022238	0.105042	-0.206546	-1.12	6.09	-1.47	0.4609	0.0098	-0.2025	
-1.019188	0.099308	-0.207888	-0.84	6.16	-0.91	0.451	0.0039	-0.2087	
-1.00894	0.09857599	-0.213134	0.07	4.97	-0.56	0.4539	-0.0021	-0.2072	
-1.013332	0.103212	-0.206912	0.63	4.55	-0.56	0.4538	0.0069	-0.2087	
-1.000034	0.099064	-0.198738	0.21	2.17	-0.49	0.4496	-0.0021	-0.2041	
-1.00711	0.0976	-0.199836	0.98	4.62	-0.63	0.4554	-0.0067	-0.2072	
-0.992714	0.09552599	-0.196176	0.84	6.16	-0.7	0.4511	-0.0051	-0.2056	
-0.996496	0.095648	-0.184464	0.35	5.25	-0.7	0.4582	-0.0037	-0.201	
-0.99918	0.094428	-0.194346	0.28	4.83	-0.56	0.4553	0.0038	-0.2056	
-1.013942	0.092964	-0.197396	-0.07	5.11	-0.35	0.4496	-0.0051	-0.1994	
-0.99674	0.095892	-0.194956	0.49	3.01	-0.21	0.4524	0.0009	-0.1994	
-0.990884	0.097234	-0.189954	0.98	1.61	-0.07	0.4552	0.0068	-0.2072	
-0.985272	0.098454	-0.186782	0.56	0.77	0	0.4524	0.0024	-0.2025	
-0.986126	0.100162	-0.182634	0.49	2.45	-0.28	0.4609	0.0038	-0.1979	
-1.001864	0.104676	-0.198616	0.49	3.92	-0.28	0.4581	-0.0006	-0.201	
-1.00711	0.10126	-0.209596	0.21	3.57	-0.42	0.4581	-0.0006	-0.2026	
-0.996496	0.09747799	-0.211792	0.21	0.7	-0.28	0.4551	0.0084	-0.19	
-0.99308	0.09516	-0.19703	0.07	-0.07	-0.14	0.4524	-0.002	-0.1947	
-0.989786	0.096868	-0.194712	-0.21	1.05	-0.07	0.451	-0.0035	-0.1947	
-0.998326	0.09638	-0.202642	-0.42	2.03	-0.07	0.4566	0.0039	-0.1916	
-0.991372	0.09211	-0.19642	-1.05	3.5	0.14	0.4566	0.0099	-0.1978	
-0.990762	0.091378	-0.19764	-0.84	2.8	0.07	0.4594	0.0099	-0.1947	
-0.987346	0.098698	-0.200934	-0.49	1.75	-0.28	0.4453	-0.0005	-0.2056	
-0.985882	0.101138	-0.194224	-0.14	1.61	-0.42	0.4467	-0.0065	-0.1916	
-0.986004	0.09882	-0.190808	-0.56	0.77	-0.14	0.4594	0.0174	-0.1994	
-0.993568	0.099796	-0.20069	-0.98	2.45	0.07	0.4595	0.0008	-0.1901	
-0.996496	0.099308	-0.209352	-0.98	1.61	0	0.4495	-0.002	-0.19	
-1.005036	0.097112	-0.212646	0.21	1.26	-0.49	0.4594	0.0068	-0.1963	
-0.996008	0.094062	-0.214232	0.35	-0.84	-0.35	0.4523	0.0084	-0.2009	
-0.996862	0.09552599	-0.213012	0.49	-0.63	-0.42	0.4509	-0.0005	-0.19	
-0.996984	0.102724	-0.213988	0.35	0.77	-0.49	0.4624	0.0007	-0.2026	
-0.99735	0.10004	-0.209596	0.42	1.68	-0.21	0.4551	0.0024	-0.1869	
-1.00162	0.097356	-0.213988	0.28	1.82	0.21	0.4594	0.0053	-0.1932	
-0.993812	0.097112	-0.208498	-0.7	0.42	0.21	0.4567	0.0038	-0.201	
-0.995032	0.09821	-0.205204	0.07	0.56	0.14	0.4594	0.0099	-0.1963	
-0.991738	0.096136	-0.20435	0	0.77	0.21	0.448	0.0055	-0.1962	
-0.992714	0.094184	-0.204228	-0.98	1.05	0.42	0.4537	0.0054	-0.1884	
-0.99186	0.100162	-0.203862	0.28	0.21	0.07	0.4481	-0.0005	-0.1947	
-0.99369	0.09699	-0.203008	-0.42	0.56	0.35	0.4551	0.0024	-0.1838	
-0.986126	0.101138	-0.20191	-0.28	0.7	0.28	0.4525	-0.0066	-0.1979	
-0.98942	0.103578	-0.202886	0.07	-0.7	0	0.4581	0.0038	-0.2025	
-0.995154	0.099674	-0.20374	-0.56	-0.98	0	0.4594	0.0114	-0.1916	
-0.994544	0.09821	-0.210572	-1.19	-0.63	0.14	0.4553	0.0008	-0.2088	
-0.993446	0.099308	-0.208132	-1.19	-0.35	0.28	0.4508	0.01	-0.1978	
-0.99491	0.096136	-0.203984	-0.42	-1.26	0.21	0.4539	-0.0051	-0.201	
-0.995886	0.09455	-0.207888	-0.07	-1.54	0.14	0.4639	-0.0007	-0.2026	
-0.99491	0.097844	-0.211182	-0.49	-0.91	0.21	0.4668	-0.0053	-0.2058	
-0.991982	0.098942	-0.20862	-0.35	-1.05	0.21	0.4595	0.0053	-0.2041	
-0.99918	0.099064	-0.209474	0	-1.26	0.07	0.454	-0.0142	-0.201	
-0.996374	0.09821	-0.209108	0.21	-2.45	0.07	0.4537	0.0069	-0.1931	
-0.994544	0.09857599	-0.206424	0.49	-2.24	0.21	0.4524	0.0009	-0.1963	
-0.99491	0.101626	-0.202886	0.49	-1.89	0.28	0.4509	-0.0005	-0.1916	
-0.996862	0.102602	-0.202764	0.07	-2.73	0.35	0.4538	0.0069	-0.204	
-1.00101	0.101748	-0.20435	-0.7	-3.36	0.49	0.4538	0.0008	-0.2009	
-0.999058	0.095282	-0.202154	-1.19	-3.36	0.77	0.4596	-0.0037	-0.2057	
-0.99613	0.096502	-0.205082	-0.63	-3.43	0.98	0.4566	-0.0006	-0.1901	
-0.999912	0.09747799	-0.198738	-0.7	-3.92	0.84	0.4539	0.0023	-0.2087	
-0.997594	0.102114	-0.20191	-0.35	-4.34	0.77	0.4495	0.0024	-0.2025	
-0.998326	0.104188	-0.19825	-0.21	-4.2	0.77	0.4437	0.01	-0.204	
-1.002962	0.106628	-0.19825	-0.84	-4.2	0.91	0.4566	0.0039	-0.1932	
-1.006134	0.107238	-0.196054	-1.47	-4.83	0.98	0.4654	-0.0038	-0.2057	
-1.006134	0.109068	-0.19642	-1.61	-6.3	0.77	0.4553	0.0038	-0.2088	
-1.008452	0.106506	-0.196664	-1.26	-6.65	0.49	0.4553	-0.0081	-0.1932	
-1.004426	0.103944	-0.195688	-1.47	-6.65	0.49	0.4523	0.0144	-0.2102	
-1.00467	0.104188	-0.191662	-1.89	-6.65	0.56	0.4497	-0.0111	-0.201	
-1.004792	0.1037	-0.1891	-1.82	-7.35	0.49	0.4538	0.0008	-0.2009	
-1.008696	0.103944	-0.18483	-1.47	-8.4	0.21	0.4466	0.007	-0.2055	
-1.009062	0.103456	-0.182878	-1.33	-8.82	0.28	0.4497	-0.0036	-0.215	
-1.005158	0.102724	-0.177632	-1.82	-9.73	0.35	0.4525	-0.0036	-0.2056	
-1.003816	0.102236	-0.171288	-1.75	-10.22	0.42	0.4567	0.0053	-0.2119	
-1.001498	0.103578	-0.164944	-1.47	-10.85	0.42	0.4368	0.0009999999	-0.218	
-1.003206	0.10492	-0.16348	-1.19	-11.27	0.28	0.4496	0.0008	-0.2165	
-1.003206	0.106506	-0.160308	-0.98	-11.76	0	0.4496	0.0068	-0.2243	
-1.003206	0.10675	-0.15616	-1.12	-12.81	0	0.4467	0.0099	-0.2243	
-0.998204	0.105896	-0.142008	-1.47	-13.37	0.07	0.4412	-0.0051	-0.2274	
-1.009306	0.101748	-0.142862	-2.94	-11.27	0.42	0.4483	-0.0052	-0.2243	
-1.008574	0.109922	-0.140666	-1.75	-14.14	-0.07	0.4483	0.0053	-0.2352	
-1.012112	0.10919	-0.1403	-1.82	-15.54	-0.28	0.4469	-0.0007	-0.2368	
-1.006622	0.108946	-0.131638	-1.89	-15.05	-0.28	0.4398	-0.0066	-0.2321	
-0.98637	0.104798	-0.12322	-2.03	-15.4	-0.35	0.4469	-0.0021	-0.2306	
-1.001254	0.10858	-0.119804	-2.03	-14.77	-0.56	0.4484	0.0007	-0.2415	
-1.01199	0.110166	-0.114558	-1.89	-14.98	-1.05	0.4398	0.0038	-0.243	
-1.0126	0.10858	-0.110288	-1.82	-16.59	-1.33	0.4383	0.0054	-0.2414	
-1.011746	0.10797	-0.10004	-2.8	-18.62	-1.26	0.4412	0.0023	-0.2414	
-1.001132	0.1037	-0.085156	-3.43	-18.2	-1.05	0.4413	-0.0007	-0.2524	
-0.998936	0.09882	-0.089914	-2.31	-16.45	-1.12	0.4327	0.0039	-0.2523	
-1.009794	0.097966	-0.083936	-2.03	-13.51	-0.98	0.4313	0.0039	-0.2507	
-1.02297	0.10492	-0.080032	-1.4	-12.6	-1.54	0.4398	0.0099	-0.2539	
-1.026874	0.102968	-0.080764	-1.82	-17.22	-1.4	0.437	0.0053	-0.257	
-1.015162	0.100894	-0.072468	-3.08	-22.47	-1.47	0.4341	0.0099	-0.2569	
-1.00345	0.106384	-0.0671	-3.71	-20.44	-1.4	0.4356	0.0053	-0.257	
-1.01016	0.112484	-0.057828	-4.13	-17.5	-1.19	0.4315	-0.0052	-0.2664	
-1.017114	0.115046	-0.049166	-4.06	-15.89	-0.77	0.43	-0.0006	-0.271	
-1.014674	0.115168	-0.0366	-3.71	-17.01	-1.05	0.4285	0.0054	-0.2647	
-1.008696	0.105286	-0.019886	-2.66	-18.41	-2.03	0.4243	0.0054	-0.2803	
-0.999912	0.098088	-0.001952	-1.19	-17.29	-3.29	0.4215	-0.002	-0.2741	
-0.982954	0.090524	0.010492	0.07	-16.94	-4.55	0.4285	0.0114	-0.2819	
-0.973438	0.082594	0.021228	0.56	-14.91	-5.04	0.4229	0.0054	-0.2803	
-0.971486	0.080764	0.02562	0.63	-10.92	-4.62	0.4229	0.0039	-0.2834	
-0.979172	0.080032	0.021472	0.21	-8.89	-3.92	0.4244	0.0023	-0.285	
-0.986126	0.077836	0.0244	-0.14	-8.4	-2.8	0.4172	0.0084	-0.2927	
-0.987468	0.072834	0.028914	-0.49	-7.63	-1.33	0.4186	0.0024	-0.2834	
-0.985272	0.075762	0.029402	-0.56	-6.23	-0.28	0.4243	0.0038	-0.2834	
-0.98637	0.082472	0.029402	0	-4.9	-0.07	0.4199	0.013	-0.2849	
-0.991494	0.08723	0.025498	0.07	-2.59	-0.07	0.4187	0.0069	-0.2959	
-0.996008	0.08662	0.012932	1.19	-2.45	-0.42	0.4087	-0.0004	-0.2911	
-0.998936	0.08601	0.018056	0.56	-1.61	-0.28	0.4072	0.0009999999	-0.2818	
-1.006256	0.09089	0.011468	0.56	0.49	0.14	0.4229	0.0114	-0.2928	
-1.020286	0.098454	0.006588	-0.63	0.84	0.91	0.4172	0.0085	-0.288	
-1.014918	0.09821	0.009516	-1.68	-0.7	1.33	0.4185	0.016	-0.2849	
-1.006256	0.097844	0.006954	-2.24	-0.49	1.96	0.4143	0.007	-0.288	
-1.006988	0.093696	0.010126	-3.5	-0.21	2.45	0.4088	-0.0035	-0.3005	
-1.006134	0.094062	0.013542	-2.8	-0.63	1.82	0.4143	0.0115	-0.2943	
-1.006378	0.098454	0.016104	-2.17	0.42	1.54	0.4215	0.0069	-0.2912	
-1.00772	0.102968	0.019276	-2.8	0.63	1.54	0.4173	-0.0005	-0.2881	
-1.0065	0.097112	0.016836	-2.87	-1.4	1.12	0.4158	0.0069	-0.2927	
-1.008452	0.088084	0.009881999	-4.41	-0.77	1.89	0.4114	0.0055	-0.2849	
-1.000034	0.094916	0.010004	-1.19	0.07	0.7	0.4144	0.0054	-0.2943	
-1.008696	0.09699	0.007808	0.42	0.91	-0.07	0.4229	0.0129	-0.2912	
-1.01687	0.09577	0.00671	1.47	2.1	-0.98	0.4143	0.0085	-0.2833	
-1.020286	0.093696	0.005002	1.33	0.77	-1.54	0.4201	0.0039	-0.2896	
-1.015894	0.093086	0.000732	2.24	0.56	-2.17	0.4271	0.0159	-0.2912	
-1.014064	0.093696	0.006832	2.45	1.4	-2.1	0.4129	0.01	-0.288	
-1.01077	0.093086	0.0061	2.8	0.91	-1.96	0.4129	0.007	-0.2911	
-1.00772	0.093086	0.008296	2.38	0.49	-1.61	0.4157	0.016	-0.2911	
-1.011258	0.09028	0.01037	1.75	0.91	-1.05	0.4157	0.0115	-0.2943	
-0.997716	0.089304	0.012322	1.26	0.7	-0.77	0.4215	0.0129	-0.3005	
-1.007598	0.087962	0.007076	0.91	1.19	-0.49	0.4159	0.0024	-0.2959	
-1.012722	0.089304	0.010248	0.98	0.84	-0.42	0.4271	0.0189	-0.2959	
-1.013942	0.089548	0.00854	0.77	0	-0.28	0.4144	0.0024	-0.2881	
-1.010892	0.09076799	0.005124	0.21	-0.63	0.28	0.4244	0.0083	-0.299	
-1.009062	0.090646	0.005368	0.21	-0.63	0.42	0.4201	0.0069	-0.2959	
-1.015772	0.092964	0.000244	-0.21	0.49	0.7	0.4158	0.0069	-0.2896	
-1.013576	0.09211	0.004636	0.56	0.77	0.56	0.4215	0.0038	-0.2928	
-1.014674	0.093086	0.009028	0.21	-0.28	0.56	0.4159	0.0024	-0.299	
-1.01199	0.094794	0.008417999	0	-0.91	0.49	0.4158	0.0084	-0.2927	
-1.013088	0.092964	0.00915	-0.21	-1.12	0.84	0.4258	0.0083	-0.2944	
-1.008086	0.091378	0.009272	-0.7	-0.91	0.98	0.4258	0.0053	-0.2897	
-1.006866	0.092598	0.01281	0.21	0.84	0.77	0.42	0.0145	-0.2912	
-1.00772	0.093818	0.002806	0.63	0.91	0.63	0.4114	0.0115	-0.2942	
-1.01382	0.09821	0.005978	1.12	0.91	0.35	0.4128	0.0161	-0.2911	
-1.014796	0.097966	0.011346	1.26	0.63	0.21	0.4187	-0.0006	-0.2928	
-1.009306	0.096868	0.01098	1.19	-0.7	-0.21	0.4244	0.0083	-0.299	
-1.005036	0.099796	0.009272	1.54	-0.07	-0.7	0.4173	0.0024	-0.2943	
-1.006988	0.098454	0.006832	1.96	0.28	-0.98	0.4245	-0.0007	-0.2959	
-1.005402	0.09552599	0.011712	1.75	-0.77	-0.91	0.4142	0.0085	-0.2787	
-1.01016	0.09333	0.00976	2.03	-0.14	-0.84	0.4215	0.0068	-0.2975	
-1.008574	0.092354	0.01037	2.45	0.07	-0.77	0.4159	0.0024	-0.299	
-1.00528	0.093452	0.009638	2.73	0.7	-1.05	0.4101	-0.002	-0.2896	
-1.002596	0.090646	0.008417999	3.36	1.33	-1.54	0.4185	0.013	-0.2865	
-1.004914	0.091988	0.01037	3.22	1.12	-1.47	0.4302	0.0007	-0.2975	
-1.007598	0.09162199	0.00976	2.94	1.12	-1.26	0.4116	0.0069	-0.3036	
-1.010648	0.090646	0.006832	2.59	1.75	-1.05	0.4143	0.0115	-0.2943	
-1.01626	0.08479	0.003172	2.66	1.33	-0.84	0.4144	0.0039	-0.299	
-1.012722	0.086254	0.003904	2.38	0	-0.56	0.4043	-0.0004	-0.2817	
-1.017114	0.089426	-0.001464	2.66	0	-0.49	0.4158	0.0054	-0.2896	
-1.019798	0.097356	-0.002928	2.87	0.56	-0.7	0.4187	0.0008	-0.2912	
-1.010282	0.0976	-0.00305	2.66	0.7	-1.19	0.4184	0.0176	-0.2818	
-1.018212	0.092476	-0.003294	2.45	1.4	-1.19	0.4087	-0.0004	-0.2911	
-1.02968	0.084058	-0.004636	2.45	1.4	-0.42	0.42	0.0084	-0.2881	
-1.021628	0.083082	-0.001952	2.66	0.84	0.49	0.4158	0.0009	-0.2928	
-1.009794	0.088938	-0.00122	3.15	-0.14	0.35	0.41	0.0085	-0.2896	
-1.006256	0.089792	0.005124	3.01	0.42	-0.14	0.4143	0.0039	-0.2865	
-1.009428	0.086986	0.00488	2.52	0.77	-0.14	0.4187	0.0009	-0.2865	
-1.01626	0.081496	0.000732	2.8	1.68	0.63	0.4186	0.0054	-0.2912	
-1.022482	0.080886	0.00488	3.29	1.26	1.82	0.4244	-0.0006	-0.2866	
-1.01504	0.085034	0.007808	3.5	0.14	3.22	0.4157	0.01	-0.288	
-1.00772	0.089548	0.002318	3.5	0.14	3.71	0.4216	-0.0021	-0.2912	
-0.997838	0.096746	-0.002074	3.08	1.4	3.22	0.423	-0.0006	-0.2881	
-0.99491	0.098942	-0.000488	1.68	2.66	2.66	0.4158	0.0009	-0.2881	
-0.996374	0.098942	-0.000488	1.26	3.08	2.73	0.4158	0.0009	-0.2881	
-1.019554	0.09882	-0.003782	0.98	3.57	3.57	0.4301	-0.0007	-0.2835	
-1.024556	0.10187	-0.004758	0.84	1.89	4.13	0.4302	-0.0037	-0.2944	
-1.032486	0.108336	-0.01037	1.54	1.4	4.41	0.4159	-0.0005	-0.2912	
-1.03029	0.108214	-0.00976	1.61	0.28	4.55	0.4185	0.013	-0.2849	
-1.01931	0.110044	-0.015616	2.03	-1.12	4.48	0.4215	0.0023	-0.2865	
-1.010038	0.104432	-0.014152	1.4	0	4.62	0.4258	0.0008	-0.285	
-1.018212	0.105286	-0.015006	1.68	2.31	4.97	0.4174	-0.0051	-0.2944	
-1.027362	0.102968	-0.01037	1.96	2.31	5.88	0.4273	-0.0022	-0.2866	
-1.025288	0.104432	-0.010736	2.03	1.26	7.14	0.4258	-0.0021	-0.2835	
-1.014308	0.103944	-0.00915	1.96	0.49	7.49	0.423	-0.0082	-0.285	
-0.99796	0.103822	-0.007686	1.82	0.63	7.21	0.4288	-0.0113	-0.2882	
-0.992226	0.102602	-0.005856	2.31	2.03	6.51	0.4245	-0.0082	-0.2866	
-0.998448	0.106262	-0.006344	2.45	3.08	6.09	0.4287	-0.0082	-0.2757	
-1.002474	0.107726	-0.008174	2.24	2.73	6.58	0.4246	-0.0128	-0.2944	
-1.01077	0.117242	-0.015494	2.45	1.12	6.58	0.426	-0.0158	-0.2835	
-1.011014	0.126758	-0.014152	2.31	1.05	6.37	0.4245	-0.0142	-0.2851	
-1.00772	0.130174	-0.015006	1.82	0.63	6.23	0.4159	-0.0141	-0.2757	
-1.004426	0.13725	-0.016226	1.26	0.77	6.44	0.4188	-0.0126	-0.2788	
-0.999302	0.147132	-0.013298	0.91	1.89	6.51	0.4188	-0.0187	-0.2741	
-0.991128	0.155428	-0.008296	0.21	1.89	6.79	0.4159	-0.0171	-0.2772	
-1.000644	0.157502	-0.012078	0	1.68	6.65	0.4288	-0.0128	-0.2835	
-1.007598	0.157258	-0.008905999	0	1.4	6.37	0.4132	-0.0186	-0.285	
-1.00833	0.16043	-0.009393999	-0.14	-0.28	6.23	0.4289	-0.0234	-0.2805	
-1.003816	0.154696	-0.010858	-0.49	-0.77	6.37	0.4289	-0.0188	-0.2851	
-0.997228	0.150914	-0.009881999	-1.47	-1.33	7	0.4303	-0.0249	-0.2743	
-0.995886	0.144692	-0.009638	-1.61	-0.07	7	0.4188	-0.0187	-0.2726	
-0.999302	0.15189	-0.011834	-2.17	-0.14	7.14	0.426	-0.0263	-0.2742	
-0.999912	0.15372	-0.011834	-2.94	-0.21	7.49	0.4246	-0.0248	-0.2726	
-0.996496	0.152622	-0.012444	-2.73	0.91	6.79	0.4233	-0.0399	-0.2743	
-0.990152	0.159942	-0.015006	-2.45	0.91	5.95	0.4204	-0.0323	-0.2773	
-0.991006	0.164212	-0.016714	-1.68	0.7	4.41	0.4117	-0.0231	-0.2772	
-0.997472	0.164944	-0.020252	-0.91	0.28	3.15	0.4246	-0.0218	-0.2789	
-1.006988	0.171288	-0.023546	-0.56	-0.14	2.24	0.4245	-0.0202	-0.2679	
-1.003328	0.172508	-0.018544	-0.84	-0.35	2.03	0.419	-0.0369	-0.2789	
-1.000278	0.180072	-0.016104	-1.05	-0.49	1.89	0.4303	-0.0233	-0.2696	
-0.998082	0.177022	-0.013908	-0.56	0	1.54	0.4261	-0.0219	-0.2914	
-0.996374	0.171166	-0.009272	-0.77	0.07	1.4	0.429	-0.0264	-0.2867	
-0.996008	0.170678	-0.007076	-0.63	-0.56	1.12	0.4275	-0.0203	-0.2883	
-0.988322	0.173972	-0.006954	-0.28	-0.77	0.42	0.4246	-0.0263	-0.2805	
-0.983442	0.172142	-0.006344	0.21	-0.35	-0.42	0.4218	-0.0308	-0.2742	
-0.986858	0.172142	-0.006954	0.56	0.14	-1.19	0.409	-0.0277	-0.2866	
-0.997594	0.169946	-0.011102	0.91	0.14	-1.89	0.419	-0.0278	-0.282	
-1.004304	0.167872	-0.011956	0.98	-0.07	-2.03	0.4262	-0.0309	-0.2836	
-1.006866	0.168726	-0.013786	0.56	-0.42	-1.82	0.4247	-0.0278	-0.2789	
-1.001376	0.166652	-0.01525	0.21	-0.21	-1.68	0.419	-0.0324	-0.2882	
-0.999058	0.16531	-0.01342	-0.56	0.56	-1.33	0.4189	-0.0262	-0.2757	
-0.996496	0.162748	-0.012688	-0.63	0.98	-1.12	0.422	-0.0355	-0.2945	
-0.996008	0.158234	-0.012444	-1.33	0.7	-0.91	0.4276	-0.0294	-0.2852	
-0.998448	0.16043	-0.014274	-1.75	0.77	-1.05	0.416	-0.0277	-0.2757	
-0.99796	0.166164	-0.012444	-1.96	1.19	-1.33	0.4189	-0.0278	-0.2773	
-0.995764	0.165188	-0.016592	-1.82	1.61	-1.68	0.429	-0.0294	-0.2836	
-0.99552	0.162626	-0.016958	-1.68	1.54	-2.1	0.4275	-0.0219	-0.2867	
-0.997716	0.16287	-0.01464	-1.75	1.47	-2.31	0.4262	-0.0324	-0.2836	
-1.006622	0.166896	-0.019276	-1.54	1.47	-2.73	0.429	-0.0264	-0.2867	
-1.004548	0.1647	-0.016104	-1.05	1.47	-3.22	0.4146	-0.0232	-0.2835	
-0.996008	0.161162	-0.012932	-0.91	1.26	-3.5	0.4249	-0.0445	-0.2837	
-0.992714	0.164578	-0.012932	-1.33	0.91	-3.71	0.4188	-0.0202	-0.2788	
-0.995032	0.163724	-0.016226	-0.77	1.19	-4.41	0.4262	-0.0309	-0.2867	
-0.992714	0.16043	-0.013786	-0.35	1.19	-5.25	0.4275	-0.0294	-0.2774	
-0.994666	0.156648	-0.012078	-0.35	0.56	-5.95	0.4203	-0.0248	-0.2804	
-0.99613	0.15433	-0.013786	0	0.84	-6.65	0.4246	-0.0173	-0.2835	
-0.992104	0.154086	-0.01586	0.35	0.98	-7.21	0.4232	-0.0263	-0.282	
-0.996862	0.151158	-0.013176	0.28	0.7	-7.7	0.4245	-0.0157	-0.2773	
-0.998448	0.14762	-0.013908	0.49	0.07	-8.4	0.4275	-0.0204	-0.2929	
-0.996984	0.146278	-0.014884	0.42	-0.35	-9.17	0.4317	-0.0173	-0.282	
-1.001986	0.144692	-0.016226	0.77	-0.14	-9.73	0.4231	-0.0142	-0.2898	
-1.00223	0.13725	-0.017812	0.84	-0.77	-10.08	0.4259	-0.009699999	-0.2866	
-1.006256	0.135908	-0.02318	0.7	-0.98	-10.43	0.4288	-0.0112	-0.2789	
-1.013454	0.129442	-0.019764	0.42	-0.56	-10.43	0.4116	-0.0126	-0.2819	
-1.013942	0.12322	-0.016714	-0.07	-1.19	-9.87	0.4288	-0.0067	-0.2866	
-1.01077	0.120536	-0.01708	-0.35	-1.82	-9.45	0.4144	-0.0111	-0.2772	
-1.0065	0.114924	-0.01403	-0.77	-2.1	-9.52	0.4201	0.0009	-0.2834	
-1.006988	0.111142	-0.014884	-1.12	-2.17	-9.73	0.4316	-0.0083	-0.2835	
-1.007964	0.108214	-0.01647	-1.61	-2.03	-9.66	0.4187	-0.005	-0.2772	
-1.01748	0.105408	-0.02074	-1.75	-1.05	-9.17	0.4172	-0.0035	-0.2772	
-1.026996	0.098332	-0.016958	-1.75	-0.77	-8.33	0.4287	-0.0022	-0.2819	
-1.024556	0.09394	-0.019276	-1.75	-1.96	-7	0.4231	-0.0082	-0.2866	
-1.022238	0.090646	-0.0183	-1.26	-0.56	-6.37	0.4214	0.0114	-0.2896	
-1.020652	0.084912	-0.011346	-0.98	-0.28	-5.88	0.4315	0.0038	-0.2835	
-1.018944	0.084058	-0.014274	-0.98	-0.42	-4.97	0.4185	0.01	-0.2802	
-1.019188	0.080642	-0.012932	-0.84	0.49	-3.92	0.4215	0.0084	-0.2912	
-1.015894	0.078812	-0.00732	-0.7	0.28	-2.87	0.4215	-0.0036	-0.2803	
-1.013088	0.075518	-0.007564	-0.28	-0.7	-2.17	0.4286	0.0038	-0.2772	
-1.012478	0.07442	-0.009393999	0.35	-0.35	-1.82	0.423	-0.0036	-0.2866	
-1.005646	0.074664	-0.012322	0.42	-0.35	-1.33	0.4229	0.0069	-0.2897	
-1.008086	0.076006	-0.015738	0.28	1.05	-0.77	0.4272	0.0038	-0.2803	
-1.025288	0.080886	-0.020374	-0.21	1.54	0	0.4143	0.0085	-0.2849	
-1.030046	0.083814	-0.019032	-1.12	0.63	0.63	0.4143	0.0009	-0.2803	
-1.01931	0.085034	-0.022936	-1.68	-0.77	1.19	0.4314	0.0098	-0.2819	
-1.007598	0.091988	-0.014396	-0.98	-0.07	1.12	0.4271	0.0084	-0.2803	
-1.009428	0.091012	-0.018178	-1.89	0.42	1.75	0.4199	0.01	-0.2771	
-1.013698	0.091988	-0.013786	-2.03	-0.14	1.96	0.4301	0.0038	-0.2835	
-1.012722	0.092354	-0.007686	-1.75	-0.42	2.17	0.4229	0.0024	-0.2756	
-1.00772	0.092354	-0.008296	-1.54	-0.49	2.38	0.4272	0.0113	-0.2928	
-1.003938	0.09638	-0.007808	-1.47	-1.05	2.17	0.4201	0.0024	-0.2834	
-1.00467	0.10004	-0.01159	-1.4	-0.49	1.61	0.4229	0.0024	-0.2788	
-1.002352	0.10065	-0.006954	-2.17	-0.42	1.4	0.4214	0.0099	-0.2818	
-1.014308	0.09857599	-0.006344	-2.73	0.07	1.54	0.4228	0.0099	-0.2803	
-1.023702	0.10004	-0.008905999	-3.22	0	1.75	0.423	-0.0051	-0.2835	
-1.0126	0.10126	-0.015128	-3.43	-1.54	1.75	0.4156	0.0115	-0.2787	
-1.013576	0.10187	-0.016592	-3.29	-1.33	1.33	0.4157	0.0055	-0.2834	
-1.01077	0.10126	-0.01403	-2.73	-1.05	0.84	0.4215	0.0009	-0.2772	
-1.012478	0.10492	-0.018422	-2.38	-0.77	0.28	0.4229	0.0024	-0.2819	
-1.021628	0.10736	-0.01586	-1.68	0.35	-0.42	0.4229	0.0068	-0.2928	
-1.023458	0.102602	-0.011224	-1.47	-1.47	-1.12	0.423	-0.0051	-0.2803	
-1.020042	0.101626	-0.013298	-2.24	-3.64	-1.26	0.4259	-0.0007	-0.2913	
-1.015894	0.101138	-0.006588	-3.85	-2.87	-1.05	0.4258	0.0023	-0.2835	
-1.01382	0.101504	-0.012566	-4.48	-2.17	-0.98	0.4242	0.0114	-0.2803	
-1.006012	0.097234	-0.0061	-4.83	-0.14	-0.84	0.42	0.0054	-0.2834	
-1.003938	0.098088	0	-4.41	-0.28	-0.98	0.4142	0.0131	-0.2818	
-1.0126	0.103456	0.005246	-4.06	-0.91	-1.47	0.4185	0.0115	-0.2834	
-1.012478	0.104554	0.005124	-2.87	-1.05	-2.8	0.4287	0.0022	-0.296	
-1.005768	0.097234	0.003172	-1.75	-0.91	-4.34	0.4215	0.0069	-0.2865	
-0.99735	0.088816	0.003294	-0.84	-0.28	-5.18	0.4157	0.0145	-0.2911	
-0.996252	0.08113	-0.003172	-0.63	0.28	-4.9	0.42	0.0054	-0.2756	
-1.011014	0.081984	-0.007564	-0.84	1.61	-4.13	0.42	0.0055	-0.274	
-1.011624	0.08479	-0.004026	-1.19	1.47	-4.06	0.4228	0.0144	-0.2912	
-1.013088	0.089548	-0.003538	-1.61	1.82	-4.06	0.4199	0.0235	-0.2942	
-1.011624	0.0854	-0.002318	-1.33	1.33	-3.92	0.4156	0.0176	-0.2896	
-1.0065	0.077104	-0.003172	-0.7	0.42	-3.99	0.4186	0.01	-0.2865	
-1.004792	0.073688	-0.00671	0.35	1.61	-3.99	0.4227	0.016	-0.274	
-0.99918	0.072468	-0.004148	0.84	1.68	-3.92	0.4198	0.0251	-0.288	
-1.013576	0.074054	-0.005734	0.91	2.17	-3.71	0.42	0.0039	-0.285	
-1.021506	0.07905599	-0.006832	0.14	2.03	-3.5	0.4213	0.0175	-0.2818	
-1.028948	0.081252	-0.008905999	-1.82	1.47	-3.15	0.4185	0.013	-0.2849	
-1.021384	0.076616	-0.008052	-2.8	0.42	-2.73	0.4256	0.0175	-0.2818	
-1.011868	0.070638	-0.0122	-3.57	0.28	-1.12	0.4199	0.0191	-0.2818	
-1.000522	0.071004	-0.004026	-1.89	0.49	-0.28	0.4128	0.01	-0.2849	
-1.009306	0.076372	-0.0122	-2.38	2.17	0.7	0.4255	0.0205	-0.2771	
-1.01992	0.087718	-0.007808	-1.4	3.43	0.63	0.427	0.0145	-0.274	
-1.013576	0.080642	-0.01037	-1.47	0.84	0.07	0.4214	0.013	-0.2834	
-1.006378	0.070272	-0.007686	-1.05	-0.35	-0.84	0.4255	0.025	-0.2818	
-1.001986	0.05063	-0.007442	-1.26	0.21	-0.28	0.4255	0.019	-0.2771	
-0.99186	0.043066	-0.005124	-2.1	1.82	1.12	0.427	0.022	-0.2787	
-0.998814	0.060512	-0.008417999	-3.85	4.06	3.29	0.4285	0.0144	-0.2819	
-1.017602	0.07991	-0.007564	-4.13	5.74	3.43	0.4256	0.019	-0.2881	
-1.020896	0.092598	-0.003172	-4.27	3.92	1.82	0.4284	0.0205	-0.2771	
-1.012234	0.088084	-0.010492	-4.2	1.19	0.63	0.4283	0.0175	-0.2662	
-1.004914	0.082106	-0.010492	-3.15	1.96	0.07	0.4341	0.0144	-0.2725	
-1.01565	0.087718	-0.025864	-2.03	3.57	-0.07	0.4326	0.0295	-0.2849	
-1.020286	0.102358	-0.027206	-3.29	4.06	-0.49	0.4199	0.016	-0.2787	
-1.02419	0.10492	-0.030012	-3.22	3.08	-1.47	0.4283	0.0205	-0.2693	
-1.026508	0.099674	-0.025376	-2.8	2.03	-1.96	0.4241	0.022	-0.2787	
-1.026996	0.092354	-0.02867	-2.94	0.56	-2.17	0.4256	0.0175	-0.2834	
-1.021018	0.09272	-0.0183	-3.29	0.14	-3.08	0.4283	0.025	-0.2771	
-1.023336	0.088084	-0.026962	-3.01	-1.54	-4.69	0.4299	0.0144	-0.2725	
-1.025532	0.079544	-0.032452	-2.38	-3.01	-5.95	0.4371	0.0173	-0.2866	
-1.020774	0.071004	-0.030744	-1.82	-4.2	-6.72	0.4256	0.016	-0.2787	
-1.0126	0.066978	-0.024278	-0.84	-2.94	-7.42	0.4225	0.0282	-0.2646	
-1.011014	0.060512	-0.022692	0.98	-1.19	-7.98	0.4268	0.0326	-0.2786	
-1.004182	0.052948	-0.011102	1.54	-1.12	-8.54	0.4226	0.0296	-0.2771	
-1.01016	0.059414	-0.01037	2.59	-0.7	-9.73	0.4354	0.025	-0.2694	
-1.016138	0.05734	-0.009393999	3.22	-0.35	-10.29	0.4239	0.0312	-0.2724	
-1.008452	0.04758	-0.006466	3.22	-1.61	-9.94	0.4282	0.0357	-0.2708	
-1.001864	0.046238	-0.007686	2.73	-2.1	-8.47	0.4182	0.0342	-0.2754	
-1.005768	0.041114	-0.006832	3.01	-1.12	-7.42	0.424	0.0342	-0.2786	
-1.019676	0.041968	-0.013664	2.59	-0.07	-6.09	0.4196	0.0388	-0.2754	
-1.022604	0.042578	-0.016958	0.98	-0.98	-4.48	0.4283	0.0311	-0.2787	
-1.015284	0.04148	-0.016958	-0.21	-2.45	-3.57	0.4226	0.0372	-0.2911	
-1.011868	0.03904	-0.019276	-0.49	-2.66	-3.08	0.421	0.0402	-0.2801	
-1.002718	0.026352	-0.007198	-0.84	-3.71	-2.52	0.4253	0.0402	-0.2755	
-1.002474	0.018666	-0.009881999	0	-1.89	-3.57	0.4282	0.0492	-0.2911	
-1.014186	0.020984	-0.01403	0.28	-1.26	-3.71	0.4354	0.034	-0.2849	
-1.016382	0.023058	-0.007442	0.49	-1.47	-3.43	0.4224	0.0418	-0.2754	
-1.01504	0.0244	-0.008662	0.07	-1.75	-2.66	0.4239	0.0402	-0.2864	
-1.005402	0.021716	-0.005124	0.14	-2.1	-1.82	0.4153	0.0403	-0.2832	
-1.008086	0.022448	-0.0061	0.7	-1.26	-1.54	0.4183	0.0357	-0.2895	
-1.008574	0.02806	-0.004636	1.05	0.14	-1.19	0.4181	0.0403	-0.2723	
-1.009306	0.0305	-0.000366	1.05	-0.14	-1.12	0.434	0.034	-0.2881	
-1.004914	0.030866	-0.00183	1.47	-1.12	-1.4	0.4225	0.0357	-0.2786	
-0.999546	0.026352	0.000976	1.82	-1.05	-1.4	0.4283	0.0356	-0.288	
-0.997716	0.024644	0.00244	2.17	-0.49	-1.05	0.4182	0.0388	-0.277	
-0.998204	0.023668	0.003904	2.66	0.21	-0.49	0.4212	0.0326	-0.288	
-1.004792	0.024888	-0.002196	3.15	0.49	-0.21	0.4253	0.0432	-0.2817	
-1.01687	0.028304	-0.0061	3.01	0.42	0.07	0.4197	0.0327	-0.288	
-1.01809	0.029402	-0.005124	2.17	-0.84	0.28	0.4253	0.0447	-0.2864	
-1.014308	0.030744	-0.00549	1.4	-1.96	0.49	0.4225	0.0447	-0.2879	
-1.008086	0.024766	-0.00549	1.68	-1.33	0.35	0.4126	0.0327	-0.2926	
-1.014674	0.026596	-0.010614	1.75	-0.07	0.49	0.4169	0.0297	-0.2879	
-1.01382	0.028548	-0.007929999	1.68	-0.28	1.12	0.4211	0.0417	-0.2864	
-1.017358	0.025864	-0.011834	1.26	-1.19	1.82	0.4211	0.0432	-0.2879	
-1.0126	0.031232	-0.007198	0.84	-1.82	2.24	0.4211	0.0387	-0.2833	
-1.012234	0.029524	-0.00244	1.19	-1.68	2.03	0.4198	0.0266	-0.2817	
-1.007842	0.028182	-0.001098	1.47	-1.54	2.45	0.4241	0.0325	-0.3005	
-1.003206	0.024766	0.00488	0.7	-2.17	3.01	0.4211	0.0417	-0.2879	
-1.004304	0.021594	0.003172	0	-1.89	3.92	0.4224	0.0448	-0.2801	
-1.000766	0.021716	0.005612	-0.21	-1.89	4.55	0.4168	0.0372	-0.2863	
-1.007842	0.028914	0.004148	0.21	-1.26	4.48	0.4211	0.0402	-0.2832	
-1.013088	0.038064	0.003294	0.49	-0.91	4.34	0.4097	0.0388	-0.291	
-1.005768	0.04453	0.004758	0.28	-0.98	4.62	0.4226	0.0296	-0.2817	
-1.011868	0.04636	0.00183	0.49	-0.56	4.69	0.4255	0.0296	-0.2864	
-1.01992	0.038918	-0.006466	-0.77	3.01	5.32	0.4228	0.0205	-0.2958	
-1.01504	0.04209	-0.00915	-0.56	-0.49	5.95	0.4241	0.0326	-0.2895	
-1.011502	0.047702	-0.004758	-0.35	-2.24	6.3	0.4212	0.0312	-0.2817	
-1.011746	0.052704	0	0	-2.03	6.93	0.4211	0.0327	-0.2755	
-1.014674	0.054412	0.003172	-0.35	-2.8	7.42	0.4214	0.019	-0.2927	
-1.014064	0.05551	0.000488	0	-1.12	7	0.4141	0.0282	-0.2864	
-1.017724	0.054046	0.00244	0.77	-1.96	6.23	0.4255	0.0266	-0.2833	
-1.023214	0.05368	0.001708	0.63	-3.08	6.02	0.4155	0.0282	-0.2833	
-1.018822	0.05429	0.002318	0.35	-3.71	6.65	0.4084	0.0222	-0.291	
-1.011136	0.059292	0.005002	0.14	-4.06	7.84	0.4199	0.019	-0.288	
-1.008086	0.067832	0.007929999	0	-3.22	8.61	0.4213	0.0175	-0.2849	
-1.009794	0.073688	0.012444	0.07	-2.1	8.61	0.4241	0.028	-0.2911	
-1.011136	0.076128	0.016104	0.07	-1.68	8.47	0.4227	0.019	-0.2849	
-1.010282	0.076128	0.018544	0.07	-2.52	8.47	0.42	0.016	-0.2958	
-1.016138	0.077836	0.012932	-0.28	-2.59	8.96	0.4171	0.0175	-0.2911	
-1.017114	0.085522	0.009881999	-0.35	-1.61	9.52	0.4172	0.0099	-0.3005	
-1.02114	0.099796	0.011102	-0.63	-1.89	9.66	0.43	0.0128	-0.2928	
-1.024556	0.111386	0.007198	-0.42	-2.17	8.96	0.4157	0.013	-0.2958	
-1.01992	0.113338	0.007198	-0.14	-2.03	7.56	0.4087	0.0055	-0.2989	
-1.015894	0.111996	0.009516	0.28	-0.63	5.95	0.4158	0.0069	-0.2927	
-1.020408	0.11163	0.008296	0.56	0	5.25	0.4115	0.0055	-0.2896	
-1.022482	0.116876	0.011224	0.07	-0.77	5.11	0.4129	0.0085	-0.2943	
-1.020896	0.121146	0.011346	-0.91	-1.96	4.76	0.413	0.0039	-0.2943	
-1.01443	0.119072	0.016348	-1.68	-1.82	4.13	0.4115	0.0055	-0.2865	
-1.005768	0.115656	0.023058	-2.1	-1.47	3.64	0.4172	0.0024	-0.2818	
-0.997228	0.109434	0.02562	-1.54	-2.03	3.01	0.4258	0.0053	-0.2881	
-0.989298	0.106018	0.028792	-0.07	-0.91	1.96	0.4187	0.0054	-0.2928	
-1.005524	0.107604	0.02745	1.26	-0.56	1.05	0.4129	0.01	-0.2958	
-1.011258	0.111386	0.025132	2.45	-1.4	0.07	0.4172	0.0039	-0.2927	
-1.008696	0.111264	0.024156	3.64	-1.82	-1.12	0.4143	0.01	-0.2943	
-1.01138	0.107848	0.025254	3.92	-1.4	-1.26	0.4185	0.016	-0.2911	
-1.021262	0.103944	0.014396	4.34	-1.19	-1.05	0.4101	0.004	-0.2911	
-1.025532	0.103334	0.016348	4.41	-2.45	-0.7	0.4172	0.0024	-0.2896	
-1.014918	0.109556	0.00976	3.92	-3.5	-0.14	0.4187	0.0039	-0.2912	
-1.005768	0.1098	0.007198	3.57	-2.31	-0.28	0.4216	-0.0021	-0.2959	
-1.016504	0.107604	0.006222	3.08	-0.07	-0.28	0.4201	0.0053	-0.299	
-1.030656	0.103822	0.006588	2.59	-0.28	0.14	0.4102	-0.0005	-0.2958	
-1.023824	0.105042	0.01403	2.66	-2.17	1.05	0.4159	-0.0005	-0.2943	
-1.017236	0.106994	0.020618	3.15	-3.22	1.47	0.4231	-0.0022	-0.2959	
-1.00894	0.109312	0.023912	3.43	-2.52	1.33	0.4172	0.0039	-0.2896	
-1.001132	0.109922	0.02623	3.43	-2.52	0.56	0.4143	0.013	-0.2974	
-0.996984	0.10614	0.032818	3.15	-2.59	0.07	0.4116	0.0009	-0.2974	
-1.000888	0.098942	0.032452	2.52	-2.59	0.98	0.4202	0.0008	-0.2975	
-1.007354	0.102846	0.0366	2.24	-1.75	2.1	0.4086	0.0055	-0.2911	
-1.001742	0.110044	0.035136	1.61	-2.1	2.38	0.4175	-0.0067	-0.3068	
-0.995276	0.116022	0.031232	0.77	-2.31	2.24	0.4173	-0.0006	-0.299	
-1.000644	0.117486	0.029158	0.49	-0.49	1.96	0.4245	-0.0037	-0.2975	
-1.002718	0.118218	0.03294	0.28	-1.26	2.03	0.4116	0.0024	-0.3052	
-1.009428	0.118584	0.03111	0	-3.15	2.31	0.4131	-0.0066	-0.2959	
-1.004792	0.11895	0.035258	-1.12	-3.85	2.1	0.4088	0.0009	-0.3021	
-0.993934	0.118828	0.0366	-1.33	-4.2	1.75	0.406	-0.005	-0.3021	
-0.984296	0.118096	0.042212	-0.98	-1.89	0.91	0.4204	-0.0113	-0.3053	
-0.996374	0.119804	0.04209	-0.56	-0.42	0.7	0.4144	0.0039	-0.3005	
-1.005402	0.117974	0.03538	-0.35	-0.14	0.84	0.4159	-0.0036	-0.2975	
-1.013698	0.114802	0.043066	-0.14	-0.49	0.42	0.4189	-0.0067	-0.3037	
-1.00955	0.110166	0.045506	0.35	-0.35	0.42	0.4089	-0.0111	-0.299	
-0.999058	0.108092	0.034892	0.35	-1.47	0.98	0.4203	-0.0022	-0.3053	
-1.001498	0.110898	0.030744	1.19	1.12	1.33	0.4075	-0.0081	-0.3068	
-1.012844	0.119682	0.032452	1.33	1.96	1.33	0.4116	0.0039	-0.3083	
-1.017602	0.119316	0.02928	1.05	-0.63	0.91	0.4118	-0.0096	-0.3068	
-1.019798	0.115168	0.027328	0.84	-1.05	0.56	0.4232	-0.0052	-0.3053	
-1.01199	0.113094	0.033062	1.19	-0.56	0.98	0.4089	-0.0051	-0.3099	
-1.00101	0.110288	0.03233	1.75	0.56	1.61	0.4131	-0.0126	-0.2944	
-1.000522	0.115656	0.037454	2.24	1.89	2.03	0.4145	-0.0051	-0.2959	
-0.99674	0.117974	0.04819	1.68	1.19	2.1	0.4203	-0.009699999	-0.2928	
-1.002718	0.12261	0.038918	1.89	2.24	1.82	0.4175	-0.009699999	-0.31	
-0.995154	0.121756	0.047824	1.75	3.5	2.1	0.4188	-0.0036	-0.299	
-0.99674	0.122976	0.045872	1.26	2.73	2.52	0.4132	-0.0142	-0.3022	
-0.999058	0.12383	0.032696	1.89	2.52	2.52	0.4132	-0.0066	-0.3068	
-1.00223	0.124318	0.027084	1.89	1.54	1.89	0.4145	-0.0066	-0.2975	
-1.006134	0.128466	0.02196	1.54	1.05	1.19	0.4175	-0.0112	-0.2991	
-1.004304	0.132492	0.020496	0.77	2.1	0.63	0.4203	-0.0142	-0.296	
-1.002352	0.129442	0.025132	0.63	3.29	0.77	0.4131	-0.0036	-0.3021	
-1.009916	0.132248	0.023912	1.54	4.62	1.05	0.4146	-0.0096	-0.2959	
-1.025166	0.130174	0.022936	2.59	3.43	1.4	0.4231	-0.0082	-0.2944	
-1.032486	0.130662	0.018178	2.38	0.42	1.96	0.4174	-0.009699999	-0.2944	
-1.02541	0.127124	0.012932	1.89	0.35	2.45	0.4089	-0.0141	-0.3037	
-1.01565	0.127368	0.015616	1.05	0.21	3.43	0.4075	-0.0186	-0.299	
-1.0126	0.122732	0.014884	1.05	0.91	4.69	0.4104	-0.0202	-0.2928	
-1.02053	0.121634	0.01525	1.19	2.52	6.16	0.416	-0.0127	-0.2975	
-1.022604	0.118584	0.013908	0.56	3.15	7.7	0.4118	-0.0187	-0.2975	
-1.020164	0.12505	0.021228	-0.21	1.68	8.75	0.4104	-0.0142	-0.3068	
-1.022604	0.127124	0.017324	-1.12	1.33	9.45	0.4204	-0.0143	-0.3007	
-1.01443	0.13054	0.014884	-1.54	1.75	10.08	0.4175	-0.009699999	-0.3022	
-1.004548	0.14152	0.007198	-2.1	0.84	10.71	0.4233	-0.0188	-0.3007	
-0.997838	0.145668	0.01037	-2.52	0.7	11.06	0.4189	-0.0158	-0.2991	
-1.001864	0.149816	0.01159	-2.59	0.7	11.06	0.4147	-0.0202	-0.2928	
-1.00406	0.154452	0.016226	-2.59	0.28	10.99	0.4118	-0.0172	-0.2944	
-1.006866	0.162138	0.01647	-2.38	0.63	10.78	0.4147	-0.0248	-0.2991	
-1.007354	0.172996	0.013908	-1.54	1.47	10.5	0.4219	-0.0219	-0.3007	
-0.99552	0.17446	0.019764	-1.82	-0.07	10.22	0.4132	-0.0232	-0.2913	
-0.987224	0.17934	0.02196	-1.96	-0.63	9.94	0.419	-0.0309	-0.2898	
-0.985272	0.184098	0.021472	-2.1	-0.28	9.8	0.4135	-0.0369	-0.2992	
-0.987834	0.193004	0.02135	-2.03	-0.91	9.03	0.4191	-0.0309	-0.2914	
-0.985028	0.193858	0.023424	-1.89	-0.77	8.33	0.4119	-0.0338	-0.2929	
-0.990884	0.201422	0.023302	-1.96	-1.47	7.49	0.4092	-0.0429	-0.2913	
-0.996374	0.202642	0.020618	-1.19	-1.05	6.72	0.4163	-0.0384	-0.2976	
-0.996374	0.203374	0.024034	-0.7	-1.05	6.37	0.4163	-0.0369	-0.2914	
-0.998082	0.198616	0.020252	-0.14	-1.89	5.88	0.4277	-0.0325	-0.2914	
-0.982954	0.195322	0.025498	-0.35	-2.52	5.04	0.4149	-0.0369	-0.2976	
-0.975146	0.199714	0.024522	-0.14	-2.45	3.71	0.4206	-0.0415	-0.2977	
-0.973926	0.20374	0.02684	0.49	-1.05	2.31	0.4162	-0.0293	-0.2898	
-0.971608	0.205936	0.031232	0.7	0.07	1.33	0.4163	-0.0354	-0.2945	
-0.978806	0.211914	0.029646	0.84	-0.49	0.28	0.4264	-0.0431	-0.3008	
-0.98698	0.209474	0.03233	1.26	0.07	-0.56	0.4162	-0.0278	-0.2944	
-0.986004	0.207888	0.033672	1.05	-0.49	-0.77	0.4177	-0.0415	-0.2914	
-0.989298	0.205936	0.02989	0.91	-0.56	-0.91	0.4063	-0.0383	-0.2975	
-0.989786	0.205082	0.030134	0.56	-0.42	-0.7	0.412	-0.0369	-0.2991	
-0.987468	0.205692	0.024766	0.28	-0.7	-0.91	0.4148	-0.0308	-0.2945	
-0.983808	0.203008	0.0244	0.07	-0.42	-1.47	0.4134	-0.0354	-0.2991	
-0.987102	0.200812	0.02257	0.07	0.07	-2.31	0.4177	-0.0339	-0.2945	
-0.989786	0.195688	0.024034	0.07	0.28	-2.8	0.4191	-0.0279	-0.3007	
-0.995032	0.193004	0.024522	0.56	0.77	-3.22	0.4177	-0.0415	-0.2914	
-0.991494	0.193126	0.027206	0.7	-0.21	-3.36	0.4034	-0.0352	-0.2928	
-0.993202	0.191052	0.02806	0.98	0.21	-3.64	0.4177	-0.0339	-0.3039	
-0.985638	0.190076	0.032086	0.56	0.91	-3.5	0.4093	-0.049	-0.2976	
-0.986858	0.189588	0.025498	0.21	1.26	-3.43	0.4076	-0.0262	-0.3022	
-0.99125	0.18788	0.028182	0.14	1.89	-3.43	0.4092	-0.0429	-0.2991	
-0.994178	0.183488	0.027328	0.07	1.82	-3.5	0.4149	-0.0339	-0.2991	
-0.99613	0.181292	0.023546	0.42	1.68	-3.71	0.4091	-0.0308	-0.2975	
-1.00101	0.182268	0.017324	1.12	2.17	-3.92	0.4248	-0.0325	-0.2977	
-0.99979	0.187148	0.013298	1.05	1.54	-3.99	0.4149	-0.0399	-0.2898	
-1.004304	0.183244	0.011712	1.12	1.75	-4.2	0.4162	-0.0308	-0.2867	
-1.00528	0.180804	0.013176	0.7	1.89	-4.06	0.4147	-0.0248	-0.2991	
-1.003084	0.17812	0.013176	0.7	1.89	-3.92	0.4107	-0.0429	-0.2992	
-1.000644	0.180926	0.015128	0.35	1.47	-3.92	0.4218	-0.0278	-0.2836	
-0.99674	0.177144	0.016836	0.63	1.89	-4.27	0.4176	-0.0293	-0.2882	
-0.996496	0.177754	0.01586	0.56	2.03	-4.48	0.4105	-0.0293	-0.2928	
-0.993324	0.175314	0.018422	0.21	1.75	-4.34	0.4118	-0.0217	-0.2913	
-0.99491	0.17446	0.01708	0.14	1.61	-4.34	0.4148	-0.0278	-0.3022	
-0.993934	0.170312	0.016592	0.42	2.1	-4.69	0.4162	-0.0323	-0.2898	
-0.996496	0.16775	0.017324	0.28	1.96	-4.76	0.4133	-0.0278	-0.2913	
-0.997838	0.171166	0.015372	0.49	2.03	-4.83	0.4131	-0.0186	-0.2819	
-0.996008	0.170068	0.014152	0.42	2.03	-4.83	0.419	-0.0263	-0.2913	
-0.99613	0.16958	0.011712	0	1.68	-5.11	0.419	-0.0248	-0.2976	
-0.990274	0.168604	0.010492	-0.28	1.12	-5.6	0.4147	-0.0232	-0.2913	
-0.994666	0.163846	0.009272	0.14	1.82	-6.37	0.4248	-0.0264	-0.2961	
-0.996252	0.158966	0.012932	0	1.96	-6.72	0.4132	-0.0202	-0.2928	
-0.993934	0.15494	0.013542	-0.28	1.05	-7	0.4174	-0.0127	-0.2913	
-0.994178	0.155916	0.014396	-0.28	0.84	-7.14	0.4174	-0.0157	-0.2835	
-0.994422	0.158722	0.011712	-0.14	1.26	-7.49	0.4247	-0.0233	-0.2882	
-0.991006	0.15616	0.01159	-0.14	0.7	-7.98	0.4133	-0.0263	-0.2929	
-0.996496	0.156038	0.008905999	0	0.91	-8.54	0.4188	-0.0142	-0.2835	
-1.006134	0.150548	0.005612	0.21	1.4	-8.89	0.4174	-0.0142	-0.2897	
-1.008696	0.15006	0.00244	-0.07	0.35	-9.31	0.4132	-0.0157	-0.2959	
-1.013332	0.143838	-0.002074	-0.07	0.28	-9.59	0.4201	-0.0021	-0.2866	
-1.013454	0.136884	0.000366	-0.21	0.21	-9.8	0.4131	-0.0171	-0.2866	
-1.00772	0.127734	0.005856	-0.42	-0.56	-9.8	0.4089	-0.0156	-0.2897	
-1.003572	0.122122	0.011224	-0.21	-1.4	-9.66	0.4173	-0.0066	-0.2897	
-1.006866	0.116998	0.013176	0.42	-1.12	-9.94	0.4173	0.0024	-0.2943	
-1.006256	0.116876	0.012566	1.12	-0.49	-10.29	0.4216	0.0008	-0.3022	
-1.003206	0.115656	0.0122	1.4	-0.49	-10.64	0.4144	-0.0005	-0.2865	
-1.001132	0.106628	0.014396	1.26	-0.42	-10.64	0.4173	-0.0021	-0.2912	
-1.013454	0.105286	0.008662	1.4	0	-10.43	0.4244	0.0053	-0.2959	
-1.019432	0.101748	0.009272	1.12	0.14	-9.73	0.4215	0.0023	-0.2865	
-1.021018	0.101382	0.004758	0.21	-0.56	-8.68	0.4201	0.0039	-0.2896	
-1.01626	0.097966	0.008417999	-0.21	-0.14	-7.42	0.4187	0.0024	-0.2912	
-1.017602	0.093696	0.005368	-0.77	0.98	-6.16	0.4172	0.0054	-0.2849	
-1.01687	0.085888	0.01037	-0.84	1.54	-4.9	0.4171	0.0115	-0.2896	
-1.017358	0.083326	0.012932	-1.19	0.77	-4.06	0.413	0.0024	-0.2912	
-1.016626	0.07808	0.005124	-0.63	0.91	-3.71	0.42	0.0039	-0.2818	
-1.019432	0.075884	0.004392	-1.54	0.7	-3.15	0.4101	0.01	-0.2989	
-1.024434	0.074298	0.000976	-1.82	2.24	-2.17	0.4129	0.0085	-0.2911	
-1.019676	0.07747	-0.003294	-2.17	2.38	-1.12	0.4159	-0.0005	-0.2912	
-1.014918	0.07905599	-0.003782	-2.45	3.01	-0.21	0.4215	0.0068	-0.2975	
-1.022116	0.082716	-0.003294	-1.96	3.71	0.35	0.4201	0.0053	-0.2974	
-1.023336	0.083448	0.000854	-1.68	2.52	0.56	0.4314	0.0189	-0.2912	
-1.016016	0.086742	-0.004148	-1.68	0.77	0.49	0.4242	0.0159	-0.2912	
-1.011502	0.089304	-0.003782	-1.33	1.4	0.35	0.4185	0.01	-0.274	
-1.01504	0.092354	-0.002684	-1.4	1.19	0.56	0.4171	0.007	-0.2834	
-1.015406	0.09577	-0.0122	-1.54	1.05	0.84	0.4243	0.0099	-0.2865	
-1.023214	0.102846	-0.005978	-1.96	1.75	0.7	0.4157	0.0145	-0.2911	
-1.019432	0.107238	0.000488	-2.52	1.26	0.42	0.4172	0.0115	-0.2943	
-1.016016	0.106384	0.00061	-3.64	2.03	0.21	0.4171	0.0175	-0.2911	
-1.017114	0.105408	-0.003904	-4.55	1.68	-0.21	0.4184	0.0191	-0.2802	
-1.016016	0.103334	0.001586	-5.18	0.77	-1.19	0.4157	0.0145	-0.2958	
-1.012722	0.09455	0.002074	-4.97	-0.21	-1.75	0.4301	0.0083	-0.2928	
-1.009794	0.088084	-0.006588	-4.62	0.35	-1.82	0.4171	0.01	-0.2865	
-1.011258	0.0854	-0.002318	-4.06	0.98	-1.75	0.4228	0.0069	-0.2803	
-1.01138	0.084546	-0.001708	-3.85	1.82	-1.26	0.4229	0.0084	-0.2881	
-1.0187	0.09394	-0.00244	-3.92	1.54	-1.96	0.4256	0.0235	-0.2865	
-1.024312	0.095892	-0.001708	-4.2	1.54	-2.8	0.4227	0.025	-0.288	
-1.02053	0.09516	0.002928	-4.55	0	-3.99	0.4185	0.019	-0.2896	
-1.012356	0.088816	-0.002928	-3.64	-0.84	-4.9	0.4213	0.016	-0.2834	
-1.004182	0.079788	-0.002806	-2.8	-0.91	-5.04	0.4271	0.0159	-0.2943	
-1.01321	0.079178	-0.00488	-2.52	-0.07	-4.27	0.4242	0.019	-0.2896	
-1.02114	0.083448	-0.004514	-2.17	0.35	-3.57	0.42	0.0144	-0.2958	
-1.018944	0.078446	-0.004392	-3.78	-1.33	-2.31	0.417	0.0236	-0.288	
-1.012112	0.08686399	-0.004026	-4.76	-1.89	-2.94	0.4242	0.019	-0.2927	
-1.00345	0.083814	0.000488	-6.3	-0.49	-3.08	0.4212	0.0251	-0.2833	
-0.998204	0.075274	0.002318	-5.88	1.26	-3.43	0.4212	0.0281	-0.2817	
-1.001132	0.07124799	0.001708	-4.62	1.68	-3.43	0.4228	0.0189	-0.2974	
-1.005158	0.072224	0.003904	-3.71	1.75	-3.36	0.417	0.0221	-0.2849	
-1.021994	0.071492	0.005856	-1.89	1.68	-3.64	0.4183	0.0266	-0.2817	
-1.016016	0.066856	0.003294	-1.19	0.56	-4.34	0.4256	0.0265	-0.2896	
-1.003084	0.068198	0.004514	-1.68	-0.63	-5.32	0.4283	0.0295	-0.2833	
-0.987956	0.069784	0.012566	-1.96	0.84	-5.74	0.4198	0.0191	-0.2802	
-0.988444	0.06405	0.015372	-1.82	3.08	-6.44	0.4197	0.0327	-0.2848	
-0.995032	0.05429	0.010004	-1.33	4.76	-6.51	0.4227	0.022	-0.2818	
-0.998936	0.045872	0.003172	-0.91	3.29	-5.32	0.4284	0.0325	-0.2927	
-0.999424	0.041846	-0.000854	-0.63	3.64	-4.41	0.4298	0.0325	-0.2896	
-1.001864	0.044286	0.000122	-0.28	3.57	-4.27	0.4156	0.0221	-0.2848	
-1.016016	0.050752	-0.014396	-0.42	3.85	-4.2	0.4212	0.0266	-0.2864	
-1.022482	0.059048	-0.01586	-0.49	5.11	-4.76	0.4269	0.0311	-0.2818	
-1.023458	0.050264	-0.020984	0.28	3.64	-6.23	0.424	0.0372	-0.2833	
-1.015772	0.041358	-0.019276	1.33	2.52	-5.46	0.4196	0.0433	-0.2863	
-1.013454	0.034648	-0.025376	1.47	3.08	-3.99	0.4253	0.0402	-0.2817	
-1.024922	0.053436	-0.019886	0.42	5.81	-3.78	0.4254	0.0341	-0.2786	
-1.041514	0.059658	-0.022326	0.56	4.62	-5.53	0.4283	0.0356	-0.2849	
-1.029436	0.05002	-0.026962	0.98	1.61	-6.72	0.4225	0.0342	-0.2786	
-1.00772	0.042334	-0.022936	1.4	0.56	-5.6	0.4227	0.0221	-0.2802	
-1.000278	0.045872	-0.020374	0.63	2.73	-3.78	0.4282	0.0341	-0.2755	
-1.009428	0.05551	-0.012932	-0.28	5.39	-3.15	0.4281	0.0462	-0.2817	
-1.018822	0.053436	-0.014396	0.14	4.9	-4.27	0.4153	0.0418	-0.2769	
-1.016504	0.041846	-0.01769	-0.35	2.52	-5.04	0.4326	0.031	-0.2834	
-1.013454	0.032452	-0.027694	0	1.75	-4.97	0.4296	0.0371	-0.2786	
-1.005524	0.02684	-0.022204	0.77	3.36	-4.83	0.4282	0.0402	-0.2786	
-1.009916	0.02745	-0.020252	1.19	3.85	-5.67	0.4267	0.0477	-0.2833	
-1.022238	0.035136	-0.05002	0.98	1.68	-5.67	0.424	0.0281	-0.2771	
-1.033462	0.009272	-0.029036	-0.91	-0.42	-4.2	0.4281	0.0432	-0.2786	
-1.049566	0.012932	-0.030622	-1.75	4.97	-0.42	0.421	0.0433	-0.2864	
-1.00162	0.023424	-0.037698	-2.38	3.99	1.68	0.4196	0.0433	-0.277	
-0.973438	0.028914	-0.025742	-2.31	0.56	-0.91	0.4223	0.0494	-0.2692	
-0.971242	0.013786	-0.020252	-0.28	0.84	-2.87	0.4252	0.0433	-0.2692	
-0.99735	0.00488	-0.020252	0.07	1.4	-3.92	0.4239	0.0342	-0.2724	
-1.031388	0.010858	-0.033062	0.7	3.22	-2.31	0.4296	0.0372	-0.2724	
-1.040416	0.018666	-0.035868	0.42	1.61	-0.98	0.4224	0.0433	-0.2801	
-1.023458	0.020008	-0.036112	-0.77	-1.96	-0.28	0.4253	0.0417	-0.2755	
-1.006134	0.020984	-0.043676	-0.63	-1.47	-0.07	0.4265	0.0569	-0.2692	
-1.003572	0.025132	-0.04026	-0.7	1.12	0	0.4253	0.0463	-0.2801	
-1.010038	0.020618	-0.030012	0.28	2.24	-0.49	0.4309	0.0493	-0.2724	
-1.01382	0.017324	-0.0305	1.19	0.49	-1.05	0.4238	0.0463	-0.2708	
-1.009916	0.013176	-0.027572	1.96	0	-0.84	0.4267	0.0447	-0.277	
-1.00284	0.018788	-0.027938	2.66	0.35	-0.35	0.4224	0.0433	-0.2739	
-0.998448	0.021106	-0.02745	3.36	0.49	-0.49	0.4266	0.0478	-0.2754	
-1.008208	0.019642	-0.028914	4.2	0	-0.98	0.4167	0.0464	-0.2785	
-1.013576	0.019764	-0.03477	4.48	0.28	-0.84	0.4267	0.0478	-0.2786	
-1.028826	0.020374	-0.038552	3.78	-0.28	-0.28	0.4267	0.0432	-0.2739	
-1.030656	0.019398	-0.038308	2.8	-1.12	0.63	0.4281	0.0447	-0.2739	
-1.009672	0.020984	-0.037942	2.1	-1.82	1.33	0.4267	0.0447	-0.2801	
-1.00955	0.021472	-0.042334	2.52	-0.49	1.4	0.4238	0.0463	-0.2723	
-1.012234	0.020984	-0.037576	2.1	-0.35	1.68	0.4325	0.0401	-0.2818	
-1.016016	0.019398	-0.0366	1.61	-0.63	1.75	0.4238	0.0448	-0.2739	
-1.017236	0.022204	-0.035136	1.75	-0.98	1.96	0.4267	0.0417	-0.277	
-1.01443	0.023424	-0.032452	1.82	-1.12	2.24	0.4238	0.0418	-0.2739	
-1.01199	0.02135	-0.030744	1.75	-1.68	2.45	0.4296	0.0432	-0.2817	
-1.013576	0.02379	-0.030378	1.75	-1.4	2.94	0.4253	0.0357	-0.2739	
-1.013332	0.025254	-0.03172	1.26	-1.05	3.5	0.4267	0.0357	-0.2708	
-1.008696	0.026962	-0.027938	0.7	-1.19	4.13	0.4267	0.0432	-0.277	
-1.002108	0.027206	-0.022814	0.14	-2.31	4.41	0.4225	0.0387	-0.277	
-1.004426	0.027084	-0.025498	-0.28	-2.1	5.04	0.4238	0.0463	-0.2817	
-1.005524	0.025986	-0.022204	-0.28	-1.33	5.6	0.4254	0.0341	-0.2802	
-1.006988	0.030378	-0.018788	-0.07	-1.33	5.95	0.4281	0.0432	-0.2786	
-1.007842	0.031842	-0.026474	0.14	-1.47	5.88	0.4197	0.0297	-0.2817	
-1.010892	0.035746	-0.028548	-0.21	-1.19	6.09	0.4326	0.0325	-0.2896	
-1.010892	0.035868	-0.02745	-0.56	-1.4	6.37	0.4254	0.0327	-0.2724	
-1.015162	0.037698	-0.031964	-0.7	-2.45	6.79	0.4226	0.0296	-0.2817	
-1.013698	0.040138	-0.027084	-0.49	-2.94	7.14	0.4226	0.0236	-0.2708	
-1.00772	0.041846	-0.019032	0.21	-2.52	6.79	0.4284	0.022	-0.2803	
-1.016748	0.047458	-0.030134	1.33	0.14	6.3	0.4241	0.0236	-0.2771	
-1.014552	0.052216	-0.024156	0.91	-0.84	6.37	0.4183	0.0236	-0.2771	
-1.009062	0.055876	-0.028304	0.98	-1.82	6.3	0.4283	0.0235	-0.2756	
-1.019676	0.053314	-0.032086	0.21	-1.68	7.35	0.4299	0.0159	-0.285	
-0.999912	0.039162	-0.019154	-1.4	-3.22	8.47	0.4271	0.0159	-0.2881	
-1.017724	0.06527	-0.023424	-1.33	-2.38	8.68	0.4284	0.0235	-0.2849	
-1.0126	0.07198	-0.01464	-1.19	-3.15	8.82	0.4299	0.0174	-0.2834	
-1.006378	0.075762	-0.014762	-0.84	-3.85	8.19	0.4213	0.0175	-0.2787	
-1.00772	0.075762	-0.017202	-0.91	-2.1	8.05	0.4241	0.0175	-0.2771	
-1.003816	0.07869	-0.01098	-0.49	-1.68	7.56	0.4283	0.0311	-0.2802	
-1.0126	0.080642	-0.014396	-0.28	-1.75	7.07	0.4141	0.0191	-0.2817	
-1.017846	0.084302	-0.012932	-0.35	-1.89	7.21	0.4241	0.022	-0.2849	
-1.016992	0.094428	-0.008662	-0.07	-2.59	7.07	0.4228	0.0114	-0.285	
-1.01382	0.09357399	-0.011102	0.49	-2.66	6.72	0.4227	0.022	-0.2849	
-1.009428	0.096136	-0.013054	0.63	-2.31	6.37	0.4214	0.0145	-0.288	
-1.006256	0.09857599	-0.008905999	0.77	-1.4	5.6	0.4315	0.0083	-0.2866	
-1.01565	0.101504	-0.012932	1.4	-1.61	4.97	0.4228	0.0144	-0.2912	
-1.027118	0.106384	-0.01464	1.68	-2.8	4.41	0.43	0.0128	-0.2897	
-1.026996	0.108214	-0.015128	1.26	-3.57	3.71	0.4186	0.0039	-0.2865	
-1.023214	0.11529	-0.013664	0.35	-3.22	3.43	0.4328	0.0158	-0.2881	
-1.0187	0.115046	-0.012078	0.35	-3.15	3.01	0.4216	-0.0021	-0.2912	
-1.008452	0.110166	-0.010614	0.91	-2.8	1.82	0.4229	0.0069	-0.2865	
-1.005036	0.1037	-0.003416	0.84	-2.38	1.12	0.4185	0.0145	-0.2911	
-1.010648	0.1037	-0.002928	1.05	-2.31	0.56	0.4273	0.0023	-0.2897	
-1.025166	0.105774	0.000854	1.12	-2.24	-0.14	0.4215	0.0069	-0.2896	
-1.017846	0.105652	-0.000366	1.26	-3.78	-0.42	0.4242	0.0175	-0.2849	
-1.005524	0.108092	-0.00122	0.77	-4.13	-0.21	0.4243	0.0114	-0.2865	
-1.0004	0.106994	0.001098	1.19	-3.36	-0.49	0.4186	0.0024	-0.285	
-0.994056	0.10553	0.001342	0.91	-2.94	-0.7	0.4171	0.01	-0.288	
-1.001864	0.109434	0.004514	0.42	-1.05	-0.98	0.4157	0.007	-0.2849	
-1.009916	0.10248	0.007686	0.56	-0.91	-1.33	0.423	0.0008	-0.2897	
-1.011014	0.09455	0.009881999	0.49	-2.17	-1.19	0.4215	0.0024	-0.2803	
-1.008696	0.095038	0.010736	0.42	-2.73	-0.84	0.4142	0.0101	-0.2771	
-1.005036	0.099918	0.009393999	0.77	-2.31	-1.05	0.4173	-0.0006	-0.2928	
-1.006378	0.096502	0.00244	1.54	-1.4	-1.47	0.4273	0.0038	-0.2959	
-1.006134	0.09076799	0.006222	0.84	-1.89	-1.4	0.4172	0.0115	-0.2943	
-1.014186	0.088816	0.002562	1.12	-1.26	-0.91	0.4172	0.0024	-0.2881	
-1.02175	0.089792	0.00122	1.05	-1.4	-0.63	0.42	0.0144	-0.2943	
-1.023336	0.089426	0.000366	1.68	-2.1	-0.35	0.4157	0.0055	-0.2834	
-1.01931	0.094062	0.00061	2.24	-2.24	-0.28	0.4129	0.0115	-0.2974	
-1.022726	0.09516	-0.000732	2.24	-2.1	-0.21	0.4301	0.0083	-0.2991	
-1.0248	0.09394	0.000244	1.96	-2.38	0	0.4229	0.0083	-0.2959	
-1.01382	0.089182	0.00427	1.54	-2.8	0.7	0.42	0.0099	-0.2943	
-1.010648	0.091866	0.00305	2.03	-1.61	1.26	0.4243	0.0114	-0.2928	
-1.02968	0.114192	0.021472	3.5	0.07	0.63	0.423	0.0008	-0.2866	
-1.023214	0.12444	0.015128	4.97	2.03	-1.68	0.4257	0.0159	-0.2943	
-1.012844	0.101626	0.017568	4.62	-2.45	-3.08	0.4157	0.0115	-0.2943	
-0.994178	0.08601	0.011102	3.85	-1.05	-2.24	0.4172	0.0054	-0.2927	
-0.995154	0.08723	0.00366	3.08	-1.12	-1.26	0.4215	0.0053	-0.2959	
-1.003694	0.08723	0.005856	3.78	-2.52	0.49	0.4172	0.0069	-0.2896	
-1.017236	0.091012	0.010126	2.66	-2.52	2.24	0.4158	0.0039	-0.2927	
-1.0187	0.098698	0.010492	0.14	-2.31	3.15	0.4129	0.007	-0.2896	
-1.007232	0.10309	0.014274	-1.26	-2.38	3.36	0.4216	-0.0021	-0.2959	
-0.99552	0.102724	0.018422	-1.96	-1.26	3.15	0.4158	0.0024	-0.2943	
-0.994422	0.092964	0.019764	-1.75	-0.7	2.94	0.4116	0.0009	-0.2974	
-0.996374	0.08906	0.025376	-1.19	-0.14	3.5	0.4229	0.0114	-0.2912	
-1.001498	0.097112	0.024644	0.14	0.91	3.71	0.4217	-0.0037	-0.2991	
-1.007354	0.10675	0.024278	1.12	1.26	3.29	0.4187	0.0039	-0.2959	
-1.011258	0.111752	0.017934	1.26	0.63	2.73	0.4144	0.0024	-0.2959	
-1.011014	0.107116	0.013786	1.26	0.7	2.59	0.4144	0.0054	-0.2943	
-1.006988	0.09747799	0.008784	0.84	0.49	3.08	0.4173	-0.0036	-0.285	
-1.001132	0.096624	0.009272	0.14	0.77	3.92	0.4244	0.0053	-0.3022	
-1.00406	0.106384	0.008905999	0.7	3.43	4.2	0.413	-0.0005	-0.2943	
-1.013698	0.10858	0.011468	1.33	4.62	3.99	0.4217	-0.0082	-0.2928	
-1.01443	0.117608	0.010004	1.33	2.03	3.43	0.4231	-0.0037	-0.2991	
-1.011258	0.116144	0.003782	1.47	2.38	3.15	0.4102	-0.002	-0.2943	
-1.009184	0.111508	0.005612	0.84	2.94	3.5	0.4217	-0.009699999	-0.2882	
-1.004914	0.115046	0.007442	-0.14	2.17	4.76	0.4187	0.0008	-0.2943	
-1.001376	0.121146	0.00549	-0.56	4.34	5.88	0.4203	-0.0082	-0.2991	
-0.99857	0.12688	0.009028	-1.54	4.76	6.72	0.4259	-0.0082	-0.2851	
-1.011624	0.136518	0.003538	-2.03	3.92	6.44	0.4246	-0.0112	-0.2929	
-1.023946	0.135054	0.003294	-2.17	3.85	6.65	0.4175	-0.0127	-0.2959	
-1.018456	0.129198	-0.000976	-1.33	2.94	7.56	0.4287	-0.0037	-0.2882	
-1.026874	0.116022	-0.007686	0	2.52	8.19	0.4259	-0.0022	-0.2928	
-1.022604	0.117242	-0.004636	-0.28	0.77	9.17	0.4131	-0.0051	-0.2928	
-1.009428	0.125904	-0.01342	-0.21	0.35	9.38	0.4202	-0.0082	-0.2897	
-0.99857	0.137128	-0.01525	0.14	2.66	8.61	0.4217	-0.0082	-0.2913	
-1.00833	0.14213	-0.013542	0.63	3.5	7.77	0.4246	-0.0188	-0.2898	
-1.013454	0.147742	-0.011102	0.42	2.17	7.63	0.4232	-0.0188	-0.2835	
-1.010404	0.151036	-0.011102	0.56	0.49	7.42	0.4246	-0.0173	-0.2898	
-1.006378	0.160796	-0.010004	-0.07	0.28	7.14	0.4217	-0.0127	-0.296	
-1.008818	0.164334	-0.008296	0.63	1.68	6.93	0.4204	-0.0263	-0.2867	
-1.011136	0.16409	-0.004636	0.91	1.12	7.21	0.426	-0.0173	-0.2867	
-1.010282	0.164578	-0.00427	0.84	-1.26	8.05	0.4161	-0.0233	-0.2913	
-1.009062	0.163968	-0.002684	0.63	-1.75	8.82	0.4232	-0.0233	-0.2836	
-1.002474	0.163236	-0.003172	0.98	-1.68	9.03	0.4245	-0.0187	-0.2773	
-0.996374	0.162748	-0.004148	1.26	-1.75	8.54	0.4218	-0.0218	-0.2882	
-0.995642	0.164212	0.002196	1.68	-0.35	7.77	0.416	-0.0126	-0.2866	
-0.998204	0.165676	0.000488	1.75	-0.14	7.77	0.4261	-0.0248	-0.2789	
-0.990884	0.171044	0.00122	1.12	-0.35	7.84	0.4205	-0.0279	-0.2945	
-0.980514	0.181414	0.001464	0.91	-0.84	7.35	0.4261	-0.0249	-0.2883	
-0.98088	0.180682	-0.00061	1.19	0.28	6.65	0.4289	-0.0279	-0.2789	
-0.990884	0.188246	-0.006832	1.4	0.35	5.81	0.4233	-0.0294	-0.282	
-1.001986	0.188124	-0.00854	2.17	0.35	4.9	0.4134	-0.0338	-0.2945	
-1.001986	0.190198	-0.006222	1.61	-2.03	4.62	0.4276	-0.034	-0.2836	
-0.998936	0.196664	-0.008174	1.26	-2.38	4.13	0.419	-0.0354	-0.2805	
-0.995886	0.198616	-0.006344	1.4	-1.75	3.57	0.4233	-0.0324	-0.2883	
-0.997106	0.19703	-0.005612	1.33	-0.63	3.43	0.4176	-0.0353	-0.2804	
-0.99369	0.19581	-0.000488	0.63	-1.33	3.71	0.4206	-0.046	-0.2883	
-0.983808	0.193858	0.00366	0.42	-1.82	3.36	0.4161	-0.0278	-0.2835	
-0.97783	0.199592	0.006222	0.63	-1.05	2.38	0.4206	-0.0399	-0.2867	
-0.98027	0.202642	0.006832	1.4	-0.14	1.12	0.4234	-0.046	-0.2805	
-0.982832	0.202642	0.006588	1.68	-0.28	0.42	0.4191	-0.0354	-0.2929	
-0.984174	0.203008	0.008052	0.91	-0.56	0.35	0.4177	-0.0384	-0.2945	
-0.985516	0.205326	0.00732	0.14	-0.49	0.14	0.4191	-0.0384	-0.2852	
-0.981002	0.202886	0.007442	-0.14	-0.07	-0.21	0.4163	-0.0444	-0.2852	
-0.984174	0.199958	0.007686	-0.21	0.98	-0.49	0.4163	-0.0384	-0.2992	
-0.98881	0.197274	0.00427	-0.35	1.68	-0.49	0.4235	-0.0445	-0.2868	
-0.984906	0.199958	0.00305	-0.91	1.33	-0.42	0.4207	-0.0506	-0.2946	
-0.985516	0.201422	-0.00061	-1.05	1.4	-0.77	0.4205	-0.0339	-0.2945	
-0.985028	0.202764	0.001708	-1.12	1.47	-1.4	0.4248	-0.04	-0.2868	
-0.990152	0.198494	-0.000732	-0.98	1.33	-2.17	0.4204	-0.0263	-0.2851	
-0.99369	0.194468	-0.000488	-0.98	1.26	-2.59	0.4291	-0.034	-0.2899	
-0.993446	0.194346	-0.004392	-1.12	1.33	-2.66	0.4263	-0.0385	-0.2883	
-0.991494	0.196542	-0.007198	-1.4	1.26	-2.94	0.4277	-0.031	-0.2961	
-0.99369	0.195322	-0.007442	-1.33	1.33	-3.29	0.4177	-0.0399	-0.2883	
-0.998082	0.191418	-0.009272	-1.33	1.12	-3.71	0.4206	-0.0385	-0.2914	
-1.001864	0.189344	-0.010248	-1.54	1.26	-4.13	0.4176	-0.0339	-0.2882	
-0.997106	0.190808	-0.011224	-1.33	0.49	-4.62	0.4161	-0.0263	-0.2835	
-0.992348	0.187026	-0.009638	-0.84	0.56	-5.39	0.4263	-0.0355	-0.2914	
-0.98942	0.184952	-0.005368	-0.7	0.91	-6.09	0.4203	-0.0218	-0.2851	
-0.98942	0.186904	-0.001708	-0.63	0.63	-7	0.419	-0.0339	-0.2851	
-0.99491	0.188002	-0.002196	-0.14	0.56	-7.91	0.4203	-0.0248	-0.2773	
-0.992958	0.183488	-0.001342	-0.07	0.35	-8.33	0.4204	-0.0233	-0.2851	
-0.989542	0.179218	0.00122	-0.42	0.14	-8.4	0.432	-0.0371	-0.2868	
-0.989298	0.174216	0.000244	-0.14	0.14	-8.68	0.4218	-0.0218	-0.2835	
-0.989908	0.17019	0.004026	0.28	-0.07	-9.17	0.4203	-0.0187	-0.2866	
-0.995764	0.169458	0.00183	0.77	-0.42	-9.87	0.4175	-0.0233	-0.2866	
-0.998204	0.165066	-0.000976	0.84	-0.91	-10.43	0.4261	-0.0249	-0.2898	
-0.999302	0.157014	-0.00122	0.77	-0.7	-10.64	0.4247	-0.0264	-0.2836	
-0.997472	0.151524	-0.002074	0.7	-0.42	-10.57	0.4173	-0.0081	-0.285	
-0.998204	0.145912	-0.00244	0.98	-0.21	-10.5	0.4188	-0.0142	-0.2882	
-1.001864	0.142618	-0.00427	1.4	-0.21	-10.78	0.4247	-0.0219	-0.2945	
-1.006988	0.140788	-0.006466	1.68	-0.56	-11.34	0.4259	-0.0142	-0.2804	
-1.011502	0.13908	-0.008905999	1.82	-0.7	-11.41	0.4217	-0.0142	-0.2866	
-1.010526	0.132858	-0.008905999	1.61	-1.12	-11.2	0.4274	-0.0067	-0.2913	
-1.01199	0.12566	-0.008417999	0.98	-1.68	-10.85	0.4174	-0.0096	-0.2881	
-1.013088	0.121756	-0.008662	0.56	-1.4	-10.43	0.423	-0.0036	-0.2819	
-1.010648	0.118462	-0.0061	0.28	-1.12	-9.8	0.4217	-0.009699999	-0.296	
-1.010648	0.113582	-0.005856	-0.07	-0.77	-8.96	0.4174	-0.0112	-0.2944	
-1.013942	0.11102	-0.005856	-0.49	-0.42	-8.33	0.4217	-0.0112	-0.2882	
-1.015772	0.110776	-0.002928	-1.05	-0.56	-7.84	0.4159	-0.0006	-0.299	
-1.008452	0.108214	0.003416	-0.91	-0.21	-7.42	0.4231	-0.0067	-0.296	
-0.997594	0.108458	0.00976	-0.42	0	-7	0.4215	-0.0006	-0.2819	
-0.998448	0.107116	0.011224	0	0.7	-6.86	0.423	-0.0036	-0.2819	
-1.006744	0.101992	0.014762	1.12	0.56	-7.14	0.4259	-0.0067	-0.2851	
-1.01199	0.09942999	0.008662	1.75	-0.84	-7.63	0.4186	0.0054	-0.2849	
-1.010526	0.098332	-0.00061	1.89	-1.05	-7.91	0.4158	0.0009	-0.2865	
-1.010404	0.096502	-0.007076	1.4	-0.42	-7.84	0.4201	0.0009	-0.2834	
-1.02114	0.09162199	-0.012322	1.05	1.19	-7	0.4272	0.0038	-0.2913	
-1.026508	0.088572	-0.014152	0.49	1.12	-5.67	0.4243	0.0069	-0.2834	
-1.031388	0.08601	-0.016836	-0.14	0.28	-4.62	0.4172	0.0054	-0.2943	
-1.040294	0.087352	-0.015128	-0.14	0.56	-3.92	0.4156	0.016	-0.288	
-1.034194	0.08686399	-0.011102	-0.21	-0.21	-3.43	0.43	0.0053	-0.2835	
-1.01565	0.082228	-0.0122	-0.49	-0.35	-2.94	0.4257	0.0129	-0.2834	
-1.010892	0.073322	-0.005124	-0.7	0.7	-2.17	0.4213	0.0145	-0.2787	
-1.018944	0.06954	-0.002196	-1.05	0.42	-1.19	0.4157	0.0115	-0.2943	
-1.021872	0.071126	0.000366	-0.91	-0.56	-0.49	0.4229	0.0053	-0.2928	
-1.013332	0.073566	-0.002928	-0.98	-0.56	-0.07	0.4229	0.0069	-0.2819	
-1.009306	0.076128	-0.00366	-0.98	0.35	0.42	0.4143	0.0085	-0.2849	
-1.006256	0.07442	-0.002928	-1.4	0.77	1.05	0.4257	0.0054	-0.2788	
-1.001864	0.07625	-0.00427	-1.19	1.68	1.75	0.42	0.0084	-0.2912	
-1.005402	0.081984	-0.001586	-1.89	1.89	2.52	0.4142	0.0131	-0.2786	
-1.013576	0.089792	-0.001708	-1.75	1.89	2.59	0.4157	0.0085	-0.2802	
-1.016504	0.09394	-0.002074	-1.61	1.75	2.66	0.4259	0.0008	-0.2928	
-1.015406	0.099186	-0.005002	-2.38	0.7	2.73	0.4244	0.0038	-0.2912	
-1.013332	0.098332	-0.009516	-3.29	0	2.66	0.4171	0.0115	-0.2849	
-1.016382	0.096014	-0.013786	-3.22	1.33	2.59	0.4201	-0.0005	-0.2834	
-1.010038	0.09394	-0.013542	-3.15	1.19	2.38	0.4271	0.0054	-0.2725	
-1.013942	0.095648	-0.011956	-2.8	0.77	2.1	0.4229	0.0084	-0.2865	
-1.016992	0.09638	-0.010126	-3.15	0.63	2.1	0.4185	0.0025	-0.2709	
-1.022848	0.101992	-0.007808	-3.78	0.56	2.03	0.4287	-0.0007	-0.2866	
-1.026142	0.106018	-0.011224	-3.64	0.42	1.05	0.4228	0.0099	-0.2818	
-1.011014	0.10248	-0.004514	-3.15	-0.98	0.14	0.4157	0.0085	-0.2865	
-1.001254	0.103944	-0.004636	-2.17	-0.98	-0.21	0.4228	0.0084	-0.2818	
-1.002596	0.106384	-0.003172	-1.47	0.7	-0.7	0.4214	0.0069	-0.2834	
-1.006012	0.108458	0.000854	-1.19	1.47	-1.19	0.4185	0.0145	-0.2865	
-1.022116	0.11041	-0.002806	-2.87	-0.21	-2.17	0.4284	0.019	-0.2803	
-1.013088	0.09882	-0.010004	-3.29	-1.68	-3.15	0.4199	0.013	-0.2787	
-1.009184	0.093696	-0.0122	-3.29	-0.7	-3.57	0.4156	0.0161	-0.2802	
-1.006378	0.089548	-0.006954	-2.24	0	-3.92	0.4258	-0.0021	-0.285	
-1.00894	0.08784	-0.00732	-0.77	0.49	-4.41	0.4156	0.01	-0.2771	
-1.016138	0.085644	-0.002928	-0.14	1.54	-4.83	0.4143	0.004	-0.2756	
-1.013576	0.084668	-0.004392	-0.35	0.49	-5.39	0.4271	0.0114	-0.2819	
-1.006256	0.081984	-0.005368	0.35	0.28	-5.88	0.4213	0.0175	-0.2802	
-1.009306	0.076616	-0.003782	1.33	1.19	-6.09	0.42	0.0099	-0.2865	
-1.012966	0.07503	0.000366	2.17	1.61	-6.23	0.4114	0.0146	-0.2895	
-1.017846	0.078568	-0.002196	2.38	1.33	-6.44	0.4228	0.0114	-0.285	
-1.012966	0.078202	-0.006588	1.82	1.12	-6.79	0.4314	0.0083	-0.2757	
-1.012722	0.077348	-0.00854	0.77	0.98	-6.86	0.4171	0.0115	-0.2818	
-1.012966	0.07137	-0.011468	-0.21	1.19	-6.65	0.4142	0.0146	-0.2833	
-1.018212	0.068564	-0.011956	-0.84	1.33	-6.3	0.4198	0.0206	-0.2771	
-1.020286	0.068442	-0.012566	-0.77	0.63	-5.95	0.427	0.0205	-0.2834	
-1.013576	0.065392	-0.011346	-0.63	-0.56	-5.67	0.4213	0.0221	-0.2818	
-1.01138	0.058438	-0.009638	-0.42	-1.19	-5.53	0.4299	0.0204	-0.2865	
-1.016748	0.053802	-0.011956	-0.42	-1.61	-5.25	0.4313	0.0235	-0.2818	
-1.014308	0.0488	-0.012688	-0.7	-2.59	-4.9	0.4213	0.019	-0.2818	
-1.014674	0.051484	-0.011224	-0.42	-2.1	-4.9	0.4227	0.0266	-0.2864	
-1.020042	0.050142	-0.010248	-0.35	-1.47	-4.97	0.4183	0.0281	-0.2848	
-1.019188	0.049776	-0.007564	-0.7	-2.03	-4.48	0.4199	0.013	-0.2849	
-1.013454	0.046848	-0.000854	-0.84	-2.59	-3.85	0.4169	0.0327	-0.2879	
-1.01016	0.04819	-0.00244	-1.54	-1.33	-3.22	0.4212	0.0281	-0.288	
-1.009428	0.05063	0.000122	-2.45	0.14	-3.36	0.4141	0.0282	-0.2848	
-1.010892	0.051118	0.001952	-2.87	1.19	-3.5	0.427	0.0205	-0.2849	
-1.006256	0.04392	0.00122	-2.8	0.84	-3.5	0.4184	0.0221	-0.2849	
-1.001742	0.040992	0.000244	-2.73	0.91	-2.94	0.4183	0.0327	-0.2801	
-1.000644	0.039162	0.000732	-2.45	1.19	-1.82	0.4225	0.0372	-0.2786	
-0.99674	0.038186	0.004514	-3.29	0.77	-0.49	0.4254	0.0326	-0.2786	
-1.008208	0.044774	0.001708	-4.06	1.61	0.14	0.4225	0.0357	-0.277	
-1.007842	0.052704	0.003782	-4.27	0.98	-0.42	0.4297	0.0326	-0.2818	
-1.005158	0.047824	0.001098	-3.57	0.49	-1.47	0.414	0.0373	-0.2879	
-1.002962	0.037454	-0.003294	-2.17	1.12	-1.05	0.424	0.0341	-0.2833	
-1.011258	0.036112	-0.005124	-2.38	1.75	-0.7	0.4298	0.0295	-0.2927	
-1.025166	0.042456	-0.006344	-2.03	2.03	-1.05	0.4196	0.0373	-0.277	
-1.031998	0.043554	-0.01464	-1.54	1.26	-1.19	0.4197	0.0372	-0.2817	
-1.009184	0.027816	-0.012932	-1.61	-0.49	-0.49	0.4227	0.0251	-0.2849	
-1.00711	0.032452	-0.012444	-1.47	0.56	-0.07	0.4168	0.0342	-0.2801	
-1.00833	0.039284	-0.01281	-2.52	2.8	0.84	0.4226	0.0342	-0.2833	
-1.017602	0.045384	-0.006954	-3.71	4.55	0.35	0.4226	0.0281	-0.2755	
-1.021384	0.046482	-0.004392	-3.36	3.57	-1.82	0.4254	0.0341	-0.2849	
-1.01321	0.0366	-0.006832	-2.59	2.52	-2.52	0.4255	0.0265	-0.2849	
-1.001986	0.036844	-0.004758	-1.68	3.29	-1.75	0.4283	0.0311	-0.2787	
-1.014552	0.044652	-0.01647	-1.47	5.18	-0.77	0.4281	0.0492	-0.2833	
-1.023214	0.061976	-0.011956	-1.89	6.16	-0.98	0.4282	0.0356	-0.274	
-1.035414	0.059536	-0.019276	-2.45	4.48	-1.96	0.4226	0.0281	-0.2786	
-1.022238	0.0488	-0.025864	-3.22	2.66	-1.4	0.4253	0.0402	-0.2802	
-1.003572	0.03355	-0.021716	-3.78	2.24	0.07	0.4282	0.0432	-0.2848	
-0.991738	0.033306	-0.021594	-2.59	2.87	0.7	0.4224	0.0418	-0.2676	
-1.009428	0.037454	-0.023668	-2.03	3.99	1.05	0.4282	0.0372	-0.2755	
-1.023092	0.032452	-0.026596	-0.35	3.15	-0.56	0.4281	0.0327	-0.2615	
-1.030534	0.03355	-0.033428	0.49	0.7	-2.59	0.4239	0.0357	-0.277	
-1.024068	0.031842	-0.034404	1.19	-0.84	-3.92	0.4268	0.0296	-0.2755	
-1.021506	0.033916	-0.033916	1.33	-0.28	-4.2	0.4339	0.0416	-0.274	
-1.020164	0.034892	-0.028792	1.12	0.42	-3.71	0.4268	0.0342	-0.2708	
-1.016016	0.03538	-0.027816	0.7	0.21	-3.36	0.421	0.0403	-0.2692	
-1.011136	0.035258	-0.025986	0.35	-0.91	-3.15	0.4224	0.0463	-0.277	
-1.0004	0.030378	-0.01647	0.42	-1.47	-2.87	0.4296	0.0401	-0.2802	
-1.001254	0.02562	-0.013298	0.7	-0.91	-2.59	0.4239	0.0387	-0.2802	
-1.005768	0.022936	-0.014274	0.56	-0.14	-1.96	0.4295	0.0507	-0.2833	
-1.009672	0.025986	-0.014152	0.84	0.42	-1.68	0.4253	0.0432	-0.2755	
-1.012966	0.02745	-0.016226	1.47	0.28	-2.1	0.4224	0.0463	-0.2785	
-1.009794	0.027328	-0.0183	1.54	-0.91	-2.52	0.4281	0.0402	-0.2677	
-1.005036	0.02562	-0.016348	1.82	-0.91	-2.8	0.4139	0.0403	-0.2785	
-1.01016	0.022814	-0.02074	2.45	0.35	-3.08	0.4266	0.0539	-0.2723	
-1.01382	0.023668	-0.025376	2.73	0.7	-2.8	0.4267	0.0387	-0.2724	
-1.012722	0.024278	-0.022936	2.52	-0.07	-2.38	0.4238	0.0403	-0.2723	
-1.009916	0.020374	-0.025132	2.59	-0.63	-1.96	0.4281	0.0432	-0.2786	
-1.012478	0.018788	-0.026718	2.17	0	-1.33	0.4251	0.0493	-0.2676	
-1.016504	0.018422	-0.025498	1.75	0.07	-0.77	0.4195	0.0463	-0.277	
-1.017358	0.016958	-0.023424	1.61	-0.63	-0.42	0.4224	0.0402	-0.277	
-1.013698	0.015006	-0.021472	1.82	-0.84	-0.35	0.4239	0.0432	-0.2833	
-1.01321	0.015006	-0.02501	2.31	-0.42	-0.28	0.4253	0.0357	-0.2739	
-1.01138	0.013908	-0.024156	1.82	-0.28	0.35	0.4267	0.0447	-0.2755	
-1.010282	0.016836	-0.02135	1.19	-0.28	0.98	0.4239	0.0417	-0.2833	
-1.013576	0.019398	-0.020374	1.05	-0.56	1.19	0.4253	0.0432	-0.2801	
-1.009428	0.019764	-0.01708	1.05	-0.63	1.47	0.4324	0.0447	-0.2771	
-1.006378	0.021472	-0.014762	0.7	-0.35	2.03	0.4267	0.0417	-0.2755	
-1.009794	0.024034	-0.016104	0.77	0.07	2.03	0.4238	0.0478	-0.277	
-1.006134	0.024278	-0.015006	0.84	0	2.1	0.4238	0.0508	-0.2879	
-1.01077	0.02501	-0.019886	0.77	0.21	2.38	0.4168	0.0403	-0.2817	
-1.014674	0.030988	-0.021472	0.7	0.49	2.66	0.424	0.0357	-0.2817	
-1.014918	0.030988	-0.019276	0.35	-0.42	3.08	0.4296	0.0356	-0.2724	
-1.014186	0.031476	-0.024644	0.07	-0.63	3.64	0.4195	0.0464	-0.2692	
-1.00955	0.029402	-0.020862	-0.07	-0.49	3.57	0.4325	0.0401	-0.2771	
-1.013088	0.027694	-0.020374	0.56	0.21	3.29	0.4254	0.0386	-0.2895	
-1.022848	0.029768	-0.023546	0.63	0.21	3.22	0.4239	0.0342	-0.2755	
-1.024312	0.03172	-0.023668	0.63	-0.98	3.36	0.4296	0.0447	-0.2833	
-1.016504	0.033916	-0.023302	0.77	-2.03	3.5	0.4253	0.0387	-0.2802	
-1.012722	0.036356	-0.0244	0.98	-1.4	3.5	0.4182	0.0418	-0.2817	
-1.010038	0.03843	-0.021228	0.98	-0.7	3.5	0.4197	0.0342	-0.2848	
-1.014308	0.039528	-0.02013	0.91	-0.7	3.71	0.4239	0.0387	-0.2833	
-1.014674	0.038918	-0.017446	0.56	-1.26	4.06	0.424	0.0356	-0.2848	
-1.0126	0.040992	-0.016592	0.14	-1.75	4.34	0.4169	0.0327	-0.2832	
-1.010282	0.043432	-0.013542	-0.14	-1.61	4.55	0.4154	0.0327	-0.2848	
-1.007842	0.045384	-0.011346	-0.28	-1.4	4.83	0.4212	0.0326	-0.2895	
-1.006866	0.045994	-0.01342	-0.49	-1.26	5.04	0.4297	0.0356	-0.2771	
-1.010038	0.044164	-0.015006	-0.63	-1.05	5.32	0.4197	0.0251	-0.2739	
-1.01626	0.046116	-0.017324	-0.84	-1.05	5.46	0.4226	0.0296	-0.2849	
-1.01687	0.045994	-0.01891	-1.05	-1.19	5.67	0.434	0.037	-0.2849	
-1.016504	0.054656	-0.01708	-1.05	-1.61	5.6	0.4312	0.028	-0.2849	
-1.011868	0.059536	-0.010736	-0.49	-2.24	5.53	0.4183	0.0252	-0.2724	
-1.011868	0.060634	-0.011834	-0.28	-1.75	5.53	0.4211	0.0372	-0.2833	
-1.008086	0.059536	-0.01159	-0.35	-1.47	5.88	0.4142	0.016	-0.2911	
-1.005646	0.05917	-0.011468	-0.84	-1.19	6.37	0.4297	0.025	-0.2725	
-1.006378	0.05917	-0.010492	-0.63	-1.19	6.44	0.4269	0.0265	-0.2802	
-1.013454	0.061366	-0.008905999	-0.7	-1.54	6.58	0.4169	0.0267	-0.2833	
-1.012478	0.066124	-0.005978	-0.63	-1.75	6.58	0.4241	0.0235	-0.2833	
-1.008574	0.070028	-0.004148	-0.49	-1.82	6.37	0.4214	0.013	-0.2818	
-1.005036	0.072224	-0.003172	-0.07	-1.75	6.02	0.4242	0.0205	-0.2927	
-1.008696	0.076738	-0.005246	0.42	-1.33	5.53	0.427	0.0205	-0.2771	
-1.007842	0.07991	-0.007198	0.91	-1.96	5.18	0.4283	0.0281	-0.2787	
-1.010526	0.080886	-0.009028	0.98	-1.75	5.32	0.4341	0.0235	-0.2756	
-1.01443	0.082228	-0.012688	0.77	-1.4	5.88	0.4214	0.0099	-0.2865	
-1.025166	0.09455	-0.030012	0.49	3.01	5.46	0.427	0.019	-0.274	
-1.02236	0.096014	-0.016226	1.12	-0.07	5.32	0.4299	0.0144	-0.2772	
-1.018456	0.091866	-0.014152	0.49	-2.03	5.04	0.4241	0.019	-0.274	
-1.018334	0.093452	-0.014396	0.49	-1.19	4.97	0.4214	0.0054	-0.2787	
-1.010404	0.09028	-0.007564	0	-1.4	4.55	0.4227	0.0145	-0.2771	
-1.012844	0.092476	-0.010736	0.91	-1.12	3.71	0.4214	0.0099	-0.2865	
-1.017358	0.095892	-0.007929999	1.61	-0.84	3.01	0.4256	0.016	-0.2771	
-1.013454	0.097844	0.000366	1.96	-2.24	2.31	0.4229	0.0099	-0.2865	
-1.007354	0.099064	-0.001586	1.61	-4.34	2.1	0.43	0.0068	-0.2741	
-1.016992	0.097112	-0.005124	1.4	-3.85	2.31	0.4143	0.004	-0.2802	
-1.021384	0.10126	-0.006588	1.4	-2.03	2.87	0.4242	0.0145	-0.2756	
-1.01931	0.105774	-0.008052	1.33	-1.89	3.01	0.4216	0.0023	-0.299	
-1.025532	0.116754	-0.00061	1.12	-1.96	1.82	0.4256	0.0129	-0.2772	
-1.023824	0.119926	-0.008417999	1.12	-2.45	0.28	0.42	0.0099	-0.2912	
-1.017846	0.111752	-0.005002	1.33	-2.17	-0.14	0.4142	0.0115	-0.2849	
-1.003572	0.102236	0.002806	0.91	-2.8	0.14	0.423	0.0023	-0.2912	
-1.001864	0.101382	0.00305	0.49	-3.29	0.63	0.4242	0.0145	-0.2818	
-1.009306	0.104188	0.006222	0.49	-2.03	0.77	0.4143	0.0115	-0.2896	
-1.01077	0.10431	0.0061	0.35	-2.52	0.49	0.4087	0.0009	-0.2958	
-1.01626	0.100162	0.005612	-0.07	-3.29	0	0.4213	0.0115	-0.274	
-1.012112	0.095648	0.004148	-0.21	-3.71	-0.42	0.4229	0.0069	-0.2834	
-1.007964	0.096136	0.007076	0	-3.57	-0.49	0.4258	0.0083	-0.2912	
-1.00833	0.097234	0.013786	0.63	-2.87	-0.49	0.4184	0.0161	-0.2755	
-1.008086	0.098088	0.010736	1.12	-2.66	-0.7	0.4216	-0.0036	-0.2913	
-1.004914	0.098698	0.009393999	1.54	-2.24	-0.84	0.4186	0.0054	-0.2912	
-1.003816	0.099186	0.010858	1.96	-1.68	-1.26	0.4187	0.0023	-0.2943	
-1.005768	0.100162	0.01342	2.03	-1.61	-1.54	0.4101	0.0085	-0.2974	
-1.010892	0.101504	0.013786	1.89	-1.96	-1.54	0.4186	0.0099	-0.2912	
-1.01504	0.102236	0.0122	1.75	-2.17	-1.4	0.4215	0.0024	-0.285	
-1.00711	0.098698	0.017446	1.4	-2.66	-1.33	0.4215	0.0054	-0.2881	
-1.000888	0.095892	0.017934	1.12	-2.17	-1.19	0.4229	0.0038	-0.2881	
-0.999546	0.094062	0.017812	1.12	-0.77	-0.91	0.4143	0.0055	-0.2818	
-1.006378	0.093208	0.019154	1.12	0	-0.7	0.4215	-0.0036	-0.2819	
-1.013332	0.09455	0.018666	1.12	0.28	-0.63	0.4087	0.0009999999	-0.288	
-1.014918	0.09638	0.015738	1.26	-0.42	-0.49	0.4214	0.0099	-0.2881	
-1.00833	0.096502	0.015128	1.19	-0.56	-0.49	0.4143	0.007	-0.2849	
-1.001864	0.094916	0.015616	1.12	-0.21	-0.56	0.4229	0.0053	-0.2928	
-1.004426	0.093696	0.015128	1.19	0.7	-0.42	0.4201	0.0024	-0.2865	
-1.009916	0.095282	0.014274	0.84	1.33	-0.07	0.4215	0.0069	-0.2912	
-1.010282	0.098332	0.014884	0.35	1.12	0.14	0.4114	0.008599999	-0.2786	
-1.006012	0.098332	0.018056	0	0.63	0.21	0.4129	0.0085	-0.2958	
-1.009428	0.096746	0.011834	0	0.56	-0.07	0.4201	0.0023	-0.2912	
-1.004426	0.09699	0.014518	0.21	0.84	-0.28	0.4271	0.0099	-0.285	
-1.003572	0.096868	0.014274	0.35	1.54	-0.42	0.4143	0.0085	-0.2927	
-1.0126	0.09394	0.010004	1.19	2.17	-0.7	0.4271	0.0129	-0.2865	
-1.019676	0.09516	0.008905999	0.91	0.56	-0.63	0.4186	0.0084	-0.2865	
-1.017968	0.099064	0.012688	1.26	-0.63	-1.05	0.4142	0.013	-0.2864	
-1.01382	0.103456	0.008784	0.63	-1.89	-1.26	0.4185	0.01	-0.2834	
-1.010282	0.10187	0.00671	-0.35	-0.98	-0.91	0.4229	0.0099	-0.2974	
-1.012478	0.092598	0.005612	-1.75	-0.77	-0.07	0.4172	0.0069	-0.2927	
-1.016382	0.093452	0.005978	-3.22	-1.54	0.91	0.4228	0.016	-0.2865	
-1.015406	0.094062	0.007929999	-5.32	-0.77	1.89	0.4143	0.007	-0.2927	
-1.016382	0.095892	0.012444	-6.65	-0.56	2.59	0.4172	0.013	-0.2943	
-1.006012	0.09552599	0.018056	-8.05	-1.26	3.57	0.4201	0.0024	-0.285	
-1.006134	0.094916	0.014884	-8.75	0.21	4.41	0.4314	0.0083	-0.2772	
-1.006988	0.095648	0.019398	-8.4	1.33	4.76	0.4216	0.0008	-0.2928	
-1.00223	0.095282	0.012932	-7.49	1.54	4.97	0.4171	0.013	-0.2911	
-1.005524	0.099796	0.014274	-7.14	3.36	4.76	0.4143	0.0115	-0.2943	
-1.005768	0.107726	0.01464	-7	2.94	4.41	0.4258	0.0053	-0.2912	
-1.011258	0.103944	0.015738	-6.65	1.61	3.85	0.4242	0.019	-0.288	
-1.018334	0.104066	0.013664	-6.23	3.71	4.41	0.4143	0.0085	-0.2911	
-1.016016	0.106384	0.014152	-5.6	3.36	5.32	0.427	0.019	-0.2849	
-0.999546	0.106384	0.013054	-5.18	2.03	4.83	0.4171	0.01	-0.2849	
-1.001742	0.114314	0.011468	-4.55	2.8	4.27	0.4187	0.0024	-0.2896	
-1.01382	0.119926	0.008174	-4.83	4.2	4.41	0.4172	0.0039	-0.2803	
-1.008452	0.118828	0.014396	-4.62	2.8	4.34	0.4201	0.0024	-0.2834	
-0.99857	0.113582	0.016958	-4.76	1.54	4.41	0.4214	0.0129	-0.2943	
-1.004426	0.111752	0.016958	-5.46	3.57	5.11	0.4073	-0.0034	-0.2849	
-1.007232	0.122	0.002074	-6.51	4.41	7	0.4158	0.0009	-0.2881	
-1.001254	0.116632	0.00915	-10.57	5.53	8.68	0.4173	-0.0021	-0.2881	
-1.002474	0.135908	0.001586	-10.15	5.74	8.26	0.4229	-0.0006	-0.2819	
-1.003206	0.13969	0.001586	-11.06	5.53	8.26	0.4158	-0.002	-0.2865	
-1.012722	0.133956	-0.002806	-9.94	4.55	7.77	0.4229	0.0024	-0.2819	
-1.001864	0.131882	-0.002684	-10.57	3.57	7.7	0.4244	-0.0006	-0.2835	
-1.01565	0.131394	-0.00244	-9.45	4.69	6.72	0.4201	0.0054	-0.2881	
-1.021018	0.134688	-0.000854	-9.24	3.99	7.98	0.4285	0.0114	-0.2819	
-1.016504	0.15189	-0.007686	-10.99	4.06	9.66	0.42	0.0054	-0.2865	
-0.998082	0.16165	-0.0122	-11.13	2.59	9.66	0.4259	-0.0037	-0.296	
-0.997472	0.162016	-0.010614	-11.76	3.85	9.1	0.4257	0.0038	-0.2788	
-0.989908	0.15067	-0.00122	-10.64	3.15	7.77	0.4142	0.0101	-0.2755	
-1.006866	0.155794	-0.014762	-9.94	2.8	7.56	0.4272	0.0038	-0.2819	
-1.018212	0.15555	-0.011224	-9.45	3.99	6.58	0.4244	-0.0036	-0.2772	
-1.015772	0.159576	-0.01281	-9.24	1.26	6.02	0.4257	0.0008	-0.2757	
-0.99491	0.158844	-0.007929999	-9.52	0	6.3	0.43	0.0098	-0.2819	
-0.990396	0.157624	-0.00976	-9.8	2.73	6.58	0.4244	-0.0036	-0.2804	
-0.99796	0.162504	-0.009638	-10.22	4.69	7	0.4186	-0.002	-0.2663	
-1.003572	0.16531	-0.004636	-9.52	3.22	7.42	0.4258	0.0038	-0.2866	
-0.997106	0.171532	-0.005856	-9.24	2.03	7.56	0.4187	-0.002	-0.2819	
-0.989786	0.177266	0.002318	-8.12	2.38	6.93	0.4359	-0.0083	-0.2851	
-0.99186	0.17446	-0.00183	-7.7	3.08	5.32	0.4258	-0.0051	-0.2726	
-0.98698	0.176412	0.000366	-6.86	2.66	4.2	0.4173	-0.0081	-0.2819	
-0.987346	0.180438	-0.002928	-5.88	3.99	3.22	0.4243	0.0009	-0.2741	
-0.987834	0.174704	-0.003782	-4.69	3.43	2.17	0.4272	0.0008	-0.2835	
-0.997472	0.175558	-0.01037	-4.27	2.52	1.75	0.4229	0.0009	-0.2788	
-1.00223	0.188734	-0.011956	-4.48	3.29	2.45	0.4243	-0.002	-0.2632	
-0.996862	0.189832	-0.008052	-3.92	3.43	2.94	0.4229	-0.0021	-0.2741	
-0.992958	0.185074	-0.011346	-3.29	2.66	2.45	0.4329	-0.0037	-0.2695	
-0.994788	0.180682	-0.02013	-1.89	1.26	2.03	0.4329	-0.0007	-0.2757	
-0.998204	0.18178	-0.013664	-1.47	2.03	1.19	0.4301	-0.0066	-0.2664	
-1.000034	0.185318	-0.02013	-0.7	0.7	0.35	0.417	0.0055	-0.2646	
-1.000644	0.184586	-0.020374	1.19	0.35	-0.56	0.423	-0.0096	-0.2741	
-0.992958	0.188002	-0.025254	2.66	0.07	-1.19	0.4357	-0.0022	-0.2664	
-0.999058	0.181658	-0.017812	2.87	-0.28	-2.17	0.4228	-0.002	-0.2632	
-1.007598	0.185562	-0.022692	2.24	0.14	-2.24	0.4258	-0.0066	-0.2694	
-1.006622	0.185318	-0.016226	2.45	0.21	-2.17	0.4201	-0.0066	-0.2756	
-0.989664	0.180682	-0.010858	2.66	-0.7	-2.45	0.4172	-0.005	-0.2678	
-0.982588	0.170312	-0.010614	3.36	-0.63	-2.8	0.4273	-0.009699999	-0.2788	
-1.001742	0.17507	-0.014152	3.57	1.05	-3.43	0.4201	-0.0081	-0.2694	
-1.00772	0.184952	-0.01891	4.06	0.77	-3.85	0.4315	-0.0037	-0.2695	
-1.00223	0.184952	-0.017446	4.69	-1.05	-4.48	0.4258	-0.0066	-0.2679	
-0.999302	0.18178	-0.02013	5.25	-1.68	-5.32	0.43	-0.0006	-0.2695	
-0.991738	0.182268	-0.017202	5.95	-1.19	-5.46	0.4272	-0.0096	-0.2664	
-1.0004	0.179096	-0.018544	6.09	-0.84	-5.88	0.4285	0.0008	-0.2648	
-1.006988	0.174094	-0.020008	6.44	-1.26	-6.3	0.4357	-0.0007	-0.2695	
-1.004304	0.171044	-0.016714	6.02	-1.19	-6.3	0.4315	0.0008	-0.2773	
-0.999546	0.169336	-0.015738	6.58	-1.4	-6.79	0.433	-0.0007	-0.2851	
-0.997228	0.158234	-0.02074	7.28	-2.17	-7.28	0.4301	-0.0022	-0.2804	
-1.006012	0.153842	-0.013542	7.77	-2.52	-7.49	0.4229	-0.002	-0.2725	
-0.992836	0.11285	-0.000366	8.19	-3.08	-8.4	0.4229	-0.002	-0.2725	
-1.00223	0.165554	-0.011468	9.52	-3.15	-9.66	0.4301	-0.0022	-0.2788	
-1.003328	0.139446	-0.0122	8.68	-0.49	-7.77	0.4272	0.0038	-0.2819	
-1.007964	0.135786	-0.01098	8.54	-2.45	-7.56	0.4214	0.0085	-0.2756	
-0.995764	0.151768	-0.00488	7.98	-3.64	-7.14	0.4271	0.0084	-0.2788	
-0.99674	0.150792	-0.006954	7.14	-3.57	-6.16	0.4316	-0.0052	-0.2804	
-1.001254	0.136762	-0.012688	7.63	-3.43	-5.81	0.4142	0.0085	-0.2787	
-1.010526	0.130784	-0.017934	7.21	-2.52	-5.46	0.4185	0.0055	-0.274	
-1.020774	0.130906	-0.016958	6.93	-1.12	-5.46	0.4272	0.0038	-0.2835	
-1.021994	0.135664	-0.018788	6.72	-3.5	-5.53	0.4186	0.0039	-0.2803	
-1.00772	0.141642	-0.01769	6.37	-5.74	-5.39	0.4257	0.0144	-0.2881	
-1.001132	0.141398	-0.012688	6.16	-5.32	-5.11	0.4214	0.0054	-0.2756	
-1.00711	0.136274	-0.016104	5.74	-3.99	-4.55	0.4185	0.007	-0.274	
-1.013454	0.129076	-0.016104	5.6	-3.43	-3.99	0.4172	0.0054	-0.2912	
-1.013088	0.119682	-0.01037	6.16	-3.29	-4.27	0.4271	0.0129	-0.2803	
-1.011624	0.118218	-0.004758	5.88	-3.64	-4.55	0.4243	0.0054	-0.2772	
-1.01321	0.118584	-0.001708	5.46	-4.13	-4.41	0.4128	0.0116	-0.2818	
-1.010892	0.118706	-0.001952	4.83	-4.69	-3.92	0.4272	0.0053	-0.2897	
-1.007842	0.11834	0	4.27	-4.9	-3.22	0.4257	0.0129	-0.2865	
-1.00223	0.116876	-0.001098	3.99	-3.78	-2.87	0.4258	0.0008	-0.2881	
-0.99918	0.117242	0.002196	4.13	-3.99	-2.66	0.4286	0.0128	-0.2928	
-1.0004	0.117852	0.00854	4.13	-3.85	-2.8	0.4214	0.0024	-0.2772	
-1.007842	0.116266	0.009516	4.62	-2.59	-3.22	0.4144	0.0069	-0.299	
-1.004548	0.11346	0.013664	4.9	-2.73	-3.43	0.4243	0.0129	-0.2865	
-0.997106	0.114558	0.020252	4.13	-3.78	-3.36	0.4199	0.0145	-0.2818	
-1.00589	0.119072	0.00976	4.76	-0.63	-3.29	0.4286	0.0129	-0.2897	
-1.005768	0.116754	0.015982	3.92	-2.59	-3.5	0.4185	0.016	-0.2943	
-1.000766	0.110776	0.01708	3.64	-4.41	-3.36	0.4258	0.0083	-0.2912	
-1.00162	0.110898	0.010858	2.87	-4.27	-3.15	0.4186	0.0084	-0.2927	
-1.0126	0.112972	0.006832	3.29	-2.66	-3.01	0.4172	0.0084	-0.2927	
-1.015406	0.11102	0.00671	3.22	-2.73	-2.38	0.4201	0.0084	-0.2927	
-1.017724	0.108824	0.007564	2.66	-2.59	-2.03	0.4201	0.0024	-0.2897	
-1.01626	0.108458	0.004148	3.29	-1.89	-2.52	0.4172	0.0084	-0.2912	
-1.010282	0.102846	0.00671	3.64	-1.96	-2.8	0.4172	0.01	-0.2912	
-1.014552	0.098942	0.00976	3.78	-1.33	-3.08	0.4186	0.0129	-0.2974	
-1.010648	0.09638	0.018788	4.06	-2.38	-2.66	0.4129	0.0145	-0.2973	
-1.01321	0.10248	0.007564	4.27	-3.15	-2.52	0.42	0.0145	-0.2927	
-1.012844	0.100162	0.013298	4.2	-1.33	-2.73	0.4185	0.0175	-0.2943	
-1.006622	0.097844	0.013298	4.97	0.14	-2.38	0.4287	0.0098	-0.2975	
-1.010282	0.10004	0.016958	4.83	-2.66	-2.45	0.4171	0.0145	-0.2943	
-1.017846	0.103822	0.014152	5.6	-1.54	-2.8	0.4157	0.016	-0.2958	
-1.013576	0.103944	0.024156	6.44	-1.89	-3.08	0.4258	0.0083	-0.299	
-1.008696	0.101626	0.018666	7	-1.47	-2.8	0.4199	0.016	-0.2896	
-1.006744	0.101992	0.014884	6.65	-1.33	-2.94	0.4157	0.0115	-0.2911	
-1.009428	0.104676	0.01403	6.44	-0.7	-2.94	0.4144	0.0069	-0.3021	
-1.009306	0.100406	0.021228	6.65	0.07	-2.66	0.4145	0.0054	-0.3052	
