Sensor string: B
Serial number: 1970-01-0000
Firmware version: 2,015
Hardware version: 2,2
Calibration quality: 5
ax	ay	az	gx	gy	gz	mx	my	mz

0.061122	-0.867786	0.441884	-2.66	0.91	-0.91	-0.0779	0.2252	-0.3489	Reference
0.055876	-0.869372	0.44164	-2.45	0.98	-0.84	-0.0834	0.2237	-0.3475	
0.054046	-0.867664	0.445544	-2.38	1.05	-0.7	-0.0835	0.2077	-0.3594	
0.049776	-0.875228	0.452742	-1.96	0.35	-0.35	-0.0806	0.2159	-0.3478	
0.043798	-0.87718	0.428464	-0.14	1.33	0.35	-0.08199999	0.2189	-0.3509	
0.056364	-0.87291	0.429318	-0.07	1.05	0.28	-0.0765	0.2111	-0.3511	
0.058804	-0.87352	0.427244	0.56	1.26	-0.56	-0.0835	0.2248	-0.357	
0.038918	-0.878766	0.432246	0.35	1.05	-0.56	-0.0752	0.2187	-0.3555	
0.044652	-0.884622	0.429562	0	0.7	-0.21	-0.078	0.2202	-0.3571	
0.051118	-0.88084	0.430416	0	0.28	0	-0.0874	0.2115	-0.3449	
0.047946	-0.875716	0.433588	0.28	0.21	0.14	-0.0805	0.2162	-0.3414	
0.04575	-0.869128	0.436638	0.49	0.21	0.28	-0.0806	0.2206	-0.3476	
0.045994	-0.865468	0.438468	0.35	0.07	0.21	-0.0779	0.2189	-0.3508	
0.049044	-0.867542	0.439444	-0.07	-0.14	0.14	-0.07669999	0.2217	-0.357	
0.053314	-0.871812	0.439322	-0.56	-0.28	0.07	-0.0738	0.2236	-0.3489	
0.045262	-0.876326	0.43615	-0.7	0	0.07	-0.08199999	0.23	-0.344	
0.045384	-0.872422	0.434198	-0.77	-0.21	0.21	-0.0765	0.2189	-0.3492	
0.053436	-0.873398	0.433954	-0.91	-0.56	0	-0.0807	0.2219	-0.3523	
0.053436	-0.871812	0.436882	-0.7	-0.7	0	-0.0724	0.2188	-0.3523	
0.053192	-0.871568	0.43737	-0.28	-0.56	0	-0.0765	0.2236	-0.3489	
0.054168	-0.870958	0.439444	-0.35	-0.42	0.14	-0.0751	0.2143	-0.3493	
0.053558	-0.86925	0.438712	-0.42	-0.28	0.21	-0.0819	0.2114	-0.3464	
0.052948	-0.87108	0.439444	-0.56	-0.49	0.21	-0.0737	0.2191	-0.3443	
0.054412	-0.870104	0.44103	-0.7	-0.21	0.14	-0.08199999	0.2267	-0.3489	
0.05307	-0.869372	0.437736	-0.77	0	0.07	-0.0779	0.2204	-0.3507	
0.051972	-0.869982	0.436638	-0.98	-0.14	-0.07	-0.0778	0.2269	-0.344	
0.051484	-0.871202	0.436028	-0.91	0	-0.28	-0.0737	0.2237	-0.3457	
0.050386	-0.873764	0.434564	-0.63	0.21	-0.35	-0.0805	0.2145	-0.3462	
0.050264	-0.874252	0.43615	-0.42	0.35	-0.56	-0.0778	0.2191	-0.346	
0.050142	-0.872422	0.434198	-0.49	0.35	-0.56	-0.0766	0.2186	-0.3572	
0.055266	-0.874618	0.435052	-0.42	0.35	-0.63	-0.0738	0.2204	-0.3506	
0.054778	-0.873764	0.437004	-0.21	0.7	-0.77	-0.0805	0.2113	-0.3464	
0.048556	-0.876814	0.437004	-0.07	0.91	-0.84	-0.0807	0.2203	-0.354	
0.04392	-0.874374	0.433222	0	0.84	-0.63	-0.0709	0.2254	-0.3423	
0.05063	-0.869738	0.436394	-0.28	0.49	-0.35	-0.0819	0.2207	-0.346	
0.055022	-0.86254	0.438834	-0.49	0.56	-0.56	-0.0766	0.2233	-0.3553	
0.059536	-0.861198	0.427	-1.26	1.61	-0.56	-0.0749	0.2241	-0.3377	
0.059292	-0.872178	0.410896	-1.82	1.47	-0.77	-0.0847	0.2268	-0.3474	
0.055144	-0.89975	0.397598	-2.66	2.17	-1.19	-0.0806	0.2269	-0.3441	
0.035258	-0.936472	0.379542	-1.89	1.96	-2.38	-0.08639999	0.2121	-0.3657	
0.024278	-0.939278	0.364414	-0.77	2.24	-2.17	-0.0781	0.2232	-0.3586	
0.016958	-0.946842	0.354044	1.26	1.47	-2.17	-0.0765	0.222	-0.3506	
0.020862	-0.944158	0.345382	4.27	0.7	-3.08	-0.0724	0.2235	-0.3505	
0.023424	-0.954284	0.336354	8.33	0	-4.62	-0.0778	0.2285	-0.3424	
0.01891	-0.954894	0.34709	12.74	-1.61	-5.11	-0.0778	0.2206	-0.3475	
0.009272	-0.956724	0.33794	16.8	-1.33	-5.39	-0.0792	0.2128	-0.3495	
0.019398	-0.958432	0.337696	20.72	-3.08	-5.53	-0.07099999	0.2174	-0.3491	
0.029768	-0.964166	0.333304	25.69	-3.71	-6.02	-0.0792	0.2048	-0.353	
0.017568	-0.968558	0.35868	31.36	-4.97	-6.02	-0.0751	0.2096	-0.3511	
0.017446	-0.967338	0.349896	38.01	-6.02	-5.88	-0.0807	0.2063	-0.3562	
0.017202	-0.954772	0.349896	44.1	-6.51	-6.16	-0.0849	0.1982	-0.3631	
0.022082	-0.94001	0.329278	53.48	-5.74	-6.93	-0.0879	0.1961	-0.376	
0.021716	-0.934642	0.34831	61.25	-7.98	-8.4	-0.0878	0.1885	-0.3731	
0.032818	-0.923906	0.366244	66.71	-11.2	-10.08	-0.0891	0.1871	-0.37	
0.040138	-0.894138	0.399794	77.42	-9.17	-14.56	-0.0948	0.1505	-0.3926	
0.039162	-0.853634	0.421022	82.95	-7.56	-15.05	-0.0867	0.15	-0.4036	
0.04758	-0.827404	0.433588	88.27	-8.19	-14.42	-0.1085	0.1191	-0.4039	
0.063196	-0.796538	0.44713	93.38	-7.49	-14.84	-0.0961	0.1067	-0.4042	
0.074786	-0.742736	0.470432	97.02	-4.83	-15.68	-0.0964	0.0888	-0.4226	
0.088694	-0.701378	0.480924	99.82	-6.51	-18.41	-0.11	0.0813	-0.4184	
0.094794	-0.668072	0.511424	101.78	-7.49	-20.37	-0.1101	0.067	-0.4271	
0.11041	-0.652334	0.54412	105	-10.01	-21.84	-0.1059	0.0576	-0.429	
0.11956	-0.637816	0.610488	107.59	-12.32	-22.61	-0.1113	0.0376	-0.4268	
0.118462	-0.605364	0.632692	111.16	-10.36	-21.42	-0.1168	0.0202	-0.4357	
0.130662	-0.542046	0.653798	110.88	-10.15	-19.39	-0.1182	0.0014	-0.4398	
0.145546	-0.479094	0.675392	110.46	-9.87	-17.78	-0.1225	-0.0161	-0.4535	
0.143228	-0.434076	0.6954	111.51	-11.97	-18.06	-0.1194	-0.0389	-0.4449	
0.145912	-0.392474	0.735538	110.32	-18.97	-18.83	-0.1233	-0.051	-0.4375	
0.169702	-0.329766	0.784338	108.92	-23.52	-17.78	-0.1177	-0.0711	-0.4367	
0.23119	-0.2684	0.822402	106.47	-26.46	-18.2	-0.1261	-0.0778	-0.4484	
0.21899	-0.237046	0.84607	108.5	-19.18	-19.95	-0.1381	-0.105	-0.4339	
0.234728	-0.205692	0.863394	107.17	-16.59	-18.48	-0.1189	-0.1161	-0.4372	
0.22814	-0.135298	0.85217	107.1	-13.3	-17.22	-0.1447	-0.1342	-0.4306	
0.23729	-0.09882	0.8723	103.95	-14.14	-17.71	-0.1389	-0.1617	-0.4205	
0.230824	-0.057096	0.837652	104.51	-9.73	-17.5	-0.1444	-0.1743	-0.4276	
0.225334	-0.045018	0.880718	99.96	-14.63	-17.08	-0.143	-0.1837	-0.428	
0.262422	-0.000976	0.901092	98.98	-14.21	-16.03	-0.1345	-0.2051	-0.4208	
0.26169	0.035746	0.902556	99.19	-7.91	-13.65	-0.1315	-0.217	-0.434	
0.274866	0.051972	0.870226	100.94	-8.61	-16.66	-0.1437	-0.2384	-0.4049	
0.273524	0.086376	0.891698	100.31	-6.44	-14.28	-0.1423	-0.2462	-0.4052	
0.259982	0.148352	0.90951	99.33	-5.04	-12.67	-0.1406	-0.2611	-0.3931	
0.25681	0.177998	0.900848	97.58	-4.48	-13.02	-0.1446	-0.2734	-0.3905	
0.295362	0.198982	0.896822	94.43	-8.82	-13.09	-0.1458	-0.2902	-0.3849	
0.27328	0.252052	0.90097	93.59	-11.76	-13.44	-0.1385	-0.3082	-0.3968	
0.300974	0.286822	0.949526	87.85	-13.16	-14.49	-0.1451	-0.3201	-0.3607	
0.294508	0.307318	0.944036	81.27	-11.06	-10.29	-0.1381	-0.3355	-0.358	
0.29829	0.313784	0.948184	77.49	-9.87	-11.48	-0.1475	-0.3536	-0.3479	
0.29707	0.33794	0.921588	76.79	-8.19	-12.39	-0.1431	-0.353	-0.3334	
0.285602	0.375516	0.91195	75.74	-8.4	-9.52	-0.1306	-0.3764	-0.3342	
0.292556	0.412116	0.930982	70.91	-13.79	-13.37	-0.1413	-0.3771	-0.3441	
0.314638	0.453108	0.914512	67.55	-13.58	-11.97	-0.1371	-0.3817	-0.3154	
0.32574	0.459208	0.928908	61.32	-13.44	-12.67	-0.1396	-0.3889	-0.3302	
0.334768	0.46787	0.902068	61.25	-12.04	-13.3	-0.1407	-0.3836	-0.29	
0.325252	0.48373	0.877546	61.39	-11.41	-10.99	-0.1392	-0.4036	-0.2861	
0.332572	0.495686	0.901824	57.4	-12.39	-11.41	-0.1363	-0.4081	-0.307	
0.320738	0.539362	0.88511	54.04	-10.92	-9.73	-0.1389	-0.4076	-0.2703	
0.345504	0.573156	0.895602	46.69	-11.06	-7.07	-0.1361	-0.4185	-0.2723	
0.347578	0.59292	0.88816	41.09	-8.68	-2.52	-0.1442	-0.426	-0.268	
0.352092	0.585844	0.871202	37.03	-8.89	-2.45	-0.1357	-0.4223	-0.2517	
0.36417	0.582916	0.886208	31.92	-9.17	-1.96	-0.1383	-0.4376	-0.2492	
0.365146	0.6039	0.872666	29.82	-7.77	-1.68	-0.1356	-0.433	-0.249	
0.383324	0.640134	0.899628	20.3	-7.56	-3.43	-0.1383	-0.4454	-0.2496	
0.371734	0.629764	0.866566	16.1	-3.71	-0.56	-0.1421	-0.4384	-0.2318	
0.37698	0.607438	0.864126	9.59	-3.15	0.07	-0.1368	-0.4405	-0.2429	
0.385032	0.602192	0.864248	4.27	-2.38	0.42	-0.1397	-0.4407	-0.2494	
0.382226	0.60695	0.871568	-0.21	-0.42	0.84	-0.1408	-0.4418	-0.2383	
0.376492	0.61122	0.864126	-4.9	1.26	1.4	-0.1421	-0.4337	-0.23	
0.374174	0.600606	0.868274	-9.45	1.26	2.59	-0.1424	-0.4439	-0.2512	
0.375882	0.603656	0.890844	-13.79	1.96	3.64	-0.1423	-0.442	-0.2431	
0.378688	0.625982	0.90097	-17.71	3.64	4.41	-0.1396	-0.4359	-0.2444	
0.371246	0.629398	0.923784	-24.15	4.55	4.97	-0.1396	-0.4406	-0.2462	
0.364292	0.621346	0.912438	-29.26	7.21	5.74	-0.1452	-0.4251	-0.2472	
0.379176	0.604998	0.929884	-35	8.33	6.37	-0.1399	-0.4335	-0.2603	
0.374174	0.610854	0.926712	-39.83	11.62	7.42	-0.1386	-0.4304	-0.2617	
0.366854	0.6161	0.928176	-45.43	13.23	7.28	-0.1359	-0.4211	-0.2612	
0.366732	0.59597	0.929396	-52.08	14.14	7.7	-0.1349	-0.4236	-0.2821	
0.35197	0.572912	0.909632	-56.7	15.47	8.82	-0.1472	-0.4202	-0.2774	
0.336964	0.546072	0.924638	-63.84	14.7	9.8	-0.1422	-0.4059	-0.3038	
0.32879	0.52155	0.931958	-68.74	14.42	10.92	-0.1423	-0.3965	-0.3018	
0.31903	0.501542	0.943914	-74.2	14.63	11.9	-0.1424	-0.3813	-0.3075	
0.314882	0.47824	0.933178	-79.45	15.33	12.95	-0.136	-0.3745	-0.3278	
0.30622	0.43859	0.919148	-82.74	14.49	14.14	-0.1388	-0.3669	-0.3307	
0.30073	0.397842	0.926834	-87.01	13.86	14.28	-0.1391	-0.3533	-0.3397	
0.294996	0.35258	0.920856	-90.93	14.07	14.63	-0.1446	-0.3471	-0.3395	
0.30561	0.31293	0.924028	-93.87	13.09	15.89	-0.1381	-0.3434	-0.36	
0.308538	0.281698	0.929884	-96.11	13.3	16.45	-0.1383	-0.3327	-0.3643	
0.294142	0.245098	0.911584	-97.51	15.82	16.24	-0.1427	-0.3021	-0.3726	
0.293166	0.199104	0.917684	-100.03	14.84	15.05	-0.1374	-0.2868	-0.3782	
0.292312	0.174216	0.890844	-101.22	12.53	11.69	-0.1444	-0.2823	-0.3813	
0.263398	0.128954	0.875106	-103.39	17.22	12.67	-0.145	-0.2603	-0.4091	
0.261568	0.073078	0.858636	-104.37	12.25	12.32	-0.1367	-0.265	-0.4091	
0.258396	0.040382	0.88511	-109.27	21.63	17.36	-0.1344	-0.2376	-0.4206	
0.24034	-0.010858	0.844362	-112.21	15.05	19.32	-0.1344	-0.2221	-0.4199	
0.227774	-0.074786	0.803736	-109.97	18.48	17.5	-0.1386	-0.2049	-0.416	
0.233508	-0.11285	0.815692	-109.34	16.59	18.27	-0.1361	-0.1852	-0.4263	
0.212646	-0.15372	0.83387	-107.59	30.03	22.4	-0.1321	-0.173	-0.4304	
0.190808	-0.183854	0.8052	-105.63	31.43	22.82	-0.1283	-0.1549	-0.4407	
0.163846	-0.2196	0.77714	-104.09	29.75	21.63	-0.1244	-0.1397	-0.4463	
0.147132	-0.25986	0.768478	-105.7	25.27	21	-0.1217	-0.1256	-0.444	
0.137494	-0.310246	0.778482	-107.87	20.09	21.56	-0.1232	-0.1008	-0.4429	
0.129442	-0.329888	0.76982	-108.15	19.53	22.82	-0.1178	-0.0777	-0.445	
0.128588	-0.35258	0.771528	-109.06	19.11	23.8	-0.1138	-0.0637	-0.4443	
0.115168	-0.399184	0.776652	-109.2	19.74	23.87	-0.1085	-0.0424	-0.4512	
0.09076799	-0.440176	0.734074	-105.7	25.2	25.13	-0.1085	-0.0203	-0.4422	
0.086742	-0.443836	0.7076	-106.61	24.85	26.39	-0.1002	-0.0139	-0.4369	
0.072468	-0.463112	0.674538	-108.71	21.63	24.71	-0.1032	0.0012	-0.4443	
0.050996	-0.514108	0.67039	-109.97	19.81	24.22	-0.1003	0.0203	-0.4322	
0.03782	-0.568154	0.630252	-107.87	19.6	23.45	-0.0949	0.0357	-0.433	
0.036722	-0.601216	0.628056	-108.01	11.97	22.75	-0.084	0.0793	-0.4259	
0.007442	-0.655628	0.558516	-105.84	18.55	23.87	-0.0881	0.0826	-0.4227	
-0.002074	-0.711992	0.508252	-102.9	16.87	23.59	-0.0799	0.1044	-0.4183	
-0.015494	-0.754448	0.469212	-99.33	14.84	22.68	-0.0741	0.1176	-0.4	
-0.022326	-0.783606	0.431392	-96.04	15.26	22.26	-0.0742	0.1362	-0.3992	
-0.018178	-0.805688	0.40443	-93.94	13.02	22.05	-0.0605	0.1518	-0.3934	
-0.03721	-0.82228	0.369294	-88.83	12.81	20.93	-0.0617	0.1663	-0.3816	
-0.05917	-0.831918	0.365146	-85.61	10.36	20.09	-0.0592	0.1815	-0.3888	
-0.040016	-0.846436	0.352702	-85.47	4.62	17.36	-0.0629	0.1824	-0.3937	
-0.051606	-0.892308	0.351482	-89.6	-3.92	15.47	-0.055	0.2083	-0.3763	
-0.061122	-0.876448	0.2867	-86.87	-13.51	18.48	-0.045	0.2185	-0.3549	
-0.03294	-0.89121	0.306464	-83.37	11.9	22.19	-0.0531	0.2204	-0.347	
-0.07625	-0.903654	0.243634	-78.96	20.86	21.28	-0.0408	0.2391	-0.3427	
-0.073078	-0.950258	0.222162	-78.89	16.94	17.08	-0.0406	0.2411	-0.333	
-0.074176	-0.99125	0.223138	-77.98	12.6	13.79	-0.0391	0.2509	-0.3213	
-0.102358	-1.016138	0.199348	-68.95	12.32	11.34	-0.0323	0.268	-0.3204	
-0.126758	-1.00955	0.187514	-63.42	10.43	9.17	-0.0278	0.2782	-0.2991	
-0.11468	-1.012966	0.189466	-59.92	2.17	5.74	-0.0308	0.2885	-0.3099	
-0.132492	-1.020408	0.202764	-57.54	0.14	2.52	-0.0347	0.2971	-0.292	
-0.116632	-0.98637	0.1647	-48.93	12.32	6.72	-0.0249	0.2943	-0.2839	
-0.10858	-1.00223	0.150548	-43.19	14.21	7.42	-0.0305	0.3005	-0.2853	
-0.107238	-1.0065	0.144692	-40.18	13.93	8.05	-0.0167	0.3037	-0.2801	
-0.113094	-0.9882	0.126514	-37.87	10.64	6.44	-0.0164	0.3168	-0.2651	
-0.101992	-0.986004	0.137982	-33.95	11.48	5.04	-0.0151	0.3167	-0.2667	
-0.104798	-0.984418	0.12444	-32.2	11.97	4.34	-0.0121	0.3141	-0.2556	
-0.102724	-0.961238	0.12261	-31.85	12.53	4.34	-0.0081	0.328	-0.2548	
-0.094306	-0.942084	0.12261	-31.85	14.56	4.34	-0.0079	0.3363	-0.2433	
-0.104798	-0.925492	0.10248	-33.88	16.45	3.99	-0.0064	0.3302	-0.2403	
-0.102968	-0.923418	0.073444	-37.38	13.44	2.87	-0.0119	0.332	-0.2356	
-0.081252	-0.95038	0.06161	-39.13	12.67	1.33	0.0016	0.3363	-0.2415	
-0.101138	-0.992348	0.082472	-44.17	9.1	-1.54	-0.0034	0.3371	-0.224	
-0.05856	-1.012478	0.088694	-33.46	-3.99	-3.64	-0.0061	0.3529	-0.2169	
-0.122854	-0.998814	0.077714	-28.49	17.99	5.18	-0.009	0.3511	-0.2219	
-0.122244	-0.998692	0.033428	-30.38	24.36	-0.07	0.0049	0.347	-0.209	
-0.11224	-0.998082	0.03416	-35.98	17.99	0.07	-0.0074	0.3626	-0.2069	
-0.136152	-1.003206	0.000366	-33.46	13.02	-0.35	-0.0045	0.3614	-0.1989	
-0.11895	-1.00101	0.00976	-31.15	7.42	-1.47	0.0064	0.3614	-0.1987	
-0.109068	-1.008208	0.005856	-28.7	1.54	-1.4	0.0022	0.3675	-0.2017	
-0.09942999	-1.017236	0.032208	-30.8	1.05	-0.28	0.0009999999	0.374	-0.1934	
-0.09942999	-0.991372	-0.000366	-22.4	9.31	-1.05	0.0038	0.3694	-0.192	
-0.103578	-1.003084	-0.00732	-16.03	14.7	-0.21	0.0093	0.3728	-0.1853	
-0.123098	-1.04066	-0.030378	-17.36	12.04	0.21	0.0122	0.3715	-0.1789	
-0.115534	-1.037366	-0.046604	-15.96	5.81	0.56	0.0081	0.381	-0.1738	
-0.109556	-1.01992	-0.037942	-15.05	3.57	0.49	0.0095	0.3779	-0.1755	
-0.102602	-1.00772	-0.044164	-13.51	4.34	0.14	0.0027	0.3812	-0.1707	
-0.121756	-0.99247	-0.063928	-11.9	4.69	0.07	0.0055	0.3686	-0.1744	
-0.128832	-0.966606	-0.08174	-11.69	3.01	-0.14	0.0109	0.3747	-0.1756	
-0.129442	-0.982588	-0.081496	-12.6	0.7	0.14	0.0082	0.378	-0.1723	
-0.114558	-1.008086	-0.082106	-10.08	-1.68	1.54	0.0096	0.3798	-0.1674	
-0.122366	-1.00589	-0.087474	-8.82	-2.66	1.75	0.011	0.3861	-0.1639	
-0.108214	-1.002474	-0.075884	-7.28	-2.87	1.05	0.0069	0.386	-0.1672	
-0.111142	-1.01504	-0.0854	-6.02	-1.12	1.05	0.0112	0.3833	-0.1561	
-0.118706	-1.007598	-0.0854	-7.42	-2.66	0.77	0.011	0.3922	-0.1652	
-0.11041	-1.005402	-0.089304	-6.58	-1.96	0.63	0.0083	0.3877	-0.1639	
-0.1098	-1.003816	-0.092232	-6.16	-2.59	0.63	0.0096	0.3938	-0.1652	
-0.11407	-1.013698	-0.101382	-2.52	-1.12	0.28	0.0112	0.3786	-0.1579	
-0.10736	-0.989786	-0.094428	0.49	-0.21	-0.49	0.0084	0.38	-0.1627	
-0.124806	-1.011258	-0.103334	1.26	1.12	-0.91	0.0153	0.3833	-0.1576	
-0.130662	-1.00894	-0.1037	1.61	-3.43	-1.05	0.0071	0.3865	-0.1544	
-0.120048	-1.004792	-0.08784	4.83	-3.43	-1.61	0.0112	0.3802	-0.1578	
-0.100528	-1.022604	-0.094184	5.11	-6.3	-1.82	0	0.3845	-0.1658	
-0.10797	-1.025044	-0.091256	4.97	-8.26	-1.96	0.009699999	0.3877	-0.1639	
-0.132614	-1.041758	-0.111264	6.58	-7.7	-2.52	0.0013	0.3905	-0.1703	
-0.11529	-1.052006	-0.090036	8.54	-14.7	-3.64	-0.0026	0.38	-0.1645	
-0.10004	-1.037854	-0.079422	11.48	-14.56	-4.83	0.0083	0.383	-0.1641	
-0.10736	-1.027118	-0.082228	12.74	-17.22	-4.55	0.0001	0.3768	-0.1646	
-0.114314	-1.013698	-0.07259	14.07	-17.71	-5.04	0.0001	0.3814	-0.166	
-0.119316	-1.021872	-0.079178	17.5	-14.98	-5.25	-0.0083	0.381	-0.1758	
-0.11956	-1.035658	-0.093818	19.32	-17.29	-4.62	-0.004	0.3798	-0.1677	
-0.113826	-1.031266	-0.066368	17.57	-22.82	-5.81	-0.0027	0.3826	-0.174	
-0.100284	-1.02968	-0.038796	19.32	-24.92	-6.37	-0.0084	0.3808	-0.1806	
-0.088938	-1.010526	-0.03721	21.98	-19.88	-7.42	-0.0109	0.3718	-0.1746	
-0.076128	-0.983076	-0.033672	30.45	-11.9	-6.51	-0.007	0.3729	-0.1857	
-0.079178	-0.986248	-0.052338	30.59	-7.14	-7.07	-0.0168	0.371	-0.194	
-0.094794	-1.00711	-0.045262	26.74	-13.58	-8.33	-0.0142	0.3723	-0.2002	
-0.095282	-1.011746	-0.033672	27.93	-13.02	-7.7	-0.0211	0.3596	-0.2074	
-0.082838	-1.005036	-0.016592	31.22	-12.6	-7.42	-0.0142	0.3612	-0.2055	
-0.079666	-1.000888	-0.009272	36.4	-8.47	-7.35	-0.0184	0.3407	-0.2146	
-0.076372	-0.999668	0.007198	37.73	-8.54	-8.4	-0.0211	0.347	-0.2127	
-0.074054	-0.994056	0.030012	40.04	-6.23	-8.61	-0.0254	0.3466	-0.2208	
-0.069906	-0.989298	0.051118	42.84	-2.31	-7.07	-0.0297	0.3431	-0.2307	
-0.069418	-0.978806	0.067588	45.08	-1.68	-7.84	-0.0366	0.3446	-0.2339	
-0.06161	-0.971242	0.08052	46.83	-1.68	-9.1	-0.0311	0.3336	-0.2359	
-0.050386	-0.972706	0.105408	47.18	-3.71	-10.22	-0.0381	0.3317	-0.2457	
-0.048434	-0.966606	0.121878	49	-3.99	-11.48	-0.034	0.3253	-0.2491	
-0.050508	-0.962458	0.14457	51.17	-3.57	-12.67	-0.0368	0.3174	-0.2528	
-0.058194	-0.959286	0.174338	51.94	-3.92	-12.95	-0.0424	0.3141	-0.2594	
-0.05795	-0.939644	0.199958	52.99	-4.06	-13.09	-0.0466	0.3013	-0.2681	
-0.052338	-0.938668	0.212524	54.11	-3.71	-12.95	-0.0497	0.3021	-0.2857	
-0.058438	-0.93147	0.224602	55.58	-4.83	-13.02	-0.0469	0.2897	-0.2862	
-0.036478	-0.926956	0.249002	56.49	-6.44	-12.95	-0.0539	0.2832	-0.2946	
-0.023424	-0.924028	0.2684	57.19	-4.62	-13.72	-0.0565	0.282	-0.2867	
-0.024278	-0.919758	0.281088	56.84	-5.88	-14.07	-0.0569	0.2762	-0.3126	
-0.026352	-0.91927	0.300486	57.12	-8.82	-15.19	-0.0624	0.2604	-0.3198	
-0.037576	-0.910974	0.352092	58.24	-9.38	-14.49	-0.0667	0.2537	-0.3314	
-0.001952	-0.880596	0.378566	63.07	-6.37	-17.36	-0.0652	0.2464	-0.3221	
0.001708	-0.841312	0.376858	65.38	-1.89	-15.12	-0.0667	0.2351	-0.3322	
-0.004026	-0.839726	0.376614	64.89	-2.38	-15.05	-0.0749	0.2305	-0.3326	
-0.000732	-0.83509	0.384178	62.51	-5.67	-15.68	-0.0778	0.2113	-0.3463	
0.010614	-0.851072	0.410164	60.27	-8.19	-16.73	-0.0792	0.2207	-0.3443	
0.007442	-0.85766	0.404308	61.88	1.68	-15.96	-0.07099999	0.2001	-0.3547	
0.002074	-0.842532	0.441518	63.98	10.43	-12.95	-0.0795	0.2027	-0.3659	
0.00976	-0.780068	0.430416	71.12	-2.1	-10.36	-0.078	0.181	-0.3669	
0.054778	-0.759328	0.482632	69.16	-16.1	-18.06	-0.0836	0.173	-0.3738	
0.053314	-0.756278	0.530578	68.6	-11.9	-16.59	-0.0836	0.1649	-0.3805	
0.045994	-0.759206	0.508008	70	-9.31	-16.24	-0.0865	0.1583	-0.3905	
0.06283	-0.752984	0.542534	70.21	-10.08	-16.66	-0.0892	0.1412	-0.3929	
0.081496	-0.744932	0.562786	73.01	-9.52	-16.94	-0.0988	0.1367	-0.3917	
0.071858	-0.709308	0.556442	77	-7.07	-17.29	-0.0989	0.1222	-0.4036	
0.09211	-0.639524	0.604266	78.54	-9.45	-17.64	-0.0976	0.1096	-0.4073	
0.110654	-0.633302	0.642452	77	-11.9	-19.46	-0.1031	0.097	-0.4128	
0.11773	-0.623542	0.641964	77	-12.25	-21.07	-0.1006	0.0838	-0.4309	
0.104554	-0.613782	0.641354	76.86	-12.32	-22.68	-0.1099	0.0657	-0.4207	
0.104188	-0.615978	0.661972	77.77	-13.72	-22.89	-0.1099	0.061	-0.4225	
0.117974	-0.583648	0.687348	80.43	-13.37	-22.61	-0.1086	0.0516	-0.4261	
0.133956	-0.555954	0.686982	83.16	-10.99	-24.01	-0.107	0.03	-0.4223	
0.15982	-0.540826	0.703574	83.51	-12.53	-25.97	-0.1155	0.0201	-0.4373	
0.167994	-0.51606	0.713334	85.89	-11.55	-28	-0.1235	-0.0011	-0.4304	
0.171044	-0.515084	0.7137	87.78	-12.46	-29.19	-0.1193	-0.0089	-0.4307	
0.1769	-0.49349	0.732732	91.14	-9.66	-29.26	-0.1288	-0.0275	-0.4318	
0.183976	-0.468846	0.77714	94.92	-9.38	-28.35	-0.1343	-0.0383	-0.4324	
0.21777	-0.433832	0.83204	94.15	-9.94	-26.53	-0.1289	-0.0606	-0.4444	
0.235338	-0.432246	0.814106	95.13	-6.65	-25.76	-0.1259	-0.0756	-0.4339	
0.239852	-0.395524	0.808006	99.26	-2.45	-23.1	-0.1328	-0.0945	-0.4429	
0.208376	-0.286822	0.80947	100.59	2.94	-17.99	-0.1271	-0.1255	-0.441	
0.176534	-0.248148	0.772504	99.26	1.54	-18.48	-0.1216	-0.1395	-0.4415	
0.188124	-0.224846	0.811178	95.55	-7.77	-18.27	-0.1282	-0.1467	-0.4308	
0.223748	-0.182756	0.891332	94.01	-10.85	-17.22	-0.1295	-0.1607	-0.4314	
0.24705	-0.129198	0.926834	93.59	-5.39	-14.49	-0.1282	-0.1717	-0.4367	
0.256078	-0.09076799	0.903898	93.66	-3.15	-13.23	-0.1305	-0.188	-0.4199	
0.253394	-0.064172	0.909144	91.21	-0.98	-11.83	-0.1222	-0.2067	-0.4206	
0.232898	-0.020008	0.89243	91.14	-1.47	-11.41	-0.1246	-0.2278	-0.4328	
0.22204	0.019276	0.888038	89.18	-0.84	-9.59	-0.1327	-0.2417	-0.408	
0.228506	0.050142	0.892796	86.8	-5.18	-9.24	-0.1284	-0.2601	-0.4023	
0.250222	0.067832	0.92232	83.79	-9.8	-7.7	-0.1228	-0.2583	-0.3958	
0.258884	0.108336	0.923906	82.74	-7.42	-7.42	-0.1337	-0.2738	-0.3983	
0.26169	0.143106	0.938546	81.13	-6.44	-5.95	-0.1321	-0.2872	-0.3861	
0.257786	0.1647	0.95526	78.75	-4.9	-6.23	-0.121	-0.3012	-0.3849	
0.260348	0.178486	0.955626	76.72	-10.01	-8.47	-0.132	-0.3011	-0.3851	
0.282186	0.207156	0.988932	73.08	-9.03	-6.51	-0.1331	-0.3225	-0.3781	
0.25742	0.226554	0.953674	69.58	-7.63	-5.11	-0.1329	-0.3346	-0.3707	
0.26901	0.260592	0.95648	66.64	-12.95	-5.46	-0.1312	-0.326	-0.3511	
0.274378	0.294752	0.951112	64.47	-11.55	-5.81	-0.1299	-0.3481	-0.3616	
0.267546	0.30866	0.925004	63.28	-14.35	-7	-0.1351	-0.3412	-0.3455	
0.252784	0.322568	0.926834	61.95	-16.1	-5.32	-0.135	-0.3582	-0.3446	
0.277794	0.357094	0.93208	58.59	-18.34	-6.23	-0.1308	-0.3641	-0.3384	
0.289872	0.392108	0.93269	55.3	-19.32	-5.6	-0.1387	-0.3587	-0.3208	
0.31171	0.404918	0.950258	50.05	-18.55	-5.11	-0.1317	-0.3709	-0.3164	
0.30134	0.428586	0.921222	48.65	-16.45	-3.99	-0.1453	-0.3783	-0.3106	
0.317566	0.449936	0.941596	42.7	-17.71	-3.22	-0.141	-0.386	-0.3077	
0.332694	0.466162	0.926712	37.87	-14.91	-2.87	-0.138	-0.3946	-0.292	
0.320616	0.483852	0.912804	34.37	-12.04	-1.68	-0.1434	-0.4007	-0.2908	
0.334524	0.491904	0.923052	29.4	-12.81	-2.87	-0.149	-0.3931	-0.2954	
0.341844	0.508618	0.911096	26.04	-11.34	-1.96	-0.138	-0.4087	-0.2958	
0.360998	0.503494	0.92232	18.41	-9.87	-0.7	-0.1419	-0.4004	-0.2844	
0.365146	0.504836	0.91378	15.12	-7.42	-0.84	-0.1432	-0.4174	-0.2836	
0.375638	0.514596	0.917074	9.87	-5.25	-0.35	-0.1375	-0.4077	-0.2734	
0.364048	0.514352	0.914268	5.88	-3.57	-0.21	-0.1404	-0.4128	-0.2833	
0.359168	0.508984	0.904264	2.31	-2.52	0.07	-0.1431	-0.4095	-0.2784	
0.358192	0.503494	0.8967	-1.26	-1.75	0.49	-0.1474	-0.4082	-0.2848	
0.356606	0.49654	0.901458	-4.55	-1.75	0.77	-0.1406	-0.4023	-0.2908	
0.36112	0.490806	0.910486	-8.68	-0.77	1.19	-0.146	-0.4113	-0.285	
0.366732	0.480924	0.904752	-11.9	0.77	1.61	-0.1444	-0.4154	-0.2739	
0.362462	0.484584	0.926834	-14.77	1.05	2.73	-0.1447	-0.4069	-0.2911	
0.374906	0.492148	0.916464	-17.99	-2.24	-3.78	-0.1419	-0.413	-0.2881	
0.392474	0.486292	0.960384	-25.13	-1.12	-0.77	-0.146	-0.4036	-0.2862	
0.377834	0.479216	0.953796	-28.07	1.05	0.14	-0.1517	-0.3992	-0.2941	
0.373198	0.481778	0.962702	-32.41	7.07	4.48	-0.1503	-0.4054	-0.2928	
0.360022	0.467016	0.94794	-37.31	8.26	5.88	-0.1436	-0.3964	-0.2986	
0.359778	0.460672	0.947086	-42.56	9.03	7.91	-0.1466	-0.3924	-0.3145	
0.359534	0.45323	0.949038	-48.86	9.1	8.61	-0.1469	-0.379	-0.3267	
0.366122	0.437126	0.96624	-55.23	9.38	8.82	-0.1495	-0.3801	-0.3156	
0.358314	0.4087	0.958188	-63.28	13.23	9.45	-0.1469	-0.371	-0.3215	
0.346236	0.379786	0.952088	-69.16	12.67	9.87	-0.1415	-0.3588	-0.324	
0.333304	0.3477	0.963556	-73.57	12.81	10.92	-0.139	-0.3484	-0.3347	
0.335744	0.332084	0.96624	-78.05	13.93	12.74	-0.1476	-0.3397	-0.3489	
0.325984	0.317078	0.961116	-83.02	14.84	14.14	-0.1504	-0.3431	-0.3555	
0.323178	0.278526	0.954406	-88.27	14.21	15.12	-0.1439	-0.3282	-0.369	
0.321958	0.24156	0.950258	-92.68	14.56	15.33	-0.1507	-0.3219	-0.3673	
0.313906	0.218868	0.946232	-96.88	16.1	15.82	-0.1496	-0.3099	-0.3747	
0.29524	0.18117	0.942084	-99.68	15.19	15.33	-0.139	-0.2873	-0.3894	
0.304634	0.142618	0.934276	-102.48	10.85	13.72	-0.1405	-0.2719	-0.392	
0.273768	0.102846	0.878644	-100.8	19.81	14.28	-0.1474	-0.2548	-0.3913	
0.273036	0.05185	0.926834	-111.37	17.29	18.2	-0.1436	-0.2492	-0.4038	
0.257054	0.012566	0.877912	-110.95	24.29	23.66	-0.1396	-0.2307	-0.4061	
0.237046	-0.024278	0.832772	-112.98	23.31	26.04	-0.1331	-0.2066	-0.4192	
0.226676	-0.093696	0.850096	-115.57	8.96	20.86	-0.1318	-0.2004	-0.4189	
0.21777	-0.15189	0.81862	-112	21.14	22.26	-0.1294	-0.1636	-0.4284	
0.213134	-0.195444	0.838384	-111.65	25.34	23.1	-0.1326	-0.1332	-0.4414	
0.188368	-0.23851	0.79788	-108.22	28.21	23.24	-0.1242	-0.1157	-0.4309	
0.178974	-0.276086	0.77104	-107.17	24.29	22.19	-0.1271	-0.1129	-0.4372	
0.181048	-0.311466	0.778238	-108.29	16.8	21.28	-0.1232	-0.0913	-0.4393	
0.17812	-0.336842	0.771406	-106.68	17.43	21.28	-0.1191	-0.0679	-0.4334	
0.177876	-0.383934	0.768234	-106.96	13.51	21.21	-0.1124	-0.0464	-0.4371	
0.167262	-0.413336	0.742492	-104.79	18.62	22.12	-0.1166	-0.0342	-0.4414	
0.16104	-0.44286	0.735416	-102.06	21.35	22.33	-0.1084	-0.0201	-0.4374	
0.141032	-0.463478	0.710528	-98.63	24.29	21.91	-0.1071	0.0001	-0.4332	
0.13176	-0.488366	0.698816	-96.95	20.93	20.65	-0.1044	0.0235	-0.4305	
0.112728	-0.531432	0.67527	-94.57	23.94	21.21	-0.1003	0.0251	-0.4288	
0.095892	-0.565348	0.64843	-93.52	20.72	21.7	-0.0935	0.0372	-0.4329	
0.07564	-0.602924	0.62037	-91.77	18.13	21.14	-0.0923	0.0574	-0.4319	
0.05978	-0.633912	0.605608	-90.58	17.85	22.19	-0.0853	0.08109999	-0.4211	
0.038796	-0.679052	0.578646	-87.15	17.29	22.05	-0.0812	0.0905	-0.4174	
0.005124	-0.736514	0.55571	-82.25	15.68	21.84	-0.084	0.1015	-0.4154	
0.016714	-0.757864	0.5307	-81.06	12.18	21.42	-0.07	0.1083	-0.3988	
0.008417999	-0.768478	0.500322	-78.75	11.06	21.14	-0.0852	0.1269	-0.4014	
-0.01342	-0.78507	0.459086	-77.42	12.46	21	-0.0716	0.1422	-0.4021	
-0.027572	-0.803858	0.424194	-75.04	11.27	19.46	-0.0673	0.152	-0.3903	
-0.040626	-0.815692	0.391376	-73.08	8.33	18.06	-0.0604	0.1629	-0.3881	
-0.035258	-0.838262	0.407114	-71.33	3.01	17.01	-0.0631	0.1709	-0.383	
-0.031598	-0.86986	0.377712	-68.39	2.45	16.17	-0.0631	0.1821	-0.3761	
-0.035868	-0.890112	0.35014	-64.75	3.08	17.01	-0.0576	0.1961	-0.3737	
-0.04148	-0.914878	0.360754	-60.9	1.68	16.59	-0.0628	0.2109	-0.354	
-0.041114	-0.92049	0.352946	-55.02	0.35	14.35	-0.0506	0.2199	-0.3597	
-0.043798	-0.88877	0.342332	-50.68	6.09	15.05	-0.0464	0.2122	-0.3568	
-0.031476	-0.867786	0.346724	-52.99	4.13	14.56	-0.0463	0.2345	-0.3446	
-0.030134	-0.874008	0.312564	-56	6.3	13.3	-0.0448	0.2362	-0.3397	
-0.041968	-0.928542	0.276208	-57.54	6.16	12.6	-0.0434	0.2459	-0.3312	
-0.05124	-0.990274	0.24339	-58.66	-2.66	9.17	-0.0391	0.2571	-0.321	
-0.082106	-1.034804	0.207888	-52.71	-8.19	7.14	-0.0517	0.2629	-0.3322	
-0.055022	-1.07238	0.290848	-53.97	3.78	8.54	-0.0497	0.2692	-0.2952	
-0.112728	-1.006988	0.180438	-40.25	15.75	10.85	-0.0347	0.2718	-0.3027	
-0.093818	-0.978928	0.218014	-38.71	9.73	9.66	-0.0347	0.2799	-0.296	
-0.067954	-0.951844	0.192394	-37.87	10.99	9.87	-0.0306	0.2781	-0.3007	
-0.050508	-0.921588	0.215208	-41.51	7.21	9.38	-0.0388	0.294	-0.2938	
-0.0793	-0.945866	0.207522	-45.29	7.14	8.82	-0.0249	0.2927	-0.2856	
-0.08418	-0.98698	0.208864	-45.29	12.11	10.15	-0.0263	0.2942	-0.2871	
-0.087962	-1.010282	0.181658	-44.45	15.26	11.97	-0.0235	0.3069	-0.2801	
-0.087718	-1.009916	0.190442	-45.29	13.09	10.71	-0.0192	0.3041	-0.2706	
-0.100284	-1.003328	0.16836	-38.99	15.96	10.15	-0.0177	0.3061	-0.2608	
-0.108336	-0.974658	0.166408	-33.53	16.1	9.94	-0.0177	0.3156	-0.2572	
-0.115534	-0.962702	0.16165	-31.64	13.37	8.96	-0.0109	0.3247	-0.2599	
-0.1098	-0.96319	0.155794	-34.23	7.98	8.19	-0.0066	0.3251	-0.2502	
-0.110532	-0.977952	0.174216	-35.98	3.36	7.63	-0.0134	0.3268	-0.247	
-0.105896	-0.965752	0.147498	-24.29	6.72	7.28	-0.0037	0.3318	-0.2386	
-0.09089	-0.960384	0.159088	-23.17	4.27	6.37	-0.0092	0.3381	-0.2368	
-0.092232	-0.952942	0.147986	-24.08	3.36	5.95	-0.0105	0.3288	-0.2373	
-0.107116	-0.985394	0.144936	-26.04	0.77	4.06	-0.0049	0.3494	-0.225	
-0.111142	-0.996984	0.148108	-25.34	0.49	3.15	-0.0023	0.3413	-0.2333	
-0.111508	-0.978684	0.139202	-21.21	3.08	3.92	0.0046	0.3447	-0.2251	
-0.107726	-0.951844	0.118584	-17.64	6.72	4.41	0.0048	0.3466	-0.217	
-0.117852	-0.955992	0.085888	-17.85	6.72	4.27	0.0006	0.356	-0.215	
-0.132492	-0.963556	0.074054	-18.48	5.6	4.27	-0.002	0.3419	-0.2205	
-0.132248	-0.971242	0.067954	-19.53	2.87	3.78	0.0048	0.3497	-0.2168	
-0.125782	-0.976488	0.06771	-19.25	1.54	4.13	0.0006	0.3638	-0.2147	
-0.129564	-0.986248	0.063318	-17.85	-0.28	4.27	0.0104	0.3594	-0.2067	
-0.125782	-0.970876	0.060024	-16.38	-0.28	3.99	0.005	0.3518	-0.204	
-0.134566	-0.96197	0.04697	-15.89	-0.7	3.71	0.0104	0.3469	-0.2088	
-0.13725	-0.970998	0.030378	-15.68	-1.33	3.71	0.0118	0.3565	-0.2036	
-0.141032	-0.977952	0.027694	-17.5	-4.55	4.13	0.0078	0.3692	-0.1967	
-0.136274	-0.994544	0.019276	-17.01	-4.13	4.06	0.0064	0.3675	-0.2	
-0.129564	-0.991738	0.023668	-14.77	-4.06	4.69	0.0134	0.3711	-0.1885	
-0.131516	-0.981368	0.005612	-11.9	-0.42	5.18	0.0039	0.3651	-0.1842	
-0.143106	-0.975512	-0.002684	-10.99	-0.07	4.76	0.0077	0.3722	-0.1982	
-0.149206	-0.995764	-0.022936	-13.02	-2.24	3.29	0.0054	0.3684	-0.1792	
-0.14518	-1.022116	-0.011224	-15.82	-6.51	2.24	0.0093	0.3806	-0.1834	
-0.142984	-1.008086	-0.01342	-12.81	-2.45	3.15	0.0079	0.3727	-0.187	
-0.141154	-0.976122	-0.023058	-6.3	3.64	3.71	0.0067	0.3698	-0.1823	
-0.140544	-0.976854	-0.041724	-5.67	4.55	2.94	0.0108	0.362	-0.1826	
-0.154574	-0.993934	-0.03721	-10.5	-1.75	1.61	0.0136	0.3747	-0.1756	
-0.158722	-0.99674	-0.026108	-11.9	-3.36	0.91	0.0219	0.3668	-0.1789	
-0.144204	-1.00101	-0.025376	-9.8	-1.68	1.05	0.0108	0.3667	-0.1824	
-0.141276	-0.995276	-0.03355	-6.93	-0.49	1.12	0.011	0.3733	-0.1725	
-0.154818	-0.996252	-0.051728	-3.92	1.68	1.82	0.0179	0.375	-0.1691	
-0.16165	-0.992958	-0.063928	-2.8	0.63	1.05	0.0109	0.3716	-0.1774	
-0.154818	-1.010038	-0.076128	-3.57	-1.12	-0.56	0.0068	0.3764	-0.174	
-0.173118	-1.041026	-0.074786	-2.59	-2.87	-1.26	0.0081	0.37	-0.1775	
-0.167262	-1.03517	-0.07124799	0.63	-3.22	-1.82	0.0109	0.3811	-0.1721	
-0.16653	-1.021628	-0.07747	5.32	-0.84	-2.17	0.0193	0.3736	-0.1659	
-0.164456	-1.025532	-0.07515199	7.7	-2.45	-3.01	0.0081	0.3794	-0.1755	
-0.169946	-1.024922	-0.076494	8.82	-4.83	-4.62	0.0137	0.3716	-0.1757	
-0.165432	-1.038342	-0.085156	12.53	-5.25	-5.74	0.0109	0.3762	-0.1772	
-0.163968	-1.042734	-0.086376	15.47	-7.98	-7.35	0.0095	0.3685	-0.1759	
-0.164578	-1.026996	-0.077348	18.34	-8.19	-8.68	-0.0016	0.3728	-0.1616	
-0.167628	-1.027484	-0.07381	20.09	-9.1	-9.17	0.0052	0.365	-0.1874	
-0.164944	-1.025532	-0.069174	21.91	-10.08	-10.08	0.0012	0.3746	-0.1806	
-0.147254	-1.018212	-0.06466	23.45	-11.34	-11.62	-0.0016	0.3727	-0.1888	
-0.146278	-1.022116	-0.06771	25.62	-10.85	-12.88	0.0009	0.3724	-0.1951	
-0.144082	-1.028826	-0.052338	27.16	-12.6	-14.42	-0.0045	0.3613	-0.2005	
-0.140666	-1.028338	-0.050508	31.5	-10.36	-16.52	-0.0101	0.3565	-0.2057	
-0.130906	-1.017724	-0.033794	34.72	-10.85	-17.5	-0.0074	0.361	-0.2086	
-0.11407	-1.010526	-0.00244	37.87	-9.45	-19.81	-0.0156	0.35	-0.2125	
-0.099552	-1.006378	0.006222	40.95	-8.19	-19.81	-0.0172	0.345	-0.2223	
-0.100284	-1.008696	0.02562	44.52	-8.05	-19.6	-0.0285	0.3412	-0.2403	
-0.10309	-1.019554	0.055632	48.37	-8.05	-18.9	-0.0299	0.3378	-0.2469	
-0.092232	-1.002596	0.07015	52.99	-8.4	-19.25	-0.0285	0.3331	-0.2471	
-0.063806	-0.990152	0.109556	55.86	-6.86	-18.13	-0.0273	0.3313	-0.2519	
-0.052216	-0.974536	0.10614	60.2	-4.06	-17.71	-0.0356	0.3123	-0.2625	
-0.038796	-0.963068	0.138104	61.88	-4.9	-17.92	-0.0412	0.32	-0.2655	
-0.040382	-0.946354	0.15799	63.7	-3.71	-17.57	-0.0494	0.3059	-0.2695	
-0.025742	-0.94306	0.183244	64.19	-7.98	-18.62	-0.0496	0.2976	-0.2827	
-0.017202	-0.94245	0.206912	64.05	-11.13	-19.11	-0.0497	0.2848	-0.2913	
-0.0122	-0.93696	0.225944	65.94	-11.97	-19.39	-0.0554	0.2939	-0.2974	
-0.014518	-0.93086	0.231434	69.44	-11.2	-18.2	-0.0539	0.2691	-0.2985	
-0.00366	-0.926346	0.260226	71.4	-11.48	-16.45	-0.0705	0.264	-0.3102	
-0.00061	-0.923906	0.285358	71.4	-11.48	-15.12	-0.0597	0.2557	-0.3216	
0.011102	-0.907436	0.36722	72.66	-6.37	-9.1	-0.075	0.2491	-0.3334	
-0.011468	-0.898774	0.308904	77.56	-13.65	-17.08	-0.0749	0.2398	-0.3322	
-0.02013	-0.864004	0.334036	84.07	-9.73	-14.42	-0.07229999	0.2222	-0.3457	
0.01525	-0.84607	0.406138	88.06	-11.9	-15.05	-0.0753	0.2138	-0.3605	
0.03416	-0.813252	0.410896	95.13	-0.49	-13.37	-0.078	0.2076	-0.3609	
0.030256	-0.786534	0.431758	96.11	-0.07	-13.93	-0.0836	0.1854	-0.3732	
0.01403	-0.760426	0.431148	96.39	4.48	-14.28	-0.0781	0.1792	-0.3734	
0.013664	-0.70272	0.421266	100.31	-16.8	-16.66	-0.08639999	0.1556	-0.381	
0.068564	-0.70089	0.50996	99.68	-18.83	-20.23	-0.0837	0.1365	-0.393	
0.070394	-0.671244	0.553636	105.35	-16.59	-21.49	-0.0975	0.1302	-0.3968	
0.061244	-0.674172	0.57401	110.6	-11.48	-22.61	-0.0962	0.1081	-0.4073	
0.040382	-0.652212	0.555954	114.8	-12.74	-22.4	-0.1031	0.1032	-0.4125	
0.047824	-0.594018	0.56913	117.67	-14.49	-21.42	-0.1005	0.0716	-0.4283	
0.094062	-0.499102	0.602802	116.69	-16.03	-20.58	-0.1031	0.0577	-0.4257	
0.102602	-0.501054	0.674294	110.74	-24.08	-22.89	-0.1112	0.0392	-0.4252	
0.103334	-0.524844	0.698206	109.83	-27.51	-25.9	-0.1085	0.0173	-0.4309	
0.12444	-0.451766	0.666974	115.29	-25.34	-28.35	-0.1194	-0.0123	-0.4117	
0.157136	-0.40199	0.706502	116.97	-22.33	-29.12	-0.1275	-0.0385	-0.4354	
0.183732	-0.37149	0.7381	118.79	-21.49	-29.68	-0.1233	-0.0541	-0.4376	
0.18239	-0.357338	0.766526	120.82	-20.16	-29.54	-0.1313	-0.08329999	-0.4327	
0.164456	-0.301096	0.798002	121.52	-19.39	-28.84	-0.1341	-0.0959	-0.4382	
0.175802	-0.26047	0.795196	117.88	-21.35	-28.21	-0.1353	-0.1221	-0.4362	
0.205204	-0.22875	0.804834	115.78	-23.17	-26.67	-0.1408	-0.1346	-0.4401	
0.257542	-0.179584	0.85217	115.92	-23.66	-25.62	-0.1377	-0.156	-0.4314	
0.265472	-0.144448	0.906338	117.81	-16.24	-24.43	-0.1403	-0.1696	-0.4257	
0.231068	-0.103212	0.876448	117.74	-20.44	-23.8	-0.147	-0.1865	-0.4218	
0.247782	-0.039406	0.870104	114.73	-21.7	-20.86	-0.1452	-0.2091	-0.4068	
0.243512	0.019886	0.895602	111.16	-19.88	-17.29	-0.1506	-0.2291	-0.4062	
0.29402	0.071858	0.901946	104.72	-26.46	-18.06	-0.149	-0.2381	-0.3986	
0.306708	0.105774	0.924028	100.38	-21.49	-15.05	-0.1516	-0.2502	-0.3928	
0.31354	0.125904	0.950624	96.74	-20.86	-13.72	-0.1541	-0.2652	-0.3808	
0.35136	0.169946	0.934276	94.78	-29.61	-19.18	-0.1567	-0.2805	-0.3783	
0.351238	0.203862	0.956724	88.97	-16.03	-15.12	-0.1567	-0.2884	-0.3803	
0.333182	0.217892	0.942328	86.59	-18.27	-16.59	-0.155	-0.3002	-0.368	
0.34282	0.272914	0.965996	84	-18.06	-16.73	-0.1603	-0.3248	-0.3644	
0.337574	0.324276	0.971364	78.75	-17.71	-14.42	-0.164	-0.3316	-0.3424	
0.37027	0.332816	0.937936	73.36	-16.66	-14.49	-0.1638	-0.3422	-0.3365	
0.333914	0.300974	0.90097	74.69	-13.79	-12.18	-0.1582	-0.3498	-0.3336	
0.344528	0.355508	0.935252	72.24	-18.76	-13.51	-0.1674	-0.3628	-0.3136	
0.3843	0.419314	0.95709	65.87	-19.32	-15.68	-0.1661	-0.3677	-0.3186	
0.399916	0.424804	0.931958	59.64	-14.49	-11.62	-0.1671	-0.3763	-0.303	
0.375882	0.415898	0.884622	58.66	-11.69	-10.57	-0.1575	-0.3812	-0.3078	
0.3965	0.455304	0.900726	54.88	-14.91	-12.46	-0.167	-0.3854	-0.2986	
0.409554	0.494344	0.903532	49.42	-15.19	-11.34	-0.1696	-0.3866	-0.2907	
0.428342	0.50081	0.889014	43.61	-11.41	-9.1	-0.157	-0.4003	-0.2831	
0.405406	0.49288	0.866688	42	-9.17	-9.52	-0.1514	-0.4017	-0.2798	
0.427366	0.539728	0.91073	33.67	-7.91	-8.33	-0.1597	-0.3956	-0.2829	
0.413214	0.538752	0.879742	27.65	-4.06	-7.63	-0.1594	-0.4183	-0.2712	
0.39467	0.51301	0.860954	21.77	0.77	-4.62	-0.155	-0.4131	-0.2565	
0.38979	0.528626	0.862418	16.94	0.21	-3.85	-0.1536	-0.4223	-0.2553	
0.388448	0.539728	0.860466	12.32	-0.35	-3.15	-0.1688	-0.424	-0.2605	
0.385886	0.526552	0.862906	9.52	-1.47	-2.24	-0.1662	-0.415	-0.2664	
0.393816	0.54229	0.872178	5.95	-1.82	-0.56	-0.1591	-0.4207	-0.2553	
0.395036	0.540338	0.874374	2.59	-1.89	0	-0.1577	-0.4222	-0.2521	
0.393206	0.52765	0.856562	0.14	-1.12	0.56	-0.1564	-0.4224	-0.2569	
0.394548	0.53619	0.859856	-3.15	-1.4	1.4	-0.1591	-0.4254	-0.2555	
0.400404	0.54046	0.877668	-8.05	-1.89	1.96	-0.1618	-0.419	-0.2521	
0.411994	0.541314	0.877058	-11.76	-1.33	2.38	-0.166	-0.4256	-0.2605	
0.413336	0.535458	0.893284	-15.68	-0.98	2.66	-0.1552	-0.4291	-0.2684	
0.421144	0.543266	0.902556	-19.6	0.35	3.29	-0.1592	-0.421	-0.2617	
0.434686	0.549976	0.913536	-23.59	-4.62	-3.29	-0.1634	-0.4211	-0.2634	
0.448472	0.554246	0.91988	-28	-0.49	0.98	-0.1609	-0.4124	-0.2773	
0.434686	0.54534	0.927444	-33.18	2.66	2.45	-0.1581	-0.4027	-0.2689	
0.42334	0.535336	0.9272	-43.54	8.61	5.11	-0.1666	-0.408	-0.2837	
0.41968	0.518744	0.928176	-50.05	9.52	6.3	-0.1639	-0.405	-0.2867	
0.405284	0.49898	0.906826	-52.85	10.71	7.49	-0.1667	-0.3878	-0.2827	
0.401746	0.476532	0.929518	-58.38	10.01	8.33	-0.1558	-0.3929	-0.2907	
0.412238	0.456036	0.942572	-65.1	12.11	9.31	-0.1587	-0.3948	-0.3005	
0.408578	0.434808	0.932202	-70.28	14.91	10.22	-0.1577	-0.38	-0.2901	
0.398696	0.401014	0.926834	-74.55	15.54	11.41	-0.1593	-0.3633	-0.323	
0.3843	0.382226	0.932446	-79.17	17.29	12.53	-0.1622	-0.3573	-0.3292	
0.368928	0.36112	0.912438	-82.95	18.27	13.3	-0.1572	-0.3491	-0.3527	
0.35441	0.31842	0.89792	-86.59	17.92	14.49	-0.1532	-0.3431	-0.3555	
0.351848	0.28792	0.922442	-91.7	17.99	16.1	-0.1451	-0.3262	-0.3578	
0.35136	0.242536	0.919392	-96.74	18.2	17.15	-0.1536	-0.308	-0.3683	
0.344162	0.207644	0.906826	-100.45	19.46	17.78	-0.1509	-0.3003	-0.3695	
0.3416	0.165798	0.907192	-104.72	21.98	19.88	-0.1594	-0.2836	-0.3769	
0.300852	0.113338	0.855586	-102.83	23.45	20.09	-0.1526	-0.2807	-0.3814	
0.306952	0.061244	0.911584	-110.46	21.98	20.65	-0.1518	-0.2491	-0.4024	
0.28731	0.02928	0.873642	-111.3	29.05	20.16	-0.1481	-0.2312	-0.3918	
0.262178	-0.007686	0.856806	-113.4	27.44	21.14	-0.1453	-0.2061	-0.4099	
0.260104	-0.027206	0.857416	-117.46	26.67	22.19	-0.1484	-0.1927	-0.4221	
0.239486	-0.069784	0.887672	-125.51	38.29	30.17	-0.1472	-0.1774	-0.4278	
0.207888	-0.100894	0.770796	-118.37	48.93	39.13	-0.1351	-0.1546	-0.4345	
0.200568	-0.179828	0.78629	-134.19	16.03	23.8	-0.1338	-0.1375	-0.4337	
0.198372	-0.236314	0.808128	-128.94	17.71	24.64	-0.1271	-0.102	-0.4351	
0.190198	-0.282308	0.76067	-125.09	22.89	26.25	-0.1245	-0.0867	-0.4391	
0.178242	-0.324398	0.752984	-121.73	34.23	28.28	-0.1316	-0.0714	-0.445	
0.16531	-0.361242	0.708942	-117.6	37.73	28.7	-0.1139	-0.053	-0.447	
0.144326	-0.396378	0.681614	-117.18	31.22	27.23	-0.1098	-0.0358	-0.4429	
0.129442	-0.430538	0.674416	-118.37	24.43	26.39	-0.1127	-0.0127	-0.4451	
0.107116	-0.485072	0.641598	-116.62	25.06	26.6	-0.1045	0.0153	-0.4405	
0.089426	-0.527406	0.620248	-115.22	21.35	26.46	-0.0963	0.0263	-0.435	
0.07686	-0.573156	0.619394	-114.59	16.1	25.83	-0.0989	0.044	-0.4215	
0.066002	-0.64599	0.592798	-110.39	16.73	25.41	-0.0907	0.0734	-0.42	
0.050752	-0.687348	0.58743	-105	12.81	25.41	-0.0881	0.0874	-0.4193	
0.04636	-0.696986	0.559004	-100.24	15.89	25.83	-0.0949	0.0907	-0.4145	
0.027572	-0.700402	0.512766	-95.62	17.64	25.2	-0.0866	0.1173	-0.4067	
0.00061	-0.736148	0.479704	-94.85	13.72	23.94	-0.0809	0.1242	-0.3903	
-0.02684	-0.761524	0.435418	-91.98	10.92	22.75	-0.0756	0.1487	-0.3971	
-0.039772	-0.795806	0.398818	-90.02	6.3	23.87	-0.0686	0.1536	-0.3887	
-0.033672	-0.821792	0.391864	-87.36	1.82	24.5	-0.0712	0.1683	-0.3737	
-0.040748	-0.837652	0.372954	-83.72	1.05	25.06	-0.0712	0.1807	-0.3731	
-0.031232	-0.834114	0.338916	-81.06	2.52	25.48	-0.0697	0.1889	-0.3615	
-0.003904	-0.85339	0.330864	-82.6	0.91	25.41	-0.0643	0.2091	-0.3589	
-0.011956	-0.87108	0.312442	-81.13	3.5	24.85	-0.0586	0.2174	-0.3472	
-0.021228	-0.87779	0.29036	-80.43	6.09	24.29	-0.049	0.2283	-0.3433	
-0.032818	-0.91988	0.26901	-83.44	5.18	20.93	-0.0613	0.2409	-0.3398	
-0.061	-0.976976	0.233874	-84	9.8	15.47	-0.0515	0.2477	-0.3265	
-0.07686	-1.009306	0.183854	-79.31	12.04	17.78	-0.0445	0.2636	-0.3145	
-0.146034	-1.006134	0.117242	-71.26	2.38	13.65	-0.0415	0.2674	-0.2983	
-0.086742	-1.006866	0.15189	-72.17	20.02	14.63	-0.0386	0.2866	-0.2845	
-0.103944	-0.989176	0.069296	-64.4	30.73	19.11	-0.0401	0.2973	-0.2889	
-0.118096	-1.045906	0.059414	-68.11	22.68	16.87	-0.0276	0.3054	-0.2787	
-0.117242	-1.06201	0.04209	-70	13.51	14.42	-0.0192	0.312	-0.2686	
-0.141032	-1.050908	0.062342	-66.85	9.24	12.95	-0.0245	0.3188	-0.2556	
-0.114558	-1.036512	0.049532	-57.75	15.54	10.29	-0.0147	0.3239	-0.2424	
-0.136274	-1.03334	0.03599	-51.94	19.18	9.03	-0.0203	0.3285	-0.2455	
-0.126636	-1.01931	0.047092	-52.01	15.4	7.49	-0.016	0.3336	-0.234	
-0.105774	-0.986248	0.055144	-48.79	18.06	7.14	-0.0103	0.3512	-0.2203	
-0.119194	-0.96136	0.027084	-43.12	19.53	8.89	-0.009	0.3401	-0.2256	
-0.142374	-0.990884	0.032086	-40.25	16.03	10.36	-0.0062	0.3511	-0.2218	
-0.148962	-1.016016	0.042456	-40.04	9.8	11.62	0.0007	0.3437	-0.214	
-0.130174	-0.99064	0.054534	-34.79	9.52	13.37	0.0064	0.3581	-0.202	
-0.118096	-0.975146	0.030744	-27.23	16.59	13.72	0.0104	0.3515	-0.2102	
-0.146156	-0.981856	0.023058	-31.15	11.34	10.78	0.0079	0.368	-0.1888	
-0.153964	-0.981246	-0.000732	-25.76	11.2	9.24	0.0038	0.3602	-0.1908	
-0.17446	-0.989054	-0.02074	-23.94	7.77	7.28	0.0231	0.368	-0.1869	
-0.142252	-1.02236	0.002806	-26.6	0.42	7.21	0.0163	0.3698	-0.1821	
-0.141764	-1.032974	0.003538	-23.52	1.96	5.95	0.0165	0.3702	-0.1725	
-0.147864	-1.009672	-0.005978	-15.68	9.59	5.6	0.0217	0.3822	-0.1814	
-0.157624	-0.979538	-0.005734	-11.06	9.45	4.97	0.0149	0.3729	-0.182	
-0.166286	-0.988688	-0.014762	-10.01	8.96	4.34	0.0135	0.3712	-0.1853	
-0.162626	-1.002352	-0.029402	-12.39	5.25	2.38	0.0179	0.3736	-0.1659	
-0.153842	-1.009794	-0.035868	-8.19	6.3	1.75	0.0219	0.3873	-0.17	
-0.167628	-1.020896	-0.070028	-2.17	9.66	2.94	0.0179	0.3765	-0.169	
-0.175558	-1.025776	-0.076982	-2.38	5.53	1.4	0.029	0.3799	-0.1622	
-0.185928	-1.033706	-0.079178	-1.26	2.38	0.42	0.0317	0.3752	-0.1624	
-0.183244	-1.013332	-0.084546	-0.07	-0.35	0	0.0221	0.3705	-0.1644	
-0.17934	-1.001864	-0.097234	1.54	-2.45	0.28	0.0275	0.3813	-0.1654	
-0.18361	-0.99003	-0.118828	4.55	-3.43	1.54	0.0302	0.3781	-0.1671	
-0.1891	-0.98698	-0.11224	3.08	-6.37	1.75	0.0275	0.3797	-0.1655	
-0.181414	-1.005524	-0.11895	0.56	-10.71	1.68	0.0274	0.3764	-0.1704	
-0.179706	-1.021994	-0.110166	0.63	-12.81	1.89	0.0204	0.3823	-0.1783	
-0.176778	-1.025044	-0.106628	3.43	-13.23	1.82	0.0248	0.3656	-0.1709	
-0.172386	-1.010282	-0.104432	5.95	-12.81	1.05	0.0178	0.3842	-0.1703	
-0.160918	-1.01565	-0.099918	6.51	-12.53	0.63	0.0234	0.3798	-0.1655	
-0.168116	-1.031144	-0.102724	5.53	-15.26	0.07	0.0177	0.3809	-0.1752	
-0.168726	-1.038342	-0.078324	6.44	-16.31	-2.31	0.011	0.3718	-0.171	
-0.163968	-1.020164	-0.082472	11.97	-14.07	-4.34	0.0136	0.3747	-0.1772	
-0.155184	-1.001132	-0.06734399	14.42	-14.14	-5.81	0.0232	0.3825	-0.1734	
-0.166042	-1.001498	-0.060512	17.01	-11.62	-6.3	0.0096	0.3718	-0.1726	
-0.171776	-1.012234	-0.061122	17.5	-13.3	-7.35	0.0134	0.3694	-0.1902	
-0.160796	-0.99796	-0.050996	20.65	-14.7	-9.03	0.0123	0.3654	-0.176	
-0.15128	-1.001864	-0.044774	23.52	-15.12	-9.87	0.012	0.3584	-0.1955	
-0.147498	-1.006988	-0.020496	23.8	-16.31	-11.2	0.0079	0.3648	-0.1905	
-0.148718	-0.992836	-0.011956	27.37	-13.93	-12.25	0.0036	0.355	-0.2022	
-0.14945	-0.984418	0.00366	31.64	-11.27	-13.02	0.0064	0.3612	-0.2019	
-0.13969	-0.976488	0.020618	33.25	-12.18	-12.81	-0.0033	0.3531	-0.2121	
-0.132614	-0.978928	0.046482	31.92	-14.77	-12.88	-0.0003	0.3553	-0.1959	
-0.121268	-0.97905	0.064538	32.27	-14.63	-13.37	-0.0076	0.3465	-0.222	
-0.119072	-0.97783	0.072224	34.86	-12.18	-13.23	-0.01	0.3472	-0.2061	
-0.11529	-0.979172	0.083082	37.31	-11.55	-13.37	-0.0185	0.3404	-0.221	
-0.106628	-0.977708	0.09942999	37.87	-12.6	-14.21	-0.009099999	0.3413	-0.2335	
-0.093086	-0.966484	0.132248	38.64	-12.67	-14.21	-0.0215	0.3272	-0.2392	
-0.096746	-0.95221	0.138592	39.76	-10.36	-13.37	-0.0217	0.3425	-0.2449	
-0.087596	-0.937204	0.150914	40.46	-9.66	-12.74	-0.0299	0.3284	-0.2489	
-0.077592	-0.930982	0.175802	39.13	-9.73	-11.48	-0.0382	0.3347	-0.2488	
-0.061	-0.914878	0.190808	37.94	-8.26	-10.43	-0.0301	0.3202	-0.2589	
-0.045506	-0.910242	0.213134	35.35	-7.91	-10.5	-0.0384	0.3138	-0.2657	
-0.032696	-0.90463	0.229848	33.18	-6.72	-10.29	-0.044	0.3168	-0.2689	
-0.029768	-0.902068	0.240096	32.9	-5.74	-10.29	-0.0372	0.3103	-0.2739	
-0.024522	-0.904996	0.265106	30.73	-5.39	-10.36	-0.0399	0.2978	-0.2761	
-0.01037	-0.906704	0.30012	27.79	-5.81	-10.85	-0.0495	0.2963	-0.2764	
-0.015616	-0.903044	0.311466	26.81	-3.57	-9.73	-0.0468	0.2867	-0.2831	
0.002562	-0.908412	0.330986	25.27	-4.27	-8.54	-0.0552	0.2958	-0.2893	
-0.00671	-0.8967	0.340502	23.66	-3.57	-7.84	-0.0552	0.2865	-0.2897	
-0.013664	-0.897676	0.349774	21.56	-2.31	-6.44	-0.047	0.2831	-0.2945	
-0.00427	-0.904752	0.35258	19.39	-0.63	-5.39	-0.0593	0.2787	-0.2901	
0.030866	-0.91134	0.372832	17.85	-0.84	-4.41	-0.0498	0.2894	-0.2943	
-0.00915	-0.925736	0.417972	16.03	-2.1	-5.18	-0.0553	0.2753	-0.2982	
0.027084	-0.906704	0.394914	18.83	3.43	-7.35	-0.0552	0.277	-0.2933	
0.029768	-0.87108	0.396744	18.62	2.24	-8.33	-0.058	0.2675	-0.2986	
0.02806	-0.868762	0.393938	18.83	3.85	-9.17	-0.058	0.2642	-0.3036	
0.013908	-0.884256	0.398574	19.81	5.74	-8.96	-0.0635	0.2721	-0.3017	
-0.002928	-0.87901	0.39955	20.58	7.91	-7.63	-0.058	0.2596	-0.3038	
-0.004514	-0.867298	0.382348	18.9	6.23	-6.58	-0.0611	0.2697	-0.3194	
-0.003538	-0.875472	0.36661	16.59	5.18	-7.07	-0.0582	0.256	-0.3151	
-0.011712	-0.885598	0.374662	13.3	0.21	-5.53	-0.0611	0.2636	-0.318	
-0.006222	-0.894626	0.378688	12.6	-1.19	-3.85	-0.0653	0.2681	-0.3211	
-0.001464	-0.90341	0.38674	10.78	-2.31	-1.68	-0.0639	0.2665	-0.3228	
0.00488	-0.90646	0.39406	9.8	-3.08	0.63	-0.054	0.2545	-0.3119	
0.0122	-0.905484	0.388082	9.94	-3.01	2.03	-0.0585	0.2553	-0.3311	
0.011834	-0.895968	0.386252	10.64	-2.38	3.08	-0.0571	0.257	-0.3262	
0.007564	-0.894626	0.397232	9.8	-3.64	2.52	-0.0667	0.2398	-0.332	
0.013542	-0.884988	0.400282	8.61	-3.92	1.68	-0.068	0.2509	-0.3251	
0.021106	-0.877058	0.398696	7.84	-3.22	1.05	-0.0586	0.2457	-0.338	
0.012566	-0.880474	0.401136	7.42	-2.31	1.47	-0.0638	0.251	-0.3219	
0.006466	-0.8906	0.397476	7.07	-1.68	1.96	-0.0542	0.2478	-0.325	
0.013176	-0.90585	0.398086	6.02	-0.42	1.33	-0.0626	0.2521	-0.333	
0.000488	-0.896578	0.39284	6.23	1.26	1.12	-0.0569	0.248	-0.3186	
-0.001342	-0.896822	0.388326	6.51	2.66	0.63	-0.0638	0.2401	-0.324	
-0.00427	-0.892308	0.39162	5.67	2.87	-0.35	-0.0558	0.2473	-0.3346	
-0.011346	-0.890234	0.38979	4.69	3.22	-1.12	-0.057	0.2414	-0.3285	
-0.0305	-0.8967	0.38918	4.97	2.87	-0.49	-0.0545	0.2425	-0.3396	
-0.028182	-0.897676	0.391498	4.69	2.45	-0.35	-0.0597	0.2384	-0.3271	
-0.024644	-0.890478	0.39833	4.27	2.24	-0.7	-0.0585	0.2428	-0.3317	
-0.021106	-0.887794	0.40199	3.92	2.59	-0.77	-0.06	0.2425	-0.3397	
-0.022448	-0.884622	0.403454	3.64	2.24	-0.28	-0.0641	0.2395	-0.3384	
-0.026108	-0.887916	0.4026	3.01	2.1	0	-0.0627	0.2332	-0.3402	
-0.025864	-0.890112	0.404186	2.52	1.96	0.35	-0.0613	0.2349	-0.3369	
-0.022936	-0.889624	0.404674	2.17	1.61	0.56	-0.0572	0.2426	-0.3365	
-0.021472	-0.886818	0.407358	2.31	1.4	0.56	-0.0585	0.235	-0.3337	
-0.022448	-0.880474	0.411872	2.24	1.19	0.56	-0.0557	0.2459	-0.3315	
-0.02257	-0.881206	0.410652	1.82	1.12	0	-0.0599	0.2317	-0.3386	
-0.021472	-0.882548	0.41114	1.61	1.05	-0.21	-0.0612	0.2366	-0.3336	
-0.021472	-0.883402	0.409432	1.54	1.05	-0.42	-0.0406	0.2286	-0.3352	
-0.019276	-0.882548	0.41114	1.47	0.84	-0.7	-0.0624	0.2448	-0.3237	
-0.020618	-0.885842	0.411018	1.26	0.91	-1.05	-0.0546	0.2281	-0.3483	
-0.01891	-0.881694	0.41297	1.12	0.84	-1.47	-0.0585	0.2317	-0.3386	
-0.012566	-0.879864	0.414922	0.84	0.7	-1.75	-0.0585	0.2286	-0.3387	
-0.013298	-0.882182	0.415776	0.49	0.77	-1.96	-0.0573	0.2391	-0.3462	
-0.016226	-0.88633	0.417728	0.56	1.05	-1.89	-0.0517	0.2331	-0.3416	
-0.01647	-0.881938	0.420778	0.56	0.98	-1.75	-0.0571	0.2255	-0.3388	
-0.016226	-0.882182	0.4148	0.49	1.05	-1.68	-0.0573	0.2406	-0.3462	
-0.02074	-0.884378	0.4148	0.28	0.91	-1.61	-0.0572	0.2332	-0.3385	
-0.026718	-0.887184	0.413946	0.21	0.21	-1.61	-0.0461	0.2397	-0.3316	
-0.017812	-0.887184	0.408334	0.56	0.49	-1.89	-0.0448	0.2364	-0.3349	
-0.008417999	-0.883646	0.41419	0.91	-0.21	-1.89	-0.0668	0.2363	-0.3402	
-0.011224	-0.88511	0.417728	0.84	-0.14	-1.82	-0.057	0.2337	-0.3289	
-0.01403	-0.891454	0.414678	0.7	-0.35	-1.4	-0.053	0.2317	-0.3369	
-0.013908	-0.887672	0.415654	0.42	-0.84	-0.49	-0.0572	0.2346	-0.3416	
-0.004392	-0.879498	0.419436	0.14	-1.19	0	-0.0557	0.2255	-0.3372	
-0.004148	-0.880352	0.418216	0.07	-0.77	0.07	-0.0614	0.2314	-0.3451	
-0.009272	-0.88145	0.415776	0.21	-0.49	-0.28	-0.0585	0.2334	-0.3353	
-0.007929999	-0.879498	0.412482	0.07	-0.63	-0.63	-0.0585	0.2287	-0.3355	
-0.005246	-0.885598	0.41236	-0.35	-0.35	-1.05	-0.0615	0.2281	-0.35	
-0.004758	-0.888648	0.410164	-0.56	-0.35	-1.05	-0.0653	0.2334	-0.3355	
-0.004026	-0.88816	0.410774	-0.49	-0.35	-0.84	-0.0544	0.2364	-0.3367	
-0.00305	-0.891698	0.409676	-0.49	-0.21	-0.63	-0.0557	0.238	-0.3351	
-0.00915	-0.887672	0.410286	-0.35	-0.42	-0.49	-0.057	0.2335	-0.3321	
-0.004514	-0.884256	0.410652	-0.49	-0.49	-0.63	-0.0532	0.2345	-0.3447	
-0.000122	-0.884744	0.407846	-0.49	-0.42	-0.91	-0.0584	0.2382	-0.3319	
-0.000244	-0.88694	0.409188	-0.35	0.07	-1.05	-0.0613	0.2394	-0.3399	
-0.002562	-0.888892	0.412482	-0.35	0.21	-1.19	-0.057	0.2272	-0.334	
-0.004758	-0.890844	0.411262	-0.49	0.14	-0.91	-0.0572	0.2347	-0.34	
-0.00305	-0.890356	0.408944	-0.49	0.14	-0.7	-0.064	0.2319	-0.3355	
-0.002562	-0.886574	0.4087	-0.21	0.14	-0.49	-0.0557	0.2365	-0.3351	
-0.006588	-0.884378	0.412848	-0.35	-0.07	-0.35	-0.0476	0.2394	-0.338	
-0.01403	-0.888892	0.411506	-0.49	-0.07	-0.42	-0.0571	0.2349	-0.3352	
-0.013176	-0.887062	0.411506	-0.63	-0.42	-0.21	-0.0612	0.2333	-0.337	
-0.005612	-0.87779	0.415166	-1.26	-0.28	-0.35	-0.0599	0.2411	-0.3366	
-0.013542	-0.873154	0.418582	-2.24	-0.91	-0.42	-0.0613	0.2426	-0.3366	
-0.025864	-0.872178	0.432002	-5.6	-3.01	-0.77	-0.06	0.2315	-0.3434	
-0.045506	-0.878034	0.422486	-8.4	-4.83	-1.12	-0.0623	0.2262	-0.323	
-0.052338	-0.884622	0.404796	-8.75	-7.77	-1.68	-0.0641	0.2347	-0.3418	
-0.036966	-0.874374	0.43432	-8.05	-8.68	-1.54	-0.0556	0.2399	-0.3286	
-0.029036	-0.863638	0.457622	-8.61	-8.47	-4.2	-0.0653	0.2429	-0.3302	
-0.031476	-0.885354	0.425658	-8.33	-9.24	-8.4	-0.0736	0.2444	-0.3336	
-0.053314	-0.855342	0.4148	-4.41	-9.45	-11.9	-0.0655	0.2456	-0.3397	
-0.02013	-0.840458	0.41419	-4.13	-9.59	-11.69	-0.0735	0.2414	-0.3305	
-0.021716	-0.813496	0.424072	-5.6	-4.34	-14.35	-0.0763	0.2382	-0.3339	
-0.014762	-0.815204	0.422608	-6.16	-0.49	-18.97	-0.0747	0.2371	-0.3227	
-0.02074	-0.830454	0.421388	-8.05	0.49	-23.59	-0.0763	0.2446	-0.3304	
-0.020496	-0.844362	0.42456	-9.52	-1.19	-28.91	-0.0817	0.2416	-0.3275	
-0.013786	-0.840092	0.404308	-8.12	0.21	-32.55	-0.0788	0.2404	-0.3195	
-0.005246	-0.835456	0.392108	-8.05	1.89	-35.63	-0.0775	0.2355	-0.3261	
0.03111	-0.8479	0.407602	-11.06	1.82	-39.9	-0.0857	0.2389	-0.3197	
0.055876	-0.854488	0.41968	-12.95	1.82	-43.47	-0.0954	0.2372	-0.3248	
0.066002	-0.843752	0.402722	-12.74	7.42	-47.04	-0.0925	0.242	-0.3197	
0.080154	-0.834114	0.354654	-11.41	12.39	-51.45	-0.1033	0.2395	-0.3089	
0.080764	-0.83265	0.351238	-12.25	15.75	-55.93	-0.1119	0.2482	-0.323	
0.095038	-0.843752	0.367586	-12.74	16.87	-60.41	-0.1035	0.228	-0.3222	
0.116632	-0.829112	0.366488	-12.95	22.96	-64.12	-0.1103	0.2392	-0.3154	
0.17507	-0.827648	0.371246	-12.11	34.02	-65.52	-0.1131	0.2374	-0.322	
0.103944	-0.823378	0.24156	-3.5	34.51	-67.9	-0.1185	0.233	-0.3175	
0.214476	-0.864736	0.36722	-13.44	22.47	-79.52	-0.1172	0.233	-0.3174	
0.189466	-0.866688	0.329888	-6.02	31.78	-77.07	-0.1281	0.233	-0.3177	
0.168726	-0.84241	0.321714	-2.31	29.19	-79.73	-0.1325	0.2404	-0.327	
0.181414	-0.840824	0.291946	2.24	31.36	-84.14	-0.139	0.2255	-0.3135	
0.223504	-0.853268	0.312076	4.62	23.52	-85.75	-0.1474	0.2252	-0.3232	
0.258884	-0.855464	0.321958	9.1	21.98	-87.15	-0.1516	0.2125	-0.3303	
0.247538	-0.828624	0.308416	17.01	19.53	-86.94	-0.1543	0.2157	-0.327	
0.261934	-0.814716	0.28365	21.77	9.17	-88.69	-0.16	0.1996	-0.3439	
0.377346	-0.804224	0.291336	23.31	-2.94	-90.3	-0.1625	0.1751	-0.337	
0.482022	-0.802028	0.363682	20.16	-12.04	-92.33	-0.1654	0.1858	-0.3398	
0.490684	-0.756156	0.38735	26.46	-9.17	-89.39	-0.1805	0.1685	-0.3473	
0.485072	-0.747616	0.349042	31.15	-11.13	-87.01	-0.1968	0.166	-0.3382	
0.5368	-0.762622	0.307318	27.58	-21	-83.93	-0.2009	0.1535	-0.3404	
0.58072	-0.786534	0.338306	24.92	-32.06	-80.92	-0.209	0.1427	-0.3395	
0.596214	-0.773602	0.38186	30.31	-35.14	-76.65	-0.2187	0.1365	-0.3416	
0.584014	-0.739198	0.39528	35.63	-31.71	-71.61	-0.2227	0.1303	-0.342	
0.607804	-0.697718	0.364536	46.2	-27.44	-66.01	-0.235	0.1149	-0.3413	
0.6405	-0.686982	0.307684	52.01	-29.82	-61.25	-0.2459	0.0995	-0.3407	
0.656726	-0.673196	0.257786	53.13	-40.04	-51.87	-0.2459	0.0964	-0.3424	
0.681614	-0.657824	0.263886	40.88	-63.42	-42.21	-0.261	0.087	-0.3464	
0.744444	-0.661606	0.247416	28.49	-85.47	-31.99	-0.2664	0.0763	-0.3438	
0.70638	-0.724802	0.225212	21.56	-115.01	-29.75	-0.2773	0.06879999	-0.3395	
0.79849	-0.60085	0.396134	-28.56	-151.83	-31.01	-0.3067	0.063	-0.3501	
1.041514	-0.49288	0.501298	-10.64	-127.54	-24.08	-0.32	0.0562	-0.2803	
1.079822	-0.35624	0.495564	32.62	-77.98	-6.09	-0.3268	0.0548	-0.2773	
0.998936	-0.438224	0.359046	47.11	-41.3	-1.47	-0.3376	0.0443	-0.2701	
0.96685	-0.54778	0.19947	39.83	-32.06	-3.5	-0.3334	0.0508	-0.2633	
0.928664	-0.592188	0.27755	25.69	-39.48	0.49	-0.3403	0.0569	-0.2664	
0.915366	-0.53253	0.3233	28.91	-26.6	4.76	-0.3457	0.0494	-0.262	
0.947086	-0.440298	0.293898	24.01	-15.61	6.02	-0.3469	0.0387	-0.2577	
0.914268	-0.450668	0.227042	25.27	-4.41	7.49	-0.3428	0.0341	-0.2579	
0.832894	-0.5307	0.174948	26.25	-6.02	11.06	-0.3445	0.0428	-0.2703	
0.816546	-0.52765	0.207034	24.15	-15.33	10.01	-0.354	0.0369	-0.266	
0.8784	-0.461526	0.260226	16.1	-18.06	8.68	-0.3471	0.04	-0.2641	
0.8906	-0.509838	0.254858	17.78	-11.34	12.18	-0.351	0.0341	-0.258	
0.835944	-0.508374	0.249856	20.44	-9.8	12.53	-0.344	0.0297	-0.2517	
0.891332	-0.442372	0.307562	11.41	-11.69	9.52	-0.3525	0.0403	-0.2594	
0.91805	-0.50752	0.30256	5.53	0.84	13.16	-0.3513	0.0366	-0.2707	
0.849974	-0.530334	0.295118	9.52	3.5	13.79	-0.3595	0.04	-0.2659	
0.8357	-0.505202	0.319762	6.86	6.02	17.01	-0.3566	0.0419	-0.2578	
0.843264	-0.518744	0.313784	3.99	10.01	16.73	-0.3511	0.0434	-0.2576	
0.80276	-0.530822	0.297436	4.48	14.56	21.77	-0.3444	0.0462	-0.2637	
0.854	-0.524356	0.325008	-2.17	14.91	24.5	-0.3512	0.0448	-0.2624	
0.872544	-0.52582	0.34831	-8.05	20.37	30.38	-0.3417	0.038	-0.2736	
0.85644	-0.509716	0.333426	-12.25	27.23	33.67	-0.3404	0.0537	-0.2681	
0.850828	-0.567666	0.329888	-17.36	31.08	34.93	-0.3255	0.06879999	-0.2751	
0.79056	-0.599752	0.315736	-21.14	34.16	35.84	-0.3378	0.0533	-0.2777	
0.794708	-0.617076	0.265838	-18.97	33.18	37.52	-0.3228	0.075	-0.2747	
0.753228	-0.615246	0.286944	-11.97	27.79	38.85	-0.327	0.0841	-0.2808	
0.692838	-0.629886	0.284992	-8.19	27.79	42.63	-0.3092	0.07759999	-0.2839	
0.686494	-0.713944	0.281454	-5.25	26.81	45.85	-0.3147	0.0854	-0.2837	
0.719068	-0.721752	0.312198	-6.86	26.04	51.17	-0.3052	0.09299999	-0.2863	
0.737978	-0.712846	0.31476	-13.37	28.91	51.17	-0.2984	0.0959	-0.2892	
0.715652	-0.706136	0.305976	-16.52	32.27	51.87	-0.2932	0.1157	-0.2962	
0.665876	-0.725656	0.25803	-8.4	34.72	55.58	-0.2794	0.1282	-0.2922	
0.636474	-0.71004	0.268156	-0.91	31.71	58.59	-0.2726	0.1156	-0.2958	
0.608414	-0.72834	0.307318	0.21	30.8	57.61	-0.2701	0.1308	-0.303	
0.595848	-0.708332	0.313662	1.89	30.66	57.68	-0.2579	0.1397	-0.3103	
0.59292	-0.734074	0.305244	3.36	28.77	57.82	-0.2549	0.1449	-0.2973	
0.54412	-0.754448	0.31476	6.93	28.91	58.52	-0.2484	0.1425	-0.3148	
0.509838	-0.734196	0.352458	6.65	24.85	60.06	-0.2401	0.1613	-0.309	
0.501786	-0.736514	0.390278	5.95	22.4	61.18	-0.2362	0.153	-0.3205	
0.49654	-0.757254	0.421754	3.78	19.95	62.37	-0.2224	0.1561	-0.3184	
0.468846	-0.766892	0.36844	1.96	26.74	65.24	-0.2199	0.1649	-0.3292	
0.396622	-0.795074	0.364048	4.76	38.64	67.97	-0.2101	0.17	-0.3175	
0.371124	-0.800808	0.41297	4.34	24.71	64.96	-0.209	0.168	-0.3288	
0.340746	-0.799954	0.456646	4.2	28.14	66.85	-0.1954	0.1879	-0.3324	
0.314638	-0.78629	0.468846	1.12	31.08	70.77	-0.183	0.1973	-0.3269	
0.302926	-0.76128	0.407846	-6.37	31.43	74.9	-0.1667	0.1985	-0.3345	
0.291702	-0.780434	0.41968	-9.17	25.13	74.9	-0.1611	0.1955	-0.3313	
0.266204	-0.788852	0.389668	-8.4	27.51	72.38	-0.1544	0.2015	-0.3341	
0.223016	-0.823378	0.403332	-11.2	27.79	72.59	-0.1378	0.2079	-0.327	
0.18117	-0.87108	0.379908	-11.2	24.01	72.8	-0.1367	0.215	-0.3427	
0.13115	-0.879254	0.366488	-6.93	17.5	71.68	-0.1326	0.212	-0.3395	
0.10675	-0.872178	0.352946	-1.54	9.87	69.86	-0.112	0.2212	-0.3386	
0.109922	-0.86498	0.388082	2.17	0.42	68.04	-0.1119	0.2182	-0.3356	
0.11834	-0.86559	0.4026	4.55	11.48	68.67	-0.1093	0.2274	-0.3367	
0.109434	-0.862052	0.394914	5.39	13.3	69.86	-0.0929	0.2223	-0.3446	
0.07124799	-0.842044	0.381372	7	19.53	71.12	-0.08329999	0.2254	-0.3442	
0.077348	-0.848022	0.413092	7.56	18.62	70.98	-0.0737	0.227	-0.3423	
0.062098	-0.828746	0.404552	9.66	22.4	70.7	-0.0654	0.2286	-0.3405	
0.045994	-0.838384	0.405772	11.41	25.55	70.56	-0.0765	0.2346	-0.3452	
0.022814	-0.832162	0.403942	15.75	28.49	70.35	-0.0574	0.2233	-0.3533	
0.005734	-0.826672	0.402966	17.01	29.82	70.7	-0.0338	0.2237	-0.34	
-0.004026	-0.829356	0.438346	16.66	29.4	71.12	-0.0327	0.2246	-0.3543	
-0.069052	-0.823988	0.413458	18.55	35.91	73.71	-0.0094	0.2245	-0.3554	
-0.130174	-0.80825	0.419924	19.6	38.57	74.97	0.0069	0.2179	-0.3602	
-0.204106	-0.79361	0.40382	21	41.86	76.16	0.014	0.2199	-0.3503	
-0.231068	-0.782142	0.401868	21.14	39.62	75.67	0.0301	0.2096	-0.3712	
-0.258518	-0.756888	0.403332	19.95	35.63	74.06	0.0415	0.2152	-0.3484	
-0.292922	-0.760548	0.450302	17.36	31.29	75.25	0.0467	0.2161	-0.361	
-0.334402	-0.752862	0.430172	17.92	37.1	73.57	0.0591	0.2082	-0.3643	
-0.365268	-0.732854	0.43676	15.33	38.15	71.61	0.073	0.2054	-0.3545	
-0.386008	-0.742004	0.419436	14.42	38.36	71.05	0.0826	0.199	-0.3578	
-0.4209	-0.72895	0.39406	17.36	42.91	69.65	0.0895	0.1943	-0.3578	
-0.457378	-0.69845	0.414312	13.86	41.44	67.83	0.1019	0.1928	-0.356	
-0.494954	-0.69601	0.41236	14.7	43.4	64.82	0.1182	0.1907	-0.3398	
-0.526674	-0.721996	0.427976	19.6	43.26	63.07	0.1291	0.1779	-0.3721	
-0.515084	-0.689544	0.403454	22.19	39.48	60.27	0.1388	0.1782	-0.3639	
-0.522404	-0.670634	0.428586	21.35	41.58	59.85	0.1445	0.1582	-0.3615	
-0.583282	-0.599752	0.38674	27.79	47.25	57.75	0.1512	0.1577	-0.3709	
-0.654774	-0.627324	0.408578	23.73	46.2	53.55	0.1608	0.1594	-0.3675	
-0.687226	-0.644526	0.380884	31.43	42.14	49.98	0.179	0.1411	-0.3567	
-0.670756	-0.630862	0.410164	35.42	39.9	49.98	0.1804	0.1396	-0.3568	
-0.646844	-0.581574	0.421022	35.98	33.18	48.16	0.1968	0.1316	-0.36	
-0.665022	-0.550098	0.428098	37.94	29.82	43.82	0.2009	0.122	-0.3667	
-0.687348	-0.558516	0.419924	37.31	29.82	40.25	0.2024	0.1193	-0.3572	
-0.707844	-0.540094	0.435052	38.01	30.38	38.29	0.208	0.1116	-0.3558	
-0.682346	-0.511058	0.42578	36.12	25.2	39.06	0.212	0.1004	-0.3626	
-0.706624	-0.491538	0.437614	31.57	25.83	35.84	0.2216	0.097	-0.3674	
-0.79544	-0.490806	0.435296	30.8	28.28	32.27	0.2217	0.08329999	-0.3632	
-0.782386	-0.484706	0.456524	30.24	25.06	31.36	0.222	0.0871	-0.371	
-0.765428	-0.466406	0.421876	26.95	22.26	30.1	0.2424	0.0786	-0.3614	
-0.797758	-0.471164	0.425658	23.87	19.6	27.02	0.2273	0.0662	-0.3639	
-0.791292	-0.460184	0.458964	21.84	17.15	24.43	0.2535	0.0615	-0.3603	
-0.744932	-0.453962	0.453718	21	14.63	23.8	0.2509	0.0556	-0.3542	
-0.757132	-0.44469	0.43737	18.34	20.79	20.44	0.251	0.0544	-0.3463	
-0.800808	-0.4148	0.443836	16.8	16.94	17.15	0.2593	0.0528	-0.3462	
-0.799588	-0.417728	0.446764	14.07	12.25	17.29	0.2645	0.0364	-0.366	
-0.827526	-0.421998	0.435784	11.9	11.34	15.61	0.262	0.0338	-0.355	
-0.825452	-0.409554	0.432978	10.71	7.42	14.28	0.2662	0.0277	-0.352	
-0.821182	-0.395524	0.434564	5.32	3.78	13.72	0.2607	0.0404	-0.3467	
-0.838018	-0.401136	0.43676	-1.75	1.12	12.25	0.2593	0.0278	-0.3505	
-0.840946	-0.418216	0.445056	-2.59	-0.14	10.71	0.2662	0.0356	-0.35	
-0.80459	-0.420046	0.451522	-1.82	-1.26	10.64	0.2702	0.037	-0.3515	
-0.802272	-0.401258	0.427244	-0.42	-0.35	10.71	0.2716	0.0292	-0.3534	
-0.831308	-0.399184	0.425902	-2.1	-0.77	10.15	0.2593	0.0325	-0.3503	
-0.825086	-0.400892	0.426512	-2.31	-3.22	8.82	0.2633	0.0275	-0.3584	
-0.817522	-0.390522	0.434808	-3.78	-4.13	7.63	0.266	0.0305	-0.3598	
-0.819962	-0.39528	0.436028	-3.99	-4.76	6.44	0.2703	0.0355	-0.3499	
-0.806542	-0.396988	0.44103	-2.17	-3.99	5.81	0.269	0.0341	-0.3468	
-0.815936	-0.382592	0.448716	-3.64	-3.15	4.48	0.2523	0.0321	-0.3601	
-0.811544	-0.391498	0.442982	-3.78	-2.24	3.22	0.2688	0.018	-0.3619	
-0.818376	-0.38857	0.438712	-4.13	-2.52	1.89	0.262	0.0262	-0.3521	
-0.8296	-0.39589	0.42944	-4.83	-3.71	0.28	0.2674	0.0195	-0.3635	
-0.815692	-0.392352	0.4453	-4.83	-4.55	-0.77	0.2621	0.0263	-0.3505	
-0.818498	-0.384178	0.450058	-5.25	-5.25	-1.75	0.2633	0.0323	-0.355	
-0.826794	-0.394182	0.43676	-5.39	-4.48	-3.43	0.2579	0.034	-0.3519	
-0.825208	-0.399306	0.439932	-5.81	-6.02	-5.32	0.2483	0.0309	-0.3522	
-0.823622	-0.397964	0.437736	-6.37	-7.42	-7	0.262	0.037	-0.3532	
-0.823866	-0.400404	0.439322	-7.91	-8.26	-9.38	0.2578	0.0417	-0.3531	
-0.813008	-0.399428	0.449814	-9.31	-8.61	-11.48	0.2605	0.0399	-0.3579	
-0.824476	-0.40199	0.4453	-11.06	-8.05	-13.93	0.2565	0.0354	-0.355	
-0.839604	-0.401258	0.442006	-12.18	-9.1	-16.1	0.2453	0.0461	-0.3596	
-0.837164	-0.417118	0.436272	-12.95	-10.78	-18.41	0.2507	0.0521	-0.3624	
-0.820328	-0.444446	0.43249	-14	-11.9	-19.95	0.2454	0.051	-0.3546	
-0.804834	-0.447252	0.421754	-13.86	-14	-21.7	0.2535	0.0537	-0.3623	
-0.802272	-0.449448	0.422242	-14.98	-15.33	-23.52	0.2369	0.0489	-0.3676	
-0.798124	-0.449082	0.430172	-17.22	-17.64	-26.39	0.241	0.0629	-0.3653	
-0.779824	-0.467382	0.426024	-20.3	-19.74	-30.1	0.2301	0.0694	-0.3605	
-0.766892	-0.470798	0.434198	-20.44	-20.16	-31.92	0.2341	0.07539999	-0.3633	
-0.752374	-0.479094	0.445056	-20.86	-20.58	-33.6	0.2356	0.0835	-0.3565	
-0.734684	-0.490562	0.451034	-24.71	-19.32	-34.23	0.219	0.0944	-0.358	
-0.71858	-0.496174	0.44408	-25.34	-19.39	-36.4	0.2218	0.085	-0.3599	
-0.723094	-0.51911	0.436394	-25.27	-19.6	-38.99	0.2147	0.1019	-0.3641	
-0.722972	-0.538386	0.428098	-23.52	-19.18	-41.3	0.2136	0.1024	-0.3529	
-0.711748	-0.53619	0.44225	-24.08	-20.09	-42.91	0.2022	0.1141	-0.3702	
-0.70028	-0.543022	0.441518	-25.34	-20.72	-44.94	0.2022	0.1141	-0.3702	
-0.681614	-0.557052	0.433344	-25.9	-19.88	-45.99	0.1996	0.1268	-0.3617	
-0.655506	-0.564372	0.428952	-25.9	-21.84	-47.67	0.1858	0.1442	-0.3564	
-0.643184	-0.579988	0.434686	-25.69	-21.21	-48.65	0.1843	0.1391	-0.3663	
-0.631106	-0.583038	0.424194	-25.76	-22.12	-50.68	0.1735	0.1349	-0.3587	
-0.604998	-0.610976	0.426024	-26.74	-25.27	-53.76	0.1664	0.1612	-0.3609	
-0.565836	-0.63501	0.425414	-25.9	-24.78	-56.91	0.1543	0.1571	-0.3501	
-0.538264	-0.65209	0.427854	-25.9	-26.04	-59.43	0.1487	0.1647	-0.3531	
-0.528138	-0.658678	0.418216	-24.92	-25.69	-61.25	0.1418	0.1568	-0.3568	
-0.514108	-0.66795	0.417606	-23.94	-27.02	-62.79	0.1389	0.1925	-0.3569	
-0.48373	-0.670268	0.435906	-23.52	-28.28	-65.73	0.1183	0.1848	-0.3592	
-0.458964	-0.676978	0.454816	-22.26	-29.82	-67.34	0.1129	0.185	-0.3546	
-0.430904	-0.706868	0.446398	-22.19	-26.81	-68.53	0.1142	0.1988	-0.3571	
-0.414068	-0.725412	0.432978	-20.3	-27.86	-70.84	0.1018	0.2051	-0.3571	
-0.395646	-0.748958	0.44164	-18.83	-28.98	-72.52	0.0935	0.2051	-0.3589	
-0.341966	-0.763476	0.436882	-17.36	-35	-76.86	0.0853	0.2177	-0.3537	
-0.274012	-0.768112	0.460672	-15.75	-26.18	-76.44	0.073	0.218	-0.3507	
-0.246806	-0.758352	0.432124	-13.86	-25.83	-79.17	0.0619	0.2193	-0.3573	
-0.209718	-0.768356	0.435296	-15.05	-25.83	-81.34	0.051	0.2275	-0.3476	
-0.183366	-0.783362	0.433222	-14.56	-18.55	-81.2	0.0429	0.2214	-0.3464	
-0.179828	-0.800808	0.404674	-15.12	-16.66	-82.18	0.0357	0.2349	-0.3572	
-0.160064	-0.811178	0.405528	-13.02	-17.57	-81.34	0.0168	0.2279	-0.3435	
-0.126636	-0.787144	0.386984	-11.69	-23.52	-84.07	0.0112	0.2356	-0.3449	
-0.09028	-0.789706	0.379054	-10.99	-23.31	-83.93	-0.005	0.2377	-0.3356	
-0.077836	-0.763476	0.361486	-14.14	-27.3	-83.51	-0.0187	0.233	-0.3377	
-0.055022	-0.771406	0.347212	-17.64	-31.57	-82.11	-0.0256	0.2283	-0.3412	
-0.022692	-0.792634	0.345992	-18.9	-34.51	-80.57	-0.0448	0.2425	-0.3378	
0.003904	-0.784948	0.339404	-18.13	-32.27	-76.58	-0.0557	0.238	-0.3351	
0.044896	-0.78812	0.313906	-17.57	-33.46	-74.27	-0.0669	0.2441	-0.3398	
0.085888	-0.805078	0.285602	-17.92	-34.37	-72.73	-0.0844	0.2387	-0.3245	
0.136396	-0.854488	0.296216	-18.2	-38.36	-75.25	-0.0857	0.2403	-0.3228	
0.187026	-0.847534	0.30683	-16.52	-36.47	-75.46	-0.1022	0.2389	-0.3216	
0.237656	-0.833626	0.325008	-18.41	-32.76	-75.6	-0.1242	0.2374	-0.3238	
0.242536	-0.88023	0.307684	-21.14	-24.85	-64.05	-0.1267	0.2426	-0.3108	
0.417728	-0.857416	0.249368	-28.07	-56.21	-88.13	-0.1253	0.2457	-0.3107	
0.386374	-0.850828	0.315004	-26.04	-49.07	-89.67	-0.1253	0.2457	-0.3107	
0.382714	-0.869494	0.29219	-7.35	-27.65	-84.98	-0.165	0.2305	-0.309	
0.432612	-0.880962	0.27084	-2.03	-32.83	-85.75	-0.1747	0.2242	-0.3127	
0.482266	-0.895724	0.299754	-6.02	-32.62	-92.96	-0.1867	0.2268	-0.2921	
0.511912	-0.888282	0.298412	7.07	-24.57	-92.89	-0.1881	0.2203	-0.2988	
0.520452	-0.86864	0.264618	22.19	-16.66	-89.25	-0.2087	0.2111	-0.2997	
0.54107	-0.871812	0.27694	13.65	-24.99	-86.73	-0.2181	0.1911	-0.2976	
0.571814	-0.881328	0.293044	13.93	-24.85	-85.89	-0.2237	0.1972	-0.3006	
0.5734	-0.873642	0.283162	18.2	-24.5	-80.22	-0.2332	0.1787	-0.3001	
0.56364	-0.867664	0.269986	25.06	-21.56	-70.98	-0.2359	0.1694	-0.3005	
0.539484	-0.810568	0.265594	29.54	-22.33	-63.7	-0.2481	0.1588	-0.2965	
0.588406	-0.813008	0.27877	18.62	-31.43	-60.48	-0.2619	0.1557	-0.2985	
0.616954	-0.76677	0.301462	18.27	-32.55	-56.63	-0.27	0.1514	-0.2925	
0.647332	-0.728706	0.2989	17.22	-32.34	-52.92	-0.2768	0.1327	-0.2951	
0.674416	-0.705526	0.30805	15.26	-32.9	-51.73	-0.2793	0.1379	-0.2837	
0.669414	-0.717238	0.328302	18.2	-31.71	-48.72	-0.2821	0.1285	-0.2858	
0.639524	-0.753594	0.345504	7.21	-36.75	-41.93	-0.2946	0.1235	-0.2959	
0.692228	-0.706746	0.309392	4.34	-38.71	-35.77	-0.2957	0.1209	-0.2849	
0.714432	-0.677954	0.286578	1.61	-37.59	-30.52	-0.3052	0.1103	-0.2808	
0.747494	-0.676124	0.29585	-3.71	-38.71	-27.16	-0.3133	0.1154	-0.2711	
0.746518	-0.650504	0.305488	-0.77	-31.5	-21.91	-0.3256	0.0922	-0.2724	
0.768112	-0.640256	0.28182	-0.7	-23.66	-18.27	-0.3256	0.0922	-0.2724	
0.780678	-0.649406	0.262422	0.63	-21.7	-18.13	-0.3281	0.1021	-0.2593	
0.763354	-0.665388	0.263642	0.14	-20.02	-16.45	-0.327	0.103	-0.2736	
0.75396	-0.656116	0.25864	1.89	-16.87	-13.86	-0.3377	0.0958	-0.2613	
0.739076	-0.648552	0.221674	6.02	-15.26	-12.95	-0.3377	0.0958	-0.2613	
0.745298	-0.614148	0.232532	0.07	-21.14	-13.3	-0.3322	0.0944	-0.2581	
0.78751	-0.592432	0.26291	-2.73	-22.26	-13.86	-0.3349	0.0944	-0.2582	
0.785924	-0.606218	0.268034	1.75	-12.25	-10.92	-0.3444	0.09	-0.2538	
0.75945	-0.613904	0.22265	7.07	-7	-9.17	-0.3443	0.0887	-0.2474	
0.756766	-0.599386	0.21228	0.77	-11.06	-7.56	-0.3456	0.0905	-0.2426	
0.771894	-0.585722	0.24644	-3.64	-16.03	-9.1	-0.3455	0.0797	-0.2415	
0.793732	-0.588284	0.238754	-1.26	-4.48	-9.1	-0.3496	0.0844	-0.2414	
0.792146	-0.588528	0.20435	1.19	-0.07	-7.7	-0.3471	0.0792	-0.2543	
0.798246	-0.597678	0.221064	-5.32	-3.29	-7.98	-0.3496	0.0783	-0.24	
0.791536	-0.60573	0.22326	-2.52	-1.19	-7.7	-0.3412	0.0817	-0.2317	
0.783484	-0.612318	0.207156	-1.05	1.68	-6.79	-0.3482	0.0813	-0.2415	
0.780922	-0.607682	0.206424	-0.21	2.66	-5.67	-0.355	0.0832	-0.2351	
0.786046	-0.587552	0.209718	-0.56	3.08	-4.27	-0.3512	0.0793	-0.2512	
0.79849	-0.577304	0.216916	-0.49	3.36	-3.64	-0.3496	0.0783	-0.24	
0.791902	-0.588772	0.22448	1.12	4.83	-4.06	-0.3469	0.0717	-0.2483	
0.778238	-0.59475	0.205326	4.48	7.63	-3.01	-0.3468	0.0735	-0.2418	
0.773968	-0.600606	0.17934	2.59	5.39	-1.61	-0.355	0.0675	-0.239	
0.789584	-0.59475	0.213866	-4.76	-0.14	-0.07	-0.3481	0.0659	-0.239	
0.802272	-0.588894	0.228994	0.42	3.22	0.91	-0.3524	0.0796	-0.2448	
0.790926	-0.596946	0.206058	3.36	4.9	2.38	-0.3473	0.0725	-0.2658	
0.787388	-0.60268	0.229238	-1.26	2.38	3.99	-0.3497	0.0765	-0.2449	
0.798856	-0.600118	0.228628	0.7	4.06	5.6	-0.3456	0.0796	-0.2447	
0.805078	-0.6039	0.233508	-0.28	6.09	7.91	-0.3319	0.0683	-0.2529	
0.799466	-0.603412	0.23973	-1.54	7.77	9.8	-0.3375	0.087	-0.2506	
0.798734	-0.614514	0.232654	-4.06	9.24	12.11	-0.3484	0.0763	-0.2497	
0.768844	-0.62708	0.22997	-3.92	8.61	13.3	-0.3374	0.0887	-0.2473	
0.796416	-0.633424	0.225456	-7	6.44	15.05	-0.3374	0.0887	-0.2473	
0.786656	-0.633058	0.23119	-6.44	7.21	19.25	-0.3472	0.0914	-0.2314	
0.787632	-0.635498	0.2379	-8.61	8.47	23.59	-0.3402	0.0839	-0.2524	
0.789584	-0.637694	0.238144	-9.31	8.19	25.2	-0.3348	0.0915	-0.2535	
0.795928	-0.633302	0.23973	-11.41	10.71	28.28	-0.3349	0.0945	-0.2566	
0.771406	-0.653432	0.219844	-10.71	15.12	31.43	-0.3335	0.0977	-0.2548	
0.745054	-0.674416	0.20374	-9.38	16.94	36.47	-0.3199	0.1113	-0.2603	
0.735904	-0.669902	0.212768	-10.01	13.16	39.13	-0.3308	0.1194	-0.2537	
0.765428	-0.673684	0.225456	-12.11	10.92	39.2	-0.3146	0.1234	-0.2644	
0.743346	-0.676734	0.258884	-12.6	17.85	42.28	-0.3187	0.1218	-0.2661	
0.737124	-0.69906	0.224846	-10.43	23.17	44.66	-0.3159	0.1346	-0.2575	
0.72468	-0.708698	0.233508	-11.76	22.54	46.9	-0.297	0.1511	-0.2675	
0.680516	-0.709552	0.224846	-5.88	25.41	51.1	-0.2859	0.1512	-0.2641	
0.653066	-0.713212	0.238754	-8.54	25.2	51.8	-0.2928	0.1543	-0.2641	
0.65087	-0.724924	0.24278	-10.29	25.9	53.69	-0.2874	0.1681	-0.2666	
0.649772	-0.735416	0.251808	-8.68	27.16	54.11	-0.2777	0.1636	-0.2618	
0.61854	-0.748592	0.237534	-8.68	30.52	55.58	-0.2697	0.1818	-0.2688	
0.587552	-0.768112	0.235704	-7.56	31.01	57.26	-0.2658	0.1814	-0.2783	
0.571082	-0.794098	0.24583	-7.84	30.38	60.34	-0.2547	0.1769	-0.2734	
0.523624	-0.833992	0.253638	-4.76	32.9	64.47	-0.2411	0.1858	-0.2807	
0.510814	-0.830576	0.260958	-2.1	29.19	67.97	-0.2318	0.1882	-0.2948	
0.494344	-0.862906	0.309636	-2.73	25.06	70.98	-0.2372	0.2058	-0.2829	
0.468602	-0.88206	0.316224	1.19	24.57	71.89	-0.2235	0.2117	-0.2872	
0.42517	-0.908412	0.31415	3.22	26.74	75.53	-0.2098	0.2179	-0.285	
0.36234	-0.903532	0.28853	7.42	29.89	79.87	-0.1949	0.2268	-0.2923	
0.316224	-0.88511	0.267302	10.78	26.11	83.09	-0.1893	0.227	-0.2873	
0.304268	-0.889624	0.288042	8.68	19.39	85.47	-0.1827	0.2373	-0.2995	
0.281088	-0.878888	0.294386	11.97	17.22	88.2	-0.1688	0.2393	-0.2863	
0.232288	-0.884744	0.266814	13.65	3.08	84.28	-0.1621	0.2419	-0.2972	
0.216916	-0.906826	0.294996	13.86	-2.94	86.38	-0.1553	0.237	-0.3021	
0.19093	-0.906338	0.278282	20.44	-2.87	89.46	-0.1389	0.2399	-0.3048	
0.154696	-0.879376	0.254858	24.64	-6.3	89.81	-0.1378	0.244	-0.3158	
0.142496	-0.877668	0.2745	26.11	-13.09	91.91	-0.1224	0.2477	-0.3009	
0.151158	-0.875838	0.341966	26.18	-14.07	92.12	-0.1239	0.2489	-0.3089	
0.109434	-0.861076	0.30378	33.04	0.7	92.26	-0.1116	0.2519	-0.3101	
0.054412	-0.846436	0.30805	33.32	0.35	90.44	-0.1021	0.25	-0.3147	
0.033916	-0.838018	0.336964	34.65	-2.45	91.07	-0.1047	0.241	-0.3104	
0.020984	-0.84424	0.357826	35.28	0.77	92.82	-0.0856	0.2501	-0.3112	
0.009516	-0.836432	0.370514	36.82	1.05	95.48	-0.0763	0.2476	-0.3319	
-0.007564	-0.80642	0.366976	38.36	7.35	96.6	-0.0598	0.2366	-0.3336	
-0.07198	-0.806542	0.379664	38.64	9.03	96.18	-0.0529	0.2444	-0.3299	
-0.143594	-0.815692	0.400892	40.25	8.61	93.94	-0.0435	0.244	-0.3377	
-0.168726	-0.813374	0.41053	42.56	9.1	93.59	-0.0312	0.2423	-0.3407	
-0.162992	-0.78934	0.452132	43.4	9.66	94.57	-0.0217	0.2231	-0.3526	
-0.2013	-0.75152	0.449814	43.05	14.7	92.96	-0.0039	0.2229	-0.3554	
-0.272182	-0.741638	0.451888	40.95	17.15	90.3	0.0028	0.2211	-0.3585	
-0.324398	-0.72773	0.451156	39.41	14.28	86.31	0.0138	0.2086	-0.3604	
-0.316102	-0.71187	0.474458	38.29	12.04	84.98	0.0273	0.2032	-0.3748	
-0.298412	-0.68808	0.498248	37.17	11.83	81.76	0.0316	0.191	-0.3704	
-0.320372	-0.6588	0.496784	36.68	14.28	75.67	0.0466	0.1985	-0.3746	
-0.374906	-0.647942	0.508984	32.13	17.85	71.12	0.0481	0.1816	-0.3705	
-0.44408	-0.644648	0.493856	30.38	19.74	67.41	0.0506	0.1794	-0.3849	
-0.494588	-0.657092	0.515694	31.64	18.48	64.05	0.0603	0.1796	-0.3799	
-0.499224	-0.638914	0.51972	33.25	19.53	64.96	0.0698	0.1683	-0.3882	
-0.486048	-0.61671	0.518866	32.41	20.72	63.63	0.0878	0.1654	-0.3816	
-0.479582	-0.586698	0.54107	31.85	21.7	60.76	0.0809	0.1481	-0.3889	
-0.534116	-0.564006	0.540338	31.85	20.72	55.3	0.0918	0.143	-0.3969	
-0.568886	-0.568398	0.555588	32.62	18.97	52.08	0.111	0.1445	-0.3948	
-0.563762	-0.545584	0.574498	31.99	20.23	50.19	0.1124	0.143	-0.3932	
-0.577182	-0.533262	0.566324	34.51	22.12	48.09	0.111	0.132	-0.3969	
-0.59902	-0.512156	0.56791	36.19	23.1	46.97	0.1123	0.1177	-0.4056	
-0.617076	-0.487756	0.571326	36.47	23.17	44.24	0.1235	0.1167	-0.3926	
-0.626226	-0.475678	0.560956	36.61	23.94	41.09	0.1235	0.1087	-0.3977	
-0.642818	-0.457378	0.575596	36.26	24.15	37.38	0.1329	0.1003	-0.4107	
-0.665632	-0.44164	0.585844	37.1	24.71	33.74	0.1345	0.0883	-0.4016	
-0.64599	-0.415288	0.601826	35.35	23.17	31.99	0.1427	0.0865	-0.4063	
-0.642818	-0.392108	0.590846	32.62	24.01	29.61	0.1497	0.0822	-0.3968	
-0.681004	-0.40321	0.587796	31.85	24.99	26.32	0.1497	0.0634	-0.4024	
-0.701378	-0.38613	0.591334	29.96	25.97	23.45	0.1647	0.0676	-0.4099	
-0.725168	-0.379542	0.59536	27.02	27.23	21.42	0.155	0.0598	-0.4136	
-0.71858	-0.376004	0.581208	24.36	27.72	19.18	0.1675	0.0568	-0.4103	
-0.70516	-0.37149	0.576694	22.89	27.02	16.8	0.1703	0.0428	-0.4109	
-0.733342	-0.356362	0.572912	20.93	27.02	13.93	0.1758	0.0444	-0.4075	
-0.765672	-0.348188	0.572546	19.46	25.41	11.06	0.1746	0.0416	-0.4013	
-0.734318	-0.358558	0.572668	17.29	23.87	8.75	0.1828	0.0399	-0.4044	
-0.736636	-0.3599	0.564982	17.22	24.15	6.65	0.198	0.0402	-0.3944	
-0.755302	-0.362584	0.567422	16.94	25.06	4.2	0.1925	0.0292	-0.3998	
-0.746274	-0.35197	0.57218	16.31	24.08	2.94	0.2063	0.0244	-0.3998	
-0.747494	-0.342332	0.561566	14.63	25.06	2.1	0.2105	0.0263	-0.3932	
-0.768112	-0.350994	0.542046	12.6	25.55	1.12	0.2105	0.0246	-0.3949	
-0.802516	-0.345138	0.515572	12.04	23.73	0.07	0.2052	0.0205	-0.384	
-0.823134	-0.344406	0.509594	11.83	20.3	-0.56	0.2119	0.0233	-0.3901	
-0.803248	-0.343674	0.50996	12.04	17.01	-0.42	0.2242	0.0152	-0.3966	
-0.801662	-0.3477	0.506178	10.78	15.19	-0.28	0.2271	0.0186	-0.3884	
-0.81618	-0.33916	0.500444	10.08	13.02	-0.49	0.2204	0.0222	-0.3788	
-0.812276	-0.331962	0.510814	9.17	9.59	-0.14	0.2288	0.0037	-0.3762	
-0.794098	-0.334158	0.510326	7.98	7.63	0.35	0.2243	0.0169	-0.3933	
-0.785558	-0.334646	0.504714	7.21	6.58	0.21	0.23	0.0095	-0.3839	
-0.797148	-0.332084	0.498248	6.16	5.39	-0.07	0.2312	0.0138	-0.3917	
-0.805688	-0.339892	0.50813	7.14	3.64	-0.42	0.2288	0.0021	-0.3763	
-0.784094	-0.33489	0.532408	7.21	1.05	-0.14	0.2313	0.0173	-0.382	
-0.775798	-0.329766	0.537776	4.13	0.42	-0.42	0.2273	0.0049	-0.3842	
-0.784094	-0.328668	0.523014	2.59	1.54	-1.33	0.2273	-0.0012	-0.3829	
-0.786412	-0.335866	0.528138	1.61	0.91	-2.24	0.2232	0.0081	-0.381	
-0.789462	-0.329278	0.532408	1.54	0	-3.08	0.2328	0.0065	-0.3808	
-0.78324	-0.326838	0.53497	-0.56	-0.84	-3.99	0.2233	0.0022	-0.3748	
-0.800686	-0.323056	0.527772	-1.61	-1.47	-6.02	0.2299	0.0094	-0.3871	
-0.811788	-0.338916	0.525576	-2.38	-1.89	-7.98	0.2299	0.014	-0.3869	
-0.793244	-0.33794	0.540094	-2.59	-3.01	-9.38	0.2285	0.0187	-0.3868	
-0.802394	-0.329034	0.534726	-4.34	-4.41	-11.55	0.2313	0.014	-0.3869	
-0.81496	-0.344894	0.520452	-5.25	-4.48	-13.23	0.2229	0.0169	-0.3917	
-0.806908	-0.343918	0.51728	-5.18	-6.44	-14.77	0.2341	0	-0.3891	
-0.811666	-0.328546	0.541558	-6.72	-9.87	-17.15	0.2218	0.0129	-0.3792	
-0.809104	-0.32513	0.52704	-9.17	-11.48	-20.37	0.2189	0.0172	-0.3614	
-0.82716	-0.349286	0.52338	-11.83	-12.67	-23.31	0.2132	0.0309	-0.3929	
-0.808616	-0.357704	0.528626	-12.25	-16.73	-27.23	0.2132	0.0183	-0.3967	
-0.776896	-0.359534	0.531554	-15.12	-21.21	-29.82	0.2146	0.0247	-0.3932	
-0.772138	-0.35319	0.526796	-18.2	-20.58	-32.48	0.2121	0.0363	-0.3767	
-0.759938	-0.366976	0.50996	-20.58	-22.96	-35.07	0.2049	0.0387	-0.3927	
-0.734074	-0.37698	0.535458	-24.71	-24.36	-36.61	0.1968	0.0453	-0.3846	
-0.710894	-0.413458	0.522282	-27.02	-22.82	-37.8	0.1911	0.048	-0.3942	
-0.680028	-0.440664	0.521428	-26.18	-19.95	-37.8	0.1857	0.0528	-0.3925	
-0.67527	-0.450668	0.531554	-26.53	-17.92	-38.99	0.1803	0.0671	-0.4096	
-0.66795	-0.46421	0.535092	-27.16	-19.25	-39.2	0.1731	0.0727	-0.3727	
-0.65331	-0.486658	0.53009	-27.37	-18.97	-39.06	0.1827	0.0743	-0.3964	
-0.656604	-0.480314	0.516182	-25.62	-19.11	-39.69	0.1703	0.0916	-0.3927	
-0.667828	-0.48007	0.51484	-27.02	-19.95	-40.11	0.1759	0.0822	-0.3946	
-0.649162	-0.48434	0.537532	-30.38	-23.03	-40.18	0.1634	0.1057	-0.3906	
-0.629032	-0.515084	0.540948	-34.16	-23.66	-40.95	0.1621	0.1136	-0.3871	
-0.614026	-0.55266	0.536068	-35.42	-22.47	-42.35	0.1497	0.1105	-0.3891	
-0.618906	-0.546926	0.520452	-35	-19.67	-44.8	0.1469	0.1104	-0.3908	
-0.615002	-0.575108	0.502152	-34.79	-22.47	-50.05	0.1413	0.1288	-0.3964	
-0.58255	-0.581818	0.512278	-35.49	-24.01	-53.34	0.1303	0.1242	-0.3953	
-0.543876	-0.594628	0.50447	-35.42	-23.17	-56.14	0.1443	0.1357	-0.4041	
-0.529358	-0.599142	0.508252	-37.1	-21.91	-57.89	0.1305	0.1482	-0.3798	
-0.514596	-0.617686	0.510326	-37.31	-20.86	-60.55	0.1112	0.1418	-0.3613	
-0.49715	-0.634522	0.5063	-36.96	-19.88	-63.63	0.1124	0.1682	-0.3841	
-0.482144	-0.66002	0.483608	-35.49	-18.2	-67.62	0.1057	0.1639	-0.378	
-0.457134	-0.661362	0.491294	-35.49	-19.81	-71.12	0.0975	0.175	-0.3729	
-0.414922	-0.669048	0.501298	-35.14	-19.46	-74.41	0.0796	0.1766	-0.3748	
-0.403088	-0.686616	0.49898	-34.02	-17.5	-78.33	0.0768	0.1952	-0.3741	
-0.382226	-0.694302	0.480924	-33.18	-17.01	-81.13	0.0631	0.2	-0.3725	
-0.331474	-0.704794	0.498614	-34.37	-18.2	-81.41	0.0591	0.2005	-0.363	
-0.305976	-0.728462	0.504104	-32.9	-19.32	-83.3	0.0482	0.2038	-0.3599	
-0.271572	-0.756766	0.493124	-31.57	-19.95	-84.49	0.0386	0.2087	-0.3551	
-0.237656	-0.762866	0.477142	-30.87	-16.59	-84.07	0.033	0.2193	-0.3611	
-0.187148	-0.767746	0.45506	-29.12	-15.26	-85.19	0.0223	0.2248	-0.3435	
-0.147254	-0.756644	0.439322	-30.94	-15.89	-88.62	-0.0024	0.2372	-0.3467	
-0.132126	-0.76067	0.408822	-30.8	-15.54	-89.95	-0.0217	0.2356	-0.3504	
-0.112362	-0.767014	0.382348	-29.82	-17.08	-89.88	-0.0204	0.2496	-0.3497	
-0.096014	-0.77165	0.359412	-28.91	-17.22	-87.22	-0.034	0.2515	-0.342	
-0.081496	-0.754204	0.342942	-26.74	-19.39	-87.29	-0.0379	0.2506	-0.3293	
-0.08479	-0.74786	0.31049	-27.16	-23.17	-86.45	-0.0448	0.2457	-0.3345	
-0.05673	-0.761158	0.30927	-23.03	-30.17	-87.15	-0.0665	0.2544	-0.317	
-0.008905999	-0.74481	0.289506	-24.85	-40.32	-88.9	-0.0816	0.2545	-0.3173	
0.187758	-0.872788	0.514718	-21.91	-38.57	-84.84	-0.0955	0.2525	-0.3289	
0.156648	-0.70455	0.22936	-2.31	16.52	-73.78	-0.0981	0.2465	-0.3244	
0.368318	-0.858026	0.30195	-18.41	-30.38	-78.4	-0.1094	0.2538	-0.3371	
0.392352	-0.878644	0.324398	-32.62	-18.9	-80.22	-0.1171	0.2456	-0.3121	
0.479582	-0.919636	0.29585	-21.91	5.74	-72.8	-0.1334	0.2477	-0.3028	
0.373442	-0.927932	0.189222	-17.92	-32.76	-95.2	-0.1376	0.2382	-0.3065	
0.412116	-0.96929	0.285968	-32.48	-39.9	-92.4	-0.1458	0.2398	-0.3082	
0.486292	-0.936472	0.279014	-15.75	-19.11	-83.79	-0.162	0.2453	-0.2907	
0.491172	-0.963068	0.268644	-5.6	-12.04	-81.69	-0.1757	0.2314	-0.2916	
0.480436	-0.922442	0.230946	-2.52	-11.2	-80.36	-0.1787	0.2416	-0.3056	
0.455304	-0.88999	0.2196	-1.26	-9.52	-77.84	-0.188	0.2221	-0.2923	
0.456036	-0.854488	0.194834	-2.03	-16.03	-77.77	-0.1976	0.2176	-0.2911	
0.47885	-0.847168	0.211426	-8.19	-23.8	-79.38	-0.2128	0.2205	-0.2977	
0.485438	-0.81984	0.234728	-8.47	-25.41	-75.67	-0.2167	0.2038	-0.2906	
0.490196	-0.769698	0.197396	4.97	-18.13	-72.24	-0.2278	0.2131	-0.292	
0.523868	-0.772626	0.192028	7	-23.52	-73.5	-0.2289	0.1932	-0.2865	
0.562664	-0.76738	0.212768	3.15	-31.85	-72.73	-0.2426	0.2012	-0.2817	
0.611464	-0.771284	0.246684	-5.74	-38.29	-71.12	-0.2497	0.1834	-0.3002	
0.640134	-0.764574	0.237534	1.12	-35.63	-68.81	-0.2657	0.1736	-0.2802	
0.675636	-0.789096	0.262422	-2.31	-41.09	-65.59	-0.2725	0.1659	-0.2791	
0.69967	-0.791414	0.258884	5.11	-35.42	-61.11	-0.2821	0.1567	-0.2797	
0.686738	-0.767014	0.263764	4.76	-34.09	-56.7	-0.2861	0.1553	-0.2751	
0.691984	-0.768966	0.251076	7.07	-32.27	-52.15	-0.2846	0.1463	-0.2691	
0.703696	-0.780312	0.262178	-1.4	-29.82	-39.83	-0.3022	0.1422	-0.2585	
0.734684	-0.75152	0.2745	-4.97	-26.32	-33.95	-0.313	0.1302	-0.2513	
0.747006	-0.748714	0.25193	-4.97	-19.25	-30.03	-0.3132	0.1299	-0.2593	
0.761768	-0.733586	0.204716	4.06	-13.93	-24.85	-0.3172	0.1254	-0.2564	
0.7625	-0.73139	0.204106	-5.81	-15.96	-21.84	-0.3241	0.1348	-0.2545	
0.75701	-0.717848	0.243878	-12.95	-14.42	-20.23	-0.3255	0.1301	-0.2563	
0.763598	-0.70821	0.21594	1.75	-6.3	-17.85	-0.3307	0.1244	-0.2455	
0.735294	-0.684786	0.19337	5.25	-1.12	-16.17	-0.3184	0.1289	-0.2466	
0.750178	-0.663192	0.179462	1.47	-1.89	-14.21	-0.331	0.1222	-0.26	
0.74481	-0.652456	0.181048	2.66	-1.61	-12.95	-0.3266	0.1181	-0.2457	
0.716994	-0.655018	0.155062	2.1	-1.12	-11.48	-0.3376	0.118	-0.2508	
0.718458	-0.632082	0.146766	-4.27	-5.18	-9.38	-0.3363	0.1178	-0.2539	
0.73627	-0.612928	0.165432	-8.4	-9.45	-9.24	-0.3305	0.1249	-0.2343	
0.751398	-0.625738	0.180682	-7.42	-10.92	-9.8	-0.3347	0.112	-0.2446	
0.755546	-0.622932	0.189954	-2.59	-8.33	-9.94	-0.3348	0.1262	-0.2407	
0.767502	-0.636718	0.17751	-3.5	-4.34	-10.92	-0.3361	0.1089	-0.2463	
0.751398	-0.646234	0.151158	-0.63	-3.5	-11.41	-0.3388	0.1043	-0.245	
0.755424	-0.649772	0.169336	-3.08	-4.55	-11.97	-0.3444	0.112	-0.248	
0.761402	-0.642574	0.184952	-0.91	-2.8	-11.62	-0.3373	0.1001	-0.2356	
0.76006	-0.635864	0.17141	3.78	1.47	-10.64	-0.3375	0.1058	-0.2465	
0.771528	-0.649772	0.149816	3.5	3.85	-9.66	-0.347	0.0998	-0.2438	
0.782386	-0.656604	0.15067	-1.26	1.19	-8.82	-0.3414	0.097	-0.2358	
0.790072	-0.645624	0.190076	-5.39	-0.77	-8.12	-0.3401	0.1046	-0.2386	
0.787754	-0.630618	0.204472	-1.75	3.78	-6.72	-0.3457	0.1027	-0.2468	
0.773236	-0.623908	0.17934	2.59	9.1	-5.6	-0.3443	0.09959999	-0.2469	
0.765672	-0.62586	0.153354	0.98	9.73	-5.32	-0.3373	0.1079	-0.2336	
0.76555	-0.626104	0.155672	-0.28	6.86	-4.69	-0.3333	0.1106	-0.2414	
0.771894	-0.62403	0.187148	-1.19	4.55	-3.92	-0.3361	0.0948	-0.2486	
0.771284	-0.612928	0.209108	2.59	6.51	-2.8	-0.3346	0.1062	-0.2368	
0.768722	-0.598288	0.190686	6.16	10.36	-2.03	-0.3333	0.09959999	-0.2451	
0.772016	-0.60939	0.184586	2.17	8.68	-0.98	-0.3431	0.09299999	-0.2568	
0.781654	-0.609024	0.228018	-2.59	9.24	0.98	-0.336	0.0951	-0.2422	
0.77409	-0.601582	0.213622	3.22	13.86	2.1	-0.3293	0.1041	-0.248	
0.779702	-0.610732	0.205082	0.14	13.02	4.27	-0.3238	0.0916	-0.25	
0.768966	-0.62281	0.213744	-5.32	12.88	5.88	-0.3431	0.08989999	-0.2569	
0.75823	-0.617198	0.21167	-6.3	12.46	8.4	-0.3322	0.1007	-0.2562	
0.780556	-0.609268	0.196176	-1.54	11.41	11.27	-0.3268	0.1004	-0.2625	
0.742126	-0.641354	0.217404	-6.37	8.75	10.01	-0.3308	0.0944	-0.2581	
0.7564	-0.64965	0.227286	-9.03	6.09	13.51	-0.328	0.1118	-0.2492	
0.767258	-0.653798	0.21716	-7.98	8.26	17.57	-0.3362	0.104	-0.2514	
0.76616	-0.661484	0.214232	-8.05	11.55	22.33	-0.3144	0.1177	-0.2551	
0.762012	-0.658922	0.203252	-5.95	9.17	23.59	-0.3116	0.1161	-0.2551	
0.780434	-0.682834	0.218014	-12.18	7.14	25.9	-0.3199	0.1144	-0.2585	
0.767868	-0.69235	0.234118	-12.95	10.85	30.66	-0.3187	0.1267	-0.2611	
0.751154	-0.693692	0.207522	-5.6	17.36	35.42	-0.3173	0.1266	-0.2627	
0.740174	-0.696132	0.171898	0.07	18.06	37.94	-0.3052	0.1292	-0.2735	
0.72102	-0.703086	0.156892	-3.22	14.49	42.21	-0.3035	0.1315	-0.2558	
0.706258	-0.742858	0.197762	-13.02	5.6	47.81	-0.301	0.145	-0.2647	
0.691984	-0.773358	0.209596	-10.64	5.67	51.73	-0.2996	0.1419	-0.2664	
0.698328	-0.761036	0.201666	-9.94	6.86	57.96	-0.2929	0.1479	-0.2692	
0.722118	-0.770308	0.203618	-10.22	4.2	59.15	-0.2914	0.1575	-0.2623	
0.73139	-0.770186	0.213378	-7.07	8.75	61.18	-0.2861	0.1681	-0.2665	
0.709796	-0.787388	0.20008	-0.28	18.27	62.58	-0.2791	0.1729	-0.263	
0.675514	-0.814838	0.19276	4.55	19.88	62.51	-0.2724	0.1913	-0.2652	
0.67649	-0.815936	0.182512	9.94	22.12	65.66	-0.2627	0.1836	-0.2621	
0.661484	-0.831308	0.189222	10.99	21.35	68.74	-0.2561	0.1941	-0.2695	
0.618052	-0.838506	0.20313	12.95	24.22	72.17	-0.2533	0.1925	-0.2711	
0.602802	-0.83814	0.198372	15.4	26.88	76.02	-0.2425	0.2063	-0.2734	
0.591334	-0.841678	0.205692	16.1	27.65	80.29	-0.2331	0.2087	-0.2875	
0.569984	-0.86498	0.217892	17.71	27.23	83.86	-0.2207	0.2166	-0.2821	
0.540338	-0.853512	0.224846	21.7	29.82	86.66	-0.21	0.219	-0.2961	
0.48861	-0.859246	0.23424	24.36	30.38	87.15	-0.2057	0.2132	-0.2867	
0.440664	-0.8784	0.275842	25.27	23.24	90.72	-0.1854	0.2172	-0.2989	
0.397598	-0.922076	0.329034	26.53	21.77	92.54	-0.1675	0.2248	-0.2981	
0.31537	-0.928664	0.32147	32.48	22.89	93.8	-0.1569	0.2382	-0.3101	
0.250954	-0.844118	0.233142	36.05	25.97	100.03	-0.1459	0.2397	-0.3098	
0.215086	-0.844972	0.262666	35.63	19.39	105.35	-0.1367	0.2401	-0.3335	
0.204228	-0.849242	0.296216	35.7	15.96	108.08	-0.1173	0.2357	-0.3253	
0.174582	-0.839238	0.310978	38.64	14.84	107.1	-0.1105	0.2339	-0.33	
0.127978	-0.825818	0.32452	42.49	14	108.08	-0.0954	0.2371	-0.3264	
0.098332	-0.798368	0.342454	42.84	11.69	108.08	-0.0847	0.2317	-0.3424	
0.075396	-0.803858	0.379664	48.23	17.36	108.22	-0.0791	0.2334	-0.339	
0.039772	-0.796904	0.401014	52.15	23.31	107.45	-0.0683	0.225	-0.3503	
0.010004	-0.773724	0.399184	54.81	29.54	107.38	-0.0493	0.2167	-0.3614	
-0.031354	-0.73871	0.409188	58.59	35.07	105.28	-0.0383	0.2244	-0.3609	
-0.070638	-0.721996	0.426024	61.46	40.39	101.99	-0.0232	0.2087	-0.3628	
-0.108336	-0.71492	0.496052	56.49	36.26	97.65	-0.0123	0.2037	-0.3708	
-0.17995	-0.719556	0.478484	58.1	43.82	94.71	0.0067	0.1844	-0.3841	
-0.207888	-0.700036	0.434686	57.47	51.38	95.9	0.0176	0.1936	-0.409	
-0.240584	-0.621102	0.445666	52.85	58.03	94.92	0.0314	0.1733	-0.3856	
-0.289018	-0.60085	0.481412	51.03	59.71	91.91	0.0438	0.164	-0.3842	
-0.362462	-0.572302	0.47702	50.61	64.12	92.19	0.0599	0.1599	-0.4048	
-0.397476	-0.553514	0.473604	44.24	67.34	90.51	0.0821	0.1509	-0.3951	
-0.424316	-0.571814	0.484828	43.4	71.61	86.03	0.0932	0.1354	-0.394	
-0.472262	-0.527162	0.467992	46.76	76.65	82.39	0.1082	0.1334	-0.4017	
-0.578036	-0.507032	0.481534	41.65	78.47	78.96	0.1277	0.1214	-0.3907	
-0.65758	-0.523258	0.47092	41.02	74.13	77	0.1344	0.1101	-0.399	
-0.677832	-0.514718	0.437004	47.39	69.09	72.17	0.158	0.0994	-0.3926	
-0.683932	-0.451278	0.483364	48.93	59.78	66.08	0.1675	0.096	-0.3974	
-0.761768	-0.413336	0.466528	53.83	56.84	63.42	0.1719	0.08109999	-0.3836	
-0.774578	-0.444446	0.509472	56.35	50.19	57.75	0.1912	0.0718	-0.382	
-0.77653	-0.377834	0.535092	58.45	47.11	53.41	0.1926	0.067	-0.3853	
-0.727486	-0.347578	0.539484	54.39	41.3	48.65	0.209	0.0494	-0.3954	
-0.768478	-0.33062	0.526308	45.64	39.76	43.89	0.2077	0.0403	-0.391	
-0.817156	-0.312686	0.549854	38.71	32.34	38.22	0.2245	0.0126	-0.3839	
-0.799832	-0.296582	0.542778	33.04	29.82	36.82	0.2356	0.0082	-0.3775	
-0.831552	-0.29524	0.533506	26.39	29.12	34.72	0.2356	-0.0057	-0.3797	
-0.841068	-0.288774	0.552416	21.14	28.91	32.27	0.2426	-0.0039	-0.3715	
-0.828258	-0.296094	0.540094	20.02	24.36	28.28	0.251	-0.0099	-0.3668	
-0.817766	-0.294142	0.517768	18.62	23.87	24.78	0.2467	-0.0198	-0.3801	
-0.854488	-0.274012	0.512888	14.63	22.26	21.77	0.2537	-0.021	-0.372	
-0.864736	-0.267302	0.50874	12.46	19.32	18.41	0.2511	-0.0238	-0.3658	
-0.85217	-0.259006	0.487024	11.76	16.59	15.47	0.2592	-0.032	-0.374	
-0.853146	-0.265228	0.489098	8.82	15.75	13.16	0.2648	-0.027	-0.3657	
-0.851682	-0.25864	0.495198	6.72	13.23	11.41	0.2634	-0.0333	-0.3692	
-0.854488	-0.26291	0.488	4.13	12.25	9.66	0.2607	-0.0412	-0.3728	
-0.848144	-0.271084	0.497272	1.61	11.2	8.54	0.2691	-0.0439	-0.3631	
-0.834724	-0.26108	0.486536	0.35	8.61	8.19	0.2664	-0.0391	-0.3582	
-0.846314	-0.249856	0.474336	-5.95	10.29	7.28	0.2677	-0.0471	-0.3649	
-0.841068	-0.267912	0.470798	-6.65	5.67	4.97	0.2705	-0.0329	-0.3594	
-0.84424	-0.283894	0.481534	-5.11	5.6	4.41	0.2718	-0.033	-0.361	
-0.854	-0.277428	0.460916	-3.29	5.39	3.99	0.2747	-0.039	-0.3548	
-0.87413	-0.269254	0.458354	-2.03	2.94	2.87	0.2735	-0.037	-0.3452	
-0.876814	-0.28243	0.468602	-1.12	2.59	1.19	0.2802	-0.0344	-0.3561	
-0.861198	-0.283284	0.473604	-1.4	1.19	0.49	0.2705	-0.0328	-0.3562	
-0.856562	-0.277428	0.468602	-2.38	-1.12	0	0.2733	-0.0327	-0.353	
-0.866444	-0.27694	0.463478	-4.06	-2.17	-0.84	0.269	-0.0379	-0.3661	
-0.866932	-0.270962	0.466894	-5.74	-3.64	-1.61	0.2719	-0.0328	-0.3562	
-0.865224	-0.279746	0.472018	-7.98	-5.53	-3.15	0.2802	-0.036	-0.3562	
-0.855586	-0.295118	0.463234	-8.89	-7.21	-4.55	0.2718	-0.0409	-0.3629	
-0.863028	-0.292068	0.463478	-10.01	-8.54	-5.74	0.2634	-0.0255	-0.3672	
-0.874252	-0.296338	0.46055	-10.99	-10.99	-7.14	0.2703	-0.0223	-0.3637	
-0.871202	-0.311588	0.467626	-11.69	-13.44	-8.12	0.2648	-0.027	-0.3657	
-0.861442	-0.310368	0.468846	-11.69	-14.7	-9.59	0.2704	-0.0206	-0.3605	
-0.862418	-0.296704	0.463966	-13.37	-16.94	-11.41	0.2649	-0.0331	-0.3627	
-0.859978	-0.28975	0.47946	-21.07	-21.84	-16.31	0.2567	-0.0205	-0.3608	
-0.846314	-0.319274	0.465552	-25.62	-23.31	-19.46	0.2551	-0.0147	-0.3685	
-0.817644	-0.335988	0.486658	-27.86	-24.5	-21.77	0.2482	-0.0021	-0.3649	
-0.827038	-0.324764	0.48068	-29.26	-26.46	-23.8	0.2536	-0.0103	-0.3747	
-0.832406	-0.321592	0.48922	-33.46	-29.05	-26.81	0.2468	0.008599999	-0.3676	
-0.827892	-0.306586	0.481046	-38.15	-31.64	-29.82	0.2316	0.0118	-0.3678	
-0.81008	-0.341966	0.47824	-40.6	-41.58	-35.42	0.2385	0.0163	-0.3691	
-0.780068	-0.387106	0.519354	-38.57	-37.52	-38.92	0.2313	0.0361	-0.3779	
-0.751886	-0.381616	0.51118	-35.49	-36.68	-40.74	0.2161	0.0375	-0.383	
-0.769942	-0.383568	0.477996	-33.81	-36.96	-46.48	0.2189	0.0439	-0.3778	
-0.737002	-0.464454	0.502274	-32.83	-43.54	-52.08	0.2187	0.0482	-0.3872	
-0.681614	-0.441396	0.520574	-35.49	-44.59	-51.45	0.2051	0.0657	-0.3787	
-0.69052	-0.443348	0.553514	-36.61	-47.67	-51.87	0.1898	0.07	-0.3869	
-0.704428	-0.458354	0.435296	-30.31	-44.1	-54.88	0.1749	0.0721	-0.3775	
-0.636718	-0.573766	0.554978	-21.7	-55.44	-60.69	0.1746	0.0903	-0.3863	
-0.54961	-0.5124	0.552782	-32.69	-55.16	-57.61	0.1596	0.0874	-0.3835	
-0.577548	-0.544486	0.555344	-30.87	-52.57	-57.05	0.151	0.104	-0.3958	
-0.571814	-0.522404	0.451278	-25.9	-49.98	-58.52	0.1455	0.115	-0.3922	
-0.468114	-0.609878	0.589016	-21	-54.32	-63.91	0.1401	0.1151	-0.3907	
-0.415776	-0.569618	0.568886	-25.83	-50.61	-63.49	0.1249	0.1213	-0.3923	
-0.44774	-0.625982	0.564372	-28.07	-43.82	-61.81	0.1071	0.1248	-0.3862	
-0.394304	-0.713822	0.450912	-22.26	-38.01	-62.72	0.096	0.1277	-0.3927	
-0.319884	-0.767746	0.563152	-14.84	-42.07	-64.05	0.0836	0.137	-0.3941	
-0.295972	-0.743346	0.55693	-17.01	-36.12	-60.83	0.0863	0.1541	-0.3917	
-0.286822	-0.73627	0.57035	-20.51	-37.87	-57.61	0.0712	0.1433	-0.3941	
-0.300974	-0.740418	0.526308	-23.17	-31.29	-53.76	0.0616	0.1526	-0.3939	
-0.238632	-0.719556	0.444568	-21.56	-23.59	-52.71	0.0533	0.1527	-0.3941	
-0.206912	-0.749568	0.509472	-26.25	-25.55	-51.45	0.0478	0.1573	-0.3956	
-0.183366	-0.775066	0.498248	-29.26	-22.26	-50.61	0.0451	0.1684	-0.3903	
-0.159698	-0.782996	0.495808	-28.56	-13.09	-47.88	0.0314	0.178	-0.3838	
-0.141276	-0.787388	0.437858	-26.18	-7.49	-48.09	0.0409	0.1746	-0.3902	
-0.088328	-0.812642	0.46665	-27.44	-13.93	-50.05	0.0122	0.1798	-0.381	
-0.085156	-0.843874	0.4941	-26.25	-12.88	-48.79	0.015	0.1893	-0.3773	
-0.091256	-0.862174	0.5002	-23.31	-6.44	-45.92	0.0082	0.1846	-0.3776	
-0.075884	-0.882182	0.508496	-23.59	-6.3	-43.12	-0.0001	0.1892	-0.3808	
-0.032208	-0.87108	0.52704	-22.96	-3.22	-38.08	-0.0043	0.1952	-0.387	
-0.021228	-0.845582	0.522038	-20.44	3.64	-33.74	-0.0109	0.1959	-0.3711	
-0.059414	-0.863638	0.490562	-14.21	10.99	-30.38	-0.0054	0.2021	-0.3707	
-0.096014	-0.90158	0.470554	-10.15	9.45	-28.35	0	0.2036	-0.3706	
-0.133712	-0.918416	0.46726	-4.69	12.81	-21.42	-0.0054	0.21	-0.3672	
-0.137128	-0.921588	0.464088	0.14	10.57	-12.81	-0.0136	0.1929	-0.3681	
-0.11468	-0.921954	0.474214	2.52	5.04	-8.82	-0.0122	0.2024	-0.3645	
-0.09076799	-0.895846	0.512278	2.8	-6.23	-8.96	-0.0108	0.2056	-0.3611	
-0.06405	-0.857294	0.49654	4.62	-1.26	-6.51	-0.0081	0.2038	-0.3675	
-0.055144	-0.818132	0.51545	2.73	-1.47	-5.74	-0.0054	0.2036	-0.3707	
-0.057218	-0.800442	0.514962	-1.4	0.77	-8.96	-0.0137	0.2051	-0.374	
-0.048312	-0.782508	0.519598	-7.35	2.52	-13.58	-0.0055	0.2004	-0.3724	
-0.041602	-0.813252	0.512522	-11.34	19.25	-16.94	-0.0178	0.2037	-0.3709	
-0.051362	-0.826428	0.46543	-8.54	22.12	-18.97	-0.0136	0.2039	-0.366	
-0.016714	-0.77836	0.574132	-8.54	32.27	-14.42	-0.0026	0.2023	-0.3643	
-0.011346	-0.808982	0.550708	-4.76	48.16	-11.83	-0.0094	0.2149	-0.3607	
-0.040748	-0.82777	0.502274	-4.13	56.91	-13.72	0	0.2084	-0.3671	
-0.07124799	-0.789828	0.514718	-9.73	57.61	-18.55	0.0041	0.2098	-0.3686	
-0.008905999	-0.838506	0.518134	-13.93	60.41	-20.16	0.0041	0.2192	-0.3666	
-0.017324	-0.84119	0.530456	-15.12	64.05	-24.15	0.0125	0.2134	-0.3571	
0	-0.859002	0.537654	-13.51	70.84	-32.27	0.0218	0.2221	-0.3692	
-0.043798	-0.854244	0.485682	-3.71	90.16	-37.1	0.0206	0.2115	-0.3634	
-0.089548	-0.84973	0.4575	-1.54	95.9	-42.63	0.0399	0.2147	-0.3596	
-0.116632	-0.87291	0.456158	-3.36	96.39	-47.04	0.0414	0.2213	-0.3497	
-0.11224	-0.885842	0.458232	-4.2	94.99	-48.23	0.0469	0.2133	-0.3547	
-0.134932	-0.87657	0.436028	1.05	95.9	-51.45	0.0511	0.2167	-0.3481	
-0.167384	-0.861564	0.415654	3.99	96.25	-52.99	0.0636	0.2185	-0.3397	
-0.142618	-0.854854	0.445422	-2.24	92.54	-53.76	0.0788	0.2203	-0.3313	
-0.11163	-0.878522	0.430416	-1.19	96.6	-51.45	0.08549999	0.2324	-0.3386	
-0.08686399	-0.87718	0.410164	-3.15	99.05	-50.33	0.0924	0.2294	-0.3354	
-0.094306	-0.881816	0.411628	-5.39	104.02	-50.12	0.0981	0.236	-0.3254	
-0.117608	-0.884744	0.395524	-2.38	108.29	-52.36	0.109	0.2264	-0.3288	
-0.088816	-0.873642	0.37393	-0.14	112.49	-52.36	0.1104	0.2374	-0.3251	
-0.138592	-0.869982	0.381128	-7	109.48	-56.28	0.1187	0.2439	-0.3182	
-0.069784	-0.921588	0.35136	-10.01	110.18	-59.36	0.1297	0.2468	-0.321	
-0.139934	-0.920978	0.309148	-13.72	113.89	-57.19	0.13	0.2459	-0.3051	
-0.205448	-0.947574	0.263398	-11.13	115.5	-56.91	0.1452	0.2555	-0.2963	
-0.247538	-0.94184	0.216428	-6.72	107.73	-56.63	0.1522	0.2574	-0.2881	
-0.228628	-0.93147	0.208986	-10.64	92.82	-56.7	0.1562	0.2651	-0.2893	
-0.240584	-0.936716	0.236924	-17.01	81.48	-53.62	0.1604	0.2668	-0.2843	
-0.207888	-0.930982	0.216184	-18.62	74.34	-52.08	0.1662	0.2722	-0.2664	
-0.206668	-0.932202	0.215574	-18.76	68.11	-50.12	0.1594	0.2834	-0.2596	
-0.213256	-0.924028	0.23607	-20.86	55.86	-49.21	0.1635	0.2708	-0.2633	
-0.076494	-0.904874	0.288164	-17.29	47.11	-48.37	0.1637	0.2774	-0.2534	
-0.021594	-0.920124	0.270474	-11.48	50.82	-49.56	0.1624	0.2964	-0.2462	
-0.05246	-0.958432	0.267424	-8.89	48.72	-52.5	0.1665	0.3089	-0.2423	
-0.046482	-0.97844	0.294752	-13.51	44.59	-55.3	0.1529	0.2951	-0.2401	
0.040992	-0.984174	0.285358	-14.77	48.16	-49.77	0.1515	0.3062	-0.2348	
0.010736	-0.973682	0.211914	-6.37	54.53	-47.39	0.1544	0.3095	-0.2298	
-0.041846	-0.968802	0.186904	-3.85	51.31	-44.94	0.1531	0.3162	-0.2199	
-0.044164	-0.977464	0.172874	-1.75	48.09	-40.67	0.1517	0.316	-0.2232	
-0.06039	-0.980148	0.175314	-1.82	42.84	-36.96	0.1544	0.3191	-0.223	
-0.061244	-0.966606	0.165188	1.54	33.95	-35.07	0.1477	0.3242	-0.2149	
-0.074542	-0.944402	0.145912	10.57	23.73	-36.33	0.1546	0.332	-0.2112	
-0.089304	-0.912438	0.151036	15.47	16.59	-33.6	0.1489	0.3159	-0.2264	
-0.069052	-0.941352	0.191296	12.74	2.8	-30.66	0.1477	0.3226	-0.215	
-0.076372	-0.986492	0.228262	9.03	-8.05	-22.89	0.1393	0.3286	-0.2213	
-0.0061	-0.960018	0.282186	6.23	-17.08	-17.5	0.145	0.3227	-0.2134	
0.08418	-0.927688	0.31354	3.78	-18.83	-13.37	0.1353	0.3225	-0.2184	
0.138226	-0.958432	0.313052	5.88	-15.68	-8.68	0.1325	0.3287	-0.2198	
0.174826	-0.960018	0.343552	3.36	-10.15	-7.49	0.1227	0.3205	-0.2316	
0.166652	-0.94367	0.305	0.7	-7.91	-11.62	0.1284	0.3335	-0.2165	
0.118584	-0.996496	0.283528	-3.15	-10.08	-13.23	0.1227	0.3347	-0.2261	
0.142496	-0.99491	0.308416	1.4	-2.24	-12.11	0.124	0.3296	-0.2343	
0.1464	-0.91805	0.310368	10.85	1.96	-12.46	0.1268	0.3267	-0.2296	
0.141032	-0.832284	0.30073	13.02	3.29	-13.44	0.1213	0.3315	-0.2279	
0.183244	-0.912804	0.359412	6.86	0.84	-17.08	0.12	0.3206	-0.23	
0.157624	-0.94611	0.305244	3.15	4.69	-18.27	0.117	0.3231	-0.2428	
0.08052	-0.927566	0.30012	2.52	4.34	-16.73	0.1089	0.3189	-0.2335	
0.101138	-0.889746	0.306464	6.79	1.89	-15.96	0.1128	0.3214	-0.2477	
0.134078	-0.871934	0.260836	0.77	-2.24	-15.68	0.1143	0.3186	-0.2398	
0.054412	-0.91195	0.242048	-15.54	-7.91	-14.35	0.0922	0.3342	-0.2412	
0.014152	-1.026264	0.278404	-1.33	-5.39	-10.36	0.1157	0.3248	-0.2395	
0.168604	-0.97722	0.321836	-6.65	-8.12	-4.48	0.1061	0.3265	-0.2381	
0.232288	-0.922564	0.393084	-1.33	-3.29	-5.6	0.0991	0.3358	-0.2394	
0.119438	-0.851682	0.34038	7.84	-0.42	-8.19	0.0993	0.3315	-0.23	
0.144692	-0.94916	0.309392	7.63	-0.28	-4.83	0.1033	0.3389	-0.2376	
0.200324	-0.981124	0.314028	5.74	-1.19	-3.36	0.1006	0.3235	-0.2367	
0.17263	-0.943548	0.307928	8.26	-2.17	-4.2	0.0924	0.3282	-0.2367	
0.141276	-0.913414	0.312564	12.04	-3.85	-1.33	0.0924	0.3221	-0.2338	
0.155306	-0.9516	0.310856	12.81	-2.24	2.03	0.0923	0.3295	-0.2414	
0.197396	-0.98454	0.342698	16.66	-1.96	5.32	0.0991	0.3247	-0.2447	
0.2074	-0.98332	0.344772	17.92	1.54	12.6	0.0992	0.3187	-0.2402	
0.168726	-0.895236	0.297314	12.53	3.92	18.06	0.0964	0.3296	-0.2397	
0.14762	-0.945866	0.329644	5.53	0.7	18.34	0.1073	0.3167	-0.2497	
0.141276	-0.957944	0.317078	9.59	6.16	19.74	0.1003	0.3244	-0.2511	
0.14274	-0.938668	0.331718	9.8	7.07	21.21	0.1116	0.3204	-0.235	
0.15799	-0.915854	0.327326	14.77	10.99	18.06	0.1074	0.3059	-0.2485	
0.124684	-0.944158	0.343186	11.55	13.72	13.51	0.1196	0.3102	-0.2545	
0.127246	-0.962092	0.342088	14.42	18.06	11.55	0.1211	0.3105	-0.2464	
0.09467199	-0.8845	0.342576	23.1	22.82	4.76	0.1223	0.3101	-0.256	
0.11651	-0.885964	0.35807	24.92	23.03	-1.89	0.1224	0.312	-0.2479	
0.09394	-0.903898	0.379908	24.22	26.88	-8.4	0.1318	0.2957	-0.2661	
0.074176	-0.929152	0.395646	22.12	28.56	-10.36	0.1332	0.2895	-0.2647	
0.03355	-0.892186	0.391498	29.4	35.49	-11.2	0.1332	0.2988	-0.2643	
0.037942	-0.853268	0.357094	30.59	37.8	-9.73	0.1374	0.2942	-0.2628	
0.019642	-0.858758	0.398818	24.43	33.32	-11.83	0.1345	0.2909	-0.2678	
0.014274	-0.886818	0.399672	21.21	32.27	-14.28	0.1429	0.2881	-0.2598	
0.012444	-0.872178	0.41358	20.3	31.64	-13.58	0.1317	0.2876	-0.2744	
0.034038	-0.915122	0.447984	15.68	29.05	-10.99	0.1388	0.2943	-0.2612	
-0.0122	-0.849486	0.41907	14.77	28.28	-6.51	0.1386	0.2814	-0.2729	
-0.02257	-0.864858	0.422486	11.48	21.7	-3.5	0.136	0.2911	-0.263	
-0.036844	-0.844606	0.399672	8.05	13.86	-0.7	0.1483	0.2798	-0.2712	
-0.018666	-0.822036	0.40199	4.13	8.54	5.67	0.1456	0.2816	-0.268	
0.004758	-0.813374	0.426756	-4.48	2.73	10.78	0.1454	0.2842	-0.2775	
0.010858	-0.834358	0.448716	-19.39	-8.54	17.5	0.1522	0.2905	-0.2754	
0.003904	-0.835578	0.42517	-26.18	-16.24	21.56	0.1442	0.2799	-0.2697	
-0.050142	-0.85827	0.425414	-34.51	-25.55	21.14	0.147	0.277	-0.265	
0.01464	-0.844362	0.407846	-37.66	-37.17	20.23	0.1457	0.2849	-0.2614	
0.020008	-0.852414	0.42761	-49.77	-47.11	24.22	0.1539	0.2942	-0.2608	
0.000122	-0.862784	0.392352	-45.29	-53.76	22.33	0.1401	0.2848	-0.2648	
0.000732	-0.914756	0.406626	-39.9	-56.84	22.61	0.1486	0.2932	-0.2498	
0.023302	-0.88633	0.332328	-17.29	-47.04	20.79	0.1458	0.2977	-0.2529	
0.019764	-0.902434	0.330132	-8.96	-45.99	16.45	0.1499	0.3009	-0.2494	
-0.040626	-0.919026	0.251686	-2.73	-45.43	15.12	0.1485	0.3024	-0.2526	
-0.056364	-0.928664	0.34526	0.14	-55.65	14.7	0.1347	0.3008	-0.2546	
-0.098088	-0.877302	0.276574	-3.71	-57.4	18.9	0.1277	0.2911	-0.2648	
-0.06527	-0.862784	0.288652	-16.59	-73.78	25.97	0.125	0.2958	-0.263	
-0.030378	-0.909876	0.306708	-25.62	-83.23	28.56	0.1181	0.3036	-0.2644	
0.00915	-0.941474	0.27816	-25.9	-81.76	27.3	0.1194	0.3052	-0.2627	
-0.021472	-0.93025	0.194346	-18.76	-75.6	25.83	0.1165	0.3095	-0.2706	
-0.052094	-1.038342	0.148596	-16.03	-84.63	23.52	0.103	0.3037	-0.2631	
0.021472	-1.05164	0.166774	-11.06	-100.38	24.57	0.1071	0.3052	-0.2646	
0.104798	-1.032852	0.187758	-2.17	-102.2	28.07	0.1004	0.2947	-0.2572	
0.081496	-0.90585	0.171654	3.08	-97.44	30.52	0.0891	0.3019	-0.2715	
-0.025986	-0.921954	0.094184	2.87	-94.5	30.87	0.0821	0.3	-0.2797	
-0.014518	-1.113738	0.059048	2.1	-108.08	28.35	0.078	0.3017	-0.2765	
0.08845	-1.223904	0.10431	5.95	-122.22	26.67	0.0685	0.2925	-0.2772	
0.113582	-1.02236	0.148962	17.5	-127.05	29.89	0.0532	0.2938	-0.2854	
0.04209	-0.894138	0.050264	22.47	-115.78	34.86	0.0463	0.2921	-0.2888	
0.005856	-1.051274	0.056486	11.69	-130.76	40.18	0.0423	0.2846	-0.2845	
0.109556	-1.128378	0.073566	10.99	-153.72	43.19	0.023	0.2907	-0.2878	
0.2013	-1.07116	0.185562	11.76	-164.64	54.67	0.0201	0.2874	-0.2944	
0.191052	-0.920124	0.100162	18.9	-154.42	64.75	-0.0018	0.2919	-0.2995	
0.208254	-1.041514	0.184098	5.88	-158.34	72.45	0.0022	0.2905	-0.2963	
0.19886	-1.056642	0.177632	6.3	-155.19	77.49	-0.0087	0.2779	-0.3019	
0.208498	-1.043466	0.130906	7.49	-159.39	77.49	-0.0197	0.2874	-0.3001	
0.23607	-1.039928	0.152744	12.95	-164.43	86.24	-0.0361	0.2813	-0.2991	
0.214354	-0.999912	0.151646	20.58	-157.92	89.88	-0.0429	0.2861	-0.2958	
0.181048	-1.004914	0.161406	23.38	-151.41	93.17	-0.0499	0.2748	-0.3077	
0.191418	-1.003572	0.179218	18.76	-165.34	90.93	-0.0553	0.2752	-0.2998	
0.174948	-1.016016	0.220698	13.51	-172.41	92.47	-0.0633	0.2773	-0.2887	
0.138714	-0.921954	0.166774	11.34	-166.25	98.14	-0.0689	0.2787	-0.292	
0.164944	-0.950502	0.207156	0.49	-179.69	92.33	-0.0744	0.2757	-0.2922	
0.156282	-0.975512	0.237412	-3.78	-178.71	91.91	-0.0867	0.2743	-0.2893	
0.197518	-1.0309	0.269986	-3.78	-171.57	93.87	-0.0894	0.2837	-0.2874	
0.19276	-0.948672	0.261446	1.68	-172.9	91.07	-0.0945	0.2753	-0.2687	
0.203618	-0.946964	0.310734	4.62	-153.3	90.02	-0.0986	0.2926	-0.2632	
0.156526	-0.96502	0.259616	7.07	-152.74	85.61	-0.1082	0.2958	-0.2617	
0.118706	-0.983442	0.299388	2.24	-154	86.66	-0.1014	0.2926	-0.2633	
0.125904	-0.965752	0.306586	1.12	-147.35	90.65	-0.1178	0.296	-0.2587	
0.15006	-0.963678	0.32086	0.63	-140.35	91.63	-0.1177	0.3102	-0.2516	
0.096136	-0.986614	0.311954	5.18	-123.34	88.62	-0.1133	0.3203	-0.2335	
0.037698	-0.926712	0.336598	6.86	-122.08	83.51	-0.1228	0.3143	-0.2292	
-0.01098	-0.960018	0.353434	9.03	-119.35	80.92	-0.1199	0.31	-0.2229	
-0.03599	-0.958554	0.340624	14.21	-117.25	80.08	-0.1225	0.3182	-0.2114	
0.006222	-0.88389	0.313418	17.71	-118.23	75.46	-0.1253	0.3212	-0.2146	
0.053436	-0.854	0.390644	14.77	-117.95	68.11	-0.1172	0.3272	-0.2173	
0.098698	-0.825696	0.44286	15.4	-111.44	59.64	-0.1279	0.3325	-0.2045	
0.12993	-0.840092	0.486414	12.81	-102.27	56.14	-0.1223	0.3312	-0.1981	
0.105408	-0.823378	0.4941	16.52	-86.17	51.52	-0.1222	0.3267	-0.1951	
0.06771	-0.75762	0.468114	16.24	-63.63	45.85	-0.1238	0.3325	-0.2044	
-0.057096	-0.772748	0.4636	16.8	-46.06	42.56	-0.1196	0.3265	-0.1982	
-0.058682	-0.768966	0.536556	7.56	-47.11	41.44	-0.1237	0.3312	-0.1981	
-0.046238	-0.78812	0.566934	-0.21	-41.93	38.78	-0.1142	0.3371	-0.204	
-0.112606	-0.792146	0.530822	-5.39	-34.23	33.04	-0.1128	0.3403	-0.2022	
-0.14823	-0.786534	0.48556	-3.01	-29.54	27.23	-0.1198	0.3401	-0.2056	
-0.148718	-0.790438	0.51545	-3.36	-26.67	25.34	-0.1307	0.3279	-0.2048	
-0.192516	-0.802272	0.492026	-4.06	-11.55	24.01	-0.1058	0.3391	-0.1926	
-0.220454	-0.806786	0.483852	-2.94	-11.48	21.56	-0.1114	0.3452	-0.1956	
-0.241682	-0.818254	0.502274	-0.07	-9.94	20.86	-0.11	0.3421	-0.1957	
-0.20557	-0.812154	0.49654	3.92	-4.97	19.32	-0.1072	0.3422	-0.1924	
-0.24583	-0.82167	0.508984	5.46	5.18	17.85	-0.0989	0.3359	-0.1926	
-0.281332	-0.812032	0.468236	5.46	1.75	13.58	-0.099	0.3451	-0.1953	
-0.286334	-0.780434	0.433466	3.29	-7	11.41	-0.1044	0.3407	-0.1909	
-0.270596	-0.807884	0.45506	1.05	2.94	13.93	-0.0923	0.3433	-0.2017	
-0.250344	-0.812032	0.487878	0.77	-2.94	12.32	-0.1044	0.336	-0.1911	
-0.255224	-0.80886	0.502518	2.1	1.82	10.43	-0.0988	0.3441	-0.1842	
-0.257054	-0.806176	0.478362	4.13	6.51	7.49	-0.0963	0.3467	-0.1952	
-0.2684	-0.792146	0.469212	6.3	8.68	6.3	-0.09209999	0.3373	-0.1955	
-0.29524	-0.79971	0.488976	3.99	10.78	4.97	-0.0854	0.3323	-0.202	
-0.284992	-0.80947	0.4758	3.57	11.27	2.31	-0.0906	0.3407	-0.189	
-0.27938	-0.801418	0.484218	3.36	13.37	0.63	-0.09209999	0.3437	-0.1905	
-0.327204	-0.793244	0.426634	5.11	14.91	-0.7	-0.0935	0.3373	-0.1972	
-0.294508	-0.803004	0.46177	3.22	10.85	-0.98	-0.084	0.3448	-0.2014	
-0.3111	-0.815326	0.450058	4.48	12.18	-1.96	-0.0813	0.3463	-0.2013	
-0.34038	-0.810812	0.436516	5.81	12.39	-2.8	-0.0869	0.343	-0.2063	
-0.341112	-0.822158	0.450302	4.62	7.63	-2.59	-0.0854	0.34	-0.2049	
-0.333304	-0.826184	0.442006	3.36	4.9	-2.31	-0.088	0.3403	-0.1969	
-0.304146	-0.834236	0.441762	3.64	2.03	-2.17	-0.0896	0.3415	-0.2065	
-0.2806	-0.825696	0.445178	4.55	0.91	-3.08	-0.0923	0.3385	-0.2051	
-0.263764	-0.82228	0.45384	3.64	1.19	-3.78	-0.08549999	0.3415	-0.2064	
-0.259128	-0.81557	0.45201	3.57	3.08	-4.97	-0.0951	0.3383	-0.2083	
-0.263764	-0.827404	0.453718	2.87	4.41	-6.44	-0.0951	0.3352	-0.2101	
-0.22448	-0.819352	0.46055	0.91	4.83	-7.49	-0.0718	0.3333	-0.2129	
-0.214354	-0.807762	0.455426	-1.4	9.59	-8.96	-0.09079999	0.3325	-0.1989	
-0.196786	-0.79056	0.44713	-3.5	13.79	-10.99	-0.0911	0.3428	-0.2112	
-0.164212	-0.789462	0.454938	-3.92	16.45	-13.86	-0.091	0.3305	-0.2102	
-0.194102	-0.796294	0.44164	-1.75	22.26	-17.71	-0.0939	0.3349	-0.2165	
-0.110288	-0.785314	0.454084	-3.71	29.82	-23.45	-0.0827	0.3416	-0.2031	
-0.112972	-0.826672	0.511424	-7.14	52.08	-27.72	-0.0884	0.341	-0.2161	
-0.045384	-0.84241	0.495198	-6.44	58.38	-33.67	-0.0856	0.3412	-0.2128	
-0.04148	-0.867786	0.478972	0.35	80.57	-37.66	-0.0896	0.3322	-0.2069	
-0.095892	-0.863638	0.407968	9.73	106.4	-43.68	-0.0926	0.3346	-0.2212	
-0.167872	-0.867908	0.386862	14.77	122.36	-49.28	-0.0816	0.3361	-0.2209	
-0.180682	-0.904874	0.386618	14.21	119.28	-60.55	-0.0761	0.3315	-0.221	
-0.183366	-0.96685	0.393694	21.91	137.55	-59.5	-0.0763	0.3263	-0.2324	
-0.192272	-0.938912	0.325008	32.69	140.91	-61.53	-0.0751	0.3196	-0.2439	
-0.210206	-0.896456	0.313174	37.1	129.71	-64.05	-0.0737	0.3195	-0.2455	
-0.194346	-0.901946	0.33001	36.26	124.25	-68.53	-0.0656	0.3193	-0.2501	
-0.168726	-0.881572	0.369172	29.68	130.27	-71.4	-0.0603	0.3203	-0.2611	
-0.142862	-0.879132	0.31659	24.5	140	-73.57	-0.0536	0.298	-0.2748	
-0.146888	-0.879376	0.276452	21.07	135.38	-77	-0.055	0.2995	-0.2747	
-0.139202	-0.892674	0.290238	24.08	138.88	-78.89	-0.0497	0.2989	-0.2874	
-0.119804	-0.86681	0.322934	22.19	143.64	-82.74	-0.0346	0.2894	-0.2907	
-0.116266	-0.915976	0.347212	14.14	148.75	-91.07	-0.0346	0.2832	-0.291	
-0.130662	-0.92781	0.273158	24.57	166.25	-94.5	-0.0198	0.2839	-0.3082	
-0.151036	-1.004914	0.28182	23.87	170.03	-95.69	-0.021	0.2702	-0.3025	
-0.178974	-0.98698	0.270962	22.75	177.66	-90.93	-0.0156	0.2715	-0.3071	
-0.182756	-0.969412	0.291946	11.41	175.77	-90.37	-0.0047	0.2759	-0.3115	
-0.171288	-1.003816	0.226066	7.7	176.54	-87.5	0.0036	0.27	-0.3052	
-0.144936	-1.028582	0.200324	12.6	176.19	-82.46	0.0213	0.2664	-0.3129	
-0.166774	-1.01077	0.173972	18.55	174.72	-79.73	0.0226	0.2727	-0.311	
-0.214476	-0.988566	0.186416	17.71	168.28	-77.84	0.0404	0.2692	-0.3172	
-0.181048	-1.000156	0.2013	11.34	160.79	-76.51	0.0489	0.2635	-0.3045	
-0.162382	-0.976732	0.198128	10.43	158.06	-71.82	0.0611	0.2725	-0.2846	
-0.159942	-0.99918	0.219478	11.83	161.63	-64.05	0.0695	0.2635	-0.3024	
-0.221918	-0.978928	0.191052	15.89	161.77	-55.93	0.0778	0.2697	-0.3004	
-0.288164	-0.976	0.144204	13.02	148.54	-53.62	0.0887	0.2679	-0.305	
-0.291336	-0.979416	0.16104	15.33	144.9	-46.97	0.1054	0.2715	-0.2917	
-0.30378	-0.97539	0.148352	23.24	131.88	-44.59	0.1135	0.279	-0.296	
-0.264252	-1.002474	0.2074	25.69	108.57	-43.82	0.1135	0.2681	-0.2965	
-0.248392	-0.973804	0.19825	35.28	112.84	-43.96	0.1304	0.2814	-0.2731	
-0.249368	-0.942816	0.199592	35.56	105	-47.04	0.1398	0.2685	-0.2847	
-0.216184	-0.940864	0.230702	31.78	97.02	-47.25	0.1509	0.2702	-0.2796	
-0.172264	-0.93025	0.255834	23.38	86.38	-46.41	0.1509	0.2607	-0.2832	
-0.15128	-0.922808	0.279868	34.16	98.84	-45.36	0.1494	0.2652	-0.2862	
-0.184464	-0.903044	0.257542	42.07	100.66	-45.15	0.1536	0.2592	-0.2832	
-0.224846	-0.884134	0.247172	40.67	98.14	-45.92	0.1619	0.2717	-0.2777	
-0.203618	-0.883402	0.28548	37.94	91.77	-46.34	0.1677	0.2567	-0.2654	
-0.236192	-0.89426	0.293532	39.62	92.82	-44.17	0.1757	0.2688	-0.2727	
-0.23851	-0.903776	0.327082	42.7	91.77	-41.44	0.173	0.2564	-0.2733	
-0.245708	-0.936716	0.315004	41.02	83.79	-39.9	0.1895	0.2561	-0.2762	
-0.290848	-0.916342	0.332572	44.8	84.56	-37.66	0.1898	0.2569	-0.2586	
-0.260226	-0.92781	0.344162	45.43	75.74	-33.32	0.195	0.2546	-0.2761	
-0.271694	-0.903532	0.332816	48.79	74.27	-28.49	0.1924	0.2582	-0.2648	
-0.301462	-0.871568	0.308416	36.96	60.41	-27.02	0.1992	0.2408	-0.2719	
-0.275598	-0.888526	0.350262	31.08	51.1	-25.83	0.2048	0.2503	-0.2649	
-0.276696	-0.870104	0.330986	32.2	46.62	-22.26	0.2117	0.252	-0.2615	
-0.266448	-0.861686	0.345382	29.82	37.59	-20.16	0.2173	0.2429	-0.257	
-0.286456	-0.834358	0.366366	26.67	30.1	-17.92	0.206	0.2421	-0.2765	
-0.236314	-0.846192	0.395158	25.48	22.89	-19.11	0.2145	0.2331	-0.2671	
-0.249856	-0.831552	0.37576	26.74	18.9	-20.3	0.2145	0.2379	-0.2653	
-0.22692	-0.863028	0.42761	25.55	12.81	-20.23	0.2143	0.2358	-0.2766	
-0.2196	-0.835212	0.439078	19.88	9.1	-18.48	0.2184	0.2328	-0.275	
-0.194956	-0.824232	0.449692	21.7	4.76	-21.21	0.2102	0.2344	-0.2751	
-0.13603	-0.818864	0.444324	27.58	5.11	-26.11	0.2047	0.2392	-0.2718	
-0.142984	-0.78812	0.479948	24.64	-1.12	-28.42	0.2032	0.2325	-0.2833	
-0.094428	-0.841068	0.524478	25.27	-1.68	-29.19	0.1992	0.2328	-0.3026	
-0.105896	-0.81435	0.492148	28.91	0.49	-30.73	0.2059	0.2356	-0.2831	
-0.093208	-0.808616	0.523014	23.03	-2.45	-31.71	0.192	0.2353	-0.2914	
-0.101626	-0.784704	0.49105	21.77	-3.43	-32.9	0.1963	0.2357	-0.2817	
-0.043066	-0.81374	0.542046	18.06	-8.19	-30.17	0.181	0.2306	-0.2951	
-0.055144	-0.784094	0.524234	15.26	-7.42	-29.12	0.196	0.238	-0.2992	
-0.072712	-0.807884	0.53802	11.97	-9.87	-31.22	0.1852	0.226	-0.292	
-0.057096	-0.814228	0.54595	9.8	-11.2	-27.3	0.1837	0.2272	-0.3016	
-0.038918	-0.797514	0.561566	7.77	-12.88	-22.75	0.1824	0.2291	-0.2935	
0.009272	-0.820084	0.560346	6.51	-14.7	-19.88	0.1727	0.2335	-0.2999	
0.01342	-0.817156	0.554734	3.22	-15.26	-15.96	0.1725	0.2347	-0.3079	
0.0122	-0.783972	0.549854	0.35	-16.45	-13.37	0.1711	0.2298	-0.3145	
0.036722	-0.783972	0.558394	-1.96	-17.5	-10.15	0.1644	0.2287	-0.3051	
0.052704	-0.810812	0.557052	-5.6	-19.25	-5.04	0.163	0.2304	-0.3019	
0.059414	-0.836432	0.541924	-7	-21	-3.64	0.152	0.2414	-0.3	
0.086376	-0.843386	0.56425	-11.9	-21.63	-1.26	0.1492	0.2317	-0.3085	
0.044896	-0.78995	0.558638	-15.61	-21.91	2.1	0.1518	0.244	-0.3111	
0.073322	-0.792756	0.553148	-17.36	-21.07	4.34	0.1396	0.2381	-0.3052	
0.103944	-0.829356	0.525698	-21.42	-21.28	6.16	0.1493	0.2414	-0.3001	
0.11224	-0.85888	0.535336	-27.16	-22.89	6.02	0.152	0.2429	-0.3016	
0.085766	-0.805932	0.52521	-28.98	-20.79	7.91	0.1422	0.2441	-0.3097	
0.032574	-0.792024	0.512522	-37.52	-21.63	8.26	0.1384	0.2448	-0.2954	
0.061976	-0.826794	0.5429	-43.47	-20.93	3.71	0.1468	0.2497	-0.287	
0.07808	-0.859002	0.501908	-39.62	-13.86	0.77	0.1357	0.2669	-0.2864	
0.037942	-0.866078	0.508618	-27.37	-6.72	1.47	0.1382	0.2647	-0.2993	
0.048556	-0.839604	0.46909	-18.83	0.07	2.45	0.1345	0.2642	-0.277	
0.05307	-0.866932	0.453962	-18.76	6.09	0.14	0.1386	0.2703	-0.2782	
0.024522	-0.873276	0.419436	-13.16	8.54	-3.08	0.1357	0.2825	-0.2825	
-0.02562	-0.881206	0.39955	-10.99	6.51	-3.08	0.147	0.2706	-0.2701	
-0.088328	-0.818498	0.384178	-7.98	-1.19	5.6	0.1359	0.2659	-0.2737	
-0.058194	-0.86986	0.348432	-16.38	-10.43	9.31	0.1414	0.2705	-0.2734	
-0.052216	-0.926102	0.359534	-26.11	-18.34	8.68	0.1342	0.2808	-0.2858	
-0.061976	-0.954406	0.311344	-22.54	-21.21	12.39	0.1385	0.2748	-0.2812	
-0.09455	-0.962946	0.295118	-18.48	-31.01	16.59	0.1429	0.2912	-0.2612	
-0.10675	-0.918904	0.281088	-15.75	-42.49	17.71	0.1304	0.2783	-0.2733	
-0.06222	-0.923174	0.291824	-25.2	-66.71	24.64	0.1304	0.2893	-0.2712	
0.001708	-0.958432	0.299022	-30.52	-74.06	25.55	0.1277	0.2879	-0.2665	
-0.011834	-0.969046	0.269742	-25.27	-77.21	24.36	0.1262	0.2938	-0.2743	
0.029036	-1.006866	0.261934	-19.39	-86.73	24.29	0.1153	0.2785	-0.272	
0.117852	-1.159366	0.441152	-7.63	-82.25	37.1	0.118	0.2878	-0.2715	
-0.024278	-0.959652	0.194224	-1.05	-60.9	42.84	0.1151	0.2843	-0.2797	
0.02379	-0.930128	0.305366	4.06	-84.77	38.43	0.1193	0.2812	-0.2798	
-0.023668	-0.858514	0.267912	5.81	-75.88	37.17	0.1041	0.2811	-0.2833	
0.013542	-0.960018	0.247538	1.12	-86.52	30.1	0.1097	0.2797	-0.28	
0.038064	-1.02663	0.241926	6.23	-90.86	28.07	0.1025	0.2776	-0.2947	
0.05246	-1.004792	0.310368	15.4	-98.84	30.94	0.0834	0.2731	-0.2921	
0.087352	-0.937326	0.329278	15.61	-105.07	36.47	0.0914	0.2741	-0.3047	
0.033794	-0.851926	0.319518	18.27	-92.89	44.03	0.0736	0.2713	-0.3004	
-0.007442	-0.875716	0.26535	10.57	-86.94	48.51	0.0665	0.2629	-0.3169	
-0.00061	-0.983564	0.260592	0.21	-98.84	45.78	0.0595	0.2704	-0.3215	
0.050874	-0.982832	0.296338	-6.93	-113.68	48.72	0.0488	0.2634	-0.3077	
0.066978	-0.95587	0.28243	-3.85	-110.81	57.19	0.0417	0.2691	-0.3187	
0.010492	-0.964044	0.238266	0.77	-109.06	62.02	0.0362	0.2706	-0.322	
-0.060512	-0.975512	0.207522	1.96	-115.43	61.95	0.0307	0.2612	-0.3241	
-0.05307	-1.015162	0.184098	0.49	-124.46	60.34	0.0171	0.2537	-0.3216	
0.022326	-1.063718	0.195566	-2.38	-137.13	62.72	0.0144	0.2632	-0.3164	
0.087962	-1.040538	0.229238	-0.49	-149.52	71.47	0.0035	0.2464	-0.3126	
0.04575	-1.023458	0.189222	8.89	-145.95	74.06	-0.0048	0.2663	-0.3199	
0.01037	-1.025532	0.16409	13.37	-137.97	82.88	-0.013	0.2538	-0.3222	
0.005124	-1.011746	0.14945	15.26	-139.51	85.68	-0.0158	0.2632	-0.3203	
0.042212	-0.967948	0.189466	9.24	-147.98	87.92	-0.0392	0.2616	-0.324	
0.084424	-1.002108	0.174948	6.37	-152.88	87.57	-0.0351	0.2505	-0.3292	
0.100162	-1.018456	0.22875	-3.99	-169.89	87.36	-0.0487	0.2541	-0.3214	
0.113704	-1.028948	0.247904	-3.5	-173.95	87.85	-0.0598	0.2539	-0.3264	
0.107726	-1.019066	0.30073	-3.99	-175.77	88.76	-0.0719	0.2687	-0.3085	
0.098454	-0.927444	0.29402	0.14	-163.03	89.39	-0.0746	0.2595	-0.3073	
0.069296	-0.903654	0.2928	-11.62	-166.46	86.66	-0.0882	0.2707	-0.3007	
0.108092	-0.944646	0.306464	-11.69	-162.47	83.16	-0.0951	0.2754	-0.3007	
0.112728	-0.954162	0.314638	-9.59	-161.42	78.47	-0.0964	0.2661	-0.3011	
0.116754	-0.915976	0.322202	-5.46	-153.44	75.6	-0.1002	0.2858	-0.2763	
0.131394	-0.905606	0.294996	-4.69	-148.96	72.59	-0.1178	0.2865	-0.2639	
0.132492	-0.937082	0.347578	-4.55	-136.08	75.74	-0.1136	0.279	-0.2578	
0.112606	-0.939278	0.371124	-4.13	-129.15	73.99	-0.1286	0.2839	-0.2531	
0.103456	-0.915	0.327448	-5.04	-127.47	69.16	-0.13	0.2933	-0.2511	
0.09211	-0.882914	0.371734	-6.58	-121.8	67.55	-0.1353	0.2922	-0.2417	
0.092842	-0.90219	0.435296	-15.12	-117.74	62.51	-0.1406	0.3067	-0.2299	
0.062098	-0.905606	0.35075	-14.07	-107.31	59.71	-0.1366	0.2954	-0.2383	
0.036234	-0.911584	0.344284	-14.56	-103.32	58.52	-0.1324	0.3128	-0.2295	
0.009881999	-0.90646	0.31903	-11.83	-97.02	56	-0.1391	0.3149	-0.2183	
-0.015006	-0.929274	0.371368	-14.7	-96.6	52.99	-0.1404	0.3245	-0.2115	
-0.013664	-0.912804	0.374296	-17.5	-93.24	50.05	-0.1429	0.3188	-0.2023	
0.032696	-0.923174	0.379054	-19.74	-92.82	47.11	-0.143	0.3281	-0.2019	
0.026596	-0.915366	0.389668	-8.68	-74.34	43.19	-0.1359	0.3333	-0.1871	
-0.006832	-0.886818	0.398086	-8.19	-68.11	39.34	-0.1439	0.3385	-0.1758	
-0.029402	-0.90585	0.409066	-6.3	-58.45	37.1	-0.1398	0.3417	-0.174	
-0.036356	-0.903776	0.40748	-9.66	-52.43	37.31	-0.1384	0.3448	-0.1722	
-0.006588	-0.90341	0.384788	-7.14	-48.16	35.42	-0.1342	0.3418	-0.1707	
-0.0244	-0.888648	0.420412	-3.22	-36.33	34.37	-0.1382	0.3452	-0.1642	
-0.050996	-0.84485	0.41663	2.24	-25.55	32.34	-0.1315	0.3559	-0.1652	
-0.057706	-0.839726	0.401624	3.29	-28	27.44	-0.1383	0.3482	-0.1657	
-0.056242	-0.8845	0.440908	0.42	-14.7	26.95	-0.1312	0.3566	-0.1508	
-0.082838	-0.860588	0.407114	4.48	-6.72	25.48	-0.1273	0.3497	-0.1654	
-0.105652	-0.849364	0.407602	4.34	-1.54	24.5	-0.1217	0.3484	-0.1589	
-0.130296	-0.871202	0.402356	5.32	1.19	22.4	-0.1232	0.3575	-0.1633	
-0.147498	-0.869128	0.405406	7.35	6.65	20.72	-0.1244	0.3563	-0.1554	
-0.164822	-0.85583	0.400526	8.4	11.2	18.13	-0.1137	0.3634	-0.1693	
-0.186294	-0.84241	0.37393	7.63	11.62	16.24	-0.115	0.362	-0.1662	
-0.222772	-0.84973	0.388326	6.37	13.02	13.79	-0.1096	0.357	-0.1727	
-0.228262	-0.83875	0.370392	4.83	11.9	11.97	-0.1097	0.357	-0.1743	
-0.22936	-0.85949	0.400038	1.19	11.48	10.5	-0.1069	0.3602	-0.1709	
-0.233508	-0.871202	0.389058	3.78	12.25	9.73	-0.09739999	0.3615	-0.1754	
-0.26657	-0.846192	0.398696	5.53	14.42	9.03	-0.0917	0.3478	-0.1679	
-0.269254	-0.859246	0.395036	3.5	12.95	9.03	-0.0931	0.3618	-0.1673	
-0.2867	-0.856074	0.377346	2.73	13.16	9.24	-0.0961	0.3643	-0.1816	
-0.30439	-0.84485	0.382836	2.24	11.76	8.82	-0.0973	0.3631	-0.1737	
-0.307318	-0.842532	0.391986	1.12	11.48	7.07	-0.0959	0.3586	-0.1691	
-0.29829	-0.834236	0.393572	0.91	9.8	5.88	-0.0835	0.3617	-0.1687	
-0.29585	-0.850462	0.38918	2.31	9.73	5.53	-0.0973	0.3617	-0.1706	
-0.312686	-0.851194	0.369416	4.13	9.73	3.85	-0.0839	0.3656	-0.1861	
-0.33306	-0.842044	0.372954	4.13	8.05	2.45	-0.0905	0.3615	-0.1736	
-0.333426	-0.838628	0.378322	3.29	4.34	1.47	-0.0876	0.3554	-0.1707	
-0.292556	-0.837774	0.385398	2.03	0.91	0.98	-0.07669999	0.3442	-0.1773	
-0.268156	-0.853268	0.379664	1.89	1.96	0.07	-0.085	0.3552	-0.1754	
-0.266326	-0.863882	0.368318	2.24	4.69	-2.31	-0.08109999	0.3594	-0.1847	
-0.247782	-0.85095	0.382104	1.54	5.18	-3.78	-0.0808	0.3631	-0.1718	
-0.227652	-0.85461	0.390644	1.19	7.7	-5.95	-0.08769999	0.3553	-0.1739	
-0.208986	-0.84241	0.394304	0.63	10.78	-8.05	-0.0823	0.3567	-0.1769	
-0.21045	-0.853878	0.397964	-0.84	15.96	-10.57	-0.0878	0.3614	-0.1752	
-0.220088	-0.85705	0.37332	0.49	21.63	-13.09	-0.081	0.3548	-0.1849	
-0.216062	-0.86193	0.358802	2.1	25.48	-15.12	-0.0852	0.3531	-0.1883	
-0.22082	-0.861442	0.357704	0.49	24.71	-17.08	-0.0863	0.3616	-0.1719	
-0.17019	-0.873032	0.36539	-1.12	25.41	-19.18	-0.0905	0.3521	-0.1773	
-0.153842	-0.883036	0.393084	1.19	29.05	-21.91	-0.0933	0.3597	-0.1802	
-0.141398	-0.854244	0.395768	6.16	38.99	-25.69	-0.0879	0.3564	-0.1834	
-0.165066	-0.833748	0.287798	13.23	51.94	-31.57	-0.088	0.353	-0.1915	
-0.229848	-0.94428	0.409554	5.39	73.57	-29.89	-0.0825	0.356	-0.1913	
-0.237412	-0.915732	0.35136	14.91	65.17	-37.45	-0.0895	0.3511	-0.198	
-0.17568	-0.869372	0.361242	16.59	62.09	-37.52	-0.0923	0.34	-0.205	
-0.176656	-0.918294	0.331718	18.13	63.07	-43.89	-0.0938	0.3349	-0.2149	
-0.171654	-0.923418	0.33916	21.35	71.12	-45.29	-0.09119999	0.355	-0.2171	
-0.19093	-0.874252	0.36051	23.73	73.64	-44.66	-0.08	0.3335	-0.2098	
-0.189466	-0.862662	0.3782	23.45	77.98	-44.87	-0.0858	0.3391	-0.2241	
-0.196542	-0.911706	0.327448	28.77	87.15	-46.76	-0.0831	0.3342	-0.2306	
-0.20679	-0.96624	0.376736	28.21	87.08	-49.14	-0.08989999	0.3204	-0.2282	
-0.196786	-0.902678	0.360022	31.5	89.67	-49.35	-0.0818	0.3201	-0.2344	
-0.167628	-0.869372	0.372954	27.65	93.38	-49.91	-0.0818	0.309	-0.2397	
-0.178486	-0.89121	0.347822	27.51	104.02	-51.1	-0.0766	0.3129	-0.2554	
-0.160796	-0.915244	0.354044	28.84	109.69	-52.92	-0.0739	0.3065	-0.2604	
-0.148596	-0.899384	0.38125	27.86	110.04	-55.02	-0.0728	0.2886	-0.2804	
-0.132004	-0.909998	0.38003	27.3	112.84	-56.77	-0.0647	0.2931	-0.2816	
-0.15006	-0.947574	0.339892	32.48	129.64	-60.97	-0.0649	0.2926	-0.2928	
-0.134932	-0.911096	0.318176	31.57	118.86	-68.95	-0.0512	0.2782	-0.3012	
-0.098332	-0.899872	0.366366	23.1	114.73	-72.73	-0.0568	0.2797	-0.3044	
-0.08662	-0.888282	0.366	25.27	128.1	-73.29	-0.0567	0.2784	-0.2981	
-0.100528	-0.910242	0.32391	26.95	144.34	-69.79	-0.0432	0.2682	-0.3174	
-0.113704	-0.890478	0.33428	19.04	136.71	-81.2	-0.035	0.2572	-0.3194	
-0.014396	-0.884134	0.432124	2.03	138.81	-80.29	-0.0144	0.2648	-0.3202	
0.022082	-0.926102	0.426146	3.57	152.95	-80.22	-0.0158	0.2569	-0.3221	
-0.021472	-0.96258	0.37027	13.58	170.24	-79.17	-0.0036	0.2549	-0.3316	
-0.111996	-0.988078	0.29219	26.04	183.96	-82.04	0.0003	0.25	-0.3365	
-0.13176	-0.986248	0.204472	32.97	186.41	-86.87	0.0142	0.2597	-0.3246	
-0.168482	-0.963312	0.190808	28.91	176.68	-91.49	0.0403	0.2548	-0.3274	
-0.191662	-0.986126	0.20252	24.78	166.32	-93.59	0.0472	0.2533	-0.3257	
-0.246196	-1.069574	0.239608	20.72	154.7	-94.15	0.0456	0.2513	-0.337	
-0.235704	-1.005036	0.261202	22.61	146.3	-90.72	0.0581	0.2498	-0.332	
-0.166774	-0.876936	0.25071	18.06	140.28	-87.43	0.0774	0.2437	-0.3287	
-0.120658	-0.889746	0.253516	11.69	134.82	-87.57	0.0692	0.2392	-0.3259	
-0.149206	-0.920978	0.2318	13.51	132.02	-83.16	0.0827	0.259	-0.3311	
-0.16714	-0.93635	0.234484	8.61	125.93	-76.37	0.08989999	0.2533	-0.3184	
-0.200324	-0.93086	0.259738	3.57	114.59	-70.21	0.094	0.258	-0.3181	
-0.120414	-0.920734	0.354776	-3.64	106.33	-67.13	0.101	0.2506	-0.3087	
-0.070638	-0.909632	0.34831	-1.68	109.41	-66.43	0.1008	0.2673	-0.3159	
-0.028792	-0.926224	0.367098	-3.71	113.4	-64.12	0.1121	0.2664	-0.2998	
-0.051728	-0.933422	0.3172	3.64	125.44	-64.19	0.1149	0.2666	-0.2949	
-0.06039	-0.94428	0.320616	-1.19	129.78	-63.14	0.1247	0.2669	-0.2867	
-0.098698	-0.959286	0.239852	9.17	132.65	-64.33	0.1288	0.2763	-0.2846	
-0.146766	-0.9699	0.284504	2.52	129.85	-61.53	0.1371	0.2732	-0.2829	
-0.149328	-0.915976	0.276574	1.12	126.42	-57.19	0.1415	0.2722	-0.2701	
-0.16104	-0.974414	0.27938	1.54	117.39	-57.61	0.1455	0.2768	-0.2714	
-0.194956	-0.939034	0.241072	5.46	112.14	-54.11	0.1526	0.2804	-0.2583	
-0.230824	-0.930738	0.251442	2.38	101.22	-52.92	0.1609	0.2945	-0.2527	
-0.196298	-0.91805	0.246562	3.08	91.42	-46.97	0.1722	0.2859	-0.2369	
