Sensor string: B
Serial number: 1970-01-0000
Firmware version: 2,015
Hardware version: 2,2
Calibration quality: 5
ax	ay	az	gx	gy	gz	mx	my	mz

0.37271	-0.90524	0.170678	-3.15	-1.33	1.05	-0.2275	0.3508	-0.3019	Reference
0.337452	-0.901946	0.167994	-3.85	-1.89	2.03	-0.2243	0.3584	-0.2991	
0.3477	-0.900116	0.171166	-3.29	-2.24	0.77	-0.2244	0.3556	-0.3079	
0.36051	-0.895846	0.176534	-2.59	-0.28	-1.05	-0.2274	0.3538	-0.3005	
0.353068	-0.891088	0.183244	-3.71	-0.91	0.07	-0.2213	0.3617	-0.3051	
0.350994	-0.893162	0.181902	-3.78	-0.14	-0.07	-0.22	0.3541	-0.3064	
0.35685	-0.90097	0.183366	-4.2	-0.42	0.35	-0.2154	0.3587	-0.302	
0.35319	-0.906948	0.177632	-3.64	-1.61	0.98	-0.2243	0.3569	-0.3006	
0.352458	-0.898042	0.168116	-2.59	-0.91	0.63	-0.2244	0.3539	-0.3034	
0.346602	-0.89304	0.16409	-2.52	-0.42	0.21	-0.2347	0.3614	-0.3067	
0.347944	-0.905484	0.16653	-3.01	-0.63	0.84	-0.2141	0.3495	-0.3017	
0.337208	-0.904508	0.167872	-1.89	-0.07	0.77	-0.2362	0.3628	-0.3038	
0.339282	-0.897554	0.159454	-1.4	0.28	0.21	-0.2332	0.3599	-0.3037	
0.354532	-0.903044	0.159088	-2.03	-1.26	0.42	-0.2231	0.3463	-0.3017	
0.355996	-0.90097	0.162626	-1.4	-0.84	0.49	-0.2287	0.3614	-0.3022	
0.349896	-0.90341	0.158112	-1.54	-0.42	0.35	-0.2214	0.3539	-0.299	
0.346236	-0.90646	0.158844	-1.4	-0.84	0.07	-0.2242	0.3648	-0.3097	
0.348066	-0.902434	0.158356	-1.47	-0.91	0.14	-0.2244	0.357	-0.305	
0.351482	-0.898896	0.16165	-2.1	-0.91	0.63	-0.2242	0.3614	-0.2992	
0.3538	-0.901214	0.156282	-2.17	-1.68	1.05	-0.2332	0.3595	-0.2918	
0.350262	-0.900482	0.157624	-2.03	-1.75	0.91	-0.2259	0.3554	-0.302	
0.34892	-0.90219	0.156526	-1.96	-1.61	0.77	-0.2287	0.3598	-0.2992	
0.348798	-0.90463	0.156404	-1.82	-1.4	0.7	-0.2331	0.3643	-0.2994	
0.347334	-0.904142	0.15555	-1.82	-1.26	0.7	-0.2199	0.3555	-0.302	
0.347944	-0.90585	0.154086	-1.89	-1.82	0.63	-0.2242	0.363	-0.3008	
0.347578	-0.907558	0.15128	-1.75	-1.82	0.42	-0.2226	0.3678	-0.3053	
0.348432	-0.908656	0.149206	-1.89	-1.54	0.07	-0.2212	0.363	-0.2978	
0.343064	-0.911096	0.153232	-1.33	-0.63	-0.56	-0.2257	0.3627	-0.2933	
0.340258	-0.906582	0.156038	-0.91	-0.07	-0.35	-0.2196	0.3695	-0.3084	
0.349774	-0.895968	0.151524	-0.98	0.98	-0.63	-0.2241	0.3674	-0.2935	
0.370392	-0.887672	0.13969	-2.31	-0.07	-0.07	-0.2227	0.3629	-0.2963	
0.337086	-0.92781	0.149694	-3.78	-0.35	-0.49	-0.2212	0.3645	-0.2963	
0.322934	-0.923296	0.140788	-0.35	1.12	-1.19	-0.2243	0.3535	-0.2901	
0.330986	-0.914634	0.143106	1.96	1.05	-1.89	-0.2227	0.3631	-0.3022	
0.3538	-0.90646	0.14579	1.05	1.33	-1.12	-0.2257	0.3595	-0.2873	
0.35319	-0.909632	0.147742	0	-1.12	0.7	-0.224	0.372	-0.2951	
0.342576	-0.909754	0.141032	0.42	-0.98	0.21	-0.2332	0.3582	-0.2992	
0.344528	-0.908778	0.139446	0.91	-0.77	-0.56	-0.2303	0.3535	-0.2931	
0.352092	-0.907314	0.144692	1.05	-0.91	-0.63	-0.2302	0.3628	-0.2978	
0.355996	-0.906582	0.14762	0.7	-0.91	0.07	-0.2229	0.357	-0.302	
0.357826	-0.902068	0.147132	0.56	-0.21	0.07	-0.2213	0.3599	-0.2962	
0.357582	-0.902922	0.147376	0.21	-0.84	-0.28	-0.2272	0.3628	-0.2978	
0.345626	-0.910852	0.144326	0.63	-0.7	-1.26	-0.2286	0.3659	-0.2994	
0.334402	-0.914634	0.139446	1.4	-0.49	-2.59	-0.2331	0.3659	-0.3024	
0.33489	-0.915244	0.136396	1.82	-0.28	-3.57	-0.2289	0.3505	-0.2959	
0.340014	-0.920368	0.135908	2.31	0.42	-4.13	-0.2212	0.3628	-0.2933	
0.342942	-0.917074	0.136518	2.94	0.77	-4.41	-0.2241	0.366	-0.2994	
0.34038	-0.916342	0.137372	3.29	0.35	-4.83	-0.2302	0.3596	-0.2933	
0.342088	-0.917318	0.14335	3.71	0.56	-5.39	-0.2306	0.3428	-0.2942	
0.346358	-0.916098	0.139812	4.48	0.98	-6.23	-0.2332	0.3598	-0.3022	
0.35319	-0.911218	0.14579	5.74	2.24	-6.58	-0.2333	0.3567	-0.3006	
0.3477	-0.902068	0.144448	5.88	1.75	-6.44	-0.2317	0.3615	-0.3052	
0.347578	-0.903898	0.144204	4.76	1.12	-6.58	-0.2331	0.3643	-0.3009	
0.35624	-0.90829	0.144692	5.25	1.19	-7.35	-0.2364	0.3537	-0.305	
0.363804	-0.909998	0.152866	5.95	1.12	-8.12	-0.2408	0.3567	-0.3066	
0.35868	-0.910242	0.154452	7.42	1.19	-8.68	-0.2378	0.3584	-0.3096	
0.355386	-0.91317	0.154696	8.54	1.47	-9.38	-0.2334	0.3538	-0.3065	
0.364048	-0.905118	0.156526	9.87	2.24	-10.15	-0.2394	0.3523	-0.3109	
0.372954	-0.898896	0.16104	9.52	3.01	-10.29	-0.2378	0.3519	-0.296	
0.37515	-0.896456	0.159454	10.15	3.36	-10.36	-0.2379	0.354	-0.3139	
0.373198	-0.899262	0.159698	10.57	3.5	-10.36	-0.2396	0.3448	-0.3151	
0.373198	-0.903776	0.160308	10.99	3.5	-10.29	-0.2427	0.3401	-0.312	
0.368684	-0.90158	0.16104	12.67	3.57	-11.2	-0.2413	0.3371	-0.3149	
0.374174	-0.902678	0.165188	13.86	3.15	-11.69	-0.2382	0.3418	-0.3135	
0.38186	-0.899872	0.17324	15.68	3.78	-11.9	-0.2368	0.3358	-0.3163	
0.381006	-0.893772	0.177266	16.66	3.99	-11.62	-0.2428	0.3358	-0.3208	
0.380884	-0.895846	0.181902	18.13	2.24	-11.48	-0.2415	0.3215	-0.3025	
0.389424	-0.89426	0.190686	20.3	2.52	-12.04	-0.2415	0.3314	-0.3266	
0.389546	-0.885964	0.188612	22.33	3.5	-12.95	-0.2505	0.3266	-0.325	
0.39223	-0.880352	0.195688	23.1	3.71	-13.65	-0.2447	0.3174	-0.3202	
0.395768	-0.877546	0.203862	25.13	3.85	-14.35	-0.2492	0.3207	-0.3292	
0.398696	-0.868884	0.204716	27.58	4.62	-15.82	-0.2523	0.3146	-0.3335	
0.40504	-0.86498	0.212646	28.84	4.55	-16.45	-0.2419	0.3165	-0.338	
0.417484	-0.859124	0.223382	30.24	4.48	-17.64	-0.257	0.307	-0.3363	
0.418948	-0.841556	0.224724	32.69	4.48	-20.37	-0.2452	0.3012	-0.339	
0.41968	-0.81252	0.229604	33.39	5.25	-24.15	-0.2557	0.3012	-0.3465	
0.433832	-0.827892	0.230946	31.43	3.71	-24.64	-0.259	0.2843	-0.343	
0.429196	-0.853024	0.241072	32.76	3.29	-24.85	-0.2532	0.2817	-0.3547	
0.40687	-0.845582	0.260348	38.15	6.72	-26.95	-0.2606	0.283	-0.3519	
0.41541	-0.81435	0.265106	40.18	8.75	-28.7	-0.2625	0.2696	-0.3633	
0.433588	-0.810324	0.28914	40.46	7.98	-27.93	-0.2581	0.2618	-0.3541	
0.461404	-0.806786	0.303658	42.42	9.1	-28.14	-0.273	0.2631	-0.3572	
0.424438	-0.798002	0.344162	45.85	11.34	-28.49	-0.2793	0.2511	-0.3688	
0.499346	-0.743468	0.310612	46.9	2.31	-24.85	-0.2688	0.2512	-0.3657	
0.481046	-0.74359	0.343674	42.21	1.12	-27.09	-0.2739	0.2237	-0.3679	
0.484462	-0.721752	0.355996	44.38	11.06	-32.62	-0.28	0.2189	-0.3648	
0.479826	-0.69845	0.3721	44.94	7.84	-32.97	-0.2725	0.2208	-0.3722	
0.493856	-0.684176	0.389058	46.06	6.16	-33.46	-0.279	0.2011	-0.379	
0.511546	-0.681004	0.411994	46.97	8.19	-34.93	-0.276	0.2012	-0.3805	
0.536922	-0.6771	0.44469	46.34	10.57	-35.21	-0.2836	0.1949	-0.3804	
0.563396	-0.657458	0.454572	48.09	10.57	-34.79	-0.2735	0.1799	-0.3828	
0.576572	-0.6283	0.464942	48.51	12.25	-34.79	-0.2796	0.1804	-0.4006	
0.567788	-0.598288	0.477386	49.56	17.85	-35.21	-0.2826	0.1738	-0.3871	
0.53802	-0.574986	0.493002	49.98	21	-35.42	-0.2741	0.1574	-0.3924	
0.53375	-0.537166	0.504714	50.4	19.88	-35.98	-0.2788	0.1452	-0.398	
0.528016	-0.511912	0.527406	48.09	16.8	-34.51	-0.2833	0.147	-0.41	
0.550464	-0.50386	0.54534	45.43	15.61	-33.25	-0.2687	0.1319	-0.4049	
0.579622	-0.503982	0.572302	43.19	15.61	-31.64	-0.284	0.1164	-0.4075	
0.56852	-0.495076	0.576328	43.54	14.77	-31.5	-0.2721	0.1184	-0.412	
0.55754	-0.470554	0.590724	44.73	14.42	-31.78	-0.2722	0.109	-0.4072	
0.556808	-0.44103	0.598654	45.22	14.91	-30.94	-0.2785	0.0985	-0.4143	
0.580476	-0.415532	0.610366	43.61	11.97	-29.47	-0.2786	0.0925	-0.4186	
0.58804	-0.407846	0.6222	41.3	9.59	-27.65	-0.2761	0.0743	-0.421	
0.602192	-0.393572	0.633546	40.53	9.38	-27.23	-0.2732	0.0681	-0.4148	
0.594872	-0.381616	0.638792	39.41	11.13	-26.74	-0.2704	0.0622	-0.4205	
0.589382	-0.365512	0.638548	39.62	10.36	-26.39	-0.2688	0.062	-0.4131	
0.590968	-0.35441	0.645502	39.13	9.1	-25.55	-0.2617	0.045	-0.4021	
0.58255	-0.343308	0.649284	39.69	10.85	-26.25	-0.2649	0.0377	-0.4153	
0.588528	-0.332694	0.658678	39.97	10.78	-26.32	-0.2621	0.0319	-0.421	
0.589016	-0.313418	0.672464	39.83	8.61	-26.46	-0.2682	0.0288	-0.4254	
0.586088	-0.305	0.678686	39.13	7.91	-25.55	-0.2683	0.0193	-0.4132	
0.589138	-0.294752	0.687226	38.78	7.63	-25.55	-0.2582	0.0062	-0.4261	
0.585966	-0.262788	0.69174	39.48	8.96	-26.6	-0.2566	0.0126	-0.4337	
0.597556	-0.248026	0.711626	37.73	5.81	-25.62	-0.2555	-0.0059	-0.4257	
0.611952	-0.236314	0.719434	37.94	5.81	-24.92	-0.2527	-0.0165	-0.4238	
0.620614	-0.228262	0.739076	38.71	7.42	-25.27	-0.2541	-0.0139	-0.412	
0.609024	-0.209108	0.744078	38.71	8.05	-24.99	-0.2516	-0.0333	-0.4233	
0.604876	-0.18117	0.742492	38.78	5.11	-25.62	-0.2531	-0.0351	-0.4158	
0.636352	-0.16592	0.760914	36.26	4.9	-24.22	-0.2563	-0.0444	-0.4155	
0.63562	-0.135908	0.755058	36.47	8.75	-24.78	-0.2609	-0.0507	-0.4124	
0.631472	-0.112606	0.763598	35.28	11.55	-24.71	-0.2445	-0.055	-0.4092	
0.609146	-0.09467199	0.760792	33.67	12.04	-23.73	-0.2402	-0.0626	-0.4074	
0.602436	-0.082228	0.770796	31.71	11.41	-22.96	-0.2404	-0.067	-0.4117	
0.615856	-0.078934	0.78812	29.4	11.48	-22.68	-0.2347	-0.0791	-0.4128	
0.615124	-0.07015	0.79361	28.35	11.13	-21.63	-0.2392	-0.0807	-0.4128	
0.60573	-0.064294	0.80154	28.07	10.43	-22.26	-0.2439	-0.0915	-0.4124	
0.610122	-0.0366	0.804346	26.67	9.17	-21	-0.226	-0.0977	-0.3973	
0.633058	-0.026718	0.813008	25.97	8.4	-19.53	-0.2305	-0.096	-0.4048	
0.609268	-0.021838	0.80642	24.15	7.35	-17.36	-0.2278	-0.1067	-0.4044	
0.606706	-0.012566	0.812032	23.24	4.9	-16.59	-0.2279	-0.1111	-0.3846	
0.602802	-0.007564	0.812886	21	4.27	-14.77	-0.2251	-0.1186	-0.41	
0.60085	0.006222	0.816058	20.16	4.83	-14.49	-0.2279	-0.111	-0.4132	
0.600972	0.01098	0.820328	17.92	2.59	-12.6	-0.228	-0.1173	-0.407	
0.601704	0.015372	0.823622	15.96	2.31	-11.34	-0.231	-0.1208	-0.3951	
0.605608	0.01586	0.82045	13.72	1.68	-10.01	-0.2236	-0.1221	-0.398	
0.612928	0.011102	0.820938	11.97	0.42	-8.82	-0.2264	-0.116	-0.3997	
0.616466	0.018056	0.830332	11.34	-0.42	-8.12	-0.2191	-0.1219	-0.3994	
0.603534	0.034526	0.823866	10.43	-0.28	-7.77	-0.221	-0.1337	-0.4124	
0.629886	0.046726	0.833504	9.31	-2.52	-6.58	-0.2236	-0.1202	-0.4069	
0.629154	0.036722	0.830332	5.81	-2.03	-4.76	-0.2223	-0.1296	-0.4007	
0.634522	0.04941	0.824354	4.41	-1.89	-4.34	-0.2165	-0.1371	-0.4004	
0.622444	0.04819	0.827526	2.17	-2.03	-2.87	-0.2178	-0.1329	-0.3902	
0.612562	0.045018	0.82045	0.49	-1.33	-2.31	-0.2253	-0.1312	-0.3992	
0.618174	0.047458	0.824476	-0.63	-2.1	-1.68	-0.2225	-0.1402	-0.4018	
0.62281	0.052338	0.841678	-4.13	-2.73	-0.42	-0.2192	-0.1298	-0.3917	
0.645746	0.058926	0.831308	-7.21	-5.04	2.38	-0.2255	-0.1385	-0.4108	
0.645746	0.049532	0.841068	-9.03	-4.48	3.22	-0.2207	-0.1248	-0.4068	
0.64599	0.053558	0.835944	-9.94	-3.15	4.2	-0.2253	-0.1313	-0.3962	
0.6405	0.049288	0.838872	-11.69	-4.13	6.23	-0.2239	-0.134	-0.4065	
0.645624	0.05246	0.834114	-13.23	-4.69	7.77	-0.2206	-0.1188	-0.401	
0.646722	0.05368	0.828746	-15.54	-4.41	9.31	-0.2132	-0.1234	-0.3978	
0.635498	0.042334	0.819718	-18.13	-4.62	11.34	-0.2282	-0.1233	-0.4083	
0.634156	0.032086	0.814716	-20.37	-5.18	12.88	-0.2203	-0.1114	-0.3938	
0.627934	0.014274	0.81496	-22.19	-5.53	14.77	-0.2313	-0.1328	-0.4006	
0.621102	0.006222	0.807274	-23.24	-6.44	16.1	-0.2309	-0.116	-0.4027	
0.617442	0.005856	0.797514	-24.29	-7.28	17.01	-0.2232	-0.1053	-0.3955	
0.617686	-0.007929999	0.796416	-26.46	-8.82	18.34	-0.2305	-0.0961	-0.4018	
0.623054	-0.024644	0.795196	-28.21	-9.73	19.81	-0.2368	-0.1082	-0.4104	
0.635742	-0.032574	0.787144	-29.4	-11.13	20.58	-0.2379	-0.0931	-0.4079	
0.63928	-0.051362	0.784582	-31.99	-11.62	22.47	-0.2484	-0.095	-0.4035	
0.639036	-0.080276	0.768356	-34.02	-12.53	24.08	-0.2422	-0.0824	-0.4112	
0.647942	-0.08686399	0.768478	-34.72	-12.39	25.2	-0.2375	-0.0763	-0.4055	
0.647332	-0.10004	0.762134	-36.61	-12.18	27.16	-0.2477	-0.0628	-0.406	
0.639768	-0.11834	0.750056	-37.8	-12.74	28.98	-0.2595	-0.0567	-0.4137	
0.637206	-0.133224	0.745908	-38.43	-12.18	29.4	-0.2521	-0.0581	-0.4121	
0.635864	-0.15189	0.733464	-39.55	-12.67	30.87	-0.2638	-0.0494	-0.4065	
0.629398	-0.169214	0.73017	-40.18	-12.6	31.92	-0.2607	-0.0445	-0.4141	
0.621102	-0.189466	0.713456	-41.16	-13.3	33.18	-0.2485	-0.0322	-0.4084	
0.625372	-0.207888	0.712602	-41.51	-13.58	34.23	-0.2694	-0.0292	-0.4205	
0.627324	-0.223748	0.699914	-41.72	-13.3	34.79	-0.257	-0.0125	-0.4091	
0.630496	-0.238754	0.691008	-42.35	-13.23	35.14	-0.26	-0.006	-0.4242	
0.619882	-0.258884	0.676368	-43.61	-14.07	35.98	-0.2702	0.0009999999	-0.4156	
0.613416	-0.28121	0.666852	-44.03	-14.35	36.47	-0.27	0.0087	-0.4173	
0.615246	-0.30134	0.65636	-44.24	-14	36.82	-0.2848	0.0177	-0.4222	
0.62037	-0.318542	0.647088	-44.94	-14.21	37.24	-0.2756	0.0269	-0.4165	
0.617686	-0.348188	0.626348	-45.71	-14.07	38.36	-0.2798	0.0405	-0.4154	
0.612318	-0.364292	0.614392	-45.92	-12.74	38.57	-0.287	0.0492	-0.4084	
0.611464	-0.386496	0.60573	-46.41	-12.25	38.57	-0.2763	0.062	-0.4191	
0.606096	-0.40443	0.594994	-46.41	-11.76	38.78	-0.2851	0.06439999	-0.4044	
0.625128	-0.414922	0.579134	-47.25	-11.27	39.2	-0.2698	0.0845	-0.4019	
0.576572	-0.446276	0.591578	-49.49	-7.84	37.31	-0.2843	0.0995	-0.4025	
0.59963	-0.44469	0.557784	-48.65	-7.63	39.27	-0.2886	0.1084	-0.3999	
0.568276	-0.479338	0.549244	-49.21	-13.3	39.9	-0.293	0.1099	-0.4014	
0.550708	-0.508008	0.541802	-49.07	-7.63	39.13	-0.2748	0.1274	-0.4108	
0.546194	-0.522526	0.525698	-48.44	-8.89	38.85	-0.2747	0.1285	-0.396	
0.547414	-0.535702	0.511302	-48.44	-10.92	39.62	-0.2732	0.1284	-0.393	
0.540582	-0.568032	0.509594	-48.23	-10.29	40.18	-0.2891	0.151	-0.3938	
0.534482	-0.57218	0.488	-46.13	-7.91	40.18	-0.2888	0.1646	-0.3913	
0.521794	-0.585112	0.474092	-46.76	-8.89	40.18	-0.2843	0.1678	-0.3914	
0.51362	-0.602558	0.458354	-47.46	-10.78	40.6	-0.2828	0.1695	-0.3959	
0.498736	-0.621956	0.451034	-48.16	-9.03	40.88	-0.2824	0.1814	-0.3873	
0.480924	-0.655506	0.436394	-49.28	-9.17	39.13	-0.2792	0.1956	-0.3982	
0.48373	-0.679418	0.425414	-51.24	-13.72	39.76	-0.27	0.2014	-0.382	
0.481534	-0.691618	0.401746	-49.91	-14.98	38.78	-0.2637	0.2198	-0.381	
0.477264	-0.696254	0.380274	-50.82	-14.49	38.22	-0.2681	0.2213	-0.3841	
0.476532	-0.711138	0.369416	-50.89	-14.98	38.36	-0.2769	0.2253	-0.3709	
0.46909	-0.73688	0.358314	-49.98	-13.51	36.96	-0.2675	0.2438	-0.3699	
0.445544	-0.75396	0.3233	-48.16	-12.67	37.52	-0.2659	0.2517	-0.3791	
0.420168	-0.76677	0.289262	-47.88	-14	38.43	-0.2716	0.257	-0.357	
0.39528	-0.78751	0.279868	-47.88	-12.67	37.1	-0.2699	0.2658	-0.3454	
0.397598	-0.789828	0.26535	-47.53	-13.58	35.77	-0.2683	0.2705	-0.3485	
0.395158	-0.80032	0.255712	-47.81	-14.56	35.42	-0.2576	0.2828	-0.3444	
0.405162	-0.825452	0.252662	-49.63	-14	36.33	-0.253	0.2907	-0.3491	
0.39711	-0.829722	0.244732	-48.44	-14.91	35.63	-0.2619	0.2856	-0.3401	
0.365512	-0.827526	0.228872	-49.77	-13.51	36.54	-0.2495	0.307	-0.3318	
0.368074	-0.8418	0.210694	-50.19	-11.69	37.38	-0.2479	0.3099	-0.3259	
0.352336	-0.853878	0.178974	-49.77	-8.19	36.82	-0.2475	0.3248	-0.316	
0.345626	-0.866078	0.160918	-48.16	-8.19	35.98	-0.2502	0.3369	-0.312	
0.352092	-0.854	0.155428	-47.53	-8.89	35.42	-0.2457	0.3384	-0.3105	
0.33428	-0.850828	0.129808	-48.44	-8.47	34.58	-0.2392	0.3581	-0.3007	
0.321958	-0.887184	0.117608	-50.89	-9.03	34.3	-0.2376	0.3594	-0.2933	
0.297558	-0.91744	0.106506	-50.82	-6.51	32.97	-0.233	0.3656	-0.292	
0.305732	-0.898896	0.078202	-46.76	-6.02	29.82	-0.2356	0.3818	-0.2777	
0.298168	-0.887428	0.077958	-47.6	-6.44	30.24	-0.2268	0.3745	-0.2818	
0.262788	-0.873642	0.044774	-44.8	-0.28	32.97	-0.2175	0.3914	-0.2779	
0.197762	-0.883768	0.007442	-41.37	6.09	34.3	-0.216	0.3914	-0.2764	
0.194834	-0.915732	-0.014152	-39.69	7.77	33.53	-0.2189	0.3896	-0.2704	
0.220332	-0.96136	-0.023668	-37.94	6.37	29.96	-0.2172	0.4003	-0.2693	
0.265472	-1.027484	0.022082	-36.19	4.13	28.91	-0.2037	0.4033	-0.2589	
0.271206	-1.00894	0.036478	-33.25	2.17	24.22	-0.199	0.4095	-0.2575	
0.25559	-0.943914	-0.00244	-30.31	4.13	22.54	-0.2064	0.4107	-0.2532	
0.2379	-0.935374	-0.035258	-37.1	6.58	26.25	-0.1974	0.4152	-0.2458	
0.17934	-0.991372	-0.081374	-42.84	-0.98	28.84	-0.1809	0.4154	-0.2413	
0.164212	-1.035536	-0.09455	-42.28	-6.93	26.67	-0.1836	0.4293	-0.2462	
0.130784	-1.022116	-0.09577	-36.54	-4.83	21.28	-0.185	0.4335	-0.236	
0.12261	-0.969168	-0.118218	-33.74	-2.59	18.83	-0.1805	0.4321	-0.2374	
0.141764	-0.939644	-0.147254	-38.01	-6.44	21.7	-0.1744	0.4349	-0.2255	
0.14823	-0.96502	-0.166286	-40.11	-12.32	25.06	-0.1683	0.4412	-0.2287	
0.13908	-1.020286	-0.172752	-39.13	-14.98	24.71	-0.1815	0.4466	-0.2141	
0.130906	-1.056276	-0.159454	-34.65	-9.8	20.93	-0.1726	0.4484	-0.2185	
0.136518	-1.048224	-0.161772	-30.59	-5.46	16.87	-0.162	0.453	-0.2112	
0.142862	-1.007598	-0.158356	-29.26	-1.61	17.43	-0.1634	0.4575	-0.2084	
0.144204	-0.949526	-0.170678	-31.22	-2.45	19.67	-0.1497	0.465	-0.1967	
0.152378	-0.974048	-0.190198	-34.58	-1.75	23.66	-0.1663	0.4554	-0.1935	
0.11529	-1.016748	-0.207278	-32.34	-2.31	23.38	-0.1542	0.4618	-0.1936	
0.097722	-0.996862	-0.20862	-28.28	-0.98	16.87	-0.1481	0.4663	-0.1878	
0.099308	-0.99796	-0.214598	-26.53	0.07	13.65	-0.1378	0.4619	-0.1861	
0.058438	-0.996984	-0.225456	-20.3	0.7	10.29	-0.148	0.4721	-0.1791	
0.041602	-1.000766	-0.226554	-18.83	0.28	10.85	-0.145	0.4673	-0.17	
0.09162199	-1.027972	-0.217892	-17.85	-4.48	11.34	-0.1405	0.4739	-0.182	
0.09272	-1.004548	-0.209962	-16.03	-5.11	10.22	-0.1345	0.4705	-0.167	
0.091866	-0.970754	-0.228262	-16.17	-6.09	10.64	-0.1448	0.4782	-0.1778	
0.09028	-0.962946	-0.239364	-16.52	-5.67	11.13	-0.1434	0.4718	-0.1657	
0.109068	-0.998936	-0.24583	-15.96	-4.76	11.48	-0.1402	0.4777	-0.1584	
0.091256	-1.015528	-0.22997	-12.32	-5.18	8.61	-0.1283	0.4762	-0.1509	
0.074786	-0.984296	-0.2379	-8.05	-3.99	3.99	-0.1284	0.4719	-0.1581	
0.079666	-0.949892	-0.252296	-7.91	1.12	2.94	-0.1283	0.4778	-0.1524	
0.104188	-0.95892	-0.260592	-9.59	1.05	4.06	-0.1269	0.475	-0.1582	
0.096502	-0.97478	-0.262056	-10.15	-2.17	5.25	-0.127	0.4685	-0.1491	
0.075274	-0.979782	-0.269864	-10.08	0.49	3.64	-0.1299	0.4749	-0.1583	
0.065026	-0.984052	-0.272792	-8.61	5.74	0.56	-0.1356	0.4823	-0.1556	
0.070638	-0.971242	-0.26901	-9.59	4.9	0.77	-0.1266	0.4822	-0.1466	
0.068442	-0.962458	-0.285358	-10.01	2.03	1.89	-0.1343	0.4761	-0.1509	
0.070516	-1.001376	-0.267424	-10.15	4.55	2.1	-0.1206	0.4838	-0.1436	
0.047214	-0.988932	-0.252784	-5.67	5.04	-1.19	-0.1355	0.4833	-0.1408	
0.054046	-0.951722	-0.258884	-3.71	4.06	-2.59	-0.1266	0.4838	-0.1496	
0.06954	-0.943548	-0.244488	-4.97	2.94	-0.91	-0.1283	0.4729	-0.1448	
0.078934	-0.930982	-0.22265	-7.35	1.54	1.26	-0.1207	0.4791	-0.1405	
0.07905599	-0.887062	-0.228994	-8.96	-0.21	1.12	-0.1252	0.4776	-0.145	
0.088816	-0.871202	-0.251198	-12.04	-1.33	1.75	-0.1282	0.4776	-0.1465	
0.11224	-0.898896	-0.255102	-17.01	-6.09	4.41	-0.1222	0.4841	-0.154	
0.11041	-0.964044	-0.250466	-19.39	-3.64	5.04	-0.116	0.49	-0.1438	
0.095038	-0.979294	-0.247416	-14.49	-0.35	0.77	-0.1176	0.4819	-0.1317	
0.091866	-0.979904	-0.259982	-12.53	0.07	-0.35	-0.1323	0.4892	-0.1305	
0.084546	-0.974414	-0.281332	-11.13	1.33	-0.21	-0.128	0.4848	-0.1333	
0.091012	-0.967826	-0.315492	-10.5	1.61	0.21	-0.1148	0.4743	-0.1314	
0.083692	-0.967826	-0.321714	-11.97	0.07	-0.14	-0.1192	0.4771	-0.1256	
0.087474	-0.961482	-0.338672	-12.53	0.91	0.42	-0.1264	0.4877	-0.1275	
0.05734	-1.0004	-0.343918	-13.72	0.77	2.73	-0.1234	0.4893	-0.129	
0.024278	-1.014186	-0.35258	-8.61	0.07	0.56	-0.1144	0.4895	-0.1289	
0.038796	-0.998448	-0.357826	-4.13	-1.26	-2.45	-0.1264	0.4877	-0.129	
0.071492	-0.965996	-0.352336	0.49	2.31	-5.6	-0.1159	0.4908	-0.123	
0.080154	-0.943914	-0.347944	2.03	4.97	-6.02	-0.1235	0.4781	-0.1138	
0.06734399	-0.928664	-0.351604	2.52	4.13	-4.27	-0.1248	0.4874	-0.1171	
0.06649	-0.929152	-0.354044	2.45	1.05	-2.24	-0.1265	0.4848	-0.1318	
0.09076799	-0.954406	-0.348798	1.96	-2.45	-1.33	-0.1296	0.4802	-0.1332	
0.080886	-0.963312	-0.350628	3.99	-2.8	-3.01	-0.1281	0.4783	-0.1227	
0.07076	-0.967338	-0.34892	6.16	-1.61	-4.13	-0.1221	0.48	-0.1227	
0.059658	-0.99064	-0.347212	7.35	-2.38	-3.29	-0.1236	0.477	-0.1241	
0.048312	-1.012478	-0.345748	9.03	-6.16	-2.52	-0.1339	0.486	-0.129	
0.05429	-1.003572	-0.34038	13.02	-6.51	-4.34	-0.1325	0.4833	-0.1363	
0.076006	-0.991982	-0.338184	15.05	-5.32	-5.6	-0.1309	0.4828	-0.1229	
0.08295999	-0.986858	-0.336842	16.59	-4.41	-5.74	-0.1295	0.4832	-0.1318	
0.083082	-0.994178	-0.331352	17.15	-4.62	-5.25	-0.128	0.4834	-0.1363	
0.085644	-0.978074	-0.322202	20.86	-4.41	-7.91	-0.1386	0.4772	-0.1421	
0.085156	-0.95953	-0.318664	22.19	-1.12	-9.31	-0.1355	0.4851	-0.1467	
0.097234	-0.953674	-0.313784	22.05	2.24	-10.36	-0.1282	0.4806	-0.1466	
0.106018	-0.96929	-0.310002	22.19	2.17	-10.71	-0.1357	0.4743	-0.1434	
0.091256	-0.981002	-0.301462	23.17	0.63	-11.34	-0.1357	0.4758	-0.1435	
0.08479	-0.976244	-0.290726	25.9	2.17	-13.86	-0.1478	0.4697	-0.1508	
0.080642	-0.962824	-0.2867	27.79	5.46	-16.24	-0.1433	0.4697	-0.1493	
0.08967	-0.963922	-0.28243	26.88	5.39	-16.31	-0.1552	0.4774	-0.16	
0.109556	-0.98149	-0.27206	26.53	4.83	-17.08	-0.1493	0.4732	-0.1672	
0.115046	-0.996618	-0.262056	24.99	4.13	-17.36	-0.1555	0.4655	-0.1685	
0.10004	-1.020286	-0.235704	20.79	13.3	-16.73	-0.151	0.4624	-0.1639	
0.133468	-1.000522	-0.239608	29.68	13.3	-21.42	-0.1556	0.4625	-0.1714	
0.130906	-1.010038	-0.244854	29.96	9.24	-19.53	-0.1556	0.4625	-0.1714	
0.119072	-1.004304	-0.240706	36.89	12.32	-23.31	-0.1572	0.4614	-0.1832	
0.102724	-1.003694	-0.23729	42.21	16.8	-27.86	-0.1618	0.4569	-0.1891	
0.107482	-1.0004	-0.212402	44.31	14.98	-28.56	-0.1621	0.4481	-0.2021	
0.129808	-0.990152	-0.180682	46.06	14.49	-29.96	-0.1695	0.4511	-0.2038	
0.147498	-0.98088	-0.156282	45.78	12.95	-28.91	-0.1668	0.4392	-0.2108	
0.145546	-0.986614	-0.120902	44.73	11.13	-28.7	-0.1832	0.4408	-0.2258	
0.1891	-0.954894	-0.125172	46.2	8.82	-27.44	-0.1834	0.4329	-0.2181	
0.182756	-0.950868	-0.116388	46.69	9.31	-30.31	-0.1806	0.4256	-0.2268	
0.174948	-0.942206	-0.088206	47.95	12.11	-34.44	-0.1898	0.4168	-0.2429	
0.16775	-0.950258	-0.084546	48.23	6.79	-32.69	-0.1899	0.4172	-0.2533	
0.1708	-0.97417	-0.059048	50.4	0.35	-30.87	-0.2018	0.4184	-0.2534	
0.241194	-0.936106	-0.030012	54.95	1.96	-32.69	-0.2022	0.4051	-0.2648	
0.29158	-0.894626	-0.001098	57.33	11.55	-32.97	-0.205	0.4094	-0.2606	
0.290848	-0.862296	0.035624	58.45	11.2	-31.01	-0.2024	0.3961	-0.272	
0.265716	-0.875228	0.057462	53.34	5.46	-25.97	-0.213	0.3916	-0.2823	
0.30378	-0.87962	0.062464	54.25	6.44	-28.42	-0.219	0.3899	-0.2808	
0.336842	-0.902434	0.108458	53.13	7.07	-28.7	-0.2177	0.3825	-0.285	
0.331352	-0.870592	0.142862	53.9	5.25	-27.72	-0.2224	0.3733	-0.2877	
0.321226	-0.833016	0.158234	51.24	6.23	-29.33	-0.2316	0.3627	-0.2978	
0.36783	-0.81496	0.181048	48.16	9.17	-28.56	-0.2273	0.3599	-0.3007	
0.426024	-0.854366	0.194102	44.03	7.49	-25.9	-0.2365	0.3494	-0.3123	
0.412116	-0.887062	0.205692	46.62	5.53	-27.09	-0.2429	0.3343	-0.3222	
0.329156	-0.869982	0.194468	52.29	8.47	-31.36	-0.2353	0.3373	-0.3163	
0.321836	-0.847534	0.21472	57.89	14.21	-34.51	-0.2418	0.3195	-0.3366	
0.374174	-0.80825	0.238998	60.27	15.12	-36.12	-0.2463	0.3164	-0.3365	
0.440908	-0.739808	0.256444	61.04	16.87	-36.12	-0.2494	0.3151	-0.3469	
0.46421	-0.737002	0.284016	52.22	12.46	-32.55	-0.2438	0.3017	-0.3509	
0.447984	-0.763232	0.297436	53.69	10.15	-30.73	-0.2499	0.297	-0.3522	
0.411872	-0.770674	0.307196	59.29	11.27	-34.51	-0.2563	0.2771	-0.3546	
0.397598	-0.76616	0.304268	57.19	12.39	-40.18	-0.2518	0.2788	-0.3561	
0.397964	-0.746152	0.348676	56.7	11.62	-43.54	-0.2568	0.2561	-0.3417	
0.405406	-0.722728	0.37027	58.52	8.05	-42.98	-0.2539	0.2547	-0.3702	
0.4148	-0.71797	0.37637	58.94	8.05	-39.97	-0.2648	0.2314	-0.3651	
0.437858	-0.738954	0.392962	58.8	3.99	-38.36	-0.2574	0.2337	-0.3814	
0.479094	-0.719678	0.415654	64.75	4.27	-41.09	-0.2682	0.2165	-0.378	
0.498126	-0.669902	0.42883	67.13	5.95	-43.47	-0.2653	0.2154	-0.3612	
0.491782	-0.60451	0.439932	67.62	8.12	-43.26	-0.2774	0.2075	-0.3867	
0.514108	-0.586698	0.454694	62.79	6.44	-40.39	-0.2704	0.188	-0.3949	
0.519354	-0.598166	0.48617	57.54	4.48	-39.55	-0.2839	0.1862	-0.3949	
0.550098	-0.580598	0.489952	56.07	3.5	-39.2	-0.2679	0.1703	-0.4091	
0.555222	-0.598776	0.50752	54.74	4.69	-38.71	-0.2847	0.1479	-0.3892	
0.531554	-0.577426	0.494954	58.94	6.65	-39.34	-0.2877	0.1432	-0.3876	
0.493368	-0.560834	0.472628	63.91	10.22	-36.26	-0.2806	0.1316	-0.402	
0.498126	-0.540704	0.54778	65.45	12.81	-38.01	-0.2852	0.1282	-0.396	
0.5917	-0.45811	0.568642	62.79	14	-38.08	-0.2735	0.1182	-0.4075	
0.61244	-0.431636	0.557784	55.65	4.9	-34.44	-0.2766	0.1135	-0.4059	
0.604388	-0.417362	0.59597	52.57	5.39	-32.9	-0.2815	0.09519999	-0.3842	
0.6344	-0.38735	0.609024	52.5	9.1	-34.23	-0.2817	0.0876	-0.4125	
0.631106	-0.366488	0.620492	50.33	10.85	-35.84	-0.2714	0.0785	-0.4047	
0.602314	-0.354532	0.641964	46.55	10.99	-34.93	-0.2805	0.0721	-0.4046	
0.595848	-0.364658	0.64416	45.01	11.13	-33.53	-0.2704	0.054	-0.4039	
0.584258	-0.360876	0.654042	44.66	9.87	-34.02	-0.2873	0.0373	-0.4184	
0.588284	-0.339404	0.653554	45.71	9.94	-34.51	-0.2696	0.0269	-0.4149	
0.577792	-0.311588	0.669292	47.81	11.34	-34.23	-0.2666	0.0267	-0.406	
0.580232	-0.289872	0.679296	47.88	9.94	-34.16	-0.2639	0.0166	-0.4205	
0.620126	-0.25437	0.699426	48.09	11.62	-35.14	-0.273	0.0084	-0.4099	
0.64965	-0.202886	0.69174	47.39	4.41	-35.56	-0.2747	-0.0007	-0.4096	
0.61976	-0.221308	0.713822	44.17	5.81	-32.13	-0.2614	-0.0063	-0.4153	
0.618784	-0.212402	0.726266	44.59	8.05	-33.32	-0.2587	-0.0217	-0.4103	
0.621346	-0.188246	0.721874	44.87	9.87	-32.55	-0.2619	-0.0308	-0.413	
0.620614	-0.178242	0.734196	42.35	9.59	-31.36	-0.2607	-0.0432	-0.4082	
0.621102	-0.149328	0.731756	42	9.8	-31.99	-0.2561	-0.0385	-0.4083	
0.597556	-0.106994	0.72468	42.14	10.29	-32.83	-0.2478	-0.0691	-0.3998	
0.593286	-0.125904	0.726876	39.48	8.19	-30.66	-0.2537	-0.0646	-0.403	
0.586332	-0.138226	0.732976	40.18	8.89	-30.38	-0.2553	-0.0656	-0.4178	
0.609146	-0.10797	0.774334	44.17	12.53	-32.34	-0.2523	-0.0722	-0.4012	
0.622688	-0.078568	0.816912	44.31	11.55	-33.32	-0.2481	-0.0812	-0.4024	
0.67039	-0.022326	0.777628	41.72	8.47	-28.91	-0.2408	-0.0919	-0.399	
0.618784	-0.010248	0.779824	40.04	10.57	-29.26	-0.2515	-0.1061	-0.3927	
0.612562	-0.015982	0.787144	37.87	11.48	-27.86	-0.241	-0.1026	-0.3972	
0.592798	-0.002196	0.777384	38.57	8.96	-26.53	-0.2369	-0.1181	-0.3893	
0.582428	0.019398	0.784338	38.57	9.45	-26.74	-0.2325	-0.1226	-0.3876	
0.595482	0.035502	0.788486	37.31	9.38	-25.2	-0.2343	-0.1362	-0.3916	
0.57889	0.054534	0.773846	36.82	8.05	-25.41	-0.2312	-0.1317	-0.3888	
0.561566	0.05429	0.78751	35.91	7.91	-26.11	-0.2225	-0.1437	-0.3898	
0.60512	0.049654	0.794464	36.12	7.07	-26.32	-0.2285	-0.1472	-0.3809	
0.630496	0.098942	0.817278	36.82	9.66	-27.44	-0.2196	-0.1503	-0.3718	
0.60878	0.1342	0.808006	34.3	10.85	-25.34	-0.2155	-0.1665	-0.3861	
0.579622	0.113582	0.814594	31.29	10.5	-24.22	-0.2109	-0.1588	-0.3863	
0.58011	0.116998	0.798124	28.98	7.77	-22.05	-0.2096	-0.1662	-0.392	
0.56242	0.124684	0.78934	28.91	7.84	-22.68	-0.2036	-0.1712	-0.3755	
0.577914	0.152012	0.80398	27.86	6.72	-21.07	-0.204	-0.1846	-0.3869	
0.574864	0.161406	0.823744	27.02	3.85	-18.69	-0.2114	-0.1884	-0.369	
0.578768	0.193736	0.822036	25.2	1.82	-18.69	-0.2011	-0.1958	-0.3672	
0.557662	0.21655	0.787022	24.85	2.38	-17.85	-0.1907	-0.1923	-0.3747	
0.554978	0.19398	0.821792	21.49	2.45	-16.87	-0.197	-0.2094	-0.3683	
0.599142	0.194346	0.846802	20.3	2.94	-16.73	-0.1969	-0.2062	-0.3728	
0.647088	0.223016	0.870592	19.46	4.76	-15.4	-0.1895	-0.2095	-0.3623	
0.622566	0.253882	0.849486	16.45	2.45	-13.93	-0.1956	-0.214	-0.3681	
0.588406	0.23851	0.830088	11.2	4.69	-9.17	-0.1852	-0.2201	-0.3604	
0.573766	0.24095	0.820084	10.85	3.5	-9.17	-0.1881	-0.2174	-0.3531	
0.573766	0.27145	0.832406	7.42	2.73	-7.98	-0.1883	-0.2247	-0.3633	
0.594506	0.269498	0.851194	2.8	-1.89	-5.32	-0.1868	-0.2216	-0.3633	
0.613538	0.279746	0.85644	-1.82	-3.92	-2.87	-0.1794	-0.2261	-0.3602	
0.600728	0.288408	0.847778	-3.85	-4.41	-1.75	-0.1913	-0.2232	-0.3633	
0.559492	0.279136	0.819352	-4.2	-4.13	-0.14	-0.1955	-0.2128	-0.3592	
0.577304	0.264618	0.835822	-7.21	-5.46	1.96	-0.1942	-0.2185	-0.3679	
0.627202	0.28121	0.849608	-8.47	-5.67	3.57	-0.1941	-0.2158	-0.3832	
0.628178	0.296826	0.83814	-11.9	-5.6	5.67	-0.2047	-0.2203	-0.3665	
0.600118	0.275842	0.81374	-16.1	-5.39	7.91	-0.1985	-0.2129	-0.3563	
0.5917	0.24583	0.801418	-18.55	-5.32	8.96	-0.1954	-0.2065	-0.3624	
0.594628	0.238754	0.804102	-18.69	-4.34	8.05	-0.2027	-0.2004	-0.3686	
0.59536	0.236558	0.80764	-20.37	-5.67	8.68	-0.2044	-0.2079	-0.3728	
0.590968	0.22204	0.812398	-22.05	-6.51	10.29	-0.1953	-0.2034	-0.3655	
0.588528	0.198494	0.806908	-22.68	-6.51	11.06	-0.2011	-0.1928	-0.3658	
0.580598	0.1952	0.801784	-20.93	-6.72	10.99	-0.2012	-0.1972	-0.3716	
0.585234	0.186904	0.810202	-21.63	-8.05	12.81	-0.2055	-0.1913	-0.3689	
0.62769	0.183122	0.818132	-21.63	-8.05	13.58	-0.1994	-0.1834	-0.3736	
0.64782	0.20008	0.825086	-22.96	-7.56	13.79	-0.2025	-0.1863	-0.3779	
0.645014	0.195444	0.822524	-26.88	-9.03	16.1	-0.2083	-0.1774	-0.3768	
0.635864	0.171654	0.819108	-30.59	-10.5	18.48	-0.2083	-0.1789	-0.3767	
0.634888	0.158722	0.801418	-31.78	-10.57	19.88	-0.2112	-0.1726	-0.3844	
0.620736	0.147498	0.801906	-35.21	-11.34	22.47	-0.2214	-0.167	-0.3757	
0.630008	0.119072	0.80886	-36.61	-11.69	24.64	-0.2242	-0.153	-0.3866	
0.62525	0.115168	0.793	-36.61	-11.55	25.13	-0.2288	-0.1594	-0.3805	
0.62403	0.116632	0.789584	-37.73	-11.27	25.62	-0.2285	-0.1438	-0.3914	
0.61183	0.109556	0.778482	-39.9	-10.85	27.23	-0.2298	-0.1379	-0.3856	
0.625494	0.081374	0.781532	-42.35	-11.83	28.84	-0.2356	-0.1285	-0.3949	
0.643184	0.043676	0.77531	-43.33	-10.78	29.89	-0.243	-0.1257	-0.3935	
0.649406	0.03172	0.776774	-43.68	-9.38	30.17	-0.2413	-0.1133	-0.3969	
0.638182	0.027938	0.759816	-44.8	-9.03	32.06	-0.2428	-0.1116	-0.4029	
0.627446	-0.022814	0.759328	-49.84	-8.96	37.17	-0.2471	-0.1089	-0.3956	
0.636352	-0.026962	0.734806	-48.58	-9.17	36.05	-0.2468	-0.0937	-0.3946	
0.61061	-0.046116	0.731146	-49.77	-9.59	36.89	-0.2524	-0.0721	-0.4057	
0.603168	-0.07381	0.724314	-50.96	-8.75	37.8	-0.2567	-0.0661	-0.4059	
0.61732	-0.109556	0.716628	-53.2	-11.2	39.69	-0.2433	-0.0671	-0.4102	
0.608902	-0.129808	0.68564	-51.66	-11.62	39.13	-0.2488	-0.0476	-0.4065	
0.583892	-0.171898	0.674538	-51.1	-11.06	39.06	-0.2532	-0.0464	-0.3976	
0.610488	-0.211426	0.680394	-49.42	-10.43	38.78	-0.2694	-0.0325	-0.4145	
0.627934	-0.214232	0.674172	-49.56	-10.57	39.06	-0.2603	-0.0231	-0.4147	
0.624396	-0.247294	0.649162	-51.87	-11.97	41.02	-0.2659	-0.0079	-0.4168	
0.610854	-0.298412	0.63745	-53.41	-13.09	41.93	-0.2746	0.0005	-0.4022	
0.58194	-0.321836	0.622688	-49.91	-10.64	42.35	-0.2655	0.01	-0.4084	
0.563274	-0.330742	0.618296	-49.28	-9.1	43.12	-0.2699	0.0115	-0.4085	
0.583892	-0.352702	0.613538	-48.72	-9.1	43.4	-0.277	0.0282	-0.4106	
0.58926	-0.381128	0.61122	-49.56	-10.43	43.19	-0.2782	0.0403	-0.4095	
0.560834	-0.392474	0.579866	-48.02	-11.34	42.35	-0.2782	0.042	-0.414	
0.521062	-0.416142	0.56669	-48.58	-10.01	41.86	-0.2703	0.0587	-0.4056	
0.551318	-0.434686	0.557906	-47.25	-10.99	40.18	-0.2732	0.0649	-0.3861	
0.576816	-0.455304	0.57035	-48.16	-11.62	40.32	-0.2805	0.0722	-0.4061	
0.565592	-0.474946	0.560468	-47.04	-10.15	41.16	-0.2906	0.0872	-0.4051	
0.570594	-0.504958	0.565348	-46.48	-11.69	42.35	-0.2772	0.0845	-0.4065	
0.574986	-0.513742	0.549488	-45.85	-10.36	42.14	-0.2786	0.0891	-0.4096	
0.579256	-0.521916	0.542412	-46.13	-8.96	42	-0.2764	0.1226	-0.4032	
0.55693	-0.547048	0.52948	-49	-7.7	41.37	-0.282	0.1327	-0.3917	
0.536922	-0.557296	0.50447	-47.67	-7.91	40.53	-0.2818	0.1486	-0.41	
0.503372	-0.578036	0.485316	-47.81	-7.21	38.92	-0.2846	0.1541	-0.3939	
0.480314	-0.593042	0.45933	-46.34	-6.93	38.5	-0.2815	0.1605	-0.4015	
0.476898	-0.630252	0.457744	-45.64	-8.26	36.82	-0.2811	0.1754	-0.3901	
0.499834	-0.66307	0.457256	-44.17	-7.77	35.14	-0.2703	0.1909	-0.3876	
0.509716	-0.695888	0.470554	-44.1	-11.2	36.54	-0.2774	0.2075	-0.3881	
0.483608	-0.7076	0.452742	-41.86	-11.76	37.03	-0.2775	0.2028	-0.385	
0.469212	-0.696742	0.419314	-40.04	-8.26	35.98	-0.273	0.2046	-0.391	
0.464088	-0.682834	0.407358	-39.55	-8.82	35.21	-0.2653	0.2122	-0.3838	
0.461404	-0.708942	0.415166	-41.58	-11.13	36.26	-0.274	0.2241	-0.3812	
0.459574	-0.72285	0.404552	-41.02	-11.62	35.21	-0.2516	0.223	-0.3766	
0.46787	-0.736392	0.390156	-39.27	-9.1	33.18	-0.2799	0.227	-0.3799	
0.451034	-0.733098	0.386496	-38.36	-7.98	32.34	-0.2779	0.2483	-0.3761	
0.442128	-0.732488	0.365512	-40.53	-5.6	33.46	-0.2626	0.265	-0.3632	
0.433588	-0.76799	0.331596	-43.26	-3.78	33.11	-0.2626	0.2651	-0.3661	
0.401624	-0.762378	0.310002	-43.82	-1.47	32.34	-0.261	0.2649	-0.3587	
0.416264	-0.795074	0.311588	-46.76	-0.84	30.31	-0.2518	0.2788	-0.3591	
0.410896	-0.823988	0.300852	-45.85	-0.56	30.52	-0.2576	0.2831	-0.3518	
0.372466	-0.827648	0.285358	-45.01	-2.03	32.9	-0.25	0.2925	-0.3565	
0.380152	-0.82167	0.269864	-47.11	-1.19	33.6	-0.2409	0.2954	-0.3447	
0.366854	-0.80825	0.244732	-48.79	-2.31	35.42	-0.2542	0.3029	-0.351	
0.306586	-0.824842	0.208132	-51.31	-5.74	38.29	-0.2421	0.306	-0.3421	
0.284504	-0.86742	0.208864	-52.57	-7.14	37.1	-0.2327	0.3291	-0.3413	
0.292556	-0.876936	0.191784	-50.54	-9.03	33.18	-0.2415	0.3318	-0.3385	
0.337452	-0.852902	0.193614	-49.49	-10.36	30.59	-0.2472	0.342	-0.3284	
0.357216	-0.871812	0.164212	-49.07	-9.31	30.66	-0.2263	0.344	-0.3269	
0.306342	-0.905972	0.149694	-46.9	-6.93	31.57	-0.2292	0.3437	-0.3195	
0.274134	-0.93208	0.138836	-45.08	-5.95	27.72	-0.2243	0.3635	-0.3156	
0.277916	-0.963434	0.135908	-44.38	-6.37	25.55	-0.2198	0.3636	-0.3171	
0.292312	-0.987712	0.129686	-41.37	-7.77	23.66	-0.2242	0.3614	-0.2992	
0.285358	-0.972584	0.09076799	-36.61	-5.81	21.7	-0.2014	0.3818	-0.2997	
0.276208	-0.956602	0.06649	-37.87	-5.67	22.26	-0.2162	0.3858	-0.2925	
0.270108	-0.945988	0.067954	-38.99	-3.01	22.75	-0.2161	0.3885	-0.2822	
0.267912	-0.957578	0.05856	-38.5	-2.17	22.33	-0.213	0.3918	-0.2868	
0.220332	-0.955138	0.057828	-35.07	-0.91	20.02	-0.2071	0.3854	-0.2732	
0.21655	-0.955748	0.028548	-33.74	-1.54	17.85	-0.2039	0.3994	-0.2795	
0.199226	-0.936472	0.019398	-32.76	-0.35	16.87	-0.2083	0.4022	-0.2737	
0.222406	-0.950502	0.009881999	-33.6	-1.47	17.85	-0.205	0.4143	-0.2696	
0.23119	-0.96807	0.012566	-33.32	-3.22	17.78	-0.2005	0.4092	-0.2516	
0.232532	-0.98454	0.009881999	-31.5	-3.08	15.89	-0.1915	0.4176	-0.2681	
0.22021	-0.97356	0.003294	-30.73	-4.27	16.38	-0.1914	0.4154	-0.2473	
0.252296	-0.967826	-0.002318	-33.81	-5.25	18.41	-0.1822	0.4262	-0.2461	
0.239608	-0.945134	-0.010248	-36.96	-5.95	20.58	-0.1809	0.419	-0.2562	
0.24949	-0.926834	-0.039162	-41.37	-3.71	22.68	-0.1837	0.4263	-0.2476	
0.232044	-0.923174	-0.017202	-46.2	-4.06	22.96	-0.1895	0.4303	-0.2359	
0.233264	-0.893162	-0.049898	-51.8	-6.02	26.04	-0.1727	0.4475	-0.2348	
0.2501	-0.92232	-0.090402	-54.74	-5.74	27.09	-0.1833	0.4427	-0.2362	
0.22509	-0.926834	-0.096624	-52.78	0.28	24.01	-0.1652	0.4472	-0.2214	
0.207888	-0.940986	-0.13481	-50.26	3.29	20.65	-0.1726	0.4467	-0.2126	
0.175436	-0.946598	-0.138714	-48.58	10.36	19.04	-0.1619	0.4543	-0.2038	
0.128954	-0.944158	-0.199226	-43.96	10.85	16.1	-0.1604	0.4541	-0.1979	
0.10187	-0.971608	-0.22082	-45.92	14.7	16.45	-0.1559	0.4526	-0.1948	
0.097844	-1.003084	-0.211792	-47.67	8.89	19.53	-0.1631	0.463	-0.1908	
0.13725	-1.043954	-0.196176	-45.78	8.96	19.95	-0.1497	0.4647	-0.1877	
0.133224	-1.004914	-0.208376	-38.08	10.36	14.98	-0.1465	0.4706	-0.1775	
0.134932	-0.953186	-0.211426	-37.17	9.45	12.95	-0.1467	0.4613	-0.1728	
0.106506	-0.929152	-0.222894	-42.63	6.72	16.52	-0.1432	0.4844	-0.1779	
0.07503	-0.894504	-0.260348	-48.16	2.45	20.23	-0.1404	0.4732	-0.1612	
0.142496	-0.947086	-0.30012	-50.05	-2.03	19.74	-0.1312	0.4794	-0.1569	
0.111508	-1.00833	-0.323666	-44.03	-8.26	20.72	-0.1283	0.4796	-0.1614	
-0.032208	-1.05835	-0.302194	-32.97	-10.57	10.71	-0.1327	0.4789	-0.1436	
-0.005002	-0.984662	-0.287554	-22.33	-2.66	4.06	-0.1296	0.4788	-0.1391	
0.098332	-0.945866	-0.276452	-23.59	-1.61	7.56	-0.1279	0.488	-0.1379	
0.136884	-0.905484	-0.294874	-28.91	-5.18	13.23	-0.1219	0.4926	-0.135	
0.152256	-0.89426	-0.325008	-31.92	-15.12	17.43	-0.1207	0.4758	-0.133	
0.12139	-0.913658	-0.332328	-32.27	-25.83	16.24	-0.125	0.4829	-0.1214	
0.081496	-0.922564	-0.33916	-29.68	-28.98	10.92	-0.1144	0.486	-0.114	
0.055998	-0.887672	-0.36356	-28.07	-23.45	5.39	-0.1143	0.4872	-0.1051	
0.002806	-0.923662	-0.391986	-29.26	-17.99	4.41	-0.116	0.4779	-0.1004	
0.000244	-1.033218	-0.41663	-27.37	-23.24	7.77	-0.1187	0.49	-0.1008	
0.012932	-1.109956	-0.420534	-19.88	-30.87	7.98	-0.116	0.4747	-0.0973	
0.027816	-1.078114	-0.419192	-8.4	-23.17	3.5	-0.1097	0.4881	-0.0828	
0.06527	-1.009306	-0.423706	-1.96	-7.07	0	-0.1159	0.4823	-0.0946	
0.0671	-0.94733	-0.420168	-5.32	-3.78	3.01	-0.1216	0.4879	-0.0859	
0.060268	-0.920612	-0.424316	-6.44	-5.39	4.62	-0.1185	0.4941	-0.0846	
0.057584	-0.932568	-0.430294	-7.42	-8.33	5.18	-0.1081	0.496	-0.0905	
0.052582	-0.903654	-0.418338	-4.97	-6.86	0.84	-0.1096	0.4926	-0.08	
0.064172	-0.88755	-0.422852	-1.47	1.12	-2.8	-0.1186	0.4878	-0.0799	
0.057096	-0.866444	-0.426268	1.19	-0.84	-6.44	-0.1111	0.4911	-0.0815	
0.034892	-0.925736	-0.410408	-3.85	0.35	-1.96	-0.1246	0.4896	-0.0919	
0.045628	-0.931958	-0.418582	-1.4	-1.68	-2.59	-0.1125	0.4942	-0.0831	
0.05978	-0.929396	-0.409798	-1.33	-1.82	-2.03	-0.1144	0.479	-0.0885	
0.052094	-0.936838	-0.414556	0	0.56	-1.54	-0.1128	0.4852	-0.0887	
0.041724	-0.952088	-0.412482	1.12	1.75	-1.4	-0.1127	0.4882	-0.0873	
0.040016	-0.939766	-0.416874	3.43	0.84	-2.73	-0.1185	0.494	-0.0816	
0.05673	-0.943792	-0.416752	3.92	0	-3.15	-0.1157	0.4848	-0.07979999	
0.049898	-0.94733	-0.402356	6.16	1.75	-4.97	-0.1113	0.4834	-0.0797	
0.048922	-0.954162	-0.401258	8.47	3.43	-6.09	-0.1067	0.4849	-0.0768	
0.0366	-0.9394	-0.401502	10.29	4.13	-7.07	-0.1172	0.4864	-0.0828	
0.047702	-0.93757	-0.402844	9.8	2.59	-7.35	-0.1263	0.4788	-0.08859999	
0.06039	-0.93574	-0.402722	11.41	0.63	-7.98	-0.1129	0.4807	-0.0915	
0.05856	-0.945134	-0.39955	11.48	1.61	-8.96	-0.1246	0.4881	-0.0919	
0.053802	-0.952698	-0.398574	13.65	3.85	-10.36	-0.1249	0.4776	-0.0975	
0.054046	-0.95465	-0.389546	15.12	2.87	-11.06	-0.1187	0.4868	-0.0947	
0.05063	-0.96075	-0.386862	15.75	4.13	-11.48	-0.1367	0.4852	-0.1052	
0.06039	-0.95587	-0.386862	17.99	5.04	-11.9	-0.1292	0.4868	-0.1037	
0.066978	-0.939034	-0.382714	18.48	5.18	-11.83	-0.1264	0.4842	-0.1155	
0.076738	-0.938546	-0.378688	17.29	5.46	-11.27	-0.1337	0.487	-0.1112	
0.080276	-0.951966	-0.37149	18.2	5.88	-12.25	-0.1384	0.481	-0.1184	
0.07869	-0.9394	-0.363438	19.11	6.93	-14.07	-0.1323	0.4889	-0.1231	
0.08052	-0.931714	-0.363682	18.62	7.91	-14.21	-0.1295	0.4764	-0.1123	
0.08357	-0.95099	-0.359534	17.15	7.77	-13.51	-0.1324	0.4795	-0.1139	
0.087596	-0.978318	-0.346602	17.5	5.88	-13.02	-0.1429	0.4826	-0.123	
0.098454	-0.990152	-0.342088	19.95	4.48	-14.21	-0.1444	0.481	-0.1229	
0.119316	-0.954528	-0.346846	26.11	5.18	-17.29	-0.1491	0.472	-0.1301	
0.128588	-0.951844	-0.333548	23.73	8.54	-17.57	-0.1493	0.4644	-0.1313	
0.119316	-0.963678	-0.326106	22.47	9.17	-16.45	-0.1552	0.4723	-0.1435	
0.121756	-0.97051	-0.313906	23.94	7.84	-17.01	-0.1478	0.4664	-0.1433	
0.142862	-0.969168	-0.30012	25.41	8.12	-17.99	-0.1582	0.4694	-0.1494	
0.145302	-0.962092	-0.293532	25.9	8.26	-18.06	-0.1494	0.465	-0.1492	
0.1464	-0.978684	-0.294874	26.25	9.24	-17.64	-0.1599	0.4616	-0.1447	
0.142618	-0.989786	-0.287676	26.67	9.73	-17.71	-0.1584	0.465	-0.1566	
0.140178	-0.989908	-0.277306	28.63	10.15	-18.41	-0.1705	0.4604	-0.1625	
0.156404	-0.97966	-0.268644	31.01	11.06	-18.55	-0.1675	0.4605	-0.164	
0.174704	-0.948672	-0.268156	35.42	7.42	-21.35	-0.1691	0.4579	-0.1788	
0.183854	-0.96197	-0.250222	32.2	7	-18.2	-0.1676	0.4563	-0.1742	
0.184098	-0.949526	-0.23912	33.88	8.05	-16.52	-0.1781	0.4579	-0.1862	
0.19703	-0.960994	-0.224968	33.67	9.38	-16.8	-0.1873	0.4503	-0.192	
0.20618	-0.95526	-0.21106	35.7	8.61	-18.9	-0.1725	0.4413	-0.1872	
0.202642	-0.961604	-0.194834	37.31	10.22	-19.46	-0.183	0.4398	-0.1946	
0.198982	-0.96441	-0.176168	39.13	10.22	-20.72	-0.1831	0.4432	-0.2066	
0.232288	-0.945622	-0.164578	40.04	8.68	-19.88	-0.1846	0.4386	-0.2064	
0.228506	-0.94855	-0.147376	38.99	9.87	-19.11	-0.2011	0.4337	-0.2064	
0.226676	-0.953674	-0.12688	38.08	9.45	-19.25	-0.1969	0.4281	-0.221	
0.245952	-0.949282	-0.110044	38.43	9.52	-19.53	-0.1986	0.4208	-0.2297	
0.255102	-0.946598	-0.09747799	38.99	10.43	-19.81	-0.2016	0.4193	-0.2327	
0.23668	-0.95099	-0.08113	39.9	10.57	-21	-0.2062	0.4178	-0.2386	
0.224236	-0.9455	-0.078202	40.95	9.38	-22.47	-0.2049	0.4104	-0.2428	
0.232288	-0.951844	-0.071614	42.49	8.33	-23.87	-0.2094	0.4104	-0.2473	
0.234362	-0.965996	-0.057096	43.89	6.58	-25.48	-0.211	0.4092	-0.2576	
0.247782	-0.958554	-0.034038	47.6	6.23	-28.14	-0.2156	0.4015	-0.2574	
0.284992	-0.935862	-0.00915	50.33	6.86	-29.96	-0.2204	0.3927	-0.2735	
0.269986	-0.928908	0.00244	49.98	6.79	-29.82	-0.219	0.3866	-0.2718	
0.276696	-0.94306	-0.000854	50.61	2.59	-27.51	-0.2236	0.3869	-0.2581	
0.306708	-0.92354	0.01952	55.58	1.33	-28.21	-0.2252	0.3791	-0.2805	
0.309392	-0.882914	0.046116	55.44	4.69	-28.14	-0.2283	0.3777	-0.2849	
0.324276	-0.85949	0.074664	57.05	7.42	-26.6	-0.2286	0.3627	-0.2948	
0.33367	-0.851438	0.093452	53.55	7.49	-24.78	-0.2376	0.3628	-0.3038	
0.348554	-0.852292	0.123952	51.17	5.11	-24.22	-0.2381	0.3446	-0.3077	
0.33855	-0.865102	0.15921	51.8	5.25	-24.92	-0.2456	0.3431	-0.3121	
0.34404	-0.834236	0.17324	53.55	6.44	-28	-0.2425	0.3479	-0.3167	
0.345138	-0.804102	0.196298	54.39	10.01	-30.66	-0.243	0.3267	-0.3235	
0.362706	-0.788486	0.21472	58.31	12.46	-32.76	-0.249	0.325	-0.3235	
0.372954	-0.802272	0.228262	56.21	10.43	-32.97	-0.252	0.3266	-0.325	
0.386496	-0.80276	0.245708	55.72	7.63	-35.07	-0.2584	0.3115	-0.335	
0.408822	-0.795074	0.258884	52.5	6.3	-36.4	-0.2587	0.2981	-0.3449	
0.430294	-0.782386	0.284748	53.27	4.97	-38.15	-0.2528	0.2933	-0.3358	
0.451766	-0.76555	0.298778	55.44	7.56	-38.92	-0.2562	0.2816	-0.3518	
0.475068	-0.7381	0.324764	54.67	5.81	-39.83	-0.2592	0.277	-0.3531	
0.490074	-0.725656	0.34709	54.46	8.12	-39.48	-0.2593	0.2755	-0.3561	
0.506056	-0.719312	0.378688	54.95	10.01	-37.1	-0.2703	0.2511	-0.3628	
0.523868	-0.689422	0.384178	57.89	9.87	-36.19	-0.2705	0.2419	-0.3625	
0.506422	-0.675758	0.382348	58.1	12.88	-35.7	-0.2691	0.2391	-0.3698	
0.48861	-0.66307	0.391132	55.02	8.47	-35	-0.2784	0.2221	-0.3693	
0.49959	-0.63013	0.40443	53.69	7.98	-34.09	-0.286	0.2193	-0.3812	
0.514718	-0.61671	0.4209	52.5	8.4	-34.65	-0.2745	0.203	-0.388	
0.52887	-0.611464	0.433222	53.55	8.12	-35.7	-0.2851	0.1999	-0.3939	
0.531432	-0.614148	0.458232	55.3	9.17	-37.38	-0.2764	0.1846	-0.3874	
0.524478	-0.591456	0.462014	57.89	9.52	-38.71	-0.2796	0.1723	-0.3855	
0.515084	-0.575108	0.464576	58.1	9.66	-39.69	-0.2873	0.1646	-0.3883	
0.53375	-0.569618	0.486902	57.82	8.96	-39.2	-0.2878	0.1466	-0.3996	
0.553636	-0.545828	0.49715	58.45	11.13	-40.04	-0.2819	0.142	-0.395	
0.566446	-0.51301	0.507642	59.99	11.41	-40.88	-0.2775	0.1344	-0.3932	
0.56852	-0.485194	0.525454	61.67	13.44	-41.3	-0.2793	0.1256	-0.4063	
0.57035	-0.451034	0.538264	62.72	13.37	-41.09	-0.2842	0.1073	-0.4102	
0.569618	-0.442006	0.548512	62.23	12.04	-40.6	-0.2858	0.0995	-0.404	
0.586698	-0.432734	0.564006	62.16	10.36	-39.62	-0.2862	0.0844	-0.411	
0.598288	-0.416874	0.583648	61.25	10.57	-39.69	-0.282	0.0738	-0.4091	
0.600484	-0.404186	0.604022	63.14	11.69	-41.23	-0.2854	0.0555	-0.4115	
0.590236	-0.354654	0.628666	64.61	10.92	-41.02	-0.2885	0.0511	-0.4203	
0.599508	-0.299022	0.640012	61.67	10.08	-37.73	-0.2796	0.0433	-0.4081	
0.608658	-0.285236	0.650382	59.78	8.82	-37.03	-0.292	0.0233	-0.4135	
0.625982	-0.273524	0.659776	58.52	8.54	-37.31	-0.2817	0.019	-0.4133	
0.625006	-0.260958	0.665998	58.38	10.78	-37.8	-0.2789	0.0114	-0.413	
0.599996	-0.251808	0.674782	56.49	10.71	-37.8	-0.2778	-0.0069	-0.4109	
0.59353	-0.23241	0.667096	57.05	8.54	-34.79	-0.2721	-0.0172	-0.4165	
0.575718	-0.218502	0.684542	57.96	7	-34.44	-0.2706	-0.0205	-0.4075	
0.581818	-0.184708	0.708088	54.53	5.6	-32.9	-0.268	-0.0372	-0.4084	
0.593042	-0.14579	0.722362	54.53	0.07	-31.71	-0.2636	-0.0387	-0.4083	
0.607438	-0.109556	0.734074	52.15	0	-31.15	-0.2669	-0.0556	-0.4048	
0.618784	-0.088816	0.743468	52.36	-2.03	-31.22	-0.267	-0.0586	-0.4077	
0.648552	-0.056364	0.75457	51.38	-7.77	-29.61	-0.2657	-0.076	-0.3893	
0.660142	-0.04453	0.756522	48.72	-7.07	-27.65	-0.2658	-0.0773	-0.3967	
0.6527	-0.025986	0.756278	45.43	-6.3	-26.6	-0.2644	-0.0852	-0.3876	
0.665388	-0.013298	0.749934	43.89	-3.99	-25.83	-0.2634	-0.1064	-0.3913	
0.684176	0.012444	0.759084	43.33	-1.89	-25.76	-0.2574	-0.105	-0.3839	
0.706502	0.054778	0.77531	37.73	0.42	-23.1	-0.2608	-0.1249	-0.3848	
0.716018	0.077714	0.77592	36.26	0.28	-21.28	-0.2622	-0.1236	-0.3789	
0.721752	0.088694	0.783362	32.34	2.66	-20.51	-0.2577	-0.1222	-0.3715	
0.70089	0.107848	0.783118	30.59	5.11	-21.63	-0.255	-0.1342	-0.374	
0.693326	0.113094	0.781532	27.3	7.35	-21.42	-0.2552	-0.1416	-0.3812	
0.678564	0.105408	0.782386	24.85	8.68	-21.28	-0.2523	-0.1496	-0.3676	
0.66612	0.105286	0.785314	23.73	10.99	-20.93	-0.2598	-0.1496	-0.3736	
0.677222	0.09747799	0.785192	22.47	11.06	-19.81	-0.248	-0.1522	-0.3808	
0.671244	0.109434	0.796904	17.36	10.85	-18.69	-0.2437	-0.1647	-0.3685	
0.677222	0.114802	0.801418	16.87	11.06	-17.29	-0.2465	-0.157	-0.3718	
0.665266	0.110654	0.797758	15.4	9.94	-15.61	-0.2345	-0.1538	-0.3673	
0.656604	0.120536	0.797758	16.87	11.06	-16.1	-0.2437	-0.163	-0.3745	
0.656604	0.144936	0.8113	14.42	10.29	-15.12	-0.2304	-0.1737	-0.3637	
0.660264	0.159942	0.822036	12.46	8.26	-13.16	-0.2171	-0.1763	-0.3695	
0.660386	0.142984	0.824842	7.91	6.09	-9.38	-0.2335	-0.1702	-0.3787	
0.646234	0.149694	0.817522	5.67	5.6	-8.89	-0.2321	-0.1781	-0.3695	
0.635376	0.16836	0.808982	3.29	3.85	-8.33	-0.2337	-0.1842	-0.3723	
0.6405	0.170068	0.812642	0.21	1.75	-6.16	-0.2351	-0.1782	-0.3695	
0.65087	0.171898	0.821548	-2.17	0.21	-4.9	-0.2233	-0.1873	-0.3617	
0.643916	0.172508	0.823988	-4.69	-1.19	-3.78	-0.2307	-0.1811	-0.3709	
0.625982	0.16104	0.821426	-7.14	-2.73	-2.24	-0.2277	-0.1827	-0.3678	
0.619028	0.159088	0.827648	-8.68	-3.99	-1.33	-0.2244	-0.1687	-0.3712	
0.625128	0.160186	0.821304	-10.99	-6.3	0.07	-0.229	-0.1752	-0.3636	
0.634156	0.161528	0.820206	-13.23	-7.84	1.54	-0.2321	-0.1765	-0.374	
0.64843	0.157014	0.81069	-16.31	-8.33	4.41	-0.2305	-0.1734	-0.3726	
0.661362	0.158478	0.816546	-18.34	-8.19	5.53	-0.2291	-0.1796	-0.3694	
0.672342	0.152134	0.816546	-21	-9.17	7.28	-0.2351	-0.1764	-0.3785	
0.67954	0.147742	0.808128	-22.82	-8.54	8.75	-0.2334	-0.1705	-0.3712	
0.683444	0.135542	0.800564	-24.99	-8.19	10.36	-0.2364	-0.1689	-0.3758	
0.680882	0.113948	0.792878	-27.23	-7.7	12.32	-0.2394	-0.1689	-0.3773	
0.676002	0.09882	0.784582	-28.14	-7.07	13.79	-0.2407	-0.1613	-0.376	
0.65148	0.076738	0.78019	-29.61	-8.47	16.94	-0.2359	-0.1459	-0.3765	
0.643794	0.058316	0.763354	-31.01	-10.43	17.85	-0.2432	-0.1334	-0.3662	
0.653188	0.034404	0.75274	-31.92	-12.11	19.18	-0.2475	-0.1323	-0.38	
0.665388	0.007686	0.74542	-32.48	-13.09	21.77	-0.2521	-0.1338	-0.3588	
0.659044	-0.001952	0.74054	-31.99	-14.14	22.12	-0.2624	-0.1262	-0.3922	
0.647454	-0.009393999	0.734928	-33.04	-17.15	24.15	-0.2562	-0.1219	-0.4045	
0.64172	-0.017446	0.729682	-33.11	-17.36	25.48	-0.2591	-0.1142	-0.3836	
0.6466	-0.043066	0.722728	-34.09	-19.18	27.09	-0.2607	-0.117	-0.391	
0.663314	-0.064782	0.705526	-33.67	-18.41	28.84	-0.259	-0.1112	-0.4063	
0.680882	-0.064782	0.71248	-31.71	-21.84	27.65	-0.2645	-0.0914	-0.3844	
0.694302	-0.081374	0.70577	-33.46	-22.96	30.1	-0.2659	-0.0852	-0.3861	
0.6954	-0.092476	0.696986	-33.6	-21.56	30.45	-0.2836	-0.078	-0.3864	
0.70577	-0.095892	0.688446	-33.25	-19.53	30.94	-0.2791	-0.0734	-0.3851	
0.722606	-0.105774	0.693204	-34.3	-16.94	31.71	-0.2864	-0.0691	-0.4064	
0.741028	-0.11529	0.697718	-37.45	-14.28	31.99	-0.2892	-0.063	-0.381	
0.728096	-0.142374	0.68991	-40.32	-10.71	32.2	-0.2846	-0.057	-0.3752	
0.699426	-0.162016	0.672708	-40.95	-9.17	32.41	-0.2933	-0.0429	-0.3921	
0.688324	-0.17629	0.662948	-41.93	-7.07	32.62	-0.2932	-0.0417	-0.3817	
0.696986	-0.193004	0.65697	-43.89	-4.41	33.46	-0.2989	-0.0264	-0.3867	
0.696742	-0.219112	0.648186	-45.57	-3.71	33.95	-0.2987	-0.0223	-0.3991	
0.690764	-0.249978	0.648674	-45.64	-1.96	33.74	-0.2985	-0.0113	-0.3813	
0.674416	-0.268156	0.631106	-45.22	-1.26	32.76	-0.2985	-0.0098	-0.3828	
0.652334	-0.296826	0.629642	-45.57	3.85	33.04	-0.3104	-0.0036	-0.392	
0.65331	-0.291336	0.618418	-43.26	1.61	31.08	-0.3085	0.0146	-0.3925	
0.644404	-0.318664	0.614392	-45.22	-1.47	33.81	-0.2949	0.0228	-0.3987	
0.625128	-0.329278	0.603412	-44.38	-0.98	33.32	-0.2949	0.0192	-0.3837	
0.621712	-0.341112	0.596458	-44.52	-2.66	33.6	-0.3035	0.0408	-0.3948	
0.62098	-0.375882	0.59109	-45.43	-5.53	35.77	-0.3018	0.0452	-0.3875	
0.61061	-0.399672	0.572546	-45.71	-8.4	36.89	-0.3031	0.0544	-0.3923	
0.591822	-0.41968	0.54046	-46.62	-8.4	38.99	-0.3044	0.06659999	-0.3927	
0.55876	-0.445178	0.54412	-44.45	-11.13	37.73	-0.301	0.08329999	-0.3873	
0.584502	-0.464698	0.526308	-44.94	-16.59	39.41	-0.2993	0.0894	-0.386	
0.599874	-0.48251	0.525698	-44.45	-15.75	39.62	-0.2961	0.1019	-0.3923	
0.605852	-0.49471	0.50996	-44.73	-16.94	39.9	-0.3063	0.1121	-0.3853	
0.598532	-0.526186	0.498492	-46.2	-18.69	41.58	-0.3032	0.1135	-0.3779	
0.595604	-0.540704	0.490074	-44.52	-17.15	41.02	-0.3031	0.1211	-0.3781	
0.578768	-0.549854	0.474702	-43.75	-16.03	40.25	-0.3028	0.1366	-0.3831	
0.574132	-0.561932	0.46665	-43.4	-16.45	39.76	-0.3067	0.156	-0.3733	
0.58743	-0.581452	0.460672	-43.54	-17.36	40.81	-0.3039	0.1515	-0.3732	
0.580354	-0.596824	0.446276	-42.56	-16.59	41.23	-0.3097	0.1573	-0.3689	
0.570472	-0.604754	0.43493	-42.07	-14	41.02	-0.3077	0.1802	-0.3667	
0.571204	-0.610854	0.419924	-41.79	-13.86	40.53	-0.3047	0.1771	-0.3651	
0.565592	-0.631716	0.412604	-44.1	-14.98	41.51	-0.303	0.1863	-0.3639	
0.562176	-0.636474	0.375882	-44.38	-14.14	41.23	-0.3043	0.1951	-0.3538	
0.540338	-0.653676	0.369416	-44.1	-11.69	39.13	-0.298	0.2073	-0.3512	
0.531676	-0.680394	0.348066	-45.22	-10.64	38.71	-0.2994	0.2152	-0.3589	
0.525576	-0.702232	0.339892	-44.66	-12.18	38.29	-0.2916	0.2241	-0.3457	
0.521306	-0.718092	0.322934	-43.12	-9.45	36.89	-0.2899	0.2347	-0.3416	
0.533018	-0.72041	0.310124	-43.19	-9.59	37.31	-0.2957	0.2422	-0.3419	
0.52887	-0.73749	0.297314	-43.89	-9.45	38.08	-0.2821	0.2502	-0.3435	
0.504836	-0.743712	0.292312	-42.77	-7	37.94	-0.2864	0.2592	-0.3409	
0.471042	-0.752618	0.28914	-42.49	-6.02	37.8	-0.2849	0.2574	-0.3334	
0.445788	-0.765184	0.279014	-42.91	-8.26	38.08	-0.289	0.2694	-0.3279	
0.417362	-0.776408	0.264252	-44.1	-11.48	36.54	-0.2798	0.2834	-0.3297	
0.39711	-0.826062	0.258762	-41.86	-13.09	37.8	-0.2869	0.2952	-0.3228	
0.4026	-0.820206	0.233142	-40.11	-11.13	36.05	-0.2811	0.2924	-0.3271	
0.43005	-0.813984	0.21045	-38.64	-8.89	35	-0.2612	0.3123	-0.3142	
0.448228	-0.806908	0.180316	-40.39	-7.14	35.49	-0.2819	0.3179	-0.3145	
0.468236	-0.808128	0.172264	-42.21	-2.17	35.35	-0.2626	0.3136	-0.3083	
0.459818	-0.824354	0.162138	-45.71	1.61	35.7	-0.2625	0.3148	-0.301	
0.409676	-0.838506	0.12993	-48.44	5.53	35.63	-0.2577	0.3317	-0.2985	
0.370148	-0.847046	0.116632	-50.33	6.16	34.3	-0.2574	0.3439	-0.3004	
0.28304	-0.854	0.073322	-45.22	13.16	32.13	-0.2527	0.3514	-0.2917	
0.286212	-0.861564	0.065514	-47.25	17.43	32.34	-0.2495	0.3619	-0.2846	
0.305488	-0.912316	0.084424	-56.98	12.53	34.65	-0.2467	0.3528	-0.2843	
0.305366	-0.90768	0.055022	-54.74	8.54	35.14	-0.2357	0.3742	-0.2789	
0.28304	-0.915244	0.029646	-54.39	6.23	36.26	-0.2239	0.3731	-0.2833	
0.270352	-0.912682	0.000122	-53.62	7.49	36.33	-0.2219	0.3895	-0.2945	
0.25376	-0.907924	-0.02867	-51.87	10.85	35.77	-0.2159	0.3925	-0.2631	
0.228506	-0.947452	-0.043188	-55.37	7.35	37.59	-0.2129	0.3924	-0.2601	
0.210328	-1.005646	-0.062586	-55.16	4.34	37.45	-0.2081	0.4079	-0.2635	
0.194346	-1.030778	-0.065026	-51.8	1.05	30.52	-0.2021	0.4031	-0.2529	
0.181048	-1.004914	-0.064904	-41.79	5.04	28.56	-0.1957	0.4197	-0.243	
0.17263	-0.971364	-0.083326	-40.81	6.37	29.33	-0.1987	0.4179	-0.237	
0.159454	-0.976244	-0.10614	-43.89	-0.42	33.46	-0.1986	0.4209	-0.2342	
0.149084	-1.017358	-0.117364	-43.82	-6.37	35.07	-0.1834	0.4334	-0.2315	
0.143472	-1.029436	-0.121268	-37.52	-7.56	30.59	-0.1803	0.4362	-0.2241	
0.118706	-0.996374	-0.115412	-30.59	-3.5	23.8	-0.1805	0.4319	-0.2299	
0.138592	-0.98271	-0.108946	-31.29	-5.81	24.64	-0.1758	0.4392	-0.2183	
0.169702	-0.96746	-0.11834	-36.75	-12.53	25.9	-0.171	0.453	-0.2157	
0.20435	-0.968924	-0.12383	-38.57	-13.51	28.28	-0.1709	0.4507	-0.1934	
0.218624	-0.98088	-0.141276	-39.83	-14.84	26.88	-0.1663	0.4588	-0.204	
0.181414	-0.99613	-0.16104	-34.86	-14.21	23.17	-0.1619	0.4509	-0.1918	
0.144326	-0.995398	-0.176778	-29.47	-11.41	17.92	-0.1545	0.4495	-0.1932	
0.087718	-0.94855	-0.188002	-19.18	0	10.85	-0.154	0.4707	-0.188	
0.043676	-0.908046	-0.203252	-20.58	4.97	10.71	-0.1409	0.4557	-0.1844	
0.082716	-0.90951	-0.202642	-31.15	-1.82	16.73	-0.1468	0.4568	-0.1771	
0.123342	-0.930006	-0.20618	-36.82	-8.61	20.44	-0.1555	0.4674	-0.1805	
0.132614	-0.951722	-0.226188	-37.87	-11.27	20.37	-0.1451	0.4611	-0.1683	
0.131028	-0.967338	-0.268034	-35.84	-11.55	19.88	-0.1388	0.4766	-0.1688	
0.078202	-0.983808	-0.256322	-31.57	-5.46	14.28	-0.1433	0.4763	-0.1643	
0.070882	-0.954894	-0.267668	-28.63	-0.84	9.87	-0.1401	0.4805	-0.1496	
0.050996	-0.93513	-0.278648	-29.96	-1.68	10.29	-0.1329	0.4717	-0.1552	
0.068808	-0.938302	-0.283406	-33.95	-6.93	12.88	-0.1356	0.4806	-0.1496	
0.078324	-0.938668	-0.313296	-34.51	-5.25	13.93	-0.146	0.4831	-0.1393	
0.07515199	-0.990518	-0.315736	-33.04	-6.02	14.98	-0.1223	0.4728	-0.1374	
0.029402	-1.015528	-0.30866	-27.93	-3.78	12.88	-0.1237	0.4788	-0.1346	
0.039528	-1.030168	-0.310978	-24.85	-3.22	9.31	-0.128	0.4816	-0.1288	
0.049288	-1.001742	-0.307806	-19.81	-2.03	6.44	-0.125	0.4846	-0.1244	
0.04941	-0.957578	-0.320494	-19.53	0.07	6.79	-0.1248	0.4903	-0.1142	
0.050142	-0.937692	-0.344284	-18.9	-0.7	10.15	-0.125	0.4798	-0.1198	
0.062586	-0.96563	-0.371002	-19.95	-0.77	13.3	-0.1143	0.4889	-0.1096	
0.054534	-0.99003	-0.36966	-16.73	-2.31	11.06	-0.1188	0.4906	-0.1171	
0.030012	-0.99186	-0.36722	-11.48	0.77	7.07	-0.1219	0.4842	-0.111	
0.036966	-0.973316	-0.375638	-7.49	1.96	4.62	-0.1158	0.489	-0.1126	
0.024522	-0.941596	-0.37942	-4.55	4.34	2.31	-0.122	0.4811	-0.1109	
0.02135	-0.914146	-0.37881	-5.46	3.5	2.73	-0.1188	0.4856	-0.1051	
0.033794	-0.913292	-0.379664	-7.91	-0.77	4.9	-0.1143	0.4888	-0.1081	
0.03843	-0.915366	-0.379298	-9.38	-3.85	5.67	-0.1084	0.486	-0.111	
0.034526	-0.95099	-0.373564	-9.03	-0.49	4.34	-0.1172	0.4932	-0.1038	
0.039284	-0.956602	-0.373808	-6.72	0.56	3.22	-0.1066	0.4981	-0.1054	
0.020374	-0.946842	-0.375516	-5.25	-1.68	3.15	-0.1069	0.4857	-0.0991	
0.022204	-0.958066	-0.38125	-5.39	-0.63	4.06	-0.1098	0.4887	-0.1022	
0.02379	-0.95648	-0.38125	-2.66	-1.47	3.01	-0.1081	0.4946	-0.0949	
0.032696	-0.945256	-0.38186	-2.59	-2.17	2.45	-0.1096	0.4979	-0.1025	
0.04453	-0.953796	-0.38491	-3.29	-1.05	2.31	-0.1127	0.4934	-0.1068	
0.046604	-0.963922	-0.388936	-2.24	-0.42	1.68	-0.1068	0.4903	-0.1007	
0.01708	-0.960262	-0.39223	-0.07	0	0.07	-0.1022	0.4932	-0.0933	
0.020008	-0.955626	-0.398208	1.47	0.56	-0.63	-0.1097	0.4915	-0.0919	
0.032086	-0.956724	-0.398818	2.59	1.05	-1.19	-0.1127	0.4884	-0.0948	
0.02013	-0.942938	-0.391376	4.62	1.61	-2.1	-0.1084	0.4891	-0.1111	
0.011834	-0.936472	-0.387838	4.55	1.12	-1.96	-0.1113	0.487	-0.0977	
0.02013	-0.940498	-0.389668	4.76	-0.77	-1.47	-0.1113	0.4886	-0.0992	
0.023668	-0.945378	-0.386008	5.6	-0.91	-2.31	-0.1158	0.4855	-0.0991	
0.027938	-0.94306	-0.386252	6.51	0.49	-3.01	-0.1098	0.4887	-0.1022	
0.02379	-0.94367	-0.380518	6.79	0.14	-3.36	-0.1098	0.4887	-0.1007	
0.030012	-0.95953	-0.375638	6.79	-1.54	-2.66	-0.1099	0.4826	-0.1005	
0.02684	-0.960384	-0.369904	8.54	-1.75	-3.92	-0.1098	0.4902	-0.1007	
0.041236	-0.94184	-0.374418	9.8	-0.56	-5.11	-0.1053	0.4919	-0.1007	
0.04636	-0.946354	-0.368684	9.73	0.28	-4.48	-0.1037	0.4918	-0.09779999	
0.028182	-0.97051	-0.366	9.31	-1.54	-2.87	-0.1144	0.4843	-0.1095	
0.015738	-0.965386	-0.363804	11.48	-2.38	-4.48	-0.1202	0.4902	-0.1082	
0.039162	-0.941962	-0.363926	12.95	-0.77	-6.86	-0.1217	0.4902	-0.1082	
0.052948	-0.948062	-0.360144	11.34	-0.28	-6.09	-0.1129	0.4892	-0.1185	
0.043432	-0.954894	-0.352702	12.39	-1.54	-5.74	-0.1174	0.4842	-0.108	
0.027206	-0.963068	-0.357948	13.3	-2.1	-6.37	-0.1218	0.4905	-0.1186	
0.031964	-0.967704	-0.343674	15.61	-2.59	-8.19	-0.1204	0.4843	-0.114	
0.042822	-0.959774	-0.336964	16.59	-0.84	-9.24	-0.1204	0.4859	-0.1155	
0.057462	-0.948428	-0.32635	17.22	0	-9.66	-0.125	0.4799	-0.1228	
0.066002	-0.948306	-0.318908	17.08	0.7	-9.45	-0.1249	0.4877	-0.126	
0.065026	-0.952942	-0.307684	18.34	2.1	-10.29	-0.1236	0.4804	-0.1376	
0.07442	-0.945256	-0.300608	18.9	2.73	-11.83	-0.1251	0.4817	-0.1302	
0.092354	-0.947086	-0.297436	17.78	2.66	-12.18	-0.1325	0.4831	-0.1303	
0.067222	-0.969778	-0.277916	16.94	6.51	-12.53	-0.1281	0.4818	-0.1362	
0.084302	-0.95587	-0.284992	19.04	6.79	-13.51	-0.134	0.4799	-0.1288	
0.09394	-0.961482	-0.27999	17.71	5.04	-11.34	-0.1385	0.4834	-0.1452	
0.100284	-0.965752	-0.275232	17.85	5.67	-11.97	-0.1402	0.4726	-0.1434	
0.090158	-0.9638	-0.2684	18.48	6.02	-13.02	-0.1342	0.479	-0.148	
0.092232	-0.971364	-0.274256	19.32	8.19	-13.51	-0.1329	0.4699	-0.1477	
0.073566	-0.978196	-0.250832	22.61	9.73	-16.8	-0.1417	0.4726	-0.1434	
0.095282	-0.96014	-0.246074	22.47	8.82	-17.57	-0.151	0.462	-0.1535	
0.106384	-0.954894	-0.236558	22.26	7.14	-16.59	-0.1449	0.4651	-0.1506	
0.120414	-0.964166	-0.22692	21.56	6.86	-15.89	-0.1554	0.4669	-0.1656	
0.122854	-0.963434	-0.214598	22.12	5.11	-15.68	-0.1569	0.4652	-0.1611	
0.138226	-0.955626	-0.202764	22.12	5.88	-16.24	-0.1481	0.4627	-0.1728	
0.156282	-0.951478	-0.194468	21.63	7.84	-15.96	-0.1584	0.4701	-0.1717	
0.156526	-0.961116	-0.181536	21.77	7.84	-15.26	-0.1571	0.4629	-0.1833	
0.155672	-0.96929	-0.171898	22.05	7.14	-15.12	-0.1674	0.4671	-0.1805	
0.155794	-0.969656	-0.167994	22.96	7.21	-15.19	-0.1661	0.4628	-0.1863	
0.1708	-0.956846	-0.16592	23.17	7.63	-15.19	-0.1692	0.4585	-0.1966	
0.189954	-0.958676	-0.157502	22.75	7.35	-14.42	-0.1665	0.4478	-0.1947	
0.188856	-0.975756	-0.149694	21.63	5.74	-12.53	-0.1665	0.4512	-0.2052	
0.173972	-0.994178	-0.145058	24.36	6.37	-13.09	-0.1635	0.4511	-0.1993	
0.151402	-0.98942	-0.13542	26.18	7.21	-14.63	-0.1785	0.4478	-0.2037	
0.164944	-0.961726	-0.126636	28.14	6.79	-15.96	-0.1651	0.4466	-0.2036	
0.204716	-0.93757	-0.115778	26.53	6.16	-15.89	-0.1757	0.4373	-0.2078	
0.231068	-0.908534	-0.1159	25.9	-6.16	-14.77	-0.1771	0.4467	-0.2141	
0.202764	-0.959042	-0.083814	19.18	-4.69	-10.57	-0.1831	0.4402	-0.208	
0.213866	-0.970266	-0.075396	22.89	1.05	-15.26	-0.1864	0.4312	-0.2151	
0.229238	-0.955992	-0.061488	25.13	2.45	-18.34	-0.1745	0.4286	-0.2194	
0.220942	-0.929396	-0.064782	26.25	1.75	-19.11	-0.1938	0.4312	-0.2196	
0.218258	-0.926468	-0.0549	25.69	-0.14	-19.04	-0.188	0.4318	-0.2344	
0.235338	-0.925248	-0.03355	22.33	0.21	-18.69	-0.1927	0.4177	-0.2251	
0.242048	-0.909876	-0.029646	22.4	1.4	-18.41	-0.1957	0.4196	-0.24	
0.22997	-0.910974	-0.026596	20.72	-0.14	-18.83	-0.2002	0.4181	-0.243	
0.251076	-0.923784	-0.006954	19.81	-3.36	-19.39	-0.1972	0.421	-0.2371	
0.26108	-0.928786	-0.002318	19.53	-3.36	-20.51	-0.2031	0.4241	-0.2417	
0.264984	-0.923662	0.002806	20.93	-1.05	-21.28	-0.2063	0.4134	-0.2444	
0.265472	-0.9272	0.007929999	20.09	0.63	-21.63	-0.2034	0.4089	-0.2427	
0.281454	-0.949892	0.027938	18.76	-0.7	-20.37	-0.2123	0.415	-0.2504	
0.280722	-0.943914	0.034038	19.88	-1.26	-20.37	-0.2112	0.3949	-0.2408	
0.283406	-0.936472	0.03965	19.53	-0.14	-20.37	-0.2126	0.3999	-0.2544	
0.28609	-0.914024	0.048434	19.04	1.54	-21.07	-0.2246	0.3996	-0.2544	
0.308294	-0.894748	0.047458	17.08	1.47	-21.07	-0.2172	0.3935	-0.2483	
0.329888	-0.904752	0.05917	14.56	1.33	-20.86	-0.2292	0.3952	-0.2632	
0.341478	-0.904142	0.068564	13.93	2.24	-21.21	-0.2189	0.3908	-0.2615	
0.324032	-0.896578	0.07564	14.56	5.88	-23.94	-0.2266	0.3817	-0.2687	
0.335866	-0.89243	0.087718	15.4	7.77	-25.62	-0.2385	0.378	-0.2553	
0.365512	-0.8906	0.086132	17.92	5.46	-25.69	-0.2342	0.3741	-0.273	
0.407724	-0.902434	0.09162199	18.34	5.32	-24.36	-0.2401	0.3755	-0.2731	
0.437492	-0.891576	0.098332	20.72	3.64	-21.84	-0.237	0.3799	-0.2672	
0.427732	-0.881328	0.096624	22.96	4.27	-19.6	-0.2478	0.3646	-0.2713	
0.416386	-0.89548	0.111996	25.06	6.72	-17.36	-0.2494	0.3617	-0.2786	
0.448228	-0.888038	0.125904	25.83	7.28	-12.88	-0.2495	0.3572	-0.2814	
0.493002	-0.84668	0.138714	21.7	5.39	-9.03	-0.2481	0.3525	-0.2753	
0.483974	-0.84851	0.147864	16.17	4.34	-5.25	-0.2479	0.3634	-0.2831	
0.472872	-0.854122	0.151158	14.84	3.5	-1.89	-0.2449	0.3618	-0.3042	
0.476044	-0.85156	0.147864	14.7	5.11	-0.49	-0.2513	0.3482	-0.2856	
0.480436	-0.852536	0.164334	12.04	7.21	0.63	-0.2588	0.3465	-0.2871	
0.458476	-0.843752	0.1769	12.25	9.87	1.61	-0.2512	0.3497	-0.2857	
0.429562	-0.850828	0.174216	10.5	8.82	3.36	-0.2498	0.3482	-0.2841	
0.439078	-0.865956	0.172508	9.24	7.21	6.3	-0.2453	0.3468	-0.287	
0.456036	-0.855098	0.171532	8.89	6.3	7.42	-0.2466	0.3607	-0.2919	
0.469822	-0.844606	0.179462	5.95	9.94	7.49	-0.244	0.344	-0.2943	
0.447252	-0.845216	0.173362	3.57	9.87	8.12	-0.2319	0.349	-0.2974	
0.429928	-0.86437	0.17751	1.75	7.42	9.1	-0.2334	0.352	-0.2975	
0.435906	-0.882792	0.17751	1.26	7	10.08	-0.2409	0.3504	-0.3005	
0.427854	-0.886086	0.17934	2.24	8.4	10.64	-0.2393	0.3534	-0.2961	
0.40504	-0.88633	0.172996	2.45	8.61	11.76	-0.2392	0.3582	-0.3052	
0.391742	-0.900482	0.177022	2.1	6.3	13.93	-0.2318	0.3553	-0.3035	
0.374052	-0.90158	0.16775	3.85	6.23	15.33	-0.2287	0.3645	-0.3023	
0.38308	-0.90463	0.167262	4.41	6.02	17.22	-0.2243	0.3615	-0.3022	
0.382226	-0.905728	0.162504	4.9	5.46	19.04	-0.2242	0.3631	-0.3037	
0.37149	-0.923662	0.162382	5.95	4.69	20.93	-0.2258	0.3617	-0.3096	
0.36783	-0.927566	0.164578	8.61	6.37	22.33	-0.2167	0.368	-0.3083	
0.354898	-0.930006	0.165432	10.99	6.16	23.59	-0.2095	0.3558	-0.3049	
0.347334	-0.930494	0.166774	13.51	5.95	24.64	-0.2184	0.3604	-0.311	
0.357216	-0.944402	0.172386	15.26	5.04	26.67	-0.2242	0.368	-0.3128	
0.322446	-0.910486	0.160552	20.86	7.7	27.93	-0.2062	0.373	-0.3143	
0.298412	-0.919636	0.170434	22.12	9.31	29.12	-0.2005	0.3612	-0.3213	
0.298534	-0.921222	0.174094	26.74	9.38	28.98	-0.202	0.3646	-0.3333	
0.292556	-0.920124	0.190442	25.62	11.34	30.1	-0.1973	0.3734	-0.3202	
0.300486	-0.909266	0.200202	22.82	11.83	31.57	-0.181	0.3741	-0.3305	
0.306586	-0.90768	0.213622	21.35	10.92	33.53	-0.1854	0.3788	-0.3351	
0.27877	-0.928054	0.206424	22.75	13.44	32.69	-0.1795	0.3744	-0.3379	
0.239242	-0.942572	0.202886	25.41	15.54	32.06	-0.1662	0.375	-0.3482	
0.236192	-0.93086	0.217038	28.35	19.6	31.01	-0.1706	0.3782	-0.3543	
0.234484	-0.889258	0.248514	27.51	23.17	31.22	-0.1692	0.3751	-0.3527	
0.228506	-0.861442	0.258884	24.64	24.78	33.67	-0.1511	0.3847	-0.3544	
0.203252	-0.884012	0.268522	20.79	23.1	35.7	-0.1617	0.3769	-0.3557	
0.163114	-0.917196	0.285358	20.44	21.56	36.19	-0.1454	0.3776	-0.366	
0.152988	-0.927078	0.290848	22.05	22.26	36.61	-0.1379	0.3763	-0.3674	
0.153598	-0.935008	0.299266	22.4	25.27	36.54	-0.1275	0.3799	-0.3763	
0.162504	-0.93879	0.308294	22.4	28.35	36.54	-0.1276	0.3738	-0.3761	
0.095648	-0.92354	0.302316	26.46	31.78	36.26	-0.1276	0.3769	-0.3792	
0.027328	-0.91317	0.319518	27.58	34.65	34.58	-0.1021	0.3851	-0.3793	
-0.004758	-0.905118	0.321104	25.76	30.73	34.93	-0.1039	0.3718	-0.3937	
-0.024888	-0.911584	0.332938	25.97	26.32	34.65	-0.1024	0.3764	-0.3939	
-0.019154	-0.904996	0.345504	28.84	26.46	33.04	-0.0904	0.38	-0.3998	
-0.008174	-0.888404	0.36783	30.24	25.62	31.64	-0.0861	0.3727	-0.407	
-0.01342	-0.869128	0.36783	31.15	26.46	30.52	-0.0757	0.3715	-0.4098	
-0.04758	-0.85522	0.396378	32.83	29.33	27.23	-0.0727	0.3745	-0.4084	
-0.072956	-0.844362	0.399306	31.01	26.88	26.53	-0.0625	0.3625	-0.408	
-0.079422	-0.854244	0.397842	26.95	19.04	26.25	-0.0638	0.3767	-0.4203	
-0.085766	-0.863882	0.410896	25.06	16.24	24.15	-0.0446	0.3664	-0.4213	
-0.090036	-0.85766	0.42517	25.34	14.14	23.45	-0.0625	0.371	-0.432	
-0.11346	-0.85949	0.448594	25.76	13.58	22.61	-0.0509	0.3574	-0.43	
-0.12627	-0.859978	0.462258	24.71	12.95	22.19	-0.0448	0.3622	-0.4316	
-0.11895	-0.85095	0.463234	25.27	13.79	20.3	-0.0463	0.3638	-0.4346	
-0.092476	-0.832284	0.491904	24.5	16.17	19.6	-0.0317	0.3488	-0.434	
-0.105652	-0.826672	0.48617	24.01	18.13	18.9	-0.0345	0.3599	-0.4463	
-0.144204	-0.834358	0.479338	24.22	19.25	17.64	-0.0137	0.3589	-0.4491	
-0.15799	-0.835456	0.487634	25.06	19.67	15.82	-0.0201	0.3389	-0.45	
-0.15372	-0.809104	0.498126	25.27	21.63	14.21	-0.0199	0.3463	-0.4413	
-0.172874	-0.810202	0.50813	23.52	20.23	14.98	-0.0051	0.3454	-0.4516	
-0.196298	-0.821548	0.515084	22.19	16.8	14.7	-0.0022	0.3411	-0.4558	
-0.212768	-0.812276	0.53558	24.15	17.43	10.99	-0.0023	0.3381	-0.4572	
-0.218258	-0.81496	0.527772	21.98	17.64	10.43	0.0018	0.3227	-0.4508	
-0.2074	-0.809104	0.536068	21	14.35	10.36	0.0035	0.332	-0.4555	
-0.214232	-0.800564	0.543998	21.21	13.09	9.87	0.0122	0.3279	-0.4642	
-0.215452	-0.76006	0.54351	19.95	10.85	10.15	0.0079	0.3307	-0.4599	
-0.221674	-0.714432	0.537532	16.8	8.05	10.85	0.0168	0.3293	-0.4553	
-0.203496	-0.729804	0.541558	12.39	5.81	13.93	0.0076	0.3235	-0.4715	
-0.19764	-0.759206	0.559126	11.48	4.41	14.49	0.0119	0.3159	-0.4698	
-0.219844	-0.77592	0.557418	10.15	5.39	12.25	0.0209	0.3144	-0.4652	
-0.22082	-0.750544	0.560102	8.82	7.91	8.19	0.0196	0.3238	-0.4715	
-0.227042	-0.747738	0.568032	6.72	6.37	7.84	0.0134	0.3194	-0.4818	
-0.24644	-0.762622	0.568154	4.69	3.57	7.49	0.0255	0.3238	-0.4685	
-0.24461	-0.768966	0.574376	4.41	2.66	5.53	0.0209	0.3226	-0.4818	
-0.243024	-0.752252	0.573156	2.94	2.52	3.29	0.0225	0.3223	-0.4729	
-0.247904	-0.75152	0.57218	1.33	0.77	2.52	0.024	0.3225	-0.4758	
-0.247172	-0.748348	0.56913	0.56	-0.56	1.33	0.0284	0.321	-0.4758	
-0.244976	-0.7564	0.574742	-1.33	-2.59	0.84	0.0252	0.3101	-0.4695	
-0.250344	-0.762134	0.56913	-1.4	-3.36	-0.21	0.0315	0.3255	-0.4714	
-0.240218	-0.759206	0.570594	-3.15	-4.13	-1.82	0.018	0.3208	-0.4743	
-0.230336	-0.752862	0.56974	-3.57	-4.06	-2.94	0.0241	0.3252	-0.467	
-0.235216	-0.747128	0.571448	-5.74	-5.39	-3.57	0.0255	0.3241	-0.4774	
-0.243146	-0.756278	0.565226	-7	-5.95	-3.85	0.018	0.3221	-0.4699	
-0.248758	-0.75884	0.563274	-8.05	-6.3	-4.69	0.0256	0.3251	-0.4611	
-0.26047	-0.760792	0.552904	-10.01	-7.49	-5.74	0.0226	0.3284	-0.4716	
-0.248758	-0.770796	0.557784	-11.06	-7.77	-6.44	0.0226	0.3269	-0.473	
-0.244	-0.77714	0.54351	-11.41	-9.59	-7.91	0.0196	0.3236	-0.467	
-0.248514	-0.778604	0.549122	-12.53	-11.41	-8.61	0.0137	0.3283	-0.4746	
-0.246318	-0.78812	0.540094	-12.6	-12.6	-9.87	0.0018	0.3292	-0.4643	
-0.213866	-0.776408	0.540826	-12.11	-12.81	-11.55	0.0034	0.3339	-0.466	
-0.192882	-0.769576	0.539118	-13.65	-13.3	-12.74	0.0035	0.3352	-0.4586	
-0.195444	-0.777994	0.535702	-15.05	-14.07	-13.65	0.0049	0.3338	-0.4615	
-0.188978	-0.785558	0.530212	-15.68	-13.86	-15.68	-0.0098	0.335	-0.4616	
-0.172996	-0.793732	0.534116	-16.73	-13.79	-16.8	-0.0007	0.3427	-0.483	
-0.163724	-0.79239	0.518256	-17.71	-14.07	-17.85	-0.0155	0.3453	-0.4531	
-0.152744	-0.79666	0.51484	-19.11	-14.28	-18.48	-0.0128	0.3349	-0.4602	
-0.143106	-0.81008	0.51301	-20.72	-15.12	-19.18	-0.0111	0.344	-0.459	
-0.145912	-0.816546	0.508252	-21.35	-14.49	-20.44	-0.0201	0.3405	-0.45	
-0.12932	-0.822646	0.498004	-21.98	-14.56	-21.49	-0.0185	0.345	-0.4472	
-0.114924	-0.826184	0.487512	-23.17	-15.26	-22.4	-0.0274	0.3463	-0.4473	
-0.10736	-0.822768	0.483974	-22.82	-15.12	-22.89	-0.0271	0.3552	-0.4401	
-0.094306	-0.82655	0.479826	-21.77	-14.42	-24.29	-0.0287	0.3522	-0.4401	
-0.091256	-0.83448	0.471652	-22.68	-15.75	-25.62	-0.0375	0.3582	-0.4433	
-0.067466	-0.842776	0.464454	-24.01	-16.52	-26.95	-0.0479	0.3577	-0.4359	
-0.048068	-0.844484	0.454694	-24.43	-16.38	-28.07	-0.0449	0.3592	-0.433	
-0.041236	-0.856806	0.448106	-24.57	-15.89	-28.91	-0.0569	0.3559	-0.4344	
-0.032696	-0.86376	0.427366	-25.55	-16.31	-30.1	-0.0583	0.3586	-0.4256	
-0.0183	-0.867786	0.425292	-25.62	-18.06	-30.31	-0.0522	0.3617	-0.4212	
0.008052	-0.878278	0.427976	-26.25	-18.76	-30.1	-0.0731	0.3581	-0.4183	
0.021228	-0.87718	0.417606	-25.06	-17.15	-30.45	-0.0788	0.3685	-0.4142	
0.023546	-0.88023	0.39955	-27.09	-14.56	-30.24	-0.0759	0.3622	-0.4081	
0.045262	-0.879986	0.379786	-26.6	-16.17	-30.94	-0.0757	0.3745	-0.4084	
0.06649	-0.88816	0.38369	-27.09	-15.26	-31.29	-0.0938	0.3618	-0.4052	
0.07381	-0.898164	0.365878	-28.28	-15.05	-31.64	-0.0906	0.3694	-0.4024	
0.080398	-0.903288	0.35319	-29.12	-15.05	-32.2	-0.104	0.3689	-0.3981	
0.095404	-0.898164	0.348188	-28.98	-13.86	-33.11	-0.0998	0.3599	-0.3992	
0.105652	-0.89487	0.33916	-28	-11.2	-32.97	-0.1054	0.3765	-0.3983	
0.111752	-0.907314	0.315492	-27.93	-11.9	-33.39	-0.1186	0.3771	-0.3791	
0.122366	-0.909876	0.30683	-27.3	-12.46	-33.95	-0.1277	0.3743	-0.391	
0.147254	-0.907192	0.301462	-26.46	-12.39	-34.44	-0.1274	0.3826	-0.3931	
0.172996	-0.901092	0.290726	-27.44	-14.21	-33.67	-0.135	0.3782	-0.3778	
0.18056	-0.91134	0.281454	-28.07	-13.65	-33.53	-0.1426	0.3685	-0.3657	
0.17751	-0.910242	0.263764	-27.58	-14.49	-34.51	-0.1394	0.3794	-0.369	
0.173484	-0.904996	0.256688	-27.16	-13.09	-36.05	-0.1439	0.3762	-0.3674	
0.183854	-0.906948	0.245464	-28.49	-13.93	-36.54	-0.1529	0.3712	-0.3614	
0.212036	-0.92476	0.251686	-30.59	-14.35	-35.35	-0.1586	0.3817	-0.3603	
0.241926	-0.927688	0.24583	-27.65	-15.19	-35.63	-0.1767	0.3688	-0.3767	
0.248392	-0.919636	0.232532	-25.9	-15.75	-35.77	-0.1767	0.3702	-0.3482	
0.249612	-0.921588	0.216306	-25.13	-17.15	-35.84	-0.1825	0.376	-0.3424	
0.245586	-0.92598	0.207644	-24.29	-18.06	-35.63	-0.1869	0.3757	-0.335	
0.260348	-0.912072	0.20069	-23.31	-16.73	-34.86	-0.1886	0.3666	-0.3377	
0.272792	-0.909754	0.185196	-23.17	-16.38	-34.3	-0.187	0.3727	-0.3379	
0.288774	-0.909632	0.171532	-24.43	-18.41	-32.9	-0.2064	0.369	-0.332	
0.303292	-0.904996	0.155794	-24.99	-19.04	-32.48	-0.2003	0.3719	-0.3231	
0.322934	-0.901946	0.14762	-24.99	-19.81	-33.11	-0.2155	0.3594	-0.3228	
0.328424	-0.891454	0.13847	-23.66	-20.58	-33.39	-0.2094	0.3637	-0.3111	
0.35258	-0.868274	0.12505	-23.38	-20.37	-33.88	-0.2166	0.3758	-0.3145	
0.384056	-0.873032	0.124928	-26.11	-22.19	-33.88	-0.2272	0.3613	-0.2978	
0.382836	-0.879864	0.108824	-26.88	-22.54	-33.74	-0.2303	0.3549	-0.2916	
0.381128	-0.889502	0.096624	-26.53	-25.48	-35.21	-0.251	0.3619	-0.2861	
0.390766	-0.885232	0.079544	-25.48	-26.53	-35.28	-0.2468	0.35	-0.2916	
0.399184	-0.872178	0.073322	-24.22	-26.25	-37.1	-0.2468	0.35	-0.2916	
0.426268	-0.877302	0.076738	-25.48	-27.44	-37.03	-0.2571	0.3507	-0.2724	
0.449326	-0.869982	0.068686	-23.87	-26.95	-36.82	-0.2663	0.3385	-0.2795	
0.470066	-0.84973	0.046726	-22.54	-26.88	-37.24	-0.2661	0.3457	-0.2678	
0.483974	-0.837164	0.027694	-23.17	-26.39	-38.78	-0.2784	0.3302	-0.2674	
0.505934	-0.83143	0.017568	-23.52	-26.25	-39.41	-0.278	0.3435	-0.256	
0.506788	-0.849242	0.004514	-24.36	-25.76	-39.27	-0.278	0.3435	-0.256	
0.525088	-0.844118	-0.007442	-22.89	-25.2	-39.62	-0.2886	0.3307	-0.2452	
0.547536	-0.831918	-0.015372	-21.91	-23.17	-39.97	-0.2931	0.3256	-0.2303	
0.556808	-0.833748	-0.02196	-20.65	-21.84	-41.09	-0.2946	0.3272	-0.2333	
0.550586	-0.810812	-0.034038	-18.27	-20.58	-42.14	-0.3052	0.3177	-0.2316	
0.549488	-0.793854	-0.04209	-16.59	-19.46	-42.56	-0.3051	0.319	-0.2257	
0.568276	-0.800808	-0.047336	-16.59	-21	-42.77	-0.3112	0.3128	-0.227	
0.593042	-0.80703	-0.05063	-15.33	-22.12	-42.7	-0.3202	0.3077	-0.215	
0.586942	-0.804468	-0.056486	-14.07	-21.98	-42.91	-0.3323	0.2999	-0.2193	
0.623664	-0.79483	-0.058316	-14	-21.63	-41.3	-0.3412	0.3026	-0.2135	
0.657092	-0.789828	-0.06527	-13.65	-23.24	-39.55	-0.3355	0.2889	-0.2116	
0.664778	-0.773724	-0.082594	-15.82	-25.06	-37.73	-0.3429	0.2867	-0.1952	
0.639768	-0.774944	-0.088084	-13.44	-25.06	-37.24	-0.3476	0.2792	-0.2024	
0.623542	-0.782874	-0.098942	-13.09	-24.08	-36.26	-0.3491	0.2758	-0.1934	
0.612074	-0.779092	-0.097234	-10.08	-24.15	-36.75	-0.3507	0.2712	-0.1948	
0.628056	-0.75945	-0.106262	-6.23	-22.68	-37.17	-0.3581	0.2707	-0.1844	
0.652578	-0.7259	-0.11285	-3.99	-23.17	-35.98	-0.349	0.2737	-0.177	
0.662216	-0.7015	-0.130784	-3.85	-23.17	-34.93	-0.3642	0.2644	-0.1828	
0.68625	-0.682224	-0.122854	-5.32	-24.92	-32.2	-0.3644	0.2504	-0.1749	
0.704062	-0.686128	-0.133224	-9.03	-28.07	-29.19	-0.3675	0.2391	-0.1597	
0.685518	-0.696376	-0.14213	-7.98	-28.91	-29.89	-0.3824	0.2419	-0.1599	
0.712602	-0.703818	-0.153964	-4.83	-27.23	-30.17	-0.3781	0.2326	-0.1551	
0.760792	-0.685884	-0.151768	-1.19	-26.25	-28.21	-0.3706	0.2328	-0.1551	
0.775066	-0.660996	-0.145546	-0.91	-23.45	-26.32	-0.3917	0.2197	-0.1429	
0.747494	-0.63684	-0.165798	-3.01	-22.68	-24.57	-0.3932	0.2183	-0.1474	
0.72163	-0.631228	-0.194346	-5.32	-23.31	-24.57	-0.3871	0.2242	-0.1371	
0.753472	-0.645502	-0.198982	-4.9	-22.54	-24.15	-0.3916	0.2211	-0.1371	
0.794952	-0.648918	-0.195444	-4.83	-20.86	-22.47	-0.4036	0.2177	-0.1355	
0.800564	-0.63623	-0.212524	-4.62	-18.48	-22.68	-0.392	0.1994	-0.1275	
0.762988	-0.627446	-0.22387	-5.6	-14.91	-23.87	-0.3874	0.2055	-0.1261	
0.738954	-0.63867	-0.239242	-5.53	-15.33	-24.22	-0.4081	0.2158	-0.1266	
0.748958	-0.659532	-0.236192	-2.87	-13.37	-24.5	-0.3993	0.2035	-0.1202	
0.75152	-0.618174	-0.235338	1.61	-10.08	-23.1	-0.3996	0.1929	-0.1214	
0.781044	-0.595238	-0.24888	0.7	-10.71	-21.98	-0.4043	0.1819	-0.1166	
0.76311	-0.592798	-0.235948	-1.96	-12.74	-18.9	-0.3996	0.1863	-0.1063	
0.75579	-0.605852	-0.241438	-1.89	-13.79	-17.5	-0.3967	0.1882	-0.1153	
0.754204	-0.615124	-0.247904	0.35	-11.9	-17.08	-0.4013	0.1804	-0.115	
0.767014	-0.596092	-0.2501	2.94	-11.27	-15.47	-0.4089	0.1758	-0.1179	
0.789584	-0.57584	-0.258518	4.9	-10.99	-14.49	-0.4118	0.1738	-0.106	
0.798246	-0.56974	-0.267912	4.34	-10.36	-12.74	-0.4013	0.1771	-0.106	
0.812764	-0.563396	-0.263642	4.2	-9.24	-11.41	-0.4043	0.1785	-0.1061	
0.81191	-0.552172	-0.273036	2.52	-7.7	-10.85	-0.4103	0.1738	-0.1045	
0.801662	-0.548024	-0.277062	-1.12	-8.12	-9.59	-0.4072	0.1767	-0.0971	
0.78873	-0.576816	-0.284382	-3.43	-9.87	-9.03	-0.4104	0.1723	-0.1059	
0.772748	-0.585722	-0.27694	-1.47	-9.17	-9.03	-0.4121	0.1615	-0.1026	
0.780922	-0.574986	-0.2867	2.87	-6.93	-10.22	-0.4029	0.1691	-0.0969	
0.80093	-0.557906	-0.284992	5.67	-5.67	-10.57	-0.4074	0.169	-0.0969	
0.820938	-0.537166	-0.279746	6.16	-4.34	-10.36	-0.4167	0.1553	-0.1039	
0.82533	-0.53375	-0.271694	3.78	-2.24	-9.59	-0.4181	0.1551	-0.0995	
0.809348	-0.534238	-0.278526	2.8	-0.21	-10.01	-0.4211	0.1566	-0.1011	
0.819718	-0.549	-0.276574	2.17	0.07	-9.1	-0.4196	0.1598	-0.1041	
0.833992	-0.548634	-0.264496	3.22	1.82	-7.63	-0.4181	0.1583	-0.1041	
0.845948	-0.53619	-0.266692	4.69	5.46	-6.51	-0.4241	0.1551	-0.1025	
0.831552	-0.518256	-0.27145	3.71	6.44	-5.6	-0.4079	0.1459	-0.0917	
0.830576	-0.528748	-0.272792	1.89	5.6	-4.62	-0.4169	0.1444	-0.0962	
0.838628	-0.544242	-0.266814	0.91	6.02	-2.8	-0.4094	0.1463	-0.1021	
0.841556	-0.535946	-0.262544	1.89	7.56	-1.19	-0.4093	0.1494	-0.1037	
0.838506	-0.52399	-0.266448	1.54	8.96	-0.42	-0.4137	0.1537	-0.1009	
0.822524	-0.545828	-0.263886	-0.35	9.73	0.42	-0.4153	0.1508	-0.1053	
0.813618	-0.563396	-0.259738	0.84	10.01	1.75	-0.4183	0.1494	-0.1097	
0.807518	-0.56547	-0.24827	3.99	9.87	1.54	-0.4228	0.1476	-0.1067	
0.833626	-0.536068	-0.256444	5.6	10.43	4.9	-0.4152	0.1604	-0.1175	
0.836066	-0.540094	-0.250222	4.06	11.83	6.72	-0.4152	0.1588	-0.1159	
0.843386	-0.536434	-0.24339	4.48	12.67	7.07	-0.4125	0.1466	-0.114	
0.818986	-0.553514	-0.232532	2.66	13.58	8.19	-0.4152	0.159	-0.1219	
0.83082	-0.554734	-0.235094	5.95	14.56	8.82	-0.4093	0.1577	-0.1248	
0.829722	-0.534848	-0.223016	5.6	13.93	10.5	-0.4109	0.1562	-0.1277	
0.819474	-0.538386	-0.231068	4.13	14	11.06	-0.4109	0.1545	-0.1217	
0.80764	-0.567666	-0.220454	2.73	14.21	12.39	-0.4091	0.1653	-0.1235	
0.808128	-0.573766	-0.211792	4.2	15.05	13.86	-0.4093	0.1609	-0.1293	
0.821548	-0.567666	-0.20618	6.02	15.05	14.84	-0.4136	0.1687	-0.137	
0.817766	-0.564982	-0.194102	5.67	14.35	16.59	-0.4154	0.1579	-0.1367	
0.808372	-0.578768	-0.193004	5.32	14.07	18.48	-0.4092	0.1673	-0.1399	
0.81374	-0.579378	-0.18422	5.18	13.09	20.86	-0.3955	0.1816	-0.1477	
0.810446	-0.583648	-0.18422	5.11	13.58	22.75	-0.4031	0.1802	-0.1551	
0.804712	-0.589504	-0.177022	5.39	14.98	24.15	-0.4062	0.1705	-0.1415	
0.797636	-0.588406	-0.174582	5.18	16.31	25.06	-0.3953	0.1939	-0.1481	
0.796416	-0.58865	-0.16958	5.11	17.08	26.18	-0.3999	0.191	-0.1569	
0.799954	-0.603656	-0.160918	2.87	17.15	28.14	-0.4057	0.1969	-0.1557	
0.7869	-0.618662	-0.161772	1.4	16.59	29.68	-0.3938	0.1973	-0.1571	
0.756034	-0.646966	-0.161894	2.31	17.92	30.31	-0.3891	0.2083	-0.1648	
0.73871	-0.649406	-0.158356	3.85	18.06	30.45	-0.3891	0.2099	-0.1678	
0.742614	-0.662704	-0.15128	4.83	19.32	30.1	-0.3859	0.2206	-0.1652	
0.73566	-0.66368	-0.13786	7.63	20.09	29.75	-0.3859	0.2192	-0.1681	
0.737856	-0.665388	-0.126636	8.61	20.37	30.24	-0.38	0.2212	-0.1785	
0.730536	-0.66429	-0.117852	8.96	19.95	31.64	-0.3738	0.2321	-0.1833	
0.729438	-0.678198	-0.110776	9.8	21.28	31.78	-0.3738	0.2305	-0.1803	
0.723948	-0.68686	-0.103212	9.94	21.07	32.27	-0.3738	0.2321	-0.1833	
0.711016	-0.699548	-0.097722	10.5	21.77	32.55	-0.3796	0.2446	-0.1956	
0.684664	-0.706014	-0.092964	12.74	21.91	31.92	-0.3617	0.2435	-0.1955	
0.662094	-0.709186	-0.077714	14.35	22.75	32.34	-0.3571	0.2499	-0.2001	
0.675392	-0.714798	-0.055388	13.93	22.47	33.74	-0.3525	0.261	-0.2093	
0.673806	-0.707844	-0.036112	11.97	20.65	35.84	-0.3615	0.2609	-0.2138	
0.679784	-0.7076	-0.035014	8.33	18.62	37.45	-0.345	0.2628	-0.2123	
0.68381	-0.721508	-0.03355	5.04	17.43	38.36	-0.351	0.2659	-0.2198	
0.638914	-0.778482	-0.040748	2.24	15.89	40.25	-0.3493	0.2735	-0.2171	
0.581818	-0.815692	-0.05246	4.55	16.66	40.11	-0.3358	0.2783	-0.2142	
0.552782	-0.849242	-0.053924	10.15	19.39	38.43	-0.3295	0.2938	-0.2176	
0.554002	-0.855098	-0.026962	17.78	22.54	36.05	-0.3311	0.2908	-0.2205	
0.564006	-0.830942	0.005734	21.98	24.64	36.68	-0.3326	0.2912	-0.2339	
0.550098	-0.793244	0.019032	22.68	24.15	37.24	-0.3236	0.2927	-0.2279	
0.53253	-0.790438	0.020862	19.18	21.84	38.92	-0.322	0.3042	-0.2235	
0.528382	-0.817766	0.02379	17.43	18.06	41.3	-0.3116	0.3027	-0.243	
0.532042	-0.850828	0.04026	17.64	16.87	41.93	-0.304	0.3109	-0.2566	
0.527162	-0.83387	0.05978	21.42	19.39	39.9	-0.295	0.3156	-0.2522	
0.512522	-0.821426	0.055632	22.68	21.49	38.78	-0.298	0.314	-0.2537	
0.479948	-0.840092	0.063196	24.5	19.46	38.78	-0.2904	0.3188	-0.2553	
0.461038	-0.849486	0.069906	26.11	16.87	38.78	-0.286	0.324	-0.2702	
0.441884	-0.85461	0.083082	27.44	16.38	36.26	-0.2888	0.3298	-0.263	
0.440176	-0.854732	0.091866	28.84	18.41	34.37	-0.2769	0.332	-0.2764	
0.452376	-0.86132	0.104066	27.93	17.08	33.25	-0.2751	0.3443	-0.2782	
0.454938	-0.866322	0.127002	27.09	16.8	32.62	-0.262	0.3361	-0.2972	
0.463356	-0.877302	0.14335	25.76	16.03	32.9	-0.2589	0.342	-0.2884	
0.451156	-0.881206	0.163114	26.18	17.01	32.76	-0.2543	0.3482	-0.2901	
0.426024	-0.837774	0.156648	29.4	21.63	30.73	-0.2515	0.3409	-0.2958	
0.39589	-0.835212	0.138714	29.82	27.09	29.75	-0.2411	0.3397	-0.2986	
0.363438	-0.86132	0.130662	25.48	23.17	29.82	-0.2335	0.3527	-0.3198	
0.359534	-0.9211	0.189954	25.76	20.79	31.78	-0.2384	0.3327	-0.3162	
0.320616	-0.899994	0.188978	31.92	23.59	32.41	-0.2322	0.3484	-0.3271	
0.328424	-0.88511	0.202764	28.7	22.19	35.56	-0.2262	0.3485	-0.324	
0.333548	-0.903776	0.220698	23.59	19.6	38.5	-0.2171	0.3533	-0.3241	
0.335256	-0.913048	0.249978	25.27	19.95	39.9	-0.2082	0.3569	-0.3361	
0.320494	-0.894382	0.252296	28.14	23.45	39.2	-0.217	0.3629	-0.3393	
0.304024	-0.87352	0.263032	28.63	26.18	39.97	-0.2009	0.3512	-0.3418	
0.29036	-0.880718	0.27511	27.09	27.16	42.21	-0.1979	0.353	-0.3507	
0.284504	-0.899262	0.289262	25.41	27.16	43.89	-0.1948	0.3608	-0.3524	
0.22448	-0.888038	0.304756	27.86	26.88	42.35	-0.1844	0.3629	-0.3357	
0.193736	-0.88084	0.31415	27.09	28.63	41.3	-0.1739	0.3696	-0.3733	
0.188612	-0.869982	0.316956	25.69	29.75	39.62	-0.1711	0.3622	-0.3775	
0.196176	-0.862906	0.331596	25.2	27.37	40.25	-0.1636	0.3637	-0.3731	
0.183122	-0.871934	0.355752	23.73	27.44	40.39	-0.1561	0.3655	-0.3775	
0.157136	-0.874984	0.36295	26.74	30.87	38.15	-0.1428	0.3613	-0.3788	
0.126758	-0.882548	0.358924	27.3	32.55	38.15	-0.1413	0.3645	-0.3833	
0.107726	-0.866078	0.331718	24.43	28.84	36.89	-0.1369	0.3634	-0.3907	
0.077348	-0.895602	0.382836	19.74	21.21	37.66	-0.1264	0.365	-0.3862	
0.068076	-0.905118	0.386984	20.23	19.74	36.12	-0.1131	0.3627	-0.4009	
0.0793	-0.886574	0.3782	22.05	21.77	32.34	-0.1133	0.3584	-0.4082	
0.072102	-0.871568	0.38918	21.91	21.98	30.03	-0.1044	0.3573	-0.4155	
0.056486	-0.86376	0.397354	21.21	19.25	29.96	-0.1012	0.3632	-0.4083	
0.04575	-0.861076	0.403698	19.67	17.15	28.84	-0.0923	0.3636	-0.4141	
0.043066	-0.870836	0.41236	20.02	16.59	26.67	-0.097	0.3559	-0.4154	
0.036844	-0.886208	0.425414	19.11	16.8	24.71	-0.0807	0.3533	-0.4182	
0.022326	-0.854366	0.42456	23.52	17.36	19.6	-0.0703	0.3556	-0.4345	
0.007808	-0.841312	0.436638	19.04	16.73	17.36	-0.0747	0.3553	-0.4271	
0.009516	-0.837286	0.446642	14.56	15.19	14.77	-0.0687	0.3586	-0.4316	
0.013542	-0.82106	0.449204	11.13	12.18	12.6	-0.0615	0.3481	-0.4312	
0.005978	-0.816546	0.439932	7.35	10.08	13.37	-0.0658	0.3524	-0.4255	
-0.01708	-0.856684	0.419558	5.04	10.36	15.12	-0.0571	0.3451	-0.4296	
-0.039894	-0.9211	0.419802	8.89	14.77	15.26	-0.0585	0.3499	-0.4387	
-0.082106	-0.929884	0.434686	14.77	20.58	12.95	-0.0587	0.3438	-0.4385	
-0.096868	-0.906826	0.427366	19.67	24.85	13.16	-0.0541	0.3501	-0.4402	
-0.100406	-0.902068	0.438102	19.6	21.7	14.35	-0.0496	0.3486	-0.4386	
-0.11468	-0.897554	0.455182	24.78	22.61	14.14	-0.0409	0.343	-0.4473	
-0.129564	-0.88023	0.467748	28	21.56	13.37	-0.039	0.3549	-0.4372	
-0.152988	-0.822036	0.477508	32.69	24.43	12.46	-0.0304	0.3497	-0.4593	
-0.129442	-0.793122	0.497272	30.66	22.68	14.21	-0.0306	0.3375	-0.4604	
-0.094916	-0.771894	0.51789	29.82	19.95	15.4	-0.0216	0.3421	-0.4545	
-0.110898	-0.78141	0.537898	25.97	13.93	14.56	-0.0275	0.3451	-0.4561	
-0.161284	-0.807884	0.533384	25.48	11.41	13.72	-0.0175	0.3239	-0.4554	
-0.164212	-0.800686	0.553026	24.78	11.69	13.3	-0.0144	0.3322	-0.472	
-0.166652	-0.782874	0.550342	23.24	13.86	13.86	-0.0161	0.3246	-0.4762	
-0.15189	-0.798978	0.55693	21.07	13.44	15.54	-0.0147	0.3215	-0.4731	
-0.131882	-0.792512	0.542534	21.28	14.63	15.12	-0.0071	0.3276	-0.4688	
-0.143838	-0.787022	0.542168	20.16	13.44	15.12	-0.0045	0.3095	-0.4712	
-0.179462	-0.779458	0.538508	21.07	13.86	13.58	-0.0028	0.317	-0.4684	
-0.187148	-0.759572	0.551928	22.33	12.11	11.2	0.0073	0.3098	-0.4741	
-0.204106	-0.762012	0.544974	20.37	14.42	10.22	0.0074	0.3128	-0.4727	
-0.208864	-0.756888	0.558028	20.51	13.58	8.54	0.0118	0.3131	-0.4771	
-0.202642	-0.764696	0.5795	20.02	11.69	7.77	0.0041	0.3024	-0.4828	
-0.187026	-0.748348	0.593896	20.3	12.18	5.46	0.0159	0.2982	-0.4855	
-0.17385	-0.735904	0.598288	18.41	12.46	3.5	0.0189	0.3014	-0.4886	
-0.180926	-0.718336	0.595482	16.38	10.43	2.1	0.0174	0.2964	-0.4765	
-0.196664	-0.712114	0.604388	15.19	8.82	0.98	0.0144	0.2983	-0.4885	
-0.18971	-0.734684	0.612562	13.16	8.33	0.63	0.0249	0.3	-0.4885	
-0.192638	-0.73871	0.616466	11.9	7.21	0.07	0.0187	0.2908	-0.4897	
-0.20374	-0.729072	0.622932	11.62	7.49	-0.49	0.0232	0.2908	-0.4882	
-0.206546	-0.724802	0.62464	10.5	7.28	-0.42	0.0247	0.2926	-0.4942	
-0.201422	-0.714676	0.633058	9.87	7.21	-0.7	0.0324	0.3048	-0.4886	
-0.198616	-0.70943	0.62342	8.19	6.02	-1.61	0.0274	0.2837	-0.5013	
-0.226798	-0.707844	0.61915	7.56	3.85	-2.17	0.0274	0.2819	-0.4938	
-0.213378	-0.688934	0.608048	6.79	-8.26	-0.49	0.0216	0.2894	-0.4926	
-0.228994	-0.725534	0.6466	4.76	-5.18	-0.28	0.0335	0.2834	-0.4864	
-0.238876	-0.708088	0.62586	6.37	2.94	-3.92	0.0171	0.2878	-0.4941	
-0.220942	-0.699426	0.641232	5.18	-0.91	-3.57	0.0289	0.2789	-0.4922	
-0.21289	-0.705892	0.64843	1.82	-2.66	-3.01	0.0244	0.2754	-0.4832	
-0.221064	-0.707234	0.646478	0.98	-1.12	-4.97	0.0258	0.2759	-0.4981	
-0.221186	-0.704062	0.642208	0.35	-0.91	-6.02	0.0304	0.2805	-0.4937	
-0.226188	-0.703086	0.643062	-1.33	-2.24	-5.74	0.0125	0.2815	-0.4909	
-0.247294	-0.718336	0.644404	-2.45	-4.13	-5.81	0.02	0.28	-0.4879	
-0.227042	-0.702354	0.642574	-1.75	-4.69	-7.21	0.0229	0.2805	-0.4997	
-0.210328	-0.691618	0.638426	-2.94	-5.95	-7.28	0.0096	0.2827	-0.4821	
-0.217038	-0.702842	0.631838	-4.34	-7.28	-7.56	0.0156	0.2862	-0.4911	
-0.214354	-0.70577	0.641354	-5.32	-7.91	-8.82	0.0173	0.2905	-0.4838	
-0.214476	-0.71309	0.636108	-6.65	-9.24	-9.52	0.0123	0.2723	-0.4906	
-0.191662	-0.723216	0.645868	-8.75	-11.06	-10.01	0.0081	0.2797	-0.485	
-0.171898	-0.714798	0.640622	-9.03	-10.29	-10.08	0.0036	0.2831	-0.4985	
-0.172508	-0.714432	0.648308	-10.78	-10.71	-9.94	0.009699999	0.2876	-0.4926	
-0.17202	-0.715286	0.63196	-10.78	-10.36	-10.36	0.0037	0.2873	-0.4882	
-0.154086	-0.730536	0.632936	-11.41	-11.76	-10.22	0.0023	0.2904	-0.4898	
-0.13664	-0.73383	0.612806	-12.46	-11.41	-10.57	-0.0051	0.2856	-0.4882	
-0.116144	-0.73566	0.61549	-14.21	-10.57	-11.27	0.004	0.2964	-0.4855	
-0.121878	-0.734074	0.606828	-15.68	-11.06	-12.46	-0.0139	0.2897	-0.4795	
-0.142618	-0.749202	0.597068	-17.01	-12.04	-13.51	-0.0035	0.2915	-0.4795	
-0.130906	-0.747128	0.595848	-16.73	-10.71	-15.05	-0.0079	0.2961	-0.4841	
-0.127246	-0.754814	0.588528	-19.25	-12.11	-16.59	-0.0135	0.3062	-0.4711	
-0.137006	-0.763964	0.583526	-20.02	-13.93	-17.85	-0.0108	0.2959	-0.4797	
-0.121634	-0.7625	0.585478	-20.23	-13.44	-18.62	-0.0196	0.3018	-0.4799	
-0.107726	-0.771772	0.575962	-21.56	-14	-18.62	-0.0346	0.295	-0.4694	
-0.097234	-0.774334	0.569374	-22.68	-14.77	-19.32	-0.0374	0.3042	-0.4727	
-0.08845	-0.779458	0.558028	-23.59	-14.7	-20.51	-0.0358	0.3087	-0.4699	
-0.083326	-0.792512	0.552904	-23.94	-15.82	-21.21	-0.0386	0.3112	-0.4551	
-0.077226	-0.801906	0.53924	-24.22	-17.08	-22.05	-0.0342	0.31	-0.4625	
-0.069052	-0.801174	0.531676	-24.5	-17.29	-22.96	-0.052	0.316	-0.4687	
-0.052338	-0.80947	0.530578	-26.04	-19.18	-24.15	-0.0639	0.3155	-0.4629	
-0.044164	-0.81069	0.533506	-26.74	-22.47	-23.66	-0.0489	0.3205	-0.4644	
-0.034526	-0.805688	0.523136	-25.83	-19.11	-24.71	-0.0531	0.3322	-0.4544	
-0.01525	-0.799588	0.513132	-25.55	-17.71	-26.32	-0.0607	0.3227	-0.4468	
0.008417999	-0.811788	0.503494	-27.02	-19.39	-26.74	-0.0577	0.3228	-0.4497	
0.019642	-0.826916	0.493002	-27.23	-19.95	-27.44	-0.0649	0.3333	-0.4486	
0.032818	-0.825208	0.479216	-26.6	-18.69	-28.14	-0.0739	0.3284	-0.4441	
0.042456	-0.851316	0.469944	-27.16	-19.25	-28.98	-0.074	0.3269	-0.4455	
0.05063	-0.85095	0.461526	-26.04	-17.92	-29.89	-0.087	0.3416	-0.4372	
0.06222	-0.844118	0.447496	-26.53	-18.2	-30.03	-0.0961	0.332	-0.4295	
0.089426	-0.843264	0.43737	-27.09	-18.55	-30.52	-0.1035	0.3349	-0.4311	
0.118828	-0.848876	0.435052	-27.79	-19.32	-31.43	-0.1092	0.3451	-0.4211	
0.116144	-0.856196	0.41114	-27.23	-18.48	-32.69	-0.1182	0.342	-0.424	
0.132126	-0.86559	0.404796	-27.79	-20.16	-32.48	-0.1107	0.3419	-0.4151	
0.153598	-0.871568	0.395524	-28.14	-20.16	-31.57	-0.1242	0.3402	-0.421	
0.1769	-0.872178	0.386496	-27.72	-19.25	-30.73	-0.1255	0.3426	-0.4018	
0.19032	-0.867542	0.37942	-27.93	-18.97	-30.1	-0.1287	0.34	-0.4181	
0.195566	-0.859856	0.351482	-28.7	-16.31	-30.52	-0.1343	0.3502	-0.4051	
0.187636	-0.882182	0.345382	-28.14	-16.73	-32.41	-0.1447	0.3482	-0.3992	
0.18056	-0.8784	0.334646	-27.3	-14.63	-35.21	-0.1389	0.3437	-0.3975	
0.182024	-0.865956	0.320494	-27.02	-15.61	-37.1	-0.152	0.3541	-0.3979	
0.211426	-0.86925	0.315858	-29.4	-20.37	-36.26	-0.1551	0.3477	-0.3918	
0.260104	-0.884866	0.328424	-30.87	-21.77	-33.11	-0.1653	0.3548	-0.3832	
0.260226	-0.891332	0.307684	-30.1	-22.54	-30.8	-0.1789	0.3468	-0.3786	
0.270718	-0.886696	0.283284	-29.26	-25.06	-28.21	-0.1864	0.3416	-0.3651	
0.28609	-0.890478	0.276452	-30.31	-24.78	-26.32	-0.1863	0.3445	-0.3607	
0.30317	-0.877302	0.262178	-29.33	-22.47	-27.23	-0.192	0.3516	-0.3491	
0.32513	-0.871324	0.249856	-30.38	-22.75	-27.02	-0.189	0.3535	-0.3581	
0.329156	-0.869372	0.234606	-30.38	-23.73	-27.51	-0.1996	0.3455	-0.3549	
0.344894	-0.87962	0.217892	-31.08	-25.06	-27.16	-0.2099	0.353	-0.3582	
0.363194	-0.88694	0.216428	-30.94	-24.36	-26.39	-0.2114	0.3494	-0.3418	
0.382104	-0.881572	0.209596	-30.24	-23.8	-25.55	-0.2114	0.3478	-0.3402	
0.385398	-0.870592	0.180926	-29.19	-21.7	-25.97	-0.2293	0.3442	-0.3358	
0.39223	-0.87657	0.159332	-30.38	-22.96	-26.74	-0.2234	0.3427	-0.3313	
0.39833	-0.876326	0.158112	-30.1	-21.77	-28.28	-0.2365	0.3495	-0.3167	
0.40626	-0.872422	0.137616	-28.91	-18.69	-28.98	-0.2337	0.3419	-0.315	
0.408456	-0.889136	0.130662	-28.49	-22.54	-29.05	-0.2412	0.3418	-0.318	
0.424194	-0.884134	0.119926	-26.46	-24.15	-28.28	-0.2381	0.3399	-0.3031	
0.44042	-0.872178	0.11712	-26.11	-20.37	-27.86	-0.2425	0.346	-0.3078	
0.451278	-0.870226	0.106384	-26.74	-20.23	-26.95	-0.25	0.3424	-0.2943	
0.452132	-0.877058	0.105652	-27.16	-19.88	-25.34	-0.2556	0.3561	-0.2978	
0.458354	-0.876814	0.092354	-25.69	-20.79	-24.57	-0.2661	0.3476	-0.2783	
0.458354	-0.876692	0.07808	-23.66	-21.07	-25.34	-0.2631	0.3494	-0.2843	
0.482022	-0.86193	0.062708	-22.68	-21	-25.83	-0.2783	0.3367	-0.2795	
0.488	-0.856074	0.055388	-21.98	-21	-27.02	-0.2723	0.3367	-0.275	
0.50752	-0.83692	0.042578	-22.12	-19.88	-27.86	-0.2738	0.3348	-0.2661	
0.534604	-0.827038	0.030744	-22.82	-19.25	-28.91	-0.283	0.3208	-0.2657	
0.5307	-0.815936	0.02318	-23.03	-18.2	-30.8	-0.2873	0.3297	-0.26	
0.514474	-0.812398	0.015006	-23.8	-19.11	-31.29	-0.284	0.3388	-0.2559	
0.510204	-0.826916	0.004636	-24.43	-20.93	-32.06	-0.2887	0.3328	-0.2616	
0.523746	-0.833504	-0.008296	-23.8	-21.28	-32.97	-0.2977	0.326	-0.2466	
0.52216	-0.829722	-0.020496	-22.47	-23.1	-33.81	-0.2977	0.3229	-0.2465	
0.522648	-0.821792	-0.017812	-20.65	-24.22	-33.53	-0.3052	0.321	-0.2376	
0.544242	-0.834114	-0.035502	-19.32	-23.8	-31.78	-0.3173	0.3115	-0.2374	
0.581696	-0.819596	-0.049654	-14.35	-23.03	-30.17	-0.3158	0.3097	-0.2284	
0.594262	-0.822158	-0.070028	-13.09	-21.21	-30.59	-0.3247	0.311	-0.2256	
0.61122	-0.817034	-0.081374	-9.66	-19.46	-31.43	-0.3233	0.3063	-0.2224	
0.61366	-0.80093	-0.08295999	-8.82	-18.2	-32.2	-0.3323	0.2964	-0.2073	
0.612928	-0.781776	-0.078568	-8.47	-14.98	-31.43	-0.3325	0.2921	-0.2146	
0.59719	-0.77165	-0.083692	-8.19	-15.12	-30.38	-0.3326	0.2827	-0.2084	
0.590114	-0.7686	-0.090524	-7.91	-16.8	-29.05	-0.3355	0.2854	-0.1996	
0.578158	-0.756034	-0.122976	-8.05	-16.94	-28.07	-0.3492	0.2763	-0.2083	
0.566568	-0.757742	-0.120902	-12.25	-16.66	-28.77	-0.3461	0.276	-0.1994	
0.591944	-0.782752	-0.108336	-14.21	-19.11	-26.95	-0.3505	0.2772	-0.192	
0.619394	-0.783606	-0.101382	-13.79	-21.63	-25.76	-0.3431	0.2742	-0.1874	
0.608902	-0.74908	-0.118462	-7.98	-24.43	-23.66	-0.3639	0.2769	-0.1906	
0.601704	-0.741272	-0.131028	-6.09	-29.26	-23.66	-0.3628	0.2616	-0.1886	
0.623298	-0.770552	-0.155672	-3.57	-29.82	-20.72	-0.3627	0.2612	-0.1767	
0.701744	-0.772504	-0.15616	0.28	-30.45	-19.53	-0.3656	0.2625	-0.1738	
0.758474	-0.684176	-0.155794	4.55	-23.66	-20.37	-0.3628	0.2564	-0.1721	
0.757498	-0.655872	-0.169458	0.42	-22.68	-18.13	-0.3763	0.2514	-0.1676	
0.773114	-0.66551	-0.16348	-1.89	-20.02	-17.43	-0.3643	0.2531	-0.1631	
0.770918	-0.666242	-0.174826	-1.12	-18.55	-19.81	-0.3748	0.2481	-0.1586	
0.74237	-0.658556	-0.183976	-0.49	-15.26	-22.47	-0.3674	0.2469	-0.1644	
0.741272	-0.657946	-0.193248	0.56	-15.82	-23.73	-0.3823	0.2417	-0.1555	
0.74664	-0.66307	-0.20496	-0.35	-17.29	-23.24	-0.3793	0.2446	-0.1481	
0.711016	-0.674904	-0.193614	2.94	-13.3	-25.69	-0.3781	0.2293	-0.1476	
0.742248	-0.667218	-0.181536	6.16	-9.66	-26.04	-0.3811	0.2294	-0.1506	
0.76921	-0.645868	-0.188978	4.97	-12.32	-23.8	-0.3856	0.2295	-0.1581	
0.745176	-0.608658	-0.193248	4.97	-11.13	-24.78	-0.3857	0.2232	-0.1504	
0.684786	-0.614758	-0.20923	6.16	-7	-25.55	-0.3857	0.2182	-0.1399	
0.732366	-0.624762	-0.197152	2.24	-11.69	-25.27	-0.3844	0.2138	-0.1442	
0.752984	-0.636474	-0.192516	2.31	-14	-23.03	-0.3963	0.2135	-0.1428	
0.76799	-0.625738	-0.19581	5.46	-11.97	-23.31	-0.3889	0.2122	-0.1427	
0.764574	-0.624152	-0.204838	5.46	-10.01	-23.87	-0.3964	0.2074	-0.1426	
0.768722	-0.623664	-0.199836	6.72	-6.16	-24.99	-0.4054	0.2056	-0.1411	
0.772626	-0.607926	-0.194224	6.16	-4.41	-24.36	-0.3893	0.1908	-0.1435	
0.782996	-0.589016	-0.19276	6.44	-5.11	-22.54	-0.398	0.1995	-0.1364	
0.815692	-0.602558	-0.18239	3.92	-5.04	-22.89	-0.4044	0.1825	-0.1329	
0.818742	-0.612806	-0.183244	3.78	-4.27	-23.24	-0.412	0.1746	-0.1312	
0.798612	-0.611586	-0.204594	2.45	-3.78	-23.59	-0.4121	0.1734	-0.1401	
0.780312	-0.610976	-0.206668	2.73	-2.8	-21.98	-0.4133	0.182	-0.1256	
0.794586	-0.594506	-0.203862	2.8	-0.77	-20.16	-0.4015	0.1732	-0.1267	
0.780922	-0.555344	-0.208376	4.69	1.75	-21.91	-0.4002	0.1655	-0.1249	
0.776286	-0.574254	-0.22021	3.92	2.73	-21.07	-0.4092	0.1639	-0.1279	
0.78385	-0.585234	-0.198738	3.57	0.21	-18.62	-0.4151	0.1669	-0.131	
0.789096	-0.59353	-0.196054	5.11	-1.75	-17.01	-0.4107	0.164	-0.1324	
0.83021	-0.580598	-0.18422	8.19	-1.68	-13.37	-0.4049	0.1548	-0.1261	
0.83326	-0.547292	-0.183244	7.63	-3.36	-10.5	-0.4122	0.1624	-0.1309	
0.857172	-0.529846	-0.188856	7.14	-0.77	-10.5	-0.4154	0.153	-0.1502	
0.836798	-0.533872	-0.184464	4.41	-3.78	-9.31	-0.4051	0.1488	-0.1289	
0.83265	-0.539972	-0.183122	4.13	-2.94	-9.17	-0.4185	0.147	-0.1319	
0.845216	-0.535824	-0.18178	6.09	0.56	-9.94	-0.4111	0.1454	-0.1244	
0.841068	-0.521794	-0.183122	5.32	1.26	-8.05	-0.4127	0.1378	-0.1256	
0.834724	-0.52765	-0.19215	3.01	0.98	-5.81	-0.4216	0.1441	-0.1107	
0.843508	-0.548878	-0.191296	2.03	2.94	-4.55	-0.4139	0.1532	-0.1321	
0.845338	-0.550098	-0.1708	2.03	3.43	-3.08	-0.4141	0.1471	-0.1319	
0.851072	-0.538386	-0.180438	4.2	3.08	-3.22	-0.4154	0.1512	-0.1186	
0.85827	-0.535092	-0.182756	4.27	4.76	-0.84	-0.4171	0.1455	-0.1318	
0.846314	-0.521672	-0.17751	4.06	6.3	0.7	-0.4157	0.1411	-0.1347	
0.847778	-0.52216	-0.177998	3.71	7.28	1.4	-0.4157	0.1426	-0.1347	
0.85095	-0.53619	-0.172996	2.03	6.3	2.45	-0.411	0.1502	-0.1305	
0.842044	-0.537898	-0.162382	1.89	6.3	3.85	-0.4126	0.1476	-0.1437	
0.844484	-0.542534	-0.16409	2.66	8.12	4.55	-0.4171	0.1472	-0.1363	
0.84058	-0.545218	-0.155428	2.17	9.31	7.07	-0.4067	0.1476	-0.1422	
0.83082	-0.550586	-0.141642	1.12	9.94	9.52	-0.4201	0.1489	-0.1438	
0.82716	-0.554978	-0.149572	-0.28	9.1	13.3	-0.4036	0.1555	-0.1469	
0.834602	-0.54534	-0.150914	-0.91	9.17	15.33	-0.4081	0.1524	-0.1483	
0.838994	-0.548634	-0.149328	-1.75	8.82	16.66	-0.4125	0.1521	-0.1424	
0.84546	-0.565226	-0.159332	-2.52	8.61	16.59	-0.4183	0.1595	-0.1397	
0.843386	-0.577304	-0.159942	-0.84	9.17	16.73	-0.4126	0.1556	-0.1559	
0.826184	-0.571814	-0.162382	0.42	9.66	17.22	-0.4091	0.1738	-0.149	
0.812764	-0.569252	-0.166408	0.63	10.29	18.55	-0.4108	0.1663	-0.1547	
0.80764	-0.576084	-0.164212	0.77	10.43	19.67	-0.3974	0.1651	-0.1561	
0.82838	-0.594994	-0.156404	0.98	9.87	20.93	-0.4003	0.1711	-0.1563	
0.826794	-0.597068	-0.14823	2.17	9.45	20.72	-0.4092	0.1756	-0.1595	
0.800686	-0.59353	-0.139568	3.36	12.88	19.74	-0.3973	0.176	-0.1638	
0.800808	-0.601094	-0.143228	6.44	15.68	19.74	-0.397	0.1882	-0.1628	
0.82045	-0.611342	-0.120902	6.93	15.4	21.21	-0.3957	0.1776	-0.1639	
0.80581	-0.595726	-0.103456	7.7	15.26	21.28	-0.4076	0.1821	-0.17	
0.793732	-0.591456	-0.094184	8.68	20.02	22.4	-0.3894	0.1946	-0.1674	
0.798612	-0.618052	-0.08784	6.16	21.56	27.09	-0.394	0.1935	-0.1822	
0.796294	-0.623786	-0.077714	5.39	21.14	28.28	-0.3925	0.1936	-0.1852	
0.781288	-0.608536	-0.075518	5.25	21	28.35	-0.3894	0.1998	-0.1838	
0.764086	-0.603656	-0.081862	4.41	19.39	28.07	-0.3909	0.2014	-0.1884	
0.75579	-0.620492	-0.08906	3.5	16.45	28.14	-0.3786	0.2183	-0.1844	
0.732244	-0.635742	-0.086742	2.24	14.49	28.63	-0.3847	0.2089	-0.1811	
0.720532	-0.648308	-0.08479	2.52	11.76	28.21	-0.3803	0.2125	-0.1931	
0.706136	-0.670512	-0.078568	1.4	9.38	29.26	-0.3769	0.2292	-0.1877	
0.706258	-0.682956	-0.075396	2.66	7.28	29.33	-0.3667	0.2205	-0.1962	
0.701622	-0.682956	-0.072346	3.43	7	28.98	-0.3783	0.2357	-0.2027	
0.703086	-0.696376	-0.069418	3.71	7.28	29.54	-0.365	0.2248	-0.186	
0.696986	-0.695278	-0.057218	5.39	7.84	29.12	-0.3648	0.2438	-0.1818	
0.698694	-0.701866	-0.05795	6.09	7.28	29.26	-0.3619	0.2392	-0.2042	
0.693936	-0.712236	-0.052582	6.16	8.05	29.68	-0.3633	0.2454	-0.2074	
0.683566	-0.714798	-0.045018	6.23	8.33	29.33	-0.3587	0.2485	-0.206	
0.67527	-0.72102	-0.03965	5.25	10.57	29.75	-0.3632	0.2534	-0.2195	
0.667096	-0.730048	-0.033428	4.62	9.52	30.31	-0.3587	0.2501	-0.2075	
0.653432	-0.75274	-0.028426	4.06	8.33	31.71	-0.3554	0.2657	-0.2169	
0.646234	-0.764208	-0.021594	3.29	8.82	32.27	-0.3508	0.2719	-0.2156	
0.627324	-0.768478	-0.020374	3.92	9.38	31.78	-0.3373	0.2784	-0.2187	
0.611342	-0.78324	-0.020008	3.85	9.52	32.27	-0.3345	0.2713	-0.2333	
0.59536	-0.782874	-0.029768	5.95	7.42	32.27	-0.3415	0.2941	-0.234	
0.588894	-0.799832	-0.029036	5.95	7.77	32.97	-0.3386	0.2894	-0.2294	
0.581696	-0.8052	-0.017812	8.19	10.57	32.2	-0.3339	0.3003	-0.2327	
0.570594	-0.809348	-0.008174	9.87	12.46	31.43	-0.3265	0.2973	-0.2296	
0.573278	-0.81923	0.007686	10.43	12.81	31.78	-0.3192	0.293	-0.2324	
0.567056	-0.819474	0.007686	11.41	12.18	32.83	-0.3176	0.2978	-0.237	
0.559858	-0.818864	0.013176	11.69	12.67	33.81	-0.3189	0.3101	-0.2433	
0.549122	-0.81801	0.016226	11.27	14.35	33.39	-0.3169	0.3283	-0.2365	
0.53802	-0.825208	0.028914	11.48	13.86	33.53	-0.3067	0.3211	-0.2421	
0.516792	-0.82838	0.040626	11.9	13.09	33.32	-0.3055	0.3091	-0.2491	
0.50569	-0.828746	0.043798	12.11	13.3	33.25	-0.2975	0.3321	-0.2468	
0.473116	-0.841068	0.055022	11.69	13.37	32.62	-0.2917	0.3261	-0.2466	
0.459574	-0.847168	0.062708	11.69	12.81	32.55	-0.2886	0.3341	-0.2543	
0.465918	-0.849364	0.062952	11.27	13.72	33.25	-0.2857	0.3295	-0.2526	
0.45628	-0.859734	0.06771	11.06	14.42	32.76	-0.2736	0.3392	-0.2603	
0.448228	-0.870226	0.071614	11.34	13.65	32.62	-0.2797	0.3345	-0.2601	
0.420778	-0.873886	0.072468	13.16	12.32	31.78	-0.2765	0.347	-0.2679	
0.407236	-0.873154	0.078324	14.49	13.51	30.73	-0.265	0.3306	-0.2718	
0.403454	-0.878644	0.082716	14.77	13.86	30.59	-0.2676	0.3441	-0.2663	
0.399794	-0.886086	0.09552599	15.19	13.09	31.08	-0.2599	0.3551	-0.2696	
0.397232	-0.88389	0.1098	16.24	13.23	31.36	-0.2614	0.3551	-0.2711	
0.389912	-0.87657	0.108458	16.31	14.07	31.78	-0.2585	0.3587	-0.286	
0.38918	-0.885842	0.113582	15.61	14.35	32.2	-0.2509	0.3601	-0.2756	
0.394182	-0.891454	0.124806	15.82	14.7	32.55	-0.2348	0.3515	-0.2841	
0.38613	-0.893406	0.124684	16.31	15.68	32.83	-0.2377	0.3546	-0.2872	
0.358314	-0.887062	0.129076	16.52	17.08	32.62	-0.2272	0.3611	-0.2903	
0.312564	-0.917928	0.135664	14.7	15.89	32.97	-0.2298	0.3764	-0.2953	
0.284138	-0.92842	0.147132	15.33	14.14	33.04	-0.221	0.3741	-0.31	
0.271694	-0.92232	0.14762	16.24	14.07	32.41	-0.2135	0.3786	-0.3041	
0.265716	-0.924272	0.150792	16.52	13.72	31.29	-0.2195	0.3755	-0.3056	
0.263032	-0.928298	0.149328	18.69	14.07	30.8	-0.2107	0.3711	-0.3069	
0.252174	-0.93025	0.15677	19.18	14.49	29.96	-0.2062	0.3745	-0.3129	
0.246196	-0.939522	0.176656	21.98	15.26	29.89	-0.1946	0.3646	-0.3273	
0.222528	-0.935984	0.186782	23.1	15.12	29.61	-0.1927	0.3815	-0.3308	
0.19886	-0.929152	0.173484	23.73	15.19	29.12	-0.1867	0.3846	-0.3294	
0.2135	-0.950014	0.199958	24.01	14.63	30.52	-0.1822	0.3864	-0.3324	
0.241926	-0.954284	0.230336	26.18	15.47	32.06	-0.1675	0.3775	-0.3305	
0.230336	-0.923174	0.23424	29.4	16.59	32.55	-0.1837	0.3866	-0.3398	
0.210206	-0.913536	0.25925	27.51	16.8	32.9	-0.1717	0.3931	-0.3429	
0.170434	-0.922076	0.26047	26.67	16.03	34.02	-0.1586	0.3783	-0.3498	
0.154086	-0.927566	0.265838	26.95	13.79	33.74	-0.1527	0.3771	-0.3556	
0.150182	-0.927444	0.269742	26.04	14.98	31.57	-0.1539	0.3857	-0.3381	
0.147864	-0.906948	0.28609	27.93	15.61	29.68	-0.148	0.3879	-0.3545	
0.135542	-0.905362	0.289872	26.04	14.84	29.33	-0.1465	0.3928	-0.3635	
0.113826	-0.907924	0.290604	25.2	13.51	28.21	-0.1409	0.3793	-0.369	
0.092354	-0.9211	0.305976	25.34	11.55	27.09	-0.1274	0.3779	-0.3629	
0.072346	-0.927688	0.317932	27.09	11.76	24.78	-0.1259	0.3794	-0.3615	
0.067954	-0.9272	0.318786	30.66	11.83	23.45	-0.1231	0.3786	-0.3792	
0.066612	-0.938302	0.32635	31.71	12.46	24.15	-0.1305	0.3802	-0.3867	
0.069418	-0.948062	0.36661	31.5	12.25	25.06	-0.1173	0.373	-0.3909	
0.060146	-0.925614	0.36417	32.76	12.18	23.31	-0.1142	0.3742	-0.3805	
0.052582	-0.912926	0.366488	34.37	14	21.91	-0.1159	0.3683	-0.3863	
0.049654	-0.885964	0.369294	34.16	16.1	20.37	-0.1068	0.3747	-0.3909	
0.051362	-0.853024	0.389912	34.86	18.48	20.51	-0.104	0.3738	-0.4056	
0.042578	-0.836066	0.421144	33.04	18.76	21.63	-0.0936	0.3676	-0.398	
0.034282	-0.85217	0.443226	31.08	17.57	24.01	-0.091	0.3575	-0.4125	
0.001098	-0.870592	0.452864	30.59	18.34	24.43	-0.085	0.3576	-0.4109	
-0.00122	-0.874252	0.451644	31.22	20.58	23.45	-0.0849	0.3624	-0.4185	
0.016104	-0.855708	0.46604	33.74	25.34	20.3	-0.0761	0.3582	-0.4243	
0.0061	-0.84424	0.47336	32.27	24.64	22.4	-0.0642	0.3584	-0.4227	
-0.051606	-0.812764	0.47397	32.2	26.04	21.07	-0.0571	0.3433	-0.4236	
-0.092964	-0.792512	0.482754	34.3	27.02	17.5	-0.0558	0.3409	-0.4414	
-0.095404	-0.825696	0.478972	26.95	26.81	17.64	-0.0453	0.3442	-0.4429	
-0.080642	-0.831918	0.48678	26.74	22.47	15.68	-0.0423	0.3476	-0.4504	
-0.074786	-0.83387	0.49349	24.92	18.55	14.42	-0.0483	0.3442	-0.4444	
-0.090646	-0.847412	0.496906	24.15	16.59	13.65	-0.0483	0.3429	-0.4518	
-0.116144	-0.832284	0.507032	25.76	16.73	11.2	-0.0457	0.3293	-0.4513	
-0.14884	-0.823134	0.501908	26.04	16.24	9.17	-0.0245	0.342	-0.4531	
-0.142252	-0.796782	0.515694	27.79	18.34	7.56	-0.0368	0.3251	-0.4571	
-0.129442	-0.777262	0.526674	28.42	19.46	7.07	-0.0369	0.322	-0.457	
-0.11651	-0.784216	0.543876	27.02	14.42	7.91	-0.0265	0.3223	-0.4599	
-0.128954	-0.792756	0.537532	23.94	11.34	10.15	-0.0205	0.3242	-0.4673	
-0.1342	-0.779092	0.553758	24.5	14.77	7.7	-0.0251	0.3211	-0.4687	
-0.114924	-0.749934	0.581208	23.1	17.71	6.79	-0.0116	0.323	-0.4702	
-0.089548	-0.76189	0.589382	18.55	16.24	9.38	-0.0135	0.311	-0.4772	
-0.1098	-0.766404	0.592432	18.2	16.8	8.05	-0.0073	0.3171	-0.4744	
-0.132004	-0.76006	0.596824	16.73	18.62	6.86	-0.0002	0.302	-0.4739	
-0.156038	-0.749812	0.58682	16.52	19.81	6.16	-0.0001	0.308	-0.4696	
-0.180438	-0.73505	0.587796	15.89	18.69	5.32	-0.0001	0.3082	-0.477	
-0.187148	-0.73078	0.591944	14.21	17.85	5.74	0.0009999999	0.296	-0.4766	
-0.177876	-0.734684	0.60268	14.77	18.13	4.55	-0.0033	0.3006	-0.4798	
-0.1952	-0.73749	0.604144	13.86	15.68	4.13	0.0011	0.3006	-0.4768	
-0.227408	-0.753838	0.600118	13.3	12.74	4.62	-0.0032	0.3022	-0.4813	
-0.226432	-0.76311	0.606828	14.84	12.39	2.94	0.0173	0.2903	-0.4763	
-0.229848	-0.756766	0.609146	15.89	11.97	1.26	0.0188	0.2952	-0.4839	
-0.244976	-0.744444	0.601094	17.92	10.01	0.77	0.0201	0.2861	-0.4866	
-0.240828	-0.742004	0.613904	18.76	9.31	1.33	0.013	0.298	-0.4826	
-0.228628	-0.72224	0.621346	18.9	7.98	1.82	0.0171	0.286	-0.4851	
-0.229848	-0.7137	0.622444	18.41	6.79	2.31	0.0201	0.2881	-0.5015	
-0.215452	-0.697108	0.63806	16.73	4.69	1.05	0.0152	0.2679	-0.492	
-0.218136	-0.6832	0.638792	15.47	3.29	0.28	0.0228	0.276	-0.5011	
-0.217648	-0.676734	0.644526	13.93	1.75	0.28	0.0242	0.2696	-0.4934	
-0.22631	-0.671	0.6588	12.18	0.49	0.56	0.0213	0.2773	-0.4967	
-0.228628	-0.664656	0.670878	10.57	0.77	1.12	0.0212	0.2713	-0.4995	
-0.216794	-0.671122	0.680516	8.68	0.91	0.77	0.0197	0.2698	-0.5024	
-0.203252	-0.66002	0.671732	6.02	0.21	0.14	0.0137	0.2664	-0.4964	
-0.208132	-0.669414	0.668316	2.8	-0.35	-0.35	0.0167	0.2679	-0.492	
-0.21838	-0.686616	0.671122	0.77	-1.05	-1.68	0.027	0.2655	-0.5052	
-0.227774	-0.692472	0.670268	0.56	-1.54	-2.59	0.0151	0.2651	-0.4993	
-0.223748	-0.69052	0.667096	0.63	0.14	-3.78	0.015	0.262	-0.4992	
-0.22265	-0.686982	0.669048	-0.21	1.26	-4.27	0.0274	0.2804	-0.4938	
-0.207522	-0.684176	0.665998	-2.17	-1.33	-3.71	0.0196	0.2667	-0.4993	
-0.222894	-0.690276	0.665876	-2.59	-1.4	-4.69	0.0213	0.279	-0.5027	
-0.239242	-0.685152	0.652334	-1.96	-1.4	-7.7	0.0151	0.2682	-0.5024	
-0.22875	-0.68442	0.653798	-3.01	-3.85	-8.82	0.0124	0.2773	-0.5012	
-0.220942	-0.680272	0.655628	-4.9	-6.86	-10.43	0.0109	0.2756	-0.4967	
-0.224846	-0.685152	0.661484	-6.37	-8.05	-11.83	0.0079	0.2756	-0.4997	
-0.217038	-0.684298	0.652456	-7.14	-8.54	-13.93	0.007999999	0.2802	-0.5013	
-0.196542	-0.683322	0.654164	-9.66	-10.92	-14.49	0.0109	0.2771	-0.4967	
-0.180194	-0.701866	0.654286	-12.25	-12.46	-14.42	0.0065	0.2786	-0.4983	
-0.179462	-0.704672	0.651114	-13.09	-11.9	-15.61	0.0094	0.2753	-0.4908	
-0.181414	-0.708088	0.64599	-13.79	-11.83	-16.31	0.0036	0.2815	-0.4969	
-0.177876	-0.706746	0.64843	-14.63	-11.06	-16.52	0.0004	0.2721	-0.4907	
-0.16775	-0.706502	0.645746	-17.85	-12.53	-15.89	0.0005	0.2766	-0.4894	
-0.150792	-0.71248	0.637816	-19.04	-13.65	-15.96	-0.0009	0.2748	-0.4804	
-0.146034	-0.727364	0.63318	-20.86	-14.49	-16.24	-0.0112	0.2777	-0.4836	
-0.134932	-0.729194	0.627324	-21.42	-15.54	-17.71	-0.0112	0.279	-0.4777	
-0.11712	-0.72224	0.615612	-21.14	-13.86	-19.67	-0.0153	0.2943	-0.4811	
-0.114314	-0.727974	0.610976	-22.12	-15.33	-20.16	-0.0154	0.2881	-0.478	
-0.109678	-0.73505	0.612318	-23.31	-15.19	-20.65	-0.0184	0.288	-0.4765	
-0.084424	-0.7503	0.602314	-24.99	-14.28	-21.35	-0.0303	0.2923	-0.4767	
-0.072956	-0.757132	0.59292	-27.51	-14.49	-21.63	-0.036	0.2978	-0.4621	
-0.082594	-0.771772	0.579378	-29.68	-14.56	-21.14	-0.0375	0.3011	-0.4711	
-0.091012	-0.77714	0.560712	-30.31	-15.4	-22.05	-0.0389	0.3056	-0.4698	
-0.071614	-0.781898	0.551074	-30.31	-14.49	-22.89	-0.0521	0.3097	-0.4641	
-0.049898	-0.780678	0.537898	-32.06	-15.05	-23.45	-0.0458	0.3233	-0.4571	
-0.04331	-0.794464	0.5307	-32.76	-16.87	-22.4	-0.0493	0.3053	-0.4669	
-0.04331	-0.815936	0.531432	-33.32	-18.48	-22.05	-0.0565	0.3092	-0.4778	
-0.042456	-0.83143	0.526308	-33.74	-19.81	-22.26	-0.0563	0.32	-0.4555	
-0.03355	-0.839604	0.521306	-32.48	-18.62	-22.68	-0.0607	0.3245	-0.4572	
-0.005246	-0.822158	0.502762	-31.22	-15.75	-23.73	-0.065	0.3302	-0.4455	
0.027938	-0.823866	0.5002	-31.99	-14.7	-23.45	-0.0738	0.3328	-0.4397	
0.036966	-0.843996	0.47763	-32.69	-16.45	-22.61	-0.0768	0.3343	-0.4398	
0.03477	-0.862296	0.470676	-31.5	-16.8	-23.17	-0.0826	0.3388	-0.443	
0.03599	-0.854	0.451522	-28.84	-15.82	-24.85	-0.0856	0.337	-0.437	
0.032452	-0.856562	0.446032	-28.49	-16.59	-24.5	-0.087	0.3399	-0.4312	
0.065026	-0.869494	0.426512	-28.98	-19.18	-24.71	-0.0929	0.3394	-0.4208	
0.097112	-0.865224	0.428098	-29.68	-20.09	-24.57	-0.1107	0.3421	-0.421	
0.110532	-0.854976	0.411506	-30.17	-20.09	-23.66	-0.1031	0.3497	-0.4167	
0.114314	-0.861808	0.399184	-29.26	-20.44	-23.24	-0.1165	0.3477	-0.4108	
0.116388	-0.878522	0.385276	-30.38	-22.61	-23.59	-0.1121	0.3415	-0.4062	
0.125294	-0.882548	0.370392	-30.17	-24.15	-24.71	-0.1194	0.3507	-0.411	
0.147742	-0.877424	0.365146	-29.96	-23.73	-26.04	-0.1224	0.3473	-0.4034	
0.168726	-0.867542	0.356362	-29.19	-23.24	-26.53	-0.1236	0.3561	-0.3919	
0.195932	-0.86681	0.346968	-29.33	-22.82	-26.6	-0.1342	0.3512	-0.3918	
0.210938	-0.873276	0.336354	-29.4	-21.84	-27.16	-0.1416	0.3558	-0.3949	
0.216062	-0.886696	0.329156	-31.01	-23.17	-27.3	-0.1445	0.3523	-0.383	
0.227042	-0.887672	0.3172	-31.71	-23.38	-28.21	-0.1532	0.3625	-0.3759	
0.242414	-0.878522	0.302194	-32.41	-22.75	-29.89	-0.1623	0.3561	-0.3728	
0.250466	-0.87596	0.262422	-34.3	-24.22	-30.66	-0.1533	0.3563	-0.3743	
0.287188	-0.894504	0.269986	-38.57	-26.18	-30.87	-0.1683	0.3511	-0.3638	
0.301706	-0.8906	0.261324	-35.49	-22.47	-31.5	-0.1755	0.3551	-0.3506	
0.293776	-0.887672	0.242292	-35.21	-15.75	-29.26	-0.1903	0.3609	-0.3539	
0.291702	-0.904142	0.228994	-33.95	-17.08	-31.57	-0.1873	0.3624	-0.3509	
0.287798	-0.905362	0.209596	-35.21	-17.08	-31.08	-0.19	0.3712	-0.3409	
0.293776	-0.927566	0.19886	-32.76	-17.99	-30.87	-0.1991	0.368	-0.3423	
0.290482	-0.938668	0.185562	-28.77	-18.06	-30.59	-0.1989	0.3722	-0.332	
0.300364	-0.917684	0.182024	-24.5	-15.47	-31.64	-0.2051	0.3615	-0.3332	
0.331596	-0.895968	0.174216	-24.29	-15.96	-31.01	-0.2182	0.3765	-0.3353	
0.35929	-0.875228	0.164822	-25.76	-18.2	-28.49	-0.2198	0.3636	-0.3156	
0.366244	-0.873276	0.155672	-27.44	-18.41	-27.23	-0.2274	0.3589	-0.3185	
0.360632	-0.874862	0.145424	-27.44	-19.18	-27.51	-0.2274	0.3572	-0.311	
0.365878	-0.879986	0.12078	-26.39	-19.53	-28.21	-0.2334	0.3554	-0.308	
0.387716	-0.88206	0.099308	-25.9	-21.42	-26.88	-0.2407	0.3546	-0.2887	
0.421754	-0.904508	0.09857599	-27.23	-19.67	-24.15	-0.2437	0.3547	-0.2932	
0.451156	-0.922808	0.09089	-26.25	-17.5	-21.77	-0.2453	0.3517	-0.2961	
0.43981	-0.9211	0.085766	-22.89	-15.54	-21.56	-0.2438	0.3468	-0.284	
0.433954	-0.879986	0.074054	-20.72	-11.13	-23.17	-0.2421	0.3591	-0.2859	
0.44652	-0.87474	0.058926	-22.05	-10.15	-22.82	-0.2466	0.3558	-0.2814	
0.460794	-0.879254	0.061732	-21.98	-9.59	-22.12	-0.2496	0.3575	-0.2889	
0.447496	-0.872666	0.055876	-19.32	-9.8	-23.17	-0.2587	0.3478	-0.2797	
0.43005	-0.863394	0.038918	-18.55	-10.29	-23.59	-0.2646	0.3459	-0.2723	
0.4575	-0.861564	0.035502	-17.57	-13.79	-21.77	-0.2615	0.3503	-0.265	
0.473482	-0.846558	0.03904	-16.52	-14.21	-21.07	-0.2632	0.3395	-0.2632	
0.500688	-0.832162	0.038674	-16.94	-15.33	-20.09	-0.2738	0.3315	-0.257	
0.519354	-0.827038	0.038064	-18.83	-14.77	-19.46	-0.2797	0.3345	-0.2616	
0.53192	-0.829112	0.037332	-19.95	-15.89	-18.27	-0.2736	0.339	-0.2543	
0.505202	-0.828502	0.014518	-20.37	-15.4	-18.83	-0.2767	0.3327	-0.2497	
0.491904	-0.849486	-0.001586	-21.42	-14.98	-19.11	-0.2811	0.3324	-0.2452	
0.504836	-0.85888	-0.017202	-21.07	-15.96	-19.88	-0.2916	0.3323	-0.2498	
0.494466	-0.856196	-0.016348	-18.55	-15.61	-22.4	-0.2854	0.3382	-0.2395	
0.48617	-0.851682	-0.0305	-18.13	-14.84	-24.92	-0.3033	0.3363	-0.2381	
0.50142	-0.840946	-0.047946	-15.54	-12.39	-27.44	-0.2959	0.338	-0.2381	
0.487146	-0.832528	-0.053924	-15.05	-11.34	-31.36	-0.293	0.3317	-0.2305	
0.476532	-0.836432	-0.053436	-15.82	-11.97	-34.93	-0.3005	0.3233	-0.2139	
0.478484	-0.831796	-0.068808	-15.68	-13.72	-36.96	-0.3067	0.3143	-0.2226	
0.500932	-0.831064	-0.07442	-15.82	-15.89	-36.26	-0.3185	0.3153	-0.2138	
0.54534	-0.80825	-0.084302	-15.89	-18.41	-35.14	-0.3141	0.3122	-0.2107	
0.600972	-0.795806	-0.094062	-16.31	-19.25	-33.32	-0.3337	0.3058	-0.2136	
0.627324	-0.779336	-0.089914	-15.12	-20.23	-32.27	-0.3245	0.3135	-0.2093	
0.603046	-0.779336	-0.105896	-13.86	-22.12	-32.2	-0.3382	0.2977	-0.203	
0.594506	-0.765184	-0.111874	-10.57	-23.31	-32.83	-0.3383	0.2915	-0.1998	
0.644892	-0.771894	-0.119926	-9.59	-23.45	-31.5	-0.3399	0.2869	-0.1997	
0.710162	-0.770186	-0.11895	-8.4	-24.71	-28.21	-0.3411	0.2954	-0.1821	
0.728096	-0.743102	-0.107116	-7.21	-25.06	-24.57	-0.3384	0.2834	-0.1862	
0.733586	-0.727974	-0.115046	-9.24	-27.58	-22.4	-0.3489	0.2817	-0.1892	
0.742004	-0.74359	-0.134932	-13.02	-29.26	-18.9	-0.3427	0.2875	-0.2001	
0.745542	-0.73627	-0.13542	-10.64	-28.98	-18.9	-0.3534	0.2749	-0.1712	
0.70943	-0.713944	-0.150548	-7.84	-15.26	-21.14	-0.3607	0.2839	-0.1715	
0.702476	-0.6954	-0.160064	-6.65	-9.24	-20.86	-0.3564	0.27	-0.1621	
0.657946	-0.671854	-0.165066	-5.25	-4.9	-21.77	-0.3668	0.276	-0.1654	
0.642574	-0.682468	-0.17812	-7.35	-0.84	-21.56	-0.3686	0.2622	-0.1664	
0.659532	-0.695644	-0.179096	-10.36	-0.49	-21.21	-0.3701	0.264	-0.1739	
0.650504	-0.70516	-0.177388	-10.92	-0.35	-21.7	-0.3655	0.2637	-0.162	
0.657214	-0.698816	-0.188002	-9.38	-2.8	-22.4	-0.3537	0.2592	-0.1573	
0.646478	-0.689666	-0.180316	-7.07	-5.39	-24.36	-0.3658	0.2516	-0.1646	
0.670268	-0.679662	-0.183854	-4.69	-7.56	-25.34	-0.3644	0.2501	-0.166	
0.68015	-0.660874	-0.182634	-2.87	-9.59	-26.18	-0.3778	0.2449	-0.1555	
0.68869	-0.647698	-0.201422	-2.8	-11.83	-27.37	-0.3704	0.2469	-0.1645	
0.704306	-0.655262	-0.208864	-2.52	-15.26	-27.58	-0.3764	0.237	-0.1464	
0.665876	-0.663558	-0.223748	-2.03	-19.32	-29.47	-0.3825	0.234	-0.1522	
0.654286	-0.675392	-0.234606	0.77	-21.14	-31.43	-0.381	0.2323	-0.1477	
0.678076	-0.652456	-0.237778	4.2	-21.63	-33.04	-0.3857	0.2181	-0.1369	
0.690642	-0.652578	-0.247904	4.41	-21.07	-34.09	-0.3886	0.2209	-0.1296	
0.774822	-0.669048	-0.241316	-0.77	-29.12	-26.39	-0.3992	0.2131	-0.1324	
0.778726	-0.666364	-0.24583	3.01	-29.05	-24.64	-0.3918	0.2136	-0.1413	
0.753106	-0.64843	-0.260348	5.46	-26.32	-25.34	-0.4023	0.2034	-0.1188	
0.767136	-0.640134	-0.267912	6.37	-23.31	-24.92	-0.4008	0.2035	-0.1202	
0.8052	-0.632936	-0.266204	6.3	-21	-22.47	-0.3935	0.1992	-0.1245	
0.837774	-0.612196	-0.24339	8.68	-17.99	-20.65	-0.404	0.1907	-0.105	
0.841068	-0.584014	-0.256078	8.61	-15.26	-18.34	-0.4011	0.1929	-0.1229	
0.816302	-0.595848	-0.25681	5.46	-14.35	-17.5	-0.4026	0.1862	-0.1063	
0.781898	-0.597678	-0.258396	7.14	-10.78	-17.78	-0.3997	0.1835	-0.1151	
0.771162	-0.575474	-0.26535	8.68	-7.91	-18.06	-0.3982	0.1848	-0.1063	
0.798856	-0.581208	-0.271328	8.12	-6.02	-18.27	-0.4089	0.171	-0.1118	
0.798124	-0.574254	-0.265838	7.84	-5.95	-17.85	-0.4042	0.1801	-0.1061	
0.781166	-0.57157	-0.268034	7.91	-4.41	-17.22	-0.4074	0.1724	-0.1074	
0.769454	-0.541192	-0.267058	8.68	-1.75	-17.15	-0.3955	0.1728	-0.1103	
0.759938	-0.53802	-0.267302	5.95	-0.56	-17.01	-0.4104	0.1692	-0.1058	
0.779824	-0.528626	-0.255834	4.69	-1.75	-15.33	-0.4045	0.1694	-0.1058	
0.792878	-0.517036	-0.24278	4.2	-0.28	-14.56	-0.4091	0.1617	-0.1071	
0.81801	-0.52033	-0.245952	1.4	-0.28	-13.65	-0.4136	0.1584	-0.104	
0.818376	-0.526186	-0.242292	0	-2.24	-11.97	-0.409	0.1662	-0.1042	
0.812398	-0.529236	-0.256566	-1.12	-4.13	-10.08	-0.4107	0.1587	-0.1114	
0.829234	-0.532896	-0.250466	-1.05	-3.85	-8.54	-0.4211	0.1567	-0.1025	
0.835822	-0.543266	-0.251198	-0.98	-2.52	-6.86	-0.4168	0.1477	-0.1037	
0.848998	-0.54595	-0.253638	-0.42	-0.84	-4.41	-0.4122	0.1556	-0.1084	
0.851804	-0.552538	-0.258274	-1.75	0.84	-1.96	-0.4181	0.1551	-0.0995	
0.843752	-0.56059	-0.258762	-2.24	3.36	0.21	-0.4092	0.1539	-0.1024	
0.851438	-0.55449	-0.2623	0.21	5.74	2.1	-0.4258	0.1507	-0.1098	
0.859124	-0.548512	-0.262056	1.82	8.33	2.66	-0.4183	0.1507	-0.1053	
0.842776	-0.549244	-0.24705	0.77	10.43	4.06	-0.4122	0.1569	-0.1025	
0.819108	-0.54473	-0.248758	1.82	13.79	4.55	-0.4123	0.1557	-0.1143	
0.814716	-0.53985	-0.254248	4.41	14.56	4.06	-0.4138	0.1559	-0.1203	
0.831308	-0.549854	-0.249734	3.99	14.56	5.81	-0.4136	0.1633	-0.1116	
0.831796	-0.54229	-0.234606	4.13	12.74	7.21	-0.4138	0.1591	-0.1248	
0.817156	-0.535946	-0.233508	3.85	12.6	7.91	-0.4106	0.1619	-0.116	
0.81008	-0.533506	-0.241316	3.64	11.41	9.03	-0.4093	0.1594	-0.1293	
0.815082	-0.54046	-0.2379	3.15	10.01	9.87	-0.4092	0.1654	-0.1265	
0.808128	-0.550342	-0.229238	1.96	8.82	11.34	-0.415	0.1648	-0.1131	
0.800564	-0.566446	-0.232654	2.03	10.29	12.67	-0.4154	0.1549	-0.111	
0.810446	-0.574986	-0.233752	3.29	11.06	14	-0.4166	0.1636	-0.125	
0.805566	-0.572058	-0.227774	2.73	10.29	15.75	-0.4091	0.1717	-0.1326	
0.801784	-0.574498	-0.226066	2.31	11.2	16.8	-0.4105	0.1765	-0.1402	
0.80032	-0.583404	-0.216794	3.22	12.81	16.38	-0.4195	0.1715	-0.1327	
0.803126	-0.58316	-0.216062	3.78	13.65	16.94	-0.4031	0.1703	-0.134	
0.792512	-0.582916	-0.21228	5.53	13.16	16.52	-0.4031	0.1737	-0.1445	
0.78507	-0.581818	-0.207034	5.95	12.53	16.1	-0.4015	0.1783	-0.1432	
0.782508	-0.58377	-0.200446	5.6	12.04	16.66	-0.3939	0.1827	-0.1329	
0.79056	-0.591578	-0.192028	5.95	10.43	16.59	-0.3985	0.183	-0.1433	
0.779946	-0.59902	-0.176778	6.93	8.54	16.38	-0.4014	0.1878	-0.1539	
0.772138	-0.607804	-0.177388	6.44	7.49	17.5	-0.3968	0.1923	-0.1466	
0.763232	-0.62281	-0.171532	5.39	7.07	19.25	-0.397	0.1863	-0.1523	
0.762012	-0.627934	-0.175436	6.93	7.84	19.32	-0.4012	0.1985	-0.1286	
0.757742	-0.630374	-0.175314	7.63	9.03	19.32	-0.3997	0.2002	-0.1572	
0.764696	-0.622566	-0.16348	7.77	10.01	19.25	-0.392	0.2144	-0.168	
0.759572	-0.626714	-0.161528	7.49	10.36	19.74	-0.4014	0.1913	-0.1673	
0.744322	-0.645014	-0.156892	7.14	9.87	21	-0.3996	0.2048	-0.1574	
0.7381	-0.657824	-0.152378	7.07	10.01	22.54	-0.3889	0.2142	-0.1576	
0.744322	-0.65514	-0.141886	7.35	11.69	23.31	-0.386	0.2114	-0.1634	
0.75579	-0.655018	-0.135664	6.93	12.32	23.94	-0.383	0.2178	-0.171	
0.75091	-0.659044	-0.13786	7.21	12.6	23.87	-0.3815	0.2147	-0.1679	
0.736148	-0.673318	-0.128588	7.28	12.67	24.22	-0.3812	0.2301	-0.1729	
0.712968	-0.68503	-0.126148	7.91	13.58	24.36	-0.3785	0.2211	-0.1741	
0.718946	-0.691008	-0.111508	8.68	15.82	24.5	-0.3795	0.2392	-0.1702	
0.72041	-0.69418	-0.10431	8.61	17.15	25.41	-0.3766	0.2412	-0.1806	
0.702964	-0.69784	-0.10736	7.63	16.59	26.88	-0.3707	0.24	-0.188	
0.664656	-0.711016	-0.08845	8.4	18.06	26.95	-0.3632	0.2434	-0.194	
0.693936	-0.720776	-0.094306	9.31	14.84	29.75	-0.3558	0.2406	-0.1968	
0.685762	-0.730536	-0.080276	9.03	11.97	30.45	-0.3705	0.2509	-0.1958	
0.686738	-0.72529	-0.068686	10.92	16.38	29.26	-0.3511	0.2547	-0.2032	
0.683566	-0.72468	-0.069174	10.71	19.53	29.75	-0.3645	0.2578	-0.1881	
0.671976	-0.735904	-0.062708	9.94	18.41	31.22	-0.3539	0.2657	-0.2139	
0.657824	-0.73627	-0.057096	10.22	17.15	31.92	-0.3509	0.2657	-0.2124	
0.643916	-0.738588	-0.047092	10.15	17.43	31.64	-0.3493	0.2704	-0.2155	
0.636352	-0.745054	-0.05002	9.73	17.43	31.99	-0.3433	0.2767	-0.2172	
0.611586	-0.768722	-0.039284	8.47	14.98	31.92	-0.3431	0.2828	-0.2159	
0.599874	-0.781776	-0.029524	9.66	15.19	32.34	-0.3387	0.2799	-0.2187	
0.588894	-0.782996	-0.02196	11.27	16.52	31.43	-0.3327	0.2864	-0.2278	
0.592432	-0.778238	-0.009393999	11.69	16.8	30.8	-0.3207	0.2849	-0.2202	
0.587186	-0.793	-0.001586	10.08	17.78	31.29	-0.319	0.299	-0.2296	
0.563274	-0.803126	0.006588	10.85	15.4	30.73	-0.3223	0.2918	-0.2457	
0.564372	-0.828624	0.018056	11.13	14.21	30.87	-0.3204	0.3037	-0.2342	
0.552172	-0.835944	0.02318	13.23	17.5	30.1	-0.3114	0.3088	-0.2447	
0.521794	-0.84058	0.021594	14.84	18.62	30.1	-0.3114	0.3119	-0.2463	
0.503006	-0.838994	0.029768	15.26	17.22	29.82	-0.3025	0.3141	-0.2582	
0.493978	-0.83814	0.040504	14.56	13.3	30.8	-0.3041	0.3094	-0.2565	
0.49227	-0.857538	0.042212	14.21	11.9	30.8	-0.3067	0.3262	-0.2586	
0.493002	-0.85522	0.05673	17.71	14.14	28.21	-0.2993	0.3217	-0.2569	
0.470676	-0.841922	0.063074	18.55	15.33	27.23	-0.2888	0.3233	-0.2524	
0.44652	-0.838872	0.060512	18.27	15.26	26.88	-0.2919	0.3219	-0.2583	
0.43432	-0.85217	0.074908	15.61	14.77	27.65	-0.2844	0.3255	-0.2688	
0.4209	-0.8662	0.0793	15.4	15.54	26.6	-0.2709	0.3318	-0.2659	
0.43249	-0.86742	0.086132	16.66	15.68	26.18	-0.2724	0.332	-0.2719	
0.469822	-0.851316	0.09552599	15.33	17.78	25.9	-0.271	0.3292	-0.2792	
0.482876	-0.83204	0.114802	13.72	20.72	24.43	-0.2617	0.3428	-0.2692	
0.47397	-0.816912	0.122854	11.06	22.82	24.22	-0.262	0.3325	-0.2807	
0.441518	-0.833748	0.133834	6.79	23.17	21.98	-0.2558	0.3451	-0.287	
0.414556	-0.8479	0.136762	5.81	26.67	18.62	-0.253	0.3394	-0.2972	
0.410408	-0.853268	0.14457	5.32	30.52	15.4	-0.2424	0.3472	-0.2959	
0.418948	-0.866078	0.154086	2.59	30.87	14.7	-0.2483	0.3499	-0.2886	
0.40138	-0.878888	0.158966	1.68	31.64	13.86	-0.2425	0.3425	-0.2943	
0.376614	-0.88206	0.155916	1.33	28.14	15.05	-0.2349	0.3523	-0.3064	
0.33672	-0.885476	0.141154	1.19	25.83	15.82	-0.2351	0.3465	-0.3166	
0.315248	-0.906826	0.125782	3.01	27.09	15.26	-0.2216	0.3466	-0.3091	
0.312686	-0.922686	0.152988	2.73	25.06	15.96	-0.2172	0.3469	-0.3165	
0.269132	-0.894382	0.147742	6.58	20.37	16.94	-0.2184	0.3605	-0.3125	
0.204472	-0.90036	0.107848	10.01	16.87	14.84	-0.217	0.3575	-0.3154	
0.200568	-0.979904	0.151768	5.95	6.93	17.43	-0.2123	0.3684	-0.3172	
0.208254	-0.989542	0.179096	8.75	-6.65	22.33	-0.2038	0.3522	-0.3285	
0.183732	-0.974414	0.169458	12.04	-14.77	22.75	-0.2079	0.367	-0.3186	
0.20679	-0.962702	0.164334	16.31	-21.14	21.07	-0.2081	0.3565	-0.3227	
0.239974	-0.920612	0.188856	22.19	-19.6	20.58	-0.1976	0.3613	-0.3243	
0.303658	-0.907314	0.206302	15.47	-27.02	21.84	-0.2093	0.3687	-0.3246	
0.320494	-0.910242	0.214232	15.54	-27.86	19.25	-0.2141	0.3531	-0.3167	
0.321714	-0.913048	0.21472	15.75	-26.74	15.54	-0.2065	0.3611	-0.3228	
0.33855	-0.920002	0.213134	17.08	-19.88	15.61	-0.2064	0.364	-0.3185	
0.311344	-0.88572	0.225822	25.48	-16.17	9.45	-0.2091	0.376	-0.3144	
0.30561	-0.859612	0.238266	18.06	-20.79	10.57	-0.214	0.3608	-0.3199	
0.353556	-0.875594	0.24949	14.7	-21.07	11.13	-0.2005	0.3659	-0.3244	
0.366976	-0.875716	0.24888	18.41	-14.14	8.19	-0.2066	0.3563	-0.3153	
0.33855	-0.86132	0.267302	25.13	-4.13	5.81	-0.2066	0.3565	-0.3242	
0.356118	-0.851072	0.252418	31.64	3.57	4.76	-0.2051	0.3564	-0.3197	
0.348066	-0.842776	0.237534	20.51	2.73	4.9	-0.2051	0.3583	-0.3302	
0.30439	-0.857172	0.256444	3.5	-3.36	7	-0.2155	0.3595	-0.3273	
0.29524	-0.87718	0.249734	-4.27	-7.28	6.72	-0.2139	0.3672	-0.329	
0.316834	-0.881206	0.254126	-2.94	-4.27	3.01	-0.2095	0.3626	-0.3259	
0.264984	-0.855464	0.205082	2.31	-2.31	0.35	-0.2112	0.3535	-0.3286	
0.231312	-0.9089	0.22082	-4.06	-3.99	2.03	-0.2066	0.3597	-0.3272	
0.25925	-0.960994	0.268034	-3.01	-7.14	-0.7	-0.2096	0.3596	-0.3273	
0.249002	-0.906094	0.238388	3.71	-1.47	-4.13	-0.217	0.3562	-0.3198	
0.281576	-0.87474	0.238632	1.47	3.01	-4.76	-0.2155	0.3625	-0.3259	
0.315126	-0.870226	0.24278	-3.36	2.8	-3.64	-0.22	0.356	-0.3153	
0.295118	-0.892552	0.247416	-5.53	-1.82	-0.7	-0.2064	0.3674	-0.3305	
0.268156	-0.922076	0.239242	-5.46	-5.32	1.61	-0.2079	0.3657	-0.326	
0.221674	-0.949892	0.233386	-2.66	-7.84	1.54	-0.2141	0.358	-0.3258	
0.180804	-0.970266	0.210938	0.84	-12.67	1.96	-0.2201	0.358	-0.3317	
0.17629	-0.986858	0.203618	6.16	-20.02	3.08	-0.2184	0.3607	-0.3184	
0.179096	-0.982222	0.207888	8.54	-25.48	5.32	-0.2171	0.3515	-0.3181	
0.198006	-0.973316	0.201056	11.76	-34.79	8.54	-0.2216	0.3499	-0.3166	
0.194346	-0.959774	0.19581	15.05	-42.84	11.97	-0.214	0.3574	-0.3094	
0.22082	-0.937448	0.185928	17.15	-48.86	14.91	-0.217	0.3609	-0.3229	
0.251198	-0.92537	0.18117	18.13	-54.81	16.66	-0.2245	0.3526	-0.3078	
0.266082	-0.928786	0.177266	18.83	-60.41	17.78	-0.2275	0.3526	-0.3123	
0.232166	-0.935496	0.166164	23.66	-68.39	17.22	-0.2365	0.3462	-0.3077	
