Sensor string: B
Serial number: 1970-01-0000
Firmware version: 2,015
Hardware version: 2,2
Calibration quality: 5
ax	ay	az	gx	gy	gz	mx	my	mz

0.024766	-0.857172	0.463112	-0.49	-0.14	0	-0.0194	0.1805	-0.2749	Reference
0.029646	-0.859368	0.462258	-0.35	-0.42	-0.07	-0.0134	0.1762	-0.2736	
0.023546	-0.860832	0.463844	-0.42	-0.28	-0.07	-0.0195	0.1836	-0.2685	
0.027084	-0.863272	0.466406	-0.7	-0.56	-0.14	-0.0149	0.1805	-0.2734	
0.028182	-0.859978	0.465674	-0.21	0.07	-0.14	-0.0073	0.1785	-0.2845	
0.026352	-0.856318	0.46604	-0.14	0.42	-0.07	-0.0119	0.1875	-0.2778	
0.02501	-0.853634	0.46726	-0.07	0.28	-0.14	-0.0149	0.1834	-0.2733	
0.027084	-0.851926	0.466894	-0.49	0.07	-0.07	-0.012	0.1806	-0.2703	
0.025742	-0.85949	0.467138	-0.84	-0.07	-0.35	-0.0104	0.1816	-0.2796	
0.025498	-0.858758	0.469212	-0.98	-0.14	-0.14	-0.0149	0.1804	-0.275	
0.027084	-0.85949	0.468846	-0.84	0.07	-0.07	-0.0119	0.1706	-0.2692	
0.02623	-0.856928	0.46665	-0.7	0.35	0.07	-0.0135	0.1835	-0.2701	
0.026108	-0.855342	0.465918	-0.98	0.28	0.14	-0.0164	0.1819	-0.2749	
0.023302	-0.859368	0.463112	-1.4	0.07	0	-0.0164	0.1791	-0.2719	
0.022204	-0.862174	0.461404	-1.33	0.07	0	-0.0179	0.1789	-0.2766	
0.023302	-0.862174	0.46299	-1.33	-0.21	0.14	-0.015	0.182	-0.2718	
0.022936	-0.861686	0.460428	-1.12	-0.14	0.35	-0.0165	0.1784	-0.2579	
0.02257	-0.861442	0.45933	-1.12	-0.07	0.42	-0.0105	0.1851	-0.2669	
0.023058	-0.862662	0.458842	-1.19	-0.28	0.42	-0.0059	0.1806	-0.2703	
0.022814	-0.86071	0.460428	-1.19	-0.42	0.35	-0.0224	0.175	-0.2689	
0.0244	-0.86132	0.4575	-0.98	-0.14	0.28	-0.0135	0.1849	-0.2716	
0.024034	-0.862296	0.459208	-0.98	-0.21	0.21	-0.015	0.1905	-0.2744	
0.022082	-0.863638	0.458598	-0.98	-0.21	0.14	-0.0119	0.1847	-0.2763	
0.024034	-0.861442	0.458842	-0.91	-0.21	0.21	-0.0164	0.186	-0.2794	
0.023424	-0.86193	0.45811	-0.91	-0.14	0.14	-0.0315	0.1834	-0.2747	
0.02379	-0.862906	0.4575	-0.84	-0.07	0	-0.0119	0.186	-0.2778	
0.024156	-0.862296	0.458232	-0.77	0.14	-0.07	-0.015	0.182	-0.2718	
0.025986	-0.862784	0.45872	-0.56	0.21	-0.28	-0.009	0.1793	-0.2673	
0.023058	-0.861198	0.459574	-0.77	0.07	-0.42	-0.0104	0.1759	-0.2799	
0.020496	-0.863638	0.45689	-0.77	0.28	-0.28	-0.018	0.1879	-0.2699	
0.024034	-0.862662	0.453474	-0.49	0.35	-0.35	-0.0135	0.1896	-0.2636	
0.0244	-0.86681	0.456768	-0.63	0.14	-0.63	-0.0164	0.1848	-0.2747	
0.029524	-0.870958	0.451766	-0.42	-0.07	-0.56	-0.0181	0.1884	-0.2589	
0.023668	-0.870348	0.454816	0.14	0.35	-0.42	-0.0119	0.1834	-0.2733	
0.020618	-0.865468	0.455914	0.21	0.07	-0.14	-0.012	0.185	-0.2685	



0.022204	-0.864004	0.45323	0.91	-0.28	0	-0.009099999	0.1899	-0.2573	
0.01525	-0.864126	0.450302	0.98	-0.21	0.07	-0.0165	0.1907	-0.2713	
0.019154	-0.870592	0.447618	0.56	-0.28	0	-0.012	0.1863	-0.2716	
0.031598	-0.873154	0.452986	0.28	-0.84	-0.21	-0.0224	0.1761	-0.2751	
0.02928	-0.87047	0.450058	1.26	-0.28	-0.42	-0.018	0.1947	-0.2773	
0.02257	-0.869738	0.446154	2.24	0.42	-0.56	-0.0164	0.1806	-0.2718	
0.024522	-0.868518	0.44591	2.24	-0.14	-0.63	-0.0135	0.1907	-0.2713	
0.024522	-0.874984	0.444446	2.94	-0.28	-0.7	-0.006	0.1849	-0.2701	
0.020618	-0.874008	0.442128	3.43	-0.49	-0.7	-0.0089	0.1803	-0.2766	
0.02928	-0.88023	0.444812	3.99	-0.49	-0.7	-0.0075	0.1807	-0.2688	
0.028792	-0.87901	0.448106	4.97	-0.07	-0.98	-0.0104	0.1806	-0.2703	
0.02745	-0.872544	0.452986	5.88	0	-0.84	-0.0149	0.1791	-0.2735	
0.025742	-0.869128	0.454938	6.51	0.14	-0.63	-0.0104	0.1818	-0.2749	
0.02257	-0.861808	0.455426	6.37	0.63	-0.28	-0.0135	0.182	-0.2718	
0.029646	-0.8601	0.46055	6.51	0.14	-0.49	-0.0044	0.1748	-0.2722	
0.0305	-0.86803	0.458598	6.58	0.56	-0.91	-0.0224	0.1776	-0.2751	
0.026352	-0.872666	0.45445	7.35	1.26	-0.91	-0.0164	0.1828	-0.2858	
0.023424	-0.873886	0.452986	8.33	1.05	-0.77	-0.0148	0.1772	-0.283	

0.010736	-0.86864	0.451644	9.73	0.07	-0.42	-0.0179	0.1761	-0.2752	
0.01586	-0.87474	0.455304	10.15	-0.14	-0.56	-0.0164	0.1773	-0.2798	
0.02074	-0.866566	0.457988	11.48	-0.63	-0.77	-0.0133	0.1743	-0.2831	
0.018788	-0.869616	0.452742	12.74	0.21	-0.63	-0.0103	0.1783	-0.2892	
0.01708	-0.87047	0.452376	14.14	-0.28	-1.12	-0.0193	0.1685	-0.2849	
0.018544	-0.87047	0.45323	15.26	-1.12	-1.4	-0.0057	0.1666	-0.293	
0.023912	-0.86376	0.45872	17.08	-1.26	-1.33	-0.0253	0.1614	-0.2837	
0.027816	-0.865224	0.464454	17.64	-1.61	-1.19	-0.0163	0.1586	-0.2808	
0.030744	-0.863028	0.47214	18.48	-2.1	-1.4	-0.0163	0.1585	-0.2824	
0.024888	-0.851438	0.478118	19.67	-1.68	-1.68	-0.0207	0.1583	-0.287	
0.017934	-0.850828	0.476654	20.23	-0.77	-1.54	-0.0207	0.1554	-0.2872	
0.018422	-0.853878	0.477752	21.56	-1.33	-2.45	-0.013	0.1502	-0.3047	
0.021716	-0.859124	0.47336	23.45	-0.7	-2.8	-0.0159	0.144	-0.3144	
0.020374	-0.850096	0.473238	25.48	-0.63	-3.08	-0.0116	0.1419	-0.2973	
0.020374	-0.845948	0.48007	27.23	-1.19	-3.71	-0.0175	0.1417	-0.3036	
0.021228	-0.839604	0.493368	29.4	-2.59	-3.78	-0.0084	0.137	-0.3101	
0.015494	-0.824598	0.49593	31.99	-2.59	-3.78	-0.0264	0.1299	-0.3088	
0.020252	-0.816912	0.511912	32.55	-4.9	-3.71	-0.0264	0.1243	-0.306	
0.0305	-0.814472	0.51484	34.02	-4.2	-3.71	-0.0204	0.1298	-0.3104	
0.039406	-0.80276	0.514352	37.24	-4.48	-4.69	-0.0248	0.1251	-0.32	
0.048434	-0.79788	0.53558	39.48	-4.83	-4.97	-0.0293	0.1067	-0.3131	
0.049044	-0.792756	0.546316	42.7	-3.99	-5.32	-0.0202	0.0993	-0.3183	
0.059658	-0.774334	0.560346	42.98	-4.48	-5.46	-0.0292	0.1062	-0.3241	
0.058926	-0.748836	0.569862	46.06	-3.36	-5.74	-0.0186	0.086	-0.3237	
0.04758	-0.733464	0.579866	47.88	-2.24	-6.16	-0.0246	0.0902	-0.3265	
0.030988	-0.715774	0.59475	46.97	-3.99	-6.58	-0.0306	0.0819	-0.3222	
0.04453	-0.707966	0.61305	45.99	-5.95	-6.65	-0.023	0.08109999	-0.338	
0.051362	-0.70577	0.639402	48.37	-6.16	-6.93	-0.026	0.0657	-0.3278	
0.044896	-0.685762	0.64172	51.17	-4.55	-7.14	-0.0244	0.06659999	-0.3403	
0.043432	-0.658434	0.638548	53.2	-4.69	-7.28	-0.0318	0.0523	-0.3379	
0.049654	-0.667218	0.65392	52.29	-6.3	-6.93	-0.0272	0.0417	-0.3494	
0.057218	-0.665266	0.687714	50.75	-9.24	-7	-0.0227	0.0461	-0.3461	
0.065392	-0.62281	0.67405	56.7	-7.21	-6.86	-0.0316	0.0287	-0.35	
0.076494	-0.590968	0.688324	60.62	-4.9	-6.02	-0.0391	0.0118	-0.343	
0.066124	-0.562786	0.67893	64.82	-4.13	-8.54	-0.0345	0.0057	-0.3512	
0.082106	-0.544242	0.721264	63.7	-6.16	-9.03	-0.0421	-0.002	-0.3344	
0.109434	-0.519964	0.765184	65.66	-6.86	-9.8	-0.0389	-0.0119	-0.3599	
0.10004	-0.488366	0.76799	69.58	-3.08	-10.78	-0.0463	-0.0219	-0.3588	
0.088206	-0.451034	0.771284	72.59	-2.24	-11.06	-0.0359	-0.0328	-0.3454	
0.100894	-0.417972	0.789584	74.48	-3.15	-10.64	-0.0447	-0.0534	-0.3558	
0.110288	-0.383568	0.825208	73.71	-4.55	-10.15	-0.0387	-0.0517	-0.3511	
0.103822	-0.351482	0.850828	72.1	-5.04	-9.66	-0.0476	-0.07099999	-0.363	
0.103456	-0.333426	0.86376	69.51	-5.53	-8.54	-0.046	-0.0906	-0.3515	
0.124928	-0.310368	0.880474	70	-5.11	-7	-0.0415	-0.0881	-0.3592	
0.135542	-0.271694	0.871202	71.54	-2.66	-6.86	-0.0534	-0.097	-0.3674	
0.133834	-0.2379	0.888282	72.59	-1.47	-8.61	-0.0443	-0.1127	-0.3636	
0.14213	-0.226798	0.904142	68.53	-0.91	-9.17	-0.0443	-0.1184	-0.3623	
0.127978	-0.220088	0.91683	66.36	2.03	-8.26	-0.0458	-0.1323	-0.3521	
0.125782	-0.192394	0.93635	66.57	-0.56	-9.73	-0.0457	-0.1443	-0.3621	
0.13359	-0.157746	0.95587	63.21	-0.28	-10.22	-0.0517	-0.1581	-0.3503	
0.150304	-0.134688	0.983686	57.19	-1.26	-8.89	-0.0457	-0.1551	-0.347	
0.152988	-0.132004	1.00406	53.9	-0.77	-8.12	-0.0411	-0.1701	-0.3604	
0.14152	-0.110044	1.018334	52.43	0.35	-7.07	-0.0426	-0.1726	-0.3527	
0.134322	-0.072224	1.028338	50.12	0.42	-6.09	-0.0441	-0.181	-0.3468	
0.14518	-0.04697	1.037488	46.55	-0.56	-5.39	-0.0456	-0.1909	-0.3442	
0.158112	-0.018788	1.053348	42.42	-1.33	-5.04	-0.0501	-0.1895	-0.3457	
0.16714	0.006466	1.062742	39.13	-0.21	-4.76	-0.0425	-0.2066	-0.3419	
0.168726	0.029036	1.055178	36.4	1.54	-5.18	-0.0394	-0.2085	-0.3499	
0.169702	0.047214	1.063718	32.13	0.91	-5.46	-0.0515	-0.214	-0.3469	
0.163724	0.056608	1.071282	27.44	0.21	-5.46	-0.05	-0.2153	-0.3423	
0.161284	0.066368	1.073966	23.52	0.49	-5.04	-0.0485	-0.2237	-0.3381	
0.163724	0.074908	1.072502	20.02	0	-4.2	-0.0469	-0.2323	-0.3385	
0.171166	0.08662	1.083848	15.54	0.49	-3.71	-0.0395	-0.2291	-0.3306	
0.170678	0.091134	1.088972	11.2	0.28	-3.15	-0.0409	-0.234	-0.3418	
0.160552	0.090036	1.092876	9.03	2.03	-2.52	-0.0469	-0.2338	-0.3386	
0.171654	0.100894	1.107028	1.12	-0.21	-1.19	-0.0364	-0.2352	-0.3372	
0.156038	0.108458	1.109346	-2.03	0.7	-0.42	-0.05	-0.2376	-0.3278	
0.15311	0.100772	1.102636	-5.95	1.75	-0.21	-0.0409	-0.234	-0.3418	
0.16409	0.095892	1.11203	-11.55	-0.98	1.26	-0.0454	-0.235	-0.334	
0.156892	0.099674	1.107394	-16.73	-0.35	1.89	-0.0484	-0.2336	-0.3355	
0.152988	0.103822	1.112274	-21.35	0	2.24	-0.0455	-0.2333	-0.3292	
0.156404	0.09552599	1.115568	-26.32	-0.42	3.22	-0.047	-0.215	-0.3361	
0.16104	0.071736	1.115324	-30.87	0.28	4.13	-0.0409	-0.2268	-0.343	
0.162504	0.064538	1.113982	-35.84	0.42	5.32	-0.0379	-0.2209	-0.3396	
0.158356	0.063806	1.092998	-40.04	2.1	5.67	-0.0365	-0.2167	-0.3409	
0.147132	0.045262	1.07726	-45.43	2.38	6.51	-0.0395	-0.1983	-0.3478	
0.1403	0.02135	1.042856	-49.49	3.15	7.14	-0.0441	-0.1951	-0.3413	
0.138714	-0.000732	1.021262	-54.53	2.66	7.49	-0.0395	-0.1884	-0.3504	
0.122244	-0.023302	1.000522	-57.05	2.66	7.42	-0.0426	-0.1798	-0.3515	
0.114314	-0.046848	0.989908	-60.34	1.4	7.49	-0.0396	-0.1729	-0.3574	
0.118828	-0.07808	0.972828	-63.49	0	7.21	-0.0352	-0.1625	-0.3506	
0.110044	-0.13054	0.966728	-68.04	-1.47	7.77	-0.0367	-0.1541	-0.3564	
0.109434	-0.14335	0.96014	-70.84	-2.45	8.47	-0.0382	-0.1398	-0.3572	
0.121878	-0.165798	0.953674	-72.38	-3.22	9.24	-0.0352	-0.1385	-0.3603	
0.128222	-0.192638	0.939766	-72.8	-2.94	8.75	-0.0428	-0.1282	-0.3566	
0.127246	-0.207522	0.94245	-77.98	-2.73	7.63	-0.0489	-0.1151	-0.3527	
0.115046	-0.223504	0.90829	-81.13	-2.73	6.58	-0.0384	-0.1081	-0.3571	
0.122976	-0.274256	0.897554	-83.16	-3.85	6.65	-0.0444	-0.09119999	-0.364	
0.123586	-0.313906	0.860344	-83.09	-1.54	6.86	-0.0476	-0.0818	-0.3494	
0.134078	-0.327082	0.847046	-85.61	-0.84	7.14	-0.0371	-0.07229999	-0.36	
0.134688	-0.336598	0.823012	-86.38	0.63	6.44	-0.0522	-0.0574	-0.3497	
0.136518	-0.369782	0.78751	-86.73	3.36	5.6	-0.0373	-0.0389	-0.3535	
0.134322	-0.409676	0.752984	-88.48	3.29	4.97	-0.0448	-0.0304	-0.3577	
0.126026	-0.44774	0.736758	-91.35	3.22	5.6	-0.0449	-0.0115	-0.352	
0.107482	-0.480558	0.71675	-91.7	4.55	6.79	-0.0434	-0.0073	-0.355	
0.098088	-0.503738	0.700524	-91.07	4.9	8.68	-0.0391	0.016	-0.346	
0.101504	-0.541314	0.656238	-89.46	7.14	10.01	-0.0332	0.0376	-0.3449	
0.074298	-0.57096	0.64721	-92.12	5.39	10.08	-0.0349	0.0541	-0.3315	
0.063074	-0.594506	0.621712	-90.79	5.6	10.92	-0.035	0.0672	-0.3292	
0.058194	-0.6283	0.57706	-87.29	6.37	11.41	-0.0335	0.0826	-0.3378	
0.060756	-0.65514	0.53619	-84.21	6.58	12.04	-0.0336	0.0875	-0.3251	
0.06405	-0.696498	0.500566	-81.41	7.91	11.97	-0.0367	0.098	-0.3151	
0.038064	-0.746396	0.469334	-74.41	9.87	11.62	-0.0263	0.1123	-0.3176	
0.006466	-0.764208	0.45994	-68.04	9.17	11.2	-0.0264	0.1199	-0.3093	
0.00976	-0.779824	0.465674	-66.43	5.32	11.13	-0.0295	0.1261	-0.2996	
0.02379	-0.79239	0.453718	-65.1	5.11	10.71	-0.0266	0.1391	-0.2974	
0.018178	-0.813496	0.440054	-66.57	5.53	9.38	-0.0282	0.1522	-0.2951	
0.014396	-0.839848	0.376492	-65.24	8.12	7.21	-0.0342	0.161	-0.2915	
0.02135	-0.8784	0.32696	-65.1	9.1	6.16	-0.0253	0.1673	-0.2803	
0.000488	-0.93147	0.296216	-63.42	8.89	5.6	-0.0224	0.1717	-0.2785	
0.003904	-0.91683	0.294142	-59.85	5.25	4.9	-0.006	0.1765	-0.2659	
0.040016	-0.881206	0.296094	-58.1	4.62	4.62	-0.018	0.1839	-0.2622	
0.030988	-0.885842	0.27694	-56.49	8.12	3.22	-0.0165	0.1921	-0.2712	
0.034648	-0.905972	0.274378	-57.4	5.46	1.68	-0.0107	0.2099	-0.261	
0.047458	-0.91317	0.259494	-55.51	5.81	1.19	-0.0138	0.216	-0.2528	
0.021838	-0.94001	0.207522	-51.52	7.63	1.54	-0.0154	0.218	-0.2417	
-0.003172	-0.98942	0.196786	-50.12	5.81	2.03	-0.0109	0.2253	-0.2398	
-0.009272	-0.98698	0.218624	-45.78	-0.98	2.31	-0.0065	0.2327	-0.2348	
0.026108	-0.966972	0.248148	-43.96	-3.43	2.45	-0.0141	0.2373	-0.2282	
0.03416	-0.96746	0.223138	-42.49	-0.63	0.21	-0.0036	0.243	-0.228	
0.02806	-1.008574	0.18483	-39.83	-0.56	-0.77	-0.0006	0.2422	-0.2155	
0.01952	-1.034926	0.163968	-32.69	1.4	0	-0.0067	0.251	-0.2135	
0.013786	-1.016138	0.155916	-25.34	2.45	2.24	-0.0038	0.2568	-0.2116	
0.048434	-1.015528	0.187514	-25.83	1.75	3.99	-0.0038	0.2526	-0.2087	
0.05124	-1.011624	0.178608	-25.69	2.8	3.15	-0.0083	0.2528	-0.2055	
0.009272	-1.021018	0.153964	-22.82	2.73	1.96	-0.0023	0.2587	-0.2021	
-0.012688	-1.031998	0.138226	-19.32	0	2.24	-0.0099	0.263	-0.2019	
-0.005124	-1.034926	0.152378	-16.03	-0.98	5.32	-0.0054	0.256	-0.1976	
0.00854	-1.023214	0.146888	-14.63	-2.24	7.21	-0.0025	0.2652	-0.1862	
0.009638	-1.02541	0.167628	-15.12	-3.15	6.3	-0.0055	0.2723	-0.1873	
0.00366	-1.014796	0.148474	-13.02	-0.14	4.48	-0.0009999999	0.272	-0.1936	
0.000488	-1.053836	0.122854	-9.1	-0.42	2.59	0.0124	0.2766	-0.1857	
-0.02562	-1.052616	0.140178	-7.28	0.21	3.64	-0.007	0.2791	-0.1963	
-0.005124	-1.01199	0.147864	-6.72	-4.2	3.71	0.0004	0.2738	-0.1857	
0.012444	-0.98393	0.16897	-5.46	-1.47	3.57	-0.004	0.2777	-0.1949	
0.00305	-0.969656	0.157014	-4.34	1.19	2.45	-0.004	0.2707	-0.1921	
-0.007442	-1.001742	0.143716	-6.3	0.98	1.96	0.0019	0.2679	-0.1892	
-0.00305	-1.017968	0.13969	-6.44	-1.19	2.03	0.0034	0.2722	-0.189	
-0.00305	-1.01565	0.147376	-4.97	-0.63	1.96	-0.0012	0.2788	-0.1714	
-0.007929999	-1.02846	0.133834	-3.36	1.05	2.24	-0.0026	0.2869	-0.1835	
-0.012932	-1.04493	0.096258	1.4	3.08	3.64	0.0109	0.271	-0.1828	
-0.017324	-1.06811	0.085888	3.36	0.98	1.89	0.0018	0.2815	-0.176	
-0.029524	-1.072868	0.085034	8.54	-2.1	0.21	0.0019	0.2766	-0.1872	
-0.044774	-1.073234	0.089792	13.86	-2.66	0.21	0.0034	0.274	-0.1826	
-0.053558	-1.078114	0.091378	23.03	-1.33	2.38	0.0095	0.2733	-0.1952	
-0.02257	-1.044442	0.11773	22.19	-3.57	4.69	-0.0009999999	0.2709	-0.1874	
-0.005246	-1.034926	0.159088	24.22	-7.42	1.96	0.0005	0.2632	-0.1972	
0.000854	-1.004792	0.179462	24.92	-4.34	0.63	0.007999999	0.2714	-0.2063	
0.013054	-1.007476	0.205448	23.38	-2.24	0.28	0.0095	0.2701	-0.2016	
0.013298	-0.980636	0.215696	25.55	-1.4	-0.63	0.0035	0.2674	-0.2002	
0.005124	-0.957578	0.22143	23.73	2.8	-1.61	-0.0038	0.2671	-0.2064	
0.004148	-0.970632	0.217892	22.26	2.59	-0.91	0.0081	0.2557	-0.2039	
-0.013908	-0.99796	0.196176	24.43	8.54	-0.28	0.0142	0.258	-0.2148	
-0.014884	-1.022116	0.206912	23.45	2.8	-2.38	0.0098	0.2478	-0.2185	
-0.006222	-1.014796	0.234362	28.14	1.19	-4.2	0.0067	0.2508	-0.2151	
-0.005734	-0.995032	0.231434	30.66	5.81	-5.39	0.0069	0.2314	-0.2302	
-0.020008	-0.998936	0.226066	33.88	5.04	-5.67	-0.0035	0.247	-0.2356	
-0.030378	-1.018578	0.232654	33.18	4.55	-5.32	0.0068	0.246	-0.2248	
-0.00915	-1.016138	0.228628	36.75	2.03	-3.92	0.0115	0.2297	-0.2351	
-0.009881999	-0.986126	0.243146	43.33	2.45	-4.48	-0.0004	0.2339	-0.2394	
-0.018422	-0.970754	0.248636	43.4	-0.28	-2.73	-0.0003	0.2188	-0.2527	
-0.021716	-0.949892	0.265594	44.45	0.84	-2.8	0.0011	0.2149	-0.2451	
-0.008784	-0.923784	0.270352	44.38	-1.61	-2.8	0.0027	0.2114	-0.2563	
0.013542	-0.910242	0.305	43.61	-3.85	-3.29	0.0029	0.198	-0.2664	
0.018788	-0.89365	0.313174	45.99	0.49	-3.22	0.0014	0.1976	-0.2742	
0.006954	-0.89487	0.331108	47.81	0.35	-3.57	-0.0014	0.1874	-0.2778	
-0.011956	-0.888038	0.31842	50.47	1.05	-4.27	-0.0059	0.1843	-0.2827	
0.00122	-0.862662	0.336842	49.49	-2.94	-3.15	-0.0058	0.1755	-0.2862	
0.01952	-0.853512	0.382592	46.55	-4.41	-2.66	-0.0013	0.1725	-0.2896	
0.025254	-0.836676	0.398574	48.23	-3.5	-2.45	-0.0027	0.1652	-0.2915	
0.025132	-0.836676	0.411994	51.38	-0.98	-2.87	-0.0072	0.1668	-0.2883	
0.032208	-0.826306	0.419314	55.72	-0.56	-3.36	0.0033	0.1549	-0.2952	
0.041602	-0.805078	0.471164	56	-6.23	-4.34	-0.0055	0.1499	-0.3111	
0.03355	-0.776896	0.468724	61.88	-2.8	-5.46	-0.0055	0.143	-0.3036	
0.020252	-0.782996	0.495564	69.3	-3.01	-5.6	-0.0099	0.1299	-0.3074	
0.016226	-0.749202	0.531798	71.12	-2.59	-5.32	-0.0083	0.1164	-0.319	
0.012444	-0.712602	0.549732	73.71	-4.2	-5.04	-0.0112	0.1106	-0.3209	
0.003538	-0.681004	0.564616	75.11	-3.85	-5.04	-0.0066	0.0988	-0.3262	
0.01281	-0.660386	0.568032	76.44	-4.9	-6.3	-0.023	0.08549999	-0.3346	
0.032574	-0.651114	0.621956	73.43	-9.94	-7	-0.0125	0.0858	-0.3284	
0.037332	-0.612074	0.686738	76.3	-9.87	-7.91	-0.0154	0.0654	-0.3342	
0.047214	-0.555832	0.67893	81.13	-4.41	-9.66	-0.0154	0.0655	-0.331	
0.05124	-0.505812	0.694302	78.61	-3.78	-8.96	-0.0077	0.0476	-0.3445	
0.037576	-0.500078	0.71431	75.67	-4.13	-9.87	-0.0137	0.0374	-0.3466	
0.034404	-0.506056	0.741028	74.2	-4.9	-9.66	-0.0181	0.0228	-0.352	
0.041602	-0.492148	0.772748	75.25	-2.94	-8.61	-0.0166	0.0174	-0.3445	
0.046116	-0.465308	0.762256	76.93	-2.38	-8.33	-0.0179	-0.0103	-0.3553	
0.03782	-0.431758	0.783118	73.71	-5.18	-8.82	-0.0208	-0.0092	-0.3615	
0.042822	-0.400038	0.804712	72.03	-6.44	-8.19	-0.0237	-0.0321	-0.3595	
0.052094	-0.368196	0.829112	70.14	-7.42	-7.14	-0.0222	-0.0377	-0.3567	
0.062586	-0.335012	0.841312	71.54	-6.02	-6.37	-0.0326	-0.0496	-0.3651	
0.07259	-0.308172	0.853024	71.19	-5.46	-6.02	-0.025	-0.0712	-0.3647	
0.081008	-0.277428	0.873276	70.28	-5.74	-5.81	-0.0295	-0.07669999	-0.3603	
0.08723	-0.26169	0.887916	69.37	-5.81	-5.95	-0.0279	-0.091	-0.3595	
0.094794	-0.25803	0.901336	64.4	-8.61	-6.23	-0.0323	-0.1042	-0.3648	
0.104432	-0.244122	0.91683	62.23	-9.24	-7	-0.0324	-0.104	-0.3601	
0.121146	-0.216916	0.978684	57.96	-9.59	-5.67	-0.0338	-0.1198	-0.3609	
0.117852	-0.180926	0.97722	60.55	-3.71	-5.39	-0.0323	-0.1155	-0.3607	
0.11346	-0.154818	0.978318	58.45	-3.08	-5.88	-0.0307	-0.133	-0.3648	
0.125416	-0.150182	1.00162	54.81	-3.01	-5.81	-0.0352	-0.1329	-0.3632	
0.132858	-0.139446	1.023336	53.06	-1.26	-5.6	-0.0397	-0.1456	-0.3591	
0.147742	-0.122976	1.045906	49.14	-2.38	-6.02	-0.0366	-0.157	-0.3822	
0.140788	-0.084912	1.042124	45.78	0.14	-6.58	-0.0351	-0.1674	-0.3362	
0.125904	-0.07991	1.054568	37.03	-0.35	-6.02	-0.0411	-0.164	-0.3522	
0.12932	-0.068686	1.043222	38.15	-0.14	-5.25	-0.035	-0.1746	-0.3622	
0.137128	-0.05734	1.067744	28.98	-1.61	-5.18	-0.0366	-0.1766	-0.3451	
0.12932	-0.03782	1.053104	26.67	-0.35	-4.48	-0.032	-0.1803	-0.3369	
0.132492	-0.040504	1.060546	22.12	1.4	-4.55	-0.0366	-0.1909	-0.3427	
0.132004	-0.034282	1.056398	17.5	-0.49	-4.13	-0.0364	-0.1975	-0.3347	
0.13298	-0.025376	1.053592	13.58	-0.56	-3.36	-0.0305	-0.1899	-0.3521	
0.137128	-0.025376	1.06079	9.31	-1.54	-2.45	-0.0336	-0.1882	-0.3473	
0.139446	-0.022814	1.06262	7.07	-1.68	-1.68	-0.032	-0.1942	-0.3507	
0.148352	-0.016104	1.071648	4.48	-1.68	-0.84	-0.0305	-0.1927	-0.3491	
0.149084	-0.00915	1.070916	2.73	-0.91	-0.56	-0.0319	-0.2028	-0.3512	
0.14335	-0.01159	1.073234	-0.84	0.28	-1.05	-0.0349	-0.2001	-0.3557	
0.141032	-0.016226	1.073966	-4.13	-0.21	-0.77	-0.0409	-0.2044	-0.3559	
0.139812	-0.011102	1.087874	-6.86	-0.35	0.35	-0.0304	-0.2	-0.3526	
0.138836	-0.00915	1.086532	-10.99	-0.63	0.77	-0.0365	-0.1841	-0.3517	
0.137982	-0.0122	1.098366	-16.66	-1.96	1.4	-0.0306	-0.1909	-0.3428	
0.138226	-0.009638	1.101416	-22.4	-1.89	2.24	-0.035	-0.1916	-0.3568	
0.143716	-0.015372	1.106052	-26.81	-2.38	3.29	-0.0335	-0.1968	-0.3462	
0.153232	-0.016592	1.094218	-32.83	0.07	3.78	-0.032	-0.1858	-0.3566	
0.145302	-0.023668	1.07787	-37.31	1.82	3.57	-0.0411	-0.1713	-0.3542	
0.137494	-0.040138	1.072258	-42.91	1.61	3.5	-0.0441	-0.1699	-0.3556	
0.14457	-0.046604	1.05469	-46.83	2.52	3.85	-0.0456	-0.157	-0.3581	
0.13542	-0.052704	1.05042	-52.01	1.68	3.71	-0.0322	-0.1512	-0.3547	
0.119072	-0.069784	1.03578	-56.35	2.45	3.71	-0.0352	-0.1427	-0.3574	
0.12566	-0.09747799	1.022604	-62.37	0.28	3.43	-0.0337	-0.147	-0.3576	
0.120414	-0.117242	1.011014	-66.64	0.7	3.92	-0.0322	-0.1355	-0.3571	
0.108214	-0.142862	1.00406	-72.59	0.98	4.62	-0.0323	-0.1243	-0.3627	
0.120414	-0.16775	0.97478	-75.88	-0.84	4.76	-0.031	-0.09779999	-0.3504	
0.11834	-0.196908	0.956236	-78.47	1.33	7.07	-0.0369	-0.0967	-0.3581	
0.107848	-0.227408	0.919514	-81.97	1.96	6.09	-0.0324	-0.0929	-0.3689	
0.098332	-0.238144	0.91317	-86.45	0.21	4.41	-0.0295	-0.0812	-0.3652	
0.107848	-0.258274	0.889624	-89.18	-0.35	4.34	-0.0326	-0.0606	-0.3563	
0.108214	-0.303048	0.865834	-93.45	-0.21	5.39	-0.0327	-0.0477	-0.3572	
0.098088	-0.338428	0.814228	-94.29	1.05	6.51	-0.0312	-0.0348	-0.3581	
0.092476	-0.39955	0.774822	-99.33	-0.14	8.54	-0.0313	-0.0262	-0.3576	
0.086376	-0.42944	0.742126	-99.89	1.54	9.31	-0.0299	-0.009	-0.3583	
0.09028	-0.468724	0.704916	-100.59	1.26	9.87	-0.027	0	-0.3484	
0.09821	-0.518744	0.652944	-97.86	2.38	10.71	-0.0301	0.02	-0.3521	
0.086376	-0.554612	0.629642	-96.39	1.26	10.99	-0.0333	0.0452	-0.3367	
0.0793	-0.580964	0.614392	-95.97	-0.28	10.36	-0.0289	0.0628	-0.3295	
0.061854	-0.596702	0.571936	-94.01	0.07	9.59	-0.035	0.067	-0.3324	
0.062708	-0.633668	0.557052	-95.55	0.21	10.22	-0.0291	0.0858	-0.3299	
0.062586	-0.683932	0.52521	-94.01	2.66	10.99	-0.0276	0.0859	-0.3267	
0.056364	-0.724558	0.495564	-90.44	0.7	9.45	-0.0323	0.1125	-0.3128	
0.060756	-0.729804	0.479704	-87.57	0.07	9.38	-0.0308	0.1224	-0.317	
0.062952	-0.751886	0.416752	-84.77	6.16	11.13	-0.0176	0.1379	-0.2912	
0.032574	-0.83326	0.345138	-82.6	9.38	10.99	-0.0206	0.1421	-0.2957	
-0.015616	-0.913048	0.31232	-76.51	7.84	9.8	-0.0297	0.155	-0.2965	
-0.043066	-0.93452	0.32635	-70.91	0.98	10.15	-0.0162	0.1695	-0.2927	
0.01525	-0.848876	0.312808	-65.31	0.07	12.53	-0.015	0.1838	-0.2654	
0.030012	-0.85766	0.29402	-66.43	-1.19	11.34	-0.0226	0.1912	-0.2618	
0.027206	-0.88877	0.244976	-64.89	1.54	8.82	-0.0077	0.2042	-0.2581	
0.020252	-0.931958	0.22936	-65.52	-0.35	5.32	-0.0258	0.205	-0.2439	
0.004758	-0.94733	0.21228	-59.92	0.21	2.94	-0.0063	0.2179	-0.2434	
0.015616	-0.940742	0.211914	-55.93	0.14	3.01	-0.0109	0.2264	-0.246	
0.03111	-0.924394	0.198372	-52.5	0.49	2.38	-0.014	0.2285	-0.2318	
0.01769	-0.965386	0.195932	-54.46	-1.33	1.33	-0.0064	0.2255	-0.2351	
-0.010248	-1.006622	0.1769	-52.15	-3.15	-0.42	-0.007999999	0.2357	-0.2315	
-0.001464	-0.999302	0.16836	-47.88	-2.03	0.07	-0.0202	0.2452	-0.2152	
0.015372	-1.002474	0.155428	-44.31	-1.54	0.98	-0.0157	0.2483	-0.2104	
0.03538	-1.006134	0.136274	-36.61	3.08	1.89	-0.0098	0.2526	-0.2102	
0.02196	-1.00833	0.1403	-31.78	2.38	2.24	-0.0113	0.2583	-0.2099	
0.028914	-1.001376	0.149938	-30.59	0.14	0.77	-0.0009	0.2662	-0.1955	
0.024644	-1.001376	0.152622	-29.68	-0.28	-0.63	-0.0128	0.2571	-0.2053	
0.01708	-1.00406	0.134688	-27.79	0.91	-1.12	-0.007	0.2664	-0.1908	
0.04758	-1.007842	0.132004	-26.46	1.75	-1.68	0.002	0.2677	-0.1923	
0.049288	-1.026142	0.099552	-22.26	5.18	-2.17	-0.0175	0.2737	-0.1903	
0.033916	-1.067256	0.116998	-25.34	5.81	-1.19	-0.0056	0.2726	-0.1826	
0	-1.061278	0.079544	-18.55	5.04	0.14	-0.0071	0.2809	-0.1884	
0.016714	-1.056154	0.096014	-19.04	-0.7	0.07	-0.0116	0.28	-0.1775	
0.02257	-1.065182	0.07015	-14.77	1.33	1.4	-0.0101	0.2784	-0.1807	
0.028914	-1.069696	0.068564	-14.21	0.7	1.4	-0.0072	0.2888	-0.1739	
0.01769	-1.067378	0.06527	-11.34	4.06	2.8	-0.0102	0.2904	-0.1707	
-0.002928	-1.048834	0.079178	-7.77	2.03	1.61	-0.0102	0.2802	-0.1744	
0.011346	-1.010038	0.105042	-6.44	-1.33	1.4	-0.0132	0.2788	-0.1744	
0.028304	-0.995032	0.109312	-5.18	0.77	0.84	-0.0103	0.2878	-0.1661	
0.047214	-0.9882	0.082106	-2.38	2.87	-0.07	-0.0102	0.2901	-0.177	
0.045872	-1.003938	0.084424	-1.96	3.85	-1.54	-0.0057	0.2817	-0.1712	
0.024034	-1.036512	0.105408	-3.43	1.75	-1.96	-0.0027	0.2875	-0.1709	
0.011956	-1.049444	0.093086	-2.66	1.89	-1.75	-0.0013	0.2879	-0.1631	
0.010248	-1.053714	0.076128	0.21	1.96	-0.49	-0.0042	0.2902	-0.1755	
0.031964	-1.078602	0.06588	5.18	0.42	0.35	-0.0133	0.2838	-0.1601	
0.028548	-1.074698	0.07076	10.01	0	0.77	-0.0103	0.2907	-0.1644	
0.015494	-1.049932	0.078934	12.39	0.56	-0.28	-0.0012	0.2916	-0.1754	
0.02318	-1.052006	0.0976	13.86	-0.63	0.14	-0.004	0.278	-0.1886	
0.02745	-1.048346	0.096258	18.62	1.05	0.49	-0.0042	0.29	-0.1786	
0.030622	-1.035658	0.106506	21.28	1.89	0.91	-0.0027	0.2789	-0.1698	
0.032818	-1.026874	0.125538	21.7	2.31	0.98	0.0018	0.2727	-0.1795	
0.024888	-1.001498	0.127978	24.57	2.73	0.7	0.0004	0.2751	-0.1888	
0.01952	-0.975146	0.15616	23.94	3.15	0.35	-0.0071	0.2727	-0.1795	
0.022082	-0.968802	0.167872	24.57	1.68	-0.07	-0.0025	0.2735	-0.192	
0.020374	-0.99003	0.161406	24.92	4.41	0.21	-0.0025	0.2693	-0.1906	
0.022326	-1.013576	0.158112	23.87	4.2	0.77	-0.0054	0.2633	-0.1956	
0.000122	-1.029802	0.157136	27.16	8.12	1.33	-0.0083	0.2642	-0.2065	
0.005856	-1.021262	0.168238	28.49	0.84	-0.77	-0.0068	0.2601	-0.2036	
0.008662	-1.015406	0.194834	29.19	2.94	-0.77	-0.0054	0.2602	-0.2005	
0.007198	-1.005646	0.195688	31.29	2.17	-0.42	-0.0037	0.2551	-0.2164	
0.007198	-1.003084	0.190442	36.26	6.65	-0.42	0.0066	0.2571	-0.2039	
0.01342	-0.99918	0.169092	41.09	4.62	-0.77	-0.0037	0.2437	-0.2154	
-0.002196	-0.995032	0.167384	44.73	4.06	0.42	0.0008	0.2393	-0.2157	
-0.0122	-0.99247	0.192882	44.8	6.58	-0.35	-0.002	0.2343	-0.23	
-0.000122	-0.973072	0.200934	48.37	2.31	-1.47	0.0025	0.2294	-0.2413	
0.02501	-0.949404	0.239486	49.91	-0.42	-1.26	0.0025	0.2265	-0.2414	
0.023424	-0.932812	0.249002	54.95	3.43	-1.33	-0.0002	0.2146	-0.2514	
0.01769	-0.913536	0.27633	52.22	4.27	-0.42	0.0027	0.2132	-0.2499	
0.011346	-0.896456	0.281698	49.35	0.84	-0.91	-0.0047	0.2201	-0.2573	
0.004026	-0.917562	0.313784	46.76	-2.17	-2.52	-0.0061	0.1981	-0.2663	
-0.0061	-0.916586	0.294264	47.53	-1.68	-0.98	0.0013	0.1925	-0.262	
0.006344	-0.90585	0.307562	48.51	-3.5	1.26	-0.0016	0.1971	-0.257	
0.01464	-0.881084	0.331352	54.88	-0.14	3.36	-0.0015	0.192	-0.2713	
0.02989	-0.831552	0.389546	55.37	-2.38	3.85	-0.0013	0.1772	-0.2815	
0.034526	-0.80581	0.411872	56.77	-3.01	1.33	-0.0072	0.1612	-0.2854	
0.037698	-0.797636	0.434442	58.17	-7.84	-3.29	0.0033	0.1548	-0.2968	
0.042578	-0.785314	0.495198	61.32	-7.98	-4.76	-0.0116	0.1478	-0.2955	
0.033062	-0.755912	0.505324	65.1	-2.66	-4.55	-0.0085	0.133	-0.3041	
0.030988	-0.74359	0.526674	67.06	-3.22	-3.22	-0.0145	0.1301	-0.3042	
0.020862	-0.734684	0.547292	67.41	-3.43	-3.5	-0.0053	0.1207	-0.3204	
0.012078	-0.716384	0.554124	68.74	-3.01	-5.18	-0.0112	0.1065	-0.3164	
0.022204	-0.691008	0.580842	69.58	-4.41	-5.32	-0.0081	0.0989	-0.3247	
0.022936	-0.652822	0.58865	69.65	-4.55	-4.48	-0.0126	0.0916	-0.3281	
0.03355	-0.634034	0.601948	69.3	-5.6	-4.13	-0.007999999	0.0782	-0.3351	
0.026108	-0.6283	0.600972	72.59	-5.04	-6.02	-0.0079	0.0708	-0.3402	
0.019886	-0.615978	0.610366	75.32	-4.62	-6.79	-0.0108	0.0549	-0.3426	
0.038918	-0.5734	0.641232	74.06	-6.79	-5.53	-0.0168	0.0492	-0.3413	
0.032208	-0.55632	0.685762	72.87	-8.68	-5.25	-0.0167	0.0276	-0.3424	
0.024522	-0.549366	0.699792	73.78	-8.96	-4.34	-0.0137	0.0321	-0.3391	
0.037454	-0.538874	0.74542	74.13	-10.01	-4.27	-0.012	0.0222	-0.3646	
0.049654	-0.493734	0.765428	77.07	-5.6	-2.59	-0.0195	0.013	-0.3478	
0.05856	-0.441274	0.80093	75.18	-7.14	-2.59	-0.0194	-0.0004	-0.3579	
0.073688	-0.418826	0.817644	75.18	-7.28	-2.94	-0.0178	-0.0203	-0.3543	
0.081374	-0.396744	0.854732	73.5	-5.04	-2.24	-0.0268	-0.0163	-0.3618	
0.078446	-0.366244	0.847046	76.09	-1.61	-3.43	-0.0207	-0.0363	-0.3567	
0.07686	-0.333792	0.858026	72.1	-0.07	-4.13	-0.0222	-0.0408	-0.3616	
0.070882	-0.330254	0.877912	71.05	0.91	-4.2	-0.0205	-0.0598	-0.3673	
0.064294	-0.299754	0.882548	72.8	4.34	-3.71	-0.0266	-0.0667	-0.3613	
0.061488	-0.26352	0.901214	70.56	1.19	-4.97	-0.0175	-0.0769	-0.3635	
0.085888	-0.233508	0.946232	65.52	-2.1	-4.83	-0.0174	-0.0966	-0.3551	
0.103944	-0.20069	0.950014	64.19	1.19	-5.18	-0.0129	-0.0982	-0.3568	
0.09882	-0.178852	0.95953	62.37	3.43	-6.23	-0.0248	-0.1129	-0.3653	
0.076738	-0.165554	0.963556	58.59	4.06	-7.28	-0.0278	-0.1185	-0.3625	
0.07869	-0.143838	0.98759	53.27	0.7	-5.74	-0.0247	-0.1342	-0.3602	
0.081496	-0.13359	0.99491	51.94	2.1	-5.74	-0.0141	-0.1376	-0.3683	
0.09821	-0.122854	1.01809	48.72	-1.05	-4.48	-0.0216	-0.1432	-0.3669	
0.105652	-0.109312	1.03456	44.8	-0.84	-5.04	-0.0202	-0.1527	-0.3549	
0.102968	-0.08601	1.054202	39.83	-0.56	-4.27	-0.0171	-0.1656	-0.3541	
0.108336	-0.078934	1.057984	37.1	-0.14	-3.99	-0.0154	-0.1793	-0.3689	
0.110166	-0.066002	1.055056	33.6	0.7	-3.64	-0.0245	-0.1748	-0.367	
0.107482	-0.060024	1.049444	29.12	1.26	-3.43	-0.017	-0.1729	-0.356	
0.104676	-0.057096	1.042612	26.46	1.19	-2.8	-0.0185	-0.183	-0.3565	
0.09028	-0.051362	1.053104	21.84	1.82	-1.89	-0.0276	-0.1824	-0.3455	
0.085644	-0.050508	1.051274	19.53	-0.21	-1.47	-0.026	-0.1897	-0.3474	
0.087962	-0.050874	1.06628	16.73	-1.82	-0.91	-0.023	-0.187	-0.3504	
0.101016	-0.037942	1.086898	12.74	-4.2	0	-0.0185	-0.1845	-0.3582	
0.110044	-0.020618	1.09556	9.66	-3.29	0.42	-0.0185	-0.1832	-0.3597	
0.114558	-0.017812	1.10654	5.32	-2.94	0.77	-0.0289	-0.1958	-0.3811	
0.114924	-0.0122	1.107638	1.12	-1.82	1.19	-0.029	-0.19	-0.3537	
0.114802	-0.00427	1.094096	-1.61	0.28	0.84	-0.014	-0.1943	-0.3509	
0.098088	-0.013908	1.090558	-6.37	0.35	0.84	-0.026	-0.1956	-0.3493	
0.097966	-0.017202	1.087386	-11.27	-0.21	1.26	-0.0199	-0.2001	-0.3527	
0.097844	-0.02745	1.084092	-17.78	0.14	1.54	-0.02	-0.1968	-0.3447	
0.083204	-0.040138	1.066402	-19.88	1.54	1.89	-0.0169	-0.1931	-0.3571	
0.090524	-0.04697	1.063474	-24.01	-0.14	2.24	-0.0245	-0.1856	-0.3503	
0.100284	-0.051728	1.069574	-28.49	-1.47	2.24	-0.02	-0.1854	-0.3472	
0.099552	-0.06161	1.077138	-32.9	-1.89	2.45	-0.0245	-0.1843	-0.355	
0.104188	-0.061732	1.083238	-37.31	-2.1	3.01	-0.0155	-0.1744	-0.3577	
0.104066	-0.070516	1.065792	-39.9	0.07	2.45	-0.0171	-0.1728	-0.3544	
0.09821	-0.089304	1.056642	-44.73	0.91	1.96	-0.0216	-0.1659	-0.3603	
0.092964	-0.097966	1.034194	-47.95	2.73	1.96	-0.0187	-0.1583	-0.3505	
0.087352	-0.11468	1.024312	-52.57	2.03	2.24	-0.0172	-0.1457	-0.3593	
0.08479	-0.138836	1.009428	-56.49	1.68	2.24	-0.0156	-0.1418	-0.3669	
0.079544	-0.173606	0.986614	-58.66	2.17	2.66	-0.0202	-0.1415	-0.3606	
0.07808	-0.201422	0.972096	-61.32	1.33	3.01	-0.0262	-0.1232	-0.3705	
0.078202	-0.208498	0.957578	-63.7	0.98	2.8	-0.0218	-0.11	-0.3636	
0.06649	-0.218258	0.951112	-67.41	0.42	2.66	-0.0188	-0.1069	-0.3604	
0.078934	-0.250588	0.926102	-70.7	-1.4	3.99	-0.025	-0.0867	-0.3593	
0.077714	-0.278038	0.895968	-73.01	-0.07	4.34	-0.0174	-0.0743	-0.3696	
0.06649	-0.30195	0.877668	-76.23	-2.03	3.29	-0.019	-0.0629	-0.3721	
0.06649	-0.332694	0.865468	-77.7	-3.78	3.85	-0.0221	-0.0651	-0.3581	
0.069052	-0.366732	0.842898	-78.4	-2.94	5.39	-0.0252	-0.0422	-0.3616	
0.072468	-0.389668	0.81618	-78.82	-3.78	6.58	-0.0192	-0.0364	-0.3582	
0.079544	-0.4087	0.801662	-79.38	-4.48	6.79	-0.0253	-0.0235	-0.3606	
0.08967	-0.433222	0.776408	-79.94	-3.43	7.21	-0.0255	0.0001	-0.3469	
0.096624	-0.470188	0.753472	-78.75	-1.05	7.35	-0.0239	0.0026	-0.3546	
0.08174	-0.483608	0.69418	-79.87	-0.42	6.58	-0.033	0.0157	-0.3523	
0.078324	-0.52582	0.699182	-83.09	-3.99	7.07	-0.0316	0.0271	-0.3533	
0.069784	-0.569618	0.680028	-81.55	-0.98	7.77	-0.0182	0.0362	-0.3435	
0.080276	-0.58743	0.647454	-79.03	-1.61	8.47	-0.0229	0.0497	-0.3318	
0.084912	-0.606584	0.629886	-77	-0.49	8.54	-0.0244	0.0638	-0.3373	
0.069052	-0.630008	0.620248	-75.32	0.14	9.31	-0.0199	0.0739	-0.3368	
0.052948	-0.62891	0.599508	-74.55	2.73	10.01	-0.0141	0.08899999	-0.322	
0.034892	-0.657336	0.52704	-75.18	2.45	8.26	-0.0171	0.0933	-0.3217	
0.032696	-0.72346	0.510936	-78.05	1.61	7.84	-0.0186	0.0948	-0.3217	
0.014518	-0.758718	0.492026	-77	-0.42	7.14	-0.0263	0.1066	-0.3147	
0.026474	-0.775554	0.501786	-76.72	-3.22	7.7	-0.0249	0.1272	-0.3058	
0.03965	-0.774822	0.466894	-71.96	-0.91	8.19	-0.013	0.1375	-0.2991	
0.047946	-0.792512	0.437004	-71.33	3.08	7.42	-0.0191	0.1447	-0.3003	
0.02745	-0.862418	0.373076	-70.35	8.26	7	-0.0223	0.1629	-0.2821	
-0.01952	-0.915488	0.34404	-69.16	7.42	5.88	-0.0118	0.1658	-0.2805	
-0.04148	-0.918538	0.323544	-64.61	3.99	5.39	-0.0089	0.1732	-0.2754	
-0.022204	-0.89121	0.311344	-57.12	4.06	6.16	-0.0119	0.1775	-0.2751	
0.0061	-0.853878	0.313418	-53.97	3.36	6.09	-0.009	0.1881	-0.2652	
0.016104	-0.845582	0.313052	-53.97	0.07	3.92	-0.0105	0.1938	-0.2665	
-0.013542	-0.884134	0.29036	-54.53	0.42	1.61	-0.0106	0.1985	-0.2584	
0.015616	-0.912926	0.279868	-56.14	-2.8	1.19	-0.0138	0.2121	-0.2436	
0.04758	-0.91561	0.267912	-52.29	-2.66	0.7	-0.0108	0.2161	-0.2512	
0.039528	-0.900848	0.245708	-47.46	2.31	1.4	-0.0139	0.2237	-0.243	
-0.016714	-0.935862	0.21716	-43.61	5.11	3.22	-0.0065	0.2354	-0.2377	
-0.010736	-0.972584	0.208132	-46.83	-1.54	3.22	-0.0066	0.2446	-0.2263	
0.008905999	-0.981978	0.200446	-44.87	-5.04	2.1	-0.0112	0.245	-0.2184	
0.014274	-0.991372	0.17568	-40.25	-4.48	1.89	-0.0113	0.2583	-0.2115	
-0.00671	-1.008696	0.167384	-33.67	-1.19	2.66	-0.0052	0.2547	-0.2242	
-0.000854	-1.003206	0.168238	-32.62	-1.47	3.43	-0.0128	0.2582	-0.213	
0.026352	-0.995032	0.1708	-32.2	-4.13	2.24	-0.0112	0.2482	-0.212	
0.027694	-0.989908	0.1586	-32.34	-2.17	0.91	-0.0009	0.259	-0.1943	
0.028548	-1.00772	0.149328	-31.01	-3.5	0.35	-0.0084	0.2604	-0.1973	
0.03111	-1.017724	0.133956	-30.8	-3.78	0.28	-0.0085	0.2748	-0.1966	
0.002318	-1.067256	0.082594	-24.08	-0.91	0.28	-0.0055	0.2721	-0.192	
-0.006588	-1.083848	0.087962	-20.44	-2.94	0.84	-0.0011	0.2813	-0.1806	
-0.008417999	-1.068232	0.079544	-16.73	-2.73	1.12	-0.0116	0.2672	-0.175	
0.00488	-1.104832	0.09882	-17.5	-3.01	1.54	-0.0101	0.277	-0.1808	
-0.003172	-1.095072	0.087474	-11.27	-2.45	1.82	-0.008599999	0.2782	-0.1854	
0.00915	-1.087874	0.09272	-8.05	-2.8	1.82	-0.0176	0.2783	-0.1838	
0.017324	-1.065426	0.101504	-4.55	0.77	1.19	-0.0101	0.2801	-0.1759	
0.01769	-1.015772	0.108092	-0.35	4.83	0.98	-0.0057	0.2843	-0.1773	
0.014396	-0.994056	0.105042	0.07	6.3	0.21	-0.0011	0.2842	-0.1789	
0.024034	-0.985638	0.099308	-1.26	5.67	-1.19	-0.0071	0.2796	-0.1869	
0.013054	-0.999058	0.093452	-0.98	5.25	-2.45	-0.0011	0.2843	-0.1773	
-0.010004	-1.020896	0.096502	0.35	5.53	-2.52	-0.008599999	0.2773	-0.1745	
-0.005002	-1.01321	0.108824	0.49	2.59	-2.66	-0.0011	0.2756	-0.1794	
-0.002806	-1.01382	0.114802	0.07	1.61	-2.87	-0.0011	0.2811	-0.1838	
0.000976	-1.031754	0.104188	2.24	0.84	-3.08	0.0017	0.29	-0.1786	
-0.00305	-1.061034	0.109312	6.37	0.28	-3.15	-0.0101	0.2756	-0.1793	
-0.007686	-1.062132	0.127368	7.35	1.47	-2.24	-0.0041	0.2756	-0.1793	
0.004026	-1.034194	0.132126	12.11	0.7	-2.66	-0.0011	0.2788	-0.1729	
0.011834	-1.015772	0.14762	14.49	-1.19	-4.13	-0.0041	0.2742	-0.1794	
0.010614	-1.019798	0.146156	17.71	1.4	-4.97	0.0019	0.2781	-0.1855	
0.016592	-1.024922	0.142496	20.86	1.96	-4.27	-0.0025	0.2711	-0.1827	
0.04209	-1.01138	0.15921	24.57	2.38	-4.69	-0.0115	0.2709	-0.1889	
0.035868	-0.99247	0.169214	25.83	3.01	-6.16	-0.0039	0.2662	-0.1955	
0.021228	-1.000156	0.190808	25.13	4.2	-6.72	-0.0084	0.2644	-0.2034	
0.012688	-0.990274	0.193614	26.67	4.69	-5.32	-0.0024	0.2673	-0.2017	
0.02135	-0.982466	0.197152	27.65	4.41	-4.06	-0.0023	0.254	-0.2086	
0.02257	-0.997838	0.201178	28.21	3.57	-3.57	-0.0023	0.2542	-0.2055	
0.032208	-0.993934	0.21289	25.06	7.14	-2.73	-0.0067	0.2538	-0.2133	
0.027816	-1.00467	0.203618	29.75	4.83	-3.15	-0.0036	0.2489	-0.2261	
0.019642	-1.005524	0.221064	30.45	4.76	-3.08	-0.0066	0.2463	-0.22	
0.025498	-0.991738	0.245586	30.8	2.52	-3.43	-0.0051	0.2432	-0.2248	
0.038064	-0.96624	0.277184	31.36	1.26	-3.36	-0.0125	0.2429	-0.2326	
0.03965	-0.957578	0.281698	30.8	2.66	-4.06	-0.0066	0.2416	-0.228	
0.032696	-0.946964	0.278038	32.06	3.08	-4.41	-0.0125	0.2289	-0.224	
0.023912	-0.934886	0.283162	31.92	4.27	-4.55	-0.0153	0.2235	-0.2477	
0.01891	-0.923418	0.297192	31.43	3.78	-4.83	-0.0093	0.2276	-0.2506	
0.018666	-0.919636	0.30439	32.9	2.52	-5.25	-0.0079	0.2293	-0.2443	
0.03904	-0.908168	0.332084	31.57	3.15	-4.27	-0.0032	0.2076	-0.247	
0.042212	-0.88694	0.33489	34.93	4.97	-3.85	-0.0168	0.2147	-0.2497	
0.03904	-0.87047	0.358802	32.9	1.96	-3.78	-0.0122	0.2159	-0.2544	
0.021716	-0.870592	0.375516	29.89	0.77	-4.34	-0.0047	0.2003	-0.2505	
0.030866	-0.86376	0.388326	27.51	1.54	-4.06	-0.0122	0.1986	-0.2553	
0.053192	-0.873032	0.407114	24.85	1.54	-3.08	-0.003	0.2007	-0.2709	
0.07625	-0.86437	0.434686	24.99	2.52	-3.01	-0.003	0.1921	-0.2698	
0.080886	-0.837286	0.42273	28.7	6.51	-4.13	-0.0105	0.1935	-0.2712	
0.081008	-0.817644	0.43676	30.8	6.16	-5.95	-0.0119	0.1792	-0.2704	
0.0793	-0.807274	0.466528	31.64	5.11	-8.12	-0.009	0.1891	-0.273	
0.062098	-0.811788	0.502152	30.94	3.64	-9.52	-0.0074	0.1806	-0.2703	
0.060268	-0.807518	0.529114	29.54	2.45	-9.66	-0.0045	0.1849	-0.2701	
0.068198	-0.808982	0.55754	30.73	3.43	-8.61	-0.0103	0.1615	-0.2791	
0.063928	-0.801174	0.549854	33.32	5.81	-6.23	-0.0073	0.1585	-0.2809	
0.07869	-0.77592	0.572058	32.62	5.18	-3.57	-0.0073	0.1701	-0.2803	
0.07905599	-0.701378	0.590358	30.03	6.37	-2.59	-0.0101	0.1534	-0.2983	
0.058682	-0.694302	0.583282	26.74	7.28	-4.13	0.0048	0.151	-0.2876	
0.0549	-0.709552	0.584258	23.94	6.58	-5.11	-0.0071	0.1423	-0.2895	
0.058926	-0.698206	0.583038	22.05	3.99	-5.67	-0.0101	0.142	-0.2958	
0.085278	-0.710162	0.605608	18.76	0.35	-5.04	-0.01	0.1419	-0.2989	
0.10004	-0.729194	0.624396	18.62	0.7	-3.78	-0.0145	0.1331	-0.3009	
0.09272	-0.74359	0.637694	18.55	0.63	-2.73	-0.0009999999	0.1375	-0.2992	
0.079666	-0.73322	0.639768	17.5	0.21	-1.47	-0.0055	0.1373	-0.3039	
0.08845	-0.72407	0.66185	16.31	-1.54	0.42	-0.0174	0.1327	-0.3103	
0.077104	-0.710894	0.671	16.59	-0.7	2.1	-0.0009	0.123	-0.3015	
0.06344	-0.689178	0.654896	15.26	0.84	3.78	-0.0144	0.1297	-0.312	
0.063196	-0.685762	0.655384	12.11	-0.42	4.48	-0.0144	0.1281	-0.3153	
0.059658	-0.695644	0.649772	8.47	-1.33	4.27	-0.0053	0.1184	-0.308	
0.062342	-0.706868	0.652578	4.48	-3.71	3.99	-0.0009	0.1257	-0.3045	
0.072834	-0.716018	0.652822	2.31	-3.85	4.2	-0.0053	0.1182	-0.3127	
0.076494	-0.728096	0.657336	1.96	-2.59	4.27	-0.0129	0.1243	-0.3061	
0.094184	-0.721996	0.671976	1.96	-0.91	4.34	-0.0128	0.1221	-0.3203	
0.095892	-0.7198	0.667706	1.4	2.52	4.34	-0.0039	0.1184	-0.3065	
0.07905599	-0.712236	0.654896	0.14	5.88	4.41	-0.0129	0.1241	-0.3092	
0.063806	-0.725778	0.644038	-3.15	6.02	3.99	-0.0099	0.1296	-0.3136	
0.068564	-0.7381	0.650016	-5.11	5.46	4.55	-0.0143	0.125	-0.3217	
0.080886	-0.73078	0.648918	-6.02	6.93	5.88	-0.0068	0.1182	-0.3111	
0.08845	-0.727852	0.636962	-6.37	7.98	7.35	0.0081	0.1169	-0.3082	
0.094306	-0.727974	0.631716	-6.09	10.43	9.66	-0.0039	0.1268	-0.3123	
0.087596	-0.737368	0.626714	-7.42	11.83	12.53	0.0005	0.1283	-0.3107	
0.077714	-0.742126	0.608414	-6.86	12.74	13.65	-0.0039	0.1243	-0.3046	
0.07124799	-0.749812	0.604754	-8.4	12.67	14.77	0.0126	0.1222	-0.3158	
0.061	-0.748348	0.598532	-10.43	11.2	16.31	0.0156	0.1337	-0.3168	
0.06039	-0.75945	0.600972	-12.32	8.89	18.41	0.0125	0.1285	-0.3061	
0.053924	-0.786656	0.58621	-10.5	10.22	19.39	0.0125	0.1357	-0.3041	
0.051362	-0.79178	0.59536	-11.13	8.75	22.4	0.02	0.1353	-0.312	
0.040382	-0.776042	0.600728	-10.64	8.47	25.76	0.0274	0.1458	-0.3037	
0.032696	-0.76433	0.595116	-12.25	9.45	27.09	0.0275	0.1442	-0.3053	
0.03172	-0.770674	0.592432	-14.98	7.56	26.95	0.0304	0.1462	-0.2943	
0.027206	-0.76799	0.58621	-15.19	7.91	26.53	0.0409	0.1471	-0.3037	
0.028182	-0.781654	0.579988	-15.47	10.29	27.02	0.0379	0.143	-0.3008	
0.01586	-0.794952	0.559492	-14.35	13.3	28.14	0.0393	0.1477	-0.2912	
-0.016104	-0.793976	0.548024	-14.63	16.94	30.38	0.0545	0.1499	-0.3053	
-0.048922	-0.817644	0.512888	-13.37	18.97	28.56	0.0574	0.1587	-0.3017	
-0.059658	-0.845704	0.511302	-14.07	17.29	29.68	0.0544	0.1487	-0.2991	
-0.076738	-0.826672	0.51789	-10.5	17.29	31.29	0.0559	0.156	-0.2971	
-0.104798	-0.80886	0.500322	-5.95	23.73	31.43	0.0679	0.1546	-0.2957	
-0.160064	-0.823378	0.458964	-6.23	26.74	30.87	0.07539999	0.1617	-0.2954	
-0.186538	-0.867908	0.451644	-11.62	19.32	29.96	0.0829	0.1575	-0.2926	
-0.199592	-0.885842	0.467504	-12.04	12.32	30.59	0.083	0.1513	-0.3023	
-0.193248	-0.86254	0.483486	-7.49	14.07	31.64	0.0874	0.1645	-0.2969	
-0.18361	-0.816424	0.474458	-1.12	18.69	32.41	0.0949	0.1589	-0.2926	
-0.209352	-0.793	0.46421	-0.35	21.49	32.41	0.1039	0.1576	-0.288	
-0.232044	-0.793488	0.455182	-2.45	21	30.8	0.1159	0.1617	-0.2926	
-0.254736	-0.814716	0.454328	-5.74	19.53	29.96	0.1189	0.1617	-0.2926	
-0.279624	-0.841312	0.447008	-4.76	17.29	30.24	0.131	0.1584	-0.2991	
-0.287188	-0.829966	0.466772	-2.94	17.29	34.3	0.1219	0.1645	-0.2925	
-0.293898	-0.802638	0.465064	1.89	22.19	34.65	0.131	0.1558	-0.2946	
-0.301584	-0.778482	0.449448	4.83	23.24	32.55	0.143	0.1571	-0.2962	
-0.339038	-0.768478	0.450912	7.07	23.38	31.99	0.149	0.1601	-0.2929	
-0.395158	-0.778116	0.454816	4.62	20.16	31.43	0.155	0.1529	-0.2918	
-0.436394	-0.815692	0.467992	2.66	18.83	32.27	0.149	0.1501	-0.2903	
-0.42822	-0.82045	0.467138	5.6	14.42	30.31	0.1625	0.1501	-0.2904	
-0.424072	-0.754692	0.475678	8.47	14.84	30.31	0.1626	0.1482	-0.2999	
-0.432734	-0.71858	0.466406	9.8	15.75	28.84	0.1686	0.1427	-0.2924	
-0.443592	-0.72407	0.47336	7.77	12.25	27.37	0.1745	0.1514	-0.292	
-0.447862	-0.725656	0.492392	5.46	9.24	26.18	0.173	0.1503	-0.2842	
-0.454084	-0.73261	0.47885	8.26	10.64	23.24	0.1807	0.1409	-0.3004	
-0.474458	-0.730658	0.49654	7.28	5.81	18.69	0.1821	0.1368	-0.2944	
-0.470432	-0.70638	0.510814	6.93	6.51	17.85	0.1896	0.1442	-0.2894	
-0.489708	-0.708942	0.509228	7	9.52	16.52	0.1912	0.1365	-0.3008	
-0.524478	-0.734074	0.497638	6.72	9.73	15.47	0.2002	0.1396	-0.2944	
-0.53558	-0.73078	0.492636	5.18	7.98	13.93	0.2017	0.1297	-0.2918	
-0.528382	-0.722362	0.506544	3.71	3.92	12.25	0.1957	0.1295	-0.2965	
-0.527162	-0.684542	0.489464	6.51	4.83	9.66	0.1972	0.1396	-0.2944	
-0.532896	-0.67588	0.489342	4.06	2.52	7	0.2078	0.1361	-0.3072	
-0.53985	-0.688446	0.508374	1.89	-0.7	5.11	0.2002	0.1267	-0.2935	
-0.534116	-0.706014	0.515694	0.77	-2.1	3.22	0.2062	0.1269	-0.2889	
-0.532774	-0.691984	0.509228	1.68	-2.31	1.47	0.2018	0.1235	-0.2999	
-0.525942	-0.673684	0.503128	1.12	-3.57	-0.77	0.2048	0.1237	-0.2953	
-0.534726	-0.680638	0.514352	1.82	-4.2	-4.2	0.2122	0.1339	-0.2917	
-0.545096	-0.675758	0.518378	1.33	-4.97	-7.84	0.2003	0.1237	-0.2968	
-0.547658	-0.699426	0.507154	1.4	-6.37	-11.55	0.2017	0.1267	-0.2935	
-0.542778	-0.699182	0.52094	0.98	-8.75	-13.79	0.1957	0.1311	-0.2932	
-0.517524	-0.670756	0.533628	-0.7	-12.18	-18.34	0.1912	0.1353	-0.2961	
-0.495686	-0.660996	0.535336	-2.38	-13.72	-22.4	0.1867	0.134	-0.293	
-0.49227	-0.665144	0.515816	-3.01	-10.22	-25.9	0.1867	0.1335	-0.3024	
-0.479094	-0.683444	0.505568	-4.48	-15.54	-30.59	0.1822	0.1297	-0.2932	
-0.453596	-0.67893	0.522404	-5.6	-15.05	-31.5	0.1852	0.1351	-0.2992	
-0.453474	-0.684298	0.511302	-5.53	-13.02	-34.37	0.1852	0.1354	-0.2945	
-0.441396	-0.702842	0.507886	-6.16	-16.94	-40.39	0.1852	0.1353	-0.2961	
-0.415044	-0.704428	0.518988	-8.89	-16.45	-40.39	0.1671	0.1484	-0.2937	
-0.396134	-0.723704	0.490318	-6.3	-14.35	-41.93	0.1536	0.1413	-0.294	
-0.40016	-0.737734	0.484828	-6.02	-15.4	-40.95	0.1535	0.1457	-0.2922	
-0.391498	-0.748104	0.481412	-5.6	-17.78	-40.95	0.1476	0.1426	-0.297	
-0.359046	-0.745298	0.49776	-7.84	-23.87	-41.23	0.1445	0.1571	-0.2946	
-0.327326	-0.7442	0.506422	-6.58	-23.66	-43.54	0.1445	0.1474	-0.2873	
-0.306952	-0.75091	0.48861	-6.23	-22.82	-45.71	0.1325	0.157	-0.2977	
-0.2928	-0.771528	0.493246	-4.9	-21.56	-46.62	0.125	0.1553	-0.304	
-0.242292	-0.768478	0.506056	-6.23	-27.3	-47.88	0.1025	0.1558	-0.2975	
-0.21411	-0.759206	0.514962	-4.83	-24.85	-48.79	0.0994	0.1618	-0.2909	
-0.199226	-0.76616	0.490684	-1.19	-21.91	-50.82	0.0828	0.1705	-0.2919	
-0.178486	-0.776164	0.493368	-2.87	-25.55	-52.43	0.0784	0.1614	-0.3033	
-0.165188	-0.792512	0.494466	-3.36	-25.76	-52.99	0.0799	0.1604	-0.2924	
-0.146644	-0.804224	0.487878	-1.47	-25.34	-53.76	0.0678	0.1648	-0.2921	
-0.112728	-0.781654	0.511424	-2.03	-30.73	-53.34	0.0543	0.1594	-0.286	
-0.054534	-0.777018	0.510204	0.35	-29.75	-56.49	0.0439	0.1615	-0.303	
-0.010736	-0.765916	0.511302	1.75	-29.47	-58.66	0.0378	0.1606	-0.2936	
0.009516	-0.7686	0.519476	-0.21	-27.93	-60.2	0.0258	0.1634	-0.2965	
0.023546	-0.781288	0.51301	-2.03	-27.23	-60.97	0.0212	0.1637	-0.2902	
0.042822	-0.802638	0.503616	-3.43	-25.76	-60.76	0.0153	0.1551	-0.2906	
0.05795	-0.81679	0.496174	-3.36	-25.55	-59.43	0.0017	0.1639	-0.2885	
0.058194	-0.833016	0.465552	0.42	-24.85	-56.28	-0.0102	0.1554	-0.2873	
0.06734399	-0.796538	0.473848	-0.35	-31.22	-52.78	-0.0117	0.1523	-0.2905	
0.153232	-0.742248	0.473726	-2.8	-38.57	-54.25	-0.0237	0.1526	-0.2857	
0.198494	-0.750178	0.484828	-3.71	-37.59	-55.16	-0.0388	0.1531	-0.2778	
0.23058	-0.778848	0.481046	-6.16	-34.02	-52.43	-0.0447	0.1511	-0.2904	
0.242658	-0.79117	0.485682	-4.34	-36.12	-52.01	-0.0568	0.1472	-0.2826	
0.256444	-0.766038	0.487756	-1.54	-33.04	-50.96	-0.0583	0.1486	-0.2826	
0.27023	-0.74786	0.454572	8.4	-29.4	-54.6	-0.0734	0.1506	-0.273	
0.324886	-0.752618	0.462624	4.13	-34.58	-52.22	-0.0853	0.146	-0.2809	
0.384788	-0.777628	0.501908	-1.33	-34.93	-53.06	-0.0914	0.1506	-0.2744	
0.376248	-0.764086	0.457744	2.24	-28.63	-52.64	-0.0988	0.1403	-0.2795	
0.36417	-0.760182	0.454206	-5.74	-28.07	-45.92	-0.1078	0.1292	-0.2722	
0.375272	-0.746518	0.446764	-6.16	-25.69	-41.65	-0.1184	0.1366	-0.2702	
0.414434	-0.745786	0.441396	-2.17	-29.75	-42.7	-0.1304	0.134	-0.264	
0.437858	-0.748958	0.454206	-3.71	-30.73	-44.45	-0.1259	0.1396	-0.2669	
0.467382	-0.755912	0.461282	-2.31	-30.52	-41.72	-0.1319	0.1284	-0.2627	
0.47885	-0.761402	0.450302	-4.13	-25.27	-39.76	-0.1484	0.1241	-0.2628	
0.532408	-0.792146	0.46116	-8.4	-31.78	-41.16	-0.1515	0.1275	-0.2532	
0.55754	-0.77287	0.459818	0.77	-17.01	-39.69	-0.165	0.1188	-0.2551	
0.546438	-0.758474	0.437004	0.84	-13.37	-38.15	-0.168	0.1177	-0.2489	
0.542656	-0.740906	0.419314	3.57	-9.31	-36.26	-0.1634	0.1144	-0.2569	
0.526552	-0.742492	0.396622	6.37	-6.23	-34.09	-0.1709	0.1142	-0.2616	
0.51362	-0.724558	0.385886	9.45	-7.14	-32.13	-0.183	0.1187	-0.2597	
0.529968	-0.702354	0.390644	6.58	-12.81	-31.43	-0.1754	0.1101	-0.2586	
0.560346	-0.699304	0.426146	4.69	-16.24	-30.45	-0.1904	0.1029	-0.2605	
0.570228	-0.715286	0.415532	7	-14.84	-28.84	-0.198	0.1032	-0.2541	
0.582428	-0.734074	0.428952	5.6	-15.82	-25.41	-0.1919	0.0975	-0.2513	
0.581818	-0.723826	0.426756	7.98	-16.03	-22.33	-0.1965	0.09209999	-0.2453	
0.592676	-0.701012	0.427	9.73	-16.59	-19.67	-0.1964	0.0961	-0.2514	
0.615734	-0.682102	0.451034	8.12	-17.92	-16.73	-0.2069	0.0847	-0.2503	
0.652822	-0.68381	0.460794	6.37	-16.45	-15.05	-0.213	0.0863	-0.2471	
0.661118	-0.675392	0.45323	2.87	-13.72	-13.79	-0.2084	0.0905	-0.25	
0.660874	-0.674782	0.453108	0.35	-11.9	-11.97	-0.2099	0.0858	-0.2581	
0.665876	-0.686494	0.451034	1.96	-8.4	-10.36	-0.213	0.0878	-0.247	
0.669658	-0.673928	0.451644	5.88	-0.77	-7.91	-0.2115	0.0852	-0.2409	
0.662094	-0.681248	0.442982	4.9	0.49	-5.6	-0.222	0.0865	-0.2454	
0.655018	-0.683688	0.44408	4.13	1.26	-2.59	-0.2204	0.0818	-0.2519	
0.650626	-0.680394	0.447374	2.52	1.96	0.42	-0.216	0.0851	-0.244	
0.637328	-0.673196	0.435052	4.62	4.06	2.52	-0.2205	0.0905	-0.2515	
0.656116	-0.689056	0.460794	1.33	0.91	6.09	-0.2174	0.0778	-0.2459	
0.66429	-0.695278	0.477752	0.77	1.47	10.01	-0.2084	0.0831	-0.2535	
0.64965	-0.687958	0.468114	0.98	4.9	13.58	-0.2099	0.0818	-0.252	
0.639158	-0.683566	0.452254	0.63	6.65	16.38	-0.2159	0.0761	-0.2507	
0.640622	-0.684054	0.4575	-0.91	6.58	19.53	-0.2099	0.0916	-0.2578	
0.655506	-0.694424	0.47092	-0.63	7.42	22.96	-0.2174	0.0835	-0.2472	
0.65819	-0.68869	0.486902	-0.7	9.17	27.09	-0.2144	0.0788	-0.2553	
0.64965	-0.679418	0.47336	0.63	15.33	29.26	-0.2009	0.0845	-0.2551	
0.632204	-0.68808	0.464576	-0.84	17.57	31.85	-0.1994	0.0902	-0.2548	
0.6161	-0.699792	0.465918	-1.89	18.9	35	-0.1933	0.08989999	-0.2611	
0.58621	-0.702354	0.463844	-0.28	21.35	40.53	-0.1888	0.0911	-0.2658	
0.555954	-0.688446	0.463234	0.49	23.73	44.31	-0.1784	0.0945	-0.2532	
0.542412	-0.693692	0.458964	-0.63	23.38	47.18	-0.1663	0.1039	-0.2653	
0.53009	-0.703818	0.451278	0.56	24.57	49.35	-0.1738	0.1012	-0.2638	
0.508496	-0.718702	0.44896	0.49	24.5	52.36	-0.1619	0.1142	-0.2601	
0.495076	-0.71858	0.466772	0.42	23.03	54.81	-0.1529	0.1226	-0.266	
0.488488	-0.711138	0.4819	-3.01	21	57.05	-0.1528	0.115	-0.2742	
0.47458	-0.707478	0.481778	-1.4	23.8	58.73	-0.1334	0.1228	-0.2583	
0.446398	-0.723704	0.483486	-4.48	22.96	60.9	-0.1318	0.1192	-0.2741	
0.4026	-0.741272	0.464088	-2.17	28.07	60.41	-0.1183	0.1292	-0.2737	
0.373198	-0.757254	0.44774	-1.19	29.75	60.83	-0.1154	0.138	-0.2702	
0.365878	-0.758596	0.480192	-4.13	24.15	62.23	-0.1064	0.1423	-0.2684	
0.34892	-0.74176	0.51911	-5.6	21.84	64.47	-0.1033	0.132	-0.2737	
0.323788	-0.738466	0.52704	-7.42	26.46	66.43	-0.09739999	0.1477	-0.276	
0.278526	-0.755546	0.473238	-7.35	33.88	64.47	-0.0749	0.1492	-0.273	
0.255346	-0.794342	0.463478	-13.44	28.49	65.03	-0.0718	0.1458	-0.2826	
0.231922	-0.810568	0.536312	-17.01	24.29	65.1	-0.0569	0.1533	-0.2745	
0.184586	-0.803858	0.517036	-17.15	29.68	62.44	-0.0539	0.162	-0.2741	
0.1464	-0.815814	0.45079	-13.72	36.12	62.44	-0.0404	0.1635	-0.271	
0.113216	-0.79605	0.47946	-19.11	27.02	67.55	-0.0329	0.1689	-0.277	
0.084912	-0.77836	0.486292	-14.28	39.2	70.77	-0.0209	0.1662	-0.2725	
0.023668	-0.809958	0.438102	-9.17	49.35	69.44	-0.0073	0.1689	-0.2756	
-0.01647	-0.828746	0.450058	-9.94	48.37	68.46	-0.0059	0.1844	-0.2811	
-0.059292	-0.81374	0.400892	-2.87	50.89	64.96	0.0166	0.1798	-0.2846	
-0.100406	-0.788852	0.397232	-1.82	44.52	63.49	0.0345	0.1845	-0.2751	
-0.13481	-0.77043	0.398696	0.63	46.27	64.26	0.0391	0.18	-0.2785	
-0.171288	-0.764574	0.415288	-0.77	45.22	65.31	0.0586	0.1785	-0.2772	
-0.21899	-0.781044	0.41419	-3.5	46.27	65.52	0.0571	0.1842	-0.28	
-0.226188	-0.78873	0.408578	-5.25	41.09	62.23	0.0827	0.1765	-0.2869	
-0.24217	-0.777994	0.405162	-2.31	40.18	58.94	0.0796	0.1886	-0.2753	
-0.29951	-0.7869	0.401014	-0.07	40.04	55.44	0.1112	0.181	-0.2806	
-0.389668	-0.803492	0.394548	3.36	34.02	51.66	0.1248	0.1707	-0.2844	
-0.36478	-0.778848	0.414312	1.75	25.83	50.19	0.1247	0.1855	-0.2758	
-0.351482	-0.768722	0.420046	1.61	29.26	49.98	0.1502	0.1769	-0.2717	
-0.346968	-0.757742	0.426878	0.77	27.58	48.58	0.1563	0.1765	-0.2796	
-0.378566	-0.753716	0.433588	1.05	30.73	46.06	0.1608	0.1695	-0.2753	
-0.435662	-0.789828	0.409432	3.29	31.92	43.89	0.1578	0.1794	-0.2779	
-0.464454	-0.798856	0.41236	4.97	26.25	42	0.1743	0.1693	-0.277	
-0.447008	-0.772626	0.441152	4.62	28	41.86	0.1864	0.1665	-0.2741	
-0.447252	-0.741516	0.426756	7.35	31.29	40.88	0.1925	0.1659	-0.2867	
-0.473238	-0.70089	0.403332	9.17	32.97	39.62	0.1984	0.1578	-0.2747	
-0.520574	-0.74054	0.401014	8.75	32.69	36.47	0.2119	0.1636	-0.2729	
-0.536556	-0.738832	0.410774	10.43	27.37	35.56	0.2194	0.1565	-0.2702	
-0.560468	-0.736026	0.40748	13.93	27.79	34.44	0.2179	0.1595	-0.2685	
-0.586454	-0.728096	0.399062	14.35	26.46	31.57	0.2359	0.1467	-0.263	
-0.591822	-0.701012	0.396012	14.07	24.01	28.98	0.23	0.1506	-0.2722	
-0.609878	-0.704428	0.39406	12.74	20.58	26.32	0.239	0.1504	-0.2754	
-0.630496	-0.69845	0.402966	12.53	18.62	24.36	0.2466	0.1416	-0.2774	
-0.62098	-0.683444	0.395768	10.43	11.83	21.56	0.251	0.1422	-0.2649	
-0.631594	-0.692838	0.418216	8.89	7.42	18.62	0.2496	0.1391	-0.2698	
-0.620126	-0.691008	0.435784	8.75	3.99	16.8	0.2586	0.1419	-0.2713	
-0.619028	-0.679662	0.44103	8.47	3.36	15.19	0.2541	0.1403	-0.2744	
-0.627202	-0.671732	0.437492	7.28	2.66	11.9	0.2542	0.1357	-0.2809	
-0.618906	-0.662948	0.43005	6.72	2.17	8.61	0.2586	0.1294	-0.261	
-0.61854	-0.659898	0.445178	5.25	1.05	5.39	0.2677	0.133	-0.2749	
-0.638548	-0.655506	0.448228	4.83	1.33	1.82	0.2662	0.1241	-0.2816	
-0.636108	-0.65392	0.43981	4.55	0.49	-0.63	0.2586	0.1248	-0.2675	
-0.623054	-0.660508	0.438346	3.43	-2.1	-2.73	0.2571	0.136	-0.2747	
-0.619882	-0.665388	0.446642	3.01	-2.94	-5.6	0.2691	0.1332	-0.2702	
-0.616588	-0.665754	0.44347	3.5	-3.5	-8.47	0.2466	0.1303	-0.2733	
-0.613172	-0.653798	0.446642	3.71	-4.41	-10.5	0.2557	0.1242	-0.28	
-0.619882	-0.653676	0.449204	3.64	-5.32	-13.09	0.2572	0.1203	-0.2724	
-0.61427	-0.648064	0.459208	1.89	-7.56	-15.33	0.2557	0.1244	-0.2753	
-0.615368	-0.660386	0.460794	-0.07	-8.4	-19.46	0.2422	0.1287	-0.2781	
-0.61488	-0.681126	0.455426	-1.47	-10.08	-22.54	0.2452	0.1369	-0.2871	
-0.595238	-0.683688	0.457744	-1.19	-13.16	-25.06	0.2361	0.1273	-0.2765	
-0.574742	-0.66917	0.452376	-0.77	-16.52	-27.58	0.2437	0.1329	-0.2794	
-0.566324	-0.670634	0.444324	-1.47	-14.14	-30.03	0.233	0.1405	-0.2727	
-0.559614	-0.678808	0.44713	-4.27	-16.17	-32.55	0.2376	0.1289	-0.2733	
-0.550464	-0.688568	0.443348	-4.69	-17.85	-35.28	0.2211	0.1346	-0.276	
-0.527406	-0.699914	0.456158	-6.23	-20.44	-37.03	0.2271	0.1372	-0.2822	
-0.511668	-0.70455	0.438102	-3.57	-22.19	-40.18	0.215	0.1461	-0.2785	
-0.486536	-0.704916	0.474702	-5.81	-25.48	-41.23	0.2016	0.1486	-0.2877	
-0.478972	-0.715408	0.440298	-4.06	-21.63	-43.33	0.2105	0.1518	-0.2782	
-0.4636	-0.719434	0.461648	-6.3	-27.58	-43.89	0.1985	0.1463	-0.2753	
-0.437248	-0.726022	0.456524	-6.79	-26.81	-45.22	0.1865	0.1616	-0.2869	
-0.407114	-0.731878	0.461648	-8.05	-29.54	-46.83	0.185	0.1588	-0.2855	
-0.37393	-0.729316	0.455182	-7.91	-28.91	-48.09	0.1744	0.1577	-0.2792	
-0.344162	-0.737124	0.457012	-7.63	-32.27	-50.75	0.1549	0.1546	-0.2854	
-0.342576	-0.762012	0.44408	-8.05	-27.37	-52.01	0.1549	0.1508	-0.2763	
-0.332816	-0.804834	0.438346	-8.19	-30.45	-53.34	0.1414	0.1565	-0.279	
-0.265838	-0.79178	0.458964	-8.89	-35.84	-52.92	0.1413	0.1707	-0.2814	
-0.228506	-0.776408	0.471164	-6.65	-31.85	-53.41	0.1278	0.1691	-0.286	
-0.220698	-0.771162	0.459086	-5.88	-30.66	-53.97	0.1188	0.178	-0.2824	
-0.196786	-0.776286	0.463234	-6.3	-30.87	-55.02	0.1038	0.1662	-0.2891	
-0.170922	-0.782752	0.472262	-7.42	-32.13	-55.86	0.0887	0.1796	-0.2821	
-0.160308	-0.800076	0.447984	-5.46	-28.49	-57.05	0.08419999	0.1782	-0.2805	
-0.146156	-0.819108	0.458598	-5.32	-31.22	-58.38	0.0796	0.1912	-0.2798	
-0.12017	-0.819352	0.457134	-3.99	-32.83	-59.43	0.0692	0.1839	-0.2848	
-0.07869	-0.800076	0.444568	-2.73	-34.44	-59.29	0.0602	0.1767	-0.2851	
-0.029768	-0.792268	0.429196	-1.68	-34.79	-58.45	0.0511	0.1714	-0.2759	
0.003538	-0.804834	0.452742	-3.36	-35.28	-59.36	0.0421	0.1826	-0.2831	
0.005002	-0.82106	0.445422	-0.63	-35.21	-62.37	0.0332	0.1781	-0.2895	
0.015616	-0.813374	0.445422	0.98	-36.68	-63.98	0.0211	0.1757	-0.2802	
0.073566	-0.782264	0.446764	2.03	-38.99	-63	-0.0044	0.1789	-0.2767	
0.125538	-0.795928	0.445666	-0.07	-43.54	-61.88	-0.0119	0.1689	-0.2756	
0.183732	-0.809104	0.452132	0.14	-40.6	-60.48	-0.0298	0.1742	-0.2861	
0.211182	-0.80642	0.473726	-2.59	-38.36	-59.22	-0.0344	0.1702	-0.28	
0.22875	-0.813984	0.454938	-2.31	-35.77	-59.08	-0.0524	0.1675	-0.2785	
0.26169	-0.808616	0.433588	1.26	-35.56	-61.25	-0.0629	0.1634	-0.2739	
0.29402	-0.808738	0.433588	3.92	-38.5	-58.94	-0.0749	0.1577	-0.2757	
0.289384	-0.801418	0.410164	6.72	-32.41	-56.21	-0.0779	0.1608	-0.2708	
0.294508	-0.787144	0.428464	3.01	-37.24	-52.92	-0.0885	0.1608	-0.2707	
0.339038	-0.790926	0.454084	1.19	-37.31	-49.35	-0.0959	0.1591	-0.277	
0.402234	-0.789828	0.461282	1.33	-33.18	-44.73	-0.114	0.1525	-0.2678	
0.430538	-0.772382	0.452498	4.34	-29.68	-43.4	-0.1155	0.1527	-0.2631	
0.444202	-0.771894	0.41724	3.71	-29.82	-46.55	-0.1184	0.148	-0.2727	
0.431514	-0.778726	0.421876	4.13	-29.33	-46.69	-0.126	0.15	-0.2616	
0.41724	-0.762256	0.400526	2.17	-28.98	-43.4	-0.1395	0.1427	-0.265	
0.453596	-0.755058	0.416386	1.12	-37.1	-42.42	-0.1501	0.1417	-0.2572	
0.51606	-0.753106	0.424072	8.05	-28.49	-41.23	-0.1561	0.1333	-0.2529	
0.527772	-0.742736	0.431758	6.65	-26.11	-41.72	-0.1621	0.1291	-0.2499	
0.518744	-0.741394	0.393328	10.15	-22.68	-41.72	-0.1727	0.1283	-0.2374	
0.508618	-0.73566	0.400404	7.42	-24.36	-39.69	-0.171	0.122	-0.2502	
0.529358	-0.733098	0.404186	8.19	-25.55	-37.03	-0.1906	0.1206	-0.2502	
0.580598	-0.745298	0.447862	6.09	-30.17	-34.09	-0.1815	0.1175	-0.2551	
0.613538	-0.739198	0.467016	10.08	-22.33	-31.01	-0.192	0.1116	-0.2584	
0.622322	-0.740052	0.444324	12.18	-16.24	-28.91	-0.1995	0.1092	-0.2491	
0.610488	-0.728584	0.41053	13.23	-12.32	-26.39	-0.1875	0.1032	-0.2526	
0.615002	-0.717726	0.41114	10.64	-14.49	-24.71	-0.2025	0.1021	-0.2479	
0.645136	-0.71553	0.431514	8.47	-16.1	-22.82	-0.2145	0.105	-0.2477	
0.676002	-0.720898	0.447008	4.97	-15.12	-21	-0.2175	0.1008	-0.2463	
0.668438	-0.730048	0.443592	6.72	-7.49	-18.34	-0.216	0.095	-0.2466	
0.640866	-0.728462	0.412116	7.84	-3.15	-16.94	-0.2205	0.0893	-0.2469	
0.637084	-0.715652	0.418338	5.25	-4.83	-14.98	-0.2221	0.08989999	-0.2343	
0.64904	-0.70089	0.434198	5.53	-3.78	-11.55	-0.2205	0.0837	-0.2425	
0.65026	-0.684542	0.425292	10.08	2.1	-7.14	-0.234	0.0797	-0.2379	
0.647576	-0.670878	0.432246	5.74	0.35	-5.18	-0.2129	0.0793	-0.2443	
0.645746	-0.670268	0.432978	5.18	1.4	-2.59	-0.2235	0.0823	-0.2425	
0.65209	-0.669292	0.43005	4.62	1.26	0.14	-0.2219	0.0862	-0.2501	
0.662216	-0.671366	0.44591	0.49	0.35	2.59	-0.2325	0.0827	-0.2362	
0.673684	-0.684298	0.45994	0.14	1.05	5.39	-0.2235	0.0824	-0.2409	
0.686982	-0.687348	0.470676	-0.77	3.71	9.1	-0.2159	0.0765	-0.2429	
0.677954	-0.677954	0.468846	-0.14	8.05	12.25	-0.222	0.0824	-0.241	
0.662704	-0.693448	0.450912	-0.35	12.39	14.84	-0.219	0.0836	-0.2456	
0.66307	-0.69235	0.453718	-3.01	12.25	18.2	-0.2145	0.0937	-0.2436	
0.653554	-0.693814	0.45811	-2.38	13.44	21.28	-0.2144	0.0862	-0.2502	
0.648918	-0.706258	0.464332	-1.33	16.1	24.57	-0.2085	0.091	-0.2406	
0.642208	-0.705892	0.464698	-1.12	18.41	28.56	-0.1995	0.0937	-0.2421	
0.633424	-0.698572	0.459696	-0.28	22.61	31.64	-0.204	0.0949	-0.2483	
0.62098	-0.712114	0.45933	-1.96	23.66	35.07	-0.2025	0.088	-0.2424	
0.56974	-0.706502	0.458964	-1.19	25.83	40.74	-0.1875	0.102	-0.248	
0.556198	-0.698084	0.461526	-3.43	24.92	44.8	-0.1815	0.1074	-0.2556	
0.54595	-0.704062	0.46055	-4.55	24.71	48.23	-0.1784	0.1012	-0.2638	
0.52216	-0.708942	0.45018	-3.22	25.83	51.45	-0.165	0.1145	-0.2554	
0.503128	-0.708942	0.448472	-6.44	22.82	53.83	-0.1709	0.1185	-0.2373	
0.49471	-0.719556	0.460672	-3.71	24.29	56.07	-0.1454	0.1173	-0.2554	
0.480314	-0.731512	0.449204	-3.36	24.43	58.03	-0.1528	0.1222	-0.2738	
0.437492	-0.741394	0.454816	-4.83	24.99	59.71	-0.1454	0.1211	-0.2646	
0.393938	-0.746518	0.433466	-4.41	23.94	62.93	-0.138	0.1355	-0.2654	
0.395158	-0.766038	0.455304	-6.16	20.16	65.17	-0.1229	0.1364	-0.2733	
0.401136	-0.763598	0.46482	-4.76	21.14	65.52	-0.1139	0.1363	-0.275	
0.39345	-0.757376	0.487024	-4.06	22.4	65.45	-0.1109	0.1381	-0.2671	
0.34282	-0.747006	0.493978	-3.36	26.46	64.4	-0.1019	0.145	-0.273	
0.27938	-0.74664	0.480924	-6.3	29.26	63.49	-0.08989999	0.1423	-0.267	
0.249978	-0.764696	0.43859	-6.93	31.08	61.74	-0.0869	0.1494	-0.2698	
0.254248	-0.778238	0.46665	-13.44	27.02	61.11	-0.0704	0.1535	-0.2713	
0.224846	-0.794708	0.490928	-17.71	28	58.94	-0.054	0.1652	-0.2661	
0.171532	-0.813252	0.484584	-16.94	29.12	57.19	-0.0464	0.1634	-0.2725	
0.116144	-0.84241	0.471042	-14.21	32.83	55.16	-0.0299	0.1675	-0.2755	
0.090036	-0.822524	0.46726	-11.27	32.9	55.79	-0.027	0.1751	-0.2673	
0.08686399	-0.798246	0.48556	-10.85	29.75	61.53	-0.0224	0.1846	-0.2778	
0.036356	-0.802394	0.47031	-11.13	45.85	62.02	-0.0074	0.1831	-0.278	
-0.003538	-0.80398	0.464332	-13.09	41.93	60.62	0.0136	0.187	-0.2858	
-0.056974	-0.811544	0.436516	-8.61	49.21	59.99	0.015	0.1901	-0.281	
-0.089914	-0.794586	0.424072	-4.06	47.25	59.15	0.0315	0.1902	-0.2764	
-0.124928	-0.78507	0.42456	-3.64	46.27	59.15	0.0526	0.1887	-0.2766	
-0.164822	-0.804224	0.404674	-3.29	47.11	60.13	0.0497	0.1739	-0.2836	
-0.180926	-0.788486	0.402966	-3.08	45.57	60.97	0.0766	0.1869	-0.28	
-0.217648	-0.768478	0.398696	-1.68	42.56	60.76	0.0781	0.1869	-0.28	
-0.270718	-0.792146	0.395768	-3.01	40.46	60.34	0.0976	0.1872	-0.2724	
-0.292434	-0.796172	0.407358	-2.24	35.77	59.78	0.1051	0.1913	-0.2753	
-0.313784	-0.800442	0.371368	1.61	37.1	56.21	0.1261	0.1885	-0.2725	
-0.32086	-0.779946	0.382836	2.24	34.79	54.74	0.1367	0.1883	-0.2757	
-0.352946	-0.759328	0.409066	3.71	32.76	53.97	0.1291	0.1873	-0.2663	
-0.401014	-0.783728	0.40809	2.38	32.69	52.01	0.1457	0.1814	-0.2683	
-0.432002	-0.798124	0.38125	3.57	29.61	49.28	0.1517	0.1772	-0.2655	
-0.432002	-0.776896	0.389912	3.78	24.01	46.2	0.1652	0.1785	-0.2671	
-0.44774	-0.763842	0.389912	5.39	28.42	43.4	0.1742	0.1811	-0.2717	
-0.48251	-0.784948	0.379542	7	26.18	40.18	0.1817	0.1829	-0.2638	
-0.500322	-0.793244	0.372222	9.59	23.8	36.68	0.1758	0.1726	-0.269	
-0.498004	-0.772626	0.397232	10.22	17.99	33.95	0.1834	0.1663	-0.2804	
-0.50142	-0.772016	0.394548	12.39	17.64	31.08	0.1938	0.1696	-0.2693	
-0.495564	-0.771162	0.40138	12.46	14.28	29.4	0.2013	0.1681	-0.2695	
-0.490928	-0.744688	0.403576	13.93	15.05	27.44	0.2074	0.1667	-0.2696	
-0.49837	-0.74054	0.420778	13.93	13.58	25.27	0.2164	0.1651	-0.2713	
-0.51301	-0.712968	0.397232	16.94	17.99	22.82	0.2179	0.1564	-0.2718	
-0.52643	-0.69967	0.411628	14.21	17.71	19.39	0.2209	0.1523	-0.2673	
-0.562908	-0.713822	0.417118	13.65	15.68	15.4	0.2225	0.1477	-0.2738	
-0.571326	-0.699426	0.440664	12.25	15.26	13.58	0.2346	0.1416	-0.2805	
-0.576084	-0.69967	0.449326	10.29	12.25	11.13	0.23	0.1506	-0.2722	
-0.589016	-0.692594	0.441884	8.89	14.14	8.82	0.2314	0.1524	-0.2642	
-0.599386	-0.692106	0.439566	5.88	14.07	7.14	0.2526	0.1405	-0.2713	
-0.612684	-0.700402	0.418338	5.53	13.44	4.48	0.2452	0.1454	-0.2882	
-0.611464	-0.704184	0.424804	4.27	8.61	3.43	0.2437	0.1287	-0.2781	
-0.621468	-0.705526	0.428464	4.41	7.56	2.38	0.2481	0.1331	-0.2763	
-0.617808	-0.705282	0.421266	3.85	3.43	1.12	0.2481	0.1375	-0.2745	
-0.633302	-0.709308	0.423828	4.13	0.7	-0.56	0.2466	0.1391	-0.2713	
-0.617076	-0.699426	0.431514	1.82	-4.27	-1.61	0.2511	0.1403	-0.2744	
-0.595604	-0.69113	0.446032	1.89	-5.74	-3.5	0.2571	0.1388	-0.2761	
-0.58621	-0.68259	0.439932	2.66	-6.3	-6.3	0.2361	0.1362	-0.2714	
-0.60024	-0.691618	0.443714	2.45	-7.91	-9.94	0.2421	0.1363	-0.2699	
-0.600484	-0.705282	0.449692	1.68	-10.22	-13.16	0.2451	0.1433	-0.2726	
-0.568886	-0.688812	0.458598	1.82	-11.34	-16.87	0.2451	0.1375	-0.2745	
-0.56669	-0.68503	0.45445	1.47	-11.69	-19.04	0.236	0.1406	-0.2712	
-0.564372	-0.687226	0.448472	0.77	-12.46	-21.77	0.2227	0.1384	-0.2884	
-0.559004	-0.683932	0.449082	0	-14	-24.57	0.2286	0.1432	-0.2772	
-0.548756	-0.686006	0.444812	-0.49	-15.82	-27.79	0.2211	0.1374	-0.2775	
-0.534116	-0.69784	0.45506	-1.47	-18.2	-31.01	0.2135	0.1419	-0.2756	
-0.521184	-0.70089	0.452864	-1.26	-18.9	-34.16	0.206	0.1463	-0.2753	
-0.507642	-0.708454	0.459574	-1.61	-20.16	-36.89	0.2075	0.1488	-0.2815	
-0.49654	-0.713456	0.452864	-1.82	-20.37	-38.64	0.2	0.1505	-0.2766	
-0.49105	-0.717238	0.43432	-1.75	-21	-40.6	0.1894	0.1466	-0.2705	
-0.452742	-0.718824	0.452498	-1.89	-24.08	-42.07	0.1925	0.1589	-0.2568	
-0.439444	-0.722972	0.452742	-0.77	-23.45	-44.59	0.1879	0.1593	-0.3017	
-0.413702	-0.729072	0.454938	-1.05	-25.41	-46.55	0.1759	0.1535	-0.2778	
-0.39223	-0.732976	0.45384	-0.98	-25.55	-47.81	0.158	0.1599	-0.269	
-0.379542	-0.745542	0.451644	-1.96	-26.74	-48.86	0.167	0.1573	-0.2885	
-0.36295	-0.75701	0.452986	-2.1	-27.79	-50.26	0.1579	0.1617	-0.2882	
-0.304024	-0.7686	0.468968	-2.59	-29.89	-51.45	0.1414	0.1674	-0.2909	
-0.2623	-0.76189	0.481778	-1.82	-30.03	-52.43	0.1264	0.1675	-0.2908	
-0.238144	-0.767136	0.476532	-0.28	-27.79	-55.58	0.1204	0.1647	-0.2893	
-0.21899	-0.759206	0.48434	-1.33	-27.79	-56.42	0.1144	0.1647	-0.2893	
-0.211914	-0.779824	0.47885	-1.75	-27.93	-58.31	0.1009	0.1615	-0.2988	
-0.179218	-0.808494	0.477264	-2.94	-30.31	-58.52	0.0963	0.1731	-0.2965	
-0.138104	-0.814838	0.471286	-0.91	-31.57	-57.26	0.0827	0.1737	-0.2855	
-0.08662	-0.809592	0.491416	-2.38	-35.14	-56.35	0.0693	0.1621	-0.2891	
-0.074542	-0.803126	0.489586	1.54	-28.42	-55.65	0.0542	0.1684	-0.2793	
-0.061854	-0.787876	0.479948	1.05	-29.82	-56.77	0.0527	0.1653	-0.2841	
-0.031476	-0.780312	0.46787	0.56	-31.57	-58.1	0.0422	0.1694	-0.2885	
0.004392	-0.766038	0.460428	0.21	-33.67	-59.08	0.0407	0.1707	-0.2931	
0.05124	-0.78263	0.475068	-0.56	-34.65	-59.43	0.0182	0.1683	-0.2837	
0.096868	-0.810446	0.495198	0.56	-32.34	-58.73	0.0121	0.1713	-0.2835	
0.11834	-0.81862	0.486902	2.8	-28.56	-58.45	0.0001	0.1702	-0.3028	
0.127978	-0.808372	0.477752	3.5	-30.03	-56.98	-0.0057	0.1651	-0.2946	
0.143106	-0.790072	0.46055	0.84	-30.66	-55.02	-0.0103	0.1629	-0.2806	
0.138348	-0.782142	0.426634	2.17	-29.47	-53.97	-0.0163	0.1658	-0.2804	
0.16592	-0.76067	0.42395	1.19	-34.09	-53.27	-0.0313	0.1683	-0.2896	
0.24644	-0.7991	0.454206	0.63	-37.94	-52.99	-0.0448	0.1528	-0.284	
0.287554	-0.83875	0.490806	4.06	-35.98	-54.25	-0.0523	0.1462	-0.2733	
0.274866	-0.813984	0.459452	10.01	-38.36	-54.95	-0.0613	0.1486	-0.2825	
0.267668	-0.779458	0.43981	10.92	-40.25	-53.83	-0.06879999	0.1501	-0.2824	
0.292678	-0.746152	0.436028	7.28	-42.63	-50.75	-0.0763	0.1416	-0.2812	
0.353556	-0.741882	0.477508	4.13	-44.73	-46.69	-0.0959	0.1462	-0.2761	
0.402722	-0.75945	0.496174	1.61	-41.72	-43.96	-0.1093	0.132	-0.2736	
0.393206	-0.772626	0.452498	5.04	-33.18	-39.97	-0.1064	0.1351	-0.2688	
0.390278	-0.769942	0.445666	4.76	-33.88	-39.41	-0.1109	0.1365	-0.2703	
0.388204	-0.75091	0.43127	5.11	-38.92	-41.51	-0.1199	0.1423	-0.2715	
0.4026	-0.742126	0.42883	3.01	-41.72	-39.2	-0.1409	0.1267	-0.269	
0.45384	-0.737612	0.453474	-0.98	-43.54	-36.33	-0.1499	0.1181	-0.2694	
0.494344	-0.732488	0.453718	-0.21	-41.93	-38.29	-0.1544	0.1169	-0.2647	
0.496296	-0.737124	0.409066	4.97	-38.57	-40.81	-0.1665	0.1187	-0.2567	
0.523136	-0.750178	0.427122	7.28	-41.23	-40.25	-0.18	0.1108	-0.2445	
0.58865	-0.755912	0.474214	6.72	-42.21	-37.45	-0.183	0.1117	-0.2554	
0.641964	-0.742858	0.499956	10.5	-36.12	-34.65	-0.1905	0.1146	-0.2552	
0.63989	-0.71736	0.48129	15.26	-22.89	-32.69	-0.2055	0.1005	-0.2511	
0.624396	-0.71309	0.4392	14.21	-16.66	-31.36	-0.207	0.0963	-0.2497	
0.62952	-0.693204	0.436638	14.56	-16.66	-30.66	-0.195	0.0879	-0.2424	
0.6466	-0.68503	0.45506	11.69	-15.68	-28.21	-0.2116	0.1026	-0.2384	
0.65514	-0.684054	0.44896	11.97	-11.06	-26.18	-0.2205	0.0895	-0.2422	
0.64416	-0.679906	0.434808	9.38	-8.19	-24.29	-0.2144	0.0845	-0.255	
0.655628	-0.695766	0.443836	2.45	-10.57	-21.77	-0.2159	0.08329999	-0.2519	
0.66063	-0.691862	0.463356	1.12	-8.89	-18.69	-0.2235	0.0894	-0.2453	
0.657702	-0.680882	0.424926	3.99	-3.78	-15.33	-0.219	0.08109999	-0.2364	
0.676978	-0.679784	0.465064	-1.12	-6.93	-11.76	-0.2279	0.0791	-0.2489	
0.692228	-0.669414	0.454816	0.63	-3.15	-9.17	-0.2295	0.0752	-0.2413	
0.666364	-0.678076	0.436516	-0.49	2.31	-5.95	-0.2234	0.0705	-0.2478	
0.66246	-0.672098	0.431148	-1.54	1.4	-3.36	-0.2324	0.0663	-0.248	
0.678442	-0.671488	0.450424	-2.8	1.47	-0.28	-0.2295	0.0753	-0.2397	
0.68015	-0.674782	0.444812	-0.84	4.9	1.61	-0.234	0.081	-0.2409	
0.676124	-0.673318	0.44103	-1.26	6.93	3.92	-0.228	0.0809	-0.2426	
0.662094	-0.670024	0.439932	-1.19	8.26	5.88	-0.231	0.0809	-0.2425	
0.670756	-0.66917	0.46177	-3.08	8.54	8.61	-0.2189	0.0749	-0.2461	
0.67466	-0.681126	0.459574	-3.43	12.67	12.46	-0.2235	0.0794	-0.2427	
0.648674	-0.673074	0.450302	-0.91	15.26	14.63	-0.225	0.0737	-0.2414	
0.635742	-0.657702	0.453108	-0.91	14.98	16.73	-0.2189	0.0751	-0.2429	
0.638426	-0.67161	0.462502	-1.75	15.68	19.6	-0.219	0.0821	-0.2457	
0.634644	-0.694912	0.47153	-1.19	17.43	22.33	-0.2084	0.0803	-0.2521	
0.626104	-0.683078	0.460428	-2.1	19.04	25.2	-0.2053	0.0786	-0.2569	
0.623176	-0.68198	0.471896	-4.41	19.32	28.14	-0.2084	0.0846	-0.2535	
0.606706	-0.697108	0.464088	-3.85	20.93	30.52	-0.2025	0.0951	-0.2436	
0.590968	-0.711382	0.485072	-4.41	22.26	33.95	-0.1994	0.09869999	-0.2575	
0.558882	-0.6954	0.474336	-2.17	27.16	37.94	-0.1889	0.1045	-0.2557	
0.546804	-0.68198	0.472872	-2.94	28.42	39.62	-0.1784	0.1014	-0.2606	
0.530212	-0.701256	0.454694	-3.29	30.45	40.88	-0.1723	0.1038	-0.2684	
0.500932	-0.72834	0.458842	-4.34	31.57	42.63	-0.1543	0.1038	-0.267	
0.444934	-0.719556	0.452986	-2.03	33.25	43.75	-0.1618	0.1025	-0.2654	
0.429806	-0.718092	0.450302	-1.47	31.5	45.15	-0.1514	0.1168	-0.2647	
0.42639	-0.720654	0.469578	-3.15	29.68	47.39	-0.1424	0.1097	-0.262	
0.404308	-0.71187	0.473726	-4.55	28.7	48.51	-0.1378	0.1235	-0.2739	
0.37637	-0.713944	0.479338	-7.7	28.63	48.16	-0.1364	0.1335	-0.2749	
0.364414	-0.73444	0.46543	-8.4	30.17	46.34	-0.1213	0.1319	-0.2783	
0.361608	-0.740784	0.475312	-10.08	30.8	44.8	-0.1078	0.1331	-0.2814	
0.360998	-0.74847	0.495442	-12.11	30.38	43.61	-0.1108	0.1276	-0.2754	
0.330132	-0.736148	0.490074	-12.74	34.44	42.35	-0.0959	0.1408	-0.2686	
0.28426	-0.748836	0.46299	-13.86	38.08	39.9	-0.0913	0.1332	-0.2768	
0.25498	-0.77348	0.464088	-15.96	38.71	37.8	-0.0778	0.1417	-0.2781	
0.208498	-0.813252	0.474214	-16.1	37.52	31.99	-0.06879999	0.1502	-0.2808	
0.166286	-0.814594	0.487756	-15.68	37.17	28.7	-0.0598	0.1485	-0.2857	
0.125782	-0.795562	0.471042	-12.81	40.39	25.69	-0.0478	0.1488	-0.2779	
0.09162199	-0.81252	0.462502	-11.55	40.6	23.03	-0.0418	0.1544	-0.2808	
0.063562	-0.84058	0.461282	-9.52	37.52	19.88	-0.0434	0.166	-0.2786	
0.044408	-0.83448	0.471408	-5.6	35.35	17.15	-0.0343	0.1615	-0.2821	
0.019032	-0.797758	0.47092	-3.43	32.62	14.98	-0.0403	0.1615	-0.282	
0.00915	-0.78263	0.4819	-2.73	30.52	12.67	-0.0283	0.1616	-0.279	
0.003782	-0.785314	0.48129	-3.85	28.49	10.71	-0.0177	0.1595	-0.2917	
-0.021594	-0.796294	0.494832	-6.79	24.57	9.1	-0.0012	0.1625	-0.287	
-0.025986	-0.807884	0.48251	-4.83	21.98	6.37	-0.0043	0.1601	-0.2777	
-0.02684	-0.812154	0.476044	-4.34	23.52	4.83	0.0032	0.1669	-0.2852	
-0.029158	-0.823378	0.46421	-4.83	23.24	3.43	0.0122	0.1654	-0.2854	
-0.036478	-0.82838	0.462258	-6.23	22.12	3.99	0.0017	0.1668	-0.2883	
-0.067832	-0.85766	0.459208	-3.85	21	3.43	0.0077	0.1665	-0.2931	
-0.09357399	-0.870104	0.463478	-0.35	17.08	6.02	0.0136	0.1714	-0.2804	
-0.07991	-0.840824	0.474092	-0.91	12.39	8.82	0.0227	0.1642	-0.2792	
-0.06734399	-0.835334	0.460184	-0.84	8.82	10.57	0.0331	0.1658	-0.2761	
-0.061366	-0.84973	0.47336	-2.73	4.83	11.48	0.0211	0.1713	-0.282	
-0.065026	-0.845216	0.476776	-3.99	1.12	11.76	0.0287	0.1682	-0.2853	
-0.061122	-0.850706	0.471164	-3.15	-0.77	11.97	0.0227	0.1711	-0.2867	
-0.064904	-0.849974	0.462868	-2.59	-4.27	11.62	0.0347	0.1697	-0.2837	
-0.055022	-0.856684	0.452132	-2.38	-9.03	12.18	0.0272	0.1666	-0.2885	
-0.05429	-0.859368	0.458476	-0.84	-10.85	12.88	0.0196	0.1715	-0.2773	
-0.063196	-0.864492	0.449814	0.98	-13.23	12.81	0.0226	0.1814	-0.2815	
-0.057218	-0.863882	0.470676	0.98	-18.69	13.58	0.0317	0.1712	-0.2836	
-0.084302	-0.87535	0.457012	3.57	-20.23	13.23	0.0255	0.1802	-0.2753	
-0.110776	-0.890722	0.42822	4.2	-27.65	14	0.0286	0.1729	-0.2773	
-0.118096	-0.913536	0.437126	3.29	-38.64	16.45	0.0316	0.1784	-0.2817	
-0.132736	-0.945012	0.402478	5.67	-47.88	20.3	0.0166	0.1684	-0.2821	
-0.119316	-0.931348	0.401014	9.73	-58.24	25.9	0	0.1704	-0.2725	
-0.030012	-0.926346	0.424194	9.66	-79.38	35.98	0.0031	0.1688	-0.2757	
-0.026718	-0.920978	0.401502	13.09	-78.4	40.88	0.0075	0.1662	-0.2696	
-0.024766	-0.919636	0.390766	13.09	-91.77	43.75	-0.0133	0.1602	-0.2776	
0.022082	-0.90402	0.4148	12.53	-102.83	49	-0.0148	0.1615	-0.2791	
0.054168	-0.894382	0.439444	11.41	-105.77	53.69	-0.0285	0.175	-0.2689	
0.081496	-0.876814	0.439444	13.51	-105.49	57.68	-0.0373	0.1645	-0.2803	
0.091378	-0.862784	0.44835	13.16	-103.04	60.06	-0.0509	0.1636	-0.2693	
0.093818	-0.876814	0.407846	12.04	-99.4	60.62	-0.0494	0.1689	-0.2784	
0.080276	-0.906338	0.441396	12.39	-100.03	61.81	-0.0645	0.1667	-0.2659	
0.069174	-0.864858	0.415166	13.58	-102.76	63.49	-0.0675	0.1681	-0.2674	
0.093086	-0.85888	0.46238	9.87	-109.13	66.78	-0.0766	0.1742	-0.2607	
0.14701	-0.84729	0.464454	9.8	-106.75	69.86	-0.0856	0.1689	-0.2531	
0.159698	-0.824232	0.435662	10.22	-102.06	70.42	-0.1006	0.1656	-0.2626	
0.162138	-0.820084	0.459696	9.38	-98.49	67.13	-0.0977	0.179	-0.2525	
0.197518	-0.794952	0.48922	10.5	-94.08	62.37	-0.1157	0.1763	-0.2509	
0.222772	-0.763598	0.533384	7.63	-86.38	57.82	-0.1173	0.1811	-0.2413	
0.23424	-0.765672	0.539118	0.49	-70.56	48.86	-0.1249	0.1857	-0.2363	
0.214354	-0.775798	0.524722	-1.26	-58.8	41.44	-0.128	0.1876	-0.2268	
0.187148	-0.794586	0.534238	-2.59	-49	34.72	-0.1249	0.1844	-0.2332	
0.152378	-0.821548	0.53497	-0.91	-42.21	29.19	-0.1386	0.1866	-0.2189	
0.133468	-0.803614	0.528992	-0.77	-34.23	25.48	-0.1296	0.1952	-0.2186	
0.136152	-0.79788	0.546316	-3.15	-31.85	22.89	-0.1356	0.1981	-0.2184	
0.125172	-0.808616	0.526674	-3.57	-24.5	19.88	-0.1341	0.1853	-0.2159	
0.127734	-0.806298	0.509838	-0.98	-21.49	15.89	-0.1448	0.2061	-0.2038	
0.113704	-0.813984	0.52338	-1.82	-19.6	12.11	-0.1417	0.1971	-0.2105	
0.121024	-0.824476	0.52887	-1.82	-16.24	9.24	-0.1312	0.2004	-0.2011	
0.138104	-0.836188	0.53253	-1.19	-10.92	7.77	-0.1419	0.2136	-0.1956	
0.119804	-0.832406	0.523502	0	-3.99	5.46	-0.1341	0.1953	-0.217	
0.119926	-0.826306	0.519598	0.98	0.35	3.78	-0.1342	0.1945	-0.2045	
0.105408	-0.816912	0.521916	0.42	2.73	2.66	-0.1327	0.1943	-0.2076	
0.093818	-0.821426	0.525942	-2.59	4.48	1.4	-0.1373	0.2019	-0.1994	
0.09028	-0.827526	0.504714	-4.06	10.29	-1.47	-0.1342	0.2087	-0.2084	
0.062586	-0.83814	0.498736	-4.27	13.79	-4.41	-0.1296	0.2039	-0.2181	
0.052826	-0.838994	0.48739	-2.94	14.91	-6.3	-0.1402	0.2086	-0.21	
0.06832	-0.819962	0.493002	-0.84	14.07	-7.49	-0.1416	0.1955	-0.2138	
0.09882	-0.821426	0.50447	-0.07	13.86	-8.47	-0.1356	0.1996	-0.2183	
0.09455	-0.81374	0.51728	-0.56	16.66	-9.94	-0.1327	0.1973	-0.2059	
0.094916	-0.796904	0.5246	-1.26	21	-11.97	-0.1326	0.1995	-0.2199	
0.092598	-0.79544	0.51484	-2.1	25.34	-14.35	-0.1326	0.1968	-0.2153	
0.108458	-0.812642	0.511668	-3.29	27.58	-16.87	-0.1296	0.1922	-0.2203	
0.111752	-0.850706	0.498736	-3.29	35.42	-17.64	-0.1266	0.1964	-0.2232	
0.110776	-0.852536	0.51057	-1.89	33.81	-19.11	-0.1251	0.195	-0.2217	
0.088938	-0.808372	0.509472	-3.57	36.96	-19.95	-0.1295	0.1906	-0.2235	

0.107482	-0.820816	0.52155	-8.75	44.17	-20.02	-0.113	0.1964	-0.2218	
0.143594	-0.857782	0.500078	-9.45	47.67	-21.63	-0.116	0.1988	-0.2326	
0.10431	-0.878522	0.460916	-7.63	52.92	-22.61	-0.113	0.189	-0.2253	
0.044774	-0.872422	0.463356	-5.67	53.69	-22.54	-0.1069	0.1972	-0.2343	
0.060024	-0.815326	0.493612	-9.38	49.91	-21.49	-0.0964	0.1926	-0.2393	
0.106628	-0.85278	0.504104	-15.33	50.61	-19.81	-0.0994	0.1913	-0.2362	
0.138592	-0.87169	0.446764	-11.62	58.31	-19.32	-0.09339999	0.1998	-0.2389	
0.079544	-0.890356	0.426146	-11.55	64.12	-20.09	-0.0768	0.1949	-0.2503	
-0.005002	-0.881084	0.420778	-9.24	65.87	-20.86	-0.07539999	0.1996	-0.2406	
-0.015006	-0.85278	0.437492	-6.44	61.32	-19.74	-0.0694	0.1941	-0.2363	
0.044774	-0.816668	0.489342	-8.75	57.89	-19.32	-0.0663	0.2023	-0.2437	
0.080154	-0.809714	0.461526	-12.88	58.73	-21.28	-0.0572	0.1976	-0.2518	
0.06466	-0.887184	0.45079	-13.3	64.12	-23.59	-0.0558	0.1921	-0.2459	
0.03111	-0.91439	0.389668	-9.17	69.72	-25.83	-0.0513	0.2062	-0.2514	
0.04392	-0.899628	0.4148	-6.72	65.87	-25.48	-0.0438	0.1964	-0.2458	
0.069052	-0.848998	0.465552	-9.52	70.98	-24.57	-0.0437	0.1919	-0.2491	
0.05002	-0.836432	0.46543	-16.03	70.7	-24.92	-0.0317	0.2074	-0.2547	
0.004758	-0.858148	0.417972	-14.63	77.56	-29.68	-0.0287	0.2061	-0.2516	
-0.02379	-0.884744	0.379786	-12.74	81.34	-34.65	-0.0121	0.2039	-0.2644	
-0.09747799	-0.89487	0.36722	-12.74	73.43	-38.99	-0.0151	0.1943	-0.2555	
-0.092964	-0.907558	0.39223	-13.16	70.35	-37.94	-0.0032	0.1989	-0.2491	
-0.04819	-0.931226	0.416264	-17.29	62.65	-33.25	0.0027	0.1973	-0.2508	
-0.01098	-0.919758	0.428342	-18.97	58.24	-31.29	0.0012	0.21	-0.2563	
-0.003294	-0.907192	0.390278	-13.93	63.77	-35	0.0133	0.2029	-0.2537	
-0.032208	-0.916342	0.34221	-8.96	73.5	-37.52	0.0087	0.2059	-0.2519	
-0.062708	-0.92171	0.363926	-6.09	75.88	-37.52	0.0208	0.1985	-0.254	
-0.058316	-0.91378	0.376614	-4.69	72.66	-34.37	0.0312	0.213	-0.2517	
-0.140788	-0.851072	0.419192	-7.56	72.66	-30.1	0.0312	0.2158	-0.2531	
0.051606	-0.907192	0.366732	-5.88	73.08	-26.95	0.0432	0.2157	-0.2532	
-0.008662	-0.892796	0.390522	-8.61	71.33	-30.24	0.0477	0.2156	-0.2548	
-0.005978	-0.85888	0.377712	-5.67	77.7	-35.42	0.0448	0.2056	-0.2538	
-0.01403	-0.885354	0.348066	-7.7	80.99	-37.17	0.0522	0.2131	-0.2472	
-0.076494	-0.896334	0.372222	-14	75.74	-38.57	0.0613	0.2031	-0.2446	
-0.081252	-0.925492	0.35319	-11.62	76.72	-41.86	0.0672	0.2171	-0.2518	
-0.027938	-0.93635	0.35563	-8.54	73.22	-40.88	0.0882	0.2228	-0.2501	
-0.03843	-0.968436	0.321226	-7.28	75.25	-41.23	0.0852	0.2192	-0.2362	
-0.042212	-0.961238	0.335744	-8.05	74.34	-39.55	0.0852	0.2217	-0.2439	
-0.054168	-0.932812	0.34892	-8.54	73.08	-36.68	0.0988	0.2241	-0.2532	
-0.032086	-0.922808	0.33367	-8.4	73.99	-35.35	0.1016	0.2263	-0.2359	
-0.036112	-0.91622	0.312198	-10.92	74.2	-35.35	0.1091	0.2362	-0.2386	
-0.066734	-0.934154	0.274744	-6.44	73.29	-33.88	0.1091	0.2308	-0.2326	
-0.11651	-0.944036	0.29463	-9.38	66.64	-28	0.1166	0.2364	-0.2339	
-0.132004	-0.919026	0.281454	-5.74	61.32	-24.92	0.1196	0.2296	-0.2249	
-0.108824	-0.92842	0.306952	-9.31	49.7	-21.77	0.1271	0.231	-0.2265	
-0.109556	-0.935984	0.298534	-7.77	46.76	-20.79	0.127	0.2368	-0.2246	
-0.106994	-0.93696	0.305366	-6.44	37.17	-19.95	0.1241	0.2367	-0.2277	
-0.100772	-0.923906	0.313662	-5.39	30.45	-14.91	0.136	0.2357	-0.2169	
-0.105896	-0.934154	0.302804	-5.25	26.67	-12.32	0.1344	0.2432	-0.2118	
-0.094428	-0.950746	0.321836	-5.6	21.07	-9.24	0.136	0.2356	-0.2201	
-0.08967	-0.937936	0.30805	-2.66	16.66	-9.24	0.133	0.2442	-0.2196	
-0.066856	-0.930372	0.32757	-2.03	9.45	-6.3	0.1361	0.2381	-0.2278	
-0.05856	-0.943792	0.310124	0.14	8.89	-4.62	0.1495	0.2454	-0.2228	
-0.059414	-0.94428	0.338794	-3.01	6.86	-2.31	0.133	0.2452	-0.2289	
-0.040626	-0.946232	0.321348	-1.82	2.17	-0.98	0.142	0.2385	-0.2184	
-0.03904	-0.947208	0.310124	1.54	2.66	0.77	0.1435	0.2415	-0.2151	
-0.05124	-0.922442	0.305	2.52	0	1.47	0.1405	0.2386	-0.2152	
-0.05307	-0.91622	0.314028	-0.28	-3.99	2.66	0.1405	0.2429	-0.2166	
-0.012322	-0.91927	0.284138	6.3	-12.95	1.33	0.148	0.2426	-0.2229	
-0.024034	-0.939278	0.312076	2.31	-9.03	1.96	0.139	0.2384	-0.2215	
-0.03294	-0.935984	0.331596	4.06	-16.24	2.59	0.1405	0.24	-0.2167	
-0.031598	-0.931836	0.343064	3.29	-14.98	3.57	0.13	0.237	-0.2215	
-0.041968	-0.912682	0.3294	4.83	-16.8	2.87	0.1451	0.2339	-0.2233	
-0.02745	-0.912682	0.346358	2.38	-19.6	3.64	0.136	0.244	-0.2243	
-0.03782	-0.907436	0.343918	3.08	-18.9	3.92	0.1376	0.2423	-0.2291	
-0.06405	-0.925492	0.320616	1.89	-15.96	2.66	0.1451	0.2378	-0.2325	
-0.076372	-0.91927	0.303658	3.92	-25.55	4.83	0.1256	0.2281	-0.2266	
-0.04331	-0.929884	0.33245	3.57	-31.57	8.75	0.1316	0.2324	-0.2264	
-0.060878	-0.90036	0.343308	6.23	-31.64	10.29	0.1271	0.2335	-0.2342	
-0.081618	-0.909998	0.324886	7.14	-33.46	9.66	0.1195	0.2298	-0.2218	
-0.087474	-0.924638	0.279258	10.08	-37.1	8.33	0.1136	0.235	-0.234	
-0.064416	-0.952454	0.277428	8.89	-45.85	9.31	0.1213	0.22	-0.2458	
-0.041968	-0.931226	0.325008	8.89	-54.39	12.88	0.1107	0.2248	-0.2376	
-0.033794	-0.926956	0.351482	5.74	-55.44	13.3	0.1031	0.2322	-0.2341	
-0.024034	-0.953186	0.33428	4.48	-48.16	14.42	0.09869999	0.2332	-0.2434	
0.005612	-0.911828	0.319518	3.71	-48.37	17.29	0.09869999	0.2219	-0.2393	
0.044042	-0.878156	0.351238	-3.71	-46.55	17.78	0.0866	0.2277	-0.2389	
0.011346	-0.876814	0.364292	-6.51	-47.32	13.65	0.09119999	0.2215	-0.247	
-0.008784	-0.897432	0.314516	0	-60.13	13.16	0.0791	0.2293	-0.2372	
-0.011956	-0.967948	0.271084	11.13	-56.21	12.32	0.0746	0.2193	-0.2361	
-0.01342	-0.985028	0.299388	20.72	-63.14	15.61	0.0597	0.2245	-0.2482	
0.015006	-0.934398	0.383324	20.37	-72.87	18.27	0.0611	0.2233	-0.2436	
0.012932	-0.871812	0.384544	22.54	-74.41	18.97	0.0552	0.2243	-0.2529	
-0.020862	-0.892064	0.314272	25.48	-73.5	18.34	0.0402	0.2216	-0.2498	
0.01281	-0.93147	0.31049	23.73	-80.43	19.46	0.0343	0.2069	-0.2583	
0.038064	-0.961604	0.36051	22.33	-85.75	25.62	0.0358	0.2155	-0.2579	
0.031354	-0.95526	0.37698	22.54	-90.02	32.06	0.0222	0.2104	-0.2455	
0.07381	-0.921832	0.366	24.22	-93.31	37.03	0.0103	0.2056	-0.2582	
0.146278	-0.908046	0.38491	21.28	-91.63	41.16	0.0013	0.2041	-0.2598	
0.153964	-0.888892	0.428708	16.66	-90.86	42.42	-0.0061	0.1997	-0.2615	
0.11346	-0.868396	0.409798	17.71	-86.8	39.13	-0.0076	0.1971	-0.2569	
0.102114	-0.890722	0.410164	13.23	-90.72	39.9	-0.0197	0.1989	-0.2505	
0.086254	-0.904508	0.38125	14.28	-83.44	40.74	-0.0196	0.2012	-0.2629	
0.097356	-0.898286	0.36844	13.51	-80.99	42.21	-0.0377	0.1959	-0.2792	
0.112118	-0.914024	0.405894	11.69	-84.21	43.26	-0.0391	0.1957	-0.2599	
0.091866	-0.914146	0.406138	15.26	-84.98	42.98	-0.0497	0.1917	-0.2538	
0.0854	-0.905728	0.410774	16.31	-88.48	44.38	-0.0452	0.2001	-0.2581	
0.099918	-0.880474	0.420656	17.92	-92.4	46.27	-0.0662	0.1972	-0.2596	
0.110776	-0.885354	0.40382	17.57	-87.71	46.41	-0.0722	0.1873	-0.257	
0.083204	-0.906338	0.374052	16.38	-88.41	43.89	-0.0693	0.1922	-0.2458	
0.060878	-0.911828	0.40321	15.82	-94.5	42.35	-0.0859	0.1969	-0.2391	
0.088816	-0.88572	0.406382	17.15	-96.46	43.75	-0.09339999	0.1971	-0.236	
0.111752	-0.89975	0.427854	16.73	-91	48.16	-0.1115	0.1973	-0.2327	
0.108702	-0.864858	0.403454	17.64	-85.12	49.49	-0.107	0.1904	-0.2268	
0.13725	-0.826184	0.40931	17.57	-86.73	47.67	-0.113	0.1976	-0.2264	
0.139568	-0.81557	0.432246	15.26	-85.75	45.64	-0.122	0.1974	-0.231	
0.156648	-0.82838	0.446886	12.39	-82.53	45.22	-0.1175	0.1949	-0.2234	
0.185318	-0.827404	0.444812	11.62	-73.36	43.47	-0.1401	0.194	-0.2138	
0.171044	-0.84119	0.48312	7.77	-64.82	41.16	-0.1312	0.1999	-0.2105	
0.17263	-0.824232	0.480192	8.12	-61.81	38.01	-0.1357	0.2014	-0.2104	
0.17873	-0.813862	0.471652	7.98	-55.65	34.65	-0.1432	0.1999	-0.212	
0.17263	-0.831064	0.494466	6.65	-51.8	30.45	-0.1402	0.1957	-0.2091	
0.160918	-0.819474	0.503982	6.37	-46.83	26.18	-0.1447	0.2001	-0.2072	
0.212158	-0.8296	0.51545	2.31	-40.81	22.05	-0.1568	0.1977	-0.1994	
0.220088	-0.82655	0.500566	1.75	-29.47	18.06	-0.1433	0.2018	-0.2025	
0.171898	-0.843874	0.494954	1.54	-19.6	15.12	-0.1613	0.1963	-0.1995	
0.133468	-0.82167	0.49288	1.75	-13.37	12.74	-0.1478	0.2009	-0.1915	
0.137372	-0.818132	0.49044	-0.28	-8.96	10.5	-0.1644	0.2093	-0.1972	
0.151646	-0.816912	0.490684	-1.54	-5.32	7.07	-0.1493	0.2093	-0.1973	
0.167872	-0.83387	0.48617	-1.47	-1.54	3.29	-0.1524	0.2093	-0.1973	
0.11956	-0.84302	0.4758	-0.35	4.62	-0.21	-0.1434	0.2136	-0.1956	
0.088816	-0.848632	0.474702	-0.7	7	-1.89	-0.1614	0.2067	-0.1911	
0.096502	-0.852414	0.473238	-0.07	7.14	-2.59	-0.1463	0.2008	-0.1931	
0.10431	-0.861198	0.468114	0.7	8.05	-3.22	-0.1449	0.2067	-0.1913	
0.086254	-0.854488	0.466772	0.28	10.29	-4.27	-0.1508	0.2063	-0.199	
0.067954	-0.853634	0.475434	-0.07	10.08	-4.55	-0.1508	0.2046	-0.2038	
0.07869	-0.857172	0.462136	-2.59	8.68	-4.62	-0.1464	0.2066	-0.1928	
0.096014	-0.861076	0.462502	-2.66	10.43	-4.48	-0.1447	0.2085	-0.2131	
0.112606	-0.844606	0.477508	-1.82	12.95	-5.32	-0.1524	0.2081	-0.1927	
0.165066	-0.848144	0.499224	-3.64	18.55	-8.12	-0.1583	0.2088	-0.2082	
0.13054	-0.839116	0.4819	-2.52	24.15	-11.13	-0.1524	0.2038	-0.1913	
0.103578	-0.82411	0.479948	-2.52	28.91	-12.32	-0.1493	0.199	-0.201	
0.111874	-0.795684	0.4941	-3.5	35	-12.67	-0.1418	0.2047	-0.2023	
0.188002	-0.783606	0.50386	-8.96	35.42	-13.02	-0.1342	0.2031	-0.204	
0.213012	-0.827526	0.49715	-9.17	45.36	-14.56	-0.1358	0.2062	-0.2007	
0.189588	-0.850828	0.485316	-7.21	53.97	-19.53	-0.1282	0.2085	-0.2116	
0.12322	-0.844484	0.467626	-4.55	57.33	-25.55	-0.1326	0.1982	-0.2168	
0.086132	-0.843386	0.484462	-7.7	55.58	-30.03	-0.1267	0.2045	-0.204	
0.121512	-0.856562	0.479704	-11.76	54.81	-29.61	-0.119	0.2033	-0.2276	
0.169946	-0.887794	0.452132	-14.56	58.87	-26.6	-0.1161	0.2023	-0.2199	
0.14579	-0.914024	0.445422	-14.28	70.56	-23.59	-0.1116	0.2009	-0.2184	
0.076372	-0.885476	0.399916	-6.02	79.45	-23.87	-0.1116	0.2092	-0.2258	
0.06039	-0.852414	0.41602	-3.64	76.58	-24.99	-0.092	0.2033	-0.2263	
0.088084	-0.842654	0.463234	-7.14	72.94	-25.34	-0.0904	0.197	-0.2375	
0.100894	-0.882426	0.425658	-13.23	70.21	-24.5	-0.0844	0.1998	-0.239	
0.080154	-0.912072	0.388448	-12.04	75.74	-24.08	-0.0739	0.2127	-0.2384	
0.051484	-0.915122	0.381128	-8.05	79.38	-23.94	-0.0694	0.2041	-0.2373	
0.074176	-0.88084	0.4026	-6.09	77.77	-23.66	-0.0648	0.1992	-0.2486	
0.059048	-0.880718	0.3965	-6.58	80.99	-22.12	-0.0559	0.2052	-0.2421	
-0.000122	-0.899262	0.354044	-5.95	72.17	-20.23	-0.0529	0.2054	-0.239	
-0.018422	-0.93086	0.349042	-6.65	69.93	-19.11	-0.0362	0.1977	-0.2473	
0.007076	-0.9272	0.40199	-7	67.83	-16.73	-0.0437	0.1986	-0.2582	
0.015738	-0.900116	0.391742	-5.46	72.73	-15.26	-0.0288	0.2075	-0.2515	
0.001586	-0.876326	0.38003	-4.97	73.5	-15.82	-0.0212	0.206	-0.2517	
-0.021716	-0.853512	0.370514	-6.23	72.52	-20.86	-0.0137	0.2061	-0.2502	
-0.036234	-0.864004	0.392108	-9.31	71.68	-26.88	-0.0001	0.2056	-0.2581	
-0.037332	-0.887794	0.381372	-12.6	65.59	-31.29	0.0073	0.2041	-0.2583	
-0.033428	-0.90036	0.397842	-13.86	66.99	-33.25	0.0057	0.2073	-0.2534	
-0.055754	-0.922076	0.375516	-13.09	70.14	-32.69	0.0117	0.2086	-0.2549	
-0.066734	-0.919758	0.379054	-12.74	73.36	-32.06	0.0177	0.2145	-0.2515	
-0.052582	-0.888282	0.361486	-9.87	74.27	-31.99	0.0222	0.217	-0.2577	
-0.063074	-0.893528	0.355996	-8.05	74.34	-34.65	0.0327	0.2171	-0.2546	
-0.075396	-0.896212	0.356118	-4.41	79.94	-38.71	0.0463	0.2183	-0.2594	
-0.09638	-0.886452	0.328912	-0.84	83.79	-41.3	0.0539	0.2108	-0.2645	
-0.096502	-0.8723	0.3355	-0.63	80.22	-42.21	0.0583	0.2154	-0.2581	
-0.086498	-0.87413	0.355508	-4.83	73.99	-42.21	0.0613	0.2197	-0.2579	
-0.101992	-0.899262	0.36722	-7.91	68.53	-42.98	0.0673	0.2098	-0.2537	
-0.080032	-0.945988	0.38308	-10.5	69.3	-41.02	0.0778	0.2166	-0.2613	
-0.074908	-0.929884	0.337086	-1.89	77.14	-40.39	0.0763	0.2113	-0.2522	
-0.06222	-0.91378	0.357338	-6.65	74.06	-41.44	0.0778	0.2156	-0.2519	
-0.110654	-0.89853	0.349774	-2.45	76.09	-41.37	0.0823	0.2185	-0.2518	
-0.109678	-0.89975	0.339404	-6.44	69.37	-39.41	0.0957	0.2175	-0.241	
-0.078934	-0.94611	0.330742	-9.94	67.83	-35.07	0.0913	0.2209	-0.234	
-0.080154	-0.96868	0.311466	-8.26	70.56	-32.27	0.1002	0.2232	-0.2664	
-0.081008	-0.954162	0.314638	-6.23	66.01	-28.91	0.1076	0.2264	-0.2344	
-0.113582	-0.93635	0.317322	-6.51	58.1	-25.83	0.1107	0.2202	-0.2426	
-0.098454	-0.908412	0.325374	-7.28	49.35	-22.75	0.1152	0.2288	-0.2422	
-0.083326	-0.93269	0.318298	-9.52	45.22	-20.3	0.1092	0.2274	-0.2437	
-0.078324	-0.950746	0.316224	-8.54	40.67	-17.64	0.1286	0.2335	-0.2342	
-0.067954	-0.936106	0.33916	-9.8	36.33	-15.68	0.1271	0.2322	-0.2311	
-0.083326	-0.926834	0.32513	-5.67	33.11	-14.63	0.1316	0.2338	-0.2535	
-0.088328	-0.930616	0.315736	-5.88	29.4	-12.04	0.1316	0.2423	-0.2291	
-0.085766	-0.914146	0.317322	-3.78	23.87	-9.8	0.13	0.2443	-0.218	
-0.072346	-0.912316	0.332572	-4.27	19.81	-8.68	0.1301	0.2381	-0.2277	
-0.069296	-0.92049	0.335012	-3.01	14.91	-9.31	0.1331	0.2338	-0.228	
-0.057096	-0.93696	0.34831	-2.38	12.32	-8.89	0.1391	0.2408	-0.2308	
-0.068808	-0.945134	0.324154	0.07	10.36	-9.1	0.1376	0.2421	-0.2338	
-0.069662	-0.958554	0.321104	1.61	6.3	-7.28	0.1391	0.241	-0.2517	
-0.05002	-0.935618	0.328424	2.31	2.38	-5.18	0.13	0.2438	-0.229	
-0.036478	-0.89975	0.318542	2.24	1.33	-4.13	0.133	0.2442	-0.2196	
-0.009272	-0.910974	0.330498	-0.84	-1.75	-3.15	0.136	0.2384	-0.2199	
-0.02684	-0.938668	0.310734	2.17	-2.8	-4.34	0.142	0.2342	-0.217	
-0.021716	-0.937082	0.338916	0.56	-6.51	-3.08	0.1421	0.2392	-0.2324	
-0.02806	-0.923662	0.331352	2.8	-6.65	-0.77	0.136	0.2386	-0.2168	
-0.02745	-0.930616	0.333914	0.91	-10.64	1.75	0.1331	0.238	-0.2293	
0.001464	-0.908656	0.308782	8.12	-17.78	1.12	0.1331	0.2306	-0.2328	
-0.01891	-0.939644	0.341478	3.57	-10.15	3.01	0.1286	0.2364	-0.234	
-0.038186	-0.921954	0.337086	4.55	-15.89	5.04	0.1301	0.2393	-0.2323	
-0.044164	-0.924272	0.345748	4.83	-15.68	6.58	0.1286	0.2392	-0.2355	
-0.03416	-0.906704	0.350384	4.9	-19.04	5.46	0.1226	0.2381	-0.2276	
-0.02196	-0.910608	0.355142	2.87	-20.65	5.95	0.1165	0.2354	-0.2262	
-0.015372	-0.917928	0.321348	3.29	-21.07	6.09	0.1287	0.225	-0.2315	
-0.036112	-0.944158	0.340624	2.1	-22.26	7.21	0.1076	0.2321	-0.2357	
-0.05795	-0.930006	0.33001	3.92	-23.87	7.14	0.1257	0.2318	-0.2389	
-0.054534	-0.902556	0.332084	4.13	-28.91	10.64	0.1226	0.2308	-0.2312	
-0.026352	-0.880108	0.333426	4.13	-30.73	11.27	0.1076	0.2394	-0.2322	
-0.025498	-0.88511	0.343064	2.17	-35.7	12.95	0.1121	0.2307	-0.2342	
-0.029402	-0.926468	0.335866	1.96	-37.31	10.71	0.1122	0.2275	-0.2406	
-0.014152	-0.937082	0.34709	-0.56	-43.26	11.2	0.1106	0.2319	-0.2388	
-0.03477	-0.952576	0.36173	0.21	-42	12.67	0.09869999	0.2219	-0.2377	
-0.061488	-0.934154	0.325252	5.53	-37.59	12.95	0.1062	0.2233	-0.2377	
-0.04392	-0.901702	0.34526	-3.64	-44.59	15.54	0.0911	0.2319	-0.2402	
-0.00671	-0.87352	0.334036	-1.47	-43.82	17.08	0.0926	0.2277	-0.2389	
0.010492	-0.898164	0.336476	-5.74	-45.85	17.99	0.0941	0.2237	-0.2313	
0.032818	-0.904142	0.345382	-6.93	-44.38	17.5	0.0882	0.2245	-0.2453	
0.004758	-0.905606	0.333426	-8.75	-41.16	13.86	0.0836	0.2308	-0.2356	
-0.02135	-0.923418	0.294386	-1.47	-46.41	10.99	0.0746	0.2265	-0.2341	
-0.02501	-0.932446	0.304756	6.23	-52.92	12.74	0.0686	0.228	-0.234	
-0.024644	-0.961238	0.29768	12.88	-54.32	14	0.07319999	0.2217	-0.2453	
0.020008	-0.946842	0.365024	11.2	-65.8	15.61	0.0611	0.2261	-0.245	
0.072346	-0.905606	0.393694	12.6	-63.14	15.33	0.0582	0.2188	-0.2469	
0.058316	-0.88877	0.345748	14.28	-54.95	13.09	0.0461	0.2224	-0.2341	
0.02623	-0.90585	0.313174	17.78	-53.55	10.99	0.0431	0.2232	-0.2466	
-0.0122	-0.980392	0.308416	20.79	-57.4	13.93	0.0296	0.2149	-0.2407	
-0.004514	-0.938302	0.360632	21.63	-64.75	15.47	0.0237	0.2159	-0.2515	
0.030134	-0.9028	0.363072	21.56	-65.59	21.14	0.0236	0.2162	-0.2452	
0.046726	-0.910364	0.347578	19.11	-64.68	21.21	0.0193	0.2026	-0.2584	
0.017812	-0.919148	0.32635	17.08	-66.92	19.04	0.0027	0.2118	-0.2484	
0.003538	-0.932812	0.294508	20.58	-76.51	18.62	-0.0047	0.206	-0.2502	
0.020374	-0.965142	0.330986	21.28	-80.22	21.42	-0.0122	0.2044	-0.255	
0.049288	-0.959896	0.349164	21.63	-84.63	24.64	-0.0181	0.2013	-0.2598	
0.067588	-0.939766	0.355508	20.02	-89.18	29.12	-0.0272	0.1986	-0.2583	
0.07991	-0.937082	0.369416	14.77	-90.93	33.67	-0.0333	0.1992	-0.2457	
0.093086	-0.932446	0.364414	18.41	-88.9	36.26	-0.0393	0.202	-0.2486	
0.126514	-0.94062	0.372832	19.46	-91.14	38.36	-0.0498	0.2009	-0.2408	
0.13054	-0.937814	0.380396	21.98	-91.91	39.69	-0.0588	0.1907	-0.2459	
0.127734	-0.925248	0.36722	20.65	-94.85	41.51	-0.0753	0.1938	-0.2425	
0.12261	-0.954894	0.378078	20.86	-100.24	44.31	-0.0768	0.1868	-0.2382	
0.147742	-0.909998	0.3782	26.53	-95.83	48.09	-0.0828	0.1907	-0.2473	
0.152988	-0.8723	0.393816	27.16	-88.41	48.93	-0.0993	0.192	-0.2518	
0.157624	-0.893162	0.424682	25.83	-87.01	50.05	-0.0949	0.1886	-0.2333	
0.193858	-0.844362	0.415654	31.64	-82.53	49.56	-0.09779999	0.1868	-0.2411	
0.212524	-0.822524	0.44591	28.07	-79.31	49.28	-0.1159	0.1915	-0.2345	
0.23668	-0.800076	0.471408	26.04	-71.96	47.88	-0.1188	0.1852	-0.2458	
0.225944	-0.794708	0.497516	21.98	-62.16	46.48	-0.1219	0.186	-0.2301	
0.207034	-0.774334	0.490318	19.95	-52.99	43.05	-0.1204	0.1844	-0.2333	
0.213378	-0.765184	0.499224	18.48	-48.58	38.78	-0.1294	0.18	-0.2366	
0.221796	-0.783362	0.513986	13.93	-43.68	35.28	-0.1294	0.183	-0.2333	
0.190686	-0.808616	0.512888	12.6	-35.35	30.66	-0.1235	0.1861	-0.2269	
0.15189	-0.791414	0.496296	12.32	-29.96	25.9	-0.1295	0.1934	-0.2265	
0.121024	-0.789706	0.5124	8.47	-27.51	22.82	-0.128	0.1847	-0.2269	
0.113826	-0.785436	0.513132	5.81	-25.41	20.72	-0.1355	0.1893	-0.222	
0.152256	-0.80276	0.531676	2.45	-25.41	19.67	-0.1386	0.1993	-0.2245	
0.18971	-0.815814	0.534848	0.14	-23.17	16.66	-0.134	0.1888	-0.2329	
0.141276	-0.807152	0.508008	1.54	-13.51	11.2	-0.1266	0.1881	-0.2174	
0.119316	-0.812154	0.51911	-0.35	-10.64	8.19	-0.1311	0.1969	-0.2138	
0.134322	-0.82899	0.513376	-1.47	-7.7	6.16	-0.1386	0.1924	-0.2186	
0.13603	-0.82777	0.510204	-0.84	-3.29	3.85	-0.1326	0.1869	-0.2111	
0.115168	-0.82899	0.510448	-0.7	-0.56	2.52	-0.1341	0.1867	-0.2158	
0.102602	-0.835578	0.49959	-0.56	2.24	1.54	-0.1281	0.2026	-0.2151	
0.085156	-0.837652	0.496296	-1.61	1.75	0.56	-0.1311	0.1938	-0.2186	
0.077592	-0.842044	0.49654	-1.54	3.36	-0.49	-0.1341	0.1965	-0.2216	
0.078934	-0.812764	0.498004	0.07	3.78	-1.33	-0.1356	0.1949	-0.2248	
0.097112	-0.813618	0.508618	-3.08	3.36	-1.89	-0.1326	0.1952	-0.2185	
0.111386	-0.831308	0.504714	-5.74	5.25	-2.8	-0.1281	0.1953	-0.217	
0.09394	-0.829844	0.491416	-4.06	9.73	-4.13	-0.1281	0.1966	-0.2185	
0.094306	-0.828502	0.500444	-3.78	9.94	-5.46	-0.1371	0.1996	-0.2183	
0.113216	-0.816058	0.519232	-4.27	11.41	-6.93	-0.1385	0.1907	-0.2234	
0.12017	-0.80154	0.518012	-5.25	15.19	-9.1	-0.1206	0.1996	-0.2168	
0.09747799	-0.833016	0.493246	-2.45	21.56	-11.55	-0.1266	0.1909	-0.2188	
0.072712	-0.800198	0.498126	-1.89	26.46	-13.37	-0.128	0.1906	-0.2251	
0.120658	-0.761036	0.541802	-5.95	27.23	-14.49	-0.122	0.1906	-0.2236	
0.179706	-0.769942	0.557662	-12.67	29.47	-14.98	-0.1251	0.2008	-0.2214	
0.16226	-0.854244	0.496418	-12.95	39.55	-16.17	-0.1235	0.2019	-0.2276	
0.08662	-0.86742	0.4575	-6.86	44.1	-21	-0.1206	0.195	-0.2218	
0.039772	-0.848388	0.477996	-3.29	42.49	-22.61	-0.1236	0.1965	-0.2217	
0.087596	-0.812886	0.513132	-7.63	37.17	-21.35	-0.1085	0.1962	-0.2265	
0.196176	-0.849364	0.527284	-14.35	35.49	-17.85	-0.116	0.1989	-0.2294	
0.190564	-0.8967	0.456402	-10.57	48.51	-16.8	-0.1176	0.1923	-0.2172	
0.11468	-0.903654	0.449326	-5.53	57.12	-18.27	-0.1009	0.1957	-0.2344	
0.057218	-0.850584	0.459452	-4.13	56.49	-20.23	-0.104	0.1961	-0.2281	
0.065758	-0.851926	0.452132	-5.81	52.36	-19.67	-0.1009	0.1915	-0.2331	
0.09882	-0.884012	0.446886	-7.63	53.34	-17.71	-0.07979999	0.1897	-0.238	
0.099918	-0.87108	0.439444	-6.09	60.69	-17.64	-0.0873	0.1894	-0.2442	
0.10004	-0.858148	0.452498	-8.89	61.53	-17.22	-0.0768	0.191	-0.2411	
0.027206	-0.878156	0.408456	-6.3	58.24	-15.05	-0.0648	0.1948	-0.2504	
0.02135	-0.913536	0.409188	-5.18	57.75	-14.28	-0.0602	0.1876	-0.2492	
0.053802	-0.896456	0.43066	-1.96	59.71	-13.79	-0.0467	0.2004	-0.2518	
0.078202	-0.85888	0.459696	-4.48	62.3	-14.07	-0.0512	0.1892	-0.2461	
0.047702	-0.85644	0.41846	-5.25	65.8	-16.31	-0.036	0.1838	-0.2668	
0.018666	-0.865956	0.406138	-7.42	64.68	-19.04	-0.0332	0.1945	-0.2538	
0.033184	-0.86132	0.42822	-8.82	64.75	-19.88	-0.0286	0.1942	-0.2601	
0.04087	-0.868762	0.418582	-12.25	68.18	-21.35	-0.0181	0.191	-0.265	
0.01708	-0.870226	0.462258	-14.91	68.88	-23.38	-0.0106	0.2026	-0.2629	
0.038918	-0.837042	0.39711	-5.04	71.54	-27.72	-0.0152	0.2055	-0.2611	
0.046482	-0.857904	0.407846	-7.91	78.82	-31.85	-0.0017	0.1973	-0.2523	
0.013176	-0.859612	0.406626	-10.43	81.2	-38.22	-0.0001	0.2026	-0.2614	
-0.000122	-0.851682	0.43249	-15.26	82.88	-41.58	0.0148	0.2066	-0.266	
0.012078	-0.848632	0.418582	-17.5	85.96	-45.64	0.0148	0.1995	-0.2632	
0.015982	-0.886086	0.40199	-20.79	87.64	-45.01	0.0329	0.1937	-0.2637	
-0.018544	-0.900116	0.392352	-21.77	89.25	-46.2	0.0358	0.2056	-0.2553	
-0.012688	-0.922198	0.340014	-11.83	98.35	-52.29	0.0373	0.2056	-0.2553	
-0.013054	-0.933788	0.326228	-8.82	99.33	-53.06	0.0523	0.2084	-0.2553	
-0.061244	-0.91439	0.324764	-6.16	99.26	-54.25	0.0582	0.2189	-0.2454	
-0.088084	-0.942328	0.285236	-4.06	97.09	-55.93	0.06879999	0.2112	-0.2552	
-0.10004	-0.95282	0.326838	-10.43	87.22	-54.88	0.0702	0.2158	-0.2487	
-0.089426	-0.957212	0.324886	-6.86	81.55	-51.1	0.0702	0.2172	-0.2502	
-0.107238	-0.97112	0.330864	-10.85	80.22	-45.78	0.0748	0.2155	-0.2535	
-0.12017	-0.942572	0.303292	-19.95	83.86	-38.78	0.0762	0.2158	-0.2472	
-0.157624	-0.969046	0.271084	-19.67	76.86	-38.99	0.0942	0.2187	-0.2456	
-0.101992	-0.936228	0.313662	-8.4	44.03	-29.68	0.0972	0.2287	-0.2467	
-0.121146	-0.946842	0.334036	-2.17	53.55	-27.65	0.1017	0.2304	-0.2404	
-0.107604	-0.944768	0.304878	-0.77	44.38	-25.97	0.1032	0.2262	-0.2375	
-0.052094	-0.914756	0.33733	-5.04	32.9	-16.73	0.1122	0.2261	-0.2391	
-0.050996	-0.899872	0.335744	-3.85	40.25	-14.21	0.1137	0.2219	-0.2378	
-0.055632	-0.910852	0.32208	-2.03	32.62	-15.68	0.1092	0.2276	-0.239	
-0.069296	-0.909754	0.337086	1.4	28.7	-16.8	0.1136	0.2348	-0.2371	
-0.09162199	-0.937814	0.32879	-0.7	26.53	-13.44	0.1241	0.2333	-0.2373	
-0.084058	-0.924882	0.342942	-2.1	18.9	-9.73	0.1227	0.2258	-0.2439	
-0.065148	-0.921344	0.356484	-2.1	13.44	-7.98	0.1257	0.2232	-0.2378	
-0.048556	-0.907802	0.348188	-1.26	10.85	-7.35	0.1226	0.2267	-0.2267	
-0.043432	-0.91256	0.353678	-2.87	7.91	-6.79	0.1166	0.2309	-0.2295	
-0.03843	-0.92171	0.357704	-2.52	5.81	-7.35	0.1226	0.2363	-0.2356	
-0.037332	-0.917928	0.352336	-0.35	2.45	-7.07	0.1226	0.231	-0.2265	
-0.037942	-0.92476	0.34587	1.26	2.1	-5.39	0.1256	0.2324	-0.2264	
-0.025864	-0.916342	0.34221	1.19	-1.19	-2.87	0.1196	0.2293	-0.2328	
-0.020374	-0.91561	0.322202	3.01	-2.59	-0.28	0.1122	0.2305	-0.2389	
-0.016836	-0.92598	0.342698	2.38	-8.82	2.8	0.1226	0.2334	-0.2357	
0.00305	-0.935984	0.354166	1.4	-11.13	3.92	0.1212	0.2319	-0.2373	
-0.002196	-0.92476	0.35868	1.68	-13.3	4.06	0.1182	0.2247	-0.2377	
-0.00427	-0.92476	0.350994	3.43	-13.93	4.48	0.1166	0.2349	-0.2356	
0.01403	-0.918782	0.358558	3.29	-19.25	5.11	0.1121	0.232	-0.2357	
0.002562	-0.904752	0.366122	2.94	-15.47	5.81	0.1213	0.2285	-0.2485	
-0.041846	-0.904386	0.36539	0.77	-16.66	4.55	0.1197	0.2202	-0.2426	
-0.06466	-0.90524	0.327204	3.5	-17.22	4.2	0.1122	0.2286	-0.2468	
-0.02623	-0.92964	0.369782	-3.15	-27.72	7.77	0.1152	0.2229	-0.2456	
0.007198	-0.906948	0.388448	-1.26	-26.32	11.27	0.1001	0.2335	-0.2371	
-0.005734	-0.888282	0.36234	1.61	-25.9	10.71	0.1002	0.2276	-0.2405	
-0.010126	-0.884866	0.352702	0.84	-29.26	9.31	0.1122	0.2246	-0.2408	
-0.030988	-0.91561	0.338794	2.38	-30.24	9.59	0.1077	0.2261	-0.2407	
-0.028426	-0.930616	0.355996	0.21	-36.68	9.94	0.0972	0.2248	-0.2391	
-0.026352	-0.915488	0.375882	-1.33	-39.41	10.15	0.0867	0.2331	-0.2464	
-0.040748	-0.903898	0.363804	-1.26	-41.72	10.5	0.0911	0.2278	-0.2373	
-0.02806	-0.91439	0.335012	1.26	-42.28	12.74	0.0837	0.2245	-0.2468	
-0.011712	-0.907802	0.340624	3.29	-45.08	14.07	0.0882	0.219	-0.2393	
0.013664	-0.894016	0.36234	2.52	-46.55	15.82	0.0792	0.2227	-0.2531	
0.0305	-0.897066	0.38369	0.42	-46.69	16.24	0.0807	0.226	-0.2452	
-0.020252	-0.928298	0.316224	7.91	-42.42	16.24	0.07319999	0.2216	-0.2485	
-0.013298	-0.95343	0.30622	10.15	-49.49	16.52	0.0597	0.2203	-0.2469	
0.048678	-0.910852	0.392962	8.89	-60.69	16.31	0.0552	0.2217	-0.2468	
0.039284	-0.861808	0.394304	10.36	-53.55	13.44	0.0357	0.2173	-0.2515	
0.027694	-0.878156	0.370026	6.79	-52.57	10.99	0.0492	0.2203	-0.2468	
-0.008052	-0.923906	0.325374	8.75	-51.59	9.31	0.0387	0.2172	-0.2531	
0.01586	-0.96685	0.316346	10.71	-54.25	11.62	0.0373	0.2099	-0.2551	
0.024156	-0.93452	0.369538	11.9	-56.98	14.56	0.0236	0.2148	-0.2437	
0.05368	-0.895236	0.418704	16.31	-55.09	16.52	0.0192	0.2158	-0.253	
0.048556	-0.890356	0.360754	18.41	-55.51	17.57	0.0192	0.2146	-0.2484	
0.052216	-0.91622	0.343796	16.03	-59.22	17.85	0.0087	0.2029	-0.2536	
0.084546	-0.908412	0.369294	14.14	-64.54	18.62	0.0027	0.2143	-0.2577	
0.09857599	-0.89182	0.397842	14.21	-64.75	18.76	-0.0048	0.2091	-0.2454	
0.099918	-0.861442	0.401502	14.98	-62.58	20.51	-0.0047	0.2114	-0.2578	
0.118828	-0.866932	0.405528	14.98	-59.57	20.16	-0.0151	0.1984	-0.2599	
0.140056	-0.87474	0.436882	12.32	-54.25	19.11	-0.0197	0.2028	-0.2597	
0.150182	-0.872666	0.440298	10.92	-48.51	17.22	-0.0257	0.1919	-0.2461	
0.172874	-0.87596	0.454084	10.5	-42.07	16.52	-0.0316	0.1914	-0.2571	
0.155184	-0.89731	0.427976	12.04	-33.88	16.87	-0.0348	0.1992	-0.2457	
0.129564	-0.89243	0.415654	11.55	-29.96	15.75	-0.0392	0.1931	-0.2538	
0.10492	-0.862906	0.411018	9.1	-28.07	15.12	-0.0467	0.1902	-0.2554	
0.103578	-0.871324	0.41724	7.91	-28.63	15.4	-0.0421	0.1942	-0.26	
0.12932	-0.859978	0.390034	15.19	-28	13.93	-0.0391	0.1897	-0.2633	
0.155428	-0.878156	0.426512	13.37	-19.6	17.64	-0.0451	0.1884	-0.2618	
0.155794	-0.881206	0.438834	13.23	-18.83	16.03	-0.0466	0.1857	-0.2572	
0.168726	-0.853634	0.460306	13.16	-14.07	14.14	-0.0467	0.1902	-0.2539	
0.175558	-0.838018	0.47458	11.48	-10.64	12.53	-0.0497	0.1916	-0.2553	
0.165554	-0.819108	0.476044	11.48	-6.86	10.22	-0.0391	0.1898	-0.2618	
0.153232	-0.826672	0.484828	6.86	-3.22	8.33	-0.0437	0.1887	-0.2811	
0.148108	-0.836554	0.491904	3.57	0.35	7.07	-0.045	0.1838	-0.2667	
0.126514	-0.848632	0.487756	1.12	4.76	5.67	-0.0481	0.1867	-0.2666	
0.105774	-0.839116	0.45689	1.05	6.51	4.27	-0.042	0.1824	-0.2668	
0.09942999	-0.834968	0.453352	-1.12	4.55	2.8	-0.0377	0.1944	-0.2569	
0.10797	-0.837042	0.463478	-2.24	4.62	2.73	-0.0406	0.1867	-0.2666	
0.112728	-0.851316	0.470676	-3.99	5.6	1.82	-0.0391	0.1841	-0.2605	
0.108092	-0.849974	0.475312	-6.3	6.65	0.49	-0.0421	0.1913	-0.2601	
0.092598	-0.856928	0.4636	-6.65	9.87	-1.54	-0.0347	0.2013	-0.2612	
0.073688	-0.864248	0.448106	-4.55	12.32	-4.76	-0.0316	0.187	-0.2589	
0.066978	-0.871812	0.444812	-3.78	12.32	-7.07	-0.0466	0.1927	-0.2631	
0.079422	-0.877302	0.442494	-2.87	11.76	-7.49	-0.0376	0.19	-0.2571	
0.077592	-0.87962	0.446276	-1.47	13.58	-6.86	-0.0301	0.1939	-0.2663	
0.06466	-0.881084	0.440176	-1.05	14.42	-6.09	-0.0361	0.1951	-0.2709	
0.044774	-0.88999	0.435784	-0.49	15.4	-4.62	-0.0376	0.1897	-0.2649	
0.03172	-0.891454	0.430904	-0.28	14.49	-2.8	-0.0271	0.1897	-0.2619	
0.02257	-0.883524	0.431026	0.49	12.81	-1.68	-0.0196	0.1929	-0.2555	
0.021716	-0.881084	0.433466	0.28	9.45	-0.63	-0.0256	0.1938	-0.2664	
0.01037	-0.877546	0.43371	0.42	7.35	0	-0.0285	0.1894	-0.2697	
0.011834	-0.872544	0.428586	0.91	2.59	-0.14	-0.0286	0.1898	-0.2619	
0.024522	-0.865712	0.430172	-0.07	0.63	0.42	-0.0316	0.1968	-0.2662	
0.041358	-0.867786	0.439688	-0.56	0.56	0.84	-0.0241	0.1969	-0.2615	
0.038796	-0.865224	0.447008	-1.12	0.7	1.26	-0.018	0.1864	-0.2699	
0.02806	-0.868884	0.447252	-2.1	0.42	1.47	-0.0286	0.1895	-0.2666	
0.020618	-0.874008	0.446276	-1.96	0.77	1.68	-0.0196	0.1911	-0.2619	
0.030866	-0.8784	0.441396	-2.8	-0.35	1.82	-0.0211	0.1925	-0.2633	
0.035502	-0.879254	0.445422	-2.24	0.49	2.03	-0.0181	0.1883	-0.262	
0.034648	-0.865102	0.445422	-0.49	2.1	2.31	-0.0286	0.1939	-0.2648	
0.027206	-0.865102	0.43798	1.19	3.22	1.82	-0.0226	0.1956	-0.26	
0.009638	-0.870592	0.439566	1.19	2.8	0.84	-0.0196	0.1969	-0.2616	
0.01037	-0.866932	0.434442	1.54	1.61	0.21	-0.0136	0.1883	-0.2605	
0.023668	-0.864492	0.443836	1.12	0.49	0.07	-0.0165	0.188	-0.2667	
0.02989	-0.866932	0.451034	0.84	0.7	0	-0.0226	0.1937	-0.268	
0.03843	-0.867176	0.453474	0.77	0.49	-0.98	-0.0196	0.1911	-0.2619	
0.038674	-0.861564	0.449936	1.4	1.89	-1.26	-0.0181	0.1899	-0.2588	
0.030622	-0.870592	0.44713	0.91	3.36	-1.33	-0.0196	0.1927	-0.2586	
0.033184	-0.868274	0.439566	0.84	2.8	-1.26	-0.0135	0.1866	-0.2653	
0.038918	-0.873886	0.43981	0.42	1.12	-1.4	-0.015	0.1852	-0.2653	
0.038308	-0.873886	0.444568	0.98	1.12	-1.19	-0.0165	0.1865	-0.2684	
0.039894	-0.862174	0.448106	1.47	0.98	-1.19	-0.0241	0.1938	-0.2664	
0.044896	-0.862418	0.454694	0.77	1.12	-1.33	-0.018	0.1838	-0.2654	
0.045262	-0.868152	0.457256	0.07	1.54	-1.61	-0.0151	0.1915	-0.2541	
0.040016	-0.866688	0.45384	-0.56	1.75	-1.75	-0.015	0.1769	-0.2579	
0.036234	-0.87108	0.45018	-0.91	2.1	-1.47	-0.0167	0.1945	-0.2508	
0.036478	-0.8662	0.449936	-1.05	1.61	-0.77	-0.0255	0.1878	-0.2729	
0.040504	-0.865712	0.450912	-1.33	1.4	0	-0.015	0.188	-0.2668	
0.040016	-0.871568	0.44042	-1.4	1.33	0.49	-0.0196	0.1911	-0.2619	
0.035746	-0.874008	0.437248	-0.7	1.33	0.77	-0.0181	0.194	-0.2617	
0.036356	-0.878522	0.436394	-0.56	0.7	1.05	-0.0226	0.1971	-0.2584	
0.047458	-0.869616	0.44164	0.35	-0.14	1.47	-0.0135	0.1851	-0.2669	
0.04819	-0.871812	0.444934	0.49	-0.63	1.33	-0.0151	0.1942	-0.2586	
0.049166	-0.862174	0.449814	0.42	-1.33	0.84	-0.0256	0.191	-0.2649	
0.053802	-0.864004	0.449448	0.35	-0.56	0.42	-0.0195	0.1894	-0.2682	
0.047702	-0.865346	0.45262	0.14	-0.42	0.07	-0.0135	0.1809	-0.264	
0.040992	-0.863638	0.44774	0.21	0.56	-0.35	-0.0105	0.1923	-0.2666	
0.039162	-0.85949	0.450668	-0.21	0.63	-0.14	-0.021	0.1923	-0.268	
0.043554	-0.86376	0.445422	-0.63	0.42	-0.56	-0.012	0.1853	-0.2638	
0.042822	-0.866444	0.448594	-0.91	-0.35	-0.84	-0.0181	0.191	-0.265	
0.03843	-0.863882	0.448838	-0.49	-1.05	-1.33	-0.0121	0.1912	-0.2604	
0.035746	-0.86925	0.448594	-0.28	-0.35	-0.98	-0.015	0.1863	-0.2715	
0.03721	-0.869616	0.449692	-0.63	-0.21	-0.98	-0.015	0.1807	-0.2687	
0.036844	-0.865712	0.455792	-0.77	-0.7	-0.98	-0.0151	0.1926	-0.2618	
0.034892	-0.858392	0.45323	-0.07	0.14	-0.84	-0.0165	0.1936	-0.2696	
0.039406	-0.858636	0.457256	-0.56	-0.28	-0.91	-0.0149	0.1791	-0.2719	
0.035502	-0.864736	0.455548	-1.33	0.07	-1.05	-0.0179	0.1805	-0.2734	
0.031476	-0.875472	0.449692	-1.68	0.07	-0.91	-0.0165	0.1923	-0.2681	
0.0366	-0.879254	0.448594	-1.12	0.21	-0.49	-0.0271	0.1927	-0.2602	
0.041602	-0.87291	0.448594	0.14	0.28	0.84	-0.0196	0.1956	-0.2601	
0.041602	-0.87108	0.447496	0.49	0.91	1.47	-0.0181	0.1868	-0.2621	
0.047214	-0.873032	0.450302	0.84	1.12	1.89	-0.0241	0.1885	-0.2573	
0.050996	-0.86559	0.446398	1.47	1.89	2.24	-0.021	0.1894	-0.2682	
0.051362	-0.863394	0.443592	1.19	2.17	2.03	-0.0209	0.1874	-0.2793	
0.043798	-0.864736	0.445178	0.98	2.52	1.47	-0.0285	0.1879	-0.2713	