Sensor string: E
Serial number: 1970-01-0000
Firmware version: 2,015
Hardware version: 2,2
Calibration quality: 5
ax	ay	az	gx	gy	gz	mx	my	mz

-1.009184	0.053192	-0.035136	-0.35	0.91	-0.42	0.4139	0.0153	-0.2308	Reference
-1.012478	0.054046	-0.038308	-1.12	1.12	-0.28	0.4112	0.0061	-0.237	
-1.01321	0.051972	-0.034404	-1.96	0.84	-0.35	0.414	0.0137	-0.2339	
-1.012722	0.050996	-0.03294	-2.1	0.84	-0.35	0.4096	0.0184	-0.2385	
-1.013088	0.057584	-0.03599	-1.47	1.05	-0.21	0.4127	0.0045	-0.2417	
-1.015162	0.059048	-0.037332	-2.17	0.77	-0.07	0.4139	0.0183	-0.24	
-1.01382	0.059414	-0.043188	-1.4	0.42	0	0.4083	0.0122	-0.2385	
-1.01504	0.055266	-0.042944	-2.31	0.63	0.21	0.4069	0.0107	-0.2386	
-1.01565	0.053192	-0.041846	-2.17	0.63	0.21	0.414	0.0137	-0.2308	
-1.014918	0.053192	-0.04392	-2.38	0.49	0.21	0.4169	0.0122	-0.2277	
-1.016138	0.054168	-0.04209	-2.17	0.21	0.21	0.4068	0.0169	-0.237	
-1.014918	0.054778	-0.044774	-0.98	-0.35	0.56	0.4154	0.0122	-0.2308	
-1.01382	0.054534	-0.04331	-0.63	-0.35	0.7	0.4167	0.0197	-0.2446	
-1.01321	0.052826	-0.040504	-0.56	-0.21	0.84	0.4181	0.0213	-0.2338	
-1.01382	0.054656	-0.041114	-0.21	0	0.91	0.4011	0.0155	-0.2339	
-1.0126	0.05795	-0.041724	-1.33	0.07	0.77	0.4095	0.0215	-0.2338	
-1.016138	0.05795	-0.037088	-1.82	0.21	0.63	0.4054	0.0108	-0.2386	
-1.011014	0.06283	-0.036478	-0.49	0.21	0.49	0.4124	0.0167	-0.2447	
-1.012112	0.062464	-0.037942	0.14	0.21	0.56	0.414	0.0122	-0.2339	
-1.020652	0.05917	-0.039284	-0.98	-0.14	0.35	0.4096	0.0183	-0.2431	
-1.018212	0.058316	-0.039528	-0.84	-1.19	0.21	0.4139	0.0152	-0.2431	
-1.013088	0.059292	-0.03904	0.21	-1.61	0.28	0.4068	0.0153	-0.2385	
-1.015284	0.066368	-0.0366	1.54	-1.19	0.28	0.4097	0.0107	-0.2401	
-1.01443	0.067954	-0.039406	0.56	-0.7	0.14	0.4096	0.0153	-0.2385	
-1.009428	0.06466	-0.03599	-0.56	-0.63	0.14	0.4053	0.0185	-0.2339	
-1.006988	0.062708	-0.030256	-0.77	-0.7	0.14	0.4025	0.017	-0.2354	
-1.010038	0.062464	-0.03477	0.21	0	0	0.4096	0.0153	-0.2385	
-1.01321	0.06283	-0.035868	-0.7	0	-0.07	0.404	0.0107	-0.2463	
-1.013698	0.060756	-0.033306	-0.98	-0.49	-0.21	0.4084	0.0062	-0.2293	
-1.013088	0.05917	-0.033062	-0.49	0.28	-0.07	0.4039	0.017	-0.2339	
-1.014552	0.062586	-0.034892	-0.28	0.28	-0.07	0.3983	0.014	-0.2355	
-1.010648	0.059292	-0.037942	0.63	0.07	0	0.4083	0.0108	-0.2308	
-1.013088	0.062342	-0.033794	-0.49	0.63	-0.07	0.4026	0.0062	-0.2432	
-1.012722	0.056608	-0.03294	-1.05	0.14	-0.21	0.4168	0.012	-0.2447	
-1.013942	0.055144	-0.036478	-0.7	0.28	-0.07	0.4138	0.0182	-0.2446	
-1.014674	0.059414	-0.039406	0	-0.63	-0.35	0.4083	0.009099999	-0.2417	
-1.012966	0.055266	-0.040138	0.07	-0.21	-0.42	0.4139	0.0152	-0.2416	
-1.013454	0.055266	-0.037332	0.21	-0.07	-0.35	0.4153	0.0135	-0.2524	
-1.01138	0.057218	-0.036844	0.7	0.14	-0.49	0.4082	0.0138	-0.2401	
-1.011868	0.057462	-0.036234	0.7	0.7	-0.49	0.4112	0.0107	-0.2339	
-1.01321	0.056364	-0.0366	0.28	0.77	-0.42	0.4112	0.009099999	-0.2416	
-1.013576	0.055754	-0.033916	0.21	0.84	-0.28	0.4124	0.0183	-0.2431	
-1.013332	0.05978	-0.03599	1.12	0.49	-0.28	0.4125	0.0122	-0.2401	
-1.011258	0.057462	-0.038308	0.21	0.35	-0.28	0.4069	0.0092	-0.2417	
-1.014552	0.058072	-0.037332	0.14	0.49	-0.14	0.4125	0.0153	-0.2354	
-1.01382	0.058194	-0.039162	0.63	0.63	-0.07	0.4055	0.0093	-0.2293	
-1.013942	0.056486	-0.03843	0.07	0.98	-0.14	0.4139	0.0121	-0.2478	
-1.012722	0.055998	-0.038796	-0.42	0.63	-0.28	0.4025	0.0154	-0.2432	
-1.01382	0.053436	-0.037942	-0.84	0.49	-0.28	0.4125	0.0136	-0.2478	
-1.013454	0.055144	-0.044408	-0.56	-0.14	-0.28	0.4067	0.0184	-0.2447	
-1.013698	0.054168	-0.04758	-1.54	-0.63	-0.07	0.4139	0.0167	-0.24	
-1.016992	0.057218	-0.05246	-1.89	-1.12	0.21	0.4098	0.0061	-0.2401	
-1.024678	0.060512	-0.049288	-1.19	-1.33	0.14	0.4095	0.0198	-0.2462	
-1.018456	0.061122	-0.04941	-1.05	-1.96	0.14	0.4012	0.0078	-0.2355	
-1.014186	0.061488	-0.050874	-0.63	-1.89	0.14	0.4226	0.0058	-0.2401	
-1.011136	0.063074	-0.05429	0.56	-1.89	0	0.4098	0.0076	-0.2432	
-1.023336	0.058682	-0.050752	-2.94	-1.96	-0.14	0.4068	0.0137	-0.2509	
-1.017968	0.056364	-0.047458	-2.17	-3.78	-0.77	0.4053	0.0184	-0.2385	
-1.01748	0.062098	-0.051484	-0.49	-4.34	-0.91	0.4024	0.0216	-0.2307	
-1.019066	0.063562	-0.054778	-1.61	-5.67	-1.05	0.4068	0.0122	-0.2432	
-1.023214	0.063196	-0.05368	-3.5	-6.44	-1.05	0.4054	0.0123	-0.2401	
-1.01748	0.055754	-0.058926	-3.64	-7.42	-0.91	0.4069	0.0061	-0.2417	
-1.01443	0.057096	-0.059536	-3.29	-8.47	-0.49	0.411	0.0183	-0.2369	
-1.039806	0.066612	-0.05612	-5.04	-9.31	-0.42	0.4038	0.0246	-0.2369	
-1.037854	0.064172	-0.053558	-5.04	-12.25	-0.42	0.3996	0.02	-0.2462	
-1.014674	0.067588	-0.058194	1.19	-10.5	0.49	0.4095	0.0229	-0.2477	
-1.02602	0.063074	-0.049776	0.7	-11.2	0.63	0.4038	0.0215	-0.2446	
-1.023458	0.058804	-0.057218	1.89	-12.39	0.28	0.4054	0.0076	-0.2525	
-1.02297	0.066612	-0.047702	-1.4	-14.42	-0.14	0.4038	0.0198	-0.2617	
-1.031876	0.070882	-0.03843	-1.75	-16.38	-0.56	0.3868	0.0108	-0.268	
-1.02846	0.066368	-0.035258	-0.56	-16.87	-0.7	0.3982	0.0153	-0.2617	
-1.022482	0.059658	-0.036356	1.89	-17.22	-1.05	0.3994	0.0229	-0.2663	
-1.030412	0.056852	-0.038064	3.43	-17.99	-1.33	0.4067	0.0182	-0.2648	
-1.030778	0.05734	-0.03477	1.96	-20.79	-1.82	0.3865	0.0277	-0.2709	
-1.023336	0.05185	-0.01464	4.27	-23.03	-1.96	0.3937	0.0245	-0.2694	
-1.019066	0.053802	-0.006222	4.48	-23.38	-1.89	0.3824	0.0155	-0.271	
-1.01992	0.060512	-0.015494	5.88	-24.99	-1.82	0.3882	0.0124	-0.2618	
-1.023702	0.059536	-0.021594	3.92	-26.81	-2.03	0.3867	0.0169	-0.2741	
-1.032852	0.05368	-0.013176	2.03	-28.49	-2.31	0.3738	0.0217	-0.2787	
-1.036146	0.047946	0	1.82	-31.43	-2.87	0.3839	0.0122	-0.2912	
-1.028216	0.043188	0.007442	2.31	-34.93	-3.64	0.3808	0.023	-0.288	
-1.021384	0.047336	0.017324	5.39	-37.38	-4.06	0.3708	0.0262	-0.2942	
-1.018578	0.04758	0.02623	4.27	-39.27	-4.27	0.3723	0.02	-0.3019	
-0.998814	0.061854	0.031842	6.86	-42.35	-4.06	0.3594	0.0201	-0.3143	
-1.011624	0.060756	0.049288	3.29	-43.54	-3.57	0.3624	0.0124	-0.316	
-1.024434	0.052704	0.07905599	0.28	-47.18	-3.15	0.3536	0.0216	-0.3329	
-1.020896	0.055876	0.093452	3.01	-51.73	-3.08	0.3564	0.0277	-0.3313	
-1.005158	0.045994	0.096014	4.76	-56.91	-2.66	0.3452	0.0156	-0.333	
-0.986492	0.048556	0.116632	5.04	-58.59	-2.52	0.3452	0.0156	-0.3345	
-0.974658	0.041114	0.15067	3.15	-61.6	-2.94	0.3322	0.0218	-0.35	
-0.968436	0.0366	0.179462	1.19	-62.58	-3.08	0.3323	0.0156	-0.3578	
-0.96929	0.035136	0.194346	-2.8	-62.93	-2.94	0.3193	0.025	-0.3639	
-0.968192	0.051484	0.224236	5.32	-68.74	-3.22	0.3064	0.0282	-0.3685	
-0.959896	0.03843	0.255224	1.26	-69.93	-2.94	0.3036	0.0221	-0.3779	
-0.948916	0.034526	0.281454	1.54	-71.61	-2.94	0.3023	0.0128	-0.3872	
-0.937082	0.026352	0.31781	-5.74	-82.46	-3.5	0.2935	0.0268	-0.3856	
-0.900238	0.021594	0.36234	-3.36	-78.61	-3.36	0.2892	0.0283	-0.3933	
-0.870348	-0.00122	0.361852	1.4	-77	-2.8	0.2707	0.0224	-0.4058	
-0.864126	-0.002318	0.37759	3.29	-76.3	-2.17	0.255	0.0227	-0.4105	
-0.861076	0.008296	0.421632	8.47	-80.78	-1.54	0.2549	0.0256	-0.4259	
-0.850584	0.040626	0.443592	8.12	-81.76	-0.77	0.2421	0.0242	-0.4306	
-0.8113	0.04514	0.509106	9.24	-85.12	0.07	0.2165	0.0154	-0.4447	
-0.773236	0.027084	0.542656	13.02	-80.99	0.42	0.2079	0.0186	-0.4447	
-0.755424	0.020496	0.558516	10.29	-75.6	0.91	0.1995	0.0095	-0.451	
-0.735538	0.025986	0.521184	-6.16	-77.56	0.91	0.185	0.025	-0.4571	
-0.70455	0.02135	0.630252	-0.35	-85.05	-0.07	0.1721	0.0237	-0.4633	
-0.69601	0.02623	0.679784	-1.12	-79.52	0.21	0.1579	0.0208	-0.4696	
-0.689178	0.023424	0.684908	-2.66	-78.61	-0.84	0.1508	0.0163	-0.4727	
-0.660508	0.02867	0.710162	-2.87	-77.56	-1.75	0.1509	0.0147	-0.4789	
-0.625616	0.02989	0.726266	-1.54	-73.43	-1.82	0.135	0.0289	-0.468	
-0.604632	0.0183	0.748592	-3.29	-71.19	-2.31	0.1236	0.0244	-0.482	
-0.576206	-0.011712	0.805078	-0.98	-70	-3.85	0.1081	0.0138	-0.4945	
-0.57767	-0.005124	0.78934	-0.07	-66.36	-4.62	0.1021	0.0277	-0.5006	
-0.556076	0.002074	0.820938	2.73	-65.87	-4.69	0.0837	0.0204	-0.4976	
-0.541314	0.010004	0.839604	2.59	-64.19	-4.27	0.0751	0.0205	-0.5007	
-0.499102	0.029158	0.83326	-0.42	-66.43	-4.06	0.0694	0.0221	-0.51	
-0.474946	0.018422	0.876448	-1.4	-64.05	-4.76	0.0538	0.0148	-0.4993	
-0.482022	0.010858	0.90219	4.06	-54.18	-4.41	0.0466	0.0209	-0.5116	
-0.461526	-0.01586	0.913536	-1.82	-52.99	-5.39	0.0367	0.0166	-0.4994	
-0.460184	0.003416	1.004182	9.38	-45.01	-4.83	0.0252	0.0229	-0.504	
-0.479948	0.011468	0.991494	5.32	-40.74	-4.83	0.0169	0.0046	-0.5119	
-0.445422	0.00244	1.021994	3.08	-36.75	-4.55	0.0168	0.0123	-0.5025	
-0.423828	0.005856	1.019066	2.52	-32.62	-4.41	0.011	0.0186	-0.5025	
-0.411262	0.02013	1.00467	-0.49	-26.11	-4.06	-0.0046	0.0235	-0.4948	
-0.39589	-0.000244	1.01382	-0.7	-19.39	-3.71	0.0039	0.0157	-0.4979	
-0.391864	-0.013542	1.015894	0.42	-14	-3.08	-0.0046	0.0173	-0.5026	
-0.383324	-0.011834	1.001254	0.84	-7.7	-2.03	-0.0031	0.0142	-0.5011	
-0.378078	-0.004636	0.998936	1.75	-2.66	-1.54	0.0052	0.0233	-0.5056	
-0.38674	0.004758	0.994178	2.1	2.24	-0.98	0.0009	0.0218	-0.5072	
-0.389302	0.014396	0.99003	3.08	6.37	0.35	-0.0088	0.0112	-0.5088	
-0.39345	0.024156	0.998692	3.85	11.13	1.4	-0.0045	0.0126	-0.5134	
-0.396988	0.026962	0.996374	3.29	16.17	2.03	0.0039	0.014	-0.5088	
-0.40626	0.013664	0.992714	2.94	20.58	2.17	0.009699999	0.0108	-0.515	
-0.416508	0.003904	0.981124	2.59	24.99	1.96	0.0009	0.0247	-0.521	
-0.415166	-0.00183	0.97356	3.36	29.47	1.61	0.0081	0.02	-0.5164	
-0.425658	0.000366	0.962092	4.55	34.51	1.68	0.0098	0.0047	-0.5088	
-0.453962	0.01342	0.959652	5.04	39.13	1.68	0.0239	0.0121	-0.5087	
-0.4941	0.027328	0.935008	3.85	44.87	0.77	0.0311	0.0042	-0.5227	
-0.497516	0.02501	0.914512	4.76	48.3	0.14	0.0296	0.0136	-0.504	
-0.49837	0.017446	0.906826	4.97	51.45	-0.21	0.0468	0.0118	-0.4978	
-0.521672	0.011712	0.871568	1.12	60.06	-0.49	0.0454	0.0103	-0.4994	
-0.523502	0.018544	0.879742	5.74	59.64	-1.4	0.0626	0.0054	-0.4932	
-0.54595	0.022082	0.837042	1.26	61.39	-1.89	0.07539999	0.0035	-0.5071	
-0.552782	0.034526	0.834724	2.38	64.82	-2.38	0.0739	0.0082	-0.5009	
-0.564128	0.03416	0.808982	0.77	67.06	-3.08	0.08679999	0.009699999	-0.4838	
-0.584258	0.0366	0.781898	0.07	73.57	-3.64	0.1095	0.0139	-0.4852	
-0.60024	0.026474	0.758474	-0.91	73.5	-3.92	0.125	0.0228	-0.4851	
-0.606584	0.022814	0.736392	-1.68	73.78	-4.41	0.1337	0.018	-0.4867	
-0.623298	0.021594	0.717238	-2.31	77.14	-4.69	0.1409	0.0149	-0.482	
-0.649162	0.010492	0.692228	-1.05	79.24	-4.2	0.1581	0.0068	-0.4882	
-0.685518	0.004392	0.654408	-3.15	80.5	-3.57	0.1666	0.0099	-0.4743	
-0.705892	0.012932	0.630862	-2.66	80.5	-3.22	0.178	0.0127	-0.4726	
-0.705892	0.025498	0.621224	-1.12	80.78	-3.15	0.1895	0.0127	-0.4572	
-0.72163	0.016958	0.589992	-2.73	81.55	-2.8	0.1966	0.0125	-0.4571	
-0.747738	0.001708	0.551928	-3.71	83.86	-2.31	0.208	0.0125	-0.4432	
-0.767868	-0.0183	0.524966	-3.57	84.35	-1.4	0.2194	0.0185	-0.4307	
-0.790316	-0.00671	0.482144	-1.33	86.1	-0.14	0.2449	0.0288	-0.4306	
-0.798612	0.018178	0.450668	-2.03	87.43	0.07	0.2437	0.0119	-0.4323	
-0.810568	0.024156	0.422852	-5.25	87.78	0.07	0.2578	0.0256	-0.4213	
-0.818986	0.017568	0.388692	-5.81	87.78	0.7	0.2623	0.0118	-0.4121	
-0.84119	0.000854	0.347944	-7.28	89.25	1.26	0.2692	0.0255	-0.4042	
-0.85339	-0.011956	0.30378	-6.79	87.92	1.75	0.2879	0.0207	-0.3934	
-0.86803	-0.011346	0.27328	-5.25	87.36	1.96	0.2936	0.0238	-0.381	
-0.887184	-0.020984	0.264252	-1.61	84.56	1.96	0.3165	0.0204	-0.3701	
-0.89487	-0.02867	0.223382	-0.56	86.24	2.17	0.3193	0.0203	-0.3717	
-0.925492	-0.017568	0.171044	-1.12	86.03	2.31	0.3252	0.0127	-0.3578	
-0.963678	-0.014762	0.16226	3.29	83.93	2.31	0.3408	0.0186	-0.3515	
-0.9943	-0.000244	0.12139	4.41	82.32	2.66	0.3494	0.0186	-0.3268	
-1.008696	0.022082	0.08784	9.03	77.91	3.01	0.3637	0.0216	-0.3112	
-0.991006	0.056974	0.030134	14.56	76.3	3.43	0.368	0.02	-0.3081	
-0.96136	0.08295999	-0.013908	17.71	70.21	3.71	0.3767	0.0123	-0.2943	
-0.952942	0.096136	-0.058194	18.34	70.28	3.64	0.3824	0.0106	-0.3005	
-0.992958	0.069052	-0.084424	8.19	74.34	2.8	0.3825	0.0107	-0.2896	
-1.007232	0.049776	-0.092476	4.41	71.12	1.68	0.3937	0.0229	-0.274	
-1.009062	0.030256	-0.11102	-0.28	62.3	0.98	0.3939	0.0153	-0.2664	
-0.9943	0.022204	-0.127856	0.42	58.17	1.33	0.3983	0.0092	-0.2556	
-0.963678	0.039894	-0.134078	5.39	54.6	1.4	0.3956	0.0017	-0.2402	
-0.978318	0.063684	-0.144814	-0.07	51.59	2.17	0.4055	0.0062	-0.2355	
-0.98393	0.07137	-0.153964	-2.73	47.88	2.73	0.4169	0.0075	-0.2324	
-0.990152	0.042212	-0.166286	-13.51	39.83	2.17	0.4155	0.0092	-0.2262	
-1.021628	0.049654	-0.178852	-8.19	43.4	1.4	0.4098	0.0124	-0.2169	
-1.02053	0.05246	-0.21045	-5.81	38.92	0.7	0.4255	0.0122	-0.2107	
-1.02724	0.045384	-0.229116	-7.63	32.9	0.07	0.4199	0.0062	-0.1999	
-1.027606	0.054412	-0.224114	0.28	33.81	0.28	0.4284	0.0107	-0.2029	
-1.011746	0.040992	-0.20069	0.84	30.24	0.21	0.4342	0.0044	-0.2061	
-0.995642	-0.000244	-0.209596	-2.17	25.41	-0.35	0.4255	0.0154	-0.1936	
-1.039196	-0.02684	-0.229604	-1.82	27.16	-1.82	0.4343	0.0031	-0.1829	
-0.99613	0.02745	-0.25376	5.81	26.39	-2.73	0.4412	0.0153	-0.175	
-1.0187	0.052338	-0.250954	-3.15	16.24	-3.15	0.4469	0.012	-0.1874	
-1.023702	0.048678	-0.20801	8.96	14.98	-2.17	0.4411	0.0199	-0.1734	
-1.03151	0.060756	-0.252662	5.32	24.08	-1.12	0.4384	0.0107	-0.1782	
-1.011014	0.032696	-0.28914	0.63	14.91	0	0.4357	0.0016	-0.1705	
-1.048956	0.019886	-0.27572	-3.71	19.46	-1.05	0.4342	0.0078	-0.1643	
-1.065548	0.036356	-0.294996	1.68	19.95	-0.98	0.4457	0.0046	-0.1612	
-1.053714	0.032208	-0.297558	0.7	15.96	-0.77	0.4485	0.0061	-0.1643	
-1.009184	0.052826	-0.291092	5.95	14.63	0.07	0.4427	0.0092	-0.1674	
-1.012844	0.05368	-0.282552	5.67	11.69	0.98	0.44	0.0062	-0.1628	
-1.00223	0.04209	-0.286456	6.44	13.16	1.47	0.4442	0.0077	-0.1612	
-0.971852	0.029036	-0.275232	4.34	7.63	1.05	0.4456	0.009099999	-0.1674	
-0.985638	0.028304	-0.29341	1.19	11.97	0.49	0.4371	0.011	-0.155	
-0.986858	0.054046	-0.312198	5.11	14.42	0.42	0.4428	0.0093	-0.1535	
-0.955748	0.058194	-0.300974	3.92	11.97	0.21	0.4399	0.011	-0.1442	
-0.979904	0.039772	-0.295362	0.35	18.97	0.84	0.44	0.0064	-0.1411	
-1.009184	0.009393999	-0.322446	-2.38	20.16	0.7	0.4471	0.0124	-0.141	
-1.0004	0.019398	-0.322324	2.66	16.24	0.35	0.4471	0.011	-0.1349	
-0.974902	0.037088	-0.32757	3.01	17.36	0.77	0.4428	0.0125	-0.138	
-0.985516	0.048922	-0.32452	1.12	16.52	1.61	0.4514	0.0125	-0.1302	
-1.023824	0.054656	-0.341844	-1.4	15.68	1.68	0.4486	0.0063	-0.1318	
-1.051518	0.063074	-0.387228	-1.75	11.83	1.47	0.4472	0.0033	-0.1288	
-1.042856	0.052338	-0.391254	-0.98	6.3	1.05	0.4528	0.0094	-0.1271	
-1.009672	0.045384	-0.354166	-1.05	0.56	0	0.4429	0.0111	-0.1225	
-1.011014	0.04209	-0.37149	-1.96	-4.83	0.49	0.4443	0.0111	-0.121	
-1.008574	0.029158	-0.386496	-0.98	-7.07	1.19	0.4474	-0.0057	-0.1227	
-1.013332	0.020984	-0.374906	2.59	-9.38	1.47	0.4399	0.0158	-0.1271	
-1.008452	0.001342	-0.364292	3.22	-9.94	0.84	0.4442	0.0157	-0.1256	
-0.992592	0.009881999	-0.355264	4.69	-11.06	0.91	0.4487	-0.0012	-0.1288	
-1.002596	0.054656	-0.349408	6.72	-9.38	1.75	0.4543	0.0079	-0.1225	
-1.004182	0.073078	-0.360388	2.38	-14.14	2.66	0.4488	-0.0028	-0.1365	
-1.009794	0.08418	-0.365268	2.1	-15.47	2.66	0.4501	0.0016	-0.1396	
-1.008452	0.06283	-0.3416	0.84	-18.9	1.96	0.4459	-0.0043	-0.1397	
-1.01809	0.021716	-0.335134	-2.24	-19.46	1.75	0.4443	0.0079	-0.1442	
-1.050054	0.029402	-0.356118	-3.85	-24.22	1.4	0.4486	0.0031	-0.1473	
-1.066646	0.033062	-0.36722	-3.08	-28.14	1.33	0.4487	-0.0061	-0.1598	
-1.05042	0.03843	-0.340014	0.63	-30.87	1.12	0.4357	0.0032	-0.1643	
-1.006622	0.013908	-0.314028	-2.03	-35.28	1.47	0.4515	-0.0032	-0.1705	
-0.996496	0.02257	-0.27267	-1.33	-36.47	2.17	0.447	0.0106	-0.1751	
-1.000644	0.06039	-0.281576	-3.57	-37.1	2.87	0.4357	0.0046	-0.1782	
-1.027362	0.062464	-0.280966	-5.18	-37.87	2.38	0.4457	0.0028	-0.186	
-1.014918	0.01952	-0.25864	-3.57	-38.64	0.84	0.4258	-0.0013	-0.1861	
-1.054568	0.00732	-0.252174	-2.73	-37.45	0.42	0.4256	0.0077	-0.1983	
-1.08763	0.04392	-0.249612	-3.29	-39.9	0.42	0.43	-0.0015	-0.2015	
-1.104954	0.056974	-0.249856	-5.18	-46.55	1.12	0.437	0.0058	-0.2122	
-1.064816	0.047824	-0.216916	-3.08	-55.23	0.98	0.4216	-0.0123	-0.2217	
-1.054812	0.028182	-0.154208	5.53	-55.51	0.77	0.4227	0.0014	-0.2247	
-1.026508	0.037454	-0.197762	4.9	-54.46	1.19	0.4184	0.0044	-0.2339	
-1.006378	0.058194	-0.158966	10.85	-62.16	2.52	0.4156	-0.0016	-0.2433	
-1.014186	0.08235	-0.133224	8.47	-63.63	3.85	0.407	0	-0.2495	
-1.009428	0.073322	-0.11041	-1.82	-69.58	4.2	0.4069	0.0044	-0.2556	
-1.006622	0.055388	-0.097234	-2.31	-69.02	4.69	0.4041	0.0028	-0.2695	
-0.99369	0.0549	-0.10004	0.49	-71.47	5.25	0.3941	-0.0016	-0.2758	
-0.981368	0.069296	-0.071004	2.03	-69.58	6.16	0.3869	0.0045	-0.2897	
-0.956114	0.067954	-0.01403	4.48	-69.72	5.25	0.3713	-0.0028	-0.2944	
-0.92354	0.086742	0.004392	1.12	-68.46	4.62	0.3827	-0.0015	-0.2897	
-0.932324	0.060634	0.039162	-7	-70.56	3.78	0.3668	0.0047	-0.3052	
-0.94977	0.070882	0.029646	-10.08	-71.4	3.5	0.3583	0.0032	-0.3191	
-0.95465	0.058316	0.07564	-11.41	-75.39	3.71	0.347	-0.0043	-0.3316	
-0.979538	0.038918	0.154696	-9.45	-74.97	5.39	0.3369	0.0003	-0.344	
-0.98515	0.058926	0.22326	-8.54	-75.95	5.46	0.3325	0.0018	-0.3548	
-0.975268	0.07381	0.254004	-9.38	-77.35	4.55	0.3325	0.0018	-0.3532	
-0.929152	0.068076	0.260104	-6.09	-76.02	2.87	0.3238	0.0112	-0.3547	
-0.87657	0.07503	0.265472	-2.94	-73.71	1.89	0.3067	0.0068	-0.3656	
-0.873032	0.079178	0.30073	-3.57	-70.28	1.68	0.3081	0.0034	-0.395	
-0.841068	0.068686	0.322568	-4.9	-70.07	1.54	0.2853	0.0054	-0.3935	
-0.847168	0.053192	0.368562	-7	-71.33	1.61	0.2811	-0.0022	-0.4045	
-0.820206	0.049288	0.38064	-10.01	-75.46	0.63	0.2696	0.0056	-0.406	
-0.814106	0.042578	0.400038	-13.58	-78.75	-0.28	0.271	0.0024	-0.4122	
-0.787266	0.020252	0.43371	-12.04	-83.79	-0.98	0.2536	0.021	-0.4244	
-0.759084	0.02135	0.45323	-1.89	-83.09	-1.68	0.2453	0.0041	-0.4401	
-0.762256	0.030256	0.502762	-5.53	-84.07	-1.82	0.2309	0.0106	-0.4385	
-0.753228	0.047946	0.537654	-7.21	-84.63	-1.19	0.2137	0.0123	-0.4463	
-0.736148	0.061366	0.553514	-4.2	-85.47	-1.89	0.2067	0.0063	-0.4479	
-0.728828	0.06405	0.607438	-5.18	-84.56	-2.8	0.2038	0.0063	-0.4525	
-0.68564	0.042456	0.6222	-14.49	-86.73	-2.94	0.1879	0.0202	-0.4725	
-0.653066	0.028182	0.634156	-0.98	-82.67	-3.15	0.1779	0.0189	-0.4664	
-0.617686	0.046482	0.688446	-4.9	-80.22	-2.87	0.1551	0.0147	-0.4743	
-0.597678	0.034282	0.704184	-7.21	-77.14	-3.22	0.1408	0.0148	-0.4882	
-0.584624	0.02623	0.747006	-5.88	-76.58	-3.92	0.128	0.0151	-0.4867	
-0.576084	0.010858	0.780312	-4.41	-72.94	-3.99	0.1138	0.0137	-0.4914	
-0.568642	0.004026	0.768722	-1.96	-69.86	-3.99	0.1022	0.0231	-0.4991	
-0.55022	-0.003172	0.814594	-1.12	-70.63	-4.27	0.0966	0.0156	-0.4914	
-0.53619	-0.004026	0.858026	0	-67.48	-4.13	0.0824	0.0142	-0.5054	
-0.5063	-0.01891	0.845338	-10.36	-67.48	-4.62	0.0694	0.0221	-0.4992	
-0.497394	-0.008174	0.909998	-11.76	-67.9	-4.97	0.0637	0.0191	-0.5054	
-0.492636	0.005246	0.903654	3.57	-54.25	-3.99	0.0567	0.0178	-0.4946	
-0.456768	-0.02379	0.912194	-2.31	-55.65	-4.83	0.0509	0.0226	-0.4853	
-0.45384	-0.026596	0.97905	0.49	-49.98	-4.9	0.0366	0.0196	-0.5071	
-0.442372	-0.016226	0.936594	3.36	-44.94	-4.76	0.0266	0.0228	-0.5163	
-0.434198	-0.015982	0.992104	2.24	-44.31	-5.11	0.0181	0.0199	-0.5102	
-0.417484	-0.002928	0.967216	2.59	-38.29	-4.55	0.0153	0.0154	-0.5025	
-0.397476	0.002684	0.978074	3.85	-35.77	-4.13	0.0167	0.0184	-0.5071	
-0.38674	0.007808	0.997106	4.13	-29.75	-3.22	0.0096	0.0155	-0.5025	
-0.36966	0.008174	1.006012	3.36	-25.2	-2.73	-0.0046	0.0157	-0.5103	
-0.363682	-0.002074	1.016016	1.96	-19.88	-2.94	-0.0103	0.0189	-0.5088	
-0.375638	-0.0122	1.016992	1.89	-13.65	-3.08	-0.006	0.0142	-0.5103	
-0.376004	-0.01342	1.021384	1.68	-9.66	-3.08	-0.0089	0.022	-0.5056	
-0.365024	-0.004026	1.016626	3.01	-4.97	-2.94	-0.0132	0.0205	-0.5041	
-0.362584	0.006344	1.023214	2.45	-0.49	-3.01	-0.0102	0.0143	-0.5088	
-0.372222	0.012322	1.01016	1.05	3.99	-2.38	-0.0133	0.025	-0.5149	
-0.37088	0.007808	1.020896	0.77	7.56	-1.33	-0.0061	0.025	-0.5025	
-0.368318	0.020252	1.0248	1.19	12.81	-0.77	-0.0131	0.0158	-0.5134	
-0.378932	0.02196	1.022238	0.84	17.5	-0.07	-0.0104	0.022	-0.5056	
-0.388814	0.010614	1.020164	0.7	23.03	0.21	0.0025	0.0109	-0.5165	
-0.393572	-0.002074	1.011502	0.84	29.26	0.7	-0.0019	0.028	-0.5086	
-0.401502	-0.003538	1.001498	1.54	34.79	1.33	0.0067	0.0154	-0.518	
-0.415288	0.00549	0.987224	2.66	39.97	1.4	0.0068	0.014	-0.5057	
-0.42151	0.016226	0.979782	2.66	44.66	1.33	0.0211	0.0138	-0.5056	
-0.422974	0.002928	0.955992	3.71	49.56	1.47	0.0254	0.0106	-0.5041	
-0.433588	0.01586	0.933788	3.92	56.56	1.47	0.0312	0.0044	-0.4995	
-0.450912	0.025498	0.910608	3.43	59.22	1.19	0.0469	0.0056	-0.5041	
-0.476898	0.026108	0.882914	1.54	64.33	0.98	0.0537	0.0209	-0.4977	
-0.506544	0.010858	0.84546	-0.98	69.58	0.42	0.0652	0.016	-0.507	
-0.539484	0.005368	0.8357	-1.05	73.92	-0.07	0.0782	0.009699999	-0.5024	
-0.55632	0.003416	0.813862	1.05	75.6	-0.42	0.0823	0.0157	-0.5023	
-0.568886	0.008174	0.786656	0.91	77	-1.05	0.0951	0.0202	-0.4945	
-0.596214	0.013542	0.754692	-1.26	81.13	-1.68	0.111	0.0107	-0.493	
-0.619516	0.01586	0.726266	-0.84	85.4	-1.82	0.1407	0.0257	-0.4773	
-0.640012	0.010492	0.705526	1.96	87.43	-1.68	0.1536	0.0224	-0.4695	
-0.66307	0.008417999	0.68137	3.15	89.18	-1.12	0.1607	0.0238	-0.4757	
-0.685152	0.008174	0.648064	2.45	91.56	-1.12	0.1766	0.0128	-0.4665	
-0.720776	0.02196	0.606584	1.61	92.26	-1.4	0.1936	0.0172	-0.4633	
-0.728706	0.035258	0.565714	-0.98	93.24	-1.4	0.198	0.0126	-0.454	
-0.73688	0.028426	0.521062	-0.49	92.68	-0.84	0.2107	0.0216	-0.4446	
-0.76982	0.006344	0.494954	0.21	92.68	0.42	0.2281	0.0076	-0.4324	
-0.787388	-0.003538	0.460672	-1.96	93.17	1.47	0.2422	0.0212	-0.4245	
-0.80093	0.009272	0.434564	0.56	94.22	1.61	0.2522	0.0211	-0.4167	
-0.80642	0.02684	0.409676	0.91	93.03	1.12	0.2593	0.0195	-0.409	
-0.82472	0.02745	0.370758	-1.75	93.1	0.42	0.2708	0.0178	-0.4105	
-0.848754	0.00671	0.334402	-6.09	90.86	0.63	0.2849	0.0268	-0.3995	
-0.88206	0.001342	0.295728	-1.82	92.26	1.4	0.2893	0.0237	-0.3949	
-0.889868	0.00732	0.256078	-0.7	91.14	1.96	0.3036	0.0221	-0.3779	
-0.901336	0.013054	0.238632	0.49	90.93	1.82	0.3179	0.0173	-0.3732	
-0.893894	-0.01281	0.18788	2.59	90.02	2.24	0.3308	0.0187	-0.3608	
-0.923418	-0.009516	0.130906	2.66	92.96	2.52	0.335	0.0233	-0.3453	
-0.986858	0.039772	0.09455	6.23	90.23	3.15	0.3465	0.0216	-0.3437	
-1.025288	0.05307	0.08235	1.61	81.83	3.15	0.3579	0.0262	-0.3251	
-1.03273	0.082594	0.047214	7.07	76.44	3.92	0.3564	0.0278	-0.3158	
-0.981124	0.06832	-0.005978	12.11	72.1	3.92	0.3723	0.0185	-0.302	
-0.938058	0.04819	-0.017934	15.4	70.28	2.24	0.3896	0.0089	-0.3004	
-0.937692	0.045018	-0.035624	10.85	73.36	1.33	0.3868	0.0061	-0.2835	
-1.002596	0.035868	-0.07442	4.06	74.69	1.61	0.3997	0.0075	-0.2742	
-1.006622	0.027328	-0.10004	2.52	68.32	1.82	0.4011	0.009	-0.271	
-0.991494	0.030378	-0.09211	2.38	61.39	2.1	0.3941	0.0016	-0.2541	
-0.960384	0.047458	-0.10309	6.86	55.93	2.87	0.404	0.009099999	-0.2509	
-0.95892	0.07124799	-0.13908	7.77	52.71	3.15	0.4071	-0.0014	-0.2278	
-0.983442	0.062342	-0.151158	-1.4	50.33	3.57	0.4142	0.0001	-0.217	
-0.99552	0.05673	-0.138836	-0.84	47.95	3.92	0.4169	0.0108	-0.2153	
-1.008086	0.073688	-0.161162	-8.05	43.61	1.54	0.4242	0.0015	-0.2108	
-0.968558	0.088816	-0.188856	-7.98	36.75	0.56	0.4169	0.0124	-0.2076	
-1.002718	0.044164	-0.208864	-5.04	38.57	1.19	0.4357	0.0014	-0.1953	
-1.038586	0.010858	-0.240096	3.29	42.63	0.63	0.4255	0.0139	-0.1906	
-1.023702	-0.006344	-0.232776	2.87	37.24	-0.84	0.4242	0.0063	-0.1829	
-1.02419	0.036112	-0.234362	4.27	36.19	-1.68	0.4344	-0.0045	-0.1799	
-1.031754	0.120048	-0.302438	3.22	28.56	-0.84	0.4256	0.011	-0.1674	
-0.99735	0.089182	-0.229238	3.08	14.49	0.49	0.4357	0.0062	-0.1736	
-1.042734	0.063074	-0.275598	0.7	38.22	0.49	0.4313	0.0078	-0.1736	
-1.059448	0.047458	-0.323788	-1.33	27.09	-0.63	0.4286	0.0017	-0.1752	
-1.083116	0.071858	-0.307074	-5.46	26.81	-0.63	0.4343	0.0017	-0.1597	
-1.063352	0.083692	-0.321592	-6.09	19.11	0.63	0.4442	0.0108	-0.1534	
-1.034072	0.092964	-0.325374	1.4	14.7	2.1	0.4443	0.0016	-0.1566	
-1.01748	0.02989	-0.32513	0.77	22.75	2.17	0.4486	0.0015	-0.155	
-1.024068	0.030378	-0.343064	0.42	24.99	1.05	0.4371	0.0063	-0.1597	
-1.014918	0.0366	-0.330986	0.21	17.08	0	0.4444	0.0017	-0.1489	
-1.01016	0.044164	-0.32147	-0.49	14.07	-0.49	0.4416	-0.0058	-0.1459	
-0.988566	0.063928	-0.341478	7	10.29	0.49	0.4514	0.0077	-0.1503	
-0.976976	0.070516	-0.333426	11.06	9.24	0.7	0.4487	-0.0014	-0.152	
-0.999546	0.041114	-0.34038	5.11	13.16	0.49	0.4444	0.0001	-0.1489	
-1.02541	0.031598	-0.377346	-0.7	8.89	-0.49	0.4586	0.0045	-0.1426	
-1.020408	0.062342	-0.359534	3.85	8.47	-0.91	0.4385	0.0126	-0.1364	
-1.009062	0.091744	-0.382836	3.43	4.06	-0.84	0.4416	-0.0026	-0.1273	
-0.994666	0.08418	-0.372954	1.68	4.13	-0.42	0.45	0.0047	-0.1365	
-1.001986	0.03477	-0.35136	0.7	5.95	0.49	0.45	0.0094	-0.1349	
-1.018212	0.01342	-0.377956	-0.49	2.38	0.56	0.4416	0.0004	-0.1288	
-0.985028	0.035136	-0.370514	1.4	-4.62	-0.42	0.4459	-0.0011	-0.1226	
-0.96807	0.056974	-0.32696	2.38	-4.41	-0.14	0.4444	0.0034	-0.1272	
-0.989298	0.078446	-0.335866	2.38	-1.05	0.56	0.4502	-0.0028	-0.1288	
-1.014308	0.066002	-0.35441	1.33	-2.94	0.56	0.4544	-0.0014	-0.1365	
-1.018578	0.049776	-0.355996	1.4	-6.09	0.28	0.4487	0.0033	-0.1319	
-1.016626	0.054656	-0.355996	1.33	-6.93	-0.28	0.4473	-0.0043	-0.1397	
-1.026996	0.056364	-0.337818	1.47	-6.02	-0.63	0.4458	0.0064	-0.1334	
-1.038342	0.037332	-0.349408	-1.89	-9.31	-0.42	0.4474	-0.0074	-0.1366	
-1.03883	0.036478	-0.359534	-0.7	-15.12	-0.28	0.4474	-0.009	-0.1412	
-1.02785	0.045506	-0.363438	0.56	-18.41	-0.28	0.4473	0.0001	-0.1412	
-0.994544	0.07991	-0.31293	5.18	-19.81	0.7	0.4415	0.0049	-0.1396	
-1.01443	0.077104	-0.325618	-1.19	-23.59	1.61	0.4371	0.0064	-0.152	
-1.00772	0.056852	-0.33428	-5.95	-27.93	1.12	0.4515	0.0015	-0.1519	
-1.001742	0.052948	-0.304512	-1.54	-25.27	0.91	0.4472	0	-0.1597	
-1.028338	0.051728	-0.305122	-2.66	-24.71	0.49	0.4471	0.0077	-0.1565	
-1.036878	0.03904	-0.317322	-5.95	-28.14	-0.21	0.4271	0.0049	-0.1659	
-1.02846	0.028792	-0.283284	-3.36	-33.04	-1.05	0.4372	-0.0029	-0.1737	
-1.018822	0.046726	-0.265838	0.84	-27.65	-1.12	0.4429	-0.0001	-0.186	
-1.023336	0.062464	-0.251198	2.38	-30.1	-0.14	0.4357	0	-0.1829	
-1.030412	0.06222	-0.245464	-2.94	-32.34	1.54	0.4286	-0.0015	-0.1984	
-1.04554	0.04148	-0.229238	-10.36	-41.79	2.66	0.4356	0.0076	-0.1859	
-1.042856	0.048068	-0.20313	-8.4	-44.38	3.01	0.4385	-0.0001	-0.1999	
-1.046638	0.035014	-0.155794	-2.31	-44.03	2.73	0.4299	0.0045	-0.1984	
-1.02968	0.032574	-0.160186	7.91	-39.2	2.8	0.4328	-0.0032	-0.2154	
-1.031144	0.059536	-0.189222	3.36	-42.63	3.43	0.4227	0.006	-0.2185	
-1.040782	0.06344	-0.156526	0.63	-48.3	4.2	0.4285	-0.0001	-0.2169	
-1.031022	0.072956	-0.152988	0.28	-48.93	4.34	0.4184	0.0029	-0.2309	
-1.015284	0.06161	-0.149694	-5.74	-51.17	4.48	0.4198	0.0043	-0.2417	
-1.006744	0.055998	-0.150792	-7.28	-52.85	3.36	0.4014	-0.0046	-0.2619	
-0.986858	0.04209	-0.097356	-4.97	-62.09	1.54	0.3943	-0.006	-0.2588	
-0.989908	0.054046	-0.051484	6.37	-47.53	1.33	0.3955	0.0077	-0.2572	
-0.970266	0.071004	-0.08295999	8.75	-42.35	1.75	0.387	-0.0045	-0.2759	
-0.952576	0.075396	-0.045262	10.57	-42.98	2.94	0.387	-0.0045	-0.2805	
-0.94001	0.068564	-0.016592	6.51	-43.12	3.85	0.3884	-0.0031	-0.2913	
-0.952576	0.054656	-0.022082	-0.07	-48.09	3.64	0.3812	-0.0015	-0.2944	
-0.964654	0.054412	0.009881999	0	-55.02	3.36	0.377	-0.0045	-0.2975	
-0.984784	0.050752	0.058926	-0.91	-58.24	2.87	0.3741	-0.0046	-0.3083	
-0.994056	0.063196	0.08662	-2.17	-61.95	1.61	0.3671	-0.0136	-0.3085	
-0.984174	0.097966	0.122488	-2.38	-65.38	0.98	0.3612	0.0017	-0.313	
-0.97783	0.110898	0.157624	-5.18	-68.74	0.49	0.3599	-0.009099999	-0.3285	
-0.973438	0.100528	0.182268	-5.53	-69.02	1.05	0.3568	0.0031	-0.3331	
-0.949648	0.07137	0.183732	-3.92	-69.02	1.47	0.3411	0.0018	-0.3393	
-0.920734	0.060146	0.20984	-1.82	-70.84	0.56	0.3454	-0.0014	-0.3532	
-0.917196	0.063318	0.22326	-2.8	-71.12	-0.14	0.3283	-0.0012	-0.3656	
-0.922686	0.06893	0.25437	-3.85	-74.41	-0.42	0.3268	0.0002	-0.3749	
-0.90463	0.055022	0.274622	-4.76	-77.98	-0.63	0.314	-0.0009999999	-0.3781	
-0.904996	0.085522	0.28731	-0.56	-81.76	-0.77	0.3054	-0.0025	-0.3889	
-0.866688	0.070272	0.324276	-4.69	-82.81	-0.77	0.2869	-0.0085	-0.4107	
-0.832284	0.06649	0.36234	-4.69	-87.29	0.56	0.2753	0.0054	-0.4075	
-0.818132	0.062586	0.399428	-8.05	-90.86	2.17	0.2625	0.0025	-0.4199	
-0.826916	0.041846	0.450912	-15.82	-91	2.03	0.2468	0.0012	-0.4231	
-0.817034	0.026718	0.44835	-12.67	-91.28	0.14	0.2439	-0.0004	-0.4432	
-0.781532	0.038308	0.502396	-2.87	-87.22	-0.35	0.2323	0.0089	-0.4524	
-0.755302	0.057828	0.538386	2.03	-85.12	-0.14	0.211	0	-0.4603	
-0.758108	0.05002	0.545828	-4.97	-83.02	0.56	0.2123	0.0107	-0.4571	
-0.72712	0.040504	0.575474	-11.83	-88.06	0.42	0.1923	0.0126	-0.4649	
-0.693936	0.024034	0.649894	-12.11	-87.85	0.49	0.1794	0.0174	-0.4695	
-0.665266	0.044164	0.678808	2.94	-80.01	0.91	0.1625	0.0038	-0.4774	
-0.633546	0.060512	0.686372	-2.87	-80.43	-0.07	0.161	0.0085	-0.4712	
-0.599142	0.065026	0.734318	-4.27	-77.7	-0.84	0.1395	0.0087	-0.4852	
-0.588894	0.038186	0.74054	-0.91	-71.96	-0.49	0.1424	0.0087	-0.4867	
-0.580354	0.040504	0.757986	-0.91	-69.93	-0.21	0.1281	0.0089	-0.4852	
-0.55937	0.043554	0.821182	1.33	-70.28	-0.42	0.1079	0.0214	-0.5006	
-0.530822	0.026596	0.742248	-9.8	-68.04	-2.1	0.1095	0.0154	-0.4868	
-0.493856	0.003782	0.875716	-14.7	-73.01	-4.34	0.0966	0.0171	-0.4914	
-0.502884	0.028304	0.8723	-0.49	-56.28	-3.22	0.0695	0.0145	-0.5008	
-0.487024	0.025864	0.873032	-1.26	-53.9	-2.66	0.0696	0.0098	-0.5086	
-0.473116	0.0183	0.9394	-6.09	-57.54	-3.29	0.0609	0.0176	-0.5116	
-0.464454	0.015006	0.96685	-5.04	-52.29	-4.13	0.0423	0.0211	-0.5008	
-0.460184	0.009881999	0.982466	-3.57	-46.2	-4.41	0.0439	0.0134	-0.504	
-0.437736	0.01159	0.992714	-2.03	-42.14	-3.29	0.0282	0.0152	-0.5056	
-0.423218	0.007686	1.023824	-1.82	-36.61	-2.8	0.0254	0.009099999	-0.5056	
-0.40992	0.00122	1.031144	-1.19	-30.03	-2.38	0.0224	0.0168	-0.5009	
-0.405772	-0.006466	1.03578	-1.47	-23.87	-2.17	0.0153	0.02	-0.5025	
-0.391132	-0.007442	1.01382	-0.35	-17.29	-2.1	0.0124	0.0185	-0.5118	
-0.378688	0.003416	1.003206	1.33	-10.99	-2.45	0.0082	0.0124	-0.5088	
-0.378932	-0.012444	0.99735	2.1	-4.69	-2.31	0.0095	0.0216	-0.5118	
-0.378444	-0.012566	1.004792	3.36	0.77	-1.68	0.0024	0.0218	-0.5071	
-0.383446	0.001098	0.996252	2.87	5.95	-1.54	0.0011	0.011	-0.5072	
-0.394548	0.010858	1.000644	2.45	10.78	-1.89	0.015	0.0307	-0.5117	
-0.407114	0.003416	1.000644	1.61	15.54	-1.54	0.0194	0.026	-0.5117	
-0.41846	0	0.996374	1.89	21	-0.98	0.0139	0.0154	-0.5072	
-0.433466	0.017934	1.004426	2.45	28	-0.63	0.0367	0.0197	-0.4931	
-0.454816	0.007808	0.989664	1.96	34.58	-0.28	0.0308	0.0259	-0.5008	
-0.465674	0.006588	0.967216	1.89	38.92	0.14	0.0339	0.0136	-0.5009	
-0.471652	0.013786	0.95648	2.52	44.87	0.98	0.0394	0.0227	-0.5039	
-0.471164	0.014762	0.932568	2.45	49.28	1.61	0.048	0.021	-0.4993	
-0.478484	0.013786	0.905972	2.8	54.18	1.68	0.0552	0.0179	-0.4931	
-0.496174	0.013054	0.887794	2.59	58.24	1.47	0.0667	0.0129	-0.5039	
-0.517524	0.019398	0.860222	1.82	63.42	1.19	0.0724	0.0144	-0.5008	
-0.537532	0.02135	0.849242	2.1	65.94	0.91	0.0853	0.0112	-0.4915	
-0.549854	0.018422	0.82838	0.7	70	0.7	0.0967	0.0125	-0.4976	
-0.567544	0.012078	0.814228	1.82	72.17	0	0.108	0.0154	-0.4899	
-0.59353	0.009516	0.772138	1.19	74.13	-0.28	0.1137	0.0184	-0.4852	
-0.611586	0.008662	0.755424	2.66	76.72	-0.35	0.1251	0.0212	-0.4897	
-0.618052	0.010248	0.724802	3.85	80.01	-0.42	0.1437	0.0179	-0.4804	
-0.616344	0.014762	0.72041	6.16	80.64	-1.12	0.1494	0.0148	-0.4743	
-0.653554	0.025498	0.676978	3.64	82.25	-1.33	0.1694	0.0175	-0.468	
-0.68015	0.024278	0.645258	3.71	84.56	-1.33	0.1837	0.0112	-0.4665	
-0.709064	0.024766	0.609146	3.15	87.57	-0.98	0.1965	0.0188	-0.4494	
-0.73627	0.015616	0.554246	3.22	88.9	-1.05	0.208	0.0139	-0.4509	
-0.75518	0.02379	0.513132	2.66	89.67	-1.61	0.2122	0.0153	-0.4555	
-0.76189	0.047336	0.49471	2.59	88.9	-2.31	0.231	0.0075	-0.4354	
-0.776652	0.056974	0.455914	-0.63	89.39	-2.31	0.2538	0.0103	-0.423	
-0.782386	0.059048	0.409554	-0.7	91.21	-2.66	0.2596	0.0041	-0.4215	
-0.794586	0.044286	0.372466	-2.31	90.86	-2.24	0.2694	0.0116	-0.4152	
-0.83692	0.02501	0.35502	-4.2	92.05	-1.89	0.2851	0.0129	-0.4058	
-0.867542	0.02013	0.32696	-4.83	90.65	-1.05	0.2994	0.0174	-0.3888	
-0.874008	0.01464	0.300852	-2.66	88.9	-0.98	0.3022	0.0159	-0.3872	
-0.872178	0.018422	0.254126	-1.82	88.69	-0.63	0.3079	0.019	-0.3717	
-0.879986	0.022814	0.209352	0.49	91.07	-0.07	0.3167	0.0081	-0.3671	
-0.90097	0.030378	0.14335	-0.84	90.44	-0.07	0.3367	0.0095	-0.3485	
-0.961482	0.041602	0.125538	2.31	89.81	-0.56	0.3467	0.0077	-0.3485	
-1.014674	0.061	0.11529	3.92	84.7	0.35	0.3566	0.0169	-0.3345	
-1.00833	0.065514	0.093086	7.28	77.98	1.4	0.355	0.0262	-0.3313	
-0.960018	0.093208	0.040748	16.87	77.84	2.38	0.3667	0.0123	-0.3144	
-0.938546	0.07869	-0.027694	14.84	80.43	2.1	0.3738	0.0122	-0.3066	
-0.997716	0.060634	-0.049166	13.16	82.53	1.4	0.3839	0.0138	-0.285	
-0.995154	0.045506	-0.084546	9.31	73.85	1.05	0.3925	0.0122	-0.2788	
-0.95099	0.050752	-0.082716	13.72	68.39	1.82	0.3953	0.0137	-0.271	
-0.954406	0.031232	-0.106994	11.83	66.92	2.17	0.3984	0.0046	-0.2587	
-0.975024	0.02379	-0.150304	6.93	65.73	2.94	0.4041	0.0014	-0.2603	
-0.981978	0.009881999	-0.156648	-1.89	53.76	3.29	0.4097	0.0106	-0.2478	
-0.981124	0.040626	-0.140422	-2.8	51.17	1.96	0.4056	0.0016	-0.234	
-0.987956	0.101016	-0.147986	-3.15	49.77	1.4	0.4156	0.0014	-0.2293	
-1.003206	0.100162	-0.187514	-6.65	47.67	1.54	0.4128	-0.0015	-0.2294	
-1.016748	0.078568	-0.237534	-3.29	44.87	1.05	0.427	0.003	-0.2092	
-1.01016	0.0427	-0.257542	-0.84	45.64	0	0.4356	0.006	-0.1937	
-0.998448	0.02196	-0.231678	0.42	45.29	-1.68	0.4344	-0.0046	-0.1922	
-1.022848	0.01769	-0.236436	-2.45	45.29	-3.22	0.4385	0.0014	-0.186	
-1.0431	0.01952	-0.282308	-14.91	38.71	-4.06	0.4272	0.0001	-0.1845	
-1.059448	0.06405	-0.270962	8.12	37.59	-3.92	0.4357	0.003	-0.1829	
-1.055178	0.057584	-0.310734	0.21	30.17	-2.73	0.4399	0.0062	-0.1674	
-1.034804	0.060024	-0.274622	14.77	30.45	-1.12	0.4457	0.0045	-0.1705	
-1.081408	0.03294	-0.342088	-11.27	30.66	-1.47	0.4443	0.003	-0.1674	
-1.085556	0.047702	-0.293898	4.76	23.45	-1.61	0.4457	0.0015	-0.1643	
-1.076162	0.068686	-0.320982	8.82	24.78	-1.82	0.4472	-0.0014	-0.1582	
-1.031022	0.065758	-0.36722	7.07	16.31	-0.35	0.4429	0.0017	-0.1504	
-0.989298	0.063196	-0.308416	11.97	18.06	1.96	0.4401	0.0002	-0.1489	
-0.964288	0.03172	-0.294508	8.4	14.42	2.17	0.4572	0.0045	-0.1457	
-0.985272	0.037088	-0.34099	4.41	16.24	1.26	0.4515	0	-0.1504	
-0.980148	0.041846	-0.358192	4.13	15.82	1.05	0.4501	0.0016	-0.1427	
-0.94855	0.05612	-0.318054	-0.14	8.68	1.05	0.4445	-0.0059	-0.1428	
-0.966484	0.043676	-0.283772	4.69	19.18	1.54	0.4473	-0.0028	-0.1381	
-1.009428	0.027572	-0.354044	6.16	21.49	1.12	0.4358	0.0019	-0.1365	
-1.017724	0.037088	-0.404552	2.1	11.27	0.21	0.4373	-0.0009999999	-0.1335	
-1.015284	0.059536	-0.382226	1.82	10.5	-0.28	0.4474	-0.0058	-0.1304	
-1.016016	0.059414	-0.37759	-0.49	9.17	-0.21	0.4458	0.0018	-0.1288	
-1.014674	0.046482	-0.377224	-1.05	7.35	0.14	0.4489	-0.0088	-0.1258	
-1.021384	0.04758	-0.38857	-1.54	4.13	0.14	0.4444	0.0018	-0.1319	
-1.02968	0.049288	-0.401014	-0.35	0.07	-0.49	0.4459	-0.0043	-0.135	
-1.00284	0.05002	-0.39345	2.17	-2.52	-0.7	0.4487	0.0033	-0.1319	
-0.978684	0.034282	-0.366854	1.47	-3.64	-0.14	0.4487	-0.0012	-0.1319	
-0.97722	0.028548	-0.366	0.91	-3.22	0.77	0.4487	0.0033	-0.1334	
-0.997228	0.039772	-0.371246	1.75	-2.45	1.26	0.4587	0.0001	-0.1272	
-1.005646	0.05246	-0.370148	0.63	-7.56	0.77	0.45	0.0094	-0.1287	
-1.009306	0.057706	-0.366976	2.1	-7.21	0.7	0.4502	-0.0012	-0.1303	
-1.022604	0.032208	-0.36539	2.24	-6.37	0.56	0.4401	0.0065	-0.1288	
-1.031998	0.039406	-0.374174	2.59	-8.61	0.77	0.4487	-0.0013	-0.1412	
-1.032974	0.058926	-0.381372	1.61	-13.58	0.98	0.4474	-0.0059	-0.1381	
-1.025166	0.061122	-0.3721	-0.35	-15.89	0.91	0.4373	0.0004	-0.1366	
-1.00711	0.051972	-0.338916	-0.7	-19.32	0.77	0.4488	-0.0028	-0.135	
-1.004304	0.041724	-0.320006	-1.96	-23.52	1.05	0.443	-0.0012	-0.1396	
-0.988322	0.045628	-0.317566	-1.75	-28.28	0.98	0.4458	0.0016	-0.1489	
-0.99003	0.054656	-0.33001	-3.85	-28.98	0.91	0.4374	-0.0089	-0.1521	
-0.993324	0.048434	-0.306586	-7.63	-29.89	0.28	0.4387	-0.0028	-0.1505	
-0.99857	0.035502	-0.286212	-6.44	-27.72	-0.35	0.4373	-0.0075	-0.1737	
-0.996008	0.03355	-0.273158	-7.84	-29.19	-1.12	0.4373	-0.0028	-0.1613	
-0.999912	0.02196	-0.273646	-4.55	-27.02	-0.98	0.4417	-0.0105	-0.1536	
-1.02114	0.033794	-0.263764	-1.12	-23.73	-0.42	0.4413	0.0108	-0.1674	
-1.030046	0.032574	-0.26291	-9.1	-30.1	0.07	0.4385	0.0062	-0.172	
-1.042368	0.029402	-0.240706	1.05	-30.94	0.35	0.4428	0.0014	-0.1844	
-1.048834	0.015616	-0.235826	4.41	-31.36	0.42	0.4427	0.009	-0.1859	
-1.023092	0.032818	-0.243512	2.52	-39.13	0.14	0.4343	-0.0047	-0.2	
-1.075308	0.041236	-0.190198	-0.98	-37.87	0.49	0.4343	-0.0017	-0.2092	
-1.075186	0.060878	-0.180194	-0.63	-41.3	0.7	0.4185	0.0015	-0.2139	
-1.04798	0.045994	-0.158112	11.13	-40.11	0.42	0.4199	0.0031	-0.2092	
-1.032852	0.059414	-0.178608	10.57	-39.06	0.77	0.4285	-0.0017	-0.2231	
-1.030778	0.063074	-0.18849	10.36	-43.47	1.75	0.4127	0.0046	-0.2247	
-1.006866	0.049776	-0.150426	6.72	-45.71	2.1	0.417	0.0029	-0.2324	
-0.991006	0.069418	-0.104432	2.8	-42.84	2.03	0.4028	0.0016	-0.234	
-0.973682	0.064904	-0.097844	1.19	-44.24	1.68	0.4085	0	-0.2433	
-0.963068	0.069174	-0.08967	1.75	-41.23	1.33	0.4069	0.0076	-0.2417	
-0.950624	0.081984	-0.092842	2.94	-41.44	2.03	0.4041	0.0061	-0.2463	
-0.959652	0.043188	-0.048312	-10.22	-44.52	2.38	0.4098	0.0012	-0.268	
-0.939156	0.022814	-0.010126	0.14	-38.71	2.94	0.3998	-0.0002	-0.2789	
-0.936228	0.041602	-0.002806	9.17	-31.01	3.64	0.3971	-0.0062	-0.2712	
-0.936106	0.064782	0.015372	7.14	-30.8	3.92	0.3985	-0.0047	-0.2712	
-0.944524	0.077348	0.049776	5.04	-30.87	4.41	0.397	-0.0047	-0.2805	
-0.960628	0.058194	0.084668	2.03	-30.45	4.13	0.3971	-0.0109	-0.2821	
-0.98454	0.041236	0.134444	-0.7	-30.24	3.92	0.3883	0.0014	-0.2882	
-0.99918	0.042334	0.144692	-7.35	-33.32	4.13	0.3855	-0.0032	-0.3021	
-1.00345	0.048434	0.14762	-6.44	-29.89	3.78	0.3799	-0.0092	-0.296	
-0.99064	0.074176	0.170678	-0.7	-29.19	3.22	0.3771	-0.0075	-0.2929	
-0.99857	0.06405	0.189222	-4.2	-25.2	2.38	0.3698	-0.0029	-0.3068	
-0.998814	0.052948	0.19337	-7.21	-22.61	1.4	0.3713	-0.0076	-0.3115	
-0.962946	0.072956	0.196786	1.05	-23.52	1.4	0.367	-0.006	-0.3068	
-0.934398	0.051972	0.219478	2.45	-22.19	0.84	0.3697	0.003	-0.3191	
-0.948306	0.03111	0.245586	3.64	-18.83	-0.63	0.3713	-0.0092	-0.3208	
-0.959408	0.019398	0.23546	-0.84	-21.63	-2.24	0.3599	-0.0059	-0.313	
-0.894504	0.024034	0.246318	5.81	-26.67	-3.15	0.3599	-0.0121	-0.3255	
-0.871812	0.02623	0.27084	9.31	-21.49	-2.38	0.3556	-0.0105	-0.3208	
-0.886574	0.043676	0.260836	4.97	-18.55	-2.45	0.3669	0	-0.3191	
-0.932202	0.047702	0.283894	1.75	-16.59	-2.52	0.3541	-0.0013	-0.3223	
-0.95221	0.02562	0.299144	-1.33	-14.07	-2.31	0.3612	-0.0045	-0.3269	
-0.943182	0.034282	0.293532	4.48	-14.49	-1.19	0.3584	-0.006	-0.3285	
-0.924394	0.045262	0.298046	-0.98	-11.62	1.12	0.3456	-0.0074	-0.3363	
-0.952088	0.055022	0.32025	8.12	-9.17	1.47	0.3498	-0.0059	-0.3316	
-0.952942	0.041358	0.317932	0.21	-8.47	1.54	0.3511	0.0032	-0.3284	
-0.949404	0.040992	0.31293	2.87	-3.15	3.64	0.3468	-0.0014	-0.3501	
-0.945622	0.03599	0.3172	2.94	-3.64	4.69	0.3528	-0.0136	-0.3317	
-0.949038	0.02928	0.304268	-1.61	-0.84	5.74	0.3441	-0.0074	-0.3394	
-0.960018	0.03599	0.299998	-0.84	0.21	7.07	0.3442	-0.0135	-0.3379	
-0.963678	0.023302	0.285358	-2.45	0.77	8.54	0.3485	-0.0121	-0.3456	
-0.964044	0.019032	0.281698	-3.99	-0.07	9.52	0.3512	-0.0092	-0.3548	
-0.94794	0.01647	0.282308	-0.28	0.63	10.78	0.3498	-0.0012	-0.33	
-0.935252	0.028914	0.266814	-2.24	4.13	12.53	0.3414	-0.0135	-0.3394	
-0.950624	0.037576	0.267546	-2.45	7.49	13.93	0.347	-0.0105	-0.3363	
-0.954772	0.029036	0.255956	-7.07	8.4	15.26	0.3371	-0.0117	-0.3286	
-0.96746	0.03355	0.24278	-5.67	8.82	16.66	0.3498	-0.0044	-0.3409	
-0.974292	0.020984	0.25376	-5.18	10.71	19.32	0.3501	-0.0228	-0.3318	
-0.96197	0.020862	0.24217	-5.39	12.6	21.42	0.353	-0.0228	-0.3349	
-0.961238	0.043798	0.237168	-3.22	13.93	23.1	0.3502	-0.0258	-0.3318	
-0.959896	0.066246	0.235216	-0.28	16.66	25.9	0.3571	-0.0168	-0.3379	
-0.964776	0.069662	0.223748	-1.26	20.23	28.56	0.3503	-0.035	-0.3273	
-0.97234	0.074664	0.202398	-3.57	19.67	32.34	0.3531	-0.0274	-0.3287	
-0.976366	0.08662	0.206424	1.19	18.69	35.7	0.3574	-0.032	-0.3226	
-0.973926	0.091744	0.180072	-1.26	18.27	38.85	0.3548	-0.0458	-0.3289	
-0.96929	0.105286	0.17995	2.8	17.22	39.62	0.3665	-0.0597	-0.312	
-0.971242	0.146766	0.181292	6.79	16.52	40.88	0.3748	-0.0446	-0.3226	
-0.969534	0.173972	0.1647	8.68	17.85	42.77	0.3594	-0.0611	-0.312	
-0.96563	0.179584	0.144814	5.04	16.94	43.96	0.3667	-0.0735	-0.3121	
-0.978928	0.200202	0.131516	11.69	16.66	44.59	0.3625	-0.0749	-0.3059	
-0.964654	0.216428	0.120292	13.86	18.9	45.78	0.3684	-0.08419999	-0.3014	
-0.955626	0.238876	0.115168	16.31	19.74	45.85	0.3727	-0.0888	-0.2952	
-0.963678	0.269864	0.10004	16.52	20.86	47.11	0.3599	-0.0917	-0.2953	
-0.939522	0.319762	0.066856	20.86	19.95	47.67	0.3616	-0.107	-0.2908	
-0.960506	0.372588	0.019642	28.63	23.45	48.86	0.3618	-0.1193	-0.2971	
-1.040538	0.399184	0.00061	28.98	30.24	51.1	0.3577	-0.1254	-0.2925	
-0.99735	0.385398	0.001708	15.4	17.43	50.4	0.3747	-0.1226	-0.2878	
-0.963556	0.396988	0.013664	15.12	10.92	50.89	0.3694	-0.1392	-0.2756	
-0.93147	0.39833	0.00671	16.52	14	52.08	0.3693	-0.1346	-0.274	
-0.912072	0.422364	-0.041236	20.79	12.95	52.08	0.3653	-0.153	-0.2819	
-0.911462	0.447862	-0.038308	26.18	12.53	52.15	0.3612	-0.1621	-0.2697	
-0.899506	0.438102	-0.012932	18.76	13.51	52.43	0.3528	-0.1664	-0.2574	
-0.88938	0.473848	-0.010004	13.79	7.42	51.03	0.3475	-0.1925	-0.2685	
-0.8601	0.49837	-0.019398	17.43	3.92	49.56	0.3604	-0.1973	-0.2685	
-0.843508	0.495442	-0.0244	16.1	7.42	49	0.3548	-0.2033	-0.2608	
-0.841556	0.532774	-0.027694	19.74	8.19	47.11	0.3592	-0.2048	-0.2453	
-0.883402	0.588772	-0.024888	24.85	14.07	44.31	0.3537	-0.2201	-0.2486	
-0.88694	0.608536	-0.045018	25.62	8.54	41.51	0.3423	-0.2213	-0.2425	
-0.842654	0.593286	-0.045994	20.58	-1.47	38.71	0.3425	-0.2337	-0.2534	
-0.83997	0.61976	-0.040382	18.06	-1.54	36.4	0.3412	-0.2366	-0.238	
-0.82167	0.631106	-0.040138	18.76	-0.07	34.65	0.3299	-0.2426	-0.2442	
-0.83021	0.61854	-0.038186	19.95	3.78	32.97	0.3398	-0.2396	-0.2334	
-0.810324	0.625006	-0.0366	16.24	1.33	30.31	0.3315	-0.2533	-0.2351	
-0.791902	0.63562	-0.05795	18.41	1.19	28.49	0.3403	-0.2673	-0.2413	
-0.804834	0.632692	-0.06344	17.01	0	26.25	0.3288	-0.2593	-0.2305	
-0.80032	0.663558	-0.060024	15.61	-6.58	22.4	0.3174	-0.2622	-0.2352	
-0.787998	0.67344	-0.041724	13.3	-6.44	19.81	0.3204	-0.2715	-0.2337	
-0.778116	0.68015	-0.04148	11.34	-4.34	17.78	0.3174	-0.2638	-0.2337	
-0.77653	0.686616	-0.065758	11.34	-3.43	15.33	0.3119	-0.2713	-0.2276	
-0.79117	0.703086	-0.068198	7.84	-2.73	11.9	0.3149	-0.2852	-0.2354	
-0.805566	0.69906	-0.049776	6.37	-4.76	8.68	0.3133	-0.2744	-0.2322	
-0.784582	0.681614	-0.041724	0.77	-7.98	3.78	0.3163	-0.2806	-0.2338	
-0.766282	0.68503	-0.059414	-0.77	-7.91	0.7	0.3048	-0.2743	-0.2323	
-0.756766	0.675148	-0.05307	-1.82	-7	-2.31	0.3093	-0.2897	-0.237	
-0.775798	0.688568	-0.0488	1.75	-3.99	-5.32	0.3033	-0.2712	-0.2322	
-0.793976	0.69418	-0.045506	0.7	-3.15	-8.05	0.3146	-0.27	-0.2476	
-0.805322	0.671366	-0.032452	-4.13	-4.13	-11.48	0.3104	-0.2714	-0.2415	
-0.80581	0.670146	-0.025986	-5.6	-4.48	-15.96	0.3162	-0.2792	-0.2431	
-0.791536	0.667462	-0.027694	-3.5	-6.51	-20.09	0.3175	-0.2684	-0.2337	
-0.794342	0.655628	-0.025864	2.31	-4.9	-23.94	0.3245	-0.2608	-0.2274	
-0.812276	0.66185	-0.029768	5.04	-2.38	-27.58	0.3231	-0.2655	-0.246	
-0.827404	0.661728	-0.026718	1.33	-2.17	-31.22	0.3174	-0.2639	-0.2429	
-0.815936	0.661118	-0.012932	2.45	-3.85	-34.86	0.3259	-0.2594	-0.2413	
-0.816302	0.639036	-0.010736	-3.22	-5.46	-39.2	0.3287	-0.258	-0.2475	
-0.801784	0.607072	-0.016226	-7.28	-5.46	-42.84	0.3314	-0.2519	-0.2459	
-0.806054	0.593042	-0.010858	-3.43	-3.71	-45.08	0.3313	-0.2457	-0.2412	
-0.818498	0.57767	-0.014274	-11.13	-2.31	-48.23	0.3325	-0.2272	-0.2379	
-0.834236	0.565348	-0.013786	-10.71	-3.57	-50.54	0.3425	-0.2352	-0.2534	
-0.834114	0.560224	-0.005368	-12.18	-3.64	-53.41	0.3466	-0.2215	-0.2548	
-0.861564	0.530334	-0.005124	-12.53	-2.8	-55.02	0.3535	-0.2109	-0.2501	
-0.873886	0.508008	-0.007198	-14.28	-0.42	-56.21	0.3605	-0.2002	-0.2453	
-0.87535	0.471896	0.004636	-22.4	-3.43	-57.68	0.3591	-0.2032	-0.2422	
-0.891698	0.443836	0.007808	-23.31	-3.78	-59.85	0.3488	-0.1832	-0.256	
-0.900604	0.434442	0.012566	-21.42	-2.03	-61.11	0.3614	-0.1727	-0.2574	
-0.901946	0.410896	0.032574	-25.83	-1.75	-63	0.3683	-0.156	-0.2588	
-0.919758	0.394426	0.024644	-18.97	5.04	-64.26	0.3711	-0.1529	-0.2603	
-0.936106	0.362828	0.007442	-20.58	5.32	-64.96	0.3721	-0.1315	-0.2663	
-0.943304	0.313784	0.02379	-28.7	1.75	-65.45	0.3722	-0.1393	-0.2756	
-0.963922	0.29158	0.025254	-25.27	0.7	-65.87	0.3833	-0.1163	-0.2614	
-0.964288	0.266204	0.037088	-23.03	-2.24	-66.5	0.3774	-0.1024	-0.2582	
-0.983808	0.228506	0.049044	-21.21	-3.01	-66.99	0.3873	-0.101	-0.2582	
-0.970998	0.217038	0.037576	-7.42	0.35	-68.53	0.3814	-0.0871	-0.2596	
-0.936228	0.200934	0.027572	-5.67	0.49	-69.79	0.3912	-0.0828	-0.275	
-0.934154	0.18971	0.027206	-7.98	-0.42	-70.14	0.3767	-0.0656	-0.2625	
-0.969412	0.172874	0.030866	-8.47	3.57	-69.86	0.3964	-0.0491	-0.267	
-0.99613	0.147742	0.044286	-1.26	7.7	-70.14	0.3907	-0.0474	-0.2623	
-0.988566	0.126758	0.040992	2.24	8.12	-71.54	0.3976	-0.0352	-0.256	
-0.971364	0.106628	0.032818	-2.38	5.25	-71.4	0.3931	-0.0245	-0.2683	
-0.96014	0.074786	0.02501	-5.46	4.9	-71.47	0.403	-0.0154	-0.2604	
-0.960628	0.028548	0.02135	-8.33	5.88	-71.05	0.3971	-0.0014	-0.248	
-0.977708	-0.01708	0.022936	-8.12	8.82	-70.63	0.4041	0.0013	-0.2649	
-0.981368	-0.040992	0.012444	-6.86	11.9	-68.53	0.4066	0.0212	-0.2647	
-0.996862	-0.082106	0.003904	-13.65	10.01	-68.74	0.3952	0.0199	-0.271	
-1.000644	-0.10309	-0.005002	-14.28	9.24	-68.53	0.3994	0.0275	-0.2616	
-0.997716	-0.131394	-0.016226	-14	5.95	-68.32	0.4003	0.0551	-0.2644	
-1.011136	-0.177876	-0.007442	-19.46	5.95	-67.62	0.3872	0.0738	-0.2659	
-1.011502	-0.19703	-0.004026	-17.57	5.6	-66.15	0.3956	0.07979999	-0.2658	
-0.99491	-0.208742	-0.010004	-16.1	5.74	-64.75	0.3969	0.08899999	-0.2626	
-0.97478	-0.225334	-0.006344	-18.34	0.98	-64.68	0.3895	0.1059	-0.2686	
-0.939644	-0.231556	-0.027572	-12.88	2.03	-65.24	0.3822	0.1154	-0.2593	
-0.948184	-0.2684	-0.05368	-20.72	3.43	-65.38	0.3809	0.114	-0.2454	
-0.968192	-0.318054	-0.052582	-20.79	6.79	-62.65	0.3847	0.1369	-0.2529	
-0.981734	-0.321714	-0.036844	-13.23	7.98	-60.48	0.3804	0.1416	-0.2421	
-0.970266	-0.311222	-0.021716	-14.21	1.96	-59.29	0.3788	0.1524	-0.2466	
-0.93635	-0.323422	-0.028792	-12.46	-4.2	-58.24	0.3744	0.1586	-0.2481	
-0.92293	-0.380274	-0.057584	-11.34	3.15	-54.67	0.37	0.1649	-0.2403	
-0.934886	-0.42395	-0.063928	-9.8	9.94	-52.57	0.3714	0.1648	-0.2496	
-0.937448	-0.43737	-0.043676	-7.14	10.71	-50.82	0.3682	0.1864	-0.2401	
-0.924028	-0.424926	-0.038552	-5.25	8.33	-50.12	0.3597	0.1834	-0.2495	
-0.91622	-0.432246	-0.032818	-13.23	4.13	-49	0.3613	0.1758	-0.2341	
-0.917806	-0.448106	-0.044164	-12.6	4.62	-47.88	0.3479	0.2051	-0.2478	
-0.915122	-0.466772	-0.051606	-10.29	1.96	-45.57	0.3523	0.2051	-0.2385	
-0.894138	-0.454084	-0.051118	-8.54	-1.4	-42.98	0.3507	0.2143	-0.2415	
-0.866566	-0.451888	-0.046116	-10.5	-2.24	-41.23	0.3464	0.2129	-0.2384	
-0.879376	-0.48312	-0.036722	-12.81	0.14	-40.11	0.3434	0.2206	-0.2384	
-0.88389	-0.509838	-0.044164	-15.96	0.56	-40.88	0.3462	0.2283	-0.2383	
-0.87657	-0.551074	-0.044652	-12.32	-1.12	-40.25	0.3403	0.2377	-0.2259	
-0.899262	-0.568642	-0.06161	-9.38	1.19	-36.54	0.3345	0.2408	-0.2367	
-0.896456	-0.601704	-0.064172	-11.2	-3.01	-32.83	0.3414	0.256	-0.2334	
-0.88511	-0.613782	-0.054534	-3.64	-1.33	-28.14	0.3201	0.2549	-0.235	
-0.860466	-0.60939	-0.057462	-3.78	-3.22	-24.64	0.3199	0.2641	-0.2365	
-0.861808	-0.614148	-0.05795	0.91	-4.76	-20.44	0.3171	0.2626	-0.2334	
-0.867786	-0.626226	-0.06161	2.17	-2.87	-16.31	0.3099	0.2658	-0.2288	
-0.851926	-0.604998	-0.04819	4.97	-5.39	-8.89	0.3212	0.2717	-0.2364	
-0.83997	-0.60634	-0.043676	3.5	-6.79	-5.04	0.3241	0.2686	-0.238	
-0.830698	-0.598166	-0.042578	6.09	-7.07	-2.31	0.3155	0.2717	-0.2473	
-0.837164	-0.597556	-0.037088	3.5	-6.44	0.14	0.3226	0.2685	-0.2473	
-0.838872	-0.58865	-0.015982	5.04	-6.16	2.52	0.3154	0.2733	-0.2411	
-0.82899	-0.584014	-0.008417999	6.93	-5.18	4.97	0.3169	0.2717	-0.2411	
-0.827038	-0.58072	-0.007198	5.18	-2.59	7.21	0.3212	0.2717	-0.2349	
-0.829356	-0.589626	-0.009516	2.52	-1.47	10.22	0.3112	0.2688	-0.2411	
-0.833992	-0.59658	-0.01037	0.56	-1.61	13.16	0.3155	0.2701	-0.2565	
-0.835822	-0.596214	-0.009028	-0.49	-1.89	15.33	0.3156	0.261	-0.2474	
-0.8418	-0.5917	-0.005856	-0.56	-1.96	17.43	0.33	0.2577	-0.2427	
-0.84912	-0.596092	0.003172	-0.14	-0.28	20.79	0.3184	0.2671	-0.2442	
-0.84912	-0.580476	-0.010126	-0.98	-2.66	24.22	0.3242	0.2576	-0.2597	
-0.858514	-0.574376	-0.004514	-2.17	-4.55	27.58	0.3214	0.2578	-0.2458	
-0.862418	-0.570472	-0.008052	-1.82	-4.55	31.43	0.3314	0.253	-0.2505	
-0.877546	-0.560956	-0.007198	-0.56	-5.95	35.91	0.3316	0.2469	-0.2397	
-0.895846	-0.55693	-0.000976	0.07	-5.25	41.58	0.3386	0.2545	-0.2396	
-0.904874	-0.553026	-0.005978	1.4	-5.32	47.39	0.3361	0.2346	-0.2398	
-0.894382	-0.520086	-0.00732	3.57	-8.26	54.32	0.3392	0.2175	-0.2539	
-0.89426	-0.497394	-0.014396	1.12	-9.24	58.87	0.3393	0.2129	-0.2508	
-0.888404	-0.466406	-0.018788	2.24	-8.82	63.21	0.3393	0.2083	-0.2539	
-0.890112	-0.432246	-0.013298	1.68	-7.14	66.85	0.3508	0.2004	-0.2586	
-0.909876	-0.416264	0.001342	0.84	-6.51	70.28	0.3566	0.1957	-0.254	
-0.925736	-0.410286	-0.00122	0.7	-4.62	73.29	0.3653	0.1847	-0.2649	
-0.925004	-0.388082	-0.002806	1.4	-5.46	75.81	0.3669	0.1801	-0.2618	
-0.930738	-0.33367	-0.012078	0.56	-7.42	77.63	0.37	0.1647	-0.2573	
-0.930982	-0.299266	-0.012932	0.07	-9.66	79.87	0.3731	0.1462	-0.2575	
-0.926346	-0.280722	-0.02135	-2.1	-8.12	82.11	0.3732	0.1432	-0.2591	
-0.922808	-0.29524	-0.014884	-3.92	-4.83	82.81	0.3746	0.1447	-0.2591	
-0.978196	-0.268522	0.003172	4.83	0.63	84.14	0.3764	0.1201	-0.2562	
-1.002718	-0.238754	-0.006954	4.27	-1.89	83.65	0.3821	0.1199	-0.2701	
-0.994056	-0.20923	-0.013664	4.2	-8.12	83.93	0.3769	0.0923	-0.2704	
-0.974048	-0.139812	-0.016348	4.83	-10.57	85.12	0.3984	0.0859	-0.2626	
-0.970022	-0.076372	-0.012688	3.57	-11.97	86.73	0.3943	0.0736	-0.2736	
-0.98149	-0.066124	0.012932	4.2	-7.63	87.78	0.3858	0.0692	-0.2597	
-1.01748	-0.03355	0.011834	7.7	-4.27	88.76	0.3903	0.0553	-0.266	
-1.0004	-0.093452	0.027572	14.7	-13.23	92.05	0.3937	0.0246	-0.257	
-0.97173	0.140788	-0.035258	28.7	-9.94	89.95	0.3971	-0.0046	-0.2681	
-0.918904	0.066246	0.002562	0.49	-16.45	92.68	0.3929	-0.0123	-0.2728	
-0.926956	0.124318	0.00488	13.23	-23.52	92.19	0.4016	-0.0216	-0.2744	
-0.986736	0.199714	0.042334	28.49	1.4	88.55	0.396	-0.0277	-0.2791	
-1.014186	0.273158	-0.005734	36.05	11.9	84.56	0.3978	-0.0492	-0.2793	
-0.942694	0.270108	-0.00671	25.55	-0.7	82.95	0.3879	-0.0583	-0.281	
-0.878766	0.260592	0.008417999	26.39	1.54	82.32	0.3856	-0.0873	-0.272	
-0.882914	0.289262	0.011102	35.35	11.48	81.55	0.3926	-0.0766	-0.2657	
-0.939888	0.388204	0.016714	48.3	14.63	78.12	0.3772	-0.0963	-0.2659	
-0.963312	0.468236	-0.019276	43.68	16.8	73.36	0.3846	-0.1102	-0.2552	
-0.95404	0.442982	-0.022936	14.91	7.7	68.46	0.3836	-0.1332	-0.2631	
-0.924272	0.415654	-0.020862	15.19	-0.21	64.89	0.3751	-0.1407	-0.2586	
-0.900726	0.424682	-0.024888	19.74	0.77	63	0.3838	-0.1439	-0.2555	
-0.905118	0.497394	-0.037576	49.14	13.65	62.23	0.3739	-0.153	-0.2556	
-0.886574	0.53192	0.00854	44.03	16.24	60.06	0.3744	-0.1774	-0.2389	
-0.883646	0.530334	-0.03172	24.36	5.25	58.1	0.3659	-0.1787	-0.2312	
-0.878522	0.531188	-0.045018	16.38	-3.78	56.28	0.3719	-0.1972	-0.2329	
-0.84973	0.556686	-0.03233	29.33	-5.39	55.02	0.3677	-0.1986	-0.2236	
-0.85095	0.577548	-0.047214	37.8	3.29	53.97	0.3607	-0.2092	-0.2222	
-0.83753	0.571326	-0.081252	23.31	-5.25	50.75	0.3567	-0.2214	-0.2239	
-0.802882	0.55937	-0.082228	9.45	-11.2	47.18	0.3582	-0.2291	-0.2239	
-0.810934	0.58743	-0.073322	11.69	-12.39	45.01	0.3483	-0.2367	-0.2302	
-0.816546	0.614148	-0.037088	15.05	-12.04	43.61	0.3386	-0.2518	-0.2242	
-0.809958	0.62342	-0.044408	14.84	-9.94	41.65	0.3358	-0.2501	-0.218	
-0.779458	0.625006	-0.057462	11.62	-11.97	39.55	0.3315	-0.2517	-0.2242	
-0.759206	0.62586	-0.055632	11.97	-9.45	37.38	0.3261	-0.2685	-0.226	
-0.778848	0.635864	-0.062098	12.74	-4.62	35.14	0.3261	-0.2669	-0.2228	
-0.777872	0.674294	-0.066978	15.68	-3.71	31.92	0.3276	-0.2747	-0.2306	
-0.788608	0.733098	-0.062464	16.17	-2.45	28.56	0.3263	-0.2823	-0.2292	
-0.77714	0.747006	-0.067222	12.04	-6.72	26.11	0.325	-0.2853	-0.2184	
-0.778604	0.724192	-0.082838	8.75	1.89	23.03	0.3179	-0.2883	-0.2262	
-0.768356	0.72712	-0.080154	2.66	-3.5	19.67	0.305	-0.288	-0.2277	
-0.78324	0.718702	-0.086986	-3.5	-3.29	15.61	0.3036	-0.288	-0.22	
-0.767014	0.710894	-0.066124	-5.04	-9.59	11.97	0.3136	-0.2866	-0.2215	
-0.749202	0.69235	-0.051606	-2.94	-4.41	9.24	0.3079	-0.2881	-0.2324	
-0.76128	0.68137	-0.05856	-1.4	-3.29	5.32	0.2937	-0.294	-0.2325	
-0.761158	0.689178	-0.045628	-1.47	-4.48	3.01	0.2923	-0.294	-0.2294	
-0.75518	0.692716	-0.042212	-1.19	-5.88	1.12	0.2994	-0.291	-0.2309	
-0.756766	0.694302	-0.05124	-0.21	-4.69	-1.12	0.3037	-0.2942	-0.2294	
-0.758718	0.695766	-0.04331	-0.28	-4.06	-2.87	0.3023	-0.2973	-0.2325	
-0.76128	0.68869	-0.0427	-1.61	-3.92	-5.18	0.3007	-0.2849	-0.2277	
-0.751886	0.676978	-0.029524	-2.31	-4.83	-7.14	0.305	-0.2864	-0.2185	
-0.746884	0.682712	-0.021472	0.14	-4.69	-9.31	0.2993	-0.2879	-0.2278	
-0.758718	0.685152	-0.02806	2.38	-4.48	-11.97	0.3093	-0.2897	-0.2339	
-0.763842	0.675636	-0.035502	1.05	-5.95	-14.63	0.3121	-0.2882	-0.2277	
-0.766648	0.680272	-0.02257	-0.84	-7.49	-17.01	0.3192	-0.2853	-0.2308	
-0.778238	0.693204	-0.014152	-0.07	-6.51	-19.6	0.3063	-0.2819	-0.2246	
-0.770064	0.693082	-0.020496	0.98	-6.09	-21.77	0.3122	-0.2912	-0.2262	
-0.760304	0.678198	-0.028792	0.21	-4.55	-24.08	0.3177	-0.2821	-0.2277	
-0.773602	0.667584	-0.028182	-1.89	-3.99	-27.02	0.3136	-0.2913	-0.2355	
-0.779214	0.656482	-0.018056	-3.71	-4.9	-29.75	0.3148	-0.276	-0.2369	
-0.783972	0.646722	-0.016104	-5.04	-4.97	-33.11	0.3189	-0.2669	-0.2337	
-0.798002	0.63501	-0.019642	-5.74	-3.85	-36.26	0.3273	-0.2609	-0.2352	
-0.816058	0.629642	-0.025742	-8.19	-5.6	-39.9	0.3272	-0.2548	-0.2382	
-0.821304	0.609634	-0.021106	-10.78	-5.53	-41.51	0.3401	-0.2597	-0.2428	
-0.8357	0.578402	-0.012444	-12.46	-2.24	-43.54	0.3398	-0.2428	-0.2427	
-0.840946	0.564372	-0.020252	-11.48	-3.85	-45.85	0.3383	-0.235	-0.238	
-0.84912	0.53863	-0.021472	-13.72	-5.04	-48.23	0.341	-0.229	-0.2441	
-0.850828	0.523136	-0.004392	-12.46	-3.99	-50.4	0.3425	-0.229	-0.2441	
-0.864004	0.512278	0.00671	-12.74	-4.27	-53.2	0.3522	-0.2154	-0.2486	
-0.871812	0.486414	-0.008296	-13.09	-2.1	-56.14	0.3477	-0.2046	-0.2469	
-0.884744	0.476898	-0.002928	-15.82	-2.1	-58.59	0.3619	-0.2018	-0.253	
-0.896944	0.46604	0.003416	-11.55	-0.56	-60.48	0.3674	-0.1882	-0.2637	
-0.914756	0.437614	0.006466	-14.98	0.14	-62.51	0.3573	-0.1834	-0.256	
-0.917196	0.406016	0.004636	-15.89	1.54	-64.54	0.3614	-0.1743	-0.2667	
-0.917928	0.389424	0.001708	-14.42	-2.38	-66.64	0.3657	-0.1713	-0.2666	
-0.894626	0.386496	0.00854	-8.82	-2.8	-67.69	0.3639	-0.1513	-0.2649	
-0.920856	0.366732	0.01403	-14.77	0.77	-68.6	0.3737	-0.1422	-0.2602	
-0.953186	0.356606	0.009272	-13.93	1.19	-69.02	0.3694	-0.1422	-0.2648	
-0.96868	0.320494	0.017934	-17.43	0.63	-70.07	0.3778	-0.1285	-0.2616	
-0.962214	0.23668	0.056486	-16.1	3.01	-71.4	0.3645	-0.1022	-0.2645	
-0.974292	0.23973	0.031598	-14.7	4.27	-72.73	0.3817	-0.1086	-0.2598	
-0.963678	0.213622	0.010858	-8.54	-2.8	-74.76	0.3826	-0.078	-0.2688	
-0.97783	0.188368	0.016714	-9.03	-0.07	-74.06	0.3854	-0.075	-0.2641	
-0.987346	0.169092	0.012932	-6.09	1.05	-72.8	0.3865	-0.055	-0.264	
-0.969168	0.129686	0.01586	-12.81	1.19	-73.43	0.3921	-0.0506	-0.2747	
-0.96014	0.100162	0.020984	-7.49	4.27	-75.67	0.3904	-0.0336	-0.2653	
-0.985028	0.06283	0.041846	-11.27	7.49	-78.47	0.3917	-0.0245	-0.2698	
-0.983686	0.022204	0.051972	-9.87	0.14	-80.64	0.3928	-0.0076	-0.2681	
-0.986492	-0.003172	0.043188	-7.84	2.66	-81.27	0.3971	-0.0092	-0.262	
-0.991738	-0.027816	0.022936	-11.2	3.5	-81.83	0.3967	0.0169	-0.2586	
-0.969168	-0.030256	0.022814	-9.66	0.77	-82.32	0.3923	0.0262	-0.2555	
-0.97356	-0.075518	0.028792	-14.91	3.43	-82.6	0.3935	0.0399	-0.2615	
-0.966972	-0.12017	0.017202	-14.21	9.03	-81.41	0.3891	0.0447	-0.2553	
-0.98027	-0.134078	0.017202	-17.99	9.03	-80.36	0.3973	0.0691	-0.255	
-0.96319	-0.17324	0.023546	-22.33	5.95	-81.2	0.3928	0.07979999	-0.2611	
-0.958066	-0.1891	0.040504	-19.32	6.02	-82.67	0.3842	0.083	-0.2642	
-0.94428	-0.22509	0.034404	-19.04	3.71	-81.48	0.3853	0.1014	-0.2671	
-0.98332	-0.304268	-0.00732	-19.18	8.82	-75.18	0.3863	0.1261	-0.253	
-0.964898	-0.352336	-0.013786	-24.85	9.31	-71.05	0.379	0.1354	-0.2545	
-0.938546	-0.335134	0.007198	-13.09	2.17	-69.93	0.3789	0.1416	-0.2544	
-0.94306	-0.327082	0.003782	-17.85	4.27	-68.74	0.3746	0.1416	-0.2637	
-0.964288	-0.360876	-0.032086	-20.51	10.43	-64.82	0.3716	0.1524	-0.2575	
-0.948062	-0.40809	-0.040626	-23.1	9.45	-61.32	0.374	0.1784	-0.2618	
-0.934276	-0.422486	-0.035502	-11.48	9.03	-58.03	0.3726	0.1786	-0.2495	
-0.920734	-0.448716	-0.02257	-17.08	7.21	-56.14	0.3581	0.1957	-0.2494	
-0.912804	-0.44774	-0.036234	-12.25	3.5	-56	0.3636	0.2048	-0.2524	
-0.918782	-0.5002	-0.031354	-13.58	1.61	-55.02	0.348	0.202	-0.2493	
-0.922686	-0.52033	-0.037942	-9.94	3.71	-53.48	0.3465	0.2098	-0.2415	
-0.92842	-0.527528	-0.044164	-5.18	2.45	-50.33	0.3433	0.2251	-0.2522	
-0.903166	-0.514718	-0.049288	-0.63	-2.17	-47.11	0.3434	0.2205	-0.2492	
-0.869128	-0.507398	-0.042578	3.22	-5.32	-43.4	0.3374	0.2391	-0.249	
-0.864004	-0.530944	-0.04453	-0.91	-3.43	-40.67	0.3289	0.2331	-0.2507	
-0.842044	-0.539484	-0.061244	0.49	-4.27	-38.78	0.3287	0.2484	-0.2536	
-0.854122	-0.5795	-0.040016	-0.35	-8.19	-35.84	0.3258	0.2485	-0.2428	
-0.847412	-0.586942	-0.030256	-2.94	-4.83	-32.55	0.32	0.2578	-0.2505	
-0.837652	-0.590968	-0.026962	-2.24	-4.97	-26.88	0.3186	0.2533	-0.2412	
-0.850096	-0.617198	-0.014396	0	-2.45	-23.94	0.3142	0.2594	-0.2474	
-0.843386	-0.623542	-0.019154	-0.98	-2.94	-20.02	0.3084	0.2641	-0.2582	
-0.839116	-0.627934	-0.01586	-0.35	-2.31	-15.68	0.3156	0.2625	-0.2427	
-0.831674	-0.626958	-0.015494	0.28	-1.75	-12.32	0.317	0.2639	-0.2581	
-0.82777	-0.637938	-0.016592	2.45	-2.31	-8.82	0.3084	0.2687	-0.2566	
-0.81191	-0.633546	-0.022692	2.94	-2.66	-5.74	0.311	0.281	-0.2456	
-0.808738	-0.632082	-0.010004	5.04	-3.64	-2.52	0.3012	0.2719	-0.255	
-0.81862	-0.623908	-0.00305	4.27	-1.68	0.63	0.3169	0.2717	-0.2503	
-0.821548	-0.623542	-0.00183	2.52	-3.57	3.29	0.3055	0.2704	-0.2473	
-0.821182	-0.631106	0.00732	3.78	-2.66	5.81	0.3026	0.2703	-0.255	
-0.818986	-0.62098	0.005856	2.66	-3.57	8.19	0.3196	0.2777	-0.2565	
-0.81984	-0.607194	0.009516	4.2	-5.46	10.85	0.3171	0.2562	-0.2629	
-0.829844	-0.616222	0.009881999	2.17	-4.27	14.63	0.2999	0.2627	-0.2536	
-0.827038	-0.624274	-0.001586	3.29	-3.64	18.41	0.3157	0.2594	-0.252	
-0.829234	-0.616954	0.002074	3.78	-3.64	21.21	0.3099	0.2594	-0.2567	
-0.840336	-0.596336	0.006588	2.03	-2.94	23.59	0.3156	0.2609	-0.2551	
-0.844728	-0.579988	0.008417999	0.77	-4.34	26.95	0.3186	0.2547	-0.2598	
-0.85217	-0.560346	0.00305	-0.21	-2.87	32.48	0.3143	0.2547	-0.2629	
-0.850096	-0.552172	0.006954	-0.35	-3.85	35.63	0.316	0.2377	-0.2708	
-0.856684	-0.546194	0.00732	-1.68	-3.64	38.22	0.3286	0.2483	-0.2644	
-0.872666	-0.534482	0.012078	-1.61	-3.78	40.81	0.3246	0.2331	-0.26	
-0.88999	-0.527894	0.01281	-2.66	-2.38	43.96	0.3289	0.2345	-0.2599	
-0.889746	-0.510204	0.015372	-1.4	-3.71	46.83	0.3331	0.236	-0.2614	
-0.891698	-0.495076	0.019886	-0.56	-4.97	49.77	0.3348	0.2237	-0.2569	
-0.895968	-0.476654	0.015006	0.35	-4.83	52.64	0.3407	0.2112	-0.2647	
-0.897798	-0.464576	0.002196	-2.59	-7.14	55.23	0.3408	0.2036	-0.2633	
-0.920124	-0.442616	0.002562	-3.01	-5.67	57.75	0.3508	0.2003	-0.2663	
-0.929274	-0.41419	0.004636	-2.1	-6.72	59.71	0.3523	0.1972	-0.2664	
-0.934032	-0.40565	0.0122	-2.8	-7	62.02	0.361	0.1878	-0.2711	
-0.931226	-0.391498	0.011468	-1.26	-4.76	64.4	0.3655	0.1786	-0.2603	
-0.938668	-0.376858	0.009393999	-1.68	-4.76	67.06	0.3642	0.1678	-0.262	
-0.9455	-0.355386	0.009881999	-2.66	-4.27	68.67	0.3584	0.1709	-0.2712	
-0.949404	-0.323788	0.000488	-2.87	-5.95	69.79	0.3671	0.1678	-0.2666	
-0.963312	-0.300486	0.01098	-0.35	-3.78	71.96	0.3732	0.1416	-0.2637	
-0.969656	-0.2684	0.022692	2.87	-2.1	74.76	0.3761	0.1369	-0.2622	
-0.967216	-0.231556	0.028182	4.13	-2.38	77.07	0.3795	0.1062	-0.2609	
-0.954772	-0.21777	-0.003538	-2.45	-1.89	81.62	0.3779	0.1138	-0.2671	
-0.956968	-0.217282	0.01952	0.28	1.33	83.44	0.3854	0.0954	-0.2548	
-0.975268	-0.17507	0.021106	4.06	1.89	83.79	0.3857	0.0769	-0.2643	
-1.007476	-0.127368	0.02501	2.8	-0.56	83.79	0.3872	0.0722	-0.269	
-1.016138	-0.074054	0.02135	9.87	-3.01	84.77	0.3974	0.0582	-0.2706	
-0.984784	-0.037698	0.01647	10.15	-6.93	86.17	0.3961	0.0522	-0.2598	
-0.964532	-0.013298	0.019276	10.01	-9.31	88.27	0.3992	0.0367	-0.2631	
-0.947452	0.027694	0.01647	17.78	-6.16	90.02	0.3952	0.0199	-0.271	
-0.96197	0.121146	-0.002928	52.22	-11.13	90.09	0.3982	0.0106	-0.2649	
-0.992958	0.051118	0.006832	-6.51	-4.06	86.38	0.397	-0.0046	-0.2696	
-0.97539	0.087352	0.002806	18.27	-15.26	85.47	0.3915	-0.0152	-0.2651	
-0.93452	0.161772	0.039284	36.33	-3.99	84.49	0.3918	-0.0291	-0.2714	
-0.971608	0.24034	0.023302	32.41	9.73	81.76	0.3977	-0.0461	-0.2747	
-0.978684	0.310734	-0.013176	27.72	4.69	77.98	0.398	-0.0614	-0.2624	
-0.924882	0.323178	-0.010736	20.51	-4.13	75.04	0.3854	-0.0703	-0.2595	
-0.90951	0.299388	0.002806	23.8	3.71	74.06	0.3928	-0.0905	-0.2689	
-0.922808	0.32086	0.022814	32.62	8.89	73.43	0.393	-0.1011	-0.2582	
-0.937448	0.347578	0.007686	32.41	11.69	71.68	0.3803	-0.1055	-0.2583	
-0.938424	0.412848	-0.034404	29.05	4.34	69.51	0.3778	-0.13	-0.2539	
-0.913414	0.46482	-0.020496	34.44	2.87	69.58	0.3738	-0.1468	-0.2494	
-0.903166	0.467382	-0.01891	31.78	6.72	69.09	0.3726	-0.156	-0.2557	
-0.879986	0.440298	-0.03721	23.45	3.01	67.27	0.3628	-0.165	-0.2496	
-0.905972	0.510204	-0.041114	56.07	12.18	67.06	0.3686	-0.1727	-0.245	
-0.880474	0.545462	-0.013786	40.53	3.78	63.7	0.3603	-0.1894	-0.2437	
-0.864492	0.523258	-0.019032	27.23	-0.14	62.16	0.3606	-0.2048	-0.2438	
-0.834114	0.531676	-0.066978	19.95	-3.08	60.83	0.3623	-0.2186	-0.2393	
-0.817034	0.53863	-0.06405	33.46	-4.48	59.36	0.3553	-0.2276	-0.2317	
-0.839848	0.573522	-0.088084	33.39	2.73	55.37	0.3454	-0.2305	-0.2317	
-0.855342	0.613416	-0.095038	26.95	-0.14	51.52	0.3485	-0.2459	-0.2334	
-0.834846	0.641354	-0.07869	14.77	-7.7	49	0.3414	-0.2457	-0.2257	
-0.805688	0.635498	-0.055022	12.88	-9.03	46.2	0.3459	-0.2611	-0.2258	
-0.816424	0.627446	-0.08906	13.86	-3.01	42.63	0.3315	-0.2532	-0.2212	
-0.825818	0.643184	-0.116754	6.72	-1.05	39.55	0.3275	-0.267	-0.2306	
-0.808128	0.670146	-0.10614	13.09	-0.77	36.47	0.319	-0.2713	-0.2198	
-0.77409	0.678442	-0.069052	5.74	-12.46	33.6	0.3148	-0.2743	-0.2199	
-0.764452	0.650504	-0.079544	3.78	-6.3	29.4	0.3262	-0.273	-0.2167	
-0.782142	0.636962	-0.078934	4.9	-2.52	24.92	0.3135	-0.2851	-0.2231	
-0.774578	0.657336	-0.058804	5.6	-2.59	22.26	0.3109	-0.3004	-0.2263	
-0.743834	0.676002	-0.058194	10.64	-4.2	19.6	0.3081	-0.3019	-0.2217	
-0.732244	0.691862	-0.077592	14.63	-3.92	17.36	0.3024	-0.3018	-0.2279	
-0.73627	0.709186	-0.072712	15.68	-1.89	15.61	0.3094	-0.2942	-0.2232	
-0.752496	0.725778	-0.073566	14.35	-0.84	13.72	0.301	-0.3002	-0.2186	
-0.770552	0.721874	-0.085766	10.08	-0.28	11.34	0.3081	-0.3018	-0.2201	
-0.758596	0.720044	-0.081862	6.58	-3.64	9.17	0.301	-0.3001	-0.2124	
-0.73932	0.720898	-0.069296	5.25	-3.85	6.58	0.3052	-0.2956	-0.217	



-0.772016	0.734318	-0.075396	-0.7	-1.19	-9.24	0.2954	-0.3092	-0.211	
-0.751154	0.715774	-0.07869	-6.65	-2.66	-12.39	0.2967	-0.3	-0.2063	
-0.751398	0.700524	-0.072834	-7.7	-5.11	-15.82	0.2966	-0.2971	-0.2232	
-0.754082	0.683444	-0.067954	-6.58	-4.9	-19.25	0.3008	-0.291	-0.2262	
-0.762744	0.679784	-0.070516	-3.78	-3.78	-22.19	0.311	-0.3035	-0.2232	
-0.771772	0.67466	-0.061976	-4.41	-3.5	-24.99	0.3051	-0.2941	-0.2185	
-0.775188	0.663436	-0.054778	-6.02	-4.27	-28.77	0.3109	-0.2973	-0.2232	
-0.784338	0.671244	-0.058072	-6.72	-5.25	-31.92	0.3093	-0.2866	-0.2293	
-0.77653	0.665022	-0.06344	-4.97	-5.04	-34.51	0.3162	-0.276	-0.2276	
-0.781654	0.660264	-0.071858	-6.3	-5.6	-37.17	0.3206	-0.2791	-0.2261	
-0.797392	0.648064	-0.062464	-9.24	-4.69	-40.25	0.3276	-0.2761	-0.2229	
-0.807274	0.63257	-0.053802	-12.25	-6.65	-43.61	0.3217	-0.2607	-0.2259	
-0.806664	0.599874	-0.047092	-14.7	-6.09	-46.2	0.3343	-0.2518	-0.2335	
-0.81069	0.579622	-0.044408	-17.43	-8.54	-48.02	0.3401	-0.2581	-0.2351	
-0.823622	0.570594	-0.040748	-15.54	-6.79	-50.05	0.3358	-0.2565	-0.2413	
-0.83448	0.569252	-0.037698	-13.09	-5.53	-51.94	0.3413	-0.2427	-0.2303	
-0.840946	0.546194	-0.03782	-10.78	-5.74	-53.34	0.3383	-0.2335	-0.241	
-0.857782	0.510448	-0.040138	-18.48	-6.3	-55.37	0.3409	-0.2228	-0.2425	
-0.874374	0.486536	-0.040138	-19.6	-6.86	-56.84	0.3393	-0.2152	-0.2548	
-0.883646	0.48495	-0.033794	-12.6	-5.18	-58.73	0.3593	-0.2156	-0.2501	
-0.902312	0.487512	-0.022936	-9.52	-2.38	-60.34	0.3563	-0.2032	-0.2515	
-0.91134	0.452986	-0.01769	-16.03	-3.92	-62.23	0.3559	-0.1849	-0.2606	
-0.91134	0.419192	-0.005612	-17.57	-6.37	-63.35	0.3616	-0.185	-0.256	
-0.934398	0.393694	-0.014274	-14.91	-4.62	-65.1	0.36	-0.1742	-0.2512	
-0.940742	0.377224	-0.000732	-21.07	-11.06	-67.97	0.3768	-0.1515	-0.2587	
-0.930616	0.360266	0.010492	-18.62	-10.64	-69.37	0.3736	-0.1346	-0.2616	
-0.93757	0.32513	0.003538	-14	-1.47	-69.93	0.3765	-0.1393	-0.271	
-0.941474	0.303536	-0.015128	-13.86	-1.54	-70.91	0.3804	-0.1164	-0.2692	
-0.96441	0.285358	0.043188	-10.71	-3.57	-71.75	0.3874	-0.1041	-0.2551	
-0.97539	0.279502	0.024766	-5.18	2.17	-72.73	0.3773	-0.09779999	-0.2597	
-0.977342	0.229482	0.025986	-11.41	-4.13	-73.57	0.3872	-0.095	-0.2721	
-0.98027	0.189344	0.015494	-14.14	-3.85	-74.62	0.3884	-0.08109999	-0.2549	
-0.974292	0.172996	0.032208	-14.21	-6.65	-75.46	0.3909	-0.066	-0.2764	
-0.975756	0.134444	0.036234	-9.45	-4.13	-76.93	0.3879	-0.0551	-0.2717	
-0.966484	0.083326	0.040138	-11.9	-0.7	-77.35	0.3862	-0.0382	-0.2746	
-0.982954	0.045872	0.05307	-12.32	-2.45	-77.21	0.3875	-0.029	-0.2699	
-0.96929	0.026962	0.042212	-16.8	-2.38	-77	0.39	-0.0092	-0.279	
-0.96075	0.01037	0.038308	-13.86	-2.52	-76.79	0.3785	-0.0028	-0.2743	
-0.97112	-0.029768	0.051728	-17.99	-3.64	-77.49	0.3927	-0.0016	-0.2851	
-0.990274	-0.08113	0.056608	-17.78	-3.43	-77.21	0.3909	0.0214	-0.2833	
-1.00955	-0.112484	0.03538	-14.84	-0.42	-75.46	0.3808	0.0262	-0.2787	
-0.97661	-0.132126	0.007929999	-13.93	2.17	-74.83	0.3849	0.0384	-0.2801	
-0.97051	-0.152378	0.044042	-15.75	-1.96	-74.97	0.386	0.0599	-0.2691	
-0.960384	-0.213866	0.0549	-17.15	-0.42	-73.64	0.3841	0.0829	-0.2828	
-0.96746	-0.222528	0.028914	-12.11	1.82	-72.8	0.3856	0.083	-0.272	
-0.992958	-0.260226	0.049044	-16.45	2.8	-70.91	0.3738	0.0999	-0.2857	
-0.978928	-0.279502	0.034648	-15.54	1.54	-69.16	0.3766	0.1076	-0.2764	
-0.94672	-0.30805	0.011346	-19.6	1.47	-68.67	0.3693	0.117	-0.2763	
-0.937936	-0.297314	0.02135	-13.44	3.57	-68.6	0.3676	0.1339	-0.27	
-0.919514	-0.341478	0.045384	-19.04	2.94	-66.64	0.3692	0.1279	-0.2577	
-0.917684	-0.353678	0.036844	-9.59	3.15	-64.19	0.3587	0.1525	-0.2699	
-0.931958	-0.385886	0.03477	-11.41	9.38	-61.53	0.3659	0.1523	-0.2776	
-0.93757	-0.403576	0.040382	-11.69	6.37	-60.41	0.3698	0.1738	-0.2681	
-0.933788	-0.432002	0.038796	-13.44	3.92	-57.47	0.364	0.18	-0.2727	
-0.9394	-0.46177	0.01586	-15.75	0.35	-54.74	0.3596	0.1894	-0.2664	
-0.914878	-0.445666	0.014152	-11.83	-1.12	-52.36	0.3553	0.1894	-0.268	
-0.888526	-0.463966	0.022448	-11.97	-0.91	-50.19	0.348	0.1972	-0.2726	
-0.869006	-0.490196	0.022326	-12.6	0.56	-49.28	0.3421	0.2128	-0.2632	
-0.865224	-0.482998	0.00427	-12.04	1.12	-48.37	0.3377	0.2174	-0.2662	
-0.894748	-0.527406	0.003538	-14.77	1.26	-45.43	0.3348	0.2237	-0.26	
-0.893406	-0.541924	0.016104	-12.04	1.26	-43.4	0.3303	0.2329	-0.2615	
-0.881206	-0.559248	0.023424	-13.02	0.21	-40.95	0.3317	0.2391	-0.2599	
-0.868152	-0.577426	0.003782	-10.92	-3.43	-38.29	0.3232	0.2362	-0.2537	
-0.876326	-0.60634	0.008052	-9.87	-4.41	-34.79	0.3173	0.2439	-0.2599	
-0.873642	-0.6161	0.008784	-2.87	-2.87	-31.15	0.317	0.2592	-0.2675	
-0.852536	-0.617198	0.00061	-2.66	-6.37	-25.76	0.31	0.2532	-0.2629	
-0.852048	-0.623176	0.0061	-0.77	-6.09	-21.28	0.3199	0.2576	-0.2659	
-0.856562	-0.617198	0.007198	1.82	-4.06	-17.57	0.3128	0.2593	-0.2628	
-0.834968	-0.607682	0.005124	6.51	-8.05	-13.3	0.3114	0.2563	-0.2629	
-0.833992	-0.609268	0.021106	7.56	-7.63	-9.66	0.3114	0.2563	-0.2644	
-0.828624	-0.602436	0.011346	6.23	-5.11	-6.51	0.2983	0.2718	-0.2659	
-0.826306	-0.60878	0.030988	6.09	-5.46	-3.08	0.3027	0.2656	-0.2644	
-0.822768	-0.609756	0.027328	4.83	-3.78	-0.28	0.2957	0.2565	-0.266	
-0.82594	-0.60817	0.034648	4.62	-2.66	2.1	0.31	0.2517	-0.2614	
-0.825452	-0.611098	0.040992	4.97	-1.33	4.97	0.31	0.2548	-0.266	
-0.822158	-0.604144	0.02989	2.38	-0.77	7.63	0.31	0.2563	-0.2598	
-0.827648	-0.598166	0.033428	0.63	-2.73	9.94	0.3127	0.2592	-0.2767	
-0.833626	-0.597068	0.043554	0.28	-0.77	12.11	0.3098	0.2639	-0.2705	
-0.834236	-0.592188	0.040992	0.35	-1.33	14	0.3157	0.2562	-0.269	
-0.851316	-0.604022	0.04087	0.14	0.14	18.62	0.3057	0.2563	-0.2737	
-0.850706	-0.594628	0.047824	2.87	-3.01	20.86	0.3114	0.2546	-0.2799	
-0.843142	-0.572546	0.039162	3.29	-5.25	23.24	0.3185	0.2561	-0.2675	
-0.843142	-0.56791	0.033428	2.73	-5.88	25.69	0.3086	0.2501	-0.2707	
-0.859246	-0.560834	0.04087	2.87	-3.5	28.21	0.3187	0.2438	-0.2707	
-0.859246	-0.539728	0.04514	2.1	-3.43	30.31	0.3188	0.2377	-0.2692	
-0.871812	-0.526186	0.052704	1.26	-3.85	32.55	0.3203	0.233	-0.2754	
-0.87718	-0.515816	0.052582	1.89	-2.8	35	0.3303	0.2298	-0.2723	
-0.882304	-0.50447	0.049288	1.54	-3.5	37.59	0.3332	0.2297	-0.2692	
-0.87718	-0.491782	0.03782	0.56	-3.64	39.76	0.329	0.2237	-0.2677	
-0.893284	-0.488732	0.047824	0.14	-2.87	41.79	0.3305	0.2205	-0.2755	
-0.924028	-0.487146	0.05551	0.7	0.14	44.66	0.335	0.2081	-0.2787	
-0.920246	-0.462624	0.03721	2.52	-4.55	46.48	0.3379	0.2034	-0.2818	
-0.91683	-0.446032	0.03782	4.83	-6.44	48.37	0.3368	0.1851	-0.2758	
-0.91805	-0.429806	0.044652	5.53	-2.59	50.19	0.3596	0.1832	-0.2758	
-0.929274	-0.402112	0.0488	4.9	-2.87	52.01	0.3382	0.1851	-0.2727	
-0.94062	-0.370758	0.047458	3.5	-3.29	53.48	0.3498	0.1757	-0.2712	
-0.939522	-0.3538	0.039528	3.5	-5.53	54.32	0.3514	0.1649	-0.279	
-0.93635	-0.363438	0.025498	4.06	-3.64	56.77	0.3557	0.1632	-0.2806	
-0.952454	-0.365756	0.027328	4.62	-0.63	57.54	0.3571	0.1617	-0.2821	
-0.949648	-0.313906	0.022936	9.87	-1.75	57.4	0.36	0.1585	-0.2822	
-0.95343	-0.272548	0.02135	5.74	-2.8	56.98	0.3603	0.1401	-0.2854	
-0.960018	-0.260226	0.032818	4.62	-0.77	57.19	0.3691	0.1261	-0.2824	
-0.961848	-0.243268	0.030866	3.71	2.59	57.75	0.3649	0.1263	-0.2732	
-0.96502	-0.237046	0.032086	-0.98	1.4	56.98	0.375	0.1199	-0.2778	
-0.972462	-0.229726	0.04026	-0.77	1.19	55.86	0.3724	0.1031	-0.2764	
-0.998082	-0.2135	0.04209	1.33	-0.28	53.76	0.3766	0.1077	-0.2671	
-0.998326	-0.18422	0.040138	3.5	-5.32	51.17	0.3753	0.1031	-0.2718	
-1.004182	-0.169824	0.040504	-0.07	-8.4	48.79	0.3798	0.0861	-0.2735	
-0.994056	-0.156038	0.049166	3.71	-8.4	45.5	0.3814	0.0753	-0.2767	
-1.006378	-0.14274	0.055754	3.5	-3.71	43.05	0.3829	0.069	-0.2875	
-1.008818	-0.111874	0.063562	4.76	-7.49	39.13	0.383	0.0661	-0.2737	
-1.004914	-0.086376	0.0671	7.42	-12.67	34.58	0.3859	0.0614	-0.2814	
-1.012722	-0.050874	0.083204	11.13	-11.41	31.64	0.3847	0.0475	-0.2846	
-0.996984	-0.01098	0.093696	10.15	-12.39	29.47	0.3848	0.0444	-0.2893	
-0.992104	0.03843	0.095282	11.76	-16.03	23.87	0.3821	0.0353	-0.2894	
-0.986858	0.085644	0.081862	20.65	-10.08	22.19	0.3834	0.0368	-0.2925	
-0.986492	0.10858	0.105042	19.88	-1.82	21.77	0.3835	0.0322	-0.291	
-0.995886	0.11651	0.13298	17.71	-1.96	20.09	0.3834	0.0398	-0.294	
-0.986004	0.137006	0.108092	16.52	0	18.41	0.3807	0.0307	-0.2864	
-1.010648	0.153598	0.10614	16.52	2.45	17.99	0.3707	0.0308	-0.2988	
-1.004548	0.150792	0.09942999	14.63	8.19	17.71	0.3893	0.0274	-0.2972	
-1.005158	0.142496	0.10492	10.57	9.66	17.01	0.3738	0.017	-0.2927	
-0.984662	0.148718	0.092476	11.27	10.92	16.45	0.3855	0.0014	-0.2943	
-0.999668	0.164334	0.080154	9.66	14.35	15.82	0.3881	0.0167	-0.2911	
-0.99125	0.170434	0.071492	6.16	16.03	14.42	0.3855	0.0015	-0.2851	
-0.997472	0.188246	0.074664	3.92	19.95	12.81	0.3841	-0.0015	-0.2867	
-0.996496	0.200934	0.070882	6.72	21.84	11.48	0.3941	-0.0032	-0.2866	
-1.02053	0.197274	0.063196	3.78	29.47	10.43	0.3854	0.0046	-0.285	
-1.040416	0.199348	0.055876	7	25.62	9.52	0.3941	0	-0.2712	
-1.020774	0.200446	0.039528	3.29	28.42	9.31	0.3854	0.0078	-0.2696	
-1.010282	0.195932	0.020618	5.25	32.76	8.26	0.4084	-0.0033	-0.2711	
-1.0309	0.186538	-0.002684	-10.01	31.57	6.23	0.3958	-0.0153	-0.2605	
-1.039196	0.188978	-0.02867	-38.22	17.57	2.87	0.4014	-0.0076	-0.248	
-1.023458	0.189832	-0.049044	-46.48	17.57	1.54	0.3986	-0.006	-0.2526	
-1.011014	0.202154	-0.054656	-51.24	22.26	-0.84	0.4142	-0.0033	-0.2603	
-1.027728	0.20435	-0.047336	-56	13.37	-2.66	0.4042	-0.003	-0.2464	
-0.960872	0.143716	-0.047458	-64.61	5.88	-1.68	0.4042	0	-0.2448	
-1.047248	0.13908	-0.048068	-64.82	-1.75	-4.06	0.4098	0.0029	-0.2525	
-1.023214	0.148108	-0.101382	-64.4	3.64	-2.59	0.4095	0.0198	-0.2508	
-1.034438	0.126148	-0.087962	-74.97	-10.29	-1.33	0.3983	0.0124	-0.2386	
-1.024434	0.125782	-0.11041	-73.22	-4.34	-0.14	0.4094	0.0306	-0.2445	
-0.994422	0.093086	-0.100162	-82.6	-3.01	-1.19	0.4095	0.023	-0.2369	
-1.01565	0.036722	-0.073932	-98.28	-7.49	-0.98	0.4122	0.0305	-0.2523	
-1.01626	0.001098	-0.127612	-109.9	3.22	-2.87	0.4076	0.0491	-0.2367	
-1.07299	0.028792	-0.090158	-95.48	-2.52	-2.38	0.4019	0.0492	-0.2429	
-1.01565	0.00244	-0.050874	-99.12	-2.66	-1.26	0.4061	0.0552	-0.2474	
-1.016504	-0.027572	-0.066124	-104.23	-5.67	1.4	0.3988	0.0614	-0.2505	
-0.981612	-0.071858	-0.049288	-98.77	-0.56	2.38	0.3916	0.0677	-0.2489	
-1.01016	-0.055388	-0.024644	-98.28	1.89	2.38	0.4001	0.0738	-0.2395	
-0.9943	-0.075274	-0.0061	-97.58	10.22	-2.38	0.4	0.08	-0.2318	
-1.057862	-0.006222	0.002684	-93.66	0	-2.38	0.4125	0.0982	-0.2285	
-1.037732	-0.086742	-0.005612	-85.54	8.05	-3.08	0.407	0.0891	-0.2286	
-0.99674	-0.101626	-0.018422	-83.02	8.12	-3.64	0.3954	0.1001	-0.2254	
-0.996984	-0.098088	-0.024644	-71.96	10.08	-3.64	0.4009	0.117	-0.2098	
-1.000888	-0.123952	-0.013054	-62.86	6.93	-1.12	0.3981	0.1124	-0.2145	
-1.020896	-0.093208	-0.01403	-54.11	8.12	0.84	0.4038	0.1139	-0.2113	
-1.02297	-0.023058	-0.005368	-47.11	7.56	1.96	0.4037	0.1216	-0.2066	
-1.015406	-0.016226	0.012322	-42.84	4.41	2.8	0.4151	0.1214	-0.2066	
-1.013088	-0.029646	0.008662	-39.76	4.76	2.73	0.4079	0.1231	-0.202	
-1.017358	-0.028182	-0.000976	-35.91	4.41	2.52	0.4093	0.1277	-0.1988	
-1.000034	-0.031476	0.001342	-29.68	3.08	4.13	0.3951	0.1233	-0.2036	
-1.008696	-0.006222	0.018178	-21.14	0.42	5.32	0.4065	0.1231	-0.202	
-1.014796	0.011956	0.011346	-19.39	1.4	6.3	0.405	0.1247	-0.2051	
-1.019066	0.022448	0.017812	-16.38	-0.42	7.91	0.4063	0.1338	-0.2065	
-1.023092	0.000732	0.023912	-14.91	0.21	8.12	0.4022	0.1233	-0.1958	
-1.017968	-0.00732	0.0061	-8.54	-0.35	9.38	0.4108	0.1231	-0.1942	
-0.998326	0.013542	0.018178	-3.01	-1.4	10.5	0.4109	0.1154	-0.202	
-1.016504	0.059536	0.032818	2.45	-2.31	11.06	0.4079	0.1247	-0.1927	
-1.00223	0.077714	0.026962	6.86	-2.87	10.78	0.4095	0.114	-0.1912	
-1.004914	0.078568	0.001464	6.65	0.49	10.5	0.411	0.1077	-0.2036	
-1.008452	0.063074	0.016714	6.79	-0.84	9.73	0.4097	0.1016	-0.2037	
-1.010526	0.05612	0.02013	10.08	1.05	8.75	0.411	0.1108	-0.199	
-1.006622	0.095282	0.020496	13.58	0.98	8.96	0.4111	0.1061	-0.2037	
-1.013698	0.115412	0.018788	15.05	-0.56	8.47	0.4125	0.1109	-0.1851	
-0.986614	0.07686	0.0305	17.36	-1.61	5.81	0.4138	0.1123	-0.1912	
-0.986858	0.06283	0.006588	21.56	-0.63	5.67	0.4082	0.1063	-0.1913	
-1.00467	0.09467199	0.003416	27.09	0.28	6.16	0.404	0.1032	-0.2037	
-1.00162	0.081496	0.017202	29.54	0.63	4.9	0.414	0.103	-0.2068	
-1.008818	0.078934	0.015006	34.02	1.82	3.71	0.417	0.0922	-0.2069	
-0.990274	0.073932	0.02257	37.17	1.4	3.29	0.4098	0.097	-0.2037	
-0.96563	0.07076	0.035746	48.93	2.38	6.09	0.407	0.0909	-0.2023	
-0.995642	0.113582	-0.031964	45.29	4.27	3.78	0.4184	0.0922	-0.2022	
-0.997106	0.123464	-0.001464	46.27	4.06	1.82	0.4185	0.0861	-0.2007	
-0.99186	0.082716	-0.021838	39.41	2.24	1.19	0.417	0.0907	-0.2038	
-0.996984	0.056242	0.005734	39.62	8.26	0.42	0.4129	0.0799	-0.2132	
-1.007232	0.053436	-0.024888	53.13	8.96	-1.89	0.4172	0.0814	-0.21	
-1.029558	0.054168	-0.04331	60.13	8.26	-2.24	0.4187	0.0737	-0.2101	
-1.017114	0.075762	-0.046604	63.77	4.69	-1.26	0.413	0.0785	-0.2024	
-1.008574	0.072468	-0.039894	63.63	4.9	-1.05	0.4188	0.0706	-0.2101	
-1.003328	0.074664	-0.067588	61.11	4.69	-2.24	0.4203	0.0661	-0.2025	
-1.014674	0.081984	-0.099552	56.84	3.78	-1.82	0.4159	0.0738	-0.2009	
-1.026874	0.080032	-0.0976	57.68	0.91	0.07	0.4103	0.0662	-0.2118	
-1.02358	0.065026	-0.081862	55.58	0.7	-1.82	0.4175	0.0599	-0.2133	
-1.02175	0.035868	-0.08784	50.61	-1.05	-1.54	0.4203	0.066	-0.2148	
-0.991372	0.024766	-0.115656	49.49	-4.06	-2.87	0.4276	0.0521	-0.2087	
-1.009916	0.03172	-0.117608	49.77	-5.04	-1.89	0.4163	0.0491	-0.2165	
-1.037488	0.045384	-0.091378	42.49	-5.32	-2.73	0.4136	0.04	-0.2151	
-1.074576	0.055266	-0.082472	42.07	-2.87	-1.61	0.4135	0.0415	-0.2135	
-1.05835	0.07564	-0.091134	56	-10.01	-3.01	0.4076	0.0554	-0.215	
-1.05835	0.066368	-0.099308	56.84	-21.35	-0.91	0.409	0.0554	-0.2134	
-1.029436	0.052582	-0.09162199	49.14	-26.81	-2.03	0.415	0.0368	-0.2213	
-0.992226	0.02684	-0.077836	47.39	-19.18	-1.61	0.4106	0.0445	-0.2259	
-1.005402	0.0488	-0.05246	43.96	-16.24	-2.24	0.408	0.0293	-0.2245	
-1.067378	0.134932	-0.195322	16.45	-36.05	-1.96	0.4135	0.0398	-0.2352	
-1.00833	0.030988	-0.040992	43.54	-38.5	-2.52	0.4136	0.0321	-0.2414	
-0.991128	0.0305	-0.069296	67.62	-20.37	1.82	0.3994	0.0307	-0.2477	
-0.974048	0.05063	-0.069906	80.99	-18.48	1.61	0.3967	0.0168	-0.2617	
-1.00345	0.156038	-0.040382	63.07	-24.64	-0.77	0.3951	0.0261	-0.2632	
-1.066158	0.173606	-0.042212	56.56	-21.84	-0.84	0.3908	0.0292	-0.2647	
-1.054934	0.176046	-0.013298	48.37	-19.81	-0.07	0.3925	0.0122	-0.2695	
-0.98759	0.095648	0.04026	34.3	-29.33	-2.73	0.3952	0.0215	-0.2632	
-1.010038	0.045384	0.025498	29.54	-29.19	-4.69	0.3867	0.0169	-0.271	
-1.035536	0.05856	0.01342	47.67	-18.62	-2.73	0.3968	0.0059	-0.2788	
-1.039806	0.071614	0.010126	60.9	-5.67	-0.77	0.3854	0.0061	-0.2804	
-1.02236	0.100162	0.018178	61.88	-9.94	-0.98	0.3855	0.0015	-0.2789	
-1.039684	0.102602	0.037698	52.85	-12.46	-2.17	0.3827	-0.0045	-0.2898	
-1.027728	0.088084	0.009516	52.43	-13.44	-4.97	0.3799	-0.0044	-0.279	
-1.00589	0.088328	0.021228	54.18	-13.44	-7.14	0.3857	-0.0122	-0.2821	
-0.982466	0.091256	0.005734	64.4	-9.03	-5.88	0.3858	-0.0137	-0.279	
-1.033584	0.076982	0.017812	62.09	-4.13	-6.72	0.3887	-0.0169	-0.2821	
-1.03334	0.063562	0.076982	55.51	-11.34	-7.28	0.3831	-0.0244	-0.2745	
-1.048834	0.071492	0.023668	67.69	-14.7	-7.56	0.3875	-0.0337	-0.2777	
-1.006744	0.05917	0.05612	78.75	-5.6	-9.59	0.3847	-0.0352	-0.2761	
-0.977464	0.083448	0.069906	82.81	-6.02	-11.2	0.3876	-0.0368	-0.2839	
-0.996984	0.167506	0.034892	90.3	-2.52	-10.85	0.3876	-0.0352	-0.2777	
-0.993446	0.153598	0.064416	75.39	-3.78	-7.35	0.3849	-0.0428	-0.2716	
-1.024678	0.152012	0.04819	72.38	-3.71	-6.23	0.3851	-0.0582	-0.2764	
-1.030778	0.107726	0.018178	56.49	-5.25	-6.02	0.3895	-0.0612	-0.2656	
-1.055788	0.073322	0.082594	56.21	-3.08	-7.07	0.3838	-0.0674	-0.2764	
-0.975024	0.139324	0.03416	79.24	-6.16	-4.41	0.3837	-0.0612	-0.2733	
-0.955992	0.135298	0.063318	70.28	-0.56	-2.45	0.3811	-0.0734	-0.2688	
-0.991494	0.144204	0.076494	67.48	1.4	-1.61	0.3897	-0.0781	-0.2673	
-1.010648	0.149206	0.086254	61.32	2.38	-2.45	0.3756	-0.0809	-0.2611	
-1.001132	0.157014	0.0915	50.33	-1.82	-4.76	0.387	-0.0827	-0.2673	
-0.978196	0.17568	0.105896	47.74	0.91	-4.2	0.3885	-0.0872	-0.2565	
-0.978196	0.17873	0.09821	42	1.96	-3.22	0.3814	-0.0902	-0.2581	
-0.995764	0.15616	0.108336	33.32	2.17	-3.08	0.3801	-0.0932	-0.2504	
-0.990152	0.107604	0.101748	21.07	1.47	-3.71	0.3857	-0.0918	-0.2566	
-0.983442	0.09211	0.095282	15.75	3.08	-4.76	0.393	-0.1012	-0.2613	
-0.996374	0.087474	0.09076799	18.76	4.76	-3.99	0.3801	-0.0948	-0.2628	
-1.019554	0.087962	0.08418	18.76	5.67	-3.01	0.3857	-0.09339999	-0.2643	
-1.000522	0.068686	0.075884	5.67	0.21	-3.43	0.3786	-0.0948	-0.2644	
-1.0126	0.05795	0.063684	7.77	3.08	-3.71	0.3902	-0.1011	-0.2551	
-1.014796	0.040992	0.066368	-2.03	0.63	-5.6	0.386	-0.1071	-0.2552	
-1.019188	0.039894	0.043066	-5.18	0.91	-6.51	0.3886	-0.0918	-0.2488	
-1.017968	0.036356	0.047946	-6.09	1.05	-7	0.38	-0.0932	-0.2597	
-1.016016	0.03965	0.059292	-7.35	-0.07	-6.72	0.3816	-0.0994	-0.2567	
-1.031022	0.022082	0.060512	-7.91	-0.98	-5.53	0.3899	-0.0873	-0.2627	
-0.992836	0.045018	0.055632	-5.25	-3.43	-3.99	0.3886	-0.0917	-0.2457	
-1.001498	0.012932	0.041968	-9.94	-2.17	-2.45	0.3871	-0.0872	-0.2565	
-1.005524	0.052094	0.041358	-5.95	-2.31	0.28	0.3914	-0.0888	-0.2565	
-0.9638	0.10553	0.045506	-3.71	1.19	1.47	0.3942	-0.08419999	-0.2549	
-1.008452	0.074542	0.035258	-15.12	5.04	0.91	0.3829	-0.0902	-0.2535	
-1.015406	0.006344	0.052094	-27.23	6.23	0.63	0.3928	-0.0889	-0.2596	
-0.982344	0.020374	0.047336	-30.87	3.29	1.54	0.3857	-0.0902	-0.2566	
-0.99369	0.057584	0.066734	-29.26	7.91	3.5	0.377	-0.0793	-0.2565	
-0.996496	0.093818	0.046726	-18.2	15.82	4.76	0.3826	-0.0749	-0.2672	
-0.993324	0.126514	0.069662	-12.18	19.67	5.53	0.3871	-0.0872	-0.2596	
-1.026996	0.125172	-0.005246	-38.92	18.97	6.02	0.3871	-0.0872	-0.2596	
-1.001132	0.096868	0.006832	-49.7	19.95	6.23	0.387	-0.0841	-0.2534	
-0.995154	0.100528	0.01769	-59.29	13.93	4.13	0.397	-0.0796	-0.2441	
-0.983076	0.10004	0.024156	-65.03	13.58	2.17	0.3969	-0.075	-0.2487	
-1.034804	0.124074	0.019276	-68.32	15.4	1.89	0.3854	-0.0702	-0.2486	
-1.026508	0.14945	0.003782	-71.75	13.51	-0.91	0.3966	-0.0596	-0.2439	
-1.008574	0.146278	-0.030744	-79.52	10.71	-6.37	0.3967	-0.0628	-0.2532	
-1.043832	0.062342	-0.018056	-104.51	9.24	-8.82	0.4065	-0.0522	-0.2484	
-1.030534	0.011346	0.014762	-98.49	8.96	-5.67	0.3965	-0.0519	-0.2423	
-1.031632	0.033428	0.019764	-51.66	17.43	-4.13	0.3931	-0.0228	-0.2497	
-1.055544	0.11407	-0.038674	-49.91	14.63	-6.86	0.3975	-0.0259	-0.2497	
-1.028704	0.122366	-0.07015	-77.21	6.51	-11.48	0.4018	-0.0291	-0.2528	
-1.0614	0.116388	-0.042456	-92.05	-4.34	-15.4	0.4015	-0.0138	-0.2558	
-1.03944	0.120292	-0.010248	-86.52	-6.58	-13.93	0.4	-0.009099999	-0.2511	
-1.014796	0.132492	-0.013298	-63	-4.2	-4.97	0.3914	-0.0075	-0.2589	
-1.041514	0.085888	-0.071126	-36.12	11.27	0.42	0.4057	-0.0062	-0.2573	
-1.028582	0.121268	-0.10553	-30.38	15.26	-4.27	0.39	-0.0043	-0.2496	
-0.958554	0.083936	-0.132248	-48.09	7.7	-3.92	0.4043	-0.0077	-0.2604	
-1.029558	0.047458	-0.110532	-85.89	-3.22	-5.39	0.3996	0.0154	-0.2494	
-0.987712	0.023912	-0.172142	-71.68	5.25	3.36	0.4095	0.0213	-0.2477	
-1.041636	0.04148	-0.143472	-82.6	25.27	6.37	0.4067	0.0167	-0.2586	
-1.064816	0.022326	-0.02562	-77.42	30.31	6.58	0.4022	0.0322	-0.2461	
-1.053348	0.029402	-0.045872	-78.33	5.88	-0.42	0.4065	0.0321	-0.2492	
-1.078602	0.024156	-0.01342	-68.18	7.98	3.57	0.4079	0.0322	-0.2399	
-1.007964	0.026962	-0.059658	-79.1	-27.16	4.34	0.4064	0.0384	-0.2398	
-1.04005	-0.020984	-0.125904	-81.62	-14.49	6.37	0.4106	0.0445	-0.2336	
-0.99369	-0.040504	-0.07124799	-83.65	-16.66	5.95	0.4033	0.0538	-0.2382	
-1.027728	0.021228	-0.057706	-65.66	-25.76	7.7	0.4033	0.0553	-0.2351	
-1.015406	0.012932	-0.06466	-72.24	-6.72	8.47	0.3988	0.0645	-0.2458	
-1.029192	0.017324	-0.057462	-68.6	-6.09	9.24	0.3988	0.063	-0.2443	
-1.035902	-0.01281	-0.01952	-78.96	-7.42	8.05	0.4031	0.0614	-0.2427	
-1.0248	-0.015006	-0.04819	-82.6	-5.11	8.19	0.4044	0.0691	-0.2411	
-1.028704	-0.019886	-0.051972	-71.61	0.49	4.2	0.3987	0.0738	-0.238	
-0.995642	-0.047946	0.019642	-71.05	-3.01	0.49	0.4	0.0768	-0.2441	
-0.960506	-0.057584	-0.010736	-74.55	0	-0.21	0.3927	0.08769999	-0.2456	
-1.030046	-0.024278	0.013908	-66.57	-0.7	-1.19	0.39	0.0816	-0.2426	
-1.011624	-0.0549	0.014762	-71.96	0.14	-2.8	0.4041	0.0922	-0.2316	
-0.976854	-0.028182	0.02379	-59.01	4.41	-1.54	0.4039	0.1029	-0.2346	
-1.031266	-0.053924	0.053924	-54.46	2.45	-0.28	0.3969	0.0985	-0.227	
-1.01565	-0.069662	0.027206	-51.45	8.47	0.77	0.4067	0.1075	-0.2268	
-1.003328	-0.052094	0.03294	-46.62	6.16	1.54	0.3939	0.1063	-0.2207	
-1.002352	-0.030012	0.029402	-39.69	5.04	2.8	0.4024	0.1092	-0.2207	
-0.984662	-0.01403	0.037576	-36.89	5.11	2.8	0.3966	0.117	-0.2175	
-1.00101	-0.003172	0.040992	-34.51	5.25	3.43	0.4081	0.1091	-0.2191	
-1.02541	-0.001098	0.051362	-32.2	6.79	0.98	0.4025	0.1062	-0.2191	
-1.035658	-0.020008	0.040992	-29.82	0.07	2.59	0.3996	0.1093	-0.216	
-1.041148	-0.04026	0.044286	-25.2	-0.56	4.55	0.4007	0.123	-0.2267	
-1.030046	-0.029402	0.061854	-20.86	-0.21	5.25	0.401	0.1109	-0.2083	
-1.010404	0.005246	0.063684	-16.24	-1.47	6.44	0.3951	0.1217	-0.2067	
-1.008208	0.013542	0.061244	-11.69	-2.03	8.12	0.3981	0.1139	-0.2144	
-0.989176	0.010248	0.05856	-9.03	-2.1	8.19	0.4067	0.1108	-0.2052	
-0.994788	0.03111	0.040016	-4.9	-2.38	9.31	0.4009	0.1123	-0.2222	
-1.01199	0.039894	0.039528	-0.42	-3.29	8.96	0.401	0.111	-0.2006	
-1.014186	0.04453	0.044774	2.31	-3.78	9.1	0.4037	0.1169	-0.2159	
-1.014552	0.055754	0.047214	4.69	-3.36	9.1	0.3979	0.1217	-0.2097	
-0.975512	0.04819	0.031354	7.42	-2.03	7.91	0.4039	0.1031	-0.2192	
-1.01016	0.08479	0.021716	12.74	-0.49	6.93	0.3967	0.1109	-0.2129	
-1.008452	0.101992	0.026718	14.42	0.49	6.65	0.4039	0.1077	-0.2145	
-1.007354	0.111752	0.02989	14.35	1.96	6.16	0.4096	0.1076	-0.2176	
-0.995032	0.06954	0.028792	14.21	0.14	4.55	0.4025	0.1032	-0.2099	
-1.004426	0.030866	0.044164	18.48	0.91	3.92	0.4096	0.1045	-0.213	
-1.007842	0.066246	0.038918	26.04	-0.63	3.85	0.4154	0.1014	-0.2099	
-1.001742	0.121146	0.030622	28.42	1.12	3.71	0.4097	0.0984	-0.2176	
-1.005402	0.132858	0.03172	29.19	-0.14	2.31	0.4113	0.0906	-0.2193	
-0.984418	0.071614	0.041724	18.97	-1.33	1.33	0.3968	0.1031	-0.2269	
-1.010892	-0.008784	0.086498	21.07	4.76	1.4	0.4042	0.0862	-0.2147	
-1.008208	-0.008052	0.014274	24.92	9.8	1.33	0.4127	0.0875	-0.2224	
-1.007232	0.074054	0.014884	46.48	4.13	2.52	0.4027	0.0938	-0.2223	
-0.98698	0.09028	0.025132	43.47	4.83	0.14	0.41	0.0829	-0.2255	
-0.984418	0.046726	0.050264	44.24	8.33	-1.33	0.4114	0.083	-0.2162	