Sensor string: E
Serial number: 1970-01-0000
Firmware version: 2.015
Hardware version: 2.2
Calibration quality: 5
ax	ay	az	gx	gy	gz	mx	my	mz

-0.84973	0.025254	0.53009	-0.28	0.7	0.28	-1.4952	-0.1977	-1.1019	Reference
-0.847534	0.026108	0.527162	-0.21	1.05	0.21	-1.4864	-0.1913	-1.0823	
-0.851438	0.024766	0.526308	0.14	1.47	0.14	-1.4819	-0.1943	-1.0825	
-0.856074	0.025376	0.524112	0.14	1.89	0	-1.4924	-0.1915	-1.0868	
-0.858514	0.020374	0.524356	0.21	1.82	-0.21	-1.4895	-0.1899	-1.0823	
-0.853512	0.024522	0.524966	0.77	1.96	-0.42	-1.4908	-0.1856	-1.0882	
-0.854366	0.020618	0.529724	0.42	2.17	-0.7	-1.4848	-0.193	-1.0915	
-0.852902	0.01952	0.536922	0	3.15	-0.84	-1.491	-0.1988	-1.0854	
-0.837042	0.02196	0.543632	0.14	4.41	-0.77	-1.4877	-0.1931	-1.0975	
-0.83875	0.02196	0.537898	-0.14	5.39	-0.63	-1.4833	-0.1899	-1.0869	
-0.847778	0.016348	0.53375	3.29	7.35	-0.35	-1.4862	-0.1931	-1.0975	
-0.829112	0.015982	0.527406	1.47	7.42	-0.07	-1.4817	-0.1974	-1.0931	
-0.862418	0.027206	0.500322	3.43	8.12	-0.28	-1.4786	-0.1885	-1.0945	
-0.901092	0.05185	0.477386	2.94	8.12	-0.21	-1.4789	-0.1927	-1.0825	
-0.90158	0.058316	0.475922	1.75	6.79	0.07	-1.4818	-0.1899	-1.0854	
-0.888648	0.044774	0.479216	0.77	5.11	0.63	-1.4788	-0.1988	-1.0917	
-0.874252	0.027572	0.487756	0.49	5.39	-0.07	-1.4744	-0.1956	-1.0811	
-0.88145	0.02379	0.487756	1.4	6.79	-1.19	-1.4774	-0.1927	-1.081	
-0.883524	0.021716	0.485438	1.82	6.37	-2.03	-1.4714	-0.1881	-1.0765	
-0.871934	0.02684	0.47458	2.52	5.11	-2.45	-1.4742	-0.2002	-1.0903	
-0.873642	0.036356	0.470432	2.73	3.85	-1.96	-1.4728	-0.1927	-1.0841	
-0.881938	0.034038	0.472628	2.1	3.01	-1.33	-1.4759	-0.1912	-1.0795	
-0.881328	0.032208	0.478118	0.98	1.54	-0.77	-1.4759	-0.2001	-1.0827	
-0.879376	0.028426	0.483364	0.84	0.63	-0.42	-1.4728	-0.1971	-1.0827	
-0.882426	0.027206	0.489464	-0.21	0.07	0	-1.4772	-0.1839	-1.0839	
-0.889746	0.025376	0.488	-0.42	0.07	0.35	-1.4712	-0.1868	-1.0856	
-0.889136	0.027816	0.486292	-0.63	0	0.42	-1.479	-0.1896	-1.0734	
-0.895846	0.02501	0.478484	-0.56	0.07	0.77	-1.4805	-0.1853	-1.0748	
-0.898408	0.027572	0.475068	0	0.56	0.84	-1.4805	-0.1853	-1.0748	
-0.887184	0.029402	0.473726	-1.19	0.07	0.56	-1.4668	-0.1956	-1.0813	
-0.879254	0.030134	0.477996	-2.24	0	0.91	-1.4789	-0.1927	-1.081	
-0.879132	0.027206	0.478972	-2.03	0.28	0.91	-1.4785	-0.1916	-1.0991	
-0.871202	0.020496	0.481534	-1.75	-0.35	0.77	-1.4593	-0.1999	-1.0785	
-0.865468	0.02135	0.489464	-1.82	-0.98	0.63	-1.4697	-0.1942	-1.0857	
-0.870836	0.020252	0.495442	-1.19	-1.12	0.35	-1.4759	-0.1852	-1.0749	
-0.870836	0.018788	0.497516	-0.91	-1.47	0.49	-1.4834	-0.1943	-1.084	
-0.873398	0.02196	0.49837	-0.77	-1.68	0.7	-1.476	-0.1896	-1.0735	
-0.881206	0.02318	0.497394	-0.07	-1.75	1.12	-1.4696	-0.1913	-1.0902	
-0.881694	0.025986	0.495076	-0.35	-2.24	1.47	-1.4744	-0.1897	-1.0765	
-0.87413	0.029402	0.492636	-0.7	-2.38	1.68	-1.4836	-0.1986	-1.0765	
-0.880962	0.030134	0.490806	-1.05	-2.38	2.17	-1.4786	-0.187	-1.0915	
-0.893406	0.025498	0.481168	-1.05	-2.03	2.45	-1.4711	-0.1958	-1.0948	
-0.89609	0.02928	0.471896	-0.91	-2.45	2.31	-1.465	-0.1854	-1.0902	
-0.906216	0.035746	0.463844	-1.12	-2.59	2.24	-1.4727	-0.1957	-1.0887	
-0.929274	0.03904	0.451522	-1.05	-2.59	2.59	-1.4727	-0.1913	-1.0871	
-0.929396	0.03538	0.444568	-1.47	-3.57	3.01	-1.4773	-0.1928	-1.0871	
-0.917806	0.03416	0.43676	-1.61	-4.55	3.08	-1.4818	-0.1959	-1.0901	
-0.926956	0.036112	0.420778	-1.12	-6.02	2.94	-1.4803	-0.1973	-1.0916	
-0.947452	0.035014	0.41053	-1.05	-7.07	3.36	-1.4698	-0.2	-1.0828	
-0.949648	0.038308	0.406504	-2.24	-8.89	3.08	-1.4759	-0.1971	-1.0827	
-0.953674	0.046116	0.405406	-2.24	-12.53	3.01	-1.4848	-0.1915	-1.0899	
-0.952332	0.049898	0.399672	-2.52	-15.96	3.57	-1.4833	-0.1958	-1.0885	
-0.949038	0.04636	0.399184	-2.8	-19.04	4.34	-1.4908	-0.1975	-1.093	
-0.944646	0.050874	0.395524	-3.36	-21.84	4.06	-1.4772	-0.1988	-1.0947	
-0.944036	0.053192	0.398574	-3.78	-25.06	3.15	-1.4937	-0.1902	-1.0973	
-0.940376	0.055876	0.392718	-3.57	-29.89	2.31	-1.4955	-0.1915	-1.0852	
-0.940864	0.055022	0.397964	-3.78	-33.81	1.47	-1.5028	-0.1933	-1.0987	
-0.934398	0.05063	0.392352	-4.48	-38.15	1.05	-1.5027	-0.1889	-1.1016	
-0.928298	0.051972	0.389302	-4.55	-44.59	0.98	-1.5133	-0.189	-1.1014	
-0.919514	0.049288	0.385032	-2.94	-48.72	0.7	-1.5134	-0.1875	-1.0984	
-0.907924	0.049044	0.390522	-5.25	-54.53	0.28	-1.521	-0.1949	-1.0984	
-0.888526	0.050874	0.393694	-4.97	-62.51	1.19	-1.5343	-0.1924	-1.1132	
-0.851072	0.046482	0.426024	-6.37	-67.34	1.19	-1.5481	-0.1969	-1.11	
-0.81496	0.037698	0.471896	-7.28	-70.49	0.84	-1.5629	-0.1958	-1.1263	
-0.792756	0.026352	0.521916	-8.26	-72.73	0.98	-1.575	-0.19	-1.126	
-0.769088	0.021594	0.535092	-6.23	-75.81	-0.14	-1.5856	-0.1916	-1.1258	
-0.702598	0.019886	0.555222	-6.79	-77.77	-0.7	-1.5962	-0.1977	-1.1302	
-0.641232	0.021228	0.580842	-5.74	-81.06	-1.33	-1.6202	-0.1937	-1.1418	
-0.600362	0.021594	0.604022	-4.83	-81.9	-1.33	-1.6277	-0.1834	-1.1399	
-0.573034	0.013664	0.630862	-4.69	-82.04	-1.68	-1.643	-0.1923	-1.1353	
-0.549732	0.005002	0.683444	-6.86	-81.83	-2.31	-1.6535	-0.1777	-1.1348	
-0.546682	0.000854	0.720532	-5.11	-83.3	-2.87	-1.6779	-0.1852	-1.1299	
-0.505446	0.006832	0.7381	-5.6	-84.21	-3.36	-1.6729	-0.187	-1.1527	
-0.446276	0.001708	0.772504	-5.46	-86.03	-2.52	-1.6991	-0.1899	-1.1342	
-0.398452	0.013298	0.787388	-5.25	-85.61	-0.84	-1.7062	-0.1859	-1.1566	
-0.353556	0.00671	0.81618	-6.79	-85.96	0.84	-1.7232	-0.1873	-1.1412	
-0.322324	-0.00061	0.860344	-6.65	-83.86	0.91	-1.7337	-0.192	-1.1486	
-0.306342	-0.008905999	0.879742	-4.83	-82.53	0.21	-1.7487	-0.1878	-1.1528	
-0.2684	-0.034282	0.90097	-5.6	-79.8	-0.91	-1.767	-0.1893	-1.1464	
-0.229604	-0.047824	0.90646	-4.41	-79.03	-1.47	-1.7854	-0.1893	-1.134	
-0.193736	-0.032818	0.921466	-3.78	-77.63	-1.19	-1.7899	-0.1939	-1.1431	
-0.165066	-0.021838	0.944524	-2.31	-74.13	-0.35	-1.8035	-0.1836	-1.1396	
-0.148718	-0.033794	0.977952	-2.45	-69.93	-0.49	-1.8202	-0.1897	-1.1379	
-0.145058	-0.030378	0.978074	0.7	-68.11	-1.61	-1.8231	-0.1839	-1.1422	
-0.139202	-0.013664	0.98942	-0.28	-65.38	-2.8	-1.8458	-0.1871	-1.1479	
-0.10858	-0.023424	1.009306	-0.35	-61.32	-3.5	-1.837	-0.1912	-1.1346	
-0.079544	-0.02623	1.023702	-1.75	-55.79	-3.15	-1.8584	-0.1987	-1.1267	
-0.066978	-0.009881999	1.040782	0.21	-54.74	-3.22	-1.8629	-0.1913	-1.125	
-0.063562	-0.001586	1.029802	-1.4	-50.96	-2.03	-1.8825	-0.1887	-1.1306	
-0.0549	-0.008174	1.021384	-1.68	-48.65	-1.05	-1.8901	-0.1842	-1.1244	
-0.047824	-0.019764	1.02053	-1.82	-46.9	-0.77	-1.8828	-0.1958	-1.1156	
-0.052948	-0.022692	1.017602	-1.54	-44.73	-1.12	-1.8949	-0.193	-1.1169	
-0.044652	-0.019276	1.014918	-2.03	-41.37	-1.61	-1.9038	-0.1977	-1.1274	
-0.028548	-0.026962	1.026386	-1.96	-41.16	-1.19	-1.9176	-0.1902	-1.1149	
-0.014396	-0.022692	1.017236	-0.56	-37.8	-0.7	-1.9209	-0.193	-1.1058	
-0.007929999	-0.017934	1.015772	-0.91	-35.77	-0.21	-1.9163	-0.193	-1.1089	
-0.001342	-0.019398	1.02602	0.35	-33.88	-0.35	-1.9283	-0.1947	-1.1147	
-0.007442	-0.018666	1.0492	0.56	-31.64	-0.56	-1.9375	-0.1976	-1.1086	
0.04209	-0.017568	1.063718	0.84	-31.92	0.07	-1.9343	-0.1874	-1.1145	
0.058194	-0.01098	1.075552	2.31	-25.13	-0.14	-1.9376	-0.1872	-1.1023	
0.069296	-0.006588	1.075674	2.1	-24.29	0.14	-1.9375	-0.1828	-1.1038	
0.077592	-0.0061	1.08214	1.68	-21.91	0.28	-1.9528	-0.1932	-1.0991	
0.089182	-0.004392	1.084458	1.12	-18.2	0.14	-1.9557	-0.1933	-1.1051	
0.097844	-0.002196	1.081164	0.49	-15.61	0.14	-1.9618	-0.1905	-1.1065	
0.102968	-0.005978	1.069818	0.42	-12.6	0.07	-1.9529	-0.202	-1.0978	
0.114314	-0.002928	1.061522	0.07	-10.01	-0.14	-1.9649	-0.1993	-1.1051	
0.112972	-0.00244	1.04981	0	-7.28	-0.07	-1.9589	-0.1977	-1.1021	
0.111264	-0.005002	1.041392	-0.28	-5.95	-0.14	-1.9634	-0.1919	-1.1019	
0.106628	-0.007808	1.037	-0.07	-3.71	-0.56	-1.9682	-0.1946	-1.0883	
0.098942	-0.010248	1.029436	0.21	-2.66	-0.7	-1.9546	-0.1989	-1.0886	
0.090158	-0.006466	1.027118	0.21	-0.91	-0.84	-1.9618	-0.1978	-1.1066	
0.078934	-0.006832	1.025044	1.19	0.35	-1.05	-1.9741	-0.1904	-1.0957	
0.068808	-0.005002	1.018822	0.91	1.89	-1.19	-1.968	-0.1933	-1.0958	
0.054412	-0.005978	1.016138	0.63	2.66	-0.98	-1.9591	-0.1945	-1.087	
0.041724	-0.006954	1.007476	0.84	4.34	-0.63	-1.9712	-0.1977	-1.0943	
0.041358	-0.010858	1.006134	0.77	5.18	-0.21	-1.9591	-0.1946	-1.0885	
0.032818	-0.012322	1.011624	1.26	6.16	0.35	-1.9634	-0.1964	-1.105	
0.027084	-0.000366	1.002474	1.61	7.21	0.35	-1.953	-0.1931	-1.0916	
0.0305	0.005124	1.006134	1.68	8.33	0.63	-1.9636	-0.1902	-1.0898	
0.03782	-0.000976	1.017968	1.4	9.52	1.26	-1.9619	-0.1918	-1.0989	
0.038674	0.001708	1.014796	1.33	10.64	0.91	-1.9559	-0.1962	-1.0991	
0.039284	0.003172	1.035902	0.77	10.78	0.98	-1.9576	-0.2065	-1.0963	
0.042578	0.001952	1.045052	1.05	12.39	0.77	-1.9453	-0.1976	-1.1009	
0.05307	0.002928	1.049566	0.91	14.14	0.35	-1.9453	-0.1931	-1.0947	
0.068564	0.002074	1.059448	1.12	15.96	-0.07	-1.9421	-0.1962	-1.107	
0.074176	-0.00061	1.067012	1.12	18.69	-0.42	-1.9513	-0.2006	-1.1038	
0.070272	-0.00671	1.070794	1.12	20.93	-0.84	-1.942	-0.1903	-1.1099	
0.07442	-0.004636	1.077992	1.68	25.2	-1.75	-1.9452	-0.1991	-1.1054	
0.074908	-0.005978	1.076894	1.96	29.05	-2.1	-1.9329	-0.1962	-1.1132	
0.073322	-0.002806	1.072502	2.17	32.41	-2.1	-1.9298	-0.1933	-1.1147	
0.059658	-0.001342	1.067988	1.89	35.91	-2.03	-1.9208	-0.1975	-1.1119	
0.037088	0	1.061278	1.75	39.76	-2.17	-1.9177	-0.2021	-1.1196	
0.019154	-0.002684	1.056032	1.68	43.05	-2.24	-1.9146	-0.1932	-1.118	
0.009393999	-0.000976	1.057496	1.61	46.62	-2.45	-1.9102	-0.202	-1.1167	
-0.011346	0	1.047614	1.75	50.54	-2.45	-1.8871	-0.1991	-1.1322	
-0.030866	-0.00488	1.042368	1.4	53.2	-2.17	-1.8888	-0.2048	-1.1248	
-0.048556	-0.008052	1.032974	1.75	56.49	-2.38	-1.8689	-0.1914	-1.1279	
-0.075274	-0.007198	1.020042	2.31	59.43	-2.59	-1.8719	-0.19	-1.1293	
-0.096868	-0.004148	1.006866	3.08	62.93	-2.73	-1.8523	-0.1957	-1.1283	
-0.117486	-0.003782	0.993324	3.08	66.08	-3.15	-1.8523	-0.2017	-1.1329	
-0.14823	-0.005856	0.97966	3.78	68.11	-3.36	-1.8431	-0.2061	-1.1392	
-0.174826	-0.006222	0.955992	4.97	71.33	-3.5	-1.817	-0.2017	-1.1518	
-0.198982	-0.00427	0.938302	5.18	73.43	-3.92	-1.8217	-0.2061	-1.1472	
-0.227408	-0.003294	0.915976	5.67	75.6	-4.34	-1.8019	-0.2	-1.149	
-0.263398	-0.004026	0.89304	6.72	77	-4.34	-1.7927	-0.2045	-1.1598	
-0.292312	-0.004148	0.870104	7.35	78.12	-4.62	-1.7748	-0.2085	-1.1436	
-0.324642	0.000854	0.851926	7.84	78.68	-4.83	-1.7642	-0.204	-1.1453	
-0.354898	0.002562	0.838384	7.63	79.17	-5.11	-1.758	-0.1966	-1.1452	
-0.387472	0.009393999	0.816424	7.98	80.22	-5.18	-1.7368	-0.2038	-1.1518	
-0.418094	0.012078	0.795806	7.14	80.99	-4.9	-1.7278	-0.2022	-1.1444	
-0.442494	0.006954	0.777262	7.21	81.9	-4.9	-1.7109	-0.2007	-1.1538	
-0.47458	0.005612	0.758718	6.65	82.95	-4.69	-1.6884	-0.1988	-1.1451	
-0.509106	0.007686	0.726144	6.65	83.79	-4.55	-1.693	-0.2211	-1.1499	
-0.544486	0.00976	0.7015	6.3	82.39	-4.06	-1.6701	-0.2002	-1.15	
-0.57279	0.00976	0.690032	5.81	81.27	-3.71	-1.6431	-0.2116	-1.1432	
-0.585234	0.01159	0.665754	5.88	82.04	-3.78	-1.637	-0.2116	-1.1433	
-0.608658	0.012078	0.647088	5.81	81.55	-3.64	-1.6222	-0.2215	-1.1286	
-0.639646	0.011956	0.620858	7.63	81.13	-3.22	-1.6235	-0.2083	-1.1344	
-0.659776	0.016836	0.606462	6.79	79.73	-3.29	-1.6023	-0.2081	-1.1333	
-0.677222	0.022692	0.587186	5.95	78.75	-3.64	-1.5964	-0.2154	-1.1305	
-0.724802	0.026108	0.557784	6.58	77.91	-3.08	-1.5783	-0.2151	-1.1233	
-0.795074	0.027816	0.514474	6.86	76.02	-2.94	-1.5692	-0.2121	-1.125	
-0.8174	0.02989	0.488854	6.58	75.18	-3.15	-1.5541	-0.2	-1.116	
-0.809104	0.037942	0.477386	5.95	71.05	-3.36	-1.5495	-0.2178	-1.127	
-0.826672	0.058926	0.449448	4.55	67.27	-3.08	-1.5209	-0.2144	-1.1138	
-0.8296	0.066856	0.43432	3.57	64.19	-1.96	-1.5118	-0.2053	-1.1093	
-0.845826	0.048312	0.41907	2.8	60.34	-0.7	-1.5028	-0.2036	-1.1019	
-0.879254	0.036478	0.401746	2.31	58.31	-1.26	-1.5092	-0.2094	-1.0898	
-0.904386	0.03721	0.377834	1.12	55.86	-1.96	-1.4925	-0.2152	-1.0963	
-0.900116	0.039406	0.37698	-0.56	53.76	-2.31	-1.488	-0.2017	-1.084	
-0.88938	0.049166	0.37576	0.77	48.79	-1.4	-1.4832	-0.2004	-1.0962	
-0.901092	0.05063	0.361486	1.96	47.11	-0.56	-1.4714	-0.2059	-1.0814	
-0.925492	0.050264	0.365268	2.03	46.06	0.21	-1.464	-0.2117	-1.0771	
-0.954772	0.050264	0.350994	0.91	45.29	0.77	-1.4593	-0.2029	-1.0816	
-0.942816	0.051118	0.352702	1.4	43.12	0.84	-1.4443	-0.207	-1.0744	
-0.920734	0.053314	0.35136	1.68	39.76	0.77	-1.437	-0.2127	-1.064	
-0.927078	0.053924	0.333792	3.15	39.41	0.91	-1.4264	-0.2022	-1.0595	
-0.927322	0.052582	0.329888	3.22	39.27	0.84	-1.434	-0.2051	-1.0579	
-0.94428	0.052582	0.329156	1.82	38.99	0.77	-1.4265	-0.2095	-1.0551	
-0.940498	0.048922	0.330376	1.96	38.78	0.49	-1.425	-0.208	-1.0551	
-0.935252	0.046848	0.324886	2.1	37.38	-0.07	-1.4207	-0.2048	-1.0431	
-0.926102	0.043676	0.32452	3.64	37.94	-0.77	-1.413	-0.2062	-1.0478	
-0.931348	0.040016	0.316834	4.2	39.69	-1.54	-1.3994	-0.2031	-1.0434	
-0.92903	0.043554	0.316468	4.13	41.37	-2.66	-1.3951	-0.2058	-1.0345	
-0.941474	0.044652	0.30561	5.25	44.03	-3.5	-1.3937	-0.2102	-1.0301	
-0.960872	0.049776	0.27877	7.98	46.69	-3.71	-1.3802	-0.2188	-1.0275	
-0.969778	0.044408	0.255224	7.98	48.79	-4.27	-1.3801	-0.2026	-1.0242	
-0.97722	0.039772	0.22753	10.99	51.52	-4.62	-1.379	-0.2156	-1.0093	
-0.998936	0.027206	0.202154	9.87	53.27	-5.32	-1.3653	-0.2095	-1.0079	
-1.018212	0.036966	0.169824	13.02	54.81	-6.86	-1.3577	-0.2064	-1.0065	
-1.00833	0.030012	0.151158	11.76	54.88	-8.47	-1.3611	-0.2091	-0.9884	
-0.992714	0.029524	0.144692	11.97	54.95	-9.17	-1.349	-0.2045	-0.9855	
-0.976366	0.019642	0.129076	16.24	52.29	-10.08	-1.3384	-0.2014	-0.9826	
-0.981612	0.01891	0.11834	20.72	48.65	-10.78	-1.3357	-0.2055	-0.9676	
-0.990518	0.02074	0.091134	21	41.16	-12.18	-1.3344	-0.2069	-0.9601	
-0.98637	0.016836	0.076616	18.76	37.17	-13.72	-1.3281	-0.2055	-0.9708	
-0.987468	0.01647	0.077348	17.99	35.63	-14.77	-1.3223	-0.2037	-0.9543	
-0.991738	0.015006	0.072102	11.83	30.59	-14.7	-1.3299	-0.2038	-0.9541	
-1.00589	0.001342	0.071858	2.1	31.15	-13.93	-1.3314	-0.2053	-0.9541	
-1.016626	0.000122	0.07515199	0.07	34.86	-13.58	-1.321	-0.2035	-0.9437	
-1.027972	0.005124	0.064294	1.12	35.28	-12.39	-1.3211	-0.205	-0.9422	
-1.056398	0.005002	0.052948	3.15	35.14	-10.99	-1.315	-0.1871	-0.9345	
-1.04615	-0.00366	0.031964	2.38	30.03	-8.47	-1.3106	-0.2032	-0.9348	
-1.060058	0.00061	0.007686	3.92	27.23	-6.72	-1.3122	-0.1972	-0.9256	
-1.051152	0.00122	-0.001586	1.68	24.43	-4.69	-1.2969	-0.1897	-0.9288	
-1.063962	-0.008905999	-0.030134	-0.49	25.83	-3.01	-1.3183	-0.1928	-0.9238999	
-1.071892	0.003416	-0.040504	-1.61	23.52	-2.1	-1.3001	-0.1881	-0.9181	
-1.046638	0.012932	-0.050264	-4.06	20.09	-1.68	-1.3064	-0.197	-0.9152	
-1.020896	0.006832	-0.057584	-7.56	16.66	-0.84	-1.2959	-0.1982	-0.9078	
-1.006134	0.002318	-0.066856	-6.16	17.43	0.07	-1.3002	-0.1911	-0.9182	
-1.001864	0.000244	-0.069174	-5.53	17.99	-0.14	-1.2959	-0.1863	-0.9031	
-1.009062	0.000366	-0.075762	-4.97	16.38	-1.26	-1.299	-0.1907	-0.9001	
-1.005402	-0.000976	-0.08845	-7.14	18.9	-2.66	-1.293	-0.1906	-0.8972	
-1.0248	-0.00366	-0.099186	-8.12	21.49	-3.01	-1.3066	-0.1907	-0.8969	
-1.036512	0.010126	-0.116754	-8.54	21.21	-3.08	-1.299	-0.1862	-0.8955	
-1.042612	0.008905999	-0.127124	-10.64	18.55	-1.82	-1.2914	-0.1892	-0.9017	
-1.044442	-0.001342	-0.13664	-11.69	17.29	-0.35	-1.2867	-0.1833	-0.9032	
-1.042246	-0.022814	-0.135786	-12.74	17.78	0.49	-1.2795	-0.1844	-0.8852	
-1.034438	-0.01891	-0.138958	-10.15	17.15	0.07	-1.2995	-0.1977	-0.8789999	
-1.026508	-0.018788	-0.14091	-11.13	14.56	-0.49	-1.3008	-0.186	-0.8818	
-1.02968	-0.027694	-0.148596	-9.94	14.35	0.14	-1.2783	-0.1752	-0.867	
-1.032974	-0.022692	-0.152256	-8.4	15.33	-0.14	-1.2948	-0.1889	-0.882	
-1.036268	-0.018544	-0.15067	-7.98	15.68	-0.35	-1.2857	-0.1798	-0.876	
-1.044808	-0.018056	-0.16043	-7.14	14.56	-0.63	-1.2769	-0.1885	-0.8687	
-1.04554	-0.02135	-0.168238	-5.88	13.02	-0.35	-1.2783	-0.1886	-0.8732	
-1.052982	-0.022326	-0.170068	-6.3	10.43	-0.42	-1.2752	-0.1856	-0.8748	
-1.05347	-0.02745	-0.17629	-5.67	8.82	-0.49	-1.2844	-0.1826	-0.8655	
-1.038586	-0.029158	-0.17568	-6.72	6.86	-0.21	-1.2784	-0.1721	-0.8593	
-1.02419	-0.031842	-0.176778	-5.88	6.44	0.49	-1.2755	-0.1794	-0.858	
-1.015772	-0.019886	-0.179218	-4.62	5.25	0.7	-1.2752	-0.1767	-0.8685	
-1.031388	-0.019032	-0.195566	-4.62	3.92	2.38	-1.2768	-0.1707	-0.8639	
-1.039318	-0.014518	-0.199348	-4.83	3.71	3.5	-1.2679	-0.1808	-0.8567	
-1.04554	-0.020252	-0.192882	-7.07	5.25	4.76	-1.2708	-0.175	-0.8626	
-1.025166	-0.013542	-0.198982	-7.84	4.97	5.04	-1.2679	-0.1838	-0.8613	
-1.029924	-0.014152	-0.19642	-7.35	3.78	5.81	-1.2723	-0.1751	-0.8625	
-1.05591	-0.001586	-0.204838	-5.74	1.96	6.23	-1.2786	-0.1868	-0.8551	
-1.064572	-0.002196	-0.210694	-7.14	0.21	6.72	-1.2739	-0.1839	-0.8612	
-1.048834	0.001952	-0.202642	-7.91	-0.7	7.14	-1.2799	-0.184	-0.8641	
-1.047126	0.00122	-0.19337	-8.4	-2.17	7.42	-1.2844	-0.1781	-0.8639	
-1.034316	-0.005734	-0.190198	-8.75	-3.85	7.56	-1.2739	-0.1824	-0.8596	
-1.03273	-0.007076	-0.183244	-7.14	-4.41	7.56	-1.2768	-0.1781	-0.867	
-1.034316	0.002318	-0.182634	-5.04	-5.6	7.07	-1.2784	-0.1869	-0.8641	
-1.040538	0.01403	-0.176046	-4.06	-6.58	6.23	-1.2861	-0.1825	-0.8594	
-1.034072	0.01647	-0.180438	-4.83	-8.05	5.6	-1.2784	-0.1885	-0.8672	
-1.04981	0.015738	-0.178242	-3.92	-7.56	5.04	-1.2723	-0.181	-0.8657	
-1.054568	0.015494	-0.17629	-3.92	-9.17	4.55	-1.2877	-0.1898	-0.8549	
-1.053958	0.024522	-0.177632	-2.73	-12.04	3.71	-1.2922	-0.184	-0.8548	
-1.054446	0.035624	-0.171166	-2.24	-14.07	3.22	-1.2768	-0.1841	-0.8717	
-1.047736	0.037088	-0.166896	-2.31	-15.26	3.36	-1.274	-0.1928	-0.8628	
-1.041636	0.040626	-0.159942	-1.89	-15.89	3.22	-1.2766	-0.1842	-0.8777	
-1.029802	0.04636	-0.153232	-1.19	-17.01	2.94	-1.2783	-0.196	-0.8779	
-1.03578	0.045506	-0.145668	-1.12	-18.13	3.08	-1.2903	-0.1947	-0.8807	
-1.02602	0.057706	-0.13115	-1.12	-18.76	2.45	-1.2813	-0.1961	-0.8779	
-1.023702	0.060878	-0.113948	-2.03	-18.34	1.54	-1.2722	-0.1989	-0.8796	
-1.022482	0.066856	-0.105652	-2.24	-16.94	0.42	-1.2946	-0.189	-0.8896	
-1.012234	0.07259	-0.09747799	-2.31	-16.31	-0.98	-1.2977	-0.1935	-0.8911	
-1.00223	0.067954	-0.093208	-2.52	-17.57	-2.17	-1.2902	-0.1949	-0.8882	
-1.01382	0.05063	-0.104066	-1.82	-19.39	-3.57	-1.2823	-0.198	-0.9051	
-1.035414	0.047824	-0.112362	0.21	-19.6	-5.53	-1.2885	-0.1801	-0.891	
-1.04249	0.045506	-0.102846	0.63	-21.35	-7.35	-1.2915	-0.1936	-0.9003	
-1.06079	0.043188	-0.09516	0.63	-23.8	-8.12	-1.2976	-0.1876	-0.8925	
-1.067256	0.04148	-0.091134	1.19	-26.74	-8.4	-1.2943	-0.1967	-0.9093	
-1.068476	0.035624	-0.076128	2.17	-30.45	-8.12	-1.3003	-0.1805	-0.9059	
-1.078358	0.035502	-0.072834	3.43	-32.97	-7.35	-1.3019	-0.179	-0.9013	
-1.074576	0.041358	-0.059048	4.2	-35	-6.16	-1.3092	-0.1927	-0.9226	
-1.061156	0.034526	-0.038186	2.17	-36.54	-4.62	-1.3045	-0.1824	-0.924	
-1.041392	0.024644	-0.028792	0.07	-38.15	-3.08	-1.312	-0.1855	-0.933	
-1.038708	0.021228	-0.018422	-1.61	-39.06	-1.96	-1.3087	-0.1857	-0.9450999	
-1.012356	0.015982	0.002196	-5.81	-41.58	-1.47	-1.3102	-0.1887	-0.9467	
-1.010038	0.009272	0.01037	-9.03	-41.58	-0.14	-1.3072	-0.1783	-0.942	
-1.021018	0.007808	0.027938	-13.02	-41.16	1.05	-1.3238	-0.1949	-0.9541	
-1.024312	-0.00305	0.023424	-13.65	-42.21	2.52	-1.3253	-0.1904	-0.9493999	
-1.03334	-0.022448	0.04941	-13.79	-40.46	4.34	-1.3251	-0.1861	-0.9584	
-1.036268	-0.024522	0.061366	-11.76	-39.83	5.53	-1.3249	-0.1774	-0.9643	
-1.031876	-0.015982	0.083814	-12.74	-39.2	5.32	-1.3416	-0.1775	-0.964	
-1.021628	-0.016226	0.102724	-11.9	-39.13	5.81	-1.3519	-0.1854	-0.9851	
-1.023214	-0.015006	0.108946	-10.36	-38.5	6.65	-1.3502	-0.1795	-0.988	
-1.018212	-0.010004	0.1159	-9.94	-38.36	6.86	-1.3516	-0.1782	-0.994	
-1.013332	-0.005978	0.116022	-9.73	-38.99	6.51	-1.3427	-0.1838	-0.9868	
-1.0187	-0.000854	0.128832	-9.66	-39.34	5.81	-1.3562	-0.1916	-0.9987	
-1.018212	-0.001708	0.140788	-9.8	-41.09	5.11	-1.3593	-0.1781	-0.9894	
-1.015284	0.002196	0.166286	-9.31	-43.82	4.06	-1.3651	-0.1814	-1.0059	
-1.007476	-0.000732	0.184952	-8.26	-45.64	3.57	-1.371	-0.1787	-1.0133	
-1.000156	-0.002074	0.194956	-7.28	-46.76	3.57	-1.371	-0.1787	-1.0133	
-0.988688	-0.0061	0.222894	-7.14	-47.04	3.71	-1.3894	-0.1846	-1.0055	
-0.983076	-0.0061	0.261568	-5.04	-48.3	4.62	-1.3905	-0.179	-1.0205	
-0.957578	0.000976	0.273524	-2.38	-49.56	5.25	-1.4027	-0.185	-1.0204	
-0.945988	0.00854	0.298656	-2.73	-48.72	5.6	-1.3978	-0.1824	-1.0401	
-0.937204	0.009028	0.305732	-1.68	-48.37	5.74	-1.4114	-0.1959	-1.0476	
-0.912194	0.013786	0.32574	-0.49	-46.97	5.88	-1.4282	-0.1826	-1.035	
-0.888892	0.02013	0.358436	-1.33	-48.02	5.46	-1.4218	-0.1799	-1.0516	
-0.860954	0.017446	0.382226	-1.96	-48.44	4.62	-1.4293	-0.1815	-1.0561	
-0.82228	0.012688	0.421754	-1.75	-48.23	4.06	-1.4351	-0.1832	-1.0696	
-0.802028	0.002806	0.451522	-0.21	-47.04	3.36	-1.4427	-0.1863	-1.0695	
-0.791536	0.005612	0.493368	1.61	-44.8	1.82	-1.4443	-0.1981	-1.0697	
-0.797636	0.02562	0.508008	1.89	-43.54	0.35	-1.4639	-0.1909	-1.0722	
-0.786046	0.03294	0.5368	0.84	-42.98	-0.07	-1.4624	-0.2013	-1.0769	
-0.779458	0.038552	0.548634	2.45	-40.67	0	-1.4715	-0.1895	-1.072	
-0.773114	0.041236	0.562054	2.66	-39.13	0.14	-1.4711	-0.1869	-1.0886	
-0.773724	0.043554	0.569374	2.45	-37.17	0.49	-1.491	-0.1869	-1.0807	
-0.781776	0.040504	0.576572	1.96	-34.86	0.63	-1.4725	-0.1885	-1.0962	
-0.787754	0.03721	0.575474	1.89	-33.32	0.77	-1.4893	-0.2019	-1.0946	
-0.789218	0.037576	0.573522	2.24	-32.48	0.77	-1.4985	-0.19	-1.0821	
-0.787144	0.045018	0.575352	2.38	-31.57	0.49	-1.5103	-0.1949	-1.1046	
-0.785558	0.045506	0.573034	1.75	-31.36	0.63	-1.5057	-0.1875	-1.1046	
-0.79422	0.04331	0.568886	1.96	-31.36	1.05	-1.506	-0.2021	-1.0958	
-0.790072	0.03782	0.571204	1.61	-31.64	1.05	-1.5072	-0.1994	-1.1078	
-0.782874	0.043188	0.576328	2.03	-31.71	0.63	-1.5086	-0.204	-1.1169	
-0.789218	0.048312	0.575596	1.75	-31.5	0.77	-1.5209	-0.1965	-1.1075	
-0.79544	0.0488	0.566934	2.03	-32.27	1.68	-1.5239	-0.1906	-1.1058	
-0.798734	0.04453	0.570228	2.24	-32.83	2.66	-1.5253	-0.2041	-1.1151	
-0.79971	0.050264	0.566446	3.01	-34.02	2.94	-1.5361	-0.1981	-1.1057	
-0.799588	0.056364	0.559004	2.52	-35.35	3.15	-1.5372	-0.1999	-1.1238	
-0.796294	0.061122	0.548878	2.87	-37.03	3.43	-1.5465	-0.2088	-1.1193	
-0.789096	0.058682	0.547902	1.26	-39.97	3.64	-1.5615	-0.2016	-1.1234	
-0.782874	0.055998	0.546072	0.98	-42.7	3.64	-1.5508	-0.2016	-1.1266	
-0.78263	0.057096	0.543754	1.4	-45.85	3.22	-1.5691	-0.2077	-1.1264	
-0.771284	0.061122	0.552416	1.47	-49.28	2.73	-1.5825	-0.1947	-1.1335	
-0.771772	0.059536	0.569496	1.12	-52.15	2.59	-1.5888	-0.2005	-1.1244	
-0.766648	0.065514	0.586942	1.12	-54.88	3.29	-1.5884	-0.2067	-1.1456	
-0.74603	0.062708	0.604876	0.49	-56.98	3.43	-1.5931	-0.2052	-1.138	
-0.707844	0.061244	0.61549	0.14	-59.71	3.22	-1.6005	-0.198	-1.1437	
-0.666364	0.065392	0.650504	0.42	-60.48	2.8	-1.6235	-0.2083	-1.1329	
-0.655506	0.06405	0.666852	1.54	-59.99	2.8	-1.6235	-0.2113	-1.1375	
-0.638792	0.069174	0.681858	2.03	-59.43	2.24	-1.6308	-0.2116	-1.1479	
-0.609024	0.066612	0.69052	1.47	-60.06	1.96	-1.6566	-0.2103	-1.1459	
-0.571204	0.078568	0.707844	1.61	-59.01	2.24	-1.6595	-0.2076	-1.1549	
-0.535458	0.083082	0.73627	1.89	-56.14	2.94	-1.6627	-0.2134	-1.1489	
-0.536068	0.088328	0.761158	0.84	-53.62	3.15	-1.6778	-0.2047	-1.1469	
-0.54168	0.097112	0.76067	-1.05	-53.83	3.22	-1.6976	-0.2122	-1.1437	
-0.49715	0.076738	0.78873	-4.97	-55.86	3.29	-1.7005	-0.2182	-1.1513	
-0.476532	0.065514	0.806786	-5.32	-56.07	2.8	-1.7051	-0.2212	-1.1512	
-0.463112	0.054168	0.813618	-4.41	-57.54	1.89	-1.7217	-0.2185	-1.1554	
-0.43249	0.04819	0.823378	-4.27	-58.94	1.05	-1.7308	-0.2052	-1.1489	
-0.403698	0.048556	0.843386	-3.85	-59.57	0.07	-1.7444	-0.2202	-1.1565	
-0.379298	0.035624	0.854488	-3.5	-60.2	-0.21	-1.7506	-0.2142	-1.1472	
-0.358558	0.029646	0.850218	-1.75	-62.79	-1.19	-1.755	-0.2069	-1.1485	
-0.32391	0.03538	0.874252	-2.24	-60.9	-2.31	-1.7672	-0.207	-1.1468	
-0.294752	0.03965	0.89304	-0.56	-61.95	-3.57	-1.7869	-0.2102	-1.1495	
-0.27511	0.037332	0.917928	-2.1	-61.46	-3.64	-1.787	-0.213	-1.1435	
-0.240828	0.045018	0.945988	-2.31	-61.88	-2.87	-1.8051	-0.2118	-1.1491	
-0.211792	0.044896	0.975878	-1.26	-59.71	-2.73	-1.8098	-0.2102	-1.14	
-0.185684	0.037454	0.997228	-1.4	-56.49	-2.38	-1.8234	-0.2148	-1.1428	
-0.1647	0.041236	1.004548	0.28	-56	-2.31	-1.8262	-0.2076	-1.1502	
-0.156038	0.041846	1.009794	-0.35	-53.97	-1.82	-1.8429	-0.2182	-1.1531	
-0.146034	0.039528	1.010282	0.07	-51.1	-1.61	-1.8509	-0.212	-1.1317	
-0.121512	0.039406	1.019554	-0.63	-49	-1.47	-1.8587	-0.2133	-1.121	
-0.09552599	0.04209	1.019188	-0.84	-46.27	-1.4	-1.8811	-0.2168	-1.1357	
-0.079178	0.041968	1.031876	-1.33	-42.63	-0.91	-1.869	-0.2196	-1.1375	
-0.065148	0.042578	1.02602	-1.26	-39.41	-0.7	-1.8722	-0.218	-1.1298	
-0.045384	0.03782	1.032608	-2.38	-37.1	-0.7	-1.8905	-0.2077	-1.1187	
-0.028426	0.038918	1.037366	-2.38	-33.39	-1.05	-1.8842	-0.2093	-1.1295	
-0.01708	0.041236	1.046028	-3.15	-31.78	-1.33	-1.8933	-0.2124	-1.1339	
-0.015494	0.038674	1.059936	-3.92	-29.89	-1.54	-1.8964	-0.2124	-1.1293	
-0.021472	0.038308	1.052494	-3.64	-27.23	-0.98	-1.8996	-0.2152	-1.1202	
-0.025498	0.038186	1.059326	-4.34	-25.34	-0.14	-1.9148	-0.2212	-1.12	
-0.00915	0.031476	1.07177	-5.04	-22.12	0	-1.9239	-0.2228	-1.1214	
0.00061	0.031964	1.077138	-5.18	-19.74	0.28	-1.9147	-0.2035	-1.1182	
0.000976	0.030744	1.071404	-4.41	-18.13	0.56	-1.9195	-0.2092	-1.1061	
0.002684	0.023668	1.06689	-3.85	-15.05	0.91	-1.9119	-0.2166	-1.1124	
-0.000488	0.021594	1.057008	-3.15	-13.09	0.84	-1.9224	-0.2109	-1.1167	
-0.003782	0.023302	1.065914	-3.01	-10.43	0.84	-1.9208	-0.2035	-1.1166	
-0.006832	0.02196	1.056886	-2.31	-7.84	0.84	-1.9238	-0.2036	-1.1195	
0.001098	0.023912	1.05408	-1.96	-5.74	0.49	-1.9284	-0.208	-1.118	
0.002684	0.027084	1.052006	-1.33	-3.5	0.35	-1.9209	-0.2138	-1.1152	
0.000488	0.026962	1.050542	-1.12	-0.84	0.07	-1.9269	-0.2095	-1.115	
0.00427	0.028182	1.048712	-0.56	1.33	-0.35	-1.9314	-0.2021	-1.1148	
0.005246	0.02684	1.045296	-0.42	3.43	-0.84	-1.924	-0.2078	-1.109	
-0.00061	0.025498	1.042612	-0.21	5.67	-1.05	-1.9286	-0.2168	-1.1121	
-0.00183	0.030134	1.039562	0.49	7.84	-1.05	-1.9313	-0.2008	-1.1208	
-0.005124	0.037576	1.042002	0.7	9.31	-1.33	-1.9238	-0.2021	-1.115	
-0.009881999	0.036356	1.037	0.63	11.9	-1.54	-1.9207	-0.2066	-1.1212	
-0.014518	0.032086	1.038952	0.42	13.23	-1.68	-1.9315	-0.205	-1.1134	
-0.018788	0.033062	1.047858	0.7	15.68	-2.03	-1.9254	-0.2079	-1.1135	
-0.027816	0.034404	1.057374	0.35	17.36	-2.03	-1.9253	-0.208	-1.1181	
-0.030866	0.03843	1.063108	0.42	20.23	-2.24	-1.9116	-0.1976	-1.1197	
-0.034038	0.03599	1.061156	0.28	22.33	-2.1	-1.9163	-0.2019	-1.1106	
-0.037454	0.03416	1.061034	0.28	25.69	-2.1	-1.9101	-0.2094	-1.1214	
-0.04148	0.03111	1.046882	0.28	28.77	-2.03	-1.9056	-0.2138	-1.1216	
-0.05429	0.030866	1.041026	0.49	31.08	-2.1	-1.9026	-0.2004	-1.1138	
-0.065758	0.034404	1.032364	0	34.58	-2.03	-1.8904	-0.2078	-1.1248	
-0.082106	0.03233	1.023824	-0.21	36.68	-1.75	-1.8934	-0.2212	-1.1295	
-0.0976	0.030378	1.012966	-0.14	38.92	-1.68	-1.8858	-0.2167	-1.128	
-0.110898	0.029158	1.008208	-0.14	41.02	-1.68	-1.872	-0.2093	-1.1342	
-0.134078	0.025132	0.996618	0.35	42.98	-1.47	-1.8781	-0.2138	-1.1372	
-0.152256	0.022692	0.989908	0.49	45.36	-1.54	-1.8675	-0.2166	-1.136	
-0.172752	0.024278	0.973804	1.47	46.48	-1.89	-1.8508	-0.2031	-1.1315	
-0.196298	0.028182	0.967704	1.89	48.02	-1.89	-1.8505	-0.1989	-1.145	
-0.216062	0.025254	0.952698	1.96	50.75	-2.17	-1.8341	-0.2119	-1.135	
-0.240706	0.023058	0.943426	2.31	51.24	-2.45	-1.8249	-0.2149	-1.1458	
-0.25986	0.018056	0.935008	3.22	52.64	-2.94	-1.8263	-0.2091	-1.1472	
-0.282796	0.018666	0.92354	3.64	53.69	-3.36	-1.8097	-0.2073	-1.1414	
-0.30256	0.025986	0.911096	4.2	55.09	-3.64	-1.7853	-0.2147	-1.1541	
-0.327936	0.027572	0.898042	4.2	55.23	-3.92	-1.7871	-0.2115	-1.1404	
-0.352946	0.02562	0.884378	4.2	55.93	-4.13	-1.7765	-0.2248	-1.1454	
-0.37698	0.034526	0.866322	4.34	56.35	-4.48	-1.7704	-0.2143	-1.1423	
-0.393206	0.033062	0.851438	4.13	56.35	-4.55	-1.7567	-0.2202	-1.1487	
-0.417728	0.031354	0.842776	3.36	56	-4.41	-1.7429	-0.2187	-1.155	
-0.435296	0.026474	0.837408	2.8	56.28	-4.41	-1.7246	-0.2052	-1.1521	
-0.451034	0.027572	0.831674	2.45	55.86	-4.41	-1.7277	-0.2082	-1.1536	
-0.46177	0.031232	0.818376	2.94	55.09	-4.34	-1.7277	-0.2112	-1.1536	
-0.476654	0.03111	0.810202	2.8	55.02	-4.13	-1.7066	-0.2168	-1.1526	
-0.49349	0.029402	0.80642	2.38	55.09	-4.13	-1.7033	-0.2051	-1.1585	
-0.505324	0.027084	0.80398	2.31	54.88	-4.2	-1.6913	-0.2064	-1.1527	
-0.511058	0.02562	0.807762	2.24	54.95	-4.41	-1.6838	-0.2077	-1.1484	
-0.527284	0.03233	0.795806	2.73	54.95	-4.41	-1.6718	-0.2104	-1.1426	
-0.542534	0.035258	0.787022	2.31	55.44	-4.2	-1.6597	-0.2148	-1.1475	
-0.550708	0.032452	0.779092	2.31	56.07	-4.13	-1.6627	-0.2194	-1.152	
-0.554734	0.030866	0.765306	2.59	56.84	-3.78	-1.6537	-0.2027	-1.1353	
-0.571814	0.03172	0.750056	2.38	57.26	-3.57	-1.634	-0.216	-1.1434	
-0.59414	0.033916	0.732366	2.1	57.89	-3.36	-1.6204	-0.2158	-1.1407	
-0.60878	0.033794	0.715042	1.68	57.96	-3.29	-1.6142	-0.2114	-1.1467	
-0.62342	0.030622	0.702232	1.75	58.66	-3.29	-1.6162	-0.2155	-1.1256	
-0.642086	0.03233	0.681126	2.45	58.17	-3.5	-1.5902	-0.2035	-1.132	
-0.66124	0.032818	0.66551	2.31	58.38	-3.78	-1.5888	-0.2094	-1.1291	
-0.677222	0.029402	0.64843	2.38	58.24	-3.71	-1.5797	-0.2048	-1.1231	
-0.691496	0.030134	0.635498	1.82	58.17	-3.64	-1.5677	-0.2046	-1.1203	
-0.70516	0.027816	0.623054	2.17	56.77	-3.71	-1.5507	-0.1958	-1.1295	
-0.72163	0.021228	0.609512	1.82	56.91	-3.64	-1.5602	-0.203	-1.1159	
-0.758108	0.01708	0.57828	2.17	56.98	-3.22	-1.5406	-0.2042	-1.1103	
-0.79544	0.0183	0.541802	2.1	56.28	-2.94	-1.5358	-0.2044	-1.1239	
-0.85156	0.016714	0.494832	2.03	55.3	-2.73	-1.5226	-0.2127	-1.1017	
-0.894016	0.019886	0.450058	1.19	53.13	-2.87	-1.5073	-0.2008	-1.1033	
-0.88267	0.03599	0.436638	0.28	48.72	-2.52	-1.5074	-0.2067	-1.1049	
-0.888404	0.040748	0.417972	0	44.59	-1.05	-1.5014	-0.1991	-1.0958	
-0.894748	0.037576	0.40687	-1.61	42.42	0.14	-1.506	-0.2006	-1.0957	
-0.881206	0.030988	0.398452	-1.75	38.5	1.19	-1.4983	-0.1917	-1.0957	
-0.870592	0.029646	0.395768	-1.68	36.26	1.96	-1.4895	-0.2018	-1.0855	
-0.887916	0.031598	0.381738	-0.7	34.37	2.59	-1.4684	-0.2044	-1.0814	
-0.900116	0.030622	0.37759	-1.4	32.06	3.01	-1.4759	-0.2001	-1.0827	
-0.90707	0.02684	0.381494	0.42	29.75	3.36	-1.4699	-0.2059	-1.0814	
-0.928542	0.031842	0.381982	1.4	27.51	3.15	-1.4671	-0.2042	-1.0694	
-0.942084	0.039528	0.372466	1.96	25.41	2.73	-1.4609	-0.2013	-1.0755	
-0.939766	0.043554	0.381006	2.24	22.75	2.8	-1.4518	-0.1982	-1.0741	
-0.968314	0.055998	0.376492	3.01	20.51	2.24	-1.4626	-0.2071	-1.0695	
-0.958188	0.053558	0.37576	1.61	20.93	3.08	-1.4519	-0.1982	-1.0695	
-0.953796	0.05612	0.375516	3.29	19.67	3.71	-1.4535	-0.207	-1.0712	
-0.955748	0.047824	0.37393	2.31	19.39	4.13	-1.4491	-0.2084	-1.0652	
-0.95038	0.055632	0.374418	2.87	17.85	3.5	-1.4339	-0.2141	-1.0656	
-0.94123	0.063684	0.380152	2.1	16.8	2.73	-1.4372	-0.208	-1.0534	
-0.92598	0.066978	0.381372	2.31	16.45	2.45	-1.4476	-0.2068	-1.0622	
-0.91683	0.063318	0.38552	2.31	17.36	2.31	-1.4354	-0.1993	-1.0593	
-0.908046	0.062952	0.386618	3.57	19.18	2.17	-1.4309	-0.2171	-1.0657	
-0.899872	0.061488	0.388082	3.43	19.39	1.47	-1.4371	-0.2081	-1.0564	
-0.892796	0.061	0.388448	4.34	21.14	0.63	-1.4311	-0.2109	-1.052	
-0.890966	0.059048	0.391742	5.11	22.96	-0.28	-1.4311	-0.2154	-1.0551	
-0.88633	0.054168	0.395768	5.25	24.15	-1.12	-1.4297	-0.2167	-1.0491	
-0.89365	0.051728	0.402356	6.09	26.6	-1.89	-1.4072	-0.2194	-1.0421	
-0.892552	0.054656	0.404186	6.37	28.28	-2.45	-1.4115	-0.2121	-1.0479	
-0.897188	0.057462	0.400892	6.58	29.89	-2.66	-1.4114	-0.2123	-1.0555	
-0.916342	0.047824	0.386008	6.51	32.76	-2.59	-1.4057	-0.2149	-1.039	
-0.91439	0.047092	0.374052	7.49	34.16	-2.94	-1.3938	-0.2145	-1.0256	
-0.907924	0.04758	0.369172	8.54	35.7	-3.43	-1.3952	-0.2102	-1.0316	
-0.90646	0.046848	0.3477	10.15	37.1	-3.71	-1.3968	-0.2205	-1.0317	
-0.9089	0.051728	0.328668	11.13	37.94	-3.57	-1.3969	-0.21	-1.0194	
-0.91256	0.064172	0.294996	12.25	38.64	-3.71	-1.3831	-0.2085	-1.0272	
-0.926834	0.069662	0.271206	11.9	40.39	-3.99	-1.3728	-0.2141	-1.0139	
-0.95831	0.066124	0.242658	10.5	40.95	-3.99	-1.3774	-0.2096	-1.0092	
-0.993202	0.060268	0.217404	9.31	40.11	-4.76	-1.3731	-0.2183	-1.0019	
-0.99796	0.053192	0.206058	6.65	37.38	-5.67	-1.3594	-0.2212	-1.0037	
-1.00223	0.05124	0.188734	5.88	35.56	-6.3	-1.3716	-0.2123	-0.9958	
-0.999912	0.05063	0.17873	6.23	33.46	-6.79	-1.3522	-0.2208	-0.9872	
-1.006622	0.059414	0.17141	6.58	31.43	-6.65	-1.3523	-0.2207	-0.9812	
-1.014186	0.05612	0.155672	6.02	30.52	-6.16	-1.3489	-0.2165	-0.9963	
-1.017236	0.047702	0.137494	6.09	29.33	-5.18	-1.3508	-0.2117	-0.975	
-1.019798	0.043066	0.12139	6.16	29.33	-4.9	-1.3371	-0.2087	-0.9782	
-1.017602	0.04392	0.114558	7.21	29.19	-5.18	-1.3296	-0.2205	-0.9816	
-1.013698	0.044896	0.09552599	8.4	27.16	-5.53	-1.3343	-0.2159	-0.9679	
-1.023214	0.052216	0.080886	8.89	26.81	-5.25	-1.3329	-0.2143	-0.9633	
-1.017846	0.05307	0.072834	8.4	25.41	-4.97	-1.333	-0.2172	-0.9603	
-1.017846	0.049166	0.072834	7.91	25.34	-4.69	-1.3268	-0.2112	-0.9604	
-1.019066	0.0427	0.060268	7.28	24.78	-4.76	-1.3376	-0.2156	-0.9542	
-1.003816	0.03843	0.060024	7.7	24.29	-4.69	-1.3103	-0.2199	-0.9578	
-1.01443	0.038308	0.049288	7.63	23.38	-5.11	-1.3301	-0.2125	-0.9497	
-1.006988	0.036844	0.049898	7.56	22.54	-5.46	-1.3134	-0.2154	-0.9531	
-1.013576	0.0366	0.033184	7.7	23.38	-5.46	-1.3183	-0.2166	-0.9349	
-1.011746	0.038552	0.03233	7.21	22.82	-4.83	-1.3165	-0.2079	-0.9424	
-0.996862	0.052094	0.036356	5.39	23.8	-4.48	-1.3213	-0.2121	-0.9317999	
-1.004914	0.053558	0.020984	4.76	23.8	-4.06	-1.3122	-0.2091	-0.9304	
-1.020774	0.047946	0.002928	3.15	25.27	-3.22	-1.3107	-0.2151	-0.9366	
-1.026386	0.044164	-0.011956	2.1	24.5	-2.8	-1.3107	-0.2032	-0.9303	
-1.038952	0.037454	-0.025986	0.63	23.17	-2.31	-1.3018	-0.2148	-0.9231	
-1.037122	0.03172	-0.038308	-1.61	21.35	-2.03	-1.3077	-0.2105	-0.932	
-1.058106	0.041602	-0.057462	-1.75	19.67	-2.59	-1.3047	-0.209	-0.9274999	
-1.075186	0.040382	-0.07076	-2.8	17.92	-2.31	-1.3066	-0.2116	-0.9109	
-1.084702	0.038064	-0.080764	-5.95	14.98	-2.31	-1.2928	-0.2042	-0.9125	
-1.081896	0.025376	-0.078812	-6.58	13.16	-2.38	-1.2852	-0.2057	-0.9187	
-1.06445	0.020984	-0.072834	-8.12	10.64	-3.01	-1.2974	-0.2176	-0.9172	
-1.042856	0.01708	-0.072102	-8.19	9.1	-3.78	-1.2991	-0.207	-0.9034	
-1.03212	0.011102	-0.066124	-7.77	9.66	-3.71	-1.2977	-0.2084	-0.9004	
-1.01199	0.005734	-0.074298	-7.42	9.73	-3.57	-1.2991	-0.21	-0.9065	
-1.012234	0.004026	-0.082716	-6.65	9.45	-3.64	-1.2975	-0.2041	-0.9064	
-1.011746	-0.004026	-0.075518	-7	10.99	-3.36	-1.308	-0.2013	-0.9092	
-0.995642	0	-0.073566	-6.37	11.34	-3.5	-1.3005	-0.1922	-0.9001	
-0.987834	-0.008052	-0.074542	-5.67	12.53	-3.5	-1.3067	-0.1951	-0.8955	
-0.990274	-0.008905999	-0.09211	-3.85	13.3	-3.64	-1.2899	-0.1966	-0.9064	
-1.024678	-0.009393999	-0.097722	-2.38	14.28	-3.57	-1.2856	-0.1918	-0.8868	
-1.04615	-0.006222	-0.102236	-3.15	13.58	-3.57	-1.2928	-0.1923	-0.9078	
-1.048102	-0.008784	-0.10126	-3.36	13.58	-3.29	-1.2932	-0.1949	-0.8912	
-1.046516	-0.004636	-0.107238	-2.94	12.95	-2.73	-1.2827	-0.2007	-0.8885	
-1.047492	-0.005856	-0.10919	-2.59	11.55	-2.59	-1.2782	-0.2021	-0.8871	
-1.04005	-0.004514	-0.108458	-2.17	9.52	-2.38	-1.2948	-0.1963	-0.8836	
-1.036268	-0.00488	-0.105042	-2.66	8.12	-2.1	-1.2872	-0.2052	-0.89	
-1.033096	-0.011712	-0.101016	-3.64	7.77	-1.33	-1.2827	-0.1917	-0.8807999	
-1.018456	-0.007686	-0.10431	-3.15	7.7	-0.56	-1.2888	-0.2066	-0.887	
-1.028094	-0.00183	-0.105774	-2.45	7.21	0.42	-1.2843	-0.1991	-0.8794	
-1.025044	-0.002928	-0.123098	-3.01	6.79	1.68	-1.2887	-0.1978	-0.8868	
-1.047492	-0.001342	-0.132614	-2.94	7.35	2.59	-1.2721	-0.1871	-0.8794	
-1.058106	0.001098	-0.14152	-3.71	5.53	3.36	-1.2784	-0.2019	-0.8765	
-1.04493	0.005612	-0.149572	-4.27	4.83	4.06	-1.275	-0.1918	-0.8885	
-1.040538	-0.000122	-0.153354	-3.92	3.85	4.97	-1.2753	-0.196	-0.8765	
-1.041148	0.004026	-0.157868	-2.66	2.73	4.97	-1.289	-0.1916	-0.8716	
-1.029924	0.011956	-0.157868	-3.15	2.03	4.2	-1.2798	-0.1931	-0.8778	
-1.026874	0.01586	-0.15616	-3.71	1.19	3.92	-1.2815	-0.1958	-0.8658	
-1.031632	0.017812	-0.16104	-2.94	0.14	4.06	-1.2967	-0.199	-0.8685	
-1.03578	0.013054	-0.153842	-4.06	-0.35	3.64	-1.2813	-0.1976	-0.8809	
-1.036024	0.02074	-0.148352	-4.13	-0.28	3.36	-1.2723	-0.2033	-0.8751	
-1.04188	0.017568	-0.151524	-4.83	-1.05	3.57	-1.2798	-0.1945	-0.8763	
-1.045052	0.019032	-0.157136	-3.22	-1.89	4.2	-1.2783	-0.1931	-0.8763	
-1.056398	0.016958	-0.162504	-2.38	-3.29	4.62	-1.2842	-0.1947	-0.8838	
-1.072502	0.019154	-0.166164	-2.73	-4.97	4.83	-1.2783	-0.1975	-0.8749	
-1.067012	0.03111	-0.16531	-2.87	-6.86	4.62	-1.2768	-0.2019	-0.8765	
-1.056032	0.03111	-0.164456	-3.08	-9.45	4.55	-1.2814	-0.202	-0.878	
-1.071038	0.033428	-0.163602	-2.24	-10.43	4.9	-1.2798	-0.2005	-0.881	
-1.057862	0.036478	-0.156404	-3.71	-13.02	4.83	-1.2782	-0.2005	-0.8825	
-1.045662	0.033794	-0.148352	-3.99	-14.42	5.18	-1.2781	-0.2096	-0.8933	
-1.045418	0.03843	-0.14213	-3.22	-14.77	5.04	-1.2919	-0.2111	-0.8885	
-1.05652	0.03843	-0.14884	-3.22	-16.8	4.9	-1.284	-0.1964	-0.8929	
-1.056886	0.038918	-0.14579	-3.57	-18.27	5.18	-1.281	-0.1978	-0.8945	
-1.059204	0.0549	-0.141764	-2.59	-19.67	5.39	-1.2857	-0.2067	-0.8916	
-1.061888	0.056852	-0.136396	-4.55	-22.26	5.67	-1.2885	-0.2024	-0.899	
-1.0675	0.056852	-0.126758	-6.93	-24.29	6.58	-1.2931	-0.2039	-0.8989	
-1.060424	0.047946	-0.124806	-7.21	-26.32	7.49	-1.293	-0.1951	-0.9003	
-1.053714	0.04331	-0.104066	-6.93	-27.72	8.19	-1.2838	-0.1966	-0.9065	
-1.061034	0.048312	-0.098454	-5.25	-30.03	8.61	-1.3035	-0.2206	-0.9172	
-1.067988	0.050386	-0.08662	-4.83	-31.5	10.57	-1.3017	-0.2015	-0.9244	
-1.076528	0.05429	-0.083326	-4.55	-34.02	12.11	-1.2974	-0.2056	-0.911	
-1.071648	0.05368	-0.072712	-3.43	-35.91	13.3	-1.3002	-0.2074	-0.9245	
-1.050664	0.060024	-0.038674	-2.73	-38.08	13.44	-1.3152	-0.2136	-0.9349	
-1.042856	0.077226	-0.025132	-1.05	-40.04	13.37	-1.3138	-0.224	-0.9367	
-1.024068	0.09699	-0.009516	-1.47	-41.93	12.6	-1.3181	-0.2198	-0.9471	
-1.012478	0.109556	0.009393999	-2.52	-42.49	12.46	-1.3286	-0.2169	-0.9483	
-1.00345	0.116388	0.02257	-4.48	-43.19	11.83	-1.3224	-0.2215	-0.9621	
-1.005646	0.1098	0.040016	-5.95	-42.98	10.78	-1.3315	-0.2245	-0.959	
-1.001498	0.103334	0.055632	-5.95	-43.68	9.38	-1.3343	-0.2263	-0.9726	
-1.015528	0.106872	0.061366	-5.67	-44.66	8.26	-1.3373	-0.2219	-0.9739	
-1.022116	0.10309	0.074298	-5.18	-45.5	7.28	-1.3465	-0.2308	-0.9739	
-1.018456	0.098698	0.087962	-4.06	-47.04	6.3	-1.3553	-0.2222	-0.9812	
-1.01931	0.097112	0.106262	-3.64	-48.79	5.25	-1.34	-0.2237	-0.9905	
-1.016016	0.088328	0.118584	-3.36	-51.24	4.41	-1.3583	-0.2312	-0.9903	
-1.023214	0.083082	0.139324	-1.47	-51.8	3.71	-1.3595	-0.2241	-1.0038	
-1.023946	0.085522	0.15128	0.35	-54.04	3.57	-1.3671	-0.2316	-1.0068	
-1.016016	0.09357399	0.163846	1.47	-56.14	3.64	-1.3791	-0.2363	-1.0142	
-1.005768	0.099552	0.183732	1.19	-57.54	4.06	-1.3788	-0.2291	-1.0231	
-1.001376	0.09552599	0.198494	0.49	-58.24	4.69	-1.3832	-0.2278	-1.0336	
-0.998204	0.09076799	0.227652	-1.61	-59.01	4.9	-1.3983	-0.228	-1.0364	
-0.981246	0.092476	0.267668	-3.71	-59.5	4.41	-1.4104	-0.2386	-1.0439	
-0.952332	0.099308	0.305488	-5.88	-59.22	3.64	-1.4163	-0.2268	-1.042	
-0.920856	0.096746	0.329156	-6.02	-57.75	3.85	-1.43	-0.2299	-1.0418	
-0.886452	0.101992	0.344894	-5.74	-55.02	3.92	-1.4283	-0.2345	-1.054	
-0.863394	0.116998	0.355874	-5.25	-51.94	3.22	-1.4299	-0.2404	-1.0511	
-0.867542	0.132858	0.377346	-4.69	-48.37	2.45	-1.4311	-0.2348	-1.0661	
-0.877912	0.135908	0.402112	-6.51	-47.25	2.66	-1.4463	-0.2348	-1.0628	
-0.84363	0.119804	0.432368	-7.84	-46.62	2.73	-1.4491	-0.2307	-1.0762	
-0.793122	0.116998	0.465674	-6.65	-45.71	1.68	-1.4582	-0.2352	-1.0746	
-0.765916	0.121146	0.50447	-6.16	-42.14	0.77	-1.4565	-0.2294	-1.0821	
-0.750422	0.113094	0.529724	-5.46	-40.46	0.49	-1.4734	-0.2368	-1.0744	
-0.726144	0.096868	0.559004	-5.18	-38.29	0.07	-1.4669	-0.2357	-1.0971	
-0.699182	0.081618	0.607072	-4.13	-35.77	-0.63	-1.4821	-0.2327	-1.0907	
-0.691862	0.080154	0.636352	-0.84	-34.3	-1.4	-1.4987	-0.2285	-1.0934	
-0.704672	0.093818	0.658922	0.98	-31.71	-2.31	-1.4942	-0.2225	-1.0888	
-0.719678	0.113704	0.669292	1.82	-29.54	-2.94	-1.491	-0.2271	-1.101	
-0.719434	0.119926	0.68076	1.4	-28.28	-2.66	-1.5016	-0.2301	-1.0994	
-0.725778	0.121268	0.687104	1.82	-24.78	-1.54	-1.5	-0.2243	-1.1038	
-0.735294	0.126026	0.682346	2.03	-23.45	-0.49	-1.5077	-0.2287	-1.0977	
-0.731634	0.126148	0.672952	1.33	-21.84	-0.14	-1.5197	-0.2334	-1.1066	
-0.733952	0.121146	0.659532	1.19	-20.37	-0.14	-1.5063	-0.2301	-1.0948	
-0.732244	0.115778	0.645746	1.61	-19.18	-0.77	-1.5166	-0.2379	-1.1113	
-0.739198	0.113216	0.630618	1.82	-18.27	-1.47	-1.5152	-0.2289	-1.1036	
-0.749934	0.111142	0.619516	1.47	-17.57	-1.89	-1.5243	-0.2349	-1.1051	
-0.75213	0.116266	0.607926	1.26	-17.36	-2.31	-1.5227	-0.2334	-1.1081	
-0.750178	0.115046	0.604022	0.35	-17.15	-2.45	-1.5302	-0.2321	-1.111	
-0.753594	0.109068	0.59353	0.35	-16.59	-2.45	-1.5211	-0.2365	-1.1142	
-0.773236	0.102968	0.58804	0	-16.03	-2.17	-1.5379	-0.2425	-1.111	
-0.799466	0.1098	0.576206	0.7	-15.75	-1.96	-1.5303	-0.2305	-1.1049	
-0.81557	0.108214	0.56608	-1.05	-16.73	-1.05	-1.5256	-0.2321	-1.1156	
-0.836554	0.099064	0.557174	-1.12	-17.64	-0.07	-1.5364	-0.2454	-1.1126	
-0.845826	0.104554	0.542046	-1.05	-19.6	0.63	-1.5437	-0.2384	-1.1244	
-0.84424	0.109434	0.534116	-1.96	-22.33	1.19	-1.5483	-0.2353	-1.1182	
-0.835578	0.112118	0.53009	-1.82	-25.06	1.89	-1.5422	-0.2383	-1.1244	
-0.823988	0.107848	0.531676	-2.1	-28.14	2.59	-1.5482	-0.2399	-1.1244	
-0.816912	0.108824	0.538508	-1.89	-31.22	2.94	-1.5527	-0.234	-1.1257	
-0.805932	0.108824	0.548634	-2.8	-34.58	2.66	-1.5633	-0.2386	-1.1271	
-0.797758	0.102846	0.562176	-3.71	-37.8	2.24	-1.5709	-0.2357	-1.1254	
-0.783606	0.109068	0.57828	-3.5	-40.46	1.54	-1.5799	-0.2404	-1.1343	
-0.771284	0.11407	0.593408	-3.78	-42.35	1.33	-1.5815	-0.2388	-1.1297	
-0.75701	0.113704	0.586088	-3.85	-44.59	1.75	-1.5965	-0.2346	-1.1354	
-0.74908	0.104676	0.613416	-5.25	-46.34	2.31	-1.5981	-0.2315	-1.1263	
-0.730414	0.109312	0.626836	-4.55	-47.67	2.17	-1.6025	-0.2332	-1.1368	
-0.701622	0.108702	0.647698	-5.25	-48.93	1.61	-1.6115	-0.229	-1.1396	
-0.678808	0.107848	0.65392	-4.34	-50.33	1.54	-1.6222	-0.2334	-1.1334	
-0.653554	0.110898	0.669658	-3.99	-51.38	1.33	-1.6311	-0.2307	-1.1468	
-0.633302	0.10248	0.682102	-4.41	-52.43	1.4	-1.6402	-0.2308	-1.1451	
-0.61244	0.096258	0.698572	-4.41	-53.06	1.33	-1.6447	-0.2324	-1.1481	
-0.594384	0.099552	0.720532	-4.55	-53.9	1.12	-1.6584	-0.2325	-1.1448	
-0.582306	0.09699	0.737856	-5.74	-54.39	1.47	-1.6661	-0.2339	-1.1401	
-0.561322	0.087718	0.749446	-5.53	-54.67	1.75	-1.678	-0.2238	-1.1442	
-0.535824	0.084912	0.760182	-4.27	-55.65	1.75	-1.6796	-0.2282	-1.1443	
-0.508984	0.08418	0.77836	-3.71	-56.21	1.12	-1.6977	-0.2284	-1.147	
-0.483852	0.081618	0.786656	-2.94	-56.56	0.56	-1.7007	-0.23	-1.15	
-0.460428	0.082838	0.802882	-3.22	-57.19	0.56	-1.7099	-0.2374	-1.1484	
-0.431026	0.092842	0.8174	-3.43	-57.68	0.35	-1.728	-0.2362	-1.1496	
-0.39894	0.09467199	0.83509	-3.43	-57.68	-0.63	-1.725	-0.2331	-1.1465	
-0.381372	0.08418	0.857538	-3.92	-56.56	-0.28	-1.737	-0.2348	-1.1539	
-0.360266	0.08357	0.870592	-3.85	-57.19	-0.63	-1.7506	-0.2202	-1.1503	
-0.335378	0.082228	0.88145	-3.43	-57.61	-1.54	-1.7705	-0.244	-1.1519	
-0.311954	0.080764	0.903044	-3.57	-57.26	-2.38	-1.778	-0.2382	-1.1517	
-0.293654	0.072956	0.918172	-4.06	-56.35	-2.59	-1.7797	-0.2335	-1.1379	
-0.273402	0.07564	0.934032	-3.92	-55.86	-2.1	-1.7843	-0.2336	-1.1394	
-0.25376	0.073322	0.943182	-4.13	-55.65	-1.96	-1.7992	-0.2235	-1.1434	
-0.229848	0.07076	0.951478	-4.27	-54.6	-1.89	-1.8144	-0.2236	-1.1431	
-0.202276	0.066856	0.965874	-5.18	-53.27	-1.96	-1.816	-0.228	-1.1417	
-0.181902	0.065514	0.970876	-5.25	-51.38	-2.24	-1.8282	-0.234	-1.1416	
-0.16531	0.059902	0.970266	-5.18	-49.91	-2.38	-1.8357	-0.2252	-1.1382	
-0.159088	0.05612	0.976122	-4.9	-47.88	-2.24	-1.8419	-0.2252	-1.1336	
-0.132492	0.063074	0.981978	-5.25	-48.37	-1.96	-1.8525	-0.2194	-1.1318	
-0.113948	0.066246	1.001986	-6.3	-45.57	-2.17	-1.8556	-0.2223	-1.1287	
-0.09076799	0.06039	1.023458	-5.32	-40.53	-3.5	-1.8707	-0.2328	-1.1332	
-0.084912	0.057706	1.047736	-6.86	-38.57	-3.29	-1.8859	-0.23	-1.1328	
-0.081008	0.05673	1.052738	-6.86	-34.58	-2.73	-1.8857	-0.2182	-1.1341	
-0.072346	0.058072	1.05896	-7	-32.27	-1.89	-1.8889	-0.2226	-1.1281	
-0.066124	0.05734	1.062376	-6.65	-28.63	-0.98	-1.8871	-0.2228	-1.1432	
-0.05856	0.04941	1.070306	-6.44	-24.85	-0.07	-1.8889	-0.227	-1.1297	
-0.061244	0.041236	1.064084	-5.46	-22.68	0.42	-1.8964	-0.2243	-1.1355	
-0.059292	0.035746	1.062376	-5.81	-20.23	0.49	-1.9072	-0.2212	-1.1232	
-0.063928	0.034282	1.054202	-5.6	-17.5	0.28	-1.8997	-0.2211	-1.1188	
-0.063684	0.03111	1.03944	-4.06	-15.75	0.49	-1.9043	-0.2196	-1.1172	
-0.070272	0.030134	1.02175	-3.36	-13.72	0.77	-1.9101	-0.208	-1.1244	
-0.06405	0.026352	1.030046	-3.5	-11.62	0.77	-1.9194	-0.2167	-1.1138	
-0.049288	0.0183	1.041392	-3.29	-9.31	0.7	-1.9041	-0.2063	-1.1184	
-0.031842	0.024522	1.04798	-2.38	-7.07	0.42	-1.9134	-0.2196	-1.1125	
-0.018056	0.031354	1.046394	-1.33	-4.97	-0.28	-1.9224	-0.2154	-1.1198	
-0.009516	0.02989	1.042368	0	-2.66	-1.05	-1.9164	-0.2241	-1.117	
-0.007564	0.032208	1.039684	0.56	-0.63	-1.33	-1.9178	-0.2109	-1.1183	
-0.008174	0.03111	1.041392	1.05	2.1	-1.96	-1.9211	-0.2122	-1.1061	
-0.013176	0.030988	1.038342	1.54	4.13	-2.38	-1.9164	-0.2256	-1.1186	
-0.01647	0.032086	1.035292	1.68	5.67	-2.45	-1.8997	-0.2195	-1.1157	
-0.02013	0.03233	1.037	2.1	7.28	-2.52	-1.9134	-0.2137	-1.1108	
-0.022448	0.034526	1.041636	2.45	9.17	-2.1	-1.9134	-0.2271	-1.1186	
-0.028304	0.036112	1.051518	2.03	10.92	-1.82	-1.9071	-0.2109	-1.123	
-0.032086	0.040992	1.049688	2.24	12.6	-1.19	-1.9104	-0.2241	-1.1171	
-0.039162	0.044774	1.051762	1.33	15.4	-0.77	-1.9056	-0.2227	-1.1263	
-0.044408	0.047824	1.047248	1.12	16.73	-0.49	-1.907	-0.2184	-1.1307	
-0.043798	0.052338	1.049932	0.84	19.88	-0.21	-1.8965	-0.2286	-1.1311	
-0.048922	0.050752	1.045296	0.77	22.82	0	-1.9029	-0.2254	-1.1113	
-0.05978	0.049898	1.038098	0.49	24.78	0.14	-1.8889	-0.2151	-1.1234	
-0.065392	0.048068	1.037488	1.05	27.72	-0.28	-1.8935	-0.2241	-1.128	
-0.077592	0.051484	1.028948	0.98	30.73	-0.56	-1.8905	-0.2211	-1.1235	
-0.092232	0.04453	1.024556	0.91	32.97	-1.19	-1.8826	-0.2183	-1.1387	
-0.109922	0.040504	1.012844	1.26	35.28	-1.4	-1.872	-0.2138	-1.1388	
-0.128222	0.046726	1.003938	1.61	37.52	-1.61	-1.869	-0.2137	-1.1344	
-0.147132	0.049776	0.996618	1.61	39.34	-2.03	-1.8643	-0.2182	-1.1436	
-0.160064	0.046482	0.99186	1.47	41.86	-2.52	-1.8509	-0.2223	-1.1333	
-0.178852	0.044164	0.985882	1.68	43.61	-3.01	-1.8491	-0.2166	-1.1454	
-0.197152	0.039894	0.978196	1.96	45.22	-3.57	-1.8432	-0.2135	-1.1379	
-0.210694	0.039162	0.97295	2.24	46.76	-3.85	-1.8388	-0.2162	-1.1289	
-0.224846	0.043066	0.966606	2.73	48.93	-4.13	-1.8235	-0.2222	-1.1445	
-0.24522	0.037698	0.96075	3.29	50.96	-4.27	-1.813	-0.2309	-1.1403	
-0.262178	0.040748	0.946354	4.2	52.57	-4.48	-1.8128	-0.2162	-1.143	
-0.279868	0.046116	0.938058	4.27	54.18	-4.76	-1.7977	-0.2146	-1.1418	
-0.300608	0.047458	0.925858	4.83	56.42	-4.76	-1.7886	-0.2278	-1.1452	
-0.326716	0.050264	0.90646	4.97	58.1	-4.55	-1.7764	-0.2293	-1.1515	
-0.33977	0.054046	0.894626	4.83	59.29	-4.9	-1.7628	-0.2247	-1.1502	
-0.360022	0.052216	0.88328	5.04	60.83	-4.9	-1.7539	-0.2289	-1.1414	
-0.394914	0.052216	0.860344	4.83	62.44	-4.41	-1.7414	-0.2187	-1.155	
-0.420534	0.054412	0.839604	4.34	62.37	-4.06	-1.7417	-0.2303	-1.1462	
-0.438834	0.057096	0.826672	3.85	62.72	-3.92	-1.7203	-0.2258	-1.154	
-0.470066	0.055144	0.813008	2.87	63.35	-3.92	-1.7145	-0.2345	-1.1437	
-0.491538	0.055266	0.798002	2.52	63.49	-3.85	-1.696	-0.2212	-1.1529	
-0.506544	0.054656	0.779946	1.96	62.65	-3.71	-1.6929	-0.2197	-1.156	
-0.530822	0.058682	0.76738	1.54	62.86	-3.92	-1.6811	-0.2327	-1.1459	
-0.55998	0.062464	0.749446	1.05	63.84	-3.99	-1.6658	-0.2193	-1.1459	
-0.579134	0.051484	0.738832	0.42	63.84	-3.85	-1.6703	-0.2224	-1.1519	
-0.599508	0.047702	0.729072	0	63.7	-3.71	-1.6538	-0.2146	-1.137	
-0.61122	0.057096	0.706868	1.19	63.14	-4.2	-1.6448	-0.2218	-1.1358	
-0.631106	0.04941	0.688324	1.12	63	-4.34	-1.6297	-0.2276	-1.1347	
-0.645502	0.044408	0.678686	0.91	62.79	-4.41	-1.6084	-0.217	-1.1349	
-0.657214	0.04758	0.670634	1.19	62.65	-4.69	-1.6084	-0.2245	-1.138	
-0.661972	0.052216	0.658068	1.26	61.81	-4.55	-1.5903	-0.2139	-1.1321	
-0.689422	0.050752	0.648552	0.91	62.3	-3.99	-1.5828	-0.2212	-1.1309	
-0.731756	0.051484	0.625494	0.28	63	-3.43	-1.5847	-0.2178	-1.1097	
-0.755912	0.055388	0.590724	-0.7	62.79	-2.87	-1.5632	-0.2134	-1.1191	
-0.767868	0.046482	0.56486	-0.63	60.83	-1.96	-1.554	-0.203	-1.119	
-0.793854	0.038308	0.529236	-1.12	59.64	-1.12	-1.5526	-0.2192	-1.1224	
-0.825818	0.037088	0.500322	-2.17	56.49	-0.28	-1.5375	-0.2146	-1.1196	
-0.855708	0.03721	0.475434	-3.43	53.76	0.28	-1.5332	-0.2158	-1.1061	
-0.866078	0.038186	0.457134	-3.15	49	0.63	-1.5254	-0.2085	-1.1136	
-0.860954	0.046482	0.441152	-2.52	44.45	1.05	-1.515	-0.2142	-1.1079	
-0.885842	0.045506	0.430416	-3.36	43.26	1.4	-1.5013	-0.217	-1.1082	
-0.902678	0.049532	0.41785	-3.78	39.34	1.75	-1.5046	-0.2109	-1.096	
-0.908778	0.048312	0.412238	-5.04	35.49	1.54	-1.4938	-0.2065	-1.1036	
-0.921832	0.049044	0.408212	-5.67	32.34	1.33	-1.497	-0.2079	-1.093	
-0.946598	0.043554	0.40016	-5.74	30.24	1.26	-1.4865	-0.2136	-1.0918	
-0.935862	0.038918	0.401502	-4.06	26.6	0.91	-1.4805	-0.209	-1.0828	
-0.918782	0.040016	0.396134	-2.38	23.45	1.05	-1.482	-0.2016	-1.0826	
-0.918416	0.042944	0.400404	-0.77	22.05	1.12	-1.4793	-0.2132	-1.0723	
-0.928542	0.043554	0.394426	0.07	20.37	1.05	-1.4714	-0.2134	-1.0876	
-0.938912	0.047458	0.387228	0.91	18.27	1.19	-1.461	-0.2027	-1.071	
-0.93269	0.050142	0.389546	0.84	16.73	1.33	-1.4595	-0.2056	-1.071	
-0.93269	0.05368	0.38979	1.19	15.4	1.75	-1.4642	-0.2175	-1.0712	
-0.9272	0.055632	0.394304	2.31	13.16	2.03	-1.4594	-0.2058	-1.0786	
-0.918904	0.060146	0.402722	2.38	11.2	2.17	-1.4549	-0.2146	-1.0804	
-0.920246	0.059658	0.4148	2.38	10.43	2.31	-1.4551	-0.2129	-1.0697	
-0.924272	0.05917	0.42334	1.96	9.94	2.45	-1.4492	-0.2098	-1.0607	
-0.9211	0.06344	0.430172	2.73	9.66	2.1	-1.446	-0.2143	-1.0669	
-0.904508	0.064538	0.4331	2.8	8.89	1.61	-1.4491	-0.2053	-1.0607	
-0.887062	0.068686	0.443104	3.85	8.89	1.47	-1.446	-0.2024	-1.0622	
-0.875228	0.071736	0.456768	4.48	10.08	1.61	-1.449	-0.2039	-1.0652	
-0.870958	0.06771	0.4636	4.06	12.11	1.75	-1.4461	-0.2127	-1.0608	
-0.860344	0.062952	0.480192	5.25	14.21	1.4	-1.4521	-0.2055	-1.0651	
-0.857904	0.064416	0.480314	5.18	16.52	0.49	-1.4491	-0.2158	-1.0684	
-0.85827	0.061976	0.47946	5.32	19.25	0.07	-1.4416	-0.2111	-1.0594	
-0.854366	0.06161	0.476654	5.74	21.77	-0.14	-1.4371	-0.2066	-1.0549	
-0.859246	0.056486	0.464576	5.74	24.78	-0.35	-1.4389	-0.2242	-1.0476	
-0.861076	0.04941	0.45567	6.3	26.46	-0.63	-1.4371	-0.2185	-1.0611	
-0.863394	0.051362	0.448716	6.79	28.14	-1.05	-1.4222	-0.2226	-1.0509	
-0.854732	0.053192	0.441396	7.28	29.19	-1.68	-1.4313	-0.2227	-1.0492	
-0.858148	0.055754	0.41968	8.33	31.36	-1.82	-1.4237	-0.2107	-1.0431	
-0.87169	0.052704	0.413824	8.05	33.11	-2.1	-1.4103	-0.2238	-1.0421	
-0.865834	0.052948	0.406138	9.66	33.18	-2.45	-1.41	-0.2032	-1.0432	
-0.852048	0.06344	0.396256	10.5	34.16	-3.15	-1.3967	-0.2161	-1.0331	
-0.851316	0.067954	0.376126	11.34	35.56	-3.64	-1.3939	-0.2189	-1.0212	
-0.851926	0.06771	0.352458	13.72	37.31	-4.13	-1.3955	-0.2233	-1.0227	
-0.874984	0.082594	0.328912	13.79	39.83	-4.97	-1.3864	-0.2292	-1.0245	
-0.914878	0.09089	0.30256	13.37	40.46	-5.53	-1.3775	-0.2274	-1.0156	
-0.967338	0.095282	0.284016	10.57	42.07	-5.95	-1.3792	-0.2347	-1.0096	
-0.995398	0.09747799	0.257664	8.26	40.53	-6.51	-1.3791	-0.2229	-1.0064	
-0.999912	0.081252	0.255102	4.97	39.55	-7.07	-1.3672	-0.224	-0.9960999	
-1.015894	0.068076	0.249612	3.57	39.69	-7.84	-1.3686	-0.2287	-1.0067	
-1.01138	0.063684	0.236558	3.36	37.8	-9.1	-1.3747	-0.2271	-1.0005	
-1.00772	0.065026	0.213988	3.99	38.22	-10.15	-1.3519	-0.2137	-1.0007	
-0.993446	0.05612	0.18056	4.34	38.78	-10.43	-1.3581	-0.2225	-0.9962	
-0.977342	0.050996	0.153354	6.02	39.83	-10.5	-1.3538	-0.2282	-0.9858	
-0.985394	0.049044	0.119072	8.19	41.58	-10.57	-1.3537	-0.2104	-0.9795	
-0.994788	0.045872	0.092964	8.96	42.56	-10.78	-1.3417	-0.2161	-0.9798	
-0.996374	0.0427	0.084668	10.85	40.6	-11.06	-1.3405	-0.2084	-0.96	
-1.00223	0.047702	0.049898	11.13	39.41	-11.2	-1.3346	-0.2245	-0.9559	
-1.000888	0.047458	0.033794	11.55	37.87	-11.2	-1.3209	-0.2125	-0.9529	
-1.020042	0.053802	0.014152	10.64	35.91	-11.34	-1.3313	-0.2099	-0.9633	
-1.053104	0.040138	-0.000244	7.28	34.58	-11.55	-1.324	-0.2215	-0.9576	
-1.065426	0.041724	-0.00671	4.9	32.97	-11.55	-1.318	-0.2094	-0.9469	
-1.054324	0.02989	-0.007929999	4.06	30.66	-11.2	-1.3256	-0.2021	-0.9436	
-1.056032	0.02135	-0.01708	3.71	28.49	-11.06	-1.3182	-0.2137	-0.9394	
-1.062254	0.007808	-0.022204	3.08	26.81	-11.41	-1.3137	-0.1987	-0.9287	
-1.047126	0.003782	-0.014396	3.43	24.99	-11.83	-1.3137	-0.2002	-0.9302	
-1.02419	0.002684	-0.023546	4.69	23.38	-12.04	-1.3063	-0.2089	-0.9229	
-1.02236	0.005612	-0.034892	6.51	21.7	-11.83	-1.3045	-0.2062	-0.9365	
-1.03273	-0.005734	-0.035258	3.36	24.08	-10.85	-1.3032	-0.2074	-0.9245	
-1.013088	-0.01525	-0.028304	4.48	22.96	-10.01	-1.2973	-0.2043	-0.9185	
-0.982344	-0.010736	-0.047458	5.88	21.7	-9.59	-1.3019	-0.1954	-0.9107	
-1.010282	-0.007442	-0.05551	4.9	22.26	-10.22	-1.3005	-0.2071	-0.9079	
-1.031144	-0.017568	-0.071004	4.69	21.77	-9.73	-1.3019	-0.1924	-0.9091	
-1.028216	-0.01891	-0.088084	3.01	20.37	-9.24	-1.2868	-0.1922	-0.9064	
-1.041514	-0.022692	-0.095648	1.75	19.74	-8.4	-1.2883	-0.1922	-0.9048	
-1.050664	-0.020496	-0.092232	-0.56	17.36	-7.98	-1.2855	-0.1904	-0.8913	
-1.042612	-0.022326	-0.088084	-2.8	16.24	-7.28	-1.2764	-0.1949	-0.8961	
-1.030534	-0.021716	-0.0915	-4.13	15.33	-6.79	-1.2853	-0.1862	-0.9003	
-1.045174	-0.02867	-0.105042	-4.9	13.37	-5.67	-1.2885	-0.198	-0.8989	
-1.050298	-0.031354	-0.117608	-3.85	11.48	-4.13	-1.2901	-0.186	-0.8896	
-1.043588	-0.033062	-0.112362	-7.21	9.66	-3.15	-1.2947	-0.186	-0.885	
-1.027484	-0.040138	-0.111386	-9.8	8.12	-1.82	-1.2812	-0.1887	-0.8807	
-1.031388	-0.032208	-0.110898	-8.75	8.96	-2.1	-1.2767	-0.1857	-0.8778	
-1.035292	-0.024522	-0.116388	-9.03	6.51	-2.03	-1.2889	-0.1902	-0.8746	
-1.029436	-0.020496	-0.114924	-10.64	5.95	-1.12	-1.2872	-0.1844	-0.8805	
-1.02358	-0.016836	-0.12017	-10.99	6.3	0	-1.2827	-0.1917	-0.8807999	
-1.0248	-0.02318	-0.124562	-13.44	6.37	1.05	-1.2812	-0.1754	-0.8745	
-1.03395	-0.03538	-0.133956	-13.65	5.95	0.98	-1.2918	-0.1828	-0.8744	
-1.029558	-0.044286	-0.133346	-13.16	6.72	0.28	-1.2873	-0.1842	-0.873	
-1.018334	-0.050508	-0.142252	-11.34	6.72	0.28	-1.2795	-0.1799	-0.8836	
-1.038586	-0.050752	-0.152744	-10.22	7.84	0.84	-1.2809	-0.1771	-0.8896	
-1.030534	-0.044286	-0.16287	-9.73	8.05	0.63	-1.2856	-0.1725	-0.8789	
-1.02358	-0.046238	-0.175924	-7.49	6.51	1.12	-1.2873	-0.1739	-0.8713	
-1.045784	-0.06954	-0.176656	-7.56	6.65	1.96	-1.2798	-0.1826	-0.8686	
-1.030656	-0.062952	-0.180926	-6.65	7.28	1.26	-1.2767	-0.1693	-0.8684	
-1.031022	-0.050874	-0.181902	-5.18	5.32	0.28	-1.2737	-0.1766	-0.8671	
-1.057374	-0.048312	-0.184098	-4.27	4.69	1.12	-1.2738	-0.1736	-0.8625	
-1.031754	-0.040382	-0.17629	-4.62	4.62	1.33	-1.2891	-0.1841	-0.8624	
-1.038098	-0.041236	-0.17629	-3.85	2.24	1.19	-1.2769	-0.1795	-0.861	
-1.063596	-0.04453	-0.180194	-3.08	0.7	1.68	-1.2797	-0.1767	-0.87	
-1.064206	-0.045384	-0.178852	-3.57	0	2.1	-1.2798	-0.1782	-0.8685	
-1.053836	-0.035258	-0.172142	-4.48	-0.77	2.31	-1.2831	-0.1884	-0.8595	
-1.045784	-0.036112	-0.1769	-4.9	-2.24	2.66	-1.2767	-0.1782	-0.8716	
-1.05469	-0.036966	-0.181048	-4.06	-3.57	2.73	-1.2813	-0.1796	-0.867	
-1.062498	-0.038674	-0.183976	-4.34	-6.09	2.66	-1.2737	-0.1751	-0.867	
-1.06262	-0.02989	-0.180804	-4.9	-7.56	2.38	-1.2723	-0.1795	-0.8656	
-1.057862	-0.038918	-0.180316	-5.11	-10.29	2.52	-1.2661	-0.1811	-0.8733	
-1.06628	-0.040748	-0.173606	-3.08	-12.11	2.87	-1.2751	-0.1723	-0.873	
-1.063962	-0.040016	-0.171776	-3.92	-13.23	2.66	-1.2829	-0.1737	-0.8638	
-1.056886	-0.049654	-0.161772	-3.29	-15.19	3.22	-1.269	-0.1797	-0.8763	
-1.051396	-0.045506	-0.159576	-0.91	-16.52	3.78	-1.2781	-0.1664	-0.8698	
-1.050786	-0.028792	-0.15311	0.63	-17.43	3.99	-1.2841	-0.1844	-0.8836	
-1.046638	-0.022204	-0.14335	1.47	-18.69	5.04	-1.2903	-0.1829	-0.8774	
-1.050908	-0.011102	-0.137006	1.82	-20.02	5.18	-1.2901	-0.1845	-0.8865	
-1.037244	-0.004758	-0.127856	0.84	-22.12	5.11	-1.2841	-0.1874	-0.8852	
-1.042978	-0.005978	-0.120536	0.14	-22.82	5.25	-1.2914	-0.1862	-0.9001	
-1.049444	-0.007198	-0.111996	-1.33	-23.1	5.74	-1.293	-0.1921	-0.8987	
-1.042002	-0.008417999	-0.096014	-3.29	-23.8	5.67	-1.2869	-0.1861	-0.8942	
-1.036512	-0.009272	-0.093208	-2.73	-24.78	6.16	-1.2913	-0.1908	-0.9078	
-1.057984	-0.00915	-0.093208	-1.89	-26.53	6.16	-1.2974	-0.1967	-0.9062999	
-1.0614	-0.008417999	-0.078568	-1.89	-27.23	6.09	-1.2988	-0.1894	-0.9091	
-1.054202	-0.003904	-0.066002	-2.73	-28.91	5.81	-1.3032	-0.1777	-0.9118	
-1.044442	-0.002318	-0.051484	-1.61	-29.96	6.44	-1.3032	-0.1866	-0.9165	
-1.035902	0.003904	-0.038552	-0.49	-31.01	6.72	-1.3062	-0.1926	-0.9196	
-1.0309	0.006588	-0.030622	0.21	-31.99	7.21	-1.3001	-0.1926	-0.9228	
-1.035292	0.00732	-0.01891	0.07	-32.83	7.84	-1.3046	-0.1942	-0.9242	
-1.031998	0.01708	-0.00305	0.14	-33.25	7.98	-1.3151	-0.2003	-0.9347	
-1.025654	0.031964	0.018422	-0.84	-33.39	8.47	-1.3194	-0.1932	-0.9435	
-1.01565	0.04331	0.035014	-2.52	-33.95	9.1	-1.318	-0.1856	-0.9359	
-1.015406	0.054778	0.052216	-3.01	-34.02	9.66	-1.3163	-0.1947	-0.9482	
-1.009062	0.058804	0.063806	-6.65	-34.44	9.8	-1.3208	-0.1963	-0.9526	
-0.998692	0.059414	0.076982	-7.77	-35.28	9.87	-1.3299	-0.2038	-0.9541	
-1.002596	0.061	0.083814	-8.4	-34.72	9.52	-1.3282	-0.198	-0.9601	
-1.002596	0.050508	0.09699	-8.54	-35.77	9.59	-1.3359	-0.1935	-0.9538	
-1.013454	0.046848	0.108458	-8.12	-35.35	8.54	-1.334	-0.2028	-0.9782	
-1.008818	0.045506	0.117608	-7.49	-37.03	7.42	-1.3356	-0.2012	-0.9736	
-1.005646	0.040382	0.131028	-7.14	-36.4	6.58	-1.3386	-0.2102	-0.9798	
-1.002108	0.034282	0.136762	-5.53	-35.77	5.32	-1.3506	-0.1956	-0.9793	
-0.992226	0.035502	0.15189	-4.69	-35	3.71	-1.3447	-0.2102	-0.9766	
-0.993446	0.037942	0.161894	-3.85	-34.02	2.94	-1.3565	-0.2106	-0.9915	
-0.982588	0.04453	0.168604	-3.36	-33.46	2.17	-1.367	-0.2034	-0.9957	
-0.98332	0.050996	0.176534	-3.92	-31.78	1.75	-1.3654	-0.2019	-0.9972	
-1.002474	0.059658	0.178974	-3.36	-30.59	1.61	-1.3639	-0.2094	-1.0034	
-1.009916	0.060756	0.180804	-3.78	-30.8	1.89	-1.3623	-0.205	-1.0064	
-1.005402	0.057218	0.185806	-5.46	-31.64	2.17	-1.3742	-0.1993	-1.0106	
-1.011258	0.055998	0.203984	-6.65	-31.78	2.24	-1.3698	-0.2006	-1.0047	
-1.017724	0.046238	0.222284	-7.63	-32.76	2.45	-1.3788	-0.2068	-1.0122	
-1.007232	0.037332	0.241804	-7	-35	2.45	-1.3756	-0.2025	-1.0212	
-0.98942	0.043798	0.263154	-7.63	-36.12	1.82	-1.3861	-0.2056	-1.0286	
-0.967826	0.036234	0.281576	-7.07	-37.38	1.61	-1.3936	-0.2013	-1.0299	
-0.935862	0.032452	0.30683	-3.5	-37.45	2.1	-1.3889	-0.1895	-1.0298	
-0.905972	0.031598	0.346968	-0.7	-36.61	2.03	-1.4116	-0.1927	-1.0324	
-0.883768	0.037942	0.363194	0.84	-34.02	2.52	-1.4073	-0.1999	-1.0281	
-0.888526	0.050874	0.367952	1.89	-31.78	2.87	-1.4132	-0.2076	-1.0387	
-0.894138	0.053436	0.375638	0.7	-30.87	3.5	-1.4009	-0.2106	-1.0511	
-0.884622	0.049288	0.400526	0.14	-29.12	3.64	-1.4192	-0.2077	-1.0431	
-0.87901	0.052338	0.409188	-0.28	-30.59	3.64	-1.4281	-0.2094	-1.0506	
-0.874008	0.05612	0.423706	-0.14	-31.57	3.22	-1.4159	-0.1974	-1.0491	
-0.866688	0.05612	0.445056	-0.91	-32.06	2.17	-1.4234	-0.2095	-1.0582	
-0.867176	0.057096	0.456158	-0.77	-33.53	1.33	-1.4293	-0.1934	-1.0608	
-0.859124	0.05368	0.463356	-0.91	-33.25	0.56	-1.4415	-0.2083	-1.0654	
-0.85888	0.039162	0.497394	-1.75	-32.9	-0.07	-1.4462	-0.2082	-1.0577	
-0.84729	0.044774	0.509716	-1.75	-31.85	-1.26	-1.4505	-0.2055	-1.0682	
-0.829966	0.049776	0.518256	-3.29	-31.15	-2.31	-1.4475	-0.2114	-1.0683	
-0.808128	0.049166	0.522648	-1.96	-29.4	-2.45	-1.4489	-0.213	-1.0744	
-0.81923	0.045262	0.519842	-0.49	-26.67	-1.89	-1.4669	-0.2059	-1.08	
-0.819718	0.047702	0.52338	0.42	-24.5	-1.68	-1.4622	-0.2104	-1.0892	
-0.813374	0.045994	0.52338	0	-23.38	-1.47	-1.4578	-0.1984	-1.08	
-0.804712	0.046238	0.529602	0.91	-21.84	-1.12	-1.4759	-0.209	-1.0874	
-0.78934	0.050264	0.54351	1.54	-20.16	-0.98	-1.4729	-0.2179	-1.0891	
-0.78995	0.052094	0.550464	2.38	-17.99	-0.84	-1.4697	-0.2061	-1.0935	
-0.802028	0.05734	0.5551	2.45	-15.33	-0.63	-1.4865	-0.2047	-1.0856	
-0.800808	0.057706	0.556686	2.52	-13.93	-0.91	-1.4776	-0.2059	-1.0767	
-0.800686	0.059048	0.55693	3.57	-12.46	-1.12	-1.4881	-0.209	-1.0811	
-0.812764	0.05978	0.557906	3.57	-11.48	-1.26	-1.488	-0.2107	-1.0902	
-0.814838	0.060512	0.561078	2.94	-10.78	-1.26	-1.4848	-0.2123	-1.0994	
-0.818132	0.060268	0.560468	3.22	-10.15	-1.12	-1.4864	-0.2077	-1.0917	
-0.814594	0.062098	0.563274	3.22	-9.1	-1.05	-1.4803	-0.2077	-1.0933	
-0.823012	0.06405	0.563884	3.78	-8.19	-0.63	-1.4955	-0.2137	-1.0932	
-0.823378	0.063074	0.560346	3.5	-7.77	-0.21	-1.5	-0.2094	-1.0975	
-0.813008	0.05673	0.567056	2.1	-7.77	0.42	-1.4984	-0.2065	-1.099	
-0.81862	0.052338	0.567056	2.38	-6.86	0.7	-1.5	-0.2154	-1.0991	
-0.8174	0.057096	0.561444	2.59	-6.09	0.63	-1.4957	-0.2255	-1.0919	
-0.806298	0.058926	0.569984	2.66	-5.74	0.7	-1.5001	-0.2212	-1.0962	
-0.804956	0.063318	0.567788	2.52	-5.04	0.91	-1.494	-0.2182	-1.0963	
-0.8174	0.066856	0.569008	2.17	-4.06	1.19	-1.5091	-0.2125	-1.0989	
-0.818376	0.066124	0.565104	1.68	-3.08	1.05	-1.4998	-0.214	-1.1067	
-0.820572	0.064294	0.560224	1.68	-2.31	1.19	-1.4968	-0.2155	-1.1068	
-0.823134	0.065514	0.556686	1.54	-2.03	1.19	-1.5136	-0.2199	-1.1005	
-0.823256	0.067588	0.55449	1.96	-1.75	1.26	-1.5002	-0.2226	-1.0932	
-0.825208	0.067954	0.555954	1.26	-1.75	1.33	-1.5002	-0.2167	-1.0901	
-0.831308	0.065392	0.553758	1.05	-1.75	1.33	-1.4818	-0.2092	-1.0948	
-0.833992	0.064904	0.552782	1.12	-1.96	0.98	-1.5	-0.2139	-1.0991	
-0.829966	0.06649	0.55388	0.7	-2.31	0.63	-1.5031	-0.2183	-1.0976	
-0.827038	0.069418	0.554002	0.42	-2.45	0.42	-1.4984	-0.2169	-1.1022	
-0.824842	0.06734399	0.5551	0.77	-2.66	0.28	-1.497	-0.2227	-1.0993	
-0.824354	0.064782	0.554734	0.91	-2.45	0.07	-1.5092	-0.2153	-1.0929	
-0.834358	0.065148	0.5551	0.7	-2.24	0	-1.5091	-0.2184	-1.0975	
-0.825574	0.06771	0.560956	-0.14	-2.1	-0.07	-1.5045	-0.2125	-1.1005	
-0.822768	0.066246	0.553148	-0.21	-1.54	-0.14	-1.5031	-0.2168	-1.0946	
-0.840336	0.064172	0.537044	0.84	-0.91	0.21	-1.5061	-0.2183	-1.0976	
-0.851804	0.052826	0.543876	0.35	-1.12	0.56	-1.5032	-0.2257	-1.0962	
-0.836066	0.050752	0.55022	0.63	-1.4	0.49	-1.506	-0.211	-1.0974	
-0.829966	0.04575	0.55205	1.54	-1.4	0.91	-1.4954	-0.2124	-1.0992	
-0.82533	0.043188	0.549854	2.8	-0.63	1.96	-1.5122	-0.2168	-1.0929	
-0.83082	0.031476	0.542534	5.11	-0.21	3.15	-1.5074	-0.2052	-1.1018	
-0.839116	0.0244	0.535336	6.02	0	4.27	-1.5076	-0.2125	-1.0974	
-0.843386	0.022936	0.532896	7.28	-0.35	5.53	-1.503	-0.2214	-1.1037	
-0.844362	0.018666	0.535336	7.77	-1.26	6.79	-1.5093	-0.2197	-1.0915	
-0.842776	0.011102	0.542168	8.82	-2.03	8.05	-1.5107	-0.2228	-1.0991	
-0.840458	0.010492	0.546682	10.15	-2.52	9.73	-1.5061	-0.2273	-1.1023	
-0.834236	0.010614	0.550586	11.55	-2.52	11.55	-1.5046	-0.2228	-1.0977	
-0.832772	0.01708	0.545218	13.79	-2.66	13.23	-1.5062	-0.2286	-1.0962	
-0.838262	0.029524	0.54534	14.7	-2.87	14.7	-1.5107	-0.2362	-1.1023	
-0.834968	0.03843	0.549854	16.24	-2.87	15.96	-1.5049	-0.2388	-1.0904	
-0.825452	0.052826	0.549366	17.5	-2.73	16.94	-1.5094	-0.2285	-1.0871	
-0.816546	0.058194	0.548268	18.06	-2.8	18.13	-1.5049	-0.2448	-1.0951	
-0.817034	0.07076	0.543632	19.04	-2.17	19.53	-1.511	-0.2523	-1.0981	
-0.826428	0.084424	0.53131	20.65	-2.03	21.07	-1.5063	-0.2464	-1.0996	
-0.826672	0.09552599	0.531554	21.28	-2.73	22.68	-1.5125	-0.2568	-1.0997	
-0.820206	0.113582	0.537044	22.12	-3.71	24.5	-1.5064	-0.2612	-1.1029	
-0.820084	0.132004	0.53314	23.66	-4.13	26.39	-1.5096	-0.2671	-1.0984	
-0.81923	0.14579	0.535702	24.57	-4.97	28.77	-1.5052	-0.2684	-1.094	
-0.812886	0.16958	0.53558	25.97	-5.67	30.31	-1.5127	-0.2686	-1.0984	
-0.810202	0.194956	0.543754	26.88	-6.3	31.36	-1.5281	-0.2803	-1.0877	
-0.787876	0.203496	0.54107	28.28	-7.21	33.25	-1.5204	-0.2997	-1.1033	
-0.76555	0.218868	0.540094	29.33	-8.19	35.77	-1.5267	-0.301	-1.0926	
-0.797514	0.237412	0.521184	31.08	-6.09	36.96	-1.5102	-0.3096	-1.0886	
-0.792146	0.249612	0.516426	33.11	-6.23	37.03	-1.5162	-0.3083	-1.093	
-0.786168	0.285846	0.523624	34.51	-7.14	37.1	-1.5225	-0.3245	-1.0886	
-0.77653	0.319396	0.525332	35.28	-7.49	37.52	-1.5391	-0.3247	-1.0928	
-0.762866	0.341234	0.519354	35	-7.56	38.22	-1.5286	-0.335	-1.0932	
-0.77226	0.350872	0.513254	34.23	-6.44	37.8	-1.5378	-0.3438	-1.0887	
-0.772626	0.36966	0.50874	34.37	-6.44	36.75	-1.5316	-0.3513	-1.0995	
-0.76799	0.398208	0.526918	33.46	-6.51	35.63	-1.5454	-0.3573	-1.0963	
-0.75335	0.427488	0.5246	31.92	-6.44	34.72	-1.538	-0.36	-1.0859	
-0.737734	0.448472	0.535214	29.82	-5.53	33.81	-1.5382	-0.3658	-1.083	
-0.74481	0.471164	0.537288	27.72	-4.48	32.34	-1.5473	-0.3733	-1.083	
-0.747982	0.5002	0.531188	26.04	-3.71	29.82	-1.5474	-0.3792	-1.0831	
-0.731024	0.51362	0.530456	22.96	-3.29	27.09	-1.5565	-0.3867	-1.0876	
-0.71675	0.506544	0.522526	20.58	-3.01	24.29	-1.5581	-0.3941	-1.0847	
-0.690886	0.495564	0.521306	20.44	-2.03	21.63	-1.5536	-0.3955	-1.0817	
-0.690276	0.487634	0.50325	20.02	-1.19	19.18	-1.5536	-0.3955	-1.0833	
-0.697596	0.47214	0.48312	20.37	-0.7	17.15	-1.5537	-0.4058	-1.0834	
-0.70638	0.462868	0.460184	21.35	-1.68	16.87	-1.5643	-0.4029	-1.0817	
-0.694912	0.451156	0.448716	23.24	-3.08	17.5	-1.5568	-0.4117	-1.0805	
-0.697962	0.456646	0.446642	26.04	-5.46	18.34	-1.56	-0.416	-1.0744	
-0.714554	0.494466	0.4758	27.3	-7.56	20.44	-1.5663	-0.4174	-1.0653	
-0.73566	0.564616	0.507398	26.95	-9.52	23.8	-1.5679	-0.4308	-1.0685	
-0.736148	0.605364	0.512522	24.99	-10.36	26.04	-1.5726	-0.4351	-1.061	
-0.698816	0.614026	0.51362	21.28	-11.06	26.25	-1.5741	-0.4351	-1.0624	
-0.66246	0.626348	0.507886	18.62	-8.89	24.43	-1.5772	-0.4485	-1.0672	
-0.653676	0.629154	0.50081	17.57	-5.53	22.96	-1.5801	-0.4382	-1.0684	
-0.654286	0.622322	0.485072	15.89	-3.29	20.86	-1.5832	-0.4411	-1.0624	
-0.65392	0.605608	0.466528	14.77	-1.12	18.55	-1.5846	-0.4457	-1.073	
-0.656604	0.59719	0.452986	13.86	-1.33	16.45	-1.5787	-0.4485	-1.0641	
-0.660264	0.584136	0.431758	13.58	-2.24	15.33	-1.5865	-0.4618	-1.0642	
-0.657214	0.56791	0.417362	13.65	-4.55	15.54	-1.5912	-0.4573	-1.0534	
-0.650382	0.547536	0.403332	15.26	-6.02	15.96	-1.5911	-0.4647	-1.0596	
-0.658922	0.549244	0.397842	17.15	-8.96	16.94	-1.6003	-0.4588	-1.0503	
-0.648308	0.55205	0.408944	17.99	-11.69	19.18	-1.5956	-0.4693	-1.0642	
-0.650138	0.575962	0.425048	19.46	-14.49	21.77	-1.6002	-0.4648	-1.061	
-0.637694	0.586332	0.441762	20.44	-17.57	25.13	-1.6018	-0.4678	-1.058	
-0.637328	0.608048	0.44042	21.21	-19.39	28.14	-1.6202	-0.4826	-1.0549	
-0.632814	0.632326	0.448472	20.72	-21.21	29.89	-1.6187	-0.4796	-1.0503	
-0.61427	0.65087	0.465308	20.86	-21.35	30.31	-1.6249	-0.4825	-1.0442	
-0.59597	0.671244	0.49288	20.51	-20.58	30.45	-1.625	-0.4898	-1.0413	
-0.584624	0.688324	0.48922	21.28	-19.46	29.19	-1.6446	-0.4812	-1.0453	
-0.571326	0.712968	0.494588	20.93	-18.2	27.58	-1.6387	-0.4959	-1.0442	
-0.562542	0.740418	0.491782	21.28	-18.41	25.97	-1.6403	-0.5047	-1.0428	
-0.548878	0.751764	0.487634	19.46	-16.31	23.66	-1.6404	-0.5032	-1.0397	
-0.542168	0.760304	0.479948	18.69	-14.35	20.72	-1.6614	-0.5005	-1.0453	
-0.526064	0.764574	0.475678	17.15	-13.37	18.13	-1.6479	-0.4988	-1.038	
-0.514108	0.76006	0.468602	15.26	-11.55	15.89	-1.6601	-0.5033	-1.0363	
-0.504592	0.76189	0.461404	15.26	-10.85	14.28	-1.6696	-0.5254	-1.0305	
-0.491904	0.76433	0.46665	14.77	-9.8	12.32	-1.6604	-0.5165	-1.0305	
-0.48922	0.771528	0.462868	15.26	-9.1	10.64	-1.674	-0.5181	-1.0318	
-0.480558	0.768966	0.456402	12.88	-8.82	9.66	-1.68	-0.5197	-1.0347	
-0.470554	0.765306	0.4636	11.62	-8.61	8.47	-1.6696	-0.5194	-1.0244	
-0.457378	0.77592	0.462014	11.27	-8.05	7.98	-1.6725	-0.5285	-1.0366	
-0.447862	0.788486	0.436028	12.74	-7.07	8.33	-1.6847	-0.527	-1.0303	
-0.456036	0.78446	0.457622	7.77	-5.95	8.61	-1.6787	-0.5255	-1.0288	
-0.461404	0.798124	0.459086	8.68	-4.34	8.47	-1.6832	-0.5345	-1.0334	
-0.446276	0.804956	0.46482	5.46	-3.29	8.75	-1.6879	-0.5299	-1.0257	
-0.442982	0.807396	0.465796	5.32	-2.17	8.82	-1.6851	-0.5371	-1.0153	
-0.455304	0.814594	0.454816	4.62	-0.98	9.03	-1.6939	-0.5464	-1.035	
-0.461648	0.814106	0.446764	2.38	-0.7	8.89	-1.6817	-0.527	-1.0288	
-0.465308	0.817156	0.441518	2.45	1.05	8.19	-1.6909	-0.5329	-1.0272	
-0.466406	0.82838	0.432246	1.75	2.03	7	-1.6954	-0.5315	-1.0271	
-0.478118	0.835822	0.422486	0.07	2.45	6.23	-1.7017	-0.5403	-1.0211	
-0.474336	0.82167	0.418216	-2.52	2.1	5.04	-1.6787	-0.5329	-1.032	
-0.467992	0.817888	0.426878	-2.66	2.03	3.36	-1.6894	-0.527	-1.0226	
-0.462014	0.819352	0.421754	-2.24	3.22	1.12	-1.7015	-0.5331	-1.03	
-0.462502	0.813496	0.423462	-3.43	2.8	-0.35	-1.688	-0.5313	-1.0212	
-0.460428	0.809226	0.42334	-4.06	2.66	-1.75	-1.6926	-0.5477	-1.0244	
-0.462014	0.810812	0.428342	-4.13	2.38	-3.43	-1.6938	-0.5272	-1.0331	
-0.461038	0.819108	0.434686	-4.27	2.38	-4.9	-1.6971	-0.5314	-1.0195	
-0.467016	0.833138	0.431392	-4.27	2.45	-6.65	-1.691	-0.5269	-1.0196	
-0.46116	0.83021	0.428464	-6.3	1.96	-8.33	-1.6833	-0.527	-1.0273	
-0.46665	0.834846	0.424804	-7.07	1.82	-9.66	-1.6862	-0.5271	-1.0333	
-0.473482	0.82594	0.425536	-8.96	1.61	-11.13	-1.6877	-0.5212	-1.0301	
-0.468968	0.82045	0.43615	-10.64	1.68	-12.6	-1.6727	-0.5269	-1.0259	
-0.474702	0.82899	0.447008	-11.62	2.24	-14.28	-1.6892	-0.5227	-1.0331	
-0.479216	0.828136	0.449448	-13.16	2.45	-16.45	-1.674	-0.5225	-1.0319	
-0.490928	0.837774	0.448228	-14.21	3.08	-18.13	-1.6847	-0.5271	-1.0318	
-0.491538	0.825696	0.449692	-16.45	3.64	-20.23	-1.6709	-0.5166	-1.0334	
-0.49105	0.824232	0.46238	-18.62	4.48	-22.61	-1.6694	-0.5211	-1.038	
-0.503372	0.82167	0.464576	-18.48	6.72	-25.41	-1.6767	-0.514	-1.0453	
-0.510204	0.802272	0.467504	-21.14	8.19	-27.79	-1.6661	-0.5124	-1.047	
-0.511546	0.79056	0.475678	-23.66	9.8	-30.31	-1.6539	-0.5079	-1.0501	
-0.51362	0.787144	0.474092	-24.99	11.62	-33.11	-1.6567	-0.5007	-1.056	
-0.513986	0.763354	0.481534	-28.91	12.95	-35.77	-1.6464	-0.4973	-1.0395	
-0.522648	0.73749	0.479338	-30.17	14.14	-38.01	-1.6461	-0.4917	-1.053	
-0.533628	0.720898	0.47885	-30.94	15.19	-39.9	-1.637	-0.4916	-1.0532	
-0.551074	0.711138	0.477508	-31.29	15.68	-41.65	-1.6354	-0.4827	-1.0515	
-0.56791	0.689056	0.480924	-32.76	16.45	-43.4	-1.6278	-0.4797	-1.0532	
-0.589382	0.6649	0.477264	-33.53	16.38	-44.73	-1.6258	-0.4607	-1.0649	
-0.60268	0.646112	0.47275	-34.37	16.59	-46.06	-1.605	-0.4721	-1.0504	
-0.61854	0.625128	0.476776	-35.63	16.66	-46.9	-1.6018	-0.4647	-1.0534	
-0.63867	0.60573	0.48129	-36.47	17.08	-47.46	-1.5895	-0.4514	-1.0564	
-0.650016	0.586454	0.475068	-36.82	17.15	-47.81	-1.5878	-0.4427	-1.0653	
-0.653676	0.562298	0.46604	-37.03	17.36	-47.81	-1.5831	-0.4397	-1.0669	
-0.68259	0.536678	0.479094	-37.1	18.13	-47.81	-1.5859	-0.4251	-1.0726	
-0.701866	0.50935	0.488732	-39.27	18.13	-48.58	-1.5874	-0.4251	-1.0741	
-0.721752	0.481046	0.494588	-40.67	18.2	-49.49	-1.5599	-0.4087	-1.0788	
-0.714554	0.447008	0.496906	-40.18	18.2	-50.19	-1.569	-0.4043	-1.0725	
-0.72712	0.42395	0.49532	-39.62	18.2	-51.38	-1.5489	-0.3941	-1.0894	
-0.739076	0.400648	0.49471	-41.23	19.46	-52.01	-1.5476	-0.3924	-1.0788	
-0.76067	0.381494	0.480924	-40.74	20.37	-52.22	-1.5398	-0.3791	-1.0817	
-0.758718	0.346724	0.49227	-43.12	19.88	-51.94	-1.541	-0.3631	-1.0905	
-0.76616	0.307074	0.487756	-42.91	19.53	-51.31	-1.5393	-0.3513	-1.0933	
-0.786778	0.275476	0.49654	-42.84	19.81	-50.54	-1.5258	-0.3525	-1.086	
-0.806054	0.249246	0.482998	-43.47	20.02	-50.19	-1.5165	-0.3393	-1.0935	
-0.829722	0.21899	0.466162	-43.89	19.11	-50.61	-1.5103	-0.3364	-1.0981	
-0.828136	0.191906	0.456524	-43.75	17.36	-49.91	-1.509	-0.3227	-1.0783	
-0.83204	0.174704	0.455182	-44.03	15.82	-49.14	-1.4996	-0.3125	-1.0903	
-0.835456	0.155672	0.45201	-42.98	13.93	-47.81	-1.4919	-0.2918	-1.0886	
-0.841678	0.124196	0.44591	-43.26	11.69	-45.43	-1.4964	-0.2888	-1.0854	
-0.849242	0.098088	0.4514	-41.93	9.24	-42.84	-1.4977	-0.2906	-1.1006	
-0.842044	0.078568	0.454816	-40.46	6.65	-40.18	-1.4854	-0.2683	-1.0974	
-0.836554	0.054412	0.46543	-39.62	4.2	-37.1	-1.4825	-0.2621	-1.0852	
-0.851804	0.03416	0.471164	-37.24	3.29	-33.53	-1.4748	-0.2414	-1.0835	
-0.852414	0.008417999	0.482266	-35.49	2.38	-30.1	-1.4973	-0.2373	-1.0905	
-0.857782	-0.006954	0.493978	-32.48	0.77	-26.95	-1.4839	-0.2355	-1.0817	
-0.859856	-0.007929999	0.500444	-29.96	0.56	-24.85	-1.4882	-0.2372	-1.0907	
-0.86315	-0.016958	0.499956	-27.58	-0.14	-22.61	-1.4852	-0.2253	-1.086	
-0.854244	-0.0244	0.503128	-23.66	-0.7	-20.65	-1.4835	-0.2106	-1.0888	
-0.858514	-0.023424	0.509472	-22.26	-0.7	-18.76	-1.4804	-0.2181	-1.095	
-0.86315	-0.027694	0.501542	-18.41	0.49	-17.57	-1.482	-0.2106	-1.0888	
-0.861808	-0.022448	0.50386	-16.8	-0.14	-16.03	-1.4819	-0.1943	-1.0855	
-0.857416	-0.013664	0.505324	-14.7	-0.14	-15.4	-1.4879	-0.2078	-1.0932	
-0.854488	-0.010248	0.50691	-13.51	-0.07	-14.63	-1.4773	-0.2032	-1.0888	
-0.86071	-0.005246	0.500566	-12.25	0.21	-14.14	-1.488	-0.2047	-1.0871	
-0.864248	-0.000976	0.49776	-10.71	-0.07	-14.28	-1.4864	-0.1884	-1.0823	
-0.86437	0.00305	0.503006	-10.85	-0.35	-14.63	-1.4818	-0.1869	-1.0839	
-0.861564	0.00671	0.503616	-10.78	-0.35	-15.19	-1.4772	-0.1899	-1.0916	
-0.864614	0.00976	0.499712	-10.57	-0.28	-15.82	-1.4862	-0.1871	-1.0944	
-0.869372	0.010126	0.493002	-10.36	-0.14	-16.45	-1.4833	-0.1869	-1.0853	
-0.877912	0.007808	0.497638	-11.69	0.35	-17.29	-1.4799	-0.1768	-1.0973	
-0.873398	0.01281	0.483974	-12.39	-0.77	-18.34	-1.4863	-0.1856	-1.0883	
-0.872544	0.007198	0.479216	-14.77	-0.91	-19.39	-1.5042	-0.1741	-1.0953	
-0.88023	-0.002196	0.48312	-15.68	-1.96	-19.46	-1.4708	-0.1693	-1.0974	
-0.880962	-0.01037	0.485316	-17.5	-3.01	-20.02	-1.4861	-0.1678	-1.0865	
-0.867664	-0.015128	0.49044	-18.62	-3.92	-21	-1.483	-0.1664	-1.0925	
-0.861808	-0.022448	0.485926	-19.95	-5.18	-21.49	-1.4844	-0.1576	-1.0924	
-0.863272	-0.034892	0.489342	-20.93	-4.27	-21.56	-1.4905	-0.1666	-1.0969	
-0.861442	-0.044164	0.487268	-23.45	-5.46	-21.56	-1.4814	-0.1516	-1.0878	
-0.861076	-0.064172	0.485926	-29.89	-5.46	-22.12	-1.4829	-0.1486	-1.0862	
-0.856196	-0.069662	0.4819	-27.02	-7.14	-21.98	-1.4919	-0.1473	-1.092	
-0.855586	-0.080398	0.482754	-26.95	-7.21	-22.26	-1.4736	-0.1383	-1.0922	
-0.859368	-0.095648	0.483608	-26.81	-7	-22.82	-1.4962	-0.1401	-1.0994	
-0.85156	-0.123708	0.48251	-27.93	-7	-23.66	-1.4887	-0.1221	-1.0856	
-0.854976	-0.14762	0.482266	-30.31	-8.47	-24.36	-1.4948	-0.1117	-1.0792	
-0.852536	-0.175192	0.482876	-31.29	-10.71	-24.64	-1.4991	-0.1045	-1.0866	
-0.837896	-0.193126	0.47702	-31.92	-12.11	-25.55	-1.4991	-0.1106	-1.0927	
-0.83875	-0.205448	0.480192	-30.59	-11.9	-27.09	-1.5006	-0.0986	-1.0849	
-0.841068	-0.221308	0.478484	-29.68	-12.88	-28.98	-1.5172	-0.0929	-1.086	
-0.828624	-0.231556	0.487146	-29.96	-14.63	-30.66	-1.5007	-0.0822	-1.071	
-0.817156	-0.243268	0.49471	-36.4	-17.78	-33.32	-1.5263	-0.0885	-1.0827	
-0.787022	-0.258152	0.49166	-34.16	-17.01	-34.93	-1.5155	-0.0707	-1.0826	
-0.790926	-0.26413	0.499956	-31.71	-16.03	-36.61	-1.5201	-0.0678	-1.0825	
-0.787876	-0.273646	0.500078	-31.08	-15.26	-38.57	-1.5319	-0.0608	-1.0942	
-0.790072	-0.28548	0.512278	-32.41	-16.59	-40.04	-1.529	-0.0457	-1.0804	
-0.763842	-0.30622	0.510814	-34.65	-18.2	-40.67	-1.5457	-0.0414	-1.077	
-0.75579	-0.32818	0.513742	-35.42	-17.29	-40.95	-1.5501	-0.0416	-1.0829	
-0.74664	-0.346114	0.517524	-36.47	-16.1	-41.58	-1.5531	-0.0372	-1.0813	
-0.723216	-0.357704	0.518988	-36.75	-17.92	-41.37	-1.5498	-0.0135	-1.0824	
-0.728828	-0.37515	0.516426	-37.66	-17.22	-40.81	-1.556	-0.0179	-1.0764	
-0.72773	-0.383812	0.507154	-36.05	-16.8	-40.46	-1.5666	-0.0077	-1.0745	
-0.709308	-0.404186	0.501664	-37.45	-19.53	-39.69	-1.565	-0.0136	-1.0791	
-0.697108	-0.432002	0.50203	-36.12	-20.51	-38.57	-1.5696	0.0071	-1.0681	
-0.677344	-0.447008	0.50447	-32.13	-20.16	-37.66	-1.5819	-0.0062	-1.0666	
-0.663192	-0.444324	0.496052	-31.78	-21.35	-37.38	-1.5908	0.0098	-1.0691	
-0.660386	-0.47275	0.496906	-36.47	-22.12	-36.68	-1.5815	0.0127	-1.0753	
-0.655506	-0.501298	0.498614	-33.74	-21.35	-36.82	-1.5968	0.0291	-1.0596	
-0.62647	-0.516182	0.490074	-30.66	-22.12	-36.82	-1.6013	0.032	-1.0595	
-0.602436	-0.53436	0.493978	-31.43	-24.36	-37.17	-1.5997	0.0394	-1.0594	
-0.601216	-0.565226	0.502396	-33.67	-25.76	-36.96	-1.6117	0.045	-1.0651	
-0.610488	-0.604266	0.51423	-34.44	-23.24	-37.17	-1.6179	0.0451	-1.0589	
-0.60146	-0.603534	0.50935	-29.54	-19.74	-37.45	-1.624	0.0555	-1.0511	
-0.583404	-0.620492	0.504226	-31.43	-23.31	-37.31	-1.6361	0.0494	-1.054	
-0.546682	-0.643672	0.49715	-28.42	-24.43	-37.8	-1.6467	0.0657	-1.0474	
-0.541192	-0.659288	0.486414	-26.11	-23.59	-38.43	-1.659	0.0612	-1.0397	
-0.526552	-0.662582	0.49044	-26.11	-26.11	-38.78	-1.6497	0.0716	-1.0427	
-0.55693	-0.689178	0.497272	-28	-22.61	-37.94	-1.6711	0.073	-1.0362	
-0.538508	-0.699426	0.501908	-26.46	-17.92	-35.28	-1.6679	0.0788	-1.0422	
-0.528138	-0.723216	0.502152	-27.23	-18.48	-32.06	-1.6861	0.0757	-1.0435	
-0.507398	-0.726876	0.505934	-22.89	-18.69	-28.84	-1.6784	0.0861	-1.0434	
-0.498858	-0.73383	0.505568	-21.28	-17.64	-26.25	-1.6785	0.08769999	-1.0343	
-0.478972	-0.73566	0.500688	-19.74	-18.13	-24.15	-1.689	0.0845	-1.0417	
-0.473238	-0.757986	0.49898	-20.44	-16.94	-22.26	-1.6968	0.0891	-1.0294	
-0.463478	-0.76555	0.488976	-16.87	-14.07	-20.72	-1.7073	0.0949	-1.0306	
-0.461892	-0.77714	0.488366	-15.89	-12.53	-19.18	-1.7106	0.0891	-1.0231	
-0.462258	-0.79239	0.482266	-14.77	-11.13	-17.64	-1.7076	0.0951	-1.0185	
-0.468602	-0.808738	0.489708	-13.02	-7.77	-16.38	-1.7183	0.0966	-1.0107	
-0.453474	-0.8113	0.484096	-10.29	-6.23	-14.84	-1.7149	0.1023	-1.0243	
-0.435418	-0.80459	0.47641	-7.21	-4.97	-12.81	-1.7241	0.0889	-1.0274	
-0.417362	-0.80032	0.480802	-5.88	-4.06	-10.92	-1.7197	0.0964	-1.0183	
-0.412848	-0.79727	0.474214	-4.34	-1.89	-9.17	-1.7195	0.1141	-1.0179	
-0.406504	-0.78019	0.467138	-3.29	-0.49	-7.35	-1.7181	0.1097	-1.0165	
-0.406382	-0.771162	0.464698	-3.29	-0.21	-5.81	-1.7197	0.1069	-1.012	
-0.408578	-0.769698	0.46482	-5.11	-0.56	-4.55	-1.7243	0.1068	-1.0104	
-0.410652	-0.754814	0.462746	-4.83	0.77	-3.5	-1.7361	0.1109	-1.0222	
-0.414556	-0.748958	0.459696	-7.21	-0.21	-2.24	-1.718	0.1037	-1.0242	
-0.414312	-0.746884	0.456402	-8.05	-0.49	-1.12	-1.7304	0.1039	-1.0089	
-0.417606	-0.751886	0.461648	-9.17	-0.7	-0.28	-1.7242	0.1068	-1.0119	
-0.418582	-0.766648	0.455426	-11.55	-1.61	0.07	-1.7194	0.1081	-1.0241	
-0.42029	-0.767502	0.452742	-10.5	-0.42	0	-1.7241	0.1156	-1.0133	
-0.421876	-0.773846	0.452132	-11.27	-1.19	0.21	-1.7317	0.1126	-1.0132	
-0.428098	-0.789584	0.45018	-11.97	-0.42	0	-1.7363	0.1111	-1.0116	
-0.429928	-0.787022	0.445666	-9.1	0.63	-0.14	-1.7301	0.12	-1.0146	
-0.434808	-0.783362	0.445056	-7.21	1.26	0.42	-1.7272	0.1172	-1.0087	
-0.446032	-0.800686	0.445178	-8.4	0.63	1.33	-1.7318	0.1157	-1.0071	
-0.446032	-0.830576	0.442616	-8.05	1.47	2.38	-1.7274	0.1218	-0.9949999	
-0.436882	-0.829966	0.439688	-5.04	2.59	3.5	-1.7197	0.1247	-1.0026	
-0.43127	-0.8235	0.435662	-2.38	3.29	4.34	-1.7199	0.1145	-0.9953	
-0.430538	-0.812764	0.43005	0.07	3.85	4.83	-1.726	0.1174	-0.9936	
-0.437248	-0.809104	0.428952	2.03	4.41	5.67	-1.7197	0.1232	-1.0027	
-0.445788	-0.823256	0.439566	0.7	4.2	7.28	-1.7107	0.1116	-1.0015	
-0.449082	-0.829722	0.44347	2.45	6.58	9.45	-1.7273	0.1128	-1.0057	
-0.439444	-0.823988	0.442982	4.34	7.98	11.97	-1.7153	0.113	-0.9999	
-0.42944	-0.801174	0.42822	6.37	8.05	14.28	-1.7105	0.1158	-1.012	
-0.443348	-0.805688	0.436272	2.03	8.05	15.33	-1.7076	0.11	-1.0062	
-0.45445	-0.806542	0.439932	11.48	9.45	15.75	-1.7047	0.1042	-1.0048	
-0.462624	-0.822768	0.441884	7.84	10.71	18.27	-1.7166	0.1098	-1.0135	
-0.475678	-0.824232	0.437614	12.46	12.53	20.16	-1.6925	0.1132	-1.0034	
-0.472628	-0.808006	0.43676	17.78	11.83	21.91	-1.6925	0.1042	-1.0081	
-0.477874	-0.809836	0.435052	19.11	11.97	24.01	-1.697	0.1057	-1.0079	
-0.481778	-0.795806	0.428342	25.13	12.67	25.48	-1.6878	0.1056	-1.0172	
-0.489464	-0.784826	0.43249	26.81	14.07	26.95	-1.688	0.1013	-1.0097	
-0.503738	-0.771772	0.43859	29.19	15.47	28.35	-1.6833	0.0953	-1.0205	
-0.514962	-0.761524	0.44164	32.2	17.57	29.96	-1.668	0.0968	-1.0253	
-0.522526	-0.746152	0.443836	34.3	20.3	31.64	-1.668	0.09079999	-1.0299	
-0.524722	-0.726388	0.457378	36.33	22.47	32.83	-1.6695	0.0878	-1.0315	
-0.538874	-0.699914	0.453474	39.76	22.75	34.3	-1.6604	0.0775	-1.0379	
-0.565836	-0.68381	0.453596	41.58	24.01	35.84	-1.6376	0.0881	-1.0351	
-0.585112	-0.661606	0.456158	42.7	23.38	37.24	-1.636	0.0716	-1.0505	
-0.604632	-0.636352	0.460672	43.68	23.94	38.71	-1.6363	0.054	-1.0433	
-0.615124	-0.610122	0.461404	44.38	24.71	39.83	-1.6316	0.0659	-1.0432	
-0.621956	-0.582428	0.467748	45.78	24.15	41.16	-1.6179	0.0511	-1.0528	
-0.634644	-0.564128	0.46665	43.47	23.03	42.7	-1.615	0.0422	-1.0545	
-0.649528	-0.533994	0.463722	44.38	21.84	43.96	-1.6043	0.0379	-1.0578	
-0.662582	-0.520696	0.481168	41.93	22.4	44.59	-1.5936	0.026	-1.0688	
-0.674172	-0.501786	0.476654	41.23	22.89	45.99	-1.5983	0.0246	-1.0612	
-0.668926	-0.476288	0.478972	40.25	22.33	47.04	-1.577	0.0173	-1.0708	
-0.683688	-0.459818	0.483242	40.11	21.91	48.09	-1.5787	0.004	-1.071	
-0.700036	-0.440054	0.488488	38.36	22.75	48.3	-1.5604	0.0115	-1.0727	
-0.715896	-0.423096	0.491782	37.8	25.62	48.3	-1.5638	0.0014	-1.0592	
-0.736392	-0.407968	0.487268	36.33	24.43	48.51	-1.5468	-0.0045	-1.0748	
-0.746884	-0.38552	0.481168	37.66	23.66	48.37	-1.5518	-0.031	-1.0691	
-0.758718	-0.362706	0.473238	38.08	22.26	47.74	-1.5486	-0.0296	-1.0737	
-0.764574	-0.340136	0.476776	37.31	18.83	47.67	-1.5365	-0.0414	-1.0817	
-0.785436	-0.32635	0.471408	39.06	19.25	46.69	-1.5304	-0.0443	-1.0819	
-0.78995	-0.301096	0.474336	37.8	16.45	46.62	-1.5322	-0.0471	-1.0713	
-0.805932	-0.285114	0.48373	36.82	15.68	47.18	-1.5277	-0.0574	-1.0746	
-0.823378	-0.253638	0.475678	36.96	14	47.74	-1.5123	-0.0634	-1.0886	
-0.828624	-0.225822	0.482022	36.96	12.67	48.72	-1.514	-0.0737	-1.0872	
-0.82533	-0.187148	0.487634	37.38	12.11	48.93	-1.5019	-0.078	-1.086	
-0.835944	-0.164456	0.485804	37.17	12.53	48.79	-1.5066	-0.0958	-1.0863	
-0.849486	-0.134444	0.46848	37.52	11.83	48.93	-1.5069	-0.0926	-1.0726	
-0.851072	-0.11102	0.467626	35.77	10.08	48.65	-1.4963	-0.1073	-1.0791	
-0.843752	-0.091012	0.462746	35.7	9.59	48.79	-1.4946	-0.109	-1.0898	
-0.846924	-0.066612	0.462136	33.67	7.49	48.65	-1.4856	-0.1221	-1.0887	
-0.856318	-0.04392	0.45811	32.2	5.53	48.16	-1.4829	-0.1293	-1.0783	
-0.859612	-0.016226	0.45506	31.99	5.04	47.25	-1.4965	-0.1369	-1.0842	
-0.854854	0.014274	0.45567	30.24	2.73	45.78	-1.4906	-0.1486	-1.0785	
-0.861076	0.050508	0.458476	28.14	1.61	42.7	-1.4922	-0.1589	-1.0786	
-0.868396	0.082106	0.462746	25.34	0.77	38.85	-1.4801	-0.1707	-1.0881	
-0.864126	0.103212	0.466406	22.26	-1.54	34.58	-1.4818	-0.187	-1.0869	
-0.863028	0.10492	0.471774	19.32	-2.17	29.82	-1.4786	-0.187	-1.0915	
-0.867542	0.111874	0.478362	16.59	-1.4	24.92	-1.4789	-0.1957	-1.0826	
-0.869006	0.124074	0.489586	13.23	-1.89	20.16	-1.4849	-0.1914	-1.0839	
-0.874862	0.126148	0.491172	11.62	-1.68	16.03	-1.4817	-0.187	-1.0899	
-0.875716	0.119804	0.493612	10.15	-0.98	12.88	-1.4681	-0.1868	-1.0871	
-0.868152	0.108336	0.495686	9.24	-0.63	10.57	-1.4788	-0.1988	-1.0917	
-0.874496	0.08967	0.496418	8.82	-0.84	8.54	-1.491	-0.1973	-1.0839	
-0.873764	0.075762	0.490196	8.89	-0.84	7	-1.4744	-0.212	-1.089	
-0.873154	0.058194	0.489342	8.54	-1.61	6.44	-1.4819	-0.1943	-1.0825	
-0.86498	0.04758	0.48739	8.61	-2.03	6.65	-1.4698	-0.1971	-1.0858	
-0.86742	0.026352	0.488976	9.8	-2.17	7.7	-1.4803	-0.2002	-1.0887	
-0.8784	0.002196	0.481046	11.83	-2.73	9.52	-1.4833	-0.2078	-1.0978	
-0.887794	-0.017568	0.475434	14.07	-3.92	11.27	-1.4774	-0.215	-1.0905	
-0.882792	-0.02562	0.470432	16.59	-5.11	13.23	-1.4835	-0.2165	-1.0889	
-0.881816	-0.02928	0.464454	20.3	-6.09	15.61	-1.479	-0.2046	-1.0842	
-0.888282	-0.026718	0.45994	22.89	-7.7	18.2	-1.479	-0.2179	-1.0875	
-0.896944	-0.025864	0.454572	24.78	-9.73	20.93	-1.4895	-0.23	-1.0981	
-0.893772	-0.015494	0.447984	27.09	-11.48	23.73	-1.4821	-0.2388	-1.0984	
-0.883646	-0.014396	0.446764	30.1	-14.49	27.09	-1.4822	-0.2372	-1.0923	
-0.878888	-0.007686	0.448838	31.57	-17.64	30.52	-1.4927	-0.2418	-1.0983	
-0.872788	0.005002	0.44835	34.44	-19.81	34.02	-1.496	-0.249	-1.0877	
-0.867664	0.02684	0.46055	36.54	-22.47	37.45	-1.5005	-0.2565	-1.0923	
-0.857172	0.058072	0.471652	39.27	-25.34	40.88	-1.5082	-0.264	-1.0923	
-0.841922	0.085278	0.472506	42.14	-27.37	44.52	-1.5051	-0.2685	-1.0985	
-0.828014	0.110776	0.471042	45.85	-28.21	48.23	-1.5112	-0.2937	-1.1064	
-0.805078	0.139934	0.472262	50.89	-28.98	51.31	-1.5144	-0.2951	-1.1003	
-0.787144	0.189344	0.47763	53.9	-31.71	54.18	-1.5161	-0.298	-1.0943	
-0.782874	0.24217	0.47336	55.16	-31.5	56.14	-1.5297	-0.3115	-1.1003	
-0.77531	0.283528	0.478118	55.44	-32.06	58.66	-1.533	-0.3247	-1.096	
-0.74481	0.314882	0.47946	56.77	-32.55	59.92	-1.542	-0.3338	-1.105	
-0.695644	0.330864	0.492026	59.29	-32.55	61.88	-1.5544	-0.3456	-1.0974	
-0.674538	0.375272	0.489464	60.55	-31.71	62.23	-1.5574	-0.362	-1.1037	
-0.667218	0.42517	0.512888	62.16	-32.69	61.18	-1.5668	-0.3767	-1.0963	
-0.641842	0.46726	0.514108	60.83	-30.31	60.83	-1.5758	-0.3828	-1.1038	
-0.620004	0.493124	0.528382	59.57	-30.03	60.34	-1.5777	-0.3973	-1.0919	
-0.601338	0.508008	0.508984	60.55	-27.86	59.08	-1.6006	-0.4048	-1.0856	
-0.586332	0.522038	0.507276	60.62	-28.42	56.84	-1.6055	-0.415	-1.0736	
-0.583892	0.563396	0.474824	63.49	-27.79	55.16	-1.6088	-0.4327	-1.0708	
-0.594506	0.60085	0.500566	61.04	-28.42	55.86	-1.6238	-0.4463	-1.0828	
-0.59536	0.62464	0.50386	60.34	-29.68	55.58	-1.6331	-0.4581	-1.0768	
-0.559492	0.642452	0.50081	60.27	-29.96	53.76	-1.6469	-0.4596	-1.0705	
-0.498126	0.656482	0.499712	57.26	-31.29	51.31	-1.6488	-0.4815	-1.0603	
-0.475312	0.68625	0.508008	57.75	-32.34	49.07	-1.655	-0.483	-1.0572	
-0.478118	0.715774	0.48495	62.09	-28.91	47.88	-1.6657	-0.486	-1.0525	
-0.471408	0.746762	0.484706	59.5	-27.65	47.39	-1.672	-0.4992	-1.0466	
-0.47214	0.770918	0.488366	57.12	-27.23	46.13	-1.6708	-0.5078	-1.0362	
-0.45323	0.798978	0.482876	57.61	-26.18	44.8	-1.6938	-0.5108	-1.0237	
-0.430782	0.827648	0.476288	55.72	-25.41	43.19	-1.6968	-0.5272	-1.0346	
-0.41602	0.833504	0.469334	52.85	-25.13	42.21	-1.7078	-0.5359	-1.0179	
-0.391864	0.851926	0.457866	52.22	-23.38	39.62	-1.7262	-0.5433	-1.0071	
-0.375028	0.86864	0.452742	49.49	-22.19	37.94	-1.7185	-0.5492	-1.0164	
-0.368562	0.90036	0.438346	49.42	-19.46	37.1	-1.7293	-0.5537	-1.0102	
-0.351848	0.902434	0.42517	43.82	-17.92	36.4	-1.7449	-0.5654	-0.9966	
-0.348066	0.917318	0.422364	41.37	-15.54	35.7	-1.7446	-0.5581	-1.004	
-0.33367	0.926834	0.406138	38.43	-14.07	34.44	-1.757	-0.5669	-0.9933	
-0.31598	0.928908	0.3965	33.81	-12.18	33.32	-1.759	-0.571	-0.9752	
-0.300242	0.932568	0.384788	33.46	-12.18	32.34	-1.7635	-0.5815	-0.9829	
-0.288286	0.944768	0.37149	30.1	-10.08	30.45	-1.7713	-0.5799	-0.9705999	
-0.282674	0.961238	0.354654	28.14	-8.82	28.28	-1.7759	-0.5903	-0.9707	
-0.267668	0.97966	0.335622	27.16	-7.35	26.46	-1.7788	-0.58	-0.9705	
-0.251076	0.990274	0.329766	22.33	-7.28	24.01	-1.7852	-0.5842	-0.9584	
-0.238754	1.001498	0.332816	17.01	-6.93	21.42	-1.7912	-0.5933	-0.9644	
-0.235704	1.00772	0.33184	10.71	-5.32	18.97	-1.802	-0.5872	-0.952	
-0.227774	1.005646	0.337452	3.01	-4.9	16.17	-1.7929	-0.5946	-0.9569	
-0.210328	1.004304	0.344406	-2.8	-4.9	13.51	-1.8064	-0.5978	-0.9626999	
-0.203008	1.003816	0.349286	-4.41	-3.36	10.92	-1.7974	-0.5977	-0.9599	
-0.20923	0.99064	0.350506	-7.56	-1.4	8.75	-1.8078	-0.5979	-0.9687	
-0.213744	0.983442	0.347456	-9.1	-0.98	7	-1.8033	-0.5963	-0.9658	
-0.2196	0.984784	0.350262	-7.98	0	4.62	-1.8066	-0.5962	-0.9551	
-0.223138	0.974292	0.350262	-3.71	1.26	1.47	-1.8171	-0.5904	-0.9533	
-0.22265	0.966118	0.346114	0.21	2.24	-0.98	-1.8001	-0.5861	-0.9717	
-0.228018	0.964166	0.33855	1.75	2.38	-2.31	-1.8064	-0.5815	-0.9579	
-0.231312	0.95953	0.341844	-0.84	1.82	-3.99	-1.8081	-0.5933	-0.9551	
-0.233264	0.956236	0.340502	-1.54	1.82	-5.32	-1.8093	-0.5816	-0.9608999	
-0.235216	0.963556	0.334158	-0.14	1.89	-6.3	-1.8048	-0.5874	-0.9611	
-0.247294	0.963312	0.338672	-4.76	0.77	-7.56	-1.8049	-0.5933	-0.9612	
-0.25315	0.964044	0.329156	-6.79	-0.42	-8.89	-1.8033	-0.5875	-0.9641	
-0.253638	0.970388	0.338672	-13.23	-2.59	-10.15	-1.8017	-0.5905	-0.9672	
-0.252906	0.96075	0.350872	-18.27	-2.94	-11.9	-1.7912	-0.5858	-0.9598	
-0.255834	0.965996	0.366122	-18.69	-3.43	-13.3	-1.7924	-0.5817	-0.9763	
-0.261812	0.975878	0.354532	-17.85	-4.06	-14.21	-1.7955	-0.5846	-0.9718	
-0.274378	0.972462	0.363804	-24.36	-3.99	-15.96	-1.7922	-0.5833	-0.9839	
-0.269986	0.975268	0.382348	-29.4	-3.71	-17.71	-1.7878	-0.5772	-0.9748	
-0.272182	0.965142	0.402478	-34.23	-3.5	-20.16	-1.7877	-0.5803	-0.9824	
-0.26779	0.945744	0.417606	-37.94	-1.33	-22.26	-1.7892	-0.5729	-0.9807	
-0.267912	0.930738	0.433222	-37.59	-0.56	-24.29	-1.792	-0.5686	-0.9866	
-0.272182	0.921466	0.437858	-35.77	2.24	-26.88	-1.7813	-0.5597	-0.9897	
-0.28365	0.906948	0.440664	-34.72	4.41	-28.7	-1.778	-0.5584	-1.0003	
-0.294874	0.898286	0.444568	-35.84	4.83	-30.17	-1.7764	-0.56	-1.0095	
-0.310978	0.883402	0.456646	-37.52	6.58	-32.06	-1.7673	-0.5554	-1.005	
-0.323178	0.867664	0.462258	-38.64	8.05	-33.46	-1.7627	-0.5509	-1.005	
-0.333304	0.851438	0.478484	-42.42	9.38	-34.65	-1.7686	-0.5512	-1.0155	
-0.349286	0.82655	0.476532	-42.07	11.62	-35.63	-1.7533	-0.5407	-1.0171	
-0.36783	0.805444	0.481168	-41.86	12.67	-35.84	-1.7503	-0.5348	-1.014	
-0.38613	0.790072	0.479948	-40.04	14.35	-36.61	-1.7485	-0.538	-1.0292	
-0.407114	0.771284	0.488366	-41.3	14.35	-37.17	-1.7282	-0.5249	-1.0536	
-0.42212	0.748226	0.499468	-42.14	14.07	-37.66	-1.7238	-0.5218	-1.046	
-0.430538	0.729316	0.511668	-41.51	13.58	-37.73	-1.722	-0.5056	-1.0503	
-0.451766	0.723948	0.524356	-41.16	13.09	-38.08	-1.7205	-0.5042	-1.0518	
-0.46421	0.710284	0.532042	-42.14	13.09	-39.27	-1.7051	-0.4953	-1.0565	
-0.474458	0.708698	0.548024	-42.77	13.44	-40.81	-1.7081	-0.4939	-1.0594	
-0.48922	0.708454	0.558882	-44.45	15.12	-42.35	-1.7097	-0.4849	-1.0517	
-0.5002	0.688568	0.556198	-46.13	16.73	-43.54	-1.6883	-0.4878	-1.0612	
-0.51911	0.665144	0.569374	-47.39	17.43	-45.08	-1.6895	-0.4702	-1.0669	
-0.539972	0.646966	0.581452	-49.21	20.37	-46.48	-1.6802	-0.4659	-1.0761	
-0.558638	0.632692	0.580964	-49.91	21.77	-48.37	-1.6698	-0.4611	-1.0641	
-0.564738	0.597922	0.588162	-52.08	21.63	-50.26	-1.6696	-0.4539	-1.0715	
-0.569374	0.573766	0.597434	-53.76	22.26	-51.73	-1.6508	-0.4438	-1.0944	
-0.571814	0.536678	0.600118	-56.91	23.66	-52.99	-1.6568	-0.438	-1.0972	
-0.583404	0.499712	0.606096	-58.03	24.29	-53.83	-1.6445	-0.4232	-1.0986	
-0.589504	0.464942	0.599752	-57.54	26.53	-54.11	-1.6325	-0.4111	-1.0881	
-0.60573	0.431026	0.59719	-57.96	27.51	-53.62	-1.6187	-0.4081	-1.0913	
-0.626592	0.400526	0.588284	-56.56	27.86	-53.13	-1.6061	-0.3876	-1.1093	
-0.638914	0.354044	0.581086	-57.12	29.47	-52.57	-1.6045	-0.3698	-1.103	
-0.651968	0.319762	0.580354	-56.63	28.49	-51.87	-1.5996	-0.3656	-1.1181	
-0.67283	0.290482	0.58438	-55.93	29.68	-49.91	-1.586	-0.355	-1.1106	
-0.691008	0.259616	0.57767	-53.27	30.24	-48.51	-1.5767	-0.3417	-1.1136	
-0.710284	0.229482	0.570716	-51.45	29.4	-46.62	-1.5796	-0.3299	-1.1133	
-0.730414	0.208498	0.56974	-48.65	29.12	-45.71	-1.5676	-0.3297	-1.109	
-0.746762	0.18117	0.556808	-46.27	29.05	-44.38	-1.5615	-0.3193	-1.1059	
-0.743712	0.170922	0.534238	-43.89	28.7	-43.68	-1.5537	-0.3016	-1.1087	
-0.752862	0.148718	0.534726	-40.81	27.3	-41.37	-1.5415	-0.3045	-1.1151	
-0.778604	0.120658	0.528748	-37.45	25.76	-38.64	-1.5398	-0.2809	-1.1132	
-0.798734	0.106018	0.528748	-35.56	24.71	-36.82	-1.5323	-0.2822	-1.1073	
-0.810568	0.085034	0.526918	-34.93	21.07	-34.09	-1.5382	-0.2705	-1.11	
-0.810568	0.068076	0.517768	-32.41	19.46	-31.08	-1.5398	-0.2645	-1.1023	
-0.804712	0.048312	0.518622	-30.45	16.87	-27.93	-1.5306	-0.2511	-1.1037	
-0.814472	0.031476	0.521794	-28.42	16.31	-24.71	-1.5215	-0.2525	-1.1055	
-0.82289	0.02135	0.524356	-26.04	14.35	-21.42	-1.5183	-0.2422	-1.1053	
-0.832772	0.01037	0.52399	-22.96	12.6	-18.55	-1.5076	-0.2347	-1.1069	
-0.845704	0.001952	0.525698	-20.79	11.2	-16.52	-1.5242	-0.238	-1.1142	
-0.85156	0.001342	0.523258	-18.41	9.8	-15.75	-1.5242	-0.2305	-1.108	
-0.849608	0.003782	0.52277	-16.45	7.7	-15.05	-1.5153	-0.2332	-1.0977	
-0.84546	0.006832	0.526674	-15.54	5.88	-14.14	-1.5106	-0.2259	-1.1067	
-0.845948	0.011102	0.524112	-12.88	4.27	-13.02	-1.5076	-0.2184	-1.0991	
-0.84546	0.018178	0.532408	-11.9	3.22	-12.25	-1.5075	-0.2214	-1.1036	
-0.833992	0.033306	0.542778	-12.25	2.38	-12.74	-1.5047	-0.2257	-1.0962	
-0.831186	0.054778	0.548268	-12.67	2.24	-13.23	-1.5029	-0.214	-1.1036	
-0.840336	0.075518	0.543876	-14	2.52	-13.44	-1.506	-0.2154	-1.1005	
-0.837896	0.077348	0.532774	-13.86	2.8	-13.93	-1.5001	-0.2123	-1.093	
-0.83143	0.075884	0.53253	-14.98	2.24	-14.56	-1.5013	-0.2051	-1.1035	
-0.838262	0.076372	0.525088	-16.03	2.03	-15.05	-1.5044	-0.1992	-1.1003	
-0.86193	0.077592	0.516304	-17.36	2.03	-16.59	-1.5089	-0.1993	-1.1002	
-0.86986	0.06893	0.511668	-22.82	1.19	-19.81	-1.5026	-0.1979	-1.1109	
-0.864736	0.05856	0.507886	-26.81	0.56	-22.26	-1.5073	-0.1934	-1.1016	
-0.869006	0.052704	0.513864	-30.24	-1.26	-24.01	-1.504	-0.1787	-1.106	
-0.868152	0.038308	0.506666	-34.16	-0.98	-25.97	-1.4995	-0.1756	-1.1045	
-0.854732	0.024766	0.503616	-35.07	-4.55	-27.09	-1.5072	-0.1712	-1.0967	
-0.85217	0.015372	0.504104	-37.38	-7.35	-28.98	-1.5103	-0.1622	-1.0874	
-0.837774	-0.001952	0.49166	-38.99	-6.79	-30.31	-1.504	-0.1534	-1.0964	
-0.834846	-0.006222	0.497516	-40.39	-9.73	-30.66	-1.522	-0.1478	-1.1005	
-0.837774	-0.022692	0.497028	-42.21	-7.98	-32.2	-1.5174	-0.1374	-1.0974	
-0.834724	-0.037088	0.502396	-43.4	-9.31	-33.11	-1.5113	-0.1225	-1.0957	
-0.822646	-0.04819	0.49898	-46.62	-11.55	-34.09	-1.5128	-0.124	-1.0972	
-0.811178	-0.05429	0.492636	-45.78	-13.79	-33.74	-1.5096	-0.1092	-1.0955	
-0.804468	-0.063318	0.49654	-49.7	-13.23	-33.32	-1.5247	-0.1065	-1.0997	
-0.801906	-0.0854	0.491538	-52.92	-14	-32.76	-1.5304	-0.0875	-1.1068	
-0.805444	-0.110532	0.493002	-52.15	-13.37	-33.53	-1.5246	-0.0901	-1.0919	
-0.80581	-0.15006	0.493978	-57.19	-16.1	-34.65	-1.5229	-0.0681	-1.0945	
-0.790682	-0.196664	0.497638	-56.63	-16.87	-36.4	-1.5275	-0.0665	-1.0868	
-0.783728	-0.230702	0.5002	-58.31	-18.41	-38.57	-1.5395	-0.0548	-1.0864	
-0.790316	-0.277916	0.490074	-56.35	-18.55	-42.49	-1.5334	-0.0473	-1.0849	
-0.759084	-0.317688	0.48556	-54.74	-19.67	-47.18	-1.5411	-0.0369	-1.0755	
-0.72773	-0.364048	0.501664	-57.26	-23.03	-51.31	-1.5484	-0.0328	-1.0873	
-0.702598	-0.408578	0.505934	-58.73	-23.94	-55.79	-1.5544	-0.0225	-1.0855	
-0.700768	-0.430172	0.504714	-55.44	-22.82	-59.01	-1.5711	-0.0107	-1.0759	
-0.700646	-0.447862	0.496662	-52.22	-25.62	-61.04	-1.5847	0.0009999999	-1.0709	
-0.678808	-0.461892	0.489708	-50.05	-28.7	-62.3	-1.5892	0.0187	-1.0645	
-0.64172	-0.49349	0.479826	-47.53	-31.22	-63.21	-1.5921	0.0185	-1.0735	
-0.619638	-0.520818	0.474702	-46.27	-34.16	-63.84	-1.6072	0.0362	-1.0653	
-0.597922	-0.539362	0.47702	-44.94	-36.47	-64.96	-1.6043	0.0363	-1.0608	
-0.58011	-0.552782	0.479094	-41.65	-38.22	-64.82	-1.6331	0.042	-1.0587	
-0.576328	-0.580964	0.48495	-43.54	-37.03	-63.91	-1.6331	0.0584	-1.0478	
-0.557418	-0.593652	0.487634	-41.23	-36.26	-62.44	-1.6451	0.0582	-1.0551	
-0.543266	-0.624274	0.473238	-38.43	-34.51	-60.9	-1.6662	0.0683	-1.0545	
-0.530334	-0.631838	0.484828	-30.94	-29.61	-59.22	-1.6678	0.0699	-1.0484	
-0.535092	-0.665998	0.490562	-35.63	-29.12	-56.77	-1.6831	0.0743	-1.0405	
-0.531066	-0.695766	0.496906	-37.38	-28.14	-52.78	-1.6922	0.0757	-1.0373	
-0.501664	-0.72651	0.498126	-36.12	-23.31	-49.84	-1.706	0.0712	-1.0341	
-0.488244	-0.76006	0.518134	-37.17	-19.95	-46.34	-1.7136	0.095	-1.0214	
-0.452254	-0.765306	0.51545	-34.44	-23.45	-42.14	-1.7134	0.1022	-1.0273	
-0.417362	-0.791414	0.50996	-36.61	-23.17	-38.29	-1.7226	0.0963	-1.0258	
-0.379054	-0.80886	0.507398	-30.73	-19.88	-35.98	-1.7241	0.1038	-1.018	
-0.391742	-0.81557	0.507764	-25.41	-15.96	-34.09	-1.7375	0.1004	-1.036	
-0.390156	-0.83082	0.508618	-31.64	-21.42	-30.94	-1.7501	0.1008	-1.007	
-0.370392	-0.822158	0.48983	-22.4	-22.12	-28.77	-1.7486	0.1067	-1.0039	
-0.354288	-0.84058	0.490928	-25.2	-23.31	-26.74	-1.7547	0.1082	-1.0008	
-0.337208	-0.830942	0.482632	-16.73	-21.42	-23.87	-1.7576	0.1169	-1.0066	
-0.33001	-0.832406	0.479094	-23.59	-20.93	-20.65	-1.7715	0.1066	-0.999	
-0.319274	-0.833748	0.464942	-21	-17.29	-17.43	-1.7667	0.1213	-1.0033	
-0.303414	-0.836798	0.467382	-18.62	-14.28	-15.12	-1.7731	0.1097	-0.9898	
-0.296826	-0.85095	0.462502	-22.75	-12.11	-13.23	-1.7668	0.1214	-0.9973	
-0.292922	-0.859368	0.45628	-21.7	-9.31	-11.97	-1.7774	0.1198	-0.9971	
-0.297192	-0.870714	0.449936	-19.25	-6.44	-10.85	-1.7851	0.1228	-0.9924	
-0.292678	-0.887062	0.444568	-20.16	-5.74	-9.87	-1.7792	0.1304	-0.9802	
-0.289018	-0.902068	0.44103	-19.39	-4.76	-9.52	-1.7928	0.1244	-0.9831	
-0.282796	-0.904752	0.432368	-14	-2.73	-9.17	-1.7851	0.1273	-0.9862	
-0.284626	-0.904508	0.424926	-11.76	-1.82	-9.03	-1.7895	0.1316	-0.9921	
-0.279624	-0.898896	0.43066	-7.77	0.56	-8.54	-1.7852	0.1349	-0.977	
-0.270474	-0.883524	0.420656	-3.99	1.4	-7.63	-1.7869	0.1306	-0.9695	
-0.275354	-0.889624	0.425048	-5.74	1.89	-6.79	-1.7839	0.1291	-0.9726	
-0.272182	-0.871934	0.425658	-2.38	3.15	-5.25	-1.7927	0.1347	-0.9844	
-0.270596	-0.877912	0.417362	-2.52	4.13	-4.27	-1.7898	0.1438	-0.9707	
-0.269986	-0.90219	0.424804	-4.55	2.52	-2.8	-1.7958	0.1347	-0.9798	
-0.264008	-0.901946	0.42944	-0.84	4.9	-1.75	-1.7912	0.1347	-0.9814	
-0.260592	-0.888038	0.430782	2.87	7.49	0.21	-1.7944	0.1274	-0.9755	
-0.261568	-0.885964	0.427488	-0.49	6.37	1.96	-1.7899	0.1305	-0.971	
-0.271206	-0.887306	0.42334	1.47	6.79	3.5	-1.7927	0.1332	-0.986	
-0.283162	-0.897188	0.420412	2.59	4.76	5.11	-1.7942	0.1361	-0.9844	
-0.29524	-0.901092	0.419924	4.13	4.97	6.79	-1.8021	0.1319	-0.9677	
-0.296582	-0.893528	0.421388	6.58	6.79	8.89	-1.7745	0.1348	-0.9848	
-0.294508	-0.891576	0.427	6.44	6.79	11.41	-1.7851	0.1333	-0.9845999	
-0.29463	-0.900116	0.431636	4.76	8.05	13.86	-1.7758	0.1406	-0.9922	
-0.29524	-0.888282	0.438956	9.94	10.29	15.68	-1.7808	0.1231	-0.9758	
-0.30561	-0.882914	0.436394	9.38	10.85	18.06	-1.7823	0.129	-0.9772	
-0.306342	-0.881328	0.437004	10.29	9.52	20.72	-1.7668	0.1438	-0.9833	
-0.329766	-0.896944	0.43249	4.13	14.07	22.75	-1.7671	0.1276	-0.9805	
-0.336964	-0.875838	0.433344	15.75	15.47	24.36	-1.7607	0.1318	-0.9942	
-0.348676	-0.867542	0.434198	14.21	14.56	26.39	-1.7594	0.1321	-0.9821	
-0.347822	-0.854976	0.431148	19.46	14.77	27.93	-1.7518	0.1336	-0.9852	
-0.365146	-0.84912	0.429074	20.02	16.94	29.4	-1.7502	0.1187	-0.9931	
-0.371124	-0.830332	0.427122	25.62	16.87	30.24	-1.7456	0.1187	-0.9977	
-0.392718	-0.812398	0.428586	26.67	18.48	30.94	-1.7411	0.1113	-1.001	
-0.40687	-0.787388	0.431758	31.5	18.69	31.36	-1.7273	0.1247	-1.0025	
-0.422242	-0.776408	0.435174	31.57	18.34	31.85	-1.7243	0.1128	-1.0073	
-0.430294	-0.757986	0.44408	36.33	19.88	32.27	-1.7198	0.1099	-1.0044	
-0.443714	-0.746762	0.451766	34.93	21.7	33.11	-1.7211	0.1187	-1.0088	
-0.452864	-0.732732	0.456768	35	23.52	33.81	-1.7135	0.1023	-1.0213	
-0.466162	-0.720044	0.468236	37.17	25.27	33.95	-1.6909	0.1057	-1.0126	
-0.487268	-0.714432	0.47336	36.75	25.55	34.93	-1.691	0.08639999	-1.019	
-0.513864	-0.697596	0.472262	39.13	25.83	36.05	-1.6803	0.0879	-1.0192	
-0.524844	-0.673196	0.482266	42	24.85	36.89	-1.6771	0.0863	-1.0329	
-0.543754	-0.664412	0.48678	40.95	24.92	38.08	-1.6756	0.0819	-1.033	
-0.554002	-0.644892	0.485316	42.56	25.55	39.27	-1.6603	0.0715	-1.0455	
-0.571082	-0.63196	0.486048	41.79	25.48	40.11	-1.6511	0.07449999	-1.0472	
-0.594506	-0.617076	0.495686	41.58	25.55	42.35	-1.6542	0.0626	-1.0519	
-0.597922	-0.600118	0.493002	41.16	25.2	44.8	-1.639	0.0597	-1.0567	
-0.598532	-0.5795	0.500932	42.28	26.53	47.32	-1.6269	0.0539	-1.0556	
-0.629764	-0.568154	0.499712	42.14	26.18	49.77	-1.6283	0.0493	-1.0662	
-0.631106	-0.544364	0.49959	45.78	25.55	51.59	-1.6196	0.0363	-1.053	
-0.644404	-0.51972	0.495808	47.25	25.48	53.34	-1.6056	0.0272	-1.0761	
-0.662826	-0.491904	0.490928	47.6	25.97	55.09	-1.5954	0.0143	-1.0599	
-0.68259	-0.474824	0.494344	48.16	26.95	55.86	-1.5937	0.0127	-1.0721	
-0.686128	-0.44408	0.496418	49.56	27.3	57.19	-1.5756	0.007	-1.0695	
-0.707112	-0.40687	0.49837	52.36	25.55	58.03	-1.5815	0.0023	-1.08	
-0.738466	-0.371124	0.500444	49.98	27.3	57.61	-1.5667	-0.0106	-1.0715	
-0.761158	-0.33245	0.50996	49.14	27.58	56.84	-1.5622	-0.0283	-1.0779	
-0.77836	-0.285724	0.515328	47.74	22.47	56.77	-1.5591	-0.0298	-1.081	
-0.77592	-0.239608	0.507154	48.02	22.26	56.98	-1.5455	-0.0327	-1.0814	
-0.779336	-0.217404	0.501908	46.27	22.4	57.05	-1.547	-0.049	-1.0877	
-0.80215	-0.203862	0.485804	44.45	24.08	56	-1.5307	-0.0649	-1.0777	
-0.81679	-0.173362	0.481412	41.93	22.96	53.62	-1.5246	-0.0738	-1.087	
-0.827038	-0.149938	0.471164	40.6	21.7	51.24	-1.5217	-0.08109999	-1.0827	
-0.83448	-0.120292	0.464088	39.97	20.44	49.42	-1.5203	-0.0825	-1.0797	
-0.833504	-0.086498	0.450912	40.46	17.22	47.88	-1.5144	-0.0957	-1.0771	
-0.839116	-0.063074	0.442616	37.8	16.59	45.64	-1.5038	-0.1104	-1.0805	
-0.853268	-0.038186	0.438712	34.65	13.93	43.33	-1.5054	-0.1104	-1.0805	
-0.861808	-0.015006	0.438346	30.59	10.5	40.67	-1.5024	-0.1237	-1.0853	
-0.86498	0.002928	0.44591	26.88	8.19	37.52	-1.486	-0.1293	-1.0752	
-0.865834	0.01037	0.453718	22.96	4.97	33.81	-1.4843	-0.1398	-1.0875	
-0.875716	0.013664	0.462746	20.86	2.87	30.03	-1.4888	-0.1429	-1.092	
-0.86803	0.020374	0.469456	18.69	0.42	26.53	-1.4937	-0.1605	-1.0832	
-0.871568	0.016836	0.482388	14.98	-0.84	23.24	-1.4905	-0.1561	-1.0877	
-0.86925	0.015982	0.489342	13.58	-1.61	20.16	-1.4876	-0.156	-1.0847	
-0.862418	0.019032	0.501054	11.2	-2.87	17.92	-1.483	-0.1545	-1.0863	
-0.868396	0.015128	0.497394	10.01	-2.73	15.82	-1.4876	-0.1619	-1.0848	
-0.861076	0.012322	0.502152	9.59	-3.08	14.63	-1.4846	-0.1664	-1.088	
-0.871934	-0.004026	0.498736	9.59	-2.24	13.79	-1.4847	-0.1707	-1.085	
-0.874252	-0.0183	0.493856	9.31	-2.24	13.79	-1.4893	-0.1692	-1.0819	
-0.868884	-0.032574	0.486292	10.99	-3.01	14.35	-1.4892	-0.1812	-1.0897	
-0.874374	-0.045994	0.480558	12.67	-3.71	15.4	-1.4939	-0.1811	-1.085	
-0.884012	-0.051728	0.47153	15.54	-4.76	16.73	-1.4832	-0.1841	-1.0898	
-0.879742	-0.05002	0.470676	18.34	-6.37	17.92	-1.4938	-0.1842	-1.0896	
-0.885354	-0.0488	0.471408	21.56	-7.49	19.32	-1.4907	-0.1917	-1.0989	
-0.901458	-0.046726	0.471652	22.96	-9.17	21.21	-1.4955	-0.1974	-1.0853	
-0.902068	-0.040016	0.465552	25.69	-11.06	23.38	-1.4925	-0.1929	-1.0853	
-0.888526	-0.030988	0.46726	27.65	-14.28	25.34	-1.4908	-0.2005	-1.0945	
-0.87718	-0.024156	0.469944	30.17	-15.61	27.16	-1.497	-0.2153	-1.0992	
-0.874862	-0.022204	0.467748	32.9	-17.71	29.19	-1.4983	-0.2081	-1.1036	
-0.86498	-0.017934	0.471774	33.67	-18.41	30.87	-1.5015	-0.2184	-1.1022	
-0.854244	-0.001952	0.488244	36.26	-21.35	33.11	-1.5062	-0.2287	-1.1008	
-0.850218	0.02623	0.493368	37.31	-22.19	34.86	-1.5078	-0.245	-1.101	
-0.83814	0.055754	0.493368	38.5	-23.38	36.96	-1.5124	-0.2494	-1.101	
-0.823744	0.069662	0.502274	42.35	-24.85	39.55	-1.5184	-0.2555	-1.1101	
-0.809226	0.09162199	0.49593	45.29	-25.06	42.84	-1.529	-0.2601	-1.11	
-0.796904	0.126758	0.512156	47.11	-25.83	45.85	-1.5262	-0.2747	-1.1058	
-0.795562	0.176778	0.534848	48.09	-26.53	48.44	-1.5248	-0.2851	-1.1075	
-0.772626	0.218014	0.539728	50.4	-27.44	52.22	-1.5324	-0.2999	-1.1106	
-0.742614	0.249246	0.529602	54.04	-28.35	55.79	-1.5372	-0.3028	-1.1015	
-0.737734	0.271572	0.52948	54.32	-27.58	59.64	-1.5585	-0.3103	-1.0982	
-0.72895	0.291458	0.53375	55.23	-27.58	61.6	-1.5649	-0.3309	-1.094	
-0.699548	0.323788	0.533384	57.68	-28.56	61.6	-1.5664	-0.3353	-1.094	
-0.669414	0.37027	0.548634	58.03	-29.33	61.53	-1.571	-0.3562	-1.1019	
-0.64965	0.415166	0.532286	59.01	-27.51	61.95	-1.5649	-0.3503	-1.1049	
-0.63318	0.444202	0.532164	58.8	-26.46	62.16	-1.5848	-0.3696	-1.1018	
-0.610244	0.459818	0.524966	57.54	-27.02	62.72	-1.597	-0.3741	-1.0987	
-0.591578	0.484828	0.519232	58.52	-26.04	62.86	-1.5988	-0.4006	-1.0976	
-0.602802	0.515816	0.512278	59.99	-27.93	61.25	-1.5991	-0.4093	-1.0902	
-0.58987	0.549122	0.507642	60.2	-28.63	58.8	-1.619	-0.4227	-1.084	
-0.576694	0.570716	0.5307	55.72	-29.19	57.96	-1.6373	-0.4272	-1.0792	
-0.563396	0.606462	0.53619	53.48	-28.49	56.77	-1.6282	-0.4316	-1.0825	
-0.548024	0.62769	0.527406	52.71	-29.4	54.81	-1.6422	-0.4538	-1.0781	
-0.513986	0.632448	0.532286	49.98	-29.75	52.36	-1.6559	-0.4613	-1.0795	
-0.495198	0.65453	0.53558	51.59	-29.33	49.56	-1.6592	-0.4655	-1.0659	
-0.481046	0.671244	0.528504	53.13	-28.56	46.48	-1.676	-0.473	-1.0627	
-0.475068	0.689178	0.526918	51.94	-28.7	43.4	-1.6821	-0.479	-1.0642	
-0.48068	0.705892	0.517036	53.55	-27.58	40.95	-1.6883	-0.4804	-1.058	
-0.469944	0.72224	0.511546	51.94	-27.16	38.5	-1.6931	-0.4936	-1.0522	
-0.459452	0.752984	0.502884	51.31	-27.79	37.1	-1.695	-0.5081	-1.0388	
-0.440298	0.782264	0.506178	49.63	-28.77	36.12	-1.7037	-0.4967	-1.052	
-0.42944	0.809836	0.506544	47.67	-27.23	35.49	-1.7255	-0.5097	-1.0261	
-0.416264	0.829356	0.49776	46.83	-25.69	35.42	-1.7195	-0.529	-1.0372	
-0.383202	0.834114	0.496174	41.79	-24.22	35.14	-1.7241	-0.5274	-1.031	
-0.350872	0.851316	0.498614	42	-23.52	34.37	-1.7426	-0.5437	-1.0249	
-0.333792	0.867298	0.478484	45.01	-20.09	33.81	-1.7717	-0.5541	-1.014	
-0.316102	0.87352	0.463966	43.75	-18.62	32.97	-1.7626	-0.5466	-1.008	
-0.304268	0.891698	0.452132	42.07	-17.92	32.62	-1.7658	-0.5509	-1.0019	
-0.299266	0.915122	0.428342	39.41	-15.4	31.71	-1.7797	-0.5672	-0.9959	
-0.297924	0.938424	0.416386	32.76	-13.58	30.73	-1.7737	-0.57	-0.9946	
-0.2745	0.92293	0.40138	34.09	-10.92	30.87	-1.7844	-0.5627	-0.9897	
-0.275476	0.934886	0.392474	28.35	-9.94	29.4	-1.7845	-0.576	-0.9915	
-0.266692	0.942206	0.366732	33.39	-8.26	29.26	-1.7998	-0.576	-0.9821	
-0.258396	0.948184	0.360998	26.67	-7.14	28	-1.7939	-0.5831	-0.9748	
-0.245586	0.941718	0.359412	26.81	-5.81	26.53	-1.7922	-0.5729	-0.9807	
-0.228628	0.937692	0.341478	30.1	-4.55	25.97	-1.806	-0.5863	-0.9776	
-0.225212	0.94489	0.33001	30.24	-3.57	25.55	-1.8107	-0.5788	-0.9683	
-0.214598	0.955138	0.336476	22.47	-4.83	24.43	-1.8122	-0.5758	-0.9651999	
-0.203984	0.964166	0.341844	18.34	-3.29	23.38	-1.8155	-0.5965	-0.9656	
-0.187026	0.956724	0.338672	13.93	-3.29	22.61	-1.8261	-0.5891	-0.9577	
-0.184708	0.956968	0.341356	12.32	-3.08	21.77	-1.8305	-0.5819	-0.965	
-0.183244	0.978806	0.338428	13.09	-4.62	20.23	-1.8355	-0.5994	-0.9516	
-0.180316	0.983686	0.33855	12.11	-3.99	17.92	-1.8294	-0.5918	-0.9471	
-0.171654	1.021262	0.346724	5.18	-3.22	15.61	-1.8369	-0.598	-0.9546	
-0.16165	1.069818	0.334646	4.55	-4.41	11.97	-1.834	-0.5978	-0.9456	
-0.164944	1.032486	0.318786	-7.84	-3.29	8.47	-1.8292	-0.5891	-0.9561	
-0.156404	0.999668	0.338184	-21.42	-4.13	6.3	-1.8401	-0.5993	-0.9485	
-0.13481	0.998082	0.35197	-18.48	-4.76	3.85	-1.8413	-0.5936	-0.959	
-0.140666	0.997838	0.35319	-11.2	-4.55	0.98	-1.8382	-0.5877	-0.9589	
-0.13908	0.990518	0.34831	-10.43	-3.64	-1.96	-1.8426	-0.5924	-0.9695	
-0.13664	0.99491	0.351726	-14.56	-6.3	-3.57	-1.8396	-0.5864	-0.9649	
-0.135054	0.983198	0.358314	-25.41	-7.98	-4.83	-1.8381	-0.5908	-0.965	
-0.135664	0.974902	0.382714	-33.95	-9.73	-5.74	-1.8348	-0.5688	-0.9722	
-0.136762	0.978928	0.398818	-35.14	-9.59	-7.91	-1.8513	-0.578	-0.9842	
-0.130052	0.986614	0.413946	-31.99	-8.82	-10.64	-1.8437	-0.5734	-0.9797	
-0.135786	0.991372	0.422486	-31.71	-7.35	-13.37	-1.8482	-0.5691	-0.9841	
-0.148108	0.986126	0.43249	-32.13	-5.67	-16.24	-1.8406	-0.572	-0.9858	
-0.161406	0.97661	0.442494	-32.69	-4.76	-19.46	-1.8419	-0.5632	-0.9901	
-0.169702	0.965264	0.452132	-33.53	-3.92	-22.89	-1.8344	-0.5661	-0.9888	
-0.163236	0.957578	0.463112	-35.63	-2.94	-25.48	-1.8342	-0.5618	-0.9948	
-0.174216	0.953186	0.47641	-36.33	-1.82	-27.72	-1.8342	-0.5663	-0.9978999	
-0.186416	0.943304	0.47702	-36.68	0.84	-29.96	-1.8234	-0.5575	-1.007	
-0.19581	0.931714	0.485316	-37.31	2.17	-32.41	-1.8172	-0.5575	-1.0117	
-0.204716	0.918538	0.495564	-38.99	4.55	-35.21	-1.8218	-0.5515	-1.0069	
-0.215818	0.903776	0.501664	-40.32	7.28	-37.45	-1.8154	-0.5399	-1.0204	
-0.229848	0.889258	0.50874	-41.23	8.47	-39.48	-1.8094	-0.5502	-1.0207	
-0.251198	0.874496	0.509472	-43.61	9.24	-41.58	-1.7892	-0.5296	-1.0343	
-0.266936	0.85827	0.512156	-46.27	9.94	-43.26	-1.7952	-0.5312	-1.0388	
-0.283162	0.84058	0.52643	-50.54	11.34	-44.66	-1.7893	-0.5325	-1.0314	
-0.288286	0.824598	0.534848	-51.31	13.37	-45.92	-1.7754	-0.5192	-1.039	
-0.32208	0.817766	0.536312	-53.97	14.84	-47.18	-1.778	-0.5092	-1.0553	
-0.33245	0.78446	0.54534	-57.19	18.62	-48.3	-1.7767	-0.509	-1.0448	
-0.352336	0.769576	0.559126	-57.33	19.39	-48.23	-1.7656	-0.493	-1.0613	
-0.37393	0.749324	0.574986	-60.13	21.14	-47.67	-1.7398	-0.4928	-1.0618	
-0.37088	0.72102	0.57279	-60.48	22.47	-47.95	-1.7532	-0.4827	-1.0704	
-0.39833	0.694302	0.583282	-60.76	22.47	-48.79	-1.7421	-0.4682	-1.0885	
-0.427976	0.666852	0.587552	-61.74	26.53	-48.58	-1.7318	-0.4708	-1.0767	
-0.43066	0.631716	0.60634	-65.24	26.74	-49.42	-1.7193	-0.4636	-1.0904	
-0.441396	0.6039	0.616344	-64.75	26.11	-49.7	-1.71	-0.4488	-1.0918	
-0.460428	0.573766	0.623542	-64.89	26.67	-49.84	-1.6962	-0.4355	-1.0979	
-0.489708	0.555954	0.62403	-62.37	27.93	-50.61	-1.6976	-0.4325	-1.0978	
-0.495564	0.527284	0.63074	-63	28.77	-51.66	-1.6808	-0.4206	-1.1024	
-0.528016	0.495442	0.640744	-63.14	29.33	-52.5	-1.6773	-0.4002	-1.1127	
-0.554124	0.469822	0.646234	-63.7	30.8	-52.5	-1.6649	-0.3824	-1.1187	
-0.581696	0.43432	0.650504	-63.07	30.59	-53.2	-1.645	-0.378	-1.128	
-0.589138	0.350018	0.663314	-63.14	31.29	-55.23	-1.6493	-0.3559	-1.1275	
-0.60451	0.316956	0.661362	-60.2	30.94	-56	-1.6388	-0.3527	-1.1201	
-0.611708	0.290604	0.661484	-59.08	31.22	-56.35	-1.6387	-0.3469	-1.1246	
-0.620614	0.265838	0.6466	-58.24	31.71	-55.37	-1.6204	-0.3305	-1.1246	
-0.635742	0.22509	0.63379	-56.21	32.41	-54.88	-1.6158	-0.326	-1.1246	
-0.652334	0.183854	0.61854	-56.49	32.34	-53.13	-1.6017	-0.3025	-1.1366	
-0.674172	0.134322	0.610854	-55.65	34.58	-51.94	-1.5987	-0.2965	-1.1305	
-0.69601	0.104432	0.603778	-50.4	32.48	-50.82	-1.5972	-0.292	-1.1274	
-0.713822	0.079666	0.595848	-47.53	30.59	-50.05	-1.5864	-0.2846	-1.1305	
-0.72529	0.066734	0.591578	-46.27	28.56	-48.3	-1.5788	-0.2682	-1.1243	
-0.734318	0.035502	0.581208	-42.7	27.86	-46.27	-1.58	-0.2491	-1.13	
-0.747494	0.010492	0.578402	-38.57	27.3	-43.89	-1.5693	-0.2432	-1.1316	
-0.764086	0.002196	0.572668	-36.19	25.97	-41.93	-1.5679	-0.249	-1.1287	
-0.772992	-0.011834	0.570472	-33.67	22.54	-39.41	-1.5574	-0.228	-1.1164	
-0.776896	-0.025132	0.566934	-32.06	19.74	-36.68	-1.5497	-0.2221	-1.1195	
-0.78751	-0.03843	0.570106	-30.73	18.41	-33.95	-1.5481	-0.2206	-1.121	
-0.792512	-0.043554	0.569374	-29.33	15.96	-31.29	-1.5435	-0.2132	-1.1209	
-0.796172	-0.054046	0.574498	-29.05	13.79	-29.19	-1.5511	-0.2103	-1.1192	
-0.795318	-0.056364	0.579134	-28.7	13.16	-27.65	-1.5433	-0.203	-1.1253	
-0.80337	-0.066246	0.577182	-26.39	11.13	-26.81	-1.5375	-0.1997	-1.1102	
-0.804468	-0.06734399	0.570838	-24.71	10.08	-26.25	-1.5403	-0.1806	-1.1113	
-0.809592	-0.061854	0.569862	-23.73	9.45	-26.25	-1.5359	-0.1878	-1.107	
-0.80886	-0.060268	0.56913	-24.22	8.75	-25.69	-1.5418	-0.1821	-1.1144	
-0.813862	-0.05856	0.56791	-23.59	7.56	-24.99	-1.5282	-0.1775	-1.1085	
-0.814106	-0.058316	0.561688	-26.6	5.39	-24.5	-1.5357	-0.1747	-1.1143	
-0.808494	-0.050386	0.559614	-25.83	4.9	-24.71	-1.54	-0.1704	-1.1202	
-0.810202	-0.051728	0.561688	-27.44	4.34	-24.85	-1.5387	-0.1524	-1.1033	
-0.812642	-0.059048	0.548634	-31.78	2.73	-25.55	-1.5324	-0.1421	-1.1093	
-0.811788	-0.065148	0.535336	-33.46	0.21	-25.9	-1.5383	-0.1394	-1.1167	
-0.82716	-0.079666	0.538752	-35	0.07	-26.04	-1.5431	-0.1422	-1.1061	
-0.825574	-0.096624	0.541192	-37.66	-1.05	-26.81	-1.5322	-0.123	-1.112	
-0.824354	-0.101626	0.540338	-39.27	-3.29	-27.93	-1.5384	-0.1259	-1.1043	
-0.810324	-0.107116	0.539118	-41.16	-5.46	-29.33	-1.5369	-0.1184	-1.0982	
-0.807518	-0.124318	0.538874	-40.53	-5.6	-29.47	-1.5412	-0.1098	-1.1085	
-0.811666	-0.142252	0.534604	-39.97	-5.46	-28.84	-1.5424	-0.0967	-1.1173	
-0.796782	-0.15982	0.539484	-42.42	-7.56	-28.14	-1.5336	-0.0918	-1.0978	
-0.7869	-0.172996	0.537288	-41.37	-9.31	-27.37	-1.5426	-0.083	-1.0974	
-0.786168	-0.17812	0.533262	-41.16	-8.61	-26.6	-1.5503	-0.0756	-1.0896	
-0.792756	-0.199348	0.53741	-41.16	-9.8	-25.97	-1.5469	-0.067	-1.1031	
-0.79666	-0.234972	0.536678	-42.63	-9.8	-25.62	-1.5529	-0.0596	-1.1013	
-0.785802	-0.273402	0.52948	-41.58	-9.17	-26.6	-1.5593	-0.0579	-1.0831	
-0.799222	-0.310368	0.533384	-41.16	-7.91	-28.84	-1.5667	-0.0418	-1.0887	
-0.787144	-0.338794	0.526796	-39.27	-8.68	-31.5	-1.5547	-0.0475	-1.083	
-0.769942	-0.354044	0.527528	-37.03	-10.5	-33.88	-1.5622	-0.0343	-1.0811	
-0.76372	-0.348676	0.517646	-35.07	-11.97	-36.33	-1.5788	-0.0345	-1.0838	
-0.750422	-0.346724	0.51728	-35.21	-14.77	-38.08	-1.5742	-0.024	-1.0791	
-0.72956	-0.35502	0.511058	-35.56	-18.48	-39.13	-1.5787	-0.0212	-1.0805	
-0.693204	-0.369294	0.509594	-36.26	-19.88	-39.55	-1.5907	-0.011	-1.0846	
-0.67283	-0.389912	0.511424	-38.15	-19.88	-40.39	-1.5907	-0.005	-1.0785	
-0.645258	-0.406748	0.505934	-40.18	-18.27	-41.37	-1.5937	0.0082	-1.0752	
-0.663192	-0.425658	0.511546	-38.78	-17.08	-43.12	-1.5969	0.0038	-1.0691	
-0.634888	-0.443104	0.498126	-42.63	-23.52	-45.15	-1.6117	0.0168	-1.0792	
-0.61671	-0.463966	0.498736	-40.6	-25.55	-46.69	-1.6073	0.0155	-1.0717	
-0.620126	-0.483608	0.498248	-40.18	-28.07	-48.23	-1.6242	0.0185	-1.0578	
-0.601094	-0.503128	0.492392	-39.48	-31.5	-49.77	-1.6284	0.0404	-1.0679	
-0.57828	-0.530212	0.498614	-41.37	-34.37	-51.31	-1.6436	0.0477	-1.0614	
-0.55571	-0.560468	0.497272	-42.77	-37.1	-52.99	-1.6513	0.0464	-1.0522	
-0.543754	-0.58804	0.502518	-44.45	-39.76	-53.41	-1.6587	0.0565	-1.0579	
-0.51911	-0.60939	0.49715	-43.61	-40.88	-54.11	-1.6648	0.061	-1.0517	
-0.486536	-0.614026	0.50203	-33.04	-30.03	-54.53	-1.6829	0.0696	-1.0527	
-0.462502	-0.649772	0.5185	-43.12	-29.89	-52.99	-1.6875	0.0696	-1.0496	
-0.45079	-0.687836	0.516182	-43.26	-29.4	-51.1	-1.7089	0.0741	-1.0385	
-0.421144	-0.717726	0.517524	-34.51	-22.4	-51.94	-1.7117	0.0872	-1.0428	
-0.410042	-0.734074	0.523868	-29.82	-21.07	-50.61	-1.7178	0.0931	-1.0395	
-0.40748	-0.774334	0.537776	-39.06	-25.83	-48.16	-1.7238	0.099	-1.0378	
-0.389546	-0.780434	0.531676	-26.18	-20.16	-46.06	-1.7377	0.0931	-1.0301	
-0.375882	-0.781776	0.537654	-24.36	-23.59	-43.4	-1.7423	0.1095	-1.0176	
-0.35624	-0.795074	0.53802	-24.71	-28.07	-41.16	-1.7486	0.09779999	-1.0101	
-0.353312	-0.794952	0.53375	-18.13	-24.71	-39.48	-1.7695	0.1003	-1.0248	
-0.337452	-0.790682	0.526064	-18.83	-27.65	-35.77	-1.7637	0.105	-1.0082	
-0.317078	-0.801418	0.528992	-21.35	-27.79	-33.39	-1.7697	0.1094	-1.008	
-0.308538	-0.804712	0.532042	-14.91	-22.96	-30.59	-1.7712	0.1018	-1.0172	
-0.28975	-0.817278	0.521916	-14.7	-23.38	-27.72	-1.7789	0.1153	-1.0032	
-0.288652	-0.839726	0.51484	-14.84	-20.65	-26.04	-1.7863	0.1032	-1.0169	
-0.280478	-0.847534	0.515938	-9.17	-16.52	-24.43	-1.8062	0.1091	-1.0058	
-0.28365	-0.855098	0.514962	-9.87	-14.49	-22.68	-1.7956	0.1137	-0.9999	
-0.276574	-0.848632	0.510692	-6.93	-15.33	-20.09	-1.8048	0.1137	-0.9967	
-0.268522	-0.84851	0.497394	-7	-13.72	-17.36	-1.8033	0.1122	-0.9952	
-0.252662	-0.84729	0.49471	-8.61	-10.71	-14.84	-1.8153	0.115	-1.001	
-0.22936	-0.84546	0.504348	-8.75	-9.87	-13.3	-1.8183	0.1224	-0.9978	
-0.22692	-0.839604	0.498614	-7.28	-8.47	-11.27	-1.823	0.118	-0.9902	
-0.229726	-0.828624	0.488854	-6.72	-8.12	-10.36	-1.8291	0.1136	-0.9902	
-0.228994	-0.823866	0.481778	-9.24	-7.21	-9.24	-1.8277	0.1152	-0.9841	
-0.22753	-0.829356	0.481168	-13.86	-6.16	-8.12	-1.8216	0.1122	-0.9888	
-0.227896	-0.838994	0.475556	-15.89	-3.22	-7.63	-1.8262	0.1122	-0.9857	
-0.224602	-0.862662	0.479826	-17.57	-1.82	-7.35	-1.8384	0.1196	-0.9793	
-0.214476	-0.92171	0.491904	-19.39	-1.96	-6.79	-1.8292	0.1151	-0.9870999	
-0.223504	-0.927932	0.48495	-13.3	-5.74	-5.11	-1.8353	0.1151	-0.9825	
-0.221064	-0.89731	0.44835	-7.35	-5.95	-4.83	-1.8367	0.1284	-0.9822	
-0.21533	-0.910852	0.459818	-8.33	-3.15	-4.48	-1.8368	0.1181	-0.9809	
-0.195932	-0.909754	0.47214	-3.01	-1.96	-3.92	-1.8401	0.1257	-0.9656	
-0.190686	-0.905728	0.462868	-0.77	-1.33	-2.59	-1.8338	0.1255	-0.9793	
-0.202642	-0.893284	0.445788	4.62	2.24	-1.61	-1.8354	0.1196	-0.9763	
-0.208742	-0.880108	0.45079	7.07	5.67	-1.26	-1.8307	0.1121	-0.9870999	
-0.20801	-0.871568	0.457866	4.48	6.86	-0.35	-1.8415	0.1181	-0.9747	
-0.202642	-0.874252	0.463356	0.63	7.14	0.7	-1.8367	0.1284	-0.9822	
-0.191418	-0.866444	0.45384	-0.21	6.3	1.61	-1.8307	0.124	-0.9809	
-0.202154	-0.878278	0.457622	-1.47	7	2.31	-1.8353	0.1166	-0.9809	
-0.206302	-0.88694	0.463356	-4.06	7.56	3.43	-1.8292	0.127	-0.9793	
-0.19459	-0.86315	0.452254	3.99	7.84	4.97	-1.8369	0.1122	-0.9795	
-0.20008	-0.86193	0.463356	-2.87	7.98	6.72	-1.8308	0.13	-0.9747	
-0.19642	-0.869372	0.467382	-8.61	8.54	8.47	-1.8247	0.1316	-0.9748	
-0.207034	-0.87474	0.454816	0.7	9.59	11.06	-1.832	0.1283	-0.9898	
-0.235948	-0.899506	0.454328	-5.53	7	13.51	-1.8321	0.1268	-0.9884	
-0.243268	-0.913414	0.459208	-3.5	8.96	15.75	-1.8216	0.1241	-0.9811	
-0.241682	-0.905728	0.452742	5.67	12.67	17.36	-1.8141	0.1257	-0.9797	
-0.251076	-0.907802	0.455548	3.64	12.46	18.83	-1.8019	0.1169	-0.9845999	
-0.253394	-0.89914	0.451034	5.74	14.42	20.93	-1.8199	0.1359	-0.9854	
-0.260348	-0.896944	0.446398	8.61	17.22	22.89	-1.7988	0.1213	-0.9876	
-0.27023	-0.886696	0.454084	13.16	15.54	24.5	-1.7928	0.1244	-0.9831	
-0.274012	-0.871202	0.459574	15.33	15.75	25.9	-1.7912	0.1302	-0.9861	
-0.279624	-0.858026	0.455182	20.3	17.78	27.16	-1.7821	0.1229	-0.9909	
-0.298412	-0.859978	0.452986	17.57	17.71	28.84	-1.7881	0.1138	-0.997	
-0.310734	-0.844484	0.450912	24.01	15.96	30.1	-1.7849	0.1182	-1.0045	
-0.329888	-0.83814	0.452864	24.64	17.43	30.45	-1.7669	0.1215	-0.9942	
-0.34587	-0.831674	0.455426	26.6	18.27	31.85	-1.7712	0.1153	-1.0064	
-0.352824	-0.816668	0.453108	30.17	20.44	32.83	-1.7561	0.117	-1.0036	
-0.371002	-0.810202	0.460184	28.98	21.21	33.46	-1.7592	0.0976	-1.0114	
-0.382226	-0.802028	0.465552	34.16	22.75	33.88	-1.7424	0.1051	-1.0146	
-0.395402	-0.77958	0.458842	37.03	22.82	34.51	-1.7472	0.086	-1.0119	
-0.404186	-0.75945	0.478362	38.36	24.01	35	-1.7303	0.0963	-1.0196	
-0.422974	-0.747128	0.484218	38.85	24.99	36.05	-1.7316	0.0917	-1.0302	
-0.44835	-0.731268	0.488976	41.16	25.48	37.24	-1.7058	0.083	-1.0354	
-0.46787	-0.712358	0.499102	41.02	26.25	37.94	-1.7224	0.0872	-1.0395	
-0.469578	-0.699914	0.5063	42.21	27.72	38.78	-1.7148	0.0783	-1.0444	
-0.486658	-0.693448	0.512644	41.93	28.98	40.53	-1.6784	0.0816	-1.0435	
-0.500566	-0.676002	0.514718	44.59	29.12	41.79	-1.6922	0.0727	-1.0389	
-0.530212	-0.647454	0.507642	47.39	28.7	42.21	-1.6877	0.0623	-1.0452	
-0.549122	-0.621956	0.513742	48.37	28.49	42.49	-1.6771	0.058	-1.047	
-0.564738	-0.607194	0.51789	47.25	29.05	43.26	-1.6679	0.0565	-1.0532	
-0.57157	-0.583892	0.523746	48.37	28.7	44.8	-1.6527	0.0432	-1.0613	
-0.577426	-0.56364	0.538264	47.46	27.93	46.13	-1.6434	0.0372	-1.0767	
-0.59292	-0.54473	0.538874	49	28.14	47.32	-1.6513	0.0284	-1.0646	
-0.606584	-0.53009	0.538264	49.56	25.83	48.93	-1.6346	0.0182	-1.0712	
-0.602558	-0.493246	0.541924	51.45	24.78	50.4	-1.6285	0.0182	-1.0728	
-0.620858	-0.464698	0.552172	51.24	25.83	51.94	-1.6102	0.0034	-1.084	
-0.631106	-0.433832	0.529724	53.27	26.18	52.15	-1.6026	0.0005	-1.0872	
-0.643062	-0.40382	0.535702	51.59	25.41	52.29	-1.6011	-0.0098	-1.0905	
-0.658922	-0.376858	0.531676	49.7	25.34	53.06	-1.5845	-0.014	-1.0908	
-0.696132	-0.365268	0.53741	45.78	25.83	53.2	-1.5785	-0.0288	-1.0943	
-0.712602	-0.342698	0.53192	47.32	24.43	53.83	-1.5815	-0.0319	-1.1003	
-0.735416	-0.319152	0.53131	46.97	21.49	54.53	-1.5743	-0.0448	-1.0856	
-0.771894	-0.297558	0.525942	45.92	19.32	54.25	-1.5669	-0.0728	-1.0892	
-0.774456	-0.237656	0.521672	46.9	18.34	53.55	-1.5531	-0.0773	-1.1002	
-0.777262	-0.206424	0.530334	44.17	15.54	53.62	-1.5531	-0.0892	-1.1079	
-0.774456	-0.188368	0.522038	46.41	15.54	53.55	-1.5336	-0.0948	-1.1008	
-0.77958	-0.176778	0.526918	44.87	15.61	53.62	-1.5486	-0.09959999	-1.1127	
-0.786046	-0.147132	0.514962	44.59	14.84	53.83	-1.5321	-0.1126	-1.1088	
-0.78934	-0.119316	0.519476	43.89	12.81	54.18	-1.5293	-0.1154	-1.0998	
-0.8052	-0.10004	0.507764	45.64	12.74	54.25	-1.5262	-0.1318	-1.1107	
-0.801418	-0.068564	0.507398	46.55	11.76	54.25	-1.5205	-0.1358	-1.0928	
-0.81801	-0.045994	0.512644	45.57	9.59	54.18	-1.519	-0.1507	-1.1021	
-0.82289	-0.015006	0.502884	45.36	8.89	53.34	-1.513	-0.1655	-1.1055	
-0.816546	0.006344	0.504226	43.61	5.67	52.71	-1.5222	-0.1655	-1.1008	
-0.817522	0.031964	0.50325	42.77	4.83	51.45	-1.5072	-0.1815	-1.0999	
-0.81679	0.06649	0.513498	39.9	3.64	48.79	-1.5044	-0.1962	-1.0987	
