Sensor string: A
Serial number: 1970-01-0000
Firmware version: 2,015
Hardware version: 2,2
Calibration quality: 5
ax	ay	az	gx	gy	gz	mx	my	mz

0.097966	-0.977952	0.194956	-2.45	-3.99	6.02	-0.1217	0.3263	-0.2912	Reference
0.09821	-0.965874	0.192638	-2.45	-5.67	7.84	-0.1319	0.3295	-0.2865	
0.104066	-0.944036	0.197274	-2.94	-6.51	10.08	-0.126	0.3248	-0.2911	
0.111752	-0.932568	0.204472	-3.36	-7.77	10.15	-0.1275	0.3279	-0.2835	
0.135786	-0.9272	0.219112	-3.92	-9.03	9.52	-0.1304	0.3295	-0.2834	
0.153964	-0.926468	0.226432	-4.76	-6.65	6.23	-0.1262	0.3341	-0.2788	
0.152866	-0.945378	0.227774	-5.88	-5.11	4.2	-0.1218	0.331	-0.2835	
0.15738	-0.956236	0.22509	-6.51	-3.22	3.78	-0.1232	0.3324	-0.288	
0.14579	-0.946598	0.21838	-6.79	-0.42	4.62	-0.1275	0.3295	-0.2835	
0.14396	-0.9394	0.214354	-7.35	1.47	5.88	-0.1247	0.3295	-0.2759	
0.139812	-0.950746	0.218746	-7	2.1	4.27	-0.1188	0.3309	-0.2881	
0.124928	-0.951844	0.21655	-5.74	3.01	3.15	-0.1248	0.3387	-0.2758	
0.120658	-0.94611	0.20923	-4.48	4.06	2.8	-0.1132	0.3402	-0.2698	
0.113948	-0.9516	0.203252	-3.36	3.78	1.12	-0.1218	0.3341	-0.2774	
0.10797	-0.950624	0.201422	-2.1	1.96	0	-0.1321	0.3449	-0.2756	
0.111752	-0.952088	0.203862	-1.05	2.03	-0.7	-0.1145	0.3294	-0.279	
0.11407	-0.959896	0.210328	-0.07	1.12	-1.47	-0.1176	0.3402	-0.2712	
0.132492	-0.949892	0.216062	0.21	0.98	-1.47	-0.1103	0.3371	-0.2729	
0.138592	-0.959042	0.219478	0.35	2.59	-3.71	-0.1205	0.3403	-0.2712	
0.118218	-0.962702	0.213744	0.77	4.41	-5.18	-0.122	0.3419	-0.2666	
0.109312	-0.964532	0.200934	0.56	3.99	-5.39	-0.1219	0.3356	-0.2758	
0.111142	-0.944158	0.198006	-0.49	1.4	-2.73	-0.1161	0.3341	-0.2728	
0.11651	-0.93086	0.199226	-1.68	1.19	-1.54	-0.1335	0.3312	-0.2697	
0.12444	-0.9211	0.202764	-2.73	0.35	-2.03	-0.1161	0.3433	-0.2743	
0.13664	-0.920124	0.1952	-4.06	0.28	-2.87	-0.1161	0.3417	-0.2773	
0.15372	-0.931958	0.18849	-5.95	1.82	-4.2	-0.1277	0.3403	-0.2711	
0.133834	-0.971974	0.183488	-6.16	2.24	-7.7	-0.1276	0.3326	-0.2788	
0.125172	-0.980026	0.183122	-4.9	0.84	-6.37	-0.1205	0.3387	-0.2727	
0.128466	-0.97661	0.183854	-3.57	1.4	-3.92	-0.1132	0.3371	-0.2774	
0.121024	-0.975146	0.188368	-2.17	1.75	-2.17	-0.1263	0.3327	-0.2667	
0.123708	-0.960628	0.202886	-0.56	1.26	-1.12	-0.1103	0.331	-0.2729	
0.130906	-0.9516	0.212036	0.98	0.98	-1.26	-0.1233	0.3341	-0.2758	
0.13115	-0.954406	0.220088	2.59	0.84	-2.03	-0.1263	0.3418	-0.2711	
0.135542	-0.953308	0.22448	3.71	0.21	-2.45	-0.1234	0.3418	-0.2742	
0.135664	-0.956236	0.224846	4.48	-0.42	-2.73	-0.119	0.3387	-0.2728	
0.1464	-0.951112	0.225822	4.69	-1.19	-2.38	-0.1263	0.3342	-0.2697	
0.15982	-0.921954	0.230092	4.34	-0.49	-0.91	-0.1218	0.3295	-0.2774	
0.158844	-0.918172	0.233386	3.99	0.63	-1.82	-0.1305	0.3235	-0.2744	
0.145058	-0.930372	0.241316	4.48	0.91	-3.71	-0.1305	0.3325	-0.2834	
0.1464	-0.927566	0.233874	4.97	0.42	-4.06	-0.1276	0.328	-0.2789	
0.152988	-0.937082	0.223626	4.69	0.84	-4.9	-0.129	0.3234	-0.2805	
0.137982	-0.953918	0.221064	3.99	0.84	-5.53	-0.1233	0.3281	-0.2698	
0.135908	-0.95404	0.225944	3.01	0	-3.5	-0.1247	0.325	-0.2698	
0.136274	-0.947818	0.224602	1.89	0.07	-1.26	-0.1261	0.3325	-0.2834	
0.135908	-0.931226	0.225578	0.91	-0.07	0.42	-0.1291	0.3295	-0.2773	
0.1403	-0.923052	0.222162	-0.07	-0.14	0.49	-0.1304	0.3294	-0.2865	
0.135664	-0.939156	0.220942	-0.35	-0.77	-1.33	-0.1334	0.328	-0.2788	
0.132492	-0.951844	0.214598	-0.35	-2.03	-1.54	-0.1304	0.3249	-0.285	
0.13664	-0.95343	0.216062	0	-2.73	-0.77	-0.1305	0.3311	-0.2788	
0.135054	-0.956846	0.213744	0.42	-3.08	0.42	-0.1304	0.3294	-0.2895	
0.148352	-0.949526	0.213622	0.7	-3.78	1.96	-0.1261	0.325	-0.2759	
0.159332	-0.941718	0.215086	0.77	-3.29	2.24	-0.1261	0.328	-0.2774	
0.158722	-0.944524	0.212036	0.49	-1.61	0.91	-0.1261	0.3294	-0.285	
0.15921	-0.946598	0.211426	0.42	-1.4	0.28	-0.132	0.3311	-0.2773	
0.160674	-0.950868	0.212768	0.28	-0.77	0.42	-0.129	0.3341	-0.2834	
0.158844	-0.94733	0.212646	0.07	-0.07	0.91	-0.1347	0.3204	-0.282	
0.16592	-0.943426	0.215086	-0.14	0.84	0.91	-0.1334	0.3265	-0.2804	
0.160552	-0.943914	0.217282	0	2.31	0.35	-0.1291	0.3265	-0.2743	
0.155306	-0.945256	0.214354	0.14	3.29	-0.14	-0.126	0.3233	-0.2851	
0.155794	-0.945256	0.212036	0.21	3.22	-0.63	-0.1188	0.3217	-0.2852	
0.147376	-0.939644	0.217038	-0.21	3.71	-0.56	-0.1305	0.3341	-0.2819	
0.144936	-0.939522	0.21777	-0.91	3.5	-0.77	-0.1246	0.3264	-0.2835	
0.142862	-0.945744	0.217648	-0.91	3.57	-1.68	-0.1261	0.331	-0.2804	
0.133468	-0.949526	0.21533	-0.63	2.87	-1.47	-0.1232	0.3264	-0.2835	
0.137982	-0.946598	0.211304	-0.49	2.94	-1.33	-0.1247	0.3264	-0.2805	
0.1342	-0.954284	0.21106	0.35	2.1	-2.03	-0.1218	0.3341	-0.2758	
0.14213	-0.948184	0.216794	1.12	0.98	-1.4	-0.1217	0.3294	-0.2866	
0.13786	-0.94977	0.22143	1.33	1.47	-1.19	-0.1131	0.3309	-0.2805	
0.13237	-0.942084	0.22631	0.56	0.21	0.42	-0.1334	0.3235	-0.2758	
0.140056	-0.940254	0.225212	-0.28	-0.21	0.77	-0.1232	0.331	-0.2804	
0.134078	-0.94245	0.220942	-0.63	-0.21	0.42	-0.1218	0.3249	-0.279	
0.14213	-0.939766	0.219478	-1.05	-0.42	0.77	-0.1333	0.3249	-0.2865	
0.145546	-0.943548	0.218136	-1.33	-0.49	0.35	-0.116	0.3294	-0.2805	
0.143594	-0.945866	0.212036	-1.54	-0.7	0.07	-0.1275	0.3203	-0.282	
0.141398	-0.947696	0.192638	-1.68	-0.91	-0.21	-0.1217	0.3218	-0.2851	
0.131882	-0.945744	0.178852	-2.24	-1.26	-0.56	-0.129	0.3234	-0.2805	
0.122488	-0.96868	0.170068	-2.59	-2.73	-0.28	-0.1232	0.3294	-0.2881	
0.125294	-1.006622	0.166652	-1.05	-5.11	-0.63	-0.1289	0.3218	-0.2896	
0.12932	-1.010404	0.185196	1.96	-5.11	0.49	-0.1233	0.3266	-0.2683	
0.115534	-1.005402	0.193248	6.3	-3.57	0.77	-0.1275	0.3234	-0.279	
0.110288	-0.991006	0.17568	8.96	-2.17	4.2	-0.1274	0.3187	-0.2866	
0.134322	-0.965264	0.155428	10.64	-3.01	6.65	-0.1333	0.3204	-0.2805	
0.162138	-0.966606	0.144814	11.41	-3.5	4.62	-0.1319	0.3326	-0.2834	
0.106262	-1.01992	0.15799	18.06	-1.61	-3.01	-0.1231	0.3217	-0.2897	
0.08845	-1.043222	0.166652	24.85	-2.8	-1.05	-0.1274	0.3232	-0.2927	
0.124318	-1.019676	0.193248	31.36	-5.95	3.22	-0.1259	0.3125	-0.2974	
0.134566	-0.995398	0.201666	36.12	-3.57	4.97	-0.123	0.3125	-0.2944	
0.135298	-0.968558	0.200568	40.04	-1.89	3.64	-0.123	0.3216	-0.3034	
0.114558	-0.96807	0.19764	44.24	1.47	-0.84	-0.1345	0.3094	-0.3019	
0.106872	-0.958554	0.210938	47.95	3.22	-4.55	-0.1316	0.3094	-0.3065	
0.122976	-0.94611	0.244244	51.66	2.52	-5.04	-0.127	0.297	-0.3158	
0.146034	-0.91134	0.259372	54.74	2.52	-4.48	-0.1226	0.2878	-0.316	
0.162748	-0.885842	0.285114	56.42	2.31	-5.88	-0.1327	0.2832	-0.3205	
0.158722	-0.87657	0.317078	57.12	4.27	-9.73	-0.1326	0.2815	-0.3358	
0.14457	-0.864858	0.36051	55.65	4.69	-13.44	-0.134	0.2769	-0.3389	
0.154208	-0.85522	0.370392	54.6	6.02	-15.54	-0.131	0.2585	-0.3376	
0.154696	-0.870592	0.40077	54.74	4.83	-14.35	-0.1323	0.2585	-0.3437	
0.184708	-0.86193	0.414678	56.28	6.02	-11.48	-0.1366	0.2493	-0.3498	
0.154208	-0.83143	0.424438	57.96	11.41	-12.25	-0.1335	0.2338	-0.3607	
0.1281	-0.781288	0.45506	55.79	9.17	-10.71	-0.1262	0.2262	-0.3594	
0.182268	-0.793122	0.495686	54.88	0.42	-13.09	-0.1333	0.2184	-0.3746	
0.157746	-0.82167	0.50386	56.84	-0.07	-15.26	-0.139	0.2123	-0.3746	
0.14396	-0.797758	0.491172	57.89	1.82	-10.43	-0.1346	0.2015	-0.3778	
0.173118	-0.760182	0.506178	56.28	-3.43	-7	-0.1288	0.2015	-0.3733	
0.183854	-0.74359	0.53741	54.04	-4.83	-7.77	-0.1358	0.1907	-0.3902	
0.199226	-0.746152	0.579378	52.85	-6.09	-6.3	-0.1358	0.1785	-0.3888	
0.193492	-0.731146	0.568276	53.27	-0.35	-4.48	-0.137	0.1661	-0.4011	
0.16409	-0.733342	0.560956	53.9	-0.35	-4.55	-0.1357	0.1708	-0.3919	
0.148718	-0.730292	0.560956	54.81	-2.31	-3.43	-0.1458	0.1602	-0.3919	
0.16592	-0.690154	0.59658	56.21	-6.51	0	-0.1354	0.1447	-0.4014	
0.233752	-0.647454	0.643184	57.05	-9.24	1.68	-0.1354	0.134	-0.403	
0.25986	-0.6466	0.662826	58.45	-8.54	-5.53	-0.1441	0.1325	-0.4014	
0.220698	-0.661362	0.66368	59.92	-3.99	-10.64	-0.144	0.1188	-0.4016	
0.22082	-0.625494	0.669048	59.99	-1.54	-9.38	-0.1511	0.1035	-0.4047	
0.184464	-0.600728	0.665876	59.57	0.42	-10.29	-0.1569	0.102	-0.4077	
0.193614	-0.60146	0.686128	58.59	-2.31	-11.06	-0.151	0.09429999	-0.4079	
0.197518	-0.59719	0.715652	57.75	-2.59	-13.02	-0.1378	0.0803	-0.4188	
0.201056	-0.595726	0.726754	56.91	-3.85	-13.93	-0.1436	0.0758	-0.4112	
0.179218	-0.578036	0.720288	55.3	-3.22	-13.72	-0.1478	0.0696	-0.4219	
0.179096	-0.545218	0.721386	52.71	-6.3	-11.06	-0.1477	0.0498	-0.4206	
0.20252	-0.52887	0.738344	49.91	-8.54	-9.52	-0.1463	0.0452	-0.4176	
0.228384	-0.510814	0.777262	49.63	-7.63	-9.17	-0.152	0.033	-0.4177	
0.257908	-0.484096	0.810568	49.35	-9.1	-9.24	-0.1534	0.036	-0.4222	
0.290604	-0.473604	0.831186	50.61	-6.23	-12.18	-0.1592	0.0269	-0.4192	
0.267912	-0.445178	0.82655	50.4	-2.59	-13.3	-0.1576	0.0176	-0.4285	
0.26596	-0.40748	0.847534	45.99	-2.17	-12.04	-0.1577	0.0162	-0.4179	
0.274134	-0.382958	0.88572	41.51	-2.24	-10.92	-0.1547	0.0009	-0.4196	
0.301096	-0.3477	0.901458	37.59	-1.75	-8.89	-0.1576	-0.002	-0.4165	
0.286822	-0.327814	0.875838	35.42	0.49	-9.52	-0.1574	-0.0174	-0.4274	
0.257786	-0.352946	0.910364	33.18	-0.7	-9.59	-0.1575	-0.0143	-0.4213	
0.279746	-0.319762	0.931348	29.47	0.56	-6.16	-0.1487	-0.0372	-0.417	
0.281698	-0.280478	0.918172	26.04	0.7	-5.46	-0.1602	-0.0326	-0.4245	
0.286456	-0.249246	0.916342	20.86	0	-6.58	-0.1558	-0.0358	-0.4322	
0.292556	-0.26596	0.945134	16.8	-0.35	-7.7	-0.1486	-0.0449	-0.4202	
0.297192	-0.277672	0.947696	14.77	0.7	-7	-0.1528	-0.048	-0.4278	
0.319396	-0.26352	0.957212	12.6	2.87	-5.81	-0.1572	-0.0526	-0.4278	
0.315614	-0.24278	0.94611	10.36	5.11	-6.44	-0.1572	-0.0495	-0.4293	
0.29097	-0.261324	0.94611	7	4.97	-6.02	-0.163	-0.0434	-0.4261	
0.284992	-0.268034	0.96319	3.92	3.92	-2.94	-0.15	-0.0465	-0.4263	
0.283772	-0.252662	0.96563	-0.07	2.31	-0.21	-0.1615	-0.0526	-0.4293	
0.302072	-0.24949	0.966972	-4.06	1.12	-0.07	-0.1528	-0.0465	-0.4308	
0.286334	-0.244854	0.969656	-9.17	-0.07	-1.05	-0.1529	-0.0509	-0.4156	
0.300242	-0.251198	0.978318	-14.28	-0.98	-0.42	-0.1543	-0.0435	-0.4323	
0.302316	-0.273524	0.978684	-17.43	-0.63	1.05	-0.1558	-0.0419	-0.4292	
0.303658	-0.268766	0.961482	-20.23	2.31	3.36	-0.1571	-0.0526	-0.4293	
0.271694	-0.262544	0.960506	-26.25	2.17	4.97	-0.1442	-0.0389	-0.4262	
0.275842	-0.263032	0.962458	-30.38	-0.28	6.72	-0.1514	-0.0465	-0.4278	
0.292922	-0.275598	0.956602	-33.88	-0.42	7.63	-0.1471	-0.0374	-0.4277	
0.291702	-0.277916	0.925126	-37.94	0.98	8.4	-0.1501	-0.022	-0.4275	
0.285724	-0.277794	0.93513	-43.12	0.28	9.03	-0.1574	-0.0158	-0.4243	
0.27938	-0.295606	0.930372	-48.37	-0.21	9.73	-0.1516	-0.0114	-0.4304	
0.277916	-0.304512	0.906826	-52.99	-0.35	10.43	-0.1444	-0.0083	-0.4228	
0.274744	-0.342454	0.89487	-56.84	-0.63	10.01	-0.1502	0.0038	-0.4318	
0.262666	-0.361364	0.86803	-59.92	1.26	11.34	-0.1518	0.016	-0.4316	
0.275842	-0.365634	0.848632	-63.91	0.14	12.53	-0.1562	0.0238	-0.4269	
0.26474	-0.405284	0.81679	-66.85	0	11.76	-0.1447	0.0329	-0.4224	
0.244122	-0.437126	0.77775	-71.19	0	12.32	-0.152	0.0436	-0.4283	
0.232654	-0.477508	0.777262	-74.83	-1.96	13.3	-0.1449	0.059	-0.4175	
0.24339	-0.507398	0.762622	-77.7	-2.52	15.61	-0.1522	0.0682	-0.4173	
0.243634	-0.523136	0.745542	-80.15	-3.64	15.96	-0.1479	0.0849	-0.4248	
0.256078	-0.553148	0.725656	-82.11	-4.62	14.49	-0.1524	0.0851	-0.4095	
0.223626	-0.56913	0.66063	-84.28	-1.19	13.23	-0.1496	0.1111	-0.4108	
0.220454	-0.596458	0.608292	-86.38	0.35	15.33	-0.1541	0.1234	-0.4029	
0.216306	-0.64416	0.579012	-87.85	1.26	16.52	-0.1485	0.1387	-0.3967	
0.216916	-0.685274	0.560468	-87.92	0.63	17.5	-0.1458	0.1541	-0.389	
0.204594	-0.71065	0.526064	-85.82	3.5	18.2	-0.1373	0.1694	-0.3797	
0.181414	-0.730902	0.49837	-82.88	5.18	18.06	-0.1474	0.1801	-0.3841	
0.158478	-0.761524	0.464576	-79.52	3.57	17.71	-0.1374	0.1894	-0.3719	
0.140666	-0.79544	0.43554	-75.39	0.77	18.62	-0.1491	0.2032	-0.3716	
0.150548	-0.807762	0.43676	-72.94	-2.1	20.44	-0.1347	0.2108	-0.3716	
0.152866	-0.825452	0.422364	-70.98	-2.24	21.35	-0.1333	0.22	-0.37	
0.144204	-0.823744	0.371246	-69.58	-0.42	21.77	-0.1465	0.2293	-0.3622	
0.128832	-0.836188	0.31842	-68.88	0.7	19.67	-0.1452	0.2432	-0.3544	
0.11651	-0.873154	0.286822	-67.69	-0.42	16.66	-0.1322	0.2538	-0.3514	
0.09699	-0.91622	0.28365	-65.31	-1.96	14.77	-0.141	0.2646	-0.3481	
0.08235	-0.928908	0.277184	-61.74	-3.15	14.84	-0.1339	0.2677	-0.342	
0.088572	-0.906704	0.25376	-55.3	-4.55	16.73	-0.1296	0.2723	-0.3344	
0.096746	-0.89853	0.256932	-53.55	-5.6	14.91	-0.124	0.2877	-0.3251	
0.073444	-0.91439	0.244976	-51.31	-4.9	10.5	-0.1285	0.2909	-0.3129	
0.058804	-0.912804	0.233386	-49.91	-5.04	10.78	-0.1255	0.2954	-0.3205	
0.097112	-0.895114	0.241926	-49.56	-6.44	12.04	-0.1257	0.2986	-0.3036	
0.092476	-0.920246	0.228506	-48.86	-3.57	8.82	-0.1229	0.3079	-0.2975	
0.09089	-0.928298	0.208986	-48.09	-2.45	7	-0.1259	0.3125	-0.2959	
0.09394	-0.934886	0.184952	-46.69	-1.68	5.6	-0.1201	0.3125	-0.2898	
0.132004	-0.934276	0.189344	-47.25	-1.61	6.37	-0.1262	0.3372	-0.2758	
0.151402	-0.975024	0.183854	-47.6	0.98	3.08	-0.1131	0.3279	-0.2775	
0.118218	-1.002108	0.155184	-46.2	4.97	1.26	-0.119	0.3326	-0.2698	
0.082838	-0.990762	0.108092	-43.75	6.02	2.59	-0.1147	0.3265	-0.2638	
0.049288	-0.990762	0.051972	-41.02	4.55	4.13	-0.1191	0.3419	-0.2605	
0.047092	-1.014796	0.058194	-36.82	-0.21	2.87	-0.1248	0.3464	-0.2741	
0.051362	-1.014552	0.049288	-32.97	-2.73	2.31	-0.1192	0.3495	-0.2635	
0.072956	-1.026142	0.076128	-29.96	-7.35	0.91	-0.125	0.3512	-0.2558	
0.106506	-1.014552	0.07515199	-26.95	-10.43	3.29	-0.1208	0.3512	-0.2467	
0.126636	-0.990762	0.039406	-27.51	-8.19	3.85	-0.1178	0.3557	-0.2528	
0.115778	-1.01321	0.02745	-29.26	-6.58	1.96	-0.1208	0.3635	-0.2481	
0.093086	-1.02297	0.01952	-28.49	-5.88	1.61	-0.1282	0.3743	-0.2387	
0.082228	-1.025898	0.010248	-26.04	-6.72	3.01	-0.1253	0.3621	-0.2358	
0.10736	-1.000766	0.005612	-23.24	-7.7	5.04	-0.1197	0.3668	-0.2191	
0.098698	-1.003084	0.001708	-20.23	-5.39	3.29	-0.1211	0.3622	-0.2237	
0.095282	-1.013088	0.006222	-18.62	-6.58	1.75	-0.1153	0.3683	-0.2237	
0.125294	-1.040172	0.0061	-19.04	-6.86	0.35	-0.1168	0.3805	-0.2266	
0.113826	-1.095926	0.006344	-18.27	-5.25	-2.52	-0.1169	0.3792	-0.2098	
0.105164	-1.045784	-0.021716	-16.38	-1.4	1.26	-0.1154	0.3745	-0.2129	
0.101626	-1.0065	-0.02623	-13.65	0.56	1.68	-0.1096	0.3699	-0.21	
0.086254	-0.993934	-0.014274	-10.01	1.61	-0.42	-0.1242	0.3822	-0.2158	
0.104066	-0.983442	0.019764	-7.56	-0.63	-1.61	-0.1198	0.3867	-0.2188	
0.117852	-0.988444	0.03538	-6.44	0.56	-2.73	-0.1198	0.3837	-0.2128	
0.109068	-0.974902	0.028548	-6.51	3.85	-2.17	-0.1315	0.3823	-0.2096	
0.09333	-0.977586	0.019276	-9.94	3.71	-0.7	-0.1286	0.3869	-0.205	
0.061244	-1.000644	0.005368	-10.22	3.15	-1.05	-0.1227	0.3822	-0.2143	
0.07259	-1.015406	-0.001464	-7.14	1.54	-0.35	-0.1315	0.39	-0.2096	
0.076128	-1.037854	0.005368	-3.78	1.19	-0.56	-0.1287	0.3855	-0.2005	
0.117608	-0.98332	0.01708	-1.61	-0.49	3.43	-0.1199	0.3868	-0.2082	
0.12932	-1.007964	0.012566	-1.96	1.61	0.91	-0.1082	0.3775	-0.2145	
0.101504	-1.046028	0.021472	-0.84	3.36	0.56	-0.117	0.3853	-0.2097	
0.103578	-1.01016	0.011102	1.47	4.69	3.43	-0.1242	0.3822	-0.2128	
0.094428	-0.994178	-0.021838	2.24	5.11	2.94	-0.1213	0.3898	-0.2157	
0.088938	-1.015284	-0.028914	3.57	3.15	1.12	-0.1113	0.3914	-0.2052	
0.10126	-1.01382	-0.00854	5.67	1.4	0.56	-0.1153	0.3699	-0.2191	
0.114192	-0.978318	-0.012444	6.44	1.82	1.05	-0.1155	0.3853	-0.2113	
0.130174	-0.991616	-0.00366	4.83	2.1	-0.63	-0.1213	0.3853	-0.2112	
0.09942999	-1.019676	-0.01098	4.83	4.27	-1.96	-0.1141	0.3868	-0.2082	
0.08662	-1.014308	-0.01952	6.58	5.11	-0.7	-0.1126	0.3837	-0.2129	
0.07137	-0.998326	-0.010492	10.43	4.83	-0.28	-0.114	0.3745	-0.2114	
0.076982	-1.016504	-0.005612	12.81	3.64	-1.82	-0.1169	0.3791	-0.2144	
0.10004	-1.018456	0.011102	15.61	1.4	-1.54	-0.1124	0.3683	-0.2237	
0.095892	-1.016138	0.000244	17.92	1.68	-1.33	-0.1198	0.3852	-0.2143	
0.08723	-1.04676	-0.00061	21	1.75	-0.77	-0.1067	0.3775	-0.2191	
0.091744	-1.047614	0.015494	24.64	1.47	0.56	-0.1167	0.3682	-0.2328	
0.09577	-1.02175	0.02806	27.44	1.68	1.47	-0.1137	0.3681	-0.2435	
0.09552599	-0.99613	0.025986	28.84	1.75	0.63	-0.1166	0.3682	-0.2343	
0.077958	-1.004426	0.034892	29.82	1.82	-0.63	-0.1078	0.365	-0.2436	
0.05673	-1.00955	0.027816	32.34	1.61	-1.54	-0.1165	0.3619	-0.2512	
0.062342	-1.012356	0.045994	35.56	-1.82	-1.89	-0.1194	0.3619	-0.2496	
0.074298	-0.983808	0.076494	38.29	-4.83	-1.05	-0.1193	0.3603	-0.2527	
0.125416	-0.96807	0.108214	38.57	-6.16	-1.4	-0.1251	0.3604	-0.2526	
0.125294	-0.989664	0.12078	38.29	-2.59	-5.25	-0.1207	0.3511	-0.2558	
0.096502	-0.992104	0.126392	39.2	1.05	-5.74	-0.1206	0.3419	-0.262	
0.072834	-1.003328	0.127124	38.92	2.24	-5.74	-0.1235	0.3495	-0.268	
0.052704	-1.021994	0.134932	38.22	-2.45	-4.62	-0.1334	0.3387	-0.2787	
0.0732	-0.990274	0.151768	40.88	-5.74	-1.68	-0.1291	0.3356	-0.2803	
0.097844	-0.953552	0.164578	42.91	-5.81	-1.33	-0.1276	0.3356	-0.2849	
0.119194	-0.936838	0.21533	43.54	-6.93	-3.08	-0.1246	0.3309	-0.288	
0.133224	-0.949648	0.246074	43.12	-6.02	-5.25	-0.1245	0.3156	-0.2928	
0.134078	-0.920124	0.248026	42	-2.52	-4.48	-0.1259	0.3201	-0.2973	
0.128588	-0.904752	0.255468	38.71	-0.42	-4.97	-0.1214	0.3001	-0.3037	
0.119316	-0.928298	0.269498	37.31	-0.49	-6.65	-0.1287	0.3079	-0.2989	
0.110654	-0.940864	0.260348	38.71	0.56	-8.12	-0.1287	0.3108	-0.3081	
0.123952	-0.924028	0.2623	42.28	-0.7	-7.28	-0.1242	0.3016	-0.3082	
0.124562	-0.903166	0.277184	44.38	-2.24	-6.37	-0.1327	0.2863	-0.319	
0.116754	-0.926956	0.313418	44.38	-4.41	-5.6	-0.1356	0.2817	-0.3205	
0.118462	-0.925492	0.327326	45.78	-3.15	-4.13	-0.1254	0.2877	-0.3266	
0.144692	-0.903898	0.33855	46.9	-2.94	-4.13	-0.134	0.2724	-0.3344	
0.145058	-0.90219	0.336842	48.23	0.49	-5.32	-0.1353	0.2677	-0.3405	
0.114436	-0.903166	0.32818	50.68	0.91	-7.56	-0.1368	0.2647	-0.3359	
0.13176	-0.859856	0.351604	51.73	-1.26	-7.28	-0.1337	0.2477	-0.3484	
0.13969	-0.842166	0.377224	50.82	-0.98	-8.05	-0.1378	0.2324	-0.3576	
0.157014	-0.818376	0.404308	51.38	-1.4	-7.14	-0.135	0.2385	-0.3576	
0.144082	-0.790194	0.414312	52.22	1.33	-6.72	-0.1306	0.2353	-0.3623	
0.121756	-0.767502	0.426268	53.48	2.59	-6.51	-0.1378	0.2277	-0.3638	
0.14396	-0.755058	0.475434	53.2	-0.7	-7.21	-0.1391	0.2108	-0.3686	
0.167628	-0.760182	0.512156	54.39	-2.52	-9.8	-0.1375	0.2061	-0.3778	
0.18971	-0.722972	0.558028	55.72	-1.33	-9.87	-0.1447	0.2031	-0.3823	
0.200324	-0.718702	0.576694	56.49	0.77	-12.95	-0.1389	0.1954	-0.3779	
0.167872	-0.72224	0.58011	56.56	4.34	-14.14	-0.1461	0.1909	-0.3824	
0.168238	-0.704306	0.586698	55.37	3.99	-13.86	-0.1459	0.1694	-0.3827	
0.15616	-0.700036	0.598654	54.81	3.57	-14.63	-0.1429	0.1616	-0.395	
0.163114	-0.693936	0.618174	55.86	1.26	-13.72	-0.1429	0.1526	-0.3875	
0.163724	-0.66734	0.618296	57.68	1.47	-13.02	-0.1427	0.1447	-0.4013	
0.157136	-0.632936	0.623664	58.45	-0.21	-12.6	-0.1384	0.1417	-0.3937	
0.16592	-0.61183	0.641964	56.84	-0.98	-13.86	-0.1454	0.1339	-0.4136	
0.196054	-0.626226	0.69418	56.14	-3.01	-15.82	-0.1469	0.1233	-0.4061	
0.202642	-0.60146	0.701012	57.54	-1.89	-15.05	-0.1455	0.1249	-0.403	
0.174826	-0.564006	0.684542	57.12	-0.63	-14.07	-0.1439	0.1065	-0.4048	
0.169946	-0.575352	0.71736	53.48	-3.43	-15.54	-0.1481	0.0957	-0.4125	
0.194468	-0.579622	0.757498	52.85	-6.16	-13.44	-0.1524	0.0835	-0.411	
0.215086	-0.543022	0.767624	54.39	-5.18	-10.64	-0.1509	0.085	-0.4126	
0.226676	-0.506178	0.766648	55.3	-5.04	-10.85	-0.1521	0.065	-0.425	
0.22265	-0.504592	0.789462	53.41	-5.88	-13.44	-0.155	0.065	-0.4265	
0.258762	-0.488488	0.828624	51.31	-5.11	-12.39	-0.1521	0.0529	-0.4205	
0.280844	-0.446764	0.843874	48.86	-3.36	-12.18	-0.1534	0.0376	-0.4222	
0.277672	-0.446642	0.859124	46.48	-1.82	-13.44	-0.1636	0.0346	-0.4191	
0.250222	-0.440298	0.83448	45.5	0.84	-13.3	-0.1578	0.0346	-0.4176	
0.229604	-0.430294	0.825818	43.82	-0.07	-12.74	-0.1519	0.0268	-0.4224	
0.22875	-0.424438	0.831186	41.02	-1.05	-12.53	-0.149	0.0177	-0.4179	
0.241926	-0.412116	0.842776	38.15	-3.29	-12.04	-0.1547	0.01	-0.4225	
0.263276	-0.388204	0.863394	33.95	-4.2	-11.62	-0.1619	-0.0005	-0.418	
0.260226	-0.420168	0.872056	32.13	-3.99	-10.92	-0.1545	-0.0113	-0.4274	
0.272426	-0.39711	0.866566	32.06	-3.22	-8.19	-0.1602	-0.0235	-0.4274	
0.261812	-0.370636	0.835456	32.13	-3.22	-7.91	-0.1516	-0.0128	-0.4259	
0.251564	-0.392962	0.840092	30.59	-3.71	-9.38	-0.1589	-0.0204	-0.4198	
0.257176	-0.393328	0.885476	29.82	-5.46	-9.38	-0.1588	-0.0433	-0.4155	
0.267668	-0.357338	0.887184	30.17	-6.37	-6.58	-0.1675	-0.031	-0.4183	
0.292434	-0.347456	0.887916	28.63	-7.07	-5.39	-0.1645	-0.0373	-0.4291	
0.284382	-0.344894	0.88572	27.44	-5.95	-4.41	-0.1573	-0.0418	-0.417	
0.290848	-0.3294	0.860222	26.11	-4.27	-3.29	-0.1646	-0.0387	-0.4184	
0.29707	-0.328424	0.868396	24.22	-3.64	-4.41	-0.1718	-0.0508	-0.4124	
0.289994	-0.318908	0.894382	22.19	-3.71	-5.74	-0.1659	-0.0662	-0.4187	
0.299876	-0.289018	0.903776	21.28	-2.87	-4.69	-0.1616	-0.0555	-0.4141	
0.279746	-0.29402	0.902312	19.18	-2.94	-5.46	-0.1674	-0.06	-0.4156	
0.318664	-0.286578	0.903654	15.68	-2.1	-4.2	-0.1703	-0.06	-0.4156	
0.310368	-0.2989	0.927322	11.13	-1.75	-5.25	-0.1687	-0.07229999	-0.4172	
0.316956	-0.263642	0.91866	10.22	-1.33	-2.66	-0.1716	-0.07229999	-0.4233	
0.321348	-0.260226	0.909754	7.49	-1.75	-3.15	-0.1644	-0.0769	-0.4173	
0.322202	-0.257176	0.922442	5.74	-3.15	-4.55	-0.163	-0.0737	-0.4097	
0.334036	-0.25193	0.959774	3.36	-2.38	-4.97	-0.1716	-0.0845	-0.4174	
0.334646	-0.219478	0.945744	1.05	-0.28	-2.94	-0.1657	-0.0846	-0.4235	
0.34465	-0.219478	0.943792	-3.15	0.28	-3.29	-0.1687	-0.0783	-0.4127	
0.309514	-0.242048	0.94977	-6.44	1.12	-3.57	-0.1629	-0.0785	-0.4219	
0.31415	-0.230458	0.952942	-10.08	1.54	0.07	-0.1687	-0.0769	-0.4203	
0.344284	-0.205814	0.984662	-13.65	1.26	3.01	-0.1644	-0.0768	-0.4097	
0.347212	-0.208498	0.983198	-16.87	1.47	3.92	-0.1658	-0.07229999	-0.4173	
0.33306	-0.203984	0.976244	-20.09	2.59	5.53	-0.1659	-0.0676	-0.4096	
0.306342	-0.196664	0.948916	-24.15	2.73	6.58	-0.1643	-0.0708	-0.4234	
0.319518	-0.211426	0.965264	-29.26	0.77	8.68	-0.1674	-0.0509	-0.417	
0.338672	-0.211548	0.968924	-33.53	1.33	10.99	-0.1571	-0.0602	-0.4264	
0.349042	-0.214476	0.975024	-37.45	2.1	11.9	-0.1645	-0.054	-0.4216	
0.327936	-0.220576	0.945378	-40.74	3.78	12.67	-0.1746	-0.0433	-0.426	
0.299998	-0.244122	0.923784	-48.02	1.54	14.07	-0.1618	-0.0325	-0.4138	
0.318054	-0.2684	0.926712	-53.13	0.91	14.56	-0.1647	-0.028	-0.4183	
0.294264	-0.286578	0.930616	-56.49	1.89	15.61	-0.1677	-0.0156	-0.412	
0.289994	-0.28853	0.898774	-59.57	2.87	17.57	-0.1633	-0.0081	-0.4196	
0.278038	-0.303292	0.856318	-64.19	2.94	17.36	-0.1677	-0.002	-0.421	
0.27145	-0.343796	0.856806	-70.98	0.91	17.15	-0.1664	0.0132	-0.4178	
0.299998	-0.36783	0.846924	-77.14	0.98	18.62	-0.1664	0.0238	-0.4253	
0.284748	-0.411018	0.831064	-81.48	3.29	15.96	-0.1577	0.039	-0.4283	
0.23607	-0.446276	0.775554	-82.46	5.74	15.33	-0.1549	0.0483	-0.4236	
0.205692	-0.45018	0.720166	-85.19	4.83	16.94	-0.1551	0.0682	-0.4142	
0.220698	-0.492026	0.723948	-89.32	0.7	17.5	-0.1597	0.0913	-0.4094	
0.230092	-0.531066	0.69479	-91.77	-0.21	18.55	-0.1612	0.09429999	-0.4078	
0.224724	-0.57218	0.67466	-92.47	1.26	18.27	-0.1599	0.1067	-0.3955	
0.21289	-0.615002	0.656726	-92.33	3.78	18.2	-0.157	0.1173	-0.406	
0.181292	-0.635742	0.569252	-91.35	10.92	18.2	-0.147	0.1326	-0.3953	
0.135542	-0.643184	0.51118	-92.47	9.94	16.45	-0.1529	0.1525	-0.3965	
0.132858	-0.698938	0.481412	-92.54	5.95	12.25	-0.14	0.1647	-0.3904	
0.12627	-0.7686	0.452742	-90.16	4.62	8.61	-0.1459	0.1816	-0.3886	
0.124318	-0.804834	0.423462	-85.26	4.2	7.77	-0.1446	0.1909	-0.3794	
0.137494	-0.807396	0.402112	-80.36	4.27	8.47	-0.1432	0.2	-0.3793	
0.134444	-0.82289	0.387472	-76.09	4.13	9.03	-0.1434	0.2093	-0.3685	
0.126636	-0.8296	0.35807	-73.36	3.22	9.31	-0.1451	0.2309	-0.3576	
0.11651	-0.828502	0.325008	-72.31	2.24	9.03	-0.1451	0.2309	-0.3576	
0.120292	-0.852536	0.297924	-71.33	-0.21	7.63	-0.1409	0.2417	-0.3453	
0.12932	-0.881938	0.281698	-69.58	-2.94	6.3	-0.1409	0.2417	-0.3453	
0.120048	-0.91073	0.25315	-66.36	-3.99	6.23	-0.1337	0.2508	-0.3483	
0.128832	-0.930128	0.23302	-64.12	-7.28	6.86	-0.1382	0.2723	-0.3435	
0.180682	-0.942084	0.245586	-62.93	-10.15	8.47	-0.1441	0.2801	-0.3357	
0.203984	-0.950502	0.240462	-60.9	-8.12	7.07	-0.1385	0.2833	-0.3174	
0.169824	-0.953796	0.223626	-58.24	-4.76	5.74	-0.14	0.2924	-0.3219	
0.108946	-0.92171	0.170434	-54.32	-1.61	6.51	-0.1401	0.291	-0.3082	
0.103334	-0.937692	0.157746	-53.06	-3.57	6.51	-0.1418	0.311	-0.2988	
0.157624	-0.951844	0.194712	-49.84	-8.4	6.86	-0.1418	0.3095	-0.2988	
0.163358	-0.952454	0.18422	-45.43	-5.53	5.95	-0.1448	0.3142	-0.2896	
0.154818	-0.959042	0.169824	-41.65	-4.13	5.11	-0.1348	0.3264	-0.2849	
0.169092	-0.968192	0.16775	-38.99	-3.29	5.67	-0.1347	0.3218	-0.288	
0.160308	-0.964288	0.1586	-37.17	0.07	6.02	-0.142	0.3235	-0.2788	
0.135786	-0.979904	0.134444	-36.05	1.54	5.6	-0.138	0.339	-0.2573	
0.119926	-1.00101	0.133224	-34.09	-1.33	5.6	-0.1494	0.3389	-0.2755	
0.13115	-0.987102	0.112484	-31.64	-3.43	8.61	-0.1365	0.3359	-0.2604	
0.158234	-0.97722	0.100162	-30.24	-4.62	9.59	-0.1453	0.3436	-0.2587	
0.146278	-1.002962	0.066002	-28.7	-4.41	7.42	-0.1308	0.3481	-0.2573	
0.1464	-1.024556	0.066246	-26.04	-6.02	5.67	-0.1308	0.3466	-0.2604	
0.132248	-1.035048	0.065026	-23.1	-5.81	4.83	-0.1266	0.3604	-0.248	
0.12444	-1.041636	0.067222	-21.28	-7.7	5.88	-0.1367	0.3544	-0.2511	
0.125416	-1.01504	0.061122	-19.18	-8.54	7.42	-0.1281	0.3604	-0.2496	
0.117364	-1.003938	0.045018	-17.08	-7.84	7.49	-0.1282	0.3591	-0.2343	
0.097722	-1.006866	0.058072	-14.49	-9.45	7.28	-0.1325	0.3606	-0.2373	
0.135786	-0.99369	0.056242	-11.41	-9.73	7.21	-0.1368	0.356	-0.2389	
0.153964	-0.993568	0.084668	-11.9	-8.89	4.41	-0.1355	0.3653	-0.2281	
0.13542	-1.007964	0.07808	-11.69	-4.97	2.1	-0.1311	0.3545	-0.2344	
0.118096	-1.00406	0.070882	-11.06	-2.66	2.17	-0.1383	0.3668	-0.2372	
0.103334	-0.995398	0.048434	-10.29	-0.63	3.08	-0.1327	0.3775	-0.2295	
0.097112	-1.001986	0.06039	-9.66	-1.75	4.13	-0.1341	0.3622	-0.2281	
0.103822	-0.998692	0.061732	-8.61	-3.36	7.21	-0.124	0.3744	-0.2281	
0.114558	-0.98881	0.052094	-7.56	-1.33	7.35	-0.1269	0.3668	-0.2251	
0.10553	-1.006622	0.055388	-7.28	0.42	6.02	-0.1225	0.3759	-0.2311	
0.105408	-0.985272	0.06039	-6.79	1.19	7.49	-0.124	0.3714	-0.2251	
0.121756	-0.962092	0.048068	-8.54	0.63	7.84	-0.1285	0.3883	-0.2218	
0.097844	-1.014918	0.039528	-9.52	1.19	3.15	-0.1227	0.3837	-0.2204	
0.073444	-1.02053	0.029768	-7.28	1.68	3.08	-0.1212	0.3776	-0.2189	
0.070882	-0.989176	0.03538	-4.97	0.28	3.64	-0.1298	0.3745	-0.228	
0.124684	-0.951966	0.057096	-6.37	-3.43	4.06	-0.1255	0.3775	-0.2235	
0.121146	-0.979538	0.048556	-7.56	0.28	-0.28	-0.1211	0.379	-0.2265	
0.102602	-1.000644	0.052216	-7.14	2.66	-1.61	-0.124	0.379	-0.228	
0.118706	-0.976976	0.052582	-7.84	3.64	-1.19	-0.1182	0.3714	-0.2251	
0.10797	-1.002474	0.025132	-7.98	5.67	-1.4	-0.1228	0.3853	-0.2112	
0.072834	-1.045418	0.00732	-5.04	7.35	-1.33	-0.1255	0.3806	-0.2234	
0.063562	-1.029924	0.005734	-0.63	6.37	1.75	-0.1183	0.3776	-0.2159	
0.065026	-1.008452	0.014518	1.68	4.34	3.15	-0.1198	0.3806	-0.2174	
0.079544	-1.018334	0.010248	3.01	1.4	3.01	-0.1227	0.3791	-0.2174	
0.088328	-1.019798	0.019398	4.41	-0.07	4.2	-0.1169	0.3822	-0.2159	
0.102358	-0.99186	0.032208	5.04	0.49	5.32	-0.1168	0.379	-0.2205	
0.114924	-0.974292	0.039284	4.69	1.05	5.18	-0.1284	0.3806	-0.2204	
0.10919	-0.97722	0.033306	4.55	2.45	3.92	-0.1182	0.3759	-0.2266	
0.09394	-1.00711	0.022692	6.09	4.55	1.68	-0.1169	0.3791	-0.2113	
0.080886	-1.01687	0.025132	9.03	5.46	1.33	-0.1197	0.3744	-0.2251	
0.077226	-1.008818	0.021472	11.41	5.46	2.03	-0.1226	0.3775	-0.222	
0.043066	-1.020652	0.004392	14.84	5.6	2.03	-0.1254	0.3805	-0.2326	
0.05917	-1.018822	0.015616	16.17	1.89	2.73	-0.1138	0.3682	-0.2267	
0.093696	-1.023824	0.0427	16.94	-0.56	2.17	-0.1137	0.3742	-0.2419	
0.09272	-1.018944	0.050386	19.11	1.05	2.1	-0.1152	0.3758	-0.2358	
0.089548	-1.016748	0.054778	21.63	2.45	1.89	-0.1122	0.3665	-0.2466	
0.091744	-1.005768	0.052826	24.64	3.64	1.68	-0.105	0.365	-0.2421	
0.08113	-0.995642	0.06954	25.83	4.2	0.49	-0.1164	0.3603	-0.2527	
0.051606	-1.010038	0.064904	26.88	4.69	-0.35	-0.1107	0.3679	-0.2512	
0.065026	-1.006988	0.089792	27.3	3.08	1.96	-0.1091	0.3526	-0.2529	
0.081374	-1.010648	0.097722	28.28	2.52	1.68	-0.1048	0.3602	-0.2589	
0.083814	-1.001132	0.101382	29.89	2.45	1.75	-0.1105	0.3479	-0.2621	
0.07564	-1.003084	0.120414	31.57	1.96	1.68	-0.1046	0.3479	-0.2667	
0.066612	-0.998814	0.114558	33.32	2.31	2.94	-0.109	0.3464	-0.2606	
0.08967	-0.978684	0.134322	32.76	1.61	2.24	-0.1074	0.3447	-0.2789	
0.079178	-0.999424	0.147986	32.9	2.45	-1.33	-0.1133	0.3433	-0.2697	
0.065148	-1.012722	0.147864	34.51	4.41	-2.73	-0.1145	0.3309	-0.2866	
0.062952	-1.033584	0.160308	36.33	4.41	-2.66	-0.103	0.3294	-0.2776	
0.05551	-1.025654	0.168848	38.85	5.95	-1.89	-0.1101	0.3384	-0.2942	
0.045018	-1.017236	0.170434	41.37	6.09	-0.63	-0.11	0.3277	-0.2943	
0.066246	-0.976488	0.167262	43.12	3.99	0.07	-0.1128	0.3169	-0.3005	
0.101748	-0.948184	0.199348	41.65	0.84	-5.25	-0.11	0.3185	-0.2944	
0.065026	-0.999912	0.213622	41.37	2.66	-12.32	-0.09959999	0.3076	-0.3084	
0.049288	-0.993446	0.22326	43.54	3.57	-12.04	-0.1053	0.3045	-0.3175	
0.05551	-0.973072	0.238266	45.5	2.87	-10.01	-0.1097	0.3137	-0.3173	
0.077104	-0.948062	0.257176	47.04	2.1	-8.96	-0.1125	0.2908	-0.3176	
0.08113	-0.931348	0.264496	49.07	2.38	-10.08	-0.1139	0.2891	-0.3252	
0.064416	-0.919392	0.27572	51.03	3.43	-11.27	-0.1195	0.2799	-0.3314	
0.061366	-0.908046	0.290848	52.99	2.45	-10.78	-0.105	0.2752	-0.3392	
0.078812	-0.907314	0.324642	53.76	-0.91	-11.06	-0.1137	0.2753	-0.336	
0.092476	-0.919026	0.33977	55.86	-1.47	-11.76	-0.1106	0.2583	-0.3424	
0.10797	-0.873642	0.3599	61.46	3.22	-11.34	-0.1176	0.2429	-0.3638	
0.092598	-0.855708	0.384788	63.56	4.27	-13.51	-0.1206	0.246	-0.3546	
0.087962	-0.834236	0.405406	64.4	1.89	-14.7	-0.1219	0.2261	-0.3594	
0.07808	-0.828014	0.408822	65.03	-0.49	-14.7	-0.1246	0.226	-0.3716	
0.061488	-0.829234	0.424926	66.43	-2.87	-14.28	-0.123	0.2121	-0.3839	
0.067222	-0.801296	0.452132	67.76	-6.37	-11.69	-0.1171	0.2059	-0.3886	
0.094916	-0.779092	0.471652	68.53	-9.17	-10.85	-0.133	0.1923	-0.3795	
0.12688	-0.764574	0.491782	69.3	-10.85	-11.48	-0.1183	0.1798	-0.4011	
0.137128	-0.748958	0.51789	69.37	-11.13	-11.48	-0.1343	0.1784	-0.3964	
0.14701	-0.71919	0.523014	69.93	-8.47	-12.11	-0.1269	0.163	-0.3982	
0.138348	-0.701744	0.520696	70.77	-6.37	-13.16	-0.1325	0.14	-0.4091	
0.1342	-0.67771	0.539484	72.31	-5.67	-13.3	-0.1456	0.1402	-0.4028	
0.141764	-0.657214	0.571814	72.59	-8.19	-13.51	-0.1367	0.1293	-0.4091	
0.169702	-0.632204	0.605364	73.5	-9.1	-13.37	-0.1397	0.1264	-0.4015	
0.200446	-0.587552	0.609756	75.74	-7.35	-13.79	-0.1366	0.1141	-0.4078	
0.187758	-0.55083	0.625494	76.58	-5.32	-16.66	-0.1452	0.1034	-0.4124	
0.19459	-0.537776	0.691008	73.92	-10.43	-18.97	-0.1363	0.0772	-0.4189	
0.2318	-0.51606	0.735294	74.41	-8.05	-18.9	-0.1464	0.0696	-0.4219	
0.220576	-0.482266	0.740906	74.97	-6.3	-18.76	-0.1362	0.0558	-0.4191	
0.199226	-0.436394	0.758352	73.43	-8.54	-18.9	-0.1534	0.0406	-0.4268	
0.236314	-0.39955	0.80093	70.7	-10.85	-17.85	-0.1534	0.0406	-0.4268	
0.28243	-0.366122	0.830454	68.25	-8.89	-17.08	-0.1504	0.0237	-0.4316	
0.274622	-0.353678	0.839848	67.13	-4.48	-18.06	-0.1547	0.0115	-0.4271	
0.252418	-0.34038	0.84485	65.8	-3.29	-19.39	-0.1533	0.0161	-0.4255	
0.23912	-0.337818	0.855098	64.47	-3.71	-20.02	-0.1561	-0.0051	-0.4212	
0.245586	-0.324032	0.8662	63.63	-4.76	-18.76	-0.1575	-0.009699999	-0.4197	
0.250222	-0.29402	0.866566	62.86	-4.76	-17.92	-0.1602	-0.0342	-0.4291	
0.266204	-0.257786	0.911706	59.78	-7	-16.45	-0.1631	-0.0311	-0.4244	
0.297802	-0.227286	0.925492	56.91	-5.74	-14.7	-0.1616	-0.054	-0.4201	
0.30622	-0.21655	0.90585	54.81	-2.94	-14	-0.1557	-0.0602	-0.4279	
0.27938	-0.220942	0.890478	53.41	-1.47	-15.26	-0.1571	-0.0708	-0.4204	
0.245586	-0.198738	0.91073	50.33	-4.41	-14.84	-0.1614	-0.083	-0.419	
0.27267	-0.181658	0.927078	47.81	-6.79	-12.67	-0.1584	-0.08769999	-0.4236	
0.296338	-0.182024	0.938058	45.15	-7.28	-11.41	-0.1613	-0.1014	-0.4207	
0.309514	-0.175192	0.934398	43.4	-4.55	-10.22	-0.1613	-0.1044	-0.4131	
0.310246	-0.1647	0.944402	41.72	-1.54	-10.92	-0.1657	-0.1058	-0.41	
0.31171	-0.143716	0.958188	39.55	-2.03	-10.29	-0.1526	-0.1197	-0.4103	
0.330254	-0.131394	0.962214	37.73	-1.19	-9.73	-0.1613	-0.1211	-0.4087	
0.318176	-0.122122	0.953186	35.7	-0.28	-9.03	-0.1641	-0.1288	-0.4088	
0.309758	-0.104066	0.958798	32.9	-1.33	-8.19	-0.1611	-0.1364	-0.4104	
0.320738	-0.09455	0.973438	30.1	-2.45	-7.77	-0.1626	-0.147	-0.3999	
0.324032	-0.072712	0.977586	27.44	-1.75	-6.86	-0.1626	-0.144	-0.4029	
0.327204	-0.049044	0.983686	24.5	-2.52	-5.46	-0.1596	-0.1532	-0.4076	
0.330864	-0.055876	0.98271	21.07	-1.54	-4.83	-0.1684	-0.15	-0.3998	
0.339404	-0.042456	0.986248	18.13	-0.7	-3.57	-0.1597	-0.1593	-0.3985	
0.342576	-0.027938	0.98027	15.82	0.7	-3.43	-0.164	-0.1577	-0.4015	
0.343796	-0.027084	0.98454	12.39	1.33	-3.92	-0.151	-0.1745	-0.3881	
0.318542	-0.010736	0.98942	8.4	1.75	-3.5	-0.1583	-0.1561	-0.3909	
0.320738	-0.010126	0.999912	4.97	0.35	-2.24	-0.1611	-0.1608	-0.3985	
0.329034	-0.011834	1.010282	1.96	0.21	-1.47	-0.1669	-0.1622	-0.3939	
0.320372	-0.00488	1.015406	-1.05	0.77	-0.42	-0.1567	-0.1624	-0.4062	
0.321714	0.000854	1.025044	-4.06	0.28	0.98	-0.1552	-0.164	-0.4108	
0.339038	0.004148	1.029314	-7.63	0.49	2.03	-0.1596	-0.1654	-0.4047	
0.340136	0.00061	1.015406	-11.48	1.54	3.43	-0.1596	-0.1609	-0.4077	
0.32391	-0.001098	1.010648	-16.17	1.05	6.02	-0.148	-0.1609	-0.4047	
0.319274	-0.007808	1.011502	-20.51	1.47	7.98	-0.1626	-0.1592	-0.3954	
0.319762	-0.012078	1.023458	-24.22	0.84	10.15	-0.1611	-0.1578	-0.4046	
0.317566	-0.01708	1.0187	-27.79	1.4	11.27	-0.1552	-0.1549	-0.4153	
0.327448	-0.02196	1.03273	-31.71	-0.14	11.9	-0.1669	-0.1532	-0.406	
0.314882	-0.028548	1.035292	-36.19	0.28	12.53	-0.1524	-0.1472	-0.4137	
0.304756	-0.041114	1.01748	-40.6	2.03	14.07	-0.167	-0.1317	-0.4027	
0.284504	-0.048556	0.99369	-45.15	1.47	15.26	-0.1611	-0.135	-0.415	
0.28609	-0.05978	0.984052	-49.84	-0.42	16.94	-0.1585	-0.115	-0.4011	
0.30744	-0.079422	0.993934	-57.4	-0.14	18.48	-0.1656	-0.1059	-0.4161	
0.303048	-0.09455	0.96929	-61.11	1.54	18.55	-0.157	-0.1029	-0.4147	
0.285846	-0.12139	0.936106	-65.17	1.26	18.41	-0.1671	-0.0892	-0.4251	
0.278282	-0.159698	0.937814	-70.21	0.07	18.13	-0.1672	-0.07539999	-0.4264	
0.289994	-0.18727	0.938302	-73.78	1.96	19.25	-0.1673	-0.0662	-0.4172	
0.28487	-0.203496	0.912682	-77.07	4.62	19.25	-0.1687	-0.0632	-0.4248	
0.263398	-0.22936	0.881328	-79.24	4.55	19.32	-0.1644	-0.0449	-0.4292	
0.254126	-0.261324	0.861564	-81.76	4.55	19.67	-0.1675	-0.028	-0.4274	
0.25925	-0.297558	0.834358	-84.07	5.53	19.53	-0.1618	-0.0112	-0.4227	
0.249856	-0.330864	0.798734	-86.45	6.16	18.48	-0.1663	0.004	-0.421	
0.221308	-0.378932	0.75701	-88.27	6.3	18.34	-0.1636	0.0285	-0.4177	
0.213256	-0.41114	0.734806	-89.04	5.32	18.83	-0.1635	0.0253	-0.4268	
0.211792	-0.441152	0.734074	-89.6	3.85	19.11	-0.1549	0.0437	-0.4206	
0.221186	-0.473726	0.72773	-90.02	3.85	18.2	-0.1536	0.0575	-0.4189	
0.216794	-0.486902	0.681736	-89.95	6.37	17.71	-0.1538	0.0881	-0.4155	
0.185196	-0.551318	0.637328	-93.17	4.83	12.88	-0.1451	0.0835	-0.4126	
0.201056	-0.611952	0.618784	-93.8	5.88	13.09	-0.154	0.1065	-0.4062	
0.192394	-0.64294	0.602802	-93.66	7.35	13.79	-0.1524	0.1064	-0.4184	
0.150182	-0.663314	0.55022	-93.24	8.26	13.65	-0.1455	0.1325	-0.4044	
0.148718	-0.67588	0.50813	-93.73	5.81	15.68	-0.1557	0.1341	-0.4013	
0.164578	-0.693814	0.481656	-94.08	3.92	17.36	-0.1501	0.151	-0.392	
0.164578	-0.72163	0.46848	-93.59	3.43	16.17	-0.1385	0.1632	-0.392	
0.143228	-0.753838	0.445544	-91.91	3.78	13.79	-0.1433	0.194	-0.3718	
0.132858	-0.767868	0.392352	-90.02	4.41	14.07	-0.1403	0.2015	-0.3869	
0.12444	-0.811422	0.364536	-87.92	2.87	12.81	-0.1447	0.2077	-0.3792	
0.129808	-0.845582	0.359656	-85.4	1.12	10.92	-0.1362	0.2215	-0.3685	
0.112362	-0.857416	0.327448	-82.18	1.61	10.92	-0.1291	0.2323	-0.3593	
0.106018	-0.876814	0.289994	-78.89	0.84	11.06	-0.135	0.24	-0.353	
0.098698	-0.922198	0.270596	-75.74	-1.4	8.82	-0.1236	0.2477	-0.3424	
0.096258	-0.938058	0.241316	-72.1	-3.22	8.19	-0.1353	0.2601	-0.3406	
0.088084	-0.940986	0.202154	-68.67	-5.53	9.94	-0.1223	0.2616	-0.33	
0.133224	-0.93635	0.212158	-66.22	-7.42	10.22	-0.1255	0.2908	-0.319	
0.155062	-0.936594	0.211182	-63.07	-5.6	7.91	-0.1313	0.2893	-0.3205	
0.124684	-0.923052	0.18666	-58.17	-0.7	6.44	-0.1286	0.2971	-0.3067	
0.083082	-0.953186	0.168482	-52.15	1.19	3.57	-0.1404	0.3111	-0.2942	
0.074786	-0.956236	0.149572	-46.76	-0.14	3.5	-0.133	0.3109	-0.3065	
0.112972	-0.958798	0.14945	-43.61	-4.27	3.08	-0.1245	0.3186	-0.2973	
0.14701	-0.988078	0.179584	-43.26	-5.81	-0.49	-0.1318	0.3112	-0.2791	
0.156892	-1.004548	0.189832	-42.98	-5.88	-1.75	-0.1363	0.3205	-0.2743	
0.147254	-0.99735	0.153598	-41.3	-1.89	-0.14	-0.1335	0.3358	-0.2711	
0.124562	-1.020408	0.131882	-39.9	-0.98	0.49	-0.132	0.3251	-0.2636	
0.1037	-1.028826	0.10492	-37.1	-1.19	1.96	-0.1378	0.3358	-0.2741	
0.07124799	-1.039684	0.08601	-32.9	-3.22	3.01	-0.1394	0.339	-0.2588	
0.099796	-1.025166	0.087718	-28.91	-7.21	6.23	-0.1322	0.3405	-0.2589	
0.117364	-1.019554	0.109922	-26.04	-7.98	4.83	-0.125	0.3465	-0.2589	
0.120048	-0.9943	0.114802	-24.01	-6.86	6.72	-0.1308	0.3497	-0.2558	
0.131516	-0.987834	0.12078	-24.43	-5.11	7.14	-0.1309	0.3452	-0.2497	
0.109678	-0.999424	0.10858	-23.66	-3.99	7.28	-0.1251	0.3513	-0.2466	
0.110898	-0.98088	0.084546	-22.19	-3.57	7.56	-0.1281	0.3574	-0.2435	
0.102724	-1.009062	0.078202	-21.21	-4.34	5.46	-0.1368	0.3529	-0.2419	
0.113704	-1.014674	0.077104	-18.76	-5.18	6.02	-0.1224	0.3606	-0.2328	
0.116998	-1.01138	0.07076	-16.31	-3.01	5.32	-0.1224	0.3667	-0.2358	
0.105774	-1.004914	0.07137	-14	-1.96	5.39	-0.1267	0.3636	-0.2419	
0.110288	-0.987224	0.069418	-12.88	-1.4	5.39	-0.1297	0.3667	-0.2358	
0.117974	-0.987468	0.071858	-12.6	-1.33	4.2	-0.1297	0.3607	-0.2312	
0.100772	-0.99186	0.066612	-12.04	-0.63	2.8	-0.1298	0.3653	-0.2236	
0.097356	-0.987468	0.053924	-11.55	-0.35	3.15	-0.1341	0.3699	-0.228	
0.110044	-1.00223	0.05185	-11.83	-1.61	2.52	-0.118	0.359	-0.2344	
0.125782	-1.001376	0.052948	-12.39	-1.05	2.87	-0.1297	0.3668	-0.2281	
0.122244	-1.015406	0.03843	-13.02	1.19	2.17	-0.124	0.3699	-0.2251	
0.091866	-1.02297	0.011346	-12.18	3.36	2.31	-0.1283	0.3654	-0.2205	
0.085034	-1.023214	-0.000976	-11.06	3.01	4.06	-0.1211	0.3744	-0.2296	
0.092476	-1.014186	-0.002806	-10.71	0	3.99	-0.1226	0.376	-0.2266	
0.10614	-1.006866	-0.005124	-10.29	-1.05	3.08	-0.1198	0.3776	-0.2144	
0.111386	-0.987346	0.003172	-10.64	0	1.4	-0.1198	0.3837	-0.2174	
0.09394	-0.99003	-0.001098	-10.29	2.17	0.14	-0.1125	0.376	-0.2145	
0.080276	-0.996008	-0.013176	-8.54	3.64	-0.21	-0.1183	0.3775	-0.222	
0.081008	-0.997594	-0.013176	-6.86	3.78	-0.77	-0.1197	0.376	-0.2174	
0.079788	-1.009184	-0.0122	-5.46	3.71	-1.75	-0.1199	0.3869	-0.2051	
0.080154	-1.016504	-0.014884	-3.43	3.15	-1.96	-0.1255	0.37	-0.2159	
0.073078	-1.03334	-0.019642	-1.26	2.94	-2.87	-0.1197	0.379	-0.222	
0.073566	-1.043954	-0.013054	1.05	0.77	-3.01	-0.1111	0.3806	-0.2144	
0.09699	-1.026874	-0.003294	3.08	-0.63	-2.03	-0.1198	0.3852	-0.2143	
0.10065	-1.020042	0.004636	4.83	-0.21	-1.75	-0.1255	0.3821	-0.2219	
0.10187	-1.009306	0.003172	6.93	1.4	-2.31	-0.114	0.3852	-0.2159	
0.09942999	-1.005524	0.010126	8.47	1.82	-3.29	-0.1256	0.3822	-0.2127	
0.101626	-0.992958	0.011956	9.38	1.82	-3.99	-0.1241	0.3822	-0.2173	
0.108092	-1.001742	0.009028	10.08	1.47	-4.83	-0.1197	0.3744	-0.2266	
0.097112	-1.00772	0.014518	11.48	2.03	-5.39	-0.1153	0.3759	-0.2266	
0.098698	-1.012356	0.019642	11.9	1.4	-5.25	-0.1298	0.3775	-0.2265	
0.087352	-1.02968	0.023424	13.02	0.84	-5.32	-0.127	0.376	-0.2219	
0.106384	-1.00528	0.02928	14.42	-0.77	-3.64	-0.1226	0.3745	-0.2235	
0.111508	-0.998448	0.036234	15.19	-1.26	-3.64	-0.1297	0.3759	-0.2341	
0.125172	-0.99552	0.050264	16.1	-1.19	-3.36	-0.1297	0.3743	-0.2372	
0.124684	-0.996008	0.053802	16.31	1.33	-4.48	-0.1282	0.3667	-0.2373	
0.112362	-1.015162	0.056242	15.68	2.1	-5.39	-0.1194	0.3529	-0.236	
0.105896	-1.019676	0.060756	15.54	1.68	-4.76	-0.1354	0.3667	-0.2448	
0.119194	-1.002474	0.067954	15.33	0.84	-3.78	-0.1296	0.3621	-0.2358	
0.121756	-0.997594	0.070272	15.68	1.47	-4.55	-0.131	0.359	-0.2434	
0.127002	-0.975878	0.074786	16.31	2.52	-5.11	-0.1295	0.3589	-0.2511	
0.12566	-0.974658	0.079666	16.38	3.5	-7.84	-0.128	0.3513	-0.2466	
0.111264	-0.995764	0.085156	17.22	3.78	-10.01	-0.1309	0.3482	-0.2512	
0.115656	-0.988566	0.090402	19.32	4.06	-9.73	-0.1309	0.3482	-0.2512	
0.139202	-0.98393	0.102236	20.3	4.41	-9.8	-0.1279	0.3436	-0.2498	
0.144692	-1.012234	0.114192	22.4	5.11	-11.9	-0.1351	0.3481	-0.2618	
0.156038	-1.000156	0.130784	24.5	7.07	-11.76	-0.1394	0.342	-0.2619	
0.159942	-0.968802	0.146278	25.48	9.73	-10.78	-0.1409	0.3436	-0.2618	
0.17446	-0.942328	0.156526	24.29	11.62	-9.73	-0.1292	0.3388	-0.2666	
0.157258	-0.971242	0.162992	23.03	13.44	-11.55	-0.1451	0.3359	-0.2695	
0.143228	-0.970022	0.169458	23.8	13.23	-9.73	-0.1349	0.3296	-0.2727	
0.139934	-0.940376	0.170556	24.36	11.97	-6.51	-0.1378	0.3357	-0.2757	
0.134688	-0.929762	0.18483	24.29	8.68	-3.99	-0.1348	0.3219	-0.2804	
0.164334	-0.905728	0.208742	23.24	5.53	0.07	-0.1217	0.3218	-0.2851	
0.217648	-0.907802	0.25437	21.63	3.78	1.33	-0.1506	0.3173	-0.291	
0.217648	-0.886208	0.27023	21.63	6.37	3.08	-0.1375	0.3262	-0.3063	
0.206668	-0.879376	0.2806	20.65	8.47	4.48	-0.1303	0.3172	-0.2897	
0.203008	-0.87718	0.299998	18.27	8.12	4.69	-0.1201	0.3094	-0.2944	
0.160308	-0.917928	0.29219	17.64	7.35	3.36	-0.1244	0.3124	-0.2989	
0.166774	-0.904386	0.304268	18.76	3.92	6.09	-0.1215	0.317	-0.3035	
0.199592	-0.873764	0.346114	17.71	1.61	8.12	-0.1286	0.3123	-0.3111	
0.205326	-0.864492	0.365512	15.96	2.31	7.84	-0.12	0.3108	-0.3051	
0.207278	-0.845582	0.375638	15.12	4.2	8.89	-0.1271	0.3062	-0.3127	
0.199836	-0.844362	0.35868	14.28	7.28	8.82	-0.1257	0.3138	-0.3111	
0.18666	-0.863394	0.34953	13.86	7.77	8.05	-0.1228	0.3093	-0.3081	
0.1952	-0.870226	0.35197	13.58	7.56	8.12	-0.1212	0.2924	-0.316	
0.193614	-0.884256	0.36478	12.74	7.84	8.61	-0.1155	0.3	-0.3144	
0.173606	-0.909754	0.352824	12.25	10.01	10.01	-0.114	0.2984	-0.3144	
0.164212	-0.910242	0.342454	11.69	10.15	13.86	-0.1125	0.3014	-0.3205	
0.161284	-0.903776	0.331352	11.27	10.22	17.64	-0.1009	0.2892	-0.3162	
0.170434	-0.89365	0.33001	11.27	9.1	21.28	-0.1009	0.3012	-0.3298	
0.191418	-0.878766	0.32574	11.34	9.31	24.43	-0.1038	0.2998	-0.3237	
0.19825	-0.879254	0.341356	11.27	10.36	25.34	-0.1008	0.2951	-0.3283	
0.178974	-0.884866	0.343552	10.85	12.39	27.09	-0.0995	0.3043	-0.3252	
0.137006	-0.909022	0.3233	11.48	15.05	28.28	-0.0966	0.2967	-0.3207	
0.121878	-0.940498	0.337452	12.74	12.11	31.78	-0.0849	0.3011	-0.336	
0.105896	-0.937448	0.336476	15.75	12.53	36.75	-0.0775	0.2842	-0.3348	
0.08723	-0.915366	0.34038	17.64	12.39	41.16	-0.07319999	0.2842	-0.3302	
0.044408	-0.914756	0.333792	18.34	13.02	44.1	-0.066	0.2948	-0.3378	
0.01891	-0.91805	0.35502	18.34	10.92	47.32	-0.0616	0.2978	-0.3363	
-0.016348	-0.934886	0.369538	19.39	10.08	49.7	-0.0528	0.2915	-0.3471	
-0.0488	-0.930738	0.3965	22.75	11.69	54.32	-0.0441	0.2931	-0.3441	
-0.102114	-0.915488	0.375272	25.62	13.44	58.52	-0.0427	0.29	-0.3457	
-0.094062	-0.84546	0.364658	25.62	10.29	64.54	-0.0324	0.2837	-0.3535	
-0.127368	-0.809348	0.374784	22.05	10.43	61.74	-0.0237	0.2836	-0.3597	
-0.176046	-0.875716	0.408334	21	6.72	55.44	-0.0136	0.2881	-0.3567	
-0.14457	-0.84485	0.439566	21.21	4.76	56.63	-0.0019	0.285	-0.3599	
-0.128466	-0.842898	0.453352	20.09	6.3	53.97	-0.0076	0.2788	-0.3629	
-0.146156	-0.85949	0.447374	19.39	11.69	51.8	0.0068	0.2711	-0.3601	
-0.195566	-0.821304	0.449692	18.41	17.01	52.15	0.0024	0.2803	-0.36	
-0.229116	-0.827892	0.440054	17.22	17.92	48.93	0.0126	0.2695	-0.3617	
-0.257908	-0.800564	0.447862	18.34	16.66	46.83	0.0184	0.2709	-0.3694	
-0.274256	-0.790438	0.45567	17.57	17.43	42.28	0.0373	0.2663	-0.362	
-0.301584	-0.81862	0.454938	17.36	18.06	39.2	0.0417	0.2646	-0.3758	
-0.281942	-0.795318	0.46665	16.52	17.85	39.62	0.0532	0.2631	-0.3637	
-0.277672	-0.777384	0.470432	14.42	19.95	37.66	0.0505	0.2493	-0.3761	
-0.308782	-0.780312	0.453962	12.95	23.24	33.11	0.0591	0.2508	-0.3685	
-0.346968	-0.805078	0.451034	13.65	25.55	30.03	0.065	0.2568	-0.3807	
-0.381616	-0.794342	0.435784	14.91	26.95	29.33	0.0679	0.2431	-0.3702	
-0.402844	-0.789096	0.42944	15.89	25.34	28.98	0.081	0.2521	-0.3763	
-0.389058	-0.775188	0.439566	16.24	22.68	29.68	0.084	0.2382	-0.3841	
-0.382592	-0.768722	0.44652	16.24	23.31	29.75	0.08109999	0.2367	-0.3841	
-0.40687	-0.761524	0.450668	16.45	24.15	29.75	0.1013	0.2382	-0.3736	
-0.410164	-0.752984	0.463966	16.31	24.64	29.33	0.0942	0.2305	-0.3889	
-0.460794	-0.748958	0.44408	15.33	27.16	28.21	0.1058	0.2335	-0.3859	
-0.488976	-0.756034	0.446642	13.93	24.22	27.37	0.1087	0.2244	-0.3784	
-0.481046	-0.758596	0.447862	13.79	20.72	27.09	0.1188	0.2213	-0.3786	
-0.491294	-0.75396	0.441518	15.96	18.9	26.81	0.1261	0.2228	-0.3771	
-0.48312	-0.7381	0.440542	16.66	16.45	26.81	0.1391	0.2135	-0.3727	
-0.501542	-0.731268	0.440298	16.8	17.08	25.27	0.1378	0.2119	-0.3834	
-0.52521	-0.716018	0.450912	17.36	17.08	25.06	0.1408	0.2057	-0.3896	
-0.52582	-0.696254	0.45567	17.71	14.56	24.43	0.1436	0.2118	-0.385	
-0.500566	-0.671	0.466406	17.29	11.27	23.24	0.1494	0.2012	-0.376	
-0.520818	-0.673074	0.454694	15.4	10.5	20.09	0.1553	0.1935	-0.3823	
-0.533628	-0.66856	0.471652	14.35	8.33	19.32	0.1581	0.2041	-0.3822	
-0.559858	-0.667462	0.466772	14.21	8.33	16.94	0.1539	0.1904	-0.3838	
-0.54778	-0.645624	0.49166	13.72	5.74	15.54	0.1641	0.1902	-0.3931	
-0.553636	-0.637572	0.492026	12.74	5.74	13.72	0.1584	0.1841	-0.3961	
-0.526308	-0.626714	0.508862	10.57	4.13	12.39	0.1642	0.1795	-0.3917	
-0.539362	-0.644038	0.507032	9.52	5.53	10.01	0.1613	0.178	-0.3962	
-0.554124	-0.636962	0.517036	8.54	5.74	9.03	0.1627	0.1826	-0.3947	
-0.581574	-0.641964	0.49898	8.75	4.34	7.7	0.17	0.178	-0.3902	
-0.55388	-0.611952	0.517524	8.89	1.68	6.79	0.1687	0.1823	-0.41	
-0.576938	-0.620858	0.511668	6.79	1.47	4.2	0.1656	0.1811	-0.3917	
-0.604266	-0.630374	0.512034	5.88	1.47	3.22	0.1643	0.1672	-0.3994	
-0.6222	-0.626104	0.50691	5.39	-1.05	1.4	0.1773	0.1672	-0.3919	
-0.615856	-0.59902	0.504958	5.32	-5.46	-0.7	0.1714	0.1688	-0.3858	
-0.560468	-0.55998	0.539728	3.71	-9.38	-2.66	0.1542	0.1658	-0.3978	
-0.560468	-0.59475	0.53192	1.47	-7.14	-5.81	0.1715	0.1733	-0.401	
-0.542168	-0.59475	0.541436	-0.7	-7.35	-7.21	0.1657	0.1657	-0.3964	
-0.577548	-0.61305	0.53314	-2.1	-4.76	-9.94	0.1642	0.1734	-0.3963	
-0.605974	-0.603656	0.517768	-2.03	-5.74	-11.27	0.1585	0.1642	-0.4009	
-0.619272	-0.612684	0.507886	-1.82	-9.73	-13.02	0.1556	0.1688	-0.3963	
-0.586454	-0.60756	0.52887	-1.75	-14.63	-14.28	0.154	0.1735	-0.3901	
-0.561932	-0.58865	0.543144	-3.01	-16.38	-16.38	0.1555	0.1826	-0.3977	
-0.555588	-0.59292	0.543998	-6.3	-15.89	-19.6	0.1483	0.1811	-0.4006	
-0.54534	-0.61549	0.545096	-9.73	-16.87	-22.33	0.1454	0.1689	-0.3977	
-0.532164	-0.626836	0.534726	-11.9	-15.47	-24.99	0.1382	0.1704	-0.4037	
-0.523136	-0.629886	0.524112	-11.76	-16.17	-28	0.1338	0.1888	-0.4035	
-0.544608	-0.651236	0.50508	-11.97	-15.12	-31.15	0.1251	0.1827	-0.4035	
-0.537166	-0.642574	0.50691	-12.6	-16.8	-32.48	0.1265	0.1828	-0.3958	
-0.53253	-0.65392	0.514962	-14.49	-18.83	-33.88	0.1308	0.1995	-0.4018	
-0.518622	-0.672952	0.508984	-16.8	-20.93	-36.12	0.1178	0.1965	-0.4032	
-0.495076	-0.683566	0.508862	-18.2	-23.1	-38.22	0.1147	0.2043	-0.3894	
-0.465552	-0.687104	0.506666	-18.83	-24.29	-40.25	0.1017	0.2074	-0.3953	
-0.46238	-0.706868	0.485072	-19.25	-22.61	-43.19	0.096	0.2119	-0.4044	
-0.471652	-0.720044	0.46848	-19.18	-23.59	-45.92	0.096	0.2043	-0.4014	
-0.457622	-0.717726	0.475434	-18.69	-26.39	-47.74	0.07979999	0.2259	-0.3934	
-0.422486	-0.711626	0.469212	-18.62	-29.26	-50.12	0.0726	0.2274	-0.3994	
-0.38735	-0.727242	0.477508	-19.46	-31.22	-52.92	0.0653	0.223	-0.3902	
-0.36173	-0.727364	0.456036	-20.93	-31.57	-54.6	0.0668	0.2214	-0.3933	
-0.340014	-0.743102	0.443836	-22.33	-32.55	-57.4	0.0464	0.2353	-0.3929	
-0.306952	-0.754814	0.450058	-22.68	-33.81	-60.62	0.0434	0.2461	-0.3852	
-0.286944	-0.780678	0.454084	-22.4	-33.32	-64.4	0.0232	0.2295	-0.3806	
-0.230702	-0.780312	0.441518	-21.63	-34.09	-66.43	0.0245	0.2508	-0.388	
-0.203252	-0.80032	0.439078	-22.05	-33.32	-68.25	0.0115	0.2434	-0.3788	
-0.178486	-0.822158	0.442738	-21.42	-32.34	-71.12	-0.0058	0.2481	-0.3801	
-0.182878	-0.837774	0.415898	-18.97	-30.38	-72.87	-0.0045	0.2481	-0.371	
-0.13786	-0.810812	0.416508	-16.87	-33.53	-72.1	-0.0247	0.2513	-0.3768	
-0.108946	-0.798368	0.41236	-16.66	-33.74	-74.13	-0.0379	0.2484	-0.3676	
-0.07124799	-0.822158	0.406748	-16.38	-36.47	-77.14	-0.0494	0.2545	-0.372	
0.00671	-0.784094	0.406382	-16.1	-39.97	-77.7	-0.0624	0.253	-0.3795	
0.046482	-0.788608	0.386374	-16.59	-38.15	-81.69	-0.0669	0.2563	-0.3657	
0.08052	-0.810446	0.389668	-15.54	-36.96	-86.03	-0.08	0.2534	-0.3549	
0.106384	-0.820206	0.397598	-14.35	-35.98	-88.34	-0.09739999	0.2596	-0.3592	
0.186172	-0.814838	0.394914	-14.98	-39.62	-87.5	-0.1119	0.2505	-0.3577	
0.291702	-0.787266	0.424926	-16.31	-43.75	-85.33	-0.1265	0.2553	-0.3499	
0.33916	-0.779702	0.39772	-17.57	-39.41	-86.1	-0.1322	0.2507	-0.3514	
0.311222	-0.794098	0.366854	-18.34	-35.84	-87.64	-0.1555	0.2479	-0.3436	
0.333426	-0.798612	0.347456	-18.69	-44.66	-88.69	-0.1817	0.2467	-0.3311	
0.382104	-0.7686	0.344162	-18.83	-47.32	-85.89	-0.186	0.2285	-0.3252	
0.451522	-0.79178	0.4087	-19.11	-51.03	-85.12	-0.1961	0.2391	-0.3326	
0.482022	-0.796416	0.394548	-17.71	-45.57	-82.6	-0.2107	0.2318	-0.3188	
0.474458	-0.801906	0.340746	-15.33	-40.11	-79.94	-0.2149	0.2256	-0.3265	
0.468114	-0.779458	0.308904	-15.33	-39.2	-76.3	-0.241	0.2182	-0.3172	
0.480924	-0.773602	0.28243	-16.59	-42.07	-73.85	-0.2425	0.2213	-0.3125	
0.54473	-0.811178	0.32635	-16.8	-45.92	-70.91	-0.2613	0.2031	-0.311	
0.59963	-0.795806	0.378444	-13.72	-47.46	-65.8	-0.273	0.2018	-0.2972	
0.611952	-0.781898	0.297802	-8.68	-39.55	-58.73	-0.276	0.202	-0.2865	
0.601094	-0.730902	0.251076	-6.72	-37.38	-53.97	-0.2891	0.2052	-0.2818	
0.628056	-0.689666	0.256932	-9.66	-39.69	-52.78	-0.2948	0.1945	-0.2849	
0.665144	-0.69601	0.28243	-12.53	-42.49	-54.46	-0.3021	0.1915	-0.2803	
0.700524	-0.698816	0.264862	-10.85	-43.19	-54.74	-0.3108	0.1809	-0.2758	
0.76738	-0.707478	0.284748	-10.85	-43.61	-53.41	-0.3137	0.1841	-0.2711	
0.743102	-0.715774	0.24949	-8.75	-34.86	-53.06	-0.3209	0.1704	-0.2666	
0.667218	-0.655628	0.198616	-9.8	-30.94	-43.68	-0.3368	0.172	-0.2695	
0.728706	-0.605852	0.177632	-16.17	-34.37	-39.55	-0.3412	0.1568	-0.2605	
0.759084	-0.622932	0.208742	-19.95	-35.63	-43.82	-0.3486	0.1662	-0.2451	
0.745908	-0.679784	0.181048	-15.82	-30.66	-46.41	-0.347	0.16	-0.2589	
0.750422	-0.668682	0.17873	-12.25	-29.33	-42.63	-0.3661	0.1543	-0.2298	
0.769942	-0.618296	0.177998	-12.67	-26.32	-38.64	-0.3516	0.1481	-0.2285	
0.770796	-0.616222	0.143228	-13.72	-24.15	-38.5	-0.3675	0.1497	-0.2359	
0.82533	-0.637084	0.163114	-16.24	-24.92	-37.03	-0.3732	0.1344	-0.2345	
0.899628	-0.647088	0.204228	-17.01	-22.54	-35	-0.3777	0.1407	-0.2192	
0.91439	-0.655018	0.188734	-15.05	-11.9	-33.88	-0.3733	0.1346	-0.2193	
0.877668	-0.63684	0.168604	-12.11	1.26	-31.85	-0.3892	0.1301	-0.2176	
0.868274	-0.646356	0.152866	-10.71	8.82	-27.72	-0.3821	0.1347	-0.2116	
0.859856	-0.660996	0.144448	-9.73	11.55	-24.08	-0.382	0.1271	-0.2117	
0.867664	-0.632448	0.119682	-6.86	15.75	-16.73	-0.3762	0.1255	-0.2178	
0.842044	-0.606218	0.092964	-4.76	17.78	-12.25	-0.3863	0.1255	-0.2223	
0.834114	-0.566324	0.1098	-4.83	15.05	-8.47	-0.3746	0.1208	-0.2255	
0.838018	-0.527894	0.113338	-5.81	14.63	-6.51	-0.3818	0.1207	-0.2346	
0.814106	-0.553758	0.100284	-7.49	14.63	-8.33	-0.3775	0.1254	-0.227	
0.799954	-0.59048	0.101992	-6.09	11.9	-5.81	-0.3833	0.1177	-0.2285	
0.772504	-0.589382	0.094306	-3.15	10.64	-2.24	-0.3774	0.1222	-0.2346	
0.80886	-0.545218	0.122732	-3.99	4.27	1.68	-0.3775	0.1284	-0.233	
0.893284	-0.510326	0.162748	-6.86	3.01	1.47	-0.3773	0.113	-0.2408	
0.929762	-0.55266	0.180438	-7.91	7.56	-2.66	-0.3817	0.1191	-0.2422	
0.910608	-0.60207	0.195322	-7.49	14.49	-2.52	-0.3716	0.119	-0.2408	
0.86254	-0.595238	0.176534	-5.39	19.81	2.73	-0.3832	0.1131	-0.2362	
0.808616	-0.580232	0.14213	-3.85	22.33	7	-0.3644	0.1282	-0.2408	
0.823378	-0.580842	0.181292	-6.51	16.45	8.89	-0.373	0.119	-0.2423	
0.859978	-0.60451	0.210694	-6.72	17.92	10.01	-0.3672	0.1251	-0.2423	
0.831674	-0.597678	0.187148	-3.15	25.34	15.47	-0.3645	0.1343	-0.2361	
0.78019	-0.591212	0.158112	-0.07	27.3	18.76	-0.3599	0.1326	-0.2545	
0.786656	-0.60085	0.15616	1.12	21.7	19.95	-0.3585	0.1356	-0.2529	
0.807762	-0.594628	0.194346	0.98	18.48	25.06	-0.3672	0.1342	-0.2498	
0.784338	-0.583404	0.18605	0.35	19.32	29.12	-0.3556	0.1325	-0.2561	
0.756766	-0.594872	0.191174	0	17.64	30.66	-0.3497	0.1339	-0.2622	
0.77226	-0.608414	0.229848	-0.91	13.79	31.5	-0.3396	0.1385	-0.2592	
0.756644	-0.630008	0.214354	-0.84	16.24	33.32	-0.3454	0.14	-0.2622	
0.721752	-0.646356	0.203374	0.21	16.1	36.12	-0.3425	0.146	-0.2728	
0.725778	-0.651968	0.214964	1.82	14.07	40.81	-0.3353	0.1567	-0.2666	
0.752618	-0.644038	0.2318	3.71	13.09	45.08	-0.3368	0.1613	-0.2666	
0.75152	-0.669902	0.232776	4.55	16.03	46.34	-0.3253	0.1689	-0.2666	
0.72651	-0.700646	0.216062	4.69	19.88	48.44	-0.3281	0.1719	-0.2757	
0.706258	-0.720776	0.202642	4.34	20.79	52.08	-0.3179	0.1718	-0.2758	
0.669902	-0.72712	0.209474	4.48	20.58	56.56	-0.3064	0.1855	-0.2757	
0.648064	-0.72651	0.213378	5.74	19.46	60.13	-0.3092	0.1823	-0.2864	
0.619516	-0.74176	0.224846	7.42	19.25	62.37	-0.3078	0.1869	-0.2849	
0.59475	-0.76433	0.231434	8.4	20.72	65.1	-0.2904	0.2005	-0.294	
0.580354	-0.76738	0.209352	8.19	22.89	70.07	-0.2847	0.1989	-0.2895	
0.550464	-0.79422	0.22387	9.52	19.95	74.48	-0.2687	0.2095	-0.2972	
0.552416	-0.810446	0.249612	11.97	15.82	75.81	-0.2571	0.2124	-0.2988	
0.560224	-0.808616	0.281698	14.56	15.96	77.91	-0.2571	0.22	-0.3078	
0.53558	-0.843264	0.293166	18.83	19.04	80.99	-0.2456	0.2322	-0.3017	
0.496052	-0.820816	0.267912	21.91	25.41	87.64	-0.2339	0.2229	-0.3065	
0.46543	-0.813984	0.267668	20.44	27.86	91.28	-0.2209	0.2395	-0.3125	
0.42578	-0.818498	0.30073	18.06	28.14	93.1	-0.2152	0.2471	-0.3125	
0.390278	-0.83997	0.294264	18.13	29.54	94.64	-0.2006	0.2485	-0.3187	
0.33672	-0.834602	0.310124	20.44	30.45	95.62	-0.1847	0.2469	-0.3204	
0.30744	-0.863638	0.3477	22.26	30.8	94.15	-0.1701	0.2497	-0.3312	
0.300486	-0.88877	0.39162	24.78	33.67	92.54	-0.1614	0.2512	-0.3313	
0.25925	-0.877668	0.39711	28.42	42.21	94.43	-0.1498	0.2602	-0.3389	
0.151524	-0.84363	0.355142	30.17	52.78	98.14	-0.1295	0.2555	-0.3376	
0.101504	-0.835212	0.350018	26.67	51.1	99.75	-0.1149	0.2629	-0.3499	
0.04636	-0.856806	0.395646	24.78	44.94	97.44	-0.0917	0.2551	-0.3487	
-0.058926	-0.895114	0.427976	29.68	45.22	96.81	-0.083	0.2611	-0.3563	
-0.060878	-0.83143	0.40748	31.5	45.08	101.99	-0.0728	0.2625	-0.3564	
-0.054534	-0.784094	0.43066	30.66	42	102.06	-0.0539	0.2654	-0.3627	
-0.117852	-0.748226	0.406504	28.98	45.36	96.32	-0.035	0.2545	-0.3691	
-0.181414	-0.71553	0.424926	26.46	44.17	91.14	-0.0291	0.2574	-0.3752	
-0.24522	-0.766282	0.415776	25.13	42.21	80.92	-0.0146	0.2528	-0.3739	
-0.262788	-0.809226	0.476166	25.34	34.23	76.72	-0.0059	0.2542	-0.3754	
-0.26169	-0.77958	0.500566	23.38	33.81	75.81	0.0101	0.2402	-0.388	
-0.266814	-0.734806	0.502762	21.07	32.13	73.71	0.026	0.2432	-0.385	
-0.270962	-0.716872	0.48922	18.55	31.92	68.46	0.0333	0.2416	-0.3836	
-0.2989	-0.71187	0.49288	16.45	31.43	62.44	0.0508	0.2353	-0.393	
-0.299388	-0.715164	0.505446	15.4	30.66	57.89	0.0552	0.2337	-0.3961	
-0.324398	-0.698328	0.486414	15.19	33.95	52.15	0.0667	0.2291	-0.3871	
-0.397598	-0.665144	0.462868	14	35.07	44.87	0.0739	0.2261	-0.3811	
-0.426756	-0.707478	0.487634	12.04	27.44	39.48	0.0784	0.2229	-0.3934	
-0.42212	-0.723826	0.508862	11.83	23.8	37.31	0.0827	0.2244	-0.3934	
-0.423584	-0.738344	0.491782	11.48	23.03	37.1	0.1017	0.215	-0.3983	
-0.450424	-0.739076	0.468968	10.43	24.43	36.05	0.1163	0.1996	-0.3986	
-0.4697	-0.72895	0.474336	8.54	23.24	35.84	0.1191	0.1997	-0.3895	
-0.447008	-0.707722	0.51118	8.89	19.25	36.33	0.1204	0.209	-0.3818	
-0.438956	-0.686372	0.501298	9.87	19.32	35	0.1207	0.195	-0.4033	
-0.464942	-0.673318	0.479948	9.73	20.72	32.55	0.1307	0.1936	-0.3851	
-0.489586	-0.679662	0.471896	7.77	20.09	31.36	0.1336	0.2026	-0.3957	
-0.497394	-0.696376	0.48495	8.61	19.04	30.8	0.1379	0.192	-0.3867	
-0.554856	-0.69784	0.47336	10.22	22.12	29.47	0.1423	0.195	-0.3867	
-0.59292	-0.687714	0.460184	11.48	18.62	28.84	0.1482	0.1919	-0.3929	
-0.579012	-0.684786	0.48251	12.74	12.11	29.26	0.1481	0.1888	-0.3884	
-0.55876	-0.669048	0.477752	14.21	9.66	28.98	0.1584	0.1856	-0.4007	
-0.579256	-0.660386	0.460184	13.37	10.08	27.51	0.1598	0.1887	-0.3915	
-0.571936	-0.648186	0.464454	13.3	8.26	26.67	0.1714	0.178	-0.3887	
-0.582184	-0.619516	0.48251	12.88	5.88	25.34	0.17	0.1718	-0.3964	
-0.609024	-0.600362	0.477752	13.3	3.36	22.54	0.1773	0.1764	-0.3949	
-0.613782	-0.577426	0.485316	13.16	-1.47	19.53	0.183	0.1779	-0.3903	
-0.593652	-0.5612	0.514474	11.9	-3.36	17.29	0.1861	0.1518	-0.3937	
-0.59536	-0.555588	0.537776	9.45	-3.5	14.07	0.1729	0.1718	-0.3934	
-0.6222	-0.564128	0.535702	6.44	-1.68	10.43	0.1643	0.1642	-0.3995	
-0.650504	-0.570472	0.523258	4.2	-1.82	7.98	0.1775	0.1488	-0.3998	
-0.64416	-0.566202	0.52582	3.29	-3.57	7.07	0.1775	0.1518	-0.4043	
-0.617198	-0.55571	0.547658	2.52	-5.46	6.09	0.1746	0.1533	-0.4073	
-0.614514	-0.53131	0.548756	2.8	-5.32	3.43	0.1745	0.1503	-0.3982	
-0.631106	-0.51911	0.554002	1.68	-6.93	-0.7	0.1717	0.1488	-0.4012	
-0.61366	-0.520452	0.56486	-0.21	-9.17	-2.94	0.1701	0.1611	-0.3935	
-0.620492	-0.521794	0.55632	-3.22	-8.47	-5.18	0.1701	0.1565	-0.395	
-0.6222	-0.55449	0.559736	-6.3	-9.31	-7.49	0.1717	0.1427	-0.3983	
-0.616466	-0.568032	0.553026	-6.16	-11.41	-10.15	0.163	0.1534	-0.4072	
-0.617808	-0.549244	0.5429	-4.97	-13.51	-12.6	0.1601	0.155	-0.4011	
-0.642574	-0.559004	0.525942	-5.67	-15.26	-15.96	0.1629	0.1656	-0.404	
-0.630618	-0.573034	0.549244	-8.19	-20.58	-19.11	0.1615	0.1625	-0.4101	
-0.615612	-0.573644	0.540948	-9.73	-20.58	-21.07	0.1557	0.1596	-0.4025	
-0.566324	-0.55998	0.560956	-12.04	-22.4	-23.17	0.1455	0.1643	-0.4008	
-0.523502	-0.550098	0.56242	-14.7	-21.98	-26.39	0.1512	0.1689	-0.3962	
-0.516304	-0.57523	0.555344	-16.94	-19.32	-31.43	0.1484	0.1704	-0.4008	
-0.522648	-0.600118	0.549244	-17.57	-18.27	-34.65	0.1368	0.1658	-0.4038	
-0.502274	-0.60573	0.548634	-18.48	-17.29	-35.77	0.1251	0.1858	-0.3988	
-0.520452	-0.620248	0.53741	-20.51	-15.33	-38.22	0.1236	0.1782	-0.3974	
-0.546072	-0.631716	0.508618	-22.68	-14.21	-41.79	0.1236	0.1935	-0.4003	
-0.548756	-0.658068	0.498004	-24.57	-19.11	-45.99	0.1119	0.1981	-0.3986	
-0.501786	-0.670756	0.504592	-25.27	-25.13	-48.09	0.109	0.2012	-0.3985	
-0.469212	-0.651358	0.50325	-26.67	-26.67	-48.44	0.1031	0.2075	-0.3908	
-0.454206	-0.681126	0.488488	-28.42	-27.37	-53.06	0.1003	0.2073	-0.4045	
-0.421754	-0.682956	0.484828	-28.42	-28.91	-57.75	0.0872	0.2136	-0.3966	
-0.41968	-0.696132	0.467748	-28.07	-27.51	-63	0.0827	0.2168	-0.3889	
-0.418582	-0.712236	0.460672	-28.56	-28.77	-67.2	0.0682	0.2276	-0.3887	
-0.395158	-0.743834	0.451278	-30.73	-32.41	-71.75	0.0509	0.2246	-0.3946	
-0.342454	-0.747128	0.45689	-30.94	-37.1	-73.22	0.042	0.237	-0.3807	
-0.313296	-0.75518	0.435906	-31.29	-35.7	-76.23	0.0319	0.237	-0.3897	
-0.298778	-0.77348	0.404186	-30.38	-35.07	-80.36	0.0217	0.2371	-0.382	
-0.261812	-0.782996	0.383446	-29.54	-35.91	-84.07	0.01	0.2494	-0.3848	
-0.218624	-0.77653	0.37698	-28.84	-37.38	-87.43	-0.0043	0.2465	-0.3847	
-0.154574	-0.791902	0.383324	-28.35	-40.67	-89.46	-0.0133	0.2559	-0.3632	
-0.069296	-0.784216	0.410774	-28	-43.12	-89.81	-0.0322	0.2622	-0.3599	
-0.040382	-0.795806	0.392474	-29.89	-39.2	-92.75	-0.038	0.2607	-0.3644	
-0.011224	-0.885842	0.36661	-30.45	-36.89	-97.02	-0.0598	0.2609	-0.3566	
0.039284	-0.926224	0.335378	-28.91	-38.99	-98.21	-0.067	0.267	-0.364	
0.100406	-0.91256	0.316712	-26.95	-44.03	-96.6	-0.0844	0.2642	-0.3547	
0.19703	-0.884378	0.323788	-26.18	-49.42	-92.68	-0.0932	0.2658	-0.3455	
0.292922	-0.846192	0.398818	-25.62	-53.34	-89.53	-0.1208	0.2707	-0.3421	
0.317444	-0.860832	0.319518	-25.41	-41.51	-89.39	-0.1223	0.2585	-0.3346	
0.253272	-0.829234	0.249734	-24.64	-38.36	-87.57	-0.1599	0.2526	-0.3359	
0.272914	-0.817034	0.212768	-25.06	-44.24	-85.26	-0.1717	0.262	-0.3265	
0.357948	-0.81801	0.238754	-25.41	-55.58	-80.29	-0.1818	0.2453	-0.319	
0.535458	-0.798368	0.350018	-24.78	-65.31	-78.61	-0.1977	0.25	-0.3187	
0.551684	-0.853268	0.327936	-18.48	-54.18	-83.79	-0.2124	0.2488	-0.3019	
0.51606	-0.845338	0.250222	-14.21	-40.11	-80.22	-0.2224	0.2487	-0.3109	
0.476898	-0.81374	0.223504	-13.37	-35.21	-75.25	-0.2399	0.2428	-0.3017	
0.537654	-0.842776	0.22204	-15.26	-43.33	-71.05	-0.2501	0.2369	-0.2925	
0.615368	-0.855464	0.31903	-10.99	-50.54	-70.84	-0.2617	0.2309	-0.2894	
0.629154	-0.845948	0.281332	-2.87	-44.52	-67.83	-0.269	0.2219	-0.2787	
0.6283	-0.77287	0.26535	1.12	-40.74	-59.15	-0.2762	0.2143	-0.2757	
0.61	-0.824842	0.254614	0.7	-37.52	-59.99	-0.2922	0.2115	-0.2649	
0.618906	-0.803858	0.28426	-0.35	-30.94	-51.03	-0.2951	0.2176	-0.2679	
0.65819	-0.722972	0.254858	-1.26	-22.47	-40.67	-0.3095	0.2024	-0.2709	
0.630984	-0.72346	0.202032	-2.66	-18.55	-39.41	-0.3037	0.1947	-0.2696	
0.601216	-0.72407	0.201056	-3.5	-20.93	-37.8	-0.3096	0.201	-0.2542	
0.62098	-0.719068	0.226432	-1.89	-26.32	-37.1	-0.3169	0.1995	-0.2557	
0.623786	-0.72895	0.18727	-0.35	-23.73	-35.98	-0.3196	0.1843	-0.2573	
0.670024	-0.690032	0.1952	-1.05	-25.13	-34.79	-0.3401	0.1876	-0.2464	
0.668194	-0.711504	0.215696	-2.45	-26.95	-39.62	-0.3327	0.1844	-0.2526	
0.683932	-0.726754	0.198128	-5.04	-29.61	-37.24	-0.3501	0.1738	-0.2495	
0.69906	-0.737978	0.20313	-4.41	-29.75	-35.35	-0.3487	0.1709	-0.2404	
0.721508	-0.747616	0.21777	-3.01	-27.02	-32.69	-0.34	0.1693	-0.2436	
0.715774	-0.734684	0.227774	-0.77	-23.1	-29.75	-0.3544	0.1572	-0.2405	
0.714554	-0.716506	0.20374	0.35	-20.51	-26.6	-0.3545	0.1572	-0.236	
0.714432	-0.710284	0.192272	1.12	-18.13	-22.61	-0.3589	0.1543	-0.2253	
0.733342	-0.715896	0.178974	2.31	-17.99	-20.58	-0.3705	0.1528	-0.2267	
0.771162	-0.702842	0.195688	3.43	-17.78	-18.76	-0.3631	0.1451	-0.2284	
0.777506	-0.68564	0.19886	4.55	-13.09	-16.59	-0.3763	0.1484	-0.2176	
0.773602	-0.644892	0.178974	4.2	-7.98	-13.02	-0.3705	0.1514	-0.2176	
0.754814	-0.638304	0.150304	1.89	-6.86	-14.07	-0.3762	0.1452	-0.2267	
0.74359	-0.672586	0.145058	1.33	-7.84	-15.75	-0.3704	0.1407	-0.2223	
0.759694	-0.657702	0.172996	1.12	-7.28	-8.96	-0.3747	0.1452	-0.2298	
0.805566	-0.600606	0.178608	-1.33	-5.25	-3.29	-0.3749	0.1439	-0.2115	
0.83387	-0.609634	0.187758	-2.38	-3.08	-5.46	-0.3733	0.1392	-0.2207	
0.805566	-0.605486	0.187636	0.14	3.15	-5.88	-0.3864	0.1393	-0.2176	
0.782386	-0.599752	0.157136	-0.14	6.16	-4.9	-0.3719	0.1423	-0.2161	
0.783362	-0.601826	0.153232	-1.47	6.23	-4.41	-0.3777	0.1362	-0.2162	
0.800076	-0.625372	0.156648	-1.96	6.23	-1.96	-0.3761	0.1345	-0.2299	
0.80398	-0.632204	0.176168	-0.84	4.76	1.12	-0.3834	0.1407	-0.2283	
0.825574	-0.622566	0.1952	-0.07	5.67	4.97	-0.3806	0.1301	-0.2162	
0.83509	-0.608048	0.205692	-0.35	7.14	7.42	-0.3704	0.1376	-0.2254	
0.844728	-0.621224	0.215696	-1.26	9.1	7.77	-0.3833	0.1345	-0.2314	
0.83692	-0.665754	0.199958	-0.21	13.02	9.8	-0.3674	0.1345	-0.227	
0.8113	-0.673684	0.184708	1.68	16.87	16.59	-0.3718	0.1375	-0.2315	
0.794098	-0.645502	0.186904	1.61	18.97	24.01	-0.3631	0.136	-0.2285	
0.805566	-0.652822	0.183488	0.49	17.5	28.07	-0.3646	0.1436	-0.2284	
0.836676	-0.66307	0.226066	3.78	19.6	32.06	-0.3588	0.142	-0.23	
0.806542	-0.664412	0.22387	6.72	25.55	36.54	-0.3602	0.1481	-0.236	
0.77897	-0.659898	0.197884	6.3	29.96	42.91	-0.3588	0.1557	-0.239	
0.755058	-0.653432	0.182634	3.5	31.85	47.6	-0.3587	0.1571	-0.2451	
0.74176	-0.69113	0.182146	0.07	29.61	49	-0.3444	0.1709	-0.239	
0.752984	-0.75152	0.218746	-0.77	27.93	50.26	-0.3443	0.1738	-0.2496	
0.7198	-0.736392	0.228262	0.21	34.3	59.08	-0.3283	0.1721	-0.2528	
0.660386	-0.701744	0.174948	-2.03	45.22	71.33	-0.3182	0.1736	-0.2544	
0.614636	-0.736148	0.157502	-6.86	39.13	75.04	-0.3181	0.1933	-0.2694	
0.610732	-0.7747	0.19642	-6.09	33.39	76.3	-0.2963	0.196	-0.2833	
0.622322	-0.772748	0.250832	-2.87	31.01	75.67	-0.285	0.2221	-0.2694	
0.598898	-0.761158	0.254492	-0.63	36.82	77	-0.2789	0.2157	-0.294	
0.55022	-0.75945	0.222528	0.84	45.08	78.82	-0.266	0.2309	-0.2878	
0.497272	-0.793366	0.188002	-0.49	48.16	79.52	-0.2618	0.2477	-0.2892	
0.485682	-0.819474	0.22143	0.28	42.14	80.08	-0.2472	0.2521	-0.2984	
0.450546	-0.852536	0.236558	4.2	43.96	77.7	-0.2385	0.2399	-0.2956	
0.413458	-0.857294	0.27694	8.05	44.52	78.26	-0.2284	0.2459	-0.2956	
0.385886	-0.870104	0.30073	8.26	46.2	77.98	-0.2081	0.2519	-0.2973	
0.338672	-0.856318	0.309392	8.26	50.4	78.47	-0.1907	0.2593	-0.3035	
0.282918	-0.878644	0.306952	9.59	52.92	76.93	-0.1806	0.2715	-0.3049	
0.243024	-0.897188	0.315126	11.48	51.94	79.24	-0.169	0.2804	-0.3156	
0.199104	-0.895602	0.333914	14.49	54.81	82.04	-0.1572	0.2726	-0.325	
0.12627	-0.88023	0.310612	17.08	57.96	86.52	-0.1413	0.2831	-0.3311	
0.04087	-0.88877	0.29219	15.05	55.51	87.22	-0.1225	0.2876	-0.3328	
-0.013542	-0.917684	0.337208	11.97	42.35	89.18	-0.1022	0.2798	-0.3315	
-0.029036	-0.904264	0.361242	10.64	32.41	97.23	-0.0948	0.2796	-0.3438	
-0.017568	-0.853756	0.340746	10.01	27.93	103.53	-0.0774	0.2841	-0.3454	
-0.027816	-0.805444	0.320494	11.13	30.52	104.93	-0.0629	0.29	-0.3562	
-0.114314	-0.786534	0.309636	11.2	34.02	100.87	-0.0542	0.2854	-0.3472	
-0.205082	-0.815814	0.320494	11.41	29.12	89.74	-0.0368	0.2884	-0.3473	
-0.245342	-0.802028	0.337208	14.7	21.07	88.41	-0.0208	0.2867	-0.3521	
-0.213012	-0.760548	0.362706	17.43	17.36	85.96	-0.0149	0.282	-0.3598	
-0.199714	-0.76738	0.391132	18.41	23.8	72.8	0.011	0.2834	-0.3585	
-0.219234	-0.77836	0.39955	16.8	31.22	65.1	0.0197	0.2773	-0.3495	
-0.253272	-0.791536	0.412848	16.87	35.56	57.82	0.0329	0.2664	-0.362	
-0.276696	-0.800198	0.419436	17.5	38.92	52.29	0.0343	0.2664	-0.3559	
-0.286212	-0.80276	0.410408	18.62	41.09	49.91	0.0576	0.2677	-0.3668	
-0.292556	-0.806054	0.402844	20.51	42.84	48.65	0.0604	0.2616	-0.3592	
-0.348066	-0.789828	0.40565	20.72	43.4	46.9	0.0677	0.2631	-0.3593	
-0.419192	-0.777994	0.375882	17.5	41.44	43.89	0.0852	0.2613	-0.3702	
-0.430416	-0.781654	0.394426	16.1	32.2	43.89	0.0882	0.2536	-0.3748	
-0.442738	-0.788852	0.415654	16.87	28.77	42.7	0.0998	0.2504	-0.3811	
-0.460428	-0.796782	0.402966	16.94	27.79	40.67	0.1099	0.2505	-0.369	
-0.469212	-0.795684	0.392474	16.8	25.76	38.5	0.1101	0.2472	-0.3858	
-0.4758	-0.80642	0.37698	17.78	21.63	36.96	0.1157	0.2398	-0.3676	
-0.467504	-0.75457	0.404674	17.5	18.48	37.8	0.1333	0.2289	-0.374	
-0.45445	-0.739076	0.417362	16.17	16.8	37.8	0.1318	0.2289	-0.371	
-0.475556	-0.73993	0.412726	16.31	17.29	32.97	0.1361	0.2289	-0.3725	
-0.501176	-0.752862	0.413702	18.06	17.99	31.36	0.1333	0.2197	-0.3741	
-0.522526	-0.740418	0.401868	19.18	18.27	31.15	0.1565	0.2348	-0.3803	
-0.540704	-0.717848	0.413702	18.55	18.13	31.92	0.1549	0.2228	-0.3606	
-0.563762	-0.731634	0.41053	18.97	14.98	32.34	0.1594	0.2134	-0.3745	
-0.585356	-0.720166	0.415288	19.67	12.18	33.32	0.164	0.2025	-0.3899	
-0.612196	-0.672098	0.401136	19.95	7.28	33.25	0.1668	0.2041	-0.3823	
-0.574986	-0.645868	0.437858	20.16	-0.21	32.41	0.1784	0.2041	-0.3763	
-0.59597	-0.6527	0.438102	19.46	1.12	28.14	0.1799	0.1949	-0.3795	
-0.600484	-0.635254	0.452254	18.41	-1.68	25.97	0.1771	0.1871	-0.3871	
-0.60756	-0.649528	0.461648	18.62	-3.22	24.78	0.1741	0.198	-0.3794	
-0.610488	-0.634278	0.456646	19.18	-3.43	24.36	0.1786	0.1871	-0.3872	
-0.628178	-0.608048	0.469212	19.74	-1.96	22.89	0.1771	0.1795	-0.3857	
-0.62647	-0.565348	0.479704	18.97	-2.87	20.93	0.1742	0.1856	-0.3887	
-0.627446	-0.55022	0.49227	16.8	-5.88	17.29	0.1816	0.1718	-0.3919	
-0.621102	-0.552294	0.514962	14.84	-7.77	13.3	0.1788	0.1596	-0.389	
-0.642086	-0.559736	0.534116	13.23	-7.35	10.08	0.1787	0.1718	-0.3889	
-0.63989	-0.545218	0.53741	10.29	-8.96	8.68	0.1817	0.1625	-0.3966	
-0.626104	-0.546926	0.542656	6.79	-9.94	6.93	0.1875	0.1595	-0.3937	
-0.645746	-0.549976	0.533872	4.13	-8.61	4.69	0.1744	0.1581	-0.3874	
-0.638304	-0.551806	0.534848	3.01	-9.87	3.15	0.1789	0.1518	-0.4028	
-0.620492	-0.543022	0.527894	2.73	-8.4	0.7	0.1759	0.1611	-0.3905	
-0.606584	-0.524356	0.53009	1.68	-7.63	-2.03	0.1745	0.1595	-0.395	
-0.613538	-0.530212	0.546438	0.07	-6.58	-5.04	0.1846	0.1626	-0.3921	
-0.635742	-0.542412	0.54351	-1.68	-4.83	-7.49	0.1745	0.1611	-0.3966	
-0.630862	-0.549488	0.541558	-2.87	-7.7	-8.47	0.1629	0.1581	-0.3965	
-0.621956	-0.556808	0.538264	-3.43	-8.89	-9.38	0.1716	0.161	-0.4011	
-0.62647	-0.56425	0.533384	-4.62	-9.24	-12.25	0.1658	0.1657	-0.3979	
-0.62403	-0.566202	0.53131	-5.74	-12.32	-14.98	0.1672	0.1641	-0.3995	
-0.611342	-0.561566	0.560224	-6.58	-16.24	-17.78	0.1629	0.1626	-0.3995	
-0.61793	-0.562176	0.540338	-7.63	-17.78	-21.49	0.1498	0.1673	-0.4008	
-0.602192	-0.558394	0.523502	-11.13	-22.82	-26.88	0.1571	0.1626	-0.4055	
-0.569618	-0.568764	0.535458	-14.07	-24.85	-29.26	0.1454	0.1659	-0.3932	
-0.576206	-0.587308	0.5307	-17.08	-22.54	-32.76	0.1425	0.1719	-0.3992	
-0.558882	-0.602314	0.529968	-19.53	-22.96	-35.77	0.1323	0.1888	-0.4035	
-0.55571	-0.620248	0.52277	-21.21	-22.75	-39.27	0.1324	0.1826	-0.405	
-0.565836	-0.63135	0.508862	-22.75	-22.75	-42.21	0.1266	0.1782	-0.3989	
-0.5612	-0.641476	0.496662	-24.57	-24.57	-43.61	0.1163	0.2027	-0.4016	
-0.538874	-0.65331	0.4941	-27.02	-28.63	-45.5	0.1163	0.2072	-0.4031	
-0.52277	-0.660752	0.489586	-29.12	-30.03	-47.81	0.1017	0.2059	-0.3969	
-0.507398	-0.657336	0.486414	-32.34	-32.27	-50.26	0.1017	0.2104	-0.3983	
-0.447984	-0.671488	0.49105	-35.07	-35	-53.55	0.08859999	0.2166	-0.3981	
-0.417972	-0.664412	0.480924	-36.61	-33.46	-56.7	0.07979999	0.232	-0.3979	
-0.40565	-0.67893	0.45689	-37.45	-32.13	-61.32	0.0783	0.2214	-0.3873	
-0.382714	-0.703818	0.447008	-37.52	-32.2	-67.34	0.0609	0.2368	-0.3931	
-0.35563	-0.738222	0.432002	-38.71	-31.57	-71.96	0.0521	0.2415	-0.3807	
-0.328912	-0.776164	0.432246	-40.18	-31.15	-74.55	0.036	0.2539	-0.3774	
-0.315248	-0.80947	0.41053	-41.37	-32.97	-76.93	0.0171	0.2557	-0.365	
-0.279014	-0.794464	0.397354	-42.14	-38.22	-77.35	-0.0003	0.2635	-0.3662	
-0.238266	-0.80398	0.384422	-41.3	-42.7	-79.73	-0.0076	0.2697	-0.3615	
-0.153842	-0.758474	0.380762	-41.37	-47.11	-80.01	-0.0279	0.2729	-0.3598	
-0.108214	-0.758352	0.379298	-42.91	-45.22	-85.4	-0.0381	0.276	-0.3581	
-0.09455	-0.815326	0.366976	-43.26	-40.18	-92.54	-0.0556	0.2854	-0.3517	
-0.035136	-0.828258	0.339648	-41.37	-40.53	-93.94	-0.07009999	0.287	-0.3516	
0.028182	-0.845582	0.311344	-39.69	-41.51	-95.69	-0.0818	0.2902	-0.3438	
0.087352	-0.882914	0.282796	-36.96	-45.36	-99.33	-0.0905	0.2858	-0.3377	
0.18422	-0.862052	0.280234	-34.79	-49.98	-96.95	-0.1109	0.2815	-0.3253	
0.279624	-0.867298	0.293166	-34.16	-52.15	-95.97	-0.1283	0.2862	-0.3251	
0.294874	-0.901214	0.27206	-31.08	-45.57	-98.28	-0.1472	0.2924	-0.3249	
0.269864	-0.920002	0.235582	-26.18	-38.22	-97.72	-0.1545	0.288	-0.3142	
0.257908	-0.89365	0.212768	-21.21	-33.95	-92.68	-0.1734	0.276	-0.308	
0.26779	-0.856928	0.185196	-18.55	-33.95	-85.89	-0.1792	0.2837	-0.3063	
0.392108	-0.82716	0.2501	-17.36	-42.91	-80.15	-0.198	0.2686	-0.3002	
0.552904	-0.836554	0.29707	-14.21	-44.8	-85.89	-0.2169	0.2673	-0.2924	
0.522282	-0.884988	0.264008	-11.13	-32.83	-86.31	-0.2256	0.2613	-0.2863	
0.476044	-0.916586	0.24217	-7.49	-22.4	-82.53	-0.2299	0.2551	-0.2909	
0.472994	-0.91195	0.220942	-4.69	-17.85	-72.8	-0.2488	0.2508	-0.2817	
0.498736	-0.908778	0.244122	-0.98	-16.17	-63.77	-0.259	0.2417	-0.2756	
0.540948	-0.856196	0.24278	3.15	-16.94	-53.97	-0.2603	0.234	-0.2833	
0.576816	-0.80581	0.232532	3.64	-22.82	-52.64	-0.2661	0.2311	-0.2771	
0.58377	-0.83448	0.245342	3.71	-25.2	-57.05	-0.2646	0.2265	-0.2787	
0.554612	-0.833626	0.256566	4.97	-21.14	-55.23	-0.285	0.2236	-0.274	
0.551806	-0.790804	0.234606	3.85	-16.73	-47.81	-0.2937	0.2207	-0.2633	
0.582672	-0.765428	0.210328	1.05	-16.66	-41.86	-0.2921	0.2144	-0.2771	
0.613294	-0.747128	0.23607	-1.26	-20.3	-39.62	-0.2995	0.2131	-0.2618	
0.63074	-0.765184	0.249856	-0.63	-22.4	-41.37	-0.3038	0.2039	-0.2649	
0.636596	-0.768966	0.243878	2.24	-20.16	-40.88	-0.3052	0.1994	-0.2634	
0.652212	-0.765184	0.238998	3.15	-18.06	-38.15	-0.3095	0.1964	-0.2634	
0.648186	-0.740296	0.229116	3.71	-12.88	-31.71	-0.3152	0.1811	-0.2635	
0.660752	-0.72407	0.22265	3.01	-12.53	-28	-0.3225	0.1903	-0.2679	
0.675636	-0.727486	0.227042	2.52	-12.81	-27.93	-0.3196	0.1705	-0.256	
0.701378	-0.720288	0.232166	2.52	-14.35	-27.93	-0.3385	0.1768	-0.2496	
0.71004	-0.70333	0.249124	3.15	-13.16	-28.14	-0.3355	0.1676	-0.2528	
0.70333	-0.705282	0.230336	3.36	-8.68	-27.37	-0.3384	0.1645	-0.2559	
0.675636	-0.717848	0.2135	3.36	-3.71	-25.41	-0.3429	0.1769	-0.2465	
0.680394	-0.71431	0.216916	3.08	-3.92	-21.21	-0.3414	0.1768	-0.2542	
0.696742	-0.7015	0.215086	2.87	-5.04	-17.85	-0.3457	0.1631	-0.2482	
0.703452	-0.691984	0.227774	2.59	-6.44	-16.17	-0.3515	0.1587	-0.239	
0.692472	-0.686616	0.222894	4.55	-4.34	-14.77	-0.3499	0.1585	-0.2543	
0.70577	-0.67283	0.21594	4.41	-5.32	-13.44	-0.3471	0.1616	-0.2497	
0.721752	-0.667462	0.221552	3.36	-7.07	-13.51	-0.3572	0.157	-0.2527	
0.714432	-0.675758	0.225578	3.22	-7.21	-13.37	-0.3441	0.1508	-0.2575	
0.700524	-0.669292	0.225822	3.99	-5.46	-10.64	-0.3529	0.1495	-0.2437	
0.706868	-0.664534	0.211426	4.2	-3.57	-9.73	-0.3571	0.1478	-0.2543	
0.748348	-0.650016	0.235826	2.17	-5.25	-9.45	-0.3571	0.1403	-0.2468	
0.732366	-0.662582	0.228872	2.38	-2.66	-8.89	-0.3571	0.1418	-0.2514	
0.726266	-0.656848	0.224968	3.08	-0.98	-7.14	-0.3528	0.1417	-0.2529	
0.733342	-0.652944	0.230092	3.57	-0.28	-7.28	-0.347	0.1478	-0.2483	
0.712968	-0.664656	0.227896	4.69	1.05	-7.35	-0.3542	0.1402	-0.2514	
0.716994	-0.66002	0.229604	5.04	0.63	-4.06	-0.3614	0.1432	-0.2589	
0.727974	-0.65575	0.229116	4.34	-0.7	-1.68	-0.3601	0.1418	-0.2468	
0.762134	-0.64355	0.233508	3.36	-0.49	0.7	-0.3556	0.1356	-0.2514	
0.793122	-0.64721	0.271084	1.54	-1.05	0.7	-0.3643	0.1357	-0.2498	
0.773846	-0.65392	0.275964	1.96	3.5	1.68	-0.3556	0.1356	-0.2514	
0.751154	-0.661118	0.24644	0.77	7.56	5.46	-0.3643	0.1342	-0.2499	
0.72712	-0.670268	0.233996	0.14	6.86	8.96	-0.36	0.1281	-0.2408	
0.733464	-0.65209	0.234118	-0.42	4.83	13.02	-0.35	0.1418	-0.2423	
0.77775	-0.657336	0.266448	-1.68	2.31	14.21	-0.3542	0.1448	-0.2544	
0.806542	-0.675514	0.28792	-1.47	6.23	14.42	-0.3528	0.1402	-0.2499	
0.798856	-0.669536	0.278282	-1.33	16.66	19.32	-0.3513	0.1372	-0.2499	
0.723948	-0.659166	0.252296	-1.96	23.38	25.34	-0.3426	0.1447	-0.256	
0.644038	-0.664534	0.192638	-3.71	21.35	29.89	-0.3441	0.1539	-0.2559	
0.665998	-0.659654	0.191174	-7.07	12.18	30.17	-0.334	0.1553	-0.2545	
0.73444	-0.70089	0.289018	-9.1	7.07	26.6	-0.3426	0.1629	-0.265	
0.75701	-0.717238	0.3233	-9.17	12.39	29.96	-0.3339	0.1582	-0.2697	
0.73871	-0.742858	0.28487	-10.64	21.35	39.76	-0.334	0.1705	-0.268	
0.681492	-0.723948	0.254614	-11.9	27.93	49.42	-0.3195	0.1765	-0.2666	
0.67344	-0.66917	0.245708	-14.77	28.21	50.19	-0.318	0.1825	-0.2772	
0.654042	-0.712602	0.263886	-16.87	27.72	44.59	-0.3065	0.1855	-0.2727	
0.618174	-0.739564	0.257664	-15.47	30.94	47.11	-0.3008	0.21	-0.2725	
0.572058	-0.726144	0.244488	-13.16	33.11	53.27	-0.2962	0.1975	-0.2894	
0.51667	-0.716506	0.227896	-12.18	28.28	52.36	-0.2921	0.2068	-0.2756	
0.511424	-0.742004	0.238388	-13.72	18.69	49.35	-0.2806	0.222	-0.2771	
0.551806	-0.766282	0.288774	-15.47	13.86	46.62	-0.2835	0.2236	-0.2725	
0.55266	-0.767624	0.264008	-17.08	19.04	46.69	-0.2763	0.2327	-0.2755	
0.478484	-0.802882	0.24095	-17.29	28	53.13	-0.2661	0.2356	-0.2786	
0.46238	-0.78141	0.237778	-17.22	29.75	56.42	-0.259	0.2403	-0.2725	
0.44591	-0.815082	0.255468	-17.29	26.95	53.9	-0.243	0.2507	-0.2832	
0.41541	-0.855952	0.259982	-16.24	24.92	49.77	-0.2429	0.2537	-0.2939	
0.365634	-0.859002	0.257786	-14.98	23.31	51.87	-0.233	0.2675	-0.2786	
0.348676	-0.83692	0.249978	-14.07	21.14	56.49	-0.2199	0.2628	-0.2864	
0.32208	-0.838384	0.227164	-13.86	17.92	56.63	-0.2155	0.2703	-0.2909	
0.28426	-0.851316	0.217648	-12.95	11.48	54.88	-0.204	0.2794	-0.2894	
0.246562	-0.82899	0.205082	-13.16	6.23	50.75	-0.1982	0.2764	-0.2819	
0.204228	-0.835456	0.198494	-13.93	1.89	43.89	-0.2026	0.2795	-0.2833	
0.21594	-0.89914	0.216062	-12.88	-1.33	37.17	-0.1955	0.2887	-0.2772	
0.210084	-0.943792	0.24461	-8.4	1.61	32.9	-0.1896	0.2931	-0.2894	
0.160064	-0.939034	0.24705	-2.73	6.72	30.1	-0.184	0.3024	-0.2771	
0.134688	-0.93025	0.239486	-0.98	4.83	27.23	-0.1825	0.2993	-0.2802	
0.128832	-0.941474	0.242414	-0.28	4.41	26.81	-0.1751	0.2946	-0.2864	
0.128344	-0.973926	0.262544	1.33	3.15	26.53	-0.1766	0.2976	-0.2894	
0.10797	-0.962336	0.257542	2.94	2.66	29.26	-0.1651	0.3083	-0.2803	
0.102114	-0.935984	0.227286	4.13	2.45	31.29	-0.1665	0.3052	-0.2849	
0.10919	-0.922686	0.211182	5.04	3.29	31.99	-0.1679	0.3067	-0.2894	
0.116876	-0.9272	0.243268	5.95	1.26	29.96	-0.152	0.3036	-0.285	
0.091866	-0.928664	0.223016	6.86	3.01	28.49	-0.1492	0.3144	-0.2788	
0.080154	-0.910608	0.230214	7.63	0	27.72	-0.1564	0.3128	-0.2849	
0.086986	-0.918538	0.233508	7.84	-2.24	26.04	-0.1404	0.3111	-0.2942	
0.099796	-0.914512	0.225212	6.65	-4.2	23.73	-0.1491	0.3005	-0.2866	
0.09211	-0.893528	0.209962	5.04	-4.76	19.6	-0.1462	0.3142	-0.2956	
0.119804	-0.881938	0.219478	2.17	-9.87	15.47	-0.1419	0.3112	-0.2851	
0.150548	-0.89121	0.258274	0.77	-12.32	10.99	-0.139	0.3035	-0.2836	
0.163846	-0.903776	0.293654	0.77	-8.61	6.58	-0.1419	0.3097	-0.2851	
0.108336	-0.95404	0.280356	1.75	-0.63	2.87	-0.1447	0.3111	-0.2926	
-0.015372	-1.000644	0.210694	3.71	3.99	1.75	-0.1477	0.3082	-0.2866	
-0.070272	-1.014796	0.172508	4.97	-4.34	6.93	-0.1375	0.3157	-0.2911	
0.008905999	-1.009062	0.234972	5.04	-27.23	20.65	-0.1462	0.3127	-0.2896	
0.083082	-0.994056	0.25254	6.44	-35.49	25.83	-0.1506	0.3173	-0.291	
0.095892	-0.955382	0.229604	9.17	-35.91	28.28	-0.1447	0.3111	-0.2926	
0.084302	-0.967338	0.199958	11.2	-39.55	30.38	-0.1461	0.308	-0.3018	
0.016104	-1.024922	0.202276	15.96	-43.33	28.98	-0.1461	0.3095	-0.2987	
-0.024766	-1.007232	0.192394	18.55	-50.89	35.35	-0.1463	0.3143	-0.2865	
-0.00122	-0.978684	0.187026	17.29	-58.1	42.63	-0.1535	0.3097	-0.285	
0.036478	-0.940376	0.174582	15.33	-65.17	45.5	-0.139	0.3187	-0.2926	
0.09089	-0.971486	0.158112	15.05	-75.74	45.99	-0.1405	0.3158	-0.2865	
0.07442	-1.007354	0.192272	17.92	-75.81	45.71	-0.1492	0.3219	-0.2849	
0.021838	-0.951966	0.182146	18.34	-68.32	46.2	-0.1549	0.3188	-0.294	
0.050752	-0.960018	0.1891	14.7	-72.52	49.91	-0.1521	0.3083	-0.2774	
0.10797	-1.013942	0.225456	12.25	-69.93	52.22	-0.1653	0.3282	-0.2785	
0.087596	-0.998082	0.258274	12.04	-63.07	50.89	-0.1551	0.3145	-0.2712	
0.06527	-0.92537	0.254126	9.52	-64.4	53.83	-0.1537	0.31	-0.2667	
0.074298	-0.92903	0.274012	3.71	-83.65	55.37	-0.1609	0.3222	-0.2725	
0.096014	-0.902556	0.30683	-3.99	-93.31	56.63	-0.1654	0.3315	-0.2632	
0.132248	-0.827404	0.326838	-10.85	-96.25	56.28	-0.1684	0.3362	-0.2555	
0.195078	-0.848632	0.347578	-13.3	-98.63	50.33	-0.167	0.3301	-0.2465	
0.177998	-0.919636	0.325374	-11.9	-91.63	40.67	-0.1787	0.3395	-0.2402	
0.14518	-0.93696	0.366732	-6.79	-82.74	35.98	-0.173	0.3396	-0.228	
0.099918	-0.8845	0.366854	-2.87	-70.91	35	-0.1731	0.3518	-0.2294	
0.117364	-0.84729	0.352336	-4.62	-63.07	32.41	-0.1775	0.3427	-0.2203	
0.149938	-0.927932	0.337696	-7.14	-56.42	25.83	-0.1762	0.352	-0.2141	
0.117486	-0.982222	0.32025	-4.34	-48.86	21.91	-0.1863	0.3551	-0.214	
0.031232	-0.919148	0.324032	-0.21	-39.13	20.51	-0.1863	0.349	-0.2125	
-0.00122	-0.840458	0.306342	-1.61	-34.93	20.16	-0.1819	0.3535	-0.2156	
0.043554	-0.872178	0.301584	-4.13	-35.42	15.12	-0.1835	0.3521	-0.208	
0.040382	-0.977586	0.27633	-2.59	-34.72	10.57	-0.1952	0.3585	-0.194	
-0.01403	-0.93879	0.283162	0.28	-30.87	10.29	-0.1864	0.3658	-0.2123	
-0.028304	-0.919026	0.289872	0.84	-28.7	10.57	-0.1967	0.3691	-0.2	
0.0366	-0.942572	0.299632	-3.36	-25.27	8.82	-0.185	0.3629	-0.2002	
0.00122	-0.98576	0.288408	-1.33	-22.12	7.14	-0.1923	0.3645	-0.2001	
-0.047824	-0.925004	0.305732	2.87	-18.27	7.21	-0.1909	0.363	-0.1986	
-0.01891	-0.88328	0.309758	2.59	-16.03	7.77	-0.1836	0.366	-0.1971	
0.030744	-0.900604	0.320494	0.49	-14.7	5.95	-0.1865	0.3599	-0.1987	
0.060268	-0.943914	0.322934	-0.14	-10.99	3.5	-0.201	0.3585	-0.197	
0.037698	-0.920002	0.320494	2.52	-3.43	0.35	-0.1938	0.363	-0.194	
-0.002318	-0.87047	0.311832	2.94	3.36	-1.47	-0.1923	0.3615	-0.1956	
0.015128	-0.8845	0.310978	-0.91	4.34	-3.92	-0.1952	0.363	-0.2016	
0.047702	-0.935984	0.305732	-2.8	5.25	-5.46	-0.1807	0.3613	-0.2033	
0.037698	-0.957212	0.30195	-0.63	10.29	-7.7	-0.1923	0.3553	-0.1972	
0.02013	-0.927932	0.310246	2.38	14.56	-10.29	-0.1865	0.3584	-0.1926	
0.040138	-0.912926	0.313418	2.87	17.99	-11.76	-0.1907	0.3613	-0.2108	
0.072468	-0.91317	0.329766	0.84	22.19	-12.81	-0.1936	0.3492	-0.2033	
0.093086	-0.932568	0.332084	0.21	28.84	-16.24	-0.1908	0.3599	-0.2002	
0.062098	-0.946598	0.30317	3.08	39.06	-19.53	-0.1834	0.3444	-0.2111	
0.017568	-0.937326	0.284748	4.9	42	-18.48	-0.1922	0.3583	-0.2093	
0.022692	-0.890722	0.299388	5.25	40.11	-17.29	-0.1833	0.3504	-0.2263	
0.122366	-0.830576	0.349408	1.68	40.25	-18.27	-0.1877	0.3505	-0.2186	
0.21472	-0.89853	0.383324	-4.97	44.17	-24.78	-0.1892	0.349	-0.2171	
0.177632	-1.003816	0.304512	-4.62	59.78	-31.92	-0.1919	0.3428	-0.2247	
0.030866	-1.010526	0.264618	1.61	73.85	-31.71	-0.1847	0.3458	-0.2248	
-0.041724	-0.947452	0.248392	5.74	75.11	-28.35	-0.1773	0.3365	-0.2326	
0.002928	-0.89487	0.260592	5.67	67.27	-25.27	-0.1773	0.3455	-0.2477	
0.10187	-0.900238	0.299266	2.59	58.45	-24.22	-0.1757	0.3347	-0.2555	
0.2013	-0.922686	0.373442	-3.22	54.39	-25.62	-0.1699	0.3317	-0.2495	
0.192516	-0.963678	0.30805	-3.43	66.22	-29.82	-0.1728	0.3347	-0.2555	
0.061976	-1.024068	0.26352	0.49	81.41	-32.13	-0.1727	0.3346	-0.2616	
0.031964	-0.963556	0.263642	3.99	83.02	-28.56	-0.1582	0.333	-0.2587	
0.028548	-0.87962	0.249368	2.66	76.23	-29.96	-0.1624	0.3253	-0.2679	
0.054778	-0.833626	0.232532	-3.5	71.47	-31.29	-0.1552	0.3192	-0.2635	
0.190198	-0.96014	0.273158	-12.46	61.04	-35.91	-0.1537	0.3222	-0.2696	
0.105164	-1.063108	0.294874	-6.16	75.32	-42.77	-0.145	0.3206	-0.2681	
-0.011102	-1.003694	0.250588	2.17	87.57	-37.94	-0.1465	0.3221	-0.2696	
-0.094062	-0.932446	0.227896	5.46	82.11	-36.33	-0.1363	0.325	-0.2789	
-0.103944	-0.92964	0.226066	3.01	71.26	-35.35	-0.1405	0.3189	-0.2819	
-0.098698	-0.944036	0.213622	1.05	63.14	-36.19	-0.139	0.3096	-0.2881	
-0.040626	-0.978074	0.249002	-0.35	54.46	-33.6	-0.1361	0.3172	-0.2942	
0.007686	-0.939522	0.259494	-0.42	53.06	-33.32	-0.1346	0.3141	-0.2973	
0.020984	-0.919636	0.268278	-1.96	54.74	-39.41	-0.1289	0.3233	-0.2911	
0.039406	-0.932446	0.25986	-0.42	58.31	-45.71	-0.1273	0.3049	-0.2944	
0.058804	-0.932568	0.225212	-0.07	59.78	-45.01	-0.1331	0.3095	-0.2974	
0.095282	-0.953552	0.3294	-3.29	44.66	-34.44	-0.1213	0.3016	-0.3098	
0.096624	-0.954406	0.31903	-3.57	50.19	-31.08	-0.1329	0.3032	-0.3127	
0.103578	-0.922076	0.330742	-4.55	52.22	-28.14	-0.13	0.3107	-0.3187	
0.102602	-0.911706	0.30317	-7.7	60.06	-26.67	-0.1214	0.3017	-0.3052	
0.074786	-0.897554	0.28182	-10.92	63.35	-29.82	-0.1141	0.3106	-0.3189	
0.10065	-0.94672	0.326716	-16.52	52.57	-29.47	-0.1054	0.3121	-0.3174	
0.089182	-0.958066	0.30866	-15.05	57.12	-28.35	-0.114	0.3045	-0.3189	
0.0854	-0.93696	0.286944	-14.63	58.31	-25.06	-0.1083	0.3091	-0.3144	
0.086132	-0.921466	0.274256	-16.45	57.33	-24.92	-0.098	0.3104	-0.3266	
0.09638	-0.904752	0.267058	-18.69	57.33	-27.58	-0.101	0.3045	-0.3145	
0.126026	-0.903532	0.295972	-23.66	55.23	-29.12	-0.088	0.3166	-0.3191	
0.169824	-0.926224	0.311222	-25.83	58.17	-31.78	-0.0923	0.3059	-0.3191	
0.148596	-0.941108	0.280844	-25.83	64.68	-30.45	-0.0866	0.3121	-0.31	
0.15189	-0.927078	0.250466	-27.79	62.79	-29.96	-0.0808	0.3105	-0.3085	
0.184708	-0.905362	0.27389	-28.84	58.87	-28.7	-0.0837	0.3196	-0.316	
0.189954	-0.939278	0.243146	-27.23	67.41	-30.24	-0.078	0.3212	-0.3115	
0.136396	-0.967948	0.218624	-23.03	71.19	-32.48	-0.0707	0.3303	-0.3145	
0.100406	-0.932324	0.172874	-18.48	64.75	-32.34	-0.0693	0.3181	-0.307	
0.148474	-0.901946	0.186294	-18.9	56.14	-33.32	-0.0607	0.3242	-0.304	
0.155306	-0.926224	0.195078	-22.75	61.25	-38.5	-0.0577	0.3287	-0.3101	
0.136152	-0.950868	0.211304	-23.17	67.97	-42.98	-0.0592	0.3302	-0.31	
0.130784	-1.000034	0.213988	-21.98	72.52	-40.46	-0.0534	0.3241	-0.3071	
0.107726	-0.969534	0.180194	-18.27	74.06	-37.38	-0.0578	0.3349	-0.3054	
0.105286	-0.934764	0.161162	-15.89	69.79	-38.01	-0.0477	0.3379	-0.304	
0.133468	-0.948794	0.1891	-17.99	64.89	-38.29	-0.049	0.3226	-0.3072	
0.14213	-0.966972	0.209474	-21.21	65.87	-36.68	-0.0404	0.3302	-0.2995	
0.169092	-0.949282	0.192394	-22.82	70.35	-30.17	-0.0419	0.3318	-0.301	
0.211182	-0.926712	0.198128	-23.03	67.34	-32.34	-0.0347	0.3378	-0.301	
0.133224	-0.975634	0.168848	-22.33	70.77	-35.35	-0.0289	0.3347	-0.2996	
0.075518	-0.970632	0.159576	-19.67	65.1	-33.74	-0.0276	0.3425	-0.2904	
0.05795	-0.96624	0.155672	-19.18	57.61	-30.8	-0.0304	0.3424	-0.2964	
0.069906	-0.96563	0.164944	-17.78	48.72	-27.79	-0.0204	0.3426	-0.2798	
0.114924	-0.956114	0.195322	-17.78	41.16	-26.04	-0.0247	0.3486	-0.2903	
0.148962	-0.96624	0.197152	-16.38	35.56	-24.08	-0.0232	0.353	-0.3025	
0.163236	-0.959042	0.200446	-16.1	32.13	-22.4	-0.0174	0.347	-0.2919	
0.152256	-0.986858	0.181048	-14.84	28.28	-21.49	-0.0247	0.3517	-0.2872	
0.139202	-0.973194	0.169824	-7.77	20.65	-17.08	-0.0204	0.3608	-0.2902	
0.148352	-0.95831	0.187026	-5.74	13.86	-13.37	-0.0175	0.3532	-0.2827	
0.170434	-0.947452	0.202398	-4.55	8.4	-9.94	-0.0204	0.3547	-0.2903	
0.203252	-0.940742	0.215696	-3.71	4.27	-7.35	-0.0176	0.3578	-0.2842	
0.199592	-0.953552	0.199592	-0.98	1.47	-5.88	-0.0278	0.3595	-0.2719	
0.196786	-0.959042	0.210816	0.84	-2.17	-3.29	-0.0175	0.3593	-0.2888	
0.238144	-0.930616	0.20862	1.68	-2.8	-0.56	-0.0235	0.3549	-0.2689	
0.237412	-0.960384	0.216306	1.96	-5.95	1.47	-0.0233	0.3547	-0.2857	
0.219966	-0.943426	0.199348	4.69	-7.21	3.85	-0.019	0.3517	-0.2843	
0.23546	-0.919758	0.201178	4.76	-9.38	5.81	-0.0277	0.3548	-0.2857	
0.256932	-0.913536	0.209474	3.43	-10.92	7.21	-0.0247	0.3532	-0.2888	
0.24583	-0.934398	0.201056	3.57	-10.57	6.65	-0.0146	0.3486	-0.2798	
0.248514	-0.932202	0.205204	3.85	-9.94	6.86	-0.0305	0.3502	-0.2872	
0.24888	-0.93696	0.206302	3.71	-9.66	7.14	-0.0334	0.3502	-0.2887	
0.212646	-0.943182	0.192394	4.48	-9.38	7	-0.0205	0.3548	-0.2812	
0.164212	-0.950136	0.179218	5.46	-11.97	7.28	-0.0291	0.3532	-0.2887	
0.184586	-0.944036	0.210206	7.42	-21.42	10.5	-0.0204	0.3562	-0.2888	
0.203252	-0.925248	0.216916	10.78	-22.89	11.41	-0.0247	0.344	-0.2858	
0.184586	-0.942206	0.215208	13.72	-23.31	11.97	-0.0233	0.3532	-0.2903	
0.12566	-0.97234	0.190808	16.17	-25.9	13.51	-0.029	0.3501	-0.2933	
0.140544	-0.95282	0.219722	14	-34.37	20.51	-0.0276	0.3455	-0.2903	
0.169336	-0.955138	0.234972	11.41	-38.85	24.78	-0.0348	0.3425	-0.2918	
0.16653	-0.941962	0.231556	11.2	-40.04	25.41	-0.0361	0.3348	-0.3011	
0.12932	-0.933544	0.211426	13.09	-39.34	24.71	-0.0362	0.341	-0.2918	
0.115412	-0.944646	0.182268	14.7	-41.65	24.78	-0.0393	0.3518	-0.2841	
0.106872	-0.960628	0.163114	14.7	-48.09	25.27	-0.0347	0.3378	-0.301	
0.128954	-0.963678	0.211792	13.44	-53.97	27.79	-0.0347	0.3378	-0.301	
0.16958	-0.962458	0.252296	12.32	-56.84	30.03	-0.0405	0.3364	-0.2949	
0.13664	-0.950136	0.2501	11.9	-53.62	29.54	-0.0317	0.3362	-0.3057	
0.086742	-0.922076	0.20862	11.9	-52.5	30.24	-0.0491	0.3424	-0.313	
0.104676	-0.9089	0.198494	9.52	-54.04	30.24	-0.0448	0.341	-0.3009	
0.148962	-0.96014	0.172752	11.48	-57.47	27.72	-0.0492	0.3394	-0.3024	
0.189222	-0.956358	0.221796	11.2	-60.41	27.44	-0.0519	0.3256	-0.3071	
0.18788	-0.93574	0.248636	9.03	-55.93	26.11	-0.0606	0.3195	-0.3117	
0.146034	-0.920002	0.23302	7.49	-54.46	24.64	-0.0665	0.3334	-0.3038	
0.146888	-0.949892	0.229238	5.32	-54.25	24.92	-0.0708	0.3273	-0.3069	
0.158722	-0.947818	0.194712	7.91	-51.38	25.41	-0.0637	0.3396	-0.2992	
0.200812	-0.88694	0.221186	8.47	-54.88	24.15	-0.0651	0.3289	-0.2978	
0.20496	-0.883524	0.259616	5.32	-51.66	18.34	-0.07229999	0.3259	-0.2947	
0.157258	-0.940864	0.264496	4.9	-44.87	12.18	-0.0752	0.3228	-0.2978	
0.10736	-0.965996	0.201788	7.84	-40.53	11.83	-0.0839	0.3259	-0.3022	
0.09455	-0.928176	0.179462	10.78	-43.89	14	-0.08679999	0.3305	-0.3021	
0.088084	-0.922076	0.14396	10.43	-47.39	12.46	-0.07669999	0.3244	-0.2977	
0.117364	-0.94245	0.190808	7.98	-57.96	9.59	-0.0898	0.3306	-0.293	
0.153476	-0.969534	0.21533	5.32	-60.76	8.47	-0.0999	0.3261	-0.2975	
0.16348	-0.975146	0.226066	6.79	-60.06	11.06	-0.1013	0.3169	-0.2945	
0.17812	-0.964288	0.235704	8.47	-58.8	14.42	-0.1129	0.3201	-0.2913	
0.18544	-0.90463	0.18056	10.01	-56.7	16.73	-0.1013	0.3246	-0.2929	
0.233508	-0.885842	0.22204	5.67	-58.45	11.2	-0.1172	0.3231	-0.2974	
0.261934	-0.944524	0.248514	2.38	-51.38	2.8	-0.1187	0.3232	-0.2943	
0.229482	-0.951356	0.25742	3.64	-43.26	3.85	-0.1274	0.3172	-0.2866	
0.227042	-0.928908	0.251442	4.2	-35.42	7.14	-0.1274	0.3126	-0.2882	
0.199348	-0.93391	0.249002	4.83	-29.19	7.7	-0.1274	0.3141	-0.2897	
0.142862	-0.963678	0.20862	7.98	-23.45	8.33	-0.1275	0.3249	-0.2835	
0.130296	-0.944524	0.209718	10.15	-27.3	9.8	-0.126	0.3173	-0.2806	
0.131882	-0.918416	0.206424	10.29	-30.03	9.8	-0.1463	0.3203	-0.291	
0.104554	-0.942084	0.184586	10.15	-30.66	7.49	-0.1361	0.3203	-0.2911	
0.07259	-0.995154	0.173362	11.9	-33.32	8.19	-0.1447	0.3111	-0.2972	
0.032574	-1.047126	0.156648	15.82	-40.11	14.7	-0.1536	0.322	-0.2802	
0.02379	-1.052128	0.143838	20.3	-49.14	23.8	-0.1477	0.3173	-0.2864	
0.047824	-1.025776	0.144814	22.89	-60.97	32.13	-0.155	0.3098	-0.2819	
0.085156	-0.999912	0.13542	23.38	-69.58	38.08	-0.1579	0.3219	-0.2909	
0.072956	-1.00223	0.101382	24.99	-75.88	38.92	-0.1449	0.3234	-0.2849	
0.073932	-1.011258	0.116998	27.86	-92.75	45.92	-0.1593	0.3082	-0.2864	
0.105774	-0.987956	0.1464	26.25	-101.43	49.98	-0.1594	0.3038	-0.2697	
0.144692	-0.969046	0.156526	24.85	-105.49	51.45	-0.1666	0.3054	-0.2742	
0.193004	-0.920124	0.19886	23.73	-108.15	50.61	-0.1755	0.3177	-0.2664	
0.222162	-0.882426	0.191906	19.04	-108.78	46.69	-0.1711	0.3147	-0.2619	
0.215574	-0.920734	0.225212	16.03	-105.98	40.32	-0.1828	0.3285	-0.2662	
0.21106	-0.937936	0.241072	17.36	-94.36	38.01	-0.1871	0.3164	-0.2571	
0.210694	-0.957944	0.264374	18.41	-85.89	38.43	-0.1944	0.318	-0.2509	
0.218258	-0.961482	0.246806	19.67	-79.31	41.3	-0.2002	0.3166	-0.2509	
0.174216	-0.913414	0.26596	18.41	-66.78	43.12	-0.2075	0.3181	-0.2523	
0.17812	-0.884012	0.308172	12.88	-63	41.58	-0.1959	0.315	-0.2479	
0.220454	-0.91683	0.315004	7.7	-59.15	37.59	-0.1902	0.3181	-0.2403	
0.213256	-0.957944	0.302926	7.7	-52.29	33.67	-0.2004	0.3198	-0.2341	
0.155672	-0.945378	0.302316	9.03	-38.5	32.69	-0.1902	0.3211	-0.2464	
0.138348	-0.855464	0.32391	4.97	-32.06	33.95	-0.1946	0.3213	-0.2356	
0.179218	-0.893406	0.358436	-2.17	-43.89	25.48	-0.2005	0.329	-0.2309	
0.184098	-0.939156	0.364536	1.19	-37.31	19.18	-0.1932	0.3319	-0.2401	
0.137128	-0.905728	0.347212	2.59	-25.41	16.73	-0.1991	0.3305	-0.2309	
0.105408	-0.880352	0.33245	0.56	-19.6	14.28	-0.2034	0.3291	-0.2263	
0.103212	-0.902922	0.312198	-2.24	-16.38	11.9	-0.1905	0.3367	-0.2248	
0.101138	-0.910974	0.303902	-3.43	-13.16	10.99	-0.1963	0.3368	-0.2156	
0.081496	-0.88206	0.318664	-4.2	-10.57	8.05	-0.1948	0.3382	-0.2232	
0.094062	-0.915976	0.31903	-4.97	-9.45	3.99	-0.1991	0.3397	-0.2293	
0.06954	-0.957822	0.300486	-1.19	-4.69	0.49	-0.2108	0.3414	-0.2246	
0.052338	-0.92232	0.295728	-0.14	-1.47	-0.42	-0.1977	0.3337	-0.2217	
0.043554	-0.915854	0.305854	-2.03	-0.14	-1.4	-0.2006	0.3306	-0.2233	
0.059414	-0.930982	0.300486	-4.34	1.54	-1.26	-0.1949	0.3323	-0.2111	
0.087352	-0.96685	0.308538	-2.31	1.96	-1.33	-0.2035	0.3368	-0.2232	
0.073566	-0.93452	0.292312	0.07	6.79	-2.1	-0.2006	0.3397	-0.2293	
0.04209	-0.916342	0.289872	-0.28	8.82	-2.24	-0.2064	0.3368	-0.2201	
0.07625	-0.92537	0.29585	-1.89	7.98	-2.8	-0.1934	0.3397	-0.2263	
0.096014	-0.948794	0.27816	-3.01	11.34	-4.76	-0.1919	0.3306	-0.2249	
0.076738	-0.925248	0.259006	-3.43	14.28	-4.69	-0.202	0.3413	-0.2277	
0.09882	-0.91866	0.287188	-4.9	13.02	-5.11	-0.2006	0.3413	-0.2277	
0.167506	-0.904264	0.32147	-8.19	13.02	-7.07	-0.1949	0.3414	-0.2125	
0.256322	-0.952698	0.322446	-9.73	21.91	-12.88	-0.1932	0.332	-0.234	
0.161406	-0.952698	0.276086	-7.28	34.44	-16.94	-0.2006	0.3337	-0.2248	
0.138226	-0.909998	0.267424	-6.58	39.69	-14.42	-0.1904	0.3351	-0.2264	
0.130052	-0.892552	0.2928	-9.17	41.3	-15.54	-0.2006	0.3261	-0.2203	
0.163846	-0.8906	0.299876	-13.02	42.28	-16.03	-0.1919	0.3336	-0.2249	
0.184098	-0.910364	0.264862	-14.07	52.57	-19.81	-0.1846	0.3442	-0.234	
0.179828	-0.97356	0.242536	-11.2	57.33	-23.52	-0.1832	0.3427	-0.2294	
0.115534	-0.98637	0.211914	-5.6	64.54	-25.9	-0.1888	0.3379	-0.2477	
0.049654	-0.935862	0.225944	-2.8	62.16	-28.07	-0.1729	0.3334	-0.2372	
0.102114	-0.906826	0.280844	-6.44	52.64	-25.9	-0.1859	0.3303	-0.2478	
0.149328	-0.92293	0.281576	-10.57	56	-31.29	-0.1773	0.3303	-0.2357	
0.143228	-0.942816	0.23363	-12.04	71.47	-38.71	-0.1785	0.324	-0.2525	
0.134566	-0.950868	0.204716	-11.9	83.65	-40.74	-0.1772	0.3287	-0.2464	
0.115534	-0.98027	0.214232	-11.06	82.18	-44.03	-0.177	0.321	-0.2541	
0.112728	-0.979416	0.249734	-9.1	79.59	-43.47	-0.1713	0.327	-0.2556	
0.111386	-0.973316	0.250832	-7.07	81.2	-44.66	-0.1726	0.3208	-0.2679	
0.112606	-0.975268	0.239608	-5.18	83.79	-43.68	-0.1639	0.3238	-0.2664	
0.105042	-0.968192	0.224236	-2.24	89.11	-42.84	-0.1697	0.3162	-0.2664	
0.111386	-0.940254	0.200568	-2.1	90.23	-42	-0.1652	0.31	-0.2726	
0.115656	-0.91439	0.194346	-5.74	89.04	-43.68	-0.158	0.3237	-0.2741	
0.118828	-0.915732	0.217404	-9.24	88.55	-44.94	-0.1477	0.3112	-0.288	
0.133224	-0.949648	0.218136	-8.68	88.06	-47.74	-0.1491	0.3036	-0.2866	
0.096624	-0.976366	0.223626	-8.54	87.92	-43.47	-0.1461	0.2989	-0.2928	
0.061976	-0.998326	0.212524	-6.93	83.93	-38.71	-0.1476	0.3111	-0.2926	
0.076982	-0.968192	0.230458	-6.79	71.89	-30.24	-0.1346	0.311	-0.2943	
0.096136	-0.940132	0.243756	-11.06	61.53	-22.82	-0.1257	0.3031	-0.3127	
0.128954	-0.942816	0.239608	-11.9	57.96	-21.84	-0.1244	0.3063	-0.299	
0.102724	-0.951844	0.206424	-10.5	59.15	-22.68	-0.1199	0.3092	-0.3112	
0.104676	-0.932934	0.204838	-13.3	51.59	-19.95	-0.1199	0.3077	-0.3112	
0.144692	-0.911218	0.263276	-17.78	44.8	-16.87	-0.1054	0.3106	-0.3174	
0.179096	-0.912072	0.275842	-19.81	47.67	-15.75	-0.1084	0.3108	-0.3037	
0.190686	-0.939156	0.237534	-20.09	54.88	-20.93	-0.1083	0.3107	-0.3113	
0.184708	-0.929396	0.24156	-18.97	57.19	-20.65	-0.1055	0.3138	-0.3067	
0.190686	-0.925492	0.24827	-19.39	58.38	-19.46	-0.0969	0.3183	-0.3022	
0.189832	-0.920978	0.23546	-21.35	58.66	-21.07	-0.0939	0.3121	-0.3084	
0.199104	-0.928054	0.241316	-23.8	59.5	-22.33	-0.0838	0.3137	-0.3039	
0.204716	-0.923418	0.221674	-25.69	60.76	-21.63	-0.0808	0.3242	-0.3145	
0.208498	-0.925004	0.214964	-26.81	62.02	-23.24	-0.0809	0.3243	-0.3068	
0.198738	-0.935984	0.20252	-26.88	61.32	-25.06	-0.0708	0.3273	-0.3023	
0.183122	-0.938424	0.187392	-25.76	65.66	-27.58	-0.0737	0.3243	-0.3039	
0.15555	-0.953064	0.170068	-24.5	66.01	-29.12	-0.0622	0.3319	-0.2978	
0.146766	-0.95587	0.186782	-22.96	65.03	-29.89	-0.0608	0.332	-0.2932	
0.160552	-0.91866	0.150548	-20.93	55.93	-25.97	-0.0535	0.3289	-0.2918	
0.204838	-0.913414	0.163114	-27.93	53.13	-28.63	-0.0651	0.332	-0.2932	
0.140422	-0.975878	0.156282	-24.99	65.31	-31.92	-0.0578	0.3334	-0.3039	
0.098698	-0.99796	0.148596	-20.02	60.41	-29.96	-0.0449	0.338	-0.2948	
0.117486	-0.976	0.170678	-19.18	57.05	-24.22	-0.0478	0.3395	-0.2917	
0.108946	-0.971974	0.152866	-18.48	56	-20.79	-0.0435	0.3441	-0.2887	
0.126514	-0.943548	0.150914	-17.57	50.54	-20.09	-0.0478	0.3395	-0.2917	
0.109068	-0.958798	0.161406	-17.71	49.21	-22.61	-0.0334	0.3456	-0.2872	
0.106506	-0.976488	0.169946	-16.73	43.96	-20.93	-0.0479	0.3594	-0.293	
0.110654	-0.99369	0.161162	-15.19	41.72	-18.9	-0.0392	0.3472	-0.2856	
0.116998	-0.985028	0.171532	-13.51	36.61	-16.52	-0.0349	0.3503	-0.2841	
0.10797	-0.97844	0.165676	-12.18	34.58	-13.58	-0.0276	0.3471	-0.2857	
0.108702	-0.956358	0.17263	-11.06	30.17	-11.97	-0.0306	0.3457	-0.2781	
0.123098	-0.9638	0.177144	-11.06	24.08	-11.06	-0.0335	0.3503	-0.278	
0.147254	-0.95587	0.175314	-10.43	19.46	-10.22	-0.0307	0.3671	-0.2794	
0.135298	-0.957334	0.177876	-8.82	16.31	-8.96	-0.0248	0.3518	-0.2796	
0.172996	-0.947452	0.188002	-7.84	9.59	-4.9	-0.019	0.3593	-0.2857	
0.158356	-0.963556	0.17446	-5.25	6.72	-4.69	-0.0291	0.3518	-0.2811	
0.156404	-0.981124	0.17995	-2.38	1.82	-2.17	-0.0205	0.3518	-0.2781	
0.185684	-0.967338	0.185928	-1.47	-1.05	1.4	-0.0263	0.3533	-0.2781	
0.190686	-0.947574	0.179706	-0.28	-2.52	1.68	-0.0249	0.364	-0.281	
0.201056	-0.950136	0.185806	0	-5.18	2.59	-0.0292	0.3564	-0.2795	
0.214964	-0.948428	0.183488	0.56	-5.6	2.8	-0.0321	0.3548	-0.2826	
0.206424	-0.945134	0.176656	1.82	-5.53	3.08	-0.0249	0.364	-0.278	
0.211182	-0.940864	0.176168	1.75	-6.79	3.64	-0.0292	0.3549	-0.2734	
0.2074	-0.934764	0.169702	1.89	-7.84	3.71	-0.0206	0.3564	-0.2735	
0.192638	-0.94794	0.174338	2.24	-9.38	3.36	-0.0364	0.3564	-0.281	
0.18666	-0.951722	0.179218	3.08	-10.92	3.85	-0.0278	0.3534	-0.2735	
0.171532	-0.957456	0.171776	3.78	-12.25	4.69	-0.0263	0.3549	-0.2735	
0.177022	-0.950136	0.171288	4.55	-15.12	6.09	-0.0248	0.3503	-0.2781	
0.173972	-0.946354	0.179584	6.23	-16.87	6.23	-0.0336	0.3626	-0.2764	
0.143838	-0.958066	0.175436	8.26	-19.18	6.51	-0.0306	0.3503	-0.275	
0.135298	-0.977586	0.146034	10.08	-27.09	9.66	-0.0291	0.3502	-0.2887	
0.166042	-0.964166	0.162992	10.57	-32.41	12.39	-0.0262	0.3548	-0.2842	
0.167384	-0.964288	0.187392	11.55	-35.14	14.42	-0.0379	0.3534	-0.2795	
0.133346	-0.96319	0.2074	11.76	-32.41	14	-0.0407	0.3458	-0.2795	
0.072224	-0.985638	0.177998	12.95	-34.58	16.52	-0.0392	0.3502	-0.2887	
0.076982	-0.964532	0.142008	15.4	-39.13	19.46	-0.0319	0.3516	-0.2948	
0.123586	-0.947452	0.155184	14.91	-47.04	22.47	-0.0377	0.3441	-0.2872	
0.149816	-0.940986	0.17141	13.86	-52.29	23.31	-0.045	0.3442	-0.2841	
0.124806	-0.945744	0.174948	13.3	-53.9	22.12	-0.0479	0.3396	-0.2872	
0.117974	-0.950502	0.19276	12.88	-55.86	22.12	-0.0523	0.3488	-0.2855	
0.161162	-0.955748	0.183488	11.13	-57.61	23.24	-0.0608	0.3442	-0.2977	
0.180316	-0.950746	0.16226	11.2	-55.44	23.24	-0.052	0.3318	-0.2994	
0.213134	-0.91683	0.17507	11.2	-58.17	22.68	-0.0594	0.3411	-0.2947	
0.204106	-0.924638	0.173972	11.34	-54.39	14.28	-0.0608	0.335	-0.2917	
0.204106	-0.938302	0.212646	9.94	-54.6	11.9	-0.0651	0.3319	-0.2978	
0.233142	-0.943426	0.23607	7.28	-49	10.71	-0.0681	0.3367	-0.2855	
0.21655	-0.936228	0.219966	5.46	-38.22	7.7	-0.0739	0.3428	-0.293	
0.194956	-0.937082	0.22692	5.88	-32.97	6.93	-0.087	0.3398	-0.2914	
0.17141	-0.948428	0.210694	6.93	-28.21	6.16	-0.08549999	0.3291	-0.29	
0.124928	-0.97234	0.176168	11.06	-25.97	6.86	-0.0898	0.3291	-0.2899	
0.0793	-0.95648	0.10675	16.45	-26.81	9.73	-0.08989999	0.3353	-0.2853	
0.093452	-0.937326	0.138226	18.13	-39.2	8.26	-0.0884	0.3307	-0.2884	
0.13115	-0.967948	0.183976	14.91	-49.42	6.51	-0.09559999	0.3367	-0.2974	
0.141642	-0.985028	0.195688	15.89	-51.87	10.92	-0.1014	0.3322	-0.2959	
0.143594	-0.99125	0.205326	17.64	-52.01	15.89	-0.1028	0.3292	-0.2898	
0.110166	-0.986126	0.153476	22.54	-50.33	21.49	-0.0999	0.3201	-0.2869	
0.119804	-0.92232	0.099796	26.04	-58.59	27.3	-0.1085	0.3261	-0.3035	
0.208742	-0.884866	0.18422	22.05	-72.52	20.79	-0.1158	0.3201	-0.2913	
0.198738	-0.958554	0.213744	19.25	-71.82	11.62	-0.1158	0.3216	-0.2943	
0.168848	-0.991372	0.226798	21.56	-72.24	15.19	-0.1273	0.3171	-0.2973	
0.176656	-0.981612	0.241072	22.75	-70.84	23.66	-0.1272	0.3033	-0.3021	
0.154818	-0.960506	0.184708	25.69	-63.7	35.91	-0.1347	0.3203	-0.2881	
0.151646	-0.902068	0.129076	26.32	-67.83	41.44	-0.1346	0.3111	-0.2882	
0.197396	-0.856562	0.16714	19.88	-76.93	37.1	-0.1404	0.3096	-0.2897	
0.2074	-0.920978	0.232654	15.12	-83.86	26.53	-0.1419	0.3157	-0.2911	
0.166164	-0.986248	0.228872	15.96	-82.32	24.29	-0.1361	0.3097	-0.2806	
0.142984	-1.024312	0.203496	21.14	-82.32	32.27	-0.1536	0.3129	-0.2803	
0.116998	-1.051518	0.193858	26.88	-79.73	39.97	-0.1549	0.3097	-0.2865	
0.091134	-1.008208	0.167628	29.68	-80.22	47.67	-0.168	0.3053	-0.2788	
0.11041	-0.964166	0.156892	29.05	-86.73	52.85	-0.1665	0.3098	-0.2879	
0.13298	-0.950136	0.166652	24.36	-94.57	55.16	-0.1636	0.3174	-0.2893	
0.181658	-0.9516	0.19764	22.68	-100.73	55.02	-0.1696	0.31	-0.2696	
0.205448	-0.953674	0.211548	22.12	-100.24	52.57	-0.1739	0.3115	-0.2756	
0.196298	-0.966484	0.225334	21.56	-96.88	51.38	-0.1738	0.3084	-0.2787	
0.174826	-0.951844	0.24888	22.26	-86.1	51.87	-0.1769	0.3132	-0.2633	
0.185684	-0.930128	0.276086	21.49	-81.69	49.21	-0.1827	0.3101	-0.2664	
0.204716	-0.933788	0.261934	19.6	-72.52	50.26	-0.1813	0.3163	-0.2587	
0.15006	-0.896212	0.271206	16.94	-55.79	46.48	-0.1856	0.3178	-0.2693	
0.154086	-0.90707	0.3172	14.28	-55.23	44.52	-0.1872	0.3241	-0.254	
0.160308	-0.9333	0.31964	13.37	-49.56	42.14	-0.1769	0.3133	-0.2588	
0.153232	-0.924882	0.326594	12.18	-38.29	41.16	-0.1872	0.3241	-0.2509	
0.102602	-0.887062	0.311954	8.68	-30.8	39.48	-0.1844	0.3242	-0.2449	
0.055632	-0.899018	0.333914	1.26	-44.31	38.29	-0.177	0.3088	-0.2512	
0.093818	-0.917684	0.333426	-3.78	-53.48	37.94	-0.1844	0.3241	-0.2479	
0.09357399	-0.924394	0.344772	-5.6	-53.13	36.4	-0.1758	0.3334	-0.2387	
0.07124799	-0.904508	0.335988	-6.37	-49	35.49	-0.186	0.3334	-0.2386	
0.068808	-0.895602	0.332084	-5.67	-45.08	31.15	-0.1802	0.3394	-0.2432	
0.061976	-0.888648	0.340502	-5.04	-41.65	26.39	-0.1803	0.3397	-0.2234	
0.086986	-0.89182	0.350994	-3.92	-37.24	22.05	-0.1861	0.3351	-0.2264	
0.080642	-0.88938	0.355264	-2.94	-29.33	16.94	-0.1702	0.3457	-0.2249	
0.067954	-0.900726	0.344284	-4.97	-24.5	13.51	-0.176	0.3426	-0.2295	
0.054656	-0.894504	0.339526	-6.72	-18.48	11.83	-0.1773	0.338	-0.2326	
0.064416	-0.911218	0.332572	-7.63	-12.46	8.82	-0.1862	0.3505	-0.2186	
0.05734	-0.905972	0.341478	-6.93	-7	6.72	-0.195	0.3506	-0.2109	
0.050142	-0.90158	0.326472	-5.11	-0.91	2.45	-0.1819	0.3505	-0.2171	
0.016836	-0.905118	0.297436	-4.62	4.34	-1.61	-0.1791	0.352	-0.2126	
0.007686	-0.933544	0.299754	-4.55	5.46	-3.5	-0.1805	0.352	-0.2156	
0.031598	-0.9455	0.301706	-4.76	7.91	-4.34	-0.1877	0.352	-0.2186	
0.02806	-0.962458	0.289262	-5.95	10.43	-4.69	-0.1819	0.3474	-0.2172	
-0.00122	-0.960384	0.26962	-4.69	13.93	-4.2	-0.1848	0.3475	-0.2141	
-0.02379	-0.928786	0.267058	-3.99	14.28	-3.57	-0.1847	0.3428	-0.2233	
-0.006466	-0.923662	0.267546	-5.04	12.39	-3.85	-0.1835	0.3582	-0.2125	
0.011224	-0.941352	0.276696	-6.37	12.11	-5.04	-0.1862	0.3474	-0.2187	
0.030866	-0.940498	0.281698	-6.02	14.84	-6.3	-0.1745	0.3456	-0.2325	
0.027816	-0.951356	0.27755	-4.13	18.97	-8.68	-0.1833	0.3595	-0.2292	
0.022692	-0.95221	0.265472	-4.2	20.58	-9.45	-0.1833	0.3489	-0.2202	
0.031232	-0.940254	0.268034	-4.13	22.12	-9.52	-0.1761	0.3443	-0.2157	
0.07076	-0.909876	0.285602	-5.88	23.52	-9.45	-0.1761	0.3443	-0.2157	
0.1281	-0.91256	0.312442	-10.43	32.34	-13.58	-0.1848	0.352	-0.2186	
0.118584	-0.941962	0.28914	-10.5	40.95	-16.87	-0.1789	0.3488	-0.2233	
0.09089	-0.962458	0.260104	-6.79	49.28	-19.46	-0.1747	0.3534	-0.2202	
0.08479	-0.934276	0.267546	-3.01	54.11	-24.85	-0.173	0.3578	-0.2415	
0.088572	-0.873642	0.279868	-4.97	53.55	-23.03	-0.1744	0.3365	-0.2341	
0.125172	-0.86071	0.271694	-9.45	54.88	-25.55	-0.1629	0.344	-0.2357	
0.12139	-0.917196	0.216428	-12.6	58.87	-32.83	-0.1687	0.3471	-0.2341	
0.143106	-1.05408	0.291092	-11.27	53.83	-34.58	-0.1673	0.3426	-0.228	
0.122	-0.99064	0.259616	-7.77	65.1	-36.05	-0.1672	0.344	-0.2402	
0.060268	-0.893772	0.232166	-9.24	70	-33.88	-0.1583	0.3316	-0.2496	
0.043432	-0.935984	0.188978	-13.09	73.08	-34.09	-0.1599	0.3423	-0.2464	
-0.00122	-0.987956	0.175436	-11.69	82.6	-38.08	-0.1584	0.3377	-0.2465	
-0.037942	-1.003572	0.20008	-8.82	80.5	-40.67	-0.154	0.3331	-0.2511	
0.019886	-0.987834	0.21655	-9.45	71.33	-38.64	-0.1611	0.3346	-0.2587	
0.085888	-0.951234	0.224358	-11.83	64.26	-37.03	-0.1524	0.3329	-0.2618	
0.10248	-0.956236	0.22204	-12.18	64.26	-38.85	-0.1525	0.33	-0.2512	
0.098088	-0.992714	0.193248	-9.45	72.8	-42.35	-0.151	0.3314	-0.2603	
0.021716	-0.975146	0.146034	-1.61	83.23	-42.91	-0.1465	0.3343	-0.2695	
0.017446	-1.004914	0.149816	2.03	76.58	-44.52	-0.1393	0.3221	-0.2651	
0.072102	-1.001986	0.184952	2.66	66.5	-40.95	-0.1508	0.3266	-0.2756	
0.112972	-0.991982	0.21045	1.33	62.51	-37.73	-0.1347	0.3203	-0.2835	
0.132736	-0.970144	0.236436	0.91	61.25	-34.02	-0.1407	0.3236	-0.2666	
0.146522	-0.937448	0.246074	-0.21	63.98	-30.38	-0.1391	0.3295	-0.2833	
0.145668	-0.928786	0.218502	-0.28	65.59	-27.58	-0.1347	0.3158	-0.2835	
0.131272	-0.925248	0.208864	-2.45	66.29	-27.37	-0.1289	0.3187	-0.2897	
0.124196	-0.930128	0.218868	-2.17	64.19	-27.86	-0.1276	0.3234	-0.2774	
0.121512	-0.952942	0.226066	-3.08	61.67	-26.6	-0.1202	0.3202	-0.2867	
0.122854	-0.958554	0.233264	-5.04	59.57	-24.57	-0.1244	0.3201	-0.3004	
0.146034	-0.951112	0.240706	-8.54	56.77	-21.49	-0.1187	0.3126	-0.2853	
0.15067	-0.950624	0.237412	-10.22	56.77	-18.55	-0.1084	0.3199	-0.3051	
0.135664	-0.94245	0.22875	-10.64	57.68	-16.59	-0.1099	0.3184	-0.3036	
0.145058	-0.929152	0.235826	-12.04	55.58	-15.96	-0.0998	0.3154	-0.2946	
0.148718	-0.922198	0.247294	-12.88	55.51	-18.06	-0.0968	0.3198	-0.3067	
0.16409	-0.929762	0.249002	-14.07	57.61	-19.6	-0.0954	0.3168	-0.3053	
0.172996	-0.93208	0.227408	-14.7	62.23	-19.25	-0.0896	0.3168	-0.3038	
0.162626	-0.936838	0.233874	-15.96	65.1	-21.98	-0.0866	0.3197	-0.3114	
0.155428	-0.933422	0.233142	-18.27	67.55	-22.4	-0.0824	0.3259	-0.3038	
0.177876	-0.929396	0.22448	-21.84	67.48	-22.12	-0.0838	0.3182	-0.3038	
0.193736	-0.931836	0.197152	-24.78	69.37	-24.64	-0.068	0.3304	-0.3023	
0.151036	-0.914024	0.196176	-29.54	64.05	-27.02	-0.0636	0.3258	-0.3009	
0.184464	-0.904508	0.20008	-30.8	57.05	-27.09	-0.07229999	0.3289	-0.3023	
0.199714	-0.911584	0.20557	-30.03	60.2	-30.24	-0.0607	0.3257	-0.3024	
0.182146	-0.935008	0.194346	-28.07	68.95	-33.25	-0.0608	0.3335	-0.2902	
0.151768	-0.949526	0.166042	-25.76	74.34	-31.99	-0.0564	0.338	-0.3008	
0.10126	-0.930128	0.117852	-20.16	64.61	-32.83	-0.0493	0.3426	-0.2917	
0.138958	-0.911218	0.14396	-18.76	56.28	-36.61	-0.0479	0.3411	-0.2856	
0.141276	-0.944036	0.177388	-22.68	65.31	-41.51	-0.0493	0.3396	-0.2871	
0.120048	-0.985638	0.172996	-26.88	73.22	-37.03	-0.042	0.3456	-0.2948	
0.08686399	-0.9821	0.132248	-23.03	72.59	-23.8	-0.032	0.3472	-0.2842	
0.139812	-0.95831	0.149328	-23.45	62.93	-26.46	-0.0336	0.3549	-0.2749	
0.135664	-0.968436	0.151524	-23.45	65.31	-27.3	-0.0235	0.3504	-0.2675	
0.10919	-0.980148	0.152134	-25.9	64.26	-23.38	-0.0249	0.3564	-0.2719	
0.071736	-0.99979	0.143838	-25.55	60.97	-20.23	-0.0264	0.3549	-0.272	
0.063806	-1.01565	0.138714	-22.89	53.27	-16.59	-0.0206	0.3609	-0.2765	
0.051606	-1.010526	0.141276	-17.99	45.78	-12.25	-0.0177	0.364	-0.2719	
0.075396	-0.972096	0.134444	-14.56	37.73	-7.49	-0.022	0.3595	-0.2719	
0.102114	-0.964898	0.1342	-14.21	31.22	-6.72	-0.0033	0.3777	-0.2689	
0.09333	-0.985394	0.1342	-12.95	24.92	-7.07	-0.0047	0.3624	-0.2721	
0.089914	-0.971974	0.14152	-10.64	18.13	-6.44	-0.0047	0.367	-0.269	
0.124196	-0.97234	0.138714	-9.45	10.99	-3.78	-0.0119	0.364	-0.2689	
0.12078	-0.977952	0.131516	-7.91	5.74	-2.73	-0.0149	0.3626	-0.2644	
0.119804	-0.972218	0.140544	-5.81	1.05	-1.33	-0.0019	0.3702	-0.2629	
0.148108	-0.96502	0.138714	-5.18	-7.35	3.01	-0.0077	0.3778	-0.2642	
0.175314	-0.948184	0.148108	-4.69	-10.08	3.85	-0.0106	0.3687	-0.2628	
0.169214	-0.963068	0.150426	-3.92	-12.18	4.13	0.0008	0.3657	-0.2523	
0.182634	-0.95831	0.147254	-2.87	-12.39	3.99	-0.0062	0.3747	-0.2658	
0.195322	-0.948062	0.143838	-3.08	-12.18	3.43	-0.012	0.3687	-0.2628	
0.188124	-0.963068	0.151158	-2.52	-12.67	3.01	-0.0106	0.3626	-0.2568	
0.17507	-0.979904	0.138592	-0.63	-12.32	3.71	-0.0106	0.3687	-0.2643	
0.174704	-0.976122	0.135908	0.35	-13.02	5.11	-0.012	0.3748	-0.2658	
0.16592	-0.965996	0.12688	0.84	-12.81	5.74	-0.0049	0.3642	-0.2507	
0.146888	-0.962458	0.132248	0.91	-14.14	6.09	-0.0106	0.3733	-0.2643	
0.087962	-0.97478	0.128222	2.94	-15.12	4.2	-0.012	0.3732	-0.2658	
0.031964	-1.004304	0.114802	7.84	-18.83	2.73	-0.0136	0.3779	-0.2581	
-0.001098	-1.032974	0.04941	11.76	-25.27	2.94	-0.0106	0.3687	-0.2613	
0.046482	-1.0126	0.052704	14	-36.96	6.44	-0.025	0.3642	-0.2627	
0.098088	-0.991372	0.070638	14.84	-45.08	8.61	-0.0121	0.3702	-0.2612	
0.080398	-0.998204	0.076494	17.36	-49.35	9.31	-0.0281	0.3735	-0.2534	
0.033672	-1.026508	0.072224	20.58	-53.34	10.5	-0.0336	0.3565	-0.2719	
0.052948	-1.028826	0.04148	25.41	-59.99	16.17	-0.0351	0.3626	-0.2764	
0.12566	-0.977952	0.034648	28.77	-69.23	20.72	-0.0364	0.3594	-0.284	
0.157624	-0.969778	0.037454	30.52	-76.09	20.09	-0.0379	0.3564	-0.281	
0.170678	-0.97661	0.096014	29.4	-81.97	20.23	-0.0422	0.3489	-0.2764	
0.167262	-1.005402	0.113338	27.37	-82.46	25.13	-0.061	0.3458	-0.2839	
0.17751	-1.03517	0.159454	31.71	-91.14	39.97	-0.061	0.3459	-0.2793	
0.196298	-1.023092	0.149572	35.42	-92.82	58.73	-0.0595	0.3382	-0.2855	
0.20557	-0.88999	0.077592	32.27	-99.47	71.26	-0.0609	0.3473	-0.293	
0.358924	-0.778604	0.174094	29.75	-108.71	53.69	-0.07099999	0.3382	-0.2885	
0.327814	-0.870836	0.228018	23.03	-101.01	26.11	-0.0739	0.3337	-0.287	
0.203618	-0.967826	0.23973	25.41	-84.49	17.29	-0.0841	0.3353	-0.2869	
0.156404	-0.961116	0.243878	29.47	-75.04	14.21	-0.0825	0.3245	-0.2885	
0.127612	-0.962946	0.238998	32.55	-69.16	14.7	-0.0926	0.3321	-0.3021	
0.117364	-0.956968	0.182512	36.12	-67.2	16.66	-0.1101	0.3278	-0.2882	
0.182146	-0.895724	0.213012	33.25	-68.6	15.47	-0.1143	0.3231	-0.2974	
0.266936	-0.887672	0.293044	25.62	-62.16	11.83	-0.1086	0.3216	-0.2914	
0.267302	-0.870104	0.30866	21.21	-51.38	10.01	-0.1172	0.3216	-0.3004	
0.25193	-0.879498	0.29707	18.13	-43.05	6.16	-0.1201	0.3079	-0.2944	
0.236436	-0.892918	0.266448	16.38	-34.16	3.01	-0.1243	0.3093	-0.3035	
0.223992	-0.879864	0.257786	14.77	-28.84	0.42	-0.1258	0.3109	-0.2989	
0.235094	-0.914024	0.285358	13.37	-24.5	-4.62	-0.136	0.3004	-0.2913	
0.2257	-0.926468	0.29463	14.07	-18.27	-7.14	-0.1446	0.3034	-0.3004	
0.212036	-0.914268	0.298046	14.35	-12.67	-6.23	-0.1359	0.2957	-0.2975	
0.21228	-0.90951	0.289262	13.51	-9.8	-6.51	-0.1286	0.2956	-0.3037	
0.220698	-0.909266	0.282796	10.71	-9.52	-6.37	-0.149	0.3034	-0.3003	
0.221308	-0.891454	0.27999	6.37	-8.47	-5.88	-0.1519	0.305	-0.2972	
0.224968	-0.892186	0.280722	2.73	-7.84	-5.11	-0.1518	0.2973	-0.2988	
0.247172	-0.89731	0.293166	0	-7.63	-4.41	-0.1475	0.3049	-0.3064	
0.255712	-0.897676	0.301706	-1.26	-5.11	-5.18	-0.1417	0.2972	-0.302	
0.240706	-0.912438	0.293654	-0.63	-0.7	-6.72	-0.149	0.2989	-0.2927	
0.226676	-0.929884	0.281332	1.89	1.54	-6.44	-0.1402	0.2956	-0.3081	
0.23973	-0.927932	0.294508	3.36	1.47	-4.55	-0.1402	0.2958	-0.2974	
0.251808	-0.918904	0.298656	3.71	3.08	-2.73	-0.1504	0.2973	-0.2988	
0.242658	-0.907802	0.287188	3.64	6.51	-2.52	-0.1503	0.2897	-0.3005	
0.22509	-0.907314	0.283406	3.64	9.31	-3.36	-0.1502	0.2926	-0.3111	
0.214476	-0.91012	0.284626	3.57	10.15	-4.13	-0.1402	0.2927	-0.3005	
0.224114	-0.915488	0.291336	3.08	10.5	-5.25	-0.1372	0.2864	-0.3082	
0.221796	-0.920612	0.284138	2.87	12.46	-5.88	-0.1518	0.2897	-0.302	
0.208742	-0.917806	0.279258	1.96	13.16	-4.62	-0.1402	0.3078	-0.311	
0.215574	-0.919392	0.289994	0.91	11.34	-3.36	-0.1488	0.2911	-0.3066	
0.218502	-0.914268	0.284016	0.35	11.48	-3.08	-0.1387	0.2941	-0.3051	
0.205936	-0.913902	0.282918	0.28	11.55	-4.13	-0.1416	0.2941	-0.3112	
0.187148	-0.925126	0.27694	0.14	12.95	-5.18	-0.1329	0.2956	-0.3067	
0.17385	-0.932446	0.278648	0.84	12.25	-4.34	-0.1402	0.2973	-0.2989	
0.174582	-0.926346	0.276696	1.26	11.76	-2.87	-0.1401	0.2864	-0.3113	
0.180072	-0.9211	0.281576	1.05	10.85	-1.82	-0.1285	0.2909	-0.3113	
0.178242	-0.922564	0.280112	1.61	10.78	-1.12	-0.1343	0.2864	-0.3113	
0.188124	-0.916464	0.29158	1.47	9.24	-0.56	-0.1387	0.2956	-0.3127	
0.188124	-0.92476	0.304146	1.75	8.82	-0.56	-0.1372	0.2925	-0.3128	
0.186904	-0.922808	0.307562	2.66	9.17	1.33	-0.1313	0.2741	-0.3115	
0.195078	-0.911584	0.312564	3.5	9.24	3.01	-0.1356	0.2878	-0.322	
0.192638	-0.900848	0.31293	3.57	10.36	3.85	-0.1285	0.2971	-0.3097	
0.19154	-0.901214	0.320738	3.36	10.57	2.94	-0.127	0.2908	-0.3205	
0.17141	-0.90768	0.323544	3.43	10.92	2.1	-0.127	0.2939	-0.3189	
0.164944	-0.915122	0.33916	3.5	9.17	2.8	-0.1255	0.2832	-0.316	
0.1525	-0.920856	0.325862	4.34	8.61	5.95	-0.1269	0.2892	-0.3251	
0.166652	-0.8967	0.319518	4.48	7.7	10.22	-0.1183	0.2893	-0.316	
0.17202	-0.882304	0.330986	2.66	7.63	10.5	-0.1226	0.2877	-0.3251	
0.14884	-0.900726	0.334646	1.19	8.26	8.96	-0.124	0.2861	-0.3267	
0.119804	-0.920368	0.325984	1.47	8.47	10.36	-0.1168	0.2861	-0.3237	
0.126758	-0.928542	0.330742	2.31	6.72	13.65	-0.1154	0.2908	-0.3145	
0.135786	-0.92354	0.319396	1.61	5.74	17.08	-0.1124	0.2876	-0.3268	
0.116998	-0.916952	0.29036	1.89	7.07	17.99	-0.1022	0.289	-0.3284	
0.120414	-0.907802	0.305854	0.7	2.52	17.22	-0.1038	0.2876	-0.3192	
0.123708	-0.897432	0.312686	-0.77	-0.28	14.07	-0.1066	0.2937	-0.3252	
0.124318	-0.897188	0.31842	-2.24	-1.26	10.15	-0.1066	0.2891	-0.3238	
0.130174	-0.896456	0.323178	-3.08	-1.82	6.65	-0.0979	0.2936	-0.3284	
0.114558	-0.933056	0.328912	-2.17	-1.26	2.73	-0.1022	0.286	-0.3269	
0.0854	-0.937936	0.30927	0.56	1.05	2.1	-0.1009	0.2968	-0.3192	
0.078812	-0.936472	0.301218	2.45	0.77	2.73	-0.0994	0.2952	-0.3222	
0.095648	-0.936228	0.311466	3.15	-0.91	3.78	-0.0993	0.292	-0.3329	
0.106506	-0.921954	0.324276	2.94	-1.19	4.76	-0.1081	0.2815	-0.3208	
0.105408	-0.91256	0.323788	2.59	-1.26	4.55	-0.1067	0.2937	-0.3222	
0.107116	-0.90707	0.328912	2.03	-1.96	3.71	-0.09649999	0.2876	-0.3193	
0.112606	-0.903166	0.328546	1.89	-2.52	2.66	-0.1007	0.2783	-0.33	
0.112362	-0.908778	0.335866	1.89	-2.66	1.33	-0.1095	0.2875	-0.3298	
0.110288	-0.908412	0.33733	2.38	-2.03	0.35	-0.09079999	0.3012	-0.3238	
0.113582	-0.908412	0.339892	2.8	-1.12	-0.7	-0.0979	0.2815	-0.3194	
0.110776	-0.903654	0.33794	2.03	-0.21	-1.19	-0.1052	0.2922	-0.3207	
0.112972	-0.909266	0.34343	1.54	0.07	-1.89	-0.1052	0.2906	-0.3253	
0.113582	-0.907558	0.344162	1.75	0.56	-2.24	-0.1008	0.2936	-0.3268	
0.110532	-0.900604	0.34282	2.24	0.56	-2.66	-0.1007	0.2859	-0.3315	
0.10736	-0.89853	0.343552	3.01	0	-3.5	-0.1008	0.292	-0.3314	
0.105896	-0.895968	0.347578	3.29	-0.77	-4.34	-0.0994	0.2952	-0.3222	
0.110898	-0.901458	0.357216	2.73	-2.03	-5.39	-0.0993	0.2844	-0.3315	
0.108214	-0.909144	0.354288	2.94	-2.45	-5.32	-0.1022	0.2859	-0.3315	
0.109678	-0.901824	0.35136	3.22	-2.52	-3.99	-0.09779999	0.2844	-0.333	
0.108702	-0.895968	0.348432	2.73	-3.01	-3.64	-0.1035	0.2828	-0.3406	
0.11224	-0.89487	0.353922	1.75	-4.69	-3.85	-0.1022	0.292	-0.3329	
0.118462	-0.895114	0.36051	1.12	-6.09	-4.27	-0.1152	0.283	-0.3314	
0.12505	-0.90341	0.359412	1.12	-6.3	-3.99	-0.1108	0.2813	-0.3421	
0.135664	-0.902678	0.359656	1.33	-5.88	-2.52	-0.108	0.2891	-0.3283	
0.15128	-0.893894	0.361852	0.28	-4.55	-1.82	-0.1051	0.2814	-0.3315	
0.155306	-0.8906	0.364902	-0.91	-4.13	-1.89	-0.1152	0.2876	-0.3313	
0.150914	-0.8845	0.366244	-1.82	-2.59	-2.59	-0.1137	0.2753	-0.333	
0.145302	-0.88877	0.361974	-2.66	-1.33	-3.64	-0.1109	0.2785	-0.3223	
0.15067	-0.89304	0.358192	-2.94	-1.26	-4.48	-0.1036	0.2798	-0.333	
0.150914	-0.902556	0.349652	-3.36	-0.63	-5.46	-0.1109	0.2891	-0.3298	
0.148474	-0.906948	0.341112	-3.15	0.7	-5.25	-0.1166	0.2829	-0.3344	
0.149084	-0.90707	0.341478	-2.87	1.4	-5.18	-0.108	0.28	-0.3223	
0.142862	-0.909144	0.339892	-2.66	1.61	-5.39	-0.121	0.283	-0.3344	
0.14396	-0.904996	0.336476	-2.66	0.91	-4.97	-0.1138	0.2814	-0.3299	
0.150914	-0.902312	0.335134	-2.52	0.63	-4.69	-0.1167	0.283	-0.3268	
0.152378	-0.913414	0.335256	-2.66	0.35	-4.76	-0.1052	0.2892	-0.3192	
0.157258	-0.90951	0.335866	-2.45	0.42	-3.78	-0.1167	0.2814	-0.3314	
0.147376	-0.912438	0.331718	-2.66	0.91	-3.08	-0.1239	0.283	-0.3298	
0.152378	-0.909388	0.333304	-2.87	-0.14	-1.89	-0.1138	0.2906	-0.3313	
0.158234	-0.90585	0.33245	-2.94	-0.98	-1.68	-0.1167	0.28	-0.3222	
0.156648	-0.910364	0.335866	-2.1	-1.12	-1.96	-0.1182	0.2815	-0.3237	
0.15799	-0.906826	0.33794	-1.54	-0.7	-1.75	-0.1181	0.283	-0.3313	
0.155916	-0.911096	0.336354	-1.4	-0.56	-1.47	-0.121	0.283	-0.3313	
0.157014	-0.909876	0.336232	-1.33	-0.49	-0.63	-0.1182	0.2846	-0.3237	
0.15982	-0.906582	0.335622	-1.47	-0.7	0.07	-0.1182	0.2892	-0.3267	
0.163846	-0.902922	0.334768	-1.75	-0.7	0.07	-0.1182	0.28	-0.3222	
0.162992	-0.90463	0.338916	-1.89	-0.56	0	-0.111	0.2907	-0.3176	
0.164578	-0.900116	0.331108	-2.38	-1.12	-0.21	-0.1182	0.2906	-0.3328	
0.167262	-0.905728	0.334646	-1.89	-1.75	-0.91	-0.1153	0.2831	-0.3192	
0.162504	-0.912438	0.335378	-1.33	-0.98	-0.77	-0.1124	0.2997	-0.3358	
0.160918	-0.908778	0.331352	-0.98	-0.35	-0.07	-0.1152	0.2723	-0.3254	
0.153354	-0.915854	0.327326	-0.98	0.07	0.21	-0.1153	0.2815	-0.3268	
0.151402	-0.911706	0.324032	-0.77	-0.35	0.98	-0.1182	0.2862	-0.3222	
0.155672	-0.904996	0.32696	-0.77	-0.98	1.12	-0.1239	0.283	-0.3298	
0.154086	-0.908534	0.329278	-0.84	-1.05	0.63	-0.1153	0.2861	-0.3222	
0.153598	-0.910242	0.331718	-0.77	-0.91	0.63	-0.1182	0.2846	-0.3237	
0.153598	-0.912194	0.33123	-0.49	-0.7	1.05	-0.1111	0.2908	-0.3145	
0.155306	-0.910242	0.33123	-0.42	-0.42	1.61	-0.1196	0.2845	-0.3328	
0.15494	-0.908778	0.330986	-0.35	-0.07	1.54	-0.111	0.2937	-0.3282	
0.150182	-0.904752	0.330254	-0.35	0.28	1.4	-0.1211	0.2938	-0.3251	
0.14518	-0.899018	0.334524	-0.84	0	0.91	-0.1138	0.283	-0.3283	
0.138836	-0.899018	0.34221	-1.54	-0.21	0.35	-0.1168	0.2923	-0.3206	
0.14701	-0.897188	0.344406	-2.1	-0.49	-0.21	-0.1226	0.2908	-0.3175	
0.151646	-0.901092	0.340258	-2.59	0	-0.91	-0.1095	0.2846	-0.3207	
0.155794	-0.900116	0.338794	-2.8	0.7	-1.12	-0.1284	0.2999	-0.3265	
0.15433	-0.910486	0.3355	-2.73	1.4	-1.33	-0.1182	0.2891	-0.3297	
0.158844	-0.912926	0.332084	-2.52	1.4	-0.91	-0.1196	0.2845	-0.3298	
0.162138	-0.91378	0.328424	-2.17	1.75	-0.7	-0.1139	0.2922	-0.3252	
0.155794	-0.913536	0.32696	-1.54	2.17	-0.35	-0.1168	0.2846	-0.3191	
0.152744	-0.908778	0.32696	-1.19	1.75	0.21	-0.1211	0.2831	-0.3206	
0.153964	-0.90585	0.325008	-1.12	1.33	0.42	-0.124	0.2891	-0.3312	
0.15921	-0.906948	0.321226	-0.98	1.05	-0.28	-0.1154	0.2938	-0.3206	
0.15067	-0.915976	0.32269	-0.77	1.19	-0.56	-0.1212	0.2984	-0.3266	
0.152744	-0.913414	0.318542	-0.56	0.77	-0.28	-0.1168	0.2907	-0.3236	
0.158966	-0.91439	0.317566	-0.42	0.21	-0.21	-0.1211	0.2938	-0.3266	
0.159454	-0.914146	0.323666	-0.07	-0.49	-0.35	-0.1138	0.2861	-0.3283	
0.151402	-0.916098	0.322446	0.07	0.42	-0.21	-0.1138	0.2846	-0.3253	
0.142252	-0.911828	0.322812	-0.14	0.07	0.77	-0.1239	0.2906	-0.3342	
0.149572	-0.90341	0.323422	-0.49	-0.77	1.33	-0.1153	0.2922	-0.3252	
0.151402	-0.904264	0.326838	-0.91	-1.33	0.84	-0.1195	0.2799	-0.3329	
0.147498	-0.909022	0.328058	-0.84	-1.4	0	-0.1197	0.2908	-0.3206	
0.1464	-0.908168	0.329522	-0.77	-1.4	-0.21	-0.1154	0.2923	-0.3191	
0.150304	-0.91012	0.333426	-1.12	-1.19	-0.21	-0.1153	0.2876	-0.3267	
0.152866	-0.913048	0.33245	-1.05	-0.98	0.07	-0.1167	0.2754	-0.3223	
0.153232	-0.911218	0.332206	-0.91	-0.63	0.42	-0.1211	0.2846	-0.3221	
0.15128	-0.908046	0.328302	-0.84	-0.21	0.77	-0.1183	0.2923	-0.3206	
0.149328	-0.90646	0.3294	-0.77	0	0.84	-0.1139	0.2953	-0.3236	
0.156038	-0.900238	0.331718	-1.12	-0.98	0.91	-0.1211	0.2923	-0.3251	
0.154574	-0.903532	0.335012	-1.47	-0.84	0.35	-0.1284	0.2908	-0.322	
0.15494	-0.901214	0.333548	-2.38	-0.77	0.35	-0.1139	0.2877	-0.3207	
0.156038	-0.892918	0.336842	-3.43	-1.05	0.49	-0.1168	0.2907	-0.3206	
0.168238	-0.889624	0.35075	-5.88	-3.08	0.14	-0.1153	0.2922	-0.3252	
0.173606	-0.899506	0.348188	-9.03	-3.36	-2.24	-0.1227	0.2985	-0.3143	
0.078202	-0.929518	0.28121	-10.57	-3.22	0.07	-0.1154	0.2862	-0.3176	
0.004148	-0.94977	0.1952	-6.58	-0.35	7.7	-0.1154	0.2969	-0.3175	
0.17507	-0.95099	0.335988	-0.49	-17.08	13.44	-0.1211	0.2938	-0.3266	
0.244122	-0.898652	0.411872	5.39	-9.52	14.21	-0.1227	0.2833	-0.3099	
0.210206	-0.871446	0.357826	9.31	1.05	12.74	-0.1154	0.2968	-0.3236	
0.188734	-0.890234	0.333914	7.91	1.47	4.13	-0.1211	0.2877	-0.3206	
0.167262	-0.89914	0.335744	5.39	2.1	-3.15	-0.1125	0.2999	-0.3236	
0.170556	-0.889868	0.335866	1.47	2.66	-4.69	-0.1198	0.2923	-0.3175	
0.15006	-0.916342	0.33672	-0.91	4.27	-4.83	-0.1168	0.2952	-0.3282	
0.144936	-0.885476	0.33733	-2.52	6.93	-0.07	-0.1139	0.2922	-0.3252	
0.17141	-0.873276	0.340624	-5.04	7.42	-1.89	-0.1255	0.2923	-0.3205	
0.165188	-0.904752	0.336598	-7.84	8.54	-6.44	-0.1095	0.2967	-0.3267	
0.132248	-0.939522	0.294996	-8.61	10.08	-8.61	-0.1154	0.2954	-0.316	
0.100772	-0.959408	0.28426	-8.33	8.33	-6.58	-0.1182	0.2953	-0.3281	
0.099674	-0.949526	0.290482	-6.44	5.39	-2.87	-0.1067	0.2998	-0.3267	
0.11956	-0.932446	0.293044	-5.11	1.47	-0.28	-0.1125	0.2907	-0.3222	
0.14152	-0.918294	0.312442	-4.69	-0.63	-0.28	-0.114	0.2969	-0.316	
0.14945	-0.909022	0.311466	-4.34	0.28	-1.61	-0.1155	0.2969	-0.3144	
0.146766	-0.906826	0.306952	-3.85	0.98	-3.5	-0.1097	0.3045	-0.3175	
0.130052	-0.919514	0.289018	-2.45	2.1	-4.62	-0.1111	0.2938	-0.316	
0.142374	-0.916952	0.307562	-1.33	-0.07	-4.27	-0.111	0.2907	-0.3206	
0.155794	-0.918904	0.308782	-0.77	-0.7	-3.57	-0.114	0.2939	-0.313	
0.180194	-0.914756	0.311222	-0.28	-3.71	-2.38	-0.1112	0.2969	-0.3099	
0.159942	-0.929396	0.261202	1.05	-1.61	-4.27	-0.127	0.2985	-0.3204	
0.164822	-0.943548	0.286822	1.26	-3.57	-3.99	-0.1124	0.2922	-0.3267	
0.183	-0.930494	0.319518	3.71	-3.36	-3.43	-0.1183	0.2969	-0.3205	
