Sensor string: A
Serial number: 1970-01-0000
Firmware version: 2.015
Hardware version: 2.2
Calibration quality: 5
ax	ay	az	gx	gy	gz	mx	my	mz

-0.016348	0.75213	0.646844	1.68	-0.63	0.49	-0.0619	-0.1933	-0.4841	Reference
-0.016958	0.753716	0.648186	2.38	-0.84	-0.07	-0.0635	-0.1827	-0.4917	
-0.019154	0.757376	0.643184	1.75	-0.7	-0.21	-0.0721	-0.1901	-0.4825	
-0.018544	0.758352	0.648918	2.87	-1.33	-0.21	-0.0634	-0.1963	-0.4795	
-0.019154	0.758474	0.647576	2.52	-1.33	-0.35	-0.0664	-0.1887	-0.4779	
-0.018666	0.759206	0.64965	3.22	-1.12	-0.7	-0.065	-0.1796	-0.4886	
-0.017568	0.747738	0.658312	4.41	-0.84	-0.63	-0.0707	-0.1932	-0.4779	
-0.01647	0.743956	0.654408	5.18	0	-0.56	-0.0621	-0.1842	-0.4764	
-0.000854	0.738466	0.648552	4.2	-0.14	-1.47	-0.0721	-0.1901	-0.4809	
-0.024278	0.749324	0.650382	7.7	2.1	-0.28	-0.0532	-0.1904	-0.4841	
-0.026108	0.747006	0.632692	4.83	4.69	-0.14	-0.059	-0.1919	-0.4841	
0.003538	0.779458	0.620614	8.26	-0.14	-2.8	-0.0692	-0.1917	-0.4871	
0.012078	0.80032	0.614148	6.79	-2.03	-1.33	-0.0605	-0.1918	-0.478	
-0.011224	0.805932	0.610366	2.73	-0.56	0.91	-0.0648	-0.1948	-0.4886	
-0.03416	0.809714	0.615734	1.33	1.89	0.98	-0.0661	-0.2009	-0.4932	
-0.046726	0.801174	0.604876	-0.98	3.43	-0.63	-0.0589	-0.2055	-0.4811	
-0.044896	0.79788	0.614514	1.19	2.45	-3.08	-0.0647	-0.1979	-0.4871	
-0.03843	0.793366	0.618052	-0.63	2.52	-3.71	-0.0576	-0.1888	-0.4795	
-0.022448	0.757498	0.59475	-5.18	3.78	-3.08	-0.0619	-0.1949	-0.4825	
-0.011834	0.763598	0.61549	2.59	0.21	-3.92	-0.0619	-0.1964	-0.4841	
-0.021106	0.768112	0.62098	3.57	-0.07	-2.52	-0.0618	-0.204	-0.4826	
-0.02013	0.768112	0.627568	3.5	-0.07	-1.12	-0.059	-0.1979	-0.478	
-0.019642	0.76616	0.625006	1.75	-0.63	0	-0.0517	-0.1996	-0.4811	
-0.023668	0.776896	0.628788	2.03	-1.89	0.35	-0.0635	-0.1887	-0.481	
-0.026474	0.786656	0.631716	1.19	-1.33	0.77	-0.0546	-0.195	-0.4872	
-0.023424	0.784216	0.629398	0.21	-1.26	0.84	-0.0649	-0.1903	-0.4856	
-0.02806	0.79117	0.616222	-0.14	-1.4	0.63	-0.0604	-0.1949	-0.4856	
-0.033794	0.799466	0.61854	0.35	-1.47	0.63	-0.0663	-0.1948	-0.4825	
-0.033062	0.792634	0.613172	-0.07	-1.12	0.56	-0.0574	-0.2071	-0.4795	
-0.028792	0.780556	0.61122	-0.91	-0.28	0.77	-0.0488	-0.1951	-0.4857	
-0.028304	0.781166	0.618052	0.35	0.7	1.12	-0.0633	-0.1979	-0.4841	
-0.031964	0.77592	0.620004	-0.28	1.19	1.33	-0.0633	-0.1964	-0.4887	
-0.031598	0.76677	0.61976	-1.05	0.98	1.33	-0.0619	-0.1933	-0.4795	
-0.029524	0.76555	0.623908	-0.84	0.84	1.12	-0.0648	-0.1994	-0.4795	
-0.025376	0.761646	0.629642	-1.54	0.42	1.68	-0.0662	-0.1993	-0.4764	
-0.018666	0.765062	0.637816	-0.49	-0.35	1.75	-0.0576	-0.1949	-0.481	
-0.020618	0.771284	0.637328	-1.54	-0.84	1.96	-0.0589	-0.201	-0.4841	
-0.022692	0.776164	0.636352	-2.1	-1.12	2.17	-0.0574	-0.2056	-0.4811	
-0.019276	0.770796	0.630984	-3.71	-0.91	2.38	-0.0604	-0.1964	-0.4933	
-0.016836	0.772748	0.6283	-3.01	-0.35	2.52	-0.066	-0.21	-0.4841	
-0.022448	0.784704	0.62708	-2.73	0.07	2.87	-0.0616	-0.207	-0.4948	
-0.022448	0.792634	0.615978	-3.43	-0.91	3.08	-0.0736	-0.1871	-0.4855	
-0.0183	0.801662	0.610122	-4.13	-2.45	2.66	-0.0678	-0.1872	-0.4809	
-0.018422	0.818986	0.60512	-4.62	-3.36	2.59	-0.0619	-0.1918	-0.4871	
-0.031232	0.833626	0.606706	-4.48	-3.57	3.08	-0.0663	-0.1918	-0.4871	
-0.039894	0.829844	0.583038	-8.68	-1.82	3.29	-0.0518	-0.1904	-0.478	
-0.031232	0.826306	0.57889	-9.66	-1.89	2.66	-0.0648	-0.1918	-0.4886	
-0.041602	0.841068	0.57584	-9.8	-1.54	3.15	-0.069	-0.2024	-0.4886	
-0.04453	0.848998	0.574254	-10.71	-1.05	4.27	-0.0605	-0.1918	-0.4841	
-0.030256	0.846314	0.573278	-13.09	-1.47	4.97	-0.0751	-0.1856	-0.4885	
-0.02196	0.848754	0.574864	-14.77	-3.5	5.6	-0.0634	-0.1857	-0.4886	
-0.028914	0.851438	0.57218	-18.62	-3.01	6.79	-0.0752	-0.1764	-0.4839	
-0.035014	0.849486	0.574986	-22.05	-2.52	7.7	-0.0608	-0.1691	-0.4886	
-0.02928	0.849486	0.577792	-24.92	-2.66	8.12	-0.0622	-0.1645	-0.4962	
-0.028304	0.849974	0.57645	-29.05	-2.87	8.4	-0.0708	-0.1735	-0.5008	
-0.02379	0.8418	0.579988	-33.46	-3.08	8.68	-0.07669999	-0.1673	-0.4946	
-0.027938	0.839848	0.581818	-37.31	-3.01	8.61	-0.0724	-0.1613	-0.5007	
-0.0244	0.836066	0.585234	-44.03	-2.45	9.03	-0.07539999	-0.1507	-0.5053	
-0.027938	0.828258	0.581818	-49.28	-1.75	10.01	-0.0871	-0.1474	-0.5036	
-0.029524	0.813496	0.579256	-52.36	-3.64	9.31	-0.077	-0.143	-0.5068	
-0.03294	0.79056	0.582306	-59.92	-5.32	10.43	-0.0859	-0.1292	-0.5097	
-0.033794	0.774212	0.601216	-58.66	-9.66	8.26	-0.0875	-0.1216	-0.5066	
-0.028426	0.72407	0.61183	-65.24	-4.76	9.52	-0.0803	-0.1126	-0.5097	
-0.018056	0.692838	0.649406	-60.06	-3.43	9.66	-0.0847	-0.1065	-0.5173	
0.001464	0.66673	0.66917	-61.11	-3.64	10.92	-0.0879	-0.0882	-0.5111	
0.01281	0.61732	0.681004	-64.4	-4.69	10.43	-0.085	-0.0837	-0.5126	
0.029402	0.565104	0.691252	-69.02	-4.62	9.1	-0.0983	-0.0683	-0.5186	
0.030012	0.517768	0.6832	-72.1	-7.7	4.55	-0.0853	-0.0639	-0.5095	
0.028792	0.479094	0.707478	-68.46	-10.22	3.22	-0.0971	-0.0486	-0.5155	
0.024278	0.450058	0.731878	-63	-8.19	4.27	-0.0942	-0.0425	-0.5262	
0.05246	0.428098	0.79361	-60.9	-10.78	6.51	-0.0972	-0.0425	-0.5201	
0.064538	0.397598	0.812276	-63.7	-16.8	5.11	-0.0975	-0.0242	-0.5185	
0.100162	0.356118	0.829234	-67.97	-20.16	5.32	-0.0962	-0.0106	-0.5169	
0.122976	0.307684	0.852658	-74.69	-14.14	10.43	-0.1037	0.0046	-0.523	
0.107116	0.282796	0.85644	-77.56	-11.55	13.65	-0.095	0.009	-0.5199	
0.116632	0.252174	0.869616	-82.39	-8.89	13.93	-0.1025	0.0274	-0.526	
0.101992	0.22326	0.887306	-83.93	-9.94	13.58	-0.1013	0.0426	-0.5198	
0.099186	0.176412	0.901702	-87.29	-7.91	14.42	-0.1072	0.0472	-0.5167	
0.103212	0.120658	0.916952	-83.65	-6.51	14.63	-0.1074	0.0639	-0.5182	
0.118462	0.09076799	0.913902	-81.62	-8.26	14.14	-0.1105	0.0731	-0.5089	
0.128954	0.07076	0.92293	-79.45	-8.54	14.7	-0.105	0.0928	-0.5043	
0.126148	0.040016	0.952088	-79.24	-8.75	14.98	-0.127	0.1038	-0.5072	
0.127978	0.042456	0.983442	-70.98	-10.01	12.04	-0.114	0.1097	-0.4996	
0.147498	0.041602	0.966972	-73.78	-10.5	8.68	-0.1128	0.1279	-0.4996	
0.152012	0.014274	0.994666	-69.16	-7.49	7.35	-0.1173	0.1431	-0.5071	
0.12932	-0.021838	0.99613	-65.31	-2.59	5.39	-0.1189	0.1462	-0.4934	
0.181536	-0.064782	0.988444	-55.72	-3.64	-0.35	-0.1162	0.1553	-0.4933	
0.201544	-0.072468	1.022726	-45.15	0.14	1.89	-0.118	0.1827	-0.4933	
0.177998	-0.082106	0.99796	-49.63	3.01	3.22	-0.1268	0.1813	-0.4794	
0.161772	-0.077714	0.998448	-41.3	2.03	3.43	-0.1197	0.1919	-0.4779	
0.145302	-0.077592	1.007842	-42.07	0.63	1.82	-0.1226	0.195	-0.4779	
0.153598	-0.093818	0.997594	-43.4	1.61	1.68	-0.1198	0.1995	-0.4825	
0.150426	-0.10919	1.006744	-38.29	-1.19	1.54	-0.1127	0.2055	-0.4657	
0.150914	-0.106872	0.989664	-38.43	-0.35	2.31	-0.1186	0.2116	-0.4702	
0.153476	-0.128954	0.98515	-41.23	0.14	2.8	-0.1157	0.2131	-0.4733	
0.146278	-0.134566	0.99003	-38.92	-2.38	2.38	-0.1115	0.2222	-0.4626	
0.136884	-0.151768	1.010404	-39.55	-3.85	2.94	-0.1247	0.233	-0.467	
0.16836	-0.176656	1.017968	-38.29	-6.23	2.73	-0.1246	0.23	-0.4671	
0.176412	-0.205814	1.034804	-32.9	-3.36	3.57	-0.1132	0.242	-0.4625	
0.180804	-0.21594	1.027606	-29.54	-4.13	2.8	-0.1118	0.2389	-0.4549	
0.18422	-0.227896	1.043588	-26.39	-4.9	2.1	-0.1235	0.2437	-0.4456	
0.188978	-0.235826	1.03883	-21.21	-3.5	2.31	-0.1148	0.2436	-0.4487	
0.190076	-0.249124	1.03395	-19.74	-2.87	1.68	-0.1221	0.2482	-0.4471	
0.188246	-0.255224	1.02724	-15.82	-2.38	1.4	-0.1164	0.2512	-0.4426	
0.189222	-0.261202	1.015894	-12.53	-1.19	1.19	-0.1091	0.2541	-0.4503	
0.189832	-0.266204	1.005524	-8.68	-0.77	0.98	-0.1237	0.2543	-0.444	
0.182268	-0.262788	0.989908	-9.31	-1.47	0.63	-0.1224	0.2619	-0.4394	
0.177144	-0.257298	0.98881	-6.09	-1.75	0.21	-0.1093	0.2617	-0.4457	
0.179218	-0.255834	0.992958	-2.24	-1.47	-0.07	-0.1179	0.2558	-0.441	
0.175802	-0.243024	0.974536	-0.84	-1.33	-0.35	-0.1164	0.2512	-0.4426	
0.173118	-0.235094	0.981856	1.12	-3.78	-1.26	-0.1208	0.2573	-0.4456	
0.175314	-0.218746	0.989176	3.78	-1.82	-1.33	-0.1237	0.2513	-0.441	
0.17385	-0.206546	0.974658	4.55	-1.05	-1.19	-0.1194	0.2558	-0.441	
0.16958	-0.204594	0.977342	4.55	-1.75	-0.84	-0.115	0.2527	-0.4365	
0.166164	-0.194712	0.973682	5.18	-2.03	-0.21	-0.1294	0.2468	-0.4486	
0.162992	-0.188856	0.976732	6.65	-1.96	-0.07	-0.1193	0.2558	-0.4456	
0.175436	-0.179706	0.983442	8.4	-1.61	-0.07	-0.1266	0.2529	-0.4456	
0.181658	-0.182024	0.970754	8.47	0	0.28	-0.1166	0.2649	-0.4441	
0.172874	-0.18727	0.982954	10.29	-0.63	0.14	-0.1236	0.2513	-0.4456	
0.177632	-0.186416	0.99125	13.3	-0.14	0	-0.112	0.2526	-0.4579	
0.179706	-0.188856	0.997716	12.39	1.05	-0.28	-0.1221	0.2482	-0.4487	
0.177998	-0.190686	1.007842	15.4	0.84	-0.56	-0.1134	0.2436	-0.4457	
0.18849	-0.196664	1.014308	18.69	1.26	-1.12	-0.1179	0.2558	-0.4517	
0.19093	-0.208742	1.007964	20.37	1.12	-1.75	-0.1175	0.2345	-0.4549	
0.18849	-0.218014	1.02297	24.85	0.7	-2.59	-0.1176	0.2405	-0.4564	
0.18605	-0.20923	1.021872	28.14	0.63	-3.43	-0.129	0.2285	-0.4594	
0.185196	-0.209962	1.030778	31.5	1.68	-4.06	-0.1262	0.2315	-0.4594	
0.19215	-0.209474	1.028216	35.63	2.38	-4.76	-0.1189	0.2299	-0.4625	
0.194956	-0.209596	1.029802	38.29	3.15	-5.18	-0.126	0.2209	-0.461	
0.194834	-0.196176	1.025532	41.37	2.59	-5.74	-0.1258	0.2117	-0.4717	
0.18849	-0.169824	1.023092	44.52	2.94	-5.74	-0.1258	0.2148	-0.4763	
0.184586	-0.146888	1.023336	47.53	3.22	-6.23	-0.1257	0.2027	-0.4625	
0.183122	-0.129076	1.019554	49.84	4.69	-6.86	-0.1154	0.2009	-0.484	
0.183	-0.11529	1.01809	53.06	4.9	-7.63	-0.121	0.1873	-0.484	
0.174094	-0.09552599	1.012478	54.88	5.95	-7.56	-0.1195	0.1842	-0.4932	
0.167384	-0.067954	1.011258	59.92	5.88	-8.19	-0.1267	0.1722	-0.4779	
0.160552	-0.026596	0.995764	63.14	6.09	-9.8	-0.1295	0.1738	-0.4871	
0.154452	-0.005734	0.986248	66.01	5.95	-10.57	-0.1204	0.1523	-0.4994	
0.149206	0.023912	0.977586	69.09	5.95	-11.48	-0.1247	0.1448	-0.4964	
0.142618	0.05673	0.962336	70.21	5.46	-12.67	-0.1231	0.1326	-0.498	
0.132126	0.083326	0.955138	73.15	5.18	-13.58	-0.1198	0.1158	-0.5103	
0.12627	0.11163	0.935862	74.62	4.62	-14.7	-0.1211	0.1052	-0.5118	
0.123952	0.140056	0.92293	77.28	4.06	-15.82	-0.1183	0.1067	-0.5042	
0.113826	0.17629	0.900848	77.14	2.31	-16.45	-0.1207	0.0839	-0.5241	
0.105408	0.206302	0.893772	78.82	2.03	-16.66	-0.1237	0.0839	-0.5149	
0.108092	0.241682	0.877912	79.87	2.66	-17.08	-0.1278	0.0642	-0.518	
0.099552	0.27572	0.870958	80.71	8.19	-15.82	-0.1215	0.0368	-0.5227	
0.106384	0.29829	0.858392	79.1	14.91	-13.16	-0.1172	0.0352	-0.5151	
0.091744	0.321592	0.840336	74.69	10.57	-13.79	-0.12	0.0261	-0.5182	
0.076982	0.360876	0.827282	82.53	3.92	-18.06	-0.1124	0.0078	-0.5229	
0.066368	0.395036	0.812642	82.67	7.98	-17.29	-0.1137	-0.0027	-0.5229	
0.056364	0.424682	0.794952	80.43	12.39	-15.47	-0.1135	-0.0179	-0.5229	
0.055754	0.455548	0.768844	78.68	10.01	-16.03	-0.1033	-0.0287	-0.5108	
0.034648	0.48983	0.757132	79.87	8.54	-15.68	-0.1031	-0.0393	-0.5154	
0.022692	0.516914	0.735904	77.21	9.8	-15.12	-0.1028	-0.0561	-0.517	
0.028304	0.532286	0.717726	75.11	11.69	-15.82	-0.1027	-0.0682	-0.5155	
0.010248	0.561932	0.706868	77.07	11.34	-16.1	-0.1026	-0.0728	-0.514	
0.004514	0.582672	0.687104	74.55	10.36	-17.43	-0.0922	-0.0897	-0.5187	
0.005002	0.600606	0.679662	73.22	10.78	-16.8	-0.09209999	-0.09869999	-0.5065	
0.00976	0.628544	0.660752	71.4	11.62	-15.89	-0.0904	-0.1185	-0.5066	
0.000366	0.684176	0.644404	69.79	10.43	-14.63	-0.0947	-0.1215	-0.5066	
-0.017446	0.736392	0.624884	63.84	9.38	-12.53	-0.0859	-0.1308	-0.5082	
-0.018788	0.737368	0.594506	51.52	10.78	-10.22	-0.0871	-0.1459	-0.5082	
-0.005368	0.750178	0.576694	50.47	10.08	-10.01	-0.0796	-0.1627	-0.5053	
-0.005612	0.756522	0.565226	47.11	10.08	-9.03	-0.0796	-0.1688	-0.4976	
-0.034282	0.771406	0.556076	43.4	11.9	-9.03	-0.0693	-0.1766	-0.5008	
-0.065758	0.795196	0.552294	42	10.43	-8.61	-0.065	-0.1766	-0.4947	
-0.05612	0.807884	0.529114	36.75	10.64	-10.5	-0.0663	-0.1948	-0.4825	
-0.050142	0.814594	0.521428	41.09	6.37	-8.26	-0.0663	-0.1887	-0.4886	
-0.043432	0.80947	0.515084	39.62	6.02	-7.98	-0.0605	-0.1918	-0.4749	
-0.045628	0.813374	0.516548	40.39	6.44	-6.93	-0.0517	-0.2011	-0.475	
-0.045994	0.831186	0.512644	41.72	6.09	-6.51	-0.0676	-0.2099	-0.4718	
-0.042212	0.855586	0.527772	42.28	4.34	-5.6	-0.0514	-0.2223	-0.4735	
-0.061	0.865468	0.524112	36.96	2.8	-5.18	-0.0602	-0.2222	-0.4658	
-0.055144	0.851926	0.509228	29.12	4.34	-5.46	-0.0585	-0.2374	-0.4689	
-0.055266	0.849486	0.500078	29.47	4.55	-6.3	-0.0645	-0.2206	-0.4704	
-0.056974	0.845338	0.49715	29.47	5.39	-6.37	-0.0572	-0.2268	-0.4658	
-0.054046	0.851194	0.508374	30.1	6.02	-5.88	-0.054	-0.2421	-0.4751	
-0.060756	0.863272	0.508374	32.2	6.16	-6.09	-0.0497	-0.2527	-0.4522	
-0.06283	0.852414	0.508374	28.91	6.65	-6.37	-0.0482	-0.2497	-0.466	
-0.070882	0.84485	0.501542	28.77	6.23	-7.77	-0.0496	-0.2603	-0.4507	
-0.069662	0.8479	0.493978	28.7	6.79	-8.68	-0.0439	-0.2573	-0.4385	
-0.07747	0.854488	0.48983	28.14	8.19	-9.1	-0.0526	-0.2542	-0.4522	
-0.07564	0.859612	0.487512	28.91	9.52	-9.59	-0.0569	-0.2556	-0.446	
-0.07124799	0.870836	0.451766	24.43	9.03	-10.43	-0.0436	-0.2695	-0.4492	
-0.08686399	0.892796	0.459452	26.39	6.79	-11.06	-0.0408	-0.2665	-0.4477	
-0.101748	0.9028	0.44347	23.03	8.96	-10.92	-0.032	-0.2712	-0.4493	
-0.126148	0.916952	0.42334	25.83	12.39	-11.2	-0.0306	-0.2727	-0.4417	
-0.129198	0.939034	0.418826	34.93	11.55	-14	-0.0378	-0.2771	-0.4325	
-0.133712	0.931836	0.40138	39.34	12.53	-15.19	-0.0305	-0.2863	-0.4264	
-0.14213	0.916708	0.38369	39.2	13.79	-16.17	-0.0275	-0.2909	-0.4265	
-0.135542	0.890478	0.375516	39.97	11.83	-15.96	-0.0157	-0.3048	-0.4266	
-0.1525	0.904752	0.37576	39.06	8.75	-15.89	-0.0218	-0.2925	-0.4158	
-0.162626	0.913658	0.363194	33.39	4.13	-17.85	-0.0157	-0.3078	-0.4159	
-0.17446	0.905484	0.363194	27.58	4.2	-19.46	-0.0099	-0.3109	-0.4144	
-0.154818	0.882914	0.350262	26.67	6.44	-16.45	-0.0098	-0.3124	-0.419	
-0.156892	0.88084	0.35502	31.85	5.11	-13.3	-0.0099	-0.3109	-0.4144	
-0.172752	0.906338	0.337574	35.56	2.8	-11.41	-0.0157	-0.3184	-0.4022	
-0.169092	0.919636	0.3416	34.65	0	-11.06	-0.0098	-0.3246	-0.4038	
-0.152744	0.933788	0.354898	38.01	-3.08	-11.34	-0.0055	-0.3276	-0.3916	
-0.157624	0.97356	0.329156	37.66	-4.83	-11.62	-0.0025	-0.3322	-0.3947	
-0.172752	0.986858	0.317444	29.4	-5.39	-10.5	0.0018	-0.3323	-0.3932	
-0.16653	0.983564	0.311588	28.14	-4.76	-11.41	-0.0068	-0.3397	-0.3855	
-0.163236	0.98088	0.309148	24.78	-2.73	-9.59	-0.0009999999	-0.3322	-0.3901	
-0.159942	0.989786	0.285602	19.39	1.33	-5.46	-0.0025	-0.3443	-0.3717	
-0.176412	0.991006	0.28853	14.42	3.85	-2.52	0.0018	-0.3429	-0.3779	
-0.183	0.974658	0.270718	11.97	3.78	-1.26	0.0047	-0.3429	-0.3703	
-0.176412	0.976	0.230458	10.57	2.45	-0.91	-0.0011	-0.3368	-0.3778	
-0.166896	0.948306	0.219234	15.47	-0.7	-3.08	0.0121	-0.3476	-0.3764	
-0.179584	0.942694	0.217648	18.41	-2.8	-6.37	0.0062	-0.352	-0.3611	
-0.197274	0.962214	0.205326	16.87	-0.91	-3.85	0.0034	-0.3535	-0.3672	
-0.19398	0.947452	0.213378	15.75	0.91	-3.71	0.0005	-0.3626	-0.3596	
-0.190808	0.977098	0.19581	17.71	1.61	-4.9	0.0018	-0.3489	-0.3611	
-0.185562	0.984296	0.19764	29.26	-1.75	-6.65	0.0107	-0.3612	-0.3596	
-0.179096	0.992226	0.201544	25.34	0.91	-4.48	0.0064	-0.3672	-0.3612	
-0.20679	1.00711	0.176046	18.76	3.99	-2.52	0.0121	-0.3642	-0.3474	
-0.21899	1.0187	0.153354	23.1	1.75	-5.88	0.0164	-0.3628	-0.3505	
-0.230824	0.991006	0.15067	20.23	0.28	-6.93	0.0077	-0.3657	-0.3474	
-0.221918	0.981612	0.149084	21.49	0.07	-6.16	0.0005	-0.3671	-0.3519	
-0.216306	0.987224	0.140422	19.18	1.61	-4.2	0.0136	-0.3749	-0.3398	
-0.232288	0.99308	0.146034	16.31	4.06	-1.75	0.0137	-0.3764	-0.3429	
-0.229604	0.996496	0.12993	14.84	5.39	-0.98	0.015	-0.3703	-0.3322	
-0.231922	1.007964	0.136518	16.24	3.22	-1.68	0.0165	-0.3764	-0.3368	
-0.233996	1.013942	0.131028	15.12	3.22	-1.96	0.0208	-0.3704	-0.3353	
-0.239486	1.018578	0.13481	10.92	4.2	-1.26	0.018	-0.3749	-0.3353	
-0.238754	1.010038	0.12993	10.08	3.43	-1.4	0.0137	-0.3809	-0.3322	
-0.241438	0.99613	0.127734	5.53	4.48	0.42	0.0079	-0.3854	-0.3306	
-0.24095	0.993934	0.110166	2.66	6.72	1.4	0.0151	-0.3825	-0.3322	
-0.228994	0.974536	0.109068	3.85	5.32	1.26	0.0208	-0.3734	-0.3322	
-0.223992	0.989542	0.092232	0.56	6.16	2.38	0.0208	-0.3734	-0.3337	
-0.230702	0.995764	0.095648	-0.63	5.11	3.78	0.0181	-0.3901	-0.3231	
-0.238876	1.00345	0.106994	7.56	5.18	5.11	0.0121	-0.3778	-0.3215	
-0.23119	1.000156	0.094428	6.72	6.3	6.23	0.0151	-0.3779	-0.3353	
-0.22814	1.007476	0.08723	2.94	6.09	6.72	0.0123	-0.3885	-0.3246	
-0.227042	1.017114	0.09699	2.1	4.62	6.86	0.015	-0.3809	-0.3184	
-0.226188	1.034926	0.099186	4.76	5.32	7.98	0.0065	-0.3899	-0.326	
-0.220698	1.027728	0.10004	0.21	7.28	9.59	0.0181	-0.387	-0.3261	
-0.218868	1.01504	0.103822	-2.8	7.7	10.36	0.0165	-0.3839	-0.3169	
-0.22387	1.015772	0.096624	-3.99	7	10.29	0.0194	-0.384	-0.3154	
-0.227652	1.01504	0.096502	-4.83	6.16	9.73	0.021	-0.3856	-0.3307	
-0.219966	1.020408	0.102724	-5.25	4.97	8.19	0.0151	-0.3839	-0.323	
-0.210328	1.020042	0.106506	-5.04	3.22	7.42	0.0064	-0.3853	-0.3214	
-0.204716	1.021262	0.102968	-6.44	3.85	8.19	0.0165	-0.384	-0.3215	
-0.210206	1.029436	0.110776	-4.97	3.01	7.07	0.0137	-0.3809	-0.3383	
-0.210572	1.038708	0.110654	-5.04	1.4	5.39	0.0165	-0.3794	-0.3215	
-0.200324	1.040904	0.107238	-7	-0.77	4.55	0.0107	-0.3824	-0.3245	
-0.185318	1.033706	0.112728	-8.89	-1.61	4.97	0.005	-0.3884	-0.326	
-0.18117	1.028338	0.112362	-10.85	-0.77	5.67	0.0137	-0.384	-0.3337	
-0.173728	1.01626	0.116388	-12.53	-0.56	5.81	0.0037	-0.3899	-0.3367	
-0.169214	1.006256	0.120902	-15.05	-1.12	5.74	0.0049	-0.3732	-0.3367	
-0.167018	1.01016	0.127856	-14.56	-2.73	4.97	0.0019	-0.3716	-0.3367	
-0.159088	1.00772	0.142496	-14	-3.43	4.27	0.0049	-0.3778	-0.3352	
-0.152256	1.003328	0.156892	-10.64	-2.31	3.57	0.0108	-0.3854	-0.3322	
-0.141154	1.006988	0.159942	-8.4	-0.77	3.22	0.0035	-0.3762	-0.3459	
-0.13725	1.007232	0.156404	-10.43	0.49	2.59	-0.0008	-0.3731	-0.3443	
-0.143228	1.004426	0.152134	-15.4	0.63	1.05	0.0021	-0.3793	-0.3443	
-0.160552	1.00955	0.142252	-23.59	0.98	-0.77	0.0005	-0.3701	-0.3443	
-0.17995	1.020164	0.140666	-26.88	-0.84	-3.36	-0.0081	-0.3685	-0.3488	
-0.179462	1.017602	0.144692	-27.72	-4.27	-5.95	-0.0009	-0.364	-0.3519	
-0.177754	1.018334	0.16165	-27.09	-7.21	-6.79	0.0077	-0.3626	-0.3459	
-0.169458	1.019066	0.181658	-24.78	-10.78	-7.56	-0.0036	-0.3701	-0.3626	
-0.161894	1.01931	0.198494	-25.76	-13.37	-7.14	0.0004	-0.3535	-0.3657	
-0.15677	1.014674	0.210572	-28.84	-14.7	-6.3	-0.0008	-0.3656	-0.3642	
-0.151768	1.010404	0.225456	-31.78	-15.89	-5.18	-0.0068	-0.3503	-0.3625	
-0.155916	0.990274	0.248758	-33.67	-15.47	-3.43	-0.011	-0.3548	-0.3778	
-0.166286	0.968314	0.262788	-37.87	-13.44	0	-0.0009999999	-0.3459	-0.3748	
-0.16958	0.959164	0.273768	-37.94	-12.39	1.82	-0.004	-0.3322	-0.3778	
-0.155916	0.935252	0.281454	-40.88	-8.05	5.11	-0.0068	-0.3337	-0.3916	
-0.166408	0.934886	0.289628	-38.08	-5.88	6.93	-0.0156	-0.326	-0.3976	
-0.162748	0.94367	0.297314	-39.2	-2.31	10.85	-0.0127	-0.323	-0.3991	
-0.171654	0.949282	0.308294	-41.3	-1.82	13.09	-0.0098	-0.3245	-0.4022	
-0.187514	0.950014	0.32452	-39.48	-0.07	15.12	-0.0101	-0.3063	-0.4006	
-0.18727	0.95404	0.332816	-36.47	3.22	16.66	-0.0099	-0.3155	-0.4098	
-0.177266	0.95282	0.347456	-33.81	0.14	14.91	-0.0142	-0.3124	-0.4129	
-0.176778	0.950014	0.352092	-34.93	0.98	15.96	-0.0202	-0.3016	-0.4143	
-0.173118	0.942816	0.366	-36.47	2.17	16.87	-0.0174	-0.2911	-0.4265	
-0.172508	0.942816	0.369172	-37.87	2.66	16.38	-0.0288	-0.2985	-0.4341	
-0.165676	0.936838	0.368074	-39.41	2.17	15.68	-0.0247	-0.2864	-0.4295	
-0.163114	0.930372	0.383934	-40.18	2.17	15.61	-0.0275	-0.2925	-0.428	
-0.15494	0.924394	0.401502	-38.78	-0.91	14.84	-0.0305	-0.2833	-0.4325	
-0.148108	0.92293	0.414068	-37.38	-2.31	15.19	-0.0263	-0.2727	-0.431	
-0.14335	0.915488	0.425902	-34.23	-5.39	14.63	-0.032	-0.2712	-0.4447	
-0.132492	0.905362	0.4392	-34.3	-7.35	14.07	-0.0262	-0.2728	-0.4448	
-0.122488	0.885598	0.459818	-38.71	-5.81	14.84	-0.0436	-0.268	-0.4569	
-0.118096	0.875106	0.475556	-39.41	-8.12	14.63	-0.0336	-0.2545	-0.463	
-0.107238	0.852658	0.496418	-36.19	-8.47	15.89	-0.0424	-0.2528	-0.4553	
-0.092354	0.843386	0.506788	-35.91	-6.72	16.45	-0.0439	-0.2452	-0.4553	
-0.081862	0.830576	0.521916	-34.79	-7.63	16.24	-0.0412	-0.2346	-0.4568	
-0.071736	0.821548	0.515938	-37.45	-6.79	16.1	-0.0353	-0.2347	-0.463	
-0.063562	0.801052	0.52643	-41.09	-6.65	15.4	-0.0483	-0.2391	-0.4644	
-0.068442	0.76067	0.555466	-40.53	-1.96	17.57	-0.0528	-0.2299	-0.4644	
-0.053314	0.721386	0.56486	-37.66	-2.87	16.24	-0.0587	-0.2207	-0.4781	
-0.041968	0.701744	0.58804	-34.02	-6.02	13.72	-0.0559	-0.2147	-0.4765	
-0.03904	0.697108	0.612684	-33.67	-6.44	11.9	-0.0531	-0.2071	-0.4765	
-0.02013	0.687104	0.639524	-31.01	-6.58	9.87	-0.0587	-0.2162	-0.478	
0.005612	0.677954	0.657092	-28.84	-7.42	7.84	-0.0648	-0.2024	-0.4718	
0.023424	0.668194	0.675148	-26.18	-7.07	7	-0.0605	-0.1933	-0.4749	
0.032086	0.655872	0.684664	-26.46	-6.58	6.79	-0.0591	-0.1903	-0.4734	
0.035624	0.651236	0.684786	-27.09	-7.42	6.44	-0.0663	-0.1963	-0.4795	
0.031842	0.661118	0.691984	-26.39	-7.84	6.51	-0.0678	-0.1917	-0.4794	
0.025132	0.668072	0.69418	-26.04	-7.91	6.79	-0.0708	-0.1826	-0.4824	
0.020984	0.67893	0.692228	-25.76	-8.4	6.58	-0.0693	-0.1796	-0.487	
0.01891	0.678198	0.684542	-27.51	-7.7	6.16	-0.078	-0.181	-0.4916	
0.029036	0.677466	0.687714	-24.5	-8.82	5.39	-0.0724	-0.1704	-0.487	
0.024278	0.686494	0.682346	-24.43	-6.86	5.88	-0.0839	-0.1778	-0.4946	
0.01769	0.690886	0.690886	-22.96	-7.56	5.32	-0.0825	-0.1657	-0.4991	
0.014884	0.683322	0.68869	-22.96	-4.97	5.88	-0.0724	-0.1628	-0.5007	
0.030134	0.677344	0.68808	-22.47	-6.93	4.34	-0.07229999	-0.1644	-0.5084	
0.042822	0.676368	0.681248	-24.43	-10.22	3.5	-0.0856	-0.1551	-0.5021	
0.04392	0.683444	0.683078	-25.06	-11.9	4.69	-0.0828	-0.1475	-0.4975	
0.033916	0.688202	0.684786	-25.97	-10.57	7.56	-0.0958	-0.1503	-0.5036	
0.03477	0.696742	0.686616	-27.16	-11.55	8.12	-0.0858	-0.1353	-0.5051	
0.040992	0.70211	0.680394	-32.55	-12.32	7.98	-0.09	-0.1429	-0.5112	
0.038674	0.693814	0.67649	-38.01	-12.18	8.4	-0.0845	-0.1277	-0.4975	
0.032818	0.689422	0.672708	-41.3	-11.41	9.17	-0.0903	-0.1246	-0.5051	
0.035258	0.687104	0.671366	-44.94	-11.9	9.94	-0.0932	-0.1276	-0.502	
0.041968	0.673074	0.680028	-52.15	-14.07	9.8	-0.0936	-0.1002	-0.5065	
0.049654	0.66002	0.695034	-54.74	-14.21	10.71	-0.098	-0.0926	-0.5126	
0.055632	0.65758	0.712236	-57.19	-15.54	11.76	-0.104	-0.0788	-0.511	
0.061122	0.64416	0.722118	-58.24	-14.77	12.74	-0.1157	-0.0771	-0.5063	
0.067832	0.615856	0.734074	-60.27	-13.3	13.93	-0.1186	-0.0725	-0.5108	
0.080764	0.573644	0.73627	-64.61	-11.55	13.72	-0.1143	-0.0726	-0.5109	
0.095892	0.548268	0.754204	-62.72	-14.07	11.62	-0.1189	-0.0498	-0.5245	
0.102846	0.526796	0.77043	-61.81	-14.63	10.99	-0.119	-0.0422	-0.5214	
0.114436	0.491416	0.77958	-62.09	-15.82	10.71	-0.1251	-0.0269	-0.5106	
0.132126	0.467626	0.775066	-61.6	-15.96	10.99	-0.1251	-0.0238	-0.5168	
0.142984	0.432002	0.788852	-64.05	-13.44	12.88	-0.1313	0.002	-0.5136	
0.162504	0.40321	0.820694	-62.23	-12.53	13.65	-0.1342	0.0051	-0.5181	
0.179462	0.393328	0.851926	-59.64	-14.14	13.86	-0.1372	0.0142	-0.5273	
0.163236	0.379298	0.848266	-63.63	-13.02	15.61	-0.1462	0.0205	-0.5027	
0.147498	0.360754	0.865956	-64.89	-11.9	16.17	-0.1433	0.0265	-0.5104	
0.145546	0.334646	0.871568	-66.92	-10.99	15.26	-0.142	0.0371	-0.5134	
0.14945	0.296216	0.871202	-68.18	-8.47	14.63	-0.1451	0.0509	-0.5057	
0.15799	0.258518	0.884866	-65.87	-6.37	13.02	-0.1395	0.0705	-0.5103	
0.161284	0.225334	0.895846	-66.85	-5.11	12.04	-0.1426	0.0782	-0.4964	
0.163114	0.199226	0.901092	-66.43	-6.65	10.29	-0.1485	0.0843	-0.504	
0.166896	0.159698	0.905972	-66.92	-9.87	6.16	-0.1471	0.0874	-0.5025	
0.184098	0.129808	0.913902	-65.03	-8.47	5.18	-0.1445	0.1086	-0.4948	
0.198494	0.102358	0.918294	-64.47	-8.75	4.2	-0.1503	0.1102	-0.5024	
0.207766	0.0732	0.94062	-64.54	-8.33	4.27	-0.1463	0.1239	-0.484	
0.222894	0.043188	0.9577	-60.69	-7.21	3.64	-0.1507	0.1315	-0.4978	
0.231068	0.002806	0.959408	-59.92	-6.23	3.22	-0.1464	0.1406	-0.4947	
0.2379	-0.03111	0.98027	-52.08	-7.84	3.5	-0.154	0.1559	-0.4854	
0.246806	-0.028914	0.997106	-47.88	-5.32	2.94	-0.1498	0.1604	-0.4763	
0.233874	-0.042456	0.98759	-49.84	-2.87	2.17	-0.1601	0.1682	-0.4716	
0.2318	-0.063928	0.986492	-45.08	-1.4	0.98	-0.1456	0.1756	-0.4717	
0.24034	-0.08784	0.987102	-40.39	0.49	0	-0.1515	0.1802	-0.4731	
0.254004	-0.107604	0.986858	-38.99	1.68	-0.91	-0.156	0.1879	-0.4746	
0.247172	-0.129198	0.9943	-34.72	3.43	-0.07	-0.1445	0.1953	-0.4624	
0.24522	-0.140788	0.991738	-33.04	4.41	0.56	-0.1589	0.1909	-0.4761	
0.24217	-0.153964	0.986004	-34.09	3.78	0.56	-0.1606	0.2001	-0.4654	
0.24217	-0.168604	0.994056	-30.38	3.99	0.28	-0.1563	0.2031	-0.4623	
0.248026	-0.177144	1.00833	-26.46	3.36	0	-0.1505	0.203	-0.4578	
0.251686	-0.177022	1.007842	-26.74	3.43	0.84	-0.1478	0.2136	-0.4547	
0.24583	-0.172752	1.014064	-25.06	2.87	2.03	-0.1465	0.2273	-0.4547	
0.2379	-0.178608	1.028216	-20.93	3.57	3.22	-0.1624	0.2184	-0.45	
0.239608	-0.196786	1.027118	-20.51	3.99	3.5	-0.1481	0.2395	-0.4546	
0.242902	-0.199104	1.016992	-20.58	3.64	3.57	-0.1524	0.2274	-0.447	
0.23119	-0.193004	1.005158	-18.62	1.75	4.13	-0.1408	0.2303	-0.4455	
0.223504	-0.187392	1.009062	-13.72	1.19	3.99	-0.1509	0.2259	-0.45	
0.223626	-0.18544	1.006012	-12.6	1.82	3.57	-0.1509	0.2274	-0.4516	
0.218868	-0.185318	1.006134	-9.24	1.26	3.01	-0.1481	0.238	-0.4516	
0.220332	-0.187148	1.001254	-6.3	1.4	2.59	-0.1321	0.2362	-0.4563	
0.221308	-0.188246	0.999424	-3.5	1.26	1.75	-0.1481	0.2289	-0.4409	
0.222162	-0.184952	0.995886	-1.89	1.19	1.26	-0.1452	0.2364	-0.4455	
0.222772	-0.189344	0.998326	0.77	0.7	0.7	-0.1423	0.2364	-0.4424	
0.22204	-0.19459	0.992714	2.8	0.07	0	-0.1394	0.2378	-0.4486	
0.22448	-0.186172	0.99125	5.46	-0.28	-0.77	-0.1424	0.2425	-0.4485	
0.224724	-0.184708	0.985394	8.19	-0.28	-0.98	-0.1466	0.2349	-0.4485	
0.229238	-0.177876	0.995154	10.5	-0.35	-1.4	-0.1409	0.2379	-0.447	
0.230336	-0.174704	0.996374	13.02	0.21	-1.75	-0.1451	0.2349	-0.4577	
0.228018	-0.171288	0.99125	14.42	0.35	-2.24	-0.1392	0.2242	-0.4547	
0.224846	-0.16348	1.001132	17.92	0.42	-2.73	-0.1523	0.2228	-0.447	
0.23119	-0.15555	1.010282	20.3	0.84	-3.15	-0.1435	0.2197	-0.4501	
0.23607	-0.155428	1.019188	22.82	1.89	-3.71	-0.1508	0.2258	-0.4562	
0.236314	-0.149694	1.019188	25.48	2.24	-3.99	-0.1477	0.2167	-0.4639	
0.235704	-0.142984	1.020652	28.42	3.57	-4.27	-0.1404	0.2105	-0.4578	
0.229604	-0.140788	1.008452	31.22	4.62	-4.76	-0.1435	0.2242	-0.4654	
0.22814	-0.13054	1.001498	34.09	4.9	-5.11	-0.1388	0.2028	-0.467	
0.22631	-0.112606	1.002596	36.82	5.11	-5.11	-0.1489	0.1984	-0.47	
0.222528	-0.09516	0.995764	38.92	5.95	-5.11	-0.1445	0.1968	-0.4716	
0.213378	-0.07869	0.99369	41.09	6.86	-5.25	-0.1502	0.1939	-0.4746	
0.209474	-0.059292	0.98332	41.58	7.56	-5.53	-0.1456	0.1755	-0.4793	
0.200324	-0.041358	0.975634	43.26	7.28	-5.81	-0.1382	0.1694	-0.4809	
0.190686	-0.018788	0.973194	44.87	7.07	-6.16	-0.1439	0.1634	-0.4839	
0.184464	0.002806	0.96929	47.74	6.93	-6.72	-0.1424	0.1573	-0.4824	
0.185684	0.030744	0.963312	48.44	6.3	-7.56	-0.1395	0.1572	-0.4871	
0.173728	0.04941	0.958066	49.84	6.09	-8.12	-0.1364	0.148	-0.4978	
0.169946	0.077104	0.951356	51.1	5.6	-8.61	-0.1405	0.1329	-0.4917	
0.156526	0.102114	0.948306	52.01	5.25	-9.24	-0.1362	0.1343	-0.4917	
0.150792	0.11834	0.93696	52.29	5.81	-10.15	-0.1418	0.1177	-0.4887	
0.150182	0.143716	0.9394	54.88	5.95	-10.64	-0.1388	0.1131	-0.4964	
0.153964	0.165798	0.932812	55.09	5.95	-11.34	-0.1417	0.1116	-0.4963	
0.146766	0.201544	0.922442	57.47	6.58	-11.76	-0.1387	0.11	-0.5071	
0.144692	0.233386	0.917562	57.89	13.16	-8.96	-0.1268	0.0947	-0.5042	
0.12688	0.239974	0.90524	51.94	14.21	-7.56	-0.1252	0.0825	-0.5103	
0.122488	0.264618	0.902312	57.54	4.9	-13.09	-0.1281	0.084	-0.5088	
0.12444	0.28365	0.89121	57.54	4.83	-13.51	-0.122	0.0642	-0.5058	
0.112972	0.303536	0.893406	56.91	10.15	-10.15	-0.1364	0.0568	-0.5134	
0.111386	0.314028	0.883158	56.42	8.68	-11.13	-0.1247	0.0505	-0.512	
0.108458	0.338794	0.866322	57.05	5.81	-13.02	-0.1274	0.0369	-0.5135	
0.099186	0.356484	0.874252	58.31	7.77	-12.04	-0.1244	0.0277	-0.5151	
0.092964	0.36661	0.867908	57.4	8.68	-12.04	-0.1286	0.0187	-0.512	
0.092964	0.379542	0.869982	59.08	7.63	-12.95	-0.1241	0.007999999	-0.5213	
0.10004	0.394792	0.867298	60.34	8.05	-13.23	-0.1269	0.005	-0.5212	
0.102602	0.40931	0.863882	59.22	9.03	-13.37	-0.1209	-0.0117	-0.5198	
0.095038	0.424194	0.851926	59.08	9.59	-13.44	-0.1223	-0.0208	-0.5122	
0.08967	0.423462	0.835822	57.89	9.66	-13.3	-0.1207	-0.0284	-0.5076	
0.085522	0.444812	0.826062	60.41	8.96	-13.86	-0.1222	-0.0269	-0.5107	
0.077104	0.469944	0.81191	59.64	11.2	-12.6	-0.1203	-0.0558	-0.5184	
0.069174	0.484462	0.798002	59.64	10.08	-12.25	-0.1159	-0.0589	-0.5077	
0.06161	0.511302	0.785558	61.6	8.61	-13.02	-0.1129	-0.0681	-0.5124	
0.057218	0.532286	0.783484	61.18	10.36	-11.9	-0.1097	-0.0848	-0.514	
0.051362	0.548756	0.761646	58.31	10.99	-12.11	-0.1097	-0.0954	-0.5003	
0.0366	0.566202	0.742614	58.59	9.73	-12.46	-0.0993	-0.1047	-0.5095	
0.031232	0.585844	0.736026	60.34	9.59	-12.39	-0.1051	-0.1077	-0.5034	
0.023546	0.603656	0.72285	57.96	10.22	-11.41	-0.0963	-0.1123	-0.5035	
0.016958	0.610488	0.70577	54.25	10.29	-11.55	-0.0904	-0.1231	-0.5035	
0.003538	0.653188	0.687226	54.25	10.43	-11.27	-0.0844	-0.1399	-0.4945	
-0.006954	0.697474	0.669658	53.62	8.4	-10.99	-0.0901	-0.1474	-0.4975	
-0.023912	0.76128	0.647454	48.86	8.54	-10.71	-0.0841	-0.1626	-0.4915	
-0.035258	0.780068	0.604266	35.14	9.31	-8.05	-0.0897	-0.1747	-0.4976	
-0.045506	0.78385	0.577304	31.64	10.15	-6.58	-0.0782	-0.1703	-0.4915	
-0.029646	0.792512	0.569618	32.62	10.36	-5.81	-0.0825	-0.1763	-0.4854	
-0.050386	0.794098	0.567056	32.2	10.43	-4.83	-0.0752	-0.181	-0.4824	
-0.03904	0.785314	0.55632	32.69	10.22	-4.62	-0.0722	-0.1886	-0.4794	
-0.043188	0.7747	0.543266	32.55	9.73	-4.55	-0.0764	-0.1916	-0.4901	
-0.044408	0.78507	0.539118	32.76	7.98	-4.34	-0.0822	-0.1915	-0.49	
-0.049044	0.79849	0.542168	31.99	6.02	-4.06	-0.069	-0.2024	-0.4902	
-0.059048	0.813618	0.538264	28.21	5.11	-3.22	-0.069	-0.2054	-0.4825	
-0.06161	0.834114	0.551318	28.14	3.64	-3.08	-0.0734	-0.2053	-0.4794	
-0.053558	0.851194	0.55144	27.93	3.64	-3.5	-0.072	-0.2068	-0.4718	
-0.057706	0.84912	0.53619	24.92	4.48	-2.8	-0.069	-0.2145	-0.4688	
-0.04392	0.865712	0.545096	27.65	1.47	-3.29	-0.0676	-0.213	-0.4688	
-0.03965	0.873276	0.540094	23.87	0.42	-2.59	-0.0704	-0.2205	-0.4673	
-0.046604	0.862662	0.531066	15.12	2.59	-1.4	-0.0659	-0.2282	-0.4688	
-0.055998	0.871568	0.543876	16.73	1.89	-1.82	-0.063	-0.2237	-0.4719	
-0.058194	0.869738	0.53314	17.08	3.43	-1.68	-0.07449999	-0.2341	-0.4673	
-0.04453	0.860954	0.528504	17.78	3.85	-1.96	-0.0544	-0.2208	-0.4674	
-0.034282	0.847534	0.537166	16.38	3.71	-2.1	-0.0556	-0.242	-0.4644	
-0.030134	0.832406	0.53741	15.68	4.27	-2.17	-0.0614	-0.2404	-0.4613	
-0.036966	0.825696	0.53497	15.89	4.97	-2.1	-0.0686	-0.2464	-0.4612	
-0.038064	0.817644	0.530944	16.03	4.27	-2.94	-0.0513	-0.2405	-0.4476	
-0.037332	0.8113	0.526796	15.96	3.29	-4.06	-0.057	-0.248	-0.4567	
-0.04209	0.806176	0.530456	18.41	1.47	-5.81	-0.0569	-0.2511	-0.4629	
-0.04514	0.80154	0.534604	20.16	1.05	-6.65	-0.0642	-0.254	-0.4567	
-0.04697	0.80337	0.536678	22.61	0.84	-7.35	-0.0629	-0.2434	-0.449	
-0.044652	0.801296	0.54229	25.41	-0.28	-8.05	-0.0584	-0.2541	-0.4491	
-0.03843	0.808128	0.545584	27.79	-0.14	-8.61	-0.057	-0.2511	-0.4491	
-0.04819	0.827648	0.54351	29.4	-0.98	-9.31	-0.0496	-0.2603	-0.4476	
-0.058804	0.831186	0.530578	27.09	-0.63	-9.87	-0.0525	-0.2663	-0.4369	
-0.065514	0.827404	0.508008	23.94	-0.14	-10.78	-0.0495	-0.2709	-0.4431	
-0.066978	0.823988	0.500078	25.27	-1.19	-12.11	-0.0568	-0.2723	-0.4308	
-0.064416	0.824354	0.478118	22.61	-2.1	-12.88	-0.0495	-0.2724	-0.4324	
-0.055876	0.831796	0.46726	22.4	-3.64	-13.51	-0.0451	-0.277	-0.437	
-0.057096	0.84302	0.457256	22.61	-3.78	-14.07	-0.0523	-0.283	-0.4354	
-0.079788	0.8723	0.457866	25.76	-2.03	-13.86	-0.0508	-0.2891	-0.4248	
-0.089548	0.89121	0.458842	26.04	-3.5	-13.51	-0.0449	-0.2952	-0.4309	
-0.09857599	0.907192	0.433466	26.67	-4.41	-13.23	-0.0479	-0.2891	-0.4217	
-0.105774	0.922808	0.441274	29.68	-3.85	-13.09	-0.0391	-0.2968	-0.4218	
-0.097234	0.925614	0.42578	24.15	-0.21	-11.76	-0.0376	-0.2999	-0.4188	
-0.106384	0.91927	0.392596	17.85	2.31	-11.13	-0.0463	-0.3058	-0.4187	
-0.099186	0.921222	0.40321	25.62	0.49	-11.55	-0.039	-0.3074	-0.4157	
-0.11224	0.936716	0.387228	25.34	0	-10.22	-0.0464	-0.3043	-0.4065	
-0.12139	0.945744	0.380274	23.17	1.68	-9.45	-0.0435	-0.2998	-0.4111	
-0.131272	0.951722	0.367464	24.78	2.52	-10.01	-0.0376	-0.3014	-0.4203	
-0.123464	0.948428	0.343796	25.62	0.98	-12.81	-0.0302	-0.3151	-0.4082	
-0.119926	0.947208	0.33367	25.83	1.33	-11.97	-0.0344	-0.3257	-0.4066	
-0.126148	0.951966	0.330254	24.92	0.7	-10.99	-0.0331	-0.3227	-0.3975	
-0.128954	0.944768	0.32269	29.68	0.35	-10.43	-0.0315	-0.3363	-0.3899	
-0.136152	0.941108	0.305	29.12	0.07	-10.15	-0.0272	-0.3273	-0.396	
-0.150182	0.950624	0.297436	30.03	-2.03	-11.06	-0.0256	-0.3395	-0.3914	
-0.147742	0.945256	0.30561	27.23	-2.73	-11.34	-0.03	-0.3379	-0.396	
-0.151768	0.947818	0.282064	28.91	-1.61	-11.13	-0.0299	-0.344	-0.3899	
-0.141154	0.945134	0.270962	29.89	-0.77	-10.5	-0.024	-0.3517	-0.39	
-0.141154	0.949038	0.271938	29.96	-1.19	-9.52	-0.0257	-0.341	-0.3792	
-0.13725	0.951966	0.265472	35.91	0.28	-9.8	-0.0213	-0.3471	-0.3793	
-0.133956	0.947086	0.261324	36.82	1.54	-9.8	-0.0096	-0.3564	-0.3671	
-0.139202	0.96807	0.250588	33.53	2.31	-9.8	-0.0197	-0.3623	-0.364	
-0.153232	0.978806	0.224236	27.72	2.8	-9.59	-0.0125	-0.3608	-0.3564	
-0.175436	0.989298	0.2196	26.32	3.57	-8.68	-0.0139	-0.3593	-0.361	
-0.18483	1.001498	0.199836	25.9	5.11	-7.77	-0.0124	-0.3684	-0.3534	
-0.17995	1.007232	0.182634	22.89	5.25	-7	-0.0096	-0.3669	-0.3427	
-0.189344	1.022726	0.182634	17.43	4.83	-4.9	-0.005	-0.3761	-0.355	
-0.197396	1.034926	0.19093	13.23	3.85	-4.41	-0.007999999	-0.3761	-0.3504	
-0.20984	1.038586	0.19398	11.9	3.92	-3.71	-0.0094	-0.3776	-0.3442	
-0.205936	1.025288	0.17934	9.38	4.69	-3.78	-0.0051	-0.3716	-0.3489	
-0.200934	1.002596	0.17324	7.77	6.44	-3.15	-0.0023	-0.367	-0.3458	
-0.200812	0.9882	0.170922	9.24	8.33	-2.87	0.0006	-0.3732	-0.3458	
-0.202032	0.975634	0.150182	11.55	8.82	-2.8	-0.0065	-0.3776	-0.355	
-0.20679	0.960018	0.152012	10.64	9.31	-3.08	0.0034	-0.3671	-0.3428	
-0.215696	0.964776	0.143716	13.3	8.54	-3.29	-0.0008	-0.3777	-0.3321	
-0.213134	0.952576	0.144326	14.98	8.33	-3.5	0.0093	-0.3824	-0.3337	
-0.216428	0.946598	0.137128	17.85	8.05	-3.43	0.0006	-0.3807	-0.3352	
-0.21838	0.94855	0.12078	18.41	6.72	-4.34	0.0021	-0.3823	-0.3413	
-0.233508	0.99186	0.122	19.53	3.08	-6.02	-0.0035	-0.3943	-0.3306	
-0.234484	1.003206	0.122	19.74	3.08	-5.39	0.0049	-0.3792	-0.3229	
-0.232532	1.003084	0.116754	18.97	2.94	-4.69	0.0108	-0.39	-0.323	
-0.234728	1.011258	0.11224	18.55	3.71	-3.99	0.0137	-0.387	-0.3184	
-0.235826	1.015772	0.106262	17.71	3.64	-3.85	0.0066	-0.4005	-0.32	
-0.23058	0.99857	0.11407	12.95	4.13	-3.5	0.0137	-0.3945	-0.3108	
-0.227042	0.984662	0.109556	9.87	4.55	-2.52	0.0137	-0.393	-0.32	
-0.22692	0.98088	0.106262	10.22	4.2	-1.33	0.0079	-0.3929	-0.3184	
-0.21899	0.977586	0.095038	10.22	3.71	-0.56	-0.0007	-0.3928	-0.3153	
-0.21594	0.98088	0.103334	9.24	2.38	-0.35	0.0093	-0.399	-0.3016	
-0.22326	0.985272	0.087718	5.74	3.92	1.26	0.0078	-0.3914	-0.3062	
-0.229604	1.008818	0.080398	3.01	3.43	1.82	0.0066	-0.4035	-0.3123	
-0.231068	1.022116	0.07747	3.43	3.57	3.01	0.0064	-0.3944	-0.3046	
-0.2257	1.010526	0.069662	1.12	4.97	4.27	0.0137	-0.393	-0.3062	
-0.23485	1.014186	0.059658	-3.22	5.53	5.04	0.0181	-0.3946	-0.3093	
-0.23668	1.014674	0.060756	-2.66	4.76	5.04	0.0079	-0.3899	-0.3169	
-0.229848	1.01016	0.05551	0.28	4.27	4.9	0.0093	-0.396	-0.3047	
-0.218136	1.0004	0.062586	1.47	2.66	4.13	0.0093	-0.3914	-0.3092	
-0.223016	1.012112	0.054534	-0.07	3.08	4.55	0.0064	-0.3974	-0.3031	
-0.225822	1.010526	0.06527	2.38	2.45	4.41	0.0092	-0.3884	-0.3031	
-0.21838	1.009672	0.062952	4.41	2.1	4.41	0.0065	-0.399	-0.3062	
-0.213378	1.01199	0.066856	3.36	1.68	4.48	0.007999999	-0.4035	-0.3062	
-0.212768	1.019432	0.057706	-0.14	1.82	4.9	0.0037	-0.405	-0.3154	
-0.22204	1.029192	0.05124	-1.96	1.26	5.25	0.0078	-0.3868	-0.3107	
-0.226066	1.041392	0.057828	-2.1	0.42	5.81	0.0035	-0.3944	-0.3077	
-0.21838	1.046638	0.056608	-2.1	-0.77	5.88	0.0109	-0.4066	-0.2955	
-0.20801	1.035902	0.05856	-5.74	-0.77	5.95	0.0079	-0.3944	-0.3092	
-0.211914	1.046516	0.055998	-11.27	0.21	7.07	0.0035	-0.3898	-0.3123	
-0.204838	1.033584	0.059902	-12.18	-0.7	6.86	0.0006	-0.3943	-0.3107	
-0.202154	1.023702	0.06283	-16.03	0.91	7.84	0.0109	-0.3915	-0.3276	
-0.200812	1.021994	0.071492	-17.01	-0.07	7.7	-0.0023	-0.3852	-0.3076	
-0.198494	1.032364	0.069296	-17.57	-2.03	7.42	-0.0007	-0.3958	-0.3122	
-0.194712	1.031632	0.073688	-19.81	-2.17	8.05	-0.0079	-0.3927	-0.3259	
-0.180316	1.029436	0.089914	-22.68	-2.38	8.75	-0.0139	-0.382	-0.3243	
-0.181902	1.032486	0.091744	-27.3	-3.36	9.38	-0.0051	-0.3806	-0.3305	
-0.177144	1.032486	0.103334	-27.93	-3.71	10.01	-0.0079	-0.3882	-0.3321	
-0.183854	1.03212	0.111752	-30.8	-2.73	12.04	-0.0064	-0.3867	-0.3412	
-0.182024	1.026996	0.113216	-36.4	-2.03	13.02	-0.0022	-0.3807	-0.3413	
-0.176412	1.012966	0.131272	-38.15	-3.01	13.79	-0.0153	-0.3714	-0.3472	
-0.173484	1.024434	0.137006	-39.69	-5.04	14.91	-0.0153	-0.3714	-0.3564	
-0.164212	1.026508	0.162382	-37.1	-7.56	16.17	-0.0152	-0.373	-0.3625	
-0.166164	1.024922	0.173484	-39.06	-7.14	18.69	-0.0241	-0.3592	-0.3563	
-0.161406	1.01626	0.184952	-40.11	-7.35	19.46	-0.0328	-0.3575	-0.3624	
-0.14579	1.005524	0.201422	-38.99	-9.17	19.18	-0.0212	-0.3547	-0.367	
-0.122244	0.998204	0.224968	-37.24	-10.92	18.9	-0.0357	-0.3636	-0.3639	
-0.105042	0.98271	0.2379	-38.57	-9.45	18.9	-0.0285	-0.3485	-0.3777	
-0.089182	0.976244	0.257054	-38.29	-8.75	18.69	-0.0402	-0.3362	-0.3867	
-0.088206	0.977464	0.263276	-38.08	-7.21	18.13	-0.0372	-0.3469	-0.3868	
-0.101748	0.980148	0.266204	-40.25	-6.79	16.87	-0.0401	-0.3438	-0.3929	
-0.099186	0.976244	0.278038	-44.59	-4.55	16.24	-0.0431	-0.3362	-0.399	
-0.096624	0.984174	0.285968	-44.87	-6.02	14.56	-0.0461	-0.3286	-0.4004	
-0.097356	0.978806	0.299144	-45.36	-7.07	14.14	-0.0506	-0.3133	-0.4049	
-0.09821	0.969412	0.316834	-45.85	-7.7	13.79	-0.0535	-0.3118	-0.4095	
-0.094916	0.961116	0.330376	-45.08	-11.62	12.18	-0.0564	-0.3117	-0.4141	
-0.094062	0.952942	0.3477	-47.11	-12.53	12.39	-0.0592	-0.3087	-0.4263	
-0.08784	0.953796	0.367952	-45.36	-15.54	11.97	-0.0667	-0.301	-0.4201	
-0.073322	0.94489	0.388448	-44.94	-16.73	12.67	-0.064	-0.2828	-0.4277	
-0.05795	0.93269	0.402234	-47.81	-16.8	13.09	-0.0741	-0.2827	-0.4292	
-0.053924	0.926102	0.418704	-49	-16.66	14.07	-0.0713	-0.2766	-0.4338	
-0.059292	0.920612	0.441518	-51.31	-16.03	15.05	-0.0786	-0.2705	-0.4413	
-0.056852	0.916098	0.468602	-45.99	-13.79	15.82	-0.083	-0.2643	-0.4443	
-0.034648	0.889868	0.488488	-44.17	-11.55	15.68	-0.0859	-0.2598	-0.4535	
-0.01464	0.861686	0.499834	-45.85	-9.24	15.26	-0.0976	-0.255	-0.4549	
-0.00732	0.830698	0.496784	-47.95	-6.02	15.54	-0.0889	-0.2491	-0.455	
0.009028	0.812642	0.499102	-44.45	-5.04	14.14	-0.095	-0.2353	-0.4503	
0.035136	0.7991	0.511912	-45.36	-3.43	12.88	-0.0861	-0.24	-0.4672	
0.047336	0.791414	0.541558	-47.67	-3.15	12.53	-0.0993	-0.2247	-0.4701	
0.038064	0.785558	0.557662	-43.05	-2.94	12.81	-0.1009	-0.217	-0.4747	
0.041236	0.74786	0.576328	-41.51	-0.49	12.81	-0.0894	-0.2081	-0.4763	
0.061976	0.70333	0.59719	-41.44	2.17	11.62	-0.0982	-0.2019	-0.4685	
0.071736	0.665266	0.627324	-38.01	2.31	9.94	-0.0953	-0.2019	-0.4762	
0.066612	0.644648	0.640012	-32.13	0.56	8.82	-0.107	-0.1896	-0.4776	
0.061366	0.612562	0.649162	-29.96	-0.77	7.7	-0.1056	-0.1881	-0.4853	
0.066856	0.590358	0.678808	-26.53	-3.43	6.58	-0.094	-0.1853	-0.4792	
0.080154	0.594262	0.71248	-22.54	-7.21	4.27	-0.0998	-0.1822	-0.4899	
0.108458	0.607194	0.742858	-21.56	-7.56	3.64	-0.0998	-0.1837	-0.4822	
0.121512	0.604266	0.757254	-19.67	-8.12	3.22	-0.1145	-0.1713	-0.4836	
0.134688	0.61854	0.763598	-14.56	-7	3.92	-0.1159	-0.1698	-0.4928	
0.141032	0.623054	0.766892	-15.47	-7.07	4.27	-0.1102	-0.1714	-0.4836	
0.127856	0.636108	0.7564	-16.38	-5.95	4.48	-0.1159	-0.1683	-0.4958	
0.117974	0.64294	0.74359	-17.85	-5.67	3.78	-0.1191	-0.153	-0.4927	
0.104188	0.647332	0.729926	-19.04	-5.25	2.8	-0.1147	-0.1576	-0.4928	
0.101626	0.645136	0.715408	-17.78	-4.62	1.96	-0.1147	-0.1576	-0.4928	
0.09577	0.652578	0.709064	-15.26	-4.83	1.19	-0.1103	-0.1577	-0.4913	
0.093208	0.659654	0.699792	-14.42	-4.48	0.98	-0.1191	-0.153	-0.4927	
0.09455	0.661728	0.697718	-11.06	-3.57	0.84	-0.1191	-0.153	-0.4927	
0.088572	0.665632	0.692716	-9.8	-3.01	0.49	-0.1235	-0.1529	-0.4911	
0.083326	0.670756	0.678442	-11.13	-1.89	0.35	-0.1161	-0.1591	-0.4958	
0.081496	0.690276	0.677344	-11.62	-3.15	0.63	-0.1161	-0.1591	-0.4958	
0.079544	0.714432	0.679906	-11.69	-4.13	1.4	-0.1251	-0.1392	-0.4911	
0.06954	0.730658	0.677344	-14.14	-3.85	2.52	-0.1133	-0.147	-0.5004	
0.056608	0.750544	0.665754	-17.08	-3.57	3.71	-0.1206	-0.1469	-0.4896	
0.061732	0.756644	0.659288	-19.11	-3.22	4.69	-0.1294	-0.1407	-0.4972	
0.065758	0.750544	0.655506	-23.1	-2.66	5.6	-0.1178	-0.1409	-0.4911	
0.063684	0.735416	0.6466	-27.09	-2.03	6.86	-0.1281	-0.1392	-0.4819	
0.059536	0.729072	0.650016	-28.91	-3.08	7.98	-0.1367	-0.1391	-0.5002	
0.061122	0.726388	0.65941	-31.43	-4.13	8.68	-0.1221	-0.1333	-0.511	
0.064172	0.711382	0.673684	-34.37	-4.9	9.17	-0.1265	-0.1347	-0.5018	
0.064538	0.70577	0.684542	-36.19	-5.25	9.66	-0.1253	-0.1195	-0.5002	
0.08174	0.690642	0.69479	-38.99	-5.25	9.59	-0.1357	-0.1057	-0.5032	
0.09076799	0.67527	0.697352	-43.05	-4.83	9.8	-0.1312	-0.1103	-0.5078	
0.08784	0.65148	0.711992	-46.9	-7.91	9.87	-0.1328	-0.0981	-0.5062	
0.087962	0.658434	0.728584	-43.4	-7.21	9.24	-0.1301	-0.0815	-0.5123	
0.09699	0.619028	0.727974	-49.21	-3.99	9.66	-0.1359	-0.0829	-0.5092	
0.112606	0.591944	0.7442	-47.67	-6.72	7.7	-0.1377	-0.0631	-0.5076	
0.130174	0.562908	0.748104	-50.12	-7.07	7.63	-0.126	-0.0649	-0.5184	
0.121512	0.546682	0.761524	-51.24	-5.39	8.96	-0.1407	-0.054	-0.5076	
0.11773	0.519842	0.764696	-54.11	-4.9	9.03	-0.1364	-0.0464	-0.5122	
0.125538	0.498004	0.7808	-53.97	-5.46	8.96	-0.1453	-0.0342	-0.5121	
0.14213	0.478484	0.797636	-53.34	-6.44	8.82	-0.1439	-0.0296	-0.512	
0.138226	0.460916	0.807762	-54.6	-4.97	11.48	-0.1456	-0.0114	-0.5181	
0.131882	0.446764	0.811056	-55.86	-5.74	11.06	-0.1426	-0.016	-0.5151	
0.137006	0.418704	0.826672	-57.75	-6.09	10.01	-0.1442	-0.0038	-0.5211	
0.147132	0.380518	0.82838	-57.82	-6.23	9.1	-0.1487	0.0022	-0.5226	
0.154086	0.35563	0.844362	-56.49	-6.3	9.24	-0.1475	0.0189	-0.5165	
0.163724	0.331962	0.852048	-56.49	-6.44	9.17	-0.1463	0.0281	-0.4996	
0.188124	0.297558	0.87413	-54.6	-6.51	8.54	-0.1462	0.0311	-0.5103	
0.181536	0.273402	0.887184	-53.97	-6.3	8.26	-0.1493	0.0478	-0.5179	
0.185196	0.257054	0.896456	-55.23	-6.51	8.33	-0.1567	0.0525	-0.5102	
0.192272	0.241072	0.910852	-56.07	-6.86	7.49	-0.1453	0.063	-0.5011	
0.195444	0.209474	0.912438	-58.38	-5.74	6.72	-0.1643	0.0739	-0.507	
0.200812	0.183854	0.925614	-54.11	-5.18	5.32	-0.1527	0.0768	-0.5071	
0.210084	0.155306	0.934398	-53.9	-4.62	5.46	-0.1514	0.0829	-0.501	
0.215208	0.13786	0.950624	-50.82	-5.11	5.32	-0.1617	0.0937	-0.5008	
0.216306	0.12139	0.954894	-50.47	-4.76	5.46	-0.1516	0.09649999	-0.5024	
0.21838	0.0976	0.965142	-49.84	-3.78	5.6	-0.1605	0.1073	-0.4947	
0.213744	0.076982	0.969412	-47.67	-1.61	4.97	-0.149	0.1208	-0.5024	
0.223504	0.052216	0.962092	-44.66	-0.35	4.2	-0.1563	0.1164	-0.4932	
0.218502	0.045018	0.953674	-38.99	1.54	3.64	-0.1522	0.1285	-0.4855	
0.206424	0.044652	0.957212	-34.86	1.19	1.75	-0.1539	0.1513	-0.4885	
0.24156	0.007442	0.962946	-33.95	-1.89	-1.96	-0.1523	0.1407	-0.4839	
0.234972	-0.008417999	0.981612	-31.29	3.99	-0.42	-0.1523	0.1437	-0.4931	
0.238022	-0.016714	0.997838	-23.24	1.82	-1.47	-0.1584	0.1605	-0.4823	
0.239974	-0.02196	1.01382	-22.19	2.94	-0.84	-0.1438	0.1527	-0.4809	
0.241194	-0.021838	1.025166	-18.2	1.68	-0.21	-0.1512	0.1619	-0.4839	
0.246074	-0.020374	1.028338	-20.02	2.94	0.56	-0.1527	0.1665	-0.4823	
0.234362	-0.032818	1.02724	-19.53	3.36	1.26	-0.1483	0.1604	-0.4809	
0.22814	-0.03477	1.030778	-21.14	1.54	1.4	-0.1439	0.1618	-0.4824	
0.216916	-0.033916	1.021262	-22.12	0.84	2.45	-0.147	0.1756	-0.4808	
0.215452	-0.02928	1.02175	-20.58	0.07	2.87	-0.1586	0.1712	-0.4777	
0.213134	-0.028548	1.01504	-19.81	-0.77	2.87	-0.1586	0.1727	-0.4777	
0.2074	-0.026352	1.002352	-20.09	-0.98	3.15	-0.1616	0.1773	-0.4761	
0.202276	-0.033794	0.996618	-19.39	-1.75	3.5	-0.1617	0.1804	-0.4746	
0.195078	-0.049532	1.006988	-17.22	-2.1	3.08	-0.1575	0.1955	-0.4761	
0.204838	-0.065026	1.01504	-14.21	-1.12	2.87	-0.1516	0.1878	-0.4777	
0.218746	-0.074298	1.008818	-13.09	-1.19	1.96	-0.1501	0.1863	-0.4777	
0.221674	-0.09089	1.004182	-10.08	-2.03	0.98	-0.1517	0.1893	-0.47	
0.22509	-0.09747799	1.005646	-7.91	-2.73	0.49	-0.1502	0.1893	-0.4762	
0.223748	-0.100284	1.000644	-7.56	-2.87	0.14	-0.1545	0.1848	-0.4654	
0.224114	-0.101626	0.99613	-4.34	-3.22	-0.35	-0.1488	0.1893	-0.4655	
0.225334	-0.097966	0.993202	-2.1	-3.15	-0.84	-0.1518	0.1924	-0.4608	
0.225334	-0.101748	0.997594	2.52	-2.73	-1.47	-0.1489	0.1939	-0.4655	
0.23119	-0.10248	1.000156	5.18	-2.24	-1.68	-0.1634	0.1971	-0.4699	
0.23668	-0.09552599	1.010892	10.36	-2.31	-2.03	-0.1604	0.1925	-0.4684	
0.238754	-0.092598	1.011502	13.09	-0.98	-2.03	-0.1662	0.1895	-0.473	
0.242414	-0.086986	1.009428	14.7	-0.98	-1.54	-0.1516	0.1863	-0.4716	
0.244488	-0.077836	1.013454	18.2	-0.63	-1.68	-0.1619	0.1925	-0.4715	
0.247904	-0.07625	1.011014	20.51	0.91	-1.47	-0.166	0.1789	-0.4715	
0.247416	-0.071736	1.004426	22.75	1.68	-1.61	-0.1558	0.1787	-0.4792	
0.242658	-0.055754	1.001132	25.76	2.1	-1.89	-0.1601	0.1758	-0.4792	
0.236314	-0.039528	0.994788	28.63	2.31	-2.66	-0.1587	0.1727	-0.47	
0.235338	-0.034648	0.996862	31.99	3.22	-3.71	-0.1586	0.1712	-0.4823	
0.229238	-0.023912	0.99308	33.74	3.08	-4.48	-0.1613	0.1575	-0.4838	
0.222772	-0.009516	0.984662	35.14	3.22	-5.11	-0.1569	0.156	-0.4793	
0.224236	0.015982	0.98698	39.41	2.8	-5.6	-0.157	0.1605	-0.4808	
0.221796	0.040626	0.981856	40.39	3.15	-6.3	-0.1553	0.1453	-0.4854	
0.212036	0.055754	0.97966	41.72	3.85	-7.21	-0.1594	0.1332	-0.4962	
0.20679	0.067832	0.973804	43.89	5.11	-8.26	-0.1622	0.1226	-0.4885	
0.203008	0.0854	0.967948	46.34	5.04	-9.17	-0.1564	0.1255	-0.4947	
0.198616	0.098698	0.962824	48.09	4.97	-9.8	-0.1549	0.1194	-0.4916	
0.197762	0.122976	0.958432	50.05	4.83	-10.29	-0.1576	0.1134	-0.5008	
0.188978	0.139202	0.950258	51.8	3.85	-11.55	-0.1504	0.1133	-0.4993	
0.186416	0.153598	0.950624	53.27	4.55	-11.9	-0.1531	0.1057	-0.5085	
0.189466	0.180072	0.940254	54.74	4.48	-12.6	-0.1529	0.0859	-0.5009	
0.186172	0.196908	0.930494	56.28	4.62	-13.37	-0.1585	0.0738	-0.5086	
0.182634	0.221186	0.926346	59.57	4.41	-13.86	-0.147	0.0858	-0.5102	
0.174582	0.243512	0.905118	59.78	4.41	-14.07	-0.1495	0.057	-0.5163	
0.174582	0.262056	0.900116	63.77	4.27	-14.56	-0.1479	0.0463	-0.5133	
0.17263	0.28975	0.89548	65.59	3.92	-15.26	-0.1479	0.0463	-0.5164	
0.16043	0.331718	0.867176	64.54	3.78	-15.33	-0.1549	0.0282	-0.5133	
0.151402	0.358558	0.853634	65.73	3.43	-15.33	-0.1475	0.019	-0.5149	
0.144692	0.391986	0.854732	68.32	3.71	-15.4	-0.1489	0.0114	-0.5134	
0.137616	0.41358	0.8357	66.5	5.53	-15.12	-0.1443	0.0022	-0.5165	
0.137494	0.4331	0.829478	67.2	6.02	-15.68	-0.1514	-0.0143	-0.5104	
0.132126	0.45933	0.807274	65.45	6.23	-16.31	-0.1512	-0.0341	-0.5074	
0.122366	0.488366	0.795196	66.92	6.16	-16.38	-0.1437	-0.0418	-0.5136	
0.108946	0.507886	0.783484	67.34	6.3	-16.17	-0.1466	-0.0493	-0.5075	
0.10126	0.535336	0.773114	67.9	6.79	-16.17	-0.142	-0.0631	-0.5076	
0.097722	0.555344	0.75335	65.17	6.51	-17.15	-0.1362	-0.0616	-0.5091	
0.08967	0.567056	0.735416	62.65	6.51	-17.57	-0.136	-0.0753	-0.5107	
0.073932	0.584868	0.72468	64.89	6.16	-17.85	-0.1345	-0.0875	-0.4985	
0.075396	0.600484	0.719312	66.5	7.42	-18.06	-0.1343	-0.0966	-0.5077	
0.08357	0.605242	0.709674	64.4	8.82	-18.27	-0.1356	-0.1072	-0.5032	
0.088816	0.61549	0.711016	64.89	8.26	-17.92	-0.1282	-0.1225	-0.4925	
0.078568	0.661118	0.697596	63.56	6.93	-17.08	-0.1339	-0.1331	-0.4971	
0.061244	0.695278	0.679662	61.46	7.07	-16.24	-0.1294	-0.1407	-0.4941	
0.043676	0.711504	0.653798	56.07	9.1	-15.47	-0.1293	-0.1528	-0.485	
0.023546	0.72956	0.61915	48.72	11.06	-14.49	-0.122	-0.153	-0.4973	
0.01464	0.755424	0.59841	46.06	10.57	-14.56	-0.1218	-0.1712	-0.4866	
-0.010858	0.780678	0.57767	43.61	12.18	-12.95	-0.1203	-0.1742	-0.4851	
-0.004514	0.795684	0.561322	40.74	11.34	-11.34	-0.1143	-0.185	-0.4867	
-0.01586	0.80337	0.54961	39.13	10.71	-10.22	-0.1115	-0.191	-0.4684	
-0.00976	0.80764	0.543998	36.61	10.08	-9.17	-0.1128	-0.1911	-0.4883	
-0.01769	0.829966	0.53436	33.74	9.31	-8.61	-0.1111	-0.2063	-0.4837	
-0.027694	0.849852	0.520452	28.35	8.82	-6.79	-0.101	-0.2064	-0.4777	
-0.040016	0.866932	0.515084	28.14	8.05	-6.3	-0.0953	-0.205	-0.4716	
-0.059292	0.883768	0.513864	31.5	6.51	-6.02	-0.0966	-0.2156	-0.4716	
-0.035258	0.878888	0.523136	29.19	6.58	-6.09	-0.0907	-0.2202	-0.4702	
-0.049288	0.873642	0.494588	25.83	8.4	-5.88	-0.09649999	-0.2247	-0.464	
-0.038308	0.865956	0.505568	22.19	7.63	-6.65	-0.0936	-0.2202	-0.4625	
-0.043066	0.862784	0.498248	20.02	8.96	-5.81	-0.0979	-0.2307	-0.4548	
-0.033062	0.865468	0.503006	19.11	7.28	-4.48	-0.0963	-0.2368	-0.4595	
-0.03477	0.870836	0.49654	17.29	5.04	-3.57	-0.092	-0.2384	-0.4595	
-0.031842	0.873764	0.497272	15.05	4.48	-2.8	-0.0831	-0.2507	-0.455	
-0.033916	0.868518	0.49593	12.04	4.06	-1.89	-0.0876	-0.243	-0.4534	
-0.030866	0.861686	0.49776	9.73	4.41	-1.26	-0.0904	-0.246	-0.4626	
-0.025742	0.860222	0.508374	9.31	4.06	-0.7	-0.092	-0.2399	-0.4503	
-0.026352	0.866932	0.520818	9.59	3.71	-0.56	-0.0846	-0.2446	-0.4626	
-0.025132	0.86925	0.529358	8.75	3.64	-0.77	-0.0875	-0.2476	-0.4611	
-0.019154	0.856806	0.527528	7.28	4.62	-0.98	-0.0889	-0.2506	-0.4611	
-0.011468	0.833626	0.5246	5.88	5.18	-1.12	-0.0832	-0.2431	-0.455	
-0.00244	0.817156	0.531798	7.28	5.39	-1.26	-0.083	-0.2583	-0.455	
-0.003416	0.809714	0.543388	9.87	4.83	-1.4	-0.0788	-0.2492	-0.4504	
-0.008784	0.808128	0.55205	11.27	4.2	-2.03	-0.0788	-0.2477	-0.4504	
-0.005856	0.800564	0.558882	13.23	3.29	-3.29	-0.0787	-0.2553	-0.4551	
-0.003172	0.798368	0.557906	14.42	2.1	-4.41	-0.0831	-0.2552	-0.4474	
-0.006588	0.798978	0.556442	16.8	2.31	-5.46	-0.0816	-0.2522	-0.4535	
-0.013176	0.798612	0.55022	18.9	2.52	-6.65	-0.07	-0.2584	-0.4414	
-0.02562	0.797148	0.53802	19.6	2.45	-7.63	-0.0786	-0.2659	-0.4474	
-0.03233	0.798856	0.53619	22.68	1.75	-8.47	-0.0729	-0.2629	-0.4383	
-0.030744	0.794464	0.518378	26.04	1.33	-9.31	-0.0757	-0.2705	-0.4398	
-0.02806	0.801784	0.508984	26.67	0.28	-10.29	-0.0813	-0.2795	-0.4413	
-0.03782	0.812154	0.51301	30.38	-0.21	-10.99	-0.0684	-0.2706	-0.4368	
-0.045628	0.81252	0.492758	30.1	0.49	-11.55	-0.064	-0.2767	-0.4369	
-0.037698	0.80581	0.473116	29.26	0.49	-12.11	-0.077	-0.2887	-0.4261	
-0.032818	0.813008	0.471286	29.05	-1.4	-14	-0.0625	-0.2828	-0.4231	
-0.03843	0.817522	0.44225	23.66	-0.56	-15.33	-0.0652	-0.298	-0.4277	
-0.040016	0.834602	0.432856	20.79	-0.28	-16.8	-0.0698	-0.2857	-0.4185	
-0.039528	0.864736	0.451034	26.88	-2.87	-18.27	-0.0638	-0.298	-0.4216	
-0.04758	0.909754	0.464698	26.18	-0.77	-17.43	-0.0623	-0.295	-0.4262	
-0.055022	0.93086	0.454816	27.16	0.14	-16.59	-0.0593	-0.3072	-0.4217	
-0.07515199	0.947452	0.432246	28.56	3.85	-15.96	-0.0565	-0.3057	-0.4125	
-0.094062	0.95526	0.430782	25.9	7.14	-15.82	-0.0679	-0.3177	-0.4171	
-0.105164	0.95404	0.403698	27.79	7.49	-16.45	-0.0593	-0.3102	-0.4141	
-0.103212	0.950258	0.384178	29.82	7.28	-17.36	-0.055	-0.3148	-0.4019	
-0.118218	0.94855	0.355752	30.8	5.88	-18.55	-0.0506	-0.3148	-0.4019	
-0.12871	0.94306	0.304146	28.35	6.51	-19.39	-0.0519	-0.3239	-0.4004	
-0.139934	0.936106	0.28914	28.28	7.49	-19.81	-0.0448	-0.3149	-0.4004	
-0.151646	0.940864	0.275842	35.56	5.25	-20.72	-0.0402	-0.3302	-0.4005	
-0.154696	0.948916	0.26718	35.84	3.64	-20.86	-0.0359	-0.3363	-0.3868	
-0.160308	0.941108	0.25681	39.2	2.8	-20.58	-0.0328	-0.3485	-0.3838	
-0.160064	0.941596	0.243878	37.59	0.21	-19.81	-0.0358	-0.3469	-0.3807	
-0.161772	0.958188	0.242902	31.92	-1.05	-19.39	-0.0315	-0.3424	-0.3822	
-0.173362	0.98881	0.235826	33.88	-3.5	-19.95	-0.0271	-0.347	-0.3777	
-0.181292	1.010282	0.22692	32.55	-1.75	-18.13	-0.0155	-0.3502	-0.364	
-0.204106	1.009062	0.205204	30.1	0.77	-16.38	-0.0255	-0.3607	-0.3655	
-0.223748	1.018456	0.198372	30.17	3.08	-15.33	-0.024	-0.3668	-0.364	
-0.230336	1.010526	0.195932	28.84	2.8	-14.7	-0.0225	-0.3744	-0.3518	
-0.223138	0.994544	0.1891	29.89	3.43	-13.79	-0.0081	-0.367	-0.3458	
-0.068686	0.936594	0.157624	27.3	9.87	-15.75	-0.0153	-0.3714	-0.3472	
-0.24461	0.933666	0.176778	-34.51	43.54	15.61	-0.0037	-0.3746	-0.3458	
-0.256688	0.969778	0.159454	16.38	15.61	-4.13	-0.0051	-0.3716	-0.3489	
-0.241316	0.964044	0.171288	31.43	-3.5	-17.01	-0.0007	-0.3762	-0.3458	
-0.232532	0.949404	0.156526	21.63	2.17	-13.86	-0.011	-0.373	-0.3412	
-0.225578	0.958188	0.164212	20.23	1.61	-14.91	0.002	-0.3717	-0.3504	
-0.237778	0.974414	0.15128	22.61	0.07	-14.77	-0.0036	-0.3761	-0.3473	
-0.241926	0.971974	0.139446	20.51	1.75	-12.81	0.0064	-0.3748	-0.3444	
-0.249368	0.990274	0.138226	18.9	2.94	-11.55	0.0078	-0.3732	-0.3352	
-0.250222	0.994666	0.141276	16.1	3.15	-10.22	0.0036	-0.3868	-0.3321	
-0.250344	0.988444	0.142862	13.65	5.25	-8.4	0.0107	-0.3839	-0.323	
-0.248758	0.98881	0.126636	11.48	7.28	-7	0.0166	-0.3855	-0.3292	
-0.246928	0.981124	0.134932	7.84	8.26	-6.44	0.0225	-0.3902	-0.3292	
-0.260836	0.998692	0.110288	3.01	8.26	-5.18	0.0211	-0.3962	-0.3308	
-0.264618	0.981856	0.115656	2.24	8.75	-2.8	0.024	-0.3978	-0.3277	
-0.27023	0.974658	0.120048	4.06	8.68	-1.61	0.0253	-0.3856	-0.32	
-0.269864	0.985638	0.113338	0.56	8.68	-0.77	0.0137	-0.3854	-0.323	
-0.257542	0.977098	0.125538	-0.28	5.95	-1.12	0.0193	-0.3749	-0.323	
-0.242902	0.982588	0.119316	1.68	6.44	-0.07	0.0124	-0.3931	-0.3353	
-0.242048	0.976244	0.125904	-1.82	10.92	2.73	0.021	-0.3886	-0.3246	
-0.254126	0.979904	0.123098	-4.2	12.46	3.78	0.0226	-0.3947	-0.3308	
-0.271816	0.994666	0.108336	-8.89	13.51	3.43	0.024	-0.3902	-0.3308	
-0.277184	0.979416	0.098454	-6.58	12.25	1.54	0.0194	-0.381	-0.3231	
-0.28914	0.975024	0.091256	-6.23	12.88	1.96	0.0238	-0.3841	-0.3262	
-0.292434	0.991006	0.087596	-0.56	11.69	1.89	0.034	-0.3812	-0.3277	
-0.283528	0.983442	0.085156	1.19	9.03	1.47	0.0238	-0.381	-0.3277	
-0.298778	0.99064	0.079788	-2.59	8.82	1.82	0.0282	-0.3857	-0.3262	
-0.321226	1.006988	0.07259	-0.07	10.5	1.96	0.018	-0.3795	-0.3383	
-0.310856	0.986004	0.074542	0.63	9.31	1.82	0.0223	-0.378	-0.3261	
-0.296338	0.994056	0.067954	3.36	5.88	0.63	0.034	-0.3857	-0.3247	
-0.298656	1.002596	0.08845	2.17	4.9	1.61	0.0239	-0.3826	-0.3323	
-0.286334	0.99247	0.098454	4.41	3.71	2.17	0.0209	-0.3825	-0.3261	
-0.286456	0.992592	0.091134	-0.14	3.64	1.89	0.0296	-0.3842	-0.3231	
-0.287066	1.00528	0.09857599	0.98	2.03	1.54	0.0384	-0.3873	-0.3217	
-0.289994	1.013942	0.105042	1.05	2.45	2.8	0.0209	-0.384	-0.3261	
-0.278648	1.009184	0.10248	-1.61	3.57	3.71	0.0281	-0.3811	-0.3201	
-0.284626	1.006866	0.098332	-6.23	4.83	4.34	0.0254	-0.3902	-0.3262	
-0.289018	1.016626	0.09467199	-8.75	4.41	4.13	0.0253	-0.3871	-0.3277	
-0.291946	1.019554	0.095038	-10.57	3.85	4.48	0.0253	-0.3781	-0.3353	
-0.281576	1.02175	0.092476	-8.05	1.75	4.48	0.0282	-0.3827	-0.3354	
-0.28792	1.012966	0.101504	-10.22	1.4	5.04	0.0239	-0.3871	-0.3292	
-0.301096	1.021506	0.096746	-13.37	1.4	5.32	0.0239	-0.3886	-0.3277	
-0.294264	1.015162	0.104066	-12.74	-0.91	4.9	0.0296	-0.3766	-0.3354	
-0.288652	1.004792	0.106994	-14.98	-2.17	5.39	0.0223	-0.3795	-0.3277	
-0.28914	0.998692	0.109556	-16.03	-3.22	6.23	0.021	-0.378	-0.3445	
-0.27023	1.001132	0.112484	-16.17	-4.62	6.65	0.0253	-0.375	-0.3414	
-0.263154	0.995154	0.120048	-15.05	-5.95	7.14	0.0195	-0.3795	-0.3399	
-0.25681	1.000034	0.132858	-14.56	-8.05	7.14	0.0253	-0.375	-0.3399	
-0.242658	0.995398	0.151646	-16.52	-8.4	7.56	0.0224	-0.375	-0.3491	
-0.238388	0.987468	0.156648	-21.28	-6.58	7.91	0.0221	-0.3583	-0.3414	
-0.245098	0.99369	0.161284	-19.04	-6.72	7.91	0.0136	-0.3703	-0.3429	
-0.23668	0.993568	0.172874	-16.66	-6.65	9.17	0.021	-0.372	-0.3613	
-0.237046	0.987468	0.173362	-20.72	-4.83	10.5	0.0121	-0.3627	-0.3535	
-0.242536	1.006866	0.169336	-22.26	-5.46	10.29	0.0077	-0.3566	-0.355	
-0.24583	1.005036	0.188734	-20.86	-6.3	10.08	0.0121	-0.3582	-0.3642	
-0.235094	0.999546	0.19398	-20.58	-6.44	10.57	0.0048	-0.3581	-0.3642	
-0.224724	0.986736	0.197518	-23.94	-6.58	11.2	-0.0023	-0.355	-0.3702	
-0.212646	0.984296	0.206668	-23.94	-7.84	11.48	0.0049	-0.3596	-0.3703	
-0.206302	0.972096	0.217648	-25.69	-8.54	11.76	-0.0037	-0.3565	-0.3702	
-0.206302	0.97112	0.230092	-26.95	-9.31	12.04	0.0004	-0.3504	-0.3672	
-0.195444	0.968924	0.235826	-27.58	-9.8	12.32	-0.0081	-0.3519	-0.3778	
-0.175436	0.9577	0.250222	-28.07	-9.59	13.02	-0.0155	-0.3442	-0.3824	
-0.15555	0.950746	0.269864	-25.55	-9.24	13.86	-0.0096	-0.3443	-0.387	
-0.13969	0.949282	0.284626	-25.13	-8.33	15.12	-0.0125	-0.3457	-0.3885	
-0.131394	0.952332	0.294508	-23.45	-7.14	15.75	-0.0184	-0.3411	-0.3823	
-0.128954	0.953186	0.302072	-22.4	-7.63	15.54	-0.0272	-0.3319	-0.3899	
-0.121268	0.944768	0.313418	-24.22	-4.41	15.19	-0.0213	-0.3365	-0.3991	
-0.135542	0.95526	0.3111	-26.25	-3.5	15.54	-0.0229	-0.3228	-0.4037	
-0.142862	0.957822	0.316102	-28.35	-1.75	15.82	-0.0287	-0.3212	-0.399	
-0.142862	0.956968	0.32513	-27.3	-1.82	14.35	-0.0345	-0.3227	-0.4066	
-0.140788	0.95099	0.32452	-28.28	-3.36	13.16	-0.0288	-0.3167	-0.4036	
-0.147864	0.951112	0.336842	-26.25	-4.41	12.32	-0.033	-0.3182	-0.4127	
-0.144936	0.94611	0.338794	-27.65	-4.97	10.15	-0.0361	-0.3151	-0.4051	
-0.143594	0.938546	0.345016	-31.5	-3.92	9.8	-0.0418	-0.315	-0.4111	
-0.129076	0.922198	0.35685	-29.19	-3.71	8.61	-0.0375	-0.3105	-0.4127	
-0.117608	0.924638	0.359412	-28.98	-2.1	8.82	-0.039	-0.3044	-0.4188	
-0.103944	0.927566	0.37637	-26.67	-2.31	8.47	-0.0375	-0.3029	-0.428	
-0.107604	0.933666	0.38613	-24.15	-2.31	9.03	-0.0434	-0.2968	-0.434	
-0.11102	0.936472	0.385642	-25.06	-1.68	9.87	-0.0479	-0.2876	-0.4309	
-0.104676	0.937448	0.396378	-23.1	-0.35	10.29	-0.0478	-0.2937	-0.4325	
-0.112362	0.937448	0.421266	-20.86	0.28	10.92	-0.0436	-0.2846	-0.4294	
-0.121878	0.944524	0.431392	-18.13	-1.54	10.08	-0.0479	-0.2861	-0.437	
-0.10797	0.920978	0.453718	-14.7	-0.56	10.64	-0.0566	-0.2829	-0.4385	
-0.089914	0.90707	0.449448	-17.5	1.12	10.92	-0.058	-0.2875	-0.4354	
-0.090524	0.874862	0.441762	-20.37	1.89	11.2	-0.0523	-0.2815	-0.4416	
-0.084424	0.848754	0.448106	-18.41	0.35	10.57	-0.0495	-0.2754	-0.437	
-0.062586	0.8113	0.46726	-14.84	-0.56	10.08	-0.0509	-0.2754	-0.4461	
-0.052094	0.806054	0.478362	-12.6	-1.19	10.08	-0.0538	-0.2739	-0.44	
-0.039284	0.821304	0.488854	-10.5	-3.22	9.38	-0.0538	-0.2708	-0.4476	
-0.04575	0.826184	0.508252	-14.21	-1.61	10.64	-0.0525	-0.2663	-0.4385	
-0.042334	0.823866	0.514474	-17.29	-2.17	10.36	-0.0525	-0.2663	-0.443	
-0.042456	0.823988	0.529114	-22.4	-0.91	10.15	-0.0612	-0.2662	-0.4414	
-0.051484	0.820572	0.531798	-22.54	-1.05	8.47	-0.0656	-0.2555	-0.4552	
-0.042334	0.80459	0.538874	-20.93	-2.87	6.72	-0.0568	-0.2602	-0.4598	
-0.026474	0.81008	0.559248	-19.67	-4.13	5.88	-0.0569	-0.2617	-0.4369	
-0.034892	0.803736	0.5612	-21.35	-2.45	5.6	-0.0584	-0.2525	-0.4475	
-0.048922	0.801052	0.573156	-17.57	-3.36	4.06	-0.0612	-0.2571	-0.4583	
-0.016226	0.791292	0.599996	-14.91	-3.08	2.8	-0.067	-0.257	-0.4536	
-0.01464	0.770552	0.579744	-23.17	-1.54	2.94	-0.0671	-0.2494	-0.4597	
-0.01647	0.759572	0.577426	-20.79	-1.33	0.98	-0.0615	-0.2388	-0.4521	
-0.019154	0.755912	0.577548	-19.81	-1.4	1.19	-0.07009999	-0.2372	-0.4658	
-0.018544	0.754326	0.579134	-17.92	-1.61	1.82	-0.06439999	-0.2328	-0.4658	
-0.015738	0.753594	0.57767	-17.01	-2.31	1.68	-0.0704	-0.2251	-0.4596	
-0.012688	0.739076	0.584502	-15.61	-2.66	1.47	-0.0632	-0.2191	-0.4627	
-0.011712	0.735416	0.597312	-11.83	-4.06	1.05	-0.0718	-0.225	-0.4611	
-0.006466	0.752984	0.603412	-6.65	-6.09	-0.14	-0.0819	-0.2249	-0.4641	
-0.007442	0.757864	0.605486	-7	-5.11	0.07	-0.06879999	-0.2327	-0.4658	
-0.005002	0.759328	0.599386	-7.07	-5.67	-0.77	-0.0674	-0.2221	-0.4703	
-0.002806	0.76189	0.600972	-3.85	-6.72	-1.47	-0.0689	-0.2221	-0.4703	
-0.009638	0.775188	0.612806	-1.26	-5.88	-0.77	-0.0646	-0.2206	-0.4627	
-0.0061	0.779824	0.612806	-0.84	-5.04	-1.12	-0.0761	-0.225	-0.4733	
-0.000488	0.770796	0.609756	-1.19	-4.41	-1.26	-0.079	-0.2325	-0.458	
0.007198	0.773724	0.613172	-0.21	-4.97	-1.33	-0.0718	-0.2205	-0.4657	
0.00244	0.776408	0.614026	-2.45	-4.2	-0.35	-0.0762	-0.2204	-0.4596	
0.000366	0.773968	0.617808	-3.57	-3.36	0.21	-0.08199999	-0.2218	-0.4626	
-0.008662	0.777384	0.60878	-5.11	-2.59	0.28	-0.0761	-0.228	-0.4688	
-0.009516	0.77897	0.60878	-3.36	-3.64	0.07	-0.0718	-0.222	-0.4718	
-0.005368	0.772382	0.60512	-2.66	-3.64	0.21	-0.0762	-0.2159	-0.4748	
-0.001342	0.76677	0.605974	-2.94	-3.15	0.14	-0.079	-0.2234	-0.4703	
0.002806	0.772504	0.610122	0	-3.29	0.21	-0.0818	-0.2295	-0.4733	
0.006344	0.779214	0.610122	1.33	-3.5	0.63	-0.0762	-0.2219	-0.4672	
0.002318	0.777018	0.607194	-0.07	-2.94	1.47	-0.0674	-0.2251	-0.4673	
0.003416	0.784094	0.604144	-0.14	-3.99	1.75	-0.076	-0.2356	-0.4642	
0.002684	0.791048	0.599386	-1.4	-4.06	1.89	-0.0777	-0.2204	-0.4596	
0.000244	0.791658	0.602802	-2.17	-3.36	1.82	-0.0819	-0.2234	-0.4764	
-0.005734	0.80154	0.60146	-3.01	-2.17	1.75	-0.08199999	-0.2173	-0.4779	
-0.00976	0.803248	0.596092	-4.69	-1.75	1.61	-0.0791	-0.2204	-0.4703	
-0.007076	0.79605	0.597556	-6.02	-1.05	1.4	-0.079	-0.2234	-0.4718	
-0.001464	0.795806	0.600484	-4.27	-1.19	1.05	-0.0848	-0.2264	-0.4702	
-0.00183	0.791658	0.60329	-4.97	-0.77	0.63	-0.0777	-0.2158	-0.4641	
-0.0061	0.784582	0.596946	-4.69	0	0.21	-0.0834	-0.2218	-0.4656	
-0.004758	0.783606	0.600972	-1.89	-0.7	0.42	-0.08639999	-0.2172	-0.4702	
-0.003538	0.792878	0.60512	1.26	-1.26	0.7	-0.0906	-0.2218	-0.4763	
0.004148	0.786534	0.600972	-0.77	0	0.77	-0.0718	-0.2205	-0.4688	
-0.002928	0.791658	0.59109	-3.64	-1.19	0.28	-0.0893	-0.2142	-0.4717	
-0.023424	0.808494	0.5917	-0.35	-1.89	0.84	-0.09079999	-0.2111	-0.4717	
-0.030622	0.803614	0.59475	1.68	-0.49	1.26	-0.0805	-0.2189	-0.4718	
-0.022204	0.784338	0.583404	-0.91	0.7	0.98	-0.08639999	-0.2142	-0.4763	
-0.015616	0.7747	0.58743	0.91	-1.75	0.77	-0.0733	-0.2129	-0.4718	
-0.023912	0.770064	0.58255	1.82	-3.15	1.75	-0.0834	-0.2234	-0.4672	
-0.034526	0.773114	0.584136	2.45	-6.3	2.52	-0.0878	-0.2157	-0.4702	
-0.04209	0.776774	0.577548	0.28	-7.49	4.34	-0.0893	-0.2187	-0.4686	
-0.04819	0.782386	0.586576	0.14	-8.89	5.81	-0.08199999	-0.2188	-0.4672	
-0.054778	0.785802	0.585478	-0.21	-8.89	7.07	-0.0937	-0.2156	-0.4686	
-0.0549	0.77836	0.587552	0.7	-9.31	8.05	-0.0878	-0.2127	-0.4793	
-0.048312	0.772016	0.584868	0.7	-10.71	8.96	-0.0892	-0.2203	-0.4732	
-0.046482	0.764574	0.590114	0.91	-12.39	10.29	-0.0967	-0.2095	-0.464	
-0.033916	0.773358	0.587064	-0.07	-14.56	11.27	-0.0951	-0.2141	-0.4716	
-0.027694	0.779214	0.594384	-1.54	-15.68	12.6	-0.0979	-0.2202	-0.4808	
-0.019642	0.776042	0.598166	-3.85	-15.89	13.51	-0.098	-0.2186	-0.4701	
-0.001708	0.762134	0.587674	-4.69	-16.24	14.28	-0.1169	-0.2168	-0.4746	
0.01647	0.758352	0.58438	-3.29	-18.06	14.91	-0.1111	-0.2108	-0.473	
0.023058	0.763232	0.582184	-4.13	-19.74	16.38	-0.1112	-0.2093	-0.4654	
0.03294	0.766404	0.584868	-6.09	-20.86	18.27	-0.1328	-0.2181	-0.4714	
0.04148	0.763964	0.57096	-8.54	-20.79	19.95	-0.1344	-0.212	-0.4668	
0.0671	0.763598	0.58926	-1.75	-23.03	21.28	-0.1329	-0.212	-0.4698	
0.081374	0.770186	0.588284	-3.36	-24.08	22.47	-0.1374	-0.2044	-0.4759	
0.103578	0.776286	0.598166	-1.4	-23.1	24.22	-0.149	-0.2072	-0.4666	
0.124318	0.763598	0.584258	-4.62	-21.35	25.27	-0.1461	-0.2072	-0.4621	
0.128954	0.72895	0.530822	-12.25	-24.43	26.6	-0.1549	-0.2026	-0.4681	
0.138958	0.727608	0.554246	-6.3	-31.78	28.14	-0.1636	-0.204	-0.4681	
0.162138	0.791902	0.5795	2.87	-35	27.65	-0.1708	-0.2023	-0.4711	
0.155794	0.780556	0.57584	-4.06	-32.76	26.53	-0.168	-0.2023	-0.4573	
0.198128	0.75274	0.5734	-7	-33.67	25.69	-0.1825	-0.2067	-0.4572	
0.233996	0.744566	0.555832	-8.68	-36.33	26.04	-0.1827	-0.19	-0.4572	
0.257664	0.73627	0.583404	-3.78	-40.18	27.72	-0.1885	-0.1914	-0.4556	
0.265228	0.78446	0.59719	0.07	-39.34	28.21	-0.203	-0.1927	-0.4601	
0.266936	0.786778	0.592554	-7.14	-36.68	26.18	-0.2147	-0.194	-0.4493	
0.29158	0.76799	0.579012	-9.24	-35.21	24.71	-0.2074	-0.1926	-0.457	
0.32757	0.757864	0.5978	-5.74	-34.16	23.87	-0.2249	-0.1909	-0.4538	
0.341966	0.751764	0.590846	-6.86	-30.73	24.92	-0.2351	-0.1846	-0.4537	
0.357094	0.756644	0.608658	-4.06	-30.03	24.64	-0.2338	-0.1831	-0.4415	
0.3721	0.778482	0.612562	-1.54	-29.05	23.17	-0.2514	-0.1722	-0.4367	
0.39223	0.784338	0.614148	-1.4	-27.3	20.72	-0.2528	-0.1767	-0.4444	
0.389424	0.775554	0.601826	-8.33	-22.19	18.48	-0.2499	-0.1722	-0.4398	
0.378444	0.743956	0.577182	-16.45	-17.5	15.75	-0.2588	-0.1645	-0.4412	
0.369172	0.703696	0.546194	-19.81	-15.89	11.69	-0.2616	-0.1705	-0.4443	
0.356728	0.697962	0.535946	-14.7	-17.36	10.57	-0.2529	-0.1722	-0.4367	
0.351482	0.688324	0.533994	-11.62	-20.02	10.57	-0.2616	-0.1705	-0.4443	
0.342332	0.67832	0.522404	-16.1	-21.49	11.48	-0.2632	-0.1583	-0.4381	
0.359168	0.668438	0.511424	-19.6	-23.17	12.67	-0.2719	-0.1597	-0.4396	
0.40748	0.661728	0.528016	-18.41	-25.13	15.89	-0.2806	-0.1581	-0.4426	
0.467504	0.694058	0.592798	-2.24	-31.43	18.06	-0.2748	-0.1612	-0.435	
0.49837	0.70089	0.650748	4.62	-33.32	21.35	-0.2794	-0.1489	-0.4273	
0.503616	0.706624	0.62708	-4.27	-31.01	22.26	-0.2911	-0.1473	-0.4272	
0.518134	0.726022	0.606462	-5.67	-27.86	20.93	-0.2925	-0.1457	-0.4348	
0.512156	0.716018	0.585844	-12.46	-20.86	17.71	-0.2983	-0.1471	-0.4286	
0.498736	0.690642	0.571692	-18.48	-13.93	16.73	-0.3014	-0.141	-0.4194	
0.483974	0.672464	0.562054	-18.97	-11.06	14.84	-0.3059	-0.1333	-0.4178	
0.468724	0.661484	0.551074	-20.23	-10.85	13.23	-0.3058	-0.1364	-0.424	
0.459818	0.653432	0.54351	-18.41	-12.88	11.83	-0.3088	-0.1257	-0.427	
0.454572	0.645258	0.532042	-18.69	-14.14	11.76	-0.316	-0.1347	-0.4239	
0.44103	0.635498	0.513376	-22.47	-14.91	12.11	-0.322	-0.121	-0.4253	
0.4453	0.62403	0.508496	-22.96	-16.87	12.11	-0.3191	-0.1225	-0.4223	
0.446154	0.607926	0.50996	-24.36	-18.83	14	-0.3235	-0.1133	-0.4222	
0.470798	0.596824	0.519598	-22.26	-21.63	15.75	-0.331	-0.1026	-0.4191	
0.492148	0.585844	0.532286	-20.51	-25.13	18.2	-0.3295	-0.1056	-0.4206	
0.503372	0.593774	0.54595	-16.24	-29.33	19.88	-0.3427	-0.0994	-0.4159	
0.518744	0.612806	0.557418	-8.61	-34.16	19.39	-0.334	-0.0964	-0.4129	
0.54412	0.613172	0.576572	-4.83	-35.42	18.83	-0.3386	-0.0827	-0.4098	
0.552904	0.59719	0.579134	-6.16	-32.9	19.32	-0.343	-0.0826	-0.4082	
0.576938	0.582306	0.573522	5.25	-34.86	17.78	-0.3575	-0.0809	-0.4035	
0.609024	0.600972	0.585478	22.4	-39.27	16.31	-0.3634	-0.0823	-0.4004	
0.634888	0.607804	0.595116	11.83	-36.33	15.82	-0.3619	-0.0853	-0.3943	
0.643916	0.613782	0.58133	-4.41	-26.18	15.89	-0.3664	-0.0837	-0.3821	
0.658556	0.59719	0.569252	-11.06	-21.07	14.42	-0.3781	-0.08199999	-0.3759	
0.650016	0.584136	0.536312	-13.3	-20.23	9.52	-0.3796	-0.07889999	-0.3743	
0.647698	0.573644	0.523014	-6.16	-19.11	7.63	-0.3751	-0.079	-0.3835	
0.652334	0.5612	0.522526	-1.96	-18.62	6.23	-0.381	-0.0774	-0.3789	
0.66185	0.560224	0.512278	0	-17.92	4.9	-0.3781	-0.0775	-0.3804	
0.665754	0.545584	0.510326	0.7	-16.45	4.2	-0.381	-0.0759	-0.3773	
0.668438	0.537044	0.51057	0.84	-15.4	4.06	-0.3913	-0.0772	-0.3696	
0.673684	0.524844	0.50203	-0.63	-14.98	3.36	-0.3854	-0.07889999	-0.3773	
0.694058	0.520208	0.494344	2.59	-14.98	3.22	-0.3885	-0.0681	-0.3681	
0.703574	0.512766	0.482022	-0.21	-13.51	3.64	-0.3927	-0.0772	-0.365	
0.696132	0.520818	0.48678	1.19	-11.97	5.32	-0.3915	-0.0665	-0.3558	
0.70699	0.531676	0.495808	7.77	-11.83	5.53	-0.3883	-0.0818	-0.362	
0.72224	0.51667	0.493002	4.55	-8.61	5.88	-0.3899	-0.0727	-0.365	
0.727364	0.516792	0.492636	8.05	-8.05	6.09	-0.3986	-0.0771	-0.3634	
0.727486	0.524478	0.48739	6.93	-8.12	5.95	-0.3943	-0.0711	-0.3558	
0.723704	0.547536	0.491904	8.26	-6.58	6.79	-0.3915	-0.0635	-0.3619	
0.72041	0.555344	0.479582	1.26	-3.15	7.07	-0.3929	-0.06659999	-0.3665	
0.72651	0.559492	0.468114	-0.28	-1.4	6.86	-0.4059	-0.0709	-0.3634	
0.726876	0.570716	0.473848	2.59	-1.12	6.23	-0.3987	-0.0695	-0.3573	
0.712358	0.583282	0.462624	-1.47	0.91	5.74	-0.4	-0.0756	-0.3634	
0.70455	0.572058	0.469456	-0.84	3.22	4.9	-0.4	-0.0756	-0.3634	
0.710894	0.56486	0.471286	1.19	4.27	2.8	-0.4015	-0.0725	-0.3634	
0.705038	0.555466	0.45872	-1.12	5.6	1.26	-0.4045	-0.0724	-0.3557	
0.702964	0.558516	0.463112	1.61	5.53	-0.42	-0.3958	-0.0695	-0.3604	
0.708088	0.552294	0.466406	0.63	6.02	-1.75	-0.39	-0.0651	-0.3711	
0.719678	0.558272	0.474214	1.96	6.37	-3.08	-0.4059	-0.0694	-0.3618	
0.724436	0.561932	0.482876	1.26	7.14	-4.41	-0.3899	-0.0727	-0.3681	
0.729804	0.558028	0.471286	-3.64	9.31	-5.32	-0.3899	-0.0712	-0.3696	
0.726388	0.56486	0.476288	-1.4	10.71	-5.81	-0.3971	-0.0711	-0.3696	
0.720288	0.561688	0.47946	-2.24	11.97	-7.07	-0.3898	-0.0712	-0.3773	
0.717116	0.560102	0.4819	-4.13	14.14	-7.56	-0.3971	-0.0681	-0.3787	
0.720288	0.563152	0.498004	-1.54	14.49	-8.89	-0.3882	-0.0819	-0.3804	
0.724924	0.568398	0.509594	-0.77	15.4	-10.71	-0.3839	-0.0819	-0.3743	
0.728096	0.579378	0.514718	-2.52	18.2	-11.41	-0.3766	-0.0805	-0.3743	
0.71553	0.58499	0.516426	-5.46	21.21	-12.25	-0.378	-0.0805	-0.382	
0.711382	0.586942	0.513986	-6.65	24.22	-13.72	-0.3854	-0.0758	-0.3788	
0.710284	0.587552	0.531798	-2.94	25.55	-16.03	-0.3782	-0.0683	-0.3835	
0.69418	0.589138	0.54595	-3.22	28.7	-17.36	-0.3752	-0.073	-0.385	
0.684176	0.59414	0.54717	-4.97	32.76	-18.62	-0.3706	-0.0837	-0.3973	
0.676368	0.592554	0.545096	-2.45	35.49	-21.14	-0.3576	-0.0823	-0.3928	
0.659532	0.579988	0.551196	-1.4	39.2	-22.96	-0.3604	-0.0869	-0.4005	
0.6405	0.576572	0.543876	-0.14	41.16	-24.99	-0.3472	-0.08859999	-0.4098	
0.620004	0.575962	0.548878	3.92	40.6	-27.65	-0.3531	-0.087	-0.4082	
0.611952	0.588894	0.565592	9.24	40.6	-29.61	-0.3486	-0.0947	-0.4113	
0.59292	0.597434	0.57035	9.24	42.14	-31.43	-0.3454	-0.1115	-0.4175	
0.567422	0.599508	0.57157	6.86	44.1	-31.64	-0.3267	-0.0905	-0.4267	
0.546926	0.615246	0.56547	10.08	42.63	-33.6	-0.3208	-0.1042	-0.4192	
0.525454	0.626348	0.573034	11.62	43.26	-35.07	-0.3235	-0.1103	-0.4299	
0.49227	0.649528	0.570838	26.46	40.39	-36.54	-0.3045	-0.1197	-0.4255	
0.498492	0.653798	0.572912	28.63	39.41	-39.55	-0.3044	-0.1258	-0.4285	
0.45567	0.666242	0.576206	13.37	42.14	-37.59	-0.2927	-0.1336	-0.4348	
0.416264	0.684298	0.567422	13.44	43.33	-37.94	-0.2853	-0.1413	-0.4379	
0.395524	0.693448	0.591212	16.52	42.84	-38.43	-0.2707	-0.14	-0.4426	
0.368196	0.705526	0.612562	20.09	42.91	-39.76	-0.2678	-0.1446	-0.438	
0.34465	0.704672	0.612562	16.59	46.13	-40.46	-0.2574	-0.1554	-0.4458	
0.32147	0.706746	0.605486	14.7	47.32	-41.09	-0.2588	-0.1584	-0.4458	
0.30378	0.717604	0.613416	18.06	46.76	-42.84	-0.2442	-0.1647	-0.4475	
0.27816	0.716628	0.609024	11.2	50.68	-40.74	-0.2295	-0.168	-0.4568	
0.259128	0.713944	0.601338	5.95	52.22	-40.18	-0.215	-0.1697	-0.4553	
0.22204	0.69967	0.593164	5.53	54.53	-37.59	-0.212	-0.1774	-0.4554	
0.209962	0.715774	0.595482	12.67	55.65	-33.53	-0.209	-0.1835	-0.4554	
0.122732	0.729804	0.617442	14.07	59.64	-28.21	-0.193	-0.1792	-0.4693	
0.127734	0.7503	0.616466	25.27	49.63	-36.54	-0.1814	-0.1794	-0.4633	
0.09272	0.757254	0.591822	14.7	50.19	-36.12	-0.1624	-0.1842	-0.4695	
0.072224	0.754204	0.582062	10.57	50.61	-34.16	-0.1665	-0.1994	-0.4695	
0.071126	0.740174	0.58682	8.4	51.24	-33.11	-0.1506	-0.1996	-0.4666	
0.0488	0.743834	0.587552	8.96	51.17	-32.41	-0.1464	-0.186	-0.4742	
0.018178	0.750422	0.583526	9.17	49.7	-32.34	-0.1303	-0.1923	-0.4683	
-0.005246	0.724314	0.565836	1.54	49.28	-29.61	-0.1259	-0.1893	-0.4775	
-0.030378	0.714676	0.57462	0.28	46.27	-27.23	-0.1171	-0.1971	-0.4791	
-0.05063	0.718946	0.554246	0.49	42.49	-24.99	-0.1069	-0.2018	-0.4792	
-0.068076	0.729926	0.576328	2.66	37.24	-22.47	-0.0994	-0.211	-0.4854	
-0.09333	0.727852	0.589992	-1.26	36.33	-18.62	-0.085	-0.2067	-0.4793	
-0.101016	0.737612	0.596214	0.42	29.4	-16.73	-0.0748	-0.2053	-0.4901	
-0.113094	0.7381	0.5917	-3.78	27.02	-14.49	-0.069	-0.2099	-0.4718	
-0.117608	0.745786	0.5856	-5.67	24.71	-13.44	-0.0663	-0.1993	-0.4749	
-0.121268	0.758596	0.59658	-1.96	20.93	-13.58	-0.0617	-0.2101	-0.4841	
-0.125538	0.749324	0.598654	-3.22	19.04	-13.02	-0.0617	-0.207	-0.4841	
-0.117852	0.756156	0.593408	-2.03	15.96	-12.67	-0.0532	-0.1995	-0.475	
-0.112118	0.754082	0.60451	-1.68	13.93	-12.11	-0.0574	-0.2055	-0.4765	
-0.109678	0.755668	0.608658	-1.05	12.32	-11.76	-0.0458	-0.2072	-0.4796	
-0.104432	0.769332	0.611586	-0.28	11.13	-11.69	-0.0532	-0.1995	-0.475	
-0.108824	0.773358	0.612074	-1.82	9.94	-11.83	-0.0428	-0.2058	-0.4842	
-0.103944	0.775066	0.613904	-1.82	9.38	-12.18	-0.0386	-0.1997	-0.4812	
-0.09272	0.787876	0.620126	3.57	8.4	-12.39	-0.0443	-0.2057	-0.4827	
-0.092598	0.790316	0.618052	-2.31	10.22	-13.51	-0.0343	-0.1968	-0.4782	
-0.09455	0.787266	0.616344	-3.22	10.43	-14.56	-0.0386	-0.2043	-0.4751	
-0.102358	0.798002	0.620736	-2.8	11.34	-14.98	-0.0284	-0.2029	-0.4813	
-0.101382	0.797392	0.621102	-3.43	13.02	-15.4	-0.0283	-0.206	-0.4935	
-0.09357399	0.791048	0.608292	-7.42	13.51	-16.45	-0.0254	-0.2091	-0.4829	
-0.099308	0.792878	0.61183	-7.56	14.63	-16.38	-0.0168	-0.197	-0.4875	
-0.121512	0.801052	0.618052	-7.42	16.8	-16.24	-0.0196	-0.2016	-0.4859	
-0.127612	0.792146	0.61671	-8.68	19.11	-16.66	-0.014	-0.1955	-0.4798	
-0.121512	0.777262	0.614636	-10.57	20.23	-17.22	-0.0125	-0.1895	-0.4875	
-0.125172	0.768966	0.616222	-10.29	21.14	-17.22	-0.0081	-0.1957	-0.4906	
-0.138592	0.764818	0.614026	-11.13	22.54	-16.8	0.0005	-0.1897	-0.4937	
-0.150914	0.765306	0.621224	-10.78	23.38	-16.52	0.0034	-0.1943	-0.4876	
-0.167262	0.759938	0.6161	-12.53	24.08	-16.87	0.0032	-0.1821	-0.4876	
-0.187026	0.76128	0.618174	-14	25.55	-17.57	0.0222	-0.1885	-0.4847	
-0.201544	0.764208	0.617686	-13.51	27.58	-17.01	0.0251	-0.1855	-0.4877	
-0.218868	0.752862	0.607926	-14.91	29.26	-17.92	0.0221	-0.1779	-0.4938	
-0.240462	0.740418	0.621346	-16.17	29.19	-18.06	0.0278	-0.1764	-0.4862	
-0.264496	0.742004	0.618906	-17.78	27.86	-18.76	0.0379	-0.1629	-0.4939	
-0.288774	0.732	0.616954	-18.83	26.53	-19.67	0.0439	-0.1722	-0.5047	
-0.302194	0.732122	0.621102	-16.94	27.16	-20.79	0.0395	-0.1675	-0.5016	
-0.31781	0.723582	0.617442	-18.34	26.74	-21.84	0.0496	-0.1722	-0.4879	
-0.329644	0.721264	0.627934	-18.97	25.34	-23.45	0.0509	-0.1525	-0.5031	
-0.329522	0.703818	0.637206	-20.23	24.64	-25.06	0.0583	-0.1617	-0.5017	
-0.335012	0.681614	0.639646	-22.82	23.8	-26.04	0.061	-0.1541	-0.4925	
-0.337452	0.678564	0.650748	-22.96	24.01	-26.95	0.0683	-0.1497	-0.5002	
-0.345382	0.679296	0.64721	-22.4	23.59	-28.91	0.0799	-0.1484	-0.5003	
-0.348066	0.666242	0.656848	-22.26	24.22	-29.75	0.08109999	-0.1377	-0.4911	
-0.352458	0.649528	0.658556	-24.29	25.83	-30.31	0.0854	-0.1363	-0.4911	
-0.374906	0.63806	0.654164	-22.82	27.37	-31.22	0.0897	-0.1302	-0.4896	
-0.38613	0.61488	0.655384	-22.33	28.42	-31.85	0.0983	-0.1288	-0.4789	
-0.389058	0.59292	0.660386	-22.54	28.35	-31.64	0.1085	-0.1199	-0.4958	
-0.396012	0.597434	0.661606	-19.18	28.7	-32.13	0.104	-0.1107	-0.4927	
-0.409554	0.589016	0.656604	-22.12	30.31	-31.43	0.1041	-0.1198	-0.4912	
-0.42151	0.568276	0.64904	-24.92	30.1	-30.52	0.1124	-0.0941	-0.4866	
-0.439566	0.561322	0.643672	-26.39	29.19	-29.82	0.1197	-0.0957	-0.4912	
-0.463478	0.541802	0.636962	-28.7	27.72	-29.19	0.1313	-0.0959	-0.4898	
-0.468602	0.523868	0.64233	-28.49	26.32	-28.28	0.14	-0.0884	-0.4898	
-0.477752	0.520574	0.64538	-28.07	26.95	-26.67	0.1399	-0.0854	-0.4868	
-0.500078	0.513376	0.652212	-28.21	26.39	-26.25	0.1398	-0.0839	-0.4822	
-0.528016	0.48312	0.637084	-32.41	24.64	-26.18	0.1629	-0.069	-0.4808	
-0.533994	0.456158	0.647088	-32.9	22.68	-25.69	0.157	-0.0613	-0.4929	
-0.55632	0.449082	0.676002	-29.19	21.56	-25.34	0.1569	-0.0537	-0.4853	
-0.591212	0.45506	0.66978	-27.79	21.14	-26.11	0.1641	-0.0462	-0.4884	
-0.599264	0.44164	0.671366	-28.35	18.41	-27.72	0.1626	-0.0462	-0.4883	
-0.601704	0.428708	0.667706	-28.56	17.85	-27.58	0.1611	-0.0432	-0.4899	
-0.632448	0.403454	0.65819	-29.4	15.05	-28	0.1667	-0.0295	-0.4822	
-0.632814	0.378688	0.66124	-29.33	13.02	-28.49	0.1753	-0.0251	-0.4761	
-0.630496	0.379664	0.683932	-23.17	11.76	-30.03	0.1724	-0.0235	-0.4822	
-0.638792	0.366488	0.657336	-24.71	11.76	-29.89	0.178	-0.0054	-0.4868	
-0.646356	0.34343	0.685518	-25.48	16.45	-25.41	0.1809	-0.0085	-0.4777	
-0.646722	0.34343	0.684908	-20.58	15.75	-23.38	0.181	-0.01	-0.4899	
-0.657336	0.328668	0.675148	-23.1	15.19	-21.63	0.1808	0.0005	-0.4837	
-0.673196	0.316346	0.680028	-22.54	15.4	-19.74	0.178	-0.0024	-0.4868	
-0.671244	0.303048	0.686006	-20.3	13.16	-18.55	0.1806	0.0173	-0.4837	
-0.69296	0.29585	0.675758	-19.46	13.58	-17.57	0.1834	0.0157	-0.4745	
-0.704306	0.281088	0.67527	-19.46	12.6	-16.1	0.1951	0.014	-0.4838	
-0.712846	0.275476	0.666852	-16.52	10.71	-15.05	0.1951	0.014	-0.4731	
-0.733464	0.272548	0.66673	-15.12	9.24	-13.86	0.1892	0.0187	-0.473	
-0.746152	0.27938	0.678076	-11.97	9.38	-13.3	0.1921	0.0217	-0.4761	
-0.75396	0.258396	0.66734	-13.09	8.68	-11.69	0.2005	0.0368	-0.47	
-0.740784	0.252174	0.677344	-8.33	6.37	-10.78	0.2049	0.0382	-0.467	
-0.73566	0.236314	0.668194	-8.19	6.3	-9.66	0.1963	0.0338	-0.4761	
-0.734684	0.229482	0.671488	-5.6	5.95	-8.61	0.1947	0.0353	-0.4669	
-0.716384	0.220576	0.671366	-4.2	5.95	-7.28	0.2005	0.0398	-0.4746	
-0.706624	0.218502	0.671	-2.94	4.76	-6.16	0.2006	0.0352	-0.4716	
-0.706868	0.23241	0.67344	-1.61	4.2	-4.48	0.1974	0.052	-0.473	
-0.690764	0.231068	0.680272	-1.12	6.3	-3.22	0.1932	0.0384	-0.4669	
-0.68381	0.234484	0.679174	-0.56	7.21	-1.82	0.2033	0.0413	-0.4639	
-0.686738	0.238876	0.684054	0.21	7.98	-0.63	0.2048	0.0398	-0.4609	
-0.69662	0.24583	0.67405	-0.07	9.17	0.56	0.2035	0.0352	-0.4762	
-0.718092	0.244732	0.665266	-1.19	9.1	1.26	0.2107	0.0306	-0.4609	
-0.716384	0.249124	0.662338	0.21	9.03	1.89	0.2063	0.0397	-0.4655	
-0.72529	0.260592	0.65758	-0.21	8.12	2.17	0.2061	0.0549	-0.4639	
-0.742004	0.260226	0.648064	-0.77	7.56	2.17	0.2134	0.0442	-0.4594	
-0.742126	0.260226	0.645014	-0.42	7.21	1.89	0.2135	0.0381	-0.4609	
-0.72895	0.259128	0.65087	1.54	5.74	1.61	0.2091	0.0397	-0.4594	
-0.743468	0.262056	0.646966	2.45	4.97	2.17	0.2134	0.0427	-0.4517	
-0.775066	0.257908	0.643428	2.38	3.99	3.43	0.2134	0.0442	-0.4563	
-0.779702	0.255712	0.635254	2.87	3.43	4.48	0.215	0.035	-0.464	
-0.771284	0.25681	0.639524	5.11	1.19	4.55	0.2178	0.0411	-0.4579	
-0.766526	0.253638	0.630984	5.74	-0.56	4.48	0.2061	0.0489	-0.4578	
-0.749446	0.253882	0.63989	6.02	-2.1	5.18	0.215	0.0351	-0.4548	
-0.759084	0.25925	0.634156	6.72	-4.2	5.81	0.2121	0.0457	-0.4731	
-0.766648	0.251564	0.645624	7.42	-4.62	7.56	0.2149	0.0396	-0.4548	
-0.758718	0.250588	0.645258	10.5	-4.06	10.01	0.2194	0.038	-0.4671	
-0.753472	0.261812	0.645136	11.27	-6.51	11.27	0.2121	0.0381	-0.4609	
-0.738222	0.263886	0.640622	10.01	-10.08	11.83	0.2094	0.0245	-0.464	
-0.739442	0.262178	0.648186	12.11	-8.89	12.53	0.2079	0.029	-0.4747	
-0.754326	0.27206	0.642086	13.86	-10.99	13.86	0.2108	0.026	-0.464	
-0.760304	0.277184	0.651724	14.63	-11.76	15.96	0.2093	0.029	-0.4655	
-0.743224	0.284626	0.636108	15.96	-14.21	17.57	0.2111	0.0123	-0.4702	
-0.747738	0.29158	0.635376	18.76	-17.01	19.95	0.1936	0.0095	-0.4685	
-0.731512	0.30012	0.630618	19.81	-19.25	21.28	0.2038	0.0109	-0.4732	
-0.7259	0.3111	0.637816	22.05	-21.21	22.33	0.1997	-0.0057	-0.4747	
-0.715286	0.322812	0.63379	22.82	-21.98	23.52	0.1954	-0.0087	-0.4732	
-0.706136	0.3355	0.631716	25.55	-24.08	24.71	0.1968	-0.0026	-0.4747	
-0.68991	0.356362	0.636352	26.88	-25.2	26.11	0.1853	-0.008599999	-0.4869	
-0.670146	0.364292	0.63318	30.45	-28.56	25.27	0.1868	-0.0161	-0.4762	
-0.64111	0.377956	0.634522	30.31	-29.33	26.39	0.1826	-0.0298	-0.4747	
-0.62708	0.401746	0.644648	34.02	-31.71	27.23	0.1756	-0.0418	-0.4792	
-0.614758	0.42639	0.640988	34.72	-34.23	26.95	0.1784	-0.0358	-0.4854	
-0.595238	0.446642	0.646234	34.72	-33.39	28.21	0.1699	-0.0463	-0.4884	
-0.571448	0.46726	0.639158	34.58	-32.27	29.61	0.1526	-0.0582	-0.4868	
-0.545096	0.47885	0.655506	36.47	-31.85	30.38	0.1687	-0.0645	-0.49	
-0.526796	0.492758	0.63745	33.32	-31.64	31.78	0.1585	-0.0674	-0.4823	
-0.512766	0.506056	0.64477	34.93	-32.55	32.55	0.1428	-0.0809	-0.4944	
-0.498492	0.524112	0.652334	34.58	-29.54	34.72	0.1297	-0.0852	-0.4882	
-0.490806	0.541436	0.641476	34.51	-29.89	34.93	0.137	-0.0884	-0.4837	
-0.460794	0.544364	0.639524	33.81	-28.98	36.4	0.1169	-0.0972	-0.4943	
-0.45079	0.564616	0.637816	33.53	-27.16	37.52	0.1229	-0.1125	-0.4959	
-0.445422	0.584136	0.62342	34.65	-26.81	37.03	0.117	-0.1094	-0.4943	
-0.429562	0.595604	0.639402	36.68	-26.46	36.89	0.1157	-0.1154	-0.4913	
-0.414312	0.617808	0.63318	37.38	-27.3	37.38	0.1158	-0.1261	-0.4913	
-0.402112	0.63684	0.626592	35.84	-26.95	37.31	0.1029	-0.1365	-0.4928	
-0.395402	0.655018	0.615612	33.6	-27.58	37.17	0.1001	-0.1456	-0.4928	
-0.375882	0.668072	0.61305	33.88	-28.7	36.89	0.0914	-0.144	-0.4927	
-0.351238	0.67039	0.600118	31.15	-29.61	37.03	0.0884	-0.1393	-0.4911	
-0.323788	0.676246	0.608658	32.06	-31.29	37.87	0.0756	-0.1635	-0.4865	
-0.31049	0.709064	0.609512	32.62	-31.71	39.06	0.0784	-0.1529	-0.4896	
-0.284748	0.729072	0.603412	30.24	-31.85	40.53	0.0699	-0.1709	-0.4788	
-0.262544	0.747494	0.596092	28.07	-30.8	41.02	0.0542	-0.189	-0.4849	
-0.231556	0.762256	0.59536	29.4	-29.89	40.74	0.0585	-0.183	-0.4941	
-0.211792	0.765428	0.58316	26.53	-28.56	40.46	0.041	-0.1827	-0.4833	
-0.193004	0.780678	0.574132	27.16	-29.12	40.11	0.0236	-0.1885	-0.4786	
-0.169824	0.77775	0.560956	22.82	-28.77	40.39	0.0353	-0.1917	-0.4817	
-0.149694	0.775188	0.55876	22.4	-28.56	41.44	0.0193	-0.1945	-0.4755	
-0.131882	0.784826	0.560956	21.49	-29.47	42	0.0182	-0.2097	-0.4878	
-0.110166	0.800686	0.564372	20.37	-29.47	42.21	0.0109	-0.2157	-0.4801	
-0.097112	0.820206	0.550708	16.59	-28.84	42.35	0.0094	-0.2111	-0.4755	
-0.07503	0.822402	0.553758	13.09	-26.95	41.51	-0.0079	-0.2154	-0.4769	
-0.042944	0.844728	0.552172	13.37	-28.35	39.41	-0.0165	-0.2213	-0.4753	
-0.02135	0.862296	0.557418	12.11	-26.18	37.24	-0.0223	-0.2243	-0.4768	
-0.006832	0.8723	0.559126	7.28	-25.06	34.3	-0.0209	-0.2273	-0.4692	
0.000366	0.888282	0.555344	6.44	-22.12	30.45	-0.034	-0.2211	-0.4691	
0.004392	0.88145	0.57523	5.25	-18.2	26.11	-0.0368	-0.2256	-0.4782	
0.017324	0.887428	0.564616	2.66	-14.98	21.35	-0.0398	-0.221	-0.4721	
0.025254	0.884744	0.578158	3.15	-13.16	16.8	-0.0457	-0.2209	-0.4628	
0.02379	0.875838	0.566324	0.84	-11.06	12.88	-0.0586	-0.2268	-0.475	
0.020618	0.860832	0.56547	-0.21	-8.33	10.36	-0.0557	-0.2329	-0.4582	
0.00549	0.857172	0.563274	-0.21	-6.37	8.19	-0.0499	-0.2269	-0.4766	
-0.005978	0.845826	0.558638	0.07	-5.95	6.09	-0.0601	-0.2252	-0.4735	
-0.019154	0.820206	0.548756	0.63	-6.09	4.69	-0.0615	-0.2343	-0.4674	
-0.024644	0.8052	0.5429	0.91	-7.49	5.04	-0.0673	-0.2312	-0.4642	
-0.039894	0.794586	0.53924	0.84	-8.54	6.3	-0.0585	-0.2359	-0.4689	
-0.06832	0.798002	0.540582	1.61	-11.83	7.98	-0.0687	-0.2342	-0.4673	
-0.08686399	0.80398	0.534848	-1.4	-14.63	10.01	-0.0746	-0.2281	-0.4718	
-0.093208	0.800076	0.5307	-4.13	-17.5	11.69	-0.0704	-0.2175	-0.4642	
-0.098942	0.790194	0.514962	-5.67	-19.18	13.79	-0.0761	-0.228	-0.4642	
-0.098698	0.792756	0.519598	-4.97	-23.38	15.54	-0.08329999	-0.228	-0.4779	
-0.091866	0.801174	0.529968	-5.6	-26.39	17.92	-0.079	-0.228	-0.4626	
-0.08295999	0.79666	0.521184	-9.17	-28.56	20.58	-0.0906	-0.2218	-0.4732	
-0.078568	0.780434	0.518988	-13.93	-31.5	23.24	-0.0878	-0.2203	-0.4717	
-0.069052	0.783484	0.515694	-16.73	-35.14	25.62	-0.1097	-0.2108	-0.4669	
-0.057218	0.770064	0.519598	-20.65	-39.13	28	-0.1097	-0.2108	-0.4654	
-0.030134	0.77836	0.52155	-21.28	-43.26	30.59	-0.1316	-0.2074	-0.4576	
0.000244	0.76738	0.520452	-23.94	-48.16	32.41	-0.13	-0.2136	-0.4729	
0.034892	0.759816	0.54473	-23.24	-53.48	34.65	-0.1418	-0.2058	-0.4636	
0.063562	0.758962	0.544364	-28.63	-56.42	36.68	-0.152	-0.1996	-0.4697	
0.091866	0.745298	0.535702	-32.55	-59.29	37.17	-0.1593	-0.1979	-0.4635	
0.129076	0.728706	0.516304	-35.91	-62.16	37.31	-0.1682	-0.1887	-0.4634	
0.184952	0.734318	0.547048	-34.23	-66.22	36.4	-0.1812	-0.1946	-0.4648	
0.2196	0.742248	0.56791	-35.84	-67.2	36.54	-0.2032	-0.1775	-0.4616	
0.26535	0.719312	0.57584	-37.38	-66.5	36.75	-0.218	-0.1636	-0.4614	
0.29585	0.709064	0.55205	-41.72	-66.78	35.91	-0.2166	-0.153	-0.4629	
0.285236	0.622322	0.556808	-36.75	-68.25	27.37	-0.2384	-0.1557	-0.4612	
0.378444	0.663192	0.583526	-27.02	-65.66	38.71	-0.2443	-0.1465	-0.4627	
0.374906	0.623054	0.579134	-36.68	-63.07	41.37	-0.2649	-0.1386	-0.4472	
0.434198	0.614392	0.597312	-17.85	-74.9	38.01	-0.265	-0.1295	-0.4487	
0.457012	0.603534	0.598898	-26.04	-70.91	40.6	-0.2869	-0.1246	-0.444	
0.471042	0.603534	0.569252	-36.82	-65.31	45.22	-0.2914	-0.1184	-0.4393	
0.496662	0.602436	0.568276	-48.72	-60.62	47.46	-0.3002	-0.1122	-0.4408	
0.519354	0.601216	0.58255	-43.61	-61.88	38.99	-0.3121	-0.0983	-0.4253	
0.536678	0.596702	0.605486	-24.5	-65.24	33.11	-0.3225	-0.0875	-0.4206	
0.558638	0.562908	0.560468	-7.56	-67.76	32.97	-0.3327	-0.0843	-0.4221	
0.58316	0.530334	0.57401	10.85	-73.01	28.63	-0.334	-0.0949	-0.4114	
0.634644	0.531066	0.559248	12.95	-73.64	25.48	-0.3546	-0.0839	-0.4036	
0.665754	0.538996	0.545096	6.37	-67.69	25.69	-0.3591	-0.0793	-0.3959	
0.68808	0.55022	0.578646	-3.92	-59.99	28.98	-0.3706	-0.0882	-0.3928	
0.655506	0.540094	0.525088	-16.17	-54.18	24.85	-0.3826	-0.0698	-0.3804	
0.711992	0.524966	0.510936	6.44	-58.24	24.15	-0.3811	-0.0683	-0.3804	
0.739808	0.53863	0.547048	6.65	-53.83	26.81	-0.3959	-0.0604	-0.368	
0.734928	0.526674	0.531066	-6.65	-46.27	26.53	-0.4046	-0.0648	-0.3557	
0.749202	0.522038	0.478972	-14.56	-40.32	25.34	-0.4147	-0.0677	-0.3618	
0.783606	0.49105	0.470432	-5.39	-38.71	22.05	-0.4062	-0.0557	-0.3496	
0.82167	0.484828	0.488	9.59	-42.42	24.5	-0.412	-0.0526	-0.3541	
0.8113	0.497272	0.48739	7.42	-37.8	25.83	-0.4151	-0.0494	-0.3434	
0.81923	0.484462	0.454328	-4.06	-32.06	26.6	-0.4223	-0.0584	-0.3326	
0.821548	0.48251	0.461404	3.01	-31.78	26.11	-0.4196	-0.0433	-0.3341	
0.832894	0.475556	0.449082	-0.28	-29.12	24.85	-0.4298	-0.0416	-0.3295	
0.837164	0.472384	0.418948	-0.49	-24.99	24.85	-0.437	-0.0506	-0.3248	
0.832894	0.462258	0.399184	-1.96	-23.31	24.36	-0.4328	-0.0385	-0.3202	
0.845338	0.461038	0.405284	4.2	-24.08	22.26	-0.4344	-0.0324	-0.3141	
0.86742	0.463722	0.393328	3.29	-18.83	19.95	-0.4388	-0.0277	-0.311	
0.87718	0.453718	0.358314	-5.88	-14.56	18.13	-0.4376	-0.0186	-0.3064	
0.889136	0.432124	0.370758	2.8	-14.84	16.24	-0.4448	-0.0231	-0.3048	
0.891454	0.445666	0.405162	14.7	-13.72	13.93	-0.4536	-0.0184	-0.2986	
0.894382	0.448594	0.398086	11.48	-5.46	11.9	-0.4464	-0.0094	-0.3078	
0.901824	0.41419	0.360998	-1.68	0.98	9.17	-0.4564	-0.0184	-0.3108	
0.897798	0.400038	0.370636	9.66	-1.61	7.21	-0.4448	-0.0185	-0.3155	
0.8906	0.416264	0.361364	12.32	-1.54	6.37	-0.4461	-0.0291	-0.3048	
0.883768	0.416996	0.346724	4.34	-0.07	6.23	-0.4463	-0.0185	-0.3033	
0.879498	0.440176	0.376248	13.37	-1.75	4.83	-0.4536	-0.0123	-0.3108	
0.87108	0.450424	0.36905	7.98	3.15	2.66	-0.4463	-0.023	-0.3002	
0.869128	0.424438	0.339526	-2.52	7	0.28	-0.4492	-0.0169	-0.3002	
0.862052	0.427366	0.342698	2.24	3.78	-1.89	-0.4361	-0.0201	-0.3018	
0.857294	0.429074	0.358436	1.89	3.99	-2.45	-0.4462	-0.0246	-0.3033	
0.862052	0.424072	0.347456	-1.4	4.13	-3.71	-0.4462	-0.0215	-0.3063	
0.859368	0.43188	0.35441	2.73	3.71	-4.48	-0.4447	-0.0246	-0.3079	
0.858514	0.43859	0.370758	3.57	3.92	-5.46	-0.4504	-0.0382	-0.3018	
0.856928	0.447618	0.36844	0.84	4.48	-6.79	-0.445	-0.0109	-0.3017	
0.86132	0.445544	0.373442	-1.26	6.51	-7.28	-0.4345	-0.0248	-0.3125	
0.85827	0.44896	0.387716	-2.1	7	-8.26	-0.4418	-0.0216	-0.311	
0.872544	0.449448	0.383446	-4.06	10.43	-9.03	-0.449	-0.023	-0.3186	
0.869982	0.446886	0.385398	-5.81	11.34	-9.87	-0.4491	-0.0261	-0.3079	
0.869372	0.468602	0.400648	-5.04	12.95	-10.22	-0.4433	-0.0201	-0.3171	
0.869006	0.475312	0.410896	-9.8	17.85	-10.85	-0.4388	-0.0262	-0.3156	
0.86193	0.463478	0.415532	-12.67	21.28	-12.81	-0.433	-0.0278	-0.311	
0.859612	0.457012	0.419802	-12.53	23.31	-14.35	-0.427	-0.0371	-0.3279	
0.841678	0.46177	0.430416	-11.41	27.23	-17.22	-0.4241	-0.0341	-0.3356	
0.834724	0.4514	0.429928	-13.02	30.38	-18.83	-0.4299	-0.0325	-0.3294	
0.823622	0.455182	0.440542	-10.5	31.64	-20.02	-0.4269	-0.0356	-0.3356	
0.814838	0.465064	0.443958	-11.62	32.83	-21.7	-0.4197	-0.0327	-0.3448	
0.799466	0.465186	0.462136	-10.71	34.37	-21.84	-0.4196	-0.0372	-0.3463	
0.784216	0.465674	0.470066	-11.62	36.89	-22.61	-0.402	-0.0466	-0.3496	
0.767014	0.4819	0.468602	-7.7	38.64	-23.1	-0.4092	-0.0496	-0.3556	
0.751276	0.473482	0.482754	-5.11	40.39	-24.08	-0.3977	-0.0391	-0.3588	
0.728218	0.487146	0.484828	-0.07	41.16	-24.57	-0.4019	-0.0436	-0.3679	
0.707966	0.493368	0.488366	-1.47	42.21	-24.85	-0.3946	-0.0483	-0.3665	
0.68686	0.504226	0.501298	1.19	41.3	-25.41	-0.3946	-0.0407	-0.3756	
0.67222	0.509716	0.51972	1.68	41.09	-25.41	-0.3769	-0.0623	-0.3789	
0.656116	0.51301	0.530212	-3.43	41.86	-25.69	-0.3739	-0.0623	-0.385	
0.645136	0.532042	0.545706	-0.14	40.39	-26.53	-0.3797	-0.0623	-0.3957	
0.633424	0.546194	0.5551	1.05	41.79	-26.88	-0.3636	-0.0686	-0.3943	
0.625372	0.554978	0.573522	4.83	42.98	-27.93	-0.3665	-0.0686	-0.3958	
0.63318	0.569252	0.59719	8.05	44.8	-29.89	-0.3591	-0.0748	-0.4004	
0.615368	0.576938	0.601094	0.98	48.51	-32.27	-0.3429	-0.08109999	-0.4189	
0.592676	0.571936	0.608658	0.91	50.89	-33.04	-0.3387	-0.0706	-0.422	
0.571936	0.590236	0.628178	5.6	51.17	-34.02	-0.3283	-0.0814	-0.4252	
0.556808	0.610854	0.648552	10.85	53.62	-35.7	-0.3327	-0.0828	-0.4206	
0.52399	0.605486	0.638914	14.14	55.93	-37.73	-0.318	-0.0906	-0.4314	
0.504104	0.605486	0.650992	17.08	56.14	-40.39	-0.3047	-0.09999999	-0.4453	
0.470066	0.604144	0.653188	16.45	59.08	-43.19	-0.293	-0.1093	-0.4408	
0.456158	0.603046	0.651724	19.18	61.6	-45.71	-0.2929	-0.1032	-0.4546	
0.426268	0.58438	0.65392	13.37	64.33	-43.96	-0.2812	-0.111	-0.4608	
0.404918	0.609268	0.650138	15.61	64.82	-41.09	-0.252	-0.1221	-0.4534	
0.310856	0.593164	0.649406	-0.98	70.84	-37.24	-0.2533	-0.1282	-0.4626	
0.303048	0.60878	0.630496	14.91	64.61	-40.53	-0.2388	-0.1314	-0.455	
0.25986	0.59902	0.621102	14.7	61.74	-37.8	-0.2168	-0.1424	-0.4644	
0.235948	0.63074	0.625128	26.95	57.54	-37.24	-0.2109	-0.1425	-0.4782	
0.157868	0.657702	0.63867	22.75	64.68	-27.72	-0.2108	-0.1516	-0.4675	
0.16531	0.660386	0.616954	23.94	58.73	-33.32	-0.1934	-0.1488	-0.4753	
0.147742	0.673806	0.624518	27.79	52.64	-37.1	-0.1888	-0.1596	-0.483	
0.12505	0.687592	0.632936	32.48	51.03	-35.84	-0.1699	-0.1644	-0.4817	
0.11224	0.681248	0.599508	23.1	51.24	-34.86	-0.1538	-0.1722	-0.4803	
0.079666	0.67893	0.596336	16.03	49.14	-32.76	-0.1625	-0.166	-0.4848	
0.052338	0.696132	0.598776	15.96	47.11	-30.73	-0.1436	-0.1724	-0.4758	
0.015982	0.708088	0.599996	15.75	45.92	-27.58	-0.1436	-0.1739	-0.4819	
0.012444	0.70699	0.596702	18.13	40.32	-26.18	-0.1245	-0.1863	-0.4836	
0.009028	0.719922	0.614758	14.7	36.19	-24.01	-0.1258	-0.1969	-0.4775	
-0.002684	0.714066	0.59475	4.06	37.94	-19.11	-0.1071	-0.1775	-0.4913	
-0.002318	0.704916	0.583526	0.21	38.22	-15.96	-0.1013	-0.1806	-0.4853	
-0.070028	0.705526	0.58621	-6.58	38.71	-11.2	-0.1013	-0.1836	-0.4837	
-0.067588	0.709796	0.581574	-2.94	30.24	-11.83	-0.0954	-0.1898	-0.4869	
-0.083936	0.746152	0.611586	3.57	26.11	-10.43	-0.0997	-0.1897	-0.4853	
-0.101138	0.755668	0.608048	-1.05	25.06	-10.08	-0.0823	-0.184	-0.4992	
-0.092354	0.75396	0.617076	-0.77	21.7	-10.71	-0.0822	-0.19	-0.5007	
-0.081984	0.743468	0.607438	-2.87	20.23	-9.73	-0.0735	-0.1856	-0.4993	
-0.081984	0.731756	0.620736	-1.47	16.45	-8.26	-0.0708	-0.1795	-0.4855	
-0.077226	0.752496	0.616588	-1.75	13.3	-7.98	-0.0779	-0.1901	-0.4946	
-0.0671	0.747006	0.641354	-3.43	10.43	-8.54	-0.0722	-0.1826	-0.4901	
-0.042944	0.748714	0.640134	-1.82	10.29	-8.75	-0.0634	-0.1872	-0.4871	
-0.01464	0.765184	0.656604	2.38	9.24	-9.52	-0.0619	-0.1888	-0.4917	
-0.010858	0.761646	0.655872	2.1	10.36	-9.59	-0.0693	-0.1841	-0.4916	
-0.01586	0.76799	0.645868	0.98	11.55	-10.08	-0.0563	-0.1722	-0.4917	
-0.018666	0.790072	0.654896	2.45	12.6	-12.11	-0.0577	-0.1828	-0.4856	
-0.029158	0.804956	0.648796	0.21	15.4	-13.72	-0.0577	-0.1813	-0.4887	
-0.034526	0.809348	0.648064	-3.01	17.85	-15.4	-0.0533	-0.1844	-0.4902	
-0.038186	0.809226	0.65453	-3.64	19.39	-16.94	-0.0445	-0.1921	-0.4888	
-0.036722	0.811056	0.64965	-6.65	21.28	-18.83	-0.0388	-0.1831	-0.4888	
-0.050752	0.801418	0.647942	-9.45	23.87	-19.88	-0.0461	-0.1754	-0.4979	
-0.057828	0.795196	0.642818	-13.02	25.83	-20.86	-0.0372	-0.1861	-0.4949	
-0.061122	0.78629	0.643306	-14.56	28.91	-21.7	-0.0244	-0.1696	-0.495	
-0.06222	0.766892	0.658068	-15.05	30.45	-22.47	-0.0286	-0.1726	-0.5057	
-0.07137	0.760304	0.64477	-18.41	34.09	-22.4	-0.017	-0.1773	-0.5027	
-0.087718	0.772626	0.63501	-20.86	36.96	-22.89	-0.0143	-0.1667	-0.495	
-0.100162	0.758108	0.641476	-21.84	40.04	-23.52	0.0002	-0.1639	-0.5028	
-0.099796	0.736148	0.648308	-22.82	41.72	-23.87	0.006	-0.164	-0.4998	
-0.09699	0.724436	0.649894	-22.75	42	-23.52	0.0132	-0.1641	-0.5014	
-0.099186	0.70821	0.639158	-28.7	46.76	-20.86	0.0247	-0.1536	-0.5029	
-0.109434	0.715652	0.637572	-28.14	49.42	-20.44	0.0333	-0.1477	-0.4984	
-0.15677	0.7198	0.640256	-31.36	52.01	-20.02	0.0377	-0.1402	-0.5137	
-0.189832	0.712968	0.633302	-34.79	53.48	-19.46	0.0435	-0.1448	-0.5076	
-0.229482	0.699182	0.662094	-31.78	53.27	-20.09	0.0549	-0.1298	-0.5031	
-0.26657	0.708454	0.64843	-32.76	58.66	-20.58	0.07229999	-0.1194	-0.5108	
-0.321836	0.71248	0.63196	-33.39	56.84	-25.76	0.0722	-0.1224	-0.5017	
-0.376614	0.684664	0.634156	-36.26	55.79	-30.24	0.0822	-0.1104	-0.5032	
-0.418704	0.656238	0.63013	-35.84	56.63	-33.67	0.0938	-0.1121	-0.4957	
-0.454328	0.589138	0.62708	-30.59	53.69	-41.09	0.1183	-0.0988	-0.4943	
-0.456158	0.576328	0.64538	-22.61	49.07	-44.38	0.1181	-0.08199999	-0.4912	
-0.462502	0.582428	0.648674	-25.2	42	-47.39	0.1253	-0.0821	-0.4882	
-0.477874	0.555832	0.633668	-30.24	39.34	-49.84	0.1457	-0.084	-0.4929	
-0.500078	0.527406	0.624396	-36.68	37.66	-49.49	0.147	-0.0703	-0.5005	
-0.522648	0.501664	0.624396	-34.02	32.34	-51.52	0.1469	-0.0672	-0.4852	
-0.526064	0.47153	0.634034	-35	29.82	-52.78	0.1598	-0.0523	-0.4975	
-0.526064	0.441518	0.627934	-37.87	29.05	-51.24	0.1626	-0.0447	-0.4914	
-0.537654	0.428708	0.638914	-36.05	27.58	-50.61	0.1682	-0.0281	-0.4883	
-0.54839	0.414678	0.653798	-40.95	27.37	-48.93	0.1666	-0.028	-0.4791	
-0.560712	0.401258	0.636596	-39.48	27.37	-48.51	0.1783	-0.0267	-0.4853	
-0.580964	0.383934	0.64904	-40.32	26.88	-47.81	0.1783	-0.0267	-0.4853	
-0.607316	0.369172	0.65941	-39.34	26.81	-46.69	0.1807	0.0082	-0.4776	
-0.625128	0.350872	0.668438	-40.04	28.91	-43.33	0.1807	0.0082	-0.4776	
-0.646112	0.33123	0.675758	-39.83	31.71	-40.46	0.1863	0.0263	-0.4837	
-0.682102	0.2928	0.67283	-41.58	36.68	-37.17	0.1977	0.0322	-0.4761	
-0.684054	0.26047	0.68137	-38.5	27.58	-35.84	0.1977	0.0322	-0.4761	
-0.706014	0.23607	0.678808	-37.24	29.82	-33.11	0.2033	0.0458	-0.47	
-0.720532	0.199836	0.680272	-37.03	31.08	-29.75	0.2047	0.0473	-0.4654	
-0.726998	0.175314	0.674782	-33.81	26.53	-28	0.2001	0.0611	-0.4577	
-0.737124	0.1708	0.688324	-29.75	23.87	-26.11	0.2001	0.0611	-0.4577	
-0.745908	0.173606	0.684908	-25.69	21.42	-24.36	0.2175	0.0639	-0.4578	
-0.755912	0.150914	0.669536	-26.67	21	-23.17	0.2129	0.0777	-0.4547	
-0.754814	0.134932	0.676856	-25.9	22.47	-19.53	0.21	0.07319999	-0.447	
-0.75518	0.11407	0.654774	-26.39	22.54	-17.71	0.2231	0.0805	-0.4532	
-0.761524	0.107238	0.661606	-22.89	22.89	-15.26	0.2155	0.0989	-0.4485	
-0.770918	0.096014	0.641964	-22.4	22.82	-13.23	0.2183	0.1034	-0.4409	
-0.791414	0.086132	0.644404	-19.53	23.03	-11.48	0.2329	0.1032	-0.4471	
-0.797392	0.08295999	0.634156	-17.92	21.91	-10.43	0.2373	0.0971	-0.4456	
-0.812398	0.083936	0.628178	-16.24	21.14	-8.96	0.2355	0.1093	-0.4272	
-0.83448	0.081374	0.614026	-15.54	19.39	-8.19	0.2254	0.111	-0.4363	
-0.854488	0.0732	0.610854	-14.84	17.08	-7.56	0.2371	0.1093	-0.4395	
-0.858392	0.065636	0.598654	-12.25	13.3	-7.35	0.24	0.1062	-0.441	
-0.859246	0.064294	0.594506	-9.45	10.43	-6.93	0.2369	0.1154	-0.4242	
-0.845338	0.059048	0.60329	-7.28	7.35	-6.23	0.2369	0.1229	-0.4394	
-0.8357	0.057706	0.605608	-4.76	3.92	-6.02	0.2354	0.12	-0.4257	
-0.831064	0.048678	0.60573	-3.01	2.94	-5.11	0.2353	0.1245	-0.4195	
-0.81191	0.05063	0.614392	-1.33	0.21	-4.06	0.2353	0.1291	-0.4256	
-0.81618	0.050874	0.613538	0.21	-1.33	-3.29	0.2397	0.1229	-0.4242	
-0.834236	0.05246	0.625494	1.19	-2.52	-2.17	0.2324	0.123	-0.4241	
-0.838628	0.03721	0.624396	2.17	-3.36	-1.19	0.2441	0.1198	-0.4318	
-0.822158	0.030866	0.62891	4.27	-2.94	0.63	0.2413	0.1198	-0.4364	
-0.815082	0.040016	0.631594	8.19	-4.41	1.61	0.2456	0.1183	-0.4242	
-0.815814	0.042212	0.627324	8.61	-6.37	2.87	0.2369	0.1184	-0.4379	
-0.821792	0.055754	0.634034	10.5	-8.54	3.71	0.2414	0.1153	-0.4425	
-0.827282	0.065514	0.629154	11.06	-8.82	5.25	0.2456	0.1167	-0.4319	
-0.824476	0.067466	0.630008	12.25	-8.54	7.14	0.2399	0.1153	-0.4364	
-0.81496	0.06527	0.632692	14.84	-9.45	8.96	0.2384	0.1138	-0.4349	
-0.820816	0.071858	0.640012	17.29	-10.5	10.92	0.2255	0.1079	-0.4425	
-0.815082	0.077104	0.645502	19.74	-11.27	12.18	0.2443	0.1152	-0.4395	
-0.798856	0.082106	0.639524	21.98	-13.02	14.49	0.2356	0.1047	-0.4334	
-0.812398	0.10187	0.635132	23.24	-15.33	16.45	0.2329	0.1032	-0.4471	
-0.809958	0.11285	0.644648	23.59	-14.56	19.18	0.233	0.0926	-0.4487	
-0.796172	0.13176	0.635742	25.55	-16.17	20.23	0.2316	0.0865	-0.4426	
-0.787998	0.138958	0.63623	27.93	-16.94	21.56	0.2374	0.0895	-0.4487	
-0.781776	0.15311	0.630618	29.4	-18.9	22.33	0.2244	0.0806	-0.4333	
-0.776164	0.16958	0.62464	30.59	-20.3	23.24	0.2332	0.0759	-0.4441	
-0.766892	0.184586	0.61488	31.71	-22.68	23.73	0.2262	0.0638	-0.4533	
-0.744444	0.21167	0.63562	36.26	-24.57	24.22	0.2147	0.0563	-0.4563	
-0.721386	0.23424	0.628544	35.35	-27.02	24.5	0.2206	0.0517	-0.4655	
-0.717604	0.236192	0.634888	34.93	-26.74	25.62	0.2163	0.0502	-0.4701	
-0.698572	0.255834	0.643428	37.66	-28.77	25.97	0.2078	0.0397	-0.4701	
-0.686006	0.281942	0.639402	36.82	-29.54	26.74	0.2136	0.0366	-0.4625	
-0.66795	0.29097	0.653066	38.08	-31.08	27.02	0.2022	0.0261	-0.4731	
-0.657458	0.320128	0.648918	38.29	-31.57	26.81	0.1922	0.0141	-0.4792	
-0.65636	0.332206	0.652456	39.55	-32.62	26.88	0.1923	0.0065	-0.4746	
-0.631716	0.362218	0.668682	42.7	-32.06	27.23	0.1996	0.0048	-0.4778	
-0.618296	0.375028	0.664412	40.6	-32.62	28	0.1925	-0.008599999	-0.4732	
-0.615124	0.39223	0.658434	42.14	-33.39	28.84	0.1912	-0.0177	-0.4732	
-0.607682	0.40809	0.657458	40.81	-32.41	30.24	0.1825	-0.0146	-0.4869	
-0.58133	0.426268	0.660264	42.21	-33.81	31.36	0.1754	-0.0267	-0.4914	
-0.568886	0.435296	0.655628	40.88	-33.39	33.74	0.1653	-0.0356	-0.4853	
-0.553514	0.442372	0.653188	41.72	-33.04	35.49	0.1656	-0.0493	-0.493	
-0.537166	0.46665	0.647942	42.49	-32.2	37.73	0.1554	-0.0461	-0.4975	
-0.503128	0.500688	0.644648	45.15	-33.39	38.92	0.1412	-0.0748	-0.4837	
-0.48922	0.523868	0.639524	45.08	-35.49	40.53	0.1413	-0.0809	-0.4929	
-0.475068	0.540094	0.63623	44.24	-36.47	42.35	0.1197	-0.0866	-0.4989	
-0.46421	0.565836	0.61915	48.02	-33.74	42.07	0.1214	-0.111	-0.4928	
-0.4514	0.574986	0.614758	45.43	-33.11	43.96	0.1098	-0.1138	-0.4851	
-0.423218	0.598776	0.619028	49.07	-32.9	44.73	0.1128	-0.1124	-0.4989	
-0.402478	0.63013	0.624518	49.98	-33.25	44.73	0.1072	-0.1305	-0.4974	
-0.377468	0.66429	0.61122	51.1	-32.83	44.38	0.09119999	-0.1318	-0.4881	
-0.33916	0.685884	0.61366	49.42	-33.39	45.36	0.0944	-0.1501	-0.4943	
-0.30012	0.7198	0.616588	47.11	-33.81	46.76	0.0928	-0.147	-0.4881	
-0.260104	0.731634	0.608536	40.74	-35	48.58	0.0814	-0.1605	-0.4866	
-0.241926	0.74542	0.59963	38.43	-30.66	48.51	0.0713	-0.1695	-0.4865	
-0.246806	0.769698	0.582184	36.12	-30.8	47.67	0.0613	-0.1754	-0.488	
-0.237412	0.787754	0.565714	34.93	-30.24	45.92	0.0571	-0.1845	-0.491	
-0.218014	0.800808	0.557418	33.25	-28.84	44.45	0.0426	-0.1934	-0.4848	
-0.19093	0.799832	0.534604	30.1	-29.61	42.63	0.0412	-0.1979	-0.4864	
-0.148596	0.807152	0.536312	30.66	-30.66	41.79	0.028	-0.1931	-0.4801	
-0.139934	0.816058	0.527772	24.36	-28.21	41.58	0.0252	-0.1992	-0.4786	
-0.134688	0.841678	0.537288	26.32	-24.57	40.39	0.0211	-0.2143	-0.4801	
-0.119316	0.850096	0.520208	18.2	-20.93	39.76	0.0123	-0.2157	-0.4724	
-0.104798	0.86376	0.52765	18.69	-22.68	35.91	0.0081	-0.2217	-0.477	
-0.093696	0.874008	0.532042	14.07	-19.11	34.23	0.0008	-0.2201	-0.4724	
-0.083692	0.8845	0.546682	12.46	-18.69	30.52	-0.0151	-0.2214	-0.4768	
-0.082472	0.877546	0.539972	7.98	-18.2	26.53	-0.0092	-0.2245	-0.4769	
-0.077226	0.870714	0.545828	6.37	-14.98	23.38	-0.0049	-0.226	-0.4708	
-0.078934	0.866078	0.54473	3.92	-12.04	21.28	-0.0164	-0.235	-0.4662	
-0.063684	0.859368	0.553148	4.69	-12.11	16.87	-0.0208	-0.2349	-0.4661	
-0.062342	0.845704	0.548024	1.47	-11.06	15.12	-0.0295	-0.2272	-0.4737	
-0.064538	0.83875	0.544242	2.17	-10.36	13.93	-0.031	-0.2287	-0.466	
-0.074908	0.838018	0.549122	2.31	-9.66	13.16	-0.0309	-0.2318	-0.4752	
-0.088084	0.829966	0.53436	-0.07	-8.89	13.3	-0.0267	-0.2272	-0.4615	
-0.101382	0.815448	0.519598	-1.05	-9.94	13.79	-0.0369	-0.2256	-0.4645	
-0.111264	0.813008	0.511912	-1.26	-12.32	15.05	-0.0396	-0.2346	-0.4691	
-0.12322	0.822524	0.511424	-1.96	-15.26	16.66	-0.0352	-0.2362	-0.4721	
-0.125416	0.82106	0.505812	-4.83	-17.99	17.78	-0.0454	-0.2346	-0.4767	
-0.116388	0.831674	0.51118	-4.41	-20.65	18.69	-0.0442	-0.2255	-0.4659	
-0.11407	0.83631	0.520574	-3.85	-22.26	19.67	-0.0455	-0.2285	-0.469	
-0.11529	0.834846	0.51484	-6.44	-23.66	21.63	-0.057	-0.2359	-0.475	
-0.09942999	0.827892	0.513498	-9.31	-25.97	22.96	-0.0573	-0.2268	-0.4582	
-0.096014	0.814838	0.515206	-10.99	-28.7	24.01	-0.069	-0.2099	-0.4749	
-0.08601	0.81252	0.516792	-12.74	-31.29	24.78	-0.06439999	-0.2237	-0.478	
-0.08113	0.795196	0.525332	-15.4	-34.16	26.11	-0.0834	-0.2234	-0.4641	
-0.063928	0.7869	0.52643	-15.12	-37.1	27.44	-0.0848	-0.2203	-0.4763	
-0.046726	0.795562	0.526674	-13.93	-39.97	28.35	-0.0878	-0.2203	-0.4748	
-0.002318	0.782874	0.524234	-16.31	-42.91	29.61	-0.0949	-0.2217	-0.4824	
0.02257	0.765428	0.532042	-19.32	-45.22	32.41	-0.1111	-0.2124	-0.4792	
0.049044	0.76372	0.516914	-19.04	-46.69	34.02	-0.1154	-0.2184	-0.473	
0.040504	0.74603	0.500444	-26.04	-48.44	35.28	-0.1316	-0.1999	-0.4805	
0.112484	0.747006	0.52094	-21.35	-56.42	35.14	-0.149	-0.2027	-0.4712	
0.17385	0.765306	0.559126	-21.98	-62.23	35.42	-0.1478	-0.1951	-0.4636	
0.209718	0.73688	0.551928	-34.09	-60.34	35.49	-0.1638	-0.1903	-0.4665	
0.24583	0.728462	0.56547	-44.94	-61.95	36.54	-0.1857	-0.1793	-0.4724	
0.25803	0.738832	0.563884	-51.17	-60.34	36.12	-0.1857	-0.1793	-0.4724	
0.242658	0.625982	0.585356	-54.74	-62.72	31.92	-0.2035	-0.1548	-0.4737	
0.305488	0.654408	0.598776	-44.87	-63.21	37.31	-0.224	-0.1468	-0.4583	
0.368318	0.628178	0.607804	-36.68	-65.73	33.74	-0.2371	-0.1436	-0.4597	
0.38735	0.605242	0.604388	-39.27	-61.88	40.25	-0.2473	-0.1434	-0.4611	
0.418094	0.5673	0.576938	-55.37	-56.28	51.59	-0.2562	-0.1296	-0.4641	
0.418704	0.598044	0.609512	-44.66	-60.97	54.74	-0.2753	-0.1157	-0.4578	
0.43066	0.62647	0.638182	-42.28	-63.98	47.18	-0.2739	-0.1126	-0.4547	
0.459696	0.579622	0.617686	-43.82	-63.84	39.34	-0.2813	-0.108	-0.4547	
0.491294	0.544364	0.58072	-22.96	-66.15	38.92	-0.2975	-0.0925	-0.4438	
0.52399	0.576206	0.625494	16.59	-73.43	37.8	-0.3121	-0.0892	-0.4391	
0.56486	0.582062	0.659288	16.66	-73.5	35.21	-0.3108	-0.0862	-0.4345	
0.543754	0.578158	0.606828	-18.34	-58.1	35.98	-0.3237	-0.0951	-0.4314	
0.560712	0.541558	0.543876	-11.48	-59.64	35.21	-0.3327	-0.0828	-0.4267	
0.571814	0.54473	0.598288	3.99	-67.34	29.68	-0.343	-0.0781	-0.4113	
0.604022	0.549732	0.593896	-7.28	-63.21	25.69	-0.3619	-0.0793	-0.4081	
0.615612	0.558882	0.559614	-11.83	-55.23	26.25	-0.3563	-0.0717	-0.3913	
0.633424	0.529968	0.549244	-8.89	-54.25	23.45	-0.3579	-0.0626	-0.3958	
0.666974	0.528626	0.54534	-3.99	-56.49	22.33	-0.371	-0.0594	-0.3973	
0.697108	0.524112	0.547658	-0.91	-56.35	22.61	-0.3856	-0.0591	-0.3834	
0.733586	0.53131	0.540948	-2.73	-49.56	23.8	-0.3873	-0.0454	-0.3803	
0.743712	0.510814	0.538752	-6.02	-47.25	24.08	-0.3887	-0.0499	-0.3726	
0.76494	0.503494	0.52399	-0.7	-44.87	22.96	-0.4091	-0.0466	-0.3663	
0.76921	0.466772	0.517036	-4.97	-41.3	22.26	-0.4092	-0.0435	-0.3679	
0.79422	0.465918	0.496052	-2.8	-39.06	21.63	-0.4107	-0.0404	-0.3571	
0.79788	0.445178	0.465552	-4.69	-33.39	22.05	-0.4136	-0.0419	-0.3541	
0.820938	0.43493	0.450668	-7.91	-32.55	21.91	-0.4211	-0.0311	-0.3478	
0.823866	0.453474	0.4697	-0.21	-30.87	20.72	-0.4182	-0.0372	-0.3418	
0.85827	0.457866	0.412848	-6.37	-26.81	22.12	-0.4228	-0.0235	-0.3356	
0.820572	0.437736	0.452742	3.64	-24.15	21.77	-0.4213	-0.0265	-0.3341	
0.86193	0.438102	0.401746	-13.86	-21.07	21.28	-0.4329	-0.0264	-0.3324	
0.843996	0.438834	0.381494	-6.58	-20.58	22.82	-0.4215	-0.0159	-0.3264	
0.83936	0.44164	0.399428	3.78	-20.79	21.91	-0.4316	-0.0233	-0.3172	
0.841922	0.432978	0.385154	4.48	-18.13	20.37	-0.4376	-0.011	-0.314	
0.84912	0.403454	0.364414	0.7	-14.56	19.53	-0.4361	-0.0111	-0.3186	
0.846558	0.394426	0.36722	6.23	-15.75	19.04	-0.4362	-0.007999999	-0.3155	
0.860344	0.406748	0.379176	11.9	-15.96	18.76	-0.439	-0.007999999	-0.3262	
0.873886	0.386374	0.387228	7.77	-12.04	18.69	-0.4492	-0.0139	-0.3063	
0.865834	0.370636	0.383202	5.04	-9.66	19.04	-0.4466	0.0027	-0.3001	
0.868518	0.381006	0.37027	5.6	-8.68	18.13	-0.4495	0.0027	-0.3078	
0.880352	0.386252	0.375882	3.78	-8.33	16.24	-0.4465	0.0042	-0.3139	
0.87718	0.39772	0.389668	6.44	-6.65	15.19	-0.4365	0.0026	-0.2987	
0.91378	0.385154	0.40199	6.79	-4.69	12.18	-0.4495	0.0088	-0.3123	
0.945866	0.431392	0.407602	14.56	-2.94	8.54	-0.4408	0.0026	-0.2971	
0.928542	0.396378	0.375028	-4.06	5.6	5.95	-0.454	0.0089	-0.2985	
0.903044	0.349652	0.35746	-7.07	7.35	7.28	-0.4467	0.0103	-0.3016	
0.907192	0.366976	0.373808	-1.61	2.52	6.23	-0.4411	0.0224	-0.3047	
0.901824	0.380152	0.38857	-2.38	6.02	4.13	-0.4424	0.0148	-0.3093	
0.89853	0.36295	0.370636	-6.16	10.29	1.33	-0.4409	0.0087	-0.3017	
0.90524	0.333548	0.376492	-5.88	9.24	-1.05	-0.448	0.0027	-0.3108	
0.901092	0.330376	0.378932	-4.69	7.7	-1.33	-0.4509	0.0058	-0.3169	
0.893772	0.3477	0.381006	-7.98	6.23	-1.75	-0.4511	0.0164	-0.3092	
0.908778	0.35624	0.4148	-3.71	6.86	-3.29	-0.4541	0.018	-0.3046	
0.913414	0.36295	0.40809	-5.67	11.2	-5.74	-0.4438	0.0118	-0.3062	
0.913048	0.36539	0.403332	-4.97	12.88	-8.96	-0.438	0.0132	-0.3124	
0.906704	0.376736	0.429928	-1.4	15.05	-10.64	-0.4336	0.0162	-0.3124	
0.898652	0.382714	0.441396	-5.74	18.9	-12.67	-0.4335	0.0116	-0.3262	
0.895968	0.373564	0.446764	-11.13	23.31	-14.07	-0.4335	0.0146	-0.3247	
0.894504	0.369904	0.440054	-15.33	26.39	-15.68	-0.4405	-0.0004	-0.3338	
0.891332	0.372832	0.450302	-14.28	28.07	-17.01	-0.4335	0.0115	-0.3308	
0.880718	0.386862	0.472506	-11.55	30.1	-17.99	-0.4146	0.0128	-0.334	
0.871324	0.404308	0.466284	-16.03	34.09	-20.44	-0.4216	0.0007	-0.3416	
0.857294	0.401258	0.475068	-15.26	38.78	-23.03	-0.4217	0.0083	-0.3416	
0.846192	0.3904	0.472628	-17.15	42.49	-25.27	-0.4187	0.0067	-0.3523	
0.830332	0.396622	0.487024	-10.85	41.93	-26.46	-0.4128	-0.0009	-0.3509	
0.81923	0.409676	0.502518	-8.4	42.7	-28.77	-0.3939	0.0063	-0.3617	
0.801052	0.412848	0.518134	-8.89	45.71	-29.75	-0.4039	-0.0011	-0.3739	
0.79117	0.426634	0.521672	-8.54	48.58	-31.01	-0.3966	-0.0073	-0.374	
0.775554	0.422242	0.52643	-9.66	51.03	-32.41	-0.4037	-0.0193	-0.3724	
0.767258	0.435906	0.54046	-6.44	52.85	-33.46	-0.3906	-0.0104	-0.3863	
0.74603	0.437004	0.562664	-7.42	56.42	-33.32	-0.3833	-0.0105	-0.3894	
0.73688	0.43554	0.582428	-10.22	62.3	-31.22	-0.3729	-0.0214	-0.3987	
0.713334	0.43676	0.608292	-11.62	63.91	-30.24	-0.3642	-0.0154	-0.4109	
0.682956	0.460062	0.60329	-10.29	68.39	-29.47	-0.3538	-0.0323	-0.4065	
0.657214	0.447862	0.578646	-12.46	70	-31.43	-0.3481	-0.0172	-0.4218	
0.62037	0.457256	0.601704	1.05	68.88	-30.52	-0.3363	-0.0311	-0.4296	
0.58194	0.467626	0.650138	8.82	70.56	-30.59	-0.3274	-0.0374	-0.4434	
0.549244	0.466284	0.655628	2.03	72.66	-30.66	-0.3215	-0.0435	-0.4389	
0.537898	0.481778	0.64294	1.47	71.82	-32.62	-0.3039	-0.0468	-0.4543	
0.498614	0.492148	0.680394	12.95	68.39	-35.14	-0.291	-0.044	-0.4406	
0.462502	0.471408	0.608048	13.72	68.25	-38.01	-0.2894	-0.0425	-0.4559	
0.474702	0.5307	0.763232	48.58	60.76	-36.75	-0.2747	-0.0488	-0.4683	
0.421144	0.535824	0.67405	14.63	67.48	-36.12	-0.263	-0.0642	-0.4577	
0.381616	0.555222	0.729194	27.79	65.8	-34.16	-0.263	-0.0596	-0.4638	
0.334158	0.557052	0.726022	24.92	66.22	-36.89	-0.241	-0.0676	-0.4778	
0.296948	0.533018	0.681736	26.81	65.24	-37.87	-0.2379	-0.07979999	-0.4794	
0.311466	0.533628	0.721142	40.25	57.54	-39.83	-0.2189	-0.0846	-0.4811	
0.21533	0.549854	0.732	28.07	67.9	-28.91	-0.2056	-0.09999999	-0.4843	
0.229482	0.554368	0.702354	32.48	60.2	-36.68	-0.191	-0.0988	-0.4951	
0.187758	0.554734	0.71858	30.1	59.43	-35.56	-0.1879	-0.1125	-0.4936	
0.122854	0.603534	0.650016	27.09	60.76	-32.2	-0.1705	-0.1112	-0.4907	
0.08418	0.63013	0.656604	28.35	58.94	-34.65	-0.1675	-0.1189	-0.4892	
0.066978	0.637816	0.65087	25.76	55.44	-38.71	-0.166	-0.1219	-0.4953	
0.020252	0.634644	0.626226	21.49	53.55	-37.31	-0.1486	-0.1161	-0.5016	
0.024766	0.645868	0.677466	25.41	50.33	-37.24	-0.1339	-0.1285	-0.4941	
-0.018666	0.660996	0.636108	19.53	49.91	-36.61	-0.1236	-0.1408	-0.5003	
-0.016592	0.661362	0.653676	20.23	46.41	-36.68	-0.1294	-0.1407	-0.5033	
-0.046604	0.647942	0.630984	-0.63	49.35	-33.11	-0.1017	-0.1427	-0.5005	
-0.056486	0.65697	0.639524	3.92	44.31	-30.94	-0.0901	-0.1458	-0.496	
-0.084058	0.66734	0.651236	2.59	41.23	-28.63	-0.0914	-0.1489	-0.5051	
-0.088938	0.668926	0.66307	3.01	38.22	-26.74	-0.0857	-0.1444	-0.5021	
-0.106994	0.684054	0.63135	2.52	34.37	-25.62	-0.0756	-0.143	-0.5037	
-0.121024	0.68442	0.665388	2.38	29.89	-23.52	-0.061	-0.1463	-0.5038	
-0.12444	0.69784	0.688324	4.76	27.72	-23.31	-0.0609	-0.1539	-0.4947	
-0.130052	0.708332	0.673928	4.06	27.3	-23.45	-0.0521	-0.1525	-0.5116	
-0.11956	0.703452	0.66978	3.22	24.64	-23.87	-0.0508	-0.1495	-0.4993	
-0.11712	0.696376	0.683322	0.84	23.31	-23.38	-0.0463	-0.1541	-0.5085	
-0.116266	0.703086	0.69296	3.78	22.4	-22.82	-0.035	-0.133	-0.5086	
-0.11224	0.70577	0.689422	0	22.68	-22.05	-0.029	-0.1483	-0.5025	
-0.105652	0.701378	0.698572	-2.03	21.7	-21.84	-0.0231	-0.1544	-0.4965	
-0.113338	0.711748	0.695766	-4.69	22.89	-21.42	-0.0232	-0.1484	-0.5056	
-0.119682	0.718458	0.699426	-4.97	24.15	-21.63	-0.0189	-0.1469	-0.5011	
-0.11346	0.715164	0.6893	-9.38	26.25	-21.84	-0.0131	-0.144	-0.4996	
-0.131638	0.716872	0.688568	-12.6	28.49	-21.21	0.0042	-0.1427	-0.5012	
-0.157258	0.732488	0.690642	-9.87	30.66	-20.3	-0.0015	-0.1381	-0.5073	
-0.165066	0.733098	0.674294	-11.62	34.23	-20.72	0.0101	-0.1458	-0.5059	
-0.160918	0.714554	0.679174	-12.32	35.7	-21.42	0.0187	-0.1338	-0.5044	
-0.158478	0.710528	0.676734	-9.1	35.21	-21.49	0.0188	-0.1384	-0.5105	
-0.177144	0.701622	0.664656	-17.5	38.85	-21.77	0.0318	-0.137	-0.5106	
-0.19337	0.68198	0.66429	-16.24	38.78	-21.28	0.0361	-0.131	-0.5076	
-0.200324	0.674172	0.664534	-14	38.57	-21.14	0.0448	-0.1327	-0.5122	
-0.211914	0.668926	0.656238	-13.93	38.64	-20.23	0.0519	-0.1206	-0.5061	
-0.224602	0.662826	0.66185	-12.67	38.08	-19.32	0.0607	-0.1208	-0.5108	
-0.252418	0.663924	0.675636	-13.3	36.19	-17.92	0.0621	-0.1162	-0.5138	
-0.293654	0.677344	0.69235	-17.29	35.28	-16.66	0.0707	-0.1133	-0.5093	
-0.339404	0.688934	0.676734	-23.66	35.91	-18.13	0.072	-0.1072	-0.5032	
-0.392352	0.694058	0.684664	-22.75	36.89	-20.72	0.0793	-0.1104	-0.5032	
-0.408944	0.667462	0.665266	-24.29	37.03	-26.04	0.085	-0.0998	-0.5078	
-0.397964	0.644282	0.667096	-23.8	37.87	-29.68	0.0907	-0.0938	-0.5033	
-0.386618	0.627934	0.668682	-25.48	34.79	-31.29	0.1038	-0.0955	-0.5049	
-0.396744	0.600484	0.663802	-27.58	34.37	-32.69	0.1123	-0.08199999	-0.5018	
-0.401136	0.571204	0.656482	-30.45	33.67	-33.6	0.1153	-0.0851	-0.5065	
-0.41541	0.541436	0.660996	-28.49	33.39	-35.07	0.1151	-0.0729	-0.4957	
-0.433466	0.517402	0.65941	-24.29	39.76	-37.52	0.1151	-0.0668	-0.5034	
-0.44652	0.522526	0.676734	-26.46	32.83	-37.1	0.1338	-0.0625	-0.4974	
-0.45628	0.501298	0.680394	-31.15	30.73	-38.92	0.1381	-0.0535	-0.5004	
-0.47092	0.505324	0.669658	-31.29	29.68	-40.95	0.138	-0.0489	-0.4943	
-0.486536	0.483852	0.662582	-37.59	32.48	-41.58	0.138	-0.0459	-0.5019	
-0.513986	0.463844	0.671244	-36.68	30.45	-43.33	0.148	-0.0399	-0.4943	
-0.533384	0.433832	0.663924	-39.83	30.94	-43.68	0.158	-0.0309	-0.4867	
-0.55205	0.41114	0.669658	-41.65	29.68	-44.24	0.158	-0.0264	-0.4867	
-0.569984	0.38735	0.66429	-40.74	28.21	-44.73	0.1563	-0.0157	-0.4851	
-0.576084	0.35868	0.672464	-41.37	29.89	-43.75	0.1663	0.0023	-0.4898	
-0.577304	0.322324	0.674416	-42.49	28.35	-44.87	0.1749	0.0067	-0.4837	
-0.589504	0.290116	0.67832	-42	28.42	-44.17	0.1717	0.0159	-0.4668	
-0.610854	0.268644	0.689422	-42.14	31.43	-42.56	0.1848	0.0263	-0.4776	
-0.656848	0.24705	0.673318	-44.1	34.86	-41.37	0.1846	0.0339	-0.473	
-0.654652	0.213622	0.688324	-42.21	29.82	-41.44	0.1873	0.0521	-0.4729	
-0.674904	0.19398	0.686982	-40.25	27.86	-39.9	0.1987	0.0596	-0.4623	
-0.683566	0.175436	0.697718	-36.89	27.86	-37.31	0.2001	0.0641	-0.4684	
-0.690764	0.158234	0.695888	-37.17	24.99	-36.47	0.2042	0.0793	-0.4623	
-0.699426	0.142496	0.70028	-35.07	22.96	-35.14	0.2028	0.0823	-0.4638	
-0.709674	0.12505	0.695888	-35.42	22.33	-33.53	0.2098	0.0959	-0.4577	
-0.7076	0.103822	0.69113	-33.11	17.5	-30.45	0.2053	0.1021	-0.4515	
-0.7076	0.091256	0.709796	-29.54	18.62	-27.44	0.2051	0.1188	-0.4545	
-0.721142	0.079178	0.694302	-29.12	17.85	-25.62	0.2153	0.1171	-0.4561	
-0.742004	0.06771	0.690032	-29.82	17.92	-23.31	0.2124	0.1172	-0.4546	
-0.76128	0.06039	0.680516	-27.37	17.36	-22.05	0.2152	0.1217	-0.4469	
-0.78141	0.045628	0.677954	-26.67	18.06	-19.81	0.2093	0.1279	-0.4453	
-0.78629	0.041968	0.674538	-25.83	15.96	-18.48	0.2034	0.1295	-0.4376	
-0.779824	0.035746	0.663436	-23.66	14.35	-16.66	0.2148	0.1415	-0.4392	
-0.779702	0.0244	0.664656	-23.52	13.37	-14.49	0.2192	0.1399	-0.4316	
-0.785558	0.011956	0.657092	-22.75	12.39	-12.95	0.2205	0.1475	-0.4362	
-0.778604	-0.00976	0.650748	-22.61	11.48	-11.34	0.2074	0.1462	-0.4284	
-0.77897	-0.008784	0.64416	-19.04	10.43	-10.71	0.2249	0.1505	-0.4362	
-0.77653	-0.011468	0.643672	-18.76	9.31	-9.38	0.2188	0.1658	-0.4285	
-0.76921	-0.009638	0.655872	-15.96	9.31	-8.19	0.2231	0.1642	-0.4224	
-0.774334	-0.008052	0.652212	-15.89	10.71	-6.86	0.2188	0.1643	-0.4223	
-0.784094	-0.011346	0.647088	-15.33	12.95	-5.95	0.2318	0.1671	-0.4178	
-0.792024	-0.016104	0.647576	-13.3	14.7	-5.25	0.2274	0.1718	-0.4209	
-0.831918	-0.037576	0.641964	-12.18	13.37	-4.69	0.223	0.1718	-0.4208	
-0.87291	-0.043554	0.640012	-9.66	9.17	-5.46	0.2345	0.1808	-0.4178	
-0.857904	-0.042578	0.616222	-9.59	8.19	-4.76	0.2272	0.1748	-0.4086	
-0.85034	-0.041602	0.619394	-7	6.37	-3.15	0.2229	0.1734	-0.4132	
-0.851682	-0.05917	0.608536	-5.6	1.61	-3.29	0.2215	0.1719	-0.4147	
-0.853634	-0.072834	0.600484	-2.87	-0.14	-3.01	0.2244	0.1749	-0.4132	
-0.851194	-0.066978	0.594018	1.12	-2.03	-2.24	0.2316	0.1793	-0.4163	
-0.834602	-0.054778	0.60329	3.57	-2.87	-0.7	0.2301	0.1763	-0.404	
-0.823988	-0.052948	0.621712	6.09	-4.9	0.42	0.2229	0.1779	-0.4147	
-0.816546	-0.061854	0.623298	7.63	-7.98	2.38	0.2361	0.1716	-0.4194	
-0.796782	-0.053924	0.627324	9.8	-10.64	3.22	0.2215	0.1734	-0.4178	
-0.803004	-0.054046	0.638548	9.38	-11.97	4.41	0.22	0.1764	-0.4116	
-0.80886	-0.060268	0.652822	11.06	-9.87	6.3	0.223	0.1718	-0.4193	
-0.782142	-0.050264	0.649528	12.25	-9.24	7.63	0.2186	0.1764	-0.4238	
-0.777018	-0.053436	0.652334	13.44	-12.53	9.1	0.2232	0.1642	-0.4285	
-0.762622	-0.043798	0.664534	14.98	-9.24	11.76	0.2146	0.1597	-0.4376	
-0.773602	-0.036722	0.664046	15.96	-10.15	11.97	0.2203	0.1597	-0.4285	
-0.80337	-0.018666	0.661362	16.59	-10.92	13.58	0.2174	0.1628	-0.4285	
-0.818254	-0.019276	0.661728	16.17	-12.11	15.33	0.216	0.1567	-0.4269	
-0.8174	0.00183	0.659532	18.69	-13.37	17.01	0.2219	0.1505	-0.4316	
-0.81313	0.008417999	0.661728	19.46	-14.21	17.71	0.2134	0.14	-0.4377	
-0.800808	0.008905999	0.657824	20.72	-14.63	18.76	0.2175	0.1566	-0.4392	
-0.79605	0.008905999	0.653432	20.72	-16.73	20.37	0.2178	0.1414	-0.4454	
-0.788364	0.035136	0.67527	26.67	-18.9	21.07	0.2122	0.1218	-0.4408	
-0.784704	0.040138	0.65941	24.57	-17.57	22.05	0.2077	0.1325	-0.4407	
-0.763598	0.05307	0.67771	29.61	-16.73	23.03	0.2108	0.1218	-0.4469	
-0.759572	0.06893	0.66551	29.19	-17.43	23.59	0.2122	0.1218	-0.4454	
-0.755302	0.098942	0.667462	34.3	-20.86	23.87	0.2008	0.1143	-0.456	
-0.753228	0.104432	0.663436	31.15	-21	24.5	0.2038	0.1051	-0.453	
-0.746518	0.11895	0.664412	32.97	-22.47	25.69	0.2038	0.1021	-0.4515	
-0.741028	0.14518	0.666364	34.37	-25.27	26.32	0.2011	0.09299999	-0.4561	
-0.734684	0.16775	0.674294	36.19	-25.76	26.53	0.1984	0.0824	-0.4622	
-0.726754	0.17873	0.655506	33.95	-27.65	26.81	0.2015	0.0747	-0.4791	
-0.713578	0.191784	0.667218	37.8	-29.75	26.74	0.1971	0.0718	-0.4699	
-0.689544	0.20252	0.670024	36.89	-30.45	27.44	0.1915	0.0627	-0.4714	
-0.66917	0.222894	0.673684	38.99	-32.2	27.86	0.196	0.052	-0.4761	
-0.660142	0.25925	0.68137	42	-33.74	28.07	0.1902	0.0491	-0.4714	
-0.641232	0.28182	0.698206	44.31	-34.37	28	0.1717	0.0296	-0.4821	
-0.62037	0.28853	0.695278	43.05	-34.02	28.56	0.163	0.0221	-0.4805	
-0.611952	0.306586	0.692716	44.03	-35.63	29.33	0.1691	0.0113	-0.4913	
-0.611342	0.338672	0.694302	46.34	-36.47	30.1	0.1516	0.0146	-0.4911	
-0.579378	0.366366	0.69845	50.26	-39.27	29.75	0.1548	-0.0005	-0.4989	
-0.56913	0.385886	0.70211	47.81	-39.41	31.22	0.1489	-0.0005	-0.4973	
-0.540948	0.403088	0.700036	50.47	-40.74	31.64	0.145	-0.0262	-0.505	
-0.538142	0.420534	0.691374	48.72	-39.9	33.11	0.1334	-0.0291	-0.5018	
-0.518256	0.443836	0.692716	53.62	-41.86	33.04	0.135	-0.0413	-0.4973	
-0.492636	0.460184	0.698938	53.97	-40.81	32.83	0.125	-0.0503	-0.5064	
-0.47763	0.465308	0.676734	52.85	-41.51	33.6	0.1106	-0.0561	-0.5063	
-0.451522	0.483242	0.683444	55.79	-41.86	34.72	0.0977	-0.0772	-0.5002	
-0.417362	0.49654	0.69174	55.58	-40.95	35.77	0.1021	-0.0742	-0.5063	
-0.391864	0.52094	0.684542	59.01	-39.41	35.7	0.092	-0.0832	-0.5002	
-0.367342	0.531188	0.668316	55.09	-39.69	36.61	0.0909	-0.1015	-0.517	
-0.354288	0.565348	0.68015	55.72	-37.94	38.57	0.0736	-0.1133	-0.5017	
-0.34282	0.593408	0.667218	52.57	-36.4	39.69	0.0648	-0.1087	-0.5062	
-0.340258	0.614636	0.647088	48.58	-34.79	41.65	0.0752	-0.1255	-0.4986	
-0.32086	0.64538	0.643306	49.28	-35.14	43.47	0.0667	-0.1421	-0.5032	
-0.314028	0.696742	0.640622	48.3	-35.42	44.17	0.0537	-0.1525	-0.4879	
-0.274622	0.7198	0.624518	40.95	-35.77	44.24	0.042	-0.1508	-0.4893	
-0.232898	0.720044	0.62708	38.22	-33.88	45.15	0.032	-0.1537	-0.4969	
-0.226432	0.72712	0.605974	36.75	-31.57	45.92	0.0322	-0.172	-0.4985	
-0.204838	0.734318	0.588528	34.16	-30.87	45.22	0.0234	-0.1688	-0.4846	
-0.177266	0.742492	0.58499	32.27	-32.97	45.43	0.0104	-0.1747	-0.4891	
-0.15189	0.752374	0.571326	30.38	-33.25	45.71	-0.0054	-0.185	-0.4814	
-0.140056	0.765672	0.559736	29.19	-34.3	46.06	-0.0052	-0.1896	-0.4967	
-0.118218	0.774212	0.547536	27.86	-34.3	46.2	-0.0111	-0.1926	-0.4829	
-0.097112	0.795074	0.559614	29.47	-34.37	45.85	-0.027	-0.1969	-0.4889	
-0.07503	0.793488	0.561322	25.83	-35.84	45.64	-0.0326	-0.2105	-0.4828	
-0.050874	0.80581	0.563762	23.59	-36.75	45.92	-0.0355	-0.212	-0.4843	
-0.038186	0.823866	0.54656	20.72	-35.91	45.43	-0.0455	-0.2194	-0.4904	
-0.014152	0.834602	0.55693	19.74	-35.42	43.82	-0.0513	-0.2224	-0.4934	
0.02074	0.846314	0.570472	18.2	-34.65	41.02	-0.0646	-0.2115	-0.4749	
0.053192	0.856562	0.5795	16.31	-32.97	38.15	-0.0718	-0.219	-0.4734	
0.086986	0.854976	0.57584	13.93	-26.88	35.98	-0.0835	-0.2142	-0.4687	
0.116266	0.847168	0.575962	10.85	-24.99	34.51	-0.0805	-0.2264	-0.4672	
0.131394	0.862174	0.580964	11.34	-22.96	33.67	-0.0922	-0.2202	-0.4656	
0.1403	0.87779	0.57828	8.82	-19.39	31.71	-0.09209999	-0.2263	-0.4686	
0.1464	0.87596	0.579622	8.05	-14	29.05	-0.0994	-0.2246	-0.4655	
0.158112	0.87291	0.574864	7.77	-10.57	26.11	-0.1008	-0.2231	-0.4777	
0.16653	0.873642	0.568276	8.75	-8.19	21.7	-0.1081	-0.2215	-0.467	
0.17446	0.883768	0.570716	9.45	-4.69	17.71	-0.1052	-0.2246	-0.4685	
0.177754	0.875838	0.549244	6.44	-0.14	14.42	-0.1168	-0.2214	-0.4684	
0.167262	0.875228	0.553758	7.98	3.99	12.11	-0.1066	-0.2261	-0.4655	
0.166408	0.873398	0.546804	9.17	5.53	8.47	-0.1081	-0.2275	-0.4578	
0.163358	0.865712	0.549244	8.33	6.51	5.25	-0.1196	-0.2304	-0.4654	
0.164822	0.858758	0.530944	8.54	6.58	2.66	-0.1182	-0.2304	-0.4623	
0.161284	0.851194	0.541436	8.75	8.05	-0.28	-0.1196	-0.2304	-0.4669	
0.15494	0.853146	0.536556	7.14	10.08	-1.61	-0.1035	-0.2458	-0.4579	
0.143472	0.856928	0.533628	5.88	11.06	-2.59	-0.1052	-0.226	-0.4548	
0.124684	0.862418	0.53924	5.39	11.48	-3.71	-0.1037	-0.2306	-0.4594	
0.108824	0.859368	0.548146	3.78	13.02	-4.9	-0.1153	-0.235	-0.4578	
0.095892	0.848754	0.525942	1.61	13.44	-6.16	-0.105	-0.2413	-0.4594	
0.085278	0.852658	0.529602	4.97	11.55	-7.7	-0.1094	-0.2382	-0.464	
0.07137	0.85583	0.535458	7.21	9.87	-8.61	-0.0963	-0.2399	-0.4564	
0.064416	0.862784	0.537288	7.14	8.96	-9.38	-0.0963	-0.2384	-0.4641	
0.061976	0.855342	0.524478	3.43	7.7	-10.57	-0.08899999	-0.2385	-0.4611	
0.049898	0.840458	0.523014	1.75	7.14	-10.64	-0.09339999	-0.2384	-0.461	
