Sensor string: E
Serial number: 1970-01-0000
Firmware version: 2,015
Hardware version: 2,2
Calibration quality: 5
ax	ay	az	gx	gy	gz	mx	my	mz

-0.916952	-0.08686399	0.401258	0	0.49	-0.07	0.2841	0.0546	-0.4722	Reference
-0.91805	-0.086132	0.402356	0.14	0.28	-0.14	0.282	0.0536	-0.4814	
-0.918416	-0.085766	0.401502	0.07	0.07	-0.14	0.2887	0.0519	-0.4779	
-0.920978	-0.085644	0.40077	0	0.07	0.07	0.2826	0.0505	-0.4737	
-0.92293	-0.08723	0.398574	-0.14	-0.14	0.07	0.2946	0.0427	-0.4636	
-0.921954	-0.08662	0.40077	-0.21	-0.28	0.07	0.2907	0.0543	-0.4688	
-0.919514	-0.08662	0.403088	-0.14	-0.35	-0.14	0.2855	0.0588	-0.4723	
-0.914512	-0.085888	0.404308	0.07	-0.35	-0.14	0.2822	0.059	-0.4755	
-0.912194	-0.084424	0.406138	0.07	-0.42	-0.28	0.2875	0.0557	-0.4675	
-0.910242	-0.085888	0.406626	0.14	-0.14	-0.21	0.294	0.0472	-0.4714	
-0.912438	-0.084302	0.40626	0.14	0.21	-0.07	0.2824	0.0561	-0.4739	
-0.913536	-0.084302	0.402844	0	0.07	-0.14	0.2894	0.05	-0.4672	
-0.916342	-0.0854	0.405894	-0.07	-0.14	-0.14	0.2919	0.0559	-0.4749	
-0.918782	-0.085888	0.402112	0.21	0.21	-0.14	0.2852	0.0443	-0.4596	
-0.91866	-0.087474	0.40016	0.07	0.14	-0.14	0.2876	0.0571	-0.4661	
-0.91988	-0.08784	0.401136	-0.07	-0.21	-0.14	0.2923	0.0501	-0.4716	
-0.920612	-0.088328	0.401258	-0.07	-0.28	-0.07	0.2887	0.0505	-0.4779	
-0.918538	-0.086498	0.402722	0.07	-0.56	-0.14	0.2843	0.0504	-0.472	
-0.917318	-0.086498	0.405406	0.21	-0.49	-0.14	0.296	0.0442	-0.4666	
-0.91439	-0.087596	0.403942	0.21	-0.35	-0.14	0.287	0.0547	-0.4766	
-0.916342	-0.085766	0.40565	0.49	-0.7	-0.14	0.2893	0.0473	-0.4701	
-0.920246	-0.081984	0.407846	0.77	-1.05	-0.28	0.2844	0.0489	-0.4705	
-0.922564	-0.084546	0.40321	0.77	-0.98	-0.28	0.2919	0.0545	-0.4763	
-0.925004	-0.081984	0.402478	0.98	-0.98	-0.14	0.2922	0.0557	-0.4703	
-0.923784	-0.086498	0.401868	1.19	-1.54	0.14	0.2923	0.0515	-0.4701	
-0.922808	-0.08686399	0.399916	1.47	-1.33	-0.14	0.2961	0.0523	-0.4594	
-0.919148	-0.083204	0.401624	1.75	-1.19	-0.49	0.2904	0.0559	-0.4734	
-0.918172	-0.082472	0.404186	1.89	-2.38	-1.12	0.2917	0.056	-0.4779	
-0.919026	-0.084546	0.402966	1.26	-2.52	-1.05	0.2827	0.0531	-0.4692	
-0.921954	-0.088694	0.404064	1.89	-2.8	-0.7	0.2967	0.0502	-0.4789	
-0.925126	-0.088816	0.411994	2.31	-3.5	-0.21	0.2866	0.0577	-0.4828	
-0.926956	-0.08357	0.409798	2.59	-3.5	-0.07	0.2831	0.0474	-0.4659	
-0.920856	-0.07869	0.407968	2.66	-4.2	-0.49	0.2916	0.056	-0.4794	
-0.919148	-0.07905599	0.406504	2.94	-4.76	-1.12	0.2757	0.0524	-0.4817	
-0.926712	-0.083814	0.409066	3.08	-4.2	-1.05	0.2788	0.0619	-0.4758	
-0.931836	-0.08784	0.410774	2.8	-4.9	-0.7	0.2744	0.0509	-0.4771	
-0.937326	-0.08967	0.407846	3.08	-5.67	0.35	0.2923	0.0446	-0.4744	
-0.942084	-0.082472	0.406626	4.55	-7.07	1.05	0.2822	0.0535	-0.4783	
-0.938424	-0.07905599	0.41053	5.25	-9.38	1.05	0.2841	0.0478	-0.4765	
-0.932446	-0.077836	0.415898	5.74	-11.76	0.21	0.2708	0.0513	-0.4834	
-0.92354	-0.077714	0.421388	6.44	-12.95	-0.77	0.2662	0.0513	-0.4806	
-0.918782	-0.081862	0.423096	6.51	-13.58	-1.19	0.2681	0.0497	-0.4759	
-0.922076	-0.085156	0.421632	6.51	-16.31	-0.84	0.2631	0.0445	-0.4836	
-0.92415	-0.0854	0.439566	5.46	-16.8	0	0.2796	0.0556	-0.4937	
-0.927322	-0.079666	0.443226	6.93	-17.36	0.14	0.2707	0.0472	-0.4878	
-0.9211	-0.07076	0.447862	6.72	-19.81	0.28	0.2691	0.0473	-0.4879	
-0.90524	-0.065026	0.456768	6.02	-22.89	0	0.2556	0.0468	-0.5007	
-0.90219	-0.065758	0.462258	5.81	-22.89	-0.49	0.2561	0.0465	-0.4931	
-0.906094	-0.074298	0.46543	5.25	-22.82	-0.77	0.2445	0.0485	-0.4984	
-0.919636	-0.074542	0.461892	4.83	-24.08	0	0.2425	0.0461	-0.5075	
-0.918416	-0.075518	0.47519	5.11	-28.07	0.28	0.2315	0.0435	-0.5049	
-0.915366	-0.071858	0.485438	5.18	-29.61	0.63	0.2329	0.045	-0.5079	
-0.904874	-0.062586	0.491538	5.53	-30.45	0	0.2376	0.049	-0.5063	
-0.888038	-0.05978	0.49776	5.39	-32.2	-0.77	0.2329	0.0437	-0.5094	
-0.879254	-0.06039	0.51118	4.41	-35	-0.98	0.2243	0.0443	-0.519	
-0.877546	-0.063806	0.536068	4.55	-36.96	-1.4	0.208	0.0506	-0.5216	
-0.858392	-0.066978	0.556442	4.55	-38.01	-1.47	0.208	0.0451	-0.5244	
-0.854244	-0.069296	0.526796	4.9	-36.4	-1.54	0.2105	0.055	-0.5292	
-0.820938	-0.07515199	0.565836	4.97	-40.74	-1.4	0.195	0.0484	-0.5268	
-0.798002	-0.066246	0.563762	6.23	-39.2	-2.24	0.1996	0.0415	-0.5338	
-0.774822	-0.059292	0.590968	6.51	-40.74	-1.89	0.1898	0.0447	-0.536	
-0.770796	-0.055144	0.601948	7.7	-38.71	-1.82	0.1764	0.0537	-0.5401	
-0.771528	-0.060268	0.613782	8.12	-39.27	-2.03	0.166	0.0371	-0.5385	
-0.764208	-0.059902	0.62281	7.84	-39.55	-2.38	0.1639	0.0416	-0.5434	
-0.76067	-0.050752	0.635132	7.14	-38.64	-1.75	0.1497	0.0269	-0.5496	
-0.757376	-0.044408	0.648552	7.56	-38.29	-1.19	0.1542	0.042	-0.5454	
-0.750422	-0.047824	0.653066	7.84	-39.55	-0.98	0.1461	0.0369	-0.5517	
-0.74115	-0.051484	0.657946	6.93	-42.91	-0.77	0.1336	0.0316	-0.5491	
-0.723582	-0.054534	0.668194	6.65	-41.16	-0.63	0.1237	0.0363	-0.5529	
-0.7137	-0.051118	0.679906	6.72	-39.55	-1.12	0.1173	0.0241	-0.5603	
-0.704672	-0.0488	0.694546	6.02	-39.41	-0.35	0.1137	0.0341	-0.5609	
-0.698572	-0.050264	0.70455	5.39	-39.34	0.14	0.1061	0.0286	-0.5581	
-0.676124	-0.049898	0.71309	5.04	-40.25	0.63	0.1093	0.0272	-0.5594	
-0.66002	-0.05307	0.727486	5.11	-39.97	0.7	0.0955	0.0378	-0.5697	
-0.653432	-0.05063	0.732244	6.23	-38.78	0.63	0.083	0.0312	-0.5686	
-0.641598	-0.045872	0.74176	7.7	-38.15	0	0.0817	0.0297	-0.5655	
-0.620248	-0.039894	0.753594	8.47	-38.36	-0.28	0.0736	0.0286	-0.5675	
-0.606706	-0.033062	0.768966	7.42	-38.36	0	0.056	0.0252	-0.5713	
-0.581452	-0.037576	0.771528	3.85	-41.3	1.47	0.0576	0.0306	-0.5669	
-0.565714	-0.04209	0.779824	3.57	-40.95	1.75	0.0517	0.0168	-0.5682	
-0.54534	-0.052338	0.793732	3.57	-37.59	2.59	0.049	0.0217	-0.5836	
-0.52887	-0.051118	0.805078	3.99	-36.68	2.45	0.0366	0.0205	-0.5782	
-0.525698	-0.039772	0.816302	5.53	-34.3	2.66	0.0328	0.0278	-0.5833	
-0.521794	-0.033672	0.82411	8.68	-31.71	1.19	0.0237	0.0223	-0.579	
-0.514962	-0.02867	0.81801	8.12	-34.65	0.21	0.0079	0.0145	-0.5811	
-0.494344	-0.023424	0.823378	4.27	-33.74	0.84	0.014	0.0186	-0.5839	
-0.496906	-0.025986	0.842044	7	-17.5	2.03	0.0042	0.019	-0.586	
-0.495808	-0.020496	0.842044	7.63	-10.36	2.73	0.0043	0.0121	-0.5903	
-0.50325	-0.021594	0.838994	5.11	-14.28	3.64	-0.0053	0.018	-0.588	
-0.482144	-0.021838	0.84973	5.25	-17.15	2.66	-0.01	0.0249	-0.581	
-0.464576	-0.015738	0.855952	7.42	-12.74	2.38	-0.0104	0.0238	-0.59	
-0.45933	0.00122	0.849242	7.21	-10.92	2.31	-0.013	0.0208	-0.581	
-0.460672	0.011224	0.84119	5.11	-11.48	1.82	-0.0242	0.0102	-0.5887	
-0.457134	0.0061	0.84363	3.85	-10.01	1.54	-0.0291	0.0132	-0.5891	
-0.450302	0.012688	0.85644	3.64	-7.14	0.98	-0.024	0.0155	-0.5814	
-0.445666	0.017812	0.855708	2.31	-4.48	0.84	-0.0209	0.01	-0.587	
-0.450424	0.019032	0.858636	2.94	-0.35	0.84	-0.0179	0.006	-0.5927	
-0.452864	0.027694	0.859856	1.96	1.75	0.84	-0.0307	0.0105	-0.5906	
-0.446032	0.027084	0.863394	0.14	2.38	1.26	-0.0147	0.008599999	-0.5912	
-0.447496	0.022448	0.85766	-0.14	5.11	1.12	-0.0239	0.0059	-0.5855	
-0.449326	0.013298	0.853878	-0.98	6.86	0.42	-0.0139	0.0066	-0.5774	
-0.45506	0.004026	0.853024	-2.87	8.12	0.28	-0.0141	0.0041	-0.5834	
-0.46604	0.00427	0.845948	-3.57	10.22	-0.07	-0.009699999	0.0056	-0.5892	
-0.477142	0.005246	0.852536	-3.5	11.06	-0.98	-0.0071	0.0195	-0.5897	
-0.481046	0.003416	0.857904	-4.69	12.11	-2.59	-0.0146	0.0112	-0.5867	
-0.481046	-0.006954	0.86071	-7.35	12.88	-3.71	-0.0012	0.0132	-0.5755	
-0.48861	-0.020008	0.85217	-9.1	15.75	-3.99	-0.0053	0.0084	-0.5937	
-0.487024	-0.03233	0.8357	-9.03	17.64	-3.5	0.008599999	0.015	-0.5962	
-0.48434	-0.037454	0.820572	-7.21	22.68	-1.54	0.0023	0.0221	-0.5908	
-0.479094	-0.028426	0.813862	-4.97	27.86	-0.07	0.0032	0.0173	-0.5769	
-0.482022	-0.012688	0.81923	-3.71	32.06	-0.07	0.0095	0.0089	-0.5838	
-0.485194	-0.015982	0.811788	-3.85	34.58	-1.33	0.0288	0.0151	-0.5784	
-0.491172	-0.022448	0.80764	-5.32	37.38	-2.87	0.0293	0.0134	-0.5708	
-0.504958	-0.029158	0.79971	-5.67	41.79	-3.85	0.0433	0.0173	-0.5747	
-0.514352	-0.027328	0.792634	-5.67	45.15	-3.99	0.0493	0.0132	-0.5833	
-0.530822	-0.020496	0.774334	-4.76	48.51	-3.15	0.0541	0.0227	-0.5774	
-0.546194	-0.01586	0.761646	-5.6	52.15	-3.71	0.0591	0.0237	-0.5726	
-0.570472	-0.010004	0.740784	-7.56	55.72	-3.15	0.0717	0.0289	-0.5721	
-0.600118	-0.014762	0.72956	-8.96	57.61	-2.87	0.0704	0.0301	-0.5662	
-0.633668	-0.022692	0.72468	-10.57	60.27	-1.4	0.09299999	0.0252	-0.5662	
-0.667828	-0.02379	0.70516	-11.62	62.3	0.35	0.0966	0.0179	-0.5627	
-0.698328	-0.032086	0.682834	-12.11	64.12	1.68	0.1087	0.0275	-0.5685	
-0.727364	-0.040626	0.66673	-10.99	65.52	2.59	0.1125	0.0243	-0.5606	
-0.74542	-0.050386	0.640988	-9.87	65.66	3.01	0.1351	0.0275	-0.5534	
-0.759572	-0.045628	0.618296	-8.89	65.59	2.38	0.1517	0.0279	-0.5419	
-0.780312	-0.04209	0.597068	-9.17	64.68	0.84	0.1501	0.0253	-0.545	
-0.793854	-0.036356	0.578402	-11.13	64.19	0.21	0.1676	0.0329	-0.5398	
-0.806664	-0.036722	0.561078	-11.83	63.91	-0.28	0.1737	0.033	-0.5455	
-0.822646	-0.048678	0.542656	-12.46	63.35	-0.35	0.192	0.0374	-0.5295	
-0.842654	-0.063196	0.53009	-13.09	61.39	-1.19	0.2048	0.0383	-0.5289	
-0.849852	-0.069296	0.52887	-13.02	60.13	-1.4	0.2116	0.0419	-0.5196	
-0.858026	-0.072834	0.50996	-12.88	59.99	-1.68	0.2219	0.0453	-0.5055	
-0.872666	-0.06527	0.496174	-11.76	59.71	-1.96	0.2296	0.0452	-0.5096	
-0.881938	-0.05612	0.487024	-11.06	59.78	-1.54	0.2443	0.0445	-0.5043	
-0.915732	-0.06466	0.476166	-10.71	58.87	-2.31	0.2507	0.0484	-0.501	
-0.89426	-0.074908	0.465918	-11.62	57.54	-1.96	0.2565	0.0476	-0.4856	
-0.917196	-0.095648	0.435052	-11.48	57.75	-2.87	0.2656	0.0558	-0.4884	
-0.938424	-0.096868	0.40992	-9.73	58.24	-1.75	0.2756	0.0593	-0.4774	
-0.970022	-0.101992	0.38125	-7.35	59.36	-1.19	0.2912	0.0485	-0.464	
-1.016992	-0.101992	0.357216	-8.4	56.63	-2.38	0.2954	0.0514	-0.4715	
-1.025898	-0.094062	0.339892	-9.03	55.58	-2.59	0.3086	0.0562	-0.4619	
-1.004792	-0.085034	0.311466	-9.31	55.23	-3.43	0.3073	0.0547	-0.4573	
-0.98698	-0.093696	0.277062	-10.15	53.76	-2.73	0.3223	0.0525	-0.4489	
-1.00406	-0.094428	0.247294	-11.41	51.8	-0.91	0.3344	0.0515	-0.433	
-0.995032	-0.104798	0.256688	-13.09	48.37	-0.42	0.3309	0.0518	-0.4378	
-0.981002	-0.10614	0.240706	-13.65	47.39	1.12	0.3344	0.0528	-0.4316	
-1.010648	-0.100894	0.245586	-12.04	44.73	2.73	0.3503	0.0458	-0.4092	
-1.011258	-0.103456	0.226554	-10.01	45.29	3.92	0.357	0.0602	-0.4231	
-1.017358	-0.102968	0.225456	-9.59	46.55	4.06	0.3579	0.0637	-0.405	
-0.989786	-0.115656	0.22448	-7.84	49.14	3.78	0.3659	0.0675	-0.4017	
-0.980758	-0.10919	0.20923	-8.47	50.12	3.92	0.3747	0.0571	-0.3947	
-0.955626	-0.096258	0.164822	-7.7	48.86	4.97	0.3733	0.0626	-0.389	
-0.96014	-0.086986	0.167872	-7	45.29	5.67	0.3819	0.0605	-0.3793	
-0.973804	-0.084546	0.165188	-4.76	43.96	5.81	0.3883	0.06439999	-0.3761	
-0.997838	-0.065758	0.100162	-6.3	43.47	5.39	0.3965	0.0571	-0.3769	
-0.993446	-0.073322	0.117364	-6.72	45.08	6.09	0.396	0.0551	-0.3602	
-1.03273	-0.073078	0.054656	-5.6	39.62	4.97	0.4116	0.0589	-0.364	
-1.03883	-0.073932	0.092842	-3.92	36.54	3.71	0.4025	0.0521	-0.3597	
-1.01565	-0.08662	0.095404	-2.87	24.64	1.82	0.4128	0.054	-0.3456	
-0.997106	-0.074054	0.068442	-1.75	21.63	1.12	0.424	0.0564	-0.3436	
-0.983442	-0.073444	0.023668	-1.47	23.87	1.12	0.4191	0.0593	-0.344	
-1.001254	-0.074542	0.026108	-3.01	26.74	2.1	0.4323	0.0531	-0.34	
-1.031388	-0.07137	-0.02196	-2.59	25.27	1.54	0.421	0.0604	-0.3379	
-1.04249	-0.079788	-0.0061	-4.27	24.57	1.82	0.4236	0.0501	-0.3267	
-1.053958	-0.075274	-0.005002	-1.89	24.78	2.24	0.4336	0.0536	-0.3172	
-1.051274	-0.061976	-0.04819	0.84	24.71	2.59	0.429	0.0523	-0.3144	
-1.03212	-0.074298	-0.027938	-3.29	26.04	0.98	0.4479	0.0492	-0.3223	
-1.03517	-0.072468	-0.047336	-2.73	22.4	0.35	0.4323	0.0522	-0.3142	
-1.04005	-0.077958	-0.064538	-2.66	16.59	-0.35	0.4421	0.0558	-0.3078	
-1.062742	-0.075274	-0.065636	-0.98	5.25	-0.49	0.4519	0.0444	-0.3113	
-1.0614	-0.07747	-0.056486	-1.61	0	-0.77	0.4376	0.0557	-0.302	
-1.057252	-0.078324	-0.07381	-2.66	1.26	-0.56	0.4391	0.0489	-0.3076	
-1.04798	-0.082228	-0.09028	-3.5	3.99	0.28	0.4409	0.0542	-0.3017	
-1.044808	-0.083082	-0.072956	-1.89	2.66	0.42	0.4467	0.0571	-0.3091	
-1.043954	-0.075396	-0.070882	0.21	0.98	0.21	0.4437	0.0571	-0.3062	
-1.05164	-0.062342	-0.06222	-0.21	-1.82	0.21	0.4568	0.051	-0.3052	
-1.045662	-0.068808	-0.046482	-0.63	-2.45	0.21	0.4427	0.0485	-0.3014	
-1.041636	-0.077226	-0.070638	-0.35	-0.63	-0.56	0.4376	0.053	-0.3049	
-1.045052	-0.083082	-0.058194	0.42	-1.75	-1.33	0.4391	0.0516	-0.3062	
-1.048102	-0.07747	-0.047824	1.12	-7.77	-2.24	0.4423	0.0461	-0.3104	
-1.047492	-0.064904	-0.040016	0.77	-12.6	-2.38	0.4413	0.0577	-0.32	
-1.046028	-0.054046	-0.045628	-2.24	-13.23	-1.05	0.4487	0.0514	-0.3072	
-1.042734	-0.06527	-0.035258	-3.64	-11.62	0.07	0.4384	0.0576	-0.3156	
-1.041758	-0.07905599	-0.031476	-3.08	-15.26	-0.7	0.4339	0.0603	-0.3084	
-1.039318	-0.092232	-0.024156	-2.52	-18.69	-1.4	0.4399	0.0508	-0.3213	
-1.033096	-0.08295999	-0.012078	-0.84	-19.53	-1.33	0.4257	0.0621	-0.3104	
-1.037854	-0.07015	-0.008905999	-1.47	-18.83	-0.77	0.4383	0.0549	-0.3185	
-1.035048	-0.072346	-0.014396	-1.82	-19.11	0.63	0.4221	0.0529	-0.3239	
-1.037244	-0.078446	0.010248	2.03	-21.35	-1.75	0.4155	0.0519	-0.3287	
-1.032974	-0.08235	0.005002	0.07	-29.54	-1.82	0.4362	0.0567	-0.3263	
-1.033584	-0.08295999	0.011468	-1.19	-31.29	-1.68	0.4139	0.0423	-0.3345	
-1.025654	-0.079788	0.021472	-0.98	-32.27	-2.45	0.4134	0.055	-0.335	
-1.03883	-0.077348	0.058072	-0.56	-37.1	-3.5	0.4177	0.0565	-0.3424	
-1.0431	-0.074664	0.04819	0.21	-44.8	-5.39	0.4077	0.0584	-0.3476	
-1.028094	-0.076738	0.078812	1.75	-46.76	-6.37	0.414	0.0597	-0.3488	
-1.019676	-0.078934	0.1037	1.89	-50.75	-6.37	0.3995	0.0575	-0.3525	
-1.021384	-0.076006	0.124562	2.87	-52.5	-7.28	0.4013	0.0625	-0.3738	
-1.006988	-0.078568	0.125904	4.97	-54.25	-7.42	0.3869	0.0629	-0.3731	
-1.00284	-0.082838	0.153476	7.21	-54.39	-7.56	0.387	0.0533	-0.3788	
-1.009916	-0.081496	0.17629	9.03	-56.07	-7.63	0.3831	0.0579	-0.3867	
-1.009672	-0.082472	0.196542	10.71	-58.59	-8.12	0.371	0.06439999	-0.3998	
-0.996862	-0.086376	0.194346	9.59	-61.11	-8.47	0.3688	0.0608	-0.4118	
-0.987712	-0.099918	0.252662	10.57	-64.61	-7.84	0.3482	0.0678	-0.4314	
-0.97173	-0.111508	0.275842	14.42	-62.79	-7.63	0.3392	0.0554	-0.4299	
-0.948672	-0.115046	0.299754	14.98	-60.9	-6.37	0.3337	0.0602	-0.4395	
-0.943914	-0.118706	0.309758	15.12	-58.66	-5.6	0.3166	0.07099999	-0.4514	
-0.942816	-0.124928	0.329522	12.11	-57.26	-4.9	0.3166	0.0696	-0.4529	
-0.968924	-0.123952	0.385154	11.34	-56.49	-4.06	0.3101	0.0603	-0.4604	
-0.953552	-0.123342	0.39589	13.51	-52.57	-2.73	0.2993	0.0536	-0.4593	
-0.961482	-0.125538	0.422852	15.54	-51.87	-0.84	0.2972	0.0567	-0.4655	
-0.939766	-0.108458	0.41968	15.4	-51.94	-0.21	0.2739	0.0608	-0.4791	
-0.91256	-0.091744	0.423584	13.72	-53.97	-1.4	0.281	0.068	-0.4896	
-0.920368	-0.09394	0.436516	12.88	-54.46	-3.99	0.2688	0.0516	-0.4911	
-0.931714	-0.097844	0.432734	14.77	-52.57	-5.18	0.2613	0.0662	-0.4997	
-0.926834	-0.096502	0.45323	15.05	-55.79	-6.44	0.247	0.0475	-0.5118	
-0.91256	-0.076128	0.44652	13.58	-57.75	-5.6	0.2473	0.0569	-0.5001	
-0.865224	-0.066612	0.499224	8.54	-57.89	-2.87	0.229	0.0579	-0.5117	
-0.852902	-0.058438	0.49044	9.1	-56.28	-2.31	0.2196	0.0567	-0.5091	
-0.8296	-0.067222	0.495686	7.14	-57.26	-3.36	0.2075	0.0564	-0.5264	
-0.79727	-0.085156	0.527528	5.53	-60.69	-4.76	0.2044	0.055	-0.525	
-0.778482	-0.100894	0.549244	4.41	-57.82	-4.62	0.1989	0.0598	-0.5346	
-0.769088	-0.10492	0.616954	6.23	-58.52	-3.29	0.1881	0.0489	-0.5348	
-0.769942	-0.089426	0.646234	9.59	-55.02	-2.1	0.1639	0.0553	-0.5348	
-0.750178	-0.09089	0.644526	9.17	-61.32	-1.54	0.1586	0.0626	-0.5385	
-0.71614	-0.098698	0.646234	8.19	-64.26	-2.03	0.162	0.0474	-0.5452	
-0.686982	-0.110532	0.628056	7.07	-59.01	-2.73	0.1378	0.0442	-0.5525	
-0.676368	-0.091134	0.652944	8.26	-54.46	-2.31	0.1261	0.0518	-0.5564	
-0.659898	-0.084912	0.658312	8.05	-56.77	-2.38	0.1154	0.0435	-0.5521	
-0.654286	-0.072834	0.677466	10.64	-56.63	-2.73	0.1113	0.0498	-0.5647	
-0.648552	-0.069174	0.716994	10.99	-55.79	-2.94	0.1001	0.0528	-0.5624	
-0.626836	-0.081862	0.74664	10.85	-58.17	-3.08	0.0888	0.0423	-0.5717	
-0.60817	-0.090158	0.763598	8.4	-57.89	-2.52	0.0773	0.047	-0.5741	
-0.591822	-0.082716	0.774334	6.3	-52.43	-0.14	0.0676	0.0461	-0.5776	
-0.575352	-0.07991	0.772138	4.9	-48.02	2.31	0.0565	0.0463	-0.5752	
-0.548146	-0.069296	0.787388	5.46	-49.7	1.96	0.0569	0.0379	-0.5748	
-0.54534	-0.064172	0.74969	2.59	-53.62	1.75	0.0388	0.0388	-0.5834	
-0.518134	-0.069418	0.802272	7.7	-34.86	1.89	0.0359	0.0401	-0.5776	
-0.503006	-0.086986	0.810568	12.6	-26.46	0.91	0.0227	0.0449	-0.5815	
-0.487268	-0.070882	0.812398	11.83	-27.23	-0.42	0.0199	0.0378	-0.5783	
-0.466894	-0.055876	0.830698	9.1	-26.25	-1.4	0.0151	0.0298	-0.5843	
-0.474946	-0.030988	0.83448	9.94	-19.25	-2.03	0.0039	0.0343	-0.5821	
-0.475678	-0.028914	0.83814	8.89	-20.23	-2.31	0.0144	0.0426	-0.5879	
-0.463112	-0.0366	0.846192	7.42	-22.33	-2.66	0.0102	0.03	-0.5861	
-0.437248	-0.04941	0.841556	5.88	-18.27	-2.24	-0.007	0.0304	-0.581	
-0.433588	-0.03904	0.840092	5.53	-9.52	-1.19	-0.0107	0.0322	-0.5889	
-0.436882	-0.029768	0.83753	4.69	-4.97	0.07	0.0009	0.0302	-0.5821	
-0.442494	-0.034404	0.837408	3.43	-2.66	0.7	-0.008599999	0.0319	-0.5812	
-0.449692	-0.031598	0.845704	0.14	-0.63	1.47	-0.0089	0.0293	-0.5871	
-0.454572	-0.033916	0.857416	-0.49	0.91	1.33	-0.0092	0.0322	-0.5903	
-0.462746	-0.031476	0.86071	-0.14	2.73	0.84	0.0025	0.0219	-0.5862	
-0.470188	-0.028792	0.860588	-0.07	5.95	0.91	-0.0137	0.0308	-0.586	
-0.470554	-0.029158	0.852048	-2.1	9.24	1.12	0.0054	0.0274	-0.5878	
-0.47275	-0.030988	0.833382	-4.2	11.9	0.56	-0.0021	0.0288	-0.5807	
-0.485194	-0.035746	0.826306	-5.81	13.3	0.07	-0.004	0.0263	-0.5868	
-0.496174	-0.048434	0.833016	-6.51	13.72	-0.14	0.0068	0.0371	-0.5851	
-0.50081	-0.056364	0.849852	-7.91	13.58	-0.42	0.01	0.0343	-0.5863	
-0.4941	-0.057828	0.852536	-8.4	16.03	-0.14	0.0085	0.0384	-0.5835	
-0.487634	-0.052216	0.83753	-7.63	20.44	0.56	0.0068	0.0385	-0.5836	
-0.490684	-0.051606	0.8113	-7.07	25.41	0.84	0.0178	0.0369	-0.589	
-0.49288	-0.053924	0.799344	-8.12	27.72	0.42	0.0191	0.0439	-0.5892	
-0.491416	-0.058804	0.797026	-9.45	30.87	0.35	0.0244	0.0407	-0.5828	
-0.508008	-0.066246	0.784704	-9.31	34.37	-0.14	0.0309	0.0417	-0.5794	
-0.51911	-0.072346	0.785314	-8.05	39.41	-0.21	0.04	0.0431	-0.5865	
-0.52521	-0.07625	0.77897	-7.21	44.52	-0.49	0.0321	0.0365	-0.5897	
-0.547902	-0.071004	0.765062	-7.42	47.95	-0.98	0.0582	0.0421	-0.5764	
-0.565104	-0.07905599	0.761524	-10.64	50.96	0.91	0.0755	0.05	-0.5758	
-0.574864	-0.080764	0.748592	-9.1	54.88	1.12	0.0766	0.0438	-0.5619	
-0.584136	-0.072956	0.729072	-8.12	57.47	0.91	0.0884	0.044	-0.5779	
-0.601826	-0.074786	0.713334	-8.68	61.25	1.82	0.0983	0.0421	-0.5727	
-0.63501	-0.07686	0.695766	-8.33	64.47	1.96	0.1021	0.047	-0.5591	
-0.662216	-0.081252	0.67832	-7.63	66.01	2.38	0.1123	0.0422	-0.5523	
-0.688446	-0.085034	0.659166	-7.35	67.48	3.08	0.1327	0.0473	-0.5559	
-0.714432	-0.078934	0.637084	-6.72	69.65	3.99	0.1442	0.0453	-0.5506	
-0.744566	-0.072224	0.612684	-5.11	71.61	4.9	0.1688	0.0496	-0.5374	
-0.770186	-0.075274	0.581086	-5.04	71.75	5.18	0.1653	0.0513	-0.5406	
-0.80154	-0.07905599	0.562176	-6.58	68.88	4.48	0.1801	0.0519	-0.5323	
-0.82411	-0.086742	0.547536	-7.63	65.1	3.15	0.1927	0.0557	-0.5333	
-0.842898	-0.084302	0.537654	-8.19	65.8	3.08	0.2064	0.0533	-0.5188	
-0.859002	-0.07747	0.516304	-8.89	68.18	3.36	0.2228	0.0539	-0.5119	
-0.879376	-0.068808	0.497516	-10.99	68.74	3.92	0.2261	0.051	-0.5116	
-0.898896	-0.07124799	0.475434	-13.23	66.01	3.57	0.2452	0.0559	-0.5092	
-0.943182	-0.08906	0.462868	-14.63	63.21	3.29	0.2475	0.0485	-0.5012	
-0.955992	-0.09638	0.442616	-16.38	60.69	3.85	0.2622	0.0602	-0.4888	
-0.961482	-0.109922	0.430416	-17.99	58.59	3.08	0.266	0.0487	-0.4851	
-0.950258	-0.102968	0.4087	-15.47	60.48	2.66	0.2711	0.0552	-0.476	
-0.968924	-0.097356	0.369172	-13.09	63.21	1.19	0.2871	0.0629	-0.4709	
-0.991982	-0.107848	0.366854	-13.23	59.57	-0.07	0.2903	0.0587	-0.4736	
-1.015406	-0.110044	0.342576	-11.76	57.26	0.98	0.3117	0.0562	-0.4632	
-1.002352	-0.118218	0.327692	-10.22	59.22	0.77	0.3169	0.0612	-0.4525	
-1.013698	-0.105896	0.312198	-5.81	61.39	-1.61	0.312	0.056	-0.4586	
-0.998692	-0.088694	0.309636	-6.86	62.3	0.98	0.329	0.06439999	-0.4354	
-1.00101	-0.082106	0.280722	-7.14	56.56	0.42	0.3344	0.0569	-0.4287	
-0.965142	-0.07442	0.236192	-7.35	55.51	4.41	0.3379	0.0621	-0.4212	
-0.960994	-0.07503	0.23363	-10.29	49.77	3.22	0.3588	0.0504	-0.4256	
-0.969534	-0.082594	0.190808	-14.42	51.31	4.55	0.3655	0.0609	-0.4135	
-1.003694	-0.10187	0.201544	-14	49.14	4.55	0.3691	0.0496	-0.4144	
-1.02419	-0.122366	0.208254	-12.46	50.12	2.66	0.3663	0.0713	-0.3927	
-0.993324	-0.135542	0.194712	-9.45	51.66	3.78	0.3795	0.0665	-0.3888	
-0.980026	-0.121024	0.16104	-4.97	50.4	5.46	0.3903	0.0599	-0.3713	
-0.967338	-0.10248	0.127612	-6.23	50.89	7.21	0.3898	0.0658	-0.3776	
-0.96502	-0.102236	0.141886	-5.25	52.99	6.58	0.4012	0.0721	-0.3682	
-0.999912	-0.104188	0.089426	-4.9	50.33	5.25	0.4055	0.0658	-0.3541	
-0.999302	-0.10309	0.072346	-3.57	46.97	5.18	0.4066	0.0715	-0.3588	
-1.031022	-0.09747799	0.03294	-3.01	39.27	5.25	0.4123	0.0571	-0.3518	
-1.050298	-0.077226	0.014884	2.59	28.7	1.54	0.423	0.0574	-0.3331	
-1.06445	-0.083082	0.033916	2.17	23.73	0	0.4192	0.062	-0.3395	
-1.063718	-0.086132	0.008905999	0.77	26.04	1.05	0.4197	0.0617	-0.3319	
-1.015528	-0.081862	0.00549	0.49	28.28	1.54	0.4297	0.0611	-0.3253	
-1.02297	-0.054046	-0.070394	-0.7	31.78	5.67	0.4193	0.0606	-0.3395	
-1.04249	-0.063196	-0.033672	-3.43	26.53	3.43	0.4378	0.0566	-0.3262	
-1.05042	-0.078812	-0.028182	-6.93	16.66	3.01	0.4387	0.0505	-0.3138	
-1.054202	-0.085156	-0.028914	-4.27	13.16	1.89	0.4321	0.0481	-0.3186	
-1.04615	-0.085888	-0.047092	-0.7	17.78	1.4	0.4431	0.0589	-0.3154	
-1.044198	-0.096868	-0.04026	0.91	17.36	0.77	0.441	0.0569	-0.2988	
-1.045174	-0.09272	-0.061244	1.05	8.4	-0.49	0.4452	0.0502	-0.3119	
-1.055422	-0.088816	-0.066612	1.68	1.05	-0.77	0.4389	0.0532	-0.3093	
-1.055422	-0.083326	-0.062342	0.84	1.12	0	0.4487	0.0555	-0.3044	
-1.049688	-0.07515199	-0.06466	-0.14	2.38	0.49	0.4324	0.0561	-0.3083	
-1.04249	-0.07198	-0.049044	-1.19	1.47	-0.14	0.4451	0.0599	-0.3078	
-1.042612	-0.07124799	-0.057706	-2.17	-1.68	-0.49	0.4443	0.0471	-0.3027	
-1.042124	-0.080032	-0.063684	-1.96	-4.48	-0.21	0.4432	0.0643	-0.3111	
-1.05042	-0.09272	-0.060512	-1.33	-7.28	-0.49	0.4338	0.0576	-0.3113	
-1.04798	-0.090646	-0.046482	-0.14	-9.8	-0.98	0.4449	0.0546	-0.3151	
-1.044198	-0.09211	-0.0305	0.7	-9.87	-1.12	0.4371	0.0561	-0.3111	
-1.037976	-0.087108	-0.027084	-1.89	-9.52	-0.14	0.438	0.0459	-0.3015	
-1.032364	-0.08662	-0.030988	-2.38	-11.2	-0.42	0.426	0.0509	-0.313	
-1.039196	-0.090402	-0.027938	-1.82	-15.26	-0.77	0.4435	0.0627	-0.3065	
-1.035902	-0.086376	-0.026474	-1.19	-19.6	-1.05	0.4393	0.0607	-0.3248	
-1.038586	-0.0854	-0.01159	-0.35	-19.81	-0.56	0.4266	0.057	-0.3253	
-1.041392	-0.077104	-0.004758	0.49	-18.62	0	0.4314	0.0596	-0.3236	
-1.03761	-0.076006	0.019886	0	-20.09	0.77	0.4399	0.0549	-0.3184	
-1.022726	-0.0793	0.013298	0.56	-22.4	-0.35	0.4374	0.0596	-0.3309	
-1.026264	-0.074664	0.004758	-1.4	-23.73	-1.05	0.4167	0.0548	-0.3333	
-1.020896	-0.075274	0.019642	-3.43	-24.78	-1.89	0.4229	0.0643	-0.3303	
-1.0309	-0.089548	0.033062	-4.2	-27.58	-2.94	0.4164	0.0536	-0.3393	
-1.03151	-0.08235	0.070638	-3.78	-31.15	-3.71	0.4142	0.0541	-0.3486	
-1.031754	-0.077104	0.075884	0.63	-35.14	-5.04	0.4106	0.0613	-0.3506	
-1.029924	-0.077592	0.072956	1.75	-37.66	-5.18	0.4096	0.0555	-0.3443	
-1.030046	-0.080764	0.094062	3.5	-39.97	-5.04	0.4069	0.0562	-0.3627	
-1.018212	-0.084302	0.109068	3.01	-43.4	-4.9	0.4112	0.06879999	-0.3645	
-1.010526	-0.085278	0.130052	2.38	-43.82	-5.11	0.3979	0.0709	-0.3713	
-1.006988	-0.091378	0.130784	1.96	-49.84	-5.67	0.4008	0.0655	-0.38	
-1.014674	-0.08662	0.139934	3.5	-50.05	-7	0.3862	0.0661	-0.3839	
-1.020408	-0.089426	0.162748	7.14	-50.26	-7.28	0.3876	0.0676	-0.3869	
-1.002962	-0.096136	0.188124	10.29	-49.07	-7	0.3794	0.0653	-0.3918	
-0.997838	-0.1037	0.206668	11.55	-49.91	-7.28	0.3676	0.066	-0.4015	
-0.983686	-0.100528	0.224114	10.64	-53.13	-7.42	0.3615	0.0822	-0.4146	
-0.955016	-0.105042	0.240706	8.75	-55.44	-6.86	0.3555	0.0793	-0.4088	
-0.946598	-0.110898	0.267546	7.91	-57.61	-6.37	0.3395	0.0675	-0.4168	
-0.950136	-0.11285	0.292434	9.31	-56.7	-4.9	0.3339	0.0737	-0.4264	
-0.941962	-0.119804	0.324032	10.78	-55.93	-3.43	0.3226	0.0687	-0.4329	
-0.933178	-0.125416	0.35746	9.45	-54.11	-2.24	0.3154	0.064	-0.4497	
-0.93086	-0.132248	0.360266	9.45	-50.68	-2.03	0.3152	0.0696	-0.45	
-0.961482	-0.120658	0.378078	11.2	-48.93	-2.17	0.3118	0.0657	-0.456	
-0.944158	-0.124074	0.386252	14.49	-49.07	-1.89	0.2961	0.0592	-0.4551	
-0.945622	-0.109556	0.40809	16.8	-50.05	-2.31	0.2886	0.0588	-0.4752	
-0.926468	-0.098942	0.418704	17.85	-49.14	-1.4	0.2752	0.0692	-0.4794	
-0.916586	-0.095648	0.406626	17.71	-46.76	-1.19	0.2854	0.0589	-0.4754	
-0.93391	-0.09638	0.443836	14.28	-46.83	-1.12	0.2799	0.0554	-0.4891	
-0.96319	-0.09076799	0.440054	15.26	-49	-2.59	0.2689	0.0529	-0.4881	
-0.92964	-0.08784	0.460672	13.58	-54.95	-3.99	0.2523	0.0566	-0.4968	
-0.88389	-0.087352	0.473116	11.83	-57.47	-4.2	0.2511	0.0522	-0.4921	
-0.851438	-0.07686	0.478118	11.97	-56.63	-5.25	0.2344	0.056	-0.5022	
-0.840824	-0.077104	0.504958	12.04	-56.21	-5.88	0.2156	0.0587	-0.5215	
-0.845216	-0.083204	0.53863	12.25	-56.56	-5.95	0.2159	0.0544	-0.5198	
-0.84424	-0.066368	0.553514	11.55	-56.77	-5.39	0.1901	0.0459	-0.53	
-0.84607	-0.082594	0.603656	10.08	-60.55	-3.5	0.1882	0.0461	-0.5346	
-0.814106	-0.101016	0.591944	4.9	-57.82	-1.26	0.1903	0.043	-0.5283	
-0.76067	-0.108214	0.617198	0.7	-60.13	0.21	0.1696	0.0381	-0.5308	
-0.736026	-0.09577	0.618418	-0.07	-55.02	0.77	0.1575	0.0446	-0.5423	
-0.722484	-0.081374	0.620126	2.66	-58.38	0.21	0.1582	0.052	-0.5532	
-0.697718	-0.083204	0.646234	6.37	-62.09	-1.82	0.1394	0.0442	-0.5524	
-0.673684	-0.085644	0.666486	8.82	-61.67	-2.66	0.1263	0.0557	-0.5505	
-0.649528	-0.09162199	0.676612	8.05	-59.08	-2.66	0.1141	0.0485	-0.5721	
-0.63074	-0.0854	0.694546	6.37	-58.38	-3.43	0.1018	0.0473	-0.5652	
-0.61366	-0.083692	0.710406	6.09	-56	-4.13	0.0948	0.0506	-0.5732	
-0.605608	-0.092232	0.729804	5.6	-54.53	-4.2	0.0729	0.0469	-0.5682	
-0.596336	-0.08601	0.732976	5.25	-53.48	-3.36	0.0856	0.0452	-0.5705	
-0.578158	-0.077836	0.744566	4.34	-52.71	-1.61	0.0695	0.0444	-0.5729	
-0.556564	-0.071004	0.781532	6.79	-49.42	0.63	0.0605	0.0508	-0.5857	
-0.540094	-0.070028	0.766282	6.65	-47.11	1.89	0.042	0.0483	-0.5776	
-0.536556	-0.070516	0.7869	10.92	-37.52	1.12	0.0433	0.047	-0.582	
-0.535336	-0.065514	0.787998	9.31	-31.57	0.91	0.0394	0.0411	-0.5714	
-0.524844	-0.069296	0.804712	7	-32.69	0.98	0.0321	0.0502	-0.5812	
-0.521916	-0.07442	0.834602	7.56	-30.94	1.89	0.0236	0.0453	-0.5936	
-0.518744	-0.082838	0.835822	7.28	-30.38	2.31	0.0225	0.0464	-0.5846	
-0.506422	-0.074298	0.838872	7.07	-29.26	1.75	0.015	0.0381	-0.5801	
-0.489342	-0.06283	0.838384	6.51	-25.2	1.05	0.0068	0.0371	-0.5851	
-0.479338	-0.053558	0.830698	6.51	-21.28	-0.35	0.0098	0.0371	-0.5879	
-0.48129	-0.054046	0.824842	6.79	-17.29	-1.19	-0.009099999	0.0377	-0.586	
-0.473726	-0.05551	0.829356	4.27	-16.38	-1.12	-0.006	0.0349	-0.5887	
-0.470432	-0.049898	0.837286	4.55	-14.28	-1.75	-0.0098	0.0381	-0.5966	
-0.458964	-0.044164	0.840824	4.27	-10.57	-2.03	-0.0059	0.0417	-0.5829	
-0.45262	-0.045384	0.858026	3.29	-7.77	-2.24	-0.0056	0.0305	-0.5855	
-0.449204	-0.047458	0.861198	2.87	-6.65	-1.47	-0.014	0.0228	-0.5962	
-0.444202	-0.04331	0.864004	1.82	-3.92	-0.35	-0.0194	0.0384	-0.5972	
-0.444568	-0.040504	0.856318	0.28	-0.42	0.63	-0.0125	0.0352	-0.5906	
-0.447862	-0.042578	0.849608	-0.91	2.59	0.7	-0.0094	0.0324	-0.5949	
-0.44774	-0.044042	0.84912	-1.4	5.04	0.14	-0.0096	0.0366	-0.595	
-0.454084	-0.040382	0.846924	-1.89	7.91	-0.49	-0.0158	0.0422	-0.5881	
-0.458842	-0.046116	0.84729	-2.8	10.01	-0.7	-0.0168	0.0295	-0.5861	
-0.466284	-0.052948	0.852536	-2.94	11.83	-0.84	-0.0187	0.0311	-0.5893	
-0.474824	-0.05551	0.856318	-2.45	14.07	-1.12	-0.0077	0.0336	-0.5918	
-0.470554	-0.050752	0.849364	-4.48	14.14	-0.84	-0.0058	0.0348	-0.5857	
-0.475434	-0.048434	0.834236	-5.67	17.36	-0.28	-0.0047	0.0433	-0.589	
-0.485072	-0.049166	0.817522	-5.53	20.65	-0.28	0.0019	0.0278	-0.5941	
-0.501542	-0.055266	0.81679	-5.46	22.33	-0.7	0.0099	0.0371	-0.5864	
-0.515938	-0.062708	0.818742	-6.65	24.22	-0.77	0.0094	0.0511	-0.587	
-0.518012	-0.073688	0.825452	-7.14	26.11	-0.14	0.0166	0.0312	-0.5858	
-0.528992	-0.07564	0.811666	-6.65	27.86	0.21	0.0356	0.0416	-0.5807	
-0.529968	-0.076616	0.804834	-6.65	29.96	0.98	0.0271	0.0491	-0.586	
-0.542168	-0.070882	0.792756	-6.16	33.88	1.4	0.0391	0.0359	-0.5802	
-0.553392	-0.071492	0.782996	-6.65	34.65	0.98	0.0406	0.0454	-0.5745	
-0.563396	-0.07503	0.783118	-7	36.4	0.35	0.0437	0.0399	-0.5801	
-0.58194	-0.076372	0.768966	-6.37	38.85	-0.49	0.0597	0.0394	-0.5808	
-0.591456	-0.080032	0.760426	-6.86	41.3	-0.35	0.0525	0.0433	-0.5647	
-0.601216	-0.085766	0.753106	-6.72	44.03	0	0.0693	0.0419	-0.5788	
-0.619516	-0.073444	0.738954	-6.72	46.06	1.89	0.0849	0.0526	-0.5784	
-0.629154	-0.085278	0.729316	-6.93	47.53	2.45	0.09559999	0.0405	-0.5667	
-0.64477	-0.081618	0.712114	-7.7	50.12	3.01	0.095	0.0546	-0.5673	
-0.66368	-0.075884	0.704306	-7.49	51.8	2.45	0.1116	0.04	-0.5658	
-0.67954	-0.074908	0.690032	-7.42	53.48	2.1	0.125	0.0378	-0.5559	
-0.693204	-0.08723	0.678076	-8.19	53.97	2.59	0.121	0.0494	-0.5627	
-0.709186	-0.09467199	0.662582	-7.84	54.46	3.78	0.1421	0.054	-0.5541	
-0.719312	-0.098088	0.640134	-7.35	57.05	5.25	0.1469	0.0497	-0.5567	
-0.734928	-0.086986	0.6222	-7.07	57.82	5.74	0.1571	0.0558	-0.5413	
-0.754814	-0.08052	0.607194	-7.21	57.19	5.32	0.1574	0.0556	-0.5367	
-0.776286	-0.07515199	0.59109	-7.14	56.42	5.11	0.1714	0.0567	-0.542	
-0.795196	-0.07625	0.578768	-7.28	55.3	4.48	0.1744	0.0568	-0.5449	
-0.816424	-0.080642	0.558028	-6.93	54.74	4.27	0.1944	0.0502	-0.536	
-0.828624	-0.084058	0.537654	-6.58	53.34	3.92	0.2011	0.0524	-0.5281	
-0.849852	-0.086498	0.521428	-7.14	52.92	3.01	0.211	0.0602	-0.5188	
-0.866566	-0.085522	0.510326	-8.26	52.57	2.31	0.2257	0.054	-0.5163	
-0.882182	-0.08418	0.496662	-9.66	52.22	1.68	0.2264	0.0466	-0.5084	
-0.893894	-0.08357	0.48556	-10.85	51.73	1.75	0.2362	0.0476	-0.5048	
-0.92171	-0.089548	0.476288	-13.16	51.03	1.26	0.2536	0.0499	-0.5055	
-0.915976	-0.085034	0.45384	-12.95	48.72	0.91	0.2425	0.0502	-0.5046	
-0.910852	-0.092476	0.455426	-13.23	46.34	0.91	0.2592	0.0546	-0.4887	
-0.909022	-0.098332	0.435174	-11.13	48.23	0.35	0.2688	0.0612	-0.4839	
-0.919148	-0.100406	0.410774	-9.59	51.38	0.49	0.2838	0.0589	-0.4739	
-0.948062	-0.107848	0.406992	-10.57	51.52	0.7	0.2801	0.0731	-0.4747	
-0.958066	-0.113704	0.385154	-11.27	48.86	0.35	0.2933	0.0641	-0.4721	
-0.957334	-0.118218	0.36783	-12.25	46.76	-0.98	0.2999	0.0652	-0.4688	
-0.964166	-0.122122	0.360266	-11.06	47.81	-0.49	0.3177	0.06439999	-0.4647	
-0.98088	-0.109434	0.32147	-9.87	52.22	0.56	0.3101	0.0658	-0.4576	
-1.0126	-0.112728	0.309148	-10.78	52.85	1.54	0.3185	0.0694	-0.4483	
-0.995642	-0.108092	0.298168	-8.96	47.32	1.4	0.3303	0.0659	-0.4399	
-0.987956	-0.109312	0.275232	-7.7	45.78	1.75	0.3341	0.0613	-0.4319	
-0.976488	-0.10736	0.248514	-5.6	47.18	2.59	0.334	0.075	-0.4249	
-0.976732	-0.106628	0.232044	-6.93	45.71	3.5	0.3389	0.0665	-0.4273	
-0.981124	-0.103822	0.236314	-7.21	42.21	3.92	0.3445	0.0618	-0.4178	
-0.985516	-0.100284	0.228994	-6.51	42.7	4.69	0.3527	0.0586	-0.4157	
-0.981856	-0.11651	0.215208	-6.37	45.08	4.76	0.3673	0.0676	-0.4062	
-0.963922	-0.128222	0.185196	-6.93	48.93	5.25	0.3726	0.0712	-0.3954	
-0.989786	-0.13725	0.174338	-5.95	45.92	5.53	0.371	0.074	-0.3926	
-1.000644	-0.12871	0.168238	-5.6	41.02	5.74	0.3846	0.0621	-0.3868	
-0.985638	-0.109434	0.164822	-1.82	41.23	5.81	0.393	0.0574	-0.3816	
-0.976122	-0.088328	0.173728	-1.68	44.59	7.56	0.3977	0.0697	-0.3758	
-0.995154	-0.065758	0.119682	-1.47	43.26	6.65	0.3998	0.0692	-0.3666	
-0.983076	-0.062586	0.111874	-1.61	42.7	5.6	0.3973	0.0566	-0.3632	
-0.999424	-0.065026	0.07124799	-1.54	40.32	4.76	0.402	0.0633	-0.3602	
-1.010892	-0.082838	0.091256	-1.4	36.96	3.99	0.4184	0.0639	-0.3533	
-0.981978	-0.094428	0.104676	-1.89	31.22	1.89	0.4112	0.0527	-0.3472	
-0.981124	-0.074908	0.092598	1.89	31.08	0.98	0.4273	0.0589	-0.3405	
-0.98576	-0.070394	0.030012	1.26	31.71	1.68	0.4185	0.0491	-0.333	
-1.016504	-0.080642	-0.008417999	-2.73	31.85	3.01	0.4182	0.0534	-0.3347	
-1.028216	-0.08479	-0.030744	-4.76	19.74	1.33	0.4215	0.0574	-0.3317	
-1.066524	-0.09455	-0.029646	-7.21	21.21	3.43	0.4271	0.0498	-0.322	
-1.077504	-0.103822	-0.002196	-3.78	24.43	2.38	0.4381	0.0495	-0.3244	
-1.067622	-0.110288	-0.011712	-1.75	22.61	1.82	0.4385	0.0507	-0.3183	
-1.047858	-0.096014	-0.050386	-1.19	20.37	0	0.4306	0.055	-0.3129	
-1.029802	-0.079178	-0.07137	-0.42	15.96	0.42	0.4426	0.05	-0.303	
-1.049566	-0.075396	-0.063196	-2.31	10.01	0.49	0.4365	0.0551	-0.3217	
-1.047858	-0.073932	-0.060634	-1.96	4.13	0.77	0.4339	0.0548	-0.3112	
-1.05957	-0.085888	-0.068808	-1.96	4.48	0.98	0.4455	0.0555	-0.303	
-1.070062	-0.087596	-0.085644	-1.4	5.32	0.35	0.4476	0.0658	-0.3169	
-1.064816	-0.08686399	-0.06771	-0.7	3.64	0.35	0.4419	0.0573	-0.3093	
-1.051274	-0.07625	-0.076372	0.91	2.24	-0.14	0.4431	0.0726	-0.3069	
-1.04066	-0.072956	-0.060268	0.84	0.42	-0.56	0.4478	0.0523	-0.2937	
-1.040294	-0.079666	-0.055754	-0.21	-1.19	-0.56	0.4448	0.0669	-0.3081	
-1.036634	-0.086498	-0.060756	-1.75	-3.85	-0.35	0.4392	0.0529	-0.3033	
-1.037122	-0.089914	-0.037088	-1.89	-6.02	-0.56	0.4457	0.0554	-0.3	
-1.035048	-0.08845	-0.025254	-0.07	-6.65	-1.26	0.4455	0.0528	-0.3059	
-1.024556	-0.083204	-0.030134	-1.75	-7.21	-0.7	0.436	0.0599	-0.2992	
-1.025776	-0.076494	-0.025742	-1.05	-7.28	-0.91	0.4369	0.0603	-0.3113	
-1.029192	-0.079666	-0.024278	-0.56	-10.29	-1.54	0.4435	0.0613	-0.3064	
-1.029314	-0.080398	-0.018666	-1.61	-10.85	-1.89	0.4465	0.06	-0.3107	
-1.025166	-0.083204	-0.02501	-2.73	-10.5	-1.68	0.4379	0.0579	-0.3232	
-1.030168	-0.085156	-0.019642	-0.49	-11.27	-1.96	0.4354	0.0507	-0.3155	
-1.038342	-0.083448	-0.022692	0.77	-11.55	-1.96	0.4256	0.069	-0.3077	
-1.038708	-0.084912	-0.014396	0.98	-13.02	-1.82	0.4365	0.0647	-0.316	
-1.042368	-0.08418	-0.00976	-0.35	-16.87	-0.91	0.4368	0.0686	-0.3086	
-1.03212	-0.096014	0.004636	-1.47	-20.72	-0.63	0.4301	0.0635	-0.3163	
-1.023946	-0.102846	0.0244	-1.4	-20.3	-1.47	0.4198	0.0657	-0.3275	
-1.016748	-0.08906	0.012322	0.28	-18.69	-1.4	0.4313	0.0528	-0.3309	
-1.01443	-0.09089	0.026352	0.42	-19.46	-1.4	0.4278	0.0572	-0.3328	
-1.013454	-0.09638	0.021228	-0.21	-20.86	-1.54	0.4212	0.0603	-0.3348	
-1.020408	-0.086742	0.03538	-0.28	-24.43	-2.31	0.4196	0.0604	-0.3349	
-1.020042	-0.088206	0.050752	0	-27.23	-2.8	0.4238	0.0606	-0.3438	
-1.025654	-0.08601	0.057462	-1.19	-29.96	-3.15	0.4174	0.0608	-0.3441	
-1.021262	-0.088938	0.08601	-1.12	-31.78	-3.29	0.4092	0.064	-0.3462	
-1.013454	-0.085888	0.079666	0.7	-32.27	-3.57	0.4074	0.07099999	-0.3451	
-1.018212	-0.086498	0.09028	0.63	-36.82	-4.76	0.4037	0.0591	-0.3614	
-1.008574	-0.078812	0.110044	1.68	-41.79	-6.23	0.4041	0.0602	-0.3539	
-1.003572	-0.090402	0.108336	2.17	-44.45	-6.86	0.3999	0.0678	-0.3666	
-1.017602	-0.089182	0.143838	4.27	-44.73	-7.07	0.388	0.066	-0.3807	
-1.009428	-0.097356	0.16531	5.95	-46.13	-8.54	0.381	0.0707	-0.3874	
-1.000766	-0.109678	0.184098	6.51	-44.24	-7.77	0.3845	0.0635	-0.3869	
-0.995642	-0.116388	0.179828	7	-41.72	-6.72	0.3631	0.0729	-0.393	
-0.98942	-0.124196	0.198128	5.11	-46.13	-5.95	0.3622	0.0748	-0.4067	
-0.98759	-0.117364	0.232166	6.79	-46.27	-5.67	0.3649	0.086	-0.407	
-0.976122	-0.11163	0.247416	7.14	-45.01	-6.37	0.3598	0.0713	-0.4234	
-0.956724	-0.11102	0.252296	7.7	-43.33	-6.86	0.3473	0.0729	-0.4165	
-0.943426	-0.12017	0.278404	8.26	-44.38	-7.49	0.3475	0.07	-0.4149	
-0.939278	-0.132248	0.285846	9.24	-44.94	-6.86	0.3367	0.0739	-0.4338	
-0.942938	-0.141764	0.329522	11.62	-44.66	-6.44	0.332	0.0781	-0.4297	
-0.939766	-0.130174	0.34038	12.67	-40.6	-6.23	0.3169	0.079	-0.4412	
-0.933544	-0.111996	0.3599	11.2	-38.01	-5.67	0.3238	0.0757	-0.4346	
-0.9272	-0.10187	0.35929	9.17	-36.68	-4.55	0.3126	0.0693	-0.4395	
-0.91805	-0.105652	0.376248	7.91	-35.35	-2.52	0.3122	0.0668	-0.4485	
-0.904386	-0.116022	0.40077	7.77	-34.86	-1.68	0.3035	0.073	-0.4568	
-0.887916	-0.118218	0.420534	8.05	-32.48	-2.31	0.2939	0.0706	-0.4587	
-0.867176	-0.109312	0.414312	9.45	-28.14	-3.99	0.2849	0.0633	-0.4801	
-0.83753	-0.110532	0.42883	8.68	-27.02	-5.67	0.2849	0.0633	-0.4801	
-0.843386	-0.102968	0.429196	8.19	-26.32	-5.95	0.2788	0.0633	-0.4759	
-0.854366	-0.112972	0.434198	8.4	-23.94	-4.34	0.285	0.0632	-0.4786	
-0.846558	-0.133102	0.432978	8.75	-22.47	-1.54	0.2736	0.0665	-0.4809	
-0.8357	-0.142496	0.46604	8.19	-20.93	1.19	0.2738	0.0623	-0.4807	
-0.833016	-0.125904	0.457988	8.33	-15.33	1.05	0.2668	0.0642	-0.4887	
-0.844728	-0.113094	0.475678	7.28	-12.25	-0.42	0.2669	0.0656	-0.4872	
-0.858392	-0.117486	0.473116	6.02	-11.69	-1.19	0.2687	0.0708	-0.4798	
-0.864736	-0.13115	0.468358	6.23	-11.34	-0.56	0.2589	0.0631	-0.4891	
-0.848266	-0.14579	0.469944	6.86	-9.24	0.98	0.2517	0.06659999	-0.5002	
-0.850462	-0.132858	0.460306	7.56	-7.35	1.89	0.2764	0.0612	-0.4911	
-0.856196	-0.098454	0.469578	8.26	-5.46	1.68	0.2609	0.0614	-0.4829	
-0.859978	-0.080276	0.463478	9.24	-3.71	0.07	0.2701	0.0613	-0.4884	
-0.866688	-0.081984	0.466528	8.4	-2.94	-1.4	0.255	0.0623	-0.5014	
-0.873276	-0.094306	0.472872	5.6	0.98	-0.56	0.2679	0.0673	-0.4963	
-0.868884	-0.102236	0.477142	2.1	-0.63	1.47	0.2554	0.0593	-0.4967	
-0.874496	-0.08967	0.466894	2.59	-2.31	2.38	0.2506	0.0677	-0.4912	
-0.881206	-0.07991	0.471286	4.55	-2.1	2.17	0.2492	0.058	-0.494	
-0.884134	-0.082472	0.46604	6.44	-1.33	1.19	0.254	0.0537	-0.4965	
-0.886818	-0.101992	0.471896	5.18	-2.17	0.35	0.2633	0.0604	-0.4963	
-0.88145	-0.11651	0.465674	4.27	-0.84	1.26	0.2636	0.0534	-0.496	
-0.881572	-0.127978	0.460794	4.06	-2.03	2.03	0.2622	0.0561	-0.4916	
-0.8784	-0.124684	0.468236	4.55	-1.68	4.06	0.2482	0.0522	-0.4877	
-0.868152	-0.124562	0.463966	5.04	-1.61	5.25	0.2619	0.0562	-0.4962	
-0.864614	-0.119682	0.463478	4.55	-1.26	6.37	0.2514	0.048	-0.4904	
-0.866566	-0.116998	0.465796	2.24	-0.49	8.26	0.2494	0.051	-0.4952	
-0.880352	-0.115046	0.479216	1.19	0.28	10.85	0.2507	0.0511	-0.4996	
-0.886696	-0.106262	0.452986	2.59	2.45	11.83	0.2621	0.0575	-0.4917	
-0.867908	-0.113338	0.501664	2.17	-1.82	12.67	0.2572	0.0549	-0.4949	
-0.875594	-0.099186	0.478362	5.04	2.59	15.19	0.2557	0.0495	-0.4978	
-0.878522	-0.091256	0.473238	4.69	3.43	16.52	0.2509	0.051	-0.4966	
-0.88511	-0.080276	0.469578	3.29	2.87	17.71	0.2616	0.0403	-0.4835	
-0.889258	-0.06734399	0.462258	4.69	2.94	18.76	0.2585	0.0376	-0.4835	
-0.909022	-0.059414	0.458598	6.3	3.78	19.81	0.2562	0.0423	-0.4929	
-0.920978	-0.048556	0.461526	8.47	2.52	19.95	0.2638	0.0235	-0.4842	
-0.920612	-0.027572	0.470188	12.11	1.75	19.32	0.2682	0.0386	-0.4815	
-0.917074	-0.008662	0.47458	13.3	2.52	18.13	0.2603	0.0252	-0.489	
-0.900604	-0.001342	0.45994	12.25	1.82	16.87	0.2591	0.0195	-0.4858	
-0.886574	0.00122	0.4575	11.06	1.05	16.73	0.2627	0.0081	-0.4851	
-0.894016	0.005002	0.452986	11.48	3.43	17.5	0.2603	0.0196	-0.4918	
-0.903044	0.010858	0.457988	11.41	2.52	18.41	0.2724	-0.0018	-0.4902	
-0.911096	0.022204	0.456158	12.74	1.89	18.97	0.2701	0.0234	-0.4868	
-0.913658	0.028914	0.463112	13.86	1.19	18.83	0.2631	0.0106	-0.4776	
-0.904508	0.025864	0.468846	15.47	-0.21	18.41	0.2709	0.0009	-0.4874	
-0.886452	0.02196	0.470066	15.61	-3.78	17.22	0.2707	0.0024	-0.489	
-0.876448	0.039406	0.468846	15.82	-3.57	15.12	0.2618	0.0022	-0.4774	
-0.86559	0.053314	0.459574	14.98	0.7	13.23	0.2712	-0.002	-0.4827	
-0.87596	0.07381	0.460184	12.74	1.19	13.58	0.2751	-0.0121	-0.4775	
-0.89914	0.077104	0.44469	11.06	0.77	14.35	0.2702	-0.0092	-0.4779	
-0.919758	0.061488	0.452376	12.6	-0.56	14.35	0.2716	-0.0145	-0.4852	
-0.912316	0.067222	0.46848	15.47	-0.21	13.23	0.2743	-0.0047	-0.487	
-0.881938	0.083448	0.471652	16.52	-1.19	11.76	0.2689	-0.0299	-0.4862	
-0.85766	0.108092	0.461038	12.11	0.42	10.29	0.2701	-0.0187	-0.4851	
-0.84851	0.12932	0.443104	9.66	1.96	9.45	0.2693	-0.0302	-0.4786	
-0.85827	0.139934	0.442372	9.17	3.85	10.22	0.2704	-0.0354	-0.4905	
-0.88755	0.12932	0.432856	8.47	3.15	10.71	0.2642	-0.0325	-0.4864	
-0.924272	0.118096	0.446642	8.96	-1.47	10.22	0.2731	-0.0306	-0.4693	
-0.935252	0.119926	0.457622	10.64	-1.96	7.07	0.2676	-0.03	-0.4802	
-0.90829	0.123952	0.44469	11.41	-0.28	4.2	0.2715	-0.0456	-0.4794	
-0.876082	0.13237	0.426512	10.57	-0.56	4.48	0.2773	-0.0331	-0.4811	
-0.868396	0.146034	0.430538	10.78	-0.42	4.97	0.2705	-0.0395	-0.4918	
-0.8784	0.151402	0.445544	7.98	-0.63	5.74	0.2663	-0.0397	-0.483	
-0.894016	0.146644	0.456768	4.9	-1.68	5.18	0.2715	-0.0443	-0.4779	
-0.898164	0.137738	0.466528	3.78	-1.68	3.43	0.2671	-0.0444	-0.4721	
-0.889136	0.131516	0.461404	2.31	-0.56	1.19	0.2668	-0.0524	-0.4824	
-0.866566	0.127978	0.44469	0.63	-1.4	-0.28	0.2634	-0.0453	-0.4814	
-0.864126	0.139934	0.443348	-0.07	-1.96	-0.84	0.2655	-0.0389	-0.4679	
-0.876448	0.156038	0.45933	-3.29	-1.68	-0.14	0.2707	-0.0502	-0.4687	
-0.881572	0.156282	0.462868	-5.25	-2.73	-0.21	0.276	-0.0347	-0.4766	
-0.881938	0.144204	0.46726	-5.53	-3.29	-1.26	0.2646	-0.0369	-0.4816	
-0.884134	0.137494	0.457988	-4.48	-2.03	-2.73	0.2619	-0.0454	-0.4784	
-0.877912	0.137372	0.454694	-4.06	-2.1	-4.34	0.2557	-0.0507	-0.4801	
-0.858636	0.140178	0.453718	-4.06	-2.38	-5.74	0.2599	-0.045	-0.4861	
-0.84973	0.148352	0.454084	-4.48	-1.05	-6.93	0.264	-0.042	-0.4951	
-0.850584	0.150426	0.453596	-5.67	-0.35	-8.19	0.2579	-0.0392	-0.4895	
-0.855586	0.13847	0.45567	-7.49	-0.56	-8.96	0.2672	-0.0379	-0.4936	
-0.866444	0.13176	0.459818	-7.63	-0.63	-9.52	0.2519	-0.0365	-0.4808	
-0.870592	0.12566	0.455548	-7.35	0.07	-10.29	0.2739	-0.0274	-0.4815	
-0.867908	0.128954	0.46055	-6.51	0.07	-12.39	0.2693	-0.0287	-0.4787	
-0.864248	0.123952	0.461404	-5.67	0.21	-15.54	0.2679	-0.0288	-0.4757	
-0.86376	0.10736	0.457622	-6.37	-0.07	-17.71	0.2676	-0.0341	-0.4831	
-0.879498	0.1037	0.469578	-8.61	-0.35	-18.27	0.2697	-0.0253	-0.497	
-0.891698	0.096502	0.461404	-12.81	-0.63	-17.64	0.2669	-0.0186	-0.4853	
-0.896456	0.085644	0.45262	-17.57	-2.1	-16.38	0.2668	-0.0185	-0.4868	
-0.900604	0.070272	0.45445	-17.85	-3.43	-15.61	0.2523	-0.0139	-0.4863	
-0.901702	0.045994	0.461526	-14.98	-4.27	-16.52	0.2557	-0.021	-0.4873	
-0.89365	0.025864	0.4758	-11.13	-3.99	-19.46	0.2601	-0.0085	-0.4861	
-0.883768	0.0305	0.460672	-8.68	-1.54	-21.56	0.2447	0.0063	-0.4951	
-0.876326	0.019764	0.471652	-11.06	-0.91	-22.12	0.2644	-0.0001	-0.4892	
-0.873398	0.024766	0.479216	-14.7	-0.56	-19.88	0.2634	0.0169	-0.496	
-0.875716	0.012932	0.4697	-18.34	-1.19	-17.08	0.2655	0.0028	-0.4953	
-0.888892	0.002684	0.47519	-19.67	-3.57	-15.4	0.2692	0.0051	-0.4861	
-0.891332	-0.020496	0.47641	-19.6	-3.5	-14.77	0.2562	0.0098	-0.4871	
-0.88267	-0.037576	0.50325	-16.24	-1.75	-16.38	0.2665	0.0237	-0.4931	
-0.883036	-0.037088	0.479338	-11.27	1.96	-18.9	0.2578	0.0286	-0.5029	
-0.873764	-0.035502	0.480558	-7.98	2.59	-20.86	0.27	0.0166	-0.4926	
-0.869616	-0.030134	0.470432	-7.63	2.45	-21.35	0.2586	0.0239	-0.492	
-0.87535	-0.03111	0.471042	-8.89	3.22	-20.79	0.2606	0.0263	-0.4829	
-0.889624	-0.037088	0.468358	-9.45	4.41	-18.9	0.2613	0.0296	-0.4967	
-0.888648	-0.057096	0.484706	-11.55	3.01	-17.01	0.2611	0.0366	-0.4954	
-0.881938	-0.078568	0.48922	-11.2	5.88	-16.1	0.258	0.038	-0.4926	
-0.884622	-0.088084	0.457988	-9.38	10.85	-16.31	0.2625	0.0408	-0.4955	
-0.884378	-0.096624	0.461648	-8.89	9.38	-16.31	0.2545	0.0507	-0.4903	
-0.888282	-0.100284	0.46543	-8.75	8.05	-15.26	0.258	0.0517	-0.4841	
-0.900482	-0.102724	0.466894	-7.98	8.75	-13.86	0.265	0.0456	-0.4774	
-0.908412	-0.102602	0.442494	-6.86	10.22	-13.51	0.2631	0.0431	-0.4835	
-0.90707	-0.115046	0.438834	-7.07	8.47	-13.65	0.2613	0.0433	-0.4881	
-0.90402	-0.118462	0.429074	-6.3	8.82	-13.58	0.2598	0.0583	-0.4752	
-0.904752	-0.134932	0.45567	-7.21	6.09	-13.16	0.2717	0.0571	-0.4912	
-0.90646	-0.138836	0.429318	-5.67	13.3	-12.25	0.2678	0.0609	-0.4749	
-0.896334	-0.139324	0.403088	-10.71	0.14	-10.29	0.2691	0.061	-0.4794	
-0.905362	-0.139446	0.431026	-9.03	3.92	-10.71	0.268	0.0634	-0.4689	
-0.91073	-0.132004	0.440176	-6.23	11.13	-9.59	0.2703	0.0708	-0.4797	
-0.91927	-0.115534	0.427732	-4.27	14	-11.2	0.2761	0.0764	-0.4857	
-0.934032	-0.10675	0.421388	-4.34	16.8	-13.44	0.2688	0.0762	-0.474	
-0.937692	-0.113582	0.411628	-8.68	13.16	-14.07	0.2801	0.0731	-0.4747	
-0.929762	-0.132614	0.410286	-13.3	8.05	-14	0.2736	0.0747	-0.4751	
-0.912316	-0.150182	0.39833	-12.6	5.6	-12.81	0.2823	0.0698	-0.4654	
-0.902678	-0.167384	0.395524	-10.29	3.85	-13.09	0.2764	0.0831	-0.4768	
-0.901214	-0.174338	0.410408	-5.04	3.99	-13.09	0.2767	0.087	-0.4694	
-0.900604	-0.16653	0.405406	-1.61	3.15	-13.72	0.2736	0.0775	-0.4737	
-0.900238	-0.163358	0.418216	-2.59	1.96	-12.88	0.2816	0.0799	-0.4719	
-0.900604	-0.18056	0.405894	-3.85	1.4	-12.95	0.277	0.0841	-0.4663	
-0.890112	-0.201178	0.406016	-5.25	2.52	-12.04	0.2815	0.0882	-0.4677	
-0.882914	-0.223504	0.389668	-4.97	2.52	-11.13	0.2827	0.0925	-0.4723	
-0.8906	-0.238388	0.39345	-5.39	2.8	-10.15	0.2829	0.0869	-0.4721	
-0.896212	-0.233264	0.398452	-5.25	2.94	-9.73	0.2857	0.1008	-0.4695	
-0.900238	-0.222162	0.397232	-5.11	3.64	-8.89	0.2807	0.09559999	-0.4771	
-0.906948	-0.214964	0.388936	-6.44	3.64	-7.7	0.2745	0.0984	-0.4715	
-0.90585	-0.219722	0.391498	-8.12	3.99	-6.79	0.2801	0.0963	-0.459	
-0.915732	-0.219966	0.38918	-8.82	4.34	-6.79	0.2727	0.0986	-0.4747	
-0.91439	-0.220576	0.393328	-9.66	2.1	-7.77	0.2909	0.0976	-0.4645	
-0.904996	-0.212768	0.393938	-8.75	0.21	-8.19	0.2877	0.1101	-0.4577	
-0.892796	-0.212158	0.389058	-7.14	-0.21	-7.49	0.2736	0.1049	-0.4567	
-0.881694	-0.212768	0.37881	-6.3	0.42	-5.74	0.2769	0.0923	-0.4621	
-0.89487	-0.222162	0.377346	-6.23	0.77	-4.62	0.2756	0.111	-0.472	
-0.9028	-0.23241	0.40016	-5.18	-0.7	-4.27	0.2748	0.1037	-0.4642	
-0.901336	-0.225334	0.393572	-2.59	-0.56	-3.5	0.2776	0.1094	-0.4673	
-0.881816	-0.228018	0.381372	-0.84	-0.7	-3.01	0.2711	0.1096	-0.4691	
-0.870592	-0.240096	0.36844	-0.77	-1.19	-2.73	0.2854	0.1051	-0.4727	
-0.869982	-0.245708	0.382104	-1.12	-1.19	-2.45	0.2695	0.1001	-0.4749	
-0.881694	-0.24888	0.389058	0	-0.7	-1.82	0.2692	0.1044	-0.4766	
-0.89304	-0.257908	0.39345	0.77	-1.89	-0.77	0.287	0.1146	-0.467	
-0.889624	-0.260714	0.390522	1.96	-1.75	0.42	0.279	0.108	-0.4702	
-0.88023	-0.258396	0.388326	3.15	-1.19	1.4	0.2809	0.1078	-0.4655	
-0.873154	-0.252052	0.386008	2.66	-1.96	2.03	0.2774	0.1067	-0.4717	
-0.876936	-0.245098	0.396134	2.1	-2.38	2.66	0.2791	0.1094	-0.4687	
-0.884378	-0.240828	0.399794	2.38	-1.61	3.57	0.2823	0.1106	-0.4671	
-0.888282	-0.242048	0.396622	2.17	-1.61	4.76	0.2739	0.1139	-0.4722	
-0.881084	-0.235582	0.393084	2.1	-1.75	5.95	0.2791	0.1135	-0.4658	
-0.866688	-0.226188	0.391742	1.89	-1.54	7.07	0.2641	0.1047	-0.4814	
-0.864004	-0.220942	0.387106	2.31	-0.7	8.05	0.2745	0.1026	-0.4702	
-0.864126	-0.221186	0.398086	2.45	-1.26	8.61	0.2646	0.1085	-0.471	
-0.868274	-0.220454	0.40016	2.66	-3.01	8.96	0.2629	0.11	-0.4726	
-0.87169	-0.220332	0.415776	3.57	-2.1	10.22	0.2725	0.107	-0.4735	
-0.878034	-0.216062	0.410652	4.55	-0.56	11.13	0.2675	0.1004	-0.4811	
-0.885598	-0.21045	0.399794	4.13	-0.77	11.48	0.2827	0.0966	-0.4695	
-0.889746	-0.205448	0.40382	3.5	-1.33	11.97	0.2727	0.09999999	-0.4747	
-0.894504	-0.197884	0.401746	3.5	-0.49	13.02	0.2811	0.0926	-0.4724	
-0.901214	-0.194102	0.398208	3.92	-2.17	13.65	0.2715	0.09429999	-0.4715	
-0.901946	-0.195932	0.393938	5.39	-2.45	13.51	0.2732	0.0901	-0.4728	
-0.90646	-0.191418	0.391132	6.72	-2.1	13.16	0.2847	0.0826	-0.4718	
-0.911706	-0.183854	0.394548	7.28	-2.45	12.95	0.2815	0.0882	-0.4677	
-0.914634	-0.174094	0.398574	6.86	-3.29	13.58	0.2733	0.07759999	-0.4783	
-0.917562	-0.165676	0.394914	6.51	-4.27	14.7	0.2801	0.084	-0.4676	
-0.91378	-0.166286	0.408456	6.44	-5.18	15.33	0.2851	0.081	-0.4657	
-0.917196	-0.158722	0.410408	6.37	-4.62	14.91	0.2753	0.0773	-0.4721	
-0.927566	-0.152866	0.411384	7.98	-4.2	14.28	0.2837	0.0686	-0.4698	
-0.935618	-0.14457	0.420412	8.54	-4.76	14.56	0.2709	0.069	-0.4705	
-0.923784	-0.14274	0.408334	6.79	-10.64	13.86	0.2754	0.07449999	-0.472	
-0.920002	-0.13176	0.401136	7.28	-8.68	14.21	0.2724	0.0718	-0.4705	
-0.9272	-0.127612	0.406992	7.7	-8.89	14.7	0.2738	0.0691	-0.4749	
-0.92598	-0.132492	0.437614	7.42	-11.06	15.47	0.2835	0.0673	-0.4743	
-0.911828	-0.121756	0.44652	9.03	-9.38	16.94	0.284	0.0588	-0.4709	
-0.903776	-0.103456	0.45262	8.61	-6.65	17.29	0.2806	0.0618	-0.4727	
-0.891698	-0.09638	0.43981	7.21	-3.99	16.45	0.28	0.0553	-0.4876	
-0.893894	-0.093452	0.433466	3.29	-4.83	15.47	0.2644	0.0528	-0.4823	
-0.917196	-0.0976	0.443226	4.69	-1.96	15.19	0.2739	0.0471	-0.4876	
-0.940498	-0.08845	0.45811	5.95	-3.43	15.96	0.273	0.0481	-0.4756	
-0.946354	-0.072834	0.462258	9.03	-4.76	16.17	0.2728	0.051	-0.4772	
-0.927322	-0.049532	0.44591	12.32	-1.82	16.59	0.2738	0.0527	-0.4863	
-0.901702	-0.033306	0.433222	12.81	-2.38	15.75	0.2694	0.0416	-0.4861	
-0.88816	-0.042944	0.41846	9.59	-5.25	14.49	0.2753	0.0472	-0.4906	
-0.926468	-0.077714	0.435418	12.32	-3.15	14.35	0.2713	0.0358	-0.4843	
-0.91378	-0.088694	0.46543	15.54	-1.33	15.12	0.2717	0.0274	-0.4839	
-0.904264	-0.030134	0.454206	21	-9.87	15.75	0.2761	0.0302	-0.4883	
-0.885964	0.007076	0.427122	17.08	-12.6	15.4	0.2687	0.0191	-0.4852	
-0.866444	0.005978	0.481168	15.47	-7.35	15.19	0.2794	0.0245	-0.4894	
-0.879376	-0.013908	0.474702	17.36	-4.06	15.75	0.277	0.0159	-0.4816	
-0.889258	-0.035136	0.465796	20.51	-3.15	16.31	0.2684	0.018	-0.4913	
-0.873276	-0.024644	0.470798	21.63	-2.59	17.36	0.2659	0.0094	-0.485	
-0.880962	0.01769	0.457866	18.83	-0.7	17.78	0.2646	0.0052	-0.4834	
-0.872666	0.052216	0.47946	13.37	-2.17	18.76	0.2608	0.0015	-0.4955	
-0.865224	0.061122	0.480436	12.81	1.19	17.5	0.2598	0.0053	-0.4821	
-0.851072	0.055144	0.472628	13.44	3.71	15.4	0.2564	-0.0039	-0.4925	
-0.853634	0.04819	0.44774	11.13	3.99	14.14	0.2713	-0.0048	-0.4841	
-0.873154	0.04514	0.441152	8.96	4.48	12.74	0.2601	-0.0167	-0.4918	
-0.90768	0.060512	0.450912	9.45	2.94	12.81	0.2601	-0.003	-0.4833	
-0.921466	0.066002	0.465186	11.83	1.4	12.11	0.2713	-0.0089	-0.487	
-0.91683	0.073688	0.4636	14.49	3.5	10.01	0.2785	-0.0192	-0.4786	
-0.898652	0.083814	0.44896	13.02	4.34	8.82	0.2708	-0.0191	-0.4745	
-0.892918	0.09089	0.438224	10.29	4.97	9.1	0.2721	-0.0245	-0.4833	
-0.891942	0.090402	0.435784	9.87	4.9	10.15	0.2721	-0.0245	-0.4817	
-0.90036	0.09747799	0.439932	11.9	3.99	10.64	0.2705	-0.0272	-0.4847	
-0.916342	0.108336	0.433954	10.78	4.2	10.71	0.2712	-0.0317	-0.4754	
-0.915976	0.109922	0.442128	7.56	0.84	8.82	0.2776	-0.0347	-0.4765	
-0.904508	0.107726	0.438346	6.72	-0.07	7.28	0.2833	-0.0235	-0.4812	
-0.884622	0.116998	0.427244	7.42	1.26	6.09	0.2788	-0.0304	-0.4811	
-0.876692	0.11163	0.428098	6.58	1.47	5.6	0.2793	-0.0389	-0.4777	
-0.874496	0.111142	0.43554	7.42	-0.49	5.18	0.2759	-0.0428	-0.4838	
-0.884988	0.126026	0.447008	7.28	-0.77	4.34	0.2707	-0.0341	-0.486	
-0.90097	0.13725	0.458476	5.88	0.21	3.15	0.2805	-0.0332	-0.4809	
-0.901336	0.13969	0.455182	3.57	-0.77	1.54	0.2744	-0.0401	-0.481	
-0.88389	0.139446	0.446032	2.1	-0.21	0.7	0.2693	-0.0369	-0.4844	
-0.879132	0.130296	0.435052	0.77	-0.14	1.05	0.2678	-0.0384	-0.4829	
-0.87596	0.122732	0.435662	-0.14	-0.77	0.91	0.2731	-0.0388	-0.475	
-0.881084	0.119316	0.439932	-0.56	-0.07	-0.56	0.2814	-0.0476	-0.4742	
-0.88816	0.125294	0.432734	-0.7	0.84	-2.66	0.2797	-0.0419	-0.473	
-0.891942	0.120658	0.435174	-1.19	0	-3.85	0.271	-0.0385	-0.4827	
-0.898042	0.119682	0.446276	-1.26	-1.19	-3.57	0.2698	-0.0387	-0.4768	
-0.905118	0.12932	0.45262	-1.75	-2.31	-3.43	0.2706	-0.0355	-0.4874	
-0.894382	0.127734	0.452986	-2.8	-2.31	-3.92	0.2804	-0.0318	-0.4825	
-0.87352	0.127856	0.436272	-3.5	-0.28	-5.6	0.2756	-0.0344	-0.4842	
-0.865712	0.125782	0.43066	-4.06	1.33	-6.72	0.2649	-0.0412	-0.4799	
-0.86925	0.114314	0.427366	-7.07	0.63	-7.49	0.2664	-0.0302	-0.4743	
-0.874984	0.11102	0.43676	-8.68	-0.42	-8.47	0.2768	-0.0218	-0.4831	
-0.872056	0.111264	0.445544	-8.33	-0.14	-9.45	0.2755	-0.033	-0.4842	
-0.869616	0.106506	0.448106	-7.49	0.14	-11.27	0.2753	-0.0273	-0.4845	
-0.871812	0.109556	0.44774	-6.51	0.21	-13.51	0.2815	-0.0302	-0.4886	
-0.88328	0.107604	0.444568	-7.07	0.28	-15.05	0.2803	-0.0208	-0.4769	
-0.895846	0.098332	0.451766	-8.33	-0.7	-16.17	0.2642	-0.0229	-0.4807	
-0.904386	0.089914	0.44713	-10.36	-1.26	-16.73	0.2763	-0.0321	-0.4706	
-0.902922	0.07625	0.438834	-12.04	-1.61	-16.38	0.2767	-0.0204	-0.4832	
-0.899872	0.064416	0.43432	-13.23	-1.82	-16.24	0.2688	-0.0161	-0.4792	
-0.892674	0.046604	0.433344	-13.72	-2.52	-16.87	0.2729	-0.0062	-0.484	
-0.889258	0.029402	0.446032	-13.93	-1.82	-17.08	0.2748	-0.0065	-0.4793	
-0.897554	0.033916	0.454938	-11.2	-1.19	-19.74	0.2712	0.0021	-0.4814	
-0.89304	0.029402	0.457622	-12.67	-1.05	-20.09	0.2832	0.0022	-0.4943	
-0.887428	0.020862	0.457012	-14.56	-1.47	-19.95	0.2675	0.0025	-0.4892	
-0.893162	0.009393999	0.462136	-16.1	-2.03	-19.95	0.2694	-0.0004	-0.4859	
-0.898896	-0.006588	0.464332	-15.05	-1.12	-19.32	0.2742	0.0021	-0.4842	
-0.903044	-0.022814	0.460672	-14.28	-1.75	-19.39	0.2657	0.0123	-0.4866	
-0.892918	-0.044652	0.468968	-12.53	0.91	-20.72	0.2705	0.0148	-0.485	
-0.895236	-0.044164	0.453962	-10.71	3.64	-21.77	0.2616	0.0198	-0.4978	
-0.901702	-0.050874	0.44286	-10.29	3.99	-21.21	0.264	0.0178	-0.4839	
-0.900482	-0.052948	0.44469	-11.34	2.38	-20.09	0.2672	0.0205	-0.4823	
-0.914024	-0.056486	0.452498	-11.83	1.96	-18.41	0.2682	0.0332	-0.4858	
-0.923052	-0.064416	0.457012	-13.44	4.34	-17.57	0.2671	0.0315	-0.4783	
-0.923784	-0.08357	0.461892	-14.91	5.95	-17.43	0.2693	0.0362	-0.492	
-0.914146	-0.095648	0.44408	-14.35	7	-17.29	0.2616	0.0321	-0.4892	
-0.900238	-0.103578	0.426512	-12.18	5.46	-15.75	0.2628	0.0447	-0.4881	
-0.898774	-0.097234	0.436638	-10.29	2.94	-14.21	0.2764	0.053	-0.4968	
-0.917074	-0.09821	0.436272	-8.54	6.02	-14.21	0.2744	0.0482	-0.4785	
-0.937082	-0.0915	0.424316	-7.84	7	-14.56	0.2767	0.0514	-0.4922	
-0.930128	-0.104188	0.442982	-7.98	5.04	-15.68	0.283	0.0526	-0.4919	
-0.909754	-0.105286	0.437492	-7.77	4.06	-14.21	0.276	0.0426	-0.4828	
-0.895968	-0.127856	0.421998	-8.12	10.43	-12.95	0.2734	0.0625	-0.4868	
-0.894992	-0.124684	0.417118	-10.36	4.83	-11.41	0.2867	0.0563	-0.4812	
-0.912926	-0.12078	0.401746	-13.51	-1.26	-10.78	0.2741	0.0552	-0.4789	
-0.914634	-0.140788	0.455426	-11.76	2.38	-11.76	0.274	0.0621	-0.4761	
-0.92232	-0.137128	0.414068	-6.44	7.56	-11.62	0.2785	0.0676	-0.4776	
-0.885598	-0.147376	0.427244	-4.48	10.57	-12.46	0.2811	0.0734	-0.4838	
-0.88999	-0.146034	0.40443	-2.45	15.47	-13.02	0.2832	0.0744	-0.4746	
-0.904142	-0.154086	0.411628	-5.74	7.28	-14.14	0.2753	0.0718	-0.4749	
-0.918416	-0.16836	0.419314	-8.19	3.5	-14.63	0.2901	0.0725	-0.4681	
-0.90707	-0.185562	0.421022	-6.93	5.53	-13.16	0.2791	0.0875	-0.4829	
-0.890722	-0.177388	0.396622	-5.53	5.95	-11.41	0.2814	0.0773	-0.4763	
-0.888404	-0.1769	0.393694	-5.6	6.23	-10.99	0.277	0.0813	-0.4677	
-0.901336	-0.162504	0.380518	-6.23	9.8	-11.62	0.2801	0.0909	-0.4633	
-0.917196	-0.167384	0.400526	-9.17	10.71	-12.32	0.2767	0.0829	-0.4723	
-0.919392	-0.176168	0.395768	-9.94	5.18	-13.44	0.2732	0.0791	-0.4799	
-0.90097	-0.192394	0.397354	-9.87	0.91	-12.04	0.2784	0.091	-0.465	
-0.899018	-0.206302	0.40504	-6.3	3.01	-10.08	0.2848	0.0867	-0.4675	
-0.905362	-0.20374	0.386618	-4.13	5.53	-9.31	0.2859	0.0883	-0.475	
-0.900482	-0.203862	0.386984	-3.71	5.25	-9.24	0.273	0.0888	-0.4757	
-0.899384	-0.206424	0.371124	-6.23	4.69	-8.68	0.2866	0.0823	-0.4657	
-0.89792	-0.226432	0.356606	-7.28	5.67	-8.19	0.2873	0.1049	-0.4681	
-0.90707	-0.241682	0.369782	-6.02	6.02	-8.19	0.2831	0.0881	-0.4676	
-0.903654	-0.251686	0.363316	-3.99	4.34	-7.7	0.2881	0.0975	-0.4586	
-0.90646	-0.257542	0.361974	-3.71	1.19	-6.79	0.2716	0.1038	-0.4628	
-0.903898	-0.260592	0.375028	-3.01	-0.42	-5.6	0.2809	0.1023	-0.4698	
-0.9028	-0.245586	0.373442	-1.96	2.31	-3.85	0.2742	0.1055	-0.4733	
-0.908046	-0.224236	0.356362	-2.87	4.13	-2.8	0.2838	0.1065	-0.4713	
-0.91195	-0.22326	0.361608	-5.46	2.45	-2.8	0.2802	0.1042	-0.4805	
-0.913048	-0.231434	0.375394	-6.86	0.84	-3.08	0.2945	0.0972	-0.4583	
-0.910242	-0.225822	0.377834	-5.81	0.7	-3.36	0.2824	0.1092	-0.467	
-0.899872	-0.228262	0.378688	-3.64	0.42	-2.59	0.2903	0.1131	-0.4652	
-0.887306	-0.239364	0.374906	-1.82	0.21	-1.61	0.292	0.1048	-0.4693	
-0.892308	-0.242902	0.365024	-1.19	-0.7	-0.84	0.2892	0.1073	-0.4605	
-0.907436	-0.239486	0.370026	-0.14	-0.14	-0.28	0.2886	0.1077	-0.4711	
-0.91805	-0.226554	0.361974	1.19	0.35	0.21	0.2943	0.1056	-0.4571	
-0.909144	-0.227652	0.359656	0.91	-2.73	0.63	0.2856	0.1077	-0.4668	
-0.895358	-0.239852	0.360388	0.28	-4.2	1.26	0.2842	0.1022	-0.4681	
-0.891088	-0.249612	0.365878	1.33	-2.66	1.96	0.2879	0.1031	-0.4589	
-0.897432	-0.250466	0.366976	2.17	-2.03	1.89	0.2793	0.1092	-0.4641	
-0.904996	-0.244122	0.371124	2.8	-3.29	1.47	0.2893	0.1032	-0.4618	
-0.901214	-0.238388	0.379298	3.92	-4.55	1.33	0.2878	0.0963	-0.4647	
-0.888282	-0.234484	0.381616	4.48	-4.76	2.03	0.2765	0.0981	-0.4654	
-0.882548	-0.236436	0.376492	4.13	-3.85	3.29	0.2882	0.096	-0.4571	
-0.888282	-0.23668	0.37698	3.78	-3.5	3.92	0.2774	0.1054	-0.4732	
-0.901092	-0.2257	0.385276	3.78	-4.41	2.87	0.2743	0.0972	-0.476	
-0.889136	-0.221308	0.384544	3.15	-5.74	4.48	0.2791	0.1011	-0.4729	
-0.882182	-0.21472	0.396988	3.22	-5.74	5.6	0.2884	0.1079	-0.4742	
-0.87291	-0.213988	0.396622	3.22	-4.27	7	0.285	0.1108	-0.476	
-0.868884	-0.223382	0.392108	2.59	-3.92	8.26	0.2727	0.0986	-0.4762	
-0.874252	-0.22692	0.394182	2.73	-4.27	9.03	0.2773	0.1027	-0.4761	
-0.87657	-0.22326	0.392718	2.94	-5.53	9.45	0.2759	0.1053	-0.4702	
-0.879132	-0.218746	0.405284	2.66	-5.6	10.78	0.2807	0.0997	-0.4743	
-0.884866	-0.21655	0.403698	2.03	-3.5	13.3	0.2725	0.1014	-0.4763	
-0.888404	-0.218746	0.403088	1.68	-3.71	15.19	0.2788	0.0999	-0.4789	
-0.896212	-0.217404	0.399184	3.5	-3.08	15.61	0.2727	0.0904	-0.4804	
-0.898774	-0.206424	0.395646	6.16	-4.13	14.77	0.2825	0.08989999	-0.4768	
-0.893772	-0.194956	0.402478	8.05	-4.97	13.65	0.2746	0.0874	-0.4771	
-0.894138	-0.178974	0.393206	7.42	-3.08	14.49	0.278	0.0858	-0.4754	
-0.911828	-0.166408	0.398818	4.34	-1.68	16.24	0.2843	0.0911	-0.4737	
-0.93147	-0.168604	0.410896	0.98	-3.5	17.85	0.2796	0.0884	-0.4723	
-0.93452	-0.170068	0.407114	0.7	-7.28	19.46	0.2704	0.0762	-0.4739	
-0.921466	-0.169214	0.41419	3.36	-9.94	19.67	0.2827	0.0788	-0.4809	
-0.895358	-0.151768	0.410164	6.86	-8.82	18.62	0.2766	0.0693	-0.4823	
-0.885232	-0.129686	0.397354	8.33	-7.91	16.66	0.2769	0.0718	-0.4748	
-0.901336	-0.12078	0.418338	8.26	-5.25	15.68	0.2832	0.0717	-0.4775	
-0.930006	-0.112606	0.43005	8.12	-5.74	15.82	0.2827	0.0761	-0.4823	
-0.950014	-0.115534	0.449082	6.65	-9.8	16.94	0.2702	0.0681	-0.4826	
-0.946476	-0.121756	0.443592	4.41	-9.87	18.97	0.2703	0.0612	-0.4854	
-0.928298	-0.115168	0.430904	5.6	-5.67	20.37	0.2764	0.0653	-0.4882	
-0.907436	-0.094794	0.411262	5.6	-2.8	19.25	0.2723	0.054	-0.4834	
-0.909754	-0.075884	0.404918	5.53	-2.45	16.8	0.2739	0.0512	-0.4848	
-0.933544	-0.07905599	0.428586	4.83	-3.36	15.33	0.2794	0.0465	-0.4767	
-0.956236	-0.07808	0.442616	7.28	-5.18	14.77	0.2663	0.0471	-0.482	
-0.937814	-0.0732	0.462014	9.24	-6.86	16.45	0.2769	0.0485	-0.4905	
-0.91378	-0.045872	0.442616	12.6	-2.8	17.5	0.2687	0.053	-0.4912	
-0.88084	-0.050508	0.446398	11.41	-5.39	17.36	0.2841	0.0368	-0.4836	
-0.882792	-0.058804	0.449814	9.73	-3.92	16.52	0.2711	0.0305	-0.4916	
-0.907192	-0.064416	0.44042	14.28	0.63	16.1	0.278	0.0272	-0.4851	
-0.898286	-0.055754	0.454206	19.53	2.38	17.29	0.2697	0.0305	-0.4887	
-0.892674	-0.01586	0.445666	19.39	0.91	17.99	0.2701	0.0233	-0.4853	
-0.872788	-0.003782	0.454694	14.77	2.94	18.2	0.2588	0.0252	-0.4875	
-0.885232	-0.003172	0.448716	10.99	-8.61	18.13	0.2789	0.0184	-0.4756	
-0.90402	-0.017812	0.472872	14.14	-3.78	19.04	0.2638	0.018	-0.4885	
-0.908778	-0.024766	0.463844	19.32	1.33	20.58	0.2734	0.0163	-0.4894	
-0.892918	0.001342	0.443348	20.65	-0.77	20.16	0.2678	0.005	-0.4832	
-0.864858	0.05307	0.439932	11.69	-2.66	17.64	0.2674	0.0039	-0.4907	
-0.871934	0.06527	0.443958	8.26	1.82	16.38	0.2679	-0.0018	-0.4844	
-0.8784	0.066002	0.450912	9.1	3.92	15.47	0.2675	0.0038	-0.4877	
-0.887306	0.048434	0.425536	10.64	4.41	16.03	0.2773	-0.002	-0.4884	
-0.899994	0.052582	0.44225	8.82	1.61	16.73	0.2713	-0.0089	-0.4854	
-0.913292	0.056974	0.441274	6.86	2.24	15.26	0.2747	-0.009099999	-0.4822	
-0.906704	0.074054	0.45933	9.45	4.13	12.88	0.2741	-0.0019	-0.4886	
-0.897554	0.088206	0.440054	12.53	6.58	10.64	0.278	-0.0066	-0.4791	
-0.894748	0.092232	0.424682	11.27	5.04	9.87	0.2745	-0.0076	-0.4853	
-0.906582	0.09942999	0.422486	11.55	2.94	8.89	0.2738	-0.026	-0.4816	
-0.922564	0.094184	0.435418	10.08	3.08	9.73	0.282	-0.0291	-0.4795	
-0.926834	0.086498	0.429074	9.52	3.85	9.45	0.2656	-0.0174	-0.4794	
-0.909998	0.093086	0.432612	8.4	3.29	9.31	0.2677	-0.0246	-0.4759	
-0.892552	0.105652	0.420656	6.51	4.27	7.63	0.2754	-0.0246	-0.4816	
-0.892552	0.104798	0.40504	5.11	4.9	6.23	0.2708	-0.0287	-0.4801	
-0.908168	0.098942	0.413702	5.6	2.45	5.95	0.29	-0.0308	-0.4805	
-0.91561	0.097966	0.428586	6.3	1.96	5.95	0.2889	-0.031	-0.473	
-0.91012	0.116144	0.429684	7.07	3.01	4.69	0.2802	-0.0221	-0.4784	
-0.90036	0.140422	0.42883	4.2	3.08	2.94	0.2875	-0.0297	-0.4686	
-0.886574	0.136518	0.417972	2.03	2.73	1.47	0.2876	-0.0366	-0.4713	
-0.894016	0.136762	0.394548	3.22	2.38	1.19	0.2922	-0.0312	-0.4713	
-0.923906	0.130784	0.39772	4.76	-0.14	1.33	0.2782	-0.0378	-0.4688	
-0.941474	0.133956	0.415898	4.62	-2.38	0.14	0.2846	-0.0408	-0.4698	
-0.927566	0.13481	0.428464	2.59	-2.87	-0.42	0.2795	-0.0363	-0.4733	
-0.903898	0.130296	0.41297	1.54	-2.03	-2.66	0.2835	-0.0332	-0.4838	
-0.891332	0.126758	0.410286	1.47	-2.17	-2.8	0.2862	-0.0477	-0.474	
-0.880108	0.109556	0.421876	0.91	-2.94	-3.36	0.2808	-0.0362	-0.4778	
-0.87962	0.103822	0.431026	0	-3.43	-4.41	0.2919	-0.0393	-0.48	
-0.887672	0.100772	0.441518	-0.49	-2.8	-5.04	0.2808	-0.0376	-0.4777	
-0.892186	0.105408	0.442738	-1.4	-1.68	-5.04	0.2842	-0.0392	-0.4759	
-0.890722	0.105042	0.44103	-1.89	-1.68	-4.9	0.2901	-0.0322	-0.4804	
-0.885476	0.1098	0.427366	-2.17	-1.54	-5.32	0.2776	-0.0306	-0.4736	
-0.8845	0.110288	0.425414	-3.99	-1.05	-6.09	0.276	-0.0333	-0.4766	
-0.881206	0.106628	0.428586	-6.09	-0.35	-7.21	0.2824	-0.0349	-0.4762	
-0.880718	0.101748	0.411018	-7.49	0.42	-8.61	0.2854	-0.0335	-0.4791	
-0.887794	0.09857599	0.405406	-7.7	1.12	-9.66	0.2757	-0.0221	-0.4741	
-0.892552	0.101626	0.416996	-7.35	0.14	-10.85	0.2788	-0.0304	-0.4811	
-0.896334	0.116144	0.423828	-8.89	-1.61	-11.76	0.2758	-0.029	-0.4768	
-0.898652	0.121268	0.442372	-10.57	-0.14	-13.37	0.2785	-0.022	-0.48	
-0.898774	0.122732	0.426634	-11.55	0.07	-15.75	0.2766	-0.0148	-0.4819	
-0.895846	0.107604	0.415288	-12.11	-0.91	-17.22	0.2847	-0.0111	-0.4771	
-0.896578	0.084058	0.424072	-10.99	-1.4	-18.13	0.2783	-0.0123	-0.4774	
-0.896212	0.068076	0.432734	-11.2	-2.73	-19.6	0.2812	-0.0094	-0.4803	
-0.901946	0.062952	0.439932	-12.67	-4.13	-21.35	0.2736	-0.0039	-0.4704	
-0.90951	0.054412	0.440298	-14.21	-3.5	-21.98	0.2856	-0.0038	-0.4849	
-0.91439	0.041236	0.432124	-16.45	-2.59	-21.77	0.2697	0.0021	-0.4799	
-0.91012	0.024522	0.431514	-17.43	-2.24	-21.49	0.2848	0.009	-0.49	
-0.906582	-0.005978	0.414922	-15.19	-2.31	-22.47	0.2759	0.0115	-0.4754	
-0.910486	-0.029402	0.431758	-12.18	-4.62	-24.01	0.2878	0.0131	-0.49	
-0.909998	-0.035014	0.453596	-9.87	-4.48	-25.41	0.259	0.014	-0.4901	
-0.901702	-0.03538	0.463966	-10.08	-2.73	-26.95	0.2765	0.0231	-0.4865	
-0.891698	-0.03416	0.457256	-10.29	-0.42	-27.79	0.2736	0.0271	-0.4777	
-0.891088	-0.051118	0.444934	-12.46	0.42	-26.67	0.2651	0.0277	-0.4873	
-0.893406	-0.075396	0.450912	-14.07	0.49	-24.85	0.273	0.0316	-0.4855	
-0.900238	-0.09333	0.448838	-12.46	4.13	-22.33	0.2728	0.0427	-0.4814	
-0.900726	-0.102114	0.44469	-12.46	4.83	-19.88	0.2762	0.0343	-0.4839	
-0.909144	-0.109068	0.456158	-12.6	3.22	-18.41	0.2747	0.0425	-0.4768	
-0.91988	-0.111264	0.460672	-11.97	5.11	-18.27	0.2742	0.0483	-0.4816	
-0.927688	-0.110654	0.443226	-10.57	7.77	-18.2	0.2692	0.0513	-0.4835	
-0.929884	-0.113216	0.412238	-10.85	10.64	-17.22	0.2775	0.0468	-0.4813	
-0.919026	-0.12566	0.418826	-10.85	9.73	-16.94	0.2624	0.0614	-0.4843	
-0.926224	-0.129686	0.38918	-11.62	9.17	-15.89	0.2759	0.0537	-0.4772	
-0.919636	-0.146278	0.400404	-12.18	6.37	-14.21	0.2877	0.0607	-0.4889	
-0.914024	-0.14274	0.434076	-10.29	11.97	-12.53	0.2773	0.0592	-0.4758	
-0.929152	-0.116388	0.421144	-4.76	7.35	-15.26	0.2834	0.066	-0.4773	
-0.94306	-0.116144	0.396988	-6.72	10.71	-15.61	0.2845	0.0663	-0.4848	
-0.935862	-0.115046	0.404186	-10.22	-2.87	-17.43	0.2801	0.069	-0.4776	
-0.91378	-0.140422	0.415654	-14.21	-2.94	-18.06	0.2768	0.0773	-0.4736	
-0.898286	-0.171044	0.405894	-12.11	1.68	-15.33	0.2834	0.0742	-0.4716	
-0.877302	-0.178242	0.40931	-10.08	-1.05	-14.91	0.2754	0.0841	-0.4664	
-0.884622	-0.183366	0.394792	-6.23	3.85	-14.35	0.283	0.0772	-0.4762	
-0.899506	-0.178608	0.404918	0.14	11.2	-17.08	0.2832	0.0812	-0.4703	
-0.922808	-0.186172	0.402234	-0.77	14.35	-16.73	0.2828	0.0801	-0.4779	
-0.9089	-0.202398	0.393694	-3.08	5.95	-15.12	0.2875	0.0814	-0.4792	
-0.89304	-0.20862	0.379664	-3.92	0.35	-13.3	0.2749	0.0844	-0.474	
-0.895114	-0.217038	0.374784	-1.96	5.11	-12.25	0.2886	0.0885	-0.4824	
-0.908778	-0.21838	0.379176	-0.21	5.11	-13.72	0.2858	0.0829	-0.4793	
-0.918782	-0.225456	0.394182	-2.66	1.75	-13.65	0.2906	0.091	-0.4749	
-0.916098	-0.229116	0.389058	-3.36	1.96	-12.46	0.287	0.0954	-0.4783	
-0.874984	-0.223138	0.39467	-3.15	0.14	-10.92	0.2813	0.0938	-0.4679	
-0.878644	-0.216306	0.390522	-4.41	3.57	-11.2	0.2809	0.0982	-0.4727	
-0.88572	-0.21533	0.388936	-6.93	4.55	-11.9	0.2795	0.0927	-0.4725	
-0.897798	-0.225578	0.395768	-9.45	2.66	-11.48	0.2887	0.1036	-0.4725	
-0.896334	-0.238754	0.395036	-8.47	1.68	-10.08	0.2788	0.1109	-0.4718	
-0.891088	-0.243268	0.388692	-5.74	2.17	-8.89	0.2852	0.1066	-0.4743	
-0.883402	-0.235704	0.383202	-4.2	2.52	-9.31	0.2793	0.1106	-0.4642	
-0.881572	-0.236192	0.375272	-3.64	3.22	-8.89	0.2807	0.1038	-0.4714	
-0.88999	-0.242414	0.37027	-4.34	2.66	-8.12	0.2738	0.1112	-0.4766	
-0.89426	-0.260348	0.38247	-5.6	0.84	-7.21	0.2804	0.1191	-0.4675	
-0.894016	-0.267058	0.377224	-4.69	1.33	-5.74	0.2787	0.1192	-0.4691	
-0.900726	-0.274134	0.370636	-3.78	1.4	-4.76	0.279	0.1135	-0.4674	
-0.90524	-0.264496	0.36112	-3.85	0.77	-4.55	0.2807	0.1107	-0.4671	
-0.911218	-0.260592	0.362096	-3.43	0.63	-4.97	0.2835	0.1108	-0.4746	
-0.90951	-0.26169	0.361242	-3.29	0	-5.25	0.2759	0.1177	-0.4632	
-0.900482	-0.2684	0.361486	-2.03	-0.14	-5.53	0.2793	0.1147	-0.4613	
-0.892308	-0.27328	0.366	-1.33	-0.49	-5.25	0.2771	0.1234	-0.4664	
-0.885354	-0.276208	0.37271	-0.35	-1.47	-4.34	0.2822	0.1148	-0.4672	
-0.874252	-0.27938	0.376126	0.28	-2.31	-3.5	0.279	0.1135	-0.4674	
-0.871812	-0.277794	0.379054	0.21	-1.61	-2.38	0.2697	0.1095	-0.4647	
-0.873764	-0.277062	0.379786	0.56	-0.56	-1.54	0.2793	0.1147	-0.4613	
-0.875228	-0.279258	0.381494	0.49	-0.77	-0.84	0.2703	0.1156	-0.4785	
-0.88206	-0.280112	0.3782	0.63	-0.84	-0.14	0.2654	0.1241	-0.4746	
-0.879864	-0.277794	0.37759	0.77	-0.77	0.7	0.2709	0.1207	-0.4651	
-0.878644	-0.280112	0.373442	1.12	-1.19	1.61	0.2755	0.1166	-0.4707	
-0.874374	-0.28426	0.37149	1.33	-0.56	2.66	0.2719	0.1224	-0.4742	
-0.878156	-0.277672	0.366854	2.03	0.14	3.78	0.2772	0.1165	-0.4691	
-0.887184	-0.274256	0.368562	2.03	-0.42	4.76	0.2809	0.1146	-0.4612	
-0.895358	-0.270474	0.37759	1.96	-1.19	5.46	0.2705	0.1237	-0.4698	
-0.892552	-0.266936	0.379542	2.1	-2.1	6.3	0.2759	0.1149	-0.4646	
-0.884744	-0.264252	0.382592	1.54	-2.52	7.35	0.2743	0.115	-0.4646	
-0.877668	-0.26474	0.3843	1.47	-1.68	8.4	0.2839	0.1201	-0.4613	
-0.873886	-0.259372	0.381128	1.89	-0.84	9.45	0.2729	0.1108	-0.4646	
-0.874374	-0.25742	0.38186	2.38	-1.05	9.94	0.2785	0.1084	-0.4793	
-0.87657	-0.256932	0.377834	2.59	-0.7	10.78	0.2825	0.1105	-0.464	
-0.883402	-0.255346	0.377346	2.24	-1.33	11.69	0.2811	0.1008	-0.4667	
-0.894626	-0.251564	0.377102	2.24	-3.57	12.18	0.2758	0.1136	-0.4675	
-0.897066	-0.244732	0.392108	3.43	-3.92	13.44	0.2798	0.1034	-0.4593	
-0.895968	-0.233264	0.387838	4.62	-4.27	14.84	0.2846	0.1005	-0.462	
-0.895724	-0.228872	0.385642	3.78	-3.64	15.96	0.267	0.1038	-0.4601	
-0.899994	-0.223626	0.38125	3.29	-1.68	16.45	0.2875	0.0951	-0.4707	
-0.909388	-0.224968	0.380152	2.8	-1.75	15.89	0.2767	0.0966	-0.4622	
-0.912194	-0.221064	0.396744	3.78	-3.99	14.7	0.2793	0.1037	-0.4685	
-0.900604	-0.208498	0.401502	5.81	-5.88	14.42	0.2799	0.0924	-0.4649	
-0.889868	-0.199958	0.396378	5.74	-5.88	15.26	0.2861	0.095	-0.4662	
-0.892552	-0.194956	0.393938	5.11	-3.64	16.31	0.282	0.0998	-0.4787	
-0.901824	-0.18971	0.394304	5.39	-1.89	16.73	0.2768	0.087	-0.4679	
-0.91012	-0.177022	0.388082	6.72	-2.66	16.1	0.2734	0.0872	-0.4711	
-0.916952	-0.163114	0.397354	7.49	-4.83	14.98	0.2824	0.09	-0.4783	
-0.916342	-0.154696	0.409188	8.33	-5.95	14.49	0.2831	0.0731	-0.4776	
-0.91012	-0.14945	0.419192	7.98	-5.88	14.91	0.2774	0.0715	-0.4672	
-0.917806	-0.140422	0.396622	4.9	-8.89	16.66	0.2769	0.0786	-0.4706	
-0.911096	-0.14701	0.41541	2.1	-9.87	17.64	0.2814	0.0828	-0.4735	
-0.908656	-0.147864	0.416142	2.31	-8.54	17.92	0.2828	0.0788	-0.4793	
-0.91988	-0.141642	0.418216	3.5	-7.63	17.08	0.2796	0.072	-0.4838	
-0.93086	-0.131516	0.413458	4.27	-7.49	15.75	0.2727	0.0685	-0.4946	
-0.93574	-0.133834	0.423584	3.64	-8.4	14.77	0.2758	0.0633	-0.473	
-0.937814	-0.126636	0.420168	2.94	-7.49	14.28	0.2669	0.0628	-0.4886	
-0.926956	-0.118584	0.426512	3.22	-7.07	13.72	0.2788	0.0606	-0.4773	
-0.920246	-0.107482	0.419558	3.78	-5.67	13.09	0.2719	0.0584	-0.4882	
-0.914146	-0.097356	0.431148	4.69	-5.04	11.83	0.2693	0.065	-0.4735	
-0.90646	-0.086742	0.443714	6.23	-3.57	10.29	0.2726	0.0524	-0.4788	
-0.89609	-0.074908	0.43371	7.28	-5.04	8.26	0.2719	0.0516	-0.4924	
-0.8906	-0.064416	0.441518	7.56	-3.71	7.35	0.2704	0.0611	-0.4838	
-0.895724	-0.054778	0.443348	7.35	-2.87	6.79	0.2808	0.0548	-0.4739	
-0.899628	-0.055266	0.442128	7	-2.8	6.02	0.2724	0.0595	-0.4791	
-0.902678	-0.061122	0.444934	6.79	-4.69	5.46	0.2595	0.0545	-0.4842	
-0.896456	-0.062708	0.449936	7.77	-3.01	4.69	0.2677	0.0486	-0.4835	
-0.892796	-0.06649	0.439322	11.34	1.96	4.13	0.2806	0.0563	-0.477	
-0.881572	-0.05795	0.438834	10.08	-1.96	3.08	0.2597	0.0488	-0.4839	
-0.884622	-0.0549	0.436638	7.49	-3.01	2.03	0.2707	0.0459	-0.4892	
-0.888648	-0.053802	0.449082	5.67	-4.41	1.33	0.258	0.0421	-0.4898	
-0.895846	-0.057218	0.45506	2.87	-4.55	0.7	0.2688	0.0516	-0.4911	
-0.895114	-0.061366	0.450424	2.52	-5.32	0.21	0.2677	0.0431	-0.4878	
-0.8845	-0.066856	0.449326	3.01	-3.92	0	0.2645	0.0542	-0.4809	
-0.881084	-0.069052	0.451888	3.5	-2.8	-0.21	0.2661	0.0459	-0.485	
-0.884256	-0.071858	0.453962	2.52	-1.96	-0.21	0.2729	0.0385	-0.4828	
-0.889624	-0.076006	0.452254	0.35	-2.31	-0.14	0.2659	0.0419	-0.4924	
-0.89975	-0.078202	0.444568	0.21	-1.68	-0.28	0.2673	0.0393	-0.4967	
-0.90707	-0.077714	0.45018	0.56	-2.38	-0.91	0.2817	0.047	-0.4917	
-0.900726	-0.074786	0.45933	0.28	-2.59	-1.47	0.2723	0.0403	-0.492	
-0.886696	-0.06832	0.450302	-0.35	-2.38	-1.68	0.2678	0.0348	-0.4905	
-0.8845	-0.071736	0.456036	-0.63	-2.03	-1.54	0.266	0.0377	-0.4922	
-0.87901	-0.077714	0.45567	-0.14	-1.54	-1.33	0.2628	0.0406	-0.491	
-0.883646	-0.073322	0.450912	0.07	-3.29	-1.61	0.2648	0.0403	-0.4848	
-0.886696	-0.070516	0.466406	0.35	-2.52	-1.68	0.2642	0.0448	-0.4911	
-0.90036	-0.069784	0.455304	1.19	-1.33	-1.26	0.2646	0.0349	-0.4906	
-0.91561	-0.074908	0.442494	2.59	-3.71	-1.82	0.2674	0.0392	-0.4952	
-0.906582	-0.072956	0.45689	3.92	-5.88	-3.15	0.258	0.0393	-0.4912	
-0.894748	-0.06161	0.465918	0.56	-2.8	-3.43	0.2622	0.0478	-0.4958	
-0.886696	-0.062708	0.46055	-2.87	-1.05	-2.94	0.2589	0.048	-0.4975	
-0.883158	-0.075518	0.450668	-2.59	-0.7	-2.31	0.2659	0.0419	-0.4909	
-0.876692	-0.07905599	0.47214	-1.89	-2.94	-1.82	0.2582	0.0392	-0.4881	
-0.87596	-0.081008	0.463112	-0.14	-2.73	-2.03	0.263	0.051	-0.508	
-0.874984	-0.071614	0.475922	-1.54	-2.52	-1.89	0.264	0.049	-0.4928	
-0.874374	-0.064904	0.479948	-4.13	-3.01	-1.75	0.254	0.0441	-0.5022	
-0.883524	-0.072346	0.46482	-6.16	-2.45	-0.7	0.2586	0.0509	-0.5007	
-0.893162	-0.083204	0.466772	-6.93	1.12	0.35	0.253	0.0492	-0.4888	
-0.893284	-0.09357399	0.480558	-7.35	-0.77	1.19	0.2584	0.0552	-0.5024	
-0.895358	-0.100406	0.468724	-3.99	4.83	3.15	0.2612	0.0475	-0.4868	
-0.90097	-0.10248	0.433466	0	4.97	2.03	0.2573	0.0549	-0.4934	
-0.89182	-0.109556	0.467382	-3.43	0.35	0.07	0.2531	0.0396	-0.493	
-0.892674	-0.097966	0.456524	-4.62	1.47	-0.77	0.2574	0.0548	-0.4919	
-0.898652	-0.070882	0.46726	-4.41	-0.98	0.7	0.2639	0.0491	-0.4943	
-0.909144	-0.047458	0.456402	-8.82	-1.89	0.98	0.2628	0.0488	-0.4853	
-0.915488	-0.06466	0.463234	-10.5	1.68	0.14	0.2534	0.0596	-0.5029	
-0.919636	-0.059048	0.453108	-9.52	2.94	0.28	0.2487	0.0624	-0.5002	
-0.909998	-0.073078	0.451156	-13.72	0.42	1.68	0.2587	0.0577	-0.4949	
-0.910364	-0.076006	0.455182	-16.73	-0.7	2.52	0.2625	0.049	-0.4898	
-0.93391	-0.078202	0.41907	-15.33	-1.96	3.08	0.2692	0.0527	-0.4836	
-0.907924	-0.102602	0.463478	-17.15	-8.89	3.15	0.2571	0.0633	-0.4922	
-0.907924	-0.102358	0.443592	-15.05	-8.26	2.73	0.2597	0.0677	-0.4998	
-0.887428	-0.104676	0.461282	-13.79	-6.65	2.8	0.2584	0.0621	-0.4982	
-0.894382	-0.100284	0.440908	-15.75	-5.74	2.52	0.2531	0.068	-0.5032	
-0.876936	-0.110776	0.470066	-15.4	-7.42	2.31	0.2556	0.0578	-0.4936	
-0.877058	-0.12505	0.463234	-14.98	-6.09	3.15	0.2453	0.0709	-0.4977	
-0.870348	-0.125294	0.47275	-16.1	-7.21	2.66	0.2502	0.061	-0.5016	
-0.855342	-0.128466	0.48617	-18.27	-7.14	3.01	0.2484	0.0695	-0.5005	
-0.841434	-0.130784	0.489098	-16.66	-5.67	2.87	0.2466	0.0779	-0.4979	
-0.84424	-0.139324	0.486048	-14.14	-5.25	1.96	0.2565	0.0719	-0.4971	
-0.849242	-0.131272	0.487512	-13.58	-4.69	2.03	0.2612	0.07449999	-0.497	
-0.84424	-0.113826	0.498614	-13.16	-4.27	1.47	0.2435	0.0793	-0.4951	
-0.841068	-0.107116	0.47397	-13.23	-2.17	2.73	0.2432	0.0808	-0.4998	
-0.841922	-0.132248	0.475434	-13.65	-0.28	2.94	0.2463	0.0891	-0.4969	
-0.850462	-0.124196	0.48861	-10.29	-2.1	2.52	0.2517	0.0871	-0.4874	
-0.857782	-0.119438	0.48983	-10.01	-0.35	3.5	0.2527	0.0888	-0.4965	
-0.871446	-0.106872	0.479216	-9.8	2.8	3.85	0.2448	0.078	-0.5011	
-0.866932	-0.11407	0.471652	-8.47	1.96	2.66	0.236	0.08329999	-0.4851	
-0.85034	-0.139324	0.476166	-9.38	-0.63	2.52	0.2461	0.08639999	-0.5013	
-0.858758	-0.135054	0.480436	-7.21	-0.21	2.31	0.2479	0.0862	-0.4982	
-0.87718	-0.118462	0.473604	-4.34	1.96	1.96	0.2593	0.09119999	-0.4902	
-0.87718	-0.118462	0.467748	-3.36	2.03	0.7	0.2438	0.09649999	-0.5064	
-0.858148	-0.130784	0.462014	-7.07	0.56	0.49	0.2518	0.0843	-0.4873	
-0.816912	-0.161894	0.473726	-8.61	0.49	2.1	0.251	0.0944	-0.4938	
-0.851804	-0.146278	0.472994	-5.25	3.5	4.83	0.2484	0.0845	-0.4905	
-0.882182	-0.123098	0.471164	0.49	4.34	3.99	0.2464	0.0889	-0.4939	
-0.877912	-0.113948	0.462502	3.43	0.49	0.21	0.254	0.0876	-0.5025	
-0.862418	-0.119682	0.470432	4.62	-3.36	-2.38	0.2549	0.0857	-0.4887	
-0.873886	-0.121268	0.47275	4.06	0.07	-2.31	0.2576	0.0872	-0.4947	
-0.891454	-0.122854	0.468358	3.01	1.82	-1.54	0.2398	0.0879	-0.4987	
-0.87962	-0.117364	0.468358	4.34	-0.21	-1.96	0.2544	0.0887	-0.4949	
-0.868762	-0.102846	0.4636	12.53	-2.1	-5.95	0.2417	0.0849	-0.4955	
-0.859612	-0.110776	0.483242	10.92	-2.94	-4.76	0.2453	0.0805	-0.4921	
-0.86986	-0.102236	0.473116	12.95	-0.49	-6.09	0.2417	0.0822	-0.4969	
-0.873276	-0.1037	0.468724	9.03	0.98	-5.39	0.2511	0.0807	-0.5023	
-0.86925	-0.120048	0.471774	4.48	1.61	-4.27	0.2529	0.0846	-0.4948	
-0.862296	-0.140544	0.472384	4.55	0.21	-3.71	0.2577	0.0817	-0.4975	
-0.880108	-0.147986	0.477386	10.08	0.21	-4.13	0.2521	0.07449999	-0.4884	
-0.882914	-0.13725	0.473604	15.75	2.03	-5.95	0.2547	0.0762	-0.4974	
-0.881084	-0.116022	0.45994	18.69	2.94	-8.4	0.2497	0.08199999	-0.4979	
-0.872178	-0.123586	0.452742	16.94	1.82	-9.24	0.2514	0.0791	-0.4977	
-0.875106	-0.134688	0.449936	14	-2.24	-8.05	0.2561	0.079	-0.499	
-0.868762	-0.155306	0.478972	14.21	-4.06	-6.16	0.2437	0.0764	-0.495	
-0.883158	-0.147376	0.480802	16.8	-1.19	-3.64	0.2481	0.0779	-0.4994	
-0.890478	-0.105042	0.487878	19.6	0.7	-2.17	0.2549	0.0678	-0.4986	
-0.895358	-0.09089	0.464088	17.57	2.24	-2.38	0.2387	0.0712	-0.5011	
-0.88328	-0.083204	0.473238	15.47	-4.55	-4.34	0.2393	0.0639	-0.4947	
-0.86132	-0.12078	0.492026	12.25	-0.21	-3.78	0.2463	0.0726	-0.5068	
-0.869372	-0.12627	0.47641	15.61	2.94	-0.77	0.2594	0.072	-0.5015	
-0.871812	-0.116144	0.488244	16.45	1.82	0.21	0.2507	0.058	-0.4954	
-0.889136	-0.093208	0.47092	19.95	1.33	0.7	0.2455	0.0612	-0.5003	
-0.902434	-0.079422	0.476166	17.71	5.53	-1.26	0.2541	0.0564	-0.4936	
-0.8967	-0.08174	0.48922	13.65	3.5	-3.36	0.2502	0.0652	-0.5002	
-0.87962	-0.101504	0.489708	8.75	4.27	-3.01	0.2518	0.0555	-0.5058	
-0.859002	-0.095282	0.485804	6.93	4.69	-1.33	0.2534	0.0609	-0.5014	
-0.848266	-0.093086	0.47702	6.16	5.18	0.14	0.2554	0.0497	-0.5023	
-0.884744	-0.091256	0.457866	9.87	5.46	1.54	0.2478	0.0579	-0.491	
-0.912438	-0.094794	0.461404	13.58	6.16	0.42	0.2541	0.0496	-0.4979	
-0.918782	-0.099796	0.476898	14.14	4.06	-2.31	0.2622	0.0396	-0.5016	
-0.9333	-0.061244	0.437736	13.72	10.57	-1.75	0.2634	0.0416	-0.4804	
-0.902312	-0.069296	0.467016	9.73	2.59	-3.01	0.2523	0.0511	-0.4995	
-0.897188	-0.075518	0.449936	6.86	3.22	-0.98	0.2635	0.0493	-0.5004	
-0.88816	-0.092354	0.445178	6.37	5.53	0.91	0.2538	0.0511	-0.501	
-0.903044	-0.09455	0.439688	7.49	0.42	0.28	0.2572	0.0426	-0.5035	
-0.87779	-0.094794	0.497638	12.04	-1.68	0	0.2584	0.047	-0.5081	
-0.889014	-0.085278	0.45262	18.62	0	-0.84	0.2658	0.0474	-0.4896	
-0.89426	-0.080886	0.480314	21.98	0.42	-1.05	0.2595	0.0394	-0.4926	
-0.887672	-0.102724	0.473116	25.2	3.64	-1.61	0.246	0.0389	-0.507	
-0.901946	-0.09882	0.468236	27.72	8.75	-0.35	0.2597	0.0297	-0.4968	
-0.904752	-0.097722	0.459086	26.32	7.35	0.77	0.2674	0.0323	-0.4995	
-0.87352	-0.0793	0.462868	28.28	1.96	1.12	0.2627	0.0269	-0.501	
-0.855464	-0.043554	0.453596	33.6	4.69	-0.14	0.2603	0.0142	-0.4961	
-0.862906	-0.032452	0.431758	34.86	9.8	-1.89	0.2717	0.0137	-0.4924	
-0.891454	-0.065636	0.45018	29.61	13.09	-3.29	0.265	0.0196	-0.4945	
-0.939278	-0.09076799	0.449936	25.76	8.75	-3.15	0.2689	0.0177	-0.4837	
-0.95953	-0.037454	0.435052	26.25	3.71	-0.63	0.2834	0.0157	-0.4813	
-0.928176	0.032208	0.451156	27.09	-2.1	-1.61	0.2753	0.0024	-0.4933	
-0.876692	0.067588	0.448228	27.23	-1.12	-4.83	0.2705	0.0066	-0.4907	
-0.863028	0.06283	0.43859	22.61	6.86	-9.03	0.2731	0.0083	-0.4997	
-0.884134	0.032208	0.434198	16.87	7	-9.03	0.2739	-0.0017	-0.4917	
-0.92232	0.006344	0.445788	14.35	5.95	-8.19	0.2644	0.0025	-0.4878	
-0.921222	-0.002196	0.4575	10.78	-1.47	-3.78	0.2766	-0.0053	-0.4747	
-0.884378	0.00305	0.453718	7	-6.16	-3.15	0.2694	-0.0059	-0.4887	
-0.84912	-0.01159	0.46726	6.65	-3.78	-3.99	0.276	-0.0063	-0.4853	
-0.838262	-0.025864	0.460672	8.33	3.36	-6.09	0.2698	-0.0075	-0.4841	
-0.866566	-0.035624	0.453108	6.79	4.83	-7.7	0.2748	-0.012	-0.4821	
-0.904386	-0.042212	0.45811	3.08	1.82	-6.79	0.2753	0.0051	-0.4903	
-0.915976	-0.042456	0.463966	1.19	-1.05	-4.76	0.272	-0.0093	-0.4748	
-0.899628	-0.035258	0.466894	-0.98	-2.38	-2.87	0.2664	-0.0004	-0.483	
-0.883158	-0.034892	0.454694	-2.94	-0.98	-1.89	0.2732	-0.0187	-0.488	
-0.87352	-0.040382	0.435052	-3.43	0.7	-3.15	0.2811	-0.0066	-0.4805	
-0.88389	-0.041602	0.442494	-2.17	3.85	-4.62	0.2697	-0.0102	-0.487	
-0.896578	-0.04026	0.444446	-1.26	4.9	-4.06	0.2747	-0.0077	-0.4823	
-0.905606	-0.042334	0.447008	-3.15	1.96	-1.96	0.2698	-0.0062	-0.4826	
-0.90646	-0.019398	0.465186	-6.3	-1.33	-0.35	0.2681	-0.0088	-0.4856	
-0.911584	-0.03294	0.453962	-7	-0.77	0.28	0.2825	-0.0009999999	-0.4806	
-0.91561	-0.06039	0.437248	-6.79	0.07	-0.35	0.2676	0.0024	-0.4876	
-0.909876	-0.075274	0.42578	-5.74	-1.26	0.21	0.2692	-0.003	-0.4903	
-0.904874	-0.076738	0.429806	-5.53	-3.15	2.24	0.2793	-0.0064	-0.4836	
-0.89365	-0.048678	0.448594	-5.88	-5.04	3.57	0.2756	-0.0019	-0.49	
-0.893284	-0.036356	0.452376	-5.53	-5.11	3.36	0.2742	0.0048	-0.4828	
-0.902312	-0.043554	0.468724	-8.82	-9.03	2.8	0.2606	0.003	-0.4971	
-0.901824	-0.0427	0.452498	-8.12	-7	1.4	0.2703	-0.0014	-0.4979	
-0.887062	-0.055388	0.449448	-7.56	-4.27	2.03	0.2675	-0.0084	-0.4963	
-0.876814	-0.049776	0.456768	-8.12	-6.16	3.85	0.2801	0.0077	-0.4887	
-0.875228	-0.029158	0.462136	-9.17	-7.07	5.04	0.2609	0.0015	-0.494	
-0.88816	-0.017202	0.468114	-9.94	-7.21	4.62	0.2666	0.0181	-0.4944	
-0.905118	-0.025742	0.47092	-10.78	-6.51	3.29	0.2577	0.0057	-0.4913	
-0.901458	-0.043554	0.460184	-12.95	-6.44	2.94	0.2606	0.0072	-0.4958	
-0.883158	-0.04087	0.453474	-15.54	-7.91	3.64	0.261	-0.0026	-0.4938	
-0.861076	-0.042212	0.455548	-19.18	-10.01	5.88	0.2615	0.0116	-0.5035	
-0.867176	-0.047092	0.482388	-19.81	-10.36	6.72	0.2601	0.013	-0.5006	
-0.917196	-0.065148	0.480314	-17.22	-9.52	6.93	0.2586	0.0047	-0.5034	
-0.924882	-0.08295999	0.472628	-14.35	-7.42	5.11	0.2681	0.0099	-0.5015	
-0.89792	-0.050508	0.483364	-14.56	-7.77	3.71	0.2568	0.0227	-0.4951	
-0.86803	-0.030134	0.463112	-16.8	-9.38	5.88	0.2438	0.0219	-0.5003	
-0.850462	-0.033184	0.473848	-18.13	-9.87	7.14	0.2562	0.0231	-0.5058	
-0.86254	-0.038308	0.501054	-16.73	-4.69	7	0.2468	0.0301	-0.4975	
-0.855342	-0.069052	0.508008	-14.21	-1.82	6.72	0.2497	0.0221	-0.5091	
-0.86864	-0.069784	0.484096	-14.07	-2.24	5.18	0.2535	0.0174	-0.5011	
-0.885842	-0.061244	0.487512	-16.59	-6.02	3.15	0.2292	0.028	-0.4999	
-0.873398	-0.065636	0.494222	-16.87	-3.78	3.29	0.243	0.0238	-0.5126	
-0.874374	-0.067588	0.504714	-12.88	2.31	3.57	0.2384	0.0266	-0.5084	
-0.88023	-0.067832	0.473238	-8.47	5.95	5.04	0.2593	0.0272	-0.5042	
-0.877546	-0.07198	0.479094	-8.19	2.03	5.81	0.2414	0.0321	-0.5069	
-0.882914	-0.059048	0.478972	-6.72	0	4.62	0.2389	0.0249	-0.5007	
-0.85522	-0.043798	0.491416	-8.54	0.35	1.26	0.2466	0.0262	-0.5049	
-0.85522	-0.053558	0.490928	-10.01	2.66	-0.35	0.2472	0.0271	-0.4928	
-0.893162	-0.067466	0.45689	-12.39	1.19	0.7	0.2611	0.0366	-0.4954	
-0.924882	-0.07259	0.464576	-9.24	4.27	2.45	0.2515	0.0273	-0.5016	
-0.927932	-0.066734	0.474336	-7.7	3.22	3.57	0.2566	0.0324	-0.4925	
-0.914634	-0.042944	0.452986	-4.69	-0.7	2.17	0.2557	0.044	-0.5006	
-0.87474	-0.04209	0.487878	-12.46	-9.17	1.54	0.2511	0.0372	-0.5021	
-0.854854	-0.04148	0.48861	-15.05	-7.7	1.33	0.2483	0.0329	-0.4975	
-0.856928	-0.058804	0.481046	-13.51	2.38	0.56	0.2462	0.0388	-0.5024	
-0.873276	-0.076006	0.493978	-19.81	0.63	0.63	0.2367	0.039	-0.5014	
-0.878278	-0.061976	0.497516	-18.97	-0.14	1.12	0.2578	0.0395	-0.4958	
-0.891698	-0.078324	0.500078	-21.91	3.78	2.52	0.2619	0.048	-0.5019	
-0.883036	-0.0671	0.498492	-22.68	4.76	3.78	0.2571	0.0441	-0.5035	
-0.86925	-0.07442	0.496418	-25.9	5.88	4.55	0.2426	0.0556	-0.4988	
-0.870226	-0.072102	0.462746	-28.14	8.61	4.27	0.252	0.0472	-0.507	
-0.878522	-0.095892	0.454328	-28.42	8.47	3.99	0.2497	0.0535	-0.4877	
-0.906338	-0.092354	0.447862	-20.3	3.71	2.73	0.2543	0.0696	-0.5078	
-0.909632	-0.108824	0.458598	-15.33	-1.26	0.63	0.2547	0.0587	-0.4816	
-0.903044	-0.121512	0.455792	-12.81	-4.69	-2.45	0.2534	0.0705	-0.4957	
-0.89731	-0.117608	0.458598	-11.27	-4.83	-3.57	0.2397	0.0692	-0.4859	
-0.885964	-0.117486	0.47336	-9.31	-2.45	-2.03	0.2506	0.0663	-0.4927	
-0.884622	-0.119926	0.438468	-9.38	-0.35	0.42	0.241	0.0707	-0.4889	
-0.8784	-0.126758	0.442494	-13.86	-5.25	1.26	0.2535	0.0691	-0.4957	
-0.880962	-0.098088	0.478484	-14.98	-3.71	1.75	0.2504	0.0691	-0.4928	
-0.88328	-0.111874	0.473848	-15.19	-0.7	1.68	0.2544	0.0819	-0.4992	
-0.892674	-0.110166	0.473848	-16.8	-1.82	2.17	0.253	0.0708	-0.5034	
-0.884256	-0.110776	0.48007	-17.92	-7.07	2.59	0.2563	0.0761	-0.4973	
-0.86132	-0.135542	0.48983	-19.25	-6.09	3.99	0.2485	0.0817	-0.4904	
-0.835578	-0.144814	0.479216	-20.02	-1.4	5.04	0.2354	0.0837	-0.4942	
-0.825452	-0.137616	0.49288	-20.09	-0.42	3.71	0.2452	0.0915	-0.4865	
-0.822036	-0.14335	0.485316	-18.9	2.66	3.71	0.245	0.08199999	-0.4952	
-0.830576	-0.15311	0.475556	-14.84	2.17	3.5	0.2527	0.0874	-0.4965	
-0.854244	-0.166652	0.47519	-10.85	1.61	3.29	0.2532	0.0871	-0.4889	
-0.862296	-0.157746	0.480436	-6.37	0.42	1.68	0.2466	0.0916	-0.4894	
-0.849486	-0.142008	0.472384	-5.32	0.42	1.05	0.2447	0.0918	-0.4941	
-0.839116	-0.138714	0.468602	-4.97	3.29	1.26	0.2386	0.0891	-0.4913	
-0.856806	-0.133834	0.454328	-3.36	5.18	1.68	0.2471	0.0844	-0.4861	
-0.879498	-0.124562	0.45689	-0.49	2.94	0.84	0.261	0.0897	-0.4901	
-0.89853	-0.121024	0.464698	3.08	0.28	-0.56	0.2483	0.0846	-0.4921	
-0.905728	-0.113704	0.460794	3.99	-0.28	-1.54	0.2561	0.0955	-0.4891	
-0.884256	-0.121024	0.460916	1.4	-1.05	-1.4	0.2464	0.0903	-0.4939	
-0.8601	-0.132858	0.458964	-0.21	-1.4	-0.77	0.2509	0.0904	-0.4982	
-0.85888	-0.146766	0.460794	1.82	-0.91	-0.77	0.2495	0.0944	-0.4924	
-0.879986	-0.141276	0.463112	4.76	-1.68	-1.4	0.2622	0.0982	-0.4919	
-0.874252	-0.125294	0.482632	4.62	-2.52	-1.89	0.2512	0.0957	-0.4909	
-0.869494	-0.117364	0.483242	3.08	-0.91	-1.4	0.2544	0.0915	-0.4935	
-0.862174	-0.134688	0.469822	3.5	1.12	-1.26	0.2466	0.09299999	-0.4895	
-0.856562	-0.145912	0.464332	4.9	0.28	-2.24	0.255	0.0897	-0.4843	
-0.86681	-0.147132	0.461038	2.73	-0.42	-1.26	0.2517	0.0885	-0.486	
-0.870714	-0.141154	0.473848	9.03	0.07	-3.29	0.2484	0.09	-0.4877	
-0.895602	-0.128466	0.466284	12.53	-1.12	-2.87	0.2551	0.0814	-0.487	
-0.88999	-0.111996	0.467382	12.18	-2.66	-3.08	0.2518	0.0802	-0.4902	
-0.881816	-0.113582	0.461038	8.12	-0.56	-2.66	0.2494	0.08899999	-0.4982	
-0.865102	-0.128222	0.461282	5.88	-0.28	-3.71	0.2558	0.086	-0.4993	
-0.863516	-0.124074	0.462624	7	-1.47	-5.74	0.2432	0.08639999	-0.497	
-0.860344	-0.12871	0.48312	13.79	-2.73	-8.33	0.2527	0.0888	-0.4965	
-0.88145	-0.145546	0.480192	18.2	-2.87	-8.26	0.2532	0.0871	-0.4889	
-0.879132	-0.138104	0.477752	19.46	-3.71	-6.93	0.25	0.0859	-0.4905	
-0.881206	-0.132736	0.473604	16.73	-0.91	-5.04	0.2502	0.07889999	-0.4902	
-0.882426	-0.11712	0.468358	16.17	0.7	-4.9	0.2455	0.0749	-0.4918	
-0.86925	-0.112362	0.472506	16.87	-0.91	-5.67	0.2387	0.07669999	-0.4983	
-0.869006	-0.112118	0.479338	19.88	-2.1	-6.16	0.2506	0.069	-0.4898	
-0.85644	-0.120536	0.48068	19.53	-5.6	-6.58	0.2425	0.0749	-0.489	
-0.870836	-0.131272	0.482022	18.06	-6.37	-6.79	0.2472	0.0679	-0.4945	
-0.879132	-0.138714	0.501298	19.18	-5.04	-5.39	0.2471	0.0693	-0.4945	
-0.890844	-0.112606	0.507886	21.77	0.21	-5.25	0.246	0.0663	-0.4884	
-0.896578	-0.088328	0.494954	22.19	2.24	-4.27	0.2374	0.0642	-0.5009	
-0.889136	-0.090402	0.478118	19.53	-1.4	-3.5	0.239	0.0628	-0.5023	
-0.875716	-0.083204	0.497638	13.16	-1.68	-2.94	0.2381	0.0676	-0.5146	
-0.855342	-0.093696	0.49105	10.92	0.91	-1.19	0.2388	0.0657	-0.5039	
-0.849364	-0.109312	0.484828	10.43	1.47	-0.56	0.2419	0.0643	-0.5052	
-0.839238	-0.110898	0.494466	10.78	-0.28	-1.4	0.2498	0.0641	-0.5078	
-0.846924	-0.119072	0.503372	10.36	1.4	-1.75	0.2378	0.0612	-0.4962	
-0.885232	-0.119316	0.50569	12.74	3.15	-0.91	0.251	0.0578	-0.4908	
-0.898774	-0.109312	0.504592	13.58	4.55	-0.77	0.2509	0.0442	-0.5009	
-0.90707	-0.101016	0.47275	15.26	3.29	-0.77	0.2505	0.054	-0.5013	
-0.886452	-0.105286	0.486414	14.77	2.94	-0.91	0.2469	0.0612	-0.5033	
-0.866688	-0.10797	0.482632	13.86	6.51	0.35	0.2522	0.0457	-0.5054	
-0.855342	-0.100528	0.487146	14.21	7.7	0.84	0.2513	0.0398	-0.4976	
-0.873032	-0.091256	0.469822	14.7	5.88	0.98	0.2474	0.0472	-0.5042	
-0.891332	-0.082594	0.472262	13.51	4.83	0.7	0.2432	0.0469	-0.4938	
-0.909754	-0.079422	0.479826	14.7	5.32	-0.42	0.2492	0.0443	-0.5025	
-0.899262	-0.07869	0.487024	16.87	2.24	-0.07	0.2492	0.0347	-0.5096	
-0.896944	-0.07124799	0.463722	17.71	3.29	1.54	0.2583	0.0374	-0.5153	
-0.881938	-0.06832	0.482022	17.85	1.82	2.31	0.2527	0.0262	-0.5091	
-0.879498	-0.063928	0.47092	17.22	1.12	2.24	0.2598	0.0296	-0.4937	
-0.885354	-0.055022	0.47031	18.06	1.68	1.61	0.2518	0.0271	-0.4971	
-0.881084	-0.04941	0.472384	18.13	1.33	2.59	0.2504	0.027	-0.4926	
-0.889624	-0.034282	0.469822	16.73	-1.47	3.36	0.2584	0.024	-0.4951	
-0.87962	-0.034404	0.488244	16.24	-5.53	3.08	0.2682	0.0195	-0.4944	
-0.884988	-0.03111	0.502274	19.88	1.54	2.03	0.2602	0.0252	-0.4905	
-0.893772	-0.036234	0.46299	20.44	6.3	1.05	0.2544	0.008599999	-0.4916	
-0.88999	-0.061244	0.497882	14.91	-3.78	0.07	0.2514	0.0072	-0.4887	
-0.891698	-0.06161	0.47397	17.99	-1.4	0.28	0.2529	0.0154	-0.4844	
-0.893406	-0.035502	0.47336	20.09	-3.08	0.7	0.2574	0.0045	-0.4974	
-0.882548	-0.019398	0.474702	18.62	-3.57	-0.14	0.2509	0.0048	-0.4992	
-0.875838	-0.006954	0.489098	18.13	-2.59	-2.24	0.2462	0.0145	-0.4908	
-0.870226	-0.013054	0.481534	17.64	-0.28	-5.18	0.2592	0.0002	-0.4956	
-0.86803	-0.017934	0.487268	16.38	-0.14	-5.81	0.2418	-0.002	-0.4949	
-0.858026	-0.007564	0.493368	15.19	0.49	-5.88	0.2582	-0.0082	-0.4923	
-0.848632	0	0.49105	12.39	0.14	-4.76	0.2534	-0.0067	-0.4911	
-0.848632	0.014152	0.495686	10.01	-0.35	-3.36	0.2463	-0.0033	-0.5007	
-0.855708	0.005124	0.504958	5.32	-2.52	-1.96	0.2509	-0.0019	-0.5035	
-0.864858	-0.00427	0.50264	3.64	-1.33	-1.4	0.2424	-0.0147	-0.4929	
-0.863516	-0.016958	0.490074	3.64	-1.19	-1.96	0.2551	-0.0041	-0.4865	
-0.864126	-0.028182	0.48739	4.48	-0.77	-2.87	0.2566	-0.0082	-0.4908	
-0.86193	-0.01891	0.490074	3.22	0	-2.24	0.2433	-0.0061	-0.4992	
-0.858636	-0.01708	0.488	0.21	-0.56	-1.19	0.2494	-0.0019	-0.5021	
-0.857538	-0.019154	0.496174	-2.1	-0.63	-0.98	0.256	-0.0037	-0.4986	
-0.875228	-0.028548	0.49776	-1.89	0.42	-0.21	0.247	-0.0147	-0.4956	
-0.871202	-0.038674	0.4941	-1.89	-0.49	0.63	0.2464	-0.002	-0.4977	
-0.85888	-0.028914	0.488976	-1.75	0.98	-0.21	0.2464	-0.0047	-0.5006	
-0.865712	-0.027938	0.480924	-2.52	2.03	-0.21	0.2478	0.0049	-0.4979	
-0.865102	-0.027328	0.489708	-5.04	0.42	0.07	0.2596	-0.0055	-0.4923	
-0.871812	-0.021472	0.489952	-5.95	-0.77	0.98	0.2512	0.0019	-0.4961	
-0.879132	-0.012322	0.491172	-7.7	-1.89	1.96	0.2592	0.0016	-0.4956	
-0.88023	-0.006954	0.496784	-8.68	-2.59	1.33	0.2483	-0.0009	-0.4916	
-0.879132	-0.008784	0.491782	-8.33	-0.91	0.14	0.2482	0.0046	-0.4903	
-0.8784	-0.02074	0.482388	-7.77	-0.35	-0.84	0.248	-0.0021	-0.4976	
-0.874374	-0.033794	0.476898	-8.75	-1.47	-0.35	0.2461	0.0063	-0.4981	
-0.873398	-0.036112	0.480192	-11.69	-2.45	1.47	0.2531	0.0016	-0.4899	
-0.875594	-0.034404	0.493978	-13.09	-4.55	2.24	0.2528	0.0073	-0.4917	
-0.880474	-0.035014	0.498858	-12.74	-5.74	1.19	0.243	-0.0017	-0.5024	
-0.877424	-0.021106	0.500932	-11.9	-3.43	-0.49	0.2447	0.0049	-0.495	
-0.862174	-0.02196	0.493002	-13.02	-2.31	-0.21	0.2478	0.0117	-0.4921	
-0.840824	-0.025132	0.4941	-17.64	-3.57	1.19	0.2525	0.0075	-0.4978	
-0.841068	-0.038552	0.494222	-21.28	-3.85	2.73	0.2398	0.0078	-0.4954	
-0.862418	-0.053314	0.488732	-22.54	-1.96	4.41	0.2405	0.018	-0.5049	
-0.88389	-0.071004	0.497882	-24.5	-2.94	7.91	0.251	0.0157	-0.4906	
-0.886818	-0.081008	0.503982	-24.5	-4.97	8.96	0.2454	0.026	-0.4974	
-0.872788	-0.078446	0.505202	-22.47	-0.91	9.45	0.2419	0.0249	-0.5036	
-0.85034	-0.080276	0.49471	-19.67	0.14	7.77	0.2481	0.0235	-0.5077	
-0.856074	-0.089914	0.494222	-18.27	0.63	7.07	0.245	0.0276	-0.5035	
-0.87291	-0.078934	0.50508	-12.32	3.43	5.67	0.2406	0.0248	-0.4991	
-0.891942	-0.071126	0.498004	-7.63	5.6	6.02	0.2467	0.0302	-0.499	
-0.898652	-0.05856	0.487634	-5.88	4.48	5.18	0.2449	0.029	-0.5036	
-0.88023	-0.038186	0.488122	-6.93	1.47	4.13	0.2515	0.0342	-0.4974	
-0.85949	-0.02501	0.500566	-9.52	2.8	3.78	0.2492	0.0388	-0.5068	
-0.867542	-0.014518	0.497028	-10.5	7	2.87	0.2466	0.0358	-0.4977	
-0.888892	-0.017202	0.485438	-11.48	8.82	2.52	0.2544	0.0329	-0.5032	
-0.89609	-0.027816	0.479704	-12.74	7.77	2.66	0.2463	0.036	-0.5038	
-0.892186	-0.038064	0.47946	-12.6	4.62	1.96	0.2432	0.0333	-0.5039	
-0.898042	-0.042334	0.480558	-12.81	2.1	2.66	0.2545	0.0383	-0.4974	
-0.889746	-0.056608	0.478728	-11.83	2.52	3.5	0.2525	0.0428	-0.5022	
-0.884744	-0.07076	0.472506	-12.74	-4.83	3.57	0.2502	0.034	-0.4914	
-0.891332	-0.079544	0.468968	-10.22	-2.03	3.29	0.2599	0.0378	-0.488	
-0.90341	-0.091988	0.471652	-9.8	-0.56	2.03	0.253	0.0424	-0.4931	
-0.890112	-0.09357399	0.495808	-10.85	-2.03	0.07	0.2574	0.0439	-0.499	
-0.879742	-0.069052	0.469822	-6.37	5.6	-0.98	0.2476	0.0484	-0.4997	
-0.874008	-0.065026	0.46787	-10.57	3.92	-1.05	0.2541	0.0509	-0.4964	
-0.897676	-0.053314	0.455792	-14.42	2.87	-0.07	0.2604	0.0603	-0.4919	
-0.90463	-0.031598	0.51057	-15.68	1.19	1.82	0.2609	0.049	-0.4899	
-0.91073	-0.040504	0.481412	-18.27	-0.21	1.33	0.259	0.0466	-0.4975	
-0.91256	-0.051362	0.465674	-19.04	0.98	1.82	0.2527	0.0494	-0.4934	
-0.89548	-0.056242	0.44713	-20.23	-0.49	-0.07	0.2551	0.0595	-0.5013	
-0.891942	-0.070638	0.484828	-21.63	-9.8	-1.47	0.2554	0.0593	-0.4967	
-0.86376	-0.097112	0.489464	-21.49	-2.87	0.07	0.2486	0.0653	-0.5003	
-0.889502	-0.085522	0.449082	-21.91	4.97	0.21	0.2444	0.0623	-0.4914	
-0.88572	-0.09882	0.477874	-19.32	-3.29	2.59	0.2567	0.0676	-0.4954	
-0.885354	-0.124684	0.454328	-20.3	-8.4	3.29	0.2586	0.06879999	-0.4909	
-0.87108	-0.14335	0.475556	-18.27	-8.19	2.38	0.258	0.0705	-0.4985	
-0.8662	-0.144326	0.472018	-12.81	-2.8	0.77	0.242	0.0711	-0.4994	
-0.878888	-0.125904	0.465186	-10.22	-2.73	-0.21	0.2469	0.0695	-0.4991	
-0.894748	-0.1098	0.474092	-10.64	-3.64	-0.91	0.2466	0.0806	-0.4965	
-0.89975	-0.106384	0.488122	-11.27	-3.71	1.4	0.2419	0.0821	-0.4938	
-0.891942	-0.105774	0.467138	-12.95	-4.48	3.22	0.2445	0.0824	-0.5043	
-0.860588	-0.110898	0.475434	-17.78	-5.11	4.41	0.2485	0.0722	-0.4976	
-0.833992	-0.112728	0.48556	-19.25	-3.99	4.76	0.2517	0.0803	-0.4917	
-0.83936	-0.114314	0.481534	-18.97	-1.61	5.32	0.237	0.0837	-0.4957	
-0.848266	-0.11407	0.497516	-20.16	-0.56	6.86	0.2488	0.0815	-0.4859	
-0.862784	-0.119072	0.492636	-20.37	0.35	8.12	0.2475	0.0907	-0.503	
-0.858392	-0.133224	0.490074	-15.96	-2.45	7.14	0.2364	0.0909	-0.5005	
-0.830332	-0.146766	0.483974	-10.99	-4.76	4.83	0.2444	0.0947	-0.4972	
-0.805932	-0.147498	0.488854	-7.63	-4.62	2.66	0.2381	0.0895	-0.5004	
-0.80398	-0.145302	0.491172	-4.76	-0.91	0.91	0.2385	0.0878	-0.4942	
-0.839238	-0.134566	0.47946	-2.59	2.03	0.49	0.2368	0.0893	-0.4944	
-0.854122	-0.138226	0.488732	-2.24	1.19	0.49	0.2476	0.0947	-0.4986	
-0.860832	-0.14091	0.490684	-0.98	0.77	0.42	0.2521	0.0947	-0.5029	
-0.876326	-0.118096	0.482022	0.91	1.19	0.98	0.2408	0.09519999	-0.505	
-0.869616	-0.113094	0.474214	0.98	1.47	0.28	0.2489	0.09339999	-0.503	
-0.855708	-0.12261	0.475922	0.77	0.42	-0.7	0.2468	0.0887	-0.4878	
-0.846924	-0.129076	0.477752	2.24	0.91	-0.63	0.2431	0.096	-0.4913	
-0.871202	-0.119804	0.47946	2.8	2.31	0.07	0.246	0.09739999	-0.4957	
-0.887306	-0.109922	0.482144	3.99	0.98	-0.42	0.2511	0.09429999	-0.4923	
-0.874008	-0.110166	0.48129	4.83	-1.05	-1.54	0.2333	0.0951	-0.4963	
-0.851926	-0.109556	0.48312	4.76	-0.28	-1.75	0.245	0.0903	-0.491	
-0.841678	-0.109068	0.480192	3.92	2.45	-1.47	0.253	0.0872	-0.4919	
-0.866444	-0.105408	0.478606	3.64	2.87	-1.75	0.2402	0.1014	-0.4841	
-0.876082	-0.106628	0.472628	8.61	-1.33	-5.6	0.2497	0.09429999	-0.4894	
-0.869006	-0.14091	0.492026	3.99	-3.36	-3.64	0.2446	0.0892	-0.4985	
-0.859368	-0.1403	0.486536	6.09	0.42	-3.43	0.2434	0.0862	-0.4924	
-0.843508	-0.133102	0.477508	5.39	1.47	-1.68	0.2453	0.0791	-0.492	
-0.859124	-0.121146	0.470676	7.84	3.71	-2.59	0.2482	0.08199999	-0.4965	
-0.883036	-0.118218	0.4636	10.36	3.99	-4.34	0.2485	0.0817	-0.4904	
-0.890478	-0.119682	0.475312	11.69	0.7	-7.14	0.2418	0.0808	-0.4968	
-0.874862	-0.125416	0.485682	11.2	-1.96	-7.77	0.2481	0.0847	-0.4951	
-0.857294	-0.12749	0.483608	13.02	-1.33	-8.05	0.2491	0.08639999	-0.5042	
-0.851438	-0.133102	0.479094	17.99	1.05	-8.54	0.2388	0.0794	-0.4939	
-0.865712	-0.138226	0.467992	21.91	3.57	-8.75	0.2465	0.0862	-0.4953	
-0.882548	-0.116388	0.484462	21.14	3.22	-9.38	0.247	0.07759999	-0.4919	
-0.903044	-0.08052	0.492636	17.08	4.9	-7.21	0.2557	0.0793	-0.5066	
-0.894382	-0.070516	0.486292	14.28	0.28	-5.04	0.2413	0.0893	-0.5002	
-0.876326	-0.092476	0.487756	13.93	-2.59	-4.55	0.2442	0.072	-0.4887	
-0.845338	-0.13176	0.47763	16.24	-2.52	-4.2	0.2477	0.0795	-0.5055	
-0.848022	-0.134322	0.468602	18.34	-0.63	-5.04	0.2449	0.0711	-0.5038	
-0.87169	-0.127734	0.480924	19.67	2.8	-5.74	0.2517	0.0734	-0.496	
-0.893528	-0.100162	0.494954	20.44	3.57	-4.2	0.2414	0.0715	-0.5101	
-0.906826	-0.084058	0.484096	19.46	3.99	-6.23	0.2418	0.07669999	-0.4997	
-0.897798	-0.09577	0.479948	12.81	1.89	-5.18	0.2482	0.0641	-0.5064	
-0.887794	-0.11529	0.490074	6.58	1.82	-3.57	0.2514	0.0667	-0.5048	
-0.866932	-0.125904	0.495808	5.53	2.31	-1.54	0.2377	0.0613	-0.4977	
-0.865224	-0.113826	0.493978	5.53	5.39	0.21	0.2405	0.0587	-0.505	
-0.86315	-0.106506	0.45994	8.54	4.2	-0.14	0.2438	0.0586	-0.5049	
-0.893772	-0.100284	0.46543	10.64	3.78	-0.63	0.2492	0.0566	-0.4954	
-0.904508	-0.104798	0.477874	13.37	3.71	-1.89	0.2576	0.052	-0.4902	
-0.906094	-0.101992	0.479826	13.09	5.53	-2.66	0.2474	0.0595	-0.4956	
-0.899506	-0.08479	0.483852	12.32	2.31	-3.43	0.2556	0.0523	-0.4979	
-0.886452	-0.093452	0.486292	10.78	3.36	-1.68	0.2442	0.0514	-0.5015	
-0.887916	-0.102602	0.468968	14.49	11.9	0.98	0.2516	0.041	-0.4916	
-0.879132	-0.0976	0.44652	16.17	7.63	-0.07	0.2572	0.0549	-0.4949	
-0.878278	-0.079178	0.43615	14.42	3.57	0.35	0.2559	0.048	-0.4947	
-0.857294	-0.106018	0.49471	16.38	-5.11	-3.15	0.2478	0.0497	-0.4952	
-0.89792	-0.08174	0.449326	23.59	7	-1.68	0.2592	0.0519	-0.4901	
-0.90951	-0.094916	0.492148	27.02	4.97	-2.73	0.2679	0.0361	-0.489	
-0.910242	-0.10919	0.437736	30.03	15.47	-0.42	0.2613	0.0282	-0.4966	
-0.899628	-0.083326	0.447496	29.96	4.9	0.49	0.2584	0.0322	-0.4894	
-0.89487	-0.07564	0.4514	29.75	1.61	-2.1	0.2704	0.0218	-0.4822	
-0.887672	-0.074664	0.451644	33.81	9.52	-2.38	0.2558	0.0196	-0.4875	
-0.902678	-0.06771	0.468358	33.88	7.77	-2.73	0.2604	0.021	-0.4903	
-0.931958	-0.038918	0.441884	32.2	11.41	-2.1	0.2543	0.021	-0.4846	
-0.915732	-0.011956	0.452742	30.17	6.16	-1.61	0.2721	0.0175	-0.4835	
-0.904142	0.011712	0.452864	27.72	3.64	-2.52	0.2652	0.0181	-0.4914	
-0.887916	0.001586	0.438834	25.55	2.1	-4.06	0.2671	0.0055	-0.4938	
-0.8967	-0.017812	0.432734	23.59	2.52	-4.9	0.2622	0.0139	-0.4899	
-0.909876	-0.005124	0.452498	19.32	-4.13	-3.85	0.2614	-0.0015	-0.4878	
-0.908412	0.030012	0.46421	15.05	-6.93	-2.8	0.2593	0.0056	-0.4913	
-0.880108	0.017934	0.476654	11.2	-5.81	-3.22	0.2689	0.0053	-0.4907	
-0.866566	-0.014518	0.46421	8.75	-2.87	-4.76	0.2691	-0.0043	-0.4933	
-0.86559	-0.055022	0.46055	7.91	-1.89	-5.32	0.263	-0.0002	-0.4863	
-0.871934	-0.055754	0.46848	6.79	-1.82	-4.76	0.2698	-0.0048	-0.4827	
-0.858514	-0.030744	0.474092	3.99	-5.25	-4.27	0.2629	-0.0001	-0.4878	
-0.840702	-0.030378	0.48617	1.89	-3.5	-3.92	0.2611	0.0027	-0.4895	
-0.843264	-0.034404	0.48922	0.98	1.96	-3.78	0.262	-0.0088	-0.4814	
-0.854732	-0.04453	0.486048	0.28	3.85	-3.29	0.2561	0.0071	-0.49	
-0.860222	-0.047702	0.481168	-0.49	2.17	-2.1	0.2562	-0.0038	-0.4956	
-0.864248	-0.041724	0.47885	-1.89	1.61	-0.63	0.2644	-0.0042	-0.4921	
-0.883768	-0.034404	0.473726	-3.5	0.91	1.4	0.2595	0.0014	-0.4911	
-0.898896	-0.042578	0.461038	-4.69	0.77	2.31	0.271	-0.0046	-0.4887	
-0.904996	-0.058438	0.447618	-4.06	2.45	1.75	0.2691	-0.0043	-0.4933	
-0.919392	-0.044286	0.441274	-2.1	3.22	1.82	0.2726	0.0008	-0.4858	
-0.912072	-0.023668	0.448716	-1.75	0.28	2.66	0.2719	0.0081	-0.4922	
-0.887306	-0.014152	0.459818	-3.92	-1.54	2.24	0.2512	0.0005	-0.496	
-0.885842	-0.02257	0.4636	-6.16	-0.56	1.61	0.2661	-0.0002	-0.4876	
-0.88206	-0.036234	0.4636	-8.47	-1.33	1.68	0.2731	-0.0049	-0.481	
-0.878034	-0.038918	0.470066	-10.08	-3.99	2.94	0.2534	0.0027	-0.4839	
-0.883158	-0.0305	0.467626	-9.03	-2.45	4.13	0.2596	0	-0.4895	
-0.886696	-0.016714	0.464698	-7.56	-1.54	3.5	0.2678	-0.008599999	-0.4917	
-0.88572	-0.01403	0.464942	-7	-1.54	1.75	0.2592	0.0029	-0.4942	
-0.890966	-0.02928	0.46726	-7.63	-1.05	0.14	0.2508	0.0049	-0.5008	
-0.896456	-0.046482	0.46421	-9.03	-1.26	0.14	0.264	0.0069	-0.491	
-0.890722	-0.044652	0.461404	-11.13	-4.34	1.61	0.2527	0.0073	-0.4932	
-0.883402	-0.04575	0.458232	-12.95	-7	3.5	0.2651	0.0072	-0.5001	
-0.884378	-0.031598	0.468968	-11.97	-4.55	3.71	0.2591	0.014	-0.4886	
-0.882304	-0.033062	0.470798	-11.69	-2.24	2.66	0.2568	0.0158	-0.4994	
-0.88145	-0.037332	0.472262	-12.39	-2.38	1.75	0.2622	0.0098	-0.4928	
-0.889136	-0.054534	0.471286	-11.9	-2.52	0.63	0.2736	0.0093	-0.4891	
-0.89487	-0.059536	0.467504	-12.11	-3.15	1.68	0.2718	0.0136	-0.4909	
-0.897066	-0.052948	0.463478	-12.11	-4.97	3.15	0.2685	0.0138	-0.4926	
-0.893772	-0.051362	0.47702	-11.34	-4.34	3.92	0.2666	0.0154	-0.4958	
-0.893528	-0.064416	0.478728	-10.43	-1.05	4.2	0.265	0.0251	-0.4902	
-0.892186	-0.05551	0.46604	-12.67	-0.77	4.34	0.259	0.0209	-0.4858	
-0.874862	-0.062098	0.461282	-16.1	-4.2	5.04	0.2587	0.0184	-0.4933	
-0.869616	-0.05612	0.47275	-16.1	-3.64	6.44	0.2605	0.0209	-0.4873	
-0.871812	-0.046238	0.473116	-13.02	-3.15	6.44	0.2506	0.0159	-0.4967	
-0.876448	-0.038308	0.491782	-12.95	-3.15	6.02	0.2591	0.0181	-0.4857	
-0.881206	-0.041846	0.493978	-12.6	-0.63	4.48	0.2684	0.018	-0.4913	
-0.876692	-0.05429	0.487268	-13.51	0.35	2.8	0.2492	0.0241	-0.488	
-0.88084	-0.06222	0.461038	-14.56	1.89	2.66	0.2551	0.0297	-0.4925	
-0.887062	-0.066368	0.460062	-13.09	2.87	3.57	0.268	0.0251	-0.4931	
-0.89243	-0.058804	0.472262	-10.85	2.87	5.11	0.2629	0.0296	-0.4966	
-0.893894	-0.042822	0.477996	-9.59	-0.63	5.88	0.2481	0.0289	-0.5034	
-0.883036	-0.038186	0.48495	-8.33	-0.56	5.74	0.2628	0.0365	-0.4938	
-0.870348	-0.037942	0.472384	-9.52	1.33	3.71	0.2527	0.0453	-0.4963	
-0.868518	-0.058072	0.473848	-12.67	3.01	0.28	0.2534	0.0339	-0.4927	
-0.876326	-0.073078	0.468236	-12.32	3.71	-2.03	0.2577	0.0423	-0.4959	
-0.873276	-0.09211	0.473116	-10.57	3.5	-2.52	0.263	0.0405	-0.4879	
-0.875594	-0.078568	0.480436	-6.65	4.76	-1.47	0.256	0.0411	-0.4974	
-0.880352	-0.058804	0.47519	-7.07	6.09	0.91	0.2529	0.0466	-0.4933	
-0.875106	-0.043798	0.463478	-6.72	9.1	0.77	0.2758	0.0455	-0.4844	
-0.877912	-0.04758	0.46482	-9.24	7.28	0	0.27	0.0303	-0.4841	
-0.879742	-0.052826	0.482144	-11.34	11.55	-0.14	0.2645	0.0336	-0.4936	
-0.89304	-0.062342	0.454694	-12.11	10.22	-1.47	0.2755	0.0389	-0.4932	
-0.890966	-0.08295999	0.463112	-13.72	7.21	-1.47	0.2743	0.04	-0.4858	
-0.891454	-0.08357	0.432612	-13.16	8.68	-0.49	0.2609	0.0463	-0.4928	
-0.92232	-0.079544	0.42822	-11.62	8.75	0.7	0.2708	0.0458	-0.4877	
-0.937204	-0.087718	0.456036	-9.94	7.98	0.91	0.2649	0.0416	-0.4818	
-0.937692	-0.093208	0.433954	-5.32	5.46	-0.21	0.2838	0.0548	-0.4768	
-0.91988	-0.104432	0.41907	-3.99	1.89	-1.68	0.2738	0.0513	-0.4863	
-0.898652	-0.113094	0.412604	-4.83	1.05	-2.45	0.2688	0.0489	-0.4925	
-0.894138	-0.110044	0.406626	-4.55	2.59	-2.73	0.2837	0.0549	-0.4783	
-0.903288	-0.10065	0.420412	-2.59	1.54	-2.45	0.2766	0.0556	-0.4908	
-0.919026	-0.10675	0.44164	-0.42	-2.17	-1.82	0.2772	0.0538	-0.4817	
-0.918416	-0.106018	0.452498	1.61	-4.62	-1.33	0.272	0.057	-0.4866	
-0.89365	-0.092964	0.45018	2.38	-4.76	-0.63	0.2754	0.0471	-0.489	
-0.879986	-0.086376	0.43798	2.24	-2.87	0	0.2607	0.0602	-0.4874	
-0.878644	-0.088206	0.435296	0.42	-0.91	0	0.2671	0.0572	-0.4884	
-0.888648	-0.088816	0.435418	-0.84	-1.54	0.21	0.271	0.0525	-0.4789	
-0.902312	-0.09638	0.451278	0.42	-2.8	0.49	0.2755	0.0498	-0.4861	
-0.901336	-0.093086	0.451522	2.31	-1.4	0.84	0.2769	0.0554	-0.4863	
-0.891088	-0.085644	0.44286	2.59	-0.28	1.05	0.2761	0.0467	-0.4784	
-0.877546	-0.083448	0.443714	1.4	-0.56	0.98	0.2639	0.0586	-0.4871	
-0.874374	-0.08418	0.446154	0	-1.47	1.26	0.2765	0.0611	-0.4896	
-0.879132	-0.089792	0.455548	-1.12	-1.26	2.59	0.2655	0.0517	-0.4913	
-0.890722	-0.088938	0.452376	-0.77	0.56	3.15	0.2653	0.0533	-0.4944	
-0.896944	-0.081862	0.443592	-0.42	0.91	3.29	0.2695	0.0604	-0.5005	
-0.905972	-0.072102	0.443836	1.19	2.45	1.47	0.2726	0.047	-0.4831	
-0.900238	-0.069906	0.453108	1.89	0.84	-0.84	0.272	0.0542	-0.488	
-0.893284	-0.073688	0.442616	-0.35	-0.77	-1.26	0.2672	0.0517	-0.4912	
-0.888282	-0.07905599	0.44347	-1.26	-0.42	-1.4	0.2771	0.0566	-0.4818	
-0.891454	-0.079788	0.437004	-1.82	0.84	-0.28	0.2753	0.0513	-0.4892	
-0.895968	-0.078568	0.440664	-1.82	1.19	0.49	0.2658	0.0489	-0.4896	
-0.8906	-0.072712	0.447008	-1.19	1.75	0.7	0.2742	0.0387	-0.4888	
-0.886086	-0.071004	0.45567	-1.89	1.96	1.05	0.2766	0.0487	-0.4951	
-0.87596	-0.075884	0.455792	-2.8	3.36	1.4	0.2704	0.0529	-0.4896	
-0.873764	-0.084912	0.445422	-2.94	4.34	1.47	0.2708	0.0499	-0.4849	
-0.881816	-0.09333	0.443714	-2.17	3.99	1.61	0.2819	0.0482	-0.4872	
-0.906094	-0.103578	0.433466	-1.4	3.43	1.61	0.2728	0.0523	-0.4758	
-0.92598	-0.106262	0.425414	-0.42	2.45	1.61	0.2724	0.0526	-0.4834	
-0.935984	-0.111264	0.422242	1.68	2.24	2.17	0.2745	0.0453	-0.4784	
-0.936838	-0.11102	0.423584	3.29	2.24	3.36	0.2723	0.0554	-0.482	
-0.925004	-0.10553	0.418704	3.64	0.49	3.92	0.2755	0.0457	-0.489	
-0.90829	-0.096502	0.408578	2.59	1.54	4.9	0.2785	0.0567	-0.4847	
-0.898286	-0.08662	0.424804	1.54	0.98	4.55	0.2822	0.0466	-0.4826	
-0.903288	-0.073566	0.42578	1.68	2.45	4.48	0.2721	0.0528	-0.4879	
-0.910364	-0.064904	0.43798	1.54	1.75	4.62	0.2743	0.0469	-0.4815	
-0.909388	-0.06161	0.446398	1.68	1.75	4.9	0.2825	0.0465	-0.478	
-0.909388	-0.052948	0.435662	1.47	1.82	4.97	0.2791	0.0453	-0.4812	
-0.89914	-0.042822	0.432734	0.7	0.35	4.41	0.2775	0.044	-0.4827	
-0.890478	-0.03477	0.436638	0	-0.49	3.5	0.2761	0.048	-0.4769	
-0.892552	-0.03355	0.430904	0.28	0.7	2.45	0.2854	0.0383	-0.4881	
-0.89853	-0.036356	0.429684	0.35	0.84	1.19	0.2754	0.0499	-0.4876	
-0.907436	-0.040382	0.432978	0	0.28	-0.07	0.2693	0.0431	-0.4877	
-0.91195	-0.045018	0.432612	-0.49	0.35	-0.84	0.2793	0.0438	-0.4796	
-0.91134	-0.050752	0.430294	-0.7	0.35	-1.61	0.2788	0.0428	-0.4887	
-0.90585	-0.054656	0.42334	-0.63	0.49	-2.24	0.2757	0.0469	-0.4845	
-0.905484	-0.060756	0.42883	-0.28	0.49	-3.08	0.2781	0.0381	-0.4764	
-0.904752	-0.063562	0.427244	0.49	0.49	-4.13	0.2754	0.0458	-0.4905	
-0.89914	-0.066856	0.427732	0.14	0.42	-4.62	0.277	0.0498	-0.4875	
-0.89975	-0.07076	0.42883	0.07	-0.07	-4.83	0.2809	0.052	-0.4738	
-0.910364	-0.076128	0.434808	-0.07	-0.49	-4.55	0.2814	0.0366	-0.4762	
-0.917074	-0.082716	0.433222	0.14	-0.49	-3.64	0.2721	0.0487	-0.4908	
-0.91256	-0.091378	0.426268	0.35	-0.49	-2.59	0.281	0.041	-0.4794	
-0.905118	-0.092476	0.424926	0.63	-0.35	-2.03	0.2729	0.0481	-0.4771	
-0.899506	-0.088816	0.42944	0.28	0.14	-1.61	0.2852	0.0508	-0.4826	
-0.898286	-0.085156	0.42517	-0.28	-0.56	-1.19	0.2801	0.0539	-0.486	
-0.898286	-0.087596	0.431026	-0.7	-2.03	-0.98	0.2871	0.0478	-0.4809	
-0.89914	-0.093818	0.43493	-0.56	-1.68	-0.28	0.279	0.0468	-0.4828	
-0.900116	-0.08967	0.435052	-0.28	-0.77	0.56	0.2737	0.0541	-0.4864	
-0.902312	-0.081496	0.431148	-0.14	-0.7	0.98	0.2786	0.0539	-0.4846	
-0.899872	-0.076372	0.430172	0.14	-1.61	0.84	0.2771	0.0442	-0.4888	
-0.902922	-0.072224	0.43554	-0.21	-1.47	0.91	0.282	0.0482	-0.4857	
-0.906216	-0.072102	0.435296	-0.84	-1.12	1.12	0.2637	0.0506	-0.4959	
-0.90768	-0.07015	0.43554	-1.05	-1.26	1.19	0.274	0.0567	-0.4804	
-0.906826	-0.069174	0.429806	-1.12	-1.12	1.61	0.2626	0.0503	-0.4884	
-0.908778	-0.06734399	0.43432	-0.77	-0.14	1.4	0.2775	0.0453	-0.4813	
-0.903654	-0.064172	0.429562	-0.28	-0.28	0.98	0.2722	0.0486	-0.4893	
-0.899994	-0.06405	0.429806	-0.84	-1.19	0.56	0.2659	0.0528	-0.4837	
-0.896456	-0.066612	0.436638	-0.98	-0.91	0.07	0.2751	0.0528	-0.4908	
-0.894626	-0.068564	0.440298	-0.56	-0.35	-0.42	0.272	0.0515	-0.4909	
-0.89548	-0.070394	0.440786	-0.28	-0.84	-0.7	0.2815	0.043	-0.4976	
-0.892186	-0.070638	0.444324	-0.84	-0.84	-0.77	0.2817	0.0539	-0.4875	
-0.895968	-0.072102	0.438102	-1.05	0.28	-0.63	0.2838	0.0452	-0.484	
-0.898042	-0.077226	0.44042	-1.26	0.56	-0.56	0.2696	0.0374	-0.4859	
-0.895358	-0.08113	0.440908	-0.91	0.84	-0.21	0.2743	0.0469	-0.4815	
-0.878644	-0.08479	0.444324	-0.56	0.84	0.14	0.2706	0.0514	-0.4865	
-0.87352	-0.085766	0.441884	-0.56	1.96	0.7	0.2757	0.0483	-0.483	