Sensor string: E
Serial number: 1970-01-0000
Firmware version: 2,015
Hardware version: 2,2
Calibration quality: 5
ax	ay	az	gx	gy	gz	mx	my	mz

-0.930494	0.069662	0.385398	-0.49	-1.05	-0.07	0.2939	0.0177	-0.4555	Reference
-0.931226	0.063684	0.381006	-0.84	-1.12	0	0.3059	0.0194	-0.4586	
-0.931104	0.062708	0.384422	-0.21	-1.82	0	0.2956	0.0293	-0.451	
-0.925004	0.065636	0.397476	0	-1.47	-0.14	0.2925	0.0191	-0.4539	
-0.921222	0.063318	0.398208	-1.05	-0.42	-0.42	0.2955	0.022	-0.4493	
-0.920002	0.062342	0.398574	-0.28	-0.28	-0.49	0.2865	0.0189	-0.4493	
-0.925126	0.06466	0.393694	0.14	0.28	-0.42	0.3015	0.0266	-0.4557	
-0.923662	0.06588	0.398696	0.63	-0.35	-0.21	0.2983	0.0132	-0.4492	
-0.919758	0.068442	0.397476	-0.28	0.21	-0.21	0.2941	0.0292	-0.4464	
-0.927322	0.063074	0.392352	-0.28	0.07	-0.14	0.2924	0.0175	-0.4477	
-0.930372	0.061366	0.392352	0.28	-0.7	-0.07	0.2897	0.0294	-0.4619	
-0.928054	0.059902	0.38979	-0.49	-0.98	0	0.297	0.0249	-0.4494	
-0.9272	0.06222	0.392108	0.28	-1.54	0.14	0.2984	0.0207	-0.454	
-0.925248	0.064294	0.399794	0.56	-1.4	0.14	0.3001	0.0282	-0.4603	
-0.9211	0.063562	0.397354	-0.21	-1.05	0.28	0.2985	0.0209	-0.4633	
-0.922442	0.066368	0.39955	0.28	-0.7	0.28	0.2969	0.0193	-0.4617	
-0.922808	0.066856	0.397476	-0.35	-0.77	0.35	0.3045	0.0283	-0.4619	
-0.92293	0.0671	0.39772	-0.7	-0.63	0.42	0.2941	0.0251	-0.4603	
-0.924882	0.06405	0.396134	-0.84	-0.42	0.35	0.2821	0.0188	-0.4523	
-0.923052	0.06771	0.392352	-0.56	-0.21	0.21	0.3	0.0266	-0.4557	
-0.924638	0.071614	0.383568	-0.07	-0.35	0.14	0.2912	0.0293	-0.4541	
-0.932324	0.061366	0.373808	-2.24	-0.35	0	0.2985	0.0222	-0.4587	
-0.951722	0.055632	0.369538	-0.21	0.84	-0.42	0.2983	0.0148	-0.4538	
-0.946476	0.059414	0.370636	0	-0.14	-0.56	0.2866	0.0205	-0.4586	
-0.950258	0.061122	0.36844	-0.49	-1.05	-1.12	0.2881	0.0248	-0.4509	
-0.948916	0.076372	0.36661	2.59	-4.06	-0.35	0.2942	0.0323	-0.4558	
-0.936472	0.066734	0.36966	-1.61	-5.25	0	0.2912	0.0293	-0.4526	
-0.945378	0.060024	0.359778	-0.35	-3.78	0	0.288	0.0187	-0.4415	
-0.94916	0.066124	0.36356	0.56	-4.27	-0.7	0.3032	0.0327	-0.4636	
-0.948306	0.07442	0.357338	0.56	-6.16	-0.84	0.2999	0.0221	-0.4525	
-0.952942	0.07137	0.359168	0.14	-8.89	-0.7	0.2925	0.0235	-0.4525	
-0.961604	0.075762	0.353312	-0.56	-7.84	-0.7	0.2895	0.0163	-0.4632	
-0.957944	0.074786	0.342088	-3.22	-10.99	-0.63	0.2896	0.0236	-0.4633	
-0.967582	0.077714	0.336964	-2.31	-11.76	-0.35	0.2808	0.029	-0.4495	
-0.964898	0.069418	0.344894	-4.48	-14.98	-0.07	0.2896	0.0249	-0.4556	
-0.958066	0.062586	0.354288	-4.34	-15.4	-0.07	0.2792	0.0247	-0.4556	
-0.947818	0.053802	0.359534	-4.69	-18.69	-0.21	0.2718	0.0261	-0.4571	
-0.945622	0.060268	0.366976	-1.89	-19.39	-0.42	0.2778	0.0249	-0.468	
-0.941352	0.05795	0.3599	-3.5	-21.35	-0.91	0.2732	0.0206	-0.4757	
-0.942694	0.058316	0.361486	-1.19	-21.84	-0.77	0.2732	0.0219	-0.4679	
-0.950746	0.068198	0.36356	-0.56	-23.24	-0.35	0.2629	0.0247	-0.4695	
-0.943548	0.06734399	0.371124	-0.84	-25.55	0	0.2703	0.022	-0.4726	
-0.93269	0.069296	0.383202	1.05	-27.58	0	0.2614	0.0219	-0.4788	
-0.923296	0.073322	0.393816	0.21	-29.68	-0.7	0.2583	0.0159	-0.474	
-0.908168	0.068442	0.397232	-1.75	-32.76	-1.61	0.2629	0.0276	-0.468	
-0.91378	0.063928	0.394304	-2.87	-34.02	-1.4	0.2601	0.0308	-0.4836	
-0.91073	0.068686	0.413336	0.14	-36.19	-1.19	0.2451	0.0244	-0.4757	
-0.898896	0.06344	0.419558	-4.9	-36.89	-1.4	0.2437	0.0319	-0.4836	
-0.88267	0.059048	0.436394	-2.8	-41.09	-1.12	0.2421	0.0234	-0.4974	
-0.872178	0.069784	0.457622	-2.8	-45.64	-0.7	0.2319	0.0349	-0.4961	
-0.86071	0.06344	0.481656	-5.67	-45.57	-1.19	0.2258	0.0245	-0.4958	
-0.84607	0.05246	0.50386	-5.39	-47.81	-1.68	0.2184	0.0244	-0.4974	
-0.813618	0.040626	0.527406	-6.02	-51.03	-1.61	0.2005	0.02	-0.5159	
-0.789462	0.045262	0.538386	-4.2	-52.01	-2.03	0.2038	0.0376	-0.5131	
-0.76677	0.049532	0.564616	-3.71	-53.62	-2.66	0.1962	0.0285	-0.5067	
-0.783728	0.044164	0.589138	-2.87	-49	-3.08	0.1814	0.0299	-0.5176	
-0.77104	0.041724	0.59719	-0.7	-51.8	-2.87	0.1753	0.024	-0.5237	
-0.730536	0.045018	0.614026	0.28	-56.07	-3.36	0.1741	0.0356	-0.5193	
-0.696498	0.04209	0.61793	-0.98	-54.88	-3.71	0.1637	0.037	-0.5239	
-0.693326	0.03965	0.622688	-0.14	-53.76	-3.71	0.1534	0.04	-0.5379	
-0.690642	0.04392	0.630618	0.14	-54.39	-2.94	0.1428	0.0295	-0.5346	
-0.663192	0.046726	0.6588	-1.19	-55.09	-2.59	0.1233	0.0221	-0.5499	
-0.64172	0.046726	0.665144	0.98	-53.27	-3.15	0.1265	0.0308	-0.5439	
-0.63074	0.053314	0.676856	-0.77	-51.94	-3.5	0.1115	0.0231	-0.539	
-0.627446	0.045872	0.701256	-2.1	-51.17	-3.71	0.0892	0.0241	-0.5359	
-0.609146	0.042822	0.724558	-5.53	-54.11	-3.29	0.0969	0.0377	-0.5502	
-0.584014	0.03172	0.738832	-2.8	-60.9	-3.29	0.0924	0.0346	-0.5455	
-0.569252	0.020374	0.760792	-4.2	-59.85	-3.08	0.0715	0.0285	-0.5562	
-0.536312	0.005124	0.779946	-3.78	-58.73	-2.66	0.0523	0.0338	-0.5469	
-0.523014	0.000732	0.789828	-0.91	-53.13	-2.45	0.0505	0.0208	-0.5559	
-0.507642	0.000976	0.803126	-0.98	-56.77	-2.94	0.0463	0.031	-0.5577	
-0.492758	0.015128	0.8235	-0.63	-55.93	-3.29	0.0448	0.0309	-0.5561	
-0.474336	0.023546	0.831064	-2.24	-55.58	-2.73	0.0314	0.0293	-0.5607	
-0.438102	0.025498	0.849608	-0.84	-54.74	-2.59	0.0151	0.0304	-0.5592	
-0.431392	0.022448	0.859002	-0.21	-51.87	-2.59	0.0133	0.0172	-0.5604	
-0.425536	0.018178	0.868762	-3.01	-52.36	-2.45	-0.0011	0.0344	-0.5546	
-0.395524	0.010126	0.88023	-3.08	-52.36	-1.75	-0.0116	0.0299	-0.5622	
-0.377712	0.008905999	0.889258	-2.94	-53.55	-1.82	-0.0145	0.0327	-0.5576	
-0.357094	0.002684	0.90829	-1.89	-52.36	-2.38	-0.0249	0.0325	-0.5591	
-0.333304	-0.005246	0.921344	-1.12	-47.88	-2.8	-0.0295	0.025	-0.5512	
-0.286822	-0.00549	0.933422	-1.12	-52.85	-3.29	-0.0488	0.0262	-0.5574	
-0.290482	0.00366	0.949526	0.84	-47.04	-4.48	-0.059	0.0347	-0.5576	
-0.269376	-0.001342	0.96441	-0.77	-48.3	-4.62	-0.06659999	0.0285	-0.5434	
-0.244488	-0.016226	0.975634	1.05	-41.23	-4.48	-0.0681	0.03	-0.5512	
-0.221918	-0.019398	1.01504	4.34	-40.81	-4.13	-0.07099999	0.0317	-0.5621	
-0.236314	-0.008417999	1.003938	4.48	-36.26	-4.13	-0.0829	0.0314	-0.5621	
-0.198372	-0.002196	1.03273	0.28	-41.3	-4.48	-0.0875	0.0237	-0.5464	
-0.208498	0.001708	1.031266	4.27	-31.57	-4.69	-0.0922	0.0135	-0.5524	
-0.18056	0.014274	1.052006	2.8	-34.51	-4.83	-0.1009	0.0206	-0.5525	
-0.167262	0.016836	1.061644	1.4	-28.63	-4.41	-0.1008	0.0251	-0.5542	
-0.15067	0.00427	1.064084	-1.54	-28.07	-3.71	-0.1039	0.0221	-0.5556	
-0.145302	-0.007076	1.070672	-0.91	-24.43	-3.64	-0.1085	0.0158	-0.5369	
-0.121756	-0.01342	1.08092	0.49	-20.37	-3.92	-0.1128	0.0219	-0.5541	
-0.12261	-0.008174	1.080554	0.56	-16.73	-3.15	-0.1142	0.0234	-0.5556	
-0.12322	-0.00366	1.081408	2.1	-12.18	-2.45	-0.1217	0.023	-0.5432	
-0.11956	0.005002	1.083726	1.82	-9.31	-1.96	-0.1245	0.0289	-0.5495	
-0.11041	0.013542	1.090802	1.82	-6.02	-1.47	-0.1143	0.0218	-0.5494	
-0.113216	0.015372	1.090558	2.8	-1.75	-0.63	-0.1365	0.0228	-0.5509	
-0.107604	0.026596	1.092998	2.1	1.33	-0.21	-0.1395	0.0241	-0.5447	
-0.106018	0.021716	1.106662	1.68	5.11	0.42	-0.1189	0.0114	-0.5492	
-0.106018	0.018056	1.11508	2.94	10.01	0.98	-0.1264	0.009699999	-0.5429	
-0.098454	0.029036	1.118252	1.89	14.7	0.77	-0.1323	0.0153	-0.5384	
-0.102236	0.023058	1.115324	1.47	18.55	0.7	-0.1322	0.0185	-0.5508	
-0.107116	0.01403	1.112152	2.52	22.75	0.91	-0.1217	0.0244	-0.5417	
-0.12139	0.014762	1.102514	4.2	27.51	0.7	-0.119	0.0101	-0.5538	
-0.132614	0.02501	1.093486	4.2	31.36	0.14	-0.107	0.0161	-0.5493	
-0.137494	0.035258	1.087508	3.43	35.49	-0.35	-0.0981	0.0134	-0.5539	
-0.15067	0.026718	1.066158	3.29	39.55	-0.77	-0.0995	0.0176	-0.5447	
-0.169214	0.014152	1.040538	4.62	43.82	-1.19	-0.0846	0.018	-0.5494	
-0.17995	0.0183	1.026874	4.69	48.02	-2.38	-0.0907	0.0135	-0.5493	
-0.183976	0.013908	1.020896	1.89	51.73	-3.29	-0.0744	0.0095	-0.5539	
-0.207522	0.015128	0.995764	1.12	55.93	-2.73	-0.0683	0.0169	-0.5541	
-0.238754	0.025254	0.971608	1.82	59.57	-2.45	-0.0489	0.0232	-0.5573	
-0.261568	0.02684	0.960872	-0.84	62.16	-3.08	-0.046	0.0174	-0.5557	
-0.269132	0.019154	0.94367	-1.96	64.12	-2.59	-0.037	0.0234	-0.5527	
-0.301218	0.010004	0.907558	-0.49	65.17	-1.05	-0.0267	0.018	-0.5666	
-0.336232	0.014884	0.893894	1.68	65.8	-0.63	-0.0234	0.0311	-0.5607	
-0.355996	0.023668	0.88938	2.03	68.81	-0.49	0.0029	0.0156	-0.5619	
-0.353312	0.033184	0.874374	-0.28	70.07	0.28	0.0044	0.0171	-0.562	
-0.401502	0.015006	0.854366	-0.7	71.82	1.19	0.0236	0.0143	-0.5511	
-0.452254	0.015738	0.827038	3.01	73.92	2.38	0.0268	0.0234	-0.5622	
-0.465796	0.025498	0.816058	0.7	70.49	2.03	0.0519	0.0164	-0.5559	
-0.48129	0.032452	0.792024	-0.28	74.34	1.96	0.0566	0.028	-0.5468	
-0.499712	0.013908	0.76982	-1.19	74.55	2.73	0.0758	0.0197	-0.5498	
-0.532286	-0.003294	0.75701	-1.82	76.72	3.36	0.0891	0.0183	-0.542	
-0.544364	0.00976	0.73444	2.87	77.56	3.5	0.1129	0.0232	-0.5406	
-0.548268	0.025864	0.702842	0.98	80.22	4.2	0.1128	0.013	-0.5466	
-0.575108	0.021838	0.67222	3.36	81.48	5.18	0.1203	0.0203	-0.539	
-0.615612	0.031476	0.63745	6.72	85.61	5.04	0.1515	0.0223	-0.5344	
-0.645258	0.041114	0.61305	6.65	84.28	4.2	0.1574	0.0179	-0.5282	
-0.648186	0.04148	0.591334	7	82.18	3.29	0.1677	0.0177	-0.508	
-0.663558	0.048068	0.5612	6.65	83.44	2.24	0.1886	0.017	-0.5251	
-0.680638	0.030256	0.517768	3.71	80.08	1.26	0.2005	0.0214	-0.5112	
-0.719922	0.02074	0.469944	7.35	81.62	0.49	0.2094	0.02	-0.5066	
-0.769454	0.019032	0.455182	7.77	81.83	-0.21	0.2257	0.0201	-0.4957	
-0.818132	0.020374	0.415044	10.01	77.21	-0.35	0.2301	0.0171	-0.491	
-0.82899	0.053436	0.413946	16.8	72.17	0.42	0.2465	0.019	-0.4926	
-0.858514	0.078202	0.362096	11.83	70.77	1.19	0.2462	0.0041	-0.4799	
-0.93269	0.086254	0.337696	7.84	72.94	1.89	0.2597	0.0144	-0.4693	
-0.976	0.09089	0.298778	5.6	70.77	2.24	0.2716	0.0161	-0.4693	
-0.942572	0.094794	0.260958	1.54	65.73	1.82	0.279	0.0146	-0.4631	
-0.936716	0.067588	0.233874	-1.26	61.32	1.12	0.2924	0.0162	-0.4585	
-0.945988	0.063562	0.222528	3.36	59.22	-0.28	0.3013	0.0134	-0.4523	
-0.953186	0.07442	0.204106	3.78	56.98	-1.26	0.3026	0.0059	-0.4459	
-0.952088	0.07381	0.19337	-0.14	55.44	-1.05	0.3102	0.0174	-0.4244	
-0.955504	0.0671	0.181902	-2.03	52.99	-0.56	0.3236	0.0178	-0.4338	
-0.95953	0.074908	0.166774	0.14	50.26	-0.28	0.334	0.0164	-0.4276	
-0.993568	0.088938	0.153476	3.36	47.25	0.07	0.3308	0.0075	-0.4243	
-0.99186	0.081252	0.15189	-3.99	43.75	0.98	0.3489	0.0238	-0.4169	
-1.037976	0.09455	0.12749	-4.27	44.59	1.33	0.3577	0.0165	-0.4074	
-1.043954	0.115046	0.115046	-2.66	38.85	1.4	0.3593	0.0224	-0.406	
-1.011746	0.090524	0.121756	-4.83	32.69	1.96	0.3561	0.0104	-0.398	
-1.029192	0.074542	0.096136	-11.2	34.51	2.45	0.3532	0.0162	-0.3981	
-1.04676	0.05917	0.087596	-11.48	33.88	1.89	0.3651	0.0177	-0.3888	
-1.034194	0.066612	0.132614	-1.82	27.02	1.33	0.3638	0.0269	-0.4077	
-1.015894	0.058194	0.12139	-7.14	27.02	0.56	0.3592	0.0207	-0.3966	
-1.00711	0.069296	0.12017	-3.5	24.78	0.91	0.3785	0.0194	-0.3873	
-1.0492	0.061976	0.105286	-4.34	25.69	1.4	0.3636	0.0161	-0.3826	
-1.077382	0.08235	0.063074	-1.61	23.38	1.61	0.3711	0.0193	-0.3873	
-1.063596	0.078446	0.0671	-3.78	11.62	0.77	0.3799	0.0162	-0.3702	
-1.058472	0.08418	0.061244	2.66	10.15	0.42	0.3889	0.0195	-0.3781	
-1.063108	0.072712	0.084668	-6.79	11.48	-0.7	0.3844	0.0192	-0.3703	
-1.052616	0.077836	0.094428	-4.41	9.59	-0.77	0.3877	0.0326	-0.3799	
-1.044808	0.07198	0.099552	-4.97	9.1	-0.21	0.3786	0.0237	-0.3797	
-1.070184	0.050386	0.09089	-6.72	8.12	0.07	0.3859	0.0177	-0.3656	
-1.060302	0.05368	0.081618	-2.94	7	-0.28	0.3935	0.0281	-0.3658	
-1.062986	0.0671	0.082228	1.05	3.99	-0.07	0.3815	0.0249	-0.3642	
-1.067866	0.057462	0.082594	-0.28	2.31	0.91	0.3874	0.0234	-0.3595	
-1.067378	0.074054	0.060634	6.09	0.07	1.05	0.3815	0.0248	-0.3595	
-1.06628	0.075884	0.052948	2.52	1.12	0.42	0.3799	0.019	-0.3656	
-1.097146	0.060146	0.029036	0.07	2.87	1.26	0.3829	0.0176	-0.3656	
-1.095926	0.072102	0.022204	4.13	-0.35	2.03	0.3918	0.0178	-0.3672	
-1.074576	0.089914	0.027328	3.5	-2.1	1.61	0.3784	0.0161	-0.3686	
-1.0492	0.071004	0.045384	-2.1	-0.77	2.03	0.3815	0.0234	-0.361	
-1.024068	0.072102	0.047458	1.54	-2.24	1.12	0.374	0.019	-0.3687	
-1.061766	0.07503	0.022326	0.63	-3.99	-0.35	0.377	0.022	-0.3703	
-1.094706	0.081984	0.009516	2.59	-6.23	-0.91	0.3858	0.012	-0.3732	
-1.08641	0.100772	0.033062	2.73	-8.96	-0.28	0.38	0.0235	-0.3688	
-1.07482	0.100162	0.05612	-0.98	-11.55	0.42	0.3813	0.0117	-0.3654	
-1.07177	0.083326	0.063562	-3.71	-12.18	1.54	0.3873	0.0177	-0.3671	
-1.073356	0.062098	0.070516	-2.59	-11.27	1.82	0.3843	0.0146	-0.3609	
-1.071404	0.063074	0.074908	-0.56	-13.37	0.91	0.3769	0.0161	-0.3702	
-1.061766	0.089304	0.086254	1.33	-15.75	0.14	0.3709	0.0144	-0.3624	
-1.043832	0.105896	0.088816	1.4	-20.72	0.21	0.3635	0.0132	-0.3825	
-1.072258	0.069906	0.091866	-7.98	-20.65	1.75	0.3753	0.006	-0.3793	
-1.09068	0.043554	0.080154	-10.57	-20.65	1.82	0.3696	0.0177	-0.3842	
-1.073966	0.0549	0.09076799	-1.4	-21.49	1.4	0.3696	0.0221	-0.3843	
-1.059936	0.082472	0.122244	6.09	-26.74	0.42	0.3725	0.0164	-0.3873	
-1.071282	0.101992	0.081374	6.23	-3.22	-0.56	0.3654	0.0283	-0.4061	
-1.057496	0.062586	0.17934	-8.19	-19.6	-1.54	0.3592	0.0206	-0.392	
-1.051396	0.089182	0.104066	5.95	-18.69	-1.47	0.3534	0.0279	-0.3937	
-1.042856	0.07124799	0.158478	-2.24	-31.78	-1.4	0.3502	0.0133	-0.3996	
-1.031388	0.085034	0.142618	11.13	-36.26	-1.19	0.346	0.025	-0.4045	
-1.01565	0.077592	0.18178	7.91	-41.86	-1.33	0.3475	0.0251	-0.4091	
-1.000156	0.0793	0.181048	10.78	-43.26	-1.54	0.3338	0.0118	-0.415	
-0.991006	0.064904	0.148718	1.05	-36.19	-1.33	0.3309	0.0104	-0.4228	
-0.995886	0.058316	0.150914	1.4	-34.51	-1.12	0.328	0.0162	-0.4198	
-0.991128	0.080032	0.173728	11.55	-35.21	-0.77	0.3161	0.016	-0.4213	
-0.988322	0.08845	0.191662	6.16	-36.47	-0.7	0.3236	0.0179	-0.4353	
-0.985394	0.07564	0.197396	7.42	-39.55	0.21	0.3115	0.009	-0.4413	
-0.946232	0.07515199	0.214232	11.13	-44.87	0.84	0.316	0.0076	-0.4444	
-0.902922	0.074664	0.295362	3.5	-45.71	2.1	0.3102	0.0149	-0.4492	
-0.923662	0.073322	0.25986	1.19	-44.38	2.45	0.3041	0.0074	-0.4444	
-0.909266	0.073078	0.291458	3.64	-49.49	2.66	0.2968	0.0148	-0.4554	
-0.889624	0.076006	0.31537	1.4	-48.02	2.59	0.2878	0.006	-0.463	
-0.900848	0.065392	0.33672	-3.64	-47.81	2.66	0.2923	0.0118	-0.4553	
-0.924272	0.06832	0.34282	-0.07	-46.48	3.29	0.2758	0	-0.4628	
-0.912316	0.071126	0.34953	-1.68	-52.5	4.2	0.2669	0.0041	-0.4629	
-0.879376	0.07076	0.392352	-1.05	-55.23	3.92	0.2641	0.0088	-0.4785	
-0.8479	0.084912	0.392108	0.84	-56.56	4.2	0.2626	0.0103	-0.4816	
-0.834236	0.104066	0.408334	0	-60.2	4.48	0.2492	0.0071	-0.4831	
-0.818742	0.108702	0.427732	-4.06	-60.48	4.76	0.2344	0.0084	-0.4877	
-0.79666	0.099918	0.446276	-7.84	-63.21	4.2	0.2268	0.0024	-0.4891	
-0.770552	0.08113	0.484218	-8.4	-67.9	3.22	0.2149	0.0009	-0.5	
-0.735416	0.065758	0.542168	-3.71	-69.23	2.59	0.2017	0.0067	-0.5109	
-0.691374	0.073932	0.537898	0.14	-71.75	3.08	0.2046	0.0023	-0.5046	
-0.698206	0.08784	0.548878	-1.19	-70	1.89	0.1958	0.0096	-0.5141	
-0.687226	0.095648	0.557052	-1.19	-75.46	1.4	0.1763	-0.0023	-0.5169	
-0.630984	0.079178	0.616222	-1.47	-80.36	0.49	0.1718	-0.0024	-0.5184	
-0.615246	0.090036	0.643184	2.66	-77.77	-0.14	0.1542	0.0048	-0.5341	
-0.60512	0.10675	0.657824	2.03	-74.27	-0.56	0.1407	0.0014	-0.5247	
-0.607804	0.108946	0.684542	-1.19	-76.93	0.7	0.1258	0	-0.5386	
-0.599508	0.108824	0.712846	-2.73	-75.11	1.68	0.108	-0.0002	-0.5432	
-0.551806	0.103944	0.74359	-3.85	-78.96	2.17	0.1066	-0.0001	-0.551	
-0.491172	0.087352	0.76677	-9.66	-77.49	2.1	0.0812	-0.0051	-0.5446	
-0.468846	0.072102	0.78019	-6.37	-77.42	1.96	0.0695	0.005	-0.5525	
-0.452376	0.062342	0.7991	-5.74	-74.97	0.98	0.0503	0.0117	-0.5418	
-0.42212	0.073444	0.809836	-4.48	-75.67	-0.35	0.0354	0.0087	-0.5541	
-0.391376	0.075884	0.843996	-4.55	-72.87	-1.12	0.0293	-0.0029	-0.56	
-0.397842	0.074298	0.852658	-2.38	-70.14	-1.12	0.0294	0.0042	-0.5555	
-0.387472	0.079544	0.876082	-1.89	-68.95	-1.68	0.004	-0.0006	-0.5538	
-0.360754	0.069418	0.910852	-2.1	-66.92	-2.38	0.0027	0.0067	-0.5571	
-0.320372	0.070394	0.942816	-3.64	-67.06	-2.87	-0.0154	-0.0127	-0.5551	
-0.293532	0.067466	0.967948	-4.9	-64.05	-2.94	-0.0167	-0.0009999999	-0.5553	
-0.26047	0.06734399	0.989664	-5.18	-62.02	-3.15	-0.0359	0.0014	-0.5522	
-0.234118	0.066124	1.012478	-4.48	-58.24	-2.73	-0.0509	-0.0016	-0.5552	
-0.227286	0.050996	1.031022	-5.53	-52.43	-3.22	-0.0612	-0.0004	-0.5553	
-0.193004	0.026474	1.043344	-6.16	-57.33	-2.73	-0.0597	0.0023	-0.5491	
-0.187758	0.01586	1.069208	-5.25	-44.66	-2.94	-0.07759999	0.0007	-0.5552	
-0.171166	0.013176	1.07543	-4.13	-39.76	-3.08	-0.076	0.0022	-0.5568	
-0.159698	0.030134	1.081164	-2.17	-37.66	-3.57	-0.0939	0.0018	-0.5537	
-0.152622	0.045506	1.089704	-1.47	-33.46	-3.85	-0.097	-0.0054	-0.5597	
-0.143472	0.049654	1.092876	1.54	-30.87	-3.92	-0.0969	0.0002	-0.5505	
-0.12444	0.05307	1.09922	2.52	-24.43	-4.41	-0.0998	0.0016	-0.549	
-0.110044	0.043554	1.10227	3.36	-19.74	-4.55	-0.1058	0.0028	-0.5444	
-0.11468	0.040992	1.103368	5.18	-13.93	-4.06	-0.0999	0.0001	-0.549	
-0.113704	0.041968	1.1102	4.76	-10.71	-4.13	-0.1013	0.0014	-0.5428	
-0.115412	0.056364	1.110322	2.73	-5.74	-4.2	-0.1072	0.0043	-0.5459	
-0.121634	0.06405	1.1102	0.42	-1.33	-3.36	-0.1028	0.0013	-0.5412	
-0.128344	0.060512	1.11508	-1.47	3.43	-2.45	-0.1116	0.0087	-0.5507	
-0.13481	0.057218	1.116788	-1.68	7.07	-1.61	-0.1105	-0.0101	-0.5565	
-0.138714	0.054046	1.121058	-1.68	11.06	-0.63	-0.1058	0	-0.5521	
-0.130296	0.051728	1.121058	-2.38	16.59	0.14	-0.1072	0.0045	-0.5568	
-0.128466	0.046482	1.111176	-1.89	20.72	0.42	-0.1059	-0.0057	-0.5519	
-0.138592	0.049288	1.107272	-0.77	25.76	0.77	-0.1028	0.0001	-0.5505	
-0.157868	0.04697	1.098976	0.63	30.24	0.77	-0.0938	0.002	-0.5646	
-0.168848	0.041724	1.09007	-0.07	35.63	0.21	-0.085	-0.0009	-0.5521	
-0.173728	0.050874	1.080676	0.77	38.64	-0.21	-0.0792	-0.0052	-0.552	
-0.177144	0.052216	1.069086	1.68	42.49	-0.21	-0.0822	-0.0068	-0.5489	
-0.189222	0.060024	1.050054	1.12	45.99	-0.07	-0.0657	-0.0006	-0.5506	
-0.204106	0.051728	1.034194	1.68	50.47	0.42	-0.0612	-0.0003	-0.5584	
-0.208132	0.062342	1.015772	3.57	54.25	0.56	-0.0643	-0.0089	-0.5706	
-0.23729	0.051484	0.987468	0.7	58.03	0.21	-0.0419	0.0028	-0.5538	
-0.26474	0.047092	0.969778	2.87	61.04	0.56	-0.0331	-0.0042	-0.5552	
-0.290726	0.05063	0.959774	3.71	64.33	-0.21	-0.0227	-0.0069	-0.5583	
-0.310856	0.057706	0.951356	4.83	66.78	-1.82	-0.024	0.0005	-0.5662	
-0.315248	0.064904	0.905728	4.55	68.11	-2.52	-0.0002	0.0036	-0.5524	
-0.334524	0.052704	0.886452	7	68.88	-1.33	0.01	0.0009999999	-0.5601	
-0.384788	0.053558	0.860466	6.65	74.06	-1.12	0.0206	0.01	-0.5619	
-0.400282	0.06734399	0.83753	6.02	74.55	-1.47	0.0158	-0.0048	-0.5491	
-0.406016	0.06527	0.82899	3.15	75.95	-1.4	0.0441	-0.0042	-0.5523	
-0.439322	0.045018	0.800076	3.71	81.2	-1.61	0.0633	-0.007	-0.5414	
-0.482754	0.046604	0.769698	6.09	81.9	-3.22	0.0634	0	-0.5307	
-0.518012	0.052216	0.7259	4.2	80.5	-4.62	0.07979999	0.0006	-0.5431	
-0.537532	0.072712	0.67954	0.77	81.34	-4.55	0.1005	-0.0063	-0.5399	
-0.567178	0.062098	0.642696	0.28	79.1	-3.22	0.1095	0.0009999999	-0.5339	
-0.607804	0.04453	0.611098	0.49	79.87	-2.24	0.1244	0.0027	-0.534	
-0.650748	0.04575	0.585722	2.52	79.45	-1.75	0.1364	0.0075	-0.5388	
-0.664656	0.064294	0.563762	2.8	76.93	-0.98	0.1421	-0.0014	-0.523	
-0.676002	0.08052	0.538142	-1.54	73.99	-0.49	0.1614	-0.0039	-0.5246	
-0.70333	0.075762	0.518622	-4.83	76.65	-0.84	0.1749	0.0022	-0.5279	
-0.75579	0.05978	0.501298	-3.43	78.4	-1.33	0.1897	0.0007	-0.5154	
-0.791414	0.060756	0.47153	0.21	75.39	-1.68	0.2001	0.0037	-0.5078	
-0.798734	0.06466	0.444934	1.4	71.12	-1.96	0.2164	-0.0003	-0.5077	
-0.80703	0.069174	0.421632	2.59	68.04	-1.26	0.2359	0.0087	-0.5002	
-0.828136	0.077226	0.3904	0.84	68.39	-0.84	0.2403	0.0071	-0.4893	
-0.873764	0.091866	0.379176	1.89	68.25	-1.4	0.2521	0.0028	-0.483	
-0.908778	0.10797	0.34953	1.19	68.95	-1.82	0.2671	0.0102	-0.4754	
-0.88999	0.123342	0.315004	0.07	63.77	-0.77	0.2727	-0.0029	-0.4674	
-0.918904	0.108458	0.28548	-6.37	63.7	0.14	0.2773	0.003	-0.4706	
-0.934032	0.081862	0.259006	-11.27	60.48	0.63	0.2804	0.0103	-0.4661	
-0.93025	0.063196	0.247294	-8.75	57.82	0.84	0.2909	0.0133	-0.4569	
-0.916952	0.042334	0.24095	-6.44	56	0.42	0.3027	0.0119	-0.4522	
-0.933178	0.036844	0.23607	-4.97	56.49	-0.7	0.3102	0.0121	-0.4538	
-0.956358	0.06771	0.228994	2.66	51.45	-1.75	0.3218	0.0046	-0.4335	
-0.972462	0.085766	0.20557	-1.54	47.25	-0.84	0.3234	0.0074	-0.4242	
-0.963678	0.092598	0.189466	-1.75	44.03	0.84	0.3236	0.0179	-0.4384	
-0.976366	0.057706	0.178852	-5.88	46.34	1.05	0.3264	0.0104	-0.4274	
-0.996618	0.043554	0.149572	-4.83	45.71	0.07	0.3368	0.012	-0.4213	
-1.066402	0.084668	0.121756	-3.08	44.66	-0.21	0.3399	0.0177	-0.4105	
-1.06079	0.09357399	0.084668	-5.81	35.35	0.07	0.3428	0.0135	-0.4182	
-1.0858	0.075396	0.072834	-9.73	31.43	1.19	0.3591	0.0134	-0.3949	
-1.08519	0.028914	0.078202	-7.49	27.3	0.77	0.3547	0.0148	-0.3996	
-1.05774	0.038064	0.114802	-3.36	22.75	-0.84	0.3621	0.0121	-0.4027	
-1.068842	0.083326	0.111142	-0.98	11.27	-0.77	0.3639	0.0295	-0.3937	
-1.064938	0.067588	0.112118	-0.07	7.42	-0.84	0.3606	0.0176	-0.3873	
-1.076772	0.036356	0.074908	-3.64	8.82	-1.68	0.3711	0.0179	-0.3888	
-1.061766	0.03477	0.101504	3.57	8.26	-3.71	0.3652	0.0237	-0.3936	
-1.092266	0.067588	0.10004	5.53	8.89	-3.64	0.3591	0.0162	-0.3903	
-1.090558	0.065514	0.103334	-3.01	15.12	-2.24	0.3563	0.022	-0.3905	
-1.095438	0.059658	0.093208	0.91	7.42	-0.35	0.3533	0.019	-0.3919	
-1.070428	0.057706	0.091744	0.21	4.55	0.42	0.377	0.0208	-0.3827	
-1.066646	0.084912	0.085156	4.69	3.29	0.56	0.3769	0.015	-0.3872	
-1.062376	0.08845	0.09577	-2.94	5.39	1.61	0.371	0.0165	-0.3966	
-1.074088	0.070638	0.098942	-1.75	-1.33	2.66	0.368	0.0133	-0.3856	
-1.0858	0.06771	0.09577	-1.05	-3.22	1.68	0.3741	0.0208	-0.3874	
-1.071404	0.066612	0.094062	-3.5	-2.59	0.28	0.3592	0.019	-0.3857	
-1.052982	0.049654	0.093818	-4.69	-2.52	0.42	0.368	0.0149	-0.3919	
-1.058838	0.034282	0.091744	-5.53	-3.57	0.21	0.3652	0.0206	-0.3842	
-1.072868	0.04087	0.098942	0.07	-5.53	0.14	0.3758	0.0341	-0.3908	
-1.063352	0.058682	0.105286	3.22	-8.05	-0.42	0.3696	0.0209	-0.3967	
-1.06262	0.068442	0.113826	3.36	-8.47	-0.07	0.3664	0.0078	-0.401	
-1.076162	0.062708	0.10858	1.05	-8.68	0.35	0.3621	0.015	-0.4027	
-1.071282	0.05185	0.104798	0.14	-9.8	-0.42	0.3652	0.021	-0.4044	
-1.081652	0.045628	0.105408	-0.63	-9.45	-1.26	0.3623	0.0238	-0.3998	
-1.066158	0.059414	0.127734	4.9	-13.79	-1.4	0.3711	0.0194	-0.3935	
-1.053226	0.060146	0.14335	4.69	-17.64	-1.05	0.3591	0.015	-0.4027	
-1.027728	0.064294	0.163114	6.51	-20.79	-0.56	0.3623	0.0254	-0.4107	
-1.04371	0.06344	0.156526	1.75	-17.85	-0.14	0.3547	0.0136	-0.4105	
-1.063718	0.075884	0.142496	2.31	-1.19	-0.21	0.3578	0.0225	-0.4122	
-1.055544	0.052826	0.170312	-6.44	-8.12	-0.21	0.3561	0.0136	-0.4089	
-1.04737	0.05551	0.174216	0.91	-14.56	-0.49	0.3533	0.0222	-0.4013	
-1.043588	0.045384	0.193126	1.4	-19.88	-0.49	0.3444	0.0191	-0.4059	
-1.036146	0.069296	0.198006	6.23	-17.71	0.07	0.3444	0.0193	-0.4137	
-1.031266	0.082472	0.203252	1.4	-21.14	1.05	0.3428	0.0149	-0.4136	
-1.029436	0.082594	0.18544	1.82	-21.14	2.1	0.3444	0.0194	-0.4168	
-1.027362	0.066612	0.18117	-1.82	-23.66	2.31	0.3459	0.0207	-0.409	
-1.022116	0.061976	0.190686	1.82	-29.89	2.17	0.3382	0.0061	-0.4211	
-1.015772	0.078446	0.196908	5.18	-30.17	0.98	0.3385	0.0207	-0.4183	
-1.00162	0.088572	0.186416	3.57	-30.8	-0.07	0.3369	0.0136	-0.4291	
-0.9821	0.08235	0.210694	0.84	-32.06	0.91	0.334	0.0178	-0.4214	
-0.957334	0.0793	0.23668	1.82	-32.41	2.17	0.328	0.0163	-0.4275	
-0.962702	0.075518	0.259006	-0.84	-32.34	3.29	0.3205	0.0104	-0.4336	
-0.956358	0.069662	0.247904	2.38	-35.42	4.06	0.3248	0.0034	-0.4428	
-0.933422	0.0793	0.253272	1.75	-36.19	4.41	0.3115	0.0045	-0.4381	
-0.931714	0.08601	0.247416	-1.19	-41.02	4.2	0.3088	0.0191	-0.4384	
-0.934764	0.069906	0.254492	-5.39	-41.72	4.13	0.2908	0.0117	-0.4507	
-0.93269	0.066246	0.293898	-2.17	-42.14	3.29	0.2983	0.0118	-0.4522	
-0.899018	0.063928	0.330864	-4.9	-43.54	2.66	0.2908	0.0076	-0.4645	
-0.889868	0.053192	0.345992	-3.36	-47.88	3.15	0.2791	0.0192	-0.4741	
-0.899628	0.07015	0.35746	0.98	-49.98	2.87	0.2732	0.0176	-0.4725	
-0.904386	0.091134	0.354532	-3.29	-51.8	2.31	0.2671	0.0133	-0.4817	
-0.880474	0.070638	0.403088	-9.59	-55.09	1.26	0.2657	0.0174	-0.4709	
-0.849608	0.055632	0.428952	-6.58	-57.54	0.49	0.2433	0.01	-0.4893	
-0.835334	0.055876	0.440664	-5.88	-58.1	0.84	0.2478	0.0102	-0.494	
-0.839726	0.056974	0.427244	-2.66	-57.82	1.05	0.2314	0.0083	-0.4877	
-0.830332	0.059658	0.461282	-2.1	-57.75	1.68	0.2226	0.0113	-0.4971	
-0.790682	0.07137	0.491416	-0.63	-59.43	1.4	0.2182	0.0171	-0.5003	
-0.767502	0.07076	0.51362	-2.52	-63.14	0.56	0.2108	0.0198	-0.4957	
-0.776408	0.070638	0.499712	-3.64	-63.35	0.21	0.1929	0.0138	-0.508	
-0.758474	0.058682	0.542656	-2.45	-64.47	0.7	0.1886	0.0183	-0.5158	
-0.688812	0.050874	0.57218	0.07	-72.87	1.12	0.1706	0.0105	-0.5125	
-0.6649	0.054412	0.597312	3.08	-70.35	1.47	0.1573	0.015	-0.5296	
-0.66063	0.06771	0.596702	7.91	-71.82	2.31	0.1542	0.0077	-0.531	
-0.671854	0.076006	0.61793	5.18	-71.61	2.45	0.1421	-0.0055	-0.5385	
-0.653066	0.078324	0.660752	3.29	-71.12	2.59	0.1349	0.0089	-0.5403	
-0.604998	0.10675	0.693326	2.45	-74.97	2.66	0.1172	0.0115	-0.5372	
-0.590114	0.11163	0.721142	1.12	-74.41	2.17	0.114	0.0028	-0.5448	
-0.573034	0.083692	0.75213	-2.45	-76.02	2.1	0.0919	0.0113	-0.5527	
-0.51118	0.08052	0.778604	-2.94	-74.76	2.1	0.0888	0.0009999999	-0.5525	
-0.464576	0.085644	0.782264	-5.67	-73.99	1.96	0.0829	0.0079	-0.5402	
-0.436394	0.088206	0.818376	-6.58	-70.49	1.89	0.0621	0.0046	-0.5416	
-0.419192	0.07198	0.836676	-7.14	-66.92	1.89	0.0533	0.009099999	-0.5541	
-0.404918	0.053192	0.844606	-6.37	-64.89	1.89	0.0428	0.006	-0.5572	
-0.394548	0.055266	0.8601	-3.29	-65.03	0.98	0.0292	-0.003	-0.5554	
-0.383324	0.060878	0.872056	-2.17	-60.97	0	0.019	0.0056	-0.5587	
-0.355874	0.061976	0.878888	-2.17	-60.69	-0.7	0.004	-0.0006	-0.5554	
-0.331352	0.070272	0.893894	-1.96	-57.61	-1.68	-0.0031	0.0083	-0.5695	
-0.318054	0.068686	0.898042	-2.03	-55.65	-2.1	-0.0135	0.0093	-0.5571	
-0.31293	0.062708	0.912072	-1.54	-53.97	-2.03	-0.0283	0.0105	-0.5571	
-0.292434	0.061244	0.930616	-1.19	-53.55	-2.45	-0.0344	0.0032	-0.5663	
-0.268522	0.065392	0.942816	-0.91	-51.45	-3.01	-0.0405	-0.0015	-0.5522	
-0.242292	0.06649	0.964044	-3.78	-48.37	-3.01	-0.0419	-0.0027	-0.5661	
-0.249734	0.060878	0.991494	-4.27	-49.28	-2.24	-0.0655	0.0083	-0.5585	
-0.24522	0.044042	1.016748	-4.97	-46.34	-1.4	-0.0671	0.0025	-0.5615	
-0.237412	0.038674	1.039196	-4.76	-42.07	-1.54	-0.0702	-0.0049	-0.5582	
-0.200324	0.036844	1.06323	-4.62	-42.91	-2.24	-0.0731	0.0006	-0.549	
-0.166042	0.028426	1.075186	-3.99	-40.67	-2.66	-0.0832	0.0152	-0.5571	
-0.15555	0.024278	1.081652	-2.31	-34.16	-2.66	-0.09079999	0.0088	-0.5383	
-0.149938	0.028792	1.083116	-1.19	-31.08	-2.8	-0.097	-0.0055	-0.552	
-0.144692	0.028304	1.08336	-1.19	-25.83	-2.59	-0.0983	0.0043	-0.5397	
-0.137372	0.032696	1.078724	-0.56	-21.7	-2.24	-0.1071	0.0101	-0.5461	
-0.133712	0.039162	1.073234	-0.07	-18.9	-2.03	-0.0953	0.0019	-0.5599	
-0.128832	0.036234	1.080554	0.91	-15.19	-2.03	-0.1146	0.0071	-0.5491	
-0.126392	0.034892	1.079822	1.82	-11.55	-2.31	-0.1189	0.0129	-0.5492	
-0.121756	0.033062	1.088728	0.84	-8.4	-2.38	-0.125	0.0071	-0.5568	
-0.112484	0.033916	1.101416	0.63	-4.34	-2.24	-0.1013	0.0002	-0.5567	
-0.106018	0.037332	1.103978	0.63	0	-1.82	-0.1117	0.0043	-0.5521	
-0.109922	0.031842	1.099586	0.63	4.48	-1.05	-0.1192	-0.0006	-0.5303	
-0.116632	0.028914	1.096048	0.7	8.47	-0.7	-0.1175	0.0087	-0.5584	
-0.126636	0.041114	1.082262	0.98	11.9	-0.28	-0.1145	0.01	-0.5445	
-0.129686	0.04697	1.075552	-0.35	15.05	0.07	-0.1148	-0.0032	-0.5395	
-0.142252	0.03782	1.078602	1.05	18.06	0.35	-0.1132	0.0013	-0.5505	
-0.147132	0.028914	1.078602	1.89	22.12	0.7	-0.1013	0.0043	-0.5413	
-0.149572	0.041236	1.073966	2.45	25.97	0.14	-0.1014	-0.0039	-0.5644	
-0.161162	0.052826	1.058594	1.05	29.4	0.07	-0.1088	0	-0.5536	
-0.174094	0.039894	1.041758	1.96	33.74	0.77	-0.0834	0.0047	-0.546	
-0.18849	0.03843	1.030656	2.87	37.52	1.12	-0.0878	0.0063	-0.5522	
-0.211182	0.04697	1.01809	2.17	41.02	1.19	-0.0778	-0.009699999	-0.5441	
-0.23424	0.04697	1.012234	3.01	43.54	1.33	-0.0849	0.0036	-0.5646	
-0.249002	0.054412	1.001254	3.01	46.83	0.49	-0.0748	-0.0095	-0.5504	
-0.255956	0.0549	0.985394	3.57	49.14	0	-0.0538	-0.0001	-0.563	
-0.279258	0.051362	0.965508	3.22	50.26	0.35	-0.0509	-0.0016	-0.5568	
-0.30378	0.054168	0.954772	2.38	52.71	0.49	-0.0345	-0.0041	-0.563	
-0.312808	0.058926	0.95465	3.22	55.37	0	-0.0255	0.0046	-0.557	
-0.323666	0.058926	0.939522	3.29	57.12	-0.21	-0.0045	0.011	-0.5634	
-0.33977	0.049288	0.915732	3.78	59.43	0.35	-0.0136	0.0019	-0.5554	
-0.371246	0.047946	0.894016	3.5	60.9	0.49	-0.0002	0.0053	-0.5633	
-0.400038	0.0549	0.887428	3.08	62.44	-0.7	0.0175	0.0041	-0.5586	
-0.404308	0.06771	0.863638	5.46	62.65	-1.33	0.0232	-0.009	-0.5521	
-0.426512	0.072346	0.850828	6.79	64.4	-1.82	0.0203	-0.0032	-0.5554	
-0.456036	0.07686	0.832162	5.95	65.45	-1.54	0.0427	0.0043	-0.5463	
-0.471896	0.078934	0.804468	4.34	64.96	-1.05	0.0457	0.003	-0.5524	
-0.48068	0.08784	0.77775	4.69	66.78	-1.19	0.07099999	0.0051	-0.5556	
-0.51545	0.066002	0.748348	4.13	68.95	-1.47	0.07669999	-0.005	-0.5539	
-0.54961	0.065758	0.72834	4.76	68.88	-1.47	0.0857	-0.0005	-0.5509	
-0.572424	0.08418	0.706014	2.94	68.18	-1.68	0.0948	0.0055	-0.5557	
-0.58804	0.08662	0.693326	0	67.2	-1.96	0.1065	-0.0017	-0.5447	
-0.610488	0.086742	0.67466	-1.26	67.27	-1.33	0.12	0.0027	-0.5355	
-0.621468	0.069174	0.652334	-4.41	67.34	-0.42	0.1228	-0.0032	-0.5276	
-0.646722	0.049532	0.629398	0.07	67.2	-0.63	0.1409	0.0118	-0.5295	
-0.683322	0.056242	0.618296	2.52	67.76	-1.75	0.1616	0.0063	-0.5279	
-0.69906	0.071858	0.598654	3.36	66.15	-2.52	0.1572	0.0105	-0.5233	
-0.711382	0.07259	0.579622	4.06	65.73	-2.66	0.1735	0.0037	-0.531	
-0.722606	0.064904	0.561078	4.34	65.38	-2.17	0.1676	0.0077	-0.5202	
-0.744688	0.061122	0.54107	4.62	65.94	-1.96	0.1884	0.011	-0.5156	
-0.758718	0.0671	0.514108	6.79	65.38	-2.17	0.2002	0.0052	-0.5078	
-0.774456	0.080764	0.484462	8.12	65.38	-2.66	0.215	0.0011	-0.5077	
-0.797392	0.07869	0.464698	6.72	65.8	-3.36	0.23	0.01	-0.4986	
-0.818254	0.0793	0.433832	7.07	62.65	-4.06	0.2252	-0.0033	-0.4952	
-0.853146	0.082838	0.41846	5.81	62.86	-4.62	0.2416	-0.0016	-0.4906	
-0.87291	0.082228	0.40687	6.51	57.4	-4.97	0.2474	-0.009	-0.4796	
-0.88511	0.108458	0.38979	4.97	55.44	-4.97	0.2581	0.0056	-0.4722	
-0.918538	0.097966	0.365024	3.92	55.09	-4.69	0.2729	0.0058	-0.4676	
-0.915122	0.081496	0.345138	1.82	53.34	-4.34	0.2714	0.0059	-0.4722	
-0.92903	0.073444	0.321714	2.45	53.41	-4.55	0.2802	-0.0028	-0.4627	
-0.934764	0.071004	0.297558	3.08	53.34	-4.48	0.2862	0.0032	-0.4691	
-0.916098	0.07198	0.299266	-0.35	52.57	-4.34	0.2847	0.003	-0.4644	
-0.914634	0.077958	0.285358	0.77	52.5	-3.43	0.292	-0.0014	-0.4488	
-0.915244	0.057218	0.257908	-3.29	51.24	-3.22	0.3055	0.003	-0.4412	
-0.947452	0.055266	0.226554	-1.19	52.57	-4.41	0.313	0.0088	-0.4336	
-0.97295	0.065392	0.22021	-1.05	51.17	-4.62	0.3219	0.009	-0.4351	
-0.958798	0.094062	0.206668	-0.42	45.64	-3.64	0.3249	0.0118	-0.4243	
-0.93452	0.099186	0.21167	-4.27	40.46	-2.87	0.3382	0.0047	-0.4242	
-0.975268	0.077104	0.206668	-10.64	43.33	-1.75	0.3411	0.0017	-0.4164	
-0.997472	0.06466	0.19215	-8.33	41.09	-1.68	0.3414	0.0179	-0.4198	
-1.00345	0.071492	0.16714	-8.75	38.71	-2.1	0.3502	0.0122	-0.4213	
-1.01199	0.050874	0.132614	-13.23	37.03	-1.47	0.3562	0.0136	-0.412	
-1.028704	0.058438	0.151768	-3.99	34.44	0.14	0.3622	0.018	-0.4028	
-1.006256	0.049898	0.14823	-9.38	31.85	0.28	0.3605	0.0105	-0.398	
-1.009184	0.05185	0.130174	-7	29.82	0.7	0.3693	0.0031	-0.387	
-1.03395	0.048678	0.1037	-9.31	30.73	-0.07	0.3561	0.016	-0.3826	
-1.05957	0.066124	0.050386	-6.23	26.18	-0.28	0.3739	0.0121	-0.3887	
-1.07299	0.061732	0.079666	-8.75	14.49	1.47	0.371	0.0146	-0.3717	
-1.079334	0.02989	0.088206	2.8	0.35	2.31	0.3786	0.0223	-0.3843	
-1.079456	0.05002	0.108458	4.9	8.4	1.4	0.3798	0.0105	-0.3809	
-1.082994	0.059536	0.107848	1.47	13.3	1.19	0.3798	0.0105	-0.3809	
-1.109712	0.07564	0.072712	-2.66	15.33	1.19	0.3738	0.0074	-0.3778	
-1.088362	0.081984	0.060878	-3.5	13.09	1.89	0.3844	0.0205	-0.3594	
-1.065548	0.058682	0.065148	-3.22	7.21	2.73	0.3874	0.0209	-0.3781	
-1.050908	0.052338	0.061244	-2.66	7.91	2.1	0.38	0.0191	-0.3703	
-1.051152	0.06893	0.052826	0.21	9.03	1.12	0.3888	0.0165	-0.3749	
-1.069452	0.05856	0.036844	-5.46	6.37	0.42	0.3889	0.0236	-0.3657	
-1.075552	0.057218	0.024766	-0.63	0	0.42	0.3904	0.0236	-0.3642	
-1.086044	0.072346	0.022692	4.62	-0.84	0.21	0.3814	0.0177	-0.3702	
-1.070794	0.061732	0.047824	1.47	3.22	-0.14	0.3829	0.0177	-0.3687	
-1.059692	0.06039	0.05124	1.47	3.36	-0.63	0.3947	0.012	-0.3655	
-1.048712	0.063928	0.049288	-0.98	3.29	-1.19	0.3888	0.0149	-0.3702	
-1.042612	0.069784	0.053802	0.77	2.45	-1.75	0.3858	0.0133	-0.3639	
-1.056032	0.077836	0.047946	0.28	-0.07	-1.26	0.3858	0.0133	-0.367	
-1.057496	0.07869	0.053558	4.27	-3.78	-0.77	0.3813	0.0146	-0.3608	
-1.05835	0.076372	0.057462	-0.91	-2.52	-0.56	0.3933	0.0176	-0.3547	
-1.085312	0.070516	0.0366	-6.58	-2.17	-0.77	0.3963	0.0207	-0.3595	
-1.090924	0.068076	0.048312	-3.64	-4.62	-1.61	0.3889	0.0192	-0.3641	
-1.08458	0.07515199	0.067832	-0.49	-8.61	-2.1	0.3887	0.0104	-0.367	
-1.066768	0.060878	0.088206	-3.08	-12.53	-1.82	0.377	0.0203	-0.361	
-1.061156	0.05124	0.07625	-6.58	-17.36	-2.03	0.3844	0.0206	-0.3672	
-1.054934	0.055754	0.075762	-2.38	-18.97	-2.1	0.3814	0.0192	-0.3718	
-1.04554	0.06039	0.100406	2.73	-19.04	-1.75	0.3786	0.0236	-0.3781	
-1.041148	0.048068	0.114558	-3.78	-17.78	-1.89	0.3726	0.0248	-0.3704	
-1.03822	0.038796	0.117242	-2.24	-18.69	-2.1	0.3845	0.024	-0.3875	
-1.044686	0.040382	0.122244	1.47	-19.6	-2.59	0.3814	0.0149	-0.3779	
-1.038464	0.041724	0.102114	1.19	-19.88	-3.22	0.3756	0.0195	-0.3936	
-1.060546	0.056364	0.099308	-2.45	-6.79	-2.73	0.3788	0.0325	-0.3814	
-1.059936	0.047092	0.126758	3.99	-9.31	-1.96	0.3668	0.0294	-0.386	
-1.039684	0.055998	0.156892	6.72	-17.99	-1.96	0.3593	0.0249	-0.3859	
-1.017846	0.070028	0.175192	6.02	-30.94	-2.73	0.3666	0.0193	-0.3935	
-1.004792	0.046726	0.17019	-0.56	-32.83	-3.15	0.3621	0.0133	-0.3918	
-1.00223	0.053802	0.18544	2.94	-31.22	-3.36	0.3531	0.0132	-0.3934	
-1.014918	0.045994	0.184586	-2.52	-31.08	-3.85	0.3458	0.019	-0.3981	
-1.005646	0.049044	0.192028	2.73	-30.45	-3.08	0.3548	0.0194	-0.4075	
-0.990884	0.049776	0.219356	6.3	-30.8	-1.61	0.3564	0.0251	-0.3998	
-0.981124	0.032086	0.228994	1.19	-28.42	-0.91	0.346	0.0253	-0.4216	
-0.974048	0.0305	0.227164	4.27	-29.05	-0.77	0.3475	0.0267	-0.4169	
-0.976976	0.036844	0.270596	11.62	-27.51	0.28	0.3279	0.0117	-0.415	
-0.939034	0.049654	0.276818	7.98	-28.91	0.35	0.3323	0.009099999	-0.4274	
-0.917196	0.06405	0.282674	6.65	-28.42	0.21	0.3297	0.0254	-0.4402	
-0.91622	0.064172	0.299144	7.21	-28.49	0.63	0.3177	0.0222	-0.437	
-0.926102	0.05063	0.30988	4.13	-30.66	0.28	0.3294	0.009099999	-0.4321	
-0.925736	0.047458	0.338428	9.31	-31.43	0.63	0.325	0.012	-0.4321	
-0.913536	0.039528	0.340258	6.3	-29.54	0.56	0.3087	0.0162	-0.4399	
-0.897554	0.045994	0.360998	10.29	-28.7	-0.07	0.3028	0.0148	-0.4492	
-0.8845	0.087352	0.38003	10.5	-27.02	-0.91	0.2999	0.0205	-0.4462	
-0.887672	0.106628	0.401746	4.9	-26.32	-0.77	0.3074	0.0223	-0.4556	
-0.894016	0.085156	0.444324	-3.08	-21.77	0.63	0.2999	0.0177	-0.4493	
-0.884622	0.05246	0.44652	-5.04	-21.84	1.54	0.2907	0.0072	-0.449	
-0.881206	0.035136	0.474946	-2.66	-21.42	1.19	0.3012	0.0092	-0.4646	
-0.864004	0.021594	0.469944	-2.38	-22.47	0.07	0.2923	0.0118	-0.4569	
-0.846558	0.037698	0.477996	4.9	-23.24	-0.21	0.2864	0.0104	-0.4662	
-0.853512	0.05124	0.476898	5.67	-19.46	-0.28	0.2966	0.0045	-0.4536	
-0.873642	0.058926	0.487878	7.77	-16.24	0.07	0.2833	0.0072	-0.4537	
-0.867908	0.049044	0.492636	3.71	-15.26	0.98	0.2894	0.012	-0.4662	
-0.842288	0.046604	0.502762	3.99	-17.01	0.77	0.2716	0.0133	-0.4755	
-0.829234	0.043432	0.486292	-0.77	-17.29	0.28	0.2775	0.0119	-0.4739	
-0.804956	0.043066	0.492392	0.07	-16.87	0.21	0.27	0.0072	-0.4676	
-0.806542	0.029646	0.507642	-1.89	-13.44	-0.14	0.2687	0.0148	-0.4817	
-0.819718	0.02745	0.517646	2.52	-11.2	0.14	0.2684	0.0043	-0.4691	
-0.837774	0.04331	0.523746	3.57	-10.99	1.19	0.2672	0.0161	-0.474	
-0.85522	0.051362	0.526796	1.54	-8.19	1.82	0.2759	0.0059	-0.4676	
-0.841922	0.034038	0.529846	-0.14	-10.78	2.17	0.2698	0.0013	-0.4644	
-0.842288	0.044652	0.530456	1.4	-9.87	1.68	0.2612	0.013	-0.4755	
-0.847046	0.045872	0.527772	0.98	-9.17	1.26	0.2639	0.0014	-0.4768	
-0.840824	0.042212	0.533994	1.47	-8.89	1.4	0.261	0.0058	-0.4784	
-0.834968	0.033306	0.542046	0.98	-7.21	2.24	0.2567	0.0117	-0.4832	
-0.846802	0.020374	0.532042	0.07	-5.39	2.66	0.2611	0.0071	-0.4722	
-0.857294	0.024644	0.521428	0.77	-4.69	3.64	0.2595	0.0025	-0.4644	
-0.857416	0.01952	0.519476	-0.28	-5.18	4.97	0.2566	0.008599999	-0.4754	
-0.83875	0.013664	0.523014	0.07	-5.32	6.16	0.258	0.0015	-0.4876	
-0.831064	0.0061	0.522526	0.77	-3.99	7.63	0.2595	0	-0.483	
-0.848022	-0.01952	0.525576	1.12	-2.03	8.61	0.255	0.0014	-0.4861	
-0.878888	-0.026596	0.52033	3.01	-0.77	10.78	0.2592	-0.0133	-0.4733	
-0.884134	-0.01281	0.5124	4.97	-2.45	13.58	0.2612	0.0118	-0.4879	
-0.857294	-0.01525	0.513132	3.36	-1.54	17.08	0.2507	0.0099	-0.4769	
-0.833138	-0.012078	0.517402	7.42	-2.24	20.58	0.2639	-0.0013	-0.4845	
-0.837896	0.002562	0.510326	8.33	0.91	22.82	0.2636	-0.0131	-0.4765	
-0.843386	0.016226	0.496662	8.75	3.08	24.64	0.2549	-0.0043	-0.486	
-0.84729	0.025376	0.494588	7.84	5.11	26.18	0.2546	-0.0176	-0.4826	
-0.85095	0.022814	0.495564	8.33	4.9	28.63	0.2605	-0.019	-0.4779	
-0.846802	0.04026	0.499102	10.99	4.06	30.59	0.2606	-0.0161	-0.4795	
-0.848022	0.059414	0.490928	12.6	4.41	31.71	0.271	-0.016	-0.4749	
-0.85095	0.07503	0.498248	14.42	6.16	32.76	0.2576	-0.0177	-0.4764	
-0.844484	0.084546	0.49654	14.77	7.42	34.09	0.256	-0.0249	-0.4824	
-0.838994	0.111386	0.47336	18.9	7.63	35.28	0.2511	-0.0443	-0.4696	
-0.85034	0.145912	0.460062	19.53	7.63	36.05	0.2587	-0.0383	-0.4682	
-0.86132	0.158112	0.447008	16.59	10.15	37.24	0.2598	-0.0531	-0.4616	
-0.847534	0.183122	0.449082	20.3	8.82	38.08	0.2599	-0.0514	-0.4694	
-0.873642	0.225334	0.438712	20.65	9.8	37.87	0.264	-0.0675	-0.466	
-0.869006	0.238144	0.435174	17.08	9.38	37.66	0.2521	-0.0677	-0.4691	
-0.861686	0.257542	0.417362	17.29	8.26	37.94	0.2669	-0.0734	-0.4643	
-0.856196	0.261202	0.41419	17.78	7.35	38.64	0.2519	-0.0782	-0.4549	
-0.844972	0.27389	0.405772	20.72	7.07	39.06	0.2532	-0.0853	-0.464	
-0.841434	0.29158	0.391986	23.8	6.16	39.55	0.2486	-0.0941	-0.4685	
-0.8479	0.324398	0.391986	25.69	6.37	39.34	0.2544	-0.1015	-0.4621	
-0.840458	0.343064	0.380152	27.09	4.06	39.76	0.2588	-0.1031	-0.4497	
-0.826062	0.364902	0.382836	27.51	3.15	40.74	0.2662	-0.1073	-0.4543	
-0.833138	0.404064	0.373686	32.34	1.47	41.16	0.263	-0.1148	-0.4463	
-0.81313	0.432002	0.350018	32.13	-0.28	41.79	0.2462	-0.137	-0.4505	
-0.800564	0.444202	0.364536	26.88	0.49	43.05	0.2402	-0.1416	-0.4473	
-0.804224	0.458598	0.35319	31.15	0.21	44.31	0.2491	-0.1415	-0.4442	
-0.807762	0.481778	0.338794	35.14	-2.45	45.22	0.2354	-0.1608	-0.4437	
-0.815448	0.519476	0.333182	34.93	-3.22	45.64	0.2411	-0.1682	-0.4358	
-0.797392	0.541802	0.359168	30.38	-5.95	45.64	0.2425	-0.174	-0.4357	
-0.782752	0.58499	0.359046	39.34	-8.89	45.71	0.2305	-0.1786	-0.4356	
-0.759816	0.610488	0.329644	43.96	-10.15	46.27	0.2214	-0.1919	-0.4415	
-0.771772	0.617564	0.329278	29.96	-5.6	44.8	0.2211	-0.2022	-0.4366	
-0.768966	0.62525	0.340502	32.62	-9.87	41.65	0.2152	-0.1984	-0.4149	
-0.741028	0.650992	0.305122	38.08	-10.64	39.2	0.2105	-0.2114	-0.4271	
-0.730292	0.66856	0.327814	24.29	-14	36.05	0.2121	-0.2099	-0.4287	
-0.71492	0.687714	0.330254	26.32	-10.08	34.23	0.1999	-0.2248	-0.4283	
-0.71858	0.69418	0.33489	16.52	-7.63	31.57	0.2175	-0.232	-0.4173	
-0.717116	0.694302	0.337696	18.9	-9.59	28.98	0.1908	-0.2307	-0.4313	
-0.71248	0.699304	0.334524	16.59	-9.24	25.27	0.1921	-0.2425	-0.4264	
-0.712602	0.714798	0.335866	14.7	-10.15	21.21	0.1938	-0.228	-0.4174	
-0.709308	0.725046	0.33184	14.21	-10.78	16.8	0.1846	-0.2457	-0.4201	
-0.69113	0.743712	0.349164	11.34	-10.78	12.81	0.1831	-0.2457	-0.4247	
-0.67771	0.754204	0.358924	11.9	-10.92	9.73	0.189	-0.2488	-0.4107	
-0.676002	0.765428	0.354532	9.66	-9.8	8.05	0.1652	-0.2492	-0.4138	
-0.686372	0.777384	0.34526	8.54	-8.82	6.02	0.1815	-0.2502	-0.4169	
-0.681248	0.771894	0.341478	4.27	-10.71	4.06	0.1724	-0.2578	-0.412	
-0.680272	0.755424	0.361608	-7.49	-7	2.1	0.1725	-0.2534	-0.4152	
-0.66978	0.751886	0.37576	-4.83	-8.4	-1.12	0.1665	-0.2581	-0.4042	
-0.66063	0.77165	0.361974	-3.99	-8.05	-3.85	0.171	-0.2562	-0.4214	
-0.661972	0.762378	0.381494	-12.18	-8.61	-7.07	0.174	-0.2575	-0.4291	
-0.66002	0.75213	0.37576	-13.51	-6.23	-10.15	0.1802	-0.2443	-0.4216	
-0.651236	0.735294	0.388082	-14.98	-7.28	-13.65	0.1727	-0.2431	-0.4186	
-0.649284	0.734196	0.383934	-14.42	-4.83	-16.94	0.173	-0.2297	-0.4251	
-0.647698	0.723582	0.393694	-19.6	-3.57	-20.44	0.1728	-0.2429	-0.4279	
-0.662948	0.708454	0.387716	-19.74	-2.66	-24.08	0.1655	-0.2341	-0.4327	
-0.65941	0.70699	0.389424	-19.32	-5.11	-27.79	0.1759	-0.237	-0.4265	
-0.66734	0.703818	0.391864	-22.33	-3.78	-31.15	0.1849	-0.2309	-0.4297	
-0.659776	0.685396	0.399794	-25.76	-3.85	-33.25	0.1747	-0.2236	-0.4376	
-0.670634	0.650748	0.41602	-28.63	-2.31	-35.49	0.1837	-0.219	-0.4377	
-0.676612	0.629032	0.412604	-24.71	-1.47	-37.66	0.1897	-0.2144	-0.444	
-0.694668	0.62098	0.42395	-28.21	-0.91	-40.04	0.1914	-0.2027	-0.4428	
-0.698572	0.605486	0.429318	-30.8	1.4	-42.14	0.2004	-0.201	-0.4444	
-0.718336	0.59353	0.432612	-31.22	2.94	-43.54	0.1915	-0.1981	-0.4491	
-0.715286	0.56547	0.442616	-33.18	1.89	-44.45	0.1875	-0.1763	-0.4495	
-0.727242	0.562054	0.439566	-30.94	3.57	-45.43	0.2009	-0.1745	-0.4511	
-0.746518	0.556442	0.416386	-30.73	3.29	-45.99	0.2025	-0.1727	-0.4652	
-0.753716	0.511058	0.417362	-46.69	4.55	-47.53	0.213	-0.1654	-0.456	
-0.765916	0.47153	0.45079	-52.99	10.64	-49.56	0.2162	-0.1549	-0.4625	
-0.775432	0.434198	0.451034	-43.68	3.85	-51.45	0.2134	-0.1447	-0.4627	
-0.778604	0.415288	0.442616	-35.28	5.74	-53.34	0.236	-0.1296	-0.463	
-0.765916	0.408822	0.451156	-36.19	2.8	-54.6	0.2199	-0.1181	-0.471	
-0.778116	0.390522	0.459452	-40.81	2.8	-55.23	0.2306	-0.1062	-0.4697	
-0.793976	0.368684	0.464942	-38.71	8.4	-54.81	0.2229	-0.1194	-0.4741	
-0.803736	0.343796	0.465796	-42.56	8.82	-54.95	0.2278	-0.0959	-0.4762	
-0.800564	0.3172	0.481168	-40.74	7.84	-55.93	0.2356	-0.07669999	-0.475	
-0.805932	0.27023	0.449936	-37.03	9.52	-56.14	0.2401	-0.07669999	-0.4704	
-0.79422	0.22082	0.474824	-43.96	4.13	-57.33	0.2449	-0.0604	-0.477	
-0.79056	0.173972	0.48434	-40.11	5.18	-59.22	0.245	-0.0531	-0.474	
-0.80215	0.158234	0.483364	-31.29	6.37	-60.69	0.2555	-0.0498	-0.4803	
-0.821182	0.14701	0.46787	-30.45	7.07	-59.99	0.25	-0.028	-0.4808	
-0.833138	0.126514	0.466406	-36.54	6.93	-58.87	0.2502	-0.0178	-0.4763	
-0.83631	0.098088	0.470554	-38.15	4.97	-57.54	0.256	-0.0263	-0.4855	
-0.823256	0.07515199	0.478484	-36.4	3.29	-57.12	0.2533	-0.0119	-0.4765	
-0.815936	0.05856	0.486048	-26.53	4.2	-57.89	0.2594	-0.0001	-0.4752	
-0.824476	0.038186	0.46116	-29.47	7.28	-58.94	0.2657	0.0146	-0.474	
-0.823988	0.009516	0.452742	-32.41	9.24	-59.85	0.2673	0.0207	-0.485	
-0.84668	-0.020984	0.424682	-33.53	5.04	-60.34	0.2631	0.0351	-0.4759	
-0.843752	-0.051362	0.453962	-32.62	5.67	-60.9	0.2604	0.0482	-0.4747	
-0.847168	-0.069052	0.422852	-26.6	5.53	-60.06	0.2635	0.0557	-0.4826	
-0.858636	-0.099796	0.427366	-29.96	5.67	-59.15	0.2549	0.0685	-0.4704	
-0.861686	-0.11651	0.413702	-30.17	6.09	-58.24	0.2594	0.0744	-0.4721	
-0.84607	-0.12261	0.40931	-31.64	3.92	-57.96	0.2701	0.0893	-0.4725	
-0.853756	-0.163236	0.400648	-38.22	6.65	-57.26	0.2584	0.0949	-0.4695	
-0.854	-0.230336	0.41358	-38.57	4.69	-56.77	0.2526	0.1035	-0.4681	
-0.857782	-0.271816	0.416508	-35.21	3.08	-56.56	0.2588	0.1183	-0.4684	
-0.864736	-0.307928	0.409676	-35.07	4.34	-56.28	0.2544	0.1182	-0.4668	
-0.850096	-0.312808	0.39223	-31.5	3.15	-55.65	0.2545	0.1269	-0.4655	
-0.840336	-0.30256	0.372466	-31.78	5.74	-54.88	0.249	0.1445	-0.4721	
-0.853146	-0.330376	0.377956	-35.77	7.49	-53.41	0.2548	0.143	-0.4643	
-0.844606	-0.366366	0.373808	-39.27	4.69	-50.96	0.2463	0.1605	-0.4677	
-0.83692	-0.40077	0.35624	-36.54	-0.56	-48.51	0.2434	0.1645	-0.4523	
-0.842898	-0.420046	0.358558	-33.74	1.68	-47.95	0.245	0.1706	-0.4633	
-0.84241	-0.424926	0.346968	-33.39	2.59	-48.16	0.2377	0.1775	-0.4494	
-0.824598	-0.42883	0.34526	-34.23	0.35	-48.16	0.2438	0.1864	-0.4465	
-0.80215	-0.452742	0.364902	-35.77	-2.8	-47.39	0.2367	0.2011	-0.4577	
-0.800564	-0.493002	0.36234	-33.88	-8.05	-44.87	0.2308	0.2038	-0.4547	
-0.79544	-0.511912	0.356728	-30.59	-4.62	-42.42	0.2326	0.2184	-0.4503	
-0.776896	-0.506666	0.353434	-27.23	-2.66	-40.53	0.2189	0.205	-0.45	
-0.785924	-0.511546	0.337574	-30.17	-2.17	-37.94	0.2148	0.2224	-0.4473	
-0.795074	-0.554124	0.376248	-28.21	-4.06	-35.77	0.227	0.2373	-0.4491	
-0.797514	-0.594262	0.366854	-26.18	-7.07	-33.32	0.2194	0.2325	-0.4366	
-0.780434	-0.614636	0.36295	-21	-10.71	-31.5	0.2078	0.2413	-0.4476	
-0.760426	-0.613416	0.371124	-17.78	-9.52	-30.45	0.199	0.25	-0.4494	
-0.757376	-0.619516	0.36539	-16.66	-9.31	-28.77	0.2093	0.2428	-0.4492	
-0.729804	-0.612806	0.359778	-14.7	-7.28	-25.97	0.2007	0.2587	-0.4449	
-0.745542	-0.62952	0.3782	-13.44	-5.04	-21.63	0.1946	0.2542	-0.4479	
-0.746762	-0.641964	0.371002	-10.57	-6.72	-17.15	0.196	0.2498	-0.4447	
-0.737856	-0.647698	0.369904	-7.7	-4.34	-13.37	0.1874	0.2629	-0.4465	
-0.732244	-0.66307	0.359412	-7.91	-5.04	-9.52	0.1919	0.2644	-0.4434	
-0.729438	-0.65697	0.36966	0.98	-7.84	-7.49	0.1846	0.2715	-0.442	
-0.726998	-0.659044	0.37515	-0.84	-3.92	-4.76	0.1814	0.2612	-0.4449	
-0.71797	-0.656726	0.377834	2.52	-4.69	-1.54	0.1827	0.2523	-0.4354	
-0.712968	-0.655262	0.382592	5.95	-4.76	1.61	0.1876	0.2731	-0.4467	
-0.710284	-0.654164	0.382958	6.44	-3.36	4.06	0.1918	0.2643	-0.4388	
-0.716262	-0.644892	0.382348	7.91	-3.43	5.88	0.1903	0.2587	-0.4557	
-0.711138	-0.64477	0.399184	10.01	-4.62	8.26	0.1886	0.2512	-0.4478	
-0.70638	-0.656482	0.407968	10.5	-3.92	11.55	0.1963	0.2603	-0.4573	
-0.71614	-0.661484	0.40504	13.09	-2.73	15.19	0.1872	0.2529	-0.4587	
-0.714188	-0.64355	0.40626	16.52	-1.47	18.48	0.1902	0.2528	-0.4541	
-0.719068	-0.63013	0.40321	16.94	-0.49	21.63	0.1782	0.2511	-0.4556	
-0.721142	-0.617564	0.40809	19.04	-0.56	25.06	0.1989	0.2427	-0.4523	
-0.720288	-0.601948	0.40626	19.6	-0.42	28.63	0.2049	0.2443	-0.4539	
-0.728096	-0.585722	0.4087	22.19	0.14	32.55	0.2002	0.2326	-0.4568	
-0.733952	-0.581696	0.408822	21.91	0.56	36.19	0.1958	0.2353	-0.4506	
-0.745298	-0.581086	0.415776	24.85	0.98	39.76	0.206	0.2284	-0.4644	
-0.758718	-0.569008	0.41541	27.51	0.98	43.26	0.2046	0.2298	-0.4614	
-0.761402	-0.536922	0.413702	29.96	0.42	46.2	0.2191	0.214	-0.4611	
-0.76311	-0.51362	0.420412	32.13	0.56	49.14	0.2189	0.2051	-0.4547	
-0.769088	-0.499956	0.42273	32.62	2.1	52.78	0.207	0.2006	-0.4638	
-0.78995	-0.476166	0.41236	35	2.94	56.7	0.2187	0.195	-0.4653	
-0.787266	-0.44042	0.437492	41.16	1.96	59.43	0.22	0.185	-0.4729	
-0.766648	-0.415532	0.434198	38.71	1.19	61.67	0.2229	0.1791	-0.4696	
-0.774822	-0.391132	0.42395	41.65	2.59	63.35	0.2316	0.1705	-0.471	
-0.796782	-0.366	0.400038	39.97	5.25	64.75	0.2359	0.1603	-0.4708	
-0.82472	-0.317444	0.401868	40.88	7.21	66.15	0.2385	0.143	-0.4798	
-0.836798	-0.271938	0.417728	43.89	6.44	68.74	0.2324	0.1354	-0.4703	
-0.833504	-0.241316	0.428342	41.37	4.41	69.93	0.2515	0.1229	-0.4856	
-0.8418	-0.231922	0.42395	41.65	5.18	69.72	0.2426	0.1226	-0.4809	
-0.835212	-0.208742	0.42822	42.98	3.64	69.44	0.2541	0.1067	-0.4775	
-0.841434	-0.16836	0.437614	42.84	4.69	69.51	0.2598	0.0923	-0.4849	
-0.819962	-0.125538	0.429684	41.09	5.81	68.95	0.2595	0.0761	-0.4799	
-0.817766	-0.090402	0.434808	39.34	7.21	67.69	0.2548	0.0628	-0.4781	
-0.850706	-0.078568	0.426146	37.8	10.71	67.2	0.2649	0.0498	-0.4778	
-0.864614	-0.051728	0.432978	40.25	10.5	66.64	0.2751	0.0409	-0.4652	
-0.866444	-0.0183	0.412726	38.57	10.01	66.36	0.2674	0.0278	-0.4742	
-0.850828	0.038674	0.410774	40.46	9.24	66.71	0.2659	0.0248	-0.4742	
-0.838506	0.062952	0.415898	37.38	8.12	66.15	0.2701	0.0147	-0.4771	
-0.838262	0.085522	0.409066	39.2	8.33	65.52	0.2638	-0.0016	-0.4658	
-0.857782	0.1098	0.41663	42.98	8.05	64.89	0.2755	-0.0132	-0.4641	
-0.846558	0.132248	0.406626	44.66	6.79	63.63	0.265	-0.0179	-0.4593	
-0.831186	0.176778	0.382226	49.28	4.83	61.18	0.2674	-0.0441	-0.4618	
-0.828014	0.219356	0.377834	44.66	13.44	58.1	0.2659	-0.047	-0.4649	
-0.827648	0.260226	0.376004	40.11	7.21	56.35	0.267	-0.0648	-0.4552	
-0.838506	0.295484	0.366122	41.44	11.97	55.58	0.2743	-0.0735	-0.4504	
-0.83509	0.311466	0.360998	43.47	9.66	55.23	0.2756	-0.0823	-0.4486	
-0.80459	0.33062	0.358924	46.83	5.53	54.6	0.2709	-0.094	-0.4515	
-0.79483	0.363316	0.355386	47.25	9.38	53.27	0.2603	-0.1058	-0.4574	
-0.826672	0.445788	0.36539	51.24	5.53	51.38	0.2616	-0.1103	-0.4511	
-0.865834	0.508984	0.347456	43.54	6.16	49.84	0.2671	-0.1339	-0.4413	
-0.853268	0.50325	0.328058	35.42	3.5	50.96	0.2612	-0.1298	-0.432	
-0.834968	0.486536	0.324032	31.5	4.41	51.38	0.2549	-0.1476	-0.4254	
-0.826672	0.490684	0.314394	31.57	1.75	49.63	0.2548	-0.1532	-0.4362	
-0.830332	0.5124	0.307196	32.48	-1.47	46.48	0.2518	-0.1551	-0.4206	
-0.824354	0.530822	0.30378	31.92	-5.32	44.8	0.256	-0.1651	-0.4282	
-0.81008	0.515572	0.29951	27.09	-5.39	44.31	0.2499	-0.1741	-0.4249	
-0.790316	0.515084	0.310368	30.03	-10.15	42.63	0.2483	-0.1784	-0.4294	
-0.781898	0.553514	0.319762	32.76	-9.45	41.51	0.2392	-0.189	-0.4214	
-0.782996	0.587552	0.31659	30.87	-10.5	40.6	0.236	-0.198	-0.4134	
-0.777384	0.610244	0.309148	28.91	-10.22	40.04	0.2332	-0.192	-0.4244	
-0.76494	0.617564	0.311954	25.34	-11.41	39.62	0.2239	-0.2085	-0.4147	
-0.763476	0.62098	0.31659	23.31	-9.17	38.78	0.2313	-0.2111	-0.4194	
-0.766892	0.639036	0.307684	26.18	-12.39	37.17	0.2089	-0.2177	-0.4068	
-0.736514	0.662216	0.318664	23.94	-13.37	35.14	0.2175	-0.232	-0.4173	
-0.719922	0.669414	0.32147	25.83	-13.44	34.72	0.2102	-0.2276	-0.4205	
-0.70516	0.692472	0.3233	26.81	-14.77	33.11	0.1875	-0.2445	-0.4046	
-0.702476	0.71065	0.329644	21.21	-13.72	30.45	0.1876	-0.2429	-0.4139	
-0.696498	0.732976	0.329766	20.58	-10.5	27.58	0.1934	-0.2488	-0.4045	
-0.696742	0.742858	0.316956	14.28	-10.22	23.45	0.1845	-0.2491	-0.3983	
-0.703208	0.753106	0.315126	13.44	-9.45	19.67	0.1799	-0.2548	-0.4106	
-0.682102	0.7503	0.314272	7.28	-9.8	16.87	0.1842	-0.265	-0.4088	
-0.674172	0.75823	0.33611	6.02	-8.75	14.14	0.1782	-0.2682	-0.4025	
-0.683932	0.77836	0.329156	6.16	-8.47	11.62	0.181	-0.2739	-0.4086	
-0.687592	0.776164	0.327692	3.5	-8.61	9.24	0.1754	-0.2595	-0.4011	
-0.671	0.769454	0.341112	-1.75	-7.56	5.74	0.181	-0.2754	-0.4024	
-0.673806	0.780068	0.336598	-0.07	-8.82	1.75	0.1723	-0.2636	-0.415	
-0.655994	0.763842	0.34526	-4.69	-6.16	-1.89	0.1722	-0.267	-0.3932	
-0.642086	0.751886	0.35258	-5.53	-5.74	-4.9	0.1766	-0.2709	-0.4164	
-0.655872	0.740418	0.357704	-6.86	-4.2	-7.42	0.1797	-0.2651	-0.4088	
-0.664168	0.77531	0.36173	-5.81	-3.92	-10.5	0.162	-0.2595	-0.4104	
-0.682224	0.803858	0.35624	-8.05	-3.92	-14.07	0.165	-0.2595	-0.4089	
-0.676978	0.79056	0.35929	-13.93	-2.8	-16.8	0.174	-0.2548	-0.4168	
-0.66246	0.742614	0.358314	-21.07	1.75	-19.95	0.1711	-0.2533	-0.4214	
-0.64965	0.708454	0.367586	-19.6	0.91	-23.73	0.171	-0.2578	-0.4167	
-0.679662	0.719312	0.349286	-16.45	3.5	-28.35	0.1801	-0.2487	-0.42	
-0.67771	0.709918	0.354532	-20.3	2.03	-32.2	0.1848	-0.2355	-0.4187	
-0.67893	0.69601	0.349774	-20.72	2.52	-35.35	0.1951	-0.2397	-0.4187	
-0.693692	0.689666	0.348432	-23.17	2.94	-37.94	0.1924	-0.225	-0.4252	
-0.695156	0.669414	0.362218	-28.35	3.36	-40.04	0.1877	-0.2411	-0.4311	
-0.704916	0.665388	0.365634	-28.98	5.6	-41.72	0.1939	-0.2249	-0.4268	
-0.704184	0.657946	0.369904	-30.94	4.06	-43.05	0.2091	-0.2112	-0.4364	
-0.729804	0.624396	0.37088	-34.86	5.53	-43.96	0.2091	-0.2099	-0.4318	
-0.735538	0.60146	0.380884	-35.77	5.46	-45.57	0.2155	-0.1892	-0.4338	
-0.751276	0.580598	0.371978	-38.43	7.7	-48.23	0.2168	-0.195	-0.4368	
-0.75518	0.542534	0.364658	-42.42	6.79	-50.12	0.2202	-0.1744	-0.4372	
-0.760182	0.515206	0.373808	-43.82	6.16	-50.54	0.2202	-0.1758	-0.4403	
-0.771284	0.489708	0.386252	-46.2	8.75	-51.52	0.2278	-0.1681	-0.4498	
-0.771406	0.443104	0.403576	-44.87	8.19	-53.2	0.2413	-0.1579	-0.4361	
-0.790438	0.425292	0.385398	-39.97	12.6	-54.81	0.2402	-0.1415	-0.4519	
-0.810446	0.404064	0.388204	-44.66	10.29	-56.49	0.2404	-0.1327	-0.4506	
-0.820816	0.389546	0.391742	-41.44	8.33	-58.17	0.2512	-0.1133	-0.4572	
-0.817644	0.380152	0.383934	-39.9	7.14	-59.43	0.2512	-0.1105	-0.4526	
-0.847046	0.34587	0.379542	-45.08	7.42	-59.5	0.2543	-0.1046	-0.4527	
-0.850706	0.318176	0.400038	-41.58	7.07	-59.22	0.2696	-0.0866	-0.4563	
-0.864736	0.263764	0.404674	-43.54	8.96	-60.13	0.2592	-0.084	-0.4548	
-0.843508	0.230824	0.409188	-32.9	3.78	-61.11	0.2669	-0.0706	-0.4551	
-0.82167	0.200934	0.412482	-39.9	0.14	-61.32	0.264	-0.0648	-0.4567	
-0.840946	0.18788	0.41602	-31.29	5.6	-60.83	0.2672	-0.0556	-0.474	
-0.868762	0.158356	0.404674	-37.17	3.64	-59.57	0.2735	-0.0396	-0.4619	
-0.878522	0.13847	0.401014	-35.63	2.94	-57.61	0.2779	-0.0394	-0.4651	
-0.862174	0.111996	0.419314	-34.93	-2.03	-56.14	0.2754	-0.0189	-0.4686	
-0.83509	0.072346	0.418948	-33.18	-4.76	-55.09	0.2726	-0.0116	-0.4734	
-0.845948	0.049166	0.420412	-33.81	-3.92	-55.16	0.2786	-0.0056	-0.472	
-0.862052	0.050508	0.419924	-33.88	-1.54	-56.49	0.2638	-0.0045	-0.4704	
-0.85339	0.02928	0.420412	-42.07	-0.07	-57.4	0.2776	0.0163	-0.474	
-0.864126	-0.01769	0.40992	-41.44	3.22	-56.91	0.2732	0.0177	-0.4787	
-0.875472	-0.07808	0.410164	-40.46	3.85	-55.79	0.287	0.0415	-0.4808	
-0.856928	-0.10004	0.405284	-34.3	0.63	-54.39	0.2722	0.0454	-0.47	
-0.844118	-0.113094	0.403088	-34.72	-0.07	-53.27	0.2768	0.0514	-0.4763	
-0.850584	-0.133224	0.398452	-36.96	3.64	-52.22	0.2743	0.0748	-0.4737	
-0.87352	-0.155916	0.399306	-35.49	3.36	-52.01	0.2744	0.08199999	-0.4677	
-0.853634	-0.171044	0.388448	-37.8	2.03	-52.92	0.2731	0.0894	-0.474	
-0.851194	-0.208498	0.40626	-39.55	3.22	-53.69	0.2703	0.098	-0.4664	
-0.866688	-0.24583	0.389912	-42.21	3.92	-53.13	0.2658	0.09779999	-0.4618	
-0.86376	-0.258396	0.370148	-36.82	-1.54	-53.27	0.2692	0.1184	-0.4653	
-0.849974	-0.27328	0.374418	-37.1	-2.38	-53.62	0.2647	0.1139	-0.4621	
-0.833992	-0.285846	0.358314	-41.79	2.8	-53.83	0.2769	0.1301	-0.4563	
-0.837042	-0.326838	0.384422	-40.18	2.1	-53.83	0.2608	0.1445	-0.4581	
-0.889258	-0.381494	0.364658	-42	3.29	-52.29	0.2461	0.1499	-0.4535	
-0.874618	-0.400404	0.34709	-35.35	-4.27	-51.31	0.2568	0.165	-0.4647	
-0.849852	-0.402478	0.343064	-37.8	-1.47	-50.19	0.2568	0.1692	-0.4524	
-0.83021	-0.406626	0.345016	-34.72	-3.64	-48.16	0.2571	0.1809	-0.4527	
-0.812032	-0.46238	0.365634	-38.57	-5.18	-46.27	0.2421	0.1761	-0.4479	
-0.843142	-0.517768	0.348798	-35.56	-3.22	-45.43	0.2456	0.2028	-0.4609	
-0.851682	-0.52887	0.330498	-30.38	-3.57	-45.43	0.2428	0.2084	-0.4532	
-0.836432	-0.512278	0.330376	-24.71	-2.8	-44.73	0.234	0.2183	-0.441	
-0.80947	-0.501542	0.317444	-25.62	-4.55	-42.7	0.2358	0.2302	-0.4475	
-0.800808	-0.513376	0.325252	-24.99	-9.03	-39.76	0.2165	0.2311	-0.4428	
-0.781166	-0.530212	0.33489	-24.15	-12.04	-36.4	0.2237	0.2239	-0.4411	
-0.738832	-0.52826	0.348188	-20.02	-12.95	-33.67	0.2254	0.2316	-0.4552	
-0.740784	-0.52948	0.343552	-19.25	-9.73	-31.22	0.2152	0.2429	-0.4461	
-0.763842	-0.539484	0.34953	-17.92	-4.69	-29.26	0.2107	0.2384	-0.4429	
-0.765062	-0.557174	0.351726	-22.12	0.21	-27.02	0.2124	0.2528	-0.4339	
-0.760304	-0.596214	0.361608	-19.6	-9.94	-24.85	0.2034	0.2455	-0.44	
-0.771162	-0.628788	0.34282	-17.92	-8.89	-22.19	0.2065	0.2543	-0.437	
-0.773846	-0.643428	0.35746	-12.88	-9.52	-20.09	0.214	0.2575	-0.4433	
-0.759572	-0.654286	0.351604	-13.09	-8.12	-18.2	0.189	0.2686	-0.4373	
-0.739198	-0.64416	0.354044	-8.96	-8.61	-16.66	0.1918	0.2612	-0.4325	
-0.746518	-0.638548	0.360022	-6.79	-7.35	-14.35	0.1963	0.2642	-0.431	
-0.740174	-0.648308	0.376736	-3.5	-9.03	-11.69	0.1977	0.2615	-0.4403	
-0.740662	-0.66185	0.369782	-3.78	-5.18	-8.12	0.1844	0.2654	-0.4326	
-0.727974	-0.665876	0.355508	-2.8	-6.37	-4.76	0.1993	0.2657	-0.4326	
-0.731756	-0.660264	0.364902	0	-3.71	-1.54	0.1829	0.2611	-0.4371	
-0.731268	-0.659776	0.368196	1.4	-5.11	1.26	0.18	0.2683	-0.4326	
-0.727852	-0.667462	0.37759	6.37	-4.55	4.48	0.1845	0.2701	-0.4435	
-0.730658	-0.686982	0.377956	8.05	-4.06	8.19	0.1844	0.2656	-0.4388	
-0.720288	-0.683322	0.381982	12.11	-4.2	11.97	0.1829	0.2613	-0.4449	
-0.718092	-0.66246	0.39162	16.38	-4.27	15.47	0.1948	0.2616	-0.448	
-0.718946	-0.65697	0.378932	17.36	-3.92	18.55	0.1887	0.2555	-0.4448	
-0.730292	-0.65331	0.392108	21.7	-2.1	22.05	0.1915	0.2453	-0.443	
-0.72529	-0.643916	0.405772	26.88	-2.52	26.53	0.1916	0.2513	-0.4509	
-0.739564	-0.62586	0.397598	27.79	-0.98	31.36	0.2076	0.2342	-0.4553	
-0.735416	-0.60756	0.402844	29.33	-0.56	35.35	0.2021	0.2518	-0.4665	
-0.727486	-0.58133	0.403088	30.87	0.35	38.85	0.2018	0.2384	-0.4522	
-0.7442	-0.557174	0.401502	30.1	2.1	41.79	0.209	0.2283	-0.4567	
-0.75335	-0.53375	0.402234	30.31	1.82	45.78	0.2072	0.2151	-0.4548	
-0.762012	-0.519598	0.401502	30.52	1.19	49.91	0.2042	0.2108	-0.461	
-0.755546	-0.505812	0.420534	31.85	0.28	53.06	0.225	0.2096	-0.4563	
-0.745664	-0.48068	0.418948	30.24	1.19	55.09	0.2188	0.1993	-0.4607	
-0.747494	-0.441884	0.421022	30.1	2.1	56.98	0.2262	0.1968	-0.4731	
-0.780556	-0.41114	0.414068	29.19	3.57	60.41	0.2335	0.1881	-0.4714	
-0.801418	-0.397598	0.401258	27.37	2.94	63.7	0.2346	0.1721	-0.4726	
-0.805932	-0.389424	0.418094	31.43	1.05	65.17	0.2273	0.1764	-0.4742	
-0.805444	-0.397232	0.426756	28.84	1.05	66.01	0.2508	0.1635	-0.4678	
-0.812154	-0.381006	0.431636	36.19	1.26	67.2	0.2371	0.1473	-0.4752	
-0.809104	-0.327082	0.424438	40.11	1.05	67.48	0.2521	0.1547	-0.4661	
-0.813008	-0.26352	0.406748	43.19	2.1	66.85	0.2517	0.1314	-0.4733	
-0.825452	-0.232776	0.41419	40.67	4.76	67.83	0.2589	0.1229	-0.4794	
-0.843264	-0.205814	0.418216	39.41	7.42	70	0.2557	0.1109	-0.4698	
-0.858636	-0.181536	0.418704	42.42	6.16	72.52	0.2556	0.1037	-0.4759	
-0.840946	-0.124318	0.418338	45.08	0.98	72.03	0.2584	0.095	-0.4757	
-0.83875	-0.094306	0.416386	39.41	-0.07	69.16	0.264	0.07889999	-0.4722	
-0.84607	-0.078934	0.426268	41.79	1.75	67.55	0.2786	0.0677	-0.4798	
-0.856806	-0.04758	0.426024	45.22	5.18	65.8	0.2591	0.0555	-0.4748	
-0.870836	0.02196	0.421876	43.75	6.79	63.7	0.2603	0.0424	-0.4808	
-0.886574	0.054046	0.418826	36.19	7.91	63.14	0.2705	0.0308	-0.4774	
-0.856684	0.064294	0.426634	34.37	3.15	63.98	0.2658	0.022	-0.4803	
-0.818498	0.074908	0.445422	35.42	1.05	63.84	0.2804	0.0103	-0.4646	
-0.822524	0.113338	0.429684	40.81	3.36	62.16	0.2686	0.0116	-0.4677	
-0.83692	0.156404	0.415776	41.02	6.02	59.92	0.2698	-0.003	-0.4674	
-0.842654	0.172996	0.407968	38.43	7.28	59.22	0.2608	-0.0045	-0.4704	
-0.81191	0.18971	0.415532	39.9	4.34	58.31	0.2782	-0.0291	-0.4699	
-0.819108	0.270474	0.416996	47.67	11.13	56.42	0.2675	-0.0437	-0.482	
-0.87047	0.339404	0.382104	38.92	8.05	53.97	0.2774	-0.0631	-0.4537	
-0.851438	0.341356	0.372588	29.47	7.7	53.34	0.264	-0.0692	-0.4535	
-0.808128	0.31842	0.380152	28.42	5.53	51.94	0.2697	-0.0807	-0.4595	
-0.786168	0.33245	0.412482	32.69	2.38	49.14	0.2666	-0.0852	-0.4563	
-0.812398	0.396988	0.398208	37.8	1.12	46.48	0.2661	-0.1074	-0.4481	
-0.84058	0.444568	0.390278	33.18	1.26	45.92	0.2677	-0.1072	-0.4558	
-0.84058	0.463234	0.364658	26.95	2.24	47.39	0.2557	-0.1089	-0.4558	
-0.813252	0.428098	0.376736	20.86	-2.03	47.6	0.2644	-0.1177	-0.4447	
-0.798368	0.418582	0.371856	26.81	0.35	46.69	0.2658	-0.1222	-0.44	
-0.812764	0.444812	0.362706	32.55	-2.24	44.38	0.2567	-0.1354	-0.4459	
-0.813496	0.485072	0.34709	33.81	-3.71	41.86	0.2476	-0.1445	-0.441	
-0.791414	0.500932	0.33977	30.24	-6.44	41.02	0.2371	-0.1462	-0.441	
-0.7869	0.488488	0.359534	28.28	-6.58	41.02	0.2458	-0.1577	-0.4423	
-0.801296	0.518378	0.352824	32.69	-5.81	39.41	0.2562	-0.1605	-0.4391	
-0.799954	0.55693	0.346846	33.67	-8.82	38.85	0.2366	-0.1712	-0.4327	
-0.78141	0.576084	0.33306	32.41	-9.94	39.41	0.235	-0.18	-0.4371	
-0.762256	0.578036	0.335622	28.91	-9.52	39.97	0.2378	-0.1874	-0.4292	
-0.76006	0.583282	0.355142	28.84	-8.26	39.48	0.2171	-0.1846	-0.4432	
-0.767258	0.615856	0.35258	31.43	-9.87	37.52	0.2257	-0.198	-0.4243	
-0.758108	0.644526	0.337818	29.47	-10.29	35.35	0.2151	-0.2056	-0.4194	
-0.735538	0.65636	0.336598	30.94	-14.07	33.81	0.209	-0.2145	-0.4192	
-0.740296	0.669292	0.324764	27.3	-10.57	33.39	0.2045	-0.2175	-0.4223	
-0.736636	0.654408	0.341478	18.62	-10.71	31.57	0.1985	-0.219	-0.4238	
-0.731878	0.691374	0.333182	24.78	-12.6	28.98	0.1997	-0.2307	-0.4235	
-0.721142	0.715286	0.357704	20.79	-13.3	26.88	0.1968	-0.2308	-0.4204	
-0.700646	0.74542	0.330132	24.92	-15.61	25.55	0.1965	-0.244	-0.4201	
-0.69357	0.717604	0.33916	12.39	-14.14	23.59	0.1862	-0.2387	-0.4063	
-0.68625	0.729926	0.345382	16.24	-14.07	20.58	0.186	-0.2488	-0.4138	
-0.685396	0.739686	0.340258	11.69	-14.35	17.29	0.1786	-0.2447	-0.4061	
-0.672586	0.734928	0.357704	7.35	-11.76	14.84	0.1801	-0.2458	-0.4232	
-0.66612	0.731268	0.367708	5.95	-9.24	11.76	0.1607	-0.2492	-0.4184	
-0.664778	0.728706	0.370392	7.56	-8.47	8.19	0.1786	-0.2502	-0.4231	
-0.6588	0.73322	0.37149	7.63	-6.23	4.2	0.1726	-0.2491	-0.4091	
-0.657214	0.746884	0.365756	6.79	-5.18	0.35	0.1814	-0.2547	-0.4152	
-0.658922	0.764574	0.365024	3.78	-3.85	-3.15	0.1711	-0.249	-0.4153	
-0.661972	0.772382	0.364658	-0.63	-2.94	-6.3	0.1723	-0.2622	-0.4119	
-0.664534	0.767136	0.360754	-4.13	-1.68	-9.17	0.1695	-0.2578	-0.4151	
-0.68198	0.791536	0.365512	-5.46	-1.61	-12.18	0.1754	-0.2564	-0.4074	
-0.7076	0.80154	0.356484	-8.75	-4.48	-16.03	0.168	-0.2592	-0.4198	
-0.684054	0.774212	0.366854	-17.5	-4.27	-20.37	0.1697	-0.2489	-0.4215	
-0.671854	0.758962	0.372954	-20.44	-2.03	-24.08	0.1728	-0.2442	-0.4341	
-0.675514	0.745542	0.371368	-24.78	0.21	-27.37	0.1802	-0.2412	-0.4326	
-0.680638	0.732488	0.363804	-25.2	-1.47	-31.08	0.1804	-0.2325	-0.4281	
-0.674538	0.711626	0.377224	-29.26	-0.91	-34.37	0.1894	-0.2278	-0.4313	
-0.664534	0.683932	0.387472	-32.34	-0.63	-37.17	0.1881	-0.2205	-0.4315	
-0.665632	0.664046	0.391986	-34.02	0.84	-40.25	0.1941	-0.2159	-0.4378	
-0.674416	0.63928	0.398452	-35.21	2.52	-42.77	0.1942	-0.2129	-0.441	
-0.680272	0.618784	0.400282	-35.21	3.92	-44.66	0.1912	-0.2116	-0.4379	
-0.69845	0.59719	0.407846	-37.52	5.53	-46.13	0.1916	-0.194	-0.4383	
-0.695766	0.583282	0.407114	-35.63	4.34	-47.74	0.2034	-0.198	-0.446	
-0.715286	0.5673	0.393328	-38.08	7.49	-49.56	0.2141	-0.1816	-0.4479	
-0.739686	0.526796	0.402966	-42.28	11.27	-51.03	0.2084	-0.1729	-0.4512	
-0.745054	0.5002	0.398696	-38.29	5.88	-52.29	0.2101	-0.164	-0.4545	
-0.76433	0.49227	0.39589	-37.38	7.7	-53.83	0.2237	-0.1504	-0.4641	
-0.785558	0.46665	0.401502	-41.3	8.26	-54.67	0.231	-0.1563	-0.4531	
-0.793122	0.428464	0.413214	-42.56	6.09	-55.65	0.2328	-0.1415	-0.4597	
-0.782874	0.389912	0.427244	-38.78	4.41	-56.07	0.2346	-0.1268	-0.4615	
-0.792756	0.374418	0.425658	-34.09	8.05	-57.19	0.2348	-0.118	-0.4586	
-0.80337	0.364658	0.426268	-34.58	11.13	-58.59	0.2439	-0.1059	-0.4713	
-0.805932	0.3355	0.4331	-35.35	9.87	-59.99	0.238	-0.1047	-0.462	
-0.824232	0.301584	0.420412	-37.1	10.15	-60.41	0.2473	-0.087	-0.4609	
-0.841434	0.253882	0.42456	-37.03	3.92	-59.92	0.2608	-0.0808	-0.4641	
-0.846314	0.231068	0.434686	-35.21	3.78	-59.64	0.2535	-0.0735	-0.4689	
-0.850828	0.214842	0.444324	-31.57	-1.61	-60.83	0.2554	-0.0516	-0.4663	
-0.836066	0.196908	0.446154	-31.15	-2.8	-60.97	0.2527	-0.0412	-0.4774	
-0.843264	0.151646	0.449936	-31.36	-0.7	-59.57	0.2527	-0.0383	-0.4744	
-0.834846	0.132126	0.451644	-32.76	-3.57	-57.26	0.2783	-0.0246	-0.4747	
-0.836432	0.113948	0.455426	-34.51	-0.63	-56.63	0.2577	-0.0131	-0.4827	
-0.83204	0.078202	0.445666	-35.84	-1.89	-56	0.2565	0.0014	-0.483	
-0.839238	0.027572	0.436394	-37.03	-0.56	-56.42	0.2594	-0.0015	-0.4752	
-0.855708	-0.006222	0.42578	-36.54	1.26	-56.91	0.2657	0.0132	-0.4786	
-0.847656	-0.000732	0.42151	-32.41	-1.19	-56.7	0.2644	0.0236	-0.4866	
-0.826306	-0.020374	0.438712	-35.7	-4.2	-56	0.2722	0.0427	-0.4839	
-0.86803	-0.101138	0.435662	-37.87	-0.14	-55.02	0.2648	0.0439	-0.4777	
-0.888404	-0.142496	0.442372	-33.11	1.19	-54.46	0.2607	0.063	-0.4828	
-0.865468	-0.157746	0.428098	-31.71	-1.19	-55.09	0.2593	0.06439999	-0.4812	
-0.834724	-0.157502	0.41419	-28.42	-1.19	-55.23	0.2699	0.0748	-0.4784	
-0.836066	-0.161406	0.416874	-28.42	0.14	-54.88	0.2506	0.0775	-0.4861	
-0.861686	-0.230214	0.441152	-31.5	0.98	-53.62	0.2493	0.0888	-0.4693	
-0.869006	-0.249612	0.435174	-26.25	1.4	-51.94	0.2584	0.0966	-0.485	
-0.856196	-0.23363	0.412482	-26.39	0.35	-51.45	0.2527	0.1067	-0.4806	
-0.839726	-0.235094	0.40504	-28.63	1.47	-50.61	0.2617	0.1154	-0.4683	
-0.823744	-0.254248	0.414678	-31.29	-1.47	-49.91	0.2455	0.1182	-0.4792	
-0.815692	-0.303048	0.439444	-34.02	-0.14	-48.72	0.2441	0.1224	-0.4716	
-0.8296	-0.325252	0.430172	-30.45	-1.89	-46.97	0.2474	0.1416	-0.4735	
-0.8113	-0.316956	0.421998	-30.8	-0.84	-45.92	0.2489	0.1402	-0.4766	
-0.793244	-0.321226	0.419314	-34.23	3.29	-44.59	0.2476	0.1517	-0.466	
-0.814716	-0.361242	0.41114	-38.5	4.69	-43.19	0.2462	0.156	-0.4645	
-0.824964	-0.39894	0.42273	-37.31	2.38	-41.65	0.2419	0.166	-0.457	
-0.839116	-0.446886	0.404552	-37.17	2.17	-38.85	0.239	0.1691	-0.4663	
-0.820328	-0.462868	0.39345	-32.76	0	-38.01	0.2303	0.1763	-0.4696	
-0.81679	-0.457744	0.39284	-27.58	-0.07	-37.66	0.2377	0.1792	-0.4619	
-0.806908	-0.468358	0.391864	-28.35	-0.7	-35.98	0.2336	0.1936	-0.4544	
-0.817278	-0.493002	0.391376	-26.74	-1.26	-34.09	0.2338	0.207	-0.4625	
-0.823622	-0.499224	0.38247	-23.17	-2.38	-32.41	0.2324	0.2098	-0.4594	
-0.809104	-0.505812	0.3782	-23.24	-3.15	-31.57	0.2264	0.2052	-0.4516	
-0.7808	-0.50569	0.385642	-21	-5.6	-30.66	0.231	0.2128	-0.4611	
-0.783484	-0.524966	0.3843	-19.6	-5.46	-29.26	0.2162	0.2184	-0.4627	
-0.788852	-0.529236	0.382958	-17.29	-4.83	-27.51	0.2089	0.224	-0.4566	
-0.781898	-0.53741	0.378078	-18.2	-3.85	-24.5	0.2147	0.2151	-0.4486	
-0.771894	-0.570228	0.40199	-16.73	-3.5	-21.28	0.2088	0.2194	-0.4487	
-0.774212	-0.604266	0.390156	-14.21	-2.59	-18.48	0.2062	0.2356	-0.4553	
-0.77104	-0.60207	0.390766	-8.4	-1.96	-16.59	0.2032	0.2341	-0.4583	
-0.766526	-0.596824	0.395158	-4.13	-3.15	-14.49	0.2092	0.2413	-0.4476	
-0.749202	-0.60756	0.393206	-1.96	-4.2	-11.9	0.2094	0.2472	-0.4478	
-0.751642	-0.603046	0.390156	2.45	-2.24	-9.73	0.212	0.2326	-0.4459	
-0.753228	-0.594872	0.38918	2.94	1.05	-7.7	0.196	0.2455	-0.4493	
-0.751276	-0.595116	0.388692	3.92	-0.35	-5.18	0.1916	0.2514	-0.4556	
-0.765184	-0.60268	0.377834	4.2	2.38	-1.89	0.2017	0.2354	-0.4522	
-0.765672	-0.594384	0.377712	7.84	-1.19	0.35	0.2063	0.2443	-0.4493	
-0.76128	-0.591456	0.389058	10.08	-1.68	2.38	0.2064	0.2458	-0.4539	
-0.755058	-0.585112	0.38491	10.22	-2.1	4.9	0.1957	0.2325	-0.4567	
-0.754692	-0.575596	0.386862	11.62	-1.68	7.42	0.2151	0.2387	-0.4554	
-0.755058	-0.57279	0.391986	11.55	-1.82	10.15	0.2091	0.2328	-0.4614	
-0.753228	-0.567666	0.400404	13.23	-1.68	12.39	0.2061	0.2327	-0.4568	
-0.753594	-0.565104	0.407846	13.44	-1.26	14.7	0.2001	0.2268	-0.4597	
-0.758718	-0.559736	0.408334	13.86	-1.4	17.78	0.2058	0.2178	-0.4471	
-0.764086	-0.557052	0.41053	14.28	-0.77	20.93	0.2	0.2253	-0.4597	
-0.758718	-0.54656	0.416264	15.26	-0.49	23.38	0.209	0.2271	-0.466	
-0.765672	-0.54107	0.414434	15.4	0.77	25.55	0.2073	0.2153	-0.4657	
-0.780556	-0.531798	0.409798	16.8	1.12	27.86	0.2103	0.2197	-0.4643	
-0.786534	-0.516182	0.407236	17.64	0.56	30.31	0.2132	0.2126	-0.4703	
-0.777384	-0.496296	0.415776	19.39	-1.26	32.76	0.2057	0.2123	-0.4625	
-0.7686	-0.486048	0.424682	20.37	-2.03	35.56	0.216	0.2038	-0.467	
-0.776774	-0.476166	0.424804	22.75	-0.98	38.22	0.2204	0.2038	-0.4639	
-0.78873	-0.45384	0.42456	24.22	0.56	39.48	0.2187	0.1922	-0.4715	
-0.793854	-0.42273	0.4331	25.83	0.77	40.18	0.2199	0.1804	-0.465	
-0.800686	-0.413092	0.442738	24.29	0.35	41.37	0.2303	0.1793	-0.4743	
-0.812276	-0.403332	0.43554	25.13	-0.49	42.63	0.239	0.1649	-0.4756	
-0.807274	-0.372588	0.438468	28.35	-2.17	43.54	0.2301	0.1662	-0.4771	
-0.802272	-0.33245	0.432612	27.86	-1.4	44.31	0.234	0.1414	-0.4782	
-0.818986	-0.330132	0.42456	27.3	1.68	44.45	0.2446	0.1505	-0.4799	
-0.84851	-0.31232	0.412604	28.91	3.64	44.73	0.2415	0.1444	-0.472	
-0.846802	-0.261324	0.432612	34.58	1.54	45.01	0.2415	0.1417	-0.4844	
-0.845338	-0.243878	0.434564	33.88	1.26	44.94	0.2487	0.1328	-0.4734	
-0.847656	-0.229238	0.43798	31.22	0.28	45.08	0.256	0.126	-0.4903	
-0.842044	-0.216916	0.442616	30.66	-1.19	45.78	0.2543	0.1141	-0.4838	
-0.840702	-0.199958	0.441152	32.97	0.07	45.85	0.2393	0.1078	-0.4775	
-0.841068	-0.16653	0.444812	32.27	1.75	44.45	0.2538	0.0907	-0.4864	
-0.856806	-0.118584	0.441884	34.51	5.67	42.28	0.2494	0.0947	-0.4679	
-0.869372	-0.08906	0.442982	32.41	6.37	40.74	0.2521	0.0791	-0.4908	
-0.867786	-0.085156	0.460306	25.62	7.7	40.46	0.258	0.0748	-0.4892	
-0.874374	-0.072102	0.468236	24.99	7.28	39.83	0.2577	0.0613	-0.4734	
-0.877302	-0.044896	0.467382	30.94	5.81	37.59	0.2606	0.0557	-0.4857	
-0.872422	-0.013908	0.467992	33.67	5.53	33.67	0.2531	0.0553	-0.4748	
-0.867542	0.000366	0.473238	33.18	6.93	30.38	0.2588	0.0409	-0.4792	
-0.864614	0.011712	0.465064	34.16	7.77	28.07	0.2662	0.0396	-0.4807	
-0.862296	0.063074	0.448594	40.11	6.93	24.64	0.2748	0.0222	-0.4819	
-0.871446	0.09162199	0.440542	39.27	8.26	21.14	0.2541	0.0306	-0.4805	
-0.881328	0.1098	0.440664	37.24	10.57	18.41	0.2716	0.0133	-0.4802	
-0.867298	0.11407	0.443592	35.63	8.47	16.1	0.2642	0.013	-0.4724	
-0.860466	0.127856	0.442616	33.67	8.61	14	0.2686	0.0133	-0.4786	
-0.865956	0.149206	0.437614	31.92	7.56	11.55	0.2638	-0.0043	-0.4813	
-0.871324	0.176778	0.4331	30.03	6.93	9.24	0.2741	-0.0088	-0.4657	
-0.889136	0.204716	0.429074	24.43	8.68	8.05	0.2756	-0.0102	-0.4657	
-0.900482	0.211914	0.425292	18.55	9.24	8.96	0.28	-0.0112	-0.4859	
-0.89792	0.203984	0.430172	14.42	6.58	9.8	0.2741	-0.0088	-0.4657	
-0.89853	0.20008	0.422364	12.32	6.51	9.59	0.268	-0.019	-0.4701	
-0.892064	0.193614	0.424438	11.48	4.2	9.17	0.2663	-0.0266	-0.4622	
-0.894382	0.203496	0.410408	11.76	6.44	9.03	0.2752	-0.0277	-0.4715	
-0.913414	0.191418	0.411384	1.68	6.93	8.82	0.2766	-0.035	-0.4683	
-0.905118	0.17141	0.413458	-1.05	6.79	8.68	0.278	-0.035	-0.4683	
-0.908168	0.16409	0.414068	1.33	7.07	8.4	0.2827	-0.0247	-0.4638	
-0.915	0.16897	0.409066	-0.07	4.06	7.7	0.2842	-0.0218	-0.4639	
-0.911828	0.179584	0.407846	3.5	1.54	6.79	0.2856	-0.0264	-0.4529	
-0.907924	0.183366	0.415898	0.21	2.1	6.23	0.281	-0.0335	-0.4652	
-0.910242	0.178242	0.417118	0.07	3.57	6.02	0.2781	-0.0293	-0.4575	
-0.916098	0.179096	0.41358	-2.31	4.55	5.39	0.284	-0.0307	-0.4575	
-0.923662	0.182756	0.404064	-5.95	4.06	4.48	0.2795	-0.0338	-0.4512	
-0.922442	0.172874	0.400526	-10.29	2.24	3.08	0.2912	-0.0437	-0.4603	
-0.9089	0.173728	0.408334	-6.86	-0.28	2.03	0.287	-0.0304	-0.4668	
-0.909144	0.18727	0.403942	-10.08	2.1	0.28	0.2854	-0.038	-0.4558	
-0.926956	0.17812	0.401136	-17.01	4.97	-0.56	0.2899	-0.035	-0.4559	
-0.91073	0.157136	0.410042	-18.97	3.78	0.28	0.2796	-0.0294	-0.4529	
-0.888038	0.162138	0.419802	-18.13	3.29	0.49	0.2841	-0.029	-0.4669	
-0.89975	0.178486	0.415044	-19.18	4.06	0.77	0.2902	-0.0187	-0.4655	
-0.925248	0.167384	0.409066	-27.93	9.31	4.06	0.2905	-0.0071	-0.458	
-0.930494	0.14884	0.394426	-33.32	10.64	8.47	0.2831	-0.0042	-0.4674	
-0.922564	0.14152	0.384178	-36.96	9.24	11.97	0.2947	-0.0188	-0.4578	
-0.925126	0.155306	0.393328	-40.32	4.55	13.72	0.2874	-0.0129	-0.4641	
-0.915122	0.159332	0.381494	-43.4	0.84	16.03	0.2979	-0.0041	-0.4581	
-0.935984	0.160918	0.36966	-47.74	2.59	19.88	0.2861	-0.0043	-0.4581	
-0.948184	0.138226	0.379298	-56.56	4.83	22.61	0.2845	-0.0087	-0.458	
-0.945988	0.128344	0.372954	-57.54	4.55	24.22	0.2894	0.0118	-0.4584	
-0.931836	0.096258	0.38125	-60.34	0.35	25.34	0.2968	0.0135	-0.4631	
-0.939034	0.11224	0.380518	-50.61	-1.47	25.48	0.2969	0.0193	-0.4586	
-0.94306	0.112484	0.374418	-62.02	-2.24	26.53	0.2882	0.0264	-0.4587	
-0.919392	0.119804	0.396256	-58.59	-0.35	28.63	0.2867	0.0264	-0.4572	
-0.949526	0.146644	0.368806	-62.58	4.9	31.36	0.2839	0.035	-0.4543	
-0.93757	0.0976	0.381006	-72.94	6.3	35.21	0.2956	0.0282	-0.465	
-0.934642	0.087962	0.366	-65.38	5.81	38.36	0.2973	0.0381	-0.4497	
-0.938546	0.08113	0.364048	-69.09	8.89	39.97	0.2928	0.0366	-0.4512	
-0.931348	0.07015	0.367464	-74.2	6.58	39.06	0.2975	0.0499	-0.4546	
-0.93147	0.058194	0.354776	-71.26	9.45	38.22	0.3035	0.0515	-0.4515	
-0.931714	0.047946	0.368074	-68.25	10.22	39.06	0.2916	0.0483	-0.4514	
-0.915854	0.053924	0.36844	-66.08	8.61	39.48	0.3126	0.0604	-0.4486	
-0.91256	0.052338	0.386374	-67.9	12.32	38.78	0.3111	0.0602	-0.4409	
-0.92232	0.06649	0.37271	-64.33	12.11	36.61	0.3009	0.0687	-0.4395	
-0.935496	0.076982	0.384666	-59.71	13.72	36.05	0.3126	0.0629	-0.4285	
-0.925736	0.054412	0.369294	-62.02	15.68	34.79	0.3189	0.0779	-0.4397	
-0.928908	0.051728	0.3843	-51.52	15.4	33.6	0.3218	0.0749	-0.435	
-0.930006	0.046238	0.377346	-52.64	14.28	29.61	0.322	0.0851	-0.4321	
-0.928298	0.054534	0.380274	-43.54	4.9	25.2	0.3325	0.0911	-0.4261	
-0.92781	0.073444	0.39223	-45.71	12.53	21.98	0.3192	0.0953	-0.4292	
-0.91622	0.071492	0.401136	-45.15	7.84	21.07	0.3219	0.0834	-0.4197	
-0.913658	0.054656	0.385154	-44.03	8.75	19.6	0.3325	0.0911	-0.4261	
-0.917806	0.047946	0.381738	-40.6	4.9	16.94	0.3268	0.107	-0.4217	
-0.933056	0.056974	0.382226	-34.58	6.23	17.5	0.3251	0.09339999	-0.4059	
-0.94123	0.05795	0.372344	-36.12	7.56	16.24	0.3371	0.0997	-0.4138	
-0.923296	0.057828	0.377834	-35.63	6.93	14.49	0.3266	0.0951	-0.4137	
-0.912438	0.117852	0.395646	-31.71	7.98	12.95	0.3341	0.1009	-0.4045	
-0.93391	0.07124799	0.375516	-34.3	2.94	13.09	0.3268	0.1041	-0.4232	
-0.941962	0.052338	0.371856	-26.11	2.38	13.16	0.3417	0.1086	-0.414	
-0.942694	0.071858	0.378932	-23.31	2.45	11.62	0.3311	0.098	-0.4076	
-0.927322	0.075762	0.386252	-21.35	0.91	10.85	0.3342	0.1052	-0.4	
-0.917928	0.10675	0.388692	-18.9	2.03	9.73	0.3281	0.09649999	-0.4106	
-0.924516	0.096624	0.39589	-16.24	2.31	8.89	0.3372	0.1055	-0.4093	
-0.940132	0.057584	0.384666	-14.84	1.82	8.33	0.3431	0.1026	-0.4092	
-0.944646	0.08601	0.385398	-10.92	0.84	7.14	0.3432	0.1098	-0.4016	
-0.931104	0.105408	0.384056	-10.22	-0.7	5.95	0.3403	0.1142	-0.4017	
-0.904386	0.099308	0.390766	-8.4	-1.05	5.32	0.3477	0.1099	-0.4032	
-0.897066	0.074298	0.396378	-3.64	-0.49	3.36	0.3401	0.1054	-0.4015	
-0.9211	0.055022	0.37393	1.61	2.31	-0.14	0.3433	0.1142	-0.4017	
-0.949404	0.09857599	0.377346	6.37	3.36	-3.29	0.3373	0.1097	-0.4016	
-0.916098	0.084302	0.385642	10.71	1.33	-4.9	0.3478	0.1159	-0.4095	
-0.927688	0.061854	0.390034	17.85	2.38	-6.51	0.3447	0.1113	-0.4017	
-0.947086	0.07869	0.384666	23.24	3.08	-8.47	0.3521	0.1113	-0.3955	
-0.928054	0.087474	0.37088	27.02	0.63	-10.01	0.3432	0.11	-0.4125	
-0.898164	0.09942999	0.368074	31.15	-0.91	-11.69	0.3355	0.098	-0.4045	
-0.896334	0.09516	0.378932	36.75	0	-13.86	0.3445	0.0998	-0.4107	
-0.928786	0.07076	0.401136	39.55	1.47	-12.95	0.3476	0.1057	-0.4109	
-0.952088	0.022326	0.36356	42.98	-2.03	-14.98	0.3355	0.0966	-0.4091	
-0.962336	0.037332	0.340868	47.53	-1.4	-15.89	0.3459	0.0969	-0.4122	
-0.922442	0.078202	0.35563	49.28	0.77	-17.64	0.337	0.0954	-0.4168	
-0.92049	0.09699	0.386862	53.9	1.68	-17.85	0.3353	0.0866	-0.4198	
-0.962214	0.062098	0.364536	35.21	7.07	-17.57	0.3486	0.0825	-0.4197	
-1.017358	0.029036	0.306586	14.49	13.51	-16.38	0.3367	0.0792	-0.4134	
-0.988932	0.034282	0.272426	33.81	6.93	-16.8	0.3444	0.0937	-0.4013	
-0.917806	0.094794	0.30317	80.43	-5.67	-17.15	0.3515	0.0766	-0.418	
-0.933666	0.133956	0.346724	82.46	-12.46	-18.41	0.3291	0.0733	-0.4195	
-0.976976	0.08601	0.333914	40.32	-7	-20.37	0.3408	0.0634	-0.4255	
-1.006378	0.04331	0.263398	40.04	-2.73	-19.67	0.3409	0.0691	-0.4163	
-0.949648	0.081008	0.266448	79.03	-13.09	-19.46	0.3246	0.0686	-0.4116	
-0.948184	0.173972	0.301462	112.77	-15.61	-21.56	0.3317	0.0544	-0.4253	
-0.954284	0.134322	0.332206	53.41	-4.55	-21.7	0.327	0.0425	-0.4188	
-0.96624	0.091866	0.282064	50.12	-1.12	-19.39	0.3332	0.0516	-0.4283	
-0.980026	0.09455	0.268156	77.56	-10.92	-20.44	0.3212	0.0467	-0.4173	
-0.967216	0.132736	0.284382	87.36	-12.32	-24.36	0.3297	0.028	-0.4231	
-0.955138	0.173728	0.287188	86.24	-17.22	-27.86	0.3268	0.028	-0.4262	
-0.959774	0.16958	0.31842	82.81	-18.76	-28.28	0.3206	0.0163	-0.4322	
-0.960018	0.153842	0.33733	80.43	-10.01	-26.53	0.3073	0.0202	-0.4198	
-0.991372	0.157746	0.30256	75.25	-21.14	-28.28	0.3115	0.009	-0.4413	
-0.973682	0.126636	0.293044	67.2	-19.39	-32.2	0.3205	0.009099999	-0.4398	
-0.935252	0.12017	0.318908	86.31	-27.37	-34.3	0.3203	0.0003	-0.4396	
-0.903898	0.163724	0.33245	88.13	-25.76	-34.72	0.3111	-0.013	-0.4393	
-0.963922	0.194224	0.309514	71.47	-13.23	-33.6	0.2978	-0.0118	-0.4393	
-0.955992	0.197884	0.333304	68.53	-8.47	-30.73	0.3125	-0.0173	-0.4408	
-0.945866	0.166774	0.347334	56.14	-1.89	-26.81	0.3109	-0.0217	-0.4438	
-0.944402	0.152012	0.325984	62.02	-8.05	-22.05	0.3094	-0.0258	-0.4577	
-0.925492	0.200568	0.324154	82.95	-13.3	-22.05	0.2987	-0.0381	-0.4403	
-0.955504	0.174216	0.32452	68.88	-13.93	-26.11	0.2985	-0.0482	-0.4447	
-0.955504	0.133956	0.327082	76.58	-20.3	-32.06	0.2956	-0.0454	-0.4432	
-0.962336	0.14335	0.331962	75.81	-16.59	-37.87	0.3073	-0.0539	-0.4477	
-0.969046	0.143106	0.317444	83.93	-14.35	-42.49	0.2985	-0.0512	-0.4447	
-0.94916	0.181414	0.342576	94.78	-14.77	-47.53	0.2953	-0.0617	-0.4351	
-0.936594	0.206424	0.365634	87.29	-9.45	-52.08	0.3145	-0.0641	-0.4429	
-0.929396	0.227896	0.349774	97.58	-17.01	-53.97	0.2966	-0.0716	-0.4489	
-0.95465	0.21716	0.31964	97.86	-17.36	-53.76	0.2844	-0.0851	-0.4455	
-0.963434	0.195322	0.333304	95.41	-13.16	-52.57	0.2919	-0.0824	-0.4285	
-0.922808	0.185196	0.353434	97.44	-16.03	-52.43	0.2888	-0.08679999	-0.4299	
-0.903166	0.176412	0.339892	95.55	-12.67	-53.48	0.2844	-0.0867	-0.4408	
-0.919026	0.235582	0.347212	96.46	-8.12	-53.41	0.2887	-0.0928	-0.4205	
-0.928054	0.220088	0.355874	85.33	-6.72	-50.12	0.2957	-0.1117	-0.4216	
-0.964776	0.177388	0.379786	77.28	-0.63	-43.61	0.309	-0.1158	-0.4231	
-0.841556	0.155184	0.387106	87.5	-7.98	-40.04	0.3001	-0.1133	-0.4138	
-0.88877	0.211914	0.355752	88.9	-5.39	-39.69	0.2953	-0.1324	-0.4119	
-0.908778	0.203984	0.360144	74.97	0.7	-34.79	0.3074	-0.1232	-0.4199	
-0.912804	0.16531	0.347212	70.42	-0.28	-29.75	0.2998	-0.1267	-0.3996	
-0.913048	0.17324	0.345138	66.92	0.77	-25.76	0.3042	-0.1325	-0.3995	
-0.926346	0.1891	0.360876	58.45	0.28	-22.26	0.3188	-0.1456	-0.3899	
-0.94001	0.207644	0.352336	51.24	0.84	-19.11	0.31	-0.1398	-0.3962	
-0.951112	0.206424	0.34709	41.79	0.91	-15.68	0.3054	-0.1444	-0.3914	
-0.93574	0.165188	0.368928	32.83	-0.21	-11.69	0.3068	-0.1473	-0.3883	
-0.925248	0.15982	0.369538	27.79	-2.38	-8.89	0.3083	-0.1488	-0.3836	
-0.932324	0.152744	0.36173	18.9	-1.26	-7.35	0.3053	-0.1505	-0.3789	
-0.92354	0.134688	0.349286	12.88	-1.12	-6.09	0.3143	-0.1484	-0.3976	
-0.949892	0.112606	0.355264	6.02	1.47	-5.11	0.3052	-0.1548	-0.3804	
-0.952332	0.11346	0.362706	-0.14	-1.75	-4.27	0.3155	-0.1604	-0.3865	
-0.941474	0.093818	0.357094	-6.3	-2.59	-2.38	0.3066	-0.159	-0.388	
-0.94367	0.071126	0.36722	-8.26	-2.17	-0.49	0.3156	-0.1546	-0.3804	
-0.933422	0.072712	0.367708	-8.96	-4.55	0.07	0.3098	-0.1488	-0.3867	
-0.922076	0.087596	0.362706	-10.01	-4.06	0.56	0.3053	-0.1504	-0.382	
-0.93269	0.081862	0.37088	-11.27	-1.61	1.12	0.3099	-0.1442	-0.393	
-0.935252	0.100894	0.364536	-13.02	-0.77	1.05	0.3126	-0.1546	-0.3835	
-0.955992	0.080032	0.371734	-17.29	0.91	2.52	0.3232	-0.147	-0.3883	
-0.93208	0.06161	0.373564	-18.83	-1.33	4.2	0.3069	-0.1459	-0.3868	
-0.928298	0.071492	0.36173	-18.83	-2.52	4.69	0.307	-0.1414	-0.39	
-0.912316	0.080886	0.373686	-20.37	-2.73	4.9	0.31	-0.1398	-0.3947	
-0.895236	0.11285	0.38125	-21.77	-0.07	5.11	0.3084	-0.1431	-0.3775	
-0.934032	0.11407	0.373198	-28.21	4.69	6.72	0.2997	-0.1356	-0.3963	
-0.957334	0.10187	0.363072	-37.1	5.88	8.96	0.3114	-0.14	-0.3822	
-0.948428	0.095282	0.362828	-39.48	4.06	11.9	0.3011	-0.1357	-0.3901	
-0.924028	0.10736	0.373808	-43.19	0.98	13.23	0.316	-0.1351	-0.4025	
-0.915854	0.134566	0.369904	-46.13	-2.45	13.58	0.3192	-0.1249	-0.3965	
-0.914878	0.159088	0.371856	-47.74	-1.12	14.42	0.2998	-0.1295	-0.4057	
-0.92232	0.12688	0.344772	-52.92	2.94	17.71	0.3089	-0.1205	-0.4075	
-0.963922	0.123464	0.331352	-54.39	6.09	19.46	0.3	-0.1177	-0.4122	
-0.961238	0.126758	0.316346	-59.71	1.96	18.69	0.3016	-0.1118	-0.4108	
-0.95099	0.119804	0.34282	-66.85	2.8	20.02	0.2927	-0.1119	-0.4139	
-0.93574	0.158478	0.402478	-65.73	2.59	21.77	0.3018	-0.1017	-0.4048	
-0.961726	0.187026	0.364048	-58.73	-3.5	23.66	0.3063	-0.0999	-0.4157	
-0.957578	0.168604	0.300608	-57.68	-8.47	26.53	0.3007	-0.0882	-0.4221	
-0.994178	0.052094	0.28731	-79.59	-4.06	30.17	0.2993	-0.0824	-0.4223	
-0.930738	0.049654	0.382226	-71.12	4.27	26.81	0.2948	-0.0836	-0.4378	
-0.901336	0.09162199	0.42517	-60.55	5.11	21.14	0.2993	-0.0835	-0.4362	
-0.93208	0.125782	0.378688	-48.09	-2.45	18.41	0.295	-0.0735	-0.4302	
-0.978074	0.131882	0.284504	-48.65	-9.73	19.53	0.3101	-0.0642	-0.4413	
-0.974292	0.08723	0.259494	-81.9	-15.19	24.15	0.2967	-0.063	-0.4429	
-0.91195	0.040748	0.3782	-89.39	-11.13	27.65	0.288	-0.0545	-0.4368	
-0.92476	0.050508	0.480802	-75.32	11.69	24.08	0.2895	-0.0526	-0.4539	
-0.958798	0.083082	0.38186	-50.05	12.81	19.6	0.2911	-0.0498	-0.4447	
-0.960872	0.108214	0.296826	-64.47	-5.04	22.54	0.2957	-0.0394	-0.448	
-0.9211	0.071858	0.317078	-90.58	-10.85	26.32	0.2929	-0.0336	-0.4512	
-0.92537	0.0793	0.423828	-73.43	-10.01	27.23	0.287	-0.0307	-0.4544	
-0.936838	0.082472	0.404186	-76.44	-2.17	27.58	0.2915	-0.0278	-0.4483	
-0.944768	0.0793	0.310856	-80.43	-3.36	29.05	0.2887	-0.0204	-0.4546	
-0.936228	0.111142	0.294996	-83.93	-3.85	28.21	0.3009	-0.0027	-0.4519	
-0.92964	0.109434	0.383324	-101.85	2.38	29.47	0.2875	-0.0073	-0.4518	
-0.914146	0.064294	0.444324	-107.94	11.9	32.69	0.2938	0.0133	-0.4585	
-0.949038	0.052582	0.364902	-91.07	13.79	34.23	0.2939	0.0161	-0.4492	
-0.959774	0.035136	0.281332	-101.01	5.18	33.25	0.2987	0.0324	-0.4558	
-0.95709	-0.011346	0.328302	-108.5	1.96	33.32	0.3001	0.0294	-0.4511	
-0.944768	0.007076	0.387838	-94.99	10.22	35.91	0.3005	0.05	-0.4546	
-0.95831	0.003782	0.408456	-88.97	0.35	37.17	0.3035	0.0541	-0.4392	
-0.937204	0.037332	0.336232	-83.72	-2.59	39.34	0.2949	0.0672	-0.4394	
-0.950746	0.01403	0.35746	-86.66	-6.3	41.37	0.3007	0.0601	-0.4471	
-0.941352	0.007686	0.363316	-76.86	-8.26	44.59	0.3039	0.07319999	-0.4411	
-0.958066	0.009881999	0.36478	-87.92	-0.56	44.66	0.3129	0.0779	-0.4459	
-0.946476	0.00915	0.353434	-91.56	1.82	43.96	0.2922	0.0803	-0.4397	
-0.905362	-0.00732	0.368074	-93.38	-4.2	45.15	0.3013	0.09079999	-0.4446	
-0.924882	-0.005002	0.355508	-81.62	-5.6	44.59	0.3013	0.0894	-0.4446	
-0.937448	-0.007442	0.371734	-80.99	-5.53	42.56	0.3073	0.0953	-0.4432	
-0.92537	0.022692	0.383202	-66.08	-5.04	40.67	0.2999	0.0964	-0.4323	
-0.90463	0.039528	0.408456	-63.56	-5.39	42.07	0.3031	0.1082	-0.431	
-0.915732	-0.013298	0.398452	-85.12	-0.07	44.03	0.306	0.1023	-0.4309	
-0.919758	-0.054046	0.352214	-92.61	8.26	43.68	0.3077	0.1143	-0.442	
-0.946354	-0.027816	0.360022	-64.4	6.51	38.36	0.3094	0.1245	-0.436	
-0.928664	-0.00732	0.407602	-51.66	-1.54	36.4	0.3197	0.1214	-0.4205	
-0.913536	-0.01952	0.402722	-62.02	-0.98	34.37	0.3152	0.1184	-0.4204	
-0.929152	-0.05978	0.399306	-59.43	5.88	30.94	0.3121	0.1151	-0.4048	
-0.945744	-0.075762	0.40687	-48.58	6.23	27.93	0.3154	0.1301	-0.4175	
-0.953674	-0.03904	0.403088	-37.8	7.77	23.8	0.3229	0.1317	-0.4176	
-0.960872	-0.020252	0.382958	-34.37	8.26	20.86	0.3154	0.1299	-0.4098	
-0.951478	-0.012444	0.395158	-26.88	6.02	18.9	0.3361	0.1275	-0.4129	
-0.923174	-0.012566	0.39589	-23.52	1.54	16.24	0.3242	0.1258	-0.4159	
-0.912804	0.002196	0.39711	-19.04	2.8	12.25	0.3257	0.127	-0.402	
-0.905972	0.008905999	0.395158	-20.93	3.64	9.1	0.3288	0.1345	-0.4052	
-0.912804	0.023058	0.39955	-15.75	3.92	7.07	0.3319	0.1373	-0.396	
-0.93147	0.01952	0.40504	-13.44	0.84	5.88	0.3453	0.1406	-0.4007	
-0.919758	0.011834	0.40016	-12.6	-1.54	5.25	0.3361	0.1286	-0.3958	
-0.920978	0.002318	0.397232	-6.23	-1.96	4.06	0.3423	0.1393	-0.41	
-0.91683	0.000732	0.404796	-0.49	-0.35	2.59	0.3347	0.1316	-0.4005	
-0.933422	0.030988	0.39955	3.36	1.54	1.68	0.3333	0.1361	-0.4068	
-0.94367	0.04575	0.39345	2.73	1.26	0.84	0.3288	0.1316	-0.4052	
-0.932202	0.069418	0.404796	5.6	2.52	0.28	0.3348	0.1358	-0.3897	
-0.922564	0.056852	0.3843	4.48	0	-0.35	0.3334	0.1376	-0.4115	
-0.919514	0.052704	0.377956	11.69	0.35	-1.4	0.3377	0.1318	-0.4083	
-0.943304	0.045018	0.369172	11.55	2.87	-2.87	0.3213	0.1301	-0.4113	
-0.953064	0.068564	0.375516	14.28	3.92	-4.69	0.3408	0.1361	-0.4006	
-0.935862	0.043798	0.37393	11.48	2.24	-5.88	0.3363	0.1374	-0.396	
-0.953552	0.023912	0.365634	16.17	0.91	-6.72	0.3423	0.1377	-0.4053	
-0.918782	0.056486	0.392962	20.02	-1.33	-8.54	0.3333	0.136	-0.4037	
-0.89975	0.047946	0.403576	16.31	-0.28	-9.31	0.3302	0.1285	-0.3958	
-0.903654	0.010126	0.403942	28	0.56	-10.01	0.3288	0.1316	-0.4052	
-0.950014	-0.01464	0.376248	35.49	3.71	-11.41	0.3361	0.1259	-0.4082	
-0.97173	-0.016348	0.355142	44.66	1.05	-13.79	0.3346	0.1273	-0.4035	
-0.951478	0.002684	0.385154	46.48	-2.24	-17.01	0.3256	0.1213	-0.4081	
-0.936716	0.061244	0.373564	49.91	-0.84	-18.62	0.3362	0.1289	-0.4129	
-0.924394	0.033672	0.369294	39.27	-0.63	-16.73	0.3315	0.1172	-0.4173	
-0.94184	-0.008174	0.354532	26.81	1.4	-14.84	0.321	0.1154	-0.4095	
-0.973072	-0.010126	0.356362	40.74	3.64	-15.19	0.3226	0.1184	-0.4111	
-0.962458	0.03477	0.34709	58.73	0.91	-17.99	0.3239	0.1096	-0.4093	
-0.949648	0.061366	0.35014	54.67	-0.63	-22.75	0.3238	0.1053	-0.417	
-0.93269	0.072346	0.341844	54.6	-0.35	-25.06	0.3314	0.1114	-0.4203	
-0.927322	0.04758	0.360144	54.88	-1.26	-22.26	0.3282	0.0984	-0.4309	
-0.951966	0.004148	0.351482	50.19	1.61	-18.83	0.3209	0.1054	-0.4217	
-0.94977	0.047702	0.292312	44.59	4.06	-20.65	0.3147	0.0948	-0.4121	
-0.972828	0.09211	0.283528	72.38	-0.84	-22.89	0.331	0.0895	-0.4245	
-0.960506	0.09577	0.356728	90.79	-6.58	-22.61	0.322	0.0894	-0.426	
-0.961116	0.063196	0.387106	60.2	-2.94	-22.4	0.3157	0.0705	-0.438	
-0.954772	0.000976	0.336964	27.02	6.09	-21.77	0.3203	0.0747	-0.4257	
-0.946476	0.00671	0.273158	59.57	-3.5	-20.79	0.3111	0.0628	-0.4254	
-0.949282	0.05368	0.27694	93.38	-12.32	-17.92	0.3112	0.06439999	-0.4332	
-0.963556	0.07564	0.32025	88.69	-10.78	-19.11	0.326	0.0648	-0.4348	
-0.973072	0.069418	0.343186	83.44	-9.59	-21.35	0.3154	0.0527	-0.4299	
-0.9699	0.093452	0.321226	81.83	-10.08	-22.54	0.3049	0.0483	-0.4391	
-0.926346	0.101016	0.325984	78.19	-14.84	-25.76	0.3031	0.0349	-0.4294	
-0.935252	0.088328	0.33245	85.4	-17.71	-23.52	0.3089	0.0237	-0.4494	
-0.970144	0.058804	0.33794	82.53	-18.06	-24.29	0.3043	0.0205	-0.44	
-0.961604	0.089426	0.312808	92.19	-9.1	-26.11	0.3103	0.0206	-0.44	
-0.967948	0.15555	0.33062	109.2	-14.7	-28.77	0.3025	0.0029	-0.4396	
-0.96075	0.190564	0.339404	80.92	-8.54	-30.87	0.2965	-0.0027	-0.4535	
-0.961604	0.14274	0.323666	61.53	-12.74	-28.63	0.2933	-0.0145	-0.4532	
-0.922198	0.14457	0.338916	77.91	-17.64	-29.26	0.3021	-0.0204	-0.4438	
-0.904142	0.164578	0.361608	82.39	-13.44	-33.74	0.29	-0.0291	-0.456	
-0.930494	0.197884	0.353556	75.32	-7.49	-38.64	0.2913	-0.0395	-0.448	
-0.964166	0.186172	0.349164	65.38	-4.2	-39.34	0.2883	-0.0381	-0.4511	
-0.941474	0.180194	0.340624	75.88	-4.69	-37.52	0.3093	-0.0306	-0.4358	
-0.902556	0.206302	0.370636	75.04	-9.1	-37.45	0.2867	-0.0454	-0.4494	
-0.919392	0.180804	0.354532	71.19	-6.16	-38.43	0.3012	-0.0614	-0.4445	
-0.927932	0.180072	0.365146	72.8	-4.97	-39.34	0.2924	-0.0587	-0.4383	
-0.957822	0.1647	0.346602	73.36	-3.5	-39.34	0.2939	-0.0558	-0.4368	
-0.94672	0.149084	0.355386	72.59	-2.03	-38.64	0.2996	-0.0674	-0.435	
-0.92293	0.132614	0.361242	76.58	-5.95	-38.99	0.2921	-0.0722	-0.424	
-0.899872	0.133102	0.354044	78.4	-4.83	-38.5	0.3024	-0.0762	-0.4348	
-0.922076	0.161284	0.35685	78.12	-6.09	-38.15	0.2921	-0.0691	-0.4318	
-0.9455	0.163358	0.34343	70.98	-2.45	-36.26	0.3052	-0.085	-0.4315	
-0.944524	0.160918	0.36661	68.46	2.31	-32.76	0.3023	-0.0821	-0.4331	
-0.92171	0.147742	0.372466	67.41	-1.47	-29.05	0.2946	-0.0913	-0.419	
-0.926712	0.166774	0.380518	65.87	0.98	-26.6	0.3049	-0.0968	-0.4282	
-0.930738	0.177632	0.371856	63.7	1.12	-24.64	0.2943	-0.1103	-0.4217	
-0.93086	0.187026	0.356728	58.94	1.75	-23.24	0.3061	-0.1102	-0.4155	
-0.926102	0.166286	0.356118	49.49	2.1	-20.51	0.3108	-0.09999999	-0.4079	
-0.925126	0.149938	0.358558	44.1	1.12	-17.43	0.3075	-0.1174	-0.4169	
-0.920734	0.157258	0.365024	39.9	-0.42	-15.47	0.3103	-0.1248	-0.4105	
-0.923296	0.160308	0.359168	34.58	0.7	-13.16	0.3121	-0.1116	-0.4139	
-0.944158	0.157014	0.352702	27.72	0.28	-10.43	0.3163	-0.119	-0.4029	
-0.942206	0.148718	0.366732	21.84	-1.26	-7.91	0.3133	-0.1236	-0.3966	
-0.91073	0.13237	0.370514	19.25	-1.96	-5.25	0.3015	-0.1163	-0.406	
-0.931104	0.122854	0.36417	17.15	-1.05	-3.78	0.3117	-0.1264	-0.4043	
-0.930616	0.115046	0.364902	14.28	-1.75	-3.08	0.3162	-0.1277	-0.4074	
-0.929884	0.12383	0.360022	10.08	-1.47	-2.38	0.3117	-0.1264	-0.4058	
-0.944768	0.13603	0.359046	5.6	-2.17	-1.33	0.3028	-0.128	-0.4058	
-0.947818	0.131394	0.358192	2.87	-2.8	-0.49	0.3044	-0.1222	-0.4028	
-0.937936	0.12444	0.366	-2.8	-2.94	-0.28	0.3074	-0.1193	-0.3966	
-0.92781	0.123952	0.36966	-7.56	-3.43	-0.28	0.3057	-0.1324	-0.4026	
-0.922076	0.114558	0.363316	-12.95	-2.59	0.56	0.3144	-0.1439	-0.407	
-0.94794	0.112728	0.360388	-16.73	-1.68	1.89	0.3118	-0.1219	-0.4075	
-0.935008	0.138104	0.360754	-18.76	-1.82	3.64	0.2998	-0.128	-0.4089	
-0.9272	0.133468	0.364292	-22.82	0.07	5.95	0.3	-0.1192	-0.4075	
-0.9211	0.117974	0.373686	-29.12	1.54	7.49	0.3028	-0.1279	-0.4104	
-0.927444	0.111386	0.36966	-34.65	3.71	8.19	0.3105	-0.1174	-0.4169	
-0.925614	0.122854	0.362828	-36.19	3.5	9.03	0.2971	-0.1177	-0.4153	
-0.913658	0.142618	0.369538	-34.3	3.85	9.8	0.3045	-0.1191	-0.4122	
-0.914146	0.165554	0.383202	-43.12	4.62	11.55	0.3092	-0.1043	-0.4156	
-0.918172	0.164334	0.378322	-56	6.51	14.28	0.3105	-0.1144	-0.42	
-0.94611	0.14457	0.347212	-59.22	8.33	18.34	0.3152	-0.1027	-0.4157	
-0.953796	0.10431	0.328058	-57.33	8.54	22.4	0.3051	-0.0881	-0.4237	
-0.939034	0.076128	0.352824	-60.55	9.59	22.68	0.3051	-0.0866	-0.4237	
-0.930128	0.086498	0.371734	-58.59	6.23	21.49	0.3095	-0.0923	-0.4267	
-0.915732	0.087352	0.354654	-58.45	0.14	21.42	0.3036	-0.0894	-0.4299	
-0.972706	0.10431	0.321226	-50.61	-0.84	23.1	0.3053	-0.0777	-0.4317	
-0.99796	0.0915	0.330132	-50.47	0.7	22.61	0.2964	-0.0783	-0.4068	
-0.974536	0.07137	0.34648	-51.8	1.82	19.67	0.298	-0.0734	-0.4302	
-0.9577	0.064538	0.34343	-51.66	-0.7	16.1	0.3056	-0.0643	-0.4382	
-0.923784	0.120902	0.332694	-46.34	-6.58	12.88	0.3159	-0.07009999	-0.4319	
-0.936838	0.1464	0.338428	-53.48	-5.46	10.57	0.3057	-0.0598	-0.4429	
-0.985028	0.173362	0.342332	-45.01	-1.33	9.17	0.3116	-0.0599	-0.4336	
-0.959286	0.17385	0.355142	-53.2	4.48	8.26	0.2939	-0.0573	-0.4368	
-0.921466	0.160308	0.340014	-65.94	7.84	6.86	0.3016	-0.0409	-0.4433	
-0.95953	0.126636	0.291214	-67.62	2.94	9.52	0.2989	-0.0279	-0.4374	
-0.986492	0.113216	0.28975	-70.49	-4.9	12.6	0.2987	-0.0381	-0.4387	
-0.94611	0.10614	0.335012	-81.41	-7.84	13.65	0.296	-0.0278	-0.4421	
-0.92049	0.097722	0.346236	-86.03	-6.23	12.39	0.3007	-0.0115	-0.4471	
-0.943548	0.061244	0.285114	-90.58	-0.28	14.21	0.3023	-0.01	-0.4471	
-0.951478	-0.002684	0.281576	-109.2	-0.07	17.43	0.304	0.0003	-0.4567	
-0.944036	-0.035624	0.348066	-106.33	3.92	19.25	0.3117	0.0165	-0.4539	
-0.949526	-0.023668	0.363194	-98.56	7.07	18.41	0.3001	0.0294	-0.448	
-0.995642	0.022204	0.312564	-87.57	-0.42	15.89	0.3003	0.0381	-0.4466	
-0.979416	0.036844	0.309392	-86.52	-8.61	16.94	0.3047	0.0353	-0.4465	
-0.967216	-0.00671	0.39284	-90.23	-12.46	21.84	0.3049	0.0458	-0.4576	
-0.956968	-0.015738	0.341722	-75.6	-14.21	27.02	0.3035	0.05	-0.4515	
-0.942816	-0.022448	0.27511	-87.15	-15.96	30.52	0.2977	0.0601	-0.4502	
-0.952576	-0.016226	0.327326	-67.48	-8.89	32.06	0.2994	0.0692	-0.4628	
-0.959042	-0.010736	0.418704	-51.66	-0.63	35	0.3009	0.0705	-0.455	
-0.941718	-0.034892	0.359168	-92.26	-0.42	39.34	0.2965	0.07319999	-0.4489	
-0.936838	-0.08662	0.31781	-93.31	-4.27	40.67	0.2953	0.0866	-0.4585	
-0.943914	-0.071004	0.328912	-62.51	-7.98	42.14	0.3042	0.0894	-0.443	
-0.932812	-0.040504	0.368928	-56.77	-8.75	42.56	0.3013	0.09079999	-0.4415	
-0.960872	-0.020618	0.378566	-67.76	0.28	44.94	0.3072	0.0881	-0.4508	
-0.950136	-0.032208	0.36966	-72.59	-0.14	47.95	0.3	0.101	-0.4417	
-0.933422	-0.048678	0.36661	-76.16	-0.28	50.54	0.3134	0.1053	-0.4248	
-0.920612	-0.026718	0.345504	-79.38	-0.07	50.26	0.3164	0.1012	-0.4356	
-0.928298	0.015616	0.344894	-70.35	-2.73	48.16	0.3105	0.1083	-0.431	
-0.925248	0.039284	0.374418	-59.01	-4.2	47.88	0.3133	0.0967	-0.4339	
-0.92781	0.033916	0.402722	-68.6	-0.14	48.23	0.3121	0.1141	-0.4265	
-0.919636	0.020618	0.37454	-81.34	6.58	46.69	0.3271	0.1188	-0.4282	
-0.947452	-0.028426	0.364536	-79.52	3.92	46.48	0.3271	0.1216	-0.4189	
-0.950502	-0.037088	0.363194	-71.96	-0.28	41.93	0.3257	0.1216	-0.4236	
-0.93025	-0.015982	0.389058	-57.89	-2.87	39.13	0.3243	0.1288	-0.4191	
-0.928908	0.00488	0.394914	-59.22	-1.54	35.14	0.3213	0.1272	-0.4144	
-0.932934	-0.01586	0.367586	-59.5	0	34.23	0.3258	0.1317	-0.416	
-0.945256	-0.032818	0.387106	-45.36	0.7	31.92	0.3347	0.1302	-0.4036	
-0.93269	-0.046604	0.39711	-42.56	-0.21	28.35	0.3347	0.1301	-0.3989	
-0.92842	-0.045994	0.396256	-35.21	3.85	24.78	0.3318	0.1346	-0.4068	
-0.924638	-0.01952	0.402112	-27.23	3.92	20.44	0.342	0.1257	-0.3927	
-0.927932	-0.015128	0.393206	-28.98	6.09	16.38	0.3363	0.1346	-0.4021	
-0.924638	0.000122	0.398452	-20.65	4.34	14.49	0.3377	0.1304	-0.4129	
-0.927322	0.005856	0.396622	-18.97	0.14	12.95	0.3437	0.1346	-0.3944	
-0.92171	0.01159	0.39772	-14.21	-2.03	10.15	0.3376	0.1286	-0.3958	
-0.922564	0.011468	0.40443	-7.56	-2.1	7.7	0.3319	0.1403	-0.3976	
-0.904142	0.017446	0.4148	1.05	-1.89	4.97	0.3259	0.1371	-0.3944	
-0.920978	0.039406	0.399062	4.62	1.26	2.94	0.3467	0.1376	-0.3945	
-0.94001	0.093208	0.408822	9.73	2.31	1.05	0.3347	0.1286	-0.3974	
-0.917196	0.072346	0.391864	1.4	-0.42	0.14	0.3393	0.1361	-0.4022	
-0.915488	0.06466	0.3843	9.31	0.42	-0.63	0.3319	0.1403	-0.4007	
-0.920734	0.066856	0.379298	9.73	0.28	-1.68	0.3362	0.1302	-0.4036	
-0.934398	0.092842	0.386008	14.77	2.1	-2.59	0.3346	0.1258	-0.402	
-0.94306	0.089914	0.37393	8.4	2.52	-3.01	0.3391	0.1272	-0.3958	
-0.933544	0.08113	0.386862	11.97	1.82	-3.01	0.3465	0.1261	-0.4082	
-0.930616	0.0549	0.384788	12.6	1.96	-4.41	0.3422	0.1334	-0.4099	
-0.93513	0.046116	0.378688	18.55	2.8	-6.86	0.3481	0.1319	-0.4037	
-0.927444	0.051728	0.372588	20.09	1.61	-9.17	0.3347	0.1288	-0.4082	
-0.901336	0.048434	0.395402	29.05	1.19	-10.78	0.3347	0.1316	-0.4021	
-0.906338	0.02806	0.412848	36.33	2.52	-12.81	0.333	0.1198	-0.4003	
-0.935252	-0.006222	0.384056	38.5	4.13	-15.75	0.3357	0.1083	-0.4047	
-0.955748	-0.01586	0.35807	48.79	0.07	-17.64	0.3405	0.1217	-0.4112	
-0.942694	0.00915	0.360022	62.58	-1.47	-20.93	0.3359	0.1157	-0.4095	
-0.924028	0.052704	0.373198	66.99	-1.47	-26.18	0.3299	0.1112	-0.4125	
-0.927078	0.057462	0.369904	63.84	-2.03	-29.82	0.3341	0.101	-0.4092	
-0.95221	0.019642	0.360266	45.71	-0.77	-28.49	0.3297	0.1009	-0.4092	
-0.981002	-0.00244	0.32147	39.55	3.08	-26.39	0.3326	0.101	-0.4123	
-0.97722	0.02074	0.31415	64.12	1.75	-28.56	0.3193	0.1036	-0.4077	
-0.969656	0.071858	0.3477	86.24	0.28	-32.97	0.3387	0.1043	-0.4217	
-0.945256	0.096624	0.3538	63.42	1.12	-32.9	0.328	0.0924	-0.4261	
-0.93513	0.035746	0.334646	33.46	0.28	-28.28	0.3295	0.0937	-0.4168	
-0.946232	0.005246	0.273402	58.66	-3.78	-23.94	0.3311	0.0953	-0.4184	
-0.956724	0.033184	0.276818	90.72	-15.96	-24.43	0.3191	0.0893	-0.4244	
-0.948428	0.059658	0.323056	94.01	-10.29	-24.29	0.3159	0.0775	-0.4211	
-0.975024	0.073688	0.346114	76.93	-0.56	-23.52	0.3218	0.0749	-0.4334	
-0.961116	0.063928	0.349164	77.21	-5.32	-20.51	0.3261	0.0662	-0.4364	
-0.955992	0.088206	0.32452	83.09	-10.08	-21.49	0.3153	0.0499	-0.4344	
-0.980636	0.071492	0.3233	73.36	-14.63	-22.82	0.3138	0.0499	-0.4376	
-0.954772	0.035258	0.292678	70.7	-15.89	-24.08	0.3151	0.0354	-0.4419	
-0.996984	0.023302	0.277306	78.12	-14	-23.1	0.3001	0.0292	-0.4386	
-0.992714	0.055266	0.283162	105.14	-14.49	-25.69	0.312	0.0324	-0.4403	
-0.92903	0.102236	0.347456	121.52	-17.5	-28	0.3029	0.0248	-0.4385	
-0.915854	0.133712	0.336232	92.61	-8.19	-30.52	0.3086	0.0119	-0.4445	
-0.959774	0.111996	0.310734	74.55	-20.72	-32.62	0.298	0.0015	-0.4458	
-0.977464	0.136518	0.300974	103.25	-16.24	-32.34	0.2964	-0.0043	-0.4457	
-0.981612	0.14762	0.342332	80.71	-3.01	-29.96	0.3022	-0.0129	-0.4486	
-0.97234	0.172386	0.294386	88.2	-7.42	-31.08	0.3036	-0.0189	-0.4438	
-0.971852	0.18178	0.284138	86.8	-13.58	-32.62	0.2961	-0.0219	-0.4468	
-0.973194	0.15921	0.330986	82.6	-14.28	-36.26	0.2867	-0.044	-0.4464	
-0.951722	0.162992	0.33672	87.43	-20.09	-42.21	0.2943	-0.0381	-0.4449	
-0.930616	0.208254	0.335988	95.06	-19.6	-48.72	0.2985	-0.0495	-0.454	
-0.926834	0.214598	0.36417	89.81	-17.29	-51.1	0.2986	-0.0467	-0.4463	
-0.954772	0.225212	0.354776	90.16	-12.6	-53.06	0.2895	-0.0558	-0.4414	
-0.93574	0.210084	0.369416	82.18	-14.21	-53.41	0.291	-0.0542	-0.4461	
-0.904386	0.216184	0.372466	81.13	-11.06	-52.57	0.2861	-0.0763	-0.4472	
-0.898164	0.206424	0.385276	77.98	-8.54	-51.52	0.2877	-0.0719	-0.4458	
-0.905606	0.190198	0.377224	78.33	-4.69	-50.12	0.2937	-0.0687	-0.4505	
-0.92171	0.183366	0.383324	74.41	-0.14	-47.95	0.2933	-0.085	-0.4424	
-0.920978	0.163602	0.392474	69.37	0.7	-43.89	0.2947	-0.0907	-0.4469	
-0.907924	0.15189	0.392962	67.76	0.42	-40.46	0.2947	-0.0895	-0.433	
-0.883402	0.126758	0.40077	60.69	1.26	-36.47	0.2991	-0.094	-0.4282	
-0.892552	0.144326	0.393816	63.49	3.08	-32.76	0.2962	-0.0909	-0.436	
-0.914268	0.133224	0.395158	55.02	7.91	-28.49	0.3139	-0.0966	-0.4266	
-0.922564	0.108336	0.386496	54.88	7	-24.08	0.2931	-0.097	-0.4281	
-0.91927	0.11773	0.37393	51.73	9.03	-21.56	0.3018	-0.1029	-0.4187	
-0.915122	0.134932	0.38125	50.19	9.59	-19.81	0.3049	-0.0957	-0.4096	
-0.912072	0.141398	0.374052	45.57	8.05	-16.94	0.3045	-0.1191	-0.4122	
-0.924882	0.148718	0.373198	39.9	9.94	-14.42	0.3105	-0.1131	-0.4123	
-0.931836	0.130784	0.36844	33.95	8.82	-11.9	0.3164	-0.1145	-0.4076	
-0.9333	0.121146	0.361852	31.29	7.77	-10.29	0.3104	-0.1178	-0.3982	
-0.925004	0.109434	0.360266	24.43	6.86	-8.82	0.3164	-0.1147	-0.3983	
-0.951356	0.119682	0.361974	20.44	6.16	-7	0.3162	-0.1264	-0.3981	
-0.952088	0.108824	0.368196	16.24	4.06	-5.18	0.3087	-0.1266	-0.3965	
-0.924394	0.092842	0.354044	13.02	1.33	-3.36	0.3042	-0.1297	-0.3949	
-0.946232	0.085888	0.3416	10.57	0.49	-2.73	0.3282	-0.1216	-0.4075	
-0.953918	0.085156	0.339038	6.58	0.14	-2.87	0.3222	-0.1234	-0.3997	
-0.956114	0.088084	0.34526	0.84	0.63	-2.17	0.319	-0.1322	-0.3995	
-0.952454	0.097356	0.346236	-1.82	-0.77	-1.33	0.3252	-0.1206	-0.3889	
-0.943792	0.082716	0.351238	-3.99	-0.49	-0.77	0.3221	-0.1266	-0.3857	
-0.93269	0.090646	0.34648	-5.46	-0.21	-1.54	0.319	-0.131	-0.3871	
-0.931592	0.108946	0.34465	-10.01	1.82	-1.75	0.3163	-0.1191	-0.3982	
-0.943792	0.10736	0.329156	-14.77	3.01	0.21	0.3177	-0.1236	-0.3904	
-0.974292	0.076982	0.31171	-20.58	4.41	3.29	0.3163	-0.1206	-0.3951	
-0.963312	0.079666	0.319152	-22.82	3.85	5.46	0.3178	-0.119	-0.4029	
-0.962702	0.08418	0.334402	-27.02	3.43	6.93	0.3254	-0.113	-0.4015	
-0.93818	0.088328	0.351116	-29.12	1.4	8.19	0.3162	-0.1264	-0.4012	
-0.92232	0.082594	0.354288	-32.62	2.66	8.33	0.3268	-0.1159	-0.4014	
-0.932202	0.09577	0.321836	-34.16	2.8	8.61	0.315	-0.1132	-0.4046	
-0.956358	0.106384	0.314394	-39.27	4.2	10.08	0.312	-0.1146	-0.4061	
-0.966606	0.111996	0.333792	-42.98	6.16	13.23	0.3225	-0.1057	-0.4032	
-0.963434	0.116144	0.334036	-47.46	6.37	16.24	0.3182	-0.1012	-0.411	
-0.972096	0.088328	0.305854	-48.37	3.99	19.04	0.3227	-0.1012	-0.411	
-0.955992	0.086742	0.307684	-45.5	0.98	19.95	0.3167	-0.0999	-0.408	
-0.945134	0.095648	0.317444	-46.76	-2.87	19.88	0.3126	-0.0851	-0.4176	
-0.956968	0.101992	0.34221	-57.82	0.42	20.09	0.3171	-0.0849	-0.4222	
-0.956724	0.133224	0.32391	-55.79	-2.73	22.4	0.3155	-0.0879	-0.4206	
-0.983686	0.128588	0.303902	-63.35	-1.54	24.92	0.3052	-0.081	-0.413	
-0.972218	0.118828	0.318664	-66.29	-3.01	25.34	0.3144	-0.069	-0.4148	
-0.945866	0.10797	0.309392	-69.09	-5.04	25.62	0.3083	-0.0778	-0.4224	
-0.972096	0.080398	0.322934	-73.43	-0.28	26.88	0.316	-0.06439999	-0.4273	
-0.978196	0.102846	0.318542	-58.1	-3.57	26.67	0.3057	-0.056	-0.4182	
-0.96807	0.110898	0.313784	-62.79	-7.77	24.22	0.3116	-0.0602	-0.4181	
-0.94062	0.096624	0.326838	-65.45	-9.24	21.14	0.3133	-0.0511	-0.4338	
-0.921466	0.058804	0.3355	-75.53	-9.31	21.56	0.3044	-0.0511	-0.4431	
-0.95709	0.030744	0.35319	-73.43	-6.72	22.4	0.303	-0.0468	-0.4386	
-0.9699	0.08906	0.34038	-48.02	-4.2	21.07	0.2987	-0.0395	-0.4418	
-0.944646	0.102114	0.318908	-63.35	-6.86	21	0.3094	-0.026	-0.4483	
-0.940986	0.040748	0.348798	-82.04	-4.9	23.24	0.299	-0.0234	-0.4391	
-0.917074	0.033916	0.3721	-60.9	-3.08	24.43	0.2932	-0.0204	-0.4515	
-0.935618	0.053314	0.377834	-56	-7.7	22.68	0.3037	-0.013	-0.4424	
-0.945134	0.065148	0.322568	-56.49	-1.89	20.65	0.3036	-0.0159	-0.447	
-0.94001	0.058194	0.313174	-64.61	-3.01	21.49	0.2919	-0.0075	-0.4394	
-0.944524	0.017934	0.365512	-74.13	2.17	22.05	0.3037	-0.0114	-0.4533	
-0.919026	0.031964	0.402356	-59.92	0.91	21.91	0.2998	0.0119	-0.4553	
-0.931348	0.060146	0.362828	-56.98	-0.14	21.91	0.3057	0.0107	-0.46	
-0.966118	0.039528	0.318298	-58.31	-6.72	23.94	0.3073	0.0208	-0.4509	
-0.9638	0.006832	0.349652	-57.26	-12.18	27.02	0.2866	0.0219	-0.454	
-0.939766	-0.015494	0.390034	-55.79	-7.84	28.14	0.3044	0.0237	-0.4509	
-0.940986	-0.024156	0.387716	-51.45	-5.18	25.9	0.3029	0.0193	-0.4524	
-0.95343	-0.003294	0.334524	-41.37	-4.9	22.68	0.3047	0.0356	-0.4605	
-0.957822	-0.003294	0.337208	-43.82	-8.19	20.37	0.3091	0.0354	-0.4497	
-0.945988	-0.016348	0.381738	-41.51	-5.11	19.53	0.2927	0.0307	-0.4464	
-0.922198	-0.033794	0.413336	-34.09	-8.82	17.5	0.302	0.0501	-0.4562	
-0.916464	-0.04026	0.402966	-21.49	-6.23	13.86	0.2872	0.0512	-0.4531	
-0.930494	-0.033184	0.385642	-14.98	-0.98	9.87	0.2916	0.05	-0.4608	
-0.94245	-0.026108	0.40626	-7.42	1.54	6.86	0.2928	0.0394	-0.4435	
-0.926712	-0.002806	0.429684	1.47	-1.82	4.34	0.2972	0.034	-0.4651	
-0.919514	0.013542	0.413824	-3.57	-2.17	2.03	0.2871	0.0468	-0.4545	
-0.908778	0.02379	0.412238	7	-3.78	0.49	0.2944	0.0427	-0.4606	
-0.88511	0.021594	0.454938	10.57	-5.95	-0.14	0.2867	0.0266	-0.4681	
-0.889258	0.022936	0.425292	8.96	-3.08	-1.54	0.2855	0.0439	-0.456	
-0.902678	0.033916	0.404674	14.63	0.35	-3.64	0.3018	0.0384	-0.4606	
-0.916708	0.052338	0.41175	15.75	4.9	-4.34	0.2898	0.0351	-0.4527	
-0.918782	0.042334	0.427244	10.15	6.51	-4.48	0.2941	0.028	-0.4572	
-0.92476	0.047092	0.421754	7.07	7	-4.97	0.2868	0.0308	-0.4588	
-0.921954	0.053802	0.417728	8.05	0.35	-4.69	0.2987	0.0323	-0.448	
-0.929396	0.055998	0.415776	7.35	-1.47	-3.15	0.3001	0.0323	-0.4465	
-0.920002	0.06466	0.426268	8.75	0.28	-1.12	0.2883	0.0336	-0.4496	
-0.88206	0.066734	0.439078	3.92	-0.14	-0.28	0.2883	0.0323	-0.4589	
-0.88267	0.03477	0.425902	-5.74	2.8	0.28	0.3001	0.0294	-0.4495	
-0.905972	0.01586	0.40748	-1.89	2.87	0.91	0.3002	0.0339	-0.4558	
-0.931714	0.027694	0.394548	7.77	1.61	-0.07	0.2941	0.0266	-0.4619	
-0.949892	0.043676	0.401868	10.22	0.56	-1.68	0.2927	0.0322	-0.4527	
-0.936472	0.059536	0.394426	8.54	-1.33	-3.57	0.2942	0.0308	-0.4526	
-0.922442	0.076494	0.388082	10.71	-3.64	-5.18	0.2972	0.0309	-0.4557	
-0.918172	0.079422	0.385764	11.62	-3.78	-5.74	0.3017	0.034	-0.4589	
-0.920734	0.062586	0.396134	11.69	-2.59	-4.97	0.2897	0.0265	-0.4634	
-0.926224	0.05246	0.403698	10.78	0.28	-4.06	0.306	0.0253	-0.4572	
-0.920978	0.052948	0.413946	11.83	-0.7	-3.36	0.2972	0.0311	-0.462	
-0.934032	0.064172	0.407236	9.59	-1.4	-3.22	0.2971	0.0265	-0.4541	
-0.93269	0.06161	0.398452	7.77	-4.62	-2.31	0.2851	0.0234	-0.4571	
-0.928786	0.050996	0.396622	2.38	-6.65	-1.96	0.2972	0.0309	-0.4557	
-0.930738	0.03233	0.400526	1.68	-9.73	-1.75	0.2896	0.0233	-0.4494	
-0.92049	0.030622	0.39345	6.23	6.93	-1.82	0.2969	0.0163	-0.4585	
-0.91988	0.043066	0.406382	10.22	-4.9	-1.47	0.291	0.0206	-0.4602	
-0.918538	0.055876	0.406016	10.22	-3.92	-1.54	0.2941	0.0266	-0.4634	
-0.91927	0.052826	0.406504	7.7	-3.01	-2.38	0.2851	0.0206	-0.4648	
-0.914146	0.071614	0.41541	9.45	-5.6	-3.29	0.2879	0.0118	-0.4584	
-0.915244	0.087108	0.408212	7.35	-4.06	-4.55	0.2881	0.0221	-0.4633	
-0.92049	0.09552599	0.40992	6.93	-3.64	-5.18	0.2911	0.0222	-0.4633	
-0.910974	0.099552	0.41297	6.37	-3.5	-5.6	0.291	0.0205	-0.454	
-0.903898	0.09857599	0.4026	5.25	-3.57	-5.81	0.2941	0.0266	-0.4619	
-0.91317	0.098942	0.406748	4.69	-0.7	-5.6	0.288	0.0177	-0.4617	
-0.92415	0.099674	0.40443	4.76	0	-6.09	0.2851	0.0233	-0.454	
-0.935984	0.104066	0.395158	3.36	0.98	-6.44	0.2939	0.0179	-0.4648	
-0.924028	0.102236	0.413214	1.33	-1.89	-6.65	0.282	0.0159	-0.4492	
-0.91683	0.101382	0.408334	-0.98	-2.94	-5.67	0.2881	0.0236	-0.4633	
-0.916708	0.085766	0.40443	-1.47	-3.78	-2.8	0.2852	0.0236	-0.468	
-0.912438	0.080886	0.419558	-2.59	-3.08	-1.26	0.2896	0.0264	-0.4587	
-0.910852	0.077836	0.421876	-3.22	-2.1	-0.63	0.2851	0.0222	-0.4695	
-0.906094	0.071858	0.416386	-4.27	-2.45	1.05	0.2747	0.0202	-0.4555	
-0.914024	0.07747	0.420412	-3.71	-3.15	2.66	0.2745	0.0142	-0.4476	
-0.910852	0.076616	0.426024	-3.5	-2.73	3.29	0.2895	0.0177	-0.4585	
-0.907192	0.072956	0.430538	-4.27	-3.15	3.99	0.2852	0.0265	-0.4665	
-0.908656	0.066246	0.423462	-4.41	-2.87	4.76	0.2866	0.0223	-0.4757	
-0.896212	0.056608	0.432734	-4.41	-3.78	4.97	0.2925	0.0222	-0.4649	
-0.895724	0.057096	0.437492	-4.34	-3.43	4.9	0.2865	0.019	-0.4539	
-0.896456	0.05429	0.440298	-2.8	-1.96	4.62	0.2851	0.0191	-0.4617	
-0.897188	0.047336	0.437736	-1.26	-1.4	4.41	0.2865	0.0178	-0.4679	
-0.923052	0.069662	0.420534	-1.54	0.14	2.59	0.2865	0.019	-0.4539	
-0.920002	0.061732	0.426756	-1.4	-0.84	2.1	0.2867	0.0251	-0.4649	
-0.911706	0.05429	0.426512	-2.59	-0.91	1.75	0.2895	0.0179	-0.4694	
-0.902312	0.053802	0.427	-1.12	-1.33	0.98	0.2806	0.0193	-0.4741	
-0.89975	0.053192	0.426268	-1.05	-0.21	0.07	0.2719	0.0277	-0.4665	
-0.912438	0.05978	0.421144	0.56	1.19	-0.91	0.2895	0.0193	-0.4679	
-0.917684	0.064782	0.429318	2.24	1.26	-1.61	0.2868	0.0323	-0.462	
-0.91256	0.057096	0.427244	0.77	1.12	-2.1	0.2806	0.0204	-0.457	
-0.90951	0.050142	0.426512	0.56	0.63	-1.82	0.2897	0.0266	-0.465	
-0.910608	0.054778	0.43432	2.38	0.21	-1.05	0.2761	0.016	-0.46	
-0.906948	0.055388	0.438346	2.1	0.84	-0.21	0.2837	0.025	-0.4649	
-0.8967	0.05063	0.431636	1.54	1.4	0.7	0.2836	0.0205	-0.4602	
-0.903288	0.050142	0.435662	3.08	3.85	1.05	0.2791	0.0162	-0.4678	
-0.903776	0.06039	0.423584	4.06	2.52	1.54	0.2761	0.0176	-0.4694	
-0.91012	0.070882	0.419314	3.78	5.46	2.45	0.2941	0.0251	-0.4603	
-0.905484	0.066978	0.432856	1.54	6.37	3.43	0.2878	0.0103	-0.4584	
-0.906216	0.063928	0.452376	2.94	8.47	4.13	0.291	0.0177	-0.4601	
-0.904752	0.080276	0.42944	2.17	7.14	4.2	0.2835	0.0147	-0.4647	
-0.91988	0.09272	0.429196	0.28	5.6	4.2	0.2924	0.0147	-0.4554	
-0.932568	0.090158	0.414434	-4.76	4.97	6.37	0.2806	0.0175	-0.4585	
-0.91866	0.078568	0.429196	-7.98	2.17	8.4	0.2939	0.0148	-0.4569	
-0.923784	0.063684	0.40138	-12.18	0.77	10.01	0.2894	0.0149	-0.4663	
-0.93086	0.040016	0.41602	-9.94	-4.13	9.8	0.2984	0.0152	-0.4725	
-0.944646	0.035136	0.335256	-6.09	-6.86	8.68	0.2909	0.012	-0.4662	
-0.937082	0.08113	0.335622	9.66	-15.05	6.51	0.2836	0.022	-0.4602	
-0.947696	0.117852	0.365024	7.14	-9.87	1.68	0.2895	0.0178	-0.4648	