Sensor string: A
Serial number: 1970-01-0000
Firmware version: 2,015
Hardware version: 2,2
Calibration quality: 5
ax	ay	az	gx	gy	gz	mx	my	mz

-0.019886	0.909022	0.422608	4.69	-5.18	-1.4	-0.0814	-0.3052	-0.412	Reference
-0.017324	0.91195	0.421144	4.41	-4.97	-0.98	-0.0857	-0.2961	-0.4074	
-0.019642	0.914634	0.416996	4.06	-4.2	-0.77	-0.0887	-0.2853	-0.4233	
-0.019642	0.914268	0.41541	3.57	-3.71	-0.28	-0.0914	-0.2916	-0.4013	
-0.017934	0.913292	0.418216	3.01	-3.08	0.14	-0.0829	-0.2945	-0.4121	
-0.011346	0.91256	0.41968	2.73	-2.24	0.56	-0.08859999	-0.2839	-0.4092	
-0.01159	0.914268	0.420534	2.38	-0.91	0.98	-0.0928	-0.3006	-0.4106	
-0.011712	0.914024	0.415532	2.03	0.56	1.19	-0.0815	-0.29	-0.4091	
-0.012566	0.914634	0.4209	1.75	1.19	1.26	-0.08419999	-0.3023	-0.4027	
-0.022326	0.918294	0.410164	1.61	2.52	1.26	-0.0843	-0.2961	-0.4074	
-0.0244	0.924028	0.40748	1.68	3.01	0.91	-0.0871	-0.3021	-0.4121	
-0.028914	0.925492	0.404674	0.91	3.08	0.63	-0.08	-0.3052	-0.4104	
-0.043432	0.924516	0.409798	1.33	3.22	0.42	-0.0872	-0.3004	-0.4262	
-0.030012	0.913292	0.403454	0.98	2.66	0.28	-0.0829	-0.2991	-0.4168	
-0.032696	0.918416	0.40443	0.56	2.52	0.28	-0.08989999	-0.3038	-0.4011	
-0.029036	0.909998	0.40504	0.49	2.24	0.63	-0.0857	-0.2946	-0.4043	
-0.028792	0.90463	0.405162	-0.07	2.17	1.12	-0.087	-0.3129	-0.4057	
-0.032452	0.911096	0.407236	0.21	1.54	1.33	-0.0871	-0.3037	-0.4121	
-0.029402	0.912682	0.409432	0.63	0.7	1.26	-0.0814	-0.3038	-0.3979	
-0.025986	0.913048	0.413214	0.56	0.14	1.12	-0.0828	-0.3037	-0.4089	
-0.026962	0.913658	0.41419	0.63	0.21	0.84	-0.0828	-0.3052	-0.4105	
-0.027572	0.91439	0.416264	0.91	0.42	0.42	-0.0815	-0.3006	-0.4183	
-0.027938	0.907436	0.417118	0.63	-0.14	0.14	-0.09	-0.2976	-0.4106	
-0.0244	0.905118	0.41358	0.77	0	-0.07	-0.0885	-0.3067	-0.4105	
-0.029646	0.91073	0.415654	0.84	-0.21	-0.42	-0.0743	-0.2992	-0.4042	
-0.032696	0.910364	0.413946	0.98	-0.14	-0.49	-0.08	-0.3036	-0.4152	
-0.031598	0.91195	0.415654	1.26	-0.28	-0.49	-0.0885	-0.2976	-0.4059	
-0.028304	0.910852	0.419436	1.26	-1.68	-0.98	-0.08	-0.2976	-0.4105	
-0.030378	0.91195	0.408822	1.54	-0.42	-1.05	-0.0857	-0.3053	-0.4058	
-0.032452	0.915976	0.403576	1.47	-0.98	-1.05	-0.0856	-0.3023	-0.398	
-0.031842	0.920124	0.403698	1.75	-1.47	-1.4	-0.0786	-0.3021	-0.4136	
-0.03416	0.924028	0.400282	1.68	-1.12	-1.33	-0.08859999	-0.296	-0.4153	
-0.02867	0.923662	0.401014	1.54	-1.82	-1.4	-0.0828	-0.3022	-0.4105	
-0.027572	0.923784	0.400526	1.19	-1.47	-1.26	-0.0771	-0.3114	-0.4025	
-0.030622	0.924028	0.39711	0.77	-0.98	-1.19	-0.0857	-0.2962	-0.4012	
-0.031232	0.91622	0.387228	-0.07	-0.98	-1.12	-0.08989999	-0.3038	-0.3996	
-0.031598	0.919148	0.384056	0.21	-0.84	-1.26	-0.0856	-0.3023	-0.4011	
-0.03843	0.931592	0.37637	1.05	-1.26	-1.05	-0.0771	-0.3068	-0.4073	
-0.045872	0.94306	0.374906	1.19	-2.24	-0.98	-0.0843	-0.3007	-0.409	
-0.043798	0.949526	0.366976	-0.14	-1.89	-0.98	-0.0857	-0.2977	-0.4043	
-0.045872	0.957456	0.36173	-1.68	-1.75	-0.91	-0.08	-0.3038	-0.4042	
-0.051362	0.949526	0.347456	-4.62	-2.03	-0.56	-0.0885	-0.3023	-0.4011	
-0.054778	0.964898	0.346846	-6.37	-2.38	-0.42	-0.08419999	-0.3007	-0.4043	
-0.058316	0.983808	0.35197	-8.19	-2.17	0.14	-0.0828	-0.3129	-0.4057	
-0.05917	0.979538	0.350384	-11.41	-2.31	1.12	-0.0885	-0.3006	-0.409	
-0.060878	0.979172	0.339282	-15.19	-2.59	2.17	-0.08989999	-0.2977	-0.3981	
-0.064294	0.993812	0.348188	-19.39	-2.17	2.87	-0.0857	-0.3082	-0.4151	
-0.064172	0.99308	0.347944	-24.71	-1.12	3.57	-0.0929	-0.2899	-0.4154	
-0.060146	0.99735	0.34587	-30.66	-0.42	4.55	-0.0929	-0.2914	-0.4154	
-0.060268	0.998204	0.346724	-36.68	-0.7	6.02	-0.0872	-0.2899	-0.4216	
-0.063318	0.997472	0.341966	-42.28	0.07	7.7	-0.0872	-0.2807	-0.4202	
-0.061122	1.007598	0.34404	-48.93	-3.43	8.4	-0.0958	-0.2745	-0.4344	
-0.052216	0.997716	0.348432	-58.1	-6.58	9.66	-0.09869999	-0.2714	-0.4344	
-0.085766	0.983808	0.390034	-59.92	3.99	10.78	-0.0917	-0.2546	-0.4456	
-0.038308	0.929274	0.380274	-73.29	-4.06	16.66	-0.0988	-0.2515	-0.4441	
-0.042944	0.88389	0.387716	-82.74	10.08	21.07	-0.0961	-0.2347	-0.4536	
-0.051484	0.867908	0.4087	-84.84	3.01	20.72	-0.0975	-0.2376	-0.4646	
-0.024888	0.846436	0.441152	-86.38	-3.15	21.98	-0.0962	-0.2192	-0.4757	
-0.008662	0.83021	0.452498	-90.86	-3.64	22.82	-0.1076	-0.2101	-0.4759	
-0.01464	0.802516	0.484584	-98	-4.34	23.45	-0.1049	-0.1978	-0.4823	
-0.01342	0.756034	0.504226	-104.51	-4.2	24.78	-0.1035	-0.178	-0.4872	
-0.00244	0.699548	0.554612	-106.75	-3.85	25.13	-0.1107	-0.1642	-0.4937	
0.02684	0.664778	0.58865	-103.6	-7	22.75	-0.1109	-0.1246	-0.5004	
0.037698	0.65331	0.600362	-107.8	-10.36	22.82	-0.111	-0.1169	-0.5115	
0.049166	0.614514	0.641476	-116.55	-9.31	24.29	-0.1182	-0.09999999	-0.5211	
0.076738	0.52521	0.703086	-117.39	-4.9	24.15	-0.1211	-0.0711	-0.5152	
0.06771	0.481778	0.731268	-112	-2.73	23.24	-0.1197	-0.056	-0.5138	
0.045018	0.490806	0.746152	-107.8	-6.58	19.53	-0.1269	-0.0467	-0.5249	
0.046726	0.451522	0.76982	-106.68	-8.68	16.45	-0.1255	-0.0195	-0.5064	
0.07686	0.377346	0.781288	-108.99	-9.73	15.75	-0.1228	-0.0102	-0.5222	
0.099796	0.332938	0.789096	-109.55	-13.09	16.03	-0.1257	0.0201	-0.521	
0.12261	0.265106	0.818498	-109.27	-14.42	16.17	-0.13	0.0383	-0.515	
0.147986	0.211426	0.860466	-105.56	-13.09	15.61	-0.1286	0.0504	-0.512	
0.144326	0.18361	0.861564	-100.59	-13.16	15.4	-0.1357	0.058	-0.5106	
0.125538	0.171532	0.877546	-97.86	-13.65	16.17	-0.1287	0.0808	-0.5108	
0.109068	0.12444	0.869616	-97.23	-10.5	17.43	-0.1345	0.0991	-0.5126	
0.111874	0.09162199	0.885598	-94.64	-14.56	17.57	-0.1387	0.1096	-0.4987	
0.130174	0.04758	0.867176	-96.81	-13.02	18.76	-0.1516	0.125	-0.5099	
0.133346	0.029036	0.873276	-92.82	-16.31	19.32	-0.1445	0.134	-0.5021	
0.136152	-0.015738	0.875228	-90.79	-18.27	19.39	-0.1388	0.1643	-0.4883	
0.149084	-0.076616	0.89853	-90.37	-17.29	19.39	-0.1403	0.1764	-0.4869	
0.156648	-0.103822	0.929396	-86.73	-19.81	19.04	-0.1488	0.1764	-0.4838	
0.163968	-0.139446	0.927078	-88.06	-18.41	18.06	-0.1474	0.1947	-0.4825	
0.201178	-0.171532	0.955382	-83.86	-19.18	18.27	-0.1375	0.2006	-0.4731	
0.224846	-0.207888	0.961604	-83.44	-18.06	18.41	-0.1404	0.2174	-0.4749	
0.249002	-0.252418	0.960262	-83.79	-14.77	19.67	-0.1474	0.2278	-0.4578	
0.25132	-0.267058	0.985516	-78.47	-15.61	21.07	-0.1475	0.2461	-0.458	
0.263642	-0.323422	0.987224	-75.88	-12.04	20.3	-0.1503	0.2551	-0.4456	
0.24888	-0.34099	0.997472	-72.66	-11.2	18.48	-0.1531	0.2686	-0.4317	
0.24461	-0.35624	0.987956	-67.27	-10.92	15.68	-0.1488	0.264	-0.427	
0.229482	-0.383202	0.970876	-63.35	-11.48	13.86	-0.1418	0.2867	-0.4209	
0.230336	-0.376858	0.967216	-58.87	-13.37	12.6	-0.1489	0.2868	-0.4225	
0.239242	-0.377102	0.977464	-55.93	-15.33	11.76	-0.1432	0.3003	-0.4101	
0.252662	-0.421144	0.964776	-53.48	-14.63	9.38	-0.1347	0.3063	-0.407	
0.2684	-0.45811	0.96258	-49.84	-13.37	8.75	-0.1531	0.323	-0.3964	
0.276696	-0.459208	0.945256	-48.65	-14	8.33	-0.1432	0.3199	-0.3931	
0.296338	-0.460672	0.954284	-45.36	-13.72	8.54	-0.1517	0.3198	-0.3885	
0.30195	-0.481778	0.948062	-42.49	-9.17	9.66	-0.1503	0.3411	-0.3872	
0.287676	-0.505934	0.938912	-39.13	-5.6	10.36	-0.1488	0.3274	-0.3839	
0.27816	-0.510936	0.925614	-34.65	-4.27	10.22	-0.1488	0.3394	-0.3746	
0.265594	-0.506422	0.905606	-31.36	-2.66	9.8	-0.1417	0.3393	-0.3667	
0.26779	-0.521184	0.914146	-24.08	-5.04	8.4	-0.1516	0.3393	-0.359	
0.27084	-0.55205	0.925858	-18.62	-3.22	7.42	-0.1374	0.3468	-0.3605	
0.266082	-0.548756	0.922076	-14.91	-4.13	6.3	-0.146	0.3499	-0.3606	
0.277916	-0.530212	0.917318	-11.48	-2.45	5.67	-0.1289	0.3528	-0.3543	
0.278526	-0.531432	0.932324	-6.72	-3.29	5.04	-0.1445	0.3514	-0.3591	
0.277916	-0.54168	0.924394	-3.22	-1.47	4.48	-0.1431	0.3575	-0.3591	
0.293288	-0.53497	0.933666	1.96	-2.24	3.57	-0.1431	0.3437	-0.3527	
0.294508	-0.527284	0.915122	6.44	-0.91	3.36	-0.1417	0.3468	-0.3574	
0.284626	-0.518744	0.90951	10.08	0.63	3.15	-0.1375	0.359	-0.3591	
0.265472	-0.50142	0.905972	13.09	1.05	2.31	-0.1488	0.353	-0.3654	
0.264618	-0.504836	0.928542	17.78	0.35	1.33	-0.1388	0.3438	-0.3621	
0.274744	-0.522038	0.950624	23.59	-0.63	-0.28	-0.1432	0.3531	-0.3763	
0.267912	-0.50386	0.946476	28.84	-0.84	-2.24	-0.1374	0.3393	-0.362	
0.274744	-0.505202	0.957456	33.81	-1.61	-3.5	-0.1446	0.3409	-0.3715	
0.295728	-0.52338	0.96441	40.25	-0.63	-4.97	-0.1446	0.3349	-0.3761	
0.299876	-0.502762	0.947452	44.52	0.91	-6.02	-0.1474	0.3363	-0.3699	
0.283406	-0.474336	0.941474	47.81	0.35	-7.7	-0.1403	0.3364	-0.3777	
0.283284	-0.453718	0.95282	53.06	-0.84	-9.31	-0.146	0.3228	-0.3869	
0.295972	-0.46787	0.96685	58.59	0.14	-10.92	-0.1446	0.3229	-0.3916	
0.289994	-0.436882	0.950868	61.39	1.68	-11.55	-0.1389	0.3123	-0.4009	
0.2867	-0.398696	0.958554	65.24	2.1	-13.09	-0.1517	0.314	-0.4072	
0.302194	-0.413702	0.983076	71.33	2.1	-15.05	-0.1432	0.2988	-0.4117	
0.311466	-0.412726	0.984906	75.67	4.97	-15.12	-0.156	0.2883	-0.4179	
0.30866	-0.355996	0.97783	79.73	6.79	-15.4	-0.1545	0.2807	-0.4225	
0.298412	-0.322568	0.962824	83.65	8.61	-17.29	-0.1589	0.2688	-0.4443	
0.290848	-0.299144	0.969656	87.99	10.29	-17.43	-0.1588	0.2582	-0.4457	
0.273524	-0.262666	0.945378	92.54	11.55	-18.55	-0.1489	0.2354	-0.4548	
0.2745	-0.217404	0.937936	96.46	9.8	-20.44	-0.1489	0.2279	-0.4594	
0.242658	-0.17812	0.91988	97.79	11.06	-20.72	-0.1517	0.2188	-0.464	
0.2196	-0.130052	0.901336	100.17	11.55	-21.21	-0.1559	0.196	-0.4653	
0.214964	-0.06771	0.896944	103.81	12.95	-21.7	-0.1645	0.1932	-0.481	
0.188734	-0.014762	0.859368	104.16	11.41	-22.47	-0.1587	0.1597	-0.4821	
0.188612	0.017446	0.840092	104.3	10.22	-23.38	-0.1615	0.1583	-0.4884	
0.190564	0.05063	0.844728	105.42	10.15	-23.24	-0.1516	0.1386	-0.4991	
0.183122	0.090158	0.833748	106.12	9.59	-23.45	-0.1515	0.1234	-0.4973	
0.177876	0.141398	0.828624	105.91	8.54	-23.31	-0.1529	0.1097	-0.5019	
0.16897	0.197518	0.810812	104.16	9.52	-21.63	-0.153	0.0962	-0.5174	
0.177876	0.22387	0.83021	103.81	9.8	-20.23	-0.1542	0.0596	-0.5107	
0.171166	0.282186	0.804834	102.9	10.64	-19.39	-0.1442	0.0428	-0.5057	
0.160796	0.328546	0.78812	100.94	10.78	-19.32	-0.1427	0.014	-0.5101	
0.152378	0.363682	0.78263	99.68	11.55	-19.32	-0.1526	0.0095	-0.5132	
0.14518	0.381616	0.75823	98.7	12.11	-19.25	-0.1469	-0.0102	-0.5129	
0.131028	0.403698	0.749324	99.75	10.92	-19.18	-0.1511	-0.0224	-0.5128	
0.125294	0.451522	0.748592	100.66	9.31	-19.18	-0.134	-0.0452	-0.5156	
0.115534	0.49227	0.726388	100.38	8.33	-19.81	-0.1438	-0.056	-0.503	
0.11285	0.526552	0.723582	100.24	9.31	-19.74	-0.1396	-0.0816	-0.5214	
0.09942999	0.546438	0.695278	98.14	11.97	-20.44	-0.1294	-0.1002	-0.4993	
0.093452	0.572302	0.668804	99.19	9.66	-20.65	-0.1394	-0.1032	-0.5008	
0.09272	0.62342	0.626714	97.72	11.41	-21.21	-0.135	-0.1291	-0.4958	
0.073566	0.66429	0.615856	97.65	7.91	-21.14	-0.1265	-0.1413	-0.4987	
0.061488	0.653676	0.59353	95.34	8.89	-21.07	-0.1236	-0.1427	-0.505	
0.057706	0.662216	0.556442	93.73	9.31	-20.51	-0.1192	-0.1748	-0.492	
0.049654	0.71431	0.52521	94.99	4.55	-19.67	-0.1163	-0.178	-0.4826	
0.0427	0.77836	0.49166	94.29	7.07	-18.97	-0.1233	-0.1964	-0.4699	
0.02867	0.81557	0.460794	93.31	7.91	-18.34	-0.1161	-0.2101	-0.4681	
0.019276	0.831308	0.42883	92.19	8.89	-19.18	-0.1047	-0.2269	-0.4663	
0.01342	0.844362	0.379786	92.54	8.54	-18.97	-0.1074	-0.2468	-0.4567	
0.007442	0.85156	0.348798	91.49	10.29	-18.83	-0.1017	-0.2514	-0.4519	
0.0061	0.847046	0.332084	91.91	12.95	-18.69	-0.1044	-0.2652	-0.4408	
-0.002684	0.881816	0.279624	94.99	13.79	-18.06	-0.09869999	-0.279	-0.4359	
0.000122	0.932446	0.238144	98	12.04	-18.2	-0.08859999	-0.2823	-0.4202	
-0.055632	0.994544	0.200446	96.74	12.81	-16.73	-0.0928	-0.3037	-0.4074	
-0.026596	1.01016	0.217282	96.74	5.18	-20.3	-0.0969	-0.3114	-0.3948	
-0.108092	1.125084	0.152378	84.84	11.2	-14.7	-0.0884	-0.3236	-0.3946	
-0.099918	1.100562	0.12505	74.97	13.3	-12.88	-0.0826	-0.3283	-0.3883	
-0.07503	1.080676	0.120902	66.57	8.75	-12.39	-0.0739	-0.3468	-0.3645	
-0.068808	1.074454	0.138836	60.55	6.79	-9.59	-0.0796	-0.3423	-0.3599	
-0.049776	1.037976	0.143594	54.6	6.23	-7.91	-0.0682	-0.3531	-0.3503	
-0.035624	1.03883	0.125782	50.54	5.67	-5.32	-0.0639	-0.3698	-0.3564	
-0.047336	1.045906	0.138592	47.53	8.54	-4.48	-0.061	-0.3714	-0.3469	
-0.072224	1.033706	0.124562	44.24	7.63	-3.92	-0.0681	-0.3699	-0.3439	
-0.056242	1.016138	0.113704	42.21	5.53	-4.13	-0.0652	-0.3761	-0.3359	
-0.063684	1.033584	0.114314	42.07	3.29	-5.67	-0.0608	-0.3778	-0.3187	
-0.048556	1.016504	0.119804	40.04	2.31	-8.26	-0.0665	-0.3809	-0.3108	
-0.066734	1.005768	0.106628	36.47	2.1	-8.89	-0.0579	-0.3826	-0.3014	
-0.070516	1.001376	0.122122	35.77	-0.98	-10.85	-0.0593	-0.3887	-0.2982	
-0.062952	0.969046	0.0854	32.55	1.33	-12.25	-0.0564	-0.3978	-0.3043	
-0.065026	0.964044	0.094306	35.42	-0.63	-12.74	-0.0564	-0.3947	-0.3075	
-0.058316	0.96563	0.080154	36.96	-1.47	-12.53	-0.0493	-0.401	-0.2933	
-0.069784	0.997838	0.062342	35.21	-1.4	-12.46	-0.0563	-0.4101	-0.2901	
-0.087962	1.045662	0.05795	34.93	-3.01	-12.18	-0.0506	-0.4102	-0.2822	
-0.095404	1.041026	0.058804	33.18	-5.11	-11.27	-0.0506	-0.4103	-0.2807	
-0.084546	1.02236	0.035502	24.5	-4.55	-11.13	-0.0506	-0.4058	-0.2744	
-0.069662	1.034804	0.035258	23.1	-4.9	-11.55	-0.052	-0.4087	-0.2822	
-0.066368	1.039074	0.037576	23.87	-5.11	-10.71	-0.042	-0.412	-0.2665	
-0.076128	1.042246	0.01342	21	-3.64	-9.87	-0.0405	-0.4196	-0.268	
-0.08174	1.020896	-0.010858	11.62	-0.84	-8.61	-0.0419	-0.4273	-0.2553	
-0.094306	1.049932	-0.025742	8.68	0.42	-6.44	-0.0405	-0.4211	-0.2648	
-0.085888	1.056032	-0.030256	2.87	4.55	-4.62	-0.0405	-0.4105	-0.2587	
-0.092354	1.01748	-0.057462	-5.53	2.24	-6.37	-0.0405	-0.4151	-0.2602	
-0.10858	1.086654	-0.046726	7.07	14.84	-4.76	-0.0348	-0.4151	-0.2633	
-0.188246	1.126426	-0.093086	5.04	14.49	-3.15	-0.0362	-0.4289	-0.2537	
-0.164822	1.141432	-0.092964	-0.21	0.77	-3.5	-0.0319	-0.4228	-0.2538	
-0.118584	1.054202	-0.09857599	-10.5	-8.47	-3.22	-0.0319	-0.4334	-0.2584	
-0.098088	1.024312	-0.07686	-12.11	-9.8	-0.84	-0.0405	-0.4227	-0.257	
-0.11163	1.032974	-0.055266	-3.43	-4.97	2.38	-0.0348	-0.4257	-0.2616	
-0.120414	1.034804	-0.033672	-3.85	-1.54	3.5	-0.0348	-0.4228	-0.2569	
-0.103944	0.987102	-0.025986	-10.64	2.94	5.32	-0.0277	-0.4167	-0.2585	
-0.090036	0.999668	-0.043554	-12.46	7.21	7.28	-0.0292	-0.4196	-0.2648	
-0.10553	1.017724	-0.044652	-6.02	4.2	7.07	-0.0433	-0.4212	-0.2586	
-0.130174	1.060546	-0.037454	-4.69	5.53	7.91	-0.0405	-0.4211	-0.2648	
-0.135176	1.09556	-0.030012	-3.64	0.91	7.98	-0.0406	-0.4225	-0.2742	
-0.113826	1.057496	-0.001586	-6.65	-4.13	7.42	-0.0335	-0.412	-0.2664	
-0.088572	1.02419	0.005856	-13.72	-2.59	7.56	-0.0405	-0.4212	-0.2601	
-0.070028	1.026142	0.0061	-17.15	1.61	8.19	-0.042	-0.412	-0.2649	
-0.10187	1.050664	0.005246	-11.97	5.39	7.98	-0.0434	-0.4043	-0.2697	
-0.130052	1.064206	-0.004148	-14	3.78	7.7	-0.0434	-0.4181	-0.2664	
-0.106262	1.061644	0.0244	-14.14	-3.57	5.95	-0.0492	-0.4073	-0.2775	
-0.089182	1.0309	0.053558	-16.38	-5.81	4.9	-0.0449	-0.4104	-0.2728	
-0.074542	0.993568	0.049288	-23.66	-3.01	4.55	-0.0478	-0.4087	-0.2854	
-0.063928	0.998936	0.038796	-22.47	-2.45	4.06	-0.0506	-0.4163	-0.2821	
-0.067222	1.011868	0.048922	-15.19	-6.3	3.22	-0.0407	-0.4042	-0.2854	
-0.069418	1.026874	0.065758	-12.6	-7.49	3.15	-0.0449	-0.3951	-0.2777	
-0.066734	1.02297	0.069906	-17.57	-6.23	3.78	-0.0563	-0.4056	-0.287	
-0.058438	1.035048	0.064294	-20.44	-3.64	4.2	-0.0422	-0.407	-0.2994	
-0.065148	1.024922	0.069662	-19.6	-5.25	3.85	-0.0507	-0.3995	-0.2917	
-0.066856	1.012722	0.081496	-22.19	-4.97	3.57	-0.0493	-0.3994	-0.298	
-0.05673	1.018944	0.096014	-20.79	-3.22	3.29	-0.0579	-0.3978	-0.3075	
-0.048678	1.0187	0.108824	-19.74	-4.83	2.8	-0.0536	-0.3948	-0.3012	
-0.035746	1.021384	0.124928	-22.26	-5.53	3.64	-0.0508	-0.3902	-0.3012	
-0.0244	1.011136	0.155306	-23.66	-5.67	4.48	-0.0636	-0.4022	-0.3137	
-0.016226	0.97783	0.182268	-25.34	-6.09	6.02	-0.0608	-0.3854	-0.3201	
-0.020984	0.973682	0.199836	-25.06	-4.76	6.65	-0.0665	-0.3809	-0.3155	
-0.032818	0.96868	0.194102	-25.62	-2.38	6.72	-0.0622	-0.387	-0.3186	
-0.0305	0.982466	0.198982	-25.27	-3.85	5.53	-0.0537	-0.3824	-0.3201	
-0.013176	0.991494	0.221918	-24.5	-4.34	4.48	-0.0594	-0.3838	-0.3264	
-0.012566	0.972828	0.229848	-28.49	-3.71	5.04	-0.0694	-0.3838	-0.3249	
-0.02867	0.944768	0.230458	-34.51	-0.42	6.65	-0.06659999	-0.3746	-0.3313	
-0.036356	0.939888	0.215818	-36.47	4.2	6.93	-0.0638	-0.3669	-0.3392	
-0.031842	0.956602	0.200934	-33.88	3.78	4.97	-0.0624	-0.3683	-0.3501	
-0.03782	0.963434	0.207644	-29.12	-2.45	1.26	-0.0681	-0.3638	-0.3424	
-0.078446	0.973804	0.208254	-29.26	-3.99	-0.49	-0.0624	-0.3623	-0.3486	
-0.062098	0.991494	0.207888	-31.64	-7.56	-0.77	-0.07669999	-0.3545	-0.3566	
-0.047702	0.987712	0.229482	-31.5	-10.01	-2.31	-0.0696	-0.35	-0.3566	
-0.069784	0.99003	0.243634	-29.82	-6.93	-2.52	-0.0739	-0.356	-0.3613	
-0.061122	0.970144	0.253516	-29.89	-3.57	-1.75	-0.0768	-0.3529	-0.3676	
-0.029768	0.94794	0.271084	-28.91	-3.43	-1.05	-0.0768	-0.3453	-0.3645	
-0.019276	0.937326	0.29707	-28.42	-3.92	-0.63	-0.0768	-0.3452	-0.3724	
-0.026352	0.930006	0.315614	-29.61	-3.57	0.14	-0.0755	-0.3359	-0.3881	
-0.038674	0.920002	0.330376	-29.75	-1.61	1.61	-0.0813	-0.3327	-0.3976	
-0.027084	0.917196	0.35502	-27.58	-1.61	2.45	-0.0784	-0.3253	-0.3883	
-0.019276	0.918904	0.357338	-26.32	0.49	2.87	-0.0755	-0.3345	-0.3819	
-0.035746	0.931104	0.360022	-26.88	0.42	2.94	-0.0742	-0.3191	-0.3993	
-0.034892	0.929274	0.363316	-28.91	-0.84	3.85	-0.0827	-0.3206	-0.3946	
-0.024644	0.910608	0.374296	-28.98	-1.75	5.18	-0.077	-0.3251	-0.4008	
-0.029402	0.91988	0.370636	-27.23	-0.7	5.53	-0.0785	-0.3084	-0.3979	
-0.046482	0.938668	0.368074	-27.23	-0.7	5.18	-0.07009999	-0.3067	-0.4151	
-0.044896	0.944646	0.370758	-29.19	-2.66	5.6	-0.0743	-0.3067	-0.4135	
-0.04087	0.949892	0.37881	-32.06	-2.52	6.72	-0.0928	-0.3006	-0.4137	
-0.0427	0.9394	0.388326	-34.58	-3.15	7.28	-0.0872	-0.2975	-0.4184	
-0.03782	0.9272	0.399672	-36.68	-3.57	7.91	-0.073	-0.2914	-0.42	
-0.024766	0.909632	0.419436	-38.78	-3.64	8.68	-0.083	-0.2792	-0.4249	
-0.019276	0.890112	0.42456	-40.53	-0.56	9.87	-0.08859999	-0.2823	-0.4202	
-0.019276	0.89243	0.424804	-40.39	-0.28	10.08	-0.0873	-0.2715	-0.4344	
-0.026352	0.908168	0.42944	-40.39	-1.89	9.87	-0.0887	-0.2715	-0.4328	
-0.02257	0.911462	0.452132	-42.14	-1.68	11.34	-0.0902	-0.2624	-0.4314	
-0.020984	0.905606	0.465308	-42.63	-0.28	10.43	-0.1002	-0.2622	-0.4392	
-0.026352	0.906216	0.443348	-46.76	-1.12	11.2	-0.0875	-0.2514	-0.455	
-0.029036	0.893894	0.449448	-50.47	-4.2	9.31	-0.1017	-0.2469	-0.452	
-0.026718	0.89182	0.450302	-53.48	-4.2	9.73	-0.0946	-0.2423	-0.4535	
-0.017934	0.889624	0.458232	-57.82	-4.69	10.57	-0.08899999	-0.2392	-0.4645	
-0.007929999	0.882426	0.476776	-63.49	-3.92	11.2	-0.099	-0.2239	-0.4679	
-0.011102	0.868518	0.47336	-69.51	-4.97	12.25	-0.0906	-0.2072	-0.4665	
-0.009638	0.84119	0.49227	-74.76	-5.6	13.23	-0.0977	-0.201	-0.476	
0.000732	0.807884	0.501908	-82.67	-3.57	15.54	-0.1021	-0.1827	-0.4793	
0.004026	0.80459	0.508252	-86.94	-4.97	15.61	-0.1092	-0.1886	-0.4871	
0.024522	0.752618	0.562054	-93.24	-8.26	14.91	-0.0922	-0.1643	-0.4905	
0.043554	0.709552	0.572668	-98.56	-7.14	15.96	-0.1108	-0.1504	-0.5048	
0.057096	0.697108	0.580842	-103.88	-7.77	16.31	-0.1109	-0.1382	-0.5034	
0.04514	0.686616	0.6344	-107.1	-5.39	16.59	-0.1095	-0.1199	-0.5114	
0.059414	0.617808	0.623298	-113.61	-2.24	16.1	-0.1153	-0.097	-0.5149	
0.075274	0.566202	0.66612	-117.46	-4.9	15.75	-0.1197	-0.0681	-0.5121	
0.069784	0.523136	0.67832	-116.55	-9.03	14.63	-0.114	-0.059	-0.5122	
0.070882	0.502396	0.721752	-114.94	-11.13	13.44	-0.1226	-0.0467	-0.5202	
0.091256	0.460672	0.75335	-114.66	-10.71	13.3	-0.1142	-0.0284	-0.5313	
0.115534	0.38064	0.76494	-114.73	-7.63	14.35	-0.1128	-0.0072	-0.5191	
0.090402	0.335134	0.789462	-113.89	-5.74	15.89	-0.1286	0.0066	-0.5334	
0.080886	0.310124	0.804102	-112.07	-8.4	15.05	-0.1201	0.0339	-0.529	
0.098942	0.259616	0.830576	-109.83	-11.2	13.58	-0.1215	0.0474	-0.5182	
0.107726	0.192638	0.831552	-107.59	-11.2	14.14	-0.1244	0.0626	-0.5152	
0.137494	0.145424	0.867176	-103.88	-14.42	12.95	-0.1216	0.0823	-0.5108	
0.148596	0.10004	0.846436	-102.34	-10.5	13.3	-0.1259	0.096	-0.5047	
0.157258	0.072102	0.869616	-99.4	-13.86	13.09	-0.1316	0.1142	-0.5034	
0.162016	0.045262	0.877424	-99.82	-12.46	12.95	-0.1246	0.1325	-0.5067	
0.167872	-0.003294	0.894138	-98.14	-11.34	14.42	-0.1303	0.1475	-0.4912	
0.174704	-0.028914	0.927932	-92.82	-13.79	15.61	-0.1331	0.1567	-0.4914	
0.169214	-0.062464	0.91561	-95.2	-10.99	15.54	-0.136	0.1627	-0.4836	
0.178974	-0.111142	0.930738	-91.42	-11.69	15.05	-0.1417	0.187	-0.4824	
0.186172	-0.146644	0.941596	-88.48	-14.56	15.68	-0.1332	0.1915	-0.4761	
0.180072	-0.165554	0.94611	-88.06	-11.48	15.4	-0.1361	0.2249	-0.4671	
0.181048	-0.198982	0.963434	-85.61	-12.95	13.58	-0.1304	0.2339	-0.4578	
0.192882	-0.270474	0.985882	-80.29	-11.55	12.46	-0.1333	0.2506	-0.4565	
0.203984	-0.289262	0.981246	-78.05	-12.6	11.9	-0.1446	0.2595	-0.4363	
0.220576	-0.32757	0.995032	-73.5	-12.25	11.13	-0.1389	0.2716	-0.4286	
0.243268	-0.369416	0.98027	-69.58	-9.45	9.1	-0.1404	0.2822	-0.424	
0.238388	-0.382714	0.98515	-64.82	-10.15	9.17	-0.1375	0.2897	-0.4209	
0.235216	-0.384544	0.950624	-63.42	-7.07	9.8	-0.1361	0.2912	-0.4162	
0.212158	-0.38979	0.931714	-62.37	-7.98	9.87	-0.1418	0.3033	-0.4117	
0.211914	-0.409188	0.924638	-59.92	-8.68	8.47	-0.129	0.3092	-0.3976	
0.223504	-0.432124	0.917806	-56.98	-8.96	7.84	-0.1361	0.3183	-0.3915	
0.208742	-0.451766	0.908778	-54.74	-10.08	6.72	-0.1375	0.3229	-0.3947	
0.23241	-0.484706	0.909022	-50.19	-10.78	6.58	-0.1489	0.3335	-0.3886	
0.23912	-0.514474	0.90219	-46.97	-8.33	6.72	-0.1389	0.3334	-0.3808	
0.241316	-0.511546	0.905118	-44.45	-8.47	7.07	-0.1389	0.3424	-0.3683	
0.231556	-0.520574	0.918904	-42.14	-7.21	7.35	-0.1289	0.3499	-0.3668	
0.240462	-0.547292	0.934642	-38.15	-7.21	7.07	-0.1332	0.35	-0.37	
0.253394	-0.575108	0.92781	-34.37	-3.99	7.28	-0.1318	0.3546	-0.3716	
0.255346	-0.58499	0.927078	-30.66	-3.71	7	-0.1275	0.3574	-0.3528	
0.250832	-0.595604	0.923906	-25.2	-3.15	6.23	-0.1431	0.365	-0.3498	
0.250344	-0.604266	0.90707	-20.86	-2.1	5.67	-0.1218	0.3589	-0.3543	
0.25071	-0.597312	0.915732	-14.49	-3.78	4.83	-0.1403	0.3605	-0.356	
0.258762	-0.59475	0.909632	-9.52	-0.91	4.62	-0.1289	0.3588	-0.3481	
0.242536	-0.592676	0.91927	-4.41	-0.14	4.34	-0.1303	0.365	-0.3513	
0.233508	-0.59963	0.918172	1.19	-1.26	3.15	-0.1261	0.3695	-0.3514	
0.237778	-0.602558	0.913658	6.02	-1.82	2.24	-0.136	0.368	-0.3467	
0.240828	-0.603412	0.924516	11.41	-2.24	1.54	-0.1402	0.3528	-0.3481	
0.251442	-0.592676	0.930982	16.31	-2.87	1.33	-0.1318	0.3665	-0.3545	
0.248758	-0.593652	0.940254	21.7	-2.87	0.07	-0.1303	0.3574	-0.3544	
0.27694	-0.63501	0.982588	32.97	-5.67	-3.15	-0.1318	0.3574	-0.3559	
0.27755	-0.637694	0.976854	40.46	-1.47	-3.5	-0.136	0.3545	-0.3638	
0.283894	-0.625006	0.99735	48.79	-3.22	-5.81	-0.1361	0.3546	-0.3716	
0.284504	-0.612806	0.995154	55.44	-2.17	-7.49	-0.1417	0.3454	-0.3684	
0.298046	-0.596092	0.999912	63.84	-0.84	-8.33	-0.136	0.3378	-0.3636	
0.312442	-0.558028	0.987834	73.01	0.77	-9.8	-0.1417	0.3288	-0.376	
0.307806	-0.52216	0.971974	81.48	2.8	-11.83	-0.1375	0.3168	-0.3962	
0.293288	-0.471774	0.959286	88.97	3.92	-14	-0.1418	0.3093	-0.404	
0.294142	-0.4331	0.970388	96.81	5.39	-15.82	-0.1475	0.3049	-0.4102	
0.281332	-0.393694	0.946232	101.92	8.26	-17.08	-0.1503	0.2852	-0.4225	
0.270474	-0.336964	0.933178	106.4	9.52	-18.06	-0.1304	0.2775	-0.4176	
0.259982	-0.287432	0.925248	109.76	11.62	-19.04	-0.1417	0.2535	-0.4393	
0.24278	-0.2501	0.917196	112.77	12.95	-19.53	-0.1418	0.2461	-0.458	
0.229604	-0.19642	0.893772	115.64	13.93	-19.04	-0.146	0.2248	-0.4594	
0.209352	-0.13603	0.869006	115.57	16.03	-18.55	-0.1418	0.2204	-0.4749	
0.197152	-0.088938	0.872666	115.99	7.98	-19.95	-0.1545	0.1855	-0.4793	
0.176168	-0.057462	0.876204	118.23	12.39	-21.21	-0.1431	0.1794	-0.4823	
0.177266	-0.027816	0.878156	120.47	10.5	-22.47	-0.1516	0.1477	-0.4992	
0.171532	0.01403	0.85217	121.17	13.44	-21.98	-0.1459	0.1385	-0.4959	
0.164334	0.071858	0.850096	119.7	10.64	-20.65	-0.1515	0.1219	-0.4989	
0.158356	0.11102	0.842044	119.07	8.19	-23.38	-0.143	0.0976	-0.5079	
0.150792	0.153598	0.816302	118.79	5.88	-24.29	-0.1543	0.08859999	-0.5126	
0.15189	0.196542	0.817156	117.81	4.55	-24.85	-0.1429	0.0627	-0.5153	
0.138958	0.221918	0.803858	115.57	3.15	-25.55	-0.14	0.0444	-0.512	
0.13115	0.296948	0.780312	114.17	0.98	-25.83	-0.137	0.0246	-0.5117	
0.12261	0.341478	0.778726	113.05	1.05	-25.55	-0.1526	0.0079	-0.5132	
0.107848	0.359534	0.74908	111.16	2.03	-25.34	-0.144	-0.0178	-0.5175	
0.104066	0.385886	0.755668	111.79	-0.56	-25.13	-0.1312	-0.024	-0.5111	
0.115778	0.434564	0.738588	113.26	-2.17	-25.2	-0.144	-0.0299	-0.5205	
0.122366	0.501054	0.700524	112.98	-3.5	-25.83	-0.1438	-0.0605	-0.5076	
0.136274	0.523624	0.677588	111.79	-3.22	-27.23	-0.1438	-0.0726	-0.5137	
0.138348	0.530456	0.67466	110.74	1.61	-26.53	-0.1423	-0.1001	-0.5056	
0.120536	0.55754	0.649162	110.67	4.69	-24.57	-0.1436	-0.1275	-0.4974	
0.086742	0.637694	0.58255	108.64	7.63	-23.94	-0.1349	-0.1414	-0.4894	
0.091866	0.690642	0.572668	107.45	5.11	-23.8	-0.1406	-0.152	-0.4862	
0.084424	0.696742	0.550708	105.07	8.68	-22.12	-0.1348	-0.1628	-0.4735	
0.044652	0.7259	0.507154	102.06	10.36	-20.23	-0.1304	-0.1903	-0.4637	
0.018178	0.761646	0.45384	99.82	10.08	-19.81	-0.119	-0.1949	-0.4683	
0.025376	0.797514	0.407236	99.33	7.21	-21.56	-0.1217	-0.2253	-0.4648	
0.019276	0.826794	0.367952	98.28	4.2	-23.66	-0.1259	-0.2316	-0.446	
0.014884	0.81557	0.324398	97.72	5.18	-25.76	-0.1258	-0.2529	-0.4473	
0.002684	0.848876	0.279624	94.85	9.59	-26.04	-0.1172	-0.2576	-0.441	
-0.007808	0.921954	0.259006	96.53	4.13	-27.09	-0.1115	-0.2607	-0.4346	
-0.043798	0.99613	0.242902	99.54	3.78	-26.95	-0.1057	-0.2852	-0.4233	
-0.03355	1.04737	0.228628	95.76	-3.78	-29.47	-0.1056	-0.2929	-0.4123	
-0.085156	1.08946	0.222528	90.09	9.38	-25.06	-0.0983	-0.322	-0.3978	
-0.112362	1.052372	0.149572	75.11	16.73	-20.44	-0.0983	-0.313	-0.387	
-0.05734	1.016992	0.1464	70.07	14.21	-19.81	-0.0911	-0.3239	-0.3711	
-0.055022	0.977098	0.108458	67.76	16.24	-17.57	-0.091	-0.3513	-0.3692	
-0.083814	0.98515	0.082472	70.21	10.71	-18.06	-0.0938	-0.3423	-0.3584	
-0.110654	1.070306	0.062098	69.23	9.31	-19.88	-0.0809	-0.3606	-0.3519	
-0.115168	1.100074	0.031476	54.53	16.45	-19.18	-0.0652	-0.37	-0.3391	
-0.12566	1.124596	-0.007198	42.21	16.87	-16.8	-0.068	-0.3761	-0.3375	
-0.060146	1.119716	0.07747	32.2	21.28	-12.32	-0.0581	-0.3701	-0.3344	
-0.150792	1.071526	0.022204	17.22	13.93	-11.06	-0.06659999	-0.3731	-0.3281	
-0.136518	1.02785	0.054412	13.79	3.85	-10.99	-0.0708	-0.3853	-0.3265	
-0.092842	1.019066	0.092842	20.79	12.67	-9.31	-0.0566	-0.3823	-0.3296	
-0.13359	1.05408	0.080886	21.49	20.72	-7.14	-0.0494	-0.3856	-0.3123	
-0.130296	1.04676	0.07625	24.15	8.12	-6.58	-0.0509	-0.3809	-0.3201	
-0.10553	1.031022	0.102968	26.95	-6.72	-9.59	-0.0565	-0.3916	-0.3107	
-0.112728	1.044198	0.132126	29.12	-13.58	-10.85	-0.0537	-0.3931	-0.3153	
-0.07686	0.985882	0.120048	19.25	-14.14	-9.66	-0.0479	-0.3994	-0.2964	
-0.052826	1.003328	0.113582	22.47	-10.36	-8.82	-0.0536	-0.4008	-0.3043	
-0.07869	1.026142	0.141886	30.94	-4.83	-8.82	-0.0521	-0.4024	-0.3042	
-0.079422	1.015528	0.134078	17.71	-0.42	-6.51	-0.0521	-0.4055	-0.2948	
-0.080642	1.036878	0.116144	10.5	6.23	-4.62	-0.0506	-0.4086	-0.2901	
-0.096624	1.037732	0.103456	12.18	1.54	-4.9	-0.0464	-0.3995	-0.2917	
-0.09699	1.02297	0.086376	9.45	-4.34	-5.32	-0.0492	-0.4025	-0.2933	
-0.080276	1.036024	0.106384	17.15	-8.61	-6.16	-0.0335	-0.4148	-0.2852	
-0.059536	1.001376	0.111264	12.88	-9.1	-4.97	-0.0478	-0.4102	-0.2869	
-0.055388	1.01382	0.094184	10.01	-1.96	-3.64	-0.0464	-0.4026	-0.287	
-0.083814	1.010282	0.118584	13.37	1.82	-2.24	-0.0406	-0.4103	-0.2806	
-0.102236	0.989908	0.09272	7.98	4.83	-0.14	-0.0463	-0.4255	-0.282	
-0.104798	0.989908	0.056242	3.78	6.3	-0.77	-0.0421	-0.4103	-0.2822	
-0.089182	1.039318	0.065026	14.63	3.36	-2.94	-0.0434	-0.4149	-0.2743	
-0.088694	1.028704	0.06771	15.47	2.52	-2.73	-0.0435	-0.4088	-0.2791	
-0.11651	1.04005	0.023058	4.48	6.93	-1.47	-0.0391	-0.4135	-0.268	
-0.105286	1.03273	0.037454	9.31	1.82	-2.73	-0.0392	-0.418	-0.2742	
-0.082716	1.028948	0.04209	7.56	3.64	-1.54	-0.0435	-0.4073	-0.2744	
-0.110044	1.034194	0.03172	3.43	8.05	0.91	-0.0406	-0.4134	-0.2727	
-0.129198	1.015162	0.023424	0.21	10.85	2.38	-0.0391	-0.4287	-0.271	
-0.125782	1.040538	0.013664	4.76	12.32	1.68	-0.0306	-0.4136	-0.2648	
-0.122366	1.024678	0.02806	10.29	10.01	0.28	-0.0377	-0.418	-0.2695	
-0.128588	1.024922	0.000488	2.45	14.14	1.75	-0.0463	-0.4104	-0.2681	
-0.136274	1.045174	-0.026108	-1.19	16.45	2.73	-0.0405	-0.4226	-0.2648	
-0.13481	1.03944	-0.015982	-1.75	11.83	1.19	-0.0278	-0.4136	-0.2648	
-0.128466	1.014552	-0.033184	-6.72	10.15	1.05	-0.0392	-0.415	-0.2711	
-0.138592	1.01016	-0.041358	-7.07	8.19	0.84	-0.0391	-0.4135	-0.2633	
-0.152134	1.014674	-0.026352	-2.1	5.95	-0.28	-0.0307	-0.4149	-0.2805	
-0.146888	1.036512	-0.032208	-1.05	5.11	-0.49	-0.0249	-0.4211	-0.2694	
-0.147498	1.0431	-0.031598	-5.32	4.13	0.21	-0.0391	-0.418	-0.2727	
-0.161894	1.063596	-0.034282	-7.49	3.64	1.33	-0.0249	-0.4196	-0.2741	
-0.15494	1.038098	-0.020374	-11.41	2.59	1.82	-0.0264	-0.415	-0.2711	
-0.14091	1.02297	-0.0122	-13.3	1.33	2.17	-0.0278	-0.415	-0.2758	
-0.130906	1.026264	-0.003538	-11.76	0.63	2.87	-0.0321	-0.4134	-0.2742	
-0.131394	1.041636	0.000976	-13.44	2.24	4.13	-0.0251	-0.4027	-0.2853	
-0.13664	1.053104	-0.007076	-16.66	3.71	5.25	-0.0406	-0.4103	-0.2822	
-0.141398	1.050908	0.001586	-17.85	0.91	5.67	-0.0321	-0.4103	-0.2821	
-0.135664	1.056032	0.012078	-20.58	0.56	6.16	-0.0378	-0.4133	-0.2837	
-0.12993	1.043222	0.017446	-25.06	0.14	7	-0.035	-0.4056	-0.2931	
-0.126758	1.045906	0.024522	-26.46	0.14	7.84	-0.0393	-0.401	-0.2948	
-0.11712	1.04005	0.047946	-26.95	-1.68	8.61	-0.0379	-0.3949	-0.298	
-0.108214	1.015894	0.076006	-29.89	-2.45	10.99	-0.0479	-0.4055	-0.301	
-0.101138	1.001254	0.090524	-30.73	-2.17	11.27	-0.0366	-0.3902	-0.309	
-0.096136	1.000156	0.0976	-32.9	-1.89	11.41	-0.0465	-0.3916	-0.3137	
-0.099918	1.022604	0.109922	-32.06	-2.1	10.64	-0.0509	-0.3825	-0.317	
-0.08601	1.01382	0.120414	-36.47	-2.87	10.85	-0.0438	-0.3869	-0.3263	
-0.08784	1.007232	0.139934	-38.43	-2.8	11.2	-0.048	-0.387	-0.3232	
-0.09076799	0.996984	0.13481	-39.55	-2.94	11.41	-0.0609	-0.3823	-0.328	
-0.078568	1.01443	0.148474	-40.74	-4.97	10.99	-0.0495	-0.3716	-0.3328	
-0.085278	1.009306	0.181902	-38.99	-7.35	10.22	-0.0652	-0.3776	-0.3406	
-0.070516	0.982344	0.19337	-43.12	-7.7	10.99	-0.0624	-0.3655	-0.336	
-0.059536	0.972706	0.198494	-46.27	-5.81	11.48	-0.0611	-0.3637	-0.358	
-0.046726	0.972828	0.217038	-45.78	-7.28	10.99	-0.0597	-0.3576	-0.358	
-0.04941	0.971364	0.238388	-46.2	-8.75	10.92	-0.0612	-0.3514	-0.3691	
-0.04575	0.981368	0.25803	-49.49	-10.08	11.83	-0.0712	-0.3452	-0.3755	
-0.036112	0.967216	0.272304	-54.39	-10.71	12.46	-0.0684	-0.333	-0.3756	
-0.02806	0.944768	0.30195	-56.84	-12.95	12.46	-0.0698	-0.3346	-0.3756	
-0.010492	0.909632	0.323178	-58.66	-11.76	13.16	-0.0756	-0.3343	-0.3944	
0.000976	0.892552	0.337086	-56.35	-10.99	12.88	-0.0841	-0.3298	-0.3883	
0.000122	0.898286	0.354288	-51.66	-9.87	11.9	-0.0757	-0.3114	-0.4041	
0.001342	0.904874	0.369904	-49.42	-7.84	11.41	-0.087	-0.3129	-0.4026	
0.010492	0.9028	0.391132	-50.47	-4.76	11.76	-0.0815	-0.2991	-0.4152	
0.013054	0.905728	0.396134	-51.94	-1.82	12.46	-0.0857	-0.296	-0.4184	
-0.003294	0.917928	0.42273	-54.46	-3.92	12.6	-0.0844	-0.2807	-0.4248	
-0.004514	0.889624	0.447496	-57.33	-3.15	12.46	-0.0858	-0.2807	-0.4249	
0.02257	0.857294	0.45628	-61.88	-6.09	12.67	-0.0973	-0.2744	-0.4406	
0.01342	0.870592	0.454206	-65.52	-5.04	13.86	-0.0988	-0.2606	-0.4471	
0.011346	0.88633	0.472872	-66.71	-8.82	13.44	-0.1003	-0.2515	-0.4472	
0.010736	0.870104	0.505934	-70.35	-11.2	14.56	-0.1017	-0.2378	-0.4489	
0.01952	0.836676	0.501908	-75.81	-6.79	15.12	-0.1018	-0.2317	-0.4506	
0.033916	0.822402	0.496906	-79.1	-3.92	15.47	-0.1133	-0.2252	-0.4773	
0.042578	0.80032	0.523502	-79.52	-4.69	15.05	-0.1062	-0.2147	-0.4727	
0.055266	0.777506	0.558882	-79.24	-6.79	14.35	-0.1105	-0.2024	-0.4776	
0.058316	0.764452	0.570594	-80.57	-6.3	14	-0.1134	-0.1886	-0.484	
0.048922	0.756278	0.575596	-84.84	-6.02	13.72	-0.1134	-0.1811	-0.481	
0.06405	0.728218	0.598776	-89.04	-5.74	13.65	-0.1122	-0.1627	-0.4937	
0.085156	0.663192	0.616954	-90.23	-2.45	13.86	-0.1207	-0.1521	-0.4892	
0.081984	0.611952	0.614514	-92.82	0.28	16.31	-0.118	-0.1307	-0.4973	
0.104432	0.640622	0.6588	-93.94	-9.1	14.49	-0.1123	-0.1291	-0.5004	
0.096014	0.647332	0.679418	-97.44	-8.4	14.14	-0.1209	-0.1123	-0.5053	
0.097966	0.603534	0.674904	-104.51	-4.48	16.38	-0.1238	-0.0895	-0.5087	
0.101626	0.528992	0.69357	-111.02	-0.63	17.64	-0.1353	-0.0772	-0.5105	
0.09638	0.488488	0.721996	-113.54	0.7	17.36	-0.1169	-0.0559	-0.5216	
0.09089	0.464454	0.733342	-110.46	-1.68	15.68	-0.1198	-0.0544	-0.5185	
0.091134	0.421998	0.729926	-108.85	-4.55	14.49	-0.1213	-0.027	-0.5189	
0.104188	0.370636	0.79117	-108.5	-6.93	13.72	-0.1285	-0.0025	-0.5255	
0.10126	0.35746	0.797148	-109.34	-7.21	14.63	-0.1271	0.0246	-0.5148	
0.11712	0.31964	0.819718	-106.47	-6.3	13.65	-0.13	0.0292	-0.5133	
0.113094	0.27389	0.819962	-104.93	-5.39	13.72	-0.1273	0.0551	-0.523	
0.099308	0.240218	0.840336	-102.9	-8.82	13.58	-0.1372	0.0673	-0.5185	
0.11163	0.193858	0.859612	-102.62	-9.03	13.79	-0.1287	0.0794	-0.517	
0.133834	0.141764	0.86803	-100.87	-9.03	13.79	-0.1331	0.0992	-0.5189	
0.145058	0.11712	0.895968	-97.79	-9.94	14.14	-0.1331	0.134	-0.5005	
0.106018	0.06405	0.861564	-95.13	-8.4	14.35	-0.1303	0.1401	-0.5052	
0.123342	0.008417999	0.85461	-93.1	-13.79	13.44	-0.1317	0.1566	-0.4867	
0.176534	-0.04087	0.919392	-90.3	-18.55	13.58	-0.1403	0.1688	-0.4837	
0.181902	-0.07991	0.926956	-90.79	-15.33	16.52	-0.1474	0.181	-0.4855	
0.17141	-0.093086	0.916464	-93.03	-10.15	17.36	-0.1418	0.1977	-0.4856	
0.17934	-0.146766	0.945988	-88.2	-10.78	17.5	-0.1276	0.2158	-0.4764	
0.177998	-0.213012	0.931592	-87.22	-7.63	17.29	-0.1347	0.2294	-0.4656	
0.17202	-0.228262	0.933056	-85.68	-9.87	16.8	-0.1319	0.2445	-0.4564	
0.188002	-0.249124	0.956114	-80.92	-12.6	15.89	-0.1461	0.2506	-0.455	
0.20496	-0.307318	0.973926	-78.05	-14.28	15.05	-0.1418	0.2641	-0.4363	
0.247172	-0.359656	0.992714	-73.85	-13.79	13.37	-0.1347	0.2762	-0.4349	
0.233386	-0.368806	0.999424	-70.49	-14.28	12.74	-0.1347	0.2883	-0.4272	
0.227774	-0.371734	0.992104	-66.99	-14.28	11.83	-0.1432	0.2867	-0.4225	
0.25254	-0.38979	0.98454	-64.47	-12.39	11.9	-0.1291	0.3004	-0.4288	
0.25681	-0.418948	0.96929	-61.6	-9.59	11.97	-0.1361	0.3049	-0.4164	
0.255712	-0.44042	0.964532	-58.03	-7.84	11.76	-0.1475	0.3125	-0.4103	
0.243024	-0.438102	0.952698	-54.81	-6.44	11.83	-0.129	0.3153	-0.3977	
0.246684	-0.46238	0.941108	-50.61	-4.34	12.18	-0.1304	0.332	-0.3916	
0.246318	-0.476288	0.928176	-48.09	-5.39	12.18	-0.1361	0.341	-0.3855	
0.23363	-0.484828	0.91317	-45.15	-4.27	12.46	-0.1275	0.3333	-0.3729	
0.207766	-0.483608	0.888526	-44.1	-3.99	11.83	-0.1403	0.3364	-0.3745	
0.218746	-0.499346	0.898042	-41.16	-4.76	11.55	-0.129	0.3546	-0.3731	
0.241682	-0.51667	0.899872	-37.73	-3.57	11.41	-0.1261	0.3499	-0.3668	
0.236436	-0.513864	0.89182	-35.14	-0.56	12.25	-0.1219	0.3515	-0.3762	
0.216184	-0.509716	0.881816	-35.35	0.21	12.81	-0.1361	0.3681	-0.3592	
0.232288	-0.549	0.903654	-29.19	-1.82	11.97	-0.1289	0.362	-0.3544	
0.238632	-0.560712	0.90402	-25.76	-1.89	10.15	-0.1275	0.3559	-0.3543	
0.24095	-0.58743	0.896578	-21.84	-0.49	8.75	-0.1318	0.368	-0.3529	
0.21899	-0.603168	0.88084	-17.99	-2.66	8.82	-0.1218	0.3664	-0.3466	
0.232044	-0.618296	0.887794	-14.14	-5.67	9.73	-0.1119	0.3755	-0.3467	
0.232898	-0.610732	0.875106	-8.82	-1.61	7.42	-0.1162	0.377	-0.3483	
0.234118	-0.610366	0.893284	-3.22	-1.19	6.23	-0.1246	0.3694	-0.3404	
0.225334	-0.594994	0.893406	3.15	-0.21	4.13	-0.1161	0.3755	-0.3436	

0.219722	-0.590114	0.89426	11.9	-3.71	1.19	-0.1233	0.3771	-0.3499	
0.227286	-0.59963	0.909754	16.73	-5.88	-0.7	-0.1147	0.3755	-0.3467	
0.255224	-0.614026	0.922808	22.4	-5.74	-3.08	-0.1247	0.3711	-0.3576	
0.2501	-0.60329	0.914756	27.79	-6.44	-4.13	-0.1162	0.3801	-0.3467	
0.251564	-0.589138	0.913414	33.18	-5.88	-4.34	-0.1147	0.3618	-0.3496	
0.25193	-0.579988	0.927932	37.73	-6.09	-5.6	-0.1233	0.3666	-0.367	
0.282552	-0.579256	0.931714	41.16	-5.39	-6.86	-0.1261	0.3544	-0.3606	
0.27084	-0.566324	0.931592	45.78	-3.92	-7.63	-0.1275	0.359	-0.3622	
0.263642	-0.557418	0.947818	52.29	-2.73	-9.38	-0.119	0.3576	-0.3715	
0.253394	-0.534848	0.950868	59.15	-2.1	-11.62	-0.119	0.3424	-0.3792	
0.25864	-0.528748	0.93391	66.36	-1.75	-14.7	-0.1304	0.3333	-0.3791	
0.274866	-0.50874	0.942206	70.91	-3.5	-16.66	-0.1347	0.3319	-0.3854	
0.276818	-0.483852	0.953918	76.23	-1.82	-17.22	-0.1333	0.3245	-0.401	
0.282674	-0.449814	0.962458	81.97	-1.4	-19.11	-0.1361	0.3093	-0.4039	
0.287066	-0.416264	0.961604	87.5	0.14	-20.51	-0.1333	0.2958	-0.4226	
0.286212	-0.387594	0.96014	92.54	0.98	-21.63	-0.1475	0.2898	-0.4226	
0.28121	-0.362462	0.977586	98.21	2.38	-22.96	-0.1418	0.2716	-0.4333	
0.27023	-0.316956	0.944768	106.33	3.15	-25.83	-0.1418	0.2521	-0.4534	
0.25986	-0.27572	0.949038	112.42	3.92	-26.74	-0.1531	0.2325	-0.461	
0.250466	-0.214598	0.929396	117.6	5.11	-26.81	-0.1574	0.2188	-0.4609	
0.234606	-0.142618	0.897066	123.06	4.69	-27.58	-0.163	0.1931	-0.4763	
0.23851	-0.092842	0.913536	130.41	-1.75	-31.64	-0.1602	0.1796	-0.4871	
0.237412	-0.036966	0.908656	136.01	4.34	-32.76	-0.163	0.1568	-0.4884	
0.228384	-0.007929999	0.892918	141.96	7.84	-33.39	-0.1601	0.1356	-0.4991	
0.202398	0.051606	0.835212	146.86	13.16	-32.69	-0.1529	0.1128	-0.5035	
0.214232	0.117242	0.82228	150.36	17.5	-30.73	-0.1543	0.08859999	-0.5142	
0.202276	0.178974	0.795196	148.96	19.53	-30.87	-0.1556	0.0551	-0.5106	
0.172386	0.224724	0.748714	149.17	9.94	-35.91	-0.1471	0.0414	-0.5167	
0.161406	0.312198	0.724314	151.48	8.68	-35.98	-0.1484	0.0186	-0.5117	
0.132248	0.375516	0.686982	148.4	9.94	-36.61	-0.1554	-0.0131	-0.5223	
0.123464	0.422974	0.667462	143.43	5.11	-37.38	-0.1482	-0.03	-0.5111	
0.119316	0.468846	0.637938	140.07	6.72	-37.03	-0.1495	-0.0544	-0.5093	
0.09357399	0.533506	0.618662	132.72	7.07	-34.86	-0.1438	-0.06659999	-0.5076	
0.111996	0.569862	0.634278	129.99	5.46	-35.35	-0.1394	-0.1046	-0.5071	
0.07137	0.604876	0.600484	126.63	14.35	-33.18	-0.1422	-0.1199	-0.5007	
0.060512	0.640256	0.573644	124.39	16.24	-33.46	-0.1448	-0.1459	-0.4847	
0.053314	0.689788	0.55083	118.86	8.12	-30.87	-0.1292	-0.1536	-0.4877	
0.05307	0.715774	0.52155	112.7	6.09	-29.61	-0.1249	-0.1719	-0.4827	
0.040748	0.755424	0.517646	108.01	6.37	-29.82	-0.1176	-0.1995	-0.4683	
0.024034	0.770552	0.49593	102.13	7.21	-28.14	-0.1218	-0.2025	-0.4651	
0.02867	0.775066	0.477752	97.72	0.91	-25.9	-0.1203	-0.2239	-0.4555	
0.042822	0.792878	0.482266	96.74	2.31	-26.39	-0.1188	-0.2377	-0.4522	
-0.003904	0.848632	0.442128	89.67	3.71	-24.29	-0.1101	-0.2531	-0.4316	
0.05429	0.848022	0.423706	85.96	1.05	-23.1	-0.113	-0.2591	-0.4409	
0.0183	0.868396	0.393572	82.39	8.68	-19.67	-0.1157	-0.2715	-0.4236	
0.004026	0.864858	0.353678	78.19	5.95	-18.13	-0.1028	-0.2884	-0.4108	
0.012932	0.88145	0.306586	75.11	1.54	-17.36	-0.1141	-0.3021	-0.4075	
-0.00427	0.913658	0.27206	73.5	-1.61	-17.29	-0.0984	-0.3053	-0.3949	
-0.010614	0.948062	0.24461	71.05	-6.86	-17.99	-0.1026	-0.3175	-0.3932	
-0.033916	0.945378	0.177754	64.26	-4.9	-17.43	-0.094	-0.3283	-0.3821	
-0.041602	1.006866	0.184586	60.69	-7.07	-19.18	-0.1067	-0.3343	-0.3821	
-0.067832	1.094096	0.165798	56.07	-3.08	-18.2	-0.0981	-0.3422	-0.3616	
-0.087352	1.091778	0.137982	49.77	-4.62	-15.89	-0.0995	-0.3513	-0.3677	
-0.06039	1.075186	0.13725	45.57	-0.63	-13.86	-0.0924	-0.3543	-0.3708	
-0.06771	1.053226	0.112728	37.31	4.41	-11.2	-0.0852	-0.3606	-0.3519	
-0.069662	1.051518	0.097844	34.72	5.81	-9.87	-0.0866	-0.3622	-0.3503	
-0.061976	1.025288	0.105286	35.42	4.06	-8.89	-0.0837	-0.3683	-0.3502	
-0.074786	1.019798	0.091988	36.47	4.55	-8.05	-0.0837	-0.3547	-0.3379	
-0.076128	1.0248	0.09333	36.19	1.4	-8.4	-0.0837	-0.3638	-0.3393	
-0.090646	1.031144	0.103212	34.16	1.61	-8.54	-0.0793	-0.3762	-0.3219	
-0.081252	1.028826	0.095892	30.31	2.24	-8.82	-0.08639999	-0.3776	-0.3266	
-0.075518	1.0004	0.104554	29.4	2.59	-9.87	-0.085	-0.3808	-0.3188	
-0.063806	0.987346	0.111752	30.45	2.52	-10.22	-0.0764	-0.3839	-0.3124	
-0.042578	0.982588	0.11712	30.73	3.5	-9.59	-0.0764	-0.3824	-0.3093	
-0.040504	0.97722	0.107726	30.24	4.27	-8.96	-0.0735	-0.3886	-0.3076	
-0.045994	0.982832	0.103456	30.73	3.22	-9.03	-0.0707	-0.3931	-0.3107	
-0.075884	1.02907	0.105408	35.77	2.03	-9.24	-0.0707	-0.4007	-0.3122	
-0.06161	1.051518	0.088572	34.58	0.56	-9.66	-0.0748	-0.3994	-0.2903	
-0.07515199	1.054324	0.073444	27.93	0.07	-8.75	-0.0649	-0.41	-0.2948	
-0.090158	1.042124	0.078934	22.26	0.14	-8.05	-0.0691	-0.4086	-0.2902	
-0.08295999	1.010648	0.085278	22.89	-1.82	-7.42	-0.0634	-0.4071	-0.2855	
-0.057218	0.971852	0.062342	18.13	-3.29	-7	-0.0633	-0.4148	-0.2744	
-0.064904	0.990884	0.0549	19.46	-1.4	-7.14	-0.0591	-0.4072	-0.2807	
-0.081618	1.01504	0.05429	26.88	-3.08	-6.3	-0.0718	-0.4178	-0.2775	
-0.084424	1.004304	0.027328	24.78	-4.13	-6.09	-0.0718	-0.4178	-0.2775	
-0.090036	1.028094	0.008662	19.25	-0.49	-6.65	-0.0533	-0.4165	-0.2634	
-0.095648	1.05164	0.006954	19.95	-3.43	-6.23	-0.0547	-0.4302	-0.2601	
-0.0854	1.040538	0.005246	18.34	-4.13	-5.67	-0.0547	-0.4302	-0.2601	
-0.08723	1.035048	0.004636	14.21	-1.4	-5.32	-0.0575	-0.4258	-0.2492	
-0.089914	1.019798	-0.005368	10.78	3.01	-4.62	-0.0575	-0.4258	-0.2492	
-0.08723	1.020042	0.002562	11.41	2.87	-4.27	-0.0562	-0.4195	-0.2712	
-0.090524	1.008574	0.007686	13.09	1.82	-3.71	-0.0504	-0.4212	-0.2523	
-0.09577	1.010648	-0.006832	10.29	3.5	-3.5	-0.0547	-0.4273	-0.2539	
-0.102114	1.024922	-0.013664	9.52	5.53	-3.36	-0.0576	-0.4196	-0.2634	
-0.107848	1.030534	-0.024522	10.29	6.16	-2.94	-0.0532	-0.4288	-0.2507	
-0.100894	1.030778	-0.02684	8.96	6.44	-2.94	-0.056	-0.4274	-0.246	
-0.094794	1.035048	-0.026474	4.06	7.28	-2.45	-0.0532	-0.4258	-0.2539	
-0.109556	1.048956	-0.038674	1.89	6.44	-1.19	-0.0489	-0.4289	-0.2475	
-0.117608	1.042612	-0.042212	3.5	5.18	-0.21	-0.0504	-0.4258	-0.2476	
-0.117608	1.040416	-0.048678	3.43	5.67	0.21	-0.0461	-0.426	-0.2382	
-0.137372	1.05896	-0.06405	1.89	7.49	0.7	-0.0446	-0.4335	-0.2428	
-0.133956	1.060912	-0.08052	-1.4	6.37	0.35	-0.0461	-0.435	-0.2443	
-0.128466	1.063108	-0.081374	-2.45	5.32	0.42	-0.0532	-0.4365	-0.2475	
-0.140544	1.059448	-0.088938	-4.06	4.69	0.84	-0.0418	-0.4305	-0.2412	
-0.14152	1.052982	-0.088938	-9.59	4.97	1.82	-0.0532	-0.438	-0.249	
-0.135054	1.041392	-0.085522	-11.27	2.8	2.1	-0.0489	-0.4319	-0.2475	
-0.130418	1.044442	-0.083204	-10.64	1.47	2.45	-0.0489	-0.4274	-0.246	
-0.127734	1.05042	-0.07198	-10.64	-0.42	2.73	-0.0405	-0.4197	-0.2586	
-0.13359	1.057618	-0.057584	-10.92	-1.68	3.15	-0.0447	-0.4228	-0.2539	
-0.134566	1.050054	-0.053802	-14.91	-0.7	3.92	-0.0433	-0.4228	-0.2523	
-0.127734	1.053226	-0.04636	-17.99	-1.26	4.34	-0.0433	-0.4212	-0.2554	
-0.120048	1.041514	-0.030012	-18.97	-2.8	4.62	-0.0419	-0.4152	-0.2508	
-0.106018	1.039806	-0.022326	-20.37	-2.59	5.53	-0.0476	-0.4196	-0.2649	
-0.09942999	1.037732	-0.018178	-23.38	-1.82	6.65	-0.0476	-0.4165	-0.2665	
-0.110044	1.043222	0.005856	-24.43	-1.47	7.35	-0.0505	-0.4226	-0.2633	
-0.109312	1.018822	0.02501	-25.06	-1.89	7.77	-0.0505	-0.4089	-0.2681	
-0.087108	0.999912	0.03416	-30.73	-0.7	8.4	-0.0605	-0.4162	-0.2853	
-0.08052	1.010648	0.044286	-28.42	-1.19	8.54	-0.0577	-0.4133	-0.2807	
-0.0732	1.01138	0.062952	-25.62	-6.3	8.26	-0.0591	-0.4087	-0.2807	
-0.070882	1.017602	0.081496	-27.44	-6.72	8.47	-0.0677	-0.3979	-0.2903	
-0.064904	1.02419	0.099186	-30.73	-4.27	8.89	-0.0606	-0.401	-0.2902	
-0.06344	1.012478	0.108336	-32.9	-2.38	10.22	-0.0649	-0.4009	-0.2996	
-0.06161	1.010038	0.117974	-35.91	0.07	10.78	-0.065	-0.3962	-0.3091	
-0.060756	0.995276	0.12139	-38.43	1.61	10.92	-0.0707	-0.3931	-0.3107	
-0.058682	0.995032	0.129686	-38.99	0.35	10.78	-0.065	-0.4007	-0.3106	
-0.052216	0.988688	0.151402	-38.64	0.35	10.57	-0.0735	-0.393	-0.317	
-0.049898	0.9821	0.178242	-37.31	-1.54	10.29	-0.0765	-0.3807	-0.3281	
-0.064904	0.976488	0.18361	-38.43	-1.89	10.29	-0.0836	-0.3806	-0.3328	
-0.053436	0.98576	0.196298	-39.97	-4.06	9.52	-0.0751	-0.3776	-0.3344	
-0.035136	0.968924	0.219844	-42.42	-2.17	9.03	-0.0765	-0.3791	-0.3375	
-0.01952	0.945378	0.236314	-42.49	-1.33	9.1	-0.0823	-0.3699	-0.3424	
-0.010858	0.945744	0.249856	-40.95	-1.26	8.54	-0.0738	-0.3607	-0.3534	
-0.011956	0.942694	0.286456	-38.57	-3.92	7.77	-0.0781	-0.3621	-0.3581	
-0.02379	0.923662	0.300486	-38.22	-4.13	7.56	-0.0881	-0.3544	-0.3629	
-0.028304	0.904874	0.320128	-37.8	-4.76	7.35	-0.0981	-0.3482	-0.3709	
-0.022448	0.91134	0.346114	-32.62	-6.37	6.58	-0.0782	-0.3514	-0.3645	
-0.00976	0.918172	0.371002	-28.21	-6.93	5.88	-0.08109999	-0.3452	-0.3693	
-0.001586	0.89548	0.369416	-27.79	-5.46	6.16	-0.094	-0.3329	-0.3789	
-0.001586	0.889868	0.379298	-29.33	-3.15	7.49	-0.0983	-0.3253	-0.3821	
0.009881999	0.897798	0.387716	-27.65	-1.12	8.54	-0.09959999	-0.3359	-0.3836	
0.017812	0.900238	0.395402	-24.64	-0.28	9.45	-0.094	-0.3343	-0.3867	
0.023912	0.8784	0.395646	-23.31	-0.56	10.85	-0.0983	-0.3297	-0.3899	
0.030988	0.86986	0.417484	-21	-0.28	11.76	-0.09119999	-0.3145	-0.3932	
0.014518	0.879864	0.420534	-17.78	1.47	12.32	-0.087	-0.3145	-0.3931	
0.005002	0.890356	0.417606	-15.05	3.36	12.11	-0.0998	-0.3174	-0.4057	
0.006954	0.891332	0.422242	-12.32	4.13	11.34	-0.1055	-0.3235	-0.4041	
0.02196	0.886574	0.412726	-10.92	5.11	10.85	-0.0998	-0.319	-0.3947	
0.025742	0.891454	0.408456	-9.45	4.97	10.22	-0.1027	-0.3038	-0.3981	
0.014396	0.898042	0.399672	-9.59	5.6	9.59	-0.1027	-0.2976	-0.4075	
0.010858	0.91195	0.38857	-8.89	3.78	8.47	-0.1054	-0.3115	-0.3886	
0.013542	0.919148	0.40443	-7.14	1.4	6.86	-0.1055	-0.3098	-0.4011	
0.00427	0.920612	0.411628	-5.88	1.05	6.02	-0.1112	-0.3127	-0.4074	
0.015128	0.916342	0.40199	-6.09	0.77	5.81	-0.0985	-0.3051	-0.4121	
0.022692	0.916464	0.405162	-6.86	0.77	5.18	-0.1098	-0.3036	-0.4106	
0.02928	0.909144	0.40199	-7.14	0.35	5.67	-0.1098	-0.3036	-0.4091	
0.043432	0.899506	0.408822	-6.72	-0.98	6.51	-0.107	-0.2976	-0.4044	
0.045872	0.906948	0.415166	-6.51	-0.7	6.79	-0.1127	-0.3006	-0.4091	
0.043798	0.912072	0.41968	-6.02	-1.33	6.72	-0.1084	-0.302	-0.4153	
0.047214	0.906704	0.42273	-5.81	-1.47	6.44	-0.1141	-0.2961	-0.4029	
0.058804	0.901092	0.42761	-5.11	-1.68	6.09	-0.1084	-0.3006	-0.406	
0.061122	0.901214	0.423706	-4.13	-0.84	5.81	-0.1056	-0.293	-0.4076	
0.060878	0.901458	0.419802	-3.57	-0.07	5.81	-0.1141	-0.2929	-0.4092	
0.06344	0.898042	0.419558	-3.22	0.21	6.02	-0.1084	-0.2945	-0.4045	
0.074786	0.899628	0.420046	-2.8	0.28	6.23	-0.1155	-0.299	-0.4076	
0.069784	0.909632	0.421144	-2.66	1.12	6.23	-0.1127	-0.2976	-0.4044	
0.05673	0.914146	0.418338	-2.87	1.12	6.02	-0.1127	-0.2929	-0.4155	
0.05795	0.907314	0.417606	-3.01	0.35	5.46	-0.1113	-0.2943	-0.4217	
0.06405	0.905728	0.42151	-2.87	0.21	4.97	-0.1085	-0.2989	-0.4185	
0.065636	0.90341	0.423462	-2.66	0.07	4.48	-0.1099	-0.2944	-0.4201	
0.065758	0.90341	0.428708	-2.66	-0.21	3.99	-0.1127	-0.2944	-0.4186	
0.06222	0.904996	0.42883	-2.45	-0.21	3.36	-0.1255	-0.2959	-0.4124	
0.067222	0.909388	0.426634	-2.17	-0.63	2.31	-0.1184	-0.2868	-0.4093	
0.074786	0.902556	0.434076	-2.31	-0.84	1.33	-0.1113	-0.2929	-0.4155	
0.080154	0.899506	0.43554	-2.38	-0.63	0.77	-0.1198	-0.2929	-0.4092	
0.07808	0.9028	0.434198	-2.1	-0.14	0.07	-0.1156	-0.2823	-0.4109	
0.075396	0.909022	0.431392	-2.1	-0.7	-1.05	-0.1198	-0.2914	-0.4124	
0.079788	0.90829	0.429684	-2.24	-1.68	-2.03	-0.1056	-0.2915	-0.4045	
0.086986	0.90707	0.436272	-2.38	-2.52	-3.08	-0.1185	-0.2852	-0.4171	
0.08906	0.920856	0.435418	-2.45	-2.17	-3.92	-0.1155	-0.2975	-0.4092	
0.091744	0.92476	0.431514	-3.78	-2.66	-5.46	-0.1213	-0.2914	-0.4124	
0.08686399	0.923174	0.431636	-5.53	-2.87	-7	-0.1255	-0.2929	-0.4124	
0.093818	0.935984	0.427488	-4.9	-5.04	-11.2	-0.1113	-0.2899	-0.4077	
0.094916	0.93635	0.429196	-5.04	-4.27	-14.28	-0.1142	-0.2883	-0.4187	
0.09467199	0.934398	0.437248	-5.11	-4.97	-17.78	-0.1099	-0.2899	-0.4092	
0.098942	0.951844	0.45201	-3.08	-4.41	-21.77	-0.1142	-0.2868	-0.4108	
0.08967	0.97722	0.431514	-4.41	-2.59	-25.48	-0.1056	-0.2869	-0.4092	
0.065636	0.969412	0.388204	-7.07	-4.83	-29.05	-0.1028	-0.2854	-0.4092	
0.080642	0.959652	0.386862	-10.22	-8.89	-33.81	-0.1028	-0.293	-0.4076	
0.092476	0.960994	0.426756	-9.87	-8.12	-39.55	-0.09999999	-0.2883	-0.4201	
0.087352	0.950624	0.45567	-12.32	-5.95	-43.82	-0.1028	-0.2869	-0.4108	
0.091378	0.937082	0.442616	-14.49	2.17	-46.97	-0.0986	-0.2914	-0.4185	
0.073444	0.932446	0.428098	-16.1	6.02	-49.35	-0.0929	-0.2807	-0.4186	
0.07124799	0.91927	0.429074	-18.34	7.42	-51.45	-0.0858	-0.2777	-0.4249	
0.054656	0.896334	0.432368	-20.72	9.38	-52.08	-0.0773	-0.2868	-0.4232	
0.045994	0.876692	0.463478	-22.05	10.15	-53.06	-0.0787	-0.2822	-0.4295	
0.026596	0.881816	0.471896	-22.33	9.59	-55.09	-0.0731	-0.273	-0.4343	
0.00671	0.883036	0.475312	-22.61	10.29	-57.61	-0.0603	-0.2716	-0.4342	
-0.048312	0.87535	0.4636	-20.79	26.95	-61.67	-0.0547	-0.2609	-0.4359	
-0.015982	0.829356	0.51423	-22.54	16.03	-61.04	-0.0518	-0.2685	-0.4342	
-0.047214	0.811178	0.50264	-23.24	26.46	-61.53	-0.0362	-0.2792	-0.4403	
-0.084668	0.82533	0.513864	-23.1	27.93	-63.07	-0.0306	-0.2609	-0.4451	
-0.117486	0.808616	0.513864	-24.01	30.66	-64.19	-0.0207	-0.2532	-0.4561	
-0.14823	0.79056	0.52216	-25.06	33.04	-64.89	-0.005	-0.2534	-0.4435	
-0.18788	0.770186	0.512888	-24.99	34.37	-66.29	0.0062	-0.2473	-0.4467	
-0.254004	0.752618	0.513376	-24.36	36.54	-67.69	0.0133	-0.2489	-0.4435	
-0.317566	0.75396	0.505934	-23.03	35.28	-68.67	0.026	-0.2398	-0.4482	
-0.34587	0.748104	0.524112	-20.65	30.66	-69.93	0.0444	-0.2336	-0.4592	
-0.336598	0.722362	0.515084	-20.3	30.73	-70.21	0.0501	-0.2291	-0.4576	
-0.366488	0.700402	0.518744	-20.37	32.55	-69.23	0.0685	-0.223	-0.4654	
-0.441152	0.693326	0.501908	-21.28	36.26	-65.66	0.0799	-0.2125	-0.4592	
-0.516182	0.685884	0.478728	-22.61	37.52	-61.53	0.0856	-0.211	-0.4561	
-0.54229	0.67222	0.469212	-23.03	34.37	-58.94	0.0983	-0.2019	-0.4624	
-0.53497	0.648918	0.49959	-21.84	25.9	-58.52	0.1054	-0.1989	-0.4608	
-0.545462	0.624518	0.508252	-21.77	24.01	-57.26	0.111	-0.1973	-0.4686	
-0.583038	0.608658	0.49715	-21.91	26.04	-54.6	0.1153	-0.1898	-0.4546	
-0.606462	0.601582	0.487756	-22.33	21.14	-51.17	0.1195	-0.1791	-0.4641	
-0.603534	0.602802	0.491538	-22.4	18.83	-48.79	0.1124	-0.176	-0.4626	
-0.638914	0.602436	0.494588	-23.1	18.62	-46.55	0.1351	-0.1716	-0.4625	
-0.662826	0.58377	0.479216	-24.22	17.57	-43.33	0.1336	-0.1578	-0.4658	
-0.687348	0.570716	0.473482	-24.85	16.24	-40.18	0.1422	-0.1564	-0.4627	
-0.702598	0.563518	0.480558	-24.85	11.41	-38.15	0.1421	-0.1471	-0.4722	
-0.710284	0.539728	0.492758	-25.55	9.31	-36.54	0.1492	-0.1426	-0.4706	
-0.702842	0.530212	0.499102	-24.15	6.37	-34.93	0.1521	-0.1442	-0.4675	
-0.696254	0.521672	0.502762	-23.94	5.74	-32.55	0.1548	-0.1335	-0.4723	
-0.703818	0.490684	0.490806	-22.96	4.2	-30.59	0.1562	-0.1335	-0.4754	
-0.716262	0.48007	0.505568	-21.49	2.52	-29.05	0.159	-0.1092	-0.471	
-0.72651	0.478972	0.514474	-20.16	1.47	-28.21	0.1647	-0.1213	-0.4755	
-0.712602	0.493612	0.53558	-19.74	0.49	-27.51	0.1619	-0.1137	-0.474	
-0.703086	0.473726	0.531798	-20.65	0.56	-26.53	0.1576	-0.1076	-0.4757	
-0.691618	0.456036	0.5551	-22.54	1.68	-24.78	0.1689	-0.1001	-0.4726	
-0.641598	0.411506	0.60268	-22.12	3.64	-21.84	0.1675	-0.1016	-0.471	
-0.639402	0.412604	0.61976	-19.81	8.75	-16.94	0.1633	-0.0926	-0.4633	
-0.710772	0.40748	0.590724	-19.95	13.58	-12.25	0.1575	-0.0879	-0.4697	
-0.704184	0.386496	0.60207	-19.25	12.39	-11.27	0.1703	-0.08329999	-0.479	
-0.705038	0.385276	0.59353	-17.78	14.49	-8.4	0.1746	-0.088	-0.4664	
-0.698206	0.365878	0.610976	-16.8	15.75	-6.23	0.1703	-0.0819	-0.4712	
-0.730414	0.38003	0.596458	-14.56	16.24	-4.9	0.1873	-0.0773	-0.4743	
-0.77043	0.388814	0.588894	-13.51	17.08	-2.73	0.1816	-0.0773	-0.4775	
-0.796782	0.360022	0.56608	-13.93	14.56	-1.4	0.1789	-0.07889999	-0.4634	
-0.778604	0.3477	0.583526	-13.65	8.54	-1.54	0.1845	-0.0697	-0.4713	
-0.766526	0.381982	0.571326	-11.76	5.11	-0.14	0.1816	-0.0713	-0.4682	
-0.772748	0.382592	0.56364	-12.74	5.53	1.05	0.1873	-0.0667	-0.476	
-0.790682	0.362584	0.578036	-12.53	2.87	1.19	0.193	-0.0652	-0.4697	
-0.772138	0.364658	0.57584	-11.83	-0.35	0.42	0.1858	-0.0545	-0.4715	
-0.77348	0.365512	0.56608	-12.11	-0.98	0.21	0.1873	-0.0637	-0.4651	
-0.77348	0.369294	0.583404	-11.2	-2.38	0.56	0.1873	-0.0652	-0.4682	
-0.77897	0.369538	0.585112	-10.22	-1.33	1.12	0.1887	-0.0621	-0.4776	
-0.790804	0.355996	0.577548	-8.61	-2.45	1.82	0.1802	-0.0636	-0.4714	
-0.773602	0.347822	0.573766	-7.42	-5.67	1.75	0.1916	-0.0607	-0.4667	
-0.773236	0.334402	0.590968	-5.46	-6.58	2.66	0.1816	-0.0545	-0.4715	
-0.756156	0.340502	0.59719	-3.22	-8.4	4.13	0.1859	-0.0621	-0.4714	
-0.740784	0.335012	0.599752	-1.05	-8.75	5.25	0.1759	-0.0544	-0.4778	
-0.729804	0.330132	0.60634	0.77	-8.75	7.28	0.1872	-0.0621	-0.4792	
-0.745664	0.335378	0.605242	2.38	-9.38	9.73	0.173	-0.056	-0.4762	
-0.766648	0.352946	0.61122	3.15	-12.11	12.04	0.1759	-0.0651	-0.4714	
-0.746762	0.355508	0.61366	4.69	-13.37	14.21	0.1859	-0.0576	-0.4652	
-0.7015	0.335134	0.633302	7.14	-12.39	16.1	0.1731	-0.0712	-0.4698	
-0.698694	0.340014	0.63684	10.92	-12.81	18.97	0.1716	-0.059	-0.4731	
-0.748104	0.361608	0.617808	14.28	-14.84	23.66	0.1717	-0.0712	-0.4745	
-0.730902	0.377956	0.626226	16.8	-17.92	24.57	0.166	-0.0787	-0.476	
-0.713578	0.390766	0.627324	19.11	-19.11	25.55	0.1688	-0.0772	-0.4807	
-0.686616	0.398086	0.610854	20.3	-19.25	27.44	0.1589	-0.0848	-0.4775	
-0.664656	0.399306	0.610488	22.19	-19.81	29.19	0.1575	-0.0938	-0.4884	
-0.664412	0.428342	0.607316	24.01	-21.21	31.64	0.1532	-0.0862	-0.4885	
-0.661606	0.441762	0.599874	23.87	-23.52	32.41	0.1461	-0.1014	-0.4868	
-0.658556	0.452132	0.583526	24.22	-24.36	33.6	0.1462	-0.112	-0.4835	
-0.629032	0.461404	0.583648	24.92	-25.55	34.65	0.1278	-0.112	-0.4774	
-0.59353	0.495808	0.601826	26.67	-29.89	34.02	0.1306	-0.1196	-0.4804	
-0.563152	0.5246	0.61061	28.35	-29.4	33.53	0.1263	-0.1241	-0.4882	
-0.566446	0.54351	0.604998	28.21	-25.13	33.6	0.1193	-0.1362	-0.4865	
-0.582672	0.560956	0.597922	27.58	-22.54	35.21	0.1079	-0.1423	-0.4849	
-0.567544	0.5612	0.59475	27.86	-21.35	35.98	0.1094	-0.1393	-0.4787	
-0.542046	0.579744	0.586332	27.86	-22.47	37.45	0.1008	-0.1483	-0.488	
-0.536678	0.603412	0.589016	27.02	-22.26	38.78	0.0909	-0.1604	-0.4911	
-0.549976	0.611342	0.57706	24.57	-19.53	41.23	0.0995	-0.1636	-0.48	
-0.538874	0.624518	0.568032	23.03	-19.81	43.33	0.0967	-0.1713	-0.4768	
-0.510814	0.624396	0.579256	21.56	-19.81	44.73	0.0881	-0.1712	-0.4831	
-0.480314	0.642452	0.581818	21.35	-19.11	46.69	0.0797	-0.1743	-0.4691	
-0.46787	0.640378	0.59292	21.14	-17.71	48.65	0.0683	-0.1848	-0.4768	
-0.472018	0.64904	0.583526	20.23	-15.26	51.31	0.0684	-0.1895	-0.4721	
-0.447618	0.66673	0.586576	21	-16.66	53.2	0.0513	-0.1954	-0.4784	
-0.42395	0.658922	0.595482	20.65	-15.33	54.88	0.0457	-0.1985	-0.4721	
-0.403698	0.656604	0.574742	20.72	-12.95	57.75	0.0429	-0.2031	-0.4674	
-0.393816	0.688446	0.57645	19.6	-12.95	61.95	0.05	-0.2093	-0.4625	
-0.370148	0.679296	0.58438	19.53	-14.07	64.54	0.0457	-0.2061	-0.4689	
-0.33428	0.6832	0.586088	20.65	-15.61	67.06	0.0358	-0.2153	-0.4672	
-0.31415	0.690398	0.584624	22.47	-15.19	70.21	0.023	-0.2182	-0.4688	
-0.297314	0.717238	0.567666	22.75	-14	73.99	0.0145	-0.2258	-0.4672	
-0.263276	0.728828	0.565226	23.03	-14.77	77.77	0.0075	-0.2304	-0.461	
-0.207522	0.720044	0.57035	24.08	-16.38	80.78	-0.0038	-0.2348	-0.4719	
-0.169702	0.72651	0.547048	25.27	-16.1	84.07	-0.0123	-0.2365	-0.4579	
-0.163724	0.743102	0.53131	26.81	-14.84	86.59	-0.0236	-0.2486	-0.4578	
-0.1647	0.7625	0.50081	26.88	-15.47	88.83	-0.0321	-0.247	-0.4625	
-0.14518	0.759572	0.498004	27.02	-18.27	90.44	-0.0407	-0.2531	-0.4625	
-0.098454	0.759572	0.491416	25.76	-20.09	92.19	-0.0605	-0.2547	-0.4485	
-0.062342	0.759938	0.485072	25.62	-23.8	95.76	-0.0647	-0.2654	-0.4406	
-0.029768	0.759572	0.45628	25.13	-25.55	96.74	-0.0676	-0.2562	-0.447	
0.02135	0.768356	0.451278	26.46	-28.98	97.02	-0.0803	-0.2576	-0.447	
0.111264	0.80154	0.463112	26.6	-29.05	96.18	-0.0959	-0.2622	-0.4455	
0.161528	0.81313	0.43981	25.69	-26.25	95.2	-0.1058	-0.2698	-0.4376	
0.192028	0.81679	0.428098	26.39	-26.74	93.94	-0.1229	-0.2591	-0.4363	
0.190564	0.812886	0.397232	25.9	-27.86	93.24	-0.1371	-0.2622	-0.4332	
0.24766	0.815326	0.409798	25.06	-31.57	90.72	-0.1413	-0.2668	-0.4285	
0.327204	0.824232	0.392962	23.31	-34.3	87.15	-0.1569	-0.2607	-0.4208	
0.335256	0.827404	0.358314	18.83	-30.66	84.42	-0.1725	-0.2743	-0.4223	
0.34709	0.834846	0.316712	16.38	-32.55	82.11	-0.181	-0.2728	-0.4176	
0.38552	0.854122	0.323544	14.91	-35.77	82.53	-0.1937	-0.2729	-0.4036	
0.439932	0.874496	0.384544	10.85	-37.87	81.2	-0.2108	-0.2622	-0.4038	
0.458354	0.849974	0.375882	-2.17	-32.48	80.92	-0.2208	-0.2545	-0.4149	
0.455426	0.83814	0.335378	-13.86	-30.8	80.08	-0.225	-0.2561	-0.3993	
0.491172	0.823744	0.334646	-20.72	-28.91	81.83	-0.2436	-0.2408	-0.4058	
0.575474	0.810202	0.365268	-15.68	-31.99	77.77	-0.2607	-0.2255	-0.4061	
0.56303	0.749568	0.328546	-22.4	-29.05	78.33	-0.2593	-0.2165	-0.3984	
0.569862	0.786778	0.29585	-38.01	-29.26	80.08	-0.272	-0.218	-0.3969	
0.574376	0.79727	0.304146	-34.65	-37.94	72.45	-0.2934	-0.2027	-0.3987	
0.556564	0.761646	0.351604	-20.3	-46.06	61.39	-0.2977	-0.1905	-0.3958	
0.585112	0.728706	0.398208	-21.42	-44.45	58.38	-0.3034	-0.1919	-0.402	
0.592798	0.725412	0.388936	-23.59	-42.49	53.41	-0.3246	-0.189	-0.3865	
0.62464	0.69357	0.379664	-28.7	-38.99	50.82	-0.329	-0.1676	-0.3962	
0.665266	0.687104	0.386862	-25.48	-41.72	44.8	-0.3418	-0.1661	-0.39	
0.701256	0.68564	0.388326	-25.27	-42.7	39.83	-0.3461	-0.1509	-0.384	
0.716262	0.64965	0.392108	-23.87	-43.54	36.68	-0.3461	-0.1479	-0.3777	
0.71675	0.640378	0.385764	-25.2	-41.16	34.3	-0.3546	-0.1403	-0.3747	
0.7137	0.630618	0.398208	-24.71	-41.44	28.98	-0.3518	-0.1296	-0.3858	
0.695034	0.633058	0.382348	-27.3	-39.62	24.92	-0.366	-0.1252	-0.3671	
0.73932	0.624152	0.366854	-28.49	-38.78	22.54	-0.3745	-0.1267	-0.3672	
0.77714	0.59963	0.354532	-24.99	-36.47	20.79	-0.3659	-0.1253	-0.3546	
0.776042	0.596214	0.399794	-25.69	-33.95	19.67	-0.3659	-0.1253	-0.3546	
0.757986	0.587918	0.393938	-19.6	-33.67	13.65	-0.383	-0.113	-0.3611	
0.791414	0.591578	0.381006	-20.58	-34.72	8.47	-0.383	-0.113	-0.3611	
0.798856	0.553148	0.381494	-16.87	-35.28	5.6	-0.3986	-0.1024	-0.3504	
0.782386	0.526186	0.377834	-14.7	-33.18	6.58	-0.3958	-0.0995	-0.341	
0.774456	0.514718	0.33977	-13.23	-29.54	6.86	-0.3958	-0.0995	-0.341	
0.784582	0.522282	0.323666	-8.33	-27.09	5.95	-0.3986	-0.0979	-0.3457	
0.781532	0.530212	0.338428	-4.06	-23.8	6.3	-0.4057	-0.09649999	-0.338	
0.831186	0.535702	0.310612	-3.43	-21.98	4.13	-0.4071	-0.0889	-0.3365	
0.862174	0.519964	0.335988	-0.63	-20.23	3.08	-0.4028	-0.0905	-0.3255	
0.848876	0.529358	0.31415	-2.52	-16.94	2.94	-0.4113	-0.0966	-0.327	
0.8479	0.510936	0.265594	2.38	-11.34	5.74	-0.4057	-0.0905	-0.3286	
0.836676	0.541436	0.275598	4.27	-10.78	5.04	-0.4213	-0.098	-0.3271	
0.856562	0.533018	0.271694	5.74	-10.71	1.96	-0.4071	-0.08899999	-0.3255	
0.836554	0.528138	0.27633	6.37	-10.92	1.89	-0.4212	-0.1013	-0.3129	
0.824842	0.528626	0.264374	7.63	-6.72	4.34	-0.4156	-0.0951	-0.3192	
0.82655	0.538508	0.263886	9.59	-3.22	6.58	-0.4127	-0.0982	-0.3192	
0.832772	0.524112	0.266936	9.1	-2.52	5.95	-0.4099	-0.0967	-0.3161	
0.80886	0.532774	0.238388	7.07	-1.12	6.58	-0.417	-0.0967	-0.3161	
0.799222	0.535946	0.257542	8.19	-1.61	5.88	-0.4185	-0.095	-0.3286	
0.810934	0.537532	0.242658	8.61	-0.84	6.16	-0.4198	-0.09959999	-0.3208	
0.814838	0.543632	0.229116	8.47	-0.63	5.67	-0.4142	-0.0935	-0.3239	
0.819108	0.550708	0.254858	7.84	-1.05	4.55	-0.424	-0.1027	-0.3145	
0.820206	0.550464	0.264618	7.91	0.42	4.27	-0.4184	-0.0922	-0.3115	
0.832284	0.533872	0.259128	6.02	0.7	3.01	-0.4198	-0.09519999	-0.313	
0.833138	0.547536	0.254004	6.51	1.82	2.66	-0.4183	-0.0983	-0.3083	
0.828624	0.54961	0.256078	5.39	3.08	2.03	-0.4184	-0.1072	-0.3222	
0.818742	0.559126	0.257664	3.57	3.99	1.82	-0.4184	-0.0982	-0.313	
0.79239	0.580842	0.254004	3.22	5.25	1.61	-0.4184	-0.09519999	-0.313	
0.791048	0.57096	0.249612	4.13	3.29	-0.84	-0.417	-0.1012	-0.3192	
0.816302	0.55754	0.248758	2.38	3.29	-1.75	-0.4198	-0.0982	-0.3114	
0.82228	0.56974	0.255712	1.61	4.9	-2.17	-0.4269	-0.1028	-0.3129	
0.793976	0.582916	0.257664	0.21	4.69	-3.01	-0.4199	-0.1011	-0.3301	
0.806908	0.568154	0.273036	1.82	2.66	-7.28	-0.4113	-0.0875	-0.3224	
0.793	0.563884	0.262788	1.96	4.13	-7.98	-0.4142	-0.0936	-0.3192	
0.78141	0.566934	0.26291	1.82	4.69	-8.96	-0.417	-0.0997	-0.3176	
0.790926	0.578768	0.26962	4.13	4.55	-11.27	-0.4127	-0.1012	-0.3191	
0.823622	0.562176	0.278648	1.68	5.18	-12.74	-0.4155	-0.1058	-0.3191	
0.817156	0.563152	0.272792	-1.05	6.72	-11.83	-0.4113	-0.1011	-0.3285	
0.790926	0.57584	0.2684	-0.56	7.21	-11.2	-0.4056	-0.1149	-0.3205	
0.80886	0.594628	0.271206	-1.96	7.07	-12.95	-0.4212	-0.1133	-0.3237	
0.795562	0.589504	0.275964	-4.13	9.1	-12.46	-0.407	-0.1027	-0.3222	
0.792512	0.576572	0.26657	-5.67	8.89	-13.09	-0.4084	-0.1149	-0.3174	
0.80215	0.585112	0.26291	-4.55	10.01	-14.42	-0.3999	-0.1087	-0.33	
0.800198	0.60268	0.2928	-3.85	11.76	-14.7	-0.4056	-0.1133	-0.3252	
0.795074	0.616954	0.302438	-2.59	13.51	-14.91	-0.4042	-0.1209	-0.3314	
0.807396	0.60512	0.304756	-5.04	14.84	-16.73	-0.4056	-0.1148	-0.3268	
0.797636	0.606096	0.304878	-3.43	16.52	-18.41	-0.4014	-0.1223	-0.3423	
0.773236	0.60085	0.30744	-0.21	19.67	-19.18	-0.3956	-0.1209	-0.3282	
0.762744	0.610244	0.289262	-1.33	19.88	-22.12	-0.3957	-0.1223	-0.3423	
0.750788	0.605852	0.290726	0.42	21.42	-23.8	-0.3928	-0.1269	-0.3391	
0.754814	0.604754	0.30134	2.94	23.45	-23.66	-0.3914	-0.1344	-0.35	
0.738344	0.617808	0.310368	4.55	24.15	-23.87	-0.3815	-0.1329	-0.3499	
0.724314	0.637816	0.32269	4.9	22.75	-26.46	-0.39	-0.1374	-0.3562	
0.724192	0.620614	0.35136	0.63	29.05	-21.84	-0.3744	-0.1389	-0.3592	
0.71004	0.630496	0.352092	6.44	28.77	-25.41	-0.3744	-0.1344	-0.3577	
0.691862	0.6344	0.352946	5.88	26.74	-29.47	-0.363	-0.1496	-0.3637	
0.67161	0.659654	0.35014	0.14	26.32	-29.96	-0.3672	-0.1512	-0.3559	
0.651602	0.656482	0.354654	4.69	24.92	-31.99	-0.3587	-0.1572	-0.362	
0.665388	0.654164	0.375028	7.84	24.57	-34.37	-0.3602	-0.1571	-0.3699	
0.65453	0.666852	0.36112	9.1	27.09	-33.39	-0.3374	-0.1679	-0.3649	
0.626104	0.686616	0.33489	7.42	27.51	-33.53	-0.3332	-0.1738	-0.3805	
0.596092	0.701866	0.342454	7.28	25.06	-34.79	-0.3317	-0.1799	-0.3788	
0.571936	0.722728	0.356118	8.05	23.52	-34.58	-0.336	-0.1829	-0.3788	
0.569618	0.726876	0.36966	6.23	22.68	-35.14	-0.3289	-0.1906	-0.3803	
0.579256	0.725534	0.383202	3.92	21.49	-35.77	-0.3132	-0.1891	-0.3786	
0.582428	0.720532	0.403088	2.8	22.68	-35.07	-0.3189	-0.1951	-0.3817	
0.591212	0.723094	0.418338	0.63	24.15	-33.88	-0.3104	-0.1998	-0.3785	
0.590114	0.726022	0.413458	-2.52	25.06	-33.88	-0.3047	-0.1982	-0.3832	
0.556442	0.738222	0.392108	-4.27	26.81	-33.67	-0.3005	-0.1936	-0.3942	
0.535946	0.760182	0.403088	-4.27	27.93	-33.88	-0.2933	-0.2043	-0.3877	
0.525576	0.766648	0.410774	-2.31	28.35	-34.37	-0.2906	-0.2057	-0.4018	
0.508984	0.771772	0.402966	-6.37	30.24	-33.81	-0.2891	-0.2072	-0.4018	
0.466162	0.79788	0.404796	-10.5	30.87	-34.02	-0.282	-0.2102	-0.4048	
0.443836	0.813374	0.430904	-10.85	30.17	-36.89	-0.2764	-0.2102	-0.4064	
0.444324	0.821182	0.45079	-18.69	35.84	-39.76	-0.2565	-0.2088	-0.4094	
0.43005	0.810568	0.409554	-15.19	32.55	-43.82	-0.2608	-0.2057	-0.411	
0.426024	0.801662	0.469822	-12.95	26.81	-47.81	-0.2466	-0.2118	-0.4156	
0.421266	0.817888	0.443348	-12.6	29.19	-52.29	-0.2437	-0.2179	-0.4124	
0.417484	0.82655	0.46299	-16.17	31.78	-53.48	-0.2395	-0.2208	-0.428	
0.394914	0.814838	0.482998	-15.12	33.32	-57.12	-0.231	-0.2283	-0.4372	
0.387228	0.8174	0.468846	-14.98	35.14	-57.89	-0.2267	-0.2147	-0.4264	
0.3538	0.824598	0.481534	-16.87	38.22	-58.87	-0.2111	-0.2208	-0.4356	
0.320494	0.833016	0.470432	-21.07	37.1	-61.53	-0.2097	-0.2238	-0.4419	
0.271694	0.83143	0.48617	-26.32	37.66	-66.15	-0.1912	-0.2285	-0.4307	
0.252296	0.816302	0.495076	-27.16	36.26	-70.14	-0.1742	-0.2253	-0.4495	
0.233386	0.81191	0.523258	-27.65	33.46	-73.43	-0.1771	-0.2207	-0.4527	
0.206424	0.795562	0.535092	-29.82	34.09	-77.28	-0.16	-0.2224	-0.4463	
0.196176	0.77653	0.55144	-30.59	35.42	-80.5	-0.1516	-0.2162	-0.4589	
0.192272	0.764574	0.56852	-31.22	40.11	-82.74	-0.1346	-0.2101	-0.4604	
0.174582	0.7503	0.57706	-32.48	42.42	-84.84	-0.1346	-0.2162	-0.4666	
0.134078	0.73078	0.573156	-33.46	45.22	-86.52	-0.1218	-0.2071	-0.4651	
0.10919	0.716262	0.58377	-35.28	46.34	-88.13	-0.0991	-0.2056	-0.4728	
0.072712	0.712602	0.59536	-37.1	48.44	-89.25	-0.09209999	-0.201	-0.4791	
0.028304	0.703208	0.60634	-37.52	49.63	-90.16	-0.0764	-0.1995	-0.4806	
0.0305	0.676368	0.614026	-37.38	49.91	-91.42	-0.0594	-0.1965	-0.4821	
-0.048556	0.66551	0.616466	-37.8	53.41	-93.52	-0.0495	-0.1799	-0.476	
-0.103822	0.635498	0.616588	-37.73	55.09	-94.08	-0.0382	-0.1858	-0.4915	
-0.162016	0.610366	0.625006	-34.86	56.42	-95.2	-0.0155	-0.1767	-0.4993	
-0.247782	0.607316	0.641964	-31.22	54.95	-96.46	-0.0056	-0.16	-0.4979	
-0.305	0.580354	0.658312	-28.21	53.69	-96.88	0.0113	-0.1539	-0.5057	
-0.32147	0.533994	0.570716	-39.69	69.02	-91.63	0.0241	-0.1525	-0.4962	
-0.393816	0.502518	0.66185	-23.87	54.88	-91.77	0.0383	-0.1495	-0.4946	
-0.427854	0.491294	0.647332	-19.67	55.79	-88.13	0.051	-0.151	-0.5071	
-0.488122	0.459696	0.64111	-15.12	49.98	-83.51	0.0609	-0.1283	-0.4979	
-0.515572	0.445422	0.659532	-12.18	44.17	-77.56	0.0752	-0.1299	-0.4947	
-0.57523	0.457866	0.62281	-8.05	43.26	-70.42	0.0822	-0.1207	-0.5041	
-0.62159	0.465186	0.642818	-5.39	40.67	-64.33	0.0951	-0.124	-0.4899	
-0.631228	0.452132	0.646478	-5.53	36.33	-59.99	0.1035	-0.1179	-0.4931	
-0.606828	0.409432	0.639646	-4.69	33.39	-55.72	0.1078	-0.1134	-0.49	
-0.62098	0.399306	0.610244	-0.84	31.29	-46.41	0.1334	-0.1013	-0.4837	
-0.609512	0.406992	0.636352	1.05	28.28	-42.91	0.1334	-0.0998	-0.4853	
-0.61366	0.412726	0.639158	2.03	30.1	-40.88	0.1462	-0.1135	-0.4913	
-0.650382	0.406504	0.638792	5.67	34.44	-37.59	0.139	-0.0922	-0.4885	
-0.665998	0.415776	0.608658	7.35	34.93	-32.55	0.1547	-0.0969	-0.4837	
-0.665266	0.429196	0.610732	8.75	32.13	-30.38	0.1547	-0.0984	-0.4805	
-0.672952	0.421144	0.595848	8.82	32.55	-29.19	0.1561	-0.0954	-0.4837	
-0.692106	0.426756	0.581818	7.91	31.92	-27.16	0.1589	-0.0909	-0.479	
-0.732488	0.43737	0.561444	7.14	31.15	-23.31	0.1746	-0.0911	-0.4648	
-0.72468	0.430172	0.559736	5.74	29.89	-21.14	0.1746	-0.0925	-0.4726	
-0.713944	0.40992	0.567422	6.3	28.56	-20.16	0.1747	-0.0957	-0.4617	
-0.74786	0.41907	0.548634	6.86	27.3	-18.76	0.1902	-0.08199999	-0.4617	
-0.770796	0.437004	0.533506	6.51	26.11	-16.87	0.1974	-0.09429999	-0.4584	
-0.724436	0.428342	0.532774	8.26	27.3	-15.82	0.1903	-0.09429999	-0.4569	
-0.7564	0.44591	0.526552	8.75	26.39	-13.44	0.2017	-0.0958	-0.4552	
-0.804224	0.46299	0.514596	8.47	24.85	-9.94	0.2031	-0.1018	-0.4646	
-0.78202	0.442006	0.504836	6.16	24.99	-7.49	0.2045	-0.0929	-0.449	
-0.784338	0.42761	0.485926	5.74	24.43	-5.11	0.213	-0.0898	-0.4521	
-0.78995	0.430294	0.478606	5.46	22.33	-2.66	0.2116	-0.09739999	-0.4536	
-0.7869	0.432856	0.472384	5.6	20.37	-1.12	0.2117	-0.0975	-0.4489	
-0.792756	0.440176	0.462868	6.16	19.53	0.28	0.2174	-0.1006	-0.4473	
-0.782996	0.436394	0.446764	6.02	18.27	1.89	0.2302	-0.0917	-0.4316	
-0.79605	0.44896	0.447618	6.23	16.17	2.66	0.2287	-0.0944	-0.4535	
-0.818742	0.457134	0.43432	5.88	15.96	3.99	0.233	-0.0961	-0.4394	
-0.819108	0.453108	0.411994	4.62	12.95	3.64	0.2273	-0.0991	-0.441	
-0.80581	0.447008	0.418216	4.2	10.57	2.24	0.2317	-0.1008	-0.43	
-0.84424	0.46665	0.405284	5.46	7.84	2.31	0.2388	-0.1024	-0.4299	
-0.861442	0.469578	0.401258	4.48	4.2	2.31	0.2302	-0.0977	-0.4316	
-0.863272	0.47275	0.400526	4.48	0.7	2.1	0.2373	-0.1023	-0.4362	
-0.84241	0.469456	0.407114	3.36	-2.73	2.17	0.2345	-0.1099	-0.4345	
-0.826428	0.463112	0.411506	2.66	-5.53	3.29	0.2259	-0.1083	-0.4424	
-0.81618	0.452498	0.415532	2.03	-7.21	5.04	0.2316	-0.1022	-0.4409	
-0.817278	0.45262	0.424072	1.82	-8.47	6.93	0.2174	-0.1082	-0.4409	
-0.821914	0.450058	0.426024	2.03	-10.5	9.24	0.2231	-0.1007	-0.4331	
-0.817034	0.454694	0.434686	2.38	-13.16	11.48	0.2246	-0.1069	-0.4299	
-0.825086	0.447496	0.431392	2.59	-15.26	14.63	0.2217	-0.1174	-0.4361	
-0.834114	0.450912	0.424194	1.89	-17.92	17.85	0.2231	-0.1052	-0.4394	
-0.829478	0.458842	0.444568	1.47	-22.05	20.3	0.216	-0.1036	-0.4457	
-0.805688	0.45994	0.460916	2.38	-23.24	22.89	0.2118	-0.1113	-0.4362	
-0.792024	0.461038	0.458476	3.71	-23.52	26.32	0.2117	-0.1173	-0.4455	
-0.796294	0.463722	0.457988	3.43	-26.32	28.42	0.206	-0.1082	-0.4441	
-0.757864	0.465064	0.48434	4.48	-28.7	32.06	0.1933	-0.1233	-0.444	
-0.724924	0.486658	0.498858	6.02	-29.19	34.51	0.199	-0.1294	-0.4486	
-0.719434	0.500688	0.487756	7.14	-27.3	37.03	0.189	-0.1307	-0.4596	
-0.711016	0.49837	0.49288	7.21	-26.32	40.6	0.1904	-0.1293	-0.4533	
-0.714676	0.507764	0.49532	7.21	-26.32	43.68	0.1905	-0.14	-0.4501	
-0.708088	0.52277	0.502518	7.21	-26.53	47.04	0.1791	-0.1384	-0.4517	
-0.695034	0.523136	0.499834	6.93	-26.18	50.47	0.1706	-0.1475	-0.4548	
-0.688324	0.543144	0.509838	4.83	-27.65	53.83	0.1578	-0.1472	-0.469	
-0.652944	0.543876	0.511546	3.08	-30.03	57.75	0.155	-0.1609	-0.4672	
-0.63562	0.554002	0.530334	4.06	-28.49	59.43	0.1507	-0.1564	-0.4642	
-0.629642	0.564006	0.524112	1.54	-26.88	64.26	0.1352	-0.1717	-0.4547	
-0.619638	0.566812	0.525332	2.31	-28.35	67.9	0.1224	-0.1821	-0.4656	
-0.578036	0.581696	0.544974	1.33	-28.21	70.77	0.1081	-0.1684	-0.4674	
-0.55205	0.576938	0.547292	1.4	-28.98	73.64	0.111	-0.176	-0.4642	
-0.549976	0.589626	0.543876	2.94	-29.26	77.42	0.0911	-0.1865	-0.4704	
-0.529602	0.580354	0.543876	3.85	-30.17	81.9	0.08549999	-0.1897	-0.4595	
-0.486292	0.599874	0.56181	3.64	-33.74	84.98	0.0812	-0.2063	-0.4671	
-0.44652	0.623664	0.570838	4.48	-34.65	87.5	0.0613	-0.1985	-0.4736	
-0.392352	0.68991	0.604144	4.41	-35.56	90.51	0.0585	-0.2001	-0.4657	
-0.317444	0.708454	0.601094	3.85	-38.29	93.87	0.0443	-0.2091	-0.4798	
-0.232288	0.658434	0.568886	3.92	-42.63	97.86	0.0273	-0.2168	-0.4657	
-0.171654	0.65453	0.550708	5.6	-40.39	100.45	0.0201	-0.2105	-0.4752	
-0.15555	0.689788	0.549122	7.49	-39.27	102.13	-0.0039	-0.212	-0.4722	
-0.144448	0.715042	0.52704	6.02	-36.47	102.76	-0.0054	-0.215	-0.48	
-0.106872	0.71675	0.52765	7.84	-42.98	102.48	-0.0209	-0.2211	-0.4706	
-0.076372	0.711748	0.508374	10.78	-46.27	102.69	-0.038	-0.2225	-0.4723	
-0.042456	0.713212	0.485072	12.04	-49.98	103.32	-0.0607	-0.2239	-0.4739	
0.016348	0.727486	0.501054	10.85	-50.96	103.6	-0.0777	-0.23	-0.4693	
0.081008	0.729194	0.499224	12.6	-55.79	101.22	-0.08199999	-0.2239	-0.4709	
0.153476	0.735172	0.526308	14.07	-55.09	98.91	-0.1019	-0.2269	-0.4663	
0.203618	0.71858	0.506544	17.15	-54.04	99.19	-0.1146	-0.2224	-0.4617	
0.252784	0.735782	0.504348	17.57	-53.27	97.3	-0.1402	-0.2207	-0.4634	
0.331962	0.769332	0.532164	18.41	-53.55	93.73	-0.1459	-0.2253	-0.4634	
0.35868	0.742004	0.467138	18.2	-52.43	89.18	-0.1557	-0.2345	-0.4477	
0.347944	0.730658	0.435052	18.97	-47.25	88.48	-0.1742	-0.2329	-0.4494	
0.37088	0.735416	0.436638	20.09	-45.78	88.06	-0.1813	-0.2254	-0.4386	
0.434686	0.778848	0.433466	13.37	-44.45	84.35	-0.1969	-0.2238	-0.4434	
0.45933	0.804956	0.448838	9.94	-45.01	79.73	-0.2182	-0.2253	-0.4403	
0.497882	0.802394	0.468358	7.35	-45.08	74.27	-0.2168	-0.2147	-0.4357	
0.5002	0.755302	0.42761	4.41	-46.06	69.02	-0.2367	-0.2162	-0.4311	
0.50386	0.752862	0.412116	-1.12	-46.27	65.31	-0.2395	-0.2132	-0.4249	
0.523746	0.735782	0.431758	0.14	-46.69	61.6	-0.2523	-0.2101	-0.4235	
0.577548	0.719434	0.430172	-6.86	-43.4	61.32	-0.2707	-0.2026	-0.4143	
0.620126	0.714554	0.448472	-8.26	-41.58	60.83	-0.2651	-0.1965	-0.4143	
0.597312	0.691862	0.40931	-12.53	-37.52	61.32	-0.2836	-0.1949	-0.416	
0.626592	0.727364	0.405406	-19.81	-39.97	57.68	-0.295	-0.1872	-0.4177	
0.655506	0.721752	0.427488	-14.49	-41.93	52.15	-0.3063	-0.1767	-0.4007	
0.680272	0.729194	0.430904	-17.43	-41.16	48.93	-0.3063	-0.1661	-0.3977	
0.676734	0.733708	0.44774	-17.71	-40.39	48.86	-0.3177	-0.166	-0.3993	
0.665144	0.686738	0.445178	-24.57	-35.49	49.84	-0.3148	-0.1495	-0.3869	
0.655628	0.659166	0.40016	-37.24	-30.24	49.63	-0.3333	-0.151	-0.3823	
0.69296	0.627568	0.420656	-37.73	-31.22	45.85	-0.3263	-0.1386	-0.4028	
0.689666	0.607438	0.432978	-26.67	-32.41	39.9	-0.3461	-0.1326	-0.3857	
0.697352	0.606584	0.409554	-21.28	-32.55	34.58	-0.3406	-0.1172	-0.4078	
0.72224	0.621834	0.425414	-19.95	-33.6	29.75	-0.3491	-0.1174	-0.3891	
0.734928	0.589138	0.466162	-12.95	-35	26.18	-0.359	-0.1098	-0.3845	
0.767746	0.558882	0.440664	-11.41	-32.34	23.66	-0.3647	-0.1037	-0.3815	
0.782752	0.54961	0.414922	-11.76	-28.91	21.63	-0.3704	-0.0961	-0.38	
0.786656	0.563274	0.400648	-9.24	-28.35	19.11	-0.369	-0.0901	-0.377	
0.774944	0.562908	0.396988	-7.35	-26.88	17.08	-0.3632	-0.0918	-0.3644	
0.791536	0.543144	0.386984	-5.11	-25.48	14.56	-0.3775	-0.0885	-0.3739	
0.818254	0.5246	0.380274	-5.81	-22.4	14.14	-0.3789	-0.0825	-0.3662	
0.828868	0.535702	0.373686	-4.9	-17.64	15.47	-0.3845	-0.0917	-0.3629	
0.818986	0.510692	0.377346	-1.54	-15.54	14.98	-0.3902	-0.0872	-0.3536	
0.825696	0.496296	0.37149	-2.66	-12.25	14.28	-0.3874	-0.081	-0.3615	
0.815936	0.516548	0.370758	-3.29	-9.94	13.86	-0.3888	-0.08109999	-0.3553	
0.771162	0.527894	0.351482	0.84	-10.71	11.34	-0.3945	-0.0932	-0.3583	
0.772748	0.51728	0.321714	0.35	-10.92	9.87	-0.3959	-0.0705	-0.3476	
0.792268	0.507398	0.329034	-2.1	-12.04	8.89	-0.4002	-0.0781	-0.3522	
0.790316	0.496906	0.357216	-2.8	-12.6	8.12	-0.3988	-0.0704	-0.3601	
0.800808	0.49044	0.341966	-0.14	-11.48	6.44	-0.4002	-0.0704	-0.3555	
0.817766	0.516182	0.32635	2.8	-11.76	4.83	-0.4002	-0.0796	-0.3522	
0.82045	0.520696	0.345992	2.94	-12.67	2.24	-0.4001	-0.0766	-0.346	
0.822768	0.507642	0.35197	2.8	-11.55	1.82	-0.4015	-0.0782	-0.3428	
0.815692	0.511424	0.33794	3.78	-9.38	1.68	-0.4044	-0.0736	-0.3445	
0.818376	0.52094	0.313418	3.36	-8.47	1.26	-0.403	-0.0705	-0.3492	
0.83875	0.51057	0.327326	3.36	-8.68	-0.56	-0.4087	-0.0704	-0.3508	
0.832162	0.50691	0.327204	2.66	-5.74	0.35	-0.403	-0.0887	-0.3506	
0.811788	0.520574	0.298778	2.03	-3.43	1.33	-0.4072	-0.0705	-0.343	
0.814716	0.52643	0.295118	1.89	-3.85	0.91	-0.4086	-0.0813	-0.3303	
0.829966	0.501664	0.323788	1.82	-3.22	0.21	-0.4087	-0.0629	-0.3462	
0.81618	0.493002	0.30561	2.31	0.07	1.19	-0.4044	-0.0782	-0.3397	
0.799954	0.51484	0.270962	1.26	0.91	2.03	-0.4044	-0.0796	-0.3491	
0.816546	0.510814	0.290848	0.84	-0.63	1.96	-0.4058	-0.0736	-0.3414	
0.833992	0.486902	0.323544	0.56	-0.35	2.66	-0.4158	-0.0765	-0.3508	
0.840702	0.494344	0.29524	-3.15	1.89	3.85	-0.4058	-0.0752	-0.3382	
0.82594	0.50691	0.292678	-5.18	2.31	3.92	-0.4058	-0.069	-0.3461	
0.816058	0.491904	0.31964	-1.89	1.26	3.29	-0.4058	-0.0736	-0.3414	
0.82045	0.478118	0.306098	-0.14	3.36	3.5	-0.4087	-0.0766	-0.346	
0.803492	0.50935	0.299388	-2.59	2.94	2.38	-0.4129	-0.072	-0.3461	
0.797026	0.504104	0.316834	-2.17	1.26	0	-0.4016	-0.0735	-0.3476	
0.813618	0.499102	0.310246	-2.38	1.05	0.21	-0.4016	-0.0706	-0.3414	
0.815814	0.498248	0.339892	-2.73	0.56	-1.12	-0.4059	-0.0705	-0.3492	
0.799832	0.506544	0.343064	-3.64	2.17	-2.52	-0.4115	-0.075	-0.3508	
0.782752	0.510082	0.3172	-3.71	3.15	-2.73	-0.4102	-0.0658	-0.354	
0.803858	0.498248	0.327448	-0.77	1.05	-4.41	-0.4088	-0.0598	-0.3541	
0.815326	0.496418	0.344772	-0.63	1.4	-5.74	-0.4044	-0.0721	-0.3367	
0.804468	0.515084	0.341478	-3.99	3.01	-5.11	-0.403	-0.0614	-0.3431	
0.807884	0.52033	0.342942	-4.13	2.38	-7.42	-0.4086	-0.0736	-0.3414	
0.829478	0.512888	0.351726	-3.71	1.96	-10.78	-0.3987	-0.0751	-0.346	
0.838628	0.5185	0.351482	-4.2	3.08	-11.41	-0.4087	-0.069	-0.3477	
0.820084	0.532164	0.3538	-2.8	5.11	-9.8	-0.4073	-0.0628	-0.3556	
0.808982	0.531432	0.350262	-1.82	5.88	-12.04	-0.403	-0.0675	-0.3414	
0.832894	0.536678	0.342698	-1.54	8.4	-13.58	-0.403	-0.0735	-0.3492	
0.847778	0.529358	0.361486	-0.84	12.18	-13.02	-0.3959	-0.0826	-0.3537	
0.827282	0.53314	0.360754	-1.26	14.77	-14	-0.4002	-0.072	-0.3507	
0.803004	0.532652	0.349286	-1.05	17.99	-15.05	-0.3887	-0.0888	-0.3473	
0.795074	0.52216	0.3416	0.07	20.37	-15.12	-0.3888	-0.0841	-0.3568	
0.80764	0.520696	0.344406	0.7	19.67	-16.94	-0.3916	-0.0796	-0.3537	
0.79178	0.518988	0.36356	3.57	20.51	-17.71	-0.3959	-0.0932	-0.3583	
0.77531	0.532286	0.369294	7.35	22.05	-16.87	-0.3873	-0.1008	-0.3613	
0.756644	0.539728	0.376858	8.47	23.45	-16.94	-0.3803	-0.09779999	-0.3644	
0.746396	0.52765	0.36844	12.25	25.69	-16.73	-0.3874	-0.0885	-0.3724	
0.756034	0.543022	0.379176	14.49	25.83	-18.62	-0.386	-0.1007	-0.3707	
0.738588	0.573644	0.38308	18.48	25.83	-22.26	-0.3831	-0.1052	-0.3784	
0.719678	0.598166	0.367342	21.49	21.84	-26.81	-0.3632	-0.113	-0.372	
0.714432	0.601948	0.374052	23.94	20.3	-28.84	-0.3689	-0.1235	-0.3781	
0.726754	0.622078	0.383446	25.41	20.93	-30.52	-0.3675	-0.1205	-0.3766	
0.721996	0.646112	0.365756	23.1	21.56	-33.04	-0.3618	-0.1281	-0.3812	
0.716994	0.665266	0.377712	23.45	21.14	-34.58	-0.3532	-0.1418	-0.3825	
0.733464	0.668316	0.396378	25.62	20.93	-38.22	-0.3575	-0.1372	-0.3811	
0.727242	0.69235	0.36173	26.67	22.68	-42.77	-0.3532	-0.1463	-0.3872	
0.717604	0.704794	0.37759	25.48	19.53	-49.56	-0.3404	-0.16	-0.387	
0.71858	0.715164	0.391254	22.26	18.9	-53.27	-0.3318	-0.1602	-0.3775	
0.726632	0.727852	0.383812	13.3	23.8	-55.16	-0.3262	-0.1661	-0.3899	
0.70089	0.714432	0.377956	13.23	27.86	-57.75	-0.3261	-0.1798	-0.3945	
0.682468	0.71919	0.35868	0	36.12	-59.57	-0.3205	-0.1858	-0.4038	
0.646966	0.755424	0.355996	-7	38.43	-61.32	-0.3147	-0.1859	-0.3912	
0.630374	0.75579	0.37698	-3.64	36.68	-64.05	-0.302	-0.1965	-0.4004	
0.624518	0.735904	0.383568	-3.99	32.76	-67.69	-0.292	-0.2012	-0.3956	
0.60268	0.738832	0.355874	-4.2	30.03	-71.82	-0.2892	-0.2042	-0.4018	
0.574132	0.7381	0.339526	-10.78	30.94	-74.97	-0.2707	-0.2072	-0.4032	
0.534848	0.745664	0.328058	-16.45	29.33	-75.67	-0.2664	-0.2072	-0.4079	
0.519598	0.745908	0.379176	-21.84	25.06	-77.28	-0.2565	-0.2102	-0.4141	
0.488976	0.740052	0.39833	-22.19	24.57	-78.82	-0.2522	-0.2178	-0.4187	
0.480436	0.75579	0.447984	-22.89	24.36	-80.43	-0.2394	-0.2254	-0.4201	
0.461404	0.782142	0.470554	-24.43	25.9	-82.46	-0.2281	-0.2223	-0.4279	
0.423584	0.790438	0.46055	-28.28	26.46	-84.91	-0.2167	-0.2224	-0.4247	
0.40321	0.788608	0.503372	-30.31	29.05	-86.38	-0.2068	-0.2299	-0.4402	
0.351238	0.797758	0.529602	-32.62	29.82	-89.81	-0.1941	-0.2178	-0.4403	
0.289018	0.792024	0.507154	-36.89	32.83	-93.17	-0.1898	-0.2254	-0.437	
0.22997	0.760182	0.483608	-42.28	37.24	-96.74	-0.1671	-0.2224	-0.4401	
0.197518	0.725656	0.485804	-42.98	38.43	-100.31	-0.1601	-0.2207	-0.4588	
0.204106	0.692838	0.537166	-43.68	41.44	-101.85	-0.1373	-0.2224	-0.4477	
0.206424	0.680028	0.573522	-43.47	47.88	-103.95	-0.1246	-0.2192	-0.4649	
0.134566	0.646234	0.568886	-41.58	55.02	-105.07	-0.1062	-0.2192	-0.4711	
0.034038	0.611098	0.574742	-39.34	60.62	-106.47	-0.0963	-0.2116	-0.4743	
-0.092598	0.627324	0.580598	-36.54	61.81	-105.98	-0.0821	-0.2085	-0.4836	
-0.159698	0.672952	0.607804	-38.57	57.54	-108.64	-0.0708	-0.2025	-0.4821	
-0.242658	0.65575	0.561566	-38.64	70.98	-107.87	-0.0423	-0.2026	-0.4803	
-0.219234	0.584746	0.629276	-38.08	58.73	-111.65	-0.0395	-0.1935	-0.4851	
-0.290604	0.585722	0.629642	-34.16	59.15	-111.51	-0.0112	-0.1783	-0.4914	
-0.381616	0.579744	0.597068	-27.79	65.17	-111.86	0.008599999	-0.1768	-0.4945	
-0.463844	0.564128	0.588894	-24.57	61.25	-109.2	0.0185	-0.1632	-0.493	
-0.545584	0.569618	0.597434	-23.17	55.44	-105.49	0.0327	-0.1678	-0.496	
-0.54412	0.550464	0.644404	-23.94	47.88	-103.11	0.044	-0.1556	-0.4977	
-0.55083	0.511912	0.593164	-25.27	47.95	-100.17	0.0625	-0.1482	-0.4914	
-0.536434	0.48068	0.557784	-22.68	46.34	-95.2	0.07099999	-0.1512	-0.4976	
-0.523136	0.453474	0.588406	-20.86	39.69	-89.04	0.078	-0.1329	-0.4962	
-0.55205	0.416386	0.626714	-17.01	34.3	-81.97	0.09649999	-0.1316	-0.4898	
-0.62708	0.433588	0.606218	-13.51	33.88	-75.04	0.1007	-0.1209	-0.4946	
-0.660386	0.404918	0.607804	-12.04	28.07	-69.02	0.1149	-0.1134	-0.4915	
-0.662094	0.377224	0.592676	-13.09	22.4	-62.58	0.1206	-0.118	-0.4899	
-0.675636	0.392352	0.59658	-14.21	18.27	-57.54	0.1249	-0.1044	-0.4822	
-0.686372	0.39589	0.617198	-14.91	17.01	-51.87	0.1362	-0.0983	-0.4869	
-0.663924	0.40016	0.619394	-15.47	14.91	-43.4	0.1305	-0.09209999	-0.4901	
-0.657702	0.387594	0.635254	-14.14	13.65	-39.34	0.1347	-0.0937	-0.4916	
-0.694668	0.396378	0.636352	-13.44	16.31	-35	0.1418	-0.0906	-0.4979	
-0.699914	0.387106	0.638182	-11.62	17.08	-31.78	0.1404	-0.0817	-0.4777	
-0.69906	0.380152	0.645014	-9.17	16.52	-30.24	0.1446	-0.077	-0.4918	
-0.704062	0.388448	0.635132	-7.84	17.08	-28.35	0.1461	-0.0725	-0.484	
-0.708942	0.3721	0.62891	-6.65	17.15	-26.32	0.1574	-0.077	-0.4901	
-0.734806	0.366732	0.604388	-5.18	16.52	-23.31	0.1574	-0.07099999	-0.484	
-0.726144	0.359168	0.601582	-6.3	15.4	-21.14	0.1631	-0.0619	-0.484	
-0.731634	0.352824	0.600606	-6.16	15.19	-18.69	0.1674	-0.06659999	-0.4761	
-0.748958	0.34892	0.592432	-4.48	15.05	-15.96	0.1702	-0.0605	-0.4762	
-0.776042	0.349896	0.579866	-3.64	14.07	-13.65	0.1716	-0.0619	-0.4856	
-0.773358	0.355508	0.578402	-4.9	11.34	-12.11	0.1645	-0.0604	-0.4793	
-0.750422	0.35197	0.596092	-5.74	8.68	-11.55	0.1645	-0.0665	-0.484	
-0.7564	0.347212	0.585356	-4.9	8.82	-10.71	0.1744	-0.0605	-0.4793	
-0.780312	0.348066	0.57706	-4.34	8.47	-9.52	0.1701	-0.0574	-0.4856	
-0.810202	0.345504	0.56547	-4.76	7.35	-8.54	0.1631	-0.0529	-0.4763	
-0.801296	0.33184	0.576328	-5.25	4.13	-8.26	0.1716	-0.0559	-0.4778	
-0.786168	0.310002	0.582306	-5.6	1.05	-7.63	0.1801	-0.0498	-0.4841	
-0.786046	0.288896	0.585356	-5.46	-0.7	-6.37	0.1801	-0.056	-0.4731	
-0.787876	0.285846	0.587674	-4.76	-2.52	-4.76	0.173	-0.0543	-0.4872	
-0.766526	0.295118	0.599264	-4.13	-4.13	-3.43	0.1772	-0.0452	-0.4842	
-0.74298	0.29646	0.608292	-3.92	-4.83	-2.31	0.1772	-0.0392	-0.4764	
-0.744566	0.285114	0.617808	-3.15	-3.71	-0.49	0.1843	-0.0513	-0.4872	
-0.767258	0.282064	0.61427	-2.38	-2.66	2.03	0.1743	-0.0406	-0.4874	
-0.76006	0.277916	0.604632	-2.03	-2.31	4.97	0.1729	-0.0407	-0.4811	
-0.73688	0.278404	0.618418	-1.82	-2.52	6.16	0.1744	-0.0422	-0.4826	
-0.748104	0.274134	0.615734	0.07	-0.35	8.26	0.18	-0.0362	-0.4795	
-0.763842	0.274988	0.614026	1.47	-0.42	9.87	0.173	-0.0452	-0.4826	
-0.766892	0.27389	0.613294	1.61	-1.96	11.41	0.173	-0.0619	-0.4855	
-0.776286	0.261568	0.607194	1.68	-3.15	13.72	0.1729	-0.0542	-0.4935	
-0.77409	0.276208	0.619638	2.1	-5.81	16.1	0.1715	-0.0497	-0.4873	
-0.769088	0.278648	0.626104	2.94	-9.45	18.13	0.1645	-0.0513	-0.4795	
-0.766038	0.284748	0.632204	6.09	-10.78	20.93	0.1659	-0.0544	-0.481	
-0.74847	0.293288	0.637328	10.08	-11.9	24.57	0.1674	-0.059	-0.4731	
-0.741394	0.308782	0.634644	13.16	-12.46	26.25	0.1688	-0.0636	-0.4746	
-0.728706	0.31903	0.63013	16.1	-13.86	27.79	0.1631	-0.0649	-0.4871	
-0.731268	0.329156	0.623542	19.32	-14.42	30.59	0.1574	-0.07099999	-0.4855	
-0.718824	0.345992	0.625006	21.28	-14.98	33.11	0.1503	-0.0771	-0.4808	
-0.705526	0.375882	0.616588	22.61	-15.19	34.58	0.1617	-0.08769999	-0.49	
-0.684542	0.388936	0.618296	23.03	-15.12	36.4	0.1446	-0.0771	-0.484	
-0.680516	0.415898	0.624884	23.38	-13.93	38.85	0.1447	-0.0999	-0.4806	
-0.66856	0.428586	0.625006	22.54	-12.67	40.74	0.1391	-0.103	-0.4727	
-0.664778	0.431758	0.609512	22.89	-11.83	42.56	0.1348	-0.1013	-0.4853	
-0.676246	0.451766	0.58438	22.68	-11.83	44.87	0.1476	-0.1044	-0.4852	
-0.67588	0.471896	0.59048	21.91	-13.72	46.41	0.1319	-0.1044	-0.4868	
-0.671366	0.495808	0.579988	21.07	-14.42	48.58	0.1277	-0.1181	-0.4836	
-0.667218	0.505812	0.572302	20.09	-14.91	50.75	0.1321	-0.1378	-0.4849	
-0.66368	0.506666	0.56608	19.74	-16.66	53.41	0.1165	-0.1363	-0.4803	
-0.640256	0.518256	0.566202	18.9	-18.83	55.93	0.1122	-0.1454	-0.4818	
-0.606584	0.537288	0.557906	18.2	-20.02	58.94	0.108	-0.1545	-0.4801	
-0.598898	0.54046	0.55815	17.43	-21.14	65.1	0.1038	-0.1607	-0.4738	
-0.577304	0.546804	0.566324	16.94	-23.59	69.02	0.1023	-0.159	-0.4879	
-0.54534	0.553148	0.555222	18.27	-26.53	72.31	0.0853	-0.1591	-0.4755	
-0.52155	0.564982	0.568032	19.74	-28.28	75.25	0.0839	-0.1667	-0.4754	
-0.502396	0.584746	0.58133	19.81	-29.82	78.61	0.0782	-0.1742	-0.4769	
-0.467626	0.618052	0.59231	19.46	-29.89	82.39	0.0612	-0.1802	-0.4847	
-0.407846	0.637206	0.603778	18.83	-30.52	86.38	0.0627	-0.1818	-0.4738	
-0.336964	0.645746	0.593408	18.69	-29.33	90.37	0.0399	-0.1923	-0.4832	
-0.29524	0.661362	0.580964	20.58	-31.29	96.04	0.0286	-0.1984	-0.4737	
-0.2501	0.649162	0.560834	22.12	-32.69	100.66	0.023	-0.2076	-0.4674	
-0.227774	0.653554	0.537288	22.68	-32.06	104.37	0.0116	-0.1999	-0.4723	
-0.198738	0.671244	0.553392	22.82	-34.86	107.24	-0.0067	-0.2196	-0.4706	
-0.168726	0.695034	0.550952	23.45	-35.49	110.53	-0.0096	-0.2196	-0.4737	
-0.130784	0.677832	0.514718	24.29	-35.84	112.49	-0.0309	-0.2195	-0.4707	
-0.07991	0.674294	0.486902	26.88	-37.87	113.82	-0.0464	-0.2362	-0.4721	
-0.012322	0.683566	0.458476	28.84	-42.35	115.01	-0.0606	-0.2331	-0.4676	
0.051606	0.716872	0.457988	31.08	-45.29	115.71	-0.0791	-0.2317	-0.4583	
0.09857599	0.739442	0.474824	30.94	-47.46	115.01	-0.0861	-0.2392	-0.4598	
0.13054	0.729804	0.444568	30.24	-49	113.75	-0.1061	-0.2391	-0.4662	
0.231678	0.759694	0.468968	31.36	-53.62	110.11	-0.1202	-0.2468	-0.4521	
0.367464	0.843752	0.511912	31.85	-51.94	106.26	-0.1415	-0.2421	-0.4522	
0.40199	0.861686	0.454084	30.59	-42.63	103.39	-0.1543	-0.2467	-0.4475	
0.362584	0.849974	0.404186	28.98	-36.4	100.31	-0.1699	-0.2421	-0.4461	
0.357094	0.883036	0.401746	27.44	-37.87	95.34	-0.184	-0.2452	-0.4352	
0.383202	0.891698	0.383934	23.1	-39.69	89.18	-0.1983	-0.2346	-0.4323	
0.446886	0.882548	0.388448	14.84	-40.67	84.21	-0.2096	-0.2437	-0.4307	
0.460428	0.821304	0.37637	3.22	-35.91	80.92	-0.2352	-0.227	-0.4185	
0.454938	0.776286	0.306342	-5.18	-38.36	78.68	-0.238	-0.2224	-0.4217	
0.494344	0.792634	0.343064	-7.77	-46.06	74.55	-0.2493	-0.2255	-0.4107	
0.527162	0.773968	0.38857	-7.77	-47.18	71.54	-0.2707	-0.2133	-0.4047	
0.586088	0.74786	0.39772	-14.63	-44.59	72.66	-0.2707	-0.2133	-0.4079	
0.659898	0.71553	0.415044	-15.54	-44.45	72.1	-0.2878	-0.1996	-0.405	
0.701744	0.68686	0.410408	-23.94	-39.62	70.07	-0.2906	-0.1905	-0.402	
0.690642	0.674904	0.393572	-28.07	-31.5	63.63	-0.3034	-0.1874	-0.3958	
0.652944	0.680272	0.399672	-30.66	-26.25	60.13	-0.3091	-0.1752	-0.3991	
0.681614	0.69235	0.41114	-33.81	-24.29	58.24	-0.3149	-0.169	-0.4039	
0.664412	0.68869	0.418582	-33.53	-28.21	55.09	-0.329	-0.157	-0.3901	
0.689544	0.668316	0.430538	-38.29	-26.04	54.18	-0.3305	-0.1478	-0.398	
0.712114	0.672342	0.452986	-27.79	-30.73	46.69	-0.3363	-0.1356	-0.3997	
0.68991	0.6588	0.45079	-26.11	-31.85	37.8	-0.3448	-0.131	-0.3936	
0.717238	0.644404	0.468236	-22.75	-28.84	32.9	-0.342	-0.1249	-0.3952	
0.70943	0.61976	0.47275	-18.62	-27.72	27.09	-0.3505	-0.1203	-0.3969	
0.694546	0.607804	0.436516	-18.2	-26.95	22.26	-0.3576	-0.1113	-0.3829	
0.71187	0.598898	0.417118	-18.2	-27.86	18.27	-0.3548	-0.1068	-0.3845	
0.73566	0.570594	0.443348	-12.95	-30.1	13.65	-0.3605	-0.1037	-0.3846	
0.747006	0.564128	0.432124	-9.31	-28.56	11.76	-0.3675	-0.0962	-0.3753	
0.75762	0.58804	0.420778	-9.66	-26.32	10.08	-0.3689	-0.0977	-0.3738	
0.753106	0.588162	0.433954	-6.93	-25.62	7.91	-0.3704	-0.0946	-0.3785	
0.753472	0.570228	0.428098	-5.81	-23.52	6.02	-0.3789	-0.1023	-0.3722	
0.761036	0.565714	0.405406	-5.67	-20.72	4.13	-0.3788	-0.0963	-0.3629	
0.762866	0.552904	0.394426	-5.39	-19.25	2.8	-0.3704	-0.0932	-0.3723	
0.772382	0.541436	0.404186	-0.91	-16.66	3.85	-0.3845	-0.08859999	-0.363	
0.766282	0.526796	0.397354	-0.84	-13.58	4.41	-0.3803	-0.0917	-0.3676	
0.765428	0.53131	0.371246	0.14	-12.6	4.48	-0.3888	-0.0902	-0.3583	
0.76921	0.558394	0.365146	0.56	-13.23	2.87	-0.3845	-0.0932	-0.3629	
0.776408	0.551806	0.367586	1.54	-13.23	1.26	-0.3959	-0.0963	-0.3567	
0.77836	0.544364	0.373198	1.82	-11.97	1.89	-0.3973	-0.0933	-0.3552	
0.78446	0.53375	0.363072	0.98	-8.96	3.29	-0.3959	-0.0932	-0.3583	
0.788974	0.535458	0.34587	0.56	-7.07	3.78	-0.3845	-0.0933	-0.3551	
0.780068	0.553026	0.340624	0.07	-6.02	4.41	-0.3902	-0.0918	-0.3505	
0.769698	0.54839	0.349408	1.89	-5.46	4.9	-0.3859	-0.0903	-0.3551	
0.77653	0.530456	0.343796	0.77	-3.43	6.37	-0.3973	-0.0902	-0.3568	
0.780068	0.529358	0.341356	0.21	-3.36	6.02	-0.3987	-0.0887	-0.3521	
0.764818	0.542412	0.336354	-0.21	-2.31	6.79	-0.3973	-0.0902	-0.3552	
0.762134	0.551928	0.333792	-0.14	-0.56	7.7	-0.4001	-0.0902	-0.3568	
0.76006	0.533506	0.340136	-0.77	0	8.4	-0.3901	-0.0903	-0.3473	
0.77104	0.524234	0.345626	-3.22	1.12	10.64	-0.4001	-0.08419999	-0.349	
0.780068	0.536068	0.351726	-1.75	-0.49	8.47	-0.3944	-0.08419999	-0.349	
0.78629	0.53802	0.352946	-1.4	-0.77	6.37	-0.3945	-0.0872	-0.3568	
0.795318	0.528992	0.371856	-0.84	-0.98	5.53	-0.3987	-0.0796	-0.3506	
0.805566	0.517524	0.374052	0.07	0.42	5.6	-0.3901	-0.0919	-0.3411	
0.792878	0.530822	0.359168	-0.35	2.1	5.32	-0.4058	-0.0795	-0.3538	
0.792756	0.529724	0.357216	0.7	1.26	3.15	-0.4044	-0.08109999	-0.3491	
0.796782	0.52155	0.350506	1.12	2.45	1.89	-0.3945	-0.0764	-0.3648	
0.794708	0.53009	0.357704	0.21	3.29	2.31	-0.4001	-0.0857	-0.349	
0.7808	0.54534	0.359534	0.21	4.06	1.61	-0.3973	-0.078	-0.3569	
0.787022	0.53253	0.35868	-0.21	4.55	0.35	-0.3987	-0.0796	-0.3538	
0.795318	0.516182	0.360754	0.7	5.53	0.14	-0.3959	-0.0857	-0.3506	
0.787144	0.526918	0.35441	1.26	6.16	-1.12	-0.4016	-0.0825	-0.36	
0.786656	0.530578	0.36051	0.49	5.53	-2.94	-0.3916	-0.08419999	-0.3506	
0.796782	0.527162	0.376126	1.68	5.6	-4.76	-0.3903	-0.0765	-0.3616	
0.798978	0.523258	0.36783	0.98	7.98	-4.97	-0.3959	-0.0796	-0.3553	
0.792512	0.52399	0.366122	0.63	9.38	-4.83	-0.3917	-0.0856	-0.3631	
0.791536	0.524234	0.371002	0.91	9.94	-5.39	-0.3931	-0.08859999	-0.3599	
0.794708	0.532774	0.367952	0.7	10.85	-6.72	-0.3831	-0.0841	-0.3615	
0.802272	0.53802	0.375516	0.84	11.55	-8.26	-0.3902	-0.0857	-0.3521	
0.806786	0.535336	0.38491	1.61	13.58	-8.12	-0.3874	-0.0826	-0.3631	
0.799222	0.540216	0.383324	3.43	15.54	-8.82	-0.3817	-0.0826	-0.3615	
0.783484	0.546926	0.388814	3.36	17.5	-10.5	-0.3789	-0.08549999	-0.3708	
0.789706	0.54839	0.392352	3.22	18.34	-12.32	-0.386	-0.084	-0.3724	
0.78812	0.555832	0.388936	2.31	20.51	-13.37	-0.3661	-0.0917	-0.366	
0.782874	0.57279	0.40138	4.83	23.24	-14.56	-0.3746	-0.0902	-0.366	
0.775188	0.573156	0.41053	7.28	26.53	-15.61	-0.369	-0.0962	-0.3753	
0.76677	0.570472	0.399916	8.82	30.66	-15.68	-0.3647	-0.1052	-0.383	
0.765794	0.569374	0.399428	9.38	31.43	-17.43	-0.3676	-0.1037	-0.3846	
0.75579	0.564982	0.410042	10.57	31.64	-19.95	-0.3576	-0.1127	-0.397	
0.757864	0.569374	0.411506	11.06	31.57	-22.61	-0.3533	-0.1204	-0.3922	
0.73566	0.580842	0.41053	13.58	34.09	-24.15	-0.3548	-0.1142	-0.3985	
0.71065	0.585112	0.41358	15.89	35.28	-25.27	-0.3462	-0.1265	-0.3936	
0.694546	0.605974	0.400282	16.24	35	-27.16	-0.3306	-0.1324	-0.4091	
0.694058	0.626714	0.403576	15.61	32.97	-32.41	-0.3263	-0.1265	-0.3951	
0.67954	0.61671	0.414068	17.78	30.59	-37.59	-0.3292	-0.1324	-0.4076	
0.656238	0.614148	0.429074	18.2	31.43	-38.29	-0.3249	-0.1476	-0.4152	
0.638914	0.640744	0.426268	18.13	33.53	-38.01	-0.3164	-0.1476	-0.4152	
0.618052	0.659532	0.440542	17.85	32.55	-41.65	-0.3107	-0.1552	-0.4182	
0.601826	0.653676	0.43737	16.17	30.66	-46.69	-0.3079	-0.1492	-0.4135	
0.590724	0.664046	0.456646	16.8	30.03	-48.79	-0.3036	-0.1629	-0.4165	
0.56913	0.68503	0.45445	15.89	29.47	-49.28	-0.2894	-0.1599	-0.418	
0.551806	0.709308	0.469334	17.78	28.7	-51.03	-0.2936	-0.1795	-0.4256	
0.514962	0.714554	0.490196	19.53	27.37	-53.9	-0.2723	-0.1782	-0.4161	
0.495686	0.736026	0.50447	22.33	24.36	-57.12	-0.2723	-0.1766	-0.4224	
0.4514	0.745908	0.506056	22.19	22.68	-60.13	-0.258	-0.1934	-0.4174	
0.410652	0.747006	0.488244	24.08	21.21	-63.63	-0.248	-0.2102	-0.4219	
0.373808	0.749446	0.462502	26.32	19.11	-67.69	-0.248	-0.2163	-0.4202	
0.33001	0.745908	0.441762	26.11	21	-69.44	-0.2423	-0.224	-0.4138	
0.290726	0.782386	0.419192	27.51	19.67	-71.54	-0.2352	-0.2179	-0.4154	
0.26474	0.815204	0.405528	30.31	14.98	-76.51	-0.2267	-0.23	-0.4231	
0.213744	0.847534	0.40992	31.64	11.27	-77.77	-0.2138	-0.2483	-0.4197	
0.22021	0.851682	0.411384	31.43	9.87	-77.63	-0.2052	-0.2544	-0.4211	
0.195078	0.833016	0.39955	29.68	9.31	-76.58	-0.1981	-0.2591	-0.4148	
0.158966	0.831918	0.399184	25.9	13.86	-70.77	-0.1866	-0.2745	-0.4051	
0.164456	0.85034	0.368928	22.19	15.82	-65.66	-0.1867	-0.2713	-0.413	
0.147498	0.869128	0.378444	20.79	17.85	-62.23	-0.1724	-0.2851	-0.4065	
0.086986	0.85766	0.380518	19.88	19.67	-57.33	-0.171	-0.2776	-0.4034	
0.074298	0.852414	0.371246	14.91	19.88	-51.59	-0.1539	-0.2929	-0.4016	
0.068198	0.868884	0.377468	12.39	17.43	-46.48	-0.1468	-0.2929	-0.4047	
0.055632	0.884256	0.373564	11.34	15.4	-42.7	-0.1411	-0.2989	-0.4108	
0.030866	0.899262	0.37759	10.08	14.56	-39.27	-0.1354	-0.3021	-0.4029	
0.017324	0.909876	0.394792	3.29	8.89	-33.74	-0.1282	-0.3083	-0.3934	
0.007198	0.916586	0.396012	-0.07	7.21	-30.31	-0.1268	-0.3127	-0.4028	
-0.010004	0.897432	0.39162	-2.59	5.88	-26.88	-0.1226	-0.3112	-0.4043	
0.001464	0.886452	0.39894	-5.25	2.66	-23.87	-0.1225	-0.3083	-0.395	
0.017568	0.892186	0.410408	-6.44	1.47	-21.07	-0.1112	-0.3067	-0.4043	
0.022814	0.900116	0.420168	-5.81	3.85	-18.2	-0.1112	-0.3098	-0.3996	
0.008662	0.895236	0.437492	-4.97	2.38	-15.96	-0.1127	-0.3006	-0.4028	
0.007929999	0.896334	0.426268	-5.88	0.91	-14.07	-0.1098	-0.3097	-0.4059	
0.007442	0.899018	0.417972	-6.3	2.03	-12.67	-0.1069	-0.3158	-0.4089	
0.010736	0.896456	0.41907	-5.6	2.1	-12.04	-0.097	-0.2992	-0.4028	
0.005002	0.896456	0.427854	-4.76	0.84	-11.41	-0.097	-0.3006	-0.4059	
-0.010614	0.918904	0.408456	-2.73	0	-11.27	-0.0957	-0.296	-0.4106	
-0.033306	0.916464	0.393816	-2.24	-2.03	-11.06	-0.1027	-0.3111	-0.4168	
-0.030866	0.914512	0.394792	-3.85	-5.32	-10.85	-0.0971	-0.2945	-0.4107	
-0.026352	0.916952	0.413092	-5.11	-8.4	-11.55	-0.0985	-0.3037	-0.4074	
-0.03782	0.918416	0.405772	-6.02	-10.64	-12.46	-0.0885	-0.3006	-0.4105	
-0.031964	0.911828	0.413092	-6.02	-12.18	-12.95	-0.1013	-0.2991	-0.4075	
-0.02379	0.914146	0.412726	-4.34	-14.98	-13.79	-0.0957	-0.2945	-0.4107	
-0.042944	0.906826	0.394182	-6.16	-18.06	-14.28	-0.1028	-0.2899	-0.4092	
-0.03111	0.919636	0.418826	-5.32	-19.81	-14.98	-0.1027	-0.3036	-0.4075	
-0.035014	0.94184	0.40565	-3.85	-22.82	-16.87	-0.1056	-0.296	-0.4076	
-0.060634	0.95587	0.398696	-3.5	-25.55	-19.39	-0.0928	-0.299	-0.4184	
-0.093208	0.935984	0.355996	-6.02	-28.98	-22.19	-0.1127	-0.2975	-0.4123	
-0.075396	0.942816	0.388692	-11.34	-32.62	-25.27	-0.107	-0.3051	-0.4153	
-0.069052	0.939644	0.385154	-11.13	-35.98	-28.91	-0.1056	-0.2959	-0.417	
-0.070394	0.938424	0.402112	-12.81	-39.34	-30.52	-0.1113	-0.3036	-0.4106	
-0.07015	0.944158	0.405894	-14.98	-45.99	-33.74	-0.1113	-0.2945	-0.4029	
-0.07198	0.93574	0.430904	-15.33	-49.56	-36.75	-0.1113	-0.2959	-0.4186	
-0.05185	0.896456	0.436638	-16.45	-50.4	-39.9	-0.1141	-0.299	-0.4107	
-0.00244	0.884988	0.451644	-16.24	-54.53	-42.07	-0.1255	-0.2914	-0.4093	
0.016226	0.860344	0.454572	-15.68	-56.07	-42.98	-0.1255	-0.2884	-0.4062	
-0.00183	0.851438	0.44347	-15.12	-55.79	-42.56	-0.117	-0.296	-0.4076	
-0.018788	0.850828	0.451522	-11.9	-57.4	-42.77	-0.1298	-0.3034	-0.4217	
-0.025132	0.837652	0.448228	-7.84	-61.74	-43.82	-0.134	-0.293	-0.4015	
-0.020618	0.841434	0.446032	-3.57	-64.54	-45.29	-0.1354	-0.2959	-0.4062	
-0.028304	0.853878	0.434198	-0.07	-67.2	-46.97	-0.1411	-0.2883	-0.4031	
-0.029768	0.877546	0.44286	4.34	-71.47	-46.27	-0.141	-0.2945	-0.3937	
-0.024156	0.88328	0.432368	4.83	-74.06	-45.64	-0.1425	-0.3005	-0.4077	
-0.021716	0.842776	0.427244	5.18	-77.56	-44.38	-0.1566	-0.3082	-0.3952	
-0.008784	0.855342	0.413214	9.03	-81.2	-44.17	-0.1523	-0.3022	-0.3827	
0.002806	0.865102	0.426512	12.04	-83.37	-42.42	-0.1623	-0.3067	-0.3843	
-0.005612	0.879376	0.398696	17.08	-76.51	-39.97	-0.1651	-0.3098	-0.3811	
0.02196	0.909876	0.423462	12.95	-92.54	-38.71	-0.165	-0.3039	-0.3624	
0.05856	0.918782	0.456768	20.3	-88.27	-38.99	-0.1863	-0.3206	-0.3654	
0.062952	0.919514	0.42639	21.14	-87.22	-39.41	-0.1848	-0.3161	-0.3592	
0.025986	0.939888	0.397598	20.02	-84.42	-38.5	-0.1834	-0.3222	-0.3529	
0.00183	0.929274	0.414556	19.74	-81.34	-37.73	-0.1876	-0.3299	-0.3465	
0.027816	0.944524	0.404796	20.44	-80.5	-38.85	-0.1875	-0.3376	-0.3402	
0.017812	0.945744	0.385154	17.5	-79.1	-39.62	-0.2002	-0.3453	-0.3229	
0.00427	0.944524	0.391986	19.6	-78.82	-40.11	-0.2059	-0.3513	-0.3292	
0.04148	0.948794	0.393084	24.15	-79.8	-40.39	-0.2086	-0.347	-0.3057	
0.04453	0.988444	0.356362	24.08	-87.71	-43.12	-0.2029	-0.3516	-0.3088	
-0.013908	0.969778	0.436028	22.75	-103.18	-50.54	-0.21	-0.3593	-0.2962	
0.059414	0.94733	0.451278	24.43	-102.69	-50.61	-0.2155	-0.361	-0.279	
0.055388	0.939156	0.41968	35.77	-94.64	-49	-0.2169	-0.3716	-0.2789	
0.03416	0.949526	0.400892	39.13	-85.89	-45.15	-0.2126	-0.3838	-0.2787	
0.02989	0.942816	0.39284	30.17	-78.19	-40.67	-0.2139	-0.3841	-0.2568	
0.028182	0.879742	0.38003	16.38	-70.63	-34.58	-0.2139	-0.3781	-0.249	
0.04026	0.915122	0.377224	16.1	-63.56	-31.43	-0.2167	-0.3903	-0.2442	
0.016958	0.903288	0.41053	13.65	-57.33	-29.47	-0.2181	-0.3889	-0.2348	
-0.03599	0.92415	0.363194	6.65	-52.22	-21.63	-0.2109	-0.3874	-0.2286	
0.003294	0.89975	0.37942	10.92	-45.15	-24.22	-0.2209	-0.392	-0.2254	
-0.02196	0.909022	0.3965	9.38	-39.06	-23.1	-0.2109	-0.4012	-0.219	
-0.004148	0.905972	0.389424	8.61	-33.46	-22.33	-0.2208	-0.3981	-0.2222	
0.007929999	0.915854	0.386496	10.92	-27.72	-20.58	-0.2222	-0.3952	-0.216	
0.005856	0.930738	0.349652	6.02	-18.9	-17.57	-0.2222	-0.3997	-0.2175	
-0.016958	0.94733	0.352336	4.48	-13.72	-15.26	-0.2108	-0.3953	-0.2097	
-0.044896	0.95282	0.302194	-0.56	-4.48	-12.88	-0.2136	-0.4091	-0.1986	
-0.063562	0.918782	0.332694	3.5	-9.24	-14.84	-0.2193	-0.4074	-0.2111	
-0.065026	0.923174	0.341966	4.13	-10.15	-13.65	-0.2107	-0.4106	-0.2001	
-0.055022	0.940498	0.365146	4.76	-9.1	-13.02	-0.2079	-0.4152	-0.1985	
-0.077226	0.91378	0.359412	4.55	-4.06	-13.86	-0.2064	-0.4212	-0.2046	
-0.085766	0.940498	0.369294	6.16	0.42	-14.77	-0.2051	-0.409	-0.2048	
-0.081618	0.944524	0.335256	4.48	-0.42	-14.56	-0.1994	-0.4136	-0.2031	
-0.057096	0.913536	0.347456	4.41	-2.24	-12.88	-0.205	-0.4107	-0.1954	
-0.069296	0.93147	0.36844	4.27	2.1	-9.73	-0.1936	-0.4183	-0.1968	
-0.076616	0.949526	0.335988	1.82	6.65	-7.35	-0.2021	-0.4228	-0.1968	
-0.076494	0.938302	0.332816	0.14	10.01	-6.16	-0.1908	-0.4228	-0.1998	
-0.100772	0.939766	0.321226	-0.14	14.14	-3.36	-0.1965	-0.4106	-0.2047	
-0.086742	0.941596	0.329156	1.19	15.68	-2.1	-0.1852	-0.4122	-0.2046	
-0.060268	0.91683	0.332084	1.54	20.3	-1.61	-0.1866	-0.4152	-0.2046	
-0.054168	0.929518	0.337208	1.47	26.6	-0.42	-0.1865	-0.4183	-0.1999	
-0.06161	0.925614	0.316224	0.07	33.74	0.98	-0.1937	-0.4121	-0.2031	
-0.08418	0.951722	0.305854	2.17	34.79	2.8	-0.1866	-0.4227	-0.2155	
-0.0732	0.946354	0.298412	2.31	36.61	4.06	-0.1824	-0.4166	-0.2171	
-0.053924	0.935008	0.31964	2.1	42.21	5.18	-0.1837	-0.4153	-0.1968	
-0.03477	0.892918	0.321226	-0.63	53.55	8.12	-0.1781	-0.4165	-0.2233	
-0.041114	0.904264	0.330132	-7	66.43	13.09	-0.1838	-0.4166	-0.2108	
-0.063562	0.91134	0.313784	-12.95	73.43	19.04	-0.1739	-0.4181	-0.2186	
-0.064782	0.93025	0.311344	-16.17	74.83	22.89	-0.1739	-0.4059	-0.225	
-0.087108	0.932202	0.30927	-21.56	77.98	26.39	-0.1612	-0.4073	-0.2359	
-0.060268	0.905484	0.346968	-21	81.76	28.42	-0.1754	-0.4134	-0.2343	
-0.05002	0.893528	0.266814	-14.7	75.74	27.72	-0.1641	-0.3965	-0.247	
-0.05612	0.935496	0.26291	-18.69	70.07	27.23	-0.167	-0.401	-0.2548	
-0.005246	1.03944	0.273524	-13.72	87.08	27.16	-0.1585	-0.401	-0.2579	
-0.072712	1.047858	0.304146	-3.43	99.05	27.58	-0.1614	-0.3979	-0.2642	
-0.091744	1.001864	0.290604	-4.06	100.52	30.24	-0.1571	-0.3963	-0.2689	
-0.110898	0.992348	0.200324	-5.67	105.49	29.96	-0.1458	-0.3887	-0.2767	
-0.14213	1.015528	0.161406	-16.87	102.55	29.19	-0.1472	-0.3947	-0.2751	
-0.090524	1.0736	0.204228	-11.13	96.25	29.05	-0.1458	-0.4038	-0.2844	
-0.137494	1.05164	0.210816	-14	94.15	32.13	-0.1374	-0.3916	-0.2892	
-0.1403	1.007232	0.22509	-17.22	95.41	34.65	-0.1275	-0.3869	-0.3001	
-0.109556	1.014186	0.218014	-20.72	95.55	39.76	-0.1332	-0.3869	-0.3017	
-0.112362	0.99369	0.200202	-20.37	96.81	42.35	-0.1304	-0.3793	-0.3049	
-0.098088	0.976976	0.226798	-19.18	103.46	43.26	-0.1219	-0.3852	-0.322	
-0.081496	1.010282	0.245708	-16.59	109.48	46.62	-0.1234	-0.3698	-0.3316	
-0.101382	1.035536	0.217404	-21.28	115.64	50.68	-0.1206	-0.3713	-0.3379	
-0.081374	1.018212	0.192272	-25.41	116.76	54.67	-0.1107	-0.3698	-0.3378	
-0.049288	0.996008	0.223382	-29.19	120.61	56.35	-0.1079	-0.3606	-0.3504	
-0.022082	0.96868	0.259982	-28.35	128.38	60.41	-0.0994	-0.353	-0.3536	
-0.059048	0.992836	0.203496	-27.79	137.55	65.38	-0.09959999	-0.3436	-0.3709	
-0.100406	0.99918	0.2257	-29.26	140.63	69.44	-0.0938	-0.3559	-0.3661	
-0.089182	1.000034	0.206424	-32.27	140.49	74.06	-0.0897	-0.336	-0.3772	
-0.141886	0.988444	0.241682	-31.71	137.34	81.2	-0.0685	-0.3208	-0.3851	
-0.03477	0.973194	0.259616	-29.75	140.28	84.42	-0.0727	-0.3253	-0.3882	
-0.1037	0.983686	0.236924	-25.41	140.98	89.81	-0.067	-0.3284	-0.385	
-0.113094	0.972218	0.240706	-23.03	142.17	89.04	-0.0572	-0.3176	-0.3961	
-0.137006	0.951722	0.261934	-16.8	140.07	87.29	-0.0486	-0.3221	-0.4038	
-0.14152	0.968192	0.274744	-11.41	140.49	83.58	-0.0472	-0.3191	-0.4023	
-0.121634	0.962702	0.290604	-11.13	136.08	76.51	-0.0345	-0.3131	-0.4038	
-0.163846	0.987712	0.304756	-13.58	124.6	69.16	-0.0245	-0.3116	-0.3991	
-0.13847	0.974902	0.316102	-11.9	122.64	66.01	-0.0061	-0.3102	-0.4006	
-0.1037	0.9516	0.313174	-9.38	119.49	66.15	-0.0061	-0.3056	-0.4006	
-0.111508	0.94062	0.299388	-5.53	113.61	66.78	-0.0018	-0.3118	-0.3958	
-0.101382	0.945012	0.324764	-3.29	109.9	65.66	0.007999999	-0.3102	-0.4052	
-0.097966	0.931348	0.319152	5.53	106.75	65.03	0.0123	-0.3118	-0.3973	
-0.10553	0.932568	0.316102	13.86	106.12	68.32	0.018	-0.3149	-0.3957	
-0.117364	0.934154	0.333548	17.08	100.94	70.14	0.0309	-0.3195	-0.3924	
-0.129686	0.942328	0.324276	18.69	93.52	68.81	0.0351	-0.3135	-0.3862	
-0.072102	0.939766	0.319274	24.78	86.66	71.12	0.0295	-0.3273	-0.3783	
-0.0549	0.941108	0.30195	29.68	85.19	72.73	0.0353	-0.3365	-0.3703	
-0.099796	0.982954	0.297192	29.4	78.82	73.22	0.0324	-0.3319	-0.3735	
-0.102114	0.97295	0.28731	29.96	74.27	72.03	0.0467	-0.3321	-0.3593	
-0.101748	0.957944	0.285358	28.7	69.16	70.91	0.0339	-0.3442	-0.3671	
-0.031964	0.947818	0.27877	28.56	64.54	70.14	0.0369	-0.3566	-0.345	
-0.02867	0.968558	0.268644	29.26	58.59	65.17	0.0312	-0.3535	-0.3466	
-0.009393999	0.959408	0.280844	30.24	52.22	60.9	0.0312	-0.355	-0.3513	
0.02074	0.957334	0.254126	28.63	46.55	57.54	0.0327	-0.3597	-0.3372	
0.020252	0.958554	0.24888	27.23	38.64	53.2	0.0313	-0.3689	-0.3324	
0.0549	0.94001	0.24644	22.75	33.88	50.4	0.0228	-0.3705	-0.3246	
0.12932	0.932812	0.279136	21.49	33.88	49.7	0.02	-0.3719	-0.3293	
0.13847	0.953674	0.26291	18.76	25.27	46.97	0.0243	-0.3751	-0.3198	
0.132614	0.975268	0.249246	18.34	22.4	44.03	0.0101	-0.3796	-0.3245	
0.133712	0.959164	0.251564	17.99	16.38	39.27	0.0101	-0.3765	-0.3214	
0.199104	0.909876	0.243756	12.74	15.33	39.27	0.013	-0.3782	-0.3089	
0.31781	0.932202	0.235826	4.62	18.48	38.64	0.0045	-0.3857	-0.3198	
0.308294	0.930494	0.274988	6.37	13.23	38.22	-0.009699999	-0.3796	-0.3184	
0.22692	0.961238	0.233264	9.24	1.96	31.57	-0.0039	-0.3857	-0.312	
0.244122	0.952454	0.230336	5.67	5.88	27.86	-0.004	-0.3827	-0.3152	
0.38369	0.935618	0.221918	-2.59	14.91	28.49	-0.0039	-0.3828	-0.3058	
0.3477	0.951112	0.244488	3.99	2.45	25.97	-0.0039	-0.3857	-0.3136	
0.323178	0.935618	0.215818	6.09	-2.73	23.8	-0.0139	-0.3888	-0.3089	
0.313662	0.955504	0.232898	8.12	-2.8	19.67	-0.0152	-0.3949	-0.3026	
0.30256	0.937692	0.218258	4.27	-2.38	16.8	-0.0223	-0.3904	-0.2964	
0.319396	0.936838	0.191052	2.1	-5.67	15.19	-0.0138	-0.3903	-0.3057	
0.345138	0.95465	0.223382	1.75	-6.51	8.47	-0.0195	-0.3918	-0.3042	
0.364902	0.915122	0.211426	0.14	-6.72	3.92	-0.028	-0.3888	-0.3043	
0.312686	0.919392	0.188978	-1.47	-7.35	2.31	-0.0308	-0.3904	-0.2964	
0.326838	0.948062	0.214354	-3.64	-4.27	3.29	-0.0223	-0.3964	-0.3041	
0.368562	0.924028	0.230946	-6.23	-0.56	0.84	-0.0281	-0.3872	-0.3121	
0.340868	0.903898	0.208132	-1.68	-5.81	-3.64	-0.0238	-0.3917	-0.3136	
0.352336	0.913414	0.216428	-0.91	-4.27	-3.15	-0.0323	-0.3857	-0.3075	
0.32452	0.950868	0.207644	0.07	-4.41	-0.98	-0.0295	-0.3918	-0.3058	
0.33062	0.942572	0.21289	-1.96	-3.08	-2.8	-0.0252	-0.3887	-0.3121	
0.335256	0.922198	0.218746	-1.75	-2.73	-5.46	-0.0337	-0.3948	-0.3074	
0.323422	0.9272	0.219844	-0.21	-2.73	-5.18	-0.0352	-0.3871	-0.3153	
0.293654	0.950502	0.21045	1.33	-6.23	-5.18	-0.0338	-0.3856	-0.3137	
0.290848	0.94184	0.214964	-0.77	-5.53	-5.74	-0.0295	-0.3962	-0.3183	
0.307074	0.93635	0.218868	-2.24	-3.22	-6.58	-0.021	-0.3826	-0.3137	
0.289262	0.93574	0.216062	-1.68	-5.18	-8.75	-0.021	-0.3857	-0.3121	
0.277428	0.941352	0.1952	-1.89	-9.66	-9.1	-0.0295	-0.3872	-0.3106	
0.290726	0.93757	0.203496	-2.45	-9.52	-7.77	-0.021	-0.3933	-0.312	
0.327082	0.938302	0.22936	-5.67	-3.43	-7	-0.0266	-0.3933	-0.312	
0.292434	0.934276	0.218746	-6.58	-7.77	-8.19	-0.0281	-0.3887	-0.3137	
0.259738	0.942694	0.193614	-4.9	-12.81	-10.78	-0.0352	-0.3901	-0.3168	
0.264984	0.95099	0.199836	-5.32	-13.37	-11.76	-0.0324	-0.3841	-0.3153	
0.2684	0.93696	0.22631	-8.75	-12.39	-8.61	-0.0338	-0.3855	-0.3184	
0.239974	0.940742	0.20984	-11.27	-19.46	-9.8	-0.0239	-0.3886	-0.3199	
0.198128	0.949892	0.19459	-13.37	-27.79	-13.02	-0.021	-0.3826	-0.3168	
0.221552	0.959896	0.214232	-14.63	-30.59	-16.17	-0.0196	-0.3932	-0.3167	
0.231922	0.942938	0.227774	-11.83	-37.38	-21.07	-0.0324	-0.3824	-0.3263	
0.195322	0.95038	0.220698	-10.64	-40.53	-26.95	-0.0225	-0.3749	-0.3248	
0.181292	0.956846	0.217038	-11.41	-45.99	-31.36	-0.0325	-0.3763	-0.3264	
0.186538	0.962336	0.209962	-12.11	-52.64	-36.19	-0.0282	-0.3809	-0.331	
0.200324	0.979782	0.191296	-17.43	-53.2	-37.87	-0.0339	-0.3778	-0.331	
0.15494	0.999058	0.161894	-17.78	-54.11	-38.15	-0.0382	-0.3717	-0.3327	
0.11102	1.021262	0.164456	-18.69	-58.24	-35.77	-0.0254	-0.3823	-0.3356	
0.10614	1.008818	0.147986	-24.22	-60.97	-33.6	-0.0311	-0.3732	-0.3358	
0.1098	0.989176	0.14945	-22.26	-72.24	-35.84	-0.0454	-0.3684	-0.3469	
0.131394	1.030168	0.14884	-24.36	-82.95	-36.33	-0.0382	-0.3701	-0.3406	
0.120902	1.045784	0.122732	-28.63	-91.91	-36.75	-0.0511	-0.3714	-0.35	
0.100406	1.07299	0.10919	-34.86	-99.12	-38.71	-0.0525	-0.3637	-0.3564	
0.142252	1.064328	0.09882	-41.86	-110.6	-38.01	-0.0653	-0.3576	-0.3565	
0.182024	1.020408	0.095038	-41.58	-108.71	-40.39	-0.07099999	-0.3622	-0.3534	
0.20252	0.983564	0.117242	-41.79	-102.06	-45.78	-0.0725	-0.3515	-0.3598	
0.275964	0.941474	0.14213	-38.92	-103.46	-48.72	-0.0867	-0.3544	-0.3676	
0.284626	0.983442	0.17629	-38.57	-107.38	-52.92	-0.091	-0.3483	-0.3662	
0.28243	1.003816	0.194834	-44.31	-102.62	-54.88	-0.0854	-0.3361	-0.3725	
0.242048	1.009184	0.174094	-39.83	-105.35	-56.35	-0.0939	-0.3421	-0.3725	
0.21411	0.994666	0.191418	-38.64	-100.52	-55.58	-0.1053	-0.3329	-0.3774	
0.18178	0.983198	0.149084	-37.94	-101.99	-58.1	-0.1053	-0.336	-0.3726	
0.194712	0.974536	0.174216	-36.89	-107.24	-60.83	-0.1138	-0.3298	-0.3775	
0.199592	0.97051	0.1952	-37.45	-109.76	-62.65	-0.1224	-0.3237	-0.3791	
0.207888	0.976	0.20252	-35.7	-115.29	-64.82	-0.1196	-0.3297	-0.3837	
0.154818	0.990518	0.177144	-32.41	-118.51	-65.66	-0.1309	-0.3283	-0.3744	
0.129686	0.969412	0.167506	-33.53	-125.44	-68.46	-0.1408	-0.3283	-0.3714	
0.170556	0.96929	0.2013	-30.03	-131.88	-73.08	-0.1507	-0.3252	-0.3667	
0.20679	1.017968	0.229116	-24.92	-136.01	-76.44	-0.1565	-0.3191	-0.3731	
0.197152	0.998326	0.190808	-25.13	-138.74	-76.86	-0.1593	-0.3282	-0.373	
0.192272	1.024678	0.209962	-23.52	-141.61	-76.51	-0.1621	-0.3312	-0.3699	
0.221552	1.025776	0.251442	-19.32	-146.86	-77.28	-0.172	-0.3207	-0.3544	
0.24827	0.972096	0.23912	-18.76	-144.97	-77.21	-0.1877	-0.3176	-0.3576	
0.258518	0.950746	0.240096	-16.87	-139.93	-76.02	-0.1862	-0.3313	-0.3543	
0.242292	0.946232	0.228384	-14.21	-135.17	-73.36	-0.1946	-0.339	-0.3433	
0.22875	0.95404	0.21289	-13.58	-134.33	-71.12	-0.2045	-0.3436	-0.3386	
0.216184	0.937082	0.229726	-14.14	-134.33	-69.44	-0.2087	-0.3513	-0.3339	
0.239242	0.946842	0.229604	-11.55	-134.54	-69.44	-0.2044	-0.3499	-0.3166	
0.28121	0.921832	0.264374	-10.78	-132.16	-68.88	-0.2201	-0.3392	-0.3169	
0.2257	0.929518	0.260958	-8.19	-127.54	-67.55	-0.22	-0.3393	-0.3122	
0.235094	0.92354	0.241682	-9.73	-128.94	-65.03	-0.2214	-0.3486	-0.2995	
0.259006	0.94916	0.246562	-3.71	-122.08	-70.49	-0.2199	-0.3668	-0.3009	
0.249124	0.98576	0.289628	3.57	-120.96	-73.92	-0.2284	-0.3669	-0.2868	
0.282918	0.959408	0.315858	1.4	-127.12	-72.94	-0.2311	-0.3702	-0.2664	
0.316224	0.959164	0.330864	1.26	-136.5	-74.06	-0.224	-0.3656	-0.268	
0.267058	0.98515	0.366	7.77	-139.02	-72.59	-0.231	-0.3764	-0.2554	
0.271084	0.986248	0.332572	26.46	-120.89	-67.06	-0.2253	-0.3795	-0.2569	
0.196786	0.969656	0.303902	24.08	-103.18	-56.49	-0.2267	-0.381	-0.2506	
0.205082	0.945012	0.312686	13.02	-91.77	-47.6	-0.2223	-0.3844	-0.2287	
0.180072	0.918294	0.310368	9.17	-82.32	-37.24	-0.2307	-0.3936	-0.2145	
0.168726	0.931226	0.325618	5.67	-72.87	-30.24	-0.2293	-0.4013	-0.2097	
0.14762	0.913658	0.330864	2.52	-63.98	-24.92	-0.2307	-0.3982	-0.2129	
0.124562	0.956724	0.339526	-0.77	-55.09	-20.86	-0.2293	-0.3968	-0.2066	
0.063318	0.94428	0.351116	-6.86	-38.22	-16.59	-0.2264	-0.3953	-0.1988	
0.015494	0.991006	0.331596	-7.84	-30.03	-14.63	-0.2235	-0.403	-0.1971	
-0.007808	0.968558	0.347578	-12.67	-27.65	-14.84	-0.2377	-0.4045	-0.1894	
-0.018544	0.989786	0.352458	-13.16	-24.43	-16.66	-0.2278	-0.3999	-0.2003	
-0.031964	0.983686	0.375882	-16.1	-19.46	-18.62	-0.2278	-0.3968	-0.1988	
-0.048434	0.915122	0.340868	-21.14	-14.35	-19.67	-0.2264	-0.3999	-0.1987	
-0.027206	0.925248	0.353312	-20.93	-14.63	-18.69	-0.2221	-0.3999	-0.1987	
-0.02318	0.923296	0.370514	-21.42	-10.01	-18.27	-0.2236	-0.4029	-0.2034	
-0.02318	0.903898	0.389912	-21.42	-6.3	-17.57	-0.2235	-0.3999	-0.1956	
-0.048434	0.928786	0.37698	-20.86	-4.62	-16.1	-0.2193	-0.4014	-0.2034	
-0.068564	0.938424	0.396256	-21	-3.22	-15.89	-0.2179	-0.4043	-0.2112	
-0.093818	0.911584	0.400648	-20.16	-2.03	-15.12	-0.2137	-0.3936	-0.2175	
-0.094794	0.902678	0.399428	-20.58	-1.75	-13.44	-0.2193	-0.4013	-0.2112	
-0.0854	0.869128	0.419192	-19.18	-0.35	-12.39	-0.2165	-0.4028	-0.2174	
-0.07564	0.860954	0.426878	-19.39	4.62	-11.34	-0.2151	-0.4012	-0.2175	
-0.07015	0.861442	0.40565	-17.36	6.16	-9.8	-0.2137	-0.4027	-0.2206	
-0.070272	0.876814	0.420046	-12.11	2.87	-7.35	-0.2038	-0.3906	-0.2191	
-0.09942999	0.88877	0.45201	-11.55	4.48	-5.04	-0.2009	-0.4012	-0.2236	
-0.091012	0.87657	0.465674	-12.53	11.27	-3.92	-0.2109	-0.3966	-0.23	
-0.068076	0.882304	0.45201	-13.16	16.66	-3.36	-0.2024	-0.4011	-0.2315	
-0.05856	0.852536	0.44591	-11.41	18.83	-2.52	-0.2109	-0.4041	-0.2315	
-0.078934	0.864736	0.443348	-8.54	21.91	-0.77	-0.2095	-0.4041	-0.233	
-0.083814	0.877424	0.4209	-9.1	24.08	1.26	-0.2024	-0.3966	-0.23	
-0.09076799	0.888404	0.429074	-10.22	25.13	2.17	-0.2038	-0.3966	-0.2284	
-0.073932	0.881816	0.449204	-10.92	26.6	3.01	-0.1939	-0.3859	-0.2363	
-0.069784	0.850828	0.450302	-11.34	35.21	6.23	-0.1983	-0.3918	-0.2519	
-0.093696	0.917684	0.407358	-11.41	38.71	9.38	-0.1968	-0.3933	-0.2488	
-0.116266	0.924028	0.414434	-9.94	36.96	10.36	-0.194	-0.3902	-0.2597	
-0.106384	0.8906	0.419802	-11.48	39.13	10.64	-0.1826	-0.3918	-0.255	
-0.102968	0.852414	0.43859	-15.4	44.66	11.97	-0.1827	-0.3871	-0.2691	
-0.086742	0.861808	0.413458	-18.83	47.39	15.4	-0.1842	-0.3794	-0.2739	
-0.098332	0.93452	0.441274	-17.01	43.75	15.61	-0.1799	-0.3871	-0.2675	
-0.108824	0.896334	0.4636	-17.64	49.35	17.01	-0.1771	-0.3854	-0.2848	
-0.109434	0.881206	0.487024	-21.98	59.22	19.6	-0.1757	-0.3748	-0.2833	
-0.080154	0.834846	0.502152	-28.98	70.21	25.34	-0.1829	-0.3746	-0.2927	
-0.027938	0.799344	0.57584	-20.3	69.16	30.66	-0.1829	-0.3761	-0.3006	
-0.066978	0.861686	0.447618	-2.87	64.82	31.43	-0.1702	-0.3684	-0.3068	
-0.078446	0.920734	0.444934	7.91	69.58	30.24	-0.1617	-0.3639	-0.3053	
-0.10919	0.897066	0.444202	12.81	65.66	35.35	-0.1731	-0.3638	-0.3147	
-0.064294	0.875716	0.432246	10.78	68.74	35.98	-0.1659	-0.3654	-0.3069	
-0.091744	0.875472	0.411262	9.24	70.14	36.68	-0.1617	-0.373	-0.3067	
-0.089426	0.89792	0.353434	2.87	68.53	36.89	-0.1688	-0.3698	-0.3193	
-0.09747799	0.953064	0.39955	0.14	71.61	37.52	-0.1689	-0.3577	-0.3179	
-0.089182	0.977952	0.430416	3.92	76.3	39.13	-0.1547	-0.3637	-0.3256	
-0.076006	0.949648	0.372588	-0.21	78.05	41.02	-0.1561	-0.3621	-0.3303	
-0.076982	0.926346	0.347822	-4.97	77.7	41.44	-0.1575	-0.3637	-0.3272	
-0.08845	0.953918	0.324154	-6.37	87.64	40.6	-0.1519	-0.3576	-0.3272	



-0.106994	0.923052	0.365268	-8.19	94.08	45.99	-0.1307	-0.3589	-0.3553	
-0.14518	0.94306	0.320128	-11.83	96.32	50.19	-0.1407	-0.3482	-0.3586	
-0.127734	0.955992	0.350018	-15.4	95.2	50.82	-0.1336	-0.3437	-0.3539	
-0.119926	0.939522	0.366122	-14.35	96.11	52.85	-0.1237	-0.3405	-0.3711	
-0.104554	0.93757	0.362828	-16.45	95.06	54.32	-0.1152	-0.3314	-0.368	
-0.075396	0.939644	0.382226	-15.4	94.64	56.56	-0.1138	-0.3344	-0.3758	
-0.026962	0.956114	0.3599	-17.85	101.29	59.5	-0.1124	-0.3329	-0.3743	
-0.020252	0.934764	0.351604	-17.15	107.66	64.47	-0.1068	-0.3267	-0.3821	
-0.067222	0.939034	0.335622	-18.76	114.73	70.28	-0.0969	-0.3222	-0.3868	
-0.072224	0.932446	0.340014	-21.35	118.79	82.04	-0.1012	-0.3175	-0.3948	
-0.069174	0.951722	0.36844	-19.18	117.46	84.42	-0.0856	-0.3175	-0.3978	
-0.078446	0.9333	0.373808	-20.09	120.68	90.37	-0.08	-0.3068	-0.4057	
-0.110532	0.943182	0.339526	-20.37	118.37	93.87	-0.0799	-0.3099	-0.4041	
-0.091256	0.929274	0.347578	-20.51	118.3	92.82	-0.0658	-0.3021	-0.4182	
-0.032574	0.92903	0.387472	-17.08	114.17	94.08	-0.0729	-0.2961	-0.4152	
-0.015616	0.95282	0.397842	-13.51	112.84	96.88	-0.0659	-0.2915	-0.4168	
0.010736	0.94428	0.3843	-11.62	108.92	96.18	-0.0517	-0.2976	-0.4229	
-0.052582	0.920978	0.401502	-9.24	108.36	96.39	-0.0602	-0.2975	-0.4308	
-0.01891	0.915854	0.419314	-6.65	110.74	95.83	-0.0489	-0.2838	-0.4309	
0.029158	0.912682	0.442128	1.19	111.44	95.27	-0.0446	-0.2854	-0.4246	
-0.021594	0.903288	0.415288	3.78	111.44	95.34	-0.0404	-0.2869	-0.4277	
0.014274	0.901946	0.42517	6.16	109.76	94.85	-0.0248	-0.2839	-0.4323	
0.062342	0.892674	0.444324	12.18	110.6	95.41	-0.0162	-0.29	-0.4338	
0.048312	0.885842	0.43615	19.81	110.32	93.03	-0.0177	-0.2824	-0.4307	
0.039406	0.909754	0.421876	24.36	112.28	91.28	-0.0176	-0.2886	-0.4213	
0.037942	0.912438	0.380274	26.67	112.49	91.7	-0.0119	-0.2932	-0.4212	
-0.014884	0.940132	0.35685	24.29	103.6	89.6	-0.0062	-0.3039	-0.4163	
-0.026962	0.938302	0.36112	25.13	95.27	86.94	0.0065	-0.2964	-0.4148	
-0.036234	0.955016	0.360632	27.79	93.45	87.43	0.007999999	-0.3041	-0.4068	
-0.03538	0.972706	0.352336	31.15	88.13	86.45	0.0067	-0.3209	-0.3973	
0.017446	0.912682	0.360388	32.97	82.39	84.7	0.0067	-0.3149	-0.3895	
0.043676	0.909632	0.36051	30.17	73.57	80.36	0.0025	-0.3301	-0.3878	
-0.006344	0.887794	0.352824	32.06	61.32	78.12	0.0053	-0.3286	-0.3862	
0.116754	0.920124	0.35929	22.12	57.89	69.72	0.004	-0.3288	-0.3753	
0.155672	0.908656	0.392474	29.75	51.66	64.68	-0.0016	-0.3409	-0.3767	
0.170434	0.913414	0.36356	28.42	40.39	59.08	0.0041	-0.344	-0.3688	
0.146156	0.911584	0.315248	24.5	29.12	53.62	0.0084	-0.3472	-0.3609	
0.095404	0.944646	0.208986	4.34	36.96	53.2	-0.01	-0.3455	-0.3704	
0.182512	0.884744	0.374296	15.19	21.49	49.42	-0.0043	-0.3503	-0.3547	
0.225578	0.896334	0.32452	11.62	9.87	40.25	-0.01	-0.3516	-0.3657	
0.284504	0.871568	0.37271	10.22	11.76	40.67	-0.0185	-0.3561	-0.3672	
0.292922	0.8967	0.344162	13.58	6.51	34.09	-0.0185	-0.3486	-0.3595	
0.297802	0.905606	0.336964	10.57	3.29	30.45	-0.0199	-0.3532	-0.361	
0.26108	0.895968	0.308416	9.17	0.14	27.86	-0.0312	-0.3607	-0.3594	
0.311954	0.877424	0.342454	7.56	-0.91	25.06	-0.0269	-0.3609	-0.3437	
0.327936	0.892674	0.328546	9.17	-5.04	21.98	-0.0327	-0.3531	-0.3611	
0.344528	0.90158	0.329766	9.31	-6.02	19.18	-0.0341	-0.3593	-0.3548	
0.360754	0.894016	0.33611	8.19	-6.44	16.87	-0.0412	-0.3516	-0.3564	
0.367342	0.900848	0.33672	5.88	-8.05	14.28	-0.0411	-0.3593	-0.3485	
0.353434	0.876326	0.305366	5.74	-11.69	10.01	-0.0539	-0.3624	-0.3439	
0.383446	0.889746	0.312442	4.9	-11.34	8.4	-0.0454	-0.3639	-0.3454	
0.391864	0.894382	0.314516	3.99	-12.32	6.65	-0.0454	-0.3593	-0.3501	
0.397964	0.885476	0.32147	3.01	-10.57	4.13	-0.0468	-0.3562	-0.3486	
0.386862	0.880352	0.311344	1.75	-10.85	2.52	-0.0525	-0.3638	-0.3501	
0.398696	0.876936	0.3172	1.33	-10.99	-0.77	-0.0468	-0.3593	-0.347	
0.420412	0.869372	0.331108	0.77	-8.82	-2.59	-0.0525	-0.3669	-0.3422	
0.400038	0.880474	0.310246	0	-11.34	-3.22	-0.0581	-0.3669	-0.3407	
0.367952	0.895236	0.276574	0.56	-10.5	-4.34	-0.0539	-0.3623	-0.347	
0.397354	0.89121	0.319274	-1.96	-4.83	-3.92	-0.044	-0.3684	-0.35	
0.381128	0.884622	0.30134	-1.19	-8.75	-5.32	-0.0439	-0.367	-0.3438	
0.357216	0.902434	0.272548	-2.17	-10.5	-6.23	-0.0497	-0.3623	-0.3485	
0.37149	0.89914	0.284016	-5.04	-5.39	-5.95	-0.0511	-0.3577	-0.3564	
0.411872	0.882792	0.290116	-7.07	-0.28	-4.41	-0.0554	-0.3561	-0.358	
0.424072	0.867298	0.345138	-6.23	1.75	-1.68	-0.0511	-0.3609	-0.3439	
0.29402	0.92232	0.285114	-1.4	-9.52	-6.86	-0.0468	-0.3562	-0.3486	
0.289628	0.915366	0.302682	-3.43	-7.63	-11.27	-0.0539	-0.3502	-0.344	
0.340014	0.881084	0.290238	-7.28	-7.56	-13.37	-0.0469	-0.3532	-0.3502	
0.409188	0.853756	0.346846	-8.19	-10.85	-14	-0.0554	-0.3592	-0.3502	
0.357216	0.88999	0.326594	0.91	-10.43	-12.39	-0.0497	-0.3577	-0.3533	
0.272182	0.931104	0.315858	3.22	-18.48	-18.83	-0.054	-0.3547	-0.3518	
0.238876	0.926956	0.299632	-0.7	-22.4	-22.75	-0.0411	-0.3669	-0.3516	
0.219844	0.892796	0.288652	-2.38	-25.13	-26.53	-0.0426	-0.3623	-0.3501	
0.225944	0.891332	0.294508	-3.29	-28.7	-29.89	-0.0426	-0.3593	-0.347	
0.183244	0.90707	0.264618	-4.34	-36.05	-35.28	-0.0468	-0.3562	-0.3486	
0.157136	0.923784	0.266448	-7.56	-38.29	-36.19	-0.0412	-0.3578	-0.3517	
0.181658	0.941962	0.256566	-10.78	-42.49	-38.71	-0.0412	-0.3577	-0.3595	
0.185684	0.950136	0.270108	-12.04	-45.29	-38.36	-0.0398	-0.3546	-0.358	
0.173972	0.956236	0.24522	-11.9	-57.54	-44.38	-0.0412	-0.3607	-0.3579	
0.140544	0.974902	0.208376	-14.91	-62.65	-48.65	-0.0483	-0.3546	-0.3565	
0.140056	1.00406	0.21106	-19.81	-63.7	-49.63	-0.0511	-0.3501	-0.3534	
0.17934	1.021506	0.196908	-25.83	-59.99	-47.46	-0.0498	-0.35	-0.3643	
0.161894	1.010038	0.200812	-25.27	-70.42	-46.34	-0.0498	-0.3454	-0.3644	
0.136396	0.980148	0.17995	-28.35	-81.97	-47.11	-0.0569	-0.3484	-0.3644	
0.191052	0.968192	0.206058	-29.75	-91.28	-46.48	-0.0598	-0.3422	-0.3723	
0.208498	0.985882	0.203618	-30.66	-94.99	-46.9	-0.0711	-0.3484	-0.366	
0.226432	0.981124	0.200812	-32.34	-97.23	-48.58	-0.0726	-0.3437	-0.3755	
0.218624	0.98942	0.212402	-31.57	-101.57	-49.7	-0.0826	-0.3375	-0.3803	
0.221186	0.982222	0.208498	-34.72	-101.92	-50.54	-0.0812	-0.3375	-0.3803	
0.203374	0.984784	0.200324	-34.09	-107.52	-55.72	-0.0954	-0.3373	-0.3945	
0.201544	0.982832	0.20862	-35.91	-111.65	-59.5	-0.0969	-0.3145	-0.3885	
0.21655	0.973316	0.21716	-36.96	-115.64	-62.51	-0.1053	-0.3223	-0.3759	
0.210816	0.948062	0.196054	-33.18	-118.16	-62.93	-0.111	-0.3343	-0.3805	
0.231434	0.952698	0.214598	-33.32	-119.77	-63.35	-0.1167	-0.3222	-0.3807	
0.231556	0.95343	0.207278	-30.17	-124.81	-64.82	-0.1267	-0.3205	-0.3902	
0.206424	0.934764	0.163236	-28.49	-125.02	-65.03	-0.1338	-0.3251	-0.387	
0.2074	0.948672	0.197884	-28.7	-127.19	-65.38	-0.148	-0.3234	-0.3934	
0.224846	0.992958	0.21106	-24.5	-133.84	-66.78	-0.1537	-0.3189	-0.3856	
0.273158	1.007354	0.22265	-23.1	-136.92	-67.83	-0.1664	-0.3191	-0.3669	
0.268278	0.99796	0.184952	-18.69	-141.12	-65.66	-0.1693	-0.3174	-0.3763	
0.248392	1.01748	0.18056	-23.38	-136.01	-64.61	-0.1863	-0.3281	-0.37	
0.264984	1.022116	0.199348	-18.55	-135.66	-69.58	-0.1806	-0.3174	-0.3748	
0.279136	1.01565	0.221064	-19.95	-136.5	-71.19	-0.1962	-0.3192	-0.3514	
0.300486	0.974902	0.208986	-21.49	-129.22	-70.14	-0.2019	-0.3221	-0.3561	
0.31293	0.974292	0.247904	-18.48	-124.18	-68.25	-0.2046	-0.3329	-0.3466	
0.289262	0.981124	0.24278	-14.07	-122.92	-66.85	-0.2089	-0.3298	-0.3482	
0.277672	0.951722	0.237656	-13.02	-117.81	-65.8	-0.2145	-0.3361	-0.3294	
0.25071	0.958066	0.243878	-10.15	-114.59	-64.68	-0.2158	-0.3437	-0.3262	
0.244366	1.000034	0.238754	-2.59	-102.34	-64.26	-0.2244	-0.3391	-0.3247	
0.200324	0.99857	0.20557	-11.34	-109.9	-63.91	-0.2243	-0.3423	-0.3137	
0.192638	0.975756	0.208254	-14.91	-110.81	-65.94	-0.2329	-0.3422	-0.3216	
0.179096	0.98515	0.238876	-14.7	-112.42	-65.66	-0.227	-0.3456	-0.2933	
0.202154	0.971486	0.24339	-8.61	-110.67	-65.31	-0.2228	-0.3441	-0.2933	
0.182512	0.93696	0.210938	-8.4	-105.21	-63.7	-0.2383	-0.3578	-0.2854	
0.17385	0.98149	0.20496	-5.6	-103.95	-63.42	-0.2297	-0.3686	-0.2743	
0.189832	1.010282	0.272304	-1.12	-112.98	-69.72	-0.2325	-0.3671	-0.2681	
0.18178	1.00345	0.28182	-1.89	-120.12	-69.37	-0.2312	-0.3655	-0.2775	
0.22997	0.988932	0.299754	-4.48	-123.69	-66.99	-0.2438	-0.3748	-0.2633	
0.279868	0.967704	0.355264	-4.13	-119.21	-65.24	-0.2381	-0.3733	-0.2555	
0.24339	0.949892	0.34221	0.14	-106.96	-58.38	-0.2324	-0.3796	-0.246	
0.246928	0.98393	0.380396	1.26	-94.78	-48.86	-0.2323	-0.3842	-0.2428	
