Sensor string: B
Serial number: 1970-01-0000
Firmware version: 2.015
Hardware version: 2.2
Calibration quality: 5
ax	ay	az	gx	gy	gz	mx	my	mz

0.180804	-0.842898	0.451034	-1.33	-0.28	0.56	-0.1334	0.3311	-0.4267	Reference
0.178608	-0.845826	0.449204	-1.89	0	0.63	-0.1289	0.3345	-0.4357	
0.180438	-0.846436	0.452132	-1.82	0	0.35	-0.1201	0.3269	-0.431	
0.182512	-0.84973	0.450424	-2.66	-0.21	0	-0.1364	0.3297	-0.4327	
0.182878	-0.841678	0.447496	-1.54	-0.28	-0.35	-0.1305	0.3267	-0.4325	
0.18361	-0.847046	0.44896	-2.73	-0.56	-0.42	-0.1305	0.3233	-0.422	
0.183732	-0.852902	0.454084	-3.5	-0.35	-0.35	-0.1306	0.3237	-0.4324	
0.185806	-0.83753	0.463112	-4.27	0.77	0.07	-0.1231	0.3253	-0.4309	
0.188002	-0.83082	0.453474	-6.02	0	0.98	-0.1246	0.3285	-0.4355	
0.190564	-0.848022	0.447862	-8.19	-2.31	1.54	-0.1261	0.3221	-0.4294	
0.181902	-0.842898	0.450058	-6.02	3.71	1.26	-0.1349	0.3314	-0.4372	
0.17995	-0.84729	0.44591	-8.33	1.68	2.45	-0.132	0.328	-0.4266	
0.155428	-0.87962	0.427122	-7.28	-0.77	1.68	-0.1275	0.3281	-0.4266	
0.130906	-0.894382	0.41114	-3.85	0.77	0.28	-0.1229	0.3312	-0.4237	
0.148352	-0.879986	0.415654	-3.99	1.96	0.35	-0.1259	0.3313	-0.4282	
0.166896	-0.865224	0.417972	-4.06	2.66	0.84	-0.1259	0.3311	-0.4237	
0.172386	-0.868884	0.417972	-5.81	3.57	1.19	-0.1197	0.3421	-0.4285	
0.172386	-0.866444	0.42395	-4.69	6.02	0.84	-0.1199	0.3327	-0.4222	
0.16104	-0.860832	0.411384	-3.57	6.16	0.42	-0.1259	0.3343	-0.4283	
0.152378	-0.866444	0.40321	-3.57	3.85	0.49	-0.1198	0.339	-0.4269	
0.146156	-0.870226	0.402112	-0.77	3.08	0.07	-0.1212	0.3437	-0.433	
0.154574	-0.872788	0.409798	0.21	2.66	-0.21	-0.1288	0.3374	-0.4314	
0.162382	-0.873032	0.416264	1.19	2.1	-0.35	-0.1213	0.3374	-0.4269	
0.166286	-0.87352	0.425536	1.05	0.77	-0.35	-0.1273	0.3373	-0.4284	
0.168116	-0.879254	0.425414	0	-0.63	-0.28	-0.1182	0.3434	-0.4196	
0.165554	-0.884134	0.422852	-0.56	-1.12	0.07	-0.1303	0.3375	-0.4343	
0.16287	-0.884256	0.413336	-0.07	-1.47	0.35	-0.1153	0.3389	-0.4209	
0.160796	-0.883646	0.408456	0	-2.03	0.56	-0.1227	0.3421	-0.43	
0.156526	-0.88389	0.406138	0.42	-1.33	0.42	-0.1199	0.3361	-0.4327	
0.153842	-0.87352	0.405406	1.33	-0.35	0.7	-0.1243	0.3374	-0.4269	
0.160186	-0.864614	0.409676	1.19	-0.21	0.91	-0.1303	0.3389	-0.4314	
0.168848	-0.858758	0.4148	1.47	-0.07	0.63	-0.1198	0.3392	-0.4343	
0.171166	-0.84973	0.422852	1.54	0.28	0.42	-0.1182	0.3419	-0.4225	
0.173728	-0.85339	0.430538	0.56	0.14	0.28	-0.123	0.3314	-0.4296	
0.174948	-0.858758	0.436882	1.12	0.14	0	-0.1258	0.3342	-0.4238	
0.174826	-0.861808	0.433832	1.54	0	-0.07	-0.1153	0.3375	-0.4253	
0.174704	-0.872178	0.436272	1.33	-0.98	0.07	-0.1214	0.3345	-0.4312	
0.168604	-0.876204	0.431758	2.03	-1.33	0.21	-0.1245	0.3267	-0.428	
0.161528	-0.875472	0.424926	2.59	-0.98	0.49	-0.1303	0.3358	-0.4284	
0.159454	-0.872544	0.42639	2.59	-0.7	1.12	-0.123	0.3314	-0.4311	
0.16531	-0.874862	0.423828	2.45	-1.54	1.33	-0.1171	0.3284	-0.428	
0.167994	-0.876082	0.417362	3.22	-2.31	0.91	-0.1275	0.3282	-0.4296	
0.158844	-0.886818	0.407968	3.36	-3.08	0.42	-0.1289	0.336	-0.4358	
0.148352	-0.906094	0.40138	3.01	-3.71	0.21	-0.1229	0.3345	-0.4327	
0.138714	-0.92232	0.388204	4.97	-4.06	-0.07	-0.1287	0.3387	-0.424	
0.139568	-0.909022	0.380396	7.14	-2.66	0.21	-0.1198	0.3393	-0.4102	
0.133834	-0.912682	0.363804	6.86	-2.59	0.7	-0.1217	0.3239	-0.4324	
0.13237	-0.922442	0.359412	7.35	-3.01	0.49	-0.1259	0.3329	-0.4312	
0.130662	-0.92659	0.36417	10.71	-1.96	-0.91	-0.1199	0.333	-0.4297	
0.126392	-0.93818	0.366488	13.09	-1.47	-1.89	-0.1244	0.3313	-0.4282	
0.114436	-0.942816	0.36295	15.68	-1.89	-2.24	-0.1305	0.3284	-0.437	
0.114802	-0.935252	0.355142	18.2	-2.8	-2.31	-0.1306	0.3252	-0.434	
0.117974	-0.922442	0.358436	20.93	-1.96	-2.94	-0.1232	0.3193	-0.4322	
0.117364	-0.91378	0.35868	23.8	-1.19	-4.41	-0.1278	0.3194	-0.4412	
0.114802	-0.907436	0.364048	26.88	-1.05	-6.58	-0.125	0.3105	-0.4453	
0.113826	-0.909876	0.365756	29.96	-0.91	-9.1	-0.1252	0.2996	-0.439	
0.113216	-0.915366	0.366	34.44	-0.14	-11.06	-0.1252	0.2995	-0.4361	
0.113216	-0.90463	0.365268	41.44	-0.77	-12.95	-0.1251	0.3026	-0.4362	
0.1159	-0.904142	0.35929	43.89	-2.03	-14.56	-0.1285	0.2909	-0.4551	
0.113582	-0.89609	0.367586	51.73	-1.61	-17.64	-0.142	0.2809	-0.4385	
0.107482	-0.871446	0.372954	58.31	-3.78	-19.95	-0.1335	0.2696	-0.4604	
0.114314	-0.842044	0.382958	61.11	-9.24	-21.28	-0.1395	0.2697	-0.4693	
0.134566	-0.811788	0.417972	65.45	-7.07	-22.47	-0.1427	0.2606	-0.4705	
0.167628	-0.78751	0.459696	64.4	-6.3	-22.96	-0.131	0.2452	-0.4596	
0.189954	-0.759328	0.498858	65.94	-6.72	-24.64	-0.1402	0.2344	-0.4638	
0.198494	-0.706624	0.50752	70.07	-8.4	-26.11	-0.1525	0.2206	-0.4693	
0.212524	-0.67222	0.53436	67.62	-7.28	-25.69	-0.1538	0.2315	-0.4756	
0.213378	-0.618418	0.533872	70.63	-11.34	-24.92	-0.1605	0.1962	-0.4745	
0.229238	-0.584624	0.562054	69.51	-11.9	-24.85	-0.1619	0.2008	-0.4777	
0.23363	-0.542778	0.580232	72.87	-10.15	-27.02	-0.1608	0.1839	-0.4712	
0.266326	-0.547048	0.62647	69.16	-11.69	-28.7	-0.1595	0.1717	-0.4708	
0.279624	-0.533872	0.6588	74.76	-15.54	-30.17	-0.1717	0.1642	-0.4825	
0.29219	-0.513864	0.689666	73.92	-20.16	-29.05	-0.181	0.1453	-0.473	
0.305	-0.476288	0.719556	78.96	-13.58	-28.77	-0.1738	0.1382	-0.4846	
0.30073	-0.416508	0.71919	83.3	-9.1	-27.93	-0.1874	0.1254	-0.4754	
0.329278	-0.35624	0.757254	77.42	-7.91	-26.74	-0.179	0.1012	-0.4761	
0.353678	-0.323666	0.769088	74.69	-10.15	-27.79	-0.1852	0.0905	-0.4787	
0.391376	-0.293532	0.80032	77.98	-4.27	-29.96	-0.1808	0.0876	-0.4801	
0.39833	-0.27816	0.818742	77.49	-4.34	-30.8	-0.1961	0.0686	-0.4722	
0.387106	-0.25132	0.832772	77.42	-5.32	-30.1	-0.1771	0.0509	-0.4759	
0.396378	-0.213378	0.846802	75.95	-1.61	-29.05	-0.195	0.0554	-0.4851	
0.416874	-0.174582	0.872544	71.33	-0.77	-28	-0.1941	0.0262	-0.4812	
0.422242	-0.168726	0.896456	66.08	-1.26	-27.16	-0.1884	0.0141	-0.4793	
0.42517	-0.16714	0.897798	62.23	-1.82	-26.74	-0.1826	0.0031	-0.4655	
0.415776	-0.164822	0.908168	62.58	2.94	-26.95	-0.1826	0.0048	-0.47	
0.403454	-0.140788	0.920978	61.81	7.21	-25.41	-0.1829	-0.012	-0.4665	
0.409188	-0.13115	0.929274	54.04	5.39	-21.49	-0.1861	-0.0229	-0.4647	
0.399184	-0.107848	0.93147	56.28	11.06	-19.04	-0.1895	-0.0427	-0.4671	
0.396256	-0.081252	0.927688	54.39	11.06	-17.71	-0.1807	-0.0488	-0.4624	
0.403942	-0.077104	0.928176	51.66	11.62	-16.73	-0.1778	-0.0534	-0.4592	
0.394914	-0.072956	0.92415	47.74	7.49	-15.54	-0.1737	-0.0683	-0.4661	
0.392962	-0.06161	0.927688	48.02	8.19	-15.05	-0.169	-0.0623	-0.4589	
0.391132	-0.04758	0.925736	47.25	5.95	-14.21	-0.1709	-0.079	-0.4402	
0.387472	-0.035258	0.941474	43.96	5.88	-12.88	-0.1753	-0.0779	-0.4554	
0.384422	-0.016836	0.937204	43.54	8.26	-12.25	-0.1669	-0.0972	-0.4637	
0.379542	-0.00122	0.937082	41.3	6.93	-11.48	-0.1712	-0.0961	-0.4548	
0.37088	0.009028	0.963068	38.36	5.25	-11.41	-0.1744	-0.1057	-0.4427	
0.393328	0.030988	0.973072	34.93	0.98	-10.36	-0.1643	-0.1191	-0.4481	
0.386496	0.064294	0.97783	36.33	5.74	-9.94	-0.1746	-0.118	-0.4408	
0.38613	0.077348	0.97966	30.24	3.78	-8.26	-0.1656	-0.1145	-0.4483	
0.3843	0.087474	0.988566	26.11	1.96	-7.63	-0.1613	-0.124	-0.4361	
0.384544	0.100162	0.98637	23.94	2.17	-6.72	-0.1584	-0.1285	-0.4344	
0.380152	0.10553	0.990518	19.6	0.63	-5.39	-0.1601	-0.1392	-0.437	
0.382348	0.116144	0.984784	16.31	0.63	-4.06	-0.1616	-0.1345	-0.4402	
0.376614	0.12871	0.974292	14	0.35	-3.43	-0.1689	-0.1303	-0.4344	
0.37271	0.132126	0.96868	9.94	-0.21	-2.31	-0.1663	-0.1453	-0.4399	
0.37515	0.140666	0.957578	6.44	-1.12	-1.68	-0.1645	-0.1366	-0.4268	
0.374906	0.130784	0.957456	3.78	-0.7	-1.54	-0.1588	-0.1437	-0.4369	
0.376248	0.12688	0.952454	3.36	-0.14	-1.26	-0.1603	-0.1469	-0.4338	
0.378322	0.11895	0.948428	1.68	-0.91	-1.4	-0.1662	-0.1439	-0.4384	
0.370392	0.106506	0.944036	-0.63	-0.28	-1.19	-0.1708	-0.1517	-0.4337	
0.365146	0.091134	0.946964	-3.36	-0.35	-0.7	-0.1662	-0.1425	-0.434	
0.368196	0.076372	0.941474	-4.97	-0.91	0.07	-0.1707	-0.1458	-0.428	
0.364292	0.062952	0.934154	-5.04	-1.54	0.42	-0.1707	-0.1454	-0.4414	
0.365024	0.057462	0.931714	-6.37	-1.12	1.05	-0.1632	-0.1422	-0.4399	
0.3721	0.054168	0.937082	-7.63	-1.68	1.75	-0.1602	-0.1456	-0.4264	
0.363194	0.053192	0.93086	-7.42	-1.54	2.03	-0.1663	-0.1453	-0.4399	
0.358802	0.040382	0.94367	-9.59	-2.17	2.66	-0.1663	-0.1453	-0.4399	
0.363072	0.0549	0.934276	-8.96	0.07	3.29	-0.1693	-0.1503	-0.4308	
0.36478	0.061488	0.938424	-11.55	-0.63	4.2	-0.1602	-0.1421	-0.4399	
0.36661	0.06161	0.946842	-12.46	-0.91	4.62	-0.1632	-0.1408	-0.4355	
0.37454	0.061732	0.969046	-14.14	-1.05	4.76	-0.1632	-0.1408	-0.4355	
0.385032	0.077104	0.973072	-15.05	1.26	4.83	-0.1692	-0.1408	-0.4415	
0.382836	0.087962	0.975634	-17.92	0.84	5.46	-0.166	-0.133	-0.4432	
0.389912	0.0915	0.973072	-20.79	0.7	6.3	-0.1645	-0.1314	-0.4433	
0.397476	0.093086	0.980636	-23.31	0.56	6.86	-0.1689	-0.1302	-0.4389	
0.39589	0.088328	0.978684	-26.46	0.7	7.14	-0.1714	-0.1071	-0.4471	
0.3965	0.085644	0.981978	-29.61	1.05	7.84	-0.1657	-0.1176	-0.4482	
0.39345	0.080764	0.976122	-33.81	0.84	8.82	-0.1671	-0.1112	-0.4573	
0.388692	0.067222	0.970144	-37.45	0.21	10.01	-0.161	-0.1084	-0.444	
0.38979	0.049288	0.967704	-41.09	-1.61	10.78	-0.1623	-0.0991	-0.4517	
0.38918	0.026108	0.966972	-44.59	-1.54	11.55	-0.1667	-0.0928	-0.4594	
0.389058	0.01098	0.96136	-47.18	-0.91	12.39	-0.1666	-0.08679999	-0.4566	
0.385276	-0.008662	0.960994	-51.03	-1.19	13.86	-0.1679	-0.0824	-0.4523	
0.387472	-0.02623	0.949892	-53.55	-1.12	14.91	-0.1631	-0.0636	-0.4632	
0.39162	-0.04148	0.94855	-57.33	-0.77	15.82	-0.1644	-0.0546	-0.4591	
0.392474	-0.063562	0.933544	-61.25	-1.12	16.8	-0.1748	-0.0515	-0.4426	
0.382958	-0.09162199	0.923662	-64.96	-1.75	17.71	-0.1778	-0.0499	-0.4727	
0.3782	-0.12749	0.90829	-69.23	-1.05	19.11	-0.1772	-0.0223	-0.4751	
0.374418	-0.15128	0.8906	-72.38	-1.33	19.81	-0.1787	-0.0191	-0.4811	
0.373686	-0.17934	0.871934	-74.83	-2.1	20.37	-0.1694	-0.0052	-0.4785	
0.365146	-0.209108	0.855342	-76.79	-1.75	20.86	-0.1734	0.016	-0.4807	
0.357826	-0.241682	0.83326	-79.1	-2.1	21.77	-0.1704	0.0191	-0.4808	
0.34892	-0.272304	0.810934	-80.43	-2.45	22.4	-0.1774	0.0404	-0.4815	
0.344772	-0.307196	0.793488	-82.11	-3.15	23.24	-0.1787	0.053	-0.4953	
0.340502	-0.335988	0.771284	-80.99	-0.14	23.45	-0.1696	0.0591	-0.488	
0.331962	-0.36905	0.759938	-81.83	7.49	23.52	-0.1677	0.0792	-0.4946	
0.32208	-0.397476	0.741394	-79.87	16.66	22.47	-0.1703	0.0958	-0.4907	
0.295362	-0.412482	0.722606	-74.55	11.9	21.42	-0.1673	0.09739999	-0.4922	
0.296948	-0.45384	0.70699	-82.67	1.26	24.36	-0.1655	0.1096	-0.4911	
0.297558	-0.489342	0.689056	-81.27	4.06	25.41	-0.159	0.134	-0.4859	
0.285724	-0.511912	0.669414	-78.19	8.96	24.64	-0.1601	0.1477	-0.4834	
0.268888	-0.540216	0.644526	-76.93	7.21	24.85	-0.1586	0.1492	-0.4834	
0.25986	-0.583038	0.619028	-76.16	6.58	25.41	-0.1509	0.1615	-0.4793	
0.248148	-0.598288	0.604632	-74.41	9.38	25.27	-0.1612	0.169	-0.4826	
0.238022	-0.624884	0.582184	-73.92	10.85	25.83	-0.1563	0.1826	-0.4756	
0.228018	-0.643672	0.568154	-72.59	9.94	25.97	-0.1456	0.1999	-0.4849	
0.231678	-0.654896	0.558028	-71.19	10.22	25.9	-0.1481	0.2146	-0.4676	
0.208376	-0.674416	0.532408	-69.09	12.74	24.85	-0.1466	0.2195	-0.4782	
0.195322	-0.698084	0.50935	-67.34	11.41	24.22	-0.1433	0.2316	-0.4726	
0.190686	-0.761524	0.492636	-68.18	10.01	22.19	-0.1431	0.2405	-0.4655	
0.179218	-0.788486	0.466284	-64.89	9.17	19.95	-0.1322	0.259	-0.4615	
0.160796	-0.804468	0.455792	-60.48	10.78	18.41	-0.138	0.2648	-0.4573	
0.12505	-0.819352	0.43981	-59.71	12.04	18.55	-0.1271	0.2832	-0.4519	
0.098942	-0.823866	0.416874	-56.42	12.04	18.83	-0.1243	0.2803	-0.4562	
0.126148	-0.815936	0.401014	-53.62	9.59	19.25	-0.1285	0.2894	-0.4565	
0.136274	-0.836188	0.394792	-55.93	9.31	18.13	-0.1164	0.2988	-0.4568	
0.135908	-0.84119	0.368684	-50.96	7.7	16.24	-0.1162	0.3044	-0.4406	
0.115046	-0.880108	0.368928	-49.07	7	13.86	-0.1188	0.3195	-0.4381	
0.102358	-0.885598	0.361852	-44.66	8.33	13.37	-0.105	0.3384	-0.4461	
0.08479	-0.891332	0.350262	-42.14	8.54	13.65	-0.1036	0.3334	-0.4325	
0.09357399	-0.906826	0.34221	-41.79	8.05	14.7	-0.099	0.3381	-0.4327	
0.09747799	-0.921954	0.346236	-40.74	6.09	14.63	-0.1048	0.3472	-0.4345	
0.09028	-0.91744	0.340014	-39.62	5.74	13.86	-0.0973	0.3474	-0.4344	
0.0854	-0.90463	0.328424	-39.06	5.74	14.14	-0.097	0.3562	-0.4243	
0.08418	-0.9028	0.318664	-39.13	4.41	14.77	-0.0867	0.3516	-0.4167	
0.077592	-0.90707	0.309148	-39.27	3.85	14.77	-0.08639999	0.3623	-0.4155	
0.087108	-0.90707	0.306342	-36.89	3.43	14	-0.09209999	0.3745	-0.4189	
0.088694	-0.903654	0.315736	-37.03	2.1	13.3	-0.0905	0.3771	-0.4042	
0.092598	-0.898896	0.306952	-34.86	1.33	12.32	-0.0829	0.3835	-0.4088	
0.092232	-0.889868	0.300852	-36.26	-0.56	11.9	-0.08419999	0.3893	-0.4016	
0.09942999	-0.889502	0.292556	-38.22	-0.84	11.48	-0.0781	0.3954	-0.3958	
0.09211	-0.886574	0.284016	-38.15	0.35	10.36	-0.0752	0.394	-0.3987	
0.082472	-0.903166	0.279502	-40.81	-0.63	9.24	-0.08109999	0.3937	-0.3928	
0.085034	-0.93391	0.258152	-48.72	-3.78	8.61	-0.0794	0.398	-0.3825	
0.07381	-0.94367	0.221186	-49.91	-2.31	7.7	-0.0792	0.4071	-0.3813	
0.072346	-0.959652	0.179096	-55.09	-3.5	8.05	-0.06879999	0.4088	-0.3798	
0.073078	-0.97295	0.158478	-53.13	-1.47	8.19	-0.079	0.4129	-0.3711	
0.05612	-0.977952	0.163236	-52.71	0.07	7.42	-0.0743	0.4233	-0.361	
0.06344	-0.978928	0.153354	-51.73	-0.77	6.58	-0.0741	0.4293	-0.3583	
0.063196	-0.954406	0.1281	-49.7	2.73	5.39	-0.0755	0.432	-0.3465	
0.082106	-0.9394	0.120902	-48.44	5.11	4.06	-0.0619	0.4385	-0.351	
0.084058	-0.939156	0.119072	-52.43	4.9	3.71	-0.0739	0.4365	-0.3451	
0.058316	-0.943914	0.104798	-55.93	-1.05	3.5	-0.0708	0.4394	-0.3363	
0.042456	-0.94367	0.073688	-52.43	-0.42	3.08	-0.0615	0.453	-0.3519	
0.036478	-0.947818	0.053192	-48.79	4.34	1.89	-0.0613	0.4605	-0.3235	
0.047702	-0.946354	0.047824	-41.58	5.74	-0.98	-0.0656	0.4645	-0.3089	
0.08295999	-0.955382	0.061488	-39.34	5.95	-2.1	-0.0657	0.457	-0.3116	
0.086498	-0.978318	0.056852	-34.37	8.4	-3.64	-0.0611	0.4679	-0.3149	
0.06466	-1.043222	0.027084	-31.78	6.51	-2.59	-0.0639	0.4689	-0.3016	
0.032452	-1.077504	0.027694	-27.72	3.57	-0.07	-0.064	0.4658	-0.3	
0.030988	-1.063596	0.0122	-26.18	-0.35	3.15	-0.0608	0.4731	-0.2883	
0.04819	-1.047614	-0.01708	-24.01	-1.54	5.53	-0.0563	0.4717	-0.2883	
0.041602	-1.032242	-0.025864	-22.26	-0.98	6.09	-0.0547	0.478	-0.2929	
0.033794	-1.031876	-0.0488	-21.77	0.07	6.02	-0.0667	0.4761	-0.2914	
0.023546	-1.034926	-0.07076	-21.56	-3.36	5.6	-0.0562	0.4764	-0.2914	
0.005124	-1.020286	-0.081008	-18.41	-4.41	5.04	-0.0695	0.4786	-0.2767	
0.002684	-0.99491	-0.09882	-17.43	-8.05	5.39	-0.0604	0.4866	-0.2799	
0.019764	-0.975512	-0.1037	-18.83	-14.14	7.14	-0.062	0.4788	-0.2766	
0.02196	-0.960628	-0.102114	-19.53	-20.09	6.93	-0.0558	0.4894	-0.2695	
0.032452	-0.966484	-0.109312	-22.05	-18.41	5.88	-0.0678	0.486	-0.2665	
0.022326	-0.972462	-0.118706	-20.16	-15.96	4.27	-0.0618	0.4842	-0.2816	
0.003294	-0.991494	-0.135786	-20.65	-14.21	4.62	-0.0603	0.4896	-0.2785	
-0.015128	-1.030046	-0.146278	-25.48	-17.85	6.44	-0.0676	0.4934	-0.2593	
-0.034892	-1.034072	-0.14762	-20.65	-22.54	6.02	-0.0585	0.4982	-0.2609	
-0.006588	-1.009672	-0.17446	-17.57	-25.83	6.58	-0.0648	0.4825	-0.253	
0.015494	-1.00162	-0.166896	-14.42	-30.59	7.07	-0.051	0.4979	-0.2475	
0.018788	-0.998082	-0.148718	-12.81	-31.22	7.49	-0.057	0.4913	-0.2355	
0.030256	-1.005768	-0.140788	-14.07	-26.6	7.42	-0.0629	0.4959	-0.2416	
0.032574	-0.975146	-0.141398	-9.17	-22.75	5.74	-0.066	0.4913	-0.2429	
0.018544	-0.992226	-0.157136	-16.45	-17.08	5.6	-0.0613	0.5003	-0.2343	
0.013298	-0.99979	-0.17202	-14.49	-14	5.53	-0.0657	0.5035	-0.2404	
0.000488	-1.014674	-0.17629	-15.19	-13.16	5.81	-0.063	0.4911	-0.234	
0.00549	-1.019432	-0.17385	-13.02	-11.83	6.23	-0.0643	0.4954	-0.2267	
0.007198	-1.006988	-0.174826	-10.01	-10.22	5.18	-0.06879999	0.5003	-0.2388	
0.008662	-1.01321	-0.182024	-9.94	-9.66	4.13	-0.0584	0.4956	-0.2282	
-0.000366	-1.013088	-0.193492	-8.75	-7.98	3.36	-0.0492	0.5064	-0.227	
0.00183	-0.996984	-0.195322	-4.9	-6.23	3.57	-0.0686	0.5013	-0.224	
-0.022082	-0.999546	-0.199592	-7.56	-6.3	4.55	-0.0551	0.5095	-0.2301	
-0.024278	-1.008574	-0.2135	-4.83	-6.51	5.6	-0.0596	0.5029	-0.2195	
-0.0366	-1.007598	-0.217648	-2.59	-7.07	6.3	-0.0569	0.4891	-0.2161	
-0.02623	-1.008452	-0.230946	-1.68	-9.03	6.72	-0.0567	0.5031	-0.2225	
-0.03294	-1.00223	-0.219722	0.49	-9.24	6.44	-0.0552	0.5	-0.2209	
-0.028426	-1.007476	-0.204838	0.21	-10.71	7.07	-0.0717	0.4981	-0.2194	
-0.036112	-1.022482	-0.204228	1.47	-9.38	7.07	-0.0567	0.4984	-0.2194	
-0.039284	-1.0248	-0.21289	4.48	-7.28	6.23	-0.0566	0.5027	-0.2121	
-0.040992	-1.016382	-0.208498	5.81	-6.86	5.81	-0.0568	0.4953	-0.2178	
-0.030744	-1.010038	-0.196664	7.63	-6.93	5.32	-0.0552	0.5015	-0.2209	
-0.026474	-0.99613	-0.1891	9.73	-6.44	4.69	-0.0537	0.5013	-0.212	
-0.021106	-0.99796	-0.185806	8.96	-5.11	5.11	-0.0566	0.5028	-0.215	
-0.02623	-0.993568	-0.175436	10.36	-3.57	5.04	-0.0521	0.5029	-0.215	
-0.031964	-0.992104	-0.166896	9.24	-3.43	3.92	-0.0432	0.505	-0.2269	
-0.04087	-0.984662	-0.168238	11.13	-1.12	2.1	-0.0568	0.5001	-0.2253	
-0.035258	-0.999912	-0.17324	10.78	-1.05	0.7	-0.0522	0.5015	-0.2179	
-0.035136	-1.016626	-0.16775	14.14	0.28	-0.35	-0.0566	0.508	-0.233	
-0.046604	-1.01931	-0.157136	16.45	0.63	-1.54	-0.0506	0.5079	-0.2526	
-0.06039	-1.019432	-0.156404	17.64	1.47	-2.24	-0.0522	0.5051	-0.2344	
-0.055022	-1.00833	-0.143838	19.6	1.4	-2.94	-0.0553	0.5036	-0.2373	
-0.056974	-0.997228	-0.134566	20.86	2.45	-3.64	-0.0598	0.4989	-0.2357	
-0.058804	-0.99796	-0.13176	19.95	2.73	-4.27	-0.0569	0.4975	-0.2386	
-0.052094	-0.995398	-0.121878	21.35	1.89	-4.76	-0.057	0.4946	-0.243	
-0.061732	-0.987834	-0.107848	24.22	3.57	-5.53	-0.048	0.4964	-0.2459	
-0.05063	-0.982466	-0.092232	23.24	3.92	-5.95	-0.0541	0.4901	-0.2428	
-0.048434	-0.975512	-0.073078	24.08	5.46	-6.86	-0.0539	0.501	-0.2491	
-0.054534	-0.966606	-0.064294	21.84	5.81	-8.26	-0.0646	0.4933	-0.2549	
-0.0488	-0.950136	-0.06734399	18.41	3.71	-9.52	-0.0556	0.4918	-0.2503	
-0.029158	-0.957456	-0.067954	16.17	1.4	-11.13	-0.0527	0.492	-0.2547	
-0.023912	-0.979538	-0.064904	16.1	2.8	-13.37	-0.0603	0.4843	-0.2575	
-0.02989	-1.00589	-0.067222	17.29	5.53	-15.19	-0.0677	0.4887	-0.2577	
-0.023424	-1.02907	-0.061366	19.95	6.58	-16.17	-0.062	0.4786	-0.2722	
-0.018544	-1.032852	-0.037698	26.88	9.38	-17.57	-0.0665	0.4801	-0.2738	
-0.010126	-1.026264	-0.022936	31.29	9.52	-19.67	-0.0635	0.4788	-0.2781	
-0.010492	-1.055056	-0.013542	29.75	8.96	-20.16	-0.0698	0.4699	-0.2898	
-0.010004	-1.05835	-0.01769	31.99	9.8	-20.3	-0.0742	0.4697	-0.2883	
-0.003538	-1.040782	-0.02074	35.77	8.54	-20.37	-0.0847	0.4665	-0.2883	
0.002806	-1.03029	-0.021716	35.14	6.72	-18.9	-0.0773	0.4699	-0.2958	
0.005612	-1.025654	-0.026718	36.96	6.72	-17.22	-0.0835	0.4625	-0.3074	
0.00305	-1.014918	-0.033672	34.86	4.2	-15.61	-0.09079999	0.4668	-0.3032	
0.00976	-1.012112	-0.033916	40.95	2.03	-12.6	-0.0822	0.4567	-0.3147	
0.020008	-1.011746	-0.012078	36.75	-4.34	-10.01	-0.09429999	0.4522	-0.325	
0.044408	-0.98698	0.016958	41.65	-9.31	-9.38	-0.08989999	0.4459	-0.3173	
0.069662	-0.993446	0.044774	35.56	-15.26	-9.38	-0.0944	0.4461	-0.3248	
0.086742	-1.013698	0.073688	32.55	-15.82	-9.87	-0.0991	0.437	-0.3305	
0.081252	-0.997228	0.08235	42.21	-10.43	-9.8	-0.102	0.4419	-0.341	
0.077226	-0.99796	0.092598	32.13	-14.28	-8.4	-0.1049	0.4464	-0.3412	
0.08967	-0.99857	0.095892	32.9	-13.51	-7.63	-0.1127	0.431	-0.3437	
0.091866	-0.985638	0.103212	34.02	-12.04	-7.07	-0.1054	0.4218	-0.3374	
0.088572	-0.972218	0.115412	34.72	-11.2	-7.77	-0.1129	0.4266	-0.348	
0.099186	-0.97478	0.136396	32.55	-11.34	-8.82	-0.1027	0.4163	-0.3521	
0.108702	-0.966606	0.162382	38.85	-6.72	-10.99	-0.1131	0.416	-0.3507	
0.110776	-0.96319	0.163846	38.15	-6.65	-13.16	-0.1162	0.4115	-0.3565	
0.115412	-0.970632	0.178242	39.62	-5.6	-14.42	-0.1268	0.4069	-0.3623	
0.11956	-0.966484	0.202764	42.07	-3.71	-15.26	-0.1208	0.407	-0.3608	
0.131272	-0.970266	0.215086	44.73	-0.77	-15.33	-0.1195	0.401	-0.3636	
0.140056	-0.957578	0.250222	44.59	-0.56	-15.12	-0.1212	0.3937	-0.3738	
0.136274	-0.939766	0.250222	45.01	-0.56	-14.7	-0.1286	0.3964	-0.3694	
0.146766	-0.930128	0.273646	41.3	0.7	-13.51	-0.1274	0.3864	-0.3628	
0.16226	-0.909266	0.317322	42.56	2.66	-13.23	-0.1318	0.3875	-0.3796	
0.16287	-0.889136	0.315248	42.21	3.5	-13.37	-0.1293	0.3697	-0.3923	
0.156282	-0.858636	0.298412	44.52	2.38	-14.28	-0.1233	0.3745	-0.3939	
0.151768	-0.858026	0.322446	42.63	9.03	-15.61	-0.1383	0.3681	-0.3953	
0.166042	-0.809958	0.357948	51.8	10.64	-17.15	-0.1311	0.361	-0.4069	
0.190198	-0.784094	0.391498	45.71	6.79	-16.03	-0.1327	0.3565	-0.4097	
0.210816	-0.758718	0.43066	43.61	6.23	-15.75	-0.1242	0.3387	-0.4195	
0.210938	-0.750666	0.460428	43.12	7.91	-16.17	-0.1393	0.329	-0.4148	
0.20374	-0.75335	0.496296	39.9	7.28	-16.8	-0.135	0.3247	-0.4191	
0.201544	-0.758352	0.506544	36.12	6.51	-16.1	-0.1364	0.3262	-0.4207	
0.200446	-0.752252	0.510448	35.14	5.04	-15.33	-0.1365	0.3265	-0.4311	
0.203862	-0.749934	0.518988	31.85	3.5	-13.65	-0.1428	0.3144	-0.4381	
0.206912	-0.7564	0.524356	29.61	2.38	-12.46	-0.1278	0.3145	-0.4547	
0.213012	-0.758596	0.52643	27.65	1.47	-11.76	-0.1475	0.3022	-0.4137	
0.215086	-0.762988	0.528504	27.3	0.7	-11.62	-0.1446	0.2974	-0.4332	
0.20923	-0.76677	0.523868	26.95	0.77	-11.41	-0.1429	0.3068	-0.4379	
0.199592	-0.770064	0.519964	27.58	2.17	-11.13	-0.1432	0.2978	-0.4435	
0.200324	-0.779336	0.522526	25.55	1.19	-10.22	-0.1435	0.2857	-0.4476	
0.20191	-0.77226	0.521672	27.58	3.01	-9.8	-0.145	0.2809	-0.4415	
0.20923	-0.763964	0.52216	27.79	3.85	-9.59	-0.1494	0.2857	-0.4521	
0.204106	-0.765184	0.53314	27.23	4.06	-9.52	-0.1484	0.2693	-0.462	
0.20374	-0.776164	0.542656	25.62	-1.4	-8.4	-0.1438	0.2721	-0.4757	
0.208376	-0.770064	0.528382	28.28	-1.12	-8.54	-0.1454	0.266	-0.4514	
0.207034	-0.77653	0.533018	29.19	0.63	-9.52	-0.1469	0.2693	-0.4605	
0.195566	-0.779214	0.524844	30.1	-0.07	-9.87	-0.1515	0.263	-0.4573	
0.185196	-0.782264	0.51484	31.01	-1.68	-10.01	-0.1591	0.2567	-0.4572	
0.184708	-0.773236	0.50935	33.81	-1.68	-10.22	-0.1486	0.2585	-0.4572	
0.189466	-0.762378	0.513132	35.77	-0.14	-10.85	-0.1562	0.2505	-0.4525	
0.193248	-0.750788	0.509838	37.45	-1.61	-11.83	-0.1564	0.2417	-0.4626	
0.191174	-0.751764	0.518378	38.57	-3.08	-13.3	-0.1565	0.2404	-0.47	
0.189466	-0.757864	0.521794	40.32	-2.31	-14.91	-0.1477	0.2312	-0.4637	
0.19459	-0.757254	0.551806	43.68	-2.87	-16.38	-0.1553	0.2282	-0.4696	
0.200202	-0.750056	0.55266	47.81	-5.25	-17.43	-0.1599	0.2234	-0.4665	
0.209108	-0.720654	0.567788	51.03	-3.36	-17.99	-0.1632	0.2083	-0.4735	
0.215574	-0.67954	0.586332	52.64	-0.7	-18.34	-0.1601	0.2113	-0.4706	
0.229848	-0.64721	0.59414	52.01	-2.31	-17.99	-0.1648	0.2037	-0.4733	
0.244488	-0.63074	0.621346	51.59	-4.9	-18.97	-0.1665	0.1947	-0.479	
0.237168	-0.622688	0.631716	53.34	-6.79	-21.42	-0.167	0.1734	-0.4828	
0.232044	-0.593896	0.642818	54.95	-6.58	-21.49	-0.1852	0.1591	-0.478	
0.232898	-0.546194	0.646722	57.89	-4.83	-21.63	-0.1766	0.1458	-0.4834	
0.251808	-0.53558	0.683566	52.92	-6.65	-20.86	-0.1749	0.15	-0.4717	
0.248636	-0.538142	0.689544	53.27	-10.64	-21.42	-0.1812	0.1379	-0.4802	
0.261934	-0.521672	0.701988	53.13	-10.78	-21.77	-0.1666	0.1244	-0.4767	
0.291824	-0.484584	0.729804	54.18	-8.89	-21.42	-0.1801	0.1213	-0.4841	
0.312442	-0.469212	0.737002	51.94	-7.7	-21.14	-0.1744	0.1109	-0.4897	
0.32513	-0.450912	0.756644	52.22	-4.27	-22.05	-0.1895	0.1012	-0.4836	
0.3294	-0.41907	0.767136	53.34	-0.14	-22.54	-0.1822	0.094	-0.4907	
0.351116	-0.388814	0.784094	52.78	1.54	-22.82	-0.1826	0.0738	-0.4811	
0.354532	-0.3538	0.788486	55.16	1.89	-24.08	-0.1871	0.0722	-0.4811	
0.367952	-0.324032	0.787632	54.74	-6.23	-24.01	-0.1845	0.0553	-0.4761	
0.366488	-0.312442	0.812032	53.34	-0.7	-24.92	-0.1846	0.0491	-0.4744	
0.365512	-0.296826	0.819596	52.99	-1.26	-25.34	-0.1862	0.0431	-0.4772	
0.368806	-0.27633	0.855586	51.52	0.14	-24.99	-0.1835	0.0341	-0.4814	
0.385764	-0.238632	0.87596	50.89	0.63	-24.01	-0.1778	0.0204	-0.4764	
0.402112	-0.214964	0.893772	49.42	1.4	-22.82	-0.1869	0.0109	-0.4732	
0.407236	-0.201544	0.916708	48.37	1.68	-21.42	-0.1912	0.0152	-0.4675	
0.407846	-0.188612	0.915732	45.5	3.57	-20.37	-0.1827	0.0003	-0.4743	
0.39894	-0.18178	0.90646	44.66	3.99	-18.9	-0.1847	-0.0258	-0.4676	
0.395768	-0.168116	0.91073	42.28	4.41	-17.64	-0.1847	-0.0258	-0.4661	
0.394304	-0.143106	0.917806	41.79	6.02	-16.24	-0.1936	-0.0195	-0.4782	
0.396988	-0.122	0.920978	38.43	4.76	-14.21	-0.1714	-0.0301	-0.4673	
0.39711	-0.111874	0.930982	36.4	6.44	-13.09	-0.1714	-0.0331	-0.4672	
0.404552	-0.08418	0.92293	34.72	7	-11.69	-0.1777	-0.0454	-0.4699	
0.399062	-0.06527	0.936838	32.62	6.23	-10.92	-0.182	-0.038	-0.4642	
0.395524	-0.04453	0.93452	32.06	5.04	-10.43	-0.1644	-0.0496	-0.4726	
0.393084	-0.052582	0.956968	27.93	4.55	-9.8	-0.1794	-0.0544	-0.477	
0.399794	-0.054534	0.958188	27.58	3.15	-8.68	-0.1676	-0.062	-0.4678	
0.388692	-0.05917	0.967338	26.04	1.47	-7.98	-0.172	-0.0593	-0.462	
0.400038	-0.037698	0.971364	23.8	1.75	-7.49	-0.178	-0.0623	-0.4664	
0.404186	-0.028914	0.978562	21	0.42	-6.72	-0.1827	-0.0735	-0.4527	
0.401868	-0.025986	0.981734	18.2	-0.98	-5.67	-0.1694	-0.0807	-0.4583	
0.404796	-0.024644	0.97417	16.59	-2.45	-4.76	-0.1696	-0.0852	-0.4596	
0.405284	-0.024644	0.969046	13.02	-2.87	-3.99	-0.1784	-0.08419999	-0.4508	
0.40382	-0.03355	0.967582	10.15	-2.73	-3.29	-0.1727	-0.0915	-0.458	
0.404552	-0.033306	0.9699	6.93	-2.03	-2.52	-0.1681	-0.08989999	-0.4565	
0.400526	-0.025498	0.963434	5.18	-0.91	-1.96	-0.1711	-0.0883	-0.461	
0.397476	-0.019154	0.961116	2.66	-0.91	-1.19	-0.1711	-0.0883	-0.4595	
0.395524	-0.019764	0.955016	0.7	-1.26	-0.84	-0.1683	-0.0975	-0.4577	
0.396134	-0.0183	0.963922	-2.66	-1.68	-0.49	-0.1785	-0.0904	-0.4476	
0.396744	-0.016226	0.955016	-4.13	-0.7	-0.14	-0.183	-0.0872	-0.4552	
0.39467	-0.020984	0.9516	-6.44	-1.82	0.21	-0.1742	-0.0963	-0.4519	
0.392596	-0.028914	0.955504	-8.75	-2.66	0.56	-0.1786	-0.0902	-0.4551	
0.386862	-0.028548	0.949526	-9.45	-1.82	1.05	-0.1801	-0.0933	-0.452	
0.385154	-0.031598	0.948428	-12.25	-2.03	1.68	-0.1711	-0.0885	-0.4551	
0.3904	-0.037576	0.942084	-13.79	-2.1	2.31	-0.1784	-0.084	-0.4553	
0.39101	-0.047336	0.948184	-17.01	-3.29	3.15	-0.1711	-0.08989999	-0.4565	
0.396988	-0.058682	0.961482	-19.81	-2.45	4.2	-0.1826	-0.06879999	-0.4573	
0.397476	-0.064538	0.966728	-22.47	-1.96	5.04	-0.1796	-0.0703	-0.4557	
0.400648	-0.070638	0.969168	-24.99	-1.68	6.02	-0.1708	-0.07319999	-0.4556	
0.401746	-0.07381	0.960018	-26.6	-1.75	7.14	-0.175	-0.0625	-0.4574	
0.400648	-0.078446	0.948916	-29.26	-1.54	8.47	-0.1854	-0.0596	-0.4606	
0.397964	-0.089792	0.9394	-31.71	-2.24	9.66	-0.1824	-0.0563	-0.4651	
0.389058	-0.103334	0.928298	-33.46	-3.08	10.57	-0.1806	-0.0492	-0.4505	
0.390034	-0.117974	0.92781	-36.19	-3.29	11.83	-0.1821	-0.0457	-0.4639	
0.390644	-0.132126	0.916342	-38.08	-3.99	12.74	-0.1804	-0.0348	-0.4687	
0.391864	-0.143838	0.914878	-39.62	-3.57	13.58	-0.1833	-0.0335	-0.4629	
0.394914	-0.15921	0.905362	-42	-3.57	14.49	-0.1831	-0.0212	-0.4662	
0.39467	-0.17812	0.894016	-43.05	-3.57	14.63	-0.1861	-0.0211	-0.4707	
0.39223	-0.195932	0.890234	-44.87	-3.36	15.05	-0.1873	-0.0058	-0.4727	
0.38674	-0.220698	0.87657	-45.78	-2.94	15.47	-0.1842	-0.0043	-0.4697	
0.381738	-0.247904	0.86254	-48.44	-2.38	16.03	-0.1797	0.0019	-0.4729	
0.385154	-0.267424	0.85156	-50.19	-2.17	16.59	-0.187	0.0062	-0.4716	
0.383446	-0.290482	0.83814	-50.19	-1.54	16.66	-0.1838	0.0202	-0.4765	
0.374174	-0.31537	0.827526	-50.96	-0.07	16.73	-0.1867	0.02	-0.4705	
0.368684	-0.329034	0.817888	-51.45	1.47	16.94	-0.1924	0.0354	-0.48	
0.368074	-0.348066	0.803248	-52.29	1.19	17.36	-0.1908	0.0383	-0.4741	
0.362096	-0.372954	0.790072	-52.43	1.96	17.08	-0.1891	0.0442	-0.4684	
0.35502	-0.400404	0.779336	-54.39	8.61	16.52	-0.1812	0.0694	-0.484	
0.323178	-0.416386	0.768722	-49.21	14.7	13.93	-0.1828	0.0661	-0.4794	
0.330254	-0.43066	0.754326	-51.24	1.61	16.1	-0.1781	0.0771	-0.4842	
0.3416	-0.450058	0.750544	-51.59	-2.1	16.66	-0.1823	0.086	-0.4815	
0.335622	-0.465674	0.747128	-50.54	5.88	15.68	-0.1805	0.1013	-0.4805	
0.320982	-0.470066	0.732732	-48.37	6.58	15.05	-0.1821	0.0951	-0.4789	
0.32147	-0.48617	0.723826	-50.54	0.28	16.24	-0.179	0.1062	-0.4881	
0.320006	-0.498004	0.71736	-49.07	1.89	15.96	-0.1772	0.1166	-0.4795	
0.320738	-0.51606	0.71797	-48.79	3.78	15.4	-0.1738	0.1348	-0.4727	
0.32147	-0.526308	0.71797	-49.07	3.29	15.96	-0.1722	0.1411	-0.4773	
0.31293	-0.540094	0.71553	-49.7	4.27	16.24	-0.1751	0.1456	-0.479	
0.30805	-0.549854	0.701622	-50.05	4.83	16.8	-0.1599	0.155	-0.4762	
0.302926	-0.55754	0.699792	-51.17	5.32	17.43	-0.1715	0.1733	-0.4813	
0.303292	-0.560468	0.683932	-49.98	4.55	17.99	-0.1596	0.1735	-0.4797	
0.293776	-0.573766	0.667218	-51.87	4.9	18.9	-0.1668	0.1842	-0.4846	
0.286822	-0.590236	0.655018	-51.8	7.42	18.55	-0.1532	0.1888	-0.4757	
0.276086	-0.602924	0.640012	-50.75	5.74	18.13	-0.162	0.1959	-0.4671	
0.272548	-0.616954	0.627568	-52.29	4.62	18.62	-0.166	0.2157	-0.4693	
0.26657	-0.629398	0.620004	-51.87	7	18.06	-0.1556	0.213	-0.4706	
0.259738	-0.646356	0.601948	-51.59	6.44	17.71	-0.1537	0.233	-0.4742	
0.249368	-0.668072	0.585844	-52.99	4.97	17.5	-0.1595	0.2386	-0.464	
0.238632	-0.679174	0.569252	-51.1	5.88	17.29	-0.1446	0.2405	-0.4655	
0.240584	-0.68869	0.552416	-50.68	5.95	17.22	-0.152	0.2383	-0.4491	
0.242536	-0.707234	0.546682	-51.38	6.51	17.22	-0.1459	0.2481	-0.4642	
0.240828	-0.750178	0.525698	-50.61	7.14	17.15	-0.1442	0.2555	-0.4585	
0.22143	-0.781776	0.493368	-48.09	6.58	16.8	-0.1484	0.2645	-0.4544	
0.219356	-0.83143	0.457378	-50.89	5.32	17.15	-0.1438	0.2706	-0.4531	
0.192394	-0.868396	0.435784	-46.62	6.3	15.47	-0.1436	0.2831	-0.4594	
0.149084	-0.87413	0.401014	-38.99	8.68	14.63	-0.1359	0.2939	-0.4597	
0.144326	-0.884256	0.399306	-38.36	8.4	15.61	-0.1373	0.2936	-0.4493	
0.136274	-0.881328	0.391254	-34.93	9.31	15.61	-0.1312	0.298	-0.442	
0.139934	-0.85827	0.376736	-32.76	9.1	15.96	-0.1266	0.3027	-0.4406	
0.145058	-0.84729	0.371734	-29.68	8.12	16.24	-0.128	0.3071	-0.4378	
0.141398	-0.850584	0.36722	-31.01	7.7	16.1	-0.1339	0.3149	-0.447	
0.14091	-0.856928	0.367708	-28.7	6.16	15.26	-0.1277	0.324	-0.4413	
0.144326	-0.870958	0.36905	-29.19	5.74	13.93	-0.1202	0.324	-0.4338	
0.142374	-0.888526	0.367952	-26.32	7.21	12.46	-0.1168	0.3408	-0.4344	
0.133468	-0.909754	0.366976	-25.55	6.93	11.55	-0.1171	0.3319	-0.44	
0.116388	-0.921588	0.356728	-21.84	7.77	10.71	-0.1125	0.3348	-0.4327	
0.109556	-0.937814	0.36112	-19.6	5.88	10.5	-0.1095	0.333	-0.4222	
0.10126	-0.94001	0.36112	-19.46	4.76	10.29	-0.1048	0.3474	-0.4404	
0.102846	-0.934276	0.342332	-17.08	4.69	10.78	-0.1061	0.3499	-0.4242	
0.105896	-0.930616	0.351482	-17.43	2.8	11.34	-0.1089	0.3623	-0.432	
0.106628	-0.91378	0.356362	-15.05	3.71	10.85	-0.0941	0.3515	-0.4197	
0.100894	-0.908168	0.359778	-14.91	4.34	10.08	-0.0954	0.3608	-0.423	
0.09272	-0.897066	0.359412	-15.19	4.06	9.73	-0.1001	0.353	-0.4228	
0.0976	-0.885232	0.35624	-16.03	3.36	9.94	-0.0954	0.3605	-0.4141	
0.104798	-0.874984	0.37271	-17.15	2.24	9.87	-0.0982	0.37	-0.4263	
0.107848	-0.865102	0.371124	-17.78	2.31	9.24	-0.0939	0.3608	-0.4215	
0.108336	-0.85339	0.376858	-19.11	1.82	8.68	-0.0863	0.3702	-0.4247	
0.110288	-0.851316	0.370026	-20.58	2.52	8.05	-0.0816	0.3761	-0.416	
0.112606	-0.849364	0.372954	-22.33	2.31	7.49	-0.0846	0.3742	-0.407	
0.117852	-0.851926	0.377224	-24.5	2.31	7.14	-0.0845	0.3803	-0.4057	
0.116266	-0.866444	0.378566	-26.53	2.66	6.86	-0.0874	0.3833	-0.4073	
0.108702	-0.874374	0.377956	-28.42	3.78	7.14	-0.0994	0.3834	-0.4163	
0.117974	-0.889868	0.362218	-32.9	2.03	7.91	-0.0858	0.3847	-0.3999	
0.112972	-0.887794	0.351604	-34.44	1.75	8.12	-0.07979999	0.3894	-0.4	
0.108702	-0.88511	0.334768	-35.77	2.03	8.61	-0.0739	0.3865	-0.4014	
0.09942999	-0.889136	0.31903	-37.8	1.61	8.96	-0.0692	0.3939	-0.3927	
0.09028	-0.882182	0.2928	-39.97	1.61	9.59	-0.0704	0.4059	-0.3857	
0.071004	-0.88206	0.269864	-41.16	0.56	10.15	-0.0823	0.4058	-0.3917	
0.065514	-0.893528	0.244976	-43.12	-0.77	10.78	-0.0807	0.4118	-0.3859	
0.05246	-0.920002	0.21533	-43.54	1.12	9.31	-0.079	0.421	-0.3862	
0.066856	-0.936228	0.206302	-42.21	-2.31	8.54	-0.0669	0.4222	-0.3698	
0.061488	-0.959164	0.192028	-40.95	-4.06	7	-0.0758	0.4234	-0.364	
0.053192	-0.96868	0.177632	-35.84	-2.1	5.46	-0.0683	0.4266	-0.3641	
0.048068	-0.972706	0.16897	-32.13	-1.33	3.85	-0.0695	0.4371	-0.3585	
0.042578	-0.976976	0.15799	-30.94	-2.59	3.15	-0.0695	0.4371	-0.36	
0.035136	-0.997106	0.147132	-31.08	-3.22	3.22	-0.065	0.4371	-0.3555	
0.042944	-0.994178	0.133468	-28.49	-3.08	3.36	-0.068	0.4352	-0.348	
0.049288	-0.993934	0.116266	-30.66	-4.06	4.41	-0.0662	0.4442	-0.3424	
0.04636	-0.982466	0.100284	-28.84	-3.15	4.34	-0.072	0.4531	-0.3382	
0.0244	-0.991006	0.090158	-26.81	-4.13	3.29	-0.0598	0.4609	-0.3339	
0.020618	-0.998082	0.08295999	-28.91	-3.71	3.92	-0.0645	0.4499	-0.3292	
0.019642	-0.983564	0.07625	-24.43	-3.01	3.36	-0.0749	0.4495	-0.3233	
0.024766	-0.982954	0.061244	-24.08	-0.91	3.43	-0.0628	0.4589	-0.3205	
0.033306	-0.982466	0.055266	-23.17	-1.19	3.15	-0.0673	0.4588	-0.3206	
0.03355	-0.976854	0.053924	-23.66	-1.82	3.29	-0.0612	0.4603	-0.3176	
0.033794	-0.979294	0.044042	-24.57	-0.7	3.5	-0.0627	0.4601	-0.3117	
0.025376	-0.981124	0.042334	-24.36	-0.35	3.5	-0.0626	0.4664	-0.3178	
0.028914	-0.98881	0.031598	-24.57	2.31	4.27	-0.067	0.4674	-0.306	
0.016714	-0.98759	0.024644	-22.96	2.52	4.13	-0.0582	0.4618	-0.2876	
-0.003904	-0.982588	0.006466	-23.52	2.52	4.9	-0.061	0.466	-0.3044	
-0.0061	-0.98149	-0.010614	-23.52	1.12	6.37	-0.052	0.4676	-0.3014	
-0.001098	-0.991372	-0.005246	-24.71	-3.29	7.28	-0.0582	0.4599	-0.3012	
-0.00488	-0.99979	-0.019886	-25.97	-4.69	7.98	-0.0607	0.4746	-0.2884	
-0.0122	-1.0248	-0.051118	-24.71	-6.09	8.19	-0.0579	0.4737	-0.3032	
-0.015372	-1.017724	-0.054168	-20.09	-6.51	8.26	-0.0607	0.4763	-0.2914	
-0.015372	-1.020652	-0.068564	-20.02	-7.49	7.35	-0.0487	0.4793	-0.284	
-0.021838	-1.046516	-0.085278	-17.64	-7.7	6.09	-0.0561	0.4789	-0.2766	
-0.0183	-1.04188	-0.096258	-14.91	-10.5	5.67	-0.0589	0.4865	-0.2769	
-0.005246	-1.049566	-0.084912	-14.07	-12.6	5.04	-0.0529	0.49	-0.2858	
0.00305	-1.022604	-0.072834	-9.87	-11.2	4.2	-0.05	0.4818	-0.2678	
0.00732	-1.000766	-0.0671	-8.82	-8.75	3.29	-0.059	0.4818	-0.2738	
0.009028	-0.99064	-0.07442	-9.1	-7.28	2.66	-0.0664	0.4832	-0.2738	
0.002684	-0.978196	-0.09076799	-10.99	-7.35	2.94	-0.0617	0.4907	-0.2681	
0.005368	-0.974536	-0.10004	-11.83	-8.05	3.01	-0.0515	0.4818	-0.2692	
0.012078	-0.97661	-0.092964	-10.99	-9.24	3.15	-0.0588	0.4893	-0.2681	
0.01281	-0.9577	-0.08601	-11.41	-8.68	2.87	-0.0616	0.4968	-0.2683	
0.020862	-0.95343	-0.093208	-13.72	-6.86	2.87	-0.0572	0.4921	-0.2592	
0.016104	-0.94977	-0.099552	-15.19	-7.63	2.59	-0.0511	0.497	-0.2668	
-0.00244	-1.00589	-0.13237	-22.12	-9.03	3.15	-0.0541	0.4933	-0.2489	
0.001342	-1.012478	-0.130418	-18.06	-9.73	2.94	-0.0526	0.4952	-0.2578	
0.000854	-1.016748	-0.108702	-14.84	-8.75	2.45	-0.057	0.498	-0.2535	
-0.000976	-1.018456	-0.115778	-15.4	-6.72	2.59	-0.0616	0.4884	-0.2443	
-0.000854	-1.016504	-0.122122	-12.32	-4.9	2.24	-0.0539	0.5007	-0.2417	
-0.006466	-1.013332	-0.12261	-10.71	-3.85	2.1	-0.063	0.493	-0.2445	
-0.005734	-1.01199	-0.133834	-9.73	-2.52	2.38	-0.0513	0.4825	-0.2426	
0.005978	-1.003816	-0.12322	-6.09	-2.59	2.45	-0.0449	0.5009	-0.2401	
-0.002928	-0.996984	-0.116266	-5.11	-1.82	2.94	-0.0525	0.4961	-0.2385	
-0.013908	-1.011136	-0.134688	-6.65	-1.19	4.13	-0.0477	0.5085	-0.2434	
-0.01586	-1.00833	-0.144448	-4.41	-2.1	4.9	-0.057	0.4961	-0.2415	
-0.022814	-1.014064	-0.15921	-5.81	-2.66	6.02	-0.0525	0.4944	-0.2355	
-0.0305	-1.037854	-0.162016	-6.58	-5.04	6.37	-0.0464	0.4992	-0.2356	
-0.033794	-1.01931	-0.154452	-0.7	-4.55	6.23	-0.0464	0.4975	-0.2326	
-0.028548	-1.007232	-0.158112	-1.68	-4.69	6.86	-0.048	0.4912	-0.2265	
-0.02745	-0.996374	-0.167506	0	-3.64	6.58	-0.0479	0.499	-0.2312	
-0.040382	-0.989176	-0.172996	-0.49	-3.43	5.74	-0.0463	0.5054	-0.2403	
-0.042944	-0.993202	-0.161162	1.54	-4.2	4.62	-0.0464	0.504	-0.2432	
-0.041846	-0.989298	-0.158478	3.08	-3.36	3.71	-0.0553	0.5038	-0.2448	
-0.044896	-1.000278	-0.16958	2.31	-2.8	3.08	-0.0494	0.4991	-0.2357	
-0.0488	-1.007598	-0.162504	3.22	-3.29	2.73	-0.0389	0.5026	-0.2416	
-0.044774	-1.012844	-0.148474	3.99	-4.41	2.94	-0.0525	0.4926	-0.2266	
-0.044896	-1.013088	-0.147132	4.62	-4.27	3.08	-0.0448	0.5004	-0.2268	
-0.0488	-1.02785	-0.159942	4.9	-3.36	3.15	-0.0435	0.4963	-0.2385	
-0.050386	-1.034316	-0.162626	8.05	-3.29	2.38	-0.0525	0.4946	-0.24	
-0.056852	-1.02602	-0.153476	10.78	-3.22	1.47	-0.0422	0.4903	-0.2413	
-0.061732	-1.024068	-0.148718	11.76	-2.45	0.63	-0.0434	0.5008	-0.2372	
-0.063928	-1.039684	-0.14762	12.74	-1.61	0.14	-0.0404	0.5042	-0.2461	
-0.068808	-1.027484	-0.14884	17.5	-1.96	-0.63	-0.0434	0.5008	-0.2386	
-0.059902	-1.01382	-0.135908	18.62	-1.75	-0.63	-0.0464	0.5026	-0.2461	
-0.055876	-1.007598	-0.130662	20.02	-0.07	-1.12	-0.0465	0.5014	-0.2565	
-0.054656	-1.016138	-0.133224	19.95	-0.49	-1.61	-0.0466	0.4952	-0.2548	
-0.068564	-1.034072	-0.126758	21.42	-0.7	-2.1	-0.0513	0.4875	-0.2561	
-0.082594	-1.027362	-0.128588	25.34	0.42	-2.31	-0.0525	0.4982	-0.2564	
-0.077592	-1.046028	-0.131638	25.2	-1.89	-2.31	-0.0512	0.4924	-0.2666	
-0.070882	-1.038464	-0.112606	29.4	-5.39	-2.38	-0.0394	0.4914	-0.2724	
-0.061122	-1.03822	-0.089914	32.76	-4.62	-3.29	-0.0424	0.4898	-0.2739	
-0.057828	-1.037	-0.081374	33.32	-3.64	-2.66	-0.0454	0.4915	-0.2799	
-0.065514	-1.051762	-0.066612	34.58	-4.06	-1.89	-0.0485	0.4851	-0.2723	
-0.058682	-1.054446	-0.049288	37.38	-5.95	-1.12	-0.0426	0.4872	-0.2872	
-0.049166	-1.041514	-0.03599	40.39	-5.46	-1.12	-0.059	0.4869	-0.2902	
-0.036112	-1.031022	-0.019886	41.37	-4.9	-2.03	-0.0502	0.478	-0.2914	
-0.038552	-1.02114	-0.00976	42.77	-2.31	-3.15	-0.0384	0.477	-0.3002	
-0.035868	-1.011746	0.006588	42.42	-1.54	-3.64	-0.0535	0.4693	-0.306	
-0.049776	-0.989908	0.018788	46.06	0.84	-4.83	-0.0535	0.4741	-0.3135	
-0.065514	-0.981856	0.022448	43.47	-0.35	-5.32	-0.0626	0.4696	-0.3209	
-0.067588	-0.962824	0.037088	43.54	-3.01	-6.02	-0.0597	0.4617	-0.3132	
-0.051362	-0.948672	0.06161	43.12	-5.46	-7.63	-0.0479	0.4593	-0.3234	
-0.028792	-0.9638	0.095038	41.16	-5.81	-10.29	-0.054	0.4582	-0.3397	
-0.031842	-0.972584	0.101992	42.84	-3.08	-11.48	-0.0542	0.4457	-0.3319	
-0.027816	-0.977952	0.122854	43.33	-5.74	-12.6	-0.0691	0.4471	-0.3395	
-0.012932	-0.982466	0.144204	42.77	-4.83	-14.14	-0.0665	0.4336	-0.345	
-0.004636	-0.97356	0.150792	48.79	2.1	-16.1	-0.0724	0.4416	-0.3586	
0.005002	-0.96685	0.152744	46.62	1.47	-17.29	-0.077	0.4322	-0.3539	
0.020252	-0.977342	0.165188	49.21	4.41	-18.41	-0.0803	0.4203	-0.3654	
0.022448	-0.988932	0.181292	47.74	3.22	-19.04	-0.0728	0.4254	-0.3759	
0.019398	-0.996496	0.19825	47.6	1.96	-20.37	-0.0849	0.4156	-0.3668	
0.015982	-0.984906	0.201788	52.15	4.27	-20.79	-0.0836	0.4097	-0.371	
0.019642	-0.977952	0.206546	52.71	2.17	-20.93	-0.0792	0.407	-0.3798	
0.03172	-0.967216	0.217648	53.62	-0.14	-21.21	-0.08989999	0.3996	-0.393	
0.048922	-0.962702	0.238022	55.02	-0.35	-22.26	-0.0796	0.3937	-0.3913	
0.059414	-0.94428	0.28121	58.8	1.75	-22.96	-0.0917	0.3924	-0.4076	
0.067466	-0.915732	0.320738	59.57	3.08	-22.89	-0.0979	0.3783	-0.4013	
0.07515199	-0.87047	0.340136	54.46	1.75	-20.93	-0.0954	0.3623	-0.423	
0.063928	-0.838262	0.335134	52.36	1.75	-19.6	-0.1044	0.3557	-0.414	
0.057096	-0.83387	0.365756	43.68	-1.47	-18.13	-0.109	0.3525	-0.4139	
0.067832	-0.843264	0.398086	40.11	-3.43	-17.92	-0.1047	0.347	-0.4285	
0.090158	-0.827648	0.442006	42.63	-2.03	-18.41	-0.1107	0.3438	-0.427	
0.105896	-0.783484	0.462502	46.13	1.4	-18.48	-0.1183	0.3424	-0.4359	
0.116022	-0.740906	0.47092	45.08	2.38	-17.78	-0.1097	0.3289	-0.4369	
0.14335	-0.720654	0.52216	36.54	2.38	-16.38	-0.1145	0.3154	-0.4469	
0.163358	-0.701256	0.538264	33.18	1.82	-15.54	-0.1071	0.3107	-0.4407	
0.183854	-0.670268	0.56547	32.9	3.64	-15.26	-0.11	0.3139	-0.4453	
0.217892	-0.649162	0.610854	28.14	2.03	-14.42	-0.1146	0.3073	-0.4348	
0.21899	-0.66246	0.6222	25.55	3.57	-14.35	-0.1148	0.3033	-0.4524	
0.206424	-0.67588	0.6466	24.5	5.25	-15.19	-0.1163	0.2999	-0.4434	
0.184952	-0.700524	0.650138	21.98	2.59	-14.98	-0.1223	0.2999	-0.4464	
0.185806	-0.715042	0.653188	21.7	2.94	-12.81	-0.1166	0.2911	-0.4535	
0.1891	-0.718702	0.666852	19.53	1.82	-11.13	-0.1271	0.2879	-0.455	
0.17995	-0.713334	0.647454	19.74	1.12	-9.17	-0.1182	0.2865	-0.4549	
0.183366	-0.699426	0.63257	18.48	1.89	-8.4	-0.1286	0.2832	-0.4534	
0.182146	-0.697962	0.622932	15.33	0.63	-7.91	-0.1259	0.2742	-0.456	
0.178852	-0.705282	0.607804	14.56	1.12	-8.05	-0.1258	0.2789	-0.4591	
0.177998	-0.71553	0.601216	13.3	1.19	-8.33	-0.1274	0.2759	-0.462	
0.16592	-0.72468	0.588772	13.23	1.05	-8.68	-0.1289	0.2727	-0.459	
0.15982	-0.72224	0.579012	14.84	2.24	-8.96	-0.1245	0.2731	-0.4679	
0.1647	-0.72956	0.57218	14	2.17	-8.82	-0.1292	0.2638	-0.4676	
0.166286	-0.739442	0.563518	14.21	2.31	-8.54	-0.1261	0.2667	-0.4602	
0.160308	-0.765672	0.563884	13.58	0.91	-8.47	-0.1201	0.2702	-0.4707	
0.14823	-0.789584	0.551196	13.86	-0.35	-8.26	-0.1218	0.2611	-0.4734	
0.15494	-0.806908	0.546072	14.77	-1.47	-7.7	-0.1233	0.2608	-0.466	
0.15494	-0.824842	0.548268	15.68	-3.01	-7.21	-0.1265	0.2521	-0.482	
0.141032	-0.820694	0.53375	19.67	-1.4	-7.28	-0.1279	0.2545	-0.4628	
0.135176	-0.815448	0.533872	20.65	-2.1	-7.07	-0.1296	0.2489	-0.479	
0.139568	-0.794708	0.527162	25.76	-1.82	-7.28	-0.1372	0.2409	-0.4728	
0.146278	-0.781166	0.530578	27.51	-2.31	-7.98	-0.1298	0.2365	-0.4727	
0.15067	-0.768844	0.542412	28.07	-2.73	-9.45	-0.1401	0.2408	-0.4699	
0.163724	-0.75213	0.5551	30.45	-1.61	-11.2	-0.1344	0.232	-0.4785	
0.163602	-0.752008	0.568764	30.73	-2.45	-12.81	-0.1285	0.2291	-0.4798	
0.153598	-0.750544	0.565226	32.97	-2.38	-13.93	-0.1392	0.2183	-0.4825	
0.159332	-0.750178	0.589748	33.53	-2.94	-14	-0.1362	0.223	-0.4856	
0.168726	-0.721996	0.57523	41.16	-9.66	-13.65	-0.1409	0.2139	-0.4898	
0.180438	-0.72041	0.607438	33.32	-8.68	-12.95	-0.1336	0.2047	-0.4835	
0.177388	-0.681736	0.604632	42.98	-2.52	-15.19	-0.1471	0.1998	-0.482	
0.187148	-0.666364	0.627324	37.73	-6.09	-14.56	-0.1429	0.1845	-0.4785	
0.19276	-0.647332	0.632936	41.93	-7.91	-15.05	-0.1502	0.1953	-0.4878	
0.20008	-0.627934	0.637694	43.26	-7.49	-15.89	-0.1461	0.1771	-0.4872	
0.210816	-0.61366	0.655384	45.5	-7	-16.94	-0.1478	0.1679	-0.4884	
0.216184	-0.596946	0.665998	46.13	-6.86	-17.43	-0.1464	0.1665	-0.4913	
0.224236	-0.584746	0.68137	46.62	-8.05	-18.06	-0.1525	0.1586	-0.4866	
0.247294	-0.565104	0.714676	48.23	-4.48	-18.76	-0.1452	0.1497	-0.4893	
0.256688	-0.528626	0.717604	49.84	-3.15	-18.27	-0.1587	0.1477	-0.509	
0.261812	-0.508862	0.719678	48.93	-3.29	-18.97	-0.1574	0.1356	-0.4859	
0.264252	-0.487878	0.740296	47.81	-2.03	-19.6	-0.1562	0.1265	-0.4886	
0.266204	-0.471164	0.74176	49.7	-1.75	-20.09	-0.1671	0.1065	-0.491	
0.25925	-0.440176	0.753594	49.28	-1.96	-20.16	-0.1623	0.1189	-0.4928	
0.264862	-0.416142	0.776164	47.18	-2.45	-19.88	-0.1656	0.1018	-0.4864	
0.286456	-0.40504	0.794098	44.52	-4.83	-19.67	-0.1657	0.099	-0.4922	
0.299876	-0.370636	0.801784	47.32	-3.92	-19.95	-0.1558	0.0763	-0.4929	
0.311344	-0.347822	0.813862	44.38	-5.04	-20.44	-0.1619	0.07009999	-0.4942	
0.309636	-0.3355	0.82594	44.73	-5.04	-21	-0.1679	0.0684	-0.4913	
0.315004	-0.324642	0.843142	42.91	-4.13	-20.93	-0.1695	0.0653	-0.4912	
0.328058	-0.316834	0.852414	42.98	-4.69	-20.79	-0.1666	0.0591	-0.4865	
0.329766	-0.294142	0.859856	44.59	-3.36	-20.51	-0.1625	0.0393	-0.5114	
0.341234	-0.279624	0.87535	42.7	-3.36	-19.74	-0.167	0.0391	-0.4829	
0.350384	-0.249368	0.88145	43.61	-1.89	-19.39	-0.1718	0.0254	-0.4613	
0.35441	-0.222406	0.887428	44.52	0.07	-18.83	-0.1676	0.0115	-0.5032	
0.355386	-0.21472	0.891332	43.26	1.12	-18.48	-0.1691	0.0101	-0.4835	
0.346968	-0.20435	0.898652	44.24	2.17	-17.92	-0.1767	0.0036	-0.4759	
0.353312	-0.189588	0.903288	39.41	0	-15.82	-0.168	-0.0102	-0.4665	
0.36356	-0.149206	0.90585	45.29	-4.06	-15.12	-0.1697	-0.0176	-0.4752	
0.355142	-0.15372	0.944524	34.02	3.22	-15.05	-0.1608	-0.0188	-0.4765	
0.371124	-0.132126	0.939156	35.7	3.85	-13.37	-0.1727	-0.0207	-0.4736	
0.365756	-0.140666	0.96441	30.66	2.66	-13.02	-0.1686	-0.0358	-0.476	
0.36722	-0.137372	0.967338	31.01	2.38	-12.04	-0.1625	-0.0328	-0.4716	
0.361242	-0.13237	0.976366	28.35	1.68	-10.57	-0.1625	-0.0344	-0.4686	
0.369782	-0.119682	0.973804	26.11	0.98	-8.82	-0.1688	-0.045	-0.4743	
0.375394	-0.113216	0.966972	21.56	-1.12	-7.42	-0.1628	-0.0449	-0.4742	
0.383568	-0.110776	0.972706	18.41	-3.64	-6.86	-0.1718	-0.0484	-0.4682	
0.381128	-0.113338	0.965264	16.66	-4.06	-6.3	-0.1584	-0.0498	-0.4622	
0.379664	-0.115046	0.957578	14.84	-5.11	-5.6	-0.1659	-0.0544	-0.465	
0.37942	-0.118462	0.951722	13.58	-5.95	-4.97	-0.1572	-0.0634	-0.4647	
0.378688	-0.121634	0.93635	11.83	-5.74	-4.34	-0.1722	-0.07	-0.4601	
0.388448	-0.101504	0.95892	9.66	-3.85	-3.57	-0.1663	-0.068	-0.4705	
0.394548	-0.06466	0.957578	8.89	-1.89	-3.01	-0.1604	-0.0708	-0.4734	
0.389302	-0.051606	0.955992	6.44	-3.57	-2.87	-0.1723	-0.0714	-0.4631	
0.391132	-0.049166	0.961726	3.85	-4.69	-2.59	-0.1708	-0.07449999	-0.4629	
0.391498	-0.045994	0.955626	2.45	-5.04	-2.66	-0.1707	-0.0698	-0.4661	
0.389302	-0.048922	0.953186	-0.21	-5.11	-2.59	-0.175	-0.0625	-0.4574	
0.39162	-0.054046	0.95221	-3.22	-5.04	-2.17	-0.1708	-0.0729	-0.4645	
0.390156	-0.058194	0.946964	-4.97	-4.55	-1.61	-0.1737	-0.0651	-0.4707	
0.391132	-0.06588	0.949404	-7.84	-3.99	-0.7	-0.1632	-0.0667	-0.4617	
0.393572	-0.069052	0.948428	-9.17	-3.43	0.07	-0.1695	-0.0805	-0.4642	
0.393206	-0.075762	0.952698	-11.55	-2.66	1.12	-0.1691	-0.0653	-0.4617	
0.390888	-0.084058	0.95648	-13.51	-2.66	2.52	-0.1735	-0.0593	-0.462	
0.388448	-0.088084	0.955626	-15.47	-1.33	3.57	-0.1719	-0.0544	-0.4695	
0.384666	-0.091012	0.949526	-17.99	-1.68	5.11	-0.1764	-0.0548	-0.4621	
0.379542	-0.0976	0.951722	-20.37	-1.19	6.02	-0.16	-0.0526	-0.471	
0.384056	-0.09467199	0.946964	-22.61	-0.98	7.63	-0.172	-0.0576	-0.465	
0.387716	-0.100284	0.944524	-25.34	-1.47	8.33	-0.1719	-0.0529	-0.4696	
0.386496	-0.11102	0.940986	-28.14	-1.61	9.38	-0.1688	-0.0484	-0.4638	
0.384422	-0.117486	0.934886	-30.31	-1.12	10.15	-0.1671	-0.0407	-0.4655	
0.390888	-0.132004	0.926468	-33.32	-1.26	10.85	-0.1746	-0.0424	-0.4655	
0.390888	-0.154818	0.92293	-35.91	-1.96	11.41	-0.1714	-0.0315	-0.4718	
0.38247	-0.167994	0.913048	-36.54	-1.54	11.83	-0.1787	-0.0239	-0.4735	
0.377712	-0.183488	0.905118	-38.43	-1.4	12.18	-0.1785	-0.01	-0.4784	
0.377834	-0.195688	0.892796	-39.62	-1.75	12.39	-0.1711	-0.013	-0.4753	
0.379542	-0.215086	0.894016	-42.56	-1.26	12.6	-0.1738	-0.0039	-0.4756	
0.381372	-0.2318	0.885964	-43.68	-0.63	12.95	-0.1768	-0.0022	-0.4816	
0.379542	-0.2501	0.876692	-44.59	-0.56	13.09	-0.1783	0.0024	-0.4877	
0.374784	-0.262178	0.869982	-45.85	-0.28	13.51	-0.1781	0.0066	-0.4775	
0.376248	-0.279624	0.867176	-49	0.28	14.56	-0.1793	0.0221	-0.4854	
0.366366	-0.303292	0.850828	-51.03	1.19	15.4	-0.1701	0.0348	-0.4917	
0.359046	-0.321226	0.836188	-52.43	1.19	16.17	-0.18	0.0573	-0.4865	
0.351726	-0.347334	0.827526	-54.95	0.98	17.08	-0.1754	0.0617	-0.4777	
0.344284	-0.359778	0.81313	-55.23	0.7	17.85	-0.1783	0.0713	-0.4944	
0.334646	-0.378078	0.793244	-55.65	0.77	18.27	-0.1781	0.0787	-0.4887	
0.333426	-0.401502	0.783362	-57.54	-0.21	19.04	-0.1749	0.0848	-0.4844	
0.331718	-0.426756	0.773358	-58.1	-0.77	20.09	-0.1778	0.0924	-0.4847	
0.320494	-0.450302	0.753106	-57.12	-1.68	20.44	-0.1837	0.0971	-0.4923	
0.309758	-0.470554	0.732122	-56.7	-1.68	20.72	-0.1747	0.0955	-0.4862	
0.30866	-0.494954	0.724192	-56.91	-1.68	21.14	-0.1727	0.1199	-0.4826	
0.30439	-0.510082	0.713456	-56.21	-1.05	21.07	-0.1665	0.1293	-0.4858	
0.300974	-0.518866	0.693814	-54.46	-0.49	21.07	-0.1662	0.1445	-0.4848	
0.2928	-0.540216	0.681126	-54.95	-1.75	21.14	-0.1706	0.1474	-0.4819	
0.28304	-0.56669	0.666486	-55.23	-2.52	21	-0.163	0.1506	-0.482	
0.281576	-0.590846	0.658068	-54.81	-2.1	20.86	-0.1551	0.1719	-0.4752	
0.286212	-0.608048	0.64782	-53.9	0.14	20.72	-0.1773	0.1807	-0.4786	
0.273036	-0.615124	0.62403	-54.6	0.63	20.65	-0.1681	0.1867	-0.4683	
0.26291	-0.634278	0.60268	-53.69	0.63	20.3	-0.1665	0.1913	-0.4685	
0.258152	-0.653798	0.596702	-54.95	1.75	20.23	-0.1709	0.1992	-0.4792	
0.254126	-0.66612	0.585722	-54.53	3.92	20.37	-0.1573	0.2038	-0.4718	
0.247294	-0.671244	0.575108	-54.39	4.76	20.72	-0.1674	0.2188	-0.4709	
0.247782	-0.688446	0.566446	-54.74	3.71	21.14	-0.1584	0.2219	-0.465	
0.24095	-0.723704	0.549488	-54.53	1.4	20.79	-0.1582	0.2295	-0.4637	
0.219844	-0.755424	0.534482	-54.46	-1.47	20.51	-0.1566	0.2389	-0.4699	
0.215208	-0.77348	0.507032	-51.87	-1.33	21	-0.1606	0.252	-0.4541	
0.209718	-0.794342	0.482022	-49.91	-1.26	21.42	-0.1637	0.2523	-0.4645	
0.198982	-0.815448	0.455182	-47.53	-1.75	21.77	-0.1514	0.2626	-0.4469	
0.19459	-0.835822	0.439322	-43.47	-1.12	21.35	-0.1543	0.2707	-0.462	
0.181292	-0.846314	0.431758	-40.46	-0.28	19.74	-0.151	0.2812	-0.4535	
0.179706	-0.847046	0.412238	-37.59	0	18.83	-0.1418	0.2903	-0.4448	
0.168848	-0.847778	0.399306	-35.35	-0.28	17.99	-0.1403	0.2915	-0.4344	
0.163236	-0.880962	0.385642	-33.11	-1.19	16.87	-0.1371	0.3007	-0.4347	
0.151646	-0.886086	0.383202	-30.1	-0.7	15.82	-0.1369	0.3068	-0.4334	
0.160918	-0.890356	0.382714	-26.81	0.35	14.42	-0.1427	0.3192	-0.4442	
0.1586	-0.914024	0.377224	-27.16	-0.49	12.88	-0.1411	0.3189	-0.4594	
0.14945	-0.91988	0.371002	-23.17	1.61	11.2	-0.1381	0.3204	-0.4294	
0.150792	-0.904142	0.369782	-21.28	1.89	11.2	-0.1396	0.3204	-0.4309	
0.147742	-0.8967	0.366122	-18.76	3.15	11.2	-0.1336	0.3219	-0.4264	
0.145058	-0.904508	0.364292	-19.11	2.94	11.13	-0.1318	0.3326	-0.4253	
0.147742	-0.906216	0.366366	-15.96	3.5	9.94	-0.1275	0.3266	-0.4251	
0.140544	-0.90585	0.366	-14.77	2.87	8.89	-0.1315	0.3446	-0.4183	
0.135298	-0.903044	0.369416	-13.3	2.94	8.4	-0.1272	0.3402	-0.4211	
0.1342	-0.901214	0.370636	-12.39	2.31	7.91	-0.1287	0.34	-0.4181	
0.1281	-0.897188	0.36905	-10.64	2.52	7.49	-0.1241	0.345	-0.4256	
0.131272	-0.898286	0.377956	-9.87	3.15	7.42	-0.1151	0.3482	-0.4242	
0.139202	-0.897188	0.391132	-9.38	3.22	7.28	-0.1256	0.3446	-0.4167	
0.142252	-0.894748	0.39589	-8.96	3.78	6.93	-0.1285	0.351	-0.4259	
0.134078	-0.883768	0.404674	-8.96	3.5	6.72	-0.115	0.3495	-0.4198	
0.130296	-0.864492	0.40382	-8.54	3.92	7.07	-0.1181	0.3463	-0.4167	
0.137738	-0.849852	0.415044	-9.52	3.5	7.63	-0.1135	0.3526	-0.4184	
0.148352	-0.838506	0.420168	-11.13	3.85	7.84	-0.1121	0.3496	-0.4198	
0.160064	-0.828868	0.42883	-13.3	4.06	7.91	-0.103	0.3526	-0.4124	
0.159942	-0.836554	0.436272	-16.1	4.48	7.84	-0.1193	0.3604	-0.4276	
0.159942	-0.840214	0.437614	-18.48	4.62	8.19	-0.1103	0.3586	-0.4126	
0.158234	-0.838018	0.429318	-20.86	3.78	9.1	-0.1073	0.3584	-0.4067	
0.159454	-0.835944	0.421632	-22.4	4.27	9.8	-0.1044	0.3572	-0.414	
0.15921	-0.838384	0.407724	-24.22	3.92	10.36	-0.1161	0.3692	-0.416	
0.155428	-0.838018	0.40077	-26.04	4.97	10.71	-0.1043	0.36	-0.4052	
0.150304	-0.830698	0.39589	-27.44	5.88	10.99	-0.1086	0.3677	-0.4099	
0.14762	-0.835944	0.39162	-29.05	6.3	11.13	-0.1025	0.3736	-0.4012	
0.138958	-0.842654	0.372344	-30.31	6.23	11.06	-0.095	0.3739	-0.4041	
0.134688	-0.844606	0.370026	-30.59	6.23	10.85	-0.1038	0.3814	-0.4059	
0.12139	-0.834114	0.360266	-30.94	7.63	10.78	-0.0857	0.3908	-0.4001	
0.105042	-0.82228	0.329156	-35.28	7.91	12.18	-0.0812	0.3876	-0.3926	
0.092598	-0.828014	0.301096	-38.78	6.3	12.81	-0.0913	0.4023	-0.3827	
0.070394	-0.852536	0.27267	-42.7	3.43	13.16	-0.0928	0.4023	-0.3857	
0.055632	-0.900116	0.254858	-46.06	-0.35	13.23	-0.0851	0.4114	-0.377	
0.046116	-0.93452	0.239852	-45.92	-3.15	12.6	-0.0777	0.4037	-0.3693	
0.039772	-0.96807	0.237168	-45.08	-3.92	11.48	-0.0761	0.4114	-0.3725	
0.056364	-0.970388	0.228262	-41.65	-2.1	10.29	-0.0757	0.4299	-0.3776	
0.077104	-0.984418	0.23546	-39.69	-1.19	8.26	-0.0844	0.4336	-0.3555	
0.073566	-0.973316	0.216184	-37.17	-0.42	6.23	-0.0679	0.4401	-0.3571	
0.05978	-0.976732	0.189222	-37.94	-0.35	5.39	-0.0756	0.4243	-0.3462	
0.048434	-0.983686	0.163114	-41.72	-2.1	6.23	-0.0755	0.4303	-0.342	
0.03416	-0.968192	0.134444	-43.05	-2.38	7.63	-0.0693	0.4428	-0.3468	
0.030012	-0.959164	0.107848	-42.14	-0.91	8.54	-0.0736	0.4471	-0.341	
0.01952	-0.95953	0.082716	-42.7	1.54	8.68	-0.0721	0.4436	-0.326	
0.016348	-0.95465	0.070028	-44.03	-1.75	8.33	-0.0702	0.4587	-0.3206	
-0.002074	-0.9699	0.024156	-43.54	0.14	7.84	-0.0642	0.4635	-0.3222	
0.002928	-0.959286	0.002562	-42.77	-1.68	6.65	-0.0658	0.4572	-0.319	
-0.014152	-0.982344	-0.02623	-44.17	-5.46	4.83	-0.0596	0.4663	-0.3118	
-0.014762	-1.019676	-0.02684	-43.54	-8.26	4.34	-0.0625	0.4692	-0.3105	
-0.014518	-1.02846	-0.020618	-38.5	-8.75	2.94	-0.064	0.4626	-0.2954	
-0.007076	-1.028338	-0.03233	-36.68	-9.8	1.4	-0.0682	0.4747	-0.2959	
-0.000976	-1.03212	-0.051118	-34.72	-7.77	0.7	-0.0669	0.467	-0.2911	
0.008784	-1.024312	-0.058804	-30.59	-6.93	-0.49	-0.0708	0.4895	-0.2845	
0.017568	-1.015406	-0.047702	-30.03	-5.39	-1.12	-0.0681	0.4774	-0.2855	
0.070516	-0.98027	-0.059536	-27.51	-0.49	-0.84	-0.0649	0.4864	-0.2769	
-0.034404	-1.079578	0.005734	-21.49	57.05	-11.69	-0.0635	0.4801	-0.2708	
0.019154	-0.965752	-0.096624	-5.74	34.02	-8.19	-0.0694	0.4797	-0.2634	
0.010004	-1.002108	-0.07076	-37.38	-8.33	3.15	-0.0695	0.4786	-0.2752	
0.029036	-0.962824	-0.07564	-21.77	0.42	2.17	-0.06659999	0.4756	-0.2751	
0.020008	-0.955992	-0.118218	-26.32	2.59	2.03	-0.0662	0.4887	-0.2562	
0.007442	-1.00223	-0.113826	-25.48	-0.84	1.33	-0.0689	0.4995	-0.261	
0.006832	-1.006622	-0.130174	-23.8	-0.28	0.98	-0.0601	0.4902	-0.2503	
0.00183	-1.02236	-0.141764	-22.05	-0.35	0.84	-0.0571	0.492	-0.2563	
0.00061	-1.021628	-0.13725	-15.47	-0.28	0.21	-0.0704	0.4961	-0.2761	
0.002074	-1.01748	-0.131394	-14.56	-0.56	0.28	-0.0616	0.4935	-0.2593	
-0.00427	-1.011136	-0.15067	-14.28	-0.42	0.98	-0.0628	0.5022	-0.2462	
0.0061	-1.026508	-0.160186	-14.42	-3.5	1.96	-0.0632	0.487	-0.2502	
0.002196	-1.030412	-0.148962	-11.9	-5.81	2.03	-0.0691	0.4849	-0.2338	
0.002684	-1.022726	-0.160796	-8.75	-5.46	1.89	-0.0598	0.5006	-0.2432	
0.012322	-0.997716	-0.15799	-4.9	-4.41	2.52	-0.0584	0.4993	-0.2491	
0.010614	-0.988688	-0.158234	-5.25	-5.67	2.17	-0.0703	0.4956	-0.2357	
-0.006466	-1.01077	-0.164944	-7.07	-8.4	2.17	-0.0659	0.4927	-0.237	
-0.017812	-1.02175	-0.162382	-8.19	-11.27	3.22	-0.0674	0.4956	-0.2357	
-0.01159	-1.00833	-0.157868	-2.66	-9.94	3.92	-0.0642	0.5033	-0.2359	
-0.001342	-0.98576	-0.159088	-3.15	-12.04	4.41	-0.0569	0.5006	-0.2417	
0.014152	-0.977952	-0.176778	-3.92	-11.06	4.62	-0.0567	0.505	-0.2344	
0.010248	-0.995886	-0.181536	-7.21	-14.49	4.2	-0.0613	0.4986	-0.2298	
0.006466	-0.994056	-0.17995	-6.23	-13.58	4.48	-0.0537	0.5048	-0.227	
0.006832	-0.998936	-0.18544	-6.93	-11.55	5.04	-0.0568	0.4969	-0.2208	
0.000244	-0.99674	-0.194346	-7.28	-10.57	5.46	-0.0553	0.5001	-0.2253	
-0.002684	-0.99308	-0.204472	-8.19	-10.99	5.6	-0.0628	0.4954	-0.2267	
0.016836	-1.005646	-0.207522	-8.33	-9.59	5.88	-0.0582	0.5016	-0.2239	
0.012688	-0.97478	-0.203984	-3.22	-6.23	4.13	-0.0584	0.4908	-0.2221	
-0.00976	-1.001132	-0.210938	-6.16	-5.67	3.43	-0.0598	0.4985	-0.2238	
-0.002806	-1.022116	-0.205326	-3.64	-5.6	3.29	-0.06	0.491	-0.228	
-0.00854	-0.99186	-0.199226	-0.28	-3.92	2.38	-0.0599	0.4939	-0.2237	
-0.015128	-0.995764	-0.21838	-3.08	-3.78	2.66	-0.0643	0.4985	-0.2283	
-0.0122	-1.018334	-0.214964	-2.24	-5.74	2.45	-0.0597	0.4999	-0.2224	
-0.007198	-1.030168	-0.193126	-0.28	-6.79	2.03	-0.055	0.5091	-0.2182	
-0.014518	-1.018578	-0.191906	3.36	-3.78	1.61	-0.0612	0.5	-0.2254	
-0.01464	-1.012234	-0.202032	4.34	-3.01	1.33	-0.0552	0.5031	-0.2225	
-0.015494	-1.010404	-0.211304	5.46	-2.73	0.84	-0.061	0.5042	-0.2122	
-0.017934	-1.02358	-0.202154	8.54	-3.29	-0.49	-0.0596	0.5062	-0.2256	
-0.019032	-1.014186	-0.198982	11.76	-2.1	-1.54	-0.06879999	0.4953	-0.2253	
-0.006832	-1.022482	-0.193492	12.46	-2.73	-2.45	-0.0626	0.5077	-0.2271	
-0.01159	-1.026874	-0.192394	15.33	-0.35	-3.01	-0.0568	0.5002	-0.2268	
-0.008784	-1.029314	-0.19337	16.73	-0.35	-3.15	-0.0645	0.4863	-0.2294	
0.010858	-1.02175	-0.172508	19.81	-1.12	-3.5	-0.0583	0.4986	-0.2283	
0.00488	-1.022726	-0.151524	21.63	2.66	-3.99	-0.0703	0.4939	-0.2327	
-0.007564	-1.014796	-0.157502	22.33	5.53	-4.13	-0.0628	0.4973	-0.2357	
-0.014762	-1.015894	-0.162016	22.4	5.39	-4.27	-0.0601	0.4884	-0.2443	
-0.014518	-1.012478	-0.152988	23.52	3.99	-4.62	-0.0584	0.4993	-0.2476	
-0.019032	-1.007476	-0.139934	25.55	4.55	-5.46	-0.0734	0.4943	-0.2461	
-0.01891	-1.003816	-0.136152	25.55	4.62	-6.02	-0.0703	0.5006	-0.2507	
-0.015006	-1.023702	-0.132614	23.73	3.01	-6.09	-0.0632	0.4904	-0.2607	
-0.014152	-1.020652	-0.124928	26.6	1.54	-6.02	-0.0634	0.4829	-0.2634	
-0.003782	-1.00345	-0.106994	30.03	0.91	-6.23	-0.07229999	0.4827	-0.262	
0.009638	-1.017968	-0.086132	28.49	0.63	-6.44	-0.0678	0.4811	-0.2575	
0.005978	-1.031876	-0.077226	28.98	1.12	-7.28	-0.074	0.4755	-0.2766	
0.008662	-1.024556	-0.066002	32.48	3.5	-7.77	-0.0649	0.4864	-0.2784	
0.011346	-1.016138	-0.049288	33.88	3.43	-8.12	-0.0711	0.4726	-0.2795	
0.012444	-1.007232	-0.032086	34.44	2.73	-7.98	-0.0711	0.4774	-0.2871	
0.014884	-1.00772	-0.022814	32.55	2.38	-7.91	-0.0727	0.4745	-0.2914	
0.020252	-1.009184	-0.015128	33.11	3.08	-7.84	-0.0802	0.4712	-0.2899	
0.015982	-1.008574	-0.008052	34.37	3.57	-7.98	-0.0774	0.4653	-0.2941	
0.005368	-1.013088	-0.000244	34.58	4.62	-7.7	-0.07449999	0.4691	-0.3165	
0.001708	-0.994544	0.017812	37.31	4.13	-7.14	-0.0775	0.4609	-0.3014	
0.003172	-0.979904	0.05124	39.13	1.89	-7.07	-0.0881	0.4565	-0.3132	
0.007076	-0.981368	0.069296	36.12	0.91	-6.86	-0.0836	0.4566	-0.3117	
0.011956	-0.963068	0.08052	37.1	0.07	-6.86	-0.079	0.4646	-0.3193	
0.013786	-0.960262	0.091256	38.64	-0.7	-6.65	-0.0792	0.4585	-0.3221	
0.022692	-0.969656	0.100284	31.78	-4.62	-6.3	-0.0795	0.4434	-0.3246	
0.043432	-0.966484	0.110898	34.3	-4.48	-7.14	-0.0825	0.4498	-0.3367	
0.05429	-0.96685	0.127002	34.23	-2.59	-8.75	-0.0963	0.4329	-0.3422	
0.05978	-0.958066	0.13664	34.44	-2.03	-9.73	-0.0977	0.4307	-0.3243	
0.072468	-0.960872	0.142862	32.2	-0.07	-10.29	-0.0887	0.4391	-0.3409	
0.066002	-0.95038	0.144204	31.99	-0.56	-10.78	-0.0949	0.4267	-0.3405	
0.069906	-0.963922	0.149206	22.75	-3.15	-10.64	-0.09649999	0.4273	-0.3583	
0.060634	-0.95953	0.148718	25.76	0.28	-10.71	-0.09209999	0.4228	-0.3567	
0.056608	-0.950258	0.154086	23.17	0.77	-10.15	-0.0935	0.4274	-0.3583	
0.054046	-0.959042	0.16592	22.05	0.84	-10.08	-0.0968	0.4151	-0.3594	
0.050508	-0.981612	0.180438	20.65	-0.21	-10.57	-0.0938	0.4185	-0.3669	
0.051362	-0.98393	0.174582	22.12	-0.35	-10.78	-0.1012	0.4216	-0.3745	
0.06832	-0.980392	0.175802	23.52	0.14	-10.5	-0.1028	0.4151	-0.3639	
0.074786	-0.995886	0.205448	26.46	2.73	-11.2	-0.1033	0.3907	-0.3646	
0.091378	-0.986126	0.224114	28.56	3.08	-10.78	-0.1016	0.4082	-0.3845	
0.107238	-0.984174	0.24644	28.49	3.43	-10.64	-0.1031	0.405	-0.3799	
0.103212	-0.963922	0.254614	33.67	7.98	-11.34	-0.1048	0.399	-0.3857	
0.12017	-0.913292	0.277428	34.02	8.61	-10.64	-0.1035	0.3883	-0.3824	
0.130784	-0.887306	0.318664	34.58	8.33	-10.71	-0.1109	0.3943	-0.3871	
0.132736	-0.861564	0.319762	33.6	9.66	-9.66	-0.114	0.3898	-0.3914	
0.128588	-0.867664	0.335988	32.06	10.43	-9.31	-0.1082	0.3808	-0.3911	
0.122244	-0.874618	0.345382	29.4	8.12	-8.33	-0.1084	0.3783	-0.4073	
0.125294	-0.865468	0.360632	31.71	8.75	-8.12	-0.1171	0.3855	-0.4002	
0.143594	-0.849852	0.363072	32.34	7.21	-8.12	-0.1114	0.3752	-0.4087	
0.133468	-0.846192	0.367586	32.97	6.79	-8.96	-0.1114	0.3735	-0.4042	
0.129686	-0.829356	0.379054	30.59	3.5	-8.89	-0.1102	0.3679	-0.4174	
0.14884	-0.832284	0.428098	28.56	4.48	-8.75	-0.1117	0.3616	-0.4127	
0.163358	-0.821914	0.443226	32.69	7.42	-10.36	-0.1163	0.3602	-0.4201	
0.16592	-0.823866	0.42761	30.24	4.41	-11.48	-0.1043	0.3618	-0.4142	
0.174948	-0.834114	0.45079	31.43	5.39	-11.83	-0.1045	0.3562	-0.4288	
0.167018	-0.820694	0.475434	30.52	7.21	-11.69	-0.1034	0.3393	-0.4238	
0.166774	-0.795562	0.477508	28.63	7.07	-10.57	-0.1199	0.3344	-0.4268	
0.166408	-0.799832	0.473848	23.94	5.81	-9.1	-0.1034	0.3429	-0.4418	
0.16043	-0.805322	0.479948	21.21	5.04	-7.7	-0.1111	0.3319	-0.4385	
0.165066	-0.798978	0.488854	21.21	5.95	-7.49	-0.1096	0.3288	-0.4339	
0.163846	-0.783118	0.491416	19.67	6.72	-6.86	-0.1127	0.3259	-0.4413	
0.158112	-0.76738	0.49593	17.64	6.37	-6.02	-0.1112	0.3275	-0.4413	
0.159698	-0.773114	0.509838	14.7	6.58	-5.11	-0.1173	0.3244	-0.4457	
0.1586	-0.781654	0.512278	10.85	4.06	-3.64	-0.1159	0.3184	-0.447	
0.158478	-0.782508	0.514352	10.36	4.83	-3.36	-0.1069	0.3185	-0.444	
0.159698	-0.778726	0.519476	9.59	5.46	-3.08	-0.1131	0.3141	-0.4543	
0.1525	-0.788852	0.51789	7.98	4.55	-2.59	-0.11	0.3188	-0.4559	
0.150792	-0.801784	0.516426	6.3	4.9	-2.45	-0.1157	0.326	-0.4458	
0.149572	-0.799954	0.51362	6.72	5.53	-2.38	-0.1175	0.3152	-0.4439	
0.146888	-0.799588	0.513742	5.39	3.22	-2.1	-0.1175	0.3186	-0.4559	
0.150304	-0.80642	0.513864	4.13	2.1	-1.47	-0.107	0.3187	-0.4499	
0.152134	-0.82045	0.524722	2.8	2.24	-0.91	-0.1086	0.3109	-0.4452	
0.155428	-0.808982	0.52338	4.13	2.24	-0.35	-0.1027	0.311	-0.4467	
0.159332	-0.797392	0.517158	4.41	3.01	0.21	-0.1099	0.3233	-0.4545	
0.154452	-0.798612	0.5185	2.59	0.77	0.63	-0.1087	0.3129	-0.4616	
0.14945	-0.797636	0.519598	2.38	0.49	0.84	-0.1116	0.3127	-0.4557	
0.146522	-0.798124	0.51484	1.82	1.05	1.26	-0.1087	0.3111	-0.4526	
0.148962	-0.795806	0.514596	1.12	0.07	1.4	-0.1086	0.3141	-0.4498	
0.152378	-0.798734	0.514108	1.05	-0.49	0.98	-0.1056	0.3157	-0.4528	
0.154086	-0.803004	0.515694	1.05	-0.84	0.35	-0.1085	0.3154	-0.4454	
0.149938	-0.804346	0.51179	1.05	-2.59	0	-0.1013	0.3082	-0.451	
0.144692	-0.81252	0.510936	1.89	-3.36	-0.14	-0.1193	0.3049	-0.457	
0.141886	-0.813496	0.50752	2.45	-3.57	-0.07	-0.1163	0.3034	-0.4554	
0.148962	-0.812642	0.50935	2.59	-3.08	-0.14	-0.1044	0.302	-0.4508	
0.152988	-0.815936	0.51118	2.31	-3.15	-0.56	-0.1071	0.3142	-0.4542	
0.149816	-0.819718	0.510204	2.73	-2.59	-0.91	-0.1118	0.3035	-0.4569	
0.146278	-0.814228	0.509838	2.66	-2.03	-1.12	-0.1104	0.3004	-0.4538	
0.151524	-0.80703	0.51057	2.66	-1.47	-1.12	-0.1116	0.3124	-0.4483	
0.15189	-0.809958	0.511668	2.03	-1.61	-1.05	-0.1117	0.3114	-0.4631	
0.155428	-0.815326	0.509472	2.17	-0.56	-1.4	-0.11	0.3137	-0.4394	
0.151158	-0.812764	0.517646	1.33	0.07	-1.54	-0.1074	0.3037	-0.4583	
0.154818	-0.813008	0.509594	1.47	-0.14	-1.26	-0.1134	0.3021	-0.4613	
0.15616	-0.819474	0.502762	1.12	-1.19	-1.19	-0.1144	0.3234	-0.459	
0.157136	-0.840946	0.494344	0.77	-2.38	-1.47	-0.1163	0.3019	-0.4554	
0.159942	-0.834846	0.499956	2.8	0	-1.4	-0.1177	0.3063	-0.4511	
0.168116	-0.830942	0.506788	2.17	1.89	-0.42	-0.1133	0.305	-0.4554	
0.168848	-0.818254	0.509838	2.94	3.36	0.7	-0.1146	0.311	-0.4527	
0.18483	-0.8235	0.505324	1.96	1.61	1.54	-0.1119	0.302	-0.4568	
0.191662	-0.834358	0.504226	1.96	0.91	2.45	-0.1118	0.3036	-0.4584	
0.188734	-0.840702	0.497272	3.29	2.24	2.87	-0.1133	0.305	-0.4569	
0.192516	-0.844362	0.49959	3.64	3.92	3.71	-0.1136	0.2946	-0.464	
0.19886	-0.852536	0.502396	4.83	6.72	4.83	-0.1207	0.3078	-0.4526	
0.202276	-0.851316	0.502762	6.09	9.03	6.65	-0.1144	0.3236	-0.4664	
0.203496	-0.84302	0.509594	7.42	11.34	8.4	-0.1028	0.3052	-0.4539	
0.205326	-0.840824	0.510448	7.42	11.9	10.29	-0.1087	0.3081	-0.4555	
0.19764	-0.836798	0.506666	8.19	13.02	11.97	-0.1001	0.2978	-0.4611	
0.180438	-0.832284	0.509594	7.77	15.12	14	-0.0955	0.3025	-0.4597	
0.16897	-0.827038	0.513376	7.14	16.66	15.05	-0.0895	0.3059	-0.4657	
0.16043	-0.821304	0.51484	7.42	17.64	16.45	-0.0881	0.2997	-0.464	
0.150792	-0.821304	0.51606	7.56	17.92	17.92	-0.0852	0.2951	-0.4609	
0.138836	-0.829478	0.520086	7.84	18.06	19.04	-0.0835	0.3076	-0.4672	
0.123708	-0.839848	0.518012	9.17	18.34	20.23	-0.0791	0.3047	-0.4686	
0.105286	-0.83265	0.526918	11.2	20.51	21.56	-0.0731	0.3063	-0.4671	
0.086498	-0.837774	0.528626	12.74	22.12	22.96	-0.0641	0.3047	-0.461	
0.072102	-0.835944	0.539118	14.07	22.26	25.06	-0.0627	0.3067	-0.473	
0.062342	-0.814472	0.543022	16.73	24.22	26.39	-0.0627	0.3035	-0.4684	
0.04209	-0.814228	0.550708	16.59	25.2	27.44	-0.0525	0.2946	-0.471	
0.01952	-0.81618	0.563762	17.08	25.83	28.63	-0.0435	0.2998	-0.483	
0.01281	-0.806664	0.567666	17.85	26.88	30.87	-0.033	0.3032	-0.4845	
0.006344	-0.800808	0.565714	17.57	27.58	33.32	-0.0334	0.2879	-0.484	
-0.02013	-0.797758	0.562664	17.5	28.84	34.79	-0.0272	0.299	-0.4918	
-0.050264	-0.776042	0.563274	19.46	30.24	35.07	-0.0185	0.2868	-0.4869	
-0.07625	-0.762378	0.574498	19.74	29.19	35.21	0.0054	0.2951	-0.4914	
-0.087474	-0.751276	0.585844	17.29	29.4	35.07	-0.0051	0.2888	-0.4928	
-0.090036	-0.744078	0.582794	18.2	28.14	34.09	-0.007999999	0.2884	-0.4824	
-0.112728	-0.747372	0.58072	18.27	25.97	32.55	0.0096	0.2844	-0.4881	
-0.149084	-0.750056	0.585112	19.11	26.11	31.29	0.0156	0.2863	-0.4955	
-0.174826	-0.732488	0.59841	19.53	27.16	30.31	0.0141	0.2864	-0.5	
-0.18178	-0.717238	0.60817	18.55	25.9	29.68	0.0199	0.2786	-0.4893	
-0.20069	-0.709918	0.610854	15.61	23.66	28.7	0.0393	0.2825	-0.5027	
-0.221796	-0.701622	0.620614	14.21	21.56	27.3	0.0362	0.2729	-0.4905	
-0.242658	-0.69845	0.624884	12.18	19.25	24.57	0.0466	0.2782	-0.5054	
-0.245586	-0.682346	0.622078	10.85	16.8	22.4	0.0481	0.2735	-0.5008	
-0.234728	-0.677954	0.632082	8.47	16.38	20.86	0.0449	0.2674	-0.5036	
-0.220576	-0.660874	0.633302	8.61	19.04	19.81	0.0495	0.2737	-0.5053	
-0.214964	-0.682834	0.629154	6.02	18.76	18.83	0.0555	0.2723	-0.5052	
-0.224968	-0.690154	0.598776	10.64	20.86	15.96	0.0718	0.2727	-0.5066	
-0.224358	-0.706502	0.585844	13.02	21.56	15.89	0.0747	0.2649	-0.5004	
-0.243756	-0.708942	0.596092	15.19	23.73	16.17	0.0716	0.2603	-0.5017	
-0.281698	-0.726144	0.616344	20.09	24.78	15.75	0.0851	0.262	-0.4987	
-0.33916	-0.729316	0.648918	22.96	27.79	16.94	0.0966	0.2459	-0.51	
-0.354044	-0.723582	0.65087	23.94	22.96	18.2	0.0953	0.2565	-0.5103	
-0.341844	-0.680516	0.653066	21.35	18.69	18.97	0.0979	0.2415	-0.5143	
-0.35746	-0.657336	0.657092	16.66	16.38	19.18	0.0907	0.247	-0.5282	
-0.376736	-0.637694	0.650992	12.04	13.58	20.65	0.1039	0.2384	-0.5097	
-0.363316	-0.61488	0.636596	10.43	14.63	20.37	0.1041	0.2508	-0.516	
-0.350506	-0.616344	0.625372	8.26	14.14	18.62	0.1144	0.2447	-0.5098	
-0.347212	-0.625128	0.625982	8.4	14.56	16.17	0.1128	0.2403	-0.5142	
-0.355752	-0.635986	0.611464	8.82	11.55	14	0.1144	0.2416	-0.5082	
-0.338794	-0.646234	0.603412	11.13	11.34	13.16	0.1144	0.2433	-0.5128	
-0.32818	-0.647088	0.599508	14.35	12.95	12.6	0.1219	0.2416	-0.5037	
-0.333792	-0.662704	0.602314	16.59	14.21	12.81	0.1231	0.2328	-0.5109	
-0.3599	-0.661728	0.60451	22.75	17.57	13.44	0.1155	0.2265	-0.5107	
-0.377956	-0.656116	0.624274	27.02	19.53	15.33	0.1303	0.2207	-0.5119	
-0.373076	-0.646844	0.639646	30.1	18.48	16.94	0.1286	0.2131	-0.5132	
-0.386008	-0.63806	0.651968	31.85	19.39	18.13	0.1377	0.2178	-0.5103	
-0.401868	-0.62891	0.645624	31.71	17.08	20.09	0.1406	0.2164	-0.5132	
-0.415654	-0.61366	0.653676	32.27	16.03	22.12	0.1389	0.2106	-0.5234	
-0.407236	-0.573522	0.683566	31.29	17.5	23.1	0.1462	0.1999	-0.5171	
-0.417484	-0.5429	0.69967	29.96	18.2	22.26	0.1478	0.2077	-0.5218	
-0.431392	-0.527894	0.712236	27.65	17.64	21.14	0.1594	0.1877	-0.5333	
-0.456768	-0.519232	0.716994	26.04	15.68	18.9	0.1607	0.1834	-0.5164	
-0.473726	-0.500078	0.709918	24.29	15.89	17.01	0.1683	0.1849	-0.509	
-0.48617	-0.490196	0.701866	22.96	16.52	14.7	0.1711	0.1791	-0.5162	
-0.487634	-0.484584	0.707234	19.95	15.33	12.67	0.1636	0.1789	-0.5163	
-0.49654	-0.474702	0.699304	18.69	13.58	10.92	0.1648	0.1653	-0.5188	
-0.501908	-0.46543	0.69845	17.22	13.23	9.66	0.1692	0.1638	-0.5187	
-0.510326	-0.455792	0.706258	14.84	12.81	7.77	0.1769	0.1699	-0.5129	
-0.518622	-0.45079	0.70089	13.58	11.06	7.21	0.1854	0.1551	-0.5198	
-0.506788	-0.444324	0.705404	12.04	10.57	6.58	0.1898	0.1521	-0.5182	
-0.511058	-0.440542	0.703818	11.27	10.57	5.74	0.178	0.1563	-0.5155	
-0.530212	-0.43432	0.711016	10.85	10.78	5.67	0.1884	0.1533	-0.5108	
-0.535092	-0.431514	0.696742	9.38	8.4	6.51	0.1855	0.1579	-0.514	
-0.538386	-0.439932	0.703086	7	9.66	7.49	0.1914	0.1518	-0.5093	
-0.549122	-0.435052	0.71553	7.84	9.24	7.14	0.1912	0.1428	-0.5135	
-0.550708	-0.419802	0.717848	6.79	7.49	7.7	0.1911	0.1398	-0.5163	
-0.549122	-0.423096	0.716018	4.83	4.69	8.47	0.1971	0.143	-0.5149	
-0.558394	-0.428342	0.715042	3.01	3.01	8.68	0.1912	0.1458	-0.5106	
-0.560956	-0.42944	0.70943	1.96	2.1	8.89	0.2017	0.1476	-0.512	
-0.561932	-0.42578	0.700524	0.84	0.84	8.4	0.1971	0.1414	-0.5149	
-0.575352	-0.42822	0.695156	-0.35	-0.21	7.7	0.1972	0.1476	-0.5165	
-0.590114	-0.432612	0.6954	-1.05	-1.54	6.44	0.1957	0.1474	-0.5106	
-0.577304	-0.432124	0.690276	-1.47	-2.73	5.18	0.197	0.14	-0.5163	
-0.5673	-0.413702	0.691862	-2.66	-3.85	3.36	0.1912	0.1475	-0.5166	
-0.565958	-0.418338	0.695522	-3.78	-4.69	2.03	0.1972	0.146	-0.5135	
-0.560834	-0.41785	0.698572	-3.92	-5.18	0.42	0.1957	0.1476	-0.5165	
-0.555954	-0.413946	0.699182	-4.55	-4.76	-0.91	0.1927	0.1459	-0.515	
-0.554246	-0.413824	0.703208	-4.9	-5.32	-2.59	0.1882	0.1442	-0.5105	
-0.557906	-0.41053	0.705038	-5.67	-5.95	-4.27	0.1897	0.1459	-0.5165	
-0.571326	-0.418216	0.706868	-6.58	-6.16	-6.23	0.1915	0.1581	-0.5154	
-0.571448	-0.41907	0.703086	-6.93	-7.63	-7.98	0.1897	0.1458	-0.5136	
-0.574864	-0.435052	0.700036	-8.47	-9.24	-8.89	0.1839	0.1519	-0.5182	
-0.56791	-0.430294	0.696498	-7.35	-9.31	-9.94	0.1823	0.1471	-0.5107	
-0.559736	-0.431026	0.69845	-8.4	-10.01	-11.06	0.1885	0.1565	-0.5139	
-0.55998	-0.427976	0.705526	-9.1	-10.15	-12.46	0.1825	0.1563	-0.5125	
-0.556564	-0.436516	0.71187	-10.57	-11.62	-13.93	0.1766	0.1626	-0.5216	
-0.56425	-0.44469	0.705282	-11.76	-14.28	-15.54	0.1736	0.1611	-0.5245	
-0.561322	-0.446642	0.705038	-13.02	-15.05	-16.94	0.1693	0.1652	-0.5128	
-0.546804	-0.453962	0.71309	-17.08	-15.89	-19.32	0.1767	0.1641	-0.5202	
-0.543998	-0.468724	0.705892	-18.76	-17.57	-21.28	0.165	0.1729	-0.5176	
-0.520818	-0.46787	0.70577	-20.3	-18.55	-22.61	0.1531	0.1725	-0.5132	
-0.509838	-0.47397	0.708332	-23.1	-18.55	-24.43	0.1563	0.1815	-0.509	
-0.503494	-0.476776	0.705282	-24.92	-19.53	-26.04	0.1551	0.1968	-0.511	
-0.48007	-0.479216	0.701378	-27.09	-20.44	-27.51	0.1431	0.1968	-0.517	
-0.455792	-0.487756	0.698206	-29.4	-21.07	-29.19	0.1432	0.1979	-0.5052	
-0.445178	-0.498614	0.693448	-30.8	-21.84	-31.01	0.1404	0.2074	-0.5174	
-0.44042	-0.525088	0.681126	-32.83	-26.18	-32.27	0.1328	0.2026	-0.5143	
-0.421388	-0.541802	0.677222	-32.97	-25.55	-33.74	0.1315	0.2088	-0.5204	
-0.400648	-0.560346	0.668316	-33.81	-26.11	-35.14	0.1226	0.213	-0.5147	
-0.383568	-0.578768	0.656848	-33.81	-27.58	-36.19	0.1228	0.2205	-0.509	
-0.37027	-0.59963	0.649772	-34.44	-27.3	-37.03	0.111	0.2265	-0.5152	
-0.356118	-0.620614	0.645624	-35	-27.79	-37.73	0.1067	0.2305	-0.499	
-0.34343	-0.630008	0.637328	-34.51	-27.09	-38.08	0.1053	0.237	-0.5126	
-0.324032	-0.638792	0.614026	-34.44	-28.7	-38.29	0.1025	0.2444	-0.5069	
-0.285846	-0.670878	0.614758	-36.26	-30.45	-38.71	0.0936	0.2442	-0.507	
-0.252906	-0.693204	0.612684	-37.31	-30.38	-39.69	0.0805	0.2574	-0.5016	
-0.23058	-0.697108	0.599264	-37.59	-28.7	-40.39	0.0761	0.262	-0.5047	
-0.199592	-0.704184	0.588162	-39.48	-30.24	-40.81	0.0672	0.2649	-0.5049	
-0.172386	-0.717482	0.57767	-41.51	-32.41	-40.95	0.0569	0.2675	-0.4991	
-0.165066	-0.73871	0.559004	-42.14	-32.34	-41.51	0.0511	0.2734	-0.4978	
-0.149328	-0.755546	0.548756	-41.79	-35.42	-41.79	0.0498	0.281	-0.4951	
-0.127368	-0.760792	0.537288	-41.23	-35.21	-41.79	0.0348	0.2808	-0.4997	
-0.088206	-0.775554	0.526796	-42.28	-36.19	-41.37	0.0261	0.2863	-0.488	
-0.051484	-0.784338	0.513742	-42.63	-34.44	-40.95	0.0262	0.2956	-0.4928	
-0.034892	-0.808982	0.504714	-41.86	-27.09	-43.19	0.0087	0.3055	-0.4813	
-0.014762	-0.823012	0.484584	-42.63	-35.42	-41.58	0.0116	0.3055	-0.4798	
0.004026	-0.835578	0.461648	-40.18	-40.18	-41.51	-0.0015	0.3143	-0.4772	
0.013908	-0.842654	0.457256	-37.24	-38.29	-41.72	-0.0031	0.3047	-0.4651	
0.025498	-0.848388	0.44957	-35.07	-37.17	-41.37	-0.0177	0.3214	-0.4731	
0.063074	-0.86681	0.440542	-30.73	-38.01	-39.55	-0.0399	0.3222	-0.4644	
0.08723	-0.875472	0.435662	-26.39	-38.85	-38.08	-0.0457	0.3246	-0.4497	
0.099308	-0.87718	0.432856	-22.96	-38.01	-36.68	-0.0502	0.3263	-0.4587	
0.122366	-0.883646	0.441274	-19.95	-36.4	-33.95	-0.0695	0.3286	-0.4485	
0.143472	-0.88877	0.439322	-18.13	-35.14	-30.8	-0.0648	0.3411	-0.4533	
0.168848	-0.887428	0.44591	-15.4	-32.27	-28.14	-0.0782	0.3393	-0.4533	
0.191784	-0.887672	0.45079	-13.37	-29.89	-25.83	-0.07539999	0.3314	-0.4427	
0.197518	-0.885232	0.452742	-12.67	-27.72	-23.8	-0.0933	0.3294	-0.4427	
0.205814	-0.880718	0.45201	-10.15	-26.18	-22.05	-0.1006	0.3321	-0.4369	
0.21106	-0.881816	0.45018	-9.17	-22.82	-20.09	-0.0947	0.3324	-0.4414	
0.207156	-0.88206	0.441274	-8.26	-19.39	-17.71	-0.1022	0.329	-0.4369	
0.212402	-0.876448	0.444934	-7.98	-17.22	-15.82	-0.108	0.3381	-0.4387	
0.209108	-0.872544	0.438834	-6.86	-14.42	-14.42	-0.1157	0.3208	-0.4293	
0.199348	-0.865956	0.43127	-6.58	-12.74	-13.44	-0.1156	0.3303	-0.4385	
0.19764	-0.85705	0.43432	-7	-11.2	-12.6	-0.1095	0.3312	-0.4162	
0.19825	-0.851438	0.42944	-7.49	-10.5	-12.11	-0.117	0.3301	-0.4325	
0.189832	-0.852536	0.421144	-6.86	-11.83	-12.6	-0.1215	0.3299	-0.4296	
0.184586	-0.853878	0.421754	-5.95	-11.06	-13.51	-0.1097	0.3256	-0.4309	
0.17995	-0.854488	0.412116	-6.3	-10.29	-13.79	-0.1257	0.3436	-0.4315	
0.179462	-0.85644	0.416264	-6.72	-11.41	-14.07	-0.123	0.3266	-0.4221	
0.179096	-0.860588	0.410652	-6.72	-12.11	-14.63	-0.1363	0.3325	-0.4253	
0.178608	-0.85949	0.40504	-6.79	-13.02	-15.4	-0.1276	0.3221	-0.4279	
0.17568	-0.85888	0.39833	-6.3	-13.16	-16.8	-0.1393	0.3308	-0.4238	
0.172996	-0.859734	0.393206	-5.95	-14.21	-17.64	-0.1408	0.3322	-0.4194	
0.179462	-0.864492	0.378322	-5.25	-17.71	-18.13	-0.1379	0.3278	-0.4222	
0.188734	-0.863882	0.385032	-4.27	-18.69	-19.39	-0.1468	0.3291	-0.4223	
0.198494	-0.856928	0.383324	-2.52	-18.48	-21.07	-0.1451	0.335	-0.4166	
0.204106	-0.856074	0.38369	-1.96	-19.11	-22.05	-0.1587	0.3319	-0.424	
0.20923	-0.858026	0.381616	-3.01	-21	-22.12	-0.1649	0.3178	-0.4161	
0.224236	-0.855586	0.374052	-1.82	-23.03	-22.4	-0.1616	0.3299	-0.4121	
0.241438	-0.84912	0.370148	-0.91	-25.34	-23.38	-0.1738	0.3159	-0.4117	
0.24949	-0.843874	0.369416	0	-26.88	-23.8	-0.1708	0.3176	-0.4147	
0.268156	-0.83814	0.360632	-0.07	-27.86	-23.94	-0.1724	0.316	-0.4132	
0.282064	-0.844972	0.359412	-3.36	-31.22	-24.57	-0.1871	0.3184	-0.403	
0.307684	-0.837042	0.348188	3.15	-27.44	-25.9	-0.1932	0.312	-0.3983	
0.329766	-0.837286	0.351238	-1.26	-29.89	-26.39	-0.1991	0.3117	-0.3924	
0.357582	-0.831674	0.34343	1.96	-30.1	-27.37	-0.2008	0.3041	-0.3952	
0.374784	-0.819596	0.33794	0.84	-31.43	-28.21	-0.2189	0.2943	-0.3876	
0.387716	-0.807884	0.32391	3.15	-30.52	-29.82	-0.2141	0.3066	-0.3894	
0.406504	-0.808372	0.328058	1.19	-30.45	-31.43	-0.2279	0.2927	-0.392	
0.423706	-0.796172	0.326716	1.61	-30.1	-33.18	-0.2353	0.2907	-0.4087	
0.434442	-0.779092	0.3172	2.73	-30.66	-35.63	-0.243	0.2798	-0.3828	
0.44286	-0.770064	0.321592	0.98	-31.99	-37.94	-0.2457	0.2904	-0.3802	
0.458964	-0.756278	0.310246	-0.98	-34.02	-38.71	-0.2519	0.2793	-0.3739	
0.464576	-0.763598	0.313296	-2.1	-33.53	-40.32	-0.252	0.2764	-0.3783	
0.472628	-0.762134	0.302926	-2.8	-35.35	-41.72	-0.264	0.2697	-0.3663	
0.486902	-0.762256	0.299144	-5.18	-37.24	-43.33	-0.2698	0.2725	-0.3635	
0.513498	-0.745176	0.295118	-7.35	-37.8	-43.82	-0.2775	0.2616	-0.3617	
0.529846	-0.739808	0.280478	-7.84	-39.2	-44.03	-0.2864	0.2609	-0.3484	
0.542656	-0.732976	0.275842	-7.7	-39.97	-43.96	-0.2956	0.2469	-0.3465	
0.55937	-0.731878	0.27816	-8.89	-40.81	-42.98	-0.2955	0.2514	-0.3437	
0.570472	-0.742126	0.271084	-6.65	-41.23	-42.63	-0.3134	0.251	-0.3438	
0.583404	-0.73139	0.258274	-4.13	-41.72	-41.72	-0.3106	0.2401	-0.336	
0.599996	-0.712846	0.237534	-3.29	-42.28	-40.32	-0.3211	0.2302	-0.3209	
0.61732	-0.717482	0.225578	-6.3	-44.24	-37.52	-0.3333	0.2224	-0.3237	
0.594262	-0.668316	0.197396	0.42	-41.58	-35.42	-0.3286	0.2268	-0.3149	
0.646844	-0.695766	0.22387	-13.3	-43.47	-34.09	-0.3407	0.2173	-0.3117	
0.678198	-0.66368	0.22326	-6.93	-41.72	-34.79	-0.3497	0.217	-0.3088	
0.69357	-0.65209	0.204472	-6.58	-40.81	-35.77	-0.3423	0.2124	-0.3041	
0.691862	-0.626226	0.177754	-1.47	-38.85	-36.33	-0.3424	0.2043	-0.2905	
0.711016	-0.618052	0.156648	-5.95	-39.2	-34.58	-0.3542	0.2052	-0.2773	
0.773968	-0.626104	0.160918	-14.42	-40.04	-33.11	-0.3632	0.202	-0.2802	
0.788852	-0.633424	0.18422	-10.08	-38.92	-35.84	-0.3636	0.1851	-0.2782	
0.793732	-0.61305	0.14579	-1.89	-34.58	-39.41	-0.3739	0.1844	-0.2634	
0.78873	-0.584624	0.105652	1.47	-34.02	-40.18	-0.3831	0.1733	-0.2572	
0.815326	-0.579866	0.071492	-4.27	-34.93	-39.13	-0.3846	0.1721	-0.2675	
0.78629	-0.54351	0.065026	-17.36	-42.91	-39.55	-0.3862	0.164	-0.2554	
0.828868	-0.628422	0.075762	-15.19	-36.12	-38.22	-0.3939	0.1496	-0.2402	
0.825208	-0.63135	0.083692	-5.32	-33.53	-38.78	-0.3936	0.1586	-0.233	
0.858758	-0.6161	0.077958	-8.75	-31.08	-34.23	-0.3997	0.1506	-0.2269	
0.85705	-0.597922	0.082106	-2.94	-26.88	-31.99	-0.4072	0.152	-0.2284	
0.870592	-0.571814	0.055388	-2.87	-26.04	-29.33	-0.3911	0.1337	-0.2174	
0.86437	-0.56059	0.042212	-3.92	-24.99	-27.58	-0.4044	0.141	-0.2177	
0.877546	-0.544608	0.024278	-4.34	-23.66	-24.5	-0.4076	0.1304	-0.2203	
0.887062	-0.54229	0.023912	-6.02	-21.91	-22.33	-0.4121	0.1221	-0.2038	
0.900604	-0.53497	0.016958	-8.12	-19.95	-20.02	-0.4087	0.1435	-0.203	
0.909998	-0.536922	0.01098	-6.51	-17.5	-18.76	-0.409	0.1284	-0.2084	
0.921832	-0.538752	-0.000244	-4.76	-14.21	-17.5	-0.4211	0.1204	-0.2053	
0.927688	-0.538752	0.001464	-1.75	-9.31	-16.45	-0.4193	0.1308	-0.1967	
0.91927	-0.529968	-0.003294	0.63	-7.7	-15.75	-0.4107	0.1158	-0.1991	
0.907558	-0.50142	-0.026596	-0.35	-5.11	-12.18	-0.4137	0.1171	-0.1932	
0.90097	-0.493612	-0.02684	-2.52	-4.48	-9.24	-0.4198	0.1093	-0.193	
0.889136	-0.483852	-0.025376	-2.87	-3.99	-6.93	-0.4152	0.1138	-0.1857	
0.88084	-0.469944	-0.033306	-1.75	-4.27	-5.46	-0.414	0.1035	-0.1972	
0.876448	-0.476776	-0.031598	-3.15	-4.97	-4.27	-0.4166	0.1185	-0.1903	
0.864248	-0.477386	-0.030012	-1.19	-5.67	-3.5	-0.4154	0.108	-0.1944	
0.85522	-0.476898	-0.044042	-1.82	-7.49	-2.45	-0.4183	0.1109	-0.1916	
0.849608	-0.48007	-0.047824	-1.82	-9.52	-1.26	-0.4122	0.114	-0.1902	
0.85522	-0.472262	-0.051484	-1.75	-11.76	-0.07	-0.4182	0.109	-0.1811	
0.873642	-0.47275	-0.044408	-3.71	-13.65	0.7	-0.4257	0.1073	-0.1811	
0.880596	-0.475556	-0.032818	-3.08	-13.37	0.63	-0.4256	0.1119	-0.1828	
0.884622	-0.472384	-0.039894	-2.73	-13.79	0.42	-0.4214	0.1014	-0.1854	
0.897188	-0.479216	-0.048434	-3.64	-14.21	0.14	-0.4211	0.1136	-0.1858	
0.898042	-0.487634	-0.047458	-2.45	-13.23	-0.28	-0.4301	0.11	-0.1738	
0.887306	-0.497516	-0.046116	-2.03	-10.5	0.56	-0.4241	0.1135	-0.1587	
0.90341	-0.504592	-0.056242	-2.17	-9.8	1.26	-0.4196	0.1117	-0.1708	
0.92659	-0.51667	-0.061	-0.77	-8.4	1.47	-0.4286	0.1103	-0.1812	
0.929518	-0.508374	-0.050142	1.33	-5.6	2.45	-0.4166	0.1103	-0.1723	
0.922564	-0.490562	-0.061854	2.45	-1.96	3.43	-0.4285	0.1082	-0.1634	
0.907436	-0.492392	-0.065636	1.68	0.14	4.06	-0.4254	0.1161	-0.171	
0.90341	-0.498004	-0.06588	1.75	1.82	5.04	-0.4225	0.1146	-0.1695	
0.912804	-0.513498	-0.064172	1.89	3.36	5.88	-0.424	0.1163	-0.1755	
0.917074	-0.53009	-0.05124	3.43	4.9	7.49	-0.4182	0.1039	-0.1661	
0.920856	-0.523136	-0.038308	5.67	8.26	10.15	-0.4285	0.1114	-0.1694	
0.931592	-0.499346	-0.041968	6.02	12.04	12.25	-0.43	0.1114	-0.1709	
0.899994	-0.48861	-0.047214	17.99	18.97	10.22	-0.4271	0.1118	-0.1813	
0.897554	-0.508618	-0.06283	3.85	14.56	13.72	-0.4196	0.1134	-0.1783	
0.9089	-0.53253	-0.04636	6.02	15.26	15.4	-0.4181	0.1185	-0.1918	
0.929884	-0.533506	-0.023424	7.35	17.15	18.06	-0.412	0.1214	-0.1845	
0.92049	-0.54351	0.001342	8.33	21.21	19.6	-0.4195	0.1198	-0.1859	
0.920246	-0.539606	-0.012078	10.92	26.88	22.26	-0.4149	0.1328	-0.2056	
0.899994	-0.53741	-0.01647	11.69	30.31	24.15	-0.4058	0.1357	-0.1953	
0.892064	-0.535214	-0.012932	11.34	32.76	26.11	-0.4057	0.1438	-0.2089	
0.884134	-0.54961	0.001952	9.52	32.55	28.14	-0.4057	0.1438	-0.2089	
0.88328	-0.560712	0.02623	9.31	34.86	30.03	-0.3924	0.1414	-0.2206	
0.874496	-0.56791	0.047946	12.04	38.85	31.22	-0.3998	0.1473	-0.2193	
0.861442	-0.573766	0.064782	11.27	43.68	32.83	-0.404	0.1628	-0.2288	
0.83143	-0.584014	0.070028	10.57	45.71	35.63	-0.3892	0.1556	-0.2329	
0.829966	-0.587674	0.065148	9.38	45.29	36.96	-0.3922	0.1589	-0.2419	
0.801174	-0.614026	0.077714	8.26	44.8	38.43	-0.38	0.1733	-0.2527	
0.785436	-0.636352	0.09089	5.95	44.1	40.39	-0.3802	0.1657	-0.2539	
0.763354	-0.643062	0.108458	7.42	46.27	41.51	-0.3757	0.1738	-0.266	
0.73993	-0.644282	0.12566	9.45	48.93	42.84	-0.3667	0.1806	-0.2825	
0.721874	-0.653554	0.134932	7.63	48.09	44.31	-0.365	0.1866	-0.2768	
0.698206	-0.664778	0.14213	7.21	46.62	45.85	-0.3618	0.1992	-0.286	
0.680882	-0.682712	0.153476	8.96	44.1	44.87	-0.3527	0.2103	-0.2923	
0.66063	-0.695644	0.173118	8.75	42.77	46.34	-0.3423	0.2125	-0.3071	
0.640378	-0.68503	0.195078	10.08	43.33	47.74	-0.3378	0.2141	-0.3042	
0.632326	-0.687958	0.199714	7.14	42.21	49.14	-0.3363	0.2193	-0.3236	
0.61305	-0.700158	0.212158	3.78	40.25	49.56	-0.3301	0.2299	-0.318	
0.605364	-0.709308	0.223382	8.4	41.09	50.54	-0.3151	0.2336	-0.3254	
0.59475	-0.721142	0.24034	4.06	38.43	50.33	-0.3241	0.2369	-0.3389	
0.5795	-0.73383	0.2623	4.69	38.92	49.7	-0.3073	0.2523	-0.3319	
0.56242	-0.744078	0.289994	7.77	41.02	48.72	-0.3013	0.2572	-0.3365	
0.531188	-0.746274	0.278038	9.1	42	47.39	-0.291	0.2546	-0.3452	
0.516182	-0.757986	0.25254	7.14	41.65	47.53	-0.2866	0.2551	-0.3556	
0.501298	-0.780556	0.288164	5.88	38.57	46.62	-0.2849	0.2626	-0.3514	
0.480314	-0.793	0.309758	9.8	39.34	45.85	-0.2788	0.2723	-0.3635	
0.45811	-0.81496	0.32391	7.49	39.76	46.69	-0.255	0.2715	-0.3707	
0.423462	-0.826306	0.32879	10.15	41.79	47.53	-0.252	0.2746	-0.3693	
0.396866	-0.81801	0.343308	11.97	42.98	48.72	-0.2519	0.2796	-0.3814	
0.361486	-0.825452	0.360144	8.82	43.89	50.26	-0.222	0.2881	-0.3874	
0.336964	-0.838262	0.366244	5.88	43.12	51.24	-0.2174	0.293	-0.3934	
0.311954	-0.843752	0.370026	9.73	44.45	50.89	-0.2039	0.2979	-0.3965	
0.27938	-0.839116	0.379908	11.41	43.96	50.61	-0.2024	0.2995	-0.3965	
0.264984	-0.819596	0.37088	13.02	43.4	50.47	-0.1962	0.3121	-0.4043	
0.238144	-0.818498	0.376614	11.55	41.09	49.42	-0.1872	0.3168	-0.4014	
0.202642	-0.859978	0.374906	15.05	41.23	46.34	-0.1649	0.3178	-0.4176	
0.19581	-0.779946	0.388936	13.51	34.02	45.92	-0.1665	0.3131	-0.4145	
0.146888	-0.777994	0.401502	16.59	35.21	41.02	-0.162	0.3135	-0.4219	
0.120902	-0.781288	0.398086	11.69	29.61	36.47	-0.1485	0.3215	-0.4236	
0.107238	-0.768478	0.419802	14.28	25.69	30.8	-0.1424	0.3229	-0.4176	
0.09857599	-0.767624	0.417484	11.9	21.7	25.62	-0.1395	0.3217	-0.4235	
0.10187	-0.775798	0.425048	10.15	18.9	20.51	-0.1277	0.3193	-0.4367	
0.086986	-0.787876	0.438346	10.29	17.29	15.26	-0.1319	0.333	-0.4387	
0.076006	-0.80703	0.453474	6.72	13.51	11.2	-0.1277	0.3193	-0.4367	
0.07686	-0.822402	0.457134	5.11	8.61	7.7	-0.1262	0.3226	-0.4427	
0.075884	-0.81923	0.45506	5.67	7.84	5.88	-0.1262	0.3193	-0.4352	
0.113338	-0.838384	0.476044	5.53	6.02	4.34	-0.1246	0.3273	-0.4444	
0.121512	-0.845338	0.46177	5.11	5.18	3.43	-0.1188	0.3211	-0.4397	
0.136762	-0.852658	0.469944	5.04	5.39	2.73	-0.1217	0.3209	-0.4338	
0.143472	-0.851316	0.468358	6.72	6.16	2.52	-0.1233	0.3193	-0.4337	
0.158966	-0.859856	0.467748	6.02	6.16	3.29	-0.1201	0.3255	-0.4339	
0.187514	-0.870226	0.46299	6.58	7.28	4.34	-0.1188	0.3181	-0.4396	
0.209352	-0.88572	0.45384	7.21	8.75	5.25	-0.1097	0.3242	-0.4353	
0.211548	-0.88877	0.457866	9.45	10.71	6.65	-0.122	0.3119	-0.4409	
0.21106	-0.896334	0.453596	10.99	13.72	8.82	-0.1056	0.314	-0.4453	
0.213134	-0.902556	0.445788	13.16	18.69	11.34	-0.119	0.3136	-0.4439	
0.21838	-0.906216	0.451644	16.52	22.26	13.37	-0.1131	0.3123	-0.4453	
0.198616	-0.903654	0.436028	20.86	25.62	14.84	-0.09339999	0.3235	-0.447	
0.194468	-0.906094	0.442006	24.15	27.86	16.59	-0.1025	0.3188	-0.4499	
0.191174	-0.90097	0.439566	27.16	30.24	18.97	-0.0936	0.3142	-0.4452	
0.17629	-0.890966	0.450424	32.27	33.67	22.33	-0.079	0.3059	-0.4597	
0.158966	-0.885598	0.458964	35.14	36.19	24.29	-0.0733	0.2988	-0.4728	
0.132858	-0.880718	0.48312	35.98	39.41	26.81	-0.0613	0.3019	-0.4654	
0.11407	-0.86437	0.494466	39.48	40.46	29.33	-0.0599	0.2976	-0.4741	
0.097844	-0.860344	0.499102	40.04	42.21	32.34	-0.0464	0.3008	-0.4697	
0.068808	-0.8418	0.509716	42.63	43.75	35.21	-0.0423	0.2875	-0.4781	
0.035136	-0.817278	0.518866	44.1	46.06	37.73	-0.035	0.2867	-0.4944	
-0.012566	-0.812154	0.528016	42.84	47.88	39.83	-0.0217	0.2807	-0.4911	
-0.047336	-0.792878	0.53924	43.68	47.81	40.67	-0.008599999	0.2659	-0.4935	
-0.074176	-0.767868	0.549976	46.62	47.32	42.07	-0.0026	0.2693	-0.5025	
-0.080032	-0.715286	0.574132	50.96	47.53	43.47	0.0004	0.2755	-0.5027	
-0.087352	-0.679296	0.58804	52.92	46.62	44.94	0.009	0.262	-0.5022	
-0.133468	-0.672098	0.589992	50.54	51.1	44.8	0.0268	0.2565	-0.5108	
-0.175802	-0.64294	0.614026	54.53	53.55	43.89	0.0354	0.2448	-0.5193	
-0.192028	-0.626958	0.639768	52.71	47.32	44.73	0.0513	0.2239	-0.523	
-0.18727	-0.581574	0.65026	51.24	45.08	42.98	0.0544	0.2267	-0.5126	
-0.215086	-0.587186	0.657946	46.55	48.86	42.42	0.0632	0.2258	-0.5244	
-0.266448	-0.595848	0.668194	50.82	51.59	41.09	0.0853	0.2123	-0.5179	
-0.29951	-0.575352	0.661362	54.74	51.73	39.83	0.0883	0.211	-0.5223	
-0.314272	-0.54412	0.68686	56.56	51.87	38.29	0.0972	0.2096	-0.5207	
-0.31232	-0.51423	0.699426	57.19	50.82	35.21	0.0997	0.1886	-0.5289	
-0.32879	-0.473238	0.706746	56.35	51.38	32.48	0.1055	0.1824	-0.5227	
-0.361974	-0.460672	0.708454	53.55	51.03	31.71	0.1248	0.1751	-0.5194	
-0.39284	-0.450546	0.716018	53.2	50.61	30.8	0.1379	0.1647	-0.519	
-0.427854	-0.448472	0.723094	51.73	49.42	29.19	0.1423	0.1601	-0.5173	
-0.463356	-0.445056	0.721142	51.66	48.65	27.86	0.1391	0.146	-0.5065	
-0.47275	-0.438834	0.729926	49.7	49.49	27.3	0.1522	0.1394	-0.5284	
-0.51179	-0.412726	0.742614	50.96	49.28	26.53	0.1609	0.1256	-0.522	
-0.517036	-0.376126	0.746762	49.07	44.24	26.39	0.1698	0.1244	-0.5249	
-0.529236	-0.360754	0.728462	43.96	39.97	25.62	0.1727	0.1166	-0.5172	
-0.557784	-0.348188	0.728462	42.56	39.06	25.2	0.1933	0.1014	-0.5077	
-0.590602	-0.325984	0.735538	38.78	35	24.64	0.2019	0.0895	-0.5087	
-0.59841	-0.327814	0.742614	35.49	31.99	25.06	0.2049	0.0895	-0.5087	
-0.613538	-0.30439	0.736148	33.88	29.61	24.5	0.2139	0.0897	-0.5071	
-0.604144	-0.282308	0.745786	32.83	28.63	23.45	0.2045	0.0712	-0.5096	
-0.623054	-0.260836	0.745298	31.01	27.79	22.75	0.2208	0.0687	-0.5138	
-0.638182	-0.244	0.736148	28.56	23.87	22.33	0.2178	0.0605	-0.4988	
-0.64721	-0.228384	0.726632	25.55	20.58	21.35	0.2357	0.0608	-0.4972	
-0.664656	-0.220576	0.723338	24.15	18.97	20.16	0.2353	0.0456	-0.4982	
-0.689178	-0.194956	0.724192	22.19	17.71	18.41	0.2279	0.0454	-0.4982	
-0.689178	-0.178364	0.71736	20.79	14.07	16.87	0.2308	0.0389	-0.4846	
-0.704184	-0.1647	0.725656	18.69	10.57	15.96	0.2336	0.0351	-0.5038	
-0.716506	-0.157014	0.718946	17.71	7.84	14.14	0.2395	0.0302	-0.4902	
-0.70882	-0.14518	0.729682	14.98	3.92	12.95	0.2275	0.0254	-0.4931	
-0.695644	-0.130662	0.737124	12.74	0.63	11.2	0.2349	0.0241	-0.4945	
-0.69357	-0.139324	0.752496	8.68	-0.42	9.66	0.2349	0.0226	-0.4944	
-0.685152	-0.13603	0.754814	5.95	-1.47	8.12	0.238	0.0303	-0.4962	
-0.67283	-0.136152	0.762256	1.68	-3.57	5.81	0.2288	0.0195	-0.4988	
-0.663192	-0.1342	0.761402	-0.14	-2.73	3.36	0.2379	0.0223	-0.484	
-0.662948	-0.150304	0.767014	-3.36	-3.85	1.82	0.2275	0.0253	-0.4901	
-0.662582	-0.157746	0.757376	-3.71	-4.34	0.7	0.2362	0.0182	-0.5002	
-0.665754	-0.15921	0.75396	-4.41	-3.29	-0.77	0.2277	0.0346	-0.4934	
-0.657336	-0.165554	0.748104	-5.11	-1.68	-2.17	0.2275	0.0287	-0.4991	
-0.6588	-0.174216	0.744688	-6.23	-2.59	-3.22	0.2246	0.0283	-0.4888	
-0.66795	-0.175314	0.740296	-5.88	-3.85	-4.41	0.2348	0.0195	-0.4943	
-0.66856	-0.17751	0.734074	-6.3	-4.69	-5.53	0.2366	0.0317	-0.4918	
-0.67344	-0.18361	0.73444	-6.65	-6.16	-7.35	0.2351	0.0334	-0.4978	
-0.67466	-0.185684	0.734318	-5.81	-7	-9.1	0.229	0.0237	-0.4871	
-0.665754	-0.183854	0.731512	-6.02	-7.35	-10.92	0.2172	0.0362	-0.5024	
-0.665144	-0.198616	0.746152	-7.98	-9.17	-11.76	0.2291	0.0333	-0.4993	
-0.684786	-0.206424	0.734074	-7.98	-13.02	-11.9	0.2218	0.0389	-0.4906	
-0.666608	-0.207644	0.737612	-9.8	-15.75	-12.88	0.2218	0.0376	-0.495	
-0.673196	-0.21594	0.757132	-10.57	-15.05	-15.4	0.2174	0.0421	-0.4982	
-0.652212	-0.21472	0.75945	-13.37	-17.01	-16.17	0.2159	0.0453	-0.5012	
-0.62525	-0.205326	0.760182	-16.24	-17.64	-17.08	0.2144	0.0423	-0.5041	
-0.615368	-0.21289	0.764208	-19.74	-18.97	-18.41	0.2145	0.0501	-0.5103	
-0.609268	-0.2196	0.762134	-22.68	-20.58	-19.53	0.21	0.0483	-0.5043	
-0.598898	-0.230458	0.758596	-24.43	-22.12	-21.07	0.2042	0.0574	-0.5077	
-0.590724	-0.24827	0.755912	-26.53	-23.73	-22.68	0.2027	0.0592	-0.5151	
-0.583648	-0.274378	0.758596	-29.33	-24.22	-23.87	0.2	0.0679	-0.5036	
-0.57157	-0.288042	0.748714	-30.66	-25.83	-24.78	0.1972	0.0739	-0.5023	
-0.557784	-0.30622	0.75457	-32.83	-26.25	-25.27	0.1957	0.0772	-0.5113	
-0.533628	-0.326106	0.753472	-33.88	-27.65	-25.69	0.178	0.0844	-0.5102	
-0.513254	-0.34404	0.738954	-34.23	-29.4	-25.55	0.1737	0.09519999	-0.4909	
-0.50996	-0.36356	0.733708	-35.07	-30.52	-26.04	0.1783	0.1015	-0.5196	
-0.492636	-0.388692	0.735416	-36.05	-31.01	-26.39	0.1783	0.103	-0.5197	
-0.465918	-0.399184	0.741272	-36.61	-30.52	-27.09	0.168	0.1123	-0.529	
-0.445666	-0.413092	0.739686	-36.26	-30.8	-27.79	0.1577	0.1163	-0.5203	
-0.428708	-0.437126	0.742492	-37.94	-31.57	-29.05	0.1593	0.1193	-0.5159	
-0.419558	-0.45445	0.73627	-38.5	-35.28	-29.54	0.1463	0.1406	-0.5241	
-0.418826	-0.46421	0.735538	-38.5	-34.23	-31.08	0.1462	0.1346	-0.5269	
-0.413214	-0.479338	0.728096	-39.41	-35.56	-31.92	0.1464	0.1468	-0.5272	
-0.384178	-0.504714	0.733586	-40.88	-36.68	-32.55	0.1333	0.1588	-0.5277	
-0.361364	-0.519354	0.740418	-41.58	-38.29	-33.39	0.1272	0.1526	-0.5305	
-0.344772	-0.532896	0.723704	-40.6	-39.83	-34.86	0.117	0.1628	-0.522	
-0.331962	-0.54107	0.72285	-41.65	-39.27	-36.4	0.1142	0.1704	-0.5238	
-0.30317	-0.555954	0.706624	-43.61	-42.07	-37.73	0.1083	0.1768	-0.5359	
-0.27816	-0.575718	0.700768	-45.01	-42.21	-38.64	0.0967	0.1867	-0.52	
-0.25437	-0.585722	0.693082	-47.39	-42.56	-38.5	0.0909	0.1974	-0.5248	
-0.219966	-0.596824	0.68808	-48.44	-44.45	-39.13	0.0834	0.1926	-0.5232	
-0.195688	-0.61305	0.675514	-49.35	-48.58	-39.34	0.0747	0.2028	-0.5162	
-0.169946	-0.626958	0.67161	-49.28	-49.63	-39.55	0.0616	0.2163	-0.5167	
-0.122732	-0.643306	0.640622	-49.56	-57.89	-38.01	0.0604	0.2298	-0.5112	
-0.088084	-0.674538	0.624396	-50.12	-50.26	-39.55	0.0308	0.2383	-0.5102	
-0.064294	-0.705648	0.612196	-49.42	-51.24	-38.08	0.019	0.2394	-0.5044	
-0.0427	-0.716018	0.61305	-48.72	-49.21	-37.45	0.0162	0.2487	-0.5106	
-0.011712	-0.7503	0.600118	-51.45	-44.66	-35.49	0.003	0.2572	-0.5021	
0.002318	-0.746274	0.598166	-45.92	-43.05	-36.82	-0.0072	0.2628	-0.4934	
0.027206	-0.760304	0.5795	-46.2	-47.18	-34.37	-0.0009999999	0.274	-0.5041	
0.038796	-0.775798	0.568398	-44.45	-42.84	-34.37	-0.0235	0.2655	-0.4936	
0.057218	-0.780922	0.552782	-43.61	-40.6	-33.39	-0.0321	0.2804	-0.4882	
0.067466	-0.796172	0.528504	-41.02	-38.08	-32.34	-0.0349	0.2865	-0.4899	
0.08662	-0.813252	0.523014	-39.27	-36.47	-30.8	-0.0467	0.289	-0.4797	
0.094916	-0.83143	0.510936	-35.35	-32.34	-30.24	-0.0527	0.2872	-0.4752	
0.107116	-0.841556	0.508008	-32.48	-30.24	-29.68	-0.0617	0.2838	-0.4722	
0.112606	-0.852536	0.49593	-31.71	-32.69	-27.02	-0.0674	0.2959	-0.4727	
0.132126	-0.850218	0.480314	-28.63	-32.55	-24.57	-0.072	0.2881	-0.4695	
0.15433	-0.84912	0.47824	-25.48	-27.09	-22.47	-0.0823	0.2953	-0.4653	
0.15494	-0.871812	0.488122	-24.43	-20.79	-20.09	-0.0882	0.2966	-0.4624	
0.176168	-0.86437	0.47458	-21.35	-23.87	-14.7	-0.0851	0.3011	-0.4581	
0.192394	-0.865102	0.476776	-17.85	-19.53	-13.09	-0.0849	0.3087	-0.4569	
0.193004	-0.865468	0.472994	-15.82	-16.8	-12.04	-0.0998	0.3052	-0.4524	
0.191052	-0.861076	0.470066	-12.81	-14.84	-11.69	-0.0983	0.3098	-0.454	
0.191784	-0.85766	0.472384	-11.2	-12.67	-11.13	-0.0981	0.3143	-0.4497	
0.1891	-0.854854	0.463844	-10.22	-11.41	-10.5	-0.1011	0.3144	-0.4542	
0.183976	-0.846558	0.466406	-8.54	-10.36	-10.22	-0.1056	0.314	-0.4468	
0.170556	-0.831308	0.470066	-8.19	-8.82	-10.43	-0.1056	0.3109	-0.4452	
0.153964	-0.830332	0.468236	-8.33	-7.77	-10.64	-0.1131	0.3109	-0.4482	
0.133346	-0.824964	0.467016	-9.24	-7.63	-10.92	-0.1115	0.3155	-0.4484	
0.12322	-0.829844	0.459574	-10.43	-10.15	-11.34	-0.1073	0.3018	-0.4479	
0.124196	-0.821304	0.452254	-10.08	-12.39	-11.97	-0.1102	0.3048	-0.4465	
0.127002	-0.823744	0.441518	-10.5	-14.77	-12.74	-0.1116	0.3107	-0.4423	
0.12627	-0.83631	0.433832	-11.9	-16.94	-14.35	-0.1131	0.3124	-0.4483	
0.13176	-0.846192	0.431636	-11.2	-19.18	-16.59	-0.1279	0.3148	-0.4381	
0.138348	-0.846192	0.418582	-10.22	-21.28	-18.76	-0.1323	0.3161	-0.4366	
0.150792	-0.846314	0.418094	-10.08	-25.9	-21.84	-0.1355	0.3037	-0.4303	
0.159454	-0.850706	0.412116	-9.45	-29.26	-23.94	-0.1501	0.3172	-0.4338	
0.16043	-0.834358	0.400526	-5.25	-31.01	-26.53	-0.1502	0.3109	-0.4277	
0.180682	-0.832772	0.39711	-6.23	-33.67	-28.21	-0.1622	0.3075	-0.4277	
0.189588	-0.82777	0.392962	-3.64	-36.68	-30.73	-0.1667	0.3059	-0.4276	
0.200934	-0.825696	0.380762	-4.62	-40.95	-32.41	-0.1666	0.3089	-0.4248	
0.214842	-0.828868	0.39284	-5.32	-42.63	-33.25	-0.1831	0.3019	-0.4098	
0.223138	-0.818864	0.38613	-3.85	-43.12	-34.51	-0.1814	0.3112	-0.4131	
0.236192	-0.818376	0.371612	-4.55	-45.43	-35.42	-0.1966	0.2937	-0.4022	
0.23729	-0.819474	0.368196	-4.41	-50.54	-36.19	-0.204	0.2965	-0.3994	
0.242048	-0.813862	0.356728	-2.73	-51.59	-36.05	-0.2038	0.3025	-0.3966	
0.255712	-0.799954	0.34648	-1.75	-53.97	-35.63	-0.2293	0.2926	-0.3891	
0.288042	-0.78751	0.335866	-3.99	-58.03	-35.42	-0.225	0.2866	-0.3918	
0.319762	-0.787388	0.326594	-5.81	-59.78	-36.61	-0.2475	0.2799	-0.3888	
0.377224	-0.785558	0.321104	-6.65	-59.43	-37.94	-0.2401	0.2737	-0.3811	
0.435906	-0.763232	0.296826	-7.28	-61.04	-41.72	-0.2624	0.2777	-0.3769	
0.483608	-0.742736	0.27206	-3.43	-60.34	-44.17	-0.2714	0.2693	-0.3619	
0.517524	-0.721874	0.266082	-9.52	-63.84	-47.88	-0.2804	0.2642	-0.3514	
0.576206	-0.684054	0.257054	-3.92	-60.06	-52.36	-0.2804	0.2642	-0.3514	
0.601338	-0.67039	0.25132	-3.99	-57.4	-57.26	-0.2895	0.2546	-0.3422	
0.63501	-0.668194	0.239364	-8.12	-57.05	-60.83	-0.2967	0.2649	-0.3367	
0.642574	-0.677832	0.226676	-9.8	-58.31	-65.17	-0.3179	0.2393	-0.3167	
0.658556	-0.703574	0.234728	-13.65	-58.52	-63.28	-0.3345	0.2329	-0.3166	
0.67466	-0.672708	0.208254	-4.06	-54.11	-65.52	-0.3407	0.2204	-0.3148	
0.69906	-0.64538	0.190808	-3.57	-51.45	-65.87	-0.3438	0.2092	-0.3011	
0.721508	-0.630984	0.182146	-5.6	-50.61	-67.41	-0.357	0.2159	-0.2821	
0.72651	-0.63013	0.160064	-4.27	-49.07	-69.09	-0.3679	0.1896	-0.2784	
0.751398	-0.61427	0.140056	-3.99	-47.6	-68.18	-0.3754	0.1878	-0.2754	
0.73688	-0.63562	0.13298	-12.04	-51.45	-68.32	-0.3788	0.1694	-0.2733	
0.783118	-0.63867	0.143106	-7.84	-47.04	-63.35	-0.3818	0.1612	-0.2597	
0.787266	-0.595848	0.12505	-7.28	-49.7	-61.95	-0.3834	0.1565	-0.2551	
0.768234	-0.659166	0.048312	-18.13	-49.35	-54.74	-0.3866	0.1471	-0.2519	
0.824354	-0.615002	0.06161	-19.04	-48.58	-45.99	-0.3971	0.1386	-0.2324	
0.871446	-0.610854	0.09162199	-11.62	-38.71	-43.19	-0.3985	0.1416	-0.231	
0.889624	-0.584136	0.045018	-19.67	-40.25	-43.82	-0.4076	0.1336	-0.2249	
0.884256	-0.611586	0.061	-29.54	-40.25	-35	-0.4048	0.123	-0.226	
0.92537	-0.56059	0.085644	-0.14	-30.73	-31.22	-0.4123	0.1177	-0.2111	
0.92903	-0.439078	0.02806	7.98	-26.18	-31.92	-0.4153	0.1159	-0.2051	
0.92293	-0.491904	-0.00427	-3.5	-27.44	-31.08	-0.4182	0.1173	-0.2007	
0.974414	-0.49959	0.014518	-7.21	-33.32	-25.62	-0.4201	0.0958	-0.2	
0.92354	-0.468846	-0.008784	-4.34	-27.3	-27.23	-0.4155	0.1003	-0.1927	
0.955138	-0.491172	-0.020984	-16.8	-29.68	-26.95	-0.417	0.1001	-0.1883	
0.929396	-0.462136	-0.024156	-0.07	-26.32	-25.97	-0.4232	0.0894	-0.1909	
0.925614	-0.457134	-0.030744	-12.11	-27.23	-21.35	-0.4246	0.0906	-0.1821	
0.923418	-0.460794	-0.050264	-8.96	-24.57	-18.83	-0.4246	0.0874	-0.1775	
0.92598	-0.437736	-0.056486	-7.49	-23.38	-15.89	-0.4231	0.08549999	-0.1656	
0.942328	-0.419802	-0.078202	-6.72	-22.82	-13.37	-0.4322	0.0807	-0.167	
0.945012	-0.424682	-0.06405	-8.75	-21.07	-10.85	-0.4203	0.0747	-0.1607	
0.955748	-0.410408	-0.082228	-7.21	-18.97	-9.31	-0.435	0.0867	-0.1657	
0.973438	-0.410042	-0.08906	-7.35	-17.78	-8.61	-0.4292	0.0741	-0.1489	
0.983686	-0.396012	-0.082594	-3.5	-14.77	-8.89	-0.4336	0.0803	-0.1536	
0.985272	-0.395158	-0.084302	-3.43	-10.36	-9.1	-0.4293	0.0727	-0.1533	
0.978074	-0.398574	-0.100162	-3.5	-7.49	-8.75	-0.4337	0.0708	-0.1459	
0.978684	-0.405406	-0.09272	-2.03	-4.27	-8.26	-0.4366	0.0786	-0.1506	
0.960018	-0.38796	-0.098332	1.05	-1.54	-7.77	-0.4307	0.0709	-0.1444	
0.957578	-0.393694	-0.101504	-1.26	-0.28	-6.51	-0.4323	0.0695	-0.1503	
0.948672	-0.398086	-0.10004	-0.77	0.7	-5.74	-0.4322	0.0741	-0.1504	
0.94184	-0.39162	-0.107482	-0.49	2.1	-3.99	-0.4353	0.0694	-0.1503	
0.968314	-0.392962	-0.105286	0.28	2.17	-1.82	-0.4338	0.0678	-0.1473	
0.966484	-0.386618	-0.100162	0.21	3.71	-0.42	-0.4295	0.0635	-0.153	
0.967094	-0.3904	-0.100894	0.63	4.41	0.84	-0.4295	0.0604	-0.15	
0.964288	-0.380274	-0.096014	0.7	3.71	2.52	-0.4308	0.0711	-0.1503	
0.964166	-0.388692	-0.097966	-0.84	3.57	4.69	-0.4399	0.0618	-0.1545	
0.964288	-0.403454	-0.097722	-1.82	3.29	5.81	-0.4383	0.0695	-0.1548	
0.962702	-0.41602	-0.096502	-0.14	4.34	7	-0.4339	0.0668	-0.1621	
0.958432	-0.426756	-0.091012	1.68	5.95	8.26	-0.4293	0.0664	-0.1457	
0.964044	-0.418216	-0.088328	4.34	7	10.01	-0.4278	0.0696	-0.1502	
0.969778	-0.415044	-0.087108	5.46	8.26	11.55	-0.4353	0.0697	-0.1577	
0.968436	-0.41785	-0.0732	7.14	10.43	13.02	-0.4293	0.0728	-0.1548	
0.960994	-0.423828	-0.064782	7.42	11.69	14.84	-0.4367	0.0793	-0.1729	
0.973804	-0.426878	-0.069784	7.56	12.53	16.45	-0.4262	0.0808	-0.164	
0.969778	-0.437736	-0.070882	16.1	18.13	15.47	-0.4262	0.0777	-0.1624	
0.963922	-0.449082	-0.04758	13.93	20.09	17.22	-0.4187	0.084	-0.1655	
0.952454	-0.456646	-0.044652	14.63	22.05	19.67	-0.4291	0.0889	-0.1806	
0.951722	-0.451522	-0.039162	15.05	23.1	22.75	-0.4247	0.086	-0.1834	
0.937448	-0.4575	-0.032452	15.26	27.09	24.64	-0.4274	0.0932	-0.1703	
0.93025	-0.453596	-0.020496	12.88	28.14	27.02	-0.4229	0.0999	-0.1853	
0.92049	-0.461648	-0.01037	14.49	30.73	28.07	-0.4229	0.1017	-0.1943	
0.890478	-0.482144	0.011468	13.58	33.81	29.26	-0.4153	0.1096	-0.1989	
0.879986	-0.488732	0.007564	13.23	33.74	30.17	-0.4213	0.1111	-0.2005	
0.872788	-0.50264	0.02928	11.2	34.86	31.64	-0.4122	0.1223	-0.1856	
0.866932	-0.5002	0.052704	11.83	35.63	32.69	-0.4093	0.1194	-0.2141	
0.862296	-0.512644	0.061122	9.24	37.38	33.04	-0.4092	0.1243	-0.2216	
0.851072	-0.523746	0.072102	5.11	36.82	34.37	-0.4092	0.1274	-0.2247	
0.843264	-0.541802	0.083814	5.74	38.71	34.3	-0.4017	0.1295	-0.2351	
0.836554	-0.56059	0.105408	3.99	39.48	36.61	-0.3913	0.1362	-0.2471	
0.814228	-0.578036	0.11651	5.11	41.93	38.01	-0.3941	0.1386	-0.2294	
0.791902	-0.607804	0.106384	4.83	41.72	39.97	-0.3864	0.1532	-0.2521	
0.796172	-0.601094	0.111874	6.3	42.35	42.21	-0.3803	0.1626	-0.2538	
0.768356	-0.62403	0.134688	6.72	44.87	43.96	-0.3773	0.1692	-0.2674	
0.778726	-0.65026	0.143106	1.19	44.03	48.09	-0.3728	0.1678	-0.2688	
0.74908	-0.657458	0.163846	3.92	45.64	48.65	-0.371	0.1863	-0.2723	
0.726022	-0.672464	0.183854	4.83	46.97	50.82	-0.3696	0.1851	-0.2812	
0.728828	-0.666486	0.202032	4.13	47.6	55.51	-0.3561	0.1937	-0.3022	
0.702842	-0.681126	0.21655	5.53	49.07	54.6	-0.3457	0.194	-0.3021	
0.674172	-0.696986	0.215818	6.37	49.21	55.93	-0.3348	0.214	-0.3012	
0.639158	-0.697474	0.226432	2.31	48.93	58.38	-0.3288	0.2143	-0.3056	
0.63928	-0.715164	0.236924	14.14	54.95	59.78	-0.3331	0.2284	-0.318	
0.603168	-0.718946	0.24766	8.61	54.04	62.09	-0.3168	0.2277	-0.3327	
0.579988	-0.717848	0.255834	9.73	54.04	63.14	-0.3092	0.2387	-0.3374	
0.555832	-0.731756	0.280478	10.01	55.23	62.79	-0.3075	0.2462	-0.3332	
0.516182	-0.760182	0.302316	7.98	53.69	61.67	-0.294	0.2498	-0.3406	
0.479582	-0.790316	0.324398	7.28	52.99	60.76	-0.2835	0.2582	-0.3557	
0.424438	-0.784094	0.34709	10.99	51.87	60.83	-0.2713	0.2741	-0.3665	
0.40626	-0.774944	0.332572	3.99	52.01	60.83	-0.2715	0.2648	-0.3632	
0.39345	-0.784216	0.331718	-1.12	47.53	60.34	-0.2564	0.2744	-0.3664	
0.3599	-0.78446	0.328912	1.12	46.55	58.59	-0.2473	0.2856	-0.3771	
0.321104	-0.798124	0.324154	-1.54	46.62	57.75	-0.2323	0.2923	-0.3846	
0.300486	-0.79666	0.373076	0.28	42.21	54.39	-0.2204	0.2877	-0.3755	
0.26291	-0.787998	0.31842	2.52	37.94	51.1	-0.2171	0.3101	-0.4029	
0.232532	-0.78141	0.345138	4.13	33.46	47.04	-0.2007	0.3086	-0.3938	
0.191784	-0.817278	0.335866	0.91	40.81	43.19	-0.1902	0.3136	-0.3984	
0.174582	-0.794952	0.345138	9.31	32.76	38.78	-0.1796	0.3234	-0.4105	
0.164212	-0.798856	0.36722	7.14	30.45	34.72	-0.1783	0.3142	-0.4102	
0.154574	-0.79544	0.358802	12.18	28.7	28.84	-0.1648	0.3222	-0.4118	
0.151646	-0.80886	0.388082	8.26	21.21	25.27	-0.1605	0.3115	-0.407	
0.152744	-0.809348	0.40016	10.57	18.27	20.86	-0.1634	0.318	-0.4206	
0.15738	-0.816546	0.400282	9.73	18.9	17.08	-0.1543	0.3242	-0.4178	
0.15433	-0.818986	0.405772	12.32	17.29	12.88	-0.1575	0.3163	-0.4131	
0.15311	-0.82655	0.427732	9.1	13.58	10.78	-0.1484	0.326	-0.4222	
0.15921	-0.82838	0.44286	9.73	12.11	8.96	-0.1498	0.3306	-0.4239	
0.1586	-0.835456	0.431636	9.45	9.87	7.07	-0.1471	0.3155	-0.4278	
0.172996	-0.853146	0.444446	7.35	8.47	6.58	-0.1471	0.3153	-0.4219	
0.186782	-0.85705	0.445056	8.68	8.26	6.16	-0.1517	0.3123	-0.4263	
0.203618	-0.872666	0.44286	8.33	8.68	6.79	-0.149	0.3004	-0.4348	
0.212402	-0.881328	0.43493	9.73	10.15	7.84	-0.1412	0.3157	-0.4308	
0.22143	-0.881572	0.438468	12.04	11.9	8.61	-0.1396	0.3171	-0.4249	
0.214598	-0.888038	0.426756	12.95	14.21	9.73	-0.1411	0.3236	-0.4369	
0.213134	-0.908168	0.431758	13.86	17.5	12.32	-0.1396	0.3204	-0.4309	
0.213622	-0.916952	0.441396	15.82	21.63	14.56	-0.1278	0.316	-0.4307	
0.20801	-0.906216	0.434808	19.95	23.94	15.68	-0.122	0.3105	-0.4438	
0.202154	-0.89609	0.431148	23.38	25.83	16.59	-0.119	0.312	-0.4394	
0.19947	-0.889136	0.439566	26.04	28.14	17.64	-0.1116	0.3092	-0.4437	
0.197762	-0.883768	0.445666	27.65	30.03	18.83	-0.1191	0.3076	-0.4452	
0.200812	-0.872788	0.448228	31.5	31.78	19.74	-0.1042	0.3098	-0.457	
0.190564	-0.865956	0.46055	32.48	32.9	20.86	-0.1056	0.3144	-0.4587	
0.170922	-0.860222	0.480924	34.02	35.35	21.77	-0.1018	0.2887	-0.4623	
0.141764	-0.853146	0.477752	35.07	38.22	22.96	-0.0808	0.2923	-0.4652	
0.124196	-0.852536	0.493246	36.47	38.15	24.92	-0.0822	0.2968	-0.4654	
0.1037	-0.840092	0.497882	38.5	40.95	27.44	-0.0779	0.2943	-0.4786	
0.062342	-0.823256	0.53131	38.99	42.91	29.82	-0.0484	0.2845	-0.484	
0.023912	-0.795806	0.548756	38.64	43.33	32.41	-0.0469	0.2831	-0.4869	
-0.0122	-0.790194	0.5795	36.96	43.68	34.09	-0.0412	0.2744	-0.497	
-0.01464	-0.792268	0.591578	35.98	41.51	36.68	-0.0471	0.2756	-0.4912	
-0.021838	-0.767868	0.603534	41.58	43.12	38.64	-0.0174	0.275	-0.4998	
-0.027206	-0.747616	0.608414	44.94	44.66	40.11	-0.0237	0.2595	-0.4964	
-0.05063	-0.723826	0.610732	49.14	47.18	41.3	-0.0087	0.2581	-0.4903	
-0.090036	-0.71065	0.608536	50.68	50.19	41.79	0.0058	0.2528	-0.5049	
-0.151402	-0.68747	0.61427	52.36	49.56	44.1	0.0132	0.2485	-0.5077	
-0.166408	-0.665754	0.598776	50.19	42.84	47.32	0.0293	0.2368	-0.5116	
-0.177022	-0.632326	0.610122	50.68	45.15	48.3	0.0293	0.2387	-0.5221	
-0.185684	-0.595116	0.632814	51.1	47.32	47.88	0.0455	0.2329	-0.5203	
-0.19825	-0.586454	0.644892	49.14	43.05	47.18	0.0557	0.221	-0.5243	
-0.230946	-0.593896	0.659532	48.93	42.56	46.13	0.0586	0.2165	-0.5256	
-0.26535	-0.574498	0.65941	52.78	44.24	43.68	0.0762	0.2031	-0.5236	
-0.286822	-0.533994	0.69967	54.46	45.92	42.35	0.0716	0.2	-0.525	
-0.29341	-0.501664	0.702842	56.14	43.61	40.32	0.0879	0.1958	-0.5263	
-0.306098	-0.487146	0.702476	52.92	44.24	37.38	0.101	0.1776	-0.5182	
-0.337696	-0.462014	0.715896	53.41	45.85	34.16	0.1068	0.1715	-0.515	
-0.358558	-0.43981	0.721142	51.52	43.4	31.99	0.1155	0.1614	-0.5279	
-0.371978	-0.439688	0.734928	47.39	44.1	30.17	0.1154	0.1551	-0.5218	
-0.380152	-0.4331	0.725534	46.27	40.39	27.3	0.1314	0.142	-0.5287	
-0.40992	-0.427366	0.742004	48.37	39.41	24.29	0.1315	0.1417	-0.5198	
-0.440542	-0.427488	0.752618	47.32	38.64	22.05	0.149	0.1251	-0.5161	
-0.46604	-0.42334	0.756644	46.9	37.66	20.93	0.1489	0.124	-0.5265	
-0.497394	-0.40382	0.775432	50.47	40.95	19.95	0.1502	0.1116	-0.5216	
-0.507886	-0.392718	0.780434	45.5	37.1	20.79	0.1603	0.098	-0.5196	
-0.512156	-0.35502	0.776652	46.06	36.54	20.72	0.1661	0.0875	-0.5208	
-0.528382	-0.330986	0.772504	42.77	35.56	21.28	0.175	0.0862	-0.5206	
-0.54656	-0.29951	0.770186	41.93	34.09	21.14	0.1749	0.0847	-0.5221	
-0.557052	-0.277428	0.76677	39.41	31.78	21.7	0.1882	0.0771	-0.5143	
-0.582062	-0.273768	0.758108	34.37	26.67	22.12	0.1909	0.0618	-0.5109	
-0.61366	-0.25681	0.754814	35.63	27.79	21.28	0.1983	0.059	-0.5122	
-0.62769	-0.235948	0.754936	33.88	26.25	21.28	0.1981	0.0496	-0.5045	
-0.624152	-0.225578	0.748104	30.03	20.86	21	0.2128	0.0391	-0.5026	
-0.632082	-0.224114	0.737734	27.79	18.41	21.56	0.2068	0.0378	-0.5115	
-0.64965	-0.200202	0.736148	28.49	18.97	20.3	0.2097	0.0345	-0.5024	
-0.649528	-0.189222	0.737734	26.32	18.62	19.32	0.2143	0.0407	-0.5026	
-0.648308	-0.181048	0.741638	24.22	16.66	19.25	0.22	0.027	-0.5006	
-0.64843	-0.17263	0.721508	22.33	13.37	19.67	0.2288	0.0177	-0.4884	
-0.648308	-0.155428	0.72773	22.05	11.97	19.46	0.2213	0.0146	-0.4928	
-0.664656	-0.14152	0.72651	21.49	11.41	18.97	0.2152	0.0101	-0.4986	
-0.662704	-0.124196	0.745176	20.72	10.78	18.13	0.2166	0.0051	-0.4866	
-0.648552	-0.10919	0.748714	17.92	7.42	17.43	0.2211	0.0038	-0.491	
-0.641476	-0.102358	0.753716	15.61	3.36	16.8	0.221	0.0007	-0.4879	
-0.659898	-0.097844	0.75518	14.91	2.8	15.68	0.2285	0.0024	-0.4894	
-0.669658	-0.084546	0.756522	14.84	1.47	14.14	0.2132	-0.0096	-0.501	
-0.707844	-0.057096	0.769454	13.16	-1.33	11.83	0.2192	-0.0114	-0.489	
-0.733586	-0.045262	0.781654	10.78	-1.89	8.68	0.2268	-0.0084	-0.4831	
-0.690032	-0.062464	0.783484	5.88	-6.65	6.3	0.2192	-0.0161	-0.4874	
-0.656726	-0.054778	0.769454	4.9	-9.17	4.13	0.2146	-0.0159	-0.4948	
-0.66612	-0.045262	0.784704	4.13	-5.39	1.96	0.2254	-0.0036	-0.4922	
-0.66673	-0.032208	0.781898	1.82	-6.37	0.84	0.2192	-0.0129	-0.4904	
-0.664534	-0.030988	0.775432	-1.26	-9.66	-0.42	0.204	-0.0269	-0.4931	
-0.66917	-0.04392	0.781898	-2.1	-9.8	-2.94	0.2131	-0.0192	-0.4903	
-0.647698	-0.044286	0.787388	-1.82	-10.08	-6.02	0.219	-0.0238	-0.4856	
-0.64233	-0.041236	0.791414	-2.66	-10.78	-7.91	0.2145	-0.0237	-0.4901	
-0.637816	-0.041968	0.795074	-4.48	-12.32	-9.52	0.2101	-0.0192	-0.4918	
-0.646722	-0.049898	0.789096	-6.86	-14.14	-11.34	0.2162	-0.0129	-0.4919	
-0.658312	-0.062586	0.803248	-9.8	-16.8	-12.46	0.2042	-0.0179	-0.4889	
-0.651846	-0.05673	0.790316	-10.85	-18.27	-13.86	0.2074	-0.0087	-0.4877	
-0.637084	-0.069052	0.808982	-14.7	-18.41	-15.96	0.206	-0.0009	-0.4939	
-0.624152	-0.087352	0.799954	-18.27	-20.51	-19.39	0.2002	0.0051	-0.4971	
-0.624152	-0.104432	0.806908	-21.56	-21.84	-21	0.1972	0.0035	-0.4971	
-0.616954	-0.108214	0.799832	-23.45	-22.54	-22.68	0.1957	0.0066	-0.5001	
-0.603412	-0.11956	0.795684	-27.44	-25.41	-24.01	0.1854	0.0143	-0.5079	
-0.592554	-0.148474	0.803004	-31.15	-27.3	-25.48	0.1899	0.0126	-0.5004	
-0.589992	-0.155428	0.807152	-31.85	-26.53	-27.02	0.1855	0.0237	-0.5171	
-0.573644	-0.16653	0.794586	-35.21	-28.35	-27.93	0.1722	0.0264	-0.5143	
-0.558638	-0.190686	0.793854	-37.94	-30.66	-28.98	0.1665	0.0401	-0.5177	
-0.546438	-0.21594	0.785192	-39.13	-31.71	-30.66	0.1725	0.0404	-0.5222	
-0.536556	-0.235338	0.770918	-40.11	-32.27	-32.2	0.1638	0.0507	-0.5166	
-0.520574	-0.245098	0.767136	-40.67	-34.72	-33.6	0.158	0.0597	-0.5169	
-0.503128	-0.288164	0.77165	-43.96	-37.73	-34.23	0.1596	0.0676	-0.5231	
-0.501298	-0.312564	0.775066	-44.38	-40.25	-35.42	0.151	0.0796	-0.5221	
-0.475678	-0.336476	0.772016	-46.69	-43.54	-35.07	0.1437	0.0854	-0.5179	
-0.459208	-0.354654	0.772626	-47.67	-46.69	-34.79	0.1274	0.0913	-0.5211	
-0.437858	-0.357704	0.760182	-46.13	-49.63	-35.07	0.1231	0.1022	-0.5319	
-0.393938	-0.406138	0.765916	-49.98	-53.48	-34.37	0.1246	0.1054	-0.535	
-0.380274	-0.432124	0.760426	-50.12	-54.18	-34.44	0.1174	0.1093	-0.5188	
-0.348676	-0.43737	0.762622	-50.12	-54.32	-34.51	0.1041	0.1215	-0.5297	
-0.310368	-0.449448	0.76189	-51.94	-53.34	-34.51	0.0891	0.1183	-0.5356	
-0.271084	-0.459818	0.762988	-53.97	-53.97	-34.3	0.0764	0.147	-0.5337	
-0.250466	-0.47824	0.763964	-56.7	-54.67	-34.51	0.0661	0.1575	-0.5356	
-0.233752	-0.490806	0.743468	-55.09	-57.33	-36.12	0.0631	0.1559	-0.534	
-0.207278	-0.527162	0.749934	-58.94	-56.42	-36.12	0.0497	0.1556	-0.5356	
-0.178364	-0.55144	0.743102	-56.98	-56.77	-37.1	0.0457	0.1717	-0.5183	
-0.146522	-0.572058	0.732854	-57.05	-54.74	-38.01	0.0311	0.1837	-0.5203	
-0.107604	-0.587308	0.716506	-57.12	-57.19	-39.69	0.0193	0.1911	-0.5221	
-0.060268	-0.61	0.70699	-57.4	-55.86	-41.37	0.0118	0.191	-0.5251	
-0.021594	-0.625006	0.697596	-58.24	-54.11	-42.77	0.0046	0.2014	-0.5211	
0.001098	-0.645014	0.674782	-58.1	-53.76	-43.75	-0.0144	0.2117	-0.52	
0.022692	-0.671366	0.662094	-61.46	-46.9	-43.68	-0.0232	0.2141	-0.5083	
0.049166	-0.693204	0.615124	-57.26	-51.45	-45.15	-0.0408	0.2271	-0.4985	
0.082838	-0.71614	0.59414	-55.16	-51.24	-44.52	-0.0434	0.2424	-0.5005	
0.11529	-0.729072	0.568032	-52.43	-47.95	-43.96	-0.0552	0.2466	-0.4962	
0.137738	-0.7564	0.560956	-50.4	-46.06	-42.77	-0.0611	0.251	-0.4949	
0.146644	-0.773236	0.537532	-48.02	-45.08	-40.95	-0.0788	0.2562	-0.4804	
0.163602	-0.790072	0.534848	-45.57	-40.18	-39.69	-0.086	0.2654	-0.4866	
0.186294	-0.78812	0.522038	-43.54	-37.17	-37.59	-0.0963	0.2695	-0.4794	
0.213744	-0.79422	0.504836	-42	-38.43	-35.28	-0.0948	0.2709	-0.4735	
0.218258	-0.810324	0.499712	-38.78	-32.83	-34.09	-0.1111	0.2735	-0.4722	
0.226554	-0.82655	0.493124	-36.96	-31.99	-32.62	-0.1185	0.2731	-0.4634	
0.238144	-0.832772	0.490562	-31.64	-28.84	-30.8	-0.1185	0.273	-0.4604	
0.24827	-0.841556	0.484584	-30.45	-27.09	-27.86	-0.1333	0.274	-0.4561	
0.255346	-0.842288	0.479094	-26.04	-26.46	-25.9	-0.1317	0.2802	-0.4577	
0.262666	-0.834602	0.47275	-24.43	-25.27	-23.38	-0.1419	0.2922	-0.4567	
0.27206	-0.828014	0.47153	-21.63	-22.96	-21.91	-0.1436	0.2797	-0.4504	
0.28426	-0.823012	0.47031	-21.07	-20.37	-20.65	-0.1464	0.2904	-0.4522	
0.290604	-0.825696	0.470066	-20.23	-18.27	-19.53	-0.145	0.2807	-0.4356	
0.280844	-0.824964	0.45872	-18.13	-16.59	-19.53	-0.1569	0.2853	-0.4447	
0.270108	-0.829234	0.450668	-17.57	-16.59	-19.46	-0.1552	0.2913	-0.4405	
0.271816	-0.830454	0.443348	-16.45	-17.22	-18.97	-0.1598	0.2867	-0.4418	
0.26779	-0.819962	0.432124	-14.63	-18.69	-18.97	-0.1657	0.2879	-0.4345	
0.259616	-0.814106	0.425658	-13.09	-21.28	-19.39	-0.1671	0.2859	-0.424	
0.263764	-0.822402	0.425414	-14.63	-24.92	-19.81	-0.1671	0.2859	-0.424	
0.267668	-0.8235	0.419314	-14.91	-26.53	-20.02	-0.1747	0.283	-0.4314	
0.267546	-0.81923	0.403698	-11.97	-28.56	-21.14	-0.176	0.2856	-0.4182	
0.267668	-0.819474	0.386252	-11.06	-32.2	-21.84	-0.1878	0.2931	-0.4244	
0.291824	-0.817278	0.392962	-11.69	-34.65	-23.03	-0.197	0.2821	-0.4197	
0.294874	-0.810202	0.396988	-11.13	-35.28	-25.13	-0.1925	0.2853	-0.4212	
0.29829	-0.809104	0.385276	-10.99	-35.91	-27.51	-0.2	0.2822	-0.4241	
0.310124	-0.812032	0.392474	-11.27	-37.31	-28.35	-0.2131	0.2888	-0.4037	
0.313784	-0.81679	0.38308	-6.79	-38.5	-28.84	-0.2208	0.2794	-0.4005	
0.339892	-0.816302	0.382836	-5.18	-39.48	-29.19	-0.2208	0.2794	-0.4005	
0.355386	-0.811666	0.37454	-2.94	-39.48	-28.42	-0.246	0.2781	-0.3783	
0.361364	-0.802394	0.377834	-0.28	-38.99	-28.07	-0.2432	0.274	-0.39	
0.385398	-0.806542	0.365756	0.84	-39.27	-28.07	-0.2506	0.2687	-0.4007	
0.42334	-0.794098	0.36112	-1.54	-41.16	-27.86	-0.2642	0.2626	-0.3598	
0.464332	-0.771894	0.337086	-2.87	-43.05	-28.07	-0.2597	0.264	-0.4021	
0.493368	-0.776286	0.321104	-7.21	-42.91	-28.98	-0.2613	0.2543	-0.3628	
0.52643	-0.77409	0.316956	-7.63	-41.16	-31.43	-0.2716	0.2601	-0.3601	
0.53619	-0.76738	0.31354	-3.22	-37.38	-34.09	-0.2791	0.2553	-0.3585	
0.53192	-0.75518	0.297924	0.07	-35.42	-36.54	-0.2896	0.252	-0.3585	
0.53436	-0.747616	0.28975	1.19	-36.89	-38.78	-0.3001	0.2453	-0.3465	
0.530212	-0.731268	0.279868	3.5	-36.26	-40.46	-0.3003	0.2328	-0.3387	
0.536922	-0.710528	0.260226	2.73	-38.78	-41.44	-0.302	0.2267	-0.3399	
0.546926	-0.684908	0.241438	0.07	-40.25	-41.3	-0.3184	0.2247	-0.337	
0.57462	-0.660386	0.258762	-2.17	-40.74	-41.79	-0.3125	0.2185	-0.3294	
0.610122	-0.64538	0.269864	2.73	-35.91	-45.36	-0.3138	0.2274	-0.3222	
0.625372	-0.629764	0.234972	-11.41	-45.01	-45.57	-0.3305	0.2118	-0.3219	
0.639524	-0.620614	0.22631	-7.42	-48.02	-48.86	-0.347	0.2001	-0.3309	
0.665388	-0.62708	0.21777	-10.92	-46.97	-50.05	-0.3443	0.1862	-0.2959	
0.677954	-0.614392	0.196786	-6.02	-45.92	-51.87	-0.3487	0.1889	-0.2886	
0.697962	-0.603778	0.17812	-6.65	-46.9	-54.04	-0.3713	0.1796	-0.2988	
0.711626	-0.577914	0.177876	-12.67	-49.21	-55.86	-0.3698	0.1746	-0.2853	
0.752984	-0.588894	0.168482	-5.95	-46.34	-56.7	-0.3715	0.1652	-0.2791	
0.7747	-0.566324	0.13603	-7	-46.06	-58.8	-0.3774	0.1632	-0.2702	
0.760182	-0.565836	0.168238	-8.33	-45.85	-57.19	-0.3941	0.144	-0.2548	
0.785314	-0.579134	0.13115	-8.05	-44.38	-52.5	-0.3853	0.1383	-0.2605	
0.830576	-0.543998	0.120536	-9.17	-42	-46.76	-0.4031	0.139	-0.2473	
0.864736	-0.506544	0.122854	1.33	-33.04	-47.46	-0.3928	0.1297	-0.238	
0.864126	-0.493856	0.129076	-3.85	-34.09	-45.08	-0.393	0.1205	-0.2362	
0.9089	-0.511058	0.128954	-9.94	-34.93	-42.14	-0.3958	0.1278	-0.2261	
0.920124	-0.50752	0.139324	0.49	-28.14	-39.97	-0.4112	0.1047	-0.2314	
0.93696	-0.482754	0.119804	-0.98	-28.84	-38.36	-0.4157	0.09959999	-0.2179	
0.94489	-0.474946	0.10248	0.98	-26.32	-36.12	-0.4172	0.0993	-0.212	
0.912438	-0.461648	0.089914	-0.07	-24.5	-36.75	-0.4157	0.0964	-0.2134	
0.92964	-0.464088	0.092598	-5.74	-27.09	-34.16	-0.4143	0.0918	-0.2132	
0.92537	-0.460672	0.068808	-2.24	-23.38	-33.32	-0.4235	0.081	-0.2144	
0.931592	-0.455914	0.06039	-3.71	-23.31	-30.45	-0.4234	0.0835	-0.1996	
0.933056	-0.433466	0.031964	-2.59	-23.94	-28.07	-0.4162	0.0715	-0.2007	
0.947452	-0.434198	0.021594	-7.21	-23.17	-24.71	-0.4209	0.0606	-0.1974	
0.96502	-0.41968	0.023424	-6.3	-22.61	-21.91	-0.4238	0.0603	-0.19	
0.972828	-0.4331	0.02318	-5.11	-20.23	-20.51	-0.4255	0.0543	-0.1943	
0.964288	-0.42944	0.019764	-6.51	-18.97	-18.55	-0.4193	0.0634	-0.1886	
0.95587	-0.410896	-0.000854	-2.59	-16.52	-17.43	-0.4388	0.0568	-0.1855	
0.956114	-0.4026	-0.01159	-1.33	-15.54	-16.52	-0.4298	0.0553	-0.181	
0.961482	-0.388814	-0.005124	-1.54	-13.51	-14.84	-0.4272	0.0387	-0.1849	
0.946476	-0.37454	-0.0122	-1.68	-12.6	-12.95	-0.4255	0.0444	-0.1717	
0.943182	-0.35868	-0.024888	-2.03	-11.55	-11.48	-0.4255	0.0492	-0.1793	
0.927932	-0.361852	-0.040016	-3.01	-11.48	-10.36	-0.4391	0.0379	-0.1942	
0.924394	-0.365146	-0.057096	-4.41	-11.06	-8.75	-0.4331	0.0379	-0.1641	
0.940132	-0.359046	-0.048068	-3.57	-10.43	-7	-0.4299	0.044	-0.1613	
0.975756	-0.365756	-0.035014	-3.71	-9.45	-6.51	-0.4379	0.0293	-0.1846	
1.050054	-0.379298	-0.021106	-3.15	-10.08	-5.32	-0.4242	0.0351	-0.1654	
1.017602	-0.363682	-0.03233	-4.83	-9.66	-2.87	-0.4272	0.0368	-0.1744	
0.98393	-0.345382	-0.07137	-7.84	-7.07	-1.61	-0.4362	0.035	-0.17	
1.00101	-0.34282	-0.080276	1.89	-4.55	-5.32	-0.4331	0.0364	-0.1655	
1.00162	-0.34648	-0.040382	-0.35	-3.85	-5.32	-0.4317	0.0303	-0.1639	
0.991738	-0.359168	-0.050142	-3.36	0.21	-2.87	-0.4452	0.0286	-0.1683	
0.971364	-0.353068	-0.071736	-5.39	4.69	0.7	-0.4286	0.0361	-0.1536	
0.963556	-0.34953	-0.070638	-4.34	7.7	2.87	-0.4362	0.0335	-0.1714	
0.959042	-0.349286	-0.06734399	-4.2	8.82	4.2	-0.43	0.0409	-0.1597	
0.968558	-0.335744	-0.062464	-1.26	8.47	4.27	-0.4301	0.0348	-0.1625	
0.964288	-0.31964	-0.050386	0.21	7.84	3.22	-0.4287	0.035	-0.167	
0.970876	-0.323422	-0.04575	-0.84	6.93	2.8	-0.4316	0.0395	-0.1671	
0.966972	-0.349408	-0.057462	0.14	6.58	2.1	-0.4348	0.0321	-0.1743	
0.95465	-0.329278	-0.05246	2.03	6.09	2.73	-0.4303	0.0337	-0.1743	
0.95343	-0.330498	-0.036478	1.12	3.22	3.22	-0.4286	0.0432	-0.1821	
0.95038	-0.354288	-0.043676	-1.26	2.87	3.78	-0.4301	0.0365	-0.167	
0.974414	-0.362218	-0.03477	-1.12	2.17	6.93	-0.4329	0.0455	-0.1629	
0.990396	-0.37881	-0.035136	-2.73	2.17	8.82	-0.4375	0.0395	-0.1686	
1.00284	-0.383934	-0.028426	0.84	3.5	10.5	-0.4347	0.0368	-0.1774	
1.003938	-0.368562	-0.023668	6.02	6.86	11.2	-0.427	0.0443	-0.1687	
1.005402	-0.365512	-0.013054	4.69	8.96	12.04	-0.4272	0.0385	-0.1789	
0.99979	-0.375638	-0.017568	6.65	12.74	11.55	-0.424	0.0461	-0.1762	
0.998448	-0.386984	-0.016348	10.64	16.17	12.39	-0.4315	0.0493	-0.1867	
0.983564	-0.404186	-0.017812	8.54	17.78	15.54	-0.4254	0.0557	-0.1899	
0.974536	-0.407358	-0.017202	10.5	21	19.25	-0.4284	0.0572	-0.1899	
0.9516	-0.398452	-0.006832	14.91	26.25	22.4	-0.4121	0.0529	-0.1897	
0.96319	-0.40016	0.000488	7.49	24.43	27.02	-0.427	0.0546	-0.2032	
0.947086	-0.406626	0.006466	7.14	25.06	29.75	-0.4252	0.0682	-0.1992	
0.941474	-0.424682	0.011712	4.76	25.76	32.2	-0.4208	0.0685	-0.2036	
0.937082	-0.435418	0.016104	7.14	25.97	32.97	-0.4207	0.07319999	-0.2097	
0.933422	-0.43981	0.038064	5.18	27.51	34.72	-0.4189	0.0872	-0.2161	
0.927688	-0.45628	0.049898	3.64	30.17	35.77	-0.413	0.0858	-0.2145	
0.918538	-0.459574	0.045872	7.49	32.34	36.47	-0.4067	0.1013	-0.2194	
0.898896	-0.475556	0.063196	3.99	33.74	37.38	-0.4173	0.09519999	-0.2267	
0.884988	-0.48434	0.07808	3.78	35	38.78	-0.4083	0.1034	-0.2373	
0.879986	-0.502274	0.09272	6.44	36.33	39.97	-0.4049	0.12	-0.2289	
0.871568	-0.520818	0.11163	4.06	37.17	41.3	-0.3991	0.1178	-0.2496	
0.859856	-0.530822	0.121512	8.19	40.53	41.58	-0.4005	0.1205	-0.2407	
0.841068	-0.546804	0.143838	6.02	43.26	42.91	-0.3931	0.1226	-0.2526	
0.847046	-0.558516	0.156404	5.67	44.87	44.52	-0.3883	0.1365	-0.256	
0.834358	-0.546682	0.165798	9.38	47.39	44.94	-0.3898	0.1433	-0.2755	
0.81374	-0.571448	0.17812	6.51	49.21	44.45	-0.3762	0.1526	-0.2728	
0.784582	-0.589138	0.180316	6.23	49.42	44.31	-0.3837	0.1513	-0.2847	
0.760304	-0.6222	0.195688	7.84	51.17	45.71	-0.3688	0.1583	-0.3011	
0.743468	-0.626226	0.222772	5.6	52.29	47.18	-0.3656	0.1659	-0.2984	
0.729804	-0.629642	0.238876	7.21	54.95	48.65	-0.3596	0.1725	-0.3074	
0.71187	-0.64416	0.24888	7.42	55.37	49.98	-0.3611	0.1759	-0.3209	
0.688812	-0.654408	0.263276	4.83	55.86	52.92	-0.3428	0.1948	-0.3258	
0.63501	-0.66307	0.271328	7.98	58.59	55.58	-0.3428	0.1981	-0.3319	
0.66612	-0.638914	0.280722	5.32	60.27	59.43	-0.3279	0.1987	-0.3407	
0.611708	-0.639402	0.324032	6.93	54.04	54.88	-0.3113	0.2129	-0.344	
0.581574	-0.66978	0.286334	6.23	54.95	55.93	-0.3097	0.2162	-0.3486	
0.554856	-0.670878	0.30012	5.6	52.99	56.07	-0.3066	0.2257	-0.3578	
0.54229	-0.694668	0.321714	6.37	50.54	55.65	-0.2916	0.2325	-0.3683	
0.519232	-0.728218	0.343064	7.49	49.07	54.6	-0.2841	0.2374	-0.3743	
0.498004	-0.732	0.340624	10.71	49.7	54.25	-0.2796	0.2374	-0.3713	
0.492636	-0.756278	0.370758	8.75	47.11	53.34	-0.2677	0.2444	-0.3907	
0.427122	-0.783118	0.376492	9.59	47.88	52.36	-0.2631	0.2474	-0.3864	
0.398818	-0.767258	0.37454	14.63	48.72	52.15	-0.2451	0.2574	-0.3969	
0.368196	-0.78324	0.39406	5.74	43.47	52.08	-0.2299	0.2718	-0.4077	
0.354044	-0.794464	0.407114	10.78	46.62	51.8	-0.2242	0.2627	-0.4059	
0.327814	-0.785802	0.416142	7.35	45.78	53.06	-0.2149	0.2768	-0.4107	
0.30439	-0.783606	0.427488	8.54	46.2	53.27	-0.2043	0.2862	-0.4095	
0.28609	-0.790682	0.444446	7.07	44.8	53.48	-0.1986	0.2757	-0.4135	
0.253638	-0.79849	0.448838	7.98	45.71	52.92	-0.1836	0.2824	-0.4196	
0.243512	-0.804712	0.427122	8.89	47.11	53.27	-0.1852	0.2813	-0.4344	
0.204472	-0.798978	0.45811	7.77	44.17	52.22	-0.1717	0.2848	-0.4374	
0.189954	-0.801662	0.467504	7.77	45.08	50.12	-0.1509	0.2853	-0.4402	
0.16714	-0.776286	0.445666	13.44	42.91	48.02	-0.1493	0.2882	-0.4344	
0.134322	-0.768234	0.460672	10.57	42.42	45.78	-0.136	0.2858	-0.4461	
0.1037	-0.767014	0.469334	13.79	41.79	42.7	-0.1342	0.3015	-0.457	
0.077104	-0.78446	0.500688	7.77	38.78	41.02	-0.1105	0.296	-0.4581	
0.05063	-0.780556	0.496784	8.96	37.94	38.57	-0.1088	0.3049	-0.451	
0.02074	-0.78385	0.499468	9.94	35.07	35.07	-0.1045	0.3026	-0.4702	
-0.028304	-0.763232	0.49715	10.71	27.37	30.59	-0.0926	0.2998	-0.4685	
-0.037088	-0.76982	0.521672	7.42	23.1	28.14	-0.0896	0.3013	-0.4656	
-0.048678	-0.769454	0.529968	4.2	19.6	26.11	-0.0838	0.292	-0.4578	
-0.054412	-0.75762	0.532042	3.5	17.5	23.24	-0.08199999	0.306	-0.4657	
-0.067588	-0.756766	0.529114	0.56	12.81	20.86	-0.0763	0.2971	-0.4683	
-0.083082	-0.769942	0.546438	-2.03	10.01	17.78	-0.0642	0.3019	-0.4669	
-0.084302	-0.771772	0.529724	-3.08	6.58	15.4	-0.07	0.3111	-0.4717	
-0.088084	-0.77897	0.5429	-1.19	6.72	12.32	-0.064	0.3126	-0.4687	
-0.07442	-0.775188	0.541924	-2.66	1.47	10.85	-0.0641	0.3094	-0.4642	
-0.078202	-0.774212	0.535824	-2.1	0.07	8.33	-0.0593	0.3218	-0.4645	
-0.07869	-0.779214	0.527772	-3.36	-0.98	6.16	-0.061	0.3174	-0.4718	
-0.071614	-0.791536	0.532896	-5.11	-3.22	4.9	-0.061	0.3109	-0.4597	
-0.069418	-0.792024	0.53619	-4.76	-4.27	3.64	-0.0611	0.3111	-0.4657	
-0.05917	-0.80093	0.540338	-5.74	-6.02	2.52	-0.058	0.3174	-0.4718	
-0.049654	-0.801296	0.538752	-6.16	-6.93	1.54	-0.058	0.3127	-0.4657	
-0.03538	-0.804468	0.542046	-6.51	-6.86	0.42	-0.0669	0.3186	-0.466	
-0.010614	-0.803736	0.543266	-7.07	-6.72	-1.26	-0.0669	0.3155	-0.4659	
-0.002684	-0.812032	0.539118	-8.4	-5.6	-2.17	-0.0698	0.3167	-0.457	
0.005856	-0.826428	0.5368	-8.82	-6.23	-2.94	-0.064	0.3141	-0.4658	
