Sensor string: B
Serial number: 1970-01-0000
Firmware version: 2,015
Hardware version: 2,2
Calibration quality: 5
ax	ay	az	gx	gy	gz	mx	my	mz

0.220088	-0.838262	0.456036	-0.98	0	-0.21	-0.1569	0.2115	-0.3877	Reference
0.220576	-0.838872	0.455548	-0.28	0.28	-0.07	-0.1648	0.2202	-0.4176	
0.225944	-0.833504	0.451766	0.35	0.49	-0.07	-0.1526	0.2078	-0.4242	
0.222772	-0.835334	0.449082	-0.07	-0.35	-0.49	-0.1543	0.2128	-0.406	
0.220088	-0.840336	0.457866	-0.56	-0.84	-0.56	-0.1563	0.2034	-0.4073	
0.220942	-0.83936	0.460916	-0.28	-0.21	-0.07	-0.1549	0.2033	-0.4059	
0.222162	-0.834358	0.459696	-0.14	-0.07	0.28	-0.1608	0.2055	-0.4072	
0.22265	-0.83082	0.457134	-0.28	0	0.35	-0.1556	0.2113	-0.4059	
0.222772	-0.832162	0.457256	-0.07	-0.14	0.07	-0.1598	0.2101	-0.4058	
0.221796	-0.831796	0.457256	-0.07	-0.49	-0.21	-0.1627	0.2088	-0.4013	
0.221796	-0.83326	0.4575	-0.28	-0.49	-0.35	-0.1583	0.2084	-0.4014	
0.223016	-0.834358	0.458354	-0.42	-0.28	-0.21	-0.1641	0.2073	-0.3998	
0.223626	-0.83692	0.457012	-0.35	0.07	-0.07	-0.1528	0.211	-0.403	
0.22265	-0.836798	0.45445	-0.21	0	0	-0.1647	0.2011	-0.4086	
0.222528	-0.8357	0.454206	-0.07	0	0.07	-0.1623	0.2072	-0.4131	
0.22204	-0.833382	0.454084	0	-0.21	-0.07	-0.1658	0.2139	-0.4131	
0.221552	-0.834846	0.456402	-0.21	-0.35	-0.21	-0.1534	0.2031	-0.4074	
0.221796	-0.835334	0.455426	-0.28	-0.35	-0.21	-0.1593	0.207	-0.4147	
0.222894	-0.83509	0.452376	-0.07	0	-0.14	-0.1623	0.2072	-0.4116	
0.227774	-0.8357	0.451156	0	0.07	-0.35	-0.1603	0.2133	-0.397	
0.22753	-0.83814	0.450058	0.07	0	-0.56	-0.1526	0.2094	-0.406	
0.22326	-0.841556	0.447618	0.63	0.14	-0.7	-0.1558	0.2113	-0.3985	
0.221918	-0.843874	0.445666	1.33	0.28	-0.49	-0.1537	0.2064	-0.4074	
0.221064	-0.843508	0.4453	1.61	-0.07	-0.42	-0.1542	0.2111	-0.4045	
0.22143	-0.842898	0.446032	1.96	-0.14	-0.35	-0.149	0.2011	-0.4046	
0.221064	-0.842654	0.443226	2.38	-0.28	-0.28	-0.1673	0.2141	-0.4101	
0.220332	-0.845948	0.440786	2.66	-0.56	-0.42	-0.1549	0.2016	-0.3985	
0.218136	-0.852658	0.44225	2.87	-1.12	-0.63	-0.1491	0.2027	-0.4031	
0.216428	-0.852292	0.443592	3.71	-1.19	-0.49	-0.1553	0.2081	-0.4074	
0.219844	-0.845704	0.442616	4.62	-0.91	-0.14	-0.155	0.2065	-0.4118	
0.219478	-0.84668	0.44164	5.11	-1.19	-0.28	-0.1563	0.2051	-0.4133	
0.216062	-0.852414	0.442616	5.46	-1.82	-0.56	-0.1594	0.2053	-0.4043	
0.219478	-0.844728	0.44591	6.86	-1.61	-0.35	-0.1564	0.2051	-0.4103	
0.224968	-0.83692	0.445422	7.63	-1.75	-0.35	-0.1486	0.1963	-0.4001	
0.225334	-0.840458	0.44713	7.28	-2.59	-1.26	-0.1529	0.1951	-0.397	
0.223626	-0.842166	0.457744	7.49	-2.8	-1.68	-0.162	0.2024	-0.4057	
0.224236	-0.838872	0.462746	8.05	-2.1	-1.68	-0.1626	0.1946	-0.3874	
0.225334	-0.835456	0.461526	8.82	-1.54	-1.4	-0.1596	0.2069	-0.4043	
0.226188	-0.833626	0.464576	10.01	-0.98	-1.54	-0.1612	0.196	-0.4146	
0.226066	-0.831674	0.46543	10.64	-0.91	-1.89	-0.1723	0.2067	-0.4158	
0.22631	-0.82899	0.46726	11.27	-1.26	-2.31	-0.1617	0.1833	-0.4071	
0.226188	-0.829722	0.473604	11.9	-1.4	-2.52	-0.1609	0.1912	-0.4101	
0.228018	-0.824232	0.477752	12.46	-1.33	-2.52	-0.1663	0.1886	-0.4159	
0.22997	-0.821914	0.481168	13.3	-0.84	-2.31	-0.1618	0.1866	-0.4145	
0.231068	-0.82472	0.485926	14.42	-0.56	-2.45	-0.1577	0.1877	-0.4116	
0.230092	-0.823988	0.49105	15.12	-0.07	-2.31	-0.1612	0.1785	-0.4115	
0.230214	-0.816058	0.48922	16.52	0.42	-2.45	-0.1602	0.1865	-0.4234	
0.230458	-0.809104	0.496418	17.36	0	-2.8	-0.1585	0.1815	-0.4116	
0.233264	-0.80459	0.498492	17.92	0.28	-3.29	-0.1589	0.1753	-0.4322	
0.233996	-0.809592	0.496174	18.97	0.77	-3.78	-0.1543	0.17	-0.4264	
0.231678	-0.808128	0.499712	19.88	0.84	-4.2	-0.1589	0.1753	-0.4337	
0.23119	-0.804346	0.503494	20.58	0.42	-4.55	-0.1615	0.1724	-0.4321	
0.234362	-0.798612	0.504592	22.05	0.07	-5.04	-0.1581	0.1657	-0.4322	
0.235216	-0.798612	0.509716	23.59	0.49	-5.6	-0.1579	0.1625	-0.4277	
0.237046	-0.801174	0.517402	25.27	-0.07	-6.44	-0.1537	0.1477	-0.4263	
0.242048	-0.798368	0.524234	27.02	-0.21	-7.28	-0.1593	0.1642	-0.4351	
0.245708	-0.796782	0.534238	28.84	0.21	-7.84	-0.1563	0.1481	-0.438	
0.260226	-0.791658	0.543998	28.63	0.21	-8.68	-0.1681	0.1509	-0.4377	
0.250832	-0.7869	0.550708	32.62	1.05	-8.75	-0.1607	0.1485	-0.4364	
0.254614	-0.786168	0.560712	33.67	0.7	-9.38	-0.1633	0.1456	-0.4378	
0.249368	-0.777262	0.564982	35.56	0.7	-9.66	-0.1592	0.1166	-0.4377	
0.25803	-0.761646	0.57706	35.07	0.84	-9.66	-0.161	0.1216	-0.4436	
0.26108	-0.74542	0.588406	37.17	1.61	-9.24	-0.1629	0.1123	-0.4509	
0.260592	-0.715042	0.598166	38.01	1.05	-10.01	-0.1614	0.1105	-0.4435	
0.269986	-0.685762	0.60268	37.31	0.21	-10.29	-0.1653	0.1046	-0.4419	
0.271572	-0.674416	0.619272	35.42	-0.63	-10.15	-0.1584	0.096	-0.4539	
0.265106	-0.655262	0.634522	34.93	-1.19	-9.87	-0.1607	0.1025	-0.4435	
0.264984	-0.634522	0.639646	35.21	-0.63	-9.73	-0.1552	0.0925	-0.4554	
0.264984	-0.619638	0.641476	35	0.42	-9.73	-0.1655	0.0919	-0.4433	
0.26413	-0.608536	0.64233	33.18	-1.12	-10.08	-0.1571	0.0816	-0.4538	
0.27755	-0.603046	0.660996	31.92	-3.64	-10.22	-0.1631	0.0696	-0.461	
0.281576	-0.594384	0.669902	32.76	-3.43	-10.5	-0.1635	0.0569	-0.4564	
0.283406	-0.582794	0.676612	32.9	-3.22	-10.78	-0.1654	0.0618	-0.4549	
0.287066	-0.56913	0.686006	32.76	-3.99	-10.92	-0.1674	0.0508	-0.4489	
0.28365	-0.558882	0.694424	32.83	-5.67	-11.2	-0.157	0.034	-0.4594	
0.294264	-0.546804	0.699426	33.04	-6.65	-11.27	-0.1697	0.0448	-0.4532	
0.295118	-0.534238	0.70333	34.65	-5.74	-11.06	-0.1618	0.0392	-0.4578	
0.305122	-0.524844	0.716018	33.88	-7.14	-10.92	-0.1683	0.0303	-0.4561	
0.308416	-0.508984	0.726266	34.44	-7.49	-11.48	-0.1698	0.0162	-0.4604	
0.325008	-0.489342	0.75335	33.18	-8.68	-11.48	-0.1644	0.0205	-0.4606	
0.33001	-0.478972	0.762744	31.92	-7.91	-11.55	-0.1617	0.0075	-0.4635	
0.335866	-0.470066	0.775676	32.27	-6.51	-10.99	-0.1718	0.008599999	-0.4677	
0.332206	-0.468236	0.76494	32.9	-3.78	-10.85	-0.1653	-0.0016	-0.4831	
0.332938	-0.471164	0.779702	31.5	-4.34	-10.5	-0.1699	-0.0138	-0.4602	
0.34953	-0.461648	0.799222	30.45	-4.41	-10.29	-0.168	-0.0187	-0.4632	
0.360022	-0.456524	0.807274	29.61	-6.51	-10.08	-0.1693	-0.0186	-0.4676	
0.366	-0.446154	0.81313	29.26	-4.41	-10.01	-0.168	-0.0204	-0.4573	
0.362096	-0.43737	0.819352	29.75	-3.43	-9.24	-0.1717	-0.0247	-0.4646	
0.360876	-0.417728	0.815082	29.12	-1.96	-8.4	-0.1752	-0.0196	-0.4586	
0.358802	-0.406748	0.819108	26.81	-1.75	-7.98	-0.1706	-0.0392	-0.4571	
0.362706	-0.398574	0.827648	24.29	-2.66	-7.35	-0.1671	-0.0442	-0.4645	
0.367708	-0.38979	0.831308	23.66	-2.94	-7.07	-0.1683	-0.0473	-0.463	
0.369904	-0.380396	0.83326	23.31	-2.17	-7	-0.1725	-0.0501	-0.4585	
0.37088	-0.366732	0.82533	23.1	-1.19	-6.86	-0.1692	-0.0519	-0.4659	
0.368318	-0.35807	0.827038	21.56	-1.82	-6.58	-0.1728	-0.0611	-0.4613	
0.371978	-0.353068	0.842532	19.53	-3.22	-6.16	-0.1724	-0.066	-0.4598	
0.374418	-0.34038	0.855586	18.69	-2.59	-5.39	-0.169	-0.0584	-0.4526	
0.379176	-0.323422	0.8601	17.15	-2.38	-4.76	-0.1675	-0.0728	-0.4614	
0.386496	-0.323178	0.867298	14.63	-3.22	-4.55	-0.1742	-0.0785	-0.4582	
0.387228	-0.324764	0.867908	13.93	-1.26	-4.55	-0.1698	-0.07889999	-0.4598	
0.38552	-0.320982	0.861442	12.81	-0.49	-3.64	-0.1727	-0.0786	-0.4597	
0.381128	-0.315492	0.865224	11.55	-0.21	-2.8	-0.1675	-0.087	-0.4672	
0.38674	-0.30927	0.874252	8.82	-0.56	-1.89	-0.1778	-0.08769999	-0.4536	
0.384544	-0.306586	0.873886	7.7	-0.35	-1.75	-0.1737	-0.08329999	-0.4612	
0.381372	-0.30927	0.867908	7	0.49	-1.54	-0.1718	-0.0882	-0.4612	
0.377224	-0.313174	0.86376	6.02	0.7	-1.33	-0.1721	-0.0883	-0.4508	
0.378932	-0.316346	0.861686	4.2	0.77	-1.26	-0.1764	-0.0878	-0.4507	
0.38064	-0.319518	0.865956	2.87	-0.21	-0.91	-0.1767	-0.083	-0.4581	
0.376736	-0.319274	0.862662	3.29	0	-0.84	-0.1716	-0.0898	-0.4641	
0.373198	-0.32147	0.858636	2.52	0.28	-0.56	-0.1718	-0.08989999	-0.4553	
0.374052	-0.320372	0.861198	1.75	0.07	-0.28	-0.1724	-0.0834	-0.4568	
0.375882	-0.316224	0.857538	1.75	0.35	0	-0.1715	-0.0931	-0.4567	
0.375028	-0.313662	0.853878	0.91	0.28	0.07	-0.1695	-0.0837	-0.4568	
0.373442	-0.31964	0.851194	0	0.21	0	-0.1739	-0.0849	-0.4478	
0.370392	-0.326594	0.852048	-0.07	0.28	-0.07	-0.1648	-0.0874	-0.4569	
0.366976	-0.327814	0.847412	0.7	1.26	-0.14	-0.1696	-0.0964	-0.4612	
0.366122	-0.330254	0.851682	-0.49	-0.07	-0.07	-0.1704	-0.09	-0.4523	
0.369782	-0.333548	0.85522	-1.05	-0.77	0.35	-0.1765	-0.0862	-0.4552	
0.371246	-0.334768	0.856318	-1.47	-0.28	0.49	-0.1716	-0.0931	-0.4523	
0.372344	-0.3294	0.85339	-2.31	0.14	0.63	-0.1734	-0.0881	-0.4567	
0.373442	-0.328058	0.853268	-2.73	0.28	0.28	-0.167	-0.0935	-0.4613	
0.373564	-0.336842	0.851926	-4.2	-0.35	0.42	-0.1678	-0.0997	-0.4671	
0.379908	-0.333182	0.85034	-4.2	-0.14	0.42	-0.1629	-0.0907	-0.4629	
0.374052	-0.325374	0.850096	-4.55	-0.63	0.21	-0.1735	-0.0865	-0.4582	
0.374052	-0.323666	0.856196	-5.81	-1.26	0	-0.1703	-0.0884	-0.4627	
0.37637	-0.326838	0.857782	-7	-1.26	0.28	-0.1689	-0.0743	-0.4569	
0.378688	-0.329278	0.861564	-8.12	-1.89	0.91	-0.1664	-0.0856	-0.4569	
0.388082	-0.331352	0.861564	-9.1	-2.59	1.12	-0.1682	-0.0806	-0.4628	
0.388692	-0.330254	0.86742	-9.38	-1.33	1.61	-0.1766	-0.0862	-0.4522	
0.391498	-0.324642	0.873032	-10.71	-1.68	2.38	-0.1697	-0.0805	-0.4569	
0.393816	-0.322446	0.870958	-12.11	-1.61	2.73	-0.1595	-0.0815	-0.4615	
0.390888	-0.3233	0.8723	-15.68	-1.82	3.36	-0.17	-0.079	-0.4509	
0.391986	-0.323422	0.870226	-17.15	-1.05	4.06	-0.172	-0.0708	-0.4598	
0.396744	-0.32452	0.871324	-20.44	-2.17	4.9	-0.1656	-0.0794	-0.454	
0.392352	-0.324398	0.859002	-22.26	-1.4	5.39	-0.1826	-0.06659999	-0.4566	
0.385154	-0.332084	0.856196	-24.22	-2.03	5.53	-0.1732	-0.0612	-0.448	
0.38491	-0.340502	0.85339	-26.46	-2.38	6.58	-0.1719	-0.0565	-0.457	
0.38308	-0.342088	0.845948	-28	-2.87	7.21	-0.1734	-0.0564	-0.4554	
0.38064	-0.351482	0.839604	-29.82	-2.73	7.84	-0.18	-0.0478	-0.4524	
0.379664	-0.361974	0.833382	-32.2	-3.15	8.68	-0.1815	-0.046	-0.4583	
0.380762	-0.367342	0.824354	-34.3	-3.08	9.59	-0.1758	-0.045	-0.4599	
0.381982	-0.373564	0.818498	-35.77	-4.13	10.01	-0.181	-0.0366	-0.4524	
0.382714	-0.380518	0.808982	-37.59	-4.2	10.36	-0.1836	-0.0236	-0.4569	
0.383202	-0.392718	0.803492	-39.34	-4.06	10.64	-0.1775	-0.0274	-0.4555	
0.380396	-0.408822	0.792268	-41.44	-5.53	10.57	-0.1846	-0.014	-0.448	
0.378444	-0.428586	0.77897	-43.33	-3.64	10.43	-0.1855	-0.0044	-0.4481	
0.37759	-0.444812	0.771162	-44.94	-3.78	11.34	-0.187	-0.0026	-0.4525	
0.370514	-0.465918	0.760304	-46.55	-3.43	13.23	-0.1882	0.0084	-0.4466	
0.369172	-0.477264	0.74664	-47.6	-2.45	13.79	-0.1833	0.0207	-0.4557	
0.364048	-0.483242	0.731756	-48.37	-1.19	14	-0.1895	0.0229	-0.4452	
0.357582	-0.490562	0.704794	-48.72	-0.14	14.35	-0.1873	0.0322	-0.4527	
0.35502	-0.508252	0.687958	-49.84	-0.28	14.7	-0.1888	0.0323	-0.4497	
0.345626	-0.53558	0.665876	-49.91	-0.77	14.49	-0.1936	0.0535	-0.4483	
0.333548	-0.561322	0.655628	-49.77	-1.75	15.05	-0.1907	0.0516	-0.4454	
0.327814	-0.581818	0.649772	-49.35	-0.28	15.96	-0.1863	0.067	-0.4441	
0.32452	-0.600972	0.634156	-49.84	-0.84	16.8	-0.1839	0.0731	-0.4486	
0.32208	-0.623542	0.62281	-50.33	-1.19	18.13	-0.1898	0.0896	-0.4427	
0.313784	-0.64233	0.594384	-48.79	-1.19	19.04	-0.1931	0.0898	-0.4293	
0.303536	-0.65758	0.578036	-47.39	-0.7	19.88	-0.1877	0.09559999	-0.4339	
0.292068	-0.668804	0.579134	-48.65	-1.19	21.28	-0.1885	0.1036	-0.4295	
0.288042	-0.67222	0.564738	-49.14	-4.13	22.61	-0.1875	0.1099	-0.4355	
0.283772	-0.683444	0.557296	-51.38	-8.26	23.45	-0.1953	0.1154	-0.4324	
0.26962	-0.68625	0.543144	-51.03	-6.72	23.73	-0.1881	0.1289	-0.4223	
0.265472	-0.692106	0.517646	-52.22	-6.65	24.36	-0.1906	0.1419	-0.4268	
0.25986	-0.702354	0.490562	-51.38	-6.3	23.8	-0.1903	0.1513	-0.4165	
0.254004	-0.723704	0.473726	-49	-10.5	23.1	-0.1825	0.16	-0.4123	
0.26962	-0.778238	0.49715	-54.39	-5.39	20.51	-0.1971	0.1757	-0.4076	
0.256566	-0.797026	0.47336	-46.13	1.75	20.09	-0.1907	0.1846	-0.4049	
0.261934	-0.797758	0.45201	-48.72	-0.98	19.95	-0.1897	0.1877	-0.399	
0.261446	-0.792146	0.43127	-46.13	4.13	18.2	-0.1858	0.1936	-0.4021	
0.261934	-0.797758	0.40016	-45.78	1.26	16.8	-0.1794	0.2025	-0.4023	
0.26718	-0.831064	0.392962	-47.53	-0.63	14.42	-0.1937	0.2134	-0.3902	
0.260836	-0.84668	0.373076	-43.19	1.96	12.88	-0.1806	0.2247	-0.3758	
0.252174	-0.858758	0.364292	-44.03	1.19	11.97	-0.176	0.2052	-0.3773	
0.25254	-0.875716	0.342454	-45.08	2.94	10.85	-0.1818	0.2249	-0.3876	
0.233752	-0.8967	0.322202	-44.31	3.22	9.66	-0.182	0.2407	-0.3803	
0.222406	-0.90768	0.30683	-42.98	2.24	8.61	-0.1749	0.2416	-0.3776	
0.217038	-0.912926	0.293654	-40.74	2.45	9.17	-0.181	0.2437	-0.3715	
0.21777	-0.902556	0.285724	-38.36	6.23	10.15	-0.1747	0.2384	-0.3731	
0.205692	-0.904874	0.268766	-38.36	8.19	9.03	-0.1758	0.2496	-0.3717	
0.213134	-0.920856	0.254736	-36.61	7.84	7.42	-0.1822	0.2549	-0.3642	
0.21228	-0.923418	0.241926	-35.98	5.6	5.6	-0.1775	0.2639	-0.354	
0.20679	-0.930616	0.241682	-37.87	1.96	4.55	-0.1716	0.2617	-0.3541	
0.207522	-0.936228	0.235826	-36.61	3.01	3.99	-0.1749	0.2668	-0.3556	
0.207278	-0.951966	0.235338	-34.3	4.27	3.22	-0.1818	0.2786	-0.351	
0.209596	-0.95038	0.232776	-31.92	4.62	3.36	-0.1762	0.2812	-0.3527	
0.209718	-0.95099	0.220698	-30.66	4.62	3.43	-0.1754	0.2859	-0.3439	
0.205814	-0.940742	0.210572	-28.28	6.44	3.85	-0.1802	0.2895	-0.3408	
0.200324	-0.934032	0.190076	-27.79	6.79	4.2	-0.1714	0.2886	-0.341	
0.207766	-0.949038	0.178242	-27.79	6.58	4.97	-0.1663	0.2944	-0.3382	
0.202886	-0.97661	0.170312	-28.56	4.76	5.46	-0.1719	0.2918	-0.3351	
0.199958	-0.998082	0.16531	-26.25	4.69	6.23	-0.1691	0.2947	-0.3396	
0.185562	-1.003206	0.16043	-21.98	6.3	6.93	-0.1618	0.3066	-0.3296	
0.176412	-0.988444	0.141398	-19.74	7.35	7.77	-0.1718	0.306	-0.3323	
0.164212	-0.990274	0.127002	-21.21	6.79	9.1	-0.1597	0.3127	-0.3208	
0.172264	-0.99247	0.12749	-20.44	5.32	9.45	-0.164	0.3115	-0.3177	
0.176534	-0.98027	0.137494	-18.41	4.83	7.98	-0.1624	0.3098	-0.3163	
0.179828	-0.954162	0.145302	-18.34	7.07	7.21	-0.1582	0.3126	-0.3238	
0.193614	-0.954772	0.133224	-19.53	7.14	8.05	-0.1501	0.3165	-0.3137	
0.192882	-0.993812	0.11346	-17.57	5.95	9.52	-0.1571	0.314	-0.3135	
0.156038	-1.011014	0.123708	-12.81	7.91	9.17	-0.1615	0.316	-0.3178	
0.132736	-0.995642	0.139568	-9.24	9.24	7.42	-0.1528	0.3278	-0.3033	
0.12688	-0.970998	0.110532	-7.14	9.38	5.88	-0.1584	0.3284	-0.315	
0.13725	-0.968924	0.096746	-8.12	5.46	5.74	-0.1517	0.3149	-0.3033	
0.132614	-0.95709	0.120658	-7.42	2.8	4.27	-0.1572	0.3331	-0.3195	
0.135298	-0.956846	0.133712	-9.17	0.42	3.01	-0.1573	0.3314	-0.3121	
0.144692	-0.967338	0.122366	-11.13	-0.63	2.38	-0.1439	0.3269	-0.3124	
0.151768	-0.976854	0.121268	-10.99	-1.19	1.82	-0.1436	0.3237	-0.3124	
0.153354	-0.994178	0.118462	-9.66	-1.54	1.26	-0.1516	0.3308	-0.3319	
0.142618	-1.022482	0.124806	-9.31	-2.94	0.84	-0.158	0.3362	-0.2988	
0.13237	-1.016138	0.121634	-4.9	-3.29	0.35	-0.1503	0.3355	-0.3167	
0.139446	-1.005402	0.109678	-3.08	-1.96	0.77	-0.154	0.3406	-0.3019	
0.14579	-0.992714	0.125294	-1.47	-1.89	0.56	-0.1517	0.3308	-0.3034	
0.152256	-0.9821	0.128832	1.82	-1.89	-0.14	-0.1475	0.332	-0.299	
0.142496	-0.9882	0.106506	3.78	-1.47	-0.84	-0.1569	0.3409	-0.3048	
0.142374	-0.976244	0.088938	4.41	-1.19	-0.84	-0.1474	0.3304	-0.299	
0.1525	-0.979172	0.109312	-0.42	-5.74	-0.42	-0.1444	0.3317	-0.3095	
0.155306	-0.979538	0.123952	-1.89	-7.07	-0.84	-0.1555	0.3281	-0.3121	
0.15616	-0.965874	0.107238	-0.49	-4.83	-0.42	-0.1586	0.3283	-0.3047	
0.158478	-0.965874	0.109922	0.07	-5.11	-0.14	-0.1548	0.3343	-0.3048	
0.159332	-0.9516	0.123708	1.05	-6.16	-0.84	-0.1524	0.3388	-0.3049	
0.157624	-0.95587	0.117852	0.35	-5.81	-0.98	-0.1444	0.3334	-0.3154	
0.149938	-0.964654	0.11468	0.42	-6.3	-1.05	-0.1544	0.3279	-0.2988	
0.176778	-0.953796	0.10614	0	-5.04	-1.26	-0.1517	0.3325	-0.3093	
0.168604	-0.958798	0.10919	-1.47	-5.32	-2.87	-0.1582	0.3378	-0.2959	
0.16592	-0.968192	0.115046	-2.38	-6.3	-2.73	-0.1576	0.3314	-0.2973	
0.17141	-0.975268	0.114192	0.63	-5.88	-2.8	-0.1522	0.3214	-0.3048	
0.17446	-0.988444	0.10004	-1.4	-7.49	-3.5	-0.1564	0.3345	-0.3018	
0.170556	-1.002474	0.122366	-2.45	-8.82	-2.45	-0.1605	0.3317	-0.3002	
0.161162	-0.989176	0.109922	3.85	-6.58	-2.45	-0.163	0.3272	-0.2986	
0.162016	-0.980758	0.109434	0	-8.26	-1.61	-0.1619	0.3335	-0.3061	
0.171532	-0.972706	0.1281	1.68	-7.14	-1.19	-0.1594	0.3364	-0.3032	
0.17019	-0.961482	0.117608	3.99	-4.9	-0.91	-0.1686	0.3388	-0.2897	
0.171166	-0.963678	0.12383	3.43	-5.46	-0.21	-0.1619	0.3286	-0.2898	
0.17263	-0.968436	0.121146	2.38	-6.09	0	-0.1669	0.3387	-0.2971	
0.166652	-0.965752	0.11651	3.01	-5.67	0.07	-0.1601	0.3269	-0.2987	
0.169336	-0.964654	0.108824	5.04	-4.13	0.21	-0.1627	0.3239	-0.2971	
0.17934	-0.973194	0.120048	4.55	-5.46	-0.21	-0.1601	0.3285	-0.3031	
0.179828	-0.975878	0.118828	5.32	-5.67	-0.7	-0.183	0.3276	-0.3055	
0.179828	-0.982832	0.114558	5.46	-6.72	-0.98	-0.1635	0.332	-0.2972	
0.175924	-0.993568	0.129198	4.76	-7.63	-1.05	-0.1572	0.3266	-0.2973	
0.182756	-0.970876	0.141886	5.74	-5.39	-1.54	-0.1675	0.3308	-0.3044	
0.186294	-0.95404	0.141642	7.21	-3.29	-1.82	-0.1661	0.3307	-0.3015	
0.187758	-0.955992	0.131638	8.68	-0.77	-1.61	-0.1699	0.328	-0.3147	
0.179706	-0.958188	0.13481	8.05	-1.82	-1.82	-0.173	0.3282	-0.3058	
0.176046	-0.9638	0.142862	7.07	-2.17	-2.87	-0.1682	0.323	-0.3073	
0.175192	-0.961726	0.146156	7.77	-1.47	-3.64	-0.1682	0.323	-0.3044	
0.177388	-0.950014	0.135542	9.24	-0.7	-3.71	-0.1579	0.3203	-0.3046	
0.185196	-0.955992	0.142252	8.4	-1.05	-3.71	-0.1669	0.326	-0.3103	
0.186416	-0.973316	0.154452	8.75	-1.4	-4.13	-0.171	0.3233	-0.3087	
0.184464	-0.982588	0.148596	9.73	-1.05	-4.76	-0.1747	0.3157	-0.3056	
0.179096	-0.978074	0.136396	11.97	-0.63	-5.18	-0.1729	0.3124	-0.3116	
0.17812	-0.98271	0.144692	11.34	-1.26	-5.11	-0.1714	0.3122	-0.3116	
0.175314	-0.974292	0.157868	13.02	-1.89	-4.76	-0.1668	0.3102	-0.3147	
0.181292	-0.965752	0.159088	14	-1.26	-4.48	-0.1716	0.3297	-0.3102	
0.18422	-0.958798	0.16958	14.35	-0.77	-4.2	-0.1694	0.3073	-0.3161	
0.189832	-0.950624	0.166652	13.79	-1.05	-3.71	-0.1814	0.3133	-0.3188	
0.191174	-0.956846	0.178242	13.86	-0.98	-3.64	-0.1723	0.3076	-0.3175	
0.189344	-0.95709	0.171166	16.66	-0.77	-3.64	-0.1796	0.3132	-0.3351	
0.188368	-0.95038	0.171776	17.92	-2.24	-3.85	-0.1726	0.2965	-0.3218	
0.193492	-0.948916	0.185196	18.97	-1.68	-4.62	-0.1826	0.296	-0.326	
0.203008	-0.94489	0.19032	20.02	-1.68	-5.32	-0.1724	0.2998	-0.3411	
0.217404	-0.948672	0.198494	20.02	-1.68	-6.09	-0.1732	0.3046	-0.3293	
0.225212	-0.977464	0.197762	22.75	-0.63	-6.51	-0.1802	0.3021	-0.3291	
0.213988	-0.988566	0.227652	22.96	0	-6.16	-0.1857	0.2995	-0.3304	
0.19764	-0.92781	0.24217	25.55	3.85	-6.02	-0.1777	0.294	-0.3409	
0.225456	-0.904142	0.221308	23.73	3.08	-5.39	-0.1767	0.2828	-0.3379	
0.223016	-0.923418	0.23668	21.42	2.59	-6.3	-0.1761	0.2796	-0.3527	
0.208132	-0.924394	0.248514	22.75	1.96	-6.58	-0.1789	0.2783	-0.3526	
0.209962	-0.926956	0.24339	23.31	2.94	-7.07	-0.1834	0.2787	-0.3436	
0.213744	-0.932324	0.248026	23.38	3.08	-7.49	-0.1777	0.2814	-0.3526	
0.22204	-0.940254	0.2623	21.77	1.19	-7.21	-0.1812	0.2722	-0.3525	
0.22021	-0.924272	0.270352	24.29	3.22	-6.79	-0.1874	0.2776	-0.3538	
0.22631	-0.922686	0.279624	22.75	3.01	-6.09	-0.1869	0.2695	-0.3464	
0.232532	-0.923906	0.290238	21.42	1.75	-5.04	-0.1703	0.2648	-0.3586	
0.233264	-0.928786	0.296704	21.84	1.54	-4.2	-0.1839	0.2583	-0.3656	
0.224602	-0.925614	0.299144	23.73	2.24	-3.92	-0.1772	0.2623	-0.3614	
0.221308	-0.918782	0.30988	24.85	3.29	-3.92	-0.1807	0.2548	-0.3686	
0.225334	-0.913902	0.312198	24.71	2.66	-3.92	-0.1749	0.2542	-0.3673	
0.229482	-0.902434	0.328302	23.38	1.26	-3.57	-0.1817	0.2501	-0.3686	
0.240462	-0.897798	0.349042	22.12	0.28	-3.36	-0.1795	0.2452	-0.3789	
0.245342	-0.894138	0.362706	21.35	0.56	-3.29	-0.1737	0.2414	-0.3687	
0.248636	-0.884012	0.361486	24.43	2.59	-3.22	-0.1786	0.234	-0.3745	
0.247172	-0.87291	0.37088	24.78	4.41	-3.08	-0.1854	0.2299	-0.3757	
0.24949	-0.864614	0.36356	24.85	4.55	-3.15	-0.182	0.2424	-0.3848	
0.256444	-0.85949	0.371612	22.19	3.36	-3.36	-0.1826	0.2313	-0.3803	
0.25376	-0.846314	0.385032	22.05	3.15	-3.5	-0.1748	0.2274	-0.3878	
0.250954	-0.852902	0.391254	20.93	2.87	-3.57	-0.1691	0.2284	-0.388	
0.243878	-0.85461	0.392108	22.4	4.34	-3.36	-0.1773	0.2229	-0.3892	
0.234484	-0.848266	0.420046	19.88	4.06	-3.43	-0.1793	0.2152	-0.3965	
0.23119	-0.843508	0.40199	24.01	5.74	-2.94	-0.175	0.218	-0.404	
0.228506	-0.83021	0.397598	24.36	4.34	-1.75	-0.1795	0.2168	-0.3935	
0.234606	-0.830942	0.41358	19.88	1.05	-1.19	-0.1767	0.2022	-0.3965	
0.229726	-0.82106	0.434686	20.37	-0.35	-0.14	-0.1735	0.2003	-0.3995	
0.233874	-0.81374	0.446886	22.05	-0.7	-0.77	-0.1822	0.1996	-0.3978	
0.236192	-0.80703	0.459452	22.89	-1.75	-1.82	-0.1784	0.2072	-0.4024	
0.234972	-0.798002	0.47641	24.43	-1.96	-2.31	-0.1763	0.199	-0.4009	
0.24339	-0.804834	0.48495	23.8	-1.47	-2.8	-0.1695	0.1905	-0.4084	
0.24339	-0.813618	0.49654	23.45	-1.75	-2.31	-0.1784	0.1929	-0.4082	
0.238998	-0.812642	0.513498	25.2	2.66	-3.08	-0.1781	0.1865	-0.3993	
0.234728	-0.795074	0.498248	31.01	5.81	-3.78	-0.1764	0.1864	-0.4067	
0.237168	-0.77531	0.495686	35.91	5.46	-3.08	-0.1798	0.1772	-0.4095	
0.247416	-0.759328	0.50325	33.6	3.01	-3.01	-0.1731	0.1813	-0.4068	
0.253028	-0.75518	0.531432	27.72	-0.84	-3.36	-0.1702	0.1668	-0.4127	
0.252296	-0.756522	0.53741	26.39	1.54	-3.99	-0.1772	0.1643	-0.4125	
0.250466	-0.75213	0.542046	26.67	2.31	-4.34	-0.1757	0.1658	-0.4169	
0.243512	-0.751398	0.552538	26.46	2.59	-4.76	-0.1637	0.1614	-0.4217	
0.243146	-0.750056	0.548756	27.51	3.78	-4.48	-0.1748	0.1594	-0.4317	
0.244854	-0.741394	0.547414	28.42	5.46	-4.13	-0.1767	0.1452	-0.4212	
0.242414	-0.735904	0.554856	27.86	5.18	-4.34	-0.1633	0.1424	-0.426	
0.241804	-0.730902	0.560834	27.79	4.13	-5.25	-0.1581	0.1356	-0.4349	
0.241804	-0.718092	0.563152	28.14	3.5	-5.95	-0.1683	0.1333	-0.4228	
0.244122	-0.711504	0.569618	26.6	2.73	-7.07	-0.171	0.1337	-0.4346	
0.250832	-0.714798	0.571936	26.18	2.45	-8.12	-0.1667	0.1332	-0.4288	
0.24949	-0.710284	0.570228	28.98	2.8	-8.82	-0.1698	0.1208	-0.4345	
0.240706	-0.698572	0.57706	30.1	2.45	-9.45	-0.1709	0.1162	-0.433	
0.244488	-0.689422	0.582184	30.94	1.54	-9.8	-0.168	0.1191	-0.442	
0.24705	-0.683688	0.589748	32.48	0.91	-10.43	-0.1709	0.1178	-0.436	
0.25315	-0.674416	0.598776	34.02	0	-11.2	-0.1666	0.1047	-0.4449	
0.265228	-0.650382	0.621712	36.89	-0.14	-11.76	-0.1725	0.0911	-0.4505	
0.278404	-0.627568	0.645014	36.26	-1.26	-12.04	-0.1691	0.0843	-0.4447	
0.287676	-0.60512	0.66063	36.82	-0.49	-12.18	-0.1615	0.0804	-0.4463	
0.288652	-0.590358	0.68198	35.84	-0.14	-12.53	-0.166	0.0698	-0.4579	
0.293288	-0.57645	0.681614	36.68	0.7	-12.32	-0.1639	0.0584	-0.4431	
0.287798	-0.560224	0.682224	36.82	1.68	-12.53	-0.1717	0.0672	-0.4533	
0.291336	-0.55571	0.695766	35.49	0.42	-12.74	-0.172	0.0561	-0.4592	
0.290726	-0.554124	0.710528	35.42	-1.47	-12.6	-0.1678	0.0398	-0.4533	
0.294874	-0.5368	0.71614	37.24	-1.12	-12.18	-0.1619	0.0392	-0.4564	
0.302804	-0.520696	0.717482	36.82	-2.03	-12.04	-0.1625	0.0314	-0.4593	
0.305854	-0.511546	0.73017	36.19	-3.08	-12.95	-0.1649	0.0253	-0.4592	
0.307318	-0.507642	0.747006	34.51	-4.62	-13.23	-0.1669	0.0159	-0.459	
0.31598	-0.49776	0.74908	36.05	-4.41	-13.16	-0.1605	0.0232	-0.4533	
0.323056	-0.48861	0.761768	37.17	-3.99	-12.88	-0.1679	0.0113	-0.459	
0.325252	-0.473238	0.777018	37.1	-4.55	-12.53	-0.1731	0.0038	-0.4573	
0.330742	-0.445666	0.799954	35.35	-5.32	-11.9	-0.1728	0.0006	-0.4558	
0.333304	-0.429196	0.805078	34.79	-4.2	-11.69	-0.1715	-0.0121	-0.4617	
0.326594	-0.42944	0.812886	32.27	-4.9	-11.34	-0.1746	-0.0102	-0.4616	
0.33306	-0.425536	0.82167	32.48	-3.99	-10.85	-0.1777	-0.0225	-0.4629	
0.33733	-0.424072	0.828868	31.08	-4.34	-10.5	-0.1693	-0.0361	-0.4616	
0.337574	-0.41724	0.82594	30.73	-3.36	-10.5	-0.1661	-0.0237	-0.4632	
0.3355	-0.409432	0.834236	28.91	-2.66	-9.94	-0.1736	-0.023	-0.4542	
0.340746	-0.39528	0.840336	27.51	-2.59	-8.89	-0.1662	-0.0412	-0.4528	
0.341356	-0.386008	0.842044	26.04	-3.15	-8.19	-0.1732	-0.0421	-0.4585	
0.345016	-0.377468	0.848388	24.22	-4.2	-7.7	-0.1809	-0.0524	-0.4568	
0.35258	-0.369538	0.858636	23.73	-4.41	-7.21	-0.1781	-0.0511	-0.4583	
0.358192	-0.360266	0.860832	22.47	-4.06	-6.44	-0.1717	-0.0581	-0.4614	
0.352458	-0.359534	0.871568	18.69	-5.6	-5.88	-0.1736	-0.0674	-0.4642	
0.357094	-0.347334	0.877302	18.76	-4.62	-4.62	-0.1735	-0.0706	-0.4568	
0.369172	-0.334646	0.878766	17.01	-3.29	-3.15	-0.1735	-0.0706	-0.4568	
0.36966	-0.321714	0.87596	15.68	-1.54	-2.8	-0.173	-0.077	-0.4553	
0.371978	-0.309026	0.880474	12.32	-1.61	-2.31	-0.1759	-0.07669999	-0.4567	
0.371612	-0.310978	0.881816	9.73	-1.89	-2.1	-0.1824	-0.0698	-0.4507	
0.373686	-0.31537	0.87901	8.05	-1.19	-1.96	-0.1713	-0.0788	-0.4598	
0.37393	-0.321226	0.87901	6.44	-0.77	-1.54	-0.1712	-0.0661	-0.4495	
0.37698	-0.318542	0.873154	5.11	-0.84	-1.33	-0.1684	-0.0807	-0.451	
0.376858	-0.321958	0.871568	4.48	-0.28	-0.98	-0.1708	-0.08679999	-0.4479	
0.375516	-0.319884	0.867664	3.15	-0.35	-0.56	-0.1796	-0.0827	-0.4595	
0.373198	-0.318786	0.864126	2.1	-0.35	-0.42	-0.1706	-0.09	-0.4479	
0.375882	-0.322446	0.864004	1.68	0.28	-0.56	-0.1663	-0.0872	-0.4539	
0.37515	-0.32879	0.853634	0.98	0.42	-1.12	-0.1655	-0.0969	-0.4509	
0.37332	-0.332938	0.851194	0.56	0.07	-1.19	-0.1754	-0.0848	-0.4449	
0.376126	-0.337818	0.854244	0.42	-0.42	-0.91	-0.1696	-0.0838	-0.4509	
0.376736	-0.340502	0.853756	0	-0.84	-0.98	-0.1768	-0.083	-0.4552	
0.37454	-0.337696	0.854488	-0.28	-1.05	-1.12	-0.1732	-0.09299999	-0.4463	
0.376248	-0.335134	0.863028	-1.89	-1.61	-1.19	-0.1765	-0.0879	-0.4478	
0.382592	-0.332084	0.859368	-2.38	0.14	-0.56	-0.1742	-0.0801	-0.4523	
0.38064	-0.333914	0.853512	-3.92	-0.28	-0.28	-0.1701	-0.0806	-0.4421	
0.37698	-0.334402	0.851438	-4.06	0.14	-0.21	-0.1691	-0.0902	-0.4494	
0.373808	-0.344894	0.852902	-5.32	-0.28	0.14	-0.1692	-0.0902	-0.445	
0.374052	-0.343308	0.855708	-6.09	-1.26	0.56	-0.1694	-0.0854	-0.4524	
0.37759	-0.339648	0.856196	-6.44	-0.98	0.84	-0.1749	-0.088	-0.4537	
0.382714	-0.335134	0.85949	-7.63	-1.82	1.12	-0.168	-0.0839	-0.4554	
0.38735	-0.332328	0.863882	-8.75	-2.1	1.68	-0.1711	-0.0804	-0.4627	
0.386862	-0.331962	0.862906	-9.52	-1.68	1.96	-0.1749	-0.0721	-0.4553	
0.38247	-0.33306	0.856928	-10.29	-1.61	2.17	-0.1756	-0.0799	-0.4567	
0.382592	-0.338672	0.859246	-12.11	-2.94	2.45	-0.1767	-0.0863	-0.4478	
0.38552	-0.34282	0.864126	-13.72	-3.85	3.01	-0.1842	-0.0791	-0.4595	
0.38308	-0.344772	0.864736	-14.63	-3.5	3.78	-0.1804	-0.0747	-0.4566	
0.384788	-0.3416	0.864126	-16.24	-3.57	4.76	-0.1792	-0.0574	-0.4523	
0.388814	-0.341112	0.858392	-17.99	-3.43	5.53	-0.179	-0.0606	-0.4479	
0.389302	-0.346236	0.85827	-20.72	-3.92	5.95	-0.1775	-0.0608	-0.4479	
0.389912	-0.352092	0.853512	-22.61	-4.13	6.37	-0.176	-0.0609	-0.4524	
0.390522	-0.361242	0.845216	-24.85	-3.64	7.42	-0.1861	-0.044	-0.4537	
0.389546	-0.365634	0.83936	-27.02	-3.64	7.91	-0.19	-0.0516	-0.4447	
0.384788	-0.371002	0.834968	-28.35	-3.01	8.26	-0.1789	-0.0431	-0.4554	
0.381006	-0.381006	0.819718	-29.54	-2.45	8.61	-0.1898	-0.0341	-0.4596	
0.384788	-0.395158	0.810812	-32.2	-3.5	9.17	-0.1864	-0.0265	-0.4494	
0.375882	-0.41297	0.80764	-33.46	-3.43	9.59	-0.1833	-0.0284	-0.4495	
0.379054	-0.429928	0.804102	-35.56	-3.36	9.73	-0.1899	-0.0199	-0.4464	
0.378078	-0.43554	0.78934	-35.28	-1.54	10.29	-0.1798	-0.005	-0.4438	
0.376004	-0.44591	0.776896	-36.61	-1.89	10.64	-0.1894	-0.0071	-0.4554	
0.37149	-0.45811	0.765916	-37.38	-2.24	10.92	-0.1888	-0.0026	-0.4377	
0.37027	-0.47031	0.757254	-38.01	-2.24	10.99	-0.1975	0.0125	-0.4331	
0.362584	-0.486048	0.746518	-38.36	-1.96	11.13	-0.1825	0.0095	-0.4453	
0.357582	-0.497516	0.74176	-39.06	-1.96	11.48	-0.1947	0.0187	-0.4524	
0.357338	-0.50264	0.73566	-39.76	-3.15	12.32	-0.1936	0.0217	-0.4495	
0.356118	-0.507276	0.722484	-39.9	-2.31	12.46	-0.1892	0.0355	-0.4468	
0.352946	-0.52521	0.706502	-40.95	-0.77	12.53	-0.1979	0.0348	-0.4392	
0.343918	-0.551318	0.699182	-41.86	-1.89	12.6	-0.1973	0.0442	-0.4407	
0.33001	-0.571448	0.675026	-40.88	-0.21	12.67	-0.1903	0.0626	-0.441	
0.324154	-0.580598	0.663314	-41.44	-0.84	13.58	-0.1887	0.0609	-0.4411	
0.32269	-0.594628	0.648918	-41.44	1.05	14.56	-0.1891	0.064	-0.4366	
0.321958	-0.606706	0.640744	-41.72	0.42	15.68	-0.1947	0.07889999	-0.441	
0.318542	-0.608536	0.63989	-42.63	-0.42	15.82	-0.1882	0.0862	-0.4383	
0.319762	-0.610976	0.63257	-43.26	0.28	15.47	-0.1958	0.0901	-0.4366	
0.317444	-0.63074	0.609512	-42.91	0.56	14.7	-0.1939	0.09779999	-0.4249	
0.306342	-0.660386	0.59902	-42.14	1.33	14.14	-0.1907	0.0959	-0.4294	
0.294752	-0.676978	0.575352	-39.97	2.31	13.93	-0.1897	0.1148	-0.4251	
0.287554	-0.690642	0.562054	-39.48	2.66	13.58	-0.1899	0.118	-0.4266	
0.288408	-0.695888	0.553514	-37.17	2.38	13.79	-0.1931	0.1231	-0.4325	
0.281942	-0.706868	0.540948	-35.28	4.2	14	-0.1877	0.1257	-0.4282	
0.273402	-0.717604	0.531188	-33.39	4.13	14.63	-0.1827	0.1299	-0.4106	
0.24888	-0.730902	0.528504	-34.58	1.75	15.89	-0.1928	0.1468	-0.4164	
0.251198	-0.73688	0.515206	-35.35	-0.77	16.52	-0.1922	0.142	-0.4223	
0.255102	-0.744322	0.50752	-37.52	-1.12	16.38	-0.1835	0.1554	-0.4152	
0.256688	-0.744078	0.504104	-38.85	-1.96	16.31	-0.1851	0.1571	-0.4152	
0.258762	-0.756034	0.488366	-39.69	-1.75	15.54	-0.1872	0.1637	-0.4122	
0.255346	-0.77714	0.481778	-41.79	-2.17	14.07	-0.1896	0.1575	-0.4077	
0.253882	-0.788364	0.46726	-41.3	-2.87	12.6	-0.1905	0.183	-0.4063	
0.259982	-0.800076	0.455914	-40.88	-4.9	11.2	-0.1822	0.1853	-0.4007	
0.269864	-0.810324	0.462136	-41.72	2.03	8.05	-0.187	0.1889	-0.3946	
0.268644	-0.806298	0.44225	-36.96	7.84	6.37	-0.1868	0.2016	-0.3918	
0.27572	-0.813984	0.416264	-37.45	5.6	5.67	-0.1876	0.197	-0.4006	
0.266692	-0.830942	0.408334	-35.28	9.73	4.06	-0.1882	0.2001	-0.3873	
0.253638	-0.842898	0.3843	-36.4	3.92	3.85	-0.1855	0.2157	-0.3786	
0.24827	-0.859978	0.367952	-38.22	1.96	1.61	-0.1929	0.2038	-0.3872	
0.244732	-0.8845	0.36112	-38.22	1.54	1.61	-0.1799	0.22	-0.3906	
0.24949	-0.90707	0.358436	-38.01	3.43	3.08	-0.1817	0.22	-0.3728	
0.253028	-0.90768	0.347944	-36.19	7	3.92	-0.1784	0.2341	-0.3848	
0.249612	-0.901336	0.329156	-33.32	7.77	4.62	-0.182	0.2391	-0.3744	
0.25132	-0.91073	0.319762	-31.71	7.21	3.78	-0.1722	0.2429	-0.3747	
0.243512	-0.91256	0.320616	-31.71	5.6	2.66	-0.1846	0.2362	-0.3743	
0.238998	-0.908046	0.316834	-30.03	5.18	1.82	-0.1777	0.2529	-0.3657	
0.238022	-0.9028	0.312198	-27.44	8.26	1.05	-0.1837	0.2583	-0.3775	
0.233264	-0.898286	0.306342	-26.04	9.31	0.84	-0.1822	0.2533	-0.3597	
0.225944	-0.904142	0.29646	-24.64	9.73	1.33	-0.1782	0.2577	-0.3628	
0.21472	-0.913414	0.289262	-23.73	7.49	1.68	-0.1681	0.2583	-0.3645	
0.210938	-0.913048	0.297192	-24.15	3.99	2.87	-0.1685	0.2615	-0.3586	
0.210206	-0.91012	0.298656	-24.78	2.52	3.85	-0.1751	0.2717	-0.3645	
0.22326	-0.902312	0.294874	-24.36	1.61	4.97	-0.1692	0.2679	-0.3572	
0.225822	-0.901702	0.293776	-24.36	-0.21	5.95	-0.1711	0.2728	-0.3557	
0.222894	-0.901824	0.291214	-23.59	-0.63	7.14	-0.1749	0.2794	-0.3409	
0.22631	-0.902556	0.283894	-21.77	1.05	8.4	-0.1628	0.2767	-0.353	
0.222528	-0.903776	0.27938	-20.93	2.38	9.45	-0.1703	0.2758	-0.341	
0.207644	-0.904874	0.263032	-20.37	3.36	10.43	-0.1739	0.2857	-0.3483	
0.202276	-0.909754	0.25742	-19.95	3.36	11.41	-0.1761	0.278	-0.3453	
0.192272	-0.919758	0.248514	-17.92	4.48	11.55	-0.168	0.2835	-0.3455	
0.181902	-0.930006	0.243146	-18.48	2.45	11.41	-0.1628	0.2877	-0.3368	
0.179462	-0.928542	0.238876	-18.13	1.26	11.27	-0.1588	0.2937	-0.3443	
0.17629	-0.930738	0.230702	-18.2	2.1	10.5	-0.1629	0.291	-0.3427	
0.168482	-0.933178	0.217648	-18.69	0.77	9.73	-0.1617	0.3066	-0.3355	
0.16592	-0.932324	0.209474	-19.25	0.14	8.4	-0.1565	0.2966	-0.3341	
0.178364	-0.934154	0.210328	-21.98	-1.05	7.07	-0.154	0.3011	-0.3341	
0.183122	-0.936594	0.201788	-24.15	-1.89	6.3	-0.1547	0.3059	-0.3494	
0.18788	-0.933056	0.20252	-24.78	-2.94	5.95	-0.1602	0.3049	-0.3296	
0.193736	-0.931226	0.200568	-24.5	-2.17	6.3	-0.1637	0.3099	-0.3251	
0.18666	-0.928664	0.187758	-24.99	0	6.37	-0.1553	0.3106	-0.3164	
0.177144	-0.945012	0.163846	-22.4	4.34	6.86	-0.1506	0.3086	-0.3225	
0.176168	-0.973316	0.140178	-19.04	7.21	7.91	-0.1641	0.3148	-0.3251	
0.167628	-0.998204	0.125294	-15.05	7.7	7.98	-0.1606	0.3207	-0.3134	
0.15006	-1.005402	0.118584	-11.62	8.26	6.51	-0.1433	0.3205	-0.3139	
0.135298	-1.001132	0.108702	-8.26	6.86	3.92	-0.1582	0.3268	-0.315	
0.137128	-1.00345	0.103456	-7	4.41	3.22	-0.1542	0.3279	-0.3077	
0.13664	-1.00711	0.110898	-7.63	3.29	3.22	-0.1527	0.3278	-0.3078	
0.144204	-0.996008	0.12261	-5.46	3.85	3.01	-0.1493	0.3227	-0.3122	
0.149694	-0.988322	0.12932	-4.69	4.41	2.24	-0.1524	0.3262	-0.3137	
0.147864	-0.976	0.12017	-0.63	8.33	0.42	-0.1423	0.3268	-0.3184	
0.148596	-0.960994	0.112972	-0.77	6.58	-1.82	-0.1421	0.3252	-0.3183	
0.156648	-0.94245	0.118706	-2.59	2.52	-3.29	-0.1528	0.3327	-0.3211	
0.166286	-0.933666	0.126514	-4.34	0.14	-4.41	-0.1445	0.3191	-0.3153	
0.154818	-0.963556	0.123098	-4.55	-1.75	-4.48	-0.1425	0.33	-0.3213	
0.14335	-0.988444	0.122854	-6.37	-3.92	-3.85	-0.1561	0.3345	-0.3107	
0.141764	-0.978318	0.130296	-7.42	-6.3	-3.78	-0.1451	0.3222	-0.3035	
0.152012	-0.957944	0.123098	-7.28	-4.83	-3.85	-0.1497	0.3275	-0.3108	
0.156404	-0.976122	0.108702	-6.65	-2.66	-3.64	-0.1568	0.3234	-0.3032	
0.135176	-1.012234	0.103944	-4.06	-7.07	-4.06	-0.1535	0.3232	-0.3166	
0.147986	-1.00223	0.116998	0.49	-6.65	-3.78	-0.1501	0.3291	-0.3019	
0.162138	-0.995764	0.115168	1.82	-3.36	-4.27	-0.1641	0.3257	-0.306	
0.164334	-0.995764	0.116388	2.03	-2.52	-4.69	-0.1588	0.3316	-0.3106	
0.172996	-0.990518	0.14091	2.66	-2.38	-4.27	-0.1587	0.33	-0.3076	
0.16714	-0.978196	0.138958	-1.05	-1.89	-3.22	-0.1651	0.3211	-0.3059	
0.170312	-0.95892	0.136152	3.78	-1.4	-2.8	-0.1519	0.3182	-0.3048	
0.161284	-0.966484	0.122	2.17	0.07	-1.68	-0.1567	0.3234	-0.3076	
0.153354	-0.968192	0.120414	3.29	0.07	-1.05	-0.1634	0.3193	-0.3104	
0.158966	-0.971974	0.113948	2.94	-0.49	-0.7	-0.161	0.3222	-0.3046	
0.174338	-0.973072	0.12139	3.22	-2.87	-0.63	-0.1597	0.3237	-0.3031	
0.18727	-0.977342	0.12749	2.66	-3.64	-0.91	-0.1638	0.3225	-0.306	
0.186416	-0.970632	0.139934	2.94	-3.36	-1.05	-0.1639	0.3225	-0.3045	
0.183732	-0.97356	0.133102	2.03	-1.96	-1.33	-0.1679	0.3214	-0.3132	
0.179706	-0.982588	0.128344	0.91	-2.45	-0.84	-0.1605	0.3333	-0.3032	
0.18178	-0.970144	0.142252	1.33	-2.45	-0.14	-0.1641	0.3306	-0.3252	
0.18056	-0.958432	0.139812	2.87	-1.26	0.56	-0.1575	0.3188	-0.3164	
0.184586	-0.960872	0.138226	3.01	-1.33	0.14	-0.1579	0.3236	-0.315	
0.18666	-0.958798	0.144204	3.01	-1.54	-0.91	-0.1618	0.3319	-0.3061	
0.188856	-0.952576	0.15128	2.94	-2.1	-1.33	-0.1587	0.33	-0.3091	
0.190198	-0.950136	0.146278	2.45	-1.75	-1.4	-0.1598	0.3253	-0.3031	
0.186782	-0.964532	0.138592	1.26	-2.1	-0.98	-0.1596	0.3253	-0.3105	
0.183976	-0.970876	0.14335	3.08	-2.1	-0.91	-0.1561	0.3203	-0.318	
0.192882	-0.963434	0.146644	4.06	-1.54	-1.26	-0.1685	0.3278	-0.3103	
0.188124	-0.973194	0.144692	5.25	-1.61	-2.17	-0.1688	0.3135	-0.3043	
0.185074	-0.978928	0.150426	5.6	-1.54	-2.52	-0.1536	0.3215	-0.3062	
0.183854	-0.97295	0.152256	7.21	-1.05	-3.01	-0.1646	0.3163	-0.3103	
0.184464	-0.96563	0.14701	9.38	0.42	-3.08	-0.1629	0.3146	-0.3148	
0.18544	-0.967094	0.146644	10.15	0.35	-3.01	-0.1659	0.3148	-0.3118	
0.183976	-0.973072	0.152256	9.87	-0.98	-3.29	-0.1674	0.3182	-0.3191	
0.17568	-0.975024	0.151402	10.78	-1.33	-3.29	-0.1672	0.3134	-0.3102	
0.172508	-0.981978	0.149206	13.3	-1.19	-3.36	-0.1652	0.3084	-0.3147	
0.17934	-0.978562	0.15372	13.51	-2.1	-3.92	-0.1653	0.3101	-0.3177	
0.18483	-0.97051	0.166774	14.21	-2.52	-4.06	-0.1651	0.3085	-0.3191	
0.18788	-0.96868	0.16348	15.61	-1.19	-3.5	-0.1671	0.3134	-0.3132	
0.183122	-0.97539	0.166652	17.15	-1.19	-3.29	-0.1644	0.3021	-0.3265	
0.177266	-0.980026	0.168604	19.74	-1.12	-3.64	-0.1736	0.3045	-0.313	
0.180926	-0.977342	0.163358	21.84	-1.96	-3.22	-0.173	0.3172	-0.3249	
0.188978	-0.962214	0.170312	24.08	-1.61	-3.5	-0.1672	0.304	-0.3353	
0.196664	-0.958432	0.176412	24.29	-1.19	-3.64	-0.1748	0.3079	-0.3337	
0.203252	-0.967826	0.195444	20.86	-2.38	-3.43	-0.1709	0.2981	-0.3367	
0.208254	-0.983686	0.206668	18.9	-2.45	-2.59	-0.1673	0.2914	-0.3441	
0.193492	-0.958188	0.242658	21.49	1.89	-2.52	-0.1764	0.2938	-0.3335	
0.20069	-0.92354	0.240096	24.22	3.85	-1.89	-0.1736	0.2951	-0.3366	
0.226798	-0.918538	0.219844	25.48	5.67	-1.26	-0.174	0.2873	-0.3498	
0.209474	-0.933056	0.24034	25.34	4.69	-3.36	-0.1653	0.2848	-0.3411	
0.200568	-0.942816	0.24339	24.57	4.69	-4.13	-0.1737	0.2841	-0.3483	
0.199714	-0.954406	0.236924	23.52	2.66	-4.62	-0.1636	0.2689	-0.3514	
0.18483	-0.925004	0.259006	23.52	1.82	-4.41	-0.1666	0.274	-0.3647	
0.187514	-0.916952	0.266692	20.51	-0.91	-3.71	-0.1769	0.275	-0.3615	
0.1952	-0.916098	0.285114	19.95	-2.24	-3.01	-0.1739	0.2731	-0.3601	
0.198494	-0.912438	0.296582	20.58	-2.59	-2.31	-0.1718	0.2682	-0.366	
0.207278	-0.90951	0.305366	20.09	-2.31	-2.17	-0.1673	0.2629	-0.3572	
0.210572	-0.910242	0.30439	21.91	-1.26	-2.31	-0.1714	0.2634	-0.3675	
0.211548	-0.913414	0.301706	23.59	-0.49	-2.8	-0.1755	0.2606	-0.3673	
0.213256	-0.91683	0.314638	21.35	-3.36	-3.15	-0.1741	0.2637	-0.3733	
0.20679	-0.909754	0.332572	20.3	-5.25	-3.22	-0.1745	0.2669	-0.3704	
0.216062	-0.91378	0.342088	18.69	-5.88	-3.36	-0.1742	0.2511	-0.3821	
0.218136	-0.914512	0.352458	17.64	-5.32	-2.8	-0.1696	0.2425	-0.3629	
0.220454	-0.907558	0.362584	16.73	-4.69	-1.75	-0.1704	0.2379	-0.3717	
0.22692	-0.889746	0.356972	19.53	-1.54	-0.49	-0.18	0.2342	-0.3774	
0.21899	-0.870836	0.34587	20.79	1.33	-0.07	-0.1719	0.2413	-0.3836	
0.218746	-0.865468	0.341478	19.11	1.26	-0.07	-0.1692	0.2284	-0.385	
0.222772	-0.865102	0.350872	17.64	0.07	0.35	-0.1778	0.226	-0.3803	
0.225944	-0.86437	0.363316	18.13	-0.91	0.21	-0.1781	0.2309	-0.3863	
0.224846	-0.867176	0.379298	18.48	-1.89	-0.84	-0.1693	0.2267	-0.3761	
0.2257	-0.861808	0.377468	20.79	-1.4	-1.75	-0.1702	0.2221	-0.379	
0.219722	-0.847412	0.374784	26.04	0.56	-2.59	-0.1726	0.2335	-0.3835	
0.224114	-0.851438	0.372222	26.67	-3.5	-3.36	-0.1692	0.2158	-0.3997	
0.225578	-0.863882	0.393816	28.07	-3.22	-3.5	-0.1661	0.2123	-0.3953	
0.235582	-0.864248	0.416264	25.34	-5.04	-3.22	-0.1734	0.2146	-0.3966	
0.237412	-0.855708	0.423828	25.34	-5.95	-3.43	-0.1673	0.2124	-0.4027	
0.237412	-0.82777	0.429562	30.66	-4.2	-3.15	-0.1761	0.21	-0.3877	
0.238876	-0.828014	0.444324	32.83	-3.43	-3.64	-0.1761	0.1991	-0.4083	
0.23607	-0.840336	0.460794	29.68	-5.6	-2.94	-0.1713	0.2081	-0.4026	
0.239364	-0.845826	0.467748	31.99	-3.43	-2.8	-0.1826	0.2044	-0.3993	
0.243268	-0.818376	0.474214	38.92	-1.68	-3.08	-0.1704	0.1968	-0.3951	
0.231678	-0.793976	0.475312	42.28	1.4	-4.06	-0.1841	0.1919	-0.408	
0.233142	-0.761158	0.48861	40.95	0.56	-3.57	-0.1738	0.1751	-0.4141	
0.244244	-0.752984	0.50752	37.03	-3.92	-3.29	-0.1721	0.1733	-0.4186	
0.249856	-0.752252	0.518866	35.49	-3.36	-3.71	-0.1753	0.1626	-0.4228	
0.247782	-0.746518	0.527894	36.4	-2.59	-4.97	-0.1727	0.1496	-0.4243	
0.24522	-0.738222	0.533628	38.36	-1.61	-6.16	-0.1831	0.1539	-0.427	
0.248514	-0.73993	0.540948	39.34	-0.84	-7.49	-0.1797	0.1488	-0.4286	
0.252418	-0.740296	0.547902	39.9	-1.61	-8.47	-0.1717	0.1416	-0.4317	
0.259494	-0.736026	0.559614	38.92	-1.54	-9.73	-0.1712	0.1352	-0.4287	
0.265472	-0.724558	0.56974	39.06	-1.54	-10.29	-0.1737	0.1323	-0.4345	
0.264252	-0.70272	0.5795	40.74	1.12	-10.71	-0.1779	0.1312	-0.4344	
0.266814	-0.675636	0.5795	40.46	1.19	-11.34	-0.1779	0.1153	-0.4358	
0.27084	-0.661484	0.5856	38.85	1.19	-12.11	-0.1831	0.1079	-0.4341	
0.271938	-0.662582	0.60207	37.87	0.21	-12.32	-0.1811	0.1046	-0.4415	
0.265716	-0.648064	0.610854	37.24	-0.28	-12.95	-0.1781	0.1043	-0.4446	
0.270352	-0.63867	0.622078	35.84	-2.31	-13.44	-0.1728	0.0926	-0.4417	
0.293532	-0.638792	0.644648	34.44	-3.01	-13.51	-0.1819	0.0824	-0.4443	
0.293288	-0.62464	0.653066	36.82	0	-13.23	-0.1844	0.0812	-0.4561	
0.288896	-0.599386	0.654896	37.8	0.91	-12.95	-0.1789	0.0838	-0.4548	
0.29463	-0.57767	0.674416	36.05	-1.82	-12.6	-0.1818	0.0792	-0.4384	
0.304634	-0.562054	0.691618	35.98	-1.33	-12.46	-0.1848	0.0685	-0.4545	
0.321592	-0.560468	0.703696	34.37	-1.54	-12.95	-0.1742	0.0627	-0.4533	
0.324032	-0.547414	0.7137	35.91	0.56	-13.37	-0.1711	0.0449	-0.4532	
0.322446	-0.524478	0.72468	36.82	1.96	-13.09	-0.1782	0.0424	-0.4486	
0.324032	-0.50386	0.737856	35.56	1.47	-13.16	-0.1805	0.0363	-0.4514	
0.323056	-0.487268	0.748592	34.44	1.96	-12.95	-0.1711	0.0307	-0.459	
0.31842	-0.479338	0.747128	32.97	2.03	-12.46	-0.1719	0.0228	-0.456	
0.323788	-0.472872	0.753716	31.85	2.24	-11.76	-0.1768	0.0138	-0.4603	
0.327204	-0.458964	0.766038	31.64	1.82	-10.92	-0.172	0.0085	-0.4574	
0.328668	-0.45506	0.77165	31.01	1.68	-10.85	-0.1683	0.0161	-0.462	
0.336232	-0.453596	0.779214	29.89	0.49	-10.85	-0.1728	-0.0025	-0.444	
0.332084	-0.44713	0.782996	30.03	0.07	-10.85	-0.1726	-0.0009	-0.4573	
0.333548	-0.443226	0.806664	28.35	-1.19	-10.22	-0.1691	-0.0234	-0.4602	
0.329644	-0.431636	0.803248	28.77	-0.14	-9.59	-0.1707	-0.0201	-0.4631	
0.33306	-0.43432	0.818376	27.02	-1.61	-8.61	-0.1752	-0.0196	-0.4586	
0.329644	-0.423096	0.828258	27.16	-0.7	-7.84	-0.1742	-0.015	-0.4572	
0.335988	-0.410286	0.829234	26.04	0.42	-6.93	-0.1736	-0.023	-0.4542	
0.339526	-0.405528	0.828746	24.85	-0.14	-6.65	-0.1732	-0.0404	-0.4629	
0.340014	-0.406382	0.83448	24.01	-0.35	-6.86	-0.1732	-0.0404	-0.4659	
0.343552	-0.404918	0.847168	23.1	-1.75	-6.79	-0.1675	-0.0427	-0.4542	
0.345016	-0.395524	0.851072	23.38	-1.12	-6.65	-0.1713	-0.0454	-0.4388	
0.348066	-0.388692	0.856318	22.54	-0.28	-6.58	-0.1757	-0.0466	-0.4569	
0.34648	-0.3843	0.859978	21.28	-0.42	-6.23	-0.1713	-0.0613	-0.4629	
0.349652	-0.372344	0.86864	19.53	-0.98	-5.81	-0.175	-0.053	-0.4628	
0.35075	-0.361974	0.87169	17.78	-1.19	-4.83	-0.1669	-0.0474	-0.4616	
0.352214	-0.35258	0.87352	15.96	-0.49	-4.27	-0.1693	-0.0695	-0.4569	
0.349408	-0.345992	0.874862	13.79	-0.35	-3.71	-0.1684	-0.0632	-0.4585	
0.345626	-0.332572	0.87169	11.62	-0.91	-3.08	-0.1797	-0.0636	-0.4656	
0.349042	-0.331718	0.87169	9.1	-1.75	-3.01	-0.1721	-0.0708	-0.4554	
0.348188	-0.327448	0.867664	8.4	-1.61	-2.59	-0.1629	-0.0764	-0.4571	
0.359046	-0.326838	0.869494	6.3	-2.1	-2.17	-0.1735	-0.0755	-0.442	
0.358192	-0.327448	0.867298	6.02	-1.19	-1.96	-0.1673	-0.07759999	-0.451	
0.358802	-0.324642	0.864126	4.9	-1.47	-1.61	-0.1772	-0.0782	-0.4537	
0.361242	-0.326106	0.86864	3.36	-2.03	-1.61	-0.1778	-0.0861	-0.4596	
0.361974	-0.328424	0.869494	1.89	-2.03	-1.54	-0.166	-0.0762	-0.4511	
0.360266	-0.327326	0.864614	1.33	-1.82	-1.12	-0.1687	-0.0759	-0.4569	
0.36234	-0.333792	0.863638	0.21	-1.96	-1.19	-0.1653	-0.081	-0.4584	
0.361852	-0.336476	0.861198	-0.28	-1.33	-1.4	-0.1666	-0.084	-0.454	
0.362462	-0.337452	0.86193	-0.77	-1.54	-1.54	-0.1749	-0.088	-0.4552	
0.366366	-0.342454	0.859734	-0.7	-1.26	-1.26	-0.1734	-0.0865	-0.4641	
0.367098	-0.346968	0.857172	-1.26	-1.68	-1.26	-0.1732	-0.0755	-0.4524	
0.363072	-0.347944	0.85827	-2.1	-2.03	-0.91	-0.172	-0.0883	-0.4538	
0.366122	-0.350262	0.866688	-3.43	-1.96	-0.35	-0.1728	-0.0786	-0.4568	
0.373686	-0.351482	0.864614	-3.99	-0.42	0.84	-0.1724	-0.0851	-0.4508	
0.367464	-0.34831	0.85705	-4.69	-0.07	1.33	-0.1791	-0.0749	-0.4507	
0.368684	-0.346846	0.861442	-6.23	-0.56	1.33	-0.1785	-0.0813	-0.4507	
0.370026	-0.348066	0.861564	-6.93	-0.77	1.68	-0.1716	-0.0788	-0.4465	
0.369294	-0.348798	0.862418	-7.42	-0.91	2.03	-0.1798	-0.0636	-0.4611	
0.372588	-0.34892	0.86559	-9.03	-1.19	2.38	-0.1686	-0.0775	-0.4569	
0.369416	-0.344528	0.863516	-9.59	-1.12	2.87	-0.1768	-0.06879999	-0.4479	
0.36783	-0.33916	0.86376	-10.5	-0.98	3.43	-0.1791	-0.0716	-0.4611	
0.37149	-0.340502	0.863028	-12.88	-1.75	3.78	-0.1676	-0.0712	-0.4599	
0.374784	-0.343796	0.864858	-14.28	-1.89	4.13	-0.1727	-0.06439999	-0.4539	
0.373076	-0.349408	0.859856	-16.03	-2.31	4.41	-0.183	-0.0617	-0.4581	
0.37027	-0.348188	0.858026	-16.73	-1.68	4.69	-0.1706	-0.055	-0.457	
0.373808	-0.351482	0.853268	-18.76	-2.73	5.11	-0.1787	-0.0622	-0.4523	
0.373442	-0.36051	0.849852	-20.16	-3.15	5.18	-0.1823	-0.0539	-0.4538	
0.37149	-0.36478	0.846314	-21.35	-3.15	5.74	-0.1771	-0.0481	-0.4524	
0.375516	-0.371124	0.84607	-24.01	-4.55	6.37	-0.1829	-0.0459	-0.4597	
0.375516	-0.382714	0.834846	-25.69	-4.76	6.72	-0.1779	-0.0417	-0.4451	
0.37576	-0.391986	0.832772	-27.72	-4.41	7.07	-0.1777	-0.04	-0.4584	
0.377468	-0.398696	0.819718	-28.49	-2.94	7.42	-0.1859	-0.0297	-0.4583	
0.374906	-0.406138	0.811422	-30.17	-2.8	7.77	-0.1801	-0.0287	-0.4358	
0.373442	-0.417362	0.802516	-32.55	-3.64	7.63	-0.1874	-0.0137	-0.4524	
0.37088	-0.436638	0.797392	-33.18	-2.52	8.61	-0.1838	-0.022	-0.451	
0.363682	-0.449448	0.783972	-34.3	-2.24	8.26	-0.1881	-0.0073	-0.4495	
0.361242	-0.458232	0.773846	-35.98	-1.54	8.33	-0.1992	-0.0109	-0.4551	
0.355996	-0.467138	0.756522	-35.07	-0.56	8.82	-0.1897	-0.0072	-0.4435	
0.345992	-0.483486	0.743834	-34.93	-1.12	9.66	-0.1858	0.0146	-0.4467	
0.348188	-0.495198	0.73139	-35.28	-2.52	9.94	-0.1959	0.0156	-0.4494	
0.341722	-0.512766	0.722118	-36.4	-3.5	10.01	-0.183	0.0159	-0.4512	
0.347578	-0.530456	0.719556	-37.73	-3.57	10.36	-0.1885	0.0275	-0.4438	
0.35014	-0.537654	0.712114	-36.54	-1.96	10.5	-0.1914	0.0278	-0.4437	
0.344772	-0.549854	0.707234	-36.33	-1.19	10.43	-0.1976	0.0348	-0.454	
0.34099	-0.570838	0.692228	-36.33	-0.84	9.87	-0.1991	0.0476	-0.4392	
0.334646	-0.583648	0.682102	-35.56	1.12	9.73	-0.1968	0.0553	-0.4423	
0.334158	-0.58865	0.668682	-35.84	2.38	10.15	-0.2012	0.0525	-0.4289	
0.3294	-0.596214	0.665266	-37.59	1.68	10.5	-0.1958	0.06	-0.4423	
0.324154	-0.612806	0.663924	-39.27	0.49	10.57	-0.188	0.0671	-0.4608	
0.30744	-0.617564	0.64904	-38.15	1.68	10.71	-0.1901	0.0753	-0.4367	
0.29707	-0.630008	0.63379	-38.85	1.05	11.13	-0.1864	0.0812	-0.4595	
0.286456	-0.64294	0.621956	-39.97	0.21	12.32	-0.1915	0.0897	-0.4097	
0.286822	-0.65514	0.61427	-40.32	-0.91	13.79	-0.1847	0.09209999	-0.4522	
0.291214	-0.670512	0.61976	-41.37	-2.52	14.35	-0.1826	0.1014	-0.4297	
0.295972	-0.674416	0.616222	-39.97	-1.89	14.35	-0.194	0.1152	-0.425	
0.298412	-0.676246	0.601948	-37.24	1.4	13.72	-0.1865	0.1129	-0.4296	
0.289994	-0.673196	0.575108	-35.7	3.08	13.3	-0.1813	0.1188	-0.4268	
0.28426	-0.676124	0.559614	-36.54	3.01	12.88	-0.179	0.1249	-0.4269	
0.285724	-0.692106	0.553026	-38.78	0.42	12.81	-0.1848	0.1238	-0.4224	
0.28487	-0.700646	0.54839	-39.34	-1.68	13.02	-0.184	0.1459	-0.4181	
0.280966	-0.703574	0.53985	-41.93	-0.77	13.02	-0.1863	0.1382	-0.4135	
0.276574	-0.711748	0.528748	-42	-0.21	12.32	-0.1855	0.1477	-0.421	
0.266448	-0.71736	0.515572	-43.26	1.89	11.13	-0.1816	0.1488	-0.4078	
0.263642	-0.733098	0.493856	-44.52	-0.77	10.64	-0.1833	0.168	-0.4094	
0.264618	-0.75518	0.473848	-45.15	-2.87	10.57	-0.1819	0.1695	-0.4139	
0.26169	-0.775798	0.463356	-44.17	-3.15	10.57	-0.1943	0.1771	-0.4092	
0.259982	-0.78446	0.46116	-44.38	-6.16	10.5	-0.1861	0.1826	-0.4079	
0.260714	-0.79544	0.45018	-44.38	-10.57	11.34	-0.1828	0.1901	-0.3962	
0.259128	-0.81252	0.446154	-41.02	3.64	9.1	-0.1865	0.2	-0.4006	
0.248514	-0.814594	0.416508	-35.98	6.79	8.82	-0.1927	0.2054	-0.4005	
0.247294	-0.829112	0.400282	-36.33	8.12	7.49	-0.1875	0.208	-0.3888	
0.252906	-0.83631	0.375028	-35.49	2.38	7.91	-0.1815	0.2233	-0.3965	
0.264984	-0.846192	0.372222	-37.87	-4.69	7.56	-0.1944	0.2214	-0.3902	
0.26901	-0.866688	0.373442	-39.41	-8.26	7.28	-0.1879	0.2254	-0.3771	
0.269376	-0.880718	0.36783	-38.92	-5.74	7.49	-0.1844	0.2187	-0.3787	
0.255956	-0.880596	0.347334	-35.21	2.52	7.7	-0.1867	0.2301	-0.3831	
0.239852	-0.891088	0.322446	-32.69	6.79	8.33	-0.1852	0.2426	-0.3744	
0.233752	-0.892918	0.31659	-33.11	6.86	9.38	-0.1842	0.2472	-0.3729	
0.228628	-0.891454	0.316224	-35.14	7.21	10.01	-0.1792	0.2404	-0.3745	
0.23058	-0.89365	0.30805	-36.4	5.18	10.08	-0.1789	0.2498	-0.3642	
0.227408	-0.899628	0.299876	-37.03	4.27	9.38	-0.1876	0.2649	-0.3582	
0.224358	-0.906338	0.289262	-35.49	4.2	8.82	-0.1824	0.2708	-0.3554	
0.207034	-0.905484	0.28304	-33.46	3.92	8.54	-0.1752	0.27	-0.3541	
0.202154	-0.904874	0.275476	-30.94	4.13	8.33	-0.1823	0.2692	-0.3569	
0.197518	-0.91317	0.266448	-29.26	3.01	8.33	-0.1692	0.2679	-0.3557	
0.203984	-0.912316	0.254736	-28.84	0.77	7.98	-0.1837	0.2803	-0.3407	
0.205082	-0.90585	0.242902	-26.81	1.47	8.05	-0.1693	0.2804	-0.3395	
0.213622	-0.92049	0.237656	-25.9	2.73	7.84	-0.1828	0.3008	-0.3334	
0.206546	-0.935618	0.236192	-26.04	2.31	7.35	-0.1695	0.2979	-0.3367	
0.195566	-0.944402	0.229116	-24.85	2.52	6.51	-0.1772	0.2859	-0.332	
0.192882	-0.947086	0.21594	-25.34	1.68	6.02	-0.1696	0.2995	-0.3382	
0.191296	-0.940376	0.207278	-25.48	0.98	6.09	-0.1715	0.3028	-0.3322	
0.185562	-0.923662	0.193004	-28.35	1.68	7	-0.18	0.3021	-0.335	
0.184952	-0.92354	0.179828	-28.63	3.01	7.42	-0.1673	0.3024	-0.3264	
0.177388	-0.93086	0.170434	-27.16	3.92	7.98	-0.1753	0.3111	-0.3263	
0.176168	-0.945012	0.156404	-26.39	5.53	8.05	-0.1626	0.3146	-0.3252	
0.185684	-0.963678	0.141764	-26.04	6.51	7.77	-0.1671	0.3134	-0.3162	
0.17751	-0.959042	0.142008	-27.02	4.27	6.51	-0.1561	0.3186	-0.312	
0.179462	-0.957456	0.123708	-27.3	3.78	5.6	-0.1632	0.3194	-0.3193	
0.174826	-0.974414	0.11773	-28.07	4.41	5.04	-0.1662	0.318	-0.3088	
0.168116	-0.97783	0.11224	-26.32	4.06	5.25	-0.157	0.3282	-0.3121	
0.166774	-0.986614	0.097722	-23.8	5.6	5.04	-0.1637	0.3225	-0.3104	
0.164456	-0.996496	0.08784	-20.58	9.73	4.55	-0.153	0.3277	-0.2944	
0.154696	-1.009916	0.081496	-16.66	10.57	3.43	-0.1697	0.3373	-0.2956	
0.145546	-1.014186	0.06649	-14.49	9.17	1.75	-0.1544	0.3295	-0.3033	
0.149816	-1.013454	0.062586	-13.93	6.65	0.84	-0.1604	0.3301	-0.2972	
0.15982	-1.022238	0.05795	-13.93	3.99	-0.35	-0.1549	0.3343	-0.3018	
0.141154	-1.01077	0.067588	-10.57	2.8	-1.68	-0.1568	0.3376	-0.2959	
0.148718	-1.005646	0.064904	-7.21	3.22	-1.68	-0.1527	0.3388	-0.2901	
0.15006	-1.0004	0.069784	-4.83	3.85	-1.96	-0.1636	0.3336	-0.2986	
0.142618	-1.010648	0.05917	-6.02	2.24	-2.03	-0.1594	0.3347	-0.2958	
0.14335	-0.99308	0.062342	-5.11	1.89	-1.82	-0.1554	0.3375	-0.2944	
0.153842	-0.98149	0.059658	-2.24	3.29	-1.19	-0.1563	0.3471	-0.2915	
0.161406	-1.005158	0.050508	-1.96	2.94	-0.84	-0.1523	0.3356	-0.2945	
0.149572	-0.99796	0.055266	-1.19	-0.56	-1.61	-0.1575	0.3424	-0.2826	
0.153842	-0.984296	0.063806	-1.19	-2.1	-1.54	-0.1619	0.3461	-0.2943	
0.158234	-0.984906	0.066246	0	-1.4	-1.54	-0.1477	0.3462	-0.2858	
0.156892	-0.991616	0.063196	-0.42	-3.43	-2.17	-0.1612	0.3364	-0.2884	
0.155184	-0.994788	0.05795	-1.33	-5.67	-2.52	-0.1648	0.3464	-0.2972	
0.155672	-0.995276	0.055144	-0.21	-6.09	-2.1	-0.1611	0.3507	-0.287	
0.159332	-1.000278	0.056364	0.21	-6.09	-1.47	-0.1601	0.3395	-0.287	
0.1647	-1.000644	0.058316	-0.49	-6.86	-1.4	-0.1625	0.335	-0.2883	
0.173118	-0.991128	0.074786	-1.12	-7.84	-1.82	-0.1638	0.3352	-0.2957	
0.180804	-0.998692	0.078446	-0.84	-9.38	-2.66	-0.1569	0.3392	-0.2959	
0.178242	-0.996252	0.06832	2.45	-6.72	-2.73	-0.1639	0.3368	-0.2972	
0.171288	-1.004548	0.062098	2.94	-5.25	-2.38	-0.1602	0.3395	-0.281	
0.176412	-1.007598	0.07905599	1.26	-7.56	-1.89	-0.1673	0.3402	-0.2897	
0.181414	-0.987102	0.07991	3.99	-5.6	-2.03	-0.1643	0.3399	-0.2913	
0.185196	-0.970388	0.071858	4.34	-4.69	-1.4	-0.1762	0.3427	-0.2895	
0.186294	-0.969046	0.07625	3.15	-5.46	-0.91	-0.1687	0.342	-0.2956	
0.180316	-0.97478	0.08174	2.24	-5.74	-1.05	-0.1673	0.3386	-0.2823	
0.170556	-0.981368	0.082106	1.68	-5.25	-0.7	-0.1758	0.3395	-0.2939	
0.174216	-0.981612	0.072956	2.59	-5.18	-0.07	-0.18	0.34	-0.2968	
0.186416	-0.981124	0.076982	3.36	-5.88	0.14	-0.1692	0.3309	-0.2955	
0.190564	-0.9821	0.084302	6.37	-4.48	-0.14	-0.1726	0.3344	-0.2881	
0.184708	-0.996008	0.07503	7.63	-4.34	-0.56	-0.1652	0.3337	-0.2897	
0.18178	-1.005036	0.08174	7.56	-5.88	-0.98	-0.1714	0.3374	-0.2881	
0.18361	-0.995642	0.092476	8.54	-6.58	-0.98	-0.1662	0.329	-0.2926	
0.188734	-0.97173	0.099796	11.48	-4.27	-0.84	-0.1749	0.3315	-0.2983	
0.197274	-0.977464	0.097722	12.81	-3.71	-0.77	-0.1672	0.326	-0.297	
0.197152	-0.984174	0.108092	13.65	-3.08	-1.47	-0.1689	0.3277	-0.2955	
0.194956	-0.96807	0.107848	14.28	-2.03	-2.45	-0.1747	0.3283	-0.2969	
0.189588	-0.963434	0.106628	15.33	-1.26	-2.8	-0.1738	0.3203	-0.3027	
0.186782	-0.963678	0.109068	14.98	-0.56	-2.52	-0.1614	0.3254	-0.2972	
0.18361	-0.967216	0.11773	15.12	-0.84	-2.87	-0.1718	0.3138	-0.3013	
0.182878	-0.974902	0.121512	16.66	0.07	-3.22	-0.1706	0.3168	-0.3028	
0.180072	-0.978318	0.120292	19.25	0.7	-4.13	-0.1685	0.3103	-0.3072	
0.18483	-0.980636	0.127002	19.95	0.84	-5.18	-0.178	0.3192	-0.3041	
0.185928	-0.978684	0.140544	20.23	1.89	-6.3	-0.1771	0.3144	-0.3233	
0.188124	-0.97722	0.1403	22.26	2.59	-6.79	-0.1705	0.3185	-0.3117	
0.183976	-0.970876	0.160064	22.68	2.66	-6.72	-0.1837	0.3214	-0.3128	
0.187636	-0.945622	0.177266	23.66	3.57	-6.37	-0.1765	0.308	-0.3218	
0.195322	-0.925248	0.174826	24.08	4.13	-5.81	-0.1717	0.3028	-0.3219	
0.20496	-0.93513	0.187392	22.68	3.57	-5.81	-0.1732	0.3046	-0.3293	
0.203374	-0.940254	0.195078	24.5	4.48	-6.86	-0.1801	0.3005	-0.3246	
0.207522	-0.941596	0.199104	26.11	0.7	-7.84	-0.1737	0.2951	-0.3307	
0.20374	-0.939888	0.210084	27.65	0.21	-8.89	-0.1748	0.2937	-0.341	
0.201422	-0.931104	0.220576	28.07	-0.07	-9.8	-0.1853	0.3012	-0.3511	
0.208498	-0.94367	0.226676	27.51	-0.42	-10.29	-0.1755	0.2858	-0.3394	
0.208864	-0.944524	0.24095	28.84	-0.14	-10.08	-0.1832	0.293	-0.3481	
0.216428	-0.929518	0.248758	28.63	-0.49	-9.59	-0.18	0.2736	-0.3466	
0.219478	-0.918294	0.25498	28.07	-0.07	-9.03	-0.1817	0.2786	-0.354	
0.229116	-0.915976	0.266692	26.32	-0.35	-8.75	-0.1823	0.2801	-0.3377	
0.232654	-0.915854	0.279502	26.18	0.35	-8.75	-0.1796	0.2688	-0.3451	
0.231434	-0.897554	0.285602	28.49	1.82	-8.47	-0.1852	0.2694	-0.3553	
0.234484	-0.883768	0.29402	27.65	0.42	-8.68	-0.1841	0.2583	-0.3597	
0.236192	-0.884622	0.30622	26.18	-0.77	-9.17	-0.1877	0.2633	-0.3478	
0.236924	-0.889136	0.315492	25.97	-0.84	-9.24	-0.1823	0.2549	-0.3597	
0.242292	-0.890844	0.322812	24.99	-1.26	-9.1	-0.1889	0.2492	-0.3654	
0.254858	-0.891942	0.337452	22.61	-2.66	-8.4	-0.1933	0.2513	-0.3683	
0.263276	-0.896212	0.35197	21	-3.36	-7.77	-0.1944	0.2466	-0.3682	
0.268644	-0.878156	0.356362	22.75	-1.54	-7.28	-0.188	0.2413	-0.3728	
0.276452	-0.867908	0.357216	22.33	-1.75	-6.72	-0.1938	0.2402	-0.3682	
0.281332	-0.862296	0.361242	21.21	-2.24	-5.88	-0.191	0.2415	-0.3698	
0.277794	-0.862296	0.36905	19.39	-2.52	-4.83	-0.1913	0.2289	-0.3667	
0.285724	-0.86864	0.371368	17.64	-2.24	-3.64	-0.1931	0.2338	-0.3741	
0.286944	-0.861564	0.376736	18.34	0.07	-3.22	-0.1808	0.2263	-0.3773	
0.285236	-0.855586	0.382958	18.55	1.33	-3.08	-0.1935	0.2228	-0.3725	
0.285968	-0.84912	0.387228	19.04	2.8	-2.87	-0.1957	0.2167	-0.3784	
0.28121	-0.840214	0.394304	18.55	2.31	-2.66	-0.1948	0.223	-0.3814	
0.276086	-0.833748	0.40931	17.15	2.1	-2.8	-0.1923	0.2116	-0.3799	
0.275964	-0.83936	0.407114	16.38	2.24	-2.94	-0.188	0.2144	-0.3889	
0.275842	-0.849608	0.41602	15.05	2.31	-2.59	-0.1815	0.2058	-0.389	
0.267912	-0.842654	0.425536	15.96	3.57	-1.54	-0.1963	0.2088	-0.3842	
0.259494	-0.837896	0.4331	16.31	2.8	-1.05	-0.1906	0.2115	-0.3932	
0.258762	-0.817888	0.447618	19.25	4.48	0.14	-0.1906	0.2099	-0.3873	
0.259128	-0.810934	0.459574	18.69	3.85	0.14	-0.1838	0.2013	-0.3948	
0.26047	-0.809714	0.470432	18.69	4.06	0.35	-0.1851	0.1982	-0.3903	
0.260958	-0.797636	0.471774	19.39	5.18	0.7	-0.1806	0.1962	-0.3919	
0.265838	-0.784094	0.478362	19.39	5.88	0.98	-0.1854	0.2015	-0.3918	
0.270718	-0.776286	0.475312	17.29	4.27	0.98	-0.186	0.1936	-0.3962	
0.269864	-0.772626	0.488122	15.54	0.91	1.26	-0.1792	0.1851	-0.4052	
0.2684	-0.77592	0.497516	13.16	-0.91	1.12	-0.1794	0.185	-0.3992	
0.2623	-0.785558	0.504836	18.13	4.2	0.56	-0.1867	0.189	-0.408	
0.262788	-0.792634	0.507886	20.02	5.11	0.21	-0.1813	0.1916	-0.4037	
0.25559	-0.794342	0.517524	20.86	3.85	0.56	-0.1874	0.1812	-0.4108	
0.254858	-0.773602	0.51118	21.77	3.99	1.47	-0.1856	0.1762	-0.4049	
0.252784	-0.752618	0.511668	19.95	1.33	1.26	-0.1753	0.1736	-0.4067	
0.258762	-0.758352	0.533628	16.52	0.07	1.54	-0.1884	0.1765	-0.4093	
0.266814	-0.7686	0.532652	14.49	0.14	1.68	-0.184	0.1777	-0.4183	
0.267668	-0.758352	0.550952	17.57	2.03	1.96	-0.1732	0.1687	-0.4156	
0.270596	-0.735294	0.561932	15.4	2.38	1.96	-0.1738	0.1624	-0.4244	
0.274988	-0.731024	0.56913	11.83	2.1	1.05	-0.1792	0.1566	-0.4168	
0.27694	-0.733586	0.574498	9.73	3.22	0	-0.1686	0.1666	-0.4186	
0.276452	-0.720898	0.576938	8.96	5.32	-0.7	-0.1825	0.1601	-0.4153	
0.274988	-0.71248	0.574986	7.28	7.49	-1.75	-0.1808	0.16	-0.4227	
0.269864	-0.711992	0.567422	6.72	9.45	-2.52	-0.176	0.1547	-0.4243	
0.263764	-0.708088	0.555222	5.88	10.15	-2.87	-0.165	0.1616	-0.429	
0.260958	-0.710772	0.554368	2.24	8.19	-3.36	-0.1791	0.1566	-0.4242	
0.262666	-0.72285	0.561566	1.61	7.42	-3.71	-0.1732	0.1577	-0.4332	
0.26474	-0.732	0.565714	2.17	7.91	-3.78	-0.1646	0.1551	-0.4186	
0.260958	-0.735294	0.560712	2.73	7.28	-4.27	-0.17	0.1525	-0.4244	
0.252662	-0.731634	0.569862	3.5	6.37	-5.04	-0.1716	0.1559	-0.4318	
0.254858	-0.738344	0.566446	4.34	5.81	-5.25	-0.1786	0.1693	-0.4302	
0.264008	-0.745054	0.572302	4.48	3.78	-4.27	-0.1667	0.1491	-0.4318	
0.263276	-0.735294	0.580476	4.2	2.1	-3.64	-0.1684	0.1667	-0.4245	
0.272304	-0.722118	0.584136	4.34	0.91	-2.73	-0.1727	0.1529	-0.4332	
0.275476	-0.722606	0.580842	5.53	0.7	-2.59	-0.1783	0.1502	-0.433	
0.273646	-0.721386	0.58316	5.46	-0.91	-2.24	-0.1748	0.1578	-0.4258	
0.273768	-0.714798	0.585478	5.25	-2.59	-1.54	-0.1623	0.1486	-0.4305	
0.279502	-0.702476	0.590114	5.74	-3.71	-0.91	-0.1694	0.1461	-0.4258	
0.285968	-0.700036	0.596824	4.62	-4.69	-0.77	-0.1651	0.149	-0.4378	
0.284504	-0.710284	0.60756	3.01	-5.32	-0.91	-0.1686	0.1398	-0.4347	
0.281576	-0.716506	0.612806	2.03	-5.53	-0.77	-0.1604	0.1437	-0.432	
0.284382	-0.71919	0.611464	1.47	-4.76	0	-0.1678	0.1428	-0.4214	
0.28731	-0.725412	0.614514	0.84	-4.06	1.19	-0.1754	0.1467	-0.4183	
0.288408	-0.727608	0.613538	0.49	-3.57	2.31	-0.1687	0.1397	-0.4303	
0.2928	-0.73139	0.61671	-1.54	-3.71	3.29	-0.1635	0.1456	-0.4289	
0.293776	-0.733342	0.615124	-2.38	-2.8	4.62	-0.1734	0.145	-0.4346	
0.292556	-0.735172	0.617686	-3.85	-2.59	6.02	-0.1782	0.147	-0.4242	
0.297436	-0.735416	0.615368	-4.97	-1.47	7.77	-0.1755	0.1483	-0.4213	
0.302072	-0.745664	0.607194	-4.83	0.98	9.66	-0.1761	0.1563	-0.4243	
0.30134	-0.747494	0.590114	-6.09	2.87	12.81	-0.1691	0.1446	-0.4318	
0.300608	-0.760304	0.595238	-7.21	2.59	14.07	-0.1687	0.154	-0.4244	
0.293532	-0.760792	0.578646	-7	3.92	16.38	-0.1597	0.1499	-0.4261	
0.295484	-0.77165	0.580842	-9.38	3.64	18.83	-0.1581	0.1498	-0.4306	
0.299144	-0.784216	0.574254	-9.66	5.11	21.49	-0.1566	0.1655	-0.4337	
0.289384	-0.785802	0.571692	-8.26	5.95	23.24	-0.1607	0.1611	-0.4232	
0.286334	-0.78202	0.570716	-7.63	7.07	25.06	-0.1662	0.1585	-0.4245	
0.288774	-0.779946	0.571936	-8.12	7.98	26.95	-0.1527	0.1667	-0.4205	
0.282674	-0.779092	0.566324	-6.65	10.92	28.77	-0.1549	0.1748	-0.4161	
0.269986	-0.781654	0.562542	-7.14	12.81	30.17	-0.1465	0.1629	-0.4221	
0.255346	-0.779946	0.560956	-7	14.28	31.92	-0.1447	0.1754	-0.4252	
0.245464	-0.789462	0.551806	-7.35	15.75	33.67	-0.1446	0.1754	-0.4281	
0.23546	-0.801174	0.549244	-7.21	17.15	35.84	-0.1352	0.184	-0.4314	
0.215452	-0.809226	0.53985	-6.44	18.76	37.24	-0.1363	0.1794	-0.4299	
0.202398	-0.8174	0.545462	-6.72	18.9	39.41	-0.1277	0.1801	-0.4316	
0.165066	-0.80764	0.529114	-1.68	24.85	42.49	-0.1145	0.1804	-0.4378	
0.145546	-0.814228	0.531066	-3.99	23.87	43.61	-0.1158	0.1916	-0.426	
0.107116	-0.80703	0.535336	-1.47	25.55	44.73	-0.1101	0.1926	-0.4291	
0.08686399	-0.806542	0.51484	-0.56	26.11	44.73	-0.0993	0.1852	-0.4308	
0.07515199	-0.801296	0.524356	0.14	23.73	44.66	-0.09119999	0.1907	-0.4281	
0.058804	-0.795318	0.53985	0.7	24.01	44.8	-0.0851	0.1886	-0.4327	
0.048678	-0.787632	0.53375	0.07	26.18	43.82	-0.0824	0.1915	-0.4387	
0.037698	-0.809592	0.541436	-1.82	26.81	43.26	-0.0743	0.1828	-0.4418	
0.014518	-0.807762	0.526308	0.84	29.4	43.61	-0.0653	0.1946	-0.4391	
-0.00976	-0.792024	0.526552	0.56	29.4	43.54	-0.0573	0.1875	-0.4452	
-0.03782	-0.792634	0.515694	0.14	30.73	42.7	-0.058	0.1939	-0.4393	
-0.061366	-0.792634	0.517158	-0.49	30.45	42.56	-0.0455	0.199	-0.4397	
-0.084058	-0.795684	0.510814	-0.07	30.87	41.51	-0.0331	0.1914	-0.4488	
-0.116998	-0.80093	0.510082	2.66	32.34	41.09	-0.0261	0.1923	-0.4446	
-0.159698	-0.807274	0.49166	5.53	33.11	39.76	-0.0151	0.1975	-0.4404	
-0.195932	-0.798246	0.4819	7.42	30.66	39.06	-0.0024	0.1868	-0.4481	
-0.208254	-0.786534	0.51301	8.89	27.16	39.27	0.0058	0.1907	-0.4483	
-0.226188	-0.76738	0.507154	10.57	26.6	37.59	0.0118	0.1886	-0.4484	
-0.241926	-0.768478	0.512766	10.5	24.92	35.91	0.0165	0.1833	-0.4441	
-0.258884	-0.771406	0.523746	9.31	22.75	35.14	0.0222	0.1701	-0.4515	
-0.276086	-0.775066	0.541924	9.87	22.96	35	0.0313	0.1803	-0.4489	
-0.282064	-0.781288	0.54534	10.92	23.59	34.79	0.0353	0.1846	-0.452	
-0.295362	-0.767502	0.542656	12.46	25.69	36.54	0.0457	0.1678	-0.461	
-0.314394	-0.754448	0.53314	11.62	27.23	37.31	0.0479	0.1723	-0.4492	
-0.331108	-0.752862	0.533384	12.6	27.51	37.87	0.0499	0.1673	-0.4567	
-0.346358	-0.738832	0.529602	13.37	28.42	38.99	0.0575	0.1618	-0.4509	
-0.354532	-0.697596	0.536678	13.16	27.65	39.34	0.0614	0.1519	-0.4568	
-0.35624	-0.70089	0.557784	9.52	26.67	39.34	0.0815	0.1547	-0.4618	
-0.378078	-0.698572	0.562176	8.47	27.86	39.06	0.098	0.1483	-0.4637	
-0.411506	-0.706868	0.541436	6.93	29.96	38.71	0.0942	0.1391	-0.4531	
-0.43798	-0.693814	0.52948	9.03	31.15	38.71	0.0922	0.1456	-0.4517	
-0.468846	-0.693204	0.515572	10.92	32.13	38.43	0.1133	0.1389	-0.4655	
-0.496662	-0.669902	0.497882	12.11	30.17	37.73	0.128	0.1484	-0.4526	
-0.51057	-0.662094	0.498614	12.88	27.3	37.66	0.1264	0.1343	-0.4539	
-0.529114	-0.649894	0.488976	12.74	25.06	37.31	0.1288	0.1229	-0.451	
-0.54778	-0.646234	0.488366	12.53	21.35	36.26	0.1371	0.1427	-0.4528	
-0.537044	-0.640134	0.51118	14.28	18.13	35.21	0.1544	0.1267	-0.4516	
-0.526918	-0.61793	0.51911	15.26	16.94	33.74	0.1514	0.1128	-0.4529	
-0.545462	-0.599386	0.52704	14.42	15.47	31.92	0.1598	0.1151	-0.4517	
-0.568032	-0.603046	0.531554	12.39	14.77	29.61	0.1603	0.1103	-0.4546	
-0.56974	-0.59719	0.531676	10.78	14.07	27.51	0.1665	0.1065	-0.4577	
-0.572302	-0.602192	0.540582	10.22	14.07	26.6	0.1713	0.1013	-0.4578	
-0.580232	-0.579988	0.527528	10.01	14.84	25.27	0.1676	0.09209999	-0.4503	
-0.587552	-0.575962	0.518012	8.89	14.21	22.82	0.1685	0.1032	-0.4666	
-0.58926	-0.576816	0.511058	8.75	14.28	21.28	0.1793	0.0909	-0.452	
-0.594506	-0.57706	0.512034	7.98	12.95	20.23	0.1783	0.0879	-0.4594	
-0.607682	-0.564006	0.522404	7.63	12.04	19.18	0.1781	0.0895	-0.4579	
-0.620248	-0.543632	0.542168	6.51	7.91	16.66	0.1924	0.09119999	-0.4568	
-0.593408	-0.55266	0.540338	6.37	7.84	14.21	0.1929	0.0832	-0.4479	
-0.620126	-0.559126	0.543022	5.46	8.47	12.67	0.1871	0.0854	-0.4566	
-0.62464	-0.559736	0.540094	4.62	7.63	11.13	0.1804	0.0797	-0.4535	
-0.627812	-0.548512	0.543388	4.2	7.63	10.01	0.1911	0.07229999	-0.4537	
-0.63379	-0.538874	0.549366	3.29	7	9.1	0.1962	0.0638	-0.4537	
-0.635498	-0.53497	0.555344	0.98	6.79	7.42	0.2068	0.07229999	-0.4467	
-0.634156	-0.536922	0.540338	0	7.35	5.95	0.2013	0.0729	-0.4598	
-0.641598	-0.532408	0.534726	-1.12	6.86	4.55	0.2028	0.0711	-0.454	
-0.646112	-0.535458	0.533018	-1.82	6.58	2.94	0.1961	0.0781	-0.4435	
-0.6527	-0.540216	0.5246	-1.96	5.6	0.98	0.2057	0.0692	-0.4496	
-0.64416	-0.55327	0.524478	-1.75	3.85	-0.35	0.1961	0.0813	-0.4539	
-0.6405	-0.548024	0.527406	-1.61	2.45	-0.63	0.1968	0.0859	-0.4406	
-0.634156	-0.548024	0.524722	-1.96	1.33	-0.91	0.1996	0.0746	-0.4539	
-0.638792	-0.548878	0.523258	-2.31	0.56	-1.47	0.2068	0.07229999	-0.4467	
-0.636108	-0.560346	0.526796	-2.24	-0.91	-1.82	0.208	0.0769	-0.4527	
-0.63135	-0.560346	0.526308	-1.96	-1.47	-2.1	0.2051	0.0772	-0.4541	
-0.640134	-0.557418	0.524966	-1.54	-1.33	-2.59	0.2037	0.0758	-0.4496	
-0.642574	-0.556686	0.52399	-1.96	-1.89	-3.22	0.2006	0.0777	-0.4495	
-0.63806	-0.554978	0.52521	-2.38	-2.03	-4.06	0.2065	0.0771	-0.4511	
-0.641476	-0.542778	0.518134	-2.52	-2.24	-5.32	0.2076	0.0801	-0.4468	
-0.654652	-0.550098	0.516182	-2.31	-2.59	-7	0.2071	0.0691	-0.4467	
-0.660874	-0.544486	0.514352	-2.31	-3.92	-8.82	0.2002	0.0857	-0.4614	
-0.64965	-0.534604	0.514596	-2.17	-5.67	-11.76	0.1983	0.08899999	-0.4554	
-0.646356	-0.537166	0.510082	-3.29	-6.86	-14.77	0.2036	0.0774	-0.4511	
-0.641476	-0.533506	0.513254	-3.43	-8.12	-17.71	0.2063	0.0787	-0.4497	
-0.640622	-0.52826	0.515084	-3.85	-9.17	-21.28	0.1915	0.085	-0.4567	
-0.635498	-0.52521	0.511668	-5.25	-10.99	-24.71	0.1844	0.0841	-0.4565	
-0.630984	-0.543022	0.508252	-7	-12.95	-28.28	0.1874	0.0964	-0.4478	
-0.62891	-0.544852	0.506422	-7.07	-15.05	-31.85	0.1871	0.09959999	-0.4493	
-0.623176	-0.550586	0.511058	-6.86	-18.06	-35.21	0.1845	0.0967	-0.4507	
-0.597068	-0.582306	0.50752	-7.56	-22.68	-39.41	0.1764	0.1071	-0.4535	
-0.587308	-0.594994	0.518622	-9.03	-25.83	-41.02	0.1608	0.1039	-0.4516	
-0.56791	-0.588406	0.523136	-8.19	-28.56	-42.35	0.1509	0.1033	-0.4558	
-0.540948	-0.58011	0.533628	-10.29	-31.5	-44.38	0.1423	0.1184	-0.4572	
-0.51362	-0.581696	0.537044	-11.41	-32.69	-46.83	0.1407	0.1202	-0.4572	
-0.493612	-0.6161	0.54717	-14.07	-32.27	-50.05	0.1245	0.1234	-0.4553	
-0.485804	-0.644526	0.522648	-14.21	-30.73	-52.57	0.1224	0.1299	-0.4523	
-0.46665	-0.66734	0.525942	-12.53	-31.85	-54.32	0.1129	0.1245	-0.4535	
-0.440176	-0.673196	0.525332	-13.79	-33.04	-55.16	0.101	0.1448	-0.4578	
-0.42517	-0.665876	0.520696	-12.67	-33.32	-55.3	0.092	0.133	-0.459	
-0.406138	-0.680272	0.532774	-16.1	-35.91	-55.72	0.08899999	0.1508	-0.4605	
-0.376614	-0.684542	0.537044	-17.15	-36.4	-55.79	0.0785	0.1534	-0.4528	
-0.345992	-0.690032	0.53802	-16.66	-35.28	-56.07	0.0652	0.1579	-0.4555	
-0.328424	-0.706502	0.52704	-18.13	-35.42	-56.28	0.0661	0.1658	-0.4615	
-0.301096	-0.736026	0.537288	-20.79	-37.17	-57.05	0.0522	0.1734	-0.4538	
-0.280478	-0.755058	0.53436	-18.76	-36.47	-58.03	0.038	0.1701	-0.4519	
-0.240096	-0.76128	0.522526	-15.47	-36.12	-58.73	0.0288	0.1757	-0.4503	
-0.223992	-0.756644	0.524112	-15.26	-37.03	-57.89	0.013	0.1741	-0.4469	
-0.201666	-0.761646	0.522038	-16.38	-37.73	-57.19	0.0016	0.1753	-0.457	
-0.155916	-0.7808	0.52094	-18.76	-38.01	-57.12	-0.0068	0.1856	-0.4406	
-0.126636	-0.793854	0.521672	-17.01	-36.68	-58.38	-0.0037	0.1837	-0.4406	
-0.119072	-0.795074	0.532164	-14.28	-34.65	-59.71	-0.0247	0.1938	-0.4461	
-0.10065	-0.81618	0.518622	-14.35	-33.95	-61.46	-0.0305	0.1927	-0.443	
-0.07381	-0.80703	0.503738	-12.67	-33.53	-61.11	-0.0466	0.1959	-0.4441	
-0.038674	-0.789462	0.502762	-13.86	-35.56	-59.71	-0.0557	0.2016	-0.4468	
-0.010858	-0.80276	0.511058	-16.38	-36.82	-59.22	-0.064	0.1944	-0.4347	
0.015372	-0.81862	0.503616	-18.2	-36.68	-58.59	-0.0785	0.1959	-0.4359	
0.03233	-0.8235	0.496418	-19.46	-38.22	-58.87	-0.0853	0.206	-0.4298	
0.06222	-0.824232	0.490806	-20.79	-39.13	-57.54	-0.0911	0.205	-0.4253	
0.09467199	-0.812398	0.483852	-19.6	-38.92	-55.79	-0.1066	0.2002	-0.4248	
0.138592	-0.789706	0.477386	-18.9	-37.8	-53.76	-0.1118	0.2086	-0.4188	
0.173606	-0.792756	0.467382	-19.53	-36.4	-52.5	-0.1273	0.2021	-0.4095	
0.20069	-0.802638	0.447862	-18.83	-35.42	-51.52	-0.1428	0.2148	-0.3851	
0.21594	-0.804834	0.442616	-18.55	-35.21	-50.54	-0.1467	0.2072	-0.4288	
0.2379	-0.805322	0.429196	-16.1	-34.02	-49.42	-0.1658	0.2123	-0.4042	
0.264252	-0.81313	0.428098	-15.61	-34.37	-48.86	-0.1685	0.2094	-0.4026	
0.288408	-0.808006	0.422364	-13.16	-33.18	-48.65	-0.1748	0.2131	-0.3951	
0.31903	-0.808494	0.41358	-12.25	-32.34	-48.16	-0.1841	0.2188	-0.3875	
0.334768	-0.809714	0.406504	-12.11	-30.73	-47.81	-0.1974	0.2042	-0.3812	
0.352336	-0.82106	0.396134	-13.44	-29.61	-47.6	-0.1985	0.206	-0.4004	
0.369172	-0.829112	0.386008	-12.04	-28.21	-45.43	-0.2042	0.2017	-0.3899	
0.388692	-0.828746	0.394914	-11.62	-28.21	-42.7	-0.2122	0.2072	-0.3779	
0.415776	-0.819718	0.37881	-10.57	-26.88	-40.39	-0.2142	0.2012	-0.367	
0.43981	-0.820084	0.369904	-10.99	-27.93	-38.43	-0.2255	0.1958	-0.3789	
0.454206	-0.798856	0.367464	-7	-25.9	-38.01	-0.2359	0.1968	-0.3713	
0.4575	-0.78141	0.346602	-4.62	-22.82	-37.94	-0.2377	0.2002	-0.3713	
0.45872	-0.770674	0.330742	-1.89	-21.63	-37.87	-0.2464	0.2027	-0.377	
0.492636	-0.762012	0.30317	0.63	-23.66	-36.89	-0.2473	0.1948	-0.3695	
0.511668	-0.763598	0.324764	-3.57	-29.82	-36.33	-0.2559	0.1908	-0.383	
0.497882	-0.741272	0.327448	-1.4	-29.54	-37.66	-0.2645	0.19	-0.3572	
0.511546	-0.720166	0.320982	3.29	-28.7	-38.92	-0.2709	0.1828	-0.3614	
0.549488	-0.742492	0.324398	1.89	-31.15	-40.53	-0.2647	0.1774	-0.3586	
0.564372	-0.7503	0.325496	3.29	-33.25	-40.67	-0.2751	0.18	-0.384	
0.563152	-0.706136	0.331108	6.44	-34.16	-40.67	-0.2709	0.162	-0.3465	
0.577548	-0.69296	0.338916	5.25	-35.28	-42.77	-0.297	0.1805	-0.349	
0.59658	-0.693692	0.338428	4.97	-33.32	-44.73	-0.2932	0.169	-0.3431	
0.609878	-0.686372	0.341478	-3.43	-36.61	-44.17	-0.2976	0.1519	-0.3354	
0.629886	-0.70882	0.34404	-13.02	-38.15	-42.14	-0.3104	0.1643	-0.3308	
0.63074	-0.667218	0.326228	-5.25	-30.24	-40.32	-0.3144	0.1583	-0.3218	
0.652334	-0.64355	0.292434	1.47	-26.67	-40.39	-0.3099	0.1403	-0.3218	
0.684786	-0.637694	0.275476	6.16	-26.32	-42	-0.3368	0.1493	-0.3167	
0.69357	-0.629642	0.263642	8.96	-28.35	-44.59	-0.3306	0.1439	-0.3153	
0.717116	-0.638792	0.254248	9.1	-33.39	-48.37	-0.3445	0.1199	-0.306	
0.748592	-0.653676	0.251686	4.41	-41.37	-48.65	-0.3517	0.1206	-0.3058	
0.761524	-0.650016	0.246928	2.87	-45.43	-48.86	-0.3512	0.1142	-0.3058	
0.783728	-0.671488	0.240218	-0.98	-46.55	-49.56	-0.358	0.1101	-0.3041	
0.819718	-0.693692	0.267058	2.31	-46.62	-47.32	-0.3707	0.1033	-0.2934	
0.796416	-0.673196	0.27145	4.34	-39.9	-45.78	-0.3644	0.0963	-0.2876	
0.79178	-0.648064	0.251686	6.44	-31.64	-42.84	-0.3792	0.08679999	-0.2975	
0.798246	-0.63257	0.248392	7.91	-28.14	-39.06	-0.3769	0.088	-0.2754	
0.78568	-0.6039	0.25315	7.49	-25.27	-35.84	-0.3788	0.0897	-0.2635	
0.767014	-0.565104	0.221674	10.01	-19.39	-33.32	-0.3812	0.0709	-0.2752	
0.787754	-0.556808	0.194956	10.92	-17.5	-31.22	-0.3893	0.0638	-0.269	
0.805688	-0.560102	0.214598	9.8	-19.95	-29.33	-0.3884	0.07	-0.272	
0.806298	-0.551318	0.224968	8.54	-20.79	-26.39	-0.3915	0.0544	-0.263	
0.816546	-0.54412	0.218868	5.32	-19.32	-23.03	-0.3917	0.056	-0.263	
0.832772	-0.520696	0.225944	2.59	-19.39	-20.09	-0.406	0.0559	-0.2641	
0.838018	-0.505202	0.222284	-1.61	-19.39	-17.64	-0.4016	0.0379	-0.2626	
0.845094	-0.501542	0.213866	-4.55	-16.87	-15.68	-0.3993	0.0424	-0.2553	
0.85827	-0.522648	0.216672	-7	-16.17	-13.3	-0.4074	0.0527	-0.2537	
0.879376	-0.526796	0.212646	-7.84	-14.77	-12.11	-0.4042	0.0476	-0.2493	
0.88633	-0.516182	0.210206	-8.12	-12.67	-10.08	-0.4	0.0472	-0.242	
0.88511	-0.518378	0.191906	-6.58	-9.87	-8.47	-0.3968	0.0453	-0.2495	
0.885842	-0.527162	0.170678	-1.61	-5.46	-7.07	-0.4073	0.0353	-0.2521	
0.882426	-0.532774	0.147864	1.4	-3.64	-4.97	-0.4014	0.0457	-0.239	
0.889258	-0.523746	0.131028	2.52	-4.2	-3.57	-0.4	0.0329	-0.2478	
0.890234	-0.533384	0.138958	-2.87	-8.05	-2.38	-0.4111	0.0435	-0.2476	
0.886696	-0.526918	0.15799	-6.37	-8.89	-1.54	-0.3939	0.045	-0.2495	
0.899872	-0.514108	0.15982	-6.37	-7.91	-0.49	-0.4157	0.0439	-0.2357	
0.900482	-0.511058	0.169702	-6.09	-5.25	-0.49	-0.4094	0.0369	-0.2328	
0.857172	-0.48861	0.173118	1.47	3.36	-1.26	-0.4067	0.0574	-0.2419	
0.851072	-0.474458	0.151768	6.51	9.59	-1.4	-0.411	0.0419	-0.2461	
0.848998	-0.484706	0.137494	7.28	9.8	-0.98	-0.4146	0.0344	-0.2475	
0.831918	-0.480436	0.138958	5.46	7.07	-0.49	-0.4136	0.0374	-0.2416	
0.829478	-0.48922	0.14396	0.98	3.22	0.49	-0.4029	0.0332	-0.2478	
0.839604	-0.493246	0.142374	1.82	2.52	0.91	-0.402	0.0378	-0.2434	
0.845826	-0.49227	0.15311	0.91	-0.14	1.26	-0.415	0.0392	-0.2475	
0.855708	-0.491416	0.16104	-1.4	-2.03	1.54	-0.4065	0.0415	-0.2492	
0.85095	-0.48617	0.159942	-1.54	-0.91	1.4	-0.408	0.0384	-0.2388	
0.853634	-0.496418	0.156282	-1.82	-1.05	1.54	-0.4081	0.0433	-0.2492	
0.869372	-0.511058	0.158356	-1.33	-2.1	2.24	-0.4207	0.0382	-0.2488	
0.875472	-0.524112	0.17202	-1.54	-2.03	3.08	-0.3994	0.0424	-0.2494	
0.874252	-0.530212	0.177754	-0.14	-0.63	3.78	-0.4205	0.0508	-0.243	
0.88084	-0.522526	0.181292	1.05	2.03	4.27	-0.4056	0.0286	-0.2388	
0.879376	-0.523014	0.18239	1.4	5.81	4.41	-0.4049	0.0382	-0.2463	
0.859246	-0.511912	0.180438	3.36	9.45	4.83	-0.4144	0.047	-0.2431	
0.856074	-0.498492	0.173728	5.04	12.25	4.9	-0.4071	0.0479	-0.2522	
0.869372	-0.509838	0.177632	4.2	12.74	4.55	-0.3999	0.0488	-0.2524	
0.868152	-0.534726	0.185196	4.48	12.25	4.97	-0.4047	0.0398	-0.2611	
0.853878	-0.522526	0.196542	5.88	13.65	6.44	-0.4137	0.0423	-0.2805	
0.863882	-0.51728	0.197884	5.04	16.1	7.42	-0.3873	0.0364	-0.2511	
0.86986	-0.52643	0.207766	1.4	16.1	8.54	-0.393	0.0403	-0.2673	
0.856562	-0.52521	0.206668	0.56	17.57	11.83	-0.4064	0.0464	-0.2714	
0.84058	-0.517768	0.187758	-1.33	19.81	16.1	-0.3921	0.0449	-0.2629	
0.843142	-0.544242	0.183976	-3.01	18.34	18.97	-0.3949	0.0611	-0.2659	
0.83631	-0.564006	0.182268	-0.7	17.43	21.98	-0.3883	0.0542	-0.2734	
0.836066	-0.535214	0.205936	-1.47	16.03	24.01	-0.3897	0.0543	-0.2793	
0.84058	-0.512156	0.238754	-7.42	13.37	24.57	-0.3864	0.0618	-0.2646	
0.839848	-0.544974	0.245708	-8.47	11.97	25.41	-0.3885	0.0574	-0.2793	
0.82045	-0.563152	0.236314	-3.15	15.47	27.09	-0.3893	0.067	-0.2838	
0.804834	-0.585844	0.227652	-4.2	16.52	29.96	-0.3832	0.0632	-0.2824	
0.811056	-0.58255	0.236436	-7.07	15.26	33.18	-0.3761	0.0816	-0.2842	
0.815814	-0.560834	0.243512	-7.28	17.36	34.79	-0.3805	0.08199999	-0.2856	
0.80947	-0.555588	0.244488	-7.49	21.7	34.72	-0.3818	0.07889999	-0.2781	
0.79361	-0.557052	0.252418	-3.01	23.73	35.07	-0.3784	0.09299999	-0.2916	
0.768478	-0.580354	0.253882	-0.98	25.69	35.77	-0.3742	0.0958	-0.2977	
0.753472	-0.600118	0.246928	-1.4	27.37	37.8	-0.3665	0.1061	-0.2965	
0.754082	-0.62037	0.246562	-3.5	27.23	39.27	-0.3633	0.1201	-0.304	
0.74664	-0.635864	0.259738	-4.48	27.09	41.23	-0.3595	0.1102	-0.3055	
0.732976	-0.64477	0.27572	-3.5	27.09	42.56	-0.355	0.1257	-0.3102	
0.707112	-0.672342	0.281454	-5.11	27.93	43.82	-0.3389	0.1225	-0.3076	
0.689056	-0.673318	0.28365	-1.96	31.36	45.64	-0.3405	0.1417	-0.3121	
0.655872	-0.673806	0.282186	-0.21	33.6	47.95	-0.3315	0.1393	-0.3168	
0.63989	-0.67344	0.273402	-0.42	34.93	49.28	-0.3237	0.1354	-0.3273	
0.62525	-0.677344	0.282918	-1.47	31.64	50.12	-0.3229	0.1417	-0.3259	
0.611098	-0.688812	0.30622	-3.64	26.95	50.4	-0.3133	0.1487	-0.3291	
0.603168	-0.704794	0.333426	-2.66	25.76	50.4	-0.3127	0.1565	-0.3247	
0.5856	-0.729682	0.348554	-0.42	29.61	50.54	-0.3086	0.1626	-0.3367	
0.570106	-0.739686	0.337086	3.5	31.99	51.38	-0.2983	0.1599	-0.3355	
0.559736	-0.758352	0.3477	3.57	34.58	52.29	-0.2879	0.1765	-0.3506	
0.523014	-0.756156	0.363072	3.71	34.51	53.55	-0.2906	0.1735	-0.3505	
0.522038	-0.737368	0.371368	-0.98	32.69	54.81	-0.2775	0.1722	-0.3479	
0.498614	-0.738588	0.360388	-0.91	35.28	54.32	-0.2705	0.1906	-0.3512	
0.468724	-0.766526	0.356362	-3.57	35.56	54.32	-0.2657	0.1886	-0.3631	
0.429074	-0.795196	0.351482	-2.87	37.17	54.74	-0.2576	0.1941	-0.3604	
0.406138	-0.81862	0.357582	-1.82	38.01	55.37	-0.2496	0.2013	-0.3606	
0.384666	-0.821182	0.365634	0	37.24	56	-0.2448	0.1977	-0.3637	
0.359168	-0.830332	0.401136	3.43	39.48	56.28	-0.2306	0.2027	-0.3759	
0.336964	-0.838872	0.397232	11.97	46.13	56.84	-0.2213	0.2129	-0.3792	
0.306952	-0.836066	0.376736	12.95	46.62	57.26	-0.213	0.2152	-0.3735	
0.270108	-0.819352	0.385886	14.42	43.61	58.94	-0.1985	0.217	-0.3857	
0.258518	-0.819962	0.378444	13.86	45.08	60.13	-0.1983	0.2154	-0.3857	
0.24949	-0.824476	0.374418	11.83	43.75	61.04	-0.1798	0.2183	-0.3862	
0.243634	-0.831186	0.392108	10.15	41.16	59.5	-0.1678	0.2156	-0.3953	
0.20252	-0.840824	0.401746	9.31	38.85	57.96	-0.1589	0.2306	-0.403	
0.17202	-0.849974	0.424682	10.99	40.74	58.52	-0.1537	0.2206	-0.4016	
0.142008	-0.841312	0.422608	12.11	42.7	58.17	-0.131	0.2104	-0.408	
0.128222	-0.835578	0.45567	10.43	40.95	58.73	-0.1134	0.2213	-0.4026	
0.088206	-0.836676	0.445544	9.73	42.84	58.17	-0.116	0.2233	-0.4174	
0.051362	-0.83814	0.42395	15.33	44.59	57.26	-0.09559999	0.2197	-0.4134	
0.030134	-0.852902	0.42761	12.53	41.16	57.26	-0.0821	0.2152	-0.4182	
0.01037	-0.842898	0.447252	10.99	38.15	56.14	-0.07669999	0.221	-0.4242	
-0.012444	-0.849608	0.459452	11.48	38.36	53.9	-0.0577	0.2033	-0.429	
-0.02623	-0.82777	0.463722	14.49	40.04	54.32	-0.0518	0.217	-0.4278	
-0.051972	-0.823866	0.463234	14.84	39.55	51.94	-0.0335	0.2072	-0.4326	
-0.084668	-0.827404	0.465552	15.33	39.27	49.91	-0.0294	0.2116	-0.4116	
-0.118462	-0.819352	0.461526	17.99	38.78	48.3	-0.0282	0.2131	-0.4328	
-0.138592	-0.802882	0.468602	18.34	37.52	47.39	-0.011	0.1987	-0.4361	
-0.16226	-0.808982	0.496418	14.63	36.33	46.13	-0.0132	0.2085	-0.442	
-0.175802	-0.812764	0.501908	15.61	37.24	45.36	-0.0006	0.1977	-0.4438	
-0.198128	-0.79605	0.478728	17.92	39.34	44.8	0.0093	0.1983	-0.4411	
-0.228018	-0.808982	0.495076	13.65	35.21	44.59	0.0228	0.1922	-0.4414	
-0.239852	-0.781044	0.503494	17.43	34.93	45.01	0.0304	0.1866	-0.4386	
-0.243024	-0.760426	0.500932	15.19	34.02	45.43	0.0467	0.1851	-0.4493	
-0.260348	-0.752008	0.52277	8.75	32.34	45.64	0.046	0.1931	-0.4508	
-0.283894	-0.757986	0.519232	7.49	33.18	45.08	0.0623	0.1866	-0.4423	
-0.317444	-0.759328	0.505202	11.69	35	45.08	0.06439999	0.1801	-0.4468	
-0.353922	-0.75518	0.493856	12.95	33.11	44.45	0.08109999	0.1689	-0.4412	
-0.379664	-0.741638	0.491538	14.21	31.29	44.94	0.0812	0.1722	-0.4545	
-0.395524	-0.717848	0.49593	16.73	29.75	44.8	0.0922	0.1758	-0.4474	
-0.393938	-0.680272	0.524966	16.17	26.95	44.73	0.1016	0.1685	-0.4506	
-0.404552	-0.697352	0.5307	16.52	28.21	43.89	0.109	0.1503	-0.4492	
-0.432002	-0.67344	0.522648	14.98	28.42	43.12	0.1129	0.153	-0.4419	
-0.462624	-0.6832	0.544242	12.18	26.88	40.6	0.1245	0.1535	-0.4481	
-0.47946	-0.667706	0.537044	13.16	29.12	40.46	0.133	0.14	-0.4512	
-0.5002	-0.661972	0.514962	10.57	30.31	40.81	0.1406	0.1344	-0.4439	
-0.531676	-0.645014	0.507276	10.43	29.4	40.11	0.1419	0.1375	-0.4514	
-0.545828	-0.666242	0.50935	8.89	28.56	40.6	0.1547	0.1219	-0.4457	
-0.54107	-0.604022	0.483486	8.47	27.09	40.39	0.1646	0.1241	-0.443	
-0.562664	-0.595604	0.493856	7.35	28	40.11	0.1781	0.118	-0.4433	
-0.57889	-0.579866	0.482388	7.56	28	37.59	0.1707	0.1203	-0.4446	
-0.602192	-0.562298	0.478484	7	26.46	35.56	0.1832	0.1095	-0.4449	
-0.615978	-0.53924	0.458842	7	25.76	34.51	0.1883	0.1153	-0.4362	
-0.617564	-0.562298	0.473482	6.37	22.26	32.34	0.1992	0.1079	-0.4438	
-0.630618	-0.564128	0.478484	6.44	20.09	31.85	0.1968	0.1002	-0.4363	
-0.657702	-0.566202	0.486902	5.25	18.13	30.66	0.2136	0.0906	-0.4396	
-0.661728	-0.562054	0.475678	5.25	16.17	29.12	0.215	0.0904	-0.4367	
-0.64904	-0.555344	0.46482	5.39	14.56	27.65	0.2159	0.09339999	-0.4264	
-0.654286	-0.553392	0.47946	4.83	13.37	25.62	0.2114	0.0845	-0.4439	
-0.659532	-0.54839	0.484462	4.69	13.16	24.29	0.2304	0.0793	-0.4355	
-0.643794	-0.538508	0.484462	3.85	12.67	22.61	0.2208	0.0756	-0.4397	
-0.667096	-0.524966	0.483364	2.94	12.88	21.21	0.2334	0.0774	-0.4326	
-0.664046	-0.515328	0.482754	1.61	11.34	19.32	0.2322	0.076	-0.4385	
-0.661972	-0.51606	0.486658	0.21	11.83	16.03	0.2319	0.0951	-0.4342	
-0.678686	-0.508496	0.481534	-0.42	11.76	14.49	0.2388	0.0817	-0.4313	
-0.684908	-0.515572	0.48495	-1.61	10.36	12.32	0.2385	0.0706	-0.4371	
-0.69967	-0.50813	0.480924	-2.73	10.36	10.22	0.2357	0.0693	-0.4385	
-0.712602	-0.51667	0.47214	-3.99	9.94	8.33	0.2495	0.0759	-0.4374	
-0.712114	-0.541802	0.465796	-5.81	8.47	6.3	0.2583	0.0718	-0.4288	
-0.728584	-0.55083	0.457744	-6.51	7.56	4.9	0.2402	0.0815	-0.4313	
-0.721142	-0.5612	0.446276	-7	5.53	3.85	0.2462	0.0777	-0.4241	
-0.715774	-0.56303	0.447252	-7.28	3.57	3.01	0.2542	0.069	-0.4272	
-0.723094	-0.551074	0.439444	-7	2.24	1.75	0.2465	0.07449999	-0.4285	
-0.721142	-0.53985	0.429074	-6.51	0.7	0.35	0.2462	0.0793	-0.4315	
-0.7015	-0.548024	0.418826	-6.3	-0.7	-0.77	0.2474	0.0791	-0.4211	
-0.701256	-0.561932	0.420534	-5.11	-2.03	-1.33	0.2514	0.0709	-0.4345	
-0.704184	-0.57218	0.421754	-4.9	-3.36	-1.82	0.2463	0.0777	-0.43	
-0.701988	-0.575474	0.419924	-4.06	-4.27	-1.82	0.248	0.0744	-0.43	
-0.705648	-0.578158	0.422852	-3.64	-8.54	-2.8	0.2561	0.0783	-0.4184	
-0.690276	-0.557052	0.429318	-2.31	-7.77	-1.05	0.25	0.0694	-0.433	
-0.684908	-0.565836	0.435906	-3.22	-7.63	-0.98	0.2437	0.07319999	-0.424	
-0.68747	-0.571692	0.440054	-3.22	-7.14	-0.7	0.233	0.0823	-0.4341	
-0.679662	-0.573522	0.44164	-3.08	-7.21	-0.42	0.239	0.0785	-0.4298	
-0.674172	-0.569618	0.44286	-3.01	-6.58	-0.49	0.2369	0.0834	-0.4209	
-0.681858	-0.566568	0.438346	-2.87	-5.53	-0.7	0.2422	0.0766	-0.4343	
-0.69296	-0.57218	0.427976	-2.24	-4.9	-0.77	0.2348	0.0773	-0.4282	
-0.693082	-0.571082	0.435662	-2.17	-6.02	-0.91	0.2318	0.0792	-0.4326	
-0.678076	-0.564616	0.44164	-1.75	-6.23	-0.77	0.2261	0.07979999	-0.4354	
-0.685274	-0.565348	0.443592	-1.19	-5.88	-1.26	0.2507	0.0773	-0.433	
-0.691618	-0.567666	0.441884	-1.19	-6.65	-2.24	0.2329	0.0822	-0.4297	
-0.684176	-0.569496	0.446398	-0.56	-7.35	-2.94	0.2234	0.0752	-0.4294	
-0.68625	-0.571204	0.451888	-0.28	-7.49	-2.94	0.2365	0.0756	-0.4327	
-0.687104	-0.564372	0.459818	-0.35	-7.77	-3.36	0.2286	0.0827	-0.4325	
-0.670024	-0.554002	0.463844	0	-7.91	-4.55	0.2312	0.084	-0.4267	
-0.684542	-0.546438	0.464576	-0.07	-7.77	-6.37	0.2345	0.0821	-0.4356	
-0.684908	-0.55449	0.456646	-0.28	-7.98	-8.47	0.2332	0.0823	-0.44	
-0.689788	-0.55571	0.456768	-0.14	-8.82	-10.92	0.2301	0.0825	-0.4326	
-0.698328	-0.548634	0.455182	0.49	-10.22	-13.02	0.2337	0.0917	-0.4371	
-0.70089	-0.54046	0.463966	0.84	-12.18	-15.96	0.2277	0.0923	-0.4311	
-0.695888	-0.527406	0.466894	0.7	-14.56	-19.53	0.2254	0.0878	-0.4384	
-0.671976	-0.530578	0.452498	-0.56	-17.92	-23.87	0.2258	0.0846	-0.4428	
-0.66612	-0.535702	0.465674	-1.47	-20.37	-27.65	0.2056	0.0961	-0.4276	
-0.654408	-0.551196	0.476654	-2.87	-21.98	-29.82	0.2136	0.1081	-0.4441	
-0.642086	-0.563884	0.471042	-5.25	-24.01	-31.99	0.2038	0.1043	-0.4424	
-0.614026	-0.571082	0.47885	-5.67	-25.83	-33.39	0.194	0.1037	-0.4495	
-0.607194	-0.585234	0.493612	-6.65	-26.74	-34.65	0.1903	0.1104	-0.4421	
-0.599874	-0.603778	0.488854	-6.93	-26.74	-36.4	0.1893	0.1057	-0.445	
-0.569008	-0.610976	0.49288	-6.37	-27.93	-38.29	0.1747	0.1088	-0.4461	
-0.547414	-0.620492	0.512644	-6.3	-28.42	-39.76	0.1718	0.1107	-0.452	
-0.54717	-0.611098	0.508008	-6.72	-27.51	-41.02	0.1708	0.1187	-0.4431	
-0.534726	-0.60878	0.506666	-9.94	-28.7	-43.12	0.1571	0.1296	-0.4532	
-0.512644	-0.632082	0.52033	-12.81	-28.91	-43.82	0.1426	0.1295	-0.4514	
-0.499712	-0.642452	0.51911	-12.88	-27.51	-44.73	0.1318	0.1353	-0.4422	
-0.489586	-0.643306	0.499956	-11.76	-26.18	-45.85	0.1292	0.1515	-0.4541	
-0.46177	-0.654652	0.490196	-14.49	-27.93	-47.53	0.1252	0.1455	-0.4481	
-0.43432	-0.676246	0.513986	-15.75	-29.19	-48.72	0.1092	0.1487	-0.4521	
-0.412238	-0.70699	0.52887	-15.89	-29.26	-49.42	0.1125	0.1595	-0.4508	
-0.405772	-0.714188	0.51423	-13.65	-26.67	-50.05	0.1039	0.1571	-0.4417	
-0.405528	-0.724924	0.506422	-13.72	-27.16	-50.96	0.09429999	0.1676	-0.4445	
-0.375638	-0.74481	0.506422	-14.91	-28.42	-51.45	0.0797	0.169	-0.4426	
-0.332694	-0.752008	0.513376	-12.88	-29.4	-50.75	0.0765	0.1742	-0.447	
-0.303902	-0.74969	0.517768	-12.32	-28.42	-49.35	0.0683	0.1686	-0.4453	
-0.298534	-0.756644	0.522648	-16.17	-28.35	-48.86	0.0453	0.1868	-0.4552	
-0.289872	-0.771284	0.513498	-16.94	-26.53	-48.09	0.0383	0.1986	-0.4521	
-0.2623	-0.79239	0.5185	-17.99	-26.04	-47.46	0.0356	0.1941	-0.4402	
-0.242658	-0.808738	0.5002	-17.08	-24.43	-47.39	0.0267	0.1982	-0.4444	
-0.228506	-0.791292	0.485682	-13.58	-24.22	-48.02	0.0296	0.1962	-0.4386	
-0.213622	-0.78141	0.481168	-12.39	-25.34	-48.3	0.015	0.196	-0.4323	
-0.195078	-0.784338	0.471286	-14.42	-27.72	-49.63	0.0075	0.2	-0.4336	
-0.163724	-0.817766	0.47397	-17.36	-31.64	-50.68	0.0025	0.2084	-0.4365	
-0.140422	-0.814228	0.473238	-15.19	-32.55	-51.59	-0.0134	0.2084	-0.4317	
-0.120658	-0.788242	0.458598	-11.48	-32.9	-52.85	-0.0139	0.2022	-0.4464	
-0.096014	-0.77409	0.47031	-13.16	-35.91	-54.04	-0.0271	0.2002	-0.4298	
-0.068564	-0.79971	0.46909	-15.96	-37.17	-56.07	-0.0307	0.2212	-0.4225	
-0.036966	-0.839238	0.465796	-16.24	-36.54	-57.26	-0.0507	0.22	-0.4234	
-0.002318	-0.869128	0.462014	-16.45	-36.26	-57.33	-0.0559	0.2126	-0.4203	
0.011712	-0.8479	0.46665	-11.76	-34.72	-55.79	-0.0634	0.2181	-0.429	
0.03538	-0.80093	0.441518	-8.68	-32.97	-53.83	-0.0717	0.2109	-0.4154	
0.057706	-0.765916	0.447252	-10.85	-34.3	-52.99	-0.0897	0.2158	-0.4076	
0.092598	-0.752496	0.44896	-17.15	-34.3	-53.13	-0.0985	0.2183	-0.4074	
0.153598	-0.836066	0.440054	-24.64	-36.82	-55.72	-0.1024	0.2123	-0.4058	
0.162504	-0.882182	0.457012	-14.14	-28.07	-56.56	-0.1279	0.2244	-0.4082	
0.178364	-0.822402	0.41541	-1.54	-20.09	-55.23	-0.1317	0.2168	-0.4021	
0.221918	-0.783972	0.418338	-4.34	-23.94	-54.81	-0.1407	0.2193	-0.399	
0.248026	-0.791414	0.433466	-9.73	-24.78	-55.51	-0.1527	0.2269	-0.4046	
0.27877	-0.831918	0.427122	-15.26	-23.24	-54.88	-0.1558	0.2255	-0.3942	
0.294996	-0.89487	0.41968	-14.84	-19.6	-53.69	-0.1714	0.2207	-0.3864	
0.26657	-0.919636	0.406382	-9.31	-16.03	-51.24	-0.1699	0.2222	-0.3938	
0.243634	-0.896944	0.377834	-2.17	-15.33	-47.6	-0.1812	0.2217	-0.3994	
0.273646	-0.843508	0.370758	-2.45	-20.23	-43.89	-0.1846	0.2077	-0.386	
0.310246	-0.80886	0.376614	-7.49	-25.76	-42.42	-0.188	0.2128	-0.383	
0.354776	-0.809592	0.369538	-17.5	-31.36	-42.91	-0.197	0.2152	-0.3783	
0.380274	-0.80947	0.403698	-11.9	-32.13	-43.68	-0.2046	0.2033	-0.3766	
0.377102	-0.811544	0.406382	-3.01	-25.83	-45.01	-0.2129	0.2136	-0.3735	
0.39284	-0.816424	0.371368	1.12	-21.91	-45.85	-0.2268	0.207	-0.3672	
0.387472	-0.796172	0.35502	8.12	-20.72	-46.2	-0.2199	0.2127	-0.3777	
0.416874	-0.76311	0.351238	7.7	-25.13	-46.2	-0.2284	0.1913	-0.3641	
0.464698	-0.72224	0.375882	7.77	-29.12	-48.02	-0.2371	0.1921	-0.3624	
0.48678	-0.709064	0.369782	6.72	-28	-50.68	-0.2462	0.1962	-0.3622	
0.513986	-0.71736	0.374784	5.04	-28.07	-52.22	-0.2451	0.185	-0.3636	
0.520818	-0.731024	0.381006	7.42	-26.46	-54.11	-0.2627	0.1883	-0.3632	
0.524356	-0.738344	0.358436	4.76	-26.11	-54.39	-0.2597	0.1722	-0.3691	
0.547658	-0.766282	0.374662	3.36	-28.98	-53.76	-0.278	0.1644	-0.3597	
0.551562	-0.755546	0.368806	7.35	-27.23	-52.22	-0.2774	0.1597	-0.367	
0.55144	-0.749446	0.34465	6.72	-26.6	-49.63	-0.2822	0.1633	-0.361	
0.576694	-0.747372	0.331718	3.99	-29.61	-46.41	-0.2885	0.1528	-0.3593	
0.60329	-0.72834	0.321714	0.56	-34.65	-43.75	-0.2952	0.1597	-0.3459	
0.63196	-0.715408	0.330254	-0.49	-36.82	-42.28	-0.3085	0.1483	-0.347	
0.660752	-0.699182	0.330376	3.08	-33.88	-41.51	-0.2998	0.1458	-0.3413	
0.676246	-0.690276	0.303902	2.87	-31.92	-41.37	-0.3077	0.1338	-0.3292	
0.70394	-0.688202	0.310856	2.94	-31.5	-41.09	-0.3128	0.1264	-0.329	
0.715286	-0.682102	0.300608	6.02	-27.23	-42	-0.3246	0.1324	-0.3391	
0.734074	-0.687836	0.270962	5.6	-29.26	-39.41	-0.3265	0.1182	-0.3271	
0.7503	-0.672098	0.279624	5.6	-32.76	-38.29	-0.3394	0.1147	-0.3179	
0.74603	-0.642086	0.292678	4.13	-32.9	-37.38	-0.3391	0.1115	-0.3164	
0.72895	-0.605364	0.279624	5.81	-28	-36.47	-0.3497	0.1157	-0.3132	
0.74725	-0.587674	0.252418	9.24	-26.04	-35.77	-0.3551	0.09559999	-0.3129	
0.770796	-0.581818	0.246074	13.09	-27.37	-35.56	-0.3421	0.0942	-0.3059	
0.775188	-0.576206	0.254004	15.82	-27.16	-34.51	-0.3608	0.0913	-0.2995	
0.759572	-0.550586	0.26596	17.5	-25.48	-33.04	-0.3764	0.0897	-0.305	
0.752008	-0.543754	0.269742	16.03	-24.22	-31.85	-0.3651	0.0742	-0.2948	
0.735416	-0.515084	0.257176	14.84	-25.27	-30.24	-0.3637	0.0741	-0.2934	
0.75762	-0.506178	0.249124	10.85	-26.74	-29.96	-0.3727	0.0655	-0.3049	
0.76738	-0.520086	0.250344	11.62	-28.56	-28.07	-0.374	0.0576	-0.2826	
0.758596	-0.507032	0.257908	10.08	-29.82	-25.48	-0.3832	0.0632	-0.2795	
0.766892	-0.490928	0.249856	5.18	-31.5	-22.96	-0.3867	0.0557	-0.2882	
0.787632	-0.483242	0.242048	0.7	-33.32	-20.86	-0.3845	0.0443	-0.2749	
0.82228	-0.47641	0.242048	-4.13	-34.65	-19.53	-0.3936	0.0467	-0.2688	
0.89121	-0.477386	0.22265	-4.69	-30.87	-17.57	-0.3904	0.0448	-0.2718	
0.896456	-0.495442	0.225944	-7.7	-31.43	-16.73	-0.4005	0.0585	-0.2628	
0.895846	-0.499102	0.239242	-8.4	-29.19	-16.8	-0.3901	0.0368	-0.257	
0.923174	-0.5002	0.226432	-11.13	-26.6	-16.38	-0.3993	0.044	-0.2583	
0.93879	-0.52582	0.221918	-9.1	-22.54	-16.52	-0.396	0.0357	-0.2479	
0.931104	-0.545828	0.238144	-4.2	-19.04	-17.5	-0.4002	0.0345	-0.2478	
0.912194	-0.524966	0.22387	4.97	-15.26	-15.89	-0.4122	0.0389	-0.2446	
0.915488	-0.529968	0.181658	9.31	-6.58	-14.98	-0.4011	0.0266	-0.2404	
0.930738	-0.53985	0.179706	11.06	-3.92	-13.09	-0.4081	0.0258	-0.2461	
0.904874	-0.52155	0.195322	4.9	-3.43	-10.64	-0.4022	0.0252	-0.2477	
0.885232	-0.501664	0.154574	2.59	-2.1	-7.77	-0.4025	0.0268	-0.2433	
0.88755	-0.495442	0.139446	0.63	-1.26	-6.09	-0.4002	0.0154	-0.2344	
0.874374	-0.494832	0.157014	-2.73	-3.5	-4.62	-0.4086	0.0306	-0.2432	
0.862906	-0.489586	0.153354	-3.57	-2.31	-3.22	-0.415	0.0233	-0.2474	
0.860588	-0.49715	0.157014	-1.82	-1.4	-1.68	-0.4086	0.0163	-0.2475	
0.851438	-0.485072	0.162382	1.68	1.12	-0.77	-0.4091	0.0211	-0.246	
0.845704	-0.457256	0.1586	1.05	1.82	0.42	-0.4174	0.0172	-0.2458	
0.850706	-0.445422	0.15006	1.54	1.68	1.33	-0.4106	0.0229	-0.2504	
0.852414	-0.419314	0.151158	2.66	1.89	1.12	-0.4049	0.0206	-0.2388	
0.85156	-0.427488	0.152744	2.38	-1.12	1.12	-0.4097	0.0291	-0.252	
0.861808	-0.42944	0.162016	0.35	-3.22	0.84	-0.4106	0.0213	-0.246	
0.869372	-0.436882	0.177144	-1.4	-4.76	0.42	-0.4079	0.0225	-0.2416	
0.884988	-0.445056	0.175924	-0.42	-3.36	0.42	-0.4166	0.0234	-0.2414	
0.899994	-0.456036	0.162504	1.05	-1.96	1.19	-0.4166	0.025	-0.2474	
0.89731	-0.4636	0.171776	0.98	-2.17	1.54	-0.4017	0.0172	-0.2403	
0.888282	-0.468602	0.171532	0.84	-3.5	2.1	-0.4174	0.0188	-0.2502	
0.89304	-0.473726	0.158356	0.77	-3.43	3.01	-0.4171	0.0315	-0.2503	
0.903044	-0.472994	0.1647	1.26	-1.75	3.15	-0.4056	0.027	-0.2343	
0.903654	-0.464698	0.18239	0.21	-0.42	2.87	-0.4143	0.0137	-0.2414	
0.89853	-0.47214	0.180682	-0.77	0.63	3.5	-0.4026	0.0267	-0.2359	
0.894992	-0.472994	0.176534	0.77	3.92	3.99	-0.4068	0.0256	-0.2402	
0.891942	-0.477508	0.173118	1.68	6.44	4.2	-0.3992	0.0217	-0.2389	
0.884988	-0.469944	0.1647	2.94	9.52	5.25	-0.4092	0.0227	-0.249	
0.879376	-0.467748	0.166408	2.59	9.8	5.67	-0.4146	0.0327	-0.2401	
0.882548	-0.482022	0.172386	2.59	8.61	5.88	-0.3984	0.0279	-0.239	
0.883402	-0.487756	0.17995	3.71	8.75	7.07	-0.4101	0.0323	-0.2461	
0.872178	-0.483486	0.191784	5.46	11.62	8.33	-0.401	0.025	-0.2374	
0.869372	-0.485926	0.193248	6.37	13.93	9.66	-0.4056	0.0303	-0.2447	
0.86559	-0.493978	0.190564	6.58	15.61	11.48	-0.4074	0.0194	-0.2505	
0.869372	-0.493368	0.184952	9.03	17.78	13.58	-0.3984	0.0312	-0.2508	
0.865224	-0.497638	0.189954	10.57	18.41	15.54	-0.4007	0.0251	-0.2492	
0.865712	-0.5002	0.20679	10.08	18.48	17.5	-0.3907	0.0464	-0.2388	
0.861442	-0.498126	0.221064	9.03	18.48	19.11	-0.3976	0.0264	-0.2641	
0.860954	-0.494832	0.221552	7.7	18.34	20.93	-0.3924	0.0323	-0.2613	
0.854122	-0.50142	0.2196	6.58	18.9	22.82	-0.3955	0.0358	-0.2657	
0.850584	-0.499834	0.229482	6.16	19.18	24.08	-0.3904	0.0432	-0.2673	
0.838262	-0.50142	0.240584	4.48	18.55	25.06	-0.3915	0.0418	-0.2747	
0.821792	-0.514962	0.237046	4.41	20.02	26.32	-0.3858	0.0587	-0.2779	
0.813496	-0.527894	0.241682	5.67	19.81	27.51	-0.3878	0.0526	-0.2882	
0.807518	-0.53375	0.245098	6.58	21	28.42	-0.3747	0.0497	-0.284	
0.791902	-0.533994	0.25315	5.32	20.3	29.89	-0.3787	0.0628	-0.287	
0.781776	-0.55083	0.268888	1.75	18.13	31.43	-0.3767	0.0579	-0.2929	
0.779946	-0.555344	0.276696	-1.4	16.73	32.83	-0.368	0.0586	-0.2946	
0.769088	-0.55754	0.28853	-3.78	16.66	33.25	-0.3648	0.07099999	-0.2948	
0.767868	-0.571936	0.295362	-5.81	17.43	33.95	-0.3635	0.0725	-0.2963	
0.76555	-0.58926	0.299876	-5.67	18.9	34.93	-0.3633	0.0884	-0.3053	
0.752618	-0.599264	0.305	-4.48	21.35	36.19	-0.3653	0.0933	-0.3008	
0.73627	-0.596092	0.308538	-3.15	24.43	37.31	-0.3581	0.0926	-0.2966	
0.725168	-0.609024	0.304024	-4.76	25.27	38.43	-0.3497	0.1014	-0.3175	
0.718092	-0.638914	0.310612	-6.51	25.69	40.25	-0.3513	0.1015	-0.3116	
0.713822	-0.64721	0.317322	-8.82	25.41	42	-0.3414	0.1021	-0.3074	
0.707112	-0.665266	0.324642	-11.62	26.53	43.47	-0.3402	0.1101	-0.3267	
0.68564	-0.6771	0.336964	-12.6	29.61	45.99	-0.3341	0.1205	-0.321	
0.6771	-0.67466	0.349896	-10.5	32.27	47.6	-0.3295	0.1185	-0.3226	
0.650626	-0.68381	0.355264	-11.2	33.6	48.65	-0.3251	0.1356	-0.3287	
0.625982	-0.693448	0.366244	-9.38	38.92	49.91	-0.3176	0.1316	-0.3274	
0.597556	-0.704672	0.352336	-3.99	46.48	51.38	-0.319	0.1493	-0.3349	
0.564738	-0.698938	0.346236	-1.4	48.58	52.5	-0.306	0.1337	-0.3381	
0.541924	-0.711504	0.353556	-3.08	48.16	52.78	-0.2874	0.1525	-0.3431	
0.524356	-0.719312	0.346236	-9.52	43.33	54.53	-0.2888	0.1543	-0.349	
0.505324	-0.720654	0.349164	-14.56	37.38	55.65	-0.2824	0.1648	-0.3551	
0.494832	-0.728462	0.392352	-15.75	34.65	56.42	-0.2777	0.1771	-0.3568	
0.470432	-0.758962	0.394182	-13.86	37.1	55.86	-0.2716	0.1717	-0.3525	
0.445788	-0.773724	0.396134	-11.34	37.45	56.14	-0.2563	0.1797	-0.3574	
0.43798	-0.77775	0.38552	-10.57	35.63	56.77	-0.2493	0.1838	-0.3664	
0.425536	-0.787388	0.392108	-8.75	36.4	58.73	-0.2428	0.1944	-0.3741	
0.401746	-0.809104	0.396256	-7	38.71	59.5	-0.2306	0.201	-0.3685	
0.38186	-0.817522	0.410896	-2.31	41.65	59.78	-0.2264	0.2038	-0.3745	
0.33611	-0.817644	0.399794	5.32	49.91	59.85	-0.2006	0.2077	-0.3796	
0.31293	-0.821792	0.401868	6.16	51.87	60.83	-0.1854	0.2157	-0.3845	
0.278648	-0.81984	0.396744	9.1	54.04	61.74	-0.1759	0.2068	-0.3862	
0.230336	-0.835212	0.401868	11.13	56.56	62.16	-0.1713	0.2223	-0.3938	
0.19093	-0.844484	0.380884	12.88	56.56	61.32	-0.153	0.2268	-0.3943	
0.16348	-0.847534	0.372588	13.09	51.8	59.57	-0.1402	0.2177	-0.4108	
0.147986	-0.851316	0.362218	3.22	42.42	58.8	-0.1288	0.2165	-0.4022	
0.137738	-0.845826	0.422364	-6.58	31.43	59.29	-0.1257	0.2163	-0.4097	
0.104432	-0.863638	0.434442	-0.14	30.24	57.47	-0.1139	0.231	-0.4145	
0.056852	-0.848998	0.419192	10.71	34.72	57.89	-0.1041	0.2332	-0.4103	
0.049044	-0.84119	0.424804	9.94	35.98	58.8	-0.099	0.2247	-0.4119	
0.036722	-0.836066	0.40199	12.67	36.4	57.82	-0.0809	0.2341	-0.4213	
0.010248	-0.863272	0.433832	8.05	30.31	56.77	-0.0837	0.2328	-0.4212	
-0.014518	-0.871202	0.453108	10.99	30.03	56	-0.0758	0.224	-0.4169	
-0.040016	-0.854122	0.447374	17.5	32.06	54.39	-0.0545	0.2157	-0.4277	
-0.048068	-0.84729	0.449936	14.42	30.31	53.62	-0.0473	0.2149	-0.4279	
-0.062952	-0.8296	0.486536	8.68	26.46	53.27	-0.043	0.2161	-0.431	
-0.069418	-0.828258	0.486048	7.28	27.51	53.06	-0.0271	0.2161	-0.4314	
-0.089182	-0.81496	0.49227	8.96	30.03	51.59	-0.0216	0.2171	-0.4256	
-0.117852	-0.807396	0.484218	10.36	33.18	49.84	-0.0133	0.2101	-0.4406	
-0.144814	-0.807762	0.480436	8.19	32.76	48.65	0.0012	0.2196	-0.4277	
-0.16409	-0.788486	0.475434	6.72	32.34	47.67	0.0031	0.2147	-0.4262	
-0.188978	-0.782386	0.476166	7	32.97	45.99	0.0124	0.209	-0.4338	
-0.209352	-0.791658	0.471286	5.25	32.55	45.15	0.0229	0.2048	-0.4326	
-0.238754	-0.786412	0.464332	6.93	32.9	44.66	0.0271	0.2076	-0.4371	
-0.258518	-0.781898	0.453718	6.86	31.43	44.38	0.035	0.1956	-0.4239	
-0.26596	-0.77653	0.468846	7.7	29.82	43.4	0.0492	0.2038	-0.4421	
-0.28792	-0.762378	0.4575	10.15	29.4	41.37	0.0449	0.201	-0.4331	
-0.308294	-0.756156	0.479948	9.59	27.16	40.32	0.0526	0.1955	-0.4347	
-0.331962	-0.756522	0.485682	11.83	27.72	39.27	0.0657	0.1958	-0.4395	
-0.359412	-0.75274	0.482022	12.95	29.26	39.34	0.0774	0.193	-0.4353	
-0.391132	-0.750666	0.49166	13.65	30.1	39.69	0.0876	0.192	-0.4356	
-0.41419	-0.753228	0.472994	14.42	28.42	39.69	0.0976	0.1767	-0.4372	
-0.417362	-0.745176	0.474702	15.4	26.25	40.04	0.1014	0.1685	-0.4417	
-0.425902	-0.737734	0.476898	16.73	27.23	40.11	0.1158	0.1686	-0.4435	
-0.457744	-0.706868	0.466284	16.31	27.72	40.6	0.1274	0.1674	-0.4394	
-0.490806	-0.706868	0.470066	14	26.18	39.97	0.1256	0.1549	-0.4378	
-0.511058	-0.716018	0.485194	10.43	25.27	40.53	0.1447	0.153	-0.4442	
-0.507032	-0.74176	0.492392	10.85	23.59	41.51	0.1413	0.1565	-0.4382	
-0.499468	-0.685152	0.464088	13.79	27.86	42.77	0.151	0.146	-0.4398	
-0.508984	-0.651846	0.451156	11.34	28.07	39.97	0.1617	0.1402	-0.4445	
-0.5307	-0.639402	0.470554	8.47	26.67	37.1	0.1643	0.1415	-0.4402	
-0.543144	-0.625616	0.463722	7.7	27.3	35.21	0.1737	0.1326	-0.4374	
-0.56486	-0.615734	0.463844	7.49	26.88	32.97	0.1937	0.1195	-0.4378	
-0.561322	-0.59963	0.461892	7	27.65	31.92	0.1822	0.1334	-0.4332	
-0.564372	-0.597678	0.451766	5.67	28.35	30.52	0.1883	0.1296	-0.4333	
-0.590724	-0.598044	0.448716	5.53	28.14	28.91	0.1905	0.1214	-0.4318	
-0.626958	-0.603168	0.445788	5.67	26.88	26.67	0.1962	0.1224	-0.432	
-0.66307	-0.59292	0.432612	6.37	24.57	25.27	0.2113	0.1146	-0.4308	
-0.66612	-0.606096	0.435296	5.88	20.93	24.08	0.2104	0.1083	-0.4308	
-0.661606	-0.59963	0.427854	6.37	18.34	23.59	0.2093	0.1052	-0.4322	
-0.673684	-0.60573	0.415532	7.35	15.89	22.05	0.2241	0.0973	-0.4192	
-0.703574	-0.59536	0.417484	9.03	13.65	20.86	0.2234	0.1086	-0.434	
-0.691984	-0.588772	0.41114	9.59	10.08	19.46	0.2273	0.0955	-0.4281	
-0.668682	-0.585844	0.411018	10.71	7.14	17.92	0.2296	0.1016	-0.4238	
-0.682834	-0.578036	0.419924	10.92	4.34	17.01	0.2295	0.0857	-0.4222	
-0.684786	-0.578036	0.427732	11.48	1.82	16.45	0.232	0.0902	-0.4238	
-0.66734	-0.567666	0.449082	11.41	0.07	16.24	0.2353	0.0867	-0.4283	
-0.68747	-0.559736	0.457378	12.32	0.07	15.47	0.2433	0.078	-0.4269	
-0.684542	-0.546072	0.45994	11.62	-1.12	13.86	0.23	0.0809	-0.4237	
-0.675148	-0.550342	0.474336	10.78	-1.26	12.67	0.2364	0.0772	-0.4371	
-0.68808	-0.538996	0.480436	9.8	-0.7	12.25	0.25	0.0694	-0.4315	
-0.704794	-0.537288	0.482876	7.21	-0.35	12.04	0.2404	0.0657	-0.4386	
-0.68991	-0.528626	0.486048	5.25	-1.12	12.11	0.2449	0.0636	-0.4372	
-0.684176	-0.532408	0.484584	3.36	-0.91	11.83	0.2429	0.0669	-0.4269	
-0.703574	-0.526918	0.487756	2.03	-0.49	11.62	0.2429	0.0686	-0.4328	
-0.708942	-0.523258	0.477874	0.63	-0.35	10.43	0.2408	0.0576	-0.4253	
-0.701378	-0.52033	0.472994	-0.28	-0.98	8.68	0.2489	0.0664	-0.4374	
-0.704672	-0.517524	0.470676	-0.49	-1.05	7.14	0.2378	0.0611	-0.4326	
-0.713578	-0.521672	0.46543	-0.7	-1.75	5.25	0.2449	0.0636	-0.4372	
-0.712846	-0.51728	0.463234	-0.7	-2.59	3.43	0.2432	0.0637	-0.4298	
-0.715042	-0.51484	0.461526	-0.91	-3.78	2.1	0.2459	0.0508	-0.4327	
-0.699914	-0.512522	0.459818	-1.33	-5.18	0.63	0.2407	0.0592	-0.4268	
-0.696132	-0.51667	0.469456	-0.98	-5.53	-0.14	0.2487	0.068	-0.4329	
-0.698572	-0.516304	0.47214	-1.05	-6.02	-0.63	0.247	0.0555	-0.4372	
-0.688202	-0.516304	0.475068	-0.63	-6.3	-1.68	0.2389	0.0626	-0.4267	
-0.683078	-0.520208	0.481778	-0.49	-6.65	-2.66	0.2442	0.0542	-0.4342	
-0.687226	-0.523136	0.480436	-0.21	-6.09	-3.08	0.2375	0.066	-0.4415	
-0.683078	-0.517768	0.478728	0.35	-5.74	-4.27	0.2366	0.0597	-0.44	
-0.676246	-0.514474	0.482266	0.7	-5.32	-4.97	0.2406	0.0625	-0.4371	
-0.6893	-0.513742	0.484462	0.56	-4.9	-5.39	0.2349	0.0614	-0.434	
-0.694668	-0.520086	0.478606	0	-5.53	-5.95	0.2382	0.058	-0.437	
-0.683688	-0.528382	0.482998	0.07	-7.07	-6.51	0.2343	0.0695	-0.44	
-0.685518	-0.536678	0.488976	-0.14	-8.19	-6.58	0.2289	0.0652	-0.4368	
-0.673562	-0.537166	0.494466	-0.84	-8.47	-6.23	0.2306	0.0635	-0.4413	
-0.659898	-0.537654	0.504714	-1.26	-8.54	-5.95	0.2198	0.0693	-0.4366	
-0.665632	-0.542046	0.508984	-2.31	-8.33	-5.6	0.2302	0.0667	-0.4384	
-0.66856	-0.54656	0.506788	-3.15	-7.98	-5.53	0.2284	0.0717	-0.4413	
-0.659166	-0.540948	0.505934	-3.64	-8.05	-5.39	0.2301	0.0683	-0.4413	
-0.65514	-0.544852	0.51057	-3.85	-7.63	-5.67	0.2263	0.0766	-0.4354	
-0.665632	-0.544852	0.50691	-4.55	-7.07	-6.72	0.2289	0.0652	-0.4398	
-0.656604	-0.545096	0.503738	-4.69	-7.07	-7.84	0.212	0.0764	-0.4395	
-0.655628	-0.540216	0.49715	-4.41	-6.65	-8.75	0.2111	0.0718	-0.4409	
-0.655506	-0.543266	0.493124	-4.41	-7.14	-9.94	0.2229	0.08329999	-0.4383	
-0.652212	-0.561688	0.491904	-4.41	-7.84	-11.83	0.2103	0.07979999	-0.4409	
-0.654896	-0.562908	0.491172	-3.99	-8.54	-13.3	0.2125	0.0716	-0.4409	
-0.651114	-0.56059	0.485926	-3.22	-9.59	-14.49	0.2178	0.0775	-0.4411	
-0.639402	-0.564494	0.490074	-3.15	-11.48	-16.24	0.209	0.08	-0.4453	
-0.629032	-0.566934	0.493612	-1.61	-12.11	-18.06	0.2114	0.0812	-0.4306	
-0.627568	-0.566446	0.494466	-0.49	-13.09	-20.3	0.2041	0.0836	-0.4363	
-0.615002	-0.555466	0.489952	1.47	-14.77	-24.22	0.2048	0.0931	-0.4409	
-0.60695	-0.547292	0.470188	3.57	-17.22	-29.26	0.1967	0.0875	-0.4436	
-0.617686	-0.547048	0.471774	4.55	-20.79	-34.65	0.1952	0.0893	-0.448	
-0.617808	-0.574498	0.481778	4.06	-25.2	-38.36	0.1849	0.0919	-0.4463	
-0.59353	-0.616954	0.499956	2.8	-29.68	-41.09	0.189	0.0963	-0.4538	
-0.576328	-0.626226	0.515206	3.36	-32.97	-41.86	0.1715	0.0981	-0.4534	
-0.549122	-0.629032	0.524844	3.08	-35.42	-41.51	0.167	0.1001	-0.4533	
-0.528626	-0.618418	0.535824	2.31	-36.54	-41.79	0.1555	0.1013	-0.4589	
-0.499712	-0.628422	0.552538	-0.21	-35.63	-42.77	0.1492	0.1067	-0.4588	
-0.480802	-0.64782	0.566446	-1.82	-32.13	-43.75	0.1362	0.108	-0.4629	
-0.469456	-0.665388	0.550586	-3.15	-29.68	-43.68	0.1241	0.1139	-0.4611	
-0.45811	-0.661972	0.549854	-2.73	-29.61	-42.63	0.1336	0.1193	-0.457	
-0.440786	-0.673196	0.551562	-5.18	-30.24	-42.35	0.1177	0.1193	-0.4551	
-0.410164	-0.65575	0.571692	-4.2	-30.38	-41.65	0.1122	0.1199	-0.4427	
-0.394426	-0.654652	0.568398	-3.22	-27.16	-41.58	0.1082	0.1139	-0.4578	
-0.37027	-0.66246	0.580964	-6.23	-27.93	-41.93	0.09559999	0.1263	-0.4634	
-0.362828	-0.677466	0.590602	-8.26	-26.04	-41.93	0.0927	0.125	-0.4575	
-0.338672	-0.695888	0.598776	-11.06	-25.97	-41.37	0.09	0.1412	-0.4649	
-0.324886	-0.706502	0.5856	-10.36	-24.15	-41.44	0.0775	0.1345	-0.4601	
-0.325984	-0.707234	0.579988	-12.04	-23.24	-41.44	0.0698	0.1416	-0.4659	
-0.318908	-0.698328	0.582306	-14.56	-24.64	-41.02	0.0622	0.1439	-0.4583	
-0.288896	-0.70699	0.58072	-15.89	-25.34	-40.67	0.047	0.1534	-0.4609	
-0.27572	-0.726632	0.586698	-17.29	-25.9	-40.81	0.0547	0.1462	-0.4566	
-0.27389	-0.73871	0.588772	-17.01	-25.62	-41.23	0.0436	0.1585	-0.4594	
-0.249124	-0.727242	0.583648	-15.68	-25.9	-41.72	0.0339	0.1673	-0.4489	
-0.224724	-0.716018	0.572668	-15.82	-28.21	-43.47	0.0213	0.1638	-0.453	
-0.194712	-0.731268	0.587674	-21.49	-30.45	-45.22	0.0166	0.1691	-0.4543	
-0.169458	-0.725534	0.572912	-16.38	-28.21	-45.78	0.0143	0.1613	-0.4528	
-0.152622	-0.737734	0.560834	-17.57	-28.28	-46.62	-0.0071	0.1746	-0.4479	
-0.149328	-0.75823	0.572546	-20.3	-30.38	-47.04	-0.0159	0.177	-0.4491	
-0.13115	-0.74725	0.554124	-17.78	-29.26	-46.69	-0.0171	0.174	-0.4476	
-0.103822	-0.747738	0.536678	-19.25	-30.52	-46.2	-0.0118	0.1782	-0.4463	
-0.082228	-0.771406	0.529114	-22.82	-33.11	-46.62	-0.0305	0.1768	-0.4399	
-0.07259	-0.781166	0.521062	-22.05	-33.25	-46.69	-0.0361	0.1917	-0.4458	
-0.061854	-0.788852	0.506178	-22.26	-35.07	-45.78	-0.0555	0.1841	-0.4467	
-0.043432	-0.809714	0.510936	-24.15	-38.36	-45.15	-0.0608	0.1926	-0.4407	
-0.009028	-0.806908	0.506178	-24.22	-37.8	-44.31	-0.06439999	0.1992	-0.4362	
0.028914	-0.810934	0.489586	-21.91	-39.06	-44.45	-0.0865	0.203	-0.4283	
0.044042	-0.815936	0.479948	-20.02	-39.06	-43.54	-0.0942	0.2085	-0.4311	
0.075274	-0.814594	0.476532	-20.93	-38.57	-42.35	-0.1076	0.1955	-0.4233	
0.092964	-0.820084	0.459452	-18.34	-37.38	-41.58	-0.1054	0.2032	-0.4234	
0.129808	-0.840214	0.447984	-22.68	-40.32	-42.35	-0.1105	0.2084	-0.413	
0.156282	-0.837164	0.441518	-19.88	-39.27	-40.81	-0.1259	0.2179	-0.4338	
0.188856	-0.847168	0.433832	-19.88	-41.16	-40.39	-0.1372	0.2142	-0.4035	
0.198006	-0.831918	0.440298	-18.06	-41.09	-39.06	-0.1387	0.216	-0.4064	
0.2257	-0.811666	0.424438	-17.43	-39.83	-37.8	-0.1551	0.2049	-0.4044	
0.255224	-0.805688	0.432978	-22.61	-38.29	-37.24	-0.1627	0.2055	-0.3895	
0.280234	-0.806664	0.427122	-18.27	-33.74	-35.91	-0.1707	0.2159	-0.3952	
0.301218	-0.817034	0.423096	-15.89	-29.82	-35.28	-0.1725	0.2192	-0.3923	
0.316224	-0.837896	0.395524	-16.52	-26.18	-36.19	-0.1864	0.2269	-0.386	
0.310002	-0.844484	0.376248	-15.75	-25.55	-36.68	-0.1989	0.2202	-0.3798	
0.32147	-0.857782	0.369538	-17.08	-27.37	-36.61	-0.1901	0.2193	-0.3815	
0.339038	-0.860222	0.367708	-16.31	-28.49	-36.12	-0.2005	0.2093	-0.3915	
0.359534	-0.842288	0.357948	-15.82	-28.63	-35	-0.2073	0.2179	-0.381	
0.392352	-0.829844	0.355386	-17.01	-29.19	-34.23	-0.2118	0.2183	-0.3735	
0.424804	-0.82289	0.354654	-18.62	-28.28	-33.88	-0.2134	0.2168	-0.3646	
0.448472	-0.84851	0.362828	-20.79	-26.74	-35.07	-0.2402	0.2083	-0.3565	
0.43127	-0.832894	0.351604	-14.56	-18.27	-36.12	-0.2353	0.2189	-0.3582	
0.42151	-0.83692	0.314516	-13.51	-14.14	-37.24	-0.2431	0.2102	-0.3638	
0.412482	-0.829112	0.317566	-3.43	-10.92	-38.57	-0.251	0.2141	-0.3503	
0.402722	-0.812642	0.288164	0.28	-8.26	-37.8	-0.2528	0.2015	-0.3487	
0.398574	-0.799222	0.25925	-0.63	-11.48	-37.31	-0.2563	0.2098	-0.3531	
0.403332	-0.801418	0.251808	-2.17	-18.69	-37.31	-0.2606	0.207	-0.3441	
0.425292	-0.792634	0.259494	-4.9	-27.72	-37.8	-0.2635	0.2089	-0.3485	
0.449814	-0.762988	0.269864	-1.54	-32.69	-38.92	-0.2694	0.1936	-0.3453	
0.502152	-0.756888	0.28487	-0.7	-37.38	-41.44	-0.2778	0.1897	-0.3436	
0.538508	-0.764452	0.304878	2.24	-38.36	-44.31	-0.2848	0.1872	-0.3404	
0.543998	-0.762988	0.306708	1.54	-38.85	-45.57	-0.2961	0.1819	-0.3327	
0.55083	-0.72773	0.303048	-1.26	-37.24	-43.82	-0.3005	0.1966	-0.3224	
0.589626	-0.737734	0.30561	-3.5	-35.7	-42.84	-0.3064	0.1813	-0.3206	
0.640622	-0.765794	0.311466	-3.29	-31.15	-41.72	-0.3194	0.1842	-0.3307	
0.634766	-0.788486	0.299754	-1.89	-25.9	-40.81	-0.3141	0.1677	-0.31	
0.616466	-0.754692	0.268888	1.33	-21.28	-38.57	-0.3251	0.1624	-0.3112	
0.615368	-0.726632	0.242414	6.44	-18.69	-37.87	-0.3308	0.1614	-0.311	
0.63257	-0.703574	0.23363	10.22	-17.5	-37.31	-0.3288	0.1548	-0.3081	
0.645624	-0.690764	0.224236	8.4	-18.76	-36.82	-0.3362	0.1539	-0.3005	
0.667096	-0.711748	0.233264	0.84	-25.34	-36.89	-0.3364	0.1413	-0.3034	
0.673318	-0.72712	0.259616	-3.64	-30.94	-36.82	-0.3443	0.1484	-0.3017	
0.69479	-0.67771	0.255834	0.49	-28.7	-36.12	-0.3493	0.1552	-0.3002	
0.717482	-0.622322	0.235582	5.6	-23.66	-35.49	-0.3562	0.1353	-0.2954	
0.742614	-0.601582	0.230458	7.7	-20.72	-36.12	-0.3587	0.1307	-0.2939	
0.759084	-0.573766	0.23363	8.75	-19.18	-36.4	-0.3632	0.1311	-0.2878	
0.760792	-0.568886	0.227774	7	-19.6	-36.89	-0.3668	0.1252	-0.2966	
0.776896	-0.58743	0.216794	3.57	-21.07	-36.4	-0.3689	0.1143	-0.2905	
0.76433	-0.597922	0.216306	1.26	-23.45	-36.26	-0.3717	0.1113	-0.2831	
0.757132	-0.611708	0.22326	-4.62	-25.9	-35.7	-0.3652	0.1027	-0.2802	
0.778604	-0.630374	0.208376	-8.26	-26.04	-33.18	-0.3767	0.1006	-0.274	
0.8052	-0.635498	0.186294	-4.2	-22.54	-30.24	-0.3781	0.0991	-0.2695	
0.799954	-0.615978	0.176534	4.9	-20.09	-28.14	-0.3833	0.0917	-0.2664	
0.787022	-0.607438	0.16226	2.45	-21.42	-26.81	-0.3896	0.0938	-0.2529	
0.810446	-0.602192	0.163358	-1.12	-24.01	-24.78	-0.3828	0.0836	-0.2545	
0.826062	-0.604022	0.206058	-9.31	-26.95	-23.73	-0.3899	0.0844	-0.2632	
0.829478	-0.594628	0.230092	-7.28	-21.77	-23.03	-0.396	0.0707	-0.2585	
0.850828	-0.572424	0.195078	-1.19	-11.48	-21.77	-0.3892	0.0731	-0.2484	
0.843264	-0.58377	0.174704	5.74	-5.53	-20.86	-0.3939	0.0784	-0.2542	
0.841556	-0.590968	0.169946	9.94	-5.04	-19.88	-0.4034	0.0681	-0.2406	
0.834358	-0.590602	0.176046	9.31	-7.35	-17.22	-0.4034	0.073	-0.2598	
0.84241	-0.569862	0.169824	5.74	-7.21	-14.7	-0.4021	0.0553	-0.245	
0.852414	-0.560712	0.161406	2.1	-6.93	-13.44	-0.4085	0.0607	-0.2389	
0.8601	-0.571204	0.15616	2.66	-8.33	-11.97	-0.4041	0.0603	-0.242	
0.85034	-0.548268	0.164944	2.24	-7.7	-10.36	-0.4116	0.0642	-0.2433	
0.858148	-0.529968	0.159942	-1.05	-6.44	-8.82	-0.4038	0.0554	-0.2361	
0.862784	-0.509472	0.15982	0.91	-2.8	-8.61	-0.4023	0.0537	-0.2331	
0.839116	-0.499346	0.17263	2.31	-0.07	-8.75	-0.41	0.0608	-0.2404	
0.842654	-0.497272	0.155672	-0.14	-0.07	-8.19	-0.405	0.0381	-0.2418	
0.847046	-0.511546	0.156038	-0.63	-0.91	-7.63	-0.4078	0.0527	-0.2404	
0.831064	-0.504714	0.167384	2.52	-0.14	-6.86	-0.4035	0.0539	-0.242	
0.82655	-0.491538	0.160918	3.5	3.5	-5.81	-0.4081	0.0416	-0.2447	
0.84912	-0.488854	0.149206	4.76	5.95	-5.25	-0.4088	0.0497	-0.2477	
0.854732	-0.493856	0.155184	2.52	2.8	-4.62	-0.4087	0.0481	-0.2462	
0.859856	-0.483852	0.164212	0.14	0	-4.13	-0.4068	0.0447	-0.2507	
0.880596	-0.49288	0.17019	-1.96	-1.05	-3.78	-0.4046	0.0349	-0.2462	
0.872178	-0.511546	0.177632	-1.89	-0.56	-3.71	-0.4108	0.0403	-0.2461	
0.874862	-0.50935	0.164456	-0.63	1.89	-3.15	-0.4087	0.0481	-0.2462	
0.873154	-0.50935	0.175192	-0.42	2.24	-2.45	-0.4067	0.0447	-0.2551	
0.871446	-0.51179	0.183732	-3.08	1.33	-1.61	-0.4147	0.0519	-0.2491	
0.860954	-0.517768	0.17446	-1.68	2.87	-0.56	-0.4052	0.0413	-0.2448	
0.861198	-0.522404	0.166774	0.49	6.3	0.56	-0.4037	0.0412	-0.2478	
0.851804	-0.510326	0.166896	4.41	10.92	1.12	-0.4051	0.0397	-0.2433	
0.85156	-0.50935	0.177754	5.11	11.41	1.61	-0.4044	0.0492	-0.2493	
0.847168	-0.510326	0.183244	5.46	11.83	2.45	-0.4076	0.0401	-0.258	
0.830088	-0.509716	0.185562	4.97	11.69	3.08	-0.4037	0.0428	-0.2537	
0.833382	-0.49837	0.174704	6.86	14.49	3.64	-0.3996	0.044	-0.2494	
0.831918	-0.490684	0.165676	7.21	16.17	4.34	-0.3988	0.0376	-0.2568	
0.848388	-0.491416	0.165432	6.51	13.44	4.76	-0.4053	0.032	-0.2639	
0.847656	-0.49959	0.182146	4.83	8.82	4.9	-0.3938	0.0467	-0.2599	
0.83997	-0.504958	0.20069	1.12	3.99	4.55	-0.3922	0.0465	-0.2629	
0.838994	-0.514474	0.203984	-1.75	2.94	4.2	-0.3882	0.0351	-0.2674	
0.836432	-0.519598	0.206668	-0.7	6.09	4.2	-0.3948	0.0436	-0.2672	
0.837042	-0.507886	0.203862	2.73	10.43	5.46	-0.3876	0.0461	-0.2734	
0.837774	-0.512766	0.20679	3.22	10.85	6.37	-0.3969	0.0518	-0.2672	
0.825818	-0.513376	0.209352	3.29	10.43	6.93	-0.3939	0.034	-0.2657	
0.828502	-0.50935	0.209962	4.27	12.25	7.42	-0.3963	0.0438	-0.2642	
0.834968	-0.50874	0.211914	4.76	13.02	7.98	-0.387	0.054	-0.2705	
0.84241	-0.524966	0.221796	3.08	11.62	9.1	-0.3905	0.0464	-0.2733	
0.837286	-0.53192	0.22448	2.87	10.64	10.22	-0.3892	0.0479	-0.2748	
0.838262	-0.543022	0.232044	2.31	9.73	11.83	-0.3757	0.0418	-0.2721	
0.8418	-0.540704	0.238876	2.52	10.99	13.09	-0.3927	0.0546	-0.2748	
0.849242	-0.534238	0.247172	1.82	13.02	14.14	-0.3912	0.0545	-0.2763	
0.840946	-0.532408	0.252662	2.31	15.12	14.84	-0.3849	0.0633	-0.2706	
0.828502	-0.542168	0.261568	2.1	15.54	15.68	-0.3865	0.0508	-0.2764	
0.81801	-0.552538	0.265106	2.17	16.8	17.08	-0.3787	0.0612	-0.2796	
0.80581	-0.55449	0.264618	1.75	19.18	18.97	-0.3759	0.0625	-0.2826	
0.796172	-0.549976	0.261568	3.22	21.63	20.51	-0.3788	0.06439999	-0.287	
0.789706	-0.560834	0.263886	2.59	23.1	21.63	-0.3784	0.0596	-0.2855	
0.786534	-0.568398	0.266204	3.5	23.45	23.1	-0.3752	0.0736	-0.2945	
0.770796	-0.576938	0.270596	4.13	22.82	25.06	-0.3736	0.0735	-0.2975	
0.75518	-0.565836	0.272304	6.65	23.87	26.95	-0.3615	0.0692	-0.3052	
0.752984	-0.565714	0.263764	6.23	25.27	28.42	-0.361	0.077	-0.2949	
0.750666	-0.586698	0.272914	4.41	22.26	29.96	-0.3564	0.0782	-0.3113	
0.723826	-0.588894	0.28792	4.06	17.08	31.57	-0.3541	0.086	-0.3158	
0.721996	-0.599508	0.308782	1.05	14.49	32.27	-0.3508	0.0825	-0.3233	
0.725534	-0.600606	0.316712	-2.8	12.95	33.81	-0.3467	0.0869	-0.3264	
0.725656	-0.589626	0.324032	-2.59	14.35	34.3	-0.3485	0.1012	-0.3072	
0.712968	-0.588528	0.326838	-1.54	17.01	34.09	-0.3419	0.09429999	-0.3162	
0.697352	-0.611342	0.329278	0.98	18.48	33.95	-0.339	0.09559999	-0.3207	
0.684664	-0.622444	0.328058	4.27	20.58	33.74	-0.3313	0.106	-0.321	
0.677832	-0.630862	0.33001	4.69	22.4	33.6	-0.3359	0.1112	-0.3283	
0.6649	-0.633302	0.348066	2.45	22.61	33.53	-0.3313	0.1076	-0.3269	
0.64843	-0.641964	0.361364	0.35	22.33	33.46	-0.3247	0.1182	-0.3419	
0.633668	-0.656238	0.363926	-0.7	22.33	34.02	-0.3207	0.1209	-0.3361	
0.624762	-0.651236	0.362462	0.35	22.68	34.3	-0.3101	0.1309	-0.3365	
0.613904	-0.663192	0.36234	-1.96	21.63	34.23	-0.3094	0.1229	-0.3379	
0.602558	-0.70577	0.368928	-6.09	19.11	34.37	-0.3108	0.139	-0.338	
0.581452	-0.725534	0.369904	-8.47	15.82	36.75	-0.3103	0.1358	-0.3468	
0.564982	-0.726754	0.379664	-7.91	17.29	38.85	-0.2983	0.1473	-0.3487	
0.545584	-0.7137	0.39345	-8.68	20.79	41.09	-0.2896	0.1481	-0.3548	
0.52765	-0.727242	0.391376	-9.52	19.32	42.14	-0.2961	0.155	-0.3488	
0.504104	-0.730048	0.412116	-8.61	20.23	44.38	-0.2861	0.1556	-0.3491	
0.48129	-0.742614	0.403942	-9.87	23.17	46.2	-0.2823	0.1457	-0.3491	
0.45994	-0.737612	0.412482	-4.41	27.3	49.21	-0.2691	0.1603	-0.354	
0.439078	-0.744566	0.410652	-4.62	28.07	50.05	-0.2666	0.1665	-0.3615	
0.41358	-0.73871	0.40016	-3.29	28.07	48.51	-0.2652	0.1838	-0.3631	
0.402234	-0.758718	0.410652	-1.75	27.37	46.97	-0.2539	0.1716	-0.3692	
0.386984	-0.781288	0.411018	-2.24	27.93	45.5	-0.2418	0.1815	-0.3696	
0.39162	-0.77226	0.416996	-2.38	29.33	45.43	-0.2448	0.1851	-0.3784	
0.381738	-0.764574	0.446276	-1.96	31.08	44.1	-0.2347	0.1857	-0.3801	
0.360388	-0.767502	0.454328	0.07	33.46	42.98	-0.2189	0.1856	-0.3761	
0.320128	-0.752618	0.428342	3.36	39.48	40.88	-0.2183	0.1951	-0.3791	
0.289994	-0.786656	0.423218	1.19	40.39	39.27	-0.2115	0.2008	-0.3808	
0.263398	-0.817156	0.415044	-1.89	38.08	39.2	-0.2114	0.2008	-0.3852	
0.236924	-0.832162	0.434076	-3.22	32.62	40.67	-0.1947	0.2087	-0.3887	
0.225212	-0.84607	0.429196	-1.4	29.05	40.6	-0.1886	0.205	-0.3918	
0.201178	-0.856074	0.43249	0.91	28.14	40.6	-0.1769	0.2038	-0.3935	
0.16592	-0.859856	0.418704	5.67	30.17	40.95	-0.1769	0.2071	-0.4039	
0.145546	-0.862174	0.426634	6.23	28.35	41.09	-0.1635	0.2152	-0.3939	
0.128466	-0.854122	0.422974	7.63	25.48	40.88	-0.1642	0.2106	-0.4057	
0.09857599	-0.848022	0.415898	8.82	22.75	40.04	-0.1641	0.2106	-0.3845	
0.081862	-0.856562	0.409554	11.48	19.88	39.48	-0.1533	0.2174	-0.4316	
0.057096	-0.898774	0.398452	9.03	15.19	39.55	-0.1464	0.2072	-0.3864	
0.018666	-0.908534	0.400038	9.66	7.42	42.28	-0.133	0.2137	-0.3962	
0.015616	-0.883646	0.40138	3.78	-0.91	44.73	-0.1376	0.219	-0.405	
0.019398	-0.851194	0.422364	9.38	-7.84	43.12	-0.1316	0.2168	-0.4066	
0.020252	-0.850584	0.406382	3.5	-17.15	41.65	-0.1236	0.2097	-0.3856	
0.028914	-0.837286	0.425048	2.24	-24.57	40.88	-0.133	0.2186	-0.4139	
0.021838	-0.843874	0.438346	2.38	-30.52	38.43	-0.1232	0.2224	-0.4172	
0.02928	-0.818742	0.431026	6.16	-37.38	35.14	-0.1215	0.2174	-0.4339	
0.021472	-0.819718	0.440664	4.69	-41.09	32.62	-0.1266	0.2259	-0.4097	
0.025132	-0.83631	0.444324	5.04	-44.66	30.1	-0.1379	0.2238	-0.435	
0.033428	-0.852292	0.461404	1.82	-49.49	28.28	-0.1283	0.226	-0.3993	
0.040626	-0.856684	0.456524	2.73	-51.24	26.53	-0.1414	0.2289	-0.4035	
0.048556	-0.854854	0.434808	5.04	-50.12	25.69	-0.1455	0.2229	-0.39	
0.034404	-0.856074	0.442128	3.29	-53.55	25.62	-0.1497	0.2217	-0.3929	
0.049532	-0.85339	0.44896	-0.35	-58.31	24.01	-0.1474	0.2295	-0.3974	
0.070516	-0.848144	0.471042	-3.36	-62.09	24.01	-0.156	0.2287	-0.3972	
0.072468	-0.871934	0.476044	-4.34	-62.72	22.54	-0.163	0.223	-0.3851	
0.077348	-0.860954	0.478362	1.54	-59.29	22.89	-0.1601	0.2402	-0.3868	
0.087718	-0.846436	0.437126	-2.59	-62.16	20.44	-0.1696	0.2332	-0.3865	
0.09076799	-0.879132	0.475922	-5.67	-66.57	18.06	-0.1799	0.2342	-0.3833	
0.083204	-0.877912	0.470554	2.45	-62.37	17.08	-0.1808	0.2422	-0.3745	
0.0854	-0.877546	0.462624	4.69	-59.92	18.27	-0.1817	0.2343	-0.367	
0.097722	-0.865346	0.445666	6.16	-57.75	20.93	-0.185	0.2377	-0.3655	
0.102968	-0.888526	0.43188	1.54	-59.43	22.54	-0.1936	0.2354	-0.3593	
0.081862	-0.898652	0.447496	1.68	-60.76	24.92	-0.2048	0.2476	-0.3562	
0.106872	-0.86071	0.423462	4.48	-60.83	25.2	-0.209	0.2448	-0.3531	
0.116144	-0.858148	0.430416	3.71	-60.27	25.97	-0.2072	0.2557	-0.3502	
0.114802	-0.863882	0.423828	8.47	-56.14	29.4	-0.2168	0.2487	-0.344	
0.113948	-0.852292	0.397232	6.09	-59.22	28.56	-0.2183	0.2521	-0.3529	
0.116876	-0.881084	0.426878	1.89	-64.12	26.88	-0.2131	0.2388	-0.3411	
0.132004	-0.880718	0.41724	5.46	-63.28	25.34	-0.2307	0.258	-0.3393	
0.145546	-0.860588	0.403332	11.48	-61.04	24.43	-0.2245	0.251	-0.3306	
0.137982	-0.839482	0.385398	11.27	-60.97	24.92	-0.2324	0.2581	-0.3274	
0.162138	-0.907436	0.410164	11.48	-73.57	17.43	-0.2445	0.2624	-0.3242	
0.253272	-0.821548	0.435662	8.12	-65.38	21.77	-0.252	0.2647	-0.3181	
0.259372	-0.836188	0.450302	8.54	-62.3	20.09	-0.2477	0.25	-0.3211	
0.23912	-0.816302	0.467748	9.52	-58.17	20.51	-0.2542	0.2537	-0.3047	
0.237656	-0.802394	0.47336	10.64	-53.2	19.11	-0.2561	0.2603	-0.3106	
0.253394	-0.803858	0.471652	10.71	-48.86	16.45	-0.2578	0.2621	-0.3076	
0.259372	-0.799344	0.4819	6.93	-42.84	12.53	-0.2572	0.2556	-0.3076	
0.273158	-0.798368	0.481168	4.34	-36.54	10.85	-0.2629	0.2672	-0.2957	
0.26535	-0.796538	0.492514	1.26	-32.13	9.24	-0.2745	0.2542	-0.3027	
0.254126	-0.807152	0.498736	-0.63	-26.11	7.98	-0.2751	0.2732	-0.2895	
0.238998	-0.7991	0.484584	-0.91	-19.39	7.56	-0.2791	0.2688	-0.2864	
0.232288	-0.806786	0.462868	-2.03	-13.72	6.58	-0.2784	0.2624	-0.2923	
0.227774	-0.826428	0.452986	-3.92	-11.27	5.04	-0.2653	0.277	-0.2913	
0.219722	-0.831552	0.454816	-4.69	-9.24	4.13	-0.2708	0.2744	-0.2941	
0.218136	-0.84668	0.445178	-6.72	-6.58	3.57	-0.2721	0.2713	-0.2881	
0.21472	-0.869128	0.424072	-5.32	-3.92	3.71	-0.2711	0.2743	-0.2808	
0.20862	-0.862906	0.422486	-4.76	-2.03	3.71	-0.2756	0.278	-0.2881	
0.198616	-0.855342	0.418826	-4.48	-0.49	3.36	-0.2807	0.2689	-0.2834	
0.198982	-0.85888	0.407846	-4.97	0.42	2.87	-0.2678	0.2725	-0.2897	
0.1952	-0.871324	0.403088	-6.02	0.35	1.12	-0.2761	0.2685	-0.2895	
0.19215	-0.874862	0.405406	-5.04	1.4	-0.07	-0.2801	0.2784	-0.282	
0.19764	-0.871446	0.406992	-4.41	2.03	-0.28	-0.2717	0.2665	-0.2851	
0.193004	-0.885232	0.420656	-4.97	2.8	-0.84	-0.2764	0.2668	-0.2747	
0.203008	-0.884012	0.424072	-5.04	4.62	-1.33	-0.2801	0.2784	-0.2806	
0.200446	-0.87047	0.40443	-3.29	8.82	-1.26	-0.2726	0.2744	-0.2807	
0.18605	-0.870958	0.404674	-3.01	9.94	-2.1	-0.2726	0.2744	-0.2807	
0.183976	-0.871324	0.409066	-3.85	10.36	-3.78	-0.2689	0.2661	-0.2808	
0.195078	-0.877302	0.412238	-3.64	10.85	-4.55	-0.268	0.274	-0.2882	
0.188856	-0.880718	0.395402	-2.03	12.32	-4.97	-0.2758	0.2653	-0.2924	
0.16592	-0.88389	0.386496	-0.49	11.97	-4.9	-0.2688	0.282	-0.2853	
0.166652	-0.87962	0.39345	-0.49	10.92	-4.41	-0.2795	0.2736	-0.2909	
0.171288	-0.888038	0.40138	-0.77	10.15	-3.64	-0.2725	0.2777	-0.297	
0.16775	-0.881206	0.402722	-0.49	10.22	-3.15	-0.2623	0.2767	-0.2943	
0.171776	-0.88572	0.411872	-1.54	10.57	-3.08	-0.2663	0.2707	-0.2853	
0.167018	-0.884744	0.402112	0	11.97	-3.01	-0.2676	0.2725	-0.2986	
0.162748	-0.865102	0.3965	0.77	12.32	-2.73	-0.2564	0.2745	-0.2944	
0.15738	-0.861076	0.406626	-1.96	10.36	-2.8	-0.2603	0.2702	-0.2958	
0.176046	-0.86925	0.433344	-4.2	10.15	-2.38	-0.2652	0.2611	-0.2986	
0.171288	-0.856684	0.423218	-3.78	12.46	-3.08	-0.2672	0.2661	-0.2926	
0.169214	-0.85949	0.426878	-4.27	12.81	-4.34	-0.267	0.2661	-0.3	
0.17995	-0.843752	0.441152	-5.74	14	-5.46	-0.2601	0.2702	-0.3017	
0.188002	-0.851682	0.441884	-6.09	16.87	-7.98	-0.2581	0.2604	-0.2913	
0.18788	-0.853268	0.439078	-5.46	19.88	-11.55	-0.2599	0.267	-0.2973	
0.185318	-0.83814	0.43981	-5.18	22.33	-14.98	-0.2552	0.2633	-0.3003	
0.191174	-0.839604	0.42578	-6.09	25.41	-18.06	-0.2659	0.2675	-0.2897	
0.192516	-0.864004	0.406626	-7	27.65	-20.65	-0.2629	0.2656	-0.2913	
0.188978	-0.875472	0.42334	-8.96	26.88	-20.86	-0.267	0.2645	-0.2956	
0.209352	-0.878888	0.439322	-10.71	27.51	-20.44	-0.2628	0.2673	-0.2987	
0.22509	-0.88145	0.441884	-10.15	30.87	-20.86	-0.261	0.2639	-0.3002	
0.221674	-0.867542	0.430416	-8.33	34.37	-22.89	-0.2642	0.2674	-0.3016	
0.22936	-0.837774	0.428586	-8.05	36.33	-24.5	-0.2496	0.2501	-0.3033	
0.247538	-0.826428	0.433466	-9.31	38.22	-26.81	-0.2579	0.2653	-0.3165	
0.269376	-0.81618	0.43859	-10.99	40.46	-29.12	-0.2577	0.2637	-0.318	
0.269254	-0.812642	0.421754	-13.86	48.58	-30.66	-0.2463	0.2641	-0.3124	
0.261812	-0.808982	0.414678	-17.08	50.75	-30.73	-0.2458	0.2642	-0.3331	
0.27694	-0.819474	0.411506	-18.48	54.46	-31.92	-0.2535	0.2506	-0.3239	
0.288042	-0.815692	0.413214	-18.9	60.55	-33.39	-0.2514	0.2583	-0.3196	
0.290116	-0.826428	0.42151	-20.02	68.46	-34.44	-0.2439	0.256	-0.3212	
0.285968	-0.823378	0.39711	-20.58	77.98	-35.14	-0.2507	0.2552	-0.3373	
0.283284	-0.863272	0.38613	-21.98	81.97	-36.19	-0.2313	0.2469	-0.3333	
0.268522	-0.895968	0.371124	-17.29	89.88	-35.7	-0.2354	0.26	-0.3318	
0.249124	-0.897188	0.356606	-10.08	95.97	-34.65	-0.2236	0.2605	-0.3454	
0.25437	-0.889258	0.385764	-4.48	96.6	-31.5	-0.2152	0.2486	-0.35	
0.249368	-0.898652	0.393694	1.75	100.03	-30.73	-0.1941	0.2418	-0.3623	
0.24827	-0.868274	0.379786	1.61	101.22	-30.24	-0.2024	0.2395	-0.368	
0.246684	-0.880474	0.384544	-7	101.15	-27.93	-0.1991	0.236	-0.3725	
0.246562	-0.87413	0.377102	-14.7	108.22	-30.52	-0.1856	0.2299	-0.3713	
0.214476	-0.885964	0.379664	-14.7	105	-31.92	-0.1767	0.2291	-0.376	
0.160796	-0.917928	0.369782	-15.54	105.49	-31.71	-0.1655	0.236	-0.3896	
0.1525	-0.923784	0.359656	-15.96	104.09	-29.12	-0.1476	0.2294	-0.387	
0.123464	-0.941352	0.362096	-16.52	99.96	-29.68	-0.1412	0.2367	-0.3813	
0.129076	-0.953796	0.372832	-17.15	89.88	-30.94	-0.134	0.2392	-0.3919	
0.145912	-0.949404	0.393572	-15.05	80.92	-26.74	-0.1331	0.2487	-0.4023	
0.155184	-0.920612	0.39101	-12.18	78.82	-30.66	-0.1205	0.2347	-0.3937	
0.156648	-0.885354	0.403576	-10.64	84.35	-31.85	-0.1106	0.2402	-0.4073	
0.141642	-0.884134	0.382958	-13.51	85.12	-30.87	-0.1134	0.2388	-0.4057	
0.156404	-0.906216	0.340746	-7.49	90.09	-33.32	-0.108	0.2288	-0.4117	
0.114436	-0.916464	0.391376	-19.04	75.81	-35.42	-0.0954	0.2339	-0.415	
0.122976	-0.920978	0.370758	-11.06	75.53	-36.75	-0.0824	0.2469	-0.4051	
0.09942999	-0.908168	0.373198	-10.78	78.68	-36.47	-0.0812	0.2357	-0.4139	
0.138592	-0.889136	0.371246	-14.49	83.09	-33.95	-0.0739	0.2333	-0.4081	
0.09272	-0.908656	0.391132	-16.17	85.82	-36.47	-0.0621	0.2289	-0.404	
0.099308	-0.896456	0.381128	-13.79	83.37	-33.46	-0.0603	0.2431	-0.413	
0.117486	-0.886086	0.373198	-17.43	78.05	-31.85	-0.0531	0.244	-0.4161	
