Sensor string: E
Serial number: 1970-01-0000
Firmware version: 2.015
Hardware version: 2.2
Calibration quality: 5
ax	ay	az	gx	gy	gz	mx	my	mz

-1.015406	0.011712	-0.009393999	0.7	0.63	-0.21	0.424	-0.002	-0.2128	Reference
-1.019676	0.010248	-0.007808	0.21	1.12	-0.21	0.4239	-0.0004	-0.2113	
-1.017724	0.007442	-0.008174	-0.28	0.77	-0.14	0.4222	0.0059	-0.205	
-1.016992	0.007198	-0.010492	-0.42	-0.28	-0.14	0.4283	-0.0005	-0.2067	
-1.016504	0.008662	-0.010858	-0.28	-0.56	-0.21	0.4257	-0.0063	-0.2039	
-1.014796	0.00976	-0.008784	-0.56	-0.35	-0.21	0.4251	0.0054	-0.2156	
-1.014064	0.009393999	-0.008296	-0.63	0.35	-0.14	0.4322	0.0113	-0.2109	
-1.01443	0.010248	-0.007929999	-0.84	0.49	-0.07	0.4194	0.0026	-0.2173	
-1.014308	0.009638	-0.012078	-0.56	0.7	0	0.4233	0.0135	-0.2033	
-1.014552	0.007198	-0.013054	-0.42	0.77	0	0.4189	0.015	-0.2108	
-1.015406	0.005002	-0.011956	-0.21	0.84	-0.07	0.4327	0.0008	-0.2067	
-1.016016	0.006588	-0.008662	0.42	0.91	-0.07	0.4154	-0.006	-0.2069	
-1.017236	0.006832	-0.011956	0.7	1.05	-0.07	0.4211	-0.0016	-0.2053	
-1.01748	0.00671	-0.010492	-0.21	0.91	-0.07	0.4295	0.0054	-0.2096	
-1.017724	0.008905999	-0.011956	-0.07	0.56	-0.07	0.4297	0.0025	-0.2051	
-1.016016	0.007686	-0.010126	0	0.42	0	0.4298	-0.0007	-0.2113	
-1.016992	0.007686	-0.01159	-0.28	0.56	0.07	0.4192	0.0073	-0.2111	
-1.015162	0.008052	-0.01159	-0.35	0.56	0.07	0.4242	-0.0064	-0.2069	
-1.01565	0.00732	-0.01342	0	0.49	0.14	0.428	0.0071	-0.205	
-1.016016	0.009272	-0.012078	0	0.7	0.14	0.4162	0.009099999	-0.2065	
-1.01687	0.007564	-0.015006	-0.14	1.05	0.14	0.4298	-0.0006	-0.2082	
-1.015528	0.009516	-0.012932	-0.28	0.98	0.21	0.4265	0.008599999	-0.2095	
-1.017114	0.007198	-0.014274	0.07	0.84	0.14	0.4225	-0.0002	-0.2067	
-1.017724	0.007198	-0.015982	0.07	0.63	0.14	0.4263	0.0117	-0.2064	
-1.016382	0.007686	-0.01769	-0.07	0.84	0.07	0.4295	0.0055	-0.2065	
-1.016992	0.00915	-0.01525	0.35	0.98	0.07	0.4237	0.0042	-0.2066	
-1.016504	0.008174	-0.019032	0.98	1.33	0	0.4193	0.0043	-0.2096	
-1.018212	0.008417999	-0.018788	0.84	0.98	0.14	0.4219	0.0134	-0.2078	
-1.01382	0.01037	-0.018544	0.91	0.56	0.07	0.4253	0.0011	-0.2052	
-1.010404	0.013298	-0.01159	1.26	0.42	0	0.4235	0.0087	-0.2095	
-1.021872	0.007929999	-0.01647	2.1	1.4	0	0.4312	0.0024	-0.2036	
-1.01504	0.005246	-0.024034	0.49	1.47	0.07	0.4222	0.006	-0.2005	
-1.015406	0.011712	-0.014396	0.84	-0.35	0.14	0.4237	0.0042	-0.2066	
-1.01626	0.013298	-0.016836	2.17	-0.14	0	0.4282	0.0042	-0.2005	
-1.011746	0.011834	-0.016348	2.24	1.33	0.14	0.4237	0.0059	-0.2005	
-1.014308	0.008052	-0.01464	1.19	2.73	0.14	0.4312	0.0009999999	-0.2006	
-1.012722	0.007076	-0.016836	0.84	2.45	0	0.4207	0.0076	-0.1989	
-1.011624	0.006466	-0.0244	2.87	1.82	-0.14	0.4324	0.007	-0.202	
-1.014918	0.008174	-0.027084	3.99	1.89	-0.28	0.4328	-0.0005	-0.2007	
-1.014674	0.01159	-0.020374	3.64	2.87	-0.21	0.4267	0.0027	-0.2021	
-1.01138	0.01159	-0.018788	3.15	3.5	-0.21	0.4249	0.0117	-0.2079	
-1.01687	0.009028	-0.020374	2.87	2.87	-0.07	0.4225	-0.0015	-0.1992	
-1.019554	0.005612	-0.022814	2.52	2.24	0.07	0.4294	0.0101	-0.2049	
-1.014064	0.007076	-0.025254	1.4	1.96	0.21	0.4254	-0.0003	-0.2052	
-1.015772	0.007564	-0.02379	1.47	1.89	0.28	0.4297	0.0027	-0.1975	
-1.014064	0.008052	-0.02318	2.17	2.24	0.21	0.4221	0.0075	-0.202	
-1.010404	0.006222	-0.024644	2.38	2.87	0.35	0.4149	0.0061	-0.2081	
-1.011746	0.00671	-0.02074	1.89	3.01	0.28	0.4223	0.0043	-0.2051	
-1.01016	0.00732	-0.022692	1.05	2.73	0.28	0.422	0.0106	-0.1973	
-1.01504	0.00671	-0.027816	1.26	2.8	0.35	0.4249	0.0119	-0.2003	
-1.014186	0.008784	-0.028426	0.7	3.29	0.42	0.4223	0.0044	-0.2036	
-1.017236	0.011834	-0.030256	0.07	3.5	0.49	0.4298	-0.0002	-0.1946	
-1.021262	0.01403	-0.031598	0	2.8	0.7	0.4328	-0.0019	-0.1977	
-1.020408	0.013664	-0.033306	-0.63	2.1	0.77	0.4294	0.0088	-0.1974	
-1.017114	0.014518	-0.035258	-1.47	1.89	0.7	0.4223	0.003	-0.1991	
-1.019798	0.01281	-0.039284	-1.05	1.82	0.77	0.4313	-0.0004	-0.1991	
-1.021384	0.010614	-0.039406	-1.68	1.96	0.91	0.4298	-0.0003	-0.1976	
-1.018212	0.008174	-0.045872	-2.17	1.89	0.84	0.4267	0.0044	-0.1945	
-1.023214	0.009638	-0.053314	-1.89	1.82	0.7	0.4344	-0.0037	-0.2038	
-1.020652	0.013298	-0.050752	-1.89	1.26	0.77	0.4372	-0.0004	-0.19	
-1.020042	0.01708	-0.047458	-2.45	0.63	0.98	0.4316	-0.0078	-0.1918	
-1.021506	0.01769	-0.044286	-2.45	-0.21	1.19	0.4267	0.0027	-0.2006	
-1.02297	0.01098	-0.047824	-1.89	-0.49	1.33	0.4225	0.0001	-0.1931	
-1.022116	0.003416	-0.048678	-2.03	-0.14	1.12	0.4283	0.0014	-0.1915	
-1.02053	0.000366	-0.04331	-1.05	0.21	0.7	0.4341	0.0027	-0.19	
-1.017358	0.003538	-0.046116	1.47	0.28	0.35	0.4312	0.0011	-0.1991	
-1.012722	0.007564	-0.045384	3.43	0.28	0.07	0.4387	-0.0021	-0.1946	
-1.00772	0.001098	-0.039162	3.15	-0.42	0.28	0.44	0.0022	-0.1991	
-1.024434	-0.014884	-0.039406	5.39	-0.7	0.21	0.4342	0.0011	-0.1946	
-1.029436	-0.002928	-0.06161	6.93	0.49	0.07	0.43	-0.0033	-0.1977	
-1.020652	0.009638	-0.055144	5.32	0.42	0.14	0.427	-0.0029	-0.1901	
-1.010526	0.02196	-0.041602	3.57	-2.1	0.56	0.4315	-0.0052	-0.2069	
-1.014064	0.023302	-0.038064	3.22	-3.78	0.91	0.424	-0.0016	-0.1992	
-1.019066	0.02135	-0.039162	0.56	-3.43	1.4	0.421	0	-0.2007	
-1.016992	0.018666	-0.032818	-1.61	-2.03	1.61	0.4269	-0.0016	-0.1962	
-1.017114	0.016226	-0.02867	-1.4	-1.75	1.47	0.4253	0.0028	-0.1991	
-1.01992	0.021472	-0.03294	0.35	-2.17	1.12	0.4284	-0.0001	-0.1931	
-1.018578	0.030134	-0.034892	0.84	-2.31	0.91	0.433	-0.0065	-0.1993	
-1.01565	0.039162	-0.034282	0.07	-2.66	0.84	0.4312	0.0027	-0.1945	
-1.018578	0.03965	-0.034282	-1.68	-3.71	0.91	0.4282	0.0026	-0.2036	
-1.029924	0.036234	-0.041236	-4.06	-4.76	0.91	0.4258	-0.0092	-0.1994	
-1.037122	0.03599	-0.058072	-5.6	-5.25	0.91	0.427	-0.0034	-0.2068	
-1.042368	0.031476	-0.07015	-7.42	-5.39	0.77	0.4227	-0.0062	-0.2024	
-1.046272	0.025742	-0.070638	-7.63	-5.95	0.56	0.4228	-0.0077	-0.2024	
-1.05164	0.01952	-0.066734	-7.07	-6.86	0.14	0.4265	0.007	-0.2095	
-1.061766	0.02074	-0.078324	-7.77	-10.08	-0.63	0.4237	0.0057	-0.2096	
-1.0614	0.020252	-0.084424	-4.9	-13.65	-1.12	0.4285	-0.0036	-0.2098	
-1.060424	0.016104	-0.082106	-1.68	-17.36	-1.47	0.4225	-0.0017	-0.2068	
-1.05591	0.015494	-0.078202	0.91	-20.37	-1.89	0.4252	0.004	-0.2127	
-1.053348	0.020862	-0.0732	1.4	-23.66	-1.96	0.4178	0.0057	-0.2156	
-1.05896	0.02074	-0.078568	1.68	-25.27	-1.96	0.425	0.008599999	-0.2095	
-1.054812	0.014762	-0.067466	0.42	-28.42	-1.47	0.4183	-0.0066	-0.2251	
-1.052616	0.004514	-0.038552	-0.14	-32.83	-1.26	0.4192	0.007	-0.2232	
-1.05042	-0.003904	-0.028426	2.38	-36.82	-1.33	0.4044	0.0092	-0.2231	
-1.056764	0.00305	-0.014396	7.77	-40.39	-1.26	0.4019	0	-0.228	
-1.04615	0.005734	-0.003416	12.39	-42.91	-1.12	0.4061	0.0026	-0.237	
-1.018456	-0.009638	0.039162	17.64	-50.4	-2.38	0.409	0.0053	-0.246	
-1.002718	0.055632	0.06344	34.79	-63.35	-0.91	0.3975	-0.0006	-0.2598	
-0.99796	-0.009881999	0.061732	41.16	-61.46	0.63	0.3905	-0.0095	-0.2646	
-1.002474	0.02806	0.051972	18.27	-54.6	-2.17	0.3844	-0.0051	-0.2796	
-0.965752	0.029402	0.169214	17.01	-50.75	-1.19	0.3803	-0.0126	-0.2814	
-0.965874	-0.005978	0.192516	17.29	-60.06	-2.38	0.3654	-0.0075	-0.2843	
-0.925126	0.060634	0.138714	25.34	-56.84	-1.82	0.3642	-0.0122	-0.2935	
-0.840336	0.06771	0.176046	32.62	-47.39	0.35	0.3642	-0.0142	-0.3072	
-1.979938	-0.325618	0.409188	32.41	-51.31	0.14	0.3543	-0.0211	-0.3014	
-0.510326	0.092842	0.124196	-25.41	-89.53	8.33	0.3497	-0.0185	-0.321	
-0.980392	-0.047092	0.228506	27.79	-78.19	0.49	0.3424	-0.0179	-0.3149	
-1.96786	-0.212158	0.332694	11.55	-37.38	10.08	0.3321	-0.0178	-0.3271	
-0.274988	-0.519232	-0.073688	-3.29	-36.82	32.13	0.3322	-0.0208	-0.3241	
-0.948672	0.251564	0.59658	-41.79	-86.17	5.25	0.3295	-0.0257	-0.3394	
-0.872544	0.00915	0.220942	-15.19	-42.14	2.73	0.3251	-0.0253	-0.3333	
-0.827282	0.024888	0.291336	10.78	-76.16	5.6	0.3164	-0.0286	-0.3547	
-1.039318	-0.025742	0.40016	13.51	-76.02	4.48	0.3003	-0.0294	-0.3562	
-0.675758	0.09638	0.209474	-14.07	-48.09	5.53	0.2914	-0.0289	-0.3517	
-0.861076	0.0976	0.745176	-28.14	-66.99	13.02	0.3035	-0.0372	-0.3595	
-0.794586	0.00183	0.282918	-0.63	-62.72	4.34	0.2826	-0.0293	-0.379	
-0.883768	0.001098	0.497516	-5.53	-80.01	6.16	0.2811	-0.0276	-0.3774	
-0.89548	0.000732	0.526308	-15.33	-71.47	5.04	0.2725	-0.0318	-0.3775	
-0.828868	0.022448	0.510204	-2.94	-73.57	3.29	0.2543	-0.0208	-0.3939	
-0.824842	0.06734399	0.518744	-0.7	-71.96	2.73	0.2426	-0.0215	-0.3849	
-0.782508	0.062586	0.586698	4.48	-68.67	3.64	0.2209	-0.0288	-0.4063	
-0.801052	0.044896	0.631106	0.98	-62.23	4.55	0.2151	-0.0304	-0.42	
-0.746274	0.058438	0.64538	-0.7	-62.23	4.34	0.212	-0.0256	-0.4153	
-0.710528	0.072468	0.642574	-0.07	-61.53	4.69	0.1929	-0.0249	-0.4199	
-0.722606	0.052338	0.674904	-0.56	-54.11	5.04	0.1918	-0.0359	-0.4339	
-0.685396	0.04514	0.688446	0.21	-52.08	4.62	0.1712	-0.0334	-0.4338	
-0.700402	0.040626	0.689788	0.56	-49.07	4.13	0.1711	-0.0317	-0.4292	
-0.722362	0.036722	0.694424	3.08	-48.23	4.13	0.1684	-0.036	-0.4218	
-0.684908	0.055754	0.709674	2.87	-48.02	3.43	0.1636	-0.027	-0.4336	
-0.693692	0.04941	0.734684	2.38	-43.89	3.71	0.1518	-0.0263	-0.4291	
-0.674538	0.048312	0.708576	2.24	-40.39	3.71	0.1507	-0.0341	-0.4384	
-0.654408	0.052704	0.709308	1.61	-38.15	3.92	0.1417	-0.0295	-0.4519	
-0.61671	0.053192	0.748104	1.33	-39.34	2.52	0.1272	-0.0333	-0.446	
-0.64477	0.055266	0.76494	0.84	-32.34	3.64	0.1252	-0.0224	-0.4427	
-0.62586	0.05673	0.766282	0.63	-30.59	3.15	0.1284	-0.0287	-0.4444	
-0.619394	0.063684	0.774944	-0.07	-26.81	2.94	0.1152	-0.0281	-0.4429	
-0.615368	0.070028	0.799466	1.05	-22.33	2.66	0.1155	-0.0344	-0.4506	
-0.599996	0.06405	0.807152	0.91	-16.87	2.94	0.1083	-0.0387	-0.4538	
-0.59292	0.066978	0.815814	2.03	-11.76	2.38	0.1039	-0.0367	-0.4446	
-0.570594	0.0793	0.809958	2.45	-4.48	1.61	0.1109	-0.0296	-0.449	
-0.564006	0.08357	0.822036	1.12	-0.49	1.33	0.1038	-0.0354	-0.4522	
-0.559126	0.085644	0.824232	0.98	3.15	0.77	0.1036	-0.0324	-0.4536	
-0.55754	0.077836	0.83021	0.42	7.21	0.35	0.1048	-0.0249	-0.4534	
-0.55998	0.076128	0.82777	0.28	11.41	-0.35	0.1005	-0.0275	-0.4459	
-0.568642	0.072468	0.81862	0	15.75	-0.77	0.1036	-0.0323	-0.4506	
-0.568276	0.07905599	0.81618	-0.28	20.23	-1.89	0.1125	-0.0327	-0.4491	
-0.584014	0.070028	0.805444	-1.19	26.39	-1.82	0.1157	-0.0388	-0.4447	
-0.596702	0.062464	0.796782	-1.05	32.06	-2.45	0.1175	-0.0468	-0.4555	
-0.609024	0.06649	0.789462	-0.49	35.07	-2.94	0.1272	-0.0347	-0.443	
-0.625738	0.060512	0.775066	-0.7	40.88	-3.64	0.1343	-0.0289	-0.4413	
-0.641598	0.047458	0.755668	-0.7	45.29	-3.99	0.1392	-0.0399	-0.4477	
-0.64782	0.055022	0.738954	0.49	48.3	-4.41	0.1429	-0.0232	-0.4411	



-0.709552	0.048922	0.667828	2.03	63.84	-4.13	0.1786	-0.0352	-0.4323	

-0.749446	0.04636	0.607316	3.36	70.21	-3.29	0.1949	-0.0382	-0.4067	
-0.76738	0.045384	0.585356	4.48	71.96	-2.94	0.2152	-0.0315	-0.4034	
-0.783972	0.04819	0.559004	4.76	73.43	-2.94	0.2284	-0.0321	-0.4034	
-0.802394	0.042578	0.535336	4.27	75.81	-3.36	0.2317	-0.0397	-0.3991	
-0.818864	0.05002	0.51179	4.27	77.35	-3.71	0.2504	-0.0312	-0.3912	
-0.83326	0.047336	0.47641	2.45	78.89	-4.2	0.2624	-0.0379	-0.3944	
-0.851072	0.04331	0.445544	-0.07	79.73	-4.83	0.2668	-0.0377	-0.3808	
-0.864736	0.05124	0.417972	-1.05	80.71	-4.41	0.2722	-0.0257	-0.3759	
-0.881572	0.03721	0.388814	-1.75	80.29	-3.78	0.2843	-0.0336	-0.3685	
-0.908534	0.047458	0.363194	-2.24	79.87	-3.92	0.2932	-0.0354	-0.3655	
-0.90951	0.040382	0.350384	0.56	79.87	-3.92	0.3108	-0.0356	-0.3458	
-0.910242	0.041602	0.335012	-5.95	77.35	-3.22	0.3135	-0.0296	-0.3411	
-0.93147	0.05368	0.299632	2.03	64.82	-2.8	0.3254	-0.0348	-0.3457	
-0.921954	0.030866	0.276696	0.63	62.3	-1.4	0.3357	-0.0335	-0.3381	
-0.935984	0.034892	0.204472	1.12	57.75	-2.24	0.3448	-0.0395	-0.3201	
-0.944768	0.037698	0.188978	3.01	62.16	-2.1	0.3504	-0.0336	-0.3184	
-0.948916	0.042334	0.183244	3.71	65.66	-2.03	0.3472	-0.0288	-0.3152	
-0.95892	0.044164	0.164212	3.64	62.51	-2.03	0.3565	-0.038	-0.3034	
-0.967582	0.040382	0.118218	1.89	63.84	-1.47	0.3763	-0.0217	-0.2862	
-0.996984	0.04026	0.086742	0.63	64.54	-1.47	0.3755	-0.0351	-0.279	
-1.04188	0.10187	0.125416	3.29	56.91	1.26	0.3856	-0.0307	-0.2698	
-1.013576	0.015982	-0.086376	16.66	80.71	-2.1	0.3913	-0.028	-0.2712	
-1.109346	0.046726	0.013786	-4.06	65.38	1.54	0.4033	-0.0342	-0.2562	
-1.03212	0.030744	0.0427	-7.91	49	2.38	0.4065	-0.0388	-0.2533	
-1.016016	0.035624	-0.014152	-13.02	48.16	-0.63	0.4047	-0.031	-0.247	
-0.992958	0.046116	-0.013176	-13.86	39.2	0.84	0.408	-0.0384	-0.2366	
-1.03578	0.047336	-0.09882	-11.13	43.12	-1.26	0.4164	-0.0312	-0.2364	
-1.037854	0.092964	-0.128466	-9.17	41.37	0.28	0.4222	-0.0282	-0.2303	
-1.022482	0.073688	-0.091256	-5.46	50.4	2.31	0.4164	-0.0291	-0.2167	
-1.002474	0.046604	-0.03965	-4.69	53.13	0.63	0.4253	-0.031	-0.2167	
-1.003694	0.028914	-0.07015	1.61	45.22	-1.4	0.4223	-0.029	-0.2061	
-1.004304	0.03538	-0.116388	10.01	46.97	-3.99	0.4249	-0.0228	-0.1953	
-1.027606	0.049776	-0.137982	14.42	48.86	-5.67	0.4338	-0.0246	-0.1908	
-1.019188	0.040626	-0.13176	10.57	46.83	-4.55	0.4376	-0.0428	-0.1852	
-1.051884	0.036234	-0.122122	7.98	52.64	-3.92	0.4355	-0.0286	-0.1712	
-1.040416	0.17873	-0.14884	27.72	55.58	-1.68	0.4431	-0.0336	-0.1743	
-1.059692	0.080276	-0.039284	4.27	36.05	-2.52	0.4532	-0.0292	-0.1621	
-1.040294	0.070882	-0.144204	8.05	28.28	-2.45	0.4547	-0.0304	-0.1515	
-1.00955	0.050996	-0.143838	-3.57	25.34	-0.84	0.4487	-0.0272	-0.1545	
-1.00711	0.05917	-0.160674	-11.48	27.02	-0.28	0.4488	-0.0299	-0.1439	
-1.03334	0.07686	-0.151646	-1.4	24.85	-0.63	0.4532	-0.0285	-0.1409	
-1.03944	0.068198	-0.18788	-1.05	25.48	-0.42	0.4588	-0.0226	-0.1376	
-1.062376	0.078812	-0.236924	-3.85	26.53	0.21	0.4625	-0.0412	-0.1442	
-1.03517	0.05673	-0.223992	2.66	21.49	0.98	0.4574	-0.024	-0.1347	
-1.030656	0.051972	-0.200324	10.85	24.15	-2.59	0.4587	-0.0208	-0.1285	
-1.02724	0.038308	-0.244122	9.17	18.55	-2.1	0.456	-0.0254	-0.1317	
-1.005158	0.022082	-0.237168	4.48	26.18	-3.08	0.4623	-0.0347	-0.1304	
-1.002718	0.047946	-0.216306	-8.89	12.04	-2.66	0.4576	-0.028	-0.1166	
-1.007842	0.027694	-0.237046	-3.43	15.82	-3.92	0.4589	-0.0236	-0.118	
-1.00406	0.03172	-0.252784	-2.87	14.07	-4.13	0.4593	-0.0326	-0.1152	
-1.008574	0.032818	-0.28304	-1.33	14.28	-4.2	0.4559	-0.0219	-0.1164	
-1.012356	0.042212	-0.268034	-1.75	12.81	-3.71	0.4634	-0.0268	-0.1181	
-0.992836	0.032208	-0.269254	2.52	14.91	-4.83	0.4664	-0.0265	-0.1029	
-1.003572	0.016714	-0.282064	5.46	11.9	-4.69	0.4663	-0.025	-0.1044	
-1.001254	0.02684	-0.274256	3.71	9.45	-4.83	0.4646	-0.0204	-0.1058	
-1.007476	0.034404	-0.319884	3.36	12.95	-4.55	0.4602	-0.0204	-0.1118	
-1.009184	0.03172	-0.30195	7.84	7.98	-4.13	0.4674	-0.0175	-0.1057	
-1.019066	0.023058	-0.330132	8.54	10.5	-4.62	0.4708	-0.0268	-0.1044	
-0.99918	0.027694	-0.331474	4.97	6.79	-3.92	0.4664	-0.0264	-0.0984	
-0.992348	0.027328	-0.341966	3.01	8.12	-3.99	0.4706	-0.0233	-0.0922	
-0.974536	0.009638	-0.346968	4.34	9.94	-4.2	0.4747	-0.0161	-0.09649999	
-0.966972	0.006466	-0.334646	6.79	5.32	-3.85	0.469	-0.0199	-0.0815	
-0.95465	0.011346	-0.341112	4.13	7.49	-4.06	0.4644	-0.0139	-0.092	
-0.96441	0.010614	-0.317322	1.89	4.55	-3.5	0.4706	-0.0233	-0.0922	
-0.947696	0.021106	-0.321592	2.66	3.01	-3.71	0.4718	-0.016	-0.09959999	
-0.952942	0.020252	-0.349774	2.87	2.66	-3.36	0.4722	-0.0264	-0.0893	
-0.976	0.027816	-0.33184	2.52	2.66	-2.73	0.4659	-0.0156	-0.0935	
-0.977342	0.014152	-0.315248	-1.12	4.41	-1.96	0.4691	-0.0217	-0.0907	
-0.99613	0.006466	-0.303658	2.45	3.22	-2.38	0.4704	-0.0171	-0.0875	
-1.011746	0.011102	-0.294264	4.69	0.7	-2.87	0.4634	-0.0261	-0.0923	
-1.014064	0.00854	-0.310856	4.55	-0.49	-3.15	0.469	-0.0185	-0.086	
-1.01565	0.007808	-0.304268	2.31	-1.33	-2.8	0.4647	-0.0216	-0.0922	
-1.022604	0.0122	-0.291824	1.82	-2.1	-2.87	0.472	-0.0203	-0.0891	
-1.019432	0.004514	-0.291214	2.66	-3.57	-2.73	0.47	-0.007999999	-0.0887	
-1.006378	-0.00366	-0.299266	1.61	-3.78	-2.17	0.4627	-0.0109	-0.0949	
-0.993446	-0.002074	-0.301828	0	-3.99	-1.68	0.4656	-0.0095	-0.0933	
-0.987224	-0.00549	-0.303658	-1.33	-5.11	-2.1	0.476	-0.0129	-0.0904	
-0.981978	0.005612	-0.310612	-1.82	-6.79	-1.26	0.4629	-0.0137	-0.0859	
-0.985882	0.000244	-0.308904	0.98	-6.51	-1.33	0.4668	-0.0035	-0.0962	
-0.999058	0.0061	-0.306586	-2.1	-10.01	-0.77	0.4613	-0.0122	-0.0889	
-1.00894	-0.004026	-0.307928	-1.05	-10.85	-0.56	0.4657	-0.0112	-0.101	
-1.00467	-0.013054	-0.309758	-0.63	-10.64	-0.42	0.4702	-0.0144	-0.0995	
-1.015406	-0.007808	-0.306952	-0.49	-10.22	-0.49	0.4571	-0.0155	-0.1041	
-1.02785	0	-0.310612	1.54	-13.23	-0.28	0.466	-0.0171	-0.0951	
-1.021628	0.003904	-0.311344	-1.75	-19.18	1.61	0.4617	-0.022	-0.1104	
-1.024556	0.002806	-0.303414	-5.11	-20.23	2.73	0.4571	-0.0158	-0.1163	
-1.0309	-0.003294	-0.285236	-8.61	-22.4	3.57	0.4671	-0.0117	-0.1146	
-1.031388	0.001098	-0.283406	-8.68	-26.39	3.78	0.4596	-0.0066	-0.1069	
-1.021018	0.008417999	-0.273036	-7.28	-31.01	3.43	0.4642	-0.0118	-0.1237	
-1.040904	0.007808	-0.294508	-6.65	-29.47	3.71	0.454	-0.0145	-0.1268	
-1.031998	0.004148	-0.26962	-10.92	-33.04	4.41	0.4554	-0.0132	-0.1313	
-1.028948	0.01098	-0.241804	0.14	-35.35	2.24	0.4495	-0.0115	-0.1358	
-1.057618	0.001586	-0.230336	0.35	-50.12	2.8	0.4555	-0.0151	-0.1465	
-1.091412	0.043798	-0.159332	-11.76	-67.83	3.22	0.4499	-0.0214	-0.1619	
-1.001498	-0.02867	-0.28121	-7.42	-64.96	5.39	0.4467	-0.0168	-0.1663	
-1.06079	0.006832	-0.336964	-5.46	-17.57	3.78	0.4511	-0.0172	-0.1708	
-1.097024	0.028426	-0.162626	-10.5	-37.66	9.03	0.4413	-0.0258	-0.1696	
-1.054446	0.006222	-0.098332	3.01	-55.51	6.23	0.4393	-0.0138	-0.1798	
-1.050298	0.031354	-0.218136	12.46	-59.78	8.33	0.4409	-0.0186	-0.1845	
-1.047004	0.021106	-0.220088	8.82	-54.11	9.31	0.4264	-0.0227	-0.1922	
-1.057618	-0.025498	-0.132736	-12.67	-48.3	6.86	0.4323	-0.0234	-0.2059	
-1.033462	0.033062	-0.07686	-15.54	-52.99	7	0.4324	-0.0265	-0.2075	
-1.035658	0.016836	-0.097966	-13.37	-56.91	7.77	0.4207	-0.0275	-0.209	
-1.018822	0.00732	-0.087962	-15.68	-56.49	7.63	0.4189	-0.0186	-0.2194	
-1.011624	0.016104	-0.037942	-15.19	-54.81	6.72	0.41	-0.0187	-0.2361	
-1.001376	0.024278	-0.015372	-3.29	-64.82	6.93	0.4017	-0.0289	-0.2333	
-0.98454	0.013664	-0.00549	-2.1	-64.4	6.51	0.3999	-0.023	-0.2408	
-0.981856	0.015616	0.035014	0.84	-58.24	6.09	0.4029	-0.0248	-0.2469	
-0.961726	0.032818	0.078568	1.05	-55.86	5.67	0.3874	-0.0381	-0.2594	
-0.95953	0.056852	0.103456	9.66	-51.17	4.06	0.3869	-0.0277	-0.2667	
-0.968558	0.054168	0.12383	12.11	-51.38	5.04	0.3737	-0.0292	-0.2864	
-0.959652	0.058438	0.164212	5.04	-55.09	6.72	0.3785	-0.0369	-0.2836	
-0.959774	0.050142	0.17385	6.09	-61.18	7.63	0.3771	-0.0388	-0.2988	
-0.948306	0.052704	0.20252	3.36	-61.53	7	0.359	-0.0289	-0.3001	
-0.934642	0.060146	0.24156	1.12	-64.33	7.77	0.3458	-0.0285	-0.3077	
-0.92964	0.057584	0.238632	2.38	-66.36	7.21	0.3416	-0.0345	-0.3109	
-0.91256	0.047214	0.246806	0	-60.83	7.28	0.3475	-0.0353	-0.3275	
-0.878034	0.069052	0.272792	0.77	-50.47	7	0.3372	-0.0333	-0.3275	
-0.859978	0.057218	0.330254	2.45	-43.75	5.88	0.3242	-0.0407	-0.3429	
-0.835456	0.065514	0.476532	5.95	-47.6	4.76	0.3244	-0.0437	-0.3384	
-0.857172	0.069296	0.49959	-12.46	-66.01	6.23	0.3227	-0.0392	-0.3444	
-0.85583	0.05734	0.389302	-1.96	-74.55	7.35	0.3154	-0.0393	-0.3595	
-0.860222	0.06039	0.45506	-2.66	-74.97	6.72	0.2997	-0.0507	-0.3584	
-0.841434	0.066856	0.447862	0.84	-78.75	6.37	0.2817	-0.0411	-0.3702	
-0.838506	0.072468	0.484096	2.38	-79.52	5.88	0.2865	-0.0504	-0.369	
-0.826062	0.076494	0.511302	4.48	-74.62	4.97	0.2755	-0.0333	-0.373	
-0.808616	0.099308	0.543388	4.34	-67.48	4.27	0.2641	-0.0422	-0.3839	
-0.789584	0.09699	0.56791	5.74	-63	4.06	0.2433	-0.037	-0.3944	
-0.769088	0.08967	0.572424	9.03	-58.38	4.55	0.2479	-0.0418	-0.393	
-0.755912	0.096136	0.582794	10.08	-53.76	4.2	0.2436	-0.0436	-0.4097	
-0.756522	0.10004	0.595238	10.57	-51.31	4.27	0.2293	-0.0536	-0.4101	
-0.6954	0.153476	0.599996	9.17	-54.18	3.85	0.2116	-0.0499	-0.4161	
-0.741028	0.119682	0.623786	8.68	-47.18	5.11	0.2087	-0.0511	-0.4085	
-0.747494	0.105774	0.632448	10.64	-47.67	4.06	0.1912	-0.0537	-0.4223	
-0.74359	0.11712	0.635132	8.33	-42.7	4.62	0.1868	-0.055	-0.4223	
-0.763842	0.103578	0.64233	9.59	-39.34	4.97	0.1841	-0.0594	-0.4194	
-0.752496	0.113826	0.64904	10.36	-39.06	3.15	0.1737	-0.056	-0.4239	
-0.752374	0.112484	0.648552	7.63	-36.33	2.59	0.1781	-0.0561	-0.4208	
-0.745908	0.11041	0.6649	6.09	-35	1.96	0.1783	-0.061	-0.4301	
-0.614514	0.125416	0.69967	-5.74	-49.84	3.08	0.1664	-0.0576	-0.4376	
-0.716994	0.112118	0.676856	-0.91	-32.27	1.89	0.1636	-0.0604	-0.4331	
-0.71187	0.113948	0.679052	-1.47	-31.5	1.19	0.1594	-0.0648	-0.4348	
-0.709186	0.120292	0.704184	-0.07	-28.84	1.26	0.1518	-0.0585	-0.4391	
-0.684786	0.124806	0.71553	-2.24	-29.33	1.05	0.1505	-0.063	-0.4377	
-0.674172	0.120048	0.732488	-2.17	-22.33	0.63	0.1443	-0.0567	-0.4421	
-0.69723	0.102968	0.739808	-3.29	-19.46	0.07	0.1358	-0.0623	-0.4362	
-0.635498	0.104188	0.749324	-3.64	-17.92	-0.21	0.1342	-0.0594	-0.4468	
-0.642818	0.10492	0.764818	-3.29	-12.25	-0.7	0.1388	-0.0641	-0.4423	
-0.634522	0.111874	0.775676	-2.45	-9.38	-0.91	0.1326	-0.0578	-0.4437	
-0.627202	0.110898	0.781654	-2.73	-5.46	-1.4	0.1257	-0.0667	-0.447	
-0.615978	0.102114	0.782752	-2.94	-1.96	-1.68	0.1298	-0.0592	-0.4437	
-0.609634	0.108336	0.78446	-2.17	1.61	-1.96	0.128	-0.0529	-0.4405	
-0.604388	0.105896	0.78751	-1.82	5.81	-2.38	0.1238	-0.0557	-0.4376	
-0.606218	0.10431	0.783972	-1.4	10.15	-2.66	0.1267	-0.0559	-0.4406	
-0.611098	0.104554	0.786534	-1.82	14.84	-3.01	0.1341	-0.0561	-0.4376	
-0.62037	0.102724	0.782386	-2.24	19.11	-3.43	0.1399	-0.0563	-0.4345	
-0.624762	0.104188	0.774822	-1.68	23.24	-3.85	0.1441	-0.0505	-0.4359	
-0.630008	0.094428	0.769332	-1.4	27.37	-4.55	0.1514	-0.0508	-0.4374	
-0.636474	0.105408	0.759084	-0.98	32.55	-5.04	0.1502	-0.0555	-0.4421	
-0.650138	0.100406	0.743468	-0.84	37.17	-5.67	0.1546	-0.0558	-0.4451	
-0.661484	0.100284	0.731024	-0.84	41.16	-6.09	0.1544	-0.0506	-0.4253	
-0.667706	0.096868	0.72041	-0.63	44.31	-6.3	0.1723	-0.0578	-0.4345	
-0.681492	0.096014	0.695156	-0.91	50.68	-6.58	0.1735	-0.053	-0.4253	
-0.691496	0.089914	0.675026	-0.98	55.86	-6.79	0.1733	-0.0484	-0.4252	
-0.704428	0.08662	0.66063	-0.98	59.57	-7.35	0.1792	-0.0469	-0.4145	
-0.715774	0.08784	0.640378	-0.91	63.91	-7.49	0.1983	-0.0479	-0.4206	
-0.72956	0.083814	0.624884	-0.84	67.97	-6.93	0.207	-0.0453	-0.4205	
-0.747128	0.080764	0.590602	-1.96	71.12	-7.7	0.2084	-0.0433	-0.4038	
-0.76494	0.071736	0.561932	-1.75	74.2	-7.28	0.226	-0.0442	-0.4068	
-0.782386	0.067832	0.533506	-2.94	75.95	-7.7	0.2339	-0.0567	-0.4056	
-0.802516	0.072102	0.506788	-2.45	78.26	-7.77	0.2496	-0.0459	-0.375	
-0.825574	0.058194	0.471774	-3.5	79.03	-8.05	0.2437	-0.0459	-0.3841	
-0.851072	0.060756	0.440176	-1.68	80.29	-8.4	0.2644	-0.0498	-0.3811	
-0.865834	0.046604	0.407358	-3.92	80.57	-7.84	0.2844	-0.0366	-0.3671	
-0.885354	0.050142	0.378688	-4.48	80.15	-6.86	0.3024	-0.0447	-0.3552	
-0.895236	0.052216	0.348554	-7.56	79.24	-6.86	0.3081	-0.0418	-0.352	
-0.90768	0.054046	0.32635	-8.82	80.78	-6.58	0.3168	-0.039	-0.3459	
-0.908656	0.055998	0.309026	-8.75	78.47	-5.67	0.3239	-0.0311	-0.3275	
-0.915	0.058194	0.296216	-3.08	71.96	-5.25	0.3285	-0.0375	-0.3291	
-0.920734	0.03355	0.247782	-2.66	68.6	-5.88	0.337	-0.0298	-0.3138	
-0.939766	0.041724	0.1891	-1.54	54.32	-5.18	0.3401	-0.033	-0.3139	
-0.944036	0.035746	0.150914	4.13	61.53	-5.81	0.3525	-0.0472	-0.3112	
-0.960262	0.027084	0.116754	-0.42	65.94	-5.11	0.3561	-0.0306	-0.3092	
-0.971608	0.0244	0.082228	-1.54	70.91	-5.32	0.361	-0.0394	-0.2913	
-0.976854	0.02501	0.094428	0.91	76.37	-5.53	0.3736	-0.026	-0.2833	
-0.987102	0.008905999	0.066856	0.56	73.01	-5.25	0.3863	-0.0478	-0.2794	
-0.99796	0.017324	0.032086	3.92	72.24	-6.16	0.3842	-0.0337	-0.2699	
-1.016626	0.028792	0.013054	4.48	68.88	-6.79	0.3961	-0.0369	-0.2548	
-1.028216	0.025742	-0.013054	-0.35	68.39	-5.81	0.3957	-0.0275	-0.2485	
-1.034926	0.02684	-0.030988	0.49	67.62	-4.27	0.4104	-0.0281	-0.2439	
-1.048102	0.030866	-0.027572	0.7	72.17	-3.57	0.409	-0.0277	-0.2318	
-1.030168	0.004636	0.00854	7.98	66.71	-2.59	0.4062	-0.0316	-0.2152	
-1.067012	0.011834	-0.034282	17.57	52.15	-4.55	0.4238	-0.0308	-0.2122	
-1.01565	0.000366	-0.090646	-1.96	44.1	-1.61	0.4211	-0.0366	-0.2063	
-1.008818	0.037576	-0.101992	-1.12	46.97	-1.96	0.4369	-0.0278	-0.1924	
-1.032852	0.040016	-0.127002	2.87	46.2	-2.45	0.4322	-0.0212	-0.1816	
-1.046638	0.030134	-0.148352	1.96	44.45	-2.38	0.4471	-0.0264	-0.1817	
-1.023458	0.051728	-0.16104	1.4	44.03	-3.01	0.4413	-0.0275	-0.1757	
-1.028826	0.065636	-0.15982	0.28	45.15	-4.55	0.4486	-0.026	-0.1665	
-1.02785	0.054412	-0.184342	2.66	39.27	-3.64	0.4475	-0.0334	-0.1592	
-1.025532	0.030012	-0.227042	8.54	38.08	-4.48	0.4434	-0.0408	-0.1594	
-1.052494	0.019032	-0.266326	11.06	41.3	-4.97	0.4534	-0.035	-0.1532	
-1.05713	0.02623	-0.284382	7.28	39.55	-4.9	0.4577	-0.0321	-0.1516	
-1.048834	0.008662	-0.198494	9.59	49.35	-5.11	0.4631	-0.0198	-0.1391	
-1.017968	0.035502	-0.189344	1.05	27.23	-5.46	0.4498	-0.0174	-0.1284	
-1.039806	0.0366	-0.263398	1.82	22.05	-3.99	0.4546	-0.0264	-0.1166	
-1.029436	0.010248	-0.289994	-0.49	23.8	-3.15	0.4573	-0.0205	-0.1209	
-0.997106	0.026474	-0.274622	-1.54	19.88	-3.5	0.4589	-0.0237	-0.1225	
-1.015406	0.011102	-0.24278	-2.52	19.74	-4.06	0.4645	-0.0191	-0.1118	
-1.016504	0.020374	-0.262178	-3.99	19.6	-4.34	0.4645	-0.0193	-0.1194	
-1.004548	0.023424	-0.274866	-2.8	18.83	-4.2	0.456	-0.025	-0.118	
-0.998814	0.031354	-0.27999	-1.89	16.59	-3.71	0.4781	-0.0272	-0.1075	
-0.990152	0.022692	-0.318664	-2.31	19.81	-3.57	0.4661	-0.0223	-0.1149	
-0.973682	0.007808	-0.296582	-2.1	18.69	-2.94	0.4613	-0.0126	-0.104	
-0.989054	0.006344	-0.295118	0	18.76	-2.8	0.4656	-0.009699999	-0.0994	
-0.991494	0.007076	-0.296338	0.07	19.32	-2.73	0.4736	-0.0252	-0.0998	
-0.975146	0.006588	-0.295972	0.84	15.19	-3.01	0.4626	-0.0079	-0.0948	
-0.991982	0.01037	-0.311832	3.78	12.95	-3.36	0.472	-0.0203	-0.0906	
-1.014918	0.005002	-0.324154	4.97	14.7	-3.01	0.4748	-0.019	-0.0936	
-1.01138	0.000732	-0.307074	2.66	13.3	-2.31	0.469	-0.0183	-0.0784	
-1.010526	-0.007929999	-0.32025	2.59	17.22	-3.15	0.4731	-0.0129	-0.0949	
-1.007842	-0.002684	-0.30134	5.32	10.01	-3.64	0.4688	-0.0138	-0.0813	
-1.0004	-0.002684	-0.333182	2.94	11.13	-3.99	0.4692	-0.023	-0.0831	
-0.99125	-0.010248	-0.335256	2.17	11.62	-3.92	0.47	-0.0079	-0.08419999	
-0.98027	-0.009881999	-0.333914	1.54	8.68	-4.06	0.4658	-0.0119	-0.0737	
-0.984296	-0.003782	-0.34404	2.45	8.68	-3.99	0.4787	-0.0053	-0.0856	
-0.976366	-0.001952	-0.342576	3.64	7.91	-3.78	0.4699	-0.0063	-0.08109999	
-0.972584	-0.009638	-0.370392	2.8	8.26	-3.85	0.4728	-0.005	-0.0856	
-0.963556	-0.014884	-0.343064	3.08	6.79	-3.99	0.467	-0.006	-0.0766	
-0.968192	-0.019032	-0.341112	3.99	6.72	-4.27	0.4617	-0.0195	-0.0785	
-0.965508	-0.018544	-0.369172	2.03	5.53	-3.99	0.4642	-0.01	-0.0631	
-0.96685	-0.008662	-0.365878	-0.42	6.02	-3.15	0.4711	-0.0002	-0.0794	
-0.958798	-0.00732	-0.343064	-1.12	4.9	-2.73	0.4774	-0.0094	-0.0736	
-0.956602	-0.013542	-0.341722	0.84	2.66	-2.8	0.4732	-0.0138	-0.0738	
-0.964288	-0.01525	-0.34587	1.05	1.47	-2.66	0.4669	-0.0044	-0.075	
-0.974048	-0.02013	-0.342088	1.4	-1.4	-2.17	0.473	-0.0108	-0.0752	
-0.976122	-0.0244	-0.365878	-0.35	0.91	-1.47	0.4757	-0.0048	-0.0735	
-0.97905	-0.030744	-0.344284	0.56	-0.07	-0.91	0.4732	-0.0139	-0.0753	
-0.978074	-0.029646	-0.347822	0.84	-1.89	-0.98	0.4745	-0.0093	-0.0751	
-0.982954	-0.025986	-0.360876	0.98	-3.71	-0.42	0.4788	-0.0079	-0.0721	
-0.986736	-0.038552	-0.353434	0.35	-3.29	0.28	0.4726	-0.0001	-0.0734	
-0.978684	-0.03599	-0.346602	0	-3.57	0.42	0.4598	-0.0085	-0.0691	
-0.976122	-0.026352	-0.347334	1.12	-5.18	0.56	0.4785	-0.0019	-0.0749	
-0.97905	-0.031232	-0.34404	0.35	-6.37	0.49	0.473	-0.0092	-0.0736	
-0.978684	-0.027816	-0.343186	0.21	-6.72	0.49	0.4685	-0.0078	-0.08419999	
-0.98698	-0.011346	-0.343796	1.05	-8.26	0.07	0.4685	-0.0076	-0.0781	
-0.997228	-0.011468	-0.353312	2.87	-9.52	0.49	0.4551	-0.0024	-0.075	
-0.986248	-0.006954	-0.34953	-0.35	-11.83	1.54	0.4643	-0.012	-0.0783	
-0.974292	-0.007686	-0.344284	-2.87	-11.34	2.1	0.4756	-0.0022	-0.0901	
-0.976976	-0.013908	-0.336232	-2.52	-11.2	2.03	0.4748	-0.0171	-0.0814	
-0.987346	-0.011346	-0.329034	-2.1	-11.27	1.96	0.4698	-0.0047	-0.078	
-0.99979	-0.011468	-0.32147	-2.73	-12.95	2.17	0.4688	-0.0154	-0.0829	
-0.997472	-0.013786	-0.334158	-3.08	-13.93	2.59	0.4642	-0.0093	-0.0888	
-1.007842	-0.013542	-0.335622	-3.64	-16.24	3.08	0.4704	-0.017	-0.0845	
-1.013454	-0.02379	-0.326838	-5.11	-16.59	3.29	0.4716	-0.0111	-0.0888	
-1.006622	-0.020984	-0.326106	-4.97	-17.43	3.01	0.4671	-0.0096	-0.0949	
-1.004792	-0.015372	-0.307196	-3.29	-21.35	3.01	0.4702	-0.0127	-0.09339999	
-1.0126	-0.015494	-0.319274	-5.46	-23.87	3.64	0.4662	-0.0234	-0.1013	
-1.014918	-0.013054	-0.324642	-9.87	-25.83	4.34	0.4673	-0.0144	-0.1041	
-1.006256	-0.008905999	-0.308172	-11.69	-28.91	4.48	0.4566	-0.005	-0.1114	
-1.011746	0.00122	-0.289262	-13.16	-33.04	5.11	0.4568	-0.009699999	-0.1146	
-1.018822	0.002074	-0.27755	-14.56	-34.72	5.6	0.4584	-0.0126	-0.1071	
-1.022238	-0.000122	-0.277306	-8.68	-38.15	5.25	0.4553	-0.0099	-0.1237	
-1.048712	0.004026	-0.247416	-8.47	-48.79	4.97	0.4448	-0.005	-0.1296	
-1.044564	-0.004636	-0.167994	-11.27	-65.1	3.57	0.4481	-0.0129	-0.1344	
-0.999668	-0.007929999	-0.235338	-2.31	-80.36	6.37	0.4538	-0.0106	-0.1494	
-1.04981	-0.012322	-0.399672	-10.01	-21.98	5.04	0.4451	-0.0135	-0.1586	
-1.094828	0.029158	-0.162626	-12.67	-32.13	8.47	0.4467	-0.0152	-0.1632	
-1.050908	0.01769	-0.091988	4.9	-51.38	4.2	0.4422	-0.0136	-0.1662	
-1.058472	0.014884	-0.21777	5.46	-52.85	3.78	0.4425	-0.0195	-0.1618	
-1.066524	0.025498	-0.177754	0	-47.67	4.48	0.4382	-0.0246	-0.1847	
-1.059082	0.037454	-0.149328	3.15	-54.6	5.53	0.4306	-0.0183	-0.1906	
-1.06262	0.050386	-0.220576	8.05	-58.87	9.94	0.4322	-0.0202	-0.2012	
-1.067012	-0.070394	-0.152622	-15.82	-56.84	8.82	0.4294	-0.0248	-0.2074	
-1.054446	0.042822	-0.060512	-22.47	-57.26	7.35	0.4231	-0.0141	-0.2132	
-1.040294	0.032208	-0.077592	-12.53	-65.24	7.21	0.4189	-0.0203	-0.224	
-1.0187	0.028426	-0.060878	-12.67	-62.16	6.02	0.4067	-0.0092	-0.2282	
-1.021018	0.007076	-0.031842	-12.18	-62.51	5.39	0.4116	-0.0219	-0.2392	
-0.999912	0.013664	-0.024522	-12.46	-62.23	3.99	0.3982	-0.0169	-0.2436	
-0.986858	0.021228	0.000244	-6.86	-60.97	2.73	0.394	-0.0232	-0.2574	
-0.971974	0.012932	0.037332	1.68	-58.8	2.1	0.3897	-0.0249	-0.2696	
-0.949892	0.013298	0.068076	-0.84	-57.96	1.96	0.3867	-0.0228	-0.2559	
-0.942694	0.003904	0.100772	4.41	-60.76	1.47	0.3763	-0.0211	-0.2665	
-0.937082	0.025376	0.114924	5.88	-61.67	2.45	0.3762	-0.0185	-0.2816	
-0.928298	0.012322	0.160186	9.94	-64.33	2.24	0.369	-0.0214	-0.2862	
-0.916708	-0.001586	0.186172	12.95	-63.7	3.29	0.3497	-0.0162	-0.2967	
-0.914146	0.020862	0.26657	3.71	-60.83	2.31	0.3473	-0.0299	-0.3016	
-0.91439	0.025254	0.288164	6.09	-65.66	1.82	0.3543	-0.0213	-0.3074	
-0.895602	0.024766	0.274866	7.28	-65.1	2.24	0.3338	-0.0237	-0.3181	
-0.887062	0.029524	0.292556	1.82	-54.04	1.89	0.3281	-0.027	-0.3364	
-0.875838	0.040138	0.337696	7.56	-45.57	3.5	0.3178	-0.028	-0.3319	
-0.836554	0.0305	0.530456	9.52	-57.75	5.04	0.3118	-0.0251	-0.347	
-0.844972	0.049654	0.484828	-3.99	-74.62	2.8	0.3135	-0.0299	-0.3517	
-0.847534	0.038064	0.42273	4.41	-79.73	4.69	0.2987	-0.028	-0.3622	
-0.83387	0.059902	0.452376	-0.84	-76.72	5.53	0.2914	-0.0292	-0.3638	
-0.8296	0.055144	0.473238	0.14	-79.66	6.44	0.2841	-0.0306	-0.3699	
-0.822646	0.041968	0.484218	2.38	-79.24	6.51	0.2682	-0.0364	-0.3853	
-0.815692	0.049776	0.528626	2.31	-77.77	6.51	0.2579	-0.0345	-0.3883	
-0.790804	0.053558	0.539484	3.01	-75.18	6.3	0.2521	-0.0361	-0.3989	
-0.781044	0.061976	0.570472	6.37	-71.89	6.3	0.2346	-0.0386	-0.4096	
-0.765794	0.069174	0.585478	5.88	-68.81	6.44	0.2314	-0.032	-0.3973	
-0.756156	0.064294	0.599142	4.97	-64.89	6.79	0.2181	-0.0319	-0.414	
-0.754326	0.056364	0.617076	5.46	-62.86	6.58	0.214	-0.0378	-0.4127	
-0.737978	0.064782	0.616222	7.14	-61.53	6.3	0.2009	-0.0404	-0.4188	
-0.727242	0.078202	0.65148	8.96	-63.7	5.88	0.1923	-0.0444	-0.4144	
-0.722972	0.075518	0.67527	8.68	-58.45	6.51	0.1834	-0.0444	-0.4265	
-0.70028	0.086986	0.702476	7.49	-53.97	6.23	0.166	-0.0481	-0.4237	
-0.684664	0.092964	0.705404	7.21	-50.82	5.67	0.1647	-0.0526	-0.4253	
-0.68198	0.08479	0.71431	8.4	-49.28	5.11	0.1467	-0.0429	-0.4326	
-0.66429	0.096014	0.718092	7.63	-44.66	3.92	0.1472	-0.0553	-0.4406	
-0.660752	0.106872	0.725412	10.71	-40.46	3.78	0.1367	-0.0502	-0.4389	
-0.650504	0.115168	0.732244	9.59	-36.47	3.78	0.1293	-0.0483	-0.4358	
-0.654164	0.103944	0.74542	5.53	-33.25	3.22	0.1414	-0.0566	-0.4421	
-0.64904	0.102358	0.757132	4.13	-31.08	2.73	0.1279	-0.0502	-0.451	
-0.644526	0.092232	0.769698	2.73	-29.12	3.08	0.1192	-0.0511	-0.4435	
-0.626836	0.092964	0.769698	1.26	-24.64	3.22	0.121	-0.0601	-0.4377	
-0.620614	0.1037	0.78446	1.12	-21.35	2.66	0.1151	-0.06	-0.4438	
-0.61183	0.11224	0.8052	-0.21	-18.41	2.24	0.1016	-0.0537	-0.4557	
-0.596214	0.106628	0.81435	-1.47	-15.54	1.89	0.1044	-0.0492	-0.4556	
-0.580354	0.100894	0.82228	-2.73	-11.48	1.47	0.1087	-0.046	-0.4434	
-0.566812	0.10126	0.83265	-3.08	-7.63	0.84	0.0988	-0.0549	-0.4512	
-0.551196	0.104432	0.833504	-3.08	-3.85	0.14	0.1018	-0.0565	-0.4483	
-0.545462	0.106384	0.837164	-3.36	1.12	-0.49	0.0958	-0.055	-0.4573	
-0.542046	0.101626	0.842898	-3.64	5.74	-1.47	0.1032	-0.0567	-0.4528	
-0.54656	0.104066	0.83692	-4.34	13.58	-2.38	0.1087	-0.0479	-0.454	
-0.54839	0.099064	0.8235	-3.71	18.69	-2.94	0.1019	-0.0596	-0.4499	
-0.562542	0.097112	0.816058	-3.15	24.01	-3.29	0.1044	-0.0488	-0.442	
-0.577914	0.081252	0.804224	-3.5	28.7	-3.71	0.1083	-0.0385	-0.4477	
-0.595848	0.07625	0.795074	-2.45	32.9	-4.06	0.1207	-0.0544	-0.4512	
-0.610732	0.081252	0.781532	-0.63	36.89	-4.34	0.1266	-0.0546	-0.4497	
-0.625616	0.082228	0.76555	0.63	40.81	-4.55	0.1322	-0.0471	-0.4449	
-0.643794	0.088694	0.751154	1.82	44.8	-4.62	0.1323	-0.0483	-0.4328	
-0.659776	0.092232	0.732366	1.96	48.02	-4.9	0.1455	-0.0491	-0.4404	
-0.67283	0.091988	0.714188	1.82	50.54	-5.04	0.1438	-0.0441	-0.4266	
-0.688446	0.091012	0.698206	1.19	52.92	-5.04	0.1572	-0.0495	-0.4358	
-0.702842	0.087474	0.677344	0.7	54.88	-5.18	0.1705	-0.0499	-0.4282	
-0.715164	0.09638	0.659288	0.49	57.19	-5.04	0.1688	-0.0455	-0.4342	
-0.73017	0.094062	0.637328	0.14	60.48	-5.81	0.1821	-0.0471	-0.4191	
-0.740662	0.08784	0.616588	-0.56	63.7	-5.25	0.1939	-0.0492	-0.4206	
-0.75457	0.084668	0.596458	-0.42	67.06	-4.83	0.2043	-0.0527	-0.4192	
-0.771406	0.081862	0.57279	-1.47	69.65	-5.04	0.2173	-0.0469	-0.4099	
-0.784338	0.076982	0.546316	-1.96	71.26	-4.97	0.2205	-0.053	-0.4055	
-0.812398	0.06588	0.514962	-2.59	72.8	-5.11	0.2524	-0.0436	-0.3976	
-0.829966	0.063318	0.491782	-2.03	73.36	-4.9	0.2571	-0.0496	-0.3872	
-0.851072	0.060756	0.471286	-3.36	73.64	-4.97	0.2614	-0.0483	-0.3871	
-0.865834	0.061244	0.44347	-3.43	74.27	-5.32	0.2704	-0.053	-0.3782	
-0.877302	0.04941	0.415288	-6.16	74.41	-4.83	0.2819	-0.046	-0.3795	
-0.888526	0.047458	0.387594	-8.05	74.13	-4.13	0.2863	-0.0458	-0.3658	
-0.899994	0.045994	0.36478	-6.79	73.78	-3.99	0.2934	-0.0398	-0.3596	
-0.911462	0.050386	0.348798	-7.21	72.31	-3.99	0.3065	-0.0372	-0.3549	
-0.916586	0.04697	0.350262	-3.15	69.3	-4.69	0.314	-0.0418	-0.3429	
-0.915732	0.047824	0.310612	-3.01	64.12	-5.25	0.3317	-0.0424	-0.3369	
-0.930372	0.043798	0.264984	-1.12	59.99	-5.6	0.3301	-0.0391	-0.3292	
-0.933788	0.05124	0.234606	-0.98	57.4	-5.6	0.3506	-0.04	-0.3292	
-0.937326	0.051606	0.205448	-0.49	58.94	-5.46	0.3532	-0.0308	-0.3213	
-0.94794	0.046726	0.197762	-2.87	59.57	-5.88	0.3575	-0.0295	-0.3213	
-0.944402	0.040992	0.155306	-0.21	64.89	-6.51	0.3622	-0.0356	-0.3154	
-0.946598	0.028304	0.159332	2.66	67.2	-6.51	0.362	-0.0303	-0.291	
-0.938546	0.021594	0.138714	3.92	65.1	-5.67	0.3736	-0.0261	-0.2863	
-0.959652	0.016836	0.102724	3.43	70.42	-5.95	0.3799	-0.0369	-0.2821	
-0.97722	0.007808	0.087474	5.25	68.67	-6.65	0.3857	-0.0356	-0.279	
-1.000278	0.013908	0.067588	0.84	71.54	-6.72	0.3838	-0.0226	-0.2529	
-0.997472	0.025864	0.055754	-4.76	65.45	-4.9	0.4102	-0.0236	-0.2453	
-1.003206	0.031598	0.04209	-3.64	63.91	-4.2	0.4015	-0.0246	-0.2438	
-1.02419	0.044408	0.019154	0.42	63.63	-4.69	0.419	-0.022	-0.2301	
-0.993934	0.054046	-0.009272	4.06	61.11	-3.5	0.4176	-0.0231	-0.218	
-1.01809	0.022448	-0.03416	4.76	67.06	-3.57	0.416	-0.0214	-0.2149	
-1.00162	0.02745	-0.022692	1.82	57.26	-3.92	0.4294	-0.0247	-0.2029	
-1.02114	0.00549	-0.052948	3.99	52.08	-4.9	0.4306	-0.0169	-0.1951	
-1.045662	0.007198	-0.05856	1.89	44.73	-5.32	0.437	-0.0293	-0.1909	
-1.057374	0.026962	-0.108824	2.59	43.12	-6.93	0.4294	-0.0243	-0.1892	
-1.066768	0.070516	-0.163236	2.8	37.17	-6.79	0.4401	-0.0321	-0.1789	
-1.12057	0.053436	-0.165432	-2.59	39.2	-4.48	0.4457	-0.0275	-0.1696	
-1.050176	0.032208	-0.16043	1.96	42.77	-3.57	0.4456	-0.0246	-0.1741	
-1.065182	0.03294	-0.236802	5.6	34.79	-3.22	0.4456	-0.0243	-0.165	
-1.03456	0.022326	-0.233142	8.26	35.98	-2.87	0.451	-0.0136	-0.1525	
-1.01077	0.023058	-0.228994	5.81	37.38	-2.73	0.4444	-0.03	-0.153	
-1.019432	0.033672	-0.247538	8.33	30.8	-2.59	0.4443	-0.0268	-0.1484	
-1.007232	0.010736	-0.290848	3.85	33.67	-2.52	0.4601	-0.0199	-0.1451	
-1.000278	0.005734	-0.268644	2.31	40.6	-3.15	0.4531	-0.027	-0.1393	
-0.979416	0.012078	-0.261324	7.28	30.31	-5.18	0.4615	-0.0163	-0.1253	
-0.989664	-0.003172	-0.274134	10.08	25.62	-6.3	0.4527	-0.0176	-0.1299	
-0.993568	-0.015738	-0.291458	3.85	25.83	-5.6	0.4557	-0.0189	-0.1209	
-1.006988	0.011956	-0.283284	-0.7	21.28	-4.27	0.4656	-0.0102	-0.1191	
-1.016016	0.018666	-0.257176	1.61	20.09	-4.27	0.4691	-0.0242	-0.124	
-1.01565	0.016714	-0.238632	3.92	18.41	-3.99	0.4615	-0.0162	-0.1223	
-1.02297	0.018788	-0.251686	3.5	16.66	-3.57	0.4709	-0.03	-0.1106	
-1.04371	0.014152	-0.264496	2.31	16.52	-3.08	0.4613	-0.0113	-0.1116	
-1.03334	0.006466	-0.257176	1.96	16.66	-2.38	0.467	-0.0069	-0.1084	
-1.02724	0.016958	-0.259494	0.42	18.83	-2.52	0.4648	-0.0232	-0.0968	
-1.019188	0.009881999	-0.260348	2.17	14.84	-2.03	0.4583	-0.0094	-0.1024	
-1.002596	0.007929999	-0.290482	1.26	15.12	-2.03	0.4613	-0.0125	-0.0995	
-0.998692	0.01037	-0.296704	-2.8	14	-1.89	0.4791	-0.0162	-0.095	
-0.988444	0.006588	-0.288896	-2.52	14.7	-1.75	0.4568	-0.0092	-0.0979	
-0.984906	0.009638	-0.299022	-2.52	14.07	-1.89	0.4627	-0.011	-0.0994	
-0.97112	0.003416	-0.307318	-2.38	12.25	-2.17	0.47	-0.0082	-0.0933	
-0.971486	-0.012322	-0.319152	-2.52	13.51	-2.03	0.4688	-0.0153	-0.0784	
-0.971486	-0.010126	-0.319152	-1.89	11.97	-1.89	0.4687	-0.0123	-0.0828	
-0.966118	-0.004026	-0.343308	-0.63	12.32	-1.89	0.4629	-0.0136	-0.0813	
-0.972462	-0.006832	-0.343064	-2.73	12.88	-2.03	0.4656	-0.007999999	-0.0933	
-0.981856	-0.006222	-0.34465	-2.1	12.11	-2.17	0.4632	-0.0194	-0.0739	
-0.977464	-0.010492	-0.351604	-3.43	10.22	-1.68	0.466	-0.0165	-0.0739	
-0.983564	-0.005002	-0.340258	-0.42	10.01	-1.68	0.4718	-0.0152	-0.07229999	
-0.986614	-0.011834	-0.34709	2.94	9.24	-2.03	0.4744	-0.0077	-0.0706	
-0.992714	-0.016226	-0.370148	2.45	8.68	-2.24	0.4718	-0.0151	-0.0677	
-0.994544	-0.015128	-0.36417	1.26	7.91	-2.38	0.4627	-0.009099999	-0.0858	
-0.982954	-0.011834	-0.360632	2.66	6.3	-2.38	0.4776	-0.0138	-0.0662	
-0.97905	-0.010858	-0.360022	0.49	5.53	-2.38	0.4716	-0.0104	-0.0631	
-0.977952	-0.003294	-0.352946	1.12	3.36	-2.52	0.4745	-0.0106	-0.0676	
-0.972462	-0.000488	-0.353922	0.84	3.22	-1.96	0.4688	-0.0136	-0.0722	
-0.965386	-0.016104	-0.362218	0.84	3.15	-1.4	0.4672	-0.0119	-0.0692	
-0.960262	-0.017446	-0.360266	-0.21	0.84	-1.4	0.467	-0.0072	-0.0645	
-0.95465	-0.01342	-0.368074	-1.26	-0.28	-1.33	0.4658	-0.0117	-0.0661	
-0.961238	-0.011956	-0.381494	0.56	-0.7	-0.84	0.4702	-0.0135	-0.0692	
-0.9638	-0.017934	-0.366976	-2.31	-0.84	0	0.4774	-0.0093	-0.0676	
-0.968558	-0.024156	-0.356118	-0.98	-1.61	0	0.4702	-0.0124	-0.0813	
-0.977952	-0.02074	-0.349408	-0.14	-3.01	0.07	0.4642	-0.008599999	-0.0661	
-0.98698	-0.024888	-0.353678	0.77	-4.13	0.14	0.4713	-0.0044	-0.0659	
-0.992958	-0.022814	-0.366	0.42	-4.27	0.07	0.4805	-0.014	-0.0692	
-0.991616	-0.021716	-0.362584	1.75	-5.18	-0.14	0.4759	-0.0077	-0.069	
-0.99186	-0.016958	-0.35319	1.54	-6.86	0	0.4642	-0.0102	-0.0676	
-0.989298	-0.013054	-0.35075	0.98	-8.05	0.42	0.4718	-0.0167	-0.07229999	
-0.988932	-0.005734	-0.355874	2.24	-8.19	0.63	0.4674	-0.0163	-0.0648	
-0.983076	-0.009272	-0.354044	1.68	-9.38	1.19	0.4716	-0.0122	-0.0722	
-0.976488	-0.005856	-0.354166	0.28	-10.08	1.47	0.4642	-0.0089	-0.07669999	
-0.97661	-0.009881999	-0.35136	0.07	-10.99	1.75	0.4672	-0.0122	-0.0813	
-0.987102	-0.011346	-0.349286	0.42	-11.97	1.54	0.4686	-0.0093	-0.08419999	
-0.984784	-0.00854	-0.337086	-0.35	-13.3	1.68	0.4714	-0.0063	-0.0781	
-0.989542	-0.009393999	-0.33489	-1.26	-13.79	1.89	0.463	-0.0152	-0.0859	
-0.989786	-0.00183	-0.332206	-2.8	-15.54	2.31	0.4581	-0.0047	-0.0993	
-0.989298	0.000122	-0.33245	-3.64	-17.78	2.8	0.4674	-0.0169	-0.0829	
-0.99918	-0.008174	-0.324886	-4.13	-20.16	3.78	0.4742	-0.0053	-0.0917	
-1.00345	-0.01403	-0.31842	-5.95	-20.58	3.43	0.4644	-0.0155	-0.092	
-1.013454	-0.015006	-0.309758	-4.06	-24.57	3.5	0.4703	-0.0158	-0.095	
-1.01321	-0.002562	-0.310856	-6.51	-26.32	3.29	0.4656	-0.0096	-0.0979	
-1.016016	-0.003782	-0.2867	-7.91	-29.26	3.36	0.4653	-0.0021	-0.1022	
-1.019676	-0.000732	-0.28792	-11.69	-37.03	3.57	0.4611	-0.0066	-0.1069	
-1.031266	0.014762	-0.249856	-13.79	-43.4	2.17	0.4657	-0.0118	-0.1207	
-0.981124	0.024034	-0.24217	-6.51	-66.29	3.85	0.4585	-0.0163	-0.1299	
-1.02968	-0.010004	-0.338916	-2.17	-41.23	3.71	0.4598	-0.0117	-0.1267	
-1.028216	0.011956	-0.289018	-13.37	-29.68	4.76	0.4556	-0.0178	-0.1345	
-1.024556	0.014518	-0.218502	-3.78	-35.77	4.83	0.457	-0.0148	-0.1344	
-1.027728	0.016226	-0.230092	6.23	-41.23	2.94	0.4466	-0.0116	-0.1449	
-1.02968	0.014762	-0.240828	2.59	-36.82	3.22	0.4479	-0.0092	-0.163	
-1.024678	0.018666	-0.212646	-0.21	-40.25	4.13	0.4384	-0.027	-0.1636	
-1.026996	0.007198	-0.20008	-5.11	-41.51	4.83	0.4482	-0.0168	-0.1632	
-1.028094	0.006222	-0.185928	-12.81	-39.83	5.39	0.4422	-0.0139	-0.1783	
-1.02602	0.02257	-0.166408	-16.8	-41.16	5.46	0.4347	-0.0106	-0.1813	
-1.019676	0.022326	-0.157868	-13.51	-42.49	5.04	0.4228	-0.0075	-0.1948	
-1.013332	0.018666	-0.15433	-15.19	-39.34	5.11	0.4376	-0.0109	-0.1873	
-0.998814	0.019398	-0.093818	-7.56	-38.57	3.29	0.4336	-0.0188	-0.2012	
-0.985028	0.015372	-0.08235	-7.56	-32.97	2.59	0.4229	-0.0092	-0.2009	
-0.974292	0.017324	-0.031354	-2.87	-28.84	1.47	0.4245	-0.0135	-0.192	
-0.993446	0.02257	0.017812	-0.56	-28.07	0.49	0.4292	-0.0204	-0.2118	
-0.967582	0.022936	0.013786	-1.33	-27.79	0.49	0.4188	-0.0167	-0.2042	
-0.968314	0.013908	-0.002074	6.37	-23.31	0.21	0.4129	-0.0168	-0.2163	
-0.989054	0.016592	0.04209	5.46	-22.33	-0.7	0.4144	-0.0171	-0.2269	
-0.979416	0.02623	0.08113	2.45	-24.5	-0.77	0.4216	-0.0145	-0.2283	
-0.970754	0.0305	0.099674	1.82	-29.54	0.14	0.416	-0.0202	-0.227	
-0.962214	0.030988	0.125172	0.28	-34.02	-0.14	0.4155	-0.0098	-0.2343	
-0.96746	0.030744	0.091866	2.03	-29.4	-0.07	0.4116	-0.0217	-0.2331	
-0.963312	0.026474	0.117364	0.63	-27.93	0.07	0.4067	-0.0111	-0.2389	
-0.942816	0.011102	0.129808	-0.56	-24.5	0.14	0.4085	-0.0172	-0.2375	
-0.941108	0.013176	0.146278	1.12	-26.25	-0.14	0.4039	-0.0127	-0.248	
-0.94184	0.004514	0.15006	2.59	-24.57	-0.63	0.3977	-0.0049	-0.2508	
-0.95221	0.011224	0.161894	3.08	-22.68	-0.98	0.4037	-0.009699999	-0.2494	
-0.953064	0.008417999	0.17202	4.41	-22.33	-1.12	0.3908	-0.0169	-0.2542	
-0.949892	0.013176	0.170922	4.13	-18.76	-1.12	0.3997	-0.0173	-0.2557	
-0.960018	0.0183	0.201178	3.64	-16.1	-1.47	0.3924	-0.0187	-0.2618	
-0.957456	0.032818	0.202886	1.75	-10.78	-1.68	0.4013	-0.0222	-0.2665	
-0.963068	0.02867	0.229238	4.97	-13.09	-0.84	0.3924	-0.0186	-0.2603	
-0.969534	0.028792	0.219112	4.41	-12.25	-0.63	0.388	-0.0187	-0.2694	
-0.970022	0.021228	0.206912	3.78	-10.78	-0.28	0.3868	-0.0264	-0.2757	
-0.965874	0.016958	0.208742	3.71	-8.26	0	0.388	-0.0188	-0.274	
-0.9638	0.018178	0.204594	3.57	-6.51	0.49	0.3869	-0.0279	-0.2742	
-0.964776	0.023058	0.204106	3.43	-5.32	1.19	0.3924	-0.0188	-0.2664	
-0.96868	0.026474	0.196786	3.64	-3.85	1.82	0.3838	-0.0246	-0.2711	
-0.969534	0.029524	0.190076	4.41	-2.94	2.66	0.3908	-0.0173	-0.2709	
-0.973072	0.02684	0.181292	4.83	-0.35	3.71	0.3805	-0.0155	-0.2769	
-0.977464	0.019764	0.188612	4.06	1.47	4.97	0.3922	-0.0158	-0.2693	
-0.981002	0.007198	0.181292	2.1	2.24	6.09	0.3881	-0.0219	-0.2756	
-0.988932	0.010736	0.177144	1.96	2.17	6.93	0.3761	-0.0167	-0.2724	
-0.992226	0.019276	0.164578	1.89	3.5	8.26	0.3837	-0.0217	-0.2741	
-0.990396	0.021472	0.163602	1.54	4.06	10.08	0.3777	-0.0199	-0.274	
-0.989542	0.020496	0.158112	1.4	4.55	11.97	0.3915	-0.0325	-0.2683	
-0.996496	0.019764	0.144936	1.61	6.51	13.86	0.3797	-0.0321	-0.2729	
-1.00101	0.02257	0.137006	0.56	5.88	16.31	0.3858	-0.0369	-0.2715	
-1.00589	0.026596	0.143106	-0.21	5.74	17.92	0.3858	-0.0352	-0.2669	
-0.996862	0.026962	0.13359	-0.84	5.81	20.02	0.3945	-0.034	-0.2638	
-0.997716	0.033794	0.1342	-0.63	6.23	21.56	0.3919	-0.0418	-0.2746	
-1.000156	0.048312	0.13664	-0.56	5.74	24.08	0.3919	-0.0413	-0.2564	
-1.002352	0.055754	0.124806	0.56	4.97	26.11	0.3849	-0.0489	-0.2673	
-1.00162	0.064904	0.117486	-0.63	5.46	28.56	0.3896	-0.0549	-0.2584	
-1.007842	0.07503	0.106872	-1.05	6.02	31.22	0.3898	-0.0611	-0.2601	
-1.00467	0.085644	0.113582	-2.59	5.53	33.67	0.3836	-0.053	-0.2553	
-0.997594	0.100772	0.11651	-3.71	5.81	35.35	0.3928	-0.0628	-0.2631	
-0.997594	0.11163	0.124562	-3.29	4.55	37.31	0.3886	-0.0655	-0.2572	
-1.006012	0.1342	0.124196	-4.2	3.92	38.36	0.3904	-0.0748	-0.262	
-1.007354	0.146766	0.10492	-3.99	3.5	39.2	0.3816	-0.0729	-0.2619	
-1.01016	0.15982	0.101504	-3.15	3.78	39.69	0.3876	-0.0761	-0.2575	
-1.00223	0.174582	0.100772	-0.56	5.32	39.69	0.3937	-0.0824	-0.2561	
-1.008818	0.1952	0.11285	3.85	5.95	39.62	0.3954	-0.0872	-0.2623	
-1.003084	0.228018	0.099186	7	6.02	39.76	0.3796	-0.0954	-0.255	
-1.015772	0.241072	0.086742	7.42	8.54	40.6	0.3858	-0.1017	-0.2537	
-1.006866	0.266326	0.076738	3.36	7.07	41.72	0.3981	-0.1145	-0.2571	
-0.992348	0.277306	0.07991	-1.47	6.79	42.56	0.391	-0.1218	-0.2558	
-0.974048	0.291336	0.089304	-6.02	7.14	41.65	0.3884	-0.1294	-0.2605	
-0.95892	0.31049	0.069418	-9.03	4.62	41.3	0.3869	-0.1275	-0.2499	
-0.968192	0.304146	0.065392	-7.98	0.7	41.72	0.387	-0.129	-0.2499	
-0.987102	0.307074	0.057096	-10.29	0	41.02	0.383	-0.1397	-0.2563	
-0.980514	0.322202	0.06039	-10.22	-1.82	39.69	0.3831	-0.1412	-0.2579	
-0.947452	0.339038	0.06588	-8.61	-1.61	38.85	0.3847	-0.1442	-0.2534	
-0.923296	0.35563	0.088328	-4.41	-2.24	37.8	0.3849	-0.1488	-0.255	
-0.890722	0.371612	0.08845	0.14	-5.18	38.01	0.3852	-0.1548	-0.2492	
-0.893284	0.37515	0.078202	3.22	-8.12	39.13	0.3751	-0.1588	-0.2463	
-0.918904	0.394548	0.080276	4.76	-7.84	40.25	0.3705	-0.156	-0.2644	
-0.924882	0.406748	0.090524	4.27	-7.49	41.23	0.3714	-0.1756	-0.2559	
-0.917318	0.419436	0.0915	3.85	-8.26	42.14	0.3651	-0.1664	-0.2617	
-0.91744	0.432734	0.092354	2.45	-8.82	42.49	0.3657	-0.1782	-0.2514	
-0.907558	0.437858	0.09577	0.56	-9.38	41.79	0.3615	-0.1843	-0.2561	
-0.91805	0.439322	0.10187	0	-9.24	40.74	0.3648	-0.1923	-0.2654	
-0.912072	0.440176	0.098454	0.77	-8.96	39.9	0.3578	-0.2008	-0.2566	
-0.887794	0.484584	0.124318	3.57	-10.85	38.5	0.3524	-0.2114	-0.2615	
-0.894992	0.47641	0.084302	7.49	-13.09	38.85	0.3464	-0.2078	-0.2523	
-0.87779	0.483364	0.10187	2.24	-5.46	36.89	0.3481	-0.2127	-0.263	
-0.879132	0.483242	0.139934	3.99	-8.26	35.35	0.3483	-0.2172	-0.2601	
-0.868884	0.508618	0.14518	1.82	-8.96	32.76	0.3459	-0.2309	-0.2651	
-0.858758	0.527284	0.112972	4.48	-10.78	30.73	0.3457	-0.2264	-0.2665	
-0.850096	0.560468	0.100894	5.6	-9.73	28.77	0.3386	-0.2308	-0.2712	
-0.842044	0.591456	0.116022	5.6	-8.05	27.23	0.334	-0.2274	-0.268	
-0.83021	0.608658	0.13298	4.55	-5.88	25.83	0.3246	-0.2451	-0.2625	
-0.828014	0.629276	0.143716	1.05	-5.95	24.22	0.3223	-0.227	-0.2696	
-0.815326	0.631716	0.144692	-2.38	-8.47	22.05	0.326	-0.2453	-0.2671	
-0.795562	0.63379	0.134688	-6.09	-8.12	20.37	0.32	-0.242	-0.2685	
-0.780678	0.609756	0.13847	-8.89	-7.63	19.25	0.3172	-0.2452	-0.2762	
-0.779702	0.62037	0.13603	-10.36	-7.98	19.32	0.3143	-0.2449	-0.2731	
-0.7625	0.640378	0.130296	-11.06	-8.4	18.34	0.3187	-0.2467	-0.2732	
-0.749446	0.654652	0.128222	-11.13	-5.25	17.43	0.3203	-0.2483	-0.2732	
-0.740052	0.653554	0.148108	-13.65	-3.85	16.73	0.3117	-0.2526	-0.2779	
-0.74054	0.650504	0.162748	-14.98	-0.77	15.61	0.3103	-0.2539	-0.2749	
-0.741028	0.645868	0.176046	-13.3	-1.26	15.12	0.3132	-0.2541	-0.2764	
-0.745908	0.64172	0.17385	-15.54	0.98	12.6	0.3072	-0.2511	-0.2854	
-0.747006	0.646112	0.185074	-17.29	1.96	11.41	0.3101	-0.2495	-0.2808	
-0.752984	0.636352	0.178486	-16.31	1.96	10.29	0.2954	-0.2491	-0.2899	
-0.76067	0.639402	0.184586	-15.89	4.48	9.38	0.3084	-0.2469	-0.2959	
-0.768966	0.634522	0.197152	-14.07	4.06	8.05	0.3071	-0.2496	-0.2884	
-0.765794	0.61671	0.210084	-12.6	4.2	7	0.3015	-0.2554	-0.2886	
-0.775188	0.619638	0.213378	-11.48	2.1	6.3	0.3041	-0.248	-0.2899	
-0.766404	0.61976	0.208498	-10.29	1.47	6.16	0.3012	-0.2497	-0.3005	
-0.76799	0.61976	0.197884	-9.03	1.12	5.46	0.3054	-0.2451	-0.2928	
-0.763476	0.620126	0.196298	-8.4	0.84	4.2	0.2968	-0.2492	-0.2915	
-0.773724	0.615978	0.202032	-6.58	2.1	2.94	0.3117	-0.2529	-0.2885	
-0.772138	0.609268	0.20313	-7.42	1.33	1.26	0.2939	-0.2506	-0.2915	
-0.769698	0.603656	0.208742	-6.23	1.47	-0.21	0.2954	-0.2505	-0.2839	
-0.770674	0.610854	0.202276	-4.27	1.33	-1.19	0.297	-0.2535	-0.281	
-0.768234	0.612196	0.198372	-2.66	0.98	-2.38	0.3042	-0.2509	-0.2854	
-0.762378	0.609634	0.195932	-1.19	1.61	-3.64	0.3054	-0.2447	-0.2792	
-0.764208	0.61976	0.201544	0.49	2.03	-4.34	0.3114	-0.2465	-0.2807	
-0.759694	0.624762	0.198982	0.56	2.31	-5.74	0.3127	-0.2424	-0.2912	
-0.763964	0.625738	0.203862	0.77	2.59	-6.72	0.3037	-0.2387	-0.2836	
-0.766526	0.626836	0.195932	0.63	3.22	-7.98	0.3068	-0.2432	-0.2776	
-0.761402	0.621346	0.195078	1.26	3.43	-9.1	0.2992	-0.2354	-0.282	
-0.757986	0.620004	0.202276	1.89	3.71	-10.36	0.3112	-0.2422	-0.2897	
-0.766038	0.62098	0.200568	2.38	3.43	-11.62	0.3142	-0.2439	-0.2882	
-0.764208	0.605242	0.199592	4.06	3.01	-12.81	0.3023	-0.2402	-0.2866	
-0.773358	0.609146	0.195688	5.53	3.5	-14.49	0.3125	-0.2391	-0.2851	
-0.776774	0.607804	0.19093	5.32	3.71	-16.45	0.3137	-0.2332	-0.2879	
-0.774212	0.613416	0.185318	5.18	4.9	-18.48	0.3097	-0.2423	-0.2927	
-0.77897	0.609146	0.18239	5.39	5.81	-20.37	0.3147	-0.2226	-0.2876	
-0.782264	0.598532	0.189222	5.53	7.42	-22.33	0.3164	-0.2273	-0.2908	
-0.785436	0.599508	0.207888	6.86	6.02	-24.5	0.3223	-0.2288	-0.2817	
-0.782508	0.58377	0.160796	6.44	9.24	-26.46	0.3207	-0.2242	-0.2816	
-0.799466	0.597556	0.15433	6.72	10.43	-28.14	0.3283	-0.2306	-0.2803	
-0.80337	0.60085	0.168848	5.81	11.55	-29.96	0.3235	-0.2211	-0.2739	
-0.803492	0.584136	0.157136	5.39	13.79	-31.15	0.3276	-0.2134	-0.2661	
-0.812276	0.568276	0.165188	2.17	16.24	-33.46	0.3307	-0.2183	-0.2708	
-0.81862	0.549	0.148596	2.17	16.52	-35.63	0.3349	-0.2141	-0.2782	
-0.842044	0.550464	0.158234	3.71	12.88	-37.66	0.3453	-0.2159	-0.2707	
-0.853634	0.5307	0.131028	1.33	15.47	-39.41	0.3415	-0.196	-0.2716	
-0.857782	0.511912	0.128588	0.56	16.24	-40.39	0.3446	-0.2002	-0.2566	
-0.865224	0.50691	0.120414	0.21	15.61	-41.79	0.3546	-0.195	-0.2701	
-0.874008	0.493734	0.11346	-0.63	15.61	-43.33	0.3467	-0.1807	-0.2621	
-0.886452	0.468358	0.10248	0	16.17	-44.87	0.3674	-0.1846	-0.2592	
-0.903044	0.440908	0.098698	-1.05	18.13	-46.27	0.3686	-0.1785	-0.2544	
-0.90341	0.439078	0.099064	-2.1	17.15	-47.74	0.3653	-0.1691	-0.2511	
-0.910242	0.415166	0.096258	1.75	15.47	-49.07	0.3739	-0.1665	-0.2541	
-0.920124	0.407968	0.077836	2.24	14.07	-50.47	0.3822	-0.1546	-0.2476	
-0.929396	0.391986	0.066734	3.36	13.23	-50.96	0.3792	-0.1516	-0.2551	
-0.92476	0.376736	0.059902	4.41	13.02	-51.94	0.3776	-0.1497	-0.2445	
-0.930982	0.352946	0.065392	5.6	13.23	-52.5	0.395	-0.1445	-0.2473	
-0.927932	0.33855	0.05917	3.71	13.79	-54.18	0.3932	-0.1369	-0.2501	
-0.942694	0.320372	0.05368	9.24	10.08	-54.6	0.4001	-0.128	-0.2468	
-0.934886	0.31049	0.042944	7.91	6.3	-55.93	0.3926	-0.1247	-0.2498	
-0.970266	0.30134	0.040382	10.71	4.41	-56.07	0.4041	-0.1177	-0.2526	
-0.973438	0.283162	0.036234	9.8	7.07	-56.42	0.3937	-0.1138	-0.2374	
-1.003572	0.232288	0.04758	11.55	6.44	-55.02	0.4065	-0.1053	-0.2416	
-1.040904	0.215696	0.04941	9.52	8.68	-56	0.4032	-0.0976	-0.2414	
-1.048712	0.156526	0.0976	13.65	-4.41	-55.93	0.4069	-0.0826	-0.244	
-1.008208	0.123708	-0.000488	-4.76	7.98	-45.57	0.4108	-0.06879999	-0.233	
-1.010404	0.108092	-0.016226	7.14	6.79	-53.48	0.4081	-0.075	-0.2407	
-1.009428	0.11468	0.000122	4.48	8.61	-54.46	0.4089	-0.0595	-0.2282	
-1.035536	0.058804	0.045262	1.68	6.51	-53.9	0.4087	-0.0553	-0.2417	
-1.054568	0.027084	0.055998	-3.85	7.28	-54.74	0.4035	-0.038	-0.2306	
-1.040416	0.018544	0.039528	-2.45	4.76	-56.7	0.4166	-0.0358	-0.2396	
-1.021994	-0.001464	0.025132	0.42	3.36	-57.4	0.4036	-0.0394	-0.2246	
-1.012844	-0.027816	0.03721	2.1	2.66	-57.89	0.4056	-0.0186	-0.2391	
-1.017236	0.00915	0.04941	2.73	9.38	-56.91	0.4145	-0.0203	-0.2316	
-1.02968	-0.016714	0.04758	10.85	3.71	-53.41	0.4124	-0.0063	-0.2236	
-1.040538	-0.066124	0.013908	11.13	1.12	-51.03	0.4078	-0.0001	-0.2264	
-1.018944	-0.073932	-0.001098	10.92	2.52	-48.86	0.4106	0.0025	-0.2339	
-1.00833	-0.055754	0.032818	11.48	4.41	-44.87	0.4073	0.0104	-0.2276	
-1.020774	-0.050264	0.045384	10.57	4.41	-39.9	0.41	0.0166	-0.2199	
-0.996008	-0.072956	0.029036	5.04	4.06	-33.04	0.4083	0.0212	-0.2228	
-0.96197	-0.098942	0.023302	3.57	1.47	-29.33	0.4054	0.0196	-0.2289	
-0.972096	-0.117364	0.022204	0.84	1.05	-25.69	0.408	0.0273	-0.2196	
-0.99918	-0.128832	0.02318	-2.45	3.01	-23.1	0.4088	0.0437	-0.2312	
-1.006988	-0.1342	0.038918	-5.67	2.45	-21.07	0.4061	0.0378	-0.2299	
-1.00284	-0.141398	0.043798	-7.84	-0.07	-18.9	0.4017	0.0379	-0.2329	
-0.993934	-0.151646	0.041358	-7.98	-2.1	-16.38	0.4071	0.0487	-0.219	
-1.002474	-0.163114	0.059048	-9.94	2.52	-15.33	0.4011	0.0518	-0.2265	
-0.999058	-0.174582	0.066734	-12.53	1.89	-14.35	0.3997	0.0504	-0.225	
-1.016992	-0.152744	0.05551	-11.41	-2.73	-14.56	0.3969	0.0475	-0.2236	
-1.01016	-0.153964	0.018666	-5.88	-4.76	-15.47	0.3976	0.0643	-0.22	
-1.013942	-0.165432	-0.018788	-1.61	-2.1	-16.73	0.4023	0.0561	-0.2339	
-1.040416	-0.16531	-0.00549	1.89	0.84	-18.41	0.4094	0.0636	-0.2246	
-1.042368	-0.150914	0.014152	5.04	0.07	-19.6	0.3945	0.0672	-0.2306	
-1.032364	-0.141154	0.01403	6.37	-0.7	-20.58	0.4007	0.0595	-0.2232	
-1.015528	-0.13603	-0.003294	5.95	-0.91	-21.63	0.3976	0.064	-0.2291	
-1.019188	-0.091012	0.022082	2.52	-1.54	-22.47	0.3896	0.0796	-0.2272	
-1.018212	-0.12078	0.02318	8.19	-2.73	-22.68	0.3943	0.073	-0.2395	
-1.015406	-0.127856	0.02623	3.36	-3.99	-24.5	0.4015	0.0744	-0.2334	
-1.006012	-0.130784	0.02928	2.03	-4.13	-28.21	0.3996	0.0854	-0.224	
-1.009306	-0.139446	0.036844	1.82	-5.81	-30.03	0.3923	0.0837	-0.2392	
-1.01199	-0.164334	0.029036	-0.7	-6.51	-31.5	0.3961	0.0988	-0.2372	
-1.018944	-0.184342	0.027694	-1.05	-4.9	-33.39	0.386	0.0948	-0.2328	
-1.018822	-0.210938	0.024156	0.7	-1.68	-35.7	0.393	0.1023	-0.228	
-1.012844	-0.22692	0.03355	3.01	-0.14	-37.17	0.3807	0.115	-0.2277	
-1.01016	-0.242414	0.044042	5.95	-0.35	-37.94	0.3866	0.1145	-0.2337	
-1.00833	-0.251442	0.047214	9.31	-1.54	-38.5	0.3882	0.1112	-0.2399	
-0.996618	-0.281576	0.065026	11.69	-2.94	-39.27	0.3804	0.1225	-0.2305	
-0.987346	-0.302072	0.06161	12.39	-3.43	-39.97	0.3806	0.1179	-0.2337	
-0.975512	-0.319518	0.051362	12.32	-3.64	-40.32	0.3761	0.1194	-0.2397	
-0.962092	-0.341478	0.045872	11.69	-2.66	-40.74	0.3668	0.1306	-0.2363	
-0.94916	-0.348432	0.061976	9.31	-5.53	-40.39	0.3684	0.1273	-0.2425	
-0.943548	-0.381616	0.06161	12.39	-10.71	-39.76	0.3666	0.1348	-0.2483	
-0.940864	-0.404186	0.05368	12.25	-10.78	-39.83	0.3674	0.1501	-0.2418	
-0.930372	-0.427122	0.06734399	12.6	-11.62	-40.18	0.3612	0.1565	-0.2432	
-0.904264	-0.431148	0.05368	13.37	-14.84	-39.83	0.3567	0.1596	-0.2476	
-0.86498	-0.455426	0.065392	18.34	-15.61	-39.83	0.3449	0.1602	-0.2446	
-0.849974	-0.454328	0.09638	30.8	-11.83	-45.15	0.3534	0.1689	-0.2443	
-0.941596	-0.476044	0.087352	19.11	-15.47	-41.37	0.3421	0.1583	-0.2613	
-0.904996	-0.470554	0.050508	25.83	-21.49	-41.02	0.3285	0.1664	-0.2641	
-0.888404	-0.490928	0.097356	24.92	-16.59	-41.23	0.3358	0.1674	-0.2717	
-0.881328	-0.502396	0.121878	25.27	-18.13	-40.04	0.3342	0.1693	-0.2625	
-0.856318	-0.493978	0.127246	22.96	-17.99	-39.13	0.3165	0.173	-0.2655	
-0.85217	-0.496784	0.142618	20.65	-19.18	-38.71	0.3149	0.1759	-0.2745	
-0.847168	-0.488976	0.136762	15.96	-17.64	-36.68	0.303	0.1776	-0.2851	
-0.848022	-0.49837	0.1525	14.14	-16.17	-32.97	0.31	0.1868	-0.2742	
-0.831186	-0.510326	0.16409	9.87	-15.61	-32.69	0.3155	0.1939	-0.2815	
-0.84241	-0.518988	0.182634	10.64	-12.11	-32.41	0.2999	0.1824	-0.2834	
-0.819718	-0.53192	0.197884	7.77	-11.97	-31.36	0.2875	0.1981	-0.286	
-0.808616	-0.536922	0.222772	5.67	-14.7	-30.66	0.2948	0.1977	-0.286	
-0.797148	-0.547902	0.229604	4.76	-15.96	-29.96	0.2787	0.1969	-0.2891	
-0.797514	-0.559248	0.224358	3.99	-17.5	-28.7	0.2783	0.206	-0.2888	
-0.792024	-0.56486	0.222772	2.38	-20.16	-26.67	0.2846	0.1965	-0.2936	
-0.79605	-0.584868	0.23424	2.8	-19.88	-25.27	0.28	0.1994	-0.3026	
-0.782996	-0.611342	0.234118	-0.14	-19.32	-21.63	0.265	0.2079	-0.2964	
-0.767502	-0.630374	0.23302	-1.54	-19.04	-19.25	0.2663	0.2106	-0.3054	
-0.7625	-0.645502	0.239852	1.4	-16.31	-18.06	0.2637	0.2046	-0.3071	
-0.768356	-0.643794	0.241438	2.45	-12.53	-16.45	0.2634	0.2104	-0.316	
-0.743956	-0.642574	0.246806	4.83	-12.18	-13.23	0.2593	0.2032	-0.3086	
-0.738466	-0.650992	0.260226	5.81	-7.91	-11.69	0.2532	0.208	-0.3115	
-0.724192	-0.642818	0.252784	7.7	-6.86	-9.73	0.2459	0.2082	-0.3176	
-0.732976	-0.647942	0.264252	6.65	-6.23	-7.49	0.2486	0.2141	-0.3189	
-0.718336	-0.637572	0.26901	5.67	-4.13	-5.95	0.256	0.2123	-0.3175	
-0.712114	-0.632326	0.271572	4.34	-3.92	-4.27	0.2457	0.2129	-0.3099	
-0.702354	-0.636962	0.270108	2.94	-3.01	-3.01	0.2576	0.2089	-0.3266	
-0.708576	-0.641476	0.276696	2.38	-1.54	-2.24	0.2487	0.2113	-0.3099	
-0.715408	-0.648796	0.280356	1.4	-0.21	-1.4	0.2486	0.2127	-0.3129	
-0.710162	-0.636352	0.278404	0.49	1.82	-0.84	0.2415	0.2083	-0.3206	
-0.720654	-0.625738	0.28365	-0.21	2.1	-0.35	0.25	0.2141	-0.3159	
-0.724802	-0.62342	0.27633	-0.77	1.75	0.28	0.2468	0.222	-0.3096	
-0.7259	-0.62464	0.28243	-1.82	1.96	1.05	0.253	0.2126	-0.3099	
-0.734806	-0.622566	0.281088	-2.8	2.52	2.1	0.2544	0.214	-0.3114	
-0.735416	-0.626714	0.281454	-2.66	2.52	4.41	0.2428	0.2112	-0.3221	
-0.745908	-0.618418	0.284138	-2.66	3.08	6.02	0.2369	0.2133	-0.3114	
-0.759206	-0.637694	0.271816	-2.8	2.94	7.77	0.2457	0.2128	-0.316	
-0.754814	-0.62525	0.266326	-1.05	3.78	9.59	0.2561	0.2094	-0.3115	
-0.755302	-0.60634	0.266448	-1.82	5.04	11.48	0.2566	0.1986	-0.3148	
-0.759084	-0.606462	0.262666	-3.57	6.23	13.58	0.2504	0.205	-0.3147	
-0.7564	-0.612562	0.26718	-3.92	7	16.03	0.2605	0.2093	-0.3069	
-0.762012	-0.618906	0.25071	-6.16	7.35	17.85	0.2592	0.2064	-0.3055	
-0.757498	-0.610488	0.246684	-5.88	8.47	19.6	0.2535	0.2019	-0.3102	
-0.756522	-0.60817	0.246684	-6.93	10.01	21.42	0.2667	0.2017	-0.2996	
-0.762988	-0.618174	0.233874	-7.7	11.48	23.52	0.2665	0.2059	-0.3101	
-0.76006	-0.603412	0.224846	-6.16	12.6	24.78	0.2654	0.1985	-0.3057	
-0.768722	-0.590236	0.224114	-6.93	14.21	24.92	0.2771	0.1998	-0.2951	
-0.7808	-0.59719	0.221918	-5.95	15.05	26.6	0.2768	0.2058	-0.2979	
-0.779336	-0.59475	0.216916	-3.64	15.54	29.12	0.2758	0.1967	-0.2997	
-0.78873	-0.576084	0.212402	-1.61	16.59	31.36	0.2938	0.1868	-0.2984	
-0.795684	-0.557052	0.201788	-0.49	17.85	33.32	0.2982	0.1866	-0.2969	
-0.81252	-0.556076	0.201422	1.19	18.62	35.77	0.2941	0.1796	-0.285	
-0.823988	-0.518744	0.191296	0.77	19.74	38.08	0.2941	0.1809	-0.291	
-0.844972	-0.50935	0.183122	-1.12	18.41	40.39	0.3136	0.1708	-0.2928	
-0.854976	-0.492148	0.179706	-1.68	19.11	42.07	0.3139	0.1648	-0.2915	
-0.873032	-0.48983	0.171776	-3.15	18.34	43.12	0.3156	0.1588	-0.2856	
-0.889868	-0.468358	0.153598	-3.57	17.5	44.66	0.3302	0.1599	-0.278	
-0.901458	-0.459086	0.137738	-3.71	16.8	46.2	0.3243	0.1617	-0.2779	
-0.915732	-0.447252	0.132614	-4.48	18.48	46.83	0.329	0.1538	-0.2797	
-0.918538	-0.422974	0.131028	-5.81	16.24	48.79	0.3338	0.1461	-0.2768	
-0.920124	-0.405772	0.0976	-5.67	16.94	50.12	0.3349	0.1538	-0.2706	
-0.927444	-0.394426	0.088694	-5.88	16.52	50.4	0.3428	0.1412	-0.2724	
-0.942572	-0.368562	0.092842	-6.93	16.03	51.66	0.3432	0.1323	-0.2666	
-0.955626	-0.365146	0.02257	-4.62	17.64	52.85	0.3479	0.1244	-0.2699	
-0.949038	-0.343674	0.089182	-6.3	24.15	53.41	0.3688	0.1158	-0.2686	
-0.935984	-0.344162	0.077226	-8.4	14.49	56.35	0.3634	0.1057	-0.2613	
-0.949404	-0.333182	0.042944	-9.73	16.59	57.47	0.3652	0.0981	-0.257	
-0.955504	-0.32086	0.076128	-10.08	15.89	57.96	0.3744	0.0901	-0.2572	
-0.96502	-0.298168	0.0793	-9.03	13.79	59.92	0.382	0.0854	-0.2497	
-0.978684	-0.275476	0.082594	-6.79	12.95	60.55	0.3793	0.0777	-0.2591	
-0.984784	-0.260226	0.057584	-17.01	5.11	59.08	0.3836	0.0809	-0.2453	
-1.017968	-0.150426	0.011346	-46.62	-7.07	57.61	0.3941	0.076	-0.2394	
-1.047858	-0.172752	0.016104	-15.54	-1.12	61.6	0.3918	0.0607	-0.2489	
-1.015406	-0.14518	0.032208	-15.47	-0.63	63.14	0.3862	0.0564	-0.246	
-1.02663	-0.13237	0.062952	-13.3	-2.03	63.42	0.4012	0.0481	-0.2493	
-1.008208	-0.088694	0.038186	-11.48	-0.14	62.3	0.3988	0.036	-0.2512	
-1.015528	-0.05734	0.035868	-11.62	2.45	60.69	0.4001	0.0389	-0.2541	
-1.033828	-0.0122	0.064904	-12.81	3.01	59.43	0.3973	0.0362	-0.2451	
-1.03822	0.025376	0.05551	-6.86	5.53	57.75	0.395	0.0227	-0.244	
-1.03517	0.033062	0.051728	-4.2	4.41	56.28	0.4071	0.0131	-0.2412	
-1.014796	0.042456	0.047458	-4.55	4.9	53.41	0.4043	0.0099	-0.2489	
-1.016504	0.050264	0.048434	-3.85	3.64	49.14	0.4094	-0.0054	-0.2508	
-1.02907	0.069784	0.054534	-5.04	3.99	44.8	0.4003	0.0013	-0.2385	
-1.01992	0.08174	0.045384	-4.69	3.57	40.6	0.4087	-0.022	-0.2452	
-1.005402	0.091744	0.038918	-4.06	4.97	37.17	0.4031	-0.0294	-0.2485	
-1.00223	0.098088	0.053924	0.07	6.65	33.67	0.4104	-0.0266	-0.2469	
-0.988566	0.096258	0.065636	1.89	6.72	30.1	0.4061	-0.0292	-0.2364	
-0.996374	0.09552599	0.066856	3.71	5.18	26.95	0.4079	-0.0369	-0.2366	
-1.01931	0.10736	0.061	4.62	4.69	23.17	0.4067	-0.0429	-0.2353	
-1.024434	0.106506	0.05734	3.29	3.92	22.05	0.4082	-0.0445	-0.2368	
-1.012234	0.108824	0.064172	-0.14	3.01	20.51	0.4056	-0.0518	-0.231	
-1.001376	0.121268	0.057218	-0.84	1.05	18.55	0.4198	-0.0405	-0.2382	
-1.010282	0.118584	0.040016	0.49	-1.33	16.31	0.4217	-0.0511	-0.2324	
-1.01443	0.118462	0.0366	-0.14	-2.45	14.35	0.4059	-0.0599	-0.2464	
-1.013576	0.122122	0.028914	-0.21	-2.52	12.53	0.4118	-0.0599	-0.2388	
-1.021628	0.134932	0.045506	-1.26	-2.38	11.27	0.4115	-0.0522	-0.234	
-1.015162	0.140422	0.0366	-1.19	-2.87	9.94	0.4088	-0.0569	-0.2432	
-1.012722	0.136518	0.031842	-1.61	-4.27	9.1	0.4072	-0.0535	-0.2341	
-1.013942	0.145912	0.029646	0.56	-4.13	7.42	0.408	-0.0718	-0.2346	
-1.020408	0.143716	0.044042	1.75	-6.44	8.82	0.4033	-0.0655	-0.2359	
-1.010038	0.13359	0.015372	1.19	-5.95	9.73	0.4033	-0.0671	-0.239	
-1.007354	0.122488	0.016226	1.89	-6.09	11.48	0.4108	-0.0691	-0.2436	
-1.022848	0.12566	0.045018	2.52	-6.72	13.37	0.4044	-0.0583	-0.2463	
-1.013332	0.117852	0.030378	2.59	-8.54	16.45	0.4107	-0.0678	-0.2496	
-1.01199	0.119926	0.02684	2.17	-8.82	19.11	0.4126	-0.077	-0.2499	
-1.014186	0.118218	0.040016	1.33	-9.38	21.91	0.407	-0.0826	-0.241	
-1.013576	0.120902	0.041358	2.31	-10.78	26.25	0.4026	-0.08419999	-0.2531	
-1.014674	0.116266	0.038308	1.68	-9.59	28.07	0.4013	-0.087	-0.2472	
-1.012844	0.115656	0.06039	1.26	-10.22	29.89	0.404	-0.0827	-0.2501	
-1.014552	0.126148	0.080642	0.7	-11.55	30.52	0.4044	-0.0919	-0.2534	
-1.011502	0.156648	0.076982	1.96	-12.53	32.06	0.4003	-0.0993	-0.2521	
-0.998082	0.17019	0.060024	4.13	-11.06	33.67	0.3946	-0.1024	-0.2643	
-1.006622	0.18971	0.085034	6.44	-10.78	35.42	0.402	-0.1037	-0.2431	
-0.995398	0.208376	0.07869	4.83	-10.22	36.82	0.3967	-0.1176	-0.2617	
-1.004182	0.234606	0.081252	3.71	-10.43	37.87	0.3836	-0.1185	-0.2602	
-0.995764	0.249124	0.08113	3.57	-9.17	39.2	0.3935	-0.1112	-0.2555	
-0.989298	0.268522	0.090158	0.98	-8.89	40.11	0.3783	-0.1322	-0.2682	
-0.988688	0.280234	0.099918	-1.19	-8.54	40.88	0.3845	-0.1397	-0.2548	
-0.982222	0.311222	0.090524	-3.64	-9.31	41.44	0.3785	-0.138	-0.2593	
-0.983808	0.33306	0.088206	-5.53	-9.87	42.21	0.3864	-0.1506	-0.2627	
-0.966606	0.35197	0.089182	-7	-11.9	42.14	0.3817	-0.1428	-0.2625	
-0.942938	0.354776	0.083448	-7.98	-13.72	42.77	0.3723	-0.1625	-0.2736	
-0.945256	0.377346	0.069906	-7.63	-14.35	41.65	0.3737	-0.1623	-0.2645	
-0.924028	0.360022	0.068442	-6.58	-14.63	43.19	0.3794	-0.1582	-0.2735	
-0.91195	0.386008	0.09333	-5.39	-14.56	43.19	0.3682	-0.1715	-0.2754	
-0.902556	0.390034	0.119194	0	-16.1	43.26	0.3642	-0.1788	-0.2711	
-0.896578	0.400892	0.121878	3.57	-16.1	42.91	0.3584	-0.1816	-0.2742	
-0.890112	0.417362	0.130418	7.14	-18.9	44.31	0.3556	-0.1847	-0.2804	
-0.879132	0.43005	0.130906	5.95	-20.3	45.29	0.3497	-0.1844	-0.2773	
-0.879864	0.461404	0.141276	7.91	-22.26	47.04	0.3476	-0.2027	-0.2839	
-0.859978	0.47397	0.150304	8.75	-22.75	47.74	0.3375	-0.2069	-0.2871	
-0.853146	0.497516	0.17507	12.88	-28.35	47.67	0.3406	-0.2102	-0.2902	
-0.84424	0.485682	0.161894	10.36	-27.51	47.74	0.3322	-0.2191	-0.2966	
-0.822646	0.503494	0.178852	8.61	-23.8	45.57	0.3249	-0.2216	-0.2906	
-0.825696	0.536678	0.21533	6.72	-24.92	43.68	0.3208	-0.2276	-0.2938	
-0.828136	0.552538	0.210938	2.45	-25.41	42.21	0.312	-0.2291	-0.306	
-0.781776	0.569984	0.216184	-10.15	-27.86	44.31	0.3112	-0.2425	-0.2973	
-0.920246	0.67893	0.303292	-26.25	-38.57	51.45	0.3096	-0.2395	-0.3017	
-0.754448	0.58987	0.167506	-14.35	-24.85	37.59	0.2991	-0.2347	-0.3092	
-0.762378	0.633668	0.287188	-9.52	-27.44	37.1	0.2924	-0.2492	-0.2975	
-0.743102	0.611952	0.258396	-10.99	-28.91	34.16	0.282	-0.2478	-0.3157	
-0.74725	0.629764	0.250344	-9.8	-27.02	31.78	0.2734	-0.2504	-0.3158	
-0.714066	0.627812	0.26718	-8.82	-28.21	28.63	0.2646	-0.2518	-0.3264	
-0.712236	0.623054	0.250954	-8.19	-27.72	27.86	0.2609	-0.2668	-0.3238	
-0.704916	0.61427	0.27145	-6.44	-23.52	26.88	0.2605	-0.2593	-0.3297	
-0.705648	0.610976	0.296948	-1.33	-19.81	26.39	0.2518	-0.2606	-0.3343	
-0.714066	0.618052	0.297924	0.56	-21.77	26.74	0.2513	-0.25	-0.337	
-0.700158	0.617198	0.295606	1.54	-22.68	26.95	0.2449	-0.2709	-0.3331	
-0.705526	0.640866	0.314516	2.03	-22.96	26.67	0.2417	-0.2647	-0.3344	
-0.696254	0.64782	0.297924	2.73	-22.61	26.18	0.242	-0.2725	-0.3407	
-0.697108	0.660996	0.322324	2.1	-18.97	25.48	0.2328	-0.2628	-0.3359	
-0.707478	0.673318	0.3111	3.5	-18.06	23.45	0.2352	-0.2842	-0.335	
-0.701988	0.701378	0.338184	1.4	-17.36	21	0.2274	-0.2733	-0.3377	
-0.6954	0.700402	0.326472	-2.59	-17.29	17.92	0.2287	-0.2702	-0.3361	
-0.68564	0.695644	0.316224	-5.11	-16.87	16.03	0.2168	-0.2668	-0.3406	
-0.676612	0.701012	0.331108	-6.51	-16.8	14.21	0.2172	-0.2744	-0.3408	
-0.658434	0.693082	0.337818	-7	-16.24	12.11	0.2144	-0.2788	-0.3394	
-0.63318	0.694424	0.32147	-7.14	-14.98	10.85	0.2096	-0.2699	-0.3543	
-0.613294	0.691984	0.31964	-4.34	-13.16	9.94	0.2086	-0.2804	-0.3501	
-0.608536	0.690398	0.362218	-3.22	-10.22	9.1	0.2043	-0.2834	-0.3547	
-0.594506	0.703086	0.362218	-0.28	-10.01	8.54	0.1965	-0.2724	-0.3544	
-0.587186	0.722362	0.377346	0.14	-9.8	8.33	0.194	-0.2813	-0.3516	
-0.583648	0.729194	0.347578	1.05	-8.61	7.84	0.2015	-0.2859	-0.3412	
-0.574254	0.733952	0.35563	0.49	-4.83	7.14	0.1884	-0.2872	-0.3549	
-0.582306	0.735416	0.380762	0	-3.57	6.65	0.1972	-0.2893	-0.361	
-0.579744	0.735538	0.364048	-0.84	-3.08	5.67	0.1882	-0.2843	-0.3608	
-0.583038	0.746152	0.385032	-3.71	-2.8	4.76	0.1867	-0.2824	-0.3502	
-0.584136	0.737612	0.379542	-5.6	-1.68	2.66	0.1938	-0.2782	-0.3516	
-0.586454	0.743224	0.363316	-6.72	-0.49	0.98	0.1898	-0.2857	-0.3548	
-0.582184	0.736148	0.3721	-7.35	0.56	-0.42	0.1849	-0.2766	-0.3621	
-0.59414	0.72163	0.368928	-7.84	2.24	-1.96	0.1894	-0.2765	-0.3515	
-0.59536	0.712114	0.382592	-7.28	2.38	-3.36	0.1876	-0.2706	-0.3604	
-0.599142	0.722118	0.3904	-7.35	3.08	-5.32	0.1923	-0.2768	-0.3561	
-0.60451	0.719312	0.404186	-7.98	3.01	-7.42	0.1969	-0.2813	-0.3471	
-0.601826	0.715774	0.390766	-8.61	3.5	-9.8	0.1877	-0.272	-0.3574	
-0.601826	0.707234	0.394548	-9.94	4.27	-12.32	0.1966	-0.2737	-0.3499	
-0.604144	0.705526	0.3904	-10.01	5.53	-14.63	0.2009	-0.2726	-0.3559	
-0.606096	0.696742	0.38796	-9.38	6.72	-16.87	0.2021	-0.2665	-0.3542	
-0.618418	0.687714	0.39284	-6.72	8.75	-20.23	0.1989	-0.2602	-0.351	
-0.612806	0.682834	0.385276	-5.81	10.29	-22.4	0.2049	-0.2636	-0.3541	
-0.617076	0.66673	0.388814	-4.06	11.2	-24.22	0.205	-0.2654	-0.3648	
-0.624518	0.66002	0.380762	-1.75	13.02	-25.76	0.2077	-0.2593	-0.3601	
-0.626226	0.668194	0.378078	-0.14	14.14	-27.37	0.2163	-0.2566	-0.3569	
-0.632814	0.671366	0.370148	-0.07	16.24	-29.47	0.2225	-0.2627	-0.3465	
-0.640012	0.665632	0.368684	-0.28	17.99	-31.29	0.2142	-0.2411	-0.3504	
-0.649772	0.653066	0.35929	-0.28	20.02	-33.04	0.2242	-0.2355	-0.3503	
-0.659654	0.635986	0.349286	-0.84	21.91	-34.72	0.2322	-0.2498	-0.3582	
-0.675636	0.634278	0.346968	1.12	23.38	-36.19	0.238	-0.248	-0.34	
-0.685152	0.634034	0.344894	1.33	24.36	-37.73	0.2378	-0.2436	-0.3459	
-0.704184	0.617564	0.33245	0.49	24.78	-39.62	0.2493	-0.2382	-0.3533	
-0.71919	0.608292	0.33611	-0.7	26.6	-41.3	0.2548	-0.2292	-0.347	
-0.726754	0.59109	0.311222	-0.77	26.88	-42.91	0.2611	-0.24	-0.3427	
-0.747494	0.5856	0.315126	-0.49	26.67	-45.08	0.2609	-0.2338	-0.338	
-0.756522	0.563762	0.305	-0.98	30.24	-45.71	0.2723	-0.2266	-0.3363	
-0.772626	0.55266	0.301096	-1.12	27.44	-47.11	0.2791	-0.2147	-0.3344	
-0.801418	0.532774	0.284504	-0.42	26.74	-48.58	0.2805	-0.2132	-0.3313	
-0.820816	0.49837	0.279258	-1.12	29.26	-50.33	0.3068	-0.2113	-0.3282	
-0.837286	0.480192	0.253516	-1.89	29.19	-51.87	0.3048	-0.1972	-0.3172	
-0.863516	0.470066	0.254736	-0.91	25.9	-52.36	0.3102	-0.1872	-0.3305	
-0.868152	0.450912	0.248392	-2.45	25.06	-53.41	0.3148	-0.1932	-0.3231	
-0.870592	0.432612	0.240706	-2.8	23.45	-55.09	0.3184	-0.1735	-0.3195	
-0.885354	0.39711	0.230946	-4.13	24.43	-55.58	0.3184	-0.1733	-0.3119	
-0.892552	0.38308	0.235826	-4.34	22.33	-57.47	0.3332	-0.1756	-0.315	
-0.900604	0.364048	0.212402	-3.43	21.84	-58.94	0.3338	-0.1558	-0.3129	
-0.912804	0.34343	0.196176	-0.63	20.58	-59.85	0.339	-0.1425	-0.3186	
-0.93879	0.331596	0.205082	2.24	17.71	-59.99	0.3338	-0.1555	-0.3038	
-0.950014	0.284138	0.207644	3.71	17.36	-60.69	0.3419	-0.1406	-0.3003	
-0.981856	0.247416	0.175924	10.71	19.95	-61.74	0.3435	-0.1437	-0.3004	
-1.001864	0.205204	0.206912	16.03	21.7	-60.69	0.3521	-0.1381	-0.3033	
-1.022604	0.207888	0.135298	5.11	24.99	-60.62	0.3602	-0.1217	-0.2997	
-1.002596	0.201178	0.138958	6.09	27.16	-58.73	0.3584	-0.1138	-0.2935	
-0.986492	0.215696	0.156892	1.05	25.76	-61.18	0.367	-0.1094	-0.2857	
-1.001254	0.18544	0.144936	-2.73	28	-60.83	0.3702	-0.1158	-0.2905	
-0.995642	0.150548	0.139446	-2.66	29.89	-59.78	0.3794	-0.0914	-0.2761	
-0.995886	0.112606	0.114558	5.88	28.56	-58.52	0.3757	-0.07449999	-0.2726	
-0.986248	0.107238	0.106628	7	26.46	-56.35	0.374	-0.0682	-0.2679	
-0.98881	0.08174	0.109922	8.82	24.71	-53.34	0.3811	-0.0638	-0.2632	
-1.00284	0.079178	0.110288	9.87	21.42	-50.26	0.3852	-0.0549	-0.2644	
-0.996008	0.078324	0.120658	1.47	15.82	-47.04	0.394	-0.0555	-0.2705	
-1.00162	0.066856	0.11773	-6.51	14.84	-43.89	0.3953	-0.0524	-0.2689	
-1.003694	0.04514	0.130662	-7.49	13.44	-39.27	0.396	-0.0356	-0.2623	
-1.010282	0.034892	0.114314	-7.7	11.76	-36.19	0.3958	-0.031	-0.2607	
-1.011014	0.024034	0.093452	-7.14	10.36	-32.55	0.3945	-0.0338	-0.2547	
-1.020286	0.009393999	0.084058	-5.04	8.96	-30.1	0.3987	-0.0296	-0.2621	
-1.02236	-0.001342	0.067954	-5.32	9.45	-28.14	0.3999	-0.0234	-0.2559	
-1.01992	-0.00976	0.06283	-6.37	10.36	-26.32	0.3891	-0.0104	-0.245	
-1.023458	-0.008417999	0.065636	-4.13	9.52	-23.8	0.3985	-0.0251	-0.2635	
-1.022604	-0.02013	0.063318	-2.03	8.89	-22.47	0.4022	-0.0082	-0.2509	
-1.017358	-0.025254	0.063684	-2.31	7.98	-20.86	0.4035	-0.005	-0.2463	
-1.027362	-0.034404	0.068198	-1.05	7.84	-19.32	0.4024	-0.0126	-0.248	
-1.020042	-0.031476	0.051118	-3.71	7.21	-18.55	0.4017	0.0039	-0.2506	
-1.009428	-0.027206	0.038918	-4.13	6.72	-17.78	0.4021	-0.0052	-0.2523	
-1.016626	-0.028304	0.041236	-7.49	7.07	-17.64	0.396	-0.0003	-0.2522	
-1.01931	-0.025498	0.04758	-9.87	7	-18.13	0.3971	0.0088	-0.2459	
-1.029558	-0.019886	0.044164	-6.3	5.32	-20.3	0.3999	0.0105	-0.2367	
-1.023824	-0.031842	0.043798	-6.72	6.72	-23.03	0.4028	0.0118	-0.2397	
-1.031632	-0.031964	0.056608	-4.41	5.74	-25.2	0.3968	0.0148	-0.2518	
-1.038952	-0.035502	0.05307	0.56	4.34	-27.58	0.4084	0.0191	-0.241	
-1.033584	-0.038674	0.045628	2.17	2.59	-29.75	0.3962	0.0287	-0.2438	
-1.034194	-0.046482	0.045506	4.06	0.98	-31.36	0.406	0.0392	-0.2344	
-1.032608	-0.050996	0.044286	5.04	-0.7	-32.76	0.3961	0.0319	-0.2392	
-1.0431	-0.063928	0.04026	5.04	-1.12	-34.44	0.4019	0.0316	-0.2392	
-1.049444	-0.06771	0.044652	3.92	-1.47	-36.75	0.4019	0.0331	-0.2391	
-1.037366	-0.076006	0.044774	4.06	-1.89	-39.41	0.4003	0.0346	-0.2436	
-1.021262	-0.076006	0.05734	7.49	-4.41	-41.09	0.3936	0.053	-0.2476	
-1.012234	-0.07808	0.039162	9.8	-6.72	-42.56	0.4012	0.0481	-0.2478	
-1.003084	-0.106018	0.039284	10.15	-8.96	-43.4	0.3963	0.0605	-0.2489	
-0.993812	-0.145058	0.040992	10.64	-9.31	-44.17	0.396	0.06659999	-0.2488	
-0.99003	-0.18544	0.033916	8.75	-6.72	-45.01	0.3749	0.0781	-0.2515	
-1.000522	-0.223748	0.066246	5.11	-2.87	-46.41	0.3825	0.0731	-0.2546	

-0.993934	-0.26901	0.09552599	3.15	-5.81	-44.1	0.376	0.0872	-0.2512	
-0.98332	-0.279502	0.106384	2.8	-7.35	-43.75	0.3782	0.1037	-0.2538	
-0.973316	-0.307928	0.10248	5.67	-9.38	-43.82	0.3767	0.1051	-0.2613	
-0.970632	-0.327204	0.096258	9.03	-10.01	-44.45	0.3691	0.1102	-0.2536	
-0.934032	-0.372588	0.135786	13.72	-12.39	-44.59	0.3651	0.1011	-0.2599	
-1.017724	-0.365024	0.120658	25.83	-13.44	-46.41	0.354	0.1212	-0.2639	
-0.939766	-0.348554	0.0549	20.44	-20.23	-44.38	0.3555	0.1195	-0.267	
-0.92537	-0.370758	0.108092	15.75	-15.54	-44.03	0.3509	0.1242	-0.2699	
-0.911584	-0.379908	0.121268	20.65	-14.7	-44.8	0.3519	0.1349	-0.2665	
-0.910852	-0.400892	0.137128	19.95	-13.09	-44.94	0.3463	0.1273	-0.2774	
-0.903654	-0.402112	0.151036	19.39	-12.67	-45.78	0.3473	0.1379	-0.274	
-0.889868	-0.423218	0.146888	22.05	-15.89	-46.55	0.3298	0.1353	-0.2878	
-0.896944	-0.3904	0.144326	20.72	-16.66	-45.22	0.328	0.143	-0.286	
-0.903044	-0.40382	0.149328	18.83	-18.76	-43.96	0.3335	0.1518	-0.2888	
-0.907558	-0.427122	0.146156	15.89	-19.32	-42.63	0.326	0.1553	-0.2842	
-0.892674	-0.430538	0.172752	19.46	-17.15	-42.84	0.3221	0.1447	-0.2905	
-0.887306	-0.451034	0.178364	12.6	-17.22	-41.02	0.3171	0.1586	-0.2917	
-0.876936	-0.460184	0.185074	7.98	-21.56	-39.41	0.3145	0.1497	-0.2859	
-0.86071	-0.474092	0.169092	4.2	-21.84	-38.5	0.2964	0.1608	-0.2977	
-0.858148	-0.479826	0.174582	7.56	-18.76	-38.99	0.2933	0.1641	-0.2946	
-0.838872	-0.480436	0.268156	5.46	-21.63	-36.26	0.3018	0.1712	-0.3004	
-0.835578	-0.491294	0.188002	-7.07	-24.92	-34.72	0.2902	0.1683	-0.3111	
-0.812276	-0.52033	0.219112	-3.57	-19.88	-34.23	0.2868	0.1793	-0.3047	
-0.806054	-0.527284	0.238266	-6.09	-21.77	-33.32	0.2693	0.1755	-0.3064	
-0.785802	-0.543754	0.245952	-4.34	-19.81	-32.41	0.2733	0.1859	-0.3091	
-0.78385	-0.571936	0.260104	-3.36	-17.64	-31.64	0.2656	0.1938	-0.3104	
-0.782142	-0.597434	0.273402	-3.36	-18.34	-30.73	0.2643	0.1906	-0.3166	
-0.77165	-0.60146	0.275354	-3.5	-19.6	-29.26	0.2623	0.2031	-0.3086	
-0.761646	-0.612562	0.278526	-2.24	-17.71	-28.56	0.2564	0.2035	-0.3041	
-0.745664	-0.64477	0.283406	-2.87	-17.85	-26.6	0.2504	0.205	-0.3131	
-0.72956	-0.652334	0.268644	-1.19	-16.1	-24.43	0.2458	0.2114	-0.3115	
-0.719556	-0.67283	0.294874	1.75	-12.53	-22.61	0.2424	0.2207	-0.3112	
-0.70577	-0.673684	0.28304	2.38	-12.18	-21.63	0.2413	0.2133	-0.3038	
-0.698084	-0.68259	0.275476	3.71	-10.43	-20.44	0.2278	0.218	-0.3219	
-0.69296	-0.683688	0.291092	4.76	-7.49	-19.18	0.2291	0.2228	-0.3112	
-0.688202	-0.679906	0.299876	5.88	-7	-16.8	0.2175	0.22	-0.3203	
-0.685518	-0.698938	0.308538	6.72	-5.88	-15.68	0.2231	0.2259	-0.3186	
-0.67649	-0.69784	0.301462	7.63	-5.53	-14.7	0.2115	0.2231	-0.3278	
-0.681248	-0.681858	0.308782	8.82	-4.13	-13.02	0.2146	0.2201	-0.3203	
-0.67405	-0.663436	0.297436	8.05	-2.73	-11.27	0.2222	0.2118	-0.3327	
-0.67649	-0.675392	0.311832	8.19	-1.33	-9.45	0.215	0.209	-0.3358	
-0.66978	-0.683078	0.306952	7.7	-0.35	-8.33	0.2174	0.2214	-0.3264	
-0.665998	-0.673806	0.316468	8.33	0.91	-7.28	0.2159	0.2211	-0.3385	
-0.680028	-0.678076	0.323666	8.19	0.91	-5.32	0.2191	0.2167	-0.3265	
-0.679174	-0.68076	0.324032	8.4	1.12	-3.71	0.2177	0.215	-0.3341	
-0.665266	-0.669414	0.317444	8.19	3.08	-2.66	0.2115	0.2228	-0.3384	
-0.673074	-0.656482	0.323788	6.86	4.2	-1.26	0.2161	0.2186	-0.3174	
-0.684054	-0.640866	0.322812	5.46	4.34	-0.14	0.2236	0.215	-0.325	
-0.68564	-0.63867	0.326838	4.2	3.57	1.47	0.2132	0.217	-0.3265	
-0.697596	-0.650382	0.32879	2.87	3.5	2.31	0.2236	0.2133	-0.3311	
-0.692228	-0.657336	0.321592	2.66	3.01	3.5	0.2219	0.2196	-0.3279	
-0.697474	-0.64965	0.311222	2.24	3.01	4.83	0.2192	0.2137	-0.3266	
-0.704306	-0.655384	0.312686	0.98	3.57	6.65	0.2193	0.2122	-0.3236	
-0.720288	-0.654164	0.308904	1.4	4.34	9.45	0.2178	0.2137	-0.3266	
-0.723094	-0.655628	0.310124	1.61	4.83	12.04	0.2194	0.2094	-0.3161	
-0.727486	-0.637084	0.315736	0.91	5.67	14.63	0.2308	0.2176	-0.3295	
-0.726144	-0.625982	0.31537	-0.35	6.16	16.1	0.2268	0.2072	-0.3283	
-0.72468	-0.635498	0.305976	-3.01	5.95	18.83	0.2253	0.2089	-0.3237	
-0.726876	-0.629276	0.309636	-2.66	7.7	20.86	0.2238	0.2088	-0.3282	
-0.727974	-0.625982	0.320494	-2.87	8.82	22.96	0.2344	0.2023	-0.3284	
-0.717116	-0.625616	0.307318	-4.27	9.31	25.13	0.2402	0.2038	-0.3208	
-0.72041	-0.627324	0.309026	-3.71	10.08	26.74	0.2359	0.2006	-0.333	
-0.723338	-0.618174	0.297558	-5.53	11.27	27.93	0.2462	0.2003	-0.3269	
-0.72895	-0.604144	0.294264	-6.44	13.02	29.54	0.2465	0.1925	-0.3317	
-0.730658	-0.602802	0.28853	-6.3	14.35	31.36	0.2587	0.1832	-0.3198	
-0.729072	-0.593774	0.29463	-6.3	14.91	32.9	0.2552	0.1969	-0.324	
-0.745542	-0.583038	0.280966	-8.54	14.91	33.32	0.2602	0.1814	-0.3259	
-0.758596	-0.586576	0.269986	-9.1	17.5	35.49	0.2643	0.1892	-0.3121	
-0.770552	-0.577792	0.26657	-7.35	19.18	37.45	0.2733	0.1859	-0.3076	
-0.795196	-0.576084	0.259128	-7.14	19.18	38.64	0.2824	0.1792	-0.3138	
-0.792512	-0.564006	0.242048	-7.42	20.23	39.69	0.2797	0.1733	-0.314	
-0.823622	-0.530944	0.2318	-5.74	21.14	41.37	0.2781	0.1767	-0.3033	
-0.840824	-0.521306	0.19947	-6.65	21.63	43.12	0.2814	0.1671	-0.3142	
-0.864126	-0.512034	0.211304	-5.04	18.83	44.17	0.3009	0.1574	-0.3053	
-0.853634	-0.4819	0.1952	-5.95	18.97	44.94	0.3023	0.1605	-0.3007	
-0.864614	-0.463722	0.185806	-5.25	18.48	45.36	0.3025	0.156	-0.2963	
-0.866688	-0.437248	0.18422	-6.65	16.94	45.5	0.3131	0.1479	-0.298	
-0.886208	-0.416264	0.16348	-7.35	17.08	46.76	0.3264	0.1458	-0.2981	
-0.897676	-0.400404	0.169946	-6.79	18.41	48.37	0.3266	0.1415	-0.2876	
-0.896212	-0.401624	0.160552	-8.33	17.43	49.28	0.322	0.1464	-0.2844	
-0.918416	-0.399672	0.159698	-7.91	16.94	51.03	0.3347	0.1243	-0.2941	
-0.929884	-0.377468	0.156282	-7.28	20.3	51.73	0.3376	0.1258	-0.2895	
-0.948672	-0.351848	0.1525	-8.96	17.99	53.9	0.3348	0.1231	-0.2821	
-0.952332	-0.359534	0.114436	-2.1	17.57	54.95	0.3556	0.1178	-0.2731	
-0.949648	-0.336598	0.128344	-2.59	19.81	56.07	0.3548	0.101	-0.2781	
-0.95587	-0.312686	0.113582	-0.49	18.41	56.98	0.3607	0.1009	-0.2736	
-0.955016	-0.288652	0.094306	0.35	16.87	57.82	0.3578	0.101	-0.2736	
-0.969534	-0.272304	0.098454	-1.68	13.51	59.36	0.3658	0.0853	-0.277	
-0.97173	-0.2501	0.09076799	-4.83	15.4	59.36	0.3748	0.0806	-0.2696	
-1.005036	-0.194468	0.103456	-8.61	13.86	59.57	0.3722	0.0733	-0.2622	
-1.011624	-0.159454	0.10187	-13.58	14.21	59.43	0.3741	0.0627	-0.258	
-1.011624	-0.149816	0.085034	-13.79	14.28	60.69	0.3848	0.0529	-0.2658	
-1.006134	-0.137982	0.069906	-14.49	13.72	61.46	0.3822	0.0457	-0.2554	
-1.002962	-0.096746	0.06405	-16.38	13.93	61.39	0.385	0.0485	-0.2584	
-1.009672	-0.05795	0.066978	-17.92	9.87	60.34	0.3842	0.0333	-0.2603	
-1.023336	-0.017812	0.05795	-16.17	9.03	58.8	0.3904	0.0272	-0.2529	
-1.015406	-0.019154	0.052582	-15.19	12.32	56.14	0.3891	0.0227	-0.2516	
-1.012356	0.009393999	0.053192	-13.72	13.16	52.5	0.3955	0.0118	-0.2503	
-1.010648	0.03111	0.06039	-12.04	10.64	49.63	0.3928	0.0059	-0.2475	
-1.023946	0.049288	0.050264	-10.22	10.29	45.64	0.3977	-0.0064	-0.2509	
-1.039928	0.06527	0.044652	-9.59	9.38	42.35	0.3989	0.0011	-0.2491	
-1.030534	0.0671	0.049654	-8.4	9.31	38.92	0.4065	-0.0067	-0.2463	
-1.026996	0.069174	0.054046	-8.05	8.4	35.84	0.405	-0.0053	-0.2539	
-1.023336	0.062586	0.051484	-8.05	7.91	31.78	0.3998	-0.0199	-0.2391	
-1.017236	0.065514	0.05002	-6.65	9.03	29.33	0.4053	-0.0125	-0.2389	
-1.009306	0.05551	0.049288	-4.41	7.77	27.3	0.4084	-0.0155	-0.2314	
-1.008086	0.058194	0.045872	-2.87	6.58	25.2	0.4131	-0.0217	-0.2301	
-1.010892	0.059902	0.034526	-1.19	5.18	22.19	0.4047	-0.0323	-0.2395	
-1.01687	0.07381	0.025742	-0.91	3.92	20.72	0.4121	-0.0324	-0.2334	
-1.025532	0.078202	0.028304	0.35	3.64	19.6	0.4152	-0.0374	-0.2442	
-1.024434	0.08479	0.03233	1.26	2.66	18.97	0.4169	-0.0419	-0.2382	
-1.024434	0.084668	0.021838	1.26	1.47	17.71	0.4173	-0.0508	-0.2309	
-1.023214	0.09333	0.019154	2.17	1.12	16.17	0.4187	-0.0494	-0.2339	
-1.020042	0.095282	0.007198	3.85	0.21	14.7	0.4087	-0.0553	-0.2402	
-1.024556	0.098332	0.002684	5.46	0.91	14.21	0.4046	-0.0607	-0.2267	
-1.018822	0.098942	0.001342	6.86	0.91	14.35	0.4145	-0.0539	-0.2356	
-1.021384	0.0976	0.01159	6.37	1.4	14.98	0.4102	-0.0552	-0.2356	
-1.01138	0.097722	0.005246	7	0.63	16.1	0.413	-0.0537	-0.231	
-1.015528	0.106506	0.018666	7.14	-0.14	18.2	0.4138	-0.0717	-0.2225	
-1.018334	0.11346	0.0244	4.55	-1.05	20.3	0.4106	-0.0658	-0.2344	
-1.007354	0.106994	0.017812	1.61	-1.05	22.68	0.4152	-0.069	-0.233	
-1.01382	0.124684	0.035258	-1.26	-3.36	24.57	0.4019	-0.0685	-0.2375	
-1.025898	0.117486	0.035014	-7.91	-6.37	24.92	0.4154	-0.0737	-0.2377	
-1.036146	0.148596	0.018666	-6.23	-6.65	26.6	0.4008	-0.0763	-0.2438	
-1.021506	0.12993	0.012932	-4.62	-5.32	27.79	0.4114	-0.0827	-0.2379	
-1.011502	0.13115	0.033306	-2.31	-7.7	29.75	0.4073	-0.09	-0.2336	
-1.012234	0.15128	0.030622	-3.5	-3.99	30.8	0.4015	-0.0929	-0.2398	
-1.014918	0.179218	0.034404	-1.4	-7.14	31.99	0.4074	-0.0931	-0.2382	
-1.018456	0.213988	0.02135	-1.54	-5.81	33.25	0.4102	-0.0901	-0.2336	
-1.019798	0.21838	0.02928	-1.33	-7	35.28	0.4019	-0.1006	-0.243	
-1.00406	0.229726	0.050996	-2.31	-9.17	36.26	0.3932	-0.103	-0.2355	
-1.006378	0.213866	0.037454	-4.06	-5.6	36.4	0.3981	-0.1142	-0.2464	
-0.98515	0.241316	0.03782	-6.37	-6.3	36.61	0.3952	-0.1157	-0.251	
-0.986004	0.26108	0.033428	-3.5	-7.63	37.52	0.3983	-0.1204	-0.2481	
-0.987224	0.279258	0.030256	-4.97	-9.31	38.57	0.3924	-0.1201	-0.2466	
-0.9821	0.284626	0.032452	-5.95	-10.08	39.62	0.3987	-0.1293	-0.2423	
-0.977464	0.30805	0.04209	-6.86	-10.5	39.97	0.39	-0.1309	-0.256	
-0.975634	0.35563	0.042578	-3.43	-13.44	41.37	0.3908	-0.1506	-0.2551	
-0.96624	0.37149	0.047458	-2.87	-14.42	41.37	0.3864	-0.149	-0.2581	
-0.934398	0.380274	0.047946	-11.62	-12.88	39.41	0.382	-0.1503	-0.2566	
-0.921466	0.391132	0.04148	-8.4	-10.08	38.78	0.3767	-0.1636	-0.254	
-0.916708	0.381616	0.057706	-3.15	-11.06	38.01	0.3794	-0.158	-0.2644	
-0.90341	0.378688	0.067954	-1.61	-10.92	38.5	0.3711	-0.1694	-0.2526	
-0.915	0.388692	0.08906	3.43	-16.03	39.76	0.3654	-0.1724	-0.2588	
-0.916098	0.4148	0.100772	7.42	-20.93	41.3	0.3743	-0.1759	-0.2619	
-0.907924	0.430538	0.107116	7.63	-21.77	42.42	0.3572	-0.1857	-0.2592	
-0.890478	0.435174	0.116754	6.37	-23.1	44.31	0.3588	-0.1889	-0.2638	
-0.90036	0.441884	0.128466	5.11	-24.64	44.59	0.3576	-0.1966	-0.2671	
-0.89243	0.42334	0.142496	3.57	-24.43	44.8	0.3506	-0.204	-0.2734	
-0.880108	0.432978	0.151646	2.8	-26.53	43.4	0.3449	-0.2068	-0.272	
-0.8784	0.478118	0.147742	6.3	-29.75	42	0.3395	-0.217	-0.2647	
-0.873642	0.47458	0.130296	6.23	-29.61	39.55	0.3292	-0.2182	-0.2708	
-0.865834	0.513376	0.149328	1.19	-25.34	37.66	0.3279	-0.2215	-0.283	
-0.862784	0.507764	0.190076	1.12	-27.72	36.54	0.3276	-0.2141	-0.2904	
-0.861198	0.522282	0.164944	0.28	-28.42	34.09	0.3106	-0.2284	-0.2848	
-0.842166	0.546438	0.167384	-0.14	-26.32	32.62	0.3048	-0.2315	-0.297	
-0.842532	0.554002	0.181902	-1.82	-28.21	32.27	0.308	-0.2378	-0.2972	
-0.824598	0.558638	0.180194	-4.2	-26.95	31.22	0.2994	-0.2404	-0.2972	
-0.816424	0.568886	0.183	-4.48	-25.97	30.17	0.3024	-0.2424	-0.3079	
-0.78812	0.580964	0.220454	-6.16	-27.23	29.26	0.2981	-0.2453	-0.3095	
-0.757986	0.602802	0.219966	-6.86	-29.54	28.56	0.2909	-0.2493	-0.3036	
-0.751032	0.606584	0.2257	-5.88	-28.21	28.07	0.2838	-0.2554	-0.3159	
-0.731756	0.614392	0.237534	-7.91	-25.9	28.49	0.2791	-0.2475	-0.3111	
-0.654652	0.603046	0.261202	-23.94	-26.25	35.63	0.2677	-0.2548	-0.3204	
-0.786534	0.64172	0.20801	-4.48	-25.97	25.41	0.2591	-0.2607	-0.3267	
-0.70882	0.643306	0.266814	-7.14	-22.96	24.78	0.2532	-0.2586	-0.316	
-0.70394	0.640744	0.270108	-5.74	-22.89	24.01	0.2562	-0.2604	-0.3206	
-0.699548	0.640012	0.270596	-3.85	-20.3	22.4	0.2533	-0.2621	-0.3298	
-0.694058	0.651602	0.277306	-1.47	-18.83	21.21	0.2369	-0.2567	-0.3266	
-0.674782	0.649284	0.291214	-0.84	-17.36	20.37	0.2401	-0.263	-0.3313	
-0.68442	0.653554	0.303048	0	-16.8	19.95	0.2386	-0.2614	-0.3298	
-0.683444	0.643916	0.31354	-0.07	-15.96	19.6	0.2343	-0.2644	-0.3344	
-0.675392	0.63135	0.300242	-0.14	-16.73	19.39	0.2315	-0.2672	-0.33	
-0.673562	0.648552	0.321958	1.05	-15.12	19.53	0.2242	-0.267	-0.336	
-0.666364	0.660874	0.319274	2.31	-15.68	19.6	0.2233	-0.2804	-0.3288	
-0.670634	0.675758	0.32635	3.29	-13.93	19.39	0.2145	-0.2805	-0.3455	
-0.664412	0.692472	0.333792	3.43	-14.07	19.18	0.2262	-0.2807	-0.3349	
-0.661484	0.690886	0.33367	1.68	-12.81	17.85	0.2189	-0.2804	-0.3334	
-0.669048	0.704062	0.339526	0.35	-12.04	16.31	0.2144	-0.2786	-0.3318	
-0.660142	0.715286	0.342698	-3.43	-11.62	13.23	0.2097	-0.271	-0.3392	
-0.657092	0.722972	0.342332	-5.46	-12.32	11.13	0.2029	-0.2846	-0.3472	
-0.640378	0.717848	0.346114	-8.33	-11.48	8.47	0.2072	-0.2817	-0.3441	
-0.631472	0.716872	0.335622	-7.7	-9.73	6.09	0.2103	-0.2848	-0.3441	
-0.620492	0.72834	0.36051	-9.73	-10.57	3.92	0.198	-0.2721	-0.3438	
-0.60756	0.72346	0.371368	-11.97	-10.5	1.4	0.2041	-0.2771	-0.3485	
-0.604632	0.729316	0.360022	-11.83	-6.44	-0.77	0.2013	-0.28	-0.347	
-0.59719	0.72773	0.352336	-12.25	-6.02	-2.59	0.1906	-0.2704	-0.3498	
-0.58865	0.725534	0.364048	-10.92	-4.76	-4.13	0.1998	-0.2815	-0.3516	
-0.581208	0.722362	0.368684	-10.64	-1.26	-6.44	0.1981	-0.2753	-0.3499	
-0.580598	0.708698	0.381494	-9.87	1.82	-8.19	0.1962	-0.266	-0.3467	
-0.57584	0.706624	0.380274	-8.61	3.15	-9.87	0.2033	-0.2605	-0.3541	
-0.574986	0.700402	0.392352	-7.91	5.39	-11.34	0.2038	-0.2715	-0.365	
-0.575474	0.704428	0.391742	-6.93	8.19	-12.88	0.2008	-0.2697	-0.3619	
-0.583282	0.706014	0.395768	-5.95	10.99	-15.05	0.2035	-0.2653	-0.3618	
-0.592188	0.703208	0.38674	-5.74	12.95	-17.5	0.2061	-0.2575	-0.3524	
-0.606584	0.701256	0.393084	-6.65	14.49	-20.16	0.2095	-0.2669	-0.3542	
-0.61793	0.678686	0.39162	-5.74	16.03	-22.4	0.2212	-0.266	-0.3587	
-0.632082	0.669292	0.373564	-4.97	17.64	-26.04	0.2189	-0.2473	-0.3476	
-0.65392	0.660264	0.369172	-4.06	19.74	-27.65	0.2281	-0.2571	-0.3539	
-0.64965	0.646478	0.356728	-5.39	21.07	-29.82	0.2325	-0.2555	-0.3463	
-0.665022	0.636718	0.36173	-3.5	22.4	-32.34	0.2407	-0.242	-0.3398	
-0.671244	0.628666	0.370148	-2.8	24.64	-34.86	0.242	-0.2393	-0.3488	
-0.679784	0.609878	0.341356	-1.96	26.67	-37.31	0.2464	-0.2378	-0.3427	
-0.706136	0.596092	0.330132	0.14	27.58	-39.55	0.2556	-0.2472	-0.3384	
-0.717116	0.582428	0.330376	1.47	28.63	-41.65	0.2637	-0.2321	-0.3289	
-0.725412	0.570716	0.317078	3.36	28.77	-43.54	0.2609	-0.2355	-0.3456	
-0.750544	0.56242	0.316468	5.95	28.07	-44.94	0.2794	-0.2224	-0.3346	
-0.765306	0.56364	0.301828	7.42	27.44	-47.32	0.2838	-0.2224	-0.3301	
-0.781654	0.546194	0.288042	5.67	27.23	-49.56	0.2722	-0.2248	-0.3256	
-0.797148	0.523136	0.28609	4.34	27.79	-51.8	0.288	-0.2179	-0.3254	
-0.811178	0.523014	0.279746	1.96	28.35	-53.76	0.2976	-0.2013	-0.3128	
-0.824476	0.506544	0.259006	0.14	27.09	-55.72	0.3008	-0.2077	-0.3205	
-0.838384	0.494588	0.246074	-2.17	26.67	-57.54	0.3044	-0.1894	-0.3139	
-0.854244	0.485316	0.22753	-4.97	27.51	-58.45	0.3087	-0.1866	-0.3138	
-0.868396	0.468236	0.217892	-6.44	27.58	-59.01	0.3232	-0.1829	-0.3213	
-0.88389	0.448838	0.20069	-7.91	26.81	-59.92	0.323	-0.1779	-0.3075	
-0.909876	0.402844	0.180316	-11.55	23.66	-59.85	0.3384	-0.162	-0.31	
-0.928542	0.377224	0.179462	-12.25	24.92	-60.62	0.3379	-0.1497	-0.3051	
-0.938668	0.347944	0.162992	-12.67	24.85	-61.39	0.3391	-0.1436	-0.3034	
-0.956602	0.30378	0.169214	-10.78	23.24	-60.55	0.3509	-0.1441	-0.3004	
-0.989786	0.260714	0.153964	-4.06	24.15	-60.27	0.3593	-0.1349	-0.2865	
-1.015772	0.216794	0.168238	-2.17	22.12	-59.01	0.3543	-0.1213	-0.2952	
-1.02907	0.202032	0.09747799	4.55	21.07	-59.64	0.3585	-0.1172	-0.3057	
-1.012234	0.18605	0.136152	3.22	22.47	-57.75	0.3628	-0.1141	-0.2965	
-0.984052	0.177876	0.107116	10.5	29.68	-62.37	0.3696	-0.1033	-0.281	
-0.991128	0.163846	0.10187	2.45	27.16	-62.3	0.3787	-0.1085	-0.2887	
-0.999058	0.148962	0.114802	11.55	33.18	-61.81	0.3834	-0.0827	-0.2819	
-1.026508	0.1281	0.125172	9.73	24.43	-60.34	0.3835	-0.084	-0.2759	
-1.023092	0.103578	0.130784	7.42	23.24	-58.87	0.3833	-0.0809	-0.2728	
-1.003084	0.091134	0.118462	11.27	19.81	-56.63	0.386	-0.0734	-0.271	
-0.9882	0.080154	0.103578	14.28	15.12	-54.53	0.3868	-0.0597	-0.2691	
-1.010648	0.055388	0.055388	7.14	11.34	-53.27	0.394	-0.0566	-0.2584	
-1.010404	0.081984	0.108458	-1.96	14.49	-48.37	0.3835	-0.0504	-0.2704	
-1.005036	0.053924	0.122244	-4.62	12.46	-44.45	0.3876	-0.0444	-0.2671	
-0.99918	0.038308	0.135908	-7.63	7.84	-40.6	0.3886	-0.0338	-0.2668	
-1.009062	0.024766	0.135054	-7.98	9.31	-38.5	0.3914	-0.0307	-0.2592	
-1.018578	-0.00244	0.129564	-8.26	6.02	-37.03	0.3848	-0.0136	-0.2572	
-1.020408	-0.011102	0.118218	-8.12	5.95	-36.4	0.3936	-0.0125	-0.2586	
-1.01138	-0.022326	0.101504	-5.67	6.37	-35.84	0.3965	-0.0126	-0.2541	
-1.006866	-0.03904	0.072712	-4.41	6.79	-33.6	0.3872	-0.0015	-0.2538	
-1.030656	-0.015494	0.083814	-6.09	8.33	-31.36	0.3964	-0.0112	-0.2601	
-1.02053	-0.05124	0.080398	-0.7	10.22	-28.56	0.3867	0.0106	-0.2534	
-1.017724	-0.049654	0.080032	0.84	7.49	-26.04	0.3867	0.0107	-0.2519	
-1.011868	-0.05734	0.069174	3.01	7.28	-23.73	0.394	0.0118	-0.2549	
-1.009184	-0.072834	0.073932	3.78	6.44	-21.84	0.3966	0.0192	-0.2547	
-1.008696	-0.07625	0.079422	4.83	7	-20.65	0.391	0.0136	-0.2488	
-0.999546	-0.076372	0.067832	4.55	7.63	-19.53	0.4024	0.0205	-0.2546	
-0.997472	-0.07076	0.06954	4.48	4.83	-17.99	0.3967	0.016	-0.2608	
-1.014186	-0.077104	0.067832	6.51	4.2	-17.22	0.392	0.0224	-0.2561	
-1.016992	-0.08662	0.04697	3.78	4.9	-17.08	0.3992	0.0268	-0.2529	
-1.021994	-0.086376	0.054534	4.97	3.85	-17.36	0.3913	0.0394	-0.248	
-1.017724	-0.082716	0.05063	10.99	4.97	-18.83	0.3979	0.0242	-0.2394	
-1.024556	-0.079544	0.050752	11.06	3.78	-20.23	0.3961	0.0301	-0.2468	
-1.0248	-0.07686	0.050142	10.43	4.06	-21.98	0.3912	0.0425	-0.2464	
-1.028826	-0.076128	0.051484	9.94	2.73	-23.52	0.3973	0.0362	-0.2466	
-1.02602	-0.07625	0.048434	9.8	0.21	-25.2	0.3897	0.0426	-0.2464	
-1.021018	-0.080154	0.037332	9.24	-0.63	-27.37	0.3976	0.03	-0.2483	
-1.02053	-0.086254	0.037454	8.05	-2.31	-29.68	0.3953	0.0501	-0.2401	
-1.018456	-0.100284	0.04087	7.07	-3.01	-31.5	0.3918	0.0607	-0.2489	
-1.017968	-0.114192	0.044042	3.71	-4.55	-33.18	0.3965	0.0542	-0.2552	
-1.017602	-0.129564	0.053802	2.03	-5.39	-34.93	0.3848	0.0549	-0.2476	
-1.0248	-0.142618	0.065392	1.47	-6.37	-36.54	0.3787	0.0597	-0.249	
-1.021384	-0.16104	0.064172	0.14	-6.79	-37.94	0.3812	0.0687	-0.2517	
-1.016016	-0.185806	0.067954	2.24	-5.81	-38.5	0.3765	0.0764	-0.253	
-0.999912	-0.224114	0.076616	4.55	-3.99	-39.41	0.3749	0.0783	-0.2424	
-0.981612	-0.24766	0.066246	4.55	-2.38	-39.97	0.3881	0.07889999	-0.2545	
-0.989908	-0.26352	0.082106	10.43	-4.2	-40.04	0.3749	0.0795	-0.2545	
-0.992836	-0.289018	0.086986	15.05	-3.71	-40.95	0.3715	0.0888	-0.2542	
-0.990396	-0.309148	0.086376	12.25	-5.95	-40.39	0.3725	0.0994	-0.2539	
-0.971486	-0.31842	0.096014	15.05	-7	-41.93	0.3785	0.096	-0.257	
-0.989786	-0.290238	0.11163	15.26	-6.16	-41.86	0.3622	0.1013	-0.2584	
-0.966118	-0.323544	0.09028	18.34	-8.12	-41.3	0.3632	0.1119	-0.2581	
-0.954406	-0.33489	0.09747799	16.73	-5.88	-41.72	0.3589	0.1088	-0.2642	
-0.946598	-0.33611	0.096014	13.02	-8.05	-42.56	0.3602	0.1133	-0.2641	
-0.945744	-0.35258	0.113582	18.55	-9.38	-42.7	0.3526	0.1183	-0.2625	
-0.925248	-0.346846	0.147742	17.43	-9.03	-43.82	0.3493	0.1272	-0.2758	
-0.91927	-0.360266	0.162016	22.19	-15.4	-43.33	0.3464	0.1259	-0.2713	
-0.927688	-0.365268	0.140788	20.44	-19.32	-42.56	0.3314	0.1342	-0.2727	
-0.923418	-0.392962	0.125538	17.29	-21.28	-42	0.3356	0.1383	-0.2801	
-0.923418	-0.396744	0.112606	16.38	-20.58	-42.35	0.3368	0.1429	-0.2769	
-0.913048	-0.413458	0.14213	20.79	-18.41	-43.12	0.3341	0.1385	-0.2771	
-0.921222	-0.428952	0.146278	18.27	-18.97	-41.09	0.3296	0.1416	-0.28	
-0.910608	-0.428342	0.137006	10.99	-23.52	-36.82	0.3234	0.1474	-0.3011	
-0.88328	-0.43493	0.158722	7.77	-21.42	-34.93	0.3174	0.1509	-0.2949	
-0.873276	-0.448594	0.17446	7.56	-20.02	-33.81	0.3159	0.1509	-0.2949	
-0.870348	-0.452498	0.184708	4.69	-20.72	-32.2	0.308	0.1632	-0.3021	
-0.863516	-0.472628	0.194346	1.4	-23.31	-31.29	0.2962	0.1655	-0.296	
-0.864004	-0.5063	0.204106	-1.19	-22.4	-29.75	0.2936	0.1578	-0.3023	
-0.850706	-0.516426	0.214842	-1.82	-20.86	-29.4	0.2904	0.164	-0.3021	
-0.841434	-0.529846	0.222284	-3.78	-23.59	-28.28	0.2902	0.1686	-0.302	
-0.82655	-0.542046	0.227164	-3.99	-25.27	-27.3	0.2825	0.1762	-0.3139	
-0.80581	-0.560956	0.23424	-3.71	-25.62	-26.32	0.2724	0.1737	-0.311	
-0.789706	-0.578768	0.245464	-0.56	-23.31	-25.13	0.2701	0.1905	-0.3135	
-0.784216	-0.5795	0.252906	2.03	-22.96	-23.73	0.2677	0.1801	-0.3063	
-0.7869	-0.58987	0.252784	2.52	-22.82	-21.77	0.2703	0.1858	-0.3167	
-0.775554	-0.596458	0.249002	3.85	-20.51	-20.09	0.2582	0.1955	-0.3164	
-0.767868	-0.58743	0.295606	5.25	-23.52	-17.5	0.2542	0.1862	-0.3288	
-0.761646	-0.61976	0.285846	5.25	-19.6	-16.73	0.248	0.1927	-0.3241	
-0.740784	-0.634156	0.299632	3.71	-22.19	-14.28	0.2497	0.188	-0.3242	
-0.730292	-0.632936	0.285236	5.32	-21.21	-13.58	0.2453	0.1881	-0.3303	
-0.715164	-0.627934	0.292068	7.63	-18.9	-12.39	0.2437	0.1896	-0.3333	
-0.70821	-0.629764	0.310734	8.61	-16.8	-11.41	0.2274	0.1949	-0.3317	
-0.70699	-0.63135	0.316956	7.84	-16.03	-10.85	0.2362	0.1946	-0.3286	
-0.704062	-0.639158	0.332572	7.35	-15.61	-9.94	0.2244	0.1965	-0.3346	
-0.694424	-0.627568	0.33977	8.12	-14.7	-9.03	0.2344	0.202	-0.3375	
-0.706136	-0.617442	0.34648	8.26	-13.72	-7.14	0.2264	0.1841	-0.338	
-0.706136	-0.626348	0.355752	7.84	-13.3	-6.3	0.2232	0.1887	-0.344	
-0.709064	-0.608658	0.350872	7.77	-12.67	-5.53	0.2183	0.2014	-0.333	
-0.706258	-0.602314	0.366976	7	-11.62	-4.69	0.22	0.1964	-0.3453	
-0.707112	-0.608658	0.381982	6.51	-10.5	-3.92	0.2084	0.1923	-0.3454	
-0.706624	-0.609634	0.380152	6.72	-9.1	-2.66	0.2147	0.1829	-0.3472	
-0.705892	-0.604388	0.385154	6.65	-7.56	-0.63	0.2231	0.1916	-0.3469	
-0.70882	-0.60146	0.39284	6.93	-5.67	1.61	0.2157	0.1918	-0.353	
-0.704184	-0.592798	0.40077	6.37	-3.99	3.85	0.2159	0.1873	-0.3486	
-0.698816	-0.597556	0.399184	4.97	-2.87	5.67	0.2087	0.1844	-0.3547	
-0.695766	-0.591212	0.397842	3.85	-1.05	7.56	0.2157	0.1917	-0.356	
-0.69357	-0.59719	0.405284	2.73	0.84	9.66	0.2175	0.1843	-0.3471	
-0.68564	-0.594872	0.403942	1.05	2.59	11.69	0.2175	0.1857	-0.3501	
-0.686006	-0.591456	0.40382	0.14	4.48	13.3	0.2134	0.1779	-0.3625	
-0.693326	-0.582672	0.41053	-0.98	7.21	14.7	0.2147	0.1828	-0.3502	
-0.69601	-0.581452	0.396134	-3.22	8.61	16.59	0.2236	0.1809	-0.3502	
-0.695034	-0.598044	0.391742	-4.62	10.92	17.99	0.2266	0.1778	-0.3473	
-0.699182	-0.594994	0.378566	-6.3	12.88	19.11	0.2303	0.1946	-0.3392	
-0.703086	-0.596458	0.383324	-6.65	15.4	20.72	0.234	0.176	-0.3443	
-0.718092	-0.590968	0.370636	-7.49	18.34	23.17	0.2357	0.1728	-0.3459	
-0.72102	-0.590114	0.3538	-6.93	19.95	24.78	0.2443	0.1755	-0.3458	
-0.736514	-0.579866	0.348676	-6.16	22.19	26.74	0.24	0.1744	-0.3368	
-0.744932	-0.562542	0.327326	-6.23	23.73	28.77	0.2419	0.1653	-0.3325	
-0.758474	-0.55205	0.321592	-5.67	25.13	31.22	0.2447	0.1681	-0.3385	
-0.771284	-0.536312	0.31842	-5.53	26.04	33.11	0.2522	0.1649	-0.3325	
-0.783362	-0.528748	0.310246	-5.88	26.25	34.51	0.2637	0.169	-0.3308	
-0.794464	-0.522282	0.298412	-5.46	26.18	36.33	0.2697	0.1658	-0.3264	
-0.81557	-0.496784	0.27816	-9.52	27.93	37.8	0.2714	0.1613	-0.3204	
-0.81679	-0.488122	0.258152	-4.27	24.92	38.64	0.2689	0.1509	-0.3162	
-0.84058	-0.484828	0.290726	-5.04	25.83	40.32	0.2774	0.158	-0.319	
-0.85522	-0.468114	0.25132	-7.98	25.9	42.07	0.2983	0.1498	-0.3101	
-0.878278	-0.456768	0.231434	-5.88	25.62	43.54	0.297	0.1469	-0.3072	
-0.88267	-0.431636	0.254248	-12.39	29.05	46.13	0.2928	0.1424	-0.3103	
-0.898164	-0.417972	0.167384	-9.38	25.9	44.66	0.315	0.1385	-0.3059	
-0.911218	-0.410042	0.183976	-5.81	27.16	46.83	0.3181	0.134	-0.2969	
-0.919514	-0.386984	0.18056	-7.42	26.81	48.72	0.3201	0.1234	-0.2927	
-0.919514	-0.357948	0.16104	-3.57	27.02	50.19	0.3197	0.1312	-0.2879	
-0.921954	-0.33733	0.147376	-1.82	25.55	51.1	0.3276	0.1185	-0.2943	
-0.934886	-0.315858	0.131272	-2.87	24.78	51.52	0.3429	0.1059	-0.2871	
-0.95648	-0.29158	0.125782	-4.9	24.01	52.22	0.3443	0.1072	-0.2916	
-0.95892	-0.2806	0.120414	-8.82	24.85	53.9	0.3459	0.1044	-0.2811	
-0.983076	-0.270718	0.11895	-15.54	24.15	53.76	0.3463	0.0954	-0.2768	
-1.012356	-0.24766	0.140056	-14.28	22.47	54.46	0.3538	0.0906	-0.2708	
-1.004792	-0.230702	0.122244	-9.87	24.29	54.53	0.3657	0.087	-0.274	
-1.009672	-0.206668	0.119804	-7.42	20.93	54.81	0.3721	0.0747	-0.2667	
-1.002596	-0.18056	0.131394	-0.28	20.02	55.44	0.3767	0.0699	-0.2669	
-0.988566	-0.153598	0.11956	9.66	14.63	56.77	0.3817	0.0562	-0.2627	
-0.985882	-0.142252	0.083814	8.33	15.33	55.65	0.3864	0.0498	-0.2659	
-0.986736	-0.116876	0.062098	1.26	16.38	55.09	0.3852	0.0452	-0.2676	
-1.021994	-0.084546	0.072956	-6.44	18.76	53.83	0.3926	0.0421	-0.2586	
-1.038464	-0.070638	0.07442	-11.13	18.27	52.92	0.3942	0.0391	-0.2556	
-1.026386	-0.035136	0.071736	-13.3	14.14	51.1	0.3874	0.0288	-0.2544	
-1.027484	-0.038064	0.073688	-11.2	10.22	50.26	0.3834	0.0185	-0.2502	
-1.021872	-0.02623	0.063562	-10.64	9.87	47.88	0.3936	0.0194	-0.2532	
-1.02968	-0.030256	0.050874	-8.19	10.71	42.77	0.4062	0.0009999999	-0.2385	
-1.019554	-0.019398	0.044408	-8.33	9.94	39.06	0.4038	-0.0109	-0.2374	
-1.013942	-0.006954	0.036966	-7.14	9.03	35	0.3919	-0.0075	-0.2449	
-1.018578	0.006954	0.032574	-6.37	8.82	31.43	0.3984	-0.0212	-0.2346	
-1.021628	0.024644	0.030988	-4.06	8.54	28.14	0.4027	-0.02	-0.2391	
-1.014796	0.02318	0.021838	-2.66	8.96	25.2	0.3995	-0.0135	-0.2314	
-1.023458	0.044286	0.029402	-2.73	9.45	21.77	0.3983	-0.0182	-0.2376	
-1.023336	0.055754	0.031232	-1.54	9.38	19.11	0.4047	-0.0307	-0.2379	
-1.026508	0.061	0.02806	-0.98	9.38	16.45	0.4019	-0.0336	-0.2395	
-1.022482	0.064782	0.029158	-1.05	7.21	14.49	0.3929	-0.0286	-0.2379	
-1.025288	0.079178	0.027816	-1.19	5.67	12.74	0.4044	-0.0247	-0.2423	
-1.036146	0.07869	0.034282	-2.66	4.69	11.76	0.4096	-0.0414	-0.2337	
-1.026386	0.07869	0.030012	-4.9	4.34	10.78	0.4239	-0.0346	-0.2395	
-1.020896	0.078812	0.024156	-6.02	2.8	10.01	0.4124	-0.0383	-0.2275	
-1.022848	0.074298	0.029768	-7.56	1.68	9.24	0.418	-0.033	-0.244	
-1.01809	0.061976	0.024888	-8.4	1.89	8.33	0.408	-0.0381	-0.2275	
-1.01626	0.058804	0.022082	-9.38	1.47	7.14	0.4227	-0.039	-0.2336	
-1.008086	0.056852	0.018788	-8.89	1.82	6.02	0.405	-0.0382	-0.2351	
-0.999668	0.054412	0.023424	-6.09	2.24	4.2	0.4138	-0.037	-0.232	
-1.012356	0.049532	0.033306	-4.34	2.17	2.94	0.408	-0.038	-0.2245	
-1.018456	0.04575	0.023302	-2.66	2.17	1.68	0.4076	-0.0307	-0.2349	
-1.026874	0.047702	0.020252	-0.91	1.61	0.49	0.4184	-0.0414	-0.2185	
-1.03517	0.055632	0.018544	0.35	1.4	-0.56	0.4137	-0.0354	-0.229	
-1.027362	0.058194	0.010004	1.96	1.96	-0.98	0.414	-0.0416	-0.2322	
-1.024922	0.063196	0.010736	2.31	1.47	-1.19	0.4092	-0.0326	-0.244	
-1.021994	0.07124799	0.015006	-0.14	1.05	-1.19	0.4084	-0.0474	-0.2308	
-1.01626	0.067588	0.014762	-0.21	-0.35	-1.19	0.4152	-0.0355	-0.2305	
-1.02297	0.065148	0.011224	-0.07	-1.05	-1.26	0.4106	-0.0308	-0.2319	
-1.017846	0.060512	0.009028	-0.77	-1.4	-1.12	0.4154	-0.0413	-0.2201	
-1.0187	0.05734	0.015494	-1.61	-1.82	-1.05	0.4108	-0.0367	-0.2275	
-1.016992	0.05612	0.016836	-1.4	-1.89	-1.54	0.4183	-0.0404	-0.2367	
-1.017846	0.060024	0.015372	0	-2.52	-2.03	0.4136	-0.0339	-0.2304	
-1.023092	0.055998	0.011712	0.77	-2.24	-2.17	0.4195	-0.0326	-0.2274	
-1.020774	0.053314	0.01159	0.91	-1.96	-2.31	0.4108	-0.0354	-0.2335	
-1.020042	0.049166	0.019642	0.56	-1.68	-2.38	0.4182	-0.0373	-0.2336	
-1.017968	0.047946	0.028426	0.42	-2.17	-2.31	0.4125	-0.0416	-0.2352	
-1.017968	0.04758	0.02989	0.49	-2.87	-2.52	0.4195	-0.0326	-0.2274	
-1.014674	0.045872	0.027572	0.42	-2.8	-2.45	0.4074	-0.0247	-0.2362	
-1.013332	0.044042	0.036722	0.14	-2.59	-2.38	0.4063	-0.0355	-0.2441	
-1.012722	0.04575	0.037942	0.21	-3.08	-2.38	0.4078	-0.035	-0.2229	
-1.018578	0.043676	0.037698	0.7	-3.64	-2.24	0.4196	-0.0356	-0.2275	
-1.01687	0.044042	0.031964	0.14	-3.85	-2.24	0.4049	-0.0367	-0.2366	
-1.011258	0.042822	0.033306	0	-3.57	-2.17	0.409	-0.0295	-0.2409	
-1.008818	0.042578	0.043188	0.28	-3.15	-2.03	0.4047	-0.0321	-0.2334	
-1.00833	0.040504	0.04514	0.7	-3.01	-1.96	0.4075	-0.0277	-0.2363	
-1.011014	0.042822	0.04331	1.26	-2.8	-1.96	0.4078	-0.0353	-0.235	
-1.009428	0.043798	0.043554	1.54	-2.59	-1.82	0.4103	-0.0249	-0.2408	
-1.00772	0.041602	0.042822	1.4	-2.52	-1.61	0.4179	-0.031	-0.2288	
-1.009184	0.04392	0.045628	1.47	-2.38	-1.4	0.4102	-0.0234	-0.2407	
-1.009916	0.044408	0.04453	1.19	-2.17	-1.33	0.4062	-0.0321	-0.2304	
-1.013088	0.041968	0.05002	0.7	-2.17	-1.33	0.4046	-0.0292	-0.2394	
-1.011624	0.040382	0.049654	1.26	-3.15	-1.47	0.4076	-0.0307	-0.2334	
-1.009916	0.044408	0.047336	0.35	-1.61	-1.54	0.409	-0.0279	-0.2409	
-1.006866	0.043432	0.047092	1.19	-1.4	-1.4	0.4164	-0.0298	-0.2424	
-1.005768	0.036966	0.043798	2.87	0.14	-1.82	0.4077	-0.0324	-0.241	
-1.009794	0.040016	0.04392	3.29	0.84	-3.01	0.4106	-0.0312	-0.247	
-1.007598	0.053192	0.049288	5.04	0.49	-4.48	0.4078	-0.0337	-0.232	
-1.00101	0.056242	0.043432	6.51	0.84	-6.44	0.409	-0.0293	-0.2364	
-1.001986	0.066612	0.042212	5.53	0.7	-8.47	0.4062	-0.0306	-0.2334	
-0.993934	0.08686399	0.054168	1.26	2.73	-9.87	0.4075	-0.0279	-0.2439	
-0.999058	0.098088	0.061976	-1.89	4.76	-11.83	0.4045	-0.028	-0.25	
-1.005524	0.117608	0.073688	-5.46	5.81	-13.51	0.4054	-0.0139	-0.2359	
-1.007476	0.116998	0.066978	-13.3	8.54	-15.47	0.4087	-0.0217	-0.2346	
-1.032608	0.110776	0.031842	-15.96	7.14	-16.52	0.4101	-0.0202	-0.2331	
-1.023458	0.150182	0.020252	-29.12	5.32	-16.31	0.4084	-0.014	-0.2344	
-1.031388	0.019276	0.05002	-27.09	0.84	-14.21	0.4096	-0.009699999	-0.2403	
-1.01077	0.103944	-0.00183	-38.36	11.69	-17.85	0.4065	-0.0048	-0.2326	
-1.039928	0.074664	-0.004392	-25.55	10.71	-13.3	0.409	0.0059	-0.2247	
-1.034316	-0.078812	-0.01342	-24.92	5.18	-8.4	0.4107	-0.0003	-0.228	
-1.048224	-0.060634	-0.091378	-57.12	11.48	-18.76	0.4074	0.0072	-0.2323	
-1.054812	0.020862	-0.004514	-54.18	7.07	-26.39	0.4101	0.0131	-0.2351	
-1.0431	-0.018056	-0.110044	-44.59	1.19	-28.84	0.4005	0.0306	-0.2225	
-1.031632	-0.023912	-0.05124	-46.62	2.59	-31.29	0.4109	0.0285	-0.2286	
-1.028948	-0.002074	-0.054046	-49.28	5.11	-31.78	0.4074	0.0422	-0.2313	
-0.99247	-0.05002	-0.021472	-42.77	-0.98	-24.57	0.4157	0.0526	-0.2264	
-1.017114	-0.121756	-0.013908	-49.77	1.61	-22.54	0.4124	0.0606	-0.2201	
-0.995764	-0.14823	-0.048678	-58.24	1.82	-21.98	0.4036	0.061	-0.2186	
-0.96441	-0.098088	-0.013664	-72.52	1.4	-19.39	0.402	0.0659	-0.2109	
-0.984174	-0.146034	-0.061122	-61.74	-1.12	-12.88	0.4102	0.079	-0.2166	
-0.997472	-0.198494	-0.015616	-73.99	9.73	-9.52	0.4098	0.0869	-0.2088	
-0.987834	-0.232288	0.007442	-63.35	5.88	-8.75	0.4038	0.09	-0.2147	
-1.006134	-0.16043	0.027938	-58.45	7	-9.94	0.4064	0.0977	-0.2085	
-0.99369	-0.17568	-0.02806	-56.77	2.59	-8.19	0.3947	0.0983	-0.2039	
-1.003816	-0.135054	-0.03111	-53.69	2.31	-7.28	0.4065	0.0964	-0.1994	
-1.007598	-0.111508	-0.038796	-51.03	5.81	-8.4	0.4106	0.104	-0.1931	
-0.962824	-0.15982	-0.074298	-55.3	8.82	-4.9	0.4002	0.1075	-0.1945	
-1.01504	-0.18422	-0.005978	-38.22	7.28	-7.14	0.4013	0.1151	-0.1913	
-1.013088	-0.111508	0.00427	-43.19	6.51	-8.68	0.4072	0.1132	-0.1944	
-1.00955	-0.107726	-0.015494	-45.99	-1.33	-8.12	0.4014	0.1137	-0.1868	
-1.013332	-0.10126	-0.040992	-47.95	1.05	-7.42	0.41	0.1179	-0.1851	
-1.015406	-0.105774	-0.04941	-43.54	-0.49	-8.4	0.4066	0.1274	-0.1773	
-1.027362	-0.100284	-0.040748	-45.29	-1.61	-8.4	0.4004	0.1369	-0.174	
-1.041148	-0.123342	-0.03721	-44.87	-0.63	-8.82	0.397	0.1461	-0.1768	
-1.02114	-0.114558	-0.052704	-45.64	-0.7	-9.1	0.3988	0.1403	-0.1663	
-1.011014	-0.139812	-0.042578	-39.69	-1.12	-10.22	0.4002	0.1402	-0.1663	
-1.014674	-0.137128	-0.033428	-38.36	-2.17	-12.11	0.391	0.1498	-0.1646	
-1.004548	-0.137616	-0.083814	-36.05	-3.08	-12.32	0.3951	0.1574	-0.1583	
-0.988688	-0.15982	-0.058316	-33.67	-3.5	-10.57	0.3919	0.1637	-0.1566	
-0.99186	-0.186416	-0.038552	-30.73	-1.33	-9.52	0.3934	0.162	-0.1581	
-0.983686	-0.22936	-0.008052	-27.09	0.21	-8.19	0.3977	0.1648	-0.1596	
-0.975146	-0.243268	0.005734	-23.45	-1.26	-8.26	0.3963	0.1634	-0.1596	
-0.974902	-0.226676	-0.00671	-19.39	-0.7	-8.96	0.4002	0.1756	-0.1502	
-0.982832	-0.233752	-0.00183	-13.37	-3.22	-9.17	0.3948	0.1651	-0.155	
-0.980148	-0.225822	-0.013176	-11.69	-1.82	-9.94	0.3914	0.1743	-0.1578	
-0.983564	-0.223016	-0.038674	-9.45	-1.12	-9.8	0.39	0.1746	-0.1502	
-0.99186	-0.200202	-0.043798	-5.6	0.77	-10.5	0.3942	0.1771	-0.1607	
-0.998448	-0.22021	-0.040626	-2.73	0.77	-10.43	0.3868	0.1808	-0.1515	
-0.99735	-0.222162	-0.030744	-0.56	1.12	-10.01	0.3823	0.1823	-0.1576	
-0.98149	-0.202032	-0.034892	1.47	1.82	-8.68	0.3928	0.1775	-0.1501	
-0.973316	-0.19825	-0.047824	2.45	1.19	-7.63	0.3952	0.1879	-0.1559	
-0.988566	-0.202642	-0.027084	0.63	3.08	-6.65	0.3839	0.1792	-0.1561	
-0.998448	-0.210572	-0.033306	0.21	1.96	-5.74	0.3991	0.1666	-0.1504	
-0.99308	-0.228018	-0.046848	-0.63	2.31	-5.11	0.3893	0.1897	-0.1543	
-0.990274	-0.216794	-0.032696	0.35	2.24	-4.62	0.3893	0.1895	-0.1604	
-0.98393	-0.207034	-0.053802	-1.75	1.96	-3.64	0.3881	0.1835	-0.159	
-0.978562	-0.225944	-0.059414	-1.68	2.03	-3.64	0.3831	0.1977	-0.1511	
-0.99186	-0.208254	-0.05368	-1.75	3.71	-3.71	0.3831	0.1961	-0.1511	
-0.9882	-0.216794	-0.066734	0.49	2.94	-2.52	0.3819	0.1918	-0.1467	
-0.98515	-0.218868	-0.046238	2.38	4.41	-2.45	0.3852	0.1824	-0.15	
-0.986004	-0.22143	-0.057218	2.38	3.29	-1.68	0.3862	0.1946	-0.1481	
-0.990152	-0.225578	-0.062098	1.61	4.13	-1.19	0.3904	0.1972	-0.1556	
-0.994178	-0.21655	-0.06039	2.52	4.06	-0.35	0.3905	0.1959	-0.1481	
-1.000034	-0.219112	-0.061488	2.94	4.41	0.07	0.3821	0.1858	-0.1408	
-0.99369	-0.222772	-0.056852	3.64	4.62	0.49	0.391	0.1835	-0.1545	
-1.000034	-0.20496	-0.060878	4.41	4.69	0.91	0.3912	0.1794	-0.1395	
-1.004304	-0.18727	-0.076494	5.39	4.41	2.03	0.3834	0.19	-0.1528	
-0.994422	-0.179706	-0.091378	5.53	3.22	2.73	0.3882	0.1809	-0.144	
-0.99613	-0.201056	-0.081984	3.85	4.41	3.01	0.3905	0.1962	-0.139	
-0.99613	-0.188734	-0.085644	2.52	3.71	2.1	0.3909	0.1867	-0.1499	
-1.002352	-0.205082	-0.075762	1.4	2.66	2.1	0.3903	0.2007	-0.1404	
-0.995154	-0.207278	-0.079544	1.05	2.45	2.17	0.3823	0.1812	-0.144	
-0.99857	-0.207888	-0.07381	1.75	2.03	2.59	0.3851	0.1857	-0.1423	
-0.98576	-0.219844	-0.06588	2.59	1.82	3.15	0.3837	0.1827	-0.1424	
-0.986492	-0.24461	-0.05368	7.42	-0.07	4.06	0.3958	0.1745	-0.1426	
-0.975146	-0.244732	-0.040138	8.89	3.43	4.97	0.3868	0.1793	-0.1501	
-0.9882	-0.25315	-0.044286	14.7	0.77	6.86	0.3952	0.1881	-0.1468	
-0.981734	-0.258396	-0.056364	15.96	1.12	8.47	0.3882	0.1824	-0.1439	
-0.98332	-0.244854	-0.083814	17.29	0.42	10.71	0.3902	0.1697	-0.1594	
-0.992226	-0.259616	-0.08418	18.41	-0.7	9.31	0.3926	0.1822	-0.1454	
-0.976488	-0.22936	-0.094794	19.88	0.98	11.62	0.3944	0.1729	-0.1487	
-0.982954	-0.219966	-0.099308	23.45	1.26	13.3	0.393	0.1731	-0.1457	
-0.978074	-0.202154	-0.09821	26.32	0.07	13.72	0.3952	0.1559	-0.1583	
-0.969168	-0.188124	-0.091866	27.37	3.99	14.63	0.3948	0.1637	-0.1505	
-0.992104	-0.177144	-0.066612	32.97	4.55	16.66	0.3993	0.1619	-0.1551	
-0.966362	-0.18483	-0.069296	34.86	10.99	21.28	0.3962	0.1649	-0.1611	
-0.989176	-0.170556	-0.05551	28.77	2.94	20.65	0.4043	0.1478	-0.1585	
-0.98454	-0.177022	-0.045872	31.29	4.34	23.45	0.4059	0.1463	-0.1571	
-0.987224	-0.16897	-0.061122	36.68	1.68	26.04	0.4058	0.1476	-0.1631	
-1.017602	-0.190686	-0.098088	44.73	-0.91	26.95	0.4051	0.1294	-0.1636	
-1.022238	-0.187636	-0.085644	50.96	1.75	27.44	0.4055	0.1201	-0.1699	
-1.014064	-0.163968	-0.064782	49.91	1.61	27.23	0.4029	0.1125	-0.1732	
-1.022604	-0.139446	-0.061366	49.07	-2.66	27.02	0.4188	0.118	-0.1685	
-1.026386	-0.143716	-0.09467199	49.56	-8.26	28.7	0.4093	0.0999	-0.1796	
-1.08031	-0.130906	-0.14335	38.99	4.62	25.69	0.4167	0.0997	-0.1751	
-1.054568	-0.062708	-0.056974	46.69	2.24	28.28	0.4125	0.0951	-0.1813	
-1.021628	-0.116144	-0.048678	52.99	1.47	28.7	0.4129	0.0849	-0.1679	
-1.022604	-0.085034	-0.069906	57.05	0.63	26.67	0.4193	0.0737	-0.1773	
-1.028216	-0.105164	-0.066124	66.64	-5.25	25.2	0.4148	0.0749	-0.1924	
-1.014308	-0.02806	-0.037698	65.24	-8.47	25.06	0.4151	0.0691	-0.1835	
-1.03029	-0.102968	0.018422	93.94	-6.93	31.22	0.4231	0.0519	-0.1885	
-1.009428	0.006344	-0.04758	68.81	-14.28	27.09	0.4113	0.0537	-0.1961	
-1.017236	-0.172508	-0.112484	82.46	-20.16	27.09	0.4151	0.0353	-0.1981	
-1.016748	-0.094306	-0.152378	50.19	-15.26	21.77	0.4238	0.0363	-0.1996	
-1.027606	0.04148	-0.064782	64.47	-19.53	21.28	0.423	0.0209	-0.2076	
-1.006012	0.028548	-0.08479	48.44	-11.9	21.77	0.4114	0.0173	-0.1956	
-1.05713	0.033184	-0.038552	78.89	-15.4	22.61	0.4207	0.0057	-0.2111	
-1.008452	0.11834	-0.076616	52.71	-8.61	15.89	0.4177	0.0087	-0.2186	
-0.995032	0.242414	-0.18727	76.79	-14.84	15.54	0.4239	-0.0008	-0.2264	
-1.058838	0.15677	-0.08723	74.27	-18.97	16.87	0.4261	-0.016	-0.2238	
-1.021384	0.14274	-0.08235	67.97	-12.39	14.14	0.4078	-0.0336	-0.2274	
-0.971852	0.29036	0.004148	61.25	2.66	11.76	0.4224	-0.0325	-0.2198	
-1.014796	0.226676	0.127124	42.98	4.13	15.26	0.4197	-0.0387	-0.2291	
-1.002352	0.120048	0.110654	33.32	-1.19	13.72	0.4201	-0.0478	-0.2278	
-0.99552	0.064172	0.053802	24.85	-6.93	10.08	0.4071	-0.0518	-0.2295	
-1.00833	0.039894	0.033184	24.85	-13.79	5.81	0.4143	-0.0489	-0.2218	
-1.010648	0.094062	-0.003416	21.63	-11.41	1.19	0.4187	-0.0493	-0.2279	
-1.000644	0.096746	-0.021472	13.86	-11.34	-0.28	0.416	-0.0551	-0.225	
-1.023946	0.127002	-0.015494	8.19	-10.01	-0.7	0.4129	-0.0507	-0.2355	
-1.01992	0.109556	0.026352	4.13	-6.23	-0.84	0.407	-0.0488	-0.2294	
-1.023702	0.09942999	0.046116	4.27	-5.95	-1.33	0.4056	-0.0501	-0.2249	
-1.004792	0.06344	0.010126	3.64	-6.79	-2.17	0.4158	-0.0505	-0.2218	
-1.02175	0.049044	-0.00549	6.65	-3.5	-2.03	0.4156	-0.0463	-0.2338	
-1.021384	0.033306	-0.012444	2.8	-3.36	0	0.407	-0.0503	-0.2279	
-1.007232	0.01952	-0.023424	1.54	-0.35	1.89	0.4084	-0.0472	-0.2263	
-1.00101	0.013054	-0.00366	0.21	0.91	2.59	0.4144	-0.0508	-0.234	
-1.0004	0.010492	0.017202	2.52	0.07	3.22	0.4158	-0.0509	-0.2355	
-1.015162	-0.004392	0.023912	7.49	-1.47	2.87	0.4134	-0.0613	-0.2312	
-1.034682	0.005978	0.008905999	9.73	-1.47	2.73	0.4145	-0.0538	-0.2341	
-1.05896	-0.007198	-0.001708	13.72	-1.82	4.9	0.4055	-0.0504	-0.2355	
-1.066768	-0.02013	-0.006832	20.37	-2.24	7.56	0.4071	-0.0517	-0.2249	
-1.054812	-0.054656	-0.016592	28.21	-2.87	8.96	0.4029	-0.0563	-0.2326	
-1.030778	-0.04819	-0.018544	32.9	-3.5	8.54	0.4119	-0.0612	-0.2312	
-1.027606	-0.005246	-0.005734	38.08	-5.04	8.12	0.4166	-0.0673	-0.2254	
-1.020774	0.022814	0.021594	42.98	-7.14	8.89	0.4051	-0.07319999	-0.2346	
-1.007354	0.011956	0.011346	48.86	-6.65	9.8	0.4027	-0.085	-0.2289	
-0.998204	0.008662	0.055876	48.16	-11.27	10.99	0.405	-0.0699	-0.2285	
-0.995032	0	0.03599	57.05	-16.03	8.96	0.4053	-0.0777	-0.2332	
-1.00894	-0.007442	0.022936	61.67	-12.6	5.95	0.4033	-0.0992	-0.246	
-0.990396	0.04636	-0.010858	66.78	-7.63	2.31	0.4063	-0.1024	-0.2446	
-1.008574	0.061366	0.00244	69.72	-8.89	1.4	0.4034	-0.1018	-0.2294	
-1.0004	0.068808	0.016348	70.07	-9.24	0.21	0.4038	-0.1111	-0.2342	
-1.001376	0.067222	0.015006	72.17	-7.84	-0.63	0.4072	-0.1205	-0.239	
-1.018944	0.038064	0.00915	77.35	-8.12	-0.07	0.407	-0.1172	-0.2299	
-1.03334	0.049532	0.002074	83.44	-7.49	-0.98	0.4016	-0.1274	-0.2241	
-1.03334	0.091744	0.008662	83.79	-8.12	-1.26	0.4046	-0.1275	-0.2241	
-1.02297	0.112972	0.003294	81.97	-9.17	0.35	0.4007	-0.1409	-0.22	
-1.025044	0.151158	-0.012688	77.49	-9.87	1.47	0.4023	-0.1427	-0.2245	
-1.040416	0.184342	-0.002684	77.35	-11.13	3.22	0.401	-0.1454	-0.2171	
-1.017602	0.197152	0.009393999	69.51	-8.75	5.39	0.3993	-0.1423	-0.2185	
-1.000034	0.181902	0.043432	60.2	-7.07	5.95	0.3999	-0.1544	-0.2128	
-0.993446	0.147864	0.061366	53.69	-11.9	6.65	0.4003	-0.1636	-0.2176	
-0.997838	0.122122	0.050508	50.26	-7	5.18	0.4023	-0.1758	-0.2149	
-0.99491	0.143594	0.02989	45.36	-1.68	3.43	0.3978	-0.1723	-0.2057	
-0.991372	0.1769	0.034404	41.16	-8.4	2.38	0.4006	-0.171	-0.2102	
-1.047858	0.041968	0.007686	41.72	-4.9	-1.33	0.4024	-0.1772	-0.2089	
-1.01138	0.261812	0.050142	35.28	0.77	-3.22	0.3981	-0.1818	-0.2196	
-1.002474	0.174582	0.07515199	26.25	-0.07	1.05	0.4039	-0.1787	-0.2074	
-1.003694	0.160186	0.05002	23.73	-1.4	1.47	0.3968	-0.1844	-0.2061	
-1.017236	0.123464	0.063074	18.83	-2.73	2.24	0.3969	-0.1857	-0.197	
-0.996252	0.11102	0.051484	12.18	0.91	3.08	0.3959	-0.1964	-0.2004	
-0.989054	0.093696	0.072468	7.28	-2.52	4.55	0.3969	-0.1858	-0.2016	
-1.002352	0.085766	0.05551	7.84	-2.45	3.22	0.4056	-0.1845	-0.1955	
-1.005402	0.095282	0.038674	7.49	-4.55	2.8	0.4013	-0.186	-0.2001	
-1.011014	0.111264	0.054656	10.85	-4.76	2.03	0.4048	-0.1996	-0.1929	
-0.998326	0.130418	0.064416	13.02	-3.08	1.4	0.3912	-0.19	-0.1987	
-0.991494	0.129686	0.066612	15.19	-1.82	1.54	0.3988	-0.1965	-0.1989	
-1.001376	0.12993	0.066246	17.01	-1.33	0.63	0.3911	-0.1885	-0.2002	
-1.061034	0.197152	0.05795	2.8	-1.96	1.19	0.3988	-0.1948	-0.1958	
-0.949892	0.046604	0.083936	10.01	6.86	5.74	0.4	-0.189	-0.2032	
-1.00101	0.142862	0.067954	9.03	-0.56	3.71	0.396	-0.1993	-0.1959	
-0.99491	0.14884	0.068076	8.12	-1.26	4.55	0.3916	-0.199	-0.1929	
-0.968436	0.137616	0.060146	6.79	-2.24	5.88	0.3931	-0.2007	-0.1975	
-0.983076	0.160552	0.029646	8.89	0.28	5.53	0.4112	-0.2106	-0.1947	
-0.970266	0.15006	0.066124	12.18	3.01	5.53	0.3948	-0.2054	-0.1976	
-0.993202	0.163602	0.051606	10.01	2.17	5.32	0.3993	-0.207	-0.1961	
-1.004182	0.156404	0.044408	9.38	1.96	5.6	0.4082	-0.2105	-0.1962	
-1.01687	0.162626	0.044652	6.86	1.89	5.81	0.4021	-0.2039	-0.187	
-1.009062	0.160674	0.048678	4.62	1.68	5.88	0.408	-0.2059	-0.1961	
-0.997228	0.129076	0.033672	3.08	1.61	5.6	0.3872	-0.1987	-0.1883	
-1.002108	0.144814	0.02013	0	1.61	4.69	0.3994	-0.2101	-0.1977	
-0.987468	0.174216	0.053558	0.21	3.22	4.34	0.4038	-0.2084	-0.1825	
-0.97722	0.190198	0.050142	-0.35	3.29	3.85	0.3934	-0.2065	-0.187	
-1.002352	0.17446	0.038552	-1.05	3.22	3.57	0.3949	-0.2065	-0.184	
-1.014064	0.150914	0.03721	-2.66	2.87	3.71	0.3923	-0.2138	-0.1797	
-0.998448	0.172142	0.04148	-4.2	3.22	2.52	0.3964	-0.2068	-0.1916	
-1.005524	0.177998	0.052948	-7.91	2.45	2.38	0.4026	-0.216	-0.1858	
-1.001376	0.170068	0.022692	-6.16	2.17	1.47	0.3936	-0.2113	-0.1932	
-1.0126	0.161406	0.021106	-8.89	2.24	1.33	0.3952	-0.2142	-0.1873	
-1.007232	0.166408	0.015616	-10.78	1.26	1.12	0.3995	-0.2113	-0.1872	
-0.99125	0.190076	0.022082	-11.48	1.47	1.12	0.3984	-0.219	-0.1904	
-1.006622	0.184464	0.026596	-13.44	1.61	1.33	0.4028	-0.2192	-0.1904	
-1.012478	0.162382	0.030134	-14.07	0.91	1.75	0.4056	-0.2179	-0.1934	
-0.99491	0.20313	0.05063	-16.87	0.28	-0.56	0.4024	-0.2116	-0.1902	
-0.989908	0.193248	0.040626	-16.66	0.07	-1.19	0.3993	-0.2067	-0.184	
-0.983198	0.181902	0.029036	-19.46	-1.19	-1.75	0.3992	-0.2055	-0.1961	
-0.974658	0.199348	0.048312	-21	-0.7	-3.78	0.3976	-0.2009	-0.196	
-0.994422	0.221552	0.07198	-26.6	-0.84	-6.79	0.3992	-0.2038	-0.1885	
-1.017236	0.227042	0.058194	-29.26	-0.49	-8.19	0.402	-0.2013	-0.2051	
-1.007476	0.199836	0.045262	-33.18	-1.19	-7.91	0.3958	-0.1947	-0.1958	
-0.978928	0.178974	0.026718	-39.62	-2.17	-7.35	0.3971	-0.1905	-0.2047	
-0.977586	0.169946	0.011956	-40.67	-2.03	-9.03	0.3986	-0.1905	-0.2047	
-0.970266	0.175192	0.021106	-45.57	-1.05	-10.29	0.4014	-0.1893	-0.2092	
-0.98942	0.20618	0.034892	-49.14	0.14	-11.55	0.4016	-0.1924	-0.2124	
-1.003328	0.199226	0.043554	-50.47	6.02	-12.11	0.3937	-0.1815	-0.2151	
-1.015528	0.159454	0.065392	-53.55	7.21	-13.02	0.4038	-0.1776	-0.2225	
-1.005524	0.121634	0.054534	-51.73	0.28	-16.73	0.3993	-0.1742	-0.2164	
-1.029314	0.093086	0.03111	-56.28	-3.29	-17.08	0.4018	-0.1651	-0.2146	
-1.0248	0.098942	0.037942	-57.26	3.29	-17.71	0.4045	-0.1593	-0.2175	
-1.005036	0.11163	0.056608	-55.93	3.5	-17.85	0.3997	-0.1504	-0.2323	
-1.00101	0.121024	0.058926	-59.78	1.4	-18.06	0.4027	-0.1518	-0.2263	
-1.01626	0.147986	0.076738	-64.26	-0.91	-18.06	0.3956	-0.1243	-0.2301	
-1.000522	0.129198	0.075762	-66.85	-3.36	-18.97	0.3896	-0.1211	-0.2361	
-0.999058	0.10431	0.072468	-69.3	-4.76	-19.53	0.4027	-0.12	-0.2299	
-0.99857	0.086742	0.047336	-70.98	-2.31	-19.88	0.3935	-0.1108	-0.2418	
-0.999058	0.08601	0.04331	-72.45	-3.08	-19.18	0.4062	-0.0995	-0.2505	
-0.974048	0.092598	0.019032	-72.8	-3.71	-18.83	0.3913	-0.0941	-0.2459	
-1.012356	0.03233	0.057096	-67.13	-3.5	-17.43	0.4027	-0.087	-0.2426	
-1.011014	0.014884	0.049044	-82.88	3.22	-18.9	0.3965	-0.0778	-0.2499	
-1.039074	0.006954	0.119682	-82.39	-0.42	-19.67	0.405	-0.07229999	-0.2558	
-1.046638	0.041846	0.03843	-76.51	8.61	-18.83	0.4003	-0.0657	-0.2481	
-1.057618	-0.012932	0.054168	-68.88	4.2	-15.05	0.4104	-0.0616	-0.2464	
-1.040172	0.016348	0.031842	-87.57	-2.03	-13.23	0.3993	-0.0413	-0.2443	
-1.029314	0.007442	0.03111	-80.71	-2.52	-10.64	0.3993	-0.043	-0.2504	
-1.043832	-0.035014	-0.01098	-77.84	4.97	-7.07	0.3991	-0.0367	-0.2457	
-1.033584	-0.061244	-0.020618	-75.25	8.96	-3.85	0.3968	-0.0186	-0.2512	
-1.011014	-0.110288	0.022082	-88.41	9.24	0.84	0.3983	-0.0185	-0.2482	
-1.02419	-0.15921	-0.025986	-52.5	1.54	1.68	0.3949	-0.0076	-0.2449	
-1.022726	-0.103456	-0.022326	-52.57	2.73	1.05	0.3934	-0.0079	-0.2555	
-1.006622	-0.109678	0.026474	-50.96	3.92	3.71	0.4003	0.0029	-0.237	
-0.996984	-0.164822	0.066246	-41.72	4.48	5.46	0.4001	0.0057	-0.2429	
-0.994056	-0.201666	0.0732	-35.49	5.39	5.25	0.4013	0.0116	-0.2473	
-1.00345	-0.216184	0.072346	-21.84	3.29	4.2	0.3943	0.0059	-0.246	
-1.010404	-0.195566	0.048312	-12.39	4.41	2.52	0.3981	0.0194	-0.2486	
-1.017236	-0.197884	0.05978	-16.45	-1.05	0.77	0.3996	0.0182	-0.2335	
-1.00345	-0.118462	0.06588	-18.69	-0.7	-1.19	0.4119	0.0053	-0.2384	
-1.006256	-0.094306	0.007808	-4.41	-1.19	-1.19	0.409	0.0037	-0.246	
-1.02602	-0.11041	-0.025986	4.83	0.77	-0.49	0.3968	0.0151	-0.2412	
-1.025898	-0.084546	-0.018178	4.9	4.13	0	0.4025	0.0192	-0.2456	
-1.003816	-0.051484	0.015494	6.3	3.15	0.84	0.4058	0.0119	-0.2322	
-0.997106	-0.040504	0.03233	19.18	-0.28	3.5	0.4025	0.0179	-0.238	
-1.031022	-0.068808	0.042944	20.86	-1.33	2.8	0.3983	0.015	-0.2412	
-1.047614	-0.033916	0.033184	18.2	-1.47	6.02	0.3942	0.0074	-0.2474	
-1.014674	0.00488	0.046116	16.24	-1.89	4.2	0.4029	0.0101	-0.2474	
-1.009794	0.024156	0.048678	15.4	0	5.39	0.412	0.0035	-0.2506	
-1.01382	0.02135	0.042578	14	0	6.65	0.4044	0.0085	-0.2459	
-1.023092	0.016714	0.050142	12.6	0.07	6.44	0.4001	0.0057	-0.2445	
-1.01992	0.01769	0.04575	10.64	-2.17	5.46	0.4079	-0.0036	-0.2432	
-1.02175	0.022448	0.047458	7.84	-2.38	4.34	0.3993	-0.0094	-0.2464	
-1.02419	0.009393999	0.061854	4.97	-2.24	3.78	0.3993	-0.0077	-0.2388	
-1.023092	0.022448	0.056974	3.92	-2.1	2.38	0.4006	-0.0049	-0.2448	
-1.01321	0.015006	0.043798	5.67	-2.17	0.7	0.4076	0.0024	-0.243	
-1.030046	0.024278	0.029402	6.09	-1.47	-0.91	0.4081	-0.0081	-0.2403	
-1.045296	0.038918	0.028792	2.8	0.21	-2.52	0.4008	-0.0094	-0.2434	
-1.034682	0.051728	0.027816	-2.1	2.03	-4.69	0.3991	-0.0033	-0.2447	
-1.029314	0.059048	0.01403	-4.76	2.03	-7.21	0.4035	-0.0033	-0.2371	
-1.019188	0.062952	0.033184	-6.3	-2.17	-9.17	0.4081	-0.0082	-0.2449	
-1.009184	0.068686	-0.00061	-4.97	2.52	-11.62	0.4108	-0.0023	-0.2462	
-1.013942	0.059414	-0.006954	-10.99	1.54	-13.09	0.4019	-0.0019	-0.2462	
-1.015894	0.049166	0.005978	-22.12	4.55	-16.03	0.3941	0.0105	-0.2474	
-1.023214	0.0549	0.025254	-24.92	2.17	-16.59	0.41	0.016	-0.2411	
-1.025776	0.030012	0.013786	-33.11	7.07	-17.85	0.4091	0.0022	-0.2476	
-1.013332	0.04392	0.0305	-38.78	7.14	-19.95	0.401	0.0194	-0.241	
-1.018456	-0.02562	0.042944	-46.13	1.61	-20.09	0.3979	0.0227	-0.2379	
-1.045052	-0.001342	0.036112	-47.95	3.43	-22.89	0.4023	0.0238	-0.2454	
-1.058472	-0.035258	0.021228	-53.13	2.24	-24.71	0.401	0.053	-0.2355	
-1.028826	0.01342	-0.000976	-50.89	4.34	-23.73	0.3951	0.0533	-0.2355	
-0.973072	-0.024888	-0.101626	-20.09	-1.05	-16.73	0.3909	0.0488	-0.2402	
-1.056398	-0.183488	0.050386	-41.44	10.29	-14.28	0.3931	0.0656	-0.2352	
-1.048102	-0.129564	0.098454	-57.26	17.22	-22.33	0.3975	0.0656	-0.2276	
-1.000278	-0.09821	0.089792	-52.15	-2.59	-23.66	0.4031	0.07319999	-0.2198	
-0.989542	-0.113948	0.041358	-59.99	-9.38	-21.21	0.3969	0.0793	-0.2272	
