Sensor string: A
Serial number: 1970-01-0000
Firmware version: 2,015
Hardware version: 2,2
Calibration quality: 5
ax	ay	az	gx	gy	gz	mx	my	mz

-0.025254	0.81984	0.57035	-0.7	0.56	-0.14	-0.077	-0.2432	-0.4473	Reference
-0.023424	0.81496	0.56974	-1.12	0.35	-0.35	-0.084	-0.2471	-0.4414	
-0.023424	0.814228	0.57218	-0.98	0.28	-0.35	-0.0787	-0.2402	-0.4504	
-0.024766	0.812642	0.573156	-0.7	0.14	-0.14	-0.0771	-0.2417	-0.4488	
-0.023668	0.814838	0.574254	-0.77	-0.07	-0.07	-0.08109999	-0.2489	-0.4475	
-0.022082	0.813618	0.574742	-0.63	-0.14	-0.07	-0.068	-0.2467	-0.4487	
-0.021106	0.813252	0.575474	-0.63	-0.21	-0.14	-0.0764	-0.2505	-0.4412	
-0.020862	0.810812	0.576938	-0.35	-0.07	-0.14	-0.0742	-0.2388	-0.4441	
-0.0244	0.811422	0.575352	-0.63	-0.14	-0.21	-0.0783	-0.2446	-0.4458	
-0.022692	0.812032	0.576328	-0.56	-0.21	-0.21	-0.0737	-0.2462	-0.438	
-0.024522	0.813374	0.573888	-0.49	-0.28	-0.07	-0.0784	-0.2477	-0.4567	
-0.020374	0.813008	0.576816	-0.42	-0.49	-0.07	-0.0714	-0.236	-0.444	
-0.01952	0.81374	0.575596	-0.63	-0.28	0	-0.0827	-0.2474	-0.4521	
-0.019764	0.813618	0.576816	-0.49	-0.28	0.14	-0.0663	-0.2482	-0.4441	
-0.020374	0.813984	0.57645	-0.63	-0.28	0.14	-0.0779	-0.2504	-0.4413	
-0.021228	0.812154	0.577914	-0.49	0	0.07	-0.0784	-0.2446	-0.4474	
-0.021838	0.812764	0.575352	-0.28	-0.14	0.07	-0.07539999	-0.2416	-0.438	
-0.019642	0.813862	0.577914	-0.91	0	0	-0.074	-0.2464	-0.455	
-0.023058	0.81069	0.58072	-1.19	0.35	0	-0.0814	-0.243	-0.4489	
-0.018422	0.813862	0.576694	-1.4	0.49	-0.07	-0.0784	-0.2431	-0.4473	
-0.0183	0.806542	0.574254	-1.47	0.42	0.07	-0.069	-0.254	-0.4458	
-0.022936	0.809592	0.581452	-0.7	0.21	0.28	-0.0755	-0.2402	-0.441	
-0.028792	0.81679	0.577792	-2.1	1.26	0.14	-0.0781	-0.2475	-0.4443	
-0.030866	0.811544	0.580476	-0.28	0.14	0.28	-0.0744	-0.2375	-0.4518	
-0.026352	0.806542	0.579744	0.56	-0.14	0.63	-0.0757	-0.2388	-0.4457	
-0.019398	0.809104	0.581086	-0.49	-0.35	0.42	-0.07759999	-0.2359	-0.4564	
-0.020374	0.810324	0.581452	-1.05	0	0.35	-0.0752	-0.2477	-0.4473	
-0.020618	0.804834	0.580598	-1.54	0.07	0.07	-0.0726	-0.2434	-0.4487	
-0.021228	0.807518	0.582428	-1.47	0.42	-0.07	-0.07229999	-0.2479	-0.4473	
-0.024034	0.810202	0.584258	-0.77	0.42	-0.21	-0.07979999	-0.2491	-0.4583	
-0.027084	0.809104	0.581696	0	0.42	0	-0.0859	-0.2397	-0.4444	
-0.02684	0.808006	0.578768	-0.21	-0.07	0	-0.0734	-0.2537	-0.4459	
-0.025498	0.80825	0.581086	0.35	-0.21	0.28	-0.0766	-0.2506	-0.4474	
-0.021106	0.811544	0.579866	-0.42	0	0.14	-0.0816	-0.2415	-0.452	
-0.022936	0.81191	0.576816	-1.12	0.28	-0.42	-0.0679	-0.2497	-0.4518	
-0.02928	0.808006	0.58133	1.19	-0.14	0.28	-0.0756	-0.2418	-0.4503	
-0.02501	0.813252	0.577792	1.12	-0.07	0.49	-0.0785	-0.2416	-0.4458	
-0.026108	0.81496	0.574986	0.91	-0.14	0.42	-0.0634	-0.2484	-0.4471	
-0.026962	0.815814	0.5734	0.7	-0.49	0.42	-0.073	-0.2376	-0.4564	
-0.022814	0.814472	0.576572	0.28	-0.42	0.28	-0.0856	-0.2487	-0.4522	
-0.023424	0.8113	0.577182	0.28	-0.21	0.35	-0.0783	-0.2491	-0.4536	
-0.024888	0.81313	0.578036	0.35	-0.21	0.28	-0.0757	-0.2387	-0.4441	
-0.02623	0.814472	0.576328	0.35	-0.21	0.28	-0.07669999	-0.2476	-0.4458	
-0.02196	0.813252	0.57767	0.42	-0.35	0.21	-0.0697	-0.2422	-0.4517	
-0.021716	0.81191	0.576572	0.21	-0.14	0.14	-0.0859	-0.2412	-0.4459	
-0.025132	0.813862	0.578036	0.35	-0.21	0	-0.0813	-0.2459	-0.449	
-0.02379	0.816058	0.575718	0.56	-0.28	0	-0.0742	-0.2388	-0.4441	
-0.025132	0.813862	0.573522	0.07	-0.07	-0.14	-0.0736	-0.2523	-0.4489	
-0.024888	0.81435	0.574132	-0.14	-0.28	-0.14	-0.0832	-0.2384	-0.4489	
-0.0244	0.814228	0.57401	-0.07	-0.42	-0.07	-0.0856	-0.2503	-0.4569	
-0.026108	0.815326	0.572424	-0.49	-0.35	-0.14	-0.0783	-0.2461	-0.4474	
-0.02623	0.816912	0.573522	-0.28	-0.49	-0.14	-0.08	-0.2416	-0.4489	
-0.025376	0.815936	0.574986	-0.21	-0.49	-0.14	-0.0756	-0.2418	-0.4472	
-0.025742	0.813252	0.576572	-0.49	-0.63	-0.07	-0.0756	-0.2418	-0.4503	
-0.024766	0.813374	0.57523	-0.28	-0.56	0.07	-0.0765	-0.2521	-0.4474	
-0.022448	0.811666	0.574864	-0.56	-0.56	0.21	-0.0765	-0.249	-0.4381	
-0.024156	0.812886	0.57462	-0.98	-0.42	0.28	-0.08109999	-0.2473	-0.4428	
-0.027694	0.81923	0.57279	-0.56	-0.35	0.42	-0.0831	-0.243	-0.4552	
-0.02318	0.817888	0.575596	-1.26	-0.14	0.28	-0.07669999	-0.2445	-0.4396	
-0.022936	0.81923	0.572424	-1.61	-0.56	0.14	-0.0753	-0.2462	-0.4458	
-0.027328	0.826184	0.57584	-2.52	0.14	0	-0.0753	-0.2447	-0.4427	
-0.033794	0.81069	0.573278	-0.63	-0.14	0.14	-0.0692	-0.2526	-0.4519	
-0.030134	0.80947	0.573278	-0.35	-0.7	0.35	-0.0843	-0.2412	-0.4397	
-0.027694	0.81618	0.56852	-0.91	-1.05	0.42	-0.0753	-0.2478	-0.452	
-0.025132	0.815326	0.57401	-1.47	-0.84	0.84	-0.0813	-0.2444	-0.4459	
-0.024766	0.815326	0.575718	-2.94	-0.63	0.77	-0.0857	-0.2442	-0.446	
-0.021472	0.810568	0.579256	-3.22	-0.7	0.49	-0.0796	-0.2459	-0.4412	
-0.019764	0.808982	0.579134	-2.52	-0.91	0.42	-0.0818	-0.237	-0.4504	
-0.01647	0.810812	0.57584	-1.4	-0.98	0.28	-0.0769	-0.2431	-0.4442	
-0.018056	0.829966	0.578646	-1.68	-0.56	0.56	-0.0786	-0.2416	-0.4489	
-0.019276	0.82289	0.576084	-2.73	0.28	0.7	-0.0741	-0.2388	-0.441	
-0.024034	0.816302	0.577914	-4.2	0.28	0.42	-0.0802	-0.2401	-0.452	
-0.019642	0.81069	0.577548	-3.71	-0.63	0.28	-0.08109999	-0.2458	-0.4413	
-0.018544	0.811056	0.574864	-4.9	-0.35	-0.14	-0.07889999	-0.2357	-0.4488	
-0.029768	0.80398	0.57828	-3.64	0	0.42	-0.0654	-0.2394	-0.4501	
-0.029158	0.813252	0.57218	-4.27	-0.28	0.49	-0.0817	-0.2401	-0.4535	
-0.030744	0.831552	0.572302	-4.13	-0.35	0.91	-0.0756	-0.2418	-0.4488	
-0.033062	0.825818	0.566568	-4.2	-0.21	0.98	-0.0755	-0.2448	-0.4519	
-0.020984	0.828258	0.574864	-6.65	-1.12	0.91	-0.0729	-0.2406	-0.458	
-0.023546	0.817888	0.572912	-7.91	-1.19	0.63	-0.0844	-0.2428	-0.449	
-0.021838	0.81069	0.582062	-8.54	-1.82	0.56	-0.0792	-0.2328	-0.4549	
-0.021106	0.799466	0.582306	-9.52	-0.91	0.56	-0.0758	-0.2419	-0.4581	
-0.020374	0.794952	0.586332	-9.45	-1.4	0.35	-0.0791	-0.2297	-0.4456	
-0.025986	0.823256	0.589504	-8.26	-1.12	0.14	-0.0698	-0.2407	-0.4517	
-0.025376	0.825086	0.589626	-9.24	0.21	0.28	-0.0744	-0.2405	-0.4565	
-0.026718	0.8235	0.589016	-10.64	-1.4	0.56	-0.07759999	-0.2344	-0.4549	
-0.02562	0.803126	0.59048	-10.92	-1.96	0.63	-0.0706	-0.2257	-0.4484	
-0.016348	0.783728	0.597922	-10.64	-2.17	0.35	-0.08419999	-0.2252	-0.4626	
-0.016592	0.786534	0.600118	-11.13	-1.47	0.63	-0.07319999	-0.2284	-0.4408	
-0.021228	0.794952	0.59902	-11.55	-1.19	1.12	-0.0799	-0.2179	-0.4531	
-0.027816	0.800076	0.595482	-13.58	-0.98	1.33	-0.0788	-0.212	-0.453	
-0.02684	0.798124	0.590968	-14.07	-1.26	1.54	-0.0758	-0.2122	-0.4529	
-0.027328	0.797636	0.603046	-12.88	-2.38	1.26	-0.0846	-0.2148	-0.4578	
-0.019886	0.798002	0.607194	-13.3	-2.87	1.61	-0.0814	-0.2178	-0.4516	
-0.023302	0.800198	0.592188	-15.75	-2.1	1.82	-0.0835	-0.212	-0.467	
-0.017324	0.81008	0.588406	-16.59	-1.54	2.59	-0.092	-0.2174	-0.4642	
-0.019154	0.815204	0.594872	-17.5	-0.28	3.36	-0.091	-0.2101	-0.4656	
-0.015128	0.810324	0.59353	-19.74	-2.31	4.06	-0.0838	-0.2045	-0.4622	
-0.009881999	0.809592	0.602924	-23.1	-3.08	3.57	-0.0824	-0.2016	-0.4606	
-0.013908	0.790682	0.607926	-25.41	-2.24	3.22	-0.0831	-0.1928	-0.4697	
-0.012322	0.773968	0.608658	-28.49	-1.33	2.87	-0.0891	-0.1879	-0.4621	
-0.015738	0.757376	0.62037	-30.03	-1.47	2.59	-0.0801	-0.1898	-0.4603	
-0.015494	0.74359	0.634156	-29.47	-2.1	2.38	-0.0818	-0.1914	-0.4727	
0.017324	0.768478	0.66002	-28.14	-3.71	1.96	-0.09429999	-0.1789	-0.4759	
0.013908	0.769576	0.663192	-32.27	-0.84	1.19	-0.084	-0.1764	-0.4695	
-0.002196	0.75396	0.65514	-35.91	1.68	1.68	-0.0812	-0.1782	-0.4818	
-0.002318	0.726754	0.672952	-36.47	0.98	2.59	-0.1042	-0.1652	-0.4867	
-0.002806	0.690642	0.686982	-37.38	1.26	3.08	-0.0957	-0.1536	-0.4755	
-0.005368	0.668804	0.693692	-38.71	1.47	3.36	-0.0893	-0.1645	-0.4817	
-0.002806	0.662948	0.70211	-40.32	-0.21	2.45	-0.0929	-0.1524	-0.4816	
-0.00244	0.654164	0.7076	-41.3	0	1.68	-0.0962	-0.1493	-0.4878	
-0.004148	0.644404	0.710162	-43.12	-0.07	0.98	-0.08899999	-0.1406	-0.4767	
-0.00976	0.630496	0.71248	-42.77	1.4	0.7	-0.096	-0.1272	-0.492	
-0.000122	0.618784	0.718946	-45.43	-1.26	1.19	-0.096	-0.1302	-0.4982	
0.015494	0.603046	0.735538	-47.11	-1.68	1.82	-0.0834	-0.1145	-0.49	
0.014884	0.59231	0.7503	-49.07	-1.26	2.1	-0.0983	-0.1138	-0.4965	
0.001098	0.56425	0.74359	-49.98	0.77	2.8	-0.09779999	-0.096	-0.4962	
0.00305	0.550464	0.769698	-47.53	-1.82	3.22	-0.1007	-0.0958	-0.4962	
0.003172	0.533018	0.77836	-50.4	-1.61	3.78	-0.0971	-0.0858	-0.5083	
0.00305	0.527528	0.802516	-52.29	-2.87	3.15	-0.0955	-0.0828	-0.4959	
-0.006222	0.518256	0.807396	-51.73	-1.54	3.15	-0.1041	-0.0615	-0.4972	
-0.013908	0.496174	0.8113	-53.48	-1.75	3.29	-0.1051	-0.0658	-0.4865	
-0.006832	0.477996	0.827404	-54.18	-4.13	2.17	-0.0835	-0.0612	-0.4983	
0.005246	0.447862	0.843142	-52.5	-3.64	1.61	-0.1017	-0.0544	-0.5048	
0.005124	0.420412	0.841434	-52.71	-3.71	0.63	-0.1039	-0.0394	-0.5046	
0.003538	0.409432	0.853268	-51.94	-2.87	-0.56	-0.1073	-0.0303	-0.5014	
0.006954	0.401746	0.86742	-48.02	0.63	-0.35	-0.1062	-0.026	-0.509	
0.017446	0.374052	0.87108	-50.4	-3.64	0.77	-0.1017	-0.0215	-0.4919	
0.027206	0.359046	0.878156	-53.13	-6.93	0.42	-0.09869999	0.0002	-0.5053	
0.02867	0.325374	0.87901	-52.92	-6.72	0.42	-0.1015	0.0005	-0.4992	
0.032574	0.288652	0.898774	-52.08	-7.49	0	-0.1047	0.0021	-0.5039	
0.033916	0.26474	0.920124	-49.49	-8.68	-1.4	-0.1081	0.0142	-0.4976	
0.03294	0.253638	0.921466	-50.96	-7	-2.03	-0.1153	0.0353	-0.5051	
0.036478	0.233874	0.934398	-50.54	-7.14	-2.52	-0.1077	0.0335	-0.4988	
0.039162	0.19093	0.957822	-48.3	-7.7	-2.38	-0.1156	0.0475	-0.4863	
0.042334	0.174826	0.97722	-47.81	-9.31	-3.71	-0.1142	0.0442	-0.4987	
0.052948	0.154818	0.970876	-46.9	-9.17	-4.48	-0.1186	0.0743	-0.4906	
0.054046	0.134444	0.969656	-46.76	-9.17	-3.92	-0.1196	0.0654	-0.4923	
0.056608	0.114924	0.974414	-45.01	-6.3	-1.75	-0.1099	0.0799	-0.4826	
0.076372	0.095404	0.986492	-44.03	-7.07	-1.47	-0.1217	0.079	-0.4859	
0.091134	0.07381	1.002962	-43.26	-6.16	-1.4	-0.1283	0.0896	-0.4936	
0.080642	0.06771	0.99064	-43.26	-3.78	-0.77	-0.1195	0.0937	-0.4856	
0.060024	0.052948	1.00101	-38.71	-3.57	-0.07	-0.1359	0.0991	-0.4797	
0.050996	0.045872	1.013332	-35.35	-3.43	1.05	-0.128	0.1149	-0.4839	
0.067222	0.02867	1.032608	-31.85	-6.02	0	-0.129	0.1076	-0.4794	
0.081252	0.011956	1.030656	-31.57	-4.76	-0.14	-0.1411	0.1158	-0.4749	
0.078202	0.004636	1.03334	-31.01	-3.71	0.35	-0.136	0.1304	-0.473	
0.064416	-0.004392	1.031022	-27.09	-3.36	1.19	-0.14	0.1247	-0.4701	
0.070638	-0.016348	1.048956	-22.47	-5.25	0.14	-0.1376	0.1319	-0.4777	
0.077836	-0.015494	1.041514	-20.86	-4.34	-0.7	-0.1357	0.1244	-0.4747	
0.07869	-0.02318	1.04493	-18.2	-4.55	-1.12	-0.1389	0.1306	-0.4716	
0.075518	-0.031842	1.044076	-17.01	-2.1	-0.42	-0.1405	0.1337	-0.4685	
0.077104	-0.038308	1.040294	-15.61	-1.96	0.14	-0.1288	0.1375	-0.465	
0.081496	-0.042456	1.047858	-14.21	-2.24	0.35	-0.1454	0.1428	-0.4699	
0.090036	-0.05734	1.05591	-11.34	-2.1	0.63	-0.1397	0.1501	-0.462	
0.093696	-0.066612	1.062132	-7.98	-2.73	0.49	-0.1384	0.1498	-0.4712	
0.08906	-0.064294	1.058228	-4.34	-2.24	0.49	-0.139	0.1587	-0.4726	
0.08906	-0.058438	1.065914	-0.35	-0.84	1.33	-0.1366	0.1516	-0.448	
0.095282	-0.070638	1.058716	2.94	-1.05	1.05	-0.1382	0.147	-0.4651	
0.096868	-0.076128	1.065426	5.81	-1.19	0.7	-0.141	0.1457	-0.4621	
0.099796	-0.068442	1.072258	10.78	-0.07	1.12	-0.1382	0.1454	-0.4713	
0.108336	-0.067954	1.068354	13.93	-0.42	0.56	-0.1352	0.1499	-0.4588	
0.108702	-0.076738	1.08946	17.29	-0.35	0.07	-0.1348	0.1362	-0.4744	
0.103578	-0.073688	1.087874	20.58	0.56	0.35	-0.1336	0.1406	-0.4728	
0.10736	-0.076616	1.095316	24.08	0.42	-0.14	-0.1423	0.1381	-0.473	
0.113826	-0.072224	1.075186	26.39	1.4	-0.91	-0.1346	0.1318	-0.473	
0.116388	-0.069174	1.067134	31.36	3.64	-0.98	-0.1418	0.1277	-0.4748	
0.112362	-0.067832	1.050542	35	4.06	-1.61	-0.1491	0.1281	-0.4718	
0.105286	-0.041968	1.042734	37.45	4.83	-1.61	-0.136	0.1273	-0.4808	
0.091866	-0.018666	1.033218	41.65	4.69	-1.82	-0.1338	0.1138	-0.4841	
0.091378	-0.005856	1.032242	45.71	4.41	-2.17	-0.1361	0.1067	-0.4704	
0.0976	0.006588	1.031754	49.77	5.25	-2.31	-0.1394	0.1082	-0.4828	
0.090646	0.021838	1.025532	54.46	3.64	-2.94	-0.1353	0.0857	-0.4831	
0.085888	0.05185	1.003938	55.86	6.86	-1.89	-0.1397	0.0843	-0.4878	
0.094306	0.066002	1.00223	61.81	6.02	-2.1	-0.1342	0.07099999	-0.4725	
0.092964	0.083692	0.996008	64.61	8.12	-1.4	-0.118	0.0639	-0.4892	
0.097234	0.101382	0.976732	59.64	-0.77	-1.12	-0.1369	0.0559	-0.4944	
0.083936	0.13908	0.941596	64.26	11.55	-0.7	-0.1276	0.048	-0.4959	
0.07442	0.17202	0.9455	71.33	8.47	-0.98	-0.1286	0.0376	-0.4976	
0.067832	0.200202	0.940376	71.47	9.03	-0.91	-0.125	0.0271	-0.4931	
0.0488	0.222772	0.928298	74.55	13.93	-0.35	-0.1155	0.0116	-0.5009	
0.025132	0.257176	0.905484	75.95	12.25	0.14	-0.1133	0.0012	-0.4964	
0.030134	0.282186	0.866444	77.7	12.67	-0.42	-0.1164	-0.0018	-0.5119	
0.015494	0.296338	0.855952	77.42	11.76	-1.54	-0.1121	-0.0257	-0.5061	
0.010492	0.355752	0.83631	78.89	10.57	-2.52	-0.1085	-0.0346	-0.5	
0.004514	0.404064	0.808982	81.13	11.34	-1.82	-0.1062	-0.0496	-0.4986	
0.007564	0.428586	0.78568	84.28	10.08	-2.03	-0.0995	-0.0664	-0.5049	
0.01159	0.438224	0.730536	78.33	6.79	0.14	-0.1049	-0.078	-0.5083	
0.002562	0.446398	0.694546	79.1	6.44	-3.15	-0.0936	-0.0918	-0.4991	
-0.018788	0.573522	0.713334	83.37	7.28	-2.1	-0.0911	-0.1097	-0.4947	
0.00549	0.593896	0.728828	80.29	6.86	-1.12	-0.0975	-0.1256	-0.4905	
0.012932	0.576206	0.705526	76.09	3.57	-0.63	-0.09429999	-0.1348	-0.4998	
-0.012444	0.605852	0.660386	74.62	5.95	-0.07	-0.09429999	-0.1348	-0.4998	
-0.01098	0.64294	0.642574	75.04	5.39	0.91	-0.0913	-0.1586	-0.4909	
0.023424	0.668926	0.637084	72.73	4.13	1.12	-0.0917	-0.1732	-0.4773	
0.027816	0.678808	0.627324	70.42	3.29	0.7	-0.0917	-0.1732	-0.4773	
0.00183	0.695278	0.598288	69.44	3.99	1.12	-0.08769999	-0.1926	-0.4744	
-0.000366	0.715652	0.57035	70.35	3.57	2.38	-0.072	-0.2067	-0.4682	
0.00366	0.743468	0.52887	70.42	2.52	3.57	-0.072	-0.2067	-0.4682	
-0.008905999	0.801784	0.492026	69.02	3.01	1.61	-0.0865	-0.2073	-0.4592	
-0.008905999	0.846802	0.483608	67.13	2.52	-1.19	-0.0786	-0.2181	-0.4608	
0.012688	0.86254	0.49288	66.01	0	-2.45	-0.0781	-0.227	-0.4578	
-0.004514	0.85461	0.459818	61.53	1.12	-2.94	-0.0702	-0.2363	-0.4594	
-0.015128	0.832894	0.437248	60.13	-3.01	-5.18	-0.0822	-0.2547	-0.443	
-0.039528	0.866322	0.41175	61.32	-1.61	-5.46	-0.0749	-0.2537	-0.4459	
-0.044042	0.918538	0.384788	63.42	0	-5.32	-0.077	-0.2637	-0.4322	
-0.053924	0.95953	0.386862	60.27	1.47	-5.46	-0.0618	-0.2704	-0.4289	
-0.064538	0.94733	0.386984	53.76	-0.28	-7.28	-0.0611	-0.2807	-0.4214	
-0.065758	0.91561	0.376736	48.09	-1.75	-8.96	-0.0612	-0.2808	-0.4275	
-0.081374	0.918538	0.360388	45.57	-3.5	-9.87	-0.0602	-0.2955	-0.4154	
-0.07076	0.945134	0.363926	43.47	-4.34	-9.94	-0.0654	-0.3055	-0.408	
-0.044164	0.939522	0.360998	35.42	-3.22	-9.31	-0.074	-0.3063	-0.4005	
-0.043798	0.89548	0.371734	31.29	0.07	-7.28	-0.0637	-0.31	-0.408	
-0.067222	0.895846	0.36844	32.13	-0.07	-6.51	-0.0711	-0.305	-0.4004	
-0.077104	0.925736	0.37515	35.77	0.42	-5.95	-0.0669	-0.3275	-0.3976	
-0.066246	0.962092	0.351482	37.52	0.21	-5.39	-0.0705	-0.3169	-0.4006	
-0.054778	0.965386	0.331596	34.16	-1.12	-4.9	-0.06	-0.3174	-0.3942	
-0.072834	0.94001	0.324154	29.26	1.4	-3.64	-0.0647	-0.3317	-0.376	
-0.086132	0.9333	0.306342	27.79	0.63	-3.92	-0.0602	-0.3349	-0.3791	
-0.059292	0.944768	0.309026	31.36	-0.63	-2.31	-0.0563	-0.3483	-0.3684	
-0.060756	0.977098	0.290726	32.69	2.17	-0.35	-0.0491	-0.3458	-0.3713	
-0.080276	1.009184	0.268278	32.06	3.99	1.12	-0.0515	-0.356	-0.37	
-0.062098	0.97722	0.244244	26.88	3.22	2.45	-0.0681	-0.3477	-0.3671	
-0.051606	0.983564	0.249246	24.78	4.55	4.27	-0.06879999	-0.3609	-0.3658	
-0.065636	1.043832	0.219844	29.26	-9.1	2.94	-0.0483	-0.3575	-0.3622	
-0.09516	1.08153	0.2013	8.89	-3.29	16.38	-0.0583	-0.3675	-0.3703	
-0.081008	1.079212	0.228872	21.91	-23.1	6.23	-0.0629	-0.3566	-0.3548	
-0.064904	1.055178	0.220576	13.86	-14.28	5.18	-0.0571	-0.3601	-0.3655	
-0.066978	1.064694	0.227896	18.62	-12.67	4.34	-0.0739	-0.3709	-0.3538	
-0.056852	1.045906	0.206546	9.59	-10.22	5.04	-0.0673	-0.3563	-0.3518	
-0.046726	1.051518	0.194956	9.24	-15.05	2.31	-0.0815	-0.3675	-0.3523	
-0.045384	1.015528	0.200324	1.96	-7.77	4.2	-0.0699	-0.3683	-0.3644	
-0.041968	1.002352	0.199104	3.78	-7.07	1.33	-0.0848	-0.3614	-0.3539	
-0.034404	1.003084	0.192516	1.47	-6.09	-0.28	-0.0772	-0.3647	-0.3537	
-0.04636	1.036756	0.17324	-1.96	-0.77	0.07	-0.0785	-0.3676	-0.3507	
-0.035746	1.072258	0.197152	-3.71	-1.12	0.21	-0.0712	-0.365	-0.349	
-0.01952	1.066646	0.207766	-5.25	-0.07	1.96	-0.0797	-0.3689	-0.3446	
-0.00061	1.023214	0.242292	-5.95	-0.21	2.52	-0.0755	-0.3724	-0.36	
-0.008174	1.012234	0.227286	-4.69	1.33	0.91	-0.0695	-0.3711	-0.3521	
-0.030012	1.02541	0.194224	-9.59	1.75	-0.49	-0.0755	-0.3708	-0.3584	
-0.075274	1.06506	0.15311	-12.32	-3.92	-1.26	-0.0799	-0.369	-0.3523	
-0.046482	1.04005	0.205448	-10.71	-2.73	0.91	-0.0682	-0.3682	-0.3551	
0.00366	1.006866	0.249246	-8.19	1.19	1.89	-0.0743	-0.3665	-0.3599	
0.021594	1.004182	0.234606	-12.32	3.5	2.73	-0.076	-0.3635	-0.3614	
-0.028792	1.105564	0.201056	-14.63	5.53	1.12	-0.0805	-0.3617	-0.3615	
-0.045506	1.12484	0.2013	-18.55	6.65	0.63	-0.0792	-0.3588	-0.3614	
-0.028792	1.060058	0.24583	-19.88	13.02	1.61	-0.0839	-0.3541	-0.3614	
-0.022082	0.975146	0.266936	-21.7	19.39	3.01	-0.0777	-0.3589	-0.3614	
-0.055388	0.932812	0.271206	-19.95	13.23	2.1	-0.0664	-0.3553	-0.3749	
-0.043798	0.962458	0.2867	-17.99	9.66	-1.05	-0.0728	-0.346	-0.3749	
-0.030256	1.025532	0.261812	-16.45	9.38	-2.59	-0.0654	-0.3449	-0.3716	
-0.038918	1.04493	0.268156	-16.38	9.87	-0.35	-0.0667	-0.3509	-0.3779	
-0.060024	1.046638	0.281698	-18.48	12.25	1.12	-0.0683	-0.3432	-0.3655	
-0.065514	1.015528	0.287798	-21.14	12.39	0.77	-0.0598	-0.3439	-0.3823	
-0.061	1.001132	0.29646	-23.66	14	-1.12	-0.0595	-0.3483	-0.3808	
-0.057584	1.017236	0.292068	-21.21	10.01	-2.59	-0.063	-0.3393	-0.3823	
-0.060878	1.025776	0.296338	-25.55	9.31	-0.98	-0.0595	-0.3217	-0.3834	
-0.082228	1.0248	0.29768	-36.19	0.35	-0.7	-0.0531	-0.3293	-0.3773	
-0.059536	0.984052	0.323544	-42.91	-8.75	0.28	-0.0622	-0.3322	-0.3976	
-0.054656	0.966362	0.34404	-39.69	-0.7	2.52	-0.0517	-0.3326	-0.3912	
-0.060024	0.95221	0.335988	-37.45	0.56	2.66	-0.0543	-0.3225	-0.4142	
-0.065148	0.980514	0.32879	-33.39	4.48	1.96	-0.0619	-0.313	-0.4034	
-0.085888	0.981734	0.317932	-44.87	-4.9	2.24	-0.0667	-0.3099	-0.4096	
-0.071492	0.963556	0.333792	-47.95	-6.58	2.73	-0.059	-0.2912	-0.4199	
-0.05307	0.947208	0.36539	-48.44	-5.95	1.47	-0.0618	-0.2955	-0.4201	
-0.058438	0.909388	0.38857	-47.53	-2.73	2.03	-0.0651	-0.2909	-0.4263	
-0.049166	0.89853	0.404918	-48.23	-5.25	3.22	-0.0643	-0.2761	-0.4213	
-0.047458	0.892064	0.41907	-51.1	-7.77	1.4	-0.07009999	-0.2834	-0.4324	
-0.038552	0.853268	0.403576	-53.13	-6.23	0.42	-0.065	-0.2673	-0.4336	
-0.044164	0.851926	0.422608	-50.82	-7.98	-0.84	-0.0758	-0.2656	-0.4508	
-0.070882	0.8479	0.430538	-50.12	-3.36	1.89	-0.0764	-0.2551	-0.449	
-0.07564	0.831308	0.44774	-53.55	-8.19	3.64	-0.0729	-0.2375	-0.4517	
-0.047702	0.793	0.48434	-56.28	-12.88	2.94	-0.0792	-0.2328	-0.4564	
-0.048434	0.788608	0.489708	-58.38	-13.93	2.73	-0.0913	-0.2277	-0.4582	
-0.051972	0.777018	0.519232	-58.31	-14.35	2.66	-0.0828	-0.2208	-0.4563	
-0.03233	0.754814	0.538508	-63.49	-11.55	3.29	-0.0867	-0.2058	-0.4623	
-0.02074	0.769332	0.548268	-71.26	-12.88	3.64	-0.0883	-0.2043	-0.467	
-0.01403	0.771772	0.567788	-71.96	-12.18	1.54	-0.0892	-0.1879	-0.4667	
-0.01952	0.732122	0.595238	-77.28	-9.59	1.89	-0.091	-0.1865	-0.4775	
-0.0061	0.68808	0.650138	-78.47	-10.71	0.98	-0.1006	-0.1758	-0.4853	
0.030866	0.645502	0.696376	-80.85	-13.44	1.47	-0.1076	-0.1546	-0.482	
0.066734	0.577182	0.71309	-81.83	-13.58	0.91	-0.1006	-0.1506	-0.491	
0.05978	0.51728	0.720288	-81.76	-11.06	0.7	-0.1105	-0.1293	-0.4878	
0.063074	0.484462	0.717848	-80.08	-8.82	-1.4	-0.1126	-0.1203	-0.4923	
0.063318	0.46055	0.731512	-76.86	-10.78	-1.47	-0.1104	-0.1056	-0.4904	
0.07991	0.470432	0.777262	-76.51	-11.62	-1.4	-0.1187	-0.0919	-0.4981	
0.076006	0.432368	0.789096	-75.95	-10.36	-1.19	-0.1231	-0.0871	-0.4873	
0.063074	0.411506	0.794342	-75.11	-10.5	-1.12	-0.1177	-0.0769	-0.4855	
0.081862	0.387472	0.829478	-68.39	-4.2	-1.33	-0.1157	-0.067	-0.5053	
0.086132	0.353556	0.840214	-72.38	-3.64	2.52	-0.1239	-0.0486	-0.4944	
0.080398	0.31659	0.839604	-76.37	-4.97	4.41	-0.1258	-0.0411	-0.4974	
0.078202	0.28121	0.85034	-78.12	-4.9	3.92	-0.1261	-0.0367	-0.5019	
0.064172	0.245098	0.863272	-76.16	-2.17	3.85	-0.1358	-0.0183	-0.4957	
0.068808	0.21106	0.891698	-72.38	-3.36	5.18	-0.1352	-0.0081	-0.5063	
0.083814	0.193858	0.921466	-71.33	-4.41	5.39	-0.1195	0.0059	-0.498	
0.082472	0.169336	0.93086	-68.25	-3.78	4.83	-0.1306	0.0184	-0.5011	
0.079666	0.152012	0.95099	-65.1	-3.57	2.94	-0.131	0.0304	-0.4901	
0.08174	0.1403	0.979782	-61.32	-2.38	2.31	-0.1284	0.0346	-0.4977	
0.078202	0.122854	0.99613	-57.68	-1.68	0.98	-0.1306	0.0512	-0.4897	
0.071736	0.103334	1.02297	-54.53	0.07	1.75	-0.1312	0.0616	-0.4896	
0.080764	0.069784	1.042734	-52.43	-3.85	-0.35	-0.1367	0.0576	-0.482	
0.082716	0.055388	1.049566	-52.64	-4.9	-1.05	-0.134	0.0823	-0.5001	
0.071126	0.033794	1.054568	-50.33	-4.83	-0.14	-0.1375	0.0755	-0.4771	
0.084058	0.005978	1.064206	-45.36	-5.46	-0.07	-0.1304	0.078	-0.48	
0.096868	-0.004392	1.06079	-40.67	-6.02	-1.12	-0.1397	0.08899999	-0.4769	
0.093696	-0.009028	1.07421	-33.95	-4.97	-1.19	-0.1365	0.111	-0.478	
0.098942	-0.008905999	1.071892	-30.52	-5.67	-2.31	-0.1409	0.1098	-0.4781	
0.107848	-0.015982	1.055666	-28.77	-3.36	-3.08	-0.1439	0.1115	-0.4766	
0.092598	-0.02135	1.050298	-18.55	2.59	-4.83	-0.1472	0.1175	-0.4797	
0.085888	-0.02745	1.048346	-15.61	3.85	-3.22	-0.1382	0.1172	-0.4718	
0.103334	-0.041114	1.060058	-14.63	-1.54	-3.29	-0.1385	0.1231	-0.4701	
0.111508	-0.035624	1.057008	-16.17	0.63	-3.08	-0.1355	0.1199	-0.4794	
0.091134	-0.047092	1.079456	-11.13	1.4	-2.66	-0.1417	0.1293	-0.467	
0.085888	-0.065148	1.100562	-4.97	0.42	-1.47	-0.1387	0.1276	-0.4716	
0.125538	-0.09089	1.124962	0.07	-2.38	0.28	-0.1455	0.1146	-0.4735	
0.134688	-0.089304	1.13094	4.34	-0.28	1.12	-0.1401	0.1247	-0.4717	
0.125904	-0.099186	1.116056	7.84	1.82	0.63	-0.1457	0.1206	-0.4703	
0.110654	-0.095404	1.099342	11.69	3.36	0.98	-0.1444	0.1265	-0.464	
0.102114	-0.086742	1.087996	17.64	3.29	0.84	-0.1488	0.1222	-0.4719	
0.097234	-0.08235	1.078236	22.89	3.64	1.26	-0.1371	0.1245	-0.4732	
0.10492	-0.072224	1.071404	28.49	3.36	1.4	-0.1396	0.1127	-0.4796	
0.118584	-0.051972	1.073356	33.67	3.57	0.84	-0.1378	0.1082	-0.4765	
0.116388	-0.039406	1.062498	37.24	4.9	-0.35	-0.1389	0.0992	-0.4814	
0.107604	-0.031842	1.06201	41.65	6.44	-0.84	-0.1392	0.1052	-0.4782	
0.105286	-0.016348	1.054812	46.13	7.35	-0.49	-0.1367	0.0858	-0.48	
0.107238	0.009881999	1.059448	50.82	6.44	-1.26	-0.1381	0.0828	-0.4863	
0.101504	0.039772	1.04005	53.2	8.54	-1.33	-0.1314	0.066	-0.491	
0.088328	0.061244	1.023702	58.24	9.38	-1.33	-0.1304	0.0734	-0.494	
0.08845	0.074298	1.020164	64.68	10.29	-1.05	-0.1292	0.0542	-0.4835	
0.08418	0.10065	1.005402	66.78	9.38	-2.1	-0.1291	0.0495	-0.4943	
0.07198	0.138836	0.978074	67.06	12.67	-1.47	-0.1281	0.0302	-0.4947	
0.07015	0.15494	0.958676	69.02	13.79	-1.26	-0.1141	0.0192	-0.4868	
0.055266	0.175192	0.959896	74.13	14	-0.63	-0.1179	0.0029	-0.4995	
0.044042	0.2135	0.930738	78.12	13.23	-0.56	-0.1183	0.0103	-0.4994	
0.037698	0.252052	0.903654	78.05	13.09	-1.75	-0.1128	-0.0061	-0.4918	
0.029158	0.289628	0.870104	80.78	15.05	-0.98	-0.1104	-0.024	-0.4921	
0.03721	0.303414	0.837896	78.33	14.63	1.26	-0.1064	-0.0435	-0.4908	
0.009393999	0.316712	0.8296	79.38	15.61	0.56	-0.1121	-0.0523	-0.5034	
-0.014518	0.370636	0.787998	83.44	15.4	0.7	-0.0971	-0.0561	-0.5016	
-0.033916	0.41663	0.75091	85.82	10.71	2.52	-0.1003	-0.0782	-0.5021	
-0.022936	0.457256	0.727486	87.15	8.75	3.36	-0.0949	-0.0916	-0.4898	
-0.01647	0.501542	0.711016	87.22	8.54	3.92	-0.0951	-0.0917	-0.4976	
-0.020008	0.546072	0.696498	85.47	7.77	4.13	-0.09339999	-0.123	-0.4996	
-0.043066	0.587674	0.667462	83.23	7.35	3.99	-0.083	-0.1235	-0.4947	
-0.06222	0.63196	0.640622	81.9	5.53	3.29	-0.0862	-0.1425	-0.4874	
-0.058316	0.659288	0.621834	78.61	2.73	2.17	-0.0884	-0.1557	-0.4846	
-0.02135	0.662826	0.604998	75.88	-0.21	1.33	-0.0909	-0.1645	-0.4879	
-0.00671	0.694058	0.576328	75.95	-1.33	0.35	-0.0824	-0.1795	-0.4726	
0.011346	0.751154	0.57767	77.35	0.28	-0.14	-0.0839	-0.1825	-0.4804	
0.022204	0.803614	0.561566	76.79	2.66	0.21	-0.0799	-0.1958	-0.4635	
0.022326	0.832162	0.539484	70.91	6.16	1.47	-0.0867	-0.2059	-0.4654	
-0.004148	0.844728	0.505446	65.03	7.42	0.63	-0.0847	-0.2133	-0.4593	
-0.035258	0.842044	0.459818	59.71	11.27	-0.49	-0.0841	-0.2221	-0.4517	
-0.044774	0.840336	0.43737	54.74	9.87	-1.54	-0.0793	-0.2298	-0.4548	
-0.048068	0.84973	0.44286	51.94	7.42	-1.33	-0.0668	-0.2408	-0.4501	
-0.037576	0.840702	0.431148	50.33	5.6	-1.47	-0.0677	-0.248	-0.4379	
-0.047702	0.841556	0.41419	47.74	6.23	-1.19	-0.07	-0.2613	-0.4413	
-0.061732	0.878888	0.401258	48.3	6.16	-2.03	-0.0665	-0.2673	-0.4336	
-0.064416	0.900116	0.3965	45.29	4.97	-2.1	-0.0662	-0.2732	-0.4321	
-0.068686	0.918904	0.4087	40.04	3.43	-3.43	-0.0719	-0.2743	-0.4277	
-0.069418	0.92293	0.4026	37.38	3.36	-4.41	-0.0713	-0.2831	-0.4201	
-0.060512	0.927322	0.405162	34.09	1.96	-5.25	-0.0696	-0.2892	-0.4263	
-0.069174	0.959286	0.403454	29.96	5.32	-4.13	-0.0563	-0.2868	-0.4183	
-0.06222	0.92964	0.394182	25.34	5.53	-5.53	-0.0608	-0.2866	-0.4199	
-0.069296	0.911462	0.390156	23.1	3.99	-5.6	-0.0603	-0.2956	-0.4231	
-0.084912	0.927444	0.3965	27.51	4.06	-4.48	-0.0542	-0.2957	-0.4122	
-0.081374	0.90768	0.384544	26.67	3.99	-4.27	-0.05	-0.3182	-0.4125	
-0.074664	0.896334	0.380396	25.83	4.55	-3.29	-0.0547	-0.312	-0.4094	
-0.092232	0.904752	0.37332	28	3.78	-2.52	-0.0499	-0.315	-0.397	
-0.086986	0.930372	0.368562	31.57	1.82	-1.47	-0.0515	-0.3166	-0.4094	
-0.077104	0.96502	0.342942	32.06	1.89	-0.84	-0.0509	-0.3254	-0.4003	
-0.09333	0.985638	0.328546	30.38	1.19	0.14	-0.0461	-0.3285	-0.391	
-0.096258	0.996862	0.303658	26.18	-6.16	-2.03	-0.0567	-0.3235	-0.3911	
-0.089914	0.980392	0.323422	0.21	-8.12	10.5	-0.056	-0.3307	-0.3804	
-0.077348	0.998692	0.324886	19.88	-25.62	0.42	-0.0667	-0.3273	-0.3883	
-0.087718	1.049566	0.305244	20.65	-15.54	3.57	-0.0619	-0.3366	-0.3946	
-0.087474	1.068354	0.29402	26.46	-16.87	-0.42	-0.0622	-0.3306	-0.3914	
-0.069906	1.037488	0.304024	14.49	-14.07	2.45	-0.0631	-0.3409	-0.39	
-0.063928	1.028216	0.301096	14.42	-17.29	2.66	-0.06879999	-0.342	-0.384	
-0.062586	1.044564	0.303658	7.21	-9.03	5.39	-0.069	-0.3375	-0.3809	
-0.073078	1.035536	0.279014	10.85	-8.26	1.12	-0.0628	-0.3391	-0.373	
-0.06344	0.995032	0.281942	9.66	-2.24	0.84	-0.057	-0.338	-0.3775	
-0.041114	0.963312	0.271938	7.98	0.56	1.68	-0.0728	-0.346	-0.3734	
-0.026596	0.953552	0.27755	4.13	0.49	2.59	-0.0815	-0.347	-0.3721	
-0.044774	0.976488	0.28914	7.14	-1.33	1.47	-0.0744	-0.3461	-0.3811	
-0.066368	1.006988	0.270108	9.52	-3.5	0.35	-0.0621	-0.351	-0.3701	
-0.061976	1.031022	0.269986	9.66	-4.06	0	-0.0681	-0.3492	-0.3718	
-0.041114	1.05835	0.263886	4.41	-2.73	-0.21	-0.0728	-0.3461	-0.3765	
-0.019398	1.037854	0.256566	-2.03	-3.71	-0.91	-0.07889999	-0.3381	-0.3641	
-0.04087	1.048224	0.250466	-5.81	0.42	0.7	-0.0687	-0.3404	-0.3778	
-0.088816	1.076162	0.252052	-9.87	5.04	3.43	-0.0643	-0.3375	-0.3699	
-0.077592	1.071404	0.264496	-6.51	1.68	0.7	-0.0758	-0.3444	-0.3719	
-0.047092	1.045784	0.2745	-12.25	1.12	-0.42	-0.0698	-0.3447	-0.3717	
-0.046726	1.007476	0.281942	-15.4	4.62	-0.14	-0.0594	-0.3452	-0.3669	
-0.04819	0.976122	0.288896	-22.05	8.82	0.77	-0.0728	-0.3476	-0.378	
-0.055876	0.96868	0.304756	-19.32	10.57	1.12	-0.066	-0.3392	-0.387	
-0.058438	0.997838	0.306342	-15.54	8.54	0.14	-0.0595	-0.3499	-0.3839	
-0.064294	1.019798	0.29829	-16.52	6.86	-0.7	-0.0658	-0.339	-0.3762	
-0.049288	1.021018	0.30866	-19.67	6.58	-0.07	-0.0665	-0.3333	-0.3915	
-0.057706	1.017846	0.306586	-24.85	7.35	-0.56	-0.0681	-0.3287	-0.3853	
-0.095648	1.021384	0.310978	-24.5	9.38	-0.91	-0.0597	-0.3233	-0.3927	
-0.094306	0.996008	0.320616	-22.19	13.65	-2.1	-0.0578	-0.3262	-0.3835	
-0.080642	0.98759	0.33306	-19.46	10.01	-3.43	-0.0509	-0.3208	-0.3925	
-0.08052	1.001376	0.33184	-22.82	6.44	-4.41	-0.057	-0.3222	-0.4035	
-0.049776	0.99064	0.341234	-33.88	0.91	-1.75	-0.0546	-0.3088	-0.397	
-0.074176	0.997228	0.354898	-38.92	-0.7	-1.82	-0.0564	-0.3074	-0.4078	
-0.085644	0.998692	0.358314	-43.54	-4.34	0.42	-0.0626	-0.3011	-0.4063	
-0.07869	0.979172	0.377834	-38.99	-0.14	1.19	-0.0467	-0.2961	-0.4074	
-0.058682	0.952942	0.376248	-40.81	-5.67	0.14	-0.0621	-0.288	-0.4153	
-0.062708	0.93879	0.39772	-42.98	-3.99	2.03	-0.0705	-0.2949	-0.4141	
-0.074298	0.917806	0.409554	-45.78	-4.9	3.78	-0.0552	-0.2841	-0.4274	
-0.080886	0.91805	0.394792	-45.5	-5.81	3.64	-0.0565	-0.2839	-0.4228	
-0.08686399	0.918294	0.397232	-45.5	-4.34	3.08	-0.0602	-0.275	-0.4336	
-0.081374	0.897066	0.404308	-47.46	-3.36	3.36	-0.0722	-0.273	-0.4385	
-0.066734	0.86925	0.435418	-48.09	-8.26	4.27	-0.0773	-0.2654	-0.4477	
-0.06039	0.852414	0.448594	-46.9	-9.52	5.88	-0.0583	-0.2605	-0.4472	
-0.04026	0.871446	0.462746	-45.71	-8.61	6.65	-0.086	-0.2397	-0.449	
-0.041114	0.858026	0.473116	-51.94	-7.28	4.97	-0.0746	-0.236	-0.4564	
-0.039528	0.800442	0.472262	-57.96	-6.51	3.36	-0.0821	-0.2311	-0.4503	
-0.043066	0.761646	0.487756	-58.52	-7.56	2.94	-0.0713	-0.2201	-0.4668	
-0.059292	0.76128	0.524478	-54.25	-9.59	4.62	-0.0835	-0.2089	-0.4607	
-0.059536	0.751398	0.555466	-50.05	-11.55	5.04	-0.0783	-0.2004	-0.4682	
-0.019642	0.737612	0.586088	-55.3	-12.67	4.06	-0.1018	-0.2022	-0.4703	
-0.003294	0.715408	0.623542	-62.3	-12.67	2.66	-0.0862	-0.1958	-0.4822	
-0.003294	0.686128	0.651602	-64.47	-13.93	3.01	-0.1004	-0.1771	-0.4776	
-0.001952	0.634522	0.67588	-71.26	-10.92	2.8	-0.1066	-0.1694	-0.476	
0.006832	0.573156	0.685396	-75.25	-9.66	1.68	-0.09959999	-0.1623	-0.4727	
0.02623	0.54351	0.69723	-74.83	-9.8	1.82	-0.0961	-0.1508	-0.4863	
0.028304	0.53314	0.7137	-75.95	-8.68	1.89	-0.1027	-0.1371	-0.4846	
0.026596	0.521428	0.71797	-75.11	-7.98	2.31	-0.1099	-0.1146	-0.4921	
0.024766	0.532896	0.738222	-69.72	-9.87	2.17	-0.1087	-0.1086	-0.4889	
0.026962	0.536922	0.754692	-66.64	-7.07	0	-0.1138	-0.09959999	-0.4981	
0.03233	0.49715	0.766892	-68.32	-6.02	-1.05	-0.1025	-0.0898	-0.4962	
0.036356	0.449936	0.780556	-72.03	-7.28	-1.75	-0.1147	-0.0801	-0.4901	
0.033062	0.41541	0.799588	-74.48	-6.44	-1.19	-0.1097	-0.0657	-0.4974	
0.047458	0.384544	0.822036	-76.58	-7.49	-0.14	-0.1172	-0.0623	-0.4945	
0.07076	0.350506	0.849608	-75.67	-6.65	1.61	-0.1288	-0.0379	-0.4928	
0.08357	0.323178	0.87169	-75.11	-4.34	2.87	-0.1218	-0.0339	-0.5003	
0.063806	0.296338	0.870592	-75.04	-4.55	3.92	-0.1268	-0.0233	-0.5002	
0.038552	0.281088	0.889624	-71.05	-6.37	3.57	-0.1245	-0.0084	-0.4922	
0.037454	0.272304	0.912316	-66.85	-7.84	1.89	-0.1331	0.0126	-0.4966	
0.055876	0.241804	0.925736	-63.91	-7.07	0.84	-0.1197	0.0135	-0.4886	
0.061244	0.199348	0.9272	-65.24	-12.04	-0.28	-0.1232	0.0226	-0.4916	
0.06588	0.180682	0.933422	-63.35	-10.85	0.42	-0.1254	0.0345	-0.4945	
0.076982	0.162748	0.955382	-59.15	-9.03	0.56	-0.1373	0.0397	-0.4885	
0.08113	0.143594	0.952332	-58.73	-9.1	0.35	-0.1341	0.0351	-0.4885	
0.093208	0.11163	0.96014	-56	-11.97	-0.56	-0.1306	0.0512	-0.4897	
0.101016	0.078446	0.973804	-55.16	-12.25	-1.96	-0.1372	0.0665	-0.485	
0.09942999	0.055144	1.006988	-45.29	-4.55	-3.78	-0.1408	0.07539999	-0.4911	
0.099064	0.051972	1.016504	-47.11	-2.31	-2.31	-0.1336	0.08109999	-0.4877	
0.119194	0.024522	1.024922	-45.29	-2.87	-2.38	-0.1337	0.0841	-0.4846	
0.124196	-0.004026	1.0431	-42.49	-0.42	-1.96	-0.1432	0.09649999	-0.4831	
0.097356	-0.009028	1.049566	-41.3	1.33	-1.68	-0.1349	0.1048	-0.4889	
0.08906	-0.025132	1.06628	-40.46	-1.75	-0.98	-0.1496	0.1058	-0.4815	
0.103212	-0.055998	1.072868	-34.93	-4.27	-1.33	-0.1445	0.1218	-0.4796	
0.09552599	-0.074786	1.077992	-30.52	-4.9	-0.7	-0.1394	0.1112	-0.475	
0.10126	-0.076738	1.07848	-25.34	-3.92	-1.33	-0.1423	0.113	-0.4673	
0.103822	-0.074786	1.087264	-17.36	-0.7	-2.45	-0.1507	0.1312	-0.4718	
0.107726	-0.09882	1.096292	-11.27	-0.91	-1.61	-0.1389	0.1275	-0.4793	
0.11285	-0.101138	1.09922	-7.14	-4.27	-0.77	-0.1553	0.1344	-0.4703	
0.116388	-0.094306	1.10593	-4.34	-3.78	-0.49	-0.1531	0.1256	-0.4596	
0.113948	-0.084302	1.093608	-0.56	-1.19	0	-0.1446	0.1264	-0.4718	
0.120292	-0.09162199	1.096048	3.29	-0.77	0.56	-0.1442	0.1205	-0.4688	
0.123464	-0.095404	1.089582	7.63	0.91	0.91	-0.1491	0.1281	-0.4734	
0.122244	-0.091744	1.098	11.97	1.68	0.91	-0.1448	0.1309	-0.4717	
0.119804	-0.081496	1.095438	16.1	2.45	0.91	-0.1375	0.1274	-0.4808	
0.117608	-0.070516	1.096536	21.28	3.92	1.12	-0.1503	0.1238	-0.4688	
0.11468	-0.06734399	1.094218	26.32	4.41	0.56	-0.1409	0.1144	-0.4688	
0.106506	-0.045872	1.075186	34.37	5.32	-0.49	-0.1448	0.1027	-0.4722	
0.105774	-0.038308	1.080676	39.27	5.25	-0.28	-0.1397	0.1172	-0.4749	
0.107482	-0.028426	1.073356	42.77	5.46	-0.35	-0.1406	0.1069	-0.4735	
0.105164	-0.006344	1.050786	44.31	5.6	-1.19	-0.1497	0.1103	-0.4752	
0.114802	0.005612	1.061766	52.29	5.95	-0.14	-0.15	0.088	-0.4772	
0.114558	0.028914	1.029436	55.16	9.45	-0.63	-0.1398	0.0859	-0.4862	
0.106872	0.038674	1.028094	58.8	5.39	-2.03	-0.1381	0.0843	-0.4831	
0.09552599	0.051118	1.002596	57.47	12.74	-0.14	-0.1347	0.0752	-0.4848	
0.088206	0.093452	0.990762	63.98	9.52	-1.82	-0.1374	0.0663	-0.4927	
0.089914	0.111752	0.991128	70.28	8.68	-2.31	-0.1364	0.0485	-0.4914	
0.091744	0.133468	0.986126	73.5	9.73	-1.54	-0.137	0.0338	-0.4855	
0.079666	0.163602	0.952454	73.15	8.82	-1.89	-0.1293	0.0228	-0.4979	
0.063196	0.208132	0.903044	75.04	10.78	-0.84	-0.1237	0.0048	-0.4904	
0.06466	0.231312	0.91134	81.69	9.24	-0.07	-0.13	0.0095	-0.4981	
0.068442	0.247172	0.89548	80.99	12.53	0.21	-0.1216	-0.008599999	-0.4952	
0.058194	0.27877	0.887916	84	12.18	0.63	-0.1291	-0.0319	-0.4927	
0.062098	0.29951	0.857904	90.44	13.44	1.05	-0.1266	-0.0293	-0.5049	
0.044896	0.31415	0.80337	86.8	17.78	1.82	-0.1045	-0.0542	-0.5002	
0.022936	0.387472	0.787266	92.05	16.1	1.19	-0.1133	-0.0567	-0.5051	
-0.00488	0.456768	0.768844	93.24	14.56	0.77	-0.1121	-0.0744	-0.493	
-0.023546	0.488	0.736392	89.04	14.28	0.98	-0.1051	-0.094	-0.4901	
-0.024766	0.50081	0.698694	87.5	11.41	1.26	-0.1063	-0.103	-0.498	
-0.008052	0.522404	0.669658	84.42	9.87	0.91	-0.0994	-0.118	-0.4889	
-0.0122	0.56669	0.670634	85.33	7.98	-0.98	-0.1022	-0.1255	-0.4999	
-0.027694	0.60268	0.655872	83.65	8.05	-1.61	-0.0946	-0.1463	-0.4769	
-0.032208	0.620736	0.627202	80.36	6.51	-1.89	-0.0897	-0.1601	-0.4863	
-0.015494	0.676612	0.561688	80.78	5.88	-3.43	-0.0854	-0.1809	-0.4757	
-0.023668	0.76372	0.539484	80.15	8.47	-3.99	-0.0859	-0.1941	-0.4667	
-0.045628	0.827404	0.532408	76.86	10.36	-3.15	-0.0769	-0.1975	-0.4681	
-0.038552	0.831918	0.519354	70.42	9.73	-2.03	-0.0787	-0.2166	-0.4623	
-0.027816	0.799344	0.477874	62.16	6.79	-1.61	-0.08	-0.2226	-0.4655	
-0.02989	0.83509	0.461038	63.98	5.39	-3.99	-0.0718	-0.2317	-0.4516	
-0.060878	0.857904	0.427488	60.83	9.24	-3.29	-0.0773	-0.2342	-0.4425	
-0.073078	0.859612	0.403942	56.7	6.65	-3.99	-0.0652	-0.2393	-0.4408	
-0.069296	0.869128	0.392108	58.45	9.66	-4.83	-0.0747	-0.255	-0.4397	
-0.045994	0.887184	0.382958	51.45	4.13	0.56	-0.0736	-0.2713	-0.4323	
-0.040138	0.904996	0.386496	41.3	-9.52	1.4	-0.0653	-0.2613	-0.4304	
-0.07625	0.927444	0.378322	46.06	4.97	-2.24	-0.0639	-0.2835	-0.423	
-0.084058	0.921222	0.358314	45.01	10.99	-2.59	-0.0657	-0.279	-0.423	
-0.068686	0.908168	0.354898	42.63	9.45	-3.22	-0.0699	-0.2832	-0.4231	
-0.07442	0.926834	0.356972	41.37	7.28	-2.03	-0.0547	-0.2899	-0.4198	
-0.088938	0.95038	0.361974	38.99	5.39	0.07	-0.0631	-0.2968	-0.4155	
-0.106506	0.962946	0.353922	37.38	3.57	-0.07	-0.0563	-0.312	-0.4156	
-0.095282	0.940742	0.343674	31.78	3.99	-1.4	-0.0549	-0.306	-0.4047	
-0.081862	0.952088	0.348676	29.89	2.94	-2.45	-0.0604	-0.3146	-0.4065	
-0.091012	0.98881	0.340746	31.64	4.06	-2.1	-0.0567	-0.3235	-0.3911	
-0.09272	0.994178	0.313418	25.69	6.23	-2.45	-0.0574	-0.3147	-0.4018	
-0.098698	0.996496	0.315004	23.1	6.02	-3.22	-0.0526	-0.3178	-0.3925	
-0.104188	1.003206	0.316956	23.38	3.08	-2.03	-0.0547	-0.334	-0.3944	
-0.080642	1.02297	0.311832	24.99	-10.36	-1.05	-0.0442	-0.336	-0.3926	
-0.097844	1.026996	0.301462	3.15	-12.46	8.75	-0.0521	-0.3252	-0.3911	
-0.101382	1.02541	0.313052	16.38	-16.94	0.42	-0.0559	-0.3368	-0.3883	
-0.089182	1.00223	0.282918	16.8	-9.59	-0.91	-0.0564	-0.3294	-0.3928	
-0.068808	1.00467	0.30683	14.91	-17.57	0.21	-0.0557	-0.3398	-0.3883	
-0.072956	1.009428	0.298656	17.22	-21.14	0.21	-0.0664	-0.3317	-0.3853	
-0.07515199	1.008696	0.296094	15.26	-12.39	2.87	-0.0635	-0.3335	-0.393	
-0.066734	1.012722	0.292434	17.71	-8.82	2.24	-0.0672	-0.342	-0.3809	
-0.052094	0.995642	0.28609	12.46	-3.01	1.05	-0.0727	-0.3444	-0.3656	
-0.046238	0.990396	0.27755	8.19	-1.47	1.19	-0.06879999	-0.3358	-0.3716	
-0.060878	1.0187	0.27816	7.84	-1.47	1.75	-0.0561	-0.3512	-0.3654	
-0.055632	1.024922	0.277916	9.31	-2.59	1.26	-0.0651	-0.3509	-0.3717	
-0.054656	1.03578	0.26779	6.23	-0.77	1.61	-0.0681	-0.3507	-0.3733	
-0.052704	1.028216	0.264252	6.09	-1.05	1.4	-0.0686	-0.3403	-0.3732	
-0.057584	1.028582	0.25864	2.1	0.14	0.56	-0.0737	-0.3533	-0.3674	
-0.067588	1.038464	0.25254	1.05	-0.84	-0.56	-0.0649	-0.3538	-0.3718	
-0.084912	1.047248	0.251686	-1.82	-1.54	-0.63	-0.0651	-0.3509	-0.3748	
-0.070516	1.0248	0.269742	-2.59	-2.52	-0.84	-0.07099999	-0.3521	-0.3734	
-0.050752	1.0126	0.274622	-6.16	-1.4	-0.56	-0.0668	-0.3463	-0.3732	
-0.046848	1.009062	0.273524	-10.01	-0.28	-0.42	-0.07539999	-0.3518	-0.372	
-0.05368	1.013576	0.290848	-10.15	3.57	-1.12	-0.0594	-0.3452	-0.37	
-0.066002	1.014674	0.294386	-9.59	8.05	-0.91	-0.0777	-0.3384	-0.378	
-0.05673	1.008208	0.308172	-10.5	9.31	-0.7	-0.0611	-0.3452	-0.3762	
-0.046238	0.997228	0.296948	-13.37	7.14	-1.61	-0.0672	-0.342	-0.3793	
-0.055388	1.001742	0.296826	-17.15	5.18	-2.24	-0.0674	-0.339	-0.3824	
-0.07442	0.992592	0.285846	-20.44	5.6	-3.29	-0.0659	-0.3391	-0.3824	
-0.091134	0.994544	0.30927	-15.75	5.88	-2.94	-0.0573	-0.332	-0.3728	
-0.078446	0.991006	0.33306	-13.79	6.51	-2.31	-0.0527	-0.3414	-0.3883	
-0.057218	0.97844	0.34526	-15.19	2.38	-2.8	-0.0665	-0.3364	-0.4008	
-0.057584	0.99064	0.351848	-15.89	4.48	-3.57	-0.0607	-0.3337	-0.3976	
-0.063562	0.980148	0.347212	-18.41	7.42	-4.69	-0.0621	-0.3336	-0.393	
-0.06893	0.962214	0.35441	-18.41	11.83	-5.18	-0.0565	-0.328	-0.3958	
-0.079666	0.951112	0.360754	-25.97	0	-3.71	-0.0535	-0.3281	-0.3911	
-0.088572	0.944646	0.365146	-25.06	-5.74	-3.36	-0.0544	-0.3148	-0.4017	
-0.086254	0.95587	0.37454	-21.77	-5.46	-1.68	-0.0542	-0.3193	-0.4018	
-0.074176	0.962336	0.386252	-20.79	-4.76	-1.61	-0.0604	-0.313	-0.4018	
-0.066246	0.94428	0.388082	-26.04	-4.27	-3.08	-0.0581	-0.2997	-0.3969	
-0.06734399	0.933056	0.38674	-29.47	-3.71	-4.34	-0.0562	-0.3119	-0.4094	
-0.073444	0.923906	0.390156	-30.87	-5.88	-4.97	-0.0715	-0.3037	-0.4143	
-0.078202	0.910974	0.401746	-27.72	-6.51	-4.97	-0.0628	-0.2982	-0.4094	
-0.06527	0.893406	0.42883	-25.27	-6.86	-3.01	-0.0631	-0.2984	-0.4202	
-0.058316	0.876936	0.451034	-22.96	-7.35	-2.38	-0.0646	-0.2983	-0.4217	
-0.076982	0.860466	0.44103	-25.34	-4.83	-1.82	-0.0637	-0.288	-0.4231	
-0.073322	0.844728	0.436394	-26.46	-5.74	-2.03	-0.0565	-0.2854	-0.4244	
-0.062098	0.854732	0.454206	-25.13	-7.07	-1.12	-0.0653	-0.288	-0.4277	
-0.082594	0.882426	0.456036	-22.12	-7.84	0.77	-0.0613	-0.2839	-0.4368	
-0.074908	0.866322	0.47885	-19.32	-8.75	1.19	-0.0765	-0.2726	-0.4308	
-0.052704	0.837286	0.505934	-19.95	-7.7	-0.07	-0.0672	-0.2805	-0.4292	
-0.039284	0.823988	0.527284	-21.49	-5.95	-1.12	-0.0764	-0.2741	-0.4293	
-0.038308	0.811544	0.517646	-23.31	-4.62	-1.26	-0.073	-0.2832	-0.434	
-0.042212	0.797514	0.528504	-22.12	-4.48	0.14	-0.0697	-0.2642	-0.4382	
-0.045506	0.806542	0.544852	-21	-3.92	1.75	-0.074	-0.27	-0.4431	
-0.053558	0.814472	0.538996	-25.34	-2.24	2.1	-0.0763	-0.2519	-0.4366	
-0.072224	0.794708	0.571082	-23.31	-6.72	2.31	-0.0748	-0.2536	-0.4413	
-0.050752	0.779702	0.587796	-23.17	-8.54	1.89	-0.0714	-0.2612	-0.4413	
-0.029036	0.76982	0.59414	-24.22	-9.45	-0.21	-0.0722	-0.2509	-0.4489	
-0.019886	0.773602	0.605364	-20.58	-8.96	-0.28	-0.0737	-0.2478	-0.4458	
-0.030256	0.788242	0.608536	-19.46	-6.72	0.07	-0.0873	-0.2411	-0.4429	
-0.023302	0.777872	0.611098	-19.18	-3.85	-2.38	-0.07539999	-0.2463	-0.452	
-0.018666	0.772626	0.60878	-22.4	-2.45	-2.38	-0.0845	-0.2414	-0.4521	
-0.021228	0.764818	0.6039	-25.9	-1.61	-2.24	-0.0773	-0.2372	-0.4457	
-0.043066	0.7503	0.61061	-26.25	0.21	-0.7	-0.0791	-0.2312	-0.4487	
-0.062708	0.711992	0.630252	-22.89	-1.68	0.07	-0.0851	-0.2263	-0.4426	
-0.049898	0.69967	0.651968	-20.23	-5.95	0.42	-0.0795	-0.2222	-0.4439	
-0.02867	0.708942	0.666364	-21.28	-6.37	0	-0.0944	-0.2231	-0.4551	
-0.020496	0.725778	0.684176	-21.91	-2.73	0.07	-0.086	-0.2207	-0.4656	
-0.036478	0.69845	0.678808	-22.82	1.68	1.05	-0.0787	-0.2197	-0.467	
-0.056974	0.682712	0.685274	-18.76	-0.35	1.12	-0.0837	-0.2059	-0.4592	
-0.062586	0.681614	0.68808	-16.59	-1.75	1.4	-0.0818	-0.2181	-0.4717	
-0.05246	0.688934	0.684176	-15.82	-3.5	0.7	-0.0834	-0.2104	-0.4592	
-0.049654	0.698206	0.700402	-15.75	-3.85	-0.77	-0.0813	-0.1957	-0.4589	
-0.055388	0.69235	0.698572	-16.87	-3.85	-1.68	-0.087	-0.1999	-0.4638	
-0.057218	0.698816	0.702476	-16.52	-2.17	-2.31	-0.0884	-0.2012	-0.4607	
-0.053436	0.68442	0.711748	-15.68	-6.09	-3.08	-0.08989999	-0.2012	-0.4623	
-0.045628	0.660874	0.713212	-17.92	-6.79	-4.27	-0.086	-0.191	-0.462	
-0.050508	0.63074	0.713578	-15.82	-8.82	-4.83	-0.0891	-0.1941	-0.4776	
-0.040626	0.630008	0.744688	-13.3	-9.45	-3.08	-0.0875	-0.1941	-0.4714	
-0.024278	0.623054	0.760548	-12.81	-6.37	-0.63	-0.0882	-0.1852	-0.479	
-0.024522	0.62952	0.760182	-7.91	-3.01	1.47	-0.0903	-0.1953	-0.4684	
-0.043554	0.641964	0.747372	-4.9	-1.4	5.32	-0.1014	-0.1798	-0.4653	
-0.059658	0.651724	0.7381	-2.8	-1.68	6.93	-0.1024	-0.1886	-0.4624	
-0.067222	0.646722	0.73871	2.52	-4.69	8.33	-0.0986	-0.1801	-0.4714	
-0.052582	0.635254	0.73505	3.78	-7.56	9.8	-0.1027	-0.1843	-0.4669	
-0.043188	0.64233	0.744566	6.86	-7.49	11.06	-0.0985	-0.1847	-0.4776	
-0.046604	0.643428	0.743712	7.07	-8.05	12.95	-0.0968	-0.1877	-0.4777	
-0.055876	0.638304	0.736392	7.28	-6.23	14.77	-0.1128	-0.1897	-0.4704	
-0.055998	0.649284	0.730414	10.08	-6.37	15.82	-0.1083	-0.1914	-0.4703	
-0.058072	0.66673	0.728218	11.69	-6.37	16.94	-0.114	-0.1941	-0.4705	
-0.06649	0.66124	0.719678	15.4	-7.35	18.27	-0.1081	-0.1944	-0.4672	
-0.055266	0.661484	0.710772	15.96	-9.45	19.46	-0.1099	-0.1883	-0.4687	
-0.049166	0.66246	0.697962	16.45	-9.38	20.09	-0.1213	-0.1951	-0.4676	
-0.041358	0.66673	0.69235	16.94	-9.31	20.86	-0.1091	-0.2017	-0.4658	
-0.02623	0.672464	0.689178	17.5	-9.8	21.84	-0.1227	-0.1965	-0.4676	
-0.006588	0.66795	0.676124	18.27	-11.69	23.17	-0.1251	-0.2068	-0.4663	
0.004392	0.67588	0.676734	21.63	-13.23	24.71	-0.125	-0.2083	-0.4663	
0.008296	0.701988	0.664168	22.26	-11.2	25.9	-0.1221	-0.2039	-0.46	
0.010492	0.7137	0.650626	22.12	-10.71	26.67	-0.1335	-0.2122	-0.462	
0.033184	0.730414	0.635132	21.91	-11.13	26.53	-0.137	-0.2016	-0.4588	
0.07137	0.742248	0.62769	19.11	-11.76	27.3	-0.1362	-0.2134	-0.4543	
0.081984	0.74908	0.628178	17.64	-9.94	27.44	-0.136	-0.2194	-0.4575	
0.081252	0.768356	0.61488	19.11	-8.26	27.72	-0.1446	-0.2187	-0.4438	
0.08784	0.777018	0.5978	18.13	-10.57	27.3	-0.1446	-0.2187	-0.4469	
0.104432	0.779824	0.589626	19.32	-11.9	26.18	-0.146	-0.2232	-0.4516	
0.12383	0.78324	0.582306	18.2	-13.23	25.41	-0.1498	-0.2333	-0.4473	
0.150792	0.779092	0.557784	16.73	-12.18	23.73	-0.1599	-0.2357	-0.4429	
0.187636	0.7869	0.542046	17.29	-14	23.38	-0.1646	-0.2341	-0.4523	
0.208986	0.827892	0.544364	17.36	-12.46	24.57	-0.1648	-0.2296	-0.4491	
0.199348	0.840946	0.527528	15.19	-10.92	26.11	-0.1691	-0.2339	-0.4555	
0.189954	0.832894	0.514596	13.09	-12.32	25.97	-0.1629	-0.2355	-0.4445	
0.200446	0.818986	0.500688	11.2	-15.47	24.5	-0.1764	-0.2319	-0.4463	
0.221064	0.823866	0.496784	11.06	-18.34	23.31	-0.1785	-0.2435	-0.4389	
0.230092	0.828258	0.494344	11.62	-19.04	22.82	-0.1742	-0.2423	-0.4418	
0.244488	0.83326	0.488	11.27	-18.69	22.68	-0.1949	-0.2427	-0.4423	
0.267668	0.835578	0.492758	11.48	-21	22.05	-0.1921	-0.2352	-0.4298	
0.276818	0.865224	0.491538	11.34	-20.93	20.93	-0.1951	-0.2351	-0.4329	
0.271084	0.848998	0.480192	6.86	-20.23	19.25	-0.204	-0.2346	-0.4331	
0.287676	0.815204	0.473848	4.62	-21.56	17.22	-0.2155	-0.2369	-0.4288	
0.314028	0.812154	0.474458	6.44	-22.19	15.54	-0.223	-0.2365	-0.4321	
0.332328	0.815326	0.47092	5.88	-22.75	15.82	-0.2198	-0.2412	-0.4336	
0.347456	0.824232	0.477264	5.53	-21.98	15.82	-0.2241	-0.2392	-0.4198	
0.35685	0.846802	0.468602	4.41	-20.3	15.96	-0.2272	-0.2392	-0.426	
0.351116	0.848876	0.463966	-0.21	-20.44	15.47	-0.2363	-0.2342	-0.4261	
0.35685	0.83143	0.454694	-3.01	-19.67	14.49	-0.2364	-0.2296	-0.4184	
0.378322	0.81496	0.478972	-4.76	-20.16	12.46	-0.2448	-0.2397	-0.4249	
0.41663	0.800564	0.500444	-2.31	-22.12	10.99	-0.2495	-0.2334	-0.4203	
0.43859	0.815692	0.497028	-1.82	-20.16	9.87	-0.2435	-0.2337	-0.4186	
0.435418	0.799588	0.494832	-3.43	-17.36	9.24	-0.2567	-0.236	-0.4189	
0.43432	0.782508	0.487634	-3.22	-15.12	8.54	-0.2481	-0.232	-0.4202	
0.434442	0.789096	0.48556	-1.68	-13.72	8.12	-0.261	-0.2356	-0.4144	
0.44042	0.792024	0.479338	-2.38	-11.76	7.7	-0.2581	-0.2358	-0.4159	
0.448594	0.781532	0.477752	-3.29	-12.39	7	-0.2558	-0.2226	-0.4141	
0.479948	0.776408	0.517036	-1.96	-10.5	6.09	-0.2585	-0.2268	-0.4111	
0.49166	0.792634	0.533506	-1.05	-7.77	5.67	-0.2621	-0.2179	-0.4218	
0.50142	0.79483	0.516426	-1.26	-4.06	5.25	-0.2617	-0.2222	-0.4111	
0.500322	0.803858	0.50569	-1.26	-1.61	4.34	-0.2716	-0.2321	-0.4161	
0.48068	0.812276	0.499956	-2.73	0.42	2.03	-0.2771	-0.2141	-0.4206	
0.483974	0.80337	0.501176	-3.36	1.54	-1.12	-0.2633	-0.2207	-0.4157	
0.484706	0.791536	0.49715	-3.15	2.59	-4.34	-0.2763	-0.2259	-0.4146	
0.48007	0.801662	0.496906	-4.27	3.22	-6.23	-0.2706	-0.2218	-0.4159	
0.467138	0.793976	0.506544	-5.88	4.83	-8.75	-0.2724	-0.2173	-0.419	
0.45811	0.782752	0.509228	-6.3	6.23	-11.55	-0.2662	-0.2221	-0.4174	
0.466528	0.771284	0.517158	-5.46	8.05	-14.91	-0.2688	-0.2247	-0.4082	
0.486658	0.778116	0.529724	-3.29	9.94	-18.06	-0.2543	-0.2272	-0.4218	
0.470554	0.7808	0.520086	-4.2	13.72	-19.88	-0.265	-0.2192	-0.4219	
0.446642	0.781654	0.518622	-4.41	15.68	-21.7	-0.2531	-0.2183	-0.4139	
0.43676	0.780068	0.513498	-5.11	17.08	-23.17	-0.2426	-0.2249	-0.4215	
0.419314	0.786046	0.51362	-3.78	17.64	-24.99	-0.2502	-0.2231	-0.4278	
0.411384	0.804224	0.501786	-6.02	20.3	-26.46	-0.2443	-0.225	-0.4323	
0.391132	0.787144	0.499346	-8.89	21.35	-27.93	-0.2353	-0.2269	-0.4291	
0.378566	0.780922	0.508862	-8.19	21.98	-29.05	-0.2189	-0.2277	-0.4272	
0.350384	0.790804	0.511546	-7.14	23.24	-30.66	-0.2249	-0.2306	-0.4382	
0.328058	0.796172	0.521306	-5.88	24.43	-32.2	-0.2173	-0.2308	-0.4272	
0.317566	0.798246	0.524356	-5.39	23.73	-33.88	-0.2129	-0.2357	-0.4395	
0.307074	0.812276	0.519476	-6.51	24.5	-35.14	-0.2041	-0.2347	-0.4393	
0.285968	0.8052	0.518744	-7.56	25.69	-36.26	-0.1935	-0.2366	-0.4329	
0.251198	0.78995	0.526308	-8.12	25.69	-38.08	-0.1877	-0.2355	-0.4358	
0.210694	0.780922	0.5368	-6.58	25.97	-39.48	-0.1852	-0.2314	-0.445	
0.204716	0.779824	0.527162	-7.63	25.76	-39.76	-0.1778	-0.2318	-0.4448	
0.194346	0.784948	0.542778	-6.02	24.08	-39.76	-0.1654	-0.2444	-0.4494	
0.180194	0.802394	0.549854	-5.39	23.59	-39.69	-0.1684	-0.2396	-0.4401	
0.13725	0.81435	0.554124	-6.23	24.5	-39.9	-0.158	-0.2401	-0.4368	
0.121146	0.794342	0.567788	-7.21	20.86	-41.37	-0.1468	-0.2366	-0.455	
0.11712	0.787266	0.568398	-9.94	19.88	-42.07	-0.1449	-0.2394	-0.4426	
0.099186	0.786534	0.577792	-9.94	21.84	-41.44	-0.1362	-0.24	-0.4517	
0.07515199	0.767868	0.592676	-9.03	20.3	-39.13	-0.1363	-0.2385	-0.4501	
0.050996	0.766892	0.598898	-8.19	21	-36.26	-0.1184	-0.241	-0.4482	
0.019642	0.780068	0.60573	-7.77	20.37	-34.86	-0.1148	-0.2248	-0.4479	
-0.007686	0.774456	0.601704	-9.66	21.21	-35.35	-0.1188	-0.235	-0.4512	
-0.033916	0.734074	0.589016	-10.29	19.74	-36.33	-0.11	-0.2356	-0.4557	
-0.072956	0.748226	0.585234	-6.09	17.64	-38.78	-0.1084	-0.2356	-0.451	
-0.101626	0.774212	0.588284	-4.06	15.19	-39.76	-0.09649999	-0.2408	-0.4554	
-0.0915	0.776042	0.589382	-4.9	13.93	-40.74	-0.0966	-0.2347	-0.4461	
-0.089304	0.762988	0.604266	-8.61	13.93	-40.67	-0.0773	-0.2403	-0.4565	
-0.090158	0.723216	0.605364	-13.16	14.84	-39.83	-0.0809	-0.2283	-0.4564	
-0.10858	0.694302	0.606706	-14.91	16.94	-38.85	-0.08199999	-0.2356	-0.455	
-0.158112	0.713578	0.610244	-13.51	19.04	-37.03	-0.0676	-0.2305	-0.4577	
-0.189222	0.75396	0.61244	-9.66	20.3	-36.19	-0.057	-0.2325	-0.4544	
-0.16958	0.74603	0.609756	-11.41	20.23	-37.66	-0.053	-0.2253	-0.4542	
-0.15921	0.7198	0.63867	-13.09	19.95	-39.13	-0.0518	-0.2256	-0.4665	
-0.210694	0.704428	0.63318	-12.39	21.56	-37.73	-0.045	-0.214	-0.463	
-0.252174	0.71797	0.644892	-10.5	22.75	-34.65	-0.0327	-0.2236	-0.466	
-0.228628	0.697596	0.637816	-10.92	21.91	-30.87	-0.0373	-0.2204	-0.4645	
-0.243146	0.696864	0.624152	-9.52	21.56	-28.7	-0.0213	-0.2138	-0.4609	
-0.268156	0.698816	0.628666	-7.56	22.05	-29.05	-0.0186	-0.211	-0.4639	
-0.297192	0.697474	0.613294	-6.93	24.57	-28.7	-0.0244	-0.2106	-0.461	
-0.29585	0.71309	0.605608	-7.84	24.99	-26.53	-0.0112	-0.213	-0.4699	
-0.292068	0.698206	0.620004	-7.7	22.47	-25.41	-0.0174	-0.2036	-0.4607	
-0.301584	0.691984	0.622078	-6.37	23.38	-24.15	0.0036	-0.2106	-0.4541	
-0.32208	0.681004	0.632814	-5.81	22.05	-23.94	0.0017	-0.2016	-0.454	
-0.368318	0.690764	0.641842	-4.41	23.73	-23.73	0.0095	-0.2094	-0.4524	
-0.392596	0.717238	0.642452	-3.36	25.41	-22.26	0.024	-0.2089	-0.4644	
-0.389302	0.695156	0.629886	-5.32	23.59	-23.03	0.0217	-0.1924	-0.4611	
-0.391376	0.691374	0.608658	-5.81	23.24	-24.15	0.0248	-0.1955	-0.4595	
-0.411018	0.695278	0.597312	-5.04	22.26	-24.43	0.0338	-0.1943	-0.4501	
-0.410408	0.681004	0.589992	-5.74	21.14	-23.17	0.0475	-0.2025	-0.4514	
-0.426146	0.659898	0.579866	-6.51	19.88	-21.7	0.0344	-0.1858	-0.47	
-0.45506	0.674416	0.589748	-6.16	18.41	-20.79	0.0482	-0.1907	-0.4558	
-0.472506	0.667828	0.590114	-5.6	17.43	-20.16	0.0456	-0.195	-0.4529	
-0.47275	0.67283	0.598776	-5.18	16.03	-19.11	0.0525	-0.1849	-0.4495	
-0.471286	0.66002	0.59231	-7.42	12.11	-17.99	0.0691	-0.1949	-0.4585	
-0.479216	0.651724	0.59963	-7.14	10.99	-16.73	0.0629	-0.1901	-0.457	
-0.477386	0.648796	0.609634	-5.67	9.38	-14.98	0.0611	-0.1856	-0.4616	
-0.4697	0.645624	0.606218	-5.04	10.43	-12.88	0.06439999	-0.1855	-0.4476	
-0.492758	0.644892	0.61427	-5.81	11.34	-11.27	0.0655	-0.1843	-0.4584	
-0.509228	0.648552	0.6161	-4.2	9.73	-9.94	0.0729	-0.1816	-0.452	
-0.500322	0.636352	0.611342	-5.25	8.12	-8.47	0.072	-0.1935	-0.4538	
-0.503982	0.624884	0.613172	-5.04	5.18	-6.09	0.0681	-0.177	-0.4598	
-0.500444	0.614636	0.619516	-4.97	1.82	-3.22	0.0699	-0.1831	-0.4583	
-0.523746	0.628178	0.632936	-3.78	1.19	0.56	0.0743	-0.1802	-0.4535	
-0.535458	0.624152	0.647088	-2.1	0.28	2.03	0.076	-0.1832	-0.4489	
-0.533018	0.60878	0.648918	-1.68	-0.21	3.57	0.0682	-0.1754	-0.452	
-0.514596	0.590724	0.642452	-0.28	-2.24	5.74	0.0772	-0.1774	-0.4503	
-0.51484	0.59109	0.642574	1.47	-4.2	8.47	0.0762	-0.1878	-0.4536	
-0.514596	0.584624	0.643794	2.94	-4.41	11.76	0.0655	-0.1797	-0.4491	
-0.517524	0.587796	0.62708	5.18	-4.34	15.12	0.0669	-0.1814	-0.4568	
-0.520086	0.6039	0.628788	6.37	-6.58	18.2	0.0733	-0.1891	-0.4537	
-0.517036	0.605364	0.637938	7.49	-8.33	20.79	0.0791	-0.191	-0.4613	
-0.514352	0.601338	0.63074	7.77	-9.45	23.66	0.073	-0.1847	-0.4567	
-0.493612	0.585234	0.623786	9.59	-13.09	26.67	0.0583	-0.1853	-0.454	
-0.486658	0.60024	0.617198	10.85	-16.1	29.82	0.048	-0.1863	-0.4542	
-0.489098	0.615002	0.62525	11.76	-17.29	32.9	0.0454	-0.1936	-0.4575	
-0.459574	0.62342	0.627812	10.71	-17.71	36.75	0.0474	-0.201	-0.4514	
-0.447252	0.632936	0.629398	11.9	-18.41	39.06	0.0411	-0.1948	-0.4545	
-0.412482	0.617564	0.626348	12.67	-21.28	41.16	0.0464	-0.2068	-0.4453	
-0.397598	0.622078	0.61488	13.23	-20.09	43.47	0.033	-0.2107	-0.4581	
-0.407358	0.672464	0.597922	14.63	-20.23	46.76	0.0252	-0.2029	-0.4597	
-0.391742	0.679174	0.587674	14.63	-19.95	49.49	0.0259	-0.2133	-0.4552	
-0.35075	0.66978	0.594994	15.26	-22.4	50.75	0.0188	-0.2157	-0.4461	
-0.334646	0.666364	0.58743	16.73	-21.42	51.8	0.0022	-0.2151	-0.462	
-0.30805	0.684542	0.573522	16.38	-22.61	53.41	0.005	-0.2138	-0.4649	
-0.297314	0.696864	0.56059	17.78	-23.59	54.46	-0.006	-0.2219	-0.453	
-0.281942	0.730658	0.570228	20.02	-25.41	55.44	-0.0053	-0.2338	-0.4532	
-0.265594	0.759084	0.56486	21.21	-25.48	56	-0.0227	-0.2434	-0.4599	
-0.217648	0.759084	0.55998	20.09	-27.16	55.93	-0.0286	-0.2369	-0.4476	
-0.173118	0.772748	0.53741	18.34	-29.89	54.6	-0.042	-0.2362	-0.4495	
-0.132614	0.791536	0.53924	17.22	-30.87	53.55	-0.0537	-0.2401	-0.456	
-0.083204	0.806542	0.542656	18.41	-29.96	53.48	-0.0473	-0.2463	-0.4467	
-0.041846	0.841556	0.54473	17.78	-20.09	54.11	-0.0799	-0.243	-0.4443	
-0.03599	0.84973	0.522282	13.44	-17.22	52.5	-0.07539999	-0.2432	-0.4411	
-0.021472	0.833992	0.507886	8.4	-29.19	48.65	-0.0866	-0.2514	-0.4353	
-0.010492	0.825452	0.496906	5.81	-25.69	46.27	-0.0866	-0.2514	-0.4353	
0.016348	0.788608	0.482632	9.03	-26.6	44.94	-0.1034	-0.2447	-0.4479	
0.06039	0.781288	0.477508	14.14	-33.11	44.52	-0.1148	-0.2515	-0.4437	
0.100406	0.801784	0.48434	12.74	-31.92	45.22	-0.1148	-0.2515	-0.4437	
0.13176	0.803004	0.485926	8.82	-33.53	45.85	-0.1319	-0.2578	-0.4334	
0.160918	0.819474	0.510326	7.77	-29.19	46.55	-0.1319	-0.2578	-0.4334	
0.189222	0.786534	0.513864	9.1	-29.61	46.97	-0.1337	-0.2517	-0.4333	
0.222284	0.796538	0.514718	10.57	-33.88	47.04	-0.163	-0.2561	-0.4325	
0.23912	0.80276	0.502274	9.52	-31.85	46.97	-0.163	-0.2561	-0.4325	
0.255102	0.822524	0.503982	9.45	-31.01	46.2	-0.1595	-0.2636	-0.428	
0.261934	0.840214	0.500078	8.54	-28.21	45.22	-0.1703	-0.2572	-0.4327	


0.290482	0.819474	0.46848	0	-30.45	39.13	-0.1898	-0.2501	-0.43	
0.301584	0.79605	0.467748	-0.84	-31.5	37.38	-0.203	-0.2478	-0.4194	

0.386374	0.806786	0.501176	2.59	-32.69	37.66	-0.2139	-0.2399	-0.4273	
0.407114	0.845704	0.497028	1.05	-29.61	37.73	-0.2209	-0.2439	-0.4213	
0.400282	0.83204	0.481656	-3.15	-28.7	35.98	-0.2299	-0.2404	-0.4184	

0.435418	0.76616	0.473482	-3.99	-29.33	30.73	-0.2538	-0.2315	-0.4111	
0.440176	0.794464	0.466162	-3.36	-26.32	29.96	-0.2537	-0.233	-0.4126	
0.449204	0.793488	0.479704	-5.6	-24.92	29.05	-0.2673	-0.2294	-0.416	
0.481534	0.760182	0.479216	-6.23	-26.04	27.23	-0.2689	-0.2263	-0.4129	
0.492026	0.753838	0.467992	-3.36	-26.25	25.34	-0.2688	-0.2247	-0.4067	
0.517646	0.764574	0.48739	-2.73	-25.55	23.8	-0.2851	-0.2239	-0.4086	
0.53131	0.770796	0.487146	-4.2	-21.21	23.03	-0.2929	-0.2191	-0.4133	
0.533018	0.772016	0.479094	-6.58	-18.06	21.49	-0.2913	-0.216	-0.4009	
0.535092	0.77592	0.47763	-5.67	-17.01	19.46	-0.2883	-0.2192	-0.407	
0.548512	0.760182	0.469456	-6.02	-15.05	17.57	-0.3046	-0.2183	-0.4074	
0.570594	0.756522	0.474214	-4.83	-14.35	16.17	-0.2988	-0.2188	-0.415	
0.576694	0.76494	0.479704	-5.25	-11.9	14.56	-0.3095	-0.2092	-0.4073	
0.58133	0.768844	0.487024	-5.46	-9.17	13.3	-0.3113	-0.2	-0.3995	
0.573522	0.766038	0.483608	-5.18	-7.42	11.48	-0.3086	-0.1988	-0.4071	
0.574986	0.76616	0.476654	-6.58	-5.46	9.17	-0.3094	-0.2106	-0.4058	
0.578524	0.747128	0.477386	-7.28	-3.78	7.07	-0.3146	-0.1955	-0.4072	
0.569618	0.74908	0.478118	-6.3	-2.38	5.04	-0.3213	-0.2085	-0.4045	
0.559492	0.753106	0.47641	-5.95	-0.98	2.24	-0.3144	-0.2	-0.4058	
0.560102	0.742126	0.462746	-7.42	0.21	-0.91	-0.3157	-0.1982	-0.395	
0.560834	0.726388	0.468968	-6.37	-0.14	-3.71	-0.3128	-0.1985	-0.3995	
0.563274	0.725046	0.477996	-5.53	0.56	-6.02	-0.319	-0.1968	-0.4058	
0.56242	0.729926	0.482022	-5.18	1.19	-7.91	-0.3194	-0.1894	-0.4088	
0.572058	0.736148	0.491416	-3.71	1.05	-10.36	-0.3149	-0.1911	-0.4072	
0.568764	0.73322	0.482388	-2.8	1.26	-13.37	-0.3126	-0.2076	-0.412	
0.556686	0.736026	0.47336	-0.63	2.17	-17.5	-0.3082	-0.2078	-0.4119	
0.55876	0.761768	0.477508	-0.49	4.34	-20.16	-0.3153	-0.2103	-0.4044	
0.594628	0.775066	0.503616	-2.38	5.88	-24.36	-0.3116	-0.1925	-0.3948	
0.60756	0.774822	0.512888	-4.55	10.29	-27.37	-0.3022	-0.2081	-0.4087	
0.58377	0.765794	0.518988	-6.51	16.1	-29.54	-0.2988	-0.2157	-0.4088	
0.554124	0.754326	0.511912	-7.77	21.42	-31.43	-0.2978	-0.2099	-0.4133	
0.536434	0.751032	0.492026	-8.26	24.01	-33.67	-0.2914	-0.2145	-0.4039	
0.519842	0.76311	0.489098	-7.14	26.88	-36.4	-0.2931	-0.2162	-0.4179	
0.50996	0.765672	0.493368	-7.49	29.61	-37.45	-0.2773	-0.2066	-0.4143	
0.473482	0.767258	0.495198	-8.75	31.78	-38.85	-0.2633	-0.2223	-0.4204	
0.444446	0.76189	0.495808	-9.59	32.55	-41.72	-0.2681	-0.2161	-0.4219	
0.43066	0.76677	0.498248	-8.96	32.9	-45.36	-0.2565	-0.2169	-0.4294	
0.417118	0.751276	0.504104	-7.98	33.18	-48.37	-0.2486	-0.2278	-0.4356	
0.384666	0.753472	0.507276	-6.79	35.7	-49.49	-0.241	-0.2295	-0.4277	
0.358558	0.751032	0.506666	-5.81	35.7	-49.14	-0.2339	-0.2224	-0.4228	
0.324276	0.746152	0.505202	-5.88	36.89	-48.23	-0.2217	-0.2305	-0.4227	
0.286456	0.773358	0.504714	-5.11	36.26	-48.02	-0.2218	-0.2306	-0.4304	
0.2684	0.78263	0.502152	-6.51	32.69	-48.93	-0.2099	-0.2343	-0.4363	
0.252296	0.770064	0.516304	-3.85	33.6	-51.38	-0.1986	-0.2276	-0.4421	
0.226066	0.772504	0.53863	-4.2	32.41	-52.15	-0.1881	-0.2296	-0.4358	
0.20923	0.775798	0.546926	-3.22	32.27	-51.38	-0.1732	-0.2318	-0.4354	
0.191174	0.790072	0.55815	-1.47	32.41	-49.84	-0.1808	-0.23	-0.4402	
0.167262	0.810934	0.56364	-2.8	30.87	-49.42	-0.1615	-0.2341	-0.446	
0.140422	0.815326	0.594872	-4.06	31.01	-49.49	-0.1498	-0.2302	-0.4411	
0.108458	0.794342	0.58255	-7.56	31.36	-51.24	-0.1463	-0.2393	-0.4396	
0.059902	0.799588	0.56852	-6.09	33.81	-52.78	-0.1346	-0.24	-0.444	
-0.000366	0.787754	0.560224	-9.31	33.6	-54.04	-0.1112	-0.2384	-0.448	
-0.03111	0.766038	0.576816	-12.95	31.78	-55.51	-0.1157	-0.2351	-0.445	
-0.045262	0.721874	0.595116	-16.31	31.64	-55.16	-0.0982	-0.2331	-0.4476	
-0.078202	0.693814	0.595116	-14.49	29.89	-54.25	-0.0905	-0.2365	-0.4444	
-0.112728	0.708332	0.585478	-12.04	29.54	-52.71	-0.08199999	-0.2341	-0.4503	
-0.11773	0.712724	0.592188	-12.39	29.75	-51.52	-0.0761	-0.2344	-0.4533	
-0.123342	0.70394	0.599386	-12.81	32.2	-50.75	-0.06439999	-0.2321	-0.4514	
-0.201056	0.718702	0.589016	-11.62	35.21	-48.44	-0.0607	-0.2266	-0.4698	
-0.261202	0.73566	0.580964	-12.04	34.65	-47.11	-0.0457	-0.2242	-0.454	
-0.274744	0.733098	0.58682	-13.51	31.43	-46.76	-0.0367	-0.2308	-0.4616	
-0.277184	0.70272	0.58499	-15.89	28	-47.25	-0.0367	-0.2262	-0.4538	
-0.257298	0.660752	0.592798	-16.87	24.85	-47.11	-0.0238	-0.2225	-0.4611	
-0.250222	0.624762	0.61549	-14.07	24.36	-46.06	-0.0209	-0.2228	-0.4642	
-0.279868	0.637938	0.62952	-9.59	29.89	-42.91	-0.0112	-0.2083	-0.4575	
-0.350384	0.685396	0.603168	-7.28	30.73	-40.32	-0.0092	-0.2173	-0.453	
-0.35014	0.704672	0.614758	-7.35	27.93	-39.55	0.0035	-0.2106	-0.4588	
-0.33245	0.676246	0.607316	-9.1	29.12	-40.25	0.0153	-0.2098	-0.4569	
-0.35014	0.6588	0.600118	-10.36	32.2	-40.11	0.0211	-0.2101	-0.4614	
-0.399184	0.649772	0.593286	-10.92	32.69	-38.85	0.0135	-0.2038	-0.4599	
-0.422242	0.652944	0.58438	-9.8	34.93	-36.47	0.0267	-0.2045	-0.4612	
-0.428586	0.655018	0.58926	-8.4	33.53	-35.21	0.0411	-0.1964	-0.4607	
-0.474702	0.659044	0.585722	-8.47	34.3	-34.72	0.0499	-0.1938	-0.4543	
-0.511058	0.671366	0.597922	-7.77	30.52	-35.21	0.0617	-0.1929	-0.4509	
-0.51728	0.655628	0.587064	-8.96	29.89	-35.07	0.0676	-0.1932	-0.4523	
-0.52826	0.640744	0.581086	-9.8	26.32	-35	0.0659	-0.1918	-0.4585	
-0.540094	0.630008	0.581086	-9.66	21.14	-33.88	0.0821	-0.1881	-0.4519	
-0.561688	0.617564	0.599874	-7.63	19.53	-31.01	0.0755	-0.1774	-0.4581	
-0.56791	0.596336	0.598654	-8.82	18.69	-27.3	0.0788	-0.182	-0.4519	
-0.559736	0.585112	0.600606	-7.84	15.26	-24.22	0.09209999	-0.178	-0.4407	
-0.571814	0.599874	0.595238	-6.93	13.02	-21.07	0.0816	-0.1792	-0.4549	
-0.583282	0.584868	0.57584	-8.54	12.88	-17.99	0.0947	-0.1754	-0.4529	
-0.596336	0.581208	0.58438	-7.77	12.67	-14.84	0.1003	-0.1682	-0.4496	
-0.603046	0.60573	0.582916	-6.72	9.8	-11.55	0.09299999	-0.1708	-0.4514	
-0.6039	0.598166	0.59048	-7.21	8.4	-8.89	0.1015	-0.1623	-0.4448	
-0.599996	0.589748	0.594628	-7	5.32	-6.51	0.1065	-0.1714	-0.4433	
-0.595848	0.588162	0.600484	-6.09	2.59	-5.11	0.1055	-0.1567	-0.4524	
-0.582306	0.575596	0.603656	-4.97	-0.07	-3.22	0.0971	-0.1605	-0.4434	
-0.580964	0.55815	0.597312	-4.48	-1.61	-1.12	0.0998	-0.1577	-0.4448	
-0.581086	0.557296	0.609146	-3.64	-2.03	1.68	0.1041	-0.1596	-0.4555	
-0.5978	0.572424	0.607072	-3.22	-1.96	4.83	0.1001	-0.1699	-0.4604	
-0.601216	0.547414	0.61	-4.69	-1.47	7.49	0.1074	-0.1611	-0.4447	
-0.606462	0.552416	0.61305	-2.87	-3.15	9.03	0.09429999	-0.1664	-0.4497	
-0.608414	0.548024	0.625006	-2.31	-4.83	10.08	0.1027	-0.1626	-0.4587	
-0.597678	0.53375	0.639646	0.35	-7.35	11.41	0.0957	-0.1665	-0.4512	
-0.601216	0.539728	0.642086	3.22	-8.26	14.21	0.09869999	-0.1667	-0.4512	
-0.585966	0.545828	0.62891	4.34	-10.01	17.64	0.1041	-0.1596	-0.4555	
-0.57584	0.559126	0.626226	5.74	-11.55	20.16	0.0929	-0.1663	-0.4467	
-0.579744	0.54961	0.624396	7.14	-12.32	22.12	0.0942	-0.1665	-0.4543	
-0.57645	0.545706	0.62525	8.4	-13.09	24.85	0.0913	-0.1678	-0.4529	
-0.59353	0.565348	0.614514	10.29	-15.05	28.77	0.0927	-0.1679	-0.4559	
-0.590968	0.588772	0.61915	11.41	-19.04	32.48	0.0771	-0.1744	-0.4472	
-0.534238	0.55693	0.626348	12.46	-23.8	36.47	0.0729	-0.1832	-0.4551	
-0.513864	0.569374	0.623176	15.12	-26.32	40.11	0.0743	-0.1833	-0.4582	
-0.489464	0.578646	0.60573	16.17	-27.23	44.45	0.0676	-0.1902	-0.4477	
-0.464576	0.574864	0.621834	17.15	-26.11	47.74	0.0587	-0.1912	-0.4494	
-0.449448	0.581086	0.6161	19.6	-24.5	51.38	0.0515	-0.1953	-0.4527	
-0.437126	0.624274	0.599508	20.65	-26.67	54.11	0.0447	-0.2038	-0.4484	
-0.428952	0.651236	0.579256	18.97	-27.51	56	0.0348	-0.2122	-0.4488	
-0.402722	0.64782	0.577792	19.95	-29.05	56.7	0.0284	-0.206	-0.4566	
-0.36295	0.654286	0.579012	22.4	-28.63	57.54	0.0201	-0.2144	-0.4507	
-0.338672	0.688446	0.575352	23.38	-27.58	59.64	0.006	-0.2285	-0.4575	
-0.305732	0.685884	0.570106	22.05	-29.68	61.6	0.0014	-0.2238	-0.4544	
-0.27511	0.671	0.57706	22.05	-30.66	62.72	-0.0084	-0.2275	-0.4439	
-0.264252	0.688934	0.55937	25.27	-30.38	63	-0.015	-0.2405	-0.4412	
-0.259494	0.766282	0.532774	28.56	-30.73	63.07	-0.0304	-0.2309	-0.4476	
-0.237168	0.813496	0.517158	26.88	-31.08	61.67	-0.0322	-0.2499	-0.4402	
-0.194834	0.80642	0.521306	23.31	-33.67	59.64	-0.0436	-0.2598	-0.4468	
-0.129198	0.774334	0.534482	20.93	-35.84	58.66	-0.0574	-0.2486	-0.4423	
-0.060878	0.76067	0.5246	18.9	-36.89	59.43	-0.0601	-0.2513	-0.4378	
-0.030866	0.782996	0.51484	20.72	-34.44	60.83	-0.0716	-0.2551	-0.435	
-0.024522	0.83692	0.50386	21.98	-27.79	61.74	-0.0807	-0.2548	-0.4445	
-0.000366	0.857904	0.518988	19.04	-32.34	58.45	-0.097	-0.2509	-0.4386	
0.02684	0.852292	0.499712	15.33	-35.98	56.28	-0.0948	-0.2643	-0.4388	
0.059414	0.831674	0.460672	13.86	-33.04	54.53	-0.106	-0.2678	-0.4175	
0.118706	0.793244	0.453352	14.91	-41.16	53.06	-0.12	-0.2615	-0.4378	
0.144692	0.824354	0.445056	16.45	-35.42	53.2	-0.1375	-0.2588	-0.4212	
0.153842	0.832528	0.440176	13.09	-33.39	53.76	-0.1415	-0.2675	-0.4245	
0.192638	0.845338	0.450912	9.59	-34.58	52.99	-0.1582	-0.2607	-0.4263	
0.232044	0.832162	0.466406	5.67	-34.79	50.54	-0.1621	-0.2663	-0.4188	
0.258274	0.810812	0.442616	3.43	-31.85	48.72	-0.1715	-0.2538	-0.4111	
0.325496	0.818132	0.48556	4.69	-34.93	47.88	-0.1783	-0.2684	-0.4208	
0.352702	0.828136	0.499956	4.27	-35	49.7	-0.1902	-0.2632	-0.4132	
0.342942	0.84119	0.480436	3.99	-29.89	51.45	-0.2069	-0.2595	-0.4244	
0.346114	0.835212	0.44957	4.13	-30.87	50.61	-0.2114	-0.2532	-0.4136	
0.352458	0.820084	0.43432	2.03	-33.25	46.83	-0.2173	-0.2528	-0.4137	
0.353068	0.793366	0.421876	-2.52	-33.11	43.82	-0.2189	-0.2498	-0.4137	
0.379298	0.778604	0.427488	-3.08	-33.53	41.93	-0.2313	-0.2418	-0.42	
0.419436	0.804956	0.453474	0.7	-33.18	42	-0.2443	-0.2408	-0.4048	
0.435784	0.80398	0.424438	0	-34.93	42.07	-0.2412	-0.244	-0.4079	
0.453108	0.79544	0.436882	-0.42	-34.58	41.09	-0.2593	-0.2402	-0.416	
0.474946	0.793244	0.457378	-0.42	-32.2	38.57	-0.2649	-0.2427	-0.4069	
0.523136	0.803614	0.491294	1.75	-32.83	35.98	-0.2669	-0.2353	-0.4114	
0.543022	0.803126	0.47092	-1.82	-28	33.95	-0.2684	-0.2352	-0.413	
0.524844	0.787876	0.430782	-3.15	-25.41	31.64	-0.2846	-0.2281	-0.3963	
0.516304	0.78446	0.427366	-1.96	-24.85	29.12	-0.2923	-0.2233	-0.3979	
0.533262	0.783484	0.448716	-0.98	-22.4	26.88	-0.2993	-0.2273	-0.392	
0.5429	0.78202	0.419924	-3.57	-19.67	25.34	-0.2978	-0.2335	-0.4044	
0.535092	0.77653	0.413458	-6.37	-19.81	23.73	-0.3086	-0.2209	-0.3952	
0.55022	0.78202	0.413458	-6.93	-21.49	21.14	-0.3101	-0.2193	-0.3937	

0.570106	0.746762	0.431514	-7.77	-19.53	17.22	-0.315	-0.2132	-0.3998	
0.600118	0.76738	0.444324	-6.23	-19.32	16.03	-0.324	-0.2036	-0.3844	
0.633546	0.750666	0.463112	-5.67	-16.52	12.95	-0.3253	-0.2064	-0.3814	
0.616466	0.75518	0.445178	-4.06	-14.21	11.76	-0.3373	-0.2074	-0.3925	
0.602436	0.7686	0.447008	-2.94	-12.18	8.54	-0.3371	-0.2073	-0.3833	
0.601216	0.751398	0.42212	-5.25	-9.94	4.06	-0.3331	-0.1955	-0.3753	
0.621102	0.731146	0.425658	-5.32	-8.61	1.61	-0.3354	-0.2072	-0.374	
0.623054	0.74115	0.442128	-5.81	-6.44	0.21	-0.3389	-0.2043	-0.391	
0.625128	0.733952	0.447252	-6.3	-3.22	-0.7	-0.3356	-0.2074	-0.3848	
0.624518	0.733586	0.445544	-5.95	-0.63	-2.24	-0.3289	-0.1959	-0.386	
0.61	0.731634	0.431636	-5.88	1.82	-4.2	-0.3269	-0.2003	-0.3752	
0.607682	0.73322	0.443348	-4.41	2.38	-6.44	-0.3333	-0.191	-0.3736	
0.615124	0.743224	0.438834	-3.5	2.94	-8.75	-0.3351	-0.1911	-0.3876	
0.60573	0.754814	0.444934	-3.99	5.18	-11.13	-0.3363	-0.1986	-0.3924	
0.61732	0.762012	0.46116	-4.41	6.16	-14.42	-0.3389	-0.2028	-0.3863	
0.615246	0.76189	0.457378	-4.83	8.68	-17.15	-0.3318	-0.1988	-0.3923	
0.620004	0.749324	0.45811	-4.55	10.43	-19.88	-0.3349	-0.1972	-0.3954	
0.619638	0.749202	0.456646	-5.88	12.88	-22.12	-0.3208	-0.2097	-0.386	
0.59475	0.751764	0.448716	-6.58	15.96	-23.87	-0.333	-0.2078	-0.3986	
0.57706	0.753472	0.456768	-6.93	18.55	-26.88	-0.3196	-0.2054	-0.3905	
0.56852	0.757376	0.46116	-7	21.21	-30.24	-0.3078	-0.2122	-0.4074	
0.573888	0.755058	0.46421	-6.58	23.17	-34.09	-0.311	-0.206	-0.3996	
0.556564	0.747128	0.464454	-7.56	26.95	-36.82	-0.3014	-0.2199	-0.3996	
0.52582	0.73627	0.461526	-8.26	28.63	-39.27	-0.2975	-0.2097	-0.4009	
0.490074	0.724192	0.460062	-6.79	31.36	-41.02	-0.2945	-0.2099	-0.4008	
0.48312	0.735294	0.4697	-4.83	30.52	-42.28	-0.2752	-0.2155	-0.4082	
0.475068	0.759572	0.467016	-6.02	32.76	-42.49	-0.266	-0.2219	-0.405	
0.442372	0.74237	0.470554	-7.7	33.74	-42.77	-0.2709	-0.2158	-0.4112	
0.398574	0.75152	0.467382	-5.95	33.46	-42.91	-0.2644	-0.228	-0.4143	
0.38735	0.775798	0.48617	-4.48	36.33	-43.82	-0.253	-0.2213	-0.4155	
0.35746	0.773114	0.493978	-5.53	35.28	-45.08	-0.2438	-0.2293	-0.4201	
0.321226	0.775798	0.500444	-2.45	35.91	-45.5	-0.2332	-0.2358	-0.423	
0.304512	0.779702	0.492148	-4.62	32.9	-46.48	-0.2229	-0.2333	-0.4197	
0.294508	0.790072	0.497882	-4.55	32.62	-47.04	-0.2149	-0.2472	-0.4228	
0.286822	0.7991	0.515084	-3.64	34.09	-48.09	-0.2005	-0.239	-0.4223	
0.262788	0.803248	0.522892	-4.69	34.65	-49.49	-0.1928	-0.247	-0.4269	
0.208376	0.821304	0.519598	-5.74	35.63	-49.63	-0.1951	-0.2381	-0.4392	
0.170434	0.830576	0.529236	-8.26	34.93	-49.77	-0.1724	-0.2437	-0.4295	
0.15128	0.809714	0.552416	-8.47	32.83	-50.19	-0.1679	-0.2469	-0.4325	
0.151524	0.77592	0.565836	-7	30.24	-50.68	-0.1488	-0.248	-0.4382	
0.119438	0.772992	0.575962	-7.77	31.99	-51.1	-0.1563	-0.2446	-0.4353	
0.080154	0.76738	0.576938	-7.56	33.53	-50.61	-0.143	-0.2453	-0.435	
0.048434	0.790682	0.57828	-9.52	35.91	-49.35	-0.1428	-0.2499	-0.4397	
0.023302	0.772504	0.562176	-11.06	38.57	-48.72	-0.1327	-0.246	-0.4394	
-0.015128	0.75274	0.56303	-11.06	42.07	-47.39	-0.114	-0.2397	-0.4466	
-0.066124	0.751276	0.561932	-9.31	35.63	-46.62	-0.1022	-0.2465	-0.4603	
-0.1098	0.776652	0.55022	-7.14	37.1	-46.34	-0.0915	-0.2438	-0.4399	
-0.1098	0.768966	0.561322	-9.8	35.84	-46.06	-0.09	-0.2485	-0.4508	
-0.099308	0.719312	0.578768	-14.63	34.86	-45.43	-0.08329999	-0.2354	-0.4489	
-0.139446	0.69601	0.57645	-14.28	34.3	-44.66	-0.0747	-0.2299	-0.4439	
-0.203862	0.713944	0.568276	-9.94	35.42	-42.56	-0.054	-0.2326	-0.4512	
-0.23302	0.745786	0.56303	-7.28	33.46	-39.9	-0.0455	-0.2302	-0.4587	
-0.248392	0.774334	0.573522	-7.56	29.19	-39.06	-0.0394	-0.2273	-0.4431	
-0.24461	0.753472	0.581452	-10.01	23.38	-41.23	-0.0243	-0.2341	-0.4444	
-0.246318	0.703696	0.587064	-12.67	25.55	-40.46	-0.0232	-0.2283	-0.4489	
-0.259738	0.689178	0.58499	-11.9	27.37	-37.45	-0.0241	-0.2165	-0.458	
-0.274866	0.703208	0.585478	-9.03	26.46	-34.79	-0.0043	-0.228	-0.4592	
-0.284138	0.701256	0.60573	-8.19	22.96	-33.67	-0.0133	-0.223	-0.4516	
-0.336476	0.727608	0.600728	-6.58	26.25	-31.99	0.0087	-0.2181	-0.4449	
-0.348798	0.735538	0.588894	-6.58	25.62	-31.64	0.0087	-0.2227	-0.4542	
-0.330742	0.711626	0.598288	-8.26	23.38	-31.78	0.0127	-0.2124	-0.4478	
-0.33184	0.702232	0.592066	-9.52	21	-32.06	0.0201	-0.2129	-0.4507	
-0.327448	0.666852	0.588528	-9.24	21.28	-30.73	0.0243	-0.2086	-0.4474	
-0.349896	0.655506	0.593286	-6.09	25.48	-28.21	0.0245	-0.2116	-0.4459	
-0.396012	0.68808	0.607072	-1.61	24.85	-24.85	0.0361	-0.2093	-0.4503	
-0.401258	0.711748	0.605852	-1.75	24.85	-21.77	0.0371	-0.2035	-0.4563	
-0.375272	0.697474	0.609756	-2.73	21.14	-21.84	0.0434	-0.2067	-0.4485	
-0.380152	0.681614	0.592798	-4.2	23.17	-22.61	0.0447	-0.2053	-0.4531	
-0.404064	0.665876	0.579256	-5.39	25.76	-21.84	0.0553	-0.2135	-0.4607	
-0.449814	0.672464	0.562908	-4.2	24.85	-20.72	0.0581	-0.206	-0.4497	
-0.470066	0.690886	0.565714	-3.85	23.59	-18.83	0.0651	-0.2005	-0.4494	
-0.469822	0.695522	0.567544	-3.71	20.65	-17.64	0.0772	-0.204	-0.4461	
-0.473604	0.696986	0.563518	-5.46	21.35	-17.43	0.0695	-0.2007	-0.4509	
-0.501908	0.691496	0.57096	-6.86	21.07	-17.01	0.0781	-0.1937	-0.4475	
-0.523502	0.649528	0.565226	-6.58	19.53	-16.1	0.0843	-0.1985	-0.4474	