Sensor string: E
Serial number: 1970-01-0000
Firmware version: 2,015
Hardware version: 2,2
Calibration quality: 5
ax	ay	az	gx	gy	gz	mx	my	mz

-1.01443	0.041114	-0.010858	1.54	3.01	0.84	0.4367	-0.0185	-0.1968	Reference
-1.0126	0.043432	-0.01464	1.26	3.92	0.35	0.4296	-0.0125	-0.2014	
-1.016992	0.043798	-0.015616	0.42	3.29	0.07	0.4296	-0.0212	-0.1888	
-1.015894	0.041724	-0.022082	-0.07	1.4	0.42	0.4352	-0.0169	-0.1951	
-1.022848	0.037332	-0.02135	0.56	3.01	0.21	0.4325	-0.0202	-0.2048	
-1.02053	0.038308	-0.022448	-0.07	1.82	0.28	0.4297	-0.0158	-0.2095	
-1.017358	0.045018	-0.020374	-0.07	1.47	0	0.4254	-0.0138	-0.1934	
-1.017846	0.038674	-0.022448	-0.49	0.77	0.35	0.4283	-0.02	-0.2	
-1.017114	0.041968	-0.025742	-0.42	0.63	0.07	0.4381	-0.02	-0.1952	
-1.01687	0.039894	-0.024278	-0.28	-0.14	-0.07	0.4296	-0.0155	-0.1982	
-1.019798	0.034892	-0.023302	0.28	-0.42	0.42	0.4339	-0.0156	-0.1999	
-1.016504	0.04148	-0.020374	-0.07	-0.77	0	0.431	-0.0155	-0.1983	
-1.019798	0.043066	-0.02074	-0.56	0.21	-0.42	0.4324	-0.0197	-0.1872	
-1.014674	0.045872	-0.01464	-0.91	-0.98	0.07	0.4338	-0.0126	-0.2014	
-1.014918	0.044286	-0.010248	0	-0.07	-0.14	0.4379	-0.0106	-0.1821	
-1.013454	0.040016	-0.01403	-0.07	-0.56	-0.07	0.424	-0.0184	-0.1983	
-1.01504	0.040992	-0.01647	0.07	-0.28	-0.14	0.4295	-0.0107	-0.1901	
-1.019188	0.038918	-0.018422	-0.35	-0.28	-0.21	0.424	-0.0154	-0.1966	
-1.022238	0.036356	-0.019032	-0.14	-0.21	-0.35	0.4254	-0.0124	-0.1965	
-1.016382	0.032208	-0.020252	-0.14	-0.21	-0.21	0.431	-0.0123	-0.1934	
-1.020042	0.030012	-0.02013	0.35	-0.07	-0.07	0.4366	-0.0183	-0.1904	
-1.015406	0.042822	-0.015372	0.91	-0.28	-0.07	0.4296	-0.0169	-0.1951	
-1.018822	0.037942	-0.02257	0.63	-0.42	0.07	0.4325	-0.017	-0.1983	
-1.019554	0.035136	-0.01952	1.19	-1.12	0.21	0.4323	-0.0122	-0.187	
-1.017358	0.040138	-0.018544	0.98	-1.89	0.14	0.4297	-0.0141	-0.203	
-1.015894	0.040748	-0.015494	1.05	-0.98	0	0.4296	-0.014	-0.1982	
-1.01687	0.039772	-0.010736	0.63	-0.7	-0.14	0.4311	-0.0201	-0.2016	
-1.014064	0.040382	-0.008784	0.84	-0.35	-0.14	0.4296	-0.0169	-0.1967	
-1.014796	0.03782	-0.007198	0.7	-0.21	0	0.4254	-0.011	-0.2029	
-1.013576	0.038186	-0.005124	1.26	0.14	0.07	0.4255	-0.023	-0.2	
-1.010038	0.041602	-0.00488	0.84	-0.42	0.07	0.4338	-0.0094	-0.1949	
-1.01138	0.041114	-0.007442	0.63	0	0	0.4296	-0.014	-0.1982	
-1.017968	0.037454	-0.006954	0.63	0.42	-0.14	0.431	-0.0199	-0.1936	
-1.006622	0.035868	-0.011468	-0.35	-1.61	0.07	0.4297	-0.0261	-0.2018	
-1.014308	0.03721	-0.006222	1.19	0.42	-0.49	0.4269	-0.0156	-0.2046	
-1.015162	0.035014	-0.01525	0.49	-0.07	-0.28	0.4366	-0.0095	-0.1997	
-1.01687	0.038308	-0.011346	0.98	0.84	-0.14	0.4225	-0.0106	-0.1884	
-1.014552	0.030134	-0.01708	-0.35	0.35	0.07	0.4296	-0.0109	-0.1949	
-1.021018	0.033794	-0.017934	0.35	0.49	0	0.4268	-0.0107	-0.1917	
-1.023336	0.04026	-0.017568	0.7	0.84	0.21	0.4255	-0.0156	-0.203	
-1.018212	0.039284	-0.022692	0.49	0.35	0.49	0.4282	-0.014	-0.1998	
-1.012966	0.037576	-0.025254	1.33	-0.56	0.56	0.4268	-0.0152	-0.1902	
-1.022604	0.04087	-0.023546	1.12	-0.84	-0.14	0.431	-0.0168	-0.1919	
-1.020652	0.042212	-0.019276	0.91	-0.84	-0.21	0.4311	-0.0187	-0.2064	
-1.022726	0.03721	-0.025376	0.28	-1.33	-0.07	0.4297	-0.0231	-0.2017	
-1.01931	0.037576	-0.018178	0.63	-3.01	0.14	0.4309	-0.0018	-0.1946	
-1.022482	0.03538	-0.023058	1.05	-1.61	-0.07	0.4186	-0.0277	-0.2081	
-1.022726	0.038186	-0.022326	0.91	-1.75	-0.07	0.4422	-0.0154	-0.1935	
-1.016748	0.039528	-0.01891	0.63	-1.4	0.35	0.4297	-0.0157	-0.2063	
-1.012356	0.045872	-0.017812	0.77	-1.33	0.28	0.4283	-0.0232	-0.2049	
-1.007354	0.043676	-0.02013	0.07	-1.75	0	0.4254	-0.0065	-0.2012	
-1.019432	0.034404	-0.02867	0.49	-2.45	0	0.4311	-0.0231	-0.2001	
-1.038464	0.040016	-0.023302	2.94	0	-0.14	0.4339	-0.0187	-0.2048	
-1.02358	0.044042	-0.024034	1.47	-3.15	-0.56	0.4239	-0.0093	-0.1932	
-1.01992	0.041602	-0.050264	1.19	-4.41	-0.7	0.4212	-0.007999999	-0.2012	
-1.031754	0.047946	-0.030622	1.96	-3.57	-0.35	0.4255	-0.0173	-0.2095	
-1.042978	0.045018	-0.023058	4.97	-3.78	0.77	0.4255	-0.0158	-0.211	
-1.050542	0.04148	-0.020252	3.08	-5.88	0.42	0.4226	-0.0123	-0.1933	
-1.046028	0.03416	-0.022814	1.4	-12.04	0	0.4255	-0.0127	-0.2077	
-1.036634	0.03843	-0.03294	2.1	-17.92	-2.31	0.4254	-0.0126	-0.2029	
-1.07787	0.05002	-0.047824	4.69	-18.62	-1.05	0.4227	-0.0128	-0.2125	
-1.079822	0.049776	-0.04636	2.87	-22.47	-1.68	0.4199	-0.0247	-0.2081	
-1.072258	0.02989	-0.038796	2.73	-29.33	-0.84	0.4213	-0.013	-0.2205	
-1.054446	0.01342	-0.03355	4.2	-32.06	0.49	0.4172	-0.0193	-0.2319	
-1.055666	-0.000244	-0.038064	2.73	-36.89	2.03	0.413	-0.0207	-0.2287	
-1.021872	0.004148	-0.06527	2.66	-44.94	3.71	0.4061	-0.0256	-0.2416	
-1.060912	0.016226	-0.025986	3.22	-51.17	4.69	0.409	-0.0271	-0.2433	
-1.057496	0.006832	0.005246	4.34	-54.95	7.14	0.4034	-0.0272	-0.2481	
-1.037366	0.003172	0.036844	5.88	-57.33	9.87	0.3978	-0.023	-0.2591	
-1.034072	0.015372	0.052704	5.81	-56.98	9.1	0.3936	-0.0201	-0.2654	
-1.028826	0.034404	0.077714	5.32	-56.56	8.26	0.3896	-0.0326	-0.2818	
-1.00955	0.048434	0.109434	3.15	-62.93	9.17	0.391	-0.0297	-0.2849	
-0.995886	0.035502	0.161284	2.52	-64.82	10.36	0.3855	-0.0387	-0.2867	
-0.986126	0.025376	0.171654	3.64	-66.08	11.76	0.37	-0.0312	-0.2928	
-0.987834	0.064416	0.199836	2.87	-66.43	10.5	0.3618	-0.0378	-0.3154	
-0.957212	0.091744	0.223382	-1.33	-68.18	10.43	0.3603	-0.036	-0.3041	
-0.948184	0.08235	0.24766	-3.15	-68.81	11.06	0.3478	-0.0379	-0.3217	
-0.951234	0.070028	0.272548	-5.04	-69.37	10.29	0.3408	-0.038	-0.328	
-0.928298	0.064294	0.306708	-6.65	-69.37	11.27	0.3311	-0.0473	-0.3411	
-0.935252	0.05551	0.32452	-6.51	-68.04	12.04	0.3212	-0.0398	-0.3424	
-0.925248	0.061854	0.333304	-5.67	-69.3	12.04	0.3072	-0.0354	-0.3517	
-0.905484	0.068808	0.365634	-5.39	-66.78	12.11	0.3059	-0.0447	-0.36	
-0.887916	0.065758	0.391254	-5.81	-66.29	11.41	0.2949	-0.0466	-0.3792	
-0.87596	0.054412	0.410286	-5.25	-64.82	9.38	0.2878	-0.0522	-0.3649	
-0.859124	0.05856	0.454206	-4.27	-66.43	9.73	0.2823	-0.0558	-0.3858	
-0.846558	0.078812	0.477752	-2.59	-67.41	10.29	0.271	-0.0435	-0.3838	
-0.832406	0.101016	0.500444	-2.87	-64.19	10.15	0.2712	-0.0516	-0.4032	
-0.798978	0.10614	0.53131	-3.43	-62.72	10.85	0.2514	-0.0421	-0.3932	
-0.807152	0.096868	0.550464	-2.73	-60.83	10.5	0.2444	-0.0437	-0.398	
-0.793732	0.10065	0.576206	-2.17	-60.41	9.52	0.2403	-0.0398	-0.4187	
-0.777628	0.112972	0.591456	-2.03	-58.94	8.68	0.2235	-0.0471	-0.4172	
-0.757376	0.09942999	0.607438	-2.52	-56.84	8.75	0.2236	-0.0579	-0.4271	
-0.738954	0.099064	0.633302	-3.22	-55.16	8.89	0.2109	-0.0455	-0.417	
-0.719922	0.108458	0.631228	-3.15	-54.11	8.26	0.2054	-0.0533	-0.4284	
-0.716506	0.104676	0.650748	-3.85	-52.57	7.91	0.2012	-0.0593	-0.4286	
-0.699792	0.089792	0.680516	-3.08	-49.35	6.65	0.1913	-0.0488	-0.4314	
-0.684786	0.088328	0.697962	-2.1	-46.41	7.28	0.1718	-0.0566	-0.4491	
-0.682224	0.099186	0.69967	-0.77	-46.13	7.42	0.1759	-0.0518	-0.4362	
-0.670878	0.111874	0.712846	-1.19	-44.66	6.02	0.169	-0.0493	-0.4553	
-0.657946	0.098454	0.746884	-1.96	-41.79	4.9	0.1676	-0.0505	-0.4473	
-0.644038	0.10187	0.764818	-0.63	-38.99	5.04	0.1465	-0.0547	-0.4393	
-0.632204	0.09821	0.78995	-0.07	-35.91	5.53	0.1381	-0.0518	-0.4471	
-0.604754	0.108458	0.79788	0.35	-32.27	5.39	0.141	-0.061	-0.4522	
-0.601948	0.11468	0.818376	0.35	-27.79	5.18	0.1353	-0.0563	-0.4488	
-0.588406	0.112484	0.831552	0.98	-23.17	4.55	0.1312	-0.0594	-0.4521	
-0.578158	0.119682	0.84485	1.61	-19.18	4.41	0.1367	-0.0489	-0.4534	
-0.565104	0.135176	0.852902	1.68	-14.84	4.06	0.1283	-0.0489	-0.4534	
-0.541436	0.13786	0.857904	1.12	-10.08	3.85	0.1255	-0.0578	-0.4488	
-0.531676	0.134932	0.864248	0.63	-4.27	2.66	0.1311	-0.0517	-0.4471	
-0.531066	0.118706	0.885842	-0.28	1.47	1.4	0.1284	-0.0581	-0.4601	
-0.53619	0.123952	0.892918	0.7	7.35	0.98	0.1185	-0.0519	-0.4566	
-0.53985	0.137006	0.905484	0.49	13.3	0.63	0.1269	-0.0605	-0.4393	
-0.543632	0.130784	0.878034	-3.22	14.77	2.38	0.1298	-0.0654	-0.4491	
-0.524844	0.126758	0.874496	1.26	26.95	-0.84	0.1339	-0.0519	-0.4535	
-0.5429	0.123952	0.839726	2.24	36.61	-1.96	0.1479	-0.0504	-0.4471	
-0.56242	0.119926	0.826428	2.66	42.49	-2.8	0.1479	-0.0503	-0.4439	
-0.584502	0.115046	0.809836	3.22	47.81	-3.29	0.1591	-0.0503	-0.4424	
-0.603412	0.112362	0.781166	5.04	53.27	-3.85	0.1689	-0.0502	-0.4361	
-0.626836	0.117608	0.757864	6.16	57.68	-4.83	0.1788	-0.0491	-0.4473	
-0.6466	0.111874	0.737978	7.07	62.23	-5.39	0.1873	-0.0581	-0.4445	
-0.670756	0.104676	0.709308	8.19	66.64	-6.3	0.1998	-0.0565	-0.4365	
-0.697474	0.096014	0.668316	9.94	70.63	-6.86	0.1998	-0.0563	-0.4285	
-0.731146	0.106872	0.629764	12.46	73.29	-7.14	0.211	-0.0609	-0.4287	
-0.749202	0.111386	0.593774	13.37	75.39	-8.19	0.2264	-0.0519	-0.4269	
-0.762012	0.113826	0.555588	13.72	77.49	-9.45	0.2278	-0.0577	-0.4159	
-0.780068	0.117242	0.515206	13.44	79.17	-10.15	0.2445	-0.0604	-0.4001	
-0.807396	0.116998	0.502518	12.25	81.55	-10.57	0.2488	-0.0665	-0.4019	
-0.816546	0.120048	0.494344	10.99	84.07	-11.27	0.2628	-0.0665	-0.3972	
-0.825574	0.103334	0.464332	10.22	86.38	-10.99	0.2669	-0.0587	-0.389	
-0.837164	0.095404	0.422852	10.15	87.71	-10.43	0.2823	-0.0615	-0.3748	
-0.864492	0.09747799	0.378566	9.73	90.09	-10.92	0.2921	-0.0599	-0.3684	
-0.91012	0.103456	0.340624	7.77	91.14	-12.67	0.3158	-0.0463	-0.3601	
-0.915976	0.111142	0.317322	6.23	91.42	-12.39	0.3157	-0.0563	-0.3412	
-0.915732	0.10431	0.292434	4.69	90.86	-12.32	0.327	-0.0581	-0.3494	
-0.94062	0.08845	0.224846	2.52	84.84	-11.41	0.355	-0.0622	-0.3273	
-0.984662	0.093086	0.188612	2.17	87.64	-12.46	0.3578	-0.0664	-0.3146	
-0.9943	0.088328	0.144448	1.61	83.02	-11.97	0.373	-0.0526	-0.3031	
-0.991982	0.084424	0.111996	0.56	82.32	-11.9	0.3786	-0.0466	-0.2997	
-1.004182	0.083692	0.07442	1.4	81.55	-11.62	0.3898	-0.0494	-0.2887	
-1.04371	0.081862	0.064904	1.26	78.26	-11.76	0.3896	-0.0474	-0.2742	
-0.980148	0.054046	-0.027938	-2.03	77.21	-11.69	0.4022	-0.0457	-0.2614	
-1.021872	0.050874	-0.01769	0	87.29	-12.6	0.3993	-0.0409	-0.2533	
-1.00955	0.047824	-0.057706	-0.07	77.42	-10.29	0.4147	-0.0379	-0.2485	
-1.034194	0.055144	-0.057462	2.8	80.57	-10.22	0.4187	-0.0402	-0.2213	
-1.014918	0.051728	-0.07869	3.71	79.52	-10.01	0.4215	-0.0297	-0.2226	
-0.999424	0.054046	-0.08418	4.48	75.95	-8.82	0.4298	-0.0309	-0.2099	
-0.996374	0.057706	-0.099552	4.13	75.11	-8.89	0.441	-0.0323	-0.202	
-1.01626	0.057706	-0.1037	2.31	69.65	-9.45	0.4395	-0.0318	-0.1876	
-1.014796	0.052338	-0.122122	0.91	66.36	-10.29	0.4506	-0.021	-0.1729	
-1.027484	0.048312	-0.141764	-0.28	60.62	-11.97	0.452	-0.0313	-0.1636	
-1.034804	0.051484	-0.163724	-0.07	57.82	-12.04	0.4448	-0.0204	-0.1536	
-1.012844	0.049532	-0.16775	-0.84	52.29	-10.43	0.4604	-0.0297	-0.1604	
-0.996984	0.060878	-0.155916	-0.42	52.36	-10.01	0.4602	-0.0216	-0.1394	
-1.001132	0.05978	-0.174948	-0.49	47.88	-7.91	0.4587	-0.0182	-0.1248	
-0.99674	0.064782	-0.180316	-0.49	44.8	-7.56	0.4656	-0.0121	-0.1215	
-1.000888	0.03416	-0.190076	-1.26	39.76	-6.51	0.4685	-0.0166	-0.1217	
-1.003938	0.028548	-0.214354	-0.7	38.15	-6.86	0.4726	-0.0133	-0.1104	
-1.011746	0.031964	-0.236192	1.4	38.01	-7.21	0.4683	-0.0176	-0.1009	
-0.996618	0.026962	-0.255224	1.12	36.19	-6.37	0.4667	-0.005	-0.0845	
-1.00284	0.042944	-0.269986	0.56	35.35	-5.88	0.4822	-0.009699999	-0.0847	
-0.97478	0.041602	-0.28487	-0.84	31.15	-5.25	0.4752	-0.011	-0.0815	
-0.978806	0.050264	-0.296826	-0.14	28.84	-5.6	0.4752	-0.0081	-0.0846	
-0.98698	0.037698	-0.299632	-0.07	28.28	-6.09	0.4695	-0.0064	-0.0781	
-0.975878	0.004392	-0.305976	-0.77	25.41	-6.44	0.4751	-0.0033	-0.0749	
-0.980148	-0.003538	-0.320982	0.49	23.73	-6.37	0.4765	-0.0017	-0.0716	
-0.976488	0.019398	-0.332206	0.63	23.24	-5.67	0.4808	-0.0094	-0.0751	
-0.975146	0.02379	-0.35136	-0.42	22.96	-3.36	0.4834	-0.0044	-0.0557	
-0.978318	-0.00122	-0.361242	-2.8	17.5	0.14	0.475	-0.0075	-0.0638	
-1.001376	0.030866	-0.391864	-2.73	12.25	0.77	0.4764	-0.0102	-0.0511	
-1.069818	0.008052	-0.410896	-5.04	7.7	-0.84	0.4806	-0.0118	-0.0527	
-0.99857	-0.01281	-0.394304	-3.57	2.59	-1.75	0.4833	-0.0054	-0.0381	
-0.96441	-0.030866	-0.380396	-1.89	0.84	-3.36	0.4764	-0.0057	-0.0509	
-0.956968	-0.015128	-0.37942	-1.12	0.07	-3.36	0.4764	-0.0132	-0.0511	
-0.952332	-0.000244	-0.376492	1.96	0.77	-2.59	0.4862	-0.0071	-0.0446	
-0.947208	0.005246	-0.387716	3.71	1.47	-1.05	0.475	-0.0058	-0.0541	
-0.937082	0.00427	-0.393084	5.11	4.48	-3.36	0.4819	-0.0026	-0.0461	
-0.902434	0.024156	-0.376248	5.46	4.34	-5.53	0.4708	-0.0133	-0.0559	
-0.936838	0.030866	-0.356972	4.41	8.89	-6.02	0.479	0.002	-0.0411	
-0.94855	0.020252	-0.330376	3.71	12.25	-4.41	0.4833	-0.0027	-0.0493	
-0.945744	0.025742	-0.316102	2.03	12.04	-2.38	0.4777	-0.0055	-0.0429	
-1.005036	0.027816	-0.321348	0.91	9.24	-1.96	0.4763	-0.0011	-0.0476	
-1.000034	0.013054	-0.324886	0.49	5.46	-1.54	0.4777	0.0031	-0.0555	
-0.985028	0.000488	-0.343674	-0.07	2.17	-0.28	0.4762	0.0005	-0.0411	
-0.968314	-0.013054	-0.342698	2.17	3.08	1.05	0.4749	-0.007	-0.0461	
-0.944036	-0.01464	-0.324764	4.2	5.6	1.4	0.486	0.0022	-0.0331	
-0.952942	-0.02074	-0.351604	3.85	3.57	2.17	0.4889	-0.0039	-0.0381	
-0.967826	-0.028426	-0.360754	3.85	3.5	1.4	0.4763	-0.0114	-0.0415	
-0.962336	-0.024888	-0.344894	5.18	2.17	2.24	0.4762	0.002	-0.0427	
-0.941474	-0.02562	-0.366244	5.95	-1.47	3.92	0.4903	-0.0009	-0.0397	
-0.95831	-0.006344	-0.401258	4.76	-3.15	4.06	0.4819	-0.0082	-0.0318	
-0.992226	-0.0244	-0.438712	-1.26	-10.36	4.62	0.4749	-0.0053	-0.0365	
-0.994056	-0.014152	-0.431392	0.56	-12.46	2.52	0.4847	-0.0056	-0.0446	
-0.995642	-0.020984	-0.388936	4.27	-8.75	3.78	0.482	-0.0115	-0.0415	
-0.958554	-0.010736	-0.364536	7.21	-8.05	3.85	0.4847	-0.0056	-0.0462	
-0.950014	0.01647	-0.355752	8.47	-8.33	4.62	0.4847	-0.0054	-0.0382	
-0.94611	0.025376	-0.366366	8.4	-11.48	5.88	0.4805	-0.0038	-0.0365	
-0.95282	0.02684	-0.366	8.96	-11.55	6.37	0.4821	-0.0105	-0.0607	
-0.941962	0.037454	-0.381128	8.82	-9.87	5.53	0.4848	-0.0132	-0.0496	
-0.976732	0.032696	-0.364292	6.37	-5.39	4.97	0.4736	-0.0148	-0.0544	
-1.00894	0.027816	-0.387716	2.8	-10.85	3.85	0.4805	-0.0071	-0.0462	
-1.016016	0.029158	-0.384788	0.98	-11.97	3.5	0.4792	-0.0104	-0.0575	
-0.993324	0.036844	-0.358558	0.49	-12.74	4.34	0.4793	-0.0151	-0.064	
-0.981734	0.032086	-0.354654	-1.75	-15.12	4.48	0.4737	-0.0164	-0.0576	
-1.002596	0.015616	-0.36295	-6.23	-22.12	4.34	0.4779	-0.0196	-0.0626	
-0.990274	0.002074	-0.352824	-6.16	-24.01	3.71	0.478	-0.0258	-0.0675	
-0.998936	0.009516	-0.34953	-4.76	-25.27	4.13	0.4766	-0.0244	-0.07229999	
-0.999912	0.005856	-0.341478	-4.2	-26.25	5.53	0.4738	-0.0182	-0.0689	
-1.001254	0.006466	-0.309514	-3.29	-24.99	5.6	0.478	-0.0184	-0.0737	
-0.999302	0.029524	-0.298778	-2.94	-28.21	6.09	0.4753	-0.0172	-0.0865	
-1.017236	0.034648	-0.278038	-2.17	-29.54	5.95	0.4696	-0.0215	-0.0802	
-1.007964	0.038674	-0.278526	-2.03	-33.95	6.23	0.4696	-0.0127	-0.0895	
-1.003816	0.03233	-0.264008	-0.98	-35.21	6.09	0.4698	-0.0253	-0.1059	
-0.99491	0.025498	-0.269742	0.07	-36.33	6.44	0.4656	-0.0295	-0.0964	
-1.023336	0.045994	-0.251076	0.28	-36.89	5.46	0.474	-0.0147	-0.104	
-1.029314	0.049898	-0.248392	-1.4	-40.95	5.88	0.4756	-0.0333	-0.1222	
-1.03029	0.052582	-0.239242	-2.31	-44.38	5.67	0.4656	-0.0195	-0.1153	
-1.027362	0.053436	-0.224968	-2.94	-46.13	5.53	0.4616	-0.0259	-0.1315	
-1.017358	0.050996	-0.224114	-4.2	-49.42	6.86	0.4657	-0.0243	-0.1251	
-1.018822	0.039162	-0.207522	-5.04	-52.01	7.91	0.4588	-0.0246	-0.1395	
-1.011502	0.049776	-0.18361	-5.18	-51.66	8.05	0.456	-0.0261	-0.1411	
-1.016016	0.059658	-0.174216	-6.65	-52.22	7.91	0.4548	-0.0269	-0.1683	
-1.032364	0.053924	-0.133834	-7.56	-56.14	6.65	0.4493	-0.0301	-0.178	
-1.042246	0.038552	-0.114802	-7.49	-59.36	6.79	0.4367	-0.0347	-0.1812	
-1.044564	0.030378	-0.081496	-7.21	-61.39	6.37	0.4382	-0.0397	-0.199	
-1.038708	0.04026	-0.05002	-6.23	-62.65	5.11	0.4354	-0.0336	-0.1988	
-1.013088	0.027328	-0.0122	-5.25	-63.21	5.6	0.427	-0.0322	-0.2051	
-0.99552	0.024278	-0.00671	-2.24	-63.35	7.42	0.4243	-0.0357	-0.2212	
-1.006866	0.031598	0.010126	1.19	-65.1	9.38	0.4216	-0.0417	-0.2214	
-0.983686	0.053558	0.03172	4.62	-66.29	10.01	0.4188	-0.036	-0.2356	
-0.976244	0.091134	0.06039	3.78	-64.12	8.47	0.402	-0.0273	-0.2513	
-0.942084	0.105652	0.113216	-0.14	-59.15	7.35	0.4063	-0.0411	-0.2581	
-0.947086	0.092598	0.154696	-4.13	-54.53	6.37	0.4036	-0.0368	-0.266	
-0.96685	0.07808	0.176168	-6.3	-51.17	5.25	0.3938	-0.043	-0.2757	
-0.961482	0.058926	0.174216	-6.58	-50.82	3.85	0.3966	-0.04	-0.274	
-0.981368	0.063562	0.187392	-5.25	-50.89	3.43	0.384	-0.0386	-0.2819	
-0.985882	0.077226	0.203618	-5.39	-51.8	4.13	0.3897	-0.0387	-0.2868	
-1.000766	0.071736	0.201056	-5.18	-52.08	6.16	0.3827	-0.0435	-0.2965	
-0.988444	0.063074	0.17812	-3.92	-56.28	7.7	0.3716	-0.0437	-0.306	
-1.00162	0.089548	0.17629	-3.43	-59.99	7.91	0.373	-0.0424	-0.3124	
-0.97356	0.084912	0.226188	-6.79	-65.1	7.28	0.355	-0.0519	-0.335	
-0.931714	0.07905599	0.260714	-7.49	-66.43	6.44	0.348	-0.0551	-0.343	
-0.911584	0.081984	0.291092	-7.7	-65.8	5.81	0.3408	-0.0383	-0.3377	
-0.912072	0.07808	0.316102	-7.91	-63.35	6.09	0.3353	-0.0443	-0.3394	
-0.913658	0.058682	0.348798	-7.98	-62.44	7	0.3227	-0.0341	-0.3534	
-0.896578	0.086376	0.362706	-7	-62.44	7.56	0.3114	-0.031	-0.3564	
-0.890112	0.091012	0.370758	-6.72	-62.02	7.42	0.2976	-0.0404	-0.3726	
-0.897188	0.086376	0.379054	-6.72	-65.31	8.61	0.3031	-0.0461	-0.36	
-0.901214	0.07381	0.40016	-6.79	-65.1	8.05	0.2807	-0.0358	-0.3724	
-0.885842	0.065026	0.435662	-6.23	-64.82	8.47	0.285	-0.042	-0.3774	
-0.864248	0.056486	0.462502	-4.97	-66.64	9.38	0.2766	-0.0379	-0.3948	
-0.839238	0.054534	0.490806	-2.73	-68.04	10.22	0.2711	-0.0467	-0.3903	
-0.816058	0.078202	0.523746	-0.77	-69.02	10.29	0.2599	-0.0439	-0.3981	
-0.797392	0.102968	0.546438	0.42	-68.25	9.1	0.2515	-0.044	-0.4061	
-0.780678	0.109678	0.56486	0.56	-67.62	9.45	0.2431	-0.0458	-0.4173	
-0.77714	0.122	0.587308	-0.91	-66.71	8.89	0.2418	-0.046	-0.4253	
-0.762866	0.114924	0.6222	-2.73	-65.24	6.86	0.215	-0.0438	-0.4074	
-0.740418	0.099064	0.648918	-3.15	-62.72	5.95	0.2166	-0.049	-0.4332	
-0.712602	0.1037	0.672586	-2.17	-60.34	5.46	0.2024	-0.0454	-0.417	
-0.666608	0.115168	0.71065	-0.77	-55.93	5.67	0.1941	-0.0397	-0.4311	
-0.64599	0.109312	0.722728	-1.68	-52.64	5.6	0.1857	-0.0518	-0.4347	
-0.631838	0.100894	0.730536	-1.68	-49.49	5.53	0.1662	-0.0595	-0.446	
-0.607926	0.10126	0.760304	-1.47	-46.27	5.88	0.1619	-0.0428	-0.4422	
-0.586698	0.10675	0.780922	-0.35	-42.63	5.6	0.1592	-0.052	-0.4473	
-0.581696	0.1098	0.808738	1.05	-38.15	4.34	0.1494	-0.0535	-0.4505	
-0.583404	0.116022	0.822402	1.75	-32.97	4.34	0.1494	-0.0521	-0.4536	
-0.577792	0.13542	0.830698	2.8	-27.3	5.18	0.1466	-0.0579	-0.449	
-0.579866	0.144936	0.849242	1.75	-21.35	4.62	0.1367	-0.0517	-0.4455	
-0.57096	0.142496	0.869738	0.63	-15.96	3.43	0.1354	-0.0565	-0.4536	
-0.556198	0.133224	0.872422	0.07	-10.64	2.66	0.1353	-0.0579	-0.4489	
-0.54168	0.12932	0.869616	-0.91	-4.97	1.75	0.1242	-0.0625	-0.4553	
-0.533506	0.125416	0.871812	-1.33	1.05	0.84	0.1284	-0.0536	-0.4615	
-0.527162	0.125904	0.892308	-1.4	7.56	0.21	0.1312	-0.0566	-0.4584	
-0.539972	0.10614	0.906216	-1.89	13.37	1.19	0.1241	-0.0458	-0.4532	
-0.538508	0.10492	0.908778	0.84	19.04	-0.07	0.1255	-0.0518	-0.4518	
-0.531432	0.121634	0.88816	3.01	26.39	-0.7	0.1408	-0.053	-0.436	
-0.529236	0.117852	0.869372	4.13	34.3	-1.54	0.1424	-0.0521	-0.4552	
-0.546194	0.113704	0.844362	6.37	44.52	-2.59	0.1521	-0.0503	-0.4424	
-0.555466	0.125904	0.844484	7.77	51.59	-3.57	0.1577	-0.0503	-0.4424	
-0.5734	0.127612	0.827648	8.12	59.71	-5.11	0.1718	-0.0506	-0.4473	
-0.58926	0.124684	0.770552	8.68	65.03	-6.23	0.1802	-0.0581	-0.4444	
-0.61854	0.112728	0.733098	9.24	71.61	-7.63	0.183	-0.0595	-0.4413	
-0.63501	0.111386	0.71004	10.22	77.7	-9.17	0.1984	-0.0518	-0.4299	
-0.660142	0.119194	0.683566	10.5	85.47	-10.99	0.2152	-0.0579	-0.4286	
-0.706624	0.119926	0.607194	10.78	89.67	-11.62	0.2207	-0.0486	-0.4188	
-0.73078	0.113094	0.544364	11.48	89.81	-11.62	0.2347	-0.0531	-0.411	
-0.756034	0.12261	0.509838	13.86	94.15	-12.46	0.2516	-0.0607	-0.4098	
-0.76738	0.120658	0.488976	14.42	96.67	-13.37	0.2641	-0.0515	-0.4	
-0.795318	0.107238	0.432368	13.16	98	-14.28	0.271	-0.0568	-0.3729	
-0.850218	0.097112	0.373686	13.37	100.59	-14.56	0.2837	-0.0587	-0.3843	
-0.897432	0.11163	0.325252	13.65	99.19	-14.21	0.299	-0.0521	-0.357	
-0.931348	0.125416	0.269986	13.02	99.05	-15.05	0.3117	-0.0626	-0.3542	
-0.968192	0.121756	0.226188	11.76	97.65	-15.05	0.3199	-0.0486	-0.3346	
-0.981124	0.111996	0.19947	10.64	96.88	-15.05	0.3341	-0.0626	-0.3479	
-0.976854	0.105408	0.172996	8.54	96.04	-16.31	0.3353	-0.0546	-0.3285	
-0.94977	0.09272	0.129686	3.92	93.87	-16.52	0.3631	-0.0448	-0.2948	
-0.9638	0.084546	0.122366	2.24	93.73	-17.15	0.373	-0.0525	-0.2967	
-0.969046	0.060024	0.097112	3.22	98	-18.13	0.3855	-0.0477	-0.2838	
-0.952332	0.010736	0.070394	-0.91	80.64	-12.53	0.3896	-0.0458	-0.2677	
-1.014796	0.004514	0.081374	3.01	90.44	-14.07	0.4007	-0.0395	-0.258	
-1.036512	0.005734	0.050752	3.85	87.78	-13.44	0.4005	-0.0297	-0.2289	
-1.039806	0.018788	0.023546	5.67	78.75	-11.41	0.4217	-0.0422	-0.2406	
-1.020652	0.030012	-0.007686	6.37	74.76	-9.94	0.423	-0.0361	-0.2373	
-1.026142	0.059048	-0.025498	7.7	69.58	-9.03	0.4271	-0.0357	-0.2229	
-1.028094	0.071736	-0.063074	7.7	61.32	-8.26	0.4354	-0.0251	-0.2178	
-1.01321	0.068686	-0.097966	6.93	58.66	-8.96	0.4312	-0.0338	-0.2052	
-1.003572	0.049044	-0.113338	5.6	55.58	-9.73	0.4297	-0.0334	-0.1908	
-1.025898	0.040382	-0.13237	4.69	52.15	-9.17	0.4409	-0.0334	-0.1893	
-1.028216	0.050142	-0.161284	4.34	49	-7.14	0.445	-0.0284	-0.1699	
-1.031998	0.05978	-0.164212	3.64	46.27	-4.55	0.4437	-0.0316	-0.178	
-1.019798	0.072346	-0.17141	3.92	45.08	-4.06	0.4463	-0.0237	-0.165	
-0.995154	0.068564	-0.187026	2.8	41.58	-3.5	0.4492	-0.0297	-0.1636	
-0.998082	0.066734	-0.178364	2.45	43.05	-4.48	0.4574	-0.0173	-0.1488	
-0.981612	0.056364	-0.188978	1.26	43.89	-5.39	0.4603	-0.031	-0.1525	
-0.989908	0.022936	-0.188368	-0.77	43.68	-5.74	0.4544	-0.0195	-0.1201	
-0.99369	0.0244	-0.207034	-0.14	43.12	-5.95	0.4727	-0.0242	-0.1203	
-1.019554	0.03477	-0.205448	0.42	43.68	-5.46	0.467	-0.0178	-0.1105	
-1.00833	0.036478	-0.226188	0.28	41.58	-4.41	0.4713	-0.0257	-0.122	
-0.975878	0.045384	-0.251564	-0.07	37.8	-3.85	0.4739	-0.0129	-0.0944	
-1.000888	0.059048	-0.257054	-0.14	39.48	-4.55	0.4712	-0.0148	-0.1072	
-0.989908	0.03843	-0.283406	-2.52	36.47	-4.41	0.4753	-0.0204	-0.09299999	
-1.000034	0.017202	-0.286578	-5.53	35.63	-4.76	0.4781	-0.0188	-0.0882	
-0.979538	0.018544	-0.313052	-6.16	34.44	-4.27	0.481	-0.0234	-0.0915	
-1.005402	0.039162	-0.352702	-6.51	32.41	-6.37	0.4737	-0.0167	-0.0672	
-1.006744	0.029524	-0.362462	-5.53	28.42	-0.84	0.478	-0.0154	-0.0752	
-1.007964	0.021716	-0.348432	-6.16	25.62	-1.75	0.4807	-0.0123	-0.0704	
-0.976854	0.01525	-0.351116	-5.6	23.52	-2.66	0.4779	-0.0166	-0.0641	
-1.012844	0.04636	-0.352702	-6.16	21	-4.41	0.4864	-0.0153	-0.0673	
-0.977098	-0.001098	-0.352458	-8.75	17.29	-3.57	0.4737	-0.0196	-0.0657	
-0.950502	-0.001098	-0.331108	-5.95	16.94	-1.96	0.4779	-0.0119	-0.0591	
-0.939766	0.007198	-0.332816	-4.2	17.85	-2.03	0.4792	-0.0058	-0.0541	
-0.956846	-0.019764	-0.346846	-0.7	13.72	-0.42	0.4806	-0.008599999	-0.0462	
-0.97234	0.006588	-0.350628	1.12	14.56	1.47	0.4778	-0.0146	-0.0448	
-0.991616	0.04331	-0.35746	0.77	13.86	2.45	0.4791	-0.0025	-0.0444	
-1.003694	0.032574	-0.40565	-3.92	5.18	2.73	0.4749	-0.0023	-0.0396	
-1.00223	-0.003904	-0.425292	-4.41	-1.54	2.52	0.4905	-0.0237	-0.0435	
-1.021628	-0.00183	-0.391864	0.98	-0.35	1.47	0.4833	-0.0129	-0.0368	
-1.0553	0.03782	-0.380396	3.29	2.1	0	0.4777	-0.0099	-0.0398	
-1.025532	0.038918	-0.37942	3.57	-3.99	1.82	0.4806	-0.0088	-0.0526	
-0.993934	0.04148	-0.36722	4.97	-7.63	3.5	0.4876	-0.0131	-0.0432	
-0.974292	0.04026	-0.369904	4.83	-11.69	3.99	0.475	-0.0188	-0.0353	
-0.941352	0.03355	-0.367952	4.13	-12.39	1.19	0.4864	-0.0181	-0.0626	
-0.909754	0.035502	-0.36722	4.69	-10.5	-0.14	0.4777	-0.0112	-0.0335	
-0.922808	0.038918	-0.379542	4.27	-7.42	1.4	0.4736	-0.0088	-0.0558	
-0.947452	0.05917	-0.374662	3.85	-4.2	2.87	0.4764	-0.0116	-0.0463	
-0.955748	0.039894	-0.391376	2.17	-3.85	2.24	0.4807	-0.0209	-0.0562	
-0.956968	0.037088	-0.38003	1.12	-3.01	-0.07	0.4793	-0.009	-0.0606	
-0.976244	0.011834	-0.352702	2.94	-3.43	0.35	0.4876	-0.0133	-0.0496	
-0.988322	0.015738	-0.352702	5.11	-6.09	3.08	0.4764	-0.0072	-0.051	
-0.981612	0.034892	-0.372466	4.55	-12.18	4.83	0.4806	-0.0133	-0.0544	
-0.988322	0.042334	-0.35136	3.64	-13.44	3.85	0.4736	-0.0072	-0.0525	
-0.991494	0.039894	-0.357826	4.13	-13.44	3.22	0.4918	-0.0088	-0.0495	
-0.979782	0.053558	-0.343186	3.78	-12.11	2.24	0.4808	-0.0212	-0.0642	
-0.980392	0.039406	-0.326594	3.29	-11.41	1.89	0.4822	-0.0196	-0.0626	
-0.979172	0.0366	-0.31232	5.04	-12.53	1.61	0.4836	-0.0167	-0.0673	
-0.969778	0.041114	-0.297192	5.18	-14.07	2.24	0.4765	-0.0107	-0.0703	
-0.977342	0.067466	-0.307196	4.69	-15.33	2.17	0.4766	-0.0212	-0.0674	
-0.991372	0.060024	-0.327082	2.8	-17.71	2.52	0.4794	-0.0243	-0.0707	
-0.999668	0.045506	-0.31842	0.42	-19.95	2.94	0.4849	-0.0152	-0.0657	
-1.005158	0.048678	-0.311832	-0.35	-21.07	3.43	0.4795	-0.0245	-0.0755	
-1.000034	0.052094	-0.28609	0.21	-21.14	3.43	0.4724	-0.0155	-0.0784	
-0.993934	0.044774	-0.287432	-0.56	-21.49	2.73	0.4725	-0.0304	-0.0724	
-0.991372	0.024278	-0.318176	-1.68	-24.36	2.87	0.4668	-0.0185	-0.0817	
-1.0004	0.022448	-0.301584	-1.54	-28.21	3.99	0.4823	-0.0172	-0.08329999	
-1.007964	0.032452	-0.29219	-1.26	-28.21	4.34	0.4754	-0.0267	-0.1028	
-1.007232	0.02501	-0.269864	-1.89	-27.16	4.55	0.4671	-0.0312	-0.1029	
-1.006378	0.046238	-0.249368	-0.28	-27.79	4.34	0.4671	-0.0341	-0.0998	
-1.000034	0.040626	-0.223504	0.49	-29.05	5.67	0.4644	-0.0302	-0.1236	
-0.98637	0.033184	-0.224358	0.14	-29.19	5.88	0.4642	-0.0253	-0.1107	
-0.992348	0.044774	-0.220698	-0.49	-27.79	5.53	0.4657	-0.0226	-0.1186	
-1.004792	0.05734	-0.213012	-1.61	-26.95	5.18	0.4644	-0.0288	-0.1252	
-1.025532	0.050508	-0.19764	-2.45	-26.88	5.46	0.463	-0.0289	-0.1284	
-1.041392	0.045994	-0.184098	-1.89	-27.44	5.6	0.4631	-0.0366	-0.1366	
-1.037122	0.056486	-0.185196	-2.24	-27.86	5.88	0.4645	-0.0351	-0.135	
-1.027362	0.069418	-0.189222	-3.08	-30.24	5.25	0.4589	-0.0307	-0.1412	
-1.034804	0.065758	-0.180804	-4.06	-31.64	5.25	0.4547	-0.0338	-0.1461	
-1.022726	0.060756	-0.187392	-4.97	-33.32	4.69	0.4562	-0.034	-0.1541	
-1.039684	0.061732	-0.177998	-6.58	-34.58	3.92	0.4535	-0.0476	-0.1545	
-1.054446	0.063928	-0.163114	-5.88	-35.77	3.57	0.4436	-0.0313	-0.1684	
-1.043832	0.046116	-0.156892	-5.11	-38.15	4.83	0.4464	-0.0344	-0.1701	
-1.033584	0.051606	-0.140544	-3.85	-40.18	6.16	0.4438	-0.0407	-0.1815	
-1.030534	0.073444	-0.131028	-4.2	-42.28	6.37	0.4466	-0.0379	-0.1878	
-1.028948	0.079666	-0.109678	-5.32	-44.52	6.16	0.434	-0.0409	-0.191	
-1.016748	0.06222	-0.09638	-5.74	-46.13	6.44	0.441	-0.0365	-0.1925	
-1.024312	0.068442	-0.06771	-5.74	-46.9	6.51	0.4269	-0.0334	-0.194	
-1.039928	0.065148	-0.041968	-6.93	-49	7.56	0.4327	-0.04	-0.2134	
-1.03151	0.06954	-0.022082	-7.21	-52.71	7.84	0.4286	-0.0447	-0.2199	
-1.019066	0.074054	-0.011102	-6.86	-56.21	8.19	0.4203	-0.0538	-0.2234	
-1.017846	0.066734	0.02135	-6.58	-58.1	8.12	0.4203	-0.0494	-0.2296	
-1.009916	0.057706	0.046726	-5.39	-57.96	7.77	0.4062	-0.0403	-0.2309	
-1.004792	0.075274	0.059292	-3.78	-59.78	7.63	0.3994	-0.0457	-0.2614	
-1.008086	0.085644	0.062464	-2.8	-61.25	7.91	0.4008	-0.05	-0.2535	
-1.008208	0.104554	0.081618	-3.08	-62.16	9.24	0.3965	-0.0395	-0.2564	
-0.988322	0.10126	0.113216	-4.48	-62.58	10.29	0.4037	-0.0507	-0.2776	
-0.98454	0.096624	0.127002	-5.32	-63.84	9.1	0.3826	-0.043	-0.2804	
-0.96563	0.10553	0.135542	-5.88	-67.48	7.21	0.377	-0.0402	-0.2867	
-0.956602	0.090158	0.162748	-7	-69.09	6.72	0.3757	-0.0404	-0.2947	
-0.963312	0.076982	0.199226	-5.74	-68.81	7.77	0.3675	-0.05	-0.319	
-0.948062	0.088938	0.227042	-3.57	-70.49	8.75	0.3562	-0.0481	-0.3076	
-0.92171	0.119926	0.232288	-3.15	-73.01	9.59	0.3478	-0.0498	-0.3156	
-0.930006	0.137616	0.2684	-4.62	-74.41	9.66	0.3367	-0.0458	-0.3378	
-0.906948	0.121756	0.298046	-5.95	-76.51	8.4	0.3298	-0.0566	-0.3493	
-0.88633	0.112118	0.33245	-6.16	-77.07	7.14	0.3202	-0.0646	-0.3671	
-0.843386	0.101504	0.373686	-5.81	-77.91	7.21	0.3003	-0.0505	-0.3537	
-0.847656	0.094916	0.422852	-5.25	-77.84	7.7	0.3046	-0.0463	-0.3649	
-0.825818	0.097234	0.464942	-5.04	-76.16	9.1	0.2878	-0.0538	-0.3698	
-0.79361	0.100284	0.48922	-4.62	-74.48	8.33	0.2822	-0.0466	-0.3807	
-0.798612	0.117364	0.507886	-3.78	-72.45	8.47	0.2642	-0.053	-0.4016	
-0.787144	0.12627	0.542412	-4.34	-70.07	8.4	0.2655	-0.0485	-0.3999	
-0.765062	0.128222	0.569984	-5.04	-68.53	7.56	0.253	-0.065	-0.4019	
-0.747738	0.121146	0.602436	-5.74	-66.36	6.72	0.2403	-0.056	-0.4063	
-0.740906	0.113338	0.629398	-5.74	-63.7	6.44	0.2389	-0.0485	-0.4093	
-0.731146	0.12017	0.655628	-4.97	-60.9	6.3	0.218	-0.0563	-0.4254	
-0.703818	0.116632	0.687836	-4.34	-58.1	6.23	0.2123	-0.0502	-0.422	
-0.681126	0.118828	0.704184	-3.71	-54.25	6.16	0.1998	-0.0563	-0.4285	
-0.662948	0.127124	0.71065	-3.64	-50.12	6.02	0.1998	-0.0505	-0.4363	
-0.653554	0.122976	0.735416	-2.94	-46.62	6.23	0.1971	-0.0582	-0.4445	
-0.643306	0.124074	0.737978	-1.96	-41.44	5.25	0.1914	-0.0566	-0.4428	
-0.653188	0.136274	0.746274	-1.82	-37.45	4.9	0.1703	-0.0547	-0.433	
-0.649772	0.136396	0.762378	-2.1	-34.37	5.6	0.1704	-0.0581	-0.4475	
-0.637816	0.137738	0.767868	-2.24	-31.5	6.09	0.1662	-0.0625	-0.4428	
-0.622078	0.136152	0.779458	-2.87	-25.69	5.04	0.1662	-0.0566	-0.4491	
-0.615734	0.120292	0.786168	-3.22	-21.63	3.99	0.1465	-0.0518	-0.444	
-0.613538	0.11102	0.802394	-2.17	-17.15	3.5	0.1507	-0.0534	-0.4473	
-0.610732	0.113216	0.822768	-0.56	-12.53	2.87	0.1479	-0.0533	-0.444	
-0.606462	0.128954	0.831064	0.42	-7.49	2.45	0.1437	-0.0489	-0.4503	
-0.595238	0.12932	0.847412	0.56	-1.68	2.03	0.1423	-0.0489	-0.4487	
-0.58926	0.122854	0.840824	1.12	3.64	1.26	0.1563	-0.0519	-0.4441	
-0.592188	0.123098	0.830332	2.1	8.26	0.21	0.1522	-0.0581	-0.4522	
-0.58621	0.124806	0.830332	3.15	12.74	-0.21	0.162	-0.055	-0.4474	
-0.57523	0.132248	0.82777	4.06	17.36	-0.21	0.1535	-0.0578	-0.441	
-0.580476	0.131638	0.82899	5.11	22.96	-1.05	0.1508	-0.0639	-0.4444	
-0.590114	0.137006	0.816058	5.88	29.68	-2.03	0.1577	-0.0517	-0.4376	
-0.599752	0.138714	0.805566	6.44	35.35	-3.15	0.159	-0.0442	-0.4374	
-0.614514	0.149938	0.790804	6.79	41.37	-3.71	0.1719	-0.0641	-0.4477	
-0.623176	0.142374	0.779092	6.51	47.11	-4.27	0.1787	-0.0606	-0.4269	
-0.635376	0.133712	0.756278	7.42	52.92	-5.18	0.1817	-0.0656	-0.4414	
-0.655262	0.132858	0.729316	8.61	58.31	-6.3	0.1829	-0.0577	-0.4284	
-0.668438	0.140422	0.69784	9.31	62.86	-7.21	0.1941	-0.0518	-0.4299	
-0.689178	0.134932	0.659776	9.87	69.93	-8.82	0.2124	-0.0638	-0.4224	
-0.709918	0.122732	0.623908	10.92	73.57	-9.73	0.2306	-0.0608	-0.4176	
-0.731756	0.113338	0.591944	12.53	77.14	-10.36	0.2391	-0.0623	-0.4161	
-0.756034	0.12749	0.564006	13.72	79.73	-11.13	0.2529	-0.056	-0.4016	
-0.78263	0.128954	0.51789	14.91	82.88	-11.83	0.2556	-0.051	-0.3871	
-0.78873	0.133224	0.486414	16.03	85.26	-12.67	0.2655	-0.0573	-0.3921	
-0.810446	0.135176	0.430172	16.1	87.29	-13.86	0.2739	-0.0616	-0.3827	
-0.863882	0.145912	0.40077	16.66	91	-15.61	0.2893	-0.066	-0.3717	
-0.885232	0.147132	0.36417	15.75	90.37	-15.82	0.3061	-0.0659	-0.3655	
-0.892308	0.117852	0.32391	12.95	89.53	-14.77	0.3229	-0.0657	-0.3528	
-0.887794	0.11773	0.274744	12.25	90.93	-15.19	0.3285	-0.0626	-0.3479	
-0.894626	0.12139	0.255956	10.15	91.14	-15.47	0.327	-0.0639	-0.3415	
-0.91256	0.114802	0.216916	8.19	89.6	-14.98	0.3382	-0.0651	-0.3288	
-0.92598	0.117608	0.190686	6.3	92.89	-15.96	0.3563	-0.0589	-0.3143	
-0.95465	0.11895	0.153354	2.73	90.58	-16.17	0.3661	-0.0662	-0.305	
-0.955626	0.088572	0.114558	0.21	86.59	-15.75	0.38	-0.0523	-0.2903	
-1.014186	0.071492	0.09821	0.42	87.08	-15.54	0.3758	-0.0538	-0.2903	
-1.037976	0.075396	0.048312	-0.28	81.41	-14.77	0.3881	-0.0396	-0.2627	
-1.026996	0.048434	0.037698	-1.26	75.53	-12.74	0.4035	-0.0424	-0.2517	
-1.012112	0.055144	-0.006222	0.14	68.32	-11.69	0.4077	-0.0451	-0.239	
-1.00894	0.07503	-0.011346	2.87	70.91	-11.97	0.4161	-0.0482	-0.2408	
-0.968924	0.081496	-0.02562	2.66	63.77	-10.64	0.4314	-0.0449	-0.2264	
-0.982222	0.084668	-0.052094	2.66	64.05	-11.27	0.4285	-0.0383	-0.2069	
-1.023824	0.064294	-0.07503	1.12	62.58	-12.04	0.4326	-0.0336	-0.2004	
-1.032608	0.063196	-0.095404	1.68	58.59	-11.83	0.4424	-0.0381	-0.1958	
-1.021506	0.049776	-0.121024	3.08	54.32	-12.95	0.4396	-0.041	-0.1927	
-1.015406	0.030744	-0.135786	3.43	51.52	-10.99	0.4437	-0.0332	-0.1797	
-1.03517	0.054534	-0.141398	3.36	49.7	-10.15	0.4436	-0.0329	-0.1716	
-1.034438	0.063806	-0.15677	2.1	46.27	-8.82	0.4492	-0.0269	-0.1699	
-1.00833	0.039162	-0.162138	0.63	43.33	-7.63	0.452	-0.0223	-0.1682	
-0.999546	0.022448	-0.17141	1.33	42.07	-7.42	0.4575	-0.0249	-0.1507	
-1.022238	0.02623	-0.186904	1.75	42.28	-8.26	0.4603	-0.0252	-0.1587	
-1.031144	0.02989	-0.20008	2.38	42.35	-7.84	0.4616	-0.0218	-0.1458	
-1.036878	0.035258	-0.220088	2.24	42.49	-7.56	0.4587	-0.0199	-0.1313	
-1.028338	0.041602	-0.23485	1.19	41.58	-7.42	0.4601	-0.0184	-0.1313	
-1.017724	0.039772	-0.24522	-0.28	39.9	-7.35	0.4572	-0.0163	-0.1136	
-1.01382	0.019764	-0.242292	-0.84	37.45	-7.91	0.4725	-0.0117	-0.1055	
-1.024434	0.011102	-0.262788	-0.84	34.09	-7.49	0.4754	-0.0179	-0.1089	
-1.02541	0.021472	-0.279014	-0.42	30.94	-6.58	0.4654	-0.0142	-0.0895	
-1.027728	0.024156	-0.286212	-0.7	28.14	-5.39	0.4767	-0.013	-0.0976	
-1.018456	0.016958	-0.307074	-0.56	23.1	-4.41	0.4711	-0.0204	-0.09299999	
-1.02602	0.000366	-0.302804	0.49	21.28	-3.99	0.4753	-0.0144	-0.0944	
-1.006866	0.00183	-0.318664	1.33	18.97	-3.29	0.4737	-0.0079	-0.0766	
-1.006378	-0.001586	-0.30988	1.54	15.89	-2.31	0.4739	-0.023	-0.0786	
-1.000766	0.000976	-0.304878	1.96	14.56	-1.4	0.4836	-0.017	-0.0769	
-0.957822	0.010858	-0.310002	3.29	13.58	-1.12	0.4863	-0.0049	-0.075	
-0.93208	0.018422	-0.29036	2.94	14.77	-2.45	0.4822	-0.0124	-0.0752	
-0.95099	0.014274	-0.288042	3.01	15.89	-3.78	0.4752	-0.017	-0.0785	
-0.977952	-0.006466	-0.317566	3.92	15.05	-3.01	0.4765	-0.0138	-0.0704	
-1.014552	0.001098	-0.338672	6.09	14.21	-2.8	0.4793	-0.0106	-0.0639	
-1.008696	0.003904	-0.355508	7.21	12.88	-2.52	0.4765	-0.0032	-0.0685	
-1.010892	0.01769	-0.358924	7.98	12.88	-2.03	0.4723	-0.0123	-0.0735	
-1.013454	0.017812	-0.375516	7.35	11.9	-1.26	0.4793	-0.0152	-0.0656	
-1.003572	0.010126	-0.357216	6.16	11.76	-0.56	0.482	-0.0029	-0.0589	
-0.975268	0.01281	-0.342332	5.11	11.13	-1.05	0.4834	-0.0029	-0.0557	
-0.970144	0.013786	-0.364048	4.41	6.37	-0.84	0.482	-0.006	-0.0622	
-0.983564	0.016592	-0.3721	3.64	5.53	-1.54	0.4876	-0.0074	-0.0559	
-0.975634	0.007808	-0.370026	3.08	4.69	-1.68	0.4778	-0.0103	-0.0543	
-0.952454	0.006466	-0.373442	2.94	3.64	-0.91	0.4806	-0.0148	-0.0528	
-0.959408	0.00305	-0.371734	3.01	3.22	0.07	0.4876	-0.0087	-0.0479	
-0.968924	0.002074	-0.37149	3.36	2.24	0.21	0.4737	-0.0134	-0.0591	
-0.966362	0.002684	-0.355142	3.22	1.26	0.21	0.4764	-0.0043	-0.0557	
-0.95526	0.000366	-0.345016	3.29	0.28	0.21	0.489	-0.0073	-0.0511	
-0.975146	-0.000732	-0.347822	3.29	-1.96	0.28	0.4863	-0.015	-0.0577	
-0.999058	0.025132	-0.357826	3.15	-3.57	0.14	0.4834	-0.0057	-0.0494	
-1.011746	0.022082	-0.364292	1.26	-3.64	0.42	0.4806	-0.0087	-0.051	
-1.007842	-0.005856	-0.366366	0.7	-5.67	2.1	0.4877	-0.0121	-0.0624	
-0.975512	-0.004758	-0.368806	1.4	-10.36	4.06	0.4779	-0.0136	-0.064	
-0.97844	-0.007686	-0.360022	1.68	-10.29	5.32	0.4935	-0.0273	-0.0661	
-0.971242	-0.003416	-0.366976	2.03	-11.13	5.95	0.4793	-0.0105	-0.0591	
-0.9699	0.017812	-0.36783	0.7	-11.13	4.41	0.4877	-0.0134	-0.0544	
-0.967826	0.012078	-0.35929	-1.96	-11.55	3.64	0.4892	-0.0094	-0.0719	
-0.96624	0.024034	-0.354532	-4.34	-12.53	2.31	0.4878	-0.0196	-0.061	
-0.973316	0.019276	-0.338794	-8.89	-12.39	1.4	0.4821	-0.0166	-0.0609	
-0.97722	0.013542	-0.323056	-9.87	-12.39	1.4	0.4794	-0.0242	-0.0643	
-0.980148	0.0122	-0.309148	-10.01	-12.46	1.82	0.4736	-0.0105	-0.0606	
-0.98149	0.014396	-0.296948	-8.96	-13.23	2.8	0.4752	-0.0185	-0.0785	
-0.991128	0.018056	-0.298412	-8.05	-13.93	3.92	0.4836	-0.0185	-0.07539999	
-0.998448	0.025742	-0.293166	-8.12	-14.49	4.69	0.4724	-0.0138	-0.0736	
-0.995398	0.011834	-0.298046	-7.91	-15.96	5.95	0.478	-0.014	-0.0784	
-1.009672	-0.006954	-0.279014	-6.79	-16.66	7.28	0.4739	-0.0186	-0.08329999	
-0.999912	-0.015494	-0.280722	-4.27	-17.92	9.1	0.4724	-0.014	-0.0816	
-1.006622	-0.023424	-0.257298	0.56	-18.2	11.62	0.4711	-0.0234	-0.0931	
-0.998082	-0.011468	-0.254736	5.04	-19.95	14.07	0.4752	-0.0215	-0.077	
-1.004426	-0.002074	-0.249246	7.63	-20.65	17.01	0.4698	-0.031	-0.09649999	
-0.989664	0.010858	-0.23851	8.96	-21.14	19.46	0.4699	-0.0298	-0.1061	
-0.986614	0.01952	-0.224114	10.99	-20.16	21.07	0.4727	-0.0359	-0.1079	
-0.977708	0.045628	-0.224114	8.61	-19.39	22.75	0.4671	-0.0342	-0.103	
-0.970266	0.036112	-0.223504	3.92	-18.83	24.78	0.4601	-0.0344	-0.1109	
-0.991128	0.038186	-0.209962	1.54	-17.85	26.25	0.4713	-0.0344	-0.1094	
-1.000278	0.04514	-0.197884	-1.82	-16.03	28.49	0.4701	-0.0511	-0.1147	
-0.985516	0.046604	-0.199592	-3.5	-15.47	29.82	0.4659	-0.0467	-0.1193	
-1.008452	0.045872	-0.191906	-4.34	-14.49	31.78	0.4658	-0.0421	-0.116	
-1.017114	0.074786	-0.183854	-4.55	-13.93	33.88	0.4619	-0.07099999	-0.1265	
-1.006988	0.09333	-0.173728	-4.83	-12.6	34.02	0.4562	-0.07229999	-0.1216	
-0.98332	0.120902	-0.17202	-6.72	-13.37	37.52	0.4563	-0.0741	-0.1313	
-0.989786	0.131516	-0.156648	-5.81	-12.81	39.34	0.4577	-0.077	-0.125	
-0.974048	0.15555	-0.151158	-5.46	-12.46	41.51	0.455	-0.0862	-0.1317	
-0.953796	0.19154	-0.16287	-6.86	-12.25	42	0.4452	-0.0876	-0.1332	
-0.949892	0.202032	-0.14579	-9.52	-10.29	41.58	0.4508	-0.09339999	-0.1238	
-0.96502	0.198006	-0.137738	-9.66	-8.47	41.51	0.4511	-0.1077	-0.1467	
-0.945988	0.205082	-0.1464	-7.14	-7.28	41.51	0.4441	-0.1181	-0.1437	
-0.97844	0.26047	-0.156282	-6.72	-6.3	42.42	0.4469	-0.115	-0.1405	
-0.974658	0.288408	-0.144936	-11.48	-4.55	42.98	0.4455	-0.1241	-0.1423	
-0.969168	0.255468	-0.143472	-12.74	-3.01	42.84	0.4455	-0.1225	-0.1407	
-0.976976	0.278282	-0.139934	-12.11	-3.22	41.09	0.4371	-0.1284	-0.1392	
-0.960628	0.295728	-0.134932	-10.85	-2.59	41.44	0.4317	-0.1408	-0.1507	
-0.947574	0.310856	-0.13359	-7.28	-2.52	42.77	0.4387	-0.1423	-0.1508	
-0.94306	0.359778	-0.120292	-8.96	-2.03	41.37	0.4345	-0.1469	-0.1542	
-0.943792	0.366976	-0.114802	-13.16	-2.73	40.67	0.4318	-0.1575	-0.1544	
-0.925126	0.375028	-0.103212	-11.41	-3.36	38.92	0.415	-0.1619	-0.1545	
-0.920612	0.443714	-0.132736	-13.65	-2.31	38.43	0.4206	-0.1574	-0.1544	
-0.929274	0.431758	-0.11712	-14.28	-0.7	38.5	0.4179	-0.174	-0.158	
-0.911706	0.470798	-0.093818	-22.75	-2.38	37.17	0.4152	-0.1801	-0.1614	
-0.88633	0.382958	-0.137128	-12.04	-4.97	32.27	0.4082	-0.1759	-0.1741	
-0.886696	0.423706	-0.147254	-10.78	-5.6	30.59	0.404	-0.1876	-0.1632	
-0.887672	0.460672	-0.125782	-7.84	-5.11	29.68	0.4055	-0.1879	-0.1712	
-0.888404	0.472018	-0.113216	-8.96	-5.67	28.63	0.4041	-0.1863	-0.1695	
-0.891942	0.488244	-0.10919	-9.59	-5.25	27.3	0.4	-0.1984	-0.1731	
-0.887916	0.487634	-0.105286	-9.17	-4.2	26.53	0.4027	-0.1938	-0.1681	
-0.885476	0.485072	-0.088816	-9.1	-3.29	24.99	0.3916	-0.209	-0.1765	
-0.881694	0.49532	-0.086376	-10.22	-5.39	20.58	0.393	-0.2076	-0.1781	
-0.872178	0.495686	-0.082106	-10.36	-6.44	17.01	0.3846	-0.2032	-0.1843	
-0.861198	0.472018	-0.089792	-7.84	-6.86	15.33	0.3916	-0.2	-0.1779	
-0.858758	0.478118	-0.08357	-5.6	-5.88	12.53	0.3846	-0.2044	-0.1763	
-0.856562	0.510082	-0.085766	-3.78	-5.18	9.8	0.3818	-0.2103	-0.1701	
-0.866078	0.522648	-0.083936	-3.85	-4.83	6.09	0.3792	-0.2184	-0.1927	
-0.862174	0.539728	-0.087352	-5.67	-4.06	1.75	0.379	-0.2134	-0.175	
-0.845704	0.527528	-0.084058	-5.53	-3.64	0	0.3846	-0.203	-0.1795	
-0.848144	0.523868	-0.072712	-5.04	-2.8	-2.38	0.3833	-0.2093	-0.1893	
-0.849608	0.532164	-0.06344	-3.92	-3.15	-5.32	0.3791	-0.2122	-0.1845	
-0.846436	0.539362	-0.067954	-3.01	-3.64	-7.91	0.386	-0.2046	-0.1812	
-0.843996	0.535458	-0.075518	-3.22	-2.8	-10.57	0.3777	-0.2048	-0.1907	
-0.860344	0.532286	-0.071126	-4.97	-1.54	-12.95	0.3861	-0.2108	-0.1894	
-0.863516	0.513498	-0.05917	-4.97	-0.56	-14.91	0.3874	-0.1986	-0.181	
-0.857782	0.485926	-0.04697	-3.64	0.21	-17.22	0.3833	-0.2051	-0.2004	
-0.86193	0.474092	-0.057584	0.35	1.47	-17.92	0.3929	-0.1925	-0.1776	
-0.865102	0.46604	-0.055022	2.8	1.82	-18.83	0.3888	-0.1927	-0.1856	
-0.862174	0.475068	-0.056242	5.32	1.61	-20.23	0.3943	-0.1822	-0.187	
-0.871568	0.472872	-0.066612	5.95	1.75	-22.05	0.3985	-0.1838	-0.1886	
-0.879986	0.477386	-0.07137	5.88	2.17	-23.66	0.3986	-0.1884	-0.1904	
-0.895358	0.463356	-0.070028	6.16	3.29	-24.85	0.3971	-0.1866	-0.1807	
-0.898164	0.45018	-0.083448	7.14	3.5	-25.9	0.3928	-0.1746	-0.1851	
-0.903776	0.449692	-0.104066	7.49	2.8	-27.65	0.397	-0.1774	-0.1756	
-0.922808	0.452864	-0.104554	6.51	2.59	-30.1	0.4013	-0.1793	-0.1901	
-0.909632	0.418826	-0.080276	5.32	3.15	-34.16	0.4054	-0.173	-0.1788	
-0.904874	0.37637	-0.096136	7.28	3.85	-35.28	0.4011	-0.1563	-0.1766	
-0.915488	0.388692	-0.109068	9.03	2.94	-37.17	0.4096	-0.1613	-0.1896	
-0.955504	0.38918	-0.109068	8.68	4.9	-40.11	0.4096	-0.1583	-0.1912	
-0.963312	0.393938	-0.122366	6.09	5.53	-45.15	0.4138	-0.1508	-0.191	
-0.954772	0.349652	-0.114314	3.99	5.6	-47.95	0.415	-0.1383	-0.1762	
-0.960872	0.293532	-0.113948	5.88	5.53	-46.83	0.4107	-0.1381	-0.1681	
-0.963556	0.278282	-0.129442	8.4	4.76	-47.39	0.4149	-0.128	-0.1823	
-0.979538	0.256322	-0.115168	7.98	3.78	-50.19	0.4162	-0.1173	-0.1772	
-0.96868	0.245342	-0.108946	9.66	1.05	-52.22	0.4203	-0.1095	-0.1673	
-0.978196	0.246562	-0.105042	9.73	0.14	-53.62	0.4189	-0.1082	-0.1737	
-0.983198	0.23363	-0.11834	11.27	-1.12	-53.62	0.4274	-0.1053	-0.1753	
-1.011868	0.219722	-0.12871	11.06	-2.45	-54.46	0.4287	-0.0975	-0.1687	
-1.019798	0.205936	-0.13054	8.19	-4.48	-58.03	0.4398	-0.0887	-0.1717	
-0.99857	0.169824	-0.12383	2.59	-6.44	-62.86	0.4384	-0.0812	-0.173	
-0.998936	0.142374	-0.111264	1.61	-8.89	-65.31	0.4438	-0.0556	-0.1723	
-1.006134	0.091988	-0.125294	5.04	-9.59	-65.38	0.4367	-0.0508	-0.1673	
-1.030168	0.084424	-0.109068	5.25	-8.47	-66.22	0.4508	-0.0455	-0.1865	
-1.005036	0.051484	-0.09162199	3.99	-10.08	-69.65	0.4381	-0.0301	-0.1811	
-0.997594	0.02989	-0.085156	5.88	-12.67	-68.46	0.4479	-0.0257	-0.1811	
-0.994666	0.01281	-0.090402	8.33	-13.37	-66.92	0.4435	-0.0164	-0.1727	
-1.017358	-0.00183	-0.079788	9.52	-13.72	-66.57	0.4365	-0.0015	-0.1835	
-1.020652	-0.040992	-0.079666	11.48	-14.35	-66.57	0.442	0.0031	-0.1754	
-1.016992	-0.053192	-0.072224	11.48	-13.58	-67.55	0.4364	0.0149	-0.1862	
-1.02907	-0.101016	-0.063928	15.4	-13.09	-64.89	0.4378	0.0178	-0.1893	
-1.038342	-0.124684	-0.053314	17.99	-11.83	-63.14	0.4363	0.0268	-0.1906	
-1.039806	-0.122854	-0.05734	19.32	-13.23	-61.25	0.4432	0.0388	-0.1919	
-1.023092	-0.123464	-0.061976	20.79	-15.61	-59.22	0.4305	0.051	-0.1883	
-1.022604	-0.12627	-0.063928	21.14	-16.8	-58.52	0.4276	0.0585	-0.1928	
-0.992836	-0.13725	-0.042944	17.29	-18.97	-57.89	0.4333	0.0582	-0.2009	
-0.988566	-0.16409	-0.036234	11.9	-13.86	-56.77	0.429	0.0734	-0.1956	
-0.973194	-0.177754	-0.028792	13.3	-17.22	-51.94	0.4261	0.075	-0.1955	
-0.982954	-0.263886	-0.039406	7.56	-15.12	-48.93	0.4191	0.0808	-0.2049	
-0.98576	-0.265716	-0.020008	7.28	-14.35	-46.69	0.4219	0.0897	-0.2095	
-0.921954	-0.369904	-0.017324	15.12	-16.45	-43.12	0.4288	0.0932	-0.1886	
-0.983076	-0.289018	0.042334	5.53	-6.58	-42.77	0.4148	0.1004	-0.2043	
-0.9699	-0.31049	0.029524	7.98	-12.04	-37.52	0.4161	0.1141	-0.2023	
-0.934642	-0.3721	-0.011834	10.99	-12.95	-35.28	0.4091	0.1109	-0.2103	
-0.949892	-0.358558	0.016104	-0.98	-9.52	-36.96	0.4119	0.1243	-0.2148	
-0.94916	-0.353556	0.03782	-0.56	-8.75	-37.66	0.4118	0.1258	-0.2131	
-0.956724	-0.415776	0.04941	-0.56	-11.2	-37.87	0.4174	0.1244	-0.21	
-0.95892	-0.384544	0.082838	2.38	-9.1	-35.91	0.4061	0.1321	-0.2081	
-0.949404	-0.490928	0.100772	7.35	-14.07	-29.75	0.4102	0.1412	-0.203	
-0.960994	-0.377102	0.024522	12.39	-12.67	-24.08	0.4131	0.1543	-0.2187	
-0.940254	-0.445178	0.002684	10.57	-13.79	-19.53	0.4087	0.1505	-0.1963	
-0.909998	-0.449814	0.066368	9.59	-7.98	-17.5	0.4032	0.1503	-0.2043	
-0.945744	-0.41724	0.068808	13.93	-6.02	-19.53	0.4087	0.1621	-0.212	
-0.948916	-0.416874	0.081984	17.01	-7.07	-15.54	0.4017	0.1564	-0.2025	
-0.912438	-0.436882	0.056486	17.5	-12.6	-9.03	0.4144	0.1561	-0.209	
-0.88694	-0.452132	0.065026	17.08	-8.05	-6.72	0.4102	0.1516	-0.2091	
-0.889136	-0.434442	0.078568	16.66	-6.86	-6.37	0.4045	0.1489	-0.198	
-0.904996	-0.431392	0.080154	16.17	-5.6	-6.02	0.4032	0.1504	-0.2011	
-0.915122	-0.419314	0.082594	14.7	-4.06	-4.83	0.4018	0.1501	-0.2123	
-0.892918	-0.438224	0.098088	8.47	-5.11	-3.08	0.406	0.1546	-0.2122	
-0.883158	-0.418948	0.080642	4.55	-2.66	-4.27	0.4031	0.1563	-0.2057	
-0.913048	-0.41968	0.115534	3.43	-0.42	-5.67	0.4102	0.1515	-0.2139	
-0.947452	-0.445544	0.135298	4.62	-0.35	-1.96	0.4003	0.1594	-0.204	
-0.940498	-0.425292	0.108946	6.02	-1.96	2.87	0.399	0.1503	-0.2059	
-0.899018	-0.420412	0.083692	2.87	-0.98	5.81	0.4017	0.1652	-0.2103	
-0.920124	-0.413702	0.118096	1.61	3.01	7.77	0.4088	0.1577	-0.2073	
-0.925614	-0.40077	0.125172	1.82	4.06	11.55	0.4046	0.1547	-0.2074	
-0.929884	-0.392596	0.122976	1.12	4.48	15.12	0.4102	0.1575	-0.2154	
-0.928664	-0.42578	0.129198	0.84	5.88	18.9	0.4059	0.1519	-0.1995	
-0.93208	-0.435052	0.134322	2.59	7.84	23.38	0.42	0.153	-0.2108	
-0.90402	-0.403698	0.118828	2.87	4.34	28.63	0.4159	0.1437	-0.219	
-0.882426	-0.34892	0.092232	4.69	8.19	29.05	0.4201	0.1425	-0.2079	
-0.894382	-0.36722	0.105164	2.45	14.28	28.98	0.4159	0.1453	-0.2158	
-0.8906	-0.361486	0.101626	0.56	15.75	28.84	0.423	0.1288	-0.2115	
-0.91073	-0.365268	0.097356	0.42	17.29	30.24	0.4202	0.1259	-0.21	
-0.919148	-0.360876	0.089182	-2.03	17.64	31.78	0.4285	0.138	-0.2065	
-0.942328	-0.379298	0.086376	-1.82	17.22	33.04	0.4273	0.1228	-0.2101	
-0.937692	-0.379664	0.058072	-1.68	17.36	35.42	0.4356	0.1246	-0.1973	
-0.939034	-0.307806	0.016104	-3.5	21.56	35.91	0.4259	0.1065	-0.1994	
-0.969412	-0.287188	0.015372	-8.96	27.02	34.86	0.4315	0.1066	-0.1962	
-0.97844	-0.26657	0.008662	-12.74	24.15	36.47	0.4371	0.1053	-0.1851	
-0.97722	-0.268278	0.012078	-13.23	23.8	38.57	0.4414	0.0888	-0.1808	
-0.971852	-0.27633	0.022082	-15.12	20.79	42.56	0.4428	0.0933	-0.1823	
-0.986858	-0.277184	-0.011468	-14.35	14.84	45.57	0.4428	0.0873	-0.1825	
-1.012234	-0.255224	-0.031354	-10.5	20.93	45.64	0.4456	0.0813	-0.1778	
-1.007476	-0.226554	-0.029036	-11.48	20.86	50.4	0.4499	0.0707	-0.1814	
-1.012722	-0.208864	-0.054412	-7.49	18.13	52.99	0.4513	0.062	-0.1689	
-1.021628	-0.171776	-0.065026	-6.51	18.27	57.12	0.45	0.0604	-0.1721	
-1.009672	-0.13176	-0.073688	-6.23	19.11	59.99	0.4598	0.0484	-0.1661	
-1.020774	-0.114314	-0.073566	-7	20.02	62.86	0.4669	0.0378	-0.1649	
-1.021262	-0.082594	-0.076372	-9.59	20.09	63.14	0.4543	0.0305	-0.1618	
-1.006378	-0.05124	-0.075518	-13.02	17.5	62.3	0.4586	0.0214	-0.1605	
-0.990762	-0.010004	-0.10431	-18.83	14.28	61.32	0.4616	0.009099999	-0.1689	
-1.036024	0.043188	-0.11529	-24.5	16.8	57.75	0.453	0.011	-0.1576	
-1.009794	0.065636	-0.122732	-26.67	17.01	56.49	0.4672	0.0033	-0.1611	
-1.045784	0.05673	-0.128466	-30.8	12.88	56.14	0.4575	-0.0132	-0.1615	
-1.010038	-0.004148	-0.116998	-31.29	11.34	57.89	0.4491	-0.0177	-0.1632	
-1.017602	0.03355	-0.100284	-27.16	12.81	57.82	0.445	-0.0358	-0.1653	
-1.02053	0.09552599	-0.096014	-29.12	9.87	56.49	0.4534	-0.0402	-0.1607	
-1.016504	0.077226	-0.109068	-23.52	12.74	52.92	0.4536	-0.0556	-0.1708	
-1.033218	0.123586	-0.096258	-20.79	8.19	52.29	0.4578	-0.0553	-0.1596	
-1.006378	0.114192	-0.110776	-14	9.94	51.24	0.4439	-0.0675	-0.1663	
-0.98454	0.122366	-0.096624	-10.01	10.29	50.89	0.441	-0.0628	-0.1629	
-0.982222	0.151768	-0.101504	-6.16	6.65	50.26	0.4341	-0.075	-0.168	
-0.980148	0.186294	-0.09747799	-6.23	7.63	48.3	0.4412	-0.084	-0.1667	
-0.98393	0.191052	-0.127734	-3.08	6.23	45.78	0.4411	-0.0838	-0.1587	
-0.984418	0.231922	-0.129198	-3.92	7.14	45.15	0.4357	-0.0917	-0.1749	
-0.97966	0.22387	-0.133224	3.29	7.56	45.71	0.4356	-0.09869999	-0.1559	
-0.963434	0.215452	-0.12017	8.61	9.24	46.9	0.4344	-0.1169	-0.1597	
-0.958066	0.230092	-0.112484	14.63	11.97	44.31	0.4245	-0.1124	-0.1627	
-0.964776	0.277184	-0.144692	16.31	6.37	42.49	0.433	-0.1258	-0.1551	
-0.97112	0.340014	-0.160674	14.07	6.72	42.42	0.4332	-0.1368	-0.1683	
-0.983198	0.32086	-0.169092	11.48	6.44	43.47	0.4318	-0.1456	-0.1621	
-0.9577	0.350872	-0.16897	5.04	7.49	43.05	0.4234	-0.1543	-0.1511	
-0.942938	0.341112	-0.16226	3.15	6.23	41.93	0.4331	-0.1542	-0.1447	
-0.947086	0.326106	-0.156404	3.71	6.86	40.18	0.418	-0.1787	-0.1614	
-0.945866	0.352336	-0.147742	3.85	4.97	39.06	0.415	-0.169	-0.1403	
-0.947086	0.401624	-0.160186	1.96	3.92	38.5	0.415	-0.1766	-0.1421	
-0.938668	0.424804	-0.164456	0.77	1.61	36.19	0.4081	-0.1887	-0.1472	
-0.939278	0.4331	-0.181658	-2.1	0	33.67	0.4026	-0.1949	-0.1554	
-0.933178	0.416508	-0.187514	-0.35	-2.38	30.45	0.4068	-0.1978	-0.1491	
-0.918416	0.428098	-0.175924	-2.66	-2.1	27.02	0.4026	-0.1993	-0.1491	
-0.906338	0.429562	-0.169336	-5.74	-2.45	24.43	0.3998	-0.1962	-0.1474	
-0.901458	0.420656	-0.16104	-4.83	-3.92	23.1	0.4012	-0.1978	-0.1506	
-0.897554	0.454694	-0.161772	-5.81	-4.97	22.47	0.3929	-0.2098	-0.1509	
-0.881816	0.457622	-0.17507	-1.82	-6.58	21.98	0.39	-0.2053	-0.1508	
-0.880962	0.488732	-0.158966	-2.66	-6.44	20.51	0.3944	-0.2101	-0.1622	
-0.883524	0.484462	-0.142984	-3.36	-6.3	18.76	0.3887	-0.2085	-0.1573	
-0.880108	0.481656	-0.150548	-4.69	-6.72	16.87	0.3916	-0.2131	-0.1622	
-0.87901	0.48861	-0.13847	-3.36	-7.14	14.98	0.3733	-0.2083	-0.1571	
-0.873398	0.478118	-0.136884	-3.15	-8.4	13.23	0.3818	-0.2237	-0.1641	
-0.868762	0.515816	-0.14274	-2.73	-7.63	11.55	0.3776	-0.2222	-0.1656	
-0.863516	0.509838	-0.1281	-3.57	-6.23	8.89	0.3888	-0.2117	-0.167	
-0.870714	0.51057	-0.108946	-3.64	-5.6	6.72	0.3791	-0.2254	-0.1721	
-0.868518	0.500566	-0.111996	-2.03	-5.67	5.25	0.3818	-0.2176	-0.1639	
-0.863272	0.501176	-0.109312	-1.26	-5.95	4.06	0.3819	-0.2226	-0.1785	
-0.861198	0.49349	-0.104798	-0.56	-5.88	3.01	0.3805	-0.2226	-0.1801	
-0.859124	0.5124	-0.101504	1.26	-5.95	1.82	0.3778	-0.2301	-0.1803	
-0.875106	0.53497	-0.10065	-2.1	-6.02	-1.05	0.3749	-0.2242	-0.1833	
-0.870226	0.5185	-0.09857599	-6.02	-6.79	-5.18	0.3777	-0.2269	-0.1721	
-0.87291	0.512034	-0.09357399	-8.68	-6.23	-8.68	0.3749	-0.221	-0.1784	
-0.872178	0.480924	-0.09076799	-8.54	-5.88	-12.53	0.3691	-0.2028	-0.1778	
-0.855586	0.4514	-0.089426	-7.21	-5.25	-16.38	0.3735	-0.2138	-0.1926	
-0.864248	0.480436	-0.101382	-3.15	-2.94	-18.06	0.3833	-0.2166	-0.1799	
-0.869128	0.483608	-0.100162	-2.31	-1.89	-18.62	0.379	-0.2104	-0.1765	
-0.874008	0.476288	-0.098698	-2.31	-1.19	-20.79	0.3789	-0.2028	-0.173	
-0.883646	0.48739	-0.102236	-2.87	-0.91	-22.96	0.379	-0.1986	-0.1857	
-0.892918	0.490318	-0.094916	-3.5	-0.63	-24.22	0.3833	-0.2064	-0.1924	
-0.886574	0.467382	-0.101748	-3.92	-1.4	-25.34	0.3888	-0.1957	-0.1873	
-0.896822	0.45689	-0.096868	0.07	-2.31	-27.72	0.3943	-0.1836	-0.1822	
-0.919392	0.458598	-0.126026	0.49	-1.26	-30.73	0.3845	-0.194	-0.1792	
-0.928664	0.460062	-0.115412	-3.08	1.47	-34.44	0.3873	-0.182	-0.1821	
-0.923784	0.412238	-0.11102	-6.37	2.8	-36.68	0.3886	-0.17	-0.1833	
-0.925614	0.388326	-0.120414	-7.98	1.33	-38.5	0.3998	-0.1685	-0.1818	
-0.93635	0.396988	-0.1098	-10.43	0.21	-42.98	0.4026	-0.1597	-0.1879	
-0.926468	0.38796	-0.106506	-12.39	-1.54	-48.16	0.3942	-0.1567	-0.1926	
-0.933544	0.359534	-0.09089	-13.44	-2.24	-51.45	0.4024	-0.1385	-0.1841	
-0.943426	0.316346	-0.09028	-13.09	-2.03	-52.71	0.4024	-0.1371	-0.1873	
-0.948794	0.292922	-0.098332	-11.34	-2.8	-52.64	0.4136	-0.1312	-0.1888	
-0.959408	0.292312	-0.106872	-10.36	-4.2	-52.71	0.4093	-0.1134	-0.201	
-0.96075	0.288652	-0.09942999	-10.22	-4.34	-54.32	0.4079	-0.1132	-0.1946	
-0.963556	0.279258	-0.086498	-9.66	-7.21	-56.91	0.4189	-0.08899999	-0.1875	
-0.959042	0.250222	-0.065758	-8.68	-7.21	-59.71	0.4133	-0.0891	-0.1939	
-0.967216	0.21655	-0.04636	-8.33	-6.51	-61.11	0.426	-0.0893	-0.1988	
-0.996252	0.204228	-0.050752	-6.93	-6.3	-64.4	0.416	-0.0727	-0.1999	
-1.000522	0.177754	-0.052094	-8.19	-5.53	-66.01	0.4243	-0.0591	-0.1979	
-1.00833	0.122854	-0.042822	-10.15	-6.23	-67.55	0.4215	-0.0621	-0.1964	
-1.023214	0.04148	-0.024034	-4.2	-10.15	-69.23	0.4215	-0.0471	-0.1991	
-1.014552	0.002318	-0.01891	2.8	-12.46	-69.09	0.4213	-0.0291	-0.2018	
-1.008086	-0.02806	-0.025132	8.61	-13.02	-66.92	0.4297	-0.0244	-0.1953	
-1.031754	-0.020618	-0.052704	18.27	-14.91	-63.21	0.4226	-0.0125	-0.2029	
-1.037854	-0.05368	-0.047214	20.79	-15.61	-61.11	0.4268	-0.0096	-0.2045	
-0.971364	-0.029158	-0.035502	22.82	-21.35	-59.5	0.4324	-0.007999999	-0.2012	
-1.021872	-0.015982	-0.01342	25.76	-12.74	-60.69	0.4253	0.0173	-0.21	
-1.03273	-0.072468	-0.00732	30.66	-13.44	-59.43	0.4281	0.0171	-0.2165	
-1.030168	-0.082106	0.000732	30.03	-8.68	-59.57	0.4364	0.0322	-0.2113	
-1.023336	-0.076494	-0.006466	23.17	-9.31	-56.98	0.4266	0.0382	-0.2174	
-1.019066	-0.068076	-0.01037	22.19	-6.65	-56.07	0.4223	0.0369	-0.211	
-1.007598	-0.067954	0.028792	21.91	-6.44	-55.44	0.432	0.0521	-0.2026	
-0.978074	-0.069296	0.035624	18.9	-6.65	-53.13	0.4278	0.0445	-0.2077	
-0.99186	-0.113216	0.020862	18.83	-7.28	-51.52	0.4291	0.0656	-0.207	
-1.003084	-0.182512	0.010126	25.34	-6.65	-50.05	0.4249	0.0597	-0.204	
-0.972462	-0.152744	0.0061	11.76	-7.28	-48.65	0.4346	0.0717	-0.2021	
-0.982832	-0.225578	0.002562	7.35	-6.02	-47.18	0.4233	0.0793	-0.2018	
-0.998692	-0.264618	0.044164	3.85	-0.98	-45.71	0.4275	0.0837	-0.2049	
-1.000522	-0.190198	0.019886	8.75	-0.7	-44.03	0.4288	0.0959	-0.1997	
-0.990152	-0.291946	0.025132	3.78	0.56	-38.43	0.4274	0.0901	-0.1951	
-0.957944	-0.324154	0.031964	1.33	2.38	-36.26	0.4273	0.1094	-0.2057	
-0.96746	-0.305366	0.024156	-0.84	0.07	-35.77	0.4217	0.1109	-0.2056	
-0.936838	-0.31171	0.01647	-2.1	0.63	-34.86	0.4202	0.1246	-0.202	
-0.951234	-0.299632	0.004148	-3.92	2.31	-33.95	0.4244	0.1187	-0.1974	
-0.940254	-0.35685	0.015982	-4.55	2.31	-32.69	0.4271	0.1267	-0.1796	
-0.950624	-0.38064	0.03111	-5.95	4.69	-32.69	0.4215	0.1308	-0.1938	
-0.955504	-0.382104	0.02806	-1.89	2.1	-31.36	0.4159	0.1425	-0.211	
-0.965386	-0.3599	0.020496	-0.7	4.13	-31.01	0.4299	0.1381	-0.2001	
-0.969412	-0.366488	-0.005978	-0.7	2.38	-28.28	0.4241	0.158	-0.193	
-0.965874	-0.346846	0.001586	-2.24	2.59	-25.41	0.4213	0.152	-0.1932	
-0.966606	-0.366732	-0.007442	-1.75	-1.12	-24.99	0.4227	0.1461	-0.187	
-0.953796	-0.396622	-0.005978	-5.04	-1.26	-25.2	0.4169	0.1676	-0.1751	
-0.963556	-0.38613	0.010492	-2.03	0.77	-24.15	0.4184	0.1659	-0.1815	
-0.940132	-0.395158	0.00549	-1.54	-0.49	-20.09	0.4226	0.1688	-0.1847	
-0.921344	-0.406992	0.00549	-0.42	0.28	-17.78	0.4183	0.1704	-0.183	
-0.9211	-0.416142	-0.008662	-0.56	0.84	-16.24	0.4198	0.1672	-0.1879	
-0.913292	-0.424194	-0.008417999	-1.96	2.31	-15.61	0.4211	0.1689	-0.1815	
-0.929274	-0.428098	-0.000732	-3.01	3.64	-14.14	0.4168	0.1766	-0.1764	
-0.93574	-0.436272	0.004636	-3.01	2.38	-13.23	0.414	0.1828	-0.1714	
-0.94001	-0.44469	0.022204	-1.68	1.61	-11.97	0.407	0.1809	-0.1858	
-0.917806	-0.462014	0.012932	-0.35	-0.98	-8.75	0.4126	0.1886	-0.1792	
-0.918416	-0.46299	0.002806	0.7	-0.77	-6.58	0.4071	0.1823	-0.1922	
-0.917684	-0.458354	0.00244	0.56	-0.63	-5.25	0.4125	0.1903	-0.1727	
-0.925736	-0.467382	0.009881999	1.82	-0.07	-2.8	0.4126	0.1827	-0.1746	
-0.920368	-0.468602	-0.003294	3.29	-0.07	-0.14	0.407	0.1856	-0.1809	
-0.916342	-0.467992	-0.002562	4.83	0.42	1.75	0.4182	0.1855	-0.1793	
-0.909388	-0.4819	0.003538	6.37	0.91	3.57	0.414	0.1827	-0.1746	
-0.910974	-0.44652	0.001098	6.51	2.1	4.9	0.4111	0.1857	-0.1745	
-0.92171	-0.429806	0.013176	5.25	2.45	6.93	0.414	0.1869	-0.1841	
-0.920002	-0.444202	0.012566	3.64	0.77	9.8	0.4224	0.184	-0.1794	
-0.909754	-0.446398	0.037454	3.99	0.91	12.67	0.4182	0.1782	-0.1732	
-0.912926	-0.455792	0.04453	4.83	1.96	14.63	0.4198	0.173	-0.1941	
-0.906216	-0.44347	0.039894	6.3	3.22	16.66	0.4253	0.1764	-0.1813	
-0.916952	-0.43798	0.034038	6.65	3.22	19.46	0.4169	0.169	-0.1782	
-0.925614	-0.431148	0.025864	4.83	3.99	22.96	0.4212	0.1583	-0.1818	
-0.944768	-0.44042	0.038308	4.34	3.01	25.06	0.4267	0.1601	-0.1705	
-0.932934	-0.439932	0.0244	4.06	1.33	27.93	0.4197	0.166	-0.1767	
-0.92964	-0.436028	0.022448	4.9	1.47	30.52	0.4212	0.1568	-0.1802	
-0.923296	-0.419558	0.006954	3.57	1.82	33.46	0.4339	0.1478	-0.1774	
-0.925126	-0.394182	0.000366	3.15	3.5	35.7	0.4227	0.1508	-0.182	
-0.945622	-0.369294	0.00732	3.71	5.95	38.01	0.4283	0.1476	-0.1854	
-0.961116	-0.367464	0.005002	4.48	5.39	41.3	0.4255	0.1521	-0.1868	
-0.956236	-0.362828	0.000976	5.46	5.74	43.75	0.427	0.1343	-0.1745	
-0.943914	-0.338916	-0.00976	3.36	5.88	45.85	0.4354	0.1268	-0.1716	
-0.955626	-0.31964	-0.01586	2.1	9.52	47.46	0.4341	0.1236	-0.1781	
-0.963434	-0.303658	-0.02318	0.07	8.26	50.19	0.4397	0.1178	-0.1687	
-0.982588	-0.266692	-0.02318	0.35	12.25	51.1	0.43	0.1026	-0.1755	
-1.00894	-0.249612	-0.024644	0	11.97	52.15	0.4468	0.1013	-0.166	
-0.991372	-0.243634	-0.029524	0.07	10.71	55.09	0.4399	0.0923	-0.1647	
-0.99796	-0.225822	-0.033306	-2.1	9.38	57.82	0.4484	0.0859	-0.1745	
-0.983076	-0.213012	-0.04331	-1.96	7	59.5	0.4442	0.086	-0.1729	
-0.99308	-0.175802	-0.04758	-5.53	8.89	60.69	0.4527	0.0648	-0.1736	
-0.99552	-0.135176	-0.049166	-6.23	9.94	60.27	0.4527	0.0606	-0.1625	
-0.985516	-0.088816	-0.060756	-6.72	9.59	59.99	0.4543	0.0437	-0.1726	
-1.030412	-0.052338	-0.058926	-4.83	10.78	58.73	0.4586	0.0272	-0.1683	
-1.034438	-0.026596	-0.063806	-5.6	12.11	60.9	0.4559	0.0167	-0.167	
-1.03334	-0.002196	-0.079544	-5.95	8.47	61.25	0.4531	0.0123	-0.1639	
-1.026264	0.022692	-0.092354	-7.7	6.58	60.83	0.4531	0.0093	-0.164	
-1.010526	0.062098	-0.088816	-8.68	7.56	62.58	0.4559	-0.0024	-0.1548	
-1.035658	0.087474	-0.081862	-5.74	16.24	61.32	0.4505	-0.0193	-0.1665	
-1.00467	0.104066	-0.07991	-8.19	12.04	66.15	0.4563	-0.0346	-0.175	
-0.977342	0.081862	-0.072468	-9.8	17.22	66.08	0.4534	-0.0328	-0.1653	
-0.995032	0.131394	-0.079422	-10.99	16.8	63.35	0.4522	-0.0436	-0.1736	
-1.000522	0.196664	-0.077104	-17.5	17.71	63.21	0.4437	-0.0538	-0.1626	
-1.010404	0.139324	-0.061976	-12.95	14.35	60.69	0.4481	-0.0647	-0.1758	
-1.022482	0.14518	-0.077836	-14.84	10.64	57.61	0.4384	-0.0753	-0.1793	
-0.997472	0.107116	-0.075396	-8.26	11.83	54.74	0.4384	-0.0841	-0.1699	
-0.99247	0.196786	-0.076982	-14.07	12.04	53.83	0.4356	-0.0885	-0.1652	
-0.976976	0.183	-0.082228	-19.25	11.06	51.38	0.4245	-0.1022	-0.1736	
-1.011868	0.285236	-0.066978	-23.1	9.31	49.49	0.4259	-0.099	-0.1687	
-0.985272	0.183976	-0.10736	-14.98	8.26	46.9	0.4288	-0.1067	-0.1737	
-0.985394	0.20679	-0.114924	-6.72	6.72	43.54	0.4246	-0.1171	-0.1692	
-0.978928	0.221064	-0.114558	1.4	7.49	43.96	0.4205	-0.1263	-0.1743	
-0.965264	0.279746	-0.097356	-0.35	5.88	44.94	0.4192	-0.131	-0.1824	
-0.941596	0.33062	-0.09699	-2.24	3.01	44.59	0.4107	-0.1397	-0.1714	
-0.95038	0.317078	-0.117364	2.31	2.45	45.29	0.422	-0.1427	-0.1684	
-0.953064	0.324154	-0.123098	3.57	3.64	45.01	0.4094	-0.1489	-0.1765	
-0.937326	0.352092	-0.13054	6.44	3.08	44.73	0.4081	-0.1578	-0.1719	
-0.940376	0.365146	-0.119926	6.58	3.78	43.89	0.4124	-0.1701	-0.1803	
-0.943548	0.375882	-0.115412	6.09	2.24	41.79	0.3983	-0.1652	-0.1705	
-0.94001	0.420656	-0.122732	7	1.19	40.11	0.4068	-0.1743	-0.1708	
-0.941718	0.448716	-0.136518	3.29	-0.21	38.01	0.4081	-0.1725	-0.1611	
-0.933178	0.453962	-0.139202	-1.54	-1.96	33.95	0.4054	-0.1802	-0.1678	
-0.905118	0.434198	-0.152622	-3.99	-3.36	31.08	0.3914	-0.1874	-0.1599	
-0.918172	0.449082	-0.152866	-2.03	-3.5	29.12	0.3902	-0.1987	-0.1842	
-0.89243	0.479582	-0.143716	-2.17	-3.64	26.67	0.3957	-0.1939	-0.1729	
-0.881816	0.476654	-0.147498	-3.57	-5.32	25.13	0.3945	-0.215	-0.1751	
-0.877424	0.481046	-0.140178	-4.41	-3.92	23.17	0.393	-0.2089	-0.1733	
-0.876082	0.492636	-0.137494	-3.08	-3.43	22.4	0.3804	-0.2088	-0.1716	
-0.862174	0.509716	-0.130052	-1.61	-3.99	20.44	0.379	-0.2103	-0.1717	
-0.858514	0.514718	-0.110654	-2.87	-4.34	18.27	0.3902	-0.2119	-0.1718	
-0.857172	0.53314	-0.10065	-3.43	-5.11	16.45	0.3818	-0.2134	-0.175	
-0.854854	0.532652	-0.101992	-3.36	-5.67	15.96	0.3678	-0.215	-0.1813	
-0.859124	0.54107	-0.09577	-3.92	-5.32	13.79	0.3848	-0.2244	-0.1881	
-0.856684	0.531676	-0.078934	-4.97	-5.67	9.45	0.3748	-0.2105	-0.1796	
-0.841556	0.510082	-0.075884	-3.78	-5.6	6.23	0.3834	-0.2257	-0.1818	
-0.845948	0.529602	-0.080886	-2.1	-5.32	3.5	0.368	-0.2273	-0.1897	
-0.849974	0.540948	-0.075762	-2.24	-4.48	1.19	0.3749	-0.2271	-0.1801	
-0.846436	0.538752	-0.061976	-2.52	-3.57	-1.96	0.382	-0.2213	-0.1864	
-0.842654	0.553026	-0.065392	-2.17	-2.87	-5.11	0.3734	-0.2091	-0.1844	
-0.846436	0.54717	-0.06466	-2.94	-2.1	-8.54	0.3763	-0.2212	-0.1864	
-0.848388	0.531554	-0.059658	-3.78	-1.47	-12.39	0.379	-0.209	-0.1796	
-0.842898	0.52765	-0.066368	-2.8	-0.91	-14.91	0.3777	-0.2153	-0.1878	
-0.84912	0.526796	-0.071126	-1.82	-0.56	-17.57	0.3777	-0.2212	-0.1832	
-0.8601	0.527894	-0.063196	-0.91	-0.21	-20.93	0.3832	-0.2105	-0.1781	
-0.861198	0.53375	-0.074542	-1.12	-0.56	-24.85	0.3846	-0.2075	-0.178	
-0.86742	0.530334	-0.085156	-4.13	0.14	-29.47	0.3775	-0.1998	-0.1745	
-0.86864	0.505812	-0.099796	-7.98	1.68	-36.12	0.3832	-0.1971	-0.1841	
-0.873276	0.481046	-0.10492	-8.68	3.08	-38.92	0.3817	-0.1851	-0.1853	
-0.885842	0.464576	-0.110654	-7.91	3.85	-40.11	0.3901	-0.1925	-0.1776	
-0.899628	0.439078	-0.108092	-7.77	3.85	-42.49	0.3998	-0.1759	-0.1756	
-0.897188	0.430172	-0.097844	-6.23	2.87	-45.43	0.3915	-0.1718	-0.1914	
-0.899872	0.40992	-0.089426	-5.39	2.38	-47.32	0.3956	-0.1629	-0.1976	
-0.918294	0.389668	-0.073688	-3.64	1.82	-49	0.4082	-0.1569	-0.1943	
-0.923418	0.36112	-0.073566	-1.68	-0.35	-49.91	0.4109	-0.1492	-0.1877	
-0.925736	0.33733	-0.079666	0.14	-2.87	-49.84	0.3996	-0.1384	-0.1841	
-0.944646	0.327082	-0.09272	2.45	-1.82	-50.26	0.4038	-0.1402	-0.1906	
-0.968314	0.316346	-0.06832	4.55	2.59	-53.83	0.415	-0.1312	-0.1904	
-0.963556	0.285968	-0.081374	3.71	-4.97	-56.42	0.4108	-0.131	-0.1855	
-0.980148	0.24888	-0.082228	2.59	-3.64	-60.62	0.4218	-0.107	-0.1849	
-0.996008	0.219112	-0.072956	1.75	-4.76	-62.72	0.4106	-0.107	-0.1896	
-1.003694	0.192394	-0.05856	3.08	-2.8	-64.61	0.4203	-0.0935	-0.1877	
-1.012234	0.154452	-0.067588	3.22	-3.92	-64.26	0.4203	-0.0874	-0.1843	
-1.02846	0.111996	-0.089182	5.32	-3.36	-64.4	0.4272	-0.0739	-0.1856	
-1.025776	0.084058	-0.092232	7.28	-4.41	-65.1	0.4285	-0.0635	-0.1917	
-1.024556	0.074054	-0.080764	9.1	-6.3	-67.06	0.4242	-0.0483	-0.188	
-1.01565	0.060268	-0.076738	8.75	-7.42	-67.83	0.4312	-0.0408	-0.1862	
-0.970876	0.076128	-0.065392	10.5	-10.99	-69.51	0.4255	-0.0334	-0.1939	
-1.004304	0.013542	-0.058072	9.59	-6.86	-70.56	0.4198	-0.0197	-0.1919	
-1.030168	-0.0305	-0.04087	11.9	-6.79	-67.97	0.4255	-0.0334	-0.1939	
-1.05042	-0.030622	-0.067832	22.82	-10.85	-63.91	0.438	-0.002	-0.1979	
-1.02846	-0.03355	-0.070028	29.19	-10.22	-63.35	0.4406	0.0059	-0.1833	
-1.040416	-0.024278	-0.069662	24.57	-8.47	-63.28	0.4294	0.013	-0.199	
-1.043588	-0.019398	-0.054534	24.64	-10.99	-60.97	0.4336	0.0163	-0.1893	
-1.00589	-0.041358	-0.078202	20.86	-18.48	-59.85	0.4391	0.0254	-0.1859	
-1.018456	-0.055144	-0.016836	15.05	-15.47	-58.45	0.4194	0.0315	-0.1904	
-1.017114	-0.072468	-0.031598	19.18	-15.96	-54.04	0.432	0.0346	-0.1823	
-1.009184	-0.16409	-0.055632	19.88	-15.19	-50.82	0.4362	0.0417	-0.1982	
-1.004182	-0.170556	-0.02074	16.59	-14.98	-48.72	0.4333	0.0539	-0.1914	
-0.9943	-0.169092	-0.020984	21.49	-17.99	-47.67	0.4362	0.0492	-0.1964	
-0.993568	-0.154452	0.00976	8.19	-14.49	-46.41	0.432	0.0609	-0.2136	
-1.002718	-0.202764	-0.015006	12.74	-12.25	-44.17	0.4333	0.0671	-0.2054	
-1.02297	-0.206058	0	6.93	-10.57	-41.58	0.4275	0.0765	-0.1939	
-0.995032	-0.230458	-0.006466	6.44	-14.91	-40.11	0.4319	0.0773	-0.2179	
-0.980026	-0.274744	0.037942	4.34	-12.74	-41.16	0.4204	0.09	-0.1998	
-0.977342	-0.263154	0.023302	4.2	-11.76	-39.55	0.433	0.1018	-0.2044	
-0.986248	-0.255834	-0.034404	3.57	-11.27	-36.82	0.4245	0.1125	-0.2024	
-0.966362	-0.309026	0.035014	-0.84	-9.45	-35.84	0.4246	0.1079	-0.2057	
-0.965752	-0.316468	0.058926	0.14	-9.66	-35.42	0.4188	0.1157	-0.1974	
-0.957944	-0.35319	0.050264	2.17	-10.78	-32.9	0.4189	0.1108	-0.2104	
-0.971364	-0.374418	0.043554	3.15	-10.5	-30.73	0.4231	0.1185	-0.2038	
-0.96807	-0.379176	0.040748	4.48	-10.22	-29.4	0.4146	0.1261	-0.2019	
-0.942084	-0.36112	0.034282	3.57	-13.16	-25.34	0.4104	0.1303	-0.2146	
-0.935252	-0.345748	0.045994	1.12	-10.15	-23.94	0.4174	0.123	-0.2052	
-0.93635	-0.355386	0.075274	-1.68	-10.22	-26.18	0.4145	0.1383	-0.1983	
-0.938058	-0.367952	0.08174	-2.24	-10.85	-25.27	0.399	0.1427	-0.2061	
-0.938058	-0.388448	0.064294	-2.1	-11.83	-23.1	0.4018	0.1428	-0.2045	
-0.942938	-0.40016	0.061854	-3.22	-11.55	-20.09	0.399	0.1547	-0.2106	
-0.939034	-0.425658	0.083814	-2.66	-9.87	-17.64	0.4019	0.1467	-0.2252	
-0.9333	-0.420534	0.091378	-2.1	-9.24	-16.03	0.4032	0.156	-0.2138	
-0.934276	-0.392108	0.091256	-0.14	-8.47	-13.51	0.3949	0.1453	-0.2236	
-0.924882	-0.416752	0.081862	0.42	-7.42	-8.89	0.4003	0.1563	-0.2057	
-0.913902	-0.433832	0.091012	-0.84	-6.58	-6.44	0.3976	0.1545	-0.217	
-0.904874	-0.453108	0.100528	-1.33	-6.58	-4.48	0.4004	0.1603	-0.2232	
-0.902312	-0.43981	0.108092	-0.63	-5.46	-3.36	0.392	0.162	-0.2199	
-0.9028	-0.446642	0.109922	-0.35	-3.64	-1.82	0.3975	0.1635	-0.2183	
-0.904752	-0.457378	0.118462	0.28	-2.8	0.14	0.3975	0.1664	-0.2214	
-0.911828	-0.465186	0.12444	2.38	-2.73	2.87	0.3836	0.1574	-0.2232	
-0.898652	-0.442616	0.11346	3.43	-1.96	5.32	0.3892	0.1575	-0.2184	
-0.890844	-0.43676	0.115412	2.73	-0.21	5.88	0.3906	0.1528	-0.225	
-0.893772	-0.425048	0.12322	2.17	0.14	5.81	0.3948	0.159	-0.22	
-0.903776	-0.421876	0.124074	1.96	1.47	6.51	0.4032	0.1576	-0.2121	
-0.91378	-0.427	0.12383	2.03	1.96	7.77	0.4018	0.1589	-0.2201	
-0.91317	-0.426024	0.112118	2.17	2.38	9.45	0.4005	0.1438	-0.2205	
-0.920124	-0.423828	0.113094	2.1	3.71	10.36	0.3921	0.1528	-0.2266	
-0.92232	-0.405284	0.104432	2.38	4.34	11.76	0.3934	0.1559	-0.2201	
-0.927688	-0.403942	0.10126	1.89	5.04	13.44	0.3935	0.147	-0.2172	
-0.929396	-0.38857	0.095892	1.47	3.29	15.61	0.3963	0.1469	-0.2188	
-0.960506	-0.375882	0.102114	1.68	5.88	17.22	0.4005	0.1482	-0.2252	
-0.96319	-0.381006	0.09857599	1.68	4.76	20.02	0.4005	0.1441	-0.2109	
-0.928908	-0.354532	0.073078	0.56	4.55	22.54	0.3977	0.138	-0.2126	
-0.932446	-0.343308	0.07869	0.42	7.28	23.87	0.4033	0.141	-0.2126	
-0.925736	-0.331352	0.062708	-0.35	8.4	25.27	0.4062	0.1318	-0.2161	
-0.96075	-0.33062	0.058072	-1.26	11.55	25.97	0.4061	0.1352	-0.2048	
-0.985028	-0.355386	0.071614	-1.4	13.37	28.14	0.4061	0.135	-0.2112	
-0.963434	-0.35197	0.077348	-1.4	12.39	31.15	0.4188	0.1335	-0.2081	
-0.943792	-0.277672	0.05063	-4.13	8.75	31.78	0.4091	0.1169	-0.2118	
-0.933056	-0.28914	0.01159	-12.25	8.12	30.8	0.4217	0.1211	-0.2181	
-0.97783	-0.294386	0.03477	-10.5	17.22	28.98	0.4245	0.1111	-0.1992	
-0.988444	-0.306586	0.045506	-9.66	14.84	30.24	0.4358	0.1092	-0.2074	
-0.959408	-0.29097	0.049166	-7.7	14.49	31.85	0.4203	0.1006	-0.1963	
-0.955992	-0.264252	0.011834	-6.16	13.09	33.18	0.4245	0.1007	-0.1915	
-0.956236	-0.264374	-0.003416	-7.77	19.32	29.96	0.419	0.0944	-0.2045	
-1.011624	-0.257786	0.00732	-7.84	19.95	29.26	0.4316	0.09	-0.1967	
-1.011624	-0.220332	-0.001952	-6.23	16.66	29.61	0.4358	0.0901	-0.1903	
-0.998814	-0.183976	-0.005612	-6.02	16.59	29.4	0.4359	0.0827	-0.1873	
-0.978928	-0.147742	-0.014762	-7.07	15.89	28.98	0.4373	0.0856	-0.1905	
-0.97966	-0.172996	-0.000122	-7	20.93	25.55	0.4345	0.0854	-0.1985	
-1.009062	-0.143106	-0.000732	-10.5	20.16	24.85	0.433	0.0814	-0.181	
-0.983442	-0.109068	-0.00488	-11.48	16.52	24.36	0.4345	0.081	-0.1922	
-1.023336	-0.103212	-0.012078	-15.19	14.84	23.8	0.4347	0.0613	-0.196	
-1.01016	-0.131516	-0.005734	-14.28	16.87	24.01	0.4331	0.0783	-0.1843	
-1.02724	-0.133102	-0.003294	-14.21	16.17	23.59	0.4387	0.0709	-0.1765	
-1.022482	-0.118096	-0.048068	-13.16	11.83	21.14	0.4445	0.0584	-0.1913	
-1.01809	-0.11529	-0.093208	-7.77	5.39	22.05	0.443	0.0633	-0.1784	
-1.035048	-0.101626	-0.116632	-1.82	6.37	19.04	0.4444	0.066	-0.1895	
-1.047004	-0.058316	-0.112484	-7.35	8.82	13.37	0.4416	0.0615	-0.1864	
-1.029924	-0.02806	-0.122	-12.74	5.88	9.87	0.4389	0.0526	-0.1851	
-1.00467	-0.033428	-0.13542	-14.77	11.41	6.02	0.4415	0.0663	-0.1767	
-1.030412	0.012444	-0.14457	-21.63	12.81	2.94	0.4486	0.0648	-0.1768	
-1.01809	0.006588	-0.122488	-18.06	17.08	-2.1	0.4374	0.0528	-0.1754	
-1.009428	0.038674	-0.122976	-35.84	19.88	-5.32	0.4416	0.0588	-0.1769	
-1.038952	0.011346	-0.128954	-43.33	21.56	-9.24	0.4529	0.0556	-0.1803	
-1.007476	-0.034526	-0.15555	-56	20.02	-10.36	0.44	0.0696	-0.1685	
-1.03029	-0.12017	-0.130418	-51.24	25.62	-14.98	0.4373	0.0637	-0.1655	
-1.02053	-0.191296	-0.20801	-65.66	5.81	-12.11	0.4401	0.0561	-0.1641	
-0.973926	-0.159332	-0.154574	-54.88	1.89	-14.49	0.4329	0.0805	-0.1586	
-0.991738	-0.10065	-0.142862	-65.59	1.33	-16.52	0.4328	0.0851	-0.1568	
-1.006866	-0.10248	-0.167994	-76.51	7.07	-23.03	0.437	0.0938	-0.1646	
-0.9882	-0.192394	-0.188368	-68.39	3.29	-26.25	0.4299	0.0973	-0.15	
-1.02602	-0.16897	-0.15677	-74.13	3.15	-25.9	0.4257	0.1001	-0.1595	
-1.025898	-0.206302	-0.155916	-69.86	-6.65	-27.86	0.4214	0.1078	-0.1545	
-1.028826	-0.202276	-0.167018	-72.38	-9.03	-28.77	0.4255	0.1273	-0.1587	
-1.029558	-0.182634	-0.167506	-73.43	-11.34	-25.41	0.4171	0.1272	-0.1618	
-1.010526	-0.143106	-0.165554	-72.45	-13.44	-23.94	0.4142	0.1395	-0.1567	
-1.012234	-0.232654	-0.1586	-70.14	-14.07	-21.21	0.4043	0.1471	-0.158	
-0.984662	-0.23912	-0.149572	-69.16	-17.92	-20.3	0.4099	0.1602	-0.1704	
-0.977708	-0.236924	-0.129198	-65.8	-18.62	-17.15	0.3859	0.1743	-0.1602	
-0.991738	-0.21777	-0.12566	-60.34	-18.62	-15.26	0.3915	0.1756	-0.1634	
-0.982588	-0.230092	-0.11895	-55.23	-16.38	-14.14	0.3956	0.1922	-0.1646	
-0.96136	-0.216184	-0.11651	-48.58	-16.94	-14.07	0.3758	0.2133	-0.1702	
-0.984662	-0.243024	-0.104188	-41.09	-14.84	-14.77	0.3743	0.2166	-0.1589	
-0.988444	-0.204106	-0.117974	-41.93	-14.84	-13.3	0.3813	0.2254	-0.1651	
-1.005402	-0.223504	-0.117242	-42.07	-14.98	-14.63	0.3713	0.2364	-0.1535	
-0.956114	-0.22936	-0.097722	-38.01	-14.28	-14.21	0.3614	0.2455	-0.1531	
-0.952332	-0.216916	-0.105286	-35	-12.88	-12.04	0.3614	0.2546	-0.1528	
-1.001376	-0.249734	-0.098698	-30.1	-10.71	-12.32	0.3571	0.2679	-0.162	
-0.970632	-0.215696	-0.098332	-27.02	-11.69	-10.85	0.3584	0.28	-0.1617	
-0.959286	-0.225822	-0.085644	-24.78	-10.29	-10.99	0.3528	0.2889	-0.1678	
-0.955748	-0.259494	-0.069784	-22.12	-9.24	-10.22	0.3542	0.2919	-0.1693	
-0.961848	-0.259616	-0.05002	-16.31	-10.36	-8.61	0.3512	0.3012	-0.1578	
-0.960384	-0.278892	-0.06344	-11.06	-8.19	-6.93	0.3358	0.2983	-0.161	
-1.678232	-0.066734	-0.036112	-11.55	-11.13	14.21	0.3442	0.3058	-0.1576	
-0.779824	0.105408	-0.07625	3.64	-15.05	-0.28	0.3259	0.3147	-0.1684	
-0.937936	-0.264862	-0.076616	-2.94	-7.21	-1.61	0.3174	0.3325	-0.1806	
-0.964898	-0.25864	-0.05734	4.2	-4.62	-0.42	0.3175	0.3251	-0.176	
-0.969656	-0.236924	-0.07686	7.49	-3.85	-0.07	0.3216	0.3296	-0.1759	
-0.98332	-0.27328	-0.06832	10.08	-3.71	0.42	0.3216	0.3327	-0.1742	
-0.98576	-0.265228	-0.055754	13.37	-3.29	1.47	0.3287	0.3281	-0.1744	
-0.959774	-0.223748	-0.07137	17.29	-2.73	4.69	0.3231	0.3295	-0.1792	
-0.95343	-0.228384	-0.094428	17.85	-0.84	7.91	0.3175	0.3397	-0.1948	
-0.97966	-0.25132	-0.094916	14.56	1.54	11.9	0.3231	0.3234	-0.1809	
-0.993568	-0.241682	-0.080764	16.52	3.5	14.28	0.3316	0.3157	-0.186	
-0.966972	-0.196786	-0.0793	20.09	3.22	14.07	0.3303	0.3053	-0.1815	
-0.948184	-0.212402	-0.045506	23.17	0.77	12.04	0.3302	0.3083	-0.1798	
-0.917806	-0.235704	-0.05734	23.38	3.85	13.93	0.3401	0.2992	-0.1802	
-0.926834	-0.276208	-0.037576	24.92	9.73	18.55	0.343	0.299	-0.185	
-0.972462	-0.24766	-0.076006	31.36	10.64	21.49	0.346	0.2794	-0.1872	
-1.00955	-0.219844	-0.075884	35.98	12.39	21.28	0.3474	0.2703	-0.1859	
-0.987712	-0.220332	-0.09211	36.05	12.67	23.52	0.3544	0.2674	-0.1812	
-0.974658	-0.243634	-0.072102	43.33	8.26	27.65	0.3589	0.246	-0.1899	
-1.011258	-0.21594	-0.085522	50.96	9.17	28.63	0.3603	0.2311	-0.1824	
-1.032486	-0.158478	-0.092232	50.82	7.98	28.28	0.3632	0.2237	-0.1794	
-1.00467	-0.110288	-0.09467199	51.03	4.9	29.4	0.3618	0.2191	-0.1811	
-1.013698	-0.117364	-0.097356	55.93	4.97	32.27	0.3747	0.1945	-0.1932	
-0.990518	-0.138592	-0.080642	56.56	6.23	33.11	0.3804	0.1823	-0.1984	
-1.003084	-0.158234	-0.100406	59.92	3.71	35	0.3903	0.1673	-0.1909	
-1.007476	-0.13725	-0.113704	65.38	8.26	36.33	0.3918	0.1538	-0.1913	
-1.041758	-0.160308	-0.087108	49.14	12.53	36.4	0.392	0.1356	-0.1919	
-0.97295	-0.068198	-0.024034	31.78	0.7	41.93	0.3948	0.1251	-0.1906	
-0.983442	-0.08235	-0.130906	47.74	-5.39	40.11	0.416	0.1043	-0.1753	
-1.034438	0.019642	-0.095892	49.28	-1.82	37.1	0.4204	0.0889	-0.1854	
-1.04371	0.003782	-0.101382	45.22	-4.48	33.53	0.4191	0.0768	-0.1874	
-1.048102	-0.024766	-0.10126	44.38	-10.78	29.82	0.4205	0.0708	-0.1844	
-1.024556	-0.055144	-0.102358	41.37	-14.98	29.26	0.4276	0.0632	-0.1847	
-0.998448	-0.003172	-0.098332	41.09	-4.27	28.91	0.4318	0.0542	-0.1834	
-1.017602	-0.016958	-0.087718	41.51	-13.51	28.14	0.4262	0.0543	-0.1785	
-1.068354	-0.0183	-0.083326	49.77	-8.47	32.9	0.4376	0.0299	-0.1857	
-1.052982	-0.038918	-0.06954	57.26	-7.98	46.83	0.4405	0.0342	-0.1936	
-0.994788	0.023424	-0.082106	63.63	-11.55	48.72	0.4265	0.0313	-0.1952	
-1.018456	0.079544	-0.128954	63.14	-12.53	39.48	0.4336	0.0163	-0.1893	
-1.02297	0.082716	-0.116266	57.82	-14.49	31.08	0.4393	0.0011	-0.1914	
-1.056886	0.068198	-0.064416	64.19	-13.86	32.62	0.4378	0.0087	-0.1896	
-1.0736	0.011102	-0.07137	79.17	-15.75	35.98	0.4436	-0.0064	-0.1917	
-1.075552	0.01769	-0.082228	95.34	-14	41.51	0.4437	-0.0246	-0.197	
-1.01443	0.039406	-0.10004	99.26	-20.44	45.5	0.4423	-0.0258	-0.1874	
-0.974414	0.088206	-0.153964	92.19	-13.86	38.92	0.4452	-0.0352	-0.1973	
-1.036146	0.069418	-0.088328	96.67	-3.29	35	0.4369	-0.0501	-0.1929	
-1.023824	0.115778	-0.070882	91.56	-15.12	31.43	0.4356	-0.0693	-0.1823	
-1.013942	0.182634	-0.140666	92.47	-4.06	27.37	0.4301	-0.0786	-0.1905	
-0.993934	0.403942	-0.143228	111.09	9.59	15.12	0.4343	-0.0858	-0.1796	
-1.004426	0.176778	-0.081496	91.84	5.53	17.85	0.4399	-0.0948	-0.1767	
-1.003206	0.139202	-0.083204	78.12	-12.25	28.14	0.4441	-0.1006	-0.1657	
-1.019066	0.185684	-0.124684	82.53	-7.49	24.36	0.4385	-0.1049	-0.1577	
-0.984906	0.213866	-0.057096	59.29	-10.22	22.89	0.4512	-0.1155	-0.1565	
-0.968802	0.214476	-0.107848	61.46	-11.13	23.17	0.4497	-0.1109	-0.1548	
-0.987224	0.206546	-0.090158	58.52	-14.21	23.73	0.4498	-0.1215	-0.1551	
-0.987468	-0.04392	-0.19215	67.55	-11.41	21.28	0.4554	-0.1199	-0.1519	
-1.05347	0.49715	0.047824	66.78	35.77	-14.56	0.4497	-0.1284	-0.1329	
-0.997106	0.183	-0.10736	49.98	-2.8	12.39	0.4624	-0.1374	-0.1284	
-0.974292	0.173606	-0.08845	61.25	-0.84	13.3	0.4679	-0.128	-0.1154	
-0.981734	0.20862	-0.10248	61.67	4.27	16.38	0.4609	-0.134	-0.1171	
-0.9943	0.21289	-0.101626	59.01	3.85	12.39	0.4566	-0.1352	-0.1075	
-0.998448	0.249978	-0.118584	55.09	2.38	11.62	0.4595	-0.1383	-0.1076	
-0.96197	0.248758	-0.13908	50.89	-1.47	12.18	0.4608	-0.1424	-0.0917	
-1.010648	0.266326	-0.12627	43.75	-1.19	10.85	0.4649	-0.1363	-0.0884	
-0.965752	0.227652	-0.131394	39.69	-0.49	9.17	0.4579	-0.1375	-0.0787	
-0.97844	0.238632	-0.132248	34.44	-2.24	8.75	0.4634	-0.1403	-0.0709	
-0.97905	0.257664	-0.117364	26.53	-2.1	8.4	0.4635	-0.1419	-0.0741	
-0.97844	0.244	-0.133956	26.6	-2.03	7.84	0.4564	-0.137	-0.0643	
-0.987712	0.23546	-0.131028	22.26	-0.77	6.93	0.4578	-0.1446	-0.0661	
-0.976	0.224724	-0.139202	21.63	0.07	6.79	0.4647	-0.1427	-0.0501	
-0.970266	0.2379	-0.12322	16.45	0.49	5.81	0.4635	-0.1462	-0.0646	
-0.967704	0.23607	-0.123586	15.54	0	5.74	0.4606	-0.146	-0.0614	
-0.965386	0.262666	-0.132736	12.04	-0.84	6.16	0.4592	-0.1443	-0.0533	
-0.958066	0.259982	-0.11773	7.42	0.7	5.81	0.4606	-0.1457	-0.0502	
-0.972096	0.238876	-0.123586	0.7	0.63	4.2	0.4591	-0.1383	-0.0532	
-0.971974	0.225456	-0.128466	-2.52	0.21	3.08	0.462	-0.1504	-0.0551	
-0.983686	0.235826	-0.130174	-3.36	0.63	1.82	0.4607	-0.1506	-0.0615	
-0.981978	0.25376	-0.135542	-5.18	0.56	1.05	0.4648	-0.1385	-0.0612	
-0.977586	0.275476	-0.125904	-8.75	1.4	-0.14	0.4536	-0.1443	-0.0565	
-0.977464	0.260592	-0.129564	-13.44	0.42	-0.21	0.4578	-0.1431	-0.0661	
-0.972828	0.23668	-0.137128	-16.03	0.49	-2.03	0.4605	-0.1353	-0.0547	
-0.96746	0.219112	-0.132126	-16.73	-0.07	-4.62	0.455	-0.1401	-0.066	
-0.965142	0.23546	-0.111752	-17.29	0.49	-5.39	0.4634	-0.134	-0.0627	
-0.977342	0.245342	-0.115168	-19.6	1.19	-4.97	0.469	-0.1373	-0.0708	
-0.970632	0.239242	-0.122244	-22.47	1.96	-5.04	0.4564	-0.1388	-0.074	
-0.967094	0.258762	-0.114924	-23.73	1.54	-6.65	0.4592	-0.1329	-0.077	
-0.969778	0.253882	-0.12749	-25.41	4.69	-10.85	0.4537	-0.136	-0.0803	
-0.971852	0.203496	-0.106994	-40.39	4.34	-12.25	0.4621	-0.1404	-0.0757	
-0.993324	0.238876	-0.133712	-31.64	0.77	-14.14	0.4676	-0.1241	-0.0848	
-0.95465	0.229482	-0.12078	-34.23	-0.49	-13.09	0.4523	-0.1331	-0.085	
-0.938912	0.254004	-0.101748	-40.74	-0.42	-15.89	0.4579	-0.1259	-0.0976	
-0.939522	0.267424	-0.137128	-40.18	-0.63	-20.93	0.4565	-0.1215	-0.1023	
-0.972218	0.25193	-0.095282	-50.47	-2.87	-22.26	0.4607	-0.1261	-0.1041	
-1.003694	0.222772	-0.113582	-54.95	-5.46	-22.4	0.4553	-0.1358	-0.1267	
-0.995642	0.213134	-0.103578	-61.11	-7.77	-23.87	0.4539	-0.1267	-0.1265	
-0.989298	0.212646	-0.092232	-59.22	-6.16	-24.22	0.4595	-0.1225	-0.136	
-0.988688	0.213012	-0.099064	-61.32	-2.1	-25.76	0.4454	-0.1134	-0.1372	
-0.985272	0.167384	-0.092598	-60.83	0.7	-21.35	0.4524	-0.1045	-0.1418	
-1.031876	0.11224	-0.075518	-57.54	0.21	-23.52	0.451	-0.1045	-0.1418	
-1.021384	0.089426	-0.062952	-55.65	6.23	-23.73	0.4384	-0.1062	-0.153	
-1.039196	0.124562	-0.06527	-56.98	6.23	-22.75	0.4525	-0.1004	-0.1561	
-1.000278	0.113094	-0.07564	-45.78	2.03	-22.82	0.4526	-0.09649999	-0.18	
-0.997472	0.106628	-0.082838	-51.17	0.49	-22.4	0.444	-0.08859999	-0.1685	
-1.01321	0.10431	-0.068198	-47.74	2.31	-23.1	0.4454	-0.084	-0.1636	
-0.999058	0.10797	-0.075396	-49.7	0.56	-20.51	0.4509	-0.0765	-0.165	
-1.00772	0.108092	-0.06649	-42.91	2.1	-23.87	0.4537	-0.0616	-0.171	
-1.01626	0.086742	-0.08113	-52.78	2.38	-23.94	0.4481	-0.0618	-0.1773	
-1.071404	0.111264	-0.066246	-56.35	4.27	-27.3	0.4355	-0.0661	-0.1742	
-0.976732	0.121024	-0.064782	-51.52	3.99	-25.41	0.4368	-0.0496	-0.1753	
-0.918782	0.13664	-0.139446	-61.04	10.08	-25.2	0.4521	-0.0436	-0.172	
-1.084336	0.078568	-0.057462	-40.67	32.13	-34.02	0.4549	-0.0332	-0.1797	
-1.036878	0.083082	-0.07137	-52.78	13.37	-29.26	0.4576	-0.0314	-0.1669	
-1.001254	0.061	-0.09747799	-60.83	4.2	-23.03	0.4408	-0.0255	-0.1746	
-1.0431	0.062586	-0.118462	-68.04	2.94	-24.22	0.4394	-0.021	-0.1793	
-0.983442	0.044652	-0.060634	-61.32	-10.78	-24.22	0.4547	-0.0047	-0.1821	
-1.050664	0.02684	-0.127856	-63.42	6.86	-35.07	0.4477	-0.0045	-0.1772	
-1.002962	0.040626	-0.116266	-48.09	13.93	-37.52	0.4461	0.0003	-0.1643	
-1.025898	0.02501	-0.132248	-54.46	16.52	-40.39	0.4448	0.0119	-0.1815	
-0.99857	-0.01586	-0.11346	-48.72	18.76	-39.9	0.4461	0.0196	-0.1765	
-1.01809	-0.026108	-0.12993	-51.24	19.18	-39.13	0.4433	0.0314	-0.1873	
-1.089582	-0.022326	-0.111142	-52.01	9.94	-42.63	0.4446	0.0272	-0.173	
-1.022238	-0.021594	-0.20313	-66.71	4.27	-38.5	0.4389	0.0378	-0.1743	
-0.991494	-0.062586	-0.213622	-59.22	7.14	-38.29	0.443	0.0529	-0.1723	
-1.028338	-0.094916	-0.185196	-55.16	6.51	-37.87	0.4386	0.0696	-0.1669	
-1.001376	-0.128344	-0.215818	-49.7	16.94	-31.15	0.4288	0.0697	-0.1669	
-1.013454	-0.08686399	-0.105286	-50.82	11.83	-30.87	0.4218	0.0728	-0.1683	
-0.996618	-0.137982	-0.108214	-57.82	-3.43	-32.9	0.4301	0.0935	-0.1774	
-0.987956	-0.163724	-0.174948	-65.24	-5.39	-30.8	0.4272	0.0939	-0.1645	
-1.011868	-0.141886	-0.174704	-72.59	-1.82	-26.95	0.416	0.09959999	-0.1787	
-1.003694	-0.138714	-0.154086	-71.12	-10.36	-33.11	0.4129	0.1229	-0.1571	
-0.993202	-0.15616	-0.126392	-70.07	-9.8	-32.34	0.4044	0.1334	-0.1616	
-1.013942	-0.203008	-0.188856	-77.14	-5.11	-24.15	0.4072	0.1481	-0.1724	
-1.001376	-0.165676	-0.130784	-64.82	-8.89	-31.01	0.41	0.1584	-0.1801	
-0.98637	-0.222284	-0.112118	-61.88	-9.31	-29.61	0.4042	0.1797	-0.1778	
-1.007598	-0.27938	-0.10309	-52.85	-7.14	-26.81	0.3927	0.1924	-0.1581	
-0.976976	-0.237412	-0.101748	-42.42	-10.78	-18.76	0.3941	0.2013	-0.1627	
-0.985882	-0.20862	-0.116632	-35.7	-8.26	-15.33	0.394	0.2118	-0.164	
-0.998814	-0.160674	-0.129076	-35.63	-6.3	-11.34	0.3898	0.2149	-0.1622	
-1.002352	-0.20435	-0.121634	-36.47	-5.67	-13.72	0.3952	0.2332	-0.1537	
-0.989298	-0.187026	-0.120536	-33.25	-6.16	-13.16	0.3868	0.2392	-0.1551	
-0.99613	-0.241682	-0.124318	-31.71	-5.74	-13.44	0.3937	0.2438	-0.1518	
-0.988932	-0.250222	-0.118218	-29.47	-7.07	-11.34	0.3966	0.2466	-0.1597	
-0.98881	-0.212768	-0.113582	-26.74	-5.95	-10.36	0.381	0.2517	-0.1435	
-0.987102	-0.21838	-0.103456	-24.5	-4.27	-8.54	0.3824	0.2619	-0.1544	
-0.973926	-0.217282	-0.08174	-25.06	-5.18	-7	0.3935	0.2665	-0.1479	
-0.966728	-0.24095	-0.07991	-20.72	-4.06	-7.21	0.3878	0.2846	-0.1505	
-0.96319	-0.260836	-0.076006	-16.52	-3.29	-6.23	0.3877	0.2848	-0.1409	
-0.978684	-0.27511	-0.07808	-9.17	-1.68	-5.25	0.3878	0.2788	-0.1427	
-0.973438	-0.255956	-0.09942999	-3.15	-0.56	-2.31	0.3834	0.2984	-0.1421	
-0.978806	-0.249978	-0.105896	1.54	1.33	0	0.3876	0.2929	-0.123	
-0.98454	-0.238632	-0.108946	5.95	2.8	1.82	0.3778	0.2852	-0.1296	
-0.990884	-0.208498	-0.125172	9.24	2.45	2.94	0.3961	0.2893	-0.1408	
-0.997472	-0.20984	-0.127002	10.99	3.15	3.08	0.3849	0.2851	-0.1313	
-0.992714	-0.216062	-0.117364	12.67	2.87	4.48	0.3849	0.285	-0.1345	
-0.993934	-0.204838	-0.110898	15.26	2.17	5.67	0.3836	0.2803	-0.1442	
-0.998326	-0.180438	-0.124562	17.36	1.82	7	0.3849	0.2851	-0.1329	
-1.002962	-0.199226	-0.12566	15.12	1.54	6.3	0.3863	0.2805	-0.1346	
-0.988932	-0.225578	-0.133102	17.78	1.61	8.05	0.3892	0.2802	-0.1443	
-0.987346	-0.249368	-0.120658	20.86	1.47	9.17	0.3835	0.2775	-0.1363	
-0.981856	-0.253638	-0.116632	25.06	1.12	12.32	0.3933	0.282	-0.1346	
-0.984662	-0.244976	-0.1281	30.45	2.45	15.54	0.3893	0.268	-0.151	
-0.971486	-0.222894	-0.115778	34.02	2.24	18.83	0.392	0.267	-0.1319	
-0.948916	-0.218136	-0.102114	35.35	2.52	21.21	0.3895	0.2542	-0.1595	
-0.9699	-0.222162	-0.09747799	39.69	3.29	21.63	0.3923	0.2468	-0.1533	
-0.960994	-0.22631	-0.097966	39.9	3.5	25.62	0.3923	0.2467	-0.1565	
-0.944646	-0.253882	-0.13054	40.32	3.64	33.04	0.3911	0.2286	-0.157	
-1.011502	-0.236802	-0.084424	47.95	3.43	41.23	0.3982	0.2148	-0.1623	
-0.990152	-0.199958	-0.083326	50.75	1.96	45.64	0.4056	0.1752	-0.1747	
-1.010892	-0.149572	-0.10553	53.13	0.56	46.41	0.4029	0.1588	-0.1704	
-1.044076	-0.088572	-0.127368	52.15	-0.98	46.97	0.4045	0.1406	-0.1742	
-1.035536	-0.061122	-0.131882	55.02	-11.48	45.22	0.4129	0.1302	-0.1665	
-1.000522	-0.072346	-0.123464	54.39	-13.3	42.56	0.4088	0.124	-0.1715	
-1.024678	-0.073444	-0.097112	49.77	-21.56	44.59	0.423	0.101	-0.1819	
-1.013332	-0.039772	-0.084302	47.46	-18.83	44.66	0.4302	0.0947	-0.1885	
-1.026508	-0.002074	-0.09162199	46.9	-16.1	42.91	0.4219	0.0751	-0.1923	
-1.018944	0.02867	-0.07442	43.33	-15.82	37.03	0.4289	0.0736	-0.1908	
-1.045662	0.085034	-0.12566	39.27	-5.39	31.43	0.4291	0.0555	-0.1913	
-1.025044	0.030622	-0.050874	41.23	-17.92	34.09	0.4348	0.0463	-0.1932	
-1.00955	0.040748	-0.082838	36.96	-17.22	33.81	0.4333	0.0467	-0.182	
-0.99247	0.092476	-0.07686	34.51	-11.76	35.35	0.4349	0.037	-0.2031	
-0.980514	0.011834	-0.049654	37.1	-10.5	44.66	0.4335	0.028	-0.2018	
-1.034316	0.046726	-0.001952	31.99	-18.34	40.39	0.4322	0.016	-0.2021	
-1.036878	0.010492	-0.066124	46.9	-18.41	37.94	0.4365	0.0069	-0.2008	
-1.032608	-0.005978	-0.0671	53.41	-15.61	35.77	0.4337	-0.0033	-0.1947	
-1.060058	-0.014762	-0.012444	58.59	-14.77	38.92	0.4367	-0.0128	-0.2094	
-1.00223	0.031964	0.001708	75.32	-9.66	40.25	0.4366	-0.0095	-0.1997	
-0.996008	0.05612	-0.056608	82.39	-10.64	32.62	0.4283	-0.0202	-0.2064	
-1.029558	0.030744	-0.070882	93.45	-6.51	27.72	0.4396	-0.0278	-0.2035	
-1.008208	0.062586	-0.045262	105.21	-1.12	24.29	0.4327	-0.0458	-0.2024	
-1.011624	0.138714	-0.041602	96.25	-7.63	24.71	0.4327	-0.0488	-0.2025	
-1.010648	0.234484	-0.09333	106.61	-4.55	19.18	0.4314	-0.0741	-0.1936	
-1.014064	0.171898	-0.128344	105.28	1.96	13.86	0.4273	-0.08329999	-0.2003	
-0.997594	0.177022	-0.106018	112.56	7.21	10.43	0.4315	-0.0875	-0.186	
-1.023824	0.168116	-0.104188	125.3	11.27	13.93	0.4301	-0.0933	-0.1781	
-1.015894	0.182878	-0.097722	110.25	13.51	17.22	0.4301	-0.09779999	-0.1783	
-0.990884	0.16592	-0.14823	115.29	14.28	10.78	0.4427	-0.1051	-0.1658	
-1.014796	0.150548	-0.124318	101.36	17.36	11.69	0.4512	-0.1139	-0.1549	
-0.978562	0.267668	-0.134078	77.63	13.09	20.02	0.4469	-0.1211	-0.1423	
-0.980392	0.172874	-0.144936	85.19	8.47	20.65	0.4525	-0.121	-0.1375	
-0.984418	0.149572	-0.103334	87.92	8.19	17.57	0.458	-0.122	-0.1199	
-0.966972	0.109922	-0.11346	90.58	5.74	18.2	0.4581	-0.1326	-0.1187	
-0.962336	0.201788	-0.134688	96.81	-7.21	12.74	0.4524	-0.141	-0.098	
-0.969778	0.223138	-0.280722	84.56	3.92	17.92	0.4593	-0.1319	-0.0946	
-1.008208	0.276696	-0.143594	69.51	15.75	14.49	0.4607	-0.1376	-0.08199999	
-0.947696	0.22387	-0.182268	64.05	7.07	14	0.4579	-0.1465	-0.079	
-0.974048	0.237168	-0.156404	53.9	6.44	8.68	0.4648	-0.1341	-0.0643	
-0.964044	0.20862	-0.142496	49.07	3.5	6.44	0.4648	-0.1446	-0.0614	
-0.986004	0.220698	-0.155794	46.83	0.77	6.3	0.4649	-0.1494	-0.0711	
-0.9943	0.25498	-0.200202	42.63	0.84	5.95	0.4718	-0.1471	-0.0439	
-0.980636	0.267668	-0.204106	31.92	4.2	3.36	0.4703	-0.147	-0.0391	
-0.964654	0.263276	-0.206912	21.7	2.8	1.96	0.4632	-0.1409	-0.0372	
-0.943426	0.20557	-0.188612	11.2	3.15	1.33	0.4674	-0.1379	-0.0372	
-0.942328	0.178852	-0.189222	8.54	4.76	-0.21	0.4744	-0.1436	-0.0246	
-0.965386	0.196054	-0.18666	7.7	5.6	-0.07	0.4759	-0.1409	-0.0341	
-0.980392	0.217038	-0.200568	7.84	4.41	1.47	0.4701	-0.1389	-0.0196	
-0.975268	0.197152	-0.204838	2.59	5.11	1.26	0.4731	-0.1453	-0.031	
-0.991738	0.137616	-0.204228	-2.24	4.76	-0.98	0.4647	-0.1483	-0.0343	
-0.98576	0.142984	-0.197396	-3.01	4.9	-2.31	0.4688	-0.1391	-0.026	
-0.982344	0.173972	-0.192516	-2.03	4.34	-2.31	0.4716	-0.139	-0.0228	
-0.999424	0.17934	-0.189222	-3.15	3.78	-1.96	0.4672	-0.1297	-0.0145	
-0.995642	0.151158	-0.19032	-5.74	2.94	-2.1	0.477	-0.1312	-0.0114	
-0.979782	0.155428	-0.196664	-6.16	2.17	-2.24	0.4771	-0.1344	-0.0179	
-0.96685	0.196298	-0.196786	-5.67	2.66	-2.38	0.4673	-0.1345	-0.0243	
-0.98454	0.218624	-0.204594	-6.02	2.45	-3.5	0.4772	-0.1347	-0.0275	
-0.984296	0.197152	-0.214354	-10.01	1.12	-4.27	0.4743	-0.1375	-0.0212	
-0.976122	0.193126	-0.218014	-14.42	0.21	-5.74	0.4631	-0.1372	-0.0147	
-0.958066	0.210206	-0.21594	-20.02	0.7	-6.16	0.4842	-0.1361	-0.0228	
-0.960506	0.200202	-0.211792	-32.13	2.73	-7	0.4702	-0.1319	-0.0386	
-0.961116	0.195688	-0.206546	-32.48	1.96	-7.21	0.48	-0.1244	-0.0353	
-0.961238	0.199104	-0.201422	-36.68	2.73	-10.78	0.4673	-0.1211	-0.0303	
-0.97173	0.196542	-0.211182	-32.83	-2.87	-11.48	0.4618	-0.1292	-0.0529	
-0.96807	0.183366	-0.185684	-40.67	-2.73	-12.53	0.4786	-0.1217	-0.0496	
-0.930006	0.170312	-0.198982	-48.58	-7.56	-12.53	0.4647	-0.1234	-0.0608	
-0.950014	0.191662	-0.215574	-60.48	-10.15	-16.31	0.4633	-0.1193	-0.075	
-1.002596	0.23729	-0.187148	-69.16	-9.87	-23.24	0.4662	-0.1256	-0.0849	
-1.037244	0.214842	-0.176168	-66.99	-17.92	-21.14	0.4592	-0.1212	-0.0911	
-0.98149	0.171288	-0.15555	-70.77	-20.16	-17.71	0.4677	-0.1201	-0.1023	
-1.010282	0.108336	-0.159698	-68.88	-18.34	-15.61	0.4481	-0.1187	-0.1102	
-0.971364	0.130784	-0.181048	-64.75	-10.5	-10.36	0.451	-0.1131	-0.1244	
-1.018456	0.135908	-0.1281	-58.59	-1.89	-17.15	0.4495	-0.107	-0.1242	
-1.003206	0.18178	-0.09467199	-70.63	-9.03	-25.55	0.4509	-0.1043	-0.1338	
-1.011258	0.143838	-0.113216	-66.85	-12.39	-22.68	0.4524	-0.1088	-0.1323	
-1.007476	0.090646	-0.138592	-67.41	-0.7	-25.69	0.4468	-0.1018	-0.1545	
-1.012112	0.05185	-0.120658	-59.71	0.14	-25.2	0.4495	-0.0896	-0.1477	
-1.005036	0.095038	-0.10431	-53.83	-5.04	-25.06	0.4328	-0.0958	-0.159	
-1.016748	0.104676	-0.14213	-51.87	-0.35	-25.62	0.4355	-0.0838	-0.1603	
-1.07177	0.104066	-0.09747799	-55.02	-3.5	-23.45	0.441	-0.0718	-0.16	
-0.978928	0.106506	-0.089182	-55.58	-3.92	-20.72	0.4479	-0.0536	-0.1547	
-0.923784	0.069418	-0.202276	-62.44	1.89	-20.65	0.441	-0.0615	-0.1693	
-1.012112	0.12322	-0.082228	-66.57	17.57	-36.61	0.4395	-0.0611	-0.1548	
-1.01931	0.103334	-0.10004	-68.81	16.8	-38.15	0.4437	-0.0388	-0.167	
-1.016748	0.12078	-0.096014	-74.9	8.26	-30.31	0.4466	-0.0466	-0.1737	
-1.067866	0.05063	-0.144204	-82.88	13.72	-32.76	0.4464	-0.0298	-0.1684	
-1.025044	0.039406	-0.151768	-82.32	5.11	-28	0.4506	-0.0209	-0.1697	
-0.99674	0.090158	-0.128588	-77.56	-7.84	-28.98	0.4406	-0.0131	-0.1646	
-1.030168	0.027694	-0.140666	-75.95	4.55	-34.37	0.4504	-0.0028	-0.1692	
-1.028216	-0.018788	-0.138836	-74.76	-5.88	-34.02	0.4463	-0.003	-0.1788	
-0.998082	-0.007686	-0.102236	-80.29	-3.5	-30.94	0.4406	0.0147	-0.1894	
-1.015406	-0.027694	-0.125782	-81.06	12.74	-43.96	0.4433	0.0164	-0.183	
-1.058106	-0.046848	-0.112728	-70.98	17.43	-44.94	0.4417	0.0348	-0.1728	
-1.004548	-0.08357	-0.153598	-59.08	13.79	-48.58	0.4402	0.0471	-0.166	
-1.030168	-0.088816	-0.134688	-63.07	18.62	-48.3	0.4332	0.0513	-0.1787	
-1.006378	-0.101504	-0.164944	-63	7.21	-27.23	0.4358	0.0681	-0.1686	
-1.030046	-0.085156	-0.16226	-90.23	12.95	-54.6	0.433	0.0772	-0.1667	
-1.145702	-0.109434	-0.192028	-79.31	5.6	-40.04	0.4272	0.0939	-0.1645	
-1.044442	-0.106262	-0.052582	-54.46	11.13	-41.86	0.4284	0.1181	-0.1606	
-0.993202	-0.108336	-0.191906	-73.57	4.48	-41.93	0.4144	0.1138	-0.1574	
-1.030046	-0.171166	-0.18666	-76.86	-11.97	-39.62	0.4044	0.1424	-0.1629	
-0.978318	-0.146766	-0.190442	-79.31	-22.26	-32.69	0.4029	0.1573	-0.1689	
-0.962946	-0.186172	-0.169946	-75.81	-12.74	-34.44	0.3958	0.1664	-0.1701	
-1.000644	-0.161284	-0.1525	-69.65	-16.45	-35.42	0.3969	0.1953	-0.1613	
-0.96868	-0.173606	-0.13786	-64.54	-16.03	-33.04	0.3898	0.2105	-0.1592	
-0.948062	-0.21716	-0.13481	-58.59	-15.82	-31.64	0.3897	0.2271	-0.1571	
-0.984174	-0.235948	-0.142496	-53.34	-15.96	-26.6	0.3966	0.2407	-0.1519	
-0.993934	-0.244	-0.134688	-47.11	-12.88	-25.69	0.3851	0.2667	-0.1446	
-0.94855	-0.209108	-0.113582	-42.42	-8.89	-26.88	0.3751	0.2864	-0.144	
-0.967094	-0.211182	-0.098942	-34.86	-7.07	-25.34	0.3708	0.2852	-0.1344	
-0.953796	-0.217526	-0.109922	-26.25	-2.66	-22.82	0.3651	0.3137	-0.1415	
-0.964532	-0.257908	-0.106506	-28.14	1.61	-30.1	0.3579	0.32	-0.1316	
-0.960384	-0.261934	-0.118706	-23.24	1.12	-27.3	0.3536	0.3365	-0.1359	
-0.9882	-0.283528	-0.07905599	-19.11	1.82	-20.79	0.3478	0.3522	-0.1162	
-0.987956	-0.266204	-0.087596	-13.79	2.66	-15.61	0.3449	0.3655	-0.127	
-0.976732	-0.257908	-0.089548	-10.85	3.5	-12.25	0.3407	0.364	-0.127	
-0.945622	-0.243634	-0.099796	-8.96	2.17	-8.96	0.3519	0.3657	-0.1174	
-0.97966	-0.26169	-0.084546	-5.18	1.19	-7.98	0.3406	0.3748	-0.1187	
-0.96746	-0.272548	-0.104554	0.42	1.75	-8.19	0.3406	0.3746	-0.1267	
-0.966118	-0.268278	-0.116266	2.66	0.91	-6.65	0.3434	0.3776	-0.1234	
-0.95892	-0.269132	-0.131882	4.69	0.42	-4.62	0.3349	0.3855	-0.1135	
-0.976488	-0.261324	-0.137006	6.65	1.75	-2.66	0.3476	0.3822	-0.1201	
-0.97112	-0.25376	-0.14152	7.77	3.22	-0.28	0.335	0.3763	-0.1186	
-0.966362	-0.257664	-0.150792	7.42	3.92	1.75	0.3447	0.3868	-0.1183	
-0.968314	-0.269498	-0.138104	6.23	4.62	3.01	0.3504	0.3746	-0.1219	
-0.970754	-0.263276	-0.141276	6.44	3.64	2.87	0.3406	0.3749	-0.1138	
-0.96746	-0.266204	-0.14579	9.87	3.99	2.52	0.3449	0.3716	-0.1252	
-0.96868	-0.265228	-0.152256	10.85	4.2	3.36	0.3462	0.3688	-0.1173	
-0.967948	-0.274256	-0.15128	11.34	2.52	7.07	0.3517	0.3736	-0.1044	
-0.92842	-0.355508	-0.135908	8.19	7.42	13.86	0.3477	0.3641	-0.1222	
-0.977342	-0.334158	-0.120658	10.92	3.01	18.34	0.3519	0.3612	-0.1175	
-0.960628	-0.276818	-0.120658	19.81	5.25	20.58	0.3603	0.3642	-0.1159	
-0.930616	-0.245586	-0.145912	26.32	1.26	24.85	0.3591	0.3446	-0.1165	
-0.914756	-0.307562	-0.18117	26.39	6.65	28	0.3733	0.3201	-0.1237	
-0.89304	-0.33367	-0.101992	23.8	7.49	37.31	0.3862	0.2985	-0.1373	
-0.920246	-0.257176	-0.095282	37.38	4.48	39.69	0.3792	0.2868	-0.1264	
-0.98759	-0.176778	-0.10553	53.76	10.64	42.7	0.3949	0.2577	-0.1386	
-1.049932	-0.17873	-0.165066	53.9	7.77	37.03	0.3895	0.238	-0.1455	
-1.05469	-0.146156	-0.18971	55.72	3.99	33.81	0.3996	0.209	-0.1561	
-1.024678	-0.220942	-0.181048	60.41	-1.89	40.81	0.408	0.2032	-0.1435	
-0.937082	-0.192272	-0.080154	48.58	-8.82	45.29	0.3998	0.1863	-0.1584	
-0.892918	-0.089182	-0.132614	40.32	-5.11	43.12	0.4099	0.1633	-0.1687	
-1.093852	-0.084302	-0.148108	53.48	-6.44	42.98	0.4184	0.1454	-0.1597	
-1.087142	-0.044652	-0.13359	48.86	-15.75	46.2	0.4156	0.1365	-0.1552	
-1.00833	-0.096258	-0.150304	46.34	-12.32	47.32	0.4214	0.1211	-0.1653	
-0.997716	-0.127002	-0.12322	52.01	-16.59	50.75	0.4284	0.1152	-0.1591	
-0.971974	-0.070638	-0.10248	56.63	-16.24	53.34	0.4301	0.0892	-0.1727	
-1.064328	-0.055144	-0.07381	58.31	-22.89	55.16	0.4358	0.08	-0.1746	
-1.08031	-0.040504	-0.120658	60.69	-24.08	53.34	0.4332	0.0647	-0.1831	
-1.036512	-0.147498	-0.110288	66.15	-24.78	49.07	0.429	0.0541	-0.1865	
-0.948794	0.042822	-0.120658	67.48	-15.89	42.35	0.4347	0.045	-0.1853	
-1.020042	0.033184	-0.136884	75.04	-12.6	40.39	0.4236	0.0344	-0.1919	
-0.996984	0.071004	-0.166652	89.6	9.8	26.18	0.4335	0.0222	-0.1939	
-1.062132	0.121634	-0.039162	76.3	-1.33	34.72	0.4363	0.0106	-0.1783	
-1.033218	0.02135	-0.028182	80.92	-4.34	39.83	0.4337	-0.0018	-0.1915	
-1.034804	-0.014396	-0.13603	116.06	1.47	40.11	0.445	-0.0197	-0.1841	
-0.978928	0.04514	-0.108946	131.39	-3.92	35.7	0.4451	-0.0318	-0.1844	
-1.020042	0.053924	-0.090524	108.01	-2.87	37.87	0.4382	-0.0422	-0.1815	
-0.991006	0.188856	-0.174094	108.64	6.86	38.36	0.4395	-0.0465	-0.172	
-0.981246	0.196786	-0.160918	86.94	2.73	38.99	0.4453	-0.0632	-0.1758	
-1.059692	0.105652	-0.143716	72.03	6.16	36.26	0.4426	-0.0737	-0.1761	
-1.019676	0.049532	-0.14335	86.66	19.67	36.33	0.4509	-0.0735	-0.1649	
-0.998326	0.135542	-0.10004	72.1	22.96	34.93	0.4453	-0.0865	-0.1476	
-0.984296	0.107726	-0.16348	106.05	20.79	28.21	0.4467	-0.0894	-0.1413	
-1.008086	0.167506	-0.191174	104.3	20.37	29.4	0.4551	-0.0969	-0.1368	
-1.053226	0.130052	-0.169702	112.98	20.93	34.09	0.4565	-0.1042	-0.1306	
-0.95465	0.158966	-0.218624	113.19	15.96	37.17	0.4523	-0.1244	-0.0991	
-0.987224	0.19947	-0.22387	103.74	9.45	32.9	0.4566	-0.1277	-0.1073	
-0.973804	0.23119	-0.25132	98.77	2.38	32.13	0.4635	-0.1346	-0.0835	
-0.940498	0.247782	-0.280478	94.08	2.8	26.95	0.4662	-0.1344	-0.0739	
-0.931104	0.28121	-0.260592	87.15	8.82	21.14	0.4634	-0.1342	-0.0691	
-0.972828	0.272914	-0.205692	82.39	-0.35	20.02	0.4634	-0.1414	-0.0565	
-0.91988	0.292434	-0.296338	74.62	-3.64	22.89	0.4703	-0.1455	-0.039	
-0.947086	0.32086	-0.253516	56.28	0.84	19.18	0.4705	-0.1565	-0.0538	
-0.945988	0.311954	-0.23363	38.99	2.52	17.71	0.4633	-0.1515	-0.0408	
-0.933544	0.272548	-0.24644	30.1	-1.47	15.05	0.4648	-0.1618	-0.0315	
-0.95892	0.276452	-0.261568	26.67	-2.31	10.99	0.466	-0.1525	-0.0216	
-0.93208	0.274622	-0.233142	14.07	-2.03	8.4	0.4703	-0.1616	-0.0235	
-0.951478	0.275354	-0.23485	6.58	-2.24	6.3	0.473	-0.1392	-0.0293	
-0.954162	0.258762	-0.241316	1.19	-1.26	5.88	0.4732	-0.1676	-0.0221	
-0.972828	0.224114	-0.228262	-6.02	-1.05	3.85	0.4661	-0.1588	-0.0314	
-0.972828	0.213378	-0.232044	-8.82	-1.75	0.56	0.4576	-0.1539	-0.02	
-0.953064	0.20313	-0.223626	-11.83	-1.47	-0.91	0.459	-0.154	-0.0232	
-0.971974	0.210816	-0.207888	-13.09	-0.98	-1.68	0.4675	-0.154	-0.0216	
-0.969534	0.21777	-0.210084	-12.25	-1.33	-1.82	0.4633	-0.1543	-0.0312	
-0.977708	0.219234	-0.204838	-12.88	-1.68	-1.82	0.4704	-0.1604	-0.0347	
-0.98515	0.202154	-0.202032	-14.91	-2.8	-1.89	0.4661	-0.1526	-0.0248	
-0.978806	0.213744	-0.198006	-14.56	-3.36	-2.03	0.4662	-0.1559	-0.0361	
-0.967338	0.22082	-0.20191	-15.4	-4.13	-1.82	0.4732	-0.156	-0.0362	
-0.95892	0.23546	-0.203374	-15.4	-3.99	-1.68	0.4662	-0.1561	-0.0409	
-0.94855	0.246562	-0.196786	-18.97	-3.71	-1.89	0.4662	-0.1545	-0.0393	
-0.958554	0.260226	-0.205082	-17.43	-1.4	-3.71	0.462	-0.1605	-0.0378	
-0.953064	0.235094	-0.207278	-18.69	-1.05	-5.32	0.4661	-0.144	-0.0422	
-0.962824	0.225944	-0.188734	-22.4	-1.19	-6.65	0.4662	-0.1489	-0.0535	
-0.93818	0.23607	-0.23485	-27.79	-7.56	-6.72	0.4606	-0.1516	-0.0439	
-0.9394	0.309148	-0.21777	-31.85	-6.58	-14.21	0.4606	-0.1519	-0.0568	
-0.938668	0.30988	-0.189344	-40.18	-7.84	-18.62	0.4648	-0.1401	-0.0645	
-0.949404	0.271938	-0.21106	-52.78	-11.9	-24.01	0.4553	-0.1544	-0.09209999	
-1.000278	0.230214	-0.18239	-59.22	-13.79	-27.16	0.4522	-0.1446	-0.0677	
-0.996252	0.239242	-0.194468	-67.76	-18.9	-29.68	0.4481	-0.1376	-0.0867	
-0.958188	0.2257	-0.181902	-72.45	-20.65	-29.26	0.458	-0.1324	-0.1122	
-0.951844	0.215086	-0.254248	-70.35	-12.67	-23.66	0.4524	-0.1308	-0.1105	
-1.01992	0.170434	-0.11712	-59.36	-10.08	-37.31	0.4483	-0.127	-0.1376	
-0.984906	0.146522	-0.158844	-72.66	-16.94	-34.65	0.4483	-0.1179	-0.1358	
-1.003816	0.114192	-0.13603	-72.38	-10.85	-31.57	0.4384	-0.112	-0.1451	
-0.98454	0.083448	-0.087962	-75.6	5.11	-28.91	0.4511	-0.1093	-0.1515	
-1.023458	0.1525	-0.071492	-63.35	12.67	-27.16	0.4581	-0.1108	-0.15	
-0.992836	0.139568	-0.070272	-67.83	7.42	-23.94	0.4453	-0.0925	-0.1462	
-0.966728	0.119194	-0.135786	-69.3	12.11	-29.33	0.444	-0.08989999	-0.1605	
-1.04859	0.079544	-0.07259	-68.81	10.01	-29.4	0.434	-0.06879999	-0.163	
-1.057984	0.028792	-0.046604	-63.77	11.48	-31.57	0.4424	-0.0702	-0.1583	
-1.044564	0.057828	-0.08967	-65.45	-5.95	-23.1	0.4466	-0.0599	-0.1661	
-1.006012	0.053924	-0.12627	-55.02	-8.68	-23.31	0.4397	-0.0646	-0.1742	
-0.997838	0.073688	-0.07625	-51.66	-2.59	-28.49	0.441	-0.0524	-0.169	
-1.023702	0.070394	-0.081008	-43.19	4.97	-27.23	0.4395	-0.048	-0.1721	
-0.99735	0.050142	-0.063318	-35.98	2.03	-24.92	0.4424	-0.0527	-0.1786	
-0.995276	0.026596	-0.08601	-40.18	2.31	-20.79	0.4423	-0.0421	-0.1767	
-0.986736	-0.000122	-0.071004	-31.99	9.66	-20.93	0.4394	-0.0301	-0.1779	
-0.997594	-0.000976	-0.091744	-28.35	4.97	-16.31	0.445	-0.027	-0.1747	
-1.008086	0.026596	-0.116754	-24.5	5.25	-17.57	0.4436	-0.0299	-0.1699	
-1.022482	0.0061	-0.092842	-22.61	7.77	-19.11	0.4435	-0.0206	-0.1633	
-1.006622	0.009881999	-0.098698	-23.31	7.07	-19.46	0.442	-0.0116	-0.163	
-1.023824	-0.00549	-0.125904	-25.48	10.36	-21.14	0.4351	-0.0133	-0.1726	
-1.013332	0.002562	-0.113704	-25.34	5.25	-21	0.449	-0.0055	-0.158	
-1.003694	-0.03538	-0.100406	-16.8	4.34	-17.71	0.4421	-0.0044	-0.1772	
-1.017724	-0.036234	-0.095648	-16.66	1.12	-13.79	0.4405	0.0063	-0.1672	
-1.020774	-0.046482	-0.10065	-14.77	-2.94	-10.22	0.4475	0.0094	-0.164	
-1.016138	-0.04758	-0.109922	-11.41	-6.16	-9.17	0.4434	0.0119	-0.1831	
-1.019798	-0.050142	-0.124806	-10.22	-2.38	-9.17	0.4447	0.0164	-0.183	
-1.01748	-0.050874	-0.11468	-8.89	-1.33	-8.68	0.4447	0.012	-0.1783	
-1.016016	-0.063074	-0.122366	-5.67	-2.38	-8.26	0.4461	0.0135	-0.1783	
-1.006988	-0.067954	-0.122122	-2.66	-2.59	-7.63	0.4405	0.0152	-0.1734	
-1.013942	-0.063806	-0.12383	1.82	-1.26	-7.84	0.4364	0.006	-0.1784	
-1.01138	-0.056974	-0.126148	2.8	-1.47	-6.72	0.4405	0.0196	-0.1764	
-1.015284	-0.055754	-0.120048	6.79	0.7	-5.18	0.4419	0.015	-0.1782	
-1.013576	-0.059292	-0.108336	8.82	3.57	-3.22	0.4377	0.0136	-0.1766	
-1.009794	-0.055632	-0.0976	11.27	1.4	-0.56	0.4419	0.0138	-0.1702	
-1.014186	-0.048556	-0.098088	14	-0.98	1.33	0.4433	0.018	-0.1781	
-1.017846	-0.040016	-0.105042	15.61	-3.15	1.89	0.4307	0.0109	-0.1686	
-1.02541	-0.037332	-0.105774	16.24	-3.92	3.08	0.4392	0.012	-0.1815	
-1.02541	-0.0366	-0.104188	16.94	-3.08	4.9	0.4378	0.006	-0.1784	
-1.01931	-0.024888	-0.107848	16.17	-2.52	6.09	0.4336	0.0045	-0.1785	
-1.016504	-0.013908	-0.098698	16.31	-1.89	6.72	0.4364	0.006	-0.1784	
-1.009184	-0.010614	-0.098698	14.28	-0.77	6.72	0.4405	0.0136	-0.175	
-1.007232	-0.010614	-0.099918	13.79	-1.12	6.3	0.4462	0.0089	-0.18	
-1.014674	0.00061	-0.088572	15.54	-3.57	5.6	0.442	0.0105	-0.1783	
-1.006134	-0.00366	-0.112972	13.02	-3.36	6.23	0.442	-0.0042	-0.1692	
-1.01199	0.01342	-0.09467199	14.56	-0.49	5.46	0.4309	-0.006	-0.182	
-1.009428	0.012932	-0.111996	10.57	0.14	5.74	0.4378	0.0044	-0.1817	
-1.005768	0.015982	-0.105652	9.24	2.1	5.39	0.449	-0.0056	-0.1628	
-1.015406	0.014518	-0.104066	6.93	2.24	4.97	0.4392	-0.0058	-0.1724	
-1.016748	0.008417999	-0.10187	5.32	2.52	3.71	0.4392	0	-0.177	
-1.010526	-0.00305	-0.099308	4.48	2.38	3.92	0.4505	-0.0047	-0.1853	
-1.013088	-0.00244	-0.103456	4.48	1.26	4.9	0.4421	-0.0075	-0.1805	
-1.01992	0.004636	-0.103456	5.18	0.42	5.81	0.4336	-0.0088	-0.174	
-1.018334	0.00976	-0.102602	5.18	1.05	5.88	0.4422	-0.0166	-0.1824	
-1.014796	0.012566	-0.105042	5.18	0.07	6.79	0.4435	-0.0089	-0.1741	
-1.001498	0.029402	-0.103578	5.46	-6.23	5.53	0.4351	-0.0164	-0.1759	
-1.023824	0.007929999	-0.11224	0.63	-0.28	3.22	0.4464	-0.0137	-0.1823	
-1.01565	0.00061	-0.089792	0.42	-0.63	4.41	0.438	-0.0241	-0.1793	
-1.005524	-0.001586	-0.089548	0.77	-0.42	3.57	0.4407	-0.0134	-0.1758	
-1.00162	-0.00122	-0.091134	2.73	-1.47	4.9	0.442	-0.0131	-0.1646	
-1.007598	0.008296	-0.10065	4.34	-2.1	5.81	0.4336	-0.0146	-0.1646	
-1.010892	0.027084	-0.115046	3.15	-1.75	4.34	0.4392	-0.0072	-0.1708	
-1.01809	0.017812	-0.111264	2.52	-1.96	4.97	0.4422	-0.0195	-0.176	
-1.020774	0.011346	-0.101138	2.94	-0.63	5.11	0.4422	-0.0256	-0.1794	
-1.017846	0.01098	-0.106506	2.03	-0.35	4.13	0.4409	-0.0272	-0.1827	
-1.017724	0.007442	-0.10065	4.41	-1.89	6.23	0.4366	-0.024	-0.1761	
-1.028582	-0.009393999	-0.096746	5.04	-2.38	8.54	0.4394	-0.0227	-0.1841	
-1.023336	-0.00854	-0.110776	8.12	-3.92	9.87	0.4393	-0.0238	-0.1697	
-1.031266	-0.00488	-0.112728	11.69	-2.87	10.5	0.4281	-0.0208	-0.1744	
-1.01382	0.001342	-0.10492	14.21	-2.8	11.27	0.4395	-0.0374	-0.1717	
-1.003816	0.023424	-0.094184	17.36	-2.59	11.27	0.4379	-0.0295	-0.1603	
-0.981856	0.057462	-0.077714	17.92	-0.98	9.73	0.431	-0.033	-0.1764	
-1.022238	0.063684	-0.067832	13.44	7.77	7.56	0.441	-0.0393	-0.1862	
-0.986736	0.070882	-0.042456	14.7	2.94	7	0.4423	-0.0375	-0.1734	
-1.0126	0.094062	-0.06649	11.55	1.12	6.23	0.4451	-0.0391	-0.175	
-1.011014	0.109068	-0.085888	6.23	-3.85	6.3	0.4437	-0.0478	-0.1657	
-1.022238	0.116388	-0.083204	1.33	-2.52	5.11	0.4438	-0.0511	-0.1738	
-1.028948	0.122366	-0.08601	-3.5	0.21	3.64	0.4395	-0.0448	-0.1656	
-1.039196	0.108458	-0.10797	-7.77	-0.07	1.19	0.4465	-0.0435	-0.1704	
-0.981002	0.10248	-0.113826	-10.5	-8.33	0.56	0.4325	-0.0345	-0.178	
-1.000888	0.088084	-0.086376	-12.88	-4.34	-1.33	0.441	-0.0484	-0.1849	
-0.998326	0.065026	-0.09357399	-16.17	-4.69	-2.17	0.4381	-0.0392	-0.1814	
-0.997594	0.049288	-0.084424	-15.05	-2.17	-3.71	0.4396	-0.0468	-0.1848	
-1.003206	0.032696	-0.07015	-11.76	-2.59	-3.43	0.4424	-0.0423	-0.1847	
-1.004426	0.013664	-0.062464	-10.08	-2.31	-2.73	0.4395	-0.0333	-0.186	
-1.011502	0.009028	-0.058804	-6.16	-4.41	-1.54	0.441	-0.0423	-0.1847	
-1.036878	0.004026	-0.069906	-5.18	-4.06	-0.49	0.4395	-0.0406	-0.1766	
-1.028582	0.022204	-0.069296	-2.24	-6.86	0.28	0.4352	-0.0373	-0.1685	
-1.03151	0.027206	-0.057584	-0.49	-5.74	0.98	0.4424	-0.0422	-0.1815	
-1.021018	0.02074	-0.058438	-0.07	-8.68	2.24	0.431	-0.03	-0.1779	
-1.023214	0.01708	-0.059536	1.19	-9.52	2.94	0.434	-0.0393	-0.1878	
-1.011258	0.019398	-0.072712	4.27	-12.46	3.29	0.4396	-0.0424	-0.1895	
-1.007598	0.035502	-0.079422	7	-13.02	2.38	0.4299	-0.0427	-0.2007	
-1.013088	0.055144	-0.061732	8.68	-11.76	2.1	0.4397	-0.0397	-0.2006	
-1.016748	0.066612	-0.075274	8.05	-10.64	1.96	0.4353	-0.0333	-0.186	
-1.002596	0.094794	-0.068564	9.52	-6.86	-0.49	0.4397	-0.0515	-0.1898	
-1.0065	0.107726	-0.054168	6.58	-3.78	-1.05	0.4355	-0.0501	-0.1961	
-1.00101	0.11773	-0.050142	2.17	-5.88	-0.7	0.4382	-0.047	-0.1912	
-1.002108	0.133102	-0.042456	-0.07	-4.97	-1.82	0.4257	-0.0457	-0.2007	
-1.004304	0.129198	-0.033062	-3.85	-4.27	-2.8	0.4313	-0.0427	-0.2023	
-1.00528	0.115412	-0.032452	-6.51	-5.39	-3.78	0.4283	-0.0334	-0.194	
-0.995642	0.10675	-0.028304	-7.28	-4.27	-5.95	0.42	-0.0412	-0.2038	
-0.981856	0.11407	-0.025864	-10.57	-3.01	-10.08	0.4355	-0.0399	-0.207	
-1.002474	0.097356	-0.013298	-12.25	-1.96	-12.81	0.427	-0.0336	-0.1988	
-0.996252	0.05856	-0.003904	-13.3	0.14	-14.7	0.4297	-0.0261	-0.2002	
-1.002718	0.022814	-0.027206	-14.56	1.61	-15.05	0.4298	-0.0294	-0.2099	
-1.007598	-0.011102	-0.047214	-13.72	1.89	-13.3	0.4213	-0.0291	-0.2018	
-1.010648	-0.030012	-0.030744	-9.87	0.56	-9.31	0.4242	-0.0248	-0.2081	
-1.005646	-0.033916	-0.021472	-7.35	-1.96	-5.18	0.4241	-0.0159	-0.2142	
-1.000644	-0.038918	-0.029768	-4.9	-2.59	-1.26	0.4311	-0.0157	-0.2063	
-1.046516	-0.04697	-0.024766	-0.28	10.85	-1.61	0.4283	-0.0185	-0.1999	
-1.062254	-0.044896	-0.025864	3.64	2.87	1.12	0.4213	-0.0202	-0.2095	
-1.045174	-0.059414	-0.050264	4.34	-1.33	3.08	0.4284	-0.0323	-0.2084	
-1.060058	-0.056852	-0.030622	6.93	6.37	2.38	0.4227	-0.0201	-0.2047	
-1.00772	-0.020252	-0.013908	11.13	-12.95	5.81	0.4284	-0.0321	-0.1987	
-1.01443	-0.002074	-0.043676	11.55	-14.63	7.07	0.4298	-0.0248	-0.2097	
-1.015406	0.01769	-0.044896	10.64	-7.91	6.23	0.4369	-0.0326	-0.2148	
-1.010648	0.039284	-0.050996	9.66	-5.25	6.58	0.4228	-0.0338	-0.2084	
-0.982466	0.047336	-0.066124	9.38	-3.36	5.25	0.4241	-0.0231	-0.2016	
-1.00894	0.040382	-0.044408	10.36	1.12	3.5	0.4256	-0.0323	-0.2067	
-1.00528	0.045384	-0.04209	10.22	-3.64	2.45	0.4284	-0.0249	-0.2113	
-1.01748	0.05856	-0.048312	8.75	-7.7	3.22	0.4257	-0.0399	-0.2102	
-1.021994	0.057706	-0.05917	6.02	-0.91	3.22	0.4213	-0.0335	-0.1971	
-1.040538	0.074542	-0.01769	6.65	5.04	2.73	0.4186	-0.0383	-0.2085	
-1.033096	0.069296	-0.02989	1.96	-1.54	5.32	0.42	-0.0396	-0.2021	
-1.022116	0.066124	-0.03721	0.49	-2.17	5.95	0.4243	-0.0398	-0.2069	
-1.019676	0.059292	-0.041968	-1.19	-1.19	5.53	0.4227	-0.0305	-0.197	
-1.021262	0.059048	-0.034404	-1.68	1.05	4.34	0.4298	-0.041	-0.1958	
-1.007476	0.044164	-0.026474	-3.36	1.75	2.66	0.4313	-0.0385	-0.2134	
-0.997838	0.037698	-0.022936	-2.45	-5.25	3.64	0.4271	-0.0415	-0.2134	
-1.016016	0.026474	-0.05185	-1.61	-2.38	2.59	0.4214	-0.038	-0.1989	
-1.014064	0.035136	-0.027328	0.91	-1.82	2.24	0.4326	-0.0321	-0.1972	
-1.00955	0.03721	-0.032452	0.21	-4.48	3.22	0.427	-0.0338	-0.2084	
-1.016016	0.048312	-0.023912	1.89	-3.78	3.5	0.4299	-0.0474	-0.2072	