Sensor string: E
Serial number: 1970-01-0000
Firmware version: 2,015
Hardware version: 2,2
Calibration quality: 5
ax	ay	az	gx	gy	gz	mx	my	mz

-1.004426	0.135298	-0.033184	1.12	-0.35	0.14	0.4078	-0.0184	-0.2373	Reference
-1.00345	0.135786	-0.031964	1.4	-0.7	0.63	0.4049	-0.0138	-0.2418	
-1.005646	0.137982	-0.032086	2.17	-0.56	0.42	0.4062	-0.0092	-0.2326	
-1.004304	0.140788	-0.034526	0.56	-0.56	0	0.4019	-0.0137	-0.2326	
-1.00284	0.133834	-0.034892	-1.19	-0.63	0.28	0.4062	-0.0123	-0.2327	
-1.004792	0.13298	-0.032208	0.14	-0.77	0.21	0.3991	-0.0153	-0.2433	
-1.002108	0.13542	-0.03416	0.77	-0.56	0.21	0.4033	-0.0092	-0.2372	
-0.99674	0.141032	-0.039894	1.96	-0.63	-0.28	0.4033	-0.0077	-0.2402	
-1.006866	0.145668	-0.050752	1.4	-0.77	-0.35	0.4018	-0.0031	-0.2402	
-1.017358	0.14091	-0.055388	-1.4	-1.68	-0.14	0.4106	-0.0184	-0.2266	
-1.022604	0.139324	-0.053192	-0.49	-0.91	0.98	0.4077	-0.0123	-0.2342	
-1.032852	0.140056	-0.04636	-2.66	-3.08	1.26	0.4121	-0.0109	-0.2433	
-1.02846	0.138348	-0.039772	-1.96	-3.29	1.4	0.4135	-0.0154	-0.2342	
-1.018578	0.136518	-0.037576	-1.4	-5.18	0.98	0.4092	-0.0154	-0.2419	
-1.015528	0.142496	-0.045384	-0.63	-7.91	0.14	0.4164	-0.0154	-0.2343	
-1.052616	0.13298	-0.077836	-0.07	-8.19	-0.91	0.3989	0.003	-0.2401	
-1.016626	0.152988	-0.029036	1.47	-13.02	-0.77	0.4079	-0.0216	-0.2449	
-1.010404	0.135298	-0.035746	1.54	-13.58	-1.26	0.4063	-0.0123	-0.2388	
-1.03334	0.13786	-0.035258	0.49	-10.36	-0.35	0.4049	-0.0185	-0.248	
-1.033706	0.131638	-0.023058	3.01	-11.97	-0.98	0.4049	-0.0245	-0.2358	
-1.039806	0.130052	-0.013054	-0.7	-16.73	-1.47	0.3977	-0.0169	-0.2494	
-1.040904	0.145668	-0.030622	4.27	-17.43	-2.45	0.4019	-0.0108	-0.2448	
-1.042246	0.15494	-0.038064	-0.7	-17.92	-2.31	0.3961	-0.0062	-0.2509	
-1.04737	0.154696	-0.042334	-0.28	-20.65	-3.01	0.4035	-0.014	-0.2555	
-1.053714	0.132858	0.00183	-4.9	-18.69	-1.82	0.3931	0.0014	-0.2538	
-1.035292	0.14884	0.014884	0.91	-24.57	-3.92	0.3976	-0.0062	-0.2524	
-1.000888	0.151646	0.025498	-7.98	-41.09	-4.97	0.3976	-0.0093	-0.2555	
-1.035292	0.143716	-0.068808	-9.24	-36.68	-6.65	0.3847	-0.0123	-0.2722	
-1.051152	0.127978	-0.022082	-10.5	-24.01	-6.86	0.3817	-0.0032	-0.2752	
-1.027362	0.153476	0.033062	-0.77	-32.76	-6.3	0.3847	-0.0063	-0.2828	
-1.001498	0.113948	0.044896	-13.37	-44.1	-6.37	0.3861	-0.0002	-0.2828	
-1.054934	0.151524	0.051362	15.33	-52.64	-10.01	0.3805	-0.007999999	-0.3042	
-1.081042	0.112362	0.079178	5.74	-55.58	-7.84	0.3702	0.0028	-0.2979	
-1.018456	0.133956	0.082594	17.08	-59.08	-9.66	0.3601	0.0013	-0.3055	
-1.031144	0.123586	0.095038	2.94	-69.93	-7.56	0.3616	-0.0002	-0.3177	
-1.02663	0.137128	0.045018	-2.73	-66.92	-6.44	0.3531	-0.0079	-0.3269	
-1.031998	0.098698	0.045506	2.87	-57.68	-5.32	0.3515	0.0012	-0.3329	
-1.003938	0.100162	0.146888	23.52	-36.75	-7	0.3414	-0.0017	-0.3375	
-0.979782	0.109434	0.280234	15.12	-40.88	-8.54	0.3385	0.0044	-0.3374	
-0.96807	0.129686	0.312686	2.66	-68.6	-7.7	0.3313	-0.0001	-0.3435	
-0.998814	0.082716	0.183	-19.04	-80.64	-8.19	0.3255	0.0059	-0.3511	
-0.939156	0.102358	0.167506	9.03	-72.45	-9.52	0.3184	-0.0032	-0.3633	
-0.961238	0.07991	0.255956	5.95	-57.33	-7.7	0.3141	-0.0032	-0.3755	
-0.940742	0.065148	0.352702	3.5	-55.23	-6.51	0.3024	0.006	-0.3692	
-0.921222	0.042212	0.38125	5.67	-62.3	-8.19	0.2938	0.0045	-0.3784	
-0.899994	0.045384	0.391376	1.05	-72.87	-9.1	0.2852	0.0015	-0.386	
-0.869738	0.07259	0.371856	2.17	-77.49	-8.75	0.2664	-0.0013	-0.3996	
-0.851194	0.076372	0.377956	4.34	-66.78	-6.16	0.2592	-0.0013	-0.4087	
-0.83448	0.059902	0.468724	6.51	-57.19	-5.46	0.2491	0.0032	-0.4193	
-0.819718	0.056242	0.536922	2.45	-63.98	-4.13	0.2419	0.0003	-0.4117	
-0.813618	0.05856	0.505812	1.89	-76.02	-3.15	0.2404	0.0093	-0.4269	
-0.81984	0.051728	0.463234	-0.42	-73.64	-1.68	0.2115	0.0066	-0.4344	
-0.765062	0.059536	0.541802	6.09	-62.86	-3.01	0.2187	0.005	-0.4314	
-0.792512	0.064172	0.600972	0.14	-59.92	-1.12	0.2043	-0.0009	-0.4344	
-0.766892	0.081862	0.587186	3.29	-63.84	-1.05	0.2001	-0.0055	-0.4405	
-0.768478	0.062098	0.61122	0	-60.55	-1.12	0.1927	0.0112	-0.4525	
-0.742858	0.077348	0.631106	0.28	-62.44	-0.91	0.1769	0.0007	-0.4571	
-0.710284	0.057706	0.6283	0.07	-57.12	-1.12	0.1768	0.0083	-0.4601	
-0.709796	0.06039	0.665266	-4.34	-49.28	-0.35	0.1581	0.0023	-0.4662	
-0.695034	0.055022	0.673318	-3.08	-52.01	-0.98	0.1567	-0.0052	-0.4662	
-0.68808	0.04514	0.68686	-4.34	-50.05	-0.21	0.1523	0.0023	-0.4722	
-0.6649	0.052582	0.72346	0.21	-47.32	-1.75	0.142	0.0117	-0.4645	
-0.669048	0.058926	0.686738	-5.88	-49.84	0.21	0.1437	-0.0035	-0.4631	
-0.656238	0.052338	0.696864	-0.84	-40.32	-0.49	0.129	0.0118	-0.4705	
-0.62464	0.042212	0.7686	-3.92	-39.2	-0.35	0.1189	0.0119	-0.4796	
-0.703574	0.051362	0.742004	-3.57	-38.78	-0.14	0.1204	0.0058	-0.4766	
-0.636108	0.039528	0.785192	2.45	-38.22	-0.63	0.106	0.0089	-0.4826	
-0.573156	0.039528	0.78202	-1.12	-37.73	-0.7	0.0887	0.006	-0.4902	
-0.621712	0.047458	0.767258	-0.77	-33.18	-1.05	0.0856	0.0153	-0.484	
-0.607194	0.050508	0.803858	-0.28	-29.12	-1.33	0.0915	0.003	-0.4826	
-0.602924	0.050996	0.803736	-1.47	-27.58	-1.26	0.0814	0.0077	-0.4856	
-0.572912	0.04758	0.835822	2.24	-23.59	-1.47	0.0755	0.0123	-0.4855	
-0.591456	0.052094	0.836188	-0.14	-22.68	-2.1	0.0712	0.0124	-0.4855	
-0.559492	0.053558	0.824598	0.98	-18.13	-2.31	0.0728	0.0016	-0.4901	
-0.546438	0.056242	0.877912	1.54	-9.73	-3.08	0.064	0.0048	-0.484	
-0.535092	0.04575	0.859368	-1.96	-8.4	-2.8	0.0596	0.0125	-0.4854	
-0.521916	0.03965	0.8662	0.21	-0.28	-3.01	0.0552	0.0187	-0.4838	
-0.515938	0.042334	0.892674	1.89	5.25	-3.22	0.0698	0.0047	-0.4916	
-0.505568	0.038796	0.87474	0.77	10.22	-3.36	0.0582	0.0049	-0.487	
-0.502396	0.038308	0.879498	1.05	18.55	-2.73	0.0684	0.0002	-0.4871	
-0.499102	0.036112	0.87779	1.47	26.25	-2.66	0.0728	-0.0029	-0.4902	
-0.500688	0.037576	0.872056	0.21	34.58	-2.45	0.0785	0.0046	-0.4932	
-0.507886	0.025376	0.853146	1.12	47.25	-1.68	0.09429999	0.0183	-0.4825	
-0.540094	0.025986	0.836798	0.21	53.55	-1.05	0.0857	0.0092	-0.481	
-0.527162	0.022082	0.791658	-3.71	62.58	-1.4	0.1088	0.0089	-0.4796	
-0.554856	0.039894	0.782264	1.26	70.07	0.07	0.119	0.0088	-0.4796	
-0.571204	0.02867	0.764574	-0.98	77.84	-0.35	0.1204	0.0058	-0.4736	
-0.601094	0.046604	0.735294	-11.9	77.28	2.03	0.1436	0.0071	-0.4676	
-0.626592	0.028792	0.667584	-2.45	85.47	0	0.1507	0.0132	-0.4615	
-0.658312	0.04087	0.647332	-10.29	94.36	1.05	0.168	0.016	-0.46	
-0.696864	0.035746	0.624396	-6.16	101.57	0.21	0.1767	0.019	-0.4524	
-0.743834	0.032086	0.605974	-9.38	102.13	0.63	0.1955	0.0113	-0.4434	
-0.696742	0.020496	0.539972	2.38	97.23	2.24	0.2158	0.0126	-0.4374	
-0.782264	0.055022	0.516792	-13.23	100.24	3.64	0.2214	0.0203	-0.4282	
-0.775066	0.040626	0.469456	-9.31	99.89	4.62	0.233	0.0201	-0.4267	
-0.812032	0.052948	0.407724	-19.67	100.24	7.21	0.2517	0.0276	-0.4161	
-0.819596	0.025498	0.357948	-9.1	108.5	7.7	0.2575	0.0231	-0.4009	
-0.844484	0.033794	0.357338	-5.18	113.05	8.19	0.2704	0.0261	-0.3903	
-0.86071	0.0366	0.356362	-3.92	106.68	9.17	0.2849	0.026	-0.3842	
-0.912194	0.044652	0.295484	-11.13	95.69	9.45	0.2979	0.0213	-0.3767	
-0.926468	0.06649	0.208254	10.85	103.46	6.86	0.3225	0.0182	-0.354	
-0.963556	0.07137	0.22509	-6.16	100.31	12.46	0.3354	0.0257	-0.3433	
-0.987712	0.071492	0.184342	-27.44	96.74	18.13	0.3471	0.0119	-0.3343	
-0.98698	0.081252	0.118096	-21.49	104.3	18.97	0.3527	0.0242	-0.3205	
-0.961726	0.078934	0.047824	-10.92	112.07	23.31	0.3657	0.0165	-0.3085	
-0.964532	0.0854	0.025254	11.2	111.02	17.22	0.3772	0.018	-0.2932	
-0.956602	0.117242	0.05856	20.65	100.03	13.93	0.3873	0.012	-0.2705	
-0.975268	0.117852	0.02074	-1.33	78.47	10.99	0.3845	0.006	-0.2659	
-0.948916	0.14518	-0.03233	-2.94	69.23	9.38	0.399	-0.0002	-0.2584	
-0.990762	0.125294	-0.102968	-9.94	74.55	14.77	0.4046	0.012	-0.2462	
-1.072258	0.124318	-0.15128	9.03	80.64	17.92	0.4105	-0.0031	-0.2311	
-1.07543	0.122122	-0.167994	17.29	73.29	14.35	0.4119	0.0014	-0.2295	
-1.133136	0.12932	-0.207888	24.99	66.36	14.28	0.4133	-0.0061	-0.2174	
-1.12362	0.11224	-0.2562	16.17	65.8	13.16	0.425	-0.0153	-0.2023	
-1.046028	0.130296	-0.308294	19.95	77.28	11.34	0.4206	-0.0197	-0.1947	
-1.038464	0.122	-0.318786	16.66	80.57	8.47	0.4277	-0.009	-0.1824	
-1.045418	0.133224	-0.319274	13.58	65.8	7	0.435	-0.0243	-0.1704	
-1.035658	0.127124	-0.29585	9.1	49.7	6.3	0.4364	-0.0152	-0.1749	
-1.009062	0.138958	-0.300486	16.03	40.18	6.23	0.4435	-0.0135	-0.1505	
-0.992348	0.128832	-0.290116	15.33	32.2	7.42	0.4348	-0.0179	-0.1459	
-1.002718	0.127734	-0.280356	13.44	38.64	8.33	0.4478	-0.0149	-0.1322	
-0.973316	0.12566	-0.323422	19.18	42.63	9.38	0.4363	-0.0194	-0.1353	
-0.97112	0.144936	-0.385764	15.4	37.59	7.21	0.4421	-0.024	-0.1246	
-0.971486	0.148474	-0.414678	12.25	35.28	6.51	0.4478	-0.0224	-0.117	
-0.983808	0.169336	-0.42883	15.05	33.6	5.53	0.445	-0.0345	-0.1065	
-0.989908	0.17934	-0.421632	8.75	30.94	6.93	0.4523	-0.0377	-0.1096	
-0.98637	0.149572	-0.412482	3.5	28.77	7.35	0.4493	-0.033	-0.1034	
-0.984906	0.152134	-0.405772	13.72	30.52	6.23	0.4536	-0.0315	-0.0988	
-1.003938	0.178974	-0.401624	15.68	26.04	4.2	0.4478	-0.0269	-0.1033	
-0.95892	0.16592	-0.403698	6.23	18.06	4.13	0.4449	-0.0344	-0.0942	
-0.949648	0.17568	-0.416142	10.43	9.87	5.18	0.4566	-0.0407	-0.0944	
-0.941352	0.163358	-0.399184	-1.47	7.7	4.27	0.4492	-0.0359	-0.0851	
-0.96258	0.15006	-0.37332	-5.32	4.48	5.11	0.4521	-0.0314	-0.0851	
-0.977708	0.153476	-0.37332	-3.43	-1.61	4.27	0.4522	-0.039	-0.0806	
-0.964044	0.157502	-0.379054	-2.38	-5.67	2.8	0.4551	-0.0451	-0.0807	
-0.968192	0.161528	-0.385398	-3.29	-7.84	1.05	0.4537	-0.0451	-0.0791	
-0.992226	0.170312	-0.390034	-3.15	-7	0.35	0.458	-0.0437	-0.0898	
-0.994056	0.172752	-0.384422	-2.66	-9.8	0.91	0.4522	-0.0375	-0.0897	
-0.97173	0.169824	-0.38308	-3.85	-16.24	0.56	0.448	-0.0513	-0.099	
-0.960506	0.173362	-0.382836	-4.2	-20.51	0.14	0.4536	-0.0376	-0.0928	
-0.96136	0.172508	-0.390888	-4.83	-21.84	-0.28	0.448	-0.0437	-0.0989	
-0.969656	0.177022	-0.388936	-5.39	-22.33	-1.33	0.4423	-0.0483	-0.1111	
-0.974048	0.180316	-0.37576	-6.93	-25.83	-2.17	0.4408	-0.0437	-0.1141	
-0.966728	0.183244	-0.34709	-7.84	-30.94	-2.87	0.4523	-0.0423	-0.1127	
-0.972218	0.176656	-0.338184	-12.95	-34.16	-3.29	0.4508	-0.0347	-0.1172	
-0.984784	0.171776	-0.322446	-15.05	-34.86	-3.29	0.4523	-0.0303	-0.1324	
-0.988688	0.167384	-0.303536	-14.98	-33.81	-3.57	0.4422	-0.0363	-0.1324	
-0.995276	0.168116	-0.30012	-13.09	-36.82	-3.99	0.4407	-0.0286	-0.1354	
-1.003328	0.171532	-0.298534	-12.67	-43.33	-5.39	0.448	-0.0303	-0.14	
-1.006378	0.181414	-0.284748	-12.6	-49.07	-7.28	0.435	-0.0302	-0.1506	
-1.009306	0.1769	-0.263276	-14.28	-51.31	-8.4	0.4365	-0.0288	-0.1567	
-1.006378	0.171288	-0.24888	-15.12	-55.86	-8.61	0.4438	-0.032	-0.1644	
-1.020286	0.163602	-0.226188	-12.67	-57.54	-8.61	0.4322	-0.0243	-0.1765	
-1.048224	0.147254	-0.214232	-14.14	-59.22	-8.54	0.4249	-0.0242	-0.1795	
-1.023214	0.146522	-0.222162	-1.26	-58.8	-8.75	0.4235	-0.0167	-0.1977	
-1.02846	0.145668	-0.183488	-9.1	-63.56	-9.94	0.4294	-0.026	-0.1978	
-1.024678	0.1525	-0.151768	-3.92	-68.25	-11.41	0.4207	-0.0198	-0.2069	
-1.023092	0.1525	-0.133834	-5.39	-66.57	-10.71	0.4177	-0.0077	-0.2235	
-1.02053	0.133712	-0.128344	-5.18	-62.72	-9.31	0.4063	-0.0199	-0.2312	
-1.035902	0.114436	-0.112728	-3.5	-56.7	-7.91	0.4019	-0.0077	-0.2463	
-1.029192	0.111386	-0.073078	-3.57	-61.53	-7.49	0.4062	-0.0017	-0.2463	
-1.028704	0.100772	-0.063928	-8.05	-70.91	-8.26	0.3889	0.0013	-0.266	
-1.015406	0.127734	-0.085034	-6.72	-73.43	-8.96	0.3832	-0.0048	-0.2828	
-0.953674	0.122122	-0.072712	-4.2	-62.86	-6.23	0.3833	-0.0125	-0.2859	
-1.123742	0.114314	0.013542	-8.96	-68.39	-6.09	0.3774	0.0043	-0.2949	
-0.937326	0.077958	0.149206	5.88	-69.51	-10.92	0.3745	0.0027	-0.2979	
-1.01992	0.114192	0.245464	19.25	-78.19	-8.96	0.3615	0.0073	-0.3131	
-0.988322	0.09552599	0.166774	2.31	-99.19	-5.88	0.3545	-0.0109	-0.3193	
-0.987712	0.085522	0.083936	6.44	-108.92	-4.62	0.3399	0.0028	-0.3359	
-0.944524	0.053436	0.150182	21.21	-79.59	-4.2	0.3299	-0.0031	-0.3435	
-0.938302	0.09516	0.279014	27.3	-65.17	-4.69	0.3256	-0.0016	-0.3527	
-0.934886	0.106384	0.349896	10.78	-74.41	-4.13	0.3214	-0.0063	-0.3679	
-0.899384	0.092964	0.282918	-4.34	-87.5	-5.39	0.3055	-0.0107	-0.3694	
-0.899506	0.087596	0.289506	5.67	-79.38	-5.39	0.301	0.0015	-0.3647	
-0.86376	0.086742	0.39101	10.5	-70.07	-6.37	0.2822	0.0001	-0.3783	
-0.86071	0.087474	0.45933	0.84	-76.09	-6.02	0.2765	0	-0.3966	
-0.83997	0.090036	0.422486	-2.45	-81.97	-4.9	0.2694	-0.0106	-0.4013	
-0.820816	0.09552599	0.38918	-0.77	-73.71	-4.27	0.2591	0.0047	-0.4041	
-0.819474	0.09028	0.459696	0.98	-63.7	-3.29	0.2505	0.0063	-0.4117	
-0.815326	0.083936	0.523746	-0.49	-64.75	-2.66	0.2303	-0.0025	-0.4086	
-0.800686	0.092964	0.522648	-2.03	-70.84	-1.54	0.2348	-0.0104	-0.424	
-0.777628	0.088572	0.53253	-0.7	-69.79	-0.91	0.2275	-0.0012	-0.436	
-0.777384	0.07869	0.570594	-2.1	-62.3	0.07	0.2129	0.0095	-0.4404	
-0.746396	0.08601	0.614636	-1.33	-59.78	0.07	0.2029	-0.0025	-0.442	
-0.758596	0.081984	0.601826	-7.63	-61.04	2.31	0.1957	-0.004	-0.4496	
-0.739564	0.076738	0.607682	-2.52	-52.5	0.35	0.1855	0.0037	-0.4495	
-0.729072	0.078324	0.680638	-3.5	-50.19	-0.35	0.1682	0.0023	-0.4555	
-0.725534	0.066856	0.671854	-7.7	-56.14	0.28	0.1639	0.0023	-0.4631	
-0.691618	0.056974	0.648918	-4.13	-49.84	-0.49	0.161	-0.0022	-0.4616	
-0.685518	0.052216	0.710284	-5.46	-43.19	0.21	0.1609	0.0054	-0.4585	
-0.66612	0.055632	0.718946	-3.99	-39.9	0	0.145	0.0009999999	-0.46	
-0.659654	0.058438	0.723338	-3.15	-36.12	-0.21	0.1481	-0.0022	-0.4799	
-0.645868	0.055266	0.75335	-0.49	-30.1	-0.7	0.1422	-0.0019	-0.4631	
-0.645868	0.060268	0.775798	-2.1	-29.05	-0.49	0.1291	0.0026	-0.4706	
-0.642086	0.060634	0.761402	-1.4	-26.95	-0.49	0.1277	0.0057	-0.4751	
-0.623542	0.066978	0.780312	-1.05	-21.63	-1.19	0.1262	0.0088	-0.4736	
-0.610122	0.059414	0.795074	-2.73	-16.1	-1.47	0.119	0.0088	-0.4827	
-0.612684	0.054656	0.793	-2.31	-11.62	-2.38	0.1133	0.0012	-0.4781	
-0.604144	0.052704	0.798246	-0.98	-7.84	-3.08	0.1218	0.0073	-0.4675	
-0.60451	0.055998	0.792024	0.49	-2.17	-3.85	0.1161	0.0104	-0.4781	
-0.604632	0.050264	0.801662	-0.49	3.92	-3.92	0.1132	0.0058	-0.4766	
-0.602314	0.043066	0.823622	0.07	9.66	-4.2	0.1175	0.0149	-0.4796	
-0.608536	0.053314	0.806786	2.03	11.97	-3.99	0.1103	0.0074	-0.4796	
-0.604388	0.047214	0.787022	2.59	18.27	-3.71	0.1263	0.0056	-0.4858	
-0.60451	0.042944	0.795318	1.61	25.2	-3.5	0.119	0.0089	-0.4735	
-0.609512	0.048678	0.776652	2.31	32.2	-3.99	0.1349	0.0056	-0.4721	
-0.61793	0.051118	0.761158	2.31	39.9	-3.85	0.1363	0.008599999	-0.4736	
-0.637084	0.04148	0.7503	-1.68	45.85	-3.01	0.1349	0.0072	-0.4706	
-0.653432	0.044896	0.71675	-1.54	53.69	-2.52	0.1507	0.0162	-0.4691	
-0.69113	0.05124	0.687348	-0.14	58.45	-2.45	0.1493	0.0132	-0.4614	
-0.668926	0.048068	0.673196	-4.97	64.61	-2.03	0.1608	0.0147	-0.4523	
-0.69418	0.06466	0.617198	-1.68	70.77	-1.61	0.1695	0.0069	-0.4494	
-0.714066	0.043676	0.61671	-7.14	79.03	-1.12	0.1883	0.0098	-0.4418	
-0.736026	0.049898	0.601338	-6.65	83.23	-2.31	0.1985	0.0066	-0.4435	
-0.753228	0.030744	0.559614	-13.58	86.1	-2.94	0.2056	0.0127	-0.4419	
-0.77775	0.03965	0.508984	-10.71	87.71	-3.29	0.2157	0.0188	-0.4297	
-0.796782	0.029158	0.473238	-12.53	89.81	-2.66	0.2287	0.0141	-0.4222	
-0.869982	0.0305	0.44164	-14.07	89.18	-0.98	0.2402	0.0202	-0.413	
-0.811422	0.040016	0.39528	-9.59	86.87	2.24	0.2532	0.0246	-0.4115	
-0.84729	0.027694	0.352336	-19.81	99.54	2.8	0.2675	0.0276	-0.3948	
-0.852536	0.030012	0.338672	-6.86	99.26	4.06	0.2791	0.026	-0.3872	
-0.89487	0.02623	0.330376	-12.81	99.68	4.97	0.2922	0.0213	-0.3813	
-0.916098	0.032086	0.29585	-7.56	94.5	6.3	0.3051	0.0229	-0.363	
-0.9638	0.025376	0.230214	-12.81	96.46	7.98	0.305	0.0275	-0.3553	
-0.956968	0.049166	0.207034	0.84	100.59	9.24	0.328	0.0335	-0.3432	
-0.98271	0.072956	0.200812	-11.83	92.89	15.12	0.3368	0.0258	-0.3403	
-1.00101	0.053436	0.12505	-24.36	84.56	16.45	0.3584	0.0257	-0.3205	
-1.005158	0.053314	0.112362	-9.31	82.6	14.21	0.3598	0.0257	-0.3144	
-0.988444	0.064904	0.0915	5.18	70.63	11.97	0.3831	0.0164	-0.2994	
-1.003206	0.094428	0.045506	-0.07	60.62	8.61	0.3729	0.0166	-0.2902	
-1.00284	0.102602	0.002562	4.69	56.42	10.29	0.3873	0.0196	-0.2765	
-0.984784	0.111508	-0.041358	4.76	62.09	13.65	0.3901	0.0181	-0.2659	
-0.989664	0.096868	-0.063196	8.82	70.84	16.38	0.3887	0.0151	-0.2659	
-1.000278	0.08235	-0.049898	24.64	74.41	17.36	0.4032	0.0119	-0.2553	
-1.019188	0.084546	-0.038796	15.47	67.69	16.45	0.4018	0.0044	-0.2447	
-1.04554	0.074054	-0.069174	22.96	61.46	14.14	0.4162	0.0044	-0.2295	
-1.061034	0.09394	-0.118096	24.99	59.57	11.13	0.4148	-0.0047	-0.2265	
-1.059692	0.103578	-0.155306	25.41	61.32	9.17	0.4176	-0.0015	-0.2097	
-1.067866	0.12627	-0.19947	12.32	63.21	9.73	0.4176	-0.006	-0.2052	
-1.080554	0.120292	-0.216184	9.59	66.15	9.24	0.4307	-0.0107	-0.1946	
-1.05469	0.131638	-0.213988	13.44	66.85	8.54	0.4191	-0.0121	-0.2022	
-1.042246	0.116022	-0.211548	4.13	59.22	7.7	0.4364	-0.009099999	-0.1794	
-1.033218	0.121024	-0.240096	8.61	50.12	6.02	0.4378	-0.0136	-0.1733	
-1.021384	0.114192	-0.271206	10.29	47.88	4.97	0.429	-0.0103	-0.1595	
-0.98027	0.129808	-0.299998	14.42	48.37	5.25	0.4392	-0.0181	-0.1536	
-0.96563	0.130906	-0.299876	12.32	47.67	5.39	0.4479	-0.0211	-0.1399	
-0.962946	0.136396	-0.312198	10.5	44.73	5.25	0.445	-0.015	-0.1459	
-0.977952	0.135176	-0.313052	7	54.25	5.32	0.4392	-0.0269	-0.1186	
-0.955016	0.157136	-0.343674	15.33	54.6	6.72	0.4434	-0.0193	-0.12	
-0.941596	0.1647	-0.37271	5.95	46.13	4.06	0.4506	-0.0208	-0.1048	
-0.963678	0.150914	-0.39284	2.45	40.81	3.5	0.4506	-0.0254	-0.0988	
-0.984662	0.129442	-0.388814	0.49	37.45	4.2	0.4506	-0.0238	-0.0927	
-0.998326	0.131516	-0.39284	1.54	31.71	3.71	0.4564	-0.0254	-0.0957	
-0.982832	0.12993	-0.394792	0.49	25.27	3.57	0.455	-0.0269	-0.0927	
-0.966362	0.1342	-0.386618	-0.42	21.42	3.99	0.4506	-0.0237	-0.085	
-0.975024	0.13664	-0.398696	-1.19	17.43	4.97	0.4477	-0.0298	-0.0881	
-0.985882	0.133224	-0.409798	-8.33	8.47	4.62	0.4477	-0.0343	-0.076	
-0.968558	0.14091	-0.438102	-7.14	-2.8	5.18	0.4535	-0.0314	-0.0821	
-0.95465	0.148352	-0.42395	-12.46	-8.54	5.53	0.4549	-0.0237	-0.07889999	
-0.97844	0.181536	-0.479094	-15.12	-14.49	5.11	0.4593	-0.033	-0.0852	
-0.906826	0.16714	-0.466162	-28.84	-49	1.26	0.4564	-0.0344	-0.0775	
-1.012966	0.16165	-0.469944	-25.69	-56.35	-0.56	0.4479	-0.0375	-0.0928	
-0.999058	0.19581	-0.290482	-5.11	-60.55	0.63	0.4508	-0.0362	-0.1156	
-0.985394	0.157746	-0.256322	-40.81	-63.49	-2.38	0.4464	-0.027	-0.1186	
-0.991128	0.176412	-0.266692	1.68	-21.84	-0.49	0.4451	-0.0332	-0.1278	
-0.962214	0.173606	-0.234972	9.87	14.07	3.64	0.4422	-0.0301	-0.1323	
-0.98637	0.189588	-0.31964	22.33	30.52	3.57	0.4422	-0.0362	-0.1217	
-0.994666	0.186416	-0.387472	-1.26	2.87	-1.4	0.4479	-0.0285	-0.1171	
-0.981124	0.219966	-0.477508	16.66	-23.52	-7.28	0.4479	-0.0332	-0.1217	
-0.987224	0.20496	-0.423462	-11.48	-35.56	-5.53	0.445	-0.0316	-0.1232	
-0.978928	0.162626	-0.327814	-23.94	-32.41	-3.78	0.4435	-0.027	-0.1232	
-0.980758	0.157502	-0.239486	-18.13	-28.07	-4.76	0.4408	-0.0287	-0.1476	
-0.998814	0.152378	-0.21533	-18.13	-31.36	-5.81	0.4465	-0.0287	-0.14	
-1.029314	0.16043	-0.252418	-7.7	-37.03	-7.7	0.4407	-0.0257	-0.146	
-1.030778	0.179828	-0.298168	-5.81	-39.13	-8.26	0.4436	-0.0196	-0.1536	
-1.02175	0.163602	-0.287188	-12.39	-38.22	-7.56	0.4364	-0.0211	-0.1551	
-1.006012	0.144692	-0.266326	-16.24	-36.75	-6.93	0.4436	-0.0151	-0.1597	
-1.015406	0.140544	-0.23851	-8.96	-35.28	-7.42	0.4322	-0.0228	-0.181	
-1.033462	0.153476	-0.215208	-12.11	-43.19	-10.08	0.4307	-0.0182	-0.1825	
-1.06018	0.150182	-0.205814	-11.55	-47.6	-11.06	0.4249	-0.0197	-0.1855	
-1.050908	0.13847	-0.208376	0.77	-52.43	-15.12	0.4249	-0.0122	-0.2053	
-1.050908	0.135542	-0.221674	0.49	-59.99	-14.84	0.432	-0.0015	-0.1976	
-1.044686	0.12993	-0.213134	9.66	-69.37	-14.49	0.422	-0.0062	-0.2174	
-1.049566	0.135176	-0.199836	12.32	-76.37	-12.67	0.4104	0.0014	-0.2295	
-1.028094	0.133346	-0.155794	15.61	-80.22	-10.99	0.4191	0.0042	-0.2432	
-1.023946	0.125172	-0.132858	3.85	-79.94	-9.1	0.4033	-0.0032	-0.2478	
-1.026996	0.114802	-0.098698	-2.45	-76.86	-5.81	0.4047	0.0073	-0.2599	
-1.019798	0.111142	-0.100528	-2.59	-71.54	-5.95	0.3816	0.0015	-0.2599	
-0.944402	0.118828	-0.034282	6.23	-65.03	-4.27	0.3845	0.0059	-0.272	
-1.025898	0.091256	0.051972	1.12	-63.7	-3.22	0.3787	0.0074	-0.2827	
-0.948184	0.083326	0.114436	30.66	-91.42	-6.51	0.3744	0.0074	-0.2857	
-1.113982	0.080764	0.118584	7.91	-96.53	-3.01	0.363	-0.0032	-0.3025	
-0.979538	0.121268	0.082594	31.22	-80.01	-9.59	0.353	-0.0017	-0.3208	
-0.999546	0.105896	0.14762	-9.38	-79.1	-2.66	0.3414	-0.0046	-0.3192	
-0.950868	0.079178	0.210694	10.99	-77.56	-5.53	0.3444	-0.0063	-0.3375	
-0.953674	0.109678	0.229848	-0.56	-82.32	-5.39	0.3327	0.0044	-0.345	
-0.941718	0.075762	0.273768	0.14	-78.68	-6.3	0.327	0.0014	-0.3465	
-0.90768	0.067222	0.329766	3.5	-78.05	-6.02	0.3154	0.0074	-0.3693	
-0.862174	0.069784	0.337696	-6.16	-84.28	-8.12	0.2952	0.009099999	-0.3814	
-0.85888	0.06466	0.347822	-3.71	-81.69	-8.61	0.2852	-0.003	-0.3891	
-0.837286	0.063196	0.40077	3.01	-78.96	-8.82	0.2765	0.006	-0.4057	
-0.81923	0.057462	0.465552	-1.68	-77.21	-8.54	0.2605	0.0138	-0.4147	
-0.802394	0.050508	0.475678	-1.05	-79.31	-7.91	0.2533	0.0138	-0.4208	
-0.788852	0.044774	0.455182	-0.98	-79.1	-6.72	0.2563	0.0137	-0.4269	
-0.77348	0.0427	0.494832	4.27	-72.31	-5.32	0.2361	0.0063	-0.4284	
-0.753716	0.042822	0.55876	2.66	-69.65	-4.06	0.2201	0.0156	-0.4343	
-0.747494	0.042456	0.565226	3.08	-72.45	-1.47	0.2158	0.0065	-0.4344	
-0.756522	0.048434	0.574376	3.43	-66.22	0	0.21	0.0096	-0.442	
-0.740052	0.058072	0.644282	5.67	-61.95	0.42	0.2014	0.0111	-0.4526	
-0.74115	0.04331	0.641354	-2.8	-63.56	1.4	0.1884	0.0067	-0.451	
-0.709552	0.037576	0.618052	-2.03	-57.12	0	0.1812	0.0067	-0.4571	
-0.680516	0.041846	0.700524	0.77	-48.37	0.07	0.1767	0.0129	-0.4555	
-0.679784	0.046482	0.671976	0.21	-50.89	2.1	0.1638	0.0084	-0.46	
-0.673562	0.06039	0.70089	0.35	-48.65	1.68	0.1666	0.0115	-0.4539	
-0.664656	0.05551	0.733342	-1.61	-43.26	0.14	0.1421	0.0026	-0.4615	
-0.663924	0.0488	0.73566	-0.77	-41.37	0.63	0.1464	0.0116	-0.4721	
-0.650138	0.054168	0.741516	-0.77	-34.16	1.12	0.1349	0.0087	-0.4675	
-0.644892	0.059658	0.76799	-0.28	-30.1	0.91	0.1349	0.0102	-0.4706	
-0.63379	0.052704	0.779702	-0.28	-30.45	0.07	0.1276	0.0103	-0.472	
-0.628422	0.055022	0.77775	0.56	-28.98	-0.7	0.1233	0.0073	-0.469	
-0.611952	0.054412	0.786046	2.03	-21.91	-0.77	0.1162	-0.0017	-0.4736	
-0.608292	0.044652	0.798978	-0.91	-14.21	-0.14	0.1074	0.0105	-0.4765	
-0.610244	0.049654	0.827892	1.05	-8.61	-0.91	0.106	0.0059	-0.4842	
-0.607804	0.04331	0.82167	0.84	-5.53	-1.89	0.1103	0.0075	-0.4689	
-0.597434	0.048068	0.8052	0.84	0.35	-2.59	0.1116	0.0136	-0.4704	
-0.588406	0.045506	0.824476	1.47	8.05	-3.15	0.1031	0.0045	-0.4735	
-0.582794	0.041846	0.818742	0.91	12.95	-3.78	0.1117	0.012	-0.4735	
-0.578158	0.044408	0.816668	3.36	19.04	-3.92	0.1146	0.0104	-0.4765	
-0.58377	0.043066	0.799222	2.03	26.11	-3.64	0.119	0.0028	-0.469	
-0.587308	0.050996	0.801174	2.31	35.49	-3.5	0.1204	0.0073	-0.472	
-0.58438	0.045384	0.76616	-0.07	43.19	-2.73	0.1334	0.0072	-0.466	
-0.601216	0.047214	0.751398	-1.4	52.64	-2.31	0.1392	0.008599999	-0.4752	
-0.619394	0.05612	0.748958	-0.49	61.46	-2.31	0.1494	0.0009	-0.4722	
-0.619882	0.052216	0.706502	-1.61	65.94	-2.52	0.1522	0.0101	-0.4615	
-0.650016	0.044652	0.693692	-2.45	72.52	-2.31	0.1623	0.0085	-0.4555	
-0.68564	0.04941	0.643672	-3.57	74.55	-1.61	0.1739	0.0084	-0.4479	
-0.702964	0.038308	0.60085	-6.37	81.76	-0.98	0.197	0.009699999	-0.4465	
-0.731024	0.040626	0.580842	-4.83	89.32	-1.68	0.2202	0.0064	-0.4451	
-0.750788	0.035624	0.55754	-8.33	91.84	-1.68	0.223	0.0171	-0.4389	
-0.7747	0.051118	0.510814	-7.7	90.16	-2.17	0.2389	0.0094	-0.4223	
-0.811422	0.049654	0.472262	-8.47	92.26	-2.8	0.2476	0.0138	-0.4269	
-0.801052	0.037698	0.444446	-1.61	93.73	-1.4	0.2576	0.0215	-0.4146	
-0.845826	0.04331	0.4209	-9.87	96.32	-0.35	0.2661	0.0231	-0.3918	
-0.850462	0.02257	0.383446	-11.48	92.26	1.82	0.2792	0.0154	-0.3812	
-0.859856	0.040016	0.308416	-6.3	92.47	1.54	0.2951	0.0107	-0.3722	
-0.877058	0.029158	0.266936	-4.27	98.28	2.31	0.3095	0.0167	-0.3616	
-0.931958	0.030378	0.263032	2.31	105.14	2.03	0.3109	0.0182	-0.36	
-0.885476	0.033184	0.278526	7.21	101.29	2.45	0.3324	0.0303	-0.3478	
-0.90707	0.05978	0.266936	-13.37	92.68	5.18	0.347	0.018	-0.3404	
-0.991006	0.035746	0.135298	-21.14	89.46	9.45	0.3469	0.0273	-0.3281	
-0.93025	0.077592	0.070272	10.43	98.77	9.66	0.3599	0.0226	-0.3206	
-0.984418	0.062098	0.113582	4.06	104.58	11.62	0.3657	0.0196	-0.3023	
-0.941352	0.06405	0.106262	-1.75	82.25	8.54	0.3772	0.0151	-0.2795	
-0.968924	0.077104	0.010126	-14.98	63.49	8.54	0.3844	0.0196	-0.2795	
-1.008452	0.061366	-0.067832	-7.49	68.6	6.72	0.3844	0.0135	-0.2796	
-1.00223	0.119072	-0.0976	-10.71	84.42	16.1	0.3958	0.0228	-0.246	
-1.077748	0.07198	-0.110288	-6.93	89.67	18.13	0.4059	0.0152	-0.2339	
-1.078602	0.070638	-0.156282	27.02	73.78	6.23	0.4175	0.0166	-0.2264	
-1.121912	0.066368	-0.193248	30.52	64.68	4.69	0.4161	0.0106	-0.2218	
-1.125816	0.103456	-0.177144	42.35	69.79	-1.05	0.4176	-0.0045	-0.2082	
-1.104954	0.066978	-0.221674	-44.17	71.33	14.42	0.4247	0.0076	-0.196	
-1.02724	0.074786	-0.271572	17.92	67.48	7.91	0.4218	0.0016	-0.1853	
-1.031754	0.117974	-0.307928	19.74	69.86	11.62	0.4291	-0.0059	-0.1763	
-1.08946	0.086376	-0.353434	-0.91	67.55	10.22	0.4333	0.0062	-0.1762	
-0.986126	0.06771	-0.31842	27.65	53.97	8.68	0.4319	-0.0104	-0.1596	
-0.981978	0.08295999	-0.276574	15.05	29.12	6.16	0.4507	-0.0059	-0.1505	
-0.991738	0.078202	-0.247538	3.99	14.35	6.16	0.4421	-0.0135	-0.1535	
-1.030046	0.086254	-0.27023	-0.21	10.57	7.91	0.4348	-0.0073	-0.1565	
-1.04127	0.087352	-0.303902	10.57	18.9	11.41	0.4391	-0.0119	-0.1459	
-1.014064	0.118218	-0.319762	17.64	24.01	12.6	0.4493	-0.0166	-0.149	
-1.003694	0.136884	-0.351848	15.68	25.69	10.08	0.442	-0.0149	-0.1429	
-0.99857	0.14518	-0.369538	13.93	18.34	8.82	0.4479	-0.0195	-0.1353	
-0.998814	0.13786	-0.365268	-1.19	7.14	6.58	0.4436	-0.0271	-0.1323	
-0.999302	0.133834	-0.348676	-2.17	-1.19	4.76	0.4435	-0.021	-0.1323	
-1.002352	0.130174	-0.333548	-1.54	-2.8	3.64	0.4406	-0.0194	-0.1322	
-0.99552	0.132736	-0.318542	2.1	-0.35	3.78	0.4437	-0.0302	-0.1415	
-0.986858	0.13786	-0.31232	4.69	3.22	3.57	0.4436	-0.0257	-0.143	
-0.984296	0.149938	-0.309636	7.21	6.37	4.41	0.4479	-0.0256	-0.1323	
-0.98942	0.156404	-0.307318	7.35	5.6	5.88	0.432	-0.0301	-0.1369	
-0.993568	0.150426	-0.306708	3.15	0.56	6.58	0.4464	-0.0271	-0.1247	
-0.995398	0.14701	-0.307684	-0.77	-5.18	5.39	0.4451	-0.0317	-0.1324	
-0.992958	0.14823	-0.30744	1.19	-7.07	4.27	0.4378	-0.0301	-0.1308	
-0.989664	0.142008	-0.300852	1.82	-6.09	5.04	0.4422	-0.0286	-0.1354	
-0.984662	0.142008	-0.281088	-1.96	-4.48	6.58	0.4393	-0.0256	-0.1399	
-0.988322	0.15433	-0.272792	-6.23	-5.67	6.93	0.4408	-0.0347	-0.1293	
-0.994422	0.165188	-0.278648	-9.94	-8.33	6.3	0.4378	-0.0285	-0.1292	
-0.990274	0.155916	-0.290604	-14.14	-10.08	5.53	0.448	-0.0393	-0.1279	
-0.978196	0.138226	-0.29036	-14	-9.03	3.64	0.4378	-0.0271	-0.1369	
-0.991006	0.126514	-0.274378	-10.36	-7	0.63	0.4364	-0.0301	-0.1369	
-0.99552	0.142618	-0.262056	-6.02	-7.63	0.14	0.448	-0.0288	-0.143	
-0.975268	0.14945	-0.251564	-5.39	-10.08	3.22	0.4466	-0.0303	-0.1476	
-0.965264	0.146034	-0.241438	-7.63	-10.71	7.56	0.4438	-0.038	-0.1492	
-0.97905	0.141764	-0.228384	-9.66	-10.99	10.29	0.4422	-0.0318	-0.1445	
-0.992592	0.140056	-0.222284	-14.7	-13.02	10.57	0.4437	-0.0363	-0.1385	
-0.998204	0.15189	-0.22631	-11.34	-14.63	9.31	0.438	-0.038	-0.1583	
-0.980514	0.1647	-0.230946	-12.04	-14.35	8.12	0.435	-0.0348	-0.1445	
-0.976366	0.171776	-0.229848	-9.45	-14.91	8.4	0.4423	-0.0379	-0.1461	
-0.991494	0.167506	-0.220942	-14.56	-15.26	9.52	0.4453	-0.0395	-0.1523	
-0.994178	0.168238	-0.200446	-17.22	-11.2	10.64	0.4295	-0.0532	-0.1599	
-0.98454	0.17202	-0.191052	-15.26	-7.98	12.25	0.4468	-0.0457	-0.1599	
-0.983442	0.180682	-0.192516	-17.99	-9.66	13.86	0.4308	-0.0334	-0.1689	
-0.961726	0.185196	-0.200324	-19.46	-13.16	16.17	0.4395	-0.0396	-0.166	
-0.96197	0.186904	-0.201544	-18.48	-14.28	20.3	0.4338	-0.0472	-0.166	
-0.992714	0.181536	-0.193004	-17.85	-14.49	22.82	0.4325	-0.0488	-0.1767	
-0.990152	0.17019	-0.181414	-16.94	-9.94	22.68	0.4266	-0.0441	-0.1751	
-0.979538	0.18239	-0.176412	-11.62	-7.84	22.82	0.4281	-0.0517	-0.1736	
-0.977464	0.199714	-0.177876	-8.33	-12.18	25.34	0.4267	-0.0563	-0.1737	
-0.980026	0.210694	-0.149572	-6.23	-12.95	27.72	0.424	-0.0656	-0.1859	
-1.002596	0.219966	-0.138714	2.87	-7.56	29.89	0.424	-0.0686	-0.1844	
-0.989298	0.242414	-0.135054	-0.91	-10.36	31.15	0.4284	-0.0762	-0.1754	
-0.979904	0.252784	-0.136884	-0.91	-13.02	32.69	0.4182	-0.067	-0.1844	
-0.96868	0.26352	-0.131516	-4.13	-14.07	36.54	0.4285	-0.0779	-0.1906	
-0.950136	0.284992	-0.118828	-3.08	-14.49	38.22	0.4213	-0.0823	-0.1815	
-0.964898	0.296948	-0.101504	-3.5	-16.31	36.89	0.4026	-0.0898	-0.1906	
-0.967704	0.324276	-0.121024	-4.34	-21.49	37.8	0.4215	-0.0993	-0.1939	
-0.937082	0.341966	-0.125538	-5.81	-19.88	36.89	0.41	-0.0976	-0.1984	
-0.938546	0.352092	-0.130418	-7.98	-17.5	37.45	0.413	-0.1083	-0.1954	
-0.94245	0.340258	-0.118706	-14.28	-14.21	35.07	0.4116	-0.1114	-0.2015	
-0.952332	0.351726	-0.09747799	-13.51	-11.2	32.34	0.4057	-0.1053	-0.203	
-0.94184	0.363804	-0.089548	-11.41	-8.19	28.35	0.4031	-0.1267	-0.2047	
-0.9394	0.368562	-0.0915	-8.82	-9.38	25.76	0.4017	-0.1298	-0.2108	
-0.963678	0.38735	-0.089182	-4.27	-11.9	21.42	0.3989	-0.1404	-0.2063	
-0.990152	0.392352	-0.08723	-2.8	-16.38	18.76	0.3946	-0.1373	-0.2139	
-0.894504	0.393328	-0.082228	-2.87	-16.73	19.18	0.3945	-0.1358	-0.2108	
-0.902068	0.41053	-0.061488	-6.44	-18.13	19.95	0.393	-0.1327	-0.2108	
-0.890234	0.422852	-0.061976	1.61	-18.69	20.37	0.3888	-0.1403	-0.2124	
-0.874984	0.424682	-0.050752	6.16	-16.24	19.32	0.3931	-0.1374	-0.2169	
-0.854122	0.440054	-0.045384	5.88	-19.81	18.55	0.3976	-0.1421	-0.2292	
-0.881572	0.445422	-0.024888	12.81	-16.52	17.36	0.3903	-0.1404	-0.2185	
-0.875228	0.458842	-0.020984	13.51	-13.3	17.01	0.3817	-0.145	-0.2291	
-0.87474	0.479338	-0.031354	12.95	-15.89	16.66	0.3876	-0.1557	-0.2293	
-0.859856	0.48922	-0.032452	10.43	-15.68	16.03	0.3731	-0.1555	-0.2261	
-0.856928	0.499956	-0.022082	11.13	-10.99	15.61	0.3804	-0.1557	-0.2338	
-0.835212	0.512888	-0.005734	7.7	-10.99	14.07	0.3819	-0.1603	-0.2293	
-0.853512	0.514962	0.00061	8.33	-9.87	12.04	0.3805	-0.1663	-0.2248	
-0.85095	0.511546	-0.010248	8.82	-8.4	9.52	0.3675	-0.1709	-0.2385	
-0.855586	0.521062	-0.017324	6.86	-7.21	6.16	0.3749	-0.1771	-0.2416	
-0.857904	0.513498	-0.013298	0.91	-6.37	2.52	0.3776	-0.1724	-0.2248	
-0.867176	0.515328	-0.004026	0	-3.85	-0.7	0.3703	-0.1692	-0.2232	
-0.87474	0.515572	-0.001952	-2.73	-4.9	-4.13	0.3719	-0.1709	-0.2385	
-0.879742	0.507398	-0.00488	-3.92	-4.55	-7.35	0.3762	-0.1694	-0.2354	
-0.880718	0.50813	-0.000366	-2.1	-1.75	-10.29	0.369	-0.1739	-0.237	
-0.864858	0.512156	-0.007686	-2.1	-0.49	-14.77	0.369	-0.1739	-0.237	
-0.852536	0.482998	0.013786	-17.5	6.02	-19.6	0.3761	-0.1602	-0.2338	
-0.867664	0.495442	-0.013176	1.54	6.93	-23.1	0.3718	-0.1587	-0.2399	
-0.862418	0.48434	-0.0122	-10.29	7.49	-25.97	0.3775	-0.1603	-0.2338	
-0.879376	0.472018	-0.00427	-8.54	12.18	-29.12	0.3861	-0.1481	-0.2338	
-0.867664	0.460672	-0.00732	-3.99	12.11	-30.03	0.3817	-0.1466	-0.2383	
-0.895236	0.44225	-0.015006	-6.58	10.78	-32.13	0.3759	-0.1449	-0.2276	
-0.896212	0.426268	-0.010248	-5.04	14.91	-34.23	0.3889	-0.1375	-0.2352	
-0.876082	0.426512	-0.015982	1.47	13.86	-36.19	0.3989	-0.1345	-0.2307	
-0.908656	0.418338	-0.01586	-1.05	14.7	-36.96	0.3887	-0.1221	-0.229	
-0.89243	0.413458	-0.020984	0.77	16.38	-38.15	0.3959	-0.1221	-0.2214	
-0.90951	0.394182	-0.032574	-0.56	14.07	-39.13	0.3988	-0.1237	-0.2229	
-0.902556	0.382714	-0.037088	1.4	13.65	-40.46	0.3987	-0.1191	-0.2153	
-0.929396	0.37759	-0.04514	0.77	16.03	-42.07	0.3942	-0.1007	-0.2242	
-0.934276	0.363194	-0.058194	3.99	14.84	-43.96	0.4099	-0.0916	-0.212	
-0.931104	0.334524	-0.068564	5.53	14.14	-43.82	0.4085	-0.0871	-0.2181	
-0.937692	0.321958	-0.073688	3.99	14.35	-45.15	0.4113	-0.0901	-0.2044	
-0.952454	0.296582	-0.070272	11.55	14.21	-47.6	0.4083	-0.0779	-0.2134	
-0.96075	0.282186	-0.088206	9.03	9.59	-48.23	0.4139	-0.0656	-0.2027	
-0.983198	0.28548	-0.105774	13.51	10.99	-46.62	0.411	-0.0641	-0.2057	
-1.019554	0.254736	-0.13176	9.17	4.06	-46.55	0.4153	-0.0504	-0.2132	
-1.021384	0.233386	-0.141398	9.24	2.31	-44.52	0.4152	-0.0534	-0.201	
-1.03395	0.201056	-0.128954	6.09	8.05	-44.52	0.4165	-0.0336	-0.207	
-1.008208	0.163968	-0.09882	0.56	10.15	-44.1	0.4223	-0.0382	-0.2086	
-1.020164	0.132858	-0.091012	7.14	14.28	-44.52	0.4208	-0.0305	-0.2054	
-1.013332	0.107238	-0.127978	7.7	7.49	-47.81	0.425	-0.0214	-0.2008	
-0.987468	0.100772	-0.149938	5.88	-0.42	-52.22	0.4207	-0.0229	-0.2069	
-1.01199	0.065758	-0.157746	10.15	2.94	-54.67	0.4089	-0.0043	-0.1945	
-1.00284	0.043432	-0.151402	13.72	9.24	-56.07	0.4248	0	-0.2006	
-1.020286	0.03599	-0.14701	19.6	9.73	-56.49	0.4189	0.0077	-0.1944	
-1.010892	0.001586	-0.147132	12.04	4.76	-54.95	0.4217	0.0123	-0.1913	
-0.993568	-0.01464	-0.142374	19.88	-2.59	-54.04	0.4246	0.0092	-0.1914	
-1.016748	-0.007564	-0.127978	12.04	-12.95	-53.06	0.4258	0.0291	-0.1912	
-1.028582	-0.059292	-0.086254	18.06	-11.55	-47.88	0.4214	0.0367	-0.1942	
-1.031144	0.001952	-0.102236	30.87	8.12	-49.21	0.42	0.0337	-0.1957	
-1.013454	-0.049776	-0.117974	17.85	-0.07	-46.62	0.4198	0.052	-0.2032	
-0.99918	-0.087718	-0.133224	5.95	5.67	-44.38	0.4211	0.0582	-0.1894	
-1.010648	-0.085522	-0.12383	14.98	9.31	-43.47	0.4224	0.0734	-0.1954	
-1.021384	-0.09638	-0.104554	7.91	8.33	-43.4	0.4138	0.0735	-0.2014	
-1.026996	-0.113582	-0.10858	10.15	5.04	-42.7	0.4224	0.0796	-0.1923	
-1.006256	-0.154208	-0.122	3.43	1.96	-41.16	0.4194	0.0856	-0.2013	
-0.996496	-0.169824	-0.132126	9.94	4.2	-39.55	0.4206	0.1011	-0.1829	
-0.998326	-0.166774	-0.111874	14.21	2.45	-36.61	0.4092	0.0919	-0.1951	
-1.010282	-0.180926	-0.09821	17.43	0.28	-35.14	0.4164	0.09649999	-0.1936	
-0.99674	-0.207156	-0.111874	18.27	-3.29	-32.27	0.4179	0.0993	-0.2104	
-1.002108	-0.23119	-0.145546	11.9	-4.2	-30.17	0.4076	0.1072	-0.2011	
-0.992836	-0.232654	-0.141886	16.03	-2.45	-28.35	0.4104	0.1148	-0.2026	
-0.972096	-0.22204	-0.10126	20.3	-0.21	-28.42	0.4148	0.1177	-0.2148	
-0.996496	-0.208864	-0.103944	17.57	-5.04	-27.23	0.4075	0.1224	-0.2086	
-0.975024	-0.253516	-0.115046	4.69	-6.16	-23.94	0.4088	0.1225	-0.1933	
-0.984052	-0.259982	-0.149328	9.87	-6.16	-22.26	0.4131	0.1331	-0.2055	
-0.984662	-0.266692	-0.137128	8.33	-6.93	-20.93	0.406	0.1179	-0.2025	
-0.957334	-0.262544	-0.093086	10.5	-5.74	-19.95	0.4102	0.1331	-0.2039	
-0.979538	-0.25803	-0.07905599	9.45	-6.93	-17.71	0.3959	0.1256	-0.2115	
-0.979416	-0.271572	-0.101504	3.15	-9.45	-16.24	0.3957	0.1394	-0.2053	
-0.966362	-0.280844	-0.103456	3.22	-7.56	-15.19	0.3986	0.1393	-0.2191	
-0.965996	-0.284992	-0.08784	3.43	-3.64	-11.55	0.3942	0.1485	-0.2174	
-0.974414	-0.297558	-0.08357	-0.21	-4.27	-8.47	0.3986	0.1347	-0.2115	
-0.964654	-0.308782	-0.095648	-4.34	-7.42	-5.81	0.3841	0.141	-0.2174	
-0.95953	-0.318054	-0.097722	-6.65	-6.58	-3.43	0.3913	0.15	-0.2204	
-0.969412	-0.314882	-0.096868	-7	-5.53	-0.77	0.4	0.1484	-0.2236	
-0.940986	-0.34038	-0.088206	-9.73	-5.67	3.85	0.3942	0.147	-0.2159	
-0.938424	-0.341478	-0.096502	-9.24	-4.48	7.07	0.3914	0.1409	-0.2175	
-0.943548	-0.332816	-0.09162199	-13.09	-2.31	9.17	0.4002	0.1301	-0.2161	
-0.938546	-0.337818	-0.081862	-12.18	-0.21	12.95	0.3929	0.1317	-0.2221	
-0.955016	-0.311954	-0.085522	-7.63	0.49	15.19	0.3913	0.1455	-0.219	
-0.953918	-0.307562	-0.083448	-8.47	1.47	16.59	0.3942	0.1455	-0.2129	
-0.95038	-0.300852	-0.073444	-3.29	3.29	19.32	0.3928	0.1454	-0.2205	
-0.951112	-0.31537	-0.065758	-9.66	4.55	22.61	0.3928	0.1394	-0.2099	
-0.954772	-0.30439	-0.075762	-6.44	4.55	24.36	0.403	0.1377	-0.2115	
-0.956724	-0.285114	-0.085034	-8.12	2.8	27.09	0.3987	0.1317	-0.21	
-0.957944	-0.26535	-0.087718	-11.34	3.71	30.31	0.4074	0.1315	-0.2146	
-0.971608	-0.258152	-0.08723	-11.55	4.34	33.39	0.3989	0.1179	-0.2177	
-0.979294	-0.243634	-0.089182	-9.66	6.3	37.24	0.409	0.1132	-0.2132	
-0.984296	-0.244244	-0.093452	-12.53	4.97	39.62	0.4104	0.1178	-0.2071	
-0.976	-0.23424	-0.090646	-6.72	3.43	42.14	0.4091	0.1056	-0.2118	
-0.971974	-0.198738	-0.09467199	-7.91	3.22	44.94	0.4105	0.1071	-0.2042	
-0.978562	-0.172386	-0.077104	-7.14	-0.21	46.69	0.4224	0.0901	-0.215	
-0.979904	-0.15433	-0.092964	-13.65	-3.01	49.21	0.4107	0.0903	-0.2043	
-0.989664	-0.127002	-0.113216	-13.02	-4.83	51.73	0.4137	0.078	-0.2044	
-0.986248	-0.103944	-0.118218	-11.55	-2.17	53.55	0.4313	0.0656	-0.2031	
-1.002108	-0.07198	-0.103822	-10.85	-0.42	54.67	0.4182	0.0657	-0.2061	
-1.000644	-0.05246	-0.100284	-15.68	0.49	55.16	0.4126	0.0565	-0.2153	
-0.997716	-0.037942	-0.106384	-13.09	-1.47	54.32	0.4199	0.0504	-0.2047	
-1.020286	-0.021106	-0.11712	-17.01	-1.75	54.04	0.4272	0.0443	-0.2017	
-1.020774	-0.006588	-0.11895	-13.86	-1.61	53.97	0.42	0.0367	-0.2048	
-1.04249	0.034892	-0.116632	-13.37	-3.78	53.97	0.4259	0.0305	-0.2034	
-1.032608	0.05734	-0.109312	-9.87	-4.69	55.09	0.4202	0.0198	-0.2096	
-1.0248	0.08967	-0.103334	-6.51	-9.31	56.28	0.4261	0.0076	-0.2005	
-1.03456	0.125294	-0.09857599	-10.29	-10.36	58.03	0.4189	0.0106	-0.2112	
-1.024068	0.150548	-0.094306	-14.49	-13.44	59.36	0.4205	-0.0015	-0.2036	
-1.01992	0.16958	-0.089182	-9.03	-16.17	62.58	0.4049	-0.0259	-0.2206	
-1.012478	0.225212	-0.083326	-18.9	-13.51	64.4	0.4193	-0.026	-0.21	
-1.000278	0.246562	-0.067832	-23.1	-15.96	65.45	0.4267	-0.0337	-0.2146	
-1.00284	0.282186	-0.078446	-15.75	-11.97	62.23	0.4124	-0.0489	-0.2132	
-0.965752	0.274744	-0.071614	-15.75	-8.68	58.87	0.4053	-0.0626	-0.2163	
-0.967338	0.260348	-0.050142	-20.3	-4.83	52.5	0.4023	-0.0518	-0.2193	
-0.981368	0.260592	-0.044774	-15.82	-0.42	46.9	0.4053	-0.0596	-0.23	
-0.947208	0.271938	-0.057462	-12.04	1.19	44.87	0.4011	-0.0733	-0.221	
-0.984784	0.28731	-0.07686	-16.17	-2.03	44.87	0.4098	-0.072	-0.2363	
-0.950502	0.308782	-0.070028	-7.35	-2.38	43.33	0.4041	-0.084	-0.2196	
-0.944524	0.339282	-0.045628	-0.98	-1.68	40.18	0.4028	-0.0947	-0.2242	
-0.959408	0.355264	-0.033794	0.98	-9.73	40.39	0.3999	-0.0932	-0.2242	
-0.944402	0.398086	-0.0549	-1.05	-13.58	39.97	0.3971	-0.1023	-0.2273	
-0.95099	0.348798	-0.024522	-15.12	-18.34	41.16	0.4	-0.1023	-0.2243	
-0.966728	0.368806	-0.02684	2.1	-21.42	37.1	0.3958	-0.113	-0.2259	
-0.933422	0.388448	-0.0244	1.75	-21.56	34.65	0.3798	-0.1052	-0.2318	
-0.926834	0.416142	-0.031598	2.8	-19.46	32.62	0.3858	-0.1222	-0.2381	
-0.919148	0.411994	-0.02928	-4.2	-21	30.38	0.3858	-0.1236	-0.232	
-0.920246	0.436882	-0.03172	9.17	-15.68	25.48	0.3773	-0.1343	-0.2428	
-0.900482	0.441518	-0.011956	3.57	-15.05	23.1	0.3729	-0.1281	-0.2412	
-0.912194	0.477874	0.001098	10.78	-12.67	18.97	0.3759	-0.1359	-0.2473	
-0.87962	0.483852	0.010248	5.88	-13.79	17.92	0.3716	-0.1435	-0.2459	
-0.880474	0.49776	-0.007442	5.46	-15.05	16.38	0.3702	-0.145	-0.2428	
-0.873154	0.49837	-0.01403	5.32	-11.76	14.98	0.3674	-0.1572	-0.246	
-0.869372	0.498004	0.003172	5.32	-9.24	12.6	0.3789	-0.1467	-0.2536	
-0.852658	0.502762	0.022082	5.25	-8.05	10.15	0.3732	-0.1543	-0.2551	
-0.859368	0.514962	0.018056	2.66	-7.91	6.93	0.3689	-0.1527	-0.2597	
-0.853878	0.519354	0.018666	3.01	-5.11	3.85	0.363	-0.1465	-0.2565	
-0.86193	0.518744	0.037454	1.54	-2.73	0.77	0.3748	-0.162	-0.2628	
-0.861564	0.5185	0.05185	-3.08	-4.13	-1.89	0.3732	-0.1513	-0.2612	
-0.874984	0.507642	0.043676	-4.2	-5.67	-5.04	0.3632	-0.1618	-0.2597	
-0.862296	0.50508	0.03172	-6.3	-4.48	-9.31	0.3703	-0.1512	-0.2596	
-0.870836	0.503616	0.039406	-5.53	-0.07	-12.74	0.3688	-0.1435	-0.2565	
-0.87901	0.496052	0.060024	-6.23	2.1	-15.33	0.3732	-0.1498	-0.2642	
-0.881328	0.487756	0.055998	-6.44	0.28	-17.99	0.3731	-0.142	-0.255	
-0.876692	0.48861	0.039894	-5.67	0.49	-21.35	0.3745	-0.1435	-0.2489	
-0.870836	0.47031	0.056486	-6.3	7.35	-24.36	0.3687	-0.1405	-0.2595	
-0.874374	0.455914	0.069296	-6.37	8.05	-25.83	0.3774	-0.139	-0.2535	
-0.864248	0.433466	0.072712	-22.47	6.93	-32.48	0.3874	-0.1315	-0.255	
-0.884866	0.419314	0.03538	-6.51	4.62	-33.6	0.3757	-0.1207	-0.2548	
-0.884988	0.413702	0.038552	-4.2	9.31	-36.61	0.3858	-0.1102	-0.2685	
-0.904752	0.394182	0.030134	-6.37	14.98	-39.55	0.3872	-0.1132	-0.2548	
-0.888892	0.385886	0.023546	-5.18	22.47	-41.09	0.3901	-0.1071	-0.2594	
-0.907314	0.381372	0.037088	0.35	24.43	-42.07	0.3915	-0.1101	-0.2457	
-0.917074	0.36356	0.042822	-1.82	22.33	-43.89	0.3928	-0.0948	-0.2455	
-0.92293	0.359778	0.031842	1.12	16.87	-46.2	0.3853	-0.0733	-0.2499	
-0.912682	0.351604	0.022204	1.19	18.41	-48.65	0.3984	-0.0841	-0.2439	
-0.918172	0.320006	0.020862	4.41	20.3	-49.63	0.4041	-0.0719	-0.2408	
-0.94977	0.302194	0.005002	7.56	19.18	-50.89	0.4054	-0.0642	-0.2316	
-0.954284	0.282308	-0.004636	3.57	14.42	-50.96	0.4024	-0.0535	-0.2345	
-0.956114	0.264496	-0.039284	2.87	12.32	-49.84	0.4052	-0.0505	-0.233	
-0.95709	0.258518	-0.079544	7.35	19.04	-47.81	0.4081	-0.0459	-0.2314	
-0.959164	0.241926	-0.076738	4.69	29.75	-45.64	0.4007	-0.0412	-0.2253	
-0.998936	0.21533	-0.05002	11.2	28.63	-46.06	0.4049	-0.0305	-0.2221	
-1.042002	0.172508	-0.020862	11.69	20.51	-46.34	0.4149	-0.0199	-0.219	
-1.049444	0.140178	-0.034404	7.35	12.18	-48.58	0.4178	-0.0184	-0.2175	
-1.054934	0.110654	-0.083448	0.56	4.83	-50.47	0.4148	-0.0152	-0.2098	
-1.022482	0.091988	-0.122488	2.52	2.94	-52.15	0.4177	-0.0076	-0.2098	
-1.019554	0.068808	-0.135176	3.01	13.86	-54.88	0.4147	-0.0015	-0.2112	
-1.019676	0.045506	-0.158722	13.3	21.35	-58.8	0.4203	0.0167	-0.2142	
-1.020774	0.014152	-0.16165	18.41	24.36	-62.23	0.423	0.029	-0.208	
-1.009184	-0.005978	-0.138836	20.72	24.29	-64.61	0.4228	0.0443	-0.2078	
-1.006012	-0.023302	-0.120414	28.35	15.96	-64.47	0.4213	0.0459	-0.1941	
-1.012722	-0.05612	-0.08906	23.87	10.36	-58.8	0.4228	0.0474	-0.2002	
-1.020652	-0.044652	-0.097112	27.37	16.38	-57.54	0.4227	0.0536	-0.194	
-1.012478	-0.057462	-0.123952	19.25	8.05	-55.51	0.4182	0.0628	-0.1939	
-1.00528	-0.083448	-0.156892	12.74	6.72	-53.27	0.4281	0.081	-0.1938	
-1.00772	-0.102724	-0.173606	17.78	9.38	-50.47	0.421	0.075	-0.1892	
-1.023092	-0.132126	-0.152744	18.48	14.28	-45.99	0.4166	0.0795	-0.2029	
-1.020042	-0.13725	-0.126758	22.54	15.47	-42.77	0.4164	0.0949	-0.1921	
-1.014308	-0.160918	-0.132492	13.93	10.01	-42.21	0.4265	0.0918	-0.1861	
-0.997838	-0.180438	-0.14274	12.18	4.76	-39.2	0.409	0.1073	-0.1904	
-0.99247	-0.210816	-0.151036	6.23	2.03	-36.82	0.4192	0.1026	-0.189	
-0.992104	-0.22753	-0.155184	13.72	1.47	-34.44	0.4161	0.1179	-0.1888	
-0.985516	-0.244854	-0.14518	16.31	2.59	-31.57	0.4118	0.1209	-0.2025	
-0.985638	-0.262178	-0.137006	14.42	1.68	-29.75	0.4117	0.1255	-0.1994	
-0.981978	-0.287798	-0.137982	7.21	-2.1	-28.56	0.4088	0.1302	-0.1963	
-0.972828	-0.30134	-0.151158	9.8	-3.71	-27.37	0.4088	0.1241	-0.1872	
-0.970632	-0.304634	-0.162382	11.13	-4.9	-25.76	0.4073	0.1318	-0.1917	
-0.972828	-0.31415	-0.170068	14.56	0.77	-23.1	0.413	0.1409	-0.1901	
-0.957578	-0.317444	-0.155794	17.5	1.4	-19.95	0.4101	0.1424	-0.1962	
-0.953064	-0.307196	-0.138592	18.69	3.01	-16.31	0.4056	0.1486	-0.1916	
-0.96685	-0.285236	-0.134078	17.78	-1.26	-13.44	0.4071	0.1501	-0.1931	
-0.97051	-0.279258	-0.142008	13.09	-6.86	-9.66	0.403	0.1317	-0.2008	
-0.968436	-0.289262	-0.152378	9.03	-8.05	-6.51	0.4071	0.1486	-0.1946	
-0.960994	-0.304512	-0.150304	7.35	-4.9	-4.62	0.4056	0.1471	-0.19	
-0.95404	-0.310612	-0.145302	9.31	-1.54	-3.57	0.4042	0.1516	-0.1961	
-0.950014	-0.305976	-0.127734	8.75	-0.28	-0.63	0.4043	0.147	-0.2038	
-0.95038	-0.304634	-0.112118	2.31	-0.77	2.66	0.397	0.1471	-0.2007	
-0.965996	-0.306464	-0.11895	-2.59	-3.22	5.11	0.3985	0.1425	-0.2038	
-0.956968	-0.307684	-0.13176	-2.8	-2.94	7.98	0.3985	0.1471	-0.2022	
-0.96075	-0.305244	-0.125904	-6.79	-0.84	10.57	0.4057	0.1484	-0.2114	
-0.963678	-0.30195	-0.11834	-5.6	0.49	13.44	0.4058	0.1439	-0.2053	
-0.972706	-0.307684	-0.111142	-12.95	-0.7	16.24	0.4001	0.1303	-0.1978	
-0.960018	-0.312564	-0.115778	-10.71	-1.47	18.27	0.4073	0.1333	-0.1947	
-0.961482	-0.296338	-0.123708	-7.98	-3.29	19.6	0.4059	0.1286	-0.2009	
-0.96807	-0.283284	-0.127734	-9.87	-2.17	21.56	0.4001	0.1303	-0.1932	
-0.97173	-0.264496	-0.125416	-8.26	-0.98	24.43	0.4029	0.1333	-0.1978	
-0.978074	-0.26169	-0.123586	-8.47	-0.7	28.7	0.4058	0.1333	-0.1963	
-0.967704	-0.260714	-0.11895	-6.86	-0.77	32.27	0.4045	0.1211	-0.1933	
-0.971364	-0.250832	-0.115168	-6.79	-0.91	35	0.4089	0.1224	-0.2086	
-0.963556	-0.236436	-0.1159	-8.89	-2.24	37.52	0.4003	0.1165	-0.201	
-0.96624	-0.212646	-0.116266	-10.36	-2.8	38.78	0.4135	0.0995	-0.2012	
-0.977464	-0.187392	-0.121756	-13.51	-3.5	40.67	0.4076	0.1042	-0.1981	
-0.983198	-0.174094	-0.123098	-15.47	-2.8	42.7	0.4121	0.0918	-0.2043	
-0.988688	-0.157502	-0.121756	-12.88	-2.24	44.73	0.4166	0.0841	-0.2074	
-0.991616	-0.144204	-0.121146	-13.93	-2.31	46.06	0.4123	0.0735	-0.1999	
-0.988444	-0.128832	-0.121634	-14.07	-3.36	46.48	0.4167	0.0719	-0.206	
-0.99979	-0.110532	-0.126758	-21.98	-5.11	47.04	0.4167	0.0719	-0.2014	
-1.005402	-0.0915	-0.12688	-16.94	-4.55	47.6	0.4226	0.0657	-0.2046	
-1.007232	-0.066246	-0.119316	-16.38	-4.76	48.93	0.4198	0.0611	-0.2092	
-1.011014	-0.044286	-0.118706	-17.85	-5.67	50.61	0.4183	0.0521	-0.1925	
-1.019188	-0.02074	-0.119194	-18.2	-6.79	51.52	0.417	0.0505	-0.2032	
-1.020774	-0.000366	-0.11834	-22.4	-8.05	52.22	0.4128	0.0413	-0.2109	
-1.025532	0.018422	-0.117364	-18.76	-10.99	52.22	0.4288	0.029	-0.1988	
-1.006866	0.04209	-0.111142	-15.68	-11.55	52.29	0.4215	0.0336	-0.2079	
-1.013698	0.064294	-0.106994	-14.49	-13.16	53.62	0.426	0.0244	-0.205	
-1.029314	0.08113	-0.089548	-14.28	-16.59	55.02	0.4174	0.0137	-0.2081	
-1.001742	0.146522	-0.095648	-7.42	-21.35	55.51	0.4176	0.0045	-0.2173	
-1.0187	0.168848	-0.08686399	-18.62	-24.36	58.17	0.4205	0	-0.2158	
-0.998936	0.211304	-0.086376	-3.08	-22.68	57.68	0.4191	-0.0061	-0.2113	
-0.995276	0.2257	-0.078446	-11.06	-18.06	58.45	0.4222	-0.0245	-0.2176	
-1.000156	0.235582	-0.049776	-8.33	-13.02	58.1	0.4108	-0.0367	-0.2283	
-0.979782	0.244488	-0.024522	-13.09	-13.65	56.42	0.4123	-0.0383	-0.2314	
-0.99186	0.256932	-0.03355	-20.3	-16.66	52.92	0.411	-0.0551	-0.227	
-0.996496	0.267058	-0.065636	-20.44	-17.71	50.33	0.4097	-0.0567	-0.2346	
-0.979904	0.288896	-0.051972	-9.73	-10.15	47.46	0.4097	-0.0567	-0.2361	
-0.963556	0.292312	-0.00854	-1.68	-5.18	45.78	0.3996	-0.0642	-0.2316	
-0.937936	0.31415	0.035502	-11.62	-12.67	47.67	0.4041	-0.075	-0.2408	
-0.957334	0.31537	-0.047458	-8.75	-14.7	45.01	0.4014	-0.0933	-0.2425	
-0.94123	0.350506	-0.027084	-17.99	-14.56	46.48	0.4015	-0.0994	-0.2395	
-0.951478	0.343308	0.017812	-0.28	-13.02	43.12	0.387	-0.0962	-0.2425	
-0.945256	0.37088	0.016714	2.66	-16.24	38.78	0.3927	-0.0977	-0.2349	
-0.958554	0.374296	0.004758	-1.89	-18.48	35.07	0.3901	-0.1086	-0.2578	
-0.918294	0.391742	0.012322	-5.95	-18.2	32.83	0.3842	-0.1039	-0.2471	
-0.918904	0.386496	-0.002806	-4.69	-15.26	29.61	0.393	-0.1101	-0.2518	
-0.890844	0.416264	0.010248	5.6	-12.88	26.74	0.3845	-0.1254	-0.2625	
-0.89121	0.42029	0.042212	2.73	-8.33	24.99	0.3802	-0.1268	-0.2564	
-0.89243	0.43005	0.05368	4.69	-11.06	23.52	0.3758	-0.1267	-0.2473	
-0.883402	0.440298	0.030988	2.17	-14.35	22.47	0.3787	-0.1254	-0.264	
-0.89182	0.452864	0.007686	2.87	-11.83	20.79	0.3759	-0.1345	-0.2611	
-0.88145	0.464942	0.029158	9.03	-7	19.53	0.3672	-0.1374	-0.2549	
-0.875716	0.47641	0.05551	9.24	-5.95	19.18	0.3671	-0.1312	-0.2518	
-0.870714	0.485316	0.052704	7.49	-8.47	19.04	0.3774	-0.1406	-0.2581	
-0.855708	0.500932	0.051728	4.27	-9.1	15.47	0.3731	-0.1436	-0.2611	
-0.87169	0.5002	0.0488	4.34	-7.49	14	0.3674	-0.1527	-0.2566	
-0.865712	0.510936	0.045262	4.41	-5.81	11.97	0.3587	-0.1465	-0.2565	
-0.875594	0.51118	0.051728	4.62	-3.08	10.36	0.3659	-0.1496	-0.2596	
-0.87657	0.509228	0.060756	0.63	-2.17	7.63	0.3631	-0.1497	-0.2672	
-0.878888	0.507642	0.05612	-0.7	-3.43	4.9	0.3646	-0.1572	-0.2566	
-0.876082	0.503982	0.051728	-2.31	-3.01	2.8	0.3574	-0.1603	-0.2627	
-0.87596	0.502762	0.05063	-1.54	-2.1	0.98	0.3689	-0.1513	-0.2657	
-0.878766	0.497882	0.051484	-1.89	-1.05	-0.42	0.3646	-0.1558	-0.2673	
-0.876936	0.487024	0.052704	-1.47	-0.7	-1.26	0.3574	-0.1603	-0.2627	
-0.880596	0.47336	0.046482	-4.55	-1.75	-1.82	0.3603	-0.1588	-0.2658	
-0.884744	0.4697	0.04209	-1.96	-1.19	-1.96	0.3675	-0.1589	-0.2689	
-0.882426	0.464576	0.050142	0.07	0.28	-1.96	0.3632	-0.1573	-0.2642	
-0.88328	0.466772	0.051606	1.4	-0.07	-2.59	0.356	-0.1588	-0.2688	
-0.918294	0.472018	0.039894	0.77	-2.1	-2.66	0.3704	-0.1513	-0.2734	
-0.880474	0.440542	0.046238	-10.57	1.19	-3.64	0.3689	-0.1573	-0.2566	
-0.8906	0.459696	0.03538	12.39	-1.89	-4.34	0.3632	-0.1573	-0.2673	
-0.896334	0.44408	0.060878	3.01	0.91	-3.71	0.3603	-0.1619	-0.2673	
-0.905484	0.460184	0.055998	8.75	-1.33	-4.48	0.369	-0.1574	-0.2719	
-0.901702	0.46543	0.04148	10.08	-2.59	-5.46	0.3704	-0.1559	-0.2734	
-0.905728	0.476776	0.024156	11.41	-0.91	-7	0.3587	-0.145	-0.2595	
-0.901702	0.482144	0.033794	9.31	3.29	-9.1	0.3659	-0.1481	-0.2596	
-0.896456	0.482388	0.04941	10.36	3.78	-10.57	0.3602	-0.1481	-0.2641	
-0.898774	0.46848	0.055388	5.46	2.31	-11.9	0.3631	-0.1542	-0.2551	
-0.900604	0.459696	0.042456	4.27	-0.7	-12.67	0.3659	-0.1481	-0.2611	
-0.902434	0.454694	0.035258	3.15	0.21	-13.16	0.3701	-0.1374	-0.258	
-0.909632	0.449448	0.03965	2.8	1.19	-13.51	0.3644	-0.145	-0.2565	
-0.909144	0.440786	0.033062	0.91	0.98	-13.72	0.3718	-0.1467	-0.2703	
-0.908168	0.432734	0.031964	-0.21	1.12	-13.79	0.3717	-0.1452	-0.2672	
-0.913292	0.422974	0.031964	-1.61	1.47	-13.65	0.3688	-0.1405	-0.2626	
-0.911462	0.422364	0.0305	-1.12	2.03	-14	0.3673	-0.1435	-0.2596	
-0.924028	0.417118	0.024766	0.56	2.66	-14.07	0.3715	-0.1314	-0.2625	
-0.926224	0.400282	0.031842	-0.35	4.48	-13.79	0.3746	-0.1391	-0.2672	
-0.92903	0.392352	0.037942	0.84	4.62	-14.07	0.3685	-0.1222	-0.2609	
-0.938546	0.385276	0.030744	-2.31	4.34	-14	0.3773	-0.1299	-0.2625	
-0.931958	0.38796	0.024278	0.21	3.64	-14.21	0.3743	-0.1192	-0.2624	
-0.93208	0.384178	0.023912	-0.56	4.62	-14.42	0.3744	-0.1268	-0.2579	
-0.933666	0.377346	0.025132	-1.05	4.06	-14.21	0.3772	-0.1222	-0.2594	
-0.942328	0.372344	0.023912	0.63	4.06	-14.21	0.3756	-0.1115	-0.2593	
-0.947452	0.367098	0.025864	1.05	3.5	-14.21	0.3785	-0.1146	-0.2533	
-0.94855	0.362584	0.020862	1.89	3.08	-14.49	0.3785	-0.11	-0.2547	
-0.947574	0.362462	0.014518	0.7	1.89	-14.91	0.3771	-0.1115	-0.2517	
-0.942084	0.358558	0.009272	-0.7	2.17	-14.84	0.3742	-0.113	-0.2502	
-0.944402	0.357582	0.010248	-0.07	3.78	-14.49	0.3813	-0.1054	-0.2501	
-0.94489	0.350872	0.015372	1.75	5.67	-14.28	0.3886	-0.1086	-0.2517	
-0.94367	0.342942	0.02013	0.28	5.53	-14.35	0.39	-0.107	-0.2441	
-0.950624	0.339892	0.018544	-0.63	4.62	-14.14	0.3827	-0.1008	-0.2501	
-0.950868	0.33855	0.00854	-0.7	2.8	-13.86	0.39	-0.104	-0.2517	
-0.95892	0.331474	0.004148	-0.63	3.15	-13.44	0.39	-0.1024	-0.2502	
-0.965386	0.331108	0.00366	0.7	3.64	-13.37	0.387	-0.0917	-0.2531	
-0.963678	0.325496	0.002806	1.54	3.92	-12.95	0.3798	-0.0993	-0.2501	
-0.970144	0.320128	0.00122	-0.21	4.55	-12.53	0.3885	-0.1009	-0.2486	
-0.966118	0.314882	0.00061	-0.77	4.13	-12.6	0.3857	-0.1025	-0.2578	
-0.964288	0.30988	-0.00183	-1.47	1.89	-12.39	0.397	-0.0887	-0.2394	
-0.970144	0.305	-0.008174	-0.14	1.33	-11.9	0.3956	-0.0887	-0.2501	
-0.981612	0.305854	-0.005856	0.84	2.31	-12.6	0.3926	-0.08109999	-0.253	
-0.97722	0.303414	-0.00183	-0.21	3.08	-13.93	0.3883	-0.0841	-0.253	
-0.96685	0.288286	0.000488	-2.8	1.68	-13.86	0.3869	-0.0871	-0.25	
-0.972828	0.27938	-0.006466	-2.73	-0.14	-13.93	0.3897	-0.0794	-0.2408	
-0.972218	0.286822	-0.008052	0.84	0.42	-15.26	0.3969	-0.075	-0.2454	
-0.967094	0.285602	-0.009516	0.28	2.94	-16.87	0.394	-0.0749	-0.2423	
-0.962092	0.27877	0.001586	-1.19	4.62	-18.69	0.4056	-0.072	-0.25	
-0.971364	0.274866	0.005978	-2.73	4.13	-20.16	0.3983	-0.0735	-0.2499	
-0.975634	0.270718	-0.000488	-3.22	2.24	-20.37	0.3998	-0.069	-0.2545	
-1.009672	0.269254	-0.012566	-4.27	0.63	-21.84	0.3983	-0.0674	-0.2484	
-0.970998	0.249734	-0.00244	-2.1	3.29	-21.07	0.3953	-0.0658	-0.2483	
-0.978928	0.254126	-0.005856	-2.45	3.64	-21.42	0.3952	-0.055	-0.2376	
-0.979172	0.242902	-0.002562	0.91	4.06	-20.65	0.3966	-0.052	-0.2467	
-0.987712	0.233752	-0.004026	0	1.26	-19.46	0.3951	-0.0458	-0.2421	
-0.97722	0.231922	-0.002318	3.78	1.75	-17.36	0.3909	-0.0581	-0.2467	
-0.978928	0.206424	0.012078	-2.31	1.05	-15.05	0.3995	-0.0505	-0.2436	
-0.984296	0.198128	0.00549	1.61	-1.89	-14.21	0.398	-0.0444	-0.2527	
-0.99369	0.19276	0.002928	5.81	-1.61	-14	0.3965	-0.0428	-0.242	
-1.002108	0.185196	0.003538	3.64	-0.91	-13.72	0.3979	-0.0382	-0.2435	
-1.00345	0.179584	0.00183	5.46	-1.19	-13.86	0.4051	-0.0353	-0.2451	
-1.00345	0.171166	-0.003416	4.2	-1.4	-13.86	0.4094	-0.0323	-0.2481	
-1.0004	0.167872	-0.01159	1.61	-2.38	-13.58	0.4022	-0.0307	-0.2435	
-0.997228	0.163236	-0.011834	0.07	-2.03	-13.58	0.4067	-0.04	-0.2558	
-0.999058	0.162992	-0.011834	-0.07	-1.26	-13.58	0.4035	-0.0216	-0.251	
-1.000644	0.164456	-0.010248	1.82	-1.19	-13.23	0.4081	-0.0415	-0.2482	
-0.99735	0.157868	-0.01342	5.04	-1.19	-12.74	0.3964	-0.0291	-0.248	
-1.000766	0.151402	-0.013786	3.71	1.89	-11.55	0.4093	-0.0185	-0.248	
-1.003206	0.144814	-0.001098	3.64	2.87	-10.64	0.3991	-0.0214	-0.2388	
-1.005646	0.14152	0.005124	1.96	2.03	-10.08	0.4063	-0.0184	-0.2358	
-1.004304	0.142008	0.002074	1.12	0.21	-10.01	0.4078	-0.0155	-0.2479	
-0.998326	0.141764	-0.0061	-0.28	-0.63	-10.08	0.4078	-0.02	-0.2388	
-1.001132	0.137494	-0.008417999	-0.42	0.35	-9.66	0.4064	-0.0185	-0.2464	
-1.002474	0.133468	-0.001952	1.47	2.38	-8.68	0.4079	-0.0307	-0.242	
-1.005524	0.130174	0.002196	2.45	2.59	-7.77	0.3976	-0.0092	-0.2417	
-1.004914	0.123708	0	-0.42	1.33	-6.86	0.4006	-0.0169	-0.251	
-1.006744	0.11773	-0.003294	-2.24	1.54	-5.88	0.4048	-0.0077	-0.2402	
-1.00284	0.119682	-0.005856	-1.75	0.84	-5.88	0.4149	-0.0079	-0.2449	
-1.008208	0.11529	-0.008417999	-0.63	1.19	-5.11	0.4047	-0.0032	-0.2463	
-1.009428	0.115046	-0.010004	0.14	0.63	-4.69	0.4105	-0.0047	-0.2418	
-1.007842	0.11895	-0.01037	1.19	-0.56	-5.04	0.4019	-0.0032	-0.2539	
-1.006866	0.11712	-0.008174	-0.28	-0.35	-4.83	0.4004	-0.0077	-0.2402	
-1.00406	0.119682	-0.008174	-1.75	0.28	-4.55	0.3961	-0.0061	-0.2448	
-1.006988	0.111996	-0.010736	-3.99	-0.42	-4.13	0.4077	-0.0078	-0.2433	
-1.0065	0.116388	-0.013542	-3.29	-0.14	-4.13	0.4149	-0.0048	-0.2479	
-1.002962	0.113582	-0.011346	-4.9	0.28	-4.06	0.4062	0.0012	-0.2524	
-1.007598	0.114192	-0.007442	-4.13	1.54	-4.06	0.4063	-0.0093	-0.2464	
-1.007598	0.116632	-0.006588	-3.92	1.19	-4.06	0.4034	-0.0139	-0.2464	
-1.008574	0.114924	-0.006466	-2.1	1.47	-3.92	0.4062	-0.0048	-0.2494	
-1.00772	0.114558	-0.005124	-2.73	1.82	-3.36	0.4076	-0.0016	-0.2417	
-1.007232	0.113582	-0.007929999	-3.71	1.54	-3.01	0.3989	0	-0.2356	
-1.00284	0.110776	-0.015616	-7.63	0.49	-2.94	0.4063	-0.0078	-0.2509	
-1.007476	0.107726	-0.02074	-8.47	0.07	-3.08	0.4077	-0.0079	-0.2555	
-1.00772	0.107604	-0.027694	-9.1	0.14	-2.73	0.4106	-0.0048	-0.2524	
-1.012844	0.107116	-0.024034	-6.72	2.38	-1.68	0.3974	0.0045	-0.2431	
-1.008574	0.10797	-0.018544	-3.36	3.78	-1.4	0.4033	0.0013	-0.2508	
-1.006988	0.105652	-0.0122	-4.55	3.92	-0.35	0.4134	0.0073	-0.2539	
-1.010038	0.09455	-0.013298	-5.39	4.76	0.77	0.4047	0.0028	-0.2462	
-0.998936	0.085522	-0.012322	-4.48	5.32	1.61	0.409	0	-0.2295	
-1.003938	0.08845	-0.014152	-3.64	4.48	1.89	0.4046	0.0104	-0.2507	
-1.008696	0.094062	-0.01952	0	3.85	2.03	0.4075	0.0059	-0.2432	
-1.050786	0.107482	-0.039284	1.47	1.61	2.45	0.409	0.0043	-0.2432	
-0.963068	0.109678	-0.032452	0.35	1.26	2.66	0.4089	0.0105	-0.237	
-1.0187	0.115168	-0.022204	1.89	5.74	2.31	0.4016	0.0151	-0.2431	
-1.015162	0.117364	-0.01891	4.97	10.29	2.1	0.4176	0.0119	-0.2416	
-1.026142	0.122976	-0.028914	-2.31	7.28	0.42	0.4075	0.0075	-0.2325	
-1.033706	0.116876	-0.037454	-6.44	3.92	-1.26	0.4047	-0.0031	-0.2387	
-1.02907	0.116144	-0.044408	-4.13	4.62	-1.12	0.4133	0.0058	-0.2447	
-0.998326	0.116754	-0.043676	-0.28	4.83	0.35	0.4104	0.0059	-0.2401	
-0.988322	0.119682	-0.040016	4.62	5.25	1.89	0.4018	0	-0.2401	
-0.985028	0.123586	-0.034404	7.63	5.81	2.94	0.4206	-0.0033	-0.2342	
-0.992836	0.136152	-0.030744	4.62	5.53	2.66	0.4105	-0.0001	-0.2402	
-1.004792	0.1403	-0.035258	-0.28	3.92	0.77	0.409	-0.0046	-0.2326	