Sensor string: A
Serial number: 1970-01-0000
Firmware version: 2.015
Hardware version: 2.2
Calibration quality: 5
ax	ay	az	gx	gy	gz	mx	my	mz

0.167628	0.909754	0.369782	0.21	0.21	0.91	-0.1332	-0.3141	-0.3165	Reference
0.163358	0.914268	0.368196	0.63	0.42	1.05	-0.1443	-0.3218	-0.3227	
0.164334	0.91988	0.367708	0.56	0.42	1.26	-0.1344	-0.3281	-0.3198	
0.16775	0.920246	0.369782	0.63	0.42	1.19	-0.1388	-0.3171	-0.3134	
0.165676	0.920124	0.369172	0.35	0.28	1.19	-0.1416	-0.3156	-0.3149	
0.167506	0.920734	0.36783	0.07	0.28	0.98	-0.1374	-0.3172	-0.3181	
0.16958	0.918904	0.363804	-0.28	0.42	1.05	-0.1333	-0.3171	-0.3088	
0.17446	0.923784	0.365268	-0.7	0.7	0.63	-0.1374	-0.3187	-0.3165	
0.169702	0.924272	0.36234	-0.77	1.05	0.56	-0.1403	-0.3063	-0.3163	
0.168848	0.921588	0.36173	-0.49	1.05	0.35	-0.1388	-0.3233	-0.3103	
0.166652	0.921222	0.36234	-0.98	1.4	0.28	-0.1332	-0.3187	-0.3104	
0.162626	0.91805	0.361242	-1.4	1.61	1.19	-0.1386	-0.3235	-0.3275	
0.16958	0.905972	0.358314	-2.1	1.47	1.75	-0.1415	-0.3233	-0.3165	
0.178974	0.895846	0.366122	-2.17	1.68	2.31	-0.1332	-0.3187	-0.3104	
0.177388	0.902678	0.375394	-1.4	2.03	3.08	-0.126	-0.322	-0.3199	
0.173118	0.923052	0.370636	-0.91	1.68	4.48	-0.1401	-0.3188	-0.3227	
0.167018	0.932812	0.364658	-0.84	1.05	5.04	-0.143	-0.3217	-0.3149	
0.16531	0.939644	0.36173	-1.75	0.91	4.55	-0.1416	-0.3141	-0.3211	
0.168848	0.94794	0.367464	-1.61	-0.35	3.71	-0.1332	-0.311	-0.3165	
0.16897	0.937814	0.364414	-0.91	-0.77	2.24	-0.1317	-0.3219	-0.3136	
0.173484	0.917928	0.366244	-0.91	-0.56	-0.35	-0.1332	-0.3111	-0.3181	
0.155428	0.917806	0.36478	0.35	-0.07	-1.96	-0.1374	-0.3156	-0.3149	
0.132004	0.920978	0.356484	0.14	-1.05	-2.59	-0.1348	-0.3094	-0.3071	
0.167262	0.92232	0.36234	-1.47	-3.43	-0.98	-0.1445	-0.3078	-0.3147	
0.205814	0.924028	0.382592	-3.57	-5.53	0.07	-0.1358	-0.3265	-0.3198	
0.231434	0.91134	0.386618	-4.06	-5.32	0	-0.1332	-0.3187	-0.3119	
0.236558	0.90219	0.376736	-4.41	-2.94	-0.14	-0.136	-0.3096	-0.3227	
0.213378	0.916098	0.356728	-3.29	0.91	-0.07	-0.1331	-0.3158	-0.3243	
0.157258	0.901946	0.382592	-3.22	4.55	1.68	-0.136	-0.3203	-0.3135	
0.148718	0.869982	0.392596	0	5.11	0.84	-0.1403	-0.3155	-0.3118	
0.15494	0.878888	0.38796	0.77	3.15	2.73	-0.1318	-0.3034	-0.3211	
0.139324	0.899628	0.384544	0.98	1.89	4.41	-0.1361	-0.3155	-0.3056	
0.146522	0.912072	0.378078	1.12	0.14	4.9	-0.1404	-0.3093	-0.3055	
0.163846	0.934642	0.366122	0.07	-0.77	6.44	-0.1333	-0.3079	-0.3149	
0.17995	0.941718	0.36966	-0.56	-0.84	4.97	-0.1402	-0.3126	-0.3211	
0.203862	0.931104	0.377346	-1.47	-0.77	3.22	-0.1373	-0.3127	-0.3258	
0.219966	0.919636	0.381372	-1.61	-0.56	1.19	-0.1331	-0.3127	-0.3212	
0.21045	0.922564	0.385398	-1.82	1.05	0.35	-0.1471	-0.3141	-0.3272	
0.191052	0.9028	0.375516	-1.47	1.54	-0.84	-0.1387	-0.3187	-0.3181	
0.180804	0.902312	0.379054	-1.33	1.96	-0.28	-0.1432	-0.3093	-0.3101	
0.17446	0.91134	0.376248	-0.63	2.03	0.42	-0.1417	-0.3079	-0.3194	
0.171288	0.910608	0.371856	-1.26	2.1	1.82	-0.1402	-0.3064	-0.3225	
0.168238	0.909144	0.36783	-1.19	1.89	2.8	-0.1402	-0.3156	-0.3149	
0.16897	0.921466	0.360754	-1.19	2.1	3.5	-0.1345	-0.3157	-0.3196	
0.171532	0.929152	0.356362	-2.17	2.52	4.2	-0.1432	-0.3124	-0.3101	
0.183244	0.935008	0.364292	-2.94	2.45	4.83	-0.1348	-0.3078	-0.3071	
0.19032	0.921222	0.379664	-2.87	1.82	3.85	-0.1473	-0.3078	-0.3162	
0.194834	0.8967	0.403454	-1.61	2.17	1.26	-0.1472	-0.3095	-0.3256	
0.206058	0.880962	0.424316	0.63	2.24	-1.12	-0.1473	-0.3048	-0.324	
0.19703	0.873764	0.429074	2.24	1.89	-2.1	-0.136	-0.3126	-0.3196	
0.188124	0.874496	0.424072	3.08	0.7	-2.38	-0.1416	-0.3094	-0.3195	
0.197518	0.889502	0.413092	4.13	-1.19	-1.05	-0.1458	-0.3094	-0.3209	
0.192394	0.904996	0.389058	3.85	-1.33	0.56	-0.1345	-0.3158	-0.3243	
0.194834	0.92781	0.371124	2.73	-0.56	0.14	-0.1403	-0.3094	-0.3179	
0.185318	0.941474	0.349286	0.28	0.7	0.28	-0.1499	-0.311	-0.3302	
0.173484	0.942206	0.338184	-2.73	0.84	0.56	-0.1387	-0.3126	-0.3226	
0.169702	0.930128	0.338428	-4.55	0.84	1.12	-0.1431	-0.3078	-0.3147	
0.172874	0.920002	0.35563	-5.46	1.19	1.33	-0.1387	-0.3142	-0.3227	
0.180438	0.903044	0.379176	-4.06	0.42	0.56	-0.1344	-0.3158	-0.329	
0.1891	0.889624	0.390644	-1.82	-0.07	-0.07	-0.1344	-0.3112	-0.3289	
0.18788	0.893162	0.399428	0.7	-0.42	-0.07	-0.1373	-0.3188	-0.3181	
0.182512	0.905118	0.405772	2.8	-0.91	-0.28	-0.1387	-0.3142	-0.3242	
0.189344	0.90585	0.39772	3.78	-1.47	-1.26	-0.15	-0.3155	-0.3194	
0.19398	0.905606	0.36905	3.43	-1.96	-1.33	-0.143	-0.3156	-0.3211	
0.192638	0.926102	0.36844	2.1	-0.91	-0.07	-0.1374	-0.308	-0.3242	
0.182146	0.93025	0.365634	0.63	-0.28	0.42	-0.1415	-0.3188	-0.3242	
0.183732	0.917684	0.366	-1.26	0.84	0.77	-0.1344	-0.3235	-0.3229	
0.188978	0.916586	0.371856	-1.68	1.54	0.98	-0.1387	-0.3157	-0.3242	
0.190686	0.911462	0.381616	-2.31	2.24	1.05	-0.1385	-0.3235	-0.3306	
0.187514	0.892308	0.39589	-1.47	2.73	0.77	-0.1344	-0.3189	-0.3259	
0.180926	0.903776	0.405406	-0.56	2.31	0.77	-0.1304	-0.3142	-0.3166	
0.178852	0.904264	0.399916	0	1.75	0.49	-0.1317	-0.3081	-0.3258	
0.184342	0.900238	0.38979	0.07	0.84	0.21	-0.1413	-0.3266	-0.329	
0.194346	0.91073	0.379908	0.42	0.42	0.63	-0.1373	-0.3081	-0.3288	
0.177266	0.921466	0.356362	0	0.91	1.26	-0.136	-0.3034	-0.3257	
0.161284	0.94062	0.337696	-1.54	1.75	2.38	-0.1358	-0.3204	-0.3244	
0.156404	0.952088	0.341356	-3.29	1.47	2.38	-0.1359	-0.3157	-0.3227	
0.163114	0.94123	0.367464	-4.55	0.49	1.26	-0.1401	-0.3157	-0.3242	
0.186294	0.892552	0.397598	-4.41	0.28	-0.77	-0.1345	-0.3096	-0.3289	
0.202642	0.873642	0.420778	-2.24	-1.12	-2.17	-0.1487	-0.3063	-0.3177	
0.201422	0.865468	0.428586	0.35	-1.05	-2.45	-0.1387	-0.3111	-0.3257	
0.198494	0.86376	0.427976	3.29	-1.47	-2.52	-0.1374	-0.3203	-0.315	
0.199226	0.880352	0.412848	4.97	-1.61	-1.12	-0.15	-0.3186	-0.3179	
0.188734	0.90219	0.376492	4.34	-1.54	0.56	-0.1359	-0.3234	-0.3197	
0.172752	0.946842	0.347334	0.63	0	2.87	-0.1402	-0.311	-0.321	
0.166652	0.9577	0.350506	-1.47	0.35	2.73	-0.1375	-0.3003	-0.3225	
0.183122	0.922808	0.367708	-3.36	0.91	1.4	-0.1417	-0.3079	-0.3163	
0.209352	0.894992	0.398574	-3.5	0.77	0.35	-0.1332	-0.3064	-0.3195	
0.194712	0.891332	0.403698	-1.75	1.12	0.49	-0.1459	-0.3033	-0.3224	
0.192272	0.894748	0.405162	-0.07	0.91	0.35	-0.1319	-0.3064	-0.3165	
0.188368	0.886818	0.40199	1.19	0.49	-0.49	-0.1415	-0.3126	-0.3242	
0.18971	0.881206	0.38857	2.17	-0.21	-0.56	-0.1332	-0.3049	-0.3195	
0.192516	0.906704	0.374418	2.66	-0.77	0.14	-0.1459	-0.3125	-0.3179	
0.181902	0.930616	0.364536	2.1	0.21	1.4	-0.1375	-0.3079	-0.3179	
0.16897	0.942694	0.335256	0.21	0.49	2.31	-0.1458	-0.3126	-0.3241	
0.16897	0.965996	0.365634	-1.54	0.49	2.17	-0.1331	-0.3111	-0.3243	
0.166164	0.934276	0.378688	-3.29	0.56	0.21	-0.1373	-0.308	-0.3257	
0.198372	0.873642	0.41297	-3.22	0.14	-2.94	-0.1374	-0.3095	-0.3195	
0.218502	0.85766	0.428342	-1.05	-0.21	-2.24	-0.143	-0.3095	-0.3241	
0.198128	0.881328	0.4148	2.03	-0.42	-0.98	-0.1331	-0.3111	-0.3243	
0.19337	0.891454	0.397476	3.22	-0.63	-0.7	-0.1373	-0.3142	-0.3274	
0.19093	0.923052	0.355386	2.8	-0.98	0.21	-0.1345	-0.3112	-0.3258	
0.164944	0.955138	0.328302	-0.49	0.49	1.54	-0.1317	-0.3066	-0.3305	
0.154208	0.966118	0.336598	-2.87	-0.28	1.12	-0.1361	-0.3018	-0.3194	
0.169946	0.921954	0.377346	-4.48	-0.77	-0.28	-0.1401	-0.3172	-0.3227	
0.1952	0.866078	0.406016	-3.15	-0.98	-1.82	-0.1373	-0.3065	-0.3288	
0.204716	0.881816	0.423584	-0.28	-1.61	-2.03	-0.126	-0.3128	-0.3244	
0.194224	0.898652	0.414678	2.03	-0.7	-1.12	-0.1387	-0.3081	-0.3304	
0.19093	0.887062	0.396012	2.38	-0.49	-1.12	-0.1388	-0.311	-0.3211	
0.18849	0.898286	0.376614	2.73	-0.77	-0.56	-0.1415	-0.3142	-0.3288	
0.179706	0.929152	0.361242	1.96	-0.98	0.35	-0.14	-0.3112	-0.335	
0.174094	0.939766	0.36234	0.49	-0.84	0.14	-0.1374	-0.3018	-0.3225	
0.174826	0.925004	0.369782	-0.77	-0.14	-1.54	-0.1345	-0.3203	-0.3182	
0.18361	0.930372	0.382714	-0.35	-0.28	-2.45	-0.1386	-0.3143	-0.332	
0.180804	0.91317	0.386252	-1.19	-0.28	-2.31	-0.1331	-0.3158	-0.3228	
0.184586	0.884744	0.392596	-1.05	-0.42	-1.68	-0.1332	-0.3095	-0.3196	
0.187026	0.87535	0.387106	0.35	-0.84	0.07	-0.1387	-0.3096	-0.3257	
0.17629	0.884378	0.382714	0.98	-1.47	2.03	-0.1445	-0.3079	-0.3209	
0.183244	0.907192	0.380396	0.91	-2.1	3.43	-0.1458	-0.3141	-0.321	
0.185806	0.922564	0.381616	0.14	-1.82	4.2	-0.1317	-0.3127	-0.3212	
0.186538	0.928542	0.37942	-0.56	-0.7	3.43	-0.1414	-0.3173	-0.3304	
0.18666	0.931836	0.377102	-0.98	-0.7	3.01	-0.1386	-0.3127	-0.332	
0.184342	0.924516	0.379908	-1.54	-0.42	2.1	-0.1345	-0.3127	-0.3258	
0.188246	0.905118	0.38918	-1.26	0	0.63	-0.1403	-0.314	-0.3149	
0.194102	0.886696	0.388204	-0.7	-0.14	-0.35	-0.1359	-0.3096	-0.3289	
0.193248	0.886086	0.392108	-0.21	-0.56	0.42	-0.1373	-0.3142	-0.3211	
0.19276	0.895236	0.388936	0.42	-0.21	0.98	-0.1458	-0.314	-0.3179	
0.198372	0.898408	0.383202	0.63	-0.42	1.4	-0.1373	-0.3142	-0.3211	
0.19947	0.907192	0.37576	0.63	-0.42	2.24	-0.1374	-0.3157	-0.318	
0.186294	0.925248	0.37698	1.54	-0.14	2.31	-0.143	-0.3094	-0.321	
0.181414	0.933544	0.378322	0.98	0.77	1.4	-0.1373	-0.3112	-0.3289	
0.192638	0.919636	0.382714	-0.98	0.84	-0.07	-0.1445	-0.3155	-0.3117	
0.203008	0.895236	0.386252	-1.61	0.63	0	-0.1374	-0.3095	-0.3226	
0.205326	0.88755	0.387106	-1.26	0.49	0.77	-0.1429	-0.3142	-0.3273	
0.200202	0.894016	0.388326	-0.07	0.7	1.33	-0.1346	-0.3111	-0.318	
0.193614	0.906826	0.388326	1.05	0.84	1.4	-0.1359	-0.3081	-0.3273	
0.18971	0.912804	0.383934	0.84	0.77	1.05	-0.1418	-0.3047	-0.3132	
0.188002	0.91378	0.380762	0.56	0.35	0.77	-0.1416	-0.3126	-0.321	
0.187148	0.916952	0.375638	0.14	-0.21	0.49	-0.1402	-0.311	-0.3179	
0.187392	0.914756	0.376492	0	-0.42	0.14	-0.1429	-0.3157	-0.3273	
0.192028	0.904874	0.378322	-0.14	-0.14	-0.42	-0.1374	-0.3079	-0.3195	
0.194834	0.905362	0.385276	0.35	-0.42	-0.49	-0.1373	-0.3204	-0.3228	
0.19642	0.908656	0.380762	0.49	-0.84	-0.42	-0.1375	-0.3094	-0.3149	
0.195322	0.911096	0.387716	0.63	-1.19	-0.7	-0.1403	-0.3155	-0.3102	
0.19215	0.914756	0.38796	0.56	-1.12	-1.05	-0.1387	-0.3157	-0.3211	
0.190198	0.912804	0.383934	0.63	-1.54	-1.19	-0.1474	-0.3016	-0.3161	
0.191662	0.918294	0.383202	0.49	-1.61	-1.54	-0.1472	-0.3064	-0.3271	
0.191784	0.909998	0.383934	-0.21	-1.33	-1.47	-0.1429	-0.3157	-0.3226	
0.196298	0.909754	0.38186	0.14	-1.61	-1.68	-0.143	-0.3187	-0.318	
0.203252	0.905972	0.382104	-0.49	-1.05	-0.91	-0.1473	-0.314	-0.3148	
0.203618	0.892918	0.376004	-0.63	-0.14	-0.49	-0.1431	-0.3064	-0.3209	
0.200202	0.88206	0.367464	-0.28	0.56	-0.07	-0.1457	-0.3141	-0.3272	
0.191296	0.906338	0.36112	0.98	0.14	0.63	-0.1332	-0.3064	-0.3195	
0.179706	0.936594	0.36051	0.35	0.7	1.61	-0.1431	-0.3109	-0.3132	
0.175192	0.932324	0.368318	-0.63	0.7	0.7	-0.1374	-0.3141	-0.3149	
0.183244	0.907314	0.375394	-1.19	0.7	-0.42	-0.1332	-0.308	-0.3227	
0.188002	0.897066	0.383446	-0.84	-0.07	-0.42	-0.1458	-0.3171	-0.3195	
0.190442	0.90097	0.389546	0.07	-0.84	-0.21	-0.1416	-0.3049	-0.3272	
0.195688	0.897798	0.393816	0.21	-1.05	-0.21	-0.1332	-0.3065	-0.3227	
0.19459	0.902556	0.393084	0.28	-0.84	-0.35	-0.1486	-0.3156	-0.3194	
0.18727	0.910974	0.378932	-0.14	-0.63	0.28	-0.1417	-0.3048	-0.3163	
0.180682	0.919758	0.371856	-0.63	0.07	0.49	-0.1458	-0.3033	-0.3255	
0.180926	0.91805	0.372344	-1.75	-0.28	1.12	-0.1389	-0.3094	-0.3164	
0.186172	0.912682	0.380518	-1.75	-0.42	0.84	-0.1415	-0.3095	-0.3257	
0.191174	0.90768	0.388448	-1.4	-0.35	0.21	-0.1472	-0.311	-0.3256	
0.19764	0.90036	0.395646	-0.7	-0.63	-0.7	-0.1471	-0.3172	-0.3241	
0.202032	0.893406	0.398574	-0.21	-0.91	-1.05	-0.1361	-0.3063	-0.3133	
0.200812	0.893772	0.38796	0.35	-1.12	-0.7	-0.1373	-0.3173	-0.3227	
0.194834	0.903288	0.379176	0.56	-1.12	-0.14	-0.1416	-0.3156	-0.318	
0.185928	0.912072	0.37576	0.56	-0.7	0.21	-0.1429	-0.3141	-0.3242	
0.187392	0.914024	0.376248	0.07	-0.35	0.42	-0.1358	-0.3158	-0.3274	
0.191052	0.915122	0.382592	-0.14	-0.21	0.49	-0.1417	-0.3094	-0.3179	
0.195444	0.90829	0.385886	-0.28	0	0.35	-0.143	-0.3171	-0.318	
0.200324	0.900238	0.39528	0	0	0.21	-0.1458	-0.3095	-0.324	
0.202398	0.895846	0.389058	0.14	0.42	0.35	-0.1472	-0.3079	-0.324	
0.19642	0.900482	0.386862	0.42	0.7	0.56	-0.1374	-0.3064	-0.3226	
0.189588	0.902556	0.384056	0.49	0.77	1.05	-0.1485	-0.308	-0.3302	
0.193492	0.90707	0.385032	0.77	0.28	0.77	-0.1431	-0.3032	-0.3178	
0.191296	0.911096	0.389302	0.7	0.21	0.84	-0.1415	-0.3233	-0.3165	
0.186782	0.917928	0.377468	0.77	-0.07	0.28	-0.1501	-0.3109	-0.3209	
0.199104	0.910242	0.3843	0.77	-0.07	-0.56	-0.143	-0.3156	-0.3211	
0.202032	0.901336	0.378444	1.05	-0.28	-0.49	-0.1417	-0.3156	-0.3133	
0.183976	0.910608	0.376248	1.61	0.14	-0.07	-0.1431	-0.3094	-0.3148	
0.185806	0.909998	0.376736	2.03	0.21	-0.84	-0.1358	-0.3204	-0.3228	
0.187148	0.915	0.38125	1.4	0	-0.91	-0.1431	-0.3032	-0.3193	
0.192272	0.905728	0.377956	0.7	-0.42	-0.98	-0.1458	-0.3141	-0.3226	
0.201056	0.901214	0.378322	0.63	-1.19	-0.84	-0.133	-0.3189	-0.329	
0.197152	0.91134	0.382714	1.19	-1.05	-0.21	-0.1374	-0.3141	-0.3149	
0.19398	0.916708	0.380518	1.82	-0.42	-0.42	-0.1386	-0.3142	-0.3289	
0.193736	0.911218	0.37576	1.54	-0.21	-0.98	-0.1374	-0.3156	-0.3165	
0.19642	0.906704	0.372588	0.98	-0.35	-1.05	-0.1416	-0.3156	-0.3164	
0.191784	0.909388	0.369172	0.35	-0.49	-0.21	-0.1346	-0.3111	-0.318	
0.184708	0.914512	0.371612	0.35	-0.21	0.14	-0.1473	-0.3125	-0.3178	
0.188368	0.910852	0.372954	0.28	0	-0.14	-0.1346	-0.3111	-0.3196	
0.196664	0.906582	0.386496	0.35	-0.21	-0.84	-0.1317	-0.3127	-0.3212	
0.199958	0.904508	0.381372	0.77	-0.63	-0.63	-0.1444	-0.3156	-0.3195	
0.19825	0.911828	0.378566	1.47	-0.63	-0.49	-0.1415	-0.3096	-0.3303	
0.187636	0.921954	0.376492	1.89	-0.07	-0.21	-0.1387	-0.3188	-0.3196	
0.183732	0.917318	0.365634	1.54	0.35	-0.63	-0.1416	-0.3157	-0.3211	
0.183732	0.921466	0.354898	0.49	0.21	-0.14	-0.1472	-0.3109	-0.3209	
0.181902	0.926102	0.352214	-0.35	-0.21	0.56	-0.143	-0.3171	-0.318	
0.17995	0.915	0.364414	-1.33	0.28	0.21	-0.1459	-0.3139	-0.3117	
0.191662	0.906338	0.374296	-0.63	-0.35	-0.28	-0.1402	-0.311	-0.3195	
0.191906	0.913414	0.38064	0	-0.42	-0.49	-0.1458	-0.3202	-0.3164	
0.19276	0.917318	0.379542	0.77	-0.7	-0.91	-0.1473	-0.3124	-0.3163	
0.189588	0.917806	0.375028	0.63	-0.84	-1.33	-0.1388	-0.3095	-0.3179	
0.184098	0.917928	0.367098	0.7	-1.05	-1.54	-0.1401	-0.3203	-0.3212	
0.183976	0.917318	0.365268	0.14	-0.77	-1.68	-0.1401	-0.3157	-0.3211	
0.187514	0.909632	0.367952	-0.35	-0.49	-1.54	-0.1473	-0.3094	-0.3178	
0.186782	0.908778	0.371978	-0.77	-0.49	-0.91	-0.143	-0.3202	-0.3165	
0.189954	0.909632	0.37637	-0.7	-0.28	-0.7	-0.139	-0.3032	-0.3132	
0.190198	0.912682	0.383324	-0.56	-0.28	-0.49	-0.1458	-0.3109	-0.3194	
0.191906	0.910364	0.377956	-0.7	0	-0.49	-0.1444	-0.3217	-0.3165	
0.192272	0.90646	0.374296	-0.42	0	-0.42	-0.1431	-0.3155	-0.3133	
0.188978	0.91073	0.371978	-0.49	0.14	-0.07	-0.1361	-0.3064	-0.3179	
0.18788	0.911706	0.37088	-0.42	-0.07	0.35	-0.1387	-0.3111	-0.3242	
0.189954	0.91134	0.37149	-0.7	0	0.63	-0.1402	-0.3187	-0.3134	
0.187392	0.912804	0.371734	-0.56	-0.42	0.84	-0.136	-0.3126	-0.3165	
0.188124	0.91378	0.375882	-0.91	0.14	0.84	-0.1374	-0.3064	-0.321	
0.1891	0.905362	0.377102	-0.84	0.07	0.91	-0.1417	-0.3094	-0.3132	
0.189954	0.909266	0.377468	-0.63	0.14	1.05	-0.1361	-0.3156	-0.3087	
0.185562	0.911584	0.37271	-0.28	-0.14	1.26	-0.1515	-0.314	-0.3178	
0.18239	0.914634	0.37576	-0.21	0.07	1.19	-0.1387	-0.3233	-0.315	
0.187514	0.910608	0.373686	-0.77	0.07	1.19	-0.1443	-0.3218	-0.3242	
0.187148	0.914634	0.375028	-0.49	-0.42	1.19	-0.1472	-0.3186	-0.3148	
0.183244	0.920856	0.372466	-0.84	-0.14	0.77	-0.1387	-0.3096	-0.3273	
0.185196	0.91195	0.378932	-0.98	-0.07	0.21	-0.1417	-0.311	-0.3164	
0.182512	0.91622	0.379664	-0.91	-0.28	-0.07	-0.1444	-0.3217	-0.3149	
0.19093	0.906338	0.37759	-1.12	-0.35	-0.14	-0.1416	-0.3156	-0.3164	
0.19642	0.89426	0.374296	-1.05	-0.7	-0.21	-0.1373	-0.3172	-0.3212	
0.187636	0.90951	0.3782	-0.07	-0.91	0.56	-0.1472	-0.3156	-0.3194	
0.18544	0.921344	0.382104	0.21	-0.49	0.21	-0.1473	-0.3109	-0.3194	
0.19032	0.919148	0.383202	-0.56	-0.21	-0.07	-0.143	-0.3171	-0.3164	
0.193858	0.907802	0.380396	-0.98	-0.35	0	-0.1388	-0.3141	-0.3196	
0.200446	0.902556	0.37881	-0.98	-0.63	0.42	-0.1445	-0.3032	-0.3193	
0.19642	0.902312	0.38308	-0.21	0	0.63	-0.1319	-0.3141	-0.3088	
0.193858	0.907802	0.38125	0.35	0.49	0.42	-0.1416	-0.3187	-0.318	
0.19154	0.910486	0.385398	0.49	0.91	-0.21	-0.1361	-0.311	-0.3149	
0.191662	0.909388	0.38064	0.28	0.63	-0.35	-0.136	-0.3065	-0.3226	
0.19337	0.907314	0.380762	0	0.35	-0.14	-0.1446	-0.3047	-0.31	
0.191418	0.907558	0.373686	0.56	0.14	0.07	-0.1388	-0.3141	-0.3149	
0.186416	0.91317	0.372588	0.77	0.28	-0.14	-0.1502	-0.3139	-0.31	
0.184342	0.915732	0.370636	0.56	0.56	-0.35	-0.1445	-0.3078	-0.3147	
0.191174	0.913536	0.372344	-0.14	0.07	-0.28	-0.1416	-0.311	-0.321	
0.189344	0.91012	0.374418	-0.77	0.07	-0.14	-0.1416	-0.311	-0.3179	
0.187514	0.91134	0.37759	-0.42	-0.14	0	-0.1402	-0.3202	-0.315	
0.187636	0.906338	0.378078	-0.42	0.07	-0.56	-0.1388	-0.3156	-0.3165	
0.189222	0.909388	0.37759	0	-0.07	-0.63	-0.1444	-0.3171	-0.3148	
0.188856	0.909266	0.375394	-0.21	-0.14	0.07	-0.1388	-0.3203	-0.3165	
0.185196	0.914634	0.374418	-0.07	-0.42	0.07	-0.1431	-0.317	-0.3102	
0.184586	0.919636	0.37576	-0.28	-0.35	0.14	-0.1429	-0.3188	-0.3258	
0.184952	0.918172	0.371002	-0.28	-0.56	-0.35	-0.1446	-0.3063	-0.3147	
0.188734	0.913536	0.374174	-0.84	-0.35	-0.77	-0.1528	-0.3155	-0.3209	
0.188978	0.906582	0.37454	-0.91	-0.49	-0.63	-0.1389	-0.311	-0.3164	
0.188734	0.908778	0.376004	-0.84	-0.63	-0.35	-0.1373	-0.3127	-0.3273	
0.188612	0.914268	0.375882	-0.63	-0.63	-0.21	-0.146	-0.3123	-0.3085	
0.188368	0.914146	0.376126	-0.63	-0.56	-0.21	-0.1332	-0.3202	-0.3088	
0.187514	0.915122	0.374418	-0.56	-0.49	-0.35	-0.1404	-0.3078	-0.3101	
0.189832	0.909876	0.377346	-1.4	0.21	0.07	-0.1528	-0.3232	-0.3163	
0.19154	0.903776	0.374418	-1.47	-0.07	0.63	-0.1373	-0.3188	-0.3212	
0.184464	0.913536	0.371368	-1.05	-0.21	0.98	-0.1401	-0.3141	-0.3226	
0.184586	0.919636	0.37393	-1.61	0.42	0.91	-0.1401	-0.3172	-0.3227	
0.185196	0.91317	0.37576	-2.17	-0.14	1.19	-0.1375	-0.314	-0.3102	
0.180926	0.92171	0.374662	-2.38	-1.33	1.33	-0.1374	-0.3095	-0.3195	
0.184952	0.912316	0.372588	-3.92	-1.12	1.68	-0.1459	-0.3017	-0.3255	
0.18788	0.901824	0.374296	-4.34	-1.82	2.31	-0.1332	-0.311	-0.3165	
0.183366	0.913292	0.373442	-4.48	-1.12	2.38	-0.1486	-0.3125	-0.3256	
0.188246	0.917562	0.380274	-4.83	-0.84	2.31	-0.1445	-0.3078	-0.3163	
0.194468	0.909022	0.386862	-5.25	-0.91	2.45	-0.1457	-0.3156	-0.3241	
0.195078	0.905484	0.392596	-5.11	-0.56	2.24	-0.1389	-0.3064	-0.3179	
0.199348	0.89975	0.396744	-4.27	-0.42	1.47	-0.143	-0.3049	-0.3287	
0.198982	0.896334	0.397842	-3.43	-0.84	0.91	-0.1459	-0.2971	-0.327	
0.199836	0.899506	0.396622	-2.45	-0.77	0.42	-0.1431	-0.3078	-0.3163	
0.201788	0.896212	0.396378	-2.31	-0.7	0.49	-0.1431	-0.3032	-0.3193	
0.196542	0.905362	0.396744	-1.89	-0.7	0.7	-0.1446	-0.3047	-0.3162	
0.199226	0.906338	0.394548	-2.31	-0.63	0.91	-0.1416	-0.3095	-0.3241	
0.205936	0.895846	0.396378	-2.24	-0.21	0.28	-0.1402	-0.3064	-0.3257	
0.195444	0.90097	0.40016	-1.68	-0.14	0.14	-0.1473	-0.3032	-0.3208	
0.19764	0.897798	0.404308	-1.54	0.07	-0.56	-0.1444	-0.311	-0.3225	
0.20069	0.893284	0.405772	-1.75	0.35	-0.7	-0.1444	-0.311	-0.3241	
0.206668	0.880962	0.406138	-1.68	0.21	-0.35	-0.1528	-0.3017	-0.3316	
0.208254	0.882426	0.40748	-1.05	-0.07	0.28	-0.1445	-0.2971	-0.3239	
0.202154	0.893162	0.404552	-0.14	0	0.84	-0.1543	-0.3047	-0.3239	
0.196298	0.903776	0.402966	0.42	0.35	0.28	-0.146	-0.297	-0.3208	
0.1952	0.90402	0.402356	0	0.42	-0.35	-0.143	-0.3079	-0.3225	
0.20374	0.895236	0.400282	-0.56	0.35	-0.42	-0.1487	-0.3033	-0.3255	
0.203252	0.891698	0.396256	-0.77	0.07	-0.07	-0.143	-0.3003	-0.3286	
0.192516	0.899994	0.395524	-0.56	0.42	1.05	-0.1474	-0.3032	-0.3162	
0.19459	0.900482	0.396256	-0.35	0.49	0.77	-0.143	-0.3094	-0.3194	
0.197762	0.89792	0.394426	-0.35	0.35	0.21	-0.1473	-0.3048	-0.3209	
0.199104	0.899872	0.393328	-0.07	-0.42	0.21	-0.1528	-0.3094	-0.3286	
0.190808	0.914512	0.389546	-0.42	-0.21	0.35	-0.1459	-0.3017	-0.3224	
0.187392	0.917562	0.38857	-0.84	0.49	0.98	-0.1416	-0.3064	-0.3241	
0.191662	0.90768	0.381616	-1.75	-0.35	1.54	-0.143	-0.3018	-0.3271	
0.189222	0.913902	0.365024	-3.78	-0.7	2.8	-0.1415	-0.3096	-0.3303	
0.186294	0.911218	0.359534	-5.88	-0.07	4.2	-0.1529	-0.2986	-0.3269	
0.178974	0.92293	0.360022	-8.12	0.63	4.2	-0.1472	-0.3033	-0.3302	
0.178608	0.923296	0.360266	-10.85	2.17	4.55	-0.1402	-0.3003	-0.3271	
0.181048	0.923906	0.349896	-13.65	1.61	4.69	-0.1403	-0.2971	-0.324	
0.17141	0.922442	0.357948	-18.9	3.15	5.39	-0.1486	-0.2972	-0.3347	
0.168726	0.91134	0.346724	-25.34	4.13	7.21	-0.1458	-0.2926	-0.3378	
0.174704	0.928786	0.351116	-31.15	4.48	11.34	-0.1375	-0.2818	-0.33	
0.177022	0.945622	0.365512	-38.01	4.97	16.03	-0.1472	-0.2819	-0.3439	
0.205204	0.912804	0.408822	-46.48	8.54	23.1	-0.1515	-0.2756	-0.3422	
0.212646	0.8967	0.423706	-49.28	10.22	25.9	-0.157	-0.2849	-0.3453	
0.207888	0.901458	0.433222	-48.79	11.06	27.02	-0.1502	-0.2617	-0.3436	
0.196664	0.911706	0.441152	-53.55	7.77	27.79	-0.1544	-0.2541	-0.3527	
0.204472	0.873032	0.462868	-57.89	2.03	29.68	-0.1502	-0.2434	-0.3604	
0.225578	0.844606	0.485316	-55.02	2.87	28.84	-0.1489	-0.2325	-0.3572	
0.252906	0.840336	0.498248	-52.36	1.75	29.61	-0.156	-0.2263	-0.357	
0.254858	0.828624	0.490074	-53.13	-1.12	29.75	-0.1642	-0.2202	-0.377	
0.238388	0.8113	0.501786	-49.56	4.34	23.87	-0.1531	-0.2203	-0.371	
0.21594	0.797026	0.509472	-50.61	-0.98	25.55	-0.1559	-0.2018	-0.3816	
0.2318	0.77653	0.521306	-49	-0.63	22.05	-0.1532	-0.191	-0.3799	
0.235826	0.745786	0.533628	-49.42	-0.35	20.86	-0.1701	-0.1909	-0.3843	
0.249002	0.740052	0.560224	-48.72	-1.05	20.72	-0.1618	-0.174	-0.3827	
0.266814	0.735294	0.585234	-49.56	-2.8	22.12	-0.1618	-0.1602	-0.3949	
0.272426	0.735294	0.597434	-50.68	-4.62	23.66	-0.1661	-0.154	-0.3948	
0.280722	0.703696	0.616588	-50.05	-5.25	21.28	-0.162	-0.1416	-0.3947	
0.29219	0.684176	0.618296	-48.23	-5.95	19.46	-0.179	-0.1306	-0.3958	
0.297436	0.668438	0.62525	-47.88	-7.98	17.5	-0.1691	-0.1246	-0.399	
0.309514	0.644892	0.645136	-47.81	-8.19	16.45	-0.1749	-0.1167	-0.3926	
0.338916	0.61671	0.665876	-48.23	-7.07	17.01	-0.1749	-0.1091	-0.4034	
0.341356	0.611952	0.65941	-49	-5.81	18.13	-0.1863	-0.1012	-0.4	
0.325252	0.591334	0.660386	-49.91	-3.92	17.78	-0.1735	-0.0999	-0.4033	
0.317444	0.590724	0.669658	-49.07	-5.32	18.13	-0.1808	-0.0797	-0.4029	
0.310368	0.570228	0.676246	-50.47	-7.14	19.11	-0.178	-0.0659	-0.409	
0.332328	0.54595	0.706258	-52.22	-7.7	19.74	-0.1893	-0.0719	-0.4042	
0.355996	0.523258	0.71858	-52.78	-9.1	20.86	-0.1853	-0.0595	-0.3979	
0.369904	0.51606	0.722606	-53.34	-9.1	21.63	-0.1852	-0.0626	-0.4026	
0.358436	0.499712	0.727608	-54.46	-8.82	22.12	-0.1798	-0.0441	-0.3978	
0.349164	0.461404	0.724436	-55.23	-9.03	22.82	-0.1925	-0.0332	-0.4052	
0.364292	0.41785	0.740174	-56.84	-8.4	23.45	-0.1913	-0.0177	-0.4035	
0.384056	0.385398	0.77409	-57.12	-8.68	23.87	-0.1843	-0.0039	-0.4065	
0.396378	0.346602	0.799222	-54.95	-9.59	25.83	-0.1971	-0.0052	-0.397	
0.39772	0.325862	0.805932	-53.9	-9.87	26.74	-0.1957	0.0023	-0.4032	
0.416508	0.299876	0.82838	-54.39	-8.96	26.88	-0.2002	0.0148	-0.3967	
0.435418	0.27023	0.826672	-53.9	-9.66	27.09	-0.1932	0.0179	-0.3921	
0.438346	0.244488	0.842044	-52.22	-8.61	27.16	-0.1892	0.0395	-0.395	
0.433588	0.228018	0.85278	-48.79	-8.26	26.53	-0.1936	0.0458	-0.3855	
0.431758	0.2135	0.865224	-47.25	-8.54	25.48	-0.1979	0.0552	-0.3869	
0.454694	0.17873	0.893772	-45.36	-10.99	24.99	-0.2022	0.063	-0.3852	
0.47153	0.144936	0.89609	-42.63	-14.35	25.55	-0.2051	0.063	-0.3836	
0.497882	0.128222	0.897188	-38.22	-13.79	23.8	-0.2039	0.0801	-0.3787	
0.484828	0.114192	0.878034	-33.81	-9.94	21.7	-0.2054	0.0847	-0.3771	
0.48373	0.102358	0.87718	-30.87	-8.47	19.6	-0.2082	0.0894	-0.3785	
0.492026	0.111142	0.898896	-28.91	-9.8	17.64	-0.2011	0.08769999	-0.3818	
0.500566	0.099186	0.883768	-27.65	-9.31	16.8	-0.2098	0.1049	-0.3767	
0.496784	0.077226	0.888892	-25.48	-6.58	13.58	-0.2028	0.114	-0.3814	
0.511668	0.076128	0.897554	-20.65	-3.78	9.1	-0.2086	0.1234	-0.3781	
0.506544	0.08113	0.886452	-20.23	-3.15	9.45	-0.1974	0.1249	-0.3704	
0.494588	0.058194	0.87962	-20.23	-4.2	9.73	-0.203	0.1234	-0.3735	
0.505202	0.05551	0.889136	-17.5	-4.48	7.91	-0.1875	0.1294	-0.3783	
0.525698	0.060878	0.886696	-15.05	-2.94	6.02	-0.196	0.1264	-0.3751	
0.496662	0.068198	0.874618	-14.98	-1.12	6.02	-0.1992	0.1406	-0.3609	
0.483486	0.052338	0.87047	-14.91	-1.82	5.18	-0.2032	0.1312	-0.3672	
0.497882	0.043798	0.86864	-12.39	-2.52	3.92	-0.2131	0.136	-0.3654	
0.503738	0.06588	0.866322	-11.06	-1.68	3.71	-0.2019	0.139	-0.3655	
0.490684	0.061366	0.85217	-11.97	-1.4	4.2	-0.1977	0.1436	-0.3671	
0.485072	0.058804	0.84851	-11.62	-1.82	4.55	-0.2034	0.1452	-0.3639	
0.490196	0.072712	0.851804	-11.13	-3.29	5.39	-0.2118	0.1422	-0.3607	
0.506056	0.076616	0.869128	-10.85	-3.36	5.67	-0.209	0.1437	-0.3669	
0.513986	0.091378	0.866566	-9.8	-3.15	6.23	-0.2036	0.1439	-0.3483	
0.511058	0.085644	0.870714	-10.5	-2.73	5.74	-0.2022	0.1453	-0.3514	
0.511546	0.058072	0.868152	-9.87	-2.38	4.97	-0.2091	0.1515	-0.3621	
0.507398	0.07259	0.876814	-5.11	-1.12	2.45	-0.2051	0.1516	-0.3482	
0.51118	0.0732	0.86498	-3.71	-0.49	1.68	-0.2107	0.1593	-0.3542	
0.503982	0.086742	0.867786	-2.31	-0.35	1.33	-0.1993	0.1514	-0.3592	
0.505934	0.092354	0.859978	-1.12	-1.26	0.77	-0.2008	0.1546	-0.3513	
0.508862	0.082716	0.847534	-0.77	-1.12	-0.28	-0.2036	0.1577	-0.3544	
0.508252	0.091134	0.83997	-0.21	-0.56	-0.42	-0.2091	0.1469	-0.3591	
0.509472	0.103578	0.835944	-0.56	-0.35	0.35	-0.2091	0.1484	-0.3606	
0.506666	0.091134	0.841922	-1.05	0.07	0.49	-0.2078	0.1546	-0.359	
0.503982	0.088816	0.848998	0.21	-0.14	0.49	-0.2036	0.1484	-0.3545	
0.5124	0.09577	0.855464	1.33	-0.07	0.28	-0.2035	0.1545	-0.3591	
0.504958	0.10492	0.849242	1.19	0.42	-0.21	-0.212	0.1592	-0.3635	
0.504958	0.091134	0.854366	0.7	0.84	-0.91	-0.2134	0.1516	-0.3558	
0.5002	0.087352	0.853878	1.4	0.98	-1.54	-0.1978	0.1498	-0.3655	
0.500078	0.091256	0.854976	2.17	0.7	-2.17	-0.2035	0.1499	-0.3622	
0.49166	0.088084	0.845094	2.17	0.63	-1.96	-0.1993	0.1545	-0.3623	
0.488854	0.084058	0.836432	2.24	0.49	-1.82	-0.2049	0.1514	-0.3622	
0.488244	0.081496	0.840824	2.52	0.07	-1.68	-0.1979	0.1545	-0.3576	
0.49898	0.079178	0.855586	3.01	-0.21	-1.68	-0.2092	0.1469	-0.3544	
0.503616	0.081008	0.855708	3.43	-0.35	-1.26	-0.2077	0.1576	-0.3683	
0.5063	0.08113	0.86376	3.71	-0.14	-0.84	-0.209	0.1406	-0.3623	
0.509594	0.07808	0.870714	4.13	-0.28	-0.56	-0.2049	0.1499	-0.3591	
0.51667	0.072468	0.887428	4.76	-0.49	-0.91	-0.202	0.1468	-0.3608	
0.53131	0.066612	0.901702	6.44	-0.07	-2.1	-0.2035	0.1422	-0.3546	
0.540338	0.050874	0.919026	7.98	0.28	-3.85	-0.2022	0.1515	-0.3529	
0.534726	0.044652	0.92354	10.64	0.56	-4.9	-0.1994	0.1561	-0.3576	
0.533506	0.033916	0.915	13.37	1.19	-6.3	-0.2119	0.1438	-0.3575	
0.521794	0.029524	0.911584	17.01	2.03	-8.54	-0.209	0.1468	-0.3638	
0.531432	0.017446	0.901824	19.88	1.89	-10.5	-0.2062	0.1376	-0.3577	
0.5185	0.02562	0.895846	22.61	1.96	-12.04	-0.209	0.1453	-0.3622	
0.512644	0.030012	0.900848	26.04	2.31	-14	-0.2047	0.1313	-0.3625	
0.528382	0.038186	0.906094	29.47	2.45	-16.24	-0.1987	0.1126	-0.3721	
0.548878	0.03477	0.919026	32.9	3.85	-18.76	-0.2045	0.1235	-0.3719	
0.53131	0.036722	0.906948	38.43	4.69	-21.28	-0.2099	0.108	-0.3751	
0.501176	0.05551	0.891332	43.26	4.55	-23.52	-0.2028	0.09869999	-0.3723	
0.495686	0.073566	0.882426	46.97	5.11	-26.46	-0.2099	0.1003	-0.3706	
0.518012	0.093086	0.883768	50.54	6.23	-28.49	-0.2137	0.0863	-0.3847	
0.520086	0.120048	0.898652	53.55	7.98	-30.38	-0.2083	0.0848	-0.3723	
0.522038	0.145912	0.911218	57.47	7.63	-31.08	-0.208	0.0677	-0.3819	
0.524966	0.181658	0.902312	61.11	9.24	-32.55	-0.2078	0.0599	-0.3882	
0.493978	0.206302	0.84119	64.4	10.71	-34.93	-0.2063	0.0537	-0.3868	
0.468602	0.212158	0.817156	67.34	12.81	-37.45	-0.2117	0.0459	-0.3977	
0.452864	0.250588	0.813862	72.1	11.76	-37.8	-0.2131	0.0244	-0.3839	
0.431026	0.28487	0.784338	76.02	10.78	-37.38	-0.1931	0.0163	-0.3968	
0.436272	0.319762	0.755912	77.35	10.99	-37.52	-0.2127	-0.0019	-0.3936	
0.424682	0.343674	0.712114	79.17	12.67	-38.71	-0.1971	-0.0083	-0.3971	
0.385154	0.392108	0.709308	80.57	14.49	-39.62	-0.2054	-0.0237	-0.3971	
0.344406	0.452132	0.682468	81.48	11.06	-37.66	-0.194	-0.0454	-0.3929	
0.339648	0.491904	0.651846	78.96	8.89	-34.23	-0.1923	-0.0686	-0.3964	
0.350994	0.518134	0.643306	77.84	9.45	-32.34	-0.1879	-0.0856	-0.392	
0.369416	0.54595	0.62708	77.7	10.99	-30.59	-0.1906	-0.0919	-0.3998	
0.351604	0.582428	0.600972	75.81	13.23	-29.47	-0.1919	-0.1134	-0.3923	
0.30073	0.609146	0.573522	75.6	12.74	-28.84	-0.1861	-0.1259	-0.391	
0.25376	0.653676	0.560834	74.34	9.31	-25.76	-0.1777	-0.1306	-0.3896	
0.248758	0.695522	0.570838	71.89	6.65	-23.38	-0.176	-0.1522	-0.3899	
0.27206	0.722484	0.567544	70.7	5.53	-22.75	-0.1803	-0.1583	-0.3822	
0.297314	0.742248	0.538752	68.39	5.11	-24.08	-0.1745	-0.1646	-0.387	
0.283162	0.75335	0.49959	64.05	7.28	-24.99	-0.1815	-0.1845	-0.3778	
0.246562	0.76494	0.457378	60.62	7	-24.64	-0.1702	-0.1939	-0.375	
0.208864	0.796172	0.451034	57.75	5.53	-22.47	-0.1731	-0.1922	-0.3703	
0.210572	0.82167	0.48068	56.14	3.71	-19.74	-0.1701	-0.2093	-0.369	
0.243878	0.855464	0.477874	55.79	1.19	-18.06	-0.1702	-0.2199	-0.3583	
0.253272	0.875228	0.463478	51.66	2.17	-19.6	-0.1686	-0.2216	-0.3692	
0.215208	0.873642	0.44591	48.72	4.76	-23.59	-0.1645	-0.2338	-0.3508	
0.203008	0.859856	0.45689	46.76	6.3	-26.6	-0.1628	-0.2571	-0.3526	
0.19337	0.848632	0.431636	46.13	0.28	-26.53	-0.1573	-0.2478	-0.3526	
0.205814	0.846314	0.431514	47.18	-1.4	-25.13	-0.1486	-0.265	-0.3561	
0.233142	0.859124	0.434686	50.54	-1.68	-24.29	-0.1529	-0.2664	-0.3483	
0.240096	0.878034	0.41602	54.11	-0.28	-24.64	-0.1486	-0.2757	-0.3469	
0.215574	0.898896	0.393206	56.42	3.5	-26.18	-0.1444	-0.288	-0.3362	
0.206302	0.885842	0.359534	53.34	7.21	-27.23	-0.1444	-0.288	-0.3362	
0.166774	0.87718	0.344772	53.27	9.66	-26.95	-0.1388	-0.3003	-0.3303	
0.152744	0.909144	0.326594	55.86	10.01	-26.39	-0.1415	-0.3095	-0.3257	
0.15799	0.923906	0.317444	56.14	10.08	-24.36	-0.1403	-0.3171	-0.3102	
0.147254	0.892674	0.298534	48.72	14.7	-23.38	-0.1344	-0.3388	-0.3106	
0.141642	0.892796	0.29158	50.47	16.38	-23.59	-0.1261	-0.325	-0.3121	
0.149206	0.91012	0.27877	49.84	19.11	-24.08	-0.1177	-0.3389	-0.3016	
0.145912	0.928542	0.276696	50.4	18.27	-23.17	-0.1177	-0.3389	-0.3016	
0.138104	0.966362	0.266936	47.04	21.21	-22.61	-0.1175	-0.362	-0.2941	
0.110898	0.970876	0.25071	47.6	21.7	-20.37	-0.1106	-0.365	-0.2865	
0.1159	0.981856	0.230092	48.09	19.67	-20.09	-0.0909	-0.3714	-0.2806	
0.09638	0.991372	0.23119	42.42	21.42	-20.3	-0.1006	-0.3775	-0.2837	
0.07905599	0.974292	0.223138	39.55	20.51	-20.02	-0.0951	-0.3744	-0.2775	
0.059658	0.952942	0.214476	38.5	17.85	-19.6	-0.0923	-0.3867	-0.2684	
0.058194	0.94489	0.192638	41.86	14.28	-18.55	-0.088	-0.3868	-0.2762	
0.080642	0.974048	0.176168	43.82	11.2	-16.8	-0.08109999	-0.3867	-0.2608	
0.086254	0.980026	0.15006	46.41	10.29	-14.42	-0.0797	-0.3974	-0.2547	
0.084302	0.990274	0.127002	50.61	10.43	-14.84	-0.0741	-0.4005	-0.2486	
0.057706	0.985272	0.108824	54.18	12.04	-15.96	-0.0783	-0.4112	-0.244	
0.066368	0.981734	0.080398	54.81	15.33	-17.43	-0.0699	-0.4067	-0.2457	
0.103822	0.972218	0.050752	52.78	19.18	-18.48	-0.0673	-0.4112	-0.2287	
0.0793	0.959896	0.006222	56.7	26.25	-16.03	-0.063	-0.4205	-0.2257	
0.08174	0.962702	-0.035624	62.44	17.43	-19.18	-0.0546	-0.4312	-0.2136	
0.046116	1.00833	-0.0671	68.18	28.28	-17.78	-0.0518	-0.4359	-0.2121	
-0.011956	1.020408	-0.09882	69.09	30.94	-18.62	-0.0435	-0.4358	-0.1998	
-0.044042	1.035658	-0.088694	68.81	32.9	-21.14	-0.0476	-0.4497	-0.1999	
-0.10187	1.035292	-0.127734	62.51	32.55	-22.82	-0.0367	-0.4449	-0.1798	
-0.138958	1.03456	-0.146644	58.03	26.04	-22.4	-0.0241	-0.4542	-0.1677	
-0.105286	1.066768	-0.155306	51.8	20.02	-20.79	-0.0326	-0.4647	-0.1553	
-0.068808	1.082506	-0.15433	42.84	13.65	-17.22	-0.027	-0.4663	-0.1507	
-0.063318	1.083604	-0.163968	36.33	6.44	-14.84	-0.0129	-0.4725	-0.1448	
-0.058682	1.068964	-0.1769	30.03	4.2	-12.04	-0.0173	-0.4724	-0.1354	
-0.034038	1.056642	-0.18239	22.12	3.43	-12.11	-0.0172	-0.4709	-0.1432	
-0.03233	1.04188	-0.162626	15.26	6.23	-11.34	-0.0075	-0.4678	-0.134	
-0.057096	1.023458	-0.1586	15.47	2.45	-10.08	-0.0033	-0.4679	-0.1356	
-0.068442	1.01992	-0.167506	13.23	1.33	-7.14	-0.0119	-0.4661	-0.1245	
-0.048678	1.014674	-0.169214	12.53	-2.87	-3.64	-0.0158	-0.4786	-0.1355	
-0.031232	1.022604	-0.176168	9.73	-1.61	-1.12	-0.0007	-0.4631	-0.1231	
-0.02318	1.03517	-0.185684	10.78	0.28	-0.56	-0.0146	-0.4707	-0.1261	
-0.035502	1.026752	-0.192516	7.84	3.99	-1.19	-0.0118	-0.4754	-0.1262	
-0.055022	1.017358	-0.199104	9.17	2.45	-1.96	-0.0034	-0.4816	-0.1171	
-0.070638	1.02236	-0.203252	9.45	3.71	-1.82	0.0006	-0.4723	-0.1155	
-0.07625	0.99186	-0.207644	9.38	2.52	-2.31	-0.0075	-0.4801	-0.1248	
-0.061122	0.999912	-0.21106	8.96	2.31	-2.38	-0.0021	-0.4738	-0.1155	
-0.045872	1.030656	-0.222528	9.8	1.19	-2.17	-0.0048	-0.4723	-0.1216	
-0.050752	1.036146	-0.211792	9.52	2.73	-1.19	-0.0076	-0.4723	-0.1231	
-0.043432	1.029192	-0.192028	7.49	3.08	-1.12	-0.0106	-0.4783	-0.1107	
-0.0427	1.024312	-0.189954	5.74	3.71	-2.17	-0.005	-0.4799	-0.1077	
-0.062952	1.005036	-0.170068	6.16	3.08	-1.89	-0.0105	-0.4707	-0.1215	
-0.049898	0.975268	-0.16287	7.56	3.01	-1.33	0.0005	-0.4815	-0.1047	
-0.02135	0.973316	-0.165554	10.5	3.43	-1.75	-0.0021	-0.4769	-0.114	
-0.006222	0.9821	-0.163358	11.34	6.16	-1.12	-0.0022	-0.4768	-0.1093	
-0.030866	0.974048	-0.182268	12.32	7.28	-2.03	0.002	-0.48	-0.1094	
-0.055876	1.00345	-0.199592	12.04	7.63	-1.96	-0.0037	-0.4783	-0.09999999	
-0.063806	1.028582	-0.207766	10.78	8.05	-2.66	-0.0063	-0.483	-0.1109	
-0.062098	1.017602	-0.197518	9.31	7.35	-2.38	0.002	-0.483	-0.1048	
-0.072712	1.0248	-0.20374	7.28	5.6	-1.75	0.0005	-0.486	-0.0986	
-0.082594	1.011258	-0.195566	4.97	3.64	-0.63	-0.005	-0.4814	-0.1062	
-0.051972	0.991006	-0.192028	3.29	1.47	-0.77	-0.0036	-0.4752	-0.1061	
-0.05795	0.982954	-0.208498	3.99	-0.14	-0.91	-0.0037	-0.4798	-0.0984	
-0.059902	0.995032	-0.201178	4.41	-0.56	-0.49	-0.0051	-0.4844	-0.0953	
-0.06344	0.999424	-0.215818	4.69	0.07	-0.21	0.0144	-0.4814	-0.0894	
-0.056486	0.995642	-0.22448	4.34	-0.21	-0.63	0.0006	-0.4892	-0.1017	
-0.060512	0.993812	-0.2135	4.55	-0.84	-0.84	0.0074	-0.4845	-0.0924	
-0.058194	0.99979	-0.219966	4.13	0.07	-0.42	0.0046	-0.4844	-0.09079999	
-0.049044	0.97905	-0.229848	4.2	0.21	-0.21	0.0018	-0.4752	-0.1016	
-0.045384	0.987346	-0.228018	4.55	-0.49	-0.42	-0.0024	-0.4766	-0.0891	
-0.06039	1.004182	-0.214476	4.83	1.96	0.98	0.0031	-0.4797	-0.0892	
-0.057828	0.978074	-0.209596	5.81	1.89	0.84	0.0017	-0.4751	-0.0907	
-0.044042	0.949648	-0.220332	6.44	1.4	-0.28	0.0018	-0.4813	-0.0939	
-0.035014	0.97844	-0.253272	5.81	2.45	-0.49	0.0003	-0.4843	-0.0861	
-0.055144	1.018944	-0.246196	6.51	3.22	1.33	-0.0009	-0.4906	-0.0924	
-0.066368	0.985638	-0.241682	7.35	2.66	2.59	0.0031	-0.472	-0.0907	
-0.047092	0.994544	-0.250466	6.23	2.03	0.56	0.0073	-0.4844	-0.0862	
-0.03904	1.014918	-0.259982	4.48	3.01	0.07	0.003	-0.4812	-0.083	
-0.06283	0.98942	-0.254492	4.83	2.52	0.63	-0.0052	-0.4874	-0.0892	
-0.066246	0.962336	-0.253394	4.97	0.49	1.05	0.0016	-0.4812	-0.0814	
-0.051362	0.984906	-0.254614	5.04	0	0.98	-0.0012	-0.4703	-0.0797	
-0.044286	1.00833	-0.266326	4.97	0.07	1.26	0.0059	-0.4844	-0.0846	
-0.05978	1.00833	-0.268644	4.13	0.07	0.56	-0.0012	-0.4795	-0.0736	
-0.068564	1.00711	-0.26352	4.27	-0.91	0.35	0.0001	-0.4749	-0.0782	
-0.052948	1.007476	-0.267424	3.22	-0.77	0.14	0.0018	-0.4921	-0.0862	
-0.043798	0.98698	-0.268888	2.8	-0.91	0.14	0.0004	-0.4828	-0.0923	
-0.040504	0.989908	-0.257786	2.66	-1.33	0.14	0.0002	-0.4857	-0.0768	
-0.056364	0.992592	-0.25681	1.96	-1.33	0.7	-0.0068	-0.4886	-0.0689	
-0.05185	0.983808	-0.262666	1.4	-1.05	0.42	0.0072	-0.4889	-0.07539999	
-0.03721	0.983442	-0.263886	0.7	-1.68	0.56	-0.0011	-0.4796	-0.07979999	
-0.047946	0.994178	-0.273524	-0.14	-0.35	1.4	0.0016	-0.4934	-0.0722	
-0.056242	1.013942	-0.27084	-0.7	0	2.03	-0.0065	-0.4889	-0.0892	
-0.048068	0.996252	-0.270962	-0.63	-0.84	2.03	-0.0009999999	-0.492	-0.0831	
-0.040626	0.975878	-0.267668	-1.47	-0.07	1.54	0.003	-0.4858	-0.0784	
-0.045994	0.983442	-0.27267	-1.12	0.28	2.45	0.0002	-0.4858	-0.0783	
-0.049898	1.001376	-0.272304	-1.82	0.98	2.87	-0.0068	-0.4795	-0.0766	
-0.049654	0.991006	-0.263154	-1.89	0.7	2.87	-0.0051	-0.4889	-0.0892	
-0.04148	0.978074	-0.261446	-2.03	-0.21	2.45	0.0058	-0.4796	-0.0784	
-0.045628	0.986492	-0.265716	-2.87	0.56	2.59	-0.0069	-0.4717	-0.0749	
-0.04819	0.999058	-0.269376	-2.59	0.49	3.08	-0.0026	-0.4857	-0.0736	
-0.050874	0.999058	-0.26535	-3.01	0.7	3.64	-0.0012	-0.4765	-0.07979999	
-0.044896	0.991616	-0.259494	-4.2	0.7	2.87	-0.0025	-0.4842	-0.07979999	
-0.052216	0.995154	-0.246196	-4.48	0.7	2.73	-0.007999999	-0.4904	-0.086	
-0.055022	0.998692	-0.253028	-3.85	0.49	3.08	-0.0067	-0.4827	-0.086	
-0.032818	0.983564	-0.257664	-4.41	0.21	3.01	-0.0052	-0.4827	-0.086	
-0.027572	0.98515	-0.256078	-4.41	-0.28	3.08	-0.0136	-0.4796	-0.0951	
-0.05917	1.004792	-0.259738	-5.11	-0.7	3.15	-0.0025	-0.4827	-0.0845	
-0.048678	1.004182	-0.255346	-7.21	-1.12	3.64	-0.0011	-0.4812	-0.0829	
-0.028914	0.998082	-0.247904	-8.61	-1.4	4.27	-0.0109	-0.475	-0.092	
-0.028182	1.00345	-0.250588	-8.96	-1.96	3.99	-0.0094	-0.4873	-0.0891	
-0.032818	1.020896	-0.256444	-11.27	-1.33	3.64	-0.0094	-0.4765	-0.09209999	
-0.038918	1.037732	-0.24888	-13.23	-1.75	4.97	-0.0052	-0.4827	-0.0891	
-0.04514	1.03639	-0.240706	-14.21	-3.99	4.83	-0.007999999	-0.4812	-0.09209999	
-0.047092	1.031022	-0.231922	-15.89	-6.44	4.06	-0.0094	-0.4782	-0.0967	
-0.051362	1.02846	-0.233996	-18.27	-7.49	3.64	-0.0066	-0.4705	-0.0998	
-0.056974	1.009672	-0.211548	-21	-7.7	3.36	-0.0094	-0.4782	-0.0967	
-0.045506	1.008452	-0.207278	-23.1	-10.08	3.99	-0.0092	-0.4798	-0.1077	
-0.055632	1.005036	-0.205692	-25.27	-14.63	1.05	-0.0148	-0.4752	-0.1137	
-0.057096	1.036878	-0.20496	-28.91	-16.31	-0.14	-0.0149	-0.4659	-0.1089	
-0.01098	1.05103	-0.167384	-30.45	-16.38	3.71	-0.0133	-0.4753	-0.1153	
-0.00488	1.037244	-0.176046	-31.64	-16.24	5.88	-0.0118	-0.4846	-0.1201	
-0.017202	1.024312	-0.163358	-35.63	-19.18	9.73	-0.0174	-0.4738	-0.1292	
0.03233	1.039806	-0.17385	-41.44	-18.34	15.61	-0.0341	-0.4738	-0.1414	
0.031354	1.027118	-0.127246	-46.9	-11.9	20.79	-0.034	-0.4647	-0.1522	
-0.00305	0.999912	-0.135176	-48.23	-12.39	21.7	-0.0325	-0.4678	-0.1569	
-0.00915	1.033096	-0.130296	-51.24	-11.97	21.77	-0.0355	-0.4508	-0.1597	
-0.038308	1.098244	-0.134566	-48.79	-11.55	22.4	-0.0438	-0.4508	-0.1674	
-0.028182	1.107516	-0.131638	-51.24	-8.4	29.82	-0.0407	-0.4588	-0.1831	
0.001708	0.98454	-0.088816	-59.01	-6.86	24.71	-0.0535	-0.4509	-0.1828	
0.07259	0.949404	-0.074054	-64.47	-8.89	18.34	-0.0592	-0.4385	-0.1841	
0.059902	1.000522	-0.05795	-66.43	-12.04	21	-0.052	-0.4403	-0.1951	
-0.0244	1.077626	-0.027816	-65.38	-9.24	29.82	-0.0562	-0.4264	-0.2042	
-0.043676	1.088118	-0.07076	-67.9	-11.41	32.62	-0.0647	-0.4186	-0.2039	
-0.005978	1.019798	-0.0183	-73.5	-11.2	30.31	-0.0812	-0.4188	-0.2317	
0.048434	0.99613	-0.009393999	-79.17	-16.38	28.21	-0.0728	-0.4158	-0.2302	
0.019154	1.01321	0.042456	-81.06	-18.34	27.86	-0.0869	-0.4034	-0.2438	
-0.007929999	1.072136	0.042334	-85.4	-20.02	31.22	-0.0969	-0.3863	-0.245	
0.070638	0.986004	0.112972	-95.34	-19.04	34.51	-0.0924	-0.3896	-0.2591	
0.191784	0.916342	0.179462	-98.42	-21.42	36.82	-0.0964	-0.3791	-0.2822	
0.215696	0.925004	0.206912	-91.56	-24.43	38.36	-0.1035	-0.359	-0.2927	
0.141886	1.000644	0.222772	-91.07	-20.79	37.59	-0.1175	-0.3497	-0.3033	
0.092598	0.985394	0.196786	-91.91	-17.43	32.69	-0.1217	-0.3389	-0.3108	
0.156892	0.866078	0.250344	-94.85	-18.34	31.71	-0.1261	-0.3265	-0.3106	
0.22021	0.7991	0.311832	-92.96	-17.64	29.26	-0.1387	-0.3111	-0.3273	
0.22753	0.848266	0.360144	-89.53	-15.19	35	-0.1317	-0.2974	-0.335	
0.225822	0.853024	0.392474	-77.14	-3.08	40.95	-0.1443	-0.2881	-0.3425	
0.218868	0.859612	0.369782	-76.02	-14.49	31.36	-0.1387	-0.2758	-0.3486	
0.246928	0.827526	0.374174	-80.15	-11.34	35.84	-0.1472	-0.2665	-0.353	
0.283162	0.799222	0.446276	-76.23	-9.87	32.06	-0.15	-0.2558	-0.3637	
0.2684	0.791414	0.475556	-74.34	-11.9	31.78	-0.1474	-0.2373	-0.3635	
0.253638	0.805322	0.503616	-69.16	-11.13	32.55	-0.1501	-0.2373	-0.3697	
0.302438	0.798856	0.491294	-68.25	-6.86	28.7	-0.1503	-0.2188	-0.3694	
0.281576	0.747616	0.499346	-70.07	-3.99	27.3	-0.1643	-0.2156	-0.377	
0.284626	0.707478	0.537898	-62.79	-4.62	24.57	-0.1646	-0.1862	-0.3781	
0.292922	0.705892	0.584258	-58.94	-4.76	24.43	-0.1673	-0.1832	-0.3874	
0.320494	0.693326	0.59414	-55.02	-5.11	23.73	-0.1745	-0.1693	-0.3886	
0.355752	0.70699	0.569862	-53.27	-2.45	21.7	-0.1689	-0.1539	-0.3947	
0.311344	0.697962	0.571204	-54.46	0.63	20.65	-0.1675	-0.154	-0.3963	
0.306952	0.65941	0.599264	-53.76	-0.42	19.53	-0.1717	-0.1493	-0.4009	
0.30317	0.64294	0.610366	-53.13	-3.01	21	-0.1692	-0.1292	-0.3929	
0.309514	0.642086	0.62769	-54.18	-5.32	22.26	-0.1789	-0.1261	-0.4051	
0.297924	0.61427	0.639036	-57.05	-3.92	22.12	-0.1805	-0.1182	-0.3956	
0.310246	0.589748	0.65514	-57.33	-5.39	21.42	-0.1806	-0.1013	-0.3985	
0.335866	0.562542	0.669658	-57.12	-6.16	20.72	-0.1777	-0.1014	-0.4095	
0.336476	0.554246	0.669048	-56.56	-7.35	21.63	-0.1822	-0.0889	-0.3999	
0.338672	0.520086	0.68198	-58.87	-8.82	22.61	-0.1893	-0.0826	-0.395	
0.344406	0.482754	0.697108	-60.55	-11.06	24.5	-0.1866	-0.0657	-0.3995	
0.364414	0.460184	0.708332	-61.25	-13.37	26.11	-0.1869	-0.0486	-0.3931	
0.398452	0.428586	0.737368	-62.37	-12.74	28.56	-0.1967	-0.0377	-0.4021	
0.410164	0.376614	0.76555	-61.39	-13.44	29.4	-0.1897	-0.0317	-0.4053	
0.43737	0.357094	0.805688	-59.08	-13.44	30.24	-0.1954	-0.03	-0.402	
0.453352	0.322568	0.819108	-57.82	-12.11	30.38	-0.1956	-0.0161	-0.4003	
0.473482	0.278038	0.849608	-53.83	-10.43	28.84	-0.2042	-0.0051	-0.3922	
0.493734	0.265838	0.859978	-48.44	-10.15	28.14	-0.1972	0.0101	-0.4015	
0.499224	0.233142	0.863882	-44.94	-12.11	27.09	-0.1916	0.0147	-0.4015	
0.498004	0.217892	0.862418	-42.21	-10.57	26.6	-0.1988	0.021	-0.3982	
0.514596	0.215452	0.873032	-37.94	-8.61	24.08	-0.2048	0.0444	-0.3869	
0.518378	0.201666	0.878278	-35	-6.58	21.63	-0.2031	0.0395	-0.4041	
0.522526	0.186904	0.865834	-32.34	-4.34	19.74	-0.2061	0.0382	-0.3916	
0.522282	0.186782	0.878644	-28.35	-3.29	17.92	-0.2004	0.0411	-0.3964	
0.5246	0.163846	0.867176	-24.99	-3.01	16.17	-0.2021	0.0598	-0.393	
0.520574	0.16653	0.8662	-23.03	-1.26	13.72	-0.2035	0.0613	-0.3929	
0.52582	0.143594	0.85827	-23.59	-1.89	12.46	-0.2049	0.06439999	-0.3975	
0.517158	0.13725	0.859734	-20.58	-2.1	11.41	-0.2092	0.0584	-0.3867	
0.508496	0.130296	0.859612	-16.87	-0.07	8.54	-0.201	0.07229999	-0.382	
0.513864	0.145546	0.865834	-14.56	-0.63	7.49	-0.201	0.0738	-0.3819	
0.516914	0.15189	0.87352	-14.63	-0.91	6.79	-0.2011	0.0785	-0.3803	
0.51362	0.176656	0.869372	-12.74	0	4.9	-0.201	0.083	-0.3849	
0.507642	0.178852	0.860222	-12.04	-0.84	4.2	-0.2108	0.0831	-0.3879	
0.503006	0.17629	0.847656	-10.01	-2.31	3.64	-0.2039	0.08769999	-0.3848	
0.49349	0.188124	0.83631	-9.38	-3.57	4.13	-0.2025	0.0847	-0.3818	
0.498004	0.20191	0.831918	-7.21	-3.43	3.85	-0.2055	0.091	-0.3708	
0.502396	0.219966	0.8296	-7	-2.17	3.22	-0.2095	0.0801	-0.3833	
0.514352	0.21899	0.830332	-6.65	-1.4	2.24	-0.1997	0.08769999	-0.3864	
0.521794	0.21716	0.835456	-6.65	-0.7	1.61	-0.2027	0.0863	-0.3724	
0.521306	0.224114	0.836676	-6.93	-0.63	1.89	-0.2084	0.1018	-0.3752	
0.510326	0.2257	0.824598	-6.86	-0.42	2.1	-0.2025	0.0893	-0.3848	
0.497394	0.235948	0.820938	-6.44	0.42	1.75	-0.2026	0.094	-0.3785	
0.49227	0.231434	0.822768	-8.19	1.26	1.19	-0.1969	0.103	-0.3909	
0.482632	0.224602	0.829356	-7.49	0.14	1.4	-0.2069	0.0971	-0.3784	
0.476166	0.220088	0.824842	-7	-0.28	1.05	-0.2083	0.1002	-0.3784	
0.477752	0.21472	0.826916	-6.58	-0.49	0.77	-0.2055	0.1001	-0.3831	
0.480802	0.218624	0.834968	-6.65	-0.84	1.12	-0.2054	0.0985	-0.3862	
0.492636	0.204472	0.834236	-6.65	-1.26	0.84	-0.2084	0.1034	-0.3752	
0.48434	0.187026	0.833138	-5.67	-0.21	0.21	-0.1985	0.1047	-0.38	
0.480436	0.192394	0.830088	-4.27	0.21	0.14	-0.2097	0.1017	-0.3845	
0.478362	0.192516	0.834724	-4.55	0.21	-0.28	-0.2029	0.1126	-0.3752	
0.48251	0.182512	0.836066	-4.76	0.21	-0.28	-0.2071	0.1095	-0.3767	
0.484462	0.181658	0.831674	-4.55	0.28	-0.28	-0.2014	0.1094	-0.3815	
0.481778	0.178608	0.839848	-4.2	-0.07	-0.49	-0.207	0.0972	-0.3707	
0.489098	0.166042	0.839482	-3.5	-0.49	-0.42	-0.2098	0.1095	-0.3782	
0.494832	0.156526	0.836676	-3.08	-0.07	0	-0.2013	0.1001	-0.3785	
0.488976	0.168482	0.834724	-2.31	0.56	0.49	-0.2027	0.1048	-0.3815	
0.488854	0.180316	0.84668	-1.68	0.07	0.63	-0.207	0.0941	-0.3707	
0.493124	0.177632	0.84363	-1.26	-0.7	0.63	-0.2	0.1109	-0.3815	
0.498736	0.17629	0.837286	-0.77	-0.21	0.07	-0.2085	0.1034	-0.3721	
0.494344	0.179218	0.840824	-1.33	0.56	0.21	-0.2028	0.1094	-0.3814	
0.48983	0.177876	0.833748	-0.7	0.7	0.28	-0.2113	0.1065	-0.3736	
0.479094	0.178608	0.83631	-0.28	0.91	-0.21	-0.1959	0.1094	-0.3722	
0.486902	0.180316	0.841678	0.77	1.05	-0.77	-0.2001	0.1126	-0.3737	
0.490074	0.179218	0.843508	0.84	1.47	-0.91	-0.2111	0.1002	-0.3814	
0.48434	0.187148	0.840214	1.19	1.33	-1.12	-0.2098	0.111	-0.3813	
0.478972	0.18727	0.835334	1.89	0.56	-1.19	-0.2001	0.1049	-0.366	
0.477264	0.188978	0.832894	1.54	-0.14	-1.4	-0.1987	0.1125	-0.3752	
0.4819	0.182024	0.836554	1.4	-0.42	-1.61	-0.2041	0.1032	-0.3831	
0.486902	0.191296	0.831308	1.19	-0.28	-1.47	-0.1985	0.097	-0.3786	
0.485438	0.19093	0.83326	0.7	-0.14	-1.33	-0.1986	0.1109	-0.3799	
0.486292	0.188612	0.830088	0.91	0.07	-1.12	-0.2013	0.1093	-0.3846	
0.489098	0.18422	0.834968	1.82	0	-0.91	-0.1985	0.0971	-0.3755	
0.499346	0.18117	0.842288	2.59	0.07	-0.84	-0.1999	0.1001	-0.3801	
0.498736	0.18605	0.837164	2.94	0.28	-0.98	-0.2057	0.1126	-0.3736	
0.491172	0.186904	0.84607	2.94	0.35	-0.91	-0.2042	0.1033	-0.3753	
0.49349	0.185074	0.842654	3.85	-0.07	-0.7	-0.1984	0.1062	-0.3862	
0.493246	0.18666	0.844606	4.06	-0.14	-1.05	-0.2	0.1094	-0.3768	
0.497028	0.181536	0.85034	4.9	0.21	-1.33	-0.2068	0.1063	-0.3892	
0.50447	0.179218	0.85766	5.74	0.49	-2.17	-0.1971	0.1032	-0.3816	
0.506544	0.17507	0.863638	7	0.28	-3.01	-0.214	0.0942	-0.3706	
0.515572	0.167506	0.868396	7.98	0.42	-4.06	-0.1998	0.097	-0.3817	
0.512766	0.15555	0.86681	9.45	0.35	-4.62	-0.2097	0.1002	-0.3799	
0.51667	0.151036	0.867908	11.13	1.12	-5.32	-0.1987	0.1034	-0.366	
0.52277	0.149572	0.877668	12.81	2.24	-6.51	-0.2027	0.0971	-0.3769	
0.522404	0.152378	0.87962	14.63	3.36	-8.19	-0.2055	0.0909	-0.377	
0.523258	0.157746	0.91988	17.08	4.27	-10.01	-0.204	0.097	-0.3831	
0.523258	0.155062	0.896822	22.26	2.31	-11.69	-0.1998	0.0924	-0.3802	
0.514474	0.155184	0.893162	23.94	2.87	-13.58	-0.1995	0.0799	-0.3881	
0.523258	0.157624	0.895968	26.53	3.43	-15.26	-0.208	0.0769	-0.388	
0.50508	0.172264	0.876082	31.99	5.67	-18.13	-0.2107	0.0646	-0.3835	
0.484828	0.18788	0.871324	33.88	7.63	-19.74	-0.198	0.0706	-0.3898	
0.485072	0.197762	0.87108	36.26	7.98	-21.28	-0.2036	0.0553	-0.3837	
0.495076	0.196054	0.864004	39.34	8.12	-22.54	-0.1994	0.0598	-0.3853	
0.493734	0.215086	0.867664	41.86	9.17	-23.66	-0.2032	0.0412	-0.3979	
0.477142	0.228018	0.845704	45.08	9.45	-24.64	-0.1976	0.0304	-0.3903	
0.46726	0.251808	0.837896	49.63	10.5	-26.11	-0.199	0.035	-0.3949	
0.45811	0.276696	0.83204	54.67	10.15	-26.6	-0.1988	0.021	-0.3951	
0.463722	0.300608	0.810568	56.28	11.06	-26.53	-0.2014	-0.0005	-0.3953	
0.443104	0.314638	0.780556	57.61	13.23	-26.67	-0.1985	-0.0037	-0.4016	
0.416874	0.352702	0.771894	59.64	14.7	-26.6	-0.1912	-0.0178	-0.4066	
0.40504	0.395646	0.772626	63.63	13.44	-25.9	-0.1983	-0.0253	-0.4004	
0.3904	0.432002	0.753228	66.01	12.6	-25.9	-0.1924	-0.0471	-0.4054	
0.386374	0.46787	0.748226	67.13	12.32	-26.46	-0.1839	-0.0503	-0.4056	
0.380396	0.487146	0.716018	67.69	10.43	-26.88	-0.1838	-0.0626	-0.4011	
0.359778	0.51301	0.692838	67.9	9.73	-27.51	-0.1739	-0.0689	-0.3998	
0.33855	0.54534	0.671488	67.97	8.47	-27.44	-0.1809	-0.0903	-0.3891	
0.332694	0.573888	0.64904	67.97	8.19	-27.16	-0.1764	-0.1013	-0.397	
0.333182	0.593164	0.631228	66.5	7.35	-28.21	-0.1805	-0.1091	-0.4033	
0.330742	0.615978	0.62708	66.08	6.65	-28.84	-0.1719	-0.1246	-0.4005	
0.332572	0.638182	0.625738	65.38	7.07	-28.7	-0.1763	-0.1275	-0.3881	
0.312564	0.664046	0.589382	65.38	7.07	-29.33	-0.1621	-0.1385	-0.3884	
0.2806	0.680028	0.574132	64.68	5.74	-30.1	-0.1662	-0.1569	-0.3855	
0.282308	0.682468	0.571204	63.07	4.34	-29.96	-0.1744	-0.1724	-0.3918	
0.291824	0.689422	0.564128	63.7	3.57	-29.68	-0.1631	-0.1771	-0.3905	
0.292312	0.731146	0.560346	64.54	3.5	-28.84	-0.1647	-0.1739	-0.3795	
0.284138	0.75945	0.546194	63.91	5.53	-27.65	-0.1562	-0.1909	-0.369	
0.287676	0.759328	0.532896	62.37	6.93	-27.79	-0.1644	-0.2079	-0.3784	
0.277184	0.756034	0.519476	63.42	6.79	-28.21	-0.1559	-0.2141	-0.3724	
0.263764	0.777384	0.485438	66.08	6.58	-27.58	-0.1528	-0.2374	-0.3805	
0.24217	0.809714	0.469944	65.73	8.33	-25.76	-0.1559	-0.234	-0.3587	
0.24095	0.836066	0.464332	67.41	9.38	-26.04	-0.1487	-0.2572	-0.3544	
0.239486	0.85583	0.423706	66.08	15.96	-24.99	-0.1389	-0.2588	-0.3468	
0.226554	0.873886	0.392718	67.83	17.92	-26.18	-0.1387	-0.282	-0.3502	
0.188002	0.889014	0.362706	66.85	20.79	-22.75	-0.1345	-0.2774	-0.3456	
0.144326	0.900848	0.343918	64.89	22.68	-22.33	-0.1289	-0.2943	-0.3366	
0.122732	0.901702	0.325984	65.03	23.31	-21.7	-0.1203	-0.3084	-0.3384	
0.133712	0.879254	0.31659	62.72	25.76	-21.84	-0.1133	-0.3053	-0.3338	
0.150792	0.890966	0.308294	63.63	25.34	-21.77	-0.1091	-0.3299	-0.3156	
0.152378	0.910608	0.28609	57.96	25.76	-20.37	-0.1034	-0.3315	-0.3188	
0.129198	0.924028	0.259616	59.22	23.31	-17.92	-0.0992	-0.3376	-0.3096	
0.106506	0.952942	0.244	58.24	25.41	-16.03	-0.1062	-0.3392	-0.3142	
0.086132	0.974292	0.219356	58.52	22.33	-14.14	-0.09339999	-0.3547	-0.3099	
0.08479	0.978928	0.207888	55.58	22.54	-13.65	-0.0837	-0.3578	-0.3008	
0.083204	0.979782	0.20618	58.17	22.96	-15.4	-0.0936	-0.3638	-0.2929	
0.104066	0.995032	0.187514	57.96	17.99	-17.64	-0.088	-0.3683	-0.2838	
0.091378	1.010526	0.159454	54.11	19.6	-18.2	-0.0851	-0.3792	-0.2839	
0.053924	1.000156	0.14884	52.29	19.74	-17.78	-0.0839	-0.3852	-0.2685	
0.052826	0.977464	0.144204	53.83	15.47	-18.27	-0.0684	-0.3915	-0.2657	
0.074054	0.975024	0.128588	53.9	14.07	-20.51	-0.0628	-0.3961	-0.2565	
0.0793	1.017602	0.092964	53.48	10.15	-20.44	-0.0615	-0.3976	-0.2488	
0.05368	1.034072	0.07015	49.98	11.76	-17.99	-0.0557	-0.4024	-0.2552	
0.051972	1.036634	0.053802	48.23	9.38	-15.12	-0.0501	-0.4162	-0.2461	
0.053558	1.044686	0.040138	44.24	12.04	-13.86	-0.0517	-0.4206	-0.2259	
0.033306	1.01992	0.025376	41.23	12.39	-13.72	-0.0474	-0.4192	-0.2353	
0.016714	1.02175	0.023302	40.18	10.01	-12.88	-0.0446	-0.4223	-0.2307	
0.027206	1.023458	0.01159	39.62	9.45	-15.96	-0.0419	-0.4222	-0.2261	
0.028304	1.012478	0.024156	39.48	11.55	-14.98	-0.0419	-0.4452	-0.2093	
0.033062	0.991128	-0.020374	40.11	11.9	-15.61	-0.0323	-0.4328	-0.2	
0.05124	1.003206	-0.029768	40.81	11.69	-17.15	-0.0434	-0.4374	-0.203	
0.061	1.010282	-0.039406	36.89	14.84	-15.82	-0.0351	-0.4451	-0.1939	
0.013786	0.999912	-0.060024	40.04	15.75	-15.33	-0.0211	-0.4344	-0.1924	
-0.01647	1.008452	-0.069662	41.72	18.2	-14.14	-0.021	-0.4437	-0.1925	
0.021228	1.028216	-0.081008	41.23	18.06	-15.19	-0.0225	-0.4528	-0.1771	
0.02074	1.047614	-0.087962	41.02	17.85	-13.16	-0.0156	-0.4497	-0.174	
0.00732	1.024556	-0.094184	39.13	18.48	-11.41	-0.0129	-0.4542	-0.1601	
-0.001586	1.011258	-0.098454	39.69	17.36	-14.84	-0.0156	-0.4634	-0.1602	
-0.006466	1.03212	-0.121268	35.98	18.76	-14.77	-0.0172	-0.4602	-0.1524	
-0.011224	1.023092	-0.1159	33.04	19.18	-13.51	0.0022	-0.4602	-0.1371	
-0.019276	1.00955	-0.119072	31.01	20.3	-12.39	-0.0018	-0.4603	-0.1433	
-0.038674	1.002108	-0.130906	33.32	17.57	-11.2	0.0078	-0.4649	-0.1342	
-0.04697	1.02541	-0.143106	28.07	16.59	-10.01	-0.009	-0.4739	-0.1247	
-0.056242	1.022848	-0.159088	26.04	12.39	-9.31	0.0092	-0.4572	-0.1341	
-0.05246	1.02114	-0.170312	22.96	12.46	-7.7	0.0049	-0.4724	-0.1187	
-0.036112	1.0248	-0.180072	19.81	8.96	-6.93	0.0119	-0.474	-0.1188	
-0.047824	1.026508	-0.202154	17.36	7.42	-6.65	0.0063	-0.4786	-0.1172	
-0.06222	1.039318	-0.202886	16.73	5.67	-6.23	0.0036	-0.4771	-0.1218	
-0.06771	1.032974	-0.20862	17.08	4.48	-5.67	0.0176	-0.4756	-0.1174	
-0.054168	1.01687	-0.20374	16.73	3.99	-6.44	0.0131	-0.4677	-0.1047	
-0.035868	0.968314	-0.188856	16.66	2.73	-6.79	0.0118	-0.4739	-0.1095	
-0.018422	0.95526	-0.20435	17.36	3.64	-6.37	0.0131	-0.4723	-0.1033	
-0.027084	0.956968	-0.22814	18.76	4.55	-6.23	0.0215	-0.4815	-0.0926	
-0.043066	0.985882	-0.246684	18.48	7.21	-5.6	0.0214	-0.4754	-0.0925	
-0.05917	1.024068	-0.247294	18.2	9.17	-6.51	0.0202	-0.4739	-0.1034	
-0.07124799	1.048468	-0.255346	17.43	9.45	-6.72	0.0243	-0.4785	-0.0973	
-0.088694	1.040904	-0.26047	14.21	8.75	-7.35	0.0229	-0.4724	-0.09869999	
-0.072834	1.033706	-0.26291	11.41	7.7	-8.33	0.0241	-0.4737	-0.0832	
-0.07015	1.033584	-0.262056	10.01	5.88	-8.26	0.0284	-0.4815	-0.085	
-0.084058	1.017114	-0.262544	8.26	6.09	-7.91	0.0286	-0.4832	-0.099	
-0.066856	0.987712	-0.24888	7.21	4.13	-7.35	0.0325	-0.4784	-0.0757	
-0.055754	0.9638	-0.251442	6.09	5.04	-5.88	0.0283	-0.4783	-0.0771	
-0.059658	0.965142	-0.259616	6.09	4.83	-4.62	0.0313	-0.4878	-0.0866	
-0.063074	0.980026	-0.261446	6.58	6.3	-2.73	0.0298	-0.4831	-0.0834	
-0.06466	0.99308	-0.268644	6.51	6.58	-0.07	0.0341	-0.4847	-0.0851	
-0.066612	0.99369	-0.273402	3.92	5.95	1.26	0.0313	-0.4877	-0.0851	
-0.078568	0.991006	-0.272548	2.1	6.09	1.47	0.0299	-0.4816	-0.0865	
-0.08601	0.99064	-0.266448	1.82	6.16	1.19	0.0326	-0.4846	-0.0804	
-0.069052	0.994544	-0.266814	3.01	6.23	1.26	0.0368	-0.483	-0.0758	
-0.06649	0.981368	-0.26047	2.59	5.25	0.98	0.038	-0.4738	-0.0741	
-0.071736	0.981612	-0.271206	1.4	4.62	0.35	0.0367	-0.4892	-0.0712	
-0.079178	0.983198	-0.269498	1.61	3.08	0.56	0.0298	-0.483	-0.0803	
-0.060024	0.970754	-0.266814	3.22	1.26	-0.14	0.0356	-0.4894	-0.0867	
-0.07137	0.983198	-0.284992	2.45	1.05	-0.35	0.0353	-0.4891	-0.0696	
-0.067222	0.992226	-0.282796	3.71	-0.28	-0.42	0.0396	-0.4816	-0.08199999	
-0.071736	1.007842	-0.280356	3.5	-0.77	-0.42	0.0324	-0.4737	-0.074	
-0.078568	0.996374	-0.286578	3.15	-1.4	-0.42	0.0282	-0.4844	-0.07099999	
-0.058072	0.973438	-0.283162	1.47	-2.8	-1.26	0.0338	-0.4721	-0.0725	
-0.063562	0.969412	-0.27572	1.26	-2.31	0	0.0269	-0.486	-0.0757	
-0.062586	0.976	-0.272426	1.89	-1.4	1.4	0.0353	-0.486	-0.0696	
-0.060634	0.974292	-0.277916	2.45	-0.63	1.19	0.0294	-0.475	-0.06	
-0.046726	0.98271	-0.276086	2.17	-0.98	0.98	0.0311	-0.483	-0.0772	
-0.054534	0.987102	-0.283284	2.24	-0.56	1.75	0.0338	-0.4783	-0.0679	
-0.060268	0.990518	-0.28304	1.61	0.49	1.82	0.0338	-0.4844	-0.0649	
-0.058926	1.004914	-0.283162	1.4	0.07	2.1	0.0311	-0.483	-0.0741	
-0.070516	0.996984	-0.274744	0.42	-0.07	2.1	0.0298	-0.4953	-0.0712	
-0.04697	0.968436	-0.279014	-0.63	-0.28	0.7	0.0353	-0.4906	-0.065	
-0.046604	0.95892	-0.280356	-1.61	0.21	1.12	0.0309	-0.4797	-0.0632	
-0.049532	0.98637	-0.278404	-1.19	0.42	2.59	0.0382	-0.4923	-0.0744	
-0.056974	0.989786	-0.275354	-0.49	0.7	2.73	0.038	-0.486	-0.0634	
-0.057462	0.991128	-0.277184	-0.91	0.91	1.75	0.0366	-0.4798	-0.0664	
-0.057706	0.999058	-0.283894	-1.47	0.21	1.26	0.0339	-0.4815	-0.0757	
-0.062708	0.992836	-0.292312	-2.38	0.28	0.77	0.0283	-0.4876	-0.0757	
-0.054412	0.987712	-0.29829	-3.08	-0.63	0.84	0.0297	-0.4845	-0.0726	
-0.066124	0.981856	-0.292312	-3.71	-0.28	1.68	0.0227	-0.4844	-0.0756	
-0.05978	0.991738	-0.288164	-3.57	-1.33	1.26	0.0212	-0.4813	-0.074	
-0.06771	0.99003	-0.281576	-4.06	-1.89	1.4	0.0212	-0.4859	-0.0725	
-0.064416	0.993934	-0.280478	-4.62	-4.34	0.77	0.0242	-0.4968	-0.0742	
-0.071614	1.007964	-0.283772	-4.55	-6.09	1.12	0.0283	-0.4829	-0.0725	
-0.066856	0.976976	-0.283894	-5.04	-6.02	1.89	0.0297	-0.4783	-0.0772	
-0.048434	0.989298	-0.282674	-7.56	-5.6	1.96	0.0368	-0.4908	-0.0743	
-0.0671	1.00589	-0.28365	-9.45	-4.62	2.73	0.0311	-0.4737	-0.0787	
-0.079666	0.991738	-0.285602	-10.15	-6.51	1.54	0.0311	-0.4814	-0.0772	
-0.1037	1.01992	-0.292068	-12.74	-8.82	0.91	0.0199	-0.486	-0.0787	
-0.075762	1.069574	-0.288652	-13.86	-9.73	1.47	0.0241	-0.4737	-0.0832	
-0.05673	1.015162	-0.257542	-16.59	-10.99	3.29	0.0299	-0.4816	-0.0881	
-0.069784	1.00467	-0.280112	-22.12	-11.48	1.61	0.0327	-0.4816	-0.09119999	
-0.10248	1.030656	-0.268156	-25.83	-11.76	6.02	0.0171	-0.4752	-0.0863	
-0.102602	1.011502	-0.261446	-24.92	-17.99	3.36	0.0146	-0.4831	-0.1019	
-0.106628	1.01992	-0.264496	-26.04	-20.86	3.29	0.0187	-0.4784	-0.0941	
-0.046238	1.062254	-0.2623	-30.52	-19.81	4.2	0.016	-0.477	-0.108	
-0.067588	1.027728	-0.252052	-35.14	-21.7	7.35	0.0233	-0.4804	-0.1206	
-0.074054	1.003572	-0.226554	-40.11	-22.05	10.71	0.0106	-0.4741	-0.1219	
-0.020618	1.039806	-0.220454	-44.73	-20.37	12.39	0.0134	-0.471	-0.125	
-0.032696	1.021262	-0.213988	-46.9	-21	10.64	0.0052	-0.4804	-0.1374	
-0.022326	1.040294	-0.198006	-50.68	-20.02	12.25	0.005	-0.4634	-0.1357	
-0.028792	1.034926	-0.19093	-52.85	-19.53	16.17	0.0009999999	-0.4681	-0.1465	
-0.051484	1.03517	-0.181658	-55.37	-18.9	16.52	-0.003	-0.462	-0.1604	
-0.052338	1.035414	-0.163968	-59.99	-18.06	16.52	-0.0017	-0.4543	-0.1556	
-0.028304	1.01016	-0.128222	-61.95	-13.93	18.48	-0.01	-0.4527	-0.1648	
-0.018178	0.985638	-0.108946	-62.23	-14.91	18.13	-0.0113	-0.4483	-0.1803	
-0.015738	0.995886	-0.081984	-60.9	-14	18.62	-0.0099	-0.4529	-0.1742	
-0.033306	1.017968	-0.052216	-59.22	-13.93	19.46	-0.0111	-0.4469	-0.1958	
-0.042944	1.03944	-0.049776	-61.32	-13.02	18.97	-0.0221	-0.4378	-0.2157	
-0.044286	1.027484	-0.001586	-66.71	-11.27	18.34	-0.0152	-0.4378	-0.2096	
-0.013908	1.00345	0.00427	-70.91	-16.17	19.32	-0.0277	-0.4378	-0.2172	
-0.004758	0.96746	0.037942	-74.48	-18.62	21.49	-0.0306	-0.4147	-0.2324	
-0.005124	1.016748	0.07991	-75.46	-21.77	27.37	-0.0445	-0.4025	-0.2554	
-0.015982	1.042002	0.116632	-77.77	-19.6	29.89	-0.0414	-0.4089	-0.2679	
0.017446	1.012112	0.140666	-83.72	-19.32	27.23	-0.0571	-0.3855	-0.2705	
0.051606	0.957944	0.198128	-88.2	-20.72	24.92	-0.0554	-0.3858	-0.2861	
0.078934	0.91012	0.23302	-87.99	-23.59	26.04	-0.0626	-0.3733	-0.2842	
0.100772	0.923662	0.251198	-86.31	-26.6	28.7	-0.06659999	-0.3643	-0.3105	
0.102236	0.938424	0.23302	-90.3	-23.17	30.52	-0.0738	-0.3472	-0.3117	
0.095282	0.87779	0.281698	-90.37	-24.08	27.72	-0.0808	-0.3365	-0.3223	
0.140544	0.85095	0.358924	-90.3	-26.74	31.71	-0.0808	-0.3272	-0.3269	
0.179462	0.845582	0.385154	-88.34	-32.83	38.15	-0.0878	-0.315	-0.3406	
0.229726	0.866932	0.405772	-82.11	-28.42	39.41	-0.1033	-0.3025	-0.3464	
0.172508	0.897554	0.373808	-86.87	-23.45	42.49	-0.1035	-0.2809	-0.3492	
0.12505	0.874008	0.378078	-85.12	-21.07	36.47	-0.1117	-0.2764	-0.3661	
0.191296	0.773602	0.444812	-82.32	-16.31	31.08	-0.1203	-0.2685	-0.3612	
0.278526	0.744566	0.46421	-79.1	-17.36	30.87	-0.1203	-0.2593	-0.3705	
0.233386	0.783606	0.484584	-76.86	-16.03	34.09	-0.1233	-0.2346	-0.3716	
0.208986	0.798368	0.506056	-74.97	-16.87	36.89	-0.1345	-0.2376	-0.3793	
0.275598	0.757986	0.520452	-72.8	-15.75	36.26	-0.1403	-0.2175	-0.382	
0.300852	0.733464	0.547292	-70.91	-13.93	31.71	-0.136	-0.2145	-0.3883	
0.283162	0.726876	0.544852	-71.26	-13.16	28.28	-0.1475	-0.1912	-0.3893	
0.26291	0.703208	0.562542	-70.56	-12.53	25.9	-0.1517	-0.1866	-0.3939	
0.269254	0.672098	0.587918	-67.69	-10.92	25.06	-0.1504	-0.1711	-0.3937	
0.324276	0.647454	0.640378	-61.88	-6.37	24.85	-0.1562	-0.1587	-0.395	
0.356484	0.629032	0.64538	-62.79	-10.01	30.8	-0.159	-0.1465	-0.4057	
0.351848	0.63867	0.652578	-61.81	-9.03	32.48	-0.1606	-0.137	-0.3946	
0.31476	0.641232	0.662094	-57.47	-4.9	27.44	-0.162	-0.1263	-0.4054	
0.300242	0.638914	0.665754	-56.35	-5.53	24.57	-0.1606	-0.1248	-0.4054	
0.314394	0.595116	0.681248	-56.98	-5.6	21	-0.1623	-0.1046	-0.3973	
0.374174	0.538386	0.713334	-55.72	-5.67	20.02	-0.1693	-0.0938	-0.4095	
0.377224	0.525454	0.72102	-54.32	-4.83	21.84	-0.1722	-0.0875	-0.4047	
0.360388	0.520574	0.716872	-51.66	-4.41	23.38	-0.1679	-0.0846	-0.4156	
0.367098	0.52033	0.729316	-50.47	-2.87	22.47	-0.1707	-0.08	-0.4171	
0.359168	0.516792	0.73383	-51.38	-1.96	21.49	-0.1669	-0.0551	-0.4059	
0.34465	0.47092	0.754082	-52.5	-3.43	19.67	-0.1725	-0.0459	-0.4135	
0.373076	0.437736	0.759572	-51.31	-5.11	18.62	-0.1727	-0.0381	-0.4103	
0.372466	0.420656	0.773236	-50.33	-6.09	19.88	-0.1769	-0.0273	-0.4178	
0.374052	0.399428	0.78873	-49.77	-4.97	20.16	-0.1699	-0.0228	-0.4163	
0.385398	0.361242	0.817888	-48.37	-6.3	18.9	-0.1716	-0.0118	-0.4053	
0.420534	0.344406	0.826062	-45.78	-9.31	20.16	-0.166	-0.0041	-0.4068	
0.39772	0.333548	0.837286	-45.78	-9.17	22.19	-0.1717	0.0082	-0.4097	
0.40138	0.32269	0.847534	-43.96	-10.85	22.75	-0.1831	0.0129	-0.4094	
0.423706	0.32086	0.848266	-41.51	-10.85	20.86	-0.1845	0.013	-0.4079	
0.399794	0.289384	0.833626	-39.41	-10.5	19.04	-0.1832	0.0284	-0.4092	
0.437492	0.241804	0.845582	-38.29	-10.29	18.06	-0.1805	0.0239	-0.3969	
0.45933	0.22143	0.861076	-35.7	-10.15	17.85	-0.1877	0.041	-0.3997	
0.447252	0.239852	0.864614	-32.41	-7.91	17.5	-0.1808	0.0456	-0.3951	
0.446154	0.211304	0.862296	-31.64	-7.56	16.03	-0.1865	0.058	-0.3979	
0.480192	0.19276	0.873642	-28.91	-7.91	14.77	-0.1866	0.0657	-0.3963	
0.48617	0.19215	0.871202	-27.79	-7.35	15.12	-0.1823	0.0625	-0.401	
0.4697	0.190564	0.868396	-26.88	-5.39	14.56	-0.1881	0.0781	-0.3992	
0.478484	0.175436	0.84973	-24.08	-4.2	13.16	-0.1824	0.0703	-0.3994	
0.46726	0.184098	0.848754	-22.75	0.07	10.85	-0.1922	0.06879999	-0.3992	
0.45323	0.188002	0.850584	-21.98	-0.56	10.22	-0.1769	0.078	-0.3931	
0.447008	0.193492	0.846436	-22.33	-1.82	8.75	-0.1869	0.0828	-0.3898	
0.45628	0.180682	0.84424	-22.47	-2.38	8.26	-0.187	0.0891	-0.3866	
0.474092	0.172752	0.845704	-22.19	-2.24	8.05	-0.1884	0.09519999	-0.3896	
0.479826	0.170678	0.867054	-22.26	-1.61	7.84	-0.1813	0.0905	-0.3929	
0.480924	0.169702	0.874374	-20.58	-1.75	7.42	-0.1883	0.0859	-0.3913	
0.480558	0.175314	0.881084	-19.81	-3.29	7.14	-0.1787	0.1044	-0.385	
0.483608	0.161284	0.873276	-17.78	-3.22	6.44	-0.1816	0.1122	-0.3849	
0.492636	0.149206	0.872666	-16.52	-1.96	5.04	-0.1928	0.1015	-0.3864	
0.499468	0.142984	0.878644	-15.68	-2.03	4.97	-0.1929	0.1124	-0.3816	
0.49654	0.146278	0.87962	-14.7	-0.21	4.2	-0.1914	0.1153	-0.3909	
0.48983	0.143716	0.87169	-11.97	0.42	3.36	-0.183	0.1138	-0.3848	
0.48007	0.137982	0.857416	-11.13	0.35	3.29	-0.1887	0.1246	-0.3877	
0.463478	0.129686	0.85949	-11.13	1.12	2.73	-0.1803	0.1214	-0.3879	
0.468358	0.133712	0.864858	-9.73	0.63	2.66	-0.1872	0.1199	-0.3956	
0.462746	0.131516	0.869128	-8.75	0.49	2.31	-0.1888	0.1231	-0.3862	
0.464332	0.134932	0.865346	-7.98	0.49	2.38	-0.1804	0.1292	-0.3847	
0.462746	0.140788	0.861686	-7.84	0.42	2.03	-0.1903	0.1248	-0.3783	
0.467504	0.133102	0.862174	-7.63	0.35	1.75	-0.186	0.1216	-0.3816	
0.477142	0.13847	0.855342	-8.12	-0.28	1.75	-0.1791	0.1355	-0.3784	
0.47214	0.141642	0.858026	-8.26	1.12	1.89	-0.1821	0.1418	-0.372	
0.465674	0.138714	0.856684	-7.63	1.75	0.42	-0.1791	0.1309	-0.3753	
0.468724	0.128466	0.858758	-7.84	1.61	0.35	-0.1832	0.1323	-0.3846	
0.46726	0.128466	0.858758	-7.35	1.54	0.7	-0.1821	0.1433	-0.3736	
0.464332	0.12383	0.861808	-6.93	1.4	0.77	-0.1862	0.134	-0.3783	
0.46604	0.11834	0.860466	-6.58	1.19	0.49	-0.1833	0.1339	-0.3845	
0.463356	0.122	0.864248	-5.95	1.68	0.63	-0.1792	0.134	-0.3722	
0.46116	0.122854	0.865346	-6.09	1.61	0.56	-0.1803	0.1276	-0.3878	
0.461038	0.112972	0.862906	-5.18	1.26	0.21	-0.185	0.1495	-0.3734	
0.460916	0.11346	0.871568	-4.2	1.05	0.07	-0.1835	0.1449	-0.372	
0.465918	0.111264	0.869372	-3.5	0.91	0.21	-0.1833	0.1324	-0.3815	
0.470066	0.110776	0.867054	-3.15	0.98	0.49	-0.186	0.14	-0.3953	
0.459086	0.11285	0.867542	-3.22	1.68	0.35	-0.1765	0.1448	-0.3721	
0.463234	0.11163	0.863394	-2.73	1.54	0	-0.1806	0.1386	-0.3736	
0.457744	0.108458	0.86071	-2.1	1.61	-0.56	-0.1778	0.1431	-0.3814	
0.459574	0.1098	0.864492	-1.61	1.47	-0.42	-0.1804	0.1369	-0.3892	
0.46116	0.112972	0.856928	-1.75	1.12	-0.21	-0.1808	0.1495	-0.3704	
0.457134	0.113826	0.853878	-1.68	0.91	0	-0.1834	0.1417	-0.3767	
0.452864	0.114924	0.851682	-1.54	0.98	-0.56	-0.1693	0.1492	-0.3846	
0.460306	0.111874	0.85705	-1.61	1.19	-0.77	-0.1764	0.1355	-0.3722	
0.462136	0.11407	0.86315	-1.54	1.26	-0.28	-0.1793	0.1463	-0.3751	
0.459696	0.12078	0.864858	-1.96	1.47	-0.28	-0.1806	0.1462	-0.3829	
0.454938	0.119072	0.859856	-2.59	1.61	-0.21	-0.1721	0.1415	-0.3815	
0.44347	0.117974	0.856074	-2.24	1.61	-0.56	-0.1821	0.1448	-0.3767	
0.446398	0.112728	0.859002	-2.24	1.33	-0.63	-0.172	0.1414	-0.3924	
0.449448	0.117242	0.86559	-2.59	1.47	-0.42	-0.1765	0.1417	-0.3721	
0.449692	0.11163	0.867176	-2.8	1.54	-0.56	-0.1849	0.1479	-0.3766	
0.449814	0.1159	0.868396	-1.96	1.19	-0.7	-0.1792	0.1401	-0.3799	
0.450058	0.106628	0.868518	-1.82	0.98	-0.77	-0.1778	0.1401	-0.3752	
0.44713	0.111142	0.870348	-1.61	0.98	-0.77	-0.178	0.1479	-0.3689	
0.451644	0.114314	0.868884	-1.54	0.77	-0.7	-0.1778	0.1401	-0.3737	
0.45018	0.105164	0.864126	-1.05	1.12	-1.12	-0.1793	0.1448	-0.3705	
0.442494	0.107238	0.85705	-0.49	1.05	-1.05	-0.1821	0.1495	-0.375	
0.43554	0.114558	0.863394	-0.35	0.77	-0.84	-0.1736	0.1478	-0.3799	
0.436394	0.11834	0.86498	-0.91	0.35	-0.91	-0.1724	0.1586	-0.3735	
0.451522	0.101626	0.871568	-1.12	-0.07	-0.91	-0.1751	0.1479	-0.3736	
0.445544	0.104188	0.865346	-0.91	0.21	-0.56	-0.1808	0.151	-0.3735	
0.449326	0.108458	0.865956	-0.77	0.14	-0.07	-0.1807	0.1402	-0.369	
0.438834	0.111264	0.862784	-0.7	0.28	0.07	-0.1792	0.1463	-0.3782	
0.438102	0.10675	0.861808	-1.19	0.21	0.07	-0.1835	0.1494	-0.3812	
0.441152	0.108824	0.863516	-0.77	0	0.07	-0.1779	0.1433	-0.3705	
0.441274	0.106994	0.866322	-0.84	0	0.07	-0.1848	0.1432	-0.3828	
0.451766	0.10675	0.86925	-0.84	0.07	0	-0.1793	0.1479	-0.3751	
0.44835	0.101992	0.876814	-1.33	0.21	0	-0.182	0.1417	-0.3767	
0.450668	0.094062	0.886208	-0.56	-0.07	0	-0.1865	0.1481	-0.3672	
0.454816	0.09638	0.883768	0.56	-0.42	-0.35	-0.175	0.1401	-0.3768	
0.453962	0.096868	0.886574	0.77	-0.14	-0.49	-0.1736	0.1432	-0.3768	
0.46116	0.079422	0.886818	1.33	-0.28	-0.98	-0.1764	0.1416	-0.3783	
0.459696	0.074664	0.896334	2.45	0.07	-1.4	-0.1708	0.1431	-0.3769	
0.466406	0.065514	0.900604	4.2	-0.07	-1.89	-0.1806	0.1386	-0.3768	
0.474336	0.061244	0.90524	6.09	0.21	-2.45	-0.1765	0.1463	-0.3752	
0.477386	0.060878	0.913292	7.84	0.49	-3.15	-0.1807	0.1448	-0.3767	
0.479826	0.055876	0.922076	9.45	0.63	-3.78	-0.1778	0.1401	-0.3799	
0.480192	0.050386	0.930128	10.92	0.91	-4.69	-0.1805	0.1447	-0.3845	
0.457134	0.041602	0.922076	14.35	-0.07	-6.58	-0.182	0.1432	-0.3782	
0.468846	0.034892	0.92903	17.36	-0.14	-7.84	-0.182	0.1416	-0.3814	
0.483974	0.037576	0.936472	20.72	0.21	-10.36	-0.1777	0.1308	-0.38	
0.494954	0.04941	0.937692	24.15	1.19	-12.39	-0.1804	0.1246	-0.38	
0.49227	0.063806	0.93574	27.02	2.59	-13.58	-0.1819	0.1293	-0.3769	
0.477874	0.073322	0.918416	29.54	2.52	-13.86	-0.1804	0.1215	-0.3816	
0.460062	0.085278	0.906338	32.41	2.24	-14.7	-0.1762	0.1261	-0.3832	
0.464698	0.096868	0.914146	35	2.31	-16.38	-0.1802	0.1106	-0.3865	
0.470798	0.110898	0.906704	38.01	3.15	-18.55	-0.18	0.0983	-0.3866	
0.468602	0.125416	0.903044	40.81	4.27	-21.14	-0.1813	0.092	-0.3898	
0.461648	0.13725	0.90036	43.82	3.92	-22.12	-0.1812	0.0766	-0.3869	
0.452498	0.154086	0.894016	46.34	3.99	-22.4	-0.1838	0.0749	-0.3993	
0.440908	0.173362	0.883768	49.63	3.43	-22.19	-0.1881	0.0673	-0.3931	
0.43432	0.186538	0.8784	52.22	4.06	-23.31	-0.1867	0.0658	-0.3885	
0.437126	0.20435	0.875838	56.28	4.2	-24.71	-0.1821	0.0517	-0.4027	
0.433588	0.241194	0.848266	61.74	5.25	-25.55	-0.1835	0.0455	-0.4028	
0.419436	0.272792	0.82777	64.96	5.74	-26.67	-0.1861	0.0331	-0.4091	
0.401136	0.298412	0.81557	67.13	5.25	-27.51	-0.1776	0.0161	-0.3971	
0.398086	0.319762	0.790072	68.46	5.53	-27.16	-0.1872	0.0037	-0.4079	
0.384056	0.368562	0.77958	70.28	4.69	-26.88	-0.1814	-0.0117	-0.4113	
0.377468	0.380762	0.762744	70.7	5.39	-27.09	-0.1787	-0.0101	-0.4052	
0.388936	0.394304	0.739808	73.78	4.13	-27.44	-0.1798	-0.0349	-0.4055	
0.365878	0.432368	0.712968	73.71	4.9	-27.16	-0.1769	-0.0458	-0.4072	
0.350384	0.4697	0.68869	75.18	5.46	-26.53	-0.1796	-0.0519	-0.4072	
0.356972	0.505202	0.680028	75.67	7.28	-26.88	-0.1766	-0.0736	-0.4076	
0.363926	0.54473	0.67222	77.07	9.03	-27.93	-0.1765	-0.0844	-0.4062	
0.34587	0.584868	0.644648	76.37	7.77	-27.65	-0.1779	-0.0982	-0.3985	
0.312442	0.61061	0.629764	74.2	7	-27.3	-0.1693	-0.103	-0.4018	
0.296826	0.629886	0.608536	72.94	6.37	-28.14	-0.1608	-0.1124	-0.4021	
0.293288	0.651602	0.588406	72.94	5.18	-28.28	-0.1677	-0.1277	-0.3975	
0.284992	0.690398	0.589138	69.93	6.37	-27.93	-0.1522	-0.1508	-0.381	
0.289628	0.70943	0.564494	67.62	6.23	-27.37	-0.1576	-0.1694	-0.3889	
0.294508	0.71431	0.537898	66.85	5.53	-27.16	-0.1476	-0.1742	-0.3907	
0.271816	0.736514	0.51118	66.92	4.41	-26.88	-0.163	-0.1956	-0.386	
0.238266	0.783606	0.508008	66.08	4.76	-24.99	-0.1617	-0.1955	-0.3767	
0.23058	0.804346	0.513376	62.86	4.13	-24.71	-0.1517	-0.2127	-0.3771	
0.247904	0.794098	0.502152	60.34	2.94	-24.22	-0.1475	-0.2065	-0.374	
0.258518	0.795318	0.489098	58.17	2.17	-23.52	-0.15	-0.2343	-0.3774	
0.26596	0.806786	0.479826	55.93	3.43	-22.89	-0.1502	-0.2418	-0.3589	
0.238388	0.819352	0.470798	57.26	5.11	-22.54	-0.1501	-0.2496	-0.3636	
0.219478	0.82838	0.462136	57.75	7.56	-22.82	-0.1402	-0.2574	-0.3577	
0.224968	0.833504	0.440786	58.8	7.56	-22.89	-0.1402	-0.262	-0.3562	
0.22509	0.85095	0.420534	59.71	8.75	-23.31	-0.1401	-0.2728	-0.3563	
0.208132	0.873764	0.378688	60.13	9.94	-22.12	-0.1302	-0.2868	-0.3489	
0.198372	0.91134	0.350384	60.48	11.9	-20.3	-0.1388	-0.2926	-0.3333	
0.178974	0.939156	0.33062	59.78	11.41	-18.06	-0.126	-0.3037	-0.3367	
0.14762	0.948184	0.294142	57.61	14.14	-19.6	-0.1203	-0.3114	-0.3338	
0.126636	0.929762	0.29646	50.82	12.81	-18.97	-0.119	-0.3098	-0.3245	
0.143838	0.924882	0.286456	52.36	15.19	-21.7	-0.1217	-0.3313	-0.3201	
0.137128	0.930006	0.284382	50.89	13.86	-20.79	-0.1134	-0.319	-0.3169	
0.1281	0.936472	0.272548	53.06	12.46	-20.3	-0.112	-0.3374	-0.3063	
0.13603	0.945866	0.260104	51.94	11.69	-20.16	-0.0963	-0.3439	-0.3144	
0.134566	0.947696	0.238266	52.01	9.66	-20.37	-0.1035	-0.3437	-0.3065	
0.13237	0.965752	0.213622	50.75	10.78	-20.72	-0.0993	-0.3544	-0.2927	
0.112362	0.981734	0.19947	51.66	11.41	-20.16	-0.1063	-0.3605	-0.2927	
0.086254	0.988444	0.179584	50.33	11.69	-19.81	-0.0866	-0.373	-0.2807	
0.079788	1.00284	0.18605	46.55	11.83	-21.14	-0.0894	-0.3745	-0.2838	
0.070516	0.994666	0.168848	47.39	8.68	-21.56	-0.081	-0.3868	-0.2732	
0.07503	0.993202	0.16287	45.99	6.72	-21.07	-0.0865	-0.393	-0.2732	
0.0915	0.980026	0.160552	44.59	6.02	-21.49	-0.0854	-0.3881	-0.2576	
0.10431	0.974902	0.157502	46.41	5.81	-20.79	-0.08109999	-0.399	-0.2547	
0.104432	0.984662	0.1342	45.85	7.07	-20.16	-0.0684	-0.3991	-0.2565	
0.099796	0.99491	0.101748	44.59	9.17	-18.76	-0.0628	-0.4099	-0.2458	
0.082716	0.976244	0.081252	45.85	11.62	-18.27	-0.0598	-0.4193	-0.2507	
0.078812	0.978074	0.079666	46.27	14.63	-17.99	-0.0586	-0.4222	-0.2383	
0.07076	0.987712	0.037332	45.08	15.12	-17.85	-0.056	-0.4251	-0.2197	
0.06039	0.9943	0.011956	46.97	17.92	-15.4	-0.0544	-0.4329	-0.226	
0.062708	0.991982	0.009638	43.68	22.82	-13.09	-0.049	-0.4252	-0.2198	
0.066124	0.971974	-0.011102	47.46	24.78	-12.39	-0.046	-0.4361	-0.2216	
0.05063	0.986248	-0.046726	45.78	27.72	-12.25	-0.0476	-0.442	-0.2014	
0.031354	1.012722	-0.057706	45.43	30.87	-10.57	-0.0393	-0.4389	-0.1984	
0.008174	1.034316	-0.087474	45.08	34.16	-9.8	-0.0296	-0.4435	-0.1846	
-0.000976	1.046272	-0.08113	45.29	34.37	-9.1	-0.0296	-0.4527	-0.1785	
-0.0122	1.071648	-0.085034	40.53	33.25	-9.73	-0.0324	-0.4511	-0.1753	
-0.037454	1.0675	-0.096746	38.57	31.92	-10.71	-0.0184	-0.4481	-0.174	
-0.04148	1.032608	-0.083326	35.56	28.91	-11.06	-0.0211	-0.4589	-0.1725	
-0.027206	1.016992	-0.08967	34.93	23.17	-13.3	-0.0072	-0.462	-0.1634	
-0.027328	1.014186	-0.106384	36.19	22.12	-12.95	-0.0156	-0.4573	-0.1663	
-0.01159	1.017724	-0.117608	32.41	21.07	-13.86	-0.0157	-0.4679	-0.1494	
-0.015494	1.016626	-0.128344	32.27	17.99	-13.51	-0.0033	-0.4556	-0.1448	
-0.026718	1.019676	-0.124074	29.96	18.2	-11.69	-0.0004	-0.4695	-0.1403	
-0.022082	1.0248	-0.132248	29.33	15.26	-11.2	0.0008	-0.4633	-0.134	
-0.010492	1.026264	-0.142618	26.18	14.56	-10.36	0.0023	-0.471	-0.1342	
-0.001464	1.020774	-0.152622	24.01	13.51	-10.22	0.0007	-0.4663	-0.1294	
-0.00854	1.00284	-0.17812	22.96	15.26	-9.66	0.0049	-0.4709	-0.1233	
-0.031964	0.99735	-0.163846	24.15	15.05	-9.52	0.005	-0.474	-0.1234	
-0.036356	1.007964	-0.188124	24.85	14.77	-9.52	0.0107	-0.4757	-0.1281	
-0.029036	0.981124	-0.190198	25.69	12.67	-8.75	0.0148	-0.4818	-0.1158	
-0.004758	0.996374	-0.210572	23.45	12.25	-7.49	0.0204	-0.4772	-0.1174	
-0.025254	0.993568	-0.227774	23.45	12.74	-6.37	0.0105	-0.4786	-0.1142	
-0.030988	1.003938	-0.251564	23.1	13.44	-7.42	0.0116	-0.4799	-0.0924	
-0.03965	0.996984	-0.233264	24.15	14.49	-6.3	0.0188	-0.4786	-0.1034	
-0.035014	1.011624	-0.262056	23.31	12.81	-7.14	0.0103	-0.4799	-0.0986	
-0.059902	1.02358	-0.27328	19.67	12.39	-7.49	0.0215	-0.4784	-0.0926	
-0.07124799	1.010038	-0.267546	18.83	11.69	-6.58	0.0255	-0.4814	-0.0802	
-0.067222	0.987224	-0.274134	18.13	10.22	-7	0.0298	-0.4831	-0.085	
-0.050142	0.98515	-0.278526	17.78	7.49	-6.65	0.0326	-0.4892	-0.0758	
-0.052704	1.005402	-0.301828	16.17	6.23	-5.25	0.0324	-0.4768	-0.0741	
-0.065148	1.015772	-0.305732	15.33	5.6	-4.83	0.0369	-0.4939	-0.0806	
-0.071492	1.019432	-0.290604	14.63	4.83	-3.08	0.0296	-0.4859	-0.0664	
-0.053924	1.01443	-0.297314	12.32	4.27	-1.96	0.0324	-0.4768	-0.0725	
-0.063562	0.992592	-0.303536	8.05	5.53	-2.17	0.034	-0.4922	-0.0712	
-0.077836	0.979538	-0.298534	7.56	5.25	-1.33	0.0452	-0.4831	-0.0744	
-0.05551	0.969168	-0.287554	7.98	4.34	-0.56	0.0281	-0.4782	-0.0678	
-0.062708	0.976122	-0.299144	7.21	2.66	-1.61	0.0325	-0.4921	-0.0649	
-0.066734	0.97295	-0.301584	7.35	1.82	-1.4	0.0423	-0.4815	-0.0681	
-0.05856	0.976	-0.300974	6.3	1.26	-1.19	0.0422	-0.486	-0.0588	
-0.062098	1.003328	-0.30073	6.65	0.56	-0.56	0.0365	-0.4813	-0.0618	
-0.050264	0.988932	-0.299754	6.93	0.49	-1.89	0.0325	-0.4922	-0.0665	
-0.059292	0.976366	-0.318664	5.32	-0.7	-1.68	0.0308	-0.4796	-0.057	
-0.065636	0.977464	-0.323788	5.18	-1.54	-0.49	0.0265	-0.4765	-0.0553	
-0.056974	0.984296	-0.321714	4.9	-0.91	0.14	0.0295	-0.4889	-0.0602	
-0.06161	0.98515	-0.310734	4.69	-0.7	0.21	0.0409	-0.4922	-0.0651	
-0.066246	0.99613	-0.324398	3.5	-0.7	-0.42	0.0378	-0.4828	-0.054	
-0.056364	0.95404	-0.307074	3.29	-0.84	-0.14	0.0337	-0.4782	-0.0632	
-0.045506	0.966118	-0.32513	1.82	-1.26	0.35	0.0322	-0.4904	-0.0494	
-0.05978	0.98149	-0.31537	1.96	-0.21	2.17	0.0378	-0.4873	-0.0479	
-0.054656	0.964166	-0.302682	2.66	-1.26	1.19	0.0322	-0.4812	-0.0539	
-0.052338	0.988688	-0.321714	0.63	0.21	2.24	0.0321	-0.4872	-0.0447	
-0.060634	0.983076	-0.310856	1.26	0.35	2.24	0.0337	-0.4828	-0.0602	
-0.051484	1.002718	-0.31476	-0.21	0.35	1.68	0.0281	-0.4813	-0.0647	
-0.063928	0.985028	-0.329644	-0.49	0.35	1.54	0.031	-0.489	-0.0633	
-0.032818	0.937936	-0.309758	-0.28	0.63	1.54	0.035	-0.4843	-0.054	
-0.032696	0.957212	-0.324886	-1.61	1.68	2.31	0.0323	-0.4797	-0.0632	
-0.060268	0.978684	-0.319762	-1.54	2.73	2.31	0.0338	-0.4921	-0.0588	
-0.060268	0.98576	-0.327692	-1.47	1.68	1.82	0.0309	-0.4889	-0.0587	
-0.073444	0.989786	-0.326838	-2.1	-0.49	2.1	0.0311	-0.4875	-0.068	
-0.05612	0.992226	-0.328912	-2.94	-2.24	1.12	0.0338	-0.486	-0.0649	
-0.051118	0.990518	-0.323544	-4.13	-3.29	0.56	0.038	-0.486	-0.0618	
-0.04514	0.963678	-0.318664	-4.13	-3.36	0.49	0.0295	-0.4889	-0.0586	
-0.037332	0.97661	-0.318908	-5.32	-2.87	0.35	0.0338	-0.4906	-0.0618	
-0.03965	0.974292	-0.332938	-5.53	-2.31	0.91	0.0309	-0.4874	-0.0555	
-0.045628	0.967948	-0.320372	-5.53	-2.45	1.26	0.0365	-0.4829	-0.0618	
-0.05612	1.00589	-0.325618	-7.28	-1.54	1.4	0.038	-0.489	-0.0572	
-0.074176	1.003572	-0.31415	-6.3	-2.87	0.49	0.0281	-0.4904	-0.0555	
-0.03843	0.994056	-0.316224	-7.91	-3.71	-0.07	0.0254	-0.4951	-0.0633	
-0.04026	0.97661	-0.318786	-10.29	-3.64	1.26	0.0254	-0.492	-0.0633	
-0.052582	0.975634	-0.314516	-10.15	-3.43	1.82	0.0323	-0.4858	-0.0571	
-0.056242	1.002962	-0.302438	-10.99	-2.94	2.31	0.0324	-0.4798	-0.07099999	
-0.049044	1.007598	-0.305	-12.88	-3.01	2.24	0.0254	-0.4828	-0.0694	
-0.050264	1.014918	-0.302682	-16.94	-2.94	2.03	0.0283	-0.4814	-0.0772	
-0.05734	0.992836	-0.295606	-17.99	-2.59	3.22	0.0297	-0.4844	-0.07099999	
-0.04026	0.9882	-0.299876	-19.88	-2.8	3.64	0.0325	-0.4799	-0.0741	
-0.053802	1.023336	-0.2989	-22.26	-3.15	2.8	0.0325	-0.4676	-0.0848	
-0.078202	1.026752	-0.288774	-23.24	-3.5	2.66	0.0269	-0.4799	-0.0771	
-0.074908	1.013698	-0.285358	-25.13	-5.11	1.47	0.0284	-0.4784	-0.0849	
-0.054778	1.01443	-0.29219	-29.4	-7.56	0.98	0.0228	-0.4753	-0.0895	
-0.062342	1.039074	-0.274744	-34.02	-6.65	5.67	0.0286	-0.4817	-0.099	
-0.069174	1.031998	-0.27938	-36.96	-12.74	5.11	0.0285	-0.4678	-0.1003	
-0.08601	1.031144	-0.265716	-39.06	-11.13	6.44	0.0231	-0.471	-0.1143	
-0.106384	1.036878	-0.247538	-38.85	-11.9	6.3	0.0175	-0.4695	-0.1204	
-0.130418	1.045784	-0.229482	-39.55	-16.52	5.74	0.0148	-0.4803	-0.1205	
-0.108946	1.062254	-0.215208	-42.07	-20.16	4.27	0.0234	-0.4759	-0.1315	
-0.044896	1.016016	-0.212158	-45.71	-23.31	6.86	0.0205	-0.465	-0.1328	
-0.023058	0.963922	-0.180194	-50.82	-25.55	7.56	0.0095	-0.4667	-0.1482	
-0.06771	1.021384	-0.210816	-57.05	-29.19	7.42	0.0108	-0.4682	-0.1451	
-0.11773	1.090802	-0.138836	-58.1	-26.81	17.36	0.0069	-0.4653	-0.1684	
-0.104676	1.090436	-0.088816	-56.56	-32.34	25.55	0	-0.4576	-0.1728	
-0.099918	1.109224	-0.078812	-53.2	-38.64	30.38	-0.003	-0.4421	-0.1726	
-0.033672	0.887794	-0.027816	-69.79	-35.07	28.21	-0.0195	-0.4468	-0.1941	
0.066246	0.899384	-0.020984	-79.8	-45.08	6.23	-0.0139	-0.4407	-0.1973	
0.049532	0.99796	-0.02379	-71.26	-44.73	9.31	-0.0152	-0.4408	-0.205	
0.033794	0.892308	0.071736	-66.43	-34.23	22.61	-0.0334	-0.4331	-0.2186	
0.052826	0.843386	0.110166	-60.34	-34.51	26.18	-0.0349	-0.4208	-0.2246	
0.090036	0.91134	0.177632	-47.88	-33.74	24.36	-0.0332	-0.4333	-0.2357	
0.13603	0.957212	0.213012	-34.44	-29.12	17.57	-0.0544	-0.4145	-0.2382	
0.158844	0.948184	0.224602	-28.98	-21.91	7	-0.0558	-0.4069	-0.2443	
0.161162	0.944646	0.185928	-27.09	-14.77	1.75	-0.053	-0.4085	-0.246	
0.151524	0.93086	0.182268	-28.35	-8.89	3.29	-0.0573	-0.4068	-0.2412	
0.12078	0.920734	0.159088	-28.63	-4.13	8.68	-0.0558	-0.3992	-0.2536	
0.088816	0.949892	0.16531	-26.53	-0.07	14.77	-0.0629	-0.3976	-0.2519	
0.070638	1.000034	0.195078	-23.87	0.7	17.01	-0.0558	-0.3931	-0.2551	
0.095892	1.003206	0.205814	-21.84	1.89	12.81	-0.0613	-0.3993	-0.2628	
0.098454	0.99003	0.227164	-19.04	3.57	7.7	-0.0641	-0.3946	-0.2627	
0.09699	0.982344	0.243756	-18.27	3.99	2.8	-0.0613	-0.3916	-0.2643	
0.090402	0.968924	0.24583	-16.94	3.29	-0.63	-0.0613	-0.3901	-0.2705	
0.091866	0.928786	0.26169	-15.19	0.21	-0.91	-0.0599	-0.3886	-0.2705	
0.120048	0.9089	0.268278	-13.72	-2.59	-0.98	-0.0654	-0.3886	-0.2766	
0.14152	0.913658	0.270718	-12.25	-3.08	0.28	-0.0598	-0.3871	-0.2767	
0.154574	0.95038	0.264496	-10.64	-2.03	1.61	-0.0682	-0.3855	-0.2812	
0.143716	0.990274	0.265594	-10.78	0.49	1.75	-0.0598	-0.3841	-0.2782	
0.11529	1.021628	0.256688	-10.36	1.61	0.7	-0.0655	-0.3778	-0.2749	
0.10736	0.99857	0.255102	-10.64	2.45	-1.61	-0.0582	-0.3888	-0.2861	
0.110288	0.995398	0.249978	-13.51	1.82	-5.25	-0.0597	-0.3826	-0.2828	
0.091866	1.015894	0.254736	-15.61	1.19	-6.58	-0.0655	-0.3701	-0.2826	
0.087108	1.003206	0.27511	-17.22	1.68	-7.28	-0.0669	-0.3717	-0.2841	
0.10553	0.970022	0.280722	-18.34	0.84	-11.06	-0.0554	-0.3766	-0.2953	
0.127368	0.974414	0.287066	-16.31	-1.26	-15.54	-0.0499	-0.3766	-0.2876	
0.104066	0.974048	0.277184	-14.28	-0.98	-16.17	-0.0527	-0.3719	-0.289	
0.075762	0.981002	0.277428	-14	-1.33	-17.5	-0.0568	-0.372	-0.303	
0.071614	1.000766	0.27267	-15.19	-2.24	-19.04	-0.0497	-0.3721	-0.3015	
0.062464	1.001742	0.283162	-17.71	-2.24	-21.56	-0.0485	-0.375	-0.2876	
0.048922	1.002962	0.29524	-19.46	-1.33	-26.18	-0.0496	-0.3691	-0.3093	
0.033916	1.002962	0.285968	-19.74	-3.15	-30.03	-0.0472	-0.3504	-0.2982	
0.03721	0.992348	0.2867	-21	-5.74	-32.9	-0.0385	-0.3554	-0.3124	
0.0488	0.952332	0.276574	-21.98	-7.56	-35.21	-0.0412	-0.3615	-0.3124	
0.07515199	0.934276	0.281332	-22.33	-9.1	-37.8	-0.0357	-0.3584	-0.3062	
0.065758	0.952698	0.29524	-21.7	-9.1	-38.01	-0.0315	-0.3569	-0.3094	
0.03416	0.95587	0.304756	-19.88	-7.91	-38.08	-0.0257	-0.354	-0.3172	
0.007929999	0.965264	0.316468	-18.27	-6.44	-40.74	-0.0215	-0.3525	-0.3188	
0.000244	0.964532	0.334524	-16.66	-5.74	-42.7	-0.0188	-0.3494	-0.3142	
0.010126	0.959896	0.326472	-16.94	-4.83	-46.13	-0.0186	-0.3481	-0.3297	
0.003294	0.953308	0.313174	-19.25	1.05	-46.62	-0.0103	-0.3481	-0.3221	
-0.00915	0.95526	0.323422	-19.6	4.27	-47.95	-0.0103	-0.3388	-0.3235	
-0.013786	0.991128	0.339648	-19.95	8.75	-49.21	-0.006	-0.342	-0.3283	
-0.069662	0.94367	0.368928	-18.2	13.58	-49.14	0.0052	-0.3452	-0.3285	
-0.114558	0.932568	0.378078	-13.3	15.33	-52.64	0.0066	-0.3345	-0.333	
-0.16043	0.966484	0.356362	-7.7	14.91	-57.33	0.0292	-0.3363	-0.3365	
-0.207766	0.959286	0.357704	-3.5	15.4	-61.95	0.0319	-0.3317	-0.3334	
-0.194834	0.95465	0.348188	-2.52	17.5	-65.8	0.0347	-0.3287	-0.3381	
-0.23973	0.92476	0.344406	0.14	19.6	-65.38	0.0443	-0.3255	-0.3226	
-0.27877	0.920856	0.3111	1.4	18.97	-64.82	0.0515	-0.3333	-0.326	
-0.322934	0.89731	0.306098	-1.05	16.94	-63.98	0.0698	-0.3289	-0.3277	
-0.324642	0.848022	0.305122	-2.1	11.2	-64.82	0.0698	-0.3244	-0.3339	
-0.304878	0.798734	0.335012	-7.63	6.02	-64.75	0.0826	-0.3369	-0.3327	
-0.30073	0.771894	0.33245	-9.03	-0.07	-63	0.0867	-0.3245	-0.3295	
-0.280966	0.757864	0.33245	-12.46	2.94	-60.2	0.0894	-0.3153	-0.331	
-0.320616	0.791048	0.326228	-11.76	4.55	-55.23	0.0979	-0.32	-0.3327	
-0.42212	0.836188	0.36966	-10.78	3.29	-46.48	0.112	-0.3109	-0.3344	
-0.46848	0.83204	0.355508	-10.08	0.07	-41.86	0.1175	-0.3048	-0.3344	
-0.441274	0.822768	0.365024	-12.74	0.63	-40.95	0.1248	-0.3051	-0.3501	
-0.401868	0.813008	0.38796	-14.63	2.59	-41.02	0.126	-0.2957	-0.3407	
-0.406992	0.77165	0.385154	-14.63	5.67	-38.43	0.1288	-0.2896	-0.3468	
-0.484462	0.758108	0.387106	-12.39	5.11	-34.79	0.136	-0.2975	-0.3502	
-0.527284	0.797636	0.380762	-9.94	3.36	-30.73	0.126	-0.2865	-0.3483	
-0.538996	0.824476	0.408456	-10.5	4.55	-29.82	0.147	-0.2805	-0.3423	
-0.52582	0.79849	0.421998	-10.43	5.67	-31.29	0.1415	-0.2852	-0.3485	
-0.52704	0.740906	0.413824	-10.08	6.79	-32.55	0.1414	-0.279	-0.3516	
-0.547902	0.72468	0.399916	-9.03	5.11	-32.06	0.1427	-0.2804	-0.3392	
-0.559858	0.708332	0.38796	-9.24	3.92	-30.03	0.1428	-0.2759	-0.3484	
-0.559858	0.714066	0.382348	-8.89	3.01	-27.93	0.1597	-0.2792	-0.3503	
-0.533262	0.716872	0.368074	-10.08	2.38	-26.32	0.1625	-0.2715	-0.3518	
-0.533262	0.731512	0.339892	-12.88	1.19	-24.36	0.154	-0.2714	-0.347	
-0.549732	0.713944	0.385276	-17.01	-1.12	-21.42	0.1525	-0.2683	-0.3469	
-0.521916	0.712846	0.420168	-18.9	-1.75	-22.33	0.1637	-0.2637	-0.3455	
-0.53619	0.719922	0.43554	-19.95	-1.75	-23.59	0.1581	-0.2483	-0.3545	
-0.561322	0.731878	0.444324	-20.58	-2.73	-24.36	0.1666	-0.25	-0.3609	
-0.562908	0.722484	0.447252	-21.07	-4.55	-26.25	0.1694	-0.25	-0.3547	
-0.581818	0.69052	0.455182	-21	-6.65	-26.81	0.1638	-0.2438	-0.3608	
-0.596214	0.676856	0.456646	-19.74	-9.59	-24.85	0.1736	-0.2439	-0.3594	
-0.58072	0.658068	0.46604	-19.6	-11.2	-23.24	0.1722	-0.2439	-0.3578	
-0.555344	0.638548	0.477142	-19.04	-8.75	-21.42	0.1622	-0.2345	-0.3606	
-0.60085	0.64172	0.4819	-18.62	-5.6	-17.92	0.1679	-0.2254	-0.3684	
-0.628666	0.63074	0.48007	-17.71	-2.94	-14.98	0.1691	-0.2145	-0.3621	
-0.624518	0.624274	0.506544	-16.45	-1.33	-14.49	0.1706	-0.21	-0.3713	
-0.61488	0.613904	0.513742	-14.14	-1.26	-13.72	0.1693	-0.2208	-0.3699	
-0.609146	0.599996	0.518622	-13.02	-1.75	-12.18	0.1834	-0.218	-0.3763	
-0.620614	0.613294	0.513132	-12.46	-2.38	-10.57	0.1779	-0.218	-0.3856	
-0.623176	0.63135	0.516426	-12.25	-4.48	-7	0.1707	-0.2055	-0.3822	
-0.626104	0.58499	0.508984	-11.13	-5.74	-3.99	0.1663	-0.1946	-0.3757	
-0.64843	0.595848	0.516914	-8.05	-5.11	-1.61	0.1677	-0.1962	-0.3789	
-0.671	0.615002	0.515694	-5.81	-6.58	-0.14	0.1664	-0.2085	-0.3759	
-0.670878	0.60817	0.526186	-4.06	-8.4	1.26	0.1747	-0.2023	-0.3713	
-0.635376	0.60329	0.534116	-3.92	-9.66	1.54	0.1623	-0.2024	-0.3851	
-0.590602	0.585966	0.511912	-7.21	-5.18	2.03	0.1692	-0.207	-0.376	
-0.588162	0.57828	0.516792	-8.12	-4.2	3.57	0.1692	-0.1993	-0.379	
-0.589138	0.573644	0.518622	-8.89	-1.68	5.46	0.1649	-0.1991	-0.3711	
-0.61122	0.60512	0.524722	-10.01	1.82	7.91	0.1692	-0.1916	-0.3835	
-0.639646	0.614758	0.550342	-11.55	3.78	13.44	0.165	-0.2054	-0.3774	
-0.604388	0.570106	0.580476	-14	5.39	16.17	0.1679	-0.1994	-0.3867	
-0.570716	0.539118	0.573278	-12.95	3.71	15.54	0.1638	-0.204	-0.3914	
-0.545218	0.581086	0.535702	-16.1	3.85	14	0.1651	-0.1994	-0.3913	
-0.546682	0.568154	0.56242	-16.45	7.77	15.19	0.1662	-0.1869	-0.3788	
-0.55754	0.567544	0.57401	-12.53	8.4	14.56	0.1636	-0.2039	-0.3805	
-0.564494	0.582428	0.572424	-9.59	8.19	13.72	0.1608	-0.1962	-0.3881	
-0.539728	0.623054	0.552294	-14	14.77	10.57	0.1595	-0.1947	-0.3927	
-0.557418	0.640134	0.570838	-15.12	14.21	10.01	0.1663	-0.1885	-0.3834	
-0.580354	0.597068	0.520208	-16.24	7.56	13.16	0.172	-0.1902	-0.3882	
-0.63867	0.566934	0.516426	-10.92	-1.96	15.19	0.1678	-0.1854	-0.3865	
-0.630008	0.609024	0.501786	-7.56	-11.48	15.33	0.1635	-0.1823	-0.3895	
-0.633058	0.73017	0.51118	-8.26	-17.78	13.44	0.165	-0.1946	-0.3819	
-0.57218	0.6893	0.51972	-11.48	-21.77	15.54	0.1595	-0.1886	-0.3958	
-0.514718	0.674904	0.52765	-12.25	-20.58	13.02	0.1538	-0.1885	-0.3941	
-0.506788	0.691252	0.568398	-10.22	-14.84	11.69	0.1496	-0.1854	-0.3971	
-0.48983	0.716018	0.559736	-5.81	-14.49	11.13	0.1481	-0.1837	-0.3909	
-0.479216	0.682102	0.574132	-6.23	-11.48	13.93	0.1482	-0.1854	-0.3987	
-0.494954	0.64904	0.567544	-7.77	-8.61	16.52	0.1481	-0.1822	-0.3955	
-0.52521	0.636962	0.56791	-7.07	-6.72	18.13	0.1384	-0.1868	-0.4001	
-0.535702	0.63074	0.564738	-2.1	-6.37	17.01	0.1411	-0.1853	-0.3954	
-0.51667	0.622932	0.563762	1.12	-9.59	15.75	0.1343	-0.1915	-0.4078	
-0.47031	0.63074	0.57828	8.05	-11.76	14.77	0.144	-0.1853	-0.397	
-0.480436	0.663436	0.577914	14.35	-8.47	10.78	0.1314	-0.1853	-0.4046	
-0.475922	0.711992	0.577304	17.15	-4.69	7	0.1229	-0.1851	-0.3998	
-0.457378	0.729072	0.592432	14.63	-1.33	3.01	0.1341	-0.1867	-0.3953	
-0.447862	0.690032	0.56547	11.83	2.45	0.21	0.1258	-0.199	-0.3985	
-0.451766	0.680516	0.546316	10.22	4.27	-1.26	0.1258	-0.1945	-0.4031	
-0.436028	0.683566	0.541192	9.38	6.65	-1.26	0.1385	-0.2007	-0.3971	
-0.429928	0.676612	0.541192	8.47	9.31	-0.56	0.1343	-0.1991	-0.3986	
-0.450302	0.67222	0.535336	9.38	10.71	-0.84	0.1342	-0.1991	-0.3924	
-0.468114	0.700524	0.532652	7.35	11.62	-2.17	0.1384	-0.1976	-0.3955	
-0.484706	0.707234	0.52643	3.15	12.81	-4.27	0.1315	-0.2068	-0.394	
-0.498004	0.698938	0.52521	-1.75	14.35	-5.74	0.1285	-0.202	-0.3892	
-0.509594	0.70333	0.516548	-2.59	11.62	-5.95	0.1441	-0.1961	-0.3972	
-0.530822	0.694912	0.503982	-3.92	11.06	-5.39	0.1525	-0.2008	-0.3912	
-0.543754	0.69906	0.516426	-6.58	9.52	-5.67	0.1497	-0.2023	-0.3942	
-0.538752	0.673318	0.515328	-7.28	7.07	-7	0.1525	-0.1993	-0.3927	
-0.51972	0.659166	0.527894	-6.16	4.9	-9.59	0.1552	-0.1931	-0.388	
-0.51423	0.659532	0.534116	-5.32	5.18	-9.66	0.1539	-0.1977	-0.3927	
-0.517524	0.657214	0.549976	-4.69	6.86	-8.61	0.1524	-0.1869	-0.3925	
-0.521184	0.646966	0.54778	-4.06	8.54	-7.91	0.1552	-0.2038	-0.3835	
-0.53497	0.650992	0.543998	-2.8	8.82	-7.49	0.1637	-0.1947	-0.3897	
-0.548512	0.64843	0.536678	-1.75	8.4	-6.58	0.1524	-0.1991	-0.3834	
-0.564616	0.64965	0.527894	-1.75	7.91	-5.95	0.1622	-0.19	-0.3865	
-0.561078	0.648918	0.535458	-1.47	5.88	-4.9	0.1608	-0.1962	-0.385	
-0.561566	0.648674	0.529968	-1.61	3.43	-3.78	0.1565	-0.1899	-0.3849	
-0.554246	0.642574	0.534726	-3.01	3.15	-3.08	0.1649	-0.1854	-0.3834	
-0.547048	0.62403	0.535336	-2.87	3.5	-3.15	0.1666	-0.1994	-0.3945	
-0.557662	0.631594	0.539484	-2.59	4.13	-2.94	0.1623	-0.1962	-0.3881	
-0.568764	0.632204	0.533628	-2.45	3.99	-1.75	0.1664	-0.1824	-0.3942	
-0.580598	0.625738	0.53375	-2.17	3.43	-0.63	0.1608	-0.1931	-0.3865	
-0.593408	0.628056	0.529968	-0.77	1.26	-0.21	0.1651	-0.1947	-0.3882	
-0.59841	0.62769	0.528626	-0.07	-0.28	0.14	0.1649	-0.1839	-0.388	
-0.580476	0.624396	0.530212	0.07	-1.89	0.14	0.1635	-0.1946	-0.3804	
-0.583648	0.62647	0.53314	0.49	-1.96	1.33	0.1664	-0.1978	-0.3836	
-0.593164	0.631106	0.52887	-0.35	-2.8	2.73	0.1594	-0.1916	-0.3911	
-0.597556	0.625006	0.545218	-0.56	-3.99	3.92	0.158	-0.1977	-0.3865	
-0.573278	0.608414	0.547536	0.35	-4.9	4.13	0.1663	-0.1885	-0.3834	
-0.559126	0.611586	0.553392	1.82	-4.76	4.62	0.1636	-0.1885	-0.3881	
-0.565104	0.615856	0.55083	2.17	-3.36	7.56	0.1623	-0.1916	-0.3927	
-0.580232	0.618296	0.554734	3.85	-2.87	10.57	0.1692	-0.1947	-0.3836	
-0.57645	0.627446	0.544242	5.18	-3.01	12.6	0.165	-0.1962	-0.3835	
-0.562664	0.61915	0.553514	6.02	-2.52	15.19	0.1623	-0.1886	-0.3943	
-0.563762	0.61	0.552172	8.19	-2.52	17.85	0.1595	-0.1963	-0.3943	
-0.567544	0.60085	0.54717	9.66	-2.94	21.21	0.161	-0.2025	-0.3944	
-0.569618	0.598288	0.547536	12.67	-5.32	25.2	0.1525	-0.2023	-0.3881	
-0.56059	0.62159	0.546926	14.14	-8.05	28.91	0.1425	-0.2006	-0.3832	
-0.55632	0.629886	0.548512	15.12	-8.47	33.04	0.148	-0.199	-0.374	
-0.540704	0.632204	0.536434	18.55	-9.31	37.52	0.1525	-0.2146	-0.3836	
-0.52338	0.641476	0.530578	21.7	-10.08	39.76	0.1385	-0.2145	-0.388	
-0.501664	0.651236	0.518378	24.57	-9.87	43.47	0.1341	-0.2158	-0.3724	
-0.485438	0.683078	0.524234	26.11	-8.26	46.9	0.133	-0.2314	-0.385	
-0.47641	0.682834	0.511302	26.18	-7.07	51.31	0.1273	-0.2329	-0.3818	
-0.444324	0.683078	0.501664	27.3	-9.38	52.5	0.1218	-0.2406	-0.3834	
-0.423828	0.699792	0.493368	30.03	-11.97	52.64	0.1243	-0.2418	-0.3617	
-0.429806	0.745054	0.479216	31.78	-12.53	55.16	0.1134	-0.2497	-0.3772	
-0.44591	0.764696	0.474336	32.97	-12.32	58.52	0.1162	-0.2543	-0.3726	
-0.436882	0.768356	0.45628	33.04	-15.05	59.92	0.105	-0.2603	-0.3741	
-0.422852	0.779702	0.441518	32.13	-16.87	59.29	0.0981	-0.2742	-0.3741	
-0.387106	0.796538	0.449204	31.92	-19.81	58.1	0.08679999	-0.2848	-0.3648	
-0.349896	0.831308	0.441884	31.85	-21.42	58.66	0.0826	-0.2878	-0.3647	
-0.307074	0.84546	0.426756	31.22	-22.54	59.99	0.07539999	-0.2845	-0.3552	
-0.283772	0.875228	0.401746	30.17	-24.78	61.32	0.0628	-0.2921	-0.3536	
-0.273524	0.865712	0.386984	27.65	-23.94	62.65	0.0628	-0.2967	-0.3505	
-0.241438	0.860222	0.381738	26.95	-25.41	60.13	0.0318	-0.301	-0.3501	
-0.211304	0.874984	0.388204	27.23	-25.55	59.92	0.032	-0.3164	-0.3487	
-0.177144	0.871202	0.377468	25.55	-26.32	60.83	0.0247	-0.3162	-0.3362	
-0.14762	0.863516	0.381982	24.29	-26.18	61.46	0.0093	-0.3207	-0.3376	
-0.116632	0.8662	0.370392	24.08	-26.25	62.72	0.0067	-0.3239	-0.3484	
-0.092598	0.88877	0.373686	24.01	-26.6	63.84	-0.0018	-0.3252	-0.3405	
-0.069052	0.904264	0.371002	22.26	-26.04	65.59	-0.006	-0.3267	-0.3374	
-0.058316	0.917806	0.357094	20.44	-26.67	66.57	-0.0243	-0.3295	-0.334	
-0.048922	0.890478	0.33977	18.69	-27.37	67.83	-0.0385	-0.3354	-0.3245	
-0.006344	0.894748	0.357704	20.79	-28.77	66.5	-0.0485	-0.3306	-0.3165	
0.030988	0.913536	0.338794	20.44	-28.14	66.99	-0.0625	-0.3397	-0.3164	
0.053924	0.925858	0.325008	20.37	-27.44	68.04	-0.0654	-0.3288	-0.3163	
0.079666	0.91561	0.31964	19.04	-23.94	68.88	-0.0753	-0.3333	-0.313	
0.117242	0.92171	0.32269	20.72	-23.1	68.6	-0.0851	-0.3378	-0.3129	
0.13908	0.939522	0.306098	19.53	-21.7	68.18	-0.09209999	-0.3362	-0.3159	
0.134688	0.950014	0.298778	16.66	-18.55	66.71	-0.1161	-0.3375	-0.3124	
0.158966	0.920368	0.29829	17.43	-20.37	63.77	-0.1203	-0.3421	-0.3124	
0.204594	0.899994	0.2928	18.2	-24.78	61.46	-0.1316	-0.3342	-0.3137	
0.248758	0.887916	0.299876	19.95	-25.69	58.17	-0.1305	-0.3324	-0.2935	
0.287798	0.889502	0.286334	19.32	-27.09	58.66	-0.1417	-0.3354	-0.2965	
0.315248	0.921588	0.275598	23.38	-20.09	56.77	-0.1558	-0.3337	-0.2978	
0.323544	0.92049	0.261446	21.07	-18.62	59.08	-0.1474	-0.3384	-0.2886	
0.33672	0.913658	0.254736	21.07	-17.92	55.65	-0.1659	-0.3288	-0.2836	
0.34465	0.922198	0.24949	20.58	-17.99	52.08	-0.1783	-0.3381	-0.2928	
0.344406	0.922686	0.22509	21.14	-16.24	49.21	-0.1856	-0.3363	-0.2818	
0.362584	0.907436	0.214842	24.36	-14.7	45.22	-0.1913	-0.33	-0.2785	
0.384544	0.898774	0.222528	25.27	-13.51	44.1	-0.1999	-0.3344	-0.2675	
0.396012	0.881938	0.202154	24.22	-17.08	44.1	-0.2056	-0.3296	-0.2612	
0.417606	0.882914	0.176046	21.42	-20.72	43.05	-0.2085	-0.328	-0.2611	
0.439444	0.873398	0.15799	18.97	-20.65	43.4	-0.2183	-0.331	-0.2625	
0.454816	0.873276	0.16958	18.06	-20.72	45.22	-0.2227	-0.3201	-0.2545	
0.50447	0.885354	0.162748	21.14	-20.79	42.84	-0.2325	-0.3354	-0.253	
0.527162	0.901214	0.144936	20.09	-19.32	44.03	-0.2396	-0.3275	-0.2497	
0.538386	0.915976	0.147986	17.85	-17.85	44.1	-0.2427	-0.3257	-0.2325	
0.543022	0.926224	0.150182	15.96	-17.36	42.84	-0.2454	-0.3243	-0.2434	
0.53314	0.903898	0.146156	10.36	-14.84	41.44	-0.2567	-0.3272	-0.237	
0.516792	0.859124	0.137494	9.59	-17.99	39.41	-0.2542	-0.3162	-0.2245	
0.531676	0.833504	0.110288	9.24	-20.86	36.54	-0.2612	-0.3177	-0.2228	
0.55144	0.835578	0.098942	10.29	-21.91	34.51	-0.2739	-0.3114	-0.2287	
0.55693	0.842898	0.078568	13.51	-15.12	33.11	-0.2783	-0.3035	-0.2208	
0.550708	0.851438	0.103578	8.61	-17.5	33.81	-0.2869	-0.3049	-0.2098	
0.581452	0.841312	0.103822	8.19	-18.83	33.18	-0.2853	-0.3081	-0.2176	
0.603656	0.82411	0.092476	9.1	-17.36	31.92	-0.2869	-0.3018	-0.2129	
0.63562	0.816668	0.091134	9.03	-19.95	30.94	-0.2969	-0.2969	-0.2049	
0.658312	0.814716	0.088572	10.57	-21.42	32.83	-0.2996	-0.3016	-0.208	
0.655872	0.815204	0.076494	10.71	-21.14	33.88	-0.311	-0.2983	-0.2047	
0.647088	0.832528	0.065758	9.73	-19.74	32.83	-0.3012	-0.2968	-0.2001	
0.644892	0.789828	0.051606	5.39	-15.26	28.91	-0.3083	-0.286	-0.2045	
0.66978	0.77775	0.03538	5.46	-14.56	27.23	-0.3153	-0.2813	-0.209	
0.67527	0.783362	0.045872	6.09	-13.58	26.81	-0.3184	-0.278	-0.1934	
0.664046	0.776286	0.034648	4.83	-13.09	26.25	-0.3268	-0.2856	-0.1902	
0.660874	0.776408	0.041114	4.27	-13.79	24.5	-0.3252	-0.2904	-0.1981	
0.668926	0.757498	0.040016	2.59	-13.86	22.33	-0.3296	-0.2871	-0.1902	
0.684664	0.73322	0.032818	1.54	-14.07	20.09	-0.334	-0.2747	-0.1884	
0.71675	0.742126	0.033672	2.94	-14.21	19.81	-0.3381	-0.2701	-0.1961	
0.732366	0.735782	0.025742	1.89	-13.02	19.74	-0.3426	-0.2698	-0.1789	
0.739808	0.743224	0.036234	1.82	-12.53	20.16	-0.3341	-0.27	-0.1868	
0.735782	0.741028	0.038308	0.42	-10.5	20.37	-0.3496	-0.2698	-0.185	
0.73932	0.733708	0.02013	1.47	-9.59	20.58	-0.3511	-0.262	-0.1802	
0.739564	0.736636	0.028914	1.68	-8.75	19.32	-0.3442	-0.262	-0.1726	
0.745176	0.733586	0.01525	-0.14	-6.51	17.08	-0.3541	-0.2557	-0.177	
0.733708	0.72407	0.005124	-0.63	-4.34	13.16	-0.3583	-0.2618	-0.1739	
0.714066	0.727608	0.005978	-1.61	-4.27	9.59	-0.354	-0.2573	-0.1801	
0.69967	0.715286	0.01769	-3.29	-4.55	7.84	-0.361	-0.2634	-0.1801	
0.712724	0.704428	0.033916	-4.2	-5.46	6.09	-0.364	-0.2509	-0.1721	
0.723094	0.676734	0.044164	-6.3	-5.18	5.46	-0.3499	-0.2511	-0.1739	
0.730292	0.669048	0.032208	-4.34	-3.43	3.71	-0.3626	-0.2617	-0.1691	
0.739076	0.682346	0.030866	-4.06	-4.69	6.58	-0.3627	-0.2401	-0.172	
0.747128	0.68625	0.021472	-2.24	-6.02	9.73	-0.3611	-0.2526	-0.1768	
0.753838	0.693448	0.03477	-2.45	-4.9	9.73	-0.3612	-0.2433	-0.1767	
0.753838	0.701012	0.038918	-0.42	-1.54	8.89	-0.3655	-0.2447	-0.1704	
0.749812	0.720532	0.039772	-0.7	-2.66	9.59	-0.3615	-0.2431	-0.1611	
0.753594	0.725046	0.041724	-1.26	-2.8	10.08	-0.3656	-0.2431	-0.1642	
0.765184	0.710894	0.036966	0.56	-1.19	9.45	-0.3556	-0.2418	-0.1783	
0.757742	0.710894	0.043066	-1.12	1.33	7.49	-0.36	-0.237	-0.1704	
0.737612	0.709064	0.032208	-0.7	1.75	4.83	-0.3656	-0.2324	-0.1765	
0.734318	0.697962	0.027816	-1.68	2.94	3.64	-0.3685	-0.2415	-0.1626	
0.734806	0.689422	0.023668	0.07	2.1	1.75	-0.364	-0.2449	-0.1813	
0.728218	0.70333	0.015006	0.35	1.75	-0.42	-0.3626	-0.2479	-0.1783	
0.711016	0.710772	0.015616	0.35	1.61	-1.26	-0.3657	-0.2323	-0.1656	
0.707356	0.700646	0.029036	-1.26	0.7	-1.89	-0.3696	-0.2509	-0.1751	
0.723826	0.691984	0.035868	-1.4	0.98	-1.68	-0.3685	-0.2307	-0.1687	
0.730658	0.671366	0.035014	-1.54	-0.14	-0.7	-0.3656	-0.2385	-0.1688	
0.73322	0.659898	0.034282	-0.35	-0.63	0.35	-0.3628	-0.2324	-0.1703	
0.737368	0.66063	0.027572	1.4	-1.89	0.56	-0.3642	-0.2415	-0.1642	
0.736514	0.672952	0.032818	1.96	-1.61	1.05	-0.3641	-0.2432	-0.1735	
0.725656	0.69174	0.033428	2.59	-2.24	2.03	-0.3725	-0.2462	-0.1719	
0.729316	0.687592	0.031964	2.1	-1.82	1.89	-0.3728	-0.2398	-0.1578	
0.737246	0.67893	0.030134	2.24	-2.1	1.82	-0.364	-0.2432	-0.1767	
0.74054	0.679784	0.025742	1.96	-1.54	2.31	-0.3655	-0.2417	-0.1751	
0.74542	0.693326	0.024888	2.73	-1.61	2.73	-0.3713	-0.2461	-0.161	
0.741394	0.701744	0.021106	2.73	-0.7	3.78	-0.3741	-0.2445	-0.1625	
0.743102	0.701988	0.017568	1.47	-0.42	3.5	-0.3655	-0.2401	-0.175	
0.737978	0.698328	0.013176	0.07	0.77	0.91	-0.3684	-0.2462	-0.1673	
0.723826	0.699792	0.011468	-0.14	1.4	1.26	-0.3683	-0.2401	-0.1797	
0.729194	0.701622	0.010858	-0.49	0.91	1.4	-0.3671	-0.2338	-0.1672	
0.730536	0.694058	0.017568	-0.21	-0.42	1.4	-0.3657	-0.2369	-0.1641	
0.73383	0.698084	0.015738	0.14	-1.4	1.47	-0.3656	-0.2354	-0.1719	
0.739686	0.695766	0.015738	0.28	-1.61	0.49	-0.3713	-0.2369	-0.1671	
0.74359	0.703696	0.022692	0.77	-1.61	0	-0.3684	-0.2369	-0.1703	
0.750422	0.69723	0.02196	0	-1.05	-0.7	-0.3771	-0.2305	-0.1592	
0.752252	0.696864	0.017812	-0.21	-0.14	-1.33	-0.3697	-0.2508	-0.1689	
0.7442	0.697352	0.011834	-0.28	1.12	-1.33	-0.3686	-0.2246	-0.1701	
0.740906	0.698938	0.00915	-0.49	1.05	-0.63	-0.3699	-0.2338	-0.1702	
0.745298	0.687226	0.008417999	-0.49	0.77	-1.19	-0.3725	-0.237	-0.178	
0.750544	0.697596	0.013664	-0.28	1.47	-1.89	-0.3683	-0.2325	-0.1842	
0.750422	0.699792	0.02074	-1.19	2.31	-2.66	-0.374	-0.2477	-0.1672	
0.753472	0.701622	0.015738	-0.49	2.87	-3.57	-0.3725	-0.237	-0.1796	
0.745908	0.698816	0.006832	-2.24	2.45	-4.06	-0.3654	-0.2556	-0.1737	
0.741638	0.699426	0.01403	-2.52	3.29	-5.32	-0.3685	-0.2338	-0.1671	
0.757986	0.702842	0.019764	-2.17	2.38	-5.74	-0.3683	-0.2462	-0.1704	
0.768966	0.716506	0.016958	-2.52	2.73	-6.37	-0.3585	-0.254	-0.166	
0.772748	0.730902	0.01464	-4.27	4.97	-7.84	-0.3628	-0.2401	-0.1704	
0.774578	0.726876	0.023424	-7.07	5.88	-9.66	-0.3685	-0.2369	-0.1687	
0.788364	0.724558	0.015616	-7.98	7.28	-11.06	-0.3583	-0.2465	-0.1846	
0.787266	0.725534	0.021838	-9.59	9.45	-12.32	-0.364	-0.2433	-0.1782	
0.78568	0.726388	0.023668	-10.5	11.41	-14.7	-0.3555	-0.2435	-0.1861	
0.773724	0.73383	0.01525	-11.62	13.93	-18.34	-0.3681	-0.2526	-0.1829	
0.75579	0.743346	0.023424	-12.88	15.54	-23.1	-0.3625	-0.248	-0.1845	
0.735904	0.743956	0.029402	-11.48	16.17	-27.23	-0.347	-0.2466	-0.1832	
0.723948	0.757254	0.041968	-7.7	14.14	-29.96	-0.344	-0.2545	-0.1911	
0.717238	0.7564	0.04697	-8.47	14.28	-31.78	-0.351	-0.2606	-0.1895	
0.735538	0.738832	0.055998	-8.54	16.73	-34.51	-0.3397	-0.2577	-0.1943	
0.726998	0.73749	0.063928	-11.48	15.12	-34.72	-0.3339	-0.261	-0.2069	
0.721142	0.74542	0.072712	-12.46	19.18	-36.47	-0.334	-0.264	-0.1976	
0.680882	0.75335	0.092842	-11.9	21.49	-40.11	-0.3253	-0.2734	-0.2057	
0.65758	0.78629	0.072956	-10.08	22.12	-42.21	-0.3139	-0.269	-0.2151	
0.645014	0.811422	0.069662	-11.27	23.17	-45.08	-0.3195	-0.2813	-0.2136	
0.64599	0.81313	0.082838	-14.35	22.33	-50.05	-0.3109	-0.2892	-0.217	
0.634644	0.814716	0.108702	-17.78	22.61	-53.76	-0.2997	-0.2847	-0.2171	
0.623908	0.82289	0.121512	-18.9	22.4	-57.75	-0.2955	-0.2817	-0.2171	
0.59536	0.815326	0.13298	-17.78	23.59	-56.42	-0.2854	-0.2866	-0.2298	
0.566934	0.816302	0.141032	-18.06	20.72	-55.72	-0.2782	-0.3006	-0.2301	
0.568154	0.823622	0.151036	-17.92	20.58	-52.36	-0.2738	-0.3069	-0.2365	
0.56791	0.796904	0.145546	-21.35	21.7	-51.94	-0.2723	-0.307	-0.2443	
0.541802	0.815448	0.145302	-22.19	22.54	-52.29	-0.2609	-0.3057	-0.2553	
0.511668	0.847656	0.1586	-22.54	23.66	-51.52	-0.2511	-0.3135	-0.2462	
0.495564	0.894626	0.201544	-18.83	20.3	-50.96	-0.2397	-0.3076	-0.2619	
0.488	0.920368	0.226188	-19.11	16.87	-49.35	-0.2425	-0.309	-0.2556	
0.485438	0.892674	0.242536	-21.07	17.57	-50.61	-0.2257	-0.3184	-0.2483	
0.47092	0.862296	0.225456	-21.63	20.51	-54.04	-0.2224	-0.3249	-0.2717	
0.427854	0.863882	0.219112	-20.02	22.12	-55.16	-0.2225	-0.3188	-0.2747	
0.370758	0.872422	0.225578	-18.27	21.98	-54.11	-0.2082	-0.3329	-0.2783	
0.297924	0.896822	0.235582	-18.48	21.98	-53.76	-0.2069	-0.3159	-0.2812	
0.27328	0.917196	0.262178	-18.34	21.28	-53.9	-0.1842	-0.3255	-0.2863	
0.288042	0.919514	0.268888	-17.64	18.41	-56.35	-0.1912	-0.3225	-0.294	
0.310978	0.928786	0.275232	-19.67	17.08	-59.29	-0.1857	-0.3285	-0.2801	
0.298412	0.922442	0.292556	-22.82	18.41	-60.69	-0.1754	-0.3397	-0.2991	
0.270352	0.906948	0.288774	-24.92	18.9	-59.99	-0.167	-0.3291	-0.3069	
0.23241	0.890112	0.279624	-25.76	18.2	-56.77	-0.153	-0.3307	-0.2962	
0.228506	0.900848	0.295362	-26.11	17.01	-57.4	-0.1474	-0.3261	-0.2978	
0.19154	0.91195	0.331718	-27.3	19.46	-57.54	-0.1388	-0.3248	-0.3073	
0.139446	0.935008	0.355508	-25.2	19.67	-58.24	-0.1317	-0.3265	-0.3105	
0.113216	0.912926	0.357582	-25.83	20.86	-56.77	-0.1232	-0.3328	-0.3123	
0.116754	0.887306	0.366244	-28.84	19.18	-56.49	-0.1076	-0.333	-0.3172	
0.120902	0.871812	0.386984	-30.52	18.34	-56	-0.102	-0.3224	-0.3265	
0.081496	0.879742	0.39772	-27.51	25.2	-56.14	-0.0836	-0.3242	-0.3315	
0.054412	0.868152	0.402234	-23.94	23.66	-53.76	-0.078	-0.3119	-0.3345	
0.027328	0.873154	0.400648	-21.98	29.33	-54.88	-0.0709	-0.3182	-0.3347	
0.011712	0.867176	0.390766	-21.63	25.76	-55.09	-0.0736	-0.3198	-0.3424	
0.020374	0.856806	0.40443	-20.79	26.46	-56.77	-0.0639	-0.309	-0.3378	
0.006344	0.842044	0.416508	-20.79	28.21	-56.28	-0.0469	-0.3216	-0.3367	
-0.023668	0.8418	0.406748	-20.37	26.67	-54.53	-0.0385	-0.3155	-0.3398	
-0.082106	0.85156	0.41907	-20.09	29.54	-50.96	-0.0355	-0.3234	-0.3493	
-0.127734	0.869616	0.410042	-20.72	27.16	-48.86	-0.0214	-0.3251	-0.348	
-0.145302	0.884988	0.415166	-21.77	25.34	-47.88	-0.0145	-0.3051	-0.351	
-0.149328	0.874252	0.432856	-22.12	28.77	-48.72	-0.0074	-0.2991	-0.3603	
-0.162992	0.85461	0.442738	-20.86	26.32	-49	0.0009999999	-0.3084	-0.3575	
-0.171532	0.872544	0.446154	-18.13	24.85	-50.54	0.0094	-0.3039	-0.3591	
-0.185684	0.879498	0.442982	-17.36	27.23	-51.1	0.0165	-0.3025	-0.3592	
-0.217404	0.869128	0.45872	-18.55	28.77	-50.26	0.0251	-0.295	-0.3748	
-0.238998	0.83692	0.45506	-18.2	26.95	-48.72	0.0348	-0.2889	-0.3733	
-0.250344	0.797636	0.443714	-17.15	23.73	-46.41	0.0404	-0.2904	-0.3641	
-0.253028	0.79178	0.46482	-16.66	25.9	-43.89	0.0489	-0.2845	-0.3735	
-0.285114	0.799466	0.468846	-14.28	29.75	-42.98	0.05	-0.275	-0.3609	
-0.318908	0.820206	0.4331	-14.63	29.12	-41.51	0.0614	-0.2768	-0.3674	
-0.338306	0.831674	0.448716	-14.84	30.1	-40.04	0.0698	-0.2738	-0.3659	
-0.351116	0.796172	0.461892	-17.78	31.57	-38.99	0.0813	-0.2818	-0.3786	
-0.35929	0.783972	0.47092	-16.38	30.17	-38.5	0.0867	-0.2725	-0.3708	
-0.353556	0.79422	0.475068	-15.61	30.17	-37.59	0.0881	-0.2617	-0.3723	
-0.369782	0.781776	0.475678	-16.1	29.75	-35.56	0.1007	-0.2618	-0.3709	
-0.41175	0.767502	0.457988	-15.68	29.12	-33.88	0.105	-0.2619	-0.3725	
-0.423828	0.78202	0.456646	-14.77	28.07	-34.37	0.1078	-0.2619	-0.3757	
-0.433588	0.769332	0.464576	-16.8	26.88	-35.98	0.1175	-0.2497	-0.3741	
-0.46299	0.745908	0.46116	-18.55	23.94	-35.56	0.1232	-0.2467	-0.3757	
-0.480924	0.744322	0.460916	-17.92	19.46	-34.58	0.1259	-0.2344	-0.3787	
-0.439322	0.734196	0.482754	-18.9	17.85	-34.44	0.1373	-0.2438	-0.3821	
-0.442738	0.719312	0.468724	-19.53	17.99	-31.92	0.147	-0.2315	-0.3775	
-0.519842	0.709064	0.489464	-17.29	19.04	-28.21	0.1555	-0.2209	-0.3899	
-0.531432	0.718946	0.48312	-16.38	16.38	-29.4	0.1527	-0.227	-0.3853	
-0.508618	0.70516	0.490928	-17.43	15.4	-30.52	0.1596	-0.2209	-0.3853	
-0.50874	0.673318	0.49288	-17.71	13.09	-28.77	0.1583	-0.224	-0.3869	
-0.546926	0.693082	0.51179	-15.47	13.79	-27.44	0.1665	-0.2055	-0.3837	
-0.557296	0.695522	0.50264	-16.73	11.27	-26.11	0.1791	-0.2086	-0.3746	
-0.522648	0.649406	0.516548	-17.71	11.13	-26.11	0.1749	-0.204	-0.3822	
-0.502396	0.634156	0.516792	-16.38	11.41	-25.69	0.1791	-0.2025	-0.3792	
-0.505202	0.618296	0.521184	-15.12	12.74	-22.68	0.1818	-0.1902	-0.3837	
-0.537288	0.624152	0.507276	-11.83	15.54	-20.37	0.1721	-0.2024	-0.3822	
-0.599142	0.646722	0.507032	-9.17	17.78	-18.76	0.179	-0.1932	-0.3821	
-0.626104	0.661728	0.48739	-9.52	19.74	-18.27	0.1874	-0.184	-0.3806	
-0.637084	0.64904	0.50813	-10.71	19.6	-18.62	0.1816	-0.1808	-0.3711	
-0.659654	0.634278	0.509472	-10.92	15.19	-18.97	0.1916	-0.1872	-0.3823	
-0.673074	0.631716	0.518744	-10.85	8.68	-19.74	0.1985	-0.1794	-0.373	
-0.620736	0.576572	0.528382	-10.29	1.75	-20.23	0.2055	-0.1765	-0.3761	
-0.59597	0.553026	0.527528	-9.8	0.28	-18.06	0.1957	-0.1779	-0.3776	
-0.579256	0.560712	0.530456	-8.96	1.05	-16.24	0.2013	-0.1734	-0.3807	
-0.590724	0.563152	0.53131	-7	4.06	-14.98	0.2141	-0.1828	-0.3795	
-0.603656	0.575718	0.521672	-6.93	7.63	-12.67	0.2013	-0.1733	-0.376	
-0.609634	0.575962	0.51179	-8.75	13.3	-9.38	0.2014	-0.1703	-0.3838	
-0.627324	0.560712	0.506056	-11.62	15.33	-6.16	0.2095	-0.1564	-0.3728	
-0.621346	0.573522	0.518622	-11.76	15.68	-4.76	0.2097	-0.1596	-0.3838	
-0.620736	0.590968	0.526674	-11.48	16.17	-4.34	0.214	-0.1658	-0.3823	
-0.630496	0.598654	0.515328	-8.54	12.39	-3.78	0.211	-0.1626	-0.3729	
-0.645746	0.595726	0.491782	-6.3	10.36	-4.76	0.2166	-0.1519	-0.3775	
-0.64965	0.625982	0.496052	-5.74	10.15	-6.44	0.2211	-0.1659	-0.3871	
-0.655872	0.602558	0.494222	-6.09	8.82	-6.65	0.2179	-0.1533	-0.3698	
-0.664046	0.587064	0.497516	-5.81	8.47	-5.88	0.218	-0.1549	-0.3745	
-0.677222	0.596092	0.505202	-4.06	9.73	-6.65	0.2234	-0.1533	-0.3652	
-0.663314	0.592554	0.5002	-3.15	10.57	-8.33	0.2179	-0.1488	-0.376	
-0.678808	0.585722	0.502274	-1.75	9.94	-10.29	0.2334	-0.1489	-0.3731	
-0.690642	0.577914	0.475312	-1.47	6.93	-10.01	0.2265	-0.1536	-0.3824	
-0.686372	0.561444	0.479338	-2.59	4.48	-9.17	0.2235	-0.1457	-0.376	
-0.68442	0.550464	0.495076	-2.73	1.68	-7.98	0.2318	-0.1395	-0.3667	
-0.666974	0.55205	0.499712	-2.52	0.35	-7.98	0.2305	-0.1381	-0.3776	
-0.667584	0.563884	0.504226	-1.61	0.07	-7.77	0.2235	-0.1503	-0.3714	
-0.670512	0.560224	0.494466	-1.75	0.56	-6.65	0.2235	-0.1457	-0.3729	
-0.670756	0.553026	0.503982	-1.47	-0.56	-6.79	0.2305	-0.1442	-0.373	
-0.647698	0.539362	0.506788	-1.68	0.56	-6.16	0.2333	-0.1443	-0.3746	
-0.65209	0.525332	0.49776	-1.61	0.98	-6.23	0.2306	-0.1351	-0.3853	
-0.65148	0.540826	0.494954	-0.98	3.99	-5.88	0.2389	-0.1428	-0.3731	
-0.681858	0.554856	0.483974	-0.63	4.2	-4.76	0.2318	-0.1365	-0.3745	
-0.700768	0.548512	0.485194	-1.4	2.66	-4.55	0.2388	-0.1319	-0.3699	
-0.702842	0.545828	0.48007	-1.96	0.07	-4.41	0.2447	-0.1491	-0.3795	
-0.706624	0.547902	0.50386	-1.47	-2.03	-4.34	0.2333	-0.1319	-0.3776	
-0.654652	0.546072	0.511302	-1.89	-0.14	-2.8	0.2289	-0.1271	-0.3696	
-0.683932	0.539118	0.496906	-1.89	1.12	-1.26	0.2431	-0.132	-0.3762	
-0.709552	0.550342	0.496052	-1.47	0.56	-1.4	0.2332	-0.1303	-0.3729	
-0.70638	0.536556	0.502518	-1.47	-1.96	-2.31	0.2404	-0.1413	-0.3778	
-0.696986	0.521916	0.504104	-1.05	-3.78	-1.82	0.2361	-0.1412	-0.3731	
-0.68381	0.528748	0.505324	0.21	-5.53	-0.56	0.2376	-0.1397	-0.3777	
-0.673684	0.537898	0.499956	0.49	-3.57	0.84	0.2362	-0.1352	-0.3854	
-0.682712	0.55388	0.49715	-0.07	-1.89	2.45	0.2334	-0.1459	-0.3793	
-0.690398	0.550952	0.499346	0.07	-0.49	2.59	0.236	-0.1426	-0.3653	
-0.688446	0.546194	0.495442	0	-1.19	1.96	0.2304	-0.1365	-0.3729	
-0.69662	0.54717	0.49898	-0.28	-2.17	2.1	0.232	-0.1458	-0.3777	
-0.66978	0.55449	0.507154	-0.14	-3.5	1.82	0.2303	-0.1318	-0.3666	
-0.641598	0.545584	0.507398	-0.35	-3.85	1.96	0.2304	-0.1349	-0.3729	
-0.623786	0.559614	0.502884	1.19	-2.31	1.47	0.2278	-0.1474	-0.3792	
-0.632082	0.580598	0.495808	1.26	0.28	1.96	0.2332	-0.138	-0.3714	
-0.65453	0.567178	0.493124	0.14	1.68	0.63	0.2291	-0.1458	-0.373	
-0.641842	0.564738	0.491782	0	1.19	-0.77	0.2348	-0.1474	-0.3778	
-0.657092	0.568398	0.488244	-0.63	2.45	-1.33	0.2248	-0.1379	-0.3713	
-0.663436	0.570106	0.496052	-0.98	2.38	-1.4	0.2246	-0.1317	-0.3665	
-0.67588	0.560956	0.491904	-1.26	2.03	-1.75	0.229	-0.1396	-0.3729	
-0.668438	0.565958	0.498126	-0.77	1.61	-1.68	0.236	-0.1396	-0.3684	
-0.68625	0.55876	0.485804	-1.75	0.84	-1.54	0.2292	-0.1443	-0.3808	
-0.692838	0.566324	0.4941	-2.1	0.28	-1.12	0.2289	-0.1302	-0.3681	
-0.683688	0.565836	0.488854	-3.22	0.28	-0.21	0.2317	-0.1379	-0.3605	
-0.685274	0.55937	0.490562	-4.13	-0.56	0.56	0.2346	-0.1365	-0.3683	
-0.687958	0.549	0.495198	-4.06	-0.91	1.12	0.2373	-0.1303	-0.3683	
-0.689422	0.542168	0.498126	-3.78	-1.68	1.82	0.2346	-0.1319	-0.3714	
-0.694668	0.539972	0.498248	-4.62	-2.66	2.66	0.2334	-0.1413	-0.3823	
-0.68869	0.54656	0.5063	-3.99	-4.62	4.13	0.2276	-0.1288	-0.3774	
-0.664412	0.53802	0.51057	-3.22	-4.55	4.62	0.2263	-0.1365	-0.3791	
-0.651602	0.53985	0.50813	-4.41	-4.06	5.18	0.2316	-0.1241	-0.3681	
-0.65148	0.537654	0.510936	-4.55	-3.43	5.6	0.2305	-0.1319	-0.3791	
-0.678076	0.546194	0.510692	-4.55	-2.1	5.32	0.2263	-0.135	-0.3821	
-0.674538	0.545584	0.514718	-1.89	-3.15	4.83	0.2318	-0.1304	-0.376	
-0.66246	0.542412	0.520208	-1.47	-3.29	4.55	0.2248	-0.1287	-0.3774	
-0.662704	0.543998	0.525576	1.4	-4.13	5.18	0.2291	-0.1273	-0.3836	
-0.671	0.542168	0.5246	1.61	-3.64	6.65	0.2347	-0.132	-0.3807	
-0.676124	0.53253	0.519964	2.03	-4.27	8.19	0.2177	-0.1302	-0.3773	
-0.688568	0.530578	0.522648	2.17	-5.53	9.87	0.2293	-0.1429	-0.3885	
-0.692716	0.529358	0.53497	3.36	-7	11.34	0.2221	-0.1288	-0.3851	
-0.693326	0.528748	0.533262	5.25	-9.38	13.16	0.2291	-0.1412	-0.3792	
-0.68442	0.524234	0.526552	6.72	-10.78	15.26	0.2193	-0.1396	-0.3836	
-0.681736	0.542168	0.526552	8.26	-12.39	17.57	0.2136	-0.141	-0.3774	
-0.68991	0.552172	0.521306	8.26	-12.81	19.95	0.2208	-0.1427	-0.3837	
-0.672952	0.557052	0.528504	7.91	-16.66	22.47	0.2123	-0.1456	-0.379	
-0.670756	0.55266	0.528382	7.35	-15.89	23.94	0.2069	-0.155	-0.3868	
-0.657946	0.546438	0.529846	8.47	-21.84	25.83	0.2137	-0.1518	-0.3728	
-0.62037	0.55022	0.546926	12.74	-23.66	27.65	0.1998	-0.1533	-0.3835	
-0.617442	0.549488	0.516182	12.67	-22.54	30.66	0.1929	-0.1641	-0.3851	
-0.612684	0.58499	0.541924	12.11	-20.72	33.67	0.1886	-0.1656	-0.3851	
-0.612562	0.581574	0.530334	13.3	-24.15	36.47	0.1761	-0.1732	-0.3896	
-0.603656	0.590968	0.54595	14.84	-24.36	37.31	0.1844	-0.1732	-0.3804	
-0.579866	0.60939	0.512156	16.31	-25.48	39.06	0.1762	-0.1809	-0.3882	
-0.572058	0.650992	0.530334	17.71	-23.66	40.88	0.1692	-0.184	-0.3896	
-0.543144	0.604022	0.53985	17.22	-24.78	43.82	0.1663	-0.1839	-0.3865	
-0.526186	0.609878	0.542778	19.46	-23.38	44.87	0.158	-0.1946	-0.3865	
-0.520818	0.67405	0.55693	21.7	-24.36	47.74	0.1525	-0.2039	-0.3912	
-0.501786	0.687226	0.527162	21.77	-25.34	49.35	0.1495	-0.1991	-0.3833	
-0.486048	0.648674	0.533872	22.26	-27.02	51.03	0.14	-0.2085	-0.3973	
-0.454572	0.631106	0.537654	24.85	-29.33	49.42	0.1286	-0.2174	-0.3832	
-0.427854	0.648674	0.540216	30.38	-33.74	49.07	0.1301	-0.2283	-0.3834	
-0.431636	0.708698	0.466772	32.48	-33.53	53.62	0.1359	-0.2315	-0.3882	
-0.403454	0.802882	0.488854	29.05	-23.66	58.66	0.1062	-0.2357	-0.3815	
-0.38613	0.726998	0.512766	30.24	-25.06	59.5	0.1063	-0.248	-0.3755	
-0.376492	0.71431	0.493002	31.01	-29.47	57.75	0.0896	-0.2511	-0.3892	
-0.354776	0.703452	0.477996	33.25	-34.72	56.7	0.0951	-0.2556	-0.3754	
-0.291458	0.771894	0.462624	35.63	-38.29	57.4	0.0881	-0.2663	-0.3692	
-0.251686	0.822158	0.464942	32.9	-36.26	61.25	0.0657	-0.2662	-0.3813	
-0.23302	0.830698	0.463112	28.84	-36.4	65.17	0.0586	-0.2676	-0.375	
-0.218868	0.83204	0.47885	26.46	-34.65	65.87	0.0346	-0.2765	-0.3685	
-0.193858	0.823256	0.478484	28	-39.69	64.89	0.0361	-0.2949	-0.3563	
-0.14823	0.841312	0.451278	35	-35.14	61.39	0.0179	-0.2979	-0.3654	
-0.141154	0.881572	0.41846	34.86	-33.95	62.79	0.0179	-0.2979	-0.3654	
-0.137616	0.910486	0.419924	33.67	-29.82	63.35	0.0052	-0.2993	-0.3636	
-0.134688	0.891332	0.41663	30.03	-31.22	63.84	-0.0158	-0.3052	-0.3572	
-0.105286	0.864248	0.394304	27.65	-34.3	63.07	-0.0116	-0.3052	-0.3541	
-0.069296	0.855952	0.392474	25.55	-34.93	61.11	-0.0116	-0.3052	-0.3541	
0.000488	0.87718	0.371246	25.2	-36.47	59.85	-0.0455	-0.3139	-0.3413	
0.048068	0.917684	0.361364	26.39	-30.73	60.97	-0.0566	-0.317	-0.3489	
0.067832	0.941108	0.341112	24.29	-30.38	61.6	-0.0566	-0.32	-0.3474	
0.085644	0.954284	0.325984	22.61	-31.36	62.16	-0.0668	-0.3166	-0.327	
0.083692	0.946354	0.311832	21.28	-29.12	60.41	-0.0808	-0.3241	-0.3268	
0.086132	0.936228	0.30195	21.07	-28.35	56.42	-0.0894	-0.324	-0.322	
0.106628	0.915976	0.296704	17.85	-32.48	54.67	-0.0933	-0.3303	-0.3345	
0.160674	0.870958	0.340502	13.44	-35.21	51.59	-0.1021	-0.3222	-0.3171	
0.225578	0.84607	0.361242	13.72	-38.78	49.28	-0.1205	-0.322	-0.3137	
0.28853	0.833016	0.366732	16.31	-39.34	49.63	-0.1233	-0.3219	-0.3106	
0.338062	0.852048	0.362218	21.91	-38.57	49.42	-0.1344	-0.3327	-0.3199	
0.350018	0.895114	0.332816	26.6	-36.75	50.89	-0.1373	-0.328	-0.312	
0.33367	0.952454	0.298412	28.49	-33.81	52.85	-0.1532	-0.3213	-0.2899	
0.308904	0.96197	0.286944	27.72	-29.4	50.19	-0.1615	-0.3275	-0.2945	
0.305854	0.939766	0.260348	24.78	-26.81	44.24	-0.1615	-0.3229	-0.2991	
0.299754	0.920856	0.257176	23.87	-25.97	38.5	-0.1756	-0.3242	-0.2973	
0.315736	0.884866	0.230458	22.26	-27.3	35.21	-0.1871	-0.33	-0.277	
0.3538	0.86742	0.219478	21	-29.4	33.81	-0.1927	-0.3284	-0.2785	
0.37271	0.858148	0.20862	18.41	-27.09	35.7	-0.1996	-0.3377	-0.2831	
0.38125	0.881084	0.209962	18.9	-28.7	37.59	-0.1999	-0.3222	-0.2767	
0.403454	0.881206	0.20191	17.85	-28.98	37.87	-0.2128	-0.3249	-0.2594	
0.433466	0.90951	0.204472	17.43	-31.22	36.61	-0.2324	-0.3247	-0.2653	
0.458354	0.884744	0.200324	17.22	-31.01	37.1	-0.2255	-0.3293	-0.2531	
0.463722	0.875716	0.198128	16.73	-27.16	34.65	-0.2312	-0.3261	-0.2467	
0.475068	0.874252	0.182634	18.41	-29.68	33.95	-0.2454	-0.3243	-0.2402	
0.491904	0.87718	0.158356	21.21	-31.01	33.88	-0.2469	-0.3181	-0.2417	
0.492514	0.882914	0.155672	18.97	-28.07	34.23	-0.2469	-0.3181	-0.2417	
0.492148	0.891454	0.147254	18.41	-27.86	34.79	-0.2596	-0.3179	-0.2384	
0.481046	0.888892	0.14701	17.99	-25.48	34.02	-0.2653	-0.3178	-0.2321	
0.481412	0.884378	0.135542	20.51	-26.39	31.29	-0.2599	-0.3069	-0.2258	
0.506788	0.89426	0.134932	21.49	-26.46	29.54	-0.2699	-0.3082	-0.2132	
0.526918	0.91378	0.122366	19.6	-26.18	28.35	-0.2699	-0.3082	-0.2132	
0.539728	0.885354	0.11773	17.85	-24.43	30.1	-0.284	-0.3111	-0.2115	
0.565592	0.86864	0.108702	16.52	-22.82	28.77	-0.2941	-0.3184	-0.1896	
0.559858	0.859612	0.082716	16.59	-19.88	28.07	-0.3024	-0.3108	-0.2034	
0.566812	0.87901	0.088694	15.26	-19.67	26.88	-0.3039	-0.3169	-0.1972	
0.563152	0.89121	0.074054	12.81	-18.2	27.65	-0.301	-0.3077	-0.2049	
0.5795	0.887306	0.064538	10.57	-17.57	28.35	-0.3097	-0.3059	-0.1939	
0.592554	0.87962	0.058316	7.07	-17.43	27.23	-0.3111	-0.3059	-0.1923	
0.591822	0.84729	0.054656	8.26	-16.03	24.64	-0.3224	-0.3057	-0.1875	
0.59475	0.835334	0.03721	8.19	-15.19	22.33	-0.3157	-0.2917	-0.1781	
0.5978	0.839604	0.044164	9.52	-14.7	21	-0.3183	-0.2918	-0.1873	
0.582184	0.811422	0.015006	7.07	-14.49	19.53	-0.3366	-0.2947	-0.1855	
0.579988	0.795562	0.00427	6.72	-15.12	18.9	-0.3281	-0.3026	-0.1873	
0.592188	0.806908	-0.002928	8.82	-16.73	19.46	-0.3327	-0.2914	-0.1653	
0.588772	0.80459	0.005124	4.27	-16.59	19.53	-0.3355	-0.2914	-0.1684	
0.605242	0.78324	-0.00427	2.94	-15.47	19.53	-0.3398	-0.2898	-0.1652	
0.647454	0.77714	0.011956	5.81	-19.39	20.65	-0.3441	-0.2912	-0.1621	
0.664778	0.79239	0.010004	5.46	-18.55	21.56	-0.3442	-0.2819	-0.1573	
0.678198	0.793122	0.005856	7.63	-18.48	24.78	-0.3426	-0.2882	-0.1683	
0.70699	0.78873	0.002074	9.73	-19.11	27.02	-0.3542	-0.274	-0.157	
0.712846	0.779214	-0.020252	8.61	-15.82	25.41	-0.3584	-0.2755	-0.157	
0.710284	0.772016	-0.028426	8.75	-13.09	22.54	-0.3515	-0.277	-0.1415	
0.69784	0.783728	-0.03294	7.98	-8.61	21.28	-0.3655	-0.2738	-0.1506	
0.668194	0.791536	-0.041358	3.01	-4.13	18.48	-0.3628	-0.2707	-0.1459	
0.663802	0.782508	-0.031842	1.26	-4.83	15.33	-0.3671	-0.2644	-0.1427	
0.672586	0.775066	-0.021106	1.82	-5.25	12.04	-0.3643	-0.266	-0.1412	
0.678686	0.741638	-0.019032	1.68	-6.86	10.36	-0.3628	-0.2599	-0.1505	
0.707356	0.715042	-0.026108	1.4	-7.63	8.12	-0.3741	-0.2659	-0.1441	
0.707722	0.708332	-0.038552	0.7	-7.21	8.12	-0.3615	-0.266	-0.1397	
0.694424	0.729072	-0.032208	-2.24	-5.6	8.33	-0.3728	-0.2658	-0.1364	
0.68137	0.75335	-0.034892	-2.03	-5.25	9.1	-0.373	-0.2411	-0.1407	
0.7015	0.751032	-0.020618	-0.07	-5.25	10.01	-0.3644	-0.2568	-0.1457	
0.728828	0.732	-0.01464	0.21	-6.51	10.71	-0.3685	-0.2537	-0.1503	
0.74847	0.720044	-0.031842	1.75	-6.16	9.87	-0.3787	-0.2549	-0.1315	
0.73993	0.733098	-0.021472	-0.35	-3.71	9.52	-0.3799	-0.2565	-0.1393	
0.728096	0.735172	-0.026962	-1.05	-2.38	8.75	-0.3701	-0.2627	-0.1333	
0.715652	0.73322	-0.013176	0.42	-1.33	8.12	-0.3757	-0.2535	-0.1455	
0.713456	0.731512	-0.02074	1.54	-1.19	7.56	-0.3784	-0.2613	-0.1487	
0.717238	0.709796	-0.038064	-0.14	-0.98	6.51	-0.3702	-0.2535	-0.1363	
0.72285	0.702964	-0.031598	1.47	-1.54	5.74	-0.3829	-0.2548	-0.133	
0.727242	0.721996	-0.026596	0.77	-1.68	5.67	-0.38	-0.2472	-0.1391	
0.713822	0.734928	-0.036478	-0.42	-0.56	4.76	-0.3787	-0.2533	-0.1315	
0.715652	0.715652	-0.03904	-2.31	0.63	3.78	-0.3744	-0.2473	-0.1392	
0.723704	0.678076	-0.032208	-0.7	-0.35	3.29	-0.3885	-0.2533	-0.1344	
0.71614	0.684908	-0.032696	0.28	-2.31	2.52	-0.38	-0.2457	-0.1422	
0.696864	0.710528	-0.039772	1.26	-1.89	2.31	-0.3759	-0.241	-0.136	
0.67954	0.717848	-0.033916	1.47	-1.61	2.24	-0.3871	-0.2456	-0.1359	
0.69662	0.70943	-0.032696	2.52	-2.45	2.03	-0.3817	-0.2455	-0.1235	
0.71736	0.701378	-0.02745	3.08	-4.41	2.45	-0.383	-0.2455	-0.1313	
0.71614	0.70943	-0.021594	1.82	-3.99	3.01	-0.3815	-0.2456	-0.1344	
0.718336	0.695888	-0.025132	2.24	-2.8	3.43	-0.3872	-0.244	-0.1343	
0.724436	0.692472	-0.022204	3.57	-2.66	3.64	-0.3787	-0.2533	-0.1284	
0.722362	0.717116	-0.02196	3.43	-2.52	3.5	-0.3874	-0.2438	-0.1219	
0.724436	0.719312	-0.036722	2.87	-2.24	3.57	-0.3773	-0.2503	-0.133	
0.73383	0.705404	-0.04087	3.85	-2.1	3.08	-0.3873	-0.2423	-0.125	
0.729926	0.724802	-0.04453	2.52	-1.89	2.52	-0.3817	-0.2363	-0.1328	
0.707844	0.730658	-0.04392	1.33	-1.33	2.24	-0.3858	-0.2501	-0.1298	
0.722118	0.718824	-0.038674	3.15	-1.61	1.75	-0.3845	-0.2393	-0.1281	
0.72224	0.70333	-0.050142	3.92	-3.01	1.26	-0.3873	-0.2439	-0.125	
0.724802	0.720166	-0.061122	3.5	-4.27	-0.07	-0.3858	-0.2485	-0.1266	
0.717116	0.72041	-0.055144	3.22	-3.71	-1.05	-0.3817	-0.2485	-0.1236	
0.728218	0.718946	-0.050142	4.62	-4.13	-2.03	-0.3817	-0.2454	-0.1204	
0.72529	0.709796	-0.055632	5.74	-4.27	-2.66	-0.3858	-0.2517	-0.1282	
0.724436	0.70089	-0.063806	6.02	-4.2	-3.99	-0.3932	-0.239	-0.1139	
0.709308	0.710528	-0.063684	4.69	-4.48	-4.27	-0.3831	-0.2485	-0.1236	
0.710894	0.707234	-0.070394	5.04	-4.48	-4.76	-0.3874	-0.2515	-0.1142	
0.706502	0.699426	-0.072468	5.04	-5.04	-4.97	-0.3818	-0.2484	-0.1111	
0.70455	0.702354	-0.082106	5.11	-4.9	-4.69	-0.3887	-0.2515	-0.122	
0.710894	0.694424	-0.084058	5.11	-4.76	-3.85	-0.3846	-0.2499	-0.1127	
0.713334	0.70272	-0.085888	3.78	-4.48	-2.8	-0.3817	-0.2577	-0.1144	
0.716262	0.709918	-0.08235	3.85	-4.9	-1.54	-0.3832	-0.25	-0.1158	
0.716872	0.721386	-0.07905599	3.78	-4.48	-1.05	-0.3845	-0.2531	-0.1158	
0.711626	0.721386	-0.08723	2.94	-3.36	-0.98	-0.3972	-0.256	-0.1157	
0.720532	0.719434	-0.097844	3.43	-2.94	-1.19	-0.3875	-0.2452	-0.111	
0.714188	0.730292	-0.097966	2.87	-2.94	-0.21	-0.386	-0.2561	-0.1127	
0.720898	0.731512	-0.09942999	2.52	-2.66	0.42	-0.3818	-0.2454	-0.1158	
0.73078	0.740174	-0.101016	2.8	-1.75	0.56	-0.3789	-0.2562	-0.1113	
0.721996	0.75091	-0.094428	0.35	0.14	0.14	-0.396	-0.2528	-0.1032	
0.71431	0.74054	-0.097966	-1.47	1.68	-1.12	-0.3985	-0.2591	-0.1203	
0.71187	0.724314	-0.105774	-1.12	1.47	-1.61	-0.39	-0.2638	-0.1174	
0.713578	0.717482	-0.099064	-1.12	1.75	-2.1	-0.3818	-0.2546	-0.1128	
0.701012	0.737734	-0.098454	-0.91	1.26	-2.17	-0.3915	-0.2545	-0.1173	
0.705282	0.725412	-0.104188	-0.91	1.75	-2.38	-0.3791	-0.2468	-0.1081	
0.712358	0.724192	-0.102846	-0.98	1.54	-3.08	-0.3874	-0.2499	-0.1157	
0.700402	0.733342	-0.09333	-1.54	1.89	-3.71	-0.382	-0.2467	-0.1018	
0.695644	0.731756	-0.081252	-1.26	1.19	-3.71	-0.3943	-0.2546	-0.1219	
0.711748	0.711504	-0.085766	-1.75	1.12	-4.55	-0.3888	-0.2515	-0.1157	
0.721142	0.707966	-0.088572	-1.54	1.05	-4.9	-0.3873	-0.2516	-0.1235	
0.711626	0.717848	-0.096258	-2.03	1.19	-3.78	-0.3817	-0.2546	-0.1159	
0.722484	0.740906	-0.085278	-0.35	1.4	-2.66	-0.3902	-0.2515	-0.1173	
0.731634	0.75457	-0.075884	-1.12	2.66	-3.29	-0.3859	-0.2546	-0.1189	
0.734684	0.750056	-0.081008	-1.26	3.85	-4.2	-0.3846	-0.2607	-0.1081	
0.729804	0.762378	-0.093452	-1.47	4.9	-5.6	-0.3873	-0.25	-0.1204	
0.706624	0.770796	-0.085522	-3.08	6.93	-6.09	-0.3831	-0.2562	-0.1174	
0.726266	0.750666	-0.090646	-3.36	7.77	-6.72	-0.3802	-0.2655	-0.1176	
0.737124	0.751154	-0.072956	-3.5	9.38	-7.21	-0.373	-0.2595	-0.1285	
0.718214	0.77165	-0.082594	-4.9	11.83	-8.33	-0.3815	-0.2563	-0.1268	
0.706014	0.78324	-0.081374	-7	14.35	-11.27	-0.3759	-0.2549	-0.1284	
0.726022	0.81191	-0.096502	-8.82	15.75	-15.26	-0.3744	-0.2719	-0.1256	
0.707356	0.798124	-0.06771	-10.08	17.78	-19.95	-0.3661	-0.2595	-0.1209	
0.707844	0.812154	-0.062098	-10.15	17.15	-23.1	-0.38	-0.2641	-0.13	
0.693082	0.801662	-0.068808	-11.13	17.29	-25.69	-0.3659	-0.2689	-0.1288	
