Sensor string: A
Serial number: 1970-01-0000
Firmware version: 2,015
Hardware version: 2,2
Calibration quality: 5
ax	ay	az	gx	gy	gz	mx	my	mz

0.278404	0.88938	0.361974	3.64	-3.36	-0.56	-0.2095	-0.2791	-0.4052	Reference
0.264618	0.903654	0.360388	3.15	-4.2	-0.77	-0.2197	-0.2804	-0.3944	
0.2623	0.881572	0.373808	0.77	-2.59	1.33	-0.224	-0.2819	-0.3944	
0.258884	0.881328	0.37393	1.47	-4.34	1.47	-0.224	-0.2789	-0.4066	
0.265228	0.885232	0.380396	2.45	-4.83	0.28	-0.2312	-0.2863	-0.402	
0.277306	0.876936	0.384666	1.68	-3.64	0.7	-0.2255	-0.2728	-0.4035	
0.292556	0.870348	0.381494	1.68	-3.57	0.7	-0.2268	-0.2849	-0.4066	
0.282186	0.879254	0.379298	3.36	-3.71	0.14	-0.2299	-0.2742	-0.3943	
0.26962	0.887794	0.37088	3.5	-4.13	-0.35	-0.2269	-0.2773	-0.4005	
0.269132	0.889136	0.371612	1.54	-2.94	0.63	-0.2298	-0.2803	-0.3974	
0.269376	0.884622	0.368684	1.61	-2.94	-0.07	-0.2311	-0.2848	-0.4081	
0.278526	0.884622	0.368684	1.05	-2.8	-0.14	-0.2226	-0.2834	-0.3883	
0.283528	0.88633	0.373076	1.33	-1.68	-0.35	-0.2327	-0.2833	-0.402	
0.271694	0.886208	0.373808	1.12	-0.42	-0.42	-0.2328	-0.2772	-0.3989	
0.265472	0.890966	0.370148	1.26	-0.77	-0.63	-0.2283	-0.2848	-0.3929	
0.272548	0.893528	0.364536	1.47	-0.77	-0.7	-0.2269	-0.2849	-0.3959	
0.2745	0.888404	0.365756	1.19	-0.77	-0.42	-0.2312	-0.2833	-0.3974	
0.268278	0.885598	0.366244	0.84	-0.56	-0.35	-0.2257	-0.2742	-0.3837	
0.272548	0.885476	0.369294	1.26	-0.56	-0.56	-0.2239	-0.2895	-0.3914	
0.274866	0.88267	0.365878	1.4	-0.56	-0.63	-0.2255	-0.2849	-0.3898	
0.268644	0.887672	0.366488	1.82	-1.05	-0.56	-0.224	-0.2819	-0.3975	
0.265472	0.889014	0.367708	1.54	-0.63	-0.49	-0.2299	-0.2787	-0.3974	
0.270718	0.887306	0.364902	1.61	-0.07	-0.35	-0.2312	-0.2833	-0.3989	
0.277794	0.890722	0.362584	1.82	-0.14	-0.35	-0.224	-0.2788	-0.402	
0.277916	0.895846	0.357582	2.31	-0.35	-0.56	-0.2327	-0.2802	-0.3989	
0.265228	0.899018	0.352458	1.33	-0.56	-0.42	-0.227	-0.2803	-0.3883	
0.26413	0.907436	0.350018	0.63	-0.98	-0.28	-0.2241	-0.2818	-0.3868	
0.264252	0.904874	0.358192	-0.28	-0.91	-0.21	-0.2225	-0.2834	-0.3944	
0.264008	0.888282	0.358314	-0.91	0	-0.7	-0.2284	-0.2818	-0.3898	
0.275598	0.879742	0.352946	-0.7	0.21	-0.56	-0.2297	-0.2939	-0.3929	
0.303902	0.896944	0.343796	0.56	-0.84	-1.4	-0.2327	-0.2878	-0.3898	
0.253882	0.913902	0.349896	-2.59	-1.54	1.19	-0.2268	-0.2864	-0.4005	
0.249368	0.900726	0.353068	0.49	-0.35	-0.49	-0.2224	-0.2925	-0.3899	
0.259616	0.88206	0.358558	-2.73	0.91	1.26	-0.2298	-0.2863	-0.3913	
0.272914	0.884988	0.361364	-0.49	1.47	0.7	-0.2225	-0.2895	-0.3868	
0.277428	0.896578	0.360876	0.49	-0.28	0	-0.2196	-0.285	-0.399	
0.267302	0.896212	0.357582	-0.63	-0.63	0.7	-0.2341	-0.2878	-0.3959	
0.264374	0.887062	0.357704	-1.54	0.07	1.82	-0.2239	-0.294	-0.3868	
0.262788	0.892796	0.364414	-0.7	0.7	2.24	-0.2284	-0.2833	-0.3944	
0.25986	0.89182	0.365634	-0.49	0.7	1.68	-0.2298	-0.2878	-0.3852	
0.269254	0.898164	0.36112	-0.84	0.56	1.61	-0.2226	-0.2834	-0.3929	
0.27023	0.90585	0.35441	-1.47	0.07	1.54	-0.2342	-0.2817	-0.3943	
0.267546	0.911096	0.349652	-1.96	-0.98	1.26	-0.2241	-0.2788	-0.3852	
0.26535	0.914146	0.34465	-2.45	-0.98	1.4	-0.2254	-0.2834	-0.3959	
0.264374	0.911706	0.34404	-4.06	-0.07	1.54	-0.224	-0.2879	-0.3898	
0.266204	0.912316	0.346968	-5.18	0.21	1.47	-0.224	-0.2864	-0.3929	
0.27145	0.905606	0.34953	-6.16	0.28	1.61	-0.2238	-0.291	-0.4051	
0.270962	0.89853	0.351604	-6.79	0.21	1.89	-0.2312	-0.2848	-0.3974	
0.268034	0.907436	0.357338	-6.44	0.21	2.03	-0.2211	-0.2819	-0.3898	
0.263276	0.897188	0.362706	-7.7	1.33	3.08	-0.2386	-0.2771	-0.3989	
0.267912	0.889502	0.354654	-7.42	1.33	3.71	-0.2315	-0.2666	-0.4004	
0.274012	0.895846	0.359168	-7.63	0.7	3.64	-0.2299	-0.2742	-0.3959	
0.274988	0.889624	0.366976	-8.47	1.47	3.5	-0.2328	-0.2757	-0.4004	
0.273768	0.890356	0.370026	-8.61	1.82	3.92	-0.2358	-0.2711	-0.4004	
0.2745	0.900482	0.365146	-9.24	1.89	4.13	-0.2315	-0.2681	-0.3974	
0.27694	0.905118	0.366732	-9.8	1.05	4.48	-0.2384	-0.2817	-0.4111	
0.27084	0.898286	0.368806	-11.27	1.61	4.9	-0.2313	-0.2742	-0.405	
0.268522	0.88999	0.376126	-11.97	2.31	5.39	-0.23	-0.2666	-0.4035	
0.268034	0.887184	0.374174	-12.46	1.82	5.6	-0.2241	-0.2667	-0.4081	
0.268644	0.879132	0.377956	-13.58	1.68	5.88	-0.2198	-0.2698	-0.4051	
0.27023	0.875228	0.378932	-14.14	1.05	6.51	-0.2315	-0.262	-0.405	
0.276574	0.875228	0.38186	-14.56	0.77	7.14	-0.2314	-0.2666	-0.402	
0.284138	0.88267	0.394914	-14.63	1.12	7.63	-0.2285	-0.2606	-0.4157	
0.279624	0.87779	0.40016	-16.38	2.1	8.61	-0.233	-0.2514	-0.4126	
0.274256	0.864736	0.402722	-18.06	3.01	10.15	-0.2402	-0.2528	-0.4187	
0.28731	0.859612	0.401136	-17.01	3.22	10.5	-0.2288	-0.2439	-0.4126	
0.298412	0.860832	0.405528	-16.52	3.36	11.13	-0.2374	-0.2513	-0.4126	
0.291336	0.863638	0.408822	-17.36	3.5	12.25	-0.2418	-0.2467	-0.4217	
0.285358	0.861686	0.411994	-19.04	3.99	13.72	-0.2447	-0.2482	-0.4202	
0.284504	0.858758	0.419192	-20.44	4.2	14.7	-0.2389	-0.2437	-0.4156	
0.28792	0.857904	0.424438	-21.77	4.76	15.4	-0.2375	-0.2407	-0.4217	
0.295118	0.844362	0.429562	-23.94	5.6	16.94	-0.2421	-0.2179	-0.4293	
0.293776	0.848388	0.43676	-24.43	6.23	17.5	-0.2407	-0.2209	-0.4201	
0.298046	0.851194	0.443104	-25.27	6.09	17.92	-0.2376	-0.2225	-0.4385	
0.300852	0.841556	0.451766	-26.88	6.09	18.9	-0.242	-0.2225	-0.4354	
0.299388	0.838872	0.449814	-26.53	6.09	19.74	-0.2393	-0.2058	-0.44	
0.295362	0.82594	0.463966	-29.75	7.7	20.79	-0.2438	-0.1981	-0.4414	
0.299754	0.809226	0.46665	-30.45	6.79	19.88	-0.2394	-0.1997	-0.443	
0.31354	0.809836	0.467992	-31.5	7.28	21	-0.2438	-0.1996	-0.4353	
0.328058	0.798124	0.477508	-35.84	10.64	22.96	-0.2379	-0.1937	-0.4537	
0.325008	0.783972	0.494588	-37.24	10.64	22.68	-0.2337	-0.1892	-0.4369	
0.31903	0.772748	0.505446	-38.92	11.13	23.52	-0.2514	-0.1692	-0.4489	
0.333548	0.762256	0.522892	-40.46	10.08	24.64	-0.2542	-0.1737	-0.4535	
0.358314	0.739808	0.528992	-41.79	-13.93	26.74	-0.2471	-0.1632	-0.452	
0.35014	0.75091	0.52094	-36.12	4.2	22.61	-0.244	-0.1708	-0.4567	
0.344284	0.706136	0.537898	-48.23	9.03	28.56	-0.2471	-0.1571	-0.4566	
0.340624	0.69296	0.54229	-45.15	5.46	25.48	-0.2431	-0.1313	-0.4611	
0.345382	0.654774	0.553758	-49	2.87	25.9	-0.2473	-0.1404	-0.4611	
0.339648	0.632082	0.577792	-49.35	4.9	27.44	-0.2562	-0.1312	-0.4656	
0.355386	0.619638	0.605242	-48.51	4.55	27.93	-0.2491	-0.1176	-0.4687	
0.363438	0.6039	0.624762	-49.7	-0.35	28.63	-0.2505	-0.1145	-0.4717	
0.37393	0.592554	0.621102	-50.33	-0.63	29.82	-0.255	-0.1023	-0.4793	
0.377834	0.582672	0.622688	-52.43	-2.73	30.94	-0.2551	-0.0963	-0.4793	
0.38613	0.53375	0.642086	-55.93	-0.21	31.15	-0.254	-0.0765	-0.4747	
0.415898	0.490318	0.65697	-54.46	-3.01	31.22	-0.2525	-0.0735	-0.4777	
0.424926	0.462624	0.677344	-50.54	-4.06	29.47	-0.2599	-0.0703	-0.4731	
0.444568	0.435906	0.698328	-48.65	-2.94	27.58	-0.2614	-0.0582	-0.4899	
0.459696	0.438834	0.711626	-47.46	-4.83	27.23	-0.2572	-0.0476	-0.4853	
0.466894	0.427976	0.726266	-47.25	-4.27	27.72	-0.2602	-0.0415	-0.4852	
0.483486	0.384666	0.737978	-47.74	-2.38	28.91	-0.2546	-0.0249	-0.4822	
0.480558	0.35563	0.74237	-46.27	1.54	28.77	-0.2634	-0.0171	-0.4836	
0.466406	0.355996	0.754204	-44.31	-0.63	28.21	-0.2549	-0.0081	-0.4714	
0.467016	0.348554	0.762744	-41.72	0.35	27.16	-0.2652	0.0009999999	-0.4805	
0.476044	0.319152	0.76189	-42.42	0.28	27.3	-0.2638	0.004	-0.482	
0.481168	0.30866	0.76921	-40.11	1.33	26.74	-0.2596	0.0161	-0.482	
0.48739	0.290604	0.771406	-38.5	-0.77	25.9	-0.2553	0.0191	-0.4774	
0.488854	0.283528	0.76738	-38.5	-1.05	26.11	-0.2655	0.0253	-0.4896	
0.488976	0.280112	0.777506	-38.01	1.47	26.32	-0.2628	0.045	-0.488	
0.493246	0.267058	0.772626	-40.25	1.19	26.88	-0.2628	0.0435	-0.4849	
0.490928	0.250344	0.778604	-39.27	1.47	26.67	-0.2601	0.0511	-0.4788	
0.504714	0.236436	0.783362	-39.9	0.42	27.02	-0.2574	0.0663	-0.4757	
0.511912	0.208742	0.790194	-40.53	2.59	26.46	-0.2616	0.0617	-0.4941	
0.51545	0.192394	0.794708	-40.18	2.1	26.88	-0.2546	0.0738	-0.4712	
0.510936	0.185806	0.803004	-39.48	3.99	26.67	-0.2605	0.0785	-0.4772	
0.512888	0.155184	0.80093	-40.67	1.61	26.32	-0.2592	0.09519999	-0.4787	
0.510326	0.13237	0.802028	-40.04	3.08	27.44	-0.2519	0.092	-0.4772	
0.51362	0.12322	0.813008	-38.57	4.9	28.28	-0.2523	0.1118	-0.4649	
0.529602	0.114436	0.831918	-37.17	3.22	27.65	-0.2463	0.1056	-0.4757	
0.516792	0.105896	0.812764	-37.73	2.1	26.88	-0.2435	0.1086	-0.4696	
0.500322	0.082594	0.821182	-41.16	3.85	27.58	-0.2422	0.1177	-0.4665	
0.508374	0.038796	0.822036	-40.25	1.96	26.46	-0.2469	0.1467	-0.4725	
0.515084	0.010004	0.827648	-37.66	-1.19	24.22	-0.2527	0.1392	-0.4649	
0.538264	0.01525	0.861198	-33.74	-1.68	20.79	-0.2427	0.1527	-0.4695	
0.538142	0.00305	0.85644	-34.37	-0.84	19.88	-0.2486	0.1573	-0.4694	
0.55266	-0.02867	0.87047	-34.51	0	19.53	-0.2472	0.1619	-0.4679	
0.562054	-0.040992	0.876204	-32.41	-2.24	18.27	-0.2431	0.171	-0.4495	
0.549244	-0.05978	0.88023	-29.05	1.05	16.59	-0.2344	0.183	-0.4633	
0.54229	-0.087718	0.876936	-29.12	2.45	16.45	-0.2346	0.1891	-0.4511	
0.56059	-0.094184	0.879132	-26.04	1.96	15.33	-0.2346	0.1906	-0.4511	
0.560712	-0.088816	0.870714	-22.75	-0.77	14	-0.2332	0.1951	-0.4633	
0.555832	-0.09467199	0.866932	-21.77	3.29	14	-0.2274	0.192	-0.4557	
0.5551	-0.103212	0.86254	-19.39	3.22	13.16	-0.2218	0.2071	-0.4526	
0.550342	-0.107604	0.86925	-17.99	3.71	11.55	-0.2333	0.2058	-0.4571	
0.552172	-0.119194	0.865712	-16.03	3.99	10.29	-0.2276	0.2042	-0.445	
0.550586	-0.119682	0.86742	-13.44	3.36	8.96	-0.2304	0.2027	-0.4557	
0.547048	-0.110532	0.871446	-12.25	3.15	8.05	-0.232	0.2073	-0.4434	
0.54107	-0.114436	0.867176	-11.41	3.57	7.98	-0.2277	0.2118	-0.4465	
0.55205	-0.119682	0.884256	-10.43	3.5	7.28	-0.2234	0.2163	-0.4434	
0.545218	-0.132492	0.87962	-8.05	0.28	4.83	-0.2191	0.2178	-0.4465	
0.534604	-0.125782	0.88267	-6.02	3.92	3.92	-0.2233	0.2117	-0.445	
0.54595	-0.132004	0.883402	-4.97	1.61	2.66	-0.2292	0.2164	-0.4434	
0.537532	-0.132614	0.878522	-3.43	2.94	1.26	-0.2176	0.2117	-0.4419	
0.542168	-0.140788	0.885598	-1.75	2.8	0.14	-0.2278	0.2194	-0.448	
0.538874	-0.140666	0.88572	0.49	2.66	-1.61	-0.2132	0.2086	-0.4343	
0.528382	-0.141764	0.887062	1.96	2.94	-2.45	-0.219	0.2177	-0.448	
0.527162	-0.143838	0.893894	3.64	-2.24	-3.78	-0.2219	0.2117	-0.445	
0.53924	-0.15616	0.89609	7.84	-1.26	-6.44	-0.2248	0.2102	-0.4434	
0.542168	-0.157502	0.902068	5.67	1.68	-5.53	-0.229	0.2042	-0.4495	
0.54778	-0.148352	0.897432	9.87	-0.56	-7.98	-0.2277	0.2179	-0.451	
0.539972	-0.151768	0.895114	11.48	-0.07	-8.61	-0.2335	0.2104	-0.4495	
0.52704	-0.152012	0.890966	14.49	-0.77	-10.01	-0.2247	0.2057	-0.448	
0.530822	-0.14213	0.888404	17.15	-2.1	-11.55	-0.229	0.2012	-0.4526	
0.527528	-0.123342	0.887306	19.32	-2.31	-12.67	-0.2347	0.1967	-0.4495	
0.537044	-0.117364	0.88572	21	-1.54	-13.3	-0.2346	0.1921	-0.4557	
0.540704	-0.114802	0.879376	23.31	-1.75	-14.56	-0.2376	0.1922	-0.448	
0.542168	-0.100528	0.88572	26.18	-1.33	-15.47	-0.2405	0.1968	-0.4541	
0.541192	-0.082838	0.884744	28.56	-0.35	-17.15	-0.223	0.192	-0.4527	
0.532774	-0.076494	0.879742	30.52	0.63	-18.34	-0.2447	0.1832	-0.451	
0.520086	-0.055144	0.870836	33.81	0.49	-19.95	-0.2431	0.1786	-0.4602	
0.517158	-0.034404	0.869738	34.93	0.28	-20.58	-0.2371	0.1663	-0.4618	
0.520696	-0.026596	0.870958	36.89	0.56	-20.58	-0.2342	0.1693	-0.468	
0.510814	-0.011834	0.864492	38.08	0.14	-21.21	-0.2384	0.1572	-0.468	
0.503372	0	0.854	39.55	-0.77	-22.26	-0.2471	0.1543	-0.4694	
0.50935	0.02013	0.854366	41.23	-2.03	-23.1	-0.2425	0.136	-0.468	
0.505446	0.04148	0.849486	42.56	-2.52	-23.59	-0.2352	0.1359	-0.4726	
0.504592	0.058194	0.847046	43.54	-1.75	-23.87	-0.241	0.1359	-0.4757	
0.507032	0.061366	0.834846	43.96	-2.31	-24.08	-0.248	0.1193	-0.4741	
0.50264	0.086254	0.826184	45.78	-2.45	-24.43	-0.2451	0.1147	-0.4696	
0.499834	0.113826	0.822402	47.74	-3.08	-25.55	-0.2506	0.1041	-0.4818	
0.49532	0.134932	0.816546	48.3	-2.52	-25.41	-0.2536	0.1042	-0.4741	
0.488732	0.156038	0.809714	49.77	-2.94	-25.97	-0.2447	0.098	-0.4803	
0.486536	0.177632	0.800076	51.1	-3.5	-26.46	-0.2531	0.0738	-0.488	
0.484096	0.198982	0.796294	52.22	-3.57	-26.81	-0.2413	0.063	-0.4851	
0.477996	0.227774	0.782508	52.36	-3.15	-26.6	-0.2528	0.0525	-0.485	
0.468358	0.248758	0.764452	53.34	-3.85	-26.32	-0.257	0.0404	-0.4819	
0.451888	0.27877	0.76067	54.25	-5.04	-26.95	-0.2628	0.039	-0.485	
0.452498	0.306464	0.752496	54.67	-6.37	-27.65	-0.2538	0.0206	-0.4836	
0.453596	0.327936	0.746274	53.76	-6.72	-27.86	-0.2523	0.016	-0.4851	
0.45018	0.340014	0.73017	53.2	-7.98	-28.07	-0.2535	0.0024	-0.4867	
0.450546	0.361486	0.725534	53.83	-8.68	-28.07	-0.2593	-0.005	-0.4775	
0.419924	0.404674	0.722972	55.02	1.19	-26.46	-0.2563	-0.0112	-0.4806	
0.46238	0.397842	0.710894	56.14	-12.11	-29.89	-0.2546	-0.0264	-0.4867	
0.452864	0.434808	0.689056	52.92	-9.24	-28.07	-0.2648	-0.0217	-0.4912	
0.46116	0.44103	0.692594	56.14	-7.56	-29.19	-0.2587	-0.043	-0.4806	
0.457134	0.457988	0.676856	54.46	-7.14	-29.12	-0.2746	-0.0549	-0.4775	
0.449204	0.473726	0.660142	55.51	-9.24	-29.26	-0.2687	-0.055	-0.4806	
0.430782	0.498126	0.64965	56.42	-6.3	-28.7	-0.2656	-0.0718	-0.4776	
0.437248	0.509106	0.632936	56.42	-6.37	-28.98	-0.2698	-0.0884	-0.47	
0.426512	0.54229	0.61549	55.86	-6.44	-28.49	-0.2538	-0.0887	-0.4716	
0.417728	0.56669	0.59658	57.05	-9.45	-29.33	-0.2623	-0.1068	-0.467	
0.408456	0.58682	0.584624	56.56	-6.37	-30.1	-0.262	-0.122	-0.4747	
0.404674	0.601948	0.574864	55.09	-5.11	-29.61	-0.2636	-0.1204	-0.4548	
0.404918	0.621956	0.564006	54.18	-7.56	-30.17	-0.2604	-0.1432	-0.4595	
0.408456	0.647088	0.555954	54.6	-6.37	-30.52	-0.2663	-0.1401	-0.4549	
0.407236	0.670024	0.55144	51.87	-5.6	-29.75	-0.2618	-0.1478	-0.4595	
0.383934	0.697474	0.530578	51.8	-6.23	-30.87	-0.266	-0.1614	-0.4565	
0.36417	0.720288	0.505446	50.61	-4.2	-30.31	-0.266	-0.1614	-0.4503	
0.388082	0.740418	0.498126	50.12	-6.93	-30.66	-0.26	-0.1781	-0.4382	
0.389546	0.736636	0.476166	50.26	-8.05	-31.43	-0.2584	-0.1858	-0.4444	
0.35868	0.751764	0.445422	47.32	-3.22	-29.05	-0.2568	-0.201	-0.4413	
0.33794	0.770918	0.433222	48.16	-5.46	-28.98	-0.2509	-0.2147	-0.4323	
0.3111	0.780312	0.40809	47.32	-4.41	-27.93	-0.2495	-0.2102	-0.4277	
0.285602	0.761402	0.361974	45.36	-2.17	-26.88	-0.2494	-0.2208	-0.4262	
0.257664	0.75457	0.328546	40.67	-5.74	-23.24	-0.2477	-0.2375	-0.4247	
0.279258	0.828258	0.361608	44.73	-5.32	-23.31	-0.2521	-0.2359	-0.4185	
0.30866	0.87535	0.373686	46.48	-6.02	-24.57	-0.2448	-0.2345	-0.4216	
0.34709	0.832772	0.386252	42.49	-5.11	-22.68	-0.2375	-0.2453	-0.4171	
0.345748	0.819352	0.366366	47.32	-8.82	-24.43	-0.2403	-0.2528	-0.4049	
0.299754	0.859978	0.332206	51.73	-12.6	-27.93	-0.2431	-0.2619	-0.408	
0.277306	0.893894	0.319518	51.03	-13.16	-28.49	-0.246	-0.2648	-0.4003	
0.284626	0.891942	0.296582	49.21	-14.84	-29.4	-0.2357	-0.2756	-0.405	
0.274744	0.892552	0.286944	47.74	-12.53	-29.61	-0.24	-0.2816	-0.3928	
0.261934	0.894992	0.277184	46.41	-14.63	-29.19	-0.2414	-0.2877	-0.3866	
0.240462	0.90768	0.257298	46.34	-12.81	-29.33	-0.2311	-0.3	-0.3837	
0.256322	0.893406	0.257298	45.85	-14.21	-30.03	-0.2312	-0.2969	-0.3699	
0.267912	0.906582	0.240706	47.6	-14.42	-30.8	-0.2398	-0.3074	-0.3699	
0.249246	0.941474	0.21533	48.72	-15.68	-31.64	-0.2383	-0.3165	-0.3562	
0.210816	0.974414	0.1952	44.94	-12.74	-30.1	-0.2279	-0.3303	-0.3593	
0.209108	0.996862	0.195688	41.09	-9.87	-28.7	-0.228	-0.3288	-0.3563	
0.238876	0.987956	0.190198	38.85	-10.92	-29.68	-0.2265	-0.3364	-0.3425	
0.233142	0.971608	0.177144	38.36	-11.27	-28.91	-0.2207	-0.341	-0.3411	
0.235582	0.935496	0.14152	37.38	-5.81	-30.8	-0.2206	-0.3471	-0.3304	
0.212768	0.95343	0.121268	36.89	-8.54	-27.37	-0.2161	-0.3563	-0.3365	
0.215208	0.99308	0.111752	44.59	-9.59	-29.75	-0.2105	-0.3502	-0.3228	
0.194956	1.02907	0.10858	40.32	-4.97	-26.6	-0.203	-0.3655	-0.3214	
0.161528	1.014186	0.091378	35.7	1.75	-22.68	-0.2102	-0.373	-0.3122	
0.152744	0.958066	0.057706	33.95	4.48	-21.56	-0.2001	-0.3747	-0.3092	
0.075518	1.02053	-0.005612	44.87	-2.94	-25.97	-0.1913	-0.3824	-0.3031	
0.050142	1.099342	0.004392	46.62	-6.93	-26.04	-0.1912	-0.393	-0.2879	
0.083326	1.087264	-0.001952	39.97	-4.06	-21.98	-0.184	-0.3885	-0.2895	
0.088328	1.043466	0.003782	35.35	-4.34	-17.08	-0.1854	-0.3976	-0.2849	
0.065392	1.03212	-0.014396	36.89	-5.04	-18.83	-0.1869	-0.396	-0.2772	
0.083204	0.975512	-0.038308	34.37	-10.08	-18.34	-0.1795	-0.4052	-0.2727	
0.149572	1.00101	-0.049288	38.15	-7.77	-19.74	-0.1781	-0.4083	-0.259	
0.10309	1.066524	-0.058804	39.06	-7.7	-21.98	-0.1854	-0.4082	-0.265	
0.080642	1.077016	-0.047702	31.22	-6.3	-18.55	-0.1767	-0.4083	-0.2574	
0.074908	1.07604	-0.038918	24.36	-3.5	-14.21	-0.1781	-0.4159	-0.2544	
0.07808	1.053592	-0.050386	20.65	-3.5	-13.79	-0.1781	-0.4159	-0.2544	
0.08845	1.022604	-0.058804	17.08	-3.15	-12.67	-0.1739	-0.4068	-0.2498	
0.120048	1.038708	-0.044286	18.06	0.28	-11.34	-0.1739	-0.4068	-0.2498	
0.096868	1.047736	-0.044774	18.83	1.82	-11.62	-0.1751	-0.4159	-0.2575	
0.094184	1.008818	-0.053802	15.89	1.4	-10.08	-0.1664	-0.4206	-0.2484	
0.09699	0.977708	-0.09089	17.92	3.01	-10.57	-0.1592	-0.4237	-0.2393	
0.086986	1.030412	-0.105896	19.32	0.28	-9.73	-0.1592	-0.4237	-0.2393	
0.017446	1.1224	-0.093208	20.44	1.89	-10.64	-0.165	-0.4236	-0.2407	
-0.01342	1.08458	-0.089914	9.66	0.14	-6.51	-0.1679	-0.4266	-0.2346	
0.032208	0.995154	-0.11773	4.97	-0.56	-5.11	-0.1563	-0.4267	-0.2286	
0.066368	1.012478	-0.111874	6.58	-1.54	-5.11	-0.1636	-0.4221	-0.23	
0.041968	1.06262	-0.109678	10.92	-6.44	-9.1	-0.1533	-0.4329	-0.2271	
0.015128	1.056154	-0.11468	5.39	-3.99	-8.68	-0.1579	-0.4252	-0.2178	
0.028426	1.042734	-0.11102	2.52	-2.94	-6.23	-0.1535	-0.4222	-0.2255	
0.050874	1.01626	-0.116632	3.85	-6.44	-8.4	-0.1534	-0.4283	-0.2286	
0.047214	1.023336	-0.118828	3.85	-7.63	-8.89	-0.1563	-0.4298	-0.2286	
0.041602	1.060546	-0.105164	4.9	-0.7	-10.08	-0.1532	-0.4374	-0.2317	
0.02684	1.03395	-0.086376	-3.71	-1.19	-4.48	-0.1591	-0.4358	-0.2194	
0.053314	0.991128	-0.091866	-2.94	-2.87	-4.9	-0.1534	-0.4283	-0.2194	
0.066978	0.990152	-0.07625	-2.73	-0.21	-4.27	-0.1577	-0.4328	-0.224	
0.080276	0.977586	-0.053558	0	0.98	-6.02	-0.1432	-0.4284	-0.2287	
0.08418	0.9272	-0.058926	1.68	0.98	-7.98	-0.1517	-0.4435	-0.2271	
0.077958	0.939522	-0.07015	7.42	-1.26	-10.36	-0.1476	-0.4299	-0.2195	
0.054412	0.986614	-0.075884	12.74	-3.43	-14.42	-0.143	-0.4421	-0.2287	
0.003904	1.034438	-0.07808	12.81	6.09	-17.64	-0.1431	-0.4376	-0.2241	
-0.020252	1.044442	-0.073932	3.57	1.05	-10.71	-0.1389	-0.4376	-0.2073	
-0.000366	1.021506	-0.101138	3.36	-2.52	-10.71	-0.1361	-0.4255	-0.2149	
0.036356	1.000278	-0.101748	1.33	-3.64	-8.12	-0.1375	-0.4315	-0.2119	
0.036966	1.02663	-0.098698	5.46	-1.89	-9.38	-0.1359	-0.4376	-0.2135	
-0.031842	1.048712	-0.116632	3.78	-1.05	-8.68	-0.1228	-0.4378	-0.2181	
-0.030866	1.041758	-0.12688	3.85	-5.32	-9.17	-0.1345	-0.4316	-0.2165	
-0.001708	1.04432	-0.145546	3.78	-6.16	-9.59	-0.1388	-0.4361	-0.2226	
-0.01403	1.052494	-0.152988	2.31	-5.32	-7.56	-0.13	-0.4423	-0.215	
-0.03355	1.064694	-0.151402	-0.07	-4.9	-5.88	-0.1287	-0.4362	-0.2166	
-0.058804	1.056886	-0.13481	-4.13	-0.42	-2.45	-0.1329	-0.4407	-0.2196	
-0.059292	1.010282	-0.124196	-9.59	1.96	1.82	-0.1242	-0.4454	-0.2136	
-0.02989	0.961726	-0.129198	-9.38	1.33	2.66	-0.1388	-0.4376	-0.218	
-0.004026	0.969412	-0.119316	-3.85	-0.14	1.33	-0.1432	-0.4299	-0.2226	
-0.003904	1.017846	-0.11651	0.63	-0.14	0.42	-0.1343	-0.4407	-0.2257	
-0.0305	1.031144	-0.108336	-0.56	-1.05	2.45	-0.1344	-0.4331	-0.2257	
-0.012444	1.037488	-0.117486	-2.87	0.49	5.18	-0.1389	-0.433	-0.2119	
0.01098	1.03578	-0.119438	-2.8	1.54	5.25	-0.1372	-0.4498	-0.2196	
0.008296	1.041392	-0.122488	-3.99	4.06	6.58	-0.1344	-0.4346	-0.2272	
-0.012078	1.052738	-0.127002	-6.16	6.72	9.66	-0.1387	-0.4422	-0.2165	
-0.026474	1.05164	-0.137006	-9.8	8.4	13.23	-0.1301	-0.4332	-0.2303	
-0.01891	1.042002	-0.133956	-11.27	7.35	15.05	-0.1344	-0.4362	-0.2272	
0.00061	1.050908	-0.129198	-11.9	6.79	16.03	-0.1388	-0.4346	-0.2272	
-0.016958	1.06933	-0.123952	-12.81	6.09	16.52	-0.146	-0.439	-0.2272	
-0.044774	1.072136	-0.12505	-16.8	6.02	17.22	-0.1417	-0.433	-0.2272	
-0.019032	1.045418	-0.117608	-20.58	7.49	17.99	-0.1534	-0.4237	-0.2301	
0.01159	1.03822	-0.11346	-19.95	5.74	17.29	-0.1534	-0.4238	-0.2393	
0.01586	1.054324	-0.10614	-18.69	3.08	15.89	-0.1489	-0.4284	-0.2393	
0.013786	1.05347	-0.09821	-22.26	3.43	16.94	-0.1462	-0.4178	-0.2424	
0.018056	1.046516	-0.09882	-25.62	4.2	18.83	-0.1519	-0.4253	-0.2393	
0.029768	1.027606	-0.09552599	-27.65	4.97	19.74	-0.1576	-0.4313	-0.2393	
0.048434	1.038098	-0.09821	-26.88	4.13	20.37	-0.1591	-0.4237	-0.253	
0.049166	1.056032	-0.085034	-27.09	1.68	21.07	-0.1607	-0.4115	-0.2484	
0.034526	1.059814	-0.076006	-31.64	12.11	19.39	-0.1664	-0.4115	-0.2636	
-0.005246	1.075674	-0.053924	-40.25	2.31	26.74	-0.1707	-0.4175	-0.2667	
0.026474	1.065304	-0.042456	-36.61	-0.35	23.24	-0.1636	-0.4085	-0.2667	
0.062342	1.040904	-0.028914	-43.19	1.82	26.95	-0.1781	-0.4068	-0.2758	
0.09857599	1.031144	-0.019764	-44.45	2.66	29.89	-0.1766	-0.4023	-0.285	
0.127002	1.03883	-0.002562	-44.03	5.11	29.96	-0.1767	-0.3901	-0.288	
0.12932	1.04127	0.014884	-44.66	6.37	30.24	-0.1795	-0.3992	-0.2941	
0.12688	1.011014	0.030866	-49.14	9.31	30.45	-0.1897	-0.387	-0.3108	
0.100284	1.013698	0.04453	-49.98	9.31	30.87	-0.1914	-0.3718	-0.3138	
0.153842	0.970754	0.048678	-50.54	-2.66	29.05	-0.1928	-0.3687	-0.3199	
0.16226	0.978074	0.079178	-51.59	4.9	32.69	-0.2088	-0.367	-0.329	
0.141398	0.975146	0.092232	-51.45	7.56	33.53	-0.2161	-0.3608	-0.3335	
0.146278	0.976122	0.12993	-49.14	4.34	29.61	-0.2061	-0.3443	-0.3366	
0.146522	0.957944	0.15921	-46.55	3.64	27.65	-0.2133	-0.3457	-0.3411	
0.216794	0.908046	0.196176	-49.49	5.53	30.87	-0.2148	-0.3381	-0.3503	
0.264618	0.901946	0.208498	-49.07	12.25	31.43	-0.228	-0.3333	-0.3502	
0.240828	0.877302	0.219112	-50.19	10.99	29.89	-0.231	-0.3227	-0.3578	
0.22509	0.84607	0.248514	-47.25	8.96	27.86	-0.2266	-0.3182	-0.3639	
0.233752	0.871812	0.272304	-47.32	9.52	31.78	-0.2267	-0.3076	-0.37	
0.222284	0.889258	0.294874	-47.46	12.25	33.6	-0.2297	-0.3	-0.3791	
0.244732	0.848022	0.33794	-48.79	8.82	32.27	-0.2326	-0.2939	-0.3837	
0.286456	0.831308	0.34221	-45.78	7.84	31.29	-0.2283	-0.2909	-0.3852	
0.306586	0.811788	0.351238	-44.94	9.66	31.01	-0.2386	-0.2847	-0.3882	
0.297558	0.81984	0.34465	-44.1	8.12	31.29	-0.2343	-0.2711	-0.3989	
0.277672	0.877302	0.358924	-46.13	4.83	32.48	-0.2414	-0.2786	-0.405	
0.262056	0.882792	0.370148	-52.15	5.74	32.9	-0.2316	-0.259	-0.4019	
0.263276	0.853756	0.407114	-56.91	4.69	33.53	-0.2461	-0.2512	-0.411	
0.292922	0.808372	0.429074	-62.44	7.7	34.37	-0.2419	-0.2437	-0.414	
0.360022	0.726998	0.448716	-64.75	7	34.72	-0.2507	-0.2314	-0.4139	
0.39894	0.712602	0.479826	-59.5	7.98	32.2	-0.2507	-0.2284	-0.4292	
0.38979	0.736758	0.476532	-53.2	0.98	26.74	-0.2508	-0.2208	-0.4262	
0.383202	0.732854	0.459818	-53.62	-0.21	27.79	-0.2568	-0.2025	-0.4337	
0.414434	0.717726	0.476898	-57.89	5.95	33.04	-0.2641	-0.1963	-0.4382	
0.388936	0.684054	0.50508	-59.43	9.17	36.26	-0.267	-0.1963	-0.4443	
0.393816	0.63135	0.529114	-60.83	7.21	37.94	-0.2615	-0.1721	-0.4489	
0.428342	0.63196	0.535946	-56.7	9.1	37.59	-0.263	-0.166	-0.4488	
0.43005	0.664168	0.542412	-55.23	9.87	38.22	-0.2633	-0.1493	-0.4519	
0.41297	0.663802	0.562054	-56.91	12.04	39.55	-0.2632	-0.1462	-0.461	
0.422486	0.618052	0.575596	-62.16	15.33	42.77	-0.2633	-0.1432	-0.4595	
0.424804	0.556076	0.592554	-61.95	15.47	43.75	-0.2679	-0.1219	-0.4655	
0.412726	0.547658	0.613294	-56.14	16.45	39.41	-0.2606	-0.122	-0.4763	
0.39711	0.554978	0.628666	-53.62	12.81	38.92	-0.2654	-0.0946	-0.47	
0.43066	0.5185	0.636108	-53.83	4.69	38.71	-0.2523	-0.0933	-0.4763	
0.445422	0.51728	0.64782	-53.06	10.85	40.04	-0.2495	-0.0796	-0.4747	
0.428342	0.486536	0.65819	-55.51	10.43	41.3	-0.2569	-0.0674	-0.4807	
0.423706	0.47275	0.662094	-54.95	10.15	40.53	-0.2643	-0.0657	-0.4761	
0.39101	0.44591	0.686372	-60.2	13.23	44.52	-0.2572	-0.0522	-0.4807	
0.44042	0.384666	0.690764	-58.45	7.98	44.94	-0.263	-0.0415	-0.4913	
0.439688	0.389668	0.70455	-59.5	10.71	47.32	-0.2575	-0.0248	-0.4898	
0.434564	0.367586	0.753472	-54.25	7.21	44.66	-0.2605	-0.0172	-0.4882	
0.481046	0.35807	0.750544	-53.83	5.67	41.72	-0.2592	-0.0081	-0.4897	
0.469578	0.358436	0.749934	-53.62	3.29	40.46	-0.2624	0.0161	-0.4927	
0.468114	0.312198	0.761646	-53.9	2.24	36.96	-0.2582	0.0237	-0.4835	
0.505934	0.257542	0.760182	-53.62	3.15	34.93	-0.2569	0.0328	-0.485	
0.52094	0.249734	0.788608	-49.98	2.38	34.72	-0.2583	0.0328	-0.485	
0.52277	0.252174	0.800198	-46.97	3.5	32.41	-0.2498	0.0494	-0.485	
0.503616	0.247416	0.76372	-48.23	4.34	32.13	-0.2488	0.0692	-0.4727	
0.489708	0.211426	0.79849	-53.27	8.19	33.74	-0.2487	0.0707	-0.485	
0.519842	0.162504	0.814716	-51.73	12.04	32.55	-0.2502	0.0707	-0.4834	
0.53131	0.09882	0.817278	-50.89	-1.89	33.32	-0.2505	0.0935	-0.4834	
0.513986	0.11041	0.822036	-43.61	7.21	30.24	-0.2448	0.098	-0.4727	
0.487268	0.092598	0.816424	-48.79	8.33	32.69	-0.2406	0.1131	-0.4742	
0.499346	0.105286	0.813008	-44.94	6.65	30.24	-0.2262	0.119	-0.4804	
0.509228	0.081984	0.812398	-48.09	7.49	30.59	-0.2453	0.1284	-0.468	
0.52643	0.041724	0.825086	-46.27	5.32	28.7	-0.222	0.1356	-0.485	
0.519598	0.020374	0.813008	-45.36	4.2	26.88	-0.2381	0.1374	-0.4726	
0.492636	0.003904	0.80764	-44.73	4.69	26.25	-0.2252	0.1479	-0.4711	
0.486414	-0.004636	0.789462	-46.55	5.95	27.51	-0.2255	0.1722	-0.4665	
0.509228	-0.013542	0.835578	-47.6	8.47	29.75	-0.2269	0.1646	-0.4696	
0.513742	-0.053314	0.85217	-50.54	9.87	31.36	-0.2242	0.1752	-0.4619	
0.543632	-0.115046	0.869128	-51.45	-3.99	29.75	-0.2171	0.1903	-0.4588	
0.515206	-0.112484	0.867786	-44.24	5.32	28.42	-0.2156	0.1857	-0.4604	
0.526186	-0.131638	0.841434	-43.75	3.78	28.98	-0.2072	0.2069	-0.4558	
0.524356	-0.120048	0.833626	-38.43	1.47	25.83	-0.2103	0.2131	-0.4481	
0.50752	-0.134322	0.837652	-40.81	3.43	26.81	-0.2088	0.213	-0.4527	
0.519232	-0.160918	0.83509	-39.55	5.53	26.32	-0.2061	0.2252	-0.4481	
0.537288	-0.161528	0.825818	-37.31	4.97	24.15	-0.1989	0.2281	-0.4466	
0.506056	-0.168848	0.825208	-37.94	4.41	23.59	-0.1989	0.2311	-0.442	
0.475922	-0.1708	0.818132	-40.95	9.17	25.34	-0.1904	0.2401	-0.4405	
0.467382	-0.213256	0.84058	-42.07	8.12	24.99	-0.1949	0.2554	-0.4389	
0.47946	-0.27023	0.832528	-42.98	6.44	24.5	-0.1921	0.2569	-0.4328	
0.489708	-0.2623	0.859856	-37.94	2.45	22.19	-0.1908	0.263	-0.4267	
0.53436	-0.25803	0.846924	-33.39	-3.99	18.13	-0.1864	0.2659	-0.4298	
0.528748	-0.268278	0.84302	-35.35	0.98	20.02	-0.1822	0.272	-0.4206	
0.515206	-0.313784	0.840214	-31.92	4.55	18.76	-0.1837	0.2735	-0.4206	
0.508496	-0.303658	0.845582	-28.42	4.34	17.36	-0.181	0.2811	-0.4114	
0.508252	-0.333426	0.858026	-26.95	6.02	17.36	-0.1824	0.2872	-0.4206	
0.511302	-0.352458	0.826428	-22.96	5.88	15.54	-0.1695	0.2916	-0.4069	
0.479948	-0.330376	0.830332	-20.93	4.83	13.65	-0.1739	0.2962	-0.4084	
0.46848	-0.334646	0.830088	-22.54	9.52	14.21	-0.1623	0.293	-0.4039	
0.482144	-0.368928	0.85583	-23.59	8.68	14.91	-0.1654	0.3098	-0.4053	
0.473238	-0.36966	0.865224	-18.55	1.89	12.46	-0.1683	0.3083	-0.4099	
0.504592	-0.365268	0.868152	-10.85	-0.91	5.25	-0.1567	0.3051	-0.4039	
0.50752	-0.364658	0.867176	-12.39	2.73	5.67	-0.1668	0.3037	-0.4053	
0.514108	-0.399794	0.872544	-5.95	1.75	1.26	-0.1655	0.3113	-0.4023	
0.500566	-0.42273	0.866566	-3.15	2.31	-1.05	-0.1642	0.3159	-0.39	
0.484096	-0.428952	0.873886	0.7	2.59	-2.31	-0.1583	0.3143	-0.3977	
0.489342	-0.422974	0.8662	3.92	1.26	-4.27	-0.1684	0.3129	-0.3992	
0.49227	-0.43066	0.853024	3.92	1.05	-4.55	-0.1654	0.3098	-0.4069	
0.487512	-0.422608	0.849242	6.44	3.71	-4.97	-0.164	0.3082	-0.4038	
0.47275	-0.415288	0.854732	8.61	5.67	-5.46	-0.1668	0.3068	-0.4069	
0.465308	-0.422364	0.852658	10.01	3.64	-6.72	-0.1626	0.3143	-0.3977	
0.459818	-0.384056	0.851316	13.09	0.21	-8.68	-0.1667	0.2946	-0.3992	
0.459452	-0.35441	0.855342	16.24	-1.26	-12.11	-0.161	0.3067	-0.4054	
0.471408	-0.351848	0.845826	16.24	-0.7	-13.72	-0.1639	0.3037	-0.4069	
0.467016	-0.36722	0.844362	15.96	-0.56	-13.86	-0.1666	0.2946	-0.4115	
0.475068	-0.373076	0.860588	18.83	-0.7	-14.84	-0.1638	0.2991	-0.4115	
0.483608	-0.363804	0.85766	19.95	0.14	-14.35	-0.1695	0.2931	-0.4145	
0.488732	-0.34343	0.853024	20.65	1.12	-13.44	-0.1796	0.2932	-0.4252	
0.482266	-0.336232	0.860832	20.3	3.36	-13.23	-0.1811	0.2902	-0.4175	
0.464332	-0.324398	0.884256	22.12	4.97	-13.44	-0.1751	0.281	-0.4176	
0.482876	-0.313174	0.897066	24.78	3.57	-15.05	-0.1707	0.2764	-0.4222	
0.48373	-0.31415	0.886574	26.53	0.63	-17.01	-0.1791	0.2643	-0.4329	
0.46848	-0.294264	0.878278	30.94	-0.7	-19.18	-0.1895	0.2736	-0.4267	
0.471164	-0.280478	0.884988	34.23	-1.54	-21.35	-0.185	0.2644	-0.4298	
0.471042	-0.281942	0.869494	35.49	-2.24	-22.75	-0.1892	0.2614	-0.4374	
0.475312	-0.264618	0.881206	38.64	-2.87	-24.22	-0.1804	0.2567	-0.439	
0.47702	-0.255468	0.864736	38.99	-2.73	-25.2	-0.189	0.2477	-0.4421	
0.460672	-0.263886	0.860954	40.46	-3.29	-25.13	-0.1975	0.2341	-0.4497	
0.459086	-0.237778	0.841434	40.88	-3.78	-24.85	-0.1916	0.2295	-0.4451	
0.458354	-0.20191	0.856074	43.89	-3.99	-25.83	-0.2031	0.2205	-0.4512	
0.455548	-0.17019	0.856806	43.4	-4.06	-26.53	-0.2017	0.2221	-0.4466	
0.46177	-0.166042	0.862784	43.96	-5.25	-27.23	-0.2	0.2068	-0.4528	
0.465552	-0.148352	0.850462	45.71	-7	-28.56	-0.1986	0.2098	-0.4543	
0.44591	-0.116998	0.847168	49.42	-4.27	-30.73	-0.2056	0.1932	-0.4574	
0.467748	-0.093452	0.845094	51.38	-10.5	-31.43	-0.2083	0.1826	-0.4651	
0.478484	-0.066978	0.840214	52.29	-7.28	-31.64	-0.2097	0.1811	-0.4696	
0.478362	-0.06771	0.83814	53.83	-8.47	-32.13	-0.2211	0.1691	-0.4772	
0.472872	-0.042334	0.822036	56.07	-7.77	-32.55	-0.2123	0.1629	-0.4727	
0.460428	0.004026	0.785802	56.56	-9.94	-31.15	-0.2324	0.1464	-0.4757	
0.445788	0.05307	0.802272	56	-9.1	-29.4	-0.2249	0.1327	-0.4758	
0.45628	0.07991	0.797026	55.37	-7.84	-28.91	-0.2322	0.1358	-0.4757	
0.466528	0.104554	0.80154	55.02	-7.7	-29.19	-0.2292	0.1281	-0.4804	
0.46116	0.12444	0.791658	56.14	-9.45	-30.03	-0.2333	0.11	-0.4834	
0.462868	0.171288	0.78751	59.64	-11.76	-31.43	-0.2332	0.1069	-0.4896	
0.465186	0.20374	0.766404	59.5	-13.02	-31.22	-0.2343	0.08109999	-0.4881	
0.461648	0.212646	0.747006	59.57	-9.52	-31.15	-0.2373	0.0827	-0.4774	
0.471408	0.24583	0.751276	58.94	-9.59	-30.52	-0.2458	0.0721	-0.4865	
0.475922	0.282308	0.753594	59.15	-8.33	-29.54	-0.2427	0.063	-0.4896	
0.48434	0.289018	0.712358	56.63	-12.04	-28.98	-0.244	0.0493	-0.4866	
0.457256	0.306464	0.724924	56.35	-7.07	-28.28	-0.2512	0.0388	-0.4835	
0.456768	0.330742	0.716262	54.6	-8.4	-27.58	-0.248	0.022	-0.4897	
0.462014	0.35563	0.715774	56.77	-9.52	-28.7	-0.2538	0.0221	-0.4866	
0.470432	0.371368	0.706014	54.88	-7.98	-27.72	-0.2464	0.0114	-0.4806	
0.467016	0.411872	0.698816	56.91	-9.31	-28.35	-0.2462	-0.0007	-0.4837	
0.451888	0.431636	0.689788	56.42	-10.15	-28.42	-0.2592	-0.0096	-0.479	
0.44042	0.447984	0.667584	55.93	-11.34	-27.65	-0.2561	-0.0203	-0.4837	
0.447862	0.472384	0.667096	56.14	-12.11	-28.28	-0.2646	-0.0369	-0.4852	
0.460794	0.48007	0.656848	54.39	-12.81	-27.79	-0.2589	-0.0339	-0.4776	
0.455548	0.487268	0.629642	53.76	-9.31	-28	-0.2601	-0.0476	-0.4822	
0.464332	0.501542	0.592676	49.91	-13.3	-26.04	-0.2598	-0.06879999	-0.4792	
0.44103	0.52887	0.610854	51.03	-10.64	-25.76	-0.2584	-0.0719	-0.4761	
0.464332	0.55144	0.620126	49.91	-8.47	-23.59	-0.2568	-0.081	-0.4792	
0.464088	0.608536	0.601704	52.36	-10.01	-24.01	-0.2524	-0.0856	-0.4655	
0.44591	0.66002	0.59475	50.89	-8.68	-24.71	-0.261	-0.08859999	-0.4746	
0.45994	0.610366	0.594994	46.62	-5.67	-24.99	-0.2653	-0.1037	-0.4655	
0.469822	0.59048	0.580232	47.67	-4.83	-25.06	-0.2607	-0.1159	-0.4655	
0.453108	0.614026	0.540338	52.5	-7.7	-25.76	-0.2637	-0.1158	-0.4609	
0.432124	0.659166	0.547414	53.27	-6.3	-23.31	-0.2619	-0.1311	-0.4686	
0.42456	0.698206	0.517402	50.47	-5.53	-22.54	-0.2705	-0.1461	-0.4594	
0.400892	0.711626	0.489342	46.9	-7.28	-22.82	-0.2619	-0.1417	-0.4549	
0.39406	0.70211	0.45628	45.22	-10.01	-25.9	-0.2544	-0.154	-0.4611	
0.380762	0.74359	0.464088	45.43	-15.4	-26.11	-0.2659	-0.1705	-0.4519	
0.388936	0.76189	0.463112	46.48	-16.52	-30.38	-0.2571	-0.1767	-0.4459	
0.392596	0.755424	0.460184	44.87	-12.74	-30.52	-0.2671	-0.1917	-0.4428	
0.391986	0.767014	0.452986	46.34	-16.03	-31.01	-0.2743	-0.1977	-0.4443	
0.383812	0.764086	0.440054	49.84	-16.52	-32.9	-0.2612	-0.2054	-0.4322	
0.40443	0.758962	0.41297	49.91	-14.42	-31.92	-0.2493	-0.2208	-0.4353	
0.389302	0.76128	0.380884	51.8	-14.77	-31.57	-0.2682	-0.2236	-0.423	
0.390156	0.780556	0.363316	53.2	-16.59	-30.94	-0.2609	-0.2328	-0.4154	
0.382348	0.837896	0.343796	55.86	-15.89	-31.71	-0.2595	-0.2343	-0.4062	
0.367586	0.84912	0.350994	50.89	-11.62	-30.94	-0.2621	-0.2525	-0.4124	
0.345748	0.83997	0.326106	46.69	-9.73	-30.1	-0.2593	-0.251	-0.4017	
0.30561	0.891698	0.29707	46.34	-12.46	-30.8	-0.2621	-0.2616	-0.3987	
0.27572	0.91988	0.289018	42.63	-14.21	-31.64	-0.2563	-0.2571	-0.3926	
0.34953	0.911462	0.28975	40.39	-11.83	-30.45	-0.259	-0.2783	-0.388	
0.382836	0.922808	0.269254	39.41	-10.43	-28.77	-0.2519	-0.2723	-0.3728	
0.356118	0.953186	0.26108	39.2	-12.11	-27.51	-0.2501	-0.2906	-0.3805	
0.299876	0.993324	0.262422	36.68	-11.83	-26.39	-0.2445	-0.2876	-0.3683	
0.290604	0.96807	0.245708	32.97	-10.36	-26.32	-0.2399	-0.3013	-0.3683	
0.291214	0.924028	0.215696	31.15	-9.87	-26.18	-0.2487	-0.2981	-0.3652	
0.296948	0.925736	0.199592	31.08	-12.6	-25.06	-0.2384	-0.3074	-0.3592	
0.276574	0.954162	0.195078	31.08	-11.76	-23.94	-0.2412	-0.3134	-0.3607	
0.293898	0.953552	0.192638	27.3	-12.53	-22.75	-0.237	-0.3074	-0.3546	
0.261324	0.939644	0.171776	25.69	-10.5	-23.24	-0.2427	-0.321	-0.35	
0.251198	0.938424	0.172386	24.22	-8.33	-21.91	-0.2425	-0.3362	-0.347	
0.261812	0.97295	0.191174	27.93	-10.36	-23.59	-0.2383	-0.3286	-0.3394	
0.286822	0.956114	0.189832	25.2	-7.98	-22.54	-0.2323	-0.3348	-0.3501	
0.262788	0.942206	0.183854	28.14	-9.1	-23.66	-0.2338	-0.3393	-0.341	
0.25437	0.974658	0.17324	32.34	-10.22	-24.08	-0.2251	-0.3364	-0.3441	
0.232044	0.958554	0.167262	32.06	-11.97	-24.57	-0.2295	-0.3393	-0.3242	
0.262788	0.927688	0.170922	36.05	-5.95	-29.47	-0.2278	-0.3576	-0.3258	
0.253882	0.92354	0.149816	36.82	-6.86	-27.65	-0.222	-0.3607	-0.3136	
0.190564	0.916586	0.078568	45.64	-11.55	-32.48	-0.2162	-0.3577	-0.3151	
0.16592	0.985882	0.085034	49.28	-14.42	-31.99	-0.222	-0.3652	-0.3105	
0.126636	1.016748	0.06161	48.09	-15.82	-34.23	-0.2219	-0.3743	-0.3044	
0.131394	1.03761	0.040504	45.29	-18.34	-33.81	-0.2043	-0.3913	-0.2954	
0.10675	1.043588	0.025742	40.04	-21	-33.53	-0.2087	-0.3912	-0.2877	
0.100162	1.058472	0.037576	36.33	-20.86	-33.39	-0.2073	-0.3942	-0.2786	
0.086742	1.006134	0.0122	31.57	-22.12	-34.79	-0.1884	-0.399	-0.2711	
0.079422	1.009672	-0.010614	29.19	-23.66	-35.84	-0.1971	-0.3974	-0.2756	
0.129198	1.070672	-0.011102	31.15	-20.16	-37.94	-0.1926	-0.4035	-0.2726	
0.146888	1.05286	-0.008784	24.5	-17.29	-33.04	-0.1898	-0.4081	-0.2558	
0.156038	1.022116	-0.003416	24.71	-16.24	-30.8	-0.1869	-0.4096	-0.2467	
0.12444	0.980514	-0.019764	30.17	-18.62	-34.02	-0.1797	-0.4067	-0.2528	
0.113948	0.879742	-0.07747	31.08	-19.32	-35.7	-0.1783	-0.4082	-0.2421	
0.167018	0.907802	-0.0732	37.59	-19.6	-33.39	-0.1752	-0.4189	-0.2376	
0.17507	1.105564	-0.07564	53.48	-24.01	-38.92	-0.1679	-0.425	-0.23	
-0.007076	1.143262	-0.069662	33.95	-7.14	-26.11	-0.1607	-0.4221	-0.2346	
-0.017934	1.026996	-0.109434	19.25	-5.04	-17.78	-0.1723	-0.4325	-0.2116	
0.042212	0.969778	-0.094184	17.01	4.97	-18.34	-0.1535	-0.4267	-0.2194	
0.087108	0.942938	-0.086498	24.5	5.11	-19.18	-0.1504	-0.4405	-0.2134	
0.09333	0.914146	-0.116632	30.87	-1.33	-21.49	-0.1476	-0.4314	-0.2164	
0.051362	1.000278	-0.114802	43.89	-11.55	-26.95	-0.1475	-0.4466	-0.2057	
0.00488	1.06506	-0.137982	41.16	-13.02	-25.97	-0.146	-0.4496	-0.1951	
0.053436	0.98881	-0.148718	32.83	0	-23.59	-0.1448	-0.4389	-0.1874	
-0.011468	0.968436	-0.16775	30.45	8.89	-16.66	-0.1389	-0.4466	-0.189	
-0.05612	1.047004	-0.234728	38.5	4.83	-23.94	-0.1332	-0.4436	-0.1768	
-0.066246	1.158268	-0.206668	37.66	1.82	-23.66	-0.1316	-0.4573	-0.1722	
-0.122854	1.1346	-0.224968	20.58	11.27	-13.02	-0.1213	-0.4651	-0.1723	
-0.110776	1.048712	-0.237778	7.56	14.49	-3.92	-0.1143	-0.4469	-0.1632	
-0.06405	0.980148	-0.250588	7.49	11.9	-3.71	-0.1214	-0.459	-0.1708	
-0.054412	0.966728	-0.262422	10.85	6.58	-5.04	-0.1171	-0.4606	-0.1632	
-0.07808	1.019676	-0.253272	13.79	3.78	-6.09	-0.1273	-0.4543	-0.1631	
-0.116022	1.054446	-0.241682	10.36	3.92	-5.81	-0.1157	-0.453	-0.1693	
-0.123708	1.023092	-0.231922	1.05	4.69	-1.82	-0.1243	-0.4574	-0.1677	
-0.085888	0.983198	-0.233752	-4.13	2.03	0.21	-0.1113	-0.4546	-0.1709	
-0.03233	0.97966	-0.232532	-0.49	0.07	-3.78	-0.1143	-0.4515	-0.1662	
-0.03965	0.999424	-0.218502	-1.33	-0.21	-2.45	-0.114	-0.4697	-0.1663	
-0.077958	1.00101	-0.235826	-1.96	2.59	-2.24	-0.1169	-0.4697	-0.1632	
-0.085644	0.997838	-0.235948	-5.04	0.63	-0.42	-0.111	-0.4698	-0.174	
-0.041602	0.99674	-0.224358	-4.2	0.07	0.77	-0.1257	-0.465	-0.1647	
-0.046238	1.023092	-0.233386	-3.29	1.4	2.17	-0.1142	-0.4591	-0.1663	
-0.07259	1.040904	-0.233264	-5.88	2.24	2.8	-0.1156	-0.4636	-0.1647	
-0.068076	1.036146	-0.226798	-7.42	2.59	3.92	-0.1274	-0.4437	-0.1676	
-0.050386	1.019676	-0.22692	-10.71	3.08	5.25	-0.114	-0.4682	-0.1709	
-0.031476	1.017236	-0.229116	-11.13	2.94	6.23	-0.1201	-0.4529	-0.1631	
-0.02562	1.003816	-0.227774	-12.39	4.13	7.56	-0.1286	-0.4634	-0.1692	
-0.05307	1.013942	-0.22692	-12.18	3.71	8.96	-0.1227	-0.4651	-0.1815	
-0.058682	1.030168	-0.213988	-14	3.57	9.38	-0.1185	-0.4545	-0.1754	
-0.029646	1.019554	-0.207644	-16.1	3.64	10.85	-0.1215	-0.4484	-0.1769	
-0.033306	1.037732	-0.212524	-15.68	3.71	10.36	-0.1213	-0.4545	-0.1876	
-0.039284	1.019798	-0.207156	-18.69	3.85	11.62	-0.1244	-0.4468	-0.1845	
-0.029158	0.99796	-0.209962	-20.44	5.39	13.65	-0.1258	-0.4468	-0.1876	
-0.033428	1.026264	-0.19886	-17.29	4.27	13.09	-0.1462	-0.442	-0.1889	
-0.040504	1.03822	-0.1952	-18.27	2.94	11.9	-0.133	-0.4437	-0.1982	
-0.026596	1.037122	-0.193126	-20.23	3.99	13.16	-0.133	-0.4437	-0.2028	
-0.023912	1.024434	-0.180804	-20.23	2.66	13.16	-0.1301	-0.4438	-0.1997	
-0.025254	1.016382	-0.17385	-21.14	1.82	12.25	-0.1433	-0.4405	-0.1951	
0.006832	1.01565	-0.167262	-20.44	1.19	11.48	-0.1374	-0.4421	-0.2028	
0.016348	1.028704	-0.160308	-19.6	0.28	11.62	-0.1374	-0.4421	-0.2043	
-0.003538	1.056398	-0.149328	-19.32	1.33	12.46	-0.133	-0.4407	-0.2089	
-0.015006	1.046272	-0.140788	-21.56	2.1	12.46	-0.139	-0.4315	-0.2073	
-0.00976	1.037244	-0.123708	-25.34	3.15	15.47	-0.1447	-0.4299	-0.2149	
0.012566	1.025044	-0.120658	-24.43	2.03	14.28	-0.1505	-0.4314	-0.2225	
0.02623	1.017724	-0.115046	-24.15	2.66	13.93	-0.1534	-0.4298	-0.2271	
0.02379	1.032364	-0.107238	-23.31	3.85	14.91	-0.1518	-0.4405	-0.2241	
0.013664	1.036268	-0.101504	-24.64	3.36	15.68	-0.159	-0.4419	-0.2301	
0.01708	1.03578	-0.097356	-26.53	2.73	16.38	-0.1563	-0.4237	-0.2301	
0.030622	1.034804	-0.07808	-27.44	3.71	17.57	-0.1635	-0.4236	-0.2392	
0.042456	1.033584	-0.066002	-28.14	5.46	17.92	-0.162	-0.4237	-0.2454	
0.046116	1.018822	-0.059048	-29.82	7.84	18.76	-0.165	-0.4206	-0.2499	
0.044408	0.998204	-0.053924	-29.82	8.82	21.07	-0.1666	-0.4023	-0.2529	
0.052948	1.016992	-0.049044	-25.83	10.29	20.93	-0.171	-0.4038	-0.2575	
0.030988	1.037366	-0.041846	-27.72	9.73	22.33	-0.1709	-0.4038	-0.2605	
0.056608	1.018944	-0.029524	-31.43	10.92	25.41	-0.1796	-0.4052	-0.2712	
0.0732	1.016138	-0.00854	-31.15	9.8	25.48	-0.1766	-0.4129	-0.2636	
0.077348	1.02663	0.010004	-31.5	11.06	25.55	-0.1913	-0.396	-0.2787	
0.070882	1.01748	0.017446	-33.67	10.29	27.37	-0.184	-0.3931	-0.2833	
0.105896	0.99064	0.019886	-31.99	7.77	26.18	-0.1899	-0.3899	-0.2818	
0.130174	0.997228	0.037088	-31.85	9.17	27.37	-0.181	-0.3946	-0.288	
0.133834	0.98881	0.047458	-32.13	9.03	27.23	-0.1869	-0.3855	-0.3017	
0.137494	0.987468	0.055022	-32.97	8.89	27.37	-0.1986	-0.3807	-0.3	
0.16043	0.993202	0.066002	-34.72	8.47	28.42	-0.1957	-0.3777	-0.3031	
0.171532	0.994178	0.072834	-36.19	9.66	29.82	-0.1986	-0.3747	-0.3046	
0.188734	0.96319	0.080154	-38.71	9.66	30.87	-0.2106	-0.3547	-0.3029	
0.188978	0.968314	0.09162199	-38.57	12.18	31.85	-0.209	-0.3578	-0.3182	
0.189344	0.99491	0.110654	-38.71	13.16	32.2	-0.2161	-0.3638	-0.3289	
0.183366	0.983808	0.128954	-42.14	13.16	33.04	-0.2177	-0.3562	-0.3212	
0.206058	0.973682	0.154086	-43.33	15.54	32.83	-0.222	-0.3562	-0.3304	
0.210816	0.961482	0.156282	-45.08	17.71	32.34	-0.2163	-0.338	-0.3411	
0.236192	0.943914	0.17751	-46.83	14.42	30.8	-0.2179	-0.3259	-0.3456	
0.22448	0.954284	0.194712	-48.37	16.17	31.99	-0.222	-0.3395	-0.3609	
0.211182	0.917562	0.214476	-49.98	16.17	31.99	-0.2295	-0.3227	-0.3562	
0.25376	0.86437	0.227774	-51.38	14.91	31.43	-0.2309	-0.3242	-0.3578	
0.27938	0.84607	0.237168	-47.95	14.14	30.66	-0.2354	-0.315	-0.3638	
0.301096	0.87169	0.264008	-45.64	12.67	32.55	-0.2371	-0.2968	-0.3638	
0.30439	0.868274	0.277916	-44.8	15.26	31.92	-0.2384	-0.2983	-0.379	
0.300486	0.863272	0.29768	-47.88	17.22	34.79	-0.24	-0.2846	-0.3866	
0.306586	0.850462	0.31415	-48.65	19.6	33.95	-0.2399	-0.2892	-0.3943	
0.325008	0.817522	0.348676	-50.61	18.9	33.32	-0.2343	-0.2635	-0.4096	
0.360876	0.81801	0.383934	-49.21	18.9	31.29	-0.2389	-0.2543	-0.4034	
0.364902	0.828136	0.399916	-50.68	19.53	32.34	-0.236	-0.2438	-0.4187	
0.356606	0.816912	0.412238	-52.15	21.91	32.41	-0.2389	-0.2422	-0.4217	
0.337086	0.798856	0.433344	-56.42	22.68	33.18	-0.2375	-0.2377	-0.4294	
0.346114	0.78934	0.461892	-57.05	21.49	30.31	-0.2361	-0.2316	-0.4263	
0.363682	0.75335	0.485194	-60.2	20.02	29.19	-0.2434	-0.2224	-0.4369	
0.340258	0.695156	0.48983	-59.92	19.95	30.17	-0.2377	-0.2119	-0.4476	
0.341966	0.644404	0.503372	-57.33	16.38	30.45	-0.2466	-0.1936	-0.4582	
0.366732	0.651236	0.521672	-53.48	13.93	30.1	-0.2409	-0.1906	-0.4445	
0.375028	0.676002	0.540582	-51.52	14.63	30.8	-0.2382	-0.1754	-0.4491	
0.354654	0.660874	0.538752	-53.34	16.17	33.88	-0.2471	-0.1632	-0.4535	
0.345382	0.652334	0.551562	-52.22	14.14	33.11	-0.2428	-0.1572	-0.4582	
0.365024	0.65087	0.56791	-53.41	13.02	31.29	-0.2398	-0.1512	-0.4719	
0.379542	0.627812	0.570594	-55.51	12.18	31.85	-0.2443	-0.1481	-0.4673	
0.375638	0.608414	0.586698	-56.28	9.8	31.85	-0.2315	-0.1179	-0.4857	
0.377956	0.573766	0.57767	-60.2	10.43	33.53	-0.246	-0.1192	-0.484	
0.384056	0.573034	0.589626	-62.3	8.89	35.49	-0.2419	-0.1041	-0.4779	
0.378932	0.590114	0.607926	-68.04	8.05	35.7	-0.2318	-0.0997	-0.481	
0.387594	0.556686	0.632448	-74.13	8.19	37.38	-0.2437	-0.0797	-0.487	
0.400648	0.484218	0.67222	-76.58	7.63	39.55	-0.2452	-0.0691	-0.4885	
0.416874	0.41663	0.69967	-74.06	6.3	38.36	-0.2381	-0.057	-0.4885	
0.42395	0.392352	0.70516	-73.43	7.49	39.76	-0.2426	-0.0463	-0.4915	
0.417484	0.40748	0.724314	-67.55	8.54	38.43	-0.2472	-0.0341	-0.4929	
0.42029	0.412848	0.742004	-66.01	7.28	37.59	-0.2358	-0.0191	-0.4884	
0.440786	0.372466	0.75335	-64.33	11.13	37.94	-0.2359	-0.0024	-0.4991	
0.447984	0.316346	0.773358	-62.86	9.73	38.01	-0.2273	0.005	-0.496	
0.4514	0.25376	0.78263	-57.61	9.87	36.47	-0.2318	0.0126	-0.5006	
0.4636	0.255102	0.790926	-51.66	10.85	33.25	-0.2276	0.0202	-0.4929	
0.451034	0.288164	0.78629	-49.14	14.49	32.41	-0.2249	0.0384	-0.4929	
0.442982	0.272304	0.81069	-49.91	16.66	32.06	-0.2338	0.0507	-0.4989	
0.43005	0.240828	0.801174	-50.54	20.09	30.73	-0.2207	0.0489	-0.5005	
0.414434	0.221308	0.805932	-52.01	15.19	29.54	-0.2223	0.0627	-0.4959	
0.45262	0.226676	0.852536	-50.4	7.84	23.87	-0.2225	0.0718	-0.4974	
0.463844	0.205082	0.828868	-55.51	9.94	23.1	-0.2124	0.0777	-0.4959	
0.515938	0.094306	0.841068	-57.89	7.42	24.08	-0.2155	0.096	-0.4974	
0.538874	0.037576	0.926346	-54.95	2.87	24.43	-0.2201	0.1097	-0.4942	
0.508008	0.038308	0.868884	-50.4	13.3	25.41	-0.2129	0.1096	-0.4897	
0.474702	0.065514	0.87962	-49.84	17.22	27.79	-0.2086	0.1172	-0.4958	
0.46604	0.022814	0.880596	-47.95	16.87	28.14	-0.2088	0.1263	-0.4882	
0.464698	-0.017446	0.888038	-45.99	16.66	28.91	-0.193	0.1367	-0.4791	
0.449936	-0.022448	0.864736	-45.92	20.3	30.17	-0.1959	0.1428	-0.4897	
0.415532	-0.002196	0.874862	-44.31	21.56	30.38	-0.1931	0.1489	-0.4882	
0.396866	-0.0244	0.898286	-43.82	21.21	29.26	-0.1891	0.1686	-0.4821	
0.40138	-0.077958	0.903532	-41.93	16.73	27.37	-0.1802	0.1563	-0.4837	
0.394548	-0.088816	0.911462	-37.94	12.81	24.64	-0.1718	0.1775	-0.4791	
0.399672	-0.088938	0.89731	-35	8.54	21.07	-0.1762	0.1881	-0.4867	
0.398818	-0.096014	0.894382	-35.98	6.58	21.07	-0.1733	0.1835	-0.4837	
0.41358	-0.110288	0.923052	-33.81	2.17	19.18	-0.1705	0.1941	-0.4882	
0.425048	-0.139934	0.920124	-33.46	-0.28	17.43	-0.1749	0.1927	-0.4775	
0.416142	-0.155062	0.907436	-32.97	-2.31	16.38	-0.1691	0.2002	-0.4852	
0.425292	-0.151646	0.917928	-30.24	-2.31	14.49	-0.1651	0.2108	-0.4683	
0.429074	-0.160064	0.923052	-27.65	-4.55	13.51	-0.1609	0.2169	-0.4576	
0.444812	-0.16348	0.934642	-27.23	-3.85	12.88	-0.1696	0.2261	-0.4667	
0.446886	-0.178974	0.934154	-24.64	-5.6	11.41	-0.1652	0.2184	-0.4607	
0.461648	-0.193614	0.948916	-22.33	-5.95	10.22	-0.1698	0.2352	-0.4575	
0.464942	-0.199592	0.949404	-21.56	-3.92	9.59	-0.164	0.2321	-0.4606	
0.471774	-0.210084	0.946842	-18.97	-5.53	6.65	-0.1655	0.2367	-0.456	
0.477142	-0.220698	0.950014	-15.89	-6.72	4.76	-0.1597	0.2351	-0.45	
0.500078	-0.231312	0.94733	-12.67	-6.86	2.59	-0.1597	0.2381	-0.4545	
0.50081	-0.229726	0.955138	-11.9	-5.25	1.68	-0.1613	0.2427	-0.4515	
0.494222	-0.231312	0.959042	-7.49	-5.39	-1.19	-0.1641	0.2428	-0.4545	
0.485194	-0.227896	0.947086	-4.55	-3.01	-2.73	-0.1656	0.2398	-0.4453	
0.483242	-0.230702	0.934154	-1.05	-2.66	-5.39	-0.1701	0.252	-0.4483	
0.493368	-0.24095	0.92659	1.75	-2.31	-6.79	-0.1598	0.2366	-0.4454	
0.49898	-0.235826	0.918294	5.25	-1.33	-8.05	-0.1699	0.2368	-0.4483	
0.494344	-0.239486	0.912438	7.21	0.28	-8.54	-0.1671	0.2428	-0.4545	
0.47702	-0.234118	0.920734	10.15	1.68	-9.38	-0.1641	0.2412	-0.4576	
0.458598	-0.22814	0.915	12.04	4.41	-10.64	-0.1786	0.2354	-0.4559	
0.458354	-0.22936	0.922686	14.07	1.96	-11.83	-0.1742	0.2368	-0.459	
0.453718	-0.213622	0.91195	15.26	2.94	-12.81	-0.1699	0.2428	-0.459	
0.447374	-0.210328	0.92232	15.96	1.75	-13.93	-0.1798	0.2247	-0.4651	
0.436272	-0.196298	0.916586	18.76	-0.63	-15.61	-0.1711	0.2291	-0.4652	
0.445544	-0.19276	0.922442	22.4	-3.08	-17.71	-0.1682	0.2276	-0.4698	
0.450546	-0.19764	0.916952	26.74	-6.79	-20.09	-0.1827	0.2263	-0.4651	
0.45811	-0.17019	0.905972	30.73	-8.26	-21.84	-0.1725	0.2246	-0.4667	
0.467382	-0.14335	0.909998	33.88	-5.04	-21.14	-0.1827	0.2202	-0.4636	
0.474214	-0.097722	0.93513	36.82	-1.12	-20.51	-0.1854	0.2081	-0.4636	
0.457866	-0.092842	0.91195	36.96	0.63	-20.16	-0.178	0.1989	-0.4637	
0.469578	-0.083814	0.921588	38.22	-1.54	-19.88	-0.1909	0.1914	-0.4713	
0.474702	-0.060146	0.908168	41.37	-0.56	-20.72	-0.1879	0.1868	-0.4728	
0.470798	-0.034526	0.903776	41.58	1.12	-20.58	-0.1893	0.1853	-0.479	
0.479094	-0.031232	0.910364	41.72	2.94	-20.44	-0.1876	0.1686	-0.4836	
0.480558	-0.02013	0.920612	42.98	7.14	-22.19	-0.1948	0.1626	-0.479	
0.424804	0.023302	0.871324	41.79	5.25	-19.95	-0.1932	0.158	-0.4958	
0.398574	0.036112	0.849242	44.8	1.82	-21.14	-0.1844	0.1533	-0.4944	
0.400648	0.057096	0.8662	44.45	0.49	-21.77	-0.2003	0.1384	-0.4805	
0.38308	0.091134	0.832406	47.39	-3.71	-23.73	-0.1887	0.1503	-0.5035	
0.38247	0.120536	0.863394	48.16	-8.47	-26.18	-0.1942	0.123	-0.4929	
0.414922	0.094062	0.86925	43.26	-9.31	-25.9	-0.1941	0.1215	-0.4929	
0.415288	0.094306	0.838262	42.56	-11.69	-24.99	-0.2042	0.1141	-0.4944	
0.39467	0.121878	0.821182	43.89	-13.79	-25.34	-0.2026	0.1064	-0.4959	
0.385886	0.15494	0.814716	44.59	-14.77	-25.69	-0.2054	0.0958	-0.4959	
0.397598	0.179706	0.820328	45.71	-15.68	-26.53	-0.2141	0.096	-0.4974	
0.420046	0.214232	0.815692	45.36	-16.38	-27.58	-0.2153	0.0762	-0.4974	
0.428708	0.236436	0.812642	45.08	-18.34	-28.42	-0.2153	0.0823	-0.5035	
0.43249	0.246928	0.802394	43.4	-17.78	-28	-0.2179	0.058	-0.5005	
0.444568	0.240462	0.797758	42.28	-14.42	-28.28	-0.2222	0.0505	-0.4975	
0.424804	0.271572	0.805566	40.39	-14	-26.6	-0.2235	0.0429	-0.4975	
0.453596	0.277428	0.797514	43.68	-17.22	-28.84	-0.2293	0.0369	-0.4898	
0.47397	0.295972	0.80154	43.05	-15.12	-28.21	-0.2277	0.0308	-0.5036	
0.476044	0.284382	0.786046	44.38	-13.02	-27.79	-0.2422	0.028	-0.5004	
0.465674	0.322446	0.774334	50.68	-12.39	-29.19	-0.2406	0.0143	-0.4944	
0.478606	0.347212	0.759206	52.43	-11.41	-28.98	-0.2446	-0.0068	-0.4975	
0.487146	0.359168	0.742736	54.25	-1.68	-29.19	-0.2431	-0.0114	-0.5006	
0.46604	0.388204	0.739442	52.85	-5.18	-26.53	-0.243	-0.016	-0.4944	
0.448228	0.420656	0.72163	58.59	-1.47	-28.77	-0.2487	-0.0295	-0.4914	
0.430782	0.44042	0.707966	55.86	0.28	-27.16	-0.2355	-0.0358	-0.4946	
0.420168	0.473238	0.70028	56.63	-0.07	-26.46	-0.2396	-0.0555	-0.4946	
0.423584	0.48983	0.687226	58.03	0.28	-27.44	-0.2412	-0.0479	-0.493	
0.411384	0.503128	0.673318	56.14	-0.35	-25.97	-0.2381	-0.0661	-0.4839	
0.405162	0.53192	0.660874	55.65	0.84	-25.06	-0.2409	-0.0692	-0.4885	
0.386862	0.545462	0.651114	56.14	2.1	-25.97	-0.2377	-0.092	-0.484	
0.370636	0.55998	0.633058	54.88	-0.7	-25.69	-0.2317	-0.1012	-0.4887	
0.3721	0.571204	0.621346	54.81	-1.26	-25.06	-0.2361	-0.1026	-0.4795	
0.379542	0.580232	0.610488	54.81	-0.7	-24.99	-0.2329	-0.1255	-0.4765	
0.366366	0.603412	0.601094	54.39	-1.75	-23.94	-0.2356	-0.133	-0.4857	
0.354532	0.634644	0.58072	56.07	-2.45	-24.71	-0.2226	-0.1363	-0.4797	
0.365878	0.651724	0.569496	54.74	-5.25	-24.85	-0.2326	-0.1482	-0.4689	
0.339648	0.681248	0.552416	52.71	-2.24	-23.17	-0.2224	-0.1544	-0.4644	
0.323178	0.694302	0.545096	52.64	-2.66	-24.29	-0.2265	-0.1711	-0.4721	
0.310246	0.715042	0.540582	49.98	-3.71	-24.57	-0.2294	-0.1711	-0.4705	
0.309148	0.725046	0.521184	47.67	-5.11	-24.08	-0.2263	-0.1893	-0.4568	
0.294508	0.73383	0.515938	44.87	-6.58	-22.47	-0.2263	-0.1939	-0.4507	
0.299754	0.743834	0.519232	46.34	-8.96	-23.94	-0.2205	-0.1924	-0.4569	
0.305488	0.753716	0.50935	45.99	-10.29	-23.94	-0.2232	-0.2121	-0.4462	
0.307928	0.753106	0.494954	46.27	-7.42	-23.66	-0.2259	-0.2273	-0.4401	
0.327936	0.758352	0.483242	50.61	-11.06	-24.85	-0.2274	-0.2181	-0.4477	
0.362096	0.796538	0.450058	55.09	-10.57	-28.42	-0.2244	-0.2273	-0.4432	
0.335988	0.814228	0.41785	53.97	-8.89	-29.12	-0.2215	-0.2334	-0.4432	
0.281698	0.814838	0.390888	52.15	-6.44	-29.26	-0.2184	-0.2486	-0.428	
0.245586	0.818254	0.358436	50.54	-5.67	-28.7	-0.2185	-0.2486	-0.4265	
0.197762	0.824842	0.318298	49.63	-9.24	-29.19	-0.2139	-0.2638	-0.4189	
0.152622	0.867786	0.280356	48.65	-15.05	-29.05	-0.2197	-0.2713	-0.4112	
0.15799	0.884622	0.26657	44.87	-20.72	-27.79	-0.2168	-0.2774	-0.4036	
0.224724	0.882426	0.279014	43.47	-26.11	-27.3	-0.205	-0.2867	-0.4022	
0.248392	0.91378	0.273036	44.03	-29.68	-27.3	-0.2109	-0.2866	-0.3976	
0.233142	0.920368	0.26901	41.23	-30.87	-26.88	-0.2153	-0.2835	-0.3975	
0.22875	0.920856	0.251564	38.22	-28.49	-27.58	-0.2166	-0.2941	-0.3868	
0.23363	0.913658	0.236558	36.68	-21.35	-27.79	-0.2092	-0.3124	-0.3732	
0.267302	0.901946	0.250344	40.95	-24.5	-31.71	-0.215	-0.3139	-0.3793	
0.264862	0.950624	0.242658	48.79	-28.35	-35.84	-0.215	-0.3138	-0.367	
0.23058	0.9516	0.20923	45.92	-24.57	-34.3	-0.2119	-0.326	-0.3717	
0.208132	0.920368	0.171776	45.71	-22.75	-34.65	-0.2062	-0.3276	-0.358	
0.207522	0.944646	0.141398	49.49	-21.49	-35.07	-0.2031	-0.3398	-0.355	
0.183732	1.021018	0.12505	53.62	-23.45	-35.91	-0.209	-0.3412	-0.3396	
0.144082	1.06811	0.120414	47.95	-20.51	-32.83	-0.1929	-0.349	-0.3398	
0.1281	1.041148	0.102602	40.25	-13.86	-29.61	-0.2017	-0.358	-0.3229	
0.17141	0.96868	0.0793	35	-13.65	-26.81	-0.19	-0.3566	-0.326	
0.20191	0.945622	0.062952	39.2	-12.88	-26.67	-0.1987	-0.3656	-0.3153	
0.189222	1.026996	0.063928	46.83	-15.68	-29.05	-0.2	-0.3747	-0.3138	
0.150914	1.056886	0.041114	41.58	-10.15	-26.39	-0.1986	-0.3792	-0.2985	
0.133712	1.026264	0.05246	30.66	-4.06	-16.17	-0.1927	-0.3854	-0.2986	
0.142496	0.997594	0.032574	30.1	-0.35	-14.56	-0.1913	-0.3899	-0.2879	
0.133224	0.982588	0.026352	31.99	-2.8	-15.26	-0.1739	-0.3841	-0.288	
0.124562	1.009062	0.00244	35.56	-2.59	-18.83	-0.1751	-0.4039	-0.2926	
0.078202	1.064816	-0.005612	33.6	-4.97	-17.36	-0.1695	-0.3948	-0.2804	
0.076372	1.082628	0.014274	31.5	-9.87	-16.87	-0.1809	-0.4022	-0.2865	
0.08784	1.068598	0.006832	26.67	-8.19	-15.89	-0.1781	-0.4068	-0.2743	
0.08906	1.012112	0.011956	19.11	-6.58	-11.34	-0.1738	-0.4068	-0.262	
0.081862	0.97844	-0.004392	19.04	-3.64	-11.41	-0.1709	-0.4008	-0.2651	
0.110532	0.961604	-0.018666	23.24	-6.37	-16.38	-0.1696	-0.3978	-0.2605	
0.117486	0.97966	-0.032086	27.44	-6.3	-20.3	-0.1722	-0.4175	-0.2575	
0.100528	1.025288	-0.047092	30.52	-9.73	-21.21	-0.1636	-0.4161	-0.253	
0.082716	1.03273	-0.059902	30.94	-10.29	-23.1	-0.1679	-0.4205	-0.2499	
0.0305	1.045296	-0.06222	24.78	-4.27	-18.34	-0.1636	-0.416	-0.2438	
0.017202	1.033584	-0.082106	24.57	-6.37	-18.41	-0.1635	-0.4221	-0.2453	
0.035746	1.010892	-0.08235	23.24	-5.25	-19.25	-0.1564	-0.4206	-0.227	
0.052216	0.983808	-0.108702	24.92	-6.86	-21.35	-0.1491	-0.4238	-0.2286	
0.046726	0.967826	-0.120414	26.04	-8.19	-22.05	-0.1474	-0.436	-0.2348	
0.029768	1.025166	-0.14579	31.43	-4.34	-23.87	-0.1548	-0.4374	-0.221	
-0.017934	1.046272	-0.16958	29.61	-7	-22.26	-0.1432	-0.4345	-0.2195	
-0.028792	1.088362	-0.12261	27.86	-7.63	-18.48	-0.1504	-0.4405	-0.221	
-0.020374	1.078846	-0.127978	22.54	-5.39	-14.84	-0.1445	-0.4421	-0.218	
0.020374	0.995398	-0.13603	14.77	-8.12	-10.29	-0.1301	-0.4423	-0.2089	
0.025986	0.962214	-0.149572	17.36	-8.26	-10.57	-0.1359	-0.4467	-0.1982	
0.050752	0.993202	-0.157868	23.24	-10.01	-13.44	-0.1301	-0.4438	-0.2028	
-0.027328	1.075064	-0.164334	26.04	0.28	-12.88	-0.1388	-0.4467	-0.2012	
-0.065026	1.08885	-0.16165	20.02	-6.3	-10.92	-0.1271	-0.4529	-0.1967	
-0.042456	1.051152	-0.167384	9.66	-4.97	-6.79	-0.1286	-0.4468	-0.1982	
-0.023912	0.995154	-0.171532	6.3	-3.78	-4.13	-0.1314	-0.4544	-0.1967	
-0.0061	0.981978	-0.175558	9.59	-2.45	-5.32	-0.1344	-0.4513	-0.1951	
-0.013298	1.00101	-0.18361	14	-2.45	-8.12	-0.1301	-0.4483	-0.1982	
-0.028792	0.991982	-0.19215	12.25	-3.5	-7.56	-0.1259	-0.4407	-0.1906	
-0.027572	1.00711	-0.194102	13.09	4.76	-9.94	-0.1229	-0.4454	-0.1922	
-0.049288	1.026874	-0.190442	9.87	0.21	-5.32	-0.1272	-0.4529	-0.1891	
-0.066368	1.004426	-0.19764	9.73	-1.47	-5.53	-0.1229	-0.4484	-0.1784	
-0.042944	1.0065	-0.206058	8.75	-1.19	-5.6	-0.1141	-0.45	-0.1876	
-0.042578	1.023946	-0.203496	8.12	-1.4	-3.22	-0.1211	-0.4636	-0.1953	
-0.03477	1.020286	-0.210328	7.21	-1.47	-2.45	-0.1228	-0.4575	-0.1754	
-0.039772	1.030656	-0.21533	6.16	0.21	-2.87	-0.1157	-0.4485	-0.1769	
-0.041724	1.040294	-0.210328	4.13	-0.42	-1.05	-0.1157	-0.4484	-0.1739	
-0.06039	1.033828	-0.222406	2.1	-0.98	-0.28	-0.1172	-0.4454	-0.1738	
-0.05002	1.021628	-0.220698	0.14	-0.42	0.07	-0.114	-0.4652	-0.1785	
-0.045262	1.02541	-0.217892	-0.07	1.19	0.63	-0.1287	-0.4558	-0.1707	
-0.054168	1.012722	-0.223748	-2.31	1.68	2.24	-0.1169	-0.4636	-0.1785	
-0.052704	0.999546	-0.22509	-3.29	-0.07	3.43	-0.1197	-0.4667	-0.1846	
-0.038064	1.00406	-0.219356	-2.03	0.42	2.94	-0.1142	-0.4485	-0.1769	
-0.046848	1.012722	-0.215574	-2.94	2.17	4.13	-0.1258	-0.4589	-0.1646	
-0.043798	1.006988	-0.218258	-4.41	3.01	4.2	-0.1227	-0.4651	-0.183	
-0.04026	1.010648	-0.20984	-5.67	2.8	5.95	-0.1185	-0.4499	-0.18	
-0.029646	1.013576	-0.210328	-4.55	2.87	5.18	-0.1257	-0.4559	-0.1799	
-0.030622	1.024434	-0.202032	-5.18	3.5	5.39	-0.1141	-0.4591	-0.18	
-0.039894	1.025044	-0.205448	-6.72	3.99	6.37	-0.1331	-0.4497	-0.1829	
-0.037942	1.005768	-0.213378	-8.54	4.62	7.21	-0.1316	-0.4558	-0.1768	
-0.00732	1.014918	-0.207888	-6.23	3.43	7.77	-0.1374	-0.4497	-0.1844	
-0.018544	1.02846	-0.201178	-6.09	4.41	7.14	-0.1359	-0.4528	-0.189	
-0.029646	1.028094	-0.195078	-9.94	5.88	9.17	-0.1345	-0.4422	-0.1951	
-0.02623	1.015894	-0.201178	-10.71	6.37	9.38	-0.1287	-0.4437	-0.1875	
-0.028304	1.013454	-0.20191	-10.64	3.22	8.96	-0.1374	-0.4467	-0.189	
-0.021716	1.026874	-0.195322	-9.94	3.78	8.82	-0.146	-0.4496	-0.1981	
-0.019032	1.032364	-0.183976	-11.97	3.15	11.48	-0.1287	-0.4483	-0.1906	
-0.009881999	1.02907	-0.183366	-13.3	4.9	11.97	-0.1373	-0.4528	-0.1982	
-0.008784	1.019798	-0.1769	-15.26	5.25	12.39	-0.1404	-0.4405	-0.192	
-0.00244	1.020774	-0.168482	-15.26	4.41	11.62	-0.1418	-0.4405	-0.1905	
0.010004	1.01809	-0.15982	-15.89	3.78	11.76	-0.1461	-0.439	-0.2057	
0.0122	1.009916	-0.156404	-17.15	3.92	12.81	-0.1374	-0.4391	-0.2089	
0.009272	1.015894	-0.1525	-17.5	3.08	12.95	-0.1504	-0.439	-0.2225	
0.015006	1.017236	-0.145424	-17.92	10.08	10.64	-0.1331	-0.4376	-0.2058	
0.002196	1.017968	-0.132614	-21.14	3.01	15.54	-0.1504	-0.4374	-0.2149	
0.030256	1.018456	-0.133468	-16.8	1.47	11.69	-0.1563	-0.4328	-0.2209	
0.037576	1.03517	-0.126392	-18.9	1.54	13.09	-0.1533	-0.4374	-0.2194	
0.034038	1.030412	-0.12688	-20.16	-0.21	13.09	-0.1578	-0.4252	-0.2209	
0.062464	1.019798	-0.11407	-21.42	0.98	12.88	-0.1548	-0.4313	-0.224	
0.035136	1.03029	-0.094916	-22.75	8.54	15.19	-0.1549	-0.4283	-0.2255	
0.063318	1.01016	-0.09467199	-22.05	4.2	14.28	-0.1635	-0.4327	-0.2239	
0.070882	1.005036	-0.083082	-22.68	6.02	14.07	-0.1608	-0.4176	-0.23	
0.083692	1.001132	-0.071614	-22.54	5.88	14.42	-0.1723	-0.428	-0.2269	
0.076616	0.993446	-0.057462	-21	5.88	13.86	-0.1678	-0.4297	-0.2469	
0.061366	1.01199	-0.055998	-20.02	7.14	13.79	-0.1679	-0.4205	-0.2392	
0.085522	1.014552	-0.039528	-22.05	7.56	14.49	-0.1694	-0.4175	-0.2407	
0.108092	0.995764	-0.028426	-23.17	6.79	14.63	-0.1781	-0.4143	-0.2544	
0.108946	0.99613	-0.021228	-20.65	5.88	13.72	-0.1796	-0.4113	-0.2513	
0.106994	0.987956	-0.010736	-20.3	7.07	14.56	-0.1665	-0.413	-0.2575	
0.103334	0.981368	-0.014274	-21.07	8.4	16.1	-0.1795	-0.4113	-0.2651	
0.110044	0.99552	-0.004392	-20.58	7.21	16.94	-0.1796	-0.4098	-0.2574	
0.11163	1.001986	-0.001952	-21.56	5.18	17.43	-0.178	-0.4098	-0.2743	
0.123952	1.02114	0.013908	-21.91	4.2	18.2	-0.1826	-0.3976	-0.262	
0.143838	1.01016	0.031842	-24.15	7.77	19.74	-0.1855	-0.4021	-0.265	
0.15006	0.987224	0.034038	-27.51	12.32	20.79	-0.1883	-0.4006	-0.2787	
0.160186	0.984174	0.045628	-27.65	13.16	20.86	-0.1884	-0.3899	-0.2802	
0.169458	0.990762	0.057096	-24.71	-5.46	22.19	-0.1854	-0.393	-0.2849	
0.162016	1.01199	0.05429	-19.95	4.48	15.54	-0.1954	-0.4066	-0.294	
0.17385	0.997228	0.076128	-28.21	9.31	20.86	-0.1986	-0.3868	-0.2832	
0.161162	0.992348	0.062342	-28	9.38	19.88	-0.1986	-0.3838	-0.2955	
0.166164	0.983564	0.073444	-29.4	4.83	19.25	-0.1986	-0.3777	-0.3	
0.175558	0.984052	0.096624	-28.14	6.93	16.52	-0.1928	-0.3793	-0.3001	
0.18727	0.96685	0.112118	-26.39	4.34	14.98	-0.203	-0.3731	-0.3137	
0.226188	0.944158	0.110288	-29.61	4.55	15.4	-0.2016	-0.3761	-0.2954	
0.26108	0.931714	0.131638	-24.92	8.26	12.6	-0.203	-0.3701	-0.3153	
0.255346	0.944036	0.14213	-22.33	8.75	11.27	-0.2045	-0.3625	-0.3183	
0.223992	0.96685	0.142984	-20.86	8.68	10.29	-0.2074	-0.3655	-0.3183	
0.224724	0.961116	0.147742	-24.08	9.52	10.22	-0.2076	-0.3503	-0.3198	
0.236558	0.962824	0.154574	-24.01	10.92	10.5	-0.2061	-0.3488	-0.332	
0.230458	0.965264	0.1586	-24.08	10.57	9.8	-0.2046	-0.3503	-0.332	
0.237656	0.962702	0.167384	-25.41	7.7	9.66	-0.206	-0.3534	-0.3336	
0.24278	0.966362	0.174338	-25.13	7.56	8.33	-0.2103	-0.3564	-0.3381	
0.240096	0.945744	0.197152	-29.33	7.28	8.61	-0.2134	-0.3366	-0.3426	
0.246562	0.933788	0.208498	-29.54	7.49	7.07	-0.2047	-0.3397	-0.3427	
0.233752	0.961848	0.219722	-28.56	6.09	5.53	-0.1989	-0.3353	-0.3488	
0.236192	0.955138	0.228384	-30.03	4.55	4.48	-0.2091	-0.3321	-0.3518	
0.249734	0.943792	0.251564	-32.76	5.67	4.83	-0.2163	-0.326	-0.3655	
0.251808	0.914878	0.279258	-32.06	5.6	2.59	-0.212	-0.3275	-0.3533	
0.255834	0.869616	0.301218	-32.76	7.49	2.73	-0.1989	-0.3247	-0.3656	
0.261812	0.850828	0.321348	-26.81	8.4	2.66	-0.2106	-0.3185	-0.3686	
0.23729	0.862906	0.340502	-21.35	7.98	3.64	-0.2105	-0.3245	-0.3702	
0.222894	0.857538	0.355264	-17.78	9.52	4.83	-0.2092	-0.3109	-0.3778	
0.221308	0.84424	0.36905	-15.89	9.1	7.77	-0.2033	-0.3141	-0.3855	
0.24156	0.836188	0.374784	-13.37	10.43	8.96	-0.2034	-0.314	-0.3732	
0.252418	0.841068	0.372588	-11.48	7.84	10.29	-0.2049	-0.3079	-0.3763	
0.239242	0.860344	0.384788	-8.12	7.35	11.13	-0.2079	-0.3033	-0.3762	
0.221308	0.861442	0.380396	-8.26	4.76	11.48	-0.2078	-0.3064	-0.3839	
0.21106	0.86742	0.372588	-7.7	2.38	12.11	-0.2091	-0.3155	-0.3854	
0.21655	0.875106	0.366732	-10.22	2.24	13.65	-0.2108	-0.2957	-0.3823	
0.2135	0.870836	0.3294	-11.83	-0.28	14.7	-0.2106	-0.3139	-0.3824	
0.20923	0.845338	0.315736	-10.57	-5.18	15.89	-0.2121	-0.3063	-0.3884	
0.253882	0.857172	0.408822	-1.89	-13.86	13.09	-0.2166	-0.2957	-0.396	
0.304512	0.89853	0.447008	2.1	-12.74	9.66	-0.2166	-0.2987	-0.3823	
0.300242	0.870714	0.399184	-1.4	-11.48	10.22	-0.2238	-0.3016	-0.3914	
0.293776	0.855708	0.390644	1.19	-11.76	9.73	-0.2209	-0.3001	-0.3868	
0.284748	0.865102	0.376736	2.24	-12.04	8.75	-0.2296	-0.3015	-0.3837	
0.27145	0.873764	0.371856	4.27	-12.95	7.35	-0.2298	-0.2863	-0.3852	
0.285968	0.866322	0.359656	3.36	-14.21	9.17	-0.2312	-0.2939	-0.3852	
0.310856	0.855586	0.361608	4.83	-15.4	9.73	-0.2385	-0.2922	-0.379	
0.30805	0.85644	0.350262	6.93	-15.26	10.29	-0.2298	-0.2954	-0.3776	
0.30378	0.84973	0.348066	8.96	-13.86	11.69	-0.2413	-0.2953	-0.3867	
0.304756	0.855586	0.331352	10.85	-12.88	13.37	-0.2487	-0.2921	-0.3728	
0.30744	0.87901	0.328058	14.07	-13.02	14.28	-0.2544	-0.3057	-0.3682	
0.297314	0.870348	0.310368	14.42	-12.53	15.82	-0.2399	-0.2983	-0.379	
0.311222	0.87657	0.305122	16.45	-12.95	17.5	-0.2588	-0.2995	-0.3667	
0.323056	0.87535	0.292556	15.68	-12.46	20.09	-0.2531	-0.295	-0.3682	
0.317322	0.861076	0.287188	16.73	-12.88	22.47	-0.2546	-0.292	-0.3682	
0.323422	0.863638	0.277428	17.43	-12.6	25.83	-0.2632	-0.301	-0.3636	
0.33245	0.88389	0.270474	17.29	-14.77	28.49	-0.2633	-0.2964	-0.3559	
0.35136	0.887672	0.268522	16.94	-15.4	28.77	-0.2692	-0.2932	-0.3513	
0.357582	0.877424	0.247538	15.96	-12.67	30.38	-0.2794	-0.2931	-0.3527	
0.358436	0.879864	0.22814	16.1	-11.13	31.92	-0.2822	-0.2946	-0.3527	
0.35929	0.885232	0.221552	17.08	-13.51	32.2	-0.2677	-0.2978	-0.3559	
0.35868	0.886818	0.203008	15.47	-14.91	32.55	-0.2852	-0.2945	-0.345	
0.379542	0.879986	0.206302	14.7	-18.76	33.04	-0.291	-0.2944	-0.3526	
0.419558	0.890356	0.207644	17.08	-19.67	33.25	-0.2983	-0.2943	-0.3373	
0.403088	0.875106	0.188734	14.07	-21.42	35.63	-0.2955	-0.2958	-0.3281	
0.40138	0.876814	0.181536	12.04	-20.86	36.4	-0.3144	-0.2925	-0.3326	
0.428464	0.851804	0.17751	8.75	-23.73	35.98	-0.3131	-0.2819	-0.3326	
0.458354	0.81679	0.150304	7.77	-26.88	35.84	-0.3261	-0.2908	-0.3248	
0.490684	0.803004	0.14152	12.32	-29.47	36.12	-0.3277	-0.2801	-0.3171	
0.49105	0.839726	0.122	16.17	-31.64	35.42	-0.3307	-0.277	-0.3171	
0.491172	0.87108	0.11102	13.44	-32.06	36.82	-0.341	-0.2708	-0.3078	
0.504592	0.844118	0.109678	6.93	-36.33	38.08	-0.36	-0.269	-0.3031	
0.527772	0.829234	0.096014	7.98	-38.99	37.87	-0.3672	-0.2779	-0.2908	
0.584868	0.806176	0.093696	8.75	-33.32	35.63	-0.3559	-0.2568	-0.2909	
0.639158	0.796294	0.089914	2.94	-36.47	40.46	-0.3763	-0.2519	-0.283	
0.657946	0.79361	0.085278	10.85	-34.02	36.05	-0.372	-0.2565	-0.2724	
0.63928	0.786046	0.07124799	9.03	-30.73	37.31	-0.3764	-0.2489	-0.2815	
0.626592	0.779702	0.055144	9.59	-28.56	37.8	-0.3909	-0.2532	-0.2768	
0.680638	0.812886	0.07442	12.53	-26.11	36.05	-0.3984	-0.2379	-0.2706	
0.677222	0.796416	0.056242	8.96	-18.55	35	-0.3998	-0.2455	-0.266	
0.701744	0.752252	0.058926	4.41	-23.59	34.65	-0.4	-0.2378	-0.2522	
0.696254	0.743346	0.029158	9.24	-22.05	30.1	-0.4028	-0.2424	-0.2553	
0.671732	0.741272	0.016592	8.68	-20.16	31.01	-0.4071	-0.2423	-0.2583	
0.684786	0.744566	0.009393999	9.52	-16.38	28.91	-0.4146	-0.2346	-0.2491	
0.724558	0.73505	0.002318	7.77	-14.42	28.91	-0.4103	-0.2271	-0.2552	
0.75213	0.71492	0.000854	7.42	-14.77	28	-0.4249	-0.2207	-0.2489	
0.730292	0.710162	-0.02013	7.28	-15.4	27.51	-0.4235	-0.2223	-0.2444	
0.69479	0.714676	-0.038186	7.63	-17.5	26.88	-0.4294	-0.2146	-0.2474	
0.699792	0.72834	-0.038552	7.21	-18.34	25.69	-0.4178	-0.2163	-0.2429	
0.721752	0.710284	-0.036722	4.06	-20.37	24.99	-0.4252	-0.2116	-0.2306	
0.732488	0.689788	-0.046726	1.96	-20.37	24.99	-0.4368	-0.2129	-0.2381	
0.737734	0.68015	-0.045506	0.21	-19.11	26.25	-0.4472	-0.1976	-0.2319	
0.770308	0.685274	-0.043066	-0.49	-18.69	26.39	-0.4471	-0.1976	-0.2426	
0.797148	0.678442	-0.036966	0.42	-17.99	24.71	-0.4384	-0.2083	-0.2228	
0.790072	0.66185	-0.078934	0.21	-17.01	22.47	-0.4458	-0.193	-0.2258	
0.808982	0.645746	-0.058316	-1.47	-15.68	25.9	-0.4473	-0.1899	-0.2242	
0.817156	0.622322	-0.063562	7.35	-12.46	22.4	-0.4561	-0.1928	-0.2165	
0.82228	0.611952	-0.036478	8.26	-11.34	23.31	-0.446	-0.1839	-0.215	
0.821426	0.601094	-0.038918	12.04	-11.55	23.24	-0.4607	-0.173	-0.2179	
0.818864	0.591822	-0.026352	16.87	-9.17	19.67	-0.4621	-0.1791	-0.2118	
0.793122	0.605486	-0.06283	12.46	-8.89	19.81	-0.452	-0.1762	-0.2104	
0.804468	0.639036	-0.091866	13.23	-7.77	16.94	-0.4681	-0.1653	-0.2148	
0.812276	0.653676	-0.05856	9.94	-8.47	14	-0.4594	-0.1654	-0.2072	
0.809592	0.626836	-0.06039	6.58	-8.33	11.55	-0.4681	-0.1729	-0.2026	
0.83753	0.61915	-0.051118	4.97	-6.79	8.68	-0.4608	-0.173	-0.198	
0.852048	0.60817	-0.059048	6.3	-5.81	5.18	-0.4754	-0.1637	-0.2117	
0.850828	0.60695	-0.068442	4.9	-4.97	3.92	-0.4739	-0.1713	-0.2071	
0.843996	0.621102	-0.07442	2.1	-3.64	4.48	-0.4681	-0.1698	-0.2026	
0.839238	0.61244	-0.078446	-0.14	-2.1	2.87	-0.4711	-0.1652	-0.2056	
0.839726	0.598532	-0.078812	0.49	-0.63	0.91	-0.4624	-0.1654	-0.2041	
0.8357	0.60146	-0.093208	-0.63	1.75	0.21	-0.4754	-0.1667	-0.2025	
0.8357	0.612318	-0.0854	1.33	1.89	-1.75	-0.4667	-0.1729	-0.1934	
0.83204	0.615368	-0.085644	-0.77	3.36	-3.08	-0.4609	-0.1639	-0.2057	
0.825818	0.607194	-0.089304	-2.17	3.15	-3.64	-0.4637	-0.1729	-0.2057	
0.827892	0.607194	-0.096624	-1.96	3.01	-5.53	-0.4708	-0.182	-0.2087	
0.820328	0.607682	-0.104798	-1.89	2.66	-7.21	-0.4681	-0.1744	-0.2026	
0.82655	0.606462	-0.107238	-3.36	3.71	-8.19	-0.4754	-0.1697	-0.201	
0.83326	0.617442	-0.09552599	-2.31	5.11	-10.01	-0.4666	-0.1774	-0.1965	
0.82228	0.621102	-0.099186	-2.73	5.74	-11.62	-0.4723	-0.1804	-0.2118	
0.81801	0.632082	-0.100162	-4.13	7.56	-12.46	-0.4635	-0.1821	-0.2088	
0.823988	0.626836	-0.09552599	-4.69	8.61	-14.21	-0.4679	-0.1775	-0.2133	
0.827282	0.623542	-0.085278	-5.11	10.5	-14.7	-0.4666	-0.1714	-0.2148	
0.798368	0.635864	-0.081862	-5.04	12.95	-15.96	-0.4664	-0.176	-0.224	
0.783728	0.651236	-0.078446	-5.88	13.44	-17.15	-0.4604	-0.1913	-0.2211	
0.78751	0.658678	-0.068442	-6.72	13.51	-19.04	-0.4431	-0.187	-0.2181	
0.783484	0.654408	-0.059536	-8.12	14.14	-20.44	-0.4576	-0.1852	-0.218	
0.782386	0.647332	-0.052338	-9.03	14.91	-21.42	-0.4604	-0.1958	-0.2211	
0.774944	0.654896	-0.053558	-7.91	15.54	-22.68	-0.4429	-0.1946	-0.2304	
0.770186	0.663802	-0.038674	-7	14.77	-24.15	-0.4442	-0.2007	-0.235	
0.762378	0.679906	-0.042212	-6.51	13.65	-25.69	-0.4442	-0.1991	-0.2365	
0.75091	0.685762	-0.044652	-7.28	12.67	-26.32	-0.4457	-0.1991	-0.2319	
0.738588	0.699182	-0.029524	-8.96	14	-26.39	-0.4355	-0.2008	-0.2366	
0.726998	0.711138	-0.015738	-8.33	14.84	-28.14	-0.4456	-0.2037	-0.2334	
0.729926	0.711992	0.005002	-7.35	15.54	-30.45	-0.4396	-0.2144	-0.2458	
0.741028	0.711626	-0.001464	-8.54	16.73	-32.27	-0.4337	-0.2221	-0.2412	
0.737002	0.715042	-0.008905999	-8.96	15.82	-32.76	-0.4193	-0.2162	-0.2383	
0.719922	0.714676	0.023058	-7.91	14.63	-33.46	-0.4191	-0.2269	-0.2459	
0.689178	0.736636	0.01464	-10.08	15.75	-32.62	-0.4118	-0.224	-0.2475	
0.69174	0.736758	0.032086	-12.11	14.98	-32.97	-0.4146	-0.2315	-0.2475	
0.687104	0.738344	0.04209	-13.16	15.61	-32.9	-0.4247	-0.2329	-0.2582	
0.681858	0.738588	0.056608	-10.5	15.54	-33.32	-0.4071	-0.2423	-0.2583	
0.651602	0.753838	0.061854	-8.54	15.68	-33.81	-0.3969	-0.2425	-0.2614	
0.635742	0.785436	0.066734	-7.14	16.38	-34.16	-0.4043	-0.2363	-0.266	
0.61122	0.8052	0.056852	-9.52	15.33	-33.11	-0.3869	-0.232	-0.263	
0.614026	0.79239	0.058438	-10.43	17.08	-35.21	-0.3954	-0.244	-0.2691	
0.59658	0.79239	0.065636	-12.18	15.61	-35.35	-0.3925	-0.2456	-0.2707	
0.592066	0.803492	0.070882	-14.35	14.91	-35.14	-0.3807	-0.2579	-0.2693	
0.572546	0.828502	0.091256	-14.98	14.14	-35.28	-0.372	-0.255	-0.2754	
0.553392	0.831918	0.09857599	-18.76	15.12	-34.65	-0.3718	-0.2672	-0.2785	
0.559248	0.83326	0.113704	-19.95	14.35	-35.91	-0.3658	-0.2779	-0.2863	
0.559126	0.82838	0.115534	-21.49	14.28	-36.68	-0.3613	-0.2796	-0.2985	
0.54107	0.816424	0.102846	-23.87	14.91	-34.86	-0.3586	-0.2705	-0.2924	
0.500444	0.814838	0.108824	-22.47	14.07	-33.46	-0.3483	-0.2706	-0.3001	
0.495442	0.839604	0.141886	-19.04	14.42	-36.05	-0.3455	-0.2676	-0.2986	
0.510692	0.875838	0.163114	-19.39	13.58	-37.03	-0.3395	-0.2738	-0.3033	
0.497882	0.880474	0.165676	-21.14	12.88	-37.66	-0.338	-0.2754	-0.3079	
0.479948	0.871812	0.179096	-23.52	13.93	-37.17	-0.3379	-0.28	-0.3155	
0.484706	0.856562	0.192516	-24.57	16.87	-37.1	-0.3234	-0.2802	-0.3141	
0.474702	0.853634	0.201178	-24.71	17.64	-36.68	-0.3176	-0.2803	-0.3172	
0.46726	0.854732	0.205326	-22.54	17.08	-37.03	-0.3205	-0.2817	-0.3172	
0.446398	0.863028	0.20435	-21.77	15.75	-36.54	-0.313	-0.2864	-0.328	
0.428342	0.865834	0.203252	-20.51	15.19	-36.4	-0.3029	-0.2881	-0.3281	
0.401746	0.877424	0.207156	-20.44	15.19	-35.7	-0.3085	-0.2926	-0.3403	
0.389912	0.876692	0.21899	-22.12	17.22	-34.79	-0.2955	-0.2958	-0.3281	
0.385276	0.86315	0.23424	-23.17	18.76	-32.9	-0.297	-0.2867	-0.3434	
0.383202	0.87535	0.242536	-18.83	18.27	-34.09	-0.2911	-0.2929	-0.3419	
0.376492	0.894748	0.260958	-18.62	19.11	-34.09	-0.2851	-0.296	-0.3512	
0.361852	0.89609	0.26901	-20.37	21.28	-33.11	-0.2735	-0.2947	-0.3543	
0.347944	0.889868	0.281088	-20.37	22.89	-33.32	-0.2749	-0.2977	-0.3604	
0.327936	0.891454	0.293044	-20.16	24.92	-33.81	-0.2634	-0.2933	-0.3528	
0.30317	0.896944	0.292434	-19.88	26.88	-35.28	-0.2546	-0.2965	-0.356	
0.30378	0.901824	0.305854	-19.81	27.23	-36.12	-0.2559	-0.3011	-0.3667	
0.292312	0.907802	0.31293	-17.64	27.93	-37.03	-0.2502	-0.2921	-0.3759	
0.283162	0.886208	0.324764	-19.95	32.41	-35.7	-0.234	-0.3014	-0.376	
0.257908	0.888892	0.33367	-17.78	34.23	-35.21	-0.2327	-0.2923	-0.3821	
0.227042	0.8967	0.347822	-17.36	35.28	-35.42	-0.2254	-0.2955	-0.3791	
0.209718	0.908168	0.35441	-16.24	34.51	-36.82	-0.2079	-0.2942	-0.3884	
0.198128	0.907558	0.36234	-17.5	36.12	-37.1	-0.2064	-0.2958	-0.3915	
0.1708	0.889868	0.354288	-21.35	36.96	-35.42	-0.1875	-0.2945	-0.3916	
0.152134	0.895358	0.37271	-18.62	37.17	-36.19	-0.1948	-0.2899	-0.3977	
0.127124	0.91927	0.378566	-18.06	34.37	-37.17	-0.1875	-0.2931	-0.4069	
0.099674	0.937814	0.390644	-20.23	33.88	-37.24	-0.1744	-0.2933	-0.407	
0.105774	0.929274	0.399184	-24.01	33.32	-36.61	-0.1685	-0.2934	-0.4086	
0.090524	0.904752	0.399794	-27.65	36.61	-34.37	-0.1627	-0.298	-0.4087	
0.066124	0.884378	0.383812	-27.09	34.37	-34.3	-0.141	-0.2907	-0.4073	
0.07015	0.904264	0.425292	-22.96	31.29	-38.29	-0.1394	-0.2893	-0.4226	
0.05612	0.895724	0.420412	-24.99	33.39	-38.15	-0.1408	-0.2938	-0.4272	
0.043066	0.860222	0.429074	-24.29	34.02	-37.24	-0.128	-0.2803	-0.4226	
0.023302	0.863516	0.440054	-19.46	33.04	-38.64	-0.122	-0.2865	-0.4319	
0.01403	0.875716	0.440298	-17.64	31.08	-40.74	-0.1119	-0.2791	-0.4365	
-0.024888	0.876082	0.45323	-16.1	31.57	-40.18	-0.1091	-0.27	-0.4442	
-0.051484	0.881206	0.444812	-14.49	29.05	-39.06	-0.0988	-0.2778	-0.4381	
-0.060268	0.87352	0.458354	-14.21	26.18	-39.13	-0.087	-0.2886	-0.449	
-0.06161	0.871324	0.459086	-13.93	24.08	-38.15	-0.0799	-0.2796	-0.4459	
-0.06283	0.860832	0.460916	-16.73	26.6	-35.56	-0.0755	-0.2751	-0.4551	
-0.07625	0.826794	0.457134	-20.37	29.26	-31.22	-0.0653	-0.2753	-0.4537	
-0.106018	0.809714	0.48739	-18.55	30.45	-28.98	-0.0654	-0.2722	-0.4506	
-0.116754	0.817766	0.501298	-15.61	32.69	-30.17	-0.0509	-0.2709	-0.4477	
-0.155062	0.828258	0.508862	-13.02	30.94	-29.96	-0.0393	-0.2696	-0.4523	
-0.133346	0.823134	0.499224	-12.88	29.61	-29.47	-0.0292	-0.2621	-0.4524	
-0.140666	0.812276	0.518256	-13.65	30.03	-28.14	-0.0276	-0.2712	-0.4494	
-0.193492	0.797758	0.502274	-14.21	32.48	-26.11	-0.0058	-0.2701	-0.4648	
-0.227774	0.80032	0.513864	-11.06	32.13	-25.27	-0.0132	-0.2609	-0.4647	
-0.242902	0.817522	0.510082	-9.52	29.33	-25.41	0.007	-0.2551	-0.4587	
-0.23363	0.805322	0.500566	-10.71	25.48	-25.06	-0.0002	-0.2534	-0.4617	
-0.244732	0.795318	0.51423	-10.85	25.83	-24.71	0.0186	-0.2567	-0.4558	
-0.285968	0.798734	0.504958	-10.43	25.69	-24.92	0.0156	-0.2476	-0.4588	
-0.312076	0.813862	0.502152	-8.05	23.31	-24.5	0.0215	-0.2477	-0.4695	
-0.293898	0.823744	0.507276	-8.61	21.77	-23.73	0.0199	-0.2401	-0.468	
-0.316102	0.825208	0.489098	-9.59	19.74	-23.31	0.0315	-0.2433	-0.462	
-0.339282	0.815204	0.509838	-12.04	19.95	-21.42	0.0388	-0.2419	-0.462	
-0.374906	0.793244	0.503372	-15.82	20.44	-18.55	0.0402	-0.2404	-0.4589	
-0.36844	0.781288	0.518012	-15.05	19.6	-17.08	0.0404	-0.248	-0.4712	
-0.325374	0.754082	0.520696	-15.61	18.34	-15.82	0.0417	-0.2389	-0.4697	
-0.34099	0.751642	0.52033	-12.88	15.33	-16.31	0.0401	-0.2267	-0.4681	
-0.362096	0.758474	0.53009	-9.8	14.63	-15.61	0.0503	-0.2314	-0.4712	
-0.35319	0.746152	0.517036	-10.85	15.68	-12.6	0.0619	-0.2301	-0.4683	
-0.354044	0.740662	0.521794	-10.64	16.03	-10.22	0.0664	-0.2362	-0.4714	
-0.36722	0.739442	0.518988	-9.31	17.29	-9.24	0.0618	-0.2255	-0.4621	
-0.39528	0.744444	0.533384	-7.7	18.41	-8.96	0.0721	-0.2287	-0.4729	
-0.421632	0.758474	0.522282	-7.56	18.13	-8.89	0.0662	-0.2241	-0.4713	
-0.424316	0.757254	0.523014	-6.65	16.31	-8.4	0.0749	-0.2242	-0.4714	
-0.41846	0.756766	0.5185	-6.23	13.37	-8.19	0.0836	-0.2243	-0.4669	
-0.41968	0.756766	0.51545	-5.81	12.04	-7.49	0.0764	-0.2227	-0.4745	
-0.420412	0.760792	0.507764	-5.95	11.27	-7	0.0762	-0.2181	-0.4653	
-0.441152	0.759816	0.515084	-7.56	12.46	-4.62	0.0836	-0.2258	-0.4669	
-0.4697	0.75945	0.524356	-8.61	12.04	-3.5	0.0892	-0.2092	-0.4653	
-0.484706	0.751276	0.52521	-10.22	10.01	-2.87	0.08199999	-0.2136	-0.4699	
-0.455182	0.736758	0.525576	-10.78	8.47	-2.45	0.0964	-0.2078	-0.4608	
-0.426512	0.731512	0.52948	-10.36	6.51	-2.73	0.0951	-0.2139	-0.4761	
-0.445788	0.72407	0.534482	-8.82	4.83	-2.73	0.0863	-0.2076	-0.4714	
-0.47336	0.717726	0.533872	-9.03	4.13	-1.54	0.0935	-0.2077	-0.4654	
-0.46055	0.726754	0.54107	-7.98	2.8	-0.98	0.0905	-0.2016	-0.4638	
-0.450668	0.72712	0.539606	-7.14	-0.07	-1.19	0.0891	-0.2046	-0.4653	
-0.449692	0.708942	0.540826	-6.51	-1.19	-0.56	0.0906	-0.2047	-0.4715	
-0.45689	0.71126	0.543632	-4.41	-3.15	-0.84	0.0892	-0.2077	-0.4776	
-0.465674	0.71248	0.54473	-3.43	-4.48	0.35	0.1008	-0.2063	-0.4685	
-0.46238	0.711992	0.542046	-2.38	-5.74	1.75	0.095	-0.2078	-0.4715	
-0.44042	0.715286	0.54839	-0.84	-7.28	2.66	0.095	-0.2047	-0.4745	
-0.4392	0.715286	0.545828	-0.28	-7.49	3.85	0.0891	-0.2001	-0.4775	
-0.46665	0.71553	0.553392	0.77	-7.56	5.81	0.08199999	-0.2091	-0.476	
-0.438346	0.725656	0.55937	3.36	-9.52	4.97	0.0805	-0.2045	-0.476	
-0.440542	0.717726	0.553026	0.14	-8.26	7.14	0.0819	-0.2061	-0.4714	
-0.434564	0.712968	0.5612	1.89	-10.92	8.19	0.0906	-0.2001	-0.4714	
-0.413702	0.716628	0.553758	3.92	-11.06	8.68	0.0804	-0.1985	-0.4775	
-0.421876	0.716872	0.561078	4.9	-12.46	10.22	0.07759999	-0.209	-0.4775	
-0.428708	0.72163	0.56181	5.25	-13.93	10.78	0.07759999	-0.2045	-0.4805	
-0.410652	0.718214	0.565592	6.44	-13.16	12.39	0.0746	-0.2014	-0.4683	
-0.379054	0.718702	0.56608	8.05	-14.07	12.53	0.0675	-0.2165	-0.4728	
-0.385642	0.728706	0.55449	8.68	-13.16	13.58	0.072	-0.2211	-0.4744	
-0.386984	0.73261	0.555588	10.15	-14.49	15.4	0.0602	-0.2133	-0.4697	
-0.372466	0.735294	0.551318	11.2	-15.68	15.96	0.0604	-0.2255	-0.4728	
-0.366488	0.731268	0.554856	12.25	-16.38	16.87	0.0531	-0.2208	-0.4789	
-0.357338	0.733098	0.551684	14	-18.2	17.64	0.0459	-0.2223	-0.4804	
-0.350018	0.739076	0.549	15.12	-18.27	19.18	0.0473	-0.2192	-0.4758	
-0.341844	0.745664	0.543266	15.75	-18.06	20.44	0.0358	-0.2252	-0.4818	
-0.336354	0.7503	0.533872	16.24	-17.08	21.7	0.0358	-0.2312	-0.4727	
-0.31659	0.76433	0.542778	18.13	-18.34	21.49	0.0401	-0.2282	-0.4681	
-0.297192	0.777872	0.534482	19.81	-19.95	21.21	0.0227	-0.231	-0.4695	
-0.289628	0.790926	0.522404	19.95	-21.7	21.21	0.0256	-0.2371	-0.465	
-0.287676	0.799222	0.519964	19.81	-22.05	22.54	0.0199	-0.2446	-0.4603	
-0.283528	0.802516	0.522038	19.6	-22.54	24.01	0.0111	-0.2369	-0.4618	
-0.273768	0.808006	0.515328	19.18	-21.56	25.27	0.0056	-0.2536	-0.4694	
-0.267302	0.810934	0.50447	18.9	-22.47	26.74	-0.0002	-0.258	-0.4572	
-0.231678	0.817888	0.495198	19.39	-24.43	27.72	-0.0002	-0.2549	-0.4541	
-0.20252	0.81618	0.498614	20.44	-23.8	28.63	-0.0076	-0.2503	-0.454	
-0.202886	0.814716	0.487756	21.77	-21.98	28.7	-0.0177	-0.2486	-0.4662	
-0.209596	0.828258	0.487634	22.33	-22.82	29.12	-0.0117	-0.2654	-0.451	
-0.183244	0.835822	0.487878	22.47	-24.64	29.19	-0.0233	-0.2683	-0.4586	
-0.159454	0.838872	0.477142	21.28	-25.2	30.17	-0.0204	-0.2683	-0.454	
-0.150426	0.837408	0.467382	21.84	-23.1	31.92	-0.0262	-0.2697	-0.4448	
-0.12993	0.84485	0.463966	21.77	-23.45	32.55	-0.0465	-0.277	-0.4446	
-0.09638	0.84607	0.461282	23.1	-24.57	31.5	-0.0495	-0.2754	-0.4385	
-0.08845	0.841678	0.444934	22.82	-24.43	31.78	-0.0537	-0.2815	-0.4385	
-0.08723	0.861564	0.432002	24.36	-25.76	31.71	-0.0623	-0.2889	-0.44	
-0.049532	0.8906	0.428464	26.53	-28.28	30.45	-0.0623	-0.2905	-0.44	
-0.033062	0.931714	0.424682	24.71	-28.35	29.68	-0.06659999	-0.298	-0.4323	
-0.049044	0.934154	0.410896	22.26	-24.01	31.15	-0.0755	-0.2902	-0.4261	
-0.046604	0.910364	0.386374	18.27	-21.42	35.21	-0.087	-0.2931	-0.4306	
-0.008174	0.906338	0.383202	19.6	-23.59	36.54	-0.0913	-0.2976	-0.4291	
0.030988	0.90219	0.385398	20.16	-27.3	37.1	-0.0913	-0.3052	-0.426	
0.056242	0.885232	0.374784	21.7	-27.51	37.94	-0.1001	-0.3035	-0.4153	
0.069906	0.88755	0.340258	20.51	-29.4	40.32	-0.1074	-0.3004	-0.4137	
0.124196	0.895968	0.37698	24.08	-27.02	39.55	-0.1218	-0.3032	-0.4228	
0.122366	0.90829	0.357948	24.57	-24.29	38.57	-0.1364	-0.3045	-0.4104	
0.125782	0.921588	0.35136	23.31	-21.49	38.71	-0.1422	-0.3029	-0.4134	
0.128222	0.929518	0.349896	24.01	-23.45	38.22	-0.1393	-0.3135	-0.3982	
0.15616	0.92842	0.333914	23.59	-24.36	37.94	-0.1481	-0.3073	-0.3981	
0.156404	0.92598	0.310368	19.67	-21.77	41.02	-0.1566	-0.3209	-0.3981	
0.166042	0.93086	0.304756	17.36	-14.84	42.91	-0.161	-0.3208	-0.3873	
0.16897	0.943426	0.329156	13.51	-7.21	44.31	-0.1683	-0.3191	-0.3919	
0.184586	0.938912	0.338916	13.37	-3.5	44.59	-0.177	-0.322	-0.3842	
0.192028	0.927932	0.31476	12.46	-4.48	44.59	-0.18	-0.3159	-0.3826	
0.165066	0.936106	0.310002	13.58	-9.52	42.98	-0.1946	-0.3097	-0.3962	
0.196664	0.958066	0.284382	9.38	-9.94	39.41	-0.1902	-0.3158	-0.3886	
0.229848	0.937326	0.293776	6.44	-13.58	38.36	-0.199	-0.3126	-0.3824	
0.229726	0.904874	0.299876	6.44	-16.17	37.66	-0.1976	-0.3096	-0.3763	
0.241072	0.880718	0.29585	9.45	-16.73	35.84	-0.2063	-0.3109	-0.3717	
0.272914	0.884744	0.27572	12.32	-20.02	34.44	-0.215	-0.3108	-0.3793	
0.307684	0.892674	0.265716	14.35	-22.33	34.58	-0.215	-0.3123	-0.3747	
0.308782	0.897798	0.268034	14.98	-19.32	36.54	-0.2253	-0.3061	-0.3715	
0.296948	0.875228	0.245098	16.73	-18.48	39.97	-0.2412	-0.3134	-0.3638	
0.340014	0.882304	0.234118	18.2	-19.95	40.32	-0.2442	-0.3119	-0.3576	
0.382714	0.85766	0.254858	19.6	-19.53	40.46	-0.2544	-0.3087	-0.3575	
0.400892	0.863394	0.236924	21.63	-21.77	38.85	-0.2661	-0.3024	-0.3544	
0.404308	0.885842	0.233264	24.08	-23.8	37.38	-0.2575	-0.2995	-0.356	
0.413702	0.897798	0.217526	22.4	-24.99	37.52	-0.2793	-0.3022	-0.3497	
0.435906	0.882914	0.199592	20.51	-22.47	37.8	-0.2852	-0.2975	-0.3359	
0.440176	0.86071	0.204228	16.94	-22.54	39.48	-0.275	-0.2992	-0.339	
0.460428	0.845338	0.197396	18.27	-24.99	37.73	-0.2808	-0.2961	-0.3435	
0.462746	0.846314	0.189954	19.6	-23.8	35.98	-0.2896	-0.3005	-0.3343	
0.483852	0.847412	0.186904	19.46	-24.29	36.96	-0.3057	-0.2926	-0.3296	
0.495076	0.843996	0.179218	18.62	-23.03	37.87	-0.3145	-0.2879	-0.328	
0.52277	0.843996	0.16104	18.55	-21.14	38.99	-0.3162	-0.2757	-0.3096	
0.546194	0.852536	0.147986	19.39	-21.42	39.55	-0.326	-0.2984	-0.3172	
0.555954	0.877058	0.139446	19.46	-19.67	38.57	-0.3262	-0.2892	-0.308	
0.549732	0.878522	0.142618	12.81	-15.4	40.46	-0.3437	-0.2905	-0.3048	
0.550098	0.857294	0.118828	9.59	-14	40.53	-0.3394	-0.2814	-0.3109	
0.554856	0.82167	0.121756	8.61	-16.45	38.64	-0.3528	-0.2645	-0.3016	
0.569374	0.832162	0.124684	9.31	-14.84	36.19	-0.3409	-0.2814	-0.2987	
0.577426	0.851316	0.081618	11.48	-15.96	34.86	-0.3554	-0.2827	-0.2986	
0.534604	0.874984	0.036112	9.24	-15.89	36.05	-0.3498	-0.2752	-0.2955	
0.562176	0.910974	0.14091	11.83	-15.96	31.22	-0.3615	-0.2689	-0.2863	
0.611952	0.878522	0.144692	8.82	-14	24.5	-0.3673	-0.2733	-0.2801	
0.676002	0.772626	0.096136	3.57	-16.24	24.43	-0.3746	-0.2702	-0.2877	
0.647698	0.757498	0.08235	8.96	-19.6	22.33	-0.3734	-0.2535	-0.28	
0.592798	0.778848	0.077714	11.27	-20.72	20.16	-0.3733	-0.2596	-0.2816	
0.569984	0.783484	0.041846	11.34	-21	19.18	-0.3748	-0.255	-0.2846	
0.59231	0.786534	0.025376	8.4	-21.91	19.88	-0.3793	-0.2488	-0.2738	
0.632448	0.789462	0.020252	5.32	-19.74	22.12	-0.3923	-0.2608	-0.2692	
0.664778	0.76372	0.000488	2.38	-17.22	25.55	-0.3879	-0.2578	-0.2769	
0.666608	0.732488	-0.010614	2.66	-16.24	29.26	-0.3908	-0.2608	-0.2677	
0.675514	0.742614	-0.042212	3.64	-15.68	30.45	-0.3997	-0.25	-0.2706	
0.687836	0.737002	-0.051728	1.19	-12.18	35	-0.4115	-0.2423	-0.2629	
0.69235	0.73444	-0.019154	4.97	-11.2	37.52	-0.4058	-0.2347	-0.2552	
0.715042	0.73078	0.089914	3.15	-9.03	33.81	-0.3985	-0.2379	-0.2568	
0.750422	0.702232	0.043554	2.94	-8.26	28.21	-0.4101	-0.2392	-0.2552	
0.773114	0.645624	0.018178	6.3	-16.17	26.18	-0.4088	-0.2271	-0.2552	
0.759816	0.666608	0.003416	9.45	-14.56	24.29	-0.4146	-0.227	-0.2552	
0.75274	0.700524	-0.0122	10.92	-13.09	23.38	-0.4235	-0.2238	-0.2398	
0.752984	0.696986	-0.004514	10.71	-12.39	22.33	-0.4294	-0.2161	-0.2428	
0.739198	0.661606	-0.02562	6.79	-11.13	23.1	-0.4293	-0.2222	-0.2413	
0.73078	0.657824	-0.029402	6.93	-13.79	23.45	-0.4251	-0.2162	-0.2428	
0.729438	0.686006	-0.037332	4.62	-15.54	24.08	-0.4294	-0.2176	-0.2351	
0.734684	0.707844	-0.033428	2.52	-16.17	24.08	-0.4338	-0.2206	-0.2351	
0.75701	0.693082	-0.030378	-2.59	-16.1	26.53	-0.4398	-0.2038	-0.2365	
0.764086	0.67649	-0.039528	-6.3	-11.41	27.37	-0.4383	-0.2053	-0.2427	
0.784094	0.65453	-0.029524	-8.33	-10.43	27.93	-0.4369	-0.2038	-0.232	
0.811178	0.65453	-0.021106	-5.95	-10.71	24.64	-0.44	-0.1916	-0.2289	
0.817644	0.651236	-0.022204	-6.02	-8.12	21.49	-0.4444	-0.187	-0.2334	
0.81435	0.644648	0	-7.21	-5.81	20.72	-0.446	-0.1869	-0.2196	
0.80093	0.641842	-0.020252	-7.35	-6.37	18.97	-0.4416	-0.184	-0.2319	
0.80276	0.6283	-0.019154	-7.56	-6.72	15.47	-0.4576	-0.1792	-0.2333	
0.80154	0.61	-0.026108	-10.15	-6.51	14.91	-0.4473	-0.1884	-0.2319	
0.80825	0.596458	-0.012322	-10.92	-6.79	15.19	-0.4561	-0.1822	-0.2287	
0.806908	0.594994	-0.026474	-11.62	-6.23	16.45	-0.4578	-0.1716	-0.2241	
0.804712	0.603046	-0.04697	-13.93	-4.9	17.22	-0.4592	-0.1685	-0.2271	
0.814594	0.618906	-0.03477	-16.17	-3.64	17.57	-0.452	-0.1641	-0.2302	
0.825208	0.613416	-0.017324	-18.06	-2.73	16.66	-0.458	-0.1594	-0.2225	
0.822524	0.587796	-0.028792	-18.83	-3.92	15.19	-0.4622	-0.1624	-0.2271	
0.861442	0.56425	-0.019764	-17.71	-20.09	16.52	-0.4609	-0.1578	-0.2271	
0.858514	0.570472	-0.03416	-13.23	-13.93	5.32	-0.461	-0.1502	-0.224	
0.878522	0.581208	-0.018056	-20.65	-7	6.58	-0.4654	-0.1456	-0.2178	
0.872422	0.573644	0.022936	-15.96	-8.96	3.64	-0.4637	-0.1609	-0.2316	
0.87657	0.537898	-0.000854	-11.2	-7.84	-0.77	-0.4727	-0.1425	-0.2223	
0.879864	0.528016	0.011834	-10.08	-4.13	1.19	-0.4667	-0.1562	-0.2194	
0.867664	0.526308	0.009272	-3.71	-0.35	0.63	-0.461	-0.1442	-0.2316	
0.884134	0.53741	-0.002318	0.56	1.61	-1.26	-0.4667	-0.1578	-0.2286	
0.878644	0.571204	-0.021838	0.56	2.38	-1.47	-0.4697	-0.1441	-0.2316	
0.861442	0.593164	-0.01891	-1.4	4.83	-1.54	-0.4595	-0.1488	-0.2286	
0.849364	0.574742	-0.01647	-4.13	7.07	-2.31	-0.4668	-0.1502	-0.2301	
0.852414	0.55937	-0.019154	-2.66	7.28	-4.69	-0.4609	-0.1548	-0.2255	
0.856318	0.562908	-0.011346	-1.68	6.93	-7.28	-0.4653	-0.1472	-0.2331	
0.867786	0.577182	-0.015372	-2.8	7.42	-8.68	-0.4581	-0.1472	-0.2255	
0.84607	0.587186	-0.0122	-2.17	8.19	-9.94	-0.4594	-0.1518	-0.2332	
0.83021	0.585722	-0.026352	-3.99	7.49	-11.76	-0.4653	-0.1578	-0.2194	
0.833138	0.596214	-0.027572	-6.02	5.81	-13.65	-0.4636	-0.1609	-0.2378	
0.829112	0.61671	-0.029402	-8.89	3.08	-16.66	-0.4564	-0.1564	-0.2439	
0.810812	0.6161	0.0061	-9.73	0.56	-19.95	-0.4606	-0.1655	-0.2455	
0.802394	0.60573	0.03477	-9.03	0.56	-21.14	-0.4534	-0.1625	-0.2394	
0.80764	0.57645	0.033184	-10.64	1.47	-19.74	-0.4606	-0.1655	-0.25	
0.809592	0.602558	0.030012	-6.86	1.96	-19.53	-0.4549	-0.161	-0.2348	
0.798246	0.62525	0.038064	-3.01	3.78	-20.51	-0.4417	-0.1749	-0.2349	
0.799222	0.606584	0.031476	-5.11	7.56	-19.46	-0.4577	-0.1731	-0.2378	
0.813252	0.618906	0.023668	-3.57	8.89	-19.39	-0.4475	-0.1733	-0.2379	
0.800808	0.660874	0.01708	-2.66	8.75	-21.98	-0.4445	-0.1703	-0.2486	
0.78019	0.65392	0.006954	-6.44	9.94	-22.61	-0.4401	-0.1764	-0.2487	
0.781654	0.658434	0.018178	-7.84	10.36	-23.24	-0.44	-0.184	-0.2472	
0.772626	0.667706	0.030622	-7.84	10.99	-25.27	-0.4415	-0.178	-0.2502	
0.776286	0.66246	0.03111	-10.43	12.39	-25.27	-0.44	-0.1886	-0.2426	
0.767014	0.67222	0.03355	-9.45	12.18	-26.46	-0.44	-0.184	-0.2487	
0.756034	0.68381	0.04453	-9.1	12.67	-27.65	-0.4311	-0.1963	-0.2534	
0.747738	0.682102	0.02928	-11.69	13.65	-28.35	-0.4325	-0.1979	-0.2549	
0.745054	0.68259	0.054778	-10.99	13.37	-28.91	-0.4179	-0.1966	-0.2657	
0.716384	0.712236	0.065636	-10.85	12.95	-29.33	-0.428	-0.207	-0.2581	
0.726754	0.703208	0.068686	-9.31	12.95	-35.63	-0.4223	-0.1965	-0.2657	
0.720898	0.710894	0.092354	-16.52	18.83	-30.52	-0.4206	-0.2132	-0.2566	
0.71736	0.70272	0.081618	-12.25	17.5	-33.81	-0.4134	-0.2103	-0.2612	
0.685518	0.720166	0.094184	-9.87	15.89	-34.93	-0.4117	-0.2195	-0.275	
0.670878	0.726632	0.087718	-10.57	16.66	-35	-0.4102	-0.2286	-0.269	
0.670756	0.742614	0.09467199	-9.45	14.63	-36.75	-0.4073	-0.2211	-0.2843	
0.657702	0.763354	0.110288	-8.05	13.37	-39.13	-0.397	-0.2288	-0.2752	
0.656116	0.756766	0.136884	-9.59	16.73	-38.57	-0.3883	-0.2244	-0.2829	
0.648796	0.767746	0.1586	-9.24	21.91	-38.64	-0.3867	-0.2396	-0.2814	
0.629886	0.762256	0.149206	-11.13	23.24	-38.15	-0.3939	-0.238	-0.2844	
0.604022	0.779336	0.13359	-15.82	18.97	-38.01	-0.3793	-0.2413	-0.2968	
0.589626	0.773358	0.14945	-16.66	16.45	-39.55	-0.3647	-0.2476	-0.2938	
0.56974	0.781776	0.184342	-12.25	13.3	-41.02	-0.3616	-0.2553	-0.3	
0.558394	0.809592	0.167384	-10.57	11.27	-42.56	-0.3529	-0.2524	-0.3062	
0.557784	0.802394	0.193492	-8.54	8.75	-44.03	-0.3572	-0.2584	-0.3092	
0.589748	0.8296	0.185684	-9.66	3.92	-45.57	-0.3644	-0.2568	-0.3122	
0.569618	0.840214	0.194834	-12.67	13.51	-43.4	-0.3585	-0.269	-0.3108	
0.53619	0.858514	0.191662	-13.16	22.33	-44.94	-0.3453	-0.2722	-0.3093	
0.497516	0.86559	0.198128	-17.08	28	-43.4	-0.325	-0.271	-0.3156	
0.461038	0.840824	0.18971	-19.32	27.02	-42.56	-0.3322	-0.274	-0.3171	
0.417118	0.817644	0.139324	-19.53	28.07	-40.95	-0.3248	-0.2802	-0.3202	
0.400892	0.780678	0.178608	-24.43	24.5	-38.15	-0.3205	-0.2742	-0.3264	
0.414312	0.849242	0.266692	-9.45	18.55	-41.93	-0.3072	-0.2835	-0.3387	
0.43005	0.879864	0.243024	-8.61	20.16	-42.56	-0.2985	-0.2882	-0.3327	
0.404186	0.879742	0.25376	-16.1	22.82	-35.28	-0.2926	-0.2853	-0.3388	
0.407602	0.885598	0.292068	-12.18	23.24	-36.89	-0.2912	-0.2807	-0.3434	
0.389302	0.897188	0.301462	-18.97	23.17	-37.45	-0.2838	-0.2854	-0.3542	
0.38979	0.894626	0.299022	-21.98	23.31	-37.94	-0.278	-0.2885	-0.3481	
0.33733	0.885476	0.24766	-25.27	26.39	-38.85	-0.2735	-0.2992	-0.3513	
0.25437	0.915976	0.246562	-31.99	21.28	-37.52	-0.2765	-0.2856	-0.3604	
0.271084	0.990274	0.338672	-28.42	18.48	-45.5	-0.2619	-0.2903	-0.3636	
0.299632	0.950502	0.365146	-34.3	26.95	-44.1	-0.2546	-0.292	-0.3697	
0.281088	0.833382	0.316834	-46.2	28.84	-36.61	-0.2504	-0.2784	-0.3713	
0.299388	0.794098	0.3599	-32.41	22.96	-39.13	-0.2443	-0.2937	-0.3851	
0.274744	0.817522	0.368806	-25.41	24.01	-39.69	-0.2343	-0.2787	-0.3882	
0.203374	0.850584	0.35075	-17.22	24.22	-36.82	-0.2255	-0.2818	-0.3898	
0.179584	0.879254	0.392108	-17.36	28	-33.39	-0.2212	-0.2789	-0.3929	
0.185928	0.868396	0.386374	-20.09	31.36	-30.1	-0.218	-0.2896	-0.4082	
0.199714	0.884256	0.38979	-14.49	27.23	-32.41	-0.2138	-0.2851	-0.4006	
0.189466	0.904508	0.396134	-15.68	27.23	-31.57	-0.2109	-0.2836	-0.4037	
0.173118	0.887794	0.393694	-19.18	32.9	-27.44	-0.1904	-0.2855	-0.413	
0.163114	0.883158	0.425414	-15.47	29.82	-27.65	-0.1991	-0.2884	-0.4114	
0.158112	0.88816	0.410042	-14.77	32.27	-28.42	-0.1716	-0.2827	-0.4101	
0.166652	0.876082	0.417118	-17.78	31.36	-28.35	-0.1775	-0.2765	-0.4131	
0.184586	0.844118	0.432734	-15.61	32.55	-31.29	-0.1671	-0.2873	-0.4239	
0.169092	0.889502	0.452376	-10.22	34.16	-37.38	-0.1614	-0.2813	-0.4224	
0.086498	0.926834	0.446642	-9.52	36.05	-40.04	-0.1498	-0.28	-0.4225	
-0.000488	0.89426	0.437248	-15.61	37.8	-40.04	-0.1424	-0.2832	-0.4287	
-0.021106	0.870714	0.445544	-17.78	34.58	-39.41	-0.1337	-0.2802	-0.4257	
-0.013298	0.861808	0.447862	-18.55	34.09	-38.29	-0.125	-0.2758	-0.4334	
-0.013542	0.842044	0.456646	-17.99	30.94	-36.33	-0.1208	-0.2698	-0.4334	
-0.02379	0.842288	0.459452	-17.43	29.26	-34.86	-0.1177	-0.276	-0.4441	
-0.061488	0.855952	0.460062	-15.68	29.12	-32.83	-0.1061	-0.2746	-0.4411	
-0.096624	0.855342	0.460916	-16.87	26.53	-30.87	-0.0917	-0.2627	-0.4458	
-0.106994	0.864248	0.480802	-16.38	28.84	-28	-0.0901	-0.2734	-0.4489	
-0.061366	0.853146	0.473848	-13.93	30.1	-25.76	-0.0828	-0.2765	-0.4398	
-0.054046	0.833504	0.47763	-15.05	30.52	-24.29	-0.0799	-0.2766	-0.4521	
-0.114802	0.835334	0.491172	-12.67	28.07	-24.22	-0.0712	-0.2676	-0.4551	
-0.14457	0.84363	0.493246	-11.41	26.6	-23.1	-0.0698	-0.2676	-0.4475	
-0.142496	0.846314	0.494832	-13.09	25.48	-21.42	-0.0626	-0.2601	-0.4582	
-0.11895	0.81435	0.5002	-12.81	28.21	-19.11	-0.0583	-0.2617	-0.4522	
-0.096502	0.763476	0.50569	-14.14	34.02	-16.59	-0.0466	-0.2588	-0.463	
-0.077958	0.723338	0.529968	-8.19	35	-14.63	-0.0392	-0.265	-0.4676	
-0.116998	0.745054	0.510326	-0.49	31.15	-14.77	-0.0292	-0.2545	-0.4615	
-0.202154	0.791902	0.48312	10.22	25.48	-14.98	-0.0336	-0.2514	-0.4646	
-0.27694	0.868152	0.449814	7.28	29.12	-7.14	-0.019	-0.2608	-0.4647	
-0.205814	0.939278	0.531432	11.48	34.93	-5.04	-0.0175	-0.2638	-0.4571	
-0.163114	0.937692	0.51423	3.71	38.92	-7.35	-0.0117	-0.2624	-0.4617	
-0.24827	0.894016	0.466772	-7.42	37.03	-7.84	-0.0132	-0.2608	-0.454	
-0.296216	0.859612	0.481534	-4.62	31.43	-11.06	-0.0074	-0.2579	-0.4602	
-0.305244	0.847778	0.479094	-5.18	25.62	-11.27	0.0098	-0.2521	-0.4557	
-0.279502	0.842288	0.486048	-6.02	23.24	-10.43	0.0216	-0.2629	-0.465	
-0.259494	0.83875	0.463966	-6.44	19.46	-10.5	0.0142	-0.2567	-0.4573	
-0.245586	0.823744	0.469334	-7	14.84	-10.92	0.0172	-0.2552	-0.4634	
-0.264618	0.829112	0.515206	-12.74	26.95	-10.15	0.0186	-0.2537	-0.4588	
-0.321958	0.830576	0.509106	-15.12	21.28	-11.83	0.0214	-0.2477	-0.4542	
-0.34526	0.836554	0.510082	-13.79	18.06	-13.44	0.0259	-0.2523	-0.4726	
-0.318664	0.819718	0.515938	-15.61	16.24	-11.41	0.0345	-0.2479	-0.465	
-0.294996	0.791902	0.512156	-16.45	16.38	-11.27	0.0273	-0.2538	-0.4604	
-0.279746	0.770308	0.512522	-16.94	14.28	-13.37	0.0316	-0.2448	-0.465	
-0.31659	0.77897	0.52521	-15.96	12.88	-14.63	0.0387	-0.2388	-0.462	
-0.355752	0.785924	0.510448	-15.75	11.48	-13.72	0.0533	-0.2391	-0.4682	
-0.362706	0.805322	0.515816	-16.66	13.72	-11.2	0.0444	-0.2313	-0.4574	
-0.339648	0.802882	0.52643	-19.46	15.68	-9.66	0.0547	-0.233	-0.4728	
-0.32269	0.782996	0.52033	-20.23	15.33	-10.15	0.0415	-0.2207	-0.4803	
-0.335134	0.792878	0.52216	-19.32	11.55	-12.53	0.0518	-0.2314	-0.4728	
-0.359046	0.794098	0.522404	-19.81	8.89	-13.72	0.0531	-0.2178	-0.4758	
-0.360876	0.788364	0.52277	-18.69	5.39	-12.74	0.0589	-0.2239	-0.4652	
-0.343308	0.774334	0.542046	-19.25	2.66	-12.39	0.0617	-0.2164	-0.4728	
-0.358192	0.744688	0.542534	-20.37	0.35	-12.39	0.0705	-0.218	-0.4713	
-0.394304	0.73322	0.554124	-21.14	1.61	-10.57	0.0689	-0.2074	-0.482	
-0.378444	0.724924	0.57523	-18.97	3.43	-9.24	0.0646	-0.2104	-0.4835	
-0.35014	0.709064	0.573522	-20.44	7.42	-6.58	0.07759999	-0.2045	-0.4759	
-0.343918	0.70455	0.57767	-18.83	7.7	-5.39	0.0659	-0.1952	-0.4835	
-0.378322	0.713212	0.592554	-16.87	7.7	-4.13	0.06879999	-0.1937	-0.4866	
-0.393206	0.721264	0.574498	-13.16	2.38	-4.41	0.06439999	-0.1937	-0.4819	
-0.360144	0.720898	0.604022	-13.44	8.26	-1.12	0.0804	-0.1969	-0.4805	
-0.344162	0.713334	0.590602	-13.37	8.05	-1.89	0.0761	-0.1999	-0.4866	
-0.389668	0.703574	0.591944	-11.41	3.5	-2.73	0.07319999	-0.1938	-0.4942	
-0.398574	0.701988	0.598776	-9.38	3.29	-2.52	0.0775	-0.1939	-0.4882	
-0.39345	0.695766	0.595116	-10.78	4.27	-0.7	0.07889999	-0.1848	-0.4973	
-0.401624	0.69662	0.594262	-8.4	1.54	-0.84	0.0744	-0.1832	-0.482	
-0.396622	0.703452	0.60146	-6.23	1.12	-1.82	0.0847	-0.1849	-0.4943	
-0.3965	0.695156	0.597678	-6.93	0.63	-1.68	0.0816	-0.1802	-0.482	
-0.40748	0.688324	0.603046	-5.46	-0.28	-0.21	0.0844	-0.1757	-0.4759	
-0.407236	0.68808	0.618418	-3.43	-1.33	1.75	0.0788	-0.1848	-0.4897	
-0.380518	0.690642	0.598898	-0.91	-4.9	0.63	0.0788	-0.1817	-0.4851	
-0.401746	0.70333	0.609512	-1.68	-3.71	2.03	0.0716	-0.1847	-0.4881	
-0.387472	0.692716	0.616588	-1.19	-3.64	2.94	0.0744	-0.1817	-0.4881	
-0.370026	0.686982	0.612928	0.35	-4.13	3.15	0.0657	-0.1816	-0.4911	
-0.3782	0.686006	0.608048	0.98	-7	3.08	0.0787	-0.1802	-0.4835	
-0.380518	0.680882	0.60451	1.4	-7.28	5.46	0.073	-0.1801	-0.4896	
-0.38125	0.684664	0.607072	2.45	-8.61	6.44	0.073	-0.1817	-0.4866	
-0.366976	0.676124	0.61183	4.2	-9.87	7.35	0.073	-0.1862	-0.4881	
-0.34953	0.666486	0.605486	5.88	-10.71	8.75	0.06879999	-0.1877	-0.4957	
-0.345016	0.687958	0.611098	10.15	-12.46	8.82	0.0629	-0.1861	-0.4865	
-0.36295	0.710284	0.610244	10.57	-12.6	9.52	0.0599	-0.18	-0.4941	
-0.348676	0.721386	0.609634	12.39	-11.62	11.06	0.0601	-0.1921	-0.4911	
-0.351116	0.724802	0.60939	12.46	-12.11	12.39	0.0514	-0.1935	-0.4956	
-0.352702	0.728828	0.606218	13.37	-13.58	12.74	0.0528	-0.192	-0.4849	
-0.344528	0.725046	0.60146	13.72	-12.74	13.65	0.06	-0.1921	-0.4834	
-0.329278	0.73017	0.599996	15.12	-12.53	14.28	0.0586	-0.1966	-0.485	
-0.337818	0.740662	0.58499	13.93	-13.16	15.47	0.0531	-0.2133	-0.4896	
-0.35197	0.752374	0.580842	14.14	-14.84	16.94	0.0515	-0.2072	-0.4819	
-0.331718	0.760792	0.585844	13.79	-15.33	18.27	0.0427	-0.2025	-0.4818	
-0.313662	0.74786	0.584746	10.71	-13.02	19.46	0.0456	-0.2055	-0.4788	
-0.326472	0.732732	0.582794	11.13	-14.14	19.88	0.0414	-0.2101	-0.4864	
-0.32574	0.736026	0.588528	14.63	-17.85	20.23	0.0327	-0.2145	-0.4864	
-0.295484	0.734318	0.574376	14.14	-20.16	22.61	0.0196	-0.2112	-0.4786	
-0.259006	0.73932	0.571448	16.66	-21	22.96	0.0254	-0.2083	-0.4863	
-0.21594	0.74054	0.596336	18.9	-20.37	22.75	0.0254	-0.2143	-0.4725	
-0.219356	0.752374	0.583526	18.55	-21.49	21.98	0.0139	-0.2248	-0.4755	
-0.215452	0.768722	0.583892	21.7	-21.77	20.93	0.0053	-0.2278	-0.4831	
-0.208986	0.78019	0.579012	21.63	-20.65	21.21	0.0112	-0.2354	-0.4755	
-0.202764	0.793244	0.56486	24.08	-20.79	19.88	-0.0017	-0.2413	-0.4755	
-0.179706	0.799954	0.560468	22.89	-19.95	19.39	-0.0004	-0.2322	-0.477	
-0.160918	0.798246	0.554002	22.82	-17.78	19.67	-0.0119	-0.2411	-0.4693	
-0.166652	0.811056	0.541192	23.38	-16.45	20.02	-0.0176	-0.2502	-0.4738	
-0.171654	0.82472	0.527284	23.31	-15.19	20.65	-0.0322	-0.2469	-0.4646	
-0.164212	0.834968	0.522892	21.63	-13.72	21.07	-0.0205	-0.2562	-0.4647	
-0.157868	0.83997	0.524844	21.28	-13.93	21.21	-0.0365	-0.2559	-0.4584	
-0.148352	0.828136	0.503738	20.02	-15.54	22.47	-0.0321	-0.256	-0.4707	
-0.14213	0.839848	0.493856	22.75	-16.45	22.19	-0.0379	-0.262	-0.4523	
-0.130418	0.842776	0.491904	21.49	-16.87	22.89	-0.0437	-0.2649	-0.4508	
-0.108092	0.860222	0.492636	22.61	-17.29	21.84	-0.0451	-0.2649	-0.4523	
-0.088694	0.854	0.487878	20.93	-17.78	22.12	-0.0523	-0.2663	-0.4583	
-0.086742	0.855952	0.470798	22.33	-19.81	22.05	-0.0551	-0.2769	-0.4538	
-0.057462	0.858026	0.457378	23.66	-19.74	22.47	-0.0552	-0.2754	-0.4446	
-0.061366	0.871568	0.4514	21.91	-18.06	24.5	-0.061	-0.2753	-0.4461	
-0.059048	0.86803	0.428708	20.44	-19.53	25.76	-0.0713	-0.2706	-0.4444	
-0.05734	0.88938	0.441884	23.31	-21.7	26.6	-0.0827	-0.2856	-0.4398	
-0.021106	0.907802	0.44835	26.81	-20.72	25.2	-0.0724	-0.2918	-0.4445	
0.00366	0.909632	0.420046	21.98	-20.23	26.39	-0.0739	-0.2918	-0.4384	
-0.000488	0.896822	0.425658	22.26	-18.97	27.65	-0.0913	-0.2961	-0.4337	
-0.00671	0.899994	0.41053	23.94	-19.32	27.79	-0.1001	-0.296	-0.4321	
0.025254	0.903288	0.40809	24.5	-19.6	28.49	-0.1001	-0.2944	-0.4259	
0.04331	0.908778	0.396256	24.57	-21.07	27.65	-0.1159	-0.3079	-0.4243	
0.05429	0.91561	0.391742	23.17	-20.02	27.44	-0.113	-0.3079	-0.432	
0.057218	0.914756	0.386862	21.21	-20.86	28.28	-0.1058	-0.305	-0.4198	
0.069418	0.912682	0.380396	22.4	-22.05	27.79	-0.1233	-0.3092	-0.4121	
0.098942	0.916708	0.362584	21.49	-22.82	27.86	-0.129	-0.3107	-0.4135	
0.112728	0.930128	0.3538	19.67	-22.54	28.07	-0.1334	-0.3106	-0.415	
0.118828	0.92354	0.344894	18.2	-23.31	28.91	-0.1292	-0.3106	-0.3967	
0.143594	0.917074	0.33123	15.82	-22.47	28.21	-0.1451	-0.3089	-0.4088	
0.163114	0.910608	0.3355	14.91	-22.4	28.98	-0.1494	-0.3104	-0.4073	
0.189344	0.91012	0.332328	16.59	-23.8	27.79	-0.1596	-0.3147	-0.3996	
0.176046	0.911096	0.317444	16.52	-22.4	28.28	-0.1611	-0.3177	-0.3858	
0.176534	0.90097	0.307196	17.01	-20.58	29.4	-0.1786	-0.3053	-0.3948	
0.198006	0.913658	0.324276	18.62	-17.92	28.98	-0.1698	-0.3206	-0.3827	
0.215208	0.92476	0.313662	19.6	-17.15	28.49	-0.1785	-0.3235	-0.3826	
0.207156	0.916708	0.297802	17.71	-18.69	29.89	-0.1801	-0.3144	-0.3811	
0.215452	0.907924	0.29158	17.29	-19.25	29.89	-0.1888	-0.3127	-0.3779	
0.217038	0.911706	0.280844	19.39	-19.32	29.75	-0.1845	-0.3158	-0.3688	
0.216306	0.918782	0.277428	19.39	-20.93	30.24	-0.202	-0.3155	-0.3595	
0.230946	0.92781	0.263764	19.25	-21.49	29.54	-0.2093	-0.3094	-0.3671	
0.256688	0.919636	0.256322	18.27	-23.73	29.96	-0.2149	-0.3214	-0.3655	
0.292434	0.903532	0.250954	19.18	-21.77	29.96	-0.2134	-0.323	-0.3701	
0.316956	0.903776	0.238632	19.81	-23.03	30.38	-0.2236	-0.3228	-0.367	
0.333182	0.919514	0.225578	20.02	-23.38	30.66	-0.2326	-0.315	-0.3516	
0.32757	0.92842	0.20313	18.34	-20.09	32.76	-0.2413	-0.3164	-0.3531	
0.305976	0.91622	0.212402	17.85	-21	34.3	-0.2485	-0.3209	-0.35	
0.304634	0.940376	0.205448	19.67	-18.41	32.69	-0.2471	-0.3179	-0.3484	
0.318786	0.938058	0.201056	16.73	-18.41	34.37	-0.2588	-0.3192	-0.3331	
0.344772	0.910608	0.181536	14.07	-18.41	35.63	-0.2588	-0.3146	-0.3376	
0.375272	0.889624	0.167628	13.51	-20.58	38.01	-0.269	-0.3175	-0.336	
0.411018	0.88328	0.172996	13.44	-17.29	38.29	-0.2648	-0.3069	-0.3315	
0.422852	0.869128	0.154574	13.02	-16.8	38.71	-0.272	-0.3068	-0.3375	
0.394914	0.874496	0.159332	14.28	-18.2	39.34	-0.2807	-0.3143	-0.3298	
0.445056	0.911706	0.154696	15.4	-20.23	37.38	-0.2909	-0.3095	-0.3251	
0.494832	0.904752	0.139812	13.79	-19.46	37.1	-0.2968	-0.3079	-0.3175	
0.515572	0.88328	0.139812	11.55	-19.32	38.36	-0.3028	-0.2987	-0.3143	
0.494222	0.865346	0.134566	11.55	-15.68	37.94	-0.3146	-0.2879	-0.3111	
0.47092	0.867908	0.127978	13.37	-18.97	35	-0.3188	-0.2939	-0.3172	
0.48861	0.88694	0.12505	15.68	-16.59	31.57	-0.3189	-0.2924	-0.3157	
0.537288	0.889258	0.128344	12.95	-16.94	30.59	-0.3234	-0.2923	-0.2927	
0.550586	0.870104	0.115534	11.13	-14.49	29.75	-0.3233	-0.2953	-0.2989	
0.520574	0.838384	0.09857599	6.79	-10.5	31.57	-0.3262	-0.2907	-0.3019	
0.51667	0.82167	0.085156	6.23	-10.57	33.11	-0.338	-0.2829	-0.2987	
0.538264	0.835944	0.084424	6.51	-10.43	33.67	-0.3395	-0.2814	-0.2926	
0.561566	0.865224	0.091256	6.23	-10.29	34.37	-0.3481	-0.2889	-0.2956	
0.558516	0.842776	0.07515199	3.57	-10.99	35.49	-0.3454	-0.2767	-0.2895	
0.554734	0.816424	0.076128	1.68	-10.36	37.94	-0.3585	-0.2765	-0.2909	
0.59353	0.794586	0.082106	0.56	-10.22	37.24	-0.3602	-0.2628	-0.2878	
0.597312	0.784338	0.092842	0.35	-10.99	36.89	-0.3644	-0.2673	-0.2908	
0.584136	0.756278	0.060878	0.14	-11.27	35.84	-0.3747	-0.2611	-0.2831	
0.59475	0.744078	0.069052	1.26	-15.89	35.14	-0.3705	-0.2566	-0.28	
0.6588	0.766892	0.072224	6.3	-17.22	32.13	-0.382	-0.2625	-0.2784	
0.68564	0.757986	0.063318	3.85	-18.9	33.67	-0.385	-0.2548	-0.2769	
0.64965	0.739686	0.053802	0.91	-16.31	37.03	-0.3837	-0.2488	-0.2799	
0.633058	0.740662	0.048068	-0.77	-19.46	37.8	-0.4013	-0.2364	-0.2813	
0.665754	0.76494	0.065758	0.63	-21.56	35.49	-0.4042	-0.2363	-0.2782	
0.69418	0.764208	0.045018	-2.66	-23.03	34.44	-0.397	-0.2319	-0.2737	
0.715164	0.73139	0.039894	-4.34	-20.09	33.81	-0.4086	-0.2363	-0.2751	
0.741272	0.732976	0.04392	-5.11	-16.45	32.9	-0.4058	-0.2272	-0.2736	
0.730658	0.753106	0.040748	-1.4	-18.9	27.79	-0.4189	-0.227	-0.2643	
0.716872	0.754448	0.039894	-5.39	-17.71	27.79	-0.4189	-0.2269	-0.2628	
0.725046	0.720044	0.030988	-10.57	-14.35	28.42	-0.4161	-0.2194	-0.2628	
0.735904	0.690642	0.02562	-10.85	-10.57	28.28	-0.4265	-0.2131	-0.2566	
0.725168	0.679906	0.008174	-11.2	-9.31	28.21	-0.4251	-0.2055	-0.2504	
0.728828	0.670146	0.020496	-10.22	-7.35	28.14	-0.4353	-0.2039	-0.2519	
0.746274	0.664168	0.020862	-7.7	-14.42	27.72	-0.4396	-0.2039	-0.2687	
0.758596	0.647576	0.01952	-5.53	-14.14	24.71	-0.4266	-0.2025	-0.2596	
0.77043	0.64782	0.027206	-8.89	-12.74	26.6	-0.4383	-0.1963	-0.2625	
0.77409	0.658556	0.03599	-9.59	-10.15	26.39	-0.4383	-0.1947	-0.2564	
0.776652	0.64355	0.016714	-9.87	-16.31	23.17	-0.4385	-0.1841	-0.2487	
0.78324	0.632692	0.0305	-8.68	-13.51	22.4	-0.4429	-0.1825	-0.2533	
0.750422	0.620126	-0.015738	-9.03	-17.71	22.26	-0.4516	-0.1854	-0.2532	
0.783118	0.629886	0.035258	-6.16	-16.38	20.16	-0.4475	-0.1672	-0.2517	
0.812764	0.62464	0.02379	-9.66	-18.55	19.74	-0.462	-0.1761	-0.2409	
0.831674	0.592188	0.028426	-8.82	-17.5	17.36	-0.4562	-0.1671	-0.2455	
0.811788	0.58926	0.001708	-12.18	-14.91	18.76	-0.4607	-0.1594	-0.2393	
0.835456	0.587918	0.007198	-9.31	-15.26	17.92	-0.4594	-0.1533	-0.2393	
0.832894	0.581452	-0.00183	-9.03	-14.84	16.52	-0.452	-0.155	-0.2485	
0.847534	0.586332	0.003294	-8.89	-13.86	17.15	-0.4565	-0.1488	-0.2439	
0.860588	0.603534	0.002806	-11.2	-9.45	17.64	-0.4682	-0.1487	-0.2408	
0.865468	0.582916	0.01403	-13.51	-8.68	18.06	-0.4609	-0.1503	-0.2362	
0.84912	0.537898	-0.010492	-13.79	-7.07	17.36	-0.4639	-0.1472	-0.2331	
0.861686	0.528992	-0.011712	-11.76	-5.53	17.15	-0.4639	-0.1457	-0.2316	
0.868396	0.558638	0.011834	-6.51	-2.52	15.33	-0.4684	-0.135	-0.2315	
0.86132	0.569374	0.008905999	-6.02	-2.52	13.44	-0.4714	-0.1319	-0.2315	
0.862906	0.528016	0.021472	-8.68	-1.4	12.88	-0.4655	-0.1304	-0.2346	
0.858026	0.51362	0.002562	-7.63	-1.89	11.9	-0.47	-0.1243	-0.2346	
0.84851	0.526308	-0.008784	-3.92	-1.26	9.87	-0.4598	-0.129	-0.2285	
0.862296	0.536068	0.010736	0	0.63	6.37	-0.4699	-0.1243	-0.2407	
0.871202	0.549488	0.01159	2.31	1.89	3.22	-0.4657	-0.1168	-0.2361	
0.881572	0.537166	0.003782	2.1	-1.19	0.7	-0.4729	-0.1273	-0.2315	
0.872788	0.544242	-0.001708	1.26	0.63	-0.07	-0.4658	-0.1183	-0.2284	
0.869128	0.55876	0.005612	1.54	0.14	-1.54	-0.4686	-0.1228	-0.2346	
0.859734	0.542534	0.006222	-1.54	0.84	-3.22	-0.4701	-0.1182	-0.2315	
0.863638	0.527406	0.001342	-4.13	1.89	-2.1	-0.4728	-0.1273	-0.2376	
0.857782	0.53436	0.004636	-3.15	1.12	-2.03	-0.4713	-0.1334	-0.2392	
0.8784	0.54534	0.016226	-2.17	-1.75	-4.41	-0.4671	-0.1243	-0.2315	
0.893528	0.559004	0.0244	-2.73	3.15	-4.55	-0.4699	-0.1289	-0.2361	
0.895114	0.538752	0.026474	-5.11	4.41	-4.62	-0.4729	-0.1228	-0.2422	
0.88511	0.55083	0.020984	-3.5	5.32	-7.21	-0.4685	-0.1304	-0.2315	
0.87901	0.575718	0.02013	-4.13	6.58	-9.31	-0.4598	-0.1305	-0.2316	
0.882182	0.567544	0.023668	-5.95	7.77	-11.41	-0.464	-0.1335	-0.2392	
0.877058	0.559614	0.013176	-7.35	8.96	-12.67	-0.4655	-0.1335	-0.2407	
0.859734	0.553636	0.026962	-7.07	9.45	-14.07	-0.4625	-0.1381	-0.2408	
0.850218	0.560834	0.017202	-6.79	7.91	-16.38	-0.4639	-0.1336	-0.2499	
0.845338	0.578524	0.029524	-5.81	10.92	-17.01	-0.4682	-0.1426	-0.2453	
0.842898	0.576572	0.029402	-7.28	11.9	-18.34	-0.4639	-0.1381	-0.2515	
0.838872	0.56608	0.031598	-7.21	11.83	-19.95	-0.4609	-0.1397	-0.25	
0.844484	0.559126	0.035502	-7.98	11.27	-20.16	-0.4593	-0.1488	-0.2546	
0.840824	0.5612	0.041114	-4.97	12.6	-22.26	-0.461	-0.1382	-0.2484	
0.831064	0.584746	0.049776	-4.41	11.2	-23.59	-0.4552	-0.1367	-0.25	
0.817644	0.60085	0.060634	-4.83	11.97	-24.36	-0.4521	-0.1474	-0.2562	
0.813008	0.611708	0.061122	-5.25	11.55	-24.92	-0.459	-0.1686	-0.2638	
0.79788	0.620858	0.060634	-5.53	10.85	-26.25	-0.4474	-0.1657	-0.2624	
0.794098	0.625006	0.060146	-6.93	11.27	-27.44	-0.4402	-0.1643	-0.2655	
0.787754	0.61976	0.072102	-7.84	11.06	-28.14	-0.4415	-0.1689	-0.2701	
0.779824	0.638182	0.073322	-5.6	9.45	-30.38	-0.4458	-0.1779	-0.2594	
0.76372	0.658556	0.070394	-6.3	8.54	-30.87	-0.4313	-0.1751	-0.2595	
0.761402	0.66734	0.078934	-6.86	9.38	-32.83	-0.4386	-0.175	-0.264	
0.751032	0.6649	0.089792	-7.49	10.99	-34.02	-0.4283	-0.1767	-0.2717	
0.74725	0.663436	0.085034	-7.63	11.34	-34.86	-0.434	-0.1827	-0.2748	
0.741394	0.671366	0.101382	-4.83	11.06	-36.68	-0.4195	-0.1844	-0.2749	
0.729194	0.68625	0.09882	-3.36	11.76	-38.29	-0.4282	-0.1873	-0.2733	
0.714676	0.69967	0.088206	-5.04	14.14	-38.08	-0.4294	-0.2025	-0.2779	
0.713456	0.717238	0.096868	-4.41	15.4	-38.29	-0.4206	-0.2087	-0.2749	
0.69357	0.72529	0.108092	-5.88	16.38	-37.59	-0.4205	-0.2057	-0.2856	
0.684664	0.72529	0.120414	-7.84	16.59	-37.38	-0.4161	-0.2119	-0.2857	
0.673562	0.724558	0.121146	-5.46	14.35	-39.55	-0.4015	-0.2166	-0.2873	
0.660264	0.734318	0.122854	-4.97	13.44	-39.48	-0.3957	-0.2197	-0.2828	
0.650992	0.745908	0.137738	-6.44	14	-38.43	-0.3855	-0.2184	-0.2829	
0.646966	0.747372	0.145302	-6.58	15.4	-38.43	-0.3955	-0.2228	-0.2981	
0.640622	0.759572	0.167872	-5.95	18.06	-38.5	-0.3882	-0.226	-0.2967	
0.605974	0.775676	0.159942	-7	19.18	-37.8	-0.3837	-0.2382	-0.2906	
0.588284	0.776652	0.17324	-7.14	20.65	-38.01	-0.3764	-0.2353	-0.3014	
0.592188	0.784338	0.180316	-6.44	19.81	-38.99	-0.3647	-0.24	-0.3122	
0.587552	0.797392	0.188002	-5.11	19.46	-39.69	-0.3719	-0.2399	-0.3136	
0.553514	0.816302	0.19154	-6.44	20.93	-38.22	-0.3558	-0.2523	-0.3123	
0.53192	0.823256	0.190686	-8.89	21.84	-37.31	-0.3514	-0.2509	-0.3199	
0.51118	0.819108	0.202398	-10.71	22.05	-36.89	-0.3441	-0.2571	-0.3093	
0.487024	0.82716	0.200568	-8.96	20.79	-37.73	-0.3483	-0.2586	-0.3276	
0.483608	0.845216	0.212036	-9.52	18.97	-38.01	-0.3366	-0.2648	-0.3308	
0.478606	0.851072	0.217404	-8.47	18.62	-39.34	-0.3278	-0.268	-0.337	
0.468724	0.849364	0.21472	-10.22	17.57	-38.57	-0.3219	-0.2742	-0.3309	
0.453962	0.857904	0.221552	-11.06	15.75	-38.29	-0.319	-0.2651	-0.3447	
0.424438	0.88267	0.241438	-9.94	13.72	-39.97	-0.3146	-0.2713	-0.3402	
0.38735	0.874374	0.246806	-12.95	14	-38.92	-0.3088	-0.2698	-0.3463	
0.380518	0.843264	0.241194	-15.61	12.74	-38.29	-0.3043	-0.276	-0.3479	
0.42944	0.844728	0.25315	-12.6	11.27	-39.27	-0.3014	-0.2866	-0.3372	
0.399062	0.865956	0.282552	-12.39	17.36	-35.63	-0.2998	-0.2852	-0.3541	
0.390766	0.871202	0.271816	-13.09	20.23	-37.52	-0.2882	-0.2869	-0.3465	
0.368928	0.90097	0.273402	-12.25	18.55	-35.98	-0.2765	-0.2916	-0.3543	
0.341112	0.899262	0.27206	-15.68	19.11	-35.56	-0.2781	-0.2855	-0.3435	
0.3294	0.872056	0.27267	-20.16	21.98	-33.88	-0.2807	-0.2977	-0.3619	
0.318786	0.856684	0.274256	-20.16	21.77	-31.92	-0.2663	-0.2872	-0.3605	
0.320616	0.863028	0.293776	-17.22	21.56	-32.06	-0.2604	-0.2904	-0.3697	
0.354898	0.892308	0.324886	-11.76	20.58	-35.42	-0.2503	-0.2905	-0.3636	
0.324276	0.882182	0.316346	-16.45	20.09	-34.37	-0.2488	-0.2845	-0.3805	
0.269498	0.859612	0.326228	-15.4	21.56	-33.32	-0.2398	-0.2983	-0.3836	
0.22631	0.865224	0.337452	-12.74	21.14	-33.32	-0.2384	-0.2968	-0.3821	
0.210206	0.88938	0.325496	-7.84	22.96	-35.42	-0.2283	-0.2969	-0.3761	
0.20435	0.90829	0.346358	-8.19	20.72	-33.67	-0.2165	-0.3047	-0.3838	
0.200934	0.919026	0.346846	-4.55	21.91	-34.16	-0.2253	-0.297	-0.3944	
0.189466	0.91805	0.340746	-7.77	21.7	-31.71	-0.2049	-0.2973	-0.3946	
0.189466	0.914146	0.358558	-10.78	21.14	-29.54	-0.2079	-0.2957	-0.3839	
0.192516	0.8906	0.360998	-10.57	21.35	-29.54	-0.202	-0.3034	-0.3885	
0.159332	0.88511	0.373198	-10.43	20.86	-27.65	-0.2006	-0.2913	-0.3931	
0.141032	0.87291	0.38613	-7.98	21.77	-27.72	-0.1919	-0.2945	-0.3962	
0.120414	0.872666	0.416142	-7.56	24.36	-27.79	-0.1859	-0.3037	-0.3993	
0.120658	0.884988	0.41846	-3.15	24.15	-29.4	-0.17	-0.2979	-0.3994	
0.099308	0.894992	0.407968	-5.53	24.15	-28.28	-0.1728	-0.3024	-0.4055	
0.085766	0.896334	0.410408	-5.32	24.01	-27.79	-0.173	-0.2933	-0.3979	
0.086254	0.88389	0.40199	-4.97	22.4	-28.07	-0.1553	-0.3027	-0.4133	
0.08845	0.88389	0.394792	-3.29	19.25	-28.35	-0.1595	-0.3102	-0.4148	
0.081496	0.909632	0.38613	-1.96	18.48	-28.77	-0.1495	-0.3088	-0.4042	
0.072956	0.932934	0.370392	-4.97	17.78	-28.14	-0.1436	-0.3105	-0.415	
0.050386	0.958188	0.370514	-7.35	19.32	-26.95	-0.1451	-0.3059	-0.4058	
0.034648	0.967094	0.361364	-9.38	19.25	-27.58	-0.1292	-0.3045	-0.3998	
0.031842	0.975878	0.354166	-14.07	20.72	-28.98	-0.1335	-0.3091	-0.4028	
0.029036	0.970754	0.351604	-17.22	20.37	-29.61	-0.1276	-0.3092	-0.4212	
0.027328	0.945378	0.351726	-21.63	21.77	-28.77	-0.1132	-0.3048	-0.4121	
0.018178	0.910608	0.378444	-23.94	23.17	-28.56	-0.1028	-0.3066	-0.4336	
0.0061	0.88511	0.402478	-23.1	24.92	-28.7	-0.1074	-0.2988	-0.4198	
-0.01586	0.877302	0.431636	-21.77	25.9	-28.98	-0.09869999	-0.2959	-0.4229	
-0.042578	0.871202	0.43981	-21.21	27.79	-28.84	-0.0869	-0.3038	-0.4337	
-0.059414	0.861442	0.471164	-17.08	29.75	-27.86	-0.0883	-0.3052	-0.4291	
-0.056974	0.85705	0.472018	-14.91	29.61	-27.93	-0.0755	-0.2857	-0.4353	
-0.073932	0.879986	0.481168	-13.72	31.36	-28.77	-0.0768	-0.2963	-0.4399	
-0.110288	0.869372	0.498614	-14.98	33.95	-28.21	-0.0667	-0.2858	-0.4461	
-0.13664	0.867176	0.509594	-12.18	36.96	-29.33	-0.0581	-0.2799	-0.4461	
-0.128344	0.842288	0.494222	-7.14	33.18	-32.83	-0.0494	-0.28	-0.4416	
-0.157136	0.832406	0.481046	-5.74	27.02	-35.21	-0.045	-0.2846	-0.4401	
-0.280478	0.877668	0.474824	-2.31	16.59	-38.92	-0.0275	-0.2849	-0.4463	
-0.33916	0.857538	0.466284	-6.23	13.23	-33.32	-0.0347	-0.2863	-0.4494	
-0.336598	0.848144	0.45506	-7.28	11.13	-29.47	-0.0188	-0.2805	-0.4449	
-0.271938	0.843508	0.470432	-7.28	6.51	-28.63	-0.0116	-0.2775	-0.4464	
-0.265106	0.841434	0.44835	-7.35	6.86	-29.33	-0.0116	-0.2775	-0.4464	
-0.276818	0.823134	0.446154	-11.41	5.18	-26.18	-0.008599999	-0.2852	-0.4495	
-0.262178	0.80947	0.457866	-13.3	6.79	-24.99	-0.0203	-0.2774	-0.4525	
-0.225944	0.80581	0.48312	-13.23	8.12	-25.06	-0.0175	-0.2714	-0.451	
-0.205936	0.80459	0.471774	-12.74	9.52	-23.03	0.0014	-0.2777	-0.4481	
-0.20496	0.824232	0.483974	-10.99	8.82	-22.47	-0.003	-0.2701	-0.4434	
-0.23363	0.823134	0.479582	-13.37	12.32	-21.07	0.0101	-0.2718	-0.4573	
-0.258396	0.812032	0.492148	-13.44	14.98	-20.72	0.0101	-0.2673	-0.4619	
-0.270474	0.81923	0.493002	-12.6	17.43	-21.84	0.0129	-0.2643	-0.4588	
-0.278038	0.821426	0.498004	-10.43	15.89	-23.24	0.0216	-0.2629	-0.4543	
-0.277306	0.811056	0.492026	-11.62	18.27	-22.96	0.0245	-0.2614	-0.4543	
-0.299022	0.803492	0.472018	-13.58	18.83	-22.12	0.0157	-0.2597	-0.4527	
-0.312564	0.80215	0.498126	-15.05	23.8	-21.14	0.0345	-0.257	-0.4498	
-0.311344	0.80703	0.486902	-15.19	27.51	-22.05	0.0345	-0.2494	-0.4574	
-0.343918	0.812764	0.483242	-14.56	28.14	-23.31	0.0403	-0.2434	-0.4635	
-0.39162	0.812398	0.488122	-13.37	23.31	-23.03	0.0431	-0.2434	-0.459	
-0.419192	0.801418	0.486292	-15.05	20.3	-19.88	0.0477	-0.2511	-0.4697	
-0.417606	0.793244	0.488366	-14.7	20.02	-17.22	0.0476	-0.2481	-0.4621	
-0.413458	0.781044	0.503372	-15.26	20.16	-15.4	0.0619	-0.2346	-0.4637	
-0.471042	0.781898	0.500566	-15.68	15.54	-14.77	0.0736	-0.2378	-0.4699	
-0.465064	0.78812	0.519964	-12.11	12.6	-15.61	0.0735	-0.2333	-0.4607	
-0.440664	0.766526	0.52155	-13.44	9.38	-15.82	0.0793	-0.2273	-0.4653	
-0.44652	0.749934	0.49837	-13.86	5.88	-14.98	0.0749	-0.2227	-0.4699	
-0.453474	0.734928	0.497516	-15.26	6.93	-11.97	0.0733	-0.215	-0.4668	
-0.46055	0.723216	0.494832	-15.75	6.09	-9.73	0.0836	-0.2228	-0.4653	
-0.467382	0.721386	0.501054	-14.63	3.36	-8.33	0.0764	-0.2227	-0.4775	
-0.451156	0.708576	0.506056	-15.47	2.73	-6.58	0.0749	-0.2166	-0.4821	
-0.429684	0.698328	0.507276	-16.59	2.66	-5.95	0.0852	-0.2274	-0.4822	
-0.442128	0.699792	0.522892	-16.8	5.18	-5.04	0.0821	-0.2167	-0.4699	
-0.437858	0.685518	0.554734	-16.8	4.69	-4.55	0.0819	-0.2076	-0.4714	
-0.461526	0.683078	0.560346	-16.45	6.3	-4.69	0.08639999	-0.2061	-0.4821	
-0.43493	0.682468	0.565104	-13.23	8.19	-4.48	0.0937	-0.2123	-0.4746	
-0.42456	0.680272	0.558516	-12.18	6.37	-4.76	0.0862	-0.2016	-0.476	
-0.439932	0.67588	0.562908	-9.73	3.78	-5.04	0.09079999	-0.2108	-0.4837	
-0.45689	0.681492	0.570228	-7.28	3.64	-5.04	0.08769999	-0.2016	-0.4745	
-0.464576	0.686738	0.572546	-4.97	2.8	-4.83	0.0805	-0.203	-0.4806	
-0.490928	0.685884	0.55815	-4.76	0.84	-3.99	0.08329999	-0.1955	-0.4806	
-0.501176	0.690276	0.561444	-3.01	0	-2.52	0.0906	-0.1971	-0.4791	
-0.490806	0.687592	0.562054	-2.24	-1.12	-0.98	0.0862	-0.1985	-0.4806	
-0.490196	0.68259	0.564006	-0.98	-2.52	-0.07	0.0979	-0.1987	-0.4807	
-0.505934	0.685518	0.56242	0.63	-5.11	1.19	0.0964	-0.1957	-0.4791	
-0.506056	0.692594	0.560102	1.75	-6.72	3.08	0.09339999	-0.1956	-0.4791	
-0.473116	0.69174	0.560712	2.24	-6.51	4.83	0.0919	-0.191	-0.4791	
-0.452742	0.69601	0.559492	2.73	-6.72	5.46	0.0907	-0.2077	-0.473	
-0.475068	0.693814	0.564128	5.39	-7.63	6.93	0.0905	-0.194	-0.4775	
-0.457622	0.693936	0.562664	7.28	-7.14	8.26	0.0861	-0.1924	-0.4714	
-0.43005	0.695522	0.554856	7.7	-7.98	8.82	0.0818	-0.2	-0.4729	
-0.42761	0.698206	0.557784	8.12	-9.52	9.24	0.08769999	-0.2001	-0.4806	
-0.432124	0.701988	0.558272	9.66	-10.43	9.24	0.0805	-0.2076	-0.4775	
-0.441518	0.711382	0.552416	11.34	-10.85	9.31	0.0791	-0.2106	-0.4729	
-0.437004	0.711138	0.549976	11.13	-10.29	10.22	0.0746	-0.2059	-0.4698	
-0.429562	0.714066	0.54473	11.13	-10.43	11.06	0.07319999	-0.2135	-0.4622	
-0.443958	0.721386	0.542412	13.16	-11.34	12.04	0.0763	-0.2181	-0.476	
-0.441762	0.732244	0.538142	13.09	-10.08	12.88	0.0704	-0.2135	-0.4744	
-0.425292	0.748714	0.538264	12.32	-9.66	13.86	0.0749	-0.2257	-0.4637	
-0.416264	0.74603	0.540216	11.41	-9.31	14.7	0.0676	-0.221	-0.4744	
-0.402356	0.744444	0.536434	11.83	-9.24	14.77	0.0632	-0.2164	-0.4743	
-0.397476	0.746274	0.52826	12.18	-9.52	15.05	0.0662	-0.2225	-0.4729	
-0.372954	0.750788	0.533994	12.74	-9.52	14.7	0.0459	-0.2268	-0.4742	
-0.366976	0.755424	0.524356	11.48	-9.66	14.91	0.0532	-0.233	-0.4621	
-0.366244	0.76494	0.519476	12.39	-10.64	14.77	0.0546	-0.2254	-0.4712	
-0.359046	0.765062	0.519964	12.67	-11.27	15.05	0.0474	-0.2344	-0.4682	
-0.354776	0.770918	0.518866	13.09	-12.25	14.91	0.0431	-0.2328	-0.4697	
-0.359656	0.770674	0.522404	12.81	-12.04	15.47	0.0487	-0.2207	-0.4666	
-0.362828	0.769332	0.527528	12.39	-10.78	17.01	0.0359	-0.2418	-0.4681	
-0.350384	0.77592	0.517036	12.32	-9.17	17.92	0.0431	-0.2359	-0.4681	
-0.32757	0.780068	0.516792	13.09	-9.66	17.99	0.0402	-0.2389	-0.4697	
-0.318786	0.782508	0.512888	14.14	-11.2	17.92	0.0315	-0.2372	-0.4696	
-0.322812	0.790438	0.512888	14.7	-10.5	18.41	0.0228	-0.2432	-0.4665	
-0.32452	0.795074	0.508496	14.49	-9.31	20.02	0.0285	-0.2417	-0.4512	
-0.311832	0.795684	0.50203	14.49	-9.52	21.77	0.0231	-0.2629	-0.4589	
-0.298046	0.797026	0.502518	16.59	-11.13	22.12	0.0317	-0.2539	-0.465	
-0.289384	0.808372	0.49532	18.76	-12.25	22.61	0.007	-0.2626	-0.4542	
-0.285846	0.817156	0.480192	18.41	-11.41	23.66	0.0028	-0.2702	-0.4496	
-0.269986	0.81313	0.484706	17.29	-10.43	25.34	0.0129	-0.2627	-0.4588	
-0.26657	0.812886	0.478606	18.62	-11.9	25.97	0.0012	-0.2656	-0.448	
-0.257542	0.817644	0.47092	19.32	-12.32	27.16	-0.0045	-0.267	-0.4495	
-0.252296	0.826794	0.465064	18.34	-11.97	28.63	-0.003	-0.2746	-0.4343	
-0.209596	0.843752	0.464698	20.79	-20.16	27.65	-0.0072	-0.2746	-0.4556	
-0.202154	0.84668	0.469456	21.07	-17.92	29.61	-0.0277	-0.2727	-0.4417	
-0.210328	0.85583	0.447862	20.37	-16.59	31.01	-0.0245	-0.2895	-0.4418	
-0.204838	0.860954	0.443226	18.2	-17.08	33.25	-0.0231	-0.2865	-0.4448	
-0.172142	0.863882	0.458842	19.18	-17.71	33.74	-0.0275	-0.2819	-0.4479	
-0.136518	0.863638	0.448838	19.74	-20.23	32.97	-0.0406	-0.2908	-0.4325	
-0.13664	0.869128	0.43188	18.13	-18.13	33.6	-0.0433	-0.2968	-0.4371	
-0.128466	0.884744	0.421876	18.97	-18.83	33.6	-0.0479	-0.2891	-0.4294	
-0.123586	0.882548	0.44103	18.97	-18.2	34.37	-0.0522	-0.2921	-0.4324	
-0.097356	0.882426	0.421144	18.69	-18.34	34.79	-0.0622	-0.3056	-0.4293	
-0.085888	0.895846	0.407724	19.81	-17.29	34.93	-0.0696	-0.2964	-0.4292	
-0.063318	0.908534	0.396378	18.83	-17.36	35.42	-0.0695	-0.3025	-0.4293	
-0.043066	0.9089	0.389668	18.2	-16.66	36.26	-0.0753	-0.3024	-0.4216	
-0.038308	0.912804	0.384056	17.5	-17.64	36.4	-0.08109999	-0.3099	-0.4154	
-0.02867	0.915244	0.37027	17.01	-20.37	35.98	-0.0926	-0.3127	-0.4199	
-0.013908	0.91744	0.36356	14.49	-19.95	38.29	-0.09999999	-0.3111	-0.4138	
0.03111	0.912682	0.366732	15.75	-18.34	38.5	-0.1015	-0.3096	-0.4122	
0.07198	0.942694	0.365756	20.37	-20.3	35.42	-0.1159	-0.3139	-0.4152	
0.080764	0.971242	0.338672	18.83	-23.8	32.83	-0.1115	-0.3216	-0.4091	
0.060634	0.96075	0.316102	14.77	-21.21	33.6	-0.1218	-0.3077	-0.4121	
0.073078	0.938424	0.336476	13.65	-19.25	34.23	-0.1291	-0.3091	-0.4059	
0.09076799	0.929152	0.328058	14.49	-19.39	33.81	-0.1423	-0.3134	-0.3874	
0.099918	0.927566	0.30561	15.12	-22.61	33.53	-0.145	-0.3271	-0.389	
0.096502	0.925492	0.277306	12.81	-21.7	34.51	-0.1465	-0.3164	-0.3981	
0.108458	0.939278	0.301218	13.72	-23.8	34.02	-0.161	-0.3208	-0.398	
0.15067	0.965508	0.309514	13.79	-23.17	33.39	-0.1654	-0.3177	-0.3904	
0.171776	0.940376	0.309636	10.01	-20.44	34.3	-0.174	-0.3297	-0.3903	
0.140422	0.947696	0.311222	10.99	-20.23	32.27	-0.1771	-0.3175	-0.3872	
0.1403	0.96014	0.295728	12.53	-25.27	26.39	-0.1829	-0.3204	-0.3765	
0.16226	0.961848	0.284748	10.5	-29.96	23.8	-0.1857	-0.325	-0.3872	
0.186904	0.947818	0.281576	7.77	-31.99	23.52	-0.1829	-0.3249	-0.3704	
0.184464	0.935374	0.254614	5.39	-30.52	24.22	-0.2003	-0.3262	-0.3702	
0.224846	0.916708	0.270962	3.85	-27.3	25.62	-0.2106	-0.3169	-0.3671	
0.2745	0.891332	0.310612	4.69	-27.72	25.69	-0.2194	-0.3122	-0.3685	
0.269986	0.908046	0.282308	7.98	-31.08	21.98	-0.2062	-0.3185	-0.3732	
0.267424	0.919026	0.266204	10.22	-32.41	20.44	-0.2193	-0.3183	-0.3685	
0.31232	0.917806	0.282308	7.7	-28.91	23.31	-0.2282	-0.3091	-0.3608	
0.3477	0.907558	0.27999	6.58	-22.89	24.64	-0.2296	-0.3151	-0.3669	
0.35563	0.89731	0.24949	8.61	-17.71	22.47	-0.2311	-0.3105	-0.3562	
0.433832	0.834724	0.330986	16.59	-6.37	23.52	-0.2398	-0.3165	-0.3607	
0.47641	0.83753	0.315004	20.16	-0.91	24.01	-0.2442	-0.3149	-0.3561	
0.48678	0.921466	0.258152	26.25	2.38	16.17	-0.253	-0.3102	-0.3468	
0.429196	0.934398	0.238632	22.47	15.75	22.61	-0.2458	-0.3072	-0.3454	
0.399672	0.888648	0.229726	17.92	25.41	28.21	-0.2471	-0.3224	-0.3423	
0.393816	0.938912	0.181292	18.62	25.41	24.71	-0.2529	-0.3223	-0.3423	
0.37149	0.999424	0.205082	17.78	29.82	24.01	-0.2456	-0.3194	-0.353	
0.354776	0.99247	0.210328	10.71	29.89	24.43	-0.2456	-0.3149	-0.3515	
0.37149	0.912438	0.236558	12.67	30.45	22.89	-0.2529	-0.3178	-0.3438	
0.407724	0.87901	0.220698	10.85	31.57	21.35	-0.2601	-0.3207	-0.3468	
0.370148	0.949648	0.197884	9.38	26.46	19.81	-0.2455	-0.3194	-0.3576	
0.332328	0.958066	0.20252	9.03	24.36	15.4	-0.2398	-0.3195	-0.3546	
0.28121	0.951844	0.208742	5.11	22.4	14	-0.2487	-0.3102	-0.3469	
0.259494	0.941718	0.21106	0.98	18.27	14.35	-0.2414	-0.3073	-0.3546	
0.285602	0.926468	0.23912	1.54	13.58	12.04	-0.2413	-0.3149	-0.3515	
0.327082	0.934886	0.243878	-0.77	12.32	9.94	-0.2411	-0.3241	-0.3577	
0.352458	0.922808	0.234362	-2.03	6.65	6.72	-0.2471	-0.3118	-0.3545	
0.357948	0.910486	0.224114	-2.03	0.35	2.17	-0.2513	-0.3194	-0.3683	
0.364048	0.90707	0.249124	-0.63	3.15	0.56	-0.2368	-0.3196	-0.3608	
0.379054	0.872178	0.237534	3.43	2.31	0.42	-0.2513	-0.3209	-0.3561	
0.375882	0.85766	0.23119	15.89	-4.48	-4.06	-0.2471	-0.3148	-0.35	
0.386252	0.932324	0.22387	14.42	-7.42	-3.64	-0.25	-0.3163	-0.3515	
0.433954	0.964044	0.213622	9.17	2.66	-0.21	-0.2471	-0.3148	-0.3561	
0.363438	0.890722	0.198494	10.5	0.98	-0.7	-0.2383	-0.315	-0.3577	
0.327204	0.889014	0.198372	8.47	4.06	-1.19	-0.2399	-0.3119	-0.3531	
0.363316	0.892064	0.22936	10.36	10.5	-0.7	-0.2341	-0.3104	-0.3455	
0.4148	0.90707	0.22875	14.91	7.49	-5.39	-0.2484	-0.3255	-0.353	
0.43676	0.879498	0.216306	13.37	5.67	-5.46	-0.2411	-0.324	-0.3562	
0.440786	0.879742	0.215452	12.67	10.43	-2.38	-0.2354	-0.3256	-0.347	
0.48922	0.867908	0.243634	18.69	24.29	-0.21	-0.2354	-0.3196	-0.3485	
0.482632	0.883036	0.22997	12.6	30.17	3.71	-0.2396	-0.3362	-0.3394	
0.46848	0.888282	0.225822	10.64	38.08	5.32	-0.2265	-0.3364	-0.3502	
0.447618	0.887062	0.225456	8.89	41.23	8.47	-0.2265	-0.3318	-0.3502	
0.40138	0.892674	0.221552	9.66	47.88	10.01	-0.2252	-0.3243	-0.3502	
0.396378	0.88999	0.22814	11.69	52.64	11.83	-0.2208	-0.3258	-0.3502	
0.407114	0.888526	0.23241	15.4	59.71	13.51	-0.2179	-0.3214	-0.3563	
0.417972	0.886452	0.229238	18.55	65.03	14.49	-0.2032	-0.3352	-0.3534	
0.402844	0.91195	0.221308	21.98	70.07	12.74	-0.2076	-0.3321	-0.3534	
0.395524	0.91805	0.20618	22.33	73.64	13.02	-0.2046	-0.3383	-0.3565	
0.368318	0.91866	0.195566	22.82	82.53	14	-0.1842	-0.3371	-0.3689	
0.362584	0.925858	0.20069	23.17	85.05	13.58	-0.1844	-0.3264	-0.3612	
