Sensor string: A
Serial number: 1970-01-0000
Firmware version: 2,015
Hardware version: 2,2
Calibration quality: 5
ax	ay	az	gx	gy	gz	mx	my	mz

0.245098	0.771772	0.58499	-0.91	-1.05	-0.84	-0.1342	-0.2044	-0.3689	Reference
0.24522	0.768722	0.58621	-0.77	-0.91	-1.05	-0.1401	-0.1995	-0.3689	
0.245098	0.76799	0.587674	-0.42	-0.77	-1.12	-0.1445	-0.2025	-0.3597	
0.244976	0.764696	0.589992	-0.14	-0.49	-1.05	-0.1417	-0.2011	-0.3536	
0.243268	0.767502	0.588406	0.35	-0.49	-0.84	-0.1416	-0.1995	-0.3627	
0.24095	0.766648	0.586942	0.42	-0.07	-0.49	-0.1389	-0.195	-0.3674	
0.245464	0.767136	0.58438	0.84	-0.35	-0.35	-0.1375	-0.1966	-0.3567	
0.242902	0.770308	0.581208	0.63	-0.07	-0.14	-0.1373	-0.1997	-0.3628	
0.239974	0.773968	0.579866	0.63	0.07	0	-0.14	-0.2026	-0.3673	
0.23424	0.778604	0.57889	0.28	0.35	0.07	-0.1313	-0.206	-0.3598	
0.231678	0.775676	0.579378	0.14	0.42	0	-0.1431	-0.1979	-0.3658	
0.236436	0.772382	0.580476	-0.07	0.07	0	-0.1421	-0.1872	-0.3612	
0.232166	0.775188	0.57889	-0.49	0.07	0.21	-0.1344	-0.2013	-0.3567	
0.235216	0.77409	0.582306	-0.7	-0.07	0.42	-0.1345	-0.1967	-0.3628	
0.238876	0.769942	0.584258	-0.98	-0.14	0.56	-0.1389	-0.195	-0.3628	
0.247172	0.76006	0.585478	-0.77	-0.56	0.14	-0.1404	-0.1934	-0.3628	
0.240218	0.77165	0.585722	-0.07	-0.21	0.49	-0.1419	-0.1918	-0.3628	
0.233142	0.782386	0.58926	0.07	0.84	0.63	-0.1417	-0.1964	-0.3628	
0.233874	0.770186	0.584014	-0.42	0.84	0.28	-0.1372	-0.2012	-0.3658	
0.242536	0.765794	0.581208	-0.56	-0.63	-0.14	-0.1432	-0.1979	-0.3597	
0.240218	0.767502	0.578524	-0.56	-0.7	-0.07	-0.1389	-0.1935	-0.3658	
0.238266	0.7686	0.582306	-0.14	-0.49	0.28	-0.1388	-0.1965	-0.3658	
0.23729	0.769576	0.581818	-0.07	-0.63	0.35	-0.1435	-0.1872	-0.3658	
0.23851	0.773358	0.582306	0.14	-1.05	0.28	-0.1388	-0.1981	-0.3597	
0.24217	0.777018	0.585478	0.07	-0.91	0.21	-0.1445	-0.2009	-0.3642	
0.242414	0.77409	0.586454	-0.14	-0.56	0.14	-0.1373	-0.2012	-0.3613	
0.243756	0.766404	0.584014	-0.42	-0.49	-0.14	-0.1371	-0.2027	-0.3689	
0.243146	0.769698	0.583282	0.07	-0.63	-0.07	-0.1403	-0.198	-0.3582	
0.240218	0.769942	0.581818	-0.07	-0.14	0.42	-0.139	-0.1935	-0.3536	
0.239974	0.768478	0.581452	-0.21	0.07	0.84	-0.143	-0.2041	-0.3581	
0.24095	0.770064	0.585966	-0.35	-0.28	1.12	-0.1315	-0.2014	-0.3628	
0.24644	0.768356	0.582184	-0.28	-0.49	1.05	-0.1429	-0.2056	-0.3597	
0.247172	0.774456	0.584502	0.14	-0.42	1.05	-0.1319	-0.1907	-0.3598	
0.235826	0.777262	0.581696	0.07	0.91	1.12	-0.1374	-0.1997	-0.3536	
0.233752	0.774822	0.577792	0.21	0.7	1.05	-0.1346	-0.1967	-0.3537	
0.234972	0.77775	0.575718	0.07	-0.14	0.63	-0.1461	-0.1963	-0.3627	
0.235338	0.782264	0.574254	-0.14	-0.63	0.49	-0.1461	-0.1978	-0.352	
0.235826	0.779458	0.575596	-0.42	-0.56	0.42	-0.1346	-0.1952	-0.3628	
0.240462	0.77409	0.57889	-0.84	-1.19	0.42	-0.139	-0.1919	-0.3597	
0.246074	0.769332	0.582062	-1.12	-1.26	0.35	-0.1386	-0.2027	-0.3704	
0.247782	0.765306	0.582672	-1.12	-0.42	0.63	-0.1405	-0.1888	-0.3628	
0.249368	0.765794	0.584868	-0.49	-0.49	0.98	-0.1417	-0.1964	-0.3628	
0.24522	0.768112	0.582794	-0.7	-0.49	1.19	-0.1446	-0.1963	-0.3627	
0.244	0.774456	0.582306	-0.21	-0.91	0.84	-0.1417	-0.198	-0.3643	
0.245342	0.77836	0.579744	-0.14	-0.56	0.21	-0.143	-0.2025	-0.3627	
0.24461	0.77714	0.576938	-0.49	-0.84	-0.42	-0.1432	-0.1979	-0.3551	
0.243756	0.773358	0.578524	-0.49	-0.98	-0.56	-0.1405	-0.1903	-0.3658	
0.24644	0.769698	0.581452	-0.7	-1.12	-0.49	-0.1345	-0.1967	-0.3628	
0.248148	0.76921	0.585844	-0.77	-1.33	-0.14	-0.1416	-0.1995	-0.3704	
0.25254	0.767624	0.586698	-0.91	-0.7	0.14	-0.149	-0.1962	-0.3596	
0.252296	0.768966	0.586454	-0.63	-0.14	0.14	-0.1419	-0.1949	-0.3521	
0.253638	0.77043	0.58438	-0.56	0.49	0.21	-0.1421	-0.1857	-0.3674	
0.24949	0.769332	0.582062	-0.7	1.05	0.21	-0.1413	-0.2072	-0.3673	
0.246562	0.770796	0.580354	-0.77	1.4	0.28	-0.1391	-0.1904	-0.3582	
0.244244	0.772138	0.579988	-0.98	1.33	0.28	-0.1488	-0.1992	-0.3673	
0.24095	0.773358	0.581696	-1.12	1.05	0.28	-0.1417	-0.1964	-0.3658	
0.242048	0.774578	0.584868	-1.12	0.77	0.14	-0.1478	-0.1855	-0.3673	
0.243512	0.771528	0.587064	-0.98	0.42	-0.21	-0.1493	-0.187	-0.3627	
0.242658	0.7686	0.588406	-0.84	0.28	-0.42	-0.1371	-0.2043	-0.3658	
0.237168	0.772382	0.579744	-0.56	0.07	-0.56	-0.1421	-0.1857	-0.3643	
0.235948	0.772504	0.582184	-0.35	-0.42	-0.84	-0.1374	-0.1966	-0.3643	
0.24217	0.769942	0.578402	-0.77	-0.7	-0.91	-0.1406	-0.1873	-0.3658	
0.24644	0.762012	0.5795	-1.26	-1.68	-0.56	-0.1429	-0.2025	-0.3719	
0.23973	0.777018	0.588772	-0.49	-1.4	-0.21	-0.1478	-0.1886	-0.3612	
0.240584	0.776774	0.590602	-0.63	0.21	-0.21	-0.1456	-0.2086	-0.3673	
0.246684	0.763232	0.588894	-0.77	-0.28	-0.56	-0.1446	-0.1979	-0.3612	
0.250588	0.762378	0.587796	-0.77	-1.12	-0.63	-0.1433	-0.1902	-0.3673	
0.248148	0.763842	0.588772	-0.56	-0.42	-0.35	-0.1476	-0.1931	-0.3688	
0.244122	0.760914	0.588894	-0.21	0.21	-0.07	-0.1433	-0.1933	-0.3597	
0.243146	0.763354	0.587186	0.14	-0.14	-0.14	-0.1331	-0.1952	-0.3613	
0.244732	0.76677	0.589016	0.14	-0.28	-0.07	-0.1402	-0.198	-0.3673	
0.243756	0.77043	0.587064	-0.21	0	0.14	-0.1458	-0.2055	-0.3627	
0.244	0.770064	0.586942	-0.21	-0.28	0.07	-0.1389	-0.1935	-0.3658	
0.24461	0.770308	0.585234	-0.28	-0.14	-0.35	-0.1418	-0.1934	-0.3643	
0.244732	0.768478	0.586332	0	0.07	-0.42	-0.1387	-0.2042	-0.3536	
0.244976	0.764086	0.584746	0	0.35	-0.49	-0.1446	-0.1948	-0.3658	
0.244244	0.762256	0.58621	0.42	0.07	-0.42	-0.1447	-0.1933	-0.3688	
0.244854	0.766282	0.585478	0.77	0	0.21	-0.1415	-0.2026	-0.3658	
0.249002	0.766282	0.582916	0.42	-0.28	0.14	-0.1316	-0.1968	-0.3644	
0.244488	0.775798	0.587796	0.49	0.21	0.07	-0.1373	-0.1997	-0.3613	
0.241194	0.7747	0.58743	0.56	1.05	0.07	-0.1403	-0.1965	-0.3658	
0.245098	0.769332	0.582916	0.63	0.84	-0.42	-0.1431	-0.1979	-0.3673	
0.246318	0.77592	0.578646	0.63	0.42	-0.91	-0.1374	-0.195	-0.3659	
0.244	0.778604	0.573156	0.63	1.26	-0.84	-0.1333	-0.1906	-0.3613	
0.23973	0.777506	0.571814	0.7	1.4	-0.42	-0.1388	-0.1996	-0.3597	
0.23485	0.778848	0.570594	0.14	1.05	-0.49	-0.1387	-0.2011	-0.3612	
0.229482	0.781898	0.56913	0.07	0.91	-0.49	-0.1446	-0.1979	-0.3643	
0.22875	0.78812	0.567544	0.35	0.77	-0.14	-0.1402	-0.1996	-0.3643	
0.228018	0.78812	0.56913	-0.28	0.35	-0.07	-0.1375	-0.1966	-0.3552	
0.229238	0.780312	0.57584	-0.77	-0.49	-0.28	-0.1462	-0.1917	-0.3612	
0.234484	0.779458	0.585112	-0.7	-1.4	-0.35	-0.1416	-0.201	-0.3643	
0.239608	0.782508	0.578036	-1.05	-1.26	-0.77	-0.1287	-0.2015	-0.3552	
0.245952	0.78507	0.5734	-1.26	-0.42	-1.26	-0.1388	-0.1981	-0.3613	
0.24461	0.78934	0.567788	-0.98	0	-0.63	-0.1403	-0.198	-0.3597	
0.23607	0.790316	0.563152	-1.75	0.98	-0.21	-0.1388	-0.1981	-0.3582	
0.229604	0.791048	0.560224	-2.38	1.12	-0.35	-0.13	-0.2014	-0.3659	
0.224236	0.79605	0.555222	-3.08	1.33	-0.35	-0.1374	-0.1951	-0.3643	
0.225334	0.814716	0.549366	-2.45	0.56	-0.07	-0.1448	-0.1933	-0.3582	
0.22448	0.828258	0.5368	-3.36	0.63	0.42	-0.1345	-0.1967	-0.3674	
0.221064	0.855464	0.512644	-2.8	0.84	1.12	-0.1343	-0.2044	-0.3628	
0.21411	0.878034	0.501176	-5.32	2.59	1.89	-0.1316	-0.1968	-0.3644	
0.203984	0.86376	0.480314	-8.47	4.41	1.61	-0.1345	-0.1967	-0.3644	
0.194102	0.865712	0.480192	-10.85	2.66	2.24	-0.1346	-0.1936	-0.3689	
0.184586	0.867542	0.467016	-14.91	0.07	4.76	-0.1391	-0.1904	-0.3582	
0.185928	0.869128	0.47519	-20.93	-1.68	6.79	-0.1319	-0.1876	-0.3675	
0.200934	0.853512	0.48556	-26.46	-1.68	8.4	-0.1409	-0.1796	-0.3613	
0.220454	0.843142	0.504226	-30.24	-2.31	10.57	-0.1438	-0.1749	-0.3781	
0.219478	0.851072	0.504592	-31.99	-3.01	11.48	-0.1438	-0.178	-0.3658	
0.20557	0.850706	0.47763	-38.99	-2.94	10.99	-0.1467	-0.1748	-0.375	
0.201178	0.82777	0.500566	-45.36	-2.24	10.64	-0.15	-0.1593	-0.3826	
0.208986	0.78385	0.525698	-48.65	-0.77	10.01	-0.1501	-0.1547	-0.3857	
0.223626	0.747738	0.544974	-47.25	1.54	4.69	-0.1517	-0.1485	-0.3887	
0.219966	0.747738	0.568886	-59.15	-19.46	3.99	-0.1491	-0.1378	-0.3964	
0.24888	0.725534	0.558638	-60.97	-14.49	11.76	-0.1483	-0.1241	-0.3827	
0.227896	0.713944	0.544486	-61.46	-3.99	11.62	-0.1502	-0.1071	-0.3965	
0.205692	0.670024	0.567666	-68.39	-5.25	10.01	-0.1447	-0.0997	-0.3874	
0.222528	0.615734	0.612196	-71.26	-5.18	13.79	-0.1488	-0.1057	-0.3889	
0.259616	0.577792	0.6527	-72.87	-8.47	16.73	-0.1511	-0.078	-0.3966	
0.291336	0.560102	0.685152	-74.34	-10.15	18.48	-0.1558	-0.0686	-0.392	
0.279746	0.544364	0.676368	-79.8	-9.59	18.69	-0.1647	-0.0591	-0.401	
0.277672	0.52277	0.69113	-79.45	-11.34	26.81	-0.155	-0.0487	-0.3935	
0.278648	0.475068	0.7076	-80.08	-7	25.48	-0.1581	-0.0425	-0.3981	
0.295728	0.422852	0.747982	-79.94	-6.79	23.24	-0.1659	-0.0253	-0.3935	
0.313296	0.379054	0.783118	-78.4	-6.79	26.88	-0.1623	-0.0055	-0.3905	
0.322568	0.35563	0.803248	-77.07	-8.82	26.32	-0.1654	0.0021	-0.3874	
0.3233	0.328668	0.824964	-74.69	-5.95	26.04	-0.1716	0.0146	-0.3859	
0.324154	0.27328	0.842166	-73.99	-4.48	24.01	-0.162	0.0312	-0.3937	
0.331596	0.215452	0.851316	-74.2	-5.74	22.33	-0.1726	0.0422	-0.3829	
0.3416	0.183732	0.86803	-72.03	-6.3	22.82	-0.1716	0.0575	-0.3921	
0.348188	0.148718	0.871324	-69.72	-4.34	21.91	-0.1705	0.0667	-0.386	
0.366244	0.126514	0.88572	-66.43	-5.04	23.45	-0.181	0.0793	-0.3905	
0.367586	0.124562	0.899506	-63.42	-4.9	23.8	-0.1687	0.0957	-0.3739	
0.37271	0.11224	0.912194	-62.37	-5.11	23.1	-0.1761	0.1052	-0.38	
0.37759	0.092232	0.931592	-60.83	-3.71	21.63	-0.1722	0.1158	-0.3754	
0.387472	0.05673	0.935374	-59.43	-3.29	19.67	-0.1722	0.1173	-0.3831	
0.386618	0.017568	0.941108	-57.61	-3.85	18.55	-0.1683	0.1294	-0.374	
0.386252	-0.00427	0.939888	-55.37	-4.34	17.64	-0.17	0.1372	-0.377	
0.38796	-0.022448	0.950868	-51.94	-4.06	15.96	-0.1718	0.1449	-0.3709	
0.395036	-0.039284	0.955382	-48.09	-3.15	14.84	-0.1723	0.1571	-0.3618	
0.40443	-0.048556	0.954772	-43.82	-3.43	13.02	-0.1638	0.1645	-0.365	
0.407602	-0.05246	0.950624	-41.23	-1.82	13.65	-0.1701	0.1801	-0.3634	
0.403698	-0.057828	0.94977	-39.62	-2.31	12.6	-0.1746	0.1817	-0.3511	
0.405284	-0.060634	0.952576	-37.1	-0.77	11.83	-0.1688	0.1815	-0.3558	
0.409676	-0.07198	0.959042	-33.6	-0.7	10.15	-0.1748	0.1879	-0.3573	
0.412116	-0.081008	0.968192	-30.66	-0.28	8.33	-0.1694	0.1938	-0.3405	
0.407846	-0.09089	0.96258	-28.49	-0.49	6.86	-0.165	0.1952	-0.3452	
0.406626	-0.097966	0.966972	-25.97	-0.35	5.74	-0.1668	0.206	-0.3528	
0.408334	-0.115168	0.969046	-23.1	0	5.46	-0.1699	0.2153	-0.3574	
0.414556	-0.127734	0.966118	-19.67	0	4.83	-0.1685	0.2106	-0.3391	
0.411994	-0.125416	0.96136	-16.73	0.56	3.99	-0.1759	0.2155	-0.339	
0.410774	-0.133712	0.964044	-14.21	0.63	4.34	-0.1589	0.2256	-0.3422	
0.404308	-0.137738	0.961726	-12.04	0.84	3.85	-0.173	0.2169	-0.3467	
0.398696	-0.137982	0.963678	-8.61	-0.14	3.43	-0.1642	0.2135	-0.3422	
0.409798	-0.146888	0.971852	-6.09	-0.56	2.45	-0.1588	0.2241	-0.3468	
0.417118	-0.155794	0.982954	-2.94	-0.98	0.98	-0.1644	0.2181	-0.3361	
0.42944	-0.180438	0.999912	3.01	-1.54	-1.89	-0.1763	0.2278	-0.339	
0.439566	-0.187636	0.99247	7.07	-1.75	-3.29	-0.1631	0.2242	-0.3483	
0.441762	-0.180438	0.982954	10.22	-1.47	-4.13	-0.1672	0.2167	-0.3421	
0.427122	-0.18483	0.99064	14.14	-1.33	-4.55	-0.1613	0.2119	-0.3391	
0.424316	-0.183366	0.995032	18.55	-1.54	-6.02	-0.1705	0.2276	-0.3391	
0.428708	-0.188124	1.000156	22.54	-1.82	-8.54	-0.1672	0.2152	-0.3437	
0.430538	-0.181292	1.000034	26.46	-1.54	-10.22	-0.1773	0.2186	-0.3466	
0.433832	-0.172386	1.008086	31.22	-1.54	-11.83	-0.1627	0.212	-0.3468	
0.442616	-0.155306	1.002962	36.19	-1.33	-14.14	-0.1741	0.2062	-0.3436	
0.446398	-0.140788	1.002596	41.02	-0.77	-16.8	-0.1739	0.2016	-0.3451	
0.436394	-0.137128	0.997106	45.29	0.49	-18.69	-0.1716	0.1801	-0.3573	
0.435784	-0.121268	0.993812	50.47	0.35	-20.16	-0.1676	0.1861	-0.3512	
0.441396	-0.100406	0.985028	55.23	0.77	-22.75	-0.1716	0.1755	-0.3466	
0.436028	-0.071736	0.973194	59.01	-0.56	-24.85	-0.1744	0.1771	-0.3557	
0.426878	-0.048678	0.96319	64.47	1.61	-24.64	-0.1722	0.1556	-0.3649	
0.399062	-0.00854	0.92964	69.65	1.96	-28	-0.1902	0.1333	-0.3677	
0.396256	0.01525	0.91927	73.15	2.03	-29.4	-0.1741	0.1266	-0.3663	
0.396256	0.045994	0.914756	77.21	1.26	-29.89	-0.179	0.1038	-0.3784	
0.389302	0.078812	0.899872	80.36	2.03	-31.22	-0.1801	0.0946	-0.3845	
0.367464	0.104798	0.8784	82.95	1.89	-32.48	-0.1813	0.08549999	-0.3783	
0.360754	0.140788	0.856684	86.24	3.57	-32.69	-0.1893	0.0674	-0.3828	
0.348066	0.179584	0.829966	87.78	3.78	-31.85	-0.1816	0.0517	-0.3828	
0.349408	0.207766	0.817156	83.44	-3.29	-24.15	-0.1698	0.0483	-0.389	
0.359778	0.205326	0.80215	85.82	-0.7	-23.1	-0.1679	0.0329	-0.3921	
0.33672	0.234606	0.77409	91.7	2.8	-28.35	-0.1773	0.0133	-0.3874	
0.312564	0.284626	0.73688	95.06	4.55	-32.62	-0.1753	-0.0051	-0.3843	
0.304024	0.343918	0.720532	94.71	1.82	-31.92	-0.178	-0.0127	-0.3812	
0.305	0.38003	0.716018	93.1	1.26	-25.76	-0.18	-0.0387	-0.3841	
0.302194	0.386862	0.709186	89.88	-0.91	-23.59	-0.174	-0.0419	-0.3918	
0.300242	0.395646	0.686616	87.64	-2.38	-28.28	-0.1792	-0.0617	-0.3856	
0.293166	0.42395	0.66246	92.05	0.98	-28.07	-0.1742	-0.0802	-0.3887	
0.267668	0.46177	0.628788	95.48	2.31	-29.33	-0.1739	-0.0925	-0.381	
0.263032	0.50996	0.599508	92.96	-2.38	-29.75	-0.1821	-0.1045	-0.3809	
0.26535	0.538996	0.578524	94.99	0.42	-25.9	-0.1698	-0.1279	-0.3856	
0.26047	0.56364	0.549122	92.68	-0.07	-26.95	-0.1697	-0.1341	-0.3703	
0.251564	0.584746	0.513498	90.58	-2.52	-30.38	-0.1674	-0.1618	-0.3702	
0.25071	0.613294	0.458842	89.18	-6.3	-29.26	-0.1699	-0.1724	-0.3671	
0.220454	0.65148	0.390888	90.72	-5.11	-31.57	-0.1655	-0.1788	-0.3549	
0.211548	0.748348	0.392596	92.47	-8.05	-36.61	-0.1678	-0.1986	-0.3472	
0.194956	0.791048	0.367342	87.92	-7	-43.12	-0.1686	-0.2185	-0.3426	
0.175314	0.795562	0.345626	84.21	-6.44	-37.31	-0.1553	-0.2282	-0.3473	
0.161772	0.770308	0.315004	82.6	-7.7	-33.18	-0.1681	-0.2385	-0.3288	
0.166408	0.796294	0.330986	90.58	-14.07	-35.14	-0.1531	-0.2528	-0.3381	
0.174826	0.846802	0.29707	96.18	-10.01	-37.87	-0.1589	-0.2573	-0.3166	
0.177998	0.895846	0.261568	99.75	-7.14	-41.09	-0.1585	-0.2711	-0.3059	
0.155794	0.915854	0.19459	93.52	-4.9	-42.91	-0.1576	-0.3018	-0.2936	
0.12505	0.906826	0.136518	86.17	-9.03	-40.74	-0.1477	-0.2976	-0.2891	
0.071736	0.926224	0.110044	80.43	-14.91	-35.98	-0.1411	-0.3301	-0.2647	
0.060024	0.979904	0.111142	79.17	-19.74	-32.41	-0.1395	-0.3363	-0.257	
0.049898	1.02602	0.099186	74.9	-20.72	-28.56	-0.1361	-0.3564	-0.2433	
0.056364	1.01992	0.078202	68.53	-20.86	-26.74	-0.1391	-0.3547	-0.2387	
0.085156	1.006988	0.05856	65.59	-21.49	-26.11	-0.1289	-0.3582	-0.2372	
0.049288	1.049444	0.030744	70.84	-19.88	-28.7	-0.1342	-0.3764	-0.2173	
0.081008	1.105808	0.010248	63.35	-20.3	-15.19	-0.1239	-0.3829	-0.2143	
0.063562	1.142408	-0.005612	57.19	-20.93	-10.99	-0.1282	-0.3889	-0.2036	
0.052948	1.163026	-0.023424	56.77	-21.21	-13.58	-0.128	-0.392	-0.2082	
0.046238	1.16876	-0.03721	55.09	-9.59	-18.76	-0.1296	-0.392	-0.1913	
0.05002	1.156194	-0.032696	48.65	-7.21	-19.18	-0.128	-0.4028	-0.1761	
0.031964	1.142652	-0.05124	40.95	-8.4	-18.62	-0.1276	-0.4136	-0.1776	
0.044652	1.143506	-0.054412	37.24	-7.98	-16.1	-0.1248	-0.4121	-0.1715	
0.045628	1.131062	-0.053802	33.88	-3.15	-10.64	-0.1205	-0.4138	-0.1654	
0.036966	1.0919	-0.068564	28.63	-0.7	-8.19	-0.1234	-0.4153	-0.1608	
0.0305	1.085434	-0.080154	24.71	-2.94	-7.63	-0.1176	-0.4155	-0.1547	
0.01586	1.088362	-0.084912	21.63	-0.35	-7.98	-0.1176	-0.417	-0.1517	
-0.004514	1.087874	-0.106018	20.58	-0.56	-6.65	-0.12	-0.4307	-0.1593	
0.011956	1.0858	-0.135298	17.64	-4.76	-5.53	-0.1221	-0.4154	-0.144	
0.014518	1.098122	-0.12993	14.49	-7.21	-3.01	-0.1144	-0.4294	-0.1425	
0.014762	1.101782	-0.129442	10.78	-5.32	-0.28	-0.123	-0.4322	-0.1409	
0.003538	1.12484	-0.13176	6.37	-5.67	-0.35	-0.1276	-0.4228	-0.1485	
0.027328	1.117398	-0.100406	1.05	-6.02	-0.98	-0.1172	-0.4309	-0.144	
0.077592	1.042368	-0.07259	-3.64	-3.78	-1.26	-0.1217	-0.4292	-0.1379	
0.0732	1.00406	-0.07515199	-2.1	-2.17	-0.14	-0.1234	-0.4199	-0.1394	
0.042578	1.024678	-0.091012	2.17	-0.84	0.98	-0.1232	-0.4276	-0.1379	
0.03599	1.06079	-0.093208	4.55	1.89	2.87	-0.1229	-0.4368	-0.1378	
0.037088	1.058228	-0.092964	3.78	2.94	2.31	-0.116	-0.4279	-0.1318	
0.027328	1.042246	-0.113338	1.4	3.08	0.98	-0.129	-0.4259	-0.1424	
0.022082	1.050908	-0.101748	0.42	4.13	0.7	-0.1072	-0.4266	-0.1487	
0.024156	1.053348	-0.083082	-0.42	4.34	0.7	-0.1247	-0.4214	-0.1485	
0.028792	1.095926	-0.07747	0.63	-0.7	1.33	-0.1188	-0.4293	-0.141	
0.041114	1.077016	-0.079178	-2.59	-0.35	2.1	-0.1232	-0.4276	-0.1363	
0.045994	1.06323	-0.080276	-5.32	-0.28	2.17	-0.1186	-0.4308	-0.1486	
0.03965	1.084824	-0.080154	-5.95	-0.91	2.8	-0.1244	-0.4306	-0.147	
0.027084	1.105198	-0.086254	-9.17	-1.54	3.92	-0.1144	-0.4279	-0.1486	
0.04514	1.08336	-0.080642	-14.21	-0.91	5.81	-0.125	-0.4153	-0.1455	
0.062464	1.066524	-0.059292	-16.59	0.98	7.63	-0.1218	-0.4246	-0.144	
0.054412	1.090192	-0.059414	-17.64	2.73	9.1	-0.1246	-0.4276	-0.1424	
0.053558	1.108858	-0.06466	-19.6	3.99	10.36	-0.1234	-0.4215	-0.1394	
0.045872	1.124718	-0.066246	-21.63	4.41	11.34	-0.1232	-0.4245	-0.147	
0.049776	1.125572	-0.047458	-24.01	4.9	11.34	-0.1215	-0.4291	-0.1608	
0.053924	1.11447	-0.055754	-25.2	4.06	10.78	-0.132	-0.4196	-0.1531	
0.061488	1.07787	-0.049898	-28.49	5.25	10.85	-0.1335	-0.4149	-0.1546	
0.060878	1.125938	-0.047214	-28.21	4.9	12.11	-0.1319	-0.4149	-0.1745	
0.073688	1.061766	0.001342	-32.13	8.68	11.69	-0.135	-0.4118	-0.1668	
0.090524	1.019066	0.01159	-29.68	8.75	16.59	-0.1338	-0.4011	-0.1791	
0.019886	1.124108	-0.03538	-30.31	9.52	21.07	-0.1397	-0.3963	-0.1836	
0.05795	1.078724	-0.006588	-35.84	8.05	21.56	-0.1368	-0.3902	-0.1974	
0.085522	1.016748	0.017934	-36.26	6.37	19.11	-0.1422	-0.4069	-0.1805	
0.09699	1.032486	0.024644	-33.81	7	15.54	-0.1426	-0.3931	-0.1897	
0.0671	1.05774	0.017202	-32.69	10.5	15.96	-0.1443	-0.3807	-0.2034	
0.05917	1.064816	0.005002	-34.23	9.66	18.55	-0.1497	-0.3912	-0.2049	
0.055998	1.089948	-0.005368	-37.59	7	21.14	-0.1488	-0.3775	-0.2034	
0.065758	1.070916	0.002318	-43.47	7.91	22.89	-0.1486	-0.379	-0.2187	
0.092964	1.040416	0.044896	-48.44	9.73	26.32	-0.1505	-0.3636	-0.2233	
0.109068	1.020774	0.075518	-50.82	9.24	28.63	-0.1503	-0.3651	-0.2324	
0.128222	1.007354	0.108336	-49.7	10.99	28.7	-0.1548	-0.3588	-0.2446	
0.162138	0.983808	0.13359	-48.44	13.86	27.23	-0.1463	-0.356	-0.2356	
0.169092	0.987468	0.132126	-48.37	17.22	24.64	-0.1565	-0.348	-0.2507	
0.172264	0.995642	0.127612	-50.12	19.95	22.12	-0.1597	-0.3387	-0.2523	
0.160674	1.016016	0.127368	-54.32	21	22.33	-0.1612	-0.334	-0.2599	
0.142496	1.018212	0.17995	-64.4	15.96	27.09	-0.1542	-0.325	-0.2722	
0.136884	0.988932	0.20313	-70.49	7.42	33.46	-0.163	-0.317	-0.2874	
0.146888	0.98271	0.180194	-73.99	-2.66	41.02	-0.1704	-0.3106	-0.2843	
0.174826	0.985028	0.202398	-76.86	-4.69	43.33	-0.1624	-0.2879	-0.2921	
0.20557	0.956846	0.226554	-81.2	-3.22	43.75	-0.1771	-0.2781	-0.3026	
0.233386	0.91561	0.244244	-86.52	-4.41	44.59	-0.1862	-0.264	-0.3087	
0.250954	0.883646	0.279014	-90.79	-6.65	45.64	-0.1904	-0.2623	-0.3239	
0.264008	0.84119	0.315248	-92.68	-5.81	47.88	-0.1867	-0.2456	-0.3164	
0.282186	0.803126	0.332938	-93.66	-3.99	49.35	-0.1887	-0.224	-0.3347	
0.299388	0.764208	0.370636	-95.41	1.47	49.21	-0.1965	-0.2068	-0.3377	
0.312808	0.702354	0.403698	-95.76	2.73	49.35	-0.2089	-0.1803	-0.3407	
0.32208	0.649528	0.42334	-95.83	2.38	50.33	-0.2089	-0.1772	-0.3469	
0.338184	0.615002	0.454572	-96.67	1.12	52.29	-0.2038	-0.1544	-0.3531	
0.346846	0.584868	0.485438	-95.48	2.31	55.79	-0.204	-0.1467	-0.3592	
0.379298	0.538142	0.532774	-88.13	14.98	43.19	-0.2091	-0.1251	-0.3531	
0.292556	0.535458	0.522404	-111.72	-16.03	50.33	-0.2067	-0.1098	-0.3639	
0.338916	0.361486	0.581452	-100.38	1.19	42.21	-0.2201	-0.094	-0.3668	
0.357338	0.342576	0.607194	-99.33	4.2	31.5	-0.218	-0.0711	-0.3684	
0.389912	0.300974	0.661362	-101.36	-2.87	39.2	-0.2115	-0.0514	-0.3655	
0.413946	0.27267	0.694546	-99.61	2.38	44.1	-0.2148	-0.0359	-0.3701	
0.431758	0.212036	0.7259	-97.93	2.38	41.44	-0.2239	-0.0233	-0.3685	
0.442128	0.181048	0.744566	-94.78	1.4	38.85	-0.2199	-0.0127	-0.3716	
0.453474	0.18178	0.78019	-89.74	0.28	38.36	-0.2252	0.0165	-0.3762	
0.466284	0.169824	0.812154	-85.68	1.26	36.12	-0.2171	0.033	-0.3717	
0.479216	0.125538	0.829112	-85.05	0.21	34.44	-0.2171	0.0346	-0.3733	
0.484096	0.087352	0.831064	-80.99	2.52	32.76	-0.2208	0.0577	-0.3779	
0.486048	0.062098	0.850218	-75.95	4.97	26.95	-0.2186	0.07759999	-0.3688	
0.483608	0.019398	0.85644	-73.29	5.74	25.55	-0.2145	0.0835	-0.3688	
0.485072	-0.016714	0.85278	-71.4	4.83	24.43	-0.209	0.091	-0.3674	
0.489952	-0.049898	0.86437	-69.51	4.83	22.54	-0.2107	0.1018	-0.372	
0.493856	-0.076006	0.882914	-66.15	5.46	21.49	-0.2129	0.1233	-0.3689	
0.500932	-0.090402	0.910242	-58.17	4.2	18.97	-0.2036	0.1445	-0.363	
0.507398	-0.081496	0.917806	-52.5	2.59	18.34	-0.2108	0.1447	-0.3599	
0.514962	-0.068076	0.92842	-48.16	2.87	16.8	-0.1997	0.1519	-0.3432	
0.513132	-0.086986	0.929274	-46.55	3.08	16.1	-0.2028	0.1613	-0.3539	
0.51057	-0.107116	0.93452	-44.03	3.5	14.63	-0.2047	0.1736	-0.3462	
0.503982	-0.11529	0.944524	-40.25	3.85	13.51	-0.1946	0.1717	-0.3433	
0.51118	-0.12932	0.952698	-35.63	3.29	12.11	-0.192	0.1823	-0.3494	
0.518256	-0.134444	0.962702	-31.22	3.5	10.85	-0.1983	0.1948	-0.3326	
0.516182	-0.150304	0.955016	-26.74	5.88	7.07	-0.2026	0.1934	-0.3326	
0.506666	-0.142496	0.945256	-22.05	5.6	3.71	-0.1982	0.1933	-0.3433	
0.50203	-0.121756	0.944524	-18.13	5.04	4.06	-0.2031	0.2088	-0.3326	
0.510448	-0.129808	0.950136	-14.84	5.25	2.52	-0.1997	0.1964	-0.3433	
0.511424	-0.135542	0.960628	-11.62	4.13	2.87	-0.1972	0.2024	-0.3265	
0.502396	-0.145668	0.959652	-9.17	2.8	1.33	-0.1859	0.2112	-0.3328	
0.498492	-0.1525	0.966484	-4.9	3.57	0.98	-0.1875	0.219	-0.3374	
0.493368	-0.159576	0.965508	-0.91	3.01	-0.07	-0.1943	0.2054	-0.3327	
0.484828	-0.142496	0.951478	5.81	1.61	-2.66	-0.1858	0.2081	-0.3328	
0.486414	-0.149694	0.950624	9.59	0.49	-4.06	-0.1884	0.2006	-0.3312	
0.498858	-0.151768	0.957212	13.09	-1.05	-5.6	-0.1828	0.2081	-0.3374	
0.507886	-0.160796	0.962702	16.38	-0.84	-7.21	-0.1972	0.207	-0.3418	
0.503738	-0.157746	0.961604	20.93	-2.03	-8.75	-0.1927	0.1992	-0.3357	
0.499346	-0.148474	0.956724	24.78	-1.54	-10.71	-0.194	0.1977	-0.3434	
0.505812	-0.147986	0.955626	29.4	-1.54	-12.32	-0.1967	0.1901	-0.3372	
0.505324	-0.130418	0.95648	34.09	-2.31	-14.49	-0.1967	0.1917	-0.3418	
0.504836	-0.11651	0.958554	39.41	-2.8	-16.59	-0.1847	0.1806	-0.3541	
0.503372	-0.104432	0.95099	44.31	-2.87	-19.32	-0.1948	0.1794	-0.3448	
0.498126	-0.086132	0.940742	48.65	-2.59	-21.49	-0.1918	0.1762	-0.3494	
0.496418	-0.07515199	0.928786	52.43	-4.69	-24.78	-0.1902	0.17	-0.3449	
0.500444	-0.04697	0.9211	58.38	-2.59	-24.71	-0.204	0.1552	-0.3569	
0.494588	-0.024522	0.911462	61.39	-4.55	-28.14	-0.1992	0.1397	-0.3493	
0.482876	-0.009272	0.89731	65.1	-2.87	-31.29	-0.2034	0.1368	-0.3569	
0.463478	0.02623	0.870958	71.05	-1.75	-35.84	-0.2038	0.1092	-0.3659	
0.459818	0.066002	0.846802	74.41	-2.59	-37.38	-0.2063	0.097	-0.3613	
0.451156	0.119072	0.821182	78.19	-2.52	-37.87	-0.2045	0.0878	-0.372	
0.43737	0.157258	0.808494	79.45	-2.66	-38.85	-0.211	0.065	-0.3719	
0.42761	0.16775	0.8052	81.55	-0.35	-42.21	-0.2091	0.0542	-0.3795	
0.419924	0.192882	0.789706	83.79	0.28	-45.29	-0.2186	0.0377	-0.3794	
0.420656	0.25376	0.777872	84.56	-3.43	-44.31	-0.2143	0.0376	-0.3779	
0.414556	0.303292	0.756034	85.68	-2.8	-43.4	-0.2164	0.0116	-0.3747	
0.40321	0.296704	0.736392	85.4	0.14	-43.26	-0.2099	-0.0085	-0.3732	
0.404796	0.298168	0.719922	88.41	2.17	-43.54	-0.2137	-0.0221	-0.3808	
0.396744	0.322324	0.700402	91.98	2.87	-43.75	-0.205	-0.0271	-0.3702	
0.387228	0.357948	0.670634	95.06	4.27	-44.8	-0.2232	-0.0479	-0.3608	
0.369904	0.419192	0.638792	96.25	1.96	-43.89	-0.2124	-0.0651	-0.3685	
0.348066	0.471652	0.597312	95.9	2.03	-42.35	-0.2102	-0.0882	-0.37	
0.332206	0.517646	0.556198	94.43	-1.05	-41.93	-0.2068	-0.1037	-0.37	
0.311954	0.549366	0.518134	95.69	0.7	-43.61	-0.2017	-0.1284	-0.3608	
0.269986	0.578158	0.458232	98.63	5.88	-43.61	-0.2072	-0.1389	-0.3577	
0.249734	0.611464	0.424682	96.6	0.28	-43.89	-0.2041	-0.1452	-0.3531	
0.242658	0.687836	0.429562	98.56	-7.07	-44.24	-0.2005	-0.1699	-0.35	
0.243146	0.719678	0.404186	95.83	-5.88	-41.51	-0.1897	-0.1902	-0.3455	
0.24339	0.719922	0.377834	91.98	-8.12	-40.67	-0.2024	-0.202	-0.3408	
0.238266	0.779336	0.370758	97.3	-5.18	-38.15	-0.192	-0.2147	-0.324	
0.220332	0.815814	0.321348	97.58	-8.05	-41.16	-0.193	-0.2285	-0.3194	
0.191662	0.861198	0.288774	98.07	-7.07	-35.98	-0.1884	-0.2394	-0.3179	
0.17019	0.902922	0.246928	95.9	-2.17	-32.34	-0.1818	-0.2657	-0.3118	
0.168116	0.933788	0.217648	91.56	-3.01	-33.18	-0.1775	-0.2674	-0.2981	
0.177144	0.947696	0.197762	86.8	-2.38	-34.79	-0.1797	-0.2934	-0.2827	
0.210694	0.943792	0.19703	93.59	14.7	-49.77	-0.1722	-0.3013	-0.2843	
0.131394	0.994788	0.130784	68.18	-7.28	-57.26	-0.1789	-0.318	-0.2735	
0.117486	1.033218	0.12322	43.75	-35.14	-44.8	-0.1601	-0.3233	-0.2676	
0.124562	1.029314	0.139202	45.15	-34.93	-38.57	-0.1526	-0.3328	-0.2585	
0.119804	1.037	0.109556	57.05	-18.9	-39.41	-0.1553	-0.3388	-0.2615	
0.096136	1.058716	0.076494	62.3	-1.54	-32.41	-0.1566	-0.3465	-0.2416	
0.096502	1.057862	0.057706	61.6	2.8	-24.78	-0.1533	-0.365	-0.2293	
0.084302	1.083604	0.047458	62.86	7.98	-17.92	-0.1518	-0.3666	-0.2217	
0.086986	1.096658	0.034892	58.94	11.83	-11.9	-0.1472	-0.3744	-0.2248	
0.10126	1.111176	0.034282	49.84	5.95	-11.13	-0.1413	-0.3823	-0.2157	
0.08686399	1.101416	0.021106	39.2	2.17	-14.77	-0.1458	-0.3822	-0.1988	
0.07686	1.087386	0.01159	32.06	1.26	-17.36	-0.1427	-0.3854	-0.2065	
0.084668	1.0736	0.023668	27.72	0.28	-16.73	-0.1369	-0.3871	-0.2004	
0.093208	1.03029	0.023424	24.15	4.9	-15.05	-0.1341	-0.3888	-0.1898	
0.104432	0.999912	0.030744	17.22	0.91	-3.57	-0.125	-0.4029	-0.1868	
0.098698	0.96685	0.008784	14.35	1.19	6.58	-0.1409	-0.3993	-0.1912	
0.08235	0.972706	-0.025254	23.24	4.83	2.38	-0.1352	-0.3995	-0.1882	
0.056364	1.053592	-0.02989	34.09	8.75	-2.38	-0.1346	-0.4194	-0.1805	
0.0244	1.125328	-0.04331	31.78	6.65	-5.39	-0.1336	-0.4057	-0.1806	
0.028304	1.128134	-0.053314	22.47	2.24	-8.4	-0.1233	-0.4091	-0.1883	
0.054534	1.11386	-0.035014	16.94	-1.96	-9.17	-0.1249	-0.4091	-0.1684	
0.055144	1.128622	-0.027816	16.45	-3.5	-6.23	-0.1246	-0.4183	-0.1715	
0.063684	1.115568	-0.038064	11.62	-4.06	-5.67	-0.1204	-0.4123	-0.1761	
0.074786	1.1163	-0.033794	10.08	-3.85	-6.44	-0.132	-0.4119	-0.1714	
0.05063	1.125206	-0.039406	8.19	-1.68	-7.7	-0.1275	-0.4182	-0.1714	
0.05063	1.126304	-0.034648	5.11	-0.63	-8.68	-0.1248	-0.4152	-0.1669	
0.05795	1.0919	-0.04331	0.77	-1.4	-8.82	-0.1205	-0.4138	-0.1624	
0.063562	1.087752	-0.038796	-1.4	-1.96	-7.14	-0.1172	-0.4247	-0.1715	
0.068198	1.072868	-0.029646	-3.36	-0.77	-4.2	-0.1217	-0.4215	-0.1654	
0.057828	1.069818	-0.024766	-3.57	0.07	-2.52	-0.1117	-0.4188	-0.1609	
0.048434	1.071404	-0.028548	-3.36	1.05	-1.96	-0.1247	-0.4168	-0.1638	
0.047946	1.065182	-0.0305	-4.97	2.1	-1.75	-0.1275	-0.4197	-0.1653	
0.042334	1.0492	-0.027572	-6.65	2.94	-0.77	-0.11	-0.4234	-0.1716	
0.03355	1.061644	-0.027206	-6.51	1.68	1.05	-0.1232	-0.4168	-0.173	
0.033062	1.06811	-0.020008	-8.33	0.98	2.66	-0.1204	-0.4154	-0.173	
0.041724	1.055544	-0.019398	-10.92	0.28	3.15	-0.1229	-0.4276	-0.1638	
0.038674	1.070672	-0.019642	-12.25	-0.49	4.13	-0.1219	-0.4138	-0.173	
0.04575	1.08092	-0.02135	-13.86	0.14	5.25	-0.1221	-0.4061	-0.1776	
0.049044	1.098366	-0.019276	-16.24	0.49	6.09	-0.1193	-0.4031	-0.1746	
0.054778	1.106906	-0.007564	-19.11	0.77	7	-0.1291	-0.4135	-0.176	
0.057218	1.090924	-0.003416	-22.12	1.75	7.77	-0.1176	-0.4093	-0.1838	
0.052338	1.08702	-0.005612	-23.17	1.68	8.75	-0.128	-0.3982	-0.1837	
0.037332	1.123986	-0.015372	-23.45	1.19	9.73	-0.1321	-0.4057	-0.1913	
0.033916	1.151314	-0.016226	-27.58	2.1	11.76	-0.1265	-0.3982	-0.1914	
0.02989	1.14436	-0.005856	-33.6	2.38	14.14	-0.1295	-0.3951	-0.1959	
0.044164	1.091412	0.015372	-39.62	2.03	16.24	-0.1265	-0.3967	-0.2005	
0.056608	1.05225	0.035258	-40.81	0.56	17.29	-0.1369	-0.3871	-0.2035	
0.065636	1.054324	0.0427	-40.11	0.35	18.69	-0.1398	-0.3855	-0.2111	
0.07515199	1.053592	0.054778	-40.6	1.19	19.46	-0.1398	-0.3839	-0.2111	
0.091012	1.04188	0.072102	-41.93	3.22	19.11	-0.141	-0.39	-0.2157	
0.092842	1.01687	0.084546	-43.19	4.76	18.69	-0.1415	-0.3731	-0.2264	
0.096624	0.993934	0.101138	-44.73	5.67	20.65	-0.1474	-0.3667	-0.234	
0.10309	0.98881	0.11163	-45.78	5.32	23.66	-0.1415	-0.3715	-0.2325	
0.113216	0.991738	0.12871	-46.2	6.23	25.34	-0.1388	-0.3593	-0.2524	
0.105408	1.009306	0.127978	-48.02	6.02	27.65	-0.1567	-0.3434	-0.2477	
0.106628	1.038098	0.142252	-50.75	4.62	29.96	-0.1509	-0.3436	-0.2523	
0.116022	1.033096	0.141642	-55.65	4.48	32.27	-0.1627	-0.3309	-0.2614	
0.131882	1.018822	0.165676	-59.36	4.34	34.79	-0.157	-0.3311	-0.263	
0.140422	0.99918	0.186294	-61.95	6.3	35.28	-0.1602	-0.3187	-0.2645	
0.14823	0.999424	0.203984	-62.79	6.72	34.79	-0.1631	-0.3155	-0.2767	
0.154696	0.998204	0.216306	-66.29	6.3	35.07	-0.1618	-0.3094	-0.2844	
0.171166	0.976122	0.232166	-70.56	4.2	36.12	-0.1694	-0.2953	-0.2905	
0.192638	0.954528	0.268766	-73.64	2.87	37.24	-0.1741	-0.2859	-0.292	
0.210816	0.92537	0.294752	-76.09	0	38.92	-0.1746	-0.2675	-0.3027	
0.226798	0.89914	0.314272	-78.4	-3.85	40.53	-0.1746	-0.2659	-0.3088	
0.245708	0.890356	0.330498	-79.24	-5.67	42.7	-0.1912	-0.2408	-0.3133	
0.260836	0.837286	0.366244	-78.47	-5.11	41.44	-0.1825	-0.2426	-0.3179	
0.291702	0.774334	0.369172	-77.56	-1.82	41.02	-0.1813	-0.2304	-0.3333	
0.290238	0.71797	0.411994	-79.45	5.67	42.28	-0.1939	-0.1977	-0.3363	
0.280844	0.690642	0.406748	-79.31	5.39	41.51	-0.1915	-0.1794	-0.3501	
0.293532	0.639646	0.43493	-84.28	4.06	40.53	-0.2047	-0.1743	-0.3408	
0.311466	0.586576	0.476166	-88.69	0.91	47.11	-0.2067	-0.1574	-0.3454	
0.328058	0.528016	0.502762	-91.7	2.73	48.09	-0.2156	-0.1463	-0.356	
0.333182	0.480436	0.536068	-87.57	4.2	46.34	-0.2061	-0.1252	-0.3653	
0.367342	0.462746	0.572546	-82.95	6.3	44.24	-0.2068	-0.1037	-0.373	
0.375882	0.444934	0.59292	-84.28	10.5	43.68	-0.2027	-0.0961	-0.3731	
0.392108	0.39894	0.628544	-86.52	13.72	41.02	-0.2089	-0.0852	-0.3639	
0.389546	0.396134	0.674416	-89.81	5.25	46.34	-0.2053	-0.0654	-0.3594	
0.416752	0.346968	0.714066	-93.38	10.43	37.45	-0.2087	-0.0453	-0.3732	
0.447496	0.307074	0.75518	-89.74	8.12	30.73	-0.212	-0.0314	-0.3808	
0.441762	0.333548	0.776042	-83.72	9.73	32.69	-0.2068	-0.0147	-0.3763	
0.431026	0.304146	0.798978	-80.92	11.62	34.79	-0.2027	-0.0057	-0.3825	
0.424194	0.254248	0.800442	-79.38	11.41	32.34	-0.1988	0.0048	-0.3764	
0.413458	0.222406	0.80825	-72.59	10.78	27.23	-0.1977	0.014	-0.3765	
0.404674	0.180804	0.818498	-70	8.96	26.46	-0.203	0.0417	-0.3734	
0.40321	0.141764	0.823988	-69.09	4.55	25.9	-0.2033	0.054	-0.375	
0.411994	0.105164	0.823134	-66.57	6.44	23.24	-0.1948	0.0568	-0.369	
0.438346	0.078934	0.855098	-65.17	-0.84	24.71	-0.192	0.0598	-0.3736	
0.434686	0.073688	0.857782	-61.95	2.38	24.78	-0.1945	0.09209999	-0.3797	
0.444812	0.07625	0.870348	-58.45	0.14	24.36	-0.1986	0.0876	-0.3812	
0.451034	0.082716	0.884256	-56	0.42	22.19	-0.1934	0.1012	-0.3721	
0.460184	0.071004	0.897432	-53.97	1.89	21.98	-0.1862	0.1025	-0.3768	
0.456524	0.04453	0.896456	-53.9	1.4	20.79	-0.1896	0.1164	-0.3722	
0.452986	0.025254	0.89792	-52.92	0.21	19.95	-0.1901	0.1286	-0.3616	
0.456768	-0.007076	0.905362	-49.42	0.35	17.5	-0.1903	0.1348	-0.3631	
0.456524	-0.005612	0.899994	-44.73	1.61	13.58	-0.1919	0.141	-0.3661	
0.459574	-0.000244	0.894992	-41.79	1.75	11.97	-0.1822	0.1498	-0.3586	
0.464332	-0.002806	0.912316	-42.77	-0.77	14.91	-0.184	0.1622	-0.3586	
0.468968	-0.033794	0.931348	-41.65	-1.47	14.63	-0.1915	0.1701	-0.3525	
0.481412	-0.058316	0.941108	-36.82	-1.54	14.42	-0.1875	0.1791	-0.3495	
0.476654	-0.063928	0.951478	-34.23	-0.7	13.23	-0.1792	0.188	-0.3465	
0.47214	-0.081374	0.945988	-30.66	1.26	11.06	-0.1938	0.1916	-0.3433	
0.480192	-0.084058	0.947696	-26.39	0.77	10.08	-0.1921	0.187	-0.3525	
0.483486	-0.092842	0.954894	-22.89	1.54	8.68	-0.1807	0.1881	-0.3435	
0.482022	-0.110776	0.96746	-18.83	2.1	7.35	-0.1826	0.2035	-0.3435	
0.478484	-0.113704	0.96319	-14.63	1.96	5.46	-0.1825	0.1989	-0.3419	
0.476654	-0.11285	0.95526	-11.41	2.52	3.29	-0.1855	0.2036	-0.3419	
0.4758	-0.11834	0.957578	-8.33	2.52	1.4	-0.1872	0.2082	-0.3343	
0.470676	-0.145912	0.959164	-5.53	2.31	-0.63	-0.1887	0.2113	-0.3434	
0.469212	-0.158966	0.9638	-1.26	0.56	-2.31	-0.1914	0.2053	-0.3388	
0.46848	-0.171166	0.95953	2.87	-0.35	-3.71	-0.1726	0.2046	-0.3451	
0.473848	-0.160064	0.963068	6.37	-1.82	-4.48	-0.1855	0.2036	-0.3465	
0.47336	-0.14945	0.972096	10.01	-2.03	-5.74	-0.1797	0.2034	-0.3466	
0.474458	-0.159088	0.980026	13.23	-1.75	-7.91	-0.1901	0.2114	-0.3434	
0.490928	-0.179828	0.99308	19.18	-2.94	-10.92	-0.1799	0.2064	-0.342	
0.49959	-0.170556	1.002596	24.64	-3.78	-12.6	-0.1869	0.2005	-0.345	
0.500444	-0.168726	0.993934	29.4	-1.89	-14.91	-0.1808	0.1911	-0.3419	
0.489586	-0.162992	0.980758	35.07	-0.56	-17.08	-0.1923	0.19	-0.3418	
0.479704	-0.147132	0.969778	40.46	-0.49	-19.04	-0.1964	0.1887	-0.3571	
0.475556	-0.122854	0.96929	45.99	-1.68	-21.28	-0.1918	0.1747	-0.3464	
0.479094	-0.09028	0.962458	50.75	-2.31	-23.73	-0.2001	0.1704	-0.3616	
0.48678	-0.084424	0.968192	55.37	-2.66	-26.6	-0.1853	0.1545	-0.3525	
0.487024	-0.072712	0.963312	60.48	-2.59	-28.35	-0.1955	0.1564	-0.3478	
0.47336	-0.051972	0.936472	66.29	-3.64	-31.08	-0.1933	0.1395	-0.36	
0.465308	-0.023668	0.91134	70.63	-5.81	-31.29	-0.1899	0.1271	-0.3707	
0.451766	0.007564	0.876936	76.23	-4.55	-33.11	-0.2012	0.1183	-0.3675	
0.44103	0.037088	0.853146	78.26	-5.39	-33.32	-0.1979	0.1059	-0.3691	
0.436028	0.065392	0.841434	80.08	-6.44	-31.29	-0.2062	0.0955	-0.3735	
0.433222	0.09857599	0.823256	83.58	-6.23	-32.97	-0.2044	0.0847	-0.3735	
0.418826	0.150426	0.79117	86.17	-4.27	-36.61	-0.2022	0.0647	-0.3796	
0.405284	0.220332	0.76494	86.59	-5.04	-35.35	-0.2101	0.0374	-0.3703	
0.40443	0.225578	0.752862	86.52	-5.46	-33.74	-0.2151	0.0192	-0.3778	
0.39589	0.241194	0.740662	88.06	-5.74	-36.96	-0.2074	0.0067	-0.387	
0.387472	0.27694	0.719556	90.72	-3.64	-40.88	-0.2082	-0.0162	-0.3824	
0.371002	0.324886	0.688568	92.54	-2.73	-38.43	-0.2137	-0.0283	-0.367	
0.360998	0.35929	0.66063	91.77	-2.31	-37.24	-0.21	-0.0499	-0.3747	
0.36234	0.387838	0.647088	90.86	-4.48	-36.61	-0.2128	-0.0529	-0.3716	
0.360754	0.41907	0.624274	92.96	-1.96	-35.84	-0.202	-0.0747	-0.3716	
0.371612	0.457134	0.609756	96.04	-1.4	-36.89	-0.2086	-0.0929	-0.373	
0.36173	0.510936	0.568642	98.91	-6.09	-32.69	-0.208	-0.1128	-0.3669	
0.315736	0.579134	0.475556	99.82	1.47	-34.72	-0.2006	-0.1162	-0.37	
0.27877	0.61183	0.432612	92.54	-5.6	-38.92	-0.1999	-0.1392	-0.3684	
0.267424	0.658922	0.437126	93.45	-6.44	-40.46	-0.2068	-0.1528	-0.3515	
0.271694	0.699914	0.426024	89.25	-10.36	-38.85	-0.2005	-0.1668	-0.3561	
0.293776	0.684054	0.410408	87.36	-12.53	-39.48	-0.2001	-0.1837	-0.3424	
0.258884	0.70577	0.351238	90.44	-6.86	-37.87	-0.2083	-0.1972	-0.3453	
0.249612	0.7564	0.3477	95.2	-10.64	-37.24	-0.1922	-0.2055	-0.3317	
0.278038	0.807396	0.35136	99.19	-10.5	-37.73	-0.2002	-0.2313	-0.3178	
0.27633	0.874008	0.30805	105.56	-0.84	-38.01	-0.1955	-0.2437	-0.3132	
0.250588	0.853756	0.225456	100.45	1.82	-41.44	-0.1894	-0.2547	-0.3041	
0.228872	0.875228	0.182878	95.9	-2.52	-37.38	-0.1847	-0.2671	-0.2965	
0.208498	0.947818	0.165188	94.29	-4.48	-33.67	-0.187	-0.2901	-0.2857	
0.157746	1.010892	0.130784	94.22	-1.47	-32.13	-0.1809	-0.3026	-0.2766	
0.163236	1.019676	0.122	86.87	-1.12	-31.85	-0.1691	-0.3107	-0.266	
0.183488	0.991494	0.129808	80.57	-0.98	-31.01	-0.1673	-0.3246	-0.2599	
0.183244	0.97234	0.100406	77.84	-2.03	-30.24	-0.1653	-0.343	-0.2583	
0.158722	1.001254	0.047702	75.6	-4.76	-30.73	-0.1684	-0.3384	-0.243	
0.142008	1.043466	0.02379	71.68	-4.06	-28.7	-0.1607	-0.3555	-0.2339	
0.144814	1.040172	0.021228	67.76	-2.59	-28.14	-0.1666	-0.3569	-0.2201	
0.13115	1.056032	0.004148	60.83	-1.61	-25.2	-0.1546	-0.3711	-0.2156	
0.122366	1.077138	-0.000854	56.56	-1.96	-26.25	-0.1604	-0.3771	-0.1956	
0.124074	1.086532	-0.02684	46.13	-6.93	-20.16	-0.1516	-0.3836	-0.1911	
0.117974	1.085556	-0.045628	46.2	-3.5	-17.22	-0.1511	-0.3974	-0.1942	
0.115656	1.118618	-0.052704	38.92	-10.08	-17.43	-0.1466	-0.4037	-0.1866	
0.113704	1.139236	-0.049776	35.28	-6.09	-16.8	-0.1483	-0.396	-0.182	
0.10858	1.098732	-0.06405	30.1	0.63	-17.5	-0.1452	-0.4068	-0.1743	
0.099918	1.078236	-0.072712	28.98	3.08	-18.62	-0.1454	-0.3991	-0.1805	
0.076616	1.07482	-0.091134	26.6	1.33	-17.92	-0.1365	-0.4102	-0.1637	
0.081252	1.084336	-0.074176	22.19	-3.71	-16.94	-0.1278	-0.4121	-0.1608	
0.082106	1.070672	-0.07991	19.81	-0.49	-16.03	-0.1392	-0.4178	-0.1591	
0.064172	1.062864	-0.090158	18.55	-0.14	-16.59	-0.1394	-0.4101	-0.1606	
0.061	1.083482	-0.082594	17.36	-1.54	-16.1	-0.1262	-0.4183	-0.1562	
0.057584	1.072258	-0.092232	14.63	-2.38	-15.89	-0.1245	-0.426	-0.1546	
0.056852	1.082262	-0.086986	13.72	-4.62	-16.52	-0.1185	-0.4308	-0.1608	
0.05978	1.094462	-0.086498	10.92	-5.67	-16.24	-0.1145	-0.4248	-0.1471	
0.05551	1.10044	-0.084912	7.77	-5.6	-15.82	-0.1204	-0.4216	-0.1486	
0.045262	1.094096	-0.097722	4.97	-4.13	-13.44	-0.1187	-0.4308	-0.1455	
0.041236	1.099952	-0.104798	1.54	-4.06	-10.08	-0.1232	-0.4276	-0.1379	
0.050142	1.090314	-0.09089	-1.47	-4.34	-9.17	-0.1129	-0.4295	-0.1456	
0.044896	1.070306	-0.09028	-2.52	-3.01	-7.07	-0.1101	-0.4311	-0.1349	
0.043432	1.084946	-0.09272	-2.87	-2.17	-4.48	-0.1174	-0.4247	-0.1532	
0.034282	1.10288	-0.09394	-5.53	-2.1	0	-0.1086	-0.4296	-0.1487	
0.015982	1.103368	-0.104432	-14.14	-7.28	5.32	-0.1145	-0.4264	-0.1425	
0.033672	1.096048	-0.09699	-20.86	-6.58	8.05	-0.0955	-0.4347	-0.1366	
0.024156	1.092876	-0.074298	-29.96	-18.97	-4.2	-0.1147	-0.4202	-0.1471	
0.016958	1.086898	-0.060024	-32.13	-21.7	-1.05	-0.1234	-0.4138	-0.1593	
0.024766	1.076406	-0.055266	-23.73	-10.43	5.88	-0.1131	-0.4203	-0.1563	
0.028548	1.07482	-0.041846	-14.49	-0.49	7	-0.1174	-0.4201	-0.1593	
0.0305	1.070306	-0.034282	-12.32	0.84	3.36	-0.1161	-0.4171	-0.1578	
0.044164	1.04676	-0.022448	-12.74	0.84	4.2	-0.1233	-0.4153	-0.1669	
0.07381	1.037854	0.015006	-16.03	-5.11	23.8	-0.1319	-0.4134	-0.1775	
0.03599	1.044198	-0.008417999	-8.96	2.1	-1.75	-0.1265	-0.406	-0.1638	
0.047092	1.052128	0.000366	-19.81	-1.47	17.22	-0.1289	-0.4166	-0.1775	
0.05307	1.049444	0.00488	-20.3	-0.63	12.74	-0.1223	-0.4015	-0.1746	
0.062586	1.03761	0.007198	-17.57	4.83	4.76	-0.132	-0.4103	-0.1836	
0.053924	1.050908	0.002562	-19.04	2.94	3.85	-0.1335	-0.4087	-0.179	
0.061854	1.060424	0.011468	-24.5	-3.01	8.19	-0.1279	-0.4028	-0.1822	
0.076494	1.064572	0.022082	-27.58	-3.92	12.04	-0.135	-0.4025	-0.1958	
0.083082	1.062376	0.030256	-27.72	-2.31	15.75	-0.1352	-0.3979	-0.1867	
0.084058	1.070184	0.036356	-27.09	-1.12	18.76	-0.1381	-0.3963	-0.1973	
0.080398	1.083482	0.03782	-25.13	2.94	19.46	-0.1337	-0.398	-0.1928	
0.096136	1.070672	0.054412	-25.2	5.25	19.11	-0.1368	-0.3902	-0.2065	
0.094916	1.055544	0.055388	-27.65	7.91	23.87	-0.1485	-0.3882	-0.1973	
0.092232	1.047248	0.063074	-29.75	3.99	20.23	-0.1415	-0.3808	-0.1958	
0.097722	1.046028	0.06466	-33.11	1.26	20.86	-0.1414	-0.3792	-0.2172	
0.105042	1.056764	0.073078	-35.35	0.49	21.98	-0.1474	-0.3698	-0.2187	
0.107848	1.060546	0.0793	-36.4	-1.26	20.65	-0.153	-0.3727	-0.2248	
0.11407	1.048346	0.081862	-37.31	-0.28	18.69	-0.1561	-0.3695	-0.2186	
0.113704	1.0187	0.09516	-41.44	-0.56	20.86	-0.1491	-0.3636	-0.2187	
0.121268	1.007232	0.108214	-44.24	-1.26	22.68	-0.1592	-0.3602	-0.2308	
0.13054	1.002596	0.128832	-46.62	-2.45	24.08	-0.1669	-0.3415	-0.2384	
0.138836	0.989054	0.140422	-47.18	-2.03	23.73	-0.1564	-0.351	-0.2462	
0.152134	1.007232	0.15738	-44.8	0.07	22.47	-0.164	-0.34	-0.2476	
0.164456	1.010892	0.173118	-42.91	4.62	21.77	-0.1583	-0.3325	-0.263	
0.174826	0.991128	0.18544	-44.87	6.23	23.1	-0.1656	-0.3308	-0.2629	
0.190808	0.987346	0.219112	-46.48	4.34	25.2	-0.1699	-0.3306	-0.2644	
0.199714	0.970022	0.24888	-47.6	3.29	27.44	-0.1748	-0.3166	-0.2613	
0.20435	0.954406	0.26169	-46.97	2.66	26.95	-0.1865	-0.307	-0.2719	
0.220454	0.946354	0.27938	-46.62	1.47	26.25	-0.1821	-0.3102	-0.2735	
0.247782	0.904752	0.300852	-47.18	1.19	25.48	-0.1783	-0.2919	-0.2827	
0.275232	0.883524	0.327204	-45.29	3.36	23.24	-0.1797	-0.2934	-0.2842	
0.278038	0.860588	0.335622	-44.03	5.6	23.24	-0.1914	-0.2838	-0.2918	
0.283772	0.848144	0.343186	-46.13	5.74	27.72	-0.193	-0.2791	-0.301	
0.293898	0.795074	0.37698	-47.74	4.2	33.39	-0.1903	-0.2715	-0.2995	
0.326228	0.720532	0.406748	-47.81	8.47	36.4	-0.2008	-0.2573	-0.3086	
0.349774	0.699426	0.45079	-44.87	13.44	36.47	-0.1956	-0.2422	-0.3087	
0.351482	0.666364	0.471408	-39.76	18.55	36.05	-0.2018	-0.2266	-0.3178	
0.353556	0.654896	0.470066	-35.49	18.13	34.37	-0.1986	-0.2313	-0.3285	
0.381372	0.66978	0.513498	-32.55	14.7	30.66	-0.196	-0.2237	-0.3301	
0.394548	0.650138	0.538264	-33.6	11.55	27.16	-0.2048	-0.2188	-0.3346	
0.387594	0.61061	0.558516	-36.96	10.85	25.69	-0.1993	-0.2098	-0.3331	
0.385764	0.592432	0.581818	-35.42	7.7	24.22	-0.2025	-0.2005	-0.3316	
0.409188	0.583282	0.61061	-33.04	6.09	21.77	-0.1995	-0.2052	-0.3286	
0.438346	0.5734	0.639646	-29.96	5.67	18.06	-0.2057	-0.1912	-0.3301	
0.452864	0.563762	0.654408	-29.26	3.5	17.43	-0.2027	-0.1928	-0.3392	
0.472384	0.587308	0.6832	-20.37	6.72	19.25	-0.1984	-0.1899	-0.3454	
0.49349	0.580964	0.685518	-18.83	6.09	12.74	-0.2055	-0.1927	-0.3469	
0.49227	0.598044	0.67771	-15.89	11.83	7.56	-0.2032	-0.1744	-0.3469	
0.491782	0.597922	0.68442	-15.4	14.98	3.92	-0.206	-0.1773	-0.3438	
0.475922	0.597678	0.672098	-14.42	15.33	2.52	-0.1915	-0.1794	-0.3516	
0.453718	0.627812	0.660996	-13.09	14.14	0.28	-0.196	-0.1777	-0.3409	
0.462746	0.64355	0.65636	-11.9	16.87	-3.5	-0.1946	-0.1716	-0.3485	
0.465186	0.644526	0.655994	-10.85	20.86	-7.84	-0.1876	-0.1657	-0.3563	
0.460428	0.656848	0.661728	-8.4	23.45	-11.97	-0.1848	-0.1627	-0.3578	
0.434686	0.667462	0.652944	-6.72	25.69	-15.26	-0.1892	-0.1595	-0.3593	
0.412116	0.685396	0.64721	-5.53	28.77	-19.11	-0.179	-0.1598	-0.3671	
0.414556	0.702842	0.66002	-4.69	30.45	-23.8	-0.1729	-0.1708	-0.361	
0.40382	0.703452	0.661728	-5.81	33.04	-29.05	-0.1658	-0.1711	-0.3534	
0.379542	0.6893	0.660752	-7.77	37.87	-33.32	-0.1613	-0.1712	-0.3626	
0.354654	0.685884	0.64416	-7.21	40.46	-36.54	-0.1612	-0.1743	-0.3672	
0.33062	0.70455	0.625494	-5.18	41.37	-39.2	-0.1498	-0.1685	-0.3719	
0.317932	0.731024	0.62037	-4.76	42.77	-40.95	-0.1409	-0.1734	-0.3811	
0.295606	0.733464	0.621956	-6.65	44.87	-40.88	-0.134	-0.166	-0.3705	
0.271206	0.736758	0.609878	-8.47	45.78	-41.16	-0.1308	-0.1738	-0.3767	
0.251808	0.763598	0.600728	-9.24	45.85	-42.91	-0.1205	-0.1772	-0.389	
0.219966	0.791414	0.601582	-12.46	48.44	-49.21	-0.0959	-0.1781	-0.3877	
0.19093	0.759206	0.622566	-17.43	51.94	-54.32	-0.0972	-0.1811	-0.3923	
0.150914	0.70516	0.628422	-23.1	54.81	-55.44	-0.0758	-0.1742	-0.3894	
0.11285	0.689666	0.623054	-22.54	53.97	-55.44	-0.0757	-0.1772	-0.391	
0.0854	0.715164	0.63257	-20.09	53.9	-54.81	-0.0558	-0.1687	-0.3942	
0.074786	0.690886	0.655628	-21.28	55.37	-54.74	-0.0442	-0.1691	-0.4004	
0.046116	0.67588	0.654408	-20.86	53.9	-53.55	-0.0316	-0.1573	-0.393	
0.02196	0.70577	0.643672	-18.9	49.07	-52.43	-0.0269	-0.1667	-0.4037	
-0.009272	0.732	0.639402	-17.01	48.3	-51.94	-0.0069	-0.1628	-0.3993	
-0.044652	0.728218	0.625982	-18.06	50.4	-52.36	-0.0074	-0.1474	-0.3963	
-0.081374	0.706258	0.639402	-17.85	49.14	-53.55	0.0088	-0.1603	-0.3964	
-0.10431	0.670512	0.661484	-16.8	42.35	-51.45	0.0171	-0.1498	-0.3981	
-0.148352	0.65392	0.652822	-14.14	37.31	-48.3	0.0312	-0.1381	-0.4059	
-0.19825	0.673562	0.659776	-12.6	32.55	-45.5	0.0288	-0.1533	-0.3966	
-0.214354	0.660142	0.660508	-13.79	30.8	-43.47	0.0527	-0.1342	-0.3984	
-0.249124	0.614392	0.69052	-16.1	26.81	-38.22	0.05	-0.1403	-0.3999	
-0.281088	0.60085	0.697352	-14.14	23.52	-34.02	0.0572	-0.1405	-0.3939	
-0.312686	0.61061	0.711016	-10.71	22.96	-31.99	0.0516	-0.1418	-0.4122	
-0.341722	0.625982	0.721142	-8.75	23.87	-30.31	0.0629	-0.1346	-0.4047	
-0.347944	0.623542	0.724802	-10.57	24.71	-28	0.0597	-0.1253	-0.4062	
-0.344772	0.60634	0.72712	-12.67	23.45	-24.5	0.0727	-0.1257	-0.4109	
-0.336964	0.575962	0.723826	-11.9	23.1	-21.98	0.0743	-0.1319	-0.4017	
-0.354654	0.57523	0.72712	-7.42	24.99	-20.65	0.0772	-0.1305	-0.4063	
-0.388326	0.57462	0.731024	-4.06	27.93	-20.02	0.09869999	-0.1266	-0.4066	
-0.39894	0.55815	0.729682	-3.01	27.86	-18.06	0.0897	-0.1187	-0.4034	
-0.414556	0.553392	0.69845	-3.43	26.32	-16.31	0.1044	-0.1284	-0.399	
-0.43798	0.564738	0.694546	-2.31	23.73	-14	0.0985	-0.1205	-0.4035	
-0.451278	0.569618	0.711016	-1.47	21.28	-12.04	0.1044	-0.1269	-0.4005	
-0.452742	0.561078	0.70211	-2.52	18.41	-10.64	0.1084	-0.1178	-0.396	
-0.424926	0.581818	0.699548	-2.1	15.61	-10.01	0.1089	-0.1301	-0.4036	
-0.44103	0.582672	0.694424	-2.59	17.43	-9.45	0.1115	-0.1225	-0.4036	
-0.462746	0.56791	0.697474	-1.12	15.96	-7.63	0.1214	-0.1152	-0.4068	
-0.468724	0.574254	0.687226	0.49	12.46	-5.6	0.123	-0.1214	-0.3976	
-0.47275	0.597556	0.673928	1.61	10.01	-3.36	0.1285	-0.1139	-0.4008	
-0.474824	0.592066	0.676734	1.75	7.14	-1.96	0.1255	-0.1092	-0.3992	
-0.497638	0.57584	0.683932	1.68	2.73	-0.7	0.1301	-0.1186	-0.3947	
-0.485438	0.581452	0.68442	3.01	-3.71	0.07	0.1284	-0.1139	-0.3931	
-0.47336	0.594994	0.673074	3.71	-7.7	1.61	0.1329	-0.1141	-0.4008	
-0.46909	0.594994	0.678686	3.71	-10.71	3.92	0.1317	-0.1201	-0.4054	
-0.479094	0.597922	0.676978	4.83	-13.72	6.09	0.1157	-0.1211	-0.396	
-0.465064	0.593042	0.696254	5.81	-16.31	7.91	0.1231	-0.126	-0.3961	
-0.470066	0.60756	0.683322	7.7	-18.34	10.64	0.1071	-0.1224	-0.3914	
-0.463722	0.619394	0.676246	8.61	-18.41	12.25	0.1055	-0.1162	-0.4005	
-0.455548	0.624396	0.676246	9.94	-21.28	14.98	0.1118	-0.1348	-0.396	
-0.45018	0.60085	0.66307	8.12	-26.11	18.83	0.1086	-0.1209	-0.4051	
-0.433588	0.599264	0.656848	8.12	-31.64	22.47	0.1002	-0.1313	-0.3974	
-0.4209	0.599996	0.660752	9.24	-35.42	25.76	0.0958	-0.1281	-0.4035	
-0.393572	0.615246	0.671	11.41	-40.88	31.92	0.0818	-0.1398	-0.4048	
-0.388692	0.611708	0.674904	10.71	-43.75	36.75	0.08	-0.1306	-0.4018	
-0.35197	0.615368	0.683688	11.41	-50.05	41.79	0.0801	-0.1337	-0.3957	
-0.318908	0.588284	0.696864	10.5	-54.11	46.34	0.06879999	-0.1409	-0.4032	
-0.306708	0.583526	0.69052	14.56	-58.66	51.59	0.0544	-0.1419	-0.403	
-0.288896	0.617686	0.665022	16.94	-62.09	56.56	0.0446	-0.1493	-0.4044	
-0.24949	0.647332	0.67283	19.25	-63.35	60.06	0.0271	-0.1425	-0.4119	
-0.203862	0.64416	0.665998	20.23	-65.31	64.26	0.0145	-0.1559	-0.4026	
-0.15067	0.641964	0.675148	19.95	-69.23	67.69	0.0074	-0.1602	-0.404	
-0.122366	0.621834	0.699304	20.79	-69.3	69.93	0.0012	-0.1493	-0.3948	
-0.10919	0.630618	0.690276	24.22	-68.39	72.38	-0.0215	-0.1608	-0.3869	
-0.102236	0.633546	0.671	26.32	-67.27	75.88	-0.0328	-0.1619	-0.4036	
-0.055632	0.622688	0.646722	25.76	-69.23	80.29	-0.0529	-0.1673	-0.3973	
0.014884	0.627568	0.621468	26.25	-72.52	84.77	-0.0583	-0.1794	-0.3988	
0.069174	0.630008	0.619272	27.16	-73.08	86.1	-0.0774	-0.1695	-0.3925	
0.12749	0.645746	0.605974	32.62	-71.26	82.53	-0.115	-0.1697	-0.386	
0.169458	0.699914	0.574864	34.51	-71.05	83.44	-0.1309	-0.1723	-0.3767	
0.232044	0.753716	0.560712	31.71	-72.03	85.54	-0.1322	-0.1768	-0.369	
0.293532	0.734562	0.53924	27.65	-73.22	83.44	-0.1584	-0.1744	-0.3596	
0.351238	0.672708	0.508862	22.68	-73.85	79.03	-0.1739	-0.1846	-0.3625	
0.381128	0.640866	0.49288	24.85	-73.15	74.76	-0.1847	-0.1658	-0.3563	
0.41419	0.657702	0.483974	26.39	-71.4	74.13	-0.1931	-0.1747	-0.344	
0.457866	0.651602	0.477508	27.3	-71.96	73.43	-0.2149	-0.1755	-0.3331	
0.494588	0.639036	0.440054	25.83	-73.57	72.45	-0.2265	-0.1705	-0.336	
0.532652	0.640622	0.41053	24.71	-73.99	71.26	-0.2324	-0.1719	-0.3237	
0.583038	0.661362	0.406138	22.75	-74.76	73.29	-0.2484	-0.1682	-0.3236	
0.603778	0.652822	0.377224	16.8	-72.52	74.97	-0.2617	-0.1601	-0.3174	
0.64904	0.642818	0.37881	14.14	-72.45	74.97	-0.2765	-0.152	-0.305	
0.679784	0.640622	0.385154	14.56	-69.51	72.59	-0.2894	-0.1561	-0.3049	
0.683322	0.619638	0.360266	11.83	-61.46	69.51	-0.2985	-0.1451	-0.2895	
0.712602	0.606706	0.326228	11.27	-55.16	69.72	-0.3146	-0.1384	-0.2925	
0.832528	0.61366	0.358558	12.6	-49.07	71.96	-0.3252	-0.1289	-0.2695	
0.898774	0.613172	0.3782	11.83	-45.99	71.05	-0.3278	-0.138	-0.2771	
0.88206	0.604998	0.351482	8.12	-39.34	68.88	-0.3298	-0.1226	-0.2648	
0.840824	0.579622	0.310856	5.25	-33.11	62.65	-0.3487	-0.1173	-0.2662	
0.82045	0.556808	0.269254	3.01	-30.73	56.56	-0.3478	-0.102	-0.2678	
0.808982	0.572058	0.262178	2.52	-30.73	52.29	-0.352	-0.1065	-0.2601	
0.802882	0.561078	0.235704	-2.17	-30.52	49.77	-0.3712	-0.0966	-0.2508	
0.806786	0.528504	0.241682	-5.11	-29.96	47.67	-0.3715	-0.092	-0.2401	
0.81496	0.51728	0.259494	-2.8	-31.01	44.45	-0.3748	-0.0766	-0.2431	
0.820816	0.550708	0.251808	-5.39	-28.21	41.93	-0.3676	-0.0768	-0.2493	
0.861564	0.545706	0.259616	-10.57	-24.5	39.41	-0.3867	-0.0685	-0.2339	
0.897798	0.48068	0.277184	-16.17	-21.21	37.45	-0.384	-0.064	-0.2385	
0.935374	0.4758	0.295972	-13.51	-22.89	37.59	-0.3872	-0.0562	-0.2324	
0.971974	0.497028	0.30378	-11.06	-24.71	34.3	-0.4002	-0.0558	-0.2338	
0.997472	0.48495	0.276452	-14.42	-25.27	28.7	-0.4004	-0.0497	-0.2277	
1.006378	0.462014	0.27145	-14.56	-24.36	24.78	-0.4051	-0.0403	-0.2246	
0.989542	0.439322	0.27023	-9.87	-12.6	24.29	-0.3998	-0.0283	-0.2125	
0.978684	0.410042	0.256566	-7	-6.58	21.49	-0.4056	-0.028	-0.2109	
0.935008	0.421754	0.236802	-5.46	-3.99	16.66	-0.4043	-0.025	-0.2139	
0.920978	0.444202	0.246806	-6.16	-1.89	13.23	-0.4057	-0.0234	-0.217	
0.916342	0.421998	0.250588	-9.87	1.47	9.03	-0.3985	-0.0237	-0.2186	
0.930494	0.377956	0.260836	-12.53	1.82	4.97	-0.3989	-0.0114	-0.2156	
0.951234	0.342942	0.27694	-12.95	1.19	2.52	-0.4074	-0.0172	-0.2185	
0.96136	0.32696	0.282674	-10.43	2.59	1.05	-0.4033	-0.0128	-0.2094	
0.959408	0.316102	0.270596	-7.28	3.85	1.54	-0.4017	-0.0159	-0.2155	
0.95648	0.330254	0.272426	-3.78	4.97	1.89	-0.4073	-0.0188	-0.2155	
0.940254	0.345138	0.266814	-2.17	6.09	-0.28	-0.4043	-0.0219	-0.217	
0.957944	0.36173	0.257908	0.77	3.78	-1.61	-0.4033	-0.009699999	-0.2155	
0.988444	0.385032	0.268034	0.77	5.88	-4.83	-0.4105	-0.0064	-0.2277	
1.00528	0.368074	0.27694	-0.98	8.82	-8.4	-0.3957	-0.0145	-0.2354	
1.01382	0.360754	0.279014	-2.24	12.81	-10.85	-0.4003	-0.0113	-0.2262	
1.006012	0.380884	0.286334	-0.7	18.69	-14.98	-0.4017	-0.0128	-0.2247	
0.999546	0.408456	0.305366	2.73	22.33	-19.53	-0.3987	-0.0129	-0.2339	
0.989176	0.406138	0.315248	3.99	27.02	-25.27	-0.3869	-0.021	-0.237	
0.988566	0.410774	0.323666	5.32	31.57	-29.19	-0.394	-0.0254	-0.2278	
0.980026	0.42456	0.330742	5.6	36.61	-32.76	-0.3938	-0.0269	-0.24	
0.96807	0.434686	0.346236	7.28	43.26	-37.73	-0.3939	-0.0269	-0.237	
0.949648	0.44896	0.354898	10.92	49.21	-43.89	-0.3761	-0.0382	-0.2432	
0.923296	0.475312	0.347212	13.86	54.25	-50.47	-0.3757	-0.0489	-0.2554	
0.896822	0.494466	0.348066	14.21	56.7	-56.77	-0.3626	-0.0525	-0.254	
0.87047	0.503372	0.354288	12.25	56.49	-62.44	-0.3622	-0.0586	-0.2662	
0.854	0.494588	0.354898	8.19	56.35	-67.83	-0.3517	-0.0681	-0.28	
0.823866	0.49654	0.360632	3.64	54.74	-70.98	-0.3397	-0.0839	-0.2771	
0.813496	0.519598	0.36722	0.77	51.31	-75.04	-0.3466	-0.0897	-0.2892	
0.782264	0.53497	0.362706	-2.73	46.97	-77.77	-0.3321	-0.0933	-0.2848	
0.74542	0.528992	0.361486	-7.56	46.06	-77.7	-0.3131	-0.097	-0.2895	
0.70821	0.577914	0.374906	-9.1	45.01	-77	-0.3183	-0.1106	-0.3078	
0.63257	0.579378	0.38857	-12.88	45.15	-78.68	-0.2817	-0.1257	-0.3096	
0.603656	0.588894	0.422486	-13.09	43.89	-78.61	-0.2771	-0.1335	-0.3127	
0.57279	0.624274	0.460428	-12.95	42.63	-77.63	-0.2655	-0.1339	-0.3174	
0.54107	0.661484	0.493368	-11.55	41.37	-76.44	-0.2636	-0.1463	-0.3174	
0.507886	0.701744	0.501542	-12.11	40.25	-77.14	-0.2592	-0.1464	-0.3281	
0.471042	0.700402	0.515694	-15.19	42.42	-77.84	-0.25	-0.1605	-0.3343	
0.452742	0.633668	0.525942	-19.25	47.11	-78.68	-0.2413	-0.1577	-0.3451	
0.433466	0.639646	0.536922	-16.17	48.23	-78.96	-0.224	-0.1583	-0.3407	
0.381372	0.668804	0.53131	-15.47	51.1	-79.66	-0.2137	-0.1633	-0.3423	
0.336232	0.67283	0.527162	-16.8	55.02	-80.01	-0.2021	-0.1637	-0.3515	
0.280844	0.643184	0.526796	-17.43	60.9	-80.92	-0.1891	-0.1641	-0.3501	
0.23973	0.658434	0.546438	-15.82	65.38	-84.42	-0.1747	-0.1631	-0.3549	
0.223138	0.676612	0.593408	-12.81	63.63	-83.02	-0.1667	-0.1818	-0.3641	
0.172142	0.673318	0.553392	-16.38	61.04	-81.76	-0.1522	-0.1838	-0.3703	
0.1525	0.685884	0.550098	-18.97	61.46	-81.06	-0.1376	-0.1889	-0.3705	
0.069662	0.664656	0.589138	-19.95	64.26	-78.68	-0.1148	-0.1774	-0.3814	
0.000976	0.707722	0.565836	-18.62	61.67	-75.81	-0.1002	-0.181	-0.38	
-0.021716	0.742004	0.597922	-20.37	59.22	-72.8	-0.0959	-0.1811	-0.3846	
-0.038674	0.737978	0.607682	-23.03	53.48	-69.37	-0.0859	-0.18	-0.3786	
-0.037332	0.732732	0.607072	-24.57	49.28	-65.8	-0.0683	-0.1836	-0.3864	
-0.008296	0.725534	0.63989	-24.64	46.76	-65.94	-0.0613	-0.1777	-0.3911	
-0.0122	0.70394	0.662582	-25.76	48.44	-66.64	-0.0454	-0.1752	-0.3989	
-0.05551	0.714554	0.644892	-24.64	46.2	-66.08	-0.0384	-0.1709	-0.3898	
-0.113948	0.723948	0.625738	-26.95	46.06	-62.44	-0.0328	-0.168	-0.3899	
-0.139568	0.679174	0.619028	-32.2	45.5	-56.98	-0.0254	-0.1698	-0.3945	
-0.175436	0.64416	0.625006	-33.6	43.75	-50.12	-0.0215	-0.1546	-0.4053	
-0.213988	0.63806	0.640012	-31.64	40.25	-43.05	0	-0.1508	-0.3994	
-0.249124	0.638914	0.681858	-29.68	37.94	-35.56	0.0186	-0.1483	-0.4072	
-0.2745	0.635132	0.697108	-26.88	32.55	-30.94	0.0141	-0.1436	-0.4072	
-0.286456	0.63867	0.706258	-25.9	27.72	-29.54	0.0228	-0.1423	-0.4149	
-0.29829	0.638304	0.720044	-25.34	25.76	-26.25	0.0385	-0.1414	-0.3998	
-0.306464	0.624518	0.731878	-22.05	22.75	-22.75	0.0383	-0.1352	-0.4044	
-0.305244	0.597556	0.757742	-21.63	20.58	-19.88	0.0442	-0.1354	-0.4136	
-0.312808	0.578158	0.73993	-19.18	16.94	-16.31	0.0425	-0.1308	-0.3983	
-0.299144	0.595726	0.739564	-15.47	16.03	-15.12	0.0493	-0.1172	-0.4061	
-0.32147	0.615978	0.732976	-14.35	17.22	-15.75	0.0466	-0.1233	-0.406	
-0.345992	0.60573	0.735782	-14.49	18.76	-14.35	0.0566	-0.119	-0.4107	
-0.34038	0.604022	0.724192	-13.58	16.31	-13.23	0.0548	-0.1098	-0.4046	
-0.354288	0.621712	0.714676	-13.93	15.4	-13.37	0.0635	-0.1085	-0.4062	
-0.378078	0.610488	0.71492	-16.94	17.85	-13.23	0.0647	-0.104	-0.4047	
-0.384422	0.57157	0.727608	-18.34	18.27	-12.32	0.069	-0.1026	-0.4078	
-0.376858	0.55144	0.737246	-18.13	15.54	-12.04	0.0705	-0.1011	-0.4155	
-0.362096	0.54778	0.735782	-17.15	13.51	-11.27	0.0749	-0.1012	-0.4186	
-0.37515	0.53436	0.739808	-16.87	12.39	-9.59	0.0807	-0.103	-0.4171	
-0.390522	0.530944	0.750788	-15.05	7.91	-7.91	0.0719	-0.1011	-0.4125	
-0.368562	0.530822	0.767258	-14.49	5.11	-7.21	0.0758	-0.0859	-0.4141	
-0.357582	0.522404	0.772138	-14.21	4.76	-4.2	0.08	-0.083	-0.4172	
-0.397964	0.51118	0.760182	-12.25	4.2	-0.28	0.0757	-0.0875	-0.4018	
-0.401868	0.517646	0.759328	-10.36	2.45	1.26	0.0801	-0.0861	-0.4126	
-0.393938	0.516792	0.771894	-9.24	0.35	3.5	0.0813	-0.0785	-0.4157	
-0.392718	0.505568	0.780556	-9.1	-1.89	6.23	0.0698	-0.0827	-0.4079	
-0.3904	0.49898	0.780434	-8.05	-3.99	7.56	0.0857	-0.0802	-0.4188	
-0.385398	0.492514	0.793854	-6.86	-7.14	9.45	0.083	-0.08769999	-0.4111	
-0.382104	0.487268	0.797758	-5.46	-9.66	11.97	0.077	-0.0783	-0.4156	
-0.378322	0.50203	0.792634	-3.08	-11.34	13.37	0.0756	-0.0813	-0.4171	
-0.386252	0.512522	0.804712	-2.24	-11.34	13.79	0.077	-0.0768	-0.4233	
-0.38247	0.487024	0.831674	-0.91	-11.97	15.4	0.0626	-0.08549999	-0.4017	
-0.369904	0.469822	0.844728	2.45	-14.63	17.85	0.0786	-0.083	-0.4202	
-0.362828	0.480924	0.837164	7.56	-17.08	19.81	0.067	-0.081	-0.4186	
-0.35319	0.50569	0.809104	11.97	-18.34	22.12	0.0672	-0.0872	-0.4216	
-0.35502	0.498126	0.792146	14.63	-18.83	23.52	0.064	-0.0809	-0.414	
-0.361852	0.487024	0.77592	17.5	-21.49	25.27	0.06	-0.0884	-0.42	
-0.35441	0.508374	0.756644	21.35	-29.05	30.87	0.0531	-0.09739999	-0.4153	
-0.347578	0.52704	0.762744	23.45	-33.88	34.86	0.0456	-0.0926	-0.4107	
-0.320738	0.532164	0.759694	24.29	-38.5	39.27	0.0386	-0.09999999	-0.4076	
-0.274378	0.534482	0.76128	25.9	-42.63	40.81	0.0258	-0.101	-0.4135	
-0.249002	0.528016	0.762012	26.95	-43.68	42.21	0.0235	-0.1194	-0.4165	
-0.217648	0.52826	0.771894	29.33	-45.01	43.89	0.0133	-0.1175	-0.4164	
-0.19703	0.516548	0.748348	32.13	-48.23	46.97	0.0064	-0.1264	-0.4102	
-0.157624	0.571448	0.739198	37.03	-50.54	48.16	-0.0094	-0.129	-0.4039	
-0.131638	0.578402	0.734074	38.36	-50.33	49.07	-0.009	-0.1366	-0.4131	
-0.110898	0.56486	0.723338	40.46	-50.82	50.19	-0.022	-0.1408	-0.3977	
-0.069906	0.592554	0.698938	44.45	-54.53	50.68	-0.0278	-0.1375	-0.4099	
-0.050142	0.61549	0.69052	45.36	-54.95	52.64	-0.0462	-0.1522	-0.3989	
-0.02867	0.621712	0.671488	45.08	-54.6	55.37	-0.0576	-0.1549	-0.4003	
0.01098	0.629398	0.659776	45.08	-56.35	58.24	-0.0687	-0.1698	-0.3956	
0.057706	0.642818	0.642452	46.62	-58.87	61.67	-0.0706	-0.1575	-0.3895	
0.09747799	0.666486	0.619638	47.39	-59.92	66.36	-0.0931	-0.1751	-0.3877	
0.148718	0.687226	0.578524	46.62	-58.94	71.12	-0.106	-0.1808	-0.3784	
0.170434	0.703452	0.537776	46.55	-58.17	73.36	-0.1161	-0.1804	-0.3829	
0.208986	0.711504	0.495564	46.2	-59.01	74.83	-0.1263	-0.1801	-0.3752	
0.26169	0.711992	0.484706	44.94	-61.39	76.79	-0.1405	-0.1903	-0.3643	
0.29341	0.711748	0.451644	42.84	-61.25	77.35	-0.1578	-0.1913	-0.3626	
0.359412	0.71797	0.443714	42.21	-63.07	78.4	-0.1723	-0.1892	-0.3594	
0.407724	0.709552	0.427122	40.53	-63.42	79.87	-0.1868	-0.1918	-0.3455	
0.447008	0.7076	0.398818	37.45	-63.56	82.81	-0.2012	-0.1913	-0.3438	
0.533018	0.714554	0.437126	39.76	-64.26	83.37	-0.2027	-0.1944	-0.3362	
0.578524	0.711626	0.42517	37.38	-61.46	82.81	-0.219	-0.1846	-0.3223	
0.568642	0.69723	0.383812	35.35	-59.78	83.02	-0.232	-0.1857	-0.3206	
0.565592	0.68747	0.366366	32.2	-56.28	83.79	-0.2553	-0.1803	-0.3158	
0.580476	0.72407	0.357826	33.11	-55.65	83.02	-0.2654	-0.1815	-0.3142	
0.620858	0.749446	0.357582	29.47	-51.8	80.64	-0.2714	-0.1782	-0.2989	
0.669048	0.76616	0.36905	25.62	-49.84	78.12	-0.2815	-0.1779	-0.2927	
0.681248	0.746518	0.35014	20.65	-45.92	73.85	-0.2945	-0.1805	-0.2849	
0.66429	0.737978	0.309636	15.26	-37.52	65.17	-0.3084	-0.157	-0.2726	
0.675026	0.69479	0.270718	8.33	-31.36	60.48	-0.327	-0.161	-0.2724	
0.768112	0.652944	0.28975	4.62	-29.33	60.27	-0.3334	-0.1454	-0.2663	
0.841068	0.631228	0.300486	3.29	-30.52	64.12	-0.3234	-0.1412	-0.2679	
0.806786	0.61	0.277184	-1.82	-27.37	66.71	-0.3292	-0.1441	-0.2572	
0.790682	0.590236	0.248636	-3.71	-26.18	66.78	-0.3399	-0.1238	-0.2632	
0.798612	0.604266	0.248148	-3.78	-27.72	64.96	-0.3502	-0.1188	-0.257	
0.798124	0.607194	0.265472	-6.37	-26.74	61.6	-0.3618	-0.1199	-0.2538	
0.826062	0.606096	0.282186	-8.89	-26.11	56.77	-0.3592	-0.1093	-0.26	
0.882426	0.577548	0.300242	-11.9	-24.71	50.61	-0.3642	-0.0954	-0.2386	
0.90341	0.546194	0.309026	-15.05	-19.74	45.15	-0.3699	-0.0951	-0.2462	
0.884744	0.49349	0.284504	-18.41	-17.99	39.55	-0.3715	-0.0889	-0.2523	
0.88877	0.468358	0.27389	-17.64	-16.8	37.03	-0.3834	-0.0809	-0.2369	
0.899506	0.473238	0.280966	-15.54	-13.86	34.37	-0.3794	-0.0718	-0.2416	
0.883646	0.476654	0.2684	-15.33	-10.5	33.46	-0.3822	-0.0702	-0.2522	
0.89121	0.459208	0.255224	-14.28	-8.75	32.13	-0.387	-0.0593	-0.2446	
0.887672	0.455914	0.243878	-11.62	-10.22	29.54	-0.3814	-0.0564	-0.2355	
0.89914	0.48495	0.254248	-9.87	-12.88	28.91	-0.3876	-0.0424	-0.2385	
0.881206	0.501054	0.270108	-12.53	-11.9	24.78	-0.3832	-0.0441	-0.2416	
0.877424	0.475556	0.283162	-16.66	-13.09	17.78	-0.3931	-0.0483	-0.24	
0.88755	0.427976	0.294264	-17.01	-14.14	10.36	-0.392	-0.0377	-0.24	
0.91744	0.403332	0.288164	-11.97	-17.71	7.14	-0.3834	-0.0395	-0.2294	
0.932934	0.431514	0.301096	-9.8	-19.88	6.09	-0.3923	-0.0331	-0.2293	
0.93452	0.432978	0.292312	-13.37	-19.53	3.99	-0.3994	-0.0343	-0.2399	
0.942084	0.397842	0.295118	-17.15	-16.45	0.56	-0.4026	-0.0281	-0.2277	
0.950136	0.37332	0.293532	-16.03	-12.74	-2.31	-0.3982	-0.0313	-0.2262	
0.945622	0.373686	0.28243	-13.51	-10.22	-3.22	-0.3938	-0.033	-0.2201	
0.947452	0.392596	0.284748	-13.72	-7.14	-3.22	-0.3928	-0.0193	-0.2217	
0.939522	0.371734	0.281576	-14.21	-4.06	-3.71	-0.3997	-0.0267	-0.2369	
0.952454	0.362096	0.282186	-10.99	-0.91	-3.78	-0.3956	-0.0222	-0.2217	
0.951478	0.362218	0.283528	-6.23	3.01	-5.81	-0.4015	-0.019	-0.2201	
0.944768	0.388326	0.28365	-2.17	7.42	-7.07	-0.3925	-0.0254	-0.2309	
0.958554	0.38308	0.283894	-2.8	9.24	-9.17	-0.394	-0.0269	-0.2202	
0.947574	0.379786	0.28243	-2.66	10.22	-11.2	-0.3967	-0.0314	-0.2247	
0.947574	0.407846	0.28548	-0.42	11.27	-12.81	-0.397	-0.0237	-0.2217	
0.944768	0.417484	0.289506	0	13.44	-16.8	-0.4036	-0.0403	-0.2322	
0.932446	0.405528	0.290726	-1.05	15.33	-21.28	-0.3993	-0.0405	-0.2277	
0.936594	0.412604	0.29707	-1.96	16.38	-24.22	-0.3895	-0.0332	-0.2248	
0.93879	0.424682	0.304268	-2.24	16.8	-26.95	-0.3836	-0.0349	-0.2263	
0.938546	0.433832	0.325252	-2.24	19.95	-31.08	-0.3904	-0.0438	-0.2385	
0.944402	0.437492	0.344528	-0.49	23.03	-34.51	-0.3861	-0.0425	-0.237	
0.9516	0.443226	0.37149	0.98	27.09	-39.06	-0.3942	-0.0575	-0.2445	
0.952576	0.439566	0.377346	1.96	31.15	-42.7	-0.3739	-0.0613	-0.2462	
0.94306	0.442006	0.377224	3.57	37.17	-46.27	-0.3638	-0.0586	-0.2525	
0.919026	0.456768	0.367342	7	44.17	-50.68	-0.3761	-0.0796	-0.2523	
0.902312	0.48007	0.345016	7.42	48.23	-55.51	-0.3588	-0.0756	-0.2677	
0.860954	0.537288	0.338794	8.4	55.79	-52.15	-0.3544	-0.0772	-0.2678	
0.825574	0.541558	0.361486	3.57	56.07	-58.94	-0.3557	-0.0802	-0.2754	
0.798124	0.51972	0.352946	0.35	55.02	-63.35	-0.3448	-0.1021	-0.2831	
0.757376	0.53253	0.33794	-0.56	57.61	-63.21	-0.3361	-0.0993	-0.2893	
0.72834	0.565836	0.353068	1.26	59.64	-63.21	-0.323	-0.1028	-0.2879	
0.693082	0.593164	0.392352	1.61	61.95	-66.22	-0.3225	-0.1151	-0.3031	
0.642696	0.595604	0.383568	-0.91	57.12	-69.93	-0.3078	-0.1233	-0.3032	
0.598166	0.60268	0.369294	-2.94	52.71	-71.61	-0.2844	-0.1318	-0.3035	
0.568154	0.660752	0.408334	-1.33	52.71	-72.73	-0.2785	-0.135	-0.3127	
0.544608	0.695766	0.438834	-4.06	52.78	-76.51	-0.2811	-0.1395	-0.3172	
0.501298	0.698694	0.4575	-8.75	49	-80.57	-0.2589	-0.1571	-0.3205	
0.477508	0.706136	0.458232	-13.58	41.86	-81.76	-0.2516	-0.1589	-0.3205	
0.461648	0.690276	0.474946	-17.64	40.25	-80.64	-0.2427	-0.1654	-0.3252	
0.429318	0.69052	0.471652	-18.2	39.76	-77.98	-0.2255	-0.1583	-0.3376	
0.404308	0.718336	0.495442	-17.08	39.27	-75.67	-0.2221	-0.1737	-0.3406	
0.36051	0.716628	0.484218	-20.23	39.06	-73.92	-0.222	-0.1737	-0.3437	
0.30073	0.730658	0.513742	-21.21	43.33	-71.96	-0.1916	-0.1794	-0.3424	
0.2867	0.724314	0.549488	-21.21	47.04	-71.68	-0.1756	-0.1784	-0.3502	
0.25071	0.708942	0.558638	-22.75	48.09	-71.26	-0.1667	-0.1848	-0.3549	
0.221552	0.691862	0.566446	-23.8	47.81	-70.49	-0.1712	-0.1801	-0.3579	
0.180316	0.706502	0.576572	-22.68	51.31	-70.56	-0.1539	-0.1776	-0.3627	
0.160308	0.72285	0.56669	-21.14	54.18	-70.28	-0.1336	-0.1799	-0.3629	
0.160918	0.739442	0.562542	-20.09	53.69	-71.82	-0.1219	-0.1818	-0.3737	
0.15189	0.731634	0.572058	-22.68	56.56	-73.57	-0.1189	-0.1865	-0.3737	
0.138104	0.724314	0.601094	-23.59	58.8	-73.15	-0.1104	-0.1776	-0.383	
0.084546	0.734074	0.578524	-23.52	58.73	-72.03	-0.087	-0.1845	-0.3893	
0.037698	0.750422	0.582794	-25.27	58.38	-71.96	-0.0844	-0.18	-0.3847	
0.010492	0.720044	0.614392	-30.24	60.13	-71.54	-0.0614	-0.1778	-0.3773	
-0.031842	0.676368	0.64721	-34.09	60.83	-67.97	-0.0525	-0.1796	-0.3927	
-0.103212	0.67222	0.666852	-33.32	58.38	-63	-0.0337	-0.1802	-0.3959	
-0.186416	0.688934	0.636352	-31.36	52.43	-55.09	-0.0282	-0.1712	-0.4006	
-0.201788	0.699304	0.621956	-31.22	43.54	-48.09	-0.0185	-0.1624	-0.3946	
-0.175558	0.666486	0.688202	-35.21	34.44	-47.53	-0.0027	-0.1583	-0.4024	
-0.20374	0.624762	0.687836	-34.37	31.5	-45.5	-0.009699999	-0.1627	-0.4008	
-0.224846	0.638792	0.69845	-30.52	29.61	-43.19	0.0009	-0.1339	-0.4147	
-0.21167	0.612806	0.717604	-31.08	30.24	-41.65	0.0126	-0.1404	-0.4133	
-0.230946	0.568276	0.729072	-30.94	30.24	-38.5	0.0168	-0.1391	-0.4011	
-0.266082	0.563762	0.721508	-27.16	26.32	-33.25	0.0253	-0.1317	-0.415	
-0.277306	0.588528	0.73505	-23.94	23.59	-28.56	0.0254	-0.1317	-0.418	
-0.286822	0.591212	0.747982	-23.03	22.54	-25.13	0.0366	-0.1244	-0.4105	
-0.300974	0.584868	0.751886	-23.38	22.61	-23.8	0.0381	-0.1245	-0.4182	
-0.293044	0.566934	0.755668	-22.19	21.56	-22.89	0.0452	-0.1217	-0.4106	
-0.291458	0.55815	0.765916	-19.88	22.19	-23.8	0.052	-0.1081	-0.4184	
-0.325618	0.565714	0.759328	-18.27	24.57	-22.61	0.0534	-0.1051	-0.426	
-0.3416	0.551196	0.761768	-16.8	24.5	-19.04	0.0577	-0.1099	-0.4077	
-0.367098	0.559004	0.747006	-15.33	21.7	-17.22	0.0618	-0.1008	-0.4139	
-0.37515	0.569374	0.746762	-14.98	19.39	-16.1	0.0661	-0.1009	-0.4109	
-0.377224	0.545218	0.74664	-15.68	16.1	-13.51	0.0687	-0.0888	-0.4155	
-0.390522	0.535336	0.747128	-14.7	12.04	-11.27	0.079	-0.0953	-0.4171	
-0.39772	0.542412	0.744932	-13.72	7.7	-8.05	0.0831	-0.0862	-0.4279	
-0.380274	0.527894	0.75762	-13.37	4.55	-5.46	0.0818	-0.0938	-0.4172	
-0.368196	0.523258	0.757498	-12.53	2.59	-3.85	0.0744	-0.0905	-0.411	
-0.365146	0.535702	0.761524	-11.06	2.1	-2.73	0.0731	-0.0904	-0.4186	
-0.372222	0.524356	0.76494	-11.55	1.12	-0.49	0.0772	-0.0845	-0.4141	
-0.383324	0.511302	0.770796	-11.55	-0.84	2.52	0.0728	-0.0828	-0.4202	
-0.388082	0.507276	0.784216	-10.36	-2.31	4.13	0.0741	-0.07979999	-0.4156	
-0.3782	0.502274	0.782386	-8.75	-3.71	5.25	0.07009999	-0.0873	-0.4171	
-0.368928	0.513986	0.784216	-7.14	-4.41	5.32	0.086	-0.0878	-0.4218	
-0.38186	0.511302	0.77653	-6.79	-5.39	7.14	0.0756	-0.07979999	-0.4171	
-0.389302	0.507886	0.783118	-6.09	-6.23	8.19	0.07539999	-0.0737	-0.4187	
-0.40321	0.500444	0.792756	-4.9	-7.28	8.82	0.074	-0.0752	-0.4156	
-0.402356	0.508008	0.790804	-3.22	-9.17	9.66	0.07229999	-0.069	-0.411	
-0.388692	0.499346	0.806908	-3.15	-11.97	11.83	0.0708	-0.0658	-0.4186	
-0.405528	0.503006	0.80032	0.49	-15.19	15.61	0.0711	-0.0735	-0.4247	
-0.391864	0.498126	0.798246	2.03	-16.45	16.03	0.0699	-0.08109999	-0.4232	
-0.37393	0.48983	0.796172	3.85	-18.97	18.34	0.0625	-0.0763	-0.4216	
-0.356118	0.476776	0.80032	6.02	-21.35	20.44	0.0581	-0.0761	-0.417	
-0.342332	0.479338	0.802394	8.4	-23.45	22.54	0.0509	-0.0712	-0.4291	
-0.335866	0.479338	0.80276	10.43	-25.13	25.27	0.0481	-0.0757	-0.426	
-0.32879	0.480192	0.802638	12.88	-28.42	27.16	0.0438	-0.0787	-0.4183	
-0.316224	0.499468	0.792512	16.24	-31.22	28.56	0.0338	-0.0829	-0.4167	
-0.297802	0.506056	0.79788	18.13	-33.04	30.38	0.0411	-0.0832	-0.4198	
-0.278282	0.478972	0.807762	19.18	-36.33	34.16	0.0386	-0.0953	-0.4244	
-0.253638	0.488122	0.803736	23.24	-41.44	38.29	0.024	-0.0902	-0.4242	
-0.225822	0.499346	0.798856	26.32	-42.84	39.48	0.0197	-0.0916	-0.4196	
-0.208742	0.513986	0.785436	30.8	-43.82	40.46	0.0071	-0.1019	-0.4225	
-0.193736	0.534238	0.7686	34.23	-44.87	41.16	-0.0056	-0.1107	-0.4117	
-0.180682	0.545096	0.74847	36.54	-46.34	43.54	-0.0115	-0.1059	-0.4162	
-0.134078	0.5734	0.741516	39.62	-49.14	46.13	-0.0328	-0.1158	-0.419	
-0.101626	0.58865	0.72529	41.37	-50.82	45.99	-0.0325	-0.1281	-0.4068	
-0.086376	0.601094	0.707844	42.35	-52.36	44.73	-0.0409	-0.137	-0.4021	
-0.05551	0.64477	0.674538	44.31	-55.44	43.96	-0.0523	-0.1428	-0.3959	
-0.001708	0.668804	0.663924	44.24	-57.61	44.17	-0.0738	-0.1435	-0.4109	
0.045628	0.683932	0.633058	44.03	-59.43	44.17	-0.07229999	-0.1467	-0.4018	
0.062342	0.701012	0.599142	43.61	-61.6	43.96	-0.0853	-0.1493	-0.3879	
0.070028	0.72834	0.550342	43.26	-65.03	43.19	-0.0968	-0.1535	-0.3847	
0.109922	0.767624	0.52399	42	-68.6	42.21	-0.1119	-0.1729	-0.3937	
0.152256	0.756278	0.51301	37.73	-71.82	42.7	-0.1207	-0.1757	-0.3752	
0.208986	0.751886	0.50325	36.89	-78.33	41.65	-0.1279	-0.1754	-0.3706	
0.242414	0.766892	0.47763	35.07	-83.72	42.56	-0.141	-0.1719	-0.3705	
0.27328	0.741028	0.45994	30.94	-86.94	43.54	-0.1585	-0.1713	-0.3535	
0.31354	0.70577	0.451278	28.84	-90.51	42.14	-0.1841	-0.1811	-0.3608	
0.348676	0.684664	0.432612	27.79	-93.52	40.95	-0.1942	-0.1823	-0.3546	
0.39589	0.65392	0.46726	27.65	-90.09	41.86	-0.2203	-0.183	-0.3437	
0.457256	0.667584	0.446886	30.94	-84.98	46.06	-0.2189	-0.1846	-0.3299	
0.505934	0.686738	0.43798	31.57	-83.09	50.89	-0.232	-0.1857	-0.3145	
0.527284	0.701134	0.436272	29.33	-77.91	55.93	-0.2451	-0.1822	-0.3144	
0.528016	0.71126	0.43493	26.25	-69.72	59.57	-0.2682	-0.1875	-0.2958	
0.537044	0.715408	0.430416	23.8	-62.37	62.3	-0.2725	-0.1858	-0.3034	
0.572058	0.707966	0.405894	19.95	-58.59	66.78	-0.2829	-0.184	-0.282	
0.597068	0.696254	0.409432	15.54	-52.43	71.68	-0.2989	-0.1788	-0.2818	
0.626226	0.66917	0.419802	15.05	-44.94	75.6	-0.3064	-0.1709	-0.2818	
0.642696	0.676124	0.40565	16.87	-41.51	78.54	-0.318	-0.1736	-0.2679	
0.653676	0.67161	0.386862	16.1	-35.42	78.33	-0.3259	-0.1549	-0.2572	
0.657702	0.672464	0.367586	15.68	-32.34	79.73	-0.3305	-0.1471	-0.2617	
0.655018	0.645258	0.311588	13.44	-31.29	79.31	-0.3554	-0.1386	-0.2554	
0.660264	0.642208	0.286822	10.43	-31.71	78.82	-0.338	-0.1407	-0.251	
0.70821	0.642696	0.272426	6.02	-31.36	80.36	-0.3529	-0.1279	-0.2448	
0.786168	0.630984	0.292556	1.26	-31.08	82.88	-0.3607	-0.1123	-0.2447	
0.851682	0.614392	0.333792	-1.47	-29.33	85.96	-0.3578	-0.1109	-0.2463	
0.899018	0.625982	0.353678	-2.24	-23.1	82.25	-0.3834	-0.0824	-0.2293	
0.898408	0.590968	0.330986	-6.44	-14.98	73.5	-0.384	-0.064	-0.2385	
0.86925	0.559736	0.352824	-6.09	-11.41	64.82	-0.3897	-0.0669	-0.2323	
0.863272	0.540216	0.345626	-4.41	-12.67	55.93	-0.3915	-0.0576	-0.2277	
0.860588	0.528748	0.310856	-8.68	-13.3	44.59	-0.3858	-0.0548	-0.2339	
0.88999	0.503616	0.291702	-11.41	-23.94	38.92	-0.3961	-0.0498	-0.2292	
0.909998	0.472872	0.296704	-5.81	-11.55	40.18	-0.3964	-0.0421	-0.2231	
0.913292	0.45567	0.293044	-7.49	-13.02	32.83	-0.4007	-0.042	-0.2246	
0.908534	0.435784	0.282674	-8.54	-12.25	28	-0.3993	-0.0405	-0.2277	
0.916098	0.441762	0.291702	-3.43	-5.39	29.82	-0.4056	-0.028	-0.217	
0.92354	0.446886	0.296704	-3.71	-7.49	26.04	-0.3947	-0.0069	-0.2202	
0.937204	0.423096	0.27938	-5.74	-8.61	23.31	-0.4013	-0.022	-0.2293	
0.942084	0.416508	0.289018	-6.23	-8.19	18.9	-0.4103	-0.0171	-0.2154	
0.927444	0.407236	0.286944	-9.38	-11.48	15.47	-0.3917	-0.0101	-0.2202	
0.929884	0.384178	0.287066	-9.66	-8.26	12.04	-0.4018	-0.0098	-0.2171	
0.91988	0.362096	0.277916	-9.73	-6.93	9.31	-0.4032	-0.0128	-0.2186	
0.936716	0.357338	0.289262	-6.72	-6.58	7.98	-0.4019	-0.0098	-0.2079	
0.937692	0.346114	0.298656	-6.44	-4.69	4.76	-0.4082	0.0057	-0.214	
0.94123	0.32391	0.296826	-5.11	-2.73	1.75	-0.4138	0.0013	-0.2139	
0.946598	0.335866	0.297802	-4.2	-0.49	2.1	-0.3992	-0.0068	-0.2064	
0.954162	0.341234	0.303292	-3.71	1.75	1.4	-0.4153	0.0044	-0.22	
0.989298	0.336232	0.3172	-2.52	3.71	0	-0.4125	0.0058	-0.2139	
0.979172	0.331474	0.308416	-3.5	8.12	-1.89	-0.4124	0.0028	-0.2109	
0.986858	0.323788	0.322324	-2.52	11.13	-4.13	-0.4114	0.0165	-0.2125	
0.994788	0.311832	0.317688	0.14	13.3	-6.86	-0.4009	0.0039	-0.2141	
0.99796	0.34404	0.308904	3.29	16.38	-8.89	-0.408	0.0011	-0.2124	
0.985638	0.384422	0.31476	3.85	20.65	-11.2	-0.4062	-0.0065	-0.2262	
0.994544	0.383324	0.317322	3.64	23.87	-15.33	-0.4036	-0.0005	-0.2217	
0.99186	0.370148	0.320128	4.06	26.81	-18.9	-0.4017	-0.0113	-0.2323	
0.973682	0.38796	0.329522	5.74	30.1	-22.12	-0.3945	-0.0085	-0.2309	
0.95526	0.401014	0.345382	6.37	34.44	-26.11	-0.3988	-0.0114	-0.2263	
0.957944	0.38979	0.374906	8.54	38.01	-31.15	-0.387	-0.0117	-0.2523	
0.950868	0.388692	0.372954	9.94	40.46	-34.44	-0.3766	-0.0213	-0.2494	
0.936716	0.39894	0.370636	10.71	43.47	-38.57	-0.3849	-0.0333	-0.2508	
0.917074	0.41663	0.38125	11.55	47.11	-41.79	-0.3732	-0.0337	-0.2616	
0.896456	0.406138	0.378688	11.13	49.49	-43.61	-0.3599	-0.0418	-0.2663	
0.869616	0.426024	0.365024	12.11	51.24	-43.75	-0.364	-0.0509	-0.2647	
0.846802	0.454206	0.368318	12.81	52.85	-43.47	-0.3506	-0.059	-0.2785	
0.815692	0.45506	0.383934	15.4	55.44	-43.89	-0.3359	-0.0656	-0.2787	
0.788364	0.47519	0.402966	18.69	58.52	-45.43	-0.3342	-0.0702	-0.2878	
0.73078	0.495686	0.411872	19.95	60.13	-46.48	-0.3309	-0.0795	-0.3001	
0.695888	0.519598	0.423706	19.53	59.15	-48.58	-0.3164	-0.0847	-0.2941	
0.683444	0.516914	0.48617	17.15	57.82	-49	-0.3135	-0.0817	-0.3002	
0.670878	0.49349	0.508618	18.48	54.74	-48.51	-0.3073	-0.0926	-0.3064	
0.631472	0.55205	0.499468	21.21	50.47	-46.48	-0.2922	-0.1115	-0.3141	
0.593408	0.5978	0.487878	18.27	48.93	-45.78	-0.2833	-0.118	-0.3173	
0.59597	0.499468	0.517768	18.41	53.55	-42.21	-0.2744	-0.1259	-0.3204	
0.576206	0.53009	0.52887	20.65	60.13	-38.29	-0.2672	-0.1231	-0.3235	
0.546072	0.562542	0.50935	29.05	66.85	-32.41	-0.2537	-0.1374	-0.3312	
0.465918	0.646356	0.446276	35.63	76.44	-28.91	-0.2507	-0.139	-0.3359	
0.393938	0.711016	0.435296	36.89	86.94	-27.09	-0.2332	-0.1427	-0.3421	
0.362462	0.716872	0.472628	36.4	96.46	-27.65	-0.2093	-0.1634	-0.3499	
0.359168	0.638548	0.52521	34.58	103.18	-28.14	-0.2062	-0.1727	-0.3469	
0.335134	0.657946	0.516548	41.93	100.17	-28.28	-0.1973	-0.1745	-0.3607	
0.269254	0.72773	0.459818	46.41	90.23	-24.5	-0.1759	-0.1707	-0.3533	
0.213622	0.764452	0.439322	44.38	81.62	-15.82	-0.1624	-0.1819	-0.3641	
0.17263	0.759694	0.441518	40.11	70.91	-8.75	-0.1477	-0.1901	-0.3658	
0.14701	0.756522	0.443592	37.1	59.92	-4.2	-0.1429	-0.2025	-0.3749	
0.13237	0.786046	0.456036	38.57	46.34	-3.64	-0.1213	-0.2002	-0.3767	
0.142252	0.812398	0.462258	37.73	34.51	-5.39	-0.1223	-0.214	-0.369	
0.12627	0.871324	0.459696	35.14	22.96	-7.84	-0.1252	-0.2139	-0.3675	
0.112606	0.896212	0.478362	27.58	14	-16.38	-0.1136	-0.2189	-0.3615	
0.084424	0.850828	0.477752	14.98	7.7	-20.79	-0.1051	-0.2146	-0.3631	
0.1037	0.928298	0.506178	10.15	-5.53	-35.77	-0.1047	-0.2269	-0.3539	
0.109434	0.883402	0.484828	2.45	-13.93	-39.76	-0.1059	-0.2345	-0.3523	
0.093208	0.85766	0.466528	-2.73	-24.01	-39.83	-0.1087	-0.2344	-0.3676	
0.079422	0.896944	0.45689	-1.75	-32.76	-38.5	-0.1071	-0.2406	-0.363	
0.095282	0.929274	0.454572	-2.52	-41.3	-40.88	-0.1193	-0.2218	-0.3538	
0.119438	0.917196	0.453596	-9.1	-52.57	-45.29	-0.1099	-0.2436	-0.3584	
0.13847	0.906216	0.445422	-15.75	-64.47	-48.44	-0.1172	-0.2433	-0.3461	
0.166896	0.852536	0.449814	-20.02	-68.95	-47.04	-0.1243	-0.2477	-0.3429	
0.16897	0.89853	0.462136	-20.09	-72.8	-46.41	-0.1179	-0.2218	-0.3492	
0.159942	0.933178	0.455304	-24.29	-77.21	-45.71	-0.1373	-0.2457	-0.3489	
0.150182	0.942206	0.41663	-27.23	-81.9	-46.06	-0.1448	-0.2378	-0.3473	
0.184464	0.946598	0.443592	-26.46	-87.5	-47.53	-0.1523	-0.2283	-0.3504	
0.201056	0.905972	0.444934	-29.89	-83.93	-49.84	-0.1608	-0.2372	-0.3441	
0.217038	0.888892	0.433222	-30.45	-81.62	-54.11	-0.1652	-0.2355	-0.3426	
0.22753	0.87108	0.39284	-26.88	-83.51	-57.68	-0.1739	-0.2306	-0.3471	
0.26108	0.898042	0.374418	-24.64	-84.35	-63.49	-0.1788	-0.2182	-0.3303	
0.26047	0.903776	0.392718	-27.58	-84.42	-65.1	-0.1811	-0.2381	-0.3256	
0.274988	0.88023	0.39833	-30.1	-86.73	-66.15	-0.1884	-0.2347	-0.3317	
0.307074	0.861442	0.416142	-30.52	-91	-66.08	-0.1989	-0.2283	-0.3132	
0.327082	0.836798	0.418582	-28.98	-95.27	-65.66	-0.2015	-0.2328	-0.3208	
0.352092	0.801174	0.44225	-28.14	-95.48	-64.47	-0.2016	-0.2343	-0.3056	
0.386008	0.77043	0.487146	-23.73	-95.97	-61.81	-0.2162	-0.2292	-0.3085	
0.404186	0.74847	0.475068	-21.56	-98.7	-58.24	-0.226	-0.2381	-0.3068	
0.412116	0.773968	0.479216	-19.81	-102.34	-53.13	-0.2363	-0.2362	-0.293	
0.429074	0.775188	0.48556	-19.74	-97.51	-45.5	-0.229	-0.2411	-0.29	
0.405284	0.756888	0.486902	-13.02	-90.93	-47.25	-0.2504	-0.248	-0.2852	
0.393572	0.755302	0.47519	-11.83	-88.13	-53.83	-0.2506	-0.2434	-0.2776	
0.39223	0.7198	0.45628	-17.78	-87.92	-46.41	-0.2517	-0.2541	-0.279	
0.445666	0.728584	0.48251	-15.68	-86.59	-33.32	-0.2577	-0.2508	-0.2729	
0.371124	0.770796	0.468724	-11.9	-82.32	-31.22	-0.2605	-0.2538	-0.2637	
0.396622	0.799344	0.47519	-11.27	-75.67	-27.65	-0.2808	-0.2562	-0.2528	
0.378078	0.806542	0.473238	-8.26	-69.86	-29.75	-0.2834	-0.2669	-0.239	
0.347822	0.833504	0.46299	-7.91	-67.2	-29.89	-0.2821	-0.2608	-0.2436	
0.358558	0.83814	0.474702	-9.52	-63.07	-28.7	-0.2879	-0.2652	-0.2283	
0.354288	0.845216	0.488976	-9.52	-56.49	-26.74	-0.3065	-0.2707	-0.222	
0.353312	0.824964	0.486048	-8.4	-49.21	-26.67	-0.2878	-0.2729	-0.216	
0.348676	0.83387	0.47641	-7.56	-43.26	-24.29	-0.2962	-0.2756	-0.2251	
0.341966	0.837164	0.484218	-6.02	-37.38	-22.4	-0.3024	-0.2662	-0.2159	
0.33977	0.840092	0.5002	-3.36	-32.48	-21.28	-0.3038	-0.2724	-0.2052	
0.323788	0.833626	0.487268	-2.94	-25.9	-19.32	-0.3009	-0.2709	-0.2098	
0.306098	0.835578	0.468602	-2.17	-20.51	-17.71	-0.3007	-0.2771	-0.2067	
0.29036	0.82533	0.452132	-3.01	-17.22	-15.61	-0.299	-0.2863	-0.1991	
0.28914	0.825086	0.454084	-1.54	-16.94	-13.37	-0.2992	-0.2802	-0.2037	
0.283528	0.818376	0.45079	-1.05	-14.56	-11.9	-0.305	-0.2815	-0.196	
0.298778	0.824598	0.465064	0.77	-14.84	-8.89	-0.302	-0.2832	-0.1991	
0.307684	0.831308	0.441274	1.19	-10.78	-7.35	-0.3048	-0.2877	-0.1929	
0.296948	0.848632	0.43859	0.07	-5.95	-3.22	-0.3035	-0.2816	-0.1975	
0.323178	0.828624	0.454816	-0.63	-2.94	-1.12	-0.2919	-0.2882	-0.1854	
0.324032	0.834358	0.462502	0.35	2.1	2.73	-0.2978	-0.2818	-0.196	
0.314394	0.834114	0.447984	-0.63	7.14	6.86	-0.2977	-0.2849	-0.1884	
0.3294	0.820084	0.476532	0.14	11.2	10.01	-0.2948	-0.2819	-0.2007	
0.318176	0.83875	0.474092	1.33	16.03	13.58	-0.3048	-0.2861	-0.2036	
0.337574	0.815936	0.491172	2.87	21.21	15.19	-0.3047	-0.2892	-0.196	
0.338672	0.799222	0.496662	6.79	27.51	16.8	-0.3066	-0.2769	-0.1975	
0.374662	0.786534	0.492514	12.53	35.21	18.06	-0.3066	-0.2769	-0.1944	
0.3538	0.810568	0.488854	16.73	43.12	22.12	-0.2977	-0.2818	-0.2022	
0.368928	0.79788	0.492026	19.32	50.75	28.28	-0.3006	-0.2786	-0.2098	
0.395036	0.78446	0.510326	25.06	56.07	31.29	-0.3066	-0.2722	-0.2082	
0.4148	0.7869	0.49227	29.12	53.48	37.03	-0.2976	-0.2818	-0.2083	
0.426146	0.796904	0.48434	32.41	63.49	38.85	-0.2964	-0.2741	-0.2129	
0.439932	0.78507	0.456036	35.77	81.2	34.79	-0.2874	-0.2806	-0.2236	
0.438834	0.784582	0.451278	38.78	92.96	36.89	-0.276	-0.2779	-0.2192	
0.40748	0.838628	0.35014	46.41	99.12	38.57	-0.2759	-0.2779	-0.236	
0.424804	0.867664	0.321348	35.35	91.63	41.02	-0.2672	-0.2797	-0.2345	
0.432368	0.8906	0.333182	29.05	97.51	42.28	-0.2645	-0.2721	-0.2376	
0.396866	0.838628	0.31598	18.76	90.3	42.21	-0.2613	-0.2768	-0.2499	
0.376492	0.832528	0.306952	17.01	86.31	44.03	-0.2558	-0.2678	-0.2606	
0.41724	0.889868	0.332084	19.18	86.38	41.44	-0.2415	-0.2621	-0.2684	
0.40321	0.948428	0.29097	24.71	95.97	45.78	-0.2455	-0.2712	-0.2684	
0.363438	0.920124	0.303292	17.85	111.02	48.23	-0.2413	-0.2667	-0.273	
0.278282	0.905118	0.28609	23.94	112.77	49.42	-0.2295	-0.2702	-0.2823	
0.260104	0.923296	0.258274	26.32	112.07	48.86	-0.221	-0.2659	-0.2824	
0.34831	0.937692	0.321958	21.63	109.83	47.39	-0.2081	-0.2586	-0.2947	
0.331962	0.969412	0.329522	20.93	114.03	46.9	-0.2035	-0.2665	-0.3009	
0.283162	0.953308	0.344894	14.84	121.17	45.5	-0.1848	-0.2625	-0.3026	
0.283406	0.929762	0.340136	11.27	117.53	45.29	-0.176	-0.2628	-0.3164	
0.295362	0.865102	0.365512	5.04	113.96	43.54	-0.1688	-0.2615	-0.3196	
0.299998	0.851194	0.399794	10.22	114.73	50.54	-0.1647	-0.254	-0.3242	
0.297924	0.867786	0.407968	19.67	123.13	64.33	-0.1515	-0.2606	-0.3304	
0.274988	0.899994	0.43859	25.34	131.81	71.47	-0.1299	-0.2552	-0.3368	
0.274744	0.84119	0.451766	25.13	134.12	72.38	-0.1257	-0.2538	-0.3353	
0.262422	0.830088	0.446154	28.84	131.88	71.12	-0.1071	-0.2452	-0.3416	
0.241926	0.838506	0.413702	37.73	125.23	72.31	-0.114	-0.2542	-0.3476	
0.227408	0.873154	0.412482	43.96	121.8	75.39	-0.0835	-0.2599	-0.3494	
0.215818	0.870958	0.4087	46.97	116.83	76.58	-0.0859	-0.2751	-0.3433	
0.195322	0.910242	0.402112	48.65	114.94	75.11	-0.0687	-0.2711	-0.348	
0.164456	0.954162	0.411384	51.38	113.05	67.06	-0.0527	-0.2778	-0.339	
0.109922	0.935618	0.376126	43.19	111.72	60.97	-0.0585	-0.2776	-0.3359	
0.072834	0.93635	0.355142	42.7	103.95	58.38	-0.0412	-0.2782	-0.3345	
0.070882	0.948062	0.341966	41.23	94.57	55.09	-0.0379	-0.2875	-0.3452	
0.066124	0.906094	0.352214	34.51	84.84	53.06	-0.0292	-0.2909	-0.3316	
0.054168	1.001742	0.393328	37.1	69.3	42.63	-0.0248	-0.2926	-0.3377	
0.054656	0.947818	0.380152	24.29	59.78	33.32	-0.0177	-0.2929	-0.3256	
0.072956	0.933544	0.36173	16.66	40.88	26.25	-0.0055	-0.3117	-0.3211	
0.106018	0.898042	0.376614	14.21	28.84	25.06	-0.0041	-0.3118	-0.3195	
0.164578	0.912316	0.410774	14.42	18.9	20.86	-0.0114	-0.31	-0.321	
0.212524	0.8662	0.418094	4.97	18.34	20.37	-0.007	-0.3117	-0.3195	
0.267912	0.840702	0.439322	10.01	16.24	22.82	-0.0028	-0.3072	-0.3211	
0.302072	0.848022	0.441884	12.25	16.24	24.71	0.0005	-0.3227	-0.3211	
0.241316	0.880596	0.424804	13.23	17.08	17.15	-0.0027	-0.3118	-0.318	
0.217648	0.909754	0.431148	15.33	9.94	14.63	0.0002	-0.3166	-0.315	
0.246318	0.877424	0.440664	9.24	9.87	11.34	-0.0095	-0.3223	-0.3225	
0.252418	0.859002	0.43432	6.79	6.93	7.84	-0.0008	-0.3257	-0.3104	
0.26169	0.865102	0.434808	7.07	11.9	6.23	-0.005	-0.3286	-0.3149	
0.26413	0.864126	0.40809	3.71	7.91	8.89	0.0005	-0.3242	-0.3119	
0.303658	0.873032	0.41175	-2.31	4.13	12.11	0.0017	-0.3166	-0.3165	
0.301706	0.893406	0.416996	-4.48	0.7	12.46	-0.0025	-0.318	-0.3165	
0.278526	0.877668	0.413824	-7.77	1.75	9.52	-0.007	-0.3163	-0.3058	
0.298534	0.878766	0.41663	-4.48	-1.54	9.03	-0.0082	-0.3193	-0.3164	
0.29768	0.868152	0.444202	-3.22	-0.63	2.8	0.0004	-0.3212	-0.318	
0.321836	0.829478	0.438712	-1.61	1.61	0.35	-0.0009999999	-0.3196	-0.3165	
0.32391	0.835944	0.45018	1.19	0.35	-1.4	-0.0053	-0.321	-0.318	
0.323056	0.856806	0.44469	1.75	-1.05	-1.75	-0.0142	-0.3114	-0.3225	
0.319274	0.849852	0.440542	0.49	0.63	-1.19	-0.0041	-0.3149	-0.3104	
0.308538	0.843264	0.425902	-1.4	5.53	-0.77	-0.0067	-0.3194	-0.318	
0.29402	0.87596	0.421754	0.63	6.72	-1.54	-0.0094	-0.3285	-0.3088	
0.277916	0.875472	0.404308	0.56	4.27	-3.5	0.0003	-0.3165	-0.3226	
0.280478	0.868884	0.39406	0.77	-0.56	-4.48	-0.0009	-0.3226	-0.3134	
0.279014	0.86559	0.409432	1.19	-2.45	-4.9	0.0016	-0.312	-0.3165	
0.27999	0.865468	0.42273	0.63	-3.78	-5.6	-0.0082	-0.3193	-0.321	
0.284992	0.861198	0.432002	-1.12	-5.74	-6.02	-0.0022	-0.3257	-0.3149	
0.29707	0.859734	0.418948	-0.7	-7.42	-6.93	-0.0038	-0.3225	-0.318	
0.257298	0.891698	0.414922	0	-7	-8.47	0.0017	-0.3135	-0.3227	
0.23302	0.887794	0.417728	-0.07	-7.14	-9.31	-0.0057	-0.3087	-0.3119	
0.21655	0.883036	0.414678	-1.05	-9.17	-10.22	-0.0023	-0.3226	-0.318	
0.199592	0.891332	0.375882	-2.94	-16.17	-11.13	-0.0036	-0.3256	-0.3195	
0.160918	0.910486	0.366244	-3.64	-22.96	-13.16	-0.0036	-0.3302	-0.3119	
0.143472	0.920856	0.381128	-5.81	-29.54	-16.66	-0.0139	-0.3191	-0.3255	
0.135176	0.942572	0.379786	-8.47	-39.83	-18.27	-0.0067	-0.3194	-0.321	
0.133102	0.936716	0.329888	-13.44	-42.91	-24.57	-0.0125	-0.3176	-0.3225	
0.115656	0.930616	0.341966	-17.43	-54.74	-28.77	-0.0142	-0.3099	-0.3317	
0.1464	0.914268	0.328912	-24.36	-63.35	-34.09	-0.0299	-0.317	-0.3208	
0.16348	0.93086	0.365634	-28.7	-69.37	-39.34	-0.0302	-0.3047	-0.33	
0.182146	0.977464	0.333426	-30.17	-77.21	-42.14	-0.0231	-0.3034	-0.3209	
0.134078	1.000644	0.273646	-38.36	-83.86	-49.14	-0.0389	-0.3059	-0.3269	
0.170678	0.92537	0.38979	-50.61	-89.18	-51.31	-0.0449	-0.295	-0.3345	
0.305976	0.836676	0.369172	-47.95	-99.47	-49.49	-0.048	-0.2918	-0.3268	
0.258152	0.913292	0.42273	-42.35	-102.13	-58.59	-0.0581	-0.2868	-0.3405	
0.23973	0.968558	0.40748	-35.07	-97.79	-60.83	-0.0627	-0.2805	-0.3374	
0.201056	0.958554	0.360998	-35.21	-92.26	-58.66	-0.0742	-0.2832	-0.3357	
0.257176	0.7991	0.380274	-41.86	-93.66	-42.28	-0.0803	-0.2738	-0.3342	
0.252906	0.82045	0.393328	-30.66	-93.31	-40.88	-0.092	-0.2703	-0.3249	
0.23485	0.91805	0.363926	-24.5	-97.93	-42.7	-0.1051	-0.2637	-0.337	
0.227652	0.992226	0.360754	-23.94	-104.16	-41.58	-0.1064	-0.2683	-0.337	
0.233752	0.971852	0.336598	-30.38	-104.72	-41.86	-0.1224	-0.2631	-0.3399	
0.302804	0.837286	0.395036	-40.46	-104.3	-46.97	-0.1297	-0.2644	-0.3306	
0.340136	0.843142	0.39223	-33.88	-109.83	-50.96	-0.14	-0.2579	-0.3351	
0.314516	0.948184	0.375394	-26.67	-106.89	-54.95	-0.1514	-0.2621	-0.3304	
0.3172	0.936716	0.3477	-27.02	-101.92	-50.33	-0.1558	-0.2604	-0.3258	
0.293166	0.887916	0.326594	-28.98	-102.34	-45.5	-0.1718	-0.2583	-0.318	
0.294386	0.870104	0.312076	-29.54	-107.94	-44.94	-0.1691	-0.2538	-0.3226	
0.343308	0.874618	0.357338	-31.15	-114.94	-45.36	-0.182	-0.258	-0.3103	
0.369294	0.914512	0.36722	-32.34	-115.5	-46.2	-0.1994	-0.2589	-0.3025	
0.382958	0.910974	0.362706	-33.88	-107.87	-47.88	-0.2066	-0.2571	-0.3085	
0.403698	0.870958	0.38674	-32.27	-101.64	-50.19	-0.2068	-0.2525	-0.3055	
0.42517	0.821304	0.41053	-33.25	-98.14	-52.29	-0.2226	-0.2581	-0.2931	
0.457988	0.793	0.419924	-32.62	-98	-53.83	-0.2284	-0.261	-0.2808	
0.466284	0.78568	0.422486	-32.34	-95.41	-51.52	-0.2458	-0.2604	-0.276	
0.48678	0.747128	0.449448	-28	-90.65	-45.92	-0.2572	-0.2631	-0.2744	
0.467504	0.721996	0.457378	-26.81	-87.15	-46.97	-0.2488	-0.2588	-0.2699	
0.473726	0.801418	0.429074	-26.18	-84.77	-36.82	-0.2634	-0.2552	-0.2621	
0.474214	0.822524	0.425414	-22.47	-75.18	-29.89	-0.2616	-0.2676	-0.2575	
0.410408	0.814472	0.41297	-21.21	-69.23	-29.68	-0.2647	-0.2614	-0.2499	
0.4148	0.803858	0.399062	-21.49	-65.45	-29.26	-0.2747	-0.2656	-0.2544	
0.384666	0.836798	0.399306	-20.3	-62.86	-34.16	-0.272	-0.2611	-0.2452	
0.38857	0.818498	0.408334	-21.49	-63.7	-30.03	-0.2778	-0.264	-0.2329	
0.41236	0.809348	0.42639	-20.65	-62.3	-25.97	-0.2896	-0.2544	-0.239	
0.410164	0.814594	0.40565	-18.27	-56.98	-25.34	-0.2919	-0.2743	-0.2267	
0.380884	0.836188	0.409676	-15.05	-53.34	-25.9	-0.2866	-0.2591	-0.2329	
0.379298	0.846558	0.418948	-15.33	-50.47	-26.81	-0.3023	-0.2678	-0.2205	
0.391254	0.852658	0.45018	-15.75	-47.18	-26.04	-0.2982	-0.2633	-0.2144	
0.355752	0.824232	0.445056	-15.82	-39.41	-26.25	-0.2924	-0.2666	-0.2099	
0.326594	0.837652	0.44164	-15.05	-37.31	-26.53	-0.3037	-0.2723	-0.2113	
0.295728	0.832772	0.436394	-12.74	-36.47	-27.16	-0.2981	-0.2664	-0.2098	
0.28365	0.848632	0.433344	-10.01	-36.47	-27.23	-0.2908	-0.2697	-0.2084	
0.258762	0.852414	0.421266	-9.24	-37.03	-26.04	-0.3034	-0.28	-0.2113	
0.271328	0.851926	0.433344	-7.56	-38.36	-24.08	-0.2992	-0.2787	-0.2021	
0.30378	0.849242	0.454572	-8.12	-36.68	-22.12	-0.3036	-0.2816	-0.1945	
0.299632	0.841922	0.438102	-8.82	-30.94	-22.26	-0.3006	-0.2817	-0.2037	
0.315492	0.837042	0.446642	-8.96	-28.56	-18.48	-0.3036	-0.28	-0.1975	
0.32757	0.826428	0.454572	-8.19	-24.57	-16.73	-0.3006	-0.2801	-0.2037	
0.330376	0.818132	0.462746	-6.72	-20.58	-14.42	-0.3052	-0.2785	-0.1792	
0.317932	0.813618	0.461038	-4.62	-15.68	-11.9	-0.3077	-0.2891	-0.1883	
0.316712	0.81374	0.461404	-2.52	-11.69	-8.75	-0.3108	-0.2798	-0.1959	
0.305366	0.829478	0.452742	-0.91	-7.91	-5.6	-0.3121	-0.2859	-0.1867	
0.310002	0.824232	0.446154	-0.14	-4.69	-3.01	-0.3004	-0.2909	-0.1853	
0.2989	0.842898	0.433954	0.28	-2.38	-0.98	-0.3035	-0.2862	-0.1868	
0.28487	0.854244	0.418948	1.4	0.7	1.4	-0.3089	-0.2968	-0.1852	
0.283162	0.870348	0.41175	2.17	1.61	1.82	-0.3036	-0.2862	-0.1761	
0.283284	0.868274	0.413824	1.96	2.8	1.89	-0.3005	-0.2878	-0.1884	
0.290116	0.868396	0.41907	2.31	4.06	2.24	-0.2991	-0.2894	-0.1807	
0.297436	0.869006	0.413092	1.61	5.81	3.71	-0.3091	-0.2906	-0.1913	
0.28365	0.862174	0.4148	1.82	7.07	4.48	-0.3005	-0.2878	-0.1914	
0.28975	0.855342	0.428098	2.87	7.91	5.18	-0.3048	-0.2908	-0.1868	
0.294874	0.861076	0.421754	2.94	10.22	6.72	-0.3076	-0.2891	-0.1975	
0.29097	0.859246	0.410164	2.94	12.6	8.26	-0.3033	-0.2908	-0.1853	
0.285114	0.866444	0.41053	3.36	13.3	9.59	-0.3002	-0.2955	-0.1899	
0.307562	0.853878	0.430294	3.85	13.93	9.59	-0.3062	-0.2892	-0.1944	
0.305244	0.853024	0.43615	5.32	16.24	10.5	-0.3052	-0.2785	-0.1807	
0.323178	0.846436	0.433954	5.6	19.74	11.62	-0.3023	-0.2771	-0.1868	
0.327692	0.84485	0.429806	6.44	22.82	13.02	-0.2966	-0.2757	-0.1884	
0.342942	0.836554	0.423828	6.72	26.81	16.1	-0.2993	-0.2802	-0.1899	
0.338428	0.852536	0.411994	8.33	32.83	20.79	-0.3079	-0.2814	-0.1959	
0.365146	0.849974	0.440176	9.03	37.52	24.15	-0.2924	-0.2682	-0.1992	
0.399062	0.818376	0.47824	12.32	46.13	29.47	-0.2905	-0.2759	-0.2175	
0.437858	0.776896	0.488122	18.13	57.05	35.14	-0.299	-0.2832	-0.2144	
0.458598	0.780434	0.464454	23.31	69.37	37.66	-0.2904	-0.2836	-0.2083	
0.439078	0.799344	0.396866	23.59	77.28	35.42	-0.2965	-0.2695	-0.219	
0.41053	0.82838	0.394182	20.37	77.91	32.27	-0.2903	-0.2804	-0.2267	
0.41053	0.80093	0.458232	17.71	75.39	33.32	-0.2862	-0.2729	-0.2298	
0.420046	0.754204	0.476776	18.83	70.07	40.74	-0.2778	-0.264	-0.2284	
0.42456	0.748714	0.4331	22.47	63.49	46.2	-0.2762	-0.2702	-0.2299	
0.4575	0.829112	0.397842	21.63	64.4	46.48	-0.2763	-0.264	-0.2406	
0.437492	0.856074	0.332694	21.63	73.92	45.29	-0.2763	-0.2609	-0.2513	
0.393084	0.880474	0.336842	23.66	87.01	45.57	-0.266	-0.2644	-0.256	
0.330254	0.85156	0.31842	28.63	83.09	49.07	-0.2645	-0.2629	-0.2652	
0.323666	0.818376	0.304512	30.73	74.13	56.07	-0.2621	-0.2491	-0.2667	
0.394304	0.840946	0.346724	27.86	66.99	61.81	-0.2573	-0.2616	-0.2774	
0.442982	0.868518	0.398452	24.57	77.14	66.85	-0.255	-0.2432	-0.2745	
0.425048	0.907192	0.361486	26.6	83.3	64.26	-0.2491	-0.245	-0.2821	
0.391986	0.969534	0.330498	26.39	87.99	57.89	-0.2388	-0.2515	-0.2853	
0.360754	0.955626	0.330376	23.52	96.46	51.59	-0.2406	-0.2407	-0.2807	
0.374662	0.904264	0.353922	19.25	102.9	46.83	-0.2333	-0.2378	-0.2961	
0.38857	0.842288	0.367464	16.94	108.85	44.17	-0.2183	-0.2568	-0.2946	
0.375028	0.810202	0.371856	18.76	112.77	44.1	-0.2149	-0.2262	-0.3054	
0.360632	0.85522	0.3965	27.09	116.27	47.11	-0.1913	-0.2393	-0.3133	
0.332572	0.87047	0.370758	28.07	120.75	52.57	-0.1857	-0.2333	-0.3195	
0.31293	0.878522	0.387594	27.23	122.57	57.4	-0.1825	-0.2364	-0.3393	
0.297802	0.84607	0.40077	27.65	123.41	61.81	-0.1725	-0.2384	-0.3211	
0.287188	0.818742	0.424438	29.33	122.29	63.91	-0.148	-0.2331	-0.3366	
0.316956	0.795318	0.431514	36.26	119.35	66.78	-0.1465	-0.2347	-0.3397	
0.30927	0.852414	0.442128	43.26	117.81	67.06	-0.1334	-0.2351	-0.3414	
0.273768	0.891942	0.433588	47.74	115.78	67.41	-0.1218	-0.2355	-0.3476	
0.25925	0.881816	0.446154	46.06	115.78	65.03	-0.1041	-0.2469	-0.3477	
0.239486	0.886208	0.43554	45.85	108.01	58.87	-0.0997	-0.2485	-0.3539	
0.224236	0.902678	0.437248	45.85	103.81	53.62	-0.0838	-0.2491	-0.354	
0.209108	0.917928	0.413824	44.03	99.05	47.39	-0.0775	-0.2647	-0.3495	
0.182024	0.916098	0.406992	38.01	94.78	42.56	-0.0777	-0.2616	-0.3464	
0.16287	0.896334	0.427488	33.04	83.72	36.75	-0.0617	-0.2652	-0.3466	
0.158234	0.887672	0.397842	31.57	74.48	35.07	-0.0585	-0.2761	-0.3374	
0.136884	0.898652	0.405406	29.47	63.28	33.6	-0.041	-0.2798	-0.3437	
0.10797	0.916342	0.407602	27.02	54.18	31.15	-0.0368	-0.2768	-0.3453	
0.110898	0.908656	0.411628	23.73	44.66	27.16	-0.0394	-0.2844	-0.3406	
0.102236	0.902556	0.425902	17.36	36.61	23.73	-0.035	-0.2877	-0.3376	
0.160186	0.883036	0.427732	14.14	21.91	11.83	-0.0322	-0.2847	-0.3438	
0.199348	0.869372	0.426024	11.34	21.91	17.15	-0.0291	-0.294	-0.3377	
0.239364	0.866444	0.445422	7.28	14.98	13.02	-0.032	-0.2908	-0.3407	
0.285236	0.85949	0.461892	2.45	12.11	13.16	-0.0203	-0.2958	-0.3378	
0.292922	0.822524	0.47885	-1.05	12.25	13.09	-0.0219	-0.2927	-0.3316	
0.304878	0.794952	0.48617	3.36	9.94	16.03	-0.0304	-0.297	-0.3361	
0.325374	0.83021	0.494222	5.04	8.05	17.22	-0.0291	-0.2909	-0.3423	
0.291458	0.851438	0.490196	5.88	10.85	13.58	-0.0248	-0.2926	-0.3347	
0.272548	0.809348	0.45628	1.4	12.88	11.97	-0.0202	-0.2974	-0.3484	
0.322934	0.84302	0.470066	3.92	7.49	13.3	-0.0318	-0.2985	-0.3361	
0.315126	0.84241	0.474092	2.87	6.09	10.08	-0.0304	-0.3001	-0.33	
0.308904	0.836676	0.476776	3.57	2.94	8.33	-0.0292	-0.2894	-0.3331	
0.340014	0.820572	0.46543	2.17	1.19	7.7	-0.025	-0.2849	-0.3362	
0.333792	0.81557	0.464942	0.84	0.42	6.3	-0.0275	-0.2956	-0.3423	
0.329888	0.825208	0.47336	0.98	2.17	6.37	-0.0289	-0.2986	-0.3407	
0.34282	0.83082	0.48434	0.84	3.85	5.6	-0.0321	-0.2908	-0.3331	
0.362462	0.81862	0.479948	0.91	3.99	3.5	-0.0317	-0.3016	-0.3407	
0.34343	0.815692	0.459208	0.98	4.83	1.54	-0.0233	-0.2927	-0.3362	
0.32513	0.828868	0.458354	1.12	6.58	1.4	-0.0262	-0.2941	-0.3301	
0.32574	0.840214	0.472018	1.61	7.7	1.61	-0.0219	-0.2927	-0.3377	
0.326838	0.838262	0.461038	1.54	6.3	-0.49	-0.026	-0.3018	-0.3316	
0.289262	0.862784	0.435784	1.61	2.24	-4.97	-0.0204	-0.2959	-0.3301	
0.276818	0.847412	0.421144	-0.21	-0.77	-6.44	-0.0172	-0.3036	-0.3393	
0.255834	0.852536	0.42822	-0.21	-5.74	-7.49	-0.0215	-0.305	-0.3331	
0.259982	0.865468	0.436028	-0.91	-10.92	-8.4	-0.0247	-0.2957	-0.3316	
0.279746	0.87413	0.418582	-4.55	-15.96	-10.64	-0.0318	-0.3001	-0.3269	
0.259128	0.880962	0.431392	-8.54	-18.55	-13.09	-0.0332	-0.2984	-0.3391	
0.265716	0.858148	0.44774	-11.2	-20.86	-14.35	-0.0289	-0.3001	-0.3346	
0.279014	0.854732	0.448716	-12.04	-23.87	-15.68	-0.0264	-0.288	-0.3301	
0.284992	0.841312	0.446032	-11.55	-26.18	-16.87	-0.0277	-0.2956	-0.327	
0.25315	0.85888	0.434198	-11.69	-26.74	-19.39	-0.0304	-0.297	-0.3422	
0.207888	0.882426	0.423462	-11.76	-28.98	-21.91	-0.0435	-0.2935	-0.3391	
0.177632	0.906826	0.42395	-11.48	-32.55	-25.9	-0.0363	-0.2938	-0.333	
0.17507	0.893528	0.462136	-13.58	-37.38	-29.33	-0.0363	-0.2937	-0.3391	
0.22204	0.861442	0.427366	-14.63	-41.44	-31.01	-0.0452	-0.2858	-0.3406	
0.186172	0.914024	0.386496	-16.73	-50.82	-35.63	-0.0438	-0.2827	-0.3391	
0.168726	0.935496	0.344406	-24.08	-58.31	-36.19	-0.0527	-0.2778	-0.339	
0.263886	0.831796	0.436516	-35.07	-70.91	-35.21	-0.0539	-0.2839	-0.342	
0.313296	0.812642	0.399306	-33.25	-77.98	-41.16	-0.064	-0.2805	-0.348	
0.259128	0.93391	0.398818	-33.53	-84.7	-51.38	-0.0746	-0.2694	-0.3358	
0.21655	1.01687	0.376126	-35.21	-88.76	-55.72	-0.0819	-0.2676	-0.3387	
0.166896	0.980148	0.340258	-39.69	-92.75	-55.72	-0.092	-0.2657	-0.3478	
0.199104	0.885232	0.401746	-47.95	-99.33	-55.79	-0.0909	-0.2566	-0.3371	
0.284626	0.798978	0.407846	-45.57	-105.07	-60.34	-0.0925	-0.2503	-0.3448	
0.31598	0.857782	0.413336	-40.74	-113.33	-61.32	-0.12	-0.2463	-0.3491	
0.309514	0.898286	0.406992	-40.46	-117.25	-59.08	-0.1228	-0.2477	-0.3506	
0.30988	0.898896	0.426512	-39.34	-114.1	-54.88	-0.1333	-0.2382	-0.3475	
0.321104	0.842654	0.42029	-40.32	-110.46	-50.33	-0.1475	-0.2469	-0.3381	
0.35868	0.812276	0.412848	-37.66	-108.08	-51.24	-0.1551	-0.239	-0.3304	
0.36356	0.875106	0.427	-28.91	-107.17	-53.97	-0.1564	-0.2435	-0.3258	
0.322324	0.931836	0.41297	-23.8	-94.01	-52.71	-0.1771	-0.229	-0.3196	
0.313052	0.894016	0.383568	-23.1	-84.35	-49.21	-0.1913	-0.2346	-0.3301	
0.323422	0.964654	0.40748	-26.81	-87.92	-52.92	-0.19	-0.2316	-0.3255	
0.35563	0.926712	0.401136	-36.47	-88.2	-53.27	-0.1941	-0.2376	-0.3316	
0.3843	0.835212	0.385886	-41.79	-86.94	-54.04	-0.2055	-0.2418	-0.3238	
0.382714	0.807518	0.384056	-42.35	-84.56	-60.2	-0.2056	-0.2418	-0.3116	
0.38064	0.81496	0.395036	-41.86	-84.84	-65.31	-0.2087	-0.2371	-0.307	
0.3843	0.808616	0.415166	-43.54	-92.89	-67.2	-0.2202	-0.2383	-0.3115	
0.390522	0.76433	0.412482	-43.82	-98.42	-68.04	-0.2292	-0.2318	-0.3022	
0.445422	0.737368	0.45018	-41.93	-104.65	-67.48	-0.2337	-0.2286	-0.293	
0.461404	0.718092	0.470188	-37.59	-105	-62.16	-0.2452	-0.2313	-0.2807	
0.467626	0.720776	0.464698	-34.09	-101.64	-55.51	-0.2509	-0.2326	-0.2929	
0.50508	0.718092	0.490684	-31.15	-94.99	-48.09	-0.2626	-0.2338	-0.2729	
0.44652	0.726632	0.49654	-26.95	-85.89	-44.31	-0.268	-0.2443	-0.2713	
0.398452	0.760304	0.498004	-20.58	-78.47	-38.71	-0.2664	-0.249	-0.2667	
0.410652	0.769454	0.469334	-20.51	-73.43	-31.22	-0.2737	-0.2472	-0.2636	
0.455426	0.747006	0.48983	-16.94	-66.99	-27.51	-0.2723	-0.2504	-0.2544	
0.439932	0.75762	0.50386	-12.74	-54.88	-26.74	-0.281	-0.2501	-0.2497	
0.434442	0.759938	0.504348	-7.35	-49.49	-22.47	-0.2954	-0.2511	-0.245	
0.418094	0.772016	0.494588	-6.65	-41.51	-19.81	-0.2943	-0.2419	-0.2451	
0.388082	0.794586	0.488122	-2.66	-35.56	-16.73	-0.2897	-0.2513	-0.2374	
0.375638	0.80215	0.453962	-3.5	-30.45	-15.33	-0.3026	-0.2539	-0.2358	
0.376858	0.817156	0.480802	-1.82	-28.35	-14.77	-0.285	-0.2637	-0.2344	
0.351238	0.84546	0.464088	-2.24	-23.73	-14.42	-0.2996	-0.2617	-0.222	
0.305366	0.84546	0.438834	-5.39	-23.17	-16.66	-0.2938	-0.2619	-0.2236	
0.302804	0.851682	0.451644	-3.64	-25.27	-17.29	-0.2928	-0.2528	-0.2145	
0.300242	0.865834	0.45201	-3.64	-24.29	-18.06	-0.2997	-0.2571	-0.2266	
0.282796	0.865712	0.454816	-4.83	-24.92	-19.95	-0.3054	-0.2646	-0.2143	
0.311588	0.850584	0.452254	-4.13	-25.2	-21	-0.298	-0.2695	-0.219	
0.315858	0.840214	0.447862	-3.08	-23.73	-21.63	-0.2983	-0.2618	-0.2114	
0.302682	0.836432	0.45567	-2.8	-21.63	-19.81	-0.2997	-0.2633	-0.2083	
0.31049	0.825696	0.441884	-1.89	-18.48	-17.71	-0.3026	-0.2632	-0.2022	
0.320494	0.82472	0.46055	-2.17	-17.01	-13.02	-0.3096	-0.2706	-0.2036	
0.32269	0.821426	0.467992	-1.96	-10.99	-7.84	-0.2954	-0.2635	-0.2053	
0.322324	0.824476	0.475068	-0.7	-7.98	-6.02	-0.3065	-0.2753	-0.2128	
0.315004	0.821426	0.465308	0.56	-4.76	-4.69	-0.3039	-0.2678	-0.2037	
0.290238	0.825574	0.453352	2.03	-1.89	-2.52	-0.3012	-0.2633	-0.2037	
0.29036	0.8357	0.437126	2.03	-0.28	0.21	-0.2967	-0.2696	-0.1991	
0.302316	0.840458	0.435662	2.03	-0.49	1.68	-0.3025	-0.2678	-0.2067	
0.299998	0.839604	0.438468	2.66	-0.84	1.47	-0.2981	-0.271	-0.2022	
0.307684	0.83753	0.446154	2.24	0.35	1.47	-0.2993	-0.2756	-0.2037	
0.31903	0.830698	0.44774	2.73	2.17	3.15	-0.3007	-0.2771	-0.2037	
0.329644	0.829966	0.426878	2.73	4.97	6.79	-0.308	-0.2737	-0.2051	
0.304878	0.86925	0.416142	1.96	7.42	9.17	-0.2963	-0.2788	-0.2037	
0.31659	0.87169	0.43432	2.24	8.61	9.31	-0.2997	-0.2648	-0.2022	
0.324032	0.848632	0.430416	1.33	11.06	7.91	-0.3009	-0.2725	-0.1991	
0.308172	0.856928	0.41724	1.68	11.55	7.21	-0.2985	-0.2572	-0.2053	
0.307684	0.852536	0.433588	0.91	11.34	6.93	-0.301	-0.2694	-0.1991	
0.318176	0.834724	0.445056	1.19	12.67	7.91	-0.3069	-0.263	-0.2159	
0.322812	0.819474	0.45811	4.41	15.89	10.15	-0.2952	-0.2681	-0.2068	
0.347212	0.803736	0.485682	6.72	19.67	12.81	-0.3039	-0.2662	-0.2113	
0.374052	0.79178	0.496174	9.94	26.11	15.96	-0.2935	-0.2773	-0.2068	
0.393328	0.790438	0.491904	14.63	35.84	19.6	-0.295	-0.2711	-0.216	
0.41785	0.78934	0.49349	16.31	43.68	22.19	-0.2995	-0.2663	-0.2174	
0.420778	0.778604	0.464454	17.29	51.59	25.06	-0.2966	-0.268	-0.2159	
0.40565	0.798124	0.457134	21.14	58.17	28	-0.2864	-0.2668	-0.2252	
0.395158	0.799954	0.464942	21.42	63.63	30.8	-0.2878	-0.2698	-0.2282	
0.43493	0.77348	0.480436	20.44	65.1	31.29	-0.2907	-0.2635	-0.2405	
0.453596	0.762744	0.472506	19.67	63	32.76	-0.2806	-0.2639	-0.2375	
0.439688	0.803492	0.426512	21.07	60.27	36.68	-0.2791	-0.2639	-0.2513	
0.41602	0.856196	0.367708	22.4	67.27	40.81	-0.2706	-0.2612	-0.2407	
0.40077	0.874496	0.363194	21.56	73.01	41.86	-0.2707	-0.2566	-0.2498	
0.427976	0.850218	0.408334	20.3	74.83	41.72	-0.2749	-0.2595	-0.2528	
0.444568	0.795318	0.398574	23.03	70.63	44.52	-0.266	-0.2628	-0.259	
0.481412	0.765184	0.414556	20.79	72.03	46.13	-0.2562	-0.254	-0.2683	
0.42578	0.809958	0.324276	23.94	78.05	51.73	-0.2591	-0.2492	-0.2759	
0.384544	0.884744	0.294142	26.18	85.19	52.99	-0.2576	-0.2508	-0.2821	
0.373808	0.917806	0.31049	28.63	87.92	55.02	-0.2475	-0.2496	-0.2806	
0.409188	0.818742	0.344162	19.18	91.98	57.68	-0.2435	-0.239	-0.2853	
0.465064	0.810324	0.401624	19.39	94.36	58.38	-0.2374	-0.2423	-0.3052	
0.44713	0.886818	0.369416	24.08	101.78	52.57	-0.2276	-0.238	-0.2931	
0.345138	0.95343	0.329034	26.53	112.07	51.31	-0.2171	-0.243	-0.313	
0.294996	0.896944	0.336842	22.54	120.26	53.69	-0.2126	-0.2477	-0.3176	
0.312442	0.85278	0.386984	23.24	121.87	57.96	-0.1855	-0.2395	-0.3164	
0.31598	0.867786	0.38674	26.39	117.46	58.45	-0.1785	-0.2289	-0.3302	
0.301462	0.870104	0.416508	26.74	115.85	61.81	-0.1887	-0.224	-0.3317	
0.305122	0.864736	0.436516	29.4	111.58	64.82	-0.1667	-0.2355	-0.3334	
0.289262	0.848388	0.439322	28.91	111.65	64.26	-0.1505	-0.2391	-0.3519	
0.280112	0.832772	0.45445	31.01	109.13	63.77	-0.1408	-0.2318	-0.3413	
0.282186	0.82045	0.463722	35.77	109.2	60.55	-0.1319	-0.2367	-0.3429	
0.261202	0.854366	0.459086	41.65	110.18	59.78	-0.1217	-0.2401	-0.3445	
0.236192	0.86498	0.460794	44.73	110.04	59.85	-0.1144	-0.2388	-0.3599	
0.21777	0.847534	0.461282	45.08	109.62	55.93	-0.0941	-0.2441	-0.3539	
0.208864	0.87718	0.449814	46.06	101.78	52.22	-0.0852	-0.2506	-0.3479	
0.22387	0.892918	0.43066	45.36	94.57	47.11	-0.0817	-0.2691	-0.351	
0.20313	0.908168	0.426512	41.51	89.53	42.77	-0.0659	-0.2666	-0.3481	
0.176534	0.917562	0.452864	40.74	85.19	37.66	-0.0586	-0.2715	-0.3435	
0.136274	0.89365	0.432002	35.49	82.25	32.62	-0.0528	-0.2732	-0.3467	
0.127246	0.900482	0.417484	35	71.4	30.66	-0.0411	-0.2767	-0.3452	
0.114924	0.875472	0.407114	31.71	62.44	29.19	-0.0411	-0.2782	-0.3406	
0.116876	0.885842	0.408212	29.47	51.24	26.74	-0.0249	-0.2865	-0.3423	
0.158844	0.900116	0.409554	26.46	42.14	24.78	-0.019	-0.2944	-0.3362	
0.1708	0.919148	0.437614	21.07	36.19	21.91	-0.0148	-0.2884	-0.3348	
0.187148	0.914756	0.44042	15.82	31.78	19.95	-0.0245	-0.3018	-0.3346	
0.206302	0.87596	0.451888	9.1	28.7	16.59	-0.0189	-0.2943	-0.3408	
0.220088	0.85095	0.446154	8.26	22.96	14.28	-0.0174	-0.3006	-0.3301	
0.215452	0.862174	0.45018	9.52	16.1	12.88	-0.0187	-0.3005	-0.3378	
0.219234	0.851072	0.454938	4.62	15.54	12.04	-0.0118	-0.2931	-0.3348	
0.223626	0.840458	0.440176	4.97	13.86	12.53	-0.0188	-0.3021	-0.3255	
0.255102	0.847046	0.443958	5.53	6.79	12.53	-0.0159	-0.3037	-0.321	
0.249856	0.869616	0.453962	3.36	3.92	7.7	-0.0057	-0.3056	-0.3272	
0.279624	0.845948	0.449936	1.12	0.91	6.65	-0.016	-0.3006	-0.3256	
0.2989	0.843386	0.449692	1.68	-1.26	7.63	-0.023	-0.3065	-0.3285	
0.2989	0.874374	0.449448	1.61	-1.19	5.6	-0.0013	-0.3073	-0.3272	
0.27633	0.84729	0.454816	-2.17	-0.07	4.55	-0.0185	-0.3097	-0.3347	
0.305732	0.825452	0.469578	-3.08	0.21	4.97	-0.0157	-0.3068	-0.3271	
0.309148	0.818864	0.468602	-0.91	0.84	4.34	-0.0145	-0.3022	-0.3179	
0.290604	0.846558	0.443226	1.19	0.63	3.5	-0.019	-0.2959	-0.3255	
0.290604	0.857416	0.439322	1.61	-1.05	3.78	-0.0146	-0.2976	-0.3302	
0.298168	0.86864	0.431148	0.14	-1.89	3.78	-0.0245	-0.3018	-0.3392	
0.30195	0.85949	0.43981	-2.66	-1.47	3.43	-0.0175	-0.2975	-0.3225	
0.299144	0.870714	0.45689	-2.38	-2.45	1.26	-0.017	-0.3098	-0.3332	
0.28914	0.857172	0.442128	-2.94	-3.99	-3.08	-0.0234	-0.2927	-0.3301	
0.284138	0.845094	0.432368	-3.01	-6.37	-4.55	-0.023	-0.3019	-0.3347	
0.26962	0.856806	0.426024	-3.01	-8.61	-5.04	-0.016	-0.2991	-0.3286	
0.255102	0.862174	0.436028	-3.5	-11.55	-5.53	-0.0248	-0.2957	-0.327	
0.26657	0.859734	0.434442	-5.39	-14.28	-6.79	-0.0191	-0.2913	-0.3301	
0.270962	0.865224	0.421632	-6.37	-18.34	-8.96	-0.026	-0.3018	-0.33	
0.249856	0.879132	0.418826	-7.63	-21.7	-11.62	-0.0261	-0.2972	-0.3346	
0.23058	0.882304	0.414068	-9.59	-24.57	-13.51	-0.0302	-0.3032	-0.3392	
0.212646	0.88328	0.41297	-13.02	-28.56	-15.12	-0.0293	-0.291	-0.327	
0.172508	0.906948	0.381738	-15.96	-34.44	-18.2	-0.0331	-0.3031	-0.3346	
0.147742	0.919514	0.426024	-17.5	-41.3	-22.89	-0.0292	-0.2909	-0.3377	
0.172996	0.90768	0.46787	-19.81	-50.19	-24.99	-0.0466	-0.2888	-0.3314	
0.25681	0.870104	0.47031	-21.49	-47.81	-33.18	-0.041	-0.2813	-0.3391	
0.278892	0.861076	0.448716	-24.29	-51.52	-37.03	-0.0409	-0.2859	-0.3376	
0.219234	0.89182	0.382836	-30.38	-54.04	-42.49	-0.0554	-0.2839	-0.3374	
0.191174	0.87718	0.393206	-32.13	-64.47	-43.12	-0.051	-0.284	-0.3421	
0.209474	0.889258	0.423218	-28.42	-69.51	-45.5	-0.0571	-0.2746	-0.3374	
0.25681	0.937936	0.439322	-26.32	-73.01	-49.91	-0.0584	-0.2761	-0.3451	
0.28792	0.92659	0.435906	-33.6	-70.56	-53.62	-0.0676	-0.2651	-0.3312	
0.281698	0.874862	0.429806	-38.15	-69.09	-54.25	-0.0777	-0.2631	-0.3418	
0.253272	0.82045	0.418338	-36.12	-70.77	-52.22	-0.08329999	-0.2645	-0.3479	
0.217404	0.839116	0.416508	-31.78	-73.92	-50.61	-0.0924	-0.255	-0.3432	
0.208498	0.880352	0.418582	-26.18	-74.97	-51.38	-0.0893	-0.2581	-0.3494	
0.211914	0.900848	0.43737	-22.96	-72.31	-50.75	-0.1051	-0.2575	-0.3569	
0.271694	0.853024	0.457988	-25.2	-70.07	-46.2	-0.105	-0.2621	-0.3538	
0.35014	0.775676	0.497272	-26.53	-71.54	-44.1	-0.1011	-0.25	-0.3493	
0.359046	0.784948	0.480436	-26.32	-70	-41.02	-0.1143	-0.2465	-0.3446	
0.30683	0.83265	0.453108	-25.83	-68.88	-39.76	-0.1099	-0.2482	-0.3416	
0.269498	0.855342	0.450302	-23.94	-67.41	-43.47	-0.1286	-0.2475	-0.3475	
0.298046	0.800564	0.500688	-21.42	-60.06	-38.85	-0.1361	-0.2396	-0.3535	
0.330498	0.776286	0.483242	-16.73	-53.69	-31.36	-0.1449	-0.2393	-0.3367	
0.361242	0.795074	0.47397	-14.35	-52.78	-26.67	-0.146	-0.2469	-0.3397	
0.316224	0.824354	0.493612	-12.74	-49.84	-22.89	-0.148	-0.2331	-0.3351	
0.324032	0.814594	0.511546	-11.76	-42.77	-20.23	-0.162	-0.2464	-0.3349	
0.368562	0.784826	0.503128	-12.11	-37.31	-19.32	-0.1607	-0.2465	-0.3182	
0.375272	0.779824	0.494832	-12.88	-32.27	-17.5	-0.1596	-0.2296	-0.3365	
0.344894	0.795806	0.504958	-9.17	-25.34	-13.51	-0.1641	-0.2279	-0.3258	
0.358924	0.836798	0.485194	-7.77	-18.97	-7.35	-0.1621	-0.2418	-0.3395	
0.35075	0.853512	0.48678	-9.1	-9.31	-5.18	-0.1665	-0.2401	-0.3319	
0.331108	0.823744	0.499224	-9.8	-2.73	-1.4	-0.1619	-0.251	-0.3288	
0.376492	0.787388	0.503616	-11.62	-0.28	2.87	-0.171	-0.2384	-0.3257	
0.394548	0.755424	0.511058	-13.93	2.03	6.3	-0.1725	-0.2322	-0.3379	
0.40321	0.772626	0.514474	-10.85	5.95	9.31	-0.1681	-0.237	-0.3334	
0.41175	0.766648	0.531432	-8.4	12.25	13.23	-0.1742	-0.226	-0.3379	
0.394426	0.758108	0.540338	-6.37	17.22	16.73	-0.1796	-0.2366	-0.3348	
0.358436	0.748958	0.545828	-4.62	20.23	19.04	-0.1667	-0.2324	-0.3395	
0.325374	0.74298	0.545218	-4.48	20.51	21.7	-0.1586	-0.2158	-0.3442	
0.294264	0.754448	0.544974	-1.68	16.8	22.68	-0.1613	-0.2234	-0.3365	
0.29402	0.779702	0.549976	0.7	13.72	21	-0.1685	-0.2201	-0.3441	
0.305488	0.784704	0.56486	1.82	10.5	17.85	-0.1643	-0.2202	-0.3365	
0.319152	0.781898	0.566934	1.33	11.06	15.33	-0.1632	-0.2065	-0.3427	
0.318054	0.793366	0.565958	2.59	13.3	12.18	-0.1656	-0.2232	-0.3441	
0.309636	0.79727	0.556686	3.85	18.27	9.24	-0.1671	-0.2201	-0.3426	
0.314272	0.792878	0.554246	6.93	21.28	8.47	-0.1616	-0.2126	-0.3457	
0.32757	0.7869	0.550464	7.21	22.75	8.26	-0.1568	-0.2235	-0.3488	
0.32635	0.776896	0.536922	7.84	23.1	7.63	-0.1566	-0.2297	-0.3488	
0.324764	0.78385	0.540704	9.52	23.31	4.41	-0.1497	-0.2192	-0.355	
0.31476	0.788242	0.529968	10.36	24.01	0.77	-0.1482	-0.2238	-0.3489	
0.29158	0.789218	0.518256	13.09	23.03	-2.31	-0.1425	-0.221	-0.3505	
0.276574	0.79178	0.513376	14.49	20.3	-4.27	-0.1469	-0.2178	-0.3474	
0.268766	0.788242	0.509472	14.28	17.99	-4.76	-0.1463	-0.2362	-0.3534	
0.258884	0.821548	0.507764	14.84	15.96	-3.99	-0.1319	-0.2351	-0.3521	
0.223382	0.830332	0.48495	10.57	17.71	-2.03	-0.1376	-0.2365	-0.352	
0.188368	0.848876	0.473116	8.96	17.71	-1.26	-0.1305	-0.2352	-0.349	
0.173606	0.860832	0.468114	6.16	16.66	-0.35	-0.1263	-0.2308	-0.346	
0.180194	0.864126	0.466772	3.36	12.81	0.7	-0.126	-0.24	-0.346	
0.196176	0.865224	0.482144	0.84	8.82	2.31	-0.1258	-0.2461	-0.3475	
0.201056	0.860832	0.490806	-1.54	7.28	2.52	-0.1275	-0.2368	-0.3536	
0.21167	0.84973	0.499834	-1.68	5.67	1.33	-0.1187	-0.2417	-0.3476	
0.222284	0.8479	0.498004	-1.82	4.41	-1.33	-0.1217	-0.2401	-0.3399	
0.219234	0.854366	0.499224	-1.82	2.73	-3.71	-0.1233	-0.2324	-0.3522	
0.207644	0.846314	0.493002	-2.87	2.17	-4.9	-0.1233	-0.2324	-0.3506	
0.206668	0.835334	0.498126	-2.59	-1.26	-5.95	-0.1175	-0.2341	-0.3492	
0.208742	0.826184	0.50447	-3.64	-4.9	-7.28	-0.1247	-0.2354	-0.3445	
0.217404	0.81191	0.513986	-3.36	-7.49	-8.4	-0.1249	-0.2277	-0.3522	
0.221674	0.820328	0.522892	-2.73	-8.4	-9.17	-0.1221	-0.2263	-0.3507	
0.219478	0.814594	0.52582	-3.15	-8.54	-9.1	-0.1261	-0.2353	-0.3521	
0.226188	0.80947	0.52643	-3.5	-9.31	-7.63	-0.126	-0.24	-0.3491	
0.236558	0.798246	0.530944	-3.71	-9.31	-4.48	-0.1161	-0.2342	-0.3476	
0.23363	0.798246	0.529358	-2.59	-7.42	-3.15	-0.1289	-0.2368	-0.3551	
0.230946	0.804834	0.532652	0.21	-6.09	-2.24	-0.1319	-0.2336	-0.3551	
0.227652	0.823744	0.528992	1.82	-4.55	-1.82	-0.1258	-0.2446	-0.3475	
0.227774	0.82777	0.530334	1.26	-4.83	-1.47	-0.1275	-0.2353	-0.3628	
0.23912	0.807884	0.52704	-0.56	-4.34	-1.19	-0.1189	-0.2356	-0.3507	
0.240218	0.8113	0.519476	-0.07	-4.34	-1.68	-0.1275	-0.2368	-0.3536	
0.23485	0.821914	0.512522	0.84	-3.08	-2.45	-0.1245	-0.24	-0.3491	
0.231922	0.831918	0.504836	0.84	-1.4	-2.8	-0.1245	-0.2415	-0.3445	
0.22387	0.833504	0.500444	-0.14	-1.19	-2.45	-0.129	-0.2368	-0.3506	
0.221674	0.829112	0.49837	-1.82	-2.1	-1.4	-0.1188	-0.2402	-0.3445	
0.2318	0.819718	0.508984	-2.59	-3.99	-0.49	-0.1176	-0.231	-0.3522	
0.233508	0.828258	0.51179	-2.17	-3.71	-0.56	-0.1264	-0.2277	-0.3491	
0.240462	0.826062	0.515084	-1.33	-3.01	-0.63	-0.1278	-0.2276	-0.3506	
0.244854	0.820328	0.513986	-1.33	-1.68	-0.28	-0.1291	-0.2322	-0.3475	
0.241316	0.821792	0.525576	-0.49	-0.77	0.91	-0.1248	-0.2339	-0.3476	
0.239486	0.81679	0.519842	-0.63	0.21	0.91	-0.1291	-0.2353	-0.3429	
0.244854	0.808128	0.51484	-0.21	0.14	0.7	-0.126	-0.24	-0.3445	
0.24949	0.806908	0.512644	0.77	0.91	1.54	-0.1306	-0.2337	-0.3414	
0.245952	0.810812	0.517158	1.4	1.05	1.75	-0.1336	-0.229	-0.346	
0.239242	0.81618	0.513498	1.47	1.19	1.82	-0.129	-0.2368	-0.3475	
0.241072	0.827526	0.515816	1.47	0	1.54	-0.1247	-0.2385	-0.3369	
0.244244	0.821792	0.51667	0.63	-0.14	1.54	-0.1247	-0.2369	-0.3445	
0.245952	0.816546	0.514108	0.63	-0.63	0.98	-0.1289	-0.2383	-0.3475	
0.247782	0.824842	0.5124	1.05	-0.91	0.07	-0.1251	-0.2262	-0.343	
0.242658	0.832772	0.508862	0.63	-0.35	-0.56	-0.1234	-0.2293	-0.3583	
0.24278	0.829112	0.511424	0.7	-0.56	-0.42	-0.1364	-0.2304	-0.3505	
0.242536	0.827648	0.508374	-0.42	0	-0.49	-0.1218	-0.237	-0.3461	
0.245586	0.821914	0.516548	-0.07	-0.84	-0.49	-0.1264	-0.2246	-0.3598	
0.247172	0.813496	0.514474	-0.21	0.28	-0.49	-0.1307	-0.2306	-0.3414	
0.247172	0.81435	0.51179	0.28	0.63	-0.21	-0.1203	-0.2371	-0.3522	
0.233874	0.825696	0.513742	0.49	2.24	0.35	-0.1303	-0.2367	-0.3628	
0.232654	0.818498	0.510692	0.28	2.03	0.98	-0.1289	-0.2399	-0.3444	
0.232898	0.828502	0.507642	0.14	0.77	1.26	-0.1332	-0.2397	-0.349	
0.232288	0.831674	0.505812	-0.14	0.21	1.12	-0.1319	-0.2351	-0.3521	
0.234606	0.825086	0.507642	-0.42	0.28	1.33	-0.1292	-0.2306	-0.3491	
0.231678	0.831308	0.507154	-0.21	-0.35	0.63	-0.126	-0.24	-0.3475	
0.227652	0.835822	0.506788	-0.21	-0.42	0.14	-0.1294	-0.223	-0.3506	
0.231922	0.831918	0.50813	-0.28	-1.05	0.14	-0.1277	-0.2338	-0.346	
0.236314	0.817522	0.506666	-0.98	-0.98	0.49	-0.1364	-0.2288	-0.352	
0.23729	0.827038	0.507642	-0.35	-1.75	-0.07	-0.132	-0.2336	-0.3429	
0.237046	0.834968	0.507154	-0.35	-1.33	-0.35	-0.1175	-0.2372	-0.3385	
0.232654	0.830942	0.505202	-0.42	-0.98	-0.14	-0.1407	-0.2349	-0.3413	
0.236436	0.832894	0.50508	-0.77	-2.1	-0.07	-0.1276	-0.2353	-0.3475	
0.237412	0.830332	0.503738	-1.75	-3.08	0	-0.1289	-0.2383	-0.3567	
0.242292	0.826306	0.510204	-1.61	-3.92	-0.21	-0.1305	-0.2367	-0.346	
0.244244	0.82838	0.51118	-1.12	-3.29	-1.33	-0.1277	-0.2338	-0.3368	
0.240096	0.827648	0.509106	-1.26	-2.59	-1.82	-0.142	-0.2363	-0.3489	
0.24034	0.829478	0.509838	-1.26	-2.52	-1.33	-0.1337	-0.2259	-0.3444	
0.240828	0.826794	0.512034	-1.75	-2.66	-0.7	-0.1292	-0.2337	-0.3384	
0.239852	0.82167	0.50996	-2.17	-2.52	-0.35	-0.1307	-0.2291	-0.346	
0.236802	0.827892	0.509228	-1.75	-2.38	-0.28	-0.1365	-0.2273	-0.3475	
0.23607	0.827282	0.509716	-1.75	-1.96	-0.07	-0.1291	-0.2368	-0.3307	
0.240096	0.829478	0.511302	-1.82	-2.38	0	-0.1376	-0.2395	-0.3474	
0.247172	0.821304	0.509472	-2.87	-2.73	0.14	-0.139	-0.2395	-0.3489	
0.24827	0.81923	0.510936	-3.01	-2.66	0.42	-0.1392	-0.2349	-0.3474	
0.249978	0.819596	0.522648	-2.59	-1.82	0.28	-0.1278	-0.2292	-0.3506	
0.24888	0.813618	0.521306	-2.31	-0.21	-0.35	-0.1277	-0.2307	-0.3491	
0.252296	0.805688	0.519232	-1.54	-0.56	-0.63	-0.1293	-0.2276	-0.3506	
0.251076	0.810934	0.514352	-1.47	-0.07	0.07	-0.132	-0.2336	-0.3429	
0.247538	0.810934	0.515572	-1.12	0.28	0.98	-0.1467	-0.227	-0.3443	
0.246074	0.81313	0.51606	-0.91	0.56	1.47	-0.1364	-0.2304	-0.3551	
0.24461	0.818132	0.51362	-0.98	0.28	1.61	-0.1336	-0.2274	-0.3536	
0.244244	0.818864	0.515694	-1.47	0.14	1.82	-0.1468	-0.2224	-0.3474	
0.246074	0.815204	0.5185	-1.89	0	2.31	-0.1396	-0.2226	-0.3429	
0.249246	0.807152	0.519964	-2.03	0	2.45	-0.1337	-0.2259	-0.349	
0.254492	0.814228	0.518256	-1.47	-0.35	1.82	-0.141	-0.2241	-0.3459	
0.255224	0.820938	0.519476	-0.63	0.56	1.75	-0.1422	-0.2271	-0.3535	
0.25315	0.817766	0.515572	-0.7	1.26	2.03	-0.1363	-0.2319	-0.3551	
0.251808	0.817766	0.516304	-0.77	0.63	2.03	-0.1379	-0.2288	-0.3505	
0.256932	0.81252	0.513376	-1.26	0	1.68	-0.1362	-0.2334	-0.3566	
0.258396	0.812764	0.518622	-0.49	0.28	1.4	-0.1336	-0.2274	-0.3521	
0.249734	0.817278	0.519354	-0.35	1.12	0.84	-0.1425	-0.2194	-0.3505	
0.251076	0.815448	0.51972	-0.35	0.91	0.91	-0.1379	-0.2288	-0.3459	
0.253516	0.816424	0.519476	-0.91	0.56	0.84	-0.138	-0.2288	-0.3413	
0.250344	0.817888	0.516792	-0.7	0.7	0.63	-0.1452	-0.2286	-0.3458	
0.248514	0.81435	0.519354	-0.35	1.05	0.56	-0.1324	-0.2244	-0.3383	