Sensor string: E
Serial number: 1970-01-0000
Firmware version: 2,015
Hardware version: 2,2
Calibration quality: 5
ax	ay	az	gx	gy	gz	mx	my	mz

-0.945012	0.04392	0.34587	0.07	-1.33	0	0.3357	0.0241	-0.4044	Reference
-0.946476	0.043066	0.34648	-0.21	-1.12	-0.07	0.33	0.0273	-0.3997	
-0.95038	0.043676	0.339526	-0.07	-1.54	0	0.3258	0.0199	-0.3968	
-0.96075	0.046604	0.329888	-0.21	-1.68	-0.14	0.3242	0.0274	-0.3998	
-0.97478	0.047336	0.32147	-0.35	-1.68	-0.07	0.3316	0.0245	-0.3873	
-0.983442	0.040992	0.315248	-0.63	-1.68	0.28	0.3274	0.0139	-0.3922	
-0.974414	0.03965	0.317444	-0.21	-3.43	0.28	0.3359	0.0214	-0.3873	
-0.961116	0.043676	0.310002	-0.07	-7	0.07	0.3371	0.0287	-0.398	
-0.95953	0.050264	0.309148	-0.56	-6.3	-0.28	0.3302	0.0138	-0.3953	
-0.95465	0.050752	0.311344	-1.33	-7.98	-0.49	0.3244	0.0184	-0.3984	
-0.95831	0.043554	0.320006	-0.28	-8.4	-0.07	0.3302	0.0169	-0.3906	
-0.956846	0.042334	0.331352	-0.7	-9.94	0.07	0.3287	0.0168	-0.3999	
-0.94733	0.042456	0.346114	-1.61	-10.08	-0.42	0.3287	0.023	-0.3936	
-0.94733	0.041968	0.36051	-1.75	-10.5	-0.91	0.3302	0.0138	-0.3969	
-0.959408	0.039772	0.353312	-1.75	-11.83	-0.98	0.3143	0.0139	-0.4079	
-0.965996	0.038186	0.354654	-0.07	-12.39	-0.7	0.3245	0.0108	-0.4001	
-0.95526	0.041724	0.36417	0.42	-12.53	-0.7	0.3157	0.0153	-0.4094	
-0.940254	0.038186	0.368684	-0.07	-12.88	-0.49	0.3098	0.0215	-0.4078	
-0.94489	0.042334	0.365024	-0.42	-13.86	-0.42	0.3114	0.0155	-0.4064	
-0.95831	0.04697	0.345992	-1.19	-17.08	-0.91	0.3212	0.0272	-0.4138	
-0.969778	0.043798	0.329644	-0.49	-19.46	-1.05	0.3157	0.0139	-0.4079	
-0.966728	0.042334	0.318542	-0.84	-23.94	-0.7	0.3055	0.02	-0.4141	
-0.965508	0.040748	0.295972	-0.56	-30.94	-0.21	0.3099	0.0154	-0.411	
-0.967094	0.033794	0.279868	-1.26	-36.33	0.35	0.3026	0.0168	-0.422	
-0.958798	0.02379	0.286456	-0.35	-38.71	0.7	0.2996	0.0244	-0.4219	
-0.944402	0.020618	0.321592	2.17	-38.85	0.56	0.2724	0.0143	-0.4239	
-0.953552	0.02867	0.34099	2.59	-40.25	-0.07	0.2837	0.02	-0.4346	
-0.954772	0.029768	0.354898	0.7	-45.99	-0.21	0.2752	0.011	-0.4395	
-0.947818	0.026474	0.36478	-0.28	-51.03	0.14	0.2706	0.0229	-0.4487	
-0.942572	0.037576	0.379054	1.05	-52.71	0.14	0.2606	0.0202	-0.4457	
-0.922076	0.042334	0.398452	1.12	-56.35	0.14	0.2621	0.0125	-0.4521	
-0.913292	0.039528	0.413458	1.12	-59.92	0.21	0.2577	0.014	-0.4552	
-0.894016	0.044164	0.457622	1.47	-60.48	-0.14	0.2419	0.0128	-0.4554	
-0.882548	0.05063	0.4819	1.75	-61.6	-0.98	0.2346	0.0173	-0.4632	
-0.834114	0.05795	0.504714	-0.07	-66.36	-1.4	0.2172	0.0174	-0.4758	
-0.796782	0.054412	0.519598	-0.14	-68.74	-1.89	0.2186	0.0156	-0.4852	
-0.775188	0.039528	0.543388	0.07	-68.67	-0.7	0.2012	0.0235	-0.4836	
-0.748714	0.037454	0.573034	1.47	-67.69	-1.19	0.1926	0.0191	-0.4885	
-0.724192	0.042944	0.596214	1.05	-70.35	-2.03	0.1753	0.024	-0.4823	
-0.698328	0.043554	0.615246	0.98	-72.38	-2.66	0.174	0.0103	-0.4904	
-0.673318	0.033428	0.63501	-0.21	-73.92	-2.66	0.1567	0.0135	-0.4967	
-0.64721	0.022082	0.655628	-0.56	-73.85	-2.66	0.1363	0.0229	-0.5014	
-0.623664	0.011224	0.683566	0.7	-75.04	-2.24	0.1322	0.0125	-0.4939	
-0.595238	0.018666	0.708698	1.82	-75.25	-3.15	0.1163	0.0142	-0.5018	
-0.567544	0.020496	0.728218	2.38	-77.21	-3.57	0.1047	0.0188	-0.5081	
-0.537898	0.023302	0.74481	2.87	-78.26	-4.13	0.0989	0.0205	-0.5034	
-0.50325	0.02257	0.77348	2.1	-78.05	-4.13	0.0844	0.0251	-0.5144	
-0.474336	0.028426	0.784948	2.66	-79.31	-4.13	0.0672	0.0209	-0.5131	
-0.439688	0.030256	0.808738	2.03	-77.35	-3.5	0.0659	0.0087	-0.518	
-0.415654	0.034404	0.840458	2.1	-74.48	-3.5	0.0428	0.0153	-0.5119	
-0.394914	0.037332	0.859978	1.54	-72.87	-2.94	0.0341	0.0153	-0.5198	
-0.374052	0.03599	0.870836	1.54	-73.57	-2.17	0.0172	0.0053	-0.5077	
-0.366488	0.030012	0.906826	1.19	-70.77	-1.54	0.0099	0.0115	-0.5092	
-0.335012	0.03172	0.935984	0.77	-71.05	-1.05	-0.0061	0.0207	-0.5138	
-0.294874	0.043188	0.939278	1.54	-71.54	-1.05	-0.0188	0.012	-0.511	
-0.261934	0.046238	0.95038	-0.7	-67.48	-3.15	-0.0347	0.0122	-0.5127	
-0.23973	0.046116	0.963434	-1.96	-64.96	-3.29	-0.0422	0.0273	-0.5187	
-0.214232	0.041846	0.970388	-2.1	-62.58	-2.87	-0.0536	0.0216	-0.5159	
-0.199592	0.036478	0.983198	-3.01	-59.36	-2.31	-0.0549	0.0171	-0.5144	
-0.180926	0.023546	0.998936	-3.15	-57.19	-1.89	-0.062	0.0082	-0.5131	
-0.145912	0.02257	1.015162	-2.24	-53.9	-2.24	-0.0736	0.0129	-0.5147	
-0.147742	0.016958	1.02236	-1.96	-49.91	-2.1	-0.09079999	0.0164	-0.507	
-0.105042	0.024888	1.028094	-0.21	-48.86	-1.82	-0.1009	0.0149	-0.5134	
-0.08686399	0.03172	1.050298	-1.12	-43.96	-1.89	-0.1025	0.0225	-0.5117	
-0.08235	0.034892	1.061522	-1.4	-40.81	-1.96	-0.1023	0.0151	-0.5056	
-0.077836	0.029402	1.083726	-2.24	-37.24	-1.68	-0.1182	0.02	-0.5025	
-0.051606	0.024278	1.086288	-2.03	-34.51	-2.03	-0.1194	0.0126	-0.4934	
-0.02867	0.021838	1.103856	-2.87	-29.19	-2.31	-0.1251	0.009699999	-0.4966	
-0.003416	0.019764	1.110444	-2.59	-24.15	-3.29	-0.1382	0.0175	-0.4919	
0.006832	0.019276	1.130818	-3.22	-18.48	-3.43	-0.1411	0.0129	-0.5029	
0.016836	0.020374	1.147288	-3.57	-12.18	-3.71	-0.141	0.0115	-0.4952	
0.020496	0.018056	1.15107	-3.15	-5.74	-3.01	-0.1466	0.0071	-0.4953	
0.038674	0.020496	1.155096	-3.22	0.42	-3.15	-0.1323	0.016	-0.4888	
0.036966	0.016226	1.161318	-3.99	8.54	-3.15	-0.1339	0.0235	-0.4917	
0.03599	0.00488	1.169614	-4.2	15.4	-3.85	-0.1239	0.0186	-0.5026	
0.03965	0.003172	1.175348	-3.99	22.89	-3.29	-0.1382	0.0221	-0.4918	
0.04392	0.002806	1.17181	-3.92	30.66	-2.73	-0.1254	0.0232	-0.4994	
0.036478	0.0061	1.168882	-4.55	39.83	-2.52	-0.134	0.0172	-0.5043	
0.020618	0.007442	1.15473	-4.69	49	-2.24	-0.1254	0.0231	-0.5057	
0.003416	0.003294	1.14253	-5.67	58.03	-2.1	-0.1197	0.0214	-0.5072	
-0.009516	-0.000122	1.126548	-6.3	66.29	-1.61	-0.0994	0.015	-0.5087	
-0.031232	0.00305	1.10532	-6.3	75.39	-0.42	-0.08109999	0.0358	-0.5065	
-0.058804	0.011712	1.07848	-6.51	84.35	0	-0.0751	0.0237	-0.502	
-0.10553	0.010492	1.050176	-8.75	92.26	0.56	-0.0594	0.0263	-0.5112	
-0.141276	0.003172	1.007842	-8.4	98.42	1.54	-0.0464	0.0292	-0.5063	
-0.18483	-0.007076	0.979538	-8.96	105.07	2.8	-0.032	0.0228	-0.5109	
-0.223504	-0.0122	0.951844	-8.89	110.6	3.78	-0.0206	0.0223	-0.5217	
-0.255956	-0.008417999	0.918416	-8.96	114.38	4.2	-0.0004	0.0267	-0.5105	
-0.287554	-0.016592	0.875472	-9.45	115.99	5.11	0.0267	0.0352	-0.5132	
-0.330864	-0.028182	0.835822	-9.52	118.44	6.37	0.0497	0.0333	-0.5114	
-0.373564	-0.020618	0.785558	-8.05	114.17	7.63	0.0683	0.0375	-0.5143	
-0.407114	-0.015982	0.712846	-5.46	114.73	7.63	0.09	0.0356	-0.5094	
-0.431636	-0.017812	0.656848	-8.82	126.77	8.12	0.09559999	0.0477	-0.5029	
-0.511546	-0.031354	0.654774	-5.88	130.13	7.28	0.1232	0.0352	-0.4998	
-0.546194	-0.035502	0.614636	-1.68	121.94	6.86	0.1518	0.0454	-0.4899	
-0.561932	-0.033062	0.562298	-2.45	116.06	6.86	0.1564	0.0333	-0.4917	
-0.60451	-0.022936	0.528016	-0.77	115.64	6.16	0.1706	0.0483	-0.4834	
-0.664778	-0.006832	0.51484	2.17	113.26	5.46	0.1911	0.0314	-0.4758	
-0.73871	-0.012322	0.507032	-0.14	103.95	6.65	0.2167	0.0476	-0.4736	
-0.800564	-0.003172	0.447008	1.19	95.62	7.63	0.2286	0.0325	-0.4614	
-0.82472	0.005612	0.400038	-0.56	89.74	7.77	0.2401	0.0369	-0.4565	
-0.821182	0.008296	0.380396	-0.56	86.38	7.7	0.2589	0.0383	-0.4438	
-0.833748	-0.003782	0.36783	-0.77	82.04	9.03	0.2662	0.0369	-0.436	
-0.835456	-0.00305	0.329888	5.81	81.48	8.75	0.2934	0.0425	-0.4294	
-0.872178	0.00854	0.272548	13.02	84.98	6.72	0.2863	0.0413	-0.4232	
-0.90402	0.01769	0.23363	15.05	81.2	5.53	0.3021	0.0456	-0.4167	
-0.934398	0.02928	0.203252	12.25	73.78	5.39	0.3124	0.0442	-0.4042	
-0.991982	0.03599	0.167506	8.47	70.35	5.18	0.3184	0.0259	-0.4076	
-1.06872	0.031476	0.122244	5.04	71.19	5.88	0.3343	0.0337	-0.3808	
-1.066402	0.029158	0.094794	1.89	74.69	5.18	0.3546	0.0272	-0.3839	
-1.03883	0.016714	0.087108	3.36	74.48	2.31	0.3618	0.0319	-0.3697	
-1.016138	0.028914	0.07991	9.24	76.02	-0.77	0.3577	0.0292	-0.3542	
-1.0309	0.010858	0.075396	2.8	68.25	0.21	0.3794	0.0275	-0.3447	
-1.032242	0.01708	0.060756	2.87	74.06	0.21	0.3852	0.0214	-0.3448	
-1.015284	0.006588	0.04209	12.25	69.37	-2.03	0.3867	0.023	-0.3385	
-1.036024	0.005612	0.02745	9.31	61.18	-3.92	0.4024	0.0364	-0.3303	
-1.039928	0.02135	0.010492	3.29	68.6	-2.1	0.4086	0.0215	-0.3134	
-1.03395	0.027084	-0.00549	-1.05	72.59	-1.54	0.4156	0.0336	-0.3068	
-1.01931	0.036966	-0.023302	0.14	65.59	-1.54	0.426	0.0231	-0.2929	
-1.02358	0.035258	-0.040504	0.98	67.27	-2.38	0.4231	0.0279	-0.2835	
-1.042002	0.025254	-0.067832	0.28	70.49	-1.96	0.4245	0.0339	-0.2818	
-1.042002	0.02989	-0.106384	-3.01	71.05	-2.66	0.4291	0.0236	-0.2649	
-1.0492	0.03355	-0.166774	-6.23	69.23	-4.83	0.4433	0.0417	-0.255	
-1.092144	0.028426	-0.234484	-11.34	60.9	-4.55	0.4421	0.0328	-0.2443	
-1.110078	0.019642	-0.274012	-13.51	47.67	-3.22	0.4464	0.0312	-0.2458	
-1.113982	0.00366	-0.289262	-13.02	35.35	-1.4	0.4566	0.0343	-0.2332	
-1.111786	-0.011224	-0.283406	-12.46	24.92	-0.84	0.4524	0.0253	-0.2334	
-1.125938	-0.007076	-0.278648	-6.3	15.05	-0.84	0.4522	0.0375	-0.2301	
-1.107882	0.002074	-0.25742	-9.52	2.8	0.42	0.4638	0.0359	-0.2222	
-1.086288	0.004148	-0.260714	-11.62	-9.45	0.63	0.4665	0.0449	-0.2236	
-1.104222	0.000244	-0.254614	-10.64	-19.6	0.98	0.4593	0.0434	-0.2268	
-1.054202	0.009028	-0.21228	-4.62	-29.75	1.05	0.4451	0.0332	-0.2256	
-1.052982	0.030378	-0.188978	-5.67	-30.17	0.63	0.4449	0.0437	-0.2269	
-1.059082	0.02989	-0.160308	-7.84	-24.92	0.84	0.4594	0.0342	-0.2379	
-1.079212	0.024766	-0.153598	-8.54	-25.55	0.7	0.4508	0.0328	-0.238	
-1.07543	0.028548	-0.150182	-2.45	-33.74	1.19	0.4434	0.0451	-0.2347	
-1.075796	0.042334	-0.136762	1.89	-40.95	1.61	0.4332	0.0387	-0.2614	
-1.087264	0.036966	-0.13847	-2.8	-39.83	0.98	0.4419	0.0372	-0.252	
-1.091534	0.032574	-0.153842	-6.58	-49	2.24	0.436	0.0401	-0.2629	
-1.073356	0.026718	-0.136884	-7.35	-64.05	2.73	0.4346	0.0355	-0.2677	
-1.049932	0.025742	-0.104188	-6.93	-60.83	1.05	0.4229	0.0447	-0.2754	
-1.075918	0.035136	-0.04392	0.07	-70.35	2.8	0.4158	0.0356	-0.2834	
-1.046394	0.046116	0.049166	-7.91	-83.58	3.5	0.4071	0.0355	-0.2944	
-1.041636	0.043798	0.100284	-12.67	-70.91	2.38	0.417	0.0382	-0.3021	
-1.097878	0.029402	0.06893	-5.53	-55.51	1.4	0.3997	0.0368	-0.3132	
-1.08336	0.021228	0.00122	1.75	-55.86	-0.14	0.3867	0.0323	-0.3258	
-1.038464	0.029524	-0.00488	-2.66	-71.26	0.56	0.3879	0.0365	-0.3382	
-1.000034	0.046116	0.072224	-5.81	-72.87	-1.26	0.3865	0.0289	-0.3462	
-0.977342	0.054778	0.119316	-5.04	-57.75	-3.43	0.3662	0.0351	-0.3556	
-1.033706	0.049654	0.118584	-4.34	-59.78	-3.15	0.3677	0.0398	-0.3446	
-1.048834	0.020496	0.101504	-2.94	-67.83	-1.75	0.3574	0.038	-0.3681	
-1.021872	0.02013	0.109434	0.91	-76.79	-0.21	0.3474	0.0367	-0.3682	
-0.972096	0.035258	0.14274	2.87	-79.24	-0.7	0.3501	0.0394	-0.3806	
-0.912682	0.037576	0.203984	-0.42	-76.58	-2.38	0.3312	0.0394	-0.3994	
-0.948916	0.029646	0.226066	-2.31	-71.54	-3.85	0.3283	0.0364	-0.4011	
-0.971486	0.014518	0.207034	2.31	-75.81	-3.5	0.324	0.0363	-0.4089	
-0.919026	0.01281	0.24461	-1.96	-78.75	-3.29	0.3067	0.0381	-0.4091	
-0.909632	0.01037	0.281942	-1.89	-70.42	-4.48	0.2935	0.0427	-0.42	
-0.889502	0.018422	0.333304	-1.75	-69.16	-5.53	0.2876	0.0456	-0.4293	
-0.869616	0.005246	0.378566	-3.22	-72.1	-5.39	0.2776	0.0474	-0.4279	
-0.87596	0.011468	0.451034	-0.28	-83.79	-3.92	0.2587	0.0443	-0.4484	
-0.840946	0.02074	0.444812	2.38	-105.77	-5.46	0.2427	0.0474	-0.4578	
-0.795318	0.012932	0.421632	-0.21	-109.69	-6.72	0.2256	0.0386	-0.4644	
-0.75213	0.020618	0.483242	2.31	-104.44	-7.49	0.1995	0.0387	-0.4818	
-0.752374	0.01586	0.529358	2.24	-100.24	-8.75	0.1895	0.0374	-0.4819	
-0.70272	0.016836	0.558394	5.32	-106.19	-8.33	0.1722	0.0345	-0.4884	
-0.624274	0.020374	0.591334	6.51	-108.22	-7.49	0.1678	0.0375	-0.493	
-0.57645	0.024888	0.6466	4.41	-103.88	-7.98	0.136	0.0411	-0.498	
-0.548268	0.015006	0.704306	1.68	-100.66	-8.61	0.1273	0.0442	-0.5011	
-0.499712	0.015616	0.741516	-2.1	-103.81	-9.45	0.1015	0.0385	-0.5077	
-0.428342	-0.000366	0.771162	-2.59	-106.19	-8.82	0.1044	0.0401	-0.5014	

-0.330376	-0.009393999	0.844484	-1.33	-100.73	-7.42	0.0582	0.0437	-0.5112	
-0.294508	-0.022326	0.87901	-2.52	-95.41	-7.63	0.0367	0.0397	-0.5083	
-0.260714	-0.034526	0.909144	-2.8	-89.95	-8.89	0.0265	0.0411	-0.5209	
-0.233996	-0.035014	0.926346	-0.42	-85.33	-9.45	0.0121	0.0413	-0.5226	
-0.208986	-0.0427	0.944158	0.21	-80.92	-8.75	0.002	0.0415	-0.5227	
-0.18422	-0.044652	0.964044	0.91	-75.6	-7.49	-0.0108	0.0403	-0.5197	
-0.172386	-0.048312	0.995276	0.91	-68.04	-5.88	-0.0178	0.033	-0.5137	
-0.16104	-0.048312	1.021994	0	-64.26	-4.76	-0.0411	0.0486	-0.5105	
-0.149816	-0.04026	1.037	0.49	-62.09	-4.2	-0.054	0.049	-0.5044	
-0.132004	-0.039406	1.055056	1.61	-60.06	-3.01	-0.0596	0.0367	-0.5187	
-0.112362	-0.036478	1.071038	1.68	-56.98	-1.68	-0.0581	0.0337	-0.5157	
-0.086742	-0.023058	1.078724	1.54	-54.74	-1.19	-0.0739	0.0418	-0.5017	
-0.066246	-0.011834	1.084092	0.98	-49.98	-0.7	-0.084	0.0373	-0.5112	
-0.056242	-0.015494	1.100806	-0.07	-41.58	-0.77	-0.0926	0.0344	-0.5129	
-0.050752	-0.018788	1.131062	-0.14	-33.81	-0.84	-0.0928	0.0434	-0.5143	
-0.037576	-0.013908	1.159488	0.07	-28.28	-0.84	-0.1041	0.0424	-0.4988	
-0.021228	-0.007686	1.184864	-0.35	-23.24	-1.05	-0.1012	0.0346	-0.5099	
-0.01403	-0.00915	1.207312	-1.26	-17.08	-1.12	-0.1126	0.0288	-0.5117	
-0.00854	-0.01769	1.203896	-1.4	-9.31	-0.84	-0.1084	0.0441	-0.4957	
-0.00366	-0.026474	1.204384	-2.17	0.07	-1.05	-0.1127	0.0349	-0.5053	
-0.000244	-0.03172	1.206946	-2.66	10.71	-1.61	-0.1083	0.0366	-0.4912	
0.00183	-0.03599	1.207434	-1.75	20.37	-2.87	-0.1141	0.0428	-0.488	
-0.004514	-0.033794	1.204628	-2.45	30.38	-2.87	-0.0911	0.0345	-0.5066	
-0.006222	-0.028792	1.190598	-1.96	38.78	-2.8	-0.1013	0.0392	-0.5067	
-0.015006	-0.033062	1.168272	-2.45	47.95	-2.73	-0.0957	0.0466	-0.508	
-0.037454	-0.034648	1.14436	-2.87	58.31	-2.24	-0.0797	0.0419	-0.5048	
-0.054534	-0.028182	1.109834	-3.22	66.57	-1.33	-0.0681	0.0387	-0.5017	
-0.081862	-0.030134	1.080554	-4.06	77.14	-0.84	-0.0612	0.0412	-0.5233	
-0.113704	-0.022814	1.044198	-5.04	84.91	-0.07	-0.0538	0.0368	-0.5109	
-0.151036	-0.023546	1.003694	-6.23	93.03	0.7	-0.0323	0.0424	-0.5121	
-0.201422	-0.024034	0.973804	-6.51	101.08	1.61	-0.0223	0.0467	-0.5104	
-0.24339	-0.02562	0.937326	-6.93	105.91	2.31	-0.0094	0.0481	-0.5071	
-0.282918	-0.023058	0.908534	-5.6	108.57	3.15	0.015	0.0462	-0.5053	
-0.320128	-0.025254	0.86071	-5.88	107.45	4.13	0.0292	0.0565	-0.505	
-0.352702	-0.02562	0.80398	-5.88	108.71	4.55	0.0523	0.0531	-0.5017	
-0.407968	-0.028914	0.758474	-5.81	112.63	4.2	0.0697	0.0483	-0.5	
-0.43432	-0.04148	0.72834	-7.28	115.64	4.62	0.0824	0.0616	-0.5028	
-0.488122	-0.02867	0.651602	-4.27	122.43	5.6	0.1026	0.0536	-0.5074	
-0.505812	-0.049288	0.625372	-12.53	134.61	4.97	0.1301	0.0486	-0.5056	
-0.571082	-0.045018	0.617808	-5.39	132.09	5.81	0.1502	0.0576	-0.4897	
-0.610488	-0.049044	0.57462	-3.22	120.96	6.37	0.1703	0.054	-0.4989	
-0.663192	-0.051362	0.544852	0.91	110.04	7.14	0.1833	0.0647	-0.4783	
-0.71797	-0.056242	0.52338	3.08	98.56	8.54	0.2021	0.0538	-0.4799	
-0.772016	-0.056364	0.482022	3.22	92.96	7.84	0.2166	0.0552	-0.4719	
-0.808006	-0.048312	0.446154	3.5	86.31	7	0.231	0.0534	-0.4718	
-0.821792	-0.035746	0.404552	2.38	81.48	7.42	0.2369	0.0489	-0.4625	
-0.812276	-0.028548	0.364048	3.5	81.2	7.7	0.2469	0.0595	-0.4528	
-0.82594	-0.031598	0.327692	2.31	86.94	7.7	0.2628	0.0626	-0.437	
-0.846436	-0.015616	0.292068	7.49	92.05	7.49	0.276	0.0503	-0.4356	
-0.869494	-0.007442	0.261568	7.56	91.91	6.79	0.2964	0.0473	-0.4137	
-0.931348	-0.004758	0.229604	9.87	91.35	6.37	0.3109	0.0488	-0.4026	


-1.033462	0.005246	0.118706	5.6	82.18	4.9	0.3456	0.0517	-0.3757	
-1.038586	0.013786	0.108458	1.75	74.69	3.15	0.3588	0.041	-0.3664	
-1.027362	0.003172	0.109068	0.07	65.38	-2.66	0.3604	0.0367	-0.3572	
-1.042246	-0.013908	0.091744	-6.51	68.04	3.08	0.3731	0.0516	-0.3552	
-1.030656	-0.032574	0.074542	-1.19	77.84	1.75	0.3775	0.0547	-0.3426	
-1.00955	-0.017324	0.057828	4.9	74.48	2.1	0.395	0.0472	-0.327	
-1.009916	-0.023668	0.03904	3.64	65.8	1.82	0.3938	0.0398	-0.3178	
-1.029436	-0.029402	0.032208	7.21	63.21	0.84	0.3966	0.0458	-0.3192	
-1.051396	-0.00122	0.000976	8.12	70.21	-0.63	0.414	0.0428	-0.302	
-1.060546	-0.00122	-0.029036	2.52	76.93	-3.01	0.4243	0.0337	-0.2958	
-1.044442	0.002074	-0.067222	6.72	72.31	-3.08	0.4228	0.046	-0.2832	
-1.054568	-0.000732	-0.10919	4.62	61.67	-1.89	0.4302	0.04	-0.277	
-1.065914	-0.007808	-0.148596	0.49	54.25	-1.05	0.4374	0.0384	-0.2723	
-1.070184	-0.01159	-0.19032	-3.08	43.75	-0.84	0.4373	0.0492	-0.2596	
-1.07848	-0.008417999	-0.216184	-6.02	31.5	0	0.4489	0.0506	-0.2548	
-1.071038	-0.009881999	-0.219722	-8.19	19.74	0.84	0.4403	0.0493	-0.2518	
-1.08336	-0.010492	-0.202032	-10.71	9.24	1.96	0.4432	0.0447	-0.2565	
-1.105686	-0.017812	-0.184586	-9.45	4.9	2.45	0.4476	0.0448	-0.2471	
-1.115446	-0.017324	-0.178486	-9.03	-3.5	1.96	0.4432	0.0492	-0.2533	
-1.122644	-0.008417999	-0.185684	-7.35	-11.76	1.82	0.4446	0.0507	-0.2533	
-1.115324	0.003538	-0.196786	-10.15	-21.77	2.38	0.4319	0.0437	-0.2411	
-1.121668	0.013786	-0.201544	-17.99	-28.84	3.36	0.436	0.0525	-0.2486	
-1.108614	0.012688	-0.183976	-27.02	-36.47	3.78	0.4474	0.0444	-0.2658	
-1.101294	0.006222	-0.14762	-33.04	-44.59	3.22	0.4374	0.043	-0.2706	
-1.059692	0.013054	-0.100406	-31.43	-39.27	4.48	0.4243	0.043	-0.2816	
-1.047614	0.006222	-0.027694	-31.99	-35.07	6.79	0.4328	0.0489	-0.2814	
-1.044442	0.013298	0.059292	-19.11	-22.05	2.31	0.4326	0.0656	-0.278	
-1.056154	0.030256	0.101016	-1.33	-10.57	3.85	0.427	0.0457	-0.294	
-1.094218	0.02684	0.040626	-1.33	-24.36	5.39	0.4209	0.0623	-0.3	
-1.082262	0.012932	-0.03965	-0.14	-59.29	-0.98	0.4039	0.0539	-0.2847	
-1.075552	0.007076	-0.065758	-8.05	-64.12	-0.07	0.4183	0.0473	-0.2987	
-1.01809	0.007076	-0.040748	-4.34	-44.87	-0.14	0.4153	0.0549	-0.3002	
-0.998448	0.04941	-0.003904	-2.66	-31.78	-0.49	0.4123	0.0563	-0.3064	
-1.076772	0.029524	0.045994	-8.75	-23.59	-0.91	0.3993	0.0533	-0.3191	
-1.104344	0.02196	0.064538	-2.38	-30.45	-1.61	0.3949	0.0547	-0.3284	
-1.099098	0.000976	0.06161	-2.1	-47.39	-2.8	0.3935	0.0487	-0.3301	
-1.016992	0.008905999	0.057218	7.49	-58.52	-2.8	0.3846	0.0639	-0.333	
-1.001376	0.020862	0.076494	1.47	-57.12	-2.24	0.3847	0.0577	-0.3394	
-1.009916	0.014396	0.09882	2.66	-50.12	-3.08	0.376	0.0516	-0.352	
-1.041026	0.004392	0.123098	6.79	-50.68	-5.11	0.3773	0.0637	-0.3502	
-1.015406	0.00244	0.132858	10.43	-56	-5.53	0.3702	0.0499	-0.3646	
-0.96868	0.012688	0.156526	10.01	-64.47	-4.2	0.3715	0.0496	-0.3786	
-0.945744	0.025132	0.154696	7.91	-61.18	-3.64	0.3643	0.0497	-0.3818	
-0.99369	0.017324	0.169702	1.68	-57.19	-3.43	0.3499	0.0454	-0.382	
-1.011014	0.011712	0.184342	4.9	-59.43	-4.2	0.3411	0.0577	-0.3803	
-1.00223	0.004392	0.208376	6.86	-66.29	-4.27	0.3267	0.0455	-0.4009	
-0.937692	0.006344	0.245708	3.99	-66.08	-3.85	0.3252	0.0531	-0.3977	
-0.930006	-0.004392	0.288408	0.7	-61.04	-3.64	0.3136	0.0546	-0.4087	
-0.94001	0	0.325862	3.15	-67.27	-2.94	0.3121	0.0453	-0.4244	
-0.928298	0.005124	0.34465	5.18	-73.85	-3.01	0.3019	0.0546	-0.4228	
-0.906094	-0.005368	0.37393	4.55	-75.88	-3.15	0.2817	0.0515	-0.4417	
-0.861198	0.001342	0.410652	7	-76.58	-1.89	0.2701	0.0549	-0.4371	
-0.842166	0.006222	0.44225	4.62	-77.14	-0.56	0.2643	0.0517	-0.4497	
-0.823012	0.000976	0.46604	4.34	-75.53	-0.35	0.2616	0.0396	-0.4531	
-0.811666	-0.007929999	0.491294	5.18	-77.21	-0.91	0.2284	0.0555	-0.4422	
-0.79361	-0.005124	0.512522	8.54	-79.38	-0.84	0.2254	0.0507	-0.4595	
-0.739686	0.005978	0.555954	8.47	-81.48	-1.05	0.2109	0.0523	-0.4705	
-0.703818	0.02074	0.585478	5.32	-81.9	-1.61	0.2096	0.0448	-0.4691	
-0.682834	0.016958	0.614636	1.61	-83.02	-3.29	0.1951	0.0449	-0.4755	
-0.652944	0.01281	0.634156	1.19	-84.63	-4.2	0.1708	0.0379	-0.4743	
-0.60817	0.00488	0.658556	1.47	-87.08	-4.2	0.1649	0.0346	-0.4947	
-0.572424	-0.000732	0.682468	0.84	-87.36	-3.36	0.1532	0.0468	-0.4992	
-0.529968	-0.005734	0.713944	0.84	-87.5	-3.01	0.1231	0.0381	-0.5059	
-0.498126	-0.002074	0.739686	1.89	-85.4	-4.34	0.1173	0.0382	-0.506	
-0.482144	-0.007686	0.77836	2.31	-83.23	-5.67	0.1028	0.0461	-0.5013	
-0.467748	-0.012444	0.79117	3.15	-84.63	-6.72	0.0856	0.037	-0.5188	
-0.43066	-0.022692	0.794586	3.78	-86.1	-7.7	0.07539999	0.0448	-0.5156	
-0.402722	-0.018788	0.824232	4.2	-81.2	-7.91	0.0683	0.0375	-0.5143	
-0.380884	-0.009028	0.852048	3.92	-78.47	-7.42	0.0382	0.0305	-0.5147	
-0.365146	-0.00122	0.867908	4.62	-78.54	-6.16	0.0221	0.0442	-0.5193	
-0.359656	-0.006222	0.886452	4.27	-76.09	-4.06	0.0136	0.0446	-0.5085	
-0.349286	-0.006344	0.904508	4.83	-73.08	-3.71	0.0081	0.0264	-0.5167	
-0.324032	-0.005734	0.930982	4.48	-72.1	-3.57	-0.0049	0.0342	-0.5198	
-0.287066	-0.008784	0.948062	3.36	-71.26	-3.78	-0.0134	0.0284	-0.5122	
-0.271816	-0.010614	0.951234	4.06	-69.72	-2.73	-0.028	0.0438	-0.5105	
-0.247416	-0.00549	0.966606	4.13	-65.8	-1.96	-0.0379	0.0273	-0.5171	
-0.226676	0.002928	0.988078	3.43	-62.44	-1.26	-0.055	0.0231	-0.5143	
-0.194102	0.008052	1.009916	3.29	-60.62	-1.47	-0.0537	0.0276	-0.5142	
-0.17202	0.019276	1.015406	2.38	-57.33	-0.7	-0.0566	0.0338	-0.5094	
-0.161894	0.0183	1.027606	1.96	-52.92	0.28	-0.0797	0.0404	-0.5049	
-0.153842	0.012932	1.051274	2.03	-46.48	0.21	-0.0809	0.0269	-0.5005	
-0.122488	0.010736	1.074332	1.05	-44.8	-0.63	-0.1027	0.0377	-0.5083	
-0.091988	0.01586	1.079578	1.05	-41.37	-1.47	-0.0939	0.0269	-0.5146	
-0.07625	0.021106	1.0858	-0.28	-34.93	-2.17	-0.0998	0.0392	-0.5066	
-0.067832	0.020862	1.109712	-1.75	-27.37	-2.8	-0.1096	0.029	-0.4945	
-0.059048	0.019642	1.115812	-1.33	-23.1	-3.57	-0.1183	0.026	-0.5024	
-0.042578	0.014396	1.126548	-1.68	-19.46	-2.94	-0.121	0.0232	-0.4932	
-0.027816	0.003904	1.135088	-3.01	-12.18	-3.22	-0.1254	0.0248	-0.4963	
-0.01525	0.001098	1.149118	-3.08	-4.41	-3.78	-0.1155	0.0289	-0.5086	
-0.006344	-0.003294	1.156926	-3.92	1.75	-4.34	-0.1197	0.0293	-0.4915	
0.000122	-0.011834	1.167174	-3.29	7.84	-5.46	-0.117	0.0381	-0.5022	
0.003294	-0.01403	1.163026	-2.52	14.07	-4.97	-0.1124	0.0245	-0.4962	
0.003782	-0.011102	1.150948	-2.66	20.93	-4.76	-0.1198	0.0305	-0.5086	
-0.000854	-0.010614	1.148142	-3.43	29.96	-4.62	-0.1184	0.0319	-0.5085	
-0.011102	-0.01281	1.149118	-3.36	37.52	-4.62	-0.0954	0.0347	-0.4989	
-0.018788	-0.01098	1.140334	-2.94	43.26	-4.06	-0.1026	0.0348	-0.5036	
-0.02074	-0.011224	1.123132	-3.29	50.19	-3.78	-0.0969	0.0315	-0.5099	
-0.04697	-0.013664	1.112518	-3.99	61.04	-3.78	-0.0854	0.0343	-0.5113	
-0.0732	-0.011468	1.087508	-4.76	66.85	-3.36	-0.0696	0.034	-0.5127	
-0.102358	-0.007686	1.063108	-4.76	73.64	-2.52	-0.0682	0.0324	-0.5158	
-0.135298	-0.002684	1.043954	-4.76	82.11	-1.68	-0.0553	0.0398	-0.5108	
-0.162992	-0.00366	1.013088	-5.11	86.66	-1.26	-0.0353	0.0423	-0.5168	
-0.192516	-0.008662	0.970388	-5.18	90.58	-0.98	-0.028	0.0439	-0.5089	
-0.230702	-0.013054	0.932324	-5.53	96.39	-0.77	-0.0078	0.0404	-0.5119	
-0.262056	-0.022082	0.892186	-7.07	101.85	-0.07	0.0022	0.0326	-0.5135	
-0.304634	-0.029646	0.867786	-4.34	102.9	0.56	0.0209	0.0369	-0.5117	
-0.350262	-0.031476	0.815814	-5.6	104.79	1.89	0.0352	0.0365	-0.5162	
-0.389302	-0.024644	0.77836	-4.2	103.11	2.24	0.0552	0.0482	-0.5158	
-0.429684	-0.01647	0.703086	-5.39	108.71	3.22	0.0726	0.0419	-0.5126	
-0.461526	-0.023912	0.672098	-9.31	122.99	3.08	0.0898	0.0493	-0.506	
-0.518866	-0.03477	0.670024	-6.44	123.83	2.17	0.113	0.0383	-0.5076	
-0.551684	-0.043066	0.625006	-3.92	116.62	1.82	0.1244	0.0519	-0.4947	
-0.610854	-0.040138	0.567788	-1.89	116.48	1.4	0.1505	0.0441	-0.4853	
-0.665144	-0.04209	0.550098	0.98	117.32	0.07	0.1691	0.0514	-0.4803	
-0.729438	-0.02806	0.529968	7.49	115.01	1.68	0.1848	0.057	-0.4847	
-0.759328	-0.030378	0.509472	4.62	104.23	2.31	0.1995	0.045	-0.4692	
-0.799466	-0.021716	0.48983	8.75	91.91	2.52	0.2196	0.0461	-0.4721	
-0.797514	-0.029646	0.456524	12.25	74.55	5.32	0.2369	0.0474	-0.4625	
-0.825086	-0.0305	0.415044	17.22	59.43	5.88	0.2458	0.0399	-0.4548	
-0.858392	-0.031964	0.35502	17.01	59.5	2.66	0.253	0.0429	-0.4469	
-0.910486	-0.007076	0.292678	21.98	68.6	-0.35	0.2587	0.052	-0.4389	
-0.934276	-0.001098	0.266936	10.85	79.59	-2.1	0.2676	0.0369	-0.4328	
-0.981124	0.001464	0.26291	7.98	80.71	-3.92	0.2805	0.038	-0.4389	
-1.004792	0.003904	0.25132	6.51	72.1	-4.27	0.2866	0.0277	-0.4204	
-1.01565	-0.001952	0.225212	8.61	60.27	-2.94	0.3052	0.0335	-0.417	
-1.030778	-0.009028	0.193614	11.9	53.48	-0.98	0.3155	0.0306	-0.4029	
-1.023214	-0.026962	0.1647	15.96	54.67	-4.62	0.3256	0.0242	-0.4092	
-1.002596	-0.039894	0.149572	12.53	56.84	-7.14	0.3199	0.0292	-0.3904	
-1.018456	-0.043676	0.133224	8.89	55.44	-8.96	0.3343	0.0319	-0.3918	
-1.044442	-0.045628	0.11468	4.27	49.28	-9.8	0.3442	0.0363	-0.3931	
-1.039074	-0.036722	0.100772	-0.91	37.94	-8.54	0.3572	0.0361	-0.3883	
-1.0492	-0.035746	0.101016	-4.2	29.47	-6.72	0.3559	0.0363	-0.3806	
-1.050298	-0.05185	0.119804	-8.33	24.5	-6.3	0.3516	0.0365	-0.3728	
-1.066402	-0.052216	0.132126	-8.82	18.76	-4.83	0.3631	0.0409	-0.3695	
-1.077382	-0.056486	0.134444	-16.66	10.99	-3.71	0.3575	0.0382	-0.3572	
-1.0858	-0.067466	0.152988	-23.38	9.73	-3.57	0.3645	0.0425	-0.3648	
-1.042246	-0.069418	0.181658	-12.39	15.75	-4.27	0.3645	0.0409	-0.3679	
-1.014674	-0.061	0.17873	-2.03	20.37	-4.13	0.3689	0.0441	-0.3569	
-1.0309	-0.055266	0.152256	6.51	18.62	-2.94	0.376	0.0468	-0.363	
-1.058838	-0.056974	0.131882	8.82	13.72	-1.75	0.3646	0.0426	-0.357	
-1.049688	-0.067954	0.131638	8.96	10.01	0.28	0.3746	0.0501	-0.3521	
-1.031876	-0.077104	0.13969	6.79	10.01	2.59	0.3703	0.0439	-0.3616	
-1.040172	-0.085156	0.135054	7.56	12.95	5.18	0.3675	0.041	-0.3586	
-1.036146	-0.071736	0.135786	9.45	12.67	6.86	0.3775	0.0484	-0.3567	
-1.037854	-0.069906	0.143838	6.16	11.76	8.96	0.3703	0.0454	-0.3631	
-1.03517	-0.068198	0.149938	7.42	9.17	11.41	0.3792	0.0303	-0.3555	
-1.0431	-0.074786	0.14823	5.74	6.44	14.07	0.3776	0.0378	-0.3585	
-1.03517	-0.066734	0.142862	9.17	2.52	16.24	0.3836	0.0303	-0.3524	
-1.012844	-0.049776	0.157746	7.14	-0.28	18.55	0.3749	0.0334	-0.3555	
-1.044686	-0.039894	0.169092	5.67	-5.46	21	0.3793	0.0321	-0.3399	
-1.035536	-0.040016	0.17446	5.53	-14.49	23.73	0.3823	0.0229	-0.3463	
-1.014552	-0.053314	0.173606	0.14	-18.83	27.51	0.3852	0.0196	-0.3557	
-0.99247	-0.051606	0.192394	3.57	-16.45	31.99	0.3824	0.0214	-0.3432	
-1.004304	-0.02196	0.187514	5.74	-9.24	35.42	0.3709	0.0124	-0.3529	
-0.9699	-0.030012	0.186782	-1.89	-5.32	39.48	0.3769	0.0002	-0.3531	
-0.974048	-0.014152	0.205692	1.4	-3.22	43.26	0.3796	0.0092	-0.356	
-0.977708	0.007808	0.211304	1.54	-5.32	47.81	0.377	-0.009	-0.3641	
-0.983198	0.02135	0.207888	-0.49	-7.28	49.84	0.3669	-0.0057	-0.3611	
-0.97722	0.043188	0.21289	-4.2	-10.5	54.95	0.3699	-0.0164	-0.3675	
-0.975878	0.060756	0.2135	-2.66	-6.65	57.89	0.3643	-0.0268	-0.3631	
-0.947086	0.072224	0.229482	-4.76	-9.8	60.13	0.3617	-0.0404	-0.3634	
-0.96563	0.102236	0.232654	0.49	-7.77	62.65	0.3703	-0.0405	-0.3633	
-0.966484	0.134322	0.234484	-1.89	-15.47	64.05	0.3561	-0.051	-0.3714	
-0.951966	0.165676	0.241194	-1.82	-21.7	64.61	0.3534	-0.0567	-0.3591	
-0.94916	0.197396	0.230092	-1.96	-22.61	64.68	0.3505	-0.0599	-0.3686	
-0.921588	0.216428	0.252662	-7.42	-23.31	65.66	0.3521	-0.0721	-0.375	
-0.930494	0.25193	0.257908	-5.04	-17.64	65.66	0.3535	-0.0737	-0.3781	
-0.91561	0.281454	0.282186	-9.03	-23.24	66.64	0.3437	-0.0839	-0.3676	
-0.921832	0.307928	0.287798	-3.36	-22.89	67.97	0.3351	-0.0931	-0.385	
-0.899994	0.336232	0.308294	-6.79	-20.86	67.97	0.3323	-0.0929	-0.3788	
-0.867786	0.367098	0.327692	-3.85	-23.94	66.99	0.328	-0.09739999	-0.3804	
-0.84119	0.394182	0.321958	0.28	-28.21	63.91	0.3181	-0.1156	-0.3934	
-0.825574	0.402844	0.328668	-0.28	-29.19	61.74	0.3114	-0.1318	-0.3798	
-0.831308	0.425048	0.336842	4.13	-25.2	57.54	0.3125	-0.1246	-0.3936	
-0.815204	0.465796	0.35441	6.79	-22.68	53.9	0.3083	-0.1274	-0.3906	
-0.81984	0.49654	0.370392	9.17	-26.81	50.05	0.2983	-0.135	-0.4002	
-0.785192	0.526064	0.356972	10.22	-34.86	46.06	0.2867	-0.1318	-0.4034	
-0.77714	0.558882	0.355264	10.22	-34.51	43.4	0.2784	-0.1497	-0.3991	
-0.78202	0.568886	0.375394	10.5	-29.19	41.72	0.2827	-0.1467	-0.3944	
-0.743102	0.593408	0.401624	11.48	-28.98	38.92	0.2728	-0.1666	-0.4182	
-0.726754	0.610122	0.409432	9.73	-31.15	36.75	0.2685	-0.1679	-0.4105	
-0.71675	0.606584	0.4087	7.77	-29.68	34.02	0.2628	-0.1647	-0.4089	
-0.707722	0.60573	0.415532	7.49	-27.23	31.71	0.2585	-0.1692	-0.4122	
-0.691374	0.60451	0.434076	5.04	-25.13	29.05	0.2543	-0.1767	-0.4155	
-0.676856	0.620858	0.44286	6.65	-25.76	26.11	0.2372	-0.19	-0.4159	
-0.65331	0.634522	0.442128	6.79	-25.62	23.52	0.2399	-0.1764	-0.4125	
-0.636718	0.637572	0.440298	6.09	-24.64	20.79	0.233	-0.1883	-0.4097	
-0.63562	0.640866	0.455792	5.81	-17.92	18.41	0.2313	-0.1856	-0.4268	
-0.63989	0.65392	0.464942	5.11	-17.5	15.05	0.2301	-0.1945	-0.4177	
-0.634522	0.652212	0.46543	6.44	-16.73	12.67	0.2242	-0.1883	-0.4176	
-0.62769	0.66429	0.470066	7.28	-15.82	9.45	0.2213	-0.1868	-0.4192	
-0.627324	0.679906	0.463112	7.56	-14.35	5.81	0.2212	-0.1885	-0.4316	
-0.631228	0.680394	0.473482	5.6	-11.62	2.1	0.2185	-0.1898	-0.4224	
-0.648308	0.68991	0.484096	3.64	-8.33	-2.03	0.2144	-0.2002	-0.4164	
-0.63989	0.701012	0.472018	3.5	-9.52	-5.67	0.223	-0.1973	-0.4131	
-0.642086	0.697962	0.473238	3.43	-5.95	-9.45	0.2071	-0.1941	-0.421	
-0.64172	0.70333	0.48495	2.52	-4.13	-14.42	0.21	-0.1972	-0.4242	
-0.642696	0.696254	0.488366	1.82	-3.99	-18.69	0.2072	-0.1985	-0.4149	
-0.64965	0.692594	0.495198	-0.98	-0.21	-23.59	0.21	-0.1957	-0.421	
-0.643184	0.69174	0.499468	-3.5	2.24	-28.49	0.2285	-0.187	-0.4253	
-0.634522	0.681248	0.485194	-8.54	4.69	-33.46	0.2141	-0.1868	-0.427	
-0.64111	0.659166	0.477508	-10.71	7.63	-37.45	0.2284	-0.1839	-0.4221	
-0.649528	0.656116	0.466406	-11.48	8.89	-41.65	0.2226	-0.1762	-0.4174	
-0.67588	0.624274	0.456036	-14.21	11.27	-45.71	0.224	-0.1747	-0.4173	
-0.681736	0.610366	0.454328	-15.54	15.4	-49.35	0.2325	-0.1689	-0.4218	
-0.685518	0.589382	0.457622	-17.43	15.47	-51.94	0.2395	-0.157	-0.4246	
-0.696254	0.571326	0.4453	-15.19	14.56	-54.6	0.2424	-0.16	-0.42	
-0.72346	0.555222	0.43005	-15.61	16.24	-58.66	0.2525	-0.1587	-0.4214	
-0.7381	0.532042	0.421754	-17.57	16.17	-61.46	0.2565	-0.1406	-0.4194	
-0.749568	0.51423	0.41297	-19.74	15.33	-63.42	0.265	-0.1348	-0.4192	
-0.739198	0.490074	0.41541	-21.56	14.42	-65.38	0.265	-0.1333	-0.4223	
-0.762866	0.460184	0.414068	-21.56	16.38	-65.94	0.2677	-0.1227	-0.4189	
-0.778726	0.436638	0.410896	-20.86	16.24	-67.2	0.2646	-0.1121	-0.4188	
-0.791292	0.411872	0.402478	-23.38	15.68	-67.69	0.2804	-0.1093	-0.4154	
-0.801174	0.38735	0.392962	-25.76	14.35	-67.62	0.2857	-0.09	-0.4274	
-0.808982	0.363804	0.382836	-26.25	13.16	-67.83	0.2915	-0.0808	-0.4116	
-0.833992	0.325862	0.382958	-29.26	16.38	-68.67	0.2869	-0.0764	-0.4256	
-0.852902	0.299388	0.387106	-27.09	16.03	-70.28	0.2911	-0.0642	-0.4144	
-0.889258	0.278404	0.373564	-28.84	12.67	-71.4	0.2996	-0.057	-0.422	
-0.917074	0.249612	0.365024	-32.9	10.36	-71.12	0.3066	-0.0433	-0.4138	
-0.895114	0.210328	0.371124	-35.07	6.37	-70.63	0.3031	-0.0148	-0.4242	
-0.911462	0.167262	0.36295	-37.94	5.46	-70.42	0.2975	-0.0175	-0.4118	
-0.922808	0.125294	0.362828	-39.97	4.41	-70	0.3029	0.0019	-0.4129	
-0.924028	0.088206	0.35502	-39.69	2.45	-69.58	0.3125	0.0273	-0.4186	
-0.915244	0.076128	0.3599	-38.85	1.54	-70.42	0.3081	0.035	-0.4138	
-0.90402	0.038308	0.37576	-42.07	-2.24	-72.17	0.3066	0.0348	-0.4263	
-0.895358	-0.023424	0.379786	-42.49	-9.94	-71.4	0.3093	0.047	-0.4166	
-0.89121	-0.076006	0.37027	-39.55	-11.48	-70.84	0.302	0.0547	-0.4166	
-0.871934	-0.109312	0.381982	-37.1	-9.03	-70.98	0.306	0.0713	-0.4146	
-0.866566	-0.130296	0.375394	-35.21	-7.63	-73.01	0.2869	0.0927	-0.4175	
-0.882304	-0.164334	0.375028	-34.93	-6.65	-75.46	0.2898	0.0895	-0.4238	
-0.873642	-0.209596	0.392352	-31.78	-5.95	-75.6	0.2923	0.1121	-0.4233	
-0.887428	-0.25193	0.38796	-30.59	-7.63	-75.11	0.2822	0.1122	-0.4281	
-0.860466	-0.276818	0.386252	-27.86	-16.52	-73.57	0.2807	0.1215	-0.4139	
-0.854	-0.316834	0.379176	-30.24	-12.53	-72.17	0.2833	0.1381	-0.4135	
-0.84973	-0.357216	0.399794	-30.73	-4.27	-71.19	0.2745	0.1488	-0.4134	
-0.837042	-0.38125	0.413336	-30.03	-7.42	-69.37	0.2653	0.1713	-0.4302	
-0.8357	-0.394182	0.401746	-30.59	-12.04	-67.34	0.2612	0.1688	-0.4084	
-0.81313	-0.419436	0.39772	-31.36	-14.35	-65.03	0.2594	0.1867	-0.419	
-0.788852	-0.438102	0.39833	-30.1	-15.26	-63.21	0.2452	0.1812	-0.4084	
-0.779458	-0.465918	0.400526	-30.24	-13.23	-60.34	0.2376	0.1961	-0.4222	
-0.771772	-0.459696	0.393816	-25.9	-11.9	-57.26	0.2331	0.2099	-0.4188	
-0.773846	-0.476898	0.396866	-26.39	-11.13	-53.9	0.2329	0.2174	-0.4187	
-0.762866	-0.471774	0.41541	-23.1	-10.64	-51.52	0.2285	0.2283	-0.4076	
-0.745908	-0.494832	0.410896	-23.52	-11.69	-47.81	0.217	0.2254	-0.4109	
-0.740662	-0.526064	0.412604	-22.61	-13.02	-42.7	0.2139	0.2343	-0.4201	
-0.737368	-0.568154	0.404308	-23.1	-14.84	-38.36	0.2153	0.2405	-0.4106	
-0.756156	-0.620492	0.401136	-20.93	-9.38	-34.09	0.2009	0.2408	-0.4123	
-0.748348	-0.637328	0.409432	-15.54	-7.84	-31.22	0.2066	0.2468	-0.4074	
-0.74054	-0.66673	0.406382	-12.95	-7.63	-28	0.2035	0.2573	-0.4135	
-0.735904	-0.674172	0.419314	-7.49	-5.25	-23.73	0.195	0.2515	-0.4075	
-0.71858	-0.662338	0.42761	-3.78	-6.3	-19.39	0.2051	0.2544	-0.4073	
-0.707844	-0.658556	0.421144	-2.73	-4.83	-14	0.2036	0.2558	-0.4104	
-0.684054	-0.631472	0.427488	-1.19	-0.91	-8.82	0.1921	0.2562	-0.4012	
-0.70272	-0.646844	0.423218	-1.19	-0.77	-1.82	0.1904	0.2682	-0.4072	
-0.70028	-0.64904	0.410774	0.42	-1.26	4.41	0.1906	0.2591	-0.412	
-0.700158	-0.645868	0.402234	4.34	2.24	9.24	0.1893	0.2516	-0.4075	
-0.695034	-0.639646	0.415288	4.76	5.81	13.86	0.1906	0.253	-0.4137	
-0.698694	-0.644282	0.414556	4.97	5.04	18.97	0.1963	0.2574	-0.4136	
-0.681736	-0.640744	0.414434	5.53	2.31	23.94	0.1935	0.2608	-0.3995	
-0.683566	-0.66063	0.411018	7.63	3.08	28.7	0.1979	0.2484	-0.4122	
-0.696498	-0.655872	0.411628	11.97	4.97	32.2	0.1965	0.2515	-0.409	
-0.71187	-0.630862	0.396134	15.96	6.02	35.56	0.2038	0.2438	-0.4106	
-0.724314	-0.615368	0.402722	17.5	7.49	38.99	0.201	0.2393	-0.4092	
-0.722972	-0.599874	0.418338	21.28	7.63	42.21	0.2097	0.2377	-0.4045	
-0.731878	-0.58377	0.411384	23.94	6.86	45.71	0.2126	0.2331	-0.4092	
-0.730902	-0.557174	0.415532	25.13	7.91	48.23	0.2154	0.2281	-0.4264	
-0.746274	-0.5368	0.408578	25.13	8.89	51.59	0.2271	0.2252	-0.4139	
-0.749202	-0.507886	0.40077	25.97	7.42	54.95	0.2288	0.207	-0.4158	
-0.762866	-0.467382	0.402844	26.6	9.8	57.4	0.2405	0.1962	-0.4175	
-0.771528	-0.435906	0.404308	26.67	10.15	59.99	0.2348	0.1979	-0.4112	
-0.785436	-0.417728	0.407236	26.53	10.36	64.05	0.2507	0.193	-0.4143	
-0.819352	-0.40138	0.396256	27.44	11.13	68.25	0.2566	0.1823	-0.4176	
-0.812276	-0.389058	0.410408	29.68	11.41	72.1	0.254	0.1704	-0.41	
-0.817278	-0.344284	0.400282	35	9.59	74.83	0.2554	0.1657	-0.4179	
-0.81679	-0.297192	0.380884	34.72	7	76.16	0.2701	0.1456	-0.426	
-0.843752	-0.251198	0.379054	35.98	9.8	76.09	0.2761	0.1366	-0.4198	
-0.879864	-0.218136	0.375638	38.43	7.77	76.58	0.2775	0.1288	-0.4293	
-0.890722	-0.180682	0.363438	40.67	6.72	78.19	0.2779	0.1108	-0.4235	
-0.904508	-0.133712	0.38003	43.89	5.25	80.71	0.2751	0.1032	-0.433	
-0.912804	-0.085522	0.392108	45.43	-3.22	82.04	0.2869	0.0895	-0.4238	
-0.915366	-0.047214	0.385886	45.22	-10.43	83.02	0.2886	0.076	-0.4209	
-0.890356	-0.007808	0.397598	46.27	-15.61	84.21	0.2877	0.0459	-0.4184	
-0.863882	0.049166	0.396866	45.36	-17.5	83.3	0.2849	0.0381	-0.4311	
-0.857416	0.111142	0.401624	42.84	-13.65	82.04	0.2837	0.0292	-0.4251	
-0.853146	0.16348	0.414312	39.83	-11.48	81.06	0.2822	0.0168	-0.4456	
-0.838994	0.219356	0.426634	37.73	-11.34	80.85	0.2813	-0.0054	-0.4289	
-0.824598	0.25864	0.435662	34.93	-11.41	81.34	0.283	-0.0238	-0.4401	
-0.812398	0.289994	0.4331	34.44	-12.81	82.11	0.2788	-0.0297	-0.4341	
-0.812154	0.309758	0.438346	34.16	-13.93	83.86	0.2705	-0.0431	-0.4329	
-0.806908	0.307806	0.444568	31.15	-11.41	85.54	0.2837	-0.0614	-0.4316	
-0.809592	0.330742	0.455426	29.96	-11.97	84.84	0.268	-0.0656	-0.4318	
-0.801418	0.367586	0.45262	29.54	-15.75	81.48	0.271	-0.081	-0.443	
-0.786412	0.406382	0.440054	30.87	-16.73	77.91	0.2612	-0.0959	-0.4418	
-0.773358	0.44347	0.466772	27.72	-15.47	73.43	0.2513	-0.0986	-0.4342	
-0.762744	0.467504	0.475922	25.2	-15.05	68.88	0.2556	-0.1018	-0.442	
-0.752008	0.514474	0.470432	26.04	-16.03	63.77	0.2428	-0.1106	-0.4408	
-0.739808	0.52155	0.477996	23.94	-14.35	60.34	0.2502	-0.1197	-0.4362	
-0.72773	0.537166	0.487146	25.06	-14.56	57.05	0.2475	-0.1257	-0.4332	
-0.72346	0.54412	0.481168	25.97	-13.93	52.71	0.2388	-0.127	-0.4349	
-0.732366	0.556076	0.48434	24.92	-14.07	49.14	0.2362	-0.1437	-0.4415	
-0.715042	0.569862	0.48312	25.97	-16.03	45.08	0.2278	-0.1587	-0.4434	
-0.703574	0.580354	0.472506	24.01	-15.47	40.67	0.2165	-0.1659	-0.4344	
-0.686128	0.588284	0.47763	22.05	-13.72	36.61	0.2267	-0.1782	-0.4392	
-0.674904	0.604022	0.47519	21	-14.77	32.55	0.2195	-0.1735	-0.4376	
-0.663558	0.628666	0.473482	19.46	-13.79	28.21	0.2123	-0.1765	-0.4424	
-0.663192	0.637938	0.477508	16.66	-12.6	23.87	0.2036	-0.1734	-0.444	
-0.653554	0.643428	0.47275	14.35	-13.51	20.16	0.2068	-0.1853	-0.4333	
-0.654896	0.657336	0.485438	13.51	-11.48	16.03	0.1982	-0.185	-0.4256	
-0.645136	0.665388	0.49532	11.41	-10.85	11.76	0.1894	-0.1821	-0.4412	
-0.645624	0.68015	0.493856	9.45	-11.13	7.49	0.1982	-0.1882	-0.4366	
-0.639158	0.69296	0.496052	7.42	-9.8	3.01	0.1954	-0.1941	-0.4336	
-0.6344	0.697474	0.495808	3.08	-8.26	-1.61	0.1882	-0.1941	-0.4368	
-0.626226	0.695278	0.496418	-1.61	-6.09	-5.32	0.1895	-0.1896	-0.4413	
-0.63135	0.686128	0.506056	-3.64	-4.41	-8.75	0.1942	-0.2046	-0.4323	
-0.644404	0.682346	0.520452	-4.97	-1.12	-12.67	0.1824	-0.1909	-0.4337	
-0.64172	0.679906	0.523136	-5.74	-0.7	-17.22	0.1866	-0.1849	-0.4335	
-0.634888	0.665388	0.525698	-6.09	2.17	-21.84	0.1881	-0.1895	-0.4351	
-0.621834	0.668926	0.520208	-8.47	5.18	-28	0.1983	-0.1864	-0.4241	
-0.63623	0.673562	0.531066	-12.81	11.62	-33.53	0.2038	-0.1776	-0.4301	
-0.642574	0.653432	0.542778	-16.38	14.21	-36.96	0.1995	-0.1821	-0.4317	
-0.640744	0.63684	0.525698	-20.16	14	-40.32	0.2053	-0.1807	-0.4317	
-0.645014	0.620614	0.530822	-24.29	20.23	-44.03	0.2094	-0.1733	-0.4377	
-0.639768	0.607194	0.511424	-25.41	22.54	-47.18	0.2152	-0.1703	-0.4298	
-0.65148	0.57523	0.512644	-26.67	25.34	-48.93	0.2278	-0.1555	-0.4325	
-0.681492	0.543266	0.498248	-27.65	28.28	-51.03	0.2304	-0.1421	-0.4415	
-0.694668	0.521306	0.49044	-27.3	29.33	-53.83	0.2435	-0.1421	-0.4274	
-0.718336	0.505934	0.474946	-28.84	29.47	-57.12	0.2449	-0.1452	-0.4321	
-0.73444	0.484706	0.4697	-30.45	30.59	-60.2	0.2562	-0.1333	-0.4317	
-0.73627	0.452498	0.463966	-32.34	32.41	-62.37	0.2615	-0.1078	-0.4327	
-0.725778	0.422364	0.465186	-30.94	31.29	-63.56	0.2573	-0.1092	-0.4312	
-0.748226	0.396256	0.439078	-29.89	31.43	-66.01	0.2656	-0.0942	-0.4308	
-0.802272	0.39772	0.417118	-27.93	33.67	-68.25	0.2771	-0.0851	-0.4165	
-0.809958	0.350628	0.414068	-33.39	33.25	-68.32	0.2826	-0.07319999	-0.4193	
-0.802638	0.305854	0.411262	-30.38	31.01	-68.39	0.2883	-0.0703	-0.4192	
-0.825452	0.286822	0.397354	-27.86	29.26	-69.93	0.2967	-0.0538	-0.4173	
-0.848144	0.260958	0.38125	-29.12	29.89	-72.38	0.2995	-0.0477	-0.4124	
-0.853634	0.223992	0.379786	-30.38	31.08	-72.31	0.2935	-0.0341	-0.4169	
-0.876448	0.199104	0.373442	-28.21	29.54	-73.01	0.2989	-0.0176	-0.4165	
-0.898164	0.167262	0.380518	-32.27	29.61	-77.07	0.3131	-0.0058	-0.4161	
-0.930372	0.17629	0.369294	-29.47	27.65	-80.01	0.3131	-0.0027	-0.4129	
-0.91622	0.116632	0.376614	-32.62	6.16	-79.38	0.3256	0.0258	-0.406	
-0.890234	0.05429	0.343674	-31.36	-5.32	-74.27	0.317	0.0275	-0.4045	
-0.89487	-0.020984	0.331718	-38.64	-6.3	-75.6	0.3168	0.0397	-0.3996	
-0.91378	-0.062708	0.306952	-37.94	3.64	-79.87	0.3165	0.053	-0.4102	
-0.910852	-0.082716	0.306586	-37.1	0.49	-85.05	0.313	0.08329999	-0.4112	
-0.919026	-0.10919	0.34526	-39.13	-5.39	-84.28	0.3043	0.091	-0.408	
-0.913658	-0.168238	0.350018	-41.93	-7.91	-79.31	0.3141	0.1075	-0.406	
-0.889014	-0.202886	0.335012	-38.78	-9.73	-76.51	0.2983	0.1064	-0.4015	
-0.874252	-0.242902	0.330376	-37.38	-4.97	-75.6	0.2993	0.1334	-0.4057	
-0.856806	-0.274012	0.328302	-36.26	-1.68	-75.18	0.2963	0.1365	-0.4072	
-0.871812	-0.282308	0.332328	-35.56	-2.66	-74.41	0.296	0.1578	-0.399	
-0.86498	-0.313784	0.325618	-34.37	-2.8	-70.14	0.2902	0.1623	-0.4021	
-0.861808	-0.359168	0.326472	-33.67	2.45	-66.64	0.2828	0.1716	-0.4004	
-0.852658	-0.394914	0.33062	-31.5	3.36	-62.93	0.2826	0.1806	-0.4033	
-0.848632	-0.434442	0.332816	-30.24	4.13	-59.99	0.2798	0.1838	-0.3955	
-0.849974	-0.441884	0.331596	-24.99	3.99	-58.24	0.2725	0.1886	-0.3908	
-0.841434	-0.45262	0.310124	-24.29	4.13	-55.16	0.2722	0.2082	-0.392	
-0.866566	-0.484096	0.315736	-26.53	-3.01	-54.18	0.2636	0.2068	-0.3905	
-0.856074	-0.51911	0.332572	-29.82	-19.39	-50.54	0.2533	0.2222	-0.3872	
-0.813618	-0.549854	0.3111	-24.15	-16.31	-46.76	0.2531	0.2297	-0.3902	
-0.807152	-0.57035	0.29585	-21.35	-10.22	-44.03	0.2515	0.2434	-0.3868	
-0.799954	-0.58865	0.310246	-22.82	-6.44	-41.16	0.2457	0.2419	-0.3884	
-0.777994	-0.577182	0.327082	-18.27	-6.02	-38.92	0.2443	0.2419	-0.3931	
-0.772992	-0.56547	0.31537	-15.61	-7.42	-38.5	0.2514	0.2495	-0.382	
-0.78568	-0.575108	0.300242	-17.22	-8.19	-36.4	0.2339	0.2649	-0.3803	
-0.768478	-0.57218	0.296948	-15.54	-7.91	-32.83	0.2324	0.2602	-0.3944	
-0.773968	-0.596458	0.298168	-17.71	-8.05	-27.93	0.2281	0.2634	-0.3851	
-0.748836	-0.607438	0.30927	-14.7	-7.42	-23.1	0.2168	0.2577	-0.3822	
-0.744444	-0.6222	0.304512	-12.25	-4.76	-18.69	0.2106	0.2774	-0.3834	
-0.757254	-0.655628	0.309026	-13.3	-6.23	-16.1	0.2193	0.2772	-0.3833	
-0.767258	-0.652334	0.307318	-9.87	-4.27	-12.6	0.218	0.2652	-0.3836	
-0.723582	-0.65941	0.306342	-9.87	-4.62	-9.59	0.2092	0.2789	-0.3818	
-0.735782	-0.676124	0.315858	-9.03	-4.34	-6.79	0.2148	0.2864	-0.3832	
-0.748714	-0.672708	0.321958	-3.92	-3.36	-4.06	0.2063	0.2837	-0.3724	
-0.750666	-0.667096	0.310612	-0.63	-5.46	0.56	0.2051	0.2686	-0.3759	
-0.739198	-0.67222	0.30134	0.07	-2.38	6.44	0.2004	0.2882	-0.3818	
-0.740906	-0.683322	0.303292	-0.35	5.74	12.18	0.2022	0.2701	-0.3759	
-0.756888	-0.67832	0.312686	1.61	9.94	16.17	0.222	0.2815	-0.3941	
-0.751276	-0.667584	0.325618	5.81	8.96	20.37	0.202	0.2853	-0.374	
-0.741638	-0.638304	0.32513	10.85	1.75	23.94	0.231	0.2758	-0.3677	
-0.729682	-0.638426	0.319152	12.74	-1.61	28	0.2166	0.273	-0.3694	
-0.730902	-0.63684	0.305	15.82	-0.14	31.99	0.2294	0.2803	-0.3707	
-0.74054	-0.629276	0.309392	16.45	5.11	34.51	0.2209	0.2681	-0.3835	
-0.754326	-0.590724	0.339038	20.72	11.55	36.05	0.2283	0.2575	-0.3805	
-0.777384	-0.58987	0.3477	16.59	7.84	38.99	0.2327	0.2482	-0.3885	
-0.772382	-0.564616	0.332328	23.31	1.75	42.63	0.2399	0.2544	-0.3711	
-0.79483	-0.559736	0.319518	24.01	2.38	46.41	0.2386	0.2452	-0.3822	
-0.790804	-0.535702	0.313784	27.23	1.4	49.28	0.2488	0.2266	-0.395	
-0.789584	-0.496296	0.334646	24.01	2.03	50.54	0.2518	0.2237	-0.3872	
-0.813374	-0.5002	0.327448	22.47	4.69	53.27	0.2447	0.2208	-0.3889	
-0.818132	-0.461282	0.332694	24.92	4.13	55.65	0.2563	0.2146	-0.3873	
-0.830576	-0.442372	0.345748	22.68	3.22	58.38	0.2735	0.2095	-0.4013	
-0.844362	-0.404064	0.333914	27.44	3.43	61.81	0.2709	0.2038	-0.3858	
-0.834846	-0.39284	0.327204	28.28	2.1	65.03	0.2741	0.1856	-0.3877	
-0.85034	-0.343552	0.332938	32.41	4.69	68.74	0.2756	0.1762	-0.4004	
-0.868396	-0.307684	0.341234	29.89	3.99	69.79	0.2816	0.1642	-0.3912	
-0.874374	-0.267058	0.341844	33.67	1.19	70.84	0.2932	0.1516	-0.4069	
-0.887794	-0.240218	0.338428	35.77	-2.03	71.33	0.2936	0.1307	-0.398	
-0.895236	-0.205204	0.33428	38.92	-7.14	73.64	0.2978	0.1335	-0.4057	
-0.919026	-0.163236	0.32818	39.34	-9.1	76.37	0.298	0.1228	-0.4121	
-0.935374	-0.136884	0.324276	37.45	-6.86	78.96	0.3068	0.1074	-0.4154	
-0.903654	-0.105408	0.330986	39.48	-5.88	79.87	0.3114	0.0938	-0.4126	
-0.889014	-0.066978	0.337818	38.22	-4.2	80.99	0.3103	0.07889999	-0.4066	
-0.896944	-0.019642	0.349896	38.43	-2.66	82.11	0.3105	0.0622	-0.4117	
-0.8784	0.007929999	0.370392	36.82	-9.59	83.44	0.3093	0.05	-0.4166	
-0.882548	0.053314	0.393572	42	-19.6	83.09	0.3079	0.0471	-0.412	
-0.86437	0.10614	0.383568	41.37	-24.85	82.32	0.2981	0.0291	-0.4171	
-0.845094	0.158356	0.396744	41.79	-21.98	80.92	0.3026	0.0185	-0.4142	
-0.85949	0.219844	0.388448	43.68	-20.72	79.73	0.2958	-0.004	-0.4178	
-0.850706	0.250222	0.399062	41.86	-22.4	80.29	0.3003	-0.0132	-0.4195	
-0.84302	0.278038	0.407114	39.55	-21.63	80.36	0.2975	-0.0207	-0.4244	
-0.83265	0.298534	0.42456	36.47	-20.16	79.38	0.2892	-0.0356	-0.4201	
-0.819718	0.330498	0.430904	33.95	-21.49	76.79	0.288	-0.0507	-0.4188	
-0.82533	0.3599	0.43188	30.24	-21.35	72.87	0.2853	-0.072	-0.4349	
-0.818254	0.383324	0.435296	28.42	-20.65	69.65	0.271	-0.0716	-0.4272	
-0.823134	0.417118	0.444202	26.18	-22.75	65.31	0.2668	-0.0822	-0.4321	
-0.819596	0.441884	0.434442	28.07	-26.11	60.97	0.2698	-0.08679999	-0.4338	
-0.792268	0.462258	0.4453	26.74	-29.4	57.12	0.2614	-0.1003	-0.4372	
-0.783484	0.491782	0.461404	25.27	-25.97	52.29	0.2645	-0.1155	-0.4391	
-0.771772	0.506666	0.48068	24.22	-24.99	47.81	0.2458	-0.112	-0.433	
-0.748592	0.530944	0.492026	25.06	-24.85	43.68	0.2503	-0.1196	-0.4284	
-0.723948	0.54473	0.490928	22.75	-24.78	40.04	0.2489	-0.1257	-0.4363	
-0.70272	0.561322	0.48373	20.93	-23.8	36.05	0.2331	-0.1315	-0.4382	
-0.697596	0.557174	0.481656	20.16	-20.86	32.55	0.2346	-0.1362	-0.4429	
-0.696132	0.560102	0.489708	19.18	-18.34	29.19	0.2292	-0.1509	-0.4308	
-0.690032	0.56425	0.498858	16.38	-16.66	25.76	0.229	-0.1466	-0.4416	
-0.675758	0.574986	0.5063	16.38	-15.12	22.61	0.2178	-0.1583	-0.4342	
-0.666242	0.584502	0.501542	14.63	-15.4	19.39	0.2151	-0.1704	-0.4391	
-0.670634	0.599142	0.502396	14.28	-12.32	16.1	0.2107	-0.1689	-0.4407	
-0.660142	0.608536	0.50447	13.51	-12.18	13.3	0.2078	-0.1612	-0.4343	
-0.657946	0.61671	0.507886	10.29	-10.99	10.92	0.2037	-0.173	-0.4284	
-0.658922	0.620736	0.516426	6.44	-9.1	9.03	0.1966	-0.1775	-0.4317	
-0.653554	0.62708	0.520818	4.34	-9.17	7.49	0.2022	-0.1717	-0.4393	
-0.650748	0.634522	0.523502	2.8	-8.05	5.18	0.1893	-0.1744	-0.4364	
-0.657946	0.630008	0.537044	0.77	-6.02	2.31	0.2079	-0.1765	-0.4456	
-0.646844	0.63196	0.53131	-1.26	-5.95	-0.84	0.1979	-0.1809	-0.4473	
-0.643306	0.63562	0.533994	-4.13	-4.2	-4.69	0.1894	-0.1789	-0.4349	
-0.654164	0.63501	0.535702	-6.37	-3.64	-8.75	0.1891	-0.1701	-0.4472	
-0.661118	0.63257	0.544486	-8.47	-0.63	-12.88	0.1937	-0.1837	-0.4412	
-0.661484	0.628178	0.550952	-10.64	1.82	-17.15	0.1892	-0.1746	-0.4457	
-0.658556	0.62525	0.551196	-12.11	1.54	-21.77	0.1963	-0.1687	-0.4424	
-0.651358	0.605364	0.560102	-15.26	4.34	-26.25	0.2036	-0.1733	-0.4424	
-0.639524	0.600972	0.551806	-18.97	7.56	-29.89	0.2062	-0.1568	-0.4452	
-0.646234	0.589992	0.544364	-19.67	8.47	-34.02	0.2102	-0.1418	-0.4433	
-0.663314	0.56608	0.53985	-22.82	13.3	-36.54	0.2119	-0.1506	-0.4325	
-0.674416	0.538874	0.540216	-24.29	15.89	-39.97	0.2146	-0.1434	-0.4464	
-0.680638	0.527406	0.528138	-24.43	16.17	-43.47	0.2187	-0.1375	-0.4493	
-0.68198	0.503372	0.52948	-25.83	16.52	-46.13	0.2231	-0.1484	-0.462	
-0.693814	0.484462	0.519354	-27.09	18.48	-48.65	0.2401	-0.1211	-0.4379	
-0.703818	0.46177	0.512644	-29.89	20.09	-50.54	0.2384	-0.1092	-0.4517	
-0.72529	0.435174	0.497882	-30.24	21.14	-52.78	0.2427	-0.1045	-0.436	
-0.75762	0.423584	0.492392	-29.82	21.56	-54.04	0.2367	-0.0941	-0.4483	
-0.757498	0.38979	0.480436	-30.31	20.51	-54.95	0.2468	-0.0879	-0.434	
-0.765184	0.364414	0.471408	-31.29	19.25	-55.09	0.2466	-0.0852	-0.4495	
-0.78385	0.346724	0.480314	-33.81	22.19	-56.28	0.2549	-0.0657	-0.4459	
-0.79117	0.315126	0.47702	-35	22.12	-57.19	0.2592	-0.0627	-0.4427	
-0.802882	0.299876	0.463234	-37.38	19.18	-57.12	0.2706	-0.0599	-0.4441	
-0.831552	0.28243	0.441152	-40.11	20.37	-57.47	0.2746	-0.0373	-0.4421	
-0.857782	0.261202	0.4331	-42.77	20.3	-56.98	0.2743	-0.0206	-0.4386	
-0.87047	0.232654	0.431758	-44.73	16.94	-56.49	0.2716	-0.025	-0.4341	
-0.859978	0.21899	0.440298	-44.87	14	-56.98	0.2828	-0.0071	-0.4351	
-0.865224	0.196786	0.437492	-49.49	13.79	-57.96	0.2896	0.0138	-0.4362	
-0.876204	0.15677	0.424926	-51.59	12.88	-58.38	0.2824	0.014	-0.4332	
-0.886208	0.121756	0.43493	-54.67	12.18	-60.48	0.278	0.0294	-0.4189	
-0.871934	0.077104	0.441152	-61.04	13.3	-62.79	0.2832	0.0487	-0.4324	
-0.858148	0.029402	0.433832	-60.48	10.22	-63.98	0.289	0.0533	-0.423	
-0.840092	-0.013298	0.433466	-61.11	8.47	-64.96	0.2886	0.0713	-0.4273	
-0.824476	-0.053192	0.432246	-59.36	10.71	-66.78	0.29	0.0773	-0.4271	
-0.821182	-0.09516	0.449082	-61.53	11.55	-67.41	0.2798	0.0851	-0.4271	
-0.837896	-0.152012	0.436516	-60.41	11.2	-66.99	0.2763	0.1215	-0.4201	
-0.84119	-0.220088	0.429684	-57.33	6.09	-65.45	0.2906	0.1256	-0.4261	
-0.85034	-0.263032	0.428098	-52.36	-3.29	-64.12	0.2747	0.1352	-0.4152	
-0.845094	-0.304268	0.41297	-48.51	-8.12	-65.17	0.2716	0.1489	-0.4119	
-0.818132	-0.345382	0.388082	-44.38	-7.49	-65.94	0.267	0.1702	-0.4084	
-0.83326	-0.368928	0.373564	-37.03	-0.56	-64.47	0.2641	0.175	-0.3958	
-0.84607	-0.3904	0.381616	-35.28	3.85	-63.84	0.2553	0.178	-0.4083	
-0.882182	-0.401746	0.377102	-30.38	8.89	-62.09	0.2522	0.1962	-0.4033	
-0.841922	-0.398452	0.382348	-25.83	2.17	-59.78	0.2449	0.2009	-0.4017	
-0.823866	-0.43432	0.357826	-24.5	-3.5	-56	0.2576	0.2173	-0.4013	
-0.81191	-0.44164	0.338428	-16.94	-0.98	-53.41	0.2391	0.2087	-0.397	
-0.814716	-0.447496	0.335744	-14	6.09	-50.54	0.2432	0.2175	-0.403	
-0.829478	-0.475068	0.343186	-14.14	4.69	-46.76	0.2415	0.236	-0.3871	
-0.83326	-0.479826	0.355508	-10.71	2.94	-43.75	0.2371	0.2405	-0.3901	
-0.81496	-0.48678	0.3782	-8.12	2.24	-40.53	0.2313	0.2437	-0.3901	
-0.801052	-0.510692	0.37332	-7.49	-2.52	-36.89	0.2285	0.2391	-0.3965	
-0.821792	-0.543754	0.359412	-5.25	3.01	-33.53	0.2297	0.2465	-0.401	
-0.801052	-0.550586	0.364414	-3.22	6.44	-29.89	0.2167	0.2545	-0.39	
-0.77714	-0.554978	0.370758	-0.28	3.43	-27.51	0.2183	0.2469	-0.3902	
-0.789096	-0.558882	0.37332	3.36	5.74	-24.99	0.2168	0.2438	-0.398	
-0.7869	-0.55449	0.384544	6.51	6.3	-21.91	0.2182	0.2529	-0.3932	
-0.772626	-0.559126	0.376248	5.81	4.9	-18.69	0.2284	0.2437	-0.3886	
-0.760426	-0.563762	0.38247	8.4	5.39	-14.98	0.2164	0.2663	-0.4038	
-0.748958	-0.557174	0.392962	7.07	7.56	-11.34	0.2065	0.2621	-0.3947	
-0.75274	-0.567422	0.376736	6.86	7.49	-7.7	0.2182	0.256	-0.39	
-0.737124	-0.544852	0.38857	7.07	8.89	-4.2	0.2169	0.247	-0.3886	
-0.743834	-0.571448	0.39467	7.56	6.51	-0.63	0.2254	0.2513	-0.39	
-0.767868	-0.581818	0.37576	10.85	6.02	2.66	0.2167	0.2591	-0.3884	
-0.748348	-0.56242	0.385642	12.67	9.45	4.76	0.2096	0.2516	-0.3902	
-0.759572	-0.561688	0.400038	13.09	11.62	7	0.2153	0.253	-0.3917	
-0.775676	-0.550098	0.39284	14.77	8.96	8.26	0.2181	0.2543	-0.3963	
-0.773846	-0.543754	0.375516	14	8.05	10.78	0.2183	0.2453	-0.3964	
-0.78141	-0.526308	0.384788	13.09	11.76	12.39	0.2285	0.2438	-0.3855	
-0.785436	-0.523258	0.395768	13.02	9.94	14.98	0.2314	0.2392	-0.3871	
-0.78812	-0.504714	0.39223	13.79	6.72	18.41	0.2428	0.2357	-0.4026	
-0.797514	-0.48739	0.386252	10.5	6.02	21.91	0.2445	0.2268	-0.3919	
-0.805078	-0.48007	0.368074	6.37	6.65	26.6	0.2315	0.2362	-0.3872	
-0.803858	-0.46726	0.375272	7.42	7.91	31.01	0.2374	0.2238	-0.3967	
-0.796782	-0.457378	0.373686	5.67	10.85	35.28	0.2446	0.219	-0.4045	
-0.829356	-0.416996	0.371124	5.18	9.94	39.13	0.2418	0.2178	-0.3921	
-0.842654	-0.393694	0.353678	-0.77	6.09	44.59	0.2579	0.2023	-0.3954	
-0.86742	-0.381616	0.324764	-6.09	8.12	49.77	0.2506	0.2163	-0.3811	
-0.85766	-0.367342	0.335622	-8.33	13.37	53.41	0.2736	0.2112	-0.3919	
-0.879254	-0.344284	0.346602	-11.69	17.64	57.75	0.2694	0.2038	-0.3874	
-0.914268	-0.340746	0.371612	-7.7	8.47	58.87	0.2766	0.2051	-0.3873	
-0.889258	-0.301462	0.340746	-5.81	-2.17	62.58	0.2709	0.2039	-0.3796	
-0.92598	-0.280356	0.32086	-12.39	-7.07	65.1	0.2854	0.1959	-0.3874	
-0.946964	-0.228384	0.296216	-16.8	0.42	67.2	0.2928	0.1899	-0.3797	
-0.96319	-0.211792	0.296826	-31.71	8.19	70.21	0.2913	0.1914	-0.3812	
-0.973194	-0.196176	0.316102	-37.03	13.23	71.68	0.2986	0.1838	-0.3782	
-0.984906	-0.193858	0.325374	-47.18	7.21	76.02	0.306	0.1761	-0.3783	
-0.960506	-0.1769	0.306342	-49.07	1.75	76.72	0.3031	0.1778	-0.3736	
-0.973194	-0.13786	0.275598	-52.36	5.6	76.65	0.3091	0.1718	-0.3643	
-0.96685	-0.120902	0.286212	-62.93	5.04	78.26	0.3148	0.1731	-0.3673	
-0.9821	-0.117242	0.29768	-65.31	8.19	78.33	0.3263	0.1713	-0.3719	
-0.99003	-0.087596	0.286944	-66.78	3.57	79.17	0.3293	0.1701	-0.3548	
-0.993568	-0.08418	0.27755	-71.68	0.07	79.31	0.3336	0.1715	-0.3547	
-1.006744	-0.070394	0.275598	-72.03	2.1	77.98	0.3394	0.1699	-0.3578	
-1.006256	-0.0793	0.285358	-75.53	-0.63	77.14	0.3366	0.1717	-0.3438	
-1.002474	-0.06893	0.287554	-75.32	-2.59	77.21	0.3454	0.1626	-0.3361	
-0.98332	-0.0549	0.291824	-73.43	-4.55	76.51	0.3584	0.1608	-0.3422	
-0.973926	-0.040382	0.298656	-71.4	-5.18	75.32	0.3497	0.1656	-0.3344	
-0.94062	-0.030988	0.31659	-69.02	-8.05	73.08	0.3612	0.1652	-0.3437	
-0.938912	-0.010004	0.313418	-63.21	-6.65	69.79	0.3686	0.1562	-0.3344	
-0.92415	0.00915	0.325984	-57.68	-6.72	66.36	0.3557	0.158	-0.3298	
-0.915488	0.031842	0.347334	-51.17	-6.16	62.93	0.3759	0.1578	-0.3219	
-0.927566	0.040016	0.339526	-46.76	-5.46	59.43	0.3745	0.1564	-0.3203	
-0.918294	0.04941	0.348066	-42.63	-7.07	56.07	0.3671	0.1624	-0.3296	
-0.924272	0.069174	0.349652	-38.01	-3.36	52.5	0.373	0.1548	-0.3219	
-0.922076	0.09272	0.364536	-33.32	-4.97	48.51	0.3704	0.146	-0.3144	
-0.92537	0.096136	0.366854	-30.38	-4.83	45.78	0.3805	0.1442	-0.319	
-0.919392	0.11102	0.36356	-25.97	-2.38	42.98	0.3865	0.1352	-0.3097	
-0.919514	0.142496	0.349042	-24.29	-2.1	40.6	0.3807	0.1322	-0.3145	
-0.912072	0.166286	0.342088	-20.37	-0.63	39.27	0.3835	0.1368	-0.3113	
-0.903898	0.184098	0.350506	-18.9	-0.21	36.89	0.3877	0.1411	-0.3143	
-0.912194	0.1891	0.342332	-22.75	-1.47	36.82	0.3982	0.1199	-0.3115	
-0.92354	0.190076	0.321714	-20.51	-1.68	34.72	0.4009	0.1273	-0.3129	
-0.912438	0.200568	0.338306	-20.02	-2.52	31.99	0.4026	0.1184	-0.3068	
-0.915122	0.199958	0.34343	-20.58	-1.19	29.26	0.3924	0.1245	-0.3099	
-0.905972	0.207278	0.342332	-17.71	-3.29	27.58	0.3895	0.1246	-0.3115	
-0.902556	0.211914	0.360754	-17.64	-2.94	25.97	0.3825	0.1187	-0.307	
-0.90158	0.222162	0.361486	-18.2	-1.75	23.87	0.3997	0.1184	-0.3084	
-0.902678	0.20069	0.349042	-17.5	-2.59	21.49	0.3999	0.1079	-0.3071	
-0.901458	0.207522	0.343674	-14.77	-2.8	18.55	0.4026	0.1183	-0.3115	
-0.900848	0.206302	0.360388	-15.96	-3.29	15.05	0.397	0.1141	-0.3007	
-0.898164	0.202764	0.366122	-12.18	-3.85	10.78	0.3984	0.1109	-0.307	
-0.893894	0.191052	0.36417	-7.28	-3.64	6.86	0.3998	0.1138	-0.31	
-0.891698	0.19337	0.354532	-5.67	-4.83	3.57	0.3927	0.1049	-0.3103	
-0.901336	0.216306	0.368928	-3.99	-3.29	0.35	0.3913	0.1081	-0.304	
-0.89365	0.199836	0.387838	-1.05	-4.06	-2.03	0.3942	0.1048	-0.3118	
-0.893284	0.197762	0.378444	4.83	-5.53	-4.76	0.3884	0.1035	-0.3104	
-0.902312	0.19581	0.376248	6.51	-5.25	-7.98	0.4012	0.1138	-0.3116	
-0.896578	0.198494	0.393206	8.26	-4.9	-10.43	0.3969	0.1107	-0.3179	
-0.905972	0.19093	0.396744	10.57	-4.34	-12.67	0.3953	0.1214	-0.3146	
-0.901946	0.163236	0.39467	14.07	-4.41	-15.75	0.387	0.102	-0.3089	
-0.90829	0.124318	0.391376	19.46	-3.08	-19.88	0.3954	0.1154	-0.3132	
-0.903776	0.10919	0.37881	26.53	-4.27	-23.52	0.3939	0.1153	-0.3163	
-0.919758	0.101626	0.379542	32.48	-2.1	-26.95	0.3883	0.1048	-0.3212	
-0.927322	0.108946	0.375882	41.51	0.28	-30.38	0.381	0.1141	-0.3149	
-0.899628	0.095282	0.35136	47.74	-0.07	-36.47	0.3897	0.1124	-0.3164	
-0.93391	0.084302	0.33489	52.99	2.87	-34.79	0.3852	0.1137	-0.332	
-0.92781	0.060634	0.334036	60.27	-1.05	-35.56	0.3766	0.1124	-0.3306	
-0.94794	0.039406	0.310246	69.02	1.47	-36.05	0.381	0.1077	-0.3322	
-0.961482	0.050508	0.292434	80.57	1.68	-38.43	0.3782	0.1018	-0.3292	
-0.943548	0.043066	0.290482	92.19	-1.89	-43.54	0.3796	0.0986	-0.337	
-0.936594	0.0488	0.290238	103.11	-4.2	-50.89	0.374	0.0942	-0.3356	
-0.972096	0.082838	0.24827	111.3	-6.16	-60.27	0.3754	0.091	-0.345	
-1.00955	0.119682	0.22875	116.76	-2.87	-66.15	0.3825	0.0984	-0.3448	
-0.989664	0.141032	0.24156	119.28	0.07	-65.87	0.3595	0.0881	-0.353	
-1.000644	0.11651	0.26108	114.24	3.71	-61.88	0.3826	0.0831	-0.3544	
-1.026386	0.055266	0.274744	117.88	6.79	-59.64	0.3829	0.0695	-0.3547	
-1.041392	0.045994	0.245586	126.28	-4.06	-58.03	0.3713	0.0649	-0.3674	
-1.029802	0.061122	0.218014	133.84	-7.49	-57.75	0.3611	0.0711	-0.3689	
-1.008086	0.085644	0.189588	126.7	-11.48	-56.98	0.3629	0.0531	-0.3646	
-0.98515	0.051362	0.22997	119.07	-16.73	-55.23	0.3744	0.0528	-0.3676	
-0.980392	0.045018	0.216062	130.34	-12.32	-56.42	0.3601	0.047	-0.3694	
-0.978562	0.052582	0.206302	136.71	-4.97	-53.9	0.3518	0.0259	-0.373	
-0.994666	0.11712	0.198616	144.76	0.21	-57.68	0.3576	0.0227	-0.3793	
-1.045784	0.102358	0.185074	131.88	2.17	-50.89	0.3592	0.0137	-0.3732	
-1.007232	0.08784	0.220576	131.46	-7	-49.42	0.3493	0.0018	-0.3751	
-1.00284	0.082472	0.206912	143.92	-9.87	-49.7	0.3625	-0.0073	-0.372	
-1.004792	0.09467199	0.180926	136.36	-8.26	-47.67	0.3539	-0.0164	-0.3817	
-1.011746	0.099918	0.222894	130.06	-7.77	-47.88	0.3514	-0.0312	-0.3695	
-1.03761	0.122976	0.212036	133.21	-14.84	-52.01	0.3528	-0.0376	-0.3868	
-1.014308	0.119804	0.21289	133.49	-20.23	-54.04	0.3557	-0.036	-0.3774	
-0.98088	0.094794	0.239852	131.32	-12.46	-55.65	0.3516	-0.0465	-0.3761	
-1.055422	0.071736	0.241194	126.56	-3.15	-54.95	0.3591	-0.0616	-0.3732	
-1.02724	0.11407	0.253882	126.49	-10.01	-57.68	0.3532	-0.054	-0.3731	
-0.997594	0.146766	0.261202	124.95	-12.11	-58.73	0.3464	-0.0734	-0.3689	
-1.022726	0.118218	0.264252	117.95	-11.62	-57.68	0.3496	-0.0915	-0.3676	
-1.001986	0.138836	0.281698	113.05	-8.61	-54.25	0.3567	-0.0826	-0.3658	
-0.932446	0.180682	0.288896	108.15	-10.15	-54.53	0.3568	-0.0885	-0.3582	
-0.930372	0.142618	0.260714	95.41	-9.17	-50.26	0.3583	-0.08989999	-0.3551	
-0.958798	0.104676	0.26108	91.56	-3.99	-43.96	0.3557	-0.1004	-0.3522	
-0.93757	0.113948	0.282064	86.45	-1.4	-40.39	0.3514	-0.1033	-0.3507	
-0.93208	0.119072	0.297192	76.23	-3.08	-36.96	0.3588	-0.1156	-0.3571	
-0.948306	0.101382	0.302438	64.96	-3.99	-31.43	0.3687	-0.102	-0.3428	
-0.947574	0.099064	0.307196	58.03	-2.17	-27.44	0.3662	-0.1169	-0.3384	
-0.948794	0.083692	0.320616	48.86	-3.43	-23.66	0.3677	-0.1168	-0.3306	
-0.92293	0.099186	0.323422	44.03	-3.78	-18.34	0.3517	-0.112	-0.3338	
-0.944768	0.099674	0.307562	35.77	-4.27	-14.14	0.3606	-0.1258	-0.334	
-0.972462	0.063318	0.322446	26.95	-3.15	-12.18	0.3678	-0.1229	-0.3323	
-0.945866	0.034038	0.343674	24.71	-3.29	-11.06	0.3705	-0.12	-0.3369	
-0.935008	0.030134	0.32574	21.07	-9.38	-8.68	0.3693	-0.1306	-0.3387	
-0.939766	0.015982	0.325862	18.06	-5.25	-6.44	0.3749	-0.1247	-0.34	
-0.948306	0.015738	0.35746	15.19	-2.73	-6.23	0.3649	-0.126	-0.3386	
-0.928542	0.031232	0.332938	16.31	-7.21	-6.09	0.3636	-0.1334	-0.3341	
-0.926956	0.016592	0.32269	9.38	-6.65	-5.74	0.3648	-0.1214	-0.3354	
-0.957456	0.014884	0.341112	6.09	-4.06	-5.6	0.3664	-0.1242	-0.3261	
-0.935618	0.026718	0.352214	3.08	-5.88	-3.08	0.3665	-0.135	-0.3388	
-0.930372	0.006832	0.348798	1.05	-4.06	-1.75	0.3664	-0.1274	-0.3339	
-0.93635	0.00488	0.358192	-2.87	-3.29	-0.56	0.3679	-0.1321	-0.3387	
-0.919148	0.013176	0.360266	-3.57	-3.01	1.05	0.3764	-0.1245	-0.3291	
-0.924394	0.025132	0.363926	-9.66	-2.66	2.1	0.3604	-0.1184	-0.3401	
-0.931958	0.042578	0.351848	-14.07	-2.45	2.66	0.3706	-0.126	-0.337	
-0.938424	0.05612	0.34526	-19.39	-0.07	4.83	0.365	-0.1335	-0.3388	
-0.956968	0.073322	0.35746	-27.3	1.96	7.84	0.3619	-0.1198	-0.3354	
-0.954284	0.094062	0.35563	-35.14	2.87	11.13	0.3517	-0.1137	-0.3432	
-0.956114	0.110166	0.346846	-46.48	4.48	15.26	0.3618	-0.1061	-0.3273	
-0.977708	0.126148	0.318664	-56.35	7.98	19.39	0.3632	-0.117	-0.3462	
-0.962336	0.149328	0.314272	-64.89	11.34	21.84	0.3673	-0.1066	-0.3506	
-1.017724	0.12749	0.361486	-79.1	11.13	26.11	0.3617	-0.1123	-0.3399	
-0.995398	0.130662	0.306464	-84.84	-2.8	35.35	0.36	-0.0927	-0.3411	
-0.932324	0.113948	0.297436	-94.01	6.3	38.36	0.3514	-0.0972	-0.3459	
-0.927444	0.119682	0.304634	-100.94	8.05	41.51	0.3598	-0.09299999	-0.3536	
-1.005158	0.11224	0.286944	-107.52	4.9	43.54	0.3582	-0.0856	-0.3643	
-0.98393	0.097722	0.2562	-120.68	0.56	49.63	0.3594	-0.072	-0.364	
-0.94916	0.107238	0.26291	-119.14	3.08	46.9	0.3565	-0.0704	-0.3594	
-1.021262	0.118218	0.28792	-133.63	-7.91	50.54	0.3549	-0.0691	-0.3749	
-1.006866	0.118828	0.251808	-138.6	-22.12	51.45	0.3473	-0.0479	-0.3777	
-1.01138	0.123464	0.187148	-142.03	-11.55	54.32	0.3371	-0.0402	-0.3792	
-1.011868	0.091378	0.196176	-153.23	-4.06	58.52	0.3455	-0.03	-0.3882	
-1.025044	0.07747	0.216672	-155.82	-2.73	60.55	0.3453	-0.0194	-0.3865	
-1.001864	0.091134	0.22936	-154.98	-10.29	62.58	0.3364	-0.0057	-0.391	
-1.017724	0.11407	0.207278	-151.9	-13.58	63.91	0.329	0.0034	-0.3909	
-1.061278	0.086132	0.197762	-158.55	-16.45	69.16	0.3418	0.0138	-0.3843	
-1.041148	0.036966	0.184952	-158.9	-14.84	73.92	0.3316	0.023	-0.3889	
-0.998814	0.008905999	0.195566	-158.62	-6.23	74.06	0.3342	0.0334	-0.3933	
-0.98759	0.014518	0.183	-148.54	13.51	74.48	0.3284	0.0396	-0.3917	
-0.97295	0.00488	0.177144	-149.59	16.1	78.89	0.341	0.0575	-0.3881	
-1.004548	-0.00061	0.210816	-160.79	20.93	77.91	0.348	0.0695	-0.3878	
-1.058228	-0.019398	0.244366	-136.5	24.08	72.87	0.3422	0.0804	-0.3751	
-1.034072	-0.035868	0.225944	-139.93	12.39	70.49	0.3596	0.0803	-0.3656	
-0.997106	-0.023668	0.218624	-140.98	5.53	71.54	0.3523	0.0881	-0.3593	
-0.942572	0.035014	0.225212	-123.83	12.11	78.61	0.3593	0.097	-0.3622	
-0.971852	-0.01342	0.238632	-81.62	24.5	73.36	0.355	0.1002	-0.3528	
-1.003938	0.001952	0.236558	-76.86	45.08	58.38	0.3622	0.0986	-0.3512	
-0.987102	-0.007198	0.2196	-87.64	31.85	49.84	0.3781	0.1046	-0.3416	
-0.981612	-0.005368	0.250954	-105.56	27.3	46.83	0.3738	0.1001	-0.3433	
-1.0248	0.027084	0.260958	-104.86	25.27	42.42	0.3796	0.1047	-0.3307	
-1.03151	0.03843	0.270352	-100.94	20.44	38.57	0.3839	0.114	-0.3164	
-1.0065	0.03904	0.271938	-99.19	17.71	37.45	0.3924	0.1167	-0.3225	
-0.960018	0.03599	0.274866	-107.38	17.85	36.12	0.3983	0.1153	-0.3116	
-0.953308	0.015494	0.277794	-104.3	17.29	35	0.4083	0.1244	-0.3004	
-0.984784	0.004148	0.252906	-94.15	24.99	31.08	0.4011	0.1339	-0.2878	
-0.98576	-0.006222	0.232166	-79.66	20.44	27.51	0.4039	0.1431	-0.2767	
-0.97051	0.009393999	0.220942	-65.31	17.08	25.13	0.411	0.1443	-0.286	
-0.971486	0.041358	0.236314	-51.66	12.88	22.82	0.4069	0.1387	-0.2659	
-0.967948	0.040504	0.241316	-38.78	9.87	19.53	0.4111	0.1492	-0.2672	
-0.973682	0.05246	0.244488	-23.03	3.78	16.45	0.4142	0.1324	-0.2737	
-0.975024	0.06734399	0.253394	-14.21	-0.63	12.67	0.4067	0.1477	-0.2719	
-0.94245	0.07564	0.266204	-7.35	-5.11	10.22	0.4126	0.14	-0.2705	
-0.941596	0.092842	0.28914	-1.61	-5.18	9.17	0.4099	0.1311	-0.2676	
-0.958432	0.12566	0.279624	4.41	-4.62	6.16	0.4083	0.1401	-0.2705	
-0.932446	0.098088	0.280112	3.22	-6.86	6.09	0.4142	0.131	-0.2691	
-0.92903	0.12688	0.293776	11.55	-7.91	5.81	0.4069	0.134	-0.2753	
-0.941962	0.127734	0.287676	12.88	-7.98	4.27	0.4083	0.1368	-0.283	
-0.932812	0.138104	0.295484	14.7	-7.28	3.36	0.414	0.146	-0.2719	
-0.952454	0.164944	0.312198	21.56	-6.44	0.91	0.4113	0.1309	-0.2738	
-0.966362	0.163602	0.293776	24.85	-7.49	-3.15	0.4142	0.1246	-0.2863	
-0.944158	0.149938	0.289018	28.91	-9.59	-5.88	0.4113	0.1277	-0.2832	
-0.929396	0.136152	0.318054	33.81	-9.87	-8.12	0.4042	0.1203	-0.2818	
-0.94489	0.11285	0.326838	41.58	-6.3	-10.78	0.4055	0.1231	-0.2958	
-0.995886	0.086254	0.294996	55.23	-7.84	-14.98	0.4098	0.1246	-0.2926	
-0.956846	0.038796	0.268156	58.45	-13.44	-21.84	0.401	0.1276	-0.302	
-0.929152	0.06527	0.265838	79.03	-18.13	-27.02	0.3986	0.1097	-0.293	
-0.941352	0.068198	0.283162	96.32	-16.94	-29.26	0.4027	0.1216	-0.2943	
-0.961726	0.061732	0.297924	106.05	-13.58	-32.2	0.3998	0.1108	-0.3117	
-0.99064	0.063928	0.262666	119.63	-12.53	-35.07	0.3814	0.1007	-0.3027	
-0.995154	0.032818	0.246318	120.61	-16.1	-36.54	0.3928	0.0971	-0.3214	
-0.976	0.043432	0.23973	122.01	-23.31	-39.62	0.3885	0.0942	-0.323	
-0.976244	0.058316	0.24278	132.02	-33.6	-41.3	0.3772	0.07759999	-0.3312	
-0.973682	0.081984	0.257786	117.39	-40.53	-46.62	0.3817	0.07319999	-0.322	
-0.942816	0.089304	0.27816	112.91	-36.19	-53.62	0.3741	0.0757	-0.3562	
-0.933422	0.074176	0.259738	121.38	-31.78	-60.97	0.3616	0.055	-0.3459	
-1.00223	0.093452	0.190198	123.69	-27.16	-67.27	0.373	0.0638	-0.3487	
-0.992226	0.11834	0.11407	116.27	-23.03	-73.29	0.3601	0.0486	-0.3647	
-1.01016	0.163968	0.20069	109.69	-33.18	-65.38	0.3701	0.0513	-0.3708	
-0.992592	0.09028	0.220942	122.57	2.03	-58.94	0.3485	0.0517	-0.371	
-1.0431	0.048434	0.24644	116.06	-8.47	-59.01	0.3588	0.0348	-0.3775	
-1.011746	0.072712	0.222406	122.36	-5.6	-61.95	0.356	0.0318	-0.3807	
-1.001742	0.101382	0.218868	100.1	-19.25	-61.18	0.3517	0.0273	-0.3808	
-0.979538	0.06588	0.204106	127.4	-7	-53.55	0.3573	0.03	-0.39	
-1.024068	0.072224	0.207644	128.59	-7.14	-54.67	0.3404	0.0154	-0.3843	
-1.019554	0.090646	0.205692	135.59	-11.62	-57.12	0.3449	0.0032	-0.3845	
-0.983076	0.090036	0.19642	134.05	-12.11	-54.88	0.3424	-0.0116	-0.377	
-1.022726	0.097356	0.208376	136.29	-0.7	-57.82	0.3423	-0.0148	-0.3849	
-1.015772	0.111508	0.228262	130.2	0.98	-56.98	0.3496	-0.0178	-0.3802	
-1.025044	0.099674	0.248148	120.61	-4.06	-53.41	0.3441	-0.0328	-0.3805	
-1.02114	0.124196	0.229238	120.19	-11.69	-53.06	0.3584	-0.0286	-0.3834	
-0.998936	0.144936	0.201056	121.24	-8.68	-55.16	0.3573	-0.0467	-0.3807	
-0.998082	0.126514	0.224358	114.03	0.14	-55.86	0.3574	-0.0512	-0.3792	
-1.00162	0.115168	0.251442	110.53	6.09	-52.99	0.3578	-0.0707	-0.3734	
-1.023946	0.117974	0.267546	102.62	6.51	-50.54	0.3464	-0.0672	-0.3625	
-0.975756	0.116022	0.303536	104.16	-10.08	-50.75	0.3593	-0.069	-0.364	
-0.978074	0.119682	0.266814	107.8	-12.81	-49.77	0.3494	-0.0794	-0.3674	
-0.989908	0.116998	0.26535	100.17	-3.15	-50.12	0.3509	-0.0825	-0.3659	
-0.972462	0.11773	0.2928	87.57	-1.33	-49.7	0.3583	-0.0854	-0.355	
-0.972828	0.114558	0.300242	81.34	-6.65	-45.29	0.3585	-0.0928	-0.3458	
-0.96502	0.11041	0.289994	80.43	-8.4	-40.04	0.3715	-0.0976	-0.3489	
-0.955504	0.110532	0.283772	73.22	-4.41	-34.09	0.3643	-0.1006	-0.3521	
-0.944402	0.101504	0.30073	60.97	-3.43	-28.63	0.3586	-0.1034	-0.3491	
-0.94794	0.071004	0.301706	56.91	-4.2	-22.54	0.3628	-0.096	-0.3505	
-0.953552	0.059536	0.305	48.72	-3.99	-19.25	0.3716	-0.102	-0.3427	
-0.950868	0.0671	0.313906	38.08	-5.11	-17.71	0.3745	-0.1036	-0.3458	
-0.935984	0.055876	0.312198	31.36	-7.77	-15.05	0.3647	-0.1139	-0.3384	
-0.944768	0.058682	0.329766	23.73	-6.23	-12.53	0.3675	-0.1141	-0.3461	
-0.94611	0.063562	0.330864	16.1	-5.95	-10.22	0.3634	-0.1244	-0.337	
-0.946354	0.050508	0.333304	12.74	-4.55	-7.84	0.3632	-0.1124	-0.3415	
-0.96319	0.033306	0.334036	8.89	-3.92	-6.23	0.3648	-0.1199	-0.3354	
-0.94489	0.029646	0.34587	6.37	-3.43	-5.18	0.3647	-0.1186	-0.3478	
-0.939034	0.01464	0.333182	5.39	-3.64	-3.71	0.3633	-0.1169	-0.3384	
-0.962458	0.010736	0.337696	0.84	-1.26	-2.73	0.3589	-0.1107	-0.3352	
-0.952576	0.024644	0.333426	0.77	-3.01	-1.54	0.3559	-0.1077	-0.3399	
-0.92476	0.006466	0.339526	-1.96	-2.24	0.21	0.366	-0.1156	-0.3493	
-0.920368	0.004758	0.330376	-0.77	-0.98	0.84	0.3632	-0.1154	-0.3384	
-0.94611	0.002684	0.33306	-3.85	-0.14	1.26	0.3633	-0.1153	-0.3368	
-0.957944	0.010736	0.346358	-7.35	-0.49	1.68	0.3604	-0.1168	-0.3354	
-0.93025	0.014762	0.347578	-9.87	-0.77	2.8	0.3618	-0.117	-0.3478	
-0.926102	0.014274	0.336232	-11.76	-1.26	3.92	0.3631	-0.1125	-0.3461	
-0.95221	0.014762	0.336354	-14.56	0.63	5.46	0.3575	-0.1138	-0.34	
-0.962092	0.037576	0.354654	-19.25	1.68	6.86	0.356	-0.1137	-0.3384	
-0.940742	0.05612	0.345992	-24.5	0.77	8.61	0.356	-0.117	-0.3525	
-0.93696	0.06466	0.338306	-30.24	2.45	10.78	0.3661	-0.1155	-0.3446	
-0.953064	0.090402	0.340136	-38.85	7	13.16	0.3602	-0.1125	-0.3508	
-0.974658	0.09516	0.32269	-46.34	9.31	17.92	0.3571	-0.1035	-0.3569	
-0.977952	0.080154	0.339282	-56.28	13.86	22.19	0.3614	-0.0989	-0.3474	
-0.985028	0.122854	0.318298	-60.2	5.53	26.32	0.3655	-0.0932	-0.3613	
-0.966118	0.11468	0.281332	-77.42	14.14	31.85	0.3713	-0.08859999	-0.3518	
-0.970388	0.115656	0.321104	-83.16	12.39	36.68	0.3612	-0.0869	-0.3534	
-1.008818	0.114314	0.295484	-89.11	3.5	43.47	0.3627	-0.09	-0.3535	
-0.991616	0.110654	0.273768	-94.29	-2.03	48.02	0.3581	-0.0856	-0.3674	
-0.935008	0.128222	0.274988	-99.82	-7.49	49.56	0.3681	-0.072	-0.3562	
-0.9516	0.143838	0.247782	-105.56	-10.99	50.4	0.3621	-0.0677	-0.3702	
-1.007842	0.118462	0.234728	-118.16	-13.51	53.97	0.358	-0.0749	-0.3594	
-1.015162	0.095404	0.208376	-123.69	-6.44	51.87	0.3462	-0.066	-0.3765	
-1.01321	0.12139	0.197274	-130.83	18.55	48.02	0.3503	-0.0555	-0.3763	
-0.986858	0.128954	0.230824	-139.44	26.11	50.12	0.3455	-0.0361	-0.3899	
-1.03334	0.0976	0.231068	-136.99	18.55	51.66	0.3498	-0.0301	-0.3898	
-1.04249	0.105774	0.219966	-138.81	0.14	57.33	0.3555	-0.0224	-0.3755	
-1.012234	0.10797	0.229848	-139.02	-17.64	64.26	0.3508	-0.009	-0.3893	
-1.028948	0.120048	0.182268	-140.07	-17.92	63.49	0.3465	-0.0042	-0.3799	
-1.02602	0.1037	0.172874	-148.05	-13.09	64.82	0.3404	0.0154	-0.3843	
-1.007232	0.093208	0.195688	-149.1	-10.92	69.58	0.3432	0.0198	-0.3857	
-0.99369	0.08967	0.210938	-145.81	-2.31	70.56	0.3431	0.0228	-0.3872	
-1.007476	0.100406	0.21106	-147.84	6.79	71.33	0.3371	0.0364	-0.3901	
-1.003816	0.061	0.21655	-151.2	14	72.73	0.3457	0.0363	-0.3885	
-1.00162	0.064416	0.214964	-137.34	9.8	76.93	0.3499	0.05	-0.3788	
-1.013088	0.045872	0.21472	-138.88	9.24	78.75	0.3541	0.0576	-0.3755	
-1.026508	0.03416	0.213256	-147.42	10.64	75.18	0.3495	0.0758	-0.3752	
-0.966118	0.031842	0.229726	-136.29	10.08	73.43	0.351	0.0697	-0.3737	
-0.988322	0.035624	0.249002	-97.51	13.51	79.38	0.3637	0.0892	-0.367	
-0.99796	0.019154	0.233874	-96.46	25.69	69.02	0.3452	0.0744	-0.3706	
-0.980514	0.016592	0.23119	-86.31	33.18	67.76	0.3626	0.08199999	-0.35	
-0.979416	0.06405	0.230702	-99.33	36.68	58.8	0.3712	0.0834	-0.3483	
-1.0065	0.070272	0.242292	-108.71	26.6	55.37	0.3782	0.097	-0.3417	
-0.99613	0.067466	0.27145	-105.28	21.21	55.23	0.377	0.085	-0.3389	
-0.97844	0.049044	0.294142	-107.87	19.46	51.8	0.3782	0.1032	-0.3323	
-0.976854	0.057218	0.302438	-109.69	13.02	49.56	0.3783	0.1066	-0.3151	
-0.965508	0.051972	0.295484	-109.55	24.5	42.7	0.4029	0.0954	-0.3213	
-0.956968	0.039528	0.275354	-103.32	31.08	38.64	0.397	0.1125	-0.3023	
-0.947696	0.050142	0.257908	-95.48	28.7	34.44	0.3956	0.108	-0.3024	
-0.940864	0.053924	0.256566	-76.3	28.07	29.54	0.4015	0.1097	-0.2883	
-0.951478	0.06771	0.249002	-59.36	22.61	26.04	0.4056	0.1202	-0.2881	
-0.960628	0.07015	0.248026	-51.1	18.2	21.98	0.4043	0.1174	-0.2803	
-0.965752	0.085522	0.248148	-38.85	14.7	17.85	0.3998	0.128	-0.2817	
-0.971974	0.103212	0.244122	-30.24	8.96	14	0.4171	0.1278	-0.2769	
-0.967216	0.105652	0.245098	-15.47	2.94	10.64	0.4143	0.1249	-0.2723	
-0.941718	0.09638	0.270962	-5.18	-1.54	8.61	0.4173	0.1203	-0.2739	
-0.943426	0.130296	0.278404	5.95	-4.34	5.67	0.413	0.1189	-0.2678	
-0.943914	0.136762	0.284016	9.17	-4.48	3.43	0.4157	0.1248	-0.2738	
-0.936594	0.153354	0.275232	12.88	-6.72	1.89	0.4231	0.1126	-0.2756	
-0.936472	0.17324	0.274866	21	-9.31	-0.21	0.4115	0.1157	-0.2787	
-0.938668	0.178486	0.306708	24.43	-8.61	-1.82	0.4228	0.1244	-0.2878	
-0.951966	0.19703	0.310124	27.51	-6.93	-4.34	0.4057	0.1188	-0.2834	
-0.953674	0.177632	0.28609	27.93	-4.62	-8.12	0.4145	0.1126	-0.2803	
-0.94367	0.17263	0.269986	34.37	-10.15	-10.85	0.4044	0.1081	-0.2883	
-0.933056	0.178974	0.29036	45.64	-13.02	-13.23	0.4159	0.1048	-0.2914	
-0.94184	0.154574	0.299388	57.68	-16.59	-15.54	0.4145	0.1064	-0.2882	
-0.94855	0.123952	0.287066	64.82	-17.36	-17.22	0.4043	0.1033	-0.304	
-1.007598	0.111142	0.273646	67.13	-15.26	-19.88	0.4029	0.1019	-0.3009	
-0.933788	0.153964	0.258762	67.13	-10.78	-26.25	0.4016	0.0942	-0.3104	
-0.96807	0.118584	0.25254	87.71	-15.54	-28.35	0.4044	0.0925	-0.3151	
-0.98149	0.12871	0.241194	100.38	-15.33	-32.9	0.3999	0.0938	-0.3291	
-0.991616	0.11834	0.21838	112.49	-24.22	-37.03	0.4017	0.07889999	-0.3216	
-0.98332	0.09162199	0.21655	117.6	-24.71	-39.55	0.3902	0.079	-0.3233	
-0.967704	0.091378	0.227042	121.31	-24.78	-42	0.3931	0.0743	-0.3312	
-0.974048	0.097722	0.22753	132.72	-28.84	-46.06	0.383	0.0699	-0.336	
-0.99674	0.11407	0.23119	127.61	-35.35	-50.19	0.3776	0.0549	-0.3348	
-0.988688	0.12078	0.239852	105.42	-33.04	-52.71	0.3716	0.0546	-0.3567	
-0.991494	0.145302	0.203008	120.54	-29.82	-55.09	0.3733	0.0427	-0.346	
-1.011136	0.150182	0.164334	117.11	-27.58	-58.1	0.356	0.0428	-0.3555	
-1.017358	0.12627	0.176412	113.75	-20.79	-58.59	0.3618	0.0397	-0.3571	
-0.986492	0.090036	0.191052	123.13	-15.05	-57.96	0.3575	0.0351	-0.365	
-0.989786	0.103822	0.193858	121.52	-19.6	-66.08	0.3649	0.0182	-0.3715	
-1.00101	0.168482	0.17873	131.74	-11.2	-65.59	0.3564	0.017	-0.3638	
-1.01626	0.163846	0.170922	135.52	-3.43	-59.22	0.3679	0.0106	-0.3732	
-1.019066	0.16409	0.180194	138.11	-5.81	-57.12	0.3637	0.003	-0.3796	
-1.021384	0.161284	0.169702	139.79	-8.82	-56.07	0.3641	-0.0117	-0.3628	
-1.021018	0.142252	0.165554	136.08	-13.79	-54.67	0.3612	-0.0211	-0.3801	
-1.022848	0.144448	0.163724	139.72	-11.69	-59.01	0.3587	-0.0312	-0.3632	
-1.024556	0.165432	0.19337	119.91	-13.44	-73.15	0.3544	-0.0373	-0.3681	
-1.041636	0.171166	0.239608	148.68	-14.84	-59.92	0.3572	-0.0343	-0.368	
-1.028094	0.158112	0.217038	139.23	-28.35	-60.27	0.3545	-0.0464	-0.3698	
-1.002596	0.176656	0.2196	137.83	-25.69	-60.41	0.3576	-0.057	-0.3715	
-0.987834	0.16714	0.22204	128.1	-22.33	-61.04	0.3549	-0.0661	-0.3733	
-0.992592	0.169824	0.226432	124.04	-10.92	-62.51	0.3537	-0.078	-0.3689	
-1.010404	0.17446	0.246806	122.08	-1.33	-62.79	0.3537	-0.0779	-0.3627	
-0.992104	0.149694	0.280356	115.43	2.52	-61.32	0.3626	-0.087	-0.3565	
-0.904874	0.201178	0.278648	107.24	-8.82	-66.43	0.3527	-0.0927	-0.349	
-0.969046	0.175192	0.281698	101.85	-8.19	-55.23	0.3541	-0.09739999	-0.3568	
-0.95404	0.177754	0.28548	97.72	-3.22	-51.38	0.3514	-0.1018	-0.3492	
-0.948672	0.178974	0.29585	89.32	-5.46	-45.5	0.363	-0.105	-0.3507	
-0.96197	0.163236	0.27816	80.29	-5.88	-39.55	0.3587	-0.1079	-0.3476	
-0.962214	0.139812	0.286944	69.58	-2.24	-34.16	0.3645	-0.1095	-0.3445	
-0.967826	0.117974	0.29524	63.77	0.63	-27.93	0.3633	-0.1152	-0.3306	
-0.946476	0.121756	0.30927	58.1	0.56	-22.05	0.3575	-0.1137	-0.3369	
-0.953186	0.115412	0.288042	46.48	-4.27	-18.41	0.3676	-0.1169	-0.3353	
-0.946964	0.119316	0.283406	39.76	-4.76	-16.24	0.3663	-0.1182	-0.3275	
-0.948672	0.103456	0.285968	34.23	-0.77	-12.95	0.3706	-0.123	-0.3338	
-0.95587	0.091988	0.30073	22.61	-1.75	-11.27	0.3735	-0.1229	-0.3291	
-0.971242	0.078446	0.298656	17.5	-2.38	-9.87	0.3605	-0.1167	-0.3307	
-0.961726	0.088206	0.30195	13.02	-2.73	-8.75	0.3738	-0.1349	-0.3231	
-0.953186	0.076006	0.30378	9.17	-4.2	-7.77	0.3709	-0.1287	-0.3199	
-0.957822	0.072102	0.303536	5.74	-2.59	-6.79	0.3637	-0.1332	-0.3216	
-0.946476	0.065148	0.313418	3.22	-2.87	-6.23	0.3765	-0.1259	-0.3229	
-0.95038	0.044286	0.307806	0.21	-0.63	-5.25	0.3651	-0.1333	-0.3294	
-0.942084	0.050264	0.300242	1.19	-0.21	-4.34	0.3764	-0.1229	-0.3275	
-0.962336	0.046482	0.290482	-2.87	0.91	-2.45	0.3751	-0.1289	-0.323	
-0.970022	0.048922	0.28975	-4.55	2.31	-0.98	0.3777	-0.1186	-0.3352	
-0.951722	0.027938	0.302316	-8.4	3.08	0.91	0.382	-0.1171	-0.332	
-0.952942	0.030744	0.30561	-9.73	4.13	1.96	0.3665	-0.1241	-0.3168	
-0.957822	0.04026	0.305732	-11.9	2.59	3.15	0.3707	-0.1197	-0.3197	
-0.960872	0.041236	0.299144	-15.26	1.68	5.18	0.3635	-0.121	-0.3198	
-0.96563	0.041236	0.2928	-18.2	2.03	6.93	0.3733	-0.1093	-0.3288	
-0.967338	0.037698	0.294142	-22.19	2.24	8.12	0.3749	-0.1184	-0.3306	
-0.970754	0.0488	0.301462	-24.71	2.38	9.59	0.3748	-0.1139	-0.3305	
-0.957456	0.072712	0.296094	-26.39	-5.39	11.76	0.3691	-0.1169	-0.3337	
-0.976122	0.080154	0.296704	-33.95	-5.95	14.49	0.3749	-0.1199	-0.3275	
-0.98698	0.077226	0.294996	-40.67	-4.48	18.2	0.3662	-0.1106	-0.3243	
-0.955748	0.072224	0.298778	-47.25	-5.95	21.42	0.3747	-0.1094	-0.3335	
-0.928176	0.061244	0.273768	-52.57	0.35	22.96	0.3731	-0.1035	-0.3412	
-0.993202	0.088938	0.30073	-54.11	4.83	22.33	0.3586	-0.09869999	-0.3412	
-0.978196	0.111874	0.295972	-61.53	-7.49	24.71	0.3657	-0.1022	-0.3568	
-0.96624	0.114924	0.27999	-66.64	-14.28	27.86	0.3558	-0.1064	-0.3508	
-0.977464	0.076616	0.265106	-74.9	-13.23	34.44	0.367	-0.0931	-0.355	
-0.970998	0.052948	0.272182	-75.25	-6.79	38.29	0.357	-0.0959	-0.3536	
-0.970266	0.058316	0.290238	-77.28	1.47	37.52	0.3568	-0.0931	-0.366	
-0.986492	0.080154	0.29585	-81.62	2.66	37.31	0.3553	-0.0809	-0.3596	
-0.991738	0.080032	0.294142	-83.51	-3.5	38.5	0.3551	-0.0796	-0.372	
-0.97661	0.083448	0.291946	-85.05	-10.29	39.83	0.3523	-0.078	-0.3658	
-0.951356	0.09357399	0.282186	-84.84	-11.83	40.67	0.3362	-0.072	-0.3845	
-0.951722	0.100772	0.280356	-87.64	-6.65	40.95	0.3491	-0.0692	-0.3843	
-0.969412	0.112728	0.258396	-91.42	4.76	41.51	0.3446	-0.0585	-0.381	
-0.97844	0.092842	0.244366	-91.98	15.33	43.26	0.3444	-0.048	-0.3824	
-0.974292	0.06649	0.277062	-91.91	19.88	44.66	0.3501	-0.0465	-0.3792	
-0.958554	0.068808	0.280112	-88.62	16.45	43.05	0.343	-0.0524	-0.3809	
-0.999302	0.100528	0.283284	-84.56	5.32	39.48	0.3486	-0.0419	-0.3791	
-1.007964	0.09857599	0.279746	-84	-8.47	42.84	0.3427	-0.0344	-0.3837	
-0.991372	0.051728	0.251808	-76.02	-14.07	48.44	0.344	-0.0284	-0.3867	
-0.938546	0.034038	0.247172	-74.62	-9.94	46.9	0.3339	-0.0268	-0.3914	
-0.928786	0.041358	0.276208	-72.59	1.19	39.9	0.3366	-0.0178	-0.3896	
-0.939034	0.076738	0.303292	-68.6	3.57	35	0.3424	-0.0239	-0.3913	
-0.987102	0.100406	0.310978	-66.78	-4.41	33.18	0.3349	-0.0073	-0.3957	
-0.930494	0.12871	0.362096	-50.68	-24.99	42.49	0.3349	-0.0009999999	-0.3847	
-0.978806	0.0122	0.25437	-79.1	-37.87	30.38	0.3318	0.0032	-0.3986	
-0.978684	0.044896	0.247172	-35	-3.64	23.1	0.3233	0.0019	-0.3925	
-0.955992	0.054412	0.342942	-44.52	0.28	17.64	0.3303	0.0046	-0.4048	
-0.96502	0.074542	0.355874	-39.97	-0.49	10.15	0.3245	0.0078	-0.4017	
-0.972584	0.060878	0.333426	-32.83	-8.12	6.3	0.3245	0.0047	-0.4049	
-0.973194	0.019032	0.320738	-30.45	-12.67	4.62	0.3245	0.0124	-0.3954	
-0.99613	-0.00915	0.321958	-20.72	-10.01	2.03	0.3231	0.0079	-0.3971	
-0.966118	-0.010126	0.347334	-14.28	-8.33	-1.54	0.3215	0.0185	-0.3984	
-0.913536	0.013054	0.376736	-11.41	-4.27	-6.51	0.32	0.0198	-0.4062	
-0.950746	0.035136	0.367342	-5.81	-0.77	-10.36	0.3126	0.0305	-0.4076	
-0.940986	0.041358	0.394914	-7.14	-3.57	-14	0.3328	0.0241	-0.4106	
-0.934764	0.036478	0.40077	-4.2	-5.32	-16.03	0.3185	0.0246	-0.3983	
-0.92598	0.016958	0.409554	1.61	-7.42	-15.61	0.3271	0.0227	-0.4092	
-0.922564	0.025132	0.402112	6.3	-8.82	-14.14	0.3214	0.0198	-0.4062	
-0.925004	0.017324	0.415654	3.36	-9.31	-13.65	0.3126	0.0275	-0.4061	
-0.940376	-0.00122	0.408944	8.47	-5.11	-13.86	0.3124	0.0365	-0.409	
-0.918416	-0.001952	0.42395	12.18	0.21	-14.7	0.317	0.0228	-0.4124	
-0.921344	0.000488	0.42212	14.7	3.36	-15.12	0.3068	0.0243	-0.4218	
-0.92415	0.00671	0.413214	16.1	2.73	-15.05	0.3128	0.017	-0.4032	
-0.925004	0.016592	0.408456	18.34	-1.47	-16.66	0.3153	0.0349	-0.4122	
-0.934276	0.0244	0.396866	18.97	-4.9	-16.87	0.3155	0.0259	-0.4108	
-0.924028	0.017934	0.387594	23.03	-7.21	-15.26	0.3214	0.0276	-0.3951	
-0.9455	0.021716	0.3904	20.79	4.48	-15.68	0.3127	0.0245	-0.4077	
-0.92842	0.036356	0.404918	27.79	5.46	-16.03	0.3184	0.0258	-0.4107	
-0.91744	0.042456	0.409676	22.61	0.14	-15.05	0.3157	0.0185	-0.4	
-0.930982	0.014396	0.386374	29.19	-8.19	-9.31	0.3158	0.0139	-0.4032	
-0.90585	0.051484	0.406382	19.88	-0.49	-9.59	0.3156	0.0229	-0.4093	
-0.922686	0.06649	0.408212	15.26	0.63	-9.03	0.3086	0.0063	-0.4175	
-0.929884	0.073078	0.39406	17.15	-3.99	-7.42	0.3173	0.0047	-0.4112	
-0.921222	0.072102	0.404796	14.98	-3.64	-5.53	0.3188	0.0063	-0.4065	
-0.916952	0.080886	0.407724	11.55	-4.06	-4.06	0.3069	0.0215	-0.411	
-0.925858	0.088206	0.400282	5.67	-1.68	-2.59	0.3113	0.0153	-0.4157	
-0.921954	0.07869	0.399306	1.75	-1.26	-0.28	0.3115	0.0016	-0.4207	
-0.910242	0.077836	0.413946	1.12	-3.5	2.17	0.3101	0.0063	-0.4128	
-0.911584	0.09394	0.419802	-1.33	-6.37	3.57	0.3042	0.0155	-0.4111	
-0.920734	0.09821	0.419924	-7.14	-6.16	5.04	0.3043	0.0033	-0.416	
-0.905118	0.086132	0.434076	-10.29	-4.34	7.84	0.3143	0.0108	-0.4127	
-0.8906	0.089792	0.454694	-11.97	0.98	9.66	0.3142	0.0168	-0.4125	
-0.88572	0.086254	0.477264	-14.14	4.55	10.43	0.3072	0.0033	-0.4144	
-0.880596	0.094062	0.480802	-14	2.45	10.36	0.3086	0.0063	-0.4159	
-0.88023	0.08686399	0.463966	-16.59	1.19	9.52	0.3099	0.0123	-0.4142	
-0.885232	0.070516	0.448838	-18.34	6.09	9.17	0.3114	0.0123	-0.4158	
-0.893894	0.06771	0.441396	-19.39	6.23	9.73	0.3141	0.0212	-0.4187	
-0.895602	0.064294	0.417728	-22.82	3.64	9.94	0.3213	0.0211	-0.4155	
-0.903898	0.067588	0.4026	-21.77	1.54	10.15	0.3128	0.0139	-0.4095	
-0.965752	0.080642	0.349408	-22.89	-1.33	12.32	0.3085	0.0169	-0.411	
-0.956236	0.067832	0.32147	-21.28	-10.57	12.74	0.3084	0.0169	-0.4157	
-0.998692	0.049532	0.275964	-18.41	-9.66	13.51	0.3041	0.0184	-0.4173	
-0.979294	0.044408	0.31598	-13.3	-11.76	15.19	0.3153	0.0334	-0.4122	
-0.976	0.02257	0.33916	-26.18	-9.73	21.56	0.3083	0.0244	-0.4156	
-0.964776	0.01647	0.350384	-28.7	-3.85	22.96	0.3126	0.0259	-0.4108	
-0.961848	0.031964	0.368928	-32.69	-8.19	22.33	0.3097	0.0275	-0.4092	
-0.9577	0.034404	0.36783	-31.36	-17.71	23.31	0.3125	0.0303	-0.4169	
-0.936716	0.026718	0.38918	-29.4	-14.98	26.81	0.3094	0.0348	-0.4247	
-0.932934	0.02562	0.427244	-25.13	-10.36	28.7	0.2951	0.0368	-0.4123	
-0.899384	0.03172	0.44469	-22.33	-12.39	30.31	0.3066	0.0302	-0.4295	
-0.874374	0.042822	0.44957	-21.28	-12.67	29.82	0.2924	0.0215	-0.4236	
-0.892064	0.056242	0.445178	-20.51	-9.03	28	0.2968	0.02	-0.422	
-0.903044	0.066612	0.435418	-16.24	-8.4	26.95	0.295	0.0381	-0.4248	
-0.89731	0.075518	0.438468	-15.12	-8.96	25.83	0.2923	0.0306	-0.4203	
-0.91195	0.082594	0.44164	-13.02	-7.35	23.8	0.2966	0.029	-0.4249	
-0.906094	0.085766	0.447374	-12.32	-8.05	21.49	0.2967	0.0291	-0.4187	
-0.890844	0.096258	0.445056	-9.66	-9.94	20.16	0.288	0.0292	-0.4188	
-0.89487	0.097722	0.454694	-9.52	-9.52	18.34	0.2981	0.0258	-0.4296	
-0.883158	0.09516	0.46421	-9.52	-9.66	17.36	0.2981	0.0244	-0.425	
-0.882914	0.106018	0.476898	-9.52	-10.99	16.66	0.2881	0.0247	-0.422	
-0.883158	0.116632	0.471408	-9.59	-12.18	16.38	0.2866	0.023	-0.4283	
-0.871568	0.127612	0.472384	-8.26	-13.72	16.1	0.2982	0.0168	-0.4267	
-0.868274	0.134322	0.476532	-7.84	-11.76	16.17	0.2881	0.0183	-0.4361	
-0.867176	0.140544	0.485682	-7.14	-10.92	16.1	0.285	0.0244	-0.4391	
-0.86742	0.157014	0.490928	-6.58	-10.85	15.96	0.282	0.0336	-0.4343	
-0.863882	0.156892	0.497516	-6.58	-10.29	16.31	0.2821	0.0228	-0.4439	
-0.86071	0.159088	0.496052	-6.02	-10.22	16.38	0.2735	0.0277	-0.4361	
-0.862052	0.172264	0.493246	-7.35	-9.73	16.59	0.2694	0.0172	-0.4332	
-0.856928	0.184586	0.498126	-10.01	-8.47	16.52	0.2721	0.0231	-0.4409	
-0.85278	0.189222	0.50142	-10.36	-8.26	16.31	0.2795	0.0124	-0.4379	
-0.856684	0.1952	0.499346	-11.62	-7.21	16.52	0.2751	0.0171	-0.4363	
-0.856806	0.20008	0.508008	-13.16	-6.72	16.59	0.2694	0.0187	-0.4332	
-0.845582	0.206668	0.502518	-15.19	-7.63	16.8	0.2735	0.0246	-0.4408	
-0.8418	0.198982	0.518012	-17.5	-5.39	17.15	0.2807	0.0275	-0.4376	
-0.841312	0.186294	0.521916	-16.94	-5.67	17.08	0.2736	0.02	-0.4425	
-0.835944	0.178364	0.52521	-17.22	-6.37	16.38	0.2619	0.0262	-0.444	
-0.829966	0.178974	0.527894	-16.66	-5.67	15.96	0.2706	0.0229	-0.4487	
-0.826184	0.173484	0.530456	-15.89	-6.58	14.77	0.2736	0.0201	-0.4347	
-0.824964	0.174094	0.53253	-14.77	-6.93	13.86	0.2634	0.0261	-0.4471	
-0.822036	0.181292	0.540948	-15.12	-6.23	12.88	0.2704	0.0382	-0.4406	
-0.82167	0.173606	0.548756	-13.93	-6.3	12.88	0.2706	0.0214	-0.4518	
-0.813984	0.171166	0.554612	-11.34	-7.14	13.09	0.2662	0.026	-0.4502	
-0.811056	0.177388	0.551806	-9.94	-7.56	13.23	0.2605	0.0278	-0.4424	
-0.810934	0.187148	0.552416	-9.24	-6.93	13.44	0.2676	0.0275	-0.4517	
-0.80764	0.188734	0.558272	-7.91	-6.02	14.28	0.2662	0.0306	-0.447	
-0.810934	0.181414	0.557174	-8.12	-6.58	14.91	0.2632	0.0336	-0.4501	
-0.811056	0.191296	0.548512	-7.35	-6.37	15.05	0.2663	0.02	-0.4503	
-0.807152	0.215818	0.552904	-7.56	-4.76	13.93	0.2575	0.0338	-0.4455	
-0.81191	0.21289	0.565958	-7.28	-4.9	13.44	0.256	0.0323	-0.4486	