Sensor string: B
Serial number: 1970-01-0000
Firmware version: 2,015
Hardware version: 2,2
Calibration quality: 5
ax	ay	az	gx	gy	gz	mx	my	mz

0.105042	-0.899506	0.445788	-19.04	6.16	2.1	-0.0698	0.2591	-0.4919	Reference
0.071492	-0.909754	0.43493	-18.27	8.75	2.94	-0.0641	0.2607	-0.4824	
0.038918	-0.896334	0.413092	-17.15	7.63	4.13	-0.074	0.2579	-0.4747	
0.04209	-0.877668	0.40687	-16.31	6.37	4.13	-0.0582	0.247	-0.4795	
0.011956	-0.86864	0.404918	-17.71	6.23	2.73	-0.0627	0.2654	-0.4745	
0.011956	-0.880962	0.386862	-21.07	3.08	-0.35	-0.0669	0.267	-0.4698	
0.080642	-0.901214	0.382348	-22.47	-1.26	-2.87	-0.0626	0.2672	-0.4767	
0.104554	-0.923174	0.353556	-22.47	0.77	-4.62	-0.0641	0.2716	-0.4666	
0.054412	-0.96075	0.325252	-22.68	2.45	-5.46	-0.0656	0.2715	-0.4729	
0.029524	-0.97539	0.306708	-19.74	0.98	-4.55	-0.0599	0.2715	-0.4666	
0.045384	-0.964044	0.328302	-17.29	-2.59	-2.38	-0.0685	0.2792	-0.4681	
0.09552599	-0.960262	0.325252	-15.12	-4.69	0.07	-0.0742	0.2839	-0.4618	
0.09076799	-0.94062	0.327204	-14.77	-3.29	-0.42	-0.0685	0.2808	-0.4602	
0.086132	-0.943548	0.3355	-15.47	-3.01	-0.98	-0.0585	0.2825	-0.4461	
0.091378	-0.94916	0.357094	-14.56	-1.96	-0.42	-0.0699	0.2886	-0.4508	
0.077958	-0.95038	0.352702	-14.7	-0.98	3.22	-0.0699	0.2871	-0.4523	
0.06466	-0.939888	0.342454	-15.89	0.35	6.93	-0.0714	0.2931	-0.4554	
0.06039	-0.921588	0.327692	-16.24	0.56	8.33	-0.0614	0.293	-0.4538	
0.04636	-0.917684	0.322568	-17.92	1.05	7.42	-0.0685	0.2886	-0.4523	
0.061366	-0.933788	0.345138	-19.95	-0.84	3.92	-0.0685	0.2964	-0.435	
0.08052	-0.942938	0.351116	-18.06	0.84	4.48	-0.0729	0.2993	-0.4459	
0.059902	-0.942938	0.33245	-16.87	1.96	4.34	-0.06	0.2978	-0.4412	
0.05795	-0.946964	0.330132	-15.61	1.47	3.57	-0.0658	0.3086	-0.4348	
0.056608	-0.964532	0.340136	-14.35	1.47	5.18	-0.0614	0.2994	-0.4349	
0.04392	-0.97417	0.35319	-12.74	1.12	6.79	-0.0658	0.3039	-0.4411	
0.03477	-0.942816	0.342332	-10.99	1.19	7.63	-0.0715	0.3086	-0.4364	
0.050264	-0.909876	0.3233	-10.36	0.42	6.51	-0.0615	0.3085	-0.4379	
0.040626	-0.899994	0.315004	-11.55	0.42	4.76	-0.053	0.3069	-0.4572	
0.020496	-0.919514	0.306464	-13.93	-2.03	1.12	-0.0672	0.3101	-0.4107	
0.008296	-0.950868	0.30561	-14.21	-4.2	0.42	-0.0574	0.3207	-0.4314	
0.019764	-0.969046	0.301584	-12.95	-6.79	0	-0.0616	0.3208	-0.4252	
0.054656	-0.967704	0.29951	-10.36	-6.93	-0.84	-0.0602	0.3178	-0.4252	
0.05734	-0.952698	0.29158	-8.68	-5.81	-1.89	-0.0573	0.3194	-0.4158	
0.0427	-0.939034	0.285846	-8.26	-4.97	-3.15	-0.0659	0.3208	-0.4315	
0.039772	-0.94062	0.282674	-9.38	-5.18	-4.27	-0.0573	0.3177	-0.4252	
0.053436	-0.949526	0.278404	-10.08	-5.39	-5.88	-0.0602	0.3146	-0.4315	
0.060024	-0.963068	0.278282	-9.66	-5.6	-7.14	-0.06879999	0.3224	-0.4252	
0.060756	-0.96441	0.271084	-8.61	-5.6	-7.98	-0.06439999	0.3132	-0.43	
0.07686	-0.970144	0.258518	-7.91	-4.97	-6.93	-0.07009999	0.3242	-0.408	
0.082838	-0.970022	0.23912	-6.44	-5.11	-4.9	-0.0715	0.318	-0.4159	
0.07808	-0.985394	0.232776	-6.93	-5.67	-5.6	-0.06879999	0.3255	-0.4205	
0.084668	-1.007598	0.21838	-6.65	-5.74	-7.35	-0.0744	0.3196	-0.4159	
0.06954	-1.023336	0.20069	-4.9	-4.97	-7.49	-0.0772	0.3197	-0.4097	
0.061976	-1.036512	0.196664	-4.13	-5.39	-5.6	-0.07449999	0.3256	-0.4205	
0.076372	-1.03578	0.195078	-0.77	-5.04	-3.29	-0.0787	0.3258	-0.408	
0.083692	-1.001864	0.183	3.01	-5.53	-2.31	-0.0787	0.3242	-0.4158	
0.081984	-0.99125	0.17934	2.59	-6.65	-2.31	-0.083	0.3303	-0.4142	
0.087108	-0.987102	0.186782	1.26	-7.14	-2.94	-0.0858	0.3228	-0.4128	
0.116022	-0.982222	0.196908	0.56	-5.95	-2.45	-0.0788	0.3287	-0.4189	
0.126514	-0.981246	0.201422	0.98	-4.97	-1.54	-0.0815	0.3196	-0.4175	
0.120292	-0.98942	0.193736	1.89	-2.66	-0.63	-0.0831	0.3333	-0.4204	
0.120414	-0.985028	0.195566	2.66	-0.49	0.56	-0.0844	0.3272	-0.4205	
0.1098	-0.991982	0.202032	3.85	2.17	1.19	-0.0803	0.3316	-0.4314	
0.09747799	-0.981368	0.204106	3.57	2.66	0.14	-0.0859	0.3334	-0.4142	
0.08686399	-0.97112	0.200934	1.54	1.61	-1.26	-0.0787	0.321	-0.4284	
0.062098	-0.98637	0.213012	1.54	1.61	-2.1	-0.073	0.3242	-0.4096	
0.045872	-0.989298	0.226676	2.94	-0.21	-0.56	-0.0786	0.3151	-0.4129	
0.058072	-0.983442	0.239242	4.06	-2.31	1.89	-0.083	0.3242	-0.4159	
0.053802	-0.972218	0.243756	5.11	-3.99	2.38	-0.0887	0.3257	-0.4252	
0.045506	-0.97356	0.246928	4.41	-6.02	1.54	-0.0901	0.3226	-0.4253	
0.05246	-0.96929	0.256688	4.27	-7.21	0.7	-0.0858	0.3242	-0.4206	
0.068686	-0.958676	0.27023	4.62	-6.44	0.35	-0.0815	0.3165	-0.4207	
0.082472	-0.940986	0.27755	5.25	-6.3	0.56	-0.08859999	0.315	-0.4254	
0.08784	-0.942938	0.288286	5.6	-7.28	0.7	-0.083	0.3257	-0.4221	
0.097966	-0.930738	0.28792	7.35	-7.49	0.14	-0.0759	0.3287	-0.4158	
0.10187	-0.944036	0.284138	7	-6.02	-1.33	-0.0901	0.3211	-0.4253	
0.103212	-0.971486	0.289872	7.63	-5.6	-2.45	-0.0872	0.3166	-0.4238	
0.108824	-0.963556	0.29402	10.43	-4.34	-3.15	-0.0901	0.3228	-0.4144	
0.116876	-0.94794	0.292556	10.85	-3.5	-2.8	-0.0857	0.3088	-0.4302	
0.119072	-0.94123	0.294752	9.59	-0.98	-2.87	-0.09	0.3119	-0.4348	
0.11773	-0.937448	0.29585	8.19	1.54	-2.73	-0.0929	0.312	-0.4286	
0.121634	-0.936594	0.296338	6.23	2.73	-3.01	-0.0986	0.3165	-0.4348	
0.120048	-0.942084	0.294752	4.97	5.46	-3.29	-0.09999999	0.3119	-0.4365	
0.10919	-0.938668	0.296216	3.99	7.7	-3.43	-0.08859999	0.3057	-0.4381	
0.096868	-0.938668	0.293898	2.8	9.73	-4.06	-0.0915	0.3181	-0.4285	
0.091866	-0.948062	0.293776	1.96	9.31	-4.2	-0.0872	0.3104	-0.4302	
0.088938	-0.955016	0.291336	2.1	9.03	-4.06	-0.0857	0.3072	-0.438	
0.08686399	-0.951966	0.291092	2.17	8.47	-4.41	-0.0787	0.3147	-0.4394	
0.088694	-0.944768	0.292434	1.26	7.35	-5.11	-0.0858	0.3118	-0.4364	
0.094428	-0.941108	0.290848	-0.28	6.23	-5.67	-0.0844	0.3118	-0.4379	
0.101992	-0.942084	0.287676	-1.61	4.62	-5.25	-0.0801	0.318	-0.4253	
0.108336	-0.947696	0.281576	-2.38	5.18	-4.34	-0.0829	0.3103	-0.4317	
0.10553	-0.957456	0.277062	-2.94	5.53	-4.27	-0.0843	0.3072	-0.4349	
0.102602	-0.970998	0.272914	-2.24	5.95	-4.83	-0.0828	0.3074	-0.4255	
0.08686399	-0.977464	0.278282	-1.82	4.76	-5.53	-0.09	0.3056	-0.4443	
0.101504	-0.970144	0.275598	-0.07	3.36	-4.48	-0.0885	0.2996	-0.4428	
0.103578	-0.970022	0.27328	1.82	2.03	-3.36	-0.0829	0.3118	-0.4364	
0.102968	-0.969534	0.27572	3.99	1.05	-2.52	-0.0872	0.3148	-0.4364	
0.108214	-0.970144	0.28365	5.25	0.56	-1.75	-0.09	0.315	-0.4254	
0.107604	-0.960872	0.29219	6.86	0.7	-1.05	-0.09	0.3057	-0.4396	
0.10553	-0.955992	0.299022	7.35	0.14	-0.7	-0.0843	0.3089	-0.4286	
0.111142	-0.947574	0.305732	7.84	0	-0.35	-0.0843	0.3058	-0.4318	
0.122854	-0.940254	0.305366	7.63	-0.07	-0.21	-0.09559999	0.3013	-0.4366	
0.12078	-0.942328	0.309636	7.7	0.42	-0.07	-0.08989999	0.2981	-0.4398	
0.116388	-0.94611	0.31232	7.77	0.49	0.35	-0.0871	0.295	-0.4429	
0.112972	-0.94916	0.315126	7.77	0.84	0.91	-0.0813	0.2934	-0.4429	
0.105164	-0.941962	0.318664	7.49	1.12	1.33	-0.0772	0.304	-0.4412	
0.10797	-0.92842	0.319396	6.37	1.26	1.89	-0.0942	0.3012	-0.4413	
0.111386	-0.930128	0.320006	4.76	1.19	1.89	-0.0914	0.3073	-0.4334	
0.102114	-0.934642	0.31842	4.34	1.68	1.96	-0.0929	0.3056	-0.4459	
0.094428	-0.945378	0.316346	3.71	0.77	2.1	-0.0829	0.3071	-0.4458	
0.09162199	-0.94855	0.318054	4.06	-0.63	2.66	-0.0843	0.3087	-0.4411	
0.094794	-0.940132	0.318908	4.13	-1.12	2.87	-0.0913	0.2966	-0.4429	
0.0976	-0.93513	0.321226	3.43	-1.61	2.59	-0.0814	0.3026	-0.4381	
0.09942999	-0.93025	0.322202	2.94	-1.75	1.96	-0.0843	0.3039	-0.4521	
0.103456	-0.932568	0.328668	2.45	-2.31	1.26	-0.0786	0.2979	-0.446	
0.104676	-0.931226	0.332816	2.59	-3.15	0.84	-0.0799	0.2934	-0.4413	
0.104798	-0.928786	0.33367	2.59	-3.71	0.63	-0.07009999	0.3039	-0.4411	
0.104432	-0.930128	0.335866	2.03	-3.99	0.14	-0.0928	0.298	-0.4491	
0.10797	-0.9333	0.336598	1.75	-3.92	-0.21	-0.0843	0.3024	-0.4537	
0.104066	-0.9211	0.336598	0.84	-4.41	-0.63	-0.0928	0.3011	-0.4475	
0.116022	-0.92903	0.338672	-0.42	-4.76	-0.28	-0.0828	0.2949	-0.4429	
0.115168	-0.934764	0.339038	0	-3.78	-0.14	-0.08419999	0.3011	-0.4366	
0.10675	-0.946598	0.33977	-0.14	-3.36	-0.28	-0.0843	0.2995	-0.4444	
0.106872	-0.955504	0.340136	0.28	-2.8	0.91	-0.0884	0.2843	-0.4447	
0.11224	-0.945012	0.339648	0.77	-2.17	2.24	-0.09429999	0.3011	-0.4475	
0.118462	-0.931348	0.33977	0.7	-1.68	3.08	-0.0857	0.2979	-0.4476	
0.119804	-0.919148	0.337696	0	-0.98	3.08	-0.0884	0.2858	-0.4478	
0.118828	-0.91195	0.33733	-0.7	-0.14	2.17	-0.0856	0.2873	-0.4477	
0.115656	-0.920246	0.33794	-1.54	0.42	1.05	-0.0857	0.2978	-0.4538	
0.112728	-0.92781	0.33245	-1.61	0.84	0.07	-0.0928	0.295	-0.4445	
0.109922	-0.936106	0.32452	-1.47	1.05	-0.42	-0.08419999	0.2951	-0.4351	
0.109922	-0.939766	0.325374	-1.26	0.84	-0.91	-0.0913	0.295	-0.4476	
0.115412	-0.93574	0.324398	-1.4	0.98	-1.26	-0.08989999	0.2951	-0.4367	
0.113948	-0.935008	0.321592	-2.17	1.47	-1.47	-0.087	0.2859	-0.4431	
0.112728	-0.938302	0.32269	-2.8	1.75	-1.68	-0.0885	0.295	-0.4414	
0.109556	-0.938424	0.319884	-2.94	1.96	-1.61	-0.0885	0.2996	-0.4382	
0.10858	-0.941352	0.319152	-3.01	0.98	-1.54	-0.087	0.295	-0.4398	
0.108824	-0.943182	0.316712	-2.73	0.35	-1.33	-0.09119999	0.2922	-0.4305	
0.109068	-0.945012	0.312808	-2.31	-0.07	-1.12	-0.0827	0.2951	-0.4335	
0.111752	-0.94428	0.312442	-2.17	-0.49	-0.84	-0.0771	0.2948	-0.4476	
0.10614	-0.946354	0.311466	-1.96	-0.07	-0.56	-0.0971	0.298	-0.4507	
0.10492	-0.948184	0.313784	-1.61	-0.56	-0.35	-0.0928	0.3042	-0.4397	
0.108702	-0.940986	0.310002	-0.63	-0.49	0.07	-0.0813	0.2966	-0.4335	
0.112362	-0.943426	0.314028	-0.7	-0.91	0	-0.0871	0.3042	-0.435	
0.106994	-0.943304	0.317322	-0.14	-0.91	-0.21	-0.0885	0.2979	-0.4491	
0.106262	-0.94062	0.316102	0.14	-1.33	-0.21	-0.0885	0.2982	-0.4351	
0.10553	-0.941718	0.31781	0.07	-1.26	-0.28	-0.0828	0.2995	-0.446	
0.106628	-0.944402	0.320128	0.21	-1.47	-0.21	-0.0885	0.3012	-0.4381	
0.115656	-0.941108	0.320006	1.05	-1.82	0.56	-0.097	0.2952	-0.4383	
0.11468	-0.934154	0.322324	1.12	-1.82	0.56	-0.0971	0.3027	-0.4428	
0.117486	-0.936838	0.324154	0.14	-1.75	0.35	-0.08419999	0.2951	-0.4366	
0.114802	-0.942694	0.32208	0	-1.19	0	-0.0856	0.2904	-0.4461	
0.111264	-0.938424	0.323178	0.28	-0.91	0.07	-0.0914	0.3011	-0.4413	
0.112118	-0.940498	0.322934	-0.21	-0.91	0.28	-0.0942	0.3012	-0.4413	
0.114192	-0.942328	0.318664	-0.07	-0.49	0.21	-0.0942	0.2965	-0.4492	
0.113582	-0.933422	0.31781	0.14	-0.49	0	-0.0841	0.289	-0.4367	
0.11407	-0.938302	0.318786	-0.14	-0.42	-0.28	-0.09	0.3011	-0.4397	
0.108824	-0.943792	0.317322	0	-0.42	-0.56	-0.0913	0.2966	-0.4367	
0.108702	-0.945134	0.318054	0.14	-0.84	-0.63	-0.0927	0.2936	-0.4398	
0.110898	-0.943548	0.321104	0.42	-1.05	-0.56	-0.0971	0.3028	-0.4381	
0.115168	-0.940376	0.321592	0.35	-0.91	-0.35	-0.0957	0.3027	-0.4397	
0.114924	-0.935862	0.31964	0.28	-0.98	-0.21	-0.0857	0.3027	-0.4365	
0.11529	-0.934642	0.319152	-0.35	-1.05	-0.63	-0.0941	0.2905	-0.4461	
0.115778	-0.936472	0.320616	-0.91	-0.77	-0.84	-0.08989999	0.2966	-0.4413	
0.113338	-0.94001	0.317444	-1.26	-0.28	-1.05	-0.0971	0.3028	-0.4381	
0.11712	-0.943914	0.31659	-1.4	-0.21	-1.12	-0.0942	0.3011	-0.4444	
0.122488	-0.928298	0.326594	-1.82	0.56	-1.05	-0.0856	0.3012	-0.4303	
0.13054	-0.921466	0.326716	-3.78	1.96	-1.33	-0.087	0.295	-0.4414	
0.12749	-0.924028	0.322324	-4.9	3.36	-2.24	-0.097	0.2906	-0.4399	
0.12322	-0.931714	0.321836	-5.6	4.27	-3.64	-0.09429999	0.3088	-0.4412	
0.12078	-0.938302	0.314272	-5.32	5.04	-4.48	-0.0872	0.3071	-0.4443	
0.115778	-0.94977	0.30744	-4.83	5.04	-4.69	-0.0871	0.3027	-0.4365	
0.11529	-0.953064	0.30317	-3.64	5.25	-4.9	-0.0942	0.2997	-0.4366	
0.123464	-0.947208	0.304634	-3.01	4.69	-4.62	-0.0885	0.3027	-0.4381	
0.132004	-0.94855	0.30256	-2.59	4.27	-4.97	-0.08989999	0.3012	-0.4381	
0.138714	-0.958188	0.299388	-1.68	4.13	-4.9	-0.09559999	0.2967	-0.4351	
0.133956	-0.963678	0.296338	-0.14	4.27	-4.9	-0.0971	0.2997	-0.4398	
0.117364	-0.963922	0.2867	1.26	2.73	-5.6	-0.0884	0.2891	-0.4305	
0.113216	-0.953308	0.280478	2.17	0.77	-4.83	-0.0942	0.3028	-0.4334	
0.119194	-0.953064	0.278038	2.73	-1.4	-3.22	-0.0928	0.2982	-0.4366	
0.119316	-0.96258	0.28304	3.99	-4.62	-1.89	-0.0898	0.2937	-0.432	
0.11346	-0.966362	0.28365	6.3	-7.84	0.42	-0.0999	0.2982	-0.4429	
0.104676	-0.971974	0.297802	7.49	-11.13	3.29	-0.0955	0.2937	-0.432	
0.107726	-0.965386	0.306464	8.05	-13.3	5.53	-0.0928	0.3042	-0.4397	
0.12261	-0.945378	0.30988	8.05	-14.91	7.98	-0.0914	0.3012	-0.4397	
0.12566	-0.938424	0.319274	7.42	-16.1	9.24	-0.107	0.2968	-0.4398	
0.133834	-0.928298	0.332084	6.16	-16.1	9.94	-0.0999	0.3028	-0.435	
0.135176	-0.925126	0.33611	4.27	-14.49	10.5	-0.09559999	0.2996	-0.4429	
0.133224	-0.921588	0.337696	2.66	-13.16	9.94	-0.0971	0.2981	-0.4476	
0.141154	-0.92171	0.337696	1.4	-12.04	9.73	-0.09559999	0.2967	-0.4382	
0.13908	-0.916952	0.338916	0.77	-9.52	8.33	-0.0999	0.2982	-0.4398	
0.12932	-0.91805	0.339648	-0.77	-5.67	5.6	-0.1013	0.2952	-0.4398	
0.12993	-0.918294	0.336964	-1.4	-3.85	3.71	-0.1013	0.2952	-0.4398	
0.137494	-0.916098	0.336232	-2.24	-1.96	1.82	-0.1056	0.2952	-0.4414	
0.136518	-0.91805	0.331352	-3.22	0.28	0.49	-0.1098	0.2953	-0.4414	
0.128954	-0.929884	0.320982	-3.92	2.59	-0.77	-0.0971	0.2997	-0.4429	
0.124562	-0.929396	0.311588	-4.13	3.01	-1.54	-0.0957	0.3042	-0.4459	
0.125782	-0.940986	0.31049	-4.62	3.08	-2.17	-0.0941	0.2906	-0.4352	
0.123342	-0.951844	0.313296	-4.06	3.5	-2.45	-0.1013	0.3045	-0.4303	
0.122244	-0.945256	0.311588	-3.08	3.85	-2.59	-0.1028	0.3074	-0.4365	
0.124196	-0.941962	0.30805	-2.94	3.01	-2.73	-0.1014	0.3043	-0.4428	
0.13054	-0.947696	0.305366	-2.66	2.59	-2.45	-0.0984	0.2952	-0.4383	
0.125904	-0.954162	0.30317	-2.03	3.29	-2.1	-0.097	0.2936	-0.4383	
0.116022	-0.956236	0.300486	-1.19	3.29	-1.26	-0.0985	0.2981	-0.4445	
0.111752	-0.960506	0.299998	-0.28	2.52	-0.49	-0.1041	0.2968	-0.4351	
0.110166	-0.96075	0.300242	0.84	1.68	0.42	-0.0971	0.306	-0.4272	
0.114192	-0.954406	0.30683	1.89	0.84	1.19	-0.1055	0.2937	-0.4383	
0.112118	-0.94733	0.31232	2.38	0.42	1.61	-0.09559999	0.2966	-0.4414	
0.117242	-0.942572	0.318176	2.38	0.07	2.1	-0.1014	0.3088	-0.4428	
0.120048	-0.939034	0.321836	2.1	0.42	2.38	-0.0913	0.2905	-0.443	
0.12017	-0.93025	0.325374	1.75	0.98	2.24	-0.0942	0.2997	-0.4351	
0.119316	-0.92659	0.32635	1.05	1.47	1.82	-0.1013	0.2968	-0.4351	
0.117608	-0.927078	0.328302	0.21	2.24	0.77	-0.1042	0.3013	-0.4398	
0.11407	-0.925614	0.325862	-0.42	2.73	-0.14	-0.1012	0.2876	-0.44	
0.11529	-0.92415	0.325984	-1.26	3.15	-0.77	-0.0913	0.2997	-0.435	
0.114924	-0.926346	0.323788	-1.82	3.36	-1.54	-0.0928	0.2982	-0.4366	
0.11895	-0.926346	0.3233	-2.52	3.43	-2.24	-0.1014	0.3012	-0.4444	
0.12078	-0.928298	0.320494	-3.29	3.78	-2.8	-0.0915	0.3087	-0.4427	
0.124318	-0.932934	0.318664	-4.34	4.48	-3.78	-0.0999	0.2936	-0.4446	
0.123708	-0.932202	0.316712	-4.97	5.11	-4.2	-0.1013	0.2982	-0.4398	
0.122732	-0.939156	0.31415	-5.32	5.67	-4.76	-0.1027	0.2998	-0.4351	
0.126758	-0.942938	0.308782	-4.9	6.02	-5.18	-0.1013	0.2998	-0.4367	
0.124562	-0.940132	0.305854	-4.41	6.37	-5.39	-0.0942	0.2982	-0.4366	
0.113094	-0.954406	0.300364	-4.48	6.93	-6.23	-0.09429999	0.3043	-0.4381	
0.113704	-0.958066	0.304756	-3.57	6.09	-5.81	-0.097	0.2999	-0.4288	
0.115656	-0.948672	0.296094	-2.38	6.23	-5.6	-0.097	0.2906	-0.4415	
0.123342	-0.948428	0.294264	-2.24	4.97	-5.67	-0.0914	0.3104	-0.4302	
0.123586	-0.955992	0.296216	-1.61	4.48	-5.25	-0.09559999	0.2984	-0.4226	
0.11834	-0.961726	0.294996	-0.91	4.13	-4.48	-0.0885	0.3044	-0.4256	
0.115046	-0.959286	0.295484	-0.42	3.43	-3.64	-0.1012	0.2922	-0.4352	
0.120536	-0.954894	0.29707	-0.21	2.31	-2.8	-0.0985	0.3058	-0.4397	
0.122244	-0.947818	0.300608	0.07	1.4	-2.03	-0.0971	0.3042	-0.4459	
0.12017	-0.940742	0.299388	-0.21	-0.14	-1.96	-0.0985	0.3059	-0.435	
0.123708	-0.942816	0.299266	-0.42	-1.82	-2.31	-0.0898	0.2922	-0.4273	
0.12871	-0.947818	0.299998	-0.42	-2.94	-2.1	-0.097	0.2982	-0.4382	
0.134566	-0.943548	0.30256	-0.07	-3.43	-1.89	-0.0957	0.3074	-0.4334	
0.141032	-0.941596	0.30561	-0.28	-3.5	-1.47	-0.1029	0.3135	-0.4349	
0.14396	-0.940986	0.303658	-0.21	-2.8	-0.84	-0.0928	0.2981	-0.4413	
0.146888	-0.936106	0.30317	-0.42	-2.31	-0.49	-0.09559999	0.2981	-0.4413	
0.149084	-0.94001	0.300486	-0.49	-1.89	-0.35	-0.1028	0.3043	-0.4397	
0.14823	-0.947696	0.300364	-0.35	-1.82	-0.42	-0.107	0.3014	-0.4351	
0.146156	-0.950014	0.30012	0	-1.68	-0.21	-0.0957	0.3027	-0.4444	
0.149816	-0.94672	0.299998	0.14	-1.75	0.14	-0.1042	0.2998	-0.4414	
0.154696	-0.944158	0.301584	0.07	-1.33	0.84	-0.1057	0.3091	-0.4287	
0.151524	-0.94184	0.303292	-0.07	-0.7	0.98	-0.08859999	0.3073	-0.4333	
0.153232	-0.938424	0.303292	-0.35	-0.7	1.26	-0.1027	0.3	-0.4241	
0.151402	-0.938302	0.301828	-0.56	-0.84	1.47	-0.1057	0.3074	-0.4381	
0.150182	-0.945744	0.299754	-0.84	-0.7	1.54	-0.0998	0.2984	-0.4257	
0.146156	-0.94855	0.299632	-0.63	-0.42	1.89	-0.1084	0.2969	-0.4352	
0.142984	-0.946476	0.301706	-0.7	-0.63	2.17	-0.1098	0.2955	-0.4289	
0.142862	-0.947574	0.299388	-0.63	-0.7	2.66	-0.0985	0.303	-0.4272	
0.13969	-0.945744	0.297436	-0.49	-1.19	2.87	-0.0927	0.2967	-0.4335	
0.137128	-0.9455	0.298656	0	-1.33	3.01	-0.097	0.2969	-0.4273	
0.136152	-0.943182	0.296704	-0.07	-1.4	2.94	-0.1012	0.2969	-0.4242	
0.130906	-0.945378	0.299144	-0.49	-1.47	3.01	-0.0984	0.2983	-0.4335	
0.131516	-0.946842	0.300608	-0.63	-1.05	3.08	-0.104	0.2862	-0.4306	
0.128954	-0.944646	0.29951	-0.56	-1.12	3.36	-0.1029	0.312	-0.438	
0.12993	-0.943304	0.301096	-0.7	-1.05	3.5	-0.107	0.2954	-0.4321	
0.126514	-0.939522	0.29768	-0.84	-0.98	3.71	-0.0913	0.2967	-0.4335	
0.124074	-0.939522	0.29768	-1.4	-1.26	3.57	-0.0985	0.3014	-0.4288	
0.119804	-0.943426	0.297192	-1.54	-1.26	3.36	-0.09559999	0.3013	-0.435	
0.117974	-0.947818	0.295484	-1.61	-1.33	3.22	-0.0928	0.3027	-0.4413	
0.116876	-0.953308	0.286822	-1.12	-1.54	3.5	-0.1014	0.3043	-0.4397	
0.11346	-0.95892	0.280112	-0.49	-1.61	3.71	-0.1014	0.3104	-0.4365	
0.117242	-0.96136	0.282674	0.21	-2.24	3.92	-0.0999	0.3059	-0.459	
0.112362	-0.967216	0.298656	0.91	-3.64	4.2	-0.0986	0.315	-0.4348	
0.112484	-0.955016	0.304146	2.17	-4.9	5.25	-0.1029	0.315	-0.438	
0.117608	-0.935374	0.305976	1.89	-6.51	6.09	-0.0986	0.3057	-0.4459	
0.12932	-0.920856	0.30073	1.19	-7.63	5.81	-0.1027	0.2998	-0.4367	
0.119682	-0.932934	0.309026	-0.42	-7.49	4.48	-0.0985	0.3044	-0.435	
0.112362	-0.93025	0.312198	-1.47	-7.7	3.57	-0.09559999	0.3015	-0.4178	
0.11224	-0.933056	0.311344	-2.38	-6.86	2.8	-0.1028	0.3044	-0.4319	
0.115046	-0.933178	0.30988	-3.15	-5.95	1.68	-0.0971	0.3074	-0.4334	
0.119316	-0.931836	0.306342	-3.22	-4.76	0.84	-0.1099	0.303	-0.4304	
0.118096	-0.93513	0.305976	-3.64	-3.5	-0.42	-0.0999	0.306	-0.4303	
0.11834	-0.949892	0.305	-3.99	-2.24	-1.26	-0.0942	0.3059	-0.4334	
0.117852	-0.955748	0.299754	-3.5	-0.42	-1.47	-0.0971	0.3075	-0.424	
0.11834	-0.958676	0.297558	-2.87	1.12	-1.33	-0.1041	0.2999	-0.4288	
0.117486	-0.956968	0.29402	-2.59	2.45	-1.26	-0.107	0.2953	-0.4367	
0.118828	-0.955626	0.289994	-2.52	3.5	-1.4	-0.0913	0.3014	-0.4272	
0.119438	-0.949038	0.286334	-1.96	3.71	-1.26	-0.1099	0.306	-0.4335	
0.123342	-0.948428	0.288286	-1.4	3.01	-0.7	-0.107	0.3061	-0.4256	
0.122244	-0.954406	0.290604	-1.47	2.87	-0.14	-0.0999	0.3046	-0.4209	
0.117974	-0.946842	0.285724	-0.91	2.8	0	-0.1013	0.3046	-0.4225	
0.120414	-0.946354	0.285236	-1.61	1.96	-0.35	-0.1028	0.3106	-0.424	
0.120048	-0.944646	0.283772	-1.47	1.61	-0.42	-0.0985	0.3091	-0.4224	
0.121878	-0.945866	0.285602	-1.12	0.98	-0.49	-0.1013	0.2999	-0.4288	
0.121878	-0.953186	0.282308	0.35	1.05	-0.49	-0.0999	0.306	-0.4303	
0.121634	-0.948672	0.282552	1.12	0.77	-0.84	-0.107	0.3061	-0.4256	
0.120902	-0.949892	0.27877	0.84	-0.14	-1.4	-0.0998	0.3	-0.4226	
0.12749	-0.962946	0.285358	2.24	-1.82	-2.1	-0.1014	0.3152	-0.4239	
0.130662	-0.946354	0.28243	4.69	-0.91	-2.31	-0.1057	0.3106	-0.4287	
0.131028	-0.940742	0.284626	3.15	-0.7	-2.45	-0.1071	0.312	-0.438	
0.132248	-0.942084	0.285968	1.75	0.56	-2.38	-0.0985	0.309	-0.4271	
0.135908	-0.947086	0.290238	1.33	1.61	-2.45	-0.0986	0.315	-0.4333	
0.132248	-0.951356	0.286334	2.52	2.87	-2.17	-0.0914	0.3105	-0.4239	
0.130784	-0.94977	0.287798	2.38	2.66	-1.82	-0.0986	0.315	-0.4333	
0.134322	-0.952088	0.289872	1.96	2.59	-1.4	-0.1014	0.3074	-0.435	
0.1342	-0.953796	0.289628	1.54	2.8	-0.98	-0.1127	0.3047	-0.4226	
0.129442	-0.950258	0.288896	0.98	2.59	-0.49	-0.1098	0.2954	-0.4321	
0.12871	-0.956602	0.292312	0.77	2.1	0.21	-0.1056	0.3044	-0.4382	
0.128832	-0.955748	0.290116	1.33	2.17	0.84	-0.1085	0.303	-0.4335	
0.128466	-0.95404	0.288896	1.47	1.82	1.4	-0.097	0.2999	-0.4288	
0.12444	-0.950624	0.289872	0.84	1.26	1.61	-0.1098	0.2984	-0.4336	
0.123098	-0.950258	0.290116	0.07	1.12	2.1	-0.0999	0.2999	-0.432	
0.121634	-0.952332	0.293044	-0.14	0.98	2.45	-0.0928	0.3028	-0.435	
0.122854	-0.949526	0.292312	0.7	0.49	2.59	-0.0985	0.3012	-0.4397	
0.126148	-0.947574	0.293288	1.33	-0.63	2.73	-0.1042	0.3044	-0.4591	
0.119804	-0.946476	0.295484	1.96	-0.84	2.52	-0.0957	0.3028	-0.4381	
0.118584	-0.94672	0.2989	1.68	-1.33	2.24	-0.1013	0.3045	-0.4303	
0.121878	-0.93818	0.294508	1.61	-1.05	1.96	-0.097	0.303	-0.4256	
0.124684	-0.946842	0.294386	1.47	-1.61	1.12	-0.0972	0.3135	-0.4317	
0.116388	-0.94977	0.299998	2.66	-1.82	0.63	-0.1028	0.3029	-0.435	
0.115412	-0.947086	0.30256	3.5	-2.66	0.35	-0.09	0.3011	-0.4428	
0.112362	-0.952698	0.294508	3.71	-2.66	0	-0.0942	0.3059	-0.4318	
0.11041	-0.944646	0.297314	4.97	-3.15	-0.91	-0.0914	0.2981	-0.4429	
0.125782	-0.937448	0.30439	5.11	-3.29	-1.33	-0.0999	0.2967	-0.4398	
0.129198	-0.939522	0.314028	5.18	-2.45	-2.31	-0.0957	0.3043	-0.4334	
0.132858	-0.940254	0.31781	4.9	-1.33	-3.15	-0.1057	0.3043	-0.4413	
0.133468	-0.940254	0.319396	4.13	-0.28	-3.15	-0.1028	0.3044	-0.4381	
0.14213	-0.938668	0.322446	2.38	0.56	-1.82	-0.1027	0.2967	-0.4398	
0.138226	-0.937082	0.319762	1.4	1.75	-0.49	-0.0985	0.2998	-0.4351	
0.133102	-0.941596	0.318664	0.35	2.52	0.98	-0.0985	0.2998	-0.411	
0.12932	-0.939888	0.316224	0.07	3.22	2.38	-0.1099	0.3014	-0.4351	
0.125172	-0.94428	0.31598	-0.07	3.29	2.94	-0.0872	0.3103	-0.4349	
0.121024	-0.94367	0.313662	0.56	3.01	3.01	-0.1056	0.3044	-0.4382	
0.117242	-0.939034	0.314638	0.63	2.45	2.94	-0.09119999	0.2906	-0.4321	
0.116022	-0.939156	0.315492	0.77	1.54	2.52	-0.0941	0.2936	-0.4383	
0.11529	-0.939278	0.316956	0.91	1.47	2.45	-0.0955	0.286	-0.4384	
0.112728	-0.934764	0.315736	0.84	1.12	2.17	-0.0984	0.2952	-0.4383	
0.120292	-0.93513	0.316712	0.42	0.7	1.75	-0.097	0.2905	-0.4477	
0.119072	-0.93574	0.317932	0.63	0.77	1.12	-0.0985	0.2996	-0.4445	
0.121146	-0.93635	0.319396	0.35	0.49	0.91	-0.0942	0.2951	-0.4398	
0.123586	-0.937814	0.319762	0.42	0.91	0.84	-0.1028	0.3028	-0.4413	
0.122244	-0.936838	0.318054	0.14	1.54	0.77	-0.097	0.2998	-0.4351	
0.118706	-0.939522	0.319518	-0.35	1.68	0.77	-0.0957	0.3027	-0.4428	
0.11651	-0.94245	0.31903	-0.63	2.1	1.19	-0.1056	0.2999	-0.432	
0.115534	-0.942084	0.318908	-0.98	2.03	1.4	-0.1012	0.2953	-0.4305	
0.11285	-0.9394	0.317322	-1.12	2.59	1.54	-0.0913	0.289	-0.4399	
0.108946	-0.937814	0.31781	-1.54	2.73	1.4	-0.0928	0.3012	-0.4397	
0.10797	-0.936594	0.318664	-1.89	2.66	1.26	-0.0999	0.2966	-0.4445	
0.108824	-0.934276	0.317566	-2.1	2.24	1.12	-0.09559999	0.2997	-0.4413	
0.10553	-0.937448	0.313784	-2.17	1.75	0.91	-0.0871	0.2981	-0.4397	
0.10858	-0.941108	0.312808	-2.31	1.33	0.77	-0.0958	0.3119	-0.4396	
0.10614	-0.942572	0.313174	-2.24	1.4	0.49	-0.0927	0.2967	-0.4335	
0.106262	-0.943914	0.315492	-1.89	1.47	0.49	-0.0928	0.3042	-0.4428	
0.107848	-0.941596	0.315858	-1.54	1.33	0.49	-0.0985	0.3013	-0.4351	
0.105652	-0.942328	0.31354	-0.84	1.12	0.49	-0.08989999	0.2998	-0.4303	
0.107116	-0.939766	0.311832	-0.63	0.14	0.49	-0.0999	0.3012	-0.4413	
0.105774	-0.945866	0.309636	-0.7	-0.49	0.14	-0.0871	0.2966	-0.4382	
0.107116	-0.947574	0.30683	-0.28	-1.12	-0.14	-0.0985	0.2967	-0.4398	
0.104676	-0.946232	0.305	-0.21	-1.05	-0.07	-0.0928	0.3089	-0.4558	
0.099674	-0.951112	0.303902	-0.7	-1.75	-0.42	-0.0928	0.3042	-0.4428	
0.100284	-0.94489	0.303414	-0.28	-1.54	-0.14	-0.0957	0.3088	-0.438	
0.113216	-0.93635	0.29524	-0.42	-1.82	-0.35	-0.0927	0.2967	-0.432	
0.114558	-0.94855	0.29463	-0.49	-1.61	-1.12	-0.0928	0.295	-0.4429	
0.122976	-0.95343	0.293044	-0.07	-1.96	-1.54	-0.09429999	0.3057	-0.4428	
0.119926	-0.976366	0.285724	0.63	-1.26	-1.61	-0.09	0.3041	-0.4428	
0.10736	-0.984784	0.277672	2.38	0.28	-1.19	-0.0984	0.2937	-0.4383	
0.103456	-0.982344	0.26535	3.78	1.54	0.49	-0.0928	0.2982	-0.4351	
0.09467199	-0.993568	0.260836	5.18	2.52	2.1	-0.09559999	0.2935	-0.4221	
0.090646	-1.001986	0.261324	7.28	3.08	2.8	-0.09999999	0.3057	-0.4444	
0.092232	-0.994178	0.257298	10.64	3.15	3.85	-0.0942	0.2951	-0.4414	
0.09333	-0.99003	0.257176	13.44	2.1	4.2	-0.08989999	0.2981	-0.4398	
0.099064	-0.979538	0.2684	15.61	0.84	3.99	-0.0843	0.2994	-0.4506	
0.107116	-0.96685	0.279502	17.78	-0.42	4.27	-0.08419999	0.2964	-0.4491	
0.11529	-0.943304	0.291702	19.18	-1.4	3.85	-0.09119999	0.2859	-0.4431	
0.127856	-0.92964	0.302926	19.11	-1.33	4.06	-0.08549999	0.2797	-0.4463	
0.13054	-0.934154	0.31293	18.62	-1.05	3.71	-0.0926	0.2812	-0.4525	
0.123098	-0.94489	0.311222	19.25	-0.42	3.5	-0.0985	0.2933	-0.4602	
0.117974	-0.953918	0.315614	20.02	-0.35	3.15	-0.0884	0.2811	-0.4572	
0.116754	-0.961116	0.31354	22.54	0.77	3.43	-0.0968	0.2737	-0.4495	
0.108214	-0.963678	0.309148	28.35	0.7	4.69	-0.0911	0.2737	-0.448	
0.093208	-0.964776	0.31232	34.23	-0.07	4.76	-0.0883	0.2719	-0.4605	
0.0854	-0.96014	0.335378	40.25	-0.84	4.83	-0.0897	0.2658	-0.4668	
0.069418	-0.937814	0.38003	47.81	-2.73	5.18	-0.0955	0.2687	-0.4793	
0.081618	-0.904264	0.42273	52.43	-10.64	4.83	-0.08679999	0.2502	-0.4889	
0.113582	-0.875594	0.42517	55.79	-14.7	5.39	-0.101	0.2488	-0.4937	
0.113704	-0.86132	0.434198	54.11	-11.55	4.76	-0.0909	0.2365	-0.4923	
0.12566	-0.860954	0.44225	51.87	-10.15	4.62	-0.0937	0.2259	-0.4956	
0.132126	-0.88389	0.44103	52.71	-7.56	3.99	-0.09519999	0.2303	-0.5018	
0.104554	-0.881816	0.449204	54.11	-3.43	2.8	-0.095	0.2214	-0.491	
0.095038	-0.883646	0.466162	54.95	-2.66	2.31	-0.085	0.2088	-0.5099	
0.066978	-0.876814	0.50142	56.56	-3.43	1.54	-0.0907	0.2043	-0.5116	
0.083936	-0.85522	0.514718	58.24	-4.34	2.8	-0.0963	0.1968	-0.5117	
0.111874	-0.844362	0.510814	59.43	-3.15	4.34	-0.1018	0.1784	-0.5214	
0.081984	-0.80947	0.53497	60.48	1.54	5.67	-0.0961	0.1738	-0.523	
0.053314	-0.794586	0.63074	58.17	-0.56	7.49	-0.0889	0.166	-0.5309	
0.10675	-0.80825	0.700646	53.69	-8.05	7.28	-0.0931	0.1631	-0.5232	
0.15128	-0.78019	0.680882	51.24	-4.9	10.15	-0.1016	0.1524	-0.5328	
0.108214	-0.721386	0.645502	47.95	0.35	12.04	-0.09869999	0.1525	-0.5281	
0.091744	-0.66734	0.644404	44.45	2.03	12.53	-0.0872	0.1356	-0.5298	
0.101992	-0.641598	0.664046	40.67	2.52	13.37	-0.09869999	0.1447	-0.5407	
0.100894	-0.64721	0.677832	36.05	3.08	10.57	-0.0815	0.1339	-0.5361	
0.08295999	-0.659898	0.687592	33.6	1.4	5.74	-0.0914	0.1216	-0.5504	
0.085644	-0.65331	0.686616	35.21	0.42	5.11	-0.087	0.1142	-0.5364	
0.098698	-0.639402	0.658556	38.43	1.33	7.7	-0.087	0.1079	-0.5506	
0.06039	-0.61671	0.682834	41.02	0.63	8.47	-0.09119999	0.1019	-0.5476	
0.064416	-0.587186	0.72529	43.61	-2.17	8.05	-0.07979999	0.0971	-0.5539	
0.086498	-0.588284	0.754448	44.03	-3.57	4.69	-0.0954	0.0957	-0.5586	
0.085156	-0.60146	0.752252	44.73	-3.64	1.61	-0.0854	0.085	-0.5588	
0.074054	-0.599996	0.763598	46.2	-2.31	-0.28	-0.0867	0.08199999	-0.5573	
0.071614	-0.571814	0.787632	47.18	-1.68	-0.14	-0.0852	0.0715	-0.5449	
0.072346	-0.56669	0.801662	46.27	-0.98	-0.21	-0.0922	0.0624	-0.5498	
0.06954	-0.571814	0.80886	45.36	-0.21	-1.19	-0.0837	0.0652	-0.5591	
0.06222	-0.578768	0.830698	44.66	0.63	-1.89	-0.0907	0.05	-0.5625	
0.062952	-0.532896	0.848388	44.45	-0.07	-1.26	-0.0878	0.0425	-0.5563	
0.078934	-0.51118	0.848144	41.09	0.21	-0.07	-0.092	0.0348	-0.5611	
0.063562	-0.503372	0.852414	37.52	0.98	0.42	-0.1006	0.0347	-0.5737	
0.051362	-0.477264	0.857782	33.81	-0.7	0.91	-0.0905	0.0334	-0.5549	
0.059048	-0.46055	0.86559	30.73	-1.54	1.19	-0.08329999	0.0149	-0.5692	
0.071614	-0.447862	0.871446	27.51	-3.57	1.05	-0.0861	0.0134	-0.5661	
0.079666	-0.458354	0.88267	24.57	-4.9	1.61	-0.0903	0.0088	-0.5709	
0.09211	-0.46787	0.891332	23.59	-5.39	4.34	-0.0902	-0.0001	-0.5679	
0.077226	-0.447984	0.918172	21.84	-5.04	7.35	-0.0903	0.0074	-0.5647	
0.077714	-0.39772	0.944402	19.32	-5.04	8.54	-0.0874	0.0058	-0.5663	
0.094428	-0.386496	0.959286	14.56	-4.69	7	-0.0915	-0.0136	-0.5572	
0.093208	-0.38674	0.965996	10.36	-3.36	5.95	-0.09299999	-0.0076	-0.5634	
0.100528	-0.376614	0.983198	6.93	-2.1	5.32	-0.0959	-0.003	-0.5618	
0.09467199	-0.355508	0.991616	3.08	-0.98	3.64	-0.09299999	-0.0094	-0.5775	
0.086742	-0.346968	0.99918	-2.73	-0.28	1.82	-0.0915	-0.006	-0.5555	
0.079544	-0.340258	0.990274	-8.68	0.98	1.19	-0.0859	-0.0032	-0.5695	
0.080642	-0.340624	0.97966	-14.77	2.31	0.7	-0.0972	-0.0106	-0.5603	
0.083936	-0.33611	0.97417	-23.1	3.71	-0.56	-0.0944	-0.0078	-0.5743	
0.075762	-0.34221	0.957212	-30.1	4.27	-1.47	-0.0831	-0.0002	-0.5679	
0.073322	-0.352824	0.946964	-36.47	5.6	-0.84	-0.0959	0.0044	-0.5648	
0.069784	-0.367098	0.9211	-42.77	6.51	-1.26	-0.0904	0.0149	-0.574	
0.070272	-0.394426	0.89914	-48.51	6.3	-2.66	-0.0918	0.0166	-0.563	
0.06649	-0.416508	0.877912	-52.85	5.32	-6.93	-0.0847	0.0242	-0.5566	
0.069418	-0.435296	0.842898	-57.61	4.69	-8.4	-0.0834	0.0378	-0.5579	
0.059902	-0.474092	0.808128	-63.28	4.55	-6.93	-0.0863	0.0394	-0.5595	
0.051484	-0.53497	0.776896	-66.78	4.76	-4.76	-0.0922	0.0608	-0.5529	
0.034282	-0.588162	0.758718	-68.53	2.59	-4.06	-0.0895	0.0714	-0.5574	
0.029402	-0.636596	0.7381	-68.67	0.14	-3.36	-0.0867	0.0821	-0.551	
0.0305	-0.674904	0.721752	-68.81	-3.29	-2.66	-0.0796	0.0836	-0.5478	
0.038674	-0.695888	0.69357	-66.57	-5.25	-3.43	-0.0826	0.0973	-0.5476	
0.051362	-0.7015	0.662338	-64.54	-4.9	-0.35	-0.0856	0.1111	-0.5427	
0.04941	-0.697718	0.630008	-62.23	-4.27	0.91	-0.0913	0.1142	-0.5427	
0.059658	-0.715896	0.618662	-62.16	-5.18	1.47	-0.0986	0.1248	-0.5504	
0.066124	-0.735782	0.607438	-60.83	-6.09	0.84	-0.0916	0.1398	-0.5564	
0.075274	-0.758108	0.597068	-59.64	-7.56	-0.98	-0.0931	0.1523	-0.5343	
0.081862	-0.785314	0.582672	-58.17	-8.75	-2.03	-0.0931	0.1523	-0.5343	
0.089426	-0.803492	0.55998	-55.09	-8.26	-2.17	-0.1018	0.1691	-0.5372	
0.094794	-0.813618	0.548634	-51.8	-7.7	-1.96	-0.0962	0.1783	-0.5245	
0.09516	-0.815936	0.545096	-49.42	-7.98	-3.57	-0.099	0.1784	-0.5198	
0.106262	-0.817766	0.532408	-48.44	-7.84	-5.67	-0.1004	0.1816	-0.512	
0.116876	-0.829112	0.521916	-49.56	-7.49	-6.58	-0.1034	0.2	-0.5039	
0.122732	-0.84973	0.498736	-48.65	-4.83	-6.72	-0.1063	0.1999	-0.5117	
0.1098	-0.859124	0.482388	-45.36	-3.29	-6.58	-0.1021	0.2076	-0.5022	
0.102968	-0.852658	0.484706	-41.72	-2.73	-6.44	-0.1036	0.2152	-0.5052	
0.106872	-0.84363	0.477508	-42.21	-2.31	-6.93	-0.1065	0.2228	-0.5035	
0.121878	-0.849242	0.464332	-43.96	-2.38	-7.35	-0.0993	0.2213	-0.4973	
0.11041	-0.854	0.445422	-44.8	-1.4	-7	-0.1108	0.2275	-0.4972	
0.108092	-0.864858	0.430904	-46.41	-2.17	-6.37	-0.1108	0.2339	-0.4815	
0.107116	-0.884744	0.420656	-46.97	-2.59	-5.67	-0.1164	0.2294	-0.4785	
0.12139	-0.903776	0.414922	-46.69	-0.84	-6.3	-0.0981	0.2476	-0.4672	
0.121146	-0.903898	0.386862	-45.01	1.82	-7.21	-0.118	0.2447	-0.4767	
0.10858	-0.909998	0.370636	-45.64	4.13	-7.28	-0.1095	0.254	-0.4562	
0.109434	-0.921588	0.36539	-45.36	5.81	-6.79	-0.1054	0.2721	-0.4606	
0.110654	-0.93757	0.339038	-43.68	6.65	-5.74	-0.1082	0.2661	-0.4607	
0.111142	-0.956358	0.318054	-40.88	6.16	-4.06	-0.1111	0.2769	-0.4511	
0.121634	-0.968192	0.312808	-38.01	5.32	-1.75	-0.1097	0.2722	-0.4606	
0.120292	-0.96014	0.30988	-35.84	7.84	-0.56	-0.1141	0.286	-0.4541	
0.110776	-0.944524	0.316224	-35.63	9.24	-1.4	-0.1069	0.2875	-0.4478	
0.122122	-0.931104	0.310246	-35.14	7.21	-2.59	-0.1111	0.28	-0.4495	
0.12383	-0.925736	0.30073	-33.18	6.16	-3.08	-0.1028	0.2997	-0.4445	
0.127978	-0.917806	0.2989	-32.55	4.97	-2.52	-0.1085	0.3014	-0.4367	
0.127978	-0.915366	0.300242	-33.04	3.57	-1.47	-0.1055	0.297	-0.4258	
0.130174	-0.922808	0.291702	-33.74	2.31	-1.4	-0.1028	0.309	-0.4318	
0.121512	-0.920002	0.277428	-34.72	2.8	-1.4	-0.107	0.3061	-0.4288	
0.117486	-0.92598	0.260714	-37.31	4.97	-1.47	-0.1042	0.3154	-0.4145	
0.10004	-0.917684	0.253272	-39.69	7.07	-2.45	-0.09999999	0.32	-0.4082	
0.118706	-0.92598	0.247294	-44.59	4.9	-3.64	-0.09999999	0.3214	-0.4175	
0.127002	-0.92842	0.223748	-45.36	5.67	-4.13	-0.1128	0.3217	-0.402	
0.133834	-0.948794	0.21655	-48.72	3.36	-4.9	-0.103	0.3353	-0.4033	
0.12322	-0.989786	0.194712	-48.02	5.18	-4.83	-0.1143	0.3372	-0.3861	
0.130418	-0.976122	0.186294	-45.57	4.97	-4.27	-0.103	0.3448	-0.3797	
0.140544	-0.934886	0.154818	-44.52	4.06	-3.29	-0.1016	0.3523	-0.3842	
0.13115	-0.968924	0.127734	-46.34	1.96	-3.99	-0.1045	0.3585	-0.3748	
0.11285	-0.998448	0.100162	-44.87	1.4	-3.85	-0.106	0.36	-0.3779	
0.127368	-0.9943	0.07564	-41.79	-0.63	-2.31	-0.09739999	0.3632	-0.3606	
0.130662	-0.994422	0.046604	-40.67	-1.82	-1.47	-0.1046	0.3663	-0.3668	
0.1342	-0.99186	0.011834	-40.88	-1.12	-2.73	-0.0961	0.3786	-0.351	
0.136762	-0.99308	-0.016348	-41.02	0.28	-4.62	-0.096	0.3772	-0.3401	
0.137006	-1.000034	-0.035258	-40.88	0.98	-5.6	-0.1074	0.3789	-0.3385	
0.139568	-1.029802	-0.041236	-41.37	-1.54	-5.81	-0.1062	0.3941	-0.3351	
0.16226	-1.015894	-0.03599	-40.04	-1.68	-6.02	-0.0975	0.3851	-0.3212	
0.155672	-1.000522	-0.064172	-36.75	-1.4	-7.35	-0.1117	0.3899	-0.318	
0.114314	-1.052982	-0.128466	-35.77	4.48	-8.47	-0.099	0.3988	-0.3241	
0.085522	-1.111054	-0.116632	-24.01	12.32	-8.96	-0.116	0.3946	-0.3102	
0.09552599	-1.031876	-0.071126	-15.05	10.15	-11.13	-0.1132	0.3991	-0.3148	
0.120536	-0.959652	-0.043188	-13.93	-3.99	-10.64	-0.1003	0.393	-0.3039	
0.19032	-0.966728	-0.036112	-16.03	-12.11	-6.16	-0.1132	0.3915	-0.3118	
0.211426	-1.030778	-0.046116	-15.26	-11.97	-3.29	-0.1204	0.4039	-0.3294	
0.171288	-1.062132	-0.065026	-13.23	-11.34	0.35	-0.1089	0.3946	-0.3086	
0.16287	-1.087996	-0.068198	-12.67	-9.59	4.62	-0.1132	0.3946	-0.307	
0.16531	-1.060912	-0.09552599	-11.69	-10.29	3.78	-0.1075	0.3993	-0.2929	
0.171044	-1.052982	-0.108092	-8.96	-7.35	3.08	-0.1146	0.4024	-0.2944	
0.155184	-1.04188	-0.111996	-4.76	-4.34	4.27	-0.1176	0.4069	-0.3053	
0.134566	-1.010526	-0.113826	-3.22	-6.16	5.25	-0.1189	0.3994	-0.2976	
0.1464	-1.003328	-0.111142	-2.59	-7.21	5.95	-0.106	0.3962	-0.2992	
0.167384	-1.014674	-0.105652	-1.33	-8.26	4.69	-0.1075	0.4024	-0.2944	
0.154086	-1.014796	-0.114802	0.35	-7.63	3.64	-0.1146	0.3948	-0.2977	
0.134932	-1.016138	-0.12688	0.42	-6.3	3.29	-0.1174	0.401	-0.2929	
0.121024	-1.03578	-0.147132	0.28	-3.36	2.45	-0.1046	0.3962	-0.296	
0.112972	-1.043832	-0.136396	4.83	0.91	1.05	-0.1147	0.4053	-0.3053	
0.119316	-0.987834	-0.10797	7.56	0.21	-0.35	-0.1205	0.4162	-0.2958	
0.131272	-0.970388	-0.09516	3.92	-3.99	-1.26	-0.1089	0.4055	-0.2897	
0.126026	-1.000888	-0.090524	2.59	-4.27	-1.05	-0.1232	0.4026	-0.2913	
0.126148	-1.036024	-0.09699	3.57	-4.34	2.38	-0.1203	0.3979	-0.2976	
0.123952	-1.04371	-0.102724	6.58	-7.49	4.76	-0.1145	0.3887	-0.2962	
0.122854	-1.027972	-0.103944	9.66	-10.71	5.11	-0.1117	0.3947	-0.2992	
0.130052	-1.022238	-0.100162	9.45	-12.25	3.92	-0.1217	0.3994	-0.2992	
0.14213	-1.036268	-0.09394	10.36	-12.18	5.11	-0.1175	0.3962	-0.3086	
0.155306	-1.056276	-0.105408	14.91	-12.04	7.49	-0.1088	0.3933	-0.2945	
0.149206	-1.048102	-0.102602	19.11	-12.74	8.68	-0.1188	0.3917	-0.3024	
0.142984	-1.037732	-0.092598	22.05	-8.33	8.19	-0.1118	0.4053	-0.3037	
0.14152	-1.029802	-0.075884	24.43	-4.06	7.21	-0.1103	0.39	-0.3087	
0.12566	-1.016382	-0.061488	27.23	-2.24	5.88	-0.1133	0.4038	-0.3069	
0.121756	-1.014796	-0.043066	30.59	-2.17	5.04	-0.109	0.4022	-0.3085	
0.119072	-1.020286	-0.029524	34.86	-1.33	4.76	-0.116	0.3884	-0.3197	
0.135908	-1.012722	-0.000976	38.36	-0.91	3.78	-0.1062	0.3973	-0.3273	
0.139446	-1.000522	0.028548	37.66	0.84	1.75	-0.1089	0.3835	-0.3338	
0.124196	-0.972096	0.037698	36.47	0.84	-0.07	-0.116	0.3851	-0.3338	
0.124928	-0.998936	0.047824	34.3	-0.35	-1.61	-0.1203	0.379	-0.3417	
0.120902	-1.030412	0.065758	37.31	-1.54	-1.96	-0.1131	0.3728	-0.3433	
0.10431	-1.001864	0.119072	45.36	-2.17	0.28	-0.116	0.3787	-0.3542	
0.080642	-0.891332	0.161528	47.04	-3.29	0.84	-0.1188	0.3635	-0.3607	
0.09577	-0.817766	0.191906	35.91	-10.29	-2.1	-0.116	0.3679	-0.3653	
0.133102	-0.866932	0.19947	22.82	-18.9	-8.82	-0.1173	0.3573	-0.3639	
0.139568	-0.923052	0.20679	17.29	-23.17	-12.18	-0.1202	0.3588	-0.3686	
0.142618	-0.939278	0.185684	15.19	-20.23	-8.68	-0.1244	0.3588	-0.3717	
0.135176	-0.959896	0.166896	9.66	-15.61	-8.33	-0.1215	0.3498	-0.3625	
0.133224	-0.987102	0.15067	7.91	-12.11	-5.53	-0.1215	0.3527	-0.3718	
0.133346	-0.99552	0.1464	8.4	-10.08	-2.31	-0.1285	0.3406	-0.3752	
0.14579	-0.976732	0.155672	11.27	-10.85	-0.91	-0.1315	0.3514	-0.3672	
0.157868	-0.95038	0.166286	11.62	-10.5	-0.49	-0.1343	0.3498	-0.3735	
0.153842	-0.96197	0.149694	10.92	-8.54	-0.77	-0.1343	0.3498	-0.3704	
0.16287	-0.99369	0.148352	11.83	-7.77	-0.49	-0.1272	0.3466	-0.3782	
0.1586	-1.00223	0.15189	13.79	-4.69	-0.21	-0.1286	0.3404	-0.383	
0.148596	-0.98454	0.159698	14.84	-0.49	-0.21	-0.1371	0.3437	-0.3752	
0.153842	-0.973438	0.16836	14.49	2.66	0.21	-0.1286	0.3404	-0.3845	
0.16836	-0.979416	0.174826	14.42	4.9	0.77	-0.123	0.3509	-0.3875	
0.162626	-0.99247	0.183488	15.12	7.35	1.61	-0.14	0.3405	-0.3877	
0.154086	-0.996374	0.180926	16.17	9.03	2.1	-0.1214	0.3359	-0.3783	
0.155916	-0.985638	0.189832	17.29	8.96	2.38	-0.1286	0.3326	-0.4003	
0.1708	-0.996496	0.190808	17.15	10.5	4.06	-0.1242	0.3312	-0.3894	
0.141886	-1.009062	0.186538	18.55	12.39	4.06	-0.1229	0.331	-0.4003	
0.134932	-1.016748	0.195688	20.3	11.62	4.9	-0.1343	0.3371	-0.4049	
0.132492	-1.010526	0.218624	20.93	10.43	6.72	-0.1171	0.3218	-0.402	
0.141642	-1.000766	0.21228	20.58	8.75	8.26	-0.1299	0.3281	-0.3988	
0.145424	-1.00589	0.200568	20.37	9.31	10.36	-0.1286	0.3356	-0.4018	
0.113338	-0.99064	0.188368	25.34	13.3	12.88	-0.1171	0.3186	-0.4114	
0.099552	-0.975512	0.201666	27.37	12.39	10.92	-0.1114	0.3216	-0.4113	
0.0854	-0.962946	0.21472	30.52	11.13	9.31	-0.1114	0.3184	-0.4223	
0.081008	-0.952332	0.232044	32.97	9.73	7.56	-0.1056	0.3092	-0.4193	
0.09272	-0.953796	0.246928	38.08	7.98	6.51	-0.1056	0.3046	-0.421	
0.086254	-0.947574	0.269864	42.49	8.4	5.53	-0.1027	0.3015	-0.4288	
0.08601	-0.941962	0.28182	45.36	7.28	4.97	-0.1042	0.2999	-0.4351	
0.083936	-0.937936	0.294874	48.86	6.02	4.41	-0.1098	0.2907	-0.4415	
0.066856	-0.923906	0.306708	50.61	2.87	3.36	-0.104	0.2862	-0.4338	
0.08906	-0.926956	0.324032	50.96	1.19	3.15	-0.0998	0.2843	-0.4541	
0.082106	-0.9394	0.33794	50.68	1.54	2.38	-0.0913	0.2826	-0.4603	
0.072102	-0.938424	0.357094	50.4	1.33	1.12	-0.1026	0.2765	-0.4714	
0.090646	-0.94245	0.371978	52.08	2.73	2.45	-0.1068	0.269	-0.4637	
0.110288	-0.954894	0.389668	56.77	2.1	2.24	-0.1081	0.2507	-0.4734	
0.113582	-0.930494	0.424072	63.91	3.64	3.92	-0.1124	0.2506	-0.4812	
0.118706	-0.922198	0.452986	68.81	7.07	6.37	-0.1095	0.2428	-0.4892	
0.074176	-0.889502	0.487146	80.01	4.2	10.78	-0.0951	0.229	-0.4878	
0.030988	-0.805444	0.541924	77.91	1.54	15.47	-0.0907	0.2105	-0.5021	
0.091744	-0.753594	0.57645	74.34	-1.4	13.72	-0.095	0.2121	-0.5005	
0.14396	-0.76311	0.554978	72.52	6.3	14.07	-0.1005	0.1969	-0.507	
0.067466	-0.72712	0.529602	72.52	13.3	7.28	-0.0948	0.1907	-0.5118	
0.05368	-0.682224	0.54778	66.36	11.34	-2.38	-0.0933	0.1782	-0.5292	
0.056852	-0.666486	0.589504	58.17	9.1	-9.03	-0.0932	0.1676	-0.5278	
0.066124	-0.692106	0.609878	51.52	7.49	-13.51	-0.0859	0.1539	-0.5249	
0.04514	-0.734562	0.61732	47.53	6.72	-16.38	-0.0844	0.1371	-0.5314	
0.054656	-0.78202	0.616222	48.09	3.99	-17.5	-0.0787	0.1401	-0.5266	
0.053924	-0.803004	0.604876	54.39	4.83	-12.81	-0.0901	0.137	-0.5361	
0.075274	-0.793854	0.628544	58.03	6.86	-8.26	-0.0914	0.1294	-0.5409	
0.10553	-0.79727	0.639036	62.65	11.34	-2.45	-0.0984	0.1172	-0.5442	
0.097356	-0.753472	0.675514	64.75	14.21	4.9	-0.0884	0.1096	-0.5396	
0.087352	-0.713944	0.681492	63.91	16.73	12.11	-0.09119999	0.1019	-0.5491	
0.07124799	-0.673806	0.697474	63.14	17.29	15.61	-0.0753	0.0819	-0.5541	
0.065026	-0.62037	0.700524	64.12	16.17	12.81	-0.0809	0.0713	-0.5558	
0.030378	-0.57462	0.703452	62.86	15.47	8.82	-0.0724	0.0681	-0.559	
-0.002806	-0.538508	0.728828	60.27	11.62	3.85	-0.0637	0.0604	-0.5591	
0.006466	-0.527894	0.752496	58.17	8.33	1.68	-0.0792	0.0454	-0.5547	
0.001464	-0.510692	0.777262	56.84	6.3	0.42	-0.0749	0.0362	-0.561	
-0.013054	-0.477508	0.81984	54.39	3.01	0.14	-0.0621	0.036	-0.5641	
-0.021106	-0.455182	0.869128	50.75	-1.26	0.63	-0.0705	0.0193	-0.566	
0.005246	-0.44103	0.88816	48.51	-5.32	-0.42	-0.0633	0.0193	-0.5613	
0.05734	-0.428098	0.910852	46.62	-5.74	-3.08	-0.0675	0.0057	-0.5599	
0.065148	-0.41785	0.923052	42.49	-5.11	-3.78	-0.0674	0.0012	-0.5569	
0.059658	-0.414434	0.955748	38.36	-3.57	-1.54	-0.0602	-0.0034	-0.56	
0.061366	-0.389668	0.965874	36.19	-2.38	0.42	-0.063	-0.0125	-0.5649	
0.072224	-0.366	0.963678	33.81	-1.33	1.12	-0.073	-0.0123	-0.5571	
0.06649	-0.341478	0.95953	31.01	0.49	2.1	-0.0729	-0.0277	-0.5714	
0.052216	-0.31842	0.957822	28.35	2.73	3.29	-0.0658	-0.0202	-0.5681	
0.044652	-0.278648	0.962946	24.85	2.66	3.01	-0.0756	-0.0337	-0.5637	
0.051972	-0.25315	0.970144	19.88	3.22	2.38	-0.0614	-0.0339	-0.5699	
0.056852	-0.247416	0.967948	15.61	4.55	2.45	-0.0699	-0.0368	-0.5637	
0.045994	-0.254126	0.97539	12.6	5.25	2.1	-0.077	-0.0428	-0.5654	
0.033306	-0.254004	1.011746	6.79	4.13	0.35	-0.067	-0.0444	-0.5638	
0.027816	-0.268888	1.033584	0	2.94	-0.7	-0.0641	-0.0445	-0.5654	
0.034648	-0.29829	1.042612	-5.53	2.45	-0.14	-0.0612	-0.0537	-0.5733	
0.037454	-0.302316	1.051274	-9.87	4.76	2.31	-0.0656	-0.0384	-0.5653	
0.024644	-0.304756	1.03761	-15.33	4.27	3.15	-0.0656	-0.0383	-0.5637	
0.029158	-0.306952	1.025532	-20.23	5.53	3.99	-0.0599	-0.0414	-0.5638	
0.02501	-0.30622	1.007476	-24.78	5.25	3.92	-0.0585	-0.0355	-0.573	
0.018056	-0.29951	0.989786	-29.47	5.67	3.78	-0.0515	-0.0278	-0.562	
0.012566	-0.298656	0.971852	-33.53	5.74	3.5	-0.0586	-0.0278	-0.5651	
0.007929999	-0.294874	0.955626	-37.8	5.04	2.38	-0.0544	-0.0264	-0.5713	
0.010248	-0.301828	0.942328	-42.28	3.22	0.21	-0.0574	-0.0096	-0.5695	
0.005734	-0.327082	0.92232	-46.27	2.45	-1.26	-0.0616	-0.0079	-0.5601	
0.003416	-0.359046	0.905972	-50.26	2.03	-1.12	-0.0574	-0.0082	-0.5726	
0.0061	-0.384544	0.903654	-53.83	0.84	-1.96	-0.0546	0.004	-0.5615	
0.01708	-0.4087	0.888404	-56.35	0.7	-1.47	-0.0519	0.0177	-0.5628	
0.018056	-0.4392	0.873642	-59.71	1.26	-1.05	-0.0606	0.0253	-0.5643	
0.016592	-0.456524	0.84607	-61.6	1.89	-0.42	-0.055	0.0405	-0.564	
0.030744	-0.46116	0.815326	-63.35	2.59	-0.84	-0.0507	0.0404	-0.564	
0.02867	-0.481534	0.787754	-67.41	3.43	-1.05	-0.0623	0.0528	-0.5607	
0.023058	-0.504226	0.76372	-71.26	4.55	-1.4	-0.0566	0.0573	-0.5591	
0.014396	-0.5673	0.751642	-74.13	6.3	-2.03	-0.0582	0.0755	-0.5619	
-0.015128	-0.62769	0.736026	-76.23	7.49	-3.01	-0.0542	0.0967	-0.5631	
-0.024644	-0.663192	0.702842	-75.46	7.21	-3.71	-0.0641	0.0985	-0.5506	
-0.02135	-0.687714	0.66734	-75.04	7.98	-4.69	-0.0643	0.1137	-0.552	
-0.027328	-0.69967	0.627324	-75.04	8.89	-5.6	-0.0501	0.1197	-0.5471	
-0.037454	-0.718702	0.59475	-75.53	8.26	-6.09	-0.0474	0.1426	-0.5405	
-0.04392	-0.761036	0.553026	-74.83	5.74	-8.61	-0.0517	0.1412	-0.5358	
-0.034526	-0.79788	0.522038	-72.8	4.41	-8.26	-0.0505	0.1671	-0.5323	
-0.030378	-0.843752	0.496174	-69.93	1.75	-10.08	-0.0533	0.1672	-0.5229	
-0.039894	-0.875838	0.477264	-64.75	0.91	-10.29	-0.052	0.1764	-0.5197	
-0.033672	-0.895724	0.466284	-59.36	-3.36	-10.57	-0.0464	0.1871	-0.5116	
-0.01769	-0.913048	0.457744	-53.41	-5.88	-9.03	-0.0507	0.1977	-0.5162	
-0.013786	-0.922198	0.438956	-47.6	-5.88	-8.68	-0.0564	0.1979	-0.5053	
0.000976	-0.921954	0.43127	-43.12	-6.72	-8.82	-0.051	0.2206	-0.508	
0.025376	-0.914512	0.43127	-38.64	-6.16	-10.22	-0.0565	0.2116	-0.5035	
0.005124	-0.882792	0.418582	-34.16	-3.57	-13.44	-0.0551	0.2179	-0.4924	
0.008905999	-0.886208	0.409676	-37.1	-5.95	-15.82	-0.0681	0.2255	-0.5002	
0.022082	-0.926834	0.390034	-38.36	-6.02	-14.42	-0.0553	0.2346	-0.4906	
0.033672	-0.925126	0.386862	-36.54	-7.98	-14.14	-0.0639	0.2438	-0.4905	
0.0549	-0.915244	0.38796	-35.35	-8.96	-14.14	-0.0668	0.244	-0.4827	
0.091134	-0.902312	0.398696	-36.82	-11.41	-14.21	-0.0753	0.2424	-0.4921	
0.122488	-0.898774	0.3965	-37.1	-9.38	-13.72	-0.0739	0.2472	-0.478	
0.12444	-0.892918	0.386008	-36.54	-5.39	-13.09	-0.0769	0.267	-0.4761	
0.127002	-0.890112	0.376248	-37.1	-4.13	-12.32	-0.0796	0.2535	-0.4639	
0.13908	-0.904508	0.372222	-39.06	-5.18	-12.18	-0.0783	0.2655	-0.4746	
0.138592	-0.921222	0.358924	-39.48	-3.71	-11.27	-0.08109999	0.2643	-0.459	
0.140178	-0.91561	0.346602	-39.13	-2.03	-9.38	-0.0769	0.2703	-0.4589	
0.117608	-0.918416	0.3111	-38.36	1.4	-8.05	-0.0799	0.2778	-0.4682	
0.100406	-0.942328	0.303414	-38.57	0.07	-8.19	-0.0827	0.2811	-0.4525	
0.093818	-0.975268	0.306708	-35.28	-2.73	-7.63	-0.0856	0.2856	-0.4571	
0.092476	-0.988444	0.307928	-31.99	-4.2	-6.72	-0.0971	0.2965	-0.4508	
0.093696	-0.97112	0.300242	-28.98	-6.02	-6.09	-0.0786	0.301	-0.4428	
0.110044	-0.952454	0.310856	-26.53	-9.73	-6.23	-0.0914	0.2981	-0.4413	
0.130174	-0.931226	0.30561	-25.83	-9.66	-6.58	-0.09559999	0.2967	-0.4351	
0.145668	-0.940132	0.302316	-26.46	-7.91	-6.86	-0.0972	0.315	-0.4317	
0.14396	-0.937692	0.315126	-27.3	-5.95	-5.6	-0.0944	0.3196	-0.4301	
0.117974	-0.938668	0.282064	-28.77	0.14	-2.94	-0.0927	0.3031	-0.4162	
0.108214	-0.95221	0.27145	-31.99	-1.61	-3.64	-0.0957	0.3183	-0.4145	
0.1159	-0.937814	0.263276	-30.52	-0.77	-3.78	-0.0957	0.3153	-0.4129	
0.120536	-0.905118	0.28853	-33.95	-0.07	-4.34	-0.0928	0.3154	-0.4035	
0.141764	-0.896578	0.276452	-37.59	0.49	-5.32	-0.1001	0.3321	-0.408	
0.144204	-0.883646	0.238144	-40.67	3.08	-5.46	-0.1015	0.3308	-0.4002	
0.165798	-0.914878	0.229604	-46.48	1.82	-6.23	-0.0916	0.3383	-0.3985	
0.184098	-0.960994	0.195444	-46.62	5.95	-6.44	-0.0945	0.343	-0.3922	
0.149084	-0.992714	0.171288	-46.69	9.45	-7.28	-0.0973	0.3415	-0.3891	
0.13725	-1.014552	0.145912	-45.57	10.22	-7.07	-0.0975	0.3582	-0.3951	
0.129686	-0.99857	0.131516	-43.12	10.36	-5.04	-0.0917	0.3583	-0.3825	
0.138714	-0.97234	0.130906	-41.44	7.91	-3.5	-0.0989	0.3614	-0.3857	
0.142984	-0.947208	0.109678	-40.67	4.27	-2.73	-0.0889	0.363	-0.37	
0.14396	-0.958676	0.086742	-40.6	1.33	-1.61	-0.09739999	0.3678	-0.3605	
0.12932	-0.982832	0.057584	-41.37	0.49	-1.75	-0.0975	0.3769	-0.362	
0.124318	-1.001132	0.031476	-41.16	0.07	-1.47	-0.0945	0.3634	-0.345	
0.10858	-1.01199	0.003904	-40.74	1.26	-1.54	-0.0961	0.3832	-0.3478	
0.101748	-1.030412	-0.006832	-42.35	0.07	-2.31	-0.0889	0.3741	-0.3401	
0.113948	-1.019554	-0.033916	-40.53	-0.42	-2.38	-0.0975	0.3896	-0.353	
0.105286	-1.008696	-0.061976	-39.55	-0.98	-3.29	-0.0975	0.3896	-0.3258	
0.120902	-1.053714	-0.081374	-39.41	-1.96	-5.11	-0.099	0.3958	-0.3195	
0.103212	-1.059814	-0.089914	-29.05	-0.7	-6.79	-0.1017	0.3899	-0.3086	
0.125172	-1.032852	-0.10004	-26.67	-4.97	-4.76	-0.092	0.408	-0.3099	
0.13603	-1.048346	-0.095404	-25.34	-7.49	-3.01	-0.099	0.3991	-0.3038	
0.129686	-1.048956	-0.096258	-21.14	-6.16	-0.98	-0.099	0.4021	-0.3084	
0.12688	-1.027972	-0.105042	-17.08	-5.74	0.98	-0.0946	0.3961	-0.3216	
0.144204	-1.031998	-0.108946	-15.33	-7.42	2.24	-0.1062	0.4083	-0.3005	
0.136762	-1.043832	-0.112606	-11.76	-5.95	2.38	-0.0946	0.3977	-0.2913	
0.116998	-1.032852	-0.114192	-6.51	-6.51	2.03	-0.1047	0.4084	-0.2974	
0.12993	-1.02358	-0.114802	-4.13	-8.82	1.89	-0.1032	0.3977	-0.3007	
0.142862	-1.024556	-0.100894	-2.17	-10.08	1.89	-0.1062	0.4099	-0.2958	
0.156526	-1.035292	-0.09942999	-0.28	-9.8	3.43	-0.1046	0.404	-0.2865	
0.137616	-1.02846	-0.100406	2.52	-7.63	4.48	-0.1075	0.3978	-0.296	
0.141276	-1.033706	-0.115168	2.45	-8.05	4.34	-0.0962	0.4083	-0.2927	
0.132492	-1.052006	-0.117242	3.78	-6.86	5.25	-0.1032	0.4023	-0.2928	
0.12932	-1.076406	-0.12322	4.27	-7.98	5.88	-0.1075	0.4008	-0.2991	
0.161406	-1.103978	-0.086254	4.97	-11.13	8.05	-0.0961	0.3977	-0.2944	
0.155062	-1.079944	-0.085888	8.26	-7.28	12.88	-0.0991	0.4174	-0.3019	
0.17446	-1.057984	-0.08845	6.09	-6.44	14	-0.0975	0.4038	-0.2912	
0.138714	-1.027728	-0.123098	10.64	3.78	14.77	-0.1019	0.4066	-0.3099	
0.16043	-1.028216	-0.097356	7.84	2.94	12.67	-0.0933	0.4035	-0.3068	
0.121268	-1.017968	-0.096502	10.71	4.34	14.35	-0.0862	0.4081	-0.2989	
0.085278	-0.99674	-0.111264	14.21	0.7	12.39	-0.0975	0.4006	-0.3022	
0.063806	-0.990518	-0.092232	16.38	1.4	10.29	-0.0875	0.3928	-0.307	
0.063806	-0.952088	-0.101992	17.5	3.36	8.12	-0.0947	0.3989	-0.3131	
0.05551	-0.959042	-0.09394	16.17	2.8	4.69	-0.0876	0.3974	-0.3084	
0.063806	-1.011746	-0.081374	17.43	2.1	2.17	-0.079	0.3957	-0.31	
0.069296	-1.019188	-0.073566	23.59	1.33	0.98	-0.0862	0.4003	-0.3115	
0.079788	-1.006866	-0.058804	24.85	0	0	-0.0848	0.3986	-0.3272	
0.105286	-1.00589	-0.053802	26.18	0.35	-0.21	-0.0819	0.3925	-0.3241	
0.101626	-1.017602	-0.056486	28.7	3.01	-0.28	-0.0846	0.3786	-0.3384	
0.07991	-1.026386	-0.049654	30.73	3.64	-1.26	-0.0862	0.3909	-0.3304	
0.07869	-1.035414	-0.037332	32.69	2.38	-1.61	-0.0805	0.3876	-0.3461	
0.089182	-1.039928	-0.016958	35.84	1.33	-0.14	-0.0917	0.3788	-0.3322	
0.103944	-1.04127	0.007442	38.78	1.47	1.19	-0.0832	0.3707	-0.3589	
0.097356	-1.026142	0.027694	43.12	2.52	2.66	-0.0875	0.3769	-0.3525	
0.100162	-1.004426	0.044408	45.99	2.8	5.32	-0.0904	0.3801	-0.3494	
0.105408	-0.996374	0.063562	48.02	3.99	8.61	-0.086	0.3662	-0.3589	
0.097966	-0.987956	0.087352	49.21	4.34	9.17	-0.0903	0.3584	-0.3732	
0.092964	-0.987956	0.118828	50.4	3.15	12.18	-0.0718	0.3581	-0.3793	
0.105896	-0.996008	0.144692	51.24	5.81	12.88	-0.069	0.358	-0.3856	
0.09076799	-1.0004	0.18544	51.94	9.45	7.91	-0.0746	0.3458	-0.3905	
0.029036	-0.951356	0.242902	51.66	5.18	0.7	-0.0816	0.3351	-0.4001	
0.019032	-0.886208	0.28731	47.46	2.59	3.15	-0.0831	0.3395	-0.3853	
0.078324	-0.820816	0.31537	40.46	-3.5	4.13	-0.0674	0.3349	-0.4047	
0.09942999	-0.791902	0.327692	32.76	-4.06	3.92	-0.0774	0.3363	-0.4172	
0.105774	-0.818132	0.322934	24.01	-4.41	0.91	-0.0788	0.3332	-0.4235	
0.109556	-0.871202	0.324276	16.59	-3.99	-1.75	-0.0687	0.324	-0.4189	
0.08723	-0.929518	0.30805	13.3	0.84	-4.55	-0.083	0.3226	-0.4237	
0.066124	-0.956114	0.29585	13.86	0.84	-4.55	-0.083	0.3227	-0.4175	
0.05856	-0.967704	0.287554	14.14	3.78	-3.5	-0.0731	0.3239	-0.4299	
0.06466	-0.994056	0.280112	14.56	3.01	-1.96	-0.073	0.3163	-0.4316	
0.055998	-1.011014	0.286822	18.55	2.59	-0.35	-0.0716	0.3194	-0.4237	
0.06954	-0.969412	0.298534	25.97	-0.98	3.29	-0.08	0.3103	-0.4317	
0.07686	-0.943304	0.308904	25.83	-0.28	4.34	-0.07009999	0.3055	-0.438	
0.093696	-0.943426	0.316712	24.78	0	3.92	-0.0815	0.3103	-0.4301	
0.0671	-0.92598	0.319152	25.2	2.73	2.87	-0.0729	0.3054	-0.4474	
0.055144	-0.92171	0.326228	23.73	2.17	2.1	-0.0744	0.3147	-0.4363	
0.050264	-0.91256	0.328668	23.45	2.38	2.8	-0.0728	0.295	-0.4335	
0.046848	-0.906704	0.334036	23.24	0.35	0.98	-0.0743	0.2948	-0.4491	
0.05002	-0.910608	0.3477	23.66	-1.75	-1.19	-0.0714	0.2886	-0.4492	
0.059902	-0.911584	0.360876	24.92	-3.85	-3.64	-0.077	0.2872	-0.4477	
0.043676	-0.887184	0.372222	26.25	-4.48	-6.3	-0.0771	0.2886	-0.4555	
0.055632	-0.863272	0.382592	24.85	-5.67	-8.47	-0.0784	0.2795	-0.4525	
0.06588	-0.871446	0.3843	21.98	-6.93	-12.11	-0.0726	0.2703	-0.4557	
0.05673	-0.893162	0.38369	21.14	-5.81	-14.63	-0.0812	0.2719	-0.4573	
0.054656	-0.911096	0.403332	21	-8.19	-17.85	-0.0812	0.2718	-0.462	
0.087718	-0.916708	0.41175	22.19	-9.59	-19.88	-0.0939	0.2598	-0.4623	
0.102358	-0.909266	0.414922	22.61	-8.89	-19.25	-0.0869	0.2704	-0.4574	
0.124196	-0.899628	0.406382	22.96	-6.72	-17.92	-0.09959999	0.2583	-0.4639	
0.131882	-0.903776	0.400892	23.73	-4.83	-18.48	-0.0924	0.2536	-0.467	
0.132614	-0.913048	0.393816	24.29	-2.1	-18.41	-0.0925	0.258	-0.4795	
0.135298	-0.934276	0.38247	26.04	0.35	-17.43	-0.0967	0.252	-0.478	
0.126514	-0.95587	0.387838	29.61	1.68	-15.05	-0.0981	0.252	-0.4765	
0.130296	-0.95831	0.402844	33.39	0.77	-10.5	-0.1038	0.2413	-0.4876	
0.140788	-0.95221	0.4148	37.94	-1.75	-5.39	-0.1037	0.2383	-0.507	
0.161772	-0.9333	0.41907	42.28	-3.22	-0.14	-0.0951	0.2261	-0.4831	
0.167262	-0.908412	0.436638	45.08	-2.94	3.36	-0.1121	0.2247	-0.4863	
0.134444	-0.87169	0.490074	46.55	-2.87	5.81	-0.105	0.2246	-0.4863	
0.174826	-0.830698	0.531432	43.75	-8.54	7.28	-0.1063	0.2093	-0.4928	
0.206912	-0.80398	0.508862	41.3	-6.79	9.31	-0.1092	0.2124	-0.4912	
0.175802	-0.813984	0.472262	37.1	-1.19	11.13	-0.0935	0.2061	-0.4975	
0.151646	-0.83509	0.485194	37.52	-1.47	11.76	-0.1091	0.1955	-0.5024	
0.148962	-0.839726	0.508252	39.2	-3.92	11.62	-0.1133	0.1863	-0.5135	
0.147498	-0.84241	0.520086	41.65	-5.25	11.2	-0.1004	0.1846	-0.5151	
0.133712	-0.816058	0.517402	46.06	-5.53	11.55	-0.1003	0.1695	-0.509	
0.15006	-0.805932	0.525454	47.39	-7.14	12.18	-0.1088	0.1648	-0.5232	
0.164456	-0.807274	0.552904	50.19	-5.25	12.11	-0.1031	0.1663	-0.5232	
0.156038	-0.78507	0.581574	53.76	-4.06	11.34	-0.1059	0.1602	-0.5264	
0.145668	-0.758962	0.609146	55.44	-3.71	9.59	-0.1073	0.1495	-0.5266	
0.136274	-0.744444	0.633668	55.23	-3.43	8.82	-0.1001	0.1386	-0.5377	
0.120658	-0.716384	0.654408	54.39	-0.98	10.57	-0.1001	0.1387	-0.5617	
0.12078	-0.681858	0.684176	52.78	-0.84	11.41	-0.0985	0.1235	-0.5363	
0.122244	-0.652822	0.711626	50.82	0.63	12.04	-0.1041	0.1143	-0.5412	
0.117852	-0.641354	0.739076	46.62	-0.42	10.43	-0.1097	0.1067	-0.5445	
0.108336	-0.638426	0.75579	43.4	-1.05	8.96	-0.1082	0.1022	-0.5383	
0.100284	-0.612562	0.77287	39.69	-1.26	9.87	-0.104	0.1006	-0.543	
0.11102	-0.583648	0.786534	35.7	0.91	12.39	-0.101	0.0854	-0.5448	
0.120658	-0.558638	0.78324	30.87	2.24	12.46	-0.1067	0.0853	-0.551	
0.125172	-0.57279	0.797758	24.22	1.33	9.03	-0.1067	0.0853	-0.551	
0.117364	-0.60207	0.808128	20.79	1.12	6.72	-0.0981	0.0807	-0.5511	
0.113338	-0.611342	0.804712	21	2.66	7.35	-0.1022	0.0671	-0.545	
0.10492	-0.605486	0.795928	21.35	3.92	8.4	-0.0995	0.0746	-0.548	
0.094062	-0.578036	0.795196	22.4	4.27	10.08	-0.0995	0.0746	-0.548	
0.08784	-0.53436	0.799222	22.61	3.01	10.78	-0.0995	0.07759999	-0.5511	
0.077958	-0.513132	0.834724	17.71	1.12	9.24	-0.0923	0.0638	-0.556	
0.072834	-0.52643	0.861686	14.63	-0.28	7	-0.098	0.0654	-0.5529	
0.077348	-0.531188	0.873154	14	-1.54	4.27	-0.0865	0.0606	-0.5623	
0.068808	-0.529602	0.878278	12.6	-2.03	1.82	-0.09649999	0.0623	-0.5607	
0.063074	-0.502152	0.87169	9.8	-1.61	3.29	-0.0951	0.0577	-0.5624	
0.078446	-0.486414	0.880596	5.88	-0.28	4.97	-0.0979	0.0562	-0.5593	
0.08686399	-0.494222	0.896456	1.26	0.56	4.2	-0.09649999	0.0623	-0.556	
0.091012	-0.51545	0.898774	-3.43	0.7	2.38	-0.0893	0.0516	-0.5562	
0.08601	-0.531066	0.90219	-7.49	0.98	0.91	-0.0949	0.0456	-0.5563	
0.07625	-0.512522	0.894382	-10.5	1.96	1.96	-0.0993	0.0592	-0.5608	
0.067832	-0.494954	0.8845	-13.93	3.08	2.94	-0.09079999	0.0623	-0.556	
0.06466	-0.477386	0.874618	-18.13	3.36	3.64	-0.0894	0.0624	-0.5482	
0.07124799	-0.483852	0.870958	-23.45	1.89	1.96	-0.088	0.0638	-0.5544	
0.083082	-0.499224	0.861198	-27.37	3.08	-0.98	-0.0994	0.07	-0.5559	
0.072346	-0.514108	0.847168	-31.78	2.03	-2.45	-0.0909	0.073	-0.5527	
0.070272	-0.520574	0.834358	-35.91	1.4	-3.99	-0.0938	0.073	-0.5512	
0.069784	-0.532774	0.825574	-40.25	1.12	-3.92	-0.0967	0.0805	-0.5589	
0.066978	-0.534604	0.819108	-44.17	0.49	-4.76	-0.0939	0.0898	-0.5462	
0.094916	-0.5429	0.799954	-48.02	1.05	-5.6	-0.09119999	0.1005	-0.5429	
0.092354	-0.581452	0.782752	-53.41	2.03	-7.77	-0.097	0.1143	-0.5349	
0.085522	-0.619028	0.762134	-56.56	2.38	-9.45	-0.0927	0.1141	-0.5505	
0.077226	-0.645258	0.747616	-58.31	1.68	-9.24	-0.09559999	0.1204	-0.5332	
0.070028	-0.651236	0.732488	-61.67	1.68	-7.49	-0.0957	0.1294	-0.5425	
0.068564	-0.638304	0.708454	-68.04	0.56	-4.48	-0.0972	0.1341	-0.533	
0.088206	-0.661728	0.687104	-76.3	1.54	-2.17	-0.0873	0.1432	-0.5266	
0.069296	-0.716018	0.622322	-76.93	9.17	-1.4	-0.0875	0.163	-0.5278	
0.060756	-0.717116	0.58743	-75.39	10.92	-1.75	-0.0917	0.1693	-0.5153	
0.057584	-0.734074	0.558028	-74.76	11.83	-2.73	-0.0876	0.1845	-0.5103	
0.043432	-0.755912	0.535824	-73.99	12.04	-3.36	-0.0948	0.1968	-0.507	
0.064172	-0.798002	0.50203	-72.73	10.36	-2.73	-0.0878	0.2058	-0.5084	
0.063928	-0.842044	0.475068	-66.99	10.85	-3.29	-0.085	0.2119	-0.5052	
0.04758	-0.862784	0.449082	-62.16	7.14	-4.76	-0.09079999	0.2197	-0.4957	
0.038308	-0.884622	0.420656	-57.05	4.69	-4.97	-0.088	0.2289	-0.494	
0.031232	-0.911706	0.396378	-53.76	1.75	-2.94	-0.0781	0.2395	-0.486	
0.042822	-0.936106	0.373686	-50.75	-1.54	-2.1	-0.0839	0.2518	-0.4811	
0.056242	-0.937082	0.354532	-46.48	-3.85	-2.52	-0.084	0.2564	-0.4779	
0.069052	-0.915732	0.327204	-43.12	-3.64	-2.38	-0.0825	0.2596	-0.4653	
0.077348	-0.924638	0.31537	-43.89	-3.15	-4.06	-0.0869	0.2656	-0.4778	
0.068564	-0.931836	0.294264	-42.14	-1.89	-5.67	-0.0841	0.2811	-0.4572	
0.067832	-0.927932	0.280234	-40.46	-4.83	-6.3	-0.0769	0.2734	-0.4588	
0.06283	-0.947452	0.268156	-39.27	-7.98	-6.23	-0.0898	0.2826	-0.4572	
0.074908	-0.959164	0.259006	-36.82	-12.11	-6.65	-0.0914	0.2932	-0.4602	
0.092598	-0.945744	0.251564	-34.44	-12.39	-6.79	-0.0871	0.2934	-0.4492	
0.118462	-0.9455	0.25193	-35.35	-14	-7.49	-0.0941	0.2905	-0.4461	
0.13908	-0.954284	0.250344	-35.21	-12.6	-8.26	-0.0985	0.2996	-0.4507	
0.13725	-0.953918	0.242048	-36.12	-7.07	-9.94	-0.0942	0.2981	-0.446	
0.11041	-0.939034	0.229116	-38.85	-2.87	-10.85	-0.0985	0.2998	-0.4335	
0.112606	-0.951112	0.215086	-42.91	0.07	-9.52	-0.09999999	0.3152	-0.4208	
0.09821	-0.967704	0.19886	-45.64	0.98	-8.54	-0.0971	0.3076	-0.4224	
0.087596	-0.984662	0.185684	-46.97	-3.64	-7.07	-0.1028	0.3169	-0.4114	
0.09699	-0.994056	0.167506	-46.34	-5.32	-5.46	-0.1157	0.3248	-0.4051	
0.110044	-0.98027	0.135176	-43.96	-8.75	-3.15	-0.1087	0.3353	-0.4049	
0.110776	-0.992958	0.113948	-42.56	-10.92	-2.87	-0.1029	0.3324	-0.3908	
0.102724	-1.007964	0.101626	-40.04	-12.04	-3.08	-0.1044	0.3431	-0.3891	
0.111508	-1.01748	0.095892	-37.94	-13.51	-3.85	-0.1115	0.3464	-0.3766	
0.154818	-1.008818	0.089914	-36.19	-12.18	-5.18	-0.1145	0.3554	-0.3874	
0.155062	-0.993202	0.09028	-35.7	-9.87	-7.56	-0.1145	0.3586	-0.3748	
0.13664	-0.981612	0.081252	-35.14	-7.84	-6.93	-0.1158	0.3496	-0.3703	
0.134444	-0.99125	0.06466	-35.28	-8.75	-4.62	-0.1173	0.3618	-0.3685	
0.151158	-0.996252	0.052338	-35.35	-8.61	-3.5	-0.1102	0.3618	-0.3654	
0.161894	-0.983198	0.040382	-36.61	-6.65	-2.73	-0.1272	0.3561	-0.3515	
0.162626	-1.003328	0.032086	-38.78	-4.48	-2.38	-0.1117	0.3727	-0.348	
0.157014	-1.021384	0.030134	-39.27	-0.91	-1.89	-0.1288	0.3822	-0.3354	
0.152988	-1.003694	0.027572	-37.87	2.59	-1.19	-0.1202	0.3744	-0.3418	
0.145424	-1.003206	0.021472	-37.45	3.78	-0.49	-0.1189	0.3868	-0.3291	
0.143106	-0.984784	0.021472	-36.47	5.32	0.49	-0.1203	0.3837	-0.3338	
0.150304	-0.942206	0.028426	-39.13	4.48	0.28	-0.116	0.3883	-0.3259	
0.167262	-0.934276	0.053924	-44.24	4.55	-0.07	-0.1202	0.3885	-0.3134	
0.176778	-0.944036	0.01769	-46.69	4.97	-0.07	-0.1303	0.3963	-0.3087	
0.17263	-0.985272	-0.021472	-45.78	8.61	1.26	-0.1159	0.387	-0.3087	
0.14396	-1.001498	-0.029036	-44.17	11.34	1.12	-0.1203	0.404	-0.2991	
0.1464	-1.001254	-0.024766	-43.68	9.59	1.05	-0.1103	0.3995	-0.2851	
0.15921	-0.97417	-0.065758	-38.15	10.78	1.26	-0.1174	0.3995	-0.2914	
0.143716	-0.989542	-0.107116	-38.78	9.24	0.98	-0.1146	0.4057	-0.2803	
0.124562	-1.04554	-0.113582	-36.12	8.54	-0.14	-0.1161	0.4133	-0.2802	
0.12505	-1.0126	-0.10553	-32.62	8.19	-0.49	-0.1161	0.4103	-0.2771	
0.13725	-0.984052	-0.119926	-33.18	2.59	-1.61	-0.1033	0.4178	-0.2738	
0.143594	-1.02236	-0.202398	-29.96	2.31	-2.45	-0.1161	0.415	-0.2692	
0.12749	-1.059692	-0.209718	-25.06	3.15	-1.26	-0.1061	0.4164	-0.2676	
0.135176	-1.040294	-0.202032	-23.38	3.08	-1.12	-0.1132	0.4183	-0.2504	
0.155184	-1.001986	-0.214476	-21.35	1.33	-1.33	-0.1103	0.4183	-0.2488	
0.15006	-0.998082	-0.218624	-21.98	0	-2.17	-0.1103	0.4214	-0.2441	
0.13481	-1.026752	-0.23424	-21.49	-2.45	-2.03	-0.1061	0.4244	-0.244	
0.129198	-1.01199	-0.234362	-16.8	-0.35	1.19	-0.116	0.4185	-0.2363	
0.13908	-0.97783	-0.208498	-16.24	-2.8	2.45	-0.1061	0.4244	-0.2425	
0.136518	-0.952454	-0.23119	-18.9	-4.06	2.94	-0.1145	0.4154	-0.2442	
0.120536	-0.953308	-0.26718	-16.87	-0.77	2.31	-0.1075	0.4306	-0.2345	
0.114192	-0.983442	-0.274256	-15.82	0	-0.14	-0.1131	0.4187	-0.2223	
0.11834	-1.010038	-0.267058	-14.28	-3.01	-2.94	-0.1075	0.4262	-0.2252	
0.125172	-1.029558	-0.260104	-11.13	-5.32	-3.36	-0.1117	0.4263	-0.2221	
0.1403	-1.027484	-0.257298	-7.21	-5.53	-1.89	-0.106	0.4233	-0.2159	
0.15311	-1.004548	-0.261324	-8.05	-6.37	-0.84	-0.1189	0.4309	-0.2268	
0.148718	-0.996618	-0.249856	-7.21	-5.18	0.35	-0.116	0.428	-0.2143	
0.140544	-1.007232	-0.258884	-5.11	-4.06	0.77	-0.1145	0.4264	-0.2159	
0.129198	-1.025288	-0.267058	-1.26	-2.73	0.98	-0.1104	0.4339	-0.2204	
0.12383	-1.03883	-0.272548	2.87	-3.08	0.63	-0.1175	0.4339	-0.2267	
0.127978	-1.02053	-0.259494	7	-3.71	1.61	-0.1047	0.4339	-0.2157	
0.134078	-0.980636	-0.254736	6.09	-5.32	2.52	-0.116	0.4264	-0.2221	
0.150548	-0.977708	-0.257298	4.27	-2.17	2.87	-0.1075	0.4308	-0.222	
0.149328	-0.99979	-0.263642	5.18	-0.77	2.8	-0.1104	0.4354	-0.2267	
0.137128	-1.016382	-0.279014	9.17	0.28	3.08	-0.1119	0.4414	-0.2313	
0.12566	-1.01931	-0.271206	12.81	-0.42	2.87	-0.1132	0.4308	-0.2268	
0.122976	-0.999302	-0.271328	14.7	0.14	2.8	-0.1061	0.4229	-0.2409	
0.129686	-0.994666	-0.266326	14.35	-0.49	1.89	-0.1146	0.423	-0.2394	
0.139324	-1.003572	-0.264618	15.82	-0.21	1.82	-0.1075	0.4292	-0.2299	
0.141276	-1.015284	-0.260592	18.76	-0.63	1.96	-0.1104	0.4276	-0.2393	
0.132126	-1.032852	-0.266448	21.56	0.21	3.29	-0.1118	0.4291	-0.2362	
0.11529	-1.046516	-0.259128	24.57	1.68	5.11	-0.1174	0.42	-0.2441	
0.108946	-1.048956	-0.254004	27.44	2.73	6.79	-0.1061	0.4182	-0.2535	
0.119316	-1.034804	-0.244854	31.78	2.73	8.26	-0.1032	0.4181	-0.255	
0.123098	-1.018578	-0.23729	34.16	0.49	7.84	-0.1061	0.4166	-0.2582	
0.12505	-1.027362	-0.222162	36.96	-0.21	6.65	-0.1076	0.4256	-0.2628	
0.124074	-1.029802	-0.208254	39.55	-1.47	5.32	-0.1032	0.415	-0.2629	
0.122732	-1.007354	-0.185196	42.98	-1.89	5.11	-0.1104	0.4194	-0.2738	
0.129198	-0.996008	-0.166042	43.12	-1.96	4.2	-0.099	0.4132	-0.2723	
0.126514	-1.000644	-0.153232	42.63	-1.61	3.08	-0.1018	0.4086	-0.2818	
0.126758	-0.997838	-0.137372	42.63	-0.49	2.94	-0.1061	0.4039	-0.2944	
0.115046	-0.99247	-0.124562	42.91	0.63	2.73	-0.1005	0.4113	-0.3005	
0.112118	-0.992592	-0.095038	42.91	2.03	1.89	-0.1018	0.399	-0.3132	
0.111996	-0.98515	-0.061244	42.35	2.8	0.35	-0.0989	0.3867	-0.318	
0.114924	-0.967094	-0.030744	42.84	3.5	-0.84	-0.0918	0.3943	-0.3116	
0.11041	-0.952332	0.002074	42.91	4.27	-1.26	-0.1018	0.3927	-0.3242	
0.109556	-0.942206	0.020984	40.18	3.5	-1.19	-0.1018	0.3881	-0.329	
0.108946	-0.95526	0.051362	37.24	2.52	-2.66	-0.1003	0.3758	-0.3338	
0.110654	-0.957822	0.071736	35.84	4.2	-3.99	-0.1017	0.3774	-0.3323	
0.10492	-0.96563	0.087474	33.25	6.16	-5.25	-0.1046	0.3802	-0.351	
0.113826	-0.969168	0.111142	33.95	7.98	-7.35	-0.1061	0.3833	-0.3447	
0.126514	-0.941718	0.142862	37.03	11.97	-5.81	-0.1031	0.371	-0.3511	
0.1464	-0.907436	0.147376	30.24	6.93	-3.08	-0.1059	0.3602	-0.3638	
0.135908	-0.959286	0.142008	27.3	5.81	-3.71	-0.1017	0.3695	-0.3543	
0.130296	-0.989786	0.159698	24.85	5.53	-7	-0.1031	0.3587	-0.3638	
0.127612	-0.976122	0.183854	26.32	7.42	-9.24	-0.1002	0.3586	-0.3685	
0.138958	-0.960872	0.183122	28.07	7.7	-9.73	-0.1002	0.354	-0.3717	
0.13054	-0.950746	0.17995	29.4	6.86	-8.4	-0.1087	0.354	-0.3749	
0.128832	-0.94489	0.181414	29.96	3.15	-6.09	-0.1073	0.3524	-0.3796	
0.132004	-0.9638	0.18361	29.05	2.24	-4.69	-0.1072	0.3417	-0.3876	
0.126392	-0.953552	0.197518	27.79	0.07	-4.06	-0.1045	0.3462	-0.389	
0.120414	-0.927078	0.21106	24.43	-6.09	-3.5	-0.1043	0.3355	-0.3892	
0.094916	-0.91683	0.215208	18.97	-15.54	-3.29	-0.1043	0.3263	-0.3956	
0.123098	-0.929518	0.214232	17.29	-18.76	-2.66	-0.1172	0.3324	-0.4018	
0.160552	-1.002962	0.24095	17.22	-10.99	-0.77	-0.1158	0.3339	-0.4034	
0.132126	-0.981002	0.255468	21.91	-5.88	2.31	-0.1185	0.3295	-0.3956	
0.138958	-0.941108	0.279868	24.29	-6.09	3.78	-0.1157	0.331	-0.3956	
0.168604	-0.891088	0.293532	24.5	-5.46	3.78	-0.1214	0.3264	-0.4035	
0.172752	-0.868762	0.306098	20.3	-3.57	1.68	-0.1157	0.3217	-0.4082	
0.169214	-0.900238	0.31049	14.35	-2.24	-0.84	-0.1085	0.317	-0.4083	
0.160796	-0.92415	0.306342	12.39	-0.07	-1.96	-0.1214	0.3278	-0.4082	
0.158234	-0.934398	0.304268	12.67	1.47	-2.52	-0.1213	0.3156	-0.4115	
0.151402	-0.930128	0.307074	11.9	2.73	-2.8	-0.117	0.3156	-0.4083	
0.143716	-0.916708	0.292678	10.01	1.89	-3.29	-0.117	0.3094	-0.4147	
0.142984	-0.919148	0.289262	6.3	-0.14	-3.64	-0.1213	0.3109	-0.4178	
0.145302	-0.958798	0.287188	4.97	-0.07	-3.29	-0.1199	0.3155	-0.4146	
0.144204	-0.97112	0.289262	6.09	0	-2.45	-0.1199	0.3123	-0.4256	
0.146034	-0.958066	0.29951	7.63	0.21	-1.19	-0.1128	0.3155	-0.413	
0.153476	-0.94367	0.298046	7.84	1.05	-0.91	-0.1285	0.314	-0.4194	
0.149328	-0.933544	0.302072	7.7	0.14	-0.7	-0.1242	0.3124	-0.4256	
0.161772	-0.939034	0.308538	7.63	0.28	-1.26	-0.1227	0.311	-0.4131	
0.151036	-0.929274	0.310978	7.49	1.12	-1.33	-0.1227	0.3125	-0.4194	
0.155306	-0.933666	0.314638	6.65	1.61	-1.68	-0.1156	0.3108	-0.4209	
0.15494	-0.93025	0.319762	5.53	1.33	-2.17	-0.1242	0.3108	-0.4303	
0.157868	-0.920002	0.320372	4.55	0.91	-2.8	-0.1198	0.3079	-0.4194	
0.15799	-0.9211	0.315492	3.57	-0.28	-4.06	-0.1299	0.3125	-0.4241	
0.159088	-0.921466	0.321592	2.52	-0.77	-4.48	-0.1241	0.3048	-0.4257	
0.158844	-0.925614	0.311466	0.7	-1.33	-5.11	-0.1143	0.3137	-0.4302	
0.15372	-0.924516	0.304756	-0.91	-1.61	-5.18	-0.1213	0.3124	-0.4193	
0.154086	-0.937204	0.292556	-2.17	-1.89	-4.69	-0.1199	0.3094	-0.4194	
0.157502	-0.944402	0.291946	-2.59	-2.52	-4.06	-0.1241	0.3033	-0.4242	
0.160552	-0.93696	0.29097	-2.87	-2.8	-3.08	-0.1313	0.3108	-0.4319	
0.172874	-0.937204	0.292434	-2.45	-2.8	-2.45	-0.1212	0.2972	-0.4211	
0.17568	-0.942938	0.28975	-2.38	-1.75	-2.66	-0.1184	0.3063	-0.4194	
0.174826	-0.93635	0.285968	-3.01	0.07	-2.24	-0.1341	0.3034	-0.4227	
0.176046	-0.935862	0.28487	-3.92	0.84	-2.31	-0.1412	0.3065	-0.4242	
0.17324	-0.9394	0.2867	-3.57	1.05	-2.45	-0.1326	0.3065	-0.4179	
0.180316	-0.930982	0.279136	-2.94	0.98	-2.38	-0.1241	0.3095	-0.4178	
0.185806	-0.936472	0.278526	-2.94	0	-2.94	-0.1341	0.3112	-0.4085	
0.186294	-0.94794	0.280722	-2.59	-0.77	-3.22	-0.1256	0.3126	-0.4147	
0.18605	-0.942816	0.2806	-1.96	-0.56	-2.8	-0.1212	0.3048	-0.4226	
0.188124	-0.933544	0.275232	-2.52	-0.77	-2.59	-0.1298	0.3081	-0.4116	
0.195566	-0.942572	0.277184	-3.99	-1.33	-2.66	-0.1298	0.3002	-0.429	
0.193614	-0.954894	0.275842	-3.5	-1.47	-1.82	-0.1256	0.3108	-0.4288	
0.193004	-0.951478	0.273646	-2.52	-1.4	-0.21	-0.1326	0.3036	-0.4117	
0.194102	-0.949038	0.27328	-2.94	-0.35	0.49	-0.1326	0.3065	-0.4195	
0.193004	-0.941108	0.27389	-3.08	0.14	0.63	-0.1327	0.3126	-0.4147	
0.192882	-0.93452	0.273402	-3.15	0.42	0.56	-0.1326	0.3066	-0.4148	
0.190076	-0.938912	0.271572	-3.5	0.07	0.14	-0.1284	0.3049	-0.4211	
0.191052	-0.941718	0.26779	-3.5	0.63	0.21	-0.1341	0.3096	-0.4163	
0.186782	-0.942206	0.264374	-3.64	1.33	0.28	-0.1398	0.3081	-0.4179	
0.17934	-0.946842	0.263642	-3.71	1.82	-0.07	-0.1313	0.3172	-0.4146	
0.170068	-0.941718	0.2623	-3.57	1.61	-0.63	-0.1269	0.3064	-0.4179	
0.16714	-0.948428	0.254248	-4.2	0.77	-1.47	-0.1269	0.308	-0.4132	
0.170556	-0.959286	0.253516	-3.92	-0.14	-2.1	-0.1228	0.3171	-0.4115	
0.176778	-0.956236	0.2501	-3.36	-0.28	-1.89	-0.1199	0.314	-0.4178	
0.172996	-0.95343	0.247904	-3.43	0.28	-1.61	-0.1384	0.3112	-0.4116	
0.171898	-0.94794	0.248636	-3.64	0.77	-1.68	-0.1256	0.3093	-0.4288	
0.17629	-0.94672	0.247782	-3.64	0.63	-2.31	-0.1256	0.3126	-0.4115	
0.174704	-0.956846	0.246684	-3.08	0	-3.43	-0.1227	0.3096	-0.4069	
0.171288	-0.958188	0.238266	-2.24	-0.42	-3.71	-0.127	0.3172	-0.4115	
0.160064	-0.950014	0.228628	-1.82	0.07	-3.08	-0.1199	0.3171	-0.4099	
0.158478	-0.94733	0.241804	-2.94	-0.28	-3.08	-0.1397	0.3036	-0.4164	
0.162626	-0.94245	0.250344	-2.73	-0.84	-4.55	-0.1342	0.3185	-0.4287	
0.159576	-0.935618	0.24888	-2.59	-2.66	-5.95	-0.1341	0.3111	-0.4163	
0.161162	-0.940986	0.238632	-2.8	-4.06	-7.35	-0.124	0.305	-0.4101	
0.152988	-0.93696	0.228506	-2.38	-3.99	-8.4	-0.1441	0.3113	-0.4132	
0.143838	-0.939644	0.2318	-2.38	-4.41	-10.15	-0.1484	0.322	-0.4084	
0.148352	-0.937204	0.241072	-2.17	-6.23	-12.67	-0.1327	0.3112	-0.41	
0.155184	-0.926834	0.247782	-1.19	-8.54	-15.19	-0.1283	0.3097	-0.4054	
0.155306	-0.921954	0.24522	-0.35	-9.73	-17.64	-0.1412	0.3113	-0.4085	
0.168482	-0.920734	0.245464	0.84	-12.53	-22.19	-0.154	0.313	-0.407	
0.171532	-0.922076	0.248636	1.12	-12.88	-25.06	-0.1426	0.3128	-0.4116	
0.16958	-0.91622	0.248636	1.54	-13.23	-28.07	-0.1538	0.2902	-0.4073	
0.178486	-0.913048	0.246806	0.91	-16.1	-31.57	-0.1568	0.3053	-0.4134	
0.200812	-0.926956	0.246562	0.7	-19.95	-34.58	-0.1711	0.3132	-0.4055	
0.22021	-0.922686	0.24583	1.05	-20.51	-35.91	-0.1795	0.2951	-0.4058	
0.2379	-0.923418	0.246562	1.33	-20.51	-36.68	-0.1753	0.3073	-0.3978	
0.244244	-0.922076	0.241072	1.19	-19.67	-37.66	-0.1866	0.2951	-0.409	
0.249246	-0.912438	0.23973	1.19	-21	-38.08	-0.1979	0.2892	-0.4044	
0.262544	-0.897676	0.240462	0.49	-22.61	-38.08	-0.2094	0.3031	-0.3996	
0.297558	-0.891454	0.233386	-1.54	-24.57	-37.1	-0.2079	0.2861	-0.4123	
0.321958	-0.890234	0.21777	-3.5	-25.97	-36.68	-0.2092	0.2833	-0.4014	
0.342088	-0.89426	0.215452	-5.25	-26.88	-34.79	-0.2207	0.2896	-0.3936	
0.35807	-0.902922	0.207522	-4.83	-26.67	-33.53	-0.2333	0.2731	-0.3876	
0.369294	-0.889502	0.199836	-4.06	-26.88	-33.18	-0.2363	0.2837	-0.3969	
0.388936	-0.870226	0.18727	-3.64	-26.32	-33.04	-0.2405	0.2777	-0.3938	
0.41968	-0.866322	0.186782	-3.29	-27.58	-34.23	-0.2376	0.2792	-0.3907	
0.436516	-0.852536	0.186538	-1.54	-27.93	-35.07	-0.2532	0.2718	-0.3893	
0.485926	-0.846802	0.19825	-2.38	-29.26	-39.13	-0.2588	0.2689	-0.3816	
0.50691	-0.838872	0.19398	-0.91	-28.91	-39.9	-0.2602	0.2707	-0.369	
0.520574	-0.834724	0.179584	0.63	-29.33	-41.72	-0.2659	0.2599	-0.3786	
0.523624	-0.82716	0.168848	-0.21	-22.75	-43.68	-0.273	0.2677	-0.3738	
0.532042	-0.810324	0.159454	2.59	-23.8	-44.31	-0.273	0.2677	-0.3738	
0.54595	-0.802394	0.160796	6.23	-26.25	-49	-0.2858	0.2618	-0.3693	
0.564738	-0.768356	0.155184	11.69	-27.16	-50.4	-0.2956	0.2468	-0.3664	
0.61061	-0.734562	0.15738	9.38	-26.46	-54.95	-0.3055	0.2453	-0.3696	
0.630496	-0.669292	0.143594	11.62	-23.8	-66.71	-0.3155	0.2456	-0.3587	
0.707966	-0.709064	0.152744	7.56	-20.72	-76.86	-0.3267	0.2258	-0.3685	
0.642208	-0.739564	0.164822	5.53	-9.03	-64.05	-0.3367	0.232	-0.3653	
0.668072	-0.71492	0.155428	-0.42	-7.91	-63.91	-0.3436	0.2126	-0.35	
0.735294	-0.69845	0.169824	1.68	-14.56	-71.12	-0.3434	0.1973	-0.3565	
0.809592	-0.728096	0.189954	3.57	-12.11	-64.68	-0.3561	0.1852	-0.3358	
0.78568	-0.743346	0.21106	3.01	-9.94	-58.8	-0.3519	0.1929	-0.3535	
0.747982	-0.736392	0.146644	-0.56	-2.66	-51.38	-0.3631	0.1748	-0.3507	
0.7259	-0.720288	0.102358	-4.13	-4.2	-39.76	-0.3617	0.173	-0.3663	
0.725412	-0.738344	0.084302	-6.3	-2.52	-30.45	-0.3602	0.1625	-0.3812	
0.706014	-0.746884	0.092232	-2.94	-5.18	-26.46	-0.3646	0.1809	-0.3506	
0.727852	-0.71797	0.091012	0.28	-11.13	-22.54	-0.3744	0.1674	-0.3477	
0.77653	-0.686616	0.083082	0.21	-13.65	-20.65	-0.3715	0.1613	-0.3447	
0.818254	-0.668316	0.098698	0.77	-15.75	-19.81	-0.3757	0.1568	-0.3463	
0.815082	-0.669048	0.112606	2.52	-16.59	-18.69	-0.3743	0.1568	-0.3463	
0.8296	-0.657702	0.122366	3.08	-17.29	-15.61	-0.3815	0.1598	-0.3541	
0.842532	-0.639646	0.111996	3.22	-15.75	-11.9	-0.3785	0.143	-0.3559	
0.847168	-0.633668	0.101748	5.18	-13.79	-8.96	-0.3842	0.1539	-0.3386	
0.831186	-0.627934	0.102236	4.41	-11.62	-6.37	-0.3785	0.1446	-0.3481	
0.828258	-0.609512	0.125904	-0.91	-10.64	-2.59	-0.3913	0.1509	-0.3434	
0.841678	-0.571326	0.14457	-1.75	-10.29	-1.61	-0.3871	0.1556	-0.3339	
0.862906	-0.544486	0.134688	-0.98	-8.54	-3.85	-0.3871	0.1539	-0.3402	
0.861808	-0.547902	0.118096	-1.82	-5.11	-5.11	-0.3884	0.1495	-0.3356	
0.856318	-0.570838	0.109556	-6.23	-3.71	-4.34	-0.397	0.1511	-0.3371	
0.84607	-0.622444	0.097966	-8.26	-2.45	-2.31	-0.3899	0.1539	-0.3449	
0.839726	-0.64599	0.082716	-6.37	1.75	1.96	-0.3856	0.1555	-0.3355	
0.838262	-0.652822	0.077958	-4.27	3.01	6.79	-0.3884	0.1433	-0.3388	
0.839604	-0.66185	0.080154	-3.85	4.69	11.76	-0.3827	0.1494	-0.3371	
0.823622	-0.65636	0.085522	-4.2	7.98	18.55	-0.3885	0.1556	-0.3308	
0.830454	-0.654286	0.06832	-6.16	8.05	25.06	-0.3841	0.1433	-0.3372	
0.845704	-0.672464	0.067832	-6.93	10.71	31.43	-0.3885	0.1601	-0.337	
0.819108	-0.710894	0.061976	-7.63	12.18	38.01	-0.3772	0.1645	-0.3368	
0.828746	-0.75457	0.069418	-5.88	13.58	46.13	-0.3801	0.1705	-0.343	
0.788974	-0.748348	0.083936	-3.15	16.59	49.77	-0.376	0.1811	-0.346	
0.780434	-0.713334	0.091744	-3.22	18.13	56.7	-0.3774	0.1797	-0.3382	
0.789462	-0.69723	0.105896	-3.99	18.27	59.29	-0.3618	0.184	-0.3458	
0.785192	-0.698572	0.115534	-2.03	17.08	59.22	-0.3605	0.2007	-0.3456	
0.775066	-0.735172	0.126636	0.14	16.45	59.15	-0.3591	0.1976	-0.3456	
0.745176	-0.748836	0.139934	2.31	21.84	63.77	-0.3478	0.2065	-0.3532	
0.70028	-0.746762	0.130906	4.48	24.71	68.32	-0.3422	0.2202	-0.3468	
0.688202	-0.74176	0.129076	8.33	25.06	69.58	-0.3308	0.2201	-0.3498	
0.664046	-0.747982	0.146888	10.57	26.67	69.09	-0.3209	0.2229	-0.3544	
0.64233	-0.762256	0.164578	11.69	28.84	70.7	-0.3153	0.2319	-0.3621	
0.596946	-0.777384	0.17141	13.44	31.71	69.02	-0.3126	0.2378	-0.3682	
0.56242	-0.7747	0.177754	14.7	36.33	67.06	-0.2913	0.2406	-0.3712	
0.531554	-0.774334	0.173484	14.63	39.34	65.52	-0.2857	0.2526	-0.3788	
0.513986	-0.806908	0.172508	16.73	42.56	64.19	-0.2829	0.2556	-0.3772	
0.456402	-0.8479	0.200568	16.24	42.07	60.41	-0.2686	0.2492	-0.3866	
0.388082	-0.86071	0.218014	13.16	36.89	54.32	-0.2574	0.2565	-0.3974	
0.335012	-0.864126	0.220576	9.31	31.5	48.58	-0.2546	0.2609	-0.4098	
0.293776	-0.882426	0.213622	4.83	20.3	45.43	-0.2362	0.2729	-0.4033	
0.315248	-0.895724	0.221552	3.85	15.61	47.6	-0.2247	0.2667	-0.4033	
0.320128	-0.890112	0.243146	2.87	13.58	48.93	-0.2206	0.2818	-0.4078	
0.30317	-0.891332	0.249734	1.75	13.02	50.12	-0.2206	0.2803	-0.4047	
0.268156	-0.898408	0.233996	0.84	14.07	50.47	-0.2022	0.2846	-0.4123	
0.247782	-0.912072	0.238632	1.82	10.71	51.03	-0.2036	0.2815	-0.4124	
0.244488	-0.906948	0.26474	4.48	6.65	51.38	-0.1922	0.2875	-0.4138	
0.252784	-0.885232	0.286822	5.04	5.32	51.03	-0.1865	0.286	-0.4091	
0.269864	-0.877302	0.296582	4.41	3.78	51.17	-0.1794	0.2827	-0.4154	
0.258274	-0.88145	0.291824	5.74	7.98	51.17	-0.1753	0.3025	-0.4104	
0.2257	-0.890478	0.287432	3.57	12.25	50.75	-0.1624	0.2963	-0.4135	
0.21045	-0.898896	0.272914	-0.49	9.31	45.92	-0.1568	0.3022	-0.4181	
0.22387	-0.91378	0.283406	0.21	7.98	42.14	-0.1609	0.2902	-0.4105	
0.204472	-0.933666	0.29768	-0.28	10.78	41.16	-0.1439	0.2991	-0.4134	
0.184342	-0.9272	0.290726	-1.05	14.49	40.95	-0.1497	0.3052	-0.4149	
0.172508	-0.921588	0.268644	-2.03	17.36	41.09	-0.144	0.3082	-0.418	
0.151158	-0.912682	0.241316	-1.82	20.44	42.14	-0.1356	0.3141	-0.4178	
0.134444	-0.944646	0.23363	-2.1	20.23	42.63	-0.1313	0.3078	-0.4304	
0.119438	-0.96563	0.236558	0.07	19.6	40.32	-0.1199	0.314	-0.4178	
0.103212	-0.982344	0.25254	0.98	20.02	38.99	-0.1184	0.3078	-0.421	
0.085888	-0.98576	0.2623	1.19	23.1	38.57	-0.1128	0.3092	-0.4256	
0.08601	-0.96807	0.26535	1.68	24.71	39.27	-0.1058	0.3212	-0.4316	
0.083448	-0.968314	0.266814	2.45	25.62	40.95	-0.09429999	0.3168	-0.4129	
0.070638	-0.9699	0.263886	1.96	25.9	43.89	-0.0872	0.315	-0.4285	
0.054046	-0.969778	0.251808	2.03	29.26	47.88	-0.0772	0.3133	-0.4301	
0.050386	-0.984418	0.250466	4.34	30.94	53.41	-0.0658	0.3179	-0.4206	
0.028914	-0.975268	0.275598	6.79	33.6	57.89	-0.0459	0.3207	-0.4204	
-0.037088	-0.959164	0.259372	7.84	36.61	59.29	-0.0531	0.3238	-0.4236	
-0.06527	-0.954772	0.249368	7.35	33.25	58.8	-0.0346	0.325	-0.4297	
-0.077958	-0.970388	0.248514	7.21	35.77	58.8	-0.0218	0.3218	-0.4297	
-0.11224	-0.94977	0.260226	10.01	33.11	59.64	-0.0088	0.3095	-0.4298	
-0.133102	-0.934032	0.27694	10.43	32.41	59.08	-0.0076	0.32	-0.439	
-0.163236	-0.925004	0.278282	9.45	31.43	56.56	0.0109	0.3153	-0.4328	
-0.183	-0.937814	0.300974	11.76	27.79	55.58	0.0153	0.3078	-0.4251	
-0.236436	-0.91927	0.30927	11.27	25.06	53.97	0.0266	0.3074	-0.4453	
-0.266082	-0.930982	0.3111	10.57	22.75	51.94	0.0395	0.3089	-0.439	
-0.294874	-0.939644	0.292434	11.76	21.35	49.98	0.0494	0.3056	-0.4453	
-0.323666	-0.917562	0.2867	13.72	18.2	44.59	0.0537	0.3071	-0.4468	
-0.33001	-0.88694	0.275598	13.93	11.34	41.3	0.0594	0.3025	-0.4453	
-0.316102	-0.88572	0.280844	13.09	8.75	41.51	0.0679	0.3054	-0.4468	
-0.316712	-0.893406	0.278526	12.39	8.12	42.7	0.0794	0.2992	-0.4437	
-0.313052	-0.888892	0.284992	14.91	8.19	42.84	0.0822	0.296	-0.4547	
-0.30256	-0.84485	0.296094	18.48	10.85	44.31	0.088	0.2931	-0.4406	
-0.33794	-0.82533	0.314394	18.48	14.42	43.26	0.0937	0.2946	-0.4374	
-0.365878	-0.814472	0.340258	17.78	16.94	40.46	0.1038	0.2822	-0.4454	
-0.379542	-0.80398	0.351726	16.52	20.16	39.83	0.1052	0.2791	-0.4501	
-0.364414	-0.789584	0.350506	16.8	23.31	39.34	0.1068	0.2716	-0.4409	
-0.350628	-0.786656	0.363316	14.21	29.47	38.57	0.1152	0.2744	-0.4502	
-0.364292	-0.78385	0.36539	13.23	34.86	35.98	0.1252	0.2774	-0.4438	
-0.410286	-0.76616	0.36051	10.29	40.18	32.48	0.1266	0.2742	-0.4532	
-0.454328	-0.770796	0.350262	5.81	41.58	31.64	0.1467	0.2588	-0.4534	
-0.474702	-0.77287	0.332938	0.35	41.93	30.03	0.1624	0.2604	-0.4392	
-0.497394	-0.774578	0.32147	-1.05	43.54	27.79	0.1667	0.2573	-0.4393	
-0.536922	-0.777506	0.287432	-1.05	45.64	25.55	0.1625	0.2481	-0.4457	
-0.546804	-0.793	0.299754	-3.15	45.08	24.29	0.1767	0.2558	-0.4314	
-0.567544	-0.777384	0.266082	-2.03	43.4	22.68	0.1781	0.2603	-0.4345	
-0.5978	-0.787998	0.247294	-5.04	37.24	19.32	0.191	0.2496	-0.4283	
-0.62952	-0.800076	0.225456	-4.9	32.13	16.31	0.1953	0.2527	-0.422	
-0.648064	-0.79727	0.235704	-1.82	27.02	15.47	0.2095	0.2586	-0.4219	
-0.64355	-0.784704	0.228384	-0.56	21.63	13.3	0.2068	0.2449	-0.4237	
-0.63623	-0.76067	0.238632	1.05	18.62	10.92	0.2109	0.2555	-0.4235	
-0.628666	-0.755546	0.243024	1.54	16.38	7.77	0.2166	0.2602	-0.4156	
-0.624274	-0.753106	0.242658	0.7	12.88	4.83	0.2153	0.2481	-0.4126	
-0.637572	-0.756278	0.23912	-2.52	5.04	0.42	0.2182	0.2434	-0.4142	
-0.631838	-0.742614	0.238022	-0.91	8.26	-3.22	0.2083	0.2405	-0.4128	
-0.612318	-0.752374	0.234362	1.33	8.61	-6.37	0.2224	0.254	-0.4188	
-0.62159	-0.795928	0.220942	0.49	7.84	-9.66	0.2181	0.2556	-0.4109	
-0.664656	-0.818864	0.197152	4.9	7.14	-10.01	0.2166	0.2569	-0.4265	
-0.682712	-0.80215	0.191174	8.26	0.56	-12.32	0.2182	0.2465	-0.4111	
-0.674782	-0.784826	0.198372	8.47	-5.6	-12.39	0.2096	0.2526	-0.4188	
-0.645014	-0.79239	0.206058	9.24	-9.31	-12.95	0.2096	0.2494	-0.4267	
-0.635986	-0.78812	0.217648	7.56	-9.94	-15.33	0.201	0.248	-0.4236	
-0.649528	-0.768478	0.213744	6.51	-13.23	-18.2	0.2025	0.248	-0.4252	
-0.645014	-0.745176	0.224846	4.83	-17.5	-20.37	0.1996	0.2542	-0.4204	
-0.638182	-0.713456	0.215574	2.66	-22.54	-26.11	0.201	0.2495	-0.4267	
-0.632448	-0.73993	0.22753	2.38	-28.84	-32.13	0.1967	0.2541	-0.4282	
-0.598044	-0.798612	0.239974	5.46	-32.55	-35.42	0.1852	0.2586	-0.4376	
-0.520574	-0.78263	0.266692	6.86	-32.06	-43.05	0.1867	0.2527	-0.4299	
-0.526796	-0.795074	0.267668	6.09	-35	-47.11	0.1738	0.2604	-0.4314	
-0.52887	-0.801174	0.291336	6.16	-34.51	-51.94	0.1567	0.2634	-0.4423	
-0.521306	-0.797392	0.30439	4.69	-34.23	-57.33	0.151	0.2619	-0.4471	
-0.479582	-0.79422	0.321226	3.15	-36.12	-58.73	0.1495	0.2665	-0.4454	
-0.433222	-0.829722	0.333304	2.66	-36.47	-61.32	0.1281	0.2714	-0.4423	
-0.406626	-0.842776	0.339282	0.98	-36.61	-60.13	0.1324	0.2651	-0.4518	
-0.360632	-0.866322	0.339892	1.68	-34.86	-59.85	0.1109	0.2821	-0.4469	
-0.338062	-0.864736	0.332938	0.56	-32.41	-58.94	0.111	0.2729	-0.4518	
-0.304634	-0.879498	0.323666	0.21	-33.18	-58.94	0.0909	0.2823	-0.4501	
-0.269986	-0.905362	0.320006	3.5	-30.87	-59.85	0.07099999	0.281	-0.4487	
-0.232654	-0.9028	0.325252	8.68	-27.79	-58.59	0.07099999	0.287	-0.4517	
-0.186294	-0.887794	0.337452	11.55	-20.09	-58.66	0.0653	0.2764	-0.4566	
-0.174216	-0.873642	0.357094	9.52	-18.76	-58.45	0.0539	0.2872	-0.4502	
-0.145424	-0.884378	0.359534	9.73	-16.1	-56.21	0.0369	0.2722	-0.4552	
-0.101992	-0.908412	0.373198	7.84	-19.32	-53.62	0.0354	0.2783	-0.452	
-0.062098	-0.912804	0.391498	6.51	-18.62	-52.92	0.031	0.2826	-0.4707	
-0.022936	-0.912438	0.400038	4.34	-18.69	-52.99	0.0226	0.2768	-0.4599	
-0.00305	-0.914146	0.395402	2.45	-16.8	-53.97	0.0111	0.2829	-0.4661	
0.013054	-0.90402	0.391742	0.28	-15.89	-53.69	0.0013	0.274	-0.4616	
0.02989	-0.895236	0.379542	-2.03	-15.05	-52.43	-0.013	0.2831	-0.4693	
0.035014	-0.887062	0.360266	-3.36	-13.51	-51.66	-0.0101	0.2818	-0.4537	
0.039284	-0.910364	0.3599	-4.13	-14.63	-51.52	-0.013	0.2879	-0.4568	
0.052216	-0.912804	0.35197	-3.43	-16.03	-51.31	-0.0216	0.2909	-0.463	
0.080398	-0.92049	0.352946	-1.96	-17.15	-50.26	-0.0313	0.2713	-0.4587	
0.101748	-0.934886	0.35014	-0.28	-18.76	-48.79	-0.043	0.2911	-0.4647	
0.11468	-0.932446	0.349042	1.26	-18.55	-47.88	-0.05	0.2821	-0.4633	
0.123708	-0.91927	0.348676	1.4	-18.69	-46.76	-0.0585	0.2807	-0.4618	
0.13786	-0.9211	0.35014	-0.35	-17.85	-47.11	-0.0613	0.2778	-0.454	
0.1525	-0.912316	0.350506	-0.49	-17.71	-45.5	-0.0771	0.2808	-0.4712	
0.162138	-0.913414	0.369294	-1.4	-16.59	-44.17	-0.0812	0.2796	-0.4494	
0.168116	-0.90951	0.364658	-2.31	-15.61	-42.35	-0.0941	0.2811	-0.4604	
0.168116	-0.903166	0.352946	-4.13	-16.03	-40.04	-0.0955	0.2797	-0.4557	
0.171898	-0.915122	0.341478	-5.32	-17.29	-37.38	-0.1011	0.2783	-0.4495	
0.170068	-0.924882	0.337574	-5.11	-17.99	-36.05	-0.1068	0.2661	-0.4607	
0.1769	-0.929152	0.34221	-4.06	-19.11	-33.53	-0.1082	0.2754	-0.4496	
0.182146	-0.919514	0.348188	-2.52	-21.21	-31.92	-0.1168	0.277	-0.4465	
0.196176	-0.905118	0.34831	-2.59	-22.61	-30.59	-0.1267	0.2695	-0.4482	
0.205692	-0.91256	0.343796	-2.52	-24.08	-31.71	-0.1353	0.2772	-0.4512	
0.204716	-0.922076	0.345138	-1.33	-24.92	-31.43	-0.141	0.2757	-0.4497	
0.201788	-0.910608	0.338306	0.49	-25.06	-29.54	-0.1396	0.2773	-0.4466	
0.22448	-0.900116	0.338184	0.7	-26.11	-27.09	-0.138	0.2651	-0.4483	
0.245464	-0.884256	0.337208	1.61	-27.37	-25.9	-0.158	0.2699	-0.4421	
0.26108	-0.86803	0.344528	2.38	-27.58	-27.65	-0.1551	0.2669	-0.4421	
0.273158	-0.844118	0.348554	2.31	-27.44	-31.08	-0.1679	0.2717	-0.4343	
0.282796	-0.833382	0.343674	1.33	-25.27	-34.93	-0.1708	0.267	-0.4453	
0.290116	-0.832162	0.33428	0.91	-24.64	-39.62	-0.1794	0.2733	-0.4374	
0.299754	-0.833992	0.317444	0.91	-24.99	-43.33	-0.1864	0.2611	-0.4423	
0.327692	-0.82533	0.314394	1.12	-28.14	-46.9	-0.1963	0.2598	-0.4361	
0.360632	-0.803492	0.310612	1.33	-27.51	-50.82	-0.1991	0.2552	-0.4393	
0.399916	-0.797148	0.306464	1.26	-27.09	-53.76	-0.2062	0.2525	-0.4254	
0.424926	-0.818254	0.286822	3.99	-24.92	-57.19	-0.2232	0.2466	-0.4271	
0.438834	-0.831064	0.284748	4.9	-27.58	-58.66	-0.2316	0.236	-0.4273	
0.471164	-0.833504	0.280234	4.69	-30.17	-58.31	-0.2345	0.2375	-0.4304	
0.470676	-0.824476	0.26047	7	-31.99	-58.38	-0.2458	0.224	-0.4307	
0.473482	-0.802272	0.242536	3.92	-37.59	-56.84	-0.2472	0.2316	-0.4274	
0.52399	-0.845704	0.263642	2.17	-38.64	-54.46	-0.2499	0.2165	-0.4261	
0.549732	-0.857904	0.271572	8.26	-35	-50.47	-0.2698	0.2168	-0.4199	
0.575962	-0.816668	0.283406	13.79	-37.24	-48.44	-0.2826	0.2093	-0.4217	
0.62403	-0.779092	0.296826	16.87	-37.38	-44.38	-0.2882	0.2019	-0.4124	
0.632082	-0.74359	0.285358	18.41	-34.3	-40.25	-0.3023	0.1929	-0.4158	
0.625982	-0.716506	0.26657	16.73	-31.36	-38.57	-0.3009	0.1915	-0.4049	
0.649284	-0.723338	0.25925	13.79	-29.33	-36.89	-0.3052	0.193	-0.408	
0.656604	-0.730658	0.252052	14.49	-28.7	-35	-0.3179	0.1888	-0.3987	
0.673074	-0.705282	0.262544	15.4	-31.5	-36.89	-0.3179	0.1841	-0.4035	
0.71248	-0.685274	0.259494	16.8	-31.36	-38.15	-0.3234	0.1688	-0.4131	
0.718824	-0.663192	0.251076	18.9	-29.75	-40.88	-0.3334	0.1769	-0.3927	
0.72468	-0.644892	0.257908	19.04	-29.26	-43.4	-0.339	0.1616	-0.3992	
0.741394	-0.630496	0.25315	17.29	-30.31	-44.31	-0.3418	0.1616	-0.4039	
0.763964	-0.605364	0.252662	14.98	-30.8	-45.57	-0.3559	0.1467	-0.3933	
0.777018	-0.57279	0.24583	12.6	-32.27	-46.55	-0.3472	0.136	-0.3903	
0.802882	-0.566202	0.234728	12.81	-28.91	-44.03	-0.3671	0.1364	-0.381	
0.777018	-0.569862	0.219844	14.91	-22.61	-38.5	-0.3557	0.1317	-0.3826	
0.764208	-0.573644	0.210328	13.65	-23.52	-39.41	-0.3754	0.112	-0.3908	
0.74969	-0.564128	0.205936	12.04	-26.04	-39.34	-0.3654	0.1106	-0.3767	
0.685152	-0.48861	0.144814	4.97	-36.26	-38.15	-0.3782	0.1077	-0.3768	
0.801052	-0.521184	0.148718	-17.57	-54.53	-40.81	-0.3839	0.1108	-0.3752	
1.004182	-0.627446	0.201422	-2.1	-41.65	-43.82	-0.388	0.09119999	-0.3677	
0.960384	-0.565226	0.2745	-7.42	-30.52	-30.45	-0.398	0.099	-0.3645	
0.95587	-0.53436	0.225944	-2.1	-18.76	-21.7	-0.4092	0.0918	-0.3459	
0.918782	-0.501542	0.19093	0.7	-17.78	-17.15	-0.3978	0.0917	-0.3459	
0.915244	-0.520452	0.161406	1.89	-13.37	-16.8	-0.4064	0.0948	-0.3428	
0.91073	-0.544852	0.161162	-0.07	-9.17	-14.28	-0.4107	0.0948	-0.349	
0.926956	-0.534604	0.169214	-0.98	-5.95	-10.78	-0.4049	0.0873	-0.3382	
0.940742	-0.521306	0.186172	1.54	-0.21	-6.51	-0.4135	0.0949	-0.3428	
0.897676	-0.49654	0.191174	1.75	4.69	-2.38	-0.4063	0.08419999	-0.3445	
0.884256	-0.469822	0.168238	-4.69	2.1	-2.03	-0.412	0.0764	-0.3587	
0.927078	-0.490928	0.18117	-9.52	3.43	-3.15	-0.4162	0.0797	-0.3462	
0.935618	-0.512766	0.169824	-12.95	6.72	-0.21	-0.4104	0.066	-0.3464	
0.949282	-0.51484	0.175558	-14.42	11.06	5.04	-0.4134	0.0826	-0.3508	
0.939034	-0.510814	0.169702	-13.23	13.72	11.48	-0.4021	0.0918	-0.3412	
0.915488	-0.516304	0.1586	-10.78	15.19	14.91	-0.4036	0.0917	-0.3506	
0.92964	-0.517646	0.169946	-11.06	15.89	20.16	-0.3993	0.0932	-0.349	
0.915122	-0.512644	0.169092	-10.64	16.59	23.38	-0.3964	0.0916	-0.3506	
0.900848	-0.510936	0.16714	-12.25	16.17	28.77	-0.4008	0.0991	-0.3599	
0.930616	-0.562786	0.190442	-17.22	16.8	34.72	-0.3867	0.1081	-0.3565	
0.923174	-0.587064	0.197274	-20.44	20.23	45.15	-0.3896	0.1142	-0.358	
0.899994	-0.603046	0.19459	-21.56	23.94	54.32	-0.3868	0.1264	-0.3516	
0.869738	-0.608902	0.185074	-21.42	27.51	61.46	-0.377	0.1307	-0.3655	
0.859856	-0.609024	0.19703	-20.65	29.89	65.17	-0.3699	0.1366	-0.3685	
0.83936	-0.604754	0.20069	-21.35	34.72	71.26	-0.3659	0.1608	-0.3712	
0.796782	-0.591578	0.200568	-22.26	39.34	75.39	-0.3659	0.1623	-0.3775	
0.771162	-0.599386	0.186294	-24.5	41.23	75.81	-0.3489	0.1636	-0.3758	
0.722606	-0.640988	0.15067	-25.62	41.58	75.46	-0.3434	0.1817	-0.3802	
0.691008	-0.677832	0.133224	-24.71	41.16	74.62	-0.3264	0.1922	-0.3815	
0.64782	-0.714676	0.12627	-23.1	41.3	73.92	-0.3251	0.1998	-0.3814	
0.614636	-0.739564	0.143838	-15.96	36.96	69.65	-0.3067	0.2086	-0.3874	
0.590968	-0.748104	0.163968	-13.79	32.55	67.34	-0.3039	0.2162	-0.3857	
0.584746	-0.75579	0.175436	-10.99	26.74	69.79	-0.2927	0.2342	-0.3885	
0.557784	-0.76982	0.181292	-11.97	28.14	67.13	-0.2757	0.2386	-0.3915	
0.535336	-0.792512	0.193004	-12.32	23.73	66.71	-0.2757	0.24	-0.3977	
0.491294	-0.808616	0.188978	-11.2	20.16	64.89	-0.2716	0.2582	-0.3974	
0.465186	-0.826672	0.189588	-11.76	16.31	64.54	-0.2545	0.2551	-0.3911	
0.439078	-0.845338	0.17385	-11.34	13.79	65.52	-0.2518	0.2717	-0.3971	
0.413092	-0.87657	0.15555	-8.05	13.3	64.61	-0.2404	0.2715	-0.4002	
0.388204	-0.908778	0.180316	-2.66	13.44	63.98	-0.242	0.2852	-0.4	
0.371734	-0.91073	0.20557	1.12	11.69	62.23	-0.2333	0.2745	-0.397	
0.354044	-0.910608	0.21289	4.62	9.87	59.36	-0.2221	0.2893	-0.4123	
0.322812	-0.910852	0.213988	7.77	7.49	58.1	-0.2093	0.2893	-0.4029	
0.29402	-0.919148	0.23607	8.68	6.93	54.88	-0.2036	0.2908	-0.3997	
0.284504	-0.909388	0.268278	9.24	8.75	54.32	-0.2007	0.2847	-0.4014	
0.258274	-0.917684	0.26779	10.64	10.57	52.92	-0.1866	0.2951	-0.4058	
0.202398	-0.882548	0.243878	11.41	8.33	51.24	-0.1824	0.2981	-0.4105	
0.203862	-0.890844	0.24278	9.52	7.63	51.8	-0.1809	0.2935	-0.409	
0.196298	-0.936838	0.239974	9.31	11.48	51.73	-0.1667	0.298	-0.4041	
0.19764	-0.942084	0.252784	10.22	15.68	53.55	-0.1668	0.3101	-0.4086	
0.208986	-0.935618	0.262178	9.59	19.39	56.56	-0.1597	0.3069	-0.4102	
0.209718	-0.959164	0.265716	8.05	23.94	59.36	-0.1512	0.313	-0.407	
0.169946	-0.957334	0.249856	8.54	28.21	62.93	-0.1398	0.3113	-0.4085	
0.174826	-0.942572	0.245342	8.68	34.86	63.42	-0.127	0.3125	-0.4178	
0.157014	-0.9455	0.247782	10.08	37.59	62.16	-0.1242	0.3107	-0.4335	
0.125294	-0.962946	0.260714	10.43	34.86	62.02	-0.1128	0.3152	-0.4286	
0.10492	-0.947574	0.263764	13.51	35.84	62.79	-0.0985	0.3076	-0.424	
0.1037	-0.942328	0.263642	14	38.08	65.38	-0.0843	0.3135	-0.4207	
0.078812	-0.933178	0.270474	14.49	40.04	67.13	-0.0729	0.3056	-0.4333	
0.032452	-0.934032	0.271328	12.74	41.44	68.74	-0.0573	0.3069	-0.4395	
-0.018422	-0.94672	0.272182	11.41	41.93	66.92	-0.0473	0.3098	-0.4378	
-0.03172	-0.959774	0.30378	12.32	42.84	64.05	-0.036	0.3127	-0.4377	
-0.018666	-0.929884	0.325496	15.82	45.71	65.59	-0.0218	0.3124	-0.4502	
-0.058194	-0.950502	0.315004	14.49	48.09	65.66	-0.013	0.3019	-0.4315	
-0.14213	-0.930128	0.306586	15.33	49	61.88	-0.006	0.3031	-0.4487	
-0.163968	-0.940742	0.299998	15.26	46.62	57.75	0.011	0.2998	-0.4533	
-0.162016	-0.938058	0.307928	15.68	42.28	57.26	0.0296	0.2951	-0.4518	
-0.172386	-0.923906	0.321104	16.1	39.83	59.92	0.038	0.3057	-0.4484	
-0.189466	-0.916952	0.323544	15.82	40.25	61.53	0.0409	0.298	-0.4532	
-0.199226	-0.905972	0.327326	14.98	41.09	63.42	0.0638	0.2979	-0.4406	
-0.228262	-0.878034	0.317566	13.09	41.3	65.73	0.0738	0.2872	-0.4408	
-0.243878	-0.851316	0.317566	11.27	41.51	66.85	0.0882	0.2747	-0.4487	
-0.265106	-0.845338	0.298656	9.17	42.21	65.38	0.1039	0.2715	-0.4471	
-0.309026	-0.820328	0.257176	9.24	39.27	64.96	0.1082	0.2715	-0.444	
-0.345504	-0.791292	0.261446	8.12	33.95	63.07	0.121	0.2715	-0.4408	
-0.395036	-0.76616	0.257664	10.15	32.83	63.63	0.1324	0.2652	-0.4424	
-0.478606	-0.78385	0.29524	7.14	29.33	60.34	0.1353	0.2606	-0.444	
-0.542412	-0.851438	0.33062	8.4	27.3	58.52	0.1567	0.2557	-0.4503	
-0.542656	-0.790316	0.338916	16.31	29.61	59.71	0.1667	0.2619	-0.4392	
-0.543754	-0.715896	0.33367	14.28	28.35	55.37	0.174	0.2388	-0.4489	
-0.553392	-0.684054	0.312198	10.08	27.16	49.07	0.1783	0.242	-0.4379	
-0.5673	-0.697474	0.316224	5.11	28.07	40.88	0.1911	0.2388	-0.4394	
-0.582794	-0.730414	0.304512	2.87	27.37	34.72	0.2025	0.2341	-0.441	
-0.598288	-0.743102	0.295728	2.38	29.12	29.4	0.2096	0.2385	-0.4456	
-0.60695	-0.738222	0.281698	1.82	29.26	27.3	0.2097	0.2296	-0.4333	
-0.623786	-0.745054	0.266692	1.68	29.96	26.95	0.2155	0.2251	-0.4239	
-0.658312	-0.743346	0.257176	4.2	31.15	24.5	0.2169	0.2219	-0.4318	
-0.699426	-0.73627	0.247294	5.74	27.65	20.44	0.2298	0.2202	-0.4333	
-0.69967	-0.734806	0.240584	7.21	26.18	18.9	0.2341	0.2188	-0.4255	
-0.690032	-0.736026	0.249002	8.33	24.15	18.62	0.2355	0.2233	-0.4254	
-0.712602	-0.724436	0.243756	6.79	18.34	18.06	0.2398	0.2157	-0.4224	
-0.730902	-0.70882	0.235582	7.49	15.12	14.21	0.2498	0.2125	-0.4255	
-0.709308	-0.688324	0.25681	6.65	14.7	13.44	0.2512	0.2217	-0.4223	
-0.7442	-0.681004	0.25315	5.53	11.06	12.67	0.2526	0.2185	-0.427	
-0.746274	-0.66856	0.253028	3.85	5.67	10.64	0.2514	0.2066	-0.4131	
-0.734318	-0.669414	0.258762	2.73	2.87	7.63	0.2541	0.211	-0.4255	
-0.73383	-0.67039	0.26291	3.08	-0.77	3.64	0.2613	0.2018	-0.421	
-0.752862	-0.661728	0.276452	3.36	-3.08	0.42	0.2485	0.2019	-0.4257	
-0.756034	-0.65636	0.274744	3.5	-7.56	-2.87	0.2513	0.2034	-0.4241	
-0.750666	-0.655506	0.282918	3.15	-10.57	-7	0.257	0.2034	-0.4225	
-0.711992	-0.669292	0.29463	3.15	-10.71	-10.99	0.2471	0.1974	-0.4242	
-0.68991	-0.672952	0.308782	3.29	-9.17	-14.63	0.2385	0.205	-0.4288	
-0.69906	-0.673562	0.310002	2.17	-9.73	-18.13	0.2456	0.2035	-0.4241	
-0.718458	-0.667828	0.308904	0.91	-10.71	-21.56	0.2455	0.211	-0.4303	
-0.703818	-0.655506	0.321104	-1.19	-12.95	-26.32	0.2356	0.2065	-0.4319	
-0.690032	-0.670268	0.321226	-4.06	-15.68	-30.31	0.2355	0.2156	-0.4334	
-0.686006	-0.688324	0.305732	-7.35	-19.46	-33.81	0.2283	0.2202	-0.4333	
-0.687592	-0.699548	0.293654	-8.19	-21.56	-38.08	0.227	0.2172	-0.4318	
-0.671976	-0.695522	0.292556	-7.98	-24.15	-42.42	0.217	0.2173	-0.4365	
-0.655628	-0.6954	0.284992	-7.63	-27.58	-48.72	0.2127	0.2189	-0.4319	
-0.623542	-0.720898	0.296826	-8.68	-32.55	-53.69	0.2182	0.234	-0.4363	
-0.585478	-0.76311	0.308416	-8.33	-33.11	-54.74	0.1954	0.2372	-0.4395	
-0.549244	-0.76311	0.304756	-2.8	-31.85	-58.38	0.1939	0.2464	-0.4346	
-0.532042	-0.759694	0.30195	-3.36	-32.2	-61.11	0.1826	0.2357	-0.4458	
-0.48922	-0.775066	0.303658	-5.32	-34.3	-62.79	0.1696	0.2528	-0.4362	
-0.442616	-0.790438	0.310612	-6.86	-36.54	-63.84	0.1552	0.2619	-0.4455	
-0.40077	-0.801662	0.31476	-7.91	-38.43	-63.63	0.1438	0.2619	-0.4534	
-0.363072	-0.826794	0.3172	-7.56	-37.24	-61.88	0.1339	0.2591	-0.4472	
-0.32818	-0.848754	0.324032	-7.07	-34.51	-59.36	0.1268	0.2576	-0.4488	
-0.303902	-0.868518	0.33916	-4.69	-30.31	-57.05	0.1151	0.2804	-0.4563	
-0.30256	-0.86376	0.342332	-6.51	-29.82	-58.03	0.1053	0.2698	-0.4597	
-0.274134	-0.891088	0.327814	-10.01	-31.43	-59.99	0.0982	0.2763	-0.4408	
-0.22631	-0.956846	0.323544	-10.92	-32.27	-59.22	0.0967	0.2763	-0.4424	
-0.17873	-0.976	0.32452	-8.96	-31.43	-57.89	0.0825	0.2732	-0.4519	
-0.124318	-0.945866	0.314638	-7.21	-29.33	-56.7	0.0595	0.2917	-0.4533	
-0.072102	-0.91134	0.296582	-6.09	-28.91	-55.65	0.0695	0.2855	-0.4518	
-0.043554	-0.900604	0.298412	-7.7	-29.96	-55.09	0.051	0.2888	-0.4471	
-0.016836	-0.906338	0.300974	-8.54	-30.03	-55.65	0.0439	0.2936	-0.4424	
0.001464	-0.91378	0.31049	-8.19	-31.71	-56.77	0.0382	0.2874	-0.4534	
-0.00244	-0.920246	0.308904	-7.84	-32.55	-56.98	0.0252	0.3027	-0.4532	
-0.01098	-0.925004	0.295484	-7.63	-33.81	-57.68	0.0096	0.2998	-0.4549	
0.007929999	-0.945866	0.29768	-6.79	-33.53	-57.4	-0.006	0.3017	-0.4456	
0.023546	-0.945622	0.305732	-5.18	-33.11	-56.14	-0.0145	0.294	-0.4567	
0.043066	-0.92293	0.314028	-4.76	-33.11	-51.87	-0.0287	0.2928	-0.4443	
0.069296	-0.926956	0.308904	-7	-31.15	-48.65	-0.0415	0.2974	-0.4521	
0.073322	-0.962092	0.318908	-9.1	-28.98	-48.02	-0.0516	0.3036	-0.4473	
0.04392	-0.984784	0.318908	-7.63	-27.09	-46.83	-0.0601	0.3023	-0.4427	
0.034892	-0.988932	0.305976	-4.9	-25.2	-44.1	-0.0643	0.2963	-0.4412	
0.04087	-0.971364	0.294752	-2.45	-22.05	-42	-0.0729	0.3025	-0.438	
0.043798	-0.946232	0.277184	-0.77	-21.49	-41.23	-0.0885	0.295	-0.4414	
0.052948	-0.94184	0.2684	-1.19	-22.68	-40.88	-0.0872	0.3057	-0.4396	
0.05795	-0.935984	0.278404	0.28	-24.43	-40.53	-0.0942	0.2951	-0.4398	
0.070516	-0.938912	0.287188	1.4	-27.65	-41.51	-0.1013	0.3015	-0.4497	
0.100528	-0.914878	0.290238	4.2	-28.91	-42.21	-0.1055	0.2969	-0.4289	
0.12078	-0.875716	0.300852	4.34	-30.94	-42.42	-0.1197	0.291	-0.4306	
0.151402	-0.82838	0.318908	0.21	-31.99	-45.22	-0.1254	0.2879	-0.4338	
0.18971	-0.791902	0.305	-5.18	-32.97	-49.14	-0.134	0.2895	-0.4401	
0.220576	-0.776652	0.291458	-9.87	-33.6	-53.06	-0.1368	0.285	-0.4355	
0.24522	-0.808006	0.278526	-13.23	-36.4	-56.49	-0.1623	0.2824	-0.4247	
0.260104	-0.832284	0.26718	-13.93	-40.11	-60.83	-0.1609	0.284	-0.4184	
0.29768	-0.832894	0.262422	-14.7	-43.68	-63.42	-0.1752	0.2872	-0.4169	
0.360754	-0.830088	0.245464	-18.97	-47.95	-69.86	-0.188	0.2858	-0.4216	
0.430904	-0.850096	0.2318	-18.76	-46.06	-73.99	-0.2007	0.2768	-0.4203	
0.42578	-0.84485	0.206424	-15.75	-37.94	-75.81	-0.2121	0.2878	-0.4076	
0.406748	-0.891942	0.17507	-17.64	-31.22	-80.01	-0.2219	0.2667	-0.4049	
0.427122	-0.953308	0.185562	-17.78	-31.64	-78.61	-0.2332	0.2654	-0.3971	
0.498614	-0.949892	0.170922	-5.04	-32.34	-66.43	-0.2475	0.2686	-0.3972	
0.543144	-0.919758	0.170678	1.19	-37.31	-61.18	-0.2545	0.2611	-0.3942	
0.562542	-0.917318	0.165066	4.13	-33.88	-56.98	-0.2701	0.2538	-0.3881	
0.57035	-0.913414	0.15494	6.3	-31.29	-57.19	-0.2729	0.2493	-0.3851	
0.583526	-0.877302	0.154696	14.91	-31.85	-61.18	-0.2815	0.2508	-0.3882	
0.582062	-0.843508	0.160552	18.2	-30.38	-60.34	-0.2998	0.2405	-0.3822	
0.588894	-0.821548	0.156282	20.23	-32.9	-57.12	-0.3026	0.2346	-0.3698	
0.602558	-0.801418	0.159576	25.41	-32.83	-51.66	-0.3011	0.2238	-0.3793	
0.58987	-0.726144	0.147986	32.55	-33.18	-47.88	-0.3096	0.2178	-0.3795	
0.62342	-0.664534	0.160918	29.96	-37.52	-47.88	-0.3237	0.2135	-0.3749	
0.66612	-0.651114	0.171654	24.15	-40.46	-45.43	-0.3223	0.2027	-0.386	
0.727364	-0.677466	0.198372	16.73	-45.71	-40.25	-0.335	0.2015	-0.3736	
0.776896	-0.677344	0.213134	12.32	-44.59	-33.04	-0.3434	0.1926	-0.3644	
0.80764	-0.659898	0.195688	7.35	-41.09	-29.89	-0.3591	0.1912	-0.366	
0.790316	-0.655262	0.1891	5.11	-32.13	-33.25	-0.3533	0.1806	-0.3646	
0.777018	-0.65148	0.171532	2.03	-35.28	-33.6	-0.3546	0.1744	-0.3694	
0.777384	-0.655506	0.167628	0.7	-37.94	-30.03	-0.3688	0.1687	-0.3586	
0.776774	-0.663436	0.162138	-1.47	-35.35	-28.49	-0.3673	0.1643	-0.3431	
0.794708	-0.65514	0.137616	1.82	-33.95	-29.75	-0.3758	0.1614	-0.3447	
0.835334	-0.654408	0.12261	3.15	-33.53	-33.6	-0.3815	0.1646	-0.3369	
0.86193	-0.662948	0.12261	4.9	-28.91	-32.2	-0.3843	0.1631	-0.3338	
0.852658	-0.660264	0.114314	7.56	-24.57	-31.92	-0.3827	0.1541	-0.3261	
0.847656	-0.63501	0.11346	11.83	-22.47	-30.66	-0.3998	0.145	-0.3101	
0.84973	-0.626958	0.115412	13.02	-21.14	-28.42	-0.3897	0.1374	-0.3326	
0.860954	-0.636718	0.116998	13.3	-17.85	-26.39	-0.4068	0.1361	-0.3265	
0.920368	-0.624152	0.155428	12.04	-14.21	-17.08	-0.4053	0.1284	-0.3313	
0.95099	-0.590724	0.133712	11.06	-6.79	-8.61	-0.4108	0.1165	-0.319	
0.976366	-0.596336	0.063074	10.22	0.77	-3.15	-0.4052	0.1256	-0.3188	
0.921588	-0.550708	0.188246	-4.55	6.3	7.84	-0.4137	0.1179	-0.3299	
0.888648	-0.631472	0.149206	1.4	14.07	12.11	-0.401	0.1223	-0.3329	
0.88755	-0.609634	0.112362	-1.05	13.44	21.7	-0.4039	0.1299	-0.3328	
0.894992	-0.598776	0.100284	-3.15	16.38	27.23	-0.4011	0.1361	-0.3233	
0.87535	-0.640622	0.115778	-6.23	19.81	33.53	-0.3938	0.1253	-0.3282	
0.868884	-0.652578	0.122244	-6.37	17.92	40.95	-0.3927	0.1466	-0.3309	
0.865102	-0.645014	0.119804	-7.21	24.01	46.41	-0.3898	0.1511	-0.3277	
0.85583	-0.631106	0.115168	-5.67	27.02	54.04	-0.3899	0.154	-0.3386	
0.842776	-0.636474	0.118828	-3.08	27.51	57.4	-0.3813	0.1525	-0.3339	
0.820938	-0.650626	0.124196	-1.12	29.05	60.55	-0.3801	0.1644	-0.3478	
0.795684	-0.670756	0.13054	-2.38	31.57	64.26	-0.3702	0.1796	-0.3397	
0.766526	-0.694302	0.133102	-2.03	33.81	67.13	-0.3534	0.1943	-0.3582	
0.736392	-0.701866	0.143838	-1.26	35	68.95	-0.3533	0.1897	-0.3613	
0.706502	-0.711504	0.146278	-1.54	34.51	70.21	-0.3506	0.1989	-0.3581	
0.696986	-0.724802	0.14396	-1.05	33.46	72.24	-0.3323	0.2136	-0.3734	
0.671732	-0.730658	0.143594	1.05	34.93	72.45	-0.3252	0.2166	-0.3733	
0.63074	-0.742736	0.174948	0.42	38.36	72.73	-0.3224	0.2212	-0.3685	
0.593896	-0.751398	0.181414	0.56	36.96	71.68	-0.3126	0.2315	-0.3808	
0.56669	-0.75457	0.18361	-1.82	38.22	73.22	-0.3069	0.2359	-0.387	
0.523868	-0.795684	0.197274	-0.35	38.92	70.7	-0.287	0.2372	-0.3916	
0.481778	-0.817766	0.221796	1.68	35.7	68.11	-0.2772	0.2554	-0.3834	
0.453352	-0.837164	0.231678	-1.96	34.37	63.91	-0.2672	0.2522	-0.3897	
0.435418	-0.863028	0.236314	0.07	33.18	61.32	-0.2588	0.2644	-0.3832	
0.350262	-0.87779	0.239364	0.28	33.18	61.81	-0.2489	0.2608	-0.4067	
0.30622	-0.877424	0.244366	-0.56	31.43	57.89	-0.2333	0.2668	-0.4018	
0.299876	-0.878644	0.254004	-2.03	29.89	53.55	-0.2306	0.2849	-0.4109	
0.288896	-0.907436	0.261202	-7.07	22.82	50.75	-0.2191	0.2757	-0.4079	
0.314272	-0.912194	0.24217	-4.27	19.46	49.14	-0.2193	0.2926	-0.3982	
0.284016	-0.907192	0.245342	1.4	22.75	50.47	-0.205	0.2816	-0.4077	
0.228262	-0.896944	0.208498	5.74	29.68	51.17	-0.195	0.2861	-0.4045	
0.18483	-0.936106	0.196054	4.69	33.18	50.47	-0.1894	0.2935	-0.4121	
0.201178	-1.007476	0.2623	7.91	37.38	48.93	-0.1794	0.2842	-0.4169	
0.189832	-0.97295	0.291214	11.69	40.53	48.44	-0.1652	0.2857	-0.4137	
0.192638	-0.91317	0.297314	9.94	36.19	49.49	-0.1525	0.2991	-0.4228	
0.192638	-0.880962	0.293288	6.79	32.13	52.92	-0.1497	0.302	-0.4259	
0.185562	-0.90646	0.279746	6.16	31.57	58.8	-0.1454	0.2975	-0.4213	
0.148596	-0.893772	0.277794	6.58	33.67	62.72	-0.1213	0.3063	-0.421	
0.144936	-0.927566	0.28304	4.48	33.53	63.98	-0.1184	0.3001	-0.4289	
0.115412	-0.94489	0.287676	3.92	32.55	63.7	-0.1085	0.3061	-0.4272	
0.122854	-0.929274	0.277916	2.03	29.96	65.45	-0.1056	0.3029	-0.4382	
0.12749	-0.906216	0.294508	3.64	32.9	68.88	-0.0801	0.3164	-0.4316	
0.084058	-0.925126	0.28731	0.77	33.53	67.41	-0.0815	0.3101	-0.4442	
0.04697	-0.935862	0.299754	1.75	35.56	65.73	-0.0587	0.3115	-0.4378	
0.007686	-0.919026	0.29585	2.03	36.75	64.33	-0.0615	0.3086	-0.4316	
-0.022082	-0.92049	0.294752	-0.63	38.5	64.47	-0.0459	0.3067	-0.4394	
-0.066002	-0.93818	0.288774	-0.7	39.2	64.89	-0.0288	0.3159	-0.4283	
-0.102236	-0.95099	0.29463	2.38	37.59	66.99	-0.0131	0.3063	-0.4424	
-0.133468	-0.936838	0.284626	5.11	37.45	69.09	-0.0032	0.311	-0.4314	
-0.160552	-0.941108	0.272426	4.69	37.52	68.46	0.0109	0.3138	-0.4328	
-0.190564	-0.918416	0.273036	6.86	38.36	67.97	0.0152	0.3091	-0.4376	
-0.218258	-0.893894	0.27633	8.54	38.43	68.74	0.048	0.3042	-0.4406	
-0.262422	-0.906582	0.268888	6.79	37.38	64.68	0.0567	0.2997	-0.4297	
-0.282552	-0.919514	0.250222	9.03	34.51	59.57	0.0695	0.2949	-0.4328	
-0.29524	-0.919148	0.253882	14	31.43	55.72	0.07229999	0.2979	-0.4343	
-0.313418	-0.880718	0.264984	20.65	29.75	52.92	0.0781	0.2886	-0.4454	
-0.341234	-0.83387	0.265838	23.66	27.23	50.61	0.09519999	0.2884	-0.4438	
-0.360388	-0.813008	0.296094	23.45	25.97	49.7	0.1066	0.2837	-0.4454	
-0.4026	-0.791536	0.299754	22.68	26.39	48.51	0.1123	0.2806	-0.4485	
-0.426146	-0.802882	0.303658	19.46	26.67	46.06	0.1281	0.2713	-0.447	
-0.447008	-0.7991	0.332084	19.04	28.84	47.11	0.1309	0.2697	-0.4502	
-0.50203	-0.787876	0.307562	17.85	31.5	47.74	0.1294	0.2788	-0.4485	
-0.533628	-0.780434	0.31598	14.35	31.92	45.99	0.1383	0.2499	-0.4489	
-0.55266	-0.780556	0.31049	10.15	30.94	44.59	0.1453	0.2636	-0.4408	
-0.573034	-0.775432	0.301462	7.07	28.35	41.3	0.1554	0.2482	-0.4457	
-0.564738	-0.758962	0.303414	5.32	26.39	38.85	0.1696	0.2511	-0.4456	
-0.556564	-0.742492	0.312076	3.08	25.55	35.07	0.1582	0.2482	-0.4441	
-0.551806	-0.726632	0.310246	1.96	24.43	31.22	0.1753	0.2511	-0.4378	
-0.546194	-0.7381	0.31415	-1.26	22.19	27.09	0.1739	0.245	-0.4426	
-0.57828	-0.793122	0.277306	-3.36	20.37	22.96	0.1853	0.2478	-0.4534	
-0.648674	-0.798246	0.271328	-0.63	18.55	16.24	0.1826	0.2405	-0.4332	
-0.646112	-0.764696	0.280966	2.03	18.83	13.79	0.1996	0.2402	-0.4378	
-0.623786	-0.746762	0.28914	3.15	18.41	12.32	0.1983	0.2357	-0.4348	
-0.61854	-0.743834	0.293044	2.73	17.78	8.54	0.1925	0.2404	-0.4316	
-0.612928	-0.755302	0.298046	0.84	15.33	4.97	0.1925	0.2404	-0.4316	
-0.612684	-0.761036	0.28548	0.77	14.28	1.4	0.2012	0.2298	-0.4239	
-0.613416	-0.747494	0.293288	1.4	14.28	-0.84	0.204	0.2327	-0.4332	
-0.627324	-0.739076	0.29524	0.42	13.65	-2.31	0.201	0.2479	-0.4314	
-0.625982	-0.744688	0.289628	-1.82	12.6	-4.62	0.2139	0.2432	-0.433	
-0.63013	-0.753838	0.285236	-3.01	11.48	-7.63	0.2154	0.2388	-0.4221	
-0.634522	-0.741272	0.279746	-2.8	10.15	-10.85	0.2025	0.2388	-0.4285	
-0.624152	-0.741272	0.278526	-3.01	8.82	-12.74	0.2182	0.2419	-0.4158	
-0.630374	-0.74481	0.281332	-3.78	7.63	-15.61	0.2111	0.2449	-0.4205	
-0.621468	-0.751764	0.300608	-5.74	6.3	-18.06	0.2053	0.2526	-0.422	
-0.610244	-0.76067	0.285236	-7.42	4.06	-20.09	0.2081	0.2572	-0.4141	
-0.630252	-0.768722	0.26169	-9.24	-0.49	-22.96	0.1969	0.2407	-0.4128	
-0.648552	-0.773968	0.240218	-9.24	-6.51	-26.53	0.2039	0.2497	-0.4126	
-0.638426	-0.777506	0.23058	-7.98	-10.78	-29.12	0.1953	0.2512	-0.4205	
-0.610488	-0.789706	0.240462	-6.23	-11.27	-31.01	0.1982	0.2482	-0.4158	
-0.607804	-0.796416	0.244366	-5.04	-12.32	-33.53	0.1881	0.2618	-0.4297	
-0.605852	-0.788608	0.249612	-3.92	-14.7	-35.98	0.1852	0.2601	-0.4391	
-0.591212	-0.77653	0.244122	-3.71	-17.85	-38.22	0.1752	0.2712	-0.4171	
-0.57889	-0.781898	0.251198	-4.55	-20.51	-41.09	0.1723	0.2727	-0.4234	
-0.560956	-0.786412	0.253394	-5.11	-23.24	-43.68	0.1695	0.2699	-0.4109	
-0.531676	-0.792512	0.253028	-6.16	-26.6	-45.43	0.1666	0.2758	-0.4202	
-0.504104	-0.791048	0.24766	-6.23	-30.66	-47.81	0.1523	0.2791	-0.4155	
-0.48739	-0.786046	0.246806	-5.95	-38.22	-52.57	0.1466	0.279	-0.4234	
-0.45567	-0.789218	0.254126	-6.51	-43.96	-56.42	0.1323	0.2867	-0.4264	
-0.406382	-0.806054	0.254614	-6.58	-45.15	-59.5	0.1237	0.2868	-0.4296	
-0.356728	-0.800808	0.244244	-7.7	-43.4	-64.33	0.1094	0.2945	-0.4342	
-0.304512	-0.798124	0.249856	-14.84	-39.13	-68.88	0.0951	0.2991	-0.4389	
-0.214232	-0.874374	0.292678	-15.82	-31.85	-72.45	0.0894	0.3054	-0.4279	
-0.191418	-0.937692	0.274256	-18.62	-32.9	-72.24	0.0794	0.304	-0.428	
-0.152744	-0.987224	0.239608	-21	-33.95	-72.38	0.0665	0.3164	-0.42	
-0.100162	-0.990274	0.215086	-21.14	-35.77	-73.29	0.058	0.3087	-0.4374	
-0.06893	-0.969778	0.205692	-24.01	-33.95	-73.92	0.0351	0.3213	-0.4232	
-0.0244	-0.968192	0.190808	-24.71	-31.5	-75.25	0.0266	0.3154	-0.4186	
-0.00366	-0.973926	0.18239	-20.3	-31.15	-75.53	0.0124	0.3201	-0.4202	
0.007686	-0.97356	0.193858	-14.49	-34.09	-76.51	-0.0004	0.3217	-0.4202	
0.044896	-0.971852	0.2013	-8.33	-36.26	-76.44	-0.0174	0.3236	-0.4109	
0.063562	-0.966606	0.184952	-2.38	-36.96	-74.27	-0.0204	0.3296	-0.4171	
0.071492	-0.972584	0.19337	1.19	-38.15	-72.17	-0.0346	0.3237	-0.4157	
0.101504	-0.981124	0.199348	1.54	-38.29	-71.4	-0.0502	0.3225	-0.4064	
0.137494	-0.98637	0.2074	0.77	-37.17	-68.32	-0.0729	0.3213	-0.4049	
0.162382	-0.971852	0.20679	-0.42	-31.5	-65.73	-0.0801	0.3289	-0.4064	
0.195444	-0.960994	0.205448	-2.52	-29.54	-61.95	-0.0888	0.3381	-0.411	
0.224602	-0.974902	0.201666	-3.92	-28.49	-57.61	-0.0958	0.3245	-0.4097	
0.22936	-0.991738	0.185562	-4.06	-27.09	-52.57	-0.1043	0.3276	-0.4097	
0.229604	-0.987834	0.185928	-3.99	-26.46	-47.95	-0.1087	0.3322	-0.4112	
0.240706	-0.986858	0.177022	-4.76	-24.5	-42.63	-0.13	0.3293	-0.416	
0.256688	-0.991006	0.164334	-4.9	-25.13	-37.59	-0.1342	0.3203	-0.4146	
0.281088	-0.99125	0.178364	-4.27	-26.6	-30.94	-0.1399	0.3205	-0.4052	
0.310734	-1.015162	0.204838	-4.13	-28.49	-22.68	-0.1441	0.3191	-0.4006	
0.317322	-1.00894	0.202642	-0.91	-25.97	-15.54	-0.1498	0.3176	-0.3991	
0.344406	-0.980636	0.20801	0.91	-24.92	-10.29	-0.1583	0.3131	-0.4007	
0.362828	-0.973804	0.209474	1.75	-21.56	-7.07	-0.161	0.3041	-0.3993	
0.353678	-0.974292	0.224724	3.29	-19.11	-3.57	-0.1668	0.3164	-0.3945	
0.359168	-0.951234	0.247904	5.6	-16.31	2.17	-0.1683	0.3195	-0.3913	
0.347334	-0.943792	0.249246	5.95	-13.16	5.18	-0.1725	0.3133	-0.3977	
0.339038	-0.942694	0.257176	5.25	-11.06	6.72	-0.1639	0.3103	-0.3914	
0.34343	-0.925614	0.240218	4.9	-10.85	7.21	-0.1711	0.3164	-0.3929	
0.33916	-0.912316	0.269254	7.56	-8.68	7.77	-0.1626	0.3178	-0.3991	
0.339282	-0.92232	0.265472	8.4	-7.7	7.21	-0.178	0.3013	-0.3916	
0.32452	-0.915366	0.262178	7.77	-5.88	7.91	-0.164	0.3132	-0.3992	
0.309392	-0.916952	0.261202	6.51	-2.66	7.42	-0.1711	0.3179	-0.3976	
0.303536	-0.913048	0.264008	5.25	-1.89	5.74	-0.1696	0.3103	-0.3946	
0.29768	-0.913292	0.260714	4.27	-0.14	5.25	-0.1653	0.3073	-0.3868	
0.290116	-0.910364	0.250344	2.94	2.31	5.46	-0.1682	0.3133	-0.3992	
0.273402	-0.910242	0.245586	1.47	4.83	5.53	-0.1596	0.3102	-0.393	
0.262544	-0.925614	0.241072	-0.63	6.16	5.25	-0.164	0.3176	-0.4085	
0.24644	-0.935008	0.23729	-1.54	6.58	5.18	-0.1668	0.3103	-0.3961	
0.239486	-0.952088	0.23485	-2.59	6.51	5.25	-0.1639	0.3117	-0.3992	
0.228018	-0.95099	0.230092	-1.68	7.21	5.67	-0.1596	0.3086	-0.4008	
0.217526	-0.950502	0.226676	-1.54	6.02	6.58	-0.1526	0.3177	-0.3944	
0.212158	-0.960262	0.22631	-0.91	4.76	6.16	-0.1512	0.313	-0.407	
0.204106	-0.956846	0.218746	0	4.34	6.23	-0.1583	0.3162	-0.3976	
0.193126	-0.958798	0.219966	-0.14	3.78	6.09	-0.1568	0.3115	-0.4055	
0.192394	-0.958676	0.217892	0.07	2.52	5.46	-0.1484	0.3223	-0.3927	
0.193126	-0.967704	0.221064	0	1.19	5.32	-0.1497	0.3145	-0.4022	
0.18727	-0.968558	0.223138	0.98	0.77	5.81	-0.1597	0.3146	-0.4039	
0.187148	-0.9638	0.22326	1.54	0.49	6.3	-0.1483	0.3146	-0.3991	
0.1891	-0.964044	0.221674	1.75	0.42	6.09	-0.1525	0.3085	-0.3992	
0.190198	-0.95831	0.225212	2.31	0.49	5.39	-0.1568	0.3055	-0.404	
0.19215	-0.949526	0.229604	2.8	0.14	4.83	-0.1525	0.3039	-0.4024	
0.191906	-0.94367	0.22997	2.94	0.42	4.62	-0.1455	0.316	-0.4006	
0.19215	-0.953064	0.237046	2.03	-0.28	4.06	-0.1442	0.3235	-0.4068	
0.19215	-0.959896	0.236436	1.82	-0.84	3.08	-0.1583	0.3161	-0.4069	
0.194956	-0.953064	0.236924	1.89	-0.77	3.01	-0.1483	0.3084	-0.4055	
0.204716	-0.945012	0.232044	1.33	0	2.73	-0.1497	0.31	-0.3992	
0.19947	-0.9455	0.226432	0.77	1.26	2.03	-0.1454	0.3114	-0.4038	
0.196786	-0.949282	0.230824	0.91	1.96	1.12	-0.1497	0.3086	-0.3961	
0.199836	-0.955504	0.23058	1.19	2.24	0.42	-0.1569	0.3192	-0.4006	
0.201056	-0.958554	0.228628	2.45	2.45	-0.77	-0.1426	0.3144	-0.4038	
0.205814	-0.95343	0.23851	3.15	3.15	-1.19	-0.1455	0.319	-0.4068	
0.21655	-0.952942	0.240096	3.08	4.13	-0.07	-0.1554	0.3115	-0.4039	
0.21106	-0.948184	0.242536	2.8	5.95	0.84	-0.1398	0.3189	-0.4084	
0.202886	-0.947696	0.244366	2.66	6.86	0.7	-0.1426	0.3114	-0.4054	
0.198738	-0.948428	0.23851	2.38	8.82	1.47	-0.1412	0.316	-0.3991	
0.196298	-0.949038	0.23241	2.24	9.8	1.47	-0.1483	0.3144	-0.4085	
0.192394	-0.963068	0.233264	2.03	9.73	1.26	-0.1369	0.3144	-0.4038	
0.183244	-0.965874	0.23485	2.66	9.52	1.47	-0.1439	0.3022	-0.4087	
0.1769	-0.966484	0.235704	3.43	8.82	2.1	-0.1341	0.3174	-0.4021	
0.172874	-0.957944	0.240462	4.34	7.21	2.87	-0.1413	0.3203	-0.4162	
0.177754	-0.944768	0.242414	4.69	5.18	3.71	-0.1298	0.3112	-0.41	
0.182634	-0.94245	0.24644	4.06	3.71	4.06	-0.1369	0.3097	-0.4101	
0.174216	-0.945622	0.25071	3.5	2.38	3.22	-0.1298	0.3127	-0.4116	
0.17141	-0.947574	0.254004	2.94	1.05	3.22	-0.1313	0.3127	-0.4116	
0.173972	-0.949404	0.25925	2.87	-0.49	3.78	-0.1355	0.3111	-0.4147	
0.180804	-0.944646	0.259494	3.36	-2.31	4.2	-0.1383	0.3021	-0.4133	
0.186294	-0.949282	0.261812	3.01	-3.15	3.29	-0.1327	0.3157	-0.4131	
0.187514	-0.945744	0.265716	3.22	-1.82	2.38	-0.1326	0.3067	-0.4085	
0.185928	-0.942694	0.272426	3.43	-0.35	2.52	-0.1254	0.2989	-0.4165	
0.185562	-0.942938	0.273036	2.8	0.7	2.66	-0.1326	0.3066	-0.4117	
0.181658	-0.940742	0.27511	2.8	1.54	2.66	-0.1341	0.3065	-0.4179	
0.17812	-0.941474	0.278892	2.73	1.82	2.31	-0.1313	0.3079	-0.4257	
0.179218	-0.937448	0.27999	2.52	2.1	1.68	-0.1327	0.3096	-0.4163	
0.177754	-0.936472	0.281576	1.89	2.94	0.84	-0.1369	0.302	-0.4165	
0.169702	-0.938058	0.281942	1.4	3.43	0.35	-0.1369	0.3081	-0.4148	
0.167628	-0.938546	0.279136	1.12	3.36	0.49	-0.1255	0.3019	-0.4164	
0.164212	-0.94062	0.276696	0.7	3.01	0.63	-0.1327	0.3095	-0.4194	
0.164212	-0.94184	0.276086	0.35	2.38	0.7	-0.1398	0.3096	-0.4226	
0.166774	-0.947818	0.274134	0.21	2.31	0.14	-0.1213	0.3079	-0.4179	
0.157868	-0.947208	0.272792	0.42	2.59	0	-0.1283	0.305	-0.4164	
0.152012	-0.948794	0.271328	-0.28	2.17	0.77	-0.1212	0.3049	-0.4163	
0.155916	-0.94611	0.271572	-0.14	1.05	1.4	-0.1313	0.3093	-0.4335	
0.156892	-0.943792	0.2684	0.49	0.14	1.33	-0.1228	0.3156	-0.4146	
0.154208	-0.949648	0.267912	0.56	-0.98	0.77	-0.1255	0.3063	-0.4241	
0.154086	-0.952698	0.268034	0.77	-1.68	0.28	-0.127	0.3079	-0.4241	
0.156892	-0.951966	0.270474	1.19	-2.03	0.14	-0.1299	0.3125	-0.4194	
0.158234	-0.950136	0.272792	1.47	-2.38	0.42	-0.1255	0.3034	-0.4164	
0.161284	-0.94306	0.274256	1.82	-2.45	0.42	-0.1211	0.2974	-0.4102	
0.16836	-0.938912	0.27877	1.54	-2.59	0.35	-0.1384	0.3095	-0.4242	
0.171166	-0.937936	0.276208	1.4	-2.24	-0.21	-0.1326	0.3035	-0.4148	
0.173362	-0.939034	0.277794	1.19	-2.1	-1.12	-0.1298	0.308	-0.4163	
0.172508	-0.942328	0.278404	0.7	-0.7	-2.24	-0.1342	0.3157	-0.4162	
0.172996	-0.94123	0.27755	0.35	-0.14	-2.59	-0.1341	0.308	-0.421	
0.17873	-0.936228	0.277672	-0.07	0.07	-2.94	-0.1282	0.2944	-0.4087	
0.180072	-0.940986	0.277794	-0.49	0.56	-3.08	-0.1284	0.3034	-0.4226	
0.180682	-0.940132	0.274256	-0.49	1.12	-3.64	-0.127	0.3094	-0.421	
0.181658	-0.941474	0.272426	-0.63	0.98	-3.92	-0.1254	0.2989	-0.4165	
0.179218	-0.949404	0.273768	-0.84	1.33	-4.13	-0.1369	0.3066	-0.4148	
0.176168	-0.951234	0.276452	-0.56	1.12	-3.92	-0.1283	0.3035	-0.4133	
0.181536	-0.942206	0.271694	0	2.1	-3.64	-0.134	0.3021	-0.4102	
0.181902	-0.944036	0.269986	-0.07	1.68	-4.2	-0.1369	0.305	-0.418	
0.18361	-0.950014	0.272304	0.07	1.4	-4.27	-0.1383	0.3021	-0.4149	
0.196176	-0.959042	0.282552	0.84	1.47	-5.32	-0.1412	0.3064	-0.432	
0.214476	-0.961604	0.294752	1.12	1.89	-6.58	-0.134	0.3019	-0.4227	
0.23546	-0.941352	0.30134	0.7	2.1	-6.37	-0.1397	0.3035	-0.4227	
0.289018	-0.958554	0.28731	-0.98	2.52	-4.9	-0.1312	0.308	-0.4179	
0.368928	-0.968924	0.330498	-1.47	2.8	-4.62	-0.1383	0.2958	-0.4244	
0.394792	-0.934276	0.407968	0.42	18.2	0.49	-0.1367	0.2898	-0.4182	
0.443836	-0.870348	0.427854	-3.71	38.15	7.63	-0.1355	0.2986	-0.4384	
0.448472	-0.819596	0.401502	-9.31	56.42	7.56	-0.1341	0.3065	-0.4164	
0.427732	-0.84607	0.334768	-14.35	72.17	4.48	-0.1227	0.3108	-0.4256	
0.341722	-0.887306	0.310002	-16.59	87.5	0.49	-0.1213	0.3093	-0.4288	
0.329034	-0.898896	0.32086	-19.11	100.17	-3.5	-0.09999999	0.3138	-0.4177	
0.299266	-0.887306	0.309026	-17.99	115.43	-7.14	-0.09429999	0.312	-0.4286	
0.265106	-0.921954	0.26474	-21	126.84	-9.38	-0.0716	0.3179	-0.4253	
0.223992	-0.925614	0.225334	-21.98	138.46	-11.97	-0.0658	0.3071	-0.4301	
0.18239	-0.923418	0.192028	-21.98	143.99	-14.56	-0.0473	0.313	-0.4315	
0.135664	-0.95831	0.173972	-21.7	147.14	-23.24	-0.026	0.3188	-0.4298	
0.122122	-0.978806	0.174704	-17.71	145.11	-28.49	-0.0189	0.3234	-0.4234	
0.123098	-0.983808	0.184952	-15.05	143.08	-30.59	-0.0019	0.3278	-0.4201	
0.091988	-1.012478	0.17141	-10.78	139.51	-30.8	0.015	0.3399	-0.4152	
0.030256	-1.015772	0.16104	-6.23	133.91	-30.03	0.0251	0.3307	-0.4153	
0.023912	-1.002474	0.188734	-4.2	127.68	-29.12	0.038	0.3292	-0.4012	
0.04026	-0.977098	0.24522	-3.99	120.26	-29.19	0.0465	0.3306	-0.4027	
0.072468	-0.961482	0.227652	-2.8	117.25	-26.39	0.055	0.335	-0.4057	
0.071858	-0.954772	0.22265	-3.43	112.21	-23.73	0.0621	0.3396	-0.3994	
-0.010248	-0.94916	0.204594	-5.46	112.07	-22.26	0.0592	0.3412	-0.3946	
-0.000732	-0.989908	0.219966	-9.45	104.86	-24.01	0.0777	0.3426	-0.3945	
0.01037	-1.005158	0.21716	-7.7	96.6	-26.11	0.075	0.3398	-0.3805	
0.05429	-0.986858	0.165188	-0.56	91.91	-23.17	0.0935	0.3396	-0.3805	
-0.05124	-0.975512	0.242414	-3.22	80.71	-22.33	0.1062	0.347	-0.3803	
0.022326	-0.989908	0.220454	-2.17	72.87	-20.02	0.1034	0.3486	-0.3787	
-0.01342	-0.988322	0.225334	-0.7	66.99	-18.55	0.109	0.3516	-0.3771	
-0.000976	-0.997228	0.225822	1.4	57.12	-17.5	0.1147	0.3623	-0.3691	
0.002928	-0.972706	0.217648	4.34	49.35	-16.66	0.1177	0.3456	-0.3678	
-0.000244	-0.96502	0.188246	8.61	43.75	-19.04	0.1148	0.3454	-0.3803	
-0.022326	-0.982222	0.200446	6.44	35.28	-17.85	0.1134	0.3517	-0.3645	
-0.022936	-0.979538	0.23668	9.31	27.58	-21.21	0.1077	0.3457	-0.3678	
0.002684	-0.957944	0.266204	10.08	21.07	-21.63	0.1219	0.3531	-0.3692	
0.022448	-0.915732	0.267058	8.82	14.07	-21.56	0.1176	0.3548	-0.3614	
0.030866	-0.9455	0.267912	6.44	11.06	-18.06	0.1148	0.3486	-0.3708	
0.01342	-0.965508	0.26901	4.06	5.11	-14.07	0.1161	0.3546	-0.3739	
0.044042	-0.972584	0.26657	2.1	-1.61	-6.58	0.0976	0.3564	-0.3677	
0.056608	-0.981856	0.277794	-0.28	-5.53	-1.96	0.1019	0.3579	-0.3645	
0.062342	-0.982588	0.280112	-0.14	-9.8	1.47	0.1048	0.3487	-0.3678	
0.060878	-0.974536	0.272792	0.07	-13.86	5.11	0.1048	0.3564	-0.3614	
0.050508	-0.972828	0.26901	-0.07	-18.06	7.84	0.109	0.3547	-0.3739	
0.04026	-0.963434	0.270718	-0.21	-23.38	9.73	0.1119	0.3579	-0.3629	
0.062342	-0.954406	0.294508	0.35	-28.28	11.06	0.1048	0.3487	-0.3678	
0.080398	-0.941718	0.292556	1.05	-32.48	12.67	0.0992	0.3473	-0.3647	
0.058072	-0.954772	0.287066	-0.07	-35.49	13.16	0.1019	0.3517	-0.3787	
0.024034	-0.95465	0.271694	0.21	-39.34	14.7	0.1076	0.3531	-0.3771	
-0.01281	-0.989298	0.245586	0.7	-47.32	12.67	0.1019	0.3563	-0.3755	
0.013298	-0.998082	0.257054	0.28	-57.26	9.73	0.0976	0.3577	-0.3817	
0.030378	-0.968192	0.242292	5.53	-64.68	12.04	0.0891	0.3456	-0.3851	
0.020252	-0.982466	0.239608	7.21	-73.5	16.66	0.0791	0.3457	-0.3898	
0.010492	-1.000034	0.226066	9.03	-80.64	19.81	0.0749	0.3396	-0.3899	
0.007929999	-0.999424	0.196298	13.02	-87.92	23.24	0.0762	0.3455	-0.4039	
0.038674	-0.957456	0.195688	16.38	-99.05	27.86	0.0721	0.3365	-0.3978	
0.07869	-0.976244	0.221064	16.66	-107.73	33.67	0.0606	0.3425	-0.4118	
0.067466	-1.00833	0.230092	17.22	-112.07	37.1	0.0536	0.3258	-0.4121	
0.057584	-1.002596	0.219478	20.09	-117.04	39.55	0.0436	0.3289	-0.4168	
0.09467199	-0.981978	0.230702	19.46	-123.13	40.53	0.0406	0.3396	-0.4166	
0.132858	-0.977098	0.239486	17.78	-124.18	44.17	0.0279	0.3305	-0.4215	
0.149328	-0.96075	0.2684	16.38	-124.95	46.13	0.0167	0.3139	-0.4234	
0.221064	-0.924638	0.310734	13.72	-126.7	45.78	0.0081	0.3153	-0.4119	
0.29646	-0.880962	0.351848	10.29	-120.75	42.98	0.0038	0.3123	-0.436	
0.305732	-0.888404	0.351848	5.25	-109.27	36.75	-0.0032	0.314	-0.4313	
0.27084	-0.920612	0.331108	0.42	-98.7	28.63	-0.0146	0.3094	-0.4136	
0.24095	-0.925614	0.302316	-0.49	-91.98	20.3	-0.0302	0.3081	-0.4362	
0.266204	-0.944402	0.302194	3.29	-81.55	10.64	-0.0388	0.3143	-0.4361	
0.252906	-0.919636	0.305976	9.38	-72.03	4.27	-0.0445	0.3143	-0.4409	
0.2318	-0.902068	0.283528	14.77	-63	1.12	-0.0559	0.3084	-0.4394	
0.204594	-0.88023	0.276696	18.34	-57.4	0.14	-0.0601	0.3039	-0.4364	
0.202642	-0.906826	0.289994	14.98	-53.62	-0.35	-0.0629	0.2994	-0.459	
0.185562	-0.944524	0.288408	14.49	-50.12	-2.66	-0.07009999	0.3086	-0.4123	
0.18666	-0.953186	0.283284	15.68	-50.26	-5.39	-0.0814	0.2995	-0.4413	
0.208132	-0.923174	0.296826	18.2	-48.79	-3.71	-0.0885	0.2979	-0.4507	
0.181414	-0.89548	0.284016	16.17	-44.73	-0.14	-0.0957	0.2996	-0.4444	
0.144082	-0.94672	0.297314	8.54	-42.77	5.81	-0.1041	0.2937	-0.443	
0.119682	-1.012722	0.265472	1.96	-46.2	11.2	-0.097	0.2982	-0.4382	
0.129198	-1.033828	0.221186	4.83	-49.28	16.73	-0.1084	0.2938	-0.4383	
0.12627	-1.063962	0.220698	7.7	-57.05	23.1	-0.104	0.2877	-0.4353	
0.12017	-1.05957	0.231922	13.16	-66.01	26.46	-0.1212	0.2893	-0.4432	
0.142252	-1.03334	0.2135	18.83	-72.38	33.95	-0.1139	0.2817	-0.4354	
0.168726	-1.034194	0.188002	21.98	-80.92	38.22	-0.1139	0.2817	-0.4354	
0.210084	-1.113616	0.214232	25.9	-88.2	40.18	-0.1226	0.2909	-0.44	
0.123586	-1.006988	0.262788	35.49	-89.67	49.91	-0.1369	0.294	-0.4416	
0.154452	-0.960872	0.248636	30.24	-97.72	63.28	-0.1425	0.288	-0.4401	
0.166652	-0.980636	0.259372	22.75	-108.71	73.57	-0.1425	0.288	-0.4401	
0.165066	-0.955138	0.262788	22.19	-115.64	80.85	-0.141	0.2836	-0.4324	
0.195322	-0.948672	0.275354	19.6	-122.15	81.55	-0.1567	0.2867	-0.4355	
0.207888	-0.944036	0.307074	17.92	-126	78.47	-0.1553	0.2898	-0.4308	
0.203984	-0.939034	0.308904	17.22	-124.32	75.18	-0.1624	0.2915	-0.4245	
0.192272	-0.947086	0.313906	18.06	-113.12	76.02	-0.1652	0.2917	-0.4152	
0.186416	-0.906948	0.334036	20.44	-109.27	74.48	-0.1767	0.301	-0.4151	
0.220332	-0.887184	0.355386	19.67	-101.22	70.77	-0.1681	0.2964	-0.4104	
0.210938	-0.908656	0.349652	18.83	-95.48	65.1	-0.1824	0.2996	-0.4104	
0.174948	-0.903288	0.401136	19.88	-91.35	60.06	-0.1681	0.2964	-0.4089	
0.132248	-0.908534	0.395036	14.91	-91.21	52.22	-0.1881	0.3027	-0.4073	
0.09638	-0.906094	0.386984	11.69	-89.67	48.3	-0.1809	0.2982	-0.4011	
0.073322	-0.92842	0.394792	10.01	-90.37	43.82	-0.1796	0.3119	-0.3977	
0.070516	-0.914756	0.391864	10.71	-88.06	40.95	-0.1952	0.303	-0.3932	
0.104066	-0.8906	0.396012	10.57	-83.72	39.2	-0.2038	0.3124	-0.3838	
0.122	-0.899872	0.392352	6.58	-80.36	39.2	-0.2052	0.3108	-0.3854	
0.064172	-0.988078	0.39101	-0.07	-79.24	28.56	-0.208	0.3126	-0.3744	
0.017202	-0.93818	0.372344	5.32	-74.27	19.88	-0.2093	0.3051	-0.3698	
0.050752	-0.853024	0.38003	10.08	-68.46	18.48	-0.2194	0.3158	-0.3681	
0.116998	-0.78934	0.41602	13.44	-53.06	18.97	-0.2208	0.3159	-0.3666	
0.133346	-0.824232	0.413946	8.68	-41.72	21.63	-0.2208	0.3128	-0.3651	
0.086742	-0.889502	0.414312	5.53	-33.95	15.19	-0.2266	0.322	-0.365	
0.088328	-0.859856	0.432368	6.79	-25.2	11.13	-0.225	0.3161	-0.3541	
0.124196	-0.824598	0.453596	6.3	-16.66	8.19	-0.2252	0.3266	-0.3393	
0.13542	-0.823744	0.447008	2.17	-7.28	4.55	-0.2236	0.316	-0.3588	
0.112362	-0.845338	0.425048	-2.73	-0.56	-0.91	-0.2222	0.316	-0.3557	
0.10492	-0.872788	0.40077	-3.43	7.21	-6.23	-0.2294	0.3237	-0.3603	
0.089304	-0.905972	0.399184	-5.11	11.9	-9.52	-0.2222	0.3159	-0.3635	
0.064782	-0.908534	0.37637	-4.69	15.75	-11.69	-0.2294	0.3206	-0.3619	
0.063562	-0.894382	0.366366	-3.92	17.64	-13.65	-0.2208	0.316	-0.3556	
0.073078	-0.901214	0.370514	-5.11	19.74	-15.47	-0.2207	0.3146	-0.3525	
0.106384	-0.89914	0.368928	-4.69	23.59	-18.97	-0.2308	0.319	-0.3681	
0.098088	-0.924394	0.362218	-4.83	25.76	-20.58	-0.2265	0.3114	-0.3636	
0.07991	-0.932934	0.379542	-3.57	28.63	-20.51	-0.2265	0.316	-0.3588	
0.08357	-0.920612	0.393816	-2.1	30.24	-19.88	-0.2294	0.3175	-0.3666	
0.096624	-0.919392	0.400038	-2.03	31.92	-20.3	-0.2308	0.3206	-0.365	
0.104432	-0.901702	0.410652	-2.24	34.23	-21.28	-0.2236	0.3144	-0.3666	
0.119804	-0.854976	0.417118	-2.94	37.73	-24.08	-0.2179	0.3082	-0.3698	
0.15982	-0.846558	0.389668	-4.62	43.47	-26.74	-0.2193	0.3082	-0.373	
0.164456	-0.907558	0.382592	-8.33	47.18	-30.59	-0.2235	0.3022	-0.3668	
0.148596	-0.940254	0.381738	-6.37	52.36	-33.6	-0.2207	0.2974	-0.3841	
0.133468	-0.917196	0.38552	-2.87	55.86	-34.86	-0.2206	0.2914	-0.3764	
0.137006	-0.892186	0.402844	-4.55	58.66	-34.44	-0.2151	0.3018	-0.3871	
0.169092	-0.85461	0.41663	-6.72	62.44	-35.91	-0.2149	0.282	-0.3874	
0.194834	-0.80398	0.37698	-9.17	68.46	-37.31	-0.2051	0.2954	-0.3997	
0.188856	-0.849974	0.339404	-14.42	73.5	-39.27	-0.2151	0.3001	-0.3981	
0.166042	-0.928786	0.343796	-15.89	77.07	-42	-0.2078	0.2833	-0.3999	
0.149572	-0.94489	0.353312	-13.51	80.22	-41.93	-0.2021	0.2847	-0.4029	
0.140422	-0.929152	0.362096	-15.54	81.48	-39.9	-0.2136	0.2894	-0.3998	
0.146522	-0.915366	0.373686	-21.63	82.25	-40.6	-0.1994	0.2922	-0.4091	
