Sensor string: E
Serial number: 1970-01-0000
Firmware version: 2.015
Hardware version: 2.2
Calibration quality: 5
ax	ay	az	gx	gy	gz	mx	my	mz

-1.013576	-0.049654	0.070272	-0.91	1.82	-0.84	0.4033	0.0007	-0.2552	Reference
-1.016504	-0.043066	0.07905599	0.28	1.19	-0.84	0.396	-0.0022	-0.2644	
-1.013454	-0.03721	0.083326	1.96	1.05	-0.77	0.4004	-0.0002	-0.2431	
-1.012966	-0.031598	0.083692	2.8	0.77	-0.49	0.3954	0.0133	-0.2533	
-1.01077	-0.028914	0.087596	3.01	0.14	-0.21	0.3973	0.0025	-0.2536	
-1.013942	-0.028304	0.07991	2.38	0.07	0.35	0.4004	-0.0004	-0.2492	
-1.014186	-0.031842	0.077226	1.33	0.21	0.91	0.3959	0.0026	-0.2536	
-1.015528	-0.033184	0.072468	-0.07	0.07	1.19	0.3971	0.0071	-0.252	
-1.014308	-0.03233	0.065514	-0.7	0.35	1.61	0.3898	0.006	-0.2505	
-1.012112	-0.034648	0.06527	-0.77	0.98	1.54	0.4019	-0.0008	-0.2583	
-1.009184	-0.034892	0.062464	-0.56	1.19	1.61	0.3948	-0.0063	-0.2494	
-1.009184	-0.040138	0.065514	0.49	1.33	1.26	0.396	0	-0.2431	
-1.00833	-0.04331	0.071736	1.4	1.54	0.84	0.3961	-0.0036	-0.2614	
-1.011868	-0.040748	0.074664	1.89	1.47	0.56	0.4063	-0.0008	-0.2522	
-1.01504	-0.038918	0.073566	2.38	1.75	0.28	0.4005	-0.0035	-0.2508	
-1.01626	-0.033184	0.074176	2.73	1.54	0.07	0.3943	0.0043	-0.2491	
-1.015772	-0.030744	0.075762	3.01	1.33	0.14	0.4001	0.0056	-0.249	
-1.016138	-0.03172	0.072468	2.31	1.12	0.21	0.3972	0.0057	-0.249	
-1.017114	-0.034038	0.069418	1.54	0.98	0.35	0.399	-0.0019	-0.2492	
-1.015406	-0.036112	0.073688	0.98	1.26	0.35	0.3964	-0.0096	-0.2585	
-1.010526	-0.033672	0.080398	0.21	1.33	0.28	0.3956	0.0087	-0.2535	
-1.00833	-0.030256	0.0793	0.77	1.12	0.21	0.3976	-0.0036	-0.2599	
-1.011258	-0.0305	0.073688	1.89	0.42	0.14	0.3946	-0.0019	-0.2583	
-1.01138	-0.028304	0.067588	1.89	1.12	0.14	0.4005	-0.0019	-0.2462	
-1.00894	-0.025498	0.06832	1.54	1.26	0.07	0.4031	0.0055	-0.2475	
-1.01077	-0.028182	0.065148	1.61	1.33	0	0.3991	-0.0049	-0.2478	
-1.016992	-0.029402	0.06954	1.12	1.47	0.14	0.4003	0.0008	-0.2552	
-1.009916	-0.025254	0.068442	0.63	1.47	0	0.4121	0.0006	-0.2461	
-1.019676	-0.026474	0.065636	1.26	1.33	-0.14	0.3986	0.007	-0.2535	
-1.018212	-0.032696	0.068808	1.33	1.33	0.28	0.3962	-0.0047	-0.2463	
-1.012722	-0.033794	0.066124	0	0.91	0.42	0.4051	-0.0071	-0.2615	
-1.007354	-0.029768	0.066246	0.21	0.42	0.35	0.3943	0.0042	-0.2521	
-1.007476	-0.031476	0.06527	1.26	0.42	0.21	0.4065	-0.0053	-0.2508	
-1.007842	-0.032208	0.062708	0.56	1.47	0.07	0.3975	-0.0003	-0.2507	
-1.008696	-0.033184	0.06527	0.14	2.1	0.07	0.3975	-0.0019	-0.2507	
-1.011258	-0.033916	0.073078	0.42	1.89	0.14	0.4006	-0.0052	-0.2554	
-1.013698	-0.031842	0.078446	0.56	1.47	0	0.4078	-0.0025	-0.2583	
-1.014186	-0.029036	0.07747	0.7	0.98	-0.14	0.3902	-0.0018	-0.2614	
-1.015406	-0.026718	0.071492	0.49	0.7	-0.14	0.4018	0.0009999999	-0.2476	
-1.01687	-0.025986	0.064172	-0.42	0.91	0	0.4065	-0.0052	-0.2478	
-1.017602	-0.025376	0.056852	-0.56	0.98	0.14	0.3946	-0.0017	-0.2507	
-1.016016	-0.028792	0.054412	-0.7	0.98	0.28	0.3989	0.0013	-0.24	
-1.013698	-0.027816	0.060878	-1.05	0.84	0.42	0.4007	-0.0065	-0.2494	
-1.012478	-0.028426	0.05734	-0.49	0.84	0.49	0.405	-0.0049	-0.2402	
-1.011014	-0.030012	0.058316	0.07	0.98	0.42	0.3945	0	-0.2416	
-1.012478	-0.029768	0.05856	-0.28	1.26	0.21	0.4005	-0.0034	-0.2462	
-1.012966	-0.029036	0.054656	-0.14	1.26	0	0.4121	0.0006	-0.2461	
-1.011868	-0.029036	0.050996	-0.14	1.47	-0.07	0.4049	-0.0022	-0.2507	
-1.014552	-0.031354	0.058682	-0.21	1.61	-0.14	0.3972	0.0056	-0.2536	
-1.011746	-0.030988	0.060634	-0.35	1.4	-0.28	0.4002	0.0041	-0.2475	
-1.013698	-0.030256	0.058926	-0.14	1.26	-0.49	0.3958	0.0041	-0.2551	
-1.01504	-0.02928	0.058316	-0.21	1.12	-0.63	0.4052	-0.0096	-0.2449	
-1.011746	-0.02745	0.058316	-0.07	1.26	-0.7	0.3974	0.0012	-0.2461	
-1.014186	-0.030012	0.060756	-0.07	1.4	-0.84	0.399	-0.0017	-0.2447	
-1.01443	-0.030134	0.061122	0.07	1.12	-1.05	0.4047	0.0008	-0.2491	
-1.009794	-0.03111	0.059658	0.28	0.98	-1.33	0.4005	-0.0019	-0.2477	
-1.008574	-0.02989	0.058804	-0.21	1.54	-1.47	0.4017	0.004	-0.249	
-1.011746	-0.030134	0.061366	-0.21	1.54	-1.54	0.4017	0.0024	-0.2506	
-1.011502	-0.038308	0.052948	-0.07	1.61	-1.68	0.4051	-0.0066	-0.2448	
-1.012112	-0.045262	0.05368	-0.35	2.17	-1.82	0.3875	-0.0075	-0.2509	
-1.011624	-0.041724	0.06893	-0.21	2.24	-1.82	0.4017	0.0039	-0.2521	
-1.014674	-0.03965	0.06466	-0.21	1.75	-1.33	0.4033	0.0009	-0.2476	

-1.026142	-0.048068	0.045018	0.91	1.75	0.35	0.4003	0.0026	-0.2476	

-1.01626	-0.04636	0.034038	5.25	1.26	4.27	0.4049	-0.0034	-0.2387	
-1.013576	-0.05734	0.037454	3.29	2.31	5.67	0.4089	0.0069	-0.2414	
-1.010404	-0.062342	0.0427	4.2	2.1	7.07	0.4047	0.0025	-0.2415	
-1.012722	-0.058072	0.045628	5.32	1.68	8.47	0.4111	-0.009699999	-0.2388	
-1.01443	-0.052826	0.04331	7.21	0.56	10.36	0.4111	-0.0099	-0.2449	
-1.017236	-0.047458	0.043188	7.56	0.35	12.32	0.4067	-0.009699999	-0.2449	
-1.013088	-0.040748	0.040016	6.44	0.56	14.49	0.4158	-0.0162	-0.2466	
-1.015406	-0.041236	0.03904	5.88	0	16.73	0.4013	-0.0201	-0.2452	
-1.022848	-0.049044	0.041846	2.52	1.4	19.18	0.4043	-0.0235	-0.2529	
-1.026508	-0.038308	0.04636	6.09	-0.77	21.21	0.4031	-0.0291	-0.2364	
-1.021018	-0.023302	0.033306	7.63	-0.56	22.89	0.4049	-0.0352	-0.2366	
-1.019798	-0.005978	0.034892	7.84	-1.33	25.41	0.4	-0.0243	-0.2347	
-1.015528	0.008662	0.0427	7.21	-0.77	28.21	0.3976	-0.0365	-0.2412	
-1.013942	0.01769	0.04697	6.72	-1.19	31.15	0.3987	-0.029	-0.2409	
-1.011746	0.020618	0.048922	5.46	-1.33	33.95	0.4078	-0.0352	-0.2305	
-1.003694	0.033916	0.045872	3.08	-2.03	36.82	0.4051	-0.0416	-0.2473	
-1.006866	0.045872	0.041236	0.07	-3.64	41.16	0.3968	-0.0517	-0.2416	
-1.011014	0.051606	0.040504	-3.92	-2.52	43.26	0.4058	-0.0567	-0.2417	
-1.003938	0.07124799	0.052094	-7.42	-1.96	44.87	0.4017	-0.0628	-0.248	
-1.006378	0.080032	0.069784	-8.75	-2.87	45.5	0.3993	-0.076	-0.2378	
-1.004304	0.11834	0.066612	-9.17	-4.34	46.62	0.3982	-0.0839	-0.2471	
-0.996984	0.141154	0.045262	-5.53	-4.48	47.81	0.4015	-0.0914	-0.2412	
-0.99674	0.15982	0.056364	-3.78	-4.41	49.42	0.403	-0.0932	-0.2458	
-1.002108	0.173484	0.073322	-2.52	-1.61	50.12	0.4044	-0.0919	-0.2518	
-1.014064	0.193126	0.08052	-4.06	-4.27	49.42	0.3943	-0.0942	-0.2428	
-1.009672	0.220698	0.053192	-2.03	-3.22	47.88	0.4023	-0.1099	-0.2493	
-0.997594	0.23607	0.046482	-0.07	-4.13	46.83	0.3908	-0.1169	-0.2465	
-0.985638	0.267424	0.044042	-5.32	0.42	45.85	0.3895	-0.12	-0.2481	
-0.975878	0.279136	0.044774	-6.3	-0.84	45.43	0.3896	-0.1214	-0.2436	
-0.966484	0.29158	0.055022	-8.75	-1.75	44.94	0.3854	-0.1258	-0.2453	
-0.961116	0.305854	0.06039	-10.64	-2.24	45.64	0.3864	-0.1488	-0.252	
-0.944768	0.319518	0.054168	-10.92	-4.13	45.36	0.389	-0.143	-0.2564	
-0.941596	0.33916	0.062464	-13.37	-4.06	45.57	0.3863	-0.1473	-0.2535	
-0.941718	0.346968	0.05124	-10.08	-2.59	44.1	0.3808	-0.1548	-0.2583	
-0.927444	0.371124	0.051728	-10.71	-2.59	43.54	0.3898	-0.161	-0.2493	
-0.941718	0.407358	0.072346	-2.24	-7.28	42.28	0.3756	-0.1712	-0.2542	
-0.971608	0.392596	0.047824	7.07	-10.22	41.09	0.3741	-0.171	-0.2497	
-0.975878	0.421388	0.091988	-9.66	-5.32	38.22	0.3739	-0.1669	-0.2647	
-0.92232	0.428708	0.102968	-10.78	-7.35	35.21	0.3599	-0.1809	-0.2485	
-0.90951	0.448228	0.100406	-6.86	-8.4	33.74	0.3689	-0.1846	-0.2546	
-0.867908	0.458598	0.069784	-5.6	-6.93	33.6	0.3689	-0.1847	-0.2592	
-0.85949	0.459818	0.078324	-4.06	-9.59	33.88	0.3606	-0.1964	-0.2565	
-0.865224	0.44774	0.086498	-3.36	-9.24	34.79	0.3664	-0.1954	-0.2655	
-0.892796	0.449448	0.10187	-2.73	-7.7	34.79	0.3561	-0.1948	-0.2595	
-0.904264	0.489586	0.10797	0.35	-9.45	33.11	0.3461	-0.2004	-0.2597	
-0.870348	0.53497	0.098454	2.03	-11.48	31.08	0.3536	-0.2056	-0.2689	
-0.851316	0.531676	0.101138	1.82	-10.85	29.05	0.3437	-0.2127	-0.2691	
-0.836188	0.52033	0.111752	0	-7	25.9	0.3455	-0.2204	-0.2693	
-0.847534	0.526674	0.141154	1.54	-4.34	22.68	0.3465	-0.2098	-0.2675	
-0.845704	0.524722	0.158966	2.66	-5.39	21.63	0.3457	-0.2249	-0.2679	
-0.836188	0.505568	0.161772	2.45	-8.05	20.72	0.3455	-0.2219	-0.2678	
-0.83204	0.518866	0.142862	0.7	-10.57	20.09	0.344	-0.2204	-0.2708	
-0.852414	0.543754	0.11102	-1.12	-10.92	20.23	0.3255	-0.2333	-0.2728	
-0.857904	0.542046	0.109434	-1.89	-7.63	21.28	0.333	-0.2366	-0.2713	
-0.855342	0.54717	0.119072	-2.94	-7.42	21.7	0.3315	-0.2367	-0.2759	
-0.83692	0.565958	0.140056	-3.08	-8.89	22.54	0.339	-0.2403	-0.2835	
-0.823622	0.554978	0.134688	-3.78	-8.05	22.82	0.3225	-0.2333	-0.2788	
-0.815936	0.545096	0.136762	-3.57	-7.49	22.12	0.3228	-0.2393	-0.276	
-0.821792	0.546926	0.13664	-3.29	-7.21	21.21	0.3249	-0.2533	-0.2824	
-0.821548	0.558028	0.135054	-3.78	-6.93	19.39	0.3154	-0.2378	-0.2881	
-0.821792	0.579866	0.139446	-3.08	-6.44	17.92	0.3189	-0.25	-0.2823	
-0.816424	0.59841	0.148596	-3.15	-5.81	17.15	0.3162	-0.2559	-0.2825	
-0.82533	0.607926	0.166164	-3.78	-5.74	16.59	0.3101	-0.2514	-0.2915	
-0.81374	0.604144	0.16836	-4.13	-6.58	15.75	0.3159	-0.2499	-0.2839	
-0.811422	0.601704	0.154818	-2.94	-6.65	14.7	0.3117	-0.2543	-0.287	
-0.794708	0.612074	0.148474	-2.38	-6.65	12.6	0.3074	-0.2574	-0.2932	
-0.782874	0.61976	0.153232	-3.15	-5.74	10.92	0.303	-0.2556	-0.2931	
-0.780434	0.621224	0.16653	-3.15	-4.34	9.17	0.2998	-0.2507	-0.2839	
-0.773724	0.633668	0.172752	-3.5	-3.15	7.35	0.3026	-0.2479	-0.2884	
-0.763842	0.63135	0.173362	-3.29	-3.22	5.67	0.3075	-0.2588	-0.2917	
-0.767868	0.636352	0.174948	-3.92	-2.1	3.85	0.3045	-0.2571	-0.2871	
-0.778482	0.641598	0.160918	-3.43	-0.42	1.19	0.3089	-0.2573	-0.2886	
-0.772504	0.63745	0.164212	-3.57	0.7	-0.7	0.3031	-0.2585	-0.2872	
-0.76921	0.627446	0.177388	-0.42	-1.12	-1.33	0.3002	-0.2584	-0.2887	
-0.762378	0.615978	0.176656	-3.01	1.26	-3.92	0.3102	-0.2527	-0.2855	
-0.762866	0.606218	0.193614	-4.13	2.31	-5.95	0.3087	-0.2529	-0.2946	
-0.77348	0.605852	0.186294	-2.66	0.91	-7.21	0.3121	-0.2635	-0.2888	
-0.766892	0.615246	0.171288	-0.35	2.24	-9.73	0.3072	-0.2513	-0.2945	
-0.771162	0.626592	0.179462	1.26	3.01	-11.62	0.3071	-0.2497	-0.2899	
-0.773846	0.62281	0.185562	1.12	4.83	-13.86	0.3056	-0.2495	-0.2854	
-0.779214	0.610366	0.195322	1.4	5.25	-16.38	0.3056	-0.2481	-0.2914	
-0.791292	0.60939	0.194102	1.68	5.95	-19.39	0.3052	-0.2408	-0.3018	
-0.791048	0.598044	0.177998	3.08	6.16	-22.19	0.3082	-0.2405	-0.2882	
-0.789584	0.598654	0.161772	2.17	9.8	-25.62	0.3185	-0.2408	-0.2821	
-0.792634	0.59597	0.160552	3.22	7.84	-27.09	0.3258	-0.241	-0.276	
-0.790926	0.586088	0.163358	3.01	10.08	-29.05	0.3169	-0.2392	-0.2805	
-0.798246	0.578524	0.164944	2.94	11.34	-31.22	0.3343	-0.2341	-0.2879	
-0.800808	0.565226	0.166774	3.08	12.04	-33.18	0.3313	-0.2321	-0.2742	
-0.81557	0.551684	0.157136	4.41	13.3	-35.63	0.3281	-0.2259	-0.2756	
-0.828502	0.538874	0.142008	5.25	14.77	-38.5	0.3326	-0.2278	-0.2832	
-0.845704	0.529968	0.134688	5.39	15.54	-40.81	0.3338	-0.223	-0.2709	
-0.849852	0.527284	0.13054	5.18	15.68	-42.77	0.3407	-0.2128	-0.2767	
-0.85766	0.513254	0.121878	3.85	15.89	-44.24	0.3553	-0.2105	-0.2781	
-0.868518	0.50081	0.114558	3.92	16.24	-45.5	0.3521	-0.2039	-0.2673	
-0.87352	0.489708	0.103212	3.85	16.31	-46.76	0.356	-0.1918	-0.2639	
-0.897798	0.44408	0.077714	6.23	16.03	-47.67	0.3574	-0.1919	-0.2624	
-0.893894	0.463844	0.092354	2.73	18.34	-50.26	0.366	-0.1862	-0.2622	
-0.909998	0.428952	0.089426	3.5	17.99	-48.86	0.3656	-0.177	-0.262	
-0.922442	0.398452	0.072102	1.12	17.71	-49.07	0.3772	-0.1744	-0.2573	
-0.927688	0.392962	0.051972	-4.13	20.65	-52.36	0.3843	-0.1688	-0.2632	
-0.921466	0.366854	0.036234	-0.35	18.34	-52.71	0.3867	-0.1566	-0.2568	
-0.928908	0.339038	0.04819	2.1	14.49	-54.18	0.3776	-0.1502	-0.2612	
-0.95831	0.331962	0.055998	3.43	12.95	-55.37	0.3861	-0.1426	-0.2473	
-0.962458	0.307196	0.034892	2.8	13.86	-56.84	0.3906	-0.1458	-0.2459	
-0.96136	0.293898	0.009272	1.05	15.82	-58.45	0.396	-0.1336	-0.2364	
-0.965142	0.278648	0.013786	4.34	12.95	-58.1	0.3984	-0.1216	-0.2376	
-1.015894	0.252174	0.043066	10.71	9.38	-59.22	0.3984	-0.1214	-0.233	
-1.042978	0.208254	0.048434	10.5	10.08	-60.41	0.4008	-0.1098	-0.2463	
-1.034438	0.174338	0.02806	9.8	7.28	-59.29	0.4006	-0.1052	-0.2462	
-1.006378	0.16836	0.014762	18.41	0.77	-57.68	0.4059	-0.0915	-0.2382	
-1.013576	0.103334	0.00732	20.65	-5.74	-58.31	0.4084	-0.0812	-0.2455	
-1.006866	0.129076	0.003294	-1.96	4.27	-60.69	0.4079	-0.0721	-0.2452	
-1.021506	0.085888	0.016226	-0.77	2.87	-58.31	0.4078	-0.0674	-0.242	
-1.040294	0.026962	0.046238	-2.1	0.98	-55.44	0.4116	-0.0542	-0.2507	
-1.03883	0.000976	0.049776	-6.02	3.99	-55.58	0.4128	-0.0491	-0.2324	
-1.03944	-0.032208	0.022692	-5.39	-1.4	-55.02	0.4019	-0.0352	-0.2396	
-1.015772	0.01342	0.038308	-4.62	2.52	-54.46	0.412	-0.0295	-0.2379	
-1.00894	-0.012444	0.035258	-3.99	-1.61	-50.47	0.4044	-0.0249	-0.2499	
-1.001742	-0.052704	0.016348	-7.49	2.24	-47.6	0.4146	-0.0221	-0.2392	
-0.996984	-0.055022	0.023546	-6.58	5.32	-45.15	0.4067	-0.0095	-0.2388	
-0.991128	-0.066734	0.035258	-0.77	-0.56	-40.32	0.4126	-0.0113	-0.2389	
-0.99369	-0.083326	0.03477	-2.66	0.14	-36.54	0.4106	0.0026	-0.2294	
-0.999912	-0.104066	0.033184	-4.76	0.21	-32.55	0.4018	0.0009	-0.2491	
-1.018578	-0.109678	0.042456	-3.57	-0.7	-30.03	0.4088	0.0087	-0.2322	
-1.020408	-0.098088	0.047458	-2.8	0	-26.74	0.4028	0.0118	-0.2397	
-1.013332	-0.09699	0.042578	-1.12	0.91	-23.31	0.3935	0.0229	-0.2379	
-1.006378	-0.110532	0.054168	10.22	4.41	-18.9	0.4007	0.0273	-0.2332	
-1.015528	-0.114802	0.039894	6.23	2.17	-17.22	0.4063	0.0329	-0.2406	
-1.023092	-0.116266	0.023546	4.41	0.63	-14.91	0.4053	0.0221	-0.247	
-1.01809	-0.113704	0.018544	3.92	1.4	-12.25	0.402	0.0303	-0.2331	
-1.009428	-0.122	0.030866	2.52	1.12	-9.24	0.4068	0.0208	-0.2379	
-1.005524	-0.118462	0.0366	-0.84	2.1	-7.84	0.4005	0.0319	-0.2316	
-1.0126	-0.12017	0.035746	2.8	-2.66	-4.83	0.3915	0.0367	-0.236	
-1.01016	-0.128222	0.024644	-0.28	-0.42	-2.94	0.408	0.0286	-0.2301	
-1.010526	-0.126026	0.03111	-1.26	-1.82	-1.47	0.406	0.0394	-0.2253	
-1.013698	-0.123708	0.023302	-0.98	-0.91	-0.49	0.4005	0.0305	-0.2286	
-1.014552	-0.12261	0.012444	0.21	-0.91	0.49	0.396	0.0334	-0.2376	
-1.017236	-0.118096	0.013176	1.05	-1.89	1.54	0.4078	0.0314	-0.2376	
-1.01931	-0.115778	0.015006	0.63	-0.77	2.03	0.4021	0.027	-0.2393	
-1.01931	-0.109678	0.02318	1.47	-0.7	2.59	0.4138	0.0296	-0.2377	
-1.02053	-0.099918	0.027328	2.1	-0.84	2.94	0.405	0.0284	-0.2392	
-1.019066	-0.096868	0.029768	2.94	-0.77	3.64	0.4066	0.0258	-0.2211	
-1.015894	-0.09699	0.02623	4.34	-0.98	4.62	0.3989	0.0335	-0.2315	
-1.019554	-0.09076799	0.024888	2.87	-2.38	5.53	0.4051	0.027	-0.2363	
-1.024434	-0.093818	0.02196	3.08	-2.17	6.23	0.4035	0.03	-0.2407	
-1.021506	-0.101138	0.03233	2.45	-2.38	6.79	0.4005	0.0317	-0.2392	
-1.013576	-0.096136	0.038918	0.28	-2.87	7.07	0.402	0.0304	-0.2301	
-1.007598	-0.085034	0.028548	-2.87	-2.87	6.79	0.408	0.0266	-0.2453	
-1.008452	-0.080398	0.012444	-5.88	-2.59	6.51	0.4023	0.0225	-0.2394	
-1.002474	-0.078324	0.015494	-7.42	-1.05	5.95	0.4064	0.03	-0.2347	
-0.992348	-0.07124799	0.02745	-7.91	-1.89	5.39	0.3981	0.0194	-0.2456	
-1.007232	-0.098332	0.052704	-5.6	-3.92	4.27	0.404	0.0178	-0.2396	
-1.010892	-0.071858	0.03294	-14.28	-2.24	2.52	0.4125	0.0251	-0.2363	
-1.003328	-0.071736	0.073322	-4.97	-3.01	1.89	0.4055	0.0179	-0.235	
-1.009184	-0.07124799	0.08845	-1.4	-2.1	0.42	0.4082	0.0222	-0.2379	
-1.0065	-0.056974	0.065148	-2.24	-2.24	-1.12	0.4012	0.015	-0.2366	
-1.017602	-0.061976	0.04697	-1.47	-2.87	-1.96	0.4008	0.0242	-0.2348	
-1.013576	-0.064782	0.047824	-0.14	-0.7	-2.87	0.4006	0.0287	-0.2377	
-1.003938	-0.058926	0.044408	0.7	0.21	-4.62	0.3982	0.0166	-0.2396	
-1.00101	-0.0549	0.051118	0.56	-2.03	-6.3	0.4006	0.0286	-0.2408	
-1.008818	-0.03965	0.039406	-7.28	-2.17	-10.22	0.4065	0.0267	-0.2453	
-1.004914	-0.025498	0.039772	-8.75	-0.98	-13.23	0.4094	0.0283	-0.2362	
-1.008818	-0.041602	0.034404	-6.93	0.98	-16.17	0.4032	0.0361	-0.2405	
-1.015894	-0.062708	0.052582	-6.02	1.4	-18.76	0.4003	0.0348	-0.2376	
-1.013454	-0.078446	0.053924	-1.82	0.14	-22.75	0.4004	0.0332	-0.2406	
-1.013454	-0.083692	0.036844	1.33	-0.56	-26.88	0.3969	0.0454	-0.2433	
-1.009062	-0.088084	0.038552	4.27	-0.56	-30.17	0.4046	0.0379	-0.2284	
-1.004304	-0.090036	0.032086	8.47	-2.17	-32.83	0.4044	0.0424	-0.2313	
-1.017236	-0.104432	0.041358	9.66	-3.64	-35.21	0.3998	0.0467	-0.2463	
-1.025288	-0.109312	0.058926	6.86	-2.66	-37.94	0.388	0.0488	-0.2432	
-1.009062	-0.119316	0.061854	8.89	-3.36	-40.04	0.3935	0.056	-0.2506	
-1.012844	-0.15372	0.05978	10.71	-4.97	-41.79	0.3945	0.0684	-0.2396	
-1.026142	-0.2013	0.038552	13.79	-4.97	-43.54	0.3959	0.0682	-0.2442	
-1.025044	-0.212402	0.025132	18.2	-1.12	-45.08	0.3868	0.0749	-0.2379	
-1.01321	-0.236192	0.023302	22.61	1.12	-43.05	0.3822	0.0807	-0.2529	
-1.009184	-0.250832	0.032696	23.45	3.64	-42.42	0.3819	0.0872	-0.2391	
-0.988688	-0.242536	0.061976	18.27	4.76	-42.21	0.3802	0.0919	-0.239	
-0.967216	-0.243634	0.047458	14.98	1.89	-41.02	0.3816	0.0948	-0.2404	
-0.972462	-0.27084	0.054534	11.69	-1.61	-40.53	0.3858	0.0989	-0.2509	
-0.968558	-0.286944	0.055998	10.78	-3.22	-40.46	0.3793	0.1128	-0.252	
-0.96197	-0.304512	0.067466	8.33	-4.48	-39.62	0.3767	0.104	-0.2447	
-0.943548	-0.331108	0.071614	7.14	-5.04	-38.57	0.3767	0.1039	-0.2477	
-0.94428	-0.350262	0.068198	6.09	-6.09	-37.45	0.3658	0.1195	-0.2533	
-0.948306	-0.38003	0.069174	4.9	-5.74	-37.03	0.3538	0.1247	-0.2487	
-0.94916	-0.396744	0.076128	4.9	-5.67	-36.4	0.3686	0.1223	-0.2563	
-0.9577	-0.4148	0.079666	6.72	-5.04	-35.77	0.3552	0.1261	-0.2516	
-0.9455	-0.414312	0.08295999	7.56	-3.15	-35.35	0.3522	0.1292	-0.2531	
-0.92293	-0.413946	0.077226	9.24	-6.23	-34.16	0.3534	0.1335	-0.262	

-0.901336	-0.426512	0.087962	11.48	-7.14	-32.9	0.3481	0.1535	-0.2615	
-0.885476	-0.435784	0.07991	9.87	-7.14	-32.76	0.3485	0.1461	-0.2526	
-0.884622	-0.443836	0.085278	6.16	-8.26	-33.67	0.3515	0.1441	-0.2647	
-0.880962	-0.444324	0.099796	3.57	-9.73	-33.39	0.3347	0.1586	-0.2628	
-0.867054	-0.465186	0.111508	0.77	-9.94	-33.88	0.3334	0.1541	-0.2615	
-0.867298	-0.482144	0.123098	-1.47	-10.64	-34.23	0.333	0.1632	-0.2657	
-0.845704	-0.50813	0.125416	-2.8	-11.13	-34.51	0.3328	0.1678	-0.2626	
-0.8418	-0.526308	0.123464	-4.48	-11.06	-35.91	0.3237	0.1758	-0.2639	
-0.835944	-0.513376	0.127978	7.35	-10.5	-35.91	0.3223	0.1727	-0.267	
-0.811544	-0.549488	0.209596	1.12	-13.23	-37.17	0.316	0.1833	-0.2773	
-0.820816	-0.53314	0.107848	-16.03	-11.34	-32.76	0.3189	0.1848	-0.2742	
-0.80886	-0.557784	0.113582	0.49	-5.46	-33.04	0.3133	0.1789	-0.2774	
-0.804102	-0.561932	0.17995	2.1	-4.69	-34.09	0.3051	0.1975	-0.2769	
-0.806908	-0.56364	0.1708	-5.39	-9.52	-32.69	0.2994	0.1934	-0.2725	
-0.79666	-0.603412	0.146156	-1.33	-6.93	-33.04	0.2976	0.2025	-0.2738	
-0.788364	-0.606584	0.15616	-0.77	-5.39	-33.04	0.3047	0.2067	-0.2766	
-0.80947	-0.625128	0.188246	2.31	-4.2	-30.8	0.293	0.2075	-0.2676	
-0.801418	-0.619272	0.181658	-0.7	-3.43	-28.91	0.2955	0.2164	-0.2688	
-0.799344	-0.635742	0.16775	1.89	-6.02	-26.81	0.2882	0.2151	-0.2749	
-0.792268	-0.638426	0.153232	0.56	-6.51	-23.94	0.2849	0.223	-0.2686	
-0.787144	-0.619394	0.141154	2.52	-5.18	-21.42	0.2865	0.2199	-0.2687	
-0.789462	-0.631594	0.14457	1.12	-3.08	-18.9	0.2844	0.2349	-0.2774	
-0.780434	-0.631594	0.150182	1.96	-1.19	-16.31	0.2743	0.2307	-0.2805	
-0.787266	-0.625616	0.152622	1.75	-0.49	-14.14	0.2633	0.2129	-0.2841	
-0.77958	-0.655262	0.150426	0.21	0.49	-11.83	0.2775	0.2246	-0.2792	
-0.758718	-0.662216	0.12993	2.1	1.89	-9.31	0.2732	0.2231	-0.2838	
-0.759694	-0.65697	0.146278	1.47	3.64	-7.49	0.2685	0.2297	-0.2745	
-0.766282	-0.66246	0.144082	1.96	4.83	-5.67	0.2698	0.2326	-0.2775	
-0.772016	-0.662094	0.14518	0.84	4.2	-3.78	0.2755	0.2368	-0.2789	
-0.761036	-0.652334	0.14884	1.47	4.13	-1.82	0.2698	0.2343	-0.2698	
-0.758718	-0.659166	0.148474	1.61	4.83	0.28	0.2701	0.2265	-0.2776	
-0.750056	-0.662826	0.14823	1.12	5.32	2.38	0.273	0.226	-0.2898	
-0.741516	-0.660874	0.154574	1.61	6.09	4.2	0.273	0.2273	-0.2973	
-0.73627	-0.656604	0.167628	1.82	6.02	5.88	0.2758	0.2292	-0.2806	
-0.737856	-0.663558	0.158234	2.31	5.74	7.7	0.2786	0.2322	-0.2744	
-0.747616	-0.650748	0.151524	2.24	6.79	9.24	0.2788	0.2275	-0.2806	
-0.755546	-0.6588	0.153476	0.49	7.63	11.41	0.2851	0.2181	-0.2809	
-0.755912	-0.653066	0.162382	2.66	8.19	12.88	0.2719	0.2189	-0.2733	
-0.764818	-0.654042	0.146156	3.99	8.33	14.77	0.2875	0.2306	-0.2639	
-0.760792	-0.646234	0.139934	5.11	9.66	15.47	0.286	0.2322	-0.2653	
-0.764452	-0.630496	0.14762	5.81	10.85	16.59	0.2792	0.2201	-0.2733	
-0.776652	-0.60573	0.138836	6.72	12.11	17.92	0.2879	0.223	-0.2656	
-0.777628	-0.59048	0.133956	5.25	12.88	19.32	0.2953	0.2211	-0.2672	
-0.8052	-0.581574	0.144204	4.48	12.88	22.54	0.297	0.2163	-0.2703	
-0.806908	-0.579988	0.125416	2.52	12.95	26.46	0.3014	0.2164	-0.2627	
-0.81252	-0.563274	0.118828	1.54	14.91	27.93	0.2988	0.2088	-0.266	
-0.827038	-0.55876	0.117364	-0.28	16.38	29.61	0.3083	0.1932	-0.2634	
-0.84241	-0.560468	0.11773	-1.26	15.33	32.41	0.3199	0.1943	-0.2588	
-0.841068	-0.554002	0.10858	-1.61	14.28	34.23	0.3187	0.1899	-0.2574	
-0.84607	-0.545584	0.101382	-1.12	13.93	36.4	0.3185	0.193	-0.2543	
-0.854122	-0.536068	0.09089	-2.38	14.91	38.5	0.3232	0.1865	-0.2605	
-0.866444	-0.531554	0.092354	-3.5	15.47	39.76	0.3274	0.1924	-0.2634	
-0.870104	-0.529114	0.09455	-4.62	14.21	41.86	0.3413	0.1768	-0.2547	
-0.867176	-0.52521	0.08052	-5.67	13.3	42.42	0.3428	0.1752	-0.2548	
-0.863272	-0.516792	0.06832	-6.37	10.22	43.33	0.3373	0.1666	-0.2444	
-0.868274	-0.510692	0.056242	-9.17	9.24	43.89	0.3536	0.1641	-0.2536	
-0.8784	-0.48678	0.047214	-8.19	9.87	44.03	0.3551	0.1626	-0.2506	
-0.882914	-0.460916	0.030134	-5.95	8.61	45.01	0.3612	0.1563	-0.2492	
-0.912682	-0.461648	0.032696	-4.69	8.61	46.2	0.3526	0.1539	-0.2387	
-0.93147	-0.4392	0.034892	-5.6	8.54	47.18	0.3664	0.1396	-0.2406	
-0.955016	-0.415532	0.033184	-7.77	5.95	48.16	0.3588	0.1459	-0.2435	
-0.947574	-0.405284	0.017812	-10.92	4.55	49	0.3654	0.1291	-0.2364	
-0.952332	-0.357704	0.012566	-6.58	0.91	50.19	0.3818	0.1237	-0.2411	
-0.947086	-0.360754	0.00549	-7.77	-0.42	52.36	0.3733	0.1167	-0.2322	
-0.956724	-0.33184	0.007442	-10.22	3.15	52.99	0.3794	0.1119	-0.2323	
-0.958676	-0.317444	0.012322	-10.43	2.94	52.71	0.3912	0.1082	-0.2354	
-0.967094	-0.296704	0.008662	-12.53	1.96	53.34	0.3788	0.092	-0.2374	
-0.973682	-0.28182	0.005368	-12.53	2.24	54.04	0.3873	0.09779999	-0.2342	
-0.987956	-0.2684	0.018788	-12.95	2.59	55.51	0.3846	0.0936	-0.2268	
-0.994544	-0.253028	0.026352	-11.97	4.2	56.49	0.3911	0.0796	-0.2272	
-0.992836	-0.23729	0.02257	-13.3	3.5	56.77	0.3945	0.0686	-0.232	
-0.99064	-0.212768	0.028304	-14.42	1.4	56.98	0.4074	0.0743	-0.2258	
-1.014186	-0.19459	0.038674	-15.96	-2.59	56.14	0.398	0.055	-0.2249	
-1.044076	-0.164944	0.044286	-15.96	-4.2	55.72	0.3994	0.0566	-0.2203	
-1.07604	-0.116998	0.039406	-13.86	-5.46	54.95	0.3952	0.0521	-0.2234	
-1.077748	-0.078568	0.022936	-12.67	-6.09	54.18	0.4108	0.03	-0.2301	
-1.04005	-0.060146	0.005978	-13.93	-5.67	52.29	0.4003	0.0362	-0.2421	
-0.995886	-0.065636	-0.012688	-17.57	-7.56	50.26	0.4112	0.0205	-0.241	
-0.99003	-0.035136	0.007564	-21.28	-3.64	46.9	0.4093	0.0314	-0.2361	
-1.011868	0.02257	0.025864	-17.01	2.45	42.63	0.3929	0.0048	-0.2339	
-1.015894	0.021228	0.030256	-17.64	-1.96	41.72	0.4059	0.009	-0.2262	
-1.002596	0.046238	0.041114	-16.31	-2.66	39.2	0.4034	-0.0016	-0.231	
-1.008696	0.045018	0.049532	-15.68	-5.18	36.82	0.4106	0.0012	-0.2279	
-1.005158	0.054168	0.055022	-14	-6.23	33.32	0.4197	-0.0052	-0.2251	
-1.012844	0.046116	0.052216	-12.74	-6.51	29.33	0.4125	-0.0082	-0.2358	
-1.014674	0.047336	0.04209	-11.9	-6.23	25.27	0.4113	-0.0143	-0.239	
-1.007354	0.059048	0.04514	-10.22	-6.02	21	0.4097	-0.0112	-0.2389	
-1.01077	0.059658	0.04026	-7	-5.25	17.15	0.4053	-0.0108	-0.2328	
-1.016992	0.056608	0.030378	-3.01	-3.64	13.23	0.3953	-0.0181	-0.2391	
-1.018822	0.064294	0.031598	0.84	-2.8	9.8	0.407	-0.0172	-0.2421	
-1.015528	0.072712	0.02989	5.46	-3.5	7	0.4119	-0.0279	-0.2348	
-1.018822	0.070882	0.037698	6.65	-4.83	5.04	0.4025	-0.0156	-0.2436	
-1.01382	0.063318	0.036722	5.95	-5.32	3.29	0.4085	-0.0173	-0.2436	
-1.011502	0.05673	0.0549	6.09	-6.02	0.84	0.4131	-0.0219	-0.2362	
-1.01199	0.054778	0.042944	6.93	-3.92	-0.21	0.4041	-0.0187	-0.2436	
-1.002474	0.055998	0.027816	5.74	-1.68	-1.19	0.4029	-0.0247	-0.2423	
-1.014796	0.054534	0.03172	4.83	-0.07	-1.47	0.4047	-0.031	-0.247	
-1.01016	0.048556	0.043066	4.76	-0.56	-1.47	0.4106	-0.031	-0.241	
-1.011624	0.032086	0.041724	7.42	-2.17	-1.75	0.4029	-0.023	-0.2392	
-1.0309	0.022326	0.040382	8.68	-1.47	-0.77	0.4076	-0.0293	-0.2379	
-1.030046	0.039528	0.048434	6.3	-1.33	0.98	0.4062	-0.0307	-0.2364	
-1.01687	0.035502	0.019642	3.71	-1.96	3.43	0.406	-0.0276	-0.2348	
-1.031144	0.030378	0.03538	1.61	-1.54	6.02	0.4045	-0.0261	-0.2363	
-1.022604	0.026962	0.065026	-2.24	-1.54	8.05	0.4029	-0.0246	-0.2393	
-1.009672	0.023058	0.062586	-2.52	-3.85	9.73	0.4122	-0.0356	-0.2396	
-1.012112	0.013786	0.06405	-2.52	-5.18	12.32	0.4063	-0.034	-0.2441	
-1.015772	0.010858	0.05246	-2.31	-7.42	14.77	0.4015	-0.0262	-0.2439	
-1.022848	0.010126	0.043188	-2.73	-8.33	17.5	0.3991	-0.0369	-0.2518	
-1.015162	0.013176	0.052704	-1.19	-8.68	20.58	0.412	-0.0313	-0.2485	
-1.013332	0.018666	0.046848	0.21	-10.36	24.22	0.399	-0.0353	-0.2502	
-1.008208	0.017568	0.061	3.36	-11.62	28.35	0.4039	-0.0462	-0.249	
-1.006012	0.031964	0.05856	3.08	-10.78	31.22	0.4072	-0.0554	-0.2477	
-0.995642	0.040382	0.061244	5.95	-10.64	35.35	0.4044	-0.0587	-0.2615	
-0.99308	0.057706	0.066612	4.2	-7.56	38.22	0.3999	-0.0565	-0.2448	
-0.991006	0.07198	0.08906	0.28	-7.14	40.81	0.3867	-0.0561	-0.2523	
-0.98637	0.097966	0.107726	-1.26	-7.63	43.05	0.3914	-0.0627	-0.2631	
-1.009062	0.137128	0.103944	2.59	-8.47	44.24	0.3966	-0.0808	-0.2485	
-0.999912	0.16287	0.09942999	6.09	-5.95	44.31	0.3925	-0.0884	-0.2548	
-1.002718	0.185318	0.098332	8.26	-5.74	44.52	0.394	-0.08989999	-0.2533	
-0.994666	0.209108	0.074542	8.89	-1.05	44.17	0.3857	-0.1001	-0.2506	
-1.000034	0.240218	0.078446	10.01	1.82	44.45	0.3965	-0.1113	-0.2539	
-1.006744	0.268644	0.083692	10.92	2.73	45.5	0.3924	-0.1202	-0.2527	
-0.9821	0.288896	0.083936	13.02	2.52	47.18	0.3938	-0.1189	-0.2572	
-0.969778	0.291336	0.084668	12.39	-3.01	47.46	0.3767	-0.1288	-0.259	
-0.960872	0.317444	0.078568	9.8	-3.43	46.41	0.39	-0.1324	-0.2576	
-0.951112	0.3233	0.077836	5.25	-4.76	46.97	0.3876	-0.1445	-0.2579	
-0.926224	0.33855	0.058194	-0.77	-2.59	46.13	0.3838	-0.1566	-0.2628	
-0.913414	0.371856	0.050264	-1.4	-3.22	46.48	0.3821	-0.1517	-0.2536	
-0.915	0.366366	0.053314	-0.42	-6.02	49.07	0.3794	-0.1576	-0.2523	
-0.908656	0.374906	0.068198	-2.24	-2.8	50.61	0.3711	-0.168	-0.2556	
-0.915854	0.385276	0.09857599	0.56	-2.1	51.8	0.3667	-0.1677	-0.2541	
-0.900604	0.384544	0.107238	1.82	-2.94	49.77	0.3657	-0.1797	-0.2499	
-0.917318	0.419802	0.122732	8.05	-11.13	50.96	0.3705	-0.1892	-0.2532	
-0.928054	0.42883	0.102114	-1.26	-8.19	47.88	0.3711	-0.203	-0.2582	
-0.901824	0.461404	0.10492	-1.96	-12.6	46.55	0.3592	-0.1994	-0.2566	
-0.89609	0.478362	0.101138	0	-15.4	44.73	0.3596	-0.207	-0.2553	
-0.897798	0.502884	0.092964	0.84	-13.58	43.61	0.3482	-0.2158	-0.2646	
-0.873764	0.518134	0.100284	-0.14	-14.49	42	0.3557	-0.2189	-0.2541	
-0.86864	0.544608	0.107848	-2.31	-17.5	39.13	0.3428	-0.2261	-0.2589	
-0.864004	0.540094	0.105042	-2.03	-19.18	37.59	0.3298	-0.232	-0.2727	
-0.850096	0.543754	0.099674	-7.35	-18.55	36.05	0.3312	-0.2309	-0.2863	
-0.841434	0.546194	0.119194	-6.23	-19.67	35.91	0.3258	-0.2407	-0.2669	
-0.830698	0.568398	0.125172	-2.31	-21.07	36.26	0.3137	-0.2328	-0.2758	
-0.823256	0.58194	0.12383	-6.72	-18.97	34.86	0.3197	-0.2348	-0.2834	
-0.80337	0.56974	0.147986	-9.52	-14.49	33.11	0.3186	-0.2438	-0.2807	
-0.792146	0.57157	0.160064	-9.03	-15.4	31.71	0.3068	-0.2417	-0.2791	
-0.794342	0.570106	0.169214	-4.76	-14.56	30.59	0.3026	-0.2478	-0.2853	
-0.78812	0.58377	0.174948	-4.69	-14.21	29.82	0.2952	-0.2462	-0.2929	
-0.791292	0.593896	0.174338	-4.34	-12.46	28.98	0.2984	-0.2507	-0.2854	
-0.798368	0.599752	0.197884	-5.18	-11.76	27.72	0.2956	-0.2535	-0.284	
-0.804468	0.59719	0.207034	-4.69	-11.48	27.02	0.3016	-0.2569	-0.2871	
-0.795562	0.609634	0.195688	-5.39	-11.97	25.48	0.2897	-0.2534	-0.2886	
-0.788608	0.619638	0.200812	-5.88	-11.48	23.03	0.2886	-0.2628	-0.2994	
-0.779336	0.629276	0.205692	-6.58	-9.66	20.79	0.2816	-0.2698	-0.2921	
-0.767014	0.631838	0.214354	-6.37	-10.43	18.13	0.2828	-0.2638	-0.2919	
-0.757986	0.646234	0.211426	-4.48	-9.38	14.91	0.2785	-0.2668	-0.2965	
-0.745054	0.670756	0.19703	-4.06	-8.89	11.69	0.2812	-0.2626	-0.3055	
-0.73078	0.668682	0.212036	-6.37	-7.56	9.17	0.2801	-0.27	-0.2997	
-0.734196	0.666364	0.226066	-6.37	-6.72	6.72	0.274	-0.2639	-0.3071	
-0.718092	0.666608	0.22082	-6.79	-6.09	4.06	0.2712	-0.2682	-0.3042	
-0.688568	0.66185	0.23363	-4.76	-5.39	3.08	0.2712	-0.2682	-0.3057	
-0.679052	0.675514	0.228628	-3.15	-5.67	0.84	0.2728	-0.2698	-0.3042	
-0.670146	0.680638	0.242536	-4.41	-2.31	-1.33	0.2772	-0.2715	-0.3027	
-0.677832	0.679906	0.24095	-4.06	1.19	-3.29	0.2742	-0.2699	-0.3072	
-0.693204	0.68625	0.243878	-3.43	2.66	-4.9	0.2729	-0.2728	-0.3013	
-0.688202	0.681492	0.249124	-2.59	3.01	-6.72	0.2784	-0.2656	-0.3071	
-0.692106	0.680882	0.255346	-0.35	4.48	-8.47	0.2752	-0.2593	-0.3069	
-0.69052	0.666608	0.245952	-0.07	6.65	-10.36	0.2692	-0.2558	-0.2978	
-0.696376	0.64843	0.249368	1.05	7.14	-11.9	0.2811	-0.2577	-0.2932	
-0.69906	0.64477	0.245464	2.31	8.26	-14.07	0.262	-0.2586	-0.3009	
-0.71675	0.654652	0.228872	4.97	10.64	-17.71	0.2778	-0.2517	-0.3022	
-0.737246	0.657702	0.226798	5.95	11.83	-20.86	0.2814	-0.2655	-0.2995	
-0.752862	0.656726	0.221064	6.23	13.16	-23.45	0.2778	-0.2499	-0.293	
-0.762012	0.63928	0.216794	4.13	14.35	-26.11	0.278	-0.2561	-0.2947	
-0.764452	0.637938	0.203862	3.01	15.47	-29.4	0.2956	-0.2554	-0.2962	
-0.775066	0.631228	0.19764	3.92	15.54	-32.13	0.298	-0.2419	-0.2988	
-0.782386	0.607804	0.19825	1.61	16.59	-34.65	0.3073	-0.2542	-0.2901	
-0.78873	0.591456	0.194224	1.54	16.66	-37.52	0.2965	-0.2414	-0.2852	
-0.798856	0.582672	0.177022	2.66	16.8	-39.83	0.3157	-0.2441	-0.2943	
-0.80337	0.57706	0.162504	1.12	17.08	-42.28	0.3137	-0.2331	-0.2849	
-0.808616	0.562054	0.161894	1.47	17.78	-44.1	0.3165	-0.2287	-0.2878	
-0.818742	0.56547	0.157746	-0.42	21	-47.46	0.3192	-0.2241	-0.2816	
-0.827282	0.549976	0.14579	2.8	20.02	-47.95	0.3324	-0.2245	-0.2725	
-0.841922	0.529602	0.146034	3.36	17.71	-51.38	0.3409	-0.2161	-0.2843	
-0.84485	0.511424	0.127734	2.59	18.48	-53.41	0.3482	-0.2162	-0.2768	
-0.85095	0.50752	0.11468	0.63	21.42	-56.14	0.3507	-0.2057	-0.278	
-0.863516	0.48495	0.119438	3.01	20.72	-56.91	0.3575	-0.1935	-0.2655	
-0.884134	0.469212	0.122366	2.73	19.88	-59.15	0.3614	-0.1829	-0.2606	
-0.88938	0.43676	0.09942999	2.87	18.48	-61.67	0.3612	-0.1772	-0.2756	
-0.898652	0.42456	0.084912	-1.54	20.3	-63.28	0.362	-0.1633	-0.2646	
-0.910852	0.401624	0.072224	4.41	17.78	-63.56	0.3623	-0.1695	-0.2678	
-0.939644	0.352458	0.067832	5.32	14.98	-65.94	0.3809	-0.158	-0.2629	
-0.95892	0.339404	0.052704	9.8	10.85	-66.99	0.3909	-0.1524	-0.2627	
-0.979782	0.309758	0.03294	13.93	9.24	-66.5	0.3829	-0.1366	-0.2547	
-1.047614	0.208864	0.03172	0.49	14.14	-70.49	0.3884	-0.129	-0.2484	
-1.080066	0.252418	0.063562	-4.83	16.24	-74.48	0.3896	-0.1231	-0.2528	
-1.034682	0.192272	0.031476	-3.43	16.1	-74.41	0.3913	-0.1277	-0.2484	
-0.998692	0.155794	0.011956	-3.29	16.03	-73.43	0.3993	-0.1097	-0.2448	
-0.976	0.145546	0.036112	-7	16.03	-73.78	0.4015	-0.0917	-0.2488	
-1.006744	0.125904	0.055876	-9.8	16.45	-73.08	0.4072	-0.0888	-0.2472	
-1.031388	0.074054	0.062952	-14.14	14.14	-70.28	0.4063	-0.0689	-0.2436	
-1.021994	0.02196	0.050142	-15.96	14.84	-68.39	0.3999	-0.0562	-0.2326	
-1.034194	0.005124	0.06527	-16.59	13.37	-66.64	0.4128	-0.0494	-0.243	
-1.028948	-0.051606	0.075762	-20.16	10.5	-63.98	0.4078	-0.0338	-0.235	
-1.017846	-0.02928	0.095404	-23.73	7.98	-62.86	0.4042	-0.0198	-0.2301	
-0.998814	-0.036112	0.044286	-3.57	7.21	-58.31	0.4039	-0.0137	-0.2314	
-0.998814	-0.062586	-0.02684	-5.18	4.9	-53.13	0.415	0.002	-0.243	
-0.987956	-0.106994	-0.019276	-8.75	9.94	-46.97	0.4076	0.0025	-0.237	
-0.99186	-0.09357399	0.021106	-7.21	10.85	-41.58	0.3941	0.0093	-0.2338	

-0.999058	-0.07564	0.037698	-7.49	7.91	-32.55	0.4054	0.0197	-0.2244	
-1.01077	-0.09076799	0.037576	-8.54	2.31	-26.88	0.411	0.0255	-0.2272	
-1.015162	-0.098088	0.041358	-10.71	1.82	-23.31	0.4195	0.0327	-0.2255	
-1.01687	-0.101748	0.044652	-10.22	4.76	-20.37	0.4121	0.0345	-0.2269	
-1.02724	-0.115046	0.047336	-9.03	3.36	-17.57	0.4013	0.0472	-0.2281	
-1.033096	-0.12932	0.034404	-6.44	2.24	-14.21	0.4102	0.0438	-0.2267	
-1.04127	-0.126026	0.008662	-3.29	-0.14	-10.99	0.4014	0.0445	-0.2161	
-1.029192	-0.145058	-0.013908	-1.68	-0.07	-7.91	0.4086	0.0483	-0.2311	
-1.015406	-0.13542	-0.0183	1.61	-0.42	-5.11	0.4144	0.0496	-0.2295	
-1.011624	-0.12566	0.001586	3.15	-0.7	-2.38	0.4067	0.0579	-0.2157	
-1.006866	-0.12749	0.001952	2.8	-0.7	0.14	0.404	0.052	-0.2143	
-1.001742	-0.130418	0.00244	2.17	-0.91	2.03	0.4118	0.0408	-0.2222	
-0.995032	-0.124684	0.006222	3.01	-2.24	3.5	0.4	0.0426	-0.2298	
-0.996252	-0.121024	-0.00061	3.29	-1.54	4.76	0.4074	0.0421	-0.2343	

-1.012478	-0.124196	0.005734	0.49	0.35	4.27	0.4044	0.0429	-0.2116	
-1.023702	-0.114314	0.01159	-1.19	0.35	2.87	0.406	0.0412	-0.2177	
-1.02663	-0.088572	0.014396	-1.75	0.07	0.98	0.406	0.0409	-0.2268	
-1.026752	-0.078812	0.00488	0.49	-1.54	-0.63	0.4028	0.0473	-0.2205	
-1.03273	-0.060634	-0.000976	1.82	-2.73	-2.8	0.41	0.0483	-0.2281	
-1.039318	-0.061244	-0.003782	5.74	-3.57	-4.9	0.4158	0.0497	-0.2235	
-1.038952	-0.051728	0.000366	6.02	-2.59	-7.98	0.3912	0.043	-0.2298	
-1.031754	-0.042822	0.00244	4.06	-3.36	-11.41	0.4106	0.0349	-0.2163	
-1.03151	-0.035746	0.002928	4.13	-4.48	-14.84	0.4059	0.0423	-0.2313	
-1.02663	-0.033916	0.001342	3.5	-4.76	-18.34	0.4013	0.0456	-0.2312	
-1.01382	-0.035258	0.009393999	3.08	-5.81	-21.21	0.3937	0.0521	-0.228	
-1.00955	-0.046726	0.01891	1.82	-6.02	-24.22	0.404	0.0513	-0.2371	
-1.018578	-0.066856	0.026108	2.17	-6.65	-27.02	0.4021	0.0623	-0.2277	
-1.015528	-0.091866	0.026718	4.27	-6.3	-30.38	0.4056	0.0483	-0.2356	
-1.00833	-0.102846	0.028426	5.88	-5.74	-33.6	0.3902	0.0658	-0.2306	
-1.029314	-0.125538	0.032086	7.77	-6.02	-35.91	0.3975	0.0669	-0.2351	
-1.02724	-0.160186	0.03965	10.29	-5.67	-38.29	0.3912	0.0762	-0.2394	
-1.008452	-0.184342	0.034038	10.78	-9.24	-38.85	0.3912	0.0763	-0.2333	
-1.008452	-0.21899	0.013054	13.65	-9.31	-39.97	0.3878	0.0871	-0.2361	
-0.999058	-0.220454	0.014274	19.53	-6.16	-41.37	0.3872	0.0991	-0.2418	
-0.99979	-0.207156	0.049898	25.48	-0.84	-41.44	0.3874	0.0962	-0.2373	
-1.003694	-0.243878	0.078934	28.14	-0.49	-40.39	0.3961	0.0985	-0.2463	
-1.008696	-0.25742	0.092354	29.75	-0.91	-41.02	0.3786	0.0963	-0.2449	
-0.982466	-0.268522	0.086498	30.66	-0.35	-41.51	0.3854	0.1065	-0.2491	
-0.970632	-0.253516	0.097844	25.13	-4.97	-41.3	0.3722	0.1074	-0.2415	
-0.948916	-0.2806	0.11285	23.59	-5.46	-41.79	0.3725	0.101	-0.2493	
-0.934398	-0.291458	0.102846	16.31	-10.01	-42.07	0.3706	0.1102	-0.2521	
-0.932202	-0.30927	0.0976	17.29	-10.71	-43.12	0.3687	0.1194	-0.2518	
-0.937204	-0.343064	0.086742	11.55	-9.38	-42.91	0.3598	0.1213	-0.2533	
-0.92598	-0.37149	0.07747	9.38	-12.04	-42.56	0.3564	0.1319	-0.2575	
-0.932934	-0.389668	0.064294	7.49	-11.41	-42.77	0.3506	0.1307	-0.2576	
-0.942572	-0.39894	0.063806	4.83	-11.48	-41.58	0.3523	0.126	-0.2592	
-0.912926	-0.4331	0.077714	3.78	-11.34	-40.25	0.3587	0.1471	-0.254	
-0.89731	-0.439444	0.09882	3.08	-9.24	-40.39	0.3485	0.1459	-0.2602	
-0.890234	-0.41663	0.117852	1.54	-12.18	-40.25	0.3454	0.1491	-0.2601	
-0.882304	-0.423096	0.121146	0.35	-11.48	-39.83	0.332	0.1526	-0.2661	
-0.882548	-0.446764	0.139202	-1.75	-12.32	-38.36	0.3329	0.1663	-0.2626	
-0.869494	-0.47519	0.154696	-5.18	-12.95	-38.01	0.3228	0.1637	-0.2642	
-0.839848	-0.48739	0.159942	-9.38	-14.56	-38.01	0.3181	0.1698	-0.2701	
-0.80642	-0.496418	0.160064	-13.51	-18.41	-38.01	0.3075	0.1764	-0.2684	
-0.81069	-0.502884	0.160674	-13.86	-19.53	-39.55	0.3173	0.1863	-0.2772	
-0.828624	-0.52216	0.169092	-15.33	-18.34	-38.85	0.3141	0.194	-0.2785	
-0.840336	-0.536434	0.150914	-10.71	-15.82	-36.89	0.3069	0.1899	-0.2741	
-0.820694	-0.553392	0.164212	-13.65	-15.61	-35.42	0.2976	0.2024	-0.2768	
-0.786534	-0.549732	0.176656	-13.3	-15.89	-34.79	0.2991	0.2008	-0.2768	
-0.795684	-0.55632	0.180682	-10.85	-16.59	-33.67	0.2898	0.212	-0.275	
-0.813862	-0.568764	0.176046	-9.94	-15.75	-31.78	0.2866	0.2181	-0.2794	
-0.821304	-0.577914	0.169092	-7.91	-11.06	-30.73	0.2897	0.2136	-0.2719	
-0.827404	-0.604022	0.186782	-9.73	-10.99	-28	0.2792	0.2198	-0.2824	
-0.826428	-0.617442	0.183	-7.84	-9.66	-28.14	0.2736	0.2142	-0.2765	
-0.818498	-0.620492	0.207888	2.94	-9.8	-23.66	0.2686	0.2261	-0.2913	
-0.798124	-0.652212	0.265594	-4.62	-10.92	-22.61	0.2731	0.2246	-0.2853	
-0.814716	-0.629398	0.155184	-11.41	-8.4	-16.38	0.2668	0.2341	-0.282	




-0.75884	-0.651846	0.156648	2.8	-7.56	-6.44	0.2579	0.2373	-0.291	
-0.737246	-0.658434	0.167628	2.17	-6.93	-5.11	0.2506	0.2345	-0.2926	
-0.740296	-0.664656	0.174948	-1.61	-7.98	-3.78	0.2476	0.2376	-0.2971	
-0.736148	-0.671366	0.176046	-5.46	-8.33	-1.96	0.2535	0.2361	-0.285	
-0.731268	-0.68442	0.180194	-5.39	-7.49	-0.56	0.2519	0.2392	-0.2864	
-0.719556	-0.68686	0.177266	-4.13	-6.51	0.35	0.252	0.2377	-0.2849	
-0.719556	-0.683688	0.180194	-2.52	-4.48	0.98	0.2489	0.2409	-0.2833	
-0.723338	-0.671244	0.178852	1.47	-1.4	0.42	0.2565	0.2359	-0.2895	
-0.726388	-0.677832	0.196054	2.17	0.21	2.1	0.2488	0.242	-0.2984	
-0.7198	-0.673928	0.201178	3.5	1.12	3.15	0.2635	0.2431	-0.2908	
-0.712602	-0.674416	0.202764	4.2	2.66	4.2	0.2458	0.2442	-0.2802	
-0.714554	-0.67283	0.21106	4.13	3.43	5.53	0.249	0.2376	-0.294	
-0.728584	-0.676612	0.214232	3.43	3.92	6.86	0.2448	0.2333	-0.2896	
-0.735172	-0.665144	0.196542	3.78	5.25	8.61	0.2609	0.2357	-0.288	
-0.735416	-0.654042	0.194712	4.97	7.35	10.15	0.2565	0.2346	-0.2805	
-0.742736	-0.65392	0.193492	5.67	9.03	11.69	0.2569	0.2268	-0.2883	
-0.75396	-0.641964	0.190686	6.16	10.36	13.16	0.2551	0.2345	-0.285	
-0.770064	-0.642452	0.183488	6.86	11.06	15.26	0.2581	0.2328	-0.2866	
-0.777628	-0.626714	0.193492	8.54	12.04	17.36	0.2579	0.236	-0.2819	
-0.791048	-0.611098	0.194712	9.24	13.02	19.6	0.2665	0.2417	-0.2802	
-0.789706	-0.593042	0.200202	8.96	13.23	21.77	0.2689	0.2203	-0.2839	
-0.795318	-0.592676	0.189222	8.26	12.39	24.57	0.2747	0.2215	-0.2838	
-0.798856	-0.587064	0.17812	7.42	12.46	26.74	0.2808	0.2165	-0.2885	
-0.804956	-0.576084	0.173728	7.07	13.09	28.42	0.2825	0.2105	-0.2841	
-0.813496	-0.55754	0.17385	6.44	14.21	30.66	0.2857	0.2058	-0.2828	
-0.820572	-0.55693	0.174094	5.81	14.56	33.11	0.2897	0.2147	-0.2855	
-0.830942	-0.545096	0.160796	5.81	15.05	34.58	0.2947	0.201	-0.2799	
-0.831796	-0.5429	0.15799	5.53	15.68	36.19	0.2889	0.1995	-0.286	
-0.835944	-0.526552	0.162138	4.34	15.61	37.31	0.3051	0.1975	-0.2784	
-0.83692	-0.51301	0.156892	4.76	16.24	38.22	0.3084	0.19	-0.2711	
-0.851804	-0.494466	0.15982	3.29	16.38	39.76	0.3193	0.1756	-0.2775	
-0.858148	-0.483974	0.146644	1.68	16.59	41.58	0.3191	0.1789	-0.2683	
-0.875838	-0.470432	0.142496	0.07	14.98	42.98	0.3284	0.1692	-0.2747	
-0.890478	-0.463722	0.142252	-0.63	14.56	43.19	0.3315	0.1646	-0.2718	
-0.89426	-0.463966	0.127612	-1.68	13.44	43.19	0.3346	0.1602	-0.2598	
-0.912926	-0.43981	0.116266	-1.26	12.32	43.26	0.3413	0.1417	-0.2588	
-0.915	-0.422974	0.095892	-1.4	11.27	42.98	0.3453	0.1523	-0.2539	
-0.93147	-0.408578	0.084058	0.7	11.27	43.26	0.3498	0.1488	-0.2616	
-0.945744	-0.395646	0.077592	-0.21	10.99	43.12	0.3575	0.1409	-0.2603	
-0.947818	-0.37271	0.079178	-0.84	11.34	43.4	0.3576	0.1394	-0.2588	
-0.954772	-0.34465	0.075396	0.56	10.5	44.17	0.352	0.134	-0.2469	
-0.957944	-0.31781	0.072834	0	10.01	45.71	0.3624	0.1286	-0.2576	
-0.961482	-0.308904	0.074298	0.35	9.8	47.18	0.3702	0.1193	-0.2518	
-0.964898	-0.30195	0.07625	-0.42	9.38	48.44	0.3734	0.1129	-0.258	
-0.957578	-0.288652	0.063196	0.49	10.5	48.44	0.3677	0.1102	-0.2551	
-0.964776	-0.274866	0.073932	-2.52	10.85	47.74	0.3709	0.1024	-0.2568	
-0.980026	-0.272304	0.078934	-2.87	10.43	48.09	0.3742	0.0947	-0.2555	
-0.992714	-0.255712	0.066246	-3.43	7.63	48.02	0.3834	0.0854	-0.2482	
-0.989664	-0.250222	0.055632	-8.47	6.23	47.46	0.3805	0.0852	-0.2588	
-0.98271	-0.231922	0.060512	-9.87	5.25	46.9	0.3882	0.076	-0.25	
-0.979172	-0.20496	0.0671	-8.12	5.32	45.85	0.3828	0.0657	-0.2473	
-0.973804	-0.180194	0.062464	-6.72	4.83	45.08	0.3903	0.0621	-0.2534	
-0.982588	-0.171532	0.057096	-5.53	5.39	44.8	0.3965	0.0545	-0.243	
-0.982344	-0.181048	0.075518	-7.07	5.11	44.73	0.3938	0.05	-0.2477	
-0.979782	-0.167994	0.078934	-8.61	4.83	43.75	0.3953	0.0501	-0.2417	
-0.994544	-0.15128	0.072956	-5.67	3.36	42.77	0.3955	0.0455	-0.2418	
-1.006622	-0.12993	0.066124	-4.69	4.69	41.3	0.3973	0.0378	-0.2435	
-1.036268	-0.09942999	0.063684	-3.85	5.32	39.97	0.4065	0.0284	-0.2377	
-1.067256	-0.052094	0.062464	-2.66	7.21	38.92	0.4096	0.0253	-0.2363	
-1.086166	0.00244	0.049898	-4.27	6.72	37.52	0.4058	0.0105	-0.2292	
-1.064328	0.011102	0.027572	-4.9	4.76	35.42	0.4059	0.007	-0.2414	
-1.010404	0.010858	0.015128	-8.68	4.13	32.48	0.4073	0.0099	-0.2458	
-0.995764	0.02623	0.0244	-7.98	4.83	29.12	0.4166	-0.0023	-0.2356	
-1.00711	0.044164	0.029402	-5.39	6.23	27.02	0.4134	0.0052	-0.2414	
-1.009672	0.071004	0.02501	-2.59	6.3	26.53	0.418	-0.0007	-0.231	
-1.013576	0.087352	0.029524	-3.22	6.16	26.81	0.4024	-0.0125	-0.2435	
-1.017114	0.080276	0.046604	-3.43	4.06	26.53	0.4155	-0.0098	-0.2343	
-1.020164	0.05429	0.049898	-2.17	3.43	25.97	0.3988	0.0033	-0.2264	
-1.0126	0.040504	0.047824	-2.52	2.94	24.85	0.4112	-0.0124	-0.2268	
-1.002352	0.025254	0.042578	-1.4	1.33	22.47	0.4116	-0.0218	-0.2346	
-1.00711	0.03111	0.031842	-2.17	1.05	19.88	0.4029	-0.0229	-0.2347	
-1.015284	0.038918	0.02867	-0.7	-1.12	17.43	0.4118	-0.0244	-0.2196	
-1.017602	0.045994	0.017934	1.75	-0.84	14.49	0.409	-0.0292	-0.2318	
-1.032364	0.044286	0.021472	5.39	-0.7	12.46	0.4106	-0.0308	-0.2319	
-1.029802	0.044286	0.019154	6.51	-0.07	10.99	0.4147	-0.025	-0.2347	
-1.017114	0.05551	0.024766	5.74	-0.14	9.45	0.4123	-0.0367	-0.2245	
-1.008208	0.067222	0.030378	5.88	-0.07	7.98	0.413	-0.0188	-0.2345	
-1.015162	0.06832	0.030866	7.56	-1.4	7.35	0.4095	-0.0398	-0.2306	
-1.01016	0.073932	0.020984	8.05	-0.77	7.14	0.414	-0.0434	-0.2413	
-1.010648	0.077592	0.021838	6.72	-0.28	7	0.4139	-0.0402	-0.2367	
-1.014796	0.078934	0.02684	4.97	-0.56	7.56	0.4081	-0.0415	-0.2398	
-1.01443	0.082472	0.027572	3.22	-1.05	8.12	0.4154	-0.0403	-0.2397	
-1.01504	0.08845	0.029768	1.82	-2.59	8.82	0.411	-0.0414	-0.2307	
-1.019066	0.0976	0.025742	0.56	-2.87	9.94	0.4082	-0.0426	-0.2231	
-1.021628	0.096746	0.026596	-0.7	-3.5	11.2	0.4067	-0.0445	-0.2399	
-1.02663	0.078446	0.027694	-2.59	-3.36	13.65	0.4068	-0.0461	-0.2414	
-1.024434	0.06954	0.023302	-2.52	-3.78	14.84	0.4157	-0.0477	-0.2293	
-1.030412	0.076738	0.024522	-1.33	-5.32	16.24	0.407	-0.049	-0.2385	
-1.019676	0.079544	0.024644	-2.52	-5.18	17.71	0.4054	-0.0458	-0.2338	
-1.014918	0.086254	0.028182	-3.29	-5.32	19.46	0.4071	-0.052	-0.234	
-1.007354	0.0976	0.029524	-2.66	-4.69	21.42	0.4104	-0.0597	-0.2327	
-1.01077	0.094306	0.023912	-1.12	-4.97	23.38	0.4045	-0.0594	-0.2342	
-1.015772	0.083448	0.032818	0.56	-4.76	25.69	0.4123	-0.0706	-0.2391	
-1.006866	0.096624	0.045872	1.26	-5.11	27.65	0.4007	-0.07319999	-0.2422	
-0.996618	0.104188	0.041724	2.59	-4.55	29.12	0.4065	-0.0721	-0.2482	
-1.003328	0.117608	0.04514	0.21	-4.06	30.38	0.4044	-0.0896	-0.2275	
-1.013454	0.144692	0.062098	3.5	-4.34	32.13	0.4011	-0.0838	-0.241	
-1.009062	0.169824	0.052216	4.13	-5.74	34.3	0.4001	-0.09429999	-0.2383	
-1.007964	0.169702	0.056364	5.74	-4.97	36.61	0.4031	-0.0945	-0.2398	
-1.007232	0.187026	0.051728	5.67	-3.08	38.5	0.4004	-0.1004	-0.2385	
-1.019554	0.199226	0.068076	3.5	-1.96	40.04	0.4034	-0.1022	-0.2415	
-0.99308	0.206912	0.073932	5.18	-1.61	41.44	0.3933	-0.106	-0.2326	
-0.970388	0.232288	0.08052	8.47	-4.83	42.07	0.3953	-0.1186	-0.2435	
-0.975268	0.252418	0.069784	5.32	-6.02	42.14	0.3971	-0.1246	-0.2377	
-0.973926	0.260714	0.051972	1.89	-4.76	43.26	0.3931	-0.1352	-0.2455	
-0.973072	0.28914	0.039406	-2.87	-3.15	43.61	0.3947	-0.1384	-0.2456	
-0.968802	0.321104	0.035136	-2.73	-1.96	43.4	0.3965	-0.1447	-0.2519	
-0.966972	0.36295	0.047824	-4.62	-3.43	44.73	0.3879	-0.1501	-0.243	
-0.978806	0.359046	0.060146	-6.3	-4.27	45.01	0.3852	-0.1563	-0.2492	
-0.96563	0.377956	0.052216	-10.01	-2.38	44.52	0.3814	-0.1696	-0.2435	
-0.942938	0.38186	0.04392	-12.04	-4.97	44.52	0.3756	-0.171	-0.2497	
-0.932812	0.375394	0.033062	-9.87	-5.88	43.82	0.3756	-0.1711	-0.2512	
-0.911584	0.378688	0.028304	-10.5	-4.48	43.89	0.3685	-0.1768	-0.2483	
-0.893406	0.398574	0.044164	-8.19	-5.95	45.15	0.3789	-0.1788	-0.2514	
-0.890844	0.4148	0.080398	-7	-7.7	45.85	0.3735	-0.1905	-0.2411	
-0.880108	0.432612	0.100894	-7.35	-9.52	46.13	0.3644	-0.1829	-0.2561	
-0.87596	0.447862	0.103212	-6.37	-12.32	47.11	0.3695	-0.1999	-0.2566	
-0.864858	0.44835	0.105408	-6.79	-13.86	48.23	0.3619	-0.1934	-0.2564	
-0.873032	0.473238	0.111996	-6.72	-16.66	49.14	0.3554	-0.213	-0.26	
-0.881328	0.500078	0.112484	-9.1	-17.29	48.02	0.3613	-0.2133	-0.263	
-0.8601	0.50508	0.11346	-7.91	-17.08	47.67	0.3437	-0.2125	-0.2615	
-0.857782	0.524722	0.123098	-11.13	-20.09	46.34	0.344	-0.2203	-0.2663	
-0.838994	0.570472	0.128222	-6.79	-22.19	44.66	0.3368	-0.2228	-0.2618	
-0.84729	0.573888	0.107238	-1.82	-27.37	45.99	0.3339	-0.2244	-0.2664	
-0.827282	0.596092	0.117852	-12.04	-17.5	41.37	0.3302	-0.2411	-0.2715	
-0.826184	0.594506	0.173972	-12.39	-21.21	40.88	0.3258	-0.2409	-0.273	
-0.804834	0.60329	0.169824	-12.74	-22.68	36.89	0.3111	-0.2406	-0.2866	
-0.814106	0.611952	0.130174	-7	-22.96	33.04	0.3183	-0.2378	-0.282	
-0.82411	0.631228	0.150914	-4.48	-20.3	27.79	0.3082	-0.2406	-0.2897	
-0.795928	0.635254	0.174216	-3.78	-21	26.53	0.3028	-0.2523	-0.284	
-0.762622	0.643062	0.185318	-10.64	-24.36	24.5	0.2912	-0.255	-0.2886	
-0.731756	0.6466	0.19215	-12.6	-21.84	22.96	0.3003	-0.2616	-0.2933	
-0.72651	0.638182	0.195444	-12.39	-22.75	21.21	0.2909	-0.2491	-0.2945	
-0.734196	0.643672	0.207644	-13.3	-22.89	19.18	0.2748	-0.2501	-0.3021	
-0.725168	0.661362	0.216306	-12.67	-19.6	18.62	0.281	-0.2579	-0.3008	
-0.720044	0.644038	0.245708	-10.57	-21.77	19.46	0.269	-0.2513	-0.3022	
-0.717726	0.630252	0.23119	-10.92	-19.81	17.15	0.2708	-0.2591	-0.3039	
-0.724436	0.640378	0.252906	-9.45	-14.42	16.94	0.2648	-0.2561	-0.3144	
-0.729438	0.642818	0.26596	-6.51	-14.98	15.54	0.2752	-0.2577	-0.3023	
-0.71614	0.64111	0.257054	-6.65	-13.86	12.95	0.272	-0.2519	-0.3188	
-0.718336	0.658678	0.287066	-5.67	-13.86	11.2	0.2563	-0.2633	-0.3162	
-0.696498	0.669048	0.269986	-5.6	-11.34	8.82	0.2576	-0.2588	-0.3145	
-0.701012	0.665754	0.290482	-6.65	-10.15	6.93	0.2561	-0.259	-0.3251	
-0.697718	0.665998	0.288286	-5.46	-8.4	4.41	0.2504	-0.2617	-0.3222	
-0.684786	0.675392	0.288042	-4.55	-7.07	2.24	0.2543	-0.2514	-0.3264	
-0.682468	0.67954	0.297802	-4.2	-6.16	0.21	0.2487	-0.2571	-0.3221	
-0.678076	0.686982	0.306708	-4.13	-4.13	-1.89	0.2475	-0.263	-0.3207	
-0.671488	0.675514	0.311222	-3.64	-2.24	-4.27	0.2502	-0.2572	-0.3236	
-0.662948	0.67283	0.304756	-3.15	-1.26	-6.72	0.2503	-0.2602	-0.3221	
-0.670878	0.67466	0.299144	-1.47	-0.28	-8.68	0.25	-0.2526	-0.3234	
-0.672586	0.679906	0.304512	-1.89	2.1	-10.43	0.2603	-0.2547	-0.3265	
-0.66673	0.672464	0.320616	-1.61	3.22	-12.32	0.2531	-0.2573	-0.3236	
-0.66551	0.659898	0.320616	-0.07	4.76	-14.7	0.2495	-0.2418	-0.3171	
-0.662094	0.65514	0.289628	2.66	5.04	-16.45	0.257	-0.2469	-0.3248	
-0.67283	0.652456	0.299754	5.53	8.47	-19.53	0.2585	-0.2472	-0.3324	
-0.680028	0.659898	0.294386	11.13	11.13	-22.54	0.2612	-0.2409	-0.3201	
-0.691008	0.650626	0.291214	9.59	13.3	-24.92	0.2704	-0.2487	-0.3142	
-0.732122	0.651602	0.292312	10.15	15.12	-28.77	0.276	-0.243	-0.3171	
-0.72346	0.659654	0.277306	9.03	15.12	-32.13	0.2718	-0.2488	-0.3157	
-0.734318	0.648674	0.271572	7.91	15.96	-34.72	0.2745	-0.2428	-0.3125	
-0.734684	0.650138	0.264374	6.3	17.36	-37.38	0.2835	-0.2477	-0.3111	
-0.741272	0.632814	0.258518	3.5	19.53	-39.06	0.2889	-0.2371	-0.3032	
-0.750666	0.598776	0.215818	4.13	21.28	-39.69	0.2947	-0.2361	-0.3138	
-0.764208	0.59536	0.23912	3.71	21.84	-41.86	0.2987	-0.2253	-0.3014	
-0.76982	0.585234	0.2257	3.64	20.44	-44.24	0.3043	-0.2194	-0.2981	
-0.78446	0.563152	0.196542	3.01	22.47	-45.5	0.3114	-0.2135	-0.2949	
-0.798124	0.557418	0.195078	2.73	22.75	-47.18	0.3098	-0.2106	-0.3009	
-0.810934	0.54046	0.183976	2.94	23.24	-48.58	0.3217	-0.2141	-0.2995	
-0.84241	0.513376	0.184952	2.59	23.52	-49.77	0.3284	-0.1989	-0.2884	
-0.857294	0.490318	0.163724	1.75	22.26	-51.45	0.3276	-0.2141	-0.2889	
-0.873764	0.474214	0.143106	0.84	21.7	-52.78	0.3398	-0.1935	-0.2928	
-0.881328	0.449082	0.133834	1.33	21.42	-53.76	0.3338	-0.1902	-0.2927	
-0.899628	0.44042	0.128588	2.31	21.63	-54.74	0.3497	-0.1845	-0.2834	
-0.900238	0.389058	0.118584	11.83	21	-52.85	0.3494	-0.1768	-0.2786	
-0.931104	0.328424	0.113582	3.43	27.02	-59.5	0.3461	-0.1689	-0.2724	
-0.960384	0.339038	0.143106	8.96	24.99	-60.41	0.3636	-0.1651	-0.2737	
-0.96014	0.329522	0.12627	5.53	26.6	-62.93	0.3719	-0.1545	-0.2628	
-0.997228	0.275964	0.102846	10.71	26.25	-62.3	0.3675	-0.1529	-0.2658	
-1.013332	0.282186	0.09076799	4.48	32.9	-62.44	0.3834	-0.1473	-0.2565	
-1.002352	0.23973	0.097234	2.1	28.28	-60.76	0.3824	-0.1262	-0.2635	
-0.976854	0.227408	0.099308	1.05	24.01	-61.95	0.3914	-0.1309	-0.2545	
-0.974536	0.203252	0.084302	2.17	22.26	-60.27	0.3939	-0.1186	-0.2466	
-1.015162	0.174826	0.052094	1.96	21.98	-59.43	0.3977	-0.1064	-0.2386	
-1.04371	0.141154	-0.001708	-4.34	25.83	-59.29	0.3987	-0.0945	-0.2459	
-1.043832	0.117974	0.011834	-7.56	24.99	-57.82	0.4074	-0.0933	-0.2443	
-1.015162	0.130052	0.044164	-5.74	20.3	-55.79	0.4054	-0.0808	-0.2364	
-0.98393	0.11468	0.066002	-0.28	9.31	-52.22	0.4011	-0.0822	-0.2379	
-1.004304	0.102114	0.06344	7.56	-0.35	-50.33	0.4033	-0.0671	-0.2375	
-1.04249	0.077836	0.039406	7.98	-5.32	-47.04	0.4043	-0.0552	-0.2462	
-1.028826	0.080398	0.032452	4.2	-6.23	-45.01	0.4041	-0.0518	-0.2325	
-0.998936	0.062586	0.021228	-1.19	-2.17	-44.03	0.4022	-0.0411	-0.2352	
-1.011746	0.056242	0.018056	-5.25	1.12	-43.68	0.4116	-0.0555	-0.2432	
-1.01992	0.047336	0.035502	-9.38	6.3	-43.75	0.3949	-0.0425	-0.2398	
-1.01016	0.019642	0.03965	-6.44	5.53	-41.72	0.3997	-0.0183	-0.2376	
-1.015406	0.033062	0.035136	-2.94	4.9	-39.55	0.4027	-0.0197	-0.2285	
-1.016138	0.010858	0.040138	-0.63	4.34	-35.14	0.4098	-0.0144	-0.2435	
-1.02541	-0.014152	0.06405	3.43	3.78	-31.57	0.4095	-0.0066	-0.2387	
-1.005768	-0.006222	0.063562	0.35	2.66	-28.77	0.4063	-0.002	-0.2401	
-1.018212	-0.009028	0.024522	-4.41	2.38	-25.34	0.3973	0.0031	-0.2355	
-1.029436	-0.032086	0.03599	-3.36	1.82	-21.35	0.4062	0.0028	-0.2309	
-1.030778	-0.037088	0.028548	-3.64	3.64	-18.76	0.4033	0.0013	-0.2355	
-1.03029	-0.03843	0.041846	-6.23	2.45	-15.68	0.4046	0.004	-0.243	
-1.021262	-0.043554	0.04514	-7.63	-0.77	-12.88	0.4086	0.0147	-0.2366	
-1.026386	-0.050752	0.044042	-6.23	-2.52	-10.64	0.416	0.0112	-0.2382	
-1.025776	-0.060756	0.050996	-3.85	-2.73	-8.75	0.3925	0.0138	-0.2397	
-1.003084	-0.060268	0.011712	-1.05	-2.94	-6.86	0.4097	0.0226	-0.2243	
-1.00894	-0.066856	0.025742	2.03	-0.21	-4.83	0.4012	0.0151	-0.2336	
-1.020408	-0.075396	0.028426	1.47	0.77	-3.64	0.3982	0.0167	-0.2335	
-1.019188	-0.082594	0.025864	1.4	-0.63	-3.15	0.3954	0.0139	-0.2321	
-1.021872	-0.08479	0.03172	1.26	-3.01	-2.59	0.4086	0.013	-0.2427	
-1.023702	-0.072346	0.034038	2.17	-2.94	-2.94	0.4041	0.0164	-0.2351	
-1.011136	-0.045262	0.030256	3.22	-1.4	-3.5	0.4027	0.015	-0.2351	
-1.010526	-0.036844	0.03416	2.94	-0.91	-4.13	0.4101	0.013	-0.2382	
-1.010648	-0.03904	0.038186	2.31	-1.47	-5.11	0.4073	0.0083	-0.2474	
-1.003084	-0.036966	0.035868	3.22	-1.82	-7.07	0.3995	0.0196	-0.2395	
-1.001864	-0.031964	0.03904	3.57	-2.03	-9.73	0.4027	0.0149	-0.2381	
-0.999912	-0.02745	0.050874	4.2	-2.03	-12.67	0.4039	0.0209	-0.2379	
-1.006256	-0.017446	0.05429	4.48	0	-15.68	0.4023	0.024	-0.2394	
-1.007354	-0.012444	0.05063	3.85	2.1	-18.55	0.4067	0.0236	-0.2454	
-1.010648	-0.01037	0.04819	2.73	2.1	-20.93	0.4021	0.0287	-0.2362	
-1.011746	-0.016714	0.055144	0.14	1.05	-23.1	0.4082	0.0238	-0.2363	
-1.00894	-0.016836	0.058804	-3.01	0.77	-25.06	0.4046	0.0374	-0.245	
-1.009306	-0.021838	0.06734399	-1.68	1.05	-27.09	0.4033	0.0332	-0.233	
-1.004426	-0.046238	0.056364	0	1.4	-29.33	0.4004	0.0332	-0.2376	
-1.013576	-0.056608	0.05307	2.38	0.77	-32.41	0.4056	0.0483	-0.2356	
-1.00711	-0.075762	0.049288	4.06	1.33	-35.7	0.3939	0.0472	-0.2372	
-0.980026	-0.100162	0.039284	3.5	2.66	-39.06	0.3965	0.0565	-0.2294	
-0.976732	-0.103578	0.043432	2.87	1.47	-42.28	0.4004	0.067	-0.226	
-0.98942	-0.117608	0.044896	4.13	2.8	-45.08	0.4008	0.0577	-0.2308	
-1.006744	-0.144082	0.04636	5.04	2.94	-46.9	0.3927	0.0763	-0.2333	
-1.025898	-0.214598	0.025376	5.39	3.01	-47.81	0.3882	0.0781	-0.2287	
-1.02907	-0.241438	0.009272	1.05	2.31	-49.28	0.3876	0.0902	-0.2329	
-1.039684	-0.23424	0.0427	1.54	3.15	-49.35	0.3979	0.0909	-0.245	
-1.023824	-0.241926	0.039406	5.95	4.27	-49.42	0.3782	0.1044	-0.2295	
-0.997716	-0.251686	0.034038	11.06	4.48	-50.26	0.384	0.1072	-0.2279	
-0.969534	-0.278892	0.031598	11.34	3.43	-52.22	0.3702	0.1198	-0.2351	
-0.970754	-0.305244	0.024522	8.61	-0.56	-52.92	0.3774	0.1241	-0.232	
-0.976488	-0.331352	-0.002684	3.29	-3.22	-53.9	0.3831	0.1269	-0.2334	
-0.95587	-0.3477	-0.01769	0.63	-5.11	-54.53	0.3666	0.1353	-0.2301	
-0.955138	-0.355386	-0.015738	1.47	-4.2	-54.74	0.3631	0.1489	-0.2404	
-0.94672	-0.38674	0.00732	8.47	-3.29	-54.04	0.3615	0.1504	-0.2403	
-0.921222	-0.42212	0.05002	14.56	-4.2	-54.53	0.354	0.1539	-0.2372	
-0.976976	-0.42517	0.049166	5.88	-8.61	-52.43	0.3537	0.1613	-0.2446	
-0.9333	-0.47519	0.046726	1.47	-10.71	-49.84	0.3459	0.1724	-0.2412	
-0.895602	-0.525942	0.051606	4.83	-8.89	-49.56	0.3522	0.1615	-0.2415	
-0.881084	-0.561078	0.048922	6.44	-8.26	-49.28	0.3429	0.1742	-0.2381	
-0.873886	-0.543632	0.0549	7.77	-6.86	-47.95	0.3308	0.1823	-0.2379	
-0.851682	-0.548146	0.062342	16.73	-8.4	-43.33	0.3274	0.1914	-0.2452	
-0.86193	-0.565714	0.07869	19.95	-7.35	-40.25	0.3231	0.1901	-0.2438	
-0.878034	-0.537898	0.099064	18.48	-4.34	-37.45	0.3229	0.1944	-0.2527	
-0.82777	-0.542534	0.123586	19.6	-13.16	-34.16	0.3125	0.1963	-0.2557	
-0.804712	-0.547658	0.12749	14.35	-15.82	-34.23	0.3151	0.2038	-0.2555	


-0.777384	-0.583526	0.129686	4.41	-11.55	-30.17	0.2988	0.2073	-0.266	



-0.769332	-0.555222	0.138958	2.59	-15.75	-24.36	0.2821	0.22	-0.2733	
-0.772992	-0.548024	0.14884	1.82	-15.61	-22.33	0.2854	0.2121	-0.2765	
-0.771284	-0.520574	0.192028	-9.66	-20.65	-20.51	0.2805	0.2228	-0.2838	
-0.78995	-0.592554	0.158112	-12.53	-18.06	-17.99	0.2804	0.226	-0.2776	
-0.767868	-0.63684	0.185318	-13.65	-18.69	-17.64	0.2879	0.2212	-0.2747	
-0.77531	-0.675758	0.15738	-16.24	-15.61	-17.22	0.273	0.2275	-0.2897	
-0.771894	-0.68259	0.180072	-7.7	-14.14	-16.73	0.2696	0.2387	-0.2758	
-0.76738	-0.681004	0.162626	-2.17	-17.43	-13.51	0.2579	0.236	-0.2804	
-0.759938	-0.669902	0.15433	-0.07	-14.91	-11.41	0.2595	0.2327	-0.2881	
-0.784094	-0.674538	0.152134	1.61	-10.99	-9.66	0.2591	0.2433	-0.2893	
-0.784704	-0.663558	0.157624	0	-9.87	-6.44	0.2507	0.2349	-0.2774	
-0.766892	-0.67466	0.174948	-0.98	-9.24	-3.15	0.2522	0.2329	-0.2926	
-0.746884	-0.676124	0.171654	-0.77	-7.91	-0.77	0.2515	0.248	-0.2967	
-0.741272	-0.67161	0.17385	-1.61	-6.79	1.68	0.2573	0.2497	-0.2831	
-0.73993	-0.66917	0.18483	-1.82	-4.2	3.85	0.2558	0.2511	-0.2876	
-0.730414	-0.66612	0.18788	-2.73	-3.29	6.02	0.2565	0.236	-0.2835	
-0.730536	-0.666974	0.181048	-5.04	-1.89	8.05	0.243	0.2411	-0.2864	
-0.729438	-0.667584	0.193004	-3.71	-0.63	9.73	0.2545	0.2469	-0.2801	
-0.732854	-0.673562	0.19886	-2.87	1.4	11.34	0.2548	0.2408	-0.2788	
-0.726144	-0.674782	0.194712	-2.8	2.73	13.09	0.2508	0.2315	-0.2897	
-0.724558	-0.670268	0.19581	-1.82	3.36	14.98	0.2653	0.2354	-0.2895	
-0.735172	-0.6649	0.186904	-1.12	4.76	17.01	0.2629	0.2237	-0.2777	
-0.74359	-0.652822	0.192882	-0.21	6.86	18.97	0.2566	0.2328	-0.2911	
-0.749812	-0.645868	0.197884	1.82	8.54	21	0.2637	0.2387	-0.2834	
-0.758474	-0.643062	0.19215	3.36	9.45	23.17	0.2625	0.2311	-0.2881	
-0.76311	-0.635254	0.183488	5.39	10.29	25.34	0.2627	0.2281	-0.2837	
-0.778848	-0.629886	0.18117	7.84	12.67	28.56	0.2692	0.2141	-0.2871	
-0.791414	-0.613172	0.174704	9.73	13.58	30.87	0.281	0.2121	-0.2856	
-0.805932	-0.60329	0.169946	12.32	13.09	32.62	0.287	0.2086	-0.2887	
-0.815814	-0.582306	0.161528	13.65	13.72	34.09	0.2919	0.1981	-0.2769	
-0.8296	-0.568764	0.157014	14.98	14.42	35.7	0.3034	0.2033	-0.2919	
-0.829234	-0.53802	0.160064	14.77	14.28	36.61	0.2889	0.1981	-0.283	
-0.840214	-0.529236	0.16165	16.59	14	38.22	0.299	0.2019	-0.2919	
-0.846802	-0.523746	0.144936	15.96	15.33	39.27	0.304	0.1897	-0.2877	
-0.837652	-0.510204	0.126392	14	14.28	39.41	0.3149	0.1756	-0.2836	
-0.843752	-0.489464	0.128588	13.44	14.14	39.48	0.3133	0.1788	-0.2805	
-0.842288	-0.4819	0.122	11.83	14.7	39.9	0.3225	0.1692	-0.2838	
-0.87779	-0.462014	0.123098	11.62	16.66	40.39	0.33	0.166	-0.2778	
-0.887794	-0.43737	0.125172	9.24	17.43	40.6	0.3298	0.169	-0.2792	
-0.899994	-0.421754	0.141276	6.79	16.31	41.86	0.3367	0.1457	-0.2859	
-0.898896	-0.413458	0.13786	3.78	15.47	42.21	0.3395	0.1488	-0.2798	
-0.90402	-0.415898	0.12444	2.8	13.65	42.35	0.3396	0.1457	-0.2799	
-0.913658	-0.408578	0.118096	0.35	13.09	42.91	0.3445	0.1366	-0.2741	
-0.926712	-0.377102	0.12078	-3.92	13.23	42.77	0.3343	0.1341	-0.2711	
-0.939522	-0.366244	0.107482	-2.52	14.84	42.49	0.3522	0.1273	-0.2668	
-0.94733	-0.360754	0.123586	-3.22	13.86	42.91	0.36	0.1176	-0.2731	
-0.948184	-0.33123	0.108336	-5.74	13.79	43.75	0.3572	0.1133	-0.2687	
-0.956358	-0.325496	0.099308	-5.46	11.48	44.8	0.3664	0.1054	-0.2658	
-0.952088	-0.318908	0.090036	-9.1	10.92	44.87	0.3679	0.1041	-0.2553	
-0.958676	-0.303902	0.082716	-11.13	9.03	44.66	0.3819	0.0851	-0.2619	
-0.969046	-0.29341	0.06832	-11.06	9.87	44.45	0.3761	0.0841	-0.2528	
-0.988444	-0.27694	0.069906	-10.5	9.24	44.66	0.3747	0.084	-0.2589	
-0.986126	-0.265594	0.05612	-10.01	8.96	44.45	0.3835	0.0837	-0.2543	
-0.983198	-0.24949	0.047214	-10.22	7.07	44.45	0.3837	0.0791	-0.2545	
-0.98942	-0.229726	0.049898	-10.43	8.68	43.61	0.3898	0.0728	-0.2531	
-0.989786	-0.210084	0.047458	-11.2	6.86	44.1	0.3832	0.058	-0.2505	
-0.994422	-0.195566	0.041602	-11.83	6.37	44.66	0.3814	0.0658	-0.2458	
-0.995276	-0.183732	0.032086	-14.07	5.04	45.71	0.3863	0.0532	-0.2522	
-0.995642	-0.202032	0.029402	-16.52	4.27	46.34	0.3953	0.05	-0.2432	
-0.999424	-0.19398	0.037576	-20.16	4.34	46.27	0.3971	0.0424	-0.2434	
-0.990518	-0.193004	0.027084	-20.44	3.08	45.99	0.3971	0.041	-0.2359	
-0.984784	-0.196176	0.047336	-17.71	2.52	45.64	0.4001	0.0392	-0.2435	
-0.986858	-0.15738	0.042944	-12.95	2.8	44.45	0.4017	0.0375	-0.245	
-0.994666	-0.121512	0.040992	-7.91	3.5	44.24	0.4033	0.0331	-0.2376	
-0.999302	-0.09394	0.048312	-4.83	4.9	44.8	0.3934	0.0257	-0.2469	
-1.00589	-0.067954	0.060146	-2.94	5.11	46.13	0.4015	0.0089	-0.2383	
-1.043222	-0.03477	0.062952	-2.66	4.97	46.62	0.4151	-0.0009999999	-0.2446	
-1.088484	0.02501	0.05124	-0.84	3.64	46.69	0.4049	-0.002	-0.2447	
-1.07177	0.051484	0.02989	-3.08	2.1	46.9	0.4024	-0.0125	-0.242	
-1.00772	0.018788	0.029524	-7.56	-0.14	46.34	0.4174	-0.0193	-0.2452	
-0.992592	0.039406	0.01769	-12.81	-0.14	42.63	0.4045	-0.0279	-0.2454	
-1.017602	0.077348	0.026596	-14.21	0.35	39.13	0.415	-0.0315	-0.2485	
-1.013454	0.149938	0.013176	-11.76	1.33	37.59	0.4134	-0.0296	-0.2379	
-1.006134	0.179706	-0.002318	-6.93	2.31	38.29	0.4092	-0.0341	-0.2441	
-1.00711	0.197396	0.059536	-5.67	-3.57	38.85	0.4152	-0.0373	-0.2396	
-1.005158	0.160186	0.063318	-5.46	-3.71	37.17	0.4158	-0.0496	-0.243	
-1.004182	0.136396	0.062464	-5.74	-1.82	33.74	0.4188	-0.051	-0.2355	
-1.000156	0.148108	0.045384	-6.79	-2.87	29.89	0.4055	-0.0491	-0.243	
-1.009672	0.162382	0.016104	-1.47	-3.22	25.41	0.4099	-0.0494	-0.246	
-1.016626	0.181048	-0.001708	-1.26	-2.73	21.77	0.4092	-0.0677	-0.2496	
-0.98515	0.186416	0.02501	-3.85	-0.28	17.57	0.4015	-0.0582	-0.2478	
-0.981734	0.192638	0.024278	-0.77	0.7	13.86	0.4091	-0.0662	-0.2496	
-0.993568	0.196176	0.012688	3.01	1.05	10.22	0.4096	-0.0752	-0.2453	
-1.001986	0.19764	0.015128	4.34	0.35	7.42	0.4135	-0.0645	-0.2359	
-1.00711	0.190808	0.01525	3.85	1.4	5.39	0.4061	-0.06439999	-0.2435	
-1.009672	0.188368	0.027938	1.61	1.89	3.71	0.4108	-0.0704	-0.2345	
-1.014308	0.19154	0.03782	-0.91	1.96	2.03	0.4123	-0.0704	-0.2345	
-1.012966	0.2013	0.0305	-2.8	0.63	0.49	0.4108	-0.0704	-0.2361	
-1.005402	0.206912	0.024034	-4.06	-0.28	-1.05	0.408	-0.0735	-0.2407	
-1.007964	0.203374	0.01586	-4.48	-0.91	-2.38	0.4139	-0.0739	-0.2452	
-1.015772	0.187514	0.023546	-5.18	-1.26	-3.36	0.4135	-0.0646	-0.2404	
-1.019188	0.176168	0.030012	-7	-1.68	-4.69	0.4097	-0.0783	-0.2484	
-1.013942	0.163724	0.01525	-8.47	-2.66	-5.95	0.4048	-0.0672	-0.2375	
-1.017602	0.153232	0.021228	-9.1	-2.38	-7.21	0.4075	-0.0611	-0.2343	
-1.027362	0.144936	0.031354	-10.29	-3.22	-8.4	0.4085	-0.0525	-0.2507	
-1.013942	0.140422	0.01769	-10.57	-2.52	-9.45	0.403	-0.0596	-0.2403	
-1.02175	0.124806	0.018544	-7.63	-1.26	-10.22	0.4106	-0.0647	-0.2495	
-1.015162	0.125172	0.013908	-5.53	-1.54	-11.13	0.416	-0.0542	-0.2447	
-1.010892	0.122244	0.007808	-1.19	-1.19	-11.97	0.4013	-0.0537	-0.2492	
-1.007964	0.11712	0.030866	0.7	-1.33	-12.04	0.4114	-0.0492	-0.2354	
-0.993202	0.114558	0.058072	0.63	-1.82	-12.39	0.4083	-0.0462	-0.2429	
-0.980392	0.103212	0.05795	1.12	-2.8	-12.67	0.4009	-0.0444	-0.2444	
-1.001864	0.089304	0.063928	1.68	-2.73	-12.53	0.4057	-0.0553	-0.2477	
-1.010038	0.088572	0.06832	1.47	-3.5	-12.81	0.4096	-0.0436	-0.255	
-1.008696	0.089426	0.071736	-0.63	-3.36	-12.88	0.4097	-0.0449	-0.2489	
-1.01382	0.08784	0.080398	-1.19	-4.41	-12.53	0.4052	-0.0431	-0.2474	
-1.012112	0.085278	0.073566	-0.84	-4.69	-12.39	0.3993	-0.0429	-0.2489	
-1.00406	0.086132	0.064782	0.56	-2.73	-11.97	0.4002	-0.0292	-0.247	
-0.993202	0.090524	0.061366	1.12	-0.21	-11.41	0.4007	-0.0413	-0.2443	
-0.99125	0.082838	0.07124799	2.03	1.96	-10.64	0.4019	-0.0353	-0.2441	
-0.9882	0.081984	0.093086	2.45	3.5	-10.15	0.4003	-0.032	-0.2365	
-0.984052	0.07564	0.116632	1.12	1.96	-9.59	0.4047	-0.0322	-0.238	
-0.972584	0.069418	0.117242	1.4	1.4	-9.59	0.4106	-0.0312	-0.2455	
-0.966362	0.056608	0.102968	3.22	2.8	-9.8	0.4136	-0.0342	-0.2411	
-0.979782	0.033916	0.091012	4.97	4.48	-9.87	0.4146	-0.0237	-0.2438	
-0.995032	0.033916	0.097112	4.27	5.88	-10.5	0.4103	-0.0252	-0.2484	
-0.987834	0.041602	0.080154	3.57	4.13	-10.71	0.4146	-0.0236	-0.2392	
-0.990152	0.050508	0.081008	4.34	4.2	-10.01	0.4016	-0.0277	-0.2454	
-0.992958	0.050874	0.07259	4.83	6.16	-9.24	0.4119	-0.0282	-0.2454	
-0.988688	0.04697	0.062586	4.34	9.1	-8.54	0.4103	-0.0251	-0.2453	
-0.979782	0.04148	0.058438	2.8	11.62	-8.33	0.4057	-0.0217	-0.2407	
-0.982832	0.030378	0.058804	4.06	12.39	-8.19	0.4102	-0.0219	-0.2392	
-0.992958	0.026474	0.056852	5.46	11.27	-8.19	0.4116	-0.0217	-0.2301	
-1.009916	0.02257	0.048556	5.18	10.29	-7.91	0.41	-0.0186	-0.233	
-1.009306	0.01952	0.02196	2.94	10.29	-7.7	0.4117	-0.0231	-0.2286	
-1.03883	0.02257	0.002196	1.82	10.85	-7.07	0.4101	-0.0199	-0.2255	
-1.053592	0.029768	-0.012322	-0.77	11.55	-5.95	0.4084	-0.0139	-0.2314	
-1.045662	0.034648	-0.028792	-2.59	13.3	-5.88	0.4128	-0.0154	-0.2239	
-1.028094	0.037698	-0.037942	-2.66	12.88	-5.53	0.4187	-0.0155	-0.2178	
-1.021018	0.029768	-0.03782	0.07	11.76	-5.18	0.4217	-0.0158	-0.2223	
-1.013698	0.017812	-0.03294	0.42	14.07	-6.02	0.4201	-0.0143	-0.2268	
-1.003694	0.016714	-0.024034	1.19	12.32	-6.44	0.4156	-0.0123	-0.2147	
-1.010038	0.012932	-0.02013	2.03	10.43	-6.37	0.4157	-0.0139	-0.2193	
-1.020774	0.013908	-0.030744	-0.21	10.92	-5.88	0.4187	-0.0138	-0.2117	
-1.027972	0.018056	-0.051484	0.21	11.83	-5.04	0.4256	-0.0052	-0.2175	
-1.035048	0.024522	-0.06466	1.19	11.9	-4.55	0.4197	-0.0049	-0.216	
-1.051884	0.022204	-0.06161	1.33	10.22	-3.92	0.4215	-0.0124	-0.2116	
-1.058472	0.017568	-0.054534	-1.96	8.68	-3.01	0.4156	-0.0123	-0.2147	
-1.05896	0.01159	-0.05673	-3.57	8.12	-3.01	0.4199	-0.0079	-0.216	
-1.0492	0.012932	-0.048556	-4.27	7.7	-2.03	0.4287	-0.0098	-0.2131	
-1.034682	0.003538	-0.051606	-3.29	3.36	-1.19	0.423	-0.0123	-0.2041	
-1.028948	-0.007076	-0.06344	-2.52	3.64	-1.89	0.4241	-0.0049	-0.2099	
-1.024068	-0.011102	-0.061	-1.82	1.05	-2.03	0.4287	-0.0079	-0.2009	
-1.01809	-0.009272	-0.067954	0	1.12	-2.38	0.4273	-0.0094	-0.2009	
-1.017236	-0.004392	-0.0732	0.63	0.49	-2.17	0.4211	-0.0015	-0.2007	
-1.029924	-0.000854	-0.07515199	0	0.14	-1.82	0.4256	-0.005	-0.2114	
-1.032974	-0.003538	-0.08295999	-0.21	0.14	-1.4	0.4227	-0.0063	-0.2084	
-1.026996	-0.013054	-0.0854	0.7	0.42	-1.33	0.4271	-0.0065	-0.2069	
-1.029558	-0.012932	-0.088816	1.19	0.14	-1.4	0.418	0.0014	-0.2082	
-1.039074	-0.002196	-0.086742	0.91	-0.28	-1.33	0.4225	-0.0018	-0.2098	
-1.043954	0.01037	-0.07564	0.35	-1.89	-1.05	0.4274	-0.0124	-0.201	
-1.036024	0.006588	-0.071614	0.84	-2.87	-0.7	0.4185	-0.0106	-0.2055	
-1.030412	0.00366	-0.073078	1.96	-4.41	-0.28	0.4197	-0.0047	-0.2099	
-1.025898	-0.00061	-0.063806	3.36	-5.04	0.14	0.4253	0.0011	-0.2067	
-1.03334	-0.005124	-0.056974	3.08	-6.37	0.56	0.4195	-0.0001	-0.2098	
-1.033462	-0.00549	-0.046238	1.4	-7.42	0.49	0.4227	-0.0062	-0.2024	
-1.031144	0.000854	-0.031598	0.63	-8.68	0.56	0.4214	-0.0093	-0.2085	
-1.034804	0.005124	-0.025376	0.28	-10.85	0.91	0.4213	-0.006	-0.2008	
-1.032974	0.006588	-0.03294	0.7	-13.3	1.26	0.4287	-0.01	-0.2191	
-1.036512	-0.001586	-0.040016	0.07	-14.98	1.61	0.4212	-0.0051	-0.2205	
-1.03456	-0.005124	-0.041724	-1.19	-14.91	2.24	0.4182	-0.0032	-0.2129	
-1.036146	0.00305	-0.020252	-1.96	-15.12	2.24	0.4228	-0.0081	-0.2176	
-1.042978	0.011224	-0.015616	-2.73	-16.31	2.24	0.417	-0.0093	-0.2146	
-1.042856	0.012566	-0.022448	-2.31	-18.69	2.66	0.4094	-0.0033	-0.228	
-1.055178	0.00915	-0.020008	-1.89	-20.09	3.15	0.4174	-0.0204	-0.23	
-1.043222	0.005734	-0.040016	-1.4	-19.53	3.78	0.4077	0.0013	-0.2264	
-1.022604	-0.000732	-0.028304	-1.54	-17.22	3.78	0.4096	-0.0079	-0.2312	
-1.022238	0.003172	-0.004636	-1.96	-18.48	3.57	0.413	-0.0204	-0.2361	
-1.003572	0.004026	0.00915	0.56	-20.86	3.57	0.42	-0.0117	-0.2404	
-1.005768	-0.00122	0.021472	2.24	-21.14	3.57	0.3993	-0.0092	-0.2388	
-1.004914	0.005734	0.038064	0.7	-21.28	3.71	0.4038	-0.0114	-0.254	
-1.014796	0.006954	0.060024	0.7	-21.21	3.43	0.4024	-0.0129	-0.2556	
-1.015162	0.016836	0.079178	-0.21	-21.77	3.5	0.3948	-0.0066	-0.26	
-1.027118	0.013664	0.069296	-0.21	-23.31	3.57	0.3963	-0.0065	-0.2539	
-1.02785	0.011712	0.065392	-1.26	-25.13	3.64	0.3952	-0.0158	-0.2618	
-1.023214	0.012078	0.051362	-0.28	-24.29	3.43	0.3936	-0.0139	-0.2541	
-1.025532	0.018788	0.055022	1.75	-23.24	3.15	0.3923	-0.0172	-0.2648	
-1.021262	0.022448	0.067588	2.87	-22.47	3.43	0.3975	-0.0023	-0.2659	
-1.011624	0.02928	0.096624	2.73	-23.8	3.57	0.3792	-0.0199	-0.274	
-0.991616	0.027938	0.109922	4.34	-25.13	3.22	0.3863	-0.0142	-0.2738	
-0.976	0.037698	0.110776	9.66	-26.04	4.41	0.3807	-0.0201	-0.2755	
-0.990762	0.015128	0.097844	12.95	-27.16	4.48	0.3807	-0.0202	-0.2801	
-0.99735	0.03355	0.126148	3.92	-20.23	3.5	0.3819	-0.016	-0.2921	
-1.000156	0.038918	0.171898	2.59	-22.26	3.71	0.378	-0.0262	-0.2803	
-0.990396	0.038674	0.16897	-0.14	-23.8	3.78	0.3762	-0.0187	-0.2876	
-0.992836	0.030622	0.170312	0.21	-25.48	3.85	0.3676	-0.023	-0.2923	
-1.014796	0.039162	0.17934	0.21	-27.58	3.85	0.3707	-0.0279	-0.3	
-0.988566	0.03965	0.189222	2.17	-27.93	3.99	0.3688	-0.0187	-0.2997	
-0.971974	0.031476	0.209718	6.58	-28.7	4.55	0.3634	-0.0278	-0.3061	
-0.962824	0.033916	0.204716	6.09	-26.04	3.85	0.3616	-0.0215	-0.3029	
-0.97234	0.043798	0.226554	6.93	-22.33	4.06	0.3572	-0.0214	-0.3044	
-0.968802	0.063196	0.219844	6.72	-20.3	4.41	0.3499	-0.0226	-0.3075	
-0.964776	0.018422	0.273402	4.06	-18.62	5.32	0.3513	-0.02	-0.3195	
-0.955992	0.039284	0.289628	-0.28	-19.39	3.92	0.349	-0.0366	-0.3185	
-0.947696	0.030134	0.273646	0.21	-22.47	3.22	0.3414	-0.0304	-0.3259	
-1.00406	0.04331	0.258396	-4.13	-20.3	0.56	0.3457	-0.0272	-0.3152	
-0.992958	0.045994	0.240828	-11.55	-17.57	-0.56	0.3353	-0.0255	-0.3227	
-0.958676	0.05307	0.268766	-6.51	-18.9	1.19	0.3454	-0.0195	-0.3119	
-0.932934	0.05429	0.298778	-2.8	-17.71	1.19	0.3366	-0.0208	-0.318	
-0.9333	0.038308	0.30378	4.69	-15.82	0.21	0.3357	-0.0333	-0.329	
-0.936716	0.03172	0.292678	-2.45	-10.15	-1.19	0.337	-0.0287	-0.3289	
-0.94245	0.050508	0.345016	-1.12	-7.98	-2.52	0.3367	-0.0226	-0.3272	
-0.926346	0.034526	0.33245	-2.59	-11.48	-1.75	0.3297	-0.03	-0.3304	
-0.95709	0.028548	0.313662	-0.77	-14.77	-1.05	0.3385	-0.0304	-0.332	
-0.95953	0.039162	0.29951	2.8	-14.7	-0.42	0.3296	-0.0285	-0.3319	
-0.954162	0.026474	0.302682	0.91	-15.19	-0.42	0.3337	-0.023	-0.3439	
-0.959286	0.034648	0.288774	14.28	-31.43	3.43	0.3324	-0.0259	-0.3424	
-0.975024	0.0488	0.297436	14.28	-36.96	3.36	0.3223	-0.0302	-0.3486	
-0.962824	0.047214	0.32391	10.57	-36.54	3.64	0.3194	-0.0318	-0.3563	
-0.950624	0.059292	0.313906	7.63	-32.2	3.43	0.315	-0.0299	-0.3517	
-0.956724	0.042578	0.343796	12.67	-35.28	4.27	0.3107	-0.0346	-0.3609	
-0.935008	0.048556	0.32208	7.7	-41.37	4.97	0.3062	-0.0314	-0.3638	
-0.974292	0.051484	0.325252	9.1	-45.71	5.18	0.2978	-0.0401	-0.3626	
-0.950502	0.059658	0.360144	9.45	-48.44	5.74	0.2962	-0.0388	-0.3732	
-0.973804	0.059048	0.34953	7.56	-51.59	6.3	0.2932	-0.0356	-0.37	
-0.950136	0.063074	0.363072	8.89	-51.45	6.02	0.2861	-0.0431	-0.3794	
-0.951844	0.066978	0.404918	7.07	-49.7	5.88	0.2702	-0.0483	-0.375	
-0.930982	0.065636	0.43859	7.84	-51.38	5.95	0.2716	-0.0457	-0.387	
-0.89914	0.065026	0.464454	7.21	-52.57	6.02	0.263	-0.0499	-0.3887	
-0.859612	0.06039	0.474336	6.79	-53.06	6.16	0.2524	-0.0436	-0.3961	
-0.852048	0.073444	0.491904	6.02	-51.31	6.79	0.2499	-0.0525	-0.3949	
-0.842654	0.07564	0.49471	4.97	-48.86	6.58	0.2456	-0.0571	-0.4011	
-0.853146	0.077348	0.527772	4.41	-47.04	7.35	0.2323	-0.0552	-0.4071	
-0.830088	0.080764	0.547902	4.62	-45.5	7.14	0.2306	-0.0491	-0.4099	
-0.80398	0.076006	0.572302	4.97	-45.85	6.23	0.2265	-0.0568	-0.4208	
-0.786046	0.089914	0.575474	4.69	-43.26	6.02	0.2132	-0.0532	-0.4222	
-0.787998	0.096624	0.607194	6.3	-41.65	5.04	0.2029	-0.0527	-0.4222	
-0.766038	0.10248	0.597312	3.92	-37.59	5.18	0.1999	-0.0513	-0.4282	
-0.762866	0.108946	0.604998	3.64	-39.34	5.6	0.1938	-0.0463	-0.4251	
-0.748348	0.11041	0.6222	3.01	-35.14	5.04	0.1902	-0.0659	-0.4256	
-0.75396	0.10675	0.638182	1.75	-32.48	5.46	0.1903	-0.0678	-0.4363	
-0.745176	0.10614	0.635376	2.17	-28.42	4.97	0.1813	-0.0625	-0.4271	
-0.73261	0.108092	0.654652	2.17	-25.97	4.9	0.1856	-0.0613	-0.4316	
-0.751886	0.116022	0.652944	1.19	-23.87	4.13	0.161	-0.0695	-0.4379	
-0.731512	0.122854	0.66185	0.77	-22.96	3.78	0.1595	-0.0681	-0.4424	
-0.742248	0.116876	0.68442	0.07	-20.72	3.57	0.1683	-0.0683	-0.4379	
-0.732366	0.11407	0.667706	-0.56	-18.83	3.43	0.1608	-0.0633	-0.4332	
-0.7259	0.120536	0.685762	0.42	-16.66	2.59	0.1607	-0.062	-0.4422	
-0.721264	0.121756	0.693936	0.21	-14.98	2.24	0.1548	-0.0602	-0.4407	
-0.71492	0.120658	0.692472	-1.05	-13.72	1.61	0.152	-0.0631	-0.4408	
-0.708698	0.119072	0.700158	-1.19	-11.97	1.33	0.1519	-0.0614	-0.4347	
-0.703818	0.115168	0.701378	-1.68	-9.8	1.05	0.1536	-0.0677	-0.4379	
-0.7015	0.118706	0.711382	-1.05	-7	0.07	0.1432	-0.06439999	-0.4469	
-0.697108	0.11773	0.714676	-0.98	-5.39	-0.21	0.1492	-0.0659	-0.4378	
-0.69479	0.108458	0.719434	-1.4	-3.85	-0.56	0.1491	-0.0647	-0.4469	
-0.689178	0.11407	0.715652	-0.84	-2.1	-0.84	0.1533	-0.0602	-0.4437	
-0.687958	0.118096	0.715896	-0.49	-0.14	-1.33	0.1448	-0.0673	-0.4394	
-0.690276	0.118828	0.723338	-0.35	1.54	-1.54	0.1417	-0.0642	-0.4423	
-0.68686	0.123098	0.72895	0.28	2.45	-1.82	0.1431	-0.0612	-0.4407	
-0.675514	0.124684	0.724436	-0.63	3.64	-2.59	0.1503	-0.0586	-0.4437	
-0.671122	0.119804	0.727974	-1.26	5.81	-3.15	0.1457	-0.0539	-0.4481	
-0.67344	0.112362	0.73139	-1.33	9.17	-3.64	0.1457	-0.0538	-0.442	
-0.676124	0.107238	0.732	-0.77	12.46	-3.99	0.1549	-0.0631	-0.4347	
-0.672708	0.11102	0.725778	-0.42	16.45	-3.99	0.1573	-0.0511	-0.4389	
-0.67527	0.106262	0.719922	0.35	20.02	-4.27	0.1564	-0.0648	-0.4408	
-0.67893	0.110776	0.711748	0.7	23.45	-4.41	0.1592	-0.062	-0.4422	
-0.69357	0.109678	0.70272	0.7	26.67	-5.53	0.1648	-0.0544	-0.436	
-0.694668	0.102358	0.692472	-0.07	30.38	-5.11	0.1708	-0.058	-0.4436	
-0.713578	0.104676	0.68198	-0.56	34.02	-5.81	0.1693	-0.0561	-0.4345	
-0.721996	0.096624	0.66795	-0.98	37.1	-6.16	0.1723	-0.0592	-0.4315	
-0.745786	0.102602	0.641232	-0.07	43.05	-7.14	0.1868	-0.0537	-0.4298	
-0.752862	0.099796	0.6283	-0.77	45.99	-7	0.1914	-0.0586	-0.4315	
-0.763232	0.092598	0.613538	-1.33	49.21	-7.77	0.2025	-0.0435	-0.4189	
-0.770674	0.09394	0.590968	-1.33	52.08	-7.84	0.2119	-0.0577	-0.4239	
-0.784826	0.094306	0.573034	-1.47	54.67	-8.12	0.2174	-0.0487	-0.4175	
-0.79666	0.089182	0.554246	-3.01	57.82	-7.98	0.2279	-0.055	-0.4086	
-0.811544	0.080642	0.533262	-3.43	60.83	-7.98	0.2291	-0.0491	-0.4145	
-0.822768	0.08113	0.512278	-3.5	63.84	-7.28	0.2544	-0.0558	-0.3949	
-0.837652	0.078568	0.49166	-2.45	66.36	-7.21	0.2453	-0.0493	-0.3948	
-0.845948	0.069052	0.474824	-3.29	68.18	-7.14	0.2575	-0.0588	-0.389	
-0.857904	0.06344	0.45018	-3.78	70.84	-6.79	0.2672	-0.047	-0.3856	
-0.870836	0.05246	0.433344	-7.42	70.49	-6.51	0.2733	-0.0515	-0.3751	
-0.887184	0.046604	0.414068	-10.78	69.72	-6.23	0.292	-0.0418	-0.3778	
-0.891454	0.05856	0.39711	-16.1	72.87	-5.53	0.298	-0.0447	-0.3642	
-0.899628	0.056364	0.39284	-12.81	69.65	-4.27	0.299	-0.0342	-0.367	
-0.9028	0.052704	0.375638	-7.98	59.85	-3.71	0.3124	-0.039	-0.3535	
-0.921832	0.052826	0.335012	-8.54	54.18	-4.13	0.3243	-0.0427	-0.3566	
-0.925126	0.044164	0.302194	-10.78	54.74	-4.13	0.3195	-0.0329	-0.3411	
-0.922442	0.043066	0.292312	-11.13	53.69	-3.43	0.3346	-0.0425	-0.3353	
-0.94062	0.029036	0.236192	-0.98	49.35	-3.99	0.3448	-0.0414	-0.3323	
-0.934276	0.037088	0.23546	-2.73	53.27	-3.57	0.3462	-0.0381	-0.3231	
-0.941962	0.042822	0.228872	-7.63	51.59	-3.36	0.353	-0.0259	-0.3106	
-0.95465	0.037088	0.189222	-3.99	48.93	-3.01	0.3666	-0.0341	-0.3093	
-0.972462	0.045262	0.145058	-1.96	49.35	-2.87	0.3681	-0.0355	-0.3048	
-0.996252	0.019642	0.123586	-2.31	55.09	-2.38	0.374	-0.0356	-0.2972	
-1.00223	0.035868	0.112362	-4.83	54.39	-3.64	0.3739	-0.034	-0.2941	
-1.0126	0.047458	0.092354	-1.26	53.27	-3.92	0.3869	-0.0283	-0.2864	
-1.012112	0.02684	0.072346	6.65	50.12	-3.57	0.3884	-0.0295	-0.2758	
-1.001864	0.013298	0.054778	9.45	55.51	-4.06	0.3914	-0.0294	-0.2652	
-1.024068	0.02257	0.027572	-0.91	54.11	-3.57	0.3853	-0.0243	-0.256	
-1.008086	0.043676	0.017812	1.75	49.77	-4.34	0.4013	-0.0219	-0.2559	
-1.033218	0.059414	-0.031598	0.91	46.83	-4.48	0.4087	-0.0238	-0.2544	
-1.05469	0.049166	-0.04758	1.33	43.19	-2.38	0.3986	-0.0261	-0.2454	
-1.055178	0.030744	-0.028914	-1.75	48.09	-1.68	0.4102	-0.0235	-0.2438	
-1.039684	0.021106	-0.037576	-1.96	45.78	-2.31	0.4202	-0.0158	-0.2238	
-1.017968	0.023546	-0.070394	5.81	52.5	-6.16	0.4174	-0.0203	-0.227	
-0.988566	0.0061	-0.09076799	9.31	43.47	-6.93	0.4297	-0.0316	-0.2288	
-1.005768	0.026962	-0.091134	3.36	43.19	-7.63	0.4193	-0.0277	-0.2181	
-1.006988	0.041358	-0.095892	0.42	40.46	-6.93	0.4279	-0.0232	-0.2044	
-1.0126	0.04697	-0.096746	2.31	39.76	-6.09	0.4282	-0.0307	-0.2015	
-1.02419	0.038674	-0.088938	5.95	38.15	-5.6	0.4283	-0.032	-0.194	
-1.036634	0.034404	-0.093452	2.66	33.81	-4.69	0.4429	-0.0311	-0.1909	
-1.041148	0.03904	-0.106384	3.01	34.65	-4.62	0.438	-0.0185	-0.1845	
-1.040294	0.05246	-0.129808	2.8	31.01	-3.22	0.4394	-0.0186	-0.1875	
-1.047858	0.049776	-0.137738	-0.63	30.1	-1.96	0.4456	-0.0247	-0.1771	
-1.05469	0.025986	-0.12505	-0.07	24.71	-0.98	0.444	-0.0213	-0.1664	
-1.039074	0.007198	-0.131028	0.63	21.49	-1.12	0.4486	-0.0263	-0.1756	
-1.029314	0.025132	-0.143594	2.31	20.37	-1.96	0.4471	-0.0245	-0.168	
-1.023946	0.02745	-0.149084	5.18	18.9	-2.38	0.4459	-0.0304	-0.1636	
-1.030534	0.042822	-0.156526	9.52	20.3	-4.83	0.4458	-0.0287	-0.1575	
-1.040416	0.037698	-0.202764	1.05	19.74	-1.68	0.4452	-0.015	-0.1571	
-1.022238	0.01891	-0.168482	3.43	13.79	-1.82	0.4423	-0.0165	-0.1602	
-0.996862	0.014396	-0.205204	7.7	13.44	-3.78	0.444	-0.0207	-0.1482	
-1.013088	0.010736	-0.223382	6.93	16.17	-3.22	0.447	-0.0206	-0.1391	
-1.00528	0.0122	-0.236924	7.35	17.78	-4.2	0.46	-0.0168	-0.1451	
-1.003816	0.013054	-0.22387	1.26	16.52	-2.94	0.4472	-0.0269	-0.1469	
-1.010892	0.015372	-0.227286	1.4	13.93	-2.52	0.4575	-0.0272	-0.1393	
-0.996496	-0.000976	-0.22875	4.69	15.82	-3.85	0.4515	-0.024	-0.1438	
-1.002718	-0.003294	-0.260592	0.63	11.2	-2.17	0.4497	-0.0161	-0.1375	
-0.994178	-0.00732	-0.25498	0	12.6	-2.52	0.4637	-0.0352	-0.1441	
-0.996984	-0.004026	-0.256566	-0.07	13.09	-2.45	0.4614	-0.0152	-0.1405	
-0.996496	0.001952	-0.250588	-0.14	9.94	-2.52	0.4469	-0.0187	-0.127	
-1.00772	-0.006832	-0.284138	3.15	12.11	-2.45	0.4539	-0.0113	-0.1222	
-1.00467	-0.009028	-0.242292	9.66	15.12	-4.55	0.4585	-0.0163	-0.1314	
-1.00833	-0.018544	-0.269132	5.46	9.45	-3.29	0.4513	-0.0188	-0.1239	
-1.011136	-0.008052	-0.2684	8.05	8.54	-4.27	0.4618	-0.024	-0.1271	
-1.028826	0.01037	-0.272548	10.22	4.97	-2.66	0.4599	-0.0132	-0.1253	
-1.021628	-0.004758	-0.283284	5.88	9.45	-1.19	0.4543	-0.0188	-0.1179	
-0.991738	-0.013298	-0.251076	-0.7	5.39	0.42	0.4612	-0.0102	-0.1267	
-0.98027	-0.02501	-0.257664	-0.42	4.2	-0.42	0.4555	-0.0145	-0.1238	
-0.970876	-0.02135	-0.25986	1.47	3.57	-1.4	0.4583	-0.0116	-0.1252	
-0.98271	-0.016226	-0.264008	0.21	4.41	-1.4	0.4674	-0.0178	-0.1148	
-0.987224	0.00183	-0.271572	-2.38	7.35	-0.7	0.4706	-0.0226	-0.1195	
-0.985394	0.005734	-0.274134	-4.48	6.23	0.07	0.4571	-0.0158	-0.1163	
-0.984418	-0.005612	-0.263154	-4.06	6.44	1.12	0.4545	-0.0249	-0.118	
-0.99308	-0.011468	-0.242658	-2.17	5.53	0.14	0.4526	-0.014	-0.1132	
-1.021384	-0.006466	-0.248392	-1.54	3.43	0.28	0.4657	-0.013	-0.1086	
-1.017236	0.01891	-0.233508	-2.1	2.87	0.14	0.4599	-0.0128	-0.1131	
-1.023336	0.022082	-0.259494	-0.07	3.15	0.35	0.4646	-0.0207	-0.1134	
-1.024312	0.011712	-0.278282	0.63	0.98	0.98	0.4573	-0.0217	-0.1073	
-1.023824	-0.005124	-0.283894	-0.28	2.73	1.12	0.4571	-0.0157	-0.1132	
-1.01809	-0.006588	-0.25254	-0.07	2.38	0.77	0.4631	-0.0188	-0.1042	
-1.006378	-0.001708	-0.271572	0.63	1.68	0.56	0.454	-0.0124	-0.1071	
-0.992592	-0.004758	-0.277916	6.37	1.12	-0.42	0.4631	-0.0191	-0.1133	
-0.987956	-0.004758	-0.290238	-0.98	-0.49	-0.63	0.4631	-0.019	-0.1103	
-0.981734	0.002196	-0.289994	-1.4	0.98	0.07	0.4601	-0.019	-0.1148	
-0.98088	-0.002806	-0.286822	-0.42	1.33	-0.28	0.4675	-0.0193	-0.1133	
-0.988078	0.000976	-0.302804	1.19	-2.73	-0.56	0.4498	-0.0168	-0.1072	
-0.986492	-0.009028	-0.322324	0.49	-2.31	-0.14	0.4618	-0.0237	-0.1165	
-0.992592	-0.003172	-0.30378	-2.1	-0.77	0.49	0.4528	-0.0186	-0.1133	
-0.994544	-0.001952	-0.285724	-1.26	-3.43	0.98	0.4585	-0.0145	-0.1192	
-0.997838	-0.016714	-0.297192	-2.17	-3.99	1.4	0.4556	-0.016	-0.1238	
-1.004914	-0.0122	-0.288896	-2.1	-3.71	1.05	0.4539	-0.0111	-0.1146	
-1.014674	-0.008784	-0.279258	-0.84	-4.27	0.7	0.4614	-0.0145	-0.1162	
-1.01382	0.000244	-0.278404	-1.26	-6.23	0.84	0.4557	-0.0171	-0.1087	
-1.021872	0.000976	-0.30805	-1.61	-7	0.84	0.4615	-0.0176	-0.1163	
-1.00894	0.004758	-0.27877	-4.34	-7.21	1.12	0.4555	-0.0126	-0.1131	
-1.016382	0.005734	-0.27877	-3.64	-12.11	1.47	0.4569	-0.0131	-0.1253	
-1.015162	0.001708	-0.285846	1.26	-12.81	1.82	0.454	-0.0127	-0.1162	
-1.00955	-0.004026	-0.270962	-1.61	-15.33	2.8	0.4527	-0.0173	-0.1208	
-1.017602	0.00549	-0.257664	-8.96	-17.43	3.29	0.4644	-0.0165	-0.1284	
-1.016748	0.00976	-0.254492	-11.06	-21.07	3.71	0.4598	-0.0116	-0.1237	
-1.016016	0.012444	-0.263032	-8.4	-23.73	3.99	0.4601	-0.0195	-0.1315	
-1.019066	0.012322	-0.254126	-6.93	-25.55	4.2	0.4544	-0.0223	-0.1331	
-1.021384	0.009881999	-0.234728	-4.76	-29.19	3.5	0.4574	-0.0242	-0.1407	
-1.02053	0.021838	-0.236558	-2.8	-28.35	3.29	0.4555	-0.0151	-0.145	
-1.038586	0.007686	-0.246806	6.44	-26.11	2.52	0.4512	-0.0164	-0.1435	
-1.029314	-0.001464	-0.233752	1.33	-26.18	3.29	0.4482	-0.0151	-0.1556	
-1.042002	0.024888	-0.221552	-4.76	-32.13	3.01	0.4572	-0.0201	-0.1588	
-1.044076	0.024156	-0.198738	-4.62	-32.83	2.87	0.4503	-0.0305	-0.1606	
-1.050786	0.027328	-0.179584	-9.31	-33.88	3.5	0.4381	-0.0208	-0.1588	
-1.044442	0.026718	-0.169336	-11.9	-35.07	3.85	0.4425	-0.0196	-0.1633	
-1.045052	0.020374	-0.159454	-12.81	-37.24	3.92	0.4351	-0.0197	-0.1785	
-1.049078	0.00915	-0.171776	-9.03	-37.66	3.01	0.4383	-0.026	-0.1817	
-1.047858	0.01281	-0.160796	-2.73	-39.9	3.29	0.4411	-0.0231	-0.1816	
-1.045906	0.010004	-0.16775	0.07	-44.45	3.29	0.4338	-0.023	-0.1907	
-1.032852	0.01342	-0.137372	-2.73	-42.28	2.52	0.4268	-0.032	-0.197	
-1.031754	0.018788	-0.113094	-4.27	-44.38	2.38	0.4263	-0.0201	-0.2073	
-1.035658	0.032696	-0.092842	-4.13	-45.99	2.94	0.4307	-0.0221	-0.2149	
-1.030656	0.024034	-0.084546	-3.92	-48.3	3.71	0.4158	-0.0169	-0.2163	
-1.027972	0.010004	-0.049044	-4.48	-47.25	3.15	0.4264	-0.0237	-0.2256	
-1.03151	0.014274	-0.038796	-3.57	-49.98	2.8	0.4116	-0.0205	-0.2437	
-1.023214	0.018666	-0.035014	-9.24	-49.98	2.94	0.4118	-0.0249	-0.2378	
-1.0126	0.017934	-0.017202	-5.25	-49.21	2.8	0.4059	-0.0248	-0.2423	
-0.995886	0.020252	0.010492	-2.03	-50.4	2.52	0.4061	-0.0313	-0.2576	
-0.98942	0.004758	0.01098	0	-46.48	2.38	0.3954	-0.0201	-0.2528	
-0.98942	0.016348	0.069418	2.66	-46.62	1.89	0.3833	-0.0139	-0.2693	
-0.987346	0.02745	0.084668	0.14	-46.76	1.61	0.3854	-0.0262	-0.2712	
-0.979782	0.02989	0.0976	0.42	-49.91	2.1	0.3806	-0.0188	-0.2846	
-0.980514	0.026108	0.123342	-1.96	-50.47	2.87	0.3744	-0.011	-0.2874	
-0.96502	0.020374	0.131882	-0.07	-49	3.43	0.369	-0.023	-0.2908	
-0.95099	0.022692	0.177632	0.63	-48.72	3.22	0.3708	-0.0292	-0.2925	
-0.9333	0.039406	0.213866	6.09	-53.83	3.57	0.3704	-0.0203	-0.3013	
-0.93147	0.044896	0.218502	20.3	-50.26	3.43	0.3542	-0.0199	-0.3104	
-0.91683	0.035746	0.233142	17.43	-49.35	4.76	0.3486	-0.0257	-0.3121	
-0.92293	0.047214	0.243878	13.3	-41.79	5.32	0.3488	-0.0305	-0.3183	
-0.93025	-0.006344	0.297436	11.34	-40.6	4.83	0.3416	-0.035	-0.326	
-0.913292	0.041358	0.299876	-13.44	-33.04	1.4	0.3345	-0.0391	-0.3231	
-0.906826	0.02928	0.271572	-12.46	-36.96	0.77	0.3372	-0.0351	-0.3366	
-0.89548	0.066246	0.352458	8.82	-36.82	3.15	0.3282	-0.03	-0.335	
-0.906094	0.087962	0.394426	5.95	-43.4	6.3	0.3311	-0.0303	-0.3395	
-0.90707	0.039162	0.335256	11.41	-44.31	7.49	0.3225	-0.0347	-0.3457	
-0.908778	0.051606	0.353678	7.91	-43.68	7.35	0.3096	-0.0418	-0.349	
-0.905606	0.042456	0.445056	6.86	-47.46	7.7	0.3097	-0.0434	-0.3521	
-0.888526	0.071858	0.351726	1.54	-60.48	6.51	0.2975	-0.0341	-0.3655	
-0.889136	0.069174	0.421266	2.38	-63.77	6.37	0.2876	-0.0428	-0.3672	
-0.871568	0.071736	0.411018	1.26	-58.59	4.83	0.2873	-0.0371	-0.3807	
-0.874374	0.061122	0.441884	0.49	-58.24	5.32	0.276	-0.0455	-0.3734	
-0.864736	0.060634	0.45994	-0.63	-54.04	4.69	0.264	-0.0391	-0.3793	
-0.85705	0.072956	0.479338	-0.7	-51.45	3.22	0.2652	-0.0349	-0.3913	
-0.843874	0.072102	0.500078	-0.77	-48.44	2.17	0.257	-0.0481	-0.3871	
-0.836554	0.067466	0.499956	0.84	-46.48	1.89	0.2446	-0.0343	-0.4034	
-0.834968	0.06734399	0.517646	1.96	-45.22	1.4	0.2479	-0.0423	-0.4127	
-0.831186	0.07442	0.543266	3.08	-44.17	1.33	0.2422	-0.0466	-0.4098	
-0.81801	0.071736	0.5612	2.1	-44.03	1.47	0.2359	-0.0355	-0.4065	
-0.810324	0.05795	0.571326	1.75	-44.24	1.75	0.2244	-0.0411	-0.4067	
-0.806176	0.064172	0.585844	3.99	-43.4	1.96	0.22	-0.0428	-0.4204	
-0.788974	0.071858	0.588284	3.5	-41.37	2.1	0.2141	-0.0413	-0.4294	
-0.784948	0.065636	0.611464	4.69	-40.95	1.61	0.2023	-0.0405	-0.4219	
-0.77714	0.064904	0.615612	4.62	-44.17	1.82	0.2067	-0.0391	-0.4173	
-0.77104	0.069906	0.62952	4.55	-40.11	1.75	0.1866	-0.0507	-0.4313	
-0.755668	0.073444	0.640134	3.78	-39.9	1.89	0.1862	-0.0398	-0.4219	
-0.740662	0.081008	0.659288	5.32	-37.03	2.31	0.1792	-0.0474	-0.4312	
-0.734562	0.08052	0.665144	4.9	-34.79	2.45	0.1675	-0.0484	-0.4327	
-0.728096	0.0793	0.670634	5.67	-31.92	1.12	0.169	-0.05	-0.4343	
-0.718702	0.07991	0.677222	4.06	-30.38	1.4	0.1526	-0.0449	-0.4387	
-0.706502	0.08357	0.67649	4.69	-27.58	1.61	0.1556	-0.0451	-0.4433	
-0.72346	0.089792	0.707844	5.6	-24.99	1.05	0.153	-0.0542	-0.4451	
-0.702354	0.098332	0.709186	4.76	-22.96	1.75	0.1455	-0.0509	-0.448	
-0.701012	0.09089	0.709918	4.06	-20.51	1.47	0.1531	-0.0557	-0.4466	
-0.698816	0.09076799	0.720044	4.48	-18.48	0.91	0.1397	-0.0503	-0.4359	
-0.686982	0.1037	0.726266	3.78	-15.68	0.77	0.1486	-0.0541	-0.4481	
-0.68259	0.105652	0.725412	2.31	-13.23	0.21	0.1386	-0.0598	-0.4528	
-0.672464	0.09467199	0.731024	0.84	-10.43	0.35	0.1338	-0.0518	-0.4465	
-0.66917	0.09882	0.742248	0.14	-7.7	-0.28	0.1266	-0.0545	-0.4466	
-0.663192	0.099552	0.741272	-0.91	-4.83	-0.56	0.1399	-0.0564	-0.4376	
-0.661118	0.101382	0.748958	-1.75	-1.82	-0.91	0.1471	-0.0539	-0.4466	
-0.652212	0.096746	0.75335	-2.52	0.91	-0.91	0.1342	-0.0614	-0.462	
-0.650504	0.097234	0.755912	-2.45	3.5	-1.4	0.1309	-0.0516	-0.442	
-0.649528	0.096258	0.758352	-2.94	6.02	-1.89	0.1397	-0.0507	-0.4495	
-0.645502	0.088572	0.759694	-3.57	11.2	-2.45	0.1442	-0.054	-0.4526	
-0.64538	0.08295999	0.755424	-3.43	14.98	-2.73	0.1323	-0.0503	-0.4495	
-0.6466	0.089548	0.75091	-2.87	18.34	-3.29	0.1443	-0.0554	-0.4481	
-0.653432	0.090036	0.741516	-2.87	22.96	-3.43	0.1425	-0.0476	-0.4449	
-0.666608	0.077958	0.734318	-2.73	27.3	-3.85	0.1454	-0.0477	-0.4419	
-0.67283	0.086132	0.721752	-1.82	31.08	-3.92	0.1488	-0.0585	-0.4422	
-0.686494	0.08174	0.710162	-1.75	34.65	-3.92	0.1586	-0.0482	-0.4388	
-0.698694	0.076982	0.694302	-2.1	37.59	-3.71	0.1572	-0.0495	-0.4358	
-0.710406	0.07381	0.67649	-1.96	40.81	-3.64	0.1643	-0.0422	-0.4326	
-0.724558	0.074176	0.664168	-2.03	42.84	-3.92	0.1761	-0.0439	-0.4205	
-0.73871	0.078202	0.647576	-2.66	47.88	-4.27	0.1863	-0.043	-0.428	
-0.750422	0.07124799	0.626714	-2.8	50.12	-4.2	0.1895	-0.0493	-0.4312	
-0.76311	0.071126	0.604388	-2.17	53.34	-4.41	0.1908	-0.0447	-0.4265	
-0.776896	0.06405	0.585478	-2.52	55.93	-4.48	0.2013	-0.0496	-0.4221	
-0.791292	0.063928	0.56913	-2.17	58.38	-5.11	0.2081	-0.0375	-0.4142	
-0.80093	0.06283	0.546438	-2.1	61.46	-5.25	0.2248	-0.0506	-0.4176	
-0.812154	0.0549	0.521794	-2.38	64.89	-5.46	0.2275	-0.0443	-0.4068	
-0.831918	0.061122	0.501176	-1.26	64.75	-5.46	0.2378	-0.0463	-0.4068	
-0.851316	0.06283	0.47031	-1.4	68.95	-5.32	0.2555	-0.0467	-0.3947	
-0.860466	0.053192	0.44591	0.21	64.26	-3.71	0.2742	-0.0398	-0.3899	
-0.871568	0.049166	0.428586	-3.64	76.58	-6.65	0.2772	-0.0399	-0.3884	
-0.879742	0.041236	0.416142	-2.66	70.07	-5.53	0.2757	-0.0395	-0.3763	
-0.89182	0.043432	0.396256	-7.28	69.02	-4.83	0.2977	-0.0388	-0.3686	
-0.89243	0.047702	0.390522	-7.35	70.42	-4.55	0.2964	-0.043	-0.3581	
-0.905118	0.04941	0.384544	-3.5	61.74	-3.85	0.3137	-0.0347	-0.3609	
-0.907558	0.045262	0.340746	-2.03	53.9	-3.64	0.3208	-0.0302	-0.3517	
-0.917196	0.050264	0.30927	-1.05	52.01	-4.34	0.3171	-0.045	-0.3445	
-0.925492	0.043432	0.282308	-1.96	53.97	-4.06	0.3271	-0.0376	-0.3352	
-0.92171	0.039528	0.289506	-4.76	54.95	-3.64	0.3325	-0.0288	-0.3365	
-0.943792	0.043676	0.237046	-6.09	54.39	-4.97	0.3474	-0.0339	-0.332	
-0.960628	0.036356	0.208986	-4.41	52.99	-4.69	0.3473	-0.0306	-0.3229	
-0.963556	0.04087	0.20191	-5.39	54.88	-4.62	0.349	-0.0349	-0.3124	
-0.961726	0.037942	0.179706	0.21	55.16	-4.9	0.3595	-0.041	-0.2974	
-0.968558	0.03111	0.149938	0.21	54.25	-4.83	0.3666	-0.0354	-0.3018	
-0.980514	0.021594	0.125294	0.7	55.86	-4.48	0.3695	-0.0339	-0.2987	
-0.994056	0.01037	0.111264	-4.55	57.33	-4.55	0.3783	-0.0341	-0.2911	
-1.00589	0.01342	0.068076	-3.5	57.19	-4.55	0.3882	-0.0249	-0.2726	
-1.011502	0.014396	0.056852	-2.03	54.39	-4.69	0.39	-0.031	-0.2728	
-1.030656	0.033306	0.019642	-4.97	51.8	-4.41	0.3899	-0.0292	-0.2637	
-1.034438	0.033916	-0.01464	2.59	46.9	-3.92	0.3942	-0.0263	-0.2605	
-1.03517	0.033428	-0.0366	-0.49	43.82	-3.36	0.4048	-0.0344	-0.2623	
-1.065426	0.017568	-0.065636	-3.08	48.86	-2.59	0.4086	-0.0206	-0.2498	
-1.045906	0.001708	-0.0549	-4.06	52.36	-2.52	0.4072	-0.0217	-0.2392	
-1.028704	-0.013298	-0.083082	-3.92	49.77	-3.5	0.4145	-0.0205	-0.2391	
-1.031876	0	-0.066368	1.26	45.5	-3.78	0.425	-0.0253	-0.2317	
-1.013576	0.009272	-0.104798	0.98	42.7	-4.06	0.4233	-0.0204	-0.2209	
-1.012966	0.01403	-0.11651	1.61	40.95	-3.64	0.4234	-0.0218	-0.218	
-1.014796	0.01647	-0.097234	3.01	43.33	-3.43	0.4219	-0.0199	-0.2073	
-0.987102	0.009272	-0.080398	8.33	44.73	-3.78	0.4275	-0.0156	-0.2057	
-1.00223	0.015738	-0.085156	9.87	37.66	-3.71	0.429	-0.0153	-0.195	
-1.02358	0.001342	-0.084546	14.49	41.02	-5.11	0.4338	-0.023	-0.1907	
-1.052006	-0.001952	-0.0854	11.2	33.11	-4.48	0.4421	-0.0126	-0.1859	
-1.038952	0.011346	-0.091378	5.46	30.17	-4.76	0.4426	-0.0233	-0.1862	
-1.035536	0.036112	-0.104188	4.13	28.63	-4.83	0.4396	-0.0215	-0.1801	
-1.043222	0.0427	-0.102846	4.34	26.25	-3.29	0.4427	-0.0262	-0.1802	
-1.028094	0.013298	-0.133102	8.26	26.81	-2.24	0.4497	-0.0184	-0.1648	
-1.027362	0.01708	-0.162992	6.72	27.02	-2.8	0.4455	-0.0213	-0.1649	
-1.04432	0.02928	-0.17995	3.22	27.65	-3.15	0.4457	-0.0253	-0.1453	
-1.016626	0.022204	-0.144692	6.79	21.91	-2.87	0.4469	-0.0194	-0.1512	
-0.999546	0.019032	-0.194834	7	21.56	-4.69	0.4442	-0.0253	-0.1468	
-1.026142	0.029524	-0.210206	9.45	24.43	-5.32	0.4397	-0.0221	-0.1498	
-1.009794	0.02623	-0.203252	8.96	25.27	-5.6	0.4485	-0.0223	-0.1437	
-1.020042	0.012078	-0.220454	0.56	20.93	-4.13	0.4542	-0.0178	-0.136	
-1.00406	0.009028	-0.245952	-4.2	18.27	-3.5	0.4526	-0.0146	-0.1314	
-0.991494	-0.001342	-0.26108	-0.21	20.72	-3.71	0.4571	-0.0179	-0.1345	
-0.989664	-0.016836	-0.265716	5.11	19.32	-3.36	0.4528	-0.0192	-0.1345	
-0.992104	-0.020374	-0.267668	10.92	19.53	-5.04	0.457	-0.0145	-0.1238	
-0.992104	-0.009272	-0.270718	2.17	17.5	-5.6	0.4617	-0.021	-0.13	
-1.005646	-0.003538	-0.30073	5.53	16.03	-5.95	0.473	-0.011	-0.1327	
-1.010282	-0.010492	-0.296094	7.42	10.5	-5.18	0.4553	-0.0096	-0.113	
-0.995886	-0.019276	-0.29951	8.12	12.46	-6.02	0.4626	-0.0087	-0.1236	
-1.017846	-0.025742	-0.271938	7.42	10.78	-6.09	0.4509	-0.0096	-0.1206	
-1.010526	-0.027938	-0.29219	4.13	8.96	-6.58	0.4584	-0.0129	-0.1162	
-0.984418	-0.012444	-0.327814	0.21	9.94	-5.25	0.46	-0.0156	-0.1041	
-0.971486	-0.00854	-0.31171	-2.17	10.64	-5.04	0.4508	-0.0066	-0.1221	
-0.990762	-0.023912	-0.2989	1.82	9.17	-4.69	0.4525	-0.0123	-0.1071	
-0.999058	-0.030134	-0.294386	0.35	7.21	-4.62	0.4612	-0.0099	-0.1146	
-0.994178	-0.037332	-0.308416	0.42	5.25	-4.06	0.4585	-0.0145	-0.1192	
-0.981124	-0.021228	-0.313296	-3.99	5.39	-3.85	0.4625	-0.0053	-0.1099	
-0.987224	-0.030256	-0.303292	-3.5	6.65	-3.43	0.4627	-0.0098	-0.1085	
-0.999302	-0.023668	-0.299754	-2.38	6.51	-3.01	0.4624	-0.0036	-0.1038	
-0.989542	-0.023302	-0.284382	-2.73	6.37	-2.45	0.4596	-0.0065	-0.1039	
-0.991372	-0.026352	-0.279136	-2.8	4.83	-1.82	0.4581	-0.005	-0.1068	
-0.993324	-0.033062	-0.28304	-2.66	3.01	-1.4	0.4607	0.0009	-0.1052	
-0.989908	-0.042456	-0.286212	-0.77	3.15	-1.33	0.4667	-0.0006	-0.0991	
-1.006256	-0.048922	-0.283284	0	4.62	-1.68	0.4653	-0.0023	-0.1083	
-1.000156	-0.034892	-0.269254	-0.77	2.45	-1.68	0.4642	-0.0113	-0.107	
-1.00345	-0.032818	-0.282186	-0.77	0.63	-1.47	0.4655	-0.0068	-0.1069	
-1.007354	-0.025742	-0.29951	-1.19	-0.7	-0.49	0.4555	-0.0138	-0.1011	
-0.995642	-0.038186	-0.305976	-0.63	-0.42	0	0.4593	0.0011	-0.1006	
-0.99735	-0.037332	-0.310978	-2.45	-1.61	0.84	0.4594	-0.0019	-0.1037	
-0.996008	-0.030134	-0.308904	-2.31	-2.1	1.12	0.4579	-0.0003	-0.1037	
-0.99186	-0.048556	-0.303292	-0.77	-1.26	0.56	0.4682	-0.0007	-0.1006	
-0.992104	-0.045384	-0.292678	-2.1	-2.66	0.91	0.4656	-0.0082	-0.1009	
-0.995032	-0.042578	-0.295728	-3.08	-3.92	0.84	0.4653	-0.002	-0.0992	
-0.997106	-0.037576	-0.306464	-4.9	-5.32	1.26	0.4612	-0.0096	-0.1039	
-1.000034	-0.038186	-0.320738	-3.71	-6.44	1.47	0.455	-0.002	-0.1128	
-0.99979	-0.038064	-0.32757	-3.57	-5.81	1.61	0.4596	-0.0066	-0.1099	
-0.993202	-0.039772	-0.307318	-2.66	-7.14	1.82	0.4711	-0.0009999999	-0.1067	
-0.996984	-0.043432	-0.294508	-0.14	-8.96	1.96	0.4611	-0.0069	-0.116	
-1.003938	-0.033428	-0.297558	0.56	-10.43	1.61	0.4478	-0.0048	-0.1175	
-1.011746	-0.030012	-0.288652	0.7	-11.34	2.1	0.451	-0.0109	-0.1116	
-1.012234	-0.024888	-0.292678	-0.56	-13.02	3.01	0.4579	-0.0024	-0.1234	
-1.006134	-0.02074	-0.298168	-4.69	-14.21	4.27	0.4579	-0.0024	-0.1219	
-1.020286	-0.020984	-0.284626	-3.15	-19.32	5.46	0.4613	-0.0116	-0.1222	
-1.013698	-0.02928	-0.27816	-5.46	-21.14	6.3	0.4612	-0.0102	-0.1237	
-1.017114	-0.012322	-0.273768	-9.87	-22.89	6.58	0.4653	-0.0028	-0.1265	
-1.0248	-0.012932	-0.265838	-10.85	-24.36	6.51	0.4552	-0.008599999	-0.1327	
-1.027484	0.004758	-0.257908	-7.7	-30.1	7.49	0.4508	-0.008599999	-0.1373	
-1.025044	-0.00549	-0.267058	-3.08	-30.38	7.14	0.4615	-0.0168	-0.142	
-1.031388	-0.003294	-0.244488	-1.68	-33.25	6.86	0.4586	-0.0197	-0.1436	
-1.031266	-0.006588	-0.245708	0.49	-31.5	5.32	0.451	-0.0133	-0.1435	
-1.022238	-0.006466	-0.244488	-3.92	-27.51	5.39	0.451	-0.012	-0.151	
-1.014674	0.004026	-0.233264	-3.85	-31.08	5.6	0.4484	-0.0211	-0.1543	
-1.022482	-0.001342	-0.21533	-3.5	-37.45	7.07	0.4483	-0.0182	-0.1587	
-1.019676	-0.010004	-0.197518	-6.37	-33.81	6.65	0.4393	-0.0147	-0.1556	
-1.017724	0.003904	-0.169336	-9.38	-34.72	6.65	0.4439	-0.0183	-0.1694	
-1.026874	0.01342	-0.143228	-10.92	-35.07	6.23	0.4409	-0.017	-0.1799	
-1.021872	0.011712	-0.134322	-8.4	-38.5	6.44	0.435	-0.0169	-0.1875	
-1.029924	0.008905999	-0.137738	-8.12	-39.55	6.37	0.4306	-0.0183	-0.1891	
-1.03456	0.011224	-0.123952	-7.42	-38.36	5.88	0.4324	-0.0246	-0.1953	
-1.035658	0.014518	-0.108214	-7.14	-39.9	5.39	0.4245	-0.0137	-0.1965	
-1.041148	0.020496	-0.092232	-7.56	-40.6	4.55	0.4265	-0.0247	-0.2059	
-1.042856	0.020862	-0.084424	-8.26	-41.86	4.76	0.4275	-0.0156	-0.2057	
-1.040904	0.019398	-0.075518	-7.28	-42.49	5.04	0.426	-0.0142	-0.2117	
-1.045662	0.013786	-0.061488	-6.44	-42.77	4.9	0.4142	-0.0125	-0.2253	
-1.039806	0.02013	-0.039406	-7.28	-43.82	4.34	0.4144	-0.0187	-0.2285	
-1.019676	0.019764	-0.020618	-5.39	-45.78	3.99	0.4084	-0.014	-0.2329	
-0.999058	0.0366	-0.025132	-1.05	-50.96	4.41	0.404	-0.0155	-0.239	
-1.011136	0.074298	-0.050996	4.55	-39.76	5.74	0.4029	-0.0233	-0.2468	
-1.010526	-0.103944	0.040626	3.64	-34.3	5.11	0.4012	-0.019	-0.2588	
-0.994544	0.04331	0.08662	-15.19	-43.4	1.96	0.4016	-0.0281	-0.2576	
-0.996252	0.013176	0.077714	0.77	-49.63	2.59	0.3969	-0.0203	-0.2573	
-0.991982	0.029158	0.07808	-5.39	-47.95	1.4	0.3914	-0.0294	-0.2682	
-0.981002	0.028182	0.094428	3.29	-50.4	1.54	0.3794	-0.0244	-0.2696	
-0.986736	0.03294	0.108092	2.8	-51.94	1.68	0.3793	-0.023	-0.2756	
-0.984296	0.02867	0.132004	1.68	-52.57	2.17	0.3853	-0.0254	-0.2954	
-0.975756	0.025498	0.127978	9.24	-48.02	1.26	0.3765	-0.0263	-0.2863	
-0.971486	0.040748	0.170556	7.35	-51.38	1.75	0.3604	-0.0257	-0.2939	
-0.965386	0.04209	0.16836	7.49	-47.88	1.61	0.3541	-0.0167	-0.3073	
-0.962946	0.03355	0.190564	5.39	-47.32	1.12	0.3514	-0.023	-0.3166	
-0.945134	0.026474	0.204106	0.77	-44.59	0.56	0.3574	-0.0266	-0.3273	
-0.930982	0.030622	0.233752	-3.29	-40.53	0	0.3442	-0.0275	-0.3258	
-0.919758	0.028304	0.244244	-1.47	-40.18	0.14	0.3441	-0.0246	-0.3303	
-0.917074	0.023424	0.283772	4.55	-42.77	1.19	0.3355	-0.0302	-0.3274	
-0.894626	0.03904	0.310978	-0.21	-40.88	1.19	0.3297	-0.0315	-0.329	
-0.89609	0.017446	0.354288	6.58	-48.58	3.99	0.3238	-0.0315	-0.3411	
-0.90341	0.034648	0.37698	0.77	-51.45	4.2	0.3153	-0.0372	-0.3398	
-0.908534	0.056486	0.530578	-9.59	-62.23	4.62	0.3147	-0.0239	-0.353	
-0.89853	0.041114	0.351604	-7.7	-65.73	3.78	0.3122	-0.0347	-0.3624	
-0.887306	0.036844	0.425536	-8.68	-69.44	4.27	0.3091	-0.0301	-0.3668	
-0.876692	0.026474	0.43981	-6.23	-68.6	3.57	0.2839	-0.0245	-0.3713	
-0.859002	0.026352	0.460794	-3.15	-71.05	3.5	0.2827	-0.031	-0.3866	
-0.84729	0.034526	0.483486	-1.12	-69.02	3.08	0.2751	-0.0245	-0.3849	
-0.832528	0.043554	0.50386	0.84	-66.15	2.73	0.2619	-0.0257	-0.3925	
-0.824842	0.042212	0.523136	1.68	-63.84	2.52	0.2608	-0.033	-0.3867	
-0.819596	0.027084	0.53924	2.03	-60.48	2.59	0.2398	-0.0235	-0.4061	
-0.802882	0.031842	0.55571	3.08	-60.34	2.1	0.2279	-0.0216	-0.4107	
-0.804224	0.041968	0.560834	3.64	-57.54	1.75	0.2284	-0.0326	-0.4231	
-0.791048	0.0427	0.572424	2.73	-55.72	2.52	0.2209	-0.0291	-0.4185	
-0.787998	0.038674	0.594384	1.82	-53.55	3.43	0.2062	-0.0286	-0.423	
-0.781288	0.04575	0.604998	1.61	-52.01	3.29	0.1976	-0.0328	-0.4247	
-0.770552	0.05368	0.630374	2.73	-52.64	3.57	0.1919	-0.0355	-0.4217	
-0.742858	0.058926	0.637206	3.64	-47.39	3.99	0.187	-0.0264	-0.429	
-0.708942	0.055266	0.648186	5.11	-45.08	5.11	0.1725	-0.029	-0.4382	
-0.712114	0.058316	0.655994	6.58	-41.16	4.06	0.1612	-0.0407	-0.4386	
-0.727974	0.052582	0.67588	9.8	-40.67	4.55	0.1699	-0.0367	-0.4445	
-0.715042	0.06222	0.689666	6.93	-36.68	4.34	0.1548	-0.0284	-0.4458	
-0.718824	0.055754	0.697962	7.42	-35.49	3.92	0.1538	-0.039	-0.4431	
-0.7015	0.056608	0.702232	7.63	-35.42	4.27	0.1538	-0.0389	-0.4416	
-0.69357	0.071858	0.724314	7	-33.53	4.13	0.1436	-0.04	-0.4432	
-0.673562	0.068808	0.732366	6.3	-31.57	4.41	0.1291	-0.0443	-0.4554	
-0.656238	0.07991	0.73505	5.39	-29.82	4.13	0.1246	-0.0408	-0.4462	
-0.654652	0.08295999	0.746518	4.83	-27.65	4.27	0.1247	-0.0438	-0.4448	
-0.642574	0.080154	0.75274	4.06	-25.13	4.34	0.1246	-0.0411	-0.4568	
-0.631472	0.078202	0.768356	4.13	-22.61	4.2	0.1222	-0.0529	-0.4496	
-0.635376	0.081008	0.778848	4.06	-20.16	3.5	0.1175	-0.0483	-0.454	
-0.625616	0.089304	0.788364	2.45	-17.99	2.94	0.1145	-0.0467	-0.457	
-0.608292	0.084058	0.792512	1.4	-14.84	2.52	0.113	-0.0451	-0.4555	
-0.60451	0.094794	0.800686	1.19	-11.76	2.52	0.106	-0.0523	-0.4542	
-0.591334	0.093696	0.8113	1.47	-7.14	2.1	0.1014	-0.0476	-0.4556	
-0.585356	0.095038	0.809836	1.26	-3.78	1.68	0.1028	-0.0463	-0.4616	
-0.584258	0.096746	0.813984	0.49	-0.21	1.12	0.097	-0.0477	-0.4662	
-0.58438	0.101504	0.809104	0.28	3.22	0.49	0.0911	-0.0487	-0.4586	
-0.585722	0.10004	0.81008	-0.21	6.58	0	0.1088	-0.0497	-0.4662	
-0.583526	0.099918	0.8113	-0.63	9.1	-0.49	0.1015	-0.0508	-0.4602	
-0.583892	0.100528	0.805444	-0.49	12.67	-1.05	0.113	-0.0449	-0.4494	
-0.591578	0.101016	0.804102	-0.56	16.52	-1.82	0.1058	-0.0493	-0.4571	
-0.589626	0.096502	0.79849	-0.07	19.95	-2.03	0.1057	-0.0461	-0.4495	
-0.597434	0.097112	0.788242	0	25.2	-2.73	0.1151	-0.0605	-0.4605	
-0.601948	0.09333	0.779824	-0.56	30.38	-3.15	0.1117	-0.0498	-0.4632	
-0.622566	0.091866	0.76921	0	35.49	-3.85	0.125	-0.0518	-0.4587	
-0.6344	0.086132	0.756278	0.14	39.34	-4.55	0.1292	-0.0456	-0.4494	
-0.646478	0.09162199	0.743224	0	43.4	-4.9	0.132	-0.0444	-0.4569	
-0.661362	0.093818	0.72651	0.28	46.69	-4.83	0.1436	-0.0403	-0.4522	
-0.674782	0.087718	0.707112	-0.14	49.63	-4.9	0.1423	-0.0446	-0.4463	
-0.687592	0.081374	0.686616	-0.98	53.06	-4.76	0.16	-0.0453	-0.4433	
-0.707478	0.081862	0.667462	-1.05	56.35	-4.83	0.1641	-0.0393	-0.4401	
-0.733952	0.077592	0.635864	-0.28	60.69	-5.25	0.1806	-0.0459	-0.4311	
-0.75213	0.07442	0.61549	-0.91	63.91	-5.6	0.1908	-0.0463	-0.4281	
-0.768478	0.072956	0.593652	-1.33	66.43	-6.02	0.1979	-0.0404	-0.4249	
-0.790804	0.07124799	0.569618	-2.03	68.74	-6.93	0.2035	-0.0346	-0.4247	
-0.80337	0.060756	0.538142	-2.66	70.84	-6.65	0.2247	-0.0491	-0.419	
-0.816424	0.05246	0.518622	-3.5	71.05	-6.72	0.2275	-0.0443	-0.4083	
-0.824842	0.05673	0.496418	-2.45	72.73	-6.58	0.2333	-0.043	-0.4052	
-0.83936	0.060268	0.465918	-1.4	73.5	-6.09	0.2433	-0.037	-0.3944	
-0.859978	0.04819	0.443958	-2.45	73.64	-5.95	0.2523	-0.0419	-0.39	
-0.87596	0.047458	0.421022	-3.08	75.39	-6.72	0.2642	-0.0439	-0.387	
-0.891088	0.035868	0.39833	-3.22	73.99	-7.28	0.2729	-0.0409	-0.3778	
-0.897798	0.04636	0.381982	-5.39	73.08	-7.56	0.277	-0.035	-0.3761	
-0.901214	0.063928	0.384422	-5.6	70.42	-7.42	0.3035	-0.0374	-0.364	
-0.906582	0.054412	0.36661	-3.64	65.1	-7.14	0.3022	-0.0406	-0.3732	
-0.906948	0.042334	0.323666	-4.2	59.92	-6.93	0.305	-0.0374	-0.3625	
-0.90707	0.047458	0.306708	-4.9	57.4	-5.11	0.324	-0.0365	-0.3534	
-0.917074	0.03355	0.298656	-3.92	57.68	-5.88	0.3207	-0.027	-0.347	
-0.935496	0.01769	0.22509	-0.98	48.51	-6.02	0.3234	-0.0206	-0.3302	
-0.944646	0.020618	0.241926	-3.36	59.92	-5.53	0.3297	-0.0312	-0.3214	
-0.971364	0.02074	0.21228	0.49	55.16	-5.53	0.3384	-0.0283	-0.3122	
-0.98698	0.021716	0.179828	4.69	53.62	-5.88	0.3503	-0.0303	-0.3107	
-1.000888	0.018788	0.158478	2.38	52.01	-6.02	0.3607	-0.0337	-0.3047	
-0.996252	0.01891	0.152378	-0.7	54.18	-5.95	0.3678	-0.0279	-0.303	
-0.99003	0.022936	0.129808	-3.57	52.85	-5.67	0.3701	-0.0142	-0.2996	
-0.9943	0.01708	0.102602	-2.73	52.57	-5.81	0.3795	-0.0266	-0.2924	
-0.987956	0.005368	0.07515199	-1.96	52.64	-5.6	0.3752	-0.0291	-0.2819	
-0.995764	-0.009638	0.063074	1.54	51.38	-5.74	0.388	-0.0188	-0.274	
-1.014674	0.012322	0.06222	1.82	47.53	-6.09	0.3805	-0.017	-0.2754	
-1.023214	0.012444	0.035014	7.49	41.09	-5.6	0.3969	-0.022	-0.2634	
-1.045052	0.021228	0.00244	7.14	38.29	-5.39	0.3937	-0.0157	-0.2618	
-1.052738	0.0183	-0.043066	8.61	41.09	-5.25	0.3954	-0.0198	-0.2452	
-1.06872	0.0244	-0.03233	8.89	42.7	-5.04	0.4013	-0.0217	-0.2483	
-1.065304	0.019154	-0.043066	3.22	43.33	-4.9	0.4129	-0.0176	-0.2466	
-1.059936	0.014152	-0.0427	-0.49	39.41	-4.97	0.418	-0.0343	-0.238	
-1.042368	0.005978	-0.04575	5.67	40.39	-4.76	0.4192	-0.0281	-0.2303	
-1.009672	0.004514	-0.066734	2.8	34.93	-4.41	0.4086	-0.0198	-0.224	
-0.99552	0.008662	-0.060878	5.04	35	-4.83	0.4201	-0.014	-0.2147	
-1.011258	0.01403	-0.07381	-0.42	28.77	-3.57	0.419	-0.0215	-0.2149	
-1.02358	0.020252	-0.074786	-2.03	28.14	-3.22	0.4308	-0.0236	-0.2135	
-1.030046	0.001708	-0.080764	-1.19	27.23	-2.45	0.4263	-0.02	-0.2012	
-1.031266	0.001708	-0.08601	-0.7	25.06	-2.38	0.4333	-0.0127	-0.2025	
-1.044442	0.003538	-0.101016	0.56	25.69	-2.94	0.4322	-0.0215	-0.1937	
-1.057374	0.011102	-0.105896	0.98	27.23	-3.01	0.4379	-0.0172	-0.1921	
-1.046394	0.011468	-0.12505	-2.8	24.5	-2.17	0.4338	-0.0247	-0.1953	
-1.036878	0.000732	-0.130784	-1.4	25.2	-1.75	0.4363	-0.0139	-0.1859	
-1.024922	-0.003904	-0.130174	1.54	29.26	-2.03	0.4364	-0.0152	-0.1784	
-1.02785	-0.007808	-0.131394	0.77	25.97	-1.75	0.4435	-0.0096	-0.1842	
-1.003328	-0.005978	-0.147498	0.49	26.74	-1.82	0.4362	-0.0121	-0.1783	
-0.982344	-0.009881999	-0.152866	4.06	28.77	-1.89	0.4408	-0.015	-0.1662	
-0.975268	-0.009516	-0.163968	4.34	28.42	-1.82	0.4452	-0.0153	-0.1693	
-0.989908	-0.004026	-0.163602	3.99	28.56	-1.68	0.4381	-0.0193	-0.1603	
-1.0248	-0.003416	-0.17812	3.78	27.16	-0.7	0.4495	-0.0123	-0.1646	
-1.02175	-0.02013	-0.141154	17.08	27.37	-1.12	0.4478	-0.0075	-0.1584	
-1.018456	-0.017446	-0.174582	12.95	19.39	-1.82	0.4482	-0.0149	-0.1496	
-1.08702	-0.006344	-0.233508	7.7	18.9	-2.94	0.4513	-0.0194	-0.1421	
-1.080188	-0.002196	-0.240584	6.16	18.06	-2.17	0.4524	-0.0105	-0.1494	
-1.047736	-0.00488	-0.245098	3.15	18.48	-1.96	0.4569	-0.0135	-0.1404	
-1.003084	0.005002	-0.235094	2.59	16.73	-1.47	0.4465	-0.0098	-0.1358	
-0.953186	-0.008296	-0.215452	5.11	17.01	-1.89	0.4511	-0.0147	-0.1374	
-0.966972	-0.0183	-0.234728	-1.75	10.01	0.35	0.4509	-0.0101	-0.1373	
-0.975756	0.005368	-0.260348	-7.28	8.89	1.12	0.4589	-0.0239	-0.1286	
-0.976732	0.001952	-0.275476	-3.57	8.75	1.26	0.4481	-0.0126	-0.1222	
-0.975634	-0.000122	-0.290116	-1.89	9.59	1.82	0.4455	-0.0201	-0.124	
-0.983076	-0.002074	-0.28243	-0.63	12.74	1.75	0.4586	-0.0179	-0.133	
-0.971486	-0.004392	-0.259738	-0.28	11.97	1.4	0.4585	-0.0147	-0.1283	
-0.96441	-0.002684	-0.247904	-1.61	12.81	1.12	0.4595	-0.0055	-0.122	
-0.98271	0.006222	-0.231312	-5.67	11.27	1.54	0.4571	-0.0178	-0.1315	
-0.980392	0	-0.234972	-5.6	13.79	1.68	0.4498	-0.0186	-0.1179	
-0.978074	-0.003416	-0.23729	-6.3	12.32	2.17	0.4481	-0.0126	-0.1237	
-0.979172	-0.011468	-0.225456	2.31	24.29	0.21	0.4552	-0.0065	-0.113	
-0.987224	0.008052	-0.233996	-5.18	11.76	2.59	0.448	-0.009099999	-0.1085	
-0.999546	0.0061	-0.250344	-2.66	14.56	1.82	0.451	-0.0124	-0.1116	
-1.005646	0.011102	-0.251442	-1.89	12.67	1.75	0.4543	-0.0201	-0.1103	
-1.007232	0.014762	-0.265472	-2.45	13.72	2.03	0.4524	-0.0092	-0.1055	
-1.011014	0.02562	-0.266326	-1.19	14.35	0.98	0.4629	-0.0143	-0.1056	
-0.993934	0.010248	-0.288042	3.22	14.7	0.35	0.4662	-0.022	-0.1058	
-0.981612	0.0061	-0.310856	2.03	17.43	0.77	0.4573	-0.0199	-0.0982	
-0.96868	0.012444	-0.28182	-0.14	17.01	0.42	0.4646	-0.0201	-0.0936	
-0.959896	0	-0.270474	3.08	14.28	0.35	0.4569	-0.0122	-0.0949	
-0.96258	0.019764	-0.305122	5.46	14.98	-0.28	0.4628	-0.0123	-0.0919	
-0.962336	0.015738	-0.329766	4.41	14.35	-0.7	0.4619	-0.0261	-0.0953	
-0.96502	0.01098	-0.341112	1.33	16.1	-0.35	0.4576	-0.0272	-0.0878	
-0.973438	0.013542	-0.337574	-1.19	15.26	0.42	0.4686	-0.0109	-0.0858	
-0.971486	0.013542	-0.333182	0.21	16.45	-0.14	0.4618	-0.0211	-0.0816	
-0.964288	0.002074	-0.335134	4.27	15.26	-0.84	0.4689	-0.0169	-0.0814	
-0.967704	0.004636	-0.35197	4.13	14.49	-1.33	0.463	-0.0151	-0.0814	
-0.966728	0.005734	-0.355996	3.01	15.54	-1.4	0.4749	-0.0186	-0.0784	
-0.956724	0.006588	-0.352946	1.19	15.47	-1.47	0.4577	-0.0299	-0.0758	
-0.960262	0.001342	-0.34587	6.37	15.89	-2.24	0.4704	-0.0183	-0.0769	
-0.956846	-0.003782	-0.355996	5.95	14	-2.52	0.463	-0.0162	-0.0678	
-0.943792	0.00488	-0.370026	1.54	13.93	-2.31	0.4614	-0.0117	-0.0737	
-0.955382	-0.000244	-0.373442	6.79	12.25	-2.59	0.4703	-0.0132	-0.0571	
-0.948184	-0.000976	-0.403942	3.78	14.63	-2.45	0.4602	-0.0175	-0.0633	
-0.953064	0.005246	-0.36783	3.71	12.88	-2.59	0.4613	-0.009699999	-0.057	
-0.950868	0.001098	-0.408822	5.88	13.79	-3.22	0.4717	-0.0118	-0.0586	
-0.958188	-0.007808	-0.36539	8.12	14	-2.87	0.4613	-0.0096	-0.054	
-0.936838	-0.02257	-0.363438	12.32	15.47	-4.06	0.4631	-0.0174	-0.0572	
-0.946354	-0.019398	-0.430782	9.59	11.06	-4.06	0.4689	-0.016	-0.0526	
-0.946598	-0.01525	-0.446764	2.59	14.77	-3.5	0.4688	-0.0128	-0.0465	
-0.95526	-0.017934	-0.39711	3.5	9.8	-3.64	0.4644	-0.0127	-0.0495	
-0.930982	-0.023546	-0.414922	-1.61	11.34	-3.99	0.4643	-0.011	-0.0419	
-0.935984	-0.029646	-0.399916	5.6	8.89	-4.41	0.4719	-0.0159	-0.042	
-0.93818	-0.026596	-0.427854	7.49	12.25	-5.25	0.4643	-0.011	-0.0434	
-0.928298	-0.011224	-0.42822	1.82	8.05	-4.27	0.4614	-0.0109	-0.0434	
-0.936472	-0.011712	-0.434198	0.98	6.65	-3.22	0.4715	-0.0083	-0.0448	
-0.91744	-0.026108	-0.43676	-3.78	7.42	-2.31	0.4719	-0.0174	-0.0436	
-0.928786	-0.011346	-0.428586	1.33	6.93	-2.59	0.4716	-0.0096	-0.0373	
-0.910364	-0.030988	-0.447008	2.87	7.56	-2.87	0.4771	-0.0023	-0.0371	
-0.926712	-0.022936	-0.450912	-1.33	5.53	-1.89	0.4661	-0.017	-0.0375	
-0.92171	-0.019764	-0.4514	-1.68	5.81	-0.98	0.4687	-0.0094	-0.0327	
-0.924882	-0.024766	-0.442006	-1.61	4.13	-0.63	0.4612	-0.0077	-0.0388	
-0.929396	-0.03965	-0.446642	-2.31	3.85	0	0.467	-0.0046	-0.0281	
-0.9394	-0.033428	-0.455792	-1.47	4.27	-0.42	0.4729	-0.0049	-0.0311	
-0.938302	-0.030256	-0.455182	-1.47	2.66	-0.7	0.4703	-0.0139	-0.0298	
-0.939766	-0.024156	-0.44774	-3.08	1.82	-0.35	0.461	-0.0031	-0.0386	
-0.929152	-0.016592	-0.437004	-3.85	1.68	0	0.4695	0.0057	-0.0323	
-0.931592	-0.016348	-0.44408	-5.32	0.77	0.77	0.4717	-0.011	-0.0313	
-0.926834	-0.026718	-0.446764	-5.25	0.21	1.4	0.461	-0.0013	-0.0295	
-0.929396	-0.035014	-0.45018	-5.95	0.21	1.19	0.4682	0.0013	-0.0309	
-0.933422	-0.028182	-0.449326	-6.3	0.56	0.77	0.4596	-0.0026	-0.0235	
-0.945256	-0.018056	-0.443714	-7.35	0.42	1.05	0.4701	-0.0094	-0.0312	
-0.933178	-0.015006	-0.451156	-7.98	-0.56	1.75	0.4626	-0.0045	-0.0311	
-0.924516	-0.020252	-0.462624	-8.33	-0.98	2.1	0.4628	-0.0108	-0.0373	
-0.91988	-0.011834	-0.456036	-8.82	-1.61	2.17	0.4685	-0.0048	-0.0326	
-0.933056	-0.015494	-0.44591	-7.28	-3.36	1.89	0.4732	-0.0127	-0.0344	
-0.941962	-0.017812	-0.440298	-5.32	-3.85	1.54	0.4691	-0.0187	-0.0391	
-0.934398	-0.009881999	-0.464332	-8.33	-4.48	1.75	0.4638	0.0014	-0.0324	
-0.928786	-0.004148	-0.453474	-9.24	-6.44	2.1	0.466	-0.0154	-0.0344	
-0.942694	-0.022814	-0.444446	-6.09	-9.17	2.03	0.4659	-0.0122	-0.0313	
-0.944158	-0.00915	-0.447862	-7.42	-8.61	1.19	0.4703	-0.0143	-0.042	
-0.945866	0	-0.458476	-5.04	-9.59	1.12	0.4734	-0.0172	-0.0345	
-0.94733	-0.002196	-0.44713	-3.22	-8.82	1.26	0.4614	-0.011	-0.0464	
-0.944646	0.001098	-0.442128	-4.48	-10.36	1.61	0.4676	-0.0187	-0.0406	
-0.945622	0.002562	-0.445178	-4.97	-11.34	1.82	0.4734	-0.0174	-0.0421	
-0.942206	0.002318	-0.44286	-4.83	-11.34	1.96	0.4735	-0.0189	-0.0391	
-0.937448	-0.000244	-0.421266	-3.71	-12.95	1.96	0.4675	-0.0176	-0.0557	
-0.942816	0.00122	-0.403576	-0.98	-15.47	1.75	0.4539	-0.0077	-0.0494	
-0.950258	0.011346	-0.414312	-0.49	-17.29	1.54	0.4717	-0.013	-0.0495	
-0.950136	0.010248	-0.40992	0.56	-16.73	1.33	0.4702	-0.0114	-0.0479	
-0.9455	0.008174	-0.403332	1.82	-18.27	0.98	0.4632	-0.0202	-0.0482	
-0.951844	0.005368	-0.391254	1.61	-21.42	0.7	0.4658	-0.013	-0.0571	
-0.963922	0.010492	-0.389668	2.38	-20.16	0.35	0.4644	-0.0131	-0.0632	
-0.95709	0.023424	-0.371368	2.38	-18.83	-0.21	0.4687	-0.0118	-0.0646	
-0.972828	0.023424	-0.369782	2.45	-23.94	0.42	0.4631	-0.0177	-0.0663	
-0.972096	0.015128	-0.370514	1.4	-26.53	1.26	0.4672	-0.0107	-0.0797	
-0.976854	0.00854	-0.363438	2.17	-27.02	1.12	0.4716	-0.0109	-0.0797	
-0.980148	0.00854	-0.367708	1.96	-24.99	0.21	0.4687	-0.0122	-0.07669999	
-0.987834	0.011346	-0.3477	0.21	-26.11	0.14	0.4672	-0.0124	-0.0858	
-0.979294	0.008174	-0.346114	-0.7	-27.86	-0.14	0.4646	-0.0201	-0.0936	
-0.971486	0.00244	-0.319152	2.59	-33.25	0	0.4614	-0.0136	-0.0844	
-0.977708	0.009028	-0.365268	-2.94	-28.28	0.49	0.4642	-0.0095	-0.0964	
-0.979172	0.017812	-0.319396	-4.9	-27.51	0.63	0.4589	-0.023	-0.0983	
-0.979172	0.01281	-0.294874	1.12	-28	0.49	0.4613	-0.0113	-0.1116	
-0.986248	0.004148	-0.297192	-3.01	-29.89	-0.07	0.4554	-0.0112	-0.1161	
-0.991616	-0.013908	-0.299144	2.31	-33.04	0.07	0.4528	-0.0186	-0.1133	
-0.991006	-0.01891	-0.28304	7.21	-38.01	-0.07	0.4496	-0.0143	-0.1268	
-1.005402	-0.010492	-0.275598	3.5	-45.78	-0.91	0.4583	-0.0118	-0.1328	
-0.993934	-0.017202	-0.315492	-4.55	-25.76	-1.33	0.4433	-0.0037	-0.1402	
-1.00101	-0.023668	-0.240218	1.19	-31.92	-0.77	0.4464	-0.007	-0.1433	
-0.999424	-0.017934	-0.241316	-0.49	-38.08	-0.98	0.441	-0.0188	-0.1376	
-1.008696	-0.016958	-0.256566	0.91	-38.71	-1.4	0.4499	-0.0212	-0.1543	
-1.016138	-0.012932	-0.241804	-2.24	-37.94	-0.98	0.4449	-0.0089	-0.1585	
-1.020164	-0.014762	-0.223992	-3.92	-39.48	-0.21	0.4421	-0.0118	-0.1571	
-1.026142	-0.018544	-0.216428	0.77	-40.18	-0.28	0.4392	-0.012	-0.1677	
-1.026264	-0.016226	-0.20313	-0.56	-40.95	0	0.4415	0.0029	-0.1718	
-1.030656	-0.011102	-0.174094	-3.08	-41.86	0.56	0.4375	-0.0076	-0.1781	
-1.033584	-0.005978	-0.153842	-6.09	-42	1.54	0.4302	-0.0089	-0.1797	
-1.03578	-0.005124	-0.124928	-8.05	-42.84	2.03	0.4394	-0.0171	-0.186	
-1.029192	-0.002074	-0.118706	-7.98	-41.51	2.59	0.4364	-0.0157	-0.1966	
-1.020896	-0.007442	-0.118706	-9.87	-38.43	3.92	0.4247	-0.0168	-0.2012	
-1.007842	-0.013176	-0.078202	-5.46	-34.37	2.94	0.4352	-0.0236	-0.2074	
-1.013088	-0.007808	-0.048922	-6.37	-36.47	3.29	0.4184	-0.0078	-0.213	
-0.994178	-0.010248	-0.03965	-6.16	-37.45	3.29	0.4183	-0.0061	-0.2084	
-0.99186	-0.009272	-0.010858	0.7	-37.73	2.66	0.4187	-0.0156	-0.2208	
-1.003206	-0.006832	0.005002	-1.82	-37.03	2.66	0.4126	-0.0111	-0.2313	
-1.008818	-0.004148	0.016226	0.7	-35.28	2.59	0.4128	-0.016	-0.242	
-1.00284	0.009272	0.037942	3.85	-34.65	2.38	0.4055	-0.0156	-0.2405	
-1.006256	0.016958	0.0549	5.04	-37.45	3.22	0.4038	-0.0113	-0.2525	
-1.002474	0.014762	0.04941	1.54	-34.58	3.92	0.3965	-0.0108	-0.2465	
-1.002962	0.014762	0.068564	0.56	-32.62	3.85	0.4012	-0.0187	-0.2497	
-0.985516	0.013176	0.085522	-0.42	-31.85	4.55	0.3966	-0.0143	-0.2632	
-0.964532	0.00732	0.123098	2.66	-32.69	3.99	0.4009	-0.013	-0.2632	
-0.959774	-0.00427	0.122854	-3.5	-31.43	3.64	0.3982	-0.0176	-0.2694	
-0.955382	-0.00122	0.124562	-2.52	-33.32	3.29	0.3908	-0.0172	-0.2663	
-0.951844	0.003172	0.135054	-0.63	-32.69	2.66	0.3921	-0.013	-0.2768	
-0.945134	0.014518	0.14762	1.05	-28.63	1.82	0.373	-0.0122	-0.2799	
-0.944402	0.0183	0.177388	4.34	-28.7	1.19	0.3777	-0.0201	-0.2816	
-0.938424	0.028304	0.197396	4.55	-29.19	1.19	0.37	-0.0124	-0.2905	
-0.933178	0.022326	0.206668	6.86	-25.76	0.7	0.3733	-0.02	-0.2846	
-0.93147	0.02501	0.211304	3.5	-24.36	1.54	0.3779	-0.0236	-0.2968	
-0.934642	0.02562	0.229116	0.14	-21.84	1.96	0.3732	-0.0188	-0.2952	
-0.941108	0.034404	0.264008	1.26	-21.28	1.68	0.3641	-0.011	-0.3026	
-0.947452	0.038552	0.283772	0.91	-20.02	2.31	0.3674	-0.0202	-0.2998	
-0.949038	0.030378	0.278038	-1.33	-19.32	2.31	0.3529	-0.0227	-0.306	
-0.945988	0.028182	0.26657	-1.82	-18.9	1.96	0.3515	-0.026	-0.3151	
-0.94306	0.026474	0.274622	1.12	-15.19	1.61	0.3543	-0.023	-0.3135	
-0.939644	0.030256	0.289994	1.61	-11.55	1.54	0.3634	-0.0295	-0.3122	
-0.93818	0.031354	0.293288	2.1	-8.33	1.82	0.3512	-0.0184	-0.3164	
-0.942084	0.035868	0.303902	1.47	-7.42	1.75	0.3571	-0.02	-0.3104	
-0.951234	0.021106	0.301828	1.4	-6.79	2.38	0.3599	-0.0154	-0.3057	
-0.945134	0.017812	0.290726	0.77	-5.39	2.03	0.3557	-0.0215	-0.312	
-0.948184	0.025864	0.288286	0.35	-3.99	1.54	0.3546	-0.029	-0.3092	
-0.954162	0.025254	0.284504	0.07	-2.59	1.19	0.3513	-0.0197	-0.3089	
-0.956236	0.029646	0.282552	0.35	-1.12	0.7	0.3589	-0.0276	-0.3076	
-0.957334	0.030988	0.280844	1.12	0.14	0.49	0.3562	-0.0321	-0.3092	
-0.956968	0.030378	0.272548	0.91	1.61	0.35	0.3486	-0.0258	-0.3151	
-0.966972	0.033184	0.27145	0.7	2.38	0	0.35	-0.0243	-0.3136	
-0.972706	0.036234	0.261324	0	2.94	-0.07	0.3516	-0.0274	-0.3137	
-0.973194	0.033916	0.25254	-0.7	3.64	-0.07	0.3546	-0.0292	-0.3167	
-0.97295	0.031354	0.239852	-0.77	4.2	-0.14	0.3578	-0.035	-0.3018	
-0.975024	0.029036	0.235338	-1.05	5.88	-0.28	0.3511	-0.0167	-0.3103	
-0.978562	0.027816	0.235338	-1.33	6.58	-0.63	0.3531	-0.0273	-0.3076	
-0.98454	0.02745	0.230702	-0.98	6.3	-0.91	0.3587	-0.0229	-0.3044	
-0.989298	0.028914	0.229726	-0.91	6.23	-1.12	0.3619	-0.0278	-0.3091	
-0.985638	0.026474	0.21716	-0.63	6.37	-1.12	0.3601	-0.0216	-0.3074	
-0.987834	0.022448	0.205814	-0.42	6.72	-1.33	0.3587	-0.0218	-0.3165	
-0.990152	0.020618	0.208376	-0.35	7.21	-1.47	0.3655	-0.009699999	-0.3086	
-0.992592	0.01159	0.204838	-0.84	6.72	-1.4	0.3482	-0.0164	-0.3043	
-1.00284	0.008905999	0.203374	-0.63	4.83	-1.19	0.3577	-0.0337	-0.3093	
-1.015284	0.016714	0.189954	0.28	4.06	-1.12	0.3599	-0.017	-0.3058	
-1.014552	0.019764	0.167262	-1.19	2.66	-0.84	0.3677	-0.0267	-0.3151	
-1.021262	0.018544	0.169092	-2.1	1.82	-0.14	0.3571	-0.0199	-0.3059	
-1.021262	0.01037	0.163358	-2.87	0.56	0.42	0.3571	-0.0199	-0.3059	
-1.02236	0.014884	0.153354	-2.45	-0.07	0.42	0.3632	-0.0232	-0.3059	
-1.023214	0.020496	0.146156	-2.8	-2.24	0.28	0.3603	-0.0245	-0.303	
-1.020042	0.020618	0.151402	-3.64	-2.94	0.98	0.3541	-0.0166	-0.3027	
-1.018944	0.0183	0.156038	-3.43	-3.57	1.26	0.3646	-0.0233	-0.309	
-1.012966	0.015128	0.153354	-2.1	-5.11	1.4	0.3601	-0.0214	-0.2998	
-1.00833	0.008905999	0.153842	-0.84	-5.88	1.75	0.3602	-0.0229	-0.3014	
-1.011624	0.007442	0.166774	0.77	-7	2.03	0.3646	-0.0217	-0.3059	
-1.034072	0.01342	0.17751	1.68	-8.96	2.45	0.3631	-0.0218	-0.3089	
-1.04005	0.024156	0.194712	1.89	-11.76	3.08	0.3634	-0.0278	-0.3076	
-1.025898	0.032452	0.175802	-0.77	-14.7	3.85	0.3604	-0.0277	-0.3076	
-1.030534	0.034282	0.167872	-1.96	-16.66	4.34	0.3499	-0.0212	-0.312	
-1.025776	0.026596	0.176534	-4.13	-20.16	4.55	0.3545	-0.0262	-0.3182	
-1.019066	0.021838	0.16958	-2.31	-23.87	4.34	0.3471	-0.0258	-0.3151	
-1.02419	0.01952	0.16653	-0.42	-27.23	4.06	0.347	-0.0229	-0.3226	
-1.024678	0.020984	0.184708	2.66	-31.5	4.34	0.3398	-0.0256	-0.3197	
-1.019188	0.033184	0.200202	-1.19	-35.42	4.34	0.3456	-0.0245	-0.3257	
-1.006012	0.024888	0.197274	1.12	-38.78	4.55	0.3384	-0.0274	-0.3334	
-0.985394	0.030012	0.180438	5.95	-39.27	4.41	0.3238	-0.0298	-0.332	
-0.996984	0.018178	0.221064	9.38	-35.49	4.27	0.3208	-0.0296	-0.332	
-0.993568	0.033306	0.280112	11.13	-38.5	4.27	0.3253	-0.03	-0.338	
-0.96929	0.042822	0.303292	6.3	-44.8	4.69	0.3182	-0.0362	-0.3534	
-0.940132	0.050508	0.322568	8.19	-45.36	4.83	0.3079	-0.0358	-0.3564	
-0.925248	0.042944	0.295362	8.89	-46.83	5.39	0.3001	-0.0246	-0.347	
-0.940498	0.047824	0.30622	4.06	-41.86	4.41	0.3079	-0.0375	-0.361	
-0.927078	0.043676	0.329644	-5.04	-31.71	2.8	0.2932	-0.037	-0.3686	
-0.93391	0.049288	0.365268	-0.91	-27.79	2.73	0.2905	-0.0415	-0.3702	
-0.909876	0.041846	0.416874	-9.24	-35.49	2.38	0.2946	-0.0358	-0.3746	
-0.882304	0.063684	0.494344	-3.99	-54.18	3.5	0.2885	-0.0311	-0.382	
-0.880352	0.040382	0.492636	-2.59	-55.58	4.06	0.2827	-0.0324	-0.3821	
-0.864736	0.05429	0.452498	-7.42	-66.85	4.69	0.262	-0.0273	-0.3971	
-0.85583	0.067466	0.45201	-11.34	-65.52	4.2	0.2477	-0.0358	-0.3959	
-0.85156	0.068442	0.497638	-11.55	-67.41	3.92	0.2448	-0.0374	-0.405	
-0.852902	0.065026	0.518744	-5.81	-68.67	4.48	0.2345	-0.0371	-0.4111	
-0.831674	0.060878	0.55693	-4.69	-68.67	4.69	0.2167	-0.0333	-0.4125	
-0.799832	0.049044	0.56852	-2.94	-68.11	4.48	0.2166	-0.032	-0.4185	
-0.793244	0.043066	0.591334	2.03	-65.73	5.11	0.2062	-0.027	-0.4199	
-0.776652	0.033306	0.585478	4.76	-62.02	5.18	0.1931	-0.0311	-0.4246	
-0.779702	0.05185	0.625372	6.23	-59.99	4.69	0.1874	-0.0341	-0.4338	
-0.744444	0.057828	0.63013	8.33	-59.64	5.39	0.1858	-0.0326	-0.4368	
-0.739198	0.062098	0.654164	10.57	-61.74	6.09	0.1641	-0.0392	-0.437	
-0.722484	0.063928	0.674782	8.75	-56.14	6.3	0.1656	-0.0395	-0.4431	
-0.696986	0.046482	0.687958	6.16	-52.64	7.21	0.1568	-0.0407	-0.4477	
-0.675026	0.056852	0.70394	6.09	-50.89	6.58	0.1463	-0.0342	-0.4475	
-0.671244	0.063562	0.72102	7.28	-46.83	6.09	0.1491	-0.0329	-0.4505	
-0.649528	0.080032	0.749324	6.44	-42.84	5.67	0.1248	-0.0456	-0.4555	
-0.654652	0.07686	0.763354	6.37	-35.98	5.46	0.1184	-0.0347	-0.4567	
-0.643306	0.072224	0.770796	7.42	-32.69	5.53	0.1247	-0.0441	-0.4569	
-0.618418	0.088206	0.75579	7.21	-26.88	3.92	0.1176	-0.0498	-0.4541	
-0.628178	0.092598	0.764574	7.77	-24.29	3.78	0.1044	-0.0494	-0.4602	
-0.616344	0.10736	0.778604	5.04	-21.98	2.66	0.1028	-0.046	-0.4525	
-0.617198	0.10675	0.798124	2.38	-20.02	2.87	0.0941	-0.0489	-0.4617	
-0.602192	0.10675	0.798002	0.98	-17.15	2.59	0.1009	-0.037	-0.4598	
-0.591456	0.105042	0.795562	1.47	-14.21	2.1	0.0914	-0.0551	-0.4694	
-0.598654	0.102236	0.799588	0.98	-11.76	1.54	0.097	-0.0492	-0.4677	
-0.584746	0.09882	0.802638	0.56	-8.96	1.4	0.0893	-0.041	-0.4584	
-0.591578	0.105286	0.79788	0.98	-6.37	0.84	0.091	-0.0455	-0.4525	
-0.593896	0.098942	0.787022	-0.56	-4.41	0.91	0.0849	-0.0409	-0.4599	
-0.60451	0.09577	0.796904	-1.05	-2.94	0.7	0.0884	-0.0532	-0.4618	
-0.612562	0.09857599	0.798002	-1.61	-1.05	0.49	0.0839	-0.0501	-0.4648	
-0.61	0.094916	0.78812	-1.89	0.7	0.35	0.0838	-0.0485	-0.4632	
-0.61427	0.098454	0.797026	-1.68	2.31	0.28	0.084	-0.0528	-0.4527	
-0.610366	0.104066	0.794342	-2.24	3.5	0.07	0.0893	-0.0415	-0.4736	
-0.611098	0.107238	0.795562	-3.08	5.53	0	0.088	-0.0443	-0.4676	
-0.6039	0.105286	0.79544	-2.66	8.82	-0.63	0.0866	-0.0455	-0.4601	
-0.599386	0.105652	0.796416	-2.94	10.78	-1.26	0.0969	-0.0459	-0.4586	
-0.59109	0.094428	0.795684	-2.73	14.56	-1.75	0.0984	-0.0476	-0.4601	
-0.594262	0.096014	0.795562	-3.08	17.99	-2.73	0.103	-0.0509	-0.4617	
-0.599142	0.099064	0.794098	-2.73	20.79	-3.36	0.1028	-0.0477	-0.4586	
-0.603534	0.09272	0.787632	-3.22	24.5	-3.64	0.1031	-0.0537	-0.4557	
-0.610244	0.087596	0.783118	-2.59	28.21	-3.92	0.1043	-0.0477	-0.4556	
-0.618174	0.087596	0.769942	-2.31	32.2	-3.99	0.1204	-0.0465	-0.4419	
-0.630374	0.080276	0.7625	-2.8	35.35	-4.76	0.123	-0.0396	-0.4598	
-0.642818	0.07905599	0.75152	-2.52	38.43	-5.32	0.129	-0.0423	-0.4417	
-0.656116	0.080642	0.738466	-1.12	40.32	-5.74	0.1286	-0.0334	-0.449	
-0.668072	0.077714	0.723948	-1.12	42.7	-5.74	0.1379	-0.0429	-0.4478	
-0.684664	0.074542	0.706624	-1.4	45.43	-5.39	0.1508	-0.0375	-0.4491	
-0.70272	0.07137	0.691008	-1.12	46.69	-5.46	0.1483	-0.0463	-0.4418	
-0.715164	0.07015	0.6771	-0.63	48.51	-5.25	0.1496	-0.0417	-0.4386	
-0.73017	0.072956	0.659166	-0.21	49.91	-5.74	0.1553	-0.0388	-0.434	
-0.742858	0.071004	0.64477	0.14	51.45	-5.53	0.1627	-0.0409	-0.4447	
-0.759328	0.064172	0.62769	-0.63	53.48	-5.95	0.1858	-0.0325	-0.4338	
-0.770064	0.061122	0.60878	-0.84	55.09	-6.37	0.1877	-0.0417	-0.4325	
-0.78385	0.059658	0.588162	-0.14	56.14	-6.09	0.1903	-0.0341	-0.4277	
-0.808738	0.06222	0.559858	0.28	56.91	-5.81	0.214	-0.038	-0.4218	
-0.813984	0.05673	0.541192	0.07	57.54	-5.81	0.2168	-0.0361	-0.405	
-0.830942	0.055388	0.52277	0.56	57.12	-5.88	0.2289	-0.0445	-0.4113	
-0.844118	0.05063	0.505568	0.49	57.12	-6.02	0.2388	-0.0358	-0.4126	
-0.858148	0.041114	0.493124	-0.49	57.82	-6.44	0.239	-0.0386	-0.402	
-0.859368	0.046482	0.467382	-1.05	58.73	-6.65	0.2509	-0.042	-0.3961	
-0.872056	0.04636	0.456524	-1.68	58.87	-6.37	0.2699	-0.0412	-0.3915	
-0.881816	0.042456	0.437858	-2.17	60.13	-5.88	0.2652	-0.0347	-0.3837	
-0.893406	0.039894	0.428464	-1.96	58.73	-5.6	0.2711	-0.0347	-0.3761	
-0.895968	0.037698	0.413092	-2.94	55.23	-5.39	0.2888	-0.0369	-0.3716	
-0.904752	0.040504	0.391254	-3.5	50.12	-5.6	0.2949	-0.0418	-0.3733	
-0.917074	0.03721	0.361242	-1.33	47.25	-5.18	0.2929	-0.0292	-0.3623	
-0.918416	0.038674	0.347456	-1.05	45.71	-4.76	0.3036	-0.0388	-0.361	
-0.930494	0.03477	0.332938	0.98	42.77	-4.69	0.3075	-0.0282	-0.3577	
-0.931104	0.039406	0.320982	-3.08	46.34	-4.27	0.3029	-0.022	-0.3575	
-0.935862	0.030378	0.293288	1.33	48.02	-4.27	0.3137	-0.0342	-0.3427	
-0.950868	0.021106	0.279624	1.96	47.74	-4.2	0.3258	-0.0423	-0.3429	
-0.953796	0.020252	0.263764	1.05	47.32	-4.69	0.3371	-0.0319	-0.3335	
-0.966362	0.020618	0.257176	1.61	46.13	-4.41	0.3337	-0.0211	-0.3317	
-0.980514	0.032086	0.223992	1.89	44.1	-4.13	0.3445	-0.0333	-0.3184	
-0.992958	0.030866	0.199226	2.38	42.21	-3.78	0.3547	-0.0322	-0.3138	
-1.001376	0.030134	0.190564	4.76	44.94	-3.99	0.3527	-0.0188	-0.3286	
-0.996618	0.028548	0.184708	3.36	43.75	-4.41	0.3605	-0.0293	-0.3107	
-0.992836	0.032208	0.16653	3.92	42.84	-4.83	0.3517	-0.0301	-0.3016	
