Sensor string: E
Serial number: 1970-01-0000
Firmware version: 2.015
Hardware version: 2.2
Calibration quality: 5
ax	ay	az	gx	gy	gz	mx	my	mz

-0.846802	-0.008052	0.538142	-0.56	1.68	-0.21	-1.5031	-0.193	-1.0836	Reference
-0.849974	-0.00671	0.53497	0	1.33	-0.49	-1.5091	-0.1902	-1.0864	
-0.843264	-0.006344	0.534482	0.63	0.98	-0.7	-1.5047	-0.1944	-1.0805	
-0.842532	-0.003538	0.537288	0.42	0.56	-0.77	-1.4998	-0.1917	-1.0957	
-0.842532	-0.008417999	0.53985	0.7	0.07	-0.56	-1.4998	-0.1858	-1.0941	
-0.843264	-0.007686	0.540948	0.77	-0.28	-0.35	-1.5032	-0.2004	-1.0837	
-0.842898	-0.006588	0.542778	0.7	-0.63	-0.14	-1.4969	-0.1931	-1.0912	
-0.843264	-0.005612	0.543876	0.77	-0.21	0.35	-1.5075	-0.2006	-1.0942	
-0.84485	-0.001708	0.541436	0.7	-0.14	0.77	-1.5046	-0.196	-1.0881	
-0.84302	0.000976	0.540826	0.77	0.14	0.98	-1.5013	-0.1843	-1.0955	
-0.83936	0.002928	0.540094	0.7	0.56	1.19	-1.5104	-0.1978	-1.0986	
-0.841312	0.005368	0.53863	0.35	1.05	1.26	-1.5029	-0.1887	-1.0911	
-0.841556	0.005612	0.536678	0.35	1.19	1.26	-1.506	-0.1917	-1.091	
-0.846314	0.004392	0.535458	0.21	1.33	1.19	-1.5014	-0.1916	-1.0911	
-0.847656	0.002562	0.53436	0.28	1.33	0.91	-1.5045	-0.1947	-1.0926	
-0.847168	0.002562	0.536434	0	1.05	0.49	-1.5031	-0.1915	-1.0805	
-0.84546	0.002928	0.53863	0.07	0.77	0.21	-1.4969	-0.1945	-1.0898	
-0.846924	0.00366	0.539484	0.42	0.7	-0.14	-1.5046	-0.1931	-1.0866	
-0.846924	0.00305	0.53924	0.7	0.63	-0.56	-1.4984	-0.2005	-1.0929	
-0.843874	0.004758	0.539362	0.98	0.49	-0.84	-1.4999	-0.1976	-1.0943	
-0.840946	0.006344	0.536556	1.33	0.42	-1.05	-1.5058	-0.1903	-1.0971	
-0.841068	0.006222	0.537532	1.26	0.63	-1.12	-1.4984	-0.1901	-1.0881	
-0.84302	0.007198	0.53863	1.26	0.63	-1.19	-1.503	-0.1857	-1.0865	
-0.841434	0.00732	0.537654	1.4	0.7	-1.26	-1.5	-0.1975	-1.0867	
-0.841922	0.009028	0.53558	1.19	0.91	-1.33	-1.509	-0.1902	-1.091	
-0.845826	0.005978	0.53985	1.12	1.12	-1.12	-1.4924	-0.1915	-1.0868	
-0.850096	0.007564	0.53924	0.84	1.47	-1.12	-1.4862	-0.1871	-1.0929	
-0.84302	0.012932	0.522648	1.12	1.12	-1.33	-1.4877	-0.1946	-1.0975	
-0.859856	0.00183	0.530212	0.7	1.33	-0.91	-1.4983	-0.1947	-1.0973	
-0.854732	-0.000976	0.5307	0.98	0.98	-0.63	-1.5016	-0.2004	-1.0883	
-0.84424	0.000732	0.537166	0.14	0.63	-1.33	-1.5044	-0.1857	-1.0895	
-0.838506	0.001952	0.541436	-0.07	0.84	-1.47	-1.4952	-0.1947	-1.1019	
-0.840458	0.001342	0.53802	0.56	1.54	-0.84	-1.4847	-0.1974	-1.0946	
-0.840946	0.000854	0.534726	0.98	1.82	-0.42	-1.5001	-0.1944	-1.0837	
-0.843264	-0.000488	0.531676	0.98	1.96	-0.21	-1.5015	-0.1945	-1.0866	
-0.848632	0.000488	0.530334	0.91	1.89	-0.21	-1.5062	-0.1975	-1.0836	
-0.84973	0.002684	0.530578	1.05	1.61	-0.28	-1.4863	-0.1974	-1.0915	
-0.848144	0.002684	0.534848	1.12	1.33	-0.21	-1.4953	-0.1917	-1.0958	
-0.846924	0.004026	0.53375	0.7	1.26	-0.21	-1.4998	-0.1962	-1.0973	
-0.851926	0.00427	0.531554	0.42	1.12	-0.21	-1.5014	-0.2005	-1.0943	
-0.853634	0.001708	0.528748	0.56	1.12	0.07	-1.4953	-0.1931	-1.0928	
-0.850828	0.003172	0.528504	0.56	0.98	0	-1.4968	-0.1857	-1.0926	
-0.850462	0.004026	0.528016	0.07	0.7	0	-1.494	-0.1974	-1.0868	
-0.850096	0.003904	0.53009	-0.14	0.7	0.21	-1.4923	-0.199	-1.0975	
-0.848876	0.006344	0.529236	0.14	0.98	0.35	-1.4923	-0.1841	-1.0866	
-0.848876	0.005368	0.530944	0.28	1.4	0.35	-1.4939	-0.1989	-1.0899	
-0.850096	0.008052	0.526674	0.21	1.61	0.35	-1.4986	-0.2048	-1.0854	
-0.849852	0.00732	0.52765	0.07	1.82	0.28	-1.497	-0.19	-1.0851	
-0.853268	0.006832	0.523502	0	1.96	0.21	-1.4849	-0.1944	-1.087	
-0.853512	0.008296	0.52277	-0.07	1.96	-0.07	-1.4955	-0.1959	-1.0853	
-0.852048	0.008784	0.523258	-0.28	1.82	-0.21	-1.497	-0.1885	-1.0836	
-0.852902	0.009272	0.524356	-0.21	1.75	-0.42	-1.5002	-0.1988	-1.0807	
-0.850584	0.009272	0.52521	-0.35	1.61	-0.49	-1.4941	-0.1898	-1.0761	
-0.85217	0.009028	0.524112	-0.28	1.47	-0.63	-1.4925	-0.2003	-1.0854	
-0.85339	0.008905999	0.52643	-0.35	1.61	-0.91	-1.4984	-0.196	-1.0913	
-0.845582	0.008784	0.528138	-0.35	1.54	-1.05	-1.4923	-0.1916	-1.0913	
-0.84546	0.0061	0.524844	-0.21	1.61	-1.12	-1.4986	-0.1929	-1.0806	
-0.854122	0.008052	0.523502	-0.35	1.82	-1.19	-1.4895	-0.1958	-1.0809	
-0.8479	0.002318	0.52826	-0.7	1.89	-1.33	-1.5031	-0.2005	-1.0882	
-0.849486	-0.005856	0.525576	-0.49	1.89	-1.4	-1.4985	-0.1945	-1.0852	
-0.854244	-0.014762	0.525332	-0.35	2.03	-1.33	-1.4804	-0.1928	-1.0825	
-0.85583	-0.020252	0.529358	0.63	2.17	-1.47	-1.4894	-0.1855	-1.0852	

-0.872666	-0.041968	0.52155	1.26	3.15	-1.26	-1.4818	-0.1899	-1.0839	

-0.86803	-0.055998	0.507398	3.64	3.43	0.21	-1.4941	-0.1928	-1.0792	
-0.867298	-0.06405	0.499712	4.69	3.5	1.33	-1.4819	-0.2032	-1.0872	
-0.868274	-0.070394	0.494588	6.16	3.15	2.73	-1.486	-0.1888	-1.1035	
-0.872666	-0.076006	0.488122	7.7	2.8	4.34	-1.497	-0.1914	-1.0821	
-0.87291	-0.079178	0.489952	8.96	2.03	6.09	-1.4848	-0.1988	-1.0901	
-0.87291	-0.07747	0.48983	10.43	1.12	7.7	-1.4866	-0.2016	-1.078	
-0.86925	-0.073688	0.492636	11.62	0.49	9.52	-1.4895	-0.2003	-1.084	
-0.872056	-0.072468	0.495198	12.95	0.21	11.69	-1.4774	-0.2061	-1.0873	
-0.878522	-0.067832	0.492148	14.35	-0.21	13.86	-1.4775	-0.209	-1.0828	
-0.87962	-0.062098	0.48861	15.47	-0.91	15.96	-1.4743	-0.2046	-1.0904	
-0.873154	-0.056364	0.485316	16.24	-1.4	17.99	-1.4851	-0.215	-1.0843	
-0.869006	-0.051118	0.4819	17.57	-2.17	20.3	-1.4881	-0.2151	-1.0888	
-0.866078	-0.046604	0.48007	18.69	-3.08	22.82	-1.49	-0.2296	-1.0754	
-0.86376	-0.041236	0.477996	20.16	-4.13	25.48	-1.4852	-0.2223	-1.0814	
-0.854366	-0.03721	0.480802	21.21	-5.32	28.07	-1.4913	-0.2298	-1.0875	
-0.843142	-0.028792	0.487024	22.89	-5.6	30.87	-1.4883	-0.2268	-1.083	
-0.837774	-0.018056	0.494344	24.78	-5.95	33.67	-1.4823	-0.2416	-1.0894	
-0.835334	0.002318	0.498004	26.6	-5.95	36.54	-1.4838	-0.2401	-1.0893	
-0.822402	0.02684	0.507886	27.86	-6.02	39.55	-1.4959	-0.255	-1.0939	
-0.820328	0.06893	0.514352	29.05	-5.74	42.14	-1.4899	-0.2505	-1.0894	
-0.81679	0.10736	0.515694	29.33	-5.81	44.94	-1.4932	-0.2593	-1.0835	
-0.806542	0.129686	0.507886	31.36	-5.46	48.3	-1.5009	-0.2785	-1.0852	
-0.797636	0.156648	0.50691	32.69	-5.32	51.03	-1.5114	-0.2847	-1.0926	
-0.802028	0.200446	0.50996	33.25	-5.81	52.36	-1.5085	-0.2875	-1.0882	
-0.81252	0.254126	0.506422	33.6	-6.02	53.41	-1.4981	-0.3006	-1.0826	
-0.812398	0.298046	0.499468	32.9	-6.44	54.95	-1.5148	-0.3111	-1.087	
-0.78934	0.322934	0.500566	31.29	-7.14	56.77	-1.5103	-0.314	-1.0841	
-0.777872	0.33977	0.497516	30.87	-6.65	57.68	-1.5242	-0.3392	-1.0858	
-0.767624	0.354288	0.49105	29.75	-5.53	57.47	-1.5136	-0.3391	-1.086	
-0.758108	0.375882	0.488	29.05	-5.04	56.49	-1.5168	-0.3523	-1.0817	
-0.74603	0.401624	0.488	28.98	-4.97	55.93	-1.5275	-0.3553	-1.0785	
-0.724436	0.420168	0.488732	28.77	-4.34	55.58	-1.5307	-0.3657	-1.0786	
-0.72163	0.45079	0.474946	29.12	-4.13	55.23	-1.5292	-0.3672	-1.0787	
-0.725534	0.469822	0.464698	28.63	-3.78	54.95	-1.5355	-0.3803	-1.0697	
-0.707966	0.492026	0.47214	28.14	-3.57	54.74	-1.5445	-0.3864	-1.0772	
-0.71248	0.550342	0.448838	29.26	-3.08	53.13	-1.5447	-0.3982	-1.0729	
-0.73749	0.603656	0.44164	28.91	-3.22	52.08	-1.5524	-0.4056	-1.0699	
-0.736758	0.605486	0.435418	27.09	-5.81	51.45	-1.551	-0.4115	-1.0715	
-0.704916	0.605608	0.42639	26.53	-8.19	50.12	-1.5618	-0.4233	-1.067	
-0.669048	0.59658	0.41114	26.46	-10.29	48.72	-1.5708	-0.4294	-1.0715	
-0.63989	0.57706	0.417728	25.83	-12.46	47.74	-1.5662	-0.4175	-1.0713	
-0.634766	0.584014	0.425658	27.16	-13.3	46.55	-1.5726	-0.4277	-1.0593	
-0.629886	0.628422	0.463478	28	-11.97	43.96	-1.5787	-0.4425	-1.061	
-0.635742	0.686372	0.466406	28.21	-12.46	39.9	-1.5848	-0.4455	-1.0609	
-0.61488	0.716872	0.467748	25.13	-13.93	37.1	-1.591	-0.4484	-1.0548	
-0.57889	0.739808	0.46909	23.1	-14.07	34.16	-1.6001	-0.4664	-1.064	
-0.557906	0.7686	0.476776	21.77	-11.83	31.43	-1.5941	-0.4663	-1.0611	
-0.554246	0.782996	0.46543	20.09	-9.66	29.26	-1.6018	-0.4647	-1.0534	
-0.57157	0.756644	0.450546	17.08	-8.05	27.16	-1.606	-0.4591	-1.0683	
-0.574376	0.723216	0.432124	14.49	-8.61	24.99	-1.6158	-0.4795	-1.0458	
-0.562664	0.68808	0.427854	13.23	-9.8	22.82	-1.6191	-0.4822	-1.0337	
-0.555344	0.667218	0.445056	13.09	-9.94	20.93	-1.6156	-0.4752	-1.0548	
-0.571814	0.68381	0.444812	15.61	-10.01	19.6	-1.6204	-0.4898	-1.0459	
-0.57035	0.6893	0.443714	16.31	-9.8	20.02	-1.6234	-0.4869	-1.0473	
-0.56181	0.686616	0.457012	16.17	-10.85	20.79	-1.6264	-0.49	-1.0503	
-0.545828	0.691252	0.45018	19.46	-11.69	21.98	-1.634	-0.4915	-1.0472	
-0.526186	0.7076	0.45689	21.84	-10.71	23.24	-1.634	-0.4915	-1.0517	
-0.524234	0.73688	0.444324	23.59	-10.43	24.15	-1.6404	-0.4943	-1.035	
-0.51423	0.743712	0.441396	22.75	-9.03	24.64	-1.645	-0.5002	-1.032	
-0.509472	0.762134	0.436638	22.54	-9.59	24.99	-1.6572	-0.5032	-1.0303	
-0.512156	0.785192	0.425902	21.35	-10.08	24.78	-1.6555	-0.5048	-1.041	
-0.517768	0.796416	0.4209	20.51	-9.31	24.08	-1.6573	-0.515	-1.0336	
-0.510448	0.807396	0.421266	18.97	-8.89	22.89	-1.668	-0.5224	-1.029	
-0.492392	0.829478	0.4209	18.27	-9.17	21.49	-1.6726	-0.5225	-1.0274	
-0.478606	0.85217	0.417118	16.24	-9.1	19.88	-1.662	-0.5239	-1.0291	
-0.463722	0.85583	0.41663	13.65	-8.54	18.06	-1.6772	-0.5195	-1.0257	
-0.453352	0.861198	0.4148	11.27	-8.26	16.59	-1.6787	-0.5181	-1.0257	
-0.443592	0.867908	0.415654	9.24	-7.63	14.98	-1.6833	-0.5344	-1.0274	
-0.434564	0.875106	0.416386	6.51	-6.86	13.16	-1.6774	-0.5416	-1.0231	
-0.42334	0.879498	0.426512	3.15	-5.6	11.41	-1.6697	-0.5298	-1.0261	
-0.424194	0.88999	0.42883	0.7	-4.34	9.24	-1.6786	-0.5256	-1.0349	
-0.42578	0.89121	0.423462	-2.1	-3.36	7	-1.6756	-0.5255	-1.0304	
-0.421144	0.882426	0.427488	-4.62	-1.68	4.76	-1.6953	-0.5331	-1.0332	
-0.415044	0.878644	0.409676	-5.46	-1.47	2.8	-1.6924	-0.5285	-1.0241	
-0.420412	0.874496	0.406748	-6.23	-1.19	0.7	-1.682	-0.5312	-1.0153	
-0.429562	0.864614	0.415776	-8.19	0.07	-2.17	-1.6865	-0.5417	-1.0229	
-0.42456	0.867298	0.428586	-9.73	1.61	-5.95	-1.6847	-0.5196	-1.0271	
-0.40626	0.871202	0.437492	-10.15	1.68	-8.96	-1.6985	-0.5345	-1.0256	
-0.404918	0.875106	0.44347	-10.36	2.45	-11.76	-1.6772	-0.5359	-1.0336	
-0.415654	0.882304	0.434808	-10.15	3.08	-14.56	-1.6709	-0.5227	-1.0395	
-0.424316	0.894016	0.43554	-11.62	3.85	-17.22	-1.6771	-0.5181	-1.0302	
-0.426756	0.893162	0.444934	-13.51	4.69	-20.09	-1.6679	-0.5226	-1.0381	
-0.432368	0.881694	0.449326	-15.82	5.39	-23.03	-1.6755	-0.5285	-1.0365	
-0.4331	0.865224	0.454084	-17.99	6.16	-26.18	-1.6707	-0.5153	-1.0424	
-0.438346	0.855464	0.451034	-19.04	7.07	-29.47	-1.6633	-0.5196	-1.0351	
-0.438956	0.842654	0.455182	-21.07	8.68	-32.2	-1.6556	-0.5107	-1.0411	
-0.447374	0.83326	0.45506	-22.47	10.01	-34.65	-1.6495	-0.5063	-1.0411	
-0.460306	0.819474	0.457256	-24.29	11.34	-37.24	-1.6613	-0.4977	-1.0513	
-0.477508	0.810324	0.461038	-26.46	12.25	-39.62	-1.6493	-0.5005	-1.0471	
-0.485682	0.788852	0.460794	-28.7	13.93	-42.21	-1.64	-0.4842	-1.0485	
-0.497272	0.771162	0.464088	-29.54	15.19	-44.45	-1.6326	-0.4899	-1.0442	
-0.515694	0.751154	0.463844	-30.03	16.38	-46.55	-1.6325	-0.487	-1.0441	
-0.530456	0.737612	0.462258	-31.08	17.01	-48.16	-1.6186	-0.4737	-1.0517	
-0.552294	0.715286	0.461648	-32.41	17.99	-49.7	-1.6078	-0.4664	-1.0593	
-0.560834	0.6954	0.469822	-33.32	19.46	-51.1	-1.6032	-0.4634	-1.0594	
-0.588162	0.673806	0.460428	-34.3	19.95	-52.29	-1.6031	-0.4486	-1.0606	
-0.60817	0.64111	0.459452	-37.1	21.42	-52.92	-1.5924	-0.4396	-1.0576	
-0.63013	0.623176	0.45079	-36.82	21.98	-53.97	-1.5801	-0.4367	-1.0639	
-0.637938	0.605974	0.458476	-37.17	23.8	-55.16	-1.5754	-0.4264	-1.0698	
-0.655628	0.57828	0.442372	-37.1	23.66	-55.3	-1.5648	-0.4144	-1.0607	
-0.665266	0.548512	0.440054	-37.8	24.57	-55.93	-1.5465	-0.4173	-1.0687	
-0.681004	0.53314	0.433222	-37.59	24.15	-57.05	-1.5415	-0.4057	-1.0852	
-0.703574	0.515816	0.438102	-37.94	24.36	-57.82	-1.5325	-0.3952	-1.0761	
-0.732	0.486292	0.425048	-37.94	23.8	-57.4	-1.5384	-0.379	-1.0772	
-0.72895	0.452498	0.431636	-39.27	23.45	-57.54	-1.5357	-0.3817	-1.0622	
-0.740052	0.43127	0.4392	-37.52	23.24	-58.45	-1.5263	-0.3625	-1.0681	
-0.77653	0.422608	0.439932	-36.05	23.38	-59.15	-1.52	-0.3656	-1.0803	
-0.819962	0.397232	0.4331	-36.89	22.12	-59.22	-1.5063	-0.3388	-1.0726	
-0.833382	0.33428	0.42517	-37.24	20.58	-58.94	-1.4941	-0.3447	-1.0759	
-0.81435	0.27267	0.427	-37.24	17.36	-59.85	-1.5045	-0.3301	-1.08	
-0.812886	0.24217	0.427732	-36.05	16.66	-61.67	-1.5	-0.3256	-1.077	
-0.824598	0.226798	0.407358	-35.49	15.33	-61.32	-1.4846	-0.3108	-1.0846	
-0.853512	0.192516	0.404064	-35.84	14.21	-59.57	-1.4801	-0.3017	-1.0724	
-0.874008	0.134566	0.40748	-36.89	11.48	-56.77	-1.4831	-0.2884	-1.0691	
-0.881816	0.11163	0.41236	-36.12	9.8	-55.79	-1.4752	-0.2723	-1.078	
-0.875106	0.0854	0.427488	-37.31	7.42	-55.16	-1.4708	-0.2751	-1.0721	
-0.86559	0.04453	0.433954	-36.61	4.97	-53.69	-1.4782	-0.2663	-1.0748	
-0.857538	0.012932	0.449692	-34.86	4.41	-52.08	-1.466	-0.2559	-1.0764	
-0.848876	-0.017202	0.452986	-33.6	3.29	-50.33	-1.4719	-0.2457	-1.0791	
-0.849608	-0.049898	0.454206	-30.38	3.64	-48.44	-1.4809	-0.2399	-1.0788	
-0.853756	-0.06832	0.454694	-26.88	3.64	-47.11	-1.4689	-0.2203	-1.0621	
-0.862906	-0.080642	0.454206	-24.5	4.34	-45.78	-1.4597	-0.2204	-1.0713	
-0.870348	-0.09028	0.46055	-22.12	5.32	-43.75	-1.4625	-0.2042	-1.074	
-0.880108	-0.103212	0.467748	-20.16	5.11	-40.6	-1.4669	-0.2074	-1.0845	
-0.88389	-0.119194	0.467992	-18.2	4.62	-37.1	-1.4623	-0.1969	-1.0784	
-0.884378	-0.12871	0.461038	-15.4	3.99	-34.02	-1.4578	-0.1939	-1.0754	
-0.88694	-0.138714	0.45628	-12.6	3.29	-30.59	-1.4638	-0.1925	-1.0783	
-0.895236	-0.14274	0.456158	-10.92	2.73	-27.3	-1.4699	-0.1881	-1.0735	
-0.900604	-0.142862	0.45567	-8.61	2.31	-24.22	-1.4562	-0.185	-1.0753	
-0.899018	-0.148718	0.456402	-7.49	1.33	-20.79	-1.4622	-0.1762	-1.072	
-0.890722	-0.15128	0.452986	-5.46	0.63	-17.36	-1.4714	-0.1852	-1.075	
-0.894992	-0.147864	0.449692	-3.85	0.07	-14.21	-1.4595	-0.1804	-1.0615	
-0.901702	-0.138348	0.449814	-3.01	-0.42	-11.41	-1.462	-0.1705	-1.0839	
-0.898774	-0.132004	0.450424	-2.31	-1.26	-8.82	-1.4651	-0.1689	-1.0763	
-0.89609	-0.126392	0.451156	-1.4	-1.47	-6.58	-1.4727	-0.175	-1.0808	
-0.897432	-0.118584	0.45262	-0.07	-1.82	-4.55	-1.4667	-0.1629	-1.0671	
-0.89853	-0.106262	0.453962	0.42	-2.38	-2.8	-1.4727	-0.1675	-1.0746	
-0.900238	-0.09942999	0.45506	0.98	-2.31	-1.75	-1.4638	-0.1702	-1.0658	
-0.901946	-0.091134	0.453596	1.61	-2.45	-0.63	-1.4666	-0.1675	-1.0778	
-0.902556	-0.081862	0.453596	1.75	-2.52	0.14	-1.4743	-0.1675	-1.0731	
-0.90158	-0.077958	0.4514	2.03	-2.8	1.05	-1.4698	-0.1584	-1.0654	
-0.897432	-0.074664	0.452254	2.24	-3.57	1.96	-1.471	-0.1676	-1.0837	
-0.8967	-0.07503	0.452254	2.66	-4.2	2.73	-1.4682	-0.1733	-1.0748	
-0.895602	-0.07137	0.459818	2.73	-4.41	3.5	-1.4607	-0.1718	-1.0734	
-0.90097	-0.061976	0.469212	3.36	-4.27	4.06	-1.4682	-0.1733	-1.0733	
-0.89914	-0.05917	0.475068	3.36	-4.41	3.99	-1.4712	-0.1853	-1.081	
-0.886086	-0.066368	0.4758	3.43	-4.9	4.34	-1.4685	-0.1805	-1.0629	
-0.879986	-0.052582	0.471774	4.76	-4.83	4.62	-1.4802	-0.1721	-1.0791	
-0.874496	-0.036844	0.479948	3.57	-3.99	4.48	-1.4711	-0.1765	-1.0854	
-0.86864	-0.019642	0.483242	3.92	-3.15	4.83	-1.4713	-0.1837	-1.0749	
-0.860222	-0.004392	0.473238	-0.21	-3.22	4.13	-1.4729	-0.1777	-1.0703	
-0.871324	-0.007442	0.481534	1.4	-2.17	4.2	-1.4697	-0.1734	-1.0748	
-0.873764	-0.0061	0.48251	0.84	-2.31	3.15	-1.4789	-0.1867	-1.0764	
-0.861564	0.005612	0.49044	0	-3.43	1.4	-1.4759	-0.1852	-1.0749	
-0.861564	0.016348	0.495076	-0.56	-4.06	-0.28	-1.4697	-0.1793	-1.0779	
-0.86437	0.014884	0.49044	-0.56	-4.2	-1.47	-1.4744	-0.1792	-1.0703	
-0.874496	0.020252	0.497882	-2.03	-4.62	-3.01	-1.479	-0.1927	-1.078	
-0.859246	0.021228	0.501176	-3.43	-5.18	-4.83	-1.4774	-0.1823	-1.0763	
-0.84912	0.03111	0.51423	-3.22	-4.55	-6.86	-1.4833	-0.181	-1.0807	
-0.857172	0.058438	0.50996	-4.62	-3.92	-9.1	-1.4848	-0.1795	-1.0822	
-0.864248	0.074908	0.497882	-6.58	-3.15	-11.13	-1.4849	-0.1824	-1.0762	
-0.858758	0.08235	0.48312	-8.54	-3.64	-12.46	-1.4742	-0.1735	-1.0792	
-0.866078	0.0854	0.478362	-11.27	-3.78	-14.49	-1.4906	-0.1724	-1.091	
-0.874862	0.090036	0.473116	-14.28	-4.48	-17.78	-1.4849	-0.172	-1.0745	
-0.874862	0.087962	0.461404	-18.55	-5.74	-21.98	-1.4862	-0.1648	-1.0834	
-0.869616	0.07381	0.460062	-21.77	-6.65	-26.39	-1.4893	-0.1632	-1.0742	
-0.85705	0.050508	0.469822	-23.59	-6.72	-30.94	-1.4726	-0.1617	-1.0791	
-0.855464	0.031232	0.474092	-23.24	-6.09	-35.21	-1.4826	-0.1429	-1.0967	
-0.856684	0.007808	0.475678	-25.55	-5.67	-39.2	-1.4934	-0.1384	-1.0843	
-0.844606	-0.023912	0.486536	-24.43	-4.69	-42.98	-1.4845	-0.1397	-1.0784	
-0.833626	-0.058072	0.49166	-25.13	-4.9	-46.34	-1.4933	-0.134	-1.0887	
-0.834602	-0.097234	0.510448	-28.14	-4.55	-49.91	-1.4949	-0.1176	-1.0763	
-0.848266	-0.170312	0.51972	-30.17	-4.97	-51.87	-1.4963	-0.1177	-1.0808	
-0.828014	-0.242292	0.527406	-30.38	-3.5	-52.22	-1.5008	-0.1149	-1.0852	
-0.831918	-0.264618	0.519598	-29.61	-3.78	-52.15	-1.5023	-0.1029	-1.0774	
-0.82228	-0.290726	0.500078	-26.11	-1.54	-52.15	-1.5082	-0.0808	-1.0739	
-0.815814	-0.291092	0.463722	-24.78	-2.73	-50.75	-1.5054	-0.0911	-1.0711	
-0.8113	-0.29402	0.449326	-24.64	-3.43	-48.79	-1.5203	-0.075	-1.072	
-0.814472	-0.309636	0.439566	-24.57	-3.99	-46.34	-1.5142	-0.0646	-1.0704	
-0.803004	-0.330254	0.44225	-26.46	-6.3	-44.31	-1.5188	-0.066	-1.0659	
-0.78507	-0.350872	0.45445	-27.09	-6.72	-42.77	-1.5169	-0.053	-1.0793	
-0.763232	-0.367586	0.458476	-28	-8.47	-42.56	-1.5217	-0.0498	-1.0655	
-0.76372	-0.399916	0.467748	-27.72	-8.47	-42.7	-1.5305	-0.0368	-1.0742	
-0.7625	-0.417606	0.460672	-24.15	-8.19	-42.98	-1.5443	-0.0383	-1.0664	
-0.762378	-0.44896	0.455426	-25.13	-10.92	-43.05	-1.5245	-0.0248	-1.0665	
-0.762012	-0.462868	0.439932	-20.86	-11.2	-44.03	-1.5473	-0.025	-1.0631	
-0.754814	-0.472628	0.43249	-22.54	-15.12	-45.08	-1.5517	-0.0133	-1.0658	
-0.73078	-0.488976	0.437736	-20.93	-17.29	-45.5	-1.5426	-0.0027	-1.0582	

-0.684176	-0.494222	0.431514	-18.13	-14.35	-45.85	-1.562	-0.0017	-1.0714	
-0.696864	-0.497638	0.423218	-18.97	-17.99	-44.31	-1.5681	0.0131	-1.062	
-0.681248	-0.515206	0.43798	-22.19	-17.15	-42.91	-1.5714	0	-1.0561	
-0.646966	-0.528992	0.452864	-24.43	-17.22	-42.07	-1.5863	0.0085	-1.0632	
-0.631594	-0.552416	0.462502	-23.45	-17.5	-41.23	-1.5892	0.0157	-1.0676	
-0.623786	-0.555588	0.457866	-24.78	-19.11	-39.83	-1.5999	0.0246	-1.0581	
-0.598288	-0.566446	0.460062	-28.63	-20.37	-40.11	-1.5937	0.0305	-1.0627	
-0.579012	-0.600118	0.457012	-31.15	-16.66	-39.76	-1.5969	0.0188	-1.0583	
-0.572302	-0.640622	0.454816	-31.5	-15.05	-38.57	-1.6029	0.0395	-1.0517	
-0.576328	-0.66307	0.446398	-30.03	-14.42	-37.45	-1.6104	0.0482	-1.0545	
-0.559492	-0.654896	0.461038	-27.37	-13.58	-36.89	-1.6211	0.0467	-1.0482	
-0.540094	-0.67405	0.46787	-32.06	-16.1	-34.65	-1.6257	0.0527	-1.0405	
-0.543266	-0.706868	0.45811	-32.06	-16.59	-31.92	-1.6332	0.0629	-1.0432	
-0.530944	-0.703696	0.45628	-30.38	-16.24	-30.31	-1.6423	0.0554	-1.0462	
-0.518134	-0.723094	0.450546	-28.98	-15.47	-28.91	-1.6439	0.0555	-1.0401	
-0.514596	-0.760914	0.456646	-29.61	-12.81	-27.79	-1.6483	0.0731	-1.0397	
-0.509838	-0.768844	0.450546	-26.74	-10.64	-26.67	-1.6468	0.0791	-1.0366	
-0.517524	-0.78446	0.446032	-27.3	-9.52	-26.11	-1.668	0.0715	-1.0378	
-0.511424	-0.7869	0.436028	-23.94	-8.96	-24.99	-1.6604	0.0746	-1.0364	
-0.5063	-0.796782	0.441762	-22.54	-8.82	-22.89	-1.6728	0.0806	-1.0194	
-0.49532	-0.8113	0.444324	-21.7	-6.02	-21.14	-1.6713	0.0806	-1.021	
-0.482876	-0.816668	0.449814	-18.9	-4.41	-19.04	-1.6681	0.0835	-1.0285	
-0.493612	-0.827282	0.445788	-18.69	-2.1	-16.38	-1.6681	0.0909	-1.0239	
-0.499956	-0.832162	0.441396	-15.61	1.12	-14.21	-1.6804	0.0894	-1.0176	
-0.483608	-0.82228	0.43615	-13.44	0.98	-11.62	-1.6789	0.091	-1.0161	
-0.481412	-0.830332	0.429196	-13.3	2.59	-9.38	-1.6848	0.0997	-1.0189	
-0.47946	-0.838994	0.409432	-11.9	0.91	-6.79	-1.6772	0.1013	-1.0175	
-0.486292	-0.837652	0.400892	-5.67	4.13	-4.83	-1.6788	0.1028	-1.0114	
-0.497516	-0.840702	0.397476	-6.23	5.53	-2.8	-1.6879	0.0968	-1.0128	
-0.490196	-0.832162	0.3843	-3.29	5.88	-0.49	-1.6848	0.1072	-1.0112	
-0.488976	-0.832406	0.376248	-0.98	7.14	1.89	-1.6741	0.1013	-1.019	
-0.482144	-0.828502	0.376736	0.21	7.77	3.92	-1.6832	0.1131	-1.0141	
-0.4697	-0.818254	0.375516	3.78	7.84	5.39	-1.6713	0.1029	-1.01	
-0.46787	-0.818376	0.37637	4.83	8.54	6.72	-1.6804	0.0969	-1.0114	
-0.470432	-0.816912	0.381372	6.58	10.01	7.98	-1.6713	0.1044	-1.0085	
-0.472506	-0.825574	0.386374	8.05	11.62	9.31	-1.6818	0.08639999	-1.0207	
-0.474702	-0.822402	0.386984	11.2	11.9	10.78	-1.6745	0.0852	-1.0103	
-0.488732	-0.813008	0.396256	10.78	13.09	12.46	-1.6621	0.1045	-1.0117	
-0.496052	-0.80337	0.393328	13.93	14	13.58	-1.6623	0.0897	-1.0119	
-0.494832	-0.789218	0.397232	15.82	15.19	14.91	-1.659	0.1015	-1.0163	
-0.496906	-0.780312	0.397476	16.03	16.45	16.1	-1.6577	0.0883	-1.0136	
-0.515328	-0.780434	0.399062	15.75	17.01	17.99	-1.6469	0.09119999	-1.0228	
-0.528016	-0.78019	0.39406	16.17	16.73	21.21	-1.653	0.0926	-1.0211	
-0.543876	-0.77714	0.39711	16.52	16.73	25.06	-1.6501	0.0794	-1.0214	
-0.56059	-0.771406	0.398086	17.57	17.22	28.21	-1.6394	0.0794	-1.0231	
-0.568642	-0.763964	0.401746	19.25	19.88	31.43	-1.6366	0.0707	-1.0188	
-0.577792	-0.757742	0.401502	19.67	21.14	34.93	-1.6258	0.0751	-1.025	
-0.588772	-0.74298	0.403698	22.82	21.98	37.8	-1.6243	0.0841	-1.0188	
-0.605852	-0.733464	0.397964	23.66	20.65	40.81	-1.603	0.0588	-1.0393	
-0.615612	-0.718214	0.386374	25.48	20.23	43.68	-1.6032	0.0591	-1.0257	
-0.621468	-0.691862	0.378932	26.67	21.07	46.76	-1.5942	0.0532	-1.0275	
-0.642574	-0.68686	0.38247	24.85	21.91	49.56	-1.5878	0.0545	-1.0412	
-0.656848	-0.665388	0.373198	27.02	19.88	52.15	-1.573	0.0416	-1.0296	
-0.665022	-0.639158	0.372588	28.28	20.58	54.32	-1.5773	0.0354	-1.0478	
-0.666608	-0.617076	0.370636	27.65	20.51	56.28	-1.5711	0.0398	-1.0508	
-0.680638	-0.604998	0.36722	26.6	21.28	57.4	-1.5593	0.0313	-1.0391	
-0.695034	-0.57706	0.356118	28.28	20.79	58.17	-1.5412	0.0107	-1.0429	
-0.718336	-0.560102	0.355142	29.05	22.4	58.87	-1.5427	0.0181	-1.0412	
-0.751764	-0.542656	0.34099	30.31	22.75	60.06	-1.5291	0.0167	-1.043	
-0.777872	-0.508496	0.335744	29.68	21.28	60.2	-1.5277	-0.0098	-1.0511	
-0.795196	-0.475556	0.330376	31.08	18.13	59.92	-1.5187	-0.0007	-1.0375	
-0.798246	-0.446276	0.329156	29.12	15.47	59.36	-1.5081	-0.0199	-1.0471	
-0.801662	-0.426878	0.33794	27.79	14.35	59.64	-1.4959	-0.0243	-1.0534	
-0.801296	-0.39833	0.347212	26.04	13.02	59.64	-1.4962	-0.033	-1.046	
-0.815692	-0.383446	0.34953	27.44	10.78	59.5	-1.4931	-0.039	-1.0507	
-0.81618	-0.360144	0.36112	27.23	10.64	59.36	-1.4796	-0.0446	-1.0451	
-0.822524	-0.346602	0.372222	28.14	9.94	59.5	-1.4855	-0.0493	-1.0571	
-0.825452	-0.336598	0.374174	29.82	9.59	59.71	-1.4675	-0.0624	-1.0562	
-0.83875	-0.319762	0.37027	32.2	9.38	59.22	-1.4676	-0.0683	-1.0533	
-0.843752	-0.284016	0.367586	35	8.12	58.31	-1.4587	-0.0769	-1.046	
-0.85766	-0.2501	0.369416	35.35	7	56.98	-1.4678	-0.09779999	-1.0553	
-0.862052	-0.218746	0.365512	35.28	5.53	56.49	-1.4542	-0.1007	-1.0587	
-0.894748	-0.198006	0.367464	35.98	4.62	56.21	-1.4573	-0.1065	-1.0542	
-0.926468	-0.158844	0.367586	34.44	2.17	56.21	-1.456	-0.1153	-1.0513	
-0.945744	-0.10309	0.382592	35.28	-1.89	55.79	-1.441	-0.1358	-1.052	
-0.927566	-0.047336	0.382958	34.79	-5.6	55.86	-1.4621	-0.1406	-1.0592	
-0.883646	-0.00366	0.39528	34.51	-7.14	56	-1.4546	-0.1494	-1.061	
-0.86254	0.028548	0.409432	34.93	-5.88	54.88	-1.4516	-0.1538	-1.0642	
-0.867664	0.063806	0.408212	32.06	-3.36	52.5	-1.4486	-0.1745	-1.0692	
-0.879742	0.09357399	0.407236	29.96	-2.73	49.21	-1.4564	-0.1789	-1.0631	
-0.884134	0.122976	0.40748	29.68	-3.5	45.43	-1.4503	-0.1804	-1.0662	
-0.886208	0.160796	0.398452	26.32	-5.67	41.16	-1.4641	-0.1923	-1.0647	
-0.888648	0.173484	0.404918	22.54	-6.51	37.38	-1.4383	-0.1965	-1.0652	
-0.88511	0.189832	0.415044	19.88	-7.14	33.95	-1.452	-0.201	-1.0651	
-0.892674	0.207278	0.415898	15.54	-7.63	30.03	-1.458	-0.1982	-1.0679	
-0.891942	0.2135	0.429074	11.69	-8.12	26.18	-1.4536	-0.2025	-1.062	
-0.884622	0.209352	0.441396	9.59	-8.82	22.68	-1.4522	-0.2187	-1.0654	
-0.88511	0.203252	0.441152	7.42	-8.68	19.32	-1.4507	-0.2276	-1.0701	
-0.895968	0.20008	0.439566	6.37	-8.61	16.03	-1.4582	-0.2159	-1.0682	
-0.894382	0.186904	0.451278	4.69	-8.47	12.6	-1.4551	-0.2174	-1.0698	
-0.885964	0.181536	0.45872	3.22	-8.26	8.96	-1.4537	-0.2321	-1.0701	
-0.88938	0.167384	0.464576	3.15	-8.4	5.53	-1.449	-0.2248	-1.0776	
-0.884134	0.161894	0.457012	3.15	-8.26	2.38	-1.4568	-0.2366	-1.0732	
-0.886574	0.15128	0.459574	1.05	-7.7	-0.42	-1.4566	-0.2204	-1.0744	
-0.881572	0.127368	0.457866	2.38	-7.63	-2.17	-1.4598	-0.2277	-1.0669	
-0.880352	0.117852	0.464454	-0.63	-7.84	-3.85	-1.4687	-0.2339	-1.082	
-0.888038	0.102114	0.46177	-0.77	-7.07	-4.34	-1.4719	-0.2234	-1.0666	
-0.883524	0.079788	0.469212	-2.45	-7.56	-3.85	-1.4688	-0.2323	-1.0744	
-0.886452	0.053558	0.468602	-1.75	-7.14	-2.87	-1.4688	-0.2234	-1.0682	
-0.905118	0.022936	0.474824	-1.82	-6.58	-1.54	-1.4674	-0.2307	-1.0668	
-0.90463	-0.005856	0.4697	-1.12	-6.65	-0.14	-1.484	-0.2354	-1.0756	
-0.887794	-0.014396	0.477142	0.56	-6.58	1.33	-1.4612	-0.2337	-1.0745	
-0.905972	-0.012322	0.462868	1.68	-6.23	3.85	-1.4733	-0.219	-1.071	
-0.903532	-0.012444	0.463356	1.96	-6.09	7.63	-1.4748	-0.2264	-1.0726	
-0.880474	-0.024888	0.45506	3.43	-7.07	11.9	-1.4718	-0.2309	-1.0743	
-0.888648	-0.033306	0.447252	5.39	-7.35	15.54	-1.4701	-0.2266	-1.0818	
-0.896212	-0.032208	0.44042	6.3	-8.68	17.78	-1.4719	-0.2264	-1.0697	
-0.892308	-0.035014	0.450546	6.72	-10.43	19.25	-1.4703	-0.2368	-1.079	
-0.879864	-0.042944	0.462136	7.91	-11.83	21.42	-1.4764	-0.2279	-1.0726	
-0.864126	-0.05551	0.482754	10.22	-12.6	23.73	-1.4796	-0.2486	-1.0729	
-0.852536	-0.054656	0.487878	14.56	-12.67	25.9	-1.4763	-0.2429	-1.0865	
-0.843386	-0.04697	0.49471	19.25	-12.04	28.28	-1.4807	-0.246	-1.0925	
-0.832162	-0.0366	0.503494	23.73	-11.83	31.64	-1.4857	-0.2561	-1.0775	
-0.820938	-0.006344	0.509228	28.35	-10.99	34.51	-1.4871	-0.2621	-1.0836	
-0.810568	0.031476	0.514352	31.92	-10.5	36.89	-1.4963	-0.2666	-1.0805	
-0.803248	0.072102	0.523014	34.93	-10.29	39.69	-1.5023	-0.2741	-1.0866	
-0.819962	0.1281	0.513498	38.92	-9.31	42.77	-1.498	-0.2858	-1.0823	
-0.805932	0.171166	0.51911	38.85	-9.52	45.78	-1.492	-0.2991	-1.0857	
-0.797026	0.206668	0.509716	40.53	-11.62	49.07	-1.5057	-0.2992	-1.0839	
-0.791658	0.245342	0.50203	42.21	-10.99	51.66	-1.4919	-0.3066	-1.0934	
-0.803858	0.27999	0.487512	42.98	-10.29	53.13	-1.5166	-0.3183	-1.0765	
-0.804224	0.30927	0.47946	43.89	-10.01	54.88	-1.5122	-0.3375	-1.08	
-0.771284	0.338184	0.4575	45.85	-11.41	56.14	-1.5091	-0.3375	-1.08	
-0.7625	0.365146	0.445544	46.2	-11.83	57.33	-1.5335	-0.351	-1.0798	
-0.751032	0.395524	0.446276	46.41	-11.9	58.8	-1.5292	-0.3612	-1.0755	
-0.733586	0.425414	0.457012	46.34	-11.76	60.13	-1.5337	-0.3627	-1.077	
-0.699182	0.442738	0.466528	46.9	-11.13	61.6	-1.5373	-0.3846	-1.0592	
-0.672586	0.464698	0.464088	46.69	-11.48	61.67	-1.5432	-0.3803	-1.0666	
-0.671854	0.489342	0.45567	48.3	-9.1	61.39	-1.5389	-0.3994	-1.064	
-0.665632	0.507398	0.435784	47.53	-9.31	61.25	-1.5587	-0.4129	-1.0653	
-0.649894	0.525942	0.416996	48.16	-8.26	60.62	-1.5678	-0.4234	-1.0699	
-0.652822	0.567422	0.415166	49.77	-8.61	59.5	-1.5619	-0.4395	-1.0688	
-0.675636	0.629886	0.388936	50.96	-9.38	57.89	-1.5715	-0.4422	-1.046	
-0.672586	0.648552	0.400648	48.58	-11.62	57.12	-1.5777	-0.457	-1.0446	
-0.640256	0.663436	0.390034	49.21	-14.49	55.93	-1.5837	-0.466	-1.0492	
-0.62464	0.69418	0.379176	49.77	-15.96	53.83	-1.5886	-0.4717	-1.0386	
-0.628056	0.720898	0.35319	50.12	-16.94	52.71	-1.6037	-0.4749	-1.0414	
-0.6039	0.738344	0.343552	48.79	-18.76	52.43	-1.6115	-0.4866	-1.0355	
-0.582428	0.767258	0.348798	47.32	-20.65	52.01	-1.6086	-0.4968	-1.0312	
-0.568032	0.790804	0.344772	46.62	-21	51.87	-1.6253	-0.5029	-1.0325	
-0.550708	0.802638	0.343674	43.68	-22.96	51.03	-1.615	-0.5101	-1.0252	
-0.536312	0.814228	0.345748	41.93	-23.87	49.63	-1.6424	-0.522	-1.0204	
-0.520086	0.814106	0.354898	37.52	-22.26	47.81	-1.6471	-0.525	-1.0173	
-0.486414	0.821548	0.364292	33.04	-23.45	46.34	-1.6655	-0.5235	-1.0049	
-0.456768	0.838384	0.37149	31.57	-22.26	45.43	-1.664	-0.5412	-1.0098	
-0.432124	0.835822	0.38613	27.16	-20.86	44.59	-1.6748	-0.5427	-1.002	
-0.423218	0.833382	0.391376	25.27	-21.21	43.47	-1.6855	-0.5501	-1.002	
-0.423218	0.845948	0.390644	25.55	-19.6	41.65	-1.6961	-0.5502	-1.0018	
-0.414068	0.868396	0.39162	24.08	-17.78	39.41	-1.6993	-0.562	-0.9974	
-0.407358	0.892918	0.398208	20.02	-16.94	37.87	-1.7008	-0.5531	-0.9957	
-0.411628	0.906582	0.393206	17.78	-16.03	35.84	-1.7055	-0.5679	-0.9942999	
-0.394304	0.911584	0.38674	16.45	-15.26	32.83	-1.7178	-0.5679	-0.9865	
-0.383568	0.933788	0.391132	15.4	-14.91	29.96	-1.7345	-0.5754	-0.9879	
-0.377468	0.956358	0.374906	15.47	-13.86	26.95	-1.7268	-0.5651	-0.9909	
-0.357948	0.962336	0.36661	12.25	-13.65	24.01	-1.7316	-0.5857	-0.9851	
-0.339526	0.98027	0.370636	9.03	-12.6	21.07	-1.7285	-0.5724	-0.9849	
-0.323056	0.989664	0.371856	6.65	-12.11	17.64	-1.7376	-0.5695	-0.9832	
-0.319274	0.99491	0.363804	5.95	-10.08	13.79	-1.7422	-0.5739	-0.9817	
-0.317688	1.009062	0.360998	2.8	-7.7	9.87	-1.745	-0.5727	-0.9952	
-0.29829	0.996008	0.36844	-4.06	-7.21	6.44	-1.7466	-0.5726	-0.9861	
-0.266204	0.972462	0.38308	-9.59	-4.83	2.73	-1.756	-0.5843	-0.9801	
-0.239242	0.963434	0.377224	-9.8	-3.5	-1.05	-1.7619	-0.5815	-0.9829	
-0.24949	0.973682	0.368684	-7.63	-1.33	-3.99	-1.7528	-0.5785	-0.9861	
-0.262666	0.971364	0.366854	-9.8	1.33	-6.72	-1.7481	-0.5697	-0.989	
-0.267058	0.976244	0.37881	-15.4	2.52	-9.73	-1.7452	-0.5724	-0.9801	
-0.264008	0.963434	0.37759	-16.31	4.06	-12.32	-1.745	-0.5757	-0.9952	
-0.265716	0.9577	0.38918	-17.22	5.74	-14.56	-1.7359	-0.5697	-0.9938	
-0.277672	0.950258	0.388326	-15.75	7.07	-17.71	-1.7492	-0.5551	-0.9993	
-0.287432	0.941474	0.392962	-17.29	8.75	-20.86	-1.7386	-0.5566	-1.0026	
-0.28975	0.936838	0.406138	-18.62	9.73	-23.8	-1.7264	-0.561	-1.0074	
-0.29402	0.931836	0.410896	-18.97	10.64	-26.88	-1.7296	-0.5489	-0.9935	
-0.324276	0.942938	0.407236	-16.94	12.74	-29.33	-1.7203	-0.5595	-1.012	
-0.350262	0.949526	0.394304	-18.13	14.77	-31.29	-1.7172	-0.5506	-1.0104	
-0.369172	0.939034	0.404674	-22.54	15.05	-33.6	-1.7126	-0.558	-1.0167	
-0.378932	0.930372	0.396012	-22.89	15.68	-36.26	-1.7112	-0.5475	-1.0059	
-0.391986	0.920368	0.396622	-25.97	16.52	-38.92	-1.7066	-0.5475	-1.0075	
-0.41297	0.913536	0.386008	-27.58	17.43	-41.02	-1.6927	-0.5417	-1.0183	
-0.425658	0.893894	0.395768	-31.5	18.06	-43.33	-1.6896	-0.5416	-1.0183	
-0.432734	0.871934	0.395524	-34.58	17.92	-46.2	-1.6772	-0.5284	-1.0274	
-0.450058	0.849608	0.403698	-36.47	17.71	-48.58	-1.6758	-0.5208	-1.0167	
-0.465552	0.835456	0.402234	-36.12	18.76	-50.54	-1.6604	-0.5224	-1.0306	
-0.481412	0.825086	0.407968	-38.36	18.9	-53.34	-1.6586	-0.5137	-1.0411	
-0.488122	0.812032	0.416508	-39.41	19.46	-55.93	-1.6466	-0.5061	-1.0321	
-0.501298	0.795928	0.416264	-40.74	20.58	-58.17	-1.6404	-0.4957	-1.0351	
-0.5185	0.771406	0.420046	-42.49	21.35	-60.76	-1.6356	-0.4989	-1.0473	
-0.53314	0.748226	0.421876	-44.03	22.4	-63	-1.6309	-0.487	-1.0487	
-0.54778	0.727608	0.42334	-45.85	23.38	-64.96	-1.6143	-0.4794	-1.0443	
-0.561444	0.699548	0.432612	-47.67	24.5	-66.78	-1.6003	-0.4677	-1.0565	
-0.585356	0.677588	0.439566	-49.14	26.18	-68.46	-1.5865	-0.4603	-1.0611	
-0.5978	0.648552	0.435418	-52.15	27.79	-70	-1.5834	-0.4455	-1.0579	
-0.612928	0.597922	0.43005	-53.55	29.26	-71.26	-1.5817	-0.4397	-1.0639	
-0.636596	0.55937	0.451766	-54.53	29.61	-72.1	-1.559	-0.426	-1.055	
-0.681126	0.533506	0.425658	-52.92	32.27	-72.94	-1.5584	-0.4072	-1.0758	
-0.716018	0.487024	0.440298	-56.77	32.13	-73.92	-1.5433	-0.4055	-1.0716	
-0.762744	0.445666	0.43371	-56.14	32.2	-74.9	-1.5356	-0.3862	-1.0698	
-0.812276	0.39345	0.411994	-54.88	29.61	-75.18	-1.5189	-0.3831	-1.0671	
-0.812398	0.326472	0.40382	-54.32	27.79	-74.48	-1.5156	-0.3625	-1.0713	
-0.78019	0.287676	0.412116	-54.18	26.67	-73.85	-1.5063	-0.3566	-1.0789	
-0.783484	0.252784	0.387472	-53.9	27.3	-73.57	-1.5033	-0.3417	-1.0696	
-0.8235	0.205814	0.376736	-55.37	27.51	-71.68	-1.4881	-0.3208	-1.062	
-0.839482	0.15311	0.378322	-54.11	24.99	-69.58	-1.4968	-0.3034	-1.0751	
-0.853512	0.099796	0.364414	-55.65	21.98	-66.78	-1.4816	-0.2928	-1.0692	
-0.877546	0.03721	0.3782	-55.09	19.74	-64.54	-1.4666	-0.2866	-1.0618	
-0.871202	-0.005734	0.38125	-53.69	16.59	-63.07	-1.4799	-0.2766	-1.0719	
-0.856806	-0.049044	0.399794	-52.01	12.81	-61.74	-1.4662	-0.2662	-1.072	
-0.861198	-0.08662	0.401746	-47.25	11.27	-59.36	-1.4613	-0.2411	-1.0732	
-0.870104	-0.125294	0.40748	-42.49	10.29	-56.42	-1.4613	-0.2336	-1.07	
-0.86681	-0.147376	0.413214	-37.1	8.96	-52.85	-1.4582	-0.2278	-1.0745	
-0.863028	-0.166042	0.424438	-32.06	8.05	-49.35	-1.4657	-0.2175	-1.0726	

-0.880108	-0.177632	0.423584	-21.35	6.86	-39.97	-1.4566	-0.2099	-1.0651	
-0.887794	-0.167018	0.426268	-17.29	6.02	-35.21	-1.4625	-0.1923	-1.0662	
-0.903166	-0.160796	0.41907	-13.09	4.2	-30.31	-1.4533	-0.1834	-1.0692	
-0.910974	-0.160552	0.418948	-11.48	2.38	-24.92	-1.4517	-0.179	-1.0677	
-0.920246	-0.167628	0.42212	-9.87	1.4	-20.23	-1.4517	-0.173	-1.0645	
-0.928176	-0.17507	0.426878	-9.24	-0.84	-15.96	-1.4549	-0.1849	-1.0662	
-0.936594	-0.170922	0.425414	-7.84	-2.1	-12.95	-1.4607	-0.1717	-1.0719	
-0.922808	-0.172264	0.427366	-5.74	-3.5	-10.29	-1.4563	-0.176	-1.0675	
-0.910852	-0.16958	0.432978	-3.99	-4.27	-7.14	-1.4669	-0.1731	-1.0643	
-0.906216	-0.158844	0.43798	-2.31	-3.64	-4.62	-1.4667	-0.1719	-1.0748	
-0.899506	-0.145546	0.434808	-2.03	-3.64	-2.31	-1.4653	-0.1688	-1.0687	
-0.893772	-0.131394	0.437614	0.77	-3.64	-0.28	-1.4515	-0.1717	-1.0751	
-0.886086	-0.118706	0.449204	1.61	-4.06	1.61	-1.4546	-0.1673	-1.0719	
-0.883646	-0.09942999	0.44774	4.2	-4.06	3.01	-1.4576	-0.1703	-1.0735	

-0.893772	-0.043676	0.445056	4.83	-4.13	2.73	-1.4579	-0.1849	-1.0662	
-0.909876	-0.012566	0.440176	6.02	-4.34	0.63	-1.4637	-0.1614	-1.0686	
-0.913292	0.008052	0.43127	4.97	-4.9	-1.54	-1.4638	-0.1762	-1.0704	
-0.918172	0.03599	0.432368	2.73	-5.53	-4.13	-1.4668	-0.1822	-1.0735	
-0.92598	0.060024	0.426756	0.91	-5.81	-6.79	-1.4696	-0.166	-1.0777	
-0.928054	0.07076	0.42395	-3.01	-6.86	-9.1	-1.4696	-0.172	-1.0793	
-0.923784	0.081496	0.428464	-5.53	-7.35	-11.06	-1.4729	-0.1762	-1.0687	
-0.912316	0.091378	0.435418	-9.03	-8.4	-13.51	-1.4668	-0.1687	-1.0657	
-0.905362	0.094428	0.44042	-11.62	-8.89	-16.03	-1.4621	-0.16	-1.0732	
-0.89609	0.09089	0.442982	-13.58	-9.31	-18.48	-1.4772	-0.1601	-1.0729	
-0.87901	0.083326	0.443348	-15.68	-9.66	-21	-1.4696	-0.1661	-1.0792	
-0.879376	0.072468	0.444568	-17.92	-9.45	-23.73	-1.4667	-0.1644	-1.0717	
-0.885842	0.050996	0.44469	-20.44	-9.45	-26.81	-1.4726	-0.1587	-1.0775	
-0.870958	0.033184	0.444324	-22.47	-10.36	-30.24	-1.4756	-0.1453	-1.0696	
-0.883646	-0.00183	0.44652	-25.48	-10.99	-33.67	-1.4663	-0.1484	-1.085	
-0.879254	-0.038796	0.47214	-25.48	-9.8	-37.17	-1.4846	-0.1425	-1.0755	
-0.862906	-0.077958	0.482388	-29.33	-11.48	-41.09	-1.4845	-0.1366	-1.0753	
-0.844606	-0.109556	0.487268	-28.84	-13.51	-44.45	-1.4979	-0.1251	-1.0809	
-0.844972	-0.14091	0.48861	-30.1	-12.11	-47.46	-1.4889	-0.1205	-1.0765	
-0.826062	-0.180194	0.496784	-33.11	-12.6	-49.56	-1.4947	-0.1029	-1.0806	
-0.823866	-0.201178	0.496906	-32.76	-14.28	-49.84	-1.4872	-0.0998	-1.0731	
-0.826184	-0.24644	0.495564	-30.52	-14.49	-50.75	-1.5053	-0.1001	-1.0803	
-0.817766	-0.261446	0.491294	-29.05	-15.89	-52.08	-1.5248	-0.08109999	-1.0781	
-0.797758	-0.261934	0.48922	-29.68	-19.18	-52.15	-1.5126	-0.0765	-1.0783	
-0.782142	-0.271816	0.492148	-30.59	-19.81	-51.87	-1.5188	-0.066	-1.0659	
-0.752252	-0.28365	0.488	-33.18	-21.77	-51.31	-1.5229	-0.0487	-1.0836	
-0.742492	-0.320616	0.494222	-35.91	-20.65	-49.28	-1.529	-0.0576	-1.0851	
-0.735904	-0.354288	0.48495	-36.4	-18.76	-47.53	-1.5427	-0.0563	-1.0834	
-0.728706	-0.378566	0.47458	-36.89	-18.83	-47.11	-1.5459	-0.0323	-1.0617	
-0.720898	-0.411262	0.470188	-37.52	-18.9	-46.9	-1.5517	-0.0222	-1.0705	
-0.731756	-0.449814	0.457012	-35.77	-18.06	-47.46	-1.57	-0.0237	-1.0626	
-0.718214	-0.471286	0.445544	-34.09	-19.81	-48.23	-1.5697	-0.0165	-1.073	
-0.688446	-0.48556	0.44713	-33.25	-22.12	-48.79	-1.5623	-0.0163	-1.0656	
-0.66917	-0.5002	0.447008	-33.39	-20.93	-49.49	-1.5711	-0.0003	-1.0697	
-0.655384	-0.52826	0.443714	-34.51	-24.64	-49.63	-1.5926	-0.0003	-1.0587	
-0.640866	-0.550464	0.452864	-33.74	-27.09	-48.3	-1.5907	0.0083	-1.0707	
-0.634156	-0.568032	0.445056	-34.37	-27.16	-47.25	-1.5968	0.0112	-1.0675	
-0.616832	-0.57157	0.452864	-32.9	-31.08	-45.92	-1.6182	0.0142	-1.0564	
-0.560346	-0.575108	0.446154	-29.4	-27.51	-43.68	-1.6074	0.0334	-1.0593	
-0.569496	-0.609634	0.4575	-34.86	-26.39	-41.93	-1.6257	0.0333	-1.0514	
-0.54778	-0.62586	0.456646	-32.48	-30.66	-38.22	-1.6271	0.0481	-1.0526	
-0.559492	-0.662948	0.458842	-33.04	-25.97	-36.26	-1.6483	0.042	-1.0523	
-0.547902	-0.685762	0.471286	-34.3	-25.2	-34.93	-1.6376	0.045	-1.0555	
-0.52338	-0.67832	0.477264	-30.24	-26.18	-32.69	-1.6499	0.0539	-1.0461	
-0.50264	-0.682224	0.480314	-31.29	-26.81	-30.38	-1.6634	0.064	-1.0471	
-0.501664	-0.707966	0.480802	-33.25	-25.2	-28.07	-1.6711	0.0596	-1.0425	
-0.507032	-0.738832	0.493856	-34.79	-22.19	-26.67	-1.6618	0.0729	-1.047	
-0.510204	-0.769088	0.503372	-36.05	-23.03	-25.13	-1.6743	0.0642	-1.0303	
-0.499346	-0.778482	0.506666	-34.16	-23.52	-24.15	-1.6877	0.0758	-1.0359	
-0.49349	-0.782752	0.493368	-30.94	-23.03	-23.38	-1.6847	0.0803	-1.0313	
-0.490928	-0.795928	0.494832	-28.42	-23.73	-22.96	-1.6967	0.0979	-1.0308	
-0.490928	-0.804468	0.480558	-25.9	-23.45	-22.96	-1.6924	0.0878	-1.0204	
-0.491294	-0.799832	0.464942	-19.46	-23.87	-21.91	-1.7015	0.0967	-1.0156	




-0.415654	-0.823744	0.477508	-11.62	-13.72	-7.98	-1.7213	0.104	-1.0075	
-0.402234	-0.824232	0.46909	-8.4	-11.06	-4.69	-1.7364	0.0949	-1.0134	
-0.406382	-0.828868	0.457866	-7.28	-9.73	-1.75	-1.7212	0.1098	-1.0119	
-0.404064	-0.828014	0.44957	-6.37	-7.49	0.28	-1.7349	0.1067	-1.0102	
-0.39711	-0.828868	0.44774	-5.39	-5.46	1.61	-1.7304	0.1054	-1.0058	
-0.383446	-0.83082	0.451888	-5.39	-2.87	2.66	-1.7227	0.0964	-1.0197	
-0.375638	-0.82716	0.445056	-2.52	-0.14	3.43	-1.7333	0.1082	-1.0117	
-0.383324	-0.820572	0.442738	-2.17	0.42	3.99	-1.7196	0.1023	-1.0197	
-0.381616	-0.827526	0.453352	-3.78	1.61	4.69	-1.7274	0.104	-1.0044	
-0.374906	-0.822158	0.450302	3.22	3.57	5.25	-1.7276	0.11	-0.9952	
-0.36966	-0.823134	0.45262	2.73	4.76	6.44	-1.732	0.1055	-1.0012	
-0.374662	-0.818742	0.457012	4.76	7.91	7	-1.7289	0.1099	-1.0027	
-0.388326	-0.820816	0.460428	5.67	9.59	7.7	-1.7228	0.1128	-1.0058	
-0.400038	-0.824842	0.460062	7.21	11.2	8.26	-1.7242	0.1053	-1.015	
-0.399794	-0.820572	0.46238	8.33	12.74	9.1	-1.7166	0.1039	-1.0152	
-0.404308	-0.816302	0.46299	10.57	13.44	10.5	-1.7179	0.1156	-1.021	
-0.429196	-0.825086	0.457988	11.83	14.21	12.04	-1.7228	0.1039	-1.0105	
-0.438102	-0.822158	0.449204	15.75	15.12	13.93	-1.7105	0.1084	-1.0137	
-0.455182	-0.818864	0.452254	18.27	17.43	15.75	-1.7032	0.0938	-1.0096	
-0.468114	-0.80947	0.45201	20.72	18.55	18.06	-1.7062	0.0967	-1.0094	
-0.475678	-0.795562	0.457622	22.33	19.32	20.58	-1.703	0.0862	-1.0218	
-0.48007	-0.787388	0.461038	24.36	20.23	23.17	-1.6879	0.0909	-1.0159	
-0.485194	-0.780678	0.470554	25.55	21.7	25.83	-1.6833	0.0849	-1.0252	
-0.495686	-0.764818	0.472262	27.65	22.96	28.28	-1.6758	0.088	-1.0193	
-0.508984	-0.752496	0.471652	29.68	23.73	31.08	-1.6695	0.0804	-1.0376	
-0.51789	-0.732854	0.472628	31.85	24.08	33.74	-1.6681	0.07449999	-1.0348	
-0.538752	-0.721752	0.46787	32.27	24.43	36.54	-1.6621	0.0613	-1.0336	
-0.547536	-0.704062	0.469578	33.04	26.53	39.13	-1.6514	0.0672	-1.0397	
-0.552538	-0.683078	0.47092	33.95	28.07	41.3	-1.6498	0.0598	-1.0444	
-0.560834	-0.655506	0.459208	35.56	27.51	42.98	-1.6362	0.057	-1.0448	
-0.58011	-0.638304	0.463234	34.37	28.42	44.66	-1.6197	0.0483	-1.0407	
-0.593042	-0.620492	0.463356	34.09	27.51	46.69	-1.6289	0.0379	-1.0422	
-0.612806	-0.596092	0.466528	33.6	28.7	47.88	-1.6108	0.0352	-1.0366	
-0.633058	-0.56059	0.464332	34.16	27.86	49.14	-1.6015	0.0292	-1.0505	
-0.661362	-0.543754	0.455548	31.43	25.69	49.98	-1.5924	0.0292	-1.0521	
-0.674294	-0.53497	0.45933	30.59	26.32	50.4	-1.5864	0.013	-1.0571	
-0.6893	-0.50691	0.458232	31.5	24.57	50.4	-1.5849	0.0115	-1.0571	
-0.710406	-0.480436	0.45689	31.36	24.08	50.05	-1.5744	0.0103	-1.0513	
-0.730536	-0.463234	0.455426	30.52	24.36	50.26	-1.5713	-0.0002	-1.0637	
-0.737856	-0.447496	0.443714	32.55	24.36	50.19	-1.5517	-0.0028	-1.0595	
-0.746152	-0.42761	0.43676	34.93	22.54	49.7	-1.5518	0.0017	-1.0489	
-0.75945	-0.403698	0.434808	34.58	20.93	49.7	-1.5366	-0.0145	-1.0616	
-0.773846	-0.38308	0.445056	34.09	20.3	50.12	-1.5379	-0.0311	-1.0785	
-0.776896	-0.365146	0.438102	34.86	18.27	50.61	-1.5245	-0.0278	-1.0696	
-0.774944	-0.339892	0.444446	35.91	17.99	50.89	-1.5246	-0.0411	-1.0698	
-0.789462	-0.328058	0.439932	35.42	17.43	51.38	-1.52	-0.0425	-1.0699	
-0.80886	-0.318664	0.436272	36.82	17.29	51.38	-1.5049	-0.0572	-1.075	
-0.812886	-0.28975	0.438224	37.1	15.89	51.03	-1.5173	-0.0691	-1.0705	
-0.81679	-0.266814	0.432856	38.01	14.49	51.17	-1.5114	-0.0673	-1.06	
-0.815448	-0.239974	0.430416	38.5	14.07	50.68	-1.5021	-0.0734	-1.0754	
-0.816668	-0.21167	0.425902	37.94	12.6	49.63	-1.4916	-0.0806	-1.0697	
-0.81862	-0.194102	0.43371	36.26	11.69	49	-1.4842	-0.0982	-1.0701	
-0.8235	-0.173118	0.43737	34.93	11.27	48.72	-1.4995	-0.1146	-1.0716	
-0.828868	-0.152378	0.44225	33.39	10.57	47.6	-1.4827	-0.122	-1.0827	
-0.828502	-0.128344	0.443348	32.76	8.89	46.27	-1.4752	-0.1263	-1.0814	
-0.847168	-0.11041	0.440786	31.08	7.91	44.94	-1.4813	-0.1294	-1.0828	
-0.857294	-0.090402	0.452498	30.45	6.79	43.47	-1.4799	-0.1322	-1.0738	
-0.889746	-0.05612	0.457012	29.47	5.46	41.37	-1.4741	-0.1468	-1.0712	
-0.923174	-0.010004	0.467992	28.07	3.29	39.34	-1.4694	-0.1558	-1.0805	
-0.940498	0.052582	0.467016	25.69	1.33	37.17	-1.477	-0.1618	-1.0865	
-0.898408	0.093818	0.467382	23.31	-0.49	35.56	-1.4682	-0.1704	-1.0763	
-0.854976	0.105774	0.467138	20.79	-1.12	35.07	-1.4697	-0.1599	-1.067	
-0.862784	0.10919	0.466772	19.88	1.26	33.88	-1.4711	-0.1779	-1.0824	
-0.88084	0.121878	0.460184	17.29	2.17	31.43	-1.4667	-0.1897	-1.0812	
-0.876326	0.131638	0.459208	15.61	2.17	28.91	-1.4774	-0.1927	-1.078	
-0.878278	0.138104	0.454938	15.33	1.54	26.81	-1.476	-0.1896	-1.0704	
-0.880962	0.137494	0.456158	14.7	0.49	25.2	-1.4701	-0.1983	-1.0692	
-0.875472	0.132492	0.46177	14.07	-1.19	23.52	-1.464	-0.2013	-1.0724	
-0.87474	0.124806	0.460428	14.91	-2.1	21.07	-1.4611	-0.21	-1.0681	
-0.870592	0.120414	0.461282	14.49	-2.03	18.2	-1.467	-0.2058	-1.0769	
-0.874008	0.133224	0.468602	14.49	-1.54	15.33	-1.4716	-0.2147	-1.077	
-0.885232	0.141886	0.458476	13.16	-1.26	13.16	-1.467	-0.2222	-1.0848	
-0.890112	0.141032	0.456036	12.18	-1.61	11.69	-1.4701	-0.2192	-1.0817	
-0.902678	0.12322	0.465308	11.2	-1.54	10.43	-1.4746	-0.2207	-1.0816	
-0.897188	0.12017	0.468358	9.66	-2.1	8.33	-1.4611	-0.2219	-1.0743	
-0.885476	0.12078	0.472384	9.17	-2.87	6.09	-1.4779	-0.225	-1.0725	
-0.87901	0.115534	0.467626	8.61	-2.31	4.9	-1.4732	-0.2191	-1.0771	
-0.885354	0.105652	0.463966	8.82	-1.68	4.55	-1.4719	-0.2279	-1.0712	
-0.88084	0.098942	0.462014	8.4	-2.1	4.27	-1.4628	-0.2308	-1.0729	
-0.878034	0.097356	0.46055	7.98	-2.73	3.99	-1.4765	-0.2397	-1.0713	
-0.889502	0.097356	0.457378	7.98	-3.22	4.48	-1.4675	-0.2441	-1.0716	
-0.888526	0.087596	0.458842	7.56	-3.92	5.46	-1.481	-0.2398	-1.0758	
-0.883524	0.07991	0.467138	7.35	-3.92	6.65	-1.4779	-0.2354	-1.0742	
-0.88572	0.075884	0.468968	7.42	-4.27	8.12	-1.4751	-0.2352	-1.0652	
-0.888038	0.075274	0.46726	7.63	-4.62	9.8	-1.4717	-0.2369	-1.0819	
-0.892674	0.06832	0.46482	8.4	-5.11	12.04	-1.4795	-0.2324	-1.0711	
-0.892308	0.061488	0.466284	9.03	-5.53	14	-1.4765	-0.2546	-1.0776	
-0.896456	0.056364	0.46787	9.31	-6.09	15.96	-1.4903	-0.2472	-1.0697	
-0.88511	0.05612	0.468602	10.22	-6.86	17.99	-1.4796	-0.2501	-1.0745	
-0.875594	0.056852	0.471652	11.48	-7.35	20.23	-1.472	-0.2531	-1.0777	
-0.864492	0.057828	0.47763	12.39	-7.56	22.68	-1.4734	-0.2576	-1.0853	
-0.862174	0.069052	0.483852	14.77	-7.07	24.92	-1.4825	-0.2652	-1.0898	
-0.866688	0.076494	0.479826	16.73	-7.28	26.74	-1.4857	-0.2635	-1.0791	
-0.854	0.076372	0.486902	18.13	-7.14	28.7	-1.4828	-0.2649	-1.0747	
-0.837408	0.087352	0.500566	19.88	-7.21	30.38	-1.4828	-0.2783	-1.0795	
-0.840702	0.11651	0.498858	23.03	-6.37	31.57	-1.4798	-0.2782	-1.078	
-0.843508	0.136762	0.49654	24.78	-6.23	33.46	-1.4981	-0.2916	-1.0779	
-0.83936	0.151402	0.49532	26.88	-7	36.05	-1.4966	-0.2991	-1.0811	
-0.832284	0.161406	0.496052	29.47	-6.3	38.57	-1.489	-0.3049	-1.0844	
-0.82533	0.183	0.503616	32.27	-7.14	40.67	-1.4907	-0.3168	-1.0845	
-0.834114	0.226432	0.49105	36.12	-6.44	41.93	-1.4922	-0.3123	-1.0829	
-0.808128	0.242658	0.47824	36.47	-7.49	44.38	-1.5091	-0.3241	-1.0753	
-0.779336	0.23729	0.477874	37.03	-7.35	47.32	-1.5031	-0.327	-1.0754	
-0.777384	0.266082	0.47214	39.97	-5.67	48.86	-1.5108	-0.3374	-1.0709	
-0.787998	0.305122	0.468724	41.51	-6.02	50.26	-1.5016	-0.3434	-1.0818	
-0.778604	0.333792	0.464088	41.37	-6.93	52.36	-1.508	-0.3535	-1.0683	
-0.760914	0.372954	0.450424	42.77	-6.65	54.46	-1.5186	-0.3625	-1.0728	
-0.76372	0.418826	0.439932	43.26	-6.93	56.35	-1.5235	-0.3697	-1.0577	
-0.771894	0.46116	0.425292	44.03	-6.3	58.52	-1.5298	-0.3874	-1.0579	
-0.75884	0.487634	0.41053	43.61	-7.07	60.48	-1.5404	-0.3949	-1.0578	
-0.724802	0.511302	0.404796	42.91	-7.07	61.18	-1.5373	-0.3995	-1.067	
-0.702964	0.530456	0.387472	43.75	-8.12	61.6	-1.5378	-0.4288	-1.057	
-0.691252	0.544974	0.370392	43.68	-9.59	61.39	-1.5514	-0.4171	-1.0535	
-0.670634	0.544608	0.359534	42.98	-10.99	60.55	-1.55	-0.4318	-1.0523	
-0.656726	0.567544	0.357338	44.73	-11.83	58.45	-1.5592	-0.4452	-1.0538	
-0.654896	0.595848	0.349286	44.73	-14.91	56.77	-1.5625	-0.4599	-1.0495	
-0.639158	0.612196	0.347212	44.03	-16.24	56.07	-1.5853	-0.4644	-1.0446	
-0.61549	0.626592	0.352702	43.33	-19.04	55.02	-1.5886	-0.4747	-1.0402	
-0.60573	0.646234	0.357216	44.94	-18.97	53.76	-1.5903	-0.4775	-1.0297	
-0.594262	0.690886	0.35868	47.25	-20.79	53.55	-1.5904	-0.4893	-1.0329	
-0.582916	0.712114	0.347944	46.69	-22.68	54.46	-1.604	-0.4895	-1.0341	
-0.546438	0.723826	0.3477	46.9	-23.8	54.88	-1.6149	-0.5071	-1.0252	
-0.545462	0.771406	0.342942	50.47	-24.29	55.02	-1.6289	-0.5307	-1.0193	
-0.529724	0.798978	0.331108	49.84	-26.32	55.79	-1.6364	-0.5294	-1.0206	
-0.502396	0.82838	0.3233	49.07	-26.25	55.23	-1.6503	-0.5353	-1.0129	
-0.488976	0.864004	0.314028	48.23	-27.09	54.88	-1.6474	-0.5336	-1.0054	
-0.464942	0.898774	0.301706	48.51	-27.44	54.53	-1.6523	-0.5452	-0.9934	
-0.464454	0.943426	0.29768	44.17	-29.05	53.76	-1.6795	-0.5575	-1.0022	
-0.456768	0.976732	0.29341	38.71	-28.28	52.99	-1.6874	-0.5662	-0.9901	
-0.428098	0.97722	0.296948	31.43	-29.61	52.29	-1.6935	-0.5573	-0.9838	
-0.38369	0.94367	0.311832	23.45	-31.71	50.68	-1.6966	-0.5751	-0.9870999	
-0.35319	0.954772	0.326838	21.91	-29.33	46.76	-1.7179	-0.5707	-0.9806	
-0.338062	0.96136	0.330864	18.76	-23.87	42.63	-1.7165	-0.5751	-0.9776	
-0.318298	0.958188	0.33855	12.67	-19.46	39.34	-1.727	-0.5738	-0.9835	
-0.295362	0.946964	0.35197	8.47	-19.04	36.05	-1.7377	-0.5827	-0.9819	
-0.290482	0.943548	0.354654	7	-17.78	33.95	-1.7394	-0.5796	-0.9697	
-0.281576	0.93757	0.347456	4.69	-17.57	32.06	-1.7452	-0.5785	-0.9862	
-0.280234	0.946476	0.360998	4.76	-15.68	28.56	-1.7621	-0.5739	-0.9722	
-0.282552	0.964288	0.359534	7.84	-14	24.92	-1.7742	-0.5845	-0.9782	
-0.274378	0.976122	0.35319	7.63	-13.16	21.56	-1.7681	-0.5814	-0.9753	
-0.25803	0.985638	0.354654	6.3	-13.23	19.18	-1.7791	-0.5916	-0.9615999	
-0.23912	0.985516	0.35868	4.55	-11.48	15.96	-1.7864	-0.5815	-0.9719	
-0.231922	1.012112	0.356362	6.23	-8.54	12.39	-1.785	-0.5859	-0.9659	
-0.225578	1.01565	0.353312	3.15	-6.79	8.89	-1.7804	-0.5888	-0.9705999	
-0.217282	1.013698	0.353678	-2.17	-5.67	5.18	-1.7939	-0.5861	-0.9764	
-0.20435	1.011868	0.356118	-6.58	-5.88	1.89	-1.8032	-0.5876	-0.9686	
-0.201422	1.0187	0.355996	-9.1	-4.2	-0.91	-1.7788	-0.5875	-0.9766999	
-0.196786	1.010648	0.34099	-11.06	-4.06	-3.36	-1.7833	-0.5816	-0.975	
-0.202276	1.004914	0.346724	-14.21	-3.92	-5.74	-1.7805	-0.5828	-0.9645	
-0.204716	1.000278	0.371856	-21.42	-2.87	-8.96	-1.7878	-0.5831	-0.9779	
-0.203496	0.998936	0.373686	-21.91	0.98	-12.53	-1.7894	-0.5682	-0.9655	
-0.1952	0.991006	0.37271	-24.64	1.26	-15.26	-1.7815	-0.5759	-0.9885	
-0.187148	0.991494	0.383934	-24.08	1.89	-18.34	-1.7787	-0.5756	-0.9748999	
-0.204472	0.995276	0.390156	-23.1	3.43	-21.21	-1.771	-0.5757	-0.9842	
-0.21167	0.981124	0.393938	-26.81	4.69	-24.71	-1.7677	-0.5699	-0.9917	
-0.213988	0.979416	0.393694	-26.18	7.49	-28.49	-1.766	-0.5656	-0.9992	
-0.236924	0.968802	0.395524	-26.53	7.63	-31.29	-1.763	-0.5581	-0.9931	
-0.256444	0.969534	0.390522	-27.09	9.24	-33.39	-1.7675	-0.5612	-0.996	
-0.268888	0.967948	0.399916	-29.54	10.85	-36.05	-1.7539	-0.561	-0.9963	
-0.269254	0.951966	0.416386	-33.95	12.04	-38.22	-1.7415	-0.5627	-1.0132	
-0.276818	0.930738	0.429196	-35.07	14	-39.69	-1.7443	-0.5525	-1.0175	
-0.28731	0.90646	0.437736	-35.91	16.38	-40.67	-1.74	-0.5582	-1.0101	
-0.311466	0.892552	0.437736	-34.02	18.55	-41.86	-1.7351	-0.5406	-1.0174	
-0.329034	0.86742	0.441274	-35.7	21.14	-43.54	-1.7275	-0.5406	-1.0206	
-0.346236	0.855952	0.448716	-37.31	22.96	-45.01	-1.7107	-0.533	-1.0208	
-0.368074	0.845826	0.448106	-38.57	25.2	-46.34	-1.7058	-0.5303	-1.0375	
-0.384178	0.819962	0.45323	-40.39	27.16	-47.74	-1.6847	-0.5241	-1.0317	
-0.410286	0.816302	0.452498	-39.83	29.75	-49.56	-1.6906	-0.5169	-1.036	
-0.449326	0.80398	0.44164	-41.16	31.92	-51.31	-1.6692	-0.5049	-1.0392	
-0.48556	0.783484	0.450546	-44.1	32.69	-52.85	-1.6645	-0.4975	-1.0407	
-0.50813	0.762134	0.461282	-45.92	34.72	-54.74	-1.6552	-0.4917	-1.0498	
-0.515816	0.727242	0.47702	-47.74	36.61	-57.05	-1.6519	-0.486	-1.0619	
-0.523746	0.699182	0.481168	-49.14	38.29	-58.73	-1.6443	-0.4815	-1.0619	
-0.550708	0.673806	0.474092	-48.93	38.99	-59.92	-1.6275	-0.477	-1.0652	
-0.578158	0.6344	0.45689	-49.28	39.55	-60.69	-1.6168	-0.4666	-1.0652	
-0.608658	0.59902	0.45628	-50.82	39.27	-61.46	-1.6075	-0.4399	-1.0634	
-0.6405	0.565836	0.442128	-48.65	38.92	-62.44	-1.5935	-0.4415	-1.0788	
-0.679052	0.528504	0.445788	-50.4	37.1	-62.72	-1.5891	-0.4324	-1.0666	
-0.713212	0.475922	0.43737	-49.35	35.42	-63.21	-1.5723	-0.419	-1.0697	
-0.715042	0.436516	0.450912	-47.11	32.41	-64.26	-1.5632	-0.4129	-1.0637	
-0.705404	0.403454	0.43981	-44.31	29.82	-65.24	-1.5507	-0.3939	-1.0772	
-0.722728	0.37637	0.433222	-44.73	27.79	-65.1	-1.543	-0.3879	-1.0788	
-0.767502	0.354166	0.424926	-40.39	27.16	-65.45	-1.5401	-0.3803	-1.0666	
-0.802516	0.313174	0.423462	-41.86	25.34	-65.31	-1.526	-0.3583	-1.0786	
-0.825574	0.277916	0.42456	-42.91	21.28	-64.33	-1.529	-0.3584	-1.0846	
-0.821182	0.254858	0.421022	-39.62	18.62	-64.89	-1.5168	-0.3464	-1.0801	
-0.810202	0.233874	0.40382	-37.24	15.33	-65.03	-1.5259	-0.3361	-1.0736	
-0.843996	0.20496	0.409432	-37.24	15.61	-64.4	-1.5077	-0.3255	-1.0723	
-0.86742	0.186294	0.412116	-36.19	15.4	-64.05	-1.5076	-0.3182	-1.0722	
-0.851438	0.172508	0.41968	-35.63	12.39	-63.63	-1.5012	-0.3095	-1.0842	
-0.833138	0.148474	0.425414	-35.98	8.82	-61.81	-1.4967	-0.299	-1.0766	
-0.836432	0.117242	0.43676	-36.19	9.31	-58.87	-1.4935	-0.2917	-1.0825	
-0.854976	0.091988	0.436638	-34.58	8.61	-55.37	-1.4859	-0.2857	-1.0795	
-0.85827	0.061122	0.443592	-33.6	6.72	-51.8	-1.4763	-0.2592	-1.0913	
-0.86132	0.027572	0.456524	-32.55	6.37	-47.74	-1.4872	-0.2621	-1.0791	
-0.869616	0.00183	0.456402	-29.54	5.18	-43.33	-1.4764	-0.2533	-1.0867	
-0.877424	-0.018056	0.45994	-26.88	4.41	-38.57	-1.4763	-0.2399	-1.0804	
-0.877668	-0.038918	0.458476	-22.05	2.59	-31.64	-1.4672	-0.2309	-1.0804	
-0.887062	-0.048678	0.460062	-18.41	2.45	-27.09	-1.4734	-0.2249	-1.0681	
-0.892918	-0.05246	0.45933	-15.68	0.56	-22.82	-1.4747	-0.2266	-1.0817	
-0.907192	-0.051484	0.45872	-13.44	-0.28	-19.32	-1.4716	-0.2207	-1.0832	
-0.897432	-0.05063	0.464698	-11.48	-2.03	-16.38	-1.4747	-0.2266	-1.0787	
-0.891942	-0.04209	0.467382	-10.01	-3.5	-13.37	-1.4731	-0.2058	-1.0753	
-0.892796	-0.040748	0.469212	-8.4	-4.2	-10.78	-1.4745	-0.2044	-1.0783	
-0.881816	-0.039772	0.4758	-5.81	-5.32	-8.75	-1.4761	-0.2058	-1.0737	
-0.869128	-0.03538	0.477874	-3.64	-6.72	-6.72	-1.476	-0.2	-1.0767	
-0.881084	-0.026352	0.486292	-2.52	-6.58	-5.32	-1.4791	-0.2104	-1.0798	
-0.883646	-0.019764	0.487756	-1.61	-6.86	-5.25	-1.4804	-0.2047	-1.0887	
-0.883646	-0.010004	0.493124	0.07	-7	-5.67	-1.4791	-0.2074	-1.0798	
-0.879376	0.005368	0.497882	0.35	-7.28	-6.23	-1.4789	-0.1987	-1.0841	
-0.871934	0.02196	0.497394	1.54	-7.56	-6.93	-1.4773	-0.2017	-1.0888	
-0.86071	0.042212	0.50691	0.49	-7.7	-7.49	-1.482	-0.2061	-1.0857	
-0.857172	0.064416	0.511546	0.14	-6.65	-8.4	-1.4896	-0.2061	-1.0826	
-0.855342	0.08662	0.519842	-2.03	-6.02	-9.59	-1.4879	-0.2048	-1.0916	
-0.840824	0.103456	0.531432	-3.57	-4.9	-11.48	-1.4926	-0.2003	-1.0839	
-0.836554	0.116144	0.529602	-5.18	-4.06	-13.58	-1.4864	-0.2003	-1.087	
-0.837042	0.127734	0.526552	-6.23	-2.52	-15.4	-1.4925	-0.1974	-1.0869	
-0.839238	0.12505	0.524722	-8.26	-1.4	-17.36	-1.4909	-0.187	-1.0852	
-0.839482	0.125416	0.52399	-10.01	-0.49	-19.74	-1.4893	-0.1945	-1.0914	
-0.847168	0.117974	0.513498	-11.27	0.42	-22.33	-1.4879	-0.1959	-1.0884	
-0.84729	0.109556	0.503616	-12.04	0.77	-24.57	-1.4892	-0.1842	-1.0912	
-0.844728	0.103456	0.50813	-12.74	2.03	-27.02	-1.4801	-0.1826	-1.0914	
-0.837286	0.102114	0.508008	-14.07	3.43	-29.4	-1.4892	-0.1798	-1.0927	
-0.841434	0.096258	0.497516	-13.86	3.29	-31.01	-1.4832	-0.1811	-1.0883	
-0.84668	0.075274	0.507276	-16.45	3.22	-32.9	-1.4847	-0.1722	-1.0851	
-0.823988	0.059902	0.506666	-20.37	2.94	-35.56	-1.4859	-0.1591	-1.0939	
-0.808006	0.048434	0.504348	-22.05	2.66	-38.22	-1.5026	-0.1592	-1.092	
-0.816058	0.0244	0.498004	-23.31	3.43	-40.39	-1.4844	-0.1442	-1.0846	
-0.82472	-0.015982	0.495442	-24.64	3.64	-42.56	-1.4935	-0.1517	-1.089	
-0.845704	-0.064904	0.498248	-28.07	4.06	-45.01	-1.4872	-0.1325	-1.0903	
-0.858148	-0.10248	0.493124	-30.87	4.13	-48.09	-1.4813	-0.1264	-1.0798	
-0.86315	-0.133224	0.481412	-32.62	3.71	-51.66	-1.4857	-0.1235	-1.0842	
-0.866566	-0.157624	0.471652	-34.23	0.84	-55.44	-1.4933	-0.1118	-1.0808	
-0.857538	-0.17873	0.460794	-33.88	-2.73	-57.96	-1.4932	-0.1044	-1.0791	
-0.834846	-0.205936	0.447618	-36.89	-3.99	-59.15	-1.4933	-0.1043	-1.0731	
-0.812398	-0.238998	0.44042	-37.66	-4.34	-59.22	-1.5051	-0.0749	-1.0769	
-0.822036	-0.28182	0.427854	-39.9	-4.83	-58.45	-1.5022	-0.0763	-1.0709	
-0.81435	-0.312076	0.407114	-39.48	-5.25	-58.38	-1.5219	-0.072	-1.0689	
-0.811178	-0.337574	0.39955	-41.09	-6.51	-57.96	-1.5082	-0.06	-1.0629	
-0.804224	-0.368074	0.38491	-44.66	-7.84	-57.61	-1.5173	-0.0467	-1.0565	
-0.802516	-0.411384	0.378444	-47.32	-8.89	-56.77	-1.5278	-0.0439	-1.0607	
-0.805566	-0.447496	0.366976	-48.02	-9.8	-55.3	-1.532	-0.0264	-1.0694	
-0.791536	-0.474702	0.365634	-47.46	-11.13	-54.81	-1.5351	-0.01	-1.0585	
-0.765062	-0.504104	0.358436	-47.74	-19.25	-53.06	-1.5412	-0.01	-1.0538	
-0.737246	-0.537654	0.349896	-50.61	-23.73	-51.73	-1.5382	0.0003	-1.0492	
-0.71309	-0.577182	0.348432	-51.73	-23.87	-52.22	-1.5638	0.0223	-1.0437	
-0.670146	-0.609146	0.360388	-43.61	-17.29	-54.18	-1.5562	0.0148	-1.0531	
-0.652578	-0.661484	0.369538	-49.35	-22.12	-54.81	-1.5714	0.0252	-1.0435	
-0.649528	-0.701866	0.379786	-48.02	-22.12	-55.72	-1.5743	0.0399	-1.0432	
-0.642574	-0.693936	0.390888	-38.99	-19.95	-57.68	-1.5743	0.0399	-1.0417	
-0.642086	-0.695278	0.391986	-34.72	-21	-56.91	-1.5908	0.0559	-1.0441	
-0.594994	-0.7076	0.405162	-31.64	-20.86	-53.41	-1.6031	0.056	-1.0318	


-0.549488	-0.72773	0.405528	-21.42	-22.54	-41.23	-1.6228	0.0722	-1.0266	



-0.518134	-0.70028	0.388936	-10.92	-24.22	-27.37	-1.6545	0.0763	-1.0274	
-0.52582	-0.717604	0.400038	-17.71	-25.06	-23.45	-1.6513	0.085	-1.0334	
-0.525088	-0.74664	0.413702	-23.52	-22.54	-19.53	-1.6591	0.0866	-1.0211	
-0.517524	-0.736636	0.413824	-18.97	-18.62	-16.31	-1.6695	0.0894	-1.0284	
-0.513864	-0.767868	0.420046	-27.79	-22.05	-12.67	-1.6743	0.0881	-1.0163	
-0.49898	-0.806176	0.424926	-28.56	-18.97	-11.13	-1.6714	0.0867	-1.0118	
-0.478362	-0.823134	0.426146	-24.85	-15.61	-11.13	-1.6787	0.1027	-1.0204	
-0.480436	-0.838262	0.433832	-23.8	-13.93	-10.92	-1.6912	0.0911	-1.0023	
-0.486292	-0.843752	0.44225	-20.72	-11.55	-10.5	-1.6803	0.1058	-1.0128	
-0.492758	-0.873032	0.439932	-22.75	-13.58	-8.47	-1.6894	0.1086	-1.0111	
-0.491904	-0.87169	0.435906	-13.37	-10.85	-7.35	-1.6926	0.1118	-0.9973	
-0.487268	-0.866444	0.432734	-8.82	-11.13	-4.97	-1.6956	0.1072	-1.0034	
-0.46482	-0.86315	0.435784	-5.95	-10.78	-2.38	-1.688	0.1073	-1.0036	
-0.454084	-0.866688	0.434442	-3.78	-7.7	0.49	-1.6879	0.1117	-1.008	
-0.451278	-0.86681	0.42944	-1.89	-5.04	3.43	-1.6835	0.1148	-1.0005	
-0.44103	-0.853634	0.42212	1.47	-2.87	6.72	-1.6881	0.1089	-0.9975	
-0.443714	-0.832894	0.421388	4.55	-1.68	10.08	-1.7048	0.1087	-0.9972	
-0.452376	-0.845826	0.417118	1.54	-0.35	13.51	-1.688	0.1028	-1.0067	
-0.446398	-0.848876	0.415044	5.95	2.45	16.17	-1.6879	0.1235	-1.0033	
-0.445422	-0.8479	0.420656	7	3.15	18.55	-1.6849	0.0969	-1.0114	
-0.451888	-0.841678	0.417728	8.82	5.74	20.37	-1.6758	0.1118	-1.0067	
-0.452742	-0.826306	0.419314	11.62	8.12	22.33	-1.6834	0.1251	-1.0003	
-0.457744	-0.828624	0.428464	13.16	9.59	23.59	-1.6834	0.1013	-1.0128	
-0.474946	-0.81618	0.426634	17.99	9.38	25.13	-1.6743	0.1014	-1.01	
-0.48251	-0.802638	0.423218	20.02	9.45	26.74	-1.6743	0.0999	-1.0115	
-0.499224	-0.804956	0.426512	21.84	11.48	28.21	-1.6681	0.0895	-1.0239	
-0.504104	-0.787632	0.423218	26.18	12.95	29.05	-1.6439	0.0927	-1.0228	
-0.524966	-0.772626	0.428586	29.61	16.52	30.03	-1.6532	0.0883	-1.0136	
-0.547292	-0.756278	0.432002	30.73	19.6	30.87	-1.6409	0.0883	-1.0229	
-0.567544	-0.7381	0.426634	33.11	20.51	32.41	-1.6485	0.0867	-1.0213	
-0.573278	-0.706502	0.430172	35.91	21.42	33.74	-1.6334	0.0691	-1.0249	
-0.58377	-0.683078	0.437736	37.1	21.21	35.21	-1.6274	0.0722	-1.022	
-0.590846	-0.669536	0.43859	36.19	21	37.03	-1.6183	0.0692	-1.0267	
-0.607926	-0.637084	0.43737	38.36	22.75	38.43	-1.6121	0.0603	-1.0346	
-0.613904	-0.604876	0.435784	38.22	23.03	39.62	-1.6045	0.0484	-1.0455	
-0.624884	-0.60085	0.428342	34.72	24.43	41.37	-1.5971	0.0442	-1.0367	
-0.63379	-0.58377	0.425902	36.05	28.7	42.84	-1.597	0.0381	-1.0458	
-0.659776	-0.568154	0.434442	35.84	30.17	43.75	-1.582	0.0339	-1.0417	
-0.677466	-0.544486	0.425536	36.26	27.72	44.66	-1.5712	0.0324	-1.0495	
-0.691862	-0.518256	0.424682	36.4	26.18	46.13	-1.5638	0.0193	-1.0453	
-0.708698	-0.491782	0.427244	35.56	24.92	47.6	-1.5577	0.0238	-1.0469	
-0.71675	-0.483608	0.428342	32.97	24.36	49.35	-1.5546	0.0148	-1.0561	
-0.717482	-0.457256	0.423828	33.53	24.99	50.05	-1.5503	0.0077	-1.0443	
-0.72407	-0.433344	0.413702	32.69	20.93	49.63	-1.5308	-0.0023	-1.0418	
-0.761158	-0.432856	0.412238	32.06	21.63	49	-1.5277	-0.0113	-1.0481	
-0.771284	-0.416142	0.41114	32.55	18.83	48.37	-1.5322	-0.0262	-1.0588	
-0.775188	-0.397232	0.424926	29.82	16.73	48.37	-1.5216	-0.0172	-1.0543	
-0.780434	-0.382958	0.426878	28.63	14.42	49.49	-1.5002	-0.0231	-1.0654	
-0.78263	-0.35319	0.427122	30.52	12.11	50.4	-1.508	-0.0364	-1.061	
-0.796904	-0.329156	0.423828	30.24	11.34	50.47	-1.505	-0.0482	-1.0658	
-0.811666	-0.313418	0.420412	29.54	11.41	50.26	-1.5038	-0.0569	-1.0554	
-0.833504	-0.306586	0.411018	28.91	10.5	50.19	-1.4978	-0.0612	-1.0556	
-0.837408	-0.277184	0.407236	28.77	10.01	49.7	-1.5052	-0.0659	-1.0661	
-0.841068	-0.263276	0.40992	27.72	7.49	49.7	-1.4946	-0.0718	-1.071	
-0.84851	-0.25193	0.411872	27.79	7.7	50.4	-1.4886	-0.0717	-1.068	
-0.848998	-0.233142	0.40626	28.7	6.44	50.61	-1.4812	-0.0848	-1.0639	
-0.858148	-0.225456	0.40321	28.63	4.69	51.03	-1.4905	-0.0981	-1.0609	
-0.854122	-0.201056	0.404918	30.52	3.5	51.03	-1.4783	-0.1055	-1.0658	
-0.86132	-0.179706	0.40809	30.52	2.24	50.05	-1.4708	-0.1128	-1.0661	
-0.864492	-0.159332	0.416142	30.31	1.4	49.14	-1.4647	-0.1246	-1.0725	
-0.848632	-0.139934	0.424316	31.36	0.84	48.23	-1.4588	-0.1304	-1.0682	
-0.84912	-0.127856	0.427732	31.22	0.49	47.25	-1.4664	-0.1334	-1.0711	
-0.847412	-0.111874	0.43066	31.36	0.14	46.13	-1.4725	-0.1439	-1.0727	
-0.852658	-0.101992	0.438102	33.32	0.35	45.01	-1.4619	-0.1437	-1.0714	
-0.857538	-0.083204	0.442006	34.3	-0.07	43.26	-1.4577	-0.1732	-1.0705	
-0.858392	-0.05063	0.448838	35.28	-0.63	41.51	-1.4621	-0.1659	-1.0748	
-0.895724	-0.0183	0.457988	34.51	-1.96	39.83	-1.4579	-0.176	-1.063	
-0.947818	0.030622	0.45079	34.72	-1.54	38.57	-1.4622	-0.1896	-1.0813	
-0.911584	0.08967	0.451522	33.46	-3.92	38.01	-1.4654	-0.1969	-1.0753	
-0.845704	0.128954	0.468602	30.45	-5.95	37.8	-1.4579	-0.1983	-1.0724	
-0.849974	0.142008	0.465796	28.14	-2.31	37.66	-1.4641	-0.2101	-1.071	
-0.87962	0.162382	0.450912	28	1.05	36.61	-1.4656	-0.222	-1.0788	
-0.875838	0.186538	0.450302	26.88	0.07	35.21	-1.4734	-0.2249	-1.0696	
-0.861442	0.220942	0.4453	26.25	-1.75	34.23	-1.4643	-0.2263	-1.0713	
-0.865468	0.254126	0.434198	26.11	-2.59	33.39	-1.4657	-0.2368	-1.079	
-0.86132	0.273036	0.449692	25.83	-1.89	32.97	-1.4673	-0.2264	-1.0713	
-0.859856	0.294508	0.45323	22.75	-2.59	31.71	-1.4673	-0.2427	-1.0806	
-0.862174	0.310246	0.45445	21	-2.38	29.54	-1.4691	-0.2663	-1.078	
-0.876082	0.32452	0.458354	17.78	-1.68	26.39	-1.46	-0.2617	-1.0751	
-0.870226	0.332328	0.462136	15.54	-1.33	23.17	-1.4614	-0.2604	-1.0795	
-0.849486	0.334768	0.468846	12.67	-1.33	19.95	-1.4647	-0.2691	-1.0721	
-0.838384	0.3355	0.478606	9.24	0.84	16.45	-1.4768	-0.2662	-1.0688	
-0.856196	0.334036	0.45933	6.93	2.38	13.44	-1.4646	-0.2811	-1.0829	
-0.871202	0.324764	0.446886	4.34	3.43	10.64	-1.4768	-0.2766	-1.075	
-0.876204	0.316102	0.443714	1.47	3.08	8.05	-1.471	-0.2868	-1.0678	
-0.882426	0.310246	0.44042	-0.14	2.31	5.81	-1.4694	-0.2794	-1.0661	
-0.887794	0.302072	0.44042	-1.61	2.24	3.92	-1.4709	-0.2765	-1.0676	
-0.887672	0.296094	0.434442	-2.38	1.82	2.03	-1.4664	-0.2794	-1.0677	
-0.878034	0.29646	0.435906	-3.5	0.98	0.84	-1.4635	-0.2807	-1.0617	
-0.876448	0.288164	0.449204	-4.48	0.77	-0.07	-1.4707	-0.2751	-1.0766	
-0.883768	0.282552	0.447618	-6.02	0.91	-0.84	-1.4721	-0.2753	-1.0826	
-0.893284	0.269498	0.437248	-7.56	0.21	-2.03	-1.4572	-0.2749	-1.0723	
-0.89304	0.255468	0.436028	-8.68	-0.56	-3.29	-1.4662	-0.2676	-1.069	
-0.903044	0.245464	0.430294	-9.38	-0.91	-4.2	-1.4663	-0.2705	-1.0676	
-0.906094	0.233874	0.427	-10.29	-1.19	-5.04	-1.4725	-0.2764	-1.063	
-0.898286	0.218136	0.428952	-11.27	-2.66	-5.67	-1.466	-0.2678	-1.0826	
-0.900726	0.203008	0.428952	-11.55	-3.36	-6.16	-1.4739	-0.2691	-1.0659	
-0.887672	0.195688	0.448838	-11.9	-3.64	-6.58	-1.4783	-0.2677	-1.0703	
-0.878644	0.184098	0.460062	-12.39	-3.92	-6.93	-1.4674	-0.2664	-1.0856	
-0.878034	0.182756	0.457744	-11.76	-3.64	-7.07	-1.4706	-0.2514	-1.0701	
-0.860466	0.177876	0.460184	-11.41	-3.92	-7.7	-1.4705	-0.2694	-1.0841	
-0.84241	0.169824	0.471042	-11.48	-4.41	-8.4	-1.4737	-0.2544	-1.0686	
-0.858514	0.16043	0.478118	-11.9	-4.41	-8.89	-1.4645	-0.2499	-1.0717	
-0.865346	0.152988	0.486536	-12.32	-4.69	-9.17	-1.4734	-0.2516	-1.0807	
-0.853024	0.146888	0.502884	-13.02	-5.32	-9.8	-1.4824	-0.2459	-1.0834	
-0.854122	0.13359	0.516548	-12.74	-5.25	-10.29	-1.472	-0.2516	-1.0777	
-0.855464	0.122	0.517768	-11.69	-4.48	-10.29	-1.4613	-0.2471	-1.0778	
-0.845582	0.120536	0.514718	-11.97	-4.2	-9.73	-1.4766	-0.2531	-1.0761	
-0.834114	0.112484	0.51972	-10.5	-2.73	-8.89	-1.4718	-0.2369	-1.0789	
-0.823134	0.101748	0.526064	-9.87	-0.91	-7.63	-1.4838	-0.2356	-1.0832	
-0.823012	0.105408	0.526796	-8.68	0.56	-6.23	-1.4718	-0.2399	-1.082	
-0.815814	0.117608	0.521306	-6.86	1.19	-5.74	-1.4794	-0.2369	-1.0758	
-0.803614	0.123952	0.52643	-6.72	0.91	-5.74	-1.4764	-0.2413	-1.0774	
-0.796904	0.12139	0.5368	-6.79	0.84	-6.23	-1.4793	-0.2295	-1.0771	
-0.813252	0.106506	0.547902	-6.86	2.03	-7.07	-1.4836	-0.2253	-1.0891	
-0.826428	0.097844	0.54961	-6.02	3.22	-8.47	-1.4701	-0.237	-1.088	
-0.814838	0.09455	0.551684	-5.04	4.2	-9.94	-1.4718	-0.2369	-1.0789	
-0.81984	0.081862	0.551562	-3.71	6.37	-10.71	-1.4702	-0.228	-1.0788	
-0.826916	0.079666	0.538508	-1.47	8.61	-10.99	-1.4657	-0.2264	-1.0743	
-0.820938	0.08662	0.529602	0	10.15	-11.48	-1.4639	-0.2296	-1.091	
-0.81923	0.083936	0.520452	0.7	11.2	-11.55	-1.4717	-0.2251	-1.0802	
-0.830576	0.07564	0.512034	0.7	12.6	-10.64	-1.4687	-0.2235	-1.0772	
-0.848388	0.072468	0.497882	1.26	14.14	-10.01	-1.4719	-0.2219	-1.0681	
-0.872544	0.065026	0.487146	1.4	15.4	-9.73	-1.4672	-0.2265	-1.0773	
-0.880596	0.070394	0.475434	1.68	16.45	-9.66	-1.4687	-0.2191	-1.0756	
-0.919148	0.066368	0.44713	1.47	17.01	-9.45	-1.455	-0.2205	-1.0789	
-0.944524	0.059658	0.43066	1.96	17.78	-8.82	-1.4566	-0.2174	-1.0713	
-0.928298	0.06771	0.418582	2.24	17.43	-8.82	-1.4507	-0.2172	-1.0654	
-0.922808	0.071858	0.412482	0.63	17.22	-8.96	-1.4551	-0.2144	-1.0667	
-0.920856	0.070882	0.394426	-0.14	16.87	-7.91	-1.44	-0.2186	-1.0671	
-0.915122	0.064904	0.393206	-1.75	16.24	-6.51	-1.4477	-0.2186	-1.0609	
-0.91866	0.055998	0.382348	-3.08	15.75	-5.18	-1.4432	-0.2171	-1.0595	
-0.928542	0.050996	0.377468	-3.71	15.19	-4.27	-1.4432	-0.22	-1.061	
-0.934642	0.047336	0.374662	-4.2	14.35	-3.71	-1.4445	-0.2068	-1.0623	
-0.940254	0.046116	0.370636	-3.99	13.44	-3.22	-1.4355	-0.2112	-1.064	
-0.949038	0.04697	0.37027	-3.64	12.74	-2.59	-1.4431	-0.2112	-1.0594	
-0.966606	0.050752	0.361852	-3.08	12.11	-1.89	-1.4386	-0.2081	-1.0549	
-0.980026	0.048922	0.357704	-2.52	10.92	-1.19	-1.4373	-0.205	-1.0458	
-0.979782	0.047702	0.348432	-2.24	9.1	-0.77	-1.431	-0.2096	-1.0611	
-0.977586	0.044652	0.345748	-1.61	7	-0.35	-1.4266	-0.2064	-1.049	
-0.96624	0.048922	0.339648	-0.91	4.83	0.07	-1.4297	-0.2108	-1.046	
-0.96624	0.052948	0.336476	-1.61	3.01	0.14	-1.4266	-0.2109	-1.0521	
-0.962946	0.048312	0.338306	-2.17	1.68	0.56	-1.422	-0.2168	-1.0584	
-0.956114	0.045262	0.3416	-2.31	0.7	0.91	-1.422	-0.2109	-1.0567	
-0.95404	0.0488	0.347822	-2.1	-0.07	0.7	-1.419	-0.2093	-1.0507	
-0.960384	0.05246	0.352458	-2.31	0.14	0.35	-1.4343	-0.2153	-1.0505	
-0.963068	0.055388	0.356362	-2.45	-0.21	0.07	-1.425	-0.2005	-1.0504	
-0.958798	0.052582	0.35136	-2.31	-0.91	-0.07	-1.4359	-0.2063	-1.0413	
-0.963556	0.05002	0.347578	-1.68	-0.42	-0.56	-1.4342	-0.2094	-1.0489	
-0.976366	0.049532	0.338916	-1.05	-0.77	-1.12	-1.425	-0.205	-1.0551	
-0.979172	0.051362	0.335866	-0.91	-1.54	-1.33	-1.4191	-0.2033	-1.0461	
-0.968558	0.051484	0.335012	-0.7	-3.36	-1.12	-1.416	-0.2093	-1.0508	
-0.97417	0.05002	0.33306	-1.05	-4.06	-0.49	-1.4401	-0.2037	-1.0578	
-0.960628	0.04392	0.340868	-1.75	-4.97	0.21	-1.4417	-0.2051	-1.0517	
-0.963312	0.045628	0.341722	-1.19	-6.44	0.63	-1.4187	-0.2096	-1.0658	
-0.968802	0.04697	0.334524	-0.28	-7.84	0.91	-1.431	-0.2036	-1.0579	
-0.962702	0.05002	0.342942	0.35	-9.73	1.33	-1.4324	-0.2112	-1.0671	
-0.96624	0.04819	0.346114	0.49	-11.55	1.54	-1.4325	-0.2022	-1.0579	
-0.96319	0.048678	0.35441	1.05	-13.16	1.61	-1.4431	-0.1978	-1.0516	
-0.955138	0.052582	0.366122	1.05	-14.91	1.75	-1.437	-0.1993	-1.0562	
-0.947696	0.050752	0.364292	1.47	-16.38	2.1	-1.428	-0.2125	-1.0597	
-0.947574	0.05185	0.368318	1.89	-17.99	2.73	-1.446	-0.2084	-1.0668	
-0.955748	0.0549	0.362828	1.61	-19.11	2.94	-1.4494	-0.214	-1.0502	
-0.952576	0.054046	0.37271	0.49	-21.35	3.15	-1.4462	-0.2082	-1.0577	
-0.962702	0.056974	0.37698	-0.49	-23.38	3.64	-1.4551	-0.2085	-1.0682	
-0.93574	0.063806	0.406382	-1.75	-25.48	3.78	-1.4553	-0.2172	-1.0607	
-0.916586	0.069418	0.39772	-1.26	-26.81	3.92	-1.467	-0.2118	-1.0801	
-0.913292	0.064538	0.409676	-1.75	-27.09	4.2	-1.4671	-0.2072	-1.0739	
-0.88389	0.053558	0.436638	-1.89	-28.21	4.55	-1.4671	-0.2146	-1.0741	
-0.874008	0.053314	0.453596	-1.68	-28.49	4.13	-1.4745	-0.2119	-1.0829	
-0.868884	0.060512	0.467504	-1.54	-28.77	3.22	-1.473	-0.2178	-1.0861	
-0.868274	0.061122	0.47641	-0.98	-29.61	2.8	-1.4777	-0.2178	-1.08	
-0.86925	0.06405	0.486414	0.7	-29.61	2.59	-1.4728	-0.2046	-1.0889	
-0.86437	0.065636	0.495808	0.91	-30.03	2.59	-1.4897	-0.2209	-1.0843	
-0.865102	0.070882	0.495808	0.14	-30.17	2.38	-1.4851	-0.2254	-1.0905	
-0.867298	0.072102	0.492392	0.14	-30.66	2.1	-1.4941	-0.2137	-1.0902	
-0.863272	0.075274	0.50813	-1.12	-29.82	1.54	-1.4986	-0.2123	-1.0916	
-0.85461	0.076372	0.51728	-1.33	-31.57	1.47	-1.5001	-0.2167	-1.0931	
-0.835944	0.07747	0.52582	-0.63	-32.83	1.33	-1.5016	-0.2183	-1.0946	
-0.812032	0.073932	0.53985	-0.91	-33.88	0.98	-1.5137	-0.2199	-1.0959	
-0.7869	0.071736	0.551684	-0.42	-34.3	1.26	-1.5134	-0.2142	-1.1094	
-0.78873	0.07515199	0.562542	-0.49	-35	1.68	-1.5195	-0.2112	-1.1047	
-0.792878	0.075274	0.572912	1.19	-34.51	2.17	-1.5346	-0.2174	-1.1106	
-0.785314	0.07625	0.584258	1.12	-35.42	2.45	-1.5286	-0.2158	-1.1077	
-0.77348	0.076616	0.587186	0.56	-36.05	2.66	-1.5451	-0.2087	-1.1163	
-0.764086	0.076006	0.615002	1.05	-35.56	3.15	-1.5467	-0.2205	-1.115	
-0.775676	0.07869	0.614514	1.12	-36.33	3.36	-1.5497	-0.2206	-1.1179	
-0.755668	0.082472	0.636108	0.42	-36.68	3.29	-1.5604	-0.2117	-1.11	
-0.703086	0.077958	0.65636	0.14	-36.68	3.15	-1.5678	-0.2193	-1.1191	
-0.69113	0.07442	0.660752	0.07	-36.47	3.29	-1.5709	-0.2119	-1.1159	
-0.699548	0.077226	0.671488	0.7	-35.49	3.15	-1.5816	-0.2238	-1.1128	
-0.694424	0.075762	0.674782	0.56	-36.05	2.94	-1.5816	-0.2238	-1.1128	
-0.675392	0.074664	0.68198	0.49	-36.68	2.66	-1.5769	-0.2194	-1.1189	
-0.658922	0.0793	0.675148	0.91	-38.15	2.52	-1.5873	-0.2182	-1.1293	
-0.65148	0.083448	0.739686	-0.91	-38.5	2.52	-1.6071	-0.2258	-1.1305	
-0.684542	0.09272	0.750666	-0.7	-37.24	2.59	-1.6069	-0.2067	-1.1317	
-0.659532	0.099918	0.755058	-1.68	-36.54	2.94	-1.6099	-0.2216	-1.1395	
-0.59475	0.09552599	0.774944	-2.66	-36.68	3.15	-1.61	-0.2259	-1.135	
-0.561322	0.091378	0.790316	-2.24	-34.72	2.87	-1.6311	-0.2188	-1.1375	
-0.570716	0.08686399	0.793488	-2.52	-31.99	2.66	-1.6477	-0.2294	-1.1449	
-0.571326	0.088328	0.775554	-2.52	-29.68	2.31	-1.634	-0.2234	-1.1481	
-0.571448	0.088084	0.760914	-2.38	-30.24	1.89	-1.6418	-0.2292	-1.139	
-0.57767	0.076494	0.746762	-2.31	-30.24	1.54	-1.6387	-0.2189	-1.1373	
-0.604388	0.06283	0.75579	-1.75	-31.64	0.91	-1.6476	-0.2251	-1.1524	
-0.60207	0.060756	0.748226	-0.91	-33.39	0.14	-1.6582	-0.2207	-1.1476	
-0.594018	0.071126	0.74664	-0.14	-35.56	-0.63	-1.6643	-0.2222	-1.146	
-0.61244	0.072102	0.743346	0.77	-36.47	-0.63	-1.6691	-0.2221	-1.1353	
-0.601948	0.068686	0.747128	0.56	-37.1	-0.07	-1.6645	-0.228	-1.1416	
-0.58255	0.0732	0.753228	0.56	-38.43	0.7	-1.672	-0.2296	-1.1445	
-0.567056	0.077958	0.75701	0.56	-38.85	1.54	-1.6827	-0.2386	-1.1444	
-0.561688	0.07503	0.764696	1.05	-39.2	2.24	-1.6946	-0.2165	-1.1423	
-0.55937	0.074176	0.762134	2.03	-39.76	2.38	-1.7023	-0.227	-1.1438	
-0.560224	0.078812	0.768722	1.47	-39.62	2.03	-1.7069	-0.2359	-1.1439	
-0.54168	0.08113	0.77287	1.33	-42.42	2.38	-1.7174	-0.2316	-1.1466	
-0.533872	0.081862	0.7991	0.77	-43.96	2.66	-1.713	-0.2344	-1.1438	
-0.511912	0.086132	0.829112	0.91	-45.57	3.36	-1.7234	-0.2302	-1.1495	
-0.493856	0.085522	0.844728	-0.42	-46.41	3.92	-1.7384	-0.2201	-1.1521	
-0.45201	0.082594	0.845338	0.07	-47.25	3.92	-1.7446	-0.2304	-1.1506	
-0.399184	0.0732	0.861198	-0.28	-48.23	3.57	-1.7613	-0.2336	-1.1519	
-0.362096	0.071858	0.88877	-0.07	-47.6	2.8	-1.7598	-0.2276	-1.1458	
-0.350018	0.074664	0.899262	1.26	-47.39	1.82	-1.7674	-0.2351	-1.1503	
-0.34404	0.08784	0.92537	-0.35	-45.85	1.82	-1.7706	-0.2379	-1.1427	
-0.33123	0.085522	0.931592	-0.14	-44.03	2.03	-1.7765	-0.2217	-1.1408	
-0.30012	0.082716	0.935374	-0.14	-43.4	2.1	-1.7962	-0.2383	-1.1498	
-0.272548	0.087596	0.945866	0	-41.93	1.61	-1.8086	-0.2338	-1.1374	
-0.255834	0.087108	0.962458	-0.21	-39.27	1.4	-1.804	-0.2263	-1.1343	
-0.249734	0.088572	0.959896	0.07	-36.61	1.61	-1.8085	-0.2308	-1.1373	
-0.235704	0.090036	0.959042	-0.7	-35.21	1.4	-1.8175	-0.237	-1.1463	
-0.218868	0.083936	0.976854	-1.26	-33.04	1.19	-1.8298	-0.2384	-1.1356	
-0.206668	0.08479	0.983076	-0.7	-30.73	1.26	-1.8402	-0.2298	-1.1458	
-0.203984	0.087718	0.985638	-0.77	-29.12	1.33	-1.839	-0.2339	-1.1293	
-0.191662	0.087108	0.997838	-1.68	-27.09	1.4	-1.8539	-0.2313	-1.1395	
-0.17751	0.090402	1.008086	-1.54	-25.2	1.82	-1.8495	-0.2297	-1.1335	
-0.177266	0.093696	1.00833	-1.75	-22.96	2.03	-1.8571	-0.2342	-1.135	
-0.168604	0.09357399	1.0187	-2.17	-21.49	2.1	-1.854	-0.2372	-1.1396	
-0.160674	0.096258	1.014796	-1.68	-19.18	1.89	-1.8677	-0.2343	-1.1363	
-0.152988	0.095892	1.025288	-2.66	-17.15	1.82	-1.8617	-0.2372	-1.1334	
-0.1464	0.09455	1.0187	-2.38	-15.47	1.96	-1.863	-0.2255	-1.1377	
-0.143594	0.09272	1.014552	-2.8	-13.51	1.89	-1.8738	-0.2269	-1.1285	
-0.136518	0.09162199	1.017114	-2.94	-11.34	1.68	-1.8722	-0.23	-1.1376	
-0.132614	0.087108	1.015162	-2.66	-9.45	1.61	-1.8754	-0.2283	-1.1239	
-0.130052	0.085278	1.018578	-2.87	-7.63	1.47	-1.8663	-0.2312	-1.1272	
-0.127002	0.0854	1.021506	-3.22	-6.02	1.19	-1.8768	-0.2254	-1.1284	
-0.122854	0.074664	1.024068	-2.87	-4.62	0.98	-1.8752	-0.2225	-1.1329	
-0.122	0.074298	1.026386	-2.38	-2.8	0.63	-1.8752	-0.2225	-1.1314	
-0.118828	0.080276	1.013088	-1.75	-1.12	0.07	-1.874	-0.2326	-1.121	
-0.116998	0.075396	1.0187	-1.19	0.7	-0.21	-1.8753	-0.224	-1.1299	
-0.115778	0.074908	1.028704	-1.33	2.59	-0.28	-1.8739	-0.2298	-1.1255	
-0.10248	0.07869	1.039806	-1.33	4.27	-0.63	-1.8738	-0.2358	-1.1316	
-0.090402	0.087962	1.04554	-1.26	6.37	-0.7	-1.8814	-0.2269	-1.1253	
-0.08686399	0.082838	1.052738	-0.84	9.59	-0.49	-1.8739	-0.2268	-1.1239	
-0.089792	0.072468	1.052372	-0.84	12.18	-0.21	-1.8694	-0.2311	-1.1211	
-0.088938	0.071858	1.055422	-0.35	15.26	-0.56	-1.8753	-0.2254	-1.1284	
-0.091134	0.070516	1.05286	0.35	18.62	-1.26	-1.8723	-0.2328	-1.1301	
-0.09516	0.066002	1.051152	0.77	21.98	-1.75	-1.8632	-0.2252	-1.1256	
-0.099186	0.069296	1.047858	1.19	25.62	-1.96	-1.848	-0.2297	-1.1335	
-0.11468	0.07503	1.039684	1.75	29.12	-2.31	-1.854	-0.2238	-1.1348	
-0.12505	0.078568	1.032364	2.38	32.48	-2.52	-1.8405	-0.2266	-1.1291	
-0.144814	0.075762	1.027362	2.38	35.63	-2.73	-1.8419	-0.2281	-1.1321	
-0.16287	0.078812	1.014918	2.1	38.64	-3.01	-1.8371	-0.2208	-1.1411	
-0.182634	0.078812	1.005646	2.1	41.44	-3.36	-1.8237	-0.231	-1.137	
-0.201788	0.076494	1.000766	1.82	44.66	-3.5	-1.8223	-0.2309	-1.1325	
-0.216794	0.076738	0.99003	1.47	47.46	-3.5	-1.8222	-0.2294	-1.1325	
-0.224114	0.07625	0.98515	1.33	50.61	-3.71	-1.816	-0.2324	-1.1418	
-0.241438	0.073688	0.976854	1.82	53.76	-3.85	-1.7978	-0.2293	-1.1405	
-0.263642	0.072834	0.9638	1.96	57.05	-3.92	-1.7916	-0.2264	-1.1466	
-0.28548	0.075762	0.951112	1.68	60.69	-3.99	-1.781	-0.2263	-1.1468	
-0.301218	0.06771	0.936838	1.89	63.56	-3.85	-1.7718	-0.2233	-1.15	
-0.32391	0.06405	0.922198	2.17	66.36	-3.78	-1.7537	-0.2365	-1.1566	
-0.346358	0.060756	0.89914	2.52	69.02	-3.78	-1.7522	-0.2246	-1.1489	
-0.368806	0.06527	0.877302	3.22	71.75	-3.78	-1.7312	-0.2361	-1.145	
-0.39284	0.06466	0.848632	3.92	73.64	-3.92	-1.716	-0.23	-1.1391	
-0.425414	0.065636	0.82411	4.62	75.11	-4.27	-1.7175	-0.227	-1.139	
-0.454694	0.072468	0.808738	5.04	77.14	-4.69	-1.6949	-0.2282	-1.1364	
-0.48739	0.075274	0.776896	4.97	78.33	-4.83	-1.6872	-0.2312	-1.1427	
-0.512278	0.077104	0.743102	5.04	79.03	-4.62	-1.669	-0.2311	-1.1445	
-0.535458	0.079544	0.721996	5.39	79.45	-4.69	-1.657	-0.2383	-1.1419	
-0.569862	0.080032	0.69296	5.18	79.73	-4.69	-1.6432	-0.2204	-1.1403	
-0.592798	0.075884	0.66856	5.53	79.52	-4.9	-1.6402	-0.2397	-1.1483	
-0.616954	0.075274	0.65331	5.32	79.45	-5.46	-1.6146	-0.217	-1.1287	
-0.626714	0.068564	0.637328	5.81	78.68	-5.81	-1.61	-0.2229	-1.1334	
-0.644038	0.065392	0.623786	6.44	78.47	-6.02	-1.5935	-0.2375	-1.134	
-0.67954	0.06527	0.595604	8.12	78.68	-6.51	-1.5845	-0.2299	-1.122	
-0.716994	0.069418	0.578646	8.61	79.73	-7.14	-1.5694	-0.2327	-1.1253	
-0.754936	0.08174	0.544242	9.38	79.38	-8.19	-1.5393	-0.2322	-1.1123	
-0.770552	0.085522	0.516304	9.8	79.24	-8.75	-1.5364	-0.2246	-1.1032	
-0.804346	0.080276	0.483242	10.29	78.82	-8.33	-1.5215	-0.2287	-1.0929	
-0.826062	0.075884	0.446886	10.29	77.42	-8.75	-1.5001	-0.2272	-1.1009	
-0.844118	0.071614	0.428464	10.08	75.25	-10.01	-1.4987	-0.23	-1.0949	
-0.86559	0.085888	0.39528	9.45	73.71	-11.27	-1.4774	-0.2269	-1.0953	
-0.878034	0.084424	0.374174	8.33	72.1	-10.92	-1.4761	-0.2282	-1.0893	
-0.91988	0.074542	0.35075	8.61	72.31	-9.87	-1.4552	-0.2292	-1.07	
-0.950136	0.085034	0.325862	10.36	71.75	-9.52	-1.4521	-0.2262	-1.0731	
-0.935496	0.093818	0.306952	10.29	68.32	-8.96	-1.4402	-0.2333	-1.0644	
-0.937936	0.088816	0.288896	10.15	66.29	-7.63	-1.4313	-0.2316	-1.0554	
-0.935862	0.0732	0.259006	10.36	64.75	-6.93	-1.4298	-0.2242	-1.0523	
-0.935496	0.06734399	0.246684	9.94	63.91	-7.49	-1.4209	-0.2283	-1.0405	
-0.944646	0.079544	0.220576	10.92	61.88	-8.89	-1.4059	-0.2251	-1.0346	
-0.964532	0.079422	0.203618	8.89	59.08	-9.94	-1.3999	-0.2265	-1.0318	
-0.977098	0.066734	0.18178	7.42	55.79	-9.66	-1.3954	-0.2293	-1.0289	
-0.99613	0.057218	0.167994	6.51	53.83	-9.03	-1.3972	-0.2276	-1.0122	
-1.018578	0.055632	0.156526	8.05	50.54	-7.77	-1.3912	-0.2349	-1.0155	
-1.025044	0.051484	0.143838	5.25	46.41	-7.35	-1.3866	-0.2275	-1.0154	
-1.024312	0.058316	0.135908	3.57	41.72	-7.35	-1.3671	-0.2226	-0.9991	
-1.04127	0.058682	0.131638	0.21	37.66	-6.79	-1.3704	-0.2284	-0.9916	
-1.051396	0.064294	0.125416	-3.01	33.18	-5.81	-1.3715	-0.2243	-1.0066	
-1.040294	0.065514	0.133346	-6.02	28.35	-5.32	-1.3551	-0.2224	-0.9948	
-1.023214	0.059902	0.137372	-5.74	24.92	-4.62	-1.3552	-0.2179	-0.9870999	
-1.02419	0.060634	0.149694	-4.34	23.45	-4.55	-1.3478	-0.2221	-0.9798	
-1.02358	0.054046	0.154208	-6.09	22.4	-4.62	-1.3552	-0.2164	-0.9856	
-1.014186	0.055754	0.164578	-4.48	20.65	-4.62	-1.3522	-0.2237	-0.9873	
-1.010404	0.050142	0.157014	-2.94	19.39	-3.99	-1.3432	-0.2132	-0.9782	
-1.01138	0.049288	0.157258	-1.47	22.12	-3.71	-1.3523	-0.2177	-0.9796	
-1.015284	0.050874	0.143594	0	23.87	-3.78	-1.351	-0.2175	-0.9691	
-1.008574	0.05124	0.136762	1.96	23.66	-4.27	-1.3434	-0.2249	-0.9739	
-1.007354	0.0488	0.121146	3.64	24.22	-4.06	-1.3389	-0.2144	-0.9647	
-1.023458	0.047214	0.10187	2.59	25.69	-4.2	-1.3359	-0.2113	-0.9617	
-1.018944	0.043554	0.080276	4.9	25.76	-4.41	-1.3284	-0.2142	-0.9619	
-1.022726	0.03843	0.065026	5.67	27.02	-4.9	-1.3347	-0.217	-0.9482	
-1.02297	0.032696	0.046482	4.34	26.11	-5.18	-1.3362	-0.2126	-0.9466	
-1.021628	0.026352	0.032086	3.5	26.25	-5.11	-1.324	-0.211	-0.9513	
-1.027972	0.027938	0.010858	4.76	25.62	-5.46	-1.3301	-0.211	-0.9467	
-1.035902	0.02928	0.003904	4.76	25.06	-5.39	-1.3243	-0.2241	-0.941	
-1.046394	0.02928	-0.00549	4.34	23.94	-4.97	-1.3181	-0.2048	-0.9362	
-1.05347	0.020984	-0.026718	4.06	22.54	-4.41	-1.3153	-0.2106	-0.9319	
-1.069086	0.00671	-0.025376	2.94	22.19	-3.92	-1.3151	-0.2003	-0.9347	
-1.063962	-0.002196	-0.023912	3.43	19.46	-3.99	-1.3183	-0.2107	-0.9333	
-1.050054	0.012566	-0.019276	4.62	16.38	-4.83	-1.3106	-0.2002	-0.9317999	
-1.034926	0.02257	-0.01708	3.85	13.93	-4.27	-1.314	-0.2104	-0.9198	
-1.032486	0.022326	-0.024034	4.13	13.44	-3.22	-1.3154	-0.212	-0.9243	
-1.031266	0.019154	-0.020618	2.87	13.65	-2.31	-1.3137	-0.2047	-0.9303	
-1.028826	0.015982	-0.027938	2.03	13.37	-2.1	-1.3064	-0.2118	-0.9185	
-1.019188	0.011834	-0.022692	0.63	12.46	-1.89	-1.308	-0.2102	-0.9139	
-1.019432	0.017446	-0.032086	2.24	11.2	-1.82	-1.2987	-0.2118	-0.9246	
-1.025532	0.020374	-0.037454	3.36	9.66	-1.54	-1.3064	-0.2118	-0.9185	
-1.038952	0.023668	-0.049288	2.24	7.84	-1.12	-1.2898	-0.2101	-0.9141999	
-1.065914	0.02135	-0.047458	-0.35	7.91	-0.56	-1.3081	-0.2042	-0.9062	
-1.069574	0.01891	-0.048068	-2.52	5.74	0	-1.3019	-0.2132	-0.9171	
-1.067256	0.017324	-0.051362	-3.15	3.5	0.63	-1.305	-0.1968	-0.9076	
-1.069452	0.026718	-0.060756	-2.17	1.54	0.56	-1.2989	-0.2028	-0.9139	
-1.073966	0.025986	-0.059048	-2.31	-0.49	1.26	-1.3006	-0.213	-0.9095	
-1.075064	0.023546	-0.06466	-2.45	-2.8	2.24	-1.3021	-0.2086	-0.9079	
-1.057008	0.024522	-0.060512	-2.38	-4.2	2.52	-1.2945	-0.2085	-0.9096	
-1.04371	0.027084	-0.062342	-2.73	-5.95	2.59	-1.296	-0.2071	-0.908	
-1.039074	0.027694	-0.058072	-4.13	-6.79	2.45	-1.2989	-0.2086	-0.9125	
-1.036268	0.02684	-0.056364	-4.2	-7.63	2.87	-1.305	-0.2042	-0.9093	
-1.03273	0.024278	-0.049776	-5.32	-7.63	3.01	-1.305	-0.2102	-0.9123999	
-1.03029	0.022204	-0.052338	-4.69	-8.4	2.94	-1.308	-0.2148	-0.92	
-1.038708	0.016348	-0.050508	-4.2	-9.03	3.01	-1.2944	-0.2101	-0.9141	
-1.046394	0.018666	-0.052094	-4.13	-9.59	2.94	-1.3063	-0.2089	-0.9229	
-1.044076	0.020984	-0.043798	-4.48	-10.36	2.94	-1.3125	-0.2059	-0.9167	
-1.048468	0.027084	-0.048434	-3.99	-11.48	3.01	-1.3095	-0.2088	-0.9138	
-1.059814	0.025864	-0.047214	-4.41	-12.46	3.36	-1.3049	-0.2192	-0.9247	
-1.066524	0.025132	-0.04331	-4.62	-14.14	3.71	-1.3064	-0.2059	-0.9183	
-1.062864	0.026352	-0.038064	-4.97	-16.17	3.78	-1.3033	-0.2044	-0.9184	
-1.06384	0.029524	-0.032574	-5.04	-17.92	4.13	-1.3153	-0.2105	-0.9273	
-1.063474	0.033672	-0.027328	-4.97	-19.88	4.55	-1.3152	-0.2062	-0.9333	
-1.060424	0.03172	-0.02074	-5.32	-21.14	5.25	-1.317	-0.2209	-0.9274999	
-1.05469	0.036234	-0.014762	-5.18	-23.45	5.95	-1.3105	-0.2108	-0.944	
-1.054324	0.036356	-0.004758	-5.53	-24.78	6.3	-1.3257	-0.2064	-0.9376	
-1.054934	0.043798	-0.000732	-5.88	-26.88	6.51	-1.3255	-0.2051	-0.9497	
-1.045906	0.044286	0.015372	-6.65	-29.19	6.51	-1.3166	-0.2123	-0.9424	
-1.04493	0.04392	0.026474	-6.44	-30.52	6.72	-1.3286	-0.2155	-0.9483	
-1.043832	0.049898	0.039284	-5.88	-31.99	6.72	-1.3285	-0.2067	-0.9511999	
-1.04615	0.05673	0.035136	-4.62	-33.67	7.21	-1.3345	-0.2112	-0.9557	
-1.05164	0.050752	0.056486	-6.51	-34.79	7.7	-1.3375	-0.2172	-0.9587	
-1.041514	0.046482	0.06832	-7.63	-35.91	7.77	-1.3434	-0.2115	-0.9661	
-1.041026	0.05856	0.073688	-6.16	-38.01	7.28	-1.3495	-0.219	-0.9676	
-1.04432	0.068442	0.08295999	-6.09	-39.62	7	-1.3478	-0.2146	-0.9736	
-1.049566	0.074176	0.090158	-6.37	-41.79	7.21	-1.3599	-0.2162	-0.9748999	
-1.048224	0.074054	0.100406	-7.07	-43.68	7.77	-1.3582	-0.2149	-0.984	
-1.038342	0.077226	0.115168	-7.21	-46.2	7.7	-1.3565	-0.2166	-0.9977	
-1.03212	0.075518	0.130784	-7.28	-48.09	7.56	-1.3685	-0.2079	-1.0003	
-1.028826	0.077836	0.13908	-7.07	-50.26	7.28	-1.3656	-0.2152	-0.9959	
-1.026264	0.073322	0.158722	-7.98	-52.15	6.79	-1.373	-0.2154	-1.0049	
-1.010892	0.068442	0.17507	-8.19	-54.39	6.44	-1.3834	-0.2112	-1.0137	
-0.994666	0.069418	0.190686	-6.65	-56.91	5.95	-1.394	-0.2188	-1.0166	
-0.987468	0.072834	0.206546	-6.3	-58.24	5.53	-1.4119	-0.2178	-1.0329	
-0.981002	0.07137	0.222772	-6.72	-59.64	5.18	-1.4059	-0.2162	-1.0299	
-0.96136	0.073932	0.238876	-6.09	-62.23	5.11	-1.4073	-0.2237	-1.0391	
-0.95099	0.07503	0.26169	-5.81	-63.7	4.97	-1.4268	-0.2285	-1.0494	
-0.94428	0.078568	0.292678	-6.79	-65.1	4.9	-1.4221	-0.2182	-1.0523	
-0.920368	0.072224	0.323666	-8.4	-67.69	4.69	-1.4403	-0.2214	-1.0536	
-0.89121	0.074908	0.352336	-9.24	-69.44	4.62	-1.4507	-0.2202	-1.0654	
-0.8662	0.067466	0.365268	-9.24	-70.42	4.27	-1.4509	-0.2304	-1.0596	
-0.850584	0.074664	0.39345	-6.37	-69.79	4.27	-1.4673	-0.2294	-1.0743	
-0.841434	0.068808	0.411872	-5.32	-69.65	4.41	-1.4729	-0.2164	-1.0876	
-0.825086	0.065514	0.431148	-5.46	-70.42	4.48	-1.4805	-0.2254	-1.0921	
-0.801052	0.066612	0.464088	-5.25	-71.68	4.83	-1.4926	-0.227	-1.0965	
-0.782508	0.06893	0.490074	-4.41	-73.08	4.97	-1.5077	-0.2243	-1.0976	
-0.758962	0.073566	0.515938	-4.06	-73.08	4.97	-1.5241	-0.2157	-1.1047	
-0.721264	0.0732	0.543266	-3.78	-74.13	4.83	-1.5228	-0.2184	-1.0942	
-0.694546	0.070516	0.572302	-4.13	-74.2	4.97	-1.5318	-0.2261	-1.1078	
-0.66307	0.063074	0.602314	-3.99	-74.13	4.97	-1.5619	-0.231	-1.1179	
-0.634034	0.068198	0.631716	-3.08	-73.92	4.62	-1.5556	-0.2223	-1.1269	
-0.617198	0.068564	0.653676	-2.38	-73.64	4.2	-1.5783	-0.224	-1.1265	
-0.607926	0.07381	0.667706	-1.19	-73.71	3.99	-1.589	-0.23	-1.1294	
-0.585966	0.074664	0.69906	-1.75	-74.06	3.99	-1.6084	-0.22	-1.1349	
-0.561078	0.070394	0.72224	-1.61	-73.71	4.06	-1.6146	-0.217	-1.1272	
-0.538996	0.077226	0.738222	-0.49	-72.94	3.85	-1.6205	-0.2202	-1.1392	
-0.50996	0.077226	0.768112	-1.12	-71.75	3.92	-1.6434	-0.2277	-1.1359	
-0.503006	0.079422	0.792512	-0.49	-69.65	4.06	-1.6585	-0.2338	-1.1372	
-0.494832	0.08845	0.805566	-0.28	-67.27	4.06	-1.6674	-0.2311	-1.1491	
-0.480314	0.08845	0.821182	-0.63	-65.66	3.64	-1.6764	-0.2238	-1.1473	
-0.45567	0.08601	0.844728	-0.63	-63.42	2.87	-1.6946	-0.2211	-1.1484	
-0.426268	0.0915	0.862784	-0.56	-60.83	2.31	-1.6962	-0.2418	-1.1518	
-0.41724	0.100406	0.861198	-0.35	-58.8	2.24	-1.7173	-0.2228	-1.148	
-0.409432	0.091256	0.892918	-1.54	-55.37	2.59	-1.7174	-0.2346	-1.1512	
-0.402234	0.097966	0.903532	-2.31	-52.71	2.24	-1.7266	-0.2257	-1.1418	
-0.385032	0.107604	0.906338	-2.03	-50.26	1.12	-1.7399	-0.2305	-1.1583	
-0.358924	0.10187	0.916098	-3.08	-48.23	0.49	-1.7435	-0.239	-1.1372	
-0.344406	0.09394	0.923296	-2.59	-44.94	-0.07	-1.7506	-0.2321	-1.1551	
-0.347944	0.088816	0.927322	-2.8	-42	-0.84	-1.7644	-0.2305	-1.1442	
-0.342942	0.080032	0.923906	-3.08	-40.67	-1.05	-1.7659	-0.235	-1.1488	
-0.329644	0.076982	0.929762	-3.36	-38.99	-1.26	-1.7767	-0.2275	-1.1349	
-0.31598	0.077836	0.93147	-3.08	-38.08	-1.33	-1.7842	-0.2277	-1.1408	
-0.308538	0.072102	0.933788	-2.87	-37.31	-1.75	-1.7825	-0.2353	-1.1545	
-0.294996	0.064904	0.94306	-2.45	-35.77	-2.03	-1.7916	-0.222	-1.1481	
-0.28426	0.069296	0.94123	-1.47	-34.65	-2.24	-1.7979	-0.2367	-1.1437	
-0.281576	0.073322	0.942816	-1.33	-34.37	-2.66	-1.8007	-0.2221	-1.1464	
-0.269742	0.070028	0.943548	-1.19	-33.53	-3.29	-1.8083	-0.234	-1.151	
-0.254492	0.069784	0.946476	-1.33	-33.18	-3.71	-1.8161	-0.2309	-1.1372	
-0.243878	0.066612	0.955138	-1.89	-32.41	-3.92	-1.8223	-0.2353	-1.1341	
-0.232898	0.069784	0.959408	-2.03	-31.29	-3.85	-1.8222	-0.2309	-1.1356	
-0.221064	0.070516	0.964288	-2.31	-30.87	-3.43	-1.8283	-0.2399	-1.1401	
-0.20862	0.06527	0.984052	-3.08	-29.61	-2.94	-1.8373	-0.2282	-1.1382	
-0.192028	0.063684	0.995398	-3.15	-27.79	-2.52	-1.8387	-0.2238	-1.1397	
-0.183366	0.05673	1.01077	-3.36	-26.46	-2.52	-1.8465	-0.2266	-1.1305	
-0.174216	0.056852	1.018456	-2.45	-25.55	-2.24	-1.8509	-0.2238	-1.1364	
-0.157868	0.060024	1.025654	-3.01	-25.06	-1.89	-1.8419	-0.2207	-1.129	
-0.144814	0.064538	1.036512	-3.08	-22.47	-1.75	-1.8601	-0.2268	-1.1333	
-0.128466	0.060634	1.04554	-3.15	-20.51	-1.26	-1.8676	-0.224	-1.1346	
-0.120292	0.05368	1.047614	-2.24	-17.36	-0.98	-1.863	-0.2299	-1.1393	
-0.10797	0.054778	1.058106	-1.54	-14.35	-0.42	-1.8647	-0.2298	-1.1332	
-0.093696	0.056974	1.062986	-1.96	-10.71	-0.14	-1.8664	-0.2251	-1.118	
-0.086742	0.057828	1.06567	-1.54	-7.21	0.14	-1.8721	-0.2271	-1.1406	
-0.083204	0.047824	1.073112	-1.68	-3.57	0.42	-1.8646	-0.218	-1.13	
-0.075762	0.046116	1.076894	-1.19	0.42	0.7	-1.8799	-0.218	-1.1221	
-0.069418	0.051484	1.079212	-1.12	3.71	0.77	-1.8782	-0.2182	-1.1343	
-0.066124	0.05307	1.077626	-0.49	7.35	1.33	-1.8633	-0.2252	-1.1241	
-0.068686	0.050142	1.075796	-0.07	11.13	1.47	-1.8753	-0.2254	-1.1269	
-0.071858	0.056608	1.070184	0	16.52	1.05	-1.8707	-0.2299	-1.1361	
-0.077226	0.056486	1.063352	0.35	20.09	0.84	-1.854	-0.2267	-1.1319	
-0.088328	0.053802	1.060424	0.56	23.59	0.63	-1.8542	-0.2356	-1.1305	
-0.102602	0.057096	1.051762	1.05	27.16	0.77	-1.8585	-0.2269	-1.1378	
-0.114436	0.051606	1.047614	0.98	30.73	0.7	-1.8509	-0.2253	-1.1364	
-0.132736	0.05063	1.038098	1.96	33.32	0.28	-1.8342	-0.2223	-1.1397	
-0.146156	0.056852	1.029802	2.8	36.54	-0.14	-1.8449	-0.2267	-1.1335	
-0.161406	0.065514	1.022604	3.22	39.9	-0.56	-1.8326	-0.2223	-1.1397	
-0.181658	0.067832	1.013576	2.59	44.31	-0.63	-1.8386	-0.2313	-1.1489	
-0.195566	0.067954	1.002352	3.08	47.53	-0.77	-1.8264	-0.2224	-1.1489	
-0.218502	0.068808	0.987346	3.29	50.54	-0.91	-1.8023	-0.2324	-1.145	
-0.242048	0.068808	0.977952	3.57	54.18	-1.33	-1.8009	-0.2249	-1.1389	
-0.25925	0.069662	0.96685	3.5	57.33	-1.75	-1.7779	-0.2234	-1.1499	
-0.279502	0.066978	0.94672	3.99	60.2	-1.96	-1.7811	-0.2232	-1.1392	
-0.30195	0.065026	0.927444	4.34	62.65	-2.38	-1.7795	-0.2352	-1.1501	
-0.323544	0.07015	0.91622	4.48	65.59	-3.15	-1.7613	-0.2246	-1.1472	
-0.346968	0.067222	0.90036	4.83	68.25	-3.71	-1.7509	-0.2303	-1.1415	
-0.370636	0.062586	0.877912	5.95	70.7	-4.06	-1.731	-0.2258	-1.1478	
-0.394548	0.060756	0.85827	6.72	72.66	-3.99	-1.7264	-0.2347	-1.1526	
-0.416508	0.066124	0.834846	7.28	74.69	-4.48	-1.7068	-0.2285	-1.1468	
-0.439688	0.07259	0.812886	7.35	75.6	-5.25	-1.7009	-0.2358	-1.1425	
-0.472506	0.07198	0.789462	7.7	76.93	-5.6	-1.6871	-0.2328	-1.1488	
-0.5002	0.080154	0.762866	7.28	77.84	-5.81	-1.669	-0.2311	-1.1445	
-0.523624	0.079666	0.73688	6.58	78.68	-6.02	-1.6585	-0.2309	-1.1387	
-0.536678	0.083204	0.71797	5.95	78.82	-6.23	-1.654	-0.2278	-1.1357	
-0.569984	0.079544	0.688812	5.95	79.38	-6.02	-1.6343	-0.2291	-1.1331	
-0.590968	0.080154	0.674294	5.88	78.26	-5.74	-1.6144	-0.2261	-1.144	
-0.616344	0.07564	0.648064	6.58	77.42	-5.6	-1.61	-0.2304	-1.1366	
-0.64721	0.075518	0.634156	5.74	77.84	-5.67	-1.6056	-0.2302	-1.1291	
-0.682956	0.082472	0.602924	6.58	77.77	-5.88	-1.589	-0.2315	-1.1295	
-0.691008	0.077104	0.577792	6.02	77.14	-6.3	-1.5755	-0.2387	-1.1268	
-0.706502	0.074786	0.551806	6.86	76.44	-6.44	-1.5467	-0.2309	-1.1197	
-0.735172	0.074664	0.533994	6.65	76.72	-6.93	-1.5422	-0.2264	-1.1136	
-0.769332	0.069784	0.505324	6.86	76.09	-7.42	-1.5393	-0.2337	-1.1153	
-0.792634	0.06405	0.479094	7.07	75.04	-7.7	-1.5243	-0.2408	-1.1067	
-0.819962	0.060634	0.45018	7.35	74.2	-7.91	-1.5168	-0.2348	-1.1022	
-0.848388	0.06283	0.42639	7.35	73.29	-8.05	-1.5018	-0.227	-1.0887	
-0.880962	0.0671	0.394914	8.19	72.45	-8.54	-1.4793	-0.2385	-1.0864	
-0.898164	0.068564	0.36966	7.84	71.26	-8.68	-1.4806	-0.2327	-1.0908	
-0.936838	0.068808	0.342088	9.38	71.68	-9.1	-1.4731	-0.2296	-1.0878	
-0.948672	0.07747	0.31476	8.33	68.6	-8.61	-1.4704	-0.2263	-1.0682	
-0.949282	0.061854	0.294264	8.12	66.85	-8.54	-1.4493	-0.232	-1.0657	
-0.946354	0.050264	0.27511	7.77	65.38	-8.82	-1.4507	-0.235	-1.0702	
-0.95587	0.05368	0.248392	8.54	63.91	-10.01	-1.436	-0.2345	-1.0493	
-0.951112	0.062464	0.226432	9.1	60.48	-11.06	-1.4178	-0.2299	-1.0481	
-0.962336	0.068198	0.194224	9.87	58.17	-11.27	-1.4135	-0.2355	-1.0362	
-0.96319	0.066856	0.163846	10.01	54.53	-10.78	-1.4135	-0.2266	-1.033	
-0.963678	0.065026	0.156892	10.71	50.47	-10.71	-1.3894	-0.2262	-1.0244	
-1.005158	0.068076	0.14274	10.99	47.53	-10.57	-1.391	-0.2262	-1.0213	
-1.023336	0.056974	0.158112	7.49	42.35	-10.92	-1.3864	-0.2187	-1.0183	
-1.031022	0.049532	0.173728	5.32	36.33	-12.11	-1.3896	-0.2216	-1.0107	
-1.006988	0.05246	0.172508	6.37	30.59	-13.93	-1.3732	-0.2226	-0.9959	
-1.017968	0.04087	0.193614	5.88	26.25	-14.07	-1.367	-0.2272	-1.0097	
-1.015528	0.04026	0.212158	6.79	23.59	-13.65	-1.3641	-0.2225	-0.9960999	
-0.99857	0.05307	0.221552	7.07	21.42	-13.51	-1.3625	-0.2182	-0.9991	
-1.011014	0.055266	0.229482	6.51	22.4	-12.6	-1.3628	-0.2269	-0.9917	
-1.020164	0.055388	0.217282	5.32	23.24	-11.48	-1.3627	-0.224	-0.9947	
-1.006744	0.050874	0.20618	3.85	21.98	-10.08	-1.3642	-0.2151	-0.9899	
-0.997472	0.03965	0.193614	2.52	23.66	-8.89	-1.3521	-0.2164	-0.9872	
-1.016016	0.034526	0.17629	3.22	25.2	-8.33	-1.3522	-0.2208	-0.9857	
-1.01626	0.02867	0.167018	1.89	25.48	-8.4	-1.3567	-0.2134	-0.9855	
-1.018212	0.025864	0.144448	1.75	26.25	-8.19	-1.3433	-0.2146	-0.9737	
-1.002352	0.018666	0.12993	2.1	25.97	-8.12	-1.3433	-0.2176	-0.9768	
-0.996618	0.02623	0.111508	3.36	27.79	-7.98	-1.3372	-0.2115	-0.9723	
-1.017846	0.026718	0.08052	3.64	29.61	-7.7	-1.3328	-0.2084	-0.9647	
-1.010404	0.00976	0.072834	1.05	29.96	-7.21	-1.3328	-0.2084	-0.9617	
-1.031998	0.006588	0.058926	1.61	29.75	-7.35	-1.3343	-0.207	-0.9662	
-1.057008	-0.003294	0.0366	0.35	30.24	-7.35	-1.3389	-0.2114	-0.9615999	
-1.032486	0.001952	0.019398	0.7	28.35	-7.91	-1.3238	-0.2068	-0.9588	
-1.058716	0.002806	0.001708	-0.49	27.37	-7.91	-1.3164	-0.1916	-0.9421	
-1.080554	-0.010858	-0.008052	-1.33	25.27	-7.42	-1.3256	-0.2035	-0.9406	
-1.058716	-0.02013	-0.009393999	-3.36	22.96	-7.07	-1.3258	-0.1989	-0.9314	
-1.025532	-0.027694	-0.00549	-2.59	19.53	-6.16	-1.3211	-0.2049	-0.9407	
-1.02663	-0.02501	-0.020252	0.7	16.94	-5.32	-1.3227	-0.2093	-0.9377	
-1.052738	-0.012932	-0.030256	2.52	15.82	-5.25	-1.3135	-0.1915	-0.9361	
-1.068476	-0.017812	-0.029402	-0.77	14.84	-4.2	-1.3106	-0.1972	-0.9287	
-1.044686	-0.024522	-0.019032	-5.11	13.37	-3.29	-1.3108	-0.2	-0.9197	
-1.038708	-0.02623	-0.016592	-4.62	12.74	-2.45	-1.3138	-0.209	-0.9273	
-1.046394	-0.029768	-0.02257	-4.69	11.76	-1.68	-1.3108	-0.1971	-0.9211	
-1.050908	-0.033184	-0.021106	-4.41	11.27	-0.7	-1.3077	-0.2046	-0.9304	
-1.04005	-0.029768	-0.019276	-3.36	10.01	0.28	-1.3243	-0.1974	-0.9299	
-1.04188	-0.025498	-0.02745	-1.33	8.54	0.91	-1.3063	-0.2015	-0.9228	
-1.052494	-0.019154	-0.03477	-1.19	6.23	1.54	-1.3062	-0.2016	-0.9258	
-1.056886	-0.020252	-0.030866	-3.43	4.97	2.03	-1.3002	-0.1926	-0.9197	
-1.061522	-0.023058	-0.031842	-5.04	4.2	2.24	-1.3183	-0.1943	-0.9224	
-1.056276	-0.028182	-0.03233	-5.67	1.61	2.73	-1.3077	-0.1986	-0.9256999	
-1.063718	-0.025742	-0.037698	-5.25	0.35	2.87	-1.3107	-0.1883	-0.921	
-1.061034	-0.027572	-0.032208	-7.28	-1.89	2.87	-1.3048	-0.1955	-0.9182	
-1.054568	-0.026596	-0.03294	-6.79	-3.22	3.29	-1.3062	-0.1942	-0.9242	
-1.057984	-0.022814	-0.035258	-6.72	-3.43	3.92	-1.3122	-0.1853	-0.9194	
-1.053348	-0.023546	-0.039162	-6.72	-4.69	4.76	-1.3064	-0.2103	-0.9214	
-1.055422	-0.018788	-0.046116	-5.25	-6.72	5.32	-1.3063	-0.197	-0.9182	
-1.058594	-0.016348	-0.055388	-4.9	-7.91	5.81	-1.3076	-0.2032	-0.9319	
-1.062132	-0.016714	-0.050386	-7	-9.52	6.09	-1.3109	-0.2015	-0.9197	
-1.060424	-0.019276	-0.0427	-9.45	-10.43	6.09	-1.3137	-0.1913	-0.924	
-1.05652	-0.021106	-0.0305	-10.5	-11.2	6.37	-1.3046	-0.2016	-0.9289	
-1.046516	-0.011956	-0.021838	-9.31	-12.88	6.37	-1.3137	-0.2032	-0.9317999	
-1.050664	-0.006588	-0.020984	-7.21	-15.12	6.58	-1.3137	-0.1958	-0.9271	
-1.056032	-0.00427	-0.025132	-7	-16.38	7.14	-1.3244	-0.2018	-0.927	
-1.061644	-0.005856	-0.019032	-8.05	-17.29	7.56	-1.3208	-0.1992	-0.9527	
-1.06018	-0.005978	-0.012566	-8.33	-19.32	7.84	-1.3197	-0.1959	-0.9315	
-1.055544	-0.000732	-0.003416	-7.42	-22.05	7.91	-1.3271	-0.1976	-0.9389	
-1.05225	0.008174	0.003538	-7	-24.22	8.33	-1.3255	-0.1976	-0.9435	
-1.056398	0.010614	0.010858	-7.63	-26.25	8.89	-1.3271	-0.2006	-0.9435	
-1.052616	0.015372	0.016226	-7.21	-28.91	9.8	-1.3269	-0.1963	-0.948	
-1.05896	0.024644	0.022204	-6.79	-30.38	10.01	-1.3314	-0.2038	-0.9571	
-1.06323	0.02501	0.033428	-7.77	-32.62	10.29	-1.3359	-0.2024	-0.9585	
-1.053592	0.031232	0.045506	-8.54	-35.21	10.5	-1.3298	-0.2054	-0.9632	
-1.051152	0.033184	0.05917	-8.82	-37.03	10.71	-1.3448	-0.2012	-0.9659	
-1.054812	0.03721	0.06771	-8.82	-38.29	11.41	-1.3461	-0.1999	-0.9779	
-1.040294	0.04087	0.086498	-9.66	-39.76	11.62	-1.3567	-0.2015	-0.9777	
-1.02297	0.042212	0.106872	-9.03	-41.23	11.83	-1.3474	-0.2016	-0.987	
-1.02358	0.047214	0.125416	-7.56	-41.23	12.11	-1.3567	-0.2134	-0.9855	
-1.019798	0.053558	0.136762	-7.98	-42.07	11.69	-1.3552	-0.2149	-0.9856	
-1.007232	0.056852	0.151768	-8.96	-42.84	11.27	-1.3642	-0.2106	-0.9899	
-1.002108	0.063684	0.159698	-8.47	-43.61	10.92	-1.3684	-0.2124	-1.0064	
-1.002718	0.068198	0.171776	-8.54	-44.8	10.92	-1.3792	-0.2124	-0.9987	
-1.000766	0.069052	0.188124	-9.03	-46.2	10.85	-1.3788	-0.2098	-1.0152	
-0.994544	0.069418	0.203984	-9.38	-47.74	10.43	-1.3848	-0.2099	-1.0212	
-0.98759	0.075518	0.218746	-8.19	-49.28	9.87	-1.3998	-0.2191	-1.0316	
-0.98515	0.083204	0.230702	-7.35	-50.82	9.24	-1.4043	-0.2087	-1.0268	
-0.981978	0.080886	0.247294	-7.77	-52.29	8.75	-1.4013	-0.2147	-1.03	
-0.973926	0.08052	0.264252	-7.63	-53.97	8.33	-1.4118	-0.2208	-1.039	
-0.96563	0.078202	0.277184	-7.35	-56.21	7.91	-1.4285	-0.2105	-1.0324	
-0.959652	0.083448	0.297924	-7.35	-57.61	7.14	-1.4309	-0.2141	-1.0642	
-0.948306	0.08479	0.31598	-7.35	-59.22	6.58	-1.4373	-0.2124	-1.0489	
-0.917684	0.082594	0.333304	-7.35	-61.39	6.09	-1.443	-0.2127	-1.0654	
-0.894138	0.083326	0.35441	-6.09	-62.37	5.67	-1.4539	-0.2216	-1.0578	
-0.89243	0.089426	0.37271	-5.74	-62.72	4.9	-1.4596	-0.213	-1.0727	
-0.87047	0.0854	0.393694	-6.58	-64.26	4.27	-1.4716	-0.2222	-1.0817	
-0.848022	0.086254	0.418826	-6.72	-64.68	3.5	-1.4777	-0.2236	-1.0786	
-0.833016	0.087718	0.442006	-5.46	-66.15	2.52	-1.4881	-0.212	-1.0842	
-0.811666	0.088328	0.460184	-5.39	-66.85	1.61	-1.4896	-0.2166	-1.0888	
-0.800442	0.089548	0.470432	-3.85	-67.55	1.4	-1.4985	-0.2168	-1.0992	
-0.791048	0.077226	0.497516	-5.46	-67.9	1.05	-1.5137	-0.211	-1.0943	
-0.768478	0.076372	0.516182	-5.32	-69.09	0.77	-1.5302	-0.2172	-1.1046	
-0.751642	0.080032	0.545828	-6.44	-69.37	0.7	-1.5347	-0.2173	-1.1076	
-0.732732	0.072712	0.566568	-6.51	-69.86	0.77	-1.5496	-0.2133	-1.1193	
-0.708576	0.07686	0.579744	-5.6	-69.72	0.98	-1.5512	-0.2162	-1.1163	
-0.695888	0.074908	0.59109	-5.25	-69.72	1.54	-1.5752	-0.2151	-1.1264	
-0.662338	0.064782	0.615002	-5.74	-69.58	2.1	-1.5845	-0.2195	-1.1218	
-0.625372	0.057218	0.639524	-5.18	-69.79	2.31	-1.6055	-0.2139	-1.1273	
-0.606828	0.055266	0.656482	-4.48	-69.79	2.38	-1.6086	-0.2199	-1.1289	
-0.5917	0.051484	0.675392	-4.69	-70.21	2.52	-1.619	-0.2157	-1.1362	
-0.562176	0.050996	0.703086	-4.34	-70.91	2.17	-1.6252	-0.2275	-1.1332	
-0.527284	0.05063	0.735294	-4.06	-70.98	2.03	-1.6387	-0.2159	-1.1358	
-0.512644	0.055632	0.75579	-3.22	-70.49	2.45	-1.6508	-0.219	-1.1401	
-0.502396	0.058682	0.779458	-3.29	-69.93	2.45	-1.6658	-0.2223	-1.149	
-0.475678	0.058072	0.804956	-4.06	-69.37	2.1	-1.6642	-0.2149	-1.1504	
-0.449936	0.058804	0.826794	-4.13	-68.46	1.96	-1.681	-0.2119	-1.1379	
-0.425536	0.058316	0.838994	-3.78	-67.55	1.89	-1.6916	-0.2165	-1.1408	
-0.401258	0.053558	0.856562	-3.92	-66.36	1.12	-1.7098	-0.2107	-1.1374	
-0.371978	0.058194	0.865468	-2.94	-65.1	-0.56	-1.7172	-0.211	-1.1478	
-0.353678	0.065758	0.88084	-2.8	-63.21	-1.26	-1.7323	-0.2082	-1.149	
-0.340258	0.064782	0.892064	-3.01	-61.18	-1.68	-1.7324	-0.2215	-1.1492	
-0.326838	0.057462	0.895724	-3.5	-59.71	-1.89	-1.752	-0.2025	-1.1485	
-0.309026	0.04697	0.921344	-4.34	-58.59	-1.96	-1.7585	-0.2274	-1.1382	
-0.289262	0.036966	0.94367	-3.22	-56.35	-1.96	-1.7748	-0.2174	-1.1498	
-0.284138	0.03477	0.951234	-3.36	-53.13	-1.47	-1.7871	-0.2189	-1.1406	
-0.27633	0.037454	0.955992	-1.75	-52.29	-1.19	-1.7901	-0.2175	-1.145	
-0.264252	0.038918	0.968924	-1.47	-49.56	-1.19	-1.7973	-0.2119	-1.1599	
-0.249246	0.040748	0.977464	-1.68	-46.97	-1.05	-1.8022	-0.2072	-1.1401	
-0.22875	0.040626	0.97905	-1.19	-44.52	-0.77	-1.8083	-0.2117	-1.14	
-0.210084	0.045384	0.982832	-1.47	-41.72	-0.21	-1.8234	-0.2193	-1.1444	
-0.200568	0.04636	0.986126	-1.47	-37.94	0.14	-1.834	-0.2179	-1.1442	
-0.19825	0.048068	0.984418	-1.4	-35.98	0.28	-1.8402	-0.2134	-1.1364	
-0.193614	0.047336	0.987956	-1.26	-34.16	0	-1.8416	-0.2135	-1.1394	
-0.185562	0.03904	0.99125	-1.68	-32.27	0	-1.8494	-0.2149	-1.1332	
-0.175558	0.039406	0.994788	-1.12	-30.87	0	-1.8495	-0.2281	-1.1305	
-0.160064	0.0366	1.000888	-1.19	-28.84	-0.28	-1.8585	-0.2224	-1.1362	
-0.144082	0.038796	1.005524	-0.77	-27.86	-0.28	-1.863	-0.2121	-1.1299	
-0.12444	0.044408	1.010038	-0.07	-26.18	-0.35	-1.875	-0.2094	-1.1387	
-0.11407	0.049044	1.009794	0	-24.43	-0.35	-1.8646	-0.2209	-1.1316	
-0.10004	0.039772	1.030046	-1.12	-22.61	-0.28	-1.8752	-0.2166	-1.1282	
-0.084546	0.035136	1.04493	-0.91	-20.58	-0.14	-1.8888	-0.2078	-1.1248	
-0.07515199	0.045384	1.052616	-0.63	-18.83	0.07	-1.8723	-0.2253	-1.1254	
-0.060634	0.045872	1.057008	0.07	-16.66	0.28	-1.8906	-0.2195	-1.1205	
-0.046848	0.039162	1.066158	0.49	-14.35	0.42	-1.8903	-0.2079	-1.1293	
-0.033672	0.0366	1.077382	0.42	-12.67	0.49	-1.892	-0.2167	-1.1249	
-0.020984	0.041602	1.088728	0.98	-7.91	0.14	-1.895	-0.2122	-1.1217	
-0.008905999	0.043676	1.091778	0.7	-5.11	0.14	-1.8876	-0.2195	-1.119	
-0.005978	0.045262	1.095804	0.63	-2.38	0.49	-1.8813	-0.2166	-1.1251	
-0.005856	0.045872	1.093242	0.98	1.4	0.77	-1.8949	-0.2227	-1.131	
-0.008662	0.0488	1.091656	1.19	5.18	1.05	-1.8965	-0.2197	-1.1279	
-0.010126	0.050874	1.08641	0.84	8.82	1.19	-1.8903	-0.2108	-1.1294	
-0.007686	0.05002	1.08824	0.56	12.6	1.4	-1.8935	-0.2226	-1.1265	
-0.017202	0.051118	1.085068	0.98	16.52	1.61	-1.8813	-0.2271	-1.1344	
-0.021838	0.052338	1.08519	1.4	20.37	1.54	-1.883	-0.2239	-1.1222	
-0.030012	0.054656	1.083726	1.05	24.57	1.12	-1.8844	-0.2151	-1.1235	
-0.035746	0.058072	1.078724	0.84	27.86	0.98	-1.8814	-0.2254	-1.1268	
-0.052582	0.060512	1.07055	0.77	32.13	0.7	-1.8721	-0.2152	-1.1343	
-0.06893	0.061488	1.06323	0.84	35.84	0.42	-1.8737	-0.2151	-1.1282	
-0.085278	0.058194	1.051396	1.26	39.55	-0.21	-1.8631	-0.2239	-1.1316	
-0.103212	0.054778	1.044198	1.54	42.91	-0.7	-1.8477	-0.2151	-1.1423	
-0.120658	0.05551	1.027606	2.45	46.48	-0.98	-1.8523	-0.2285	-1.147	
-0.140056	0.06039	1.014064	2.73	49.84	-1.33	-1.8402	-0.2208	-1.1396	
-0.167018	0.061854	0.997472	3.43	52.85	-1.89	-1.8295	-0.2313	-1.1505	
-0.19154	0.06405	0.981002	4.48	56.56	-2.45	-1.8219	-0.2163	-1.1444	
-0.215574	0.056852	0.971608	3.78	61.18	-2.8	-1.8084	-0.2221	-1.1417	
-0.238144	0.05612	0.955016	4.83	63.42	-3.29	-1.8053	-0.2205	-1.1402	
-0.270596	0.06222	0.929396	5.88	65.52	-3.85	-1.7932	-0.2159	-1.1374	
-0.302438	0.059902	0.909388	6.58	68.6	-4.34	-1.7762	-0.2161	-1.1543	
-0.32452	0.05673	0.894992	7	71.12	-4.9	-1.7628	-0.2202	-1.1471	
-0.344284	0.057828	0.877302	7	72.1	-5.67	-1.755	-0.2173	-1.1532	
-0.364902	0.057218	0.865224	6.72	73.85	-6.09	-1.7415	-0.2201	-1.1505	
-0.396622	0.061732	0.849486	6.23	75.81	-6.23	-1.731	-0.2184	-1.1462	
-0.43371	0.06466	0.81313	6.44	77.84	-6.16	-1.7144	-0.2256	-1.1451	
-0.467138	0.070638	0.78202	5.53	78.33	-6.09	-1.6946	-0.2285	-1.1501	
-0.486292	0.07747	0.768234	4.48	78.82	-6.3	-1.6856	-0.2238	-1.1426	
-0.50447	0.072956	0.754326	3.08	79.87	-6.44	-1.6645	-0.2236	-1.1385	
-0.530334	0.06954	0.735782	2.8	80.64	-6.02	-1.6689	-0.2193	-1.1443	
-0.54412	0.069784	0.716994	2.38	80.57	-5.46	-1.6475	-0.2192	-1.1523	
-0.570472	0.066978	0.68686	3.5	81.34	-5.46	-1.6493	-0.2235	-1.1418	
-0.582794	0.061	0.662948	3.5	81.06	-5.53	-1.6176	-0.2319	-1.138	
-0.622932	0.06344	0.635742	3.71	82.25	-6.09	-1.6147	-0.2154	-1.1241	
-0.649894	0.055876	0.608414	3.15	81.41	-6.37	-1.595	-0.2242	-1.1277	
-0.693204	0.05063	0.582306	4.06	81.27	-6.79	-1.5784	-0.2239	-1.1235	
-0.73688	0.051728	0.545462	4.06	80.5	-7	-1.5724	-0.2223	-1.119	
-0.76311	0.050264	0.51667	3.5	78.47	-7.14	-1.5635	-0.2281	-1.1148	
-0.7747	0.049776	0.496906	3.08	75.18	-7.28	-1.5528	-0.2146	-1.1117	
-0.784704	0.046848	0.469456	4.34	72.59	-7.49	-1.5378	-0.2203	-1.1061	
-0.808616	0.041846	0.44469	4.9	70	-7.28	-1.5288	-0.223	-1.1002	
-0.81679	0.041236	0.434808	5.46	67.27	-7.35	-1.5155	-0.2241	-1.0869	
-0.842044	0.052094	0.416508	5.95	65.31	-7.98	-1.5062	-0.2168	-1.0915	
-0.874374	0.06161	0.396988	5.74	63.98	-7.98	-1.4791	-0.2179	-1.086	
-0.899506	0.053314	0.38003	6.09	62.02	-6.93	-1.4777	-0.2177	-1.0785	
-0.923662	0.055754	0.361974	6.58	60.06	-6.79	-1.467	-0.2028	-1.0739	
-0.941596	0.052704	0.338306	7.28	58.59	-7.14	-1.4615	-0.2276	-1.0593	
-0.96624	0.047824	0.320494	7.28	56.84	-7.14	-1.4475	-0.2128	-1.0669	
-0.980026	0.049898	0.300486	7.56	53.76	-7.28	-1.4386	-0.22	-1.0611	
-0.982466	0.0488	0.283284	6.51	50.82	-7	-1.4388	-0.2213	-1.0536	
-0.972584	0.046116	0.265106	6.72	47.11	-6.23	-1.4343	-0.2109	-1.0474	
-0.956236	0.041724	0.255712	7.42	43.61	-5.74	-1.4192	-0.218	-1.0448	
-0.95831	0.0427	0.243024	7.77	41.65	-5.39	-1.4239	-0.2165	-1.0357	
-0.96502	0.050996	0.239364	5.88	39.55	-5.39	-1.4161	-0.2121	-1.0463	
-0.97661	0.04941	0.24278	4.69	36.12	-4.34	-1.4074	-0.2251	-1.0346	
-0.986492	0.049898	0.241438	3.36	33.81	-3.43	-1.4043	-0.2222	-1.0376	
-0.987346	0.047458	0.24888	2.03	31.08	-2.94	-1.4148	-0.2179	-1.0374	
-0.995764	0.04697	0.25864	1.68	29.89	-2.66	-1.383	-0.2161	-1.0379	
-1.01138	0.043798	0.26596	1.19	29.4	-2.87	-1.3909	-0.2204	-1.0243	
-1.006622	0.0427	0.266204	1.12	28.7	-2.87	-1.3834	-0.2217	-1.0184	
-0.992348	0.041236	0.261202	1.61	28.56	-2.66	-1.3773	-0.2187	-1.02	
-0.991128	0.038918	0.25315	2.73	29.47	-2.59	-1.3745	-0.2229	-1.008	
-0.989664	0.03904	0.241316	3.92	30.45	-2.45	-1.3652	-0.2111	-1.0125	
-0.9699	0.0366	0.23668	4.55	30.17	-2.24	-1.379	-0.2081	-1.0031	
-0.95648	0.033672	0.22692	5.67	30.73	-2.31	-1.3641	-0.2107	-0.9944	
-0.953064	0.030378	0.219112	6.16	32.27	-2.66	-1.361	-0.2182	-1.0006	
-0.96685	0.035502	0.204716	6.72	33.88	-3.29	-1.3688	-0.215	-0.9853	
-0.991982	0.042334	0.180438	6.93	33.53	-3.99	-1.3566	-0.2179	-0.9901	
-1.009672	0.033184	0.151158	7.42	32.2	-3.22	-1.3583	-0.2148	-0.9809999	
-1.076894	0.04087	0.101504	7.77	33.88	-3.01	-1.3568	-0.2074	-0.9763	
-1.117398	0.035746	0.071492	5.6	33.6	-2.94	-1.3493	-0.2207	-0.9813	
-1.110322	0.030134	0.07124799	3.29	31.36	-2.73	-1.349	-0.209	-0.9886	
-1.072502	0.032574	0.064416	2.73	25.97	-2.38	-1.3479	-0.216	-0.9691	
-1.042856	0.03294	0.058926	2.94	20.37	-2.8	-1.3493	-0.2117	-0.975	
-1.02297	0.026962	0.05368	2.8	17.29	-2.1	-1.3372	-0.21	-0.9707	
-1.009916	0.030988	0.062464	1.33	18.9	-2.52	-1.3405	-0.2143	-0.9602	
-0.999424	0.029524	0.080032	0.63	19.39	-2.66	-1.3421	-0.2157	-0.9571	
-0.990396	0.03538	0.100284	0.63	20.3	-1.47	-1.3376	-0.2127	-0.9526	
-0.988932	0.03721	0.09821	1.89	21.77	-0.56	-1.3375	-0.2083	-0.9571	
-0.988078	0.043432	0.095648	3.22	23.8	-0.21	-1.336	-0.2127	-0.9557	
-0.980514	0.041724	0.090036	4.62	25.06	0.14	-1.327	-0.2185	-0.956	
-0.993202	0.044408	0.074664	5.46	26.46	-0.07	-1.3318	-0.2109	-0.9406	
-1.000522	0.043188	0.06222	5.46	26.32	-0.14	-1.3197	-0.2197	-0.941	
-0.998448	0.037698	0.059048	5.04	25.41	-0.42	-1.3196	-0.2109	-0.9439	
-0.994422	0.035502	0.050508	6.3	24.5	-0.91	-1.3183	-0.2196	-0.9365	
-1.010892	0.037576	0.025742	7.21	23.73	-2.17	-1.3139	-0.2105	-0.9258	
-1.02114	0.040016	0.027938	6.79	22.54	-2.8	-1.3123	-0.2195	-0.9335999	
-1.030534	0.040138	0.019398	6.3	21.21	-2.8	-1.323	-0.2105	-0.9211	
-1.036634	0.040504	0.012078	5.18	20.65	-2.8	-1.3078	-0.2149	-0.9274999	
-1.04554	0.038918	0.001098	6.44	19.81	-2.38	-1.3079	-0.2044	-0.9198	
-1.040904	0.039406	-0.003294	7.14	18.97	-2.45	-1.299	-0.2175	-0.9157	
-1.024068	0.049654	-0.01281	8.54	16.87	-2.52	-1.3003	-0.2207	-0.9248	
-1.026996	0.05124	-0.02257	8.75	15.82	-1.89	-1.3083	-0.2248	-0.9066	
-1.016016	0.042822	-0.024522	5.67	15.61	-1.82	-1.3052	-0.2174	-0.9065	
-1.003816	0.04392	-0.029646	4.55	15.54	-2.03	-1.305	-0.2176	-0.9171	
-1.016626	0.045506	-0.038064	5.46	15.68	-2.38	-1.3021	-0.213	-0.908	
-1.010648	0.038796	-0.04392	2.94	15.47	-2.59	-1.3036	-0.2056	-0.9048	
-1.014918	0.035014	-0.05185	2.45	15.68	-2.8	-1.3098	-0.2129	-0.9003	
-1.024922	0.028426	-0.065392	3.85	15.05	-2.94	-1.2871	-0.2172	-0.9038	
-1.02297	0.029158	-0.068686	3.36	14.35	-3.57	-1.2933	-0.2216	-0.8962	
-1.031266	0.033672	-0.077104	3.01	13.58	-4.34	-1.2948	-0.2186	-0.8961	
-1.028216	0.028548	-0.083082	0.21	13.3	-4.69	-1.3038	-0.2069	-0.8942	
-1.02541	0.027816	-0.084424	0.84	12.95	-4.83	-1.2765	-0.2141	-0.8979	
-1.020042	0.024888	-0.085766	0.49	12.39	-4.69	-1.2934	-0.2126	-0.887	
-1.022604	0.02196	-0.09455	0.49	11.83	-4.55	-1.2827	-0.2081	-0.8886	
-1.028094	0.017446	-0.093452	0.14	11.83	-4.34	-1.2889	-0.208	-0.8825	
-1.012234	0.017202	-0.09028	0	12.32	-4.48	-1.2784	-0.2049	-0.8766	
-1.02297	0.014884	-0.08845	0.98	12.25	-4.2	-1.2843	-0.208	-0.8856	
-1.014796	0.011956	-0.091988	1.33	11.34	-4.06	-1.298	-0.2125	-0.8824	
-1.006744	0.008417999	-0.101504	3.57	11.62	-3.99	-1.2857	-0.2036	-0.887	
-1.03029	0.003538	-0.11651	5.95	9.59	-3.71	-1.2798	-0.2049	-0.8796	
-1.047736	0.006344	-0.12688	5.18	8.4	-3.92	-1.2798	-0.2049	-0.8811	
-1.031998	0.009638	-0.129076	-0.98	8.82	-3.71	-1.2859	-0.199	-0.8763	
-1.017724	0.009272	-0.124806	-2.94	10.64	-3.78	-1.274	-0.2047	-0.8706	
-1.025654	0.007442	-0.130662	-2.1	9.94	-3.43	-1.289	-0.2004	-0.8717	
-1.037488	0.005856	-0.14762	-1.61	8.96	-3.15	-1.283	-0.1974	-0.8673	
-1.03395	0.005612	-0.150792	-4.2	7.63	-3.15	-1.289	-0.2109	-0.878	
-1.03029	0.00305	-0.156892	-3.78	7.42	-3.22	-1.2768	-0.1945	-0.8764	
-1.03395	-0.003416	-0.156282	-4.48	6.3	-3.08	-1.2787	-0.2031	-0.8613999	
-1.02724	-0.004758	-0.159088	-3.71	5.25	-3.08	-1.2832	-0.2046	-0.8598	
-1.027484	-0.002196	-0.157502	-4.69	4.55	-2.94	-1.2755	-0.2032	-0.8675	
-1.026752	-0.009028	-0.16043	-6.58	3.29	-2.24	-1.2786	-0.1942	-0.8582	
-1.021872	-0.01281	-0.1586	-6.72	4.83	-1.26	-1.2676	-0.1915	-0.878	
-1.025898	-0.011956	-0.164944	-6.65	4.76	-0.49	-1.277	-0.2047	-0.869	
-1.024556	-0.011346	-0.1586	-6.37	6.02	-0.14	-1.2801	-0.1973	-0.8628	
-1.0187	-0.013908	-0.167262	-6.58	3.64	0.63	-1.2785	-0.2063	-0.8736	
-1.031022	-0.015494	-0.168726	-6.72	4.62	1.19	-1.271	-0.1972	-0.863	
-1.037488	-0.009272	-0.17385	-6.86	4.41	1.61	-1.283	-0.1825	-0.8625	
-1.046272	-0.00732	-0.183	-6.65	3.85	2.1	-1.2741	-0.1942	-0.8598	
-1.045418	-0.002318	-0.181902	-5.95	3.29	2.59	-1.2846	-0.2048	-0.8689	
-1.04493	-0.008905999	-0.179462	-6.51	1.61	3.36	-1.2773	-0.2029	-0.8509	
-1.028216	-0.01403	-0.174582	-7	0.28	3.64	-1.268	-0.2045	-0.8647	
-1.038464	-0.00366	-0.174826	-5.46	-0.35	3.5	-1.2728	-0.1999	-0.8509	
-1.043588	0.005368	-0.182756	-6.79	-1.47	3.71	-1.2817	-0.2016	-0.8598	
-1.043832	-0.000244	-0.189222	-7.42	-1.89	4.41	-1.2772	-0.1941	-0.8522	
-1.05103	-0.006222	-0.186538	-7.91	-2.1	5.39	-1.2726	-0.1986	-0.8569	
-1.046272	-0.002074	-0.183488	-8.12	-3.15	5.46	-1.2709	-0.1913	-0.8629	
-1.037976	0.005002	-0.176534	-8.75	-4.62	5.53	-1.2845	-0.1945	-0.8687	
-1.03212	0.014518	-0.177266	-7.63	-5.11	5.6	-1.2801	-0.1973	-0.8628	
-1.049078	0.02013	-0.18788	-6.16	-5.6	6.37	-1.2801	-0.2106	-0.8676	
-1.051396	0.016958	-0.187026	-7.42	-6.79	7.7	-1.277	-0.1899	-0.8642	
-1.042978	0.015372	-0.176534	-8.4	-7.28	7.7	-1.2801	-0.2032	-0.8644	
-1.037122	0.028548	-0.167506	-8.47	-8.4	7	-1.2817	-0.2061	-0.8613999	
-1.038586	0.03477	-0.169702	-8.47	-10.08	6.58	-1.2815	-0.1944	-0.8688	
-1.043222	0.036234	-0.168238	-7.56	-11.2	6.72	-1.2742	-0.2075	-0.8616	
-1.043344	0.04026	-0.16958	-6.37	-12.74	6.3	-1.2786	-0.2046	-0.8629	
-1.046272	0.038918	-0.161894	-6.23	-14.42	5.88	-1.2907	-0.2092	-0.8673	
-1.047248	0.039894	-0.15372	-7.07	-15.12	5.53	-1.2813	-0.1975	-0.8779	
-1.04371	0.03843	-0.149694	-6.23	-16.66	5.11	-1.2874	-0.2065	-0.8809	
-1.03761	0.041724	-0.141764	-5.32	-18.48	4.97	-1.2921	-0.2108	-0.8734	
-1.027118	0.050874	-0.130662	-4.2	-20.16	4.13	-1.2919	-0.2006	-0.8807999	
-1.038342	0.057706	-0.129442	-2.52	-21.7	3.64	-1.2904	-0.214	-0.8871	
-1.037488	0.054534	-0.11956	-2.73	-22.26	3.64	-1.2978	-0.1934	-0.8835	
-1.03212	0.060878	-0.106018	-1.61	-23.1	3.36	-1.2857	-0.2186	-0.8978	
-1.029436	0.066124	-0.09333	-0.7	-24.85	2.94	-1.2827	-0.2096	-0.8902	
-1.030534	0.07515199	-0.085644	0.28	-26.18	2.8	-1.299	-0.2086	-0.9095	
-1.038586	0.08295999	-0.07686	0	-27.02	2.17	-1.299	-0.1982	-0.9032	
-1.028826	0.07808	-0.072346	-1.54	-28.42	1.82	-1.302	-0.2101	-0.9109	
-1.029802	0.06954	-0.058072	-0.98	-30.1	1.82	-1.299	-0.2131	-0.9141	
-1.041026	0.079178	-0.052216	-0.14	-32.06	1.26	-1.3081	-0.2057	-0.9077	
-1.035658	0.07686	-0.03904	-1.19	-33.88	0.84	-1.3199	-0.209	-0.9242	
-1.036878	0.071736	-0.02684	-1.4	-35	1.05	-1.3079	-0.2089	-0.9199	
-1.03578	0.072712	-0.013664	-1.47	-35.91	0.63	-1.3108	-0.2135	-0.929	
-1.042002	0.076006	-0.004636	-1.47	-37.73	0.07	-1.3167	-0.2062	-0.9317999	
-1.02907	0.074298	0.010248	-2.24	-38.78	-0.07	-1.3213	-0.2182	-0.9394	
-1.01626	0.06588	0.025498	-2.1	-39.2	-0.07	-1.3272	-0.2094	-0.9422	
-1.016016	0.069052	0.038064	-1.05	-39.41	-0.35	-1.3255	-0.2126	-0.9544	
-1.01748	0.065026	0.041724	-1.19	-40.04	-0.14	-1.3179	-0.2169	-0.9546	
-1.01931	0.058438	0.054534	-1.75	-40.32	-0.14	-1.3313	-0.2069	-0.9617	
-1.020408	0.047214	0.072834	-2.52	-40.67	0.21	-1.3388	-0.2115	-0.9677	
-1.013698	0.04453	0.090524	-2.52	-40.81	-0.28	-1.3449	-0.2145	-0.9705999	
-1.01138	0.04209	0.104188	-2.24	-40.81	-0.49	-1.3342	-0.213	-0.9723	
-1.0187	0.041236	0.113948	-1.96	-40.46	-0.56	-1.3568	-0.2119	-0.9794	
-1.018334	0.043798	0.119926	-2.73	-40.67	-0.35	-1.3555	-0.2161	-0.9705	
-1.009428	0.040016	0.138714	-3.78	-40.11	-0.14	-1.3566	-0.2135	-0.9916	
-1.01443	0.036356	0.14823	-4.2	-40.04	-0.28	-1.3627	-0.2061	-0.9838	
-1.012722	0.03538	0.162382	-4.9	-39.83	-0.28	-1.3548	-0.2034	-1.0005	
-1.011136	0.03721	0.178974	-5.74	-39.06	-0.21	-1.37	-0.2094	-1.0018	
-1.011746	0.036234	0.18544	-6.44	-38.78	0.07	-1.3744	-0.214	-1.0094	
-1.00284	0.029646	0.199836	-6.93	-38.78	0.14	-1.3774	-0.2081	-1.0077	
-0.99857	0.029402	0.207278	-7.07	-38.71	-0.28	-1.3819	-0.2142	-1.0137	
-1.00955	0.033428	0.207034	-7.14	-38.99	-0.63	-1.3862	-0.2011	-1.0195	
-1.005158	0.022326	0.22936	-9.52	-40.95	-0.14	-1.3864	-0.2202	-1.0183	
-0.9882	0.01708	0.247416	-10.22	-42.63	0.42	-1.3938	-0.2056	-1.0239	
-0.97051	0.011224	0.274012	-8.33	-44.03	1.05	-1.3922	-0.2071	-1.027	
-0.949648	0.014884	0.28975	-7.63	-44.94	1.61	-1.4132	-0.2046	-1.0372	
-0.935862	0.022692	0.322324	-6.16	-45.08	1.82	-1.4115	-0.2047	-1.0463	
-0.926224	0.02806	0.33794	-2.94	-44.1	2.1	-1.4223	-0.2002	-1.0354	
-0.906216	0.037576	0.361486	-1.82	-43.05	2.03	-1.4265	-0.2169	-1.0598	
-0.894138	0.040382	0.387594	-1.47	-41.86	1.96	-1.428	-0.2005	-1.0504	
-0.892308	0.045628	0.400892	-2.03	-40.6	1.89	-1.4324	-0.2082	-1.0625	
-0.88694	0.03965	0.416874	-3.71	-40.95	2.45	-1.4355	-0.1992	-1.0548	
-0.871446	0.032696	0.429196	-2.31	-40.39	3.15	-1.452	-0.2129	-1.0713	
-0.874496	0.036234	0.43371	-0.84	-40.25	3.22	-1.4596	-0.2056	-1.068	
-0.865956	0.037088	0.450912	-0.98	-40.46	3.15	-1.4642	-0.2144	-1.0666	
-0.85156	0.045384	0.450912	-0.77	-41.23	3.08	-1.4702	-0.2146	-1.0725	
-0.830454	0.049654	0.468846	-1.47	-42.84	3.15	-1.4791	-0.2074	-1.0798	
-0.807152	0.048678	0.502152	-2.45	-43.26	3.43	-1.482	-0.215	-1.0889	
-0.785802	0.05185	0.536922	-2.45	-42.35	3.71	-1.4804	-0.2106	-1.0904	
-0.769454	0.05063	0.54412	-1.4	-40.39	3.78	-1.4955	-0.2064	-1.093	
-0.75579	0.051728	0.562298	-1.54	-38.57	3.57	-1.5121	-0.2066	-1.0972	
-0.74847	0.049654	0.571204	-1.54	-37.1	3.08	-1.5122	-0.2229	-1.099	
-0.73688	0.048068	0.599142	-1.19	-35.07	2.59	-1.5089	-0.2156	-1.1065	
-0.732122	0.05246	0.609634	-0.77	-33.11	2.45	-1.5121	-0.2125	-1.0958	
-0.710772	0.049776	0.630618	-0.63	-31.5	2.31	-1.5105	-0.217	-1.1035	
-0.702964	0.055754	0.643428	0.07	-29.54	2.24	-1.5271	-0.2158	-1.1077	
-0.700158	0.056608	0.664168	0.14	-27.79	2.17	-1.5302	-0.2039	-1.0999	
-0.698572	0.05856	0.681004	0.98	-25.55	2.17	-1.5273	-0.2261	-1.1049	
-0.69296	0.060756	0.699792	0	-24.15	2.24	-1.5453	-0.2115	-1.1058	
-0.687592	0.064172	0.709918	0.14	-21.84	2.52	-1.5332	-0.2144	-1.1076	
-0.679906	0.060878	0.72163	-0.35	-19.67	2.87	-1.5483	-0.2175	-1.1073	
-0.674538	0.057828	0.732366	-0.14	-17.15	2.94	-1.5408	-0.2248	-1.1091	
-0.673562	0.062586	0.729438	0.84	-14.21	2.59	-1.5451	-0.2072	-1.1132	
-0.67771	0.064538	0.722728	1.33	-11.83	2.45	-1.5482	-0.2146	-1.1148	
-0.68442	0.071004	0.723704	1.89	-9.31	2.03	-1.5496	-0.2162	-1.1209	
-0.68869	0.06222	0.729072	1.61	-7.98	2.24	-1.5497	-0.2236	-1.118	
-0.6832	0.06527	0.726754	1.68	-6.23	1.4	-1.5482	-0.2161	-1.1149	
-0.6893	0.069052	0.720898	2.38	-3.85	0.98	-1.5467	-0.2176	-1.1149	
-0.69479	0.072102	0.71553	3.15	-1.68	0.7	-1.5525	-0.2148	-1.1238	
-0.697108	0.071736	0.707112	3.71	-0.14	0.35	-1.5557	-0.2207	-1.1193	
-0.705404	0.074176	0.696742	4.06	0.98	0	-1.5498	-0.2294	-1.1166	
-0.715164	0.078202	0.690032	3.64	1.96	-0.56	-1.5571	-0.2193	-1.1253	
-0.724314	0.07747	0.687836	2.94	2.8	-0.84	-1.5512	-0.2206	-1.1179	
-0.732122	0.075396	0.681614	2.59	3.64	-0.98	-1.5586	-0.2104	-1.1221	
-0.737002	0.076982	0.676002	2.17	4.48	-1.19	-1.5498	-0.219	-1.1103	
-0.737856	0.074176	0.673074	1.47	5.46	-1.19	-1.5604	-0.2221	-1.1132	
-0.741882	0.07686	0.662094	1.61	6.44	-1.19	-1.562	-0.228	-1.1118	
-0.754814	0.076982	0.64538	1.26	7.49	-1.12	-1.5512	-0.2221	-1.1179	
-0.766526	0.073566	0.63562	0.49	8.05	-1.12	-1.5435	-0.2147	-1.121	
-0.770552	0.075396	0.624396	0.49	8.05	-1.19	-1.5483	-0.2205	-1.1119	
-0.771406	0.07503	0.620858	-0.28	7.77	-1.47	-1.5499	-0.2263	-1.109	
-0.776408	0.072468	0.61671	-1.05	7.7	-1.61	-1.5483	-0.2175	-1.1119	
-0.78629	0.069052	0.610122	-1.12	7.56	-1.54	-1.5531	-0.2307	-1.1029	
-0.791658	0.06649	0.60024	-1.68	7.07	-1.54	-1.5454	-0.2158	-1.0998	
-0.805444	0.054168	0.59048	-2.1	7	-1.54	-1.5393	-0.2054	-1.0997	
-0.828868	0.047092	0.576572	-1.26	6.65	-1.61	-1.5406	-0.222	-1.1166	
-0.828868	0.04758	0.566568	-1.47	5.53	-1.75	-1.5513	-0.2325	-1.1211	
-0.841068	0.050874	0.555222	-1.26	4.55	-1.47	-1.5466	-0.2191	-1.118	
-0.84912	0.049654	0.546194	-1.89	3.43	-0.98	-1.5409	-0.2173	-1.1014	
-0.85461	0.048678	0.53497	-1.19	2.38	-0.14	-1.5269	-0.2189	-1.1183	
-0.855952	0.051362	0.53192	-0.77	1.4	0.7	-1.539	-0.2161	-1.1181	
-0.854244	0.052216	0.520696	-0.77	-0.42	1.61	-1.5407	-0.2189	-1.109	
-0.853024	0.055632	0.51789	-0.49	-2.8	2.52	-1.5423	-0.2203	-1.1075	
-0.840336	0.05307	0.526674	-0.14	-5.46	3.15	-1.5347	-0.2143	-1.106	
-0.833626	0.052216	0.537532	-0.56	-7.84	3.22	-1.539	-0.2161	-1.1181	
-0.84302	0.052704	0.535946	-0.63	-10.01	3.15	-1.5302	-0.2232	-1.1078	
-0.870836	0.04697	0.532408	-0.56	-11.83	3.15	-1.5376	-0.2085	-1.1089	
-0.869128	0.047946	0.526308	0.21	-14.98	2.94	-1.5498	-0.2175	-1.1103	
-0.85278	0.056486	0.522404	0.49	-18.34	2.8	-1.539	-0.2161	-1.1211	
-0.860588	0.070516	0.508984	0.7	-20.79	3.36	-1.5665	-0.2207	-1.1116	
-0.863638	0.075396	0.488	0.7	-24.29	4.55	-1.5498	-0.2265	-1.115	
-0.855708	0.070394	0.471408	0.49	-28.7	5.46	-1.5587	-0.2222	-1.1208	
-0.85095	0.07625	0.485804	0.07	-33.46	5.88	-1.5723	-0.2224	-1.1251	
-0.84973	0.074908	0.498614	-0.98	-38.29	6.02	-1.5694	-0.2238	-1.1191	
-0.83326	0.07381	0.511424	-1.89	-42.84	6.44	-1.5812	-0.2108	-1.1307	
-0.79971	0.073566	0.525332	-3.92	-46.9	6.44	-1.5812	-0.2197	-1.1309	
-0.761768	0.075518	0.542168	-3.5	-50.33	6.23	-1.5905	-0.227	-1.1263	
-0.7503	0.077104	0.599996	-4.55	-51.59	6.02	-1.5935	-0.2197	-1.1261	
-0.744932	0.081374	0.610732	-2.94	-54.18	5.6	-1.6192	-0.2244	-1.1288	
-0.706868	0.082228	0.610488	-2.59	-57.12	5.04	-1.6177	-0.2259	-1.1273	
-0.6649	0.081374	0.615246	-2.52	-59.57	4.2	-1.6202	-0.2234	-1.1559	
-0.622078	0.079178	0.64233	-2.45	-61.74	3.36	-1.6434	-0.2336	-1.136	
-0.60878	0.081374	0.671976	-1.61	-64.12	2.31	-1.6477	-0.222	-1.1418	
-0.59597	0.09211	0.712602	-2.66	-65.66	2.38	-1.6585	-0.2279	-1.1386	
-0.578036	0.094062	0.73688	-3.64	-66.71	3.15	-1.6702	-0.2209	-1.1534	
-0.536312	0.08686399	0.749568	-4.34	-68.04	2.94	-1.6733	-0.2269	-1.155	
-0.48068	0.082472	0.777018	-4.34	-68.95	1.89	-1.6931	-0.2285	-1.1501	
-0.449204	0.074542	0.800442	-3.43	-69.23	1.61	-1.7007	-0.2196	-1.1452	
-0.42883	0.074298	0.830332	-3.71	-68.25	1.4	-1.7037	-0.2286	-1.1499	
-0.415776	0.076982	0.84729	-3.92	-67.62	0.98	-1.7294	-0.2244	-1.1493	
-0.39345	0.062342	0.875228	-4.69	-66.22	1.4	-1.737	-0.2334	-1.1539	
-0.37332	0.060268	0.899628	-5.04	-63.84	2.38	-1.7494	-0.2318	-1.1415	
-0.353068	0.056364	0.901824	-4.27	-62.93	3.01	-1.7597	-0.2306	-1.1534	
-0.320006	0.056364	0.903776	-3.43	-62.37	3.57	-1.7751	-0.2291	-1.1425	
-0.293166	0.049166	0.93086	-3.08	-60.76	3.71	-1.7748	-0.2264	-1.153	
-0.28304	0.05002	0.936716	-1.26	-58.66	3.36	-1.7914	-0.2251	-1.1572	
-0.268522	0.04819	0.953064	-0.07	-55.72	2.59	-1.7994	-0.2263	-1.1374	
-0.241072	0.044042	0.962458	-0.14	-55.09	2.38	-1.8114	-0.2281	-1.1463	
-0.216672	0.049044	0.973804	0.56	-52.43	1.96	-1.8205	-0.2192	-1.1414	
-0.203984	0.052094	0.97966	0.91	-50.68	2.66	-1.8297	-0.2191	-1.1322	
-0.183244	0.061244	0.992226	1.05	-47.81	3.08	-1.8389	-0.2281	-1.1307	
-0.155672	0.061732	1.010404	0.28	-44.52	3.43	-1.8493	-0.2239	-1.1425	
-0.138836	0.062464	1.038586	-1.05	-40.67	3.57	-1.8448	-0.2297	-1.1396	
-0.122854	0.066246	1.036634	0.35	-37.59	3.22	-1.8554	-0.2135	-1.1346	
-0.10675	0.067588	1.04859	-0.35	-33.53	2.1	-1.8586	-0.2268	-1.1333	
-0.0976	0.07747	1.043222	-0.49	-31.15	1.4	-1.8813	-0.2345	-1.136	
-0.089792	0.076372	1.040416	-0.91	-28.7	0.91	-1.8828	-0.2271	-1.1358	
-0.077592	0.074054	1.047126	-1.68	-24.99	0.28	-1.8858	-0.2226	-1.1312	
-0.071126	0.0732	1.057374	-2.52	-22.96	0	-1.8706	-0.2136	-1.1313	
-0.069662	0.072468	1.053592	-2.52	-20.93	0.07	-1.8935	-0.2212	-1.128	
-0.059048	0.069662	1.056398	-3.15	-19.67	0.28	-1.8799	-0.2269	-1.1253	
-0.046604	0.069296	1.059814	-3.08	-17.57	0.42	-1.889	-0.2166	-1.1204	
-0.043798	0.063928	1.057496	-3.15	-14.91	0.63	-1.9011	-0.2212	-1.1248	
-0.041602	0.06161	1.051274	-3.01	-12.95	1.05	-1.8889	-0.2211	-1.1281	
-0.044164	0.05795	1.04371	-2.24	-10.22	1.26	-1.889	-0.227	-1.1267	
-0.056608	0.05734	1.040172	-2.31	-8.82	1.33	-1.9073	-0.2241	-1.1202	
-0.05917	0.061122	1.039928	-2.38	-6.86	1.54	-1.9028	-0.2284	-1.1174	
-0.064904	0.060024	1.040294	-1.96	-4.97	1.4	-1.9084	-0.22	-1.1367	
-0.067588	0.054656	1.03944	-1.19	-2.8	1.05	-1.9118	-0.2168	-1.12	
-0.061732	0.051972	1.047614	-0.91	-0.28	0.77	-1.9058	-0.2181	-1.1171	
-0.055632	0.057462	1.053226	-0.56	2.38	0.56	-1.9087	-0.2212	-1.1247	
-0.055754	0.06734399	1.053958	-0.07	4.48	0.77	-1.8996	-0.2256	-1.1249	
-0.055754	0.07625	1.048712	0.56	6.86	1.05	-1.9011	-0.2152	-1.1217	
-0.044408	0.058926	1.055788	-0.35	9.73	1.05	-1.9042	-0.2212	-1.1217	
-0.034404	0.060878	1.061156	-0.42	12.67	0.63	-1.9011	-0.2168	-1.1247	
-0.031842	0.065514	1.068598	-0.84	16.1	0.28	-1.9028	-0.2285	-1.1189	
-0.039284	0.066368	1.063718	-0.42	19.04	0.21	-1.8996	-0.2167	-1.1217	
-0.04758	0.062586	1.057008	0.42	21.84	0.07	-1.895	-0.2166	-1.1218	
-0.051484	0.058926	1.05469	-0.35	25.34	-0.35	-1.8889	-0.2226	-1.1311	
-0.06039	0.057706	1.052128	0.28	28.42	-0.84	-1.8889	-0.2107	-1.1218	
-0.075274	0.059902	1.044442	0.63	31.29	-1.12	-1.8844	-0.221	-1.1266	
-0.088816	0.059414	1.036756	0.84	34.72	-1.4	-1.8693	-0.2268	-1.124	
-0.102358	0.057218	1.027972	1.05	37.66	-1.61	-1.8708	-0.2164	-1.1238	
