Sensor string: E
Serial number: 1970-01-0000
Firmware version: 2,015
Hardware version: 2,2
Calibration quality: 5
ax	ay	az	gx	gy	gz	mx	my	mz

-1.013576	0.123098	-0.054778	-0.35	0.84	-0.91	0.4134	-0.0061	-0.222	Reference
-1.004914	0.123464	-0.058316	-0.35	0.14	-0.91	0.4177	-0.0031	-0.2189	
-1.005524	0.122122	-0.058682	0.07	0.21	-0.7	0.4133	-0.0046	-0.2204	
-1.00711	0.122366	-0.058804	0.49	0.35	-0.42	0.422	-0.0016	-0.2204	
-1.007598	0.122732	-0.058682	-0.28	-0.28	-0.42	0.4191	-0.0092	-0.2129	
-1.00467	0.12688	-0.060634	0.84	-0.21	-0.63	0.4191	-0.0077	-0.2174	
-1.00467	0.12871	-0.059536	0.63	-0.07	-0.42	0.4163	-0.0077	-0.2205	
-1.006866	0.125416	-0.059048	-0.84	-0.98	-0.21	0.4292	-0.0032	-0.2205	
-1.00772	0.124928	-0.06405	-0.56	-1.33	-0.21	0.4133	0.0014	-0.2188	
-1.010892	0.126026	-0.072346	-1.61	-2.59	-0.42	0.4249	-0.0093	-0.2159	
-1.01992	0.130418	-0.080032	-1.4	-3.29	-0.42	0.4177	-0.0078	-0.2281	
-1.028582	0.128832	-0.086498	-2.45	-4.48	-0.77	0.4163	-0.0077	-0.222	
-1.041514	0.125538	-0.088328	-1.68	-3.71	-0.84	0.4104	-0.003	-0.2219	
-1.038708	0.127856	-0.085034	-0.77	-3.15	-0.91	0.4104	-0.0015	-0.2219	
-1.0309	0.130906	-0.077226	-0.63	-4.48	-0.49	0.4148	-0.0061	-0.2204	
-1.025776	0.127368	-0.074054	-2.31	-6.51	-0.14	0.4162	0.0029	-0.2265	
-1.016016	0.130906	-0.07686	-4.06	-10.22	-0.35	0.4148	-0.0031	-0.2235	
-1.016382	0.123464	-0.070516	-0.84	-13.02	-0.7	0.4191	-0.0032	-0.2265	
-1.028704	0.12261	-0.059658	0.84	-16.31	-1.68	0.4147	0.0014	-0.2265	
-1.094706	0.115168	-0.066002	1.89	-18.97	-1.33	0.412	-0.0062	-0.2311	
-0.9882	0.135908	-0.06222	10.36	-22.12	-3.5	0.4089	0.0075	-0.2355	
-1.044076	0.127368	-0.044286	-7.7	-19.95	-3.36	0.4089	0.0106	-0.2294	
-1.023458	0.142252	-0.054412	-1.33	-21.77	-4.27	0.4165	-0.017	-0.2419	
-1.027362	0.128466	-0.028914	-5.39	-22.33	-3.85	0.4075	0.0059	-0.2447	
-1.002108	0.13237	0.019276	9.1	-29.54	-5.81	0.409	0.0074	-0.2447	
-1.03273	0.126636	0.025498	7.14	-42.84	-7.21	0.3961	-0.0046	-0.2463	
-1.036512	0.11529	0.005246	6.23	-47.6	-6.79	0.3931	0.0029	-0.2569	
-1.02663	0.126026	0.00366	11.41	-46.06	-7.35	0.386	-0.0001	-0.2645	
-1.029558	0.11712	0.019764	1.19	-46.55	-7.35	0.3947	0.0042	-0.2736	
-1.023702	0.119194	0.025742	7.84	-44.73	-7.56	0.3845	0.0058	-0.2827	
-1.028704	0.114436	0.042212	0.28	-45.43	-6.93	0.3816	0.0074	-0.2842	
-1.01565	0.103944	0.085278	5.67	-46.06	-4.76	0.3743	0.0135	-0.2872	
-1.029924	0.115656	0.065392	0.7	-47.04	-6.58	0.3761	-0.0018	-0.3056	
-1.006744	0.091866	0.07686	-0.28	-50.68	-6.16	0.373	0.0058	-0.2979	
-1.03639	0.104188	0.136762	6.09	-49.77	-6.86	0.3613	0.0181	-0.3069	
-1.019798	0.099552	0.149816	5.6	-64.4	-8.19	0.3514	0.0043	-0.3237	
-0.909022	0.116632	0.162382	11.27	-60.34	-6.65	0.3472	0.0013	-0.3268	
-1.022726	0.08662	0.143472	-9.66	-61.11	-4.27	0.3413	0.015	-0.3373	
-0.980392	0.104554	0.105896	12.04	-52.64	-6.65	0.334	0.0151	-0.3403	
-1.029558	0.068686	0.216794	-4.97	-43.54	-4.06	0.3399	0.0058	-0.3435	
-0.919636	0.086376	0.382226	26.39	-56.28	-12.25	0.3269	0.012	-0.3525	
-1.007476	0.050874	0.267302	-28.91	-89.74	-0.42	0.3183	0.0075	-0.3556	
-0.96502	0.09882	0.085156	30.45	-79.31	-11.48	0.3125	0.0105	-0.3693	
-0.941962	0.008296	0.324886	-3.36	-48.37	-3.08	0.2981	0.0121	-0.3814	
-0.978684	0.0732	0.443592	16.24	-63.49	-5.6	0.2952	0.0136	-0.3844	
-0.86986	0.051972	0.396134	-0.21	-87.22	-2.73	0.2808	0.0031	-0.389	
-1.003328	0.021716	0.262544	-12.67	-79.17	-0.42	0.2692	0.0108	-0.398	
-0.911584	0.083082	0.43554	29.54	-60.55	-7.49	0.2648	0.0138	-0.4041	
-0.84912	0.033672	0.612684	2.1	-80.99	-2.52	0.2563	0.0047	-0.4056	
-0.814228	0.030378	0.35563	-8.47	-93.45	-3.92	0.2578	0.0076	-0.4239	
-0.804346	0.05002	0.410286	6.58	-65.52	-3.64	0.226	-0.0025	-0.4147	
-0.79178	0.01464	0.618906	10.43	-57.82	-6.3	0.2215	0.0141	-0.4298	
-0.761402	0.074298	0.600118	4.13	-79.17	-5.39	0.2158	0.007999999	-0.4405	
-0.68625	0.019154	0.443958	-23.03	-64.75	6.79	0.1868	0.0084	-0.4357	
-0.714676	0.101138	0.56059	20.23	-33.81	-3.57	0.1942	0.0066	-0.4495	
-0.73871	0.009028	0.863394	-25.76	-47.39	7.14	0.1885	-0.0009	-0.4572	
-0.765672	0.034892	0.58255	-11.62	-85.82	-3.08	0.1739	0.0068	-0.454	
-0.686006	0.077592	0.504348	9.8	-53.27	-6.16	0.1594	0.01	-0.46	
-0.65819	0.066246	0.858758	-11.27	-39.83	-0.21	0.1536	0.0131	-0.4615	
-0.64477	0.037332	0.671976	-3.78	-64.47	-2.94	0.1492	0.0147	-0.4614	
-0.665388	0.068198	0.675026	0.84	-50.68	-5.11	0.1348	0.0132	-0.4751	
-0.658068	0.0305	0.795806	-10.08	-40.18	-1.96	0.1319	0.0119	-0.4598	
-0.651236	0.036966	0.803858	0.98	-52.22	-5.53	0.1246	0.0195	-0.4704	
-0.60573	0.04941	0.684664	-2.66	-48.72	-4.69	0.1088	0.0059	-0.4705	
-0.595116	0.030866	0.805322	-4.55	-31.5	-2.87	0.1144	0.0212	-0.4704	
-0.606462	0.012688	0.819596	-6.3	-35	-3.36	0.1029	0.0198	-0.4703	
-0.571326	0.01708	0.752618	-8.19	-33.67	-1.26	0.0986	0.0137	-0.4749	
-0.6039	0.01525	0.831674	-0.42	-22.96	-2.94	0.09999999	0.0198	-0.4764	
-0.574986	0.037088	0.828258	-0.91	-28.98	-2.59	0.0913	0.0229	-0.4839	
-0.577182	0.020496	0.806542	-0.28	-21.77	-1.47	0.08989999	0.0169	-0.4733	
-0.577304	0.01281	0.87657	-0.14	-14.07	-1.82	0.0797	0.0185	-0.4748	
-0.562298	0.023668	0.837164	-2.24	-15.82	-1.54	0.0913	0.0199	-0.4763	
-0.546072	0.014762	0.882792	1.12	-3.71	-2.52	0.0739	0.0246	-0.4808	
-0.542534	0.015128	0.868274	0.35	-3.01	-2.45	0.084	0.0261	-0.4747	
-0.543144	0.01159	0.860344	2.24	3.5	-3.08	0.0797	0.0215	-0.4808	
-0.541314	0.011102	0.865956	4.41	9.38	-3.43	0.084	0.026	-0.4808	
-0.533628	0.021594	0.87413	5.04	14.07	-3.36	0.0783	0.0169	-0.4809	
-0.532408	0.01586	0.83753	3.85	19.25	-2.8	0.0783	0.0215	-0.4778	
-0.537288	0.01464	0.862296	3.78	29.47	-2.1	0.08989999	0.0214	-0.4778	
-0.533872	0.010126	0.845338	2.73	36.26	-2.03	0.0913	0.0183	-0.4779	
-0.54473	0.007564	0.826184	0.07	43.12	-1.75	0.1028	0.0274	-0.4687	
-0.560102	0.02501	0.81862	1.61	50.4	-1.33	0.09999999	0.0183	-0.4718	
-0.577548	0.022082	0.794464	3.15	56.28	-1.12	0.113	0.0227	-0.4703	
-0.554002	0.0183	0.776286	-3.71	63.42	-1.47	0.1144	0.0243	-0.4673	
-0.598532	0.038064	0.7381	6.44	67.41	-0.84	0.1318	0.018	-0.4628	
-0.614026	0.027938	0.716994	-4.76	73.78	-0.35	0.139	0.0209	-0.4644	
-0.63257	0.02379	0.66246	-2.03	80.08	-0.84	0.1521	0.0163	-0.4508	
-0.682712	0.03721	0.644648	0.49	86.52	-1.26	0.1695	0.0161	-0.4539	
-0.686128	0.00549	0.615612	-16.8	90.93	1.75	0.1868	0.022	-0.4524	
-0.714798	0.032208	0.583648	-9.73	93.1	0.77	0.1867	0.0221	-0.4448	
-0.777262	0.032086	0.538996	-16.73	90.37	4.06	0.2156	0.0248	-0.4357	
-0.762988	-0.101138	0.485438	-23.24	102.76	1.26	0.2328	0.0354	-0.4235	
-0.795318	0.09089	0.420656	6.65	111.58	-4.27	0.2401	0.0293	-0.4145	
-0.824842	-0.026718	0.490562	-25.97	112.14	3.78	0.2559	0.0384	-0.4084	
-0.840946	0.024522	0.42578	-19.74	98.77	4.41	0.2718	0.0383	-0.3978	
-0.826916	-0.000854	0.327814	-36.47	93.52	10.29	0.2731	0.0399	-0.3886	
-0.898286	0.00305	0.259982	-17.57	100.03	9.03	0.2948	0.0443	-0.375	
-0.908778	0.000366	0.236802	-7.91	116.83	9.8	0.3005	0.0459	-0.3628	
-0.940376	0.013054	0.263398	16.45	116.62	6.93	0.3295	0.0364	-0.3523	
-0.931958	0.034282	0.267302	-21.7	101.43	16.24	0.3395	0.041	-0.3386	
-0.963068	0.018666	0.198494	-19.46	91.49	17.57	0.3409	0.0427	-0.3203	
-0.985638	0.046726	0.11529	-12.39	93.94	17.99	0.3553	0.0441	-0.3158	
-0.987956	0.05978	0.068808	-5.6	101.29	18.9	0.364	0.041	-0.3052	
-0.991982	0.06734399	0.034038	-7.42	106.33	20.44	0.3742	0.0273	-0.287	
-0.941352	0.08052	-0.004148	4.55	112.56	25.83	0.3813	0.0319	-0.2718	
-0.948794	0.114802	-0.028304	7.63	92.26	26.67	0.3943	0.0334	-0.2627	
-1.014796	0.073566	0.002318	7.07	80.99	25.76	0.3986	0.0258	-0.2491	
-0.990152	0.119072	-0.08784	-11.9	27.58	21.63	0.4117	0.0181	-0.2416	
-1.11813	0.07015	-0.155062	47.53	36.89	4.34	0.4102	0.0182	-0.2309	
-1.041148	0.150548	-0.158844	43.33	63.77	14.63	0.4117	0.0076	-0.2188	
-1.03029	0.100284	-0.18727	10.08	66.92	15.89	0.4176	0.0029	-0.2204	
-1.059082	0.137128	-0.248392	17.01	73.57	17.36	0.4189	0.0076	-0.202	
-1.082994	0.116266	-0.262422	10.08	84.7	16.1	0.4306	-0.0076	-0.1885	
-1.054934	0.11773	-0.260958	23.31	84.49	12.6	0.4292	-0.0151	-0.1779	
-1.064694	0.111752	-0.258152	18.76	68.32	12.25	0.4378	-0.0136	-0.1688	
-1.046394	0.114436	-0.312564	17.57	59.08	13.65	0.4422	-0.0197	-0.1612	
-1.012478	0.132858	-0.332572	20.3	61.18	14.21	0.4449	-0.0105	-0.155	
-0.999058	0.135176	-0.330376	13.58	62.37	13.93	0.4522	-0.0196	-0.1353	
-1.11691	0.15616	-0.34038	8.12	46.34	11.27	0.4449	-0.0134	-0.1352	
-0.95465	0.139446	-0.336842	22.12	46.2	13.23	0.4478	-0.0225	-0.1277	
-1.012966	0.18605	-0.355264	19.11	35.98	10.64	0.4507	-0.0224	-0.1125	
-0.971486	0.161162	-0.3477	8.05	29.68	8.47	0.4507	-0.0286	-0.1141	
-0.984052	0.165798	-0.346358	11.62	27.02	5.25	0.4434	-0.0237	-0.09869999	
-0.984052	0.164578	-0.346358	7.63	19.11	2.8	0.455	-0.027	-0.1003	
-0.959652	0.142496	-0.377468	1.19	15.68	2.38	0.4493	-0.0314	-0.0973	
-0.9394	0.134688	-0.37881	10.57	25.48	0.77	0.4536	-0.0299	-0.0927	
-0.951356	0.130174	-0.39772	14.21	21	0.28	0.4594	-0.033	-0.0913	
-0.945744	0.129198	-0.40077	6.65	11.9	-3.5	0.455	-0.0345	-0.0851	
-0.958798	0.154452	-0.41602	-6.86	5.53	-4.97	0.455	-0.033	-0.0928	
-0.964288	0.150914	-0.415654	6.02	14.35	1.4	0.4507	-0.0345	-0.09119999	
-0.96685	0.13725	-0.38186	-9.8	14.77	2.1	0.4579	-0.0314	-0.0806	
-0.979294	0.135298	-0.356484	8.4	10.64	5.46	0.4621	-0.0223	-0.0835	
-0.967216	0.142374	-0.356362	2.03	3.57	5.04	0.4536	-0.036	-0.0852	
-0.95282	0.148962	-0.371124	5.6	0.91	3.71	0.4594	-0.0361	-0.0867	
-0.965386	0.147986	-0.383446	5.88	-0.84	4.55	0.4506	-0.0297	-0.0775	
-0.980392	0.144692	-0.386496	7	-3.92	3.78	0.4565	-0.0375	-0.0791	
-0.988322	0.151524	-0.375394	8.68	-7.14	3.64	0.4521	-0.0359	-0.0806	
-0.976488	0.154086	-0.371612	7.7	-10.57	1.96	0.4506	-0.0313	-0.08199999	
-0.953674	0.165676	-0.385886	5.95	-16.38	1.75	0.4521	-0.0344	-0.0836	
-0.964776	0.158966	-0.386008	2.52	-16.8	1.47	0.4536	-0.0315	-0.0958	
-0.966606	0.16653	-0.360876	3.08	-15.33	0.63	0.4536	-0.0345	-0.0867	
-0.962336	0.160552	-0.348554	-3.22	-20.09	0.28	0.4492	-0.0268	-0.0911	
-0.949404	0.159942	-0.356972	-3.01	-23.24	-0.28	0.4551	-0.0346	-0.0958	
-0.944036	0.171532	-0.351848	-0.91	-21.7	-0.14	0.4522	-0.0346	-0.108	
-0.986004	0.1708	-0.343918	-5.25	-22.75	0.21	0.4537	-0.0362	-0.1096	
-0.997838	0.154086	-0.3355	-8.96	-26.04	-0.7	0.4494	-0.0362	-0.1172	
-0.991982	0.16165	-0.338672	-9.03	-31.36	-3.15	0.4479	-0.0301	-0.1217	
-0.989054	0.172142	-0.332694	-10.08	-31.08	-5.39	0.4436	-0.0361	-0.1171	
-1.002962	0.180072	-0.319762	-11.34	-31.64	-6.09	0.4494	-0.0272	-0.1308	
-1.010648	0.17019	-0.305	-18.97	-37.8	-5.32	0.4479	-0.0287	-0.1293	
-0.992836	0.153598	-0.293532	-23.45	-47.46	-4.9	0.4436	-0.0272	-0.146	
-0.999912	0.140178	-0.279014	-23.87	-49.42	-4.27	0.4393	-0.0286	-0.1384	
-1.014186	0.131882	-0.260958	-16.38	-46.62	-5.18	0.4365	-0.0303	-0.1537	
-1.01748	0.145668	-0.24644	-9.66	-52.43	-6.44	0.4408	-0.0198	-0.1719	
-1.014796	0.137006	-0.24583	-14	-61.81	-7.28	0.4422	-0.0137	-0.1718	
-1.012234	0.132492	-0.235948	-12.39	-65.94	-8.05	0.435	-0.0152	-0.1855	
-0.993568	0.142618	-0.186172	-9.45	-61.74	-7.84	0.4394	-0.0169	-0.1932	
-1.043222	0.144814	-0.179462	-7.7	-63.35	-9.59	0.4264	-0.0153	-0.2023	
-1.03883	0.144692	-0.167018	-8.33	-62.86	-10.01	0.4235	-0.0123	-0.2099	
-1.05347	0.123586	-0.15799	-2.03	-63	-8.05	0.415	-0.0229	-0.216	
-1.045296	0.118584	-0.13237	1.12	-60.41	-6.51	0.4163	-0.0077	-0.2235	
-1.02419	0.116022	-0.09357399	1.47	-64.05	-6.23	0.4135	-0.0063	-0.2433	
-1.031998	0.132736	-0.066246	-1.05	-70.63	-6.51	0.4078	-0.0154	-0.2434	
-1.029802	0.13054	-0.063562	-0.56	-74.06	-6.23	0.3976	-0.0047	-0.2585	
-0.985272	0.135298	-0.055266	-12.6	-67.41	-3.01	0.3846	-0.0032	-0.2721	
-0.997106	0.117364	-0.040626	-11.13	-44.94	-1.05	0.3818	-0.0063	-0.2813	
-0.990396	0.109434	-0.042822	4.2	-16.24	2.45	0.3847	-0.0064	-0.2874	
-0.94733	0.109556	0.085766	9.24	-28.56	0.84	0.3845	0.0043	-0.2766	
-1.064816	0.088084	0.231678	-2.66	-72.38	-4.27	0.3774	-0.0002	-0.2965	
-1.015772	0.058438	0.18117	12.04	-95.62	-6.23	0.3659	-0.0017	-0.304	
-1.006378	0.10614	0.102968	0.42	-113.61	-3.29	0.35	-0.0001	-0.3207	
-0.966972	0.080642	0.100894	12.81	-88.9	-3.43	0.3486	-0.0002	-0.3253	
-0.91561	0.116754	0.18361	6.86	-67.41	-3.15	0.34	-0.0017	-0.339	
-0.966484	0.099308	0.219722	12.39	-68.11	-1.19	0.3343	-0.0093	-0.339	
-0.913414	0.108458	0.357826	-6.93	-58.73	-2.45	0.3242	-0.0062	-0.3496	
-0.96136	0.102846	0.366	0.63	-81.13	-4.97	0.3183	0.0013	-0.3602	
-0.878644	0.090036	0.282796	-11.97	-88.41	-3.78	0.3083	-0.0062	-0.3679	
-0.902312	0.09577	0.244488	2.8	-70.91	-5.53	0.2938	0.0015	-0.3753	
-0.870226	0.087596	0.386252	5.6	-56.98	-5.25	0.2851	0.0046	-0.3844	
-0.813984	0.066978	0.463112	-0.98	-71.89	-5.04	0.2823	-0.0013	-0.3784	
-1.015894	0.015006	0.386984	-4.34	-71.47	-7	0.2751	0.003	-0.4057	
-0.688568	0.201422	0.57218	64.61	-71.4	-21	0.2562	0.0048	-0.3995	
-0.753838	0.152988	0.443592	-6.23	-102.62	-2.38	0.2564	-0.0074	-0.4057	
-0.792024	-0.006222	0.341722	-58.24	-87.15	10.78	0.2289	-0.0087	-0.4163	
-0.777262	0.133712	0.31659	65.17	-35.49	-12.04	0.2203	-0.0042	-0.4345	
-0.753716	0.063684	0.82655	-5.11	-28.14	2.87	0.2174	-0.0057	-0.4345	
-0.897676	0.061244	0.607682	-13.16	-70.98	-0.84	0.2116	-0.0026	-0.4375	
-0.713944	0.153964	0.575596	9.38	-89.39	1.47	0.2058	0.0018	-0.4557	
-0.693204	-0.019764	0.552294	-29.05	-55.51	5.25	0.1885	-0.0039	-0.445	
-0.697108	0.09552599	0.528748	7.07	-40.04	-5.46	0.1856	0.0006	-0.4511	
-0.686982	0.13237	0.733952	8.54	-29.12	-0.21	0.1899	0.0036	-0.4511	
-0.736758	0.08686399	0.760304	-23.94	-53.34	6.65	0.1682	-0.0021	-0.448	
-0.691862	0.016226	0.649284	-12.32	-57.12	0.7	0.174	0.0007	-0.4541	
-0.696376	0.077592	0.675148	7.63	-42.49	-4.06	0.1523	0.004	-0.46	
-0.662704	0.095038	0.73017	2.94	-39.55	-1.68	0.1523	0.0009	-0.4631	
-0.69479	0.073566	0.709552	-13.09	-33.81	1.19	0.1435	0.0102	-0.463	
-0.636962	0.064904	0.775676	-3.08	-32.83	-1.96	0.1465	-0.0004	-0.46	
-0.626958	0.068076	0.761524	1.89	-32.97	-6.16	0.1291	0.0088	-0.4675	
-0.600972	0.06283	0.779336	-6.79	-18.69	-3.43	0.1275	0.018	-0.4643	
-0.615612	0.06222	0.817156	-4.13	-14.28	-3.92	0.1218	0.0088	-0.472	
-0.604876	0.062342	0.802882	-0.98	-13.02	-5.04	0.1349	0.0087	-0.4721	
-0.599386	0.046116	0.798368	-3.85	-5.81	-5.39	0.129	0.0119	-0.4629	
-0.58804	0.035014	0.822036	-3.22	1.4	-5.81	0.116	0.015	-0.4765	
-0.592066	0.032208	0.826672	0.21	5.11	-5.88	0.1118	0.0044	-0.472	
-0.588894	0.04087	0.82167	4.48	10.5	-6.3	0.1306	0.0072	-0.4751	
-0.585844	0.038186	0.80398	3.22	16.45	-5.88	0.1204	0.0058	-0.4705	
-0.575596	0.041236	0.797514	3.71	23.73	-5.18	0.1233	0.0133	-0.4796	
-0.597068	0.015006	0.782142	-6.58	33.11	-3.85	0.1319	0.0103	-0.466	
-0.595726	0.04758	0.77226	5.53	40.74	-3.85	0.1479	0.0116	-0.4676	
-0.622932	0.042578	0.7625	-2.38	46.9	-2.8	0.1479	0.0071	-0.4584	
-0.637816	0.042944	0.728462	-2.31	52.29	-2.94	0.1593	0.0177	-0.4599	
-0.656116	0.026596	0.695888	-1.96	59.08	-3.29	0.1666	0.0131	-0.4448	
-0.67222	0.043798	0.698206	-4.06	61.88	-2.38	0.1681	0.01	-0.4478	
-0.696498	0.034526	0.641842	2.38	65.31	-3.57	0.1796	0.0145	-0.4479	
-0.70089	0.02623	0.609268	-4.34	72.03	-2.52	0.1911	0.022	-0.4417	
-0.734074	0.038918	0.592554	-1.96	78.12	-2.31	0.197	0.009699999	-0.4388	
-0.753472	0.04148	0.559004	-11.48	79.52	-2.59	0.2186	0.0172	-0.4343	
-0.793	0.052216	0.487512	-26.95	78.68	1.12	0.2143	0.0142	-0.4313	
-0.802394	0.010126	0.433832	-2.73	92.33	-5.74	0.2387	0.0232	-0.4176	
-0.82411	0.060146	0.44286	-5.88	99.33	-3.71	0.2489	0.0155	-0.4116	
-0.837652	0.018788	0.448472	-18.76	94.15	-2.1	0.2545	0.0277	-0.4024	
-0.901824	0.027694	0.372222	-25.34	85.68	1.61	0.2748	0.0275	-0.3979	
-0.836432	0.026962	0.295972	-12.32	84.84	3.08	0.2778	0.0168	-0.3904	
-0.89121	0.03172	0.267424	-19.95	97.51	2.94	0.2949	0.0321	-0.3735	
-0.936594	-0.015982	0.26596	-13.65	101.43	5.95	0.3049	0.0351	-0.3614	
-0.949404	-0.002196	0.245098	9.52	104.09	1.68	0.3223	0.0319	-0.3584	
-0.958066	0.063806	0.248148	-10.29	91.49	9.87	0.328	0.0381	-0.3401	
-1.005524	0.02989	0.191662	-24.5	80.64	12.32	0.3541	0.0332	-0.3372	
-0.988444	0.062586	0.104798	-14	81.41	14	0.3569	0.0349	-0.3159	
-0.985272	0.065148	0.06832	-10.5	89.18	14.84	0.3655	0.0349	-0.3083	
-0.97722	0.053192	0.074664	7.28	98.98	15.82	0.3712	0.0335	-0.287	
-0.962824	0.046116	0.10004	5.74	88.83	14.77	0.3799	0.0288	-0.281	
-0.987712	0.05551	0.083082	-3.01	68.95	13.02	0.3815	0.0181	-0.2765	
-0.96258	0.08601	-0.052216	2.24	60.41	17.08	0.3987	0.0257	-0.2628	
-0.999668	0.070028	-0.086742	22.68	65.94	16.31	0.3943	0.0228	-0.2491	
-1.0675	0.105896	-0.083692	24.64	70	15.05	0.406	0.0121	-0.2385	
-1.083604	0.090036	-0.104188	21.98	73.22	14.56	0.4117	0.0136	-0.2355	
-1.078968	0.111752	-0.10309	13.23	72.03	14.91	0.4117	0.0106	-0.2249	
-1.076772	0.1037	-0.131516	16.24	67.62	15.05	0.4175	0.0031	-0.2005	
-1.089582	0.107848	-0.191052	13.72	62.93	12.39	0.4278	-0.0061	-0.2037	
-1.070428	0.119194	-0.241438	21.07	63.63	10.01	0.4291	0.0015	-0.1945	
-1.058472	0.111752	-0.254858	20.93	67.2	8.33	0.4349	-0.0061	-0.1916	
-1.017968	0.104676	-0.260836	13.79	58.31	6.58	0.4363	-0.009	-0.1748	
-1.001864	0.100894	-0.26291	6.72	49	5.04	0.442	-0.0014	-0.1717	
-1.003328	0.107482	-0.274012	12.53	42	4.41	0.4406	-0.0089	-0.1581	
-1.009306	0.108702	-0.276574	13.16	40.25	4.34	0.4362	-0.0088	-0.1535	
-1.0858	0.117364	-0.29463	16.17	30.17	2.1	0.442	-0.0089	-0.1565	
-0.918294	0.084302	-0.292068	15.89	26.25	0.7	0.4494	-0.0212	-0.146	
-0.982954	0.143594	-0.369538	11.41	18.76	-1.19	0.4434	-0.0149	-0.1337	
-0.95831	0.1403	-0.43188	22.19	34.79	3.71	0.458	-0.0151	-0.1414	
-0.964288	0.122122	-0.400892	4.06	51.17	7.14	0.4433	-0.0132	-0.1154	
-1.001498	0.088206	-0.318542	2.38	47.46	5.46	0.4521	-0.0179	-0.1201	
-1.008696	0.119926	-0.331596	5.74	36.54	5.81	0.4432	-0.007	-0.1031	
-0.99247	0.105896	-0.33977	5.95	31.85	6.44	0.452	-0.0223	-0.0957	
-0.991738	0.130174	-0.346968	11.62	33.88	7.28	0.4403	-0.0114	-0.094	
-1.014918	0.147864	-0.324642	10.5	31.15	7.77	0.4491	-0.0161	-0.0941	
-0.971364	0.135054	-0.327936	0.98	18.41	6.58	0.452	-0.0191	-0.0865	
-0.997594	0.127124	-0.345382	10.22	7.21	6.58	0.4462	-0.0221	-0.07889999	
-0.98637	0.126758	-0.33916	4.97	4.55	5.81	0.4548	-0.0191	-0.08199999	
-0.962824	0.116144	-0.32574	4.69	1.26	4.76	0.4506	-0.0298	-0.0881	
-0.97173	0.13298	-0.357704	5.04	-4.9	4.27	0.4548	-0.0176	-0.0835	
-0.968924	0.134078	-0.374784	1.19	-6.93	3.36	0.4534	-0.0207	-0.0865	
-0.969046	0.140544	-0.382348	3.99	-9.17	1.89	0.452	-0.0268	-0.0866	
-0.97478	0.152012	-0.395402	5.46	-13.44	-0.49	0.4477	-0.0313	-0.0851	
-0.968192	0.144204	-0.387472	1.47	-15.82	0.63	0.4535	-0.0268	-0.08199999	
-0.970266	0.154696	-0.364414	-2.87	-17.57	0.56	0.4462	-0.0222	-0.0911	
-0.978684	0.150304	-0.355874	-6.23	-19.18	1.19	0.4521	-0.0208	-0.1048	
-0.974902	0.144814	-0.374662	-6.86	-19.67	1.19	0.4507	-0.0299	-0.0988	
-0.956846	0.130662	-0.374296	-7.21	-19.25	1.26	0.4551	-0.0316	-0.1049	
-0.974536	0.148962	-0.355996	-5.32	-22.89	0.28	0.4478	-0.0299	-0.1003	
-0.986736	0.145912	-0.326594	-10.71	-28.14	-0.98	0.4478	-0.0255	-0.1201	
-0.9943	0.15311	-0.312808	-11.55	-35.98	-3.01	0.4536	-0.0271	-0.1141	
-1.000644	0.14152	-0.310002	-15.33	-40.18	-3.01	0.4422	-0.0377	-0.1187	
-1.004304	0.144692	-0.310246	-10.99	-36.68	-4.48	0.4379	-0.0362	-0.1339	
-1.012844	0.138348	-0.304268	-10.43	-33.46	-3.99	0.4479	-0.0257	-0.1399	
-1.013454	0.12871	-0.29951	-13.93	-42.63	-3.99	0.4465	-0.0241	-0.1353	
-1.023092	0.139446	-0.271572	-14.35	-50.96	-4.83	0.4435	-0.0119	-0.1474	
-1.02785	0.137006	-0.239852	-13.65	-39.48	-3.57	0.4378	-0.0181	-0.1551	
-1.029436	0.140788	-0.238632	-11.34	-41.65	-3.85	0.4305	-0.0134	-0.1611	
-1.037976	0.111752	-0.254614	-21.28	-52.92	-3.08	0.435	-0.0257	-0.1597	
-1.013698	0.12749	-0.25803	-12.25	-57.26	-3.43	0.4379	-0.0198	-0.1764	
-1.02419	0.13542	-0.229238	-8.12	-54.74	-3.08	0.4292	-0.0152	-0.1855	
-1.048712	0.150182	-0.184342	0.84	-62.79	-4.48	0.4263	-0.0121	-0.19	
-1.06994	0.154696	-0.179462	-10.85	-79.8	-7.21	0.4191	-0.0136	-0.1977	
-1.062254	0.127002	-0.174948	-13.09	-83.58	-7.07	0.4119	-0.0105	-0.2052	
-1.058472	0.122366	-0.167506	-8.26	-75.11	-5.53	0.4106	-0.0123	-0.2296	
-1.026264	0.10187	-0.141642	-8.89	-73.57	-5.81	0.3974	-0.0044	-0.2264	
-1.047004	0.141032	-0.098454	-3.92	-79.52	-6.65	0.399	-0.0001	-0.2554	
-1.052006	0.145668	-0.07198	-1.26	-77.77	-8.75	0.3918	-0.0032	-0.2645	
-1.031998	0.14274	-0.076494	-11.2	-72.8	-6.58	0.3847	-0.0048	-0.2798	
-1.023702	0.112972	-0.093818	-25.76	-55.09	-3.08	0.3861	-0.0017	-0.2782	
-1.005036	0.11407	-0.062586	5.53	-36.54	-2.17	0.3761	-0.0078	-0.2919	
-0.922076	0.09357399	0.08052	-8.61	-29.12	-1.68	0.3702	0.0028	-0.2995	
-1.02114	0.095648	0.24949	32.55	-55.58	-7.7	0.3703	-0.0063	-0.295	
-1.036146	0.073078	0.216794	-8.96	-91.07	-2.87	0.3602	-0.0032	-0.3132	
-0.96685	0.112728	0.182512	8.4	-111.93	-3.78	0.3558	0.0073	-0.3253	
-0.966484	0.049776	0.124074	-14.56	-103.88	-4.9	0.3473	-0.0063	-0.3284	
-0.913414	0.149938	0.121024	14.49	-92.19	-2.38	0.3341	0.0074	-0.345	
-0.977708	0.016836	0.236802	-5.11	-75.53	2.52	0.3198	-0.0046	-0.3481	
-0.927444	0.152866	0.433344	27.37	-75.95	-3.15	0.3083	-0.0016	-0.3663	
-0.876692	0.024034	0.475312	-18.34	-93.87	-4.41	0.3025	-0.0015	-0.3708	
-0.964532	0.06039	0.276696	-2.8	-103.53	-7.91	0.2837	0	-0.386	
-0.634522	0.14335	0.456768	50.05	-68.39	-25.48	0.2779	0.0062	-0.3889	
-0.766892	0.228018	0.58743	-11.06	-120.96	-6.37	0.2708	-0.0044	-0.3966	
-0.76372	-0.051118	0.260592	-72.87	-106.89	3.57	0.2533	0.0048	-0.4041	
-0.71309	0.141154	0.1769	59.43	-41.72	-17.15	0.2331	0.0125	-0.4192	
-0.659654	0.11163	0.998448	62.02	-59.64	-11.83	0.2317	0.0065	-0.4162	
-0.719068	-0.033794	0.504836	-92.68	-131.39	16.73	0.2158	0.0035	-0.4329	
-0.676124	0.147376	0.158478	53.69	-75.95	-6.72	0.1927	0.0006	-0.4389	
-0.702598	0.021228	0.832284	3.29	-24.78	4.62	0.1956	0.0036	-0.4404	
-0.71248	0.114436	0.833382	1.26	-64.68	1.05	0.187	0.0006	-0.448	
-0.690398	0.070272	0.521062	-17.5	-84.56	1.89	0.177	-0.0099	-0.4526	
-0.68076	0.086498	0.632326	-7.49	-58.17	4.2	0.1681	0.0054	-0.4494	
-0.693204	0.066246	0.68381	9.17	-44.87	-2.17	0.1508	0.007	-0.4661	
-0.626836	0.106872	0.732366	-14.07	-42.7	3.36	0.1494	-0.0004	-0.457	
-0.705892	0.054534	0.810934	-11.34	-45.15	2.59	0.1407	0.0055	-0.4752	
-0.648064	0.04148	0.740906	-1.54	-56.7	-3.85	0.1377	0.0118	-0.4629	
-0.608658	0.073688	0.749812	4.2	-49.35	-5.39	0.1204	0.0074	-0.4644	
-0.633424	0.070272	0.738954	-11.83	-45.08	0.07	0.1176	0.0013	-0.466	
-0.618174	0.068198	0.744444	-1.19	-31.22	-1.89	0.1117	0.0044	-0.4644	
-0.6161	0.054656	0.854366	-1.61	-25.13	-2.66	0.1073	0.0136	-0.4719	
-0.60817	0.061122	0.834968	-2.94	-32.62	-3.08	0.0915	0.0076	-0.4749	
-0.571204	0.0671	0.78263	-1.4	-28.28	-3.08	0.1059	0.0135	-0.4872	
-0.57523	0.056364	0.841068	1.54	-8.05	-4.62	0.1001	0.0152	-0.4749	
-0.575108	0.042456	0.864248	-4.83	-7	-4.55	0.0944	0.006	-0.4887	
-0.574864	0.042944	0.836432	-4.97	-5.81	-4.2	0.09869999	0.0045	-0.4765	
-0.565714	0.04331	0.834602	1.68	2.59	-5.39	0.0944	0.0076	-0.4795	
-0.557784	0.036234	0.857782	2.03	8.54	-5.67	0.09869999	0.0075	-0.4795	
-0.556442	0.038308	0.855464	0.35	12.11	-5.39	0.0857	0.0047	-0.4704	
-0.55388	0.039528	0.827648	2.1	18.55	-5.18	0.0972	0.0106	-0.4765	
-0.556076	0.035502	0.829234	2.8	27.37	-4.48	0.0988	0.0059	-0.4872	
-0.55144	0.043432	0.834114	-0.77	34.16	-4.48	0.1045	0.0136	-0.481	
-0.57218	0.02989	0.802882	0.28	37.24	-4.13	0.1089	0.0028	-0.4751	
-0.592188	0.036112	0.780556	0.49	44.8	-3.71	0.1159	0.0227	-0.4734	
-0.597556	0.044042	0.777994	2.17	52.78	-3.71	0.1305	0.0087	-0.4705	
-0.614392	0.03843	0.765062	-0.91	56.21	-2.31	0.1218	0.0089	-0.4613	
-0.663802	0.002074	0.705526	-4.2	63.28	-2.45	0.1348	0.0117	-0.4705	
-0.654042	0.077226	0.723704	6.44	67.13	-2.87	0.1536	0.0131	-0.463	
-0.672098	0.00976	0.68259	-5.88	68.67	-1.4	0.1609	0.0084	-0.4676	
-0.677954	0.041968	0.62525	-6.93	71.96	-1.12	0.1681	0.0054	-0.4479	
-0.69967	0.03782	0.600728	-0.42	81.9	-2.1	0.181	0.0145	-0.4418	
-0.73383	0.030134	0.594872	-8.75	88.13	-1.75	0.2013	0.0128	-0.4373	
-0.755302	0.030744	0.548146	-13.23	85.82	-1.75	0.2113	0.0204	-0.4266	
-0.782142	0.027938	0.495442	-16.17	86.45	-1.96	0.2272	0.0188	-0.416	
-0.796782	0.032574	0.453596	-12.67	91	-2.45	0.2402	0.0232	-0.4161	
-0.802272	0.073322	0.482998	-16.31	89.53	1.4	0.2546	0.0262	-0.4039	
-0.81191	-0.080764	0.33733	-71.33	97.65	15.12	0.2689	0.0352	-0.4008	
-0.903166	0.093208	0.248392	85.75	113.61	-17.08	0.2892	0.0289	-0.3919	
-0.854244	0.008662	0.414312	-46.55	122.22	7.7	0.2935	0.029	-0.3736	
-0.902922	-0.002684	0.401624	-3.43	99.68	5.18	0.3151	0.0289	-0.363	
-0.90097	0.038308	0.315126	-28	76.09	6.65	0.3195	0.0289	-0.3554	
-0.928054	0.017812	0.198494	-19.18	73.15	8.54	0.3222	0.0396	-0.3507	
-0.925004	0.0549	0.119194	-5.32	88.34	10.36	0.3237	0.032	-0.3432	
-0.98088	0.03294	0.131272	-16.52	100.03	14.56	0.3482	0.0379	-0.3341	
-0.977342	0.062952	0.128222	-2.17	106.4	15.96	0.3669	0.047	-0.3204	
-0.977586	0.063196	0.12322	-7	105.42	17.64	0.3581	0.0412	-0.2945	
-0.97234	0.044164	0.097234	-13.93	94.78	17.92	0.3828	0.0318	-0.284	
-0.996496	0.086254	0.060024	-2.59	78.61	15.4	0.3915	0.0318	-0.2779	
-0.999424	0.074542	0.023668	-1.82	68.6	13.23	0.3958	0.0287	-0.2734	
-0.997472	0.112606	-0.072224	-0.49	59.29	12.18	0.4014	0.0381	-0.2459	
-1.051396	0.12139	-0.106262	3.57	65.45	10.57	0.403	0.0212	-0.2461	
-1.069574	0.108824	-0.134322	6.86	74.13	11.97	0.4117	0.0212	-0.237	
-1.0797	0.088694	-0.155306	1.4	77.49	14.7	0.416	0.0152	-0.2218	
-1.07543	0.08418	-0.166164	9.66	79.31	10.92	0.4189	0.0137	-0.2127	
-1.043588	0.08784	-0.179218	3.64	77.07	10.15	0.4291	0.006	-0.2067	
-1.044442	0.08295999	-0.221674	1.26	73.22	10.85	0.4347	0.0136	-0.1975	
-1.034682	0.099064	-0.274012	16.52	70.42	10.15	0.4377	0	-0.1824	
-0.992714	0.11773	-0.304024	24.57	70.28	9.03	0.4405	0.0001	-0.1671	
-1.007354	0.120658	-0.328546	23.94	68.67	11.06	0.4375	0.0063	-0.1594	
-1.039562	0.111874	-0.353556	15.12	55.58	11.13	0.442	-0.0074	-0.152	
-0.978684	0.079422	-0.291702	5.32	50.4	9.24	0.4404	-0.0012	-0.1443	
-1.020042	0.132614	-0.31476	35.63	46.06	9.94	0.4477	-0.0043	-0.1428	
-0.978928	0.11407	-0.328668	14.42	45.71	15.75	0.4449	-0.0164	-0.1322	
-0.936106	0.12627	-0.364902	20.79	46.9	12.67	0.4549	-0.0102	-0.1139	
-0.975512	0.130174	-0.382348	19.46	45.5	11.34	0.4549	-0.0164	-0.1124	
-0.976976	0.132126	-0.3904	15.89	44.17	10.85	0.4593	-0.021	-0.1125	
-0.97844	0.116998	-0.38613	11.55	39.83	10.92	0.4506	-0.0222	-0.0911	
-0.97661	0.128222	-0.389424	12.81	38.85	11.13	0.4461	-0.013	-0.0971	
-0.984906	0.125538	-0.396012	13.23	39.27	12.18	0.4564	-0.0268	-0.0805	
-0.950014	0.131394	-0.395646	10.92	30.87	9.1	0.4577	-0.0221	-0.0728	
-0.942328	0.146888	-0.401136	8.26	23.03	6.58	0.4562	-0.0191	-0.0743	
-0.950502	0.13237	-0.397476	0.14	18.13	5.74	0.4534	-0.0297	-0.0653	
-0.954162	0.135542	-0.399672	2.73	15.96	5.39	0.452	-0.0327	-0.0653	
-0.948672	0.137616	-0.39833	4.34	15.4	5.32	0.4477	-0.0327	-0.0683	
-0.937448	0.152378	-0.402478	5.32	11.69	4.27	0.4564	-0.0358	-0.0638	
-0.922686	0.136396	-0.427122	4.06	13.37	4.69	0.4578	-0.0327	-0.0592	
-0.916586	0.150792	-0.429806	5.81	9.38	5.25	0.4593	-0.0343	-0.0638	
-0.928786	0.146156	-0.431026	-1.82	5.18	5.18	0.4563	-0.0312	-0.0592	
-0.935252	0.140788	-0.42029	-4.27	2.31	5.74	0.4679	-0.0344	-0.0578	
-0.925736	0.12871	-0.394182	-5.04	-4.97	3.5	0.4621	-0.0328	-0.0608	
-0.904264	0.0915	-0.360022	-11.76	-21.14	-3.36	0.4608	-0.0405	-0.0669	
-0.921588	0.217404	-0.416874	-1.89	-37.1	-14.49	0.4447	-0.0341	-0.0576	
-0.958066	0.175924	-0.513376	40.32	-7.56	3.99	0.4535	-0.0374	-0.0714	
-0.946598	0.158112	-0.439444	10.15	7.63	6.16	0.4578	-0.0388	-0.0577	
-0.931958	0.152988	-0.370392	6.86	3.22	6.44	0.4549	-0.0357	-0.0577	
-0.945256	0.163236	-0.40809	-5.32	-10.78	4.76	0.4565	-0.0435	-0.0639	
-0.939766	0.155306	-0.41602	-2.66	-3.78	6.51	0.4476	-0.0296	-0.0637	
-0.927322	0.13969	-0.408212	0.21	-0.84	6.58	0.4608	-0.0374	-0.0669	
-0.934764	0.158722	-0.407846	6.65	-4.41	4.76	0.4507	-0.0419	-0.0669	
-0.937814	0.168116	-0.411018	5.39	-7.98	3.92	0.4492	-0.0358	-0.076	
-0.93391	0.178242	-0.401746	4.27	-9.8	5.11	0.4522	-0.0435	-0.0715	
-0.939278	0.182146	-0.385642	-0.14	-13.23	5.88	0.4609	-0.0497	-0.0716	
-0.992226	0.160552	-0.37637	-10.01	-17.43	7.07	0.4508	-0.0436	-0.0852	
-1.01748	0.129442	-0.403942	-16.8	-18.55	9.94	0.4465	-0.0526	-0.0746	
-0.934154	0.124074	-0.372466	-11.48	-21.91	9.45	0.4464	-0.045	-0.076	
-0.927566	0.130174	-0.351604	-10.43	-27.93	6.93	0.4522	-0.042	-0.07759999	
-0.941596	0.1464	-0.354898	-3.85	-26.81	5.81	0.4552	-0.0483	-0.0914	
-0.963556	0.15799	-0.359412	1.96	-28.28	2.38	0.4495	-0.0558	-0.08989999	
-0.951234	0.159332	-0.3477	3.15	-24.22	1.61	0.4466	-0.0589	-0.0914	
-0.957578	0.17263	-0.342576	8.12	-24.92	0.28	0.4596	-0.0469	-0.1051	
-0.958554	0.170922	-0.339526	5.39	-24.43	-0.56	0.4452	-0.0498	-0.1081	
-0.960018	0.180072	-0.336598	16.66	-20.44	-1.05	0.4422	-0.0437	-0.1111	
-0.956358	0.195444	-0.334646	15.89	-17.85	-2.59	0.4466	-0.0484	-0.1112	
-0.951844	0.205814	-0.316712	10.99	-20.16	-1.54	0.4452	-0.0529	-0.1127	
-0.954284	0.191784	-0.304878	1.33	-21.91	-0.98	0.4451	-0.0407	-0.1111	
-0.953674	0.19032	-0.286212	-1.75	-22.89	-2.8	0.4424	-0.0545	-0.1219	
-0.95343	0.181048	-0.279502	-0.84	-24.57	-4.2	0.4523	-0.0348	-0.1233	
-0.97356	0.182146	-0.288408	2.8	-28.28	-7.84	0.4511	-0.0501	-0.131	
-0.96319	0.193858	-0.293288	5.32	-28.49	-10.78	0.4438	-0.047	-0.131	
-0.950868	0.208986	-0.2806	6.65	-22.19	-12.53	0.4438	-0.047	-0.1355	
-0.956602	0.21472	-0.26779	1.82	-13.65	-13.51	0.435	-0.0377	-0.1324	
-0.96075	0.218258	-0.257786	0.84	-8.4	-15.26	0.4468	-0.0472	-0.1493	
-0.993934	0.214842	-0.244732	-11.2	-6.86	-16.87	0.4525	-0.0425	-0.134	
-1.000888	0.22021	-0.235582	-16.94	-0.49	-18.83	0.4394	-0.0348	-0.14	
-0.950868	0.220698	-0.221186	-27.44	-2.1	-22.33	0.4496	-0.0365	-0.1538	
-0.96502	0.204838	-0.206424	-45.71	-11.62	-26.88	0.4479	-0.0212	-0.1475	
-1.00406	0.19093	-0.222894	-43.96	-8.61	-28.21	0.4407	-0.0196	-0.1475	
-1.008696	0.205936	-0.23302	-48.58	-8.12	-30.38	0.4406	-0.0104	-0.1489	
-0.99491	0.209352	-0.250588	-61.74	-8.19	-30.66	0.4405	0.0017	-0.1534	
-0.95221	0.14823	-0.333426	-41.58	6.02	-24.36	0.4434	0.0032	-0.158	
-0.949648	0.089426	-0.336476	-40.39	33.74	-25.34	0.4434	0.0016	-0.1595	
-1.013698	0.05185	-0.133346	-70.35	24.22	-30.52	0.4418	0.0079	-0.1427	
-1.003694	0.016226	-0.118218	-90.02	-10.08	-30.45	0.446	0.0201	-0.138	
-1.005646	0.031232	-0.229116	-87.64	-18.83	-26.88	0.4457	0.04	-0.1393	
-0.99491	0.003782	-0.309392	-77.42	0	-26.53	0.44	0.0354	-0.1439	
-0.99064	0.019154	-0.291458	-60.27	13.16	-28.42	0.4399	0.0477	-0.1408	
-0.999424	-0.019398	-0.224114	-69.23	9.87	-25.9	0.4427	0.0492	-0.1377	
-0.985394	-0.060512	-0.218502	-53.13	2.8	-25.76	0.4367	0.0601	-0.1223	
-0.980392	0.001464	-0.240218	-45.01	1.89	-24.85	0.447	0.0568	-0.1346	
-0.974414	0.025376	-0.244854	-24.08	2.03	-7.84	0.4454	0.0691	-0.1315	
-0.946354	-0.05429	-0.16409	-40.04	-23.17	-16.87	0.438	0.07539999	-0.1283	
-1.023336	0.010248	-0.231922	-23.8	-19.46	-21.42	0.4394	0.0875	-0.1358	
-0.98149	-0.004392	-0.244854	-27.86	-10.99	-15.75	0.4336	0.0876	-0.1389	
-0.944524	0.005124	-0.210328	-15.47	-10.64	-11.2	0.4363	0.0998	-0.1372	
-0.956358	0.019276	-0.16592	-5.53	-8.33	-6.93	0.4452	0.0889	-0.1389	
-0.989176	0.052216	-0.169824	0.42	-11.06	-3.5	0.4392	0.1073	-0.1509	
-1.020164	0.05246	-0.179828	-16.59	-14.14	-4.9	0.4408	0.0966	-0.1449	
-0.996374	0.027938	-0.177632	-17.78	-9.8	-3.01	0.435	0.0967	-0.1449	
-0.972584	0.010248	-0.157014	-12.39	-4.97	-2.87	0.4292	0.09959999	-0.1631	
-0.978684	0.010736	-0.139934	-12.32	-11.41	-2.1	0.4349	0.1042	-0.154	
-0.980026	0.006588	-0.150304	-11.27	-15.05	-0.56	0.4335	0.0967	-0.1464	
-0.992226	0.00732	-0.14457	-10.36	-13.58	0.7	0.4322	0.0904	-0.1617	
-0.983076	-0.007076	-0.12688	-11.48	-14.42	2.17	0.4364	0.1041	-0.1631	
-0.969534	-0.019642	-0.103944	-14.35	-12.11	5.11	0.4321	0.0951	-0.1556	
-0.991128	-0.0244	-0.110898	-19.67	-14.49	5.81	0.4321	0.0966	-0.1571	
-0.978928	-0.024034	-0.146278	-16.17	-15.61	7.21	0.4335	0.1011	-0.1586	
-0.974414	-0.021472	-0.137494	-5.39	-9.52	9.59	0.4336	0.1011	-0.1616	
-0.97783	-0.008296	-0.09821	6.79	-5.95	10.43	0.4337	0.0919	-0.1663	
-0.98576	-0.007198	-0.091988	3.36	-9.45	10.08	0.4394	0.0995	-0.1678	
-0.976732	0.019276	-0.128466	9.03	-10.29	10.29	0.4264	0.0935	-0.1662	
-0.99857	0.03416	-0.121146	17.71	-7.21	11.34	0.4279	0.09339999	-0.1739	
-0.987712	0.055266	-0.10614	17.15	-5.53	10.78	0.4351	0.0904	-0.1648	
-1.00345	0.05002	-0.106628	11.62	-8.26	11.62	0.4281	0.0782	-0.1709	
-0.964654	0.069418	-0.099552	20.09	-7	8.61	0.4223	0.0782	-0.177	
-1.01443	0.062342	-0.122366	18.83	-6.23	7.56	0.4325	0.0751	-0.171	
-0.9943	0.102602	-0.12627	34.37	-6.72	6.44	0.4311	0.072	-0.1756	
-1.014796	0.1037	-0.094306	32.62	-4.55	7.21	0.4297	0.06879999	-0.1863	
-1.008696	0.116022	-0.076006	27.44	-7.56	7.63	0.4238	0.0751	-0.1755	
-0.987468	0.10797	-0.097844	19.95	-11.06	6.86	0.4282	0.0705	-0.1771	
-0.976366	0.125172	-0.112972	21.77	-7.7	6.86	0.4297	0.0689	-0.1802	
-0.979904	0.107848	-0.101138	13.16	-7.28	10.22	0.4296	0.0735	-0.1771	
-0.989664	0.087718	-0.084668	5.53	-8.4	12.67	0.4356	0.0581	-0.1834	
-0.989176	0.064294	-0.083814	9.94	-7.21	15.26	0.4254	0.0613	-0.1818	
-0.988688	0.042212	-0.088816	19.6	-7.07	14.42	0.4198	0.0491	-0.1818	
-0.98881	0.036112	-0.09882	22.89	-6.86	13.44	0.4255	0.0581	-0.1925	
-1.002596	0.040504	-0.10614	21.42	-7.49	13.44	0.4358	0.0442	-0.1957	
-1.021628	0.04697	-0.09638	21.14	-10.15	14	0.43	0.0413	-0.1865	
-1.006622	0.04514	-0.104798	29.75	-9.94	14.49	0.4272	0.0443	-0.2002	
-1.010526	0.058316	-0.108336	42.28	-14.07	12.53	0.4329	0.0442	-0.2003	
-1.01077	0.086376	-0.113338	53.55	-17.15	12.25	0.4272	0.0397	-0.2003	
-1.006256	0.101138	-0.113582	66.5	-15.89	14.63	0.4258	0.0366	-0.2003	
-1.055178	0.10187	-0.082716	44.38	-16.31	16.17	0.4303	0.0274	-0.2034	
-1.044198	0.086254	-0.07503	41.09	-19.25	14.35	0.4289	0.0182	-0.2035	
-1.003328	0.11407	-0.068564	48.51	-17.08	7.14	0.4174	0.0168	-0.208	
-1.011014	0.147254	-0.08052	57.47	-14.84	6.79	0.4131	0.0107	-0.2127	
-1.000766	0.179828	-0.07503	53.76	-13.65	5.18	0.4219	0.0044	-0.2143	
-0.992958	0.176046	-0.045872	43.47	-15.89	6.51	0.4132	0.0015	-0.2143	
-1.01504	0.1891	-0.018056	25.55	-29.33	3.57	0.4293	-0.0079	-0.2236	
-0.981978	0.187392	-0.08845	42.21	-15.82	14.35	0.4148	-0.0061	-0.2189	
-0.987102	0.166042	-0.064904	23.94	-10.78	13.23	0.412	-0.0107	-0.2266	
-1.004304	0.189954	-0.079178	33.04	-7.21	10.5	0.4149	-0.0137	-0.2159	
-1.011746	0.17446	-0.046604	21.98	-3.99	6.16	0.4207	-0.0184	-0.2206	
-1.021628	0.202032	-0.021716	22.75	-6.02	1.96	0.412	-0.0153	-0.2236	
-1.013454	0.22692	-0.013786	24.29	-7.21	0.07	0.4136	-0.0215	-0.2313	
-1.014552	0.164944	-0.02196	6.37	-8.89	-0.49	0.4179	-0.02	-0.2252	
-0.994544	0.16287	-0.056364	17.22	-11.41	-2.94	0.4194	-0.0246	-0.2252	
-1.001498	0.157624	-0.09394	14.7	-6.02	-1.75	0.4193	-0.023	-0.2206	
-0.998448	0.145668	-0.078568	17.29	1.47	0.7	0.415	-0.0169	-0.2312	
-0.998448	0.131638	-0.04331	15.33	4.55	3.36	0.4151	-0.0291	-0.2283	
-0.993446	0.133468	-0.02623	14.98	3.43	6.51	0.4136	-0.0291	-0.2206	
-0.99857	0.14396	-0.032696	10.08	1.89	10.43	0.4122	-0.0306	-0.2222	
-0.99796	0.153476	-0.052216	3.22	-1.26	14.63	0.4152	-0.0368	-0.2268	
-0.999424	0.160918	-0.070394	-1.54	-3.29	20.02	0.4051	-0.0412	-0.2253	
-1.006256	0.152988	-0.052948	-11.69	0.28	26.95	0.4138	-0.0444	-0.2254	
-0.996496	0.149572	-0.03782	-15.05	2.66	28.63	0.4022	-0.0412	-0.2298	
-0.999912	0.152256	-0.03782	-21.07	1.75	29.05	0.4109	-0.0427	-0.2162	
-0.997106	0.149694	-0.040138	-23.94	2.38	30.24	0.4124	-0.0444	-0.2253	
-0.99979	0.137372	-0.052948	-30.94	-1.4	33.39	0.4095	-0.0428	-0.2284	
-0.991494	0.143228	-0.052216	-30.03	-0.84	33.67	0.4081	-0.055	-0.2178	
-1.032242	0.160064	-0.05368	-32.41	3.78	36.96	0.4139	-0.0566	-0.2209	
-1.010526	0.168726	-0.041602	-26.88	9.17	39.13	0.4038	-0.0611	-0.2209	
-1.016504	0.203862	-0.04819	-23.1	4.97	38.29	0.4097	-0.0612	-0.2285	
-1.01077	0.219234	-0.048312	-24.99	2.94	37.45	0.4097	-0.0627	-0.227	
-0.991982	0.249002	-0.042456	-24.15	3.22	36.05	0.4025	-0.0673	-0.2362	
-0.992836	0.265716	-0.03965	-32.97	-0.56	36.33	0.404	-0.0703	-0.2286	
-0.98637	0.270596	-0.041114	-24.15	-2.1	34.72	0.4084	-0.078	-0.2333	
-0.967338	0.272792	-0.02562	-20.37	-3.64	33.39	0.4012	-0.0779	-0.2317	
-0.978928	0.288774	-0.029524	-20.93	-7.91	32.34	0.4013	-0.08859999	-0.2303	
-0.976732	0.317688	-0.027938	-11.27	-10.29	30.8	0.407	-0.08109999	-0.2302	
-0.955992	0.337208	-0.015616	-10.85	-6.16	31.5	0.3999	-0.0948	-0.2334	
-0.964898	0.376736	0.011102	-4.76	-4.2	33.18	0.3986	-0.0964	-0.2456	
-0.95221	0.385886	0.01342	-10.5	-7.77	33.88	0.3986	-0.0994	-0.241	
-0.941596	0.421144	0.020618	-4.41	-11.76	30.52	0.3943	-0.1069	-0.235	
-0.939278	0.422852	0.033062	-13.16	-11.97	27.16	0.3987	-0.1056	-0.2457	
-0.91622	0.430904	0.03233	-7.84	-14.63	24.71	0.3813	-0.1084	-0.2395	
-0.895846	0.433832	0.025376	-8.47	-15.12	21.84	0.3799	-0.1175	-0.2365	
-0.907924	0.424316	0.025254	-10.71	-8.47	21.42	0.38	-0.1176	-0.2502	
-0.878522	0.442616	0.020008	-5.67	-14.84	18.13	0.3801	-0.1283	-0.2488	
-0.890722	0.429928	0.056608	-6.02	-9.1	17.01	0.3802	-0.1314	-0.2549	
-0.912194	0.444812	0.044408	1.89	-10.71	12.46	0.3873	-0.1253	-0.2442	
-0.88999	0.464942	0.02806	-7.14	-15.75	14	0.3803	-0.1375	-0.2535	
-0.872178	0.441762	-0.004636	2.66	-6.51	13.44	0.3787	-0.1268	-0.2549	
-0.84485	0.47519	0.046726	10.15	-3.08	14.07	0.3686	-0.1327	-0.2473	
-0.893162	0.425414	0.044774	-4.9	-15.54	15.54	0.3716	-0.1329	-0.2625	
-0.86803	0.467016	0.002928	15.68	-7.21	13.79	0.3644	-0.1434	-0.2534	
-0.857416	0.475922	0.06283	10.78	-10.15	11.97	0.373	-0.1329	-0.2595	
-0.857416	0.497882	0.056974	9.31	-12.53	10.5	0.3659	-0.1496	-0.2596	
-0.864126	0.49532	0.038918	6.51	-9.52	10.29	0.3789	-0.1452	-0.2596	
-0.851316	0.510082	0.03599	4.76	-5.25	6.23	0.363	-0.1451	-0.2657	
-0.877058	0.502274	0.077714	4.41	-4.97	0.7	0.3688	-0.1466	-0.2627	
-0.885598	0.493856	0.057706	-1.33	-3.71	-2.8	0.3585	-0.1312	-0.264	
-0.878278	0.502884	0.0427	3.57	1.33	-7.21	0.3599	-0.1342	-0.2533	
-0.873154	0.496906	0.05429	-1.12	4.27	-11.27	0.3702	-0.139	-0.2626	
-0.883402	0.496906	0.066124	1.33	6.93	-14.91	0.3731	-0.1436	-0.2581	
-0.881816	0.498004	0.065758	5.74	6.86	-17.71	0.3688	-0.1436	-0.2641	
-0.879864	0.478972	0.065392	3.29	5.39	-20.86	0.376	-0.1392	-0.2718	
-0.881938	0.468114	0.059292	4.76	6.93	-24.5	0.376	-0.1391	-0.2596	
-0.874374	0.463722	0.054778	3.15	8.75	-27.79	0.3773	-0.1329	-0.2504	
-0.876082	0.458842	0.051362	2.45	12.11	-29.54	0.3687	-0.1329	-0.2702	
-0.887916	0.452376	0.065514	3.22	13.09	-30.87	0.3858	-0.1192	-0.2503	
-0.909144	0.43005	0.066856	-8.75	20.23	-37.73	0.3801	-0.1222	-0.2503	
-0.9028	0.413946	0.055144	8.12	12.67	-37.59	0.3902	-0.1208	-0.2549	
-0.895968	0.433222	0.028304	-0.63	8.4	-42	0.3843	-0.1146	-0.2502	
-0.87962	0.41602	0.024644	7.91	15.19	-43.75	0.3899	-0.0994	-0.2471	
-0.893284	0.420168	0.027572	8.75	18.41	-45.85	0.3899	-0.0994	-0.2501	
-0.901946	0.377956	0.040992	6.16	20.51	-45.85	0.3929	-0.1009	-0.2502	
-0.923174	0.365268	0.04148	8.89	18.27	-47.53	0.3985	-0.0917	-0.2364	
-0.922076	0.35136	0.009028	11.62	10.43	-50.61	0.4012	-0.0795	-0.2332	
-0.944402	0.328668	-0.025742	4.9	6.86	-50.26	0.4025	-0.0672	-0.227	
-0.929518	0.318908	-0.043188	16.03	8.12	-50.75	0.4025	-0.0672	-0.2301	
-0.952088	0.298656	-0.033916	10.08	8.26	-48.72	0.4125	-0.0551	-0.23	
-0.964166	0.27938	-0.019032	23.17	13.72	-49.77	0.4167	-0.0429	-0.2299	
-0.997106	0.282796	-0.016104	15.54	10.99	-50.12	0.4166	-0.0353	-0.2268	
-1.05347	0.222162	-0.067832	8.19	13.16	-53.55	0.4123	-0.0458	-0.2177	
-1.075674	0.226554	-0.097844	22.47	20.09	-54.88	0.4094	-0.0367	-0.2268	
-1.044564	0.180316	-0.066246	-11.41	17.08	-53.9	0.4136	-0.0291	-0.2222	
-1.086166	0.134688	-0.073078	-4.41	17.43	-53.41	0.4235	-0.0108	-0.2205	
-1.048956	0.103456	-0.077104	1.89	7.77	-55.58	0.4147	-0.003	-0.2174	
-1.02724	0.045506	-0.073444	0.21	1.54	-57.4	0.4119	-0.0015	-0.2219	
-1.032242	0.031476	-0.084058	17.99	0.21	-57.96	0.4175	0.0121	-0.2142	
-0.9882	-0.007686	-0.08906	12.53	-3.99	-58.87	0.4174	0.0198	-0.2187	
-1.0248	-0.02257	-0.10553	23.52	-1.4	-60.13	0.4131	0.0182	-0.2248	
-1.002596	-0.02257	-0.10614	29.82	4.83	-59.43	0.4129	0.0291	-0.211	
-1.006256	-0.043066	-0.102846	22.75	6.65	-58.52	0.42	0.0411	-0.22	
-0.978562	-0.075518	-0.072346	13.44	4.48	-56.56	0.4169	0.055	-0.2123	
-1.021384	-0.087718	-0.056486	11.62	-2.8	-57.54	0.4096	0.0748	-0.2273	
-1.021872	-0.095038	-0.0488	12.46	-4.48	-56.35	0.4153	0.0748	-0.2228	
-1.003572	-0.112606	-0.046726	21.14	2.24	-50.61	0.4066	0.0779	-0.2288	
-1.01809	-0.12566	-0.06771	21.42	2.38	-47.88	0.4152	0.08549999	-0.2196	
-1.006012	-0.165798	-0.076372	12.88	3.15	-46.76	0.4036	0.0902	-0.2256	
-1.012112	-0.173118	-0.080398	10.22	6.02	-45.92	0.4108	0.0932	-0.2272	
-0.983686	-0.198494	-0.070272	5.95	9.45	-44.17	0.4049	0.0993	-0.2271	
-0.986004	-0.219356	-0.060146	-0.14	7.28	-42.42	0.4062	0.1117	-0.2132	
-0.987346	-0.220942	-0.043676	7.98	3.22	-38.64	0.4119	0.1131	-0.2148	
-0.98637	-0.224846	-0.038552	7.77	1.61	-35.28	0.4046	0.1239	-0.2207	
-0.975634	-0.23302	-0.048556	10.36	-0.63	-32.9	0.3988	0.1255	-0.2177	
-0.980026	-0.234484	-0.06527	9.52	-4.06	-32.13	0.4032	0.1254	-0.2268	
-0.983564	-0.245952	-0.074054	3.99	-5.32	-31.43	0.3974	0.1179	-0.2192	
-0.975878	-0.291946	-0.06734399	-1.33	-3.29	-30.66	0.3944	0.1316	-0.2283	
-0.978806	-0.280356	-0.06954	6.02	-0.42	-30.17	0.3972	0.1362	-0.2252	
-0.983686	-0.278892	-0.065026	5.46	1.4	-29.54	0.3942	0.1439	-0.2175	
-0.982954	-0.269742	-0.0549	10.01	-0.21	-24.64	0.3927	0.153	-0.225	
-0.991982	-0.28548	-0.061	4.55	-3.92	-18.27	0.3869	0.1456	-0.2113	
-0.994788	-0.307928	-0.078812	6.79	-3.92	-12.95	0.3899	0.1454	-0.2281	
-0.978074	-0.326594	-0.084668	4.55	-5.04	-7.91	0.3884	0.1531	-0.2265	
-0.950624	-0.31903	-0.076982	1.12	-2.45	-3.43	0.3971	0.156	-0.2326	
-0.954162	-0.30439	-0.064538	4.97	-0.84	0.07	0.3854	0.1592	-0.2341	
-0.95282	-0.310124	-0.057218	2.31	-1.33	3.99	0.384	0.1531	-0.2311	
-0.953308	-0.334646	-0.063806	-1.05	-0.98	6.58	0.3897	0.1638	-0.2264	
-0.961482	-0.335378	-0.064904	-2.8	0.28	7.7	0.3928	0.1484	-0.2296	
-0.931958	-0.330498	-0.052216	-4.34	2.1	11.34	0.3797	0.1532	-0.2219	
-0.95404	-0.334402	-0.05307	-10.5	2.24	14.91	0.384	0.1516	-0.2265	
-0.972096	-0.330254	-0.060268	-9.52	0.49	17.08	0.3957	0.1469	-0.2235	
-0.945134	-0.320616	-0.05368	-7.35	0.35	20.09	0.3899	0.1439	-0.2235	
-0.925492	-0.31415	-0.045262	-3.57	3.15	25.06	0.3898	0.153	-0.2296	
-0.93025	-0.315492	-0.044164	-8.75	3.71	28.28	0.3884	0.1485	-0.2235	
-0.955992	-0.291946	-0.056486	-6.44	1.75	29.19	0.3943	0.1377	-0.2251	
-0.952942	-0.287432	-0.057218	-7.56	2.73	31.85	0.3944	0.1347	-0.2267	
-0.959286	-0.275476	-0.05551	-7.35	3.78	34.65	0.4003	0.1284	-0.2314	
-0.974048	-0.252784	-0.05978	-6.16	3.01	36.54	0.4033	0.1132	-0.2208	
-0.96929	-0.243878	-0.069174	-10.15	2.94	38.71	0.3945	0.124	-0.2192	
-0.994178	-0.224114	-0.081374	-7.28	5.74	41.51	0.4061	0.1208	-0.2223	
-0.988688	-0.218258	-0.085034	-11.27	3.78	43.33	0.4092	0.1039	-0.221	
-0.984784	-0.18727	-0.08662	-3.92	4.27	44.52	0.4092	0.1085	-0.227	
-0.982954	-0.1647	-0.071614	-5.46	6.37	46.34	0.4151	0.0917	-0.2135	
-0.995276	-0.132492	-0.064782	-4.34	5.32	47.81	0.408	0.0841	-0.2181	
-0.998204	-0.113948	-0.074054	-7.28	0.35	50.26	0.4195	0.0871	-0.2135	
-1.000156	-0.097844	-0.09211	-10.01	-3.78	52.08	0.4068	0.0612	-0.2198	
-1.017236	-0.073322	-0.10248	-10.01	-4.55	52.78	0.4139	0.0672	-0.2167	
-1.023336	-0.047092	-0.09747799	-5.39	-2.31	53.2	0.4126	0.0535	-0.2092	
-1.024556	-0.010736	-0.087962	-0.28	-1.33	53.13	0.4171	0.0427	-0.2139	
-1.02358	0.02501	-0.078812	4.48	-1.68	52.15	0.4142	0.0398	-0.2002	
-1.020896	0.054046	-0.084668	-4.62	-4.97	53.62	0.4215	0.0366	-0.2094	
-1.029314	0.073322	-0.097234	-7	-2.87	53.34	0.4115	0.0245	-0.2049	
-1.02297	0.112118	-0.095648	-9.17	-3.22	52.99	0.4188	0.0167	-0.2111	
-1.01199	0.149938	-0.085156	-13.16	-3.99	53.9	0.419	0.0075	-0.2142	
-1.022116	0.180072	-0.10004	-14.42	-3.36	55.79	0.4131	0.0076	-0.2112	
-1.026752	0.200324	-0.096014	-10.22	-3.64	58.45	0.4205	-0.003	-0.2067	
-1.01199	0.217404	-0.070882	-17.01	-1.89	61.74	0.4249	-0.0062	-0.2159	
-1.027728	0.208864	-0.034404	-16.94	-1.96	62.44	0.4121	-0.0275	-0.216	
-1.017358	0.222406	-0.0427	-13.44	-3.36	57.19	0.4179	-0.0275	-0.2161	
-0.98698	0.22143	-0.05368	-21.56	-10.08	52.36	0.4151	-0.0352	-0.2192	
-0.98698	0.23546	-0.066002	-18.55	-14.7	47.74	0.4196	-0.0475	-0.2224	
-0.994178	0.231312	-0.08295999	-23.66	-10.71	43.4	0.4007	-0.0365	-0.2206	
-0.991006	0.26718	-0.0915	-5.11	1.12	39.27	0.408	-0.0473	-0.2177	
-0.966118	0.306708	-0.05246	-10.57	0.77	41.16	0.4095	-0.0489	-0.2238	
-0.956724	0.296948	-0.027938	-8.05	-1.82	41.65	0.4111	-0.0687	-0.2134	
-0.959164	0.30988	-0.026474	-4.41	-3.78	42	0.4128	-0.081	-0.2211	
-0.962458	0.29219	-0.019642	-8.26	-11.55	41.02	0.4085	-0.0841	-0.2211	
-0.950502	0.318908	-0.019642	-2.38	-15.33	38.36	0.4085	-0.0841	-0.2257	
-0.972706	0.33306	-0.023912	-9.8	-22.4	36.12	0.3984	-0.0916	-0.2272	
-0.961482	0.354898	-0.025132	-3.43	-23.45	34.65	0.3956	-0.0977	-0.2257	
-0.947086	0.36112	-0.020862	-5.18	-25.9	33.32	0.3986	-0.1054	-0.2289	
-0.945866	0.348554	-0.021594	-4.83	-22.33	30.31	0.3884	-0.1008	-0.2349	
-0.93818	0.367586	-0.00671	-0.28	-21.98	27.58	0.3901	-0.1131	-0.2396	
-0.931714	0.365634	0.001952	2.38	-20.93	23.1	0.3915	-0.1131	-0.2426	
-0.93757	0.378932	-0.007442	4.27	-19.46	19.88	0.3902	-0.1222	-0.2397	
-0.919758	0.401624	0.019764	9.1	-18.83	16.31	0.3844	-0.1222	-0.2427	
-0.917928	0.407846	-0.006588	6.09	-17.64	13.02	0.3859	-0.1254	-0.2595	
-0.883646	0.435052	0.003538	17.01	-9.03	11.62	0.3801	-0.1252	-0.2488	
-0.909388	0.432978	0.04453	5.53	-13.44	12.39	0.373	-0.1314	-0.258	
-0.881328	0.463356	0.033184	17.01	-10.85	9.52	0.3758	-0.1298	-0.2534	
-0.885232	0.462624	0.060878	5.11	-10.71	9.24	0.376	-0.1421	-0.2535	
-0.886452	0.48312	0.027816	7.91	-9.73	6.86	0.3729	-0.1297	-0.2457	
-0.88877	0.475678	0.041846	3.85	-5.6	4.41	0.3714	-0.1267	-0.2533	
-0.882426	0.486536	0.05856	4.41	-2.87	0.7	0.3788	-0.139	-0.2474	
-0.881572	0.481534	0.066002	-0.49	-2.73	-2.66	0.3787	-0.1253	-0.2549	
-0.887794	0.473482	0.073444	-3.22	-1.19	-6.58	0.3658	-0.1374	-0.2626	
-0.894016	0.467504	0.070394	-4.97	0.21	-10.99	0.376	-0.1376	-0.2718	
-0.89914	0.463844	0.052216	-10.01	-0.21	-15.89	0.3802	-0.1299	-0.2595	
-0.887916	0.468602	0.049532	-7.98	3.5	-20.02	0.3657	-0.1297	-0.2564	
-0.882182	0.458964	0.07259	-6.02	7.84	-22.4	0.3829	-0.1132	-0.2655	
-0.88633	0.426756	0.093086	-8.82	7.98	-24.92	0.3801	-0.1192	-0.2579	
-0.887306	0.40748	0.076982	-9.31	6.86	-29.05	0.3815	-0.1177	-0.2533	
-0.871568	0.403332	0.065026	-24.71	10.43	-35.56	0.3784	-0.1054	-0.2501	
-0.900604	0.397598	0.062708	-0.7	12.6	-39.76	0.3812	-0.0948	-0.2577	
-0.908046	0.36417	0.065636	-8.96	12.53	-40.46	0.3914	-0.101	-0.2547	
-0.90036	0.36539	0.049776	-2.45	12.95	-42.56	0.3884	-0.0887	-0.25	
-0.906582	0.35197	0.045262	-0.63	14.63	-43.75	0.3955	-0.0735	-0.256	
-0.908168	0.34343	0.049166	0.28	16.94	-44.94	0.397	-0.08109999	-0.25	
-0.919148	0.340502	0.044774	6.79	16.1	-46.83	0.3999	-0.0797	-0.2592	
-0.948428	0.325374	0.034282	1.89	16.38	-47.74	0.3969	-0.0704	-0.2545	
-0.95404	0.30805	0.026718	5.95	15.47	-48.37	0.401	-0.0597	-0.2437	
-0.982344	0.27328	0.004636	-3.78	10.29	-47.25	0.4009	-0.0444	-0.2421	
-0.964654	0.26413	-0.020008	8.12	10.01	-48.09	0.4038	-0.0446	-0.2589	
-0.987346	0.233508	-0.027572	-3.78	10.01	-47.6	0.4051	-0.0337	-0.2374	
-1.009062	0.217404	-0.03355	9.45	15.05	-48.23	0.3993	-0.0321	-0.2389	
-1.019188	0.201056	-0.038186	11.06	19.39	-48.93	0.4121	-0.0185	-0.2419	
-1.05347	0.186294	-0.055754	16.87	18.97	-50.33	0.412	-0.0123	-0.2281	
-1.0431	0.165188	-0.03965	8.19	12.32	-50.82	0.4135	-0.0138	-0.2251	
-1.049932	0.113094	-0.047214	-1.75	6.93	-52.43	0.4118	0.0074	-0.2401	
-1.03639	0.088328	-0.056242	-0.63	4.06	-53.41	0.4148	0.0028	-0.2371	
-1.038952	0.052582	-0.072102	3.08	3.57	-56	0.4088	0.0137	-0.2263	
-1.036634	-0.020252	-0.079544	10.43	1.33	-58.59	0.4087	0.0213	-0.2232	
-1.028948	-0.025376	-0.09552599	25.62	7.21	-61.53	0.4085	0.0351	-0.22	
-1.024312	-0.035258	-0.072346	25.48	9.1	-59.85	0.4113	0.0474	-0.2154	
-1.023702	-0.04636	-0.05307	19.11	5.74	-58.38	0.4056	0.0443	-0.2276	
-1.015406	-0.06588	-0.055998	22.19	1.26	-55.72	0.4125	0.0641	-0.2198	
-1.035902	-0.068198	-0.056608	21.21	0.49	-53.34	0.411	0.0718	-0.2228	
-1.03456	-0.089914	-0.063684	18.2	-3.99	-49.77	0.411	0.0749	-0.2197	
-1.026874	-0.120902	-0.07381	13.86	-6.65	-46.34	0.4094	0.084	-0.2227	
-1.012112	-0.16775	-0.080276	17.64	-7.56	-42	0.4009	0.0749	-0.2303	
-0.990396	-0.179584	-0.057096	24.43	-2.66	-38.85	0.4051	0.0825	-0.2333	
-1.000644	-0.172508	-0.02379	24.5	1.96	-38.01	0.4021	0.0933	-0.2271	
-0.993934	-0.162748	-0.000976	19.46	2.17	-38.78	0.4007	0.0948	-0.2317	
-0.9821	-0.175802	-0.002318	12.81	-4.2	-39.9	0.405	0.09779999	-0.2347	
-0.98942	-0.194102	-0.02257	8.61	-6.16	-40.25	0.4006	0.1024	-0.2301	
-0.971364	-0.196298	-0.035136	2.03	-5.32	-41.09	0.3961	0.1117	-0.23	
-0.986248	-0.222894	-0.040016	-4.76	-4.55	-42.07	0.3888	0.1193	-0.2405	
-0.9272	-0.266082	-0.060878	-13.72	1.4	-43.05	0.3917	0.1193	-0.2421	
-0.997716	-0.234362	-0.062952	18.9	28.7	-41.58	0.393	0.1376	-0.2434	
-0.996862	-0.276574	0.112972	1.19	-3.64	-39.48	0.3973	0.13	-0.2268	
-0.986614	-0.25681	-0.081984	-15.12	-22.75	-34.3	0.3929	0.1423	-0.2312	
-0.962824	-0.297192	-0.16348	-5.6	-15.4	-27.58	0.387	0.1469	-0.2357	
-0.975146	-0.306342	-0.09028	8.05	8.68	-21.77	0.3856	0.147	-0.2296	
-0.992836	-0.323422	0.01525	12.6	8.82	-18.27	0.3841	0.1485	-0.2342	
-0.975024	-0.32818	0.007808	-10.22	-10.29	-12.32	0.384	0.1576	-0.2356	
-0.969046	-0.33428	-0.061	-3.64	-16.73	-9.94	0.3783	0.1546	-0.2402	
-0.955504	-0.318542	-0.044164	12.18	-9.1	-6.93	0.3826	0.1561	-0.2402	
-0.965386	-0.327204	0.000488	1.4	-9.73	-2.87	0.3811	0.1576	-0.2386	
-0.957944	-0.327326	-0.040138	-7.35	-10.08	0.42	0.3696	0.1608	-0.2462	
-0.9455	-0.346358	-0.042456	-2.94	-3.22	3.15	0.3826	0.1561	-0.2432	
-0.94367	-0.351238	-0.00122	-0.7	2.66	5.88	0.3855	0.1545	-0.2402	
-0.945012	-0.353922	0.00549	-8.47	0.42	9.1	0.3825	0.1623	-0.234	
-0.947452	-0.347212	-0.01708	-8.68	-0.77	12.88	0.3783	0.1576	-0.2432	
-0.968558	-0.33916	-0.023424	-4.9	0.91	15.68	0.3841	0.15	-0.2387	
-0.958676	-0.338916	-0.019764	-3.36	1.05	17.78	0.3754	0.1577	-0.2417	
-0.956846	-0.339648	-0.006954	-5.67	-1.19	21.07	0.3725	0.1532	-0.2402	
-0.958188	-0.331474	-0.01342	-0.35	-3.01	24.08	0.3842	0.1468	-0.2464	
-0.949892	-0.309392	-0.019032	2.31	-2.17	30.87	0.3813	0.1424	-0.2357	
-0.947818	-0.292312	-0.011956	1.75	-0.14	35.21	0.3871	0.1408	-0.2388	
-0.95221	-0.278526	-0.010248	0.07	1.33	38.85	0.393	0.1345	-0.2435	
-0.959408	-0.258762	-0.009516	-2.24	2.31	41.23	0.3975	0.1268	-0.2466	
-0.951112	-0.254858	-0.00915	-3.5	3.71	44.38	0.3889	0.1162	-0.2436	
-0.963678	-0.238144	-0.007076	-2.1	3.85	47.67	0.3917	0.1193	-0.2421	
-0.966728	-0.215574	-0.01037	-2.94	3.78	50.4	0.3845	0.1163	-0.236	
-0.977098	-0.192394	-0.020984	-6.37	3.36	52.92	0.3976	0.1146	-0.2376	
-0.975268	-0.172874	-0.01891	-9.03	5.11	55.02	0.3934	0.0979	-0.2392	
-0.980636	-0.1525	-0.017446	-9.59	6.72	56.63	0.405	0.0947	-0.2302	
-0.985638	-0.128222	-0.020252	-11.2	5.81	57.89	0.4036	0.0901	-0.2332	
-0.991738	-0.105042	-0.024766	-13.93	4.69	58.38	0.4097	0.0656	-0.2366	
-0.99979	-0.081008	-0.025742	-13.44	3.15	57.26	0.4097	0.0626	-0.2244	
-1.007354	-0.057584	-0.029524	-14.98	-0.07	56.42	0.4055	0.055	-0.2305	
-1.023702	-0.024888	-0.042334	-13.51	-1.12	56.21	0.4112	0.0564	-0.2336	
-1.02297	0.012566	-0.055144	-8.47	-0.84	55.09	0.4171	0.0487	-0.2306	
-1.035414	0.060878	-0.053192	-4.55	1.82	54.74	0.4129	0.0411	-0.2307	
-1.037366	0.09638	-0.041846	-6.72	4.48	54.74	0.4102	0.0213	-0.2263	
-1.02968	0.140178	-0.047458	-10.78	3.29	56	0.4146	0.0166	-0.2279	
-1.01443	0.152744	-0.049654	-17.22	-0.28	57.82	0.4147	0.006	-0.2219	
-1.012722	0.187026	-0.0427	-13.79	-3.01	59.43	0.4177	-0.0031	-0.222	
-1.023946	0.192028	-0.057462	-13.23	-0.35	60.27	0.4004	-0.0075	-0.2265	
-1.013576	0.213744	-0.041846	-12.18	2.73	61.95	0.4107	-0.0229	-0.2236	
-1.017846	0.216184	-0.018788	-14.42	5.74	63.49	0.4138	-0.0383	-0.2284	
-1.001498	0.230336	-0.014152	-12.81	-0.42	61.53	0.4181	-0.0369	-0.236	
-0.983686	0.258152	-0.01769	-17.85	-4.13	59.5	0.4125	-0.0521	-0.2285	
-0.99247	0.294874	-0.030866	-12.04	-3.71	56.42	0.3994	-0.0534	-0.2238	
-0.977586	0.310368	-0.02989	-10.64	-1.68	51.38	0.411	-0.049	-0.2284	
-0.980026	0.322446	-0.02867	-3.71	5.11	46.55	0.4053	-0.0595	-0.2193	
-0.949038	0.326838	-0.050508	-12.04	-6.16	43.54	0.4084	-0.0764	-0.2256	
-0.934764	0.345992	-0.039772	-7.77	-7.84	38.78	0.3998	-0.0795	-0.2348	
-0.960628	0.343308	-0.008174	-3.64	5.6	37.24	0.4041	-0.075	-0.2408	
-0.949648	0.366122	0.016592	-4.76	-0.63	35.28	0.4013	-0.0902	-0.2303	
-0.948672	0.359412	0.022326	-7	-5.81	34.58	0.3984	-0.0917	-0.2303	
-0.951234	0.37088	-0.020984	1.05	-15.47	32.34	0.4027	-0.0901	-0.2227	
-0.933666	0.375638	-0.04453	0.84	-15.05	31.36	0.3942	-0.1007	-0.2242	
-0.956602	0.352946	0.016226	10.36	-1.82	26.88	0.3944	-0.1191	-0.2244	
-0.925126	0.429074	0.109312	1.4	-25.13	26.81	0.3944	-0.1147	-0.2427	
-0.933422	0.359778	-0.011834	-8.4	-35.91	23.94	0.3901	-0.1146	-0.2442	
-0.887672	0.428464	-0.1159	5.39	-16.1	21.35	0.3873	-0.1222	-0.2381	
-0.909998	0.419558	-0.016226	3.5	-9.59	19.53	0.3873	-0.1222	-0.2412	
-0.934398	0.428708	0.014518	13.93	-0.14	17.85	0.3713	-0.119	-0.2472	
-0.907436	0.428464	0.045384	6.16	-5.39	18.55	0.3874	-0.1299	-0.2412	
-0.924272	0.43676	0.029158	3.92	-18.34	17.01	0.3728	-0.1281	-0.2396	
-0.90768	0.442982	-0.038918	2.03	-17.01	14.42	0.3801	-0.1298	-0.2427	
-0.895358	0.449082	-0.030622	8.96	-6.37	11.83	0.3788	-0.136	-0.2596	
-0.911828	0.445544	0.057462	9.59	-3.99	9.66	0.3744	-0.1298	-0.2534	
-0.915366	0.449936	0.057584	3.22	-10.36	6.23	0.3715	-0.1343	-0.2442	
-0.90158	0.456768	0.03111	0.21	-18.69	3.71	0.3686	-0.1312	-0.2473	
-0.89548	0.45079	0.002928	2.66	-14.28	0.63	0.3672	-0.1358	-0.2519	
-0.904996	0.451156	0.015982	-4.9	-10.08	-1.82	0.3702	-0.1405	-0.2596	
-0.899872	0.457622	0.02501	2.66	-1.96	-5.81	0.3716	-0.136	-0.2671	
-0.908656	0.458598	0.039162	-0.63	0.49	-9.24	0.3702	-0.1436	-0.2611	
-0.9028	0.459086	0.063806	-6.16	-1.33	-12.32	0.3759	-0.1344	-0.2565	
-0.88755	0.462624	0.045018	-9.45	-3.22	-17.01	0.373	-0.1313	-0.2564	
-0.890112	0.456768	0.037332	-8.47	0.49	-19.11	0.3818	-0.1391	-0.2611	
-0.904264	0.445056	0.0549	-9.31	2.8	-20.93	0.386	-0.1285	-0.258	
-0.896212	0.443226	0.060756	-4.9	4.62	-23.59	0.3787	-0.1283	-0.2519	
-0.894504	0.436638	0.066124	-3.29	5.67	-26.11	0.3802	-0.1269	-0.261	
-0.89243	0.417362	0.069906	-2.1	7.7	-28.7	0.3902	-0.1148	-0.264	
-0.901336	0.40687	0.066368	-5.32	7.56	-31.01	0.3785	-0.1069	-0.2562	
-0.893528	0.3965	0.053924	-6.58	9.03	-32.69	0.3799	-0.1054	-0.2578	
-0.907192	0.37515	0.033672	-7.28	13.37	-34.09	0.3756	-0.1054	-0.2547	
-0.871934	0.379176	0.077226	-14.28	14.7	-39.06	0.387	-0.0902	-0.2561	
-0.900726	0.368562	0.06466	8.89	13.02	-40.53	0.3941	-0.0841	-0.25	
-0.916586	0.36661	0.066124	-2.8	13.16	-42.91	0.397	-0.0841	-0.247	
-0.892918	0.337208	0.051606	2.03	14.56	-44.24	0.3896	-0.0703	-0.2483	
-0.931958	0.336598	0.04331	0.84	11.97	-45.57	0.3925	-0.0719	-0.2529	
-0.927932	0.310612	0.040504	-0.49	15.89	-46.27	0.4012	-0.0659	-0.2529	
-0.953308	0.299266	0.037454	5.53	13.86	-47.6	0.4011	-0.0628	-0.2468	
-0.956968	0.28487	0.03233	8.12	13.44	-47.88	0.4081	-0.0445	-0.2497	
-0.95221	0.270108	0.016836	5.88	7.56	-48.37	0.4052	-0.0444	-0.2406	
-0.973072	0.230702	0.00305	8.75	6.16	-47.6	0.4108	-0.0292	-0.242	
-0.991616	0.217282	-0.008662	12.6	5.18	-47.25	0.4007	-0.0321	-0.2359	
-1.004792	0.185928	-0.025742	8.4	4.62	-45.36	0.4093	-0.0185	-0.2465	
-1.006378	0.172996	-0.038186	10.08	3.92	-44.45	0.4019	-0.0122	-0.2372	
-1.020774	0.13847	-0.040992	4.62	4.69	-43.75	0.4062	-0.0077	-0.2387	
-1.071648	0.096258	-0.033184	3.36	12.39	-43.4	0.4061	-0.0001	-0.2386	
-1.073234	0.057706	-0.030988	3.15	19.95	-45.22	0.4118	0.0074	-0.2401	
-1.074576	0.074176	-0.015494	-13.93	6.37	-45.99	0.406	0.006	-0.231	
-1.015162	-0.00732	-0.199226	0.56	27.51	-52.29	0.4117	0.0136	-0.2325	
-1.029558	0.070028	-0.27633	18.9	74.76	-49.42	0.4202	0.0258	-0.2217	
-0.960872	0.015372	-0.038308	31.01	98.35	-51.17	0.423	0.032	-0.2049	
-1.11996	-0.048312	0.212158	30.1	36.19	-51.38	0.4186	0.0367	-0.2063	
-1.006988	-0.016104	0.113216	19.95	-33.32	-59.71	0.4184	0.0505	-0.2016	
-1.01748	-0.084546	-0.183	-30.94	-57.75	-58.03	0.4155	0.0535	-0.2077	
-0.983442	-0.043676	-0.340258	19.67	-30.03	-56.98	0.4138	0.0734	-0.2136	
-0.99491	-0.08784	-0.26901	15.19	21.56	-48.79	0.4052	0.0704	-0.2197	
-1.032242	-0.115534	-0.06771	38.99	49.28	-44.45	0.4123	0.081	-0.2151	
-1.013576	-0.129076	0.092964	34.58	30.52	-39.69	0.4195	0.081	-0.2075	
-1.028704	-0.174704	-0.116754	4.55	-18.55	-38.22	0.4195	0.08549999	-0.2166	
-0.990762	-0.154208	-0.223992	15.68	-9.38	-33.74	0.4137	0.0917	-0.2165	
-1.003572	-0.195078	-0.154574	21.42	5.88	-28.28	0.4063	0.0979	-0.2118	
-1.020896	-0.17629	-0.042456	39.83	10.15	-25.55	0.4208	0.0977	-0.2165	
-1.01443	-0.185074	-0.027694	20.79	-4.34	-21.21	0.4064	0.0964	-0.2164	
-1.00101	-0.198616	-0.09882	13.79	-17.71	-16.66	0.4079	0.0933	-0.221	
-0.994422	-0.22021	-0.154086	20.86	-16.59	-12.74	0.4062	0.1086	-0.2163	
-0.981612	-0.244	-0.102236	39.55	-5.04	-8.4	0.4034	0.104	-0.2209	
-0.97905	-0.199958	-0.004636	46.9	1.05	-8.89	0.4019	0.1056	-0.2163	
-0.99857	-0.218624	-0.009881999	18.76	-10.36	-5.95	0.4049	0.09779999	-0.2271	
-0.98271	-0.22265	-0.086376	18.97	-15.12	-3.64	0.4121	0.1023	-0.2271	
-0.96319	-0.222406	-0.09162199	24.22	-7.91	-1.47	0.4006	0.0933	-0.2225	
-0.981246	-0.224602	-0.054778	24.29	0.07	1.33	0.4063	0.1055	-0.2255	
-0.975878	-0.214232	-0.034648	23.8	1.82	1.96	0.4079	0.0977	-0.2332	
-0.973316	-0.205936	-0.030378	18.34	1.12	3.22	0.4079	0.0871	-0.2226	
-0.978806	-0.200934	-0.033428	16.66	-1.12	3.57	0.4035	0.0933	-0.2225	
-0.984784	-0.204106	-0.039406	12.46	-0.21	4.06	0.4049	0.1009	-0.2255	
-0.984418	-0.19093	-0.047092	13.44	-0.21	3.99	0.4124	0.0809	-0.2288	
-0.99674	-0.18849	-0.024644	8.68	1.19	5.32	0.4052	0.078	-0.2242	
-0.99247	-0.1891	-0.019764	7.49	0.63	6.02	0.4123	0.0901	-0.2302	
-0.992836	-0.181292	-0.042334	2.45	-2.8	7.35	0.408	0.0841	-0.2226	
-0.990762	-0.177754	-0.046482	3.57	-2.17	8.19	0.4066	0.084	-0.2287	
-0.998326	-0.160064	-0.035624	5.04	0.56	9.59	0.4066	0.0825	-0.2303	
-1.00467	-0.152012	-0.030988	-0.56	-0.7	9.73	0.4008	0.0795	-0.2257	
-0.992836	-0.149938	-0.041236	-4.97	-3.5	8.47	0.4038	0.0764	-0.2303	
-1.004304	-0.14701	-0.049166	-6.72	-3.71	7	0.4082	0.0687	-0.2289	
-1.006866	-0.132248	-0.055998	-8.12	-1.47	5.88	0.4052	0.0718	-0.2258	
-1.00589	-0.129198	-0.048068	-14.7	1.47	5.04	0.4066	0.0794	-0.2334	
-1.008086	-0.111996	-0.051362	-16.94	2.17	3.57	0.4025	0.0657	-0.2365	
-1.009062	-0.0915	-0.051118	-22.68	1.05	1.4	0.4008	0.078	-0.2211	
-1.009794	-0.052826	-0.06771	-23.87	2.17	-0.91	0.4081	0.0718	-0.2258	
-1.004304	-0.057096	-0.06344	-33.04	2.87	-2.38	0.4051	0.0795	-0.2227	
-1.001132	-0.070028	-0.05429	-35.84	6.86	-3.43	0.4051	0.0871	-0.2302	
-1.000644	-0.077836	-0.04941	-40.74	8.12	-5.95	0.4036	0.0857	-0.2196	
-1.009184	-0.07442	-0.059414	-49.35	7.21	-7.28	0.4049	0.1039	-0.227	
-1.004304	-0.079544	-0.075518	-51.52	4.48	-8.89	0.408	0.0871	-0.2302	
-0.976488	-0.060512	-0.061	-54.67	1.82	-7.63	0.399	0.1071	-0.2209	
-1.040172	-0.119316	-0.170678	-61.32	17.5	-5.67	0.4149	0.107	-0.2103	
-1.013088	-0.139568	-0.092232	-50.19	26.11	-3.57	0.4119	0.1132	-0.2072	
-1.034926	-0.166164	-0.018056	-51.73	16.17	-4.41	0.4133	0.1147	-0.2041	
-1.046516	-0.151768	-0.043676	-49.28	-8.61	-10.22	0.403	0.1287	-0.2024	
-1.01443	-0.154086	-0.153598	-56.56	-21.84	-10.29	0.4089	0.127	-0.2101	
-0.983198	-0.134932	-0.216428	-56.56	-11.27	-10.78	0.4103	0.1285	-0.2055	
-0.986126	-0.15433	-0.15372	-54.6	5.46	-7.14	0.4204	0.1285	-0.1964	
-1.007964	-0.194834	-0.097966	-56.42	5.67	-3.36	0.3999	0.1456	-0.1977	
-1.021506	-0.217892	-0.104066	-49.84	-3.57	-3.29	0.4071	0.1516	-0.1976	
-1.000888	-0.180316	-0.133346	-42.56	-11.48	-2.52	0.4058	0.1424	-0.2038	
-1.010526	-0.194834	-0.159576	-40.32	-11.97	-2.1	0.3984	0.1516	-0.2022	
-1.023336	-0.18056	-0.143472	-34.09	-7.77	-5.04	0.3926	0.1487	-0.1945	
-1.02541	-0.180682	-0.11285	-26.39	-9.52	-9.45	0.4028	0.1486	-0.1992	
-1.024678	-0.123098	-0.147132	-35.84	-8.96	-9.94	0.4041	0.1547	-0.193	
-1.052494	-0.16287	-0.140056	-36.96	-8.05	-8.68	0.4027	0.1593	-0.1991	
-1.042978	-0.134566	-0.154696	-30.03	-10.43	-8.19	0.4084	0.1638	-0.1945	
-1.020896	-0.125294	-0.151036	-29.4	-9.1	-5.74	0.3953	0.164	-0.1944	
-1.033828	-0.130906	-0.11712	-31.64	-7.77	-3.57	0.3997	0.1624	-0.1899	
-1.006744	-0.117486	-0.138226	-29.68	-10.64	-1.05	0.4011	0.1654	-0.196	
-1.005646	-0.125172	-0.142374	-36.68	-10.57	-0.63	0.4025	0.17	-0.1944	
-0.999302	-0.110898	-0.077958	-24.08	-10.29	-2.45	0.4054	0.1685	-0.1883	
-0.968436	-0.088572	-0.087962	-33.04	-10.99	-1.12	0.3937	0.1747	-0.1913	
-0.99186	-0.089426	-0.079666	-41.79	-12.6	-0.98	0.3924	0.1686	-0.1974	
-1.01443	-0.124074	-0.075518	-51.31	-4.97	0.77	0.3951	0.1869	-0.1942	
-1.007598	-0.14762	-0.071492	-40.74	-8.96	1.05	0.3908	0.1763	-0.1943	
-0.97905	-0.141154	-0.047702	-42.7	-11.55	1.12	0.3994	0.187	-0.1836	
-0.982466	-0.137372	-0.069906	-41.16	-12.11	-0.98	0.3979	0.196	-0.2002	
-0.984662	-0.157502	-0.031964	-42.07	-13.86	0.91	0.3963	0.2023	-0.188	
-0.996496	-0.18361	-0.040138	-41.3	-11.55	-2.03	0.3848	0.1978	-0.1864	
-0.967338	-0.190808	-0.03721	-39.9	-11.55	-1.4	0.3949	0.1977	-0.1834	
-0.97295	-0.226188	-0.036966	-41.79	-10.43	-2.17	0.3905	0.1978	-0.1819	
-0.965264	-0.246562	-0.027206	-34.72	-7.49	-4.34	0.3876	0.2009	-0.1834	
-0.957578	-0.239242	-0.044164	-30.38	-7.35	-4.9	0.3977	0.2053	-0.1864	
-0.955626	-0.236558	-0.01281	-24.29	-2.8	-5.6	0.3876	0.204	-0.1803	
-0.970266	-0.2135	-0.015738	-22.47	-0.21	-5.74	0.3905	0.2069	-0.1864	
-0.96441	-0.202032	-0.043188	-11.9	-1.82	-5.46	0.389	0.207	-0.1803	
-0.965264	-0.188978	-0.030866	-9.1	-1.19	-5.11	0.3904	0.2085	-0.1803	
-0.970388	-0.19764	-0.035502	-13.86	-1.89	-3.71	0.3888	0.2178	-0.1756	
-0.97051	-0.22509	-0.027572	-9.1	-0.28	-4.41	0.3772	0.2179	-0.1725	
-0.971486	-0.215208	-0.0183	-1.26	-0.91	-3.99	0.3874	0.2163	-0.1664	
-0.965386	-0.201666	-0.035014	0.35	-1.47	-2.87	0.3816	0.2164	-0.171	
-0.968192	-0.192516	-0.040748	6.02	-0.42	-1.89	0.3887	0.2254	-0.174	
-0.972706	-0.191906	-0.041968	4.48	0.35	0.77	0.3874	0.2117	-0.1741	
-0.981124	-0.199348	-0.025742	8.05	1.68	2.31	0.3816	0.2163	-0.1786	
-0.986858	-0.180194	-0.047458	7.42	1.12	2.52	0.3888	0.2193	-0.1741	
-0.992226	-0.176168	-0.056242	8.61	2.17	2.73	0.3787	0.2179	-0.1755	
-0.97661	-0.188124	-0.04148	10.71	3.57	3.5	0.3888	0.2178	-0.1756	
-0.979416	-0.189344	-0.067222	4.97	3.71	5.18	0.3803	0.2087	-0.1772	
-0.98454	-0.182512	-0.068076	7.91	7	6.51	0.389	0.2025	-0.1727	
-0.97966	-0.182024	-0.071858	7.56	8.19	8.54	0.3876	0.204	-0.1818	
-0.976488	-0.173362	-0.069052	5.81	9.52	10.78	0.3875	0.2056	-0.1742	
-0.974658	-0.178364	-0.061122	1.89	10.57	14.35	0.3919	0.1994	-0.1773	
-0.969412	-0.181536	-0.066978	-1.68	11.48	18.62	0.3817	0.2042	-0.1681	
-0.969534	-0.182756	-0.071004	-0.56	13.72	25.34	0.3978	0.1947	-0.1804	
-0.977464	-0.172874	-0.125172	-7.07	15.12	29.54	0.402	0.2008	-0.1728	
-0.999302	-0.191296	-0.088328	2.73	19.32	30.94	0.4049	0.1979	-0.1545	
-0.972706	-0.181292	-0.108458	-11.06	19.6	32.76	0.4036	0.184	-0.1638	
-0.982832	-0.180194	-0.149328	2.38	16.59	39.06	0.4124	0.1763	-0.1608	
-0.992226	-0.150914	-0.106994	26.46	17.36	40.32	0.411	0.1733	-0.1563	
-0.977342	-0.127978	-0.132736	17.43	15.33	43.26	0.4051	0.175	-0.1486	
-0.987224	-0.117486	-0.154086	22.54	14.49	47.6	0.4127	0.1549	-0.161	
-0.996984	-0.12078	-0.14945	34.44	19.81	51.45	0.4126	0.1551	-0.1442	
-0.964776	-0.108946	-0.141642	45.36	19.04	55.72	0.4228	0.1533	-0.1596	
-0.965996	-0.099552	-0.13969	56.14	13.37	59.22	0.4229	0.1427	-0.149	
-0.99735	-0.106384	-0.164578	63.91	4.69	59.71	0.4259	0.1289	-0.143	
-1.017236	-0.072468	-0.193248	76.09	-3.78	54.25	0.4376	0.1195	-0.1538	
-1.042978	-0.08686399	-0.213378	105	-17.15	56.14	0.4336	0.0981	-0.1616	
-1.157292	0.08174	-0.254492	80.08	-20.02	54.88	0.4264	0.09209999	-0.1556	
-0.998082	0.040382	-0.260348	88.2	-40.67	63.84	0.4365	0.0964	-0.1678	
-0.970266	0.05185	-0.22997	94.29	-31.85	62.16	0.4255	0.0537	-0.1727	
-1.023336	0.025864	-0.196298	94.57	-17.57	61.74	0.4272	0.0307	-0.179	
-1.021262	0.102358	-0.098088	188.86	-26.81	53.9	0.4389	0.0229	-0.1837	
-1.006012	0.148108	-0.160674	108.36	-51.87	50.47	0.4275	0.0061	-0.1884	
-1.009794	0.23851	-0.238876	120.33	-56	35.77	0.4248	-0.0061	-0.2007	
-0.968802	0.263276	-0.308294	133.49	-47.39	53.55	0.4206	-0.0137	-0.2022	
-0.994422	0.246196	-0.280966	92.4	-24.5	54.18	0.4252	-0.0367	-0.207	
-0.97844	0.219478	-0.200324	91.84	-1.33	57.26	0.4123	-0.0473	-0.2101	
-1.020286	0.237046	-0.153354	99.26	21.07	50.26	0.4125	-0.0611	-0.2087	
-0.998814	0.21411	-0.078202	62.51	18.2	52.29	0.4155	-0.0733	-0.2012	
-0.956358	0.248636	-0.064172	92.61	-6.09	45.92	0.4213	-0.0854	-0.1876	
-0.960994	0.218746	-0.082472	52.71	-47.67	42.21	0.4172	-0.1053	-0.1908	
-0.948916	0.304878	-0.206912	87.92	-44.1	36.61	0.4159	-0.1084	-0.197	
-1.058594	0.295728	-0.327692	67.76	-11.41	43.05	0.4087	-0.1145	-0.2077	
-0.968314	0.379054	-0.271084	122.36	23.03	37.31	0.4059	-0.128	-0.1849	
-0.986736	0.376004	-0.156404	56.77	1.12	39.69	0.4031	-0.1342	-0.188	
-0.968558	0.366	-0.065026	45.36	-22.4	34.58	0.4032	-0.1493	-0.1744	
-0.920978	0.341966	-0.028548	47.6	-25.55	39.83	0.4004	-0.1509	-0.1866	
-0.922076	0.384056	-0.15189	53.41	-25.13	37.59	0.399	-0.1601	-0.1821	
-1.030046	0.368196	-0.205326	48.72	-12.6	30.31	0.3948	-0.1722	-0.1822	
-0.872422	0.445544	-0.075396	40.53	-21.63	24.5	0.3847	-0.1827	-0.1746	
-0.818864	0.373442	-0.1342	1.12	-28.91	24.36	0.3835	-0.1935	-0.1854	
-0.919392	0.433222	-0.223016	24.5	0.14	20.93	0.3877	-0.1919	-0.1671	
-0.963922	0.451156	-0.013786	31.15	5.04	21.07	0.3878	-0.1905	-0.1853	
-0.91561	0.430782	0.005734	18.62	-14.91	17.15	0.3806	-0.1949	-0.1762	
-0.876814	0.38857	-0.138958	3.36	-27.79	17.08	0.3836	-0.2057	-0.1748	
-0.874252	0.410164	-0.194834	10.64	-8.75	12.88	0.3705	-0.201	-0.1808	
-0.913658	0.40565	-0.099308	-0.21	8.4	12.04	0.3764	-0.2118	-0.1824	
-0.921222	0.394792	-0.049532	1.12	0.28	11.2	0.3721	-0.2117	-0.1855	
-0.930738	0.399428	-0.091012	7.98	-8.61	7.91	0.3749	-0.2057	-0.1869	
-0.913902	0.385642	-0.138714	2.52	-8.19	8.05	0.3749	-0.2056	-0.1824	
-0.919758	0.371734	-0.132004	3.99	-0.56	7.07	0.3735	-0.2087	-0.19	
-0.914878	0.401868	-0.073688	11.34	-0.42	3.99	0.3706	-0.2102	-0.1824	
-0.921344	0.41419	-0.089182	10.57	-4.55	1.89	0.3606	-0.2207	-0.1763	
-0.912194	0.409066	-0.120414	3.57	-5.46	1.61	0.3765	-0.221	-0.184	
-0.907924	0.39528	-0.130906	-3.71	0.14	1.54	0.3678	-0.2223	-0.1764	
-0.916952	0.395646	-0.101626	-2.38	4.2	0.28	0.3708	-0.2209	-0.1886	
-0.914146	0.405162	-0.100406	-2.17	1.47	-1.4	0.3707	-0.2148	-0.187	
-0.908534	0.392474	-0.118828	-4.41	2.87	-3.36	0.3749	-0.2072	-0.1824	
-0.920734	0.396866	-0.102236	-5.11	4.48	-4.76	0.3677	-0.2071	-0.1808	
-0.90768	0.399184	-0.120658	-4.9	3.85	-7	0.3808	-0.2164	-0.1764	
-0.910852	0.404064	-0.111874	-2.73	5.88	-8.96	0.3808	-0.2164	-0.181	
-0.916464	0.401624	-0.106994	-4.2	5.46	-11.48	0.3778	-0.2102	-0.1748	
-0.926468	0.411994	-0.11712	-2.94	4.2	-15.47	0.3822	-0.2087	-0.1763	
-0.92415	0.406626	-0.13054	-9.87	5.04	-18.48	0.3763	-0.1995	-0.1808	
-0.917562	0.408822	-0.135176	-13.93	3.78	-21.56	0.3807	-0.2102	-0.1763	
-0.91622	0.41846	-0.12871	-17.99	3.43	-24.78	0.3806	-0.2011	-0.1808	
-0.910608	0.428098	-0.115168	-21.98	6.79	-29.05	0.3821	-0.1981	-0.1839	
-0.941962	0.454328	-0.111386	-22.68	1.89	-32.62	0.3878	-0.189	-0.1869	
-0.924638	0.436394	-0.112362	-42.7	-1.89	-30.24	0.3818	-0.1782	-0.1822	
-0.944036	0.410652	-0.14823	-71.05	-6.58	-25.97	0.3833	-0.1768	-0.1928	
-0.943182	0.364902	-0.157258	-66.85	3.5	-35.42	0.3891	-0.1723	-0.2004	
-0.913048	0.426268	-0.177998	-55.44	14.07	-32.27	0.3891	-0.1708	-0.1974	
-0.943304	0.374418	-0.131882	-60.97	30.94	-37.87	0.3946	-0.1509	-0.1942	
-0.93025	0.396256	-0.079544	-56.21	28.77	-34.44	0.4018	-0.1434	-0.1926	
-0.981978	0.354532	-0.07076	-97.51	19.32	-36.54	0.393	-0.1341	-0.1986	
-0.961726	0.343552	-0.115778	-82.6	9.52	-38.57	0.4088	-0.116	-0.2061	
-1.015406	0.24339	-0.149206	-91.77	10.15	-55.09	0.4129	-0.0992	-0.2045	
-1.009306	0.311832	-0.107848	-96.11	-2.45	-55.72	0.4028	-0.1023	-0.2121	
-1.01626	0.269376	-0.143594	-116.48	-6.16	-52.92	0.4011	-0.0808	-0.2134	
-1.020896	0.212768	-0.167018	-133.07	4.62	-57.05	0.4126	-0.0673	-0.221	
-1.005402	0.236314	-0.128222	-99.68	14.14	-57.05	0.4154	-0.0551	-0.2194	
-0.978684	0.265106	-0.133956	-114.52	16.1	-49.28	0.4079	-0.0397	-0.2207	
-0.989176	0.105896	-0.203618	-128.73	29.68	-54.81	0.415	-0.0275	-0.2161	
-1.029314	0.182756	-0.166042	-86.38	42.42	-56	0.4147	-0.006	-0.2082	
-1.059326	0.148596	-0.166042	-110.32	53.13	-53.2	0.4174	0.0138	-0.2035	
-1.065792	0.05978	-0.202032	-118.23	60.69	-43.61	0.4289	0.0168	-0.1959	
-1.058228	0.030866	-0.252662	-120.68	69.79	-53.34	0.4272	0.0336	-0.1912	
-1.008696	0.04758	-0.21228	-101.08	69.51	-53.41	0.4299	0.0476	-0.1697	
-0.980392	0.004636	-0.190198	-106.96	59.71	-51.17	0.4268	0.0645	-0.1665	
-1.005768	-0.002074	-0.162748	-75.39	42.28	-49.49	0.4324	0.0781	-0.171	
-0.987956	0.010004	-0.161772	-75.32	16.73	-47.11	0.4292	0.0967	-0.1525	
-0.970998	-0.01403	-0.212402	-77.91	0.21	-46.27	0.4335	0.0981	-0.1525	
-0.978562	-0.034648	-0.258762	-80.71	-1.26	-44.03	0.4333	0.115	-0.1523	
-0.964532	-0.08418	-0.258518	-55.09	4.76	-36.75	0.4331	0.1335	-0.1354	
-0.969046	-0.116632	-0.21411	-40.95	7.28	-33.39	0.4273	0.1335	-0.1415	
-0.962824	-0.144082	-0.17324	-33.39	5.95	-30.66	0.4199	0.1444	-0.1337	
-0.973682	-0.159332	-0.167628	-33.04	0.28	-29.33	0.4272	0.1382	-0.1307	
-0.972462	-0.148718	-0.180316	-23.17	-3.01	-28.21	0.4228	0.1413	-0.1337	
-0.985272	-0.138104	-0.167506	-13.16	0	-25.9	0.4342	0.1625	-0.1321	
-0.984174	-0.142008	-0.169824	-17.92	-1.19	-22.4	0.427	0.1565	-0.1382	
-0.9882	-0.126636	-0.164212	-11.48	-3.01	-21.21	0.4226	0.1612	-0.1275	
-0.978562	-0.124074	-0.16531	-0.35	-2.52	-19.32	0.4197	0.1613	-0.1259	
-0.98088	-0.133102	-0.156404	-0.98	-3.92	-15.19	0.4167	0.1643	-0.1305	
-0.991616	-0.136518	-0.137494	4.13	-4.2	-11.9	0.4153	0.1658	-0.1365	
-0.986858	-0.10431	-0.135908	9.66	-5.11	-11.06	0.4212	0.1566	-0.1351	
-0.983808	-0.096868	-0.148474	1.47	-8.89	-9.38	0.4167	0.1734	-0.1426	
-0.980758	-0.077592	-0.1647	2.45	-9.1	-7.21	0.4094	0.172	-0.1303	
-0.985638	-0.09882	-0.157502	1.05	-7.14	-4.34	0.4124	0.1734	-0.1441	
-0.931836	-0.09455	-0.110532	28.28	6.44	-3.29	0.4138	0.1734	-0.138	
-0.95953	-0.122366	-0.102724	-13.37	-11.76	1.19	0.4138	0.1749	-0.1502	
-0.95892	-0.130662	-0.194956	-8.61	-6.02	2.87	0.4108	0.181	-0.1471	
-0.968558	-0.14152	-0.144814	5.67	3.08	3.5	0.4079	0.1842	-0.1424	
-0.989664	-0.144082	-0.141642	4.69	2.59	3.92	0.4167	0.1779	-0.1456	
-0.984296	-0.122732	-0.16836	7.77	2.73	4.9	0.4151	0.1796	-0.1349	
-0.983564	-0.115656	-0.150182	12.46	2.31	6.51	0.4094	0.1735	-0.1395	
-0.974536	-0.091012	-0.156404	9.38	1.19	8.26	0.4181	0.1779	-0.1486	
-0.986858	-0.08723	-0.1708	1.89	3.01	10.08	0.4225	0.1748	-0.1487	
-0.99003	-0.07869	-0.157014	-2.17	5.67	11.69	0.4182	0.1642	-0.1381	
-0.986492	-0.088938	-0.134078	-6.58	4.48	13.79	0.4197	0.1627	-0.1335	
-0.981978	-0.098454	-0.155428	-7.42	2.31	16.31	0.4211	0.1703	-0.1381	
-0.970266	-0.092964	-0.18361	-3.99	3.78	19.74	0.4153	0.1627	-0.1366	
-0.978318	-0.090524	-0.171166	6.3	7.42	22.96	0.4066	0.1689	-0.141	
-0.924516	-0.056608	-0.127002	11.55	11.69	23.94	0.4285	0.1564	-0.1458	
-0.988566	-0.093208	-0.182268	-12.25	11.2	29.19	0.4241	0.1535	-0.1306	
-0.985394	-0.059536	-0.219112	6.79	8.26	32.34	0.4256	0.1459	-0.1276	
-0.997472	-0.05978	-0.19093	9.87	11.27	36.19	0.4286	0.1442	-0.1383	
-0.993934	-0.047458	-0.188612	15.12	9.8	38.5	0.4258	0.1381	-0.146	
-0.990152	-0.052582	-0.21167	19.18	4.2	40.95	0.4288	0.1228	-0.1355	
-0.969046	-0.05063	-0.223748	26.74	0.7	42.56	0.4303	0.1228	-0.1309	
-0.974048	-0.04026	-0.180926	50.12	-0.49	42.35	0.4391	0.1089	-0.1341	
-0.958188	0.006832	-0.162382	70.21	-10.08	43.47	0.4364	0.0968	-0.1312	
-0.999668	0.035868	-0.194346	76.65	-21.21	53.27	0.4394	0.0905	-0.145	
-1.00345	0.005124	-0.185806	46.06	-28.28	55.44	0.4423	0.0844	-0.1435	
-1.034804	0.015006	-0.214476	67.41	-31.22	51.38	0.4368	0.0615	-0.1467	
-1.082628	0.022204	-0.231556	67.62	-39.34	50.12	0.4369	0.0523	-0.1483	
-1.05774	0.003294	-0.210206	74.06	-45.99	49.07	0.44	0.043	-0.1545	
-0.98088	0.09638	-0.118706	107.24	-57.4	30.1	0.4242	0.0385	-0.1667	
-1.01931	0.146888	-0.236924	152.32	-71.12	44.8	0.4316	0.026	-0.1836	
-1.000522	0.109068	-0.236192	86.1	-67.62	47.18	0.4333	0.0076	-0.1899	
-1.010282	0.13176	-0.238388	115.15	-53.48	42.91	0.4277	-0.0015	-0.2006	
-0.981246	0.108824	-0.264496	111.09	-28.98	34.02	0.425	-0.0123	-0.2144	
-0.940986	0.316468	-0.248148	164.22	-0.84	46.69	0.4236	-0.0214	-0.2023	
-0.96746	0.213744	-0.22997	82.39	14	56.56	0.4237	-0.0321	-0.2009	
-1.009184	0.218502	-0.148352	108.08	16.73	52.64	0.4225	-0.0534	-0.195	
-0.980026	0.205936	-0.103212	103.88	-0.91	46.55	0.4183	-0.0747	-0.1845	
-0.943792	0.357094	-0.136152	129.57	-1.89	38.85	0.4257	-0.0825	-0.1922	
-0.961238	0.26047	-0.123708	19.81	-19.6	46.69	0.4215	-0.0977	-0.1893	
-0.983442	0.295484	-0.152012	78.68	-28.84	35.35	0.4186	-0.1037	-0.1847	
-1.125328	0.304268	-0.180438	65.87	-20.23	30.52	0.4058	-0.1129	-0.2	
-0.887062	0.310856	-0.113582	57.96	-26.53	29.82	0.4073	-0.122	-0.1879	
-0.841068	0.29463	-0.27633	44.17	-49.98	36.54	0.406	-0.1342	-0.191	
-1.036268	0.317078	-0.357826	44.38	-5.25	34.02	0.406	-0.1388	-0.188	
-1.119716	0.382592	-0.063562	117.67	29.68	29.68	0.4003	-0.1433	-0.188	
-0.838506	0.4148	0.043188	42.14	-30.66	37.38	0.399	-0.16	-0.1775	
-0.939766	0.249734	-0.197152	-1.68	-53.97	32.83	0.3976	-0.1585	-0.1866	
-1.011258	0.456524	-0.131882	112.77	2.03	19.18	0.4033	-0.1555	-0.1805	
-0.984662	0.428098	-0.08479	94.64	0.7	7.42	0.3976	-0.1707	-0.1745	
-0.751398	0.479826	-0.032818	43.82	-61.67	33.11	0.3877	-0.1858	-0.1731	
-0.880718	0.243268	-0.268034	-52.29	-50.12	27.3	0.3921	-0.1861	-0.1975	
-0.78995	0.527894	-0.349652	48.72	46.34	19.46	0.392	-0.1844	-0.1823	
-1.06262	0.450668	0.22875	-10.64	20.58	27.58	0.3864	-0.1966	-0.1778	
-0.9272	0.39467	0.083448	-15.19	-23.59	26.6	0.385	-0.2011	-0.1778	
-0.927932	0.409798	-0.281576	25.48	-33.39	9.45	0.3762	-0.1919	-0.1823	
-0.897432	0.460428	-0.167994	7.14	-4.48	11.76	0.3821	-0.1981	-0.1854	
-0.88328	0.388204	-0.10614	-14.07	9.24	13.3	0.3851	-0.2088	-0.184	
-0.911828	0.395402	-0.02318	13.65	-9.66	4.13	0.3734	-0.2041	-0.1823	
-0.91683	0.38247	-0.192028	1.33	-10.57	4.27	0.3748	-0.1995	-0.1823	
-0.917684	0.371368	-0.108946	4.76	2.73	2.73	0.3821	-0.1981	-0.1854	
-0.91317	0.377712	-0.07808	4.13	-0.77	2.73	0.3735	-0.2087	-0.1793	
-0.921954	0.383934	-0.114802	5.11	-3.29	1.47	0.3807	-0.2057	-0.187	
-0.92903	0.3904	-0.10858	3.43	-0.42	-0.14	0.3764	-0.2072	-0.187	
-0.917806	0.371002	-0.111386	-1.19	0.63	-0.35	0.3763	-0.2011	-0.1869	
-0.914146	0.384056	-0.09577	4.83	0.63	-1.82	0.372	-0.2071	-0.1793	
-0.92232	0.393084	-0.107116	5.32	-0.98	-2.17	0.3793	-0.2148	-0.1779	
-0.921466	0.385398	-0.12383	-0.21	-0.77	-2.45	0.3793	-0.2072	-0.1809	
-0.919392	0.387716	-0.115046	-0.14	2.45	-3.85	0.3778	-0.1996	-0.1884	
-0.911218	0.389424	-0.098088	-0.42	3.57	-4.97	0.3793	-0.2088	-0.1839	
-0.915244	0.391498	-0.108092	2.66	3.71	-7.42	0.3777	-0.1981	-0.1869	
-0.927322	0.39955	-0.09882	3.85	4.83	-9.38	0.3793	-0.2102	-0.1779	
-0.929884	0.413824	-0.115168	3.22	2.24	-13.93	0.3749	-0.2102	-0.1778	
-0.92049	0.420778	-0.13115	4.2	2.38	-16.59	0.3792	-0.2026	-0.1747	
-0.914634	0.421022	-0.12688	-1.54	3.57	-19.88	0.3849	-0.1934	-0.1732	
-0.909632	0.417972	-0.112972	-4.13	1.61	-24.64	0.3877	-0.1889	-0.1792	
-0.917318	0.416386	-0.107116	-22.96	-0.49	-30.94	0.3848	-0.1874	-0.1792	
-0.941962	0.41053	-0.112484	-29.26	-5.04	-34.72	0.3935	-0.1844	-0.1777	
-0.945622	0.421022	-0.115534	-35	-6.09	-37.31	0.3934	-0.1814	-0.1777	
-0.94306	0.40077	-0.115412	-46.97	-8.75	-37.03	0.3847	-0.1737	-0.1867	
-0.954528	0.414068	-0.15128	-70	-9.38	-34.44	0.3934	-0.1678	-0.2004	
-0.962092	0.369172	-0.154452	-87.64	5.11	-37.03	0.3948	-0.1632	-0.1973	
-0.954162	0.385032	-0.202154	-74.48	21.28	-35.42	0.4018	-0.1434	-0.1987	
-0.960628	0.372954	-0.157624	-43.68	41.16	-39.69	0.4046	-0.1358	-0.1987	
-0.940864	0.397232	-0.112362	-55.09	28.56	-33.53	0.4058	-0.1159	-0.197	
-1.011258	0.328302	-0.048068	-110.53	8.75	-44.73	0.413	-0.1115	-0.2046	
-1.003572	0.341356	-0.071004	-116.13	-13.65	-44.45	0.4129	-0.0977	-0.2075	
-1.007232	0.247904	-0.1342	-138.6	-16.73	-47.81	0.4084	-0.084	-0.2196	
-0.991128	0.287066	-0.130662	-102.41	-8.75	-54.95	0.4038	-0.061	-0.2163	
-1.005158	0.222528	-0.1769	-116.2	-5.04	-52.08	0.4067	-0.0535	-0.2254	
-1.02053	0.22326	-0.186294	-132.65	6.65	-58.94	0.4035	-0.0259	-0.2236	
-0.995886	0.283162	-0.231068	-79.24	24.36	-46.27	0.4136	-0.023	-0.2267	
-1.006866	0.088816	-0.194346	-151.34	53.06	-46.9	0.4105	-0.0077	-0.2281	
-1.052006	0.100162	-0.13664	-96.39	62.93	-53.55	0.4146	0.0061	-0.2142	
-1.057252	0.058804	-0.131516	-123.06	69.51	-52.71	0.4158	0.026	-0.208	
-1.03212	0.032452	-0.166896	-88.06	58.52	-60.2	0.4185	0.0384	-0.188	
-1.021262	-0.009516	-0.152866	-92.12	38.71	-64.82	0.427	0.055	-0.1925	
-1.017236	0.013298	-0.162016	-101.22	24.36	-66.71	0.4267	0.0751	-0.174	
-1.003694	-0.009638	-0.195688	-104.16	18.13	-58.38	0.4281	0.0797	-0.1725	
-0.97661	-0.058926	-0.249978	-94.29	12.67	-48.37	0.422	0.0966	-0.1646	
-0.998448	-0.059414	-0.214232	-79.03	5.25	-47.11	0.4278	0.1027	-0.1692	
-0.888648	-0.08113	-0.148962	-61.53	3.08	-41.09	0.4247	0.1196	-0.1629	
-0.974292	-0.034648	-0.287066	-86.8	-8.47	-33.04	0.4217	0.1257	-0.1598	
-0.998936	-0.179828	-0.215086	-33.46	8.12	-34.44	0.4201	0.1365	-0.1582	
-0.96746	-0.13725	-0.12749	-20.72	-8.96	-34.86	0.4259	0.1364	-0.1552	
-0.962946	-0.15128	-0.144936	-36.54	-15.82	-33.04	0.417	0.1549	-0.1549	
-0.964898	-0.161894	-0.190686	-46.06	-10.57	-28.63	0.4183	0.164	-0.161	
-0.967826	-0.189466	-0.15128	-23.45	-4.27	-26.32	0.4052	0.1704	-0.1517	
-0.963312	-0.17934	-0.100284	-9.87	-3.71	-25.69	0.4096	0.1687	-0.1563	
-0.967094	-0.183488	-0.099064	-27.79	-7.28	-22.47	0.4094	0.178	-0.1471	
-0.993324	-0.2074	-0.111386	-25.97	-3.15	-18.9	0.4037	0.1734	-0.1593	
-0.971852	-0.197884	-0.082716	-8.05	-0.28	-16.1	0.4065	0.1795	-0.1531	
-0.991494	-0.193248	-0.08235	-12.88	-4.83	-11.55	0.4137	0.187	-0.1592	
-1.011746	-0.185806	-0.113948	-4.69	-4.41	-8.96	0.4021	0.1873	-0.1485	
-0.993202	-0.158356	-0.08235	13.16	-2.38	-6.86	0.4094	0.1886	-0.1577	
-0.975146	-0.141032	-0.071736	8.19	-3.57	-4.13	0.4007	0.1842	-0.1531	
-0.977708	-0.120536	-0.089182	3.78	-3.92	-2.1	0.3949	0.1873	-0.1591	
-0.98149	-0.132492	-0.108336	-0.07	-4.62	0.42	0.4021	0.1888	-0.15	
-0.969046	-0.102602	-0.08845	10.08	-0.07	1.12	0.3977	0.1903	-0.1576	
-0.978562	-0.133468	-0.090646	-1.61	-1.47	3.57	0.4079	0.1887	-0.1546	
-0.981856	-0.136762	-0.108458	1.68	0	4.41	0.4065	0.1871	-0.1592	
-0.982588	-0.12993	-0.096258	6.3	2.38	4.83	0.4049	0.1964	-0.1515	
-0.974658	-0.12322	-0.102602	1.05	2.73	5.46	0.3992	0.1858	-0.15	
-0.975512	-0.120658	-0.106506	-2.03	5.32	6.65	0.3979	0.1796	-0.1592	
-0.98576	-0.127978	-0.08845	-4.06	6.09	8.19	0.4095	0.1794	-0.1608	
-0.979172	-0.130296	-0.105286	-9.17	4.9	9.24	0.3992	0.1873	-0.1469	
-0.978318	-0.13115	-0.113338	-9.03	7.35	11.06	0.4094	0.1795	-0.1501	
-0.991372	-0.137982	-0.115412	-5.25	10.29	13.51	0.4065	0.181	-0.1547	
-0.993324	-0.132614	-0.116266	1.89	11.27	15.05	0.3992	0.1812	-0.1455	
-0.986004	-0.12566	-0.117608	5.53	11.76	17.57	0.4209	0.1795	-0.1364	
-0.985638	-0.129808	-0.135908	4.69	11.48	23.38	0.4153	0.1749	-0.1487	
-1.019188	-0.142008	-0.119316	-3.92	18.06	29.47	0.4124	0.1688	-0.1502	
-0.98027	-0.117486	-0.193736	7.7	10.64	33.32	0.4139	0.1627	-0.1457	
-1.003084	-0.108092	-0.182878	17.01	15.54	34.86	0.4139	0.1627	-0.1457	
-0.988444	-0.102968	-0.17385	28.35	15.61	36.96	0.4097	0.149	-0.1397	
-0.979416	-0.077226	-0.17751	29.19	12.39	40.11	0.4258	0.1351	-0.1384	
-0.980148	-0.061732	-0.192272	32.27	9.17	43.26	0.4258	0.1351	-0.1369	
-0.980392	-0.054412	-0.203252	39.76	6.44	47.11	0.4317	0.1289	-0.14	
-0.983076	-0.045262	-0.222284	53.2	3.01	49.77	0.4304	0.1196	-0.1492	
-0.963556	-0.022448	-0.203008	64.05	-3.36	50.54	0.426	0.1198	-0.1385	
-0.955748	0.026108	-0.151402	72.8	-9.59	50.19	0.4291	0.1059	-0.1432	
-1.018456	0.040138	-0.167506	74.41	-22.61	58.73	0.4335	0.0997	-0.1464	
-1.018212	0.010858	-0.162504	43.96	-37.59	59.29	0.4423	0.0919	-0.1541	
-1.012478	0.031598	-0.186904	69.23	-42.77	52.08	0.4281	0.0661	-0.1512	
-1.041636	0.032208	-0.18544	69.44	-51.38	48.58	0.4355	0.0628	-0.1665	
-1.057862	0.043432	-0.119194	94.43	-66.57	38.92	0.4414	0.058	-0.1788	
-1.096048	0.076982	-0.203618	139.09	-78.33	52.29	0.4345	0.0321	-0.1851	
-0.98576	0.069784	-0.230336	99.26	-70.28	51.17	0.419	0	-0.2021	
-0.956236	0.086132	-0.24034	124.6	-53.06	48.51	0.4247	0.006	-0.2112	
-0.938424	0.238998	-0.320616	138.53	-15.4	44.8	0.4134	-0.0106	-0.2113	
-1.139724	0.230336	-0.38369	133.98	38.01	63.07	0.4108	-0.0336	-0.2176	
-0.915244	0.249856	-0.113582	119.35	45.64	59.92	0.421	-0.0504	-0.2026	
-0.996618	0.237778	-0.078568	130.48	8.96	57.89	0.4212	-0.0672	-0.1966	
-0.970876	0.27999	-0.073932	119.28	-3.01	58.31	0.4156	-0.087	-0.1968	
-0.973682	0.256932	-0.093818	89.95	-30.8	53.62	0.4157	-0.0945	-0.1877	
-1.095072	0.26657	-0.197518	78.82	-51.59	38.01	0.4115	-0.1099	-0.1954	
-0.944646	0.385032	-0.20618	132.23	-41.79	28.42	0.4059	-0.119	-0.2046	
-0.92171	0.367952	-0.202398	74.13	-56.84	34.72	0.4059	-0.1296	-0.1925	
-1.009306	0.334768	-0.323544	70.7	-39.69	29.82	0.4002	-0.1342	-0.1986	
-0.911584	0.441152	-0.258762	140.56	6.79	30.03	0.4062	-0.1465	-0.1988	
-0.95648	0.448106	-0.112728	84.77	10.78	34.16	0.4019	-0.1555	-0.1851	
-0.94611	0.468602	-0.048068	59.08	-14	35.35	0.3891	-0.1799	-0.1898	
-0.90829	0.454206	-0.021472	50.82	-23.66	37.87	0.3949	-0.1784	-0.1868	
-0.894016	0.445788	-0.086498	60.34	-23.59	30.94	0.3863	-0.1874	-0.1777	
-0.88816	0.481168	-0.13298	42.07	-33.74	27.44	0.3893	-0.1981	-0.1732	
-0.907924	0.464088	-0.14884	41.79	-20.93	21.28	0.3835	-0.1996	-0.1763	
-0.928542	0.471774	-0.138348	27.02	-17.57	22.82	0.3821	-0.2072	-0.1763	
-0.90829	0.49959	-0.128222	-21	-19.81	27.23	0.3807	-0.2057	-0.1809	
-0.8967	0.421632	-0.184586	17.43	-0.21	11.13	0.3764	-0.2057	-0.1854	
-0.920978	0.488122	-0.089304	-3.92	14.14	14.14	0.3837	-0.2164	-0.1795	
-0.91866	0.415898	-0.01708	-14.49	2.52	15.61	0.3692	-0.2147	-0.1763	
-0.901946	0.42273	-0.124196	0.07	-9.38	9.38	0.3735	-0.2102	-0.1778	
-0.899506	0.409188	-0.130418	-4.06	-0.77	6.58	0.3604	-0.207	-0.1793	
-0.9028	0.413092	-0.091744	-3.08	2.38	3.64	0.3737	-0.227	-0.1795	
-0.91195	0.406626	-0.104798	-3.99	0.28	3.29	0.3693	-0.2163	-0.1855	
-0.902922	0.40138	-0.119926	-5.53	0.84	1.89	0.3621	-0.2208	-0.1901	
-0.903898	0.380762	-0.118828	-8.89	2.59	0.77	0.3693	-0.2193	-0.1809	
-0.914268	0.365146	-0.108336	-6.72	2.38	1.4	0.3693	-0.2194	-0.187	
-0.923296	0.37637	-0.136518	0.63	1.12	-0.42	0.3679	-0.2194	-0.1901	
-0.93147	0.383934	-0.112606	-0.07	3.85	-1.05	0.3707	-0.2148	-0.1855	
-0.911096	0.394426	-0.11285	1.33	1.47	-1.68	0.3736	-0.2133	-0.1855	
-0.91073	0.396866	-0.131272	1.54	1.26	-1.96	0.3707	-0.2148	-0.184	
-0.922076	0.40138	-0.122976	0.49	3.71	-1.82	0.3693	-0.2224	-0.184	
-0.917074	0.39955	-0.113948	0.28	4.27	-2.66	0.3737	-0.2255	-0.178	
-0.90463	0.400648	-0.119926	-2.87	3.43	-3.92	0.3737	-0.227	-0.1841	
-0.909754	0.40565	-0.1098	-3.15	4.83	-6.65	0.3764	-0.2102	-0.1824	
-0.90768	0.407846	-0.106262	-2.03	4.2	-8.96	0.3664	-0.2208	-0.184	
-0.912194	0.40565	-0.113948	-0.84	3.15	-10.78	0.3693	-0.2178	-0.1824	
-0.90402	0.413824	-0.115046	0.56	6.72	-12.6	0.3749	-0.2086	-0.1763	
-0.90219	0.428586	-0.10614	1.26	10.5	-14.63	0.3735	-0.2087	-0.1793	
-0.924272	0.424926	-0.105774	-4.9	8.82	-17.78	0.3778	-0.2086	-0.1687	
-0.925858	0.40626	-0.13176	-21.63	5.18	-19.95	0.3793	-0.2133	-0.1794	
-0.935618	0.406382	-0.135542	-23.03	-3.43	-21.91	0.3893	-0.2012	-0.1748	
-0.935618	0.435418	-0.127246	-37.66	-4.2	-21.77	0.3922	-0.1967	-0.1824	
-0.94916	0.405528	-0.159454	-66.08	-1.96	-20.65	0.3791	-0.1905	-0.1899	
-0.935984	0.379054	-0.171776	-47.81	10.78	-25.48	0.3847	-0.1752	-0.1821	
-0.97051	0.386374	-0.146644	-54.95	15.68	-25.69	0.3906	-0.1799	-0.1898	
-0.947086	0.35929	-0.107238	-57.26	16.24	-24.15	0.392	-0.1799	-0.1929	
-0.94489	0.345504	-0.083082	-66.85	9.94	-23.66	0.3962	-0.1647	-0.1958	
-0.95709	0.344772	-0.083326	-65.31	4.69	-28	0.3816	-0.1554	-0.1942	
-0.949282	0.344162	-0.107482	-63.7	-2.45	-29.82	0.3932	-0.1495	-0.2048	
-0.951356	0.350018	-0.12871	-56.77	-6.02	-25.48	0.4004	-0.1405	-0.2124	
-0.975634	0.335256	-0.140056	-58.66	-1.33	-24.01	0.3974	-0.1297	-0.2138	
-0.970876	0.310002	-0.116632	-84.77	2.31	-29.89	0.3959	-0.1221	-0.2214	
-0.95282	0.307074	-0.085034	-83.09	-0.56	-28.91	0.3987	-0.113	-0.2259	
-0.989664	0.269864	-0.08784	-91.63	2.03	-27.86	0.3956	-0.1023	-0.2243	
-0.999546	0.246928	-0.093452	-87.64	9.17	-30.38	0.4028	-0.0902	-0.2303	
-0.979416	0.26108	-0.06734399	-78.89	8.19	-33.04	0.4027	-0.081	-0.2272	
-0.99308	0.238998	-0.055388	-81.06	4.69	-33.46	0.3982	-0.0733	-0.2301	
-0.986004	0.257298	-0.07905599	-70.07	4.97	-34.02	0.4126	-0.0673	-0.2286	
-0.98088	0.237168	-0.09577	-62.02	10.92	-30.73	0.4111	-0.0597	-0.2285	
-0.990274	0.210938	-0.080154	-80.15	18.27	-31.22	0.4052	-0.0444	-0.2345	
-1.000278	0.195688	-0.089304	-68.18	23.45	-27.79	0.408	-0.0367	-0.2329	
-0.98637	0.138104	-0.092598	-74.69	29.82	-23.24	0.4121	-0.02	-0.2328	
-1.014186	0.125172	-0.03599	-71.26	29.33	-23.73	0.4062	-0.0168	-0.2235	
-1.038098	0.080276	-0.02257	-66.92	21.42	-24.29	0.4178	-0.0153	-0.2144	
-1.035292	0.073322	-0.028914	-54.18	10.5	-25.27	0.4103	0.003	-0.2203	
-1.00894	0.053558	-0.042334	-51.03	1.68	-25.13	0.4175	0.0106	-0.2112	
-1.006744	0.033916	-0.079544	-45.01	-3.85	-25.9	0.4102	0.0153	-0.2172	
-1.01382	0.03233	-0.09942999	-35.28	-3.01	-23.31	0.4189	0.0136	-0.2203	
-1.010526	0.022082	-0.099064	-24.08	0.07	-22.82	0.4115	0.0259	-0.2201	
-1.025044	0.001586	-0.083204	-17.57	1.68	-19.95	0.4143	0.0335	-0.2201	
-1.030412	-0.011834	-0.089304	-11.9	1.47	-20.16	0.4187	0.0349	-0.2308	
-1.023458	-0.035624	-0.087352	-2.66	0.56	-18.97	0.4128	0.0443	-0.2215	
-0.994178	-0.043432	-0.058316	12.46	-4.06	-18.41	0.4128	0.0428	-0.2154	
-1.014064	-0.003538	-0.033672	23.24	-13.3	-17.01	0.4171	0.0397	-0.2155	
-0.99125	0.032696	-0.09577	21.28	-10.08	-12.11	0.4142	0.0473	-0.223	
-1.019554	0.021472	-0.11468	27.72	-12.53	-9.03	0.4098	0.0504	-0.2214	
-1.020164	0.035258	-0.074054	46.69	-7.98	-7.63	0.4056	0.0427	-0.2383	
-0.996862	0.038308	-0.03538	38.71	-3.15	-4.83	0.4128	0.0426	-0.2307	
-0.982222	0.061488	-0.005368	40.18	-8.26	0.35	0.4085	0.0442	-0.2322	
-1.020042	0.058804	-0.006588	30.66	-18.48	1.89	0.4173	0.0349	-0.2369	
-1.03151	0.08113	-0.024522	42.28	-22.89	-1.12	0.4115	0.0335	-0.2292	
-1.01809	0.11285	-0.020252	38.85	-21.07	-1.75	0.4087	0.0303	-0.2475	
-1.016748	0.100894	-0.024522	32.27	-16.66	-0.35	0.4058	0.0334	-0.2444	
-1.012966	0.11468	-0.008174	28	-10.78	2.87	0.4001	0.0228	-0.2445	
-1.001376	0.099674	0.010736	21.14	-9.8	4.55	0.4	0.0274	-0.2445	
-1.017602	0.09747799	0.007198	25.83	-7.98	4.55	0.4044	0.0288	-0.2491	
-1.003084	0.098454	0.03599	20.86	-8.96	5.95	0.4017	0.012	-0.2461	
-1.007476	0.096624	0.038552	18.83	-14.7	5.81	0.3944	0.0197	-0.2521	
-1.019188	0.09333	0.017568	18.41	-15.89	5.81	0.3973	0.0136	-0.2507	
-1.01382	0.095038	0.009393999	20.23	-13.37	5.53	0.403	0.0212	-0.2522	
-0.992836	0.103822	0.006222	16.1	-15.89	5.53	0.3945	0.0136	-0.2537	
-1.002108	0.097844	-0.012078	15.75	-9.38	5.46	0.396	0.0105	-0.2583	
-1.011624	0.102846	0.008296	17.99	-0.91	6.09	0.3975	0.0044	-0.2538	
-1.021384	0.10065	0.034282	16.66	-0.77	4.97	0.4017	0.0105	-0.2507	
-1.000034	0.110166	0.05002	13.79	-8.05	4.06	0.3974	0.009	-0.2507	
-1.022482	0.10248	0.032452	9.38	-11.13	3.57	0.4077	-0.0049	-0.2585	
-1.011624	0.10675	0.03416	12.81	-12.11	3.99	0.3961	-0.0017	-0.2645	
-0.991006	0.102968	0.047336	15.89	-11.13	4.06	0.3974	0.0074	-0.2553	
-1.006256	0.09821	0.035502	7.28	-14.84	4.55	0.3947	-0.0032	-0.263	
-0.980758	0.105896	0.031842	12.6	-7.28	4.97	0.3962	-0.0048	-0.2691	
-1.017358	0.10309	0.036234	11.83	0.28	5.74	0.3978	-0.0156	-0.2723	
-0.987102	0.119316	0.086498	16.1	1.75	6.44	0.3977	-0.0124	-0.2601	
-0.99918	0.123342	0.078324	6.02	-4.06	5.81	0.3903	0	-0.2553	
-1.012234	0.136274	0.064172	10.29	-4.69	4.27	0.3963	-0.0155	-0.2708	
-0.99979	0.147254	0.058316	5.53	-7.35	3.08	0.3861	-0.0108	-0.2646	
-1.003206	0.158478	0.055876	1.68	-2.24	0.35	0.3933	-0.0077	-0.2585	
-1.009672	0.152622	0.06039	-3.29	-0.91	-0.98	0.389	-0.0124	-0.2692	
-0.993324	0.1464	0.071614	-3.57	-0.28	-1.75	0.3876	-0.0139	-0.2661	
-0.994056	0.132004	0.064904	-8.12	-3.36	-1.47	0.3905	-0.0139	-0.2631	
-0.98515	0.131028	0.051362	-3.5	-1.68	-1.89	0.3933	-0.0108	-0.2631	
-1.013698	0.128222	0.053192	-8.12	-2.59	-0.98	0.3876	-0.0154	-0.2661	
-0.99918	0.131638	0.040626	-4.41	0.21	-1.33	0.389	-0.0108	-0.2661	
-1.00284	0.12322	0.050264	-7.63	1.75	-0.77	0.3848	-0.0199	-0.2646	
-1.001254	0.116144	0.058682	-6.72	3.64	-0.91	0.3918	-0.0032	-0.2661	
-1.003816	0.108824	0.064172	-7.91	2.52	-0.98	0.3991	-0.0063	-0.2661	
-1.00772	0.109068	0.061122	-6.86	-0.49	-1.19	0.3918	-0.0001	-0.2645	
-1.0065	0.111874	0.052704	-5.74	-2.31	-1.82	0.3904	-0.0092	-0.2585	
-1.002596	0.108946	0.046238	-5.67	-1.54	-1.89	0.389	-0.0078	-0.2737	
-0.999302	0.098088	0.050142	-5.46	0.98	-1.54	0.3976	-0.0078	-0.2646	
-1.005402	0.090036	0.058926	-3.57	2.87	-1.54	0.3889	0.0013	-0.266	
-1.001864	0.092476	0.06344	-0.21	2.66	-2.03	0.3932	-0.0002	-0.2691	
-1.00345	0.100772	0.06466	1.96	1.12	-2.1	0.3976	-0.0017	-0.2645	
-1.001376	0.108214	0.058682	2.59	-0.35	-1.61	0.3932	-0.0016	-0.2615	
-1.00406	0.110166	0.054046	2.38	-0.28	-1.12	0.3861	-0.0077	-0.2691	
-1.005158	0.106384	0.053192	2.38	-0.21	-0.21	0.396	0.0044	-0.2584	
-1.004792	0.105774	0.054046	3.01	-0.07	0.07	0.3904	-0.0063	-0.2707	
-1.004426	0.10248	0.051606	2.94	0	0.49	0.386	-0.0015	-0.2599	
-1.007476	0.101138	0.05124	3.22	-0.56	0.84	0.3932	-0.0017	-0.2676	
-1.007598	0.103334	0.049166	3.08	-0.63	0.77	0.3803	-0.0061	-0.266	
-1.003572	0.110898	0.046848	4.62	-0.14	0.98	0.3947	-0.0048	-0.2707	
-1.004182	0.109678	0.050874	4.48	0.49	1.54	0.3889	-0.0016	-0.263	
-1.003938	0.112484	0.051728	4.62	0.42	1.47	0.3933	-0.0078	-0.2631	
-1.00467	0.11285	0.05124	4.13	-0.14	1.33	0.3932	-0.0001	-0.263	
-1.004548	0.110776	0.0488	2.73	-0.21	0.98	0.3905	-0.0154	-0.2601	
-1.005402	0.109922	0.048678	2.17	0.14	0.7	0.386	-0.0016	-0.2645	
-1.008208	0.109312	0.05002	1.68	0.63	0.28	0.3991	-0.0109	-0.2631	
-1.004914	0.108702	0.04941	1.26	0.49	0.07	0.3919	-0.0093	-0.2646	
-1.0065	0.110166	0.050264	1.12	0.77	0.07	0.3904	-0.0108	-0.2646	
-1.006134	0.1098	0.05002	0.07	0.35	-0.07	0.389	-0.0139	-0.2646	
-1.006622	0.11041	0.048312	-0.42	-0.07	-0.35	0.3889	-0.0062	-0.263	
-1.004914	0.112118	0.048922	-0.84	0.07	-0.42	0.3904	-0.0092	-0.2585	
-1.005158	0.113948	0.048678	-0.91	0	-0.91	0.3874	-0.0061	-0.2539	
-1.004914	0.115168	0.046238	-0.91	-0.21	-1.12	0.3875	-0.0078	-0.2722	
-1.006012	0.113826	0.045384	-1.19	0.07	-1.12	0.3889	-0.0016	-0.266	
-1.00894	0.112972	0.046726	-1.33	-0.07	-1.05	0.3932	-0.0017	-0.2676	
-1.0065	0.11346	0.046482	-1.47	-0.56	-0.98	0.3962	-0.0079	-0.2707	
-1.00833	0.113704	0.047214	-2.03	-0.7	-0.77	0.3875	-0.0092	-0.2615	
-1.008818	0.112362	0.045018	-3.36	-0.7	-0.63	0.3876	-0.0093	-0.2707	
-1.005036	0.107482	0.046238	-4.34	-0.21	-0.56	0.3933	-0.0032	-0.2676	
-1.009428	0.107726	0.046116	-3.5	0.21	-0.56	0.3875	-0.0077	-0.26	
-1.006622	0.109312	0.047092	-1.47	0.28	-0.56	0.4005	-0.0018	-0.2676	