Sensor string: A
Serial number: 1970-01-0000
Firmware version: 2,015
Hardware version: 2,2
Calibration quality: 5
ax	ay	az	gx	gy	gz	mx	my	mz

0.073444	0.963678	0.28365	-0.14	0.84	-0.21	-0.0614	-0.3788	-0.2822	Reference
0.071614	0.963922	0.283528	-0.35	0.91	-0.21	-0.0617	-0.3727	-0.273	
0.073444	0.964166	0.284748	-0.49	0.91	-0.07	-0.0676	-0.3664	-0.2837	
0.0732	0.961848	0.285602	-0.63	0.98	0.14	-0.0707	-0.3601	-0.276	
0.07259	0.959774	0.28914	-0.84	1.05	0.14	-0.0588	-0.3667	-0.2898	
0.072834	0.95831	0.288774	-0.84	1.05	0.28	-0.0661	-0.3664	-0.2852	
0.07259	0.958188	0.288774	-0.77	1.12	0.49	-0.0707	-0.357	-0.2867	
0.072102	0.95831	0.288774	-0.56	1.26	0.63	-0.0645	-0.3711	-0.2837	
0.072224	0.964532	0.28975	-0.56	1.12	0.49	-0.0692	-0.3617	-0.2806	
0.070638	0.971608	0.28853	-0.91	1.33	0.56	-0.0634	-0.365	-0.2745	
0.072468	0.96258	0.287066	-1.47	1.54	0.56	-0.0663	-0.3603	-0.2822	
0.07124799	0.96319	0.293044	-1.26	1.89	0.42	-0.0663	-0.3634	-0.2791	
0.071736	0.964654	0.28975	-1.75	1.89	0.42	-0.0647	-0.3649	-0.2883	
0.071858	0.961726	0.294386	-1.82	2.17	0.35	-0.0588	-0.3682	-0.2868	
0.073322	0.947452	0.291092	-1.68	2.03	0.42	-0.068	-0.3556	-0.2776	
0.081984	0.945744	0.291824	-0.98	1.26	0.28	-0.0617	-0.3696	-0.2776	
0.084546	0.953918	0.292922	-0.63	0.77	0.35	-0.0646	-0.3665	-0.2883	
0.082106	0.957456	0.295606	-0.77	0.7	0.42	-0.0637	-0.3543	-0.2746	
0.080886	0.956236	0.295972	-0.84	0.56	0.28	-0.0562	-0.3622	-0.2792	
0.081984	0.955626	0.300364	-0.63	0.49	0.28	-0.0645	-0.3711	-0.2806	
0.08479	0.955992	0.301096	-0.49	0.84	0.28	-0.0603	-0.3666	-0.2868	
0.08052	0.95587	0.301462	-0.42	1.05	0.35	-0.066	-0.3679	-0.2867	
0.080398	0.954162	0.29646	0	0.63	0.42	-0.0601	-0.3728	-0.2837	
0.079422	0.953796	0.293288	0.14	0.91	0.35	-0.069	-0.3648	-0.2913	
0.077958	0.95892	0.291458	0.07	0.63	0.42	-0.0546	-0.3653	-0.2807	
0.072102	0.962092	0.2928	0.42	0.42	0.28	-0.0546	-0.3668	-0.2838	
0.070394	0.962824	0.290116	0.21	0.14	0	-0.0604	-0.3635	-0.2853	
0.070394	0.964532	0.288652	0.14	-0.07	-0.21	-0.0601	-0.3727	-0.2868	
0.074176	0.964044	0.287432	0	-0.21	-0.42	-0.0588	-0.3682	-0.2868	
0.072956	0.963312	0.286456	0	-0.21	-0.56	-0.0575	-0.3636	-0.2883	
0.072834	0.963434	0.28548	-0.21	-0.42	-0.7	-0.0647	-0.3665	-0.2822	
0.073688	0.962092	0.286456	-0.49	-0.49	-0.7	-0.0559	-0.3698	-0.2838	
0.071614	0.959042	0.281576	-0.56	-0.28	-0.7	-0.0519	-0.3654	-0.2685	
0.0793	0.966606	0.271694	-0.42	-0.63	-0.77	-0.0662	-0.3618	-0.2913	
0.084668	0.97905	0.263398	-0.77	-0.7	-0.56	-0.059	-0.3636	-0.2853	
0.079422	0.970876	0.267668	-1.61	0.63	-0.42	-0.0546	-0.3668	-0.2746	
0.07515199	0.97722	0.241804	-2.66	3.85	-0.42	-0.0605	-0.362	-0.2853	
0.063928	1.007354	0.23912	-4.2	3.71	0	-0.0647	-0.3665	-0.2837	
0.058804	1.022238	0.254248	-7.07	3.08	1.4	-0.0691	-0.3663	-0.2745	
0.043188	0.993812	0.241804	-10.92	3.64	2.52	-0.0663	-0.3587	-0.2898	
0.041236	0.983198	0.25681	-12.32	3.64	3.08	-0.0663	-0.3618	-0.2852	
0.04758	0.98515	0.2806	-13.44	3.43	3.57	-0.06879999	-0.3694	-0.2913	
0.051606	0.993934	0.272426	-15.26	4.34	4.06	-0.0664	-0.3572	-0.2883	
0.053314	0.990884	0.27206	-17.15	3.43	3.85	-0.0551	-0.3499	-0.2808	
0.045628	0.984418	0.275232	-19.6	0.98	3.5	-0.0694	-0.3525	-0.2944	
0.056974	0.973804	0.286456	-20.09	-1.61	2.38	-0.0637	-0.3496	-0.2914	
0.057828	0.979904	0.284992	-19.67	-3.78	1.54	-0.0622	-0.3496	-0.3005	
0.050142	0.981978	0.286944	-22.19	-5.32	2.24	-0.0667	-0.3433	-0.302	
0.054046	0.99308	0.289872	-24.08	-6.86	2.38	-0.0594	-0.3451	-0.3036	
0.062586	0.990152	0.27938	-27.93	-6.86	3.15	-0.0667	-0.3464	-0.2975	
0.072712	0.97478	0.29829	-30.31	-6.02	3.57	-0.0681	-0.3417	-0.3112	
0.07381	0.987102	0.28487	-32.62	-4.27	4.13	-0.0713	-0.3324	-0.3127	
0.069174	0.962702	0.305366	-34.51	-1.82	4.76	-0.0642	-0.3265	-0.3174	
0.06649	0.956602	0.333182	-36.61	1.26	5.67	-0.07009999	-0.3233	-0.3204	
0.070028	0.950258	0.321226	-39.27	2.03	7.35	-0.0615	-0.3205	-0.3251	
0.074054	0.950502	0.35746	-40.81	5.18	8.33	-0.0731	-0.317	-0.3326	
0.06734399	0.960628	0.327326	-43.75	5.95	10.08	-0.0691	-0.3064	-0.3296	
0.048434	0.934154	0.325984	-49.7	5.95	11.69	-0.0748	-0.3093	-0.3295	
0.068076	0.893528	0.392474	-52.78	8.26	13.16	-0.0708	-0.2971	-0.3403	
0.056608	0.855952	0.373808	-53.69	7.28	14.98	-0.08109999	-0.2891	-0.3433	
0.070882	0.85217	0.380152	-53.06	7.77	15.4	-0.0741	-0.2816	-0.3495	
0.055266	0.874008	0.384056	-51.8	6.65	15.47	-0.0802	-0.2722	-0.3479	
0.051362	0.884622	0.413336	-54.88	5.95	16.38	-0.0801	-0.2722	-0.3525	
0.04148	0.870104	0.415776	-58.31	4.48	17.43	-0.07319999	-0.2617	-0.3633	
0.051606	0.842654	0.442372	-64.26	5.67	18.62	-0.0753	-0.2433	-0.3572	
0.064172	0.825208	0.478118	-68.18	6.72	19.32	-0.0769	-0.2355	-0.3664	
0.062098	0.80825	0.507032	-70.84	8.05	20.02	-0.0769	-0.2309	-0.3801	
0.065026	0.82472	0.511912	-69.79	10.22	18.76	-0.0872	-0.2259	-0.377	
0.072346	0.774212	0.475678	-76.02	9.17	19.88	-0.0778	-0.2048	-0.3848	
0.061976	0.73749	0.512278	-79.1	9.31	22.54	-0.0807	-0.2016	-0.3863	
0.169214	0.737002	0.569008	-79.94	6.65	21.35	-0.0726	-0.1835	-0.3955	
0.106872	0.698694	0.578036	-86.31	1.68	21.63	-0.0857	-0.1769	-0.4031	
0.19337	0.69784	0.592432	-85.19	3.22	16.94	-0.079	-0.1618	-0.4016	
0.188856	0.644404	0.610976	-93.66	-1.68	14.49	-0.08	-0.131	-0.4094	
0.18239	0.609146	0.656482	-97.58	-7.91	14.35	-0.0888	-0.1246	-0.4108	
0.17995	0.584624	0.682712	-104.93	-10.5	13.58	-0.0822	-0.1064	-0.414	
0.227896	0.523502	0.69784	-105.7	-10.08	11.2	-0.0858	-0.0848	-0.414	
0.185318	0.45933	0.71797	-115.71	-15.12	16.45	-0.0902	-0.0816	-0.4231	
0.113704	0.426756	0.731878	-114.1	-16.38	16.31	-0.1013	-0.049	-0.4231	
0.172386	0.365146	0.747372	-118.37	-13.93	20.16	-0.09209999	-0.0264	-0.4156	
0.186294	0.335378	0.749202	-116.41	-21.42	20.79	-0.0984	-0.0093	-0.4125	
0.204228	0.286944	0.794464	-119.84	-20.93	22.54	-0.1074	0.0017	-0.4155	
0.223138	0.26352	0.811422	-120.4	-25.34	22.89	-0.1097	0.0263	-0.414	
0.205814	0.20435	0.83326	-122.08	-31.08	22.61	-0.1031	0.0444	-0.4126	
0.23302	0.154452	0.823012	-124.18	-30.66	21.35	-0.1066	0.063	-0.408	
0.27816	0.08784	0.842166	-129.01	-38.15	21.77	-0.1205	0.088	-0.4003	
0.314272	0.037698	0.81618	-145.95	-31.92	23.03	-0.1271	0.1081	-0.3866	
0.270474	-0.050386	0.90219	-146.44	-33.11	22.05	-0.1306	0.1251	-0.385	
0.317078	-0.1159	0.933056	-136.92	-49.56	20.16	-0.131	0.1358	-0.382	
0.295606	-0.160308	0.915732	-108.22	-43.89	20.44	-0.1391	0.1606	-0.3713	
0.356728	-0.218746	0.917684	-104.93	-40.18	22.19	-0.1427	0.1791	-0.3591	
0.358314	-0.23607	0.91988	-96.6	-36.26	20.86	-0.1467	0.2068	-0.3438	
0.390766	-0.271938	0.910608	-90.65	-33.04	19.81	-0.1512	0.2131	-0.3438	
0.404796	-0.305366	0.921954	-86.45	-29.68	19.04	-0.162	0.2303	-0.3346	
0.41297	-0.350384	0.904996	-82.04	-25.48	16.8	-0.1553	0.2438	-0.3255	
0.423706	-0.399672	0.904874	-76.86	-20.16	15.47	-0.1612	0.244	-0.3102	
0.410408	-0.430904	0.91012	-67.9	-18.9	15.05	-0.1575	0.2623	-0.3118	
0.463722	-0.440908	0.926712	-60.69	-16.31	15.75	-0.1608	0.2716	-0.298	
0.43432	-0.453962	0.920002	-54.74	-15.05	14.91	-0.1595	0.2761	-0.2935	
0.447008	-0.461038	0.910242	-49.84	-14.07	14.91	-0.1657	0.284	-0.2858	
0.450058	-0.47946	0.897432	-46.83	-13.23	13.86	-0.1616	0.2899	-0.2782	
0.443226	-0.486048	0.899994	-39.2	-12.53	11.9	-0.1606	0.3022	-0.2767	
0.454206	-0.47885	0.89609	-33.53	-12.04	9.94	-0.1632	0.29	-0.2584	
0.453718	-0.463966	0.89304	-27.72	-10.99	6.72	-0.1607	0.3006	-0.2599	
0.436028	-0.464576	0.882548	-24.01	-10.43	2.94	-0.1578	0.302	-0.2646	
0.423706	-0.450546	0.864858	-21.35	-8.47	2.38	-0.1566	0.3081	-0.2646	
0.429806	-0.43554	0.86193	-17.64	-8.12	1.82	-0.1659	0.3253	-0.2493	
0.430904	-0.422242	0.854976	-14.35	-7.07	1.19	-0.1729	0.3179	-0.2522	
0.432002	-0.42517	0.865834	-11.62	-6.02	0.98	-0.167	0.3146	-0.2462	
0.431758	-0.391986	0.857294	-8.26	-6.16	0.63	-0.1656	0.3145	-0.2462	
0.428342	-0.360388	0.861442	-5.81	-6.86	-1.54	-0.1673	0.3223	-0.2447	
0.429074	-0.349774	0.839116	-7.77	-7	-3.5	-0.1671	0.3146	-0.2416	
0.422852	-0.35685	0.810568	-9.87	-7.21	-2.94	-0.167	0.313	-0.2416	
0.434076	-0.345016	0.81496	-6.58	-4.2	-1.75	-0.1668	0.31	-0.2507	
0.454694	-0.347212	0.819352	-9.59	-4.76	-1.19	-0.1731	0.3225	-0.2431	
0.502518	-0.406016	0.849364	-9.52	-2.73	-0.35	-0.1674	0.3238	-0.2416	
0.411994	-0.381616	0.789096	-9.31	5.53	2.8	-0.1757	0.3133	-0.2384	
0.398208	-0.403454	0.780434	-8.05	4.83	3.43	-0.1658	0.3207	-0.2447	
0.399428	-0.398086	0.806054	-6.37	3.78	4.41	-0.1716	0.3209	-0.2461	
0.414678	-0.408334	0.814472	-6.16	3.22	3.08	-0.1629	0.3175	-0.2386	
0.397476	-0.410042	0.808006	-4.69	2.52	1.47	-0.1674	0.3207	-0.2324	
0.398696	-0.411506	0.811178	-4.34	1.4	1.54	-0.1658	0.3207	-0.2492	
0.40809	-0.437004	0.828014	-5.11	0.21	2.1	-0.1703	0.3254	-0.2446	
0.414068	-0.449326	0.837042	-4.62	-1.47	2.45	-0.1688	0.3223	-0.2385	
0.425048	-0.459208	0.826184	-3.22	-2.45	1.68	-0.1589	0.3296	-0.2417	
0.444812	-0.465552	0.833138	-0.63	-3.29	0.91	-0.1717	0.3224	-0.2354	
0.455182	-0.471774	0.838506	2.59	0	1.68	-0.17	0.3162	-0.2416	
0.459574	-0.48617	0.878034	2.59	2.1	3.85	-0.153	0.3248	-0.2372	
0.464088	-0.518012	0.909022	2.94	2.59	5.6	-0.1734	0.3301	-0.2354	
0.46665	-0.571814	0.916098	5.74	2.38	5.18	-0.1588	0.3235	-0.2386	
0.47824	-0.623542	0.931714	10.5	1.19	3.08	-0.1692	0.3315	-0.2324	
0.498248	-0.655994	0.928542	16.94	-0.14	0.7	-0.169	0.3269	-0.2401	
0.50874	-0.661606	0.920246	26.6	0.63	-2.1	-0.1613	0.3128	-0.2401	
0.510204	-0.67222	0.91683	36.19	2.8	-5.88	-0.1598	0.3113	-0.2416	
0.50752	-0.683078	0.913414	45.43	5.95	-10.36	-0.1643	0.3191	-0.2508	
0.51484	-0.674538	0.916342	57.61	6.09	-16.03	-0.1729	0.3194	-0.2568	
0.507642	-0.616344	0.902678	73.71	10.57	-23.1	-0.1677	0.2993	-0.2721	
0.477996	-0.595726	0.885598	81.34	13.44	-25.27	-0.1683	0.2779	-0.2888	
0.467138	-0.54534	0.879742	90.93	15.26	-28.56	-0.1738	0.2736	-0.2995	
0.451644	-0.502152	0.866566	98.14	14.98	-31.57	-0.1694	0.2688	-0.2918	
0.432612	-0.454084	0.864736	106.61	15.68	-33.88	-0.1733	0.2598	-0.3086	
0.418704	-0.388936	0.839238	109.55	15.96	-35.28	-0.1721	0.2291	-0.3238	
0.401502	-0.34221	0.836676	116.55	16.87	-39.27	-0.1761	0.2185	-0.3253	
0.381372	-0.267058	0.823012	121.17	19.74	-42.49	-0.1785	0.2079	-0.3359	
0.378078	-0.20557	0.796416	123.69	20.16	-45.08	-0.1737	0.1955	-0.3436	
0.361974	-0.140422	0.781044	131.39	20.02	-48.65	-0.1712	0.1663	-0.3557	
0.383812	-0.060878	0.775798	141.89	22.26	-50.68	-0.1731	0.1419	-0.3679	
0.364292	0.008296	0.763232	147.14	27.93	-50.47	-0.1625	0.1246	-0.3695	
0.337574	0.10126	0.757864	161.63	36.12	-48.16	-0.1704	0.1065	-0.38	
0.305366	0.185684	0.707722	173.11	35.07	-45.15	-0.1619	0.0726	-0.3983	
0.300364	0.260348	0.683932	173.81	37.38	-42	-0.1465	0.0398	-0.3877	
0.21167	0.345504	0.660386	163.94	41.37	-41.58	-0.1558	0.0187	-0.3952	
0.207644	0.386984	0.64904	151.69	43.82	-38.99	-0.1402	-0.0155	-0.3968	
0.205326	0.432612	0.599996	150.78	35.14	-40.88	-0.1363	-0.0432	-0.4044	
0.149816	0.49654	0.59719	146.93	35.42	-39.06	-0.1345	-0.054	-0.409	
0.188124	0.553514	0.548512	137.62	26.04	-38.99	-0.1291	-0.08329999	-0.4136	
0.112362	0.575352	0.523624	134.4	23.73	-39.34	-0.1282	-0.1125	-0.4059	
0.114192	0.618296	0.503494	124.95	19.6	-35.63	-0.1145	-0.136	-0.3998	
0.131638	0.637206	0.476654	120.54	13.02	-34.51	-0.1083	-0.1485	-0.4029	
0.145546	0.648918	0.485438	116.06	10.08	-30.73	-0.1107	-0.1668	-0.3952	
0.110776	0.690886	0.441152	115.64	7.77	-29.68	-0.1027	-0.1901	-0.3891	
0.122854	0.746518	0.395158	115.22	5.53	-28.28	-0.1052	-0.2069	-0.3753	
0.087108	0.820572	0.4087	111.58	7.28	-26.53	-0.1017	-0.2285	-0.3677	
0.085278	0.851438	0.350994	100.1	5.67	-23.31	-0.0969	-0.2394	-0.3738	
0.079788	0.87169	0.345138	96.6	5.67	-23.1	-0.0895	-0.252	-0.3524	
0.041602	0.901702	0.313174	92.89	8.05	-23.52	-0.0949	-0.2594	-0.3585	
0.07259	0.906948	0.315248	87.29	6.72	-21.7	-0.0931	-0.2749	-0.3462	
0.033794	0.953674	0.234606	84.49	-2.59	-25.48	-0.0707	-0.3017	-0.3296	
0.02806	0.986614	0.268766	74.76	-4.9	-19.67	-0.076	-0.32	-0.3203	
0.036966	0.998814	0.288042	70.98	-9.17	-20.51	-0.0728	-0.3308	-0.3127	
0.045872	0.981978	0.21899	64.61	-6.51	-18.76	-0.0814	-0.3336	-0.308	
-0.054656	0.986858	0.173728	66.36	-7.77	-22.68	-0.0783	-0.3429	-0.3035	
-0.00549	0.9882	0.207766	64.68	-6.44	-24.08	-0.07229999	-0.3508	-0.2989	
0.00427	1.006622	0.20069	64.47	-9.66	-25.69	-0.0663	-0.3603	-0.2837	
-0.012932	1.01931	0.177144	65.45	-9.38	-27.44	-0.0646	-0.368	-0.2822	
0.0366	1.048468	0.121146	68.74	-4.83	-27.79	-0.0671	-0.3833	-0.2775	
0.02562	1.020896	0.127002	60.48	-1.96	-22.89	-0.0658	-0.3833	-0.2592	
0.007076	1.032242	0.09357399	56.91	-1.26	-22.47	-0.06	-0.3851	-0.2562	
-0.05002	1.0309	0.05429	51.66	0.28	-19.32	-0.0611	-0.3989	-0.2455	
-0.039528	1.048224	0.086254	50.96	3.36	-19.11	-0.0505	-0.4146	-0.244	
-0.099064	0.976244	0.086254	43.82	6.23	-17.5	-0.0463	-0.4117	-0.241	
-0.00061	1.014918	0.117242	41.23	7.07	-17.5	-0.0447	-0.4163	-0.241	
-0.033794	0.99003	0.10736	40.46	5.67	-19.67	-0.0478	-0.4163	-0.2165	
-0.027694	0.983442	0.080154	45.08	1.19	-23.87	-0.0346	-0.4167	-0.2319	
-0.037576	0.986614	0.058194	39.55	1.19	-23.24	-0.0387	-0.4273	-0.2166	
-0.039894	1.01016	0.027572	41.16	2.45	-24.01	-0.0331	-0.4245	-0.2121	
-0.08295999	0.96319	0.028304	39.83	3.36	-24.36	-0.0314	-0.4338	-0.206	
-0.0793	0.99979	0.021472	38.43	1.68	-22.68	-0.0242	-0.4355	-0.2045	
-0.086254	0.99735	0.014884	38.71	2.87	-18.55	-0.0242	-0.4387	-0.1877	
-0.049776	0.989786	0.00671	34.72	4.27	-16.24	-0.0182	-0.445	-0.1954	
-0.047702	0.993812	0.002806	33.39	3.15	-14.35	-0.0194	-0.4511	-0.1938	
-0.06161	1.014552	-0.020862	34.23	3.71	-11.97	-0.0111	-0.4453	-0.1771	
-0.076616	1.00833	-0.031964	32.9	0.77	-10.64	-0.018	-0.4558	-0.177	
-0.06466	0.964044	-0.027084	27.37	0.07	-8.89	-0.0123	-0.4545	-0.1679	
-0.08601	0.952698	-0.020252	29.33	0.07	-8.68	-0.011	-0.453	-0.1618	
-0.076982	0.967338	-0.038308	39.76	-0.91	-10.57	-0.0108	-0.4591	-0.1633	
-0.09467199	1.029192	-0.072224	41.58	-2.73	-11.13	-0.0106	-0.4622	-0.1679	
-0.1037	1.063962	-0.096136	39.34	-3.64	-6.58	0.0022	-0.4627	-0.1558	
-0.066978	1.109102	-0.055266	36.68	-3.5	-1.61	-0.0075	-0.4777	-0.1389	
-0.063684	1.069086	-0.07686	22.75	-6.02	-0.56	-0.0207	-0.4726	-0.1311	
-0.088084	1.045296	-0.121024	15.54	-6.16	-0.49	-0.0121	-0.4745	-0.1251	
-0.105774	1.040782	-0.11529	18.76	-6.09	-3.01	-0.0035	-0.4702	-0.1298	
-0.110654	1.055544	-0.124928	16.38	-5.81	-3.15	-0.0106	-0.4715	-0.1343	
-0.11834	1.034438	-0.111386	14.07	-7.28	-3.64	-0.0064	-0.4701	-0.1236	
-0.096014	1.02114	-0.095038	10.64	-5.95	-2.52	0.0052	-0.4766	-0.1237	
-0.076982	1.012844	-0.115168	10.57	-5.88	-2.94	-0.0048	-0.4763	-0.1206	
-0.062708	1.01016	-0.124928	11.13	-6.02	-3.99	-0.0004	-0.4795	-0.1191	
-0.074176	0.99552	-0.139812	9.38	-6.23	-3.71	-0.009	-0.4807	-0.1205	
-0.103944	1.005646	-0.142252	7.28	-6.16	-2.45	-0.0022	-0.4718	-0.1115	
-0.106506	1.041392	-0.15616	6.09	-5.53	-1.89	-0.0163	-0.4805	-0.1174	
-0.105774	1.019798	-0.154452	6.16	-5.32	-3.01	0.0008	-0.478	-0.1145	
-0.107482	0.987346	-0.152012	6.79	-5.11	-4.62	-0.0137	-0.4714	-0.119	
-0.09857599	0.98637	-0.157746	7.84	-6.86	-4.55	-0.006	-0.4855	-0.1144	
-0.091866	0.994544	-0.166286	7.49	-8.26	-4.13	0.0009	-0.4827	-0.1069	
-0.076982	1.004792	-0.161284	7.07	-6.93	-2.8	0.0022	-0.4766	-0.1069	
-0.100284	1.023458	-0.17263	6.51	-5.74	-1.89	-0.0092	-0.4792	-0.1068	
-0.112362	1.044564	-0.17873	4.13	-4.41	-1.54	0.0008	-0.4781	-0.1084	
-0.111752	1.024068	-0.157624	2.31	-3.64	-2.8	-0.0004	-0.4841	-0.1084	
-0.108336	1.004426	-0.168604	2.87	-3.92	-3.64	-0.0076	-0.4839	-0.1083	
-0.114314	1.026874	-0.18483	3.15	-5.04	-3.43	-0.011	-0.4715	-0.0992	
-0.1159	1.032242	-0.186172	1.26	-4.41	-2.24	-0.0031	-0.4917	-0.1007	
-0.117974	1.065914	-0.174094	3.22	-0.91	-2.45	-0.0077	-0.4839	-0.0976	
-0.150304	1.071038	-0.186904	-1.54	1.54	-1.68	0.0014	-0.4965	-0.1114	
-0.158722	1.050542	-0.202032	-7.35	1.54	-1.19	0.0022	-0.4812	-0.0962	
-0.149816	1.026996	-0.2196	-9.03	0.07	-1.19	0.0011	-0.4857	-0.1099	
-0.115534	1.017724	-0.215818	-10.57	-3.01	-0.56	0.0036	-0.4782	-0.1008	
-0.107726	1.036512	-0.20923	-9.17	-3.99	0.21	-0.0049	-0.4794	-0.1022	
-0.132858	1.03273	-0.20618	-13.72	-2.52	1.68	-0.0006	-0.478	-0.0992	
-0.142984	1.041758	-0.196908	-14.63	-1.82	2.31	-0.0016	-0.4872	-0.116	
-0.149084	1.039318	-0.193248	-17.78	-1.82	3.5	0.0011	-0.4888	-0.1084	
-0.146888	1.022726	-0.200202	-18.76	-2.87	4.13	-0.0003	-0.4811	-0.1206	
-0.146156	1.027972	-0.19032	-18.41	-3.29	4.2	-0.0148	-0.479	-0.122	
-0.14152	1.050542	-0.188734	-20.02	-3.57	5.04	-0.0006	-0.4734	-0.1191	
-0.14335	1.048712	-0.18117	-22.54	-4.2	6.02	-0.0078	-0.4731	-0.1251	
-0.148718	1.04676	-0.172264	-26.88	-2.24	7.91	-0.009	-0.4761	-0.1343	
-0.146034	1.073478	-0.156404	-29.96	-3.36	9.1	-0.0191	-0.4758	-0.1342	
-0.147864	1.07482	-0.151158	-34.65	-3.29	11.06	-0.0106	-0.4715	-0.1373	
-0.12749	1.059082	-0.125904	-39.27	-2.1	12.46	-0.0135	-0.4667	-0.1526	
-0.118706	1.053592	-0.109922	-40.95	-0.56	13.58	-0.0151	-0.4651	-0.1465	
-0.12688	1.066768	-0.09747799	-41.93	-0.98	14.56	-0.0168	-0.4543	-0.1572	
-0.135176	1.081286	-0.081008	-45.78	1.4	16.03	-0.0164	-0.4635	-0.1633	
-0.123342	1.070794	-0.050874	-49.77	3.71	17.08	-0.0224	-0.4556	-0.1663	
-0.10553	1.073844	-0.040748	-52.15	5.18	16.52	-0.0253	-0.4509	-0.1815	
-0.081374	1.047614	-0.020618	-53.62	7.91	17.15	-0.0254	-0.4463	-0.1892	
-0.06771	1.021506	-0.016958	-58.59	5.95	22.12	-0.024	-0.4417	-0.1953	
-0.055998	1.00955	0.016714	-62.79	6.37	23.03	-0.0228	-0.4356	-0.1984	
-0.055144	1.023458	0.036966	-62.65	6.44	23.38	-0.0401	-0.4335	-0.1998	
-0.056486	1.002596	0.074054	-66.08	9.52	25.27	-0.0446	-0.4271	-0.2089	
-0.058926	0.988688	0.064782	-70.07	11.9	26.18	-0.0377	-0.412	-0.2319	
-0.072224	0.98759	0.078812	-70.91	12.81	29.19	-0.0361	-0.4136	-0.2396	
-0.017568	0.928664	0.129686	-72.31	12.53	30.45	-0.0464	-0.4086	-0.241	
0.025254	0.900726	0.169946	-73.5	9.59	30.59	-0.0468	-0.3917	-0.2563	
0.010858	0.942572	0.179218	-75.18	9.38	30.87	-0.0468	-0.3917	-0.2563	
0.00549	0.957822	0.17019	-72.73	10.01	29.61	-0.0544	-0.3761	-0.27	
-0.02562	0.937936	0.184464	-76.58	7.49	30.73	-0.0589	-0.3667	-0.2837	
0.015372	0.92415	0.230214	-77.7	3.85	31.5	-0.0589	-0.3667	-0.2837	
0.026596	0.864736	0.27938	-78.4	6.65	29.75	-0.0593	-0.3513	-0.2914	
0.032086	0.867054	0.326106	-75.39	9.03	26.81	-0.0708	-0.3509	-0.3005	
0.068076	0.8601	0.345382	-69.58	4.9	22.26	-0.0727	-0.3293	-0.328	
0.075274	0.870592	0.36295	-71.12	6.65	24.92	-0.0698	-0.3247	-0.3418	
0.065636	0.887428	0.357948	-78.05	0.35	24.99	-0.0778	-0.3045	-0.3387	
0.06954	0.848144	0.426024	-82.18	6.16	28.84	-0.0709	-0.2925	-0.3403	
0.047824	0.810324	0.449326	-84.49	6.3	29.54	-0.0715	-0.2756	-0.3358	
0.04087	0.804102	0.456768	-76.37	4.83	26.11	-0.08419999	-0.2782	-0.357	
0.055388	0.772992	0.467626	-76.3	5.88	23.24	-0.0821	-0.2568	-0.3556	
0.081618	0.764208	0.48983	-74.2	1.61	21.91	-0.0839	-0.2445	-0.3586	
0.08723	0.754082	0.473482	-76.58	-1.26	22.96	-0.0823	-0.2445	-0.377	
0.076982	0.759694	0.488122	-75.95	-2.8	24.64	-0.0903	-0.2228	-0.3647	
0.106262	0.71065	0.518744	-82.81	-2.59	26.74	-0.0845	-0.2199	-0.377	
0.169336	0.707722	0.590236	-78.68	0.28	24.99	-0.0964	-0.2056	-0.3907	
0.131882	0.704428	0.614758	-78.12	4.27	23.52	-0.0942	-0.1889	-0.3831	
0.050386	0.62586	0.5917	-86.31	7.35	26.18	-0.09429999	-0.1812	-0.3999	
0.112728	0.644038	0.605486	-80.08	1.47	23.03	-0.1066	-0.1562	-0.4029	
0.151158	0.641964	0.616832	-84.14	3.85	25.48	-0.09209999	-0.1551	-0.4153	
0.072834	0.629398	0.64721	-89.95	-1.19	27.23	-0.0925	-0.1444	-0.4138	
0.297314	0.571204	0.679296	-99.68	4.06	27.02	-0.1019	-0.1241	-0.4091	
0.183488	0.540338	0.701256	-101.92	-2.87	22.82	-0.0998	-0.0997	-0.4092	
0.228384	0.457134	0.723948	-108.5	-4.27	23.8	-0.1014	-0.0919	-0.4169	
0.220332	0.441396	0.741028	-108.15	-4.27	25.34	-0.1077	-0.0764	-0.4199	
0.168848	0.43676	0.716628	-111.3	-13.79	27.02	-0.1072	-0.0473	-0.4169	
0.206912	0.395402	0.759206	-120.12	-12.11	29.47	-0.1156	-0.0133	-0.4108	
0.225944	0.336842	0.776896	-119.49	-19.32	28.63	-0.116	-0.0025	-0.4108	
0.222528	0.284016	0.816912	-119.77	-17.43	29.26	-0.1121	0.0126	-0.4201	
0.227286	0.262666	0.81069	-121.45	-24.85	29.19	-0.1159	0.0372	-0.4125	
0.238022	0.19459	0.847168	-127.19	-24.57	29.54	-0.1223	0.0558	-0.4033	
0.251076	0.152866	0.835822	-126	-30.03	29.4	-0.1331	0.0777	-0.4063	
0.266814	0.110044	0.849242	-129.43	-33.53	27.16	-0.1238	0.0973	-0.3942	
0.301462	0.037088	0.895846	-133.84	-34.93	26.53	-0.1376	0.1207	-0.3941	
0.321958	-0.002806	0.926346	-116.34	-44.45	22.47	-0.1355	0.1452	-0.3927	
0.330132	-0.055754	0.889624	-112.98	-47.11	23.03	-0.1419	0.1561	-0.3621	
0.325252	-0.108336	0.883768	-112.7	-41.44	25.83	-0.1496	0.1701	-0.3621	
0.34465	-0.187148	0.886086	-101.43	-32.34	22.47	-0.1528	0.1795	-0.3636	
0.354776	-0.202276	0.882792	-95.48	-31.29	22.96	-0.1537	0.204	-0.3545	
0.390644	-0.244732	0.89548	-89.88	-30.38	22.4	-0.1531	0.2239	-0.3347	
0.402966	-0.263032	0.899384	-83.65	-28.98	20.86	-0.1617	0.2211	-0.3346	
0.412238	-0.290848	0.888282	-80.85	-26.25	20.72	-0.1668	0.2427	-0.3239	
0.424438	-0.339648	0.89548	-74.69	-24.22	20.02	-0.1588	0.2593	-0.3118	
0.43981	-0.367708	0.894382	-66.85	-22.19	17.78	-0.1486	0.2558	-0.3134	
0.461526	-0.382958	0.906704	-61.81	-20.79	17.15	-0.1705	0.2612	-0.3071	
0.463356	-0.412726	0.890966	-59.78	-17.29	16.87	-0.1637	0.2732	-0.2996	
0.472262	-0.436272	0.876204	-54.67	-14.63	16.38	-0.1497	0.2819	-0.286	
0.462624	-0.441762	0.864736	-49.35	-11.41	16.17	-0.1748	0.2965	-0.2751	
0.450058	-0.434808	0.85339	-44.24	-8.33	15.89	-0.1661	0.2932	-0.2721	
0.430416	-0.44469	0.84912	-40.39	-6.72	16.17	-0.1639	0.3115	-0.266	
0.430538	-0.441884	0.849974	-36.12	-5.39	17.01	-0.1465	0.3108	-0.2647	
0.447374	-0.43066	0.842654	-33.46	-3.36	17.78	-0.1638	0.3068	-0.2615	
0.454206	-0.41968	0.867054	-31.71	-1.4	17.36	-0.1657	0.3207	-0.2599	
0.442616	-0.434198	0.865712	-31.85	0	15.47	-0.1558	0.3265	-0.2524	
0.410652	-0.453474	0.852658	-28.63	1.4	11.9	-0.163	0.3237	-0.2508	
0.412726	-0.449692	0.843508	-25.97	1.26	10.43	-0.153	0.3248	-0.2417	
0.412848	-0.45933	0.832772	-24.99	0.7	10.29	-0.1412	0.3183	-0.2449	
0.402112	-0.457866	0.824476	-22.4	0.07	9.17	-0.1463	0.3383	-0.2327	
0.39406	-0.451522	0.807762	-20.23	0.56	7.77	-0.1488	0.3277	-0.2387	
0.396622	-0.441762	0.815082	-19.46	-1.96	5.39	-0.152	0.337	-0.2357	
0.407358	-0.471164	0.833138	-18.13	-0.84	3.29	-0.1408	0.3427	-0.2236	
0.443104	-0.527894	0.846192	-17.71	0.42	3.99	-0.1478	0.3384	-0.2281	
0.3416	-0.486292	0.8052	-13.93	4.41	7	-0.1477	0.3384	-0.2373	
0.345382	-0.493856	0.798368	-11.55	-1.68	1.89	-0.1392	0.3396	-0.2312	
0.40504	-0.48373	0.807762	-8.19	-7.07	-3.85	-0.1433	0.3336	-0.2312	
0.414312	-0.497638	0.81069	-7.28	-5.32	-5.25	-0.1433	0.3321	-0.222	
0.406138	-0.511424	0.809104	-5.04	-4.48	-6.09	-0.1506	0.3339	-0.2235	
0.40626	-0.493734	0.81069	-2.38	-3.29	-5.46	-0.1497	0.3492	-0.2189	
0.401746	-0.48129	0.806786	-0.98	-2.45	-3.92	-0.1526	0.3508	-0.225	
0.413336	-0.445178	0.804102	0.21	-1.4	-0.77	-0.1494	0.3415	-0.2235	
0.412482	-0.447252	0.796782	-0.7	-0.77	0	-0.1482	0.3507	-0.2251	
0.401502	-0.455792	0.779458	-1.26	-0.14	0.56	-0.1537	0.3386	-0.2173	
0.403576	-0.456036	0.778482	0.35	-0.56	0.14	-0.1494	0.3415	-0.222	
0.406992	-0.45567	0.77592	1.33	-0.98	-0.28	-0.1508	0.3431	-0.2281	
0.405284	-0.461282	0.774822	1.75	-0.35	-0.28	-0.1567	0.3464	-0.2311	
0.40626	-0.456524	0.785558	2.1	-0.28	-0.21	-0.151	0.3462	-0.2265	
0.419558	-0.452254	0.80398	3.08	0	-0.35	-0.1569	0.3525	-0.228	
0.43005	-0.468968	0.81801	3.15	1.75	-0.91	-0.1495	0.3492	-0.2342	
0.419802	-0.519354	0.829966	1.47	3.92	-0.84	-0.1523	0.3447	-0.2357	
0.421876	-0.537776	0.846314	2.24	4.27	-0.42	-0.1565	0.3387	-0.228	
0.447252	-0.57279	0.866688	4.62	2.52	-0.84	-0.1453	0.349	-0.222	
0.448472	-0.617686	0.87291	8.26	3.22	-1.89	-0.1564	0.3387	-0.2341	
0.457622	-0.658556	0.878888	12.46	2.87	-3.22	-0.1479	0.3399	-0.2205	
0.46848	-0.67222	0.88999	19.04	3.08	-4.41	-0.1451	0.346	-0.2358	
0.48556	-0.700036	0.89487	29.68	2.8	-7.84	-0.1521	0.3386	-0.2357	
0.487024	-0.694546	0.898774	38.5	3.36	-10.92	-0.1518	0.3324	-0.2372	
0.468358	-0.695278	0.898408	47.04	5.46	-14.35	-0.1571	0.3204	-0.2509	
0.459696	-0.679906	0.877058	53.97	6.93	-16.59	-0.1555	0.3173	-0.2524	
0.47397	-0.639158	0.881938	64.54	6.23	-19.81	-0.1525	0.311	-0.2478	
0.468968	-0.608536	0.879376	71.61	6.58	-23.1	-0.155	0.305	-0.2707	
0.469578	-0.562298	0.86498	79.45	8.19	-27.16	-0.1617	0.293	-0.2782	
0.446032	-0.509228	0.851682	84.14	11.34	-30.73	-0.1684	0.2779	-0.2842	
0.443226	-0.48129	0.842532	90.72	12.39	-32.27	-0.1639	0.2763	-0.2904	
0.428098	-0.433954	0.832528	98.84	13.51	-33.53	-0.1633	0.2625	-0.3026	
0.414922	-0.379908	0.838994	101.92	13.58	-33.04	-0.1654	0.2396	-0.3071	
0.410286	-0.314028	0.85644	107.94	17.71	-33.39	-0.1664	0.232	-0.3269	
0.419924	-0.246806	0.855586	112.84	25.41	-33.6	-0.1629	0.2165	-0.3376	
0.387228	-0.231434	0.840458	114.45	29.61	-32.06	-0.1725	0.2046	-0.3466	
0.40077	-0.177266	0.848754	125.65	32.06	-32.41	-0.169	0.1877	-0.3527	
0.34953	-0.140666	0.820328	129.92	33.81	-31.64	-0.1508	0.1641	-0.3636	
0.305366	-0.042578	0.764452	145.6	30.73	-35.21	-0.1573	0.1444	-0.3757	
0.309636	0.03172	0.73383	147.77	30.45	-35.98	-0.1535	0.1182	-0.3802	
0.265228	0.106018	0.675636	144.55	27.09	-35.49	-0.1486	0.1012	-0.3818	
0.266326	0.193126	0.681858	143.5	24.64	-34.37	-0.1479	0.0859	-0.397	
0.244	0.269742	0.656238	144.69	24.64	-36.68	-0.1542	0.0585	-0.3984	
0.238022	0.335134	0.640622	142.59	20.02	-39.27	-0.1459	0.0275	-0.406	
0.221308	0.397354	0.674294	139.44	21.84	-39.41	-0.1322	0.0056	-0.4	
0.209962	0.436272	0.66551	133.91	18.83	-38.15	-0.1299	-0.0174	-0.4137	
0.209352	0.470676	0.672464	128.59	21	-37.52	-0.1236	-0.0375	-0.403	
0.184708	0.518012	0.664168	129.15	22.05	-37.87	-0.1225	-0.0667	-0.4076	
0.181048	0.56852	0.644282	126.14	19.32	-37.03	-0.1217	-0.09119999	-0.409	
0.144326	0.592554	0.600972	122.08	14.42	-37.52	-0.1228	-0.1019	-0.4059	
0.160918	0.59414	0.589382	116.2	10.85	-37.87	-0.1173	-0.1358	-0.4151	
0.156404	0.615368	0.596946	115.08	12.32	-37.31	-0.1127	-0.1483	-0.3968	
0.130784	0.62464	0.52094	112.42	10.08	-36.19	-0.1154	-0.1559	-0.3937	
0.13542	0.708698	0.509594	112.28	7.56	-35.49	-0.0994	-0.2025	-0.3891	
0.116388	0.745054	0.498248	108.78	10.15	-34.02	-0.0963	-0.2133	-0.38	
0.068564	0.809958	0.41541	105	9.03	-32.69	-0.08419999	-0.2306	-0.3709	
0.062098	0.843752	0.39833	97.58	2.31	-29.75	-0.0838	-0.2445	-0.3663	
0.10675	0.845216	0.391986	94.78	-1.4	-29.4	-0.0861	-0.2643	-0.357	
0.098088	0.87657	0.373442	96.74	-1.4	-31.01	-0.0859	-0.2751	-0.3402	
0.05124	0.928908	0.343674	87.71	-0.42	-29.12	-0.0756	-0.2816	-0.3403	
-0.028548	0.955382	0.29524	77.98	-1.89	-24.57	-0.084	-0.2936	-0.328	
0.013786	0.919148	0.293898	74.55	-6.79	-25.83	-0.0734	-0.3109	-0.3234	
-0.111874	0.920002	0.257298	80.57	-5.46	-30.03	-0.076	-0.3184	-0.3219	
0.002928	0.904264	0.266204	74.62	-13.93	-25.76	-0.0771	-0.3307	-0.3142	
0.039162	0.944524	0.218258	76.65	-12.6	-28.84	-0.0828	-0.3367	-0.3004	
0.0305	0.943548	0.184708	77.7	-8.82	-29.12	-0.0768	-0.3461	-0.2989	
0.030012	0.978928	0.140422	82.32	-3.92	-33.39	-0.0534	-0.3577	-0.2884	
-0.07124799	0.947818	0.121268	82.6	-5.88	-34.58	-0.0662	-0.368	-0.2745	
0.054534	0.997106	0.18422	78.61	-5.39	-33.04	-0.0586	-0.3759	-0.2791	
-0.035136	0.983442	0.072956	76.09	-4.69	-31.57	-0.0527	-0.3869	-0.2578	
-0.03416	1.028338	0.061244	75.11	-3.15	-32.69	-0.0627	-0.3896	-0.2531	
-0.112118	0.99369	0.037088	68.18	-0.56	-27.3	-0.0477	-0.4116	-0.244	
-0.076128	0.974048	0.056974	66.78	-0.07	-28.07	-0.0359	-0.4197	-0.2365	
-0.055998	1.05896	0.045872	68.81	4.41	-27.44	-0.0433	-0.4195	-0.2196	
-0.03538	1.068354	0.00549	64.75	5.74	-22.68	-0.0344	-0.4306	-0.212	
-0.110654	1.03334	-0.00061	54.67	6.65	-21.42	-0.0386	-0.432	-0.2105	
-0.095404	1.028338	-0.014762	48.44	7	-21.84	-0.0326	-0.4429	-0.1983	
-0.09211	1.04493	-0.041114	45.78	7.56	-19.74	-0.0239	-0.4448	-0.1999	
-0.109678	1.001132	-0.03172	43.61	2.66	-20.86	-0.018	-0.4511	-0.1908	
-0.090036	1.031022	-0.033794	41.02	-0.07	-20.79	-0.0182	-0.4465	-0.1816	
-0.14701	0.96868	-0.047458	42.7	-7	-23.45	-0.0125	-0.4468	-0.1801	
-0.0122	1.088118	-0.074176	42.77	4.06	-16.8	-0.0209	-0.4588	-0.1648	
-0.110898	1.046394	-0.106628	44.8	-4.2	-21.35	-0.0152	-0.459	-0.1541	
-0.125904	1.071038	-0.106018	38.36	4.97	-17.99	-0.007999999	-0.4592	-0.1557	
-0.120048	1.035414	-0.14213	36.61	-2.73	-13.79	-0.0005	-0.4672	-0.1558	
-0.156282	1.072258	-0.109922	28.42	0.84	-4.13	-0.0023	-0.461	-0.139	
-0.1037	1.105564	-0.106262	25.06	-0.7	-4.55	-0.0033	-0.4732	-0.1389	
-0.101992	1.124718	-0.103334	18.34	-0.21	-2.38	0.0024	-0.4796	-0.1206	
-0.102358	1.10105	-0.122	10.36	-0.49	-1.75	0.0078	-0.4644	-0.1391	
-0.108946	1.071282	-0.13176	7.35	-0.91	-1.61	-0.0017	-0.4825	-0.1267	
-0.092476	1.040782	-0.115656	2.38	0.42	1.68	0.0025	-0.4796	-0.1298	
-0.097112	0.988078	-0.1037	1.47	1.33	0.77	0.0023	-0.4765	-0.1222	
-0.107482	0.962702	-0.088694	3.57	0.77	1.12	-0.0005	-0.4734	-0.1267	
-0.105164	0.978196	-0.0976	5.67	-1.54	1.4	-0.0003	-0.4795	-0.1298	
-0.094428	1.029558	-0.114802	1.05	-3.43	6.23	0.0039	-0.4781	-0.1314	
-0.089914	1.028704	-0.120048	0.49	-4.13	6.02	-0.0035	-0.4717	-0.1206	
-0.08906	0.995764	-0.110166	-2.45	-2.03	7.49	-0.0009	-0.4642	-0.1252	
-0.101626	0.992104	-0.088816	-2.31	-2.1	7.21	-0.0045	-0.4839	-0.1313	
-0.102602	1.003694	-0.074054	-0.49	-4.13	6.72	-0.0034	-0.4717	-0.1298	
-0.095404	1.016504	-0.068686	0.63	-4.2	5.11	-0.0079	-0.4685	-0.1236	
-0.077958	1.040904	-0.09089	2.03	-4.83	1.26	-0.012	-0.4745	-0.1282	
-0.09699	1.050664	-0.085278	3.78	-4.41	0.07	-0.0117	-0.4837	-0.1327	
-0.099064	1.020896	-0.08723	0.91	-2.03	0.14	-0.005	-0.4686	-0.1252	
-0.093452	0.998082	-0.090036	3.08	-2.73	-1.33	-0.0008	-0.4657	-0.1252	
-0.07686	1.006012	-0.080886	6.93	-3.92	-2.87	-0.018	-0.4697	-0.1235	
-0.06734399	1.020408	-0.09076799	6.37	-4.48	-2.87	0.0068	-0.4813	-0.1222	
-0.067954	1.023092	-0.09638	2.31	-2.87	-1.05	-0.0133	-0.479	-0.1297	
-0.084424	1.019432	-0.108214	1.05	-1.89	-2.38	0.0024	-0.4781	-0.1222	
-0.107116	1.033462	-0.110166	2.17	-2.8	-1.61	-0.0063	-0.4732	-0.1236	
-0.09162199	1.01565	-0.108092	1.26	-1.96	-1.89	-0.0002	-0.4826	-0.1283	
-0.091378	1.011014	-0.123708	1.05	-2.94	-1.96	-0.0124	-0.4668	-0.1175	
-0.085278	1.002474	-0.119682	0.77	-3.15	-2.24	0.0009999999	-0.4811	-0.1206	
-0.090402	0.996618	-0.126026	1.54	-3.08	-1.82	-0.0135	-0.4729	-0.1266	
-0.088816	1.015894	-0.129442	1.68	-3.01	-1.19	-0.0035	-0.4717	-0.1206	
-0.07137	1.01138	-0.124562	1.12	-2.31	-1.19	-0.0108	-0.4684	-0.1282	
-0.082716	0.979782	-0.12566	-2.1	-1.33	0.35	-0.0018	-0.4779	-0.1282	
-0.121268	1.012234	-0.132736	-1.4	-1.19	0.49	-0.0061	-0.4778	-0.1297	
-0.108214	1.023214	-0.119682	0.21	-0.42	0.91	-0.0005	-0.4764	-0.1222	
-0.099308	1.027606	-0.12261	0.84	0.28	-0.14	-0.0067	-0.4655	-0.116	
-0.107726	1.038098	-0.135542	-1.26	0.28	0.35	-0.0107	-0.4746	-0.1129	
-0.114924	1.032974	-0.139202	-5.74	-0.14	1.75	-0.0062	-0.4793	-0.119	
-0.11651	1.02846	-0.13725	-6.3	-0.35	0.84	-0.0033	-0.4779	-0.1237	
-0.109068	1.034072	-0.136152	-5.18	-0.14	1.12	-0.0105	-0.4807	-0.1175	
-0.104066	1.033706	-0.130418	-6.3	-0.56	1.75	-0.0105	-0.4792	-0.1251	
-0.112118	1.025166	-0.125782	-7.84	-1.75	1.75	-0.0088	-0.4838	-0.1266	
-0.122732	1.011624	-0.129564	-9.1	-1.82	1.75	-0.009099999	-0.4792	-0.119	
-0.120414	1.026142	-0.139202	-8.61	-3.22	1.82	-0.0063	-0.4701	-0.1343	
-0.100284	1.037244	-0.132004	-11.62	-3.64	2.8	-0.0078	-0.4731	-0.119	
-0.091012	1.046882	-0.119438	-14.07	-3.01	5.32	-0.0165	-0.4697	-0.1312	
-0.097844	1.05591	-0.11407	-16.38	-1.47	6.93	-0.009	-0.4761	-0.1373	
-0.106506	1.065304	-0.11834	-17.85	-0.14	7.91	-0.0093	-0.4684	-0.1374	
-0.1159	1.075308	-0.109678	-23.38	0.91	10.22	-0.015	-0.4698	-0.1388	
-0.126636	1.073722	-0.10919	-25.97	1.68	10.57	-0.0136	-0.4667	-0.1419	
-0.118828	1.094218	-0.112972	-29.12	3.15	11.69	-0.0223	-0.4634	-0.1449	
-0.098698	1.103368	-0.09516	-34.02	6.44	14	-0.0236	-0.4679	-0.151	
-0.082228	1.077748	-0.09272	-39.06	7	16.24	-0.0205	-0.4695	-0.1647	
-0.094062	1.045052	-0.099918	-45.71	7.21	18.76	-0.0209	-0.4588	-0.1648	
-0.106018	1.040172	-0.093452	-49.56	5.67	22.33	-0.0169	-0.4497	-0.1587	
-0.09857599	1.058228	-0.070516	-49.21	4.97	23.03	-0.0286	-0.4432	-0.1617	
-0.086498	1.06933	-0.056608	-52.5	5.04	23.38	-0.0326	-0.4476	-0.183	
-0.067954	1.045052	-0.042578	-57.82	7.07	23.38	-0.034	-0.446	-0.1937	
-0.056242	1.051396	-0.039894	-60.34	6.79	23.94	-0.0414	-0.438	-0.2013	
-0.047946	1.05225	-0.021716	-61.95	7.84	24.92	-0.0474	-0.4301	-0.2089	
-0.037088	1.03761	-0.007686	-63.49	10.08	25.48	-0.043	-0.4287	-0.2165	
-0.034648	1.005524	0.029768	-66.71	11.83	26.6	-0.0536	-0.413	-0.2211	
-0.033306	0.996008	0.028548	-64.68	10.64	25.9	-0.046	-0.4194	-0.2364	
-0.026718	0.989298	0.040748	-62.44	11.34	25.9	-0.0551	-0.4052	-0.247	
-0.006588	1.016748	0.08113	-61.39	10.08	26.46	-0.048	-0.3978	-0.2578	
0.01952	1.010526	0.11651	-65.87	10.57	26.04	-0.0615	-0.382	-0.2577	
0.018056	0.986492	0.133102	-68.04	10.57	25.06	-0.0541	-0.3853	-0.2685	
0.027694	0.938058	0.163724	-72.52	11.48	24.85	-0.0658	-0.3756	-0.2867	
0.027084	0.89609	0.216062	-71.12	13.09	24.01	-0.0631	-0.368	-0.2883	
0.066246	0.88389	0.24705	-66.36	11.41	21.49	-0.0632	-0.3619	-0.3036	
0.07503	0.8845	0.252906	-65.1	9.8	20.16	-0.0653	-0.3434	-0.2975	
0.056974	0.899384	0.256444	-65.8	5.11	19.11	-0.0663	-0.3525	-0.3158	
0.072346	0.942938	0.286822	-70.98	6.44	22.96	-0.067	-0.3295	-0.3235	
0.083448	0.908656	0.343552	-80.57	3.71	24.15	-0.066	-0.3126	-0.3296	
0.073322	0.84912	0.389058	-89.88	11.41	26.95	-0.072	-0.3047	-0.3387	
0.084912	0.83814	0.384666	-82.74	10.85	23.87	-0.0738	-0.2909	-0.3495	
0.025254	0.829722	0.352214	-84.14	6.93	21.7	-0.0739	-0.2878	-0.351	
-0.00061	0.816912	0.38247	-83.51	5.88	22.33	-0.0804	-0.263	-0.3586	
0.084058	0.80947	0.396012	-87.36	5.32	22.26	-0.0747	-0.2601	-0.3648	
0.10004	0.780922	0.421754	-92.33	1.26	22.05	-0.0808	-0.2492	-0.3632	
0.145668	0.732122	0.441884	-101.08	1.68	26.39	-0.08549999	-0.2367	-0.3739	
0.060634	0.714066	0.442372	-104.23	5.25	27.37	-0.076	-0.214	-0.3878	
-0.000488	0.698694	0.476898	-107.8	1.47	28.14	-0.08109999	-0.1909	-0.3848	
0.111874	0.677466	0.535946	-110.46	6.58	29.75	-0.0872	-0.1784	-0.3954	
0.05734	0.650992	0.538508	-113.89	5.25	31.29	-0.07889999	-0.1679	-0.3971	
-0.003782	0.620736	0.580476	-117.25	2.73	33.32	-0.075	-0.1527	-0.4063	
0.193736	0.592188	0.604754	-111.3	0.77	25.83	-0.0843	-0.1247	-0.4276	
0.090524	0.499468	0.600728	-127.4	-10.99	25.41	-0.092	-0.1122	-0.42	
0.168848	0.433222	0.71919	-137.97	-14.21	30.24	-0.1001	-0.0889	-0.4154	
0.18788	0.421632	0.769332	-132.16	-10.01	28.21	-0.0961	-0.0768	-0.4231	
0.180316	0.394426	0.732122	-133.21	-15.47	27.51	-0.1026	-0.0535	-0.4292	
0.221064	0.360754	0.756522	-136.29	-15.54	27.79	-0.1006	-0.026	-0.4247	
0.242658	0.25803	0.76982	-145.18	-20.44	28.7	-0.1044	0.0001	-0.4232	
0.255468	0.188246	0.82655	-148.12	-22.19	29.4	-0.1108	0.0171	-0.4232	
0.23851	0.160918	0.795074	-145.67	-26.32	29.4	-0.1087	0.0401	-0.4156	
0.263276	0.043188	0.826916	-154.63	-30.8	30.87	-0.1188	0.08329999	-0.4141	
0.247538	-0.041114	0.881938	-147.77	-36.4	26.6	-0.1302	0.1159	-0.3972	
0.258274	-0.081618	0.87535	-151.55	-40.39	27.09	-0.121	0.1416	-0.3882	
0.300242	-0.126392	0.897554	-143.99	-38.43	22.96	-0.1277	0.1694	-0.3837	
0.31293	-0.208986	0.903044	-131.95	-42.21	19.53	-0.1427	0.1822	-0.3713	
0.355386	-0.25925	0.926956	-119.7	-45.43	18.76	-0.1406	0.2036	-0.3592	
0.38857	-0.289384	0.920612	-108.29	-43.12	19.04	-0.1408	0.2051	-0.3531	
0.382348	-0.304878	0.930738	-99.61	-39.27	19.25	-0.1548	0.2331	-0.3347	
0.391132	-0.332694	0.935862	-94.15	-36.12	19.04	-0.152	0.2345	-0.3316	
0.418826	-0.38613	0.916342	-87.78	-31.43	18.48	-0.1584	0.247	-0.3148	
0.431148	-0.430172	0.917074	-80.92	-30.52	19.18	-0.1549	0.2683	-0.3042	
0.439322	-0.434076	0.894748	-74.76	-26.67	19.74	-0.1607	0.2685	-0.2996	
0.43798	-0.457378	0.894382	-70.77	-25.83	20.58	-0.1641	0.2824	-0.295	
0.449204	-0.486292	0.883524	-63.98	-25.48	19.81	-0.1659	0.2901	-0.2812	
0.468846	-0.500688	0.870104	-56.42	-24.78	19.46	-0.1517	0.2942	-0.2722	
0.48983	-0.496784	0.871568	-49.63	-22.4	17.78	-0.1665	0.3054	-0.2736	
0.50935	-0.493368	0.879132	-39.97	-16.73	14.56	-0.1654	0.313	-0.2599	
0.493734	-0.501908	0.871568	-38.29	-12.88	14	-0.1567	0.3112	-0.26	
0.485926	-0.501664	0.856196	-35.35	-9.52	13.23	-0.1655	0.313	-0.2538	
0.482144	-0.498492	0.85522	-31.22	-7.49	12.25	-0.1627	0.316	-0.2523	
0.471164	-0.486414	0.843264	-27.51	-6.09	11.9	-0.1558	0.3218	-0.2371	
0.460672	-0.477142	0.83265	-24.43	-3.99	10.71	-0.1676	0.3299	-0.2462	
0.50203	-0.508252	0.858514	-22.82	-4.06	8.26	-0.1532	0.334	-0.2479	
0.4392	-0.43005	0.806176	-17.99	1.96	8.47	-0.1532	0.3294	-0.2341	
0.402966	-0.437614	0.797758	-17.08	-0.91	6.93	-0.1606	0.3358	-0.2386	
0.363682	-0.474214	0.80581	-14.98	-2.87	3.78	-0.1562	0.3326	-0.2326	
0.393206	-0.499102	0.818498	-7.84	-14.07	-3.92	-0.1492	0.3369	-0.225	
0.448594	-0.450546	0.81618	-6.09	-12.32	-5.32	-0.1606	0.3327	-0.2264	
0.46726	-0.462502	0.820938	-6.23	-9.87	-5.6	-0.1624	0.3435	-0.228	
0.471164	-0.477996	0.82167	-4.55	-7.14	-6.72	-0.1652	0.339	-0.2264	
0.463234	-0.493002	0.82106	-4.13	-5.81	-6.23	-0.1682	0.3422	-0.2248	
0.463722	-0.466162	0.820694	-2.45	-1.75	-2.87	-0.1651	0.339	-0.2356	
0.45872	-0.465674	0.809104	-3.29	-0.7	-1.61	-0.1667	0.3437	-0.2325	
0.448228	-0.473482	0.793	-3.29	1.19	-0.91	-0.1693	0.333	-0.2202	
0.442006	-0.48007	0.790072	-0.84	2.45	-0.7	-0.1638	0.3436	-0.2279	
0.44225	-0.469456	0.784094	0.84	2.66	-1.19	-0.1694	0.3361	-0.2263	
0.435296	-0.477142	0.784948	1.54	2.87	-1.4	-0.1597	0.3495	-0.2249	
0.43615	-0.486536	0.814106	2.31	2.66	-1.26	-0.1665	0.336	-0.231	
0.44713	-0.494832	0.824476	3.29	2.24	-0.91	-0.1666	0.3421	-0.234	
0.451766	-0.532042	0.83631	3.78	3.36	-0.35	-0.1691	0.33	-0.2309	
0.456158	-0.557418	0.837042	4.34	4.2	0.49	-0.1638	0.3405	-0.2264	
0.451888	-0.577304	0.843996	8.68	3.71	0.21	-0.1638	0.3436	-0.2279	
0.456768	-0.59414	0.856074	16.87	3.78	-2.73	-0.1651	0.3375	-0.2264	
0.447252	-0.593896	0.855342	22.68	2.24	-5.25	-0.1618	0.3266	-0.231	
0.457256	-0.58377	0.866932	28.63	-1.68	-7.28	-0.1608	0.3404	-0.2387	
0.478728	-0.568276	0.875594	33.46	-4.69	-9.59	-0.1663	0.3314	-0.2355	
0.484462	-0.56852	0.878766	37.52	-3.99	-12.39	-0.1716	0.3224	-0.2522	
0.495808	-0.57218	0.875106	43.54	-2.52	-16.94	-0.1757	0.3149	-0.2491	
0.503006	-0.576938	0.872544	50.61	0.14	-19.6	-0.1756	0.3118	-0.2522	
0.516426	-0.561932	0.87657	57.19	0.7	-21.21	-0.178	0.2997	-0.2521	
0.52948	-0.542656	0.887306	63.77	1.96	-22.4	-0.1694	0.304	-0.269	
0.538508	-0.523868	0.88999	71.05	4.41	-25.06	-0.1716	0.2841	-0.2628	
0.536922	-0.487756	0.891576	77.14	8.68	-26.6	-0.1701	0.2841	-0.2751	
0.531188	-0.476654	0.884256	82.67	13.51	-28.07	-0.1894	0.2603	-0.2809	
0.51423	-0.454938	0.87596	87.43	15.96	-29.47	-0.1865	0.2602	-0.2917	
0.49898	-0.421022	0.84729	93.31	17.85	-32.34	-0.1904	0.2512	-0.3008	
0.472628	-0.37088	0.829722	101.43	19.95	-34.86	-0.1813	0.2417	-0.3176	
0.456158	-0.313662	0.816912	109.69	19.46	-37.24	-0.1792	0.2248	-0.3237	
0.421388	-0.22936	0.794464	118.44	18.48	-40.95	-0.1827	0.2034	-0.3358	
0.382348	-0.174582	0.787632	124.95	18.62	-44.17	-0.1866	0.1913	-0.3388	
0.349164	-0.132614	0.782874	132.09	17.5	-46.69	-0.1916	0.1701	-0.3479	
0.352824	-0.07015	0.763232	137.34	11.13	-48.23	-0.1865	0.1515	-0.3601	
0.32391	0.005612	0.758596	141.54	10.43	-49.35	-0.1828	0.1284	-0.3708	
0.333182	0.107726	0.757498	153.23	10.15	-48.65	-0.187	0.0841	-0.3829	
0.355996	0.1891	0.74359	162.61	10.36	-50.96	-0.1861	0.0565	-0.3797	
0.356362	0.233996	0.706136	157.43	16.87	-50.75	-0.1879	0.0275	-0.3934	
0.33672	0.315248	0.657458	159.67	23.38	-51.94	-0.1741	0.0009	-0.3797	
0.297192	0.368318	0.597434	146.02	30.94	-50.05	-0.17	-0.0329	-0.3919	
0.297802	0.406382	0.554612	140.35	31.01	-49.42	-0.1709	-0.0497	-0.3857	
0.21838	0.485316	0.531554	133.35	25.83	-46.2	-0.1628	-0.07449999	-0.3964	
0.268766	0.544852	0.516914	130.48	22.05	-45.99	-0.1623	-0.0929	-0.3872	
0.237778	0.571326	0.48922	127.54	19.11	-47.74	-0.1575	-0.1054	-0.3888	
0.22631	0.621346	0.542046	123.41	18.9	-46.13	-0.1494	-0.1348	-0.3812	
0.225944	0.682224	0.520818	120.54	26.04	-45.29	-0.1442	-0.1533	-0.4025	
0.18605	0.705282	0.441152	107.17	16.52	-40.95	-0.1439	-0.1687	-0.3888	
0.15921	0.726754	0.489342	101.78	13.16	-41.16	-0.1347	-0.1859	-0.3766	
0.20801	0.744444	0.506788	101.22	18.13	-42.14	-0.1397	-0.2118	-0.3688	
0.096868	0.774212	0.43737	96.6	14.7	-40.11	-0.1278	-0.2261	-0.3628	
0.083448	0.859978	0.364536	90.93	14.42	-36.05	-0.1219	-0.2324	-0.3522	
0.09821	0.873642	0.31415	79.87	5.46	-30.66	-0.1197	-0.2524	-0.3583	
0.156648	0.88572	0.343552	88.76	16.24	-32.69	-0.1021	-0.2653	-0.3431	
0.05307	0.888038	0.323788	70.14	8.4	-23.1	-0.1074	-0.2805	-0.34	
0.038552	0.903898	0.31842	73.22	9.87	-28.28	-0.1043	-0.2867	-0.3369	
0.064416	0.880352	0.304756	73.57	7.91	-29.12	-0.1053	-0.3036	-0.3277	
-0.003294	0.886574	0.325252	74.55	7.56	-31.15	-0.0939	-0.3025	-0.3156	
0.073444	0.884988	0.306586	75.25	6.79	-30.03	-0.0963	-0.3146	-0.3263	
0.027572	0.912194	0.244122	76.37	-1.96	-31.36	-0.0905	-0.3226	-0.3003	
0.152622	0.924882	0.189466	89.6	12.67	-33.32	-0.0872	-0.3334	-0.3034	
-0.002318	0.93879	0.161528	74.55	-9.52	-29.19	-0.08549999	-0.3458	-0.2942	
-0.040626	0.945866	0.137738	75.25	-7.7	-30.31	-0.0794	-0.3567	-0.2851	
-0.000488	0.956114	0.139324	72.1	-7.7	-27.93	-0.0848	-0.3673	-0.285	
0.030256	0.970754	0.122244	73.64	-7.98	-29.96	-0.0762	-0.3738	-0.2622	
0.018544	1.00406	0.093452	75.04	-4.55	-29.68	-0.0599	-0.3897	-0.2501	
-0.065148	1.021872	0.052094	76.09	0.35	-29.19	-0.0711	-0.3985	-0.2499	
-0.021228	1.057984	-0.005734	71.68	1.82	-32.13	-0.055	-0.4098	-0.2348	
-0.011468	1.101294	0.009393999	64.75	6.79	-30.31	-0.0636	-0.4142	-0.224	
-0.047336	1.102636	-0.01281	59.29	9.94	-26.88	-0.0535	-0.4207	-0.2073	
-0.06649	1.000522	-0.011102	54.04	6.51	-29.26	-0.0446	-0.4272	-0.2058	
-0.059292	1.030168	0.006466	49.35	9.73	-25.13	-0.0417	-0.4273	-0.2043	
-0.053436	1.050664	0.00244	49.21	6.02	-25.13	-0.0413	-0.4395	-0.2043	
-0.099064	1.04188	-0.041358	42.42	10.57	-20.86	-0.0272	-0.4339	-0.1922	
-0.041358	0.99613	-0.013298	44.94	14.56	-21.84	-0.0269	-0.4447	-0.1846	
-0.05978	1.016138	-0.040626	43.75	12.95	-23.8	-0.0253	-0.454	-0.1693	
-0.077958	1.015894	-0.079666	35.77	17.01	-21.77	-0.0255	-0.4494	-0.1632	
-0.095892	1.012966	-0.053924	39.83	13.58	-25.34	-0.0095	-0.453	-0.1679	
-0.102236	0.96075	-0.069296	33.18	13.02	-23.24	-0.0064	-0.4593	-0.1664	
-0.070272	1.01626	-0.059292	31.5	14.42	-20.51	-0.0066	-0.4547	-0.1588	
-0.117852	1.022238	-0.089182	25.2	9.45	-16.45	0.0051	-0.4628	-0.1589	
-0.11102	1.034804	-0.079544	25.9	5.81	-13.44	-0.0039	-0.4533	-0.1512	
-0.123586	1.042002	-0.093208	25.9	2.38	-11.69	0.0006	-0.4626	-0.1466	
-0.12139	1.05896	-0.098942	24.64	-1.54	-13.44	0.0066	-0.4674	-0.1452	
-0.16531	1.063718	-0.110654	17.71	0.84	-10.29	0.0068	-0.4767	-0.139	
-0.132492	1.05408	-0.111996	14.91	-0.28	-11.06	0.0095	-0.4722	-0.136	
-0.14945	1.024434	-0.125294	15.75	-1.61	-12.88	0.0135	-0.4631	-0.1315	
-0.139446	1.038952	-0.125294	15.82	-0.84	-12.88	0.0209	-0.4695	-0.13	
-0.127002	1.030778	-0.117486	16.66	-3.01	-14.21	0.0139	-0.4754	-0.1315	
-0.124074	1.00894	-0.112484	18.34	-3.08	-14.63	0.0199	-0.4818	-0.1285	
-0.122488	0.980758	-0.117486	16.52	-1.19	-12.11	0.007999999	-0.4752	-0.1161	
-0.156282	0.988078	-0.169946	20.23	-0.21	-10.29	0.0227	-0.4819	-0.1239	
-0.17263	1.019798	-0.1647	20.72	0.14	-7.91	0.021	-0.4757	-0.1147	
-0.215696	1.031632	-0.153964	19.25	-4.13	-3.15	0.014	-0.4862	-0.1085	
-0.190686	0.962458	-0.126636	10.64	-6.65	-2.45	0.018	-0.4725	-0.1178	
-0.181902	0.962458	-0.149206	10.5	-5.95	-3.57	0.0211	-0.4834	-0.104	
-0.157258	1.021018	-0.155428	12.18	-2.87	-2.17	0.0198	-0.4864	-0.1071	
-0.172996	1.028826	-0.155184	12.6	-4.76	-4.34	0.0139	-0.48	-0.1116	
-0.16104	1.024434	-0.15738	7.14	-2.52	-2.73	0.024	-0.4804	-0.1132	
-0.165554	1.01199	-0.167628	5.46	-4.97	-2.94	0.0237	-0.4758	-0.098	
-0.163846	0.994422	-0.163846	5.74	-4.83	-3.22	0.0195	-0.4772	-0.1056	
-0.159088	0.995642	-0.172752	5.67	-3.36	-3.15	0.0255	-0.4866	-0.0995	
-0.16592	1.015528	-0.174826	6.16	-2.24	-3.92	0.0307	-0.4715	-0.095	
-0.167018	1.026874	-0.178486	2.87	-2.03	-2.87	0.021	-0.4803	-0.0979	
-0.162992	1.015406	-0.200812	0.77	-3.43	-3.57	0.014	-0.4862	-0.1009	
-0.180438	0.989786	-0.21716	-1.33	-4.9	-2.31	0.0225	-0.4819	-0.101	
-0.171654	0.997228	-0.22326	0.14	-5.6	-2.1	0.0326	-0.4807	-0.1011	
-0.144692	1.01138	-0.220576	1.47	-6.09	-1.33	0.021	-0.4819	-0.0933	
-0.149694	1.025044	-0.212768	0.07	-5.46	0.07	0.0253	-0.482	-0.0964	
-0.159576	1.02724	-0.207156	-2.31	-5.04	1.68	0.0154	-0.4878	-0.0948	
-0.17812	1.014796	-0.206302	-7.42	-5.18	3.5	0.0252	-0.4759	-0.101	
-0.190686	1.016138	-0.19825	-8.54	-5.74	3.01	0.0195	-0.4787	-0.1055	
-0.176046	1.003572	-0.204594	-6.65	-5.81	2.24	0.0283	-0.4836	-0.1026	
-0.169336	1.030778	-0.207888	-7.28	-6.02	3.64	0.014	-0.4862	-0.0994	
-0.152134	1.023824	-0.196054	-10.57	-3.71	5.81	0.0127	-0.4877	-0.11	
-0.149694	1.022604	-0.194468	-12.11	-2.1	6.51	0.0311	-0.4776	-0.1057	
-0.156526	1.025532	-0.192394	-14	-1.33	7	0.0259	-0.4927	-0.1178	
-0.1586	1.031998	-0.185928	-15.05	-0.28	7.63	0.0163	-0.4694	-0.104	
-0.15372	1.045418	-0.178608	-16.17	-0.07	8.47	0.0256	-0.4835	-0.1193	
-0.146278	1.051396	-0.16836	-19.11	-0.07	9.8	0.0166	-0.4771	-0.1101	
-0.13603	1.04249	-0.157502	-21.98	0.42	11.62	0.0165	-0.4709	-0.1178	
-0.132614	1.029558	-0.154818	-25.06	1.4	13.37	0.0153	-0.4755	-0.1208	
-0.133956	1.022604	-0.145302	-27.16	2.45	14.91	0.0182	-0.4771	-0.1193	
-0.128222	1.036634	-0.13786	-28.63	1.05	16.38	0.0109	-0.4738	-0.1238	
-0.104676	1.043832	-0.116266	-31.29	1.47	17.71	-0.0005	-0.4734	-0.1313	
-0.103212	1.054446	-0.099308	-35	2.59	18.62	0.002	-0.4627	-0.1344	
-0.115168	1.056032	-0.091866	-35.28	2.73	18.97	0.0036	-0.4643	-0.1482	
-0.103578	1.04127	-0.075518	-35.7	4.48	18.48	0.005	-0.4643	-0.1406	
-0.085034	1.024556	-0.05856	-37.31	5.11	17.36	-0.011	-0.4561	-0.1542	
-0.064538	1.01565	-0.027328	-39.69	6.79	17.15	-0.0093	-0.4607	-0.1588	
-0.061	1.008452	-0.024034	-41.23	8.19	17.01	-0.0034	-0.4609	-0.171	
-0.072956	1.017724	-0.015372	-37.8	8.33	15.89	-0.0155	-0.4451	-0.1664	
-0.065392	1.005402	0.001464	-37.24	9.03	15.82	-0.0138	-0.4482	-0.1817	
-0.077226	1.025044	0.00976	-39.13	9.45	15.47	-0.009699999	-0.4422	-0.1832	
-0.074542	1.008086	0.027084	-38.43	8.89	14.28	-0.0183	-0.445	-0.1816	
-0.082228	1.003084	0.054168	-40.04	7.49	14.63	-0.0196	-0.4434	-0.2015	
-0.073688	0.992592	0.084058	-38.71	5.53	13.65	-0.0125	-0.4375	-0.2046	
-0.055876	0.96563	0.096868	-33.95	3.57	11.2	-0.0259	-0.4263	-0.203	
-0.033794	0.933544	0.101138	-30.24	2.17	9.17	-0.0285	-0.4323	-0.209	
-0.02257	0.920612	0.110044	-26.67	1.05	7.63	-0.0202	-0.4219	-0.2137	
-0.02867	0.96868	0.131272	-25.41	0.7	7.77	-0.0229	-0.4264	-0.2137	
-0.018422	0.978074	0.152866	-24.64	0.35	7.91	-0.0257	-0.4278	-0.2244	
-0.00488	0.958554	0.161284	-21	0.49	4.06	-0.0345	-0.4244	-0.2212	
-0.019398	0.963434	0.164456	-25.69	0.84	5.67	-0.0317	-0.4168	-0.2335	
-0.00732	0.957578	0.172386	-19.32	-0.63	2.8	-0.0273	-0.4185	-0.2335	
-0.008784	0.964654	0.172386	-15.33	-1.47	2.45	-0.0347	-0.4136	-0.235	
-0.011956	0.977342	0.18056	-12.11	-1.96	1.96	-0.0273	-0.4185	-0.2381	
-0.005124	0.978928	0.194468	-9.17	-2.45	1.19	-0.0216	-0.4156	-0.2382	
-0.002928	0.970144	0.18849	-8.33	-4.55	0	-0.0364	-0.4059	-0.2319	
-0.00549	0.981734	0.185562	-9.45	-5.95	-0.77	-0.0276	-0.4124	-0.2305	
-0.015128	0.98027	0.188368	-10.64	-5.81	-0.84	-0.0347	-0.4121	-0.2411	
-0.019154	0.976366	0.192638	-9.87	-5.18	-0.77	-0.032	-0.4076	-0.2381	
-0.013542	0.972828	0.195932	-9.59	-4.69	-0.56	-0.0249	-0.4048	-0.2366	
-0.006832	0.973926	0.19703	-9.1	-4.27	-0.42	-0.0323	-0.3968	-0.2427	
-0.008052	0.98027	0.206302	-8.47	-3.99	-0.28	-0.0337	-0.403	-0.2304	
-0.011224	0.979538	0.211182	-8.82	-4.06	0.07	-0.0295	-0.3954	-0.2427	
-0.013176	0.974292	0.217404	-9.17	-3.64	0.42	-0.0336	-0.4014	-0.2442	
-0.013786	0.968924	0.21655	-9.24	-3.43	0.63	-0.0364	-0.4028	-0.2472	
-0.005856	0.967216	0.213378	-8.4	-3.36	1.05	-0.0351	-0.3983	-0.2472	
-0.000488	0.970388	0.216428	-7.35	-3.01	1.4	-0.0323	-0.3953	-0.2427	
-0.003538	0.977098	0.218014	-6.65	-2.52	1.75	-0.0306	-0.403	-0.2427	
-0.015738	0.979294	0.221918	-7.14	-2.24	2.24	-0.0509	-0.3977	-0.2517	
-0.016226	0.981002	0.22692	-7.21	-2.31	2.52	-0.042	-0.4057	-0.2487	
-0.012932	0.974414	0.227164	-7.21	-2.03	2.59	-0.029	-0.4092	-0.2427	
-0.00732	0.972828	0.227164	-6.72	-1.96	2.66	-0.0353	-0.3921	-0.2457	
-0.001098	0.980514	0.229604	-5.74	-1.89	2.8	-0.0381	-0.3951	-0.2487	
0.005368	0.988932	0.228872	-5.18	-1.75	2.8	-0.0364	-0.3997	-0.2564	
-0.00366	1.0309	0.23363	-4.13	-2.03	1.96	-0.0509	-0.3961	-0.2624	
0.015738	0.989176	0.24034	-3.29	-2.1	1.82	-0.0437	-0.3964	-0.2594	
0.021594	0.989176	0.233874	-2.94	-1.68	1.33	-0.0449	-0.404	-0.2578	
0.010248	0.98393	0.233386	-1.33	-1.33	1.26	-0.0481	-0.3978	-0.2471	
0.005246	0.989542	0.2257	3.36	-1.96	-0.07	-0.0537	-0.3991	-0.2608	
0.017324	0.98881	0.219722	4.48	-2.24	-1.75	-0.0349	-0.4059	-0.2442	
0.027084	0.986126	0.223504	4.41	-0.84	-4.27	-0.0465	-0.4009	-0.2502	
0.010858	0.99674	0.213622	1.33	3.64	-3.5	-0.038	-0.3982	-0.2442	
0.000366	1.00955	0.187392	-1.54	4.69	-2.87	-0.0407	-0.4042	-0.2456	
-0.003782	0.992348	0.174582	-7.07	2.8	-2.73	-0.0323	-0.3968	-0.2442	
0.009516	1.008574	0.196908	-5.53	0.35	-5.95	-0.0439	-0.3887	-0.2609	
0.035624	1.02053	0.207888	-6.3	-0.14	-9.1	-0.045	-0.3994	-0.2624	
0.05734	1.02114	0.208986	-6.93	0.07	-12.88	-0.0423	-0.3995	-0.2441	
0.076494	1.022238	0.20618	-7.49	-0.28	-17.36	-0.0309	-0.3923	-0.2549	
0.056486	1.018578	0.200324	-10.85	-0.84	-20.37	-0.0336	-0.3952	-0.2656	
0.032452	1.00955	0.19886	-12.81	-0.35	-23.66	-0.0312	-0.3846	-0.2519	
0.035258	1.004914	0.20313	-12.18	-0.42	-27.44	-0.0322	-0.3953	-0.261	
0.029036	1.007354	0.19947	-12.39	0.28	-30.59	-0.0206	-0.3972	-0.2627	
-0.00427	1.006744	0.19459	-13.58	-0.07	-33.32	-0.0122	-0.3883	-0.2643	
-0.000366	1.020652	0.223382	-13.79	-0.7	-36.96	-0.0222	-0.391	-0.2642	
-0.024888	1.01077	0.216062	-17.36	-1.33	-39.97	-0.0106	-0.396	-0.2551	
-0.037576	1.009428	0.22814	-18.62	-2.24	-43.19	-0.0065	-0.3854	-0.2598	
-0.051362	1.007354	0.229604	-20.72	-1.68	-45.71	-0.0032	-0.3963	-0.2659	
-0.070272	0.992104	0.222406	-24.15	-1.47	-48.51	0.0022	-0.3842	-0.2797	
-0.08686399	0.993202	0.24949	-26.39	-0.14	-50.19	0.0136	-0.38	-0.2798	
-0.123708	0.98393	0.260836	-29.82	3.78	-51.03	0.0163	-0.3786	-0.2707	
-0.161528	0.94245	0.28426	-30.87	3.78	-52.43	0.0336	-0.3745	-0.2785	
-0.186172	0.927932	0.309758	-29.68	6.51	-52.57	0.0289	-0.3606	-0.2877	
-0.223138	0.919514	0.315248	-29.96	8.89	-50.33	0.0392	-0.3655	-0.2924	
-0.255468	0.904996	0.325862	-29.19	7.91	-50.33	0.0476	-0.3581	-0.297	
-0.279502	0.879254	0.339038	-27.93	7.98	-50.4	0.0475	-0.3551	-0.2909	
-0.270596	0.894626	0.359168	-27.79	7.77	-50.96	0.0549	-0.3568	-0.3093	
-0.277184	0.89426	0.343552	-28.42	7.63	-50.89	0.0703	-0.3451	-0.2988	
-0.294508	0.869494	0.340624	-29.33	8.05	-50.82	0.076	-0.3407	-0.3065	
-0.304024	0.862174	0.360388	-30.03	9.73	-49.42	0.0743	-0.333	-0.3065	
-0.332084	0.850706	0.365024	-29.54	10.01	-47.67	0.0847	-0.3395	-0.3112	
-0.345992	0.832772	0.362706	-29.47	10.64	-46.41	0.0918	-0.3351	-0.3174	
-0.346968	0.823744	0.364658	-30.03	12.32	-45.92	0.09299999	-0.3275	-0.322	
-0.364292	0.835822	0.383324	-31.57	14.56	-45.29	0.1043	-0.3202	-0.3191	
-0.394914	0.795196	0.392962	-33.32	17.22	-42.84	0.1043	-0.3218	-0.3175	
-0.424316	0.766038	0.41114	-34.16	19.32	-39.76	0.117	-0.3115	-0.3192	
-0.425414	0.76982	0.431514	-34.09	21.56	-37.45	0.1182	-0.3008	-0.3269	
-0.464698	0.76311	0.434808	-29.33	25.48	-34.86	0.1223	-0.2932	-0.3346	
-0.478728	0.734928	0.436638	-29.19	24.43	-32.69	0.1252	-0.2933	-0.3331	
-0.498858	0.7503	0.43432	-28.77	21.77	-32.97	0.1368	-0.2937	-0.3393	
-0.497882	0.714676	0.43249	-27.09	19.95	-32.55	0.1449	-0.2787	-0.3379	
-0.515572	0.681492	0.432734	-25.2	17.29	-30.31	0.142	-0.277	-0.3379	
-0.530822	0.686982	0.426512	-22.47	14.21	-26.67	0.1462	-0.2741	-0.3349	
-0.531188	0.685152	0.427854	-20.51	13.93	-22.75	0.1533	-0.2698	-0.3411	
-0.54778	0.69296	0.449204	-18.27	15.47	-20.09	0.1636	-0.2716	-0.3549	
-0.573156	0.698206	0.475434	-16.24	15.4	-17.29	0.1576	-0.2653	-0.3457	
-0.593408	0.694668	0.473116	-14.49	13.86	-15.89	0.1686	-0.2504	-0.3397	
-0.606584	0.675026	0.468968	-13.09	11.55	-14.35	0.1776	-0.2614	-0.3368	
-0.610244	0.677466	0.458476	-10.15	10.64	-12.25	0.1761	-0.2568	-0.3474	
-0.591212	0.67222	0.45689	-9.87	11.06	-9.66	0.1674	-0.2549	-0.3489	
-0.588894	0.669658	0.453718	-9.03	11.9	-8.12	0.1659	-0.2549	-0.3504	
-0.595848	0.674782	0.462014	-5.74	11.97	-6.79	0.1831	-0.2509	-0.3536	
-0.598532	0.669536	0.456402	-5.6	10.57	-6.09	0.1759	-0.2522	-0.3474	
-0.608414	0.66185	0.448594	-5.18	9.45	-5.18	0.1825	-0.2355	-0.3414	
-0.626226	0.65941	0.44164	-3.85	8.12	-4.48	0.1859	-0.2479	-0.3521	
-0.642574	0.655506	0.44347	-3.15	5.18	-4.06	0.1814	-0.2462	-0.3368	
-0.648552	0.658556	0.452132	-1.89	1.4	-3.36	0.1929	-0.2436	-0.3431	
-0.646844	0.670878	0.461282	-1.19	-1.61	-2.24	0.1871	-0.2434	-0.3415	
-0.636352	0.666852	0.462502	0	-3.22	-0.63	0.1902	-0.2465	-0.3522	
-0.61671	0.660142	0.460306	0.98	-4.55	1.4	0.1856	-0.2402	-0.3445	
-0.607682	0.652212	0.461892	1.75	-6.44	2.8	0.1812	-0.2401	-0.3429	
-0.614636	0.652944	0.475434	3.36	-6.93	4.76	0.1887	-0.248	-0.3445	
-0.602802	0.644892	0.479216	5.04	-7.63	6.79	0.1857	-0.2449	-0.3384	
-0.596092	0.645746	0.480802	6.23	-8.12	9.03	0.186	-0.2541	-0.3414	
-0.5978	0.653432	0.477874	7.7	-8.96	11.55	0.1829	-0.2509	-0.3322	
-0.59536	0.651236	0.479826	9.8	-9.17	14.63	0.1815	-0.2493	-0.3383	
-0.59353	0.660752	0.48129	12.04	-10.29	17.57	0.183	-0.2524	-0.3353	
-0.590602	0.652578	0.46665	14.63	-12.74	21.35	0.1689	-0.2596	-0.3397	
-0.580598	0.65575	0.459818	16.38	-14.21	23.94	0.1746	-0.2567	-0.3428	
-0.57462	0.675392	0.471774	18.48	-16.17	27.02	0.1688	-0.2581	-0.3397	
-0.564982	0.683566	0.470066	19.88	-17.22	29.89	0.1547	-0.2668	-0.3411	
-0.55327	0.693692	0.455304	21.28	-17.99	32.69	0.1634	-0.2701	-0.3366	
-0.532896	0.694058	0.438956	22.61	-19.11	35.98	0.1578	-0.2761	-0.3319	
-0.52887	0.714554	0.423584	24.22	-20.72	39.55	0.1508	-0.2804	-0.3425	
-0.53863	0.727486	0.41053	24.15	-22.82	43.19	0.1422	-0.2832	-0.3409	
-0.52826	0.736148	0.401502	24.43	-27.3	46.13	0.1338	-0.2921	-0.3347	
-0.477996	0.753472	0.416752	26.11	-29.96	47.11	0.1236	-0.2902	-0.327	
-0.437126	0.760548	0.418338	28.56	-30.59	46.69	0.1169	-0.3053	-0.3345	
-0.416386	0.7747	0.41602	31.01	-28.98	47.04	0.1144	-0.3175	-0.3299	
-0.381616	0.782264	0.4087	32.34	-25.06	48.72	0.1058	-0.3187	-0.3328	
-0.34526	0.777262	0.414678	33.11	-21.28	51.31	0.0999	-0.3185	-0.3221	
-0.31903	0.779092	0.402844	33.95	-19.04	54.6	0.0888	-0.3304	-0.3174	
-0.31903	0.821548	0.379054	36.33	-19.39	60.48	0.0698	-0.3282	-0.3096	
-0.305366	0.829722	0.368562	36.05	-18.9	63.63	0.06439999	-0.3372	-0.311	
-0.281698	0.848754	0.367098	37.73	-17.29	65.1	0.053	-0.3414	-0.3094	
-0.23912	0.865468	0.368318	39.97	-14.84	66.36	0.0491	-0.3536	-0.3108	
-0.209352	0.877058	0.35746	42.35	-11.9	67.06	0.0432	-0.3518	-0.3046	
-0.202642	0.90585	0.328058	42.98	-10.36	68.81	0.0406	-0.364	-0.2908	
-0.1525	0.928298	0.315004	42.98	-8.12	71.26	0.0291	-0.3682	-0.2861	
-0.113094	0.953918	0.290238	42.49	-7.21	73.92	0.0089	-0.3706	-0.2722	
-0.066368	0.923296	0.257054	39.97	-3.71	77	0.002	-0.378	-0.2843	
-0.018666	0.879254	0.235582	42.07	-0.56	76.44	-0.0038	-0.3778	-0.272	
-0.01586	0.922076	0.212402	38.78	0.56	79.45	-0.0196	-0.3804	-0.2658	
0.000244	0.942694	0.210816	39.62	-2.24	79.66	-0.0179	-0.3881	-0.2658	
-0.01525	0.969412	0.170434	36.26	-4.48	81.06	-0.0277	-0.3985	-0.2626	
0.002196	1.016016	0.169336	33.88	-5.18	82.67	-0.0324	-0.3907	-0.2549	
0.025254	0.996008	0.13664	29.33	-5.18	83.65	-0.0585	-0.3882	-0.2501	
0.073444	0.97356	0.141276	27.37	-7.56	82.95	-0.0513	-0.3854	-0.2532	
0.13664	0.97173	0.13664	24.5	-10.71	81.48	-0.0772	-0.3906	-0.2438	
0.182146	0.961726	0.12871	25.69	-11.62	79.38	-0.0918	-0.3886	-0.2391	
0.231434	0.993934	0.135786	23.94	-11.83	79.73	-0.0929	-0.3993	-0.2344	
0.260836	0.991128	0.143716	19.88	-10.22	81.2	-0.1058	-0.4019	-0.2313	
0.2806	0.94001	0.123464	19.95	-9.73	79.24	-0.122	-0.3891	-0.2433	
0.312076	0.94001	0.121024	15.96	-10.5	79.73	-0.1347	-0.4009	-0.2294	
0.370148	0.960384	0.12505	15.82	-12.39	77.35	-0.1425	-0.3869	-0.2218	
0.364414	0.98027	0.115168	10.08	-8.26	77.98	-0.157	-0.3848	-0.2232	
0.332084	0.985272	0.077226	5.11	-10.22	78.47	-0.1572	-0.3787	-0.2171	
0.35136	0.971608	0.109678	4.13	-10.36	76.65	-0.1763	-0.3719	-0.2138	
0.378688	0.951844	0.117242	3.71	-12.32	69.86	-0.1862	-0.3761	-0.2183	
0.399672	0.944646	0.110654	3.43	-13.37	65.73	-0.1839	-0.3594	-0.2138	
0.412238	0.913414	0.100406	0	-14.35	63.49	-0.1891	-0.3776	-0.2106	
0.444812	0.908168	0.10004	0.63	-13.72	61.53	-0.2113	-0.3584	-0.2166	
0.47946	0.900848	0.097234	1.47	-14.63	59.01	-0.2145	-0.3522	-0.2104	
0.50569	0.918782	0.100772	2.1	-11.62	56	-0.2229	-0.3564	-0.2195	
0.499834	0.910852	0.102236	-1.4	-9.87	53.34	-0.2264	-0.341	-0.2119	
0.529236	0.882548	0.126758	-4.76	-9.52	52.57	-0.2468	-0.3341	-0.2132	
0.544974	0.86498	0.1342	-5.11	-11.41	51.03	-0.2481	-0.3372	-0.2147	
0.563762	0.84851	0.133956	-8.33	-11.62	49.91	-0.2571	-0.3292	-0.2101	
0.60573	0.844118	0.148108	-9.52	-9.24	48.44	-0.2621	-0.3091	-0.2116	
0.627202	0.831674	0.128588	-8.82	-5.95	45.29	-0.272	-0.3164	-0.2054	
0.592798	0.833992	0.125294	-6.09	-4.13	43.89	-0.2762	-0.3178	-0.2114	
0.583038	0.826916	0.114314	-4.97	-5.39	42.77	-0.281	-0.3053	-0.2099	
0.586454	0.826916	0.118584	-7.42	-9.45	41.58	-0.2727	-0.2949	-0.2039	
0.61305	0.81862	0.130052	-6.16	-9.59	38.71	-0.2769	-0.2978	-0.2054	
0.60878	0.803492	0.106262	-5.11	-11.13	34.72	-0.2872	-0.2944	-0.2022	
0.645868	0.767624	0.12017	-6.3	-9.38	31.5	-0.2915	-0.2912	-0.2129	
0.652334	0.765672	0.088572	-1.61	-10.85	26.95	-0.3016	-0.2924	-0.2051	
0.651724	0.759328	0.095404	-2.03	-12.18	24.01	-0.3017	-0.2924	-0.199	
0.679174	0.743712	0.104554	1.33	-13.72	24.22	-0.3048	-0.2861	-0.196	
0.70333	0.75579	0.09394	-0.98	-11.27	21.98	-0.3121	-0.2813	-0.2081	
0.701378	0.76738	0.133468	-5.74	-9.1	24.5	-0.302	-0.2801	-0.2082	
0.688202	0.76372	0.123098	-6.44	-10.15	21.98	-0.3168	-0.2719	-0.202	
0.710894	0.730536	0.137372	-1.47	-9.38	19.25	-0.3167	-0.2734	-0.2066	
0.726876	0.727974	0.138714	6.65	-9.94	17.43	-0.3082	-0.2738	-0.1899	
0.739808	0.736758	0.103822	11.06	-14.14	14.49	-0.3125	-0.2705	-0.2036	
0.752008	0.761768	0.07442	7.28	-14.63	13.23	-0.3344	-0.2636	-0.2034	
0.725412	0.749812	0.056974	-2.24	-11.83	12.39	-0.3201	-0.2611	-0.1959	
0.707234	0.74786	0.03721	-4.55	-10.64	9.03	-0.3331	-0.2637	-0.1805	
0.726266	0.71248	0.060756	-3.85	-9.1	6.16	-0.3301	-0.2669	-0.1866	
0.732366	0.717482	0.069174	-2.31	-7.91	5.46	-0.327	-0.27	-0.1973	
0.727974	0.713822	0.07015	-6.72	-7.91	5.32	-0.3374	-0.262	-0.1896	
0.726022	0.702598	0.081008	-9.87	-5.53	4.13	-0.3305	-0.2561	-0.1851	
0.739686	0.667828	0.09076799	-6.65	-5.32	2.87	-0.3248	-0.2533	-0.1836	
0.749568	0.69113	0.086376	-4.2	-5.18	0.77	-0.3316	-0.2653	-0.1851	
0.754082	0.695766	0.09333	-4.97	-2.94	0.42	-0.3322	-0.2469	-0.1851	
0.765428	0.6893	0.090036	0	-0.28	-2.52	-0.339	-0.2573	-0.1926	
0.760792	0.6954	0.095892	1.47	2.24	-3.78	-0.3364	-0.2498	-0.1866	
0.766526	0.725778	0.090036	3.43	2.8	-5.11	-0.3417	-0.2634	-0.1957	
0.761768	0.740052	0.07625	2.87	5.67	-6.72	-0.3345	-0.2621	-0.1896	
0.75518	0.723216	0.080398	3.57	7.7	-9.73	-0.3333	-0.2529	-0.1973	
0.74664	0.725778	0.079788	2.24	8.68	-12.04	-0.3274	-0.2593	-0.1912	
0.744322	0.736514	0.07442	-0.42	8.4	-14.14	-0.3315	-0.2668	-0.1927	
0.728584	0.74298	0.084546	-3.78	9.52	-15.82	-0.3262	-0.2532	-0.1867	
0.729438	0.744078	0.094062	-2.94	9.38	-20.02	-0.3287	-0.2623	-0.1973	
0.732488	0.749934	0.088206	-1.61	9.94	-24.57	-0.3314	-0.2683	-0.1957	
0.728706	0.757132	0.094428	-3.99	10.85	-26.88	-0.3213	-0.2687	-0.1989	
0.721264	0.759816	0.097844	-5.25	12.46	-29.12	-0.3123	-0.2751	-0.2081	
0.700768	0.759328	0.090158	-7.63	12.74	-31.64	-0.3091	-0.2829	-0.2097	
0.692594	0.763598	0.092842	-10.71	13.93	-34.37	-0.3078	-0.283	-0.1929	
0.712846	0.765306	0.116144	-8.96	14.35	-38.01	-0.3022	-0.277	-0.2052	
0.712114	0.778604	0.117242	-6.86	15.47	-40.74	-0.2934	-0.2804	-0.2053	
0.69418	0.781776	0.13237	-1.82	16.87	-46.41	-0.2972	-0.2956	-0.2113	
0.669414	0.809348	0.106628	-1.54	16.94	-50.33	-0.2882	-0.3035	-0.2175	
0.649772	0.823134	0.101382	-4.06	17.5	-55.09	-0.2823	-0.3068	-0.2129	
0.636718	0.829478	0.119804	-2.94	17.78	-59.29	-0.2767	-0.3009	-0.2191	
0.618174	0.836798	0.139812	0.7	18.41	-62.3	-0.2634	-0.3121	-0.2162	
0.594262	0.83936	0.098088	2.1	18.55	-65.52	-0.2576	-0.3123	-0.2101	
0.564372	0.83631	0.077348	-1.96	17.57	-68.11	-0.2528	-0.3262	-0.2193	
0.55205	0.868396	0.069784	-2.31	16.66	-70.56	-0.2367	-0.3299	-0.2225	
0.52887	0.886208	0.109922	-3.01	17.08	-72.1	-0.2393	-0.3405	-0.224	
0.494954	0.87535	0.115412	-7	16.52	-72.87	-0.2234	-0.3411	-0.2226	
0.472872	0.872422	0.117608	-8.89	12.81	-74.2	-0.2116	-0.3461	-0.2273	
0.424316	0.887184	0.118706	-11.69	11.2	-74.69	-0.2071	-0.3524	-0.2304	
0.381494	0.89182	0.134688	-9.94	8.4	-76.09	-0.2	-0.348	-0.2305	
0.341356	0.93757	0.162382	-11.62	7.28	-74.76	-0.1895	-0.3591	-0.2321	
0.296582	0.950746	0.171532	-10.71	5.6	-75.46	-0.1736	-0.3597	-0.2353	
0.225212	0.956236	0.177144	-12.32	2.24	-75.67	-0.1531	-0.3665	-0.2385	
0.194468	0.965508	0.1769	-12.46	0.14	-78.05	-0.1573	-0.3679	-0.2446	
0.196054	0.966606	0.186782	-15.4	1.96	-78.68	-0.1457	-0.3714	-0.2416	
0.16409	0.976732	0.181048	-17.01	-1.05	-82.25	-0.1356	-0.3717	-0.2448	
0.140666	0.968436	0.188246	-20.23	-1.89	-83.02	-0.1295	-0.3796	-0.254	
0.11773	0.999302	0.197396	-21.98	-0.63	-84.84	-0.115	-0.3816	-0.2465	
0.104554	0.982344	0.206912	-27.23	3.01	-86.38	-0.098	-0.373	-0.2497	
0.08967	0.977708	0.21472	-28.42	6.16	-89.88	-0.0919	-0.3794	-0.2589	
0.053314	0.969046	0.23119	-32.2	11.2	-92.4	-0.0816	-0.3859	-0.2514	
-0.001342	0.963434	0.25559	-35	13.93	-94.36	-0.06879999	-0.3786	-0.2592	
-0.05307	0.923052	0.269742	-35.91	14.84	-94.22	-0.0583	-0.3882	-0.273	
-0.086254	0.895846	0.284992	-32.76	13.37	-92.12	-0.0326	-0.3799	-0.2717	
-0.115534	0.899384	0.29036	-29.4	10.99	-88.62	-0.0251	-0.3863	-0.2779	
-0.138104	0.88877	0.294752	-30.24	11.2	-84	-0.014	-0.3744	-0.2735	
-0.139446	0.856928	0.330742	-29.54	12.67	-78.68	-0.0168	-0.3743	-0.2826	
-0.19581	0.84546	0.328912	-29.61	15.61	-67.69	0.0005	-0.3749	-0.2904	
-0.238876	0.86559	0.328424	-24.22	16.45	-63.7	0.0034	-0.375	-0.295	
-0.247782	0.870226	0.336964	-24.71	17.92	-57.19	0.0174	-0.3617	-0.2937	
-0.25376	0.892064	0.337696	-22.33	18.9	-54.18	0.0291	-0.3636	-0.306	
-0.261934	0.843264	0.330498	-22.61	20.79	-51.1	0.0405	-0.3594	-0.3015	
-0.28426	0.856562	0.335988	-21.77	21.98	-49.63	0.0447	-0.355	-0.2985	
-0.333914	0.897066	0.32574	-22.54	20.72	-45.99	0.0589	-0.3478	-0.3018	
-0.345138	0.91134	0.340624	-27.02	21.14	-42.63	0.0588	-0.3463	-0.3033	
-0.3355	0.851926	0.359412	-26.25	19.32	-42.63	0.0648	-0.3526	-0.3049	
-0.343186	0.850462	0.355752	-28	18.34	-42.35	0.0735	-0.3483	-0.3156	
-0.333304	0.844362	0.376248	-30.45	17.92	-39.41	0.0831	-0.3364	-0.3112	
-0.368928	0.811056	0.364292	-33.6	18.48	-38.43	0.0846	-0.3349	-0.3173	
-0.406626	0.821182	0.3782	-28.35	17.43	-36.05	0.0871	-0.3242	-0.3158	
-0.414556	0.831674	0.387228	-28.21	16.87	-34.37	0.1058	-0.3203	-0.3237	
-0.377468	0.786168	0.394426	-28.28	14.56	-34.51	0.1001	-0.3231	-0.3251	
-0.376736	0.800076	0.40626	-28.14	12.04	-34.65	0.1085	-0.3158	-0.3222	
-0.397232	0.784826	0.409798	-29.33	11.62	-30.8	0.1142	-0.3114	-0.3268	
-0.435906	0.793	0.428952	-29.05	14.98	-27.51	0.1196	-0.3008	-0.3315	
-0.475922	0.78995	0.435906	-26.53	15.82	-26.11	0.1293	-0.2889	-0.3286	
-0.453352	0.736148	0.449204	-25.41	16.17	-24.99	0.1236	-0.2887	-0.3346	
-0.425292	0.751886	0.450302	-23.24	14.91	-24.36	0.1263	-0.2795	-0.3438	
-0.42212	0.750056	0.452742	-20.51	15.54	-23.8	0.1423	-0.2893	-0.3287	
-0.458354	0.78995	0.4514	-20.72	17.08	-19.11	0.1279	-0.2857	-0.3408	
-0.478606	0.750422	0.452742	-16.94	18.13	-18.41	0.1465	-0.2818	-0.341	
-0.489952	0.74359	0.453718	-17.5	19.04	-15.89	0.1492	-0.2742	-0.3456	
-0.496906	0.721264	0.456036	-20.3	18.34	-11.34	0.149	-0.2681	-0.3471	
-0.505324	0.723582	0.457988	-16.1	17.64	-13.09	0.1665	-0.2733	-0.3458	
-0.520452	0.723338	0.462136	-18.13	15.96	-8.47	0.1532	-0.2667	-0.3411	
-0.541436	0.704672	0.452986	-14.7	14.42	-10.15	0.1587	-0.2577	-0.3396	
-0.570716	0.717604	0.449814	-14.7	13.3	-7	0.1591	-0.2638	-0.3595	
-0.569618	0.700036	0.455182	-13.86	12.04	-7.77	0.1645	-0.2594	-0.3382	
-0.56486	0.707478	0.466528	-12.67	8.05	-7.56	0.1618	-0.2639	-0.3396	
-0.55937	0.696498	0.46787	-12.11	6.16	-8.05	0.1603	-0.2577	-0.3549	
-0.557906	0.691984	0.472262	-11.06	6.51	-8.47	0.1658	-0.2503	-0.3504	
-0.552416	0.689788	0.472994	-9.87	5.39	-8.68	0.1688	-0.2565	-0.3397	
-0.545584	0.691374	0.47153	-10.64	3.22	-8.61	0.1715	-0.2474	-0.352	
-0.542534	0.685152	0.467748	-10.78	2.66	-8.26	0.173	-0.2521	-0.3459	
-0.544486	0.683932	0.472872	-9.94	3.08	-7.91	0.1788	-0.2523	-0.3475	
-0.561322	0.686616	0.481412	-8.96	2.03	-7.14	0.1768	-0.2369	-0.3475	
-0.576938	0.681614	0.483486	-8.61	1.61	-6.09	0.1813	-0.2432	-0.3445	
-0.568886	0.67832	0.486536	-7.14	0.7	-5.04	0.1741	-0.2383	-0.3566	
-0.5673	0.679296	0.492758	-6.09	0.77	-3.64	0.1741	-0.2383	-0.3566	
-0.571692	0.665144	0.491172	-5.53	0.49	-1.33	0.1785	-0.2446	-0.3429	
-0.57462	0.667828	0.49837	-3.92	0.42	1.12	0.1725	-0.2367	-0.352	
-0.580842	0.662582	0.502396	-3.22	0.07	3.78	0.1741	-0.2414	-0.3505	
-0.585234	0.652212	0.50813	-1.75	-0.91	6.16	0.1725	-0.2352	-0.352	
-0.5795	0.642574	0.511546	0.49	-3.36	8.19	0.1725	-0.2352	-0.352	
-0.573034	0.636962	0.514108	3.78	-4.83	10.57	0.1699	-0.2443	-0.3459	
-0.578524	0.644648	0.515938	6.65	-4.76	12.88	0.1656	-0.241	-0.3611	
-0.566324	0.642818	0.509716	8.75	-5.46	14.98	0.1699	-0.2427	-0.3581	
-0.560346	0.661484	0.512156	10.43	-7.77	17.01	0.1728	-0.2444	-0.3566	
-0.553148	0.65636	0.500444	11.13	-9.52	19.46	0.1715	-0.2489	-0.3535	
-0.562908	0.661362	0.505812	12.39	-9.94	21.14	0.166	-0.2564	-0.3489	
-0.56791	0.66795	0.508008	14.84	-11.13	23.66	0.1613	-0.2455	-0.3488	
-0.553148	0.663558	0.507032	17.5	-12.46	25.76	0.1514	-0.2528	-0.3472	
-0.537654	0.664046	0.491904	20.3	-14.56	28.14	0.1547	-0.2637	-0.3503	
-0.538142	0.66856	0.488488	22.05	-16.31	31.01	0.1517	-0.262	-0.3457	
-0.533628	0.688934	0.482388	24.5	-18.06	33.81	0.1531	-0.2606	-0.3441	
-0.517036	0.700036	0.46543	26.88	-19.53	37.31	0.1346	-0.2706	-0.3409	
-0.483242	0.705038	0.456402	28.63	-20.65	40.67	0.1288	-0.2735	-0.3301	
-0.470554	0.720898	0.442006	29.4	-22.96	44.31	0.1308	-0.2843	-0.35	
-0.443348	0.721264	0.43493	29.96	-24.92	47.53	0.1263	-0.2811	-0.3392	
-0.417118	0.73627	0.435296	32.13	-26.04	50.47	0.1105	-0.2867	-0.3299	
-0.383446	0.764696	0.433344	35	-26.53	52.99	0.1027	-0.3109	-0.3344	
-0.348188	0.785558	0.429684	36.89	-24.78	55.02	0.097	-0.3123	-0.3374	
-0.333182	0.793244	0.409066	37.59	-24.01	59.57	0.0856	-0.3211	-0.3189	
-0.311466	0.792878	0.407968	38.85	-23.59	61.53	0.0757	-0.3269	-0.3279	
-0.285358	0.811422	0.402722	41.3	-21	62.37	0.0617	-0.3402	-0.3232	
-0.262178	0.843142	0.40382	43.33	-16.45	63.07	0.0643	-0.3372	-0.3064	
-0.234362	0.894138	0.390644	44.03	-13.93	64.4	0.0516	-0.3429	-0.3109	
-0.20191	0.889136	0.371978	43.75	-11.41	65.45	0.0402	-0.3517	-0.3	
-0.182268	0.864126	0.35563	45.08	-8.68	65.73	0.0359	-0.3531	-0.2985	
-0.171166	0.894016	0.327204	43.61	-6.65	69.23	0.0231	-0.3588	-0.2937	
-0.140422	0.895602	0.291458	44.38	-4.69	70.98	0.0247	-0.3619	-0.3014	
-0.11468	0.942328	0.264984	45.15	-4.9	73.36	0.0103	-0.3676	-0.2829	
-0.058682	0.927688	0.256078	43.89	-5.67	75.53	0.0021	-0.3826	-0.2797	
-0.03782	0.926956	0.22692	43.26	-6.37	75.18	-0.011	-0.3776	-0.275	
-0.026108	0.946842	0.21655	42.63	-6.23	75.95	-0.0224	-0.3818	-0.2703	
-0.015128	0.939156	0.158844	41.65	-9.45	78.12	-0.0253	-0.3848	-0.2672	
0.033062	0.9272	0.16043	43.19	-10.99	77.91	-0.0427	-0.3842	-0.2594	
0.037088	0.94916	0.135664	43.68	-14.63	78.26	-0.0524	-0.3961	-0.2517	
0.090036	0.982466	0.127612	39.2	-15.68	79.59	-0.0641	-0.3942	-0.2485	
0.164212	0.987102	0.138104	34.44	-14.77	77.7	-0.0638	-0.4034	-0.2408	
0.177144	0.995154	0.1159	34.51	-15.12	74.9	-0.0844	-0.3935	-0.2361	
0.200324	1.008818	0.11712	28.07	-14.14	76.79	-0.0983	-0.4099	-0.2359	
0.252784	0.974902	0.11651	24.64	-13.86	76.3	-0.1017	-0.3944	-0.2344	
0.299388	0.98088	0.108214	23.45	-14	76.09	-0.1162	-0.3939	-0.2296	
0.323788	0.951966	0.09333	19.95	-12.25	74.48	-0.1279	-0.392	-0.2219	
0.328546	0.962824	0.089548	19.18	-11.34	74.83	-0.141	-0.3915	-0.2126	
0.33306	0.966484	0.076006	16.1	-12.39	72.73	-0.1452	-0.3929	-0.2217	
0.336598	0.976854	0.08174	12.11	-10.92	71.75	-0.1557	-0.3818	-0.2155	
0.34038	1.014186	0.106018	10.29	-8.12	69.16	-0.1741	-0.3919	-0.2199	
0.38674	0.974292	0.088084	8.61	-6.93	65.1	-0.173	-0.3843	-0.2108	
0.404674	0.948428	0.061732	5.39	-9.59	63.63	-0.192	-0.3759	-0.2106	
0.437858	0.928786	0.073078	0	-8.82	62.86	-0.1935	-0.3744	-0.2091	
0.451278	0.913536	0.05673	1.47	-9.31	60.76	-0.2051	-0.374	-0.2074	
0.470798	0.915244	0.05917	-1.4	-10.5	59.43	-0.2232	-0.3518	-0.2088	
0.49593	0.905484	0.062586	0.07	-8.12	58.31	-0.2258	-0.361	-0.2057	
0.514596	0.877912	0.07198	-0.28	-7.21	55.93	-0.2258	-0.3579	-0.2103	
0.532652	0.843874	0.076128	-5.81	-7.98	54.25	-0.2406	-0.3497	-0.2041	
0.530456	0.854976	0.083692	-10.01	-8.05	52.5	-0.2438	-0.3404	-0.2056	
0.536556	0.85766	0.070028	-10.57	-8.47	52.71	-0.2451	-0.3434	-0.2041	
0.57279	0.861808	0.115046	-12.25	-8.61	52.99	-0.2703	-0.3257	-0.2008	
0.588772	0.857294	0.114924	-10.99	-8.05	50.4	-0.2616	-0.3244	-0.2116	
0.591578	0.853268	0.104798	-11.55	-7.49	49.91	-0.2676	-0.3181	-0.2039	
0.589382	0.856318	0.099186	-12.46	-8.12	48.16	-0.275	-0.3102	-0.2099	
0.603412	0.849852	0.106018	-10.71	-7.98	44.03	-0.2826	-0.3007	-0.2084	
0.633546	0.830088	0.110288	-10.71	-9.38	39.55	-0.2866	-0.3113	-0.2052	
0.652334	0.81435	0.132736	-6.3	-7.49	35.21	-0.2999	-0.2985	-0.2189	
0.643672	0.827526	0.09857599	-1.68	-8.61	30.73	-0.3013	-0.3031	-0.2066	
0.659532	0.819962	0.102846	-3.5	-8.96	25.34	-0.2898	-0.3035	-0.1991	
0.663192	0.8052	0.099918	-2.38	-8.4	21.21	-0.293	-0.2911	-0.2083	
0.675758	0.784094	0.106506	-5.25	-5.88	18.83	-0.302	-0.2832	-0.2036	
0.679906	0.751276	0.102724	-9.24	-5.95	16.59	-0.3002	-0.294	-0.199	
0.66124	0.775554	0.101504	-3.64	-7.35	16.31	-0.3076	-0.286	-0.2127	
0.669292	0.754692	0.096136	-3.92	-8.75	15.54	-0.3094	-0.2752	-0.2036	
0.685274	0.742614	0.107604	-5.74	-7.49	18.41	-0.3049	-0.2831	-0.199	
0.685152	0.724802	0.07442	-4.83	-9.94	14	-0.3152	-0.275	-0.2066	
0.678442	0.773358	0.075762	-4.62	-8.68	13.02	-0.3092	-0.2814	-0.2036	
0.687836	0.770918	0.108702	-4.06	-6.72	11.06	-0.3157	-0.2612	-0.2036	
0.70821	0.745664	0.11712	-1.47	-5.11	7.98	-0.3253	-0.2731	-0.2111	
0.712358	0.740052	0.103456	-2.8	-5.18	7.14	-0.3153	-0.2735	-0.2066	
0.702232	0.750788	0.082716	-6.44	-4.41	6.65	-0.3244	-0.264	-0.1928	
0.72102	0.736026	0.121146	-10.01	-3.36	7.07	-0.3198	-0.2672	-0.2035	
0.72773	0.721508	0.11224	-5.81	-2.1	3.57	-0.3287	-0.2623	-0.1973	
0.717726	0.714432	0.11468	-7.21	-0.63	4.34	-0.3197	-0.2703	-0.2004	
0.704916	0.72956	0.11407	-4.2	-1.4	1.96	-0.3213	-0.2656	-0.2004	
0.709918	0.726998	0.10797	-2.59	-0.42	0.28	-0.3299	-0.2668	-0.2019	
0.720044	0.717604	0.110898	-3.29	0	-0.91	-0.3269	-0.27	-0.2049	
0.731756	0.718336	0.122244	-2.45	-0.21	-2.24	-0.3274	-0.2577	-0.2019	
0.743712	0.728706	0.115778	-2.03	-0.56	-4.06	-0.3272	-0.2623	-0.2034	
0.743712	0.720044	0.110654	-2.8	-0.7	-6.02	-0.3168	-0.2688	-0.2081	
0.733342	0.718946	0.119682	-2.87	1.54	-6.86	-0.3228	-0.2656	-0.2019	
0.721874	0.727974	0.119438	-2.59	3.01	-8.4	-0.3194	-0.2795	-0.2019	
0.726266	0.721386	0.119682	-1.89	3.15	-10.15	-0.3257	-0.2624	-0.2065	
0.725168	0.726144	0.10004	-2.8	3.22	-12.18	-0.32	-0.261	-0.2096	
0.730414	0.736514	0.12261	-3.08	5.53	-13.16	-0.3211	-0.2686	-0.2203	
0.721508	0.750178	0.124562	-2.03	7.56	-14.63	-0.3139	-0.272	-0.2051	
0.715286	0.759816	0.128588	-3.99	9.1	-16.8	-0.3154	-0.2658	-0.2158	
0.716628	0.771772	0.139812	-5.39	10.15	-19.81	-0.3064	-0.2738	-0.2219	
0.72773	0.771162	0.150792	-5.53	11.55	-22.96	-0.311	-0.2706	-0.2082	
0.731878	0.782264	0.138958	-9.1	15.82	-26.6	-0.3034	-0.28	-0.2143	
0.718214	0.785436	0.118584	-13.09	18.83	-27.44	-0.2964	-0.2726	-0.2144	
0.69662	0.785314	0.128466	-12.81	19.81	-30.66	-0.2945	-0.2864	-0.222	
0.669902	0.79361	0.134078	-11.27	21.21	-34.37	-0.2919	-0.2789	-0.2144	
0.666852	0.795684	0.142618	-6.51	20.51	-40.25	-0.2798	-0.29	-0.2298	
0.660386	0.820694	0.135664	-4.55	20.44	-44.52	-0.2755	-0.2902	-0.2268	
0.643306	0.82655	0.1464	-7	20.86	-48.37	-0.2739	-0.2948	-0.2283	
0.640622	0.831552	0.171166	-6.58	20.86	-52.15	-0.2607	-0.2999	-0.2391	
0.627202	0.84485	0.177266	-2.24	23.31	-56.21	-0.2665	-0.3028	-0.2253	
0.58743	0.834236	0.13603	-0.7	21.35	-61.39	-0.2502	-0.3125	-0.2316	
0.55327	0.820694	0.128466	-5.32	20.86	-63.63	-0.253	-0.3124	-0.2422	
0.530822	0.832528	0.130662	-5.04	19.67	-67.62	-0.2296	-0.3193	-0.2516	
0.513864	0.839482	0.140056	-5.95	17.92	-69.65	-0.234	-0.3207	-0.2393	
0.51545	0.870226	0.157136	-6.72	16.38	-72.59	-0.215	-0.3244	-0.2502	
0.487634	0.899262	0.13298	-3.85	15.33	-74.97	-0.2145	-0.3413	-0.2441	
0.425536	0.89426	0.151524	-13.3	13.93	-78.68	-0.1942	-0.342	-0.2519	
0.402356	0.915	0.174826	-10.01	10.57	-83.37	-0.1808	-0.3548	-0.2551	
0.351604	0.933056	0.173728	-11.62	10.01	-85.89	-0.171	-0.3475	-0.2506	
0.317932	0.946354	0.224846	-9.73	7.98	-87.71	-0.1531	-0.3603	-0.2584	
0.272182	0.983076	0.22387	-7.14	8.75	-87.36	-0.1446	-0.3576	-0.2585	
0.217892	0.933666	0.200812	-14.14	5.74	-86.45	-0.1341	-0.3702	-0.257	
0.148596	0.936106	0.173118	-18.9	1.54	-88.83	-0.1229	-0.3583	-0.2572	
0.162016	0.923784	0.190808	-20.93	1.4	-92.05	-0.1158	-0.3571	-0.2557	
0.162016	0.944524	0.220088	-21.42	0.63	-92.89	-0.1067	-0.3696	-0.2542	
0.137494	0.954406	0.22387	-22.4	2.1	-93.87	-0.105	-0.3743	-0.2619	
0.10431	0.942084	0.23973	-24.5	5.18	-95.41	-0.08639999	-0.3673	-0.2682	
0.058316	0.917318	0.26108	-23.87	8.47	-97.51	-0.0661	-0.3664	-0.2821	
0.003782	0.911462	0.28243	-22.61	9.31	-97.37	-0.0544	-0.3714	-0.2884	
-0.048312	0.904264	0.292678	-23.66	9.66	-95.83	-0.0442	-0.3718	-0.29	
-0.102602	0.918904	0.300486	-25.41	11.69	-92.82	-0.0385	-0.3704	-0.2855	
-0.150304	0.950502	0.327692	-29.4	11.83	-87.5	-0.0199	-0.365	-0.2933	
-0.157868	0.907558	0.319152	-31.92	10.57	-84.21	-0.0052	-0.3716	-0.295	
-0.150792	0.917562	0.327082	-33.88	10.01	-83.23	0.0016	-0.3626	-0.295	
-0.186782	0.915	0.345748	-37.24	11.48	-77.42	0.0001	-0.3595	-0.3027	
-0.223992	0.872544	0.350628	-40.6	16.31	-70.42	0.0163	-0.3693	-0.3028	
-0.2196	0.87962	0.366	-38.5	17.08	-65.8	0.033	-0.3499	-0.303	
-0.234606	0.81923	0.358802	-40.25	17.36	-62.16	0.033	-0.3468	-0.3198	
-0.245464	0.851804	0.364536	-38.99	19.11	-62.65	0.0457	-0.3396	-0.3139	
-0.260226	0.823378	0.388692	-41.93	21.21	-58.52	0.0514	-0.3368	-0.317	
-0.269742	0.813008	0.406138	-37.31	21.98	-57.89	0.0624	-0.3187	-0.3217	
-0.29524	0.79117	0.410652	-38.64	20.86	-55.09	0.0655	-0.325	-0.3217	
-0.327692	0.805444	0.426146	-35.14	19.53	-54.46	0.0783	-0.3193	-0.3234	
-0.355874	0.785314	0.429074	-36.61	19.53	-50.61	0.0885	-0.3181	-0.3311	
-0.389912	0.794342	0.43676	-38.78	19.32	-45.57	0.0913	-0.3136	-0.3358	
-0.397232	0.776286	0.457012	-36.82	18.62	-42.42	0.1079	-0.2927	-0.3436	
-0.416874	0.759572	0.453596	-34.51	15.68	-41.79	0.1022	-0.2956	-0.3405	
-0.416142	0.718824	0.469822	-32.62	14.28	-38.08	0.1109	-0.2928	-0.3467	
-0.461404	0.705892	0.462014	-30.17	14.07	-33.95	0.1219	-0.2778	-0.3484	
-0.460916	0.7381	0.466284	-28.21	13.16	-31.01	0.1234	-0.2779	-0.3499	
-0.45933	0.713944	0.481778	-24.36	13.72	-29.89	0.1348	-0.2737	-0.35	
-0.479582	0.691984	0.48739	-23.17	14	-26.39	0.1304	-0.2705	-0.3531	
-0.49715	0.715652	0.4941	-24.64	13.86	-21.07	0.1315	-0.2598	-0.3562	
-0.512766	0.722728	0.498126	-19.11	13.51	-22.05	0.1372	-0.26	-0.3516	
-0.50996	0.68625	0.5063	-18.62	14.07	-20.44	0.1401	-0.257	-0.3562	
-0.513498	0.67283	0.507032	-17.29	13.72	-18.34	0.1444	-0.2556	-0.3624	
-0.525088	0.670024	0.505812	-16.24	13.65	-15.89	0.1488	-0.2604	-0.3533	
-0.547658	0.677222	0.510448	-15.05	13.37	-13.65	0.1543	-0.2498	-0.3595	
-0.552172	0.670024	0.513132	-14.14	12.88	-12.04	0.1568	-0.2392	-0.3565	
-0.55449	0.671122	0.519354	-13.02	11.27	-11.2	0.1586	-0.2484	-0.361	
-0.5612	0.667584	0.515572	-12.53	10.29	-10.22	0.16	-0.247	-0.358	
-0.55449	0.661606	0.517402	-11.41	9.17	-9.59	0.1581	-0.2362	-0.3519	
-0.55449	0.660874	0.51423	-11.41	7.07	-8.82	0.164	-0.2395	-0.3565	
-0.565836	0.648918	0.518866	-11.34	5.88	-8.12	0.1624	-0.2302	-0.3657	
-0.557296	0.64965	0.51667	-10.5	4.83	-7.42	0.1637	-0.2302	-0.355	
-0.554978	0.649406	0.520208	-9.59	4.83	-7.14	0.1609	-0.2317	-0.3611	
-0.562908	0.640988	0.512156	-8.33	4.13	-6.86	0.1622	-0.2271	-0.3626	
-0.56547	0.643794	0.523258	-7.28	2.94	-6.02	0.1653	-0.2318	-0.3611	
-0.558638	0.653188	0.52704	-6.02	1.75	-4.62	0.1695	-0.2274	-0.3627	
-0.563152	0.658312	0.527406	-5.18	1.4	-3.22	0.1737	-0.2244	-0.3658	
-0.567178	0.649406	0.534726	-4.2	1.19	-2.1	0.1707	-0.2228	-0.3582	
-0.55815	0.650382	0.529358	-2.66	0.63	-1.05	0.1649	-0.2195	-0.3657	
-0.562908	0.646112	0.533018	-2.66	0.84	0.63	0.1581	-0.2331	-0.3641	
-0.58499	0.647088	0.53375	-1.33	1.4	2.45	0.1722	-0.2213	-0.3735	
-0.577548	0.638426	0.53314	0.42	1.12	4.62	0.1783	-0.2338	-0.3582	
-0.570106	0.643672	0.52887	2.8	0.14	6.58	0.1752	-0.226	-0.3674	
-0.564494	0.643184	0.5307	3.85	-0.84	8.4	0.1649	-0.218	-0.3673	
-0.572058	0.623054	0.53131	5.11	-1.61	9.94	0.1665	-0.2273	-0.3566	
-0.582794	0.627446	0.535702	7.7	-2.87	11.97	0.1681	-0.2319	-0.3612	
-0.559858	0.634888	0.534726	10.15	-3.92	15.33	0.1667	-0.2334	-0.3596	
-0.557296	0.632082	0.53558	11.83	-5.32	17.85	0.1612	-0.2409	-0.3626	
-0.564494	0.633546	0.523868	13.79	-6.79	20.16	0.1566	-0.2331	-0.358	
-0.572912	0.646112	0.524966	15.75	-8.19	22.33	0.1642	-0.2425	-0.3596	
-0.562054	0.64538	0.51423	17.01	-10.01	24.36	0.1485	-0.2465	-0.3686	
-0.544364	0.642574	0.521672	19.25	-10.78	25.83	0.1512	-0.2467	-0.3518	
-0.547048	0.65636	0.512034	21.42	-12.32	28	0.1471	-0.2527	-0.3487	
-0.524356	0.666852	0.50813	23.45	-13.93	30.17	0.143	-0.2587	-0.3517	
-0.518012	0.670268	0.495808	25.13	-16.17	32.41	0.1433	-0.2678	-0.3593	
-0.511668	0.676978	0.485926	27.09	-17.01	34.93	0.1331	-0.2644	-0.3516	
-0.493734	0.69662	0.477142	28.91	-18.27	37.52	0.1317	-0.2675	-0.3454	
-0.47946	0.710528	0.477142	30.31	-18.9	40.88	0.1218	-0.2732	-0.3545	
-0.478606	0.71858	0.45933	31.43	-20.65	44.1	0.1149	-0.2837	-0.3483	
-0.459574	0.720654	0.434442	32.69	-21.91	46.9	0.1165	-0.2899	-0.3468	
-0.428342	0.740784	0.419924	34.37	-22.82	49.91	0.1108	-0.2913	-0.3436	
-0.372954	0.77104	0.432612	37.17	-24.78	55.65	0.107	-0.3095	-0.339	
-0.338794	0.775798	0.425292	39.62	-27.3	58.17	0.0895	-0.3028	-0.3404	
-0.312198	0.795074	0.41907	40.81	-25.06	59.92	0.0822	-0.3025	-0.3357	
-0.288164	0.819962	0.429318	42.63	-22.75	62.09	0.0841	-0.3195	-0.3265	
-0.246318	0.805322	0.423218	43.75	-19.53	64.54	0.0672	-0.3265	-0.3385	
-0.23302	0.818986	0.410042	45.85	-16.03	67.55	0.06	-0.3324	-0.3232	
-0.224602	0.851682	0.386618	46.27	-14.14	72.31	0.0484	-0.3336	-0.3078	
-0.191296	0.85705	0.381006	45.99	-9.94	75.53	0.0388	-0.3471	-0.3123	
-0.166286	0.879742	0.357094	48.58	-8.4	77.56	0.0288	-0.3498	-0.3137	
-0.143716	0.896456	0.332206	48.37	-6.23	80.29	0.0232	-0.3588	-0.2998	
-0.117242	0.916708	0.303536	47.46	-7.91	82.74	0.0072	-0.3598	-0.2921	
-0.076372	0.926346	0.285358	46.76	-5.18	84.91	-0.0025	-0.3671	-0.2919	
-0.04514	0.923052	0.247172	45.57	-2.03	86.45	-0.0113	-0.3637	-0.2873	
-0.013786	0.89975	0.220088	44.38	-0.91	88.69	-0.0139	-0.3713	-0.2918	
0	0.910364	0.22021	44.38	-0.77	90.37	-0.0182	-0.3758	-0.2795	
0.006954	0.93269	0.20679	43.33	-5.53	92.19	-0.0456	-0.381	-0.264	
0.03599	0.914146	0.136518	40.67	-11.9	92.82	-0.06439999	-0.3834	-0.2562	
0.114192	0.961604	0.134322	39.34	-15.61	92.89	-0.083	-0.3873	-0.256	
0.172264	0.954894	0.132492	35.63	-17.01	94.22	-0.0871	-0.3964	-0.2483	
0.20557	0.979416	0.127734	34.09	-16.1	94.36	-0.1004	-0.3898	-0.2405	
0.243756	0.987102	0.120414	32.76	-19.67	93.8	-0.1134	-0.3878	-0.2434	
0.334768	0.956114	0.130662	29.4	-19.88	90.58	-0.1294	-0.3858	-0.2326	
0.399672	0.940986	0.11529	28.28	-18.34	86.94	-0.1408	-0.3915	-0.2309	
0.413824	0.934764	0.08967	27.3	-16.38	83.72	-0.1569	-0.3863	-0.2232	
0.382226	1.012112	0.077836	24.64	-17.64	82.67	-0.1657	-0.3876	-0.2124	
0.38308	1.00711	0.096746	16.03	-15.75	81.55	-0.1744	-0.3827	-0.2169	
0.424072	0.973926	0.085034	11.13	-12.95	75.11	-0.1805	-0.3733	-0.2138	
0.461038	0.963556	0.103212	12.53	-13.65	69.58	-0.196	-0.3834	-0.2182	
0.47946	0.952576	0.066978	7	-9.8	67.27	-0.2039	-0.3632	-0.2182	
0.492392	0.925004	0.079178	3.15	-9.66	66.78	-0.2158	-0.3567	-0.2104	
0.515084	0.900848	0.071858	0.7	-9.52	65.45	-0.2156	-0.3613	-0.2089	
0.529236	0.8906	0.049776	-1.4	-9.87	63.21	-0.2362	-0.3498	-0.2118	
0.579134	0.875716	0.06588	-0.98	-7.84	61.81	-0.2465	-0.3434	-0.2101	
0.604266	0.851316	0.060756	-3.64	-7.28	60.27	-0.241	-0.3374	-0.2026	
0.6161	0.847412	0.08418	-5.53	-5.88	58.8	-0.2483	-0.3372	-0.1964	
0.60451	0.864614	0.078446	-6.65	-5.18	55.93	-0.2571	-0.3323	-0.2024	
0.584746	0.848144	0.064416	-6.3	-5.32	53.48	-0.2615	-0.3275	-0.2116	
0.601704	0.804468	0.077958	-9.1	-4.69	50.54	-0.2618	-0.3152	-0.2162	
0.625372	0.818864	0.090524	-9.38	-5.53	48.23	-0.2705	-0.318	-0.2039	
0.661118	0.833016	0.08662	-5.53	-6.37	45.92	-0.2752	-0.3055	-0.2115	
0.673196	0.804956	0.097234	-9.59	-6.16	42.98	-0.2866	-0.3082	-0.2098	
0.655262	0.797148	0.101504	-9.94	-4.9	40.25	-0.2868	-0.3021	-0.2114	
0.661728	0.78507	0.117852	-8.54	-4.9	36.68	-0.2914	-0.2973	-0.2007	
0.68076	0.76982	0.091012	-10.22	-5.88	31.99	-0.2945	-0.2865	-0.2159	
0.700646	0.774944	0.107848	-13.72	-6.3	29.12	-0.3019	-0.2847	-0.2036	
0.703574	0.771894	0.120902	-5.74	-6.79	24.64	-0.3023	-0.2724	-0.2067	
0.67893	0.75335	0.112362	-9.94	-4.97	23.24	-0.3036	-0.2739	-0.2174	
0.664656	0.768112	0.107726	-10.01	-5.32	21	-0.3047	-0.2846	-0.2158	
0.697596	0.750544	0.096868	-10.64	-7	17.57	-0.3138	-0.272	-0.2127	
0.716628	0.731634	0.10553	-8.75	-9.1	14.84	-0.3198	-0.2657	-0.2066	
0.728218	0.740052	0.122976	-8.61	-9.45	14.49	-0.3213	-0.2656	-0.2035	
0.73688	0.737368	0.115046	-6.86	-10.85	11.41	-0.3172	-0.2596	-0.2035	
0.732488	0.736514	0.102968	-6.58	-11.97	7.77	-0.3274	-0.2562	-0.208	
0.732366	0.732	0.104676	-8.61	-12.46	6.23	-0.326	-0.2547	-0.205	
0.737734	0.704184	0.098454	-9.31	-13.3	4.48	-0.3262	-0.2455	-0.2111	
0.735904	0.68625	0.08601	-11.27	-12.53	3.78	-0.3289	-0.2515	-0.2096	
0.725412	0.70821	0.09028	-10.15	-10.36	3.36	-0.3333	-0.2498	-0.208	
0.726998	0.67771	0.122488	-11.48	-7.56	2.38	-0.3288	-0.2561	-0.208	
0.75274	0.6771	0.133346	-8.19	-5.6	2.03	-0.3278	-0.2455	-0.2019	
0.762378	0.691252	0.116144	-7.98	-5.04	1.68	-0.3351	-0.2437	-0.2004	
0.75762	0.681004	0.1159	-10.22	-3.36	2.31	-0.335	-0.2483	-0.1958	
0.760426	0.672952	0.12322	-9.66	-1.75	1.33	-0.329	-0.2515	-0.2004	
0.768966	0.678564	0.122732	-8.89	-0.7	0	-0.3363	-0.2482	-0.2064	
0.757864	0.703452	0.110044	-7.49	-0.77	-2.24	-0.3381	-0.2374	-0.2064	
0.76799	0.701378	0.136274	-9.31	2.1	-4.27	-0.332	-0.2453	-0.2126	
0.78019	0.693936	0.151646	-6.16	3.64	-7.77	-0.3402	-0.2588	-0.2186	
0.776408	0.691252	0.135176	-6.23	4.69	-10.43	-0.329	-0.2515	-0.2034	
0.773358	0.694424	0.138836	-7.49	5.81	-11.97	-0.3248	-0.244	-0.2111	
0.767136	0.699182	0.141276	-7.56	8.47	-14.07	-0.3294	-0.2362	-0.2142	
0.76067	0.697718	0.150426	-7	9.8	-17.43	-0.3246	-0.2517	-0.2081	
0.763232	0.702842	0.167994	-6.23	10.99	-20.72	-0.3291	-0.2469	-0.208	
0.758352	0.707966	0.168238	-2.8	12.25	-23.38	-0.3144	-0.252	-0.2204	
0.737856	0.713822	0.147742	-1.75	13.16	-25.27	-0.3214	-0.2563	-0.2264	
0.726266	0.713456	0.139202	-2.38	13.44	-27.51	-0.32	-0.2595	-0.2142	
0.716018	0.717726	0.138104	-3.64	14.98	-30.17	-0.3039	-0.2616	-0.2281	
0.702842	0.737856	0.13969	-5.53	16.73	-33.18	-0.2964	-0.2741	-0.2114	
0.689788	0.766038	0.158722	-6.58	18.34	-36.96	-0.3068	-0.2646	-0.2189	
0.69296	0.770064	0.200568	-7.7	20.72	-40.67	-0.3006	-0.274	-0.2251	
0.683688	0.773968	0.202276	-0.84	20.16	-45.78	-0.2745	-0.2779	-0.2268	
0.65636	0.748836	0.175192	0.56	21.35	-48.23	-0.2859	-0.2806	-0.2389	
0.623298	0.772992	0.172996	2.17	20.65	-49.91	-0.2858	-0.2821	-0.2359	
0.6466	0.797514	0.206912	8.19	21.84	-50.89	-0.2682	-0.2904	-0.2391	
0.602314	0.811544	0.159698	10.08	21.84	-52.43	-0.2593	-0.2999	-0.2346	
0.568642	0.79544	0.169336	-0.28	23.31	-52.08	-0.259	-0.3091	-0.2315	
0.540094	0.796904	0.179218	-5.04	24.64	-52.5	-0.2462	-0.3004	-0.2454	
0.517402	0.802638	0.192272	-2.8	23.66	-54.81	-0.2271	-0.3133	-0.2364	
0.488976	0.824598	0.208986	-0.77	21.84	-56	-0.2412	-0.3189	-0.2454	
0.488244	0.83204	0.255834	2.8	22.19	-57.05	-0.2195	-0.3212	-0.2502	
0.457378	0.846558	0.212402	10.36	20.72	-57.89	-0.2107	-0.3261	-0.2411	
0.42883	0.835334	0.207156	6.3	18.76	-57.47	-0.212	-0.3276	-0.2502	
0.418704	0.854366	0.263032	6.16	18.2	-57.89	-0.1889	-0.3238	-0.2627	
0.365756	0.925126	0.265228	11.69	17.92	-56.07	-0.1841	-0.3424	-0.252	
0.311466	0.924516	0.21838	7.42	16.31	-55.23	-0.1772	-0.335	-0.2445	
0.295728	0.902312	0.221064	0.91	18.41	-55.02	-0.1708	-0.3536	-0.2491	
0.265838	0.906826	0.235094	3.36	18.27	-56.98	-0.1722	-0.3535	-0.2521	
0.238754	0.930982	0.236192	4.9	18.83	-56.07	-0.1549	-0.3557	-0.2462	
0.197152	0.926712	0.209108	4.62	17.71	-56.35	-0.1532	-0.3588	-0.2538	
0.177144	0.9577	0.202276	6.51	17.71	-57.47	-0.1445	-0.3606	-0.2569	
0.169702	0.930128	0.170434	6.58	16.1	-57.68	-0.1386	-0.3655	-0.2539	
0.16531	0.978928	0.194224	3.85	19.18	-57.19	-0.1298	-0.3688	-0.2525	
0.120536	0.974902	0.157136	2.59	14.63	-56.42	-0.1183	-0.3693	-0.2465	
0.080032	0.96929	0.158722	5.04	11.55	-56.28	-0.1078	-0.3773	-0.2603	
0.05917	0.976976	0.16592	0.63	6.37	-52.71	-0.096	-0.3869	-0.2512	
0.047702	0.984784	0.169824	1.05	3.43	-52.71	-0.0888	-0.3871	-0.2544	
0.056852	0.985028	0.173972	-1.61	0.21	-50.26	-0.092	-0.3763	-0.2559	
0.070516	0.9882	0.183488	-1.61	0.07	-50.26	-0.0803	-0.3813	-0.2591	
0.075518	0.996374	0.165554	-4.34	-2.94	-48.65	-0.0697	-0.3939	-0.2652	
0.08784	0.992958	0.194346	-5.53	-3.43	-46.48	-0.0672	-0.3848	-0.2546	
0.11163	0.982466	0.241316	-5.53	0.7	-43.96	-0.07	-0.3863	-0.2561	
0.12749	0.958188	0.247294	-5.81	5.88	-40.88	-0.0631	-0.3758	-0.2592	
0.15189	0.944646	0.248392	-4.62	16.1	-35.35	-0.0498	-0.3885	-0.2563	
0.163968	0.94428	0.24461	-2.59	23.8	-32.2	-0.0409	-0.3919	-0.2625	
0.162504	0.945012	0.25437	-0.49	32.48	-28.42	-0.0309	-0.3923	-0.2534	
0.137494	0.941352	0.261324	2.31	41.02	-25.13	-0.0292	-0.3953	-0.2687	
0.096136	0.951112	0.243878	2.03	49.49	-21.7	-0.0147	-0.4005	-0.2612	
0.065026	0.96258	0.235338	-1.47	57.89	-16.94	-0.009	-0.3992	-0.2597	
0.034526	0.956968	0.228018	-2.03	64.61	-12.88	-0.0059	-0.4008	-0.2735	
0.017568	0.962702	0.209474	-5.81	69.37	-7.77	0.0066	-0.3936	-0.2553	
-0.021716	0.956968	0.20252	-7.49	70.84	-3.64	0.0092	-0.3829	-0.2645	
-0.033672	0.960506	0.20557	-7.98	73.78	-0.84	0.0238	-0.388	-0.2631	
-0.034038	0.97295	0.21472	-7.49	75.95	1.19	0.0287	-0.4066	-0.2555	
-0.063806	0.981246	0.19337	-8.19	77.7	3.57	0.0427	-0.3918	-0.2709	
-0.08967	0.97722	0.199348	-8.61	79.03	4.13	0.047	-0.3904	-0.2679	
-0.09467199	0.993812	0.1769	-8.54	78.33	4.34	0.0481	-0.3812	-0.2664	
-0.109678	0.98881	0.188002	-7.56	79.24	4.13	0.0628	-0.3894	-0.2635	
-0.099552	0.99064	0.196908	-7.14	81.69	5.32	0.0668	-0.3788	-0.2712	
-0.099674	0.978684	0.19398	-3.57	82.81	6.72	0.0673	-0.3911	-0.2727	
-0.120536	0.968436	0.177876	-0.07	83.37	7.56	0.0831	-0.3932	-0.2606	
-0.146278	0.980392	0.175192	3.15	85.4	8.4	0.0889	-0.3934	-0.2668	
-0.133956	0.99247	0.169214	0.91	84.84	9.59	0.1002	-0.3861	-0.2639	
-0.162382	0.954772	0.168726	2.66	83.58	11.83	0.1001	-0.3831	-0.2624	
-0.17141	0.945134	0.156282	6.86	79.38	12.53	0.1086	-0.3834	-0.2441	
-0.159454	0.928542	0.161894	12.95	77	12.6	0.1218	-0.39	-0.2488	
-0.165188	0.958432	0.171776	13.65	71.82	16.45	0.123	-0.3839	-0.2443	
-0.197884	1.02785	0.133468	10.36	71.26	19.95	0.1205	-0.3946	-0.2427	
-0.180804	1.004304	0.104432	3.78	67.69	21.63	0.1276	-0.3918	-0.2367	
-0.208132	0.988566	0.096258	3.57	64.61	24.71	0.1398	-0.4106	-0.2413	
-0.24583	1.004426	0.097844	6.79	56.7	21.28	0.1376	-0.3937	-0.2215	
-0.239242	1.017846	0.123708	7.98	52.22	19.18	0.1407	-0.4015	-0.223	
-0.232532	1.06384	0.146644	4.41	46.2	20.58	0.1364	-0.4013	-0.2245	
-0.252174	1.036146	0.134322	5.88	37.03	15.61	0.1405	-0.3953	-0.22	
-0.223504	1.014186	0.150182	3.22	24.43	13.51	0.1394	-0.4107	-0.2062	
-0.179096	1.012234	0.15311	3.22	18.48	11.97	0.1526	-0.4111	-0.2246	
-0.161284	1.060546	0.150304	0.21	12.74	12.74	0.151	-0.4095	-0.2109	
-0.175436	1.003572	0.14884	-0.56	10.22	10.08	0.1424	-0.4107	-0.2154	
-0.147376	1.00833	0.157624	-1.75	7.07	10.22	0.1499	-0.4171	-0.2185	
-0.101138	0.96563	0.15982	-3.01	4.83	9.73	0.1436	-0.4047	-0.2108	
-0.088694	0.994056	0.165676	-1.61	1.4	7.28	0.1481	-0.4079	-0.2139	
-0.056852	0.984174	0.190808	-1.47	0.14	8.05	0.1422	-0.4046	-0.2139	
-0.022936	0.97905	0.190442	-1.12	0.91	9.24	0.1381	-0.4075	-0.2245	
-0.039162	0.910852	0.171776	-2.87	0.7	10.78	0.1424	-0.4092	-0.2139	
-0.035502	0.972706	0.189588	-1.47	1.19	10.57	0.1498	-0.4156	-0.217	
-0.02745	0.99003	0.194346	-1.82	1.75	9.94	0.1379	-0.406	-0.2123	
-0.024278	1.0004	0.20191	-2.94	1.33	9.87	0.1342	-0.4212	-0.226	
-0.03904	1.013698	0.195688	-3.71	-0.84	9.52	0.1441	-0.4169	-0.2169	
-0.057828	1.024312	0.19154	-5.88	-1.68	9.59	0.1368	-0.4151	-0.2153	
-0.058926	1.001254	0.170922	-5.95	-3.22	5.95	0.137	-0.4197	-0.2184	
-0.013542	0.966728	0.17934	-4.41	-6.72	5.18	0.1294	-0.4087	-0.2229	
-0.00976	0.981246	0.189344	-4.76	-7.49	5.11	0.1399	-0.4183	-0.223	
-0.028548	0.988688	0.195566	-5.53	-7.14	3.78	0.1251	-0.4086	-0.2213	
-0.050874	0.99003	0.206424	-6.09	-8.75	1.89	0.1223	-0.4116	-0.2198	
-0.05063	0.983198	0.208132	-6.51	-10.64	0.49	0.1368	-0.4136	-0.2199	
-0.054412	0.997106	0.19886	-8.26	-13.58	0.7	0.1293	-0.4057	-0.2214	
-0.041724	0.969656	0.191784	-5.81	-16.59	-1.47	0.1268	-0.4148	-0.2274	
-0.06222	0.987346	0.17995	-7.56	-18.97	-0.77	0.1249	-0.4024	-0.2213	
-0.111752	1.007598	0.162992	-9.24	-23.31	-0.56	0.1251	-0.4055	-0.229	
-0.133102	1.00467	0.149328	-9.03	-26.88	0.21	0.1248	-0.3978	-0.229	
-0.138104	1.009184	0.140788	-8.68	-34.51	-0.91	0.1211	-0.4176	-0.2304	
-0.10797	1.021628	0.162992	-7.98	-39.27	-2.31	0.1047	-0.4017	-0.2288	
-0.119072	1.021018	0.151158	-10.78	-45.64	-3.64	0.1106	-0.405	-0.2334	
-0.113216	0.992714	0.185318	-15.89	-50.33	-3.78	0.1003	-0.3954	-0.2364	
-0.119072	0.961238	0.162138	-17.57	-52.78	-3.08	0.1078	-0.4049	-0.238	
-0.101016	0.966362	0.14762	-17.71	-62.16	-5.04	0.0945	-0.3937	-0.244	
-0.097966	1.011624	0.148962	-17.5	-72.94	-7.77	0.0863	-0.4041	-0.253	
-0.083936	1.015284	0.1525	-19.11	-78.89	-10.01	0.0847	-0.3963	-0.2637	
-0.076494	1.002596	0.135664	-19.46	-82.53	-10.57	0.0772	-0.3899	-0.2637	
-0.043554	1.00284	0.165554	-13.16	-86.94	-12.67	0.06879999	-0.3927	-0.2727	
-0.060756	1.015772	0.163236	-7.14	-96.11	-14.77	0.0658	-0.3879	-0.2788	
-0.049044	1.03273	0.14213	-6.23	-103.6	-15.61	0.0572	-0.3923	-0.2772	
-0.03294	1.045174	0.128222	-10.78	-107.66	-14.56	0.041	-0.3856	-0.2664	
0.014884	1.016626	0.163236	-14	-110.81	-12.39	0.0297	-0.3882	-0.28	
0.04636	0.987102	0.171654	-15.26	-114.66	-14.14	0.028	-0.3805	-0.2769	
0.05795	1.016626	0.168604	-16.17	-123.41	-14.91	0.0138	-0.3846	-0.2844	
0.044408	0.981856	0.190076	-21.07	-122.5	-15.05	-0.0021	-0.3809	-0.2889	
0.067588	0.992592	0.180804	-19.25	-126.77	-16.1	-0.0135	-0.3867	-0.2857	
0.09882	1.000278	0.19703	-19.25	-130.62	-17.78	-0.0284	-0.3723	-0.2856	
0.130174	0.976976	0.212158	-19.11	-133.42	-18.2	-0.0368	-0.3813	-0.2809	
0.139812	0.960872	0.209108	-17.29	-132.02	-20.09	-0.0544	-0.3714	-0.2792	
0.11834	0.986248	0.185806	-15.68	-130.83	-24.78	-0.072	-0.3631	-0.2821	
0.117974	0.938058	0.221186	-9.8	-132.58	-27.93	-0.0646	-0.368	-0.2806	
0.157868	0.941718	0.220088	-8.4	-130.48	-30.38	-0.085	-0.3642	-0.2774	
0.157868	0.928786	0.226432	-4.48	-129.5	-30.87	-0.1024	-0.3621	-0.2742	
0.150304	0.941962	0.202886	-2.87	-127.05	-31.08	-0.1068	-0.3604	-0.2726	
0.180438	0.963678	0.214598	0.56	-122.64	-29.89	-0.1109	-0.371	-0.2664	
0.210206	0.977708	0.196054	-3.22	-117.18	-28.21	-0.1286	-0.3612	-0.2556	
0.234362	0.99735	0.228018	-1.96	-111.09	-26.04	-0.1282	-0.3735	-0.2555	
0.247172	0.983686	0.230702	-2.94	-102.97	-24.85	-0.1426	-0.3745	-0.2539	
0.241804	1.007476	0.23851	0	-95.76	-23.87	-0.1501	-0.3728	-0.2339	
0.243024	0.98576	0.239608	-2.45	-88.76	-22.12	-0.1501	-0.3728	-0.2278	
0.234606	1.00833	0.198128	-3.78	-79.59	-21.28	-0.156	-0.368	-0.2308	
0.227896	1.037122	0.253272	-1.4	-69.37	-22.05	-0.1559	-0.3757	-0.2217	
0.177998	0.991738	0.235948	-11.9	-58.94	-18.76	-0.1715	-0.3828	-0.2184	
0.202398	0.959896	0.20191	-16.52	-53.34	-19.46	-0.1646	-0.3754	-0.217	
0.190564	0.983808	0.244488	-15.19	-54.39	-21.42	-0.1689	-0.3721	-0.2292	
0.149328	0.925492	0.273158	-16.17	-56.35	-21.7	-0.1645	-0.38	-0.2124	
0.176778	0.919148	0.296338	-13.23	-52.92	-23.45	-0.1746	-0.3812	-0.2047	
0.175436	0.926956	0.297802	-9.03	-46.97	-22.4	-0.176	-0.3811	-0.2123	
0.177632	0.935984	0.312442	-6.51	-39.48	-20.02	-0.1821	-0.3717	-0.2077	
0.178852	0.938424	0.289628	-6.3	-33.81	-16.73	-0.1789	-0.3826	-0.2	
0.168848	0.945012	0.299876	-7.42	-28.28	-13.86	-0.179	-0.381	-0.2	
0.142496	0.935252	0.297192	-9.8	-23.31	-11.13	-0.1874	-0.3884	-0.2015	
0.11285	0.944768	0.316712	-8.82	-20.86	-8.12	-0.192	-0.3759	-0.2091	
0.11895	0.939644	0.310246	-9.94	-17.08	-6.93	-0.1835	-0.3747	-0.2031	
0.101748	0.941962	0.281576	-7.91	-14.28	-7.42	-0.1803	-0.381	-0.2077	
0.092964	0.941718	0.305244	-6.58	-13.37	-6.65	-0.1834	-0.3778	-0.2031	
0.087962	0.938912	0.305	-5.88	-13.72	-6.37	-0.1835	-0.3747	-0.1985	
0.083936	0.96807	0.30744	-5.25	-13.72	-4.9	-0.1821	-0.3748	-0.1985	
0.095892	0.946232	0.307806	-5.74	-11.83	-4.48	-0.1818	-0.3809	-0.2107	
0.096136	0.948794	0.320982	-5.18	-11.9	-4.97	-0.1831	-0.3855	-0.2015	
0.11468	0.933422	0.318298	-3.01	-9.31	-4.41	-0.1889	-0.3868	-0.203	
0.110532	0.93452	0.315492	-1.61	-7.35	-2.87	-0.1789	-0.3826	-0.2	
0.099918	0.967582	0.317688	-0.63	-5.46	-1.54	-0.1819	-0.3809	-0.2	
0.10431	0.949892	0.31598	-1.54	-3.64	-2.1	-0.182	-0.3779	-0.2	
0.102724	0.941962	0.315004	-1.26	-1.19	-2.1	-0.192	-0.3806	-0.1953	
0.09638	0.945988	0.310368	-0.84	1.19	-0.91	-0.1852	-0.367	-0.2	
0.081984	0.950868	0.283528	-0.77	2.8	-0.49	-0.1934	-0.3805	-0.2029	
0.07686	0.96319	0.299266	-0.84	1.96	-0.35	-0.1874	-0.3853	-0.2122	
0.087474	0.94794	0.304512	-1.4	2.17	0.14	-0.1865	-0.3716	-0.2	
0.073688	0.945012	0.309148	-0.77	2.73	0.49	-0.1878	-0.3715	-0.2122	
0.080642	0.945378	0.311466	1.19	2.66	-0.42	-0.1789	-0.381	-0.2031	
0.096624	0.950868	0.310612	1.89	3.36	-0.56	-0.1919	-0.3806	-0.203	
0.094428	0.955992	0.30927	2.52	4.83	-0.35	-0.182	-0.3763	-0.2046	
0.094428	0.949526	0.303048	2.1	6.44	0.98	-0.1818	-0.3809	-0.2031	
0.095404	0.939522	0.301584	2.87	8.4	2.03	-0.1892	-0.376	-0.2076	
0.099674	0.937692	0.30622	3.85	10.29	2.52	-0.1847	-0.3793	-0.2061	
0.127002	0.925492	0.31415	6.23	14.42	3.08	-0.1817	-0.3871	-0.2	
0.147254	0.940864	0.329278	9.52	16.87	3.15	-0.179	-0.3764	-0.2138	
0.179462	0.937326	0.32025	12.39	21.56	3.78	-0.1787	-0.3872	-0.2061	
0.215574	0.915488	0.32452	15.33	31.29	4.13	-0.1789	-0.3826	-0.2046	
0.22936	0.9028	0.327082	19.04	38.08	5.46	-0.1714	-0.3905	-0.2047	
0.229116	0.88633	0.306708	20.86	48.3	7.07	-0.1744	-0.3873	-0.2077	
0.232532	0.904142	0.273036	22.96	57.89	8.47	-0.1642	-0.3907	-0.2032	
0.234484	0.951844	0.26901	23.52	69.3	9.73	-0.1657	-0.3861	-0.2078	
0.214842	0.970632	0.256078	19.88	78.47	10.99	-0.1586	-0.3863	-0.2033	
0.17873	1.006988	0.235704	13.58	85.05	13.02	-0.1553	-0.3956	-0.2063	
0.154696	0.997106	0.219844	5.95	91.14	16.17	-0.1556	-0.388	-0.2079	
0.174704	1.017358	0.266692	1.4	97.09	19.74	-0.1337	-0.3918	-0.2142	
0.150548	1.004182	0.199226	1.33	107.59	20.02	-0.1379	-0.3978	-0.2141	
0.086254	1.01565	0.150914	2.59	110.6	20.79	-0.1238	-0.3829	-0.225	
0.079422	1.033706	0.149206	0.63	113.82	19.39	-0.125	-0.389	-0.2372	
0.080642	1.031266	0.15189	-5.39	113.61	17.92	-0.1121	-0.3848	-0.2419	
0.073078	1.027606	0.183854	-9.66	113.19	18.48	-0.1005	-0.3852	-0.2482	
0.044286	1.008086	0.181658	-16.73	112.42	21.42	-0.0915	-0.3916	-0.2543	
0.032696	0.978196	0.17446	-18.34	112.14	22.75	-0.0862	-0.3765	-0.2575	
0.01464	0.96258	0.185806	-22.75	111.23	24.92	-0.07319999	-0.3754	-0.2652	
0.02684	0.944402	0.20862	-19.95	108.01	24.29	-0.0772	-0.3844	-0.2728	
0.041968	0.95587	0.224724	-17.15	109.13	26.74	-0.0672	-0.3817	-0.2729	
0.056486	0.964532	0.24156	-7.56	107.87	28.21	-0.053	-0.3699	-0.2853	
0.038064	0.972706	0.2318	-5.39	109.83	31.29	-0.0487	-0.3701	-0.2762	
0.011224	0.999058	0.204106	-1.96	108.22	32.9	-0.037	-0.3689	-0.2977	
0.006344	0.993812	0.215086	-1.4	107.03	33.46	-0.0257	-0.3663	-0.2856	
-0.00366	0.974902	0.211304	-2.38	105.84	34.37	-0.0099	-0.3638	-0.2873	
0.004026	0.976244	0.221796	-0.49	104.02	33.53	-0.0139	-0.3728	-0.2903	
0.008296	0.98149	0.22509	0.35	104.23	34.44	-0.0085	-0.3623	-0.2904	
0.00488	0.99613	0.209596	3.71	103.18	33.6	0.0117	-0.3646	-0.289	
-0.019398	0.991128	0.21655	1.75	105.14	34.58	0.0102	-0.363	-0.2921	
-0.031354	0.9943	0.232166	6.65	99.26	31.78	0.0232	-0.3619	-0.2907	
-0.039772	1.0126	0.229848	12.74	91.21	27.58	0.0366	-0.3731	-0.2938	
-0.077592	1.005402	0.214354	12.74	87.22	26.95	0.045	-0.3688	-0.2848	
-0.055876	0.975146	0.23607	15.33	84.35	24.71	0.048	-0.372	-0.2848	
-0.056364	0.981612	0.217282	16.87	80.43	22.68	0.0523	-0.3737	-0.2787	
-0.06527	0.987712	0.212036	19.11	75.81	20.79	0.0525	-0.3798	-0.2802	
-0.07515199	1.001864	0.191052	19.6	68.11	19.18	0.0612	-0.3817	-0.2742	
-0.100162	1.006134	0.18666	16.31	65.1	18.83	0.0686	-0.3881	-0.2743	
-0.105896	0.99247	0.198372	14.14	61.74	17.92	0.0756	-0.3806	-0.2744	
-0.099186	0.970022	0.20801	14.91	55.02	16.1	0.0843	-0.3871	-0.2607	
-0.072346	0.981612	0.227652	12.53	52.43	16.24	0.086	-0.3948	-0.2591	
-0.048678	0.996496	0.22143	11.62	47.18	13.23	0.09	-0.3858	-0.2562	
-0.03721	0.989786	0.211914	9.03	43.4	12.25	0.0873	-0.3903	-0.2576	
-0.035624	0.982466	0.209962	7.98	39.62	11.62	0.08859999	-0.3873	-0.2531	
-0.046604	0.975268	0.206912	0.42	34.86	14	0.0931	-0.3905	-0.2546	
-0.033916	1.015284	0.234362	3.5	26.25	12.18	0.09779999	-0.4029	-0.2531	
-0.036234	1.014064	0.24461	4.27	21.91	10.85	0.0931	-0.3936	-0.2531	
0.01098	1.023458	0.232532	6.3	21.98	9.31	0.0933	-0.3997	-0.25	
0.00488	0.989176	0.233264	6.37	22.75	7.42	0.0961	-0.3952	-0.2531	
0.014762	0.965142	0.227652	6.93	22.4	5.88	0.1074	-0.3895	-0.2502	
0.007929999	0.969046	0.220576	3.85	21.28	9.24	0.0991	-0.3999	-0.2486	
0.003294	0.965752	0.2318	6.09	18.48	7.42	0.1064	-0.4032	-0.2532	
-0.001464	0.958066	0.24034	7.35	15.89	7.77	0.0989	-0.3969	-0.2379	
0.007929999	0.993202	0.230946	6.58	15.4	5.25	0.1093	-0.4049	-0.2395	
0.007198	0.987712	0.228506	5.39	14.35	4.34	0.1121	-0.405	-0.2319	
0.013176	0.975024	0.242536	4.55	13.02	4.76	0.1063	-0.4017	-0.2441	
0.0305	0.991616	0.2318	5.81	11.27	2.87	0.1048	-0.4002	-0.2425	
0.01586	0.996496	0.223626	3.57	11.55	2.45	0.1147	-0.3944	-0.2426	
0.007686	0.991128	0.205936	1.12	10.22	2.59	0.106	-0.3987	-0.2257	
0.013542	0.968558	0.20191	0.91	8.82	2.52	0.105	-0.4094	-0.2318	
0.020374	0.978562	0.215574	1.19	5.88	1.96	0.1063	-0.4033	-0.2364	
-0.003172	1.0004	0.210694	-2.1	4.34	2.52	0.1064	-0.4064	-0.2334	
-0.012688	0.998204	0.204106	-3.15	2.59	2.31	0.105	-0.4078	-0.2379	
0.007198	0.975024	0.20618	-2.94	0	1.61	0.1034	-0.4032	-0.2333	
0.022692	0.959286	0.208986	-2.45	-1.82	1.33	0.1064	-0.4079	-0.2303	
0.02867	0.967826	0.210816	-1.19	-3.85	1.19	0.1106	-0.405	-0.2319	
0.039894	0.976122	0.230702	-1.4	-2.66	1.68	0.1031	-0.3971	-0.2272	
0.034282	0.992714	0.232654	-1.19	-2.38	1.54	0.1035	-0.4078	-0.2333	
0.02684	0.99125	0.22997	-0.56	-2.31	0.84	0.1107	-0.4081	-0.2303	
0.022082	0.979294	0.232898	-0.63	-2.87	0.07	0.1076	-0.3987	-0.238	
-0.000244	0.988322	0.230824	-0.91	-3.5	-0.21	0.0933	-0.4028	-0.2363	
0.00183	0.983686	0.232898	-0.07	-5.67	-1.54	0.1136	-0.4066	-0.2365	
0.000976	0.97661	0.228384	-0.42	-7.56	-1.75	0.1064	-0.4064	-0.2349	
0.006466	0.975634	0.224236	-1.68	-10.57	-1.61	0.112	-0.3989	-0.2441	
-0.01281	0.982222	0.22082	-1.82	-12.46	-2.03	0.1107	-0.405	-0.2395	
-0.032818	0.982832	0.211304	-2.31	-15.19	-2.52	0.1015	-0.3893	-0.241	
-0.079422	1.008574	0.175314	-4.48	-22.26	-5.04	0.1006	-0.4031	-0.2471	
-0.100284	1.021994	0.196298	-5.04	-26.6	-6.93	0.099	-0.3984	-0.2455	
-0.119072	1.007476	0.212768	-3.64	-32.06	-9.59	0.0977	-0.403	-0.2455	
-0.13176	1.009306	0.198372	-7.7	-38.08	-10.29	0.0904	-0.3965	-0.2531	
-0.135908	0.99857	0.11041	-16.1	-48.3	-12.81	0.0975	-0.3968	-0.2425	
-0.12688	0.990274	0.133956	-25.27	-61.95	-15.26	0.08899999	-0.4011	-0.25	
-0.090646	1.00833	0.18422	-18.76	-72.31	-17.92	0.0828	-0.3886	-0.2469	
-0.080276	1.038708	0.166164	-16.73	-83.86	-20.93	0.0729	-0.3898	-0.259	
-0.06893	1.012844	0.150426	-14.14	-89.46	-22.75	0.07009999	-0.3958	-0.2513	
-0.001952	0.976122	0.200934	-8.33	-93.59	-24.5	0.0654	-0.3788	-0.2666	
0.011224	0.994422	0.174826	-3.01	-103.46	-27.86	0.0611	-0.3848	-0.2574	
0.032818	1.001986	0.18422	-6.16	-108.08	-28.84	0.0485	-0.3935	-0.2679	
0.02135	0.99247	0.165066	-8.61	-108.15	-27.86	0.0499	-0.3874	-0.2787	
0.019642	0.995276	0.169458	-8.96	-111.23	-25.55	0.0383	-0.3885	-0.2663	
0.024766	0.98088	0.166774	-10.43	-110.95	-22.75	0.031	-0.3852	-0.2708	
0.062464	0.962702	0.189954	-11.27	-113.26	-19.53	0.0239	-0.3849	-0.283	
0.045018	0.998692	0.169702	-9.45	-119.98	-19.95	0.0078	-0.3782	-0.2874	
0.044164	1.022604	0.187148	-12.04	-120.89	-19.46	-0.0035	-0.384	-0.2827	
0.052094	1.007598	0.173606	-12.04	-122.85	-20.37	-0.0207	-0.3833	-0.2917	
0.053192	1.0065	0.150182	-11.34	-129.57	-20.16	-0.0328	-0.3722	-0.2779	
0.073932	1.006988	0.167994	-7.84	-133.77	-20.3	-0.04	-0.3689	-0.287	
0.105286	0.981368	0.187514	-7.14	-133.84	-21.63	-0.0585	-0.3805	-0.2791	
0.130906	0.968802	0.179584	-7.56	-132.23	-24.08	-0.0613	-0.3819	-0.2806	
0.12932	0.950014	0.175558	-9.24	-132.58	-25.69	-0.0863	-0.3734	-0.2636	
0.152256	0.968802	0.185806	-6.16	-130.97	-27.72	-0.0903	-0.3794	-0.2696	
0.166774	0.990884	0.200446	-1.05	-127.12	-29.47	-0.0936	-0.3716	-0.2605	
0.175802	0.999302	0.194468	0	-122.78	-30.66	-0.1035	-0.3805	-0.2497	
0.167506	1.009306	0.191174	0.28	-116.83	-30.38	-0.1225	-0.3737	-0.251	
0.183488	0.989298	0.189832	-1.12	-109.9	-30.17	-0.1224	-0.3768	-0.2449	
0.206912	0.975268	0.205814	0.14	-105.56	-29.54	-0.1324	-0.3826	-0.2402	
0.216184	0.988932	0.19032	-2.03	-101.43	-26.18	-0.1399	-0.3762	-0.231	
0.20923	1.014796	0.194712	-1.89	-92.75	-23.73	-0.1454	-0.3837	-0.234	
0.196908	1.018944	0.22692	-4.97	-76.72	-24.43	-0.1512	-0.385	-0.2247	
0.202398	1.009916	0.223138	-6.37	-74.76	-23.8	-0.1598	-0.3893	-0.2185	
0.183732	1.026752	0.22265	-5.46	-67.97	-24.5	-0.1553	-0.391	-0.2232	
0.158966	0.981246	0.20801	-10.08	-61.18	-23.87	-0.1671	-0.386	-0.2185	
0.17019	0.970754	0.210816	-7.98	-56.84	-24.01	-0.1643	-0.383	-0.2139	
0.152256	0.96685	0.231434	-10.22	-52.36	-22.4	-0.1687	-0.3829	-0.2093	
0.149938	0.957212	0.23119	-12.88	-48.93	-19.74	-0.1645	-0.3815	-0.2017	
0.140788	0.956358	0.245952	-12.6	-43.75	-17.43	-0.1615	-0.3847	-0.2063	
0.151646	0.951966	0.249368	-12.46	-38.29	-15.96	-0.1601	-0.3817	-0.2079	
0.159576	0.981856	0.292922	-11.27	-32.55	-14.84	-0.1661	-0.3769	-0.2063	
0.148352	0.955992	0.282308	-12.81	-26.32	-12.18	-0.1686	-0.3906	-0.1986	
0.135054	0.93696	0.279502	-14	-21.91	-9.24	-0.1731	-0.3843	-0.2001	
0.086254	0.953552	0.279746	-12.04	-21.21	-7.77	-0.1728	-0.3904	-0.2123	
0.082594	0.95221	0.273036	-10.01	-20.02	-8.68	-0.1615	-0.3847	-0.2078	
0.078324	0.941108	0.29158	-7.07	-19.25	-10.08	-0.1732	-0.3843	-0.1924	
0.07503	0.930494	0.281942	-4.9	-16.1	-10.92	-0.1687	-0.386	-0.2017	
0.052948	0.92964	0.28548	-3.92	-16.03	-8.68	-0.1759	-0.3857	-0.2077	
0.03721	0.956724	0.282674	0.21	-15.96	-8.96	-0.1772	-0.3949	-0.1909	
0.066246	0.959408	0.280966	1.33	-14.56	-9.17	-0.1773	-0.3888	-0.1924	
0.081618	0.950014	0.277916	0	-13.79	-8.4	-0.1785	-0.3948	-0.197	
0.086132	0.94672	0.292678	-1.4	-12.67	-7.14	-0.1745	-0.3858	-0.2001	
0.054046	0.954284	0.279502	-3.22	-13.65	-5.39	-0.1702	-0.3844	-0.1971	
0.051606	0.952332	0.29402	-2.94	-12.74	-4.48	-0.1686	-0.3891	-0.1986	
0.059048	0.95892	0.28609	-0.28	-11.27	-5.25	-0.1758	-0.3919	-0.1893	
0.05856	0.956358	0.283528	-1.4	-9.87	-3.64	-0.1762	-0.3812	-0.1878	
0.040748	0.97173	0.288164	-0.91	-10.01	-4.06	-0.1746	-0.3827	-0.1955	
0.054412	0.960384	0.294874	-0.91	-8.82	-2.94	-0.1658	-0.3892	-0.1925	
0.055144	0.960994	0.284626	-1.33	-7.35	-2.03	-0.1743	-0.3935	-0.1939	
0.048678	0.96197	0.2867	-0.91	-6.51	-1.68	-0.1701	-0.3906	-0.1909	
0.04697	0.955138	0.28792	-0.35	-5.74	-1.61	-0.1817	-0.3886	-0.1939	
0.052582	0.962214	0.270474	0.77	-5.04	-1.82	-0.1775	-0.3826	-0.1924	
0.06039	0.962824	0.28548	0.21	-4.27	-1.05	-0.1846	-0.3885	-0.1893	
0.065514	0.954162	0.28487	0.42	-3.78	-1.05	-0.1757	-0.3934	-0.197	
0.067954	0.95831	0.279258	0.56	-1.96	-0.77	-0.1786	-0.3918	-0.197	
0.052094	0.973682	0.269742	0.56	-0.28	0.07	-0.1774	-0.3888	-0.1893	
0.058804	0.96441	0.269498	0.35	0.07	0.28	-0.173	-0.3874	-0.194	
0.054534	0.960872	0.269742	0.07	-0.42	0.49	-0.173	-0.3905	-0.1894	
0.07503	0.95404	0.279868	0.49	1.05	1.19	-0.1716	-0.389	-0.194	
0.090402	0.950258	0.290482	1.96	1.96	1.12	-0.1786	-0.3918	-0.197	
0.085156	0.9577	0.280844	1.54	3.57	1.96	-0.1757	-0.3934	-0.1939	
0.081252	0.960872	0.279258	1.12	6.02	3.36	-0.1744	-0.3919	-0.1894	
0.065514	0.966606	0.282064	1.4	7.84	3.57	-0.1771	-0.3965	-0.1893	
0.064538	0.95221	0.279502	0.21	8.12	3.57	-0.1729	-0.392	-0.1909	
0.060512	0.950136	0.293166	1.33	8.96	3.43	-0.173	-0.3889	-0.1909	
0.079666	0.93086	0.292922	2.66	10.15	3.64	-0.1699	-0.3936	-0.1986	
0.102358	0.931348	0.282796	6.44	12.39	3.22	-0.1744	-0.392	-0.1878	
0.106262	0.993568	0.272792	5.95	20.23	4.55	-0.1671	-0.3937	-0.1894	
0.098454	0.966972	0.27511	4.34	25.83	6.65	-0.1771	-0.3934	-0.197	
0.07869	0.938424	0.272548	2.31	25.13	7.35	-0.1726	-0.3966	-0.2046	
0.120902	0.904264	0.312686	1.96	26.53	7.49	-0.1702	-0.3859	-0.1971	
0.168482	0.893894	0.328668	8.96	27.58	6.79	-0.1687	-0.386	-0.1955	
0.189588	0.927688	0.315858	20.16	35.14	6.02	-0.1643	-0.3892	-0.1971	
0.17934	0.981002	0.281454	24.08	47.11	7.49	-0.1698	-0.3951	-0.2016	
0.169458	0.967704	0.230336	21.42	57.61	9.52	-0.1643	-0.3923	-0.1895	
0.16714	0.984418	0.216916	21.07	63.14	10.22	-0.1567	-0.3956	-0.214	
0.173118	0.99247	0.190076	16.24	67.62	10.99	-0.1554	-0.3941	-0.2079	
0.172874	1.002352	0.191418	10.57	74.48	11.9	-0.1478	-0.4051	-0.2064	
0.149084	1.036756	0.19276	5.39	79.59	12.74	-0.1409	-0.3961	-0.2095	
0.123098	1.03395	0.187026	2.52	86.24	14.21	-0.1494	-0.4004	-0.211	
0.110776	1.019798	0.175314	-0.91	89.88	13.93	-0.1323	-0.3903	-0.2157	
0.111996	1.003328	0.168482	-3.78	95.06	12.88	-0.138	-0.3916	-0.2203	
0.106994	0.996496	0.149084	-8.4	94.22	13.09	-0.1292	-0.3965	-0.2203	
0.091744	1.013942	0.149328	-10.99	97.93	12.81	-0.1078	-0.3881	-0.2297	
0.080276	1.013698	0.174216	-18.62	104.23	15.89	-0.1092	-0.3834	-0.2435	
0.055144	1.016138	0.183244	-24.08	107.38	21.14	-0.0975	-0.3899	-0.2405	
0.056974	0.988322	0.184586	-31.29	110.67	23.17	-0.0889	-0.3887	-0.2421	
0.045994	1.005158	0.208864	-29.89	112.42	25.13	-0.0919	-0.3794	-0.2574	
0.054046	0.98576	0.19276	-33.04	112.07	28.77	-0.076	-0.3784	-0.2637	
0.05307	0.94977	0.206302	-33.04	115.08	30.8	-0.0748	-0.3707	-0.2668	
0.088694	0.952088	0.239242	-29.68	117.53	33.11	-0.0589	-0.3682	-0.2792	
0.091134	0.980514	0.276818	-22.12	122.57	38.01	-0.0434	-0.3565	-0.2824	
0.05124	0.975634	0.23851	-18.55	124.32	41.02	-0.0357	-0.3659	-0.2962	
0.044164	0.957822	0.259982	-14.91	124.81	43.89	-0.0304	-0.3523	-0.2947	
0.043432	0.981124	0.253272	-9.24	122.29	45.5	-0.0248	-0.3464	-0.2933	
0.004148	0.999058	0.241194	-6.79	121.24	47.95	-0.0114	-0.3591	-0.2949	
-0.020374	0.972706	0.2074	-3.99	119.14	48.44	-0.008599999	-0.3546	-0.3072	
-0.053558	0.972584	0.212768	-3.85	115.29	48.44	0.003	-0.3596	-0.3042	
-0.076982	0.968436	0.210328	-4.62	111.51	48.09	0.0234	-0.3634	-0.3121	
-0.069784	0.989542	0.234118	1.89	101.57	45.71	0.0263	-0.3666	-0.2999	
-0.041358	0.984052	0.24766	8.61	94.15	42.84	0.0346	-0.3561	-0.3015	
-0.049288	0.979904	0.225944	13.93	87.85	41.79	0.0351	-0.3699	-0.3076	
-0.070516	0.962824	0.22875	15.54	84.42	42.07	0.0479	-0.3658	-0.3031	
-0.072346	0.996374	0.248636	19.67	75.32	38.01	0.0519	-0.3583	-0.2879	
-0.065636	1.012722	0.241072	20.37	68.53	33.95	0.0607	-0.3632	-0.291	
-0.06954	1.002596	0.249124	19.39	64.89	31.43	0.0551	-0.3692	-0.2833	
-0.100162	0.965874	0.220698	21.42	57.54	24.29	0.0565	-0.3661	-0.291	
-0.09333	0.990152	0.23851	28.56	53.27	19.53	0.0663	-0.3604	-0.2789	
-0.086376	0.991738	0.227042	27.16	50.82	18.13	0.0669	-0.3803	-0.2743	
-0.07442	0.945012	0.244976	24.71	49.98	17.29	0.0768	-0.3746	-0.2713	
-0.034648	0.97661	0.255346	26.04	43.4	14.28	0.076	-0.3914	-0.2789	
0.001342	0.986492	0.268156	21.77	39.2	13.58	0.0799	-0.3824	-0.2637	
0.018056	0.971852	0.255712	20.58	37.03	11.34	0.0759	-0.393	-0.2606	
0.013298	0.964166	0.259372	18.69	34.72	9.31	0.0817	-0.3962	-0.2545	
0.040748	1.003816	0.258884	16.87	32.27	10.85	0.0901	-0.3858	-0.2623	
0.01952	1.000278	0.251564	16.03	27.79	9.87	0.0878	-0.4041	-0.2576	
0.008174	1.023946	0.245342	12.74	24.78	8.54	0.0948	-0.4013	-0.2439	
0.027328	0.981734	0.233508	9.45	25.97	7.77	0.0946	-0.3967	-0.2485	
0.013176	0.973682	0.227652	8.89	26.04	6.37	0.0889	-0.3996	-0.2424	
-0.001342	0.966728	0.213134	8.89	24.92	4.97	0.0991	-0.3999	-0.2455	
-0.014396	0.978806	0.236314	8.89	21.28	4.41	0.0962	-0.4014	-0.2424	
-0.000488	0.982222	0.220698	7.84	16.17	4.62	0.102	-0.4047	-0.2394	
0.023424	0.991006	0.22631	6.09	12.53	3.85	0.1024	-0.4139	-0.2455	
0.045262	0.996252	0.22997	2.73	11.34	4.06	0.0976	-0.403	-0.2363	
0.048434	0.970266	0.221552	0.56	10.92	3.78	0.1035	-0.4032	-0.2425	
0.06344	0.96197	0.219478	1.05	9.73	2.94	0.1134	-0.402	-0.2334	
0.052826	0.978196	0.224236	1.33	9.38	2.52	0.0933	-0.4044	-0.2348	
0.03355	0.987956	0.219844	1.33	9.59	2.52	0.102	-0.4047	-0.2318	
0.024156	0.987956	0.221674	0.7	8.19	1.96	0.102	-0.4047	-0.2318	
0.027816	0.979538	0.219722	1.26	6.44	0.91	0.1046	-0.3971	-0.2288	
0.047214	0.970388	0.223016	2.38	4.48	0.07	0.0973	-0.3938	-0.2333	
0.031964	0.982954	0.224846	2.1	2.8	0.14	0.1051	-0.414	-0.2272	
0.019642	0.988444	0.217892	1.05	1.47	-0.28	0.1019	-0.4001	-0.2364	
0.018788	0.986248	0.225212	0.77	-0.98	-0.42	0.1021	-0.4108	-0.2287	
0.027938	0.980514	0.22936	1.4	-3.22	-1.4	0.1064	-0.4079	-0.2364	
0.040504	0.97844	0.232654	0.7	-4.76	-2.17	0.1022	-0.4124	-0.2318	
0.053436	0.982466	0.223748	-0.35	-4.9	-2.03	0.1076	-0.4003	-0.2319	
0.054534	0.969656	0.227164	-0.77	-4.34	-1.05	0.1035	-0.4047	-0.2394	
0.038796	0.984906	0.221918	0.07	-5.95	-1.54	0.1019	-0.4016	-0.2318	
0.031232	0.988688	0.217648	-0.84	-6.16	-1.89	0.1006	-0.4077	-0.2257	
0.032574	0.992958	0.221674	0.07	-6.65	-2.73	0.1035	-0.4047	-0.2364	
0.034648	0.978806	0.216306	-0.7	-6.09	-2.8	0.09339999	-0.4074	-0.2363	
0.010248	0.979172	0.207888	-1.61	-7	-2.1	0.1008	-0.4108	-0.2363	
-0.00549	0.98576	0.196054	-1.47	-9.94	-3.15	0.1153	-0.4113	-0.2411	
-0.030256	0.997594	0.19276	-3.5	-13.16	-3.43	0.1021	-0.4062	-0.2364	
-0.057584	1.011868	0.176412	-5.74	-17.57	-4.27	0.1051	-0.4094	-0.2379	
-0.04209	0.989054	0.190442	-5.11	-21.7	-6.37	0.09999999	-0.3893	-0.2333	
-0.023546	1.00101	0.208376	-3.15	-27.93	-8.05	0.0937	-0.412	-0.2454	
-0.045384	0.995886	0.191296	-3.85	-30.94	-9.17	0.0892	-0.4088	-0.2454	
-0.053192	0.981124	0.170434	-8.4	-35.07	-10.71	0.0976	-0.4014	-0.2348	
-0.062708	0.987468	0.165676	-11.2	-42.84	-13.72	0.092	-0.4043	-0.2485	
-0.046604	0.987468	0.182756	-11.9	-51.24	-16.73	0.0904	-0.4012	-0.247	
-0.026352	0.994788	0.20984	-10.08	-58.87	-20.09	0.0874	-0.3918	-0.2607	
-0.018666	0.999912	0.217892	-9.17	-64.61	-20.93	0.0774	-0.3992	-0.2514	
-0.010248	0.996252	0.223748	-11.34	-69.86	-21	0.0756	-0.3884	-0.2514	
-0.02928	0.987956	0.198372	-12.39	-72.59	-20.72	0.07	-0.3928	-0.2559	
-0.024766	0.990396	0.183854	-11.62	-75.11	-19.74	0.0672	-0.3926	-0.262	
-0.024156	0.98698	0.18971	-10.5	-80.29	-19.88	0.0587	-0.3908	-0.2787	
0.006588	0.992958	0.205814	-11.41	-84	-16.87	0.0539	-0.3845	-0.2543	
0.002074	1.005402	0.191418	-10.22	-87.15	-17.36	0.0464	-0.3766	-0.2542	
-0.008662	1.019432	0.179462	-11.9	-85.54	-16.73	0.0396	-0.384	-0.2694	
-0.002806	0.995032	0.173972	-14.7	-85.19	-13.02	0.034	-0.3915	-0.2663	
0.010492	0.971486	0.173606	-14.98	-89.46	-12.18	0.0281	-0.3866	-0.2662	
0.03233	0.99064	0.171654	-17.15	-94.43	-11.13	0.0151	-0.3877	-0.2646	
0.043188	0.991372	0.18361	-18.9	-97.44	-10.78	0.0092	-0.3798	-0.2752	
0.026108	0.982832	0.178852	-22.68	-100.17	-9.73	-0.0093	-0.3822	-0.2827	
0.025986	0.994056	0.180438	-22.47	-101.99	-10.5	-0.0139	-0.3744	-0.2887	
0.02867	0.998082	0.199836	-16.24	-111.58	-15.05	-0.0198	-0.368	-0.2887	
0.058926	1.001254	0.208132	-16.59	-114.52	-17.15	-0.0328	-0.3707	-0.284	
0.079178	0.971974	0.197518	-12.6	-118.72	-20.02	-0.0415	-0.3673	-0.2854	
0.099674	0.997716	0.193004	-10.92	-120.82	-22.4	-0.0575	-0.3667	-0.2792	
0.134444	1.009184	0.19825	-8.12	-120.89	-24.01	-0.0618	-0.3666	-0.2791	
0.137372	0.963068	0.184098	-7.14	-122.85	-25.62	-0.0735	-0.3662	-0.2698	
0.161894	0.94916	0.20618	-5.74	-119.91	-25.69	-0.0847	-0.375	-0.2774	
0.166164	0.947086	0.182878	-3.29	-118.16	-25.97	-0.0936	-0.3685	-0.2681	
0.166286	0.950624	0.182024	1.68	-113.82	-25.83	-0.1084	-0.3604	-0.2604	
0.183976	0.963678	0.187758	3.43	-107.59	-23.8	-0.1141	-0.3632	-0.2603	
0.205204	0.97966	0.20679	5.18	-102.06	-21.35	-0.1241	-0.366	-0.2525	
0.159332	0.97783	0.204106	3.15	-96.67	-16.1	-0.1226	-0.3706	-0.248	
0.195566	0.985028	0.193614	2.31	-97.86	-15.89	-0.1456	-0.3791	-0.2248	
0.200568	1.05347	0.210572	3.01	-92.96	-16.8	-0.1488	-0.3698	-0.2294	
0.213744	1.037854	0.202398	-1.75	-91.42	-20.3	-0.1615	-0.377	-0.2277	
0.149816	1.037976	0.189832	-7	-89.67	-22.19	-0.1615	-0.3801	-0.2216	
0.132736	1.013942	0.179096	-9.73	-89.46	-25.55	-0.1673	-0.3799	-0.2154	
0.198616	1.013088	0.208254	-12.46	-87.85	-26.18	-0.1674	-0.3783	-0.2093	
0.209108	1.003084	0.214842	-14.77	-83.09	-29.54	-0.1759	-0.3826	-0.2184	
0.21899	0.978684	0.214476	-11.13	-79.94	-32.13	-0.1746	-0.3796	-0.2062	
0.19947	0.96258	0.228994	-7.63	-74.9	-33.39	-0.1744	-0.3858	-0.2062	
0.239974	0.942328	0.282064	-5.11	-67.69	-31.5	-0.1817	-0.3871	-0.1969	
0.242048	0.929884	0.27877	7.21	-60.55	-32.55	-0.1789	-0.3857	-0.1893	
0.232532	0.929762	0.243634	11.06	-52.57	-32.2	-0.1801	-0.3917	-0.1924	
0.205814	0.963556	0.230458	16.03	-46.55	-29.68	-0.1756	-0.4011	-0.1817	
0.16958	0.992348	0.206058	15.61	-41.65	-27.86	-0.1742	-0.4012	-0.1725	
0.131882	0.965142	0.188612	5.46	-36.26	-22.54	-0.1828	-0.404	-0.1694	
0.113826	0.957578	0.189954	0.42	-32.9	-18.69	-0.1843	-0.4024	-0.1694	
0.116266	0.952088	0.19459	-1.12	-29.89	-15.19	-0.1783	-0.4103	-0.1679	
0.10614	0.970144	0.216916	-1.05	-26.67	-12.39	-0.1756	-0.4058	-0.1634	
0.103578	0.970876	0.219478	-2.03	-24.01	-11.69	-0.1814	-0.4071	-0.1587	
0.11407	0.966606	0.233264	-3.57	-21.91	-9.73	-0.1844	-0.3993	-0.174	
0.09821	0.9821	0.216794	-7.49	-19.67	-7.98	-0.1856	-0.41	-0.1617	
0.09028	0.980514	0.216306	-8.26	-18.9	-7.63	-0.1709	-0.4151	-0.168	
0.05856	0.98759	0.220942	-11.69	-19.46	-6.09	-0.1784	-0.4087	-0.1603	
0.075884	0.94733	0.239608	-13.37	-19.67	-5.32	-0.1887	-0.3991	-0.1724	
0.046848	0.962336	0.235582	-10.64	-21.28	-5.53	-0.1915	-0.4037	-0.1708	
0.072468	0.958798	0.260348	-10.99	-20.3	-5.95	-0.1831	-0.3994	-0.1618	
0.088694	0.96502	0.257542	-8.12	-19.18	-7.07	-0.1872	-0.4038	-0.1602	
0.086986	0.968558	0.256566	-7.28	-17.57	-6.16	-0.1872	-0.4084	-0.1541	
0.09857599	0.958554	0.279136	-5.81	-14.07	-5.6	-0.1932	-0.3959	-0.1663	
0.08845	0.9577	0.27145	-3.92	-9.66	-5.04	-0.1932	-0.399	-0.1601	
0.073566	0.95892	0.257054	-1.61	-6.23	-4.62	-0.1932	-0.4006	-0.1571	
0.079666	0.952698	0.271938	-0.42	-4.62	-4.2	-0.1914	-0.4098	-0.1617	
0.066124	0.974048	0.260592	0.42	-3.01	-3.15	-0.1801	-0.4025	-0.1618	
0.090036	0.96197	0.271572	-0.14	-0.14	-1.96	-0.1833	-0.3932	-0.1587	
0.07625	0.953308	0.244366	0.42	1.33	-1.05	-0.1915	-0.4021	-0.1708	
0.057584	0.964044	0.23363	0.63	3.22	0.56	-0.1831	-0.3978	-0.1664	
0.061854	0.97234	0.239486	0.63	5.39	1.47	-0.1886	-0.4068	-0.1632	
0.067222	0.959286	0.248514	0.42	6.58	2.38	-0.1872	-0.4054	-0.1617	
0.061	0.957456	0.24644	1.82	8.05	2.87	-0.1771	-0.4042	-0.1664	
0.05002	0.977098	0.243146	3.92	9.38	3.08	-0.183	-0.4009	-0.1587	
0.070516	0.978562	0.23241	4.27	10.92	3.43	-0.1844	-0.4008	-0.1694	
0.077592	0.967704	0.245464	4.69	13.86	3.92	-0.1842	-0.4085	-0.1648	
0.082594	0.963556	0.242536	5.18	15.75	4.2	-0.1758	-0.3996	-0.1603	
0.097234	0.963556	0.243146	7.35	17.5	4.27	-0.1801	-0.3995	-0.1664	
0.089914	1.009672	0.214354	7.49	21.49	4.69	-0.183	-0.3994	-0.1663	
0.116998	0.98271	0.233264	5.88	23.87	5.25	-0.1788	-0.3995	-0.1572	
0.139568	0.94733	0.247538	4.9	27.79	6.51	-0.177	-0.4072	-0.1664	
0.153476	0.915244	0.268644	7.91	32.55	7.7	-0.1784	-0.4056	-0.174	
0.133346	0.884866	0.230702	12.04	40.39	9.03	-0.1784	-0.4072	-0.1679	
0.094184	0.917074	0.204472	18.13	44.8	11.48	-0.1624	-0.4124	-0.1681	
0.070882	0.96502	0.19886	19.53	49.98	14.14	-0.17	-0.3983	-0.1726	
0.134444	1.006622	0.198372	22.12	52.64	13.93	-0.1756	-0.4027	-0.1725	
0.158356	1.013454	0.199714	18.62	53.48	13.02	-0.1725	-0.4105	-0.168	
0.188002	1.023702	0.202154	13.23	62.86	14	-0.1614	-0.4001	-0.162	
0.185074	1.00772	0.19459	5.39	69.02	14.84	-0.1625	-0.4062	-0.1726	
0.167628	0.9882	0.183	0	79.1	17.71	-0.158	-0.4063	-0.1925	
0.144326	0.977586	0.133224	-7.91	86.66	19.95	-0.1554	-0.4034	-0.1727	
0.110044	1.003816	0.14091	-9.03	86.66	20.37	-0.1609	-0.4031	-0.1971	
0.07869	1.040782	0.147864	-6.93	86.17	19.67	-0.1522	-0.405	-0.2002	
0.05734	1.042612	0.15006	-7.14	81.97	19.39	-0.1481	-0.399	-0.1988	
0.06527	1.03334	0.183976	-7.49	78.05	17.99	-0.1378	-0.4024	-0.208	
0.057706	1.020896	0.197884	-6.3	79.66	15.75	-0.1276	-0.3997	-0.2219	
0.058316	1.007598	0.185562	-7.35	79.87	14.28	-0.1267	-0.3859	-0.2219	
0.044042	0.99125	0.176778	-7.84	78.12	13.79	-0.1221	-0.3922	-0.225	
0.031964	0.981856	0.182268	-7.98	77.42	14	-0.1135	-0.3879	-0.2327	
0.032452	0.99857	0.20069	-7.21	74.69	14.77	-0.103	-0.3974	-0.2374	
0.038796	1.005646	0.213012	-6.44	74.41	13.79	-0.1065	-0.3789	-0.2435	
0.039772	1.009184	0.209718	-8.33	71.89	12.18	-0.0962	-0.3854	-0.2451	
0.032208	1.003694	0.21716	-9.52	70.14	10.64	-0.0962	-0.3854	-0.2436	
0.019154	0.998936	0.220576	-10.08	68.18	10.57	-0.0918	-0.384	-0.2498	
0.023668	0.990884	0.233996	-8.47	65.45	9.73	-0.08859999	-0.3933	-0.2544	
0.0183	0.991494	0.219234	-8.47	62.65	8.75	-0.0803	-0.3798	-0.2591	
-0.016714	1.016992	0.205936	-9.38	57.68	9.87	-0.0788	-0.3798	-0.2698	
-0.024522	0.995398	0.225212	-9.73	54.95	7.84	-0.0746	-0.3784	-0.2606	
-0.026596	0.979172	0.22265	-10.22	49.91	6.09	-0.0721	-0.3632	-0.2683	
-0.02074	0.960018	0.241926	-8.19	44.73	6.16	-0.0645	-0.3757	-0.2638	
-0.024644	0.975024	0.233386	-4.97	39.06	5.6	-0.0559	-0.376	-0.2608	
-0.034282	0.976732	0.230458	-4.34	35.49	6.72	-0.0514	-0.3761	-0.2746	
-0.035258	0.966118	0.235094	-4.83	31.43	7.21	-0.0455	-0.3856	-0.264	
-0.038674	0.973804	0.243268	-3.85	28.35	6.51	-0.0473	-0.3717	-0.267	
-0.033794	0.973072	0.249246	-4.13	24.92	6.44	-0.0486	-0.3732	-0.2838	
-0.035746	0.974048	0.254004	-3.15	21	5.67	-0.0427	-0.3764	-0.2808	
-0.033062	0.967338	0.25498	-2.1	17.92	4.41	-0.047	-0.3794	-0.2808	
-0.034648	0.96258	0.24827	-2.59	14.56	3.36	-0.0457	-0.3733	-0.2777	
-0.029402	0.954406	0.24461	-3.71	10.36	2.52	-0.0472	-0.3732	-0.2731	
-0.02745	0.942572	0.236802	-5.6	6.44	1.75	-0.0457	-0.3717	-0.29	
-0.025742	0.940254	0.244854	-6.51	2.66	0.98	-0.0458	-0.3702	-0.2823	
-0.021594	0.94062	0.25559	-7.49	1.12	0.91	-0.0429	-0.3718	-0.2778	
-0.015006	0.965752	0.27328	-4.55	-1.89	-0.14	-0.037	-0.3736	-0.287	
-0.008662	0.99613	0.278526	-1.96	-3.36	-0.63	-0.0298	-0.3707	-0.2978	
0.006954	0.999912	0.279014	-2.45	-4.34	-0.42	-0.0358	-0.3675	-0.2809	
0.02257	0.99247	0.279624	-3.5	-5.04	-1.26	-0.0372	-0.369	-0.2824	
0.020252	0.976732	0.277184	-4.27	-5.46	-0.63	-0.0458	-0.3656	-0.2946	
0.02379	0.96685	0.279136	-4.06	-5.18	0.21	-0.0473	-0.3702	-0.2777	
0.031232	0.969046	0.282796	-4.2	-4.62	1.05	-0.0342	-0.3691	-0.287	
0.02989	0.973926	0.280722	-3.43	-4.13	1.26	-0.0387	-0.3658	-0.2901	
0.02379	0.97966	0.279868	-3.15	-3.71	1.4	-0.0476	-0.3594	-0.2808	
0.023424	0.976366	0.28243	-4.06	-3.36	1.82	-0.0503	-0.3624	-0.2915	
0.025986	0.97417	0.287554	-4.83	-3.36	1.89	-0.0447	-0.361	-0.2808	
0.028304	0.970022	0.28975	-5.11	-3.29	1.82	-0.0419	-0.3581	-0.2778	
0.032818	0.965996	0.293776	-4.69	-3.36	1.61	-0.0471	-0.3732	-0.2838	
0.037454	0.962458	0.298656	-4.34	-3.15	1.54	-0.0386	-0.3689	-0.2839	
0.041724	0.961848	0.298778	-3.78	-3.15	1.26	-0.0458	-0.3686	-0.29	
0.043066	0.960628	0.29829	-4.06	-3.22	1.19	-0.0415	-0.3704	-0.2808	
0.04331	0.964776	0.296216	-3.36	-3.36	0.7	-0.0533	-0.3607	-0.2838	
0.044286	0.963434	0.302926	-3.36	-3.43	0.42	-0.0488	-0.3639	-0.2884	
0.041358	0.96075	0.305976	-3.71	-3.43	0.28	-0.0488	-0.3655	-0.2838	
0.036478	0.957334	0.310124	-3.22	-3.29	-0.56	-0.0459	-0.364	-0.2976	
