Sensor string: E
Serial number: 1970-01-0000
Firmware version: 2,015
Hardware version: 2,2
Calibration quality: 5
ax	ay	az	gx	gy	gz	mx	my	mz

-1.002962	0.112362	-0.124074	-1.4	-0.84	-0.28	2.8915	2.1869	1.2959	Reference
-1.001498	0.116388	-0.1281	-1.05	-0.77	-0.42	2.8899	2.1914	1.2897	
-1.002718	0.11468	-0.129808	-1.96	-0.91	-0.7	2.8987	2.1947	1.287	
-1.00589	0.114558	-0.127368	-1.26	-1.05	-0.42	2.899	2.1885	1.2977	
-1.00467	0.120536	-0.12566	-0.7	-1.12	-0.28	2.9007	2.1885	1.3039	
-1.006012	0.119316	-0.125416	-0.63	-1.54	-0.07	2.8957	2.1977	1.2838	
-1.008208	0.114314	-0.123952	-0.21	-2.17	-0.14	2.9005	2.2007	1.2931	
-1.012234	0.104676	-0.121634	-0.07	-2.8	-0.35	2.9047	2.1902	1.2949	
-1.020286	0.100528	-0.113582	0.98	-2.87	-0.49	2.9029	2.1964	1.2826	
-0.999912	0.112606	-0.117364	3.29	-5.32	-1.12	2.8944	2.2022	1.2852	
-1.009916	0.099064	-0.119072	0.21	-6.16	-1.68	2.8927	2.1931	1.2852	
-0.996252	0.093086	-0.106994	4.13	-6.93	-1.05	2.9075	2.1934	1.2889	
-0.991006	0.10309	-0.098942	2.1	-4.83	-0.84	2.9015	2.1948	1.2856	
-0.99613	0.1098	-0.10492	0.63	-2.8	-0.42	2.899	2.1961	1.2946	
-0.981246	0.118462	-0.107848	2.52	-2.59	0.21	2.8894	2.1901	1.2775	
-0.991494	0.119804	-0.102846	-0.63	-0.77	0.7	2.8943	2.1992	1.2852	
-0.998326	0.117852	-0.110288	-3.64	0.63	1.33	2.8988	2.1962	1.2885	
-0.998936	0.123952	-0.1159	-0.98	0.56	1.54	2.893	2.1991	1.2882	
-1.005768	0.121146	-0.113948	-0.7	1.05	1.47	2.8896	2.1961	1.2805	
-1.010282	0.12383	-0.117974	-0.63	0.49	1.19	2.9017	2.1978	1.2886	
-1.005402	0.127612	-0.11468	-2.73	0.14	1.26	2.8931	2.1976	1.2913	
-1.008208	0.116754	-0.116022	-3.01	-0.7	0.28	2.8943	2.2007	1.2852	
-1.006866	0.122366	-0.11529	-0.07	-1.47	0	2.887	2.1929	1.288	
-1.00955	0.114924	-0.106628	-0.56	-1.4	-0.56	2.9013	2.1979	1.2779	
-1.008696	0.117364	-0.108946	0.98	-2.94	-0.7	2.8955	2.1978	1.2792	
-1.001986	0.114802	-0.108824	-2.66	-5.04	-0.98	2.8973	2.1992	1.2869	
-0.996618	0.119804	-0.103212	-1.19	-3.64	-1.19	2.897	2.1963	1.2808	
-0.999058	0.122488	-0.101382	-3.22	-2.52	-0.77	2.8972	2.187	1.2916	
-0.995154	0.119316	-0.108092	-2.94	-1.96	-0.7	2.8981	2.1918	1.2748	
-1.005158	0.106872	-0.105408	-3.85	-0.7	-0.42	2.8987	2.1947	1.2885	
-1.006256	0.107848	-0.108458	-3.22	-0.63	-0.49	2.8944	2.2007	1.2867	
-1.006012	0.108702	-0.104676	-2.38	-0.63	-0.42	2.8916	2.2036	1.2881	
-1.005524	0.10553	-0.10187	-1.33	-0.91	-0.63	2.8957	2.1977	1.2838	
-1.015162	0.10004	-0.10065	-0.21	-1.47	-0.84	2.893	2.1961	1.2897	
-1.010404	0.100284	-0.087596	0.7	-2.45	-0.84	2.8939	2.1947	1.2791	
-1.00711	0.098332	-0.0915	0.91	-3.08	-0.91	2.8932	2.2036	1.2912	
-1.006378	0.091012	-0.093452	1.19	-2.73	-1.05	2.8928	2.1931	1.2867	
-1.007476	0.094794	-0.08967	2.59	-2.66	-1.12	2.8974	2.2038	1.2868	
-0.996496	0.105408	-0.090158	3.36	-2.73	-0.63	2.8941	2.2069	1.276	
-0.991616	0.111386	-0.085156	2.17	-1.89	-0.07	2.894	2.1932	1.2807	
-0.991372	0.110044	-0.089792	1.96	-0.84	0.42	2.8883	2.1991	1.2819	
-0.996252	0.114436	-0.093086	1.47	0.42	0.7	2.8882	2.1915	1.2835	
-1.000034	0.119316	-0.097234	0.42	1.12	0.63	2.8987	2.2008	1.2854	
-1.008452	0.111752	-0.10004	-1.54	1.68	0.49	2.8972	2.1993	1.2838	
-1.005646	0.111142	-0.106262	0.7	1.89	0.42	2.9	2.21	1.2762	
-1.003938	0.116876	-0.097966	1.82	1.82	0.21	2.8879	2.187	1.279	
-1.002962	0.117608	-0.097844	0.07	1.89	0.14	2.8944	2.1991	1.2883	
-1.000644	0.12017	-0.097722	0.63	1.82	0.07	2.8958	2.1961	1.2883	
-1.003572	0.113094	-0.099064	-0.56	1.82	-0.07	2.9076	2.1964	1.2904	
-1.011258	0.108824	-0.105042	-1.33	2.17	-0.28	2.8996	2.1933	1.2764	
-0.998936	0.114924	-0.103334	0	1.68	-0.7	2.8938	2.1947	1.2746	
-1.006134	0.112362	-0.108946	-2.59	2.66	-1.05	2.894	2.1992	1.2791	
-1.010648	0.101382	-0.11041	-3.01	2.24	-0.77	2.8924	2.2008	1.2729	
-0.995886	0.106872	-0.113948	0.28	1.68	-0.91	2.8941	2.1947	1.2822	
-1.00833	0.102968	-0.100406	-3.22	2.24	-1.05	2.8879	2.1961	1.2743	
-1.009428	0.10797	-0.103578	-2.52	2.45	-1.19	2.9044	2.2025	1.2795	
-1.007232	0.107238	-0.101382	-2.8	2.17	-1.05	2.8972	2.1962	1.2869	
-1.003206	0.110288	-0.105774	-0.98	1.89	-0.7	2.8857	2.1974	1.2894	
-1.001864	0.107848	-0.106628	-2.03	1.68	-0.49	2.903	2.1963	1.2856	
-0.999546	0.109068	-0.110166	-0.35	1.68	-0.28	2.8959	2.2022	1.2868	
-1.00223	0.106994	-0.103212	-0.84	1.96	0.21	2.8945	2.2068	1.2851	
-1.001376	0.108214	-0.108458	-0.98	2.24	0.56	2.899	2.2022	1.2915	
-1.004792	0.106018	-0.111996	-1.82	2.8	0.91	2.8885	2.1914	1.2911	
-1.001376	0.113094	-0.116022	0.56	2.45	1.12	2.8945	2.2052	1.2867	
-1.002352	0.107604	-0.115656	-0.35	2.52	0.98	2.8972	2.1977	1.2853	
-1.006012	0.103212	-0.115534	-0.91	2.1	0.98	2.8959	2.1916	1.2914	
-1.00345	0.110166	-0.118828	0.77	1.54	0.84	2.8948	2.1975	1.2974	
-1.003206	0.112606	-0.113338	1.12	1.68	0.42	2.9073	2.198	1.2812	
-1.002596	0.113216	-0.118706	-0.28	1.82	0.14	2.8972	2.1962	1.2869	
-1.00345	0.105408	-0.122732	-2.24	1.75	-0.07	2.8973	2.2038	1.2853	
-1.00528	0.104676	-0.116998	-1.75	1.89	-0.21	2.9003	2.1947	1.2901	
-1.000522	0.109678	-0.120658	-2.87	2.17	-0.56	2.8975	2.2007	1.2899	
-1.006378	0.104798	-0.128954	-3.29	2.8	-0.7	2.8946	2.2067	1.2882	
-1.005036	0.108824	-0.131882	-2.03	2.59	-0.7	2.8974	2.1916	1.293	
-1.000278	0.116022	-0.122976	-1.68	2.1	-0.63	2.8931	2.2021	1.2912	
-0.998326	0.120414	-0.122122	-2.17	2.31	-0.21	2.8929	2.193	1.2898	
-1.004304	0.120536	-0.121268	-3.57	2.45	0.21	2.8868	2.1945	1.2834	
-1.00162	0.115534	-0.120292	-2.52	1.05	0.63	2.9007	2.2037	1.2961	
-1.006378	0.11407	-0.130662	-1.96	0.49	0.77	2.8869	2.1975	1.2834	
-1.000766	0.111874	-0.122	-0.7	0.28	0.7	2.8947	2.196	1.2959	
-1.006622	0.112606	-0.121024	-1.47	0.91	0.63	2.8885	2.2036	1.2834	
-1.01138	0.113826	-0.127978	-1.54	0.49	0.35	2.8967	2.202	1.3051	
-0.997228	0.111264	-0.119438	1.33	-0.98	0	2.9009	2.2022	1.3022	
-0.995764	0.114192	-0.119438	0.91	-0.91	0.07	2.9018	2.1962	1.2917	
-0.998814	0.113826	-0.122488	0.14	-0.07	0	2.9007	2.1931	1.3023	
-1.002718	0.10736	-0.125782	-0.35	0.21	-0.07	2.9025	2.2022	1.3038	
-1.002352	0.10614	-0.126392	0.07	0.07	-0.07	2.8948	2.2067	1.2928	
-0.997106	0.108946	-0.124928	0.35	0.28	-0.21	2.9005	2.2007	1.2931	
-1.000278	0.109312	-0.123952	-0.49	0.84	-0.28	2.9006	2.1977	1.2962	
-1.004548	0.10736	-0.121634	-0.07	1.19	-0.35	2.898	2.1991	1.3036	
-1.004548	0.108336	-0.12688	-0.14	0.84	-0.21	2.9006	2.1946	1.2977	
-1.002962	0.109434	-0.124318	0.07	0.56	-0.35	2.9054	2.2023	1.3039	
-0.997228	0.124196	-0.12383	2.94	-0.14	-0.56	2.905	2.1947	1.2994	
-1.010526	0.11346	-0.135542	-1.4	0.84	-0.84	2.899	2.1946	1.2961	
-1.006866	0.106628	-0.130296	0.7	-0.07	-0.56	2.8994	2.2006	1.3022	
-0.997838	0.117486	-0.121146	3.78	-1.47	-0.7	2.8916	2.1975	1.2912	
-1.00284	0.113094	-0.119072	0.14	-0.14	-0.56	2.8976	2.2037	1.2929	
-0.998692	0.112484	-0.120414	0.7	-0.35	-0.21	2.9009	2.2052	1.3007	
-0.99674	0.106994	-0.11529	-0.42	-0.07	0	2.9021	2.2023	1.2962	
-1.000888	0.108702	-0.12139	-1.19	0.28	0.42	2.902	2.2053	1.2916	
-1.00284	0.111386	-0.128954	0.35	0.14	0.49	2.8977	2.1961	1.2976	
-1.00345	0.105408	-0.12871	0.42	0	0.49	2.9077	2.1948	1.2935	
-1.001132	0.10126	-0.12993	0.84	0.14	0.42	2.9032	2.2055	1.284	
-1.003816	0.103456	-0.131638	0.84	-0.07	0.21	2.8977	2.2083	1.2929	
-1.0004	0.111874	-0.132614	2.94	0.77	0.21	2.8988	2.2008	1.2869	
-1.005768	0.111264	-0.124684	0.56	0.42	0.21	2.8991	2.1992	1.2961	
-1.003572	0.110166	-0.124928	0.91	0.35	0.28	2.9022	2.2007	1.2992	
-1.001864	0.10858	-0.121268	0.98	0.7	0.07	2.9077	2.2025	1.2888	
-1.003084	0.113094	-0.127612	0.07	0.42	-0.07	2.8963	2.2052	1.2959	
-1.014552	0.11163	-0.113704	0.28	0	-0.28	2.9034	2.1978	1.2948	
-0.997106	0.115534	-0.117486	3.15	-1.68	-0.35	2.8942	2.2023	1.2806	
-1.002718	0.119682	-0.134078	0.35	-0.7	-0.35	2.9004	2.2008	1.29	
-1.004792	0.110776	-0.123464	-0.56	-0.77	-0.35	2.8944	2.2052	1.2851	
-0.999668	0.112484	-0.12261	1.47	-1.33	-0.56	2.8987	2.1947	1.287	
-0.996862	0.118462	-0.124318	-0.07	-1.33	-0.35	2.8919	2.2096	1.2926	
-1.00101	0.117364	-0.130906	-1.19	-0.98	-0.28	2.8959	2.1931	1.293	
-0.999668	0.114436	-0.138958	-1.26	-0.77	-0.21	2.8992	2.2037	1.2945	
-1.000522	0.113704	-0.140178	-1.54	-0.77	-0.21	2.8989	2.1901	1.2946	
-1.001498	0.115412	-0.140666	-2.1	-0.77	0.14	2.89	2.2036	1.285	
-1.0065	0.112118	-0.162016	-3.64	-1.12	-0.14	2.8956	2.1977	1.2822	
-1.007476	0.114436	-0.16958	-4.41	-1.75	-0.28	2.8945	2.2037	1.2867	
-0.997228	0.122366	-0.186294	-3.29	-2.59	-0.63	2.8945	2.2006	1.2898	
-1.011502	0.123342	-0.187026	-2.03	-2.24	-0.91	2.898	2.2067	1.299	
-1.020774	0.12993	-0.190198	-2.66	-3.08	-1.54	2.8958	2.187	1.2915	
-1.021262	0.139324	-0.19459	-4.27	-5.11	-1.96	2.8978	2.2006	1.2975	
-1.017114	0.138836	-0.1891	-3.01	-7.42	-2.87	2.8975	2.2007	1.2899	
-1.01809	0.1281	-0.17019	-1.33	-11.34	-3.78	2.9032	2.1993	1.2886	
-1.021018	0.129442	-0.168726	1.47	-16.17	-4.83	2.8899	2.2067	1.2819	
-1.024434	0.13298	-0.177022	1.05	-19.46	-6.16	2.888	2.193	1.2789	
-1.029802	0.132492	-0.17446	0.63	-22.89	-7.35	2.8898	2.2067	1.2788	
-1.035292	0.128954	-0.1769	-0.98	-29.54	-7.91	2.8941	2.2038	1.2775	
-1.044442	0.129076	-0.15311	0.42	-31.29	-9.17	2.8909	2.2008	1.2729	
-1.043466	0.119804	-0.149572	0.77	-34.72	-9.52	2.8862	2.2145	1.2588	
-1.048224	0.122976	-0.149938	3.85	-41.16	-10.5	2.889	2.2084	1.259	
-1.036512	0.124806	-0.12566	4.62	-45.15	-11.76	2.8774	2.2127	1.2599	
-1.0187	0.124074	-0.094794	3.36	-50.89	-12.18	2.8816	2.219	1.2509	
-1.032852	0.10126	-0.07808	2.87	-59.99	-13.37	2.8693	2.2158	1.2382	
-1.003694	0.099918	-0.049166	0.84	-62.37	-13.86	2.8677	2.2173	1.2351	
-1.008452	0.092232	-0.021838	2.24	-64.96	-14.98	2.8641	2.2159	1.2197	
-1.007964	0.074786	-0.003782	1.47	-66.85	-15.47	2.8562	2.2144	1.2057	
-1.016504	0.052216	0.02135	1.47	-70.21	-16.59	2.8461	2.2232	1.2036	
-1.01748	0.043066	0.033672	0.49	-74.13	-17.15	2.8407	2.2264	1.179	
-1.005036	0.039528	0.057462	3.5	-81.69	-18.27	2.829	2.2277	1.1769	
-0.97417	0.040992	0.082472	9.59	-89.39	-19.46	2.8195	2.2231	1.1629	
-0.96197	0.028548	0.142862	12.6	-95.27	-19.53	2.815	2.2322	1.1565	
-0.991982	0.045872	0.183488	14.42	-98.21	-18.34	2.8057	2.2321	1.1424	
-0.976244	0.038918	0.194834	9.8	-99.82	-17.43	2.7937	2.2319	1.1373	
-0.940864	0.004392	0.228018	9.94	-105.77	-18.62	2.793	2.2321	1.119	
-0.910608	-0.01037	0.256932	13.51	-107.66	-18.83	2.7708	2.2377	1.1103	
-0.875594	-0.018788	0.30683	14.49	-106.33	-19.53	2.7588	2.2436	1.0991	
-0.877058	-0.021716	0.352824	16.38	-104.09	-18.41	2.7315	2.228	1.0844	
-0.893772	-0.011712	0.40565	17.57	-102.97	-15.26	2.7269	2.2341	1.0765	
-0.883036	-0.015006	0.429562	15.12	-104.65	-13.09	2.7188	2.2356	1.0563	
-0.848388	-0.02379	0.442372	14.35	-106.89	-12.18	2.7028	2.2352	1.0602	
-0.77409	-0.030744	0.508374	14.49	-106.54	-10.92	2.6698	2.224	1.0452	
-0.75884	-0.031842	0.563762	14.91	-103.32	-10.57	2.6545	2.2238	1.0308	
-0.768722	-0.010248	0.603656	15.33	-102.76	-9.52	2.644	2.2176	1.0258	
-0.725412	-0.008174	0.623298	10.43	-103.32	-7.98	2.6262	2.2294	1.0143	
-0.676978	0.000976	0.647332	12.04	-105	-7.56	2.6125	2.2186	1.0077	
-0.643062	0.00183	0.658922	9.94	-101.5	-5.6	2.5919	2.2242	1.0006	
-0.624762	-0.006954	0.708332	9.03	-97.58	-4.55	2.5826	2.2196	0.9911	
-0.603168	-0.013542	0.745298	6.09	-93.1	-2.87	2.5618	2.2207	0.9841	
-0.58987	-0.019642	0.773602	1.61	-89.11	-2.52	2.5469	2.2021	0.9867	
-0.564006	-0.023424	0.776896	-0.84	-87.78	-1.19	2.5382	2.2095	0.9848	
-0.526186	-0.020984	0.789828	-0.14	-87.22	-0.07	2.5234	2.2092	0.9795	
-0.489586	-0.018178	0.80703	2.31	-85.47	0.91	2.5058	2.2119	0.9787	
-0.475312	-0.001342	0.851194	1.54	-80.99	-0.7	2.4952	2.2087	0.9722	
-0.458964	-0.002196	0.884012	-0.28	-75.74	-0.42	2.4851	2.21	0.9733	
-0.441518	-0.008174	0.898286	-1.68	-71.61	-1.96	2.4672	2.2096	0.9664	
-0.426634	-0.020252	0.908534	-3.29	-69.79	-1.54	2.469	2.2126	0.971	
-0.408334	-0.020252	0.910364	-4.9	-67.9	-1.12	2.4495	2.2062	0.9642	
-0.38369	-0.020008	0.924394	-4.55	-66.15	-0.28	2.4266	2.2177	0.9691	
-0.350872	-0.037698	0.94611	-3.15	-64.54	0.49	2.4259	2.2118	0.957	
-0.329888	-0.040504	0.970876	-4.41	-59.29	0.98	2.4089	2.2174	0.9653	
-0.308416	-0.0549	0.975146	-2.38	-57.75	1.4	2.3973	2.2155	0.9694	
-0.300608	-0.04941	0.982832	-1.05	-56.49	1.68	2.3925	2.2155	0.96	
-0.286944	-0.032086	0.995154	-2.03	-53.97	1.82	2.3828	2.2197	0.9718	
-0.263032	-0.030622	0.99796	-2.66	-50.61	1.89	2.3737	2.2135	0.9653	
-0.250954	-0.03782	0.999424	-1.82	-45.29	1.54	2.3663	2.2134	0.9635	
-0.241316	-0.042822	1.00406	-2.17	-40.67	1.82	2.3636	2.2087	0.971	
-0.22936	-0.04758	1.017358	-1.12	-36.4	1.54	2.3502	2.2084	0.9674	
-0.221552	-0.04209	1.022238	-0.07	-32.06	0.63	2.3442	2.2099	0.9626	
-0.231434	-0.036722	1.011502	-1.96	-27.16	0.56	2.3343	2.208	0.9712999	
-0.243024	-0.02806	0.999058	-3.78	-22.96	-0.42	2.3413	2.2037	0.9656	
-0.231068	-0.02989	1.000156	-4.2	-20.72	-0.91	2.3417	2.2127	0.97	
-0.224724	-0.032696	1.005768	-3.29	-17.22	-1.68	2.3268	2.2033	0.9695	
-0.22753	-0.049654	0.989054	-4.83	-13.93	-1.75	2.3284	2.2125	0.9679	
-0.223992	-0.062098	1.00101	-2.59	-13.58	-2.24	2.3274	2.2123	0.9801	
-0.216184	-0.064538	1.002596	-0.77	-11.55	-1.75	2.33	2.2079	0.9726	
-0.211792	-0.05978	0.990152	-0.21	-7.91	-1.47	2.3181	2.2122	0.9675	
-0.208498	-0.05673	0.997594	1.61	-6.65	-1.19	2.3245	2.2137	0.9799	
-0.188124	-0.042822	1.01504	2.31	-3.08	-0.98	2.3197	2.2168	0.9675	
-0.178242	-0.043432	1.026142	2.31	-0.14	-1.05	2.317	2.2091	0.9766	
-0.167628	-0.035258	1.027484	1.82	3.43	-0.98	2.3239	2.2124	0.9662	
-0.162382	-0.043554	1.04249	0.77	7.42	-0.21	2.327	2.2048	0.9741	
-0.163602	-0.056242	1.061888	1.75	13.02	-0.84	2.3182	2.2046	0.9737	
-0.162748	-0.057462	1.06933	2.8	17.43	-0.84	2.3312	2.2095	0.9666	
-0.16287	-0.056242	1.071404	2.87	23.03	-0.42	2.324	2.2047	0.9709	
-0.16165	-0.058682	1.0614	2.52	28.91	0.49	2.3285	2.2155	0.9694	
-0.146278	-0.082594	1.06994	3.15	36.05	1.89	2.334	2.2111	0.9621	
-0.169946	-0.041114	1.040172	-2.52	45.43	2.66	2.3353	2.2066	0.9607	
-0.186172	-0.033428	1.03456	3.71	48.16	1.96	2.346	2.2083	0.9703	
-0.209962	-0.030988	1.033706	3.15	51.38	2.31	2.3499	2.207	0.9598	
-0.227042	-0.036478	1.022116	1.47	57.19	2.17	2.3633	2.2072	0.9665	
-0.247904	-0.034038	1.00894	2.03	61.18	1.68	2.3835	2.2108	0.9567	
-0.2684	-0.03599	0.996862	7.56	65.31	2.03	2.3881	2.2048	0.9661	
-0.289262	-0.045262	0.968436	6.72	73.08	1.12	2.3998	2.205	0.965	
-0.323666	-0.04087	0.95038	9.17	76.58	0.84	2.407	2.2113	0.9592	
-0.346114	-0.031232	0.93025	9.94	79.59	1.89	2.4318	2.2104	0.9572	
-0.387594	-0.038308	0.894138	5.46	86.45	2.73	2.4554	2.2033	0.9675	
-0.422852	-0.045384	0.866444	5.18	90.58	2.87	2.461	2.2065	0.9601	
-0.448228	-0.031354	0.847534	5.6	92.96	3.01	2.4777	2.2113	0.9714	
-0.476776	-0.013786	0.819108	4.06	96.25	3.08	2.4968	2.2117	0.9723	
-0.50996	-0.007808	0.792268	1.82	99.26	4.06	2.5053	2.209	0.9681	
-0.53741	-0.01708	0.767502	1.19	100.87	4.9	2.5221	2.2031	0.9872	
-0.55876	-0.011102	0.740052	1.61	102.27	5.67	2.5409	2.2005	0.985	
-0.583038	-0.008296	0.713456	-1.4	104.23	7.07	2.5515	2.2098	0.9868	
-0.61854	0	0.679418	-3.64	106.96	8.05	2.5706	2.2026	0.9939	
-0.643428	-0.000488	0.658922	-5.74	107.94	8.75	2.5855	2.2151	0.9944	
-0.665144	0.004026	0.62281	-6.37	109.69	9.8	2.5962	2.2243	1.0008	
-0.691008	0.001342	0.594506	-7.84	111.3	11.2	2.6152	2.2126	1.0064	
-0.725168	0.000976	0.549366	-9.87	112.42	12.81	2.6375	2.2069	1.0181	
-0.752618	0.009516	0.514596	-11.55	112.56	14.14	2.654	2.2118	1.0248	
-0.773602	0.012688	0.482876	-11.69	114.31	15.33	2.6733	2.2152	1.0302	
-0.808006	0.02074	0.446764	-12.74	113.54	15.68	2.6871	2.2153	1.0445	
-0.84058	0.035014	0.406992	-10.29	112.91	17.29	2.699	2.2186	1.0465	
-0.863882	0.051118	0.372344	-7.84	110.81	18.27	2.7172	2.2173	1.0625	
-0.902434	0.054412	0.307074	-8.26	108.08	19.04	2.7476	2.2208	1.0897	
-0.947086	0.056486	0.261934	-6.93	105.35	19.32	2.7466	2.216	1.1019	
-0.937082	0.053802	0.207156	-5.95	103.18	20.58	2.7628	2.2103	1.1088	
-0.95099	0.066734	0.17141	-5.88	100.03	19.95	2.7778	2.2105	1.117	
-0.951112	0.082838	0.119804	-5.46	96.88	19.67	2.7973	2.2032	1.1332	
-0.96075	0.08967	0.094306	-5.04	96.6	19.18	2.8041	2.2168	1.1486	
-0.982222	0.104798	0.058438	-6.02	94.08	19.88	2.8175	2.2095	1.1584	
-0.98515	0.109678	0.035624	-6.23	91.63	20.02	2.8224	2.2094	1.1708	
-0.977098	0.119316	0.00061	-3.78	87.5	20.16	2.8405	2.2082	1.1838	
-0.980514	0.113948	-0.009638	-0.21	85.12	21.49	2.8407	2.1975	1.193	
-0.982954	0.121146	-0.037698	-1.75	81.9	21.28	2.8474	2.202	1.2115	
-0.969168	0.126636	-0.054168	-1.82	80.08	20.72	2.8622	2.2022	1.2168	
-0.959652	0.139446	-0.082838	-2.87	79.1	19.6	2.8567	2.1837	1.235	
-0.967826	0.153232	-0.108824	3.64	84.91	18.9	2.8718	2.1839	1.2463	
-0.933788	0.154086	-0.130174	4.97	85.12	19.81	2.8763	2.1886	1.2465	
-0.918294	0.18666	-0.214598	-0.49	74.06	19.25	2.8902	2.1841	1.2654	
-0.962336	0.107848	-0.086742	20.23	133.63	25.48	2.889	2.1825	1.273	
-0.972218	0.17263	-0.283894	17.78	105.84	25.34	2.8955	2.1749	1.2916	
-1.021506	0.16409	-0.29158	14.07	108.5	24.22	2.8978	2.1823	1.3084	
-1.050176	0.1952	-0.284016	11.34	104.02	22.75	2.9136	2.161	1.3474	
-1.03517	0.198738	-0.345992	11.2	91	20.58	2.9139	2.1579	1.3551	
-0.974292	0.188856	-0.370514	12.39	75.81	18.97	2.9187	2.1594	1.3659	
-0.995642	0.230824	-0.40443	3.01	62.3	13.72	2.9222	2.1517	1.3829	
-1.015406	0.20496	-0.352214	-4.27	52.43	13.3	2.9267	2.1533	1.3846	
-0.976488	0.22082	-0.363438	9.66	48.23	12.74	2.9195	2.1455	1.3905	
-0.913414	0.231556	-0.402478	17.5	47.74	13.16	2.9214	2.1454	1.4027	
-0.922808	0.23302	-0.442738	21.21	43.96	13.37	2.926	2.1424	1.4091	
-0.9211	0.224846	-0.45201	20.09	40.11	13.16	2.9272	2.1334	1.4077	
-0.905728	0.21411	-0.442738	10.5	39.34	11.97	2.9251	2.1422	1.4212	
-0.90707	0.216794	-0.44408	5.04	38.92	10.15	2.9237	2.1422	1.4242	
-0.894382	0.214476	-0.459086	5.81	35.98	9.8	2.9169	2.1297	1.4423	
-0.871446	0.211792	-0.473482	7.63	37.17	9.59	2.9196	2.1313	1.4363	
-0.85461	0.204472	-0.48373	7.28	39.27	10.57	2.9274	2.1268	1.4504	
-0.920246	0.210938	-0.490196	12.74	37.87	10.85	2.9184	2.1267	1.4439	
-0.916952	0.213744	-0.521306	16.17	32.06	9.45	2.9175	2.1204	1.4607	
-0.83875	0.240462	-0.532042	11.97	25.83	8.47	2.9205	2.1296	1.4592	
-0.861564	0.249612	-0.51057	9.17	26.88	8.75	2.9249	2.1236	1.461	
-0.84668	0.242536	-0.478606	1.68	24.5	8.54	2.921	2.1234	1.473	
-0.823134	0.232898	-0.475556	2.1	28.91	7.49	2.9245	2.1233	1.4869	
-0.834846	0.226432	-0.499224	10.36	27.65	8.19	2.9298	2.1175	1.478	
-0.848266	0.245586	-0.563396	6.16	23.66	5.95	2.9247	2.1202	1.493	
-0.859368	0.213622	-0.520818	-2.66	28.35	6.86	2.9243	2.1111	1.4885	
-0.811788	0.242658	-0.517524	-2.45	27.72	7.35	2.9168	2.1095	1.4867	
-0.814716	0.255346	-0.528626	3.57	26.04	7.07	2.9174	2.1139	1.4973	
-0.824598	0.266326	-0.548024	10.01	25.27	7.56	2.9248	2.111	1.5023	
-0.821792	0.255468	-0.56486	2.66	26.81	6.93	2.924	2.1123	1.5175	
-0.815448	0.253638	-0.579256	1.19	25.97	6.23	2.9181	2.1168	1.5126	
-0.828868	0.259616	-0.584624	-1.54	22.33	5.18	2.9139	2.1105	1.5216	
-0.842288	0.256932	-0.596336	-3.36	17.85	3.99	2.9169	2.106	1.5248	
-0.795562	0.252052	-0.614636	-0.56	15.33	4.76	2.9259	2.1046	1.5313	
-0.781898	0.261324	-0.612806	-1.75	15.61	5.18	2.9214	2.1046	1.5281	
-0.769332	0.249734	-0.625616	-2.45	14.91	4.62	2.9158	2.0998	1.537	
-0.7625	0.253394	-0.644648	0.84	12.81	3.36	2.914	2.0968	1.5294	
-0.808006	0.265228	-0.648674	0.49	12.04	1.82	2.9142	2.1013	1.5324	
-0.761036	0.259494	-0.632448	-7.49	7.7	1.4	2.92	2.0969	1.5342	
-0.673318	0.20191	-0.491782	-47.74	-11.41	-1.33	2.9169	2.0953	1.5295	
-0.769088	0.272304	-0.714188	38.99	-16.1	0.56	2.9187	2.1029	1.5341	
-0.731024	0.263276	-0.709552	4.06	1.12	2.59	2.9199	2.1	1.5296	
-0.78995	0.256322	-0.607682	-16.52	7.07	-0.14	2.9122	2.1029	1.5186	
-0.781532	0.235948	-0.578402	-10.64	8.4	1.4	2.9133	2.0985	1.5126	
-0.819718	0.255956	-0.611952	-5.67	6.65	0.21	2.9199	2.1015	1.5281	
-0.804102	0.269376	-0.6039	-4.27	4.69	0.21	2.9141	2.1105	1.5246	
-0.795684	0.272792	-0.589992	-3.08	-0.91	-0.84	2.9111	2.0982	1.5308	
-0.801174	0.271572	-0.615856	3.01	-7.21	-2.03	2.9186	2.1075	1.5294	
-0.79239	0.27572	-0.620614	2.1	-7.98	-1.61	2.9231	2.1061	1.5342	
-0.787876	0.28548	-0.623542	1.89	-8.61	-2.17	2.9154	2.1029	1.5248	
-0.78324	0.279502	-0.62281	-1.68	-8.96	-2.87	2.9167	2.1	1.5234	
-0.77836	0.269132	-0.61305	-3.71	-7.49	-3.5	2.9196	2.1122	1.5173	
-0.76494	0.263032	-0.617564	-3.01	-6.44	-3.36	2.9151	2.0954	1.5233	
-0.77714	0.269986	-0.645136	-1.75	-10.43	-3.15	2.9167	2.1076	1.5202	
-0.777262	0.262056	-0.630496	-7.42	-11.13	-3.64	2.9252	2.1094	1.5114	
-0.764818	0.249124	-0.613172	-8.61	-9.31	-3.29	2.9294	2.1004	1.5133	
-0.802028	0.284016	-0.638304	-1.61	-10.64	-4.06	2.9237	2.1063	1.5129	
-0.815204	0.279746	-0.628422	-5.81	-12.46	-4.34	2.9194	2.1047	1.5158	
-0.80642	0.262544	-0.606096	-9.45	-14.84	-4.62	2.9206	2.1078	1.5082	
-0.804102	0.268644	-0.601948	-6.44	-18.2	-5.32	2.9212	2.1031	1.5235	
-0.827282	0.27084	-0.604144	-4.13	-21.21	-5.74	2.9238	2.1063	1.516	
-0.809348	0.260592	-0.590358	-5.88	-21.91	-6.23	2.9278	2.1019	1.5071	
-0.825818	0.263642	-0.57706	-5.39	-24.29	-7.28	2.9293	2.1126	1.504	
-0.829722	0.264252	-0.561688	-5.6	-27.44	-8.47	2.9228	2.1096	1.4885	
-0.823134	0.254004	-0.550586	-6.3	-29.61	-9.1	2.9159	2.1124	1.4973	
-0.82716	0.260104	-0.548146	-4.27	-31.15	-9.17	2.924	2.1127	1.4809	
-0.842044	0.266326	-0.557662	-3.29	-32.34	-9.66	2.9257	2.1142	1.487	
-0.860344	0.26352	-0.547902	-6.65	-33.81	-10.08	2.9244	2.1172	1.4885	
-0.863516	0.252418	-0.526674	-8.89	-34.51	-10.64	2.9313	2.1175	1.4781	
-0.861076	0.245708	-0.510936	-11.13	-34.3	-11.62	2.9147	2.1294	1.4605	
-0.87413	0.246074	-0.488	-10.36	-37.31	-12.81	2.9305	2.1238	1.4567	
-0.870958	0.238876	-0.488854	-5.88	-42.84	-12.74	2.9375	2.1301	1.4463	
-0.876692	0.239852	-0.476288	-5.53	-49.14	-13.86	2.9304	2.1284	1.4505	
-0.898652	0.25315	-0.46604	-11.13	-53.34	-17.15	2.9252	2.13	1.432	
-0.912438	0.233508	-0.430538	-17.22	-53.76	-18.97	2.9199	2.1496	1.4331	
-0.928786	0.217282	-0.385764	-16.87	-54.04	-18.9	2.9252	2.1453	1.4227	
-0.935984	0.205082	-0.356606	-13.58	-56.98	-19.25	2.9124	2.1315	1.404	
-0.927566	0.20313	-0.330986	-8.82	-60.48	-19.46	2.9227	2.144	1.3982	
-0.943792	0.207156	-0.306952	-3.29	-64.61	-20.37	2.9212	2.147	1.3966	
-0.948794	0.205326	-0.28914	-1.05	-70	-21.35	2.916	2.1517	1.3735	
-0.95526	0.201178	-0.291092	4.2	-73.92	-21.35	2.9217	2.164	1.3645	
-0.977464	0.196298	-0.272426	-0.49	-77.63	-21.56	2.9198	2.155	1.3599	
-0.954284	0.204838	-0.258274	4.76	-81.76	-20.51	2.9104	2.1625	1.3396	
-0.937082	0.213988	-0.247416	-0.7	-76.58	-19.18	2.9115	2.1657	1.3305	
-0.928664	0.199592	-0.214842	-10.99	-71.4	-18.97	2.9099	2.1703	1.3228	
-0.98454	0.140422	-0.218624	-26.04	-63.21	-20.58	2.8991	2.1656	1.3132	
-0.954162	0.166042	-0.144814	-17.85	-66.57	-19.6	2.9063	2.1765	1.3043	
-0.976732	0.138714	-0.118462	-17.08	-61.39	-20.58	2.8922	2.1764	1.2823	
-0.993568	0.131394	-0.101748	-10.78	-64.68	-19.53	2.8939	2.1856	1.2823	
-0.986004	0.129686	-0.100406	-7.14	-69.02	-18.97	2.8861	2.1901	1.2697	
-0.992836	0.115534	-0.041724	-8.75	-71.68	-19.25	2.8916	2.1918	1.2593	
-0.978684	0.100284	-0.005124	-3.08	-70.84	-17.85	2.8828	2.2023	1.2527	
-0.983564	0.09552599	-0.041358	16.1	-70.91	-16.52	2.8762	2.2054	1.2341	
-0.997594	0.05856	0.049654	-0.14	-74.83	-16.66	2.8712	2.207	1.2186	
-1.041392	0.055022	0.061244	4.48	-70.98	-17.43	2.8564	2.2082	1.2134	
-1.00833	0.081008	0.09552599	9.66	-75.81	-17.15	2.8528	2.2098	1.1965	
-0.992836	0.065148	0.07869	8.82	-78.75	-17.08	2.8525	2.213	1.1888	
-0.976244	0.049044	0.123464	10.57	-83.23	-17.57	2.8356	2.2174	1.1667	
-0.972706	0.043676	0.16287	10.64	-83.16	-14.91	2.8296	2.2157	1.1634	
-0.987834	0.046116	0.181536	8.61	-82.25	-14	2.8222	2.2171	1.1615	
-0.987102	0.051728	0.196298	8.4	-84.84	-14.07	2.8026	2.2214	1.1454	
-0.971242	0.055632	0.215818	9.87	-88.34	-15.75	2.8068	2.22	1.141	
-0.959652	0.062342	0.232776	10.08	-91.07	-16.31	2.7944	2.2123	1.1284	
-0.947086	0.052216	0.272426	11.62	-95.83	-15.54	2.7793	2.2167	1.114	
-0.915	0.042944	0.280356	13.44	-99.33	-13.93	2.7674	2.2195	1.1089	
-0.923418	0.027572	0.328546	6.65	-100.59	-15.19	2.7597	2.224	1.0963	
-0.915366	0.032208	0.360632	8.05	-101.64	-15.54	2.7457	2.2163	1.0805	
-0.90707	0.035868	0.394914	11.48	-105.35	-14.56	2.7321	2.2161	1.0708	
-0.857294	0.042578	0.412848	13.51	-106.68	-12.53	2.7127	2.2172	1.0608	
-0.829966	0.030866	0.448716	10.22	-107.94	-11.13	2.7022	2.2201	1.0527	
-0.795684	0.010004	0.47824	10.64	-107.17	-11.9	2.6705	2.2136	1.0331	
-0.7686	-0.000976	0.540338	13.58	-105.14	-10.85	2.6497	2.2147	1.0261	
-0.753472	0.009272	0.590968	16.03	-103.39	-10.22	2.6436	2.2085	1.0229	
-0.735904	0.032452	0.618296	15.54	-99.33	-8.26	2.6141	2.2064	1.017	
-0.712724	0.040016	0.625738	11.55	-96.04	-5.74	2.6107	2.2095	1.0047	
-0.702476	0.036722	0.6405	6.58	-94.5	-4.48	2.5958	2.2138	0.9948	
-0.653066	0.043432	0.670024	6.3	-94.64	-3.08	2.5806	2.2044	0.9867	
-0.611464	0.033184	0.716628	7.56	-93.66	-1.82	2.5674	2.2011	0.9876	
-0.5978	0.048434	0.726998	0.63	-86.03	-2.1	2.545	2.2068	0.9744	
-0.57523	0.040504	0.749202	-2.52	-82.95	-1.19	2.5365	2.2096	0.9786	
-0.559858	0.038674	0.791536	0.07	-81.9	-0.7	2.5196	2.1957	0.9673	
-0.535336	0.035624	0.822646	-2.1	-78.19	0.07	2.511	2.2061	0.9669	
-0.521184	0.016714	0.828502	-4.55	-73.85	-1.19	2.5028	2.2088	0.9771	
-0.507032	0.010492	0.828624	-10.36	-71.4	-2.24	2.4906	2.2041	0.9675	
-0.466406	0.008662	0.860588	-7	-73.36	-2.17	2.4807	2.2083	0.9746	
-0.432124	0.010126	0.878522	-5.25	-69.37	-1.26	2.4598	2.208	0.9646	
-0.415898	0.017812	0.88206	-7.21	-63.63	-0.91	2.4538	2.2063	0.9628	
-0.406626	0.009393999	0.893162	-7.7	-61.04	-0.56	2.4464	2.2062	0.9595	
-0.401868	0.003416	0.91317	-5.11	-54.18	1.68	2.429	2.2027	0.9664	
-0.395646	0.003782	0.920856	-4.62	-54.88	0.35	2.4114	2.2008	0.9641	
-0.381006	-0.015494	0.91744	-4.48	-54.46	-0.14	2.4071	2.2128	0.9607	
-0.368562	-0.018788	0.931592	0.21	-53.9	0.77	2.394	2.2049	0.9663	
-0.340502	-0.023302	0.940864	1.68	-53.34	0.91	2.3986	2.2095	0.9695	
-0.324886	-0.018544	0.94855	-0.49	-50.96	1.19	2.3822	2.2092	0.9626999	
-0.303292	-0.012444	0.958676	-0.77	-50.26	1.4	2.3777	2.2046	0.9626	
-0.294142	-0.005978	0.976366	0.35	-49	1.05	2.3659	2.1997	0.9621	
-0.275842	0.01281	0.977708	-0.98	-43.19	2.45	2.3707	2.2028	0.9699	
-0.271328	0.005856	0.969778	-1.33	-39.62	1.33	2.3591	2.2101	0.9678	
-0.26596	0.00061	0.981978	-2.03	-37.73	0.91	2.3486	2.1993	0.969	
-0.236924	0.006588	0.99369	-2.17	-34.86	0.56	2.3328	2.2095	0.9697	
-0.221674	0.00366	0.995032	-3.57	-30.66	0.49	2.3358	2.2111	0.9698	
-0.22448	-0.00183	0.989298	-5.32	-26.81	0.56	2.3316	2.2094	0.9757	
-0.218136	-0.015494	0.9943	-5.6	-24.92	-0.21	2.3167	2.2091	0.969	
-0.213744	-0.019276	0.991738	-5.88	-23.45	-0.49	2.3353	2.2036	0.9638	
-0.200812	-0.027084	0.98759	-5.46	-23.59	-1.12	2.3271	2.2063	0.974	
-0.183244	-0.0366	0.997716	-5.04	-22.82	-1.47	2.3136	2.2015	0.9705	
-0.166164	-0.038308	1.008696	-4.2	-18.69	-1.26	2.3071	2.2026	0.9884	
-0.16226	-0.032574	0.999302	-3.85	-16.52	-0.49	2.3053	2.2057	0.9777	
-0.15433	-0.034038	1.006622	-3.22	-14.77	-0.21	2.308	2.2059	0.9732	
-0.145302	-0.033916	1.015284	-2.66	-12.46	0	2.2994	2.2102	0.9758	
-0.142374	-0.034282	1.013454	-2.59	-9.45	0.21	2.302	2.2027	0.9715	
-0.142374	-0.034892	1.01321	-1.89	-7.35	0.42	2.2998	2.2101	0.9835	
-0.137372	-0.031842	1.01504	-1.05	-5.6	0.49	2.2993	2.2087	0.9743	
-0.141276	-0.031842	1.01992	-0.49	-2.45	0.14	2.2918	2.2055	0.971	
-0.142374	-0.02562	1.014552	-0.7	-0.35	0.14	2.31	2.2149	0.9808	
-0.143594	-0.028304	1.006744	-0.35	1.82	0.21	2.2979	2.2117	0.9742	
-0.142374	-0.039528	1.017846	0.28	3.22	-0.07	2.3007	2.2087	0.9729	
-0.151768	-0.040626	1.031388	1.19	5.88	-0.56	2.2996	2.2056	0.982	
-0.158722	-0.03721	1.041514	1.19	8.89	-0.84	2.2948	2.2101	0.9711	
-0.121878	-0.063928	1.06201	1.12	11.9	-0.91	2.3039	2.2103	0.9776	
-0.144448	-0.04758	1.04859	0.07	18.06	1.4	2.3005	2.2057	0.9683	
-0.146644	-0.036966	1.040172	3.99	21	0.56	2.2992	2.2041	0.9728	
-0.15067	-0.025376	1.033096	6.37	25.69	0.21	2.3097	2.2058	0.9779	
-0.151646	-0.02623	1.031754	5.95	31.29	0.42	2.3156	2.2029	0.9812	
-0.16409	-0.022326	1.037854	8.54	38.99	0.42	2.318	2.2077	0.966	
-0.180072	-0.015494	1.034194	9.24	43.82	0.77	2.3355	2.2096	0.9651999	
-0.193736	-0.007929999	1.023702	8.89	49.07	0.77	2.3325	2.202	0.9667	
-0.20679	-0.000976	1.016626	7.07	54.74	1.12	2.3396	2.2022	0.9608999	
-0.223504	0.001464	1.004426	6.09	60.62	1.05	2.3571	2.195	0.9648	
-0.242536	-0.002196	0.994056	4.41	66.22	0.84	2.3691	2.2043	0.9651999	
-0.268156	-0.002684	0.982954	3.92	71.12	0.84	2.372	2.212	0.9622	
-0.30439	-0.012688	0.975756	-2.8	73.78	1.4	2.3893	2.2018	0.9601	
-0.317566	-0.022814	0.95282	-7.14	75.67	2.17	2.398	2.2066	0.9558	
-0.34282	-0.024522	0.935618	-3.22	82.88	2.1	2.417	2.1994	0.9598	
-0.365268	-0.01952	0.914024	-12.11	88.41	2.59	2.4155	2.2025	0.9582	
-0.376248	-0.032452	0.859734	-8.89	93.52	4.13	2.4436	2.2228	0.9546	
-0.426878	-0.028914	0.864492	4.06	102.76	3.01	2.4552	2.2125	0.9583	
-0.468236	-0.019276	0.853268	7.84	106.05	3.43	2.47	2.2021	0.9666	
-0.481778	-0.025498	0.796538	5.39	110.67	6.86	2.504	2.2058	0.9726	
-0.525698	-0.014396	0.790438	-4.76	108.92	7.91	2.5041	2.2104	0.9726	
-0.570594	-0.002684	0.737124	-15.05	108.85	7.49	2.5246	2.2185	0.9703	
-0.585722	-0.032208	0.726388	-13.58	105.63	8.05	2.5415	2.2171	0.9894	
-0.636962	-0.036356	0.684176	-6.3	108.15	10.36	2.5814	2.2164	1.0003	
-0.664168	-0.016348	0.65636	-3.71	110.04	12.95	2.5946	2.2167	1.0008	
-0.684664	-0.01891	0.617808	0.35	106.68	12.74	2.6009	2.2183	1.0102	
-0.725778	-0.003782	0.594994	1.54	105.98	12.88	2.6258	2.2234	1.0082	
-0.751764	0.01159	0.56059	-5.46	105.98	13.72	2.6378	2.2175	1.0179	
-0.782264	0.008905999	0.53314	-4.2	103.04	15.12	2.6614	2.2134	1.0266	
-0.796782	-0.000854	0.511668	-3.36	100.03	17.78	2.6717	2.2228	1.0224	
-0.81923	0.038308	0.459208	-2.94	100.8	17.78	2.6942	2.2232	1.034	
-0.8418	0.046238	0.435174	-3.01	98.21	17.64	2.7082	2.2217	1.056	
-0.863394	0.047214	0.401868	-0.84	96.88	17.78	2.7245	2.2251	1.0597	
-0.882426	0.055632	0.383202	-2.03	95.13	17.5	2.7248	2.2113	1.0736	
-0.887672	0.051362	0.349164	-7.91	95.2	18.34	2.7414	2.2161	1.0834	
-0.924272	0.06527	0.321348	-9.1	93.45	18.48	2.7505	2.2193	1.0883	
-0.911706	0.061	0.293898	-8.47	93.87	18.13	2.7674	2.2149	1.112	
-0.925004	0.077592	0.249246	-7.77	93.73	18.97	2.7748	2.2196	1.1107	
-0.934764	0.08686399	0.234118	-6.86	94.22	19.46	2.7941	2.2124	1.1208	
-0.942572	0.09272	0.203374	-6.3	94.43	19.25	2.7975	2.2062	1.1362	
-0.949648	0.095892	0.167506	-7.91	93.1	20.3	2.8098	2.214	1.1458	
-0.944768	0.1098	0.13359	-6.3	91.49	21.07	2.8194	2.214	1.1645	
-0.964654	0.1281	0.0976	-0.63	92.33	20.09	2.8372	2.2143	1.1714	
-0.97783	0.141276	0.061976	1.75	91.84	19.74	2.8482	2.2098	1.1917	
-0.978806	0.15616	0.012932	5.88	87.92	19.67	2.8499	2.1991	1.2025	
-0.967948	0.160918	-0.013786	4.2	84.49	20.16	2.8638	2.2007	1.2199	
-0.946476	0.15494	-0.044896	0.84	80.5	19.6	2.8664	2.1948	1.2155	
-0.95099	0.161894	-0.092598	-1.61	77.35	18.06	2.8749	2.1946	1.2448	
-0.975268	0.163114	-0.091378	-4.27	75.81	18.83	2.8825	2.1887	1.2528	
-0.943548	0.195688	-0.130296	11.9	85.61	22.61	2.89	2.1796	1.2639	
-0.961238	0.198982	-0.182024	12.53	93.24	20.86	2.8888	2.1811	1.2684	
-1.005402	0.168238	-0.254858	12.67	86.38	22.4	2.897	2.1703	1.2948	
-1.032852	0.182268	-0.259738	8.61	77	22.68	2.8976	2.1732	1.3085	
-1.00528	0.208498	-0.282918	26.95	71.96	24.01	2.9006	2.1596	1.3164	
-0.96563	0.236924	-0.333792	34.3	69.58	20.72	2.9098	2.1627	1.3259	
-0.935862	0.240828	-0.396134	29.26	70.07	18.06	2.9088	2.1564	1.3396	
-0.959286	0.226432	-0.403332	14.35	70.77	16.73	2.9167	2.1565	1.3537	
-0.969778	0.221796	-0.403088	7.98	71.47	15.47	2.9185	2.1488	1.366	
-1.008208	0.240218	-0.384056	3.29	64.26	16.59	2.9066	2.1455	1.364	
-0.987712	0.219966	-0.38918	9.45	48.72	12.53	2.9191	2.1441	1.3829	
-0.963312	0.218746	-0.424804	10.15	44.59	10.99	2.9254	2.1532	1.3891	
-0.948062	0.22326	-0.425536	2.8	42.42	10.92	2.921	2.1425	1.3951	
-0.929884	0.220088	-0.399672	-2.59	38.29	10.08	2.9182	2.1302	1.4043	
-0.91073	0.221186	-0.406626	5.67	33.25	9.24	2.9231	2.1317	1.4152	
-0.930616	0.235094	-0.411994	10.5	32.13	8.26	2.9215	2.1301	1.4121	
-0.928176	0.244976	-0.399306	10.01	29.89	9.1	2.9234	2.1392	1.4181	
-0.931592	0.241072	-0.386984	9.31	24.78	8.96	2.9264	2.1332	1.4229	
-0.911218	0.225578	-0.398452	10.57	22.89	8.19	2.9185	2.1343	1.4439	
-0.91012	0.20984	-0.429806	13.23	23.52	6.79	2.9195	2.1268	1.4364	
-0.869128	0.239364	-0.454328	11.27	16.1	7	2.9236	2.1178	1.4351	
-0.925614	0.238266	-0.413946	2.59	19.74	5.32	2.933	2.127	1.4446	
-0.89426	0.234606	-0.390522	1.12	20.51	6.93	2.921	2.1207	1.4411	
-0.895114	0.23546	-0.419436	8.89	16.66	6.16	2.9244	2.1283	1.4488	
-0.889624	0.231556	-0.446642	10.5	15.33	5.81	2.9246	2.1282	1.4533	
-0.904264	0.233386	-0.422974	1.89	14.35	5.67	2.9273	2.1223	1.4505	
-0.908778	0.240218	-0.41236	3.43	12.04	5.32	2.9247	2.1282	1.4549	
-0.881572	0.250832	-0.449326	8.75	8.68	5.53	2.9258	2.1192	1.4504	
-0.866322	0.247782	-0.462868	3.57	9.38	5.46	2.9187	2.122	1.4547	
-0.864126	0.249856	-0.47397	6.72	11.06	5.88	2.9257	2.1131	1.452	
-0.869738	0.27084	-0.48617	8.4	10.57	5.95	2.9247	2.1236	1.458	
-0.879254	0.266326	-0.47519	1.26	11.69	5.11	2.9319	2.1132	1.4599	
-0.861808	0.25193	-0.466284	-2.17	11.9	3.99	2.9262	2.1176	1.4611	
-0.831308	0.245952	-0.477996	-2.66	11.69	2.94	2.9233	2.1068	1.4688	
-0.819352	0.263764	-0.489708	-0.35	10.64	2.66	2.9281	2.116	1.4734	
-0.851804	0.272548	-0.493612	-1.61	11.41	3.01	2.9185	2.1053	1.4594	
-0.873032	0.27267	-0.47336	-4.48	11.41	3.43	2.9249	2.1099	1.4703	
-0.856562	0.260836	-0.477386	-6.44	9.66	2.52	2.9204	2.1083	1.4671	
-0.832894	0.250222	-0.464088	-8.47	10.78	2.24	2.9175	2.1006	1.4731	
-0.834114	0.24278	-0.472628	-5.88	12.11	1.96	2.9264	2.1114	1.4704	
-0.83448	0.257664	-0.497272	1.12	8.68	2.59	2.927	2.1219	1.4779	
-0.858636	0.274378	-0.522892	5.11	8.61	3.29	2.9268	2.1174	1.4764	
-0.870592	0.274744	-0.532408	1.68	9.59	3.15	2.9339	2.11	1.4753	
-0.825208	0.265594	-0.517524	-3.71	8.68	2.73	2.9194	2.1051	1.4793	
-0.820816	0.25864	-0.516182	-3.36	10.92	1.61	2.9225	2.1127	1.4808	
-0.8235	0.26047	-0.536434	1.05	10.99	0.63	2.9242	2.1096	1.4886	
-0.862174	0.283772	-0.577914	7.42	5.46	1.05	2.9314	2.1083	1.4858	
-0.843508	0.274866	-0.585722	-0.84	6.51	1.4	2.9225	2.1097	1.4824	
-0.817034	0.25925	-0.541314	-8.96	6.65	1.12	2.9227	2.102	1.4901	
-0.796538	0.264252	-0.52704	-5.88	6.72	-0.28	2.9213	2.1096	1.4884	
-0.79727	0.274866	-0.558638	2.24	4.13	-1.19	2.9287	2.1082	1.4903	
-0.819474	0.273524	-0.571448	3.99	5.18	-0.7	2.9157	2.1094	1.4943	
-0.842288	0.275964	-0.557906	-0.14	2.94	-0.77	2.9275	2.1142	1.4932	
-0.826184	0.266936	-0.536678	-1.96	2.66	-0.35	2.923	2.1049	1.4977	
-0.780434	0.261812	-0.544974	-0.91	2.1	-0.56	2.917	2.1003	1.496	
-0.837896	0.256322	-0.549	-1.05	3.43	-1.96	2.9158	2.1109	1.4958	
-0.864248	0.25864	-0.541192	0.42	0.63	-2.24	2.9259	2.1127	1.4916	
-0.854	0.271206	-0.560712	5.6	-3.71	-2.03	2.9213	2.108	1.49	
-0.832528	0.2745	-0.59231	4.69	-6.65	-2.17	2.932	2.1112	1.498	
-0.840458	0.277794	-0.569008	1.19	-8.61	-2.94	2.9257	2.1066	1.4902	
-0.847412	0.276452	-0.549488	3.71	-9.31	-3.15	2.9209	2.099	1.4855	
-0.842532	0.283528	-0.573888	9.1	-10.01	-3.64	2.923	2.1095	1.4931	
-0.834114	0.27389	-0.604632	5.46	-12.39	-4.34	2.9225	2.1081	1.4839	
-0.834846	0.268522	-0.585844	-4.9	-13.58	-5.46	2.9256	2.1097	1.4871	
-0.833992	0.273402	-0.54534	-9.8	-15.54	-7.07	2.9301	2.1113	1.4888	
-0.84119	0.266448	-0.547414	-7.56	-17.71	-7.49	2.9298	2.1144	1.4796	
-0.838018	0.248392	-0.55266	-4.34	-19.46	-7.56	2.9273	2.1173	1.4871	
-0.858026	0.255956	-0.549488	-2.52	-22.12	-7.49	2.9296	2.1129	1.475	
-0.862418	0.26779	-0.549976	-2.87	-24.57	-7.84	2.9266	2.1144	1.4734	
-0.873642	0.259982	-0.528504	-8.54	-24.36	-8.61	2.9222	2.1189	1.4701	
-0.875106	0.246928	-0.510204	-12.18	-24.36	-9.8	2.9279	2.1206	1.4657	
-0.876936	0.239486	-0.495564	-10.5	-26.11	-10.36	2.9172	2.122	1.4546	
-0.880108	0.247294	-0.49105	-5.88	-30.87	-10.64	2.9302	2.1193	1.4506	
-0.884744	0.247782	-0.4819	-4.69	-38.36	-11.27	2.9273	2.1238	1.4489	
-0.896456	0.233752	-0.465308	-5.95	-37.94	-11.48	2.9268	2.1178	1.4398	
-0.89487	0.238754	-0.456036	-4.41	-41.51	-11.69	2.9265	2.1286	1.4275	
-0.900116	0.249368	-0.452254	-6.3	-44.45	-12.67	2.9265	2.1255	1.4306	
-0.91073	0.241926	-0.439444	-12.67	-45.5	-13.86	2.9204	2.1376	1.4165	
-0.918538	0.219234	-0.407358	-16.45	-45.64	-13.86	2.92	2.1332	1.4104	
-0.920856	0.206912	-0.377468	-17.57	-47.74	-14.49	2.9226	2.1409	1.3983	
-0.921344	0.202276	-0.364902	-14.63	-51.45	-15.47	2.9223	2.1349	1.3953	
-0.944768	0.198128	-0.341478	-12.74	-54.88	-16.38	2.9208	2.1486	1.3859	
-0.950868	0.199714	-0.302194	-5.67	-57.19	-16.8	2.9248	2.1534	1.3754	
-0.965874	0.196908	-0.278648	-5.04	-58.52	-17.36	2.9126	2.1502	1.3642	
-0.962458	0.198982	-0.257054	-2.87	-59.57	-17.22	2.917	2.161	1.3597	
-0.95953	0.205448	-0.24583	0.28	-62.3	-17.08	2.9183	2.1641	1.3521	
-0.97844	0.208986	-0.234728	-3.5	-62.37	-16.94	2.9178	2.1703	1.3368	
-0.97844	0.20374	-0.218868	-4.41	-63.98	-16.24	2.8999	2.1624	1.3331	
-0.989664	0.197274	-0.1891	-8.26	-65.52	-16.94	2.9095	2.1673	1.3167	
-0.981368	0.191052	-0.147132	-8.96	-68.88	-17.99	2.9005	2.1748	1.3055	
-0.946476	0.186782	-0.132126	-8.75	-68.74	-18.69	2.9001	2.1719	1.2995	
-1.002108	0.099552	-0.152134	-18.83	-72.45	-18.97	2.9016	2.1841	1.2933	
-0.970998	0.144936	-0.081008	3.43	-72.17	-18.13	2.8947	2.1751	1.2718	
-0.995764	0.14579	-0.100894	1.19	-70.98	-17.85	2.8947	2.1827	1.2687	
-0.990884	0.140422	-0.048434	5.53	-70.84	-15.12	2.8744	2.1944	1.2676	
-1.012112	0.127246	-0.025742	2.87	-73.92	-15.33	2.8805	2.1765	1.2483	
-1.008452	0.130296	-0.001098	0.21	-74.62	-15.96	2.8775	2.1841	1.2405	
-0.973438	0.128588	-0.033672	13.51	-81.06	-16.38	2.8629	2.196	1.2351	
-0.945622	0.10675	0.070516	2.17	-88.2	-17.71	2.8562	2.2006	1.2119	
-0.941718	0.121634	0.086254	17.64	-76.09	-15.82	2.8542	2.1977	1.2012	
-1.007598	0.100772	0.123342	5.32	-73.01	-12.18	2.8332	2.1989	1.1896	
-1.01992	0.08723	0.136274	0.28	-75.81	-11.83	2.8324	2.2143	1.162	
-0.987956	0.073444	0.1098	-0.42	-80.36	-13.02	2.8279	2.2051	1.1634	
-0.950014	0.05246	0.141398	1.26	-83.86	-14.63	2.8126	2.2019	1.1491	
-0.968436	0.047214	0.200324	4.69	-84.28	-14.91	2.805	2.2124	1.138	
-0.968192	0.053192	0.235948	8.12	-85.26	-13.44	2.7974	2.2047	1.1332	
-0.943914	0.061976	0.255102	8.82	-86.73	-12.53	2.7954	2.2079	1.1194	
-0.925004	0.078202	0.2989	8.12	-89.39	-11.27	2.7704	2.2119	1.1152	
-0.917196	0.080642	0.293166	4.27	-90.37	-11.34	2.7582	2.2163	1.1009	
-0.889868	0.055388	0.320372	7.07	-91.49	-11.48	2.7591	2.215	1.0872	
-0.878034	0.039284	0.3599	7.42	-89.88	-10.78	2.7503	2.2102	1.0899	
-0.89304	0.043676	0.396988	6.72	-88.55	-9.66	2.729	2.2069	1.0708	
-0.887428	0.028182	0.42578	5.67	-91.21	-9.1	2.7127	2.205	1.067	
-0.860832	0.02074	0.443714	5.25	-94.99	-8.61	2.705	2.2156	1.0529	
-0.816912	0.047336	0.465796	10.22	-100.59	-8.89	2.6919	2.2123	1.0569	
-0.787632	0.063318	0.512766	9.31	-99.96	-9.24	2.6751	2.1999	1.0457	
-0.787266	0.060512	0.551196	7	-96.18	-9.03	2.6559	2.2086	1.0356	
-0.784094	0.052094	0.559858	2.66	-94.78	-7	2.6538	2.2103	1.0202	
-0.734196	0.031842	0.583282	1.68	-98.49	-5.74	2.6228	2.2096	1.0143	
-0.702964	0.020984	0.620004	3.08	-100.1	-7.28	2.6047	2.2017	1.0045	
-0.687104	0.032574	0.653554	3.22	-98.98	-8.26	2.5912	2.203	0.9963	
-0.67039	0.037454	0.676002	-0.14	-97.72	-5.95	2.5722	2.2041	0.9954	
-0.634644	0.033306	0.701988	0.07	-97.37	-3.78	2.5614	2.2055	0.9827999	
-0.603046	0.038552	0.736636	-0.28	-97.79	-2.03	2.545	2.2022	0.976	
-0.572058	0.028304	0.754936	-1.96	-95.62	-2.17	2.532	2.2034	0.9784999	
-0.542046	0.02013	0.790316	-0.07	-95.76	-3.08	2.5137	2.1986	0.9655	
-0.528016	0.014762	0.817888	1.4	-94.15	-4.06	2.4964	2.2012	0.9678	
-0.500566	0.027328	0.851194	-5.46	-90.51	-3.5	2.486	2.1979	0.9674	
-0.452864	0.030134	0.86132	-6.37	-85.75	-2.52	2.4716	2.2006	0.9712999	
-0.411872	0.033062	0.858636	-7.56	-79.73	-0.77	2.4584	2.2003	0.9692	
-0.402112	0.02379	0.87962	-10.01	-77.98	-1.61	2.4456	2.2106	0.9730999	
-0.37332	0.027328	0.88328	-8.75	-74.06	-0.28	2.4322	2.2057	0.9695	
-0.347822	-0.001342	0.916098	-7.35	-72.66	-0.77	2.423	2.2026	0.9615	
-0.31842	-0.01281	0.940742	-4.83	-69.58	-0.84	2.4095	2.1963	0.958	
-0.32147	-0.022082	0.948062	-3.36	-65.59	-0.42	2.4011	2.2097	0.959	
-0.31842	-0.001586	0.957334	-3.43	-63	0.42	2.3853	2.2077	0.9659	
-0.279136	0.005856	0.989908	-3.99	-60.48	0.91	2.3747	2.2045	0.9594	
-0.265106	0.004514	1.007476	-2.52	-58.45	0.98	2.3557	2.198	0.9647	
-0.215208	0.012444	1.009428	-3.5	-53.55	1.89	2.3549	2.2069	0.9753	
-0.218258	0.010004	1.010038	-4.83	-48.23	2.03	2.3372	2.2142	0.9668	
-0.197518	0.007929999	1.01321	-5.53	-44.66	2.03	2.3314	2.2095	0.9711	
-0.194102	0.006954	1.006256	-6.37	-40.74	1.68	2.3206	2.2078	0.9585	
-0.178608	-0.00061	1.008818	-7.42	-37.87	0.56	2.3209	2.2062	0.9662	
-0.16531	-0.011712	1.015772	-7.77	-33.46	-0.28	2.3182	2.2046	0.9722	
-0.143228	-0.009272	1.0126	-8.47	-27.02	-0.49	2.3053	2.2118	0.9761	
-0.153842	-0.027084	1.007964	-8.47	-25.76	-2.24	2.3023	2.2133	0.9729	
-0.140422	-0.035868	1.010892	-9.03	-23.66	-2.31	2.2951	2.2146	0.9756	
-0.131272	-0.047092	1.015528	-7.7	-20.65	-2.52	2.2948	2.2071	0.9726	
-0.12688	-0.05551	1.016626	-7.35	-17.85	-2.03	2.2937	2.2115	0.9771	
-0.115046	-0.053802	1.027728	-5.88	-16.24	-2.1	2.295	2.207	0.9772	
-0.10675	-0.047214	1.037732	-4.34	-13.86	-1.82	2.2923	2.2145	0.9784999	
-0.100162	-0.040138	1.034926	-4.27	-10.08	-1.61	2.2893	2.2084	0.9784999	
-0.099064	-0.040504	1.035536	-3.99	-7.28	-1.26	2.2866	2.2129	0.9813	
-0.095648	-0.044652	1.039928	-2.87	-4.97	-1.05	2.2881	2.2114	0.9829	
-0.08967	-0.053436	1.03456	-1.75	-0.21	-0.98	2.2839	2.2143	0.9858	
-0.094184	-0.05612	1.040416	-0.28	3.01	-0.98	2.2979	2.2086	0.9758	
-0.091378	-0.062952	1.056886	0.63	6.58	-0.7	2.2825	2.2142	0.9888	
-0.087962	-0.056974	1.060424	1.12	10.64	-0.84	2.2886	2.2234	0.9888999	
-0.089426	-0.050142	1.06689	0.91	16.94	1.75	2.2888	2.2116	0.9647	
-0.09211	-0.059536	1.077992	4.97	19.32	0.49	2.2953	2.2116	0.9802	
-0.084546	-0.055754	1.089338	6.58	24.57	0.21	2.292	2.207	0.974	
-0.09333	-0.060512	1.084092	7.56	30.31	-0.07	2.3021	2.2118	0.9698	
-0.098332	-0.057462	1.070672	9.03	36.47	0.21	2.3067	2.218	0.97	
-0.103334	-0.051484	1.063474	10.78	42.63	0.42	2.3065	2.2119	0.9685	
-0.116144	-0.043798	1.06018	11.9	49.21	-0.56	2.3256	2.2139	0.9708	
-0.127978	-0.033916	1.043466	11.69	56.14	-0.77	2.324	2.2063	0.9709	
-0.146034	-0.026962	1.034926	10.78	62.93	-0.63	2.3444	2.2083	0.9672	
-0.1708	-0.009638	1.009672	9.31	69.23	-0.77	2.3487	2.2008	0.9705	
-0.20496	-0.008174	0.993446	10.64	74.2	-1.61	2.3556	2.2026	0.9601	
-0.234484	-0.016958	0.97905	8.33	80.92	-1.61	2.3673	2.2013	0.9590999	
-0.277916	-0.015982	0.96624	7.42	86.1	-1.96	2.3821	2.1986	0.9643	
-0.305	-0.015372	0.94794	-1.33	90.51	-1.68	2.3981	2.2005	0.962	
-0.341356	-0.035136	0.915976	1.54	94.85	-1.12	2.4317	2.2074	0.9572999	
-0.369904	-0.024034	0.890234	-2.38	101.36	-0.35	2.4349	2.2104	0.9635	
-0.396988	-0.022448	0.852902	-10.99	106.75	1.33	2.4643	2.2065	0.9679	
-0.440908	-0.030134	0.846314	11.27	109.62	3.43	2.4689	2.2127	0.9695	
-0.482388	-0.035746	0.789462	13.02	121.94	1.96	2.4964	2.2027	0.9693	
-0.52155	-0.014274	0.76982	9.31	125.72	4.48	2.5232	2.2078	0.9765	
-0.553026	-0.00732	0.747738	5.04	122.43	7.35	2.532	2.211	0.9753	
-0.582062	-0.003904	0.709186	-1.75	124.18	10.5	2.5586	2.2055	0.9842	
-0.624396	0.02867	0.65819	-6.09	123.83	10.43	2.5702	2.1996	0.9863	
-0.637938	-0.00122	0.65026	-3.15	121.31	10.64	2.5912	2.2076	0.9932	
-0.674782	0.004026	0.621834	-0.91	125.3	12.53	2.6048	2.2124	1.0029	
-0.69479	0.02562	0.582184	0.07	126.28	14.14	2.6225	2.2082	1.0082	
-0.698328	0.04026	0.545706	2.03	124.81	15.19	2.6551	2.2104	1.0157	
-0.730292	0.055998	0.504226	0.28	124.39	16.31	2.6557	2.2087	1.0325	
-0.77958	0.051728	0.485316	-1.96	124.53	16.45	2.6793	2.2061	1.0382	
-0.796294	0.045872	0.444446	-8.4	124.46	17.22	2.6948	2.2062	1.0586	
-0.799222	0.03904	0.406138	-5.81	121.66	18.97	2.7158	2.2066	1.0702	
-0.837408	0.0488	0.369294	-1.26	119.49	19.25	2.7306	2.2038	1.077	
-0.87169	0.065636	0.308416	-3.22	117.74	19.46	2.7667	2.209	1.0983	
-0.893162	0.080764	0.266692	-1.96	116.83	20.58	2.7792	2.203	1.1187	
-0.923052	0.079666	0.216184	1.12	114.87	22.19	2.7925	2.191	1.1301	
-0.957578	0.085522	0.169092	-0.07	113.33	22.12	2.8078	2.2034	1.1397	
-0.961116	0.107726	0.113826	-1.96	111.58	22.05	2.8078	2.1866	1.1476	
-0.935984	0.131882	0.057828	-3.43	106.82	21.91	2.8282	2.202	1.1726	
-0.921832	0.13176	0.015982	-2.45	104.37	22.33	2.8357	2.196	1.1791	
-0.91683	0.10187	-0.04392	1.19	106.54	22.89	2.8465	2.1991	1.1917	
-0.933422	0.114558	-0.09076799	8.47	105	23.66	2.8542	2.1916	1.2043	
-0.947574	0.155306	-0.157258	17.99	103.74	25.76	2.87	2.1916	1.2324	
-1.016382	0.214476	-0.165798	18.76	101.64	26.88	2.8688	2.1778	1.2463	
-1.020042	0.225944	-0.232532	17.43	90.37	24.78	2.8796	2.1779	1.2604	
-1.035048	0.226066	-0.286944	24.29	88.06	23.73	2.8827	2.1688	1.2683	
-1.050542	0.259494	-0.332694	14	79.24	21.42	2.8961	2.1614	1.2796	
-0.996374	0.231068	-0.341356	-8.61	63.98	18.06	2.8905	2.1536	1.2886	
-1.07482	0.15433	-0.261324	-22.4	57.75	18.2	2.8954	2.1551	1.2995	
-0.969778	0.246928	-0.322324	23.87	69.23	20.23	2.9018	2.1596	1.3103	
-0.968314	0.23546	-0.355752	1.75	53.62	15.26	2.905	2.149	1.3228	
-0.948794	0.22997	-0.397964	25.41	58.59	16.66	2.9052	2.152	1.3258	
-0.985272	0.24888	-0.392474	14.56	60.97	17.01	2.9146	2.1474	1.343	
-1.007964	0.24461	-0.423706	5.25	44.03	12.88	2.9047	2.1365	1.3564	
-1.003572	0.250466	-0.423462	9.24	39.13	13.02	2.9179	2.1337	1.3601	
-0.960872	0.273402	-0.414068	5.53	41.58	14.07	2.9137	2.1244	1.3691	
-0.920246	0.26596	-0.395768	-1.12	42.42	13.09	2.9125	2.1334	1.3705	
-0.968192	0.283406	-0.382714	0.77	36.12	10.36	2.9278	2.1229	1.3911	
-0.98088	0.2867	-0.430416	12.6	28.42	6.86	2.9099	2.1196	1.3858	
-0.959164	0.275842	-0.432856	6.65	26.81	5.67	2.9214	2.1229	1.3802	
-0.94733	0.254004	-0.404064	0.84	29.4	6.3	2.9165	2.1241	1.4012	
-0.874618	0.238754	-0.371612	-4.97	30.17	7.14	2.9155	2.1285	1.4088	
-0.904874	0.230702	-0.33855	-11.41	25.34	6.58	2.9151	2.1286	1.4011	
-0.945866	0.22753	-0.362584	6.23	22.19	6.37	2.9225	2.1166	1.4092	
-0.916708	0.255346	-0.388692	9.31	18.9	4.2	2.9256	2.1151	1.4139	
-0.942694	0.26291	-0.39467	5.74	18.83	2.52	2.9212	2.1165	1.4137	
-0.920002	0.247538	-0.352214	-2.17	11.83	5.6	2.9289	2.115	1.4232	
-0.889258	0.232288	-0.324642	-2.31	13.51	5.95	2.9229	2.118	1.4183	
-0.881206	0.248392	-0.324886	1.26	14.77	3.5	2.9251	2.1178	1.4352	
-0.91439	0.280966	-0.383934	7.7	8.89	1.89	2.9143	2.1147	1.4226	
-0.944158	0.254858	-0.388448	2.8	10.99	2.45	2.9289	2.112	1.4248	
-0.905606	0.225822	-0.394304	-0.28	12.6	2.45	2.9261	2.118	1.4246	
-0.898774	0.256688	-0.388814	2.38	10.43	1.82	2.9234	2.1163	1.4306	
-0.896822	0.263642	-0.38674	3.78	8.26	1.19	2.9202	2.1102	1.4259	
-0.88328	0.252784	-0.406138	3.92	6.3	0.91	2.9191	2.1238	1.4288	
-0.91134	0.256932	-0.42822	8.19	7.98	0.77	2.9216	2.1088	1.426	
-0.875594	0.23546	-0.427488	1.47	6.86	0.91	2.922	2.1163	1.432	
-0.858758	0.229238	-0.419558	0.42	9.52	1.47	2.9144	2.1101	1.4287	
-0.88023	0.270352	-0.414678	1.4	8.47	0.28	2.9147	2.1192	1.4317	
-0.938668	0.28548	-0.453962	5.74	4.41	-1.89	2.9197	2.1145	1.4487	
-0.897676	0.24766	-0.489586	4.48	3.22	-2.45	2.9309	2.1134	1.4355	
-0.895968	0.251686	-0.457988	-1.96	6.86	-0.7	2.9285	2.1224	1.4444	
-0.866078	0.269986	-0.442128	-0.7	4.13	-0.63	2.9223	2.1132	1.4412	
-0.855464	0.26596	-0.44103	1.12	4.48	-0.84	2.9179	2.11	1.4426	
-0.887062	0.280356	-0.479582	3.43	0.42	-0.98	2.9269	2.1163	1.4429	
-0.89121	0.258274	-0.492148	-2.1	0	-1.89	2.9211	2.1115	1.4473	
-0.879864	0.235948	-0.46177	-8.05	2.1	-1.12	2.9237	2.1163	1.4382	
-0.881084	0.251686	-0.455792	-4.2	1.12	-2.03	2.9195	2.1161	1.4426	
-0.891698	0.263886	-0.463112	-0.28	0.42	-1.61	2.9297	2.1164	1.44	
-0.898408	0.261934	-0.468724	-0.7	-1.05	-1.89	2.9253	2.1102	1.4429	
-0.904752	0.241316	-0.468358	-3.08	-3.01	-2.1	2.9239	2.1177	1.4412	
-0.887916	0.246806	-0.463356	-3.71	-6.93	-1.82	2.9313	2.1148	1.4462	
-0.896334	0.260714	-0.466528	-1.75	-10.57	-2.17	2.9297	2.1164	1.44	
-0.905118	0.259372	-0.463722	-1.75	-10.29	-3.08	2.925	2.1041	1.4399	
-0.923784	0.25681	-0.446642	-2.31	-9.52	-3.01	2.9276	2.115	1.4262	
-0.901214	0.249612	-0.440664	-3.22	-11.48	-2.31	2.9233	2.1133	1.4306	
-0.866932	0.235826	-0.445666	-3.08	-12.74	-2.17	2.9178	2.1177	1.4349	
-0.886086	0.24949	-0.441274	-4.06	-14.14	-3.5	2.9245	2.1088	1.4246	
-0.900726	0.256322	-0.424926	-4.06	-15.75	-3.57	2.9248	2.1164	1.4276	
-0.910608	0.25498	-0.425902	-5.04	-17.5	-3.71	2.9229	2.1165	1.4184	
-0.908412	0.249734	-0.434564	-5.18	-18.69	-4.69	2.9189	2.1224	1.4242	
-0.918172	0.255956	-0.424194	-7.84	-18.48	-4.9	2.9184	2.1255	1.412	
-0.922442	0.256078	-0.407602	-9.24	-19.25	-5.18	2.9271	2.1181	1.414	
-0.91134	0.250588	-0.398696	-8.19	-20.37	-5.04	2.9168	2.1179	1.4105	
-0.929518	0.242658	-0.389424	-8.12	-21.7	-5.39	2.9197	2.1241	1.4075	
-0.933178	0.234118	-0.363438	-8.4	-24.36	-6.37	2.9239	2.1242	1.4031	
-0.91439	0.233264	-0.350506	-7.42	-27.3	-6.16	2.9191	2.1242	1.3922	
-0.92842	0.244488	-0.3599	-10.01	-33.95	-8.68	2.9223	2.1349	1.3938	
-0.942328	0.24583	-0.34038	-10.22	-31.99	-8.82	2.9178	2.1318	1.3936	
-0.952698	0.241438	-0.322568	-10.64	-27.16	-8.47	2.9165	2.1332	1.3966	
-0.948916	0.239852	-0.314516	-12.39	-28.91	-9.1	2.9172	2.1319	1.3799	
-0.934276	0.23607	-0.305122	-12.53	-29.89	-9.31	2.9213	2.1352	1.3709	
-0.941352	0.231556	-0.300242	-12.04	-30.38	-10.22	2.9183	2.1351	1.3677	
-0.937692	0.22387	-0.277306	-13.58	-29.68	-10.64	2.9137	2.1381	1.3614	
-0.939766	0.21838	-0.254736	-13.3	-27.51	-9.87	2.9201	2.1427	1.3723	
-0.941718	0.21289	-0.235826	-12.95	-27.58	-9.38	2.9224	2.1414	1.3571	
-0.945866	0.208864	-0.222406	-9.59	-25.9	-8.89	2.9238	2.1567	1.3479	
-0.951722	0.216672	-0.208498	-4.83	-22.82	-8.47	2.9134	2.1443	1.3506	
-0.941596	0.217648	-0.194102	-5.39	-20.51	-8.26	2.9174	2.1475	1.3401	
-0.94977	0.213256	-0.185684	-6.23	-17.64	-8.82	2.9119	2.158	1.3428	
-0.948794	0.19947	-0.172386	-9.17	-17.08	-9.66	2.9056	2.1458	1.3381	
-0.927688	0.17873	-0.166408	-7.98	-16.03	-9.59	2.8999	2.1578	1.3362	
-0.952332	0.174094	-0.145912	-9.87	-16.17	-8.89	2.9038	2.1534	1.3273	
-0.975024	0.171898	-0.15067	-1.05	-13.86	-7.42	2.9068	2.155	1.3289	
-0.978928	0.180926	-0.162016	1.61	-10.92	-6.72	2.9128	2.1582	1.3291	
-0.966484	0.180194	-0.147498	-2.45	-9.1	-5.74	2.9097	2.1581	1.3259	
-0.958066	0.180804	-0.143106	-3.36	-7.21	-5.67	2.9114	2.1673	1.3274	
-0.970388	0.168726	-0.139202	-7.42	-5.6	-4.9	2.905	2.1566	1.3197	
-0.976244	0.158722	-0.127246	-7.98	-4.62	-3.85	2.9097	2.1643	1.3213	
-0.972706	0.1586	-0.125538	-4.69	-4.76	-2.87	2.8992	2.158	1.3194	
-0.976732	0.166774	-0.134566	-1.19	-4.55	-2.1	2.9096	2.1597	1.3229	
-0.991494	0.179828	-0.155062	0.7	-4.69	-1.82	2.908	2.1628	1.3167	
-0.988932	0.17568	-0.16287	1.12	-5.46	-0.63	2.9039	2.1702	1.3195	
-0.971974	0.181658	-0.158112	2.52	-4.69	0.7	2.9097	2.1658	1.3213	
-0.975512	0.183122	-0.158356	0.84	-2.94	1.26	2.9037	2.1657	1.318	
-0.982222	0.186294	-0.162992	0.21	-1.68	0.91	2.9026	2.1655	1.3271	
-0.981002	0.182512	-0.170922	0.14	-1.33	0.77	2.9053	2.1733	1.3164	
-0.974536	0.187148	-0.176046	-0.35	-1.54	0.21	2.9065	2.1612	1.3182	
-0.974536	0.188246	-0.169946	-3.08	-0.84	0.07	2.9063	2.1643	1.312	
-0.989054	0.186904	-0.172508	-3.22	-0.21	0.14	2.9021	2.1611	1.3164	
-0.981856	0.193736	-0.177876	1.68	-0.28	0.49	2.9082	2.1581	1.3244	
-0.984784	0.19947	-0.16653	-2.66	-0.14	0.35	2.9003	2.1566	1.3118	
-0.983076	0.193492	-0.170922	-1.68	1.47	0.35	2.901	2.1656	1.3224	
-0.972584	0.188368	-0.178242	-2.03	0.77	0.91	2.9022	2.1717	1.3148	
-0.985638	0.188246	-0.169092	-4.48	0.91	0.7	2.902	2.1626	1.3149	
-0.99125	0.190808	-0.169214	-3.57	0.77	0.49	2.9019	2.1657	1.3103	
-0.981612	0.192028	-0.177632	0.14	-0.7	0.77	2.9049	2.1642	1.3135	
-0.977952	0.188612	-0.169214	-1.47	-0.77	1.12	2.9034	2.1627	1.3119	
-0.985638	0.185074	-0.161528	-1.89	0.7	1.33	2.9037	2.1641	1.3195	
-0.984784	0.191052	-0.169824	1.05	0	1.47	2.9095	2.1613	1.3183	
-0.98027	0.198616	-0.171288	0.84	-0.84	1.4	2.9055	2.1733	1.321	
-0.980758	0.200202	-0.177876	0.56	-0.63	1.05	2.9153	2.1584	1.3186	
-0.984784	0.202642	-0.17263	-3.08	-1.4	0.7	2.8992	2.1717	1.3116	
-0.99186	0.194102	-0.168116	-3.64	-0.14	0.49	2.8992	2.1686	1.3147	
-0.986126	0.188368	-0.175314	-0.7	-1.26	0.7	2.9081	2.1582	1.3213	
-0.983076	0.196054	-0.179828	0.14	-3.08	0.49	2.9036	2.1642	1.3165	
-0.979782	0.1952	-0.173972	-1.12	-2.59	0.21	2.9068	2.1611	1.3243	
-0.97844	0.193248	-0.16531	-1.12	-1.89	0.21	2.911	2.1658	1.3183	
-0.988688	0.192882	-0.167018	-2.1	-1.26	0	2.9069	2.1657	1.3257	
-0.982344	0.19581	-0.175802	0.35	-1.96	-0.35	2.9051	2.1733	1.3134	
-0.979538	0.19215	-0.1708	0	-3.08	-0.28	2.9064	2.1582	1.3167	
-0.984418	0.190808	-0.160674	-0.98	-1.82	-0.49	2.9004	2.1642	1.3102	
-0.98454	0.201666	-0.16226	1.82	-1.89	-0.21	2.9005	2.1596	1.3149	
-0.980636	0.209596	-0.165798	1.96	-2.24	-0.21	2.8976	2.1671	1.3116	
-0.976854	0.198372	-0.172752	-2.24	-2.45	-0.42	2.9019	2.1672	1.3087	
-0.99247	0.182756	-0.160064	-4.41	-1.61	-0.91	2.9052	2.1672	1.318	
-0.994666	0.185562	-0.153232	-2.38	-2.17	-0.7	2.9063	2.1628	1.312	
-0.983076	0.2013	-0.15921	1.68	-3.57	-0.42	2.9035	2.1672	1.3134	
-0.975268	0.205814	-0.1647	-0.35	-4.83	-0.28	2.9092	2.1583	1.3137	
-0.981612	0.19276	-0.15433	-3.43	-3.5	-0.28	2.893	2.1701	1.3038	
-0.989054	0.181414	-0.148108	-3.92	-2.94	-0.35	2.9031	2.1658	1.3027	
-0.991372	0.186782	-0.156282	-1.26	-3.15	-0.35	2.9017	2.1658	1.3057	
-0.984174	0.202276	-0.15372	-0.63	-3.99	0.07	2.8958	2.1595	1.307	
-0.98088	0.201056	-0.156526	-1.26	-3.92	0.42	2.9062	2.1628	1.309	
-0.987956	0.193614	-0.147986	-3.22	-2.66	0.56	2.9073	2.1629	1.3014	
-0.984418	0.189222	-0.13969	-2.73	-3.01	0.42	2.9075	2.1583	1.3076	
-0.978318	0.1891	-0.140544	-2.52	-2.66	0.28	2.9046	2.1674	1.3043	
-0.983686	0.195444	-0.138592	-3.64	-1.68	0.42	2.9031	2.1612	1.3058	
-0.985516	0.199104	-0.13786	-2.03	-2.59	0.49	2.8946	2.1625	1.3115	
-0.983198	0.199226	-0.138348	-4.2	-2.73	-0.21	2.9017	2.1627	1.3057	
-0.986858	0.19154	-0.141398	-4.13	-2.03	-0.7	2.8986	2.1642	1.3025	
-0.997472	0.174216	-0.15067	-1.4	-2.31	-0.63	2.9001	2.1627	1.3041	
-0.978196	0.176656	-0.140544	2.17	-3.08	0.21	2.9019	2.1672	1.3087	
-0.989908	0.18666	-0.135176	1.4	-3.01	0.21	2.8954	2.1596	1.2979	
-1.005768	0.18483	-0.13542	5.46	-2.52	1.33	2.8928	2.1595	1.3054	
-0.987102	0.19032	-0.124318	12.32	-3.43	3.43	2.9151	2.1736	1.3062	
-0.973316	0.200934	-0.128832	11.48	-5.18	4.69	2.8961	2.1702	1.3085	
-0.98759	0.198494	-0.133834	3.15	-4.2	5.46	2.8998	2.1628	1.2965	
-0.990152	0.184464	-0.137738	-4.76	-2.87	7	2.8985	2.1597	1.3011	
-0.983198	0.18361	-0.144814	-6.86	-3.36	9.03	2.9014	2.1674	1.2965	
-0.987346	0.188124	-0.13481	-10.43	-2.87	10.36	2.8986	2.1581	1.3041	
-0.981002	0.193736	-0.12627	-10.92	-2.38	12.39	2.8954	2.1612	1.2979	
-0.988444	0.207278	-0.12261	-9.03	-2.59	13.79	2.8985	2.1627	1.301	
-1.000888	0.215696	-0.136396	-7.42	-2.8	14.35	2.8954	2.152	1.301	
-0.991982	0.211304	-0.140056	-10.36	-4.97	14.7	2.8896	2.1519	1.3038	
-0.981246	0.218624	-0.122732	-12.67	-5.81	15.26	2.8967	2.1475	1.3011	
-0.983198	0.2196	-0.120292	-13.09	-5.32	16.1	2.892	2.1475	1.2933	
-0.97295	0.226066	-0.123586	-13.79	-6.86	17.29	2.8935	2.1552	1.2887	
-0.977464	0.247416	-0.119804	-13.44	-8.4	18.55	2.8874	2.1429	1.2901	
-0.98332	0.246928	-0.116998	-13.44	-8.68	20.44	2.8949	2.1415	1.295	
-0.991372	0.242536	-0.106994	-14.21	-7.77	22.61	2.9002	2.1402	1.2831	
-0.98088	0.251076	-0.110166	-12.81	-10.64	25.06	2.8922	2.1429	1.2995	
-0.977464	0.249368	-0.126026	-12.88	-12.04	27.02	2.8918	2.1338	1.2965	
-0.962092	0.265594	-0.117608	-13.23	-13.09	28.56	2.8795	2.1261	1.2854	
-0.970876	0.289384	-0.085644	-16.38	-16.03	29.33	2.8899	2.1309	1.2858	
-0.972462	0.298168	-0.075396	-16.45	-17.99	30.94	2.8881	2.1248	1.2812	
-0.972706	0.290238	-0.083814	-17.99	-19.53	33.74	2.888	2.1309	1.2766	
-0.960018	0.288774	-0.08418	-17.64	-20.86	36.54	2.8805	2.1171	1.2794	
-0.956358	0.304024	-0.073566	-16.94	-23.17	38.08	2.8773	2.1125	1.2748	
-0.949404	0.330132	-0.041236	-22.19	-24.08	38.29	2.876	2.1063	1.2809	
-0.931348	0.374906	-0.04941	-19.53	-22.96	37.8	2.8782	2.1051	1.2643	
-0.94428	0.372466	-0.044042	-23.31	-20.79	38.5	2.8708	2.1064	1.2624	
-0.955626	0.361974	-0.02806	-22.82	-22.61	38.43	2.8615	2.0987	1.2529	
-0.926468	0.418216	-0.010248	-17.78	-25.76	38.22	2.8625	2.0897	1.2485	
-0.914024	0.435296	0.014396	-20.37	-25.69	38.01	2.8653	2.0852	1.2472	
-0.90707	0.443836	0.015616	-17.15	-25.55	37.8	2.8446	2.0772	1.2464	
-0.905606	0.448228	0.042578	-18.9	-25.9	37.03	2.8543	2.0654	1.2408	
-0.900482	0.460306	0.051606	-16.17	-22.89	38.15	2.8526	2.07	1.2316	
-0.886818	0.458476	0.057096	-15.47	-23.31	38.57	2.8406	2.0621	1.2296	
-0.881572	0.468236	0.064782	-16.73	-24.22	38.15	2.8363	2.0666	1.2294	
-0.871934	0.484218	0.068686	-13.16	-25.34	38.15	2.8341	2.053	1.2188	
-0.865834	0.49654	0.087474	-9.45	-25.83	37.94	2.8368	2.0501	1.2143	
-0.86498	0.494344	0.104798	-9.52	-25.97	38.08	2.8321	2.0394	1.2127	
-0.846802	0.504104	0.109312	-9.87	-26.04	38.01	2.8233	2.0392	1.2108	
-0.834968	0.527894	0.117242	-9.38	-24.64	38.22	2.8203	2.0361	1.2123	
-0.832894	0.526918	0.129564	-9.24	-24.15	37.87	2.8159	2.0345	1.2121	
-0.829234	0.529602	0.13054	-9.24	-23.31	37.94	2.809	2.0376	1.1859	
-0.816912	0.544608	0.139202	-8.19	-22.19	37.66	2.8033	2.0268	1.1949	
-0.795074	0.554246	0.156282	-8.54	-21.07	36.47	2.7988	2.0237	1.1947	
-0.810202	0.582916	0.158844	-6.3	-20.86	35.07	2.7984	2.0207	1.1871	
-0.80337	0.603412	0.172874	-6.37	-19.53	33.95	2.7953	2.0207	1.1824	
-0.794464	0.603778	0.177632	-7.56	-16.87	32.69	2.7892	2.01	1.1807	
-0.77897	0.615734	0.16287	-9.73	-15.26	31.85	2.7833	2.0022	1.1836	
-0.76311	0.606706	0.169458	-10.71	-17.92	31.01	2.7805	2.0113	1.1819	
-0.75396	0.61488	0.179706	-7.7	-18.34	31.08	2.7772	2.0021	1.1788	
-0.74054	0.62708	0.180316	-7.49	-16.8	31.5	2.771	1.9914	1.1756	
-0.74054	0.650138	0.193492	-7	-15.33	31.43	2.7679	1.9975	1.1678	
-0.745786	0.652822	0.202032	-6.44	-13.72	30.45	2.755	1.9971	1.1748	
-0.741516	0.666974	0.20435	-4.27	-13.23	29.47	2.7621	1.9928	1.1721	
-0.727364	0.66856	0.206058	-2.8	-13.37	28.63	2.7529	1.9789	1.1704	
-0.716628	0.668072	0.20557	-3.5	-14.7	27.58	2.7572	1.9928	1.1597	
-0.7137	0.671732	0.202764	-1.89	-15.47	25.9	2.7556	1.9821	1.1628	
-0.698084	0.683078	0.212768	0.56	-15.96	24.99	2.7611	1.9747	1.1571	
-0.679784	0.683322	0.216062	0.49	-15.68	24.78	2.744	1.9772	1.167	
-0.6954	0.699304	0.225944	1.68	-15.47	24.57	2.7465	1.9774	1.1579	
-0.689056	0.716994	0.22509	2.73	-15.68	23.87	2.7446	1.9638	1.1534	
-0.670268	0.720654	0.217404	0.77	-14.7	23.17	2.7299	1.9619	1.1528	
-0.67771	0.72346	0.20862	-1.26	-12.74	22.12	2.7362	1.9711	1.1591	
-0.672952	0.736758	0.21411	-1.82	-12.46	21.49	2.7285	1.9619	1.1543	
-0.661728	0.756644	0.21899	-2.73	-14.84	20.02	2.7314	1.9665	1.1513	
-0.645624	0.750056	0.232288	-4.34	-16.73	18.27	2.7195	1.9693	1.1462	
-0.64538	0.74237	0.229726	-3.29	-15.47	17.36	2.7207	1.9557	1.1464	
-0.639646	0.756034	0.230458	-1.26	-16.03	16.17	2.7208	1.9496	1.151	
-0.621102	0.744932	0.240096	-0.49	-17.85	14.35	2.7146	1.9495	1.1431	
-0.609634	0.748226	0.25132	-0.14	-18.76	13.72	2.7041	1.9494	1.1381	
-0.608902	0.76372	0.254248	0.35	-17.5	12.74	2.7083	1.9419	1.1384	
-0.601948	0.760304	0.266814	0.91	-17.29	11.62	2.6953	1.9583	1.1331	
-0.596092	0.754326	0.262056	-0.98	-16.87	10.85	2.6993	1.9402	1.1319	
-0.587674	0.766648	0.264008	0.07	-16.45	10.36	2.7024	1.9479	1.1335	
-0.597678	0.759328	0.28548	0.77	-14.42	9.31	2.6893	1.946	1.136	
-0.594506	0.758474	0.296826	0.77	-12.32	7.84	2.7003	1.9343	1.1244	
-0.595482	0.765428	0.286578	0.91	-11.2	6.79	2.6862	1.9445	1.1328	
-0.587674	0.760792	0.285602	0	-10.29	5.46	2.693	1.9402	1.121	
-0.576572	0.764818	0.290238	0.77	-8.54	4.69	2.6851	1.9459	1.1389	
-0.578402	0.755058	0.287432	2.03	-6.3	4.06	2.6758	1.9412	1.1309	
-0.573888	0.739076	0.292678	2.52	-4.76	3.29	2.6815	1.9399	1.1266	
-0.578036	0.74908	0.29585	1.47	-3.64	3.64	2.6917	1.9416	1.1255	
-0.586088	0.775066	0.294752	0.7	-5.04	3.57	2.6837	1.9428	1.1434	
-0.577792	0.76128	0.295484	3.64	-6.72	2.59	2.6862	1.9475	1.1297	
-0.584136	0.753594	0.29341	5.39	-7.07	1.89	2.6858	1.9385	1.1268	
-0.589748	0.767136	0.311832	6.65	-8.12	1.68	2.6841	1.9293	1.1253	
-0.584014	0.777262	0.311832	4.34	-7.42	1.12	2.6708	1.9382	1.117	
-0.573156	0.78751	0.310978	1.4	-6.51	0.14	2.6827	1.9324	1.1237	
-0.577914	0.806908	0.311954	-0.35	-6.37	-2.03	2.6813	1.9399	1.122	
-0.582794	0.809592	0.305366	-3.08	-6.65	-3.99	2.6753	1.9383	1.1187	
-0.562298	0.786168	0.295484	-4.06	-7.84	-6.37	2.6795	1.9384	1.1159	
-0.547048	0.781288	0.310368	-2.52	-7.35	-7.7	2.671	1.9397	1.12	
-0.569008	0.799588	0.309514	-1.68	-3.64	-8.75	2.6695	1.9458	1.1169	
-0.572058	0.793366	0.311832	-3.99	-0.63	-10.22	2.6772	1.9459	1.1248	
-0.575108	0.77104	0.30134	-6.93	0.77	-12.32	2.6743	1.9488	1.1262	
-0.5795	0.793976	0.299022	-5.81	1.33	-14.91	2.6813	1.9445	1.1204	
-0.584014	0.800442	0.308294	-5.32	1.26	-17.64	2.6781	1.9353	1.1189	
-0.58926	0.791048	0.314394	-6.65	1.33	-19.74	2.6858	1.9507	1.119	
-0.584746	0.788242	0.316468	-7.42	2.94	-22.82	2.6813	1.9506	1.1158	
-0.589992	0.772138	0.301462	-8.26	3.92	-25.69	2.6901	1.9554	1.1146	
-0.579622	0.757864	0.30561	-6.37	3.71	-27.93	2.6875	1.9461	1.1268	
-0.585966	0.768478	0.318176	-3.71	4.41	-30.52	2.6858	1.9552	1.1175	
-0.605974	0.737612	0.32147	-0.98	6.93	-35.14	2.6951	1.969	1.1223	
-0.60817	0.740174	0.308172	1.47	7.98	-36.68	2.7038	1.9708	1.1181	
-0.619272	0.724436	0.312442	1.68	5.74	-38.71	2.7056	1.9707	1.1273	
-0.62708	0.725656	0.306586	2.52	6.86	-40.74	2.7067	1.9755	1.1151	
-0.642086	0.721996	0.31049	4.2	7.56	-43.05	2.7158	1.9771	1.1231	
-0.658556	0.699304	0.304878	6.58	7.07	-45.15	2.7307	1.9896	1.1221	
-0.654286	0.681248	0.29768	8.26	6.23	-46.97	2.7161	1.9953	1.1214	
-0.668194	0.68076	0.288774	10.22	7.28	-48.86	2.7311	1.9971	1.1281	
-0.705404	0.668438	0.28121	15.33	7.35	-51.87	2.7296	2.0016	1.1249	
-0.686738	0.672586	0.28548	14.91	8.54	-55.16	2.7477	2.0034	1.1379	
-0.711138	0.651602	0.272792	15.33	10.99	-58.8	2.7432	2.0049	1.1331	
-0.731146	0.623664	0.262666	12.32	10.5	-62.58	2.7434	2.0155	1.133	
-0.744566	0.589748	0.253638	10.29	8.96	-65.38	2.7432	2.011	1.1315	
-0.767136	0.583526	0.258152	14.21	7.98	-67.97	2.7508	2.0172	1.1348	
-0.781044	0.572302	0.258152	14.21	7	-71.4	2.763	2.0341	1.1367	
-0.79178	0.54961	0.2562	12.74	7.49	-74.41	2.7616	2.0371	1.1366	
-0.807396	0.527406	0.254614	13.16	7.14	-77	2.7711	2.0493	1.1475	
-0.889014	0.477874	0.268766	14.35	6.02	-81.2	2.7689	2.0464	1.1322	
-0.922686	0.4209	0.224358	13.79	4.83	-85.05	2.7725	2.0692	1.1367	
-0.903776	0.360632	0.238388	13.09	4.97	-87.43	2.7891	2.0649	1.1512	
-0.872178	0.340624	0.21228	7.14	7.21	-88.76	2.7816	2.0739	1.1416	
-0.88694	0.34404	0.204838	12.04	6.37	-90.02	2.7939	2.0954	1.1434	
-0.903288	0.33611	0.216306	11.13	5.74	-91.98	2.7945	2.112	1.1493	
-0.926834	0.283284	0.208498	9.31	5.88	-93.66	2.8061	2.1184	1.1437	
-0.933544	0.230092	0.202642	10.29	5.53	-94.29	2.8062	2.1184	1.1467	
-0.93452	0.196542	0.189588	12.25	4.76	-94.64	2.8009	2.1318	1.1509	
-0.924394	0.181658	0.208132	15.96	3.5	-94.78	2.7998	2.1424	1.1538	
-0.928542	0.169092	0.216428	13.58	3.01	-95.48	2.8089	2.1624	1.1509	
-0.936228	0.149328	0.214354	5.25	4.69	-96.95	2.8074	2.173	1.1462	
-0.945134	0.124928	0.203496	-1.61	5.04	-98.28	2.8066	2.1896	1.152	
-0.946964	0.087352	0.19764	-4.76	1.75	-99.33	2.8037	2.188	1.155	
-0.953064	0.045872	0.20801	-6.51	-0.35	-100.24	2.8156	2.2065	1.1492	
-0.940742	0.016836	0.209718	-13.72	-5.25	-100.94	2.8013	2.2228	1.1484	
-0.921954	-0.004758	0.255712	-22.12	-7.77	-99.54	2.8061	2.2442	1.1453	
-1.003084	-0.068198	0.177022	32.2	60.76	-101.5	2.8035	2.2517	1.1512	
-0.970876	-0.067832	0.204228	-26.04	13.37	-96.46	2.8067	2.2517	1.1559	
-0.940864	-0.12017	0.202642	-17.15	12.46	-95.2	2.8189	2.2701	1.1577	
-0.947818	-0.167506	0.19703	-19.81	15.82	-92.61	2.8102	2.2806	1.1542	
-0.951722	-0.218136	0.193858	-24.22	18.76	-91.14	2.8054	2.2954	1.1721	
-0.930128	-0.25925	0.180438	-27.02	20.44	-90.72	2.8102	2.3183	1.169	
-0.94428	-0.315492	0.162138	-26.6	19.81	-92.05	2.7942	2.321	1.1698	
-0.966362	-0.37332	0.151158	-18.69	19.81	-91.42	2.8018	2.3363	1.1699	
-0.971486	-0.412848	0.134444	-15.75	19.74	-89.18	2.8065	2.3531	1.1669	
-0.95526	-0.433222	0.118096	-9.94	16.87	-85.33	2.7927	2.377	1.1736	
-0.945622	-0.43493	0.119682	-7.42	16.17	-80.85	2.7839	2.3768	1.1748	
-0.94001	-0.426024	0.118462	-2.1	13.23	-75.67	2.7844	2.398	1.1746	
-0.913658	-0.423706	0.127978	1.75	11.62	-68.6	2.7832	2.3979	1.1821	
-0.897066	-0.42639	0.114924	1.75	10.43	-63.21	2.7729	2.4038	1.1755	
-0.882548	-0.446886	0.113216	2.87	8.05	-61.18	2.7819	2.4085	1.1789	
-0.884012	-0.480924	0.116144	6.44	4.9	-58.45	2.7615	2.4156	1.1764	
-0.870714	-0.493002	0.118584	10.08	3.22	-55.02	2.7634	2.4247	1.1825	
-0.853512	-0.50935	0.1098	8.82	3.29	-52.01	2.7611	2.4321	1.193	
-0.854976	-0.543022	0.114436	6.93	3.08	-50.05	2.7589	2.4338	1.1761	
-0.85095	-0.5551	0.140178	6.79	2.45	-46.9	2.7561	2.4367	1.1775	
-0.830576	-0.537654	0.139812	3.29	4.41	-42.49	2.753	2.4367	1.1728	
-0.820206	-0.540338	0.131882	-0.14	5.95	-42.7	2.7562	2.4382	1.1774	
-0.823866	-0.573034	0.143716	-3.64	6.86	-39.9	2.7348	2.4452	1.1886	
-0.811422	-0.588772	0.138714	-3.78	7.63	-38.57	2.7371	2.4485	1.1719	
-0.82106	-0.59536	0.13115	-4.9	9.31	-36.47	2.739	2.4469	1.1812	
-0.824598	-0.59658	0.12932	-8.96	9.73	-34.02	2.7373	2.4545	1.1734	
-0.811666	-0.608048	0.119682	-8.75	8.26	-31.43	2.7337	2.4649	1.1868	
-0.80032	-0.626104	0.12078	-6.72	7.21	-29.4	2.732	2.468	1.1776	
-0.775798	-0.636108	0.135298	-5.67	7.28	-27.72	2.731	2.4663	1.1913	
-0.769698	-0.612928	0.108214	-8.54	9.87	-25.69	2.7279	2.4632	1.1881	
-0.778116	-0.645258	0.11407	-13.44	12.32	-24.92	2.7193	2.4706	1.1876	
-0.794464	-0.655384	0.097722	-14.7	12.25	-22.4	2.7194	2.4782	1.1876	
-0.773724	-0.672098	0.089548	-12.53	10.71	-21.63	2.7312	2.4815	1.188	
-0.76677	-0.66673	0.084912	-13.09	9.8	-18.41	2.7257	2.4859	1.1923	
-0.760182	-0.669414	0.059536	-11.69	9.73	-16.73	2.7259	2.4873	1.1984	
-0.747494	-0.71675	0.070394	-12.11	9.03	-16.38	2.726	2.4858	1.1999	
-0.733708	-0.694058	0.050508	-10.01	10.22	-14.7	2.7236	2.5008	1.2058	
-0.741028	-0.703818	0.052948	-8.54	9.38	-12.81	2.7145	2.4946	1.2009	
-0.75213	-0.7259	0.04148	-5.88	8.33	-12.32	2.7164	2.4945	1.2116	
-0.744566	-0.72407	0.032818	-2.66	8.19	-10.22	2.7195	2.5007	1.2117	
-0.749324	-0.735172	0.032696	-1.05	7.14	-8.75	2.713	2.5007	1.1962	
-0.740418	-0.73688	0.023546	1.54	5.81	-6.37	2.7089	2.5051	1.202	
-0.724802	-0.742492	0.026718	3.85	6.44	-4.76	2.7151	2.5006	1.2115	
-0.721752	-0.726144	0.022814	6.37	3.15	-3.99	2.7135	2.5006	1.2084	
-0.722484	-0.709308	0.039772	8.82	3.22	-3.43	2.7137	2.499	1.2145	
-0.721752	-0.69723	0.037576	8.47	5.25	-1.82	2.7179	2.5068	1.2054	
-0.726632	-0.684298	0.02989	7.07	0.84	-2.87	2.7268	2.4993	1.212	
-0.728584	-0.70394	0.062342	8.26	3.08	-1.68	2.7149	2.5052	1.2038	
-0.726998	-0.69174	0.040138	2.66	4.13	-0.28	2.7146	2.4977	1.2008	
-0.733098	-0.712236	0.04026	-0.35	3.43	-0.35	2.7089	2.5021	1.2021	
-0.724558	-0.722484	0.044286	0	3.08	0.63	2.7148	2.4976	1.2069	
-0.723216	-0.71553	0.044042	-0.35	3.22	2.38	2.7174	2.5039	1.1948	
-0.72651	-0.703452	0.038186	-1.89	2.66	3.08	2.7131	2.4961	1.2008	
-0.726022	-0.714188	0.044286	-1.47	3.29	4.62	2.7193	2.4962	1.2087	
-0.732854	-0.72712	0.02989	-2.24	4.69	6.23	2.7223	2.5054	1.2057	
-0.750056	-0.720898	0.031598	-4.76	3.92	8.68	2.7197	2.5022	1.2147	
-0.742858	-0.716018	0.030256	-2.59	2.38	9.73	2.7237	2.4978	1.2089	
-0.739564	-0.724436	0.034526	-1.82	3.5	11.27	2.7235	2.4963	1.2058	
-0.752984	-0.724802	0.034404	-2.59	3.36	13.51	2.7283	2.5009	1.2121	
-0.756522	-0.721508	0.02318	-2.38	4.2	16.1	2.7327	2.501	1.2138	
-0.751398	-0.731146	0.029768	-1.33	1.96	18.97	2.7227	2.4976	1.2195	
-0.756034	-0.703818	0.02989	3.01	1.33	22.33	2.7284	2.4963	1.2167	
-0.771894	-0.690398	0.027206	1.68	0.56	24.71	2.7399	2.489	1.2157	
-0.76372	-0.689422	0.00732	0.84	1.12	26.95	2.7394	2.4891	1.2035	
-0.767136	-0.676856	0.025742	2.73	-0.7	29.12	2.7366	2.492	1.2064	
-0.769332	-0.655384	0.032574	2.66	0.42	31.71	2.7398	2.4783	1.2189	
-0.773358	-0.640988	0.024522	0.49	2.03	33.74	2.7469	2.4816	1.2131	
-0.79361	-0.65331	0.02318	-1.47	3.85	35.77	2.7379	2.4784	1.2082	
-0.793488	-0.640988	0.023302	-1.26	2.52	38.15	2.7512	2.4619	1.2211	
-0.781898	-0.602192	0.02562	-0.84	1.4	39.9	2.7581	2.4698	1.2076	
-0.781044	-0.592676	0.019398	-1.61	2.94	40.53	2.7669	2.467	1.208	
-0.805566	-0.601338	0.013786	-1.82	4.69	42.77	2.7587	2.4651	1.2229	
-0.829966	-0.580598	0.02074	-2.66	6.3	45.29	2.764	2.4547	1.2172	
-0.855952	-0.531188	0.02623	-3.92	4.69	48.65	2.7772	2.4489	1.2194	
-0.86132	-0.516548	0.021838	-4.62	3.15	50.26	2.7832	2.4474	1.2257	
-0.871934	-0.541802	0.027206	13.02	2.38	55.09	2.7876	2.4475	1.2259	
-0.851438	-0.506178	-0.00122	-0.77	2.87	56.84	2.7898	2.4325	1.2155	
-0.873276	-0.486658	-0.016104	-6.93	4.83	56.77	2.7958	2.4326	1.2188	
-0.889746	-0.467748	-0.001342	-10.57	3.01	58.38	2.8001	2.4251	1.2206	
-0.908778	-0.452132	0.009516	-11.76	4.41	59.36	2.8015	2.413	1.2254	
-0.916586	-0.421998	-0.020008	-13.09	4.62	60.27	2.8144	2.4057	1.223	
-0.927566	-0.39345	-0.020252	-16.31	3.57	62.37	2.8142	2.3951	1.2246	
-0.933422	-0.385154	-0.01159	-17.08	4.27	63.07	2.8202	2.3952	1.2279	
-0.942206	-0.34587	-0.03355	-17.08	4.48	63.84	2.8334	2.3879	1.2332	
-0.964532	-0.310856	-0.020618	-15.75	5.95	65.1	2.8347	2.3818	1.2318	
-0.983442	-0.25681	-0.01037	-18.2	6.72	65.87	2.8436	2.3744	1.2399	
-0.98698	-0.206546	-0.036356	-21.21	9.87	66.92	2.8407	2.3758	1.2397	
-0.980026	-0.193858	-0.032086	-24.71	11.27	67.2	2.8407	2.356	1.2491	
-0.960018	-0.173606	-0.047946	-28.7	12.18	67.2	2.8429	2.3471	1.2356	
-0.974048	-0.16775	-0.027938	-36.47	17.78	68.25	2.8554	2.3533	1.2513	
-0.976854	-0.13908	-0.050996	-38.29	19.11	68.32	2.8627	2.3428	1.2578	
-0.963922	-0.07905599	-0.060512	-42.77	26.25	70.35	2.8734	2.3353	1.2721	
-0.962946	-0.064538	-0.06039	-43.4	27.72	68.04	2.8699	2.3094	1.2722	
-0.97234	-0.073688	-0.066368	-45.71	27.79	65.1	2.879	2.305	1.2833	
-1.009306	-0.065514	-0.073322	-41.3	28.7	63.56	2.8926	2.3067	1.2915	
-1.01565	-0.05795	-0.098698	-41.16	26.46	62.16	2.8911	2.3021	1.2945	
-1.017968	-0.030256	-0.127734	-37.03	21.49	61.25	2.895	2.2794	1.2935	
-1.03517	-0.024766	-0.139324	-41.3	12.81	59.92	2.8954	2.2854	1.2995	
-1.015894	-0.050874	-0.091256	-35.07	20.79	61.25	2.8897	2.2822	1.3054	
-1.016992	0.005002	-0.13969	-27.02	4.06	61.32	2.8823	2.2775	1.3066	
-1.007842	0.053802	-0.13847	-19.11	-1.82	61.81	2.8982	2.2596	1.3106	
-1.004914	0.044408	-0.143228	-17.22	-4.9	65.45	2.8975	2.2476	1.3015	
-0.952454	0.072712	-0.08601	-28.42	-22.12	75.53	2.9004	2.2415	1.3048	
-1.07726	0.069662	-0.13786	-4.27	-27.09	59.92	2.9046	2.2219	1.3098	
-1.028704	0.104676	-0.100162	-26.6	-19.95	65.31	2.9055	2.2236	1.2961	
-1.014918	0.07905599	-0.093086	-20.37	-15.54	68.67	2.9011	2.2174	1.299	
-1.009306	0.07905599	-0.101626	-16.38	-19.32	71.4	2.8948	2.2036	1.2943	
-0.993934	0.109312	-0.101504	-13.3	-23.52	74.34	2.893	2.1945	1.2913	
-0.973194	0.162992	-0.101748	-7.63	-25.13	77.98	2.8914	2.193	1.2882	
-0.955016	0.222528	-0.095404	-3.08	-26.67	84.84	2.8845	2.158	1.2837	
-0.947696	0.252662	-0.097356	-4.9	-28.35	87.22	2.89	2.1522	1.2779	
-0.950746	0.294752	-0.048678	-8.96	-29.54	85.82	2.8837	2.1369	1.2748	
-0.949892	0.354532	-0.016348	-10.57	-35.7	84.98	2.8759	2.1246	1.27	
-0.920734	0.406748	-0.008905999	-8.05	-41.79	87.22	2.8799	2.1142	1.2673	
-0.905484	0.437492	-0.016836	-6.51	-38.57	90.3	2.8707	2.0943	1.2656	
-0.884256	0.432978	-0.013298	-16.45	-38.71	89.46	2.8685	2.0913	1.2503	
-0.867298	0.444324	0.000244	-15.82	-37.52	87.64	2.8593	2.0745	1.2501	
-0.855464	0.462502	0.004758	-14.42	-38.85	85.75	2.8516	2.0637	1.2468	
-0.856074	0.53375	0.03172	-16.66	-36.47	82.25	2.845	2.0577	1.2314	
-0.844362	0.578646	0.062952	-19.88	-32.9	78.96	2.8332	2.0437	1.2356	
-0.830088	0.605242	0.079422	-18.9	-33.67	74.55	2.831	2.0316	1.225	
-0.801784	0.610366	0.079666	-22.19	-35.07	70.56	2.8283	2.0285	1.2325	
-0.77958	0.64111	0.094794	-17.92	-35.28	68.53	2.8101	2.0221	1.2211	
-0.764452	0.668072	0.12017	-13.16	-35.42	65.1	2.8079	2.0177	1.2043	
-0.732366	0.675026	0.120658	-13.58	-33.25	58.87	2.7976	2.0098	1.2085	
-0.731024	0.68076	0.124318	-17.43	-31.85	53.62	2.7987	2.0008	1.2041	
-0.722606	0.675148	0.12383	-21	-30.17	49.77	2.7796	1.9958	1.2033	
-0.694668	0.661118	0.142496	-19.67	-27.72	46.69	2.7759	1.9899	1.188	
-0.679906	0.676246	0.169458	-16.17	-29.26	43.82	2.7678	1.9807	1.174	
-0.686128	0.686982	0.175802	-12.53	-26.81	42.49	2.7667	1.9791	1.1847	
-0.694546	0.695766	0.188734	-8.82	-24.5	42.14	2.7648	1.9761	1.1755	
-0.68198	0.733098	0.221674	-8.05	-21.07	41.58	2.76	1.9685	1.1708	
-0.667828	0.755302	0.243024	-4.55	-18.06	39.06	2.7541	1.9668	1.169	
-0.630008	0.744444	0.235216	-2.03	-17.43	36.54	2.742	1.9636	1.1625	
-0.616466	0.75152	0.233386	-3.43	-13.79	34.72	2.735	1.9679	1.1667	
-0.611952	0.745786	0.224236	-3.43	-10.57	33.53	2.7361	1.9589	1.1638	
-0.605364	0.765794	0.227286	-3.22	-9.87	32.2	2.7327	1.9437	1.1608	
-0.593408	0.76494	0.223504	-5.11	-11.13	29.96	2.7272	1.9465	1.1666	
-0.593408	0.777872	0.221674	-3.64	-9.73	29.4	2.7312	1.9437	1.1592	
-0.608048	0.792512	0.237168	-7.07	-12.88	27.72	2.7179	1.9404	1.1571	
-0.593408	0.784948	0.23302	-3.78	-11.2	26.53	2.7254	1.942	1.1605	
-0.59353	0.798856	0.244976	-5.81	-10.78	25.27	2.7148	1.9419	1.1524	
-0.590358	0.821426	0.260104	-5.46	-9.1	23.17	2.709	1.9387	1.1552	
-0.57035	0.817034	0.26352	-5.74	-9.03	21.21	2.7115	1.9373	1.1462	
-0.551318	0.782386	0.240828	-4.34	-6.93	19.6	2.7031	1.9309	1.1581	
-0.551318	0.787876	0.252174	-6.02	-6.09	18.34	2.7056	1.9189	1.1538	
-0.540704	0.80764	0.270596	-5.25	-7.35	17.29	2.6966	1.9264	1.1457	
-0.551318	0.815814	0.259372	-1.54	-6.86	16.8	2.6924	1.9277	1.15	
-0.534482	0.816912	0.239852	-0.63	-5.39	15.4	2.6878	1.9231	1.1468	
-0.541924	0.842898	0.251076	-4.34	-5.88	14.14	2.6982	1.9279	1.1472	
-0.518744	0.85766	0.257176	-3.92	-5.25	12.67	2.6925	1.9323	1.1485	
-0.506422	0.85278	0.26291	-8.61	-3.15	11.55	2.6923	1.9201	1.1501	
-0.531066	0.842288	0.261812	-9.52	-1.54	10.15	2.6877	1.9262	1.1422	
-0.527772	0.85949	0.26657	-10.5	-3.64	7.42	2.6936	1.9278	1.1425	
-0.503494	0.84668	0.2684	-11.97	-2.59	5.81	2.6952	1.9248	1.1487	
-0.513742	0.838872	0.269986	-14.91	-0.84	3.92	2.677	1.92	1.1342	
-0.524844	0.838994	0.270108	-15.47	-1.47	2.52	2.6889	1.9232	1.1378	
-0.514352	0.838872	0.291458	-18.76	-1.54	1.05	2.6877	1.9292	1.1407	
-0.5063	0.823988	0.292434	-15.33	-1.75	-0.42	2.6845	1.9292	1.1345	
-0.503128	0.79422	0.283406	-11.69	-2.17	-1.54	2.6916	1.931	1.1287	
-0.49166	0.807518	0.308172	-12.18	-3.36	-0.07	2.6861	1.9369	1.1344	
-0.515206	0.814716	0.307318	-8.05	-2.87	-2.52	2.6784	1.9292	1.1281	
-0.499346	0.811666	0.32696	-9.87	-3.01	-3.36	2.686	1.9293	1.1345	
-0.521428	0.792512	0.313418	-4.27	-1.12	-5.11	2.6827	1.9415	1.119	
-0.521916	0.790682	0.328302	-6.23	-1.33	-6.09	2.6856	1.9324	1.1253	
-0.507764	0.7991	0.355996	-5.95	-0.56	-7	2.6861	1.9475	1.1282	
-0.506788	0.795074	0.323788	0.91	2.66	-7.91	2.68	1.9383	1.1265	
-0.511668	0.825696	0.316468	-2.45	1.96	-9.1	2.6888	1.9416	1.1254	
-0.532286	0.831308	0.333914	-4.83	0.98	-10.64	2.689	1.94	1.1315	
-0.555344	0.816912	0.320982	-1.89	0	-13.58	2.6931	1.9478	1.1209	
-0.53314	0.790804	0.31415	-4.2	0.56	-15.82	2.6757	1.9443	1.1263	
-0.5124	0.790316	0.36722	-9.1	3.36	-16.45	2.6902	1.9493	1.1192	
-0.542046	0.786778	0.36234	-1.75	7.28	-18.41	2.6893	1.946	1.1345	
-0.55937	0.779214	0.313662	6.23	7	-21.7	2.6967	1.9507	1.1347	
-0.545584	0.793488	0.309636	6.72	5.04	-23.73	2.6982	1.9538	1.1348	
-0.54717	0.80276	0.326594	3.78	6.02	-26.32	2.7085	1.9525	1.1352	
-0.57279	0.785436	0.31781	4.97	6.86	-30.1	2.7056	1.9494	1.1382	
-0.587186	0.782386	0.301218	9.59	5.32	-33.25	2.707	1.9418	1.1414	
-0.585478	0.792634	0.319152	5.81	5.04	-34.93	2.7132	1.9617	1.1384	
-0.576572	0.75152	0.312442	5.11	10.57	-36.68	2.7161	1.9709	1.1338	
-0.585844	0.738222	0.303292	10.08	9.24	-39.62	2.7134	1.9738	1.1367	
-0.602314	0.72712	0.286944	17.22	8.54	-41.37	2.7235	1.965	1.1388	
-0.620736	0.740052	0.254248	25.9	4.76	-44.24	2.7295	1.9712	1.139	
-0.634278	0.725656	0.258762	24.85	6.65	-45.57	2.7333	1.9863	1.1512	
-0.62159	0.731024	0.286212	24.99	9.38	-46.41	2.7344	1.9788	1.1467	
-0.632082	0.736392	0.27572	34.72	11.2	-48.02	2.7373	1.9773	1.1484	
-0.685152	0.720654	0.223992	42.21	13.79	-50.4	2.745	1.9926	1.1486	
-0.700524	0.706014	0.19947	38.99	15.4	-52.85	2.7451	1.9896	1.1516	
-0.678442	0.71736	0.21838	32.97	17.99	-55.72	2.7572	1.9867	1.1629	
-0.71065	0.708454	0.224114	34.3	16.87	-59.71	2.769	1.9976	1.1602	
-0.720776	0.698328	0.192882	37.24	16.17	-64.26	2.7665	1.9929	1.1723	
-0.724924	0.674172	0.180316	36.68	16.24	-65.38	2.7757	2.0021	1.1787	
-0.75213	0.665022	0.155794	41.86	14.63	-68.81	2.7787	2.0067	1.1773	
-0.783118	0.677222	0.133346	35.91	22.68	-81.48	2.7893	2.0084	1.1853	
-0.7442	0.67222	0.1342	19.74	12.74	-84	2.8061	2.0223	1.195	
-0.81191	0.606096	0.144448	6.51	10.01	-89.39	2.8028	2.0376	1.178	
-0.804834	0.556808	0.165798	9.8	10.71	-91.49	2.811	2.0421	1.1966	
-0.821426	0.539606	0.164334	18.62	9.66	-95.69	2.8123	2.0453	1.1905	
-0.825696	0.514718	0.15128	20.65	9.31	-100.31	2.8196	2.0652	1.1799	
-0.866078	0.465796	0.128588	16.38	10.99	-105.91	2.8252	2.0788	1.2013	
-0.931592	0.43005	0.138836	11.9	14	-109.2	2.8282	2.0849	1.1999	
-0.949648	0.340258	0.11285	7.42	16.03	-114.31	2.8316	2.0986	1.2029	
-0.898286	0.265106	0.085034	11.83	17.85	-117.25	2.8454	2.1369	1.1985	
-0.885964	0.244244	0.077104	14.42	21.28	-119.7	2.85	2.1476	1.1986	
-0.8845	0.252174	0.052338	26.74	21.56	-121.73	2.8522	2.1642	1.2061	
-0.93391	0.191662	0.06344	19.81	24.92	-120.96	2.8567	2.175	1.2031	
-0.939644	0.148108	0.050142	17.92	22.19	-125.16	2.8558	2.1855	1.2121	
-0.922808	0.069052	0.016714	1.19	20.23	-131.39	2.8653	2.216	1.2137	
-0.944524	0.016348	0.0366	-7.35	24.22	-136.78	2.8643	2.2296	1.2165	
-0.92598	-0.016958	0.027328	0.07	25.41	-137.83	2.8625	2.2445	1.2346	
-0.936594	-0.002318	0.043188	5.04	20.02	-129.78	2.8608	2.2628	1.2206	
-0.90585	-0.118462	-0.016104	24.78	47.25	-134.89	2.8629	2.2764	1.2281	
-1.059448	-0.272792	0.000488	-6.23	24.57	-121.17	2.871	2.3008	1.2328	
-0.955382	-0.30744	0.048678	-3.92	28.49	-123.62	2.8482	2.3123	1.2423	
-0.923784	-0.248636	-0.072468	2.31	27.58	-122.57	2.8558	2.3368	1.2363	
-0.965386	-0.306464	-0.04392	-5.04	29.12	-119.84	2.8473	2.3472	1.2373	
-1.007842	-0.401624	-0.032696	-6.93	26.11	-115.43	2.8478	2.3593	1.2433	
-0.948672	-0.449448	-0.10248	2.17	20.72	-105.63	2.8494	2.3715	1.2402	
-0.938668	-0.430782	-0.052582	8.05	17.01	-99.68	2.837	2.3862	1.2486	
-0.959896	-0.44652	-0.01403	11.34	12.6	-92.26	2.8271	2.4042	1.2479	
-0.930738	-0.457866	-0.036844	14.7	4.34	-86.52	2.8216	2.4162	1.2491	
-0.893284	-0.481534	-0.024522	12.04	2.45	-80.85	2.8142	2.4267	1.2426	
-0.859368	-0.485926	-0.01891	5.11	0.63	-74.34	2.8105	2.4371	1.2529	
-0.834724	-0.512766	-0.023546	6.37	0.84	-71.61	2.8019	2.4399	1.2556	
-0.831918	-0.556808	-0.010126	7.35	-4.13	-70.07	2.787	2.4564	1.241	
-0.817766	-0.55632	-0.004758	5.25	-5.11	-64.75	2.7856	2.4579	1.2425	
-0.795806	-0.581574	-0.031476	10.85	-6.16	-63.28	2.774	2.4713	1.2357	
-0.811544	-0.611708	0.005368	3.29	-6.02	-58.73	2.7666	2.4697	1.2354	
-0.798246	-0.64904	-0.005368	6.65	-6.65	-53.69	2.7682	2.4819	1.2323	
-0.781288	-0.62159	-0.01281	7.91	-2.45	-49.35	2.7568	2.4846	1.2379	
-0.792756	-0.630252	-0.008905999	-3.01	-0.42	-44.87	2.7554	2.4906	1.2362	
-0.817034	-0.67771	-0.013908	-4.48	0.91	-41.3	2.7494	2.4951	1.2313	
-0.788364	-0.69235	-0.020374	-3.85	0	-36.96	2.7449	2.4935	1.2296	
-0.773114	-0.675148	-0.027084	-2.8	2.17	-32.97	2.7469	2.4934	1.2419	
-0.783118	-0.6954	-0.026962	-8.54	2.1	-28.98	2.7455	2.4994	1.2402	
-0.787388	-0.720776	-0.023546	-5.88	2.03	-23.52	2.741	2.5131	1.2292	
-0.766648	-0.719434	-0.042944	-2.66	-0.21	-20.37	2.7408	2.504	1.2293	
-0.750422	-0.719922	-0.037088	-1.68	0.91	-15.47	2.7397	2.5084	1.2368	
-0.762256	-0.742858	-0.03477	-1.33	-1.12	-12.81	2.7416	2.5038	1.2492	
-0.755668	-0.742614	-0.040504	2.24	-3.64	-9.8	2.7312	2.5112	1.241	
-0.731512	-0.704062	-0.026352	4.13	-3.92	-7.49	2.7312	2.5219	1.2363	
-0.73688	-0.707234	-0.003538	3.64	-2.17	-6.16	2.7294	2.5021	1.238	
-0.731878	-0.707722	-0.006832	1.47	-1.54	-4.06	2.7345	2.5143	1.2487	
-0.7198	-0.70821	-0.014396	-1.26	-0.21	-2.45	2.7269	2.5172	1.2407	
-0.70577	-0.704184	-0.02318	-1.26	1.89	-1.54	2.7281	2.5142	1.2363	
-0.706502	-0.70455	-0.017812	-0.77	1.61	-2.38	2.7267	2.5142	1.2362	
-0.729804	-0.707844	-0.019398	-0.91	1.75	-2.03	2.7235	2.5111	1.2331	
-0.732854	-0.70821	-0.012444	-1.47	2.73	-0.07	2.7326	2.5174	1.2364	
-0.728706	-0.70272	-0.031598	-1.33	2.45	0.77	2.7224	2.5156	1.2375	
-0.738222	-0.718702	-0.017812	-1.26	1.12	0.84	2.7302	2.5141	1.2516	
-0.737246	-0.725656	-0.020984	0.42	1.61	1.68	2.7326	2.5128	1.238	
-0.73871	-0.70211	-0.017324	0	2.1	2.8	2.735	2.5115	1.2275	
-0.75091	-0.708698	-0.017812	1.26	3.08	4.27	2.7251	2.5081	1.2362	
-0.745176	-0.690398	-0.030378	2.94	1.89	5.32	2.7311	2.5143	1.2379	
-0.748348	-0.68259	-0.014884	2.38	1.33	4.76	2.7238	2.5126	1.2376	
-0.749202	-0.690154	-0.017812	2.73	2.73	5.32	2.7344	2.5143	1.2472	
-0.756156	-0.699182	-0.011346	0.7	3.08	7	2.7353	2.5083	1.2366	
-0.748104	-0.708698	-0.02562	-1.54	4.97	9.03	2.7192	2.5141	1.2328	
-0.745176	-0.686616	-0.035502	-1.19	5.88	10.36	2.7281	2.5143	1.2347	
-0.747982	-0.673074	-0.037088	-0.28	6.16	10.85	2.7444	2.5069	1.2447	
-0.770064	-0.677832	-0.009881999	-0.77	4.76	11.69	2.7333	2.5157	1.2532	
-0.757864	-0.690154	-0.038064	1.12	7	13.72	2.7431	2.5099	1.2461	
-0.76433	-0.718702	-0.028792	0.14	7	16.73	2.74	2.5069	1.243	
-0.756766	-0.689788	-0.040504	2.8	7.56	19.11	2.7504	2.507	1.248	
-0.752618	-0.64355	-0.023912	0.84	9.45	20.37	2.753	2.5057	1.2405	
-0.765672	-0.63562	-0.038064	1.47	13.09	23.17	2.7515	2.5011	1.242	
-0.768478	-0.621346	-0.064416	4.69	9.59	27.37	2.7514	2.4919	1.2452	
-0.785558	-0.635742	-0.058926	-2.73	12.18	31.57	2.7515	2.498	1.2451	
-0.789096	-0.625494	-0.060634	-4.69	15.82	32.97	2.7633	2.4891	1.2503	
-0.78568	-0.607072	-0.061732	-7.35	18.83	34.3	2.766	2.4862	1.2474	
-0.803736	-0.584502	-0.055022	-9.1	19.53	37.73	2.7749	2.4787	1.2539	
-0.792512	-0.568764	-0.087474	-20.37	21.77	45.57	2.7827	2.4849	1.2618	
-0.820816	-0.560712	-0.106506	-23.31	18.69	51.45	2.7813	2.4757	1.268	
-0.812886	-0.52948	-0.100528	-20.65	20.51	54.81	2.7931	2.4683	1.2747	
-0.87413	-0.562298	-0.116388	-27.3	24.01	66.36	2.8067	2.4807	1.2782	
-0.901702	-0.537532	-0.175436	-25.97	22.96	59.43	2.8107	2.4672	1.277	
-0.873154	-0.5368	-0.13237	-29.89	14.77	57.89	2.8124	2.4595	1.2863	
-0.881084	-0.520696	-0.146278	-30.8	16.59	59.78	2.8123	2.4458	1.291	
-0.891332	-0.479948	-0.182756	-32.69	15.54	62.58	2.8201	2.4459	1.302	
-0.909022	-0.467748	-0.190442	-27.58	16.8	64.05	2.8302	2.4507	1.2963	
-0.89975	-0.47824	-0.195322	-33.46	6.09	65.38	2.8407	2.4387	1.3091	
-0.910364	-0.458476	-0.196176	-32.48	5.95	67.41	2.8448	2.4221	1.3109	
-0.935496	-0.442128	-0.217282	-28.21	3.36	67.97	2.8491	2.4237	1.3096	
-0.944524	-0.438712	-0.219844	-27.37	-4.76	69.23	2.8596	2.4132	1.3208	
-0.944768	-0.41602	-0.208986	-23.1	-6.93	72.45	2.858	2.4071	1.3208	
-0.944768	-0.385154	-0.205692	-20.72	-9.31	74.48	2.8726	2.3907	1.3293	
-0.94611	-0.332694	-0.20618	-17.01	-10.5	74.83	2.8741	2.3953	1.3278	
-0.973682	-0.321958	-0.209108	-19.18	-11.13	79.94	2.875	2.365	1.3297	
-0.951234	-0.287676	-0.197518	-26.39	-18.13	82.32	2.8852	2.3729	1.3239	
-0.962336	-0.249246	-0.196176	-18.34	-15.19	82.95	2.8979	2.3413	1.3294	
-0.977586	-0.183854	-0.212158	-15.68	-18.41	84.91	2.8884	2.3412	1.3123	
-0.993202	-0.159942	-0.154696	-30.17	-19.6	85.68	2.8925	2.3216	1.3157	
-0.998936	-0.125782	-0.166164	-24.85	-18.48	86.94	2.8966	2.3141	1.3144	
-0.999546	-0.066734	-0.160552	-20.02	-21.28	87.92	2.8934	2.2989	1.316	
-1.007598	0.003172	-0.149694	-14.35	-24.43	90.02	2.8987	2.2885	1.3072	
-0.990152	0.044774	-0.121268	-16.66	-27.37	91.84	2.9013	2.2749	1.3075	
-0.953308	0.055144	-0.122122	-20.44	-27.02	94.85	2.8937	2.2595	1.3089	
-0.953308	0.07259	-0.106872	-22.05	-27.37	96.39	2.8963	2.246	1.3076	
-0.950746	0.084546	-0.100528	-24.01	-29.26	97.72	2.9106	2.2418	1.3037	
-0.94306	0.149084	-0.083326	-21.35	-28.84	100.66	2.8998	2.2219	1.2989	
-0.928664	0.202032	-0.06588	-24.22	-28.91	101.99	2.8981	2.2112	1.2989	
-0.92903	0.24522	-0.050264	-17.99	-33.11	103.6	2.8977	2.19	1.3007	
-0.922442	0.262422	-0.058804	-7.28	-34.65	104.44	2.8912	2.1778	1.2929	
-0.89548	0.303048	-0.045018	-4.9	-33.04	106.05	2.8876	2.1611	1.2853	
-0.869982	0.362096	-0.036356	-4.97	-30.73	105.7	2.8781	2.1459	1.276	
-0.891088	0.438712	-0.036478	-4.83	-27.44	102.97	2.8807	2.1368	1.2731	
-0.89182	0.462868	-0.043066	-13.72	-24.99	99.19	2.8746	2.1139	1.2792	
-0.866688	0.429562	-0.005978	-28.42	-23.94	93.52	2.8662	2.0927	1.2639	
-0.856196	0.451156	0.02013	-28.49	-26.6	88.34	2.8629	2.0972	1.2545	
-0.857294	0.526918	0.031232	-19.6	-23.38	83.3	2.8509	2.0696	1.2604	
-0.85583	0.634034	0.063074	-14.07	-23.17	77.77	2.8566	2.0682	1.2576	
-0.85888	0.638426	0.05124	-14	-24.43	74.34	2.8459	2.0513	1.2558	
-0.821548	0.610366	0.033184	-16.59	-22.05	73.43	2.841	2.0483	1.245	
-0.811666	0.575474	0.011712	-15.26	-22.33	72.17	2.8376	2.0362	1.2404	
-0.790926	0.612318	0.030256	-15.12	-24.92	69.65	2.8283	2.0315	1.2309	
-0.77165	0.653066	0.078446	-21.77	-31.71	63.77	2.8162	2.0146	1.2291	
-0.780434	0.624152	0.081496	-20.02	-34.65	57.75	2.8145	2.0161	1.2229	
-0.750666	0.613294	0.091866	-13.02	-33.88	56.63	2.8129	2.0085	1.2244	
-0.74847	0.679662	0.118096	-4.06	-32.97	56.77	2.8023	2.0053	1.2164	
-0.74237	0.70577	0.126148	-1.47	-30.31	55.37	2.8002	1.9947	1.2088	
-0.718214	0.703696	0.12322	-4.34	-29.61	52.29	2.7899	1.9823	1.2131	
-0.69296	0.692228	0.123952	-8.89	-30.94	50.12	2.7778	1.9745	1.2065	
-0.678076	0.6954	0.139202	-9.03	-34.51	48.23	2.7673	1.9713	1.2031	
-0.661484	0.729926	0.15006	-5.18	-35.91	46.83	2.7714	1.9638	1.2003	
-0.67405	0.763476	0.16226	-1.54	-34.65	44.94	2.7698	1.9654	1.1972	
-0.670146	0.74664	0.194468	-4.83	-30.17	40.39	2.7578	1.9606	1.1921	
-0.65575	0.726022	0.192516	-1.75	-26.46	38.08	2.7415	1.9496	1.1915	
-0.64843	0.739076	0.191052	4.55	-23.94	37.38	2.7394	1.9467	1.1778	
-0.638426	0.74115	0.150792	11.69	-23.24	34.51	2.7347	1.9345	1.1777	
-0.61854	0.764086	0.160308	7.49	-23.94	32.13	2.7303	1.9298	1.1791	
-0.61549	0.78812	0.191906	7.28	-23.66	30.1	2.7197	1.9327	1.1695	
-0.593774	0.815936	0.211182	9.66	-21.28	28.49	2.7201	1.925	1.1833	
-0.592432	0.844728	0.198006	13.23	-17.78	26.04	2.7078	1.9248	1.169	
-0.585722	0.864492	0.16958	11.13	-15.05	23.59	2.711	1.9279	1.1737	
-0.556076	0.853878	0.175924	3.08	-12.39	21.21	2.711	1.9264	1.1752	
-0.54412	0.849852	0.194468	0.28	-8.82	19.11	2.7105	1.9097	1.1724	
-0.535702	0.849852	0.19886	-1.19	-7.28	17.57	2.7016	1.9141	1.1674	
-0.537288	0.838872	0.20069	-2.17	-6.79	15.75	2.6989	1.9155	1.1718	
-0.528626	0.834846	0.192516	-1.75	-8.05	13.72	2.7006	1.9155	1.1764	
-0.520818	0.804956	0.187392	-3.08	-10.22	11.69	2.6913	1.9124	1.1669	
-0.51423	0.83204	0.195688	-4.62	-8.89	11.06	2.6955	1.9125	1.1625	
-0.504592	0.823988	0.221674	-11.41	-11.55	10.85	2.6898	1.9139	1.1653	
-0.51545	0.823012	0.234484	-8.26	-8.54	10.99	2.6958	1.914	1.1671	
-0.49105	0.831064	0.240218	-4.34	-6.37	11.62	2.6883	1.9154	1.1622	
-0.49898	0.836188	0.229726	-6.02	-7.07	11.06	2.685	1.9093	1.156	
-0.518744	0.826916	0.23851	-9.17	-4.83	9.24	2.6792	1.9122	1.1573	
-0.510814	0.836188	0.253028	-4.97	-5.18	7.98	2.672	1.912	1.16	
-0.506666	0.84424	0.250466	-3.29	-3.43	5.32	2.679	1.9046	1.1558	
-0.507642	0.860466	0.27267	-6.79	-3.5	3.43	2.6833	1.9047	1.1545	
-0.538996	0.87657	0.259616	-3.92	-1.26	-0.42	2.6803	1.9047	1.1513	
-0.52521	0.863272	0.236802	-5.95	-0.49	-4.55	2.6779	1.9182	1.1571	
-0.495442	0.857904	0.262544	-7.7	-1.68	-6.86	2.6718	1.9181	1.1523	
-0.512156	0.849974	0.271206	-6.16	1.12	-9.66	2.6777	1.9183	1.1526	
-0.501786	0.839604	0.277062	-2.73	0.49	-12.67	2.6805	1.9138	1.1527	
-0.542168	0.861198	0.255102	2.1	-1.26	-16.52	2.6922	1.9171	1.1502	
-0.507276	0.866932	0.227408	-0.63	-3.92	-22.4	2.6881	1.9169	1.1576	
-0.499224	0.86437	0.261446	-9.17	-0.49	-24.99	2.6809	1.9198	1.1572	
-0.503006	0.832772	0.278282	-11.76	4.06	-27.44	2.6893	1.914	1.1516	
-0.511912	0.802516	0.278404	-8.82	6.44	-28.21	2.6849	1.9246	1.1467	
-0.54168	0.78446	0.258762	-0.21	5.46	-28.84	2.6938	1.9186	1.1517	
-0.562542	0.807762	0.243756	13.02	0.77	-30.66	2.6952	1.9278	1.1471	
-0.559736	0.801906	0.208986	20.65	-4.62	-35.14	2.6989	1.9384	1.1593	
-0.55144	0.817522	0.247538	13.65	4.69	-36.96	2.7108	1.9371	1.1644	
-0.545096	0.81862	0.259128	11.34	7.84	-40.11	2.7048	1.937	1.1611	
-0.561322	0.811056	0.238388	15.05	9.31	-42.7	2.7154	1.9432	1.1661	
-0.612196	0.797392	0.208132	16.94	8.54	-45.78	2.7167	1.9494	1.16	
-0.642574	0.781898	0.196542	17.99	6.3	-49.49	2.7257	1.9526	1.1634	
-0.656726	0.793976	0.198616	26.32	5.53	-54.88	2.7271	1.9389	1.1697	
-0.627934	0.790194	0.193492	24.43	7.98	-58.94	2.7336	1.9587	1.1728	
-0.641354	0.76189	0.186904	18.27	11.69	-62.86	2.7412	1.9665	1.1761	
-0.656848	0.752496	0.184952	21.42	8.96	-65.45	2.7542	1.9561	1.1768	
-0.692716	0.721264	0.171532	25.2	10.36	-67.34	2.7501	1.9666	1.1795	
-0.73078	0.708332	0.150914	30.17	10.22	-70.42	2.7621	1.9714	1.1846	
-0.70943	0.689788	0.144448	27.09	8.89	-75.74	2.7653	1.9745	1.1877	
-0.714188	0.67527	0.166408	16.59	9.52	-81.27	2.766	1.9834	1.1998	
-0.73505	0.631716	0.171898	14.42	11.2	-85.61	2.782	1.9899	1.1944	
-0.759938	0.601704	0.160552	23.52	11.06	-88.2	2.7879	2.0068	1.1883	
-0.804224	0.580842	0.140422	28.49	8.61	-90.23	2.7956	2.0084	1.1963	
-0.85888	0.57889	0.144814	27.93	6.65	-93.59	2.8016	2.0177	1.1934	
-0.907802	0.5002	0.13847	16.24	6.86	-102.76	2.8097	2.042	1.2011	
-0.848144	0.45079	0.143838	14.28	11.55	-106.75	2.8187	2.059	1.1967	
-0.849364	0.428342	0.12383	16.94	16.94	-109.13	2.8182	2.077	1.2102	
-0.878278	0.417362	0.0915	25.34	17.15	-110.32	2.8295	2.0774	1.2	
-0.884378	0.386374	0.082472	17.5	17.92	-112.42	2.8418	2.0973	1.2034	
-0.884988	0.331962	0.097722	1.47	20.16	-113.68	2.8409	2.1124	1.2092	
-0.904874	0.277794	0.11407	0.07	23.1	-112.77	2.8562	2.1294	1.2158	
-0.888038	0.233508	0.080764	6.58	26.6	-111.02	2.8495	2.1412	1.2245	
-0.909998	0.202398	0.065148	1.47	25.76	-113.4	2.8467	2.1549	1.2197	
-0.887184	0.140666	0.098454	-14.07	32.55	-114.66	2.8532	2.1884	1.218	
-0.991128	0.165676	0.096136	-6.51	32.27	-117.81	2.8606	2.1778	1.2261	
-0.916586	-0.00854	0.008417999	-17.01	32.13	-118.44	2.8613	2.2051	1.2289	
-0.979538	-0.049532	-0.02501	-4.48	43.12	-116.62	2.8639	2.2262	1.2424	
-0.973194	-0.1098	-0.050142	-5.18	44.8	-115.22	2.8699	2.2385	1.241	
-0.974292	-0.10736	-0.02745	-10.85	47.95	-115.29	2.8664	2.258	1.2513	
-0.829966	-0.034648	-0.040992	-8.82	56.98	-113.05	2.8618	2.2656	1.2419	
-1.077382	-0.2745	-0.105286	-52.08	47.18	-108.57	2.8734	2.2899	1.2619	
-0.996862	-0.25559	0.006344	-21.35	50.33	-109.9	2.8693	2.305	1.2616	
-1.004914	-0.256932	-0.155306	-10.71	41.79	-103.32	2.8668	2.3094	1.269	
-1.00528	-0.269864	-0.136274	-12.67	42.35	-100.59	2.8719	2.3276	1.2767	
-0.954284	-0.342332	-0.142252	-8.89	36.89	-94.29	2.8707	2.3668	1.296	
-0.937814	-0.35502	-0.13664	-0.49	31.01	-89.88	2.8633	2.3727	1.291	
-0.92232	-0.343186	-0.157746	2.73	25.55	-86.45	2.8563	2.3862	1.2921	
-0.936106	-0.358924	-0.160552	0.28	20.79	-83.16	2.851	2.4012	1.2962	
-0.951844	-0.415166	-0.15616	8.89	15.4	-81.34	2.8585	2.4028	1.2996	
-0.933788	-0.477508	-0.154208	9.03	10.64	-78.68	2.837	2.4236	1.2999	
-0.915122	-0.466772	-0.171654	11.69	8.33	-76.58	2.8426	2.4177	1.2957	
-0.90158	-0.475678	-0.163602	10.15	5.25	-73.36	2.8283	2.4371	1.2933	
-0.899628	-0.482266	-0.145058	10.08	2.31	-70.77	2.8283	2.4401	1.2933	
-0.881084	-0.48373	-0.149694	10.71	-1.12	-66.43	2.8181	2.446	1.2912	
-0.863028	-0.494954	-0.120658	8.61	1.89	-58.45	2.8227	2.4521	1.2929	
-0.870836	-0.51362	-0.131516	9.94	-0.63	-54.18	2.8107	2.4657	1.277	
-0.855708	-0.515572	-0.15616	9.66	-2.1	-51.17	2.805	2.4655	1.2813	
-0.844728	-0.522038	-0.112972	16.38	-1.47	-47.6	2.7993	2.4714	1.281	
-0.846924	-0.54839	-0.102968	3.43	2.17	-41.72	2.81	2.4822	1.2859	
-0.863028	-0.562786	-0.139202	0.63	2.52	-36.26	2.7983	2.4835	1.2869	
-0.82472	-0.58499	-0.118218	-1.4	2.59	-30.52	2.7927	2.4833	1.2927	
-0.797636	-0.610122	-0.137738	-1.33	6.09	-28.91	2.7911	2.4894	1.285	
-0.798612	-0.644282	-0.15616	-3.92	7.49	-27.44	2.7781	2.489	1.289	
-0.817034	-0.644648	-0.164212	-4.06	7.14	-24.92	2.7764	2.4967	1.2812	
-0.815692	-0.649406	-0.145058	-2.66	6.37	-22.05	2.7798	2.4997	1.2889	
-0.799222	-0.644404	-0.149328	-0.49	6.02	-19.39	2.7811	2.5013	1.2844	
-0.79422	-0.648674	-0.152988	-1.61	5.81	-15.82	2.7781	2.5012	1.2843	
-0.797392	-0.667706	-0.152256	-1.12	4.13	-13.16	2.7771	2.4995	1.2964	
-0.76799	-0.66429	-0.15006	2.24	2.87	-11.41	2.7744	2.5055	1.2978	
-0.751398	-0.660996	-0.168116	2.24	4.2	-9.31	2.7745	2.5146	1.2962	
-0.764818	-0.67893	-0.159576	4.34	3.92	-8.33	2.7725	2.5025	1.2886	
-0.771284	-0.673806	-0.150426	4.55	1.61	-6.79	2.7799	2.5057	1.2889	
-0.75823	-0.651114	-0.174216	6.86	0.14	-6.3	2.7685	2.5084	1.296	
-0.739198	-0.625616	-0.1525	5.67	-0.49	-7.42	2.774	2.5056	1.2871	
-0.738832	-0.62952	-0.142496	4.34	2.38	-8.05	2.7683	2.5131	1.2883	
-0.745542	-0.65026	-0.143594	0.56	4.2	-7.84	2.7681	2.5116	1.2837	
-0.745542	-0.675148	-0.157868	-1.05	4.69	-6.86	2.7639	2.5114	1.2881	
-0.74298	-0.702842	-0.161162	1.05	4.97	-5.46	2.7757	2.5147	1.2886	
-0.744932	-0.663436	-0.160674	2.17	5.04	-6.72	2.7656	2.5206	1.2896	
-0.758474	-0.672098	-0.155672	1.12	4.83	-6.09	2.7682	2.5116	1.2868	
-0.766038	-0.683688	-0.165188	4.13	3.85	-4.83	2.7625	2.5084	1.2911	
-0.770918	-0.693814	-0.164578	5.18	2.17	-2.45	2.7628	2.5174	1.2941	
-0.75762	-0.68808	-0.175924	5.67	2.24	-0.42	2.7597	2.5174	1.2894	
-0.746274	-0.692472	-0.160552	6.51	1.47	1.12	2.7712	2.5147	1.2854	
-0.746152	-0.690886	-0.155672	6.3	1.96	2.59	2.7697	2.5223	1.2806	
-0.746518	-0.685396	-0.16897	6.09	2.17	3.5	2.7668	2.5085	1.2898	
-0.744322	-0.673806	-0.161894	3.64	2.03	4.62	2.7699	2.5222	1.2852	
-0.743224	-0.665754	-0.170312	2.31	2.52	5.88	2.7653	2.5176	1.2835	
-0.752618	-0.673318	-0.156038	1.47	2.66	7.07	2.7712	2.5147	1.2869	
-0.741882	-0.687958	-0.15921	-0.63	2.87	9.31	2.7742	2.504	1.2932	
-0.752008	-0.66429	-0.173728	-1.89	2.87	10.99	2.7743	2.5132	1.2916	
-0.763354	-0.676612	-0.18117	-2.45	1.26	11.41	2.7742	2.5071	1.2932	
-0.757376	-0.695034	-0.174338	-0.98	0.42	12.74	2.7684	2.5069	1.2929	
-0.763598	-0.706624	-0.181292	1.26	-0.28	15.4	2.7668	2.5008	1.2929	
-0.784094	-0.681004	-0.199714	7.42	-0.84	20.16	2.7745	2.507	1.2993	
-0.778482	-0.67771	-0.177998	8.05	-1.68	21.7	2.7822	2.4892	1.2831	
-0.780312	-0.663802	-0.17568	9.66	-2.8	23.24	2.787	2.4922	1.2909	
-0.780556	-0.688202	-0.142862	9.59	-1.05	29.05	2.7799	2.5027	1.2904	
-0.787876	-0.637816	-0.195444	8.54	-1.61	30.52	2.7866	2.4878	1.2848	
-0.804956	-0.618906	-0.175192	8.75	-3.01	30.8	2.7851	2.4801	1.2879	
-0.81313	-0.60634	-0.158844	8.68	-5.46	31.92	2.7927	2.4863	1.2912	
-0.804102	-0.600606	-0.157746	8.54	-5.39	33.81	2.798	2.4881	1.2777	
-0.790804	-0.621712	-0.144448	5.88	-4.48	35.7	2.8024	2.4791	1.281	
-0.82106	-0.580354	-0.14823	2.24	-3.43	40.53	2.7995	2.479	1.2824	
-0.815692	-0.568276	-0.155306	2.38	-3.08	40.67	2.8023	2.4699	1.2842	
-0.839726	-0.555588	-0.140544	3.99	-5.88	42.35	2.8207	2.4629	1.2729	
-0.839482	-0.547658	-0.125782	3.01	-6.02	43.61	2.8123	2.4626	1.2817	
-0.810812	-0.534238	-0.114436	-0.14	-3.71	46.69	2.8149	2.4582	1.2772	
-0.85095	-0.512644	-0.126392	-1.96	-2.66	49.7	2.8219	2.4416	1.2793	
-0.857538	-0.504104	-0.137372	-3.29	-3.01	49.77	2.8262	2.4418	1.2764	
-0.881328	-0.485926	-0.110898	-2.38	-3.99	52.01	2.8318	2.4374	1.2737	
-0.888404	-0.464088	-0.108458	-4.13	-3.43	55.02	2.8415	2.4374	1.2939	
-0.894992	-0.438346	-0.10797	-3.01	-3.57	57.4	2.8351	2.4175	1.2923	
-0.905728	-0.413946	-0.093086	-6.79	0.35	64.54	2.842	2.4193	1.2819	
-0.905606	-0.379054	-0.121756	-10.5	-2.17	64.05	2.8567	2.4105	1.2888	
-0.91134	-0.366732	-0.10187	-13.93	-2.45	64.68	2.8521	2.3983	1.2902	
-0.949892	-0.337086	-0.098698	-13.79	-0.77	66.57	2.8607	2.3848	1.2923	
-0.96258	-0.309148	-0.11834	-14.91	0.07	68.67	2.8645	2.3713	1.285	
-0.979904	-0.267912	-0.10431	-15.4	0	70.49	2.8618	2.3727	1.2909	
-0.996374	-0.23485	-0.101748	-13.86	0.49	71.89	2.8793	2.364	1.2933	
-0.970876	-0.184952	-0.10675	-17.71	0.84	74.69	2.8788	2.3458	1.292	
-0.960262	-0.148108	-0.149206	-18.13	2.03	75.11	2.879	2.3427	1.2981	
-0.963312	-0.1159	-0.141886	-27.09	5.04	75.46	2.876	2.3335	1.3011	
-0.95648	-0.102358	-0.143106	-26.74	7.91	75.32	2.8937	2.3308	1.3065	
-0.94123	-0.066002	-0.150792	-22.68	11.13	74.83	2.8846	2.317	1.3048	
-0.96136	-0.039528	-0.17507	-20.72	19.39	75.04	2.895	2.3111	1.3114	
-0.938424	-0.018788	-0.185562	-21.7	23.59	73.92	2.8887	2.2943	1.3113	
-0.922198	0.014396	-0.188002	-18.34	25.34	70.14	2.8977	2.2853	1.3209	
-0.9638	0.028548	-0.226188	-11.2	26.32	65.66	2.9019	2.2732	1.3228	
-1.002962	0.051362	-0.257054	-26.67	16.24	59.08	2.9106	2.2506	1.3325	
-0.989786	0.03782	-0.162138	-21.42	39.2	59.29	2.9136	2.2506	1.3357	
-0.980148	0.077348	-0.175436	-23.73	26.53	54.81	2.9079	2.2428	1.3416	
-0.973804	0.07686	-0.233142	-8.33	21.49	49.35	2.9125	2.2337	1.3511	
-0.94123	0.100162	-0.241194	-11.34	17.15	44.66	2.9151	2.2293	1.3467	
-0.962458	0.139446	-0.234362	-5.32	22.75	40.88	2.9121	2.2307	1.345	
-1.00955	0.17141	-0.253272	-1.33	19.67	37.03	2.918	2.2141	1.3531	
-1.021018	0.15677	-0.253516	-8.89	20.23	35.84	2.9194	2.2111	1.3532	
-1.007476	0.140178	-0.245098	-12.88	19.46	31.57	2.9199	2.214	1.3638	
-1.00223	0.150792	-0.23912	-11.55	17.22	28.35	2.9163	2.1989	1.3577	
-1.005158	0.165066	-0.247172	-9.38	14.84	24.85	2.9222	2.1914	1.3627	
-0.99918	0.174582	-0.274134	-0.77	13.02	22.19	2.9198	2.2003	1.3701	
-0.972462	0.186538	-0.284504	4.48	6.23	19.25	2.9225	2.1867	1.3719	
-0.971242	0.203862	-0.292922	4.97	0.77	14.98	2.9165	2.1881	1.367	
-0.983564	0.224846	-0.308416	4.55	2.87	12.88	2.9197	2.1821	1.3764	
-0.962336	0.241194	-0.288408	-1.26	5.04	10.71	2.9267	2.1792	1.3706	
-0.978074	0.24278	-0.268034	-2.8	4.06	8.26	2.9193	2.1684	1.375	
-0.956114	0.224968	-0.270474	-6.16	2.17	6.44	2.9208	2.1776	1.3704	
-0.94672	0.215696	-0.2867	-1.82	1.75	5.32	2.9254	2.1822	1.372	
-0.958432	0.219112	-0.287676	-0.77	0.14	4.62	2.9223	2.173	1.3751	
-0.966728	0.211792	-0.289018	-2.59	-0.42	3.15	2.9193	2.1745	1.3719	
-0.950502	0.188856	-0.292434	-8.75	2.24	2.31	2.9192	2.1715	1.3704	
-0.946354	0.188856	-0.285358	-8.05	2.87	1.61	2.9219	2.1686	1.3675	
-0.956236	0.195444	-0.27816	-2.66	1.12	0.84	2.9221	2.1746	1.3689	
-0.967338	0.208498	-0.290238	0.98	1.12	0.14	2.9278	2.1733	1.3662	
-0.948916	0.213866	-0.28182	-2.52	0.07	0.21	2.9211	2.1607	1.3873	
-0.948306	0.207034	-0.29219	-0.77	-0.98	-0.21	2.9164	2.1699	1.3748	
-0.963678	0.199836	-0.294996	-1.33	-1.82	-1.05	2.9177	2.1669	1.3719	
-0.985516	0.198128	-0.288896	0.98	-2.38	-0.98	2.9165	2.1714	1.3763	
-0.973804	0.174704	-0.2928	0.63	-4.41	-1.33	2.9207	2.1685	1.372	
-0.983808	0.163846	-0.29768	5.67	-5.46	-1.89	2.9153	2.182	1.3762	
-1.001498	0.158234	-0.293776	7.28	-8.4	-1.68	2.9209	2.1669	1.3796	
-1.005768	0.136396	-0.298412	12.67	-10.71	0.42	2.9311	2.1748	1.3739	
-0.984906	0.120414	-0.293288	18.06	-12.04	2.59	2.9125	2.1742	1.3837	
-0.954284	0.121634	-0.269986	20.58	-12.67	3.92	2.9161	2.1715	1.3672	
-0.952454	0.119926	-0.252418	27.16	-12.04	2.87	2.9144	2.1669	1.3626	
-0.962458	0.14823	-0.2562	28.98	-14.35	-0.56	2.9175	2.1761	1.3626	
-0.968314	0.169824	-0.254492	30.59	-15.47	-1.68	2.9191	2.1715	1.3688	
-0.979904	0.165798	-0.248148	30.1	-14.35	-1.47	2.9158	2.167	1.3627	
-0.9638	0.154574	-0.23668	28.42	-13.65	0	2.926	2.1748	1.3569	
-0.98027	0.157746	-0.25498	34.23	-11.69	0.14	2.9127	2.173	1.3548	
-0.959164	0.173118	-0.25315	31.99	-11.76	0	2.9093	2.1639	1.3487	
-0.979416	0.169702	-0.254614	32.13	-13.58	2.45	2.9111	2.17	1.3518	
-1.025776	0.15799	-0.26413	33.18	-18.55	2.73	2.9068	2.1668	1.3562	
-0.996252	0.154574	-0.269254	32.48	-23.1	3.15	2.9166	2.1595	1.3491	
-1.0126	0.103944	-0.272182	32.97	-21.98	4.55	2.9077	2.1624	1.3456	
-1.009672	0.076738	-0.245708	29.12	-23.03	5.88	2.9079	2.167	1.3471	
-0.997228	0.074664	-0.240706	39.06	-29.26	5.46	2.9133	2.1626	1.3382	
-1.006256	0.049654	-0.244244	47.81	-33.18	3.5	2.8984	2.1593	1.3346	
-1.01138	0.074542	-0.227774	51.87	-36.89	3.78	2.9028	2.1579	1.3363	
-0.99125	0.054656	-0.235338	56.84	-39.76	3.29	2.9065	2.1444	1.3275	
-0.971852	0.073322	-0.23119	65.31	-37.94	2.45	2.9007	2.158	1.3195	
-0.97783	0.084058	-0.217892	67.83	-38.5	0.98	2.9002	2.1444	1.3165	
-0.956968	0.106262	-0.17385	66.08	-37.52	0.63	2.8925	2.1352	1.3117	
-0.969656	0.132736	-0.148352	69.16	-36.47	1.05	2.9	2.1338	1.3167	
-0.962824	0.144692	-0.143838	75.39	-35.35	3.08	2.8965	2.1354	1.3013	
-0.977952	0.153598	-0.136762	75.18	-33.88	4.2	2.8872	2.1292	1.2933	
-0.981368	0.178852	-0.119316	75.46	-32.34	7.07	2.8931	2.1293	1.2936	
-0.943426	0.187026	-0.111142	73.36	-33.95	9.31	2.8857	2.1185	1.2979	
-0.962214	0.151646	-0.09821	66.92	-33.67	10.22	2.8839	2.1231	1.2871	
-0.961604	0.12932	-0.063196	66.43	-30.73	9.8	2.8925	2.1173	1.2861	
-0.984784	0.124928	-0.041236	76.44	-22.47	12.25	2.8809	2.1109	1.2917	
-0.98576	0.118218	-0.07625	82.25	-16.87	15.4	2.8819	2.0973	1.2889	
-0.99186	0.141886	-0.11102	82.04	-15.54	17.01	2.8772	2.0973	1.2795	
-0.979904	0.19276	-0.127734	79.59	-18.9	17.78	2.8746	2.0925	1.2901	
-0.978684	0.203618	-0.107482	70.42	-22.05	15.26	2.8798	2.0852	1.2798	
-0.990396	0.180316	-0.068686	66.57	-24.22	13.58	2.8684	2.0833	1.2869	
-0.995398	0.198494	-0.056608	68.95	-28.98	7.56	2.8707	2.0683	1.2811	
-1.032364	0.151646	-0.0793	69.58	-28.98	5.67	2.8694	2.0698	1.2825	
-1.00955	0.162016	-0.069052	72.03	-33.6	7.07	2.8677	2.0606	1.2826	
-1.037	0.153964	-0.0976	71.47	-40.32	4.97	2.8616	2.0514	1.2824	
-1.051518	0.108946	-0.05307	62.23	-49.98	2.1	2.8673	2.0501	1.2781	
-1.02114	0.096868	-0.037332	63.42	-52.01	0.77	2.8525	2.0513	1.2729	
-1.014552	0.09272	-0.029646	63.91	-44.31	0.77	2.8638	2.0486	1.2658	
-1.01809	0.099308	-0.02684	62.72	-36.19	2.17	2.8534	2.0377	1.267	
-1.017846	0.143838	-0.018178	62.16	-35.77	2.24	2.8427	2.0346	1.2589	
-1.02053	0.163724	-0.00183	63.42	-33.6	1.68	2.8441	2.03	1.2591	
-1.003694	0.16531	0.034282	57.61	-38.29	-4.06	2.8387	2.0237	1.2741	
-1.001986	0.116266	-0.001952	68.18	-20.72	-2.31	2.834	2.0191	1.2694	
-1.005158	0.119682	0.020008	55.37	-28.98	2.94	2.8383	2.0177	1.2681	
-0.993202	0.163724	0.030256	52.08	-26.11	2.59	2.8291	2.0161	1.2586	
-0.990518	0.18971	0.027572	49.84	-23.94	1.61	2.8324	2.016	1.2678	
-0.97051	0.20557	0.055266	46.27	-20.02	-1.82	2.8366	2.0147	1.2619	
-0.997838	0.172386	0.0488	43.19	-16.94	-3.5	2.8379	2.0117	1.2605	
-0.978928	0.129686	0.049532	39.97	-16.73	-3.01	2.8305	2.01	1.2602	
-0.983808	0.11895	0.065636	39.06	-14.35	-3.85	2.8324	2.0115	1.2694	
-1.000766	0.135908	0.07991	40.18	-13.72	-3.22	2.8307	2.0054	1.2664	
-0.96746	0.188856	0.082106	38.78	-12.6	-2.38	2.8246	1.9992	1.2631	
-0.929396	0.198372	0.083814	35.77	-9.17	-2.17	2.8293	2.0023	1.2694	
-0.986004	0.203862	0.084302	30.03	-5.53	-1.47	2.8347	1.998	1.2605	
-0.989298	0.190442	0.062342	24.08	-2.31	-2.8	2.8365	1.9994	1.2697	
-1.013332	0.14884	0.063562	18.27	0.07	-4.2	2.832	1.9948	1.2696	
-0.991372	0.127246	0.066734	15.96	-0.63	-4.69	2.8295	1.9977	1.2771	
-0.975634	0.15616	0.073322	15.33	-0.21	-4.13	2.8304	1.9887	1.2696	
-0.996862	0.162016	0.081618	11.06	2.38	-3.78	2.8409	1.9965	1.2715	
-1.00528	0.155184	0.069174	9.24	2.24	-3.85	2.8309	2.0008	1.274	
-1.009062	0.141398	0.06466	5.74	3.71	-4.83	2.8338	1.9963	1.2757	
-1.009672	0.15128	0.068198	4.97	4.34	-4.9	2.8325	1.9931	1.2818	
-1.013576	0.120048	0.06527	1.05	3.08	-5.95	2.8308	1.9932	1.2756	
-1.014918	0.119072	0.063196	0.49	2.17	-5.95	2.8367	1.9963	1.2759	
-1.00101	0.121024	0.06734399	0.28	1.26	-4.41	2.8369	1.9963	1.2789	
-0.990518	0.108336	0.056242	0.91	1.33	-4.27	2.8369	2.0009	1.2773	
-1.00528	0.095404	0.05002	2.31	2.17	-4.9	2.8339	1.9978	1.2773	
-1.042124	0.102968	0.063562	2.52	2.31	-5.11	2.8354	1.9993	1.2773	
-0.998936	0.115412	0.047458	1.89	1.26	-4.9	2.8385	1.9963	1.2836	
-0.983686	0.126758	0.051728	1.96	1.68	-4.41	2.8414	1.9994	1.2821	
-0.992348	0.125294	0.061244	0.14	2.73	-4.34	2.8413	2.0025	1.2775	
-0.989542	0.120902	0.064416	-3.15	3.36	-4.41	2.8458	2.0026	1.2808	
-0.991494	0.105408	0.055144	-3.85	4.76	-5.74	2.8442	1.9965	1.2808	
-0.994422	0.102846	0.048312	-4.41	6.23	-5.88	2.8432	2.0039	1.2867	
-0.993324	0.124806	0.05246	-5.88	7.63	-4.69	2.8368	1.9978	1.2759	
-0.994788	0.148718	0.040138	-7.49	9.03	-3.92	2.8401	2.0085	1.2789	
-0.968558	0.171166	0.040992	-13.09	11.9	-2.8	2.8464	2.0085	1.2914	
-0.96807	0.137006	0.061854	-17.57	15.68	-1.96	2.8446	2.0025	1.2868	
-0.976366	0.185684	0.02013	-20.09	15.82	1.33	2.8536	2.0057	1.2887	
-0.964898	0.185928	0.015982	-30.38	17.85	2.17	2.852	2.0087	1.284	
-0.950624	0.163114	-0.009393999	-38.01	21.56	1.19	2.8581	2.0118	1.2888	
-0.931592	0.19886	0.008905999	-43.47	29.05	1.26	2.8537	2.0117	1.2886	
-0.99003	0.210572	0.030012	-49.77	39.83	3.08	2.8408	2.0068	1.2972	
-1.067988	0.179828	-0.001464	-54.04	40.25	0.28	2.8524	2.0162	1.29	
-1.023458	0.113216	-0.066246	-60.27	36.4	-3.29	2.8544	2.0253	1.2976	
-1.00955	0.080764	-0.090158	-65.66	34.23	-2.59	2.844	2.0266	1.2941	
-0.971486	0.118218	-0.107482	-64.26	38.64	-4.06	2.8663	2.027	1.3027	
-0.952576	0.143838	-0.056608	-78.96	47.04	-7.42	2.8616	2.0285	1.2949	
-0.936472	0.143838	-0.049166	-106.82	52.43	-8.96	2.8595	2.042	1.3053	
-0.920368	0.13054	-0.029646	-111.44	58.52	-4.34	2.8682	2.0437	1.3026	
-1.011014	0.104554	-0.08845	-65.94	52.5	-2.1	2.8713	2.0453	1.3058	
-1.089338	0.092964	-0.158112	-29.61	42.49	-1.61	2.8758	2.0484	1.309	
-1.033218	0.125782	-0.163724	-35.91	40.25	-1.33	2.8818	2.047	1.3123	
-1.000888	0.162992	-0.153354	-56.14	40.67	-2.03	2.8809	2.0575	1.3213	
-1.00528	0.183122	-0.207034	-55.72	44.94	-7.84	2.8822	2.0576	1.3168	
-1.019066	0.1586	-0.249978	-48.09	44.1	-10.43	2.8794	2.0544	1.3212	
-0.98332	0.1159	-0.27938	-49.42	47.67	-14.63	2.8844	2.0742	1.3258	
-0.955748	0.132004	-0.273524	-75.18	34.02	-21.84	2.8874	2.0651	1.3321	
-0.985516	0.143594	-0.240828	-92.75	38.22	-24.43	2.892	2.0773	1.3307	
-1.042124	0.16104	-0.243756	-78.54	38.01	-25.69	2.8983	2.0865	1.3354	
-1.053592	0.173728	-0.26779	-72.38	36.47	-25.62	2.8856	2.0922	1.3439	
-1.001498	0.092476	-0.328058	-80.85	32.06	-22.54	2.8973	2.097	1.3413	
-0.97173	0.109434	-0.316956	-105.84	29.33	-23.45	2.893	2.0984	1.3426	
-1.006622	0.162626	-0.307318	-107.24	28	-23.8	2.8963	2.1076	1.3457	
-1.00223	0.151402	-0.345626	-110.46	28.49	-26.6	2.9008	2.1153	1.3458	
-1.01321	0.123098	-0.358192	-140.07	35.21	-33.53	2.904	2.1305	1.3428	
-1.003938	0.096136	-0.322324	-159.32	37.17	-35.14	2.9073	2.1366	1.3504	
-1.01443	0.085644	-0.292068	-148.96	37.73	-30.8	2.9075	2.1457	1.3504	
-0.953918	0.091988	-0.249002	-137.41	37.45	-29.47	2.9047	2.1441	1.3533	
-0.934032	0.137006	-0.290116	-125.79	27.86	-28.35	2.9182	2.1626	1.3521	
-0.928176	0.13237	-0.264374	-126.42	21.49	-29.19	2.92	2.1778	1.3521	
-0.947574	0.13908	-0.2928	-118.02	15.68	-31.5	2.9105	2.1743	1.3715	
-0.998204	0.169336	-0.336354	-110.81	12.74	-30.66	2.9152	2.182	1.3746	
-0.984296	0.108336	-0.339648	-113.75	6.86	-32.55	2.9179	2.1928	1.3624	
-0.93147	0.082472	-0.361974	-103.39	7.28	-32.27	2.9181	2.1912	1.3686	
-0.985638	0.056364	-0.348798	-103.67	1.26	-28.35	2.9168	2.2033	1.3653	
-0.974292	0.07625	-0.32025	-95.55	3.57	-27.93	2.9185	2.2262	1.359	
-0.97539	0.062708	-0.366122	-91.14	3.29	-27.23	2.9175	2.223	1.3727	
-0.979782	0.065026	-0.294264	-93.24	-2.31	-24.64	2.9233	2.2384	1.3637	
-0.989176	0.057584	-0.284748	-88.97	-3.92	-24.36	2.9146	2.2397	1.3648	
-0.988322	0.050264	-0.297924	-87.43	-4.76	-21.63	2.9107	2.2501	1.3691	
-0.943548	0.059536	-0.316224	-80.36	-6.3	-20.09	2.9121	2.2456	1.3707	
-0.97356	0.07905599	-0.312442	-76.09	-9.1	-20.93	2.9194	2.2549	1.3664	
-1.010038	0.103334	-0.260958	-80.99	-12.46	-20.65	2.9155	2.2669	1.3706	
-1.025532	0.100162	-0.241438	-81.76	-16.38	-21.28	2.9186	2.2685	1.3738	
-1.014796	0.089304	-0.234362	-71.96	-15.19	-24.01	2.9166	2.267	1.3615	
-1.009672	0.061122	-0.239242	-71.61	-13.93	-26.6	2.9124	2.2776	1.3612	
-1.016504	0.06039	-0.25132	-67.76	-14.7	-26.81	2.9084	2.285	1.3655	
-0.985028	0.055754	-0.237534	-61.88	-18.2	-28.7	2.9199	2.2868	1.3599	
-0.976122	-0.017934	-0.21411	-60.27	-20.16	-26.53	2.9156	2.2913	1.3612	
-1.014064	-0.00244	-0.210084	-50.75	-23.17	-17.57	2.9129	2.3034	1.3594	
-1.004792	-0.008662	-0.183854	-46.34	-26.67	-14.7	2.9013	2.3	1.3635	
-0.997594	-0.006832	-0.151524	-44.66	-26.04	-11.55	2.9082	2.3033	1.3531	
-1.004548	-0.020496	-0.15555	-43.05	-26.04	-5.81	2.9084	2.3094	1.3546	
-1.01016	-0.004026	-0.133224	-42.84	-26.53	1.75	2.9097	2.3095	1.3501	
-1.009794	0.002928	-0.12322	-36.96	-32.06	6.51	2.895	2.3076	1.348	
-0.99247	0.013664	-0.098088	-30.52	-27.3	8.61	2.9023	2.3108	1.3467	
-0.999912	0.04392	-0.083326	-30.38	-25.83	9.59	2.8995	2.3123	1.3496	
-1.0004	0.06283	-0.066002	-28.98	-23.94	10.22	2.9004	2.3018	1.3422	
-0.994422	0.052704	-0.06405	-35.14	-21.21	10.43	2.899	2.3017	1.3436	
-0.979172	0.084424	-0.03599	-33.04	-19.81	11.41	2.9014	2.3065	1.3284	
-0.974902	0.093452	-0.037088	-30.94	-18.13	12.81	2.8921	2.2912	1.3236	
-0.977464	0.085278	-0.033184	-34.23	-12.46	12.11	2.9045	2.3111	1.3285	
-1.00833	0.095038	-0.036844	-34.23	-8.96	13.79	2.9	2.2958	1.3346	
-1.00467	0.096624	-0.01159	-32.83	-8.26	14.63	2.9001	2.3049	1.3315	
-0.99796	0.117852	-0.029158	-32.2	-7.7	15.12	2.9018	2.3049	1.3391	
-0.974902	0.142862	-0.02257	-35.7	-3.85	15.26	2.8913	2.3077	1.331	
-0.971974	0.172264	-0.000976	-37.1	-2.52	16.8	2.8987	2.3003	1.3375	
-1.000888	0.150792	-0.029646	-37.45	1.12	16.24	2.9029	2.2989	1.3332	
-0.989054	0.15799	-0.01037	-33.67	-1.4	16.87	2.9029	2.3004	1.3316	
-1.002474	0.148108	0.00366	-36.68	2.87	15.75	2.9042	2.2959	1.3302	
-1.015284	0.126026	-0.02196	-35.84	1.68	16.31	2.9078	2.3019	1.344	
-0.98271	0.13847	0.007442	-30.1	-0.56	14.77	2.9031	2.2988	1.3377	
-1.019188	0.12871	0.001464	-26.67	-0.49	15.19	2.9004	2.2987	1.3437	
-0.998326	0.132614	-0.015982	-18.83	-4.2	16.94	2.9089	2.2898	1.3411	
-0.9638	0.171288	0.02196	-15.54	-3.71	15.26	2.9035	2.2911	1.35	
-1.009428	0.159088	0.015982	-16.03	-0.14	14.49	2.9	2.2866	1.3393	
-0.986248	0.145912	0.005856	-12.95	0	11.97	2.901	2.2791	1.3333	
-0.95648	0.1708	-0.010004	-7.21	0.7	12.32	2.9118	2.2838	1.3444	
-0.979904	0.207034	-0.013664	-4.48	3.22	11.76	2.9059	2.2883	1.341	
-0.999546	0.232044	-0.01769	-1.96	3.64	10.85	2.9092	2.2898	1.3473	
-0.99918	0.21533	-0.017324	1.26	2.66	9.52	2.9107	2.2806	1.3535	
-0.988322	0.20374	-0.023424	2.87	3.01	8.33	2.9194	2.2809	1.3524	
-0.97539	0.226554	-0.027816	6.51	2.45	8.33	2.8973	2.2789	1.3499	
-0.997106	0.238754	-0.018666	7.98	2.17	6.86	2.8958	2.2788	1.3483	
-0.967826	0.25193	-0.025376	9.24	2.1	5.53	2.9089	2.2792	1.3474	
-0.977342	0.22692	-0.023424	12.6	2.87	6.44	2.9145	2.2794	1.34	
-0.987224	0.26047	-0.035014	13.37	2.8	6.65	2.9103	2.267	1.3506	
-0.995764	0.265472	-0.039162	14.07	0.91	5.95	2.906	2.2669	1.355	
-0.979294	0.253638	-0.037088	14.63	0	5.11	2.9192	2.2763	1.3509	
-0.983808	0.247172	-0.04575	12.81	0.91	4.97	2.9134	2.2731	1.3537	
-0.978318	0.255346	-0.065758	12.74	0.56	5.53	2.9103	2.2762	1.3475	
-0.973438	0.291824	-0.061732	14.49	-1.19	6.02	2.9132	2.2671	1.3507	
-1.004426	0.26962	-0.026474	16.59	-2.31	3.85	2.9071	2.2655	1.3459	
-0.99552	0.21716	-0.06466	10.57	1.33	1.61	2.9013	2.2608	1.3503	
-0.978806	0.230092	-0.069296	12.95	-0.7	2.87	2.9101	2.2732	1.3429	
-0.97173	0.25559	-0.051606	11.62	0.21	3.08	2.919	2.255	1.3572	
-1.01077	0.244366	-0.037576	13.79	-3.78	0.21	2.9071	2.2594	1.349	
-0.980148	0.19215	-0.028914	15.33	-3.22	-0.42	2.9071	2.2655	1.3459	
-0.994056	0.173606	-0.06771	9.8	-1.19	2.24	2.9072	2.2609	1.3505	
-0.991494	0.191906	-0.067588	17.5	-3.22	3.5	2.9116	2.2656	1.3492	
-0.978196	0.22631	-0.066612	21.98	-2.31	1.4	2.9155	2.2581	1.3418	
-0.962702	0.21655	-0.043554	21.28	-0.77	0.98	2.914	2.2642	1.3371	
-0.989786	0.192516	-0.058194	18.41	1.75	2.45	2.9144	2.2641	1.3463	
-1.025044	0.20374	-0.07905599	23.1	-4.06	4.41	2.9157	2.2551	1.3464	
-0.99003	0.194346	-0.038064	30.8	-6.72	3.36	2.9018	2.2427	1.3368	
-0.988444	0.169702	-0.040016	27.09	-4.69	4.13	2.9183	2.2522	1.3405	
-1.01321	0.207034	-0.121878	29.47	-3.15	1.47	2.9078	2.255	1.3339	
-0.923662	0.142374	-0.055998	41.23	-13.23	8.61	2.9164	2.2446	1.3344	
-0.996252	0.185928	-0.038918	47.46	-8.96	11.27	2.906	2.2459	1.3309	
-1.025044	0.216184	-0.064294	50.89	-10.22	8.68	2.9134	2.2522	1.3281	
-1.026874	0.228994	-0.073688	54.04	-7.84	7.35	2.9016	2.2428	1.3307	
-1.002718	0.213622	-0.065026	52.22	-7	9.66	2.9013	2.2398	1.3262	
-1.031632	0.166774	-0.086498	50.54	-8.68	12.11	2.9101	2.2339	1.3297	
-1.038586	0.14152	-0.107848	52.22	-6.37	17.29	2.9039	2.2339	1.3218	
-0.978806	0.211426	-0.136396	44.52	-0.56	22.33	2.9083	2.2263	1.3251	
-0.91683	0.28853	-0.131028	39.97	0.7	23.03	2.9007	2.2262	1.3187	
-0.943304	0.315248	-0.125904	56	-5.74	22.19	2.9006	2.2095	1.325	
-0.98881	0.260104	-0.095404	59.22	-23.73	22.33	2.9089	2.2007	1.3178	
-0.996252	0.187636	-0.102724	85.75	-32.55	20.23	2.9102	2.2053	1.3117	
-0.94489	0.219722	-0.11163	116.83	-39.41	21.98	2.8986	2.205	1.3158	
-0.955992	0.1952	-0.018178	140.21	0.7	21.28	2.9041	2.1885	1.3147	
-0.946354	0.25925	-0.133834	139.23	-14.42	17.5	2.907	2.1779	1.3195	
-0.97478	0.306586	-0.181292	152.81	-13.16	14.63	2.9004	2.1672	1.3087	
-0.950136	0.35502	-0.169336	140.49	-8.61	11.55	2.9029	2.1506	1.3075	
-0.928298	0.385154	-0.176656	128.52	-9.38	9.03	2.9015	2.1445	1.3105	
-0.967704	0.34953	-0.178974	109.69	-13.86	6.58	2.8971	2.1398	1.3134	
-0.986492	0.351726	-0.19337	111.79	-11.83	7.7	2.89	2.1381	1.3192	
-0.996862	0.37881	-0.235582	111.65	-17.22	10.64	2.8972	2.1306	1.3211	
-0.965752	0.38125	-0.248514	106.54	-22.54	13.93	2.8909	2.1245	1.3148	
-0.946842	0.344894	-0.257298	101.57	-26.18	16.59	2.8931	2.1095	1.3045	
-0.939522	0.306464	-0.22875	78.61	-31.43	16.73	2.8874	2.1017	1.3119	
-0.950624	0.302316	-0.161772	74.55	-29.05	15.75	2.8815	2.1016	1.3101	
-0.948672	0.281454	-0.146034	78.12	-26.81	13.58	2.8796	2.1001	1.3024	
-0.973316	0.275964	-0.18178	93.94	-24.22	13.16	2.8872	2.0987	1.3089	
-0.946476	0.232898	-0.229726	103.18	-21.91	14	2.8881	2.0882	1.3014	
-1.003206	0.19947	-0.229848	110.39	-20.72	15.68	2.8778	2.0788	1.3041	
-0.972706	0.24827	-0.280966	112.07	-26.67	13.51	2.8803	2.0668	1.3013	
-0.979538	0.263642	-0.25986	116.62	-29.82	7.28	2.8805	2.0606	1.309	
-1.000644	0.30744	-0.27877	120.47	-35.35	4.2	2.8899	2.0683	1.32	
-0.90463	0.332328	-0.262666	97.86	-52.22	-4.69	2.8714	2.0453	1.3103	
-1.025166	0.221674	-0.24095	95.13	-59.78	-7	2.8775	2.0484	1.3136	
-0.980758	0.290726	-0.091012	74.9	-56.7	-1.05	2.8682	2.0468	1.301	
-0.95465	0.315004	-0.088694	115.64	-36.19	-5.11	2.8712	2.0438	1.3042	
-0.941718	0.335744	-0.130906	117.67	-37.87	-3.01	2.8694	2.0286	1.3043	
-0.925126	0.37393	-0.198372	125.09	-39.06	-6.09	2.856	2.0207	1.3038	
-0.973072	0.344162	-0.148718	102.2	-54.6	-9.73	2.8662	2.0271	1.2997	
-0.954406	0.26718	-0.084424	112.49	-73.29	-13.23	2.8537	2.0235	1.3174	
-0.937692	0.267912	-0.062586	112.14	-61.04	-12.67	2.8558	2.0208	1.2993	
-0.996496	0.289994	-0.055754	109.41	-57.12	-12.32	2.857	2.0132	1.2964	
-1.048346	0.321104	-0.071492	109.9	-58.87	-9.52	2.8495	2.0101	1.2945	
-1.054812	0.313174	-0.07991	98.7	-59.78	-11.48	2.8509	2.004	1.2947	
-1.01016	0.329034	-0.045628	94.78	-57.47	-11.13	2.851	2.004	1.2993	
-0.957944	0.320128	-0.005734	74.76	-46.55	-16.1	2.851	2.0009	1.3008	
-0.965264	0.29463	-0.02013	61.39	-36.26	-20.37	2.8431	1.9948	1.2899	
-0.969046	0.241316	-0.031964	54.67	-29.82	-22.68	2.8523	2.0025	1.2948	
-0.967704	0.21411	-0.00244	45.78	-26.32	-24.78	2.8476	1.9964	1.29	
-0.978562	0.24522	0.030744	42.98	-25.41	-22.33	2.8444	2.0101	1.2776	
-0.945866	0.22631	0.0366	31.36	-21.77	-24.43	2.8445	2.001	1.2838	
-0.979416	0.17324	0.025986	21.91	-19.39	-22.4	2.8492	1.9995	1.2916	
-0.978928	0.132126	0.016958	19.04	-18.69	-19.46	2.8359	2.0007	1.288	
-0.992104	0.09333	0.014152	18.06	-16.03	-17.85	2.8517	2.0073	1.2794	
-0.987468	0.070638	0.01586	20.44	-13.79	-15.96	2.8372	2.0054	1.2834	
-0.992592	0.11407	0.025498	21.84	-12.67	-15.26	2.8519	2.0133	1.2794	
-0.970022	0.106018	0.017202	18.48	-9.94	-13.16	2.8478	2.0177	1.2837	
-1.000278	0.097112	0.023668	15.12	-7.35	-12.53	2.8481	2.0237	1.2882	
-0.996862	0.054046	0.028792	14.14	-5.46	-13.09	2.8418	2.0283	1.2742	
-1.028216	0.026108	0.046116	15.4	-4.41	-13.3	2.8433	2.0222	1.2789	
-1.039318	0.017324	0.04331	17.22	-4.62	-15.12	2.8491	2.0163	1.2808	
-1.02846	0.060634	0.072102	18.62	-6.23	-15.75	2.8493	2.0193	1.2838	
-1.000156	0.06771	0.080154	18.48	-6.44	-15.82	2.8551	2.0194	1.284	
-0.975878	0.078324	0.086376	16.31	-6.09	-15.47	2.8492	2.0239	1.2807	
-0.999668	0.054534	0.088206	12.74	-5.32	-15.75	2.848	2.0207	1.2867	
-1.007476	0.034404	0.090158	9.59	-5.81	-16.66	2.8487	2.0179	1.2701	
-0.994666	0.03111	0.10126	8.68	-6.09	-16.8	2.8526	2.0345	1.2853	
-1.000888	0.062342	0.114314	5.04	-5.74	-15.89	2.8507	2.033	1.2761	
-0.989664	0.041114	0.082838	-0.56	-4.06	-14	2.8475	2.03	1.2699	
-0.985272	0.036966	0.085766	-1.68	-2.38	-12.6	2.8512	2.036	1.2852	
-1.012234	0.03294	0.100284	-2.38	-0.91	-10.15	2.855	2.0332	1.2732	
-1.003328	0.02806	0.08845	-6.72	-0.28	-8.82	2.8542	2.0436	1.2837	
-0.987224	0.023058	0.07381	-7.84	1.12	-7.28	2.854	2.0391	1.2822	
-0.989054	0.028792	0.07198	-10.64	3.43	-5.74	2.8538	2.0361	1.2792	
-1.020042	0.004148	0.052338	-12.39	3.85	-4.62	2.8557	2.0421	1.2853	
-1.021262	-0.0122	0.05368	-13.44	4.69	-3.85	2.8568	2.0423	1.2762	
-0.99369	-0.00732	0.05551	-13.16	5.95	-3.36	2.8611	2.0455	1.2718	
-0.995764	-0.026718	0.053558	-14.49	8.26	-3.36	2.8511	2.0482	1.2774	
-1.028582	-0.030134	0.063318	-13.93	8.89	-2.66	2.8496	2.0405	1.2805	
-1.006988	-0.010492	0.054534	-14.77	7.49	-1.54	2.8567	2.0454	1.2716	
-0.985882	-0.040626	0.043432	-14	8.61	-0.84	2.8585	2.0529	1.2777	
-0.982222	0.00976	0.02501	-9.45	11.9	3.5	2.854	2.0483	1.2776	
-1.01443	0.012444	0.043432	-11.55	12.53	3.99	2.8567	2.0423	1.2747	
-1.025532	0.01037	0.036722	-13.23	10.78	3.01	2.8633	2.0453	1.2902	
-1.01016	0.025986	0.029524	-12.53	8.96	2.45	2.8573	2.0528	1.2837	
-0.958066	0.045628	0.018544	-12.81	11.06	0.42	2.8632	2.0468	1.2871	
-1.01382	0.044774	0.03355	-16.8	19.88	1.47	2.8665	2.0529	1.2933	
-1.043222	0.053802	0.02196	-17.99	18.48	0.63	2.859	2.0497	1.2915	
-1.002352	0.05185	-0.011956	-21.21	17.71	0.49	2.856	2.0436	1.2914	
-0.964044	0.055998	-0.04697	-32.06	24.92	-0.56	2.8631	2.0499	1.284	
-0.996008	0.079666	-0.008417999	-45.08	32.27	-1.89	2.8693	2.0576	1.2888	
-0.99979	0.08601	0.022204	-66.01	42.49	1.19	2.8713	2.0575	1.2995	
-0.987468	0.05307	-0.050142	-83.79	48.16	-0.07	2.8872	2.0655	1.291	
-1.002718	0.053314	-0.036722	-84.14	44.59	1.68	2.8629	2.0557	1.3114	
-1.004914	0.030622	-0.03355	-70.77	42.98	6.09	2.8775	2.0606	1.3074	
-1.027484	0.044164	-0.06832	-43.61	45.22	10.01	2.879	2.0698	1.3043	
-0.949526	0.109678	-0.0732	-34.93	51.87	11.41	2.8928	2.073	1.317	
-1.002108	0.07259	-0.107726	-38.92	52.22	8.05	2.8915	2.0759	1.3185	
-1.05896	0.085888	-0.147376	-10.29	46.69	1.82	2.8891	2.0742	1.3321	
-0.988078	0.20679	-0.211548	2.45	42	-4.83	2.8831	2.0711	1.3303	
-1.024556	0.034892	-0.298534	-47.25	31.43	-14.07	2.8935	2.0591	1.3401	
-0.924028	0.072834	-0.217282	-78.05	36.68	-11.69	2.8967	2.0667	1.3432	
-0.950746	0.107726	-0.161894	-81.97	35	-15.4	2.8967	2.0743	1.3385	
-1.029314	0.09357399	-0.210694	-67.9	28.42	-19.6	2.9016	2.0789	1.3493	
-0.971852	0.074298	-0.313052	-66.01	17.85	-24.22	2.8976	2.097	1.349	
-0.978562	0.069906	-0.344406	-84.42	17.22	-26.04	2.9046	2.0972	1.3416	
-1.000156	0.030988	-0.374174	-107.52	10.15	-35.28	2.9078	2.1033	1.3432	
-1.047858	0.013908	-0.331718	-141.96	9.38	-31.01	2.9049	2.1063	1.3431	
-1.05164	-0.030378	-0.295972	-139.3	10.85	-28.42	2.9078	2.1262	1.3323	
-1.025776	0.017446	-0.270596	-143.43	17.85	-28.91	2.9071	2.1412	1.3428	
-0.994544	0.009272	-0.280478	-136.92	19.11	-27.44	2.9096	2.1399	1.3322	
-0.989054	0.01769	-0.301462	-132.37	19.18	-25.97	2.9113	2.149	1.3337	
-1.023214	0.015982	-0.300364	-125.79	20.86	-24.92	2.9144	2.1612	1.3322	
-1.031876	0.017812	-0.302194	-128.59	18.69	-25.55	2.9147	2.1718	1.3321	
-1.015772	0.037942	-0.299754	-116.48	7.77	-25.69	2.9136	2.1763	1.3381	
-1.00162	0.08295999	-0.228506	-126.56	6.58	-24.36	2.9154	2.1854	1.3426	
-0.97783	0.09942999	-0.26108	-110.81	7.77	-27.37	2.9083	2.1882	1.3453	
-1.03029	0.11285	-0.307562	-101.5	7.07	-26.67	2.9103	2.2064	1.3498	
-0.977098	0.121512	-0.27206	-117.18	-0.14	-25.83	2.9128	2.2096	1.3377	
-0.976	0.128344	-0.276208	-117.88	-6.65	-25.9	2.9175	2.2173	1.3408	
-0.997106	0.137006	-0.277794	-123.97	-3.71	-24.57	2.9115	2.2202	1.336	
-1.030656	0.116144	-0.312442	-125.79	-10.36	-24.08	2.9164	2.2324	1.3421	
-1.001132	0.079422	-0.328058	-121.73	-16.45	-22.61	2.9139	2.2368	1.3481	
-1.046394	0.050508	-0.271206	-139.23	-17.78	-23.59	2.9124	2.2429	1.3449	
-1.00955	-0.02074	-0.28975	-146.72	-28	-24.64	2.9008	2.2609	1.3366	
-0.963068	-0.02928	-0.277184	-133.77	-22.96	-20.37	2.9068	2.2732	1.3352	
-0.935496	-0.028182	-0.275598	-126.35	-30.59	-20.72	2.9024	2.2792	1.3319	
-0.989054	-0.053558	-0.22509	-117.04	-31.64	-19.04	2.9037	2.2838	1.3258	
-1.007476	-0.045994	-0.221186	-112.35	-35.07	-23.73	2.9082	2.2854	1.3259	
-1.002962	-0.01952	-0.22875	-85.4	-23.87	-25.55	2.8967	2.2988	1.3253	
-0.980636	0.019276	-0.200324	-76.3	-25.69	-26.53	2.9027	2.2989	1.3271	
-1.00589	0.01037	-0.166286	-84.84	-21.07	-29.61	2.8958	2.3185	1.3265	
-0.989176	-0.028182	-0.138714	-95.62	-16.52	-29.33	2.8975	2.3291	1.328	
