Sensor string: A
Serial number: 1970-01-0000
Firmware version: 2,015
Hardware version: 2,2
Calibration quality: 5
ax	ay	az	gx	gy	gz	mx	my	mz

0.31415	0.883036	0.346846	0.84	-0.42	0	-0.2445	-0.2815	-0.379	Reference
0.309758	0.88389	0.34831	0.21	0	0.07	-0.2387	-0.2801	-0.3805	
0.30988	0.88267	0.347334	-0.28	-0.21	0.63	-0.2473	-0.283	-0.382	
0.31354	0.878644	0.349164	0	-0.7	0.35	-0.2459	-0.2815	-0.3835	
0.314394	0.881328	0.3477	0.14	-0.77	0.28	-0.2402	-0.2755	-0.3836	
0.310612	0.881694	0.350506	0.21	-0.35	0.35	-0.2502	-0.286	-0.3789	
0.311832	0.880352	0.349774	0	-0.07	0.35	-0.2473	-0.2891	-0.3759	
0.315126	0.878766	0.351116	0.14	0.14	0.49	-0.2429	-0.2846	-0.3851	
0.315248	0.881816	0.349042	0.56	-0.07	0.35	-0.2444	-0.283	-0.382	
0.31049	0.882792	0.343064	0.63	-0.35	0.35	-0.2489	-0.2799	-0.3713	
0.316468	0.888526	0.352214	0.42	0.35	0.49	-0.2415	-0.2861	-0.3759	
0.307806	0.882182	0.346846	-0.21	0.49	0.56	-0.2503	-0.2814	-0.382	
0.307684	0.88633	0.345748	0.21	0	0.49	-0.2473	-0.2876	-0.3851	
0.313296	0.885598	0.345504	0	0.42	0.28	-0.2415	-0.2786	-0.3943	
0.30988	0.88206	0.345382	-0.35	0.77	0.49	-0.2473	-0.2891	-0.382	
0.310612	0.882548	0.347212	-0.28	0.35	0.28	-0.2504	-0.2739	-0.385	
0.310368	0.882182	0.348798	-0.14	-0.21	0.07	-0.2445	-0.2785	-0.3851	
0.310124	0.88145	0.34892	-0.42	0	0.07	-0.2446	-0.2769	-0.3728	
0.310002	0.880962	0.349164	-0.28	-0.14	-0.07	-0.2416	-0.277	-0.379	
0.307806	0.885354	0.349408	0.14	-0.56	-0.35	-0.2488	-0.2769	-0.3881	
0.31049	0.883158	0.350628	-0.14	-0.28	-0.49	-0.2575	-0.2859	-0.3804	
0.3111	0.881572	0.35075	-0.35	-0.28	-0.49	-0.2502	-0.286	-0.385	
0.311954	0.88328	0.349286	-0.07	-0.42	-0.7	-0.2431	-0.2755	-0.382	
0.311954	0.883646	0.349408	-0.07	-0.56	-0.56	-0.2504	-0.2708	-0.3865	
0.30988	0.88511	0.348188	-0.35	-0.42	-0.49	-0.2445	-0.283	-0.3759	
0.307074	0.884378	0.3477	-0.63	-0.42	-0.49	-0.2487	-0.2845	-0.3927	
0.309514	0.879742	0.347578	-0.77	-0.35	-0.42	-0.2416	-0.2785	-0.382	
0.312076	0.879742	0.348066	-0.49	-0.35	-0.35	-0.2416	-0.28	-0.3744	
0.312442	0.884012	0.349286	-0.21	-0.49	-0.35	-0.2503	-0.2739	-0.3896	
0.310612	0.880962	0.348798	-0.35	-0.42	-0.28	-0.2459	-0.283	-0.3774	
0.3111	0.880718	0.348676	-0.35	-0.42	-0.14	-0.2474	-0.2769	-0.3866	
0.310734	0.882182	0.349408	-0.07	-0.35	-0.14	-0.2473	-0.286	-0.3835	
0.3111	0.883646	0.3477	-0.07	-0.35	-0.14	-0.2373	-0.274	-0.3805	
0.31171	0.883768	0.349408	-0.07	0	0	-0.2371	-0.2862	-0.3851	
0.308904	0.884134	0.348188	0.14	0.07	0.07	-0.2416	-0.2785	-0.3774	
0.306586	0.887184	0.348188	-0.42	0.28	0.21	-0.2457	-0.2906	-0.3882	
0.305122	0.884622	0.346114	-0.7	0.35	0.42	-0.243	-0.2785	-0.382	
0.30622	0.885964	0.347822	-0.56	0.56	0.49	-0.2429	-0.2891	-0.379	
0.306708	0.88206	0.348554	-0.7	0.63	0.35	-0.2386	-0.2847	-0.3882	
0.309636	0.880596	0.345992	-0.35	0.49	0.49	-0.243	-0.2861	-0.3683	
0.301828	0.888038	0.341478	0.14	-0.35	0.21	-0.2402	-0.2785	-0.379	
0.302316	0.883524	0.341478	-0.49	-0.56	0	-0.2502	-0.2815	-0.3866	
0.320982	0.880108	0.341966	-0.63	-0.49	-0.14	-0.2445	-0.2739	-0.385	
0.329766	0.88206	0.34648	0.21	-0.49	-0.56	-0.243	-0.2831	-0.3836	
0.312198	0.902312	0.3416	0.84	-0.91	-0.77	-0.2459	-0.283	-0.382	
0.29646	0.912072	0.33855	-1.05	-0.49	0.14	-0.2517	-0.2814	-0.382	
0.29951	0.901946	0.338428	-3.01	0.42	0.84	-0.2487	-0.2951	-0.3759	
0.29829	0.897798	0.342088	-3.5	1.33	1.26	-0.2503	-0.2814	-0.3804	
0.292068	0.891576	0.337452	-3.78	1.33	1.19	-0.2402	-0.2755	-0.3836	
0.294996	0.89792	0.339038	-3.85	1.12	2.31	-0.2459	-0.283	-0.3774	
0.2989	0.896456	0.33733	-4.41	1.4	2.59	-0.2401	-0.2816	-0.382	
0.302072	0.88999	0.342088	-5.04	1.96	3.36	-0.2431	-0.274	-0.3835	
0.299266	0.889624	0.34099	-5.53	1.54	3.85	-0.2474	-0.2754	-0.3866	
0.305976	0.89426	0.345138	-5.39	1.05	3.85	-0.2502	-0.283	-0.3927	
0.302316	0.886208	0.344406	-6.44	1.05	4.27	-0.2401	-0.2816	-0.3851	
0.308416	0.889014	0.348798	-6.72	1.96	4.69	-0.2445	-0.2709	-0.3958	
0.309392	0.891576	0.3477	-6.79	1.75	4.48	-0.2388	-0.2695	-0.3866	
0.307806	0.888648	0.340258	-7.14	1.47	4.62	-0.2489	-0.2739	-0.385	
0.312564	0.89365	0.327936	-6.86	1.26	5.6	-0.2475	-0.2693	-0.3865	
0.327448	0.903898	0.32696	-6.44	0.7	6.02	-0.2431	-0.2694	-0.3896	
0.312808	0.920368	0.337452	-7.14	0.56	6.79	-0.2518	-0.2647	-0.3972	
0.2989	0.925004	0.33489	-11.83	2.31	8.82	-0.2489	-0.2724	-0.385	
0.319518	0.90646	0.350262	-14.14	3.99	9.17	-0.2459	-0.2724	-0.3957	
0.32086	0.886086	0.353556	-15.89	6.44	9.8	-0.2504	-0.2632	-0.3942	
0.313784	0.88511	0.365878	-17.5	8.33	11.2	-0.2433	-0.2512	-0.3942	
0.30866	0.869006	0.372466	-18.97	9.1	11.76	-0.2463	-0.2466	-0.4018	
0.315004	0.852658	0.380152	-18.9	7.91	11.9	-0.2476	-0.2527	-0.4003	
0.334158	0.84546	0.3904	-18.34	7.49	12.39	-0.2491	-0.2572	-0.3957	
0.339282	0.850096	0.39406	-17.85	7.28	12.6	-0.239	-0.2482	-0.4003	
0.332694	0.857294	0.39894	-18.69	6.51	13.16	-0.2536	-0.245	-0.4002	
0.331108	0.848632	0.407846	-20.23	6.37	13.51	-0.2491	-0.2481	-0.4064	
0.336476	0.836554	0.417606	-20.86	5.95	13.79	-0.2535	-0.242	-0.414	
0.340258	0.823378	0.428708	-22.26	6.02	13.79	-0.2565	-0.2404	-0.4109	
0.330254	0.819108	0.433588	-21.28	5.32	12.67	-0.2478	-0.2314	-0.4155	
0.33306	0.815326	0.44042	-21.49	5.25	12.25	-0.2581	-0.2191	-0.42	
0.349652	0.811544	0.446276	-21.56	4.69	12.39	-0.2581	-0.2237	-0.4154	
0.3477	0.808982	0.453108	-21.56	3.43	12.74	-0.2509	-0.2177	-0.4185	
0.351604	0.813496	0.454694	-22.82	-6.51	15.12	-0.2493	-0.2254	-0.4246	
0.353678	0.814106	0.455182	-17.92	1.89	11.2	-0.2538	-0.2131	-0.4261	
0.366	0.795562	0.465674	-27.02	4.83	14.42	-0.2583	-0.2115	-0.4184	
0.359534	0.801296	0.473116	-25.76	5.18	14.07	-0.2568	-0.2116	-0.423	
0.344528	0.801296	0.478484	-26.88	4.27	14.28	-0.254	-0.2055	-0.42	
0.360266	0.77958	0.478972	-27.37	2.94	13.44	-0.2467	-0.2011	-0.4231	
0.364414	0.769698	0.484706	-30.03	3.15	15.05	-0.2642	-0.1948	-0.4321	
0.365634	0.770796	0.489708	-30.31	5.39	14.98	-0.257	-0.1888	-0.4352	
0.358558	0.766526	0.494344	-30.94	2.73	15.33	-0.2614	-0.1842	-0.4367	
0.368318	0.752496	0.502274	-29.47	3.71	14.63	-0.2644	-0.1735	-0.4412	
0.363682	0.749446	0.512278	-33.11	4.48	16.52	-0.2544	-0.1646	-0.4428	
0.35441	0.731878	0.518866	-37.17	5.6	18.55	-0.2588	-0.1614	-0.4412	
0.376004	0.706014	0.535702	-36.75	1.47	18.55	-0.2647	-0.1522	-0.4411	
0.378444	0.695034	0.544852	-37.8	2.24	20.23	-0.2617	-0.1554	-0.4519	
0.37942	0.67832	0.55205	-37.38	2.52	21.21	-0.2562	-0.1402	-0.4473	
0.38003	0.673562	0.568398	-36.61	2.45	21.49	-0.262	-0.1386	-0.4518	
0.38003	0.658312	0.575962	-38.15	1.68	21.98	-0.2607	-0.1295	-0.4472	
0.401746	0.631228	0.586942	-37.66	-0.35	21.91	-0.2636	-0.1249	-0.4457	
0.401502	0.628788	0.596336	-36.47	0.63	22.19	-0.268	-0.1218	-0.4579	
0.407114	0.617442	0.604754	-36.96	0.07	22.75	-0.2783	-0.1156	-0.4516	
0.425536	0.598166	0.619028	-38.64	-0.35	22.89	-0.2681	-0.1082	-0.467	
0.44591	0.579378	0.638182	-37.17	-0.63	22.12	-0.2741	-0.0959	-0.4608	
0.457256	0.549976	0.640866	-37.66	-0.28	22.19	-0.2655	-0.087	-0.4639	
0.470798	0.534604	0.642574	-37.03	-0.98	22.54	-0.2727	-0.0853	-0.47	
0.470432	0.517036	0.649406	-35.35	0.77	22.19	-0.2744	-0.07009999	-0.4714	
0.4697	0.510204	0.655628	-34.93	1.75	22.75	-0.2702	-0.0641	-0.4684	
0.458476	0.51545	0.655872	-33.81	1.89	23.24	-0.2758	-0.0762	-0.4607	
0.456402	0.509106	0.667706	-35	3.64	24.29	-0.2731	-0.058	-0.4699	
0.454816	0.483974	0.675148	-36.12	4.41	23.87	-0.2717	-0.058	-0.4638	
0.455914	0.460672	0.679784	-37.38	0.77	24.92	-0.2647	-0.0399	-0.4622	
0.460794	0.445178	0.684542	-34.23	2.59	23.31	-0.2807	-0.0336	-0.4743	
0.473726	0.429928	0.69113	-37.1	3.22	25.13	-0.2678	-0.0277	-0.4683	
0.483242	0.41663	0.69967	-37.1	2.94	26.18	-0.2706	-0.0246	-0.4774	
0.482022	0.397598	0.70211	-37.38	2.66	26.6	-0.2736	-0.02	-0.4728	
0.479582	0.39528	0.713578	-36.47	2.31	26.67	-0.268	-0.014	-0.4652	
0.470554	0.38918	0.713944	-38.92	3.15	28.21	-0.2624	0.0009999999	-0.4621	
0.487268	0.37088	0.72163	-39.62	2.03	27.86	-0.2712	0.0088	-0.4666	
0.502518	0.335622	0.727974	-40.46	1.68	27.93	-0.2712	0.0133	-0.4743	
0.50508	0.314638	0.731878	-40.67	-2.87	29.12	-0.2716	0.0331	-0.462	
0.51728	0.30683	0.73688	-36.68	-0.14	27.02	-0.2699	0.0239	-0.4712	
0.517646	0.295362	0.7442	-39.83	2.52	28.7	-0.273	0.0346	-0.4665	
0.52765	0.281942	0.75823	-39.2	2.45	28.77	-0.2776	0.0514	-0.4741	
0.531188	0.242658	0.761402	-39.97	3.43	29.05	-0.269	0.0589	-0.4665	
0.52399	0.233386	0.772138	-39.27	3.57	29.75	-0.2689	0.0558	-0.468	
0.538508	0.22265	0.782874	-38.99	-1.26	28.42	-0.2691	0.068	-0.4634	
0.53436	0.206424	0.777872	-39.76	2.31	28.84	-0.2634	0.077	-0.465	
0.540948	0.177876	0.782508	-39.69	3.57	28.7	-0.2692	0.0771	-0.4756	
0.536678	0.151524	0.78141	-38.71	2.38	26.81	-0.2622	0.0846	-0.4542	
0.533018	0.141154	0.782508	-37.1	1.47	25.69	-0.255	0.0997	-0.4665	
0.528016	0.141764	0.792512	-37.59	1.89	25.06	-0.2653	0.1029	-0.4649	
0.524234	0.107482	0.790926	-38.99	3.01	24.01	-0.2654	0.1105	-0.4618	
0.554612	0.072224	0.820572	-38.29	2.59	24.22	-0.2568	0.1195	-0.4618	
0.563274	0.057584	0.832162	-35.7	-0.21	24.08	-0.2598	0.1287	-0.4602	
0.585478	0.049898	0.846558	-32.13	0.42	21.63	-0.2627	0.1226	-0.4526	
0.594018	0.044164	0.864858	-34.79	4.27	22.68	-0.2528	0.1407	-0.4587	
0.590358	0.03111	0.85522	-32.83	4.2	20.37	-0.263	0.1469	-0.4586	
0.574742	0.024522	0.859368	-32.83	3.43	19.6	-0.2587	0.1514	-0.4602	
0.574132	0.005612	0.844972	-31.71	3.78	17.5	-0.2532	0.1635	-0.4479	
0.573644	0	0.851072	-30.52	4.48	16.8	-0.2574	0.159	-0.451	
0.567544	-0.024766	0.842288	-28.49	5.04	15.33	-0.246	0.1726	-0.4495	
0.564128	-0.058438	0.84058	-26.39	4.69	14.98	-0.2461	0.1801	-0.451	
0.557784	-0.061854	0.8357	-22.47	4.97	13.79	-0.2462	0.1832	-0.4449	
0.557662	-0.07442	0.841678	-20.65	4.76	12.95	-0.239	0.1876	-0.448	
0.557662	-0.083326	0.857782	-19.6	5.95	12.81	-0.2389	0.1816	-0.4449	
0.566812	-0.105164	0.885598	-17.5	5.11	11.55	-0.2391	0.1953	-0.4418	
0.565226	-0.111752	0.887062	-16.45	5.39	11.2	-0.2406	0.1968	-0.4388	
0.571326	-0.109434	0.901336	-14.98	4.13	9.59	-0.2305	0.1967	-0.4373	
0.578402	-0.127734	0.906582	-13.44	2.1	7.91	-0.2391	0.1968	-0.4403	
0.580232	-0.161406	0.917806	-11.2	3.5	6.51	-0.2318	0.1936	-0.4419	
0.58255	-0.17446	0.907192	-6.72	1.68	4.62	-0.2349	0.2074	-0.4418	
0.589382	-0.173972	0.912804	-1.61	-0.07	1.05	-0.2306	0.2073	-0.4357	
0.601094	-0.177266	0.905362	1.33	-0.28	-1.33	-0.2319	0.1982	-0.4419	
0.59231	-0.155184	0.898896	6.3	-0.98	-4.06	-0.2392	0.2029	-0.4403	
0.58255	-0.139446	0.897676	8.68	-0.7	-5.95	-0.2305	0.1982	-0.4404	
0.567056	-0.136396	0.889136	10.08	-0.28	-7.28	-0.2393	0.2074	-0.4433	
0.56303	-0.134078	0.883524	12.32	-0.63	-9.03	-0.2291	0.1982	-0.4327	
0.56425	-0.117364	0.876936	15.4	-1.47	-11.41	-0.2434	0.1878	-0.4327	
0.562908	-0.096746	0.871446	17.5	-1.61	-13.16	-0.2331	0.183	-0.4434	
0.562908	-0.076494	0.86559	18.55	-1.19	-14.49	-0.2304	0.1936	-0.4419	
0.571448	-0.061366	0.863516	19.53	-0.21	-15.12	-0.2346	0.1906	-0.4495	
0.55937	-0.046726	0.85644	20.79	0.56	-15.54	-0.2345	0.1785	-0.4496	
0.54778	-0.02867	0.862296	21	2.03	-15.96	-0.2387	0.1694	-0.445	
0.543266	-0.027816	0.863516	22.26	1.54	-17.43	-0.2418	0.1816	-0.451	
0.545828	-0.01647	0.865956	23.03	1.33	-17.92	-0.237	0.1587	-0.4603	
0.546316	-0.010858	0.871324	24.15	1.4	-18.83	-0.2414	0.1588	-0.4542	
0.541314	-0.005612	0.863882	26.04	0.91	-19.11	-0.2472	0.1574	-0.4572	
0.53863	0.01342	0.852414	29.12	-0.49	-20.65	-0.234	0.148	-0.4558	
0.532896	0.027206	0.848388	29.68	0.07	-20.86	-0.2442	0.1528	-0.4557	
0.538386	0.03416	0.848876	31.22	-0.49	-22.05	-0.2468	0.133	-0.4634	
0.54595	0.029646	0.849486	33.81	-1.12	-23.24	-0.2497	0.1346	-0.4618	
0.536068	0.043066	0.846558	35.07	-0.56	-23.45	-0.2425	0.1345	-0.4588	
0.522648	0.068198	0.843752	36.96	-0.7	-24.36	-0.2497	0.1255	-0.4573	
0.522038	0.080154	0.841312	38.22	-1.47	-25.34	-0.2437	0.1178	-0.4604	
0.52765	0.087352	0.841678	39.62	-2.31	-25.97	-0.2509	0.1133	-0.4634	
0.519476	0.106628	0.831064	41.51	-2.38	-26.53	-0.2595	0.1013	-0.4603	
0.513132	0.122488	0.824354	42.35	-3.36	-27.37	-0.2564	0.0937	-0.4619	
0.515694	0.13786	0.82167	43.89	-3.57	-28.77	-0.259	0.0769	-0.4711	
0.515084	0.154208	0.820084	45.43	-3.99	-29.68	-0.2562	0.0769	-0.4635	
0.5124	0.17263	0.808982	47.04	-4.41	-31.01	-0.2647	0.0709	-0.4741	
0.496906	0.202276	0.794708	47.67	-4.76	-31.57	-0.2602	0.0542	-0.4666	
0.496418	0.226188	0.79605	49.14	-5.88	-32.55	-0.2572	0.048	-0.4727	
0.488244	0.240462	0.772626	50.54	-4.34	-33.46	-0.2571	0.042	-0.4728	
0.491538	0.25437	0.767136	51.59	-6.16	-33.95	-0.2583	0.0343	-0.485	
0.492026	0.280234	0.75335	53.9	-5.11	-35.14	-0.2655	0.0208	-0.4697	
0.477508	0.30256	0.743956	54.04	-5.67	-35	-0.2682	0.0102	-0.4819	
0.465186	0.324764	0.731634	56	-5.04	-35.56	-0.2682	0.0056	-0.4758	
0.446764	0.357948	0.710528	57.26	-3.43	-36.4	-0.2709	-0.0154	-0.4606	
0.459452	0.378322	0.708454	55.51	-7.77	-35.63	-0.2635	-0.0186	-0.4729	
0.468236	0.399306	0.69235	58.66	-4.2	-37.1	-0.2707	-0.0231	-0.4759	
0.430294	0.423096	0.678686	55.72	-2.31	-35.07	-0.2646	-0.0429	-0.476	
0.427732	0.452254	0.676368	57.61	-5.25	-36.19	-0.2762	-0.0488	-0.4683	
0.433588	0.471286	0.660752	57.68	-5.46	-36.47	-0.2746	-0.0625	-0.4622	
0.426878	0.497394	0.63196	57.89	-4.27	-35.63	-0.2685	-0.0808	-0.4593	
0.406138	0.545218	0.622444	59.57	-4.41	-35.49	-0.2669	-0.0991	-0.4547	
0.393938	0.578768	0.61305	59.01	-4.2	-36.47	-0.268	-0.1113	-0.4716	
0.382226	0.584868	0.587796	56.14	-3.64	-35.14	-0.271	-0.1157	-0.4532	
0.375028	0.594628	0.576206	55.58	-4.97	-34.09	-0.2606	-0.1311	-0.4518	
0.375394	0.617198	0.558394	57.26	-6.23	-35.84	-0.2722	-0.1354	-0.4487	
0.369172	0.631716	0.550464	55.37	-4.69	-35.49	-0.2691	-0.1446	-0.4549	
0.376004	0.649772	0.536922	55.23	-6.09	-35.63	-0.2588	-0.163	-0.4412	
0.376004	0.689056	0.53009	56.28	-6.37	-36.05	-0.2529	-0.1646	-0.4489	
0.368196	0.720654	0.511546	54.95	-6.23	-35.63	-0.26	-0.1766	-0.4413	
0.371368	0.736026	0.493856	53.62	-5.18	-34.23	-0.257	-0.1918	-0.4367	
0.356362	0.74176	0.474824	53.76	-6.72	-34.44	-0.2527	-0.1919	-0.4245	
0.32818	0.750178	0.43615	54.6	-6.72	-35.63	-0.2554	-0.2025	-0.4261	
0.293532	0.786046	0.40321	53.69	-4.06	-33.74	-0.2538	-0.2132	-0.4338	
0.273158	0.817156	0.38308	52.22	-7.49	-33.11	-0.2508	-0.2253	-0.4155	
0.280844	0.813374	0.379542	49	-9.59	-32.27	-0.2522	-0.2268	-0.417	
0.283772	0.809104	0.376492	46.2	-8.12	-30.52	-0.2551	-0.2374	-0.4078	
0.267912	0.812886	0.36539	46.97	-6.58	-30.94	-0.2447	-0.2497	-0.4079	
0.272182	0.81984	0.371856	48.23	-7.42	-31.22	-0.2448	-0.2497	-0.4018	
0.285602	0.831918	0.351482	50.05	-5.88	-31.43	-0.236	-0.2589	-0.3927	
0.285602	0.839848	0.342942	51.31	-6.65	-30.8	-0.2345	-0.2619	-0.3881	
0.277916	0.848022	0.322568	52.92	-6.09	-31.08	-0.2372	-0.2756	-0.3897	
0.265472	0.857782	0.299998	55.09	-8.12	-32.2	-0.2269	-0.2848	-0.3867	
0.245098	0.849364	0.281454	54.81	-6.23	-31.78	-0.2385	-0.2998	-0.3714	
0.25132	0.833016	0.259494	57.61	-7	-32.97	-0.231	-0.3075	-0.3776	
0.240218	0.85827	0.224846	62.51	-7.63	-34.02	-0.2253	-0.3076	-0.37	
0.207644	0.929518	0.210328	66.36	-8.68	-33.39	-0.2251	-0.3273	-0.3532	
0.171654	0.984784	0.193736	63.7	-3.64	-32.69	-0.2251	-0.3258	-0.3547	
0.15311	0.988566	0.174094	58.66	-4.9	-31.92	-0.218	-0.3259	-0.341	
0.165188	0.984174	0.138104	55.93	-4.06	-32.34	-0.2104	-0.3518	-0.3381	
0.184098	0.981978	0.105286	56.21	-7.14	-33.25	-0.2133	-0.3518	-0.3381	
0.16714	1.029558	0.08113	56.63	-4.2	-32.9	-0.2134	-0.3502	-0.3182	
0.128466	1.09007	0.085278	54.95	-5.39	-30.73	-0.2016	-0.3655	-0.3137	
0.109312	1.066768	0.059414	45.22	-1.75	-26.95	-0.2016	-0.3701	-0.3076	
0.128344	1.02114	0.049166	41.09	-1.89	-24.15	-0.2031	-0.37	-0.3061	
0.119438	1.011258	0.032696	39.55	-0.91	-22.96	-0.1928	-0.3808	-0.2955	
0.082228	1.031754	0.017568	38.64	-0.21	-21.77	-0.1827	-0.3779	-0.291	
0.062098	1.05591	0.010492	36.12	-1.26	-19.67	-0.1841	-0.384	-0.291	
0.044896	1.05591	-0.002196	34.09	-3.08	-19.74	-0.1839	-0.3931	-0.2971	
0.05124	1.05225	0.000366	32.69	-4.62	-18.2	-0.1884	-0.396	-0.2741	
0.064538	1.045174	0.000854	31.64	-5.81	-19.6	-0.1752	-0.4038	-0.2758	
0.053436	1.037244	-0.028304	31.15	-4.2	-21.49	-0.1867	-0.4112	-0.2696	
0.098332	1.01809	-0.053192	30.8	-11.06	-22.47	-0.1767	-0.4083	-0.2651	
0.076982	1.086898	-0.044286	31.22	-10.29	-23.1	-0.1768	-0.4022	-0.2574	
0.019886	1.088606	-0.03782	26.6	-10.64	-21.84	-0.1693	-0.4145	-0.2606	
0.034648	1.05469	-0.045872	20.09	-7.63	-16.59	-0.1636	-0.41	-0.2606	
0.047946	1.017846	-0.079544	19.18	-6.37	-14.35	-0.1564	-0.4131	-0.2454	
0.087962	1.021628	-0.069784	22.89	-3.99	-15.61	-0.1636	-0.4191	-0.2423	
0.044652	1.06079	-0.073078	26.95	-4.27	-18.69	-0.1564	-0.4146	-0.2423	
0.007442	1.066402	-0.077348	24.85	-6.65	-19.39	-0.1534	-0.4222	-0.2393	
0.01037	1.069208	-0.088816	22.26	-6.65	-18.9	-0.1565	-0.4131	-0.2285	
0.024522	1.041636	-0.10309	20.79	-11.34	-18.06	-0.1547	-0.4314	-0.2408	
0.018544	1.034682	-0.103334	21.63	-7.7	-16.66	-0.1446	-0.4315	-0.2256	
-0.018422	1.063474	-0.102724	21.35	-8.61	-15.19	-0.1604	-0.4404	-0.2362	
-0.040626	1.083604	-0.115168	18.76	-11.69	-14.77	-0.1489	-0.4375	-0.2225	
-0.035624	1.072502	-0.10309	16.03	-12.18	-14.21	-0.1462	-0.4314	-0.2118	
0.000488	1.02175	-0.111508	12.6	-9.17	-11.76	-0.1417	-0.4406	-0.215	
0.051484	0.98759	-0.111386	13.93	-8.96	-12.11	-0.1461	-0.436	-0.2118	
0.037576	0.991128	-0.11834	17.5	-11.55	-14.7	-0.1388	-0.4406	-0.2119	
-0.00122	1.026264	-0.127856	16.17	-12.18	-13.72	-0.1343	-0.4483	-0.212	
-0.02074	1.051518	-0.114802	11.13	-10.5	-10.5	-0.146	-0.4466	-0.2012	
-0.028914	1.039928	-0.107116	5.32	0.28	-7.63	-0.1331	-0.4407	-0.2012	
-0.037088	0.99674	-0.102724	-2.59	-2.73	0.84	-0.1417	-0.4436	-0.2073	
0.013542	0.978074	-0.121878	4.41	-0.07	-3.5	-0.1344	-0.4437	-0.2089	
0.02318	1.016016	-0.11346	7.63	-2.59	-6.02	-0.1374	-0.4391	-0.2043	
0.01037	1.05774	-0.118462	9.59	-5.32	-8.89	-0.1476	-0.4405	-0.1996	
-0.005368	1.037	-0.127612	4.27	-4.76	-4.97	-0.1372	-0.4528	-0.2074	
-0.00122	1.017724	-0.127734	1.47	-0.91	0.28	-0.136	-0.4391	-0.2028	
-0.011834	1.026508	-0.13847	2.03	0.35	0.7	-0.1417	-0.4496	-0.1966	
-0.027084	1.033706	-0.141276	1.05	1.12	1.68	-0.1329	-0.4498	-0.2043	
-0.025376	1.038708	-0.130296	-0.28	3.64	2.38	-0.1315	-0.4453	-0.2043	
-0.027694	1.037366	-0.131394	-2.94	4.76	3.78	-0.1359	-0.4422	-0.2074	
-0.030378	1.01748	-0.135664	-5.6	3.29	4.9	-0.1314	-0.4498	-0.2059	
-0.026352	1.010892	-0.137372	-4.69	1.47	3.92	-0.1302	-0.4377	-0.2043	
-0.007076	1.012844	-0.136518	-4.76	2.24	3.29	-0.1346	-0.4361	-0.1936	
-0.027084	1.035536	-0.121268	-4.55	1.47	3.64	-0.1315	-0.4437	-0.2059	
-0.057584	1.04005	-0.124928	-7	1.05	3.92	-0.1315	-0.4437	-0.2059	
0.00183	1.007476	-0.116876	-10.22	3.57	6.09	-0.1346	-0.43	-0.2027	
0.014762	1.024556	-0.117364	-7.07	1.19	4.41	-0.1387	-0.4437	-0.2119	
-0.009028	1.024678	-0.113216	-7.63	0.56	3.85	-0.149	-0.4374	-0.2149	
-0.019398	1.032486	-0.112728	-8.82	1.75	4.83	-0.1432	-0.4375	-0.218	
-0.014762	1.031754	-0.110288	-10.36	2.31	5.88	-0.1491	-0.4374	-0.2011	
0.00488	1.025288	-0.105408	-10.64	2.52	6.09	-0.1373	-0.4376	-0.218	
0.0061	1.026142	-0.101016	-10.01	1.82	6.23	-0.146	-0.439	-0.2164	
-0.002074	1.038342	-0.099552	-9.73	2.03	5.88	-0.1462	-0.4299	-0.2164	
-0.00854	1.028948	-0.097844	-11.9	3.15	6.79	-0.1417	-0.4391	-0.2211	
0.002074	1.006744	-0.099796	-13.65	3.64	8.75	-0.1403	-0.4345	-0.2165	
0.00732	1.011868	-0.101016	-11.9	3.08	9.03	-0.1462	-0.4299	-0.2179	
-0.002928	1.03822	-0.096136	-10.43	2.31	8.54	-0.146	-0.4405	-0.2226	
-0.012688	1.041026	-0.090646	-13.3	1.96	9.8	-0.1461	-0.436	-0.218	
-0.008905999	1.044076	-0.089426	-15.89	2.24	11.76	-0.1533	-0.4313	-0.2271	
-0.002684	1.041392	-0.0854	-17.71	2.8	13.02	-0.1533	-0.4344	-0.224	
0.014762	1.037366	-0.07747	-19.32	4.34	14.42	-0.1548	-0.4313	-0.2301	
0.020008	1.051152	-0.064904	-19.39	3.99	15.05	-0.1576	-0.4313	-0.2439	
0.011956	1.061278	-0.062708	-20.58	3.92	15.33	-0.1519	-0.4223	-0.2408	
0.020984	1.042124	-0.052704	-24.5	6.09	17.92	-0.1608	-0.4145	-0.2331	
0.035868	1.033584	-0.046726	-25.62	7.07	19.95	-0.1622	-0.4176	-0.2423	
0.040504	1.027118	-0.044164	-26.6	7.77	20.51	-0.165	-0.4206	-0.2484	
0.05612	1.01199	-0.034404	-26.32	8.68	20.65	-0.1678	-0.416	-0.2621	
0.07015	1.016748	-0.027816	-24.92	8.33	20.72	-0.1737	-0.4114	-0.2621	
0.06405	1.040538	-0.029402	-25.2	7.21	21.35	-0.1664	-0.413	-0.2621	
0.053192	1.050054	-0.023668	-27.02	6.37	22.05	-0.1724	-0.4053	-0.259	
0.062708	1.038586	-0.01586	-29.61	7.28	23.52	-0.1767	-0.4083	-0.2651	
0.077836	1.033584	0.004148	-30.45	8.4	24.08	-0.184	-0.3991	-0.2711	
0.074786	1.034438	0.015982	-31.22	8.19	23.52	-0.181	-0.4037	-0.2803	
0.084912	1.016626	0.029158	-31.92	8.33	22.82	-0.1971	-0.3974	-0.2741	
0.100406	0.993446	0.038674	-30.24	7.42	22.54	-0.1854	-0.3991	-0.2834	
0.118584	0.99857	0.043798	-29.89	6.37	22.89	-0.1913	-0.3854	-0.294	
0.126758	1.01138	0.056608	-31.5	6.16	23.1	-0.1928	-0.3838	-0.2924	
0.13664	0.98942	0.070882	-31.64	6.58	23.87	-0.2015	-0.3822	-0.2939	
0.14518	0.98027	0.080398	-32.9	7.28	24.99	-0.1914	-0.3778	-0.2985	
0.152622	0.989786	0.098454	-33.04	8.47	25.27	-0.2002	-0.3686	-0.3046	
0.157868	0.989054	0.108458	-33.6	8.61	25.41	-0.2058	-0.3807	-0.3076	
0.132614	0.982588	0.116998	-34.16	10.36	27.23	-0.2118	-0.3639	-0.3091	
0.210938	0.960506	0.127368	-33.18	-8.19	26.6	-0.2031	-0.3655	-0.3137	
0.18605	0.976976	0.121878	-35.63	9.73	29.05	-0.2119	-0.3533	-0.3259	
0.189222	0.95709	0.144814	-36.61	9.59	31.29	-0.2118	-0.3533	-0.3304	
0.20984	0.962092	0.157502	-34.23	6.65	28.49	-0.2207	-0.3395	-0.3365	
0.198616	0.956724	0.172142	-37.17	8.05	29.68	-0.2322	-0.3484	-0.3318	
0.223382	0.94672	0.1952	-39.55	9.24	31.64	-0.2266	-0.3333	-0.341	
0.231922	0.92415	0.2074	-43.05	11.9	32.62	-0.234	-0.3241	-0.3363	
0.244244	0.899506	0.233264	-43.68	10.71	33.04	-0.2383	-0.318	-0.3577	
0.266326	0.8967	0.248758	-42.84	8.82	34.44	-0.2382	-0.3226	-0.3592	
0.282308	0.889746	0.266326	-43.82	12.39	35.84	-0.2341	-0.3059	-0.3607	
0.265106	0.879376	0.291458	-43.54	11.13	34.02	-0.2313	-0.2969	-0.3669	
0.258396	0.86132	0.302194	-44.52	8.26	31.85	-0.2415	-0.2891	-0.3713	
0.291946	0.83143	0.317322	-43.05	5.18	31.36	-0.2327	-0.2908	-0.3791	
0.335988	0.83997	0.345504	-42.91	6.72	31.92	-0.2473	-0.2876	-0.3774	
0.360632	0.842166	0.363926	-42.84	6.93	30.73	-0.246	-0.2785	-0.3805	
0.334646	0.821548	0.374052	-44.1	7.77	28.77	-0.2475	-0.2618	-0.3957	
0.337696	0.8174	0.397964	-42.49	5.6	28.35	-0.2533	-0.2602	-0.4018	
0.357338	0.81435	0.412482	-41.93	7.49	26.6	-0.2477	-0.2481	-0.3972	
0.357338	0.803004	0.415654	-44.45	5.46	27.3	-0.2565	-0.2419	-0.4048	
0.346602	0.800564	0.438346	-43.19	6.51	26.18	-0.258	-0.2343	-0.4047	
0.346236	0.77958	0.444446	-44.66	4.34	25.76	-0.2508	-0.2329	-0.4078	
0.354288	0.751398	0.44591	-47.39	4.62	27.58	-0.2639	-0.2221	-0.4154	
0.37393	0.726876	0.456646	-45.71	3.08	26.88	-0.2654	-0.2175	-0.4245	
0.377712	0.727608	0.459696	-44.94	2.52	26.25	-0.2598	-0.2024	-0.426	
0.370636	0.730048	0.473116	-46.2	3.08	28.07	-0.2716	-0.1931	-0.4213	
0.391498	0.709552	0.494466	-48.16	3.78	29.47	-0.2658	-0.1887	-0.4305	
0.41053	0.700402	0.517036	-48.3	4.34	28.91	-0.2731	-0.1825	-0.4305	
0.429196	0.693326	0.524844	-49.28	4.76	28.7	-0.2659	-0.175	-0.4351	
0.429806	0.671244	0.525088	-49.77	5.39	28.84	-0.2733	-0.1627	-0.4411	
0.435418	0.643306	0.540216	-48.37	4.62	28.56	-0.2677	-0.1492	-0.4426	
0.42761	0.627446	0.549366	-49.14	7.28	29.96	-0.2734	-0.1491	-0.4503	
0.43859	0.61244	0.563884	-47.67	7.35	30.1	-0.2694	-0.1324	-0.4319	
0.445178	0.601582	0.585966	-48.72	7.7	31.43	-0.2738	-0.1248	-0.4502	
0.439566	0.583526	0.590968	-48.58	7.84	31.22	-0.2767	-0.1247	-0.4532	
0.45994	0.565226	0.625128	-47.81	8.19	30.1	-0.2697	-0.1051	-0.4563	
0.461404	0.549366	0.631472	-48.65	8.61	29.89	-0.2696	-0.1097	-0.4593	
0.457378	0.528992	0.634278	-48.23	10.36	30.17	-0.2698	-0.0915	-0.4654	
0.45994	0.508008	0.647332	-46.27	8.19	29.47	-0.2772	-0.0777	-0.4684	
0.461892	0.487634	0.651968	-45.36	8.82	29.05	-0.2745	-0.0686	-0.4668	
0.46787	0.483608	0.65758	-44.66	6.58	29.54	-0.2731	-0.0656	-0.4622	
0.469578	0.467626	0.669292	-44.87	6.16	29.4	-0.2686	-0.0702	-0.4745	
0.465918	0.457378	0.678076	-44.94	7.49	29.54	-0.2733	-0.0473	-0.4683	
0.46543	0.426268	0.681858	-46.9	4.55	30.45	-0.2704	-0.0459	-0.4668	
0.486292	0.406626	0.697108	-45.64	4.06	29.82	-0.2662	-0.0368	-0.4699	
0.513742	0.392108	0.711382	-45.5	6.3	30.31	-0.2735	-0.0306	-0.4667	
0.512644	0.365024	0.7137	-45.5	7.14	31.5	-0.2723	-0.0139	-0.4682	
0.507154	0.352458	0.72529	-43.61	7.49	32.2	-0.2738	-0.0109	-0.4743	
0.490074	0.35319	0.728706	-42.63	11.13	32.27	-0.2638	-0.0019	-0.4698	
0.49898	0.353434	0.744078	-44.38	9.17	32.13	-0.2683	0.0133	-0.4697	
0.513132	0.322324	0.765306	-45.85	8.54	31.01	-0.2668	0.0102	-0.4712	
0.510692	0.271206	0.762256	-45.5	7.07	30.45	-0.2585	0.0314	-0.4621	
0.50874	0.25376	0.767746	-43.19	7.7	30.87	-0.2614	0.0314	-0.462	
0.502884	0.26474	0.771162	-41.79	6.93	30.8	-0.2572	0.0481	-0.4697	
0.51362	0.246318	0.785802	-42.77	7.14	30.87	-0.2515	0.0571	-0.4758	
0.522526	0.212402	0.79483	-42.49	6.37	30.38	-0.2545	0.0617	-0.4681	
0.51789	0.187026	0.789218	-42.63	2.66	29.47	-0.2531	0.0677	-0.4758	
0.521794	0.178486	0.799832	-39.76	3.5	26.6	-0.2547	0.0739	-0.4681	
0.517036	0.158478	0.81313	-39.48	4.2	26.81	-0.2575	0.0769	-0.4788	
0.514596	0.13237	0.816058	-36.61	3.43	25.2	-0.2491	0.0966	-0.4711	
0.541802	0.10614	0.832284	-36.4	3.92	24.64	-0.2535	0.09959999	-0.4787	
0.549854	0.097112	0.846558	-33.11	-0.84	22.89	-0.2477	0.1026	-0.4757	
0.559858	0.088328	0.842288	-29.61	0.21	19.81	-0.2551	0.1073	-0.471	
0.564128	0.07747	0.847778	-31.36	0.77	20.51	-0.2493	0.1072	-0.4711	
0.563396	0.073444	0.852414	-27.51	-0.98	18.2	-0.2509	0.1163	-0.468	
0.555222	0.062708	0.853146	-27.23	-0.28	16.17	-0.2424	0.1299	-0.465	
0.569618	0.024278	0.86437	-26.11	0.21	14.84	-0.2455	0.1406	-0.4588	
0.57462	0.011956	0.859612	-24.64	0.98	14	-0.2339	0.1435	-0.4619	
0.578768	0.000244	0.857294	-22.89	1.61	12.74	-0.2355	0.1496	-0.4558	
0.590114	-0.00366	0.86986	-20.72	2.38	11.55	-0.2456	0.1482	-0.4603	
0.588406	-0.011224	0.869616	-18.69	3.99	10.01	-0.2412	0.1421	-0.4496	
0.567178	-0.028914	0.859734	-17.57	3.85	9.8	-0.2429	0.1558	-0.448	
0.569374	-0.021472	0.871446	-14.56	2.87	9.59	-0.2399	0.1603	-0.4603	
0.577304	-0.03416	0.875838	-13.3	3.85	7.7	-0.2429	0.1603	-0.4511	
0.57401	-0.041968	0.875838	-11.41	3.85	6.72	-0.2473	0.165	-0.4556	
0.566568	-0.021838	0.875228	-9.66	3.01	5.95	-0.2387	0.1709	-0.4557	
0.564738	-0.019398	0.875716	-7.7	1.12	4.13	-0.2313	0.1662	-0.4603	
0.569252	-0.034526	0.882548	-7.91	3.36	3.71	-0.24	0.1648	-0.4618	
0.583892	-0.053558	0.887062	-4.62	1.96	1.4	-0.2227	0.1676	-0.4497	
0.572668	-0.045262	0.879132	-2.24	1.19	-0.14	-0.2402	0.174	-0.4557	
0.569008	-0.038308	0.88694	-1.4	0.91	-1.33	-0.2313	0.1647	-0.4558	
0.579134	-0.042212	0.889014	0.77	0.35	-3.43	-0.2269	0.1616	-0.4527	
0.569374	-0.04575	0.885476	2.38	0	-4.27	-0.2358	0.1678	-0.4511	
0.559736	-0.04148	0.881694	4.06	-0.42	-5.32	-0.2387	0.1755	-0.4572	
0.556442	-0.03538	0.891576	6.51	-0.98	-6.65	-0.2329	0.1693	-0.4511	
0.561688	-0.048556	0.896212	7.42	-0.77	-8.05	-0.2327	0.1617	-0.4558	
0.571204	-0.06161	0.890356	9.87	-1.19	-9.59	-0.2414	0.1618	-0.4618	
0.573644	-0.042822	0.887794	12.39	-1.96	-10.99	-0.2357	0.1663	-0.4588	
0.565104	-0.027328	0.888404	15.75	-2.03	-12.53	-0.243	0.1664	-0.4572	
0.56547	-0.030256	0.88267	17.01	-1.68	-13.72	-0.2428	0.1543	-0.4511	
0.566324	-0.025498	0.88267	19.95	-1.61	-15.26	-0.2427	0.1497	-0.4603	
0.563152	-0.00549	0.873398	21.98	-2.1	-16.31	-0.2325	0.151	-0.465	
0.560956	0.024034	0.873276	26.25	-1.47	-18.48	-0.2499	0.1467	-0.4587	
0.5429	0.04331	0.871812	27.51	0.21	-18.69	-0.2513	0.1377	-0.4587	
0.526674	0.057828	0.86742	27.79	1.19	-19.04	-0.2541	0.1346	-0.4633	
0.526186	0.057828	0.86681	29.82	0.07	-20.44	-0.2468	0.1315	-0.4649	
0.545096	0.051972	0.860222	31.36	-0.35	-20.72	-0.2454	0.1315	-0.4603	
0.549854	0.075518	0.85217	34.93	-0.56	-21.49	-0.248	0.1148	-0.4634	
0.53863	0.097234	0.846192	37.45	-0.56	-22.33	-0.2421	0.1116	-0.4711	
0.525454	0.106384	0.830698	38.08	0.91	-22.19	-0.2449	0.1071	-0.4742	
0.521428	0.123098	0.823378	40.53	0.28	-22.4	-0.2404	0.0949	-0.4712	
0.509594	0.149572	0.812764	42.63	-0.56	-23.17	-0.2478	0.1011	-0.4696	
0.500566	0.174704	0.799344	43.4	-0.77	-23.24	-0.2563	0.09209999	-0.4787	
0.49166	0.20252	0.797026	44.59	-1.54	-23.52	-0.2503	0.0753	-0.4773	
0.480802	0.216306	0.791048	44.45	-2.73	-24.43	-0.2443	0.0661	-0.4774	
0.478972	0.21228	0.781288	43.89	-4.2	-23.8	-0.2399	0.0599	-0.4728	
0.488976	0.23851	0.771284	45.22	-7.21	-24.71	-0.2559	0.0571	-0.4697	
0.492026	0.266692	0.77409	46.34	-9.38	-26.39	-0.2541	0.0389	-0.4789	
0.490684	0.27877	0.772138	45.5	-9.52	-26.25	-0.2614	0.0375	-0.4743	
0.510326	0.281576	0.753228	44.87	-5.81	-27.16	-0.2627	0.0268	-0.4728	
0.485438	0.31232	0.759572	42.14	-7.49	-23.38	-0.2654	0.0192	-0.4896	
0.501542	0.32452	0.742614	51.1	-11.76	-28.63	-0.2595	0.0131	-0.4789	
0.503006	0.337818	0.729804	48.93	-11.2	-27.44	-0.258	0.004	-0.4759	
0.480436	0.361974	0.714066	47.6	-6.93	-25.13	-0.2564	-0.002	-0.4775	
0.474946	0.374906	0.70333	49.98	-9.1	-25.97	-0.2736	-0.014	-0.485	
0.482998	0.38186	0.694424	50.75	-11.34	-26.53	-0.2691	-0.0338	-0.4775	
0.471286	0.382592	0.673074	50.96	-11.34	-24.43	-0.2678	-0.0277	-0.4668	
0.449204	0.41968	0.639158	53.97	-12.25	-23.1	-0.2705	-0.0383	-0.4744	
0.45262	0.549244	0.624274	53.41	-16.1	-23.73	-0.2658	-0.0581	-0.4745	
0.46726	0.577426	0.618418	49.63	-14.35	-23.31	-0.27	-0.0747	-0.4638	
0.471286	0.56425	0.61671	44.94	-10.57	-22.19	-0.2773	-0.0852	-0.4485	
0.489098	0.549	0.61	45.22	-12.39	-24.01	-0.2728	-0.0838	-0.4654	
0.487268	0.555344	0.599874	46.48	-11.34	-25.34	-0.2757	-0.0944	-0.4485	
0.476288	0.576816	0.602436	46.41	-9.73	-25.55	-0.2799	-0.1049	-0.4501	
0.474458	0.581208	0.584258	47.25	-8.75	-27.02	-0.2696	-0.1157	-0.4441	
0.464698	0.586942	0.596092	46.97	-8.96	-26.88	-0.2753	-0.1247	-0.4456	
0.464454	0.578036	0.566568	49.56	-8.05	-28.7	-0.2839	-0.1307	-0.4501	
0.45018	0.58743	0.566568	47.95	-9.31	-26.25	-0.2751	-0.1384	-0.4426	
0.440054	0.607804	0.540582	51.73	-7.56	-28.91	-0.2794	-0.1459	-0.4364	
0.421754	0.64294	0.53375	51.59	-8.54	-28.63	-0.2676	-0.1598	-0.435	
0.425292	0.661728	0.51057	53.27	-10.15	-29.82	-0.2849	-0.1701	-0.4288	
0.442128	0.697474	0.47885	52.22	-10.08	-28.63	-0.279	-0.1763	-0.4365	
0.427732	0.740174	0.44591	51.87	-11.41	-29.4	-0.2702	-0.181	-0.432	
0.399428	0.770674	0.439932	49.77	-8.05	-30.31	-0.2701	-0.1962	-0.4244	
0.381738	0.771284	0.423828	47.6	-8.75	-29.96	-0.273	-0.1961	-0.4137	
0.400404	0.787754	0.390644	44.1	-9.31	-29.61	-0.2788	-0.1991	-0.4198	
0.41968	0.80703	0.385276	44.8	-8.61	-30.66	-0.2669	-0.216	-0.4199	
0.400038	0.825452	0.38125	42.63	-4.48	-30.38	-0.264	-0.2206	-0.4153	
0.37637	0.834602	0.373442	41.16	-7.77	-29.96	-0.2669	-0.2296	-0.3985	
0.360632	0.826184	0.35868	38.15	-6.3	-29.47	-0.261	-0.2327	-0.4062	
0.352214	0.797636	0.336842	37.17	-7.35	-29.19	-0.2683	-0.2326	-0.4016	
0.326716	0.823744	0.3355	36.68	-7.56	-28.7	-0.2696	-0.2432	-0.394	
0.301706	0.844362	0.322202	35.63	-9.45	-30.8	-0.2607	-0.2616	-0.388	
0.330986	0.791048	0.296216	35.14	-11.48	-32.13	-0.2592	-0.2601	-0.3926	
0.388082	0.781532	0.29158	40.74	-13.65	-34.09	-0.2533	-0.2708	-0.3911	
0.367586	0.822158	0.269498	49.07	-15.4	-36.4	-0.2532	-0.2799	-0.3758	
0.31903	0.834724	0.250588	51.73	-14.56	-36.33	-0.246	-0.28	-0.3743	
0.273402	0.88633	0.224114	54.46	-2.8	-37.31	-0.2489	-0.286	-0.3652	
0.23485	0.956602	0.208376	53.27	-9.66	-37.31	-0.2501	-0.3027	-0.3667	
0.230214	0.994666	0.206546	53.06	-13.72	-39.41	-0.2399	-0.3073	-0.3546	
0.251076	0.98149	0.197762	48.44	-15.61	-39.76	-0.2399	-0.3149	-0.3454	
0.244122	0.957944	0.202032	42.84	-14.35	-37.38	-0.2339	-0.3256	-0.344	
0.213378	0.971974	0.175436	43.61	-12.95	-37.87	-0.2397	-0.3286	-0.347	
0.180072	0.989054	0.175558	40.46	-15.12	-36.61	-0.2251	-0.3349	-0.3441	
0.193004	0.98515	0.172386	37.87	-13.44	-36.54	-0.2236	-0.3409	-0.3303	
0.2074	0.954406	0.15555	35.49	-13.16	-35.7	-0.2191	-0.3532	-0.3273	
0.201178	0.937204	0.117364	35.42	-12.04	-34.44	-0.2133	-0.3578	-0.3182	
0.183366	0.955504	0.097112	36.05	-7.07	-33.11	-0.2236	-0.353	-0.312	
0.1586	0.981246	0.05307	37.1	-6.09	-32.13	-0.2264	-0.3621	-0.3028	
0.16592	1.039806	0.126148	39.34	-6.79	-29.89	-0.2133	-0.3653	-0.306	
0.186782	1.114714	0.13359	42.98	4.62	-30.87	-0.2104	-0.3684	-0.3014	
0.184708	1.088484	0.098698	29.26	11.13	-25.62	-0.203	-0.3791	-0.2969	
0.14945	1.003816	0.073566	19.25	12.39	-19.81	-0.2073	-0.3867	-0.2893	
0.18361	0.95709	0.052948	24.29	-7.14	-23.52	-0.1914	-0.3793	-0.2924	
0.096502	1.004426	0.002684	33.81	-4.06	-29.19	-0.1842	-0.3794	-0.2848	
0.063074	1.010526	-0.017324	27.02	-5.04	-24.92	-0.184	-0.3915	-0.2833	
0.077958	1.029558	-0.005978	26.11	-8.96	-24.92	-0.1811	-0.3976	-0.2788	
0.072956	1.059448	-0.00488	27.23	-12.74	-27.51	-0.1841	-0.393	-0.268	
0.054168	1.05225	-0.008296	23.87	-12.46	-27.93	-0.1768	-0.3962	-0.2727	
0.05429	1.026508	-0.014274	21.91	-12.46	-27.23	-0.1694	-0.4084	-0.2636	
0.071858	0.995886	-0.017812	20.44	-13.3	-26.6	-0.1695	-0.4099	-0.2468	
0.09211	0.97112	-0.018544	22.26	-13.37	-26.04	-0.1708	-0.4175	-0.2544	
0.095404	0.985638	-0.028426	24.5	-12.81	-25.2	-0.1737	-0.4174	-0.2529	
0.076494	1.000156	-0.019398	25.48	-11.62	-23.66	-0.1693	-0.4251	-0.2499	
0.062708	1.04554	-0.021838	25.06	-8.33	-21.98	-0.1592	-0.4161	-0.2469	
0.066124	1.05103	-0.023302	19.53	-7.28	-18.97	-0.1535	-0.4177	-0.2316	
0.013176	1.034316	-0.03843	14.07	11.41	-14.28	-0.1447	-0.4193	-0.2424	
0.032208	0.968924	-0.038308	12.81	1.68	-12.04	-0.1562	-0.4283	-0.2469	
0.03111	0.98881	-0.042334	20.51	-0.77	-15.54	-0.1505	-0.4223	-0.2347	
0.028182	1.015894	-0.05734	20.58	3.22	-14.84	-0.1432	-0.4239	-0.2317	
0.00244	1.04615	-0.054778	18.62	4.76	-11.55	-0.1475	-0.4359	-0.218	
-0.001586	1.026508	-0.057828	17.01	1.4	-10.99	-0.1416	-0.4406	-0.2226	
-0.01403	0.995764	-0.052582	14.77	0.84	-7.35	-0.149	-0.4253	-0.2347	
-0.00854	0.984662	-0.092232	13.93	3.57	-4.97	-0.1432	-0.433	-0.2256	
0.006588	0.976366	-0.072712	17.15	-1.12	-4.27	-0.1402	-0.4361	-0.2287	
0.011834	1.014308	-0.093696	21.35	4.97	-5.95	-0.1344	-0.4392	-0.2181	
0.008784	1.003084	-0.112728	19.32	-0.84	-3.36	-0.1244	-0.4317	-0.2166	
-0.004392	1.03151	-0.103822	20.51	2.94	-1.89	-0.1315	-0.4438	-0.215	
-0.021716	1.057862	-0.115046	19.81	6.3	-1.4	-0.1445	-0.4466	-0.2134	
-0.049044	1.02663	-0.123586	15.75	6.09	0.28	-0.1417	-0.4406	-0.2058	
-0.027938	1.003572	-0.13603	16.17	2.8	-0.77	-0.13	-0.4514	-0.2074	
-0.020618	1.021628	-0.147498	17.29	1.96	-1.33	-0.1388	-0.4421	-0.2027	
-0.008784	1.030168	-0.144082	17.85	1.4	-1.12	-0.1375	-0.4376	-0.1966	
-0.024278	1.035658	-0.162382	16.03	3.36	0.91	-0.1345	-0.4467	-0.1844	
-0.016226	1.039562	-0.162138	15.19	1.47	1.26	-0.1373	-0.4467	-0.1982	
-0.0244	1.042978	-0.176046	13.3	2.1	2.38	-0.1374	-0.4482	-0.1859	
-0.023668	1.035292	-0.16897	11.13	-0.63	4.06	-0.1375	-0.4421	-0.1844	
-0.013054	1.030534	-0.180316	10.92	0	3.15	-0.1402	-0.4542	-0.1859	
-0.01403	1.022238	-0.189588	9.38	0.42	3.5	-0.136	-0.4482	-0.1844	
-0.00122	1.03578	-0.190442	9.87	-1.47	2.94	-0.1358	-0.4558	-0.1875	
-0.00183	1.048834	-0.193248	8.68	-1.19	2.73	-0.1417	-0.4496	-0.1874	
-0.00854	1.028826	-0.193736	5.25	-1.96	4.2	-0.1346	-0.4452	-0.1844	
-0.002196	1.020286	-0.210938	3.71	-1.4	4.2	-0.1389	-0.4481	-0.1875	
0.008905999	1.014918	-0.209718	2.73	-2.1	5.04	-0.1462	-0.4465	-0.1767	
0.019642	1.020164	-0.206668	4.48	-1.47	3.71	-0.1375	-0.4436	-0.1875	
0.002806	1.019188	-0.20679	3.99	-3.22	5.32	-0.1388	-0.4512	-0.1875	
0.006832	1.016992	-0.21045	3.29	-4.83	6.3	-0.1374	-0.4542	-0.1783	
0.015982	1.031022	-0.215452	3.57	-4.9	4.27	-0.152	-0.4525	-0.1751	
0.02013	1.042246	-0.211426	1.47	-4.62	4.62	-0.1447	-0.4496	-0.1828	
0.007929999	1.03883	-0.210572	-2.03	-1.89	6.09	-0.1548	-0.454	-0.1843	
0.009516	1.036634	-0.208498	-3.43	-1.4	8.33	-0.152	-0.4434	-0.1843	
0.023546	1.036756	-0.209474	-3.64	-3.43	8.19	-0.1506	-0.4449	-0.1767	
0.033184	1.042856	-0.199226	-4.2	-3.36	7.63	-0.1505	-0.448	-0.1889	
0.024644	1.046028	-0.197396	-6.44	-1.54	8.33	-0.1505	-0.448	-0.1828	
0.046116	1.033584	-0.210816	-10.57	0.7	9.94	-0.1535	-0.4464	-0.1782	
0.018178	1.045296	-0.199958	-12.6	6.44	12.88	-0.1522	-0.4343	-0.1812	
0.029524	1.032364	-0.207034	-11.41	-0.07	10.85	-0.1594	-0.4402	-0.1796	
0.034526	1.034194	-0.192638	-13.86	2.03	10.57	-0.1578	-0.4479	-0.1858	
0.033062	1.040904	-0.196054	-15.75	3.92	11.69	-0.1608	-0.4402	-0.1888	
0.02989	1.023702	-0.181658	-17.57	3.08	11.69	-0.1534	-0.4464	-0.1873	
0.031964	1.032974	-0.191296	-19.46	3.78	12.46	-0.1636	-0.4387	-0.201	
0.03599	1.039074	-0.177754	-21.49	3.78	13.37	-0.1709	-0.4386	-0.1948	
0.052216	1.029192	-0.174094	-24.22	5.67	14.42	-0.1665	-0.4387	-0.2071	
0.059292	1.023824	-0.16226	-24.01	6.16	14.84	-0.1723	-0.4356	-0.2147	
0.06344	1.047492	-0.141276	-23.03	6.51	15.68	-0.1694	-0.4311	-0.2178	
0.062464	1.042246	-0.140056	-24.36	6.16	15.82	-0.181	-0.437	-0.2147	
0.06954	1.012112	-0.1342	-27.23	6.02	17.01	-0.1796	-0.4294	-0.2177	
0.089548	1.01748	-0.133468	-26.53	5.32	17.99	-0.1766	-0.431	-0.2284	
0.086742	1.044198	-0.115412	-24.64	5.39	18.83	-0.181	-0.4264	-0.2269	
0.06344	1.049688	-0.108336	-27.37	6.44	20.37	-0.1751	-0.4295	-0.2315	
0.080032	1.03151	-0.100284	-31.71	9.66	22.82	-0.1854	-0.4142	-0.2436	
0.100894	1.013454	-0.095404	-33.25	11.34	23.94	-0.1914	-0.4065	-0.242	
0.112118	1.004548	-0.090036	-32.9	10.85	23.03	-0.1898	-0.4096	-0.2497	
0.126758	1.040294	-0.08295999	-31.43	11.13	24.01	-0.1898	-0.4126	-0.2528	
0.106384	1.04981	-0.067832	-34.37	11.48	25.55	-0.1971	-0.411	-0.2512	
0.09699	1.040782	-0.052826	-37.87	12.67	27.16	-0.203	-0.3957	-0.2587	
0.100894	1.017724	-0.036356	-41.3	14	29.19	-0.2073	-0.4002	-0.2618	
0.12871	1.003206	-0.017202	-42	14.7	29.61	-0.2045	-0.3836	-0.2801	
0.152744	1.006378	-0.001708	-43.33	14.91	30.38	-0.2132	-0.3865	-0.277	
0.169214	1.005158	0.015738	-43.75	15.33	30.73	-0.219	-0.3849	-0.2785	
0.165432	0.98149	0.033794	-43.33	14.63	31.5	-0.2263	-0.3758	-0.2952	
0.156404	0.973926	0.049532	-44.66	13.93	31.92	-0.2148	-0.3713	-0.2876	
0.162382	0.963922	0.068076	-43.68	15.96	31.99	-0.2149	-0.3577	-0.2983	
0.138714	0.972706	0.090158	-46.2	11.76	37.03	-0.2207	-0.3561	-0.3059	
0.198616	0.959896	0.07686	-39.48	7.91	30.17	-0.2294	-0.3499	-0.315	
0.155794	0.981978	0.083814	-53.27	10.15	37.73	-0.2382	-0.3453	-0.3195	
0.161406	0.968192	0.14701	-57.89	13.58	41.09	-0.2324	-0.3393	-0.3318	
0.269742	0.826184	0.193736	-62.23	10.5	44.59	-0.2326	-0.3241	-0.3272	
0.310002	0.833626	0.219234	-55.65	7.14	44.17	-0.2412	-0.321	-0.3454	
0.318908	0.865468	0.247782	-55.79	10.64	44.24	-0.2471	-0.3163	-0.3515	
0.324032	0.854976	0.285724	-57.75	13.44	47.88	-0.2529	-0.3102	-0.3591	
0.338306	0.851316	0.292068	-56.35	14.14	50.89	-0.2561	-0.295	-0.3575	
0.353678	0.838994	0.29219	-55.3	12.11	50.75	-0.2691	-0.2918	-0.3666	
0.34587	0.85217	0.29829	-54.53	13.3	50.68	-0.2678	-0.2751	-0.3742	
0.340868	0.837652	0.316346	-60.2	16.59	50.61	-0.2738	-0.2613	-0.3817	
0.358314	0.786412	0.342942	-63.28	15.54	48.86	-0.2666	-0.2493	-0.394	
0.399794	0.757986	0.365512	-62.72	14.42	47.18	-0.2667	-0.2448	-0.394	
0.43737	0.751764	0.381494	-61.46	12.67	46.13	-0.2814	-0.2324	-0.3969	
0.448106	0.734928	0.39406	-59.64	11.27	45.08	-0.2786	-0.2127	-0.4091	
0.442128	0.71492	0.41541	-59.29	13.65	44.38	-0.2728	-0.2159	-0.4122	
0.44896	0.676978	0.437858	-62.3	17.29	45.29	-0.2758	-0.2037	-0.4152	
0.443592	0.643428	0.463356	-60.2	16.1	44.31	-0.2803	-0.1914	-0.4167	
0.485804	0.627202	0.478484	-54.11	11.9	40.95	-0.2892	-0.1777	-0.4273	
0.482998	0.646722	0.47336	-50.96	10.5	39.69	-0.2892	-0.1701	-0.4395	
0.457622	0.665266	0.482388	-52.01	10.08	39.27	-0.2922	-0.1655	-0.4318	
0.487634	0.651358	0.502396	-56.14	8.33	38.71	-0.2851	-0.1519	-0.4379	
0.517036	0.615856	0.532774	-58.52	8.75	38.08	-0.2924	-0.1473	-0.4425	
0.514718	0.57645	0.549	-59.36	9.73	37.31	-0.2825	-0.1307	-0.4379	
0.50813	0.549	0.56181	-56	9.24	35.35	-0.2797	-0.1262	-0.4394	
0.54473	0.512156	0.569618	-53.48	6.09	33.81	-0.2858	-0.1003	-0.4378	
0.560712	0.507642	0.58072	-52.71	12.04	35.84	-0.2872	-0.0957	-0.4546	
0.548146	0.518012	0.603168	-52.5	19.18	37.45	-0.28	-0.0958	-0.447	
0.520086	0.490318	0.626958	-53.13	21.35	36.75	-0.2803	-0.0746	-0.4561	
0.528138	0.44713	0.636596	-53.48	17.71	36.33	-0.2818	-0.0624	-0.4622	
0.51972	0.423706	0.648064	-51.73	22.68	35.07	-0.2776	-0.0427	-0.479	
0.51179	0.41602	0.650992	-50.89	22.68	35.42	-0.2749	-0.0367	-0.4652	
0.511668	0.421876	0.659776	-49.63	21.56	34.3	-0.2663	-0.0277	-0.4714	
0.51484	0.40382	0.68198	-52.71	13.86	35.56	-0.2693	-0.017	-0.479	
0.496296	0.36722	0.691618	-52.92	19.88	33.32	-0.2651	-0.0079	-0.4667	
0.498614	0.329278	0.703086	-54.18	15.82	33.88	-0.2653	0.0071	-0.4697	
0.511668	0.307684	0.725656	-53.83	11.76	32.2	-0.2682	0.0041	-0.4758	
0.526308	0.266814	0.741882	-52.15	11.48	30.45	-0.2599	0.0329	-0.4728	
0.53375	0.254736	0.754814	-51.17	10.08	29.75	-0.2583	0.0283	-0.4789	
0.54717	0.245342	0.763964	-50.61	9.1	28.84	-0.2541	0.0434	-0.4804	
0.564738	0.2196	0.787388	-50.19	10.08	28.14	-0.2544	0.0541	-0.4727	
0.563274	0.185562	0.790926	-48.93	11.06	27.16	-0.2644	0.0512	-0.4773	
0.553636	0.167384	0.803614	-46.13	13.23	25.41	-0.2603	0.0648	-0.4788	
0.547414	0.166164	0.803248	-44.17	10.01	24.92	-0.2531	0.07229999	-0.4742	
0.545584	0.152988	0.798002	-40.25	11.69	22.89	-0.2475	0.0844	-0.4742	
0.5368	0.137982	0.784094	-40.6	13.3	23.59	-0.246	0.0889	-0.488	
0.529358	0.139324	0.797514	-40.25	14	23.8	-0.2373	0.0888	-0.4804	
0.524112	0.12261	0.81435	-38.78	13.65	21.77	-0.2303	0.1008	-0.4758	
0.519964	0.088328	0.823134	-39.2	14.84	21.28	-0.2362	0.11	-0.4804	
0.526918	0.067832	0.822524	-38.57	6.65	20.51	-0.2422	0.1177	-0.4726	
0.520208	0.081496	0.818742	-37.59	11.27	20.16	-0.2306	0.1191	-0.4727	
0.54107	0.07564	0.838262	-38.85	10.92	21.7	-0.2349	0.1252	-0.4834	
0.530456	0.063684	0.856562	-36.82	11.55	20.02	-0.2294	0.1373	-0.4681	
0.555344	0.007442	0.865834	-35.98	11.83	18.69	-0.2381	0.1435	-0.4818	
0.556442	-0.003294	0.864126	-34.09	8.82	17.92	-0.2252	0.1464	-0.4635	
0.551318	-0.01952	0.872056	-30.59	12.18	16.24	-0.2152	0.1644	-0.4804	
0.5551	-0.034892	0.867054	-28.84	9.03	15.82	-0.2094	0.1583	-0.4666	
0.536068	-0.03294	0.884378	-23.66	12.81	13.93	-0.2181	0.1614	-0.4727	
0.534238	-0.04697	0.88755	-24.15	11.41	12.95	-0.2095	0.1644	-0.4636	
0.534848	-0.058682	0.889746	-22.54	10.29	11.97	-0.2052	0.1749	-0.4758	
0.526552	-0.061	0.890478	-19.95	9.31	10.64	-0.2153	0.1766	-0.4803	
0.495564	-0.04819	0.888892	-19.04	10.85	9.52	-0.2083	0.1856	-0.4681	
0.496906	-0.073322	0.888648	-17.78	7.77	7.77	-0.2067	0.1765	-0.4712	
0.505202	-0.089548	0.892552	-16.03	5.53	6.58	-0.201	0.184	-0.4728	
0.520208	-0.104554	0.892918	-14.14	1.4	3.57	-0.207	0.1902	-0.4604	
0.510448	-0.08906	0.891698	-13.16	3.57	4.83	-0.2041	0.1962	-0.465	
0.525942	-0.101992	0.893162	-10.5	2.66	3.78	-0.1997	0.1931	-0.4697	
0.535702	-0.099064	0.909266	-7.07	2.17	1.89	-0.2026	0.1931	-0.4651	
0.530944	-0.106018	0.912194	-5.6	3.85	1.05	-0.2055	0.1932	-0.4712	
0.528138	-0.11346	0.925492	-3.78	1.75	0	-0.2025	0.1871	-0.4605	
0.530822	-0.124562	0.923174	-1.33	0.14	-2.59	-0.2039	0.1886	-0.4727	
0.526552	-0.115656	0.924638	-0.77	1.89	-2.66	-0.1997	0.1961	-0.4651	
0.519354	-0.110776	0.920124	1.96	0.7	-4.41	-0.1911	0.2021	-0.4621	
0.512888	-0.109068	0.919148	3.85	-0.49	-5.81	-0.1983	0.1961	-0.462	
0.523258	-0.123586	0.914024	5.81	-2.24	-8.75	-0.1983	0.1931	-0.4498	
0.529114	-0.119804	0.915732	7.49	-3.57	-9.24	-0.204	0.1856	-0.4635	
0.516548	-0.111264	0.91073	12.39	-2.1	-12.67	-0.1997	0.1916	-0.4544	
0.50935	-0.101016	0.909388	12.88	-4.27	-13.37	-0.1952	0.1824	-0.4651	
0.516426	-0.083448	0.903898	16.24	-4.06	-15.19	-0.2083	0.1887	-0.4666	
0.515572	-0.073444	0.904752	15.96	-3.64	-15.12	-0.2054	0.1795	-0.4544	
0.51179	-0.075396	0.89548	18.34	-4.27	-16.31	-0.2097	0.1841	-0.4696	
0.514474	-0.080276	0.892308	20.37	-4.27	-17.22	-0.2096	0.175	-0.4635	
0.514474	-0.050142	0.888038	25.13	-3.92	-19.95	-0.2065	0.1673	-0.4758	
0.511912	-0.025132	0.881206	26.95	-4.06	-20.93	-0.2094	0.1553	-0.4575	
0.5246	-0.005978	0.884988	27.72	-4.27	-20.93	-0.2123	0.1644	-0.4727	
0.519598	0.013298	0.872666	28.49	-8.26	-20.3	-0.2254	0.1585	-0.4604	
0.51606	0.019642	0.872666	31.99	-3.08	-22.33	-0.2181	0.1524	-0.4574	
0.517158	0.012444	0.862174	31.43	-2.87	-22.12	-0.2179	0.1508	-0.4712	
0.510448	0.0305	0.853146	35.49	-4.13	-23.66	-0.2235	0.1341	-0.4773	
0.503982	0.047824	0.845948	38.29	-4.55	-24.5	-0.225	0.1387	-0.4788	
0.500688	0.090036	0.840824	39.83	-4.27	-25.62	-0.229	0.119	-0.488	
0.50203	0.124806	0.845826	38.99	-5.04	-26.11	-0.2391	0.1116	-0.4849	
0.50203	0.123952	0.833504	37.59	-5.11	-25.06	-0.2347	0.113	-0.4895	
0.494588	0.124196	0.822524	37.8	-5.6	-24.22	-0.2347	0.113	-0.4895	
0.483242	0.138714	0.816668	38.29	-6.02	-24.43	-0.2374	0.0948	-0.4804	
0.488	0.145546	0.811666	38.29	-6.3	-24.78	-0.2329	0.0841	-0.4881	
0.49471	0.16104	0.812032	38.78	-6.86	-24.71	-0.2329	0.0841	-0.4881	
0.491416	0.18788	0.8052	40.46	-7	-24.92	-0.2313	0.0689	-0.479	
0.493368	0.20862	0.804224	41.16	-7	-24.5	-0.2471	0.0615	-0.4911	
0.48739	0.220942	0.798368	42.28	-7.28	-25.2	-0.2471	0.0615	-0.4911	
0.490684	0.238754	0.790682	43.33	-8.54	-26.11	-0.2469	0.0478	-0.4896	
0.488732	0.260348	0.783972	44.38	-8.89	-26.67	-0.2483	0.0448	-0.4835	
0.493978	0.275964	0.775554	45.64	-9.94	-27.93	-0.2483	0.0448	-0.4835	
0.492758	0.295972	0.76982	46.34	-9.87	-27.72	-0.2482	0.0342	-0.4866	
0.487512	0.318298	0.748226	48.02	-10.15	-28.35	-0.2478	0.0099	-0.4852	
0.48495	0.336476	0.736392	48.72	-10.08	-28.35	-0.258	0.0085	-0.4774	
0.476288	0.361242	0.729194	49.63	-9.52	-28.77	-0.2535	-0.0021	-0.4882	
0.463722	0.378078	0.713334	50.89	-8.54	-28.91	-0.2635	-0.0171	-0.4805	
0.4758	0.399062	0.706014	52.15	-9.31	-30.03	-0.2445	-0.022	-0.4837	
0.461282	0.438834	0.691252	51.45	-8.75	-29.61	-0.2544	-0.0385	-0.4822	
0.471408	0.452864	0.682224	50.68	-11.97	-30.38	-0.2614	-0.0567	-0.4868	
0.468114	0.455548	0.663314	50.89	-9.59	-30.73	-0.2631	-0.0475	-0.4776	
0.454084	0.478118	0.656482	49.21	-9.03	-29.47	-0.2673	-0.0611	-0.4715	
0.451522	0.50264	0.649772	49.63	-10.92	-31.08	-0.2627	-0.0764	-0.4731	
0.447374	0.521794	0.63989	49.35	-11.13	-31.36	-0.2597	-0.081	-0.4685	
0.441518	0.53131	0.61854	48.79	-8.12	-30.24	-0.2641	-0.084	-0.47	
0.440786	0.5551	0.61305	50.47	-10.15	-31.5	-0.2609	-0.1083	-0.4625	
0.429684	0.58743	0.595848	49.56	-9.8	-31.85	-0.2624	-0.1007	-0.4701	
0.428952	0.596458	0.587552	49.28	-10.92	-32.13	-0.2549	-0.116	-0.4641	
0.418094	0.604632	0.572424	48.51	-10.64	-30.8	-0.268	-0.1188	-0.4655	
0.420168	0.61732	0.563518	49.21	-12.39	-31.57	-0.2517	-0.1388	-0.4596	
0.416508	0.638304	0.544486	47.39	-12.11	-31.5	-0.2677	-0.1461	-0.4472	
0.414434	0.654774	0.523258	46.48	-12.11	-31.43	-0.2574	-0.1509	-0.4519	
0.402722	0.674904	0.509106	45.01	-11.55	-29.89	-0.2676	-0.1552	-0.4396	
0.398696	0.698572	0.492758	46.97	-13.93	-30.24	-0.2588	-0.1645	-0.4366	
0.401746	0.746884	0.477508	46.06	-12.74	-29.82	-0.2631	-0.172	-0.4259	
0.392352	0.783728	0.469944	43.61	-11.76	-28.14	-0.2571	-0.1903	-0.423	
0.38552	0.780556	0.456524	44.24	-14.21	-29.05	-0.2555	-0.1949	-0.4306	
0.370026	0.780312	0.444934	44.38	-11.55	-30.24	-0.2584	-0.1964	-0.426	
0.351604	0.78324	0.421876	42.84	-12.04	-29.96	-0.264	-0.2145	-0.4169	
0.341844	0.793122	0.398086	41.58	-14.7	-29.4	-0.2613	-0.2054	-0.4184	
0.34709	0.787632	0.390522	39.48	-14.77	-27.93	-0.2581	-0.2237	-0.42	
0.335622	0.795562	0.374052	40.81	-14.21	-26.39	-0.2593	-0.2419	-0.4093	
0.330498	0.801784	0.368074	41.79	-15.26	-26.39	-0.2595	-0.2343	-0.4062	
0.320738	0.822036	0.358436	41.72	-13.02	-26.67	-0.2565	-0.2389	-0.4078	
0.324886	0.83204	0.330498	41.51	-12.67	-26.04	-0.2579	-0.2495	-0.3986	
0.311832	0.829112	0.318664	42.28	-13.51	-24.43	-0.2504	-0.2617	-0.4033	
0.306342	0.837286	0.30805	43.61	-15.54	-24.5	-0.2563	-0.2586	-0.391	
0.306952	0.866322	0.293898	46.27	-10.29	-25.06	-0.2533	-0.2723	-0.385	
0.330742	0.845826	0.289628	45.85	-16.66	-24.29	-0.2548	-0.2677	-0.3865	
0.35197	0.865346	0.283772	52.15	-16.1	-26.32	-0.259	-0.2783	-0.3819	
0.350384	0.876692	0.260714	51.73	-12.88	-25.62	-0.243	-0.2906	-0.3668	
0.309148	0.900726	0.244244	52.71	-6.37	-23.94	-0.2485	-0.3088	-0.3714	
0.28975	0.902434	0.22753	51.94	-7.14	-25.69	-0.2529	-0.3057	-0.3652	
0.288896	0.916952	0.217038	53.34	-13.37	-29.54	-0.2472	-0.3012	-0.3606	
0.315248	0.916952	0.197518	51.66	-16.31	-30.8	-0.2457	-0.3148	-0.3408	
0.321348	0.915122	0.16775	52.64	-14.35	-32.34	-0.2426	-0.33	-0.3363	
0.2745	0.959408	0.152012	50.05	-9.87	-27.02	-0.2499	-0.3345	-0.3301	
0.244488	0.985394	0.109678	51.45	-9.73	-29.47	-0.2338	-0.3438	-0.3241	
0.244366	0.988444	0.107116	46.83	-11.69	-28.28	-0.2308	-0.3545	-0.3227	
0.236558	1.000644	0.094306	44.1	-7.35	-26.11	-0.2383	-0.3392	-0.321	
0.214354	1.031876	0.086986	44.1	-6.65	-26.25	-0.2324	-0.3514	-0.3089	
0.194224	1.040904	0.06832	38.99	-6.23	-25.27	-0.2323	-0.3575	-0.3028	
0.18422	0.995886	0.055998	34.16	-6.16	-24.5	-0.2206	-0.3652	-0.2937	
0.197274	0.96746	0.046604	34.86	-8.89	-25.27	-0.2162	-0.3698	-0.2953	
0.19093	0.977464	0.034892	37.52	-4.34	-28.63	-0.2146	-0.379	-0.2953	
0.14396	0.970632	0.008052	36.26	-9.17	-26.11	-0.2132	-0.3865	-0.2785	
0.127368	0.97417	-0.02074	37.1	-10.85	-27.44	-0.2117	-0.3926	-0.2755	
0.140422	0.984418	-0.027816	37.1	-14.21	-29.26	-0.2088	-0.4017	-0.2587	
0.134688	1.092632	-0.021594	39.97	-12.95	-30.1	-0.203	-0.3988	-0.2603	
0.099308	1.09739	-0.026352	32.9	-15.47	-28.14	-0.1972	-0.3988	-0.2511	
0.109922	1.05103	-0.032208	25.34	-12.18	-24.78	-0.2103	-0.3987	-0.251	
0.135176	0.996862	-0.037942	23.45	-10.99	-24.78	-0.2001	-0.4079	-0.2435	
0.161162	0.96807	-0.055022	27.93	-12.32	-27.72	-0.1883	-0.4111	-0.2497	
0.159698	0.978806	-0.079422	31.01	-13.02	-28.49	-0.1898	-0.4217	-0.2329	
0.105286	1.067012	-0.08113	33.74	-2.94	-27.86	-0.1885	-0.4065	-0.239	
0.063074	1.079456	-0.085156	27.79	-8.05	-23.59	-0.1811	-0.4188	-0.2375	
0.062586	1.038586	-0.093452	23.45	-7.77	-21.56	-0.1797	-0.4188	-0.2299	
0.06734399	0.974414	-0.091134	17.99	-2.03	-16.52	-0.1738	-0.4219	-0.2315	
0.095282	0.948184	-0.08662	20.44	-2.52	-15.68	-0.1723	-0.431	-0.2162	
0.089182	0.983808	-0.113094	29.61	-7.77	-20.86	-0.178	-0.4325	-0.2269	
0.071492	1.013942	-0.122488	30.1	-11.27	-21.56	-0.1678	-0.4432	-0.2117	
0.056486	1.048102	-0.134322	27.16	-1.33	-18.41	-0.1564	-0.4312	-0.2102	
0.025376	1.0309	-0.142862	21.77	3.08	-13.3	-0.1664	-0.4387	-0.2086	
0.034892	1.019676	-0.155184	24.78	-0.21	-14.63	-0.1636	-0.4402	-0.198	
0.02928	0.999302	-0.170434	24.99	-0.77	-15.05	-0.1593	-0.4312	-0.2026	
0.036112	1.05408	-0.190808	29.4	0.91	-16.59	-0.1564	-0.4373	-0.1934	
-0.005856	1.108614	-0.202032	27.44	2.87	-16.31	-0.1491	-0.4434	-0.1874	
-0.02623	1.090314	-0.202276	18.34	-0.84	-12.32	-0.1476	-0.4465	-0.1935	
-0.019886	1.04859	-0.212402	12.81	-0.56	-10.29	-0.1475	-0.448	-0.1935	
-0.016226	1.027728	-0.213012	9.59	-1.05	-8.12	-0.1418	-0.4511	-0.1752	
-0.00488	1.00589	-0.21472	8.68	-0.98	-8.96	-0.1491	-0.4479	-0.1721	
-0.008905999	1.016382	-0.213866	8.96	-4.62	-8.96	-0.1476	-0.448	-0.1813	
-0.00061	1.037	-0.210084	8.54	-6.3	-9.45	-0.1477	-0.4465	-0.1797	
0.00427	1.01382	-0.205936	3.78	-2.73	-7.42	-0.1404	-0.4466	-0.1813	
0.001708	1.006866	-0.199348	1.82	-3.57	-3.36	-0.1404	-0.4466	-0.1737	
0.002318	0.999302	-0.207522	4.76	-2.38	-5.95	-0.1388	-0.4542	-0.1798	
-0.000488	0.997472	-0.205204	3.57	-3.78	-4.34	-0.1373	-0.4603	-0.1783	
0.010004	1.011624	-0.198738	4.13	-2.24	-3.57	-0.1359	-0.4573	-0.1753	
-0.003416	1.014918	-0.195566	2.94	-1.89	-2.38	-0.1405	-0.4405	-0.1706	
0.013054	0.999302	-0.20191	1.54	-0.35	-1.82	-0.1346	-0.4512	-0.1737	
0.011468	0.999668	-0.205692	0.91	-0.42	0.21	-0.1417	-0.4526	-0.1829	
0.014396	1.022848	-0.20496	3.5	2.24	-1.26	-0.1345	-0.4558	-0.1737	
0.000122	1.037854	-0.202154	1.61	3.64	0	-0.1418	-0.4496	-0.1844	
-0.018788	1.02602	-0.205448	-0.84	2.17	1.54	-0.1432	-0.4511	-0.1813	
-0.01586	1.012844	-0.210938	-3.22	4.69	2.17	-0.1433	-0.445	-0.1767	
-0.016592	1.018578	-0.207766	-4.97	4.76	4.9	-0.1388	-0.4618	-0.1722	
-0.011346	1.025898	-0.206912	-2.94	3.22	3.36	-0.1418	-0.4541	-0.1737	
-0.021838	1.023824	-0.212402	-5.04	1.26	4.41	-0.1376	-0.4451	-0.1706	
-0.008662	1.014552	-0.204716	-8.05	2.45	6.79	-0.1419	-0.439	-0.1874	
0.003904	1.017968	-0.201788	-7.42	1.54	6.65	-0.1374	-0.4542	-0.1783	
-0.007198	1.019432	-0.200446	-7.91	0.63	5.95	-0.1418	-0.4511	-0.1829	
0.018422	1.00955	-0.198128	-9.8	1.05	6.79	-0.1402	-0.4587	-0.1783	
-0.003782	1.025044	-0.19764	-10.15	6.58	9.1	-0.1404	-0.4451	-0.1783	
-0.00122	1.031632	-0.196176	-9.66	0.35	7.84	-0.1491	-0.448	-0.1843	
0.00671	1.04249	-0.184952	-11.41	1.96	7.91	-0.1518	-0.451	-0.1966	
-0.002318	1.029802	-0.181658	-15.05	2.73	9.94	-0.1461	-0.4541	-0.1844	
0.013176	1.012966	-0.177144	-15.82	2.87	9.94	-0.1547	-0.4555	-0.1965	
0.02135	1.022726	-0.18239	-14.49	1.68	9.73	-0.1549	-0.4449	-0.1889	
0.03294	1.022116	-0.174216	-15.68	2.59	10.71	-0.1433	-0.4375	-0.1966	
0.051972	1.019066	-0.162992	-16.45	4.13	11.69	-0.1666	-0.4401	-0.1888	
0.041358	1.0309	-0.161406	-16.03	5.53	11.55	-0.1507	-0.4282	-0.195	
0.022814	1.026142	-0.160308	-17.29	4.97	11.69	-0.1622	-0.4372	-0.1995	
0.037576	1.029314	-0.152988	-18.55	4.55	12.25	-0.1622	-0.4327	-0.2117	
0.050874	1.016504	-0.150914	-19.32	4.41	12.6	-0.1578	-0.4358	-0.2041	
0.050996	1.012234	-0.137616	-19.25	5.25	13.44	-0.1519	-0.4359	-0.2133	
0.049776	1.032242	-0.136274	-18.34	5.6	13.37	-0.165	-0.4342	-0.2209	
0.044774	1.026996	-0.128466	-20.3	5.25	13.79	-0.171	-0.428	-0.2071	
0.054412	1.021506	-0.119072	-21.84	5.67	14.42	-0.1695	-0.425	-0.2193	
0.06893	1.009428	-0.106262	-22.26	5.6	14.77	-0.1751	-0.431	-0.2269	
0.078202	1.010038	-0.100528	-21.91	6.23	14.7	-0.1666	-0.422	-0.227	
0.073932	1.024922	-0.096014	-21.49	5.6	14.07	-0.1825	-0.4203	-0.2345	
0.077958	1.021628	-0.087596	-22.82	5.25	14.28	-0.1694	-0.425	-0.2285	
0.09455	1.018334	-0.078568	-23.73	5.39	14.77	-0.1768	-0.4143	-0.2253	
0.094428	1.017114	-0.075274	-24.01	5.46	14.84	-0.1811	-0.4143	-0.2452	
0.104676	1.021994	-0.06588	-24.57	5.95	15.05	-0.1782	-0.4158	-0.2314	
0.10797	1.025654	-0.053802	-25.41	6.23	15.19	-0.1769	-0.4037	-0.2421	
0.117242	1.01504	-0.039284	-25.9	6.72	14.91	-0.1783	-0.3976	-0.2574	
0.113704	1.011136	-0.032452	-24.43	7.42	14.42	-0.178	-0.4144	-0.262	
0.118218	1.009184	-0.028914	-24.99	8.61	15.19	-0.1826	-0.3991	-0.265	
0.127856	1.00955	-0.02745	-25.83	7.7	15.68	-0.1943	-0.4019	-0.2527	
0.140544	1.021628	-0.016348	-25.69	6.09	15.54	-0.1869	-0.4021	-0.2711	
0.140056	1.025288	-0.00061	-27.23	6.65	15.12	-0.1871	-0.3899	-0.265	
0.143838	0.994178	0.021716	-29.61	9.87	14.84	-0.1943	-0.3929	-0.2726	
0.162138	0.977952	0.034404	-29.89	10.92	14.56	-0.1942	-0.3899	-0.2848	
0.17263	0.965508	0.035258	-29.05	8.19	13.58	-0.1972	-0.3868	-0.2832	
0.158112	0.991616	0.03843	-27.93	3.99	12.6	-0.2003	-0.3746	-0.2801	
0.156282	1.016992	0.06649	-29.68	2.31	12.04	-0.2015	-0.3883	-0.2878	
0.172874	1.006012	0.099796	-33.25	3.92	12.81	-0.2	-0.3822	-0.2985	
0.198616	0.970876	0.11407	-36.33	7.07	13.51	-0.2	-0.3822	-0.3	
0.20862	0.94611	0.119438	-37.1	10.08	14.21	-0.2001	-0.3762	-0.3061	
0.208986	0.928176	0.137128	-37.17	11.13	14.35	-0.1987	-0.3716	-0.3031	
0.20801	0.92659	0.147376	-34.93	10.08	12.95	-0.2089	-0.3669	-0.3091	
0.2074	0.9272	0.160064	-34.86	11.13	14.42	-0.2074	-0.3579	-0.3305	
0.15433	0.939766	0.156404	-36.47	14.91	16.8	-0.2002	-0.361	-0.3198	
0.198738	0.937204	0.187148	-40.32	-6.58	15.61	-0.2118	-0.3563	-0.3274	
0.196542	0.928298	0.25254	-40.32	5.74	16.17	-0.2076	-0.3442	-0.3366	
0.23851	0.851682	0.285602	-40.39	5.18	16.52	-0.2147	-0.3457	-0.3457	
0.286212	0.830332	0.30439	-31.15	-2.59	11.06	-0.2091	-0.3321	-0.3426	
0.308172	0.855464	0.303414	-23.31	-2.31	8.61	-0.2178	-0.3365	-0.3426	
0.29036	0.892552	0.317322	-17.15	2.03	8.82	-0.2178	-0.332	-0.3518	
0.270352	0.90341	0.326594	-14.91	5.81	8.61	-0.2192	-0.335	-0.3579	
0.274134	0.886208	0.318176	-15.47	7.49	9.03	-0.2135	-0.3305	-0.3487	
0.271938	0.896944	0.32635	-13.79	9.17	8.61	-0.2193	-0.3229	-0.3594	
0.283406	0.879864	0.333548	-15.12	3.85	9.45	-0.212	-0.323	-0.364	
0.288042	0.876082	0.334524	-11.55	7.77	6.93	-0.2237	-0.3228	-0.3609	
0.290726	0.881938	0.338672	-12.32	6.86	6.65	-0.2164	-0.3184	-0.3655	
0.275354	0.875228	0.333182	-11.76	7	6.09	-0.2223	-0.3182	-0.3563	
0.30134	0.861076	0.32879	-10.36	4.06	5.95	-0.2178	-0.3244	-0.3655	
0.28121	0.909144	0.34221	-8.26	6.93	4.41	-0.2253	-0.3137	-0.3608	
0.289994	0.895358	0.34038	-10.01	6.86	2.31	-0.2165	-0.3168	-0.364	
0.31354	0.881206	0.341722	-10.85	1.61	2.52	-0.2222	-0.3198	-0.367	
0.273646	0.89426	0.331352	-5.11	8.47	-1.68	-0.2121	-0.3184	-0.3701	
0.24888	0.89853	0.318664	-5.53	7.7	-1.05	-0.215	-0.3184	-0.3625	
0.257298	0.908046	0.31903	-4.13	4.48	-3.29	-0.2093	-0.3078	-0.3671	
0.256688	0.918172	0.323544	-5.32	3.71	-4.48	-0.2152	-0.3032	-0.3716	
0.251808	0.89914	0.322934	-5.04	3.57	-4.9	-0.2107	-0.3124	-0.3747	
0.222284	0.887062	0.305122	-3.15	2.45	-4.69	-0.2136	-0.3093	-0.3777	
0.209962	0.919148	0.308538	-0.84	0.49	-5.81	-0.2004	-0.3156	-0.3733	
0.210694	0.931592	0.3111	-1.68	-1.26	-5.53	-0.2149	-0.3169	-0.3747	
0.209962	0.912682	0.308172	-1.54	-2.87	-3.92	-0.2006	-0.3095	-0.3702	
0.210938	0.897798	0.307196	-1.54	-3.22	-1.96	-0.2106	-0.3185	-0.3686	
0.202032	0.904508	0.310368	0.56	-3.43	-0.77	-0.2194	-0.3092	-0.3823	
0.207888	0.916586	0.319396	1.26	-3.78	0	-0.2151	-0.3062	-0.3716	
0.215696	0.90646	0.310978	0.28	-4.62	1.54	-0.2092	-0.3139	-0.3717	
0.220576	0.904508	0.318298	1.96	-6.16	2.73	-0.2136	-0.3108	-0.3762	
0.216428	0.907802	0.318176	3.57	-6.37	4.06	-0.2179	-0.3123	-0.3716	
0.204594	0.90951	0.305	6.37	-6.86	5.32	-0.2107	-0.3094	-0.3732	
0.215208	0.91866	0.301096	6.51	-7.42	6.44	-0.2106	-0.317	-0.3793	
0.222528	0.922686	0.296216	4.48	-6.51	7.91	-0.2179	-0.3183	-0.3685	
0.230092	0.912926	0.298534	3.64	-7.07	10.01	-0.2237	-0.3152	-0.3685	
0.24644	0.901824	0.296216	5.11	-12.18	11.06	-0.2208	-0.3213	-0.367	
0.236558	0.906094	0.284504	5.6	-7.84	13.3	-0.2325	-0.3075	-0.3715	
0.249978	0.91622	0.285236	6.58	-8.82	14.21	-0.2194	-0.3153	-0.367	
0.252418	0.923784	0.279624	6.86	-9.31	15.26	-0.2281	-0.3121	-0.3669	
0.263886	0.91012	0.288774	7.63	-7.35	16.94	-0.2442	-0.3134	-0.3592	
0.259128	0.896822	0.271572	7.49	-6.86	19.25	-0.2341	-0.3105	-0.3531	
0.27023	0.915732	0.268888	9.31	-8.12	20.02	-0.2356	-0.3059	-0.3561	
0.261568	0.907558	0.266082	7.63	-6.79	21.7	-0.2355	-0.3059	-0.3638	
0.283284	0.894626	0.275598	7.28	-8.54	22.89	-0.2398	-0.3119	-0.3577	
0.304268	0.904142	0.266814	8.12	-9.94	22.82	-0.2471	-0.3133	-0.3591	
0.301828	0.905728	0.254004	7.84	-11.69	23.45	-0.2456	-0.3133	-0.3546	
0.309026	0.892552	0.24705	7.91	-11.83	24.99	-0.2618	-0.304	-0.3468	
0.300486	0.900726	0.244732	10.22	-12.18	27.02	-0.2558	-0.3117	-0.3575	
0.321226	0.914512	0.237168	10.92	-12.39	27.3	-0.2615	-0.3177	-0.359	
0.352458	0.903166	0.239364	9.03	-14.42	27.65	-0.2692	-0.2993	-0.3436	
0.348676	0.888282	0.231922	7.7	-13.79	28.42	-0.2663	-0.2993	-0.3437	
0.361852	0.87657	0.238632	7.42	-14.28	29.61	-0.2778	-0.3082	-0.3344	
0.370636	0.88206	0.23241	9.66	-16.03	28.77	-0.2836	-0.3082	-0.342	
0.372954	0.87413	0.220576	9.31	-15.89	30.38	-0.2823	-0.3006	-0.3344	
0.391864	0.86498	0.216306	9.45	-17.78	31.22	-0.2954	-0.3004	-0.3312	
0.420046	0.868274	0.207766	11.27	-18.55	30.8	-0.2839	-0.2899	-0.3267	
0.429318	0.866688	0.206546	11.13	-18.27	32.69	-0.3012	-0.3033	-0.3266	
0.437736	0.879986	0.20191	12.11	-17.36	33.11	-0.2998	-0.2988	-0.3327	
0.438956	0.860344	0.185074	10.08	-16.73	34.72	-0.3057	-0.2926	-0.325	
0.464576	0.84607	0.179828	9.38	-17.29	36.4	-0.3044	-0.2865	-0.3127	
0.477508	0.851438	0.177632	10.99	-16.94	36.61	-0.3174	-0.2864	-0.3249	
0.479582	0.853268	0.167628	10.92	-16.8	36.68	-0.3161	-0.2833	-0.3126	
0.498492	0.838262	0.158356	8.33	-16.45	37.31	-0.3277	-0.2816	-0.3171	
0.518256	0.818742	0.151524	10.43	-17.08	38.15	-0.3409	-0.2799	-0.3094	
0.503738	0.829478	0.141276	11.48	-17.01	39.41	-0.338	-0.2754	-0.3094	
0.504714	0.851316	0.134566	9.52	-17.36	40.53	-0.3511	-0.2767	-0.3017	
0.545828	0.847168	0.146644	7.35	-18.69	39.69	-0.3528	-0.266	-0.2986	
0.57218	0.810934	0.135908	4.9	-16.66	38.64	-0.3615	-0.2628	-0.2985	
0.582062	0.781166	0.119438	5.46	-17.78	37.8	-0.3617	-0.2552	-0.2923	
0.587796	0.77104	0.100528	7.35	-19.32	36.26	-0.3703	-0.2612	-0.2908	
0.590968	0.7869	0.101382	7.77	-20.93	37.17	-0.3836	-0.2443	-0.2967	
0.612562	0.80764	0.10736	7.07	-22.4	37.1	-0.3822	-0.2458	-0.2845	
0.648552	0.793732	0.105286	4.97	-22.26	36.47	-0.3896	-0.2441	-0.2722	
0.67954	0.759938	0.097966	5.04	-21.21	34.79	-0.3824	-0.2397	-0.2723	
0.683566	0.749324	0.082594	5.39	-20.3	34.02	-0.3955	-0.238	-0.2737	
0.671122	0.74359	0.068076	6.58	-19.95	32.9	-0.3926	-0.235	-0.2798	
0.66124	0.743956	0.058804	8.19	-19.81	32.06	-0.3942	-0.2273	-0.2737	
0.664412	0.753838	0.064782	7.35	-18.83	32.2	-0.4088	-0.2256	-0.2659	
0.666974	0.748836	0.051728	3.78	-17.85	32.41	-0.4175	-0.2254	-0.2582	
0.69601	0.730536	0.051728	2.03	-16.52	32.62	-0.406	-0.2226	-0.2567	
0.696376	0.703086	0.03599	1.61	-15.26	32.55	-0.4076	-0.2074	-0.2689	
0.709552	0.701744	0.032818	2.45	-14.14	32.83	-0.4206	-0.2147	-0.2551	
0.745542	0.70028	0.04514	3.64	-19.18	33.32	-0.4237	-0.2056	-0.252	
0.745176	0.68564	0.033306	8.05	-16.45	28.14	-0.4195	-0.1965	-0.2458	
0.738466	0.682224	0.024156	0.28	-14.7	33.25	-0.4295	-0.204	-0.2504	
0.74786	0.693448	0.022082	4.62	-16.94	30.38	-0.4254	-0.1903	-0.2473	
0.741882	0.702476	0.020008	2.8	-16.66	30.45	-0.4327	-0.1932	-0.2396	
0.755302	0.683444	0.013298	-2.03	-13.86	30.8	-0.4457	-0.19	-0.2456	
0.770674	0.658312	0.011468	-2.03	-14.56	28.7	-0.4416	-0.181	-0.2395	
0.77104	0.638304	-0.000732	-2.66	-15.33	28.84	-0.4458	-0.184	-0.2456	
0.769942	0.64538	-0.003416	-2.8	-14.07	28.91	-0.4474	-0.1778	-0.241	
0.796904	0.62037	-0.009272	-6.02	-13.44	28.28	-0.4489	-0.1748	-0.2394	
0.823378	0.583282	-0.0061	-7.56	-12.53	27.51	-0.4563	-0.167	-0.2302	
0.852292	0.573766	0.00244	-5.95	-26.25	30.59	-0.455	-0.1595	-0.2302	
0.828868	0.56974	-0.009881999	5.11	-15.47	19.53	-0.4623	-0.1594	-0.2301	
0.830942	0.584624	-0.013908	-5.32	-12.46	26.53	-0.4637	-0.1563	-0.2332	
0.839604	0.586454	-0.015738	0.7	-15.68	20.44	-0.455	-0.1579	-0.2286	
0.838872	0.57767	-0.02318	-2.03	-15.82	19.74	-0.4638	-0.1533	-0.2332	
0.831308	0.557784	-0.032452	-4.27	-15.89	19.67	-0.4639	-0.1517	-0.2179	
0.829722	0.548756	-0.037088	-3.36	-16.38	16.87	-0.464	-0.1471	-0.2194	
0.863882	0.5429	-0.027938	-2.31	-15.19	14.14	-0.4727	-0.1455	-0.2224	
0.88938	0.522648	-0.03782	-1.47	-14.28	11.9	-0.4742	-0.1439	-0.2147	
0.906582	0.546316	-0.040016	0.84	-17.78	13.72	-0.4743	-0.1409	-0.2086	
0.906704	0.553636	-0.052338	6.65	-13.09	7.91	-0.4758	-0.1424	-0.2009	
0.89914	0.57096	-0.048068	-2.87	-7.35	13.23	-0.4728	-0.1439	-0.2055	
0.890112	0.547536	-0.053558	0.07	-6.86	9.03	-0.4744	-0.1317	-0.2055	
0.889136	0.52094	-0.055022	-2.17	-3.71	9.52	-0.4745	-0.1302	-0.2024	
0.877424	0.517768	-0.05978	-0.63	-1.54	9.03	-0.4787	-0.1378	-0.2116	
0.858148	0.52277	-0.057828	1.26	-0.7	7.98	-0.4789	-0.1211	-0.2085	
0.847046	0.529114	-0.050752	2.17	-0.07	7.56	-0.4848	-0.1164	-0.2069	
0.853024	0.52704	-0.050386	1.4	0	5.67	-0.4717	-0.1211	-0.2039	
0.83509	0.520086	-0.068808	1.82	-1.61	4.06	-0.4788	-0.1256	-0.2131	
0.873276	0.507032	-0.062952	5.32	-5.81	0.77	-0.4877	-0.1239	-0.2023	
0.848632	0.54473	-0.06893	-0.63	0.84	5.46	-0.4848	-0.1194	-0.2023	
0.854366	0.540826	-0.061854	-0.98	-0.42	3.92	-0.4805	-0.121	-0.1978	
0.868152	0.50752	-0.06832	-1.68	-2.45	1.54	-0.4862	-0.1194	-0.2069	
0.870836	0.50447	-0.073688	-0.91	-2.8	1.61	-0.4919	-0.133	-0.2008	
0.864004	0.524478	-0.07259	1.12	-2.8	0.56	-0.4789	-0.1301	-0.2008	
0.864004	0.531554	-0.0671	-0.77	-2.8	0.98	-0.482	-0.1134	-0.2008	
0.878766	0.516304	-0.06832	-1.26	-1.54	-0.07	-0.4832	-0.1286	-0.2008	
0.89487	0.511546	-0.058926	-0.21	0.35	-0.56	-0.4774	-0.1286	-0.1978	
0.899994	0.518866	-0.061976	-0.21	1.61	-1.4	-0.4732	-0.1211	-0.2039	
0.88511	0.527528	-0.05673	0.49	2.24	-1.75	-0.4774	-0.1241	-0.207	
0.914024	0.50508	-0.061488	3.43	-2.1	-6.86	-0.4789	-0.1256	-0.2054	
0.897554	0.54778	-0.058438	-3.01	6.93	-1.05	-0.4818	-0.124	-0.2023	
0.905972	0.534238	-0.06039	-0.49	7.07	-4.41	-0.4801	-0.1378	-0.2116	
0.888282	0.52704	-0.070028	2.17	7.84	-7.63	-0.4876	-0.1285	-0.1962	
0.883158	0.533628	-0.069174	-1.89	10.22	-5.88	-0.4876	-0.127	-0.2084	
0.879864	0.554124	-0.063318	-0.49	10.99	-8.61	-0.4802	-0.1317	-0.2116	
0.867664	0.560712	-0.05856	-3.36	11.41	-9.31	-0.4729	-0.1364	-0.2147	
0.86559	0.550342	-0.049288	-4.83	12.11	-10.78	-0.4744	-0.1333	-0.2101	
0.85766	0.536434	-0.054656	-4.9	11.76	-13.16	-0.4772	-0.1393	-0.2162	
0.856074	0.541802	-0.055022	-5.53	11.62	-14.49	-0.4714	-0.1409	-0.2071	
0.857538	0.5612	-0.041724	-4.48	10.71	-16.31	-0.4685	-0.1349	-0.2147	
0.850828	0.570228	-0.036478	-5.81	10.71	-17.29	-0.4756	-0.1409	-0.2284	
0.847778	0.563152	-0.035746	-7.49	10.78	-18.69	-0.4669	-0.144	-0.2147	
0.8479	0.562786	-0.030012	-8.47	11.34	-20.09	-0.4756	-0.144	-0.23	
0.849364	0.56303	-0.020984	-8.89	11.2	-21.42	-0.4624	-0.1548	-0.2255	
0.833992	0.575962	-0.013664	-9.03	11.9	-22.4	-0.4684	-0.1425	-0.2209	
0.824842	0.585966	-0.00854	-9.38	12.32	-23.87	-0.4653	-0.1532	-0.2224	
0.835334	0.58011	0.00061	-9.31	12.46	-25.13	-0.4639	-0.1487	-0.227	
0.815326	0.586332	-0.003172	-9.87	11.9	-25.83	-0.4565	-0.1579	-0.2286	
0.805688	0.598044	-0.000488	-9.8	11.83	-26.67	-0.4623	-0.1518	-0.2423	
0.80337	0.603534	0.00061	-9.66	11.27	-27.44	-0.4563	-0.164	-0.2378	
0.803492	0.60817	0.009393999	-7.35	12.95	-28.84	-0.4519	-0.1671	-0.2409	
0.798246	0.61854	0.018422	-5.95	13.3	-30.24	-0.4432	-0.1673	-0.2425	
0.801784	0.640256	0.024278	-6.16	14	-31.36	-0.4445	-0.1794	-0.2395	
0.79544	0.665754	0.029158	-5.18	15.68	-32.2	-0.4386	-0.1841	-0.2457	
0.76982	0.665754	0.034404	-6.37	15.96	-32.83	-0.4299	-0.1781	-0.2427	
0.754936	0.66429	0.043188	-7.28	16.73	-33.39	-0.4401	-0.1795	-0.2456	
0.747372	0.666852	0.04575	-6.23	16.1	-35.35	-0.4327	-0.1857	-0.2549	
0.744566	0.674294	0.047214	-6.72	15.82	-35.7	-0.4239	-0.1904	-0.255	
0.727974	0.69479	0.068076	-5.11	15.96	-35.14	-0.4237	-0.2026	-0.2611	
0.703086	0.733952	0.065514	-8.61	16.31	-35.14	-0.4266	-0.2025	-0.2611	
0.701744	0.73749	0.084668	-12.67	17.64	-34.93	-0.4223	-0.198	-0.2627	
0.703208	0.738344	0.101626	-12.95	17.08	-37.1	-0.4119	-0.2134	-0.2658	
0.678076	0.745664	0.103334	-12.88	17.08	-37.87	-0.4104	-0.2119	-0.2689	
0.678808	0.757376	0.124196	-13.37	18.34	-38.43	-0.4088	-0.2226	-0.2705	
0.657946	0.77287	0.130418	-14.91	18.41	-38.71	-0.3913	-0.2213	-0.2752	
0.643672	0.782752	0.14396	-14.84	17.99	-39.48	-0.3956	-0.2258	-0.2752	
0.606584	0.78751	0.146522	-15.61	17.22	-40.6	-0.394	-0.2335	-0.2844	
0.598654	0.786168	0.155062	-17.5	16.94	-41.51	-0.391	-0.235	-0.289	
0.588528	0.79239	0.157258	-17.15	16.66	-42.77	-0.3852	-0.2336	-0.2936	
0.579256	0.800076	0.169336	-16.38	15.68	-43.33	-0.3706	-0.2354	-0.2983	
0.568642	0.803614	0.181414	-17.36	16.87	-42.77	-0.3778	-0.2459	-0.2983	
0.549366	0.803858	0.182756	-18.69	17.01	-42.14	-0.3602	-0.2522	-0.3031	
0.547292	0.799222	0.186904	-18.13	15.82	-43.61	-0.3647	-0.2415	-0.2999	
0.535092	0.812398	0.201422	-19.74	16.66	-44.03	-0.3557	-0.2554	-0.3107	
0.528504	0.803492	0.193614	-20.16	18.27	-43.19	-0.3456	-0.251	-0.3108	
0.514718	0.810324	0.216672	-21.77	18.34	-40.74	-0.3426	-0.2556	-0.32	
0.50569	0.822524	0.230336	-18.55	20.16	-42.35	-0.3309	-0.2634	-0.3201	
0.487024	0.823378	0.233264	-19.95	22.12	-41.3	-0.3235	-0.268	-0.3248	
0.479338	0.813984	0.233142	-19.46	23.73	-40.67	-0.3249	-0.2635	-0.3401	
0.470066	0.82106	0.235216	-18.83	24.57	-39.62	-0.3089	-0.2683	-0.3295	
0.456402	0.839238	0.238998	-17.08	25.2	-39.06	-0.3059	-0.2653	-0.3479	
0.432734	0.850218	0.251442	-17.01	27.79	-37.03	-0.3104	-0.2607	-0.3386	
0.40931	0.847534	0.266448	-16.24	32.76	-35.63	-0.3102	-0.2729	-0.3448	
0.392718	0.83631	0.269498	-16.1	34.79	-35.56	-0.2941	-0.2792	-0.3449	
0.3843	0.85278	0.272914	-12.6	32.13	-37.73	-0.2812	-0.2672	-0.3542	
0.389668	0.910364	0.298168	-12.25	32.06	-37.38	-0.278	-0.284	-0.3512	
0.389302	0.918782	0.310856	-16.66	42.07	-38.92	-0.2721	-0.2872	-0.3711	
0.367098	0.862296	0.32452	-24.71	41.93	-34.93	-0.2692	-0.2872	-0.3681	
0.359168	0.84058	0.32208	-21.07	42.7	-38.85	-0.2532	-0.2874	-0.3682	
0.341966	0.866444	0.35136	-20.44	44.03	-39.48	-0.2445	-0.2815	-0.382	
0.30622	0.887306	0.371002	-18.2	47.53	-42.56	-0.2242	-0.2788	-0.3806	
0.265228	0.868152	0.364536	-21.77	47.95	-43.19	-0.2255	-0.2818	-0.3867	
0.208864	0.880108	0.36295	-18.97	48.3	-44.38	-0.2093	-0.2897	-0.3991	
0.17019	0.896212	0.370636	-17.78	44.24	-45.36	-0.2066	-0.2836	-0.3884	
0.160918	0.898286	0.375394	-18.83	39.48	-45.57	-0.1906	-0.2809	-0.4038	
0.147254	0.899506	0.376126	-19.74	37.03	-46.41	-0.1906	-0.2778	-0.4099	
0.131394	0.885354	0.395402	-19.6	33.53	-45.71	-0.1787	-0.2932	-0.4177	
0.127002	0.88084	0.424682	-18.9	31.15	-45.29	-0.1673	-0.2782	-0.4162	
0.097722	0.85034	0.402966	-20.86	30.17	-40.18	-0.1614	-0.2798	-0.4163	
0.062342	0.854854	0.427488	-17.15	29.47	-38.92	-0.1526	-0.2845	-0.4255	
0.024888	0.872178	0.433222	-17.92	28.42	-37.66	-0.1394	-0.2863	-0.4333	
0.015494	0.869006	0.445056	-18.34	27.09	-35.84	-0.138	-0.2863	-0.4318	
0.018178	0.84912	0.440786	-20.44	26.67	-33.46	-0.1381	-0.2802	-0.4287	
0.035258	0.849608	0.457622	-18.27	22.12	-33.32	-0.1324	-0.2681	-0.4333	
0.036966	0.87169	0.46482	-15.68	20.16	-33.6	-0.1323	-0.2772	-0.4272	
0.016226	0.86864	0.462014	-16.8	20.72	-31.22	-0.1133	-0.2791	-0.4472	
-0.014884	0.865956	0.470554	-18.69	22.54	-29.33	-0.1061	-0.2776	-0.435	
-0.03599	0.86498	0.482266	-19.67	24.99	-27.44	-0.09739999	-0.2702	-0.4443	
-0.05856	0.857904	0.499346	-20.93	26.25	-25.97	-0.1033	-0.2716	-0.4396	
-0.075518	0.859368	0.491416	-21.28	23.17	-25.97	-0.0988	-0.2732	-0.4504	
-0.08113	0.859124	0.478606	-19.6	20.51	-25.41	-0.0889	-0.2567	-0.4489	
-0.05368	0.849608	0.509716	-21.35	18.41	-25.2	-0.0799	-0.269	-0.4536	
-0.032574	0.842898	0.535336	-21.21	20.16	-25.9	-0.0685	-0.2645	-0.4445	
-0.060878	0.823622	0.54168	-20.72	22.54	-25.83	-0.0815	-0.2599	-0.4642	
-0.08418	0.82838	0.538142	-20.02	24.85	-25.97	-0.067	-0.2555	-0.4628	
-0.07259	0.824476	0.552782	-20.65	26.39	-26.53	-0.0568	-0.2557	-0.4659	
-0.051118	0.787144	0.550708	-20.44	28.63	-28.35	-0.06	-0.2434	-0.4552	
-0.080642	0.7808	0.556564	-18.2	30.38	-28.77	-0.0423	-0.2513	-0.4691	
-0.13115	0.810324	0.56547	-15.12	30.52	-29.96	-0.038	-0.2483	-0.463	
-0.210084	0.80093	0.519964	-17.78	32.06	-27.44	-0.0395	-0.2407	-0.4737	
-0.239608	0.793122	0.544852	-17.92	30.1	-23.45	-0.0234	-0.2501	-0.4738	
-0.24217	0.795196	0.53558	-18.41	27.72	-22.54	-0.0192	-0.2426	-0.4723	
-0.204228	0.768478	0.555222	-18.69	22.89	-22.33	-0.0207	-0.2395	-0.4661	
-0.19093	0.743712	0.573888	-14.98	21.98	-20.93	-0.0105	-0.2321	-0.483	
-0.249856	0.765428	0.55388	-11.27	22.54	-21.07	-0.0106	-0.229	-0.4723	
-0.26352	0.777018	0.553392	-10.08	21.42	-21.07	-0.0048	-0.2276	-0.4846	
-0.260226	0.788486	0.558638	-10.29	19.32	-19.53	-0.0004	-0.2322	-0.4785	
-0.222772	0.767014	0.577182	-9.03	16.66	-19.6	0.0037	-0.2231	-0.4739	
-0.25437	0.75762	0.57645	-7.49	18.55	-18.76	0.0255	-0.2235	-0.4756	
-0.273524	0.757254	0.574742	-5.18	19.25	-17.78	0.0255	-0.2235	-0.4756	
-0.280112	0.757132	0.56608	-4.62	21.56	-15.05	0.0285	-0.219	-0.4894	
-0.266448	0.76189	0.568886	-1.96	21.35	-15.12	0.0356	-0.2145	-0.4772	
-0.319274	0.758596	0.561444	-2.94	25.13	-11.62	0.0329	-0.2266	-0.4818	
-0.318786	0.744444	0.558028	-0.42	24.57	-11.97	0.0313	-0.2205	-0.4726	
-0.3477	0.74725	0.551074	-0.77	25.2	-10.78	0.0313	-0.222	-0.4711	
-0.371978	0.754448	0.549488	-0.77	24.57	-8.54	0.0443	-0.2161	-0.4757	
-0.371246	0.752252	0.549854	-1.33	22.96	-7.7	0.0502	-0.2253	-0.4712	
-0.392596	0.768356	0.543144	-3.01	21.63	-6.37	0.0488	-0.2223	-0.4758	
-0.40565	0.77836	0.533384	-1.33	17.5	-8.19	0.0589	-0.2194	-0.4789	
-0.41297	0.765916	0.53802	-5.25	15.4	-6.37	0.0733	-0.2151	-0.4744	
-0.426756	0.769332	0.529968	-4.27	13.37	-6.93	0.0588	-0.2118	-0.4712	
-0.450424	0.777506	0.535946	-6.93	10.71	-6.93	0.0632	-0.2149	-0.4759	
-0.439444	0.751276	0.549732	-9.03	8.68	-6.58	0.0602	-0.2088	-0.4774	
-0.426756	0.72895	0.545096	-9.59	5.95	-6.37	0.0676	-0.215	-0.479	
-0.420046	0.72651	0.554856	-7.07	1.12	-8.12	0.0704	-0.2105	-0.479	
-0.416874	0.73017	0.55876	-7	-2.1	-8.96	0.0659	-0.2028	-0.4743	
-0.407846	0.72224	0.568032	-6.3	-2.73	-7.98	0.0646	-0.2104	-0.4866	
-0.404308	0.714188	0.574986	-6.93	-1.96	-5.81	0.0689	-0.2074	-0.4805	
-0.412726	0.703696	0.574498	-6.44	-1.47	-4.76	0.0763	-0.2106	-0.4836	
-0.416142	0.7015	0.580842	-4.2	-1.96	-3.92	0.0762	-0.206	-0.479	
-0.402356	0.702232	0.580476	-3.01	-3.15	-3.15	0.0674	-0.2028	-0.485	
-0.388692	0.707356	0.590846	-2.45	-2.31	-1.4	0.07759999	-0.1999	-0.4836	
-0.41846	0.699548	0.592188	-2.03	-0.84	1.05	0.0731	-0.1953	-0.4805	
-0.426512	0.69357	0.598532	-0.7	-2.31	1.82	0.07319999	-0.2029	-0.482	
-0.446154	0.701256	0.598044	1.89	-6.58	2.94	0.069	-0.2059	-0.4927	
-0.399794	0.70272	0.583892	6.58	-9.87	0.42	0.066	-0.2028	-0.4881	
-0.418216	0.728706	0.581452	3.22	-5.95	4.76	0.0645	-0.2013	-0.485	
-0.424438	0.723582	0.575596	2.38	-7.98	7.28	0.0602	-0.2042	-0.4819	
-0.41419	0.710528	0.575474	0.77	-10.22	8.75	0.0645	-0.1998	-0.4896	
-0.405162	0.708576	0.5795	1.61	-10.57	10.57	0.053	-0.2072	-0.4834	
-0.401258	0.698938	0.576816	1.75	-12.53	11.83	0.0558	-0.1996	-0.4834	
-0.383568	0.704794	0.589016	5.74	-15.05	11.55	0.0559	-0.2088	-0.4911	
-0.37027	0.7137	0.590724	6.72	-16.66	12.46	0.0544	-0.2117	-0.4789	
-0.359656	0.712968	0.595238	8.19	-18.69	13.51	0.0457	-0.2101	-0.4834	
-0.347212	0.715286	0.594872	10.92	-17.78	14.49	0.0471	-0.2071	-0.4788	
-0.353678	0.730292	0.591212	11.06	-17.43	16.1	0.053	-0.2133	-0.4834	
-0.351116	0.727974	0.579866	11.34	-18.34	17.71	0.0371	-0.2145	-0.4818	
-0.334646	0.716872	0.57218	11.48	-18.83	19.18	0.0356	-0.2145	-0.4848	
-0.313662	0.728096	0.573522	11.34	-17.99	20.09	0.0297	-0.2144	-0.4741	
-0.309026	0.733708	0.576206	11.06	-18.55	21.28	0.0227	-0.2235	-0.4832	
-0.285236	0.728828	0.587308	11.69	-20.72	21.84	0.0269	-0.2235	-0.4649	
-0.267668	0.75518	0.584746	16.73	-23.38	20.79	0.0183	-0.2249	-0.4771	
-0.261568	0.762012	0.545096	17.78	-20.58	22.19	0.017	-0.2325	-0.4848	
-0.266082	0.761158	0.554002	17.43	-19.6	25.13	0.009699999	-0.2324	-0.4816	
-0.275842	0.802638	0.563518	22.54	-18.41	25.13	0.0011	-0.2398	-0.4755	
-0.242292	0.805932	0.556076	19.04	-16.45	27.72	0.0011	-0.2398	-0.4755	
-0.22387	0.789218	0.548146	18.9	-16.59	28.42	-0.0018	-0.2352	-0.4755	
-0.23424	0.790072	0.534238	20.09	-17.22	28.49	-0.0119	-0.2426	-0.4662	
-0.226676	0.8052	0.527284	21.91	-22.82	27.72	-0.0177	-0.2426	-0.4692	
-0.183122	0.805932	0.531798	21.28	-24.01	28.21	-0.0207	-0.2455	-0.4616	
-0.171288	0.81313	0.514474	21.63	-21.98	29.19	-0.0247	-0.2653	-0.4662	
-0.177266	0.837774	0.513132	22.75	-23.1	29.19	-0.0335	-0.253	-0.4737	
-0.157014	0.852902	0.506178	20.65	-22.12	29.33	-0.0394	-0.2559	-0.4676	
-0.130662	0.842166	0.502396	18.97	-22.96	29.89	-0.0422	-0.262	-0.4676	
-0.11895	0.836798	0.490684	19.11	-24.22	29.96	-0.0494	-0.2679	-0.4553	
-0.121878	0.840092	0.47519	19.53	-25.27	30.45	-0.0568	-0.2602	-0.4506	
-0.096258	0.846924	0.486658	19.32	-26.18	31.43	-0.0626	-0.2631	-0.4537	
-0.055388	0.852414	0.490318	18.97	-26.88	31.57	-0.0654	-0.2707	-0.4521	
-0.030378	0.845582	0.483242	19.18	-25.9	31.29	-0.0857	-0.2749	-0.4489	
-0.019886	0.845826	0.476532	21	-24.5	31.78	-0.07979999	-0.2796	-0.4521	
-0.013542	0.857904	0.462624	22.05	-24.08	31.36	-0.083	-0.2704	-0.4352	
0.003782	0.876326	0.455304	23.17	-23.52	30.52	-0.0915	-0.2794	-0.4397	
0.016714	0.887428	0.449692	22.4	-24.22	31.01	-0.1017	-0.2792	-0.4351	
0.034892	0.89121	0.448716	23.52	-24.5	31.5	-0.1076	-0.2761	-0.4335	
0.0488	0.892186	0.43554	22.89	-23.66	33.39	-0.1117	-0.2927	-0.432	
0.07686	0.895114	0.426146	22.75	-21.7	34.44	-0.122	-0.2865	-0.4319	
0.101016	0.884988	0.418582	22.12	-20.3	36.4	-0.1278	-0.2925	-0.4257	
0.105774	0.891332	0.401136	23.59	-19.53	38.15	-0.1292	-0.294	-0.4211	
0.099186	0.896456	0.400282	25.62	-23.24	38.15	-0.1365	-0.2923	-0.4165	
0.11224	0.898042	0.39223	29.61	-19.11	35.07	-0.135	-0.2969	-0.4196	
0.171532	0.865224	0.36844	27.86	-20.09	38.71	-0.1596	-0.3132	-0.4072	
0.169702	0.892186	0.349774	28.49	-17.99	40.25	-0.1627	-0.3041	-0.398	
0.157136	0.90524	0.335622	27.79	-19.32	41.93	-0.1699	-0.3025	-0.4071	
0.17568	0.89182	0.318664	26.46	-22.4	41.79	-0.1786	-0.3053	-0.3948	
0.20618	0.90402	0.311832	27.51	-15.12	39.2	-0.1802	-0.3022	-0.3841	
0.2074	0.907802	0.30744	21.98	-19.6	43.4	-0.1903	-0.3036	-0.3886	
0.209474	0.9028	0.293898	23.52	-21.14	41.02	-0.1976	-0.3035	-0.384	
0.262178	0.88694	0.29585	23.66	-24.57	39.34	-0.2033	-0.311	-0.387	
0.26718	0.90402	0.27755	25.69	-24.71	39.9	-0.2078	-0.3109	-0.3717	
0.257298	0.912682	0.268888	26.74	-25.69	38.71	-0.2138	-0.2971	-0.3639	
0.270718	0.91378	0.26291	24.01	-26.46	38.22	-0.2295	-0.3136	-0.3761	
0.30744	0.889502	0.252052	22.68	-29.89	38.29	-0.2325	-0.3105	-0.3669	
0.340014	0.888892	0.244976	24.01	-29.61	37.59	-0.2486	-0.3042	-0.3606	
0.357094	0.896822	0.229482	25.13	-31.22	36.68	-0.2501	-0.3117	-0.3499	
0.36051	0.894992	0.222162	23.73	-30.66	37.45	-0.2486	-0.3087	-0.3515	
0.372588	0.879132	0.204838	22.75	-31.92	36.68	-0.2618	-0.3009	-0.3483	
0.392352	0.885354	0.197396	23.03	-33.74	35.21	-0.2677	-0.3038	-0.3375	
0.40077	0.900604	0.181902	22.68	-36.26	33.74	-0.2793	-0.3037	-0.3359	
0.426024	0.89365	0.178608	23.17	-35.77	32.62	-0.2794	-0.3006	-0.3313	
0.432612	0.8784	0.168604	22.68	-35.77	32.83	-0.2837	-0.3081	-0.3283	
0.457988	0.8723	0.151768	22.61	-37.03	31.99	-0.3028	-0.3002	-0.3082	
0.481412	0.867054	0.152256	22.47	-34.79	31.22	-0.3013	-0.3033	-0.3098	
0.488732	0.866688	0.147864	21.42	-35.14	32.34	-0.3101	-0.3001	-0.3097	
0.514718	0.858148	0.15189	21.77	-32.9	32.2	-0.3144	-0.3106	-0.2974	
0.515084	0.854976	0.137494	20.37	-29.75	32.97	-0.3305	-0.2982	-0.2973	
0.517646	0.855098	0.118584	19.74	-28.63	32.55	-0.3262	-0.3013	-0.2912	
0.512522	0.86254	0.092476	19.46	-29.68	31.36	-0.3349	-0.2982	-0.2927	
0.512766	0.86803	0.072834	19.32	-28.7	31.57	-0.3306	-0.3043	-0.2805	
0.53558	0.853512	0.068442	18.55	-26.46	31.5	-0.3554	-0.3008	-0.2726	
0.560956	0.847412	0.055632	16.52	-25.06	30.94	-0.3511	-0.2948	-0.2665	
0.556564	0.851316	0.026962	15.68	-26.11	29.82	-0.3483	-0.2857	-0.2696	
0.566812	0.859612	0.030012	15.47	-24.57	30.03	-0.3615	-0.287	-0.2603	
0.593164	0.842654	0.025864	14.42	-22.61	30.8	-0.373	-0.2899	-0.2618	
0.58194	0.831918	0.022692	13.37	-22.26	32.55	-0.3776	-0.2837	-0.2464	
0.543022	0.835456	0.001708	13.02	-21.56	32.48	-0.379	-0.2837	-0.2495	
0.56547	0.81801	0.003904	12.6	-21.07	30.8	-0.3849	-0.2791	-0.2479	
0.60878	0.799588	-0.00366	10.92	-21.56	31.01	-0.3806	-0.2746	-0.2464	
0.629276	0.7991	-0.007442	12.53	-21.35	31.5	-0.3835	-0.273	-0.2463	
0.63501	0.80276	0.006222	12.6	-21.35	33.53	-0.3954	-0.2622	-0.237	
0.619638	0.80215	-0.021228	12.53	-19.74	35.14	-0.3952	-0.2773	-0.2279	
0.632082	0.79849	-0.033306	9.38	-16.66	37.17	-0.4027	-0.262	-0.2247	
0.656238	0.779336	-0.044408	7.77	-15.82	36.54	-0.4027	-0.2605	-0.2355	
0.680638	0.758596	-0.039894	7.84	-14.84	37.1	-0.4057	-0.2559	-0.2308	
0.685396	0.741272	-0.025742	6.58	-12.46	38.08	-0.4058	-0.2544	-0.2232	
0.67649	0.72285	-0.040748	7.21	-11.34	38.22	-0.4191	-0.2435	-0.2077	
0.641232	0.70028	-0.06405	9.24	-14.77	36.96	-0.422	-0.2419	-0.2092	
0.664656	0.71065	-0.083326	10.99	-15.75	35.63	-0.4234	-0.245	-0.2169	
0.689422	0.71248	-0.08601	11.69	-19.04	35.56	-0.4134	-0.2345	-0.2123	
0.694302	0.732366	-0.073932	10.64	-19.18	37.03	-0.4338	-0.2311	-0.2061	
0.709186	0.731268	-0.07124799	5.39	-17.08	39.55	-0.4325	-0.2266	-0.1999	
0.75091	0.685274	-0.075274	-0.63	-13.51	42.14	-0.4398	-0.2219	-0.2029	
0.752984	0.636352	-0.106994	5.67	-18.27	40.46	-0.4547	-0.1989	-0.1905	
0.766038	0.678686	-0.10858	10.29	-15.19	39.06	-0.459	-0.2003	-0.1966	
0.790926	0.71675	-0.089792	6.86	-14.7	41.79	-0.4561	-0.2019	-0.192	
0.831064	0.718214	-0.086986	5.53	-11.76	40.25	-0.462	-0.1912	-0.1981	
0.828502	0.66734	-0.099308	2.31	-9.52	37.87	-0.4665	-0.1911	-0.1843	
0.82533	0.644526	-0.115046	1.89	-7.77	36.68	-0.4637	-0.182	-0.1797	
0.809592	0.636352	-0.106506	1.54	-5.95	35.7	-0.4767	-0.1864	-0.1919	
0.788852	0.648674	-0.104676	2.03	-5.95	35.98	-0.4755	-0.1681	-0.1872	
0.800686	0.630984	-0.103334	2.52	-4.55	32.9	-0.4711	-0.1697	-0.1888	
0.794342	0.602314	-0.11529	5.95	-9.66	28.28	-0.4756	-0.1666	-0.1811	
0.78629	0.586332	-0.130662	5.88	-11.34	24.92	-0.4699	-0.1591	-0.1811	
0.796294	0.58682	-0.13725	4.2	-9.73	23.73	-0.4728	-0.1621	-0.1735	
0.798368	0.57706	-0.139202	4.13	-9.45	22.26	-0.4875	-0.1482	-0.1764	
0.809836	0.551928	-0.153354	4.62	-8.47	19.74	-0.4788	-0.1498	-0.1703	
0.842898	0.552416	-0.145668	2.45	-7	20.58	-0.4831	-0.1498	-0.1733	
0.840458	0.563274	-0.16104	3.01	-8.68	19.6	-0.4848	-0.1421	-0.158	
0.832528	0.554978	-0.152866	-0.14	-8.89	18.48	-0.4863	-0.1391	-0.1641	
0.815936	0.538386	-0.158234	-0.91	4.2	13.02	-0.4934	-0.142	-0.1748	
0.868152	0.50386	-0.146644	-7.35	-5.39	17.78	-0.4846	-0.1482	-0.1779	
0.879742	0.499346	-0.160674	0.7	-4.76	10.22	-0.4892	-0.1345	-0.1748	
0.877668	0.48678	-0.162992	-2.38	-4.9	13.58	-0.4878	-0.1299	-0.1702	
0.88877	0.501054	-0.150548	0.91	-4.9	13.65	-0.4892	-0.1405	-0.1626	
0.888892	0.513132	-0.150182	1.47	-4.27	11.97	-0.4877	-0.1405	-0.161	
0.882304	0.483974	-0.162992	-2.1	-3.71	11.55	-0.4951	-0.1268	-0.1732	
0.887184	0.465674	-0.158112	-2.52	-3.5	10.29	-0.4907	-0.1238	-0.1778	
0.881206	0.482754	-0.16165	-0.63	-2.59	9.66	-0.4821	-0.1194	-0.1687	
0.88084	0.47519	-0.164334	-2.03	-2.31	7.56	-0.4923	-0.1177	-0.1671	
0.88023	0.47214	-0.178364	-1.82	-3.01	7.14	-0.4893	-0.1299	-0.1656	
0.884866	0.472628	-0.164212	-0.84	-1.54	7.42	-0.4895	-0.1192	-0.1594	
0.862906	0.477874	-0.164334	-0.42	-1.05	6.51	-0.488	-0.1208	-0.1656	
0.891942	0.453718	-0.174338	2.8	-7.42	2.17	-0.4881	-0.1162	-0.1594	
0.909876	0.48068	-0.152378	-1.75	-2.24	6.51	-0.4852	-0.1147	-0.1595	
0.903898	0.473604	-0.15921	-0.84	-0.98	4.69	-0.4982	-0.1146	-0.1624	
0.896944	0.474336	-0.1647	1.05	-5.81	3.85	-0.4983	-0.1145	-0.1594	
0.896944	0.477264	-0.179584	2.38	-1.75	0.21	-0.4997	-0.1145	-0.1639	
0.889502	0.474824	-0.156648	-3.64	0.91	3.01	-0.4953	-0.1161	-0.164	
0.906704	0.482144	-0.156038	0.63	-1.68	-0.49	-0.5011	-0.1191	-0.1548	
0.900848	0.48617	-0.164334	-1.12	1.82	-1.54	-0.5011	-0.1191	-0.1593	
0.912072	0.482998	-0.158112	-3.08	3.64	-1.61	-0.4969	-0.1085	-0.1548	
0.892796	0.499712	-0.158722	-2.8	3.22	-2.66	-0.4998	-0.116	-0.1502	
0.884866	0.482022	-0.170922	0.28	0.07	-6.58	-0.4938	-0.1177	-0.164	
0.89792	0.487878	-0.165432	-2.94	2.52	-5.6	-0.491	-0.1086	-0.167	
0.898408	0.504592	-0.160674	-3.64	5.11	-5.67	-0.497	-0.1009	-0.1609	
0.88328	0.501908	-0.172874	-1.54	4.2	-8.75	-0.4966	-0.1283	-0.1625	
0.887184	0.502518	-0.167994	-4.55	5.11	-8.12	-0.4954	-0.1146	-0.1563	
0.891942	0.50752	-0.158844	-4.48	5.39	-8.75	-0.4852	-0.1117	-0.164	
0.88328	0.505446	-0.164944	-2.66	4.41	-10.78	-0.4937	-0.1253	-0.164	
0.889746	0.523502	-0.15433	-3.71	5.67	-10.64	-0.4879	-0.1254	-0.1641	
0.88999	0.536678	-0.151768	-4.69	7.21	-12.32	-0.4895	-0.1147	-0.1701	
0.890356	0.517524	-0.147498	-6.02	8.33	-14.07	-0.4805	-0.1285	-0.1733	
0.889502	0.506544	-0.14457	-6.09	9.87	-15.26	-0.479	-0.1316	-0.1764	
0.88755	0.531432	-0.13237	-4.83	10.36	-16.66	-0.4964	-0.1344	-0.1763	
0.886086	0.55632	-0.121146	-9.31	12.39	-20.02	-0.4876	-0.1376	-0.1779	
0.87901	0.545218	-0.120048	-13.37	13.79	-21.14	-0.4804	-0.1392	-0.1733	
0.870348	0.54717	-0.130418	-14.35	14.42	-22.61	-0.4847	-0.1316	-0.1916	
0.859124	0.556198	-0.126026	-13.58	15.19	-24.71	-0.4846	-0.1346	-0.1962	
0.864004	0.562542	-0.124806	-15.61	16.87	-25.55	-0.4788	-0.1453	-0.1795	
0.853756	0.574254	-0.10614	-15.4	18.41	-24.99	-0.4772	-0.1514	-0.1917	
0.830942	0.585112	-0.089792	-12.74	19.46	-26.88	-0.4727	-0.1576	-0.1964	
0.838262	0.576938	-0.08235	-11.83	19.6	-31.5	-0.4757	-0.1515	-0.1979	
0.8418	0.597678	-0.067954	-7.91	23.45	-33.81	-0.4695	-0.1698	-0.2102	
0.844362	0.601338	-0.077592	-4.97	23.94	-38.29	-0.4637	-0.1699	-0.2148	
0.841312	0.621468	-0.063318	-6.37	24.78	-39.34	-0.4608	-0.1669	-0.2118	
0.828014	0.623298	-0.064416	-9.8	26.32	-38.64	-0.4563	-0.1746	-0.218	
0.79483	0.602558	-0.074542	-12.74	30.45	-37.38	-0.4563	-0.1776	-0.2149	
0.786778	0.604022	-0.05368	-17.36	28.07	-34.02	-0.4547	-0.1822	-0.2257	
0.786778	0.624518	-0.031842	-14.98	28.63	-36.33	-0.443	-0.1885	-0.2304	
0.777384	0.650016	-0.008905999	-16.94	27.51	-35.77	-0.4414	-0.1961	-0.2319	
0.754204	0.675514	-0.023668	-13.51	25.69	-37.31	-0.4313	-0.1857	-0.2396	
0.755424	0.679418	-0.003538	-16.66	24.29	-38.64	-0.434	-0.2008	-0.2427	
0.747616	0.705282	0.011346	-15.68	25.13	-40.11	-0.4294	-0.2176	-0.2474	
0.72285	0.703818	0.020252	-16.52	24.5	-41.58	-0.4149	-0.2163	-0.2459	
0.697962	0.720898	0.026718	-19.88	25.97	-41.51	-0.4147	-0.2209	-0.2551	
0.689666	0.72407	0.044774	-24.29	27.44	-41.37	-0.4118	-0.221	-0.2567	
0.685152	0.69723	0.051972	-25.69	26.53	-40.67	-0.4118	-0.221	-0.2597	
0.691984	0.69357	0.064782	-23.94	24.99	-40.81	-0.3986	-0.2212	-0.2721	
0.669536	0.721752	0.080642	-22.19	25.55	-40.32	-0.3957	-0.2228	-0.2736	
0.64965	0.761158	0.099674	-23.03	24.01	-39.97	-0.3912	-0.2289	-0.2844	
0.640134	0.78324	0.116266	-24.57	23.52	-42.07	-0.3868	-0.229	-0.289	
0.634644	0.77165	0.125294	-26.11	23.73	-42.42	-0.3764	-0.2413	-0.2861	
0.604266	0.772504	0.12932	-26.81	23.03	-42.49	-0.3749	-0.2444	-0.2983	
0.591334	0.80093	0.153842	-26.67	25.69	-43.12	-0.3704	-0.2506	-0.303	
0.574498	0.814838	0.165554	-26.88	24.92	-45.01	-0.3616	-0.2492	-0.3122	
0.56425	0.80825	0.19093	-28.84	27.02	-44.31	-0.3615	-0.2568	-0.3122	
0.563152	0.808128	0.20435	-28	25.83	-45.92	-0.3543	-0.2494	-0.326	
0.54046	0.81679	0.204228	-25.9	24.64	-47.74	-0.3484	-0.2525	-0.323	
0.507398	0.814716	0.219966	-27.23	24.78	-46.76	-0.3427	-0.245	-0.3246	
0.493002	0.828502	0.242292	-28.07	24.22	-45.71	-0.328	-0.2558	-0.3324	
0.486658	0.833138	0.25437	-25.55	23.17	-47.95	-0.3263	-0.2635	-0.3431	
0.46421	0.821548	0.25437	-26.81	23.1	-47.32	-0.3265	-0.2589	-0.3324	
0.447008	0.819596	0.264984	-26.95	24.71	-47.81	-0.3207	-0.2514	-0.3431	
0.438102	0.810568	0.269376	-27.86	27.51	-47.81	-0.3088	-0.2653	-0.3616	
0.432124	0.81679	0.289628	-26.6	28.84	-48.16	-0.3058	-0.2699	-0.3571	
0.405528	0.824598	0.300852	-26.18	30.03	-47.88	-0.2914	-0.2656	-0.3556	
0.385764	0.82716	0.327448	-26.25	31.78	-46.13	-0.2898	-0.2702	-0.3648	
0.37637	0.820572	0.33184	-25.2	33.53	-46.76	-0.2783	-0.2658	-0.3588	
0.35075	0.837164	0.337818	-25.06	35.07	-46.34	-0.2679	-0.2705	-0.3711	
0.340868	0.85095	0.356362	-25.34	37.8	-45.99	-0.2591	-0.2737	-0.3849	
0.31537	0.855098	0.36783	-29.05	41.02	-44.73	-0.2489	-0.2708	-0.3881	
0.284138	0.846192	0.37576	-29.12	44.31	-45.22	-0.2401	-0.2725	-0.4004	
0.246928	0.857538	0.386984	-27.86	44.38	-45.22	-0.2386	-0.2786	-0.3989	
0.234728	0.878156	0.421266	-25.34	41.16	-48.72	-0.2197	-0.2743	-0.3975	
0.231312	0.865956	0.428708	-28.56	42.21	-49.14	-0.2153	-0.2775	-0.4036	
0.187514	0.834968	0.433588	-29.47	42.35	-48.09	-0.1951	-0.2641	-0.4114	
0.178974	0.834114	0.452376	-27.51	42.84	-49	-0.1877	-0.2703	-0.4191	
0.157746	0.828258	0.469456	-28	42.35	-48.3	-0.1833	-0.2689	-0.4253	
0.095404	0.815448	0.45567	-27.44	41.79	-46.69	-0.1731	-0.2675	-0.4391	
0.07381	0.823012	0.487512	-23.94	38.08	-47.74	-0.1528	-0.2603	-0.4408	
0.078324	0.834968	0.49105	-21.98	37.66	-47.67	-0.1499	-0.2603	-0.4377	
0.1098	0.835212	0.518866	-23.94	36.68	-46.9	-0.141	-0.268	-0.4485	
0.099674	0.806176	0.508984	-23.8	41.44	-46.55	-0.131	-0.2591	-0.4516	
0.025376	0.793	0.493368	-20.51	42.91	-45.57	-0.112	-0.2594	-0.4564	
-0.037332	0.814594	0.50935	-16.38	41.93	-46.62	-0.1135	-0.2578	-0.4517	
-0.035746	0.813374	0.523258	-15.75	40.46	-46.69	-0.0975	-0.2596	-0.4626	
-0.05368	0.824232	0.530212	-15.33	41.79	-45.01	-0.0917	-0.2582	-0.4611	
-0.063928	0.80764	0.54107	-13.86	40.95	-42.91	-0.0786	-0.2584	-0.4581	
-0.082472	0.780922	0.543144	-13.3	41.44	-41.3	-0.0743	-0.2508	-0.4673	
-0.107848	0.776286	0.543998	-10.71	38.08	-41.44	-0.0555	-0.2526	-0.4537	
-0.143472	0.77775	0.544486	-8.47	40.25	-40.39	-0.0527	-0.2375	-0.4628	
-0.193248	0.782142	0.528138	-9.03	39.27	-37.87	-0.0452	-0.2498	-0.4691	
-0.204716	0.791048	0.545462	-7	34.86	-37.03	-0.041	-0.2468	-0.463	
-0.230214	0.796904	0.5429	-7.35	33.74	-35.84	-0.0323	-0.2424	-0.4676	
-0.24217	0.797636	0.54839	-7.56	31.22	-34.23	-0.0191	-0.2486	-0.4723	
-0.235338	0.793976	0.536312	-8.47	30.45	-32.2	-0.0192	-0.241	-0.4692	
-0.238388	0.791902	0.53436	-8.19	27.72	-31.22	0.0011	-0.2398	-0.4755	
-0.26962	0.782508	0.529236	-8.12	28.98	-29.96	-0.009099999	-0.2366	-0.4739	
-0.291092	0.77287	0.529236	-8.96	26.39	-28.77	0.0054	-0.2429	-0.4709	
-0.294874	0.766038	0.544364	-8.75	26.04	-27.02	0.0243	-0.2417	-0.4695	
-0.322934	0.781532	0.530578	-7.21	24.43	-26.39	0.0185	-0.2446	-0.4695	
-0.330254	0.774944	0.542168	-9.31	20.09	-23.66	0.0286	-0.2311	-0.4772	
-0.29829	0.746152	0.512034	-9.59	17.78	-23.31	0.0313	-0.222	-0.4741	
-0.297558	0.76128	0.559858	-6.86	20.72	-23.03	0.0314	-0.2327	-0.4696	
-0.390034	0.769332	0.521428	-8.12	22.26	-21.98	0.0445	-0.2298	-0.4804	
-0.387838	0.754204	0.533628	-6.93	16.1	-19.81	0.0445	-0.2268	-0.4742	
-0.323666	0.760792	0.527528	-5.46	12.11	-20.65	0.0459	-0.2208	-0.4895	
-0.318664	0.776652	0.530212	-4.62	12.32	-20.72	0.0459	-0.2223	-0.4788	
-0.36112	0.763476	0.545096	-6.93	16.45	-18.62	0.0591	-0.2346	-0.4805	
-0.411994	0.74786	0.540094	-7.7	19.53	-17.5	0.059	-0.2255	-0.4728	
-0.432734	0.758108	0.54046	-8.68	17.92	-17.29	0.0602	-0.2148	-0.4621	
-0.42822	0.763354	0.54046	-9.31	13.02	-16.94	0.0691	-0.2256	-0.4714	
-0.411506	0.752862	0.548878	-8.61	12.67	-17.43	0.0807	-0.2243	-0.473	
-0.446398	0.744566	0.544608	-10.43	11.48	-15.26	0.0647	-0.2165	-0.4789	
-0.483852	0.73505	0.54046	-9.94	11.34	-13.58	0.0631	-0.2164	-0.4652	
-0.466894	0.71492	0.545218	-10.43	6.58	-13.02	0.0763	-0.2212	-0.4745	
-0.46177	0.711382	0.55632	-10.5	5.88	-11.69	0.0805	-0.2106	-0.4683	
-0.487146	0.709674	0.553026	-9.52	3.36	-10.43	0.0848	-0.2016	-0.4806	
-0.495076	0.698816	0.55571	-10.43	1.68	-7.56	0.0747	-0.206	-0.4729	
-0.473116	0.675392	0.55754	-11.69	0.49	-3.71	0.0849	-0.2076	-0.4806	
-0.436638	0.657092	0.574498	-9.03	-0.28	-2.31	0.0863	-0.2076	-0.473	
-0.422486	0.664656	0.578036	-6.09	0.14	-1.82	0.08199999	-0.2031	-0.4836	
-0.404918	0.671488	0.595848	-2.03	1.82	-1.82	0.0818	-0.1924	-0.4836	
-0.400282	0.672342	0.588284	0.07	-1.19	-2.38	0.0819	-0.1955	-0.4882	
-0.436272	0.701256	0.581574	3.01	3.08	-2.17	0.0876	-0.1955	-0.4775	
-0.446032	0.702842	0.581696	3.22	3.08	-1.54	0.0876	-0.1925	-0.4852	
-0.440298	0.696376	0.571448	3.36	0.98	-1.26	0.079	-0.1969	-0.4836	
-0.474092	0.700524	0.555344	4.48	1.05	1.33	0.0834	-0.1985	-0.4851	
-0.467504	0.69723	0.56181	3.36	1.68	3.29	0.0891	-0.194	-0.4852	
-0.474092	0.702964	0.553148	4.41	0.56	3.64	0.0892	-0.2031	-0.4806	
-0.497394	0.72407	0.547658	5.18	-2.45	3.78	0.0819	-0.203	-0.4714	
-0.491782	0.728706	0.553514	4.41	-6.16	4.41	0.0747	-0.2029	-0.4836	
-0.478484	0.729926	0.55022	3.78	-7.7	5.32	0.0819	-0.1985	-0.4805	
-0.466162	0.729682	0.550464	3.71	-9.94	6.58	0.07759999	-0.2045	-0.479	
-0.454206	0.718946	0.551684	3.01	-10.92	7.77	0.08329999	-0.2	-0.4668	
-0.421388	0.713212	0.55937	4.62	-15.26	7.28	0.0762	-0.2075	-0.4775	
-0.410652	0.721386	0.555954	4.9	-13.93	8.33	0.0777	-0.2121	-0.4821	
-0.40504	0.709308	0.565714	5.18	-14.28	9.87	0.0762	-0.209	-0.479	
-0.41419	0.707234	0.562786	5.81	-13.3	11.13	0.0748	-0.209	-0.4836	
-0.411384	0.712114	0.57279	7.98	-14.07	12.25	0.0718	-0.209	-0.4744	
-0.401624	0.709796	0.563884	7.35	-14.14	13.51	0.0602	-0.2133	-0.4743	
-0.38003	0.715652	0.568764	9.59	-13.93	13.79	0.0546	-0.2209	-0.4835	
-0.383934	0.729194	0.55754	10.64	-13.72	14.77	0.056	-0.2209	-0.4682	
-0.376248	0.737368	0.565714	11.69	-15.33	15.4	0.056	-0.2163	-0.4835	
-0.364902	0.733952	0.558394	11.27	-15.54	16.52	0.0532	-0.2284	-0.4774	
-0.375272	0.751764	0.558882	11.62	-14.77	17.78	0.0472	-0.2192	-0.4681	
-0.381494	0.744932	0.549244	10.43	-13.93	20.3	0.0358	-0.2252	-0.4803	
-0.365024	0.73383	0.552172	10.22	-12.53	21.91	0.0357	-0.2236	-0.4757	
-0.362462	0.742492	0.55632	12.04	-16.31	22.05	0.0343	-0.2282	-0.4757	
-0.343552	0.749568	0.554856	13.51	-18.34	21.7	0.0285	-0.2266	-0.4787	
-0.328546	0.753838	0.55693	15.89	-17.29	22.82	0.0241	-0.2295	-0.4741	
-0.304756	0.752252	0.545706	16.73	-20.02	22.96	0.027	-0.228	-0.468	
-0.286334	0.777018	0.542168	18.97	-17.99	24.01	0.0126	-0.2354	-0.4694	
-0.290604	0.780068	0.53375	19.39	-17.92	25.13	0.0113	-0.2491	-0.4741	
-0.278892	0.782508	0.529358	19.6	-19.32	25.69	-0.003	-0.2549	-0.4679	
-0.260592	0.77775	0.515816	19.6	-19.53	26.32	0.0011	-0.2489	-0.4602	
-0.24522	0.794342	0.514718	21	-17.71	26.6	-0.0074	-0.2564	-0.4602	
-0.244854	0.822768	0.514718	23.66	-19.18	26.67	-0.0089	-0.2533	-0.4663	
-0.210694	0.826428	0.512644	22.12	-21.07	26.53	-0.0248	-0.2592	-0.4662	
-0.205814	0.818742	0.50386	19.6	-19.39	27.37	-0.0204	-0.2668	-0.454	
-0.199226	0.811422	0.50508	21.14	-19.88	26.95	-0.0277	-0.2606	-0.457	
-0.185562	0.812642	0.494344	22.68	-21.49	26.67	-0.0263	-0.2637	-0.4555	
-0.172996	0.839482	0.483852	23.52	-23.03	26.6	-0.0334	-0.2757	-0.4463	
-0.13542	0.839604	0.483852	23.87	-22.82	26.67	-0.0407	-0.2726	-0.4447	
-0.135176	0.85034	0.4697	23.1	-19.88	28.42	-0.0436	-0.277	-0.434	
-0.127734	0.8845	0.471042	25.76	-19.88	28.28	-0.0421	-0.2816	-0.4401	
-0.115656	0.891698	0.461038	22.75	-17.36	29.47	-0.0536	-0.2875	-0.4416	
-0.12322	0.88145	0.442128	21.14	-18.27	29.96	-0.0608	-0.2935	-0.44	
-0.080154	0.864126	0.435662	20.93	-24.78	29.54	-0.0607	-0.2951	-0.4507	
-0.068442	0.875228	0.432246	21.7	-21.91	30.94	-0.0681	-0.2934	-0.4384	
-0.05551	0.89548	0.430538	23.03	-22.19	32.76	-0.0696	-0.2918	-0.4338	
-0.042334	0.904752	0.419924	24.71	-24.92	33.32	-0.0827	-0.2901	-0.4352	
-0.005246	0.894016	0.402966	20.93	-25.48	34.3	-0.09429999	-0.299	-0.4214	
-0.002806	0.901946	0.395646	21.91	-24.22	34.3	-0.0969	-0.3142	-0.426	
0.010858	0.902068	0.391254	22.05	-24.64	34.3	-0.116	-0.3033	-0.4197	
0.008296	0.898652	0.375028	21.49	-21.07	36.61	-0.1102	-0.3109	-0.4122	
0.020496	0.910974	0.364536	22.26	-23.03	37.17	-0.1145	-0.3139	-0.4121	
0.048434	0.931958	0.371978	22.89	-24.01	36.75	-0.1232	-0.3123	-0.4197	
0.090646	0.911706	0.358436	19.81	-22.19	37.73	-0.1335	-0.306	-0.4104	
0.09638	0.8906	0.343552	18.55	-19.53	39.83	-0.1495	-0.3088	-0.3981	
0.110654	0.890844	0.339038	20.3	-20.79	39.97	-0.1524	-0.3073	-0.4042	
0.14579	0.895968	0.33123	20.93	-20.79	38.92	-0.1625	-0.3162	-0.398	
0.150792	0.905362	0.320738	19.6	-20.23	40.81	-0.1654	-0.3162	-0.3965	
0.157502	0.91012	0.313662	21.49	-19.74	41.72	-0.1612	-0.3071	-0.3888	
0.160796	0.91012	0.313662	21.77	-18.34	43.47	-0.1799	-0.322	-0.3872	
0.154574	0.921954	0.306464	23.17	-17.22	44.38	-0.1815	-0.3144	-0.378	
0.170678	0.936594	0.292678	23.17	-18.48	43.96	-0.1887	-0.3173	-0.3825	
0.196298	0.9272	0.2806	20.09	-19.67	45.85	-0.1918	-0.3051	-0.3779	
0.224724	0.947574	0.311954	25.34	-23.52	44.1	-0.2093	-0.3109	-0.3701	
0.239608	0.935496	0.284504	22.96	-26.32	44.45	-0.2107	-0.3154	-0.364	
0.264252	0.903166	0.268888	20.44	-24.64	44.66	-0.2237	-0.3198	-0.3639	
0.28548	0.893406	0.259738	20.79	-24.01	44.45	-0.2252	-0.3167	-0.3578	
0.274378	0.903776	0.255712	22.68	-22.61	44.31	-0.231	-0.3181	-0.3562	
0.288286	0.899872	0.241194	21.77	-27.44	43.82	-0.2354	-0.3196	-0.3547	
0.333914	0.895846	0.22997	22.47	-24.22	41.44	-0.2398	-0.3149	-0.35	
0.36112	0.89365	0.231434	20.44	-27.37	43.19	-0.2602	-0.3161	-0.3453	
0.378688	0.892796	0.22021	22.12	-26.67	41.37	-0.2574	-0.3116	-0.3376	
0.393938	0.884744	0.211426	21.98	-24.85	41.86	-0.2676	-0.3114	-0.3345	
0.398452	0.887428	0.188612	23.31	-24.36	41.72	-0.2823	-0.3051	-0.3252	
0.398696	0.892064	0.171898	22.96	-24.01	40.88	-0.2823	-0.3036	-0.3328	
0.41785	0.892552	0.175314	21.63	-23.87	40.6	-0.2924	-0.311	-0.316	
0.443226	0.890722	0.172752	21.7	-24.36	38.92	-0.2896	-0.3035	-0.3251	
0.440176	0.873398	0.153476	19.32	-24.85	38.64	-0.3028	-0.2972	-0.3158	
0.456524	0.8357	0.135786	20.3	-25.83	38.78	-0.3173	-0.303	-0.3066	
0.47397	0.84424	0.125294	21.91	-27.79	38.99	-0.3014	-0.3002	-0.3067	
0.504104	0.866932	0.122854	21.91	-27.23	38.43	-0.3144	-0.3031	-0.302	
0.511546	0.850706	0.110898	19.32	-26.88	39.2	-0.3378	-0.3027	-0.2881	
0.520208	0.82838	0.111996	19.25	-27.3	39.13	-0.3408	-0.2981	-0.2896	
0.510204	0.822402	0.076738	21.21	-28.07	39.13	-0.3452	-0.295	-0.288	
0.526064	0.823378	0.071736	21.56	-29.4	39.2	-0.3511	-0.2918	-0.2757	
0.569984	0.849486	0.057218	21.98	-30.03	38.57	-0.3613	-0.2932	-0.271	
0.580232	0.841312	0.043676	20.86	-29.82	39.97	-0.3627	-0.2901	-0.2771	
0.593408	0.817766	0.041114	17.57	-26.74	42.77	-0.3675	-0.2733	-0.2541	
0.598776	0.813008	0.029768	17.36	-23.45	44.66	-0.382	-0.2746	-0.2632	
0.59902	0.802882	0.02196	17.99	-21.63	45.22	-0.3776	-0.2762	-0.2556	
0.607804	0.802272	0.006466	16.24	-19.6	45.15	-0.3864	-0.2745	-0.2494	
0.629642	0.791536	0.00732	15.19	-20.3	44.31	-0.3882	-0.2577	-0.2401	
0.63806	0.774822	-0.007076	13.09	-21.35	44.24	-0.3881	-0.2638	-0.2402	
0.651846	0.760914	-0.017202	8.05	-23.1	45.71	-0.4055	-0.2636	-0.2416	
0.683444	0.750178	-0.019276	4.97	-21.28	46.55	-0.4013	-0.2545	-0.2385	
0.6771	0.72407	-0.045018	6.37	-19.25	47.74	-0.4044	-0.2468	-0.2323	
0.679784	0.710284	-0.039284	6.37	-19.46	48.3	-0.4293	-0.2358	-0.2229	
0.71309	0.725046	-0.04514	6.16	-18.2	47.18	-0.4265	-0.2282	-0.2245	
0.737978	0.728218	-0.065026	1.68	-19.74	47.81	-0.4249	-0.2374	-0.2245	
0.74908	0.733586	-0.061244	0.7	-19.32	49.07	-0.4339	-0.219	-0.2229	
0.696376	0.719434	-0.074664	-1.05	-16.66	50.54	-0.4412	-0.2158	-0.2136	
0.7076	0.706136	-0.06283	-3.01	-17.29	48.72	-0.4397	-0.2159	-0.2197	
0.784704	0.68747	-0.046238	-2.87	-16.31	45.36	-0.4429	-0.2021	-0.209	
0.801174	0.647454	-0.08686399	-0.28	-15.75	42.77	-0.4619	-0.1958	-0.2134	
0.828868	0.6222	-0.051484	0.14	-13.37	43.4	-0.4649	-0.1881	-0.2057	
0.828258	0.624274	-0.071614	1.82	-10.36	41.23	-0.4549	-0.1791	-0.2042	
0.80947	0.615124	-0.088328	5.25	-10.57	37.52	-0.4694	-0.1774	-0.2056	
0.805566	0.599142	-0.097356	4.9	-9.8	35.21	-0.4622	-0.176	-0.1996	
0.824598	0.593896	-0.090158	5.53	-9.59	34.51	-0.4741	-0.1606	-0.1994	
0.813008	0.582916	-0.099796	7.28	-12.11	31.5	-0.4739	-0.1697	-0.201	
0.83143	0.57462	-0.11285	7	-11.76	30.03	-0.4726	-0.1606	-0.1979	
0.840092	0.575596	-0.12322	5.04	-11.48	32.2	-0.467	-0.147	-0.201	
0.843386	0.579256	-0.117242	4.83	-10.92	29.75	-0.4831	-0.1437	-0.1871	
0.858026	0.569252	-0.1281	0.91	-9.87	29.68	-0.476	-0.1362	-0.1871	
0.877546	0.536556	-0.118828	-1.68	-9.52	29.05	-0.4759	-0.1378	-0.1978	
0.891332	0.525942	-0.105652	-0.63	-8.19	26.95	-0.4789	-0.1362	-0.181	
0.883524	0.517158	-0.120536	-0.7	-6.79	25.2	-0.4848	-0.133	-0.1825	
0.897554	0.502396	-0.122366	-1.68	-6.51	25.2	-0.4994	-0.1252	-0.1869	
0.904508	0.501786	-0.10797	-0.35	-6.3	24.22	-0.4862	-0.127	-0.1947	
0.901824	0.50203	-0.11224	-1.33	-4.62	23.1	-0.4836	-0.1118	-0.1839	
0.89304	0.479216	-0.12078	-1.4	-4.48	22.4	-0.4851	-0.1118	-0.1809	
0.881084	0.477386	-0.120292	-0.77	-4.13	21.28	-0.4922	-0.1238	-0.1778	
0.876204	0.478728	-0.126758	-0.63	-2.87	19.39	-0.4838	-0.0981	-0.1854	
0.920002	0.458598	-0.112728	-0.49	-7.42	16.94	-0.4954	-0.101	-0.1853	
0.909144	0.458232	-0.120536	-2.17	-3.5	14.35	-0.491	-0.1056	-0.1823	
0.905728	0.454328	-0.124074	-3.36	-2.03	14.07	-0.4926	-0.101	-0.1685	
0.91439	0.4514	-0.115534	-0.98	-2.8	10.36	-0.491	-0.101	-0.1793	
0.91256	0.449082	-0.12444	-3.57	-2.45	9.73	-0.494	-0.0964	-0.1838	
0.916708	0.443226	-0.12444	-3.85	-3.92	9.1	-0.4998	-0.1039	-0.1685	
0.91317	0.449448	-0.130052	-3.85	-4.2	7.84	-0.497	-0.0873	-0.1807	
0.91561	0.426146	-0.127734	-5.39	-3.78	5.67	-0.4925	-0.09649999	-0.1808	
0.922442	0.411628	-0.12566	-4.83	-3.36	4.2	-0.4941	-0.0919	-0.1807	
0.929884	0.419924	-0.126514	-3.71	-2.66	3.92	-0.494	-0.0919	-0.1853	
0.940742	0.432856	-0.122122	-3.71	-1.47	3.15	-0.4926	-0.0995	-0.1716	
0.940986	0.42517	-0.115656	-3.85	-0.7	1.4	-0.494	-0.09339999	-0.1838	
0.938912	0.419192	-0.117608	-4.2	0.56	0.49	-0.487	-0.0813	-0.17	
0.938302	0.4209	-0.12139	-1.82	1.19	-0.56	-0.4984	-0.0964	-0.1807	
0.942938	0.42639	-0.117608	-2.1	2.66	-1.26	-0.5073	-0.08859999	-0.1715	
0.944402	0.430538	-0.121634	-4.27	4.97	-1.61	-0.4926	-0.098	-0.1746	
0.936228	0.42273	-0.127978	-3.92	5.04	-3.15	-0.4985	-0.0933	-0.17	
0.920734	0.427244	-0.125172	-3.43	6.02	-3.64	-0.4911	-0.095	-0.1884	
0.915122	0.449204	-0.12871	-3.36	7.07	-4.48	-0.4939	-0.0995	-0.1899	
0.924882	0.457134	-0.12932	-4.41	6.93	-6.37	-0.497	-0.0888	-0.1884	
0.926224	0.44652	-0.123098	-5.25	6.86	-8.26	-0.4954	-0.0949	-0.1869	
0.920002	0.451888	-0.126026	-4.62	7.77	-9.8	-0.4926	-0.09339999	-0.1853	
0.916464	0.468846	-0.122488	-4.55	8.19	-10.99	-0.494	-0.0964	-0.1838	
0.91256	0.484462	-0.125904	-6.93	9.45	-12.25	-0.4866	-0.1026	-0.1885	
0.90585	0.476166	-0.112362	-8.54	9.66	-13.16	-0.4953	-0.0995	-0.2006	
0.936716	0.454084	-0.098332	-10.36	-0.84	-14.14	-0.4924	-0.1041	-0.1915	
0.901092	0.482022	-0.099064	-8.54	11.34	-16.8	-0.4939	-0.09649999	-0.1915	
0.910486	0.472384	-0.09942999	-11.69	12.39	-16.87	-0.4938	-0.0995	-0.1976	
0.898774	0.473848	-0.085888	-6.3	9.73	-21.98	-0.4837	-0.0982	-0.2023	
0.87108	0.484584	-0.0793	-9.24	10.99	-19.46	-0.4777	-0.1074	-0.2069	
0.881938	0.47336	-0.0793	-5.53	8.75	-24.29	-0.4748	-0.1089	-0.2039	
0.89182	0.49471	-0.068686	-9.24	10.92	-22.4	-0.4775	-0.1165	-0.2146	
0.868274	0.505446	-0.063318	-9.38	11.2	-23.94	-0.4863	-0.1194	-0.2038	
0.859978	0.511668	-0.055144	-9.1	10.85	-24.78	-0.476	-0.1257	-0.207	
0.862052	0.518988	-0.057828	-8.47	11.9	-25.97	-0.4818	-0.121	-0.2115	
0.865712	0.523868	-0.055022	-7.77	11.69	-27.65	-0.476	-0.1211	-0.21	
0.86498	0.546072	-0.049654	-8.19	12.39	-28	-0.4772	-0.1348	-0.2162	
0.852292	0.558272	-0.04697	-8.61	12.32	-28.21	-0.4714	-0.1364	-0.2147	
0.833138	0.562786	-0.039284	-9.1	13.02	-28.42	-0.4727	-0.1409	-0.2239	
0.824964	0.565714	-0.038918	-10.5	13.37	-28.77	-0.467	-0.135	-0.2239	
0.842044	0.564738	-0.023546	-11.34	8.68	-29.12	-0.461	-0.1502	-0.2255	
0.832284	0.588894	-0.010614	-8.4	12.88	-31.01	-0.4711	-0.1471	-0.2361	
0.809348	0.597434	-0.003172	-10.71	13.37	-30.24	-0.4653	-0.1562	-0.2179	
0.80886	0.604876	0.009393999	-8.96	12.53	-33.46	-0.455	-0.1594	-0.2225	
0.800198	0.619394	0.014884	-12.6	13.16	-33.11	-0.449	-0.1732	-0.2303	
0.801174	0.633912	0.034526	-16.17	12.81	-33.6	-0.4491	-0.1671	-0.2302	
0.793366	0.645136	0.037576	-18.83	11.9	-34.79	-0.446	-0.1718	-0.2395	
0.774944	0.645258	0.021106	-25.62	10.71	-33.67	-0.4489	-0.1748	-0.2394	
0.763232	0.64782	0.012444	-28.7	7.91	-32.06	-0.4386	-0.181	-0.2426	
0.74786	0.66185	0.017202	-25.76	7.7	-34.93	-0.4371	-0.181	-0.2457	
0.736636	0.70211	0.041114	-27.93	8.05	-34.37	-0.4357	-0.1811	-0.2487	
0.723704	0.722362	0.052094	-27.23	6.65	-37.17	-0.4371	-0.1795	-0.2487	
0.713822	0.706502	0.059658	-29.47	5.46	-36.96	-0.437	-0.1871	-0.2549	
0.71858	0.688324	0.062098	-27.72	6.65	-39.13	-0.4238	-0.1934	-0.255	
0.696742	0.6893	0.070394	-24.43	6.3	-40.39	-0.434	-0.1933	-0.2564	
0.700036	0.698572	0.080886	-22.54	5.6	-40.74	-0.4297	-0.1948	-0.2488	
0.701988	0.728096	0.099064	-21	8.47	-40.6	-0.4266	-0.198	-0.2703	
0.69479	0.744932	0.107848	-20.02	8.75	-41.02	-0.4266	-0.198	-0.2626	
0.670268	0.75396	0.11956	-23.24	13.23	-39.55	-0.4119	-0.2104	-0.2704	
0.67344	0.765184	0.188612	-21.42	10.5	-43.68	-0.4001	-0.2166	-0.2721	
0.685518	0.826794	0.235338	-21.91	3.22	-49.28	-0.4043	-0.2287	-0.2797	
0.659532	0.832772	0.15616	-22.61	7	-54.32	-0.4028	-0.2272	-0.2812	
0.59353	0.758108	0.140544	-26.18	7.63	-48.65	-0.3868	-0.2305	-0.2829	
0.540704	0.767136	0.146278	-24.57	8.33	-47.67	-0.3838	-0.2351	-0.2845	
0.553392	0.78934	0.158844	-17.43	5.67	-51.59	-0.378	-0.2337	-0.2876	
0.56059	0.788608	0.164212	-19.95	6.58	-48.79	-0.3809	-0.2367	-0.286	
0.54778	0.810324	0.157868	-19.74	5.04	-45.29	-0.3763	-0.2444	-0.2953	
0.530334	0.837042	0.181902	-18.41	7.63	-45.43	-0.3735	-0.2368	-0.2983	
0.514596	0.81496	0.190198	-22.19	10.71	-43.54	-0.3618	-0.2491	-0.2908	
0.51179	0.782752	0.196786	-24.01	14.77	-41.23	-0.3545	-0.2477	-0.2939	
0.504348	0.788364	0.205082	-21.42	16.66	-40.25	-0.3499	-0.26	-0.3016	
0.484096	0.827648	0.225212	-18.83	19.25	-40.32	-0.3527	-0.2615	-0.3154	
0.452254	0.811666	0.232288	-21.56	23.24	-38.71	-0.3454	-0.2616	-0.3154	
0.445422	0.801296	0.237534	-21.56	24.78	-38.22	-0.3395	-0.2663	-0.3201	
0.459208	0.82899	0.259372	-18.34	24.29	-38.71	-0.3337	-0.2649	-0.3278	
0.449936	0.831064	0.263642	-16.59	25.13	-38.99	-0.3293	-0.268	-0.3324	
0.43371	0.81252	0.273158	-18.55	27.44	-36.96	-0.3294	-0.2619	-0.3263	
0.43798	0.82716	0.285236	-15.89	27.93	-37.52	-0.3146	-0.2728	-0.3402	
0.422974	0.828868	0.28914	-15.75	28.91	-38.08	-0.3043	-0.2836	-0.3387	
0.383446	0.82899	0.292678	-14.77	30.73	-37.73	-0.3014	-0.2745	-0.354	
0.358192	0.839116	0.292556	-13.58	29.26	-37.94	-0.2912	-0.2777	-0.3465	
0.352946	0.854854	0.304268	-13.51	29.05	-38.99	-0.2971	-0.2761	-0.3495	
0.331474	0.865102	0.312808	-13.58	27.86	-39.13	-0.278	-0.287	-0.3573	
0.297192	0.884622	0.323544	-12.67	28.14	-39.2	-0.2794	-0.2885	-0.3573	
0.274622	0.91256	0.333304	-13.09	27.3	-40.6	-0.2707	-0.2856	-0.3574	
0.237046	0.915732	0.329034	-14.35	26.39	-40.6	-0.2692	-0.2781	-0.3757	
0.208376	0.926468	0.331962	-14.42	23.03	-41.02	-0.259	-0.2889	-0.3651	
0.20008	0.928664	0.34709	-15.75	20.23	-40.53	-0.2575	-0.2874	-0.3773	
0.213134	0.919636	0.348676	-16.8	19.39	-41.37	-0.2414	-0.2937	-0.3729	
0.213012	0.90341	0.361242	-18.27	20.09	-40.11	-0.2298	-0.2954	-0.3699	
0.212646	0.883158	0.376126	-22.19	23.87	-37.94	-0.224	-0.2879	-0.3822	
0.211182	0.879864	0.396988	-19.32	27.72	-38.15	-0.2224	-0.2955	-0.3868	
0.190076	0.897554	0.391498	-15.05	29.61	-39.97	-0.2153	-0.288	-0.3853	
0.152866	0.893894	0.402478	-16.17	34.51	-38.99	-0.2093	-0.2988	-0.393	
0.124074	0.88999	0.394914	-21.21	38.64	-38.57	-0.2035	-0.2943	-0.3915	
0.116388	0.888282	0.394426	-20.23	36.12	-39.62	-0.1964	-0.2868	-0.3931	
0.088328	0.884012	0.408456	-15.61	34.23	-40.18	-0.189	-0.287	-0.4008	
0.04636	0.890234	0.41053	-16.38	35.07	-38.22	-0.1787	-0.2963	-0.4101	
0.036844	0.901824	0.425048	-16.45	34.51	-37.8	-0.1671	-0.2843	-0.4193	
0.028182	0.899506	0.421998	-18.2	33.04	-37.1	-0.157	-0.289	-0.4133	
0.001098	0.887916	0.421998	-19.53	31.15	-35.77	-0.1512	-0.286	-0.4164	
-0.012566	0.88816	0.429806	-20.09	30.59	-32.97	-0.1525	-0.2876	-0.4271	
0.000732	0.87108	0.4514	-24.36	33.04	-29.54	-0.1411	-0.2801	-0.4134	
-0.00488	0.860832	0.463478	-24.85	36.89	-27.58	-0.1321	-0.2909	-0.4288	
-0.001342	0.854366	0.468602	-24.36	38.57	-28.07	-0.1219	-0.2911	-0.4319	
-0.014518	0.85583	0.456402	-24.85	40.67	-29.05	-0.1089	-0.2882	-0.435	
-0.051972	0.873398	0.474824	-24.01	39.27	-29.89	-0.1104	-0.2837	-0.4366	
-0.079422	0.867664	0.482144	-26.53	40.32	-29.33	-0.0973	-0.2793	-0.4473	
-0.10675	0.83814	0.488244	-28.28	42.84	-26.81	-0.0858	-0.2673	-0.4474	
-0.135176	0.813252	0.496052	-27.86	45.99	-25.27	-0.0755	-0.2721	-0.4536	
-0.1647	0.836066	0.513132	-25.2	42.07	-24.64	-0.0698	-0.2676	-0.4536	
-0.2013	0.848266	0.503494	-24.08	40.81	-24.78	-0.0654	-0.2646	-0.4598	
-0.227774	0.828868	0.503738	-28	38.43	-21.56	-0.0582	-0.2647	-0.4568	
-0.218746	0.809226	0.529114	-27.37	34.23	-20.65	-0.0451	-0.2649	-0.463	
-0.227286	0.793366	0.51606	-27.93	33.81	-19.6	-0.0292	-0.2591	-0.4646	
-0.232166	0.78446	0.54534	-27.51	32.06	-17.99	-0.0366	-0.2484	-0.4661	
-0.264862	0.781776	0.543144	-27.3	32.41	-16.94	-0.0221	-0.244	-0.4646	
-0.271572	0.782142	0.549	-26.39	29.96	-15.61	-0.0162	-0.2472	-0.4754	
-0.249124	0.775066	0.549244	-25.69	29.89	-13.72	-0.0163	-0.2396	-0.4784	
-0.223504	0.772626	0.578524	-24.15	27.44	-13.09	-0.012	-0.2366	-0.4723	
-0.261934	0.771162	0.583648	-25.97	29.33	-12.32	-0.0105	-0.2366	-0.4754	
-0.320738	0.75762	0.569862	-25.41	26.95	-11.41	0.0008	-0.2246	-0.4754	
-0.298778	0.74603	0.570472	-25.41	27.51	-10.22	0.0066	-0.2186	-0.477	
-0.263276	0.742858	0.569374	-23.8	26.11	-10.29	0.0123	-0.2127	-0.4816	
-0.266326	0.747006	0.583404	-23.03	25.69	-10.78	0.0108	-0.2081	-0.4846	
-0.311588	0.7381	0.598654	-22.89	30.38	-10.43	0.0182	-0.2158	-0.4863	
-0.373686	0.730902	0.5856	-22.26	28.84	-8.75	0.0209	-0.2052	-0.4786	
-0.360266	0.729194	0.5856	-19.11	22.47	-9.1	0.024	-0.2083	-0.4924	
-0.324764	0.736148	0.586088	-19.88	21.7	-8.47	0.0412	-0.2009	-0.4833	
-0.32757	0.727852	0.596092	-20.37	20.58	-7.63	0.047	-0.1934	-0.491	
-0.374662	0.710772	0.621102	-18.48	24.92	-6.93	0.0426	-0.1919	-0.4894	
-0.456402	0.715774	0.607194	-18.9	25.41	-6.02	0.0483	-0.1889	-0.4833	
-0.430904	0.704916	0.618662	-20.58	20.09	-3.99	0.0586	-0.1936	-0.4895	
-0.357216	0.69113	0.59292	-18.62	16.52	-4.97	0.0499	-0.195	-0.4925	
-0.334524	0.689666	0.601216	-17.01	14.56	-3.78	0.0642	-0.1785	-0.4895	
-0.379908	0.687226	0.614148	-16.31	14.56	-2.03	0.0555	-0.1769	-0.4971	
-0.402478	0.663436	0.610366	-17.29	13.16	-2.31	0.054	-0.1768	-0.491	
-0.385398	0.656726	0.635864	-15.61	8.26	-4.41	0.0628	-0.1785	-0.4956	
-0.389424	0.66002	0.63684	-13.79	7.63	-6.23	0.0584	-0.1739	-0.4925	
-0.387716	0.642818	0.6466	-12.88	5.25	-5.74	0.0642	-0.1739	-0.4941	
-0.38796	0.637328	0.653066	-11.55	4.76	-5.46	0.0714	-0.1695	-0.4911	
-0.406748	0.644892	0.650504	-9.8	3.78	-5.67	0.0568	-0.1632	-0.5001	
-0.402356	0.64233	0.658678	-8.47	2.24	-5.67	0.0699	-0.1664	-0.4941	
-0.384788	0.635498	0.650504	-7.84	2.24	-5.11	0.0624	-0.1572	-0.4833	
-0.40382	0.64416	0.650504	-6.3	1.61	-4.27	0.0713	-0.1589	-0.5033	
-0.401502	0.645258	0.651114	-5.04	2.17	-4.48	0.0655	-0.1633	-0.4987	
-0.40382	0.640012	0.662826	-4.27	2.17	-3.64	0.0671	-0.1695	-0.5033	
-0.417972	0.640988	0.659288	-3.29	1.47	-3.43	0.0729	-0.1665	-0.5018	
-0.427488	0.640378	0.65331	-2.66	0.91	-2.66	0.0698	-0.1619	-0.4926	
-0.416508	0.640622	0.65575	-0.91	-1.82	-2.38	0.0714	-0.171	-0.4957	
-0.436394	0.644892	0.649528	-1.05	-3.08	-0.98	0.0727	-0.1558	-0.4957	
-0.420168	0.640134	0.664168	0.35	-4.27	-0.84	0.0727	-0.1574	-0.5002	
-0.415898	0.633424	0.652334	-0.35	-4.69	0.28	0.0714	-0.1619	-0.5048	
-0.407114	0.63379	0.654774	2.17	-5.6	0.28	0.0669	-0.1634	-0.4941	
-0.413092	0.64111	0.657702	1.96	-5.6	1.61	0.0741	-0.1543	-0.4972	
-0.396012	0.633058	0.660996	3.57	-5.74	1.96	0.0685	-0.1634	-0.5048	
-0.395646	0.63013	0.652456	4.27	-5.6	2.52	0.0713	-0.1604	-0.4987	
-0.410652	0.642574	0.655262	4.97	-5.95	3.29	0.0656	-0.1664	-0.5002	
-0.40321	0.645624	0.654652	5.6	-6.72	4.48	0.064	-0.1557	-0.4971	
-0.381616	0.643794	0.651968	7.07	-6.86	4.9	0.0625	-0.1602	-0.4895	
-0.381494	0.648308	0.651358	7.84	-7.28	5.25	0.0714	-0.171	-0.4972	
-0.404064	0.65636	0.6466	7.98	-7.7	6.16	0.0611	-0.1648	-0.4925	
-0.38552	0.654286	0.64477	7.91	-7.98	6.93	0.0511	-0.1692	-0.5001	
-0.369172	0.650016	0.644404	8.54	-10.36	6.79	0.0569	-0.1708	-0.4986	
-0.378322	0.662582	0.640012	10.08	-11.13	6.93	0.0511	-0.1707	-0.4925	
-0.377956	0.668438	0.64782	10.64	-11.27	7.7	0.0511	-0.1722	-0.4925	
-0.367586	0.668804	0.638304	11.06	-11.06	8.96	0.0628	-0.177	-0.4972	
-0.352214	0.679662	0.647454	12.53	-11.76	9.38	0.0453	-0.1767	-0.4894	
-0.35258	0.686128	0.6405	12.67	-11.76	9.66	0.0555	-0.1753	-0.4895	
-0.34709	0.676368	0.633912	13.23	-11.13	10.64	0.041	-0.1736	-0.5001	
-0.340502	0.68747	0.632326	14.14	-10.78	11.48	0.0425	-0.1843	-0.4925	
-0.335988	0.69967	0.63013	15.61	-11.76	11.76	0.0424	-0.1721	-0.4939	
-0.323544	0.698084	0.622566	15.19	-11.06	12.53	0.0309	-0.1856	-0.4924	
-0.313174	0.702964	0.61793	15.4	-11.13	13.16	0.0369	-0.1963	-0.4909	
-0.315004	0.713944	0.61549	15.89	-11.55	13.79	0.0324	-0.1886	-0.4832	
-0.316956	0.721996	0.614026	16.24	-11.69	14.42	0.0368	-0.1872	-0.4955	
-0.309514	0.717848	0.607804	16.24	-10.85	15.61	0.0167	-0.2082	-0.4908	
-0.29158	0.716262	0.604754	17.36	-10.08	16.38	0.0195	-0.2006	-0.4847	
-0.274256	0.726632	0.600972	17.5	-8.82	16.94	0.0181	-0.2082	-0.4862	
-0.28426	0.740784	0.593164	18.13	-8.89	17.71	0.0283	-0.2083	-0.4863	
-0.290604	0.751154	0.58377	17.57	-10.64	18.76	0.0137	-0.2036	-0.4862	
-0.280966	0.765428	0.58743	16.87	-11.2	19.95	0.0109	-0.2157	-0.4831	
-0.259006	0.764452	0.586088	16.73	-10.43	20.23	0.0095	-0.2141	-0.4816	
-0.247904	0.761402	0.58743	16.45	-10.5	20.51	0.007999999	-0.2141	-0.4755	
-0.255712	0.764574	0.569984	16.94	-10.36	21.49	-0.0036	-0.2124	-0.48	
-0.243268	0.777506	0.575962	17.36	-11.06	21.7	-0.0033	-0.2261	-0.4831	
-0.22814	0.77592	0.574376	15.26	-10.71	22.33	-0.0048	-0.2291	-0.4739	
-0.230336	0.770796	0.555222	15.68	-11.34	23.38	-0.0004	-0.2292	-0.477	
-0.206912	0.775554	0.566568	17.08	-12.39	23.03	-0.0019	-0.2276	-0.4831	
-0.193492	0.786534	0.5612	16.66	-13.37	22.82	-0.015	-0.229	-0.4769	
-0.196542	0.797758	0.556564	19.25	-15.12	21.98	-0.0206	-0.2471	-0.4708	
-0.209718	0.816302	0.542534	19.11	-15.75	22.19	-0.0222	-0.2289	-0.4783	
-0.187636	0.82289	0.543388	17.71	-15.75	22.61	-0.0278	-0.247	-0.4753	
-0.152622	0.81252	0.54473	16.52	-14.77	23.38	-0.0411	-0.2361	-0.4675	
-0.14823	0.813862	0.532042	17.01	-15.54	23.59	-0.0308	-0.2439	-0.463	
-0.151768	0.821182	0.530578	18.2	-17.15	23.8	-0.0394	-0.2544	-0.4615	
-0.132126	0.824232	0.52765	17.78	-16.87	24.29	-0.0437	-0.2559	-0.466	
-0.115656	0.825208	0.52277	17.57	-15.89	24.64	-0.0465	-0.2604	-0.4706	
-0.103212	0.83204	0.513254	18.13	-15.12	24.64	-0.0451	-0.2619	-0.4691	
-0.093208	0.830698	0.50813	18.27	-13.37	25.62	-0.0526	-0.2542	-0.4507	
-0.09552599	0.842654	0.502274	19.95	-14.07	26.6	-0.0567	-0.2617	-0.4614	
-0.085766	0.856806	0.495564	20.3	-13.44	27.93	-0.0625	-0.2662	-0.4552	
-0.062708	0.857294	0.487146	19.04	-12.46	29.05	-0.067	-0.2646	-0.4506	
-0.044164	0.85644	0.482998	19.74	-14.07	28.14	-0.0697	-0.2782	-0.4521	
-0.036234	0.865346	0.47458	20.23	-13.93	27.37	-0.0785	-0.269	-0.4459	
-0.034038	0.874618	0.459818	20.02	-14.21	27.65	-0.0771	-0.269	-0.4505	
-0.000244	0.872178	0.464942	19.18	-14.49	28.35	-0.0843	-0.275	-0.449	
-0.000976	0.884866	0.44957	19.88	-14.91	28	-0.0915	-0.2779	-0.4397	
-0.012322	0.892674	0.445666	18.97	-15.19	28.28	-0.0958	-0.2839	-0.4382	
0.002684	0.879498	0.427244	17.92	-15.19	28.7	-0.096	-0.2778	-0.429	
0.020618	0.883524	0.425658	18.06	-16.73	27.72	-0.1001	-0.2899	-0.4443	
0.02501	0.895846	0.406382	19.32	-19.88	24.85	-0.1235	-0.2834	-0.4303	
0.054656	0.918294	0.405406	18.06	-21.77	25.34	-0.1134	-0.279	-0.4258	
0.087352	0.922198	0.407236	17.36	-21.91	27.37	-0.1249	-0.2895	-0.4227	
0.10919	0.907924	0.396012	17.5	-25.06	27.37	-0.1365	-0.2939	-0.4196	
0.132736	0.910364	0.398696	16.73	-24.57	27.02	-0.1365	-0.2954	-0.4211	
0.137372	0.907558	0.385886	16.38	-24.43	26.32	-0.1379	-0.2999	-0.4119	
0.132614	0.898286	0.371734	17.36	-24.5	25.27	-0.1482	-0.2937	-0.4149	
0.141154	0.90951	0.365634	17.29	-24.85	24.57	-0.1641	-0.2965	-0.4148	
0.1586	0.918904	0.364536	17.15	-26.67	22.89	-0.1626	-0.2965	-0.4163	
0.185928	0.91134	0.371002	17.43	-30.1	21.77	-0.167	-0.301	-0.4025	
0.204106	0.912926	0.377468	19.18	-28.98	20.79	-0.1714	-0.2964	-0.4071	
0.211426	0.920368	0.357948	18.83	-28.35	19.39	-0.1743	-0.3024	-0.404	
0.21594	0.928298	0.3477	18.34	-26.25	17.29	-0.1859	-0.3037	-0.3947	
0.209352	0.928298	0.33367	16.31	-22.89	16.94	-0.1831	-0.3007	-0.3886	
0.212036	0.925858	0.320738	15.68	-24.92	16.38	-0.189	-0.2945	-0.3947	
0.213866	0.93391	0.325496	14.84	-26.74	15.89	-0.1933	-0.3005	-0.3916	
0.236192	0.916464	0.322568	12.6	-24.08	15.4	-0.2092	-0.3049	-0.3885	
0.26474	0.909754	0.328424	11.48	-21.07	15.61	-0.2034	-0.3095	-0.3824	
0.284748	0.908046	0.328668	12.32	-19.53	13.93	-0.2164	-0.3123	-0.3793	
0.296948	0.91073	0.32513	13.44	-17.29	12.11	-0.2077	-0.3124	-0.3763	
0.290482	0.915	0.30134	12.46	-14.63	12.88	-0.2151	-0.3062	-0.3701	
0.30439	0.919758	0.311832	13.3	-9.38	12.88	-0.2136	-0.3154	-0.3686	
0.325374	0.90768	0.311222	10.71	-9.31	14.49	-0.2209	-0.3062	-0.37	
0.343186	0.901458	0.2989	13.3	-5.04	12.18	-0.2239	-0.3061	-0.3685	
0.3294	0.915366	0.29463	13.23	-1.82	12.74	-0.2224	-0.3046	-0.3669	
0.331108	0.921222	0.294264	14.28	2.52	12.53	-0.2268	-0.3091	-0.3623	
0.353678	0.923662	0.285846	13.23	8.75	12.25	-0.2181	-0.3016	-0.367	
0.352824	0.923784	0.277916	13.09	12.74	11.9	-0.2295	-0.3152	-0.3746	
0.351726	0.916098	0.275598	13.16	17.64	11.9	-0.2151	-0.3153	-0.3579	
0.359168	0.918904	0.268278	12.6	22.26	12.25	-0.2354	-0.315	-0.3592	
0.374296	0.914756	0.284748	14.63	28.14	12.25	-0.2223	-0.3183	-0.3655	
0.39589	0.888526	0.274988	18.06	33.18	10.92	-0.2194	-0.3107	-0.367	
0.389546	0.89731	0.25376	20.58	37.24	10.92	-0.2165	-0.3153	-0.3655	
0.389058	0.903288	0.266692	24.85	46.13	10.29	-0.2092	-0.3154	-0.3686	
0.381738	0.925004	0.287188	27.51	52.85	10.36	-0.2163	-0.326	-0.3671	
0.359168	0.949404	0.264008	26.95	56.98	8.75	-0.2179	-0.3214	-0.3609	
0.355264	0.950014	0.236192	24.5	61.74	9.87	-0.199	-0.3247	-0.3611	
0.338794	0.909998	0.219356	21.07	69.79	14.7	-0.1945	-0.3217	-0.3733	
0.345626	0.88938	0.236192	26.81	77.49	15.12	-0.1887	-0.3279	-0.3703	
0.331718	0.91256	0.222772	26.67	75.74	14.91	-0.1756	-0.3281	-0.3689	
0.290482	0.961604	0.207034	27.23	75.18	13.86	-0.1683	-0.3297	-0.3766	
0.252662	0.972462	0.203862	21.56	77	14.77	-0.1712	-0.3266	-0.372	
0.231312	0.954772	0.216306	17.92	78.96	17.43	-0.1696	-0.3358	-0.3751	
0.222772	0.939644	0.219478	18.2	80.36	18.83	-0.1639	-0.3343	-0.3675	
0.220088	0.930128	0.221674	21.42	78.89	16.94	-0.1465	-0.33	-0.3645	
0.20801	0.94489	0.212768	18.62	74.06	15.89	-0.1404	-0.3438	-0.3814	
0.197274	0.944646	0.224724	21.91	71.54	13.93	-0.1348	-0.3318	-0.3768	
0.169092	0.951356	0.223748	17.85	66.57	14.14	-0.123	-0.3441	-0.3785	
0.180682	0.944768	0.232532	19.53	63.77	13.79	-0.1275	-0.3379	-0.3754	
0.207644	0.952576	0.251442	23.38	66.5	13.44	-0.1171	-0.3518	-0.3816	
0.222284	0.945622	0.217404	17.71	62.37	14.35	-0.1098	-0.3534	-0.3725	
0.196054	0.96807	0.225334	16.1	56.28	11.9	-0.1085	-0.3473	-0.3756	
0.173484	0.94123	0.248514	19.95	55.86	9.94	-0.0911	-0.3491	-0.3635	
0.203496	0.925004	0.261446	23.03	61.88	11.13	-0.0851	-0.3568	-0.3727	
0.216916	0.935374	0.233386	23.31	59.85	10.5	-0.0879	-0.3613	-0.3727	
0.211304	0.950502	0.218014	18.48	53.55	10.85	-0.0763	-0.3569	-0.3758	
0.181902	0.96014	0.236436	19.53	51.45	10.5	-0.0677	-0.357	-0.3698	
0.179462	0.958066	0.228628	19.95	49.63	10.57	-0.0647	-0.3616	-0.3637	
0.19825	0.956236	0.228018	21.56	53.48	10.71	-0.0576	-0.3541	-0.3576	
0.23424	0.960018	0.223382	24.22	52.92	10.64	-0.056	-0.3632	-0.3592	
0.247904	0.960018	0.212768	25.83	52.01	9.52	-0.0516	-0.3679	-0.3607	
0.210206	0.963922	0.200934	21.28	50.68	8.68	-0.0501	-0.3724	-0.3562	
0.188856	0.979904	0.210206	22.26	47.46	6.65	-0.0533	-0.3617	-0.3423	
0.188978	0.969534	0.194468	19.67	51.59	6.44	-0.0442	-0.3786	-0.3532	
0.19703	0.964776	0.19825	19.04	52.71	7.56	-0.0443	-0.3786	-0.3471	
0.190808	0.967338	0.193004	16.8	51.17	7.98	-0.0298	-0.3773	-0.3441	
0.165432	0.966362	0.192882	17.36	48.37	6.37	-0.0328	-0.3711	-0.3379	
0.153476	0.970388	0.181414	19.11	46.13	5.6	-0.0253	-0.3849	-0.3411	
0.171044	0.980148	0.178852	19.95	45.43	6.16	-0.0298	-0.3818	-0.3319	
0.171532	0.970144	0.177266	17.15	44.59	6.65	-0.0183	-0.3744	-0.3381	
0.161528	0.978806	0.18056	17.29	39.48	4.62	-0.0165	-0.3957	-0.3335	
0.149084	0.985638	0.165554	15.75	36.12	3.99	-0.0051	-0.3867	-0.329	
0.136152	0.988688	0.16653	12.11	33.46	3.71	-0.0035	-0.3958	-0.3275	
0.132614	0.97722	0.169702	13.09	32.62	4.55	-0.0079	-0.3958	-0.3275	
0.154452	0.974048	0.179096	15.05	33.32	6.72	-0.0021	-0.3913	-0.3229	
0.16531	0.975878	0.175558	15.54	35.7	6.65	0.0021	-0.3868	-0.326	
0.162748	0.98515	0.16775	13.86	33.81	6.72	0.0066	-0.4005	-0.3245	
0.146034	0.986248	0.167506	12.46	31.08	7.84	0.0051	-0.399	-0.3154	
0.146522	0.978562	0.158234	10.5	31.29	9.31	0.0122	-0.3884	-0.3138	
0.125538	0.983686	0.164334	8.19	26.18	9.17	0.0065	-0.3959	-0.3123	
0.134078	0.99918	0.162748	9.24	22.26	9.38	0.0124	-0.4021	-0.3169	
0.157624	0.994178	0.160186	8.89	20.51	10.36	0.0064	-0.3899	-0.3107	
0.157502	0.975634	0.154208	4.83	19.95	9.52	0.0049	-0.3929	-0.3031	
0.14945	0.998326	0.166042	5.39	16.17	8.68	0.0049	-0.3929	-0.3031	
0.172508	0.982832	0.169214	5.81	15.54	9.8	0.0153	-0.4067	-0.3047	
0.170556	0.96929	0.158722	3.64	16.38	9.31	0.0008	-0.405	-0.3077	
0.180072	0.981612	0.158356	3.92	15.4	9.94	0.0051	-0.4035	-0.3031	
0.17263	0.981734	0.156526	3.92	11.76	9.1	0.0094	-0.3975	-0.3093	
0.164822	0.972584	0.156038	3.64	8.75	7.42	0.0123	-0.4021	-0.3047	
0.176534	0.9821	0.15311	3.71	7	7.07	0.0106	-0.3869	-0.3031	
0.155428	0.982466	0.137494	-1.61	1.19	6.72	0.0109	-0.4081	-0.3017	
0.142374	0.973804	0.154696	-1.82	-3.29	6.16	0.0078	-0.3974	-0.2955	
0.150426	0.98271	0.152012	-2.66	-5.74	5.32	0.0167	-0.4037	-0.2986	
0.189588	0.989664	0.166286	-0.84	-6.72	5.88	0.0108	-0.4005	-0.297	
0.212036	0.981734	0.16165	-3.78	-10.08	4.48	-0.0007	-0.3973	-0.3031	
0.196908	0.972706	0.15311	-4.83	-12.81	2.59	0.0006	-0.3974	-0.3031	
0.216916	0.978562	0.156648	-1.26	-12.32	2.24	0.0007	-0.4019	-0.3046	
0.209718	0.978074	0.144814	-7.98	-16.59	2.1	-0.0035	-0.4049	-0.3077	
0.186294	0.97234	0.154086	-8.19	-20.09	0.42	0.0022	-0.402	-0.3107	
0.186782	0.9821	0.151036	-8.54	-23.52	0.07	-0.0021	-0.4019	-0.3122	
0.213134	0.980636	0.147132	-9.45	-24.64	1.05	-0.0094	-0.3942	-0.3122	
0.214354	0.97417	0.164334	-9.8	-26.18	0.7	-0.0137	-0.4047	-0.3045	
0.191052	0.9699	0.15433	-12.18	-29.54	-1.4	-0.0035	-0.3989	-0.3183	
0.184464	0.97905	0.151524	-13.44	-36.12	-1.4	-0.0154	-0.388	-0.309	
