Sensor string: A
Serial number: 1970-01-0000
Firmware version: 2.015
Hardware version: 2.2
Calibration quality: 5
ax	ay	az	gx	gy	gz	mx	my	mz

-0.034648	0.848144	0.529236	-0.42	-0.28	-0.28	-0.057	-0.251	-0.4445	Reference
-0.038918	0.852658	0.525698	-0.14	0	-0.07	-0.0673	-0.2478	-0.4383	
-0.037088	0.850096	0.528504	0.28	-0.14	-0.28	-0.0614	-0.2525	-0.4429	
-0.035258	0.845216	0.528748	-0.07	0.07	-0.35	-0.06	-0.2495	-0.4429	
-0.033672	0.844728	0.52948	0.14	0.07	-0.21	-0.0658	-0.2524	-0.4383	
-0.033916	0.843752	0.52887	0.28	0	-0.14	-0.0542	-0.2465	-0.4399	
-0.033794	0.846436	0.528504	0.21	0.07	-0.07	-0.0468	-0.2467	-0.4553	
-0.033794	0.845948	0.528382	0.14	0.21	-0.14	-0.06439999	-0.2433	-0.4459	
-0.035868	0.845948	0.526918	0.14	0.14	-0.14	-0.0614	-0.2464	-0.4552	
-0.036112	0.845582	0.527162	0.21	0	-0.14	-0.0571	-0.2465	-0.4399	
-0.03782	0.84912	0.52826	0.35	0	-0.28	-0.0627	-0.2586	-0.4491	
-0.037942	0.850584	0.52765	0.56	0	-0.35	-0.0686	-0.2524	-0.4521	
-0.03721	0.850218	0.52826	0.77	0	-0.42	-0.0614	-0.2479	-0.449	
-0.036844	0.8479	0.526064	0.63	0.21	-0.35	-0.0628	-0.2494	-0.446	
-0.036234	0.84668	0.526552	0.35	0.28	-0.35	-0.0614	-0.2449	-0.4536	
-0.036722	0.847778	0.526186	0.49	0.28	-0.28	-0.0615	-0.2418	-0.4429	
-0.035746	0.844484	0.525698	0.42	0.21	-0.28	-0.0671	-0.2539	-0.446	
-0.035258	0.845094	0.525942	0.42	0.07	-0.07	-0.0527	-0.2526	-0.4369	
-0.036722	0.847046	0.525088	0.7	0.07	0	-0.0541	-0.2511	-0.4491	
-0.036966	0.8479	0.526674	0.49	0.07	0	-0.0631	-0.2403	-0.4322	
-0.036356	0.847534	0.52704	0.35	0.07	-0.07	-0.06	-0.2449	-0.4475	
-0.036112	0.85156	0.526552	0.77	0.14	-0.07	-0.06	-0.2434	-0.4475	
-0.03782	0.850462	0.526186	0.98	0.28	0	-0.0629	-0.2449	-0.4429	
-0.037332	0.850706	0.522404	1.19	0.42	-0.07	-0.06	-0.2464	-0.4414	
-0.03843	0.851072	0.522526	0.42	0.42	-0.21	-0.0659	-0.2433	-0.4368	
-0.041114	0.851804	0.522282	0.77	0.49	-0.21	-0.0643	-0.2494	-0.4429	
-0.04087	0.853268	0.5246	1.54	0.56	-0.28	-0.0585	-0.2465	-0.4429	
-0.033062	0.849242	0.523014	2.45	0.56	-0.49	-0.057	-0.2541	-0.4476	
-0.027938	0.841312	0.518744	-0.49	0.56	-0.77	-0.0585	-0.2495	-0.4399	
-0.047824	0.858514	0.519964	1.4	0.7	-0.28	-0.0612	-0.2601	-0.4476	
-0.046726	0.855464	0.525576	2.87	0.35	-0.28	-0.0628	-0.254	-0.4429	
-0.036844	0.849242	0.523014	2.1	0.42	-0.84	-0.0614	-0.2464	-0.446	
-0.03355	0.845216	0.52155	1.47	0.7	-0.63	-0.0614	-0.2479	-0.4445	
-0.033794	0.843874	0.52338	1.89	0.7	-0.28	-0.076	-0.2447	-0.4459	
-0.03599	0.849486	0.523258	1.89	0.63	-0.49	-0.067	-0.2615	-0.4521	
-0.040382	0.849486	0.52094	1.26	0.63	-0.77	-0.0542	-0.248	-0.4445	
-0.037454	0.848266	0.522282	0.91	0.42	-1.05	-0.0686	-0.2554	-0.4475	
-0.038552	0.847656	0.522282	0.7	0.56	-1.19	-0.0557	-0.2404	-0.4414	
-0.041602	0.84851	0.519842	0.98	0.49	-1.19	-0.0571	-0.2495	-0.4353	
-0.038796	0.846192	0.520086	0.07	0.28	-1.4	-0.0585	-0.248	-0.4445	
-0.044164	0.852292	0.520696	1.61	0.49	-1.4	-0.07009999	-0.2509	-0.4505	
-0.049288	0.854732	0.520696	2.17	0.56	-1.26	-0.0627	-0.2586	-0.4491	
-0.04392	0.849974	0.519842	2.1	0.35	-1.4	-0.0543	-0.245	-0.4338	
-0.041236	0.85034	0.519232	1.75	0.35	-1.33	-0.06	-0.2495	-0.4383	
-0.041724	0.848876	0.51545	1.4	0.7	-1.05	-0.0642	-0.2585	-0.4399	
-0.0427	0.845216	0.51728	1.75	0.42	-0.84	-0.07009999	-0.2493	-0.4459	
-0.042212	0.84668	0.519232	2.03	0.14	-0.77	-0.0541	-0.2526	-0.4476	
-0.041114	0.84668	0.519842	2.38	0.07	-0.7	-0.0585	-0.254	-0.4368	
-0.04148	0.851194	0.517524	2.8	0	-0.7	-0.0541	-0.2556	-0.4354	
-0.045262	0.856806	0.514352	2.8	-0.14	-0.56	-0.057	-0.251	-0.4445	
-0.04636	0.858514	0.511302	2.59	-0.07	-0.49	-0.0584	-0.2601	-0.4338	
-0.046604	0.86315	0.508496	3.08	-0.14	-0.49	-0.06	-0.2525	-0.4368	
-0.045506	0.863638	0.511058	3.92	0	-0.21	-0.0569	-0.2617	-0.4384	
-0.043676	0.861686	0.504226	4.13	0.28	0	-0.0526	-0.2602	-0.4338	
-0.044286	0.864614	0.500444	3.64	0.42	0.14	-0.0527	-0.2526	-0.4338	
-0.047092	0.871934	0.498614	3.64	0.07	0.35	-0.0483	-0.2542	-0.4339	
-0.050264	0.872788	0.497028	3.5	-0.07	0.56	-0.0598	-0.2601	-0.443	
-0.054656	0.878522	0.490196	2.03	0	0.42	-0.0498	-0.2557	-0.4354	
-0.054412	0.876326	0.488854	1.05	-0.07	0.56	-0.0555	-0.2571	-0.4384	
-0.05246	0.874984	0.487878	0.84	-0.28	0.77	-0.0627	-0.2661	-0.4338	
-0.050752	0.87352	0.489464	0.98	-0.28	1.05	-0.0554	-0.2647	-0.4369	
-0.047336	0.874618	0.492636	1.19	-0.35	1.4	-0.0541	-0.2587	-0.4369	
-0.044408	0.873154	0.497394	0	-0.21	1.54	-0.0672	-0.2509	-0.4444	
-0.046482	0.87291	0.496052	-1.33	-0.07	1.61	-0.0584	-0.2586	-0.4384	
-0.051362	0.870226	0.496906	-2.31	-0.28	1.4	-0.07	-0.2615	-0.4414	
-0.05185	0.863638	0.496906	-1.89	-0.07	1.19	-0.0569	-0.2601	-0.4399	
-0.048434	0.85827	0.490318	-3.22	-0.7	0.49	-0.0598	-0.2662	-0.4384	
-0.061	0.874008	0.49044	-2.45	-2.38	0.21	-0.0699	-0.2691	-0.4337	
-0.075884	0.888648	0.496418	-1.33	-4.69	-0.21	-0.0554	-0.2617	-0.443	
-0.072712	0.880474	0.495442	-2.03	-4.97	-1.12	-0.0598	-0.2646	-0.4369	
-0.055632	0.862418	0.497516	-3.01	-4.62	-2.1	-0.0554	-0.2662	-0.4354	
-0.042334	0.857416	0.500688	-1.61	-4.41	-2.24	-0.0583	-0.2662	-0.4399	
-0.036112	0.85766	0.505446	-0.7	-4.55	-1.68	-0.0571	-0.2495	-0.4368	
-0.031476	0.85766	0.510326	-0.98	-4.76	-1.26	-0.0612	-0.2631	-0.4414	
-0.029158	0.85766	0.51301	-1.96	-4.13	-0.91	-0.0585	-0.2601	-0.4292	
-0.026596	0.859124	0.515206	-1.96	-3.57	-0.42	-0.0542	-0.2526	-0.4308	
-0.02562	0.859124	0.514352	-2.17	-2.87	0.14	-0.0613	-0.257	-0.4384	
-0.018788	0.860588	0.507764	-2.94	-1.75	0.7	-0.0584	-0.2586	-0.4414	
-0.01891	0.862784	0.505446	-3.43	-0.84	1.19	-0.0585	-0.2525	-0.4368	
-0.025254	0.88084	0.501054	-2.59	-0.14	2.03	-0.0628	-0.2585	-0.4338	
-0.030622	0.893894	0.493368	-2.66	0.21	2.52	-0.0673	-0.2463	-0.4352	
-0.03233	0.90646	0.477264	-5.6	0.63	2.66	-0.0686	-0.2584	-0.4337	
-0.04514	0.92293	0.458842	-11.69	0.42	3.01	-0.0657	-0.257	-0.4399	
-0.056852	0.940864	0.451766	-14.56	0.14	3.64	-0.0657	-0.2555	-0.446	
-0.065636	0.9455	0.447862	-16.8	-0.21	4.41	-0.0557	-0.2435	-0.4475	
-0.068564	0.948062	0.443104	-19.39	-0.14	5.32	-0.0687	-0.2554	-0.4307	
-0.072224	0.951722	0.442128	-21.21	0	6.23	-0.0702	-0.2432	-0.4444	
-0.076128	0.954162	0.437858	-23.66	-0.14	6.79	-0.06	-0.2419	-0.449	
-0.077592	0.945744	0.435174	-26.88	-0.21	7.07	-0.0645	-0.2312	-0.4505	
-0.076128	0.946476	0.436882	-29.19	-0.49	7.7	-0.0646	-0.2327	-0.4429	
-0.072956	0.939278	0.442006	-32.06	-0.56	8.54	-0.0704	-0.225	-0.4489	
-0.074176	0.931714	0.45018	-34.09	-1.12	9.31	-0.0702	-0.2357	-0.4627	
-0.074542	0.918416	0.4575	-37.1	-1.54	9.8	-0.0633	-0.2115	-0.4566	
-0.075396	0.90524	0.46177	-39.48	-2.66	10.36	-0.0733	-0.2189	-0.4596	
-0.06466	0.887062	0.487756	-41.37	-3.08	10.99	-0.0676	-0.213	-0.4673	
-0.051728	0.852048	0.51118	-45.85	-2.03	11.48	-0.075	-0.1977	-0.4717	
-0.027572	0.820328	0.528748	-50.96	-1.82	11.41	-0.081	-0.1869	-0.4701	
-0.05917	0.805688	0.559736	-53.06	-2.38	11.34	-0.078	-0.1915	-0.4702	
0.034404	0.76128	0.553392	-57.33	-20.44	0.49	-0.0766	-0.1825	-0.4824	
0.000488	0.747982	0.57096	-61.6	-10.57	6.65	-0.0753	-0.1734	-0.4732	
-0.015128	0.729438	0.594628	-63.56	-0.21	11.69	-0.0871	-0.1565	-0.4822	
-0.003904	0.701622	0.601582	-59.15	-7.07	6.58	-0.0871	-0.1565	-0.4868	
0.029402	0.672464	0.610122	-49.56	-6.44	3.92	-0.0872	-0.1489	-0.4914	
0.022448	0.661606	0.622688	-39.48	2.87	4.55	-0.0901	-0.1413	-0.5051	
0.027328	0.720898	0.72895	-61.39	-20.37	11.76	-0.09339999	-0.1245	-0.4867	
0.069174	0.594506	0.615978	-70.63	-5.39	9.94	-0.09339999	-0.1184	-0.4943	
0.003172	0.598898	0.689788	-63.98	-1.05	11.97	-0.0966	-0.0986	-0.4958	
0.083204	0.512278	0.644282	-121.38	-44.38	9.24	-0.1025	-0.0894	-0.4926	
0.039772	0.494588	0.73749	-85.96	-5.46	16.94	-0.1084	-0.08329999	-0.4987	
0.068442	0.47031	0.76616	-84.84	-21.84	12.46	-0.1028	-0.0621	-0.5048	
0.069784	0.441396	0.794586	-85.54	-12.81	14.35	-0.1088	-0.0529	-0.4971	
0.058804	0.404796	0.841434	-81.41	-12.6	14.35	-0.1075	-0.0393	-0.5062	
0.078446	0.351482	0.839726	-85.54	-15.19	14.14	-0.1093	-0.0134	-0.5061	
0.104066	0.300486	0.852414	-83.44	-19.6	14.84	-0.1198	0.0064	-0.5045	
0.14091	0.29402	0.864004	-78.4	-19.95	15.75	-0.127	0.002	-0.506	
0.13847	0.266448	0.877912	-82.04	-19.6	13.93	-0.1198	0.0094	-0.509	
0.137128	0.25376	0.920734	-77.91	-17.92	14.49	-0.123	0.0293	-0.5028	
0.14701	0.228018	0.916586	-77	-13.37	13.16	-0.1304	0.04	-0.5104	
0.154208	0.18178	0.938912	-74.13	-15.19	12.74	-0.1292	0.0537	-0.5073	
0.16714	0.14396	0.948306	-68.11	-12.95	12.74	-0.1424	0.0645	-0.4995	
0.189954	0.1342	0.990518	-61.81	-13.58	13.16	-0.1397	0.0721	-0.4919	
0.195444	0.121878	0.985028	-63.28	-11.55	13.58	-0.1356	0.0903	-0.4903	
0.196908	0.082716	0.983808	-62.3	-10.08	12.6	-0.1357	0.1009	-0.4949	
0.206058	0.045872	0.989298	-56.35	-8.05	11.83	-0.1358	0.1024	-0.4903	
0.213988	0.041724	0.998326	-52.43	-9.03	11.48	-0.1359	0.1085	-0.4888	
0.20801	0.033672	0.99308	-52.5	-7.91	10.71	-0.142	0.1284	-0.481	
0.212036	0.0183	1.001986	-50.12	-7.56	10.08	-0.1408	0.1436	-0.481	
0.208132	0.011468	0.999424	-48.79	-8.12	9.66	-0.1421	0.136	-0.4871	
0.21289	-0.00305	1.004182	-44.31	-6.72	9.38	-0.1453	0.1482	-0.4702	
0.221674	-0.005978	1.007476	-41.16	-6.72	8.33	-0.1438	0.1527	-0.484	
0.221796	-0.012932	1.02297	-36.33	-5.6	7.21	-0.1512	0.1605	-0.4732	
0.219966	-0.023424	1.03273	-33.88	-3.78	6.3	-0.1469	0.1619	-0.4747	
0.231678	-0.050264	1.034804	-28.14	-2.45	6.02	-0.1383	0.1724	-0.4824	
0.235582	-0.071492	1.04981	-23.94	-3.01	5.11	-0.1487	0.1817	-0.467	
0.241438	-0.086254	1.061644	-19.11	-3.15	4.41	-0.1387	0.1937	-0.4625	
0.243634	-0.0976	1.060668	-13.51	-1.47	3.78	-0.1428	0.1816	-0.4732	
0.246928	-0.11651	1.062376	-7.84	-1.4	2.59	-0.143	0.1862	-0.4609	
0.254004	-0.128344	1.057008	-3.57	-0.84	1.68	-0.1444	0.1847	-0.4625	
0.258152	-0.138836	1.050054	-0.28	-0.98	0.91	-0.1473	0.1908	-0.4716	
0.26413	-0.151768	1.051518	3.57	-0.84	0.56	-0.1427	0.1755	-0.4717	
0.264862	-0.146156	1.034682	6.16	0.21	0.98	-0.1531	0.1909	-0.4685	
0.262788	-0.145424	1.041392	10.85	0.56	0.49	-0.1443	0.1817	-0.464	
0.260714	-0.145058	1.042612	14.35	1.33	-0.07	-0.1472	0.1786	-0.4686	
0.26352	-0.13664	1.048102	17.64	1.54	-0.77	-0.1443	0.1847	-0.4716	
0.260836	-0.13176	1.046028	20.58	2.87	-1.12	-0.1485	0.1726	-0.4732	
0.254858	-0.117364	1.046394	26.74	3.92	-1.68	-0.1457	0.1756	-0.464	
0.253516	-0.10065	1.052006	31.71	4.2	-2.8	-0.1485	0.1725	-0.4793	
0.245586	-0.084058	1.040172	35.07	5.18	-3.57	-0.1455	0.1619	-0.4686	
0.237046	-0.07076	1.037488	39.62	5.6	-4.41	-0.1409	0.1527	-0.4763	
0.228262	-0.048068	1.03456	44.73	5.88	-5.25	-0.1423	0.1497	-0.4794	
0.22143	-0.02867	1.019554	48.37	5.39	-6.72	-0.1336	0.151	-0.4825	
0.215086	-0.011224	1.007842	53.06	5.11	-8.4	-0.1335	0.1419	-0.4856	



0.19398	0.088938	0.962336	66.99	4.27	-13.09	-0.1445	0.101	-0.4887	

0.183976	0.152378	0.932934	72.03	3.5	-15.05	-0.1383	0.0797	-0.498	
0.176168	0.18544	0.91683	74.41	4.06	-15.75	-0.1409	0.0584	-0.495	
0.172264	0.223504	0.904264	78.54	4.27	-16.87	-0.1234	0.0536	-0.5012	
0.170312	0.253272	0.880352	77.35	5.18	-17.5	-0.1305	0.0415	-0.5043	
0.158234	0.288652	0.857416	77.56	5.11	-17.71	-0.1331	0.0249	-0.5043	
0.143228	0.323422	0.832528	78.26	5.53	-17.36	-0.1373	0.009699999	-0.4936	
0.136762	0.360144	0.823622	80.36	5.04	-17.64	-0.1329	0.0081	-0.5074	
0.131638	0.398452	0.81008	82.25	5.74	-18.06	-0.137	-0.0054	-0.5059	
0.119682	0.431392	0.792878	83.16	5.25	-18.27	-0.1325	-0.0191	-0.5029	
0.110776	0.462624	0.759938	81.48	6.65	-19.18	-0.1265	-0.0314	-0.503	
0.104798	0.488122	0.738344	81.34	5.95	-19.74	-0.132	-0.0571	-0.4954	
0.08845	0.524478	0.718824	82.11	5.18	-20.02	-0.1275	-0.0633	-0.5031	
0.071858	0.557052	0.690154	81.9	3.57	-20.65	-0.126	-0.0694	-0.5016	
0.06161	0.585966	0.674538	83.16	3.29	-21.63	-0.1301	-0.0906	-0.494	
0.06039	0.610244	0.658556	83.3	3.71	-22.89	-0.1256	-0.1028	-0.4956	
0.052094	0.626714	0.641476	83.86	3.22	-23.94	-0.1268	-0.1225	-0.491	
0.052094	0.64843	0.639768	86.87	1.89	-24.78	-0.1295	-0.1316	-0.4941	
0.04392	0.66795	0.614148	85.4	3.08	-25.48	-0.112	-0.144	-0.4866	
0.04087	0.703452	0.61183	88.69	1.82	-26.81	-0.1164	-0.15	-0.4728	
0.035258	0.754204	0.607438	88.9	0.63	-27.23	-0.1146	-0.1697	-0.4698	
0.014274	0.785436	0.592798	91.14	0.49	-27.09	-0.0998	-0.1927	-0.4715	
0.01525	0.807152	0.57096	83.37	7.56	-27.51	-0.107	-0.1972	-0.47	
0.001952	0.838628	0.51789	83.09	2.87	-28.84	-0.1056	-0.1987	-0.4547	
0.005856	0.826306	0.479582	76.86	5.32	-28.91	-0.1023	-0.2246	-0.4594	
-0.006222	0.855342	0.455182	73.29	30.8	-23.24	-0.0979	-0.2368	-0.4457	
-0.03355	0.84302	0.42761	57.89	37.87	-14.28	-0.0905	-0.2475	-0.4473	
-0.030134	0.858636	0.39406	73.43	10.08	-25.76	-0.0831	-0.2552	-0.4443	
-0.035014	0.876448	0.343186	61.25	15.96	-21.84	-0.0816	-0.2734	-0.423	
-0.044896	0.888038	0.326838	52.5	18.62	-19.18	-0.0699	-0.2736	-0.42	
-0.056608	0.91378	0.306464	45.71	14.84	-20.09	-0.08	-0.284	-0.4138	
-0.073078	0.947696	0.302926	40.95	14.56	-18.97	-0.0698	-0.2902	-0.4032	
-0.07869	0.958066	0.329156	43.33	14.35	-19.11	-0.0682	-0.3024	-0.4048	
-0.107238	0.961116	0.31049	39.2	17.64	-17.43	-0.0609	-0.3025	-0.4064	
-0.102968	0.971486	0.305	41.16	13.79	-17.57	-0.0566	-0.3041	-0.4003	
-0.100284	0.964776	0.27755	34.3	11.69	-17.85	-0.0493	-0.3087	-0.3927	
-0.122244	0.982222	0.283772	31.99	8.4	-16.45	-0.0464	-0.3088	-0.3897	
-0.11041	0.967216	0.2867	22.61	8.05	-12.11	-0.0463	-0.3149	-0.3897	
-0.107848	0.9638	0.30927	22.4	9.31	-7.7	-0.0376	-0.318	-0.3836	
-0.109678	0.966728	0.293898	18.27	8.54	-6.44	-0.0419	-0.318	-0.3882	
-0.112972	0.974292	0.307074	23.38	5.39	-7.77	-0.0303	-0.3211	-0.3822	
-0.119072	0.982344	0.312686	25.69	4.62	-6.3	-0.0287	-0.3378	-0.3685	
-0.117486	0.992592	0.31354	27.09	3.92	-5.88	-0.0404	-0.3316	-0.3775	
-0.118218	1.000034	0.307074	22.54	2.59	-6.51	-0.0316	-0.3363	-0.3807	
-0.124684	0.999302	0.302682	17.85	7	-4.69	-0.0316	-0.3318	-0.3791	
-0.130174	0.995764	0.29402	17.92	10.08	-2.8	-0.0431	-0.3483	-0.3745	
-0.134444	0.98942	0.274744	14.35	10.99	-2.17	-0.0446	-0.3422	-0.3775	
-0.134322	0.98759	0.266814	18.55	6.86	-4.48	-0.0345	-0.3423	-0.3669	
-0.140788	1.003572	0.259372	22.47	2.8	-6.16	-0.0229	-0.341	-0.3685	
-0.145912	0.989542	0.262056	18.76	4.41	-5.32	-0.0285	-0.353	-0.3639	
-0.147132	0.992348	0.252906	22.05	3.01	-6.09	-0.0286	-0.3454	-0.3639	
-0.151646	1.005036	0.24217	22.75	2.31	-7.14	-0.0213	-0.3516	-0.367	
-0.152134	1.00162	0.224846	19.11	2.17	-7.98	-0.0185	-0.3501	-0.3502	
-0.1586	1.009184	0.214598	19.53	2.03	-8.47	-0.0185	-0.3562	-0.3441	
-0.16714	1.014918	0.206424	14.7	0.21	-8.89	-0.0213	-0.3592	-0.3518	
-0.172752	1.028704	0.191296	17.29	-1.47	-9.1	-0.0243	-0.353	-0.3471	
-0.179462	1.028338	0.192394	18.69	-0.28	-8.4	-0.0258	-0.3545	-0.341	
-0.17202	1.029558	0.18178	18.9	-0.14	-8.26	-0.0125	-0.3669	-0.3411	
-0.16836	1.016748	0.180804	16.1	-0.42	-8.05	-0.0125	-0.3623	-0.3472	
-0.176656	1.014796	0.169092	13.72	1.47	-6.72	-0.0169	-0.3683	-0.3396	
-0.18178	1.00101	0.155062	11.13	1.75	-7.28	-0.0126	-0.3608	-0.3457	
-0.177754	0.987712	0.153842	8.4	0.07	-9.1	-0.0228	-0.3606	-0.341	
-0.181048	0.984174	0.15067	5.81	0.7	-8.05	-0.0039	-0.364	-0.3381	
-0.18483	0.979904	0.156892	9.87	0.14	-7.42	-0.0124	-0.3775	-0.3442	
-0.183244	0.965142	0.155672	10.43	0.28	-6.44	-0.011	-0.373	-0.3335	
-0.184952	0.975024	0.142374	7.91	1.19	-6.16	-0.0096	-0.37	-0.3427	
-0.18788	0.984662	0.151158	9.66	0	-6.44	-0.0052	-0.3746	-0.3397	
-0.183244	0.995032	0.151524	7	-0.91	-5.95	-0.0082	-0.3715	-0.3289	
-0.19581	1.010892	0.157746	4.48	0.56	-4.41	0.0005	-0.3746	-0.3321	
-0.201178	1.01931	0.167506	1.05	1.26	-2.66	-0.014	-0.3668	-0.3335	
-0.197884	1.025044	0.162992	-1.96	0.7	-1.68	-0.0036	-0.3776	-0.3428	
-0.20313	1.034438	0.160308	-5.6	1.12	-0.84	-0.0024	-0.37	-0.3336	
-0.203618	1.042124	0.165798	-8.19	1.82	0.07	0.0078	-0.3778	-0.3352	
-0.21228	1.043222	0.16226	-11.62	2.94	1.68	-0.0081	-0.373	-0.332	
-0.214354	1.02846	0.165676	-11.97	3.57	3.29	-0.0023	-0.367	-0.3443	
-0.213378	1.011624	0.16653	-13.44	3.01	3.85	-0.0067	-0.3685	-0.3397	
-0.217038	1.006988	0.167262	-13.23	1.75	4.13	-0.0052	-0.373	-0.3366	
-0.201788	0.992592	0.173362	-8.96	-2.24	3.29	-0.0025	-0.3549	-0.3458	
-0.196908	0.988688	0.170312	-11.34	-0.28	4.9	-0.0009999999	-0.361	-0.3427	
-0.206424	1.007964	0.16958	-11.48	0.21	7.07	-0.0053	-0.364	-0.3458	
-0.19764	1.01931	0.16897	-11.97	-2.31	6.93	-0.0053	-0.3594	-0.3458	
-0.201178	1.02114	0.171654	-15.96	-1.05	8.26	-0.017	-0.3577	-0.3411	
-0.208864	1.0309	0.175558	-19.11	-1.26	8.68	-0.0068	-0.3564	-0.3549	
-0.202642	1.022726	0.184586	-19.81	-3.92	8.33	-0.0112	-0.3502	-0.3595	
-0.200446	1.026508	0.183	-23.94	-5.04	8.82	-0.0141	-0.3547	-0.3549	
-0.193004	1.021506	0.188368	-27.23	-4.69	10.15	-0.0155	-0.3547	-0.3564	
-0.195444	1.031998	0.19703	-30.1	-5.11	11.48	-0.0184	-0.3501	-0.3655	
-0.188978	1.01992	0.20679	-32.34	-6.65	12.11	-0.0214	-0.3486	-0.3578	
-0.184586	1.009184	0.213744	-35.07	-6.37	13.16	-0.0345	-0.3408	-0.3684	
-0.179828	1.010404	0.222528	-37.38	-6.58	14.77	-0.0229	-0.3394	-0.367	
-0.17812	1.008818	0.231922	-39.97	-8.82	15.05	-0.0243	-0.3395	-0.3807	
-0.1708	1.005402	0.238998	-42.7	-8.82	15.54	-0.0316	-0.3318	-0.3807	
-0.167018	1.006622	0.244488	-45.29	-8.61	16.52	-0.0345	-0.3317	-0.3852	
-0.162382	1.004914	0.260592	-48.58	-12.11	16.66	-0.0331	-0.3242	-0.3913	
-0.154208	0.998448	0.27328	-51.73	-14.7	18.76	-0.042	-0.3073	-0.3973	
-0.145912	0.994788	0.28304	-55.65	-6.16	22.19	-0.0433	-0.3089	-0.4157	
-0.153354	0.998814	0.306586	-55.72	-11.83	20.44	-0.0478	-0.3058	-0.4049	
-0.143838	0.991128	0.315492	-57.75	-17.92	18.69	-0.0478	-0.2997	-0.411	
-0.129442	0.975634	0.33306	-60.83	-15.47	21.49	-0.0567	-0.2859	-0.4201	
-0.116754	0.946476	0.35563	-62.51	-11.83	24.15	-0.0654	-0.2858	-0.4292	
-0.100284	0.91744	0.372832	-61.81	-15.47	21.98	-0.0612	-0.2722	-0.4262	
-0.085522	0.909266	0.39467	-61.04	-18.34	21.21	-0.0685	-0.266	-0.4353	
-0.076372	0.886208	0.416752	-65.24	-15.05	23.45	-0.0803	-0.2507	-0.4443	
-0.06734399	0.862418	0.447984	-66.08	-14.07	24.71	-0.0775	-0.2431	-0.4443	
-0.06039	0.842044	0.461404	-66.01	-15.12	24.01	-0.0819	-0.2385	-0.4412	
-0.025498	0.797148	0.478118	-69.58	-15.89	23.38	-0.0819	-0.2279	-0.458	
-0.023912	0.76738	0.500932	-73.5	-14.14	24.78	-0.0923	-0.2186	-0.4548	
-0.0244	0.749568	0.517158	-71.26	-17.99	23.31	-0.0968	-0.2049	-0.4609	
0.00976	0.726876	0.534482	-72.17	-19.11	22.33	-0.1013	-0.1897	-0.4639	
0.033794	0.689544	0.572058	-76.86	-17.22	22.75	-0.1101	-0.1835	-0.4669	
0.049532	0.662826	0.587552	-78.68	-18.06	22.47	-0.1117	-0.1728	-0.4714	
0.058072	0.649284	0.613172	-80.36	-18.69	24.36	-0.1177	-0.1606	-0.4713	
0.075518	0.64111	0.64111	-84.21	-19.74	25.27	-0.1178	-0.1469	-0.4805	
0.083814	0.602314	0.662704	-87.85	-17.71	25.76	-0.1224	-0.1316	-0.4773	
0.088572	0.568154	0.67588	-89.95	-17.29	25.76	-0.1342	-0.1148	-0.4864	
0.098698	0.538264	0.695766	-91.56	-15.75	26.46	-0.1284	-0.1118	-0.4895	
0.110166	0.495442	0.72041	-90.79	-16.03	25.97	-0.1314	-0.0997	-0.4986	
0.12993	0.43981	0.746518	-88.69	-15.33	25.06	-0.1347	-0.0738	-0.4924	
0.166164	0.387472	0.767624	-85.68	-15.61	23.8	-0.1407	-0.0615	-0.4938	
0.163846	0.352336	0.803736	-81.34	-16.03	23.24	-0.1411	-0.0342	-0.4983	
0.201178	0.316102	0.816912	-76.37	-19.67	20.44	-0.1512	-0.0355	-0.4982	
0.203008	0.300486	0.853756	-76.72	-13.37	25.9	-0.1514	-0.0203	-0.4967	
0.217648	0.282186	0.877424	-72.8	-19.95	20.44	-0.1444	-0.0037	-0.4982	
0.238998	0.268034	0.895114	-73.01	-17.92	20.09	-0.1547	0.0054	-0.4966	
0.239486	0.243268	0.909754	-71.61	-16.52	18.97	-0.1564	0.0207	-0.4904	
0.260348	0.222406	0.920734	-67.9	-16.52	16.45	-0.1668	0.033	-0.4887	
0.262544	0.205936	0.928664	-65.73	-15.05	15.12	-0.1713	0.0498	-0.4948	
0.270108	0.184708	0.931104	-61.32	-13.51	13.16	-0.1627	0.0527	-0.4918	
0.28182	0.152622	0.933788	-58.1	-12.6	11.55	-0.1671	0.0588	-0.4933	
0.287676	0.134566	0.93818	-56.14	-11.34	10.64	-0.1673	0.0695	-0.4902	
0.284504	0.120292	0.943426	-50.33	-9.38	9.87	-0.1691	0.09079999	-0.4733	
0.288408	0.123586	0.960018	-46.83	-10.78	9.24	-0.1777	0.0894	-0.49	
0.279258	0.122122	0.962092	-44.66	-6.16	8.54	-0.172	0.0923	-0.4839	
0.277672	0.119194	0.96197	-41.72	-4.34	7.35	-0.1781	0.1092	-0.4823	
0.279014	0.110654	0.968314	-37.73	-3.36	6.02	-0.1766	0.1076	-0.4823	
0.284992	0.097844	0.970388	-33.11	-1.75	5.32	-0.1709	0.1182	-0.4778	
0.290238	0.08686399	0.969046	-32.27	-1.61	4.69	-0.1797	0.1168	-0.4762	
0.28792	0.088328	0.967826	-32.48	-2.17	5.53	-0.1639	0.1287	-0.4732	
0.279136	0.08357	0.970388	-32.9	-2.24	6.51	-0.1783	0.1213	-0.4746	
0.27145	0.07515199	0.985394	-36.89	-7.7	7.56	-0.1742	0.1365	-0.4654	
0.28548	0.05673	0.973316	-32.34	-2.17	6.79	-0.1743	0.1456	-0.4715	
0.286944	0.036112	0.989176	-29.33	-1.61	6.3	-0.1772	0.1456	-0.4715	
0.287676	0.034404	1.004914	-26.46	-2.17	5.81	-0.1831	0.1533	-0.4714	
0.29219	0.013542	1.02236	-24.78	-0.91	5.74	-0.173	0.1532	-0.4577	
0.300974	-0.013298	1.011258	-20.02	0.77	4.69	-0.1774	0.1518	-0.4593	
0.306952	-0.029524	1.000278	-17.71	1.82	4.41	-0.1833	0.1625	-0.4607	
0.300364	-0.028548	1.005158	-15.54	0.77	4.06	-0.1703	0.1699	-0.4623	
0.288164	-0.034648	1.003084	-12.74	2.31	3.64	-0.1674	0.1653	-0.4608	
0.293776	-0.057218	1.012112	-8.26	2.52	2.52	-0.1805	0.167	-0.4561	
0.303414	-0.074908	1.017968	-4.48	2.59	1.61	-0.1659	0.1652	-0.4654	
0.299388	-0.077592	1.011014	-2.1	2.38	0.91	-0.1761	0.1715	-0.4653	
0.294996	-0.08357	1.01443	1.47	2.59	0.07	-0.1675	0.1699	-0.4577	
0.292922	-0.09552599	1.011136	5.11	3.71	-1.12	-0.1776	0.1654	-0.4577	
0.294752	-0.103334	1.013088	9.8	3.64	-2.03	-0.1761	0.17	-0.4623	
0.301462	-0.10309	1.017602	14.7	3.22	-2.52	-0.1716	0.1593	-0.4608	
0.304512	-0.078812	1.024312	20.02	3.64	-3.15	-0.1774	0.1563	-0.4638	
0.304512	-0.074908	1.029314	23.66	4.69	-3.99	-0.1731	0.1578	-0.4623	
0.307684	-0.07515199	1.031632	27.58	5.04	-5.18	-0.1658	0.1561	-0.4624	
0.306586	-0.059414	1.026508	32.06	5.46	-6.3	-0.1743	0.1456	-0.4685	
0.304634	-0.040382	1.0248	35.14	6.16	-7.42	-0.1743	0.1502	-0.473	
0.2928	-0.02745	1.017358	39.9	7.35	-8.19	-0.1713	0.1395	-0.4685	
0.29219	-0.019032	1.0126	45.08	8.75	-9.1	-0.1655	0.1394	-0.4731	
0.291214	-0.009638	1.008574	49.84	8.89	-10.71	-0.1624	0.1317	-0.4824	
0.285846	0.015494	0.991494	53.9	8.96	-12.46	-0.155	0.1255	-0.4809	
0.279258	0.040626	0.98027	59.15	8.33	-14.35	-0.1723	0.1061	-0.4686	
0.272426	0.058438	0.969778	62.93	8.82	-15.82	-0.1605	0.1043	-0.4825	
0.26779	0.08357	0.95831	66.99	8.89	-17.5	-0.169	0.08769999	-0.4932	
0.25742	0.112728	0.934642	69.37	9.94	-18.97	-0.1573	0.0891	-0.4948	
0.241804	0.145668	0.920856	73.22	9.94	-19.95	-0.1601	0.0755	-0.4841	
0.226432	0.182268	0.903776	76.16	10.78	-20.93	-0.1598	0.0542	-0.4918	
0.222162	0.211792	0.894748	80.29	11.69	-22.05	-0.1581	0.0389	-0.4903	
0.210206	0.249002	0.866322	81.13	12.39	-22.82	-0.1521	0.0252	-0.4935	
0.188124	0.295362	0.841556	82.11	11.55	-23.45	-0.1504	0.0099	-0.4951	
0.167018	0.33672	0.831552	84.42	11.55	-23.38	-0.1431	0.0113	-0.4997	
0.149572	0.37698	0.808738	86.38	11.83	-24.08	-0.1501	-0.009699999	-0.5043	
0.142008	0.404064	0.79666	88.97	11.83	-24.64	-0.1456	-0.0189	-0.4982	
0.136152	0.430904	0.77409	90.3	12.39	-25.41	-0.1483	-0.0356	-0.5029	
0.122976	0.462258	0.742858	90.44	11.62	-25.9	-0.1394	-0.0464	-0.503	
0.104188	0.499956	0.702842	91.28	11.27	-26.04	-0.1423	-0.0554	-0.4922	
0.091866	0.530212	0.703086	95.27	10.64	-26.6	-0.1507	-0.0781	-0.4923	
0.081374	0.569862	0.68137	96.32	11.55	-27.3	-0.1315	-0.0951	-0.4924	
0.058804	0.610732	0.64172	96.11	12.32	-29.19	-0.1296	-0.13	-0.4849	
0.058072	0.638792	0.628788	96.95	12.32	-30.66	-0.1265	-0.1468	-0.4819	
0.04453	0.676734	0.595604	94.64	11.55	-31.85	-0.1163	-0.1591	-0.4683	
0.01647	0.700036	0.557662	90.09	12.39	-32.9	-0.1261	-0.1772	-0.4728	
-0.003294	0.74115	0.547902	92.26	11.48	-34.02	-0.1233	-0.1772	-0.4652	
-0.025864	0.767868	0.502884	87.29	13.79	-35.21	-0.1012	-0.1973	-0.47	
-0.037698	0.794464	0.469944	84.14	14.21	-35.91	-0.1082	-0.2169	-0.4593	
-0.060268	0.823622	0.454938	82.46	12.39	-36.33	-0.0951	-0.2277	-0.4487	
-0.080398	0.846802	0.424804	79.45	13.79	-34.93	-0.1009	-0.2322	-0.4456	
-0.003172	0.862296	0.389668	78.12	21.49	-35.84	-0.0804	-0.2446	-0.4412	
-0.081862	0.842654	0.403698	47.46	39.97	-17.29	-0.0816	-0.2628	-0.4398	
-0.081862	0.887916	0.385276	74.62	4.83	-31.15	-0.0786	-0.2704	-0.4306	
-0.091744	0.891698	0.386496	60.27	4.13	-29.19	-0.067	-0.2706	-0.4292	
-0.09333	0.900726	0.36173	54.11	10.36	-25.62	-0.0786	-0.281	-0.4077	
-0.102846	0.922564	0.348798	54.32	10.36	-23.31	-0.0639	-0.2888	-0.417	
-0.101992	0.942206	0.337818	53.06	6.51	-23.38	-0.0625	-0.2949	-0.3987	
-0.092842	0.931714	0.32269	44.45	7.63	-21.07	-0.0565	-0.3057	-0.411	
-0.093818	0.938546	0.32879	43.75	9.94	-18.13	-0.0551	-0.3072	-0.4003	
-0.10126	0.957456	0.296826	47.39	11.48	-15.96	-0.0593	-0.3147	-0.4018	
-0.13481	0.971242	0.292678	43.19	17.36	-11.2	-0.0491	-0.3209	-0.3912	
-0.150914	0.99613	0.276452	46.55	15.4	-12.81	-0.0505	-0.3269	-0.3882	
-0.162504	1.018944	0.256322	45.08	13.09	-14.28	-0.0433	-0.3285	-0.379	
-0.173118	1.028582	0.242048	39.13	13.09	-13.86	-0.0346	-0.3332	-0.3699	
-0.172142	1.025532	0.22692	35.63	9.24	-14.91	-0.0274	-0.3288	-0.37	
-0.180438	1.022238	0.20496	33.18	11.76	-12.46	-0.0346	-0.3362	-0.3684	
-0.17141	1.009794	0.214232	30.1	11.69	-10.71	-0.0301	-0.3454	-0.3654	
-0.175192	1.01077	0.200568	28.28	7.84	-10.92	-0.0389	-0.3498	-0.3501	
-0.174216	1.01809	0.206302	30.38	7.35	-10.29	-0.0302	-0.3439	-0.3593	
-0.18178	1.015284	0.202154	28.91	7.63	-9.1	-0.0256	-0.3576	-0.3609	
-0.190442	1.000888	0.192028	24.15	9.45	-8.19	-0.0169	-0.3623	-0.3533	
-0.19215	0.990762	0.188002	23.31	10.92	-7.21	-0.0213	-0.3607	-0.3456	
-0.18788	0.993202	0.170312	22.89	13.86	-5.39	-0.0141	-0.3562	-0.3396	
-0.19154	0.984418	0.160918	18.97	12.6	-5.25	-0.0082	-0.37	-0.3366	
-0.19398	0.996984	0.162504	19.88	6.79	-8.75	-0.0067	-0.3624	-0.3458	
-0.197152	0.99796	0.161162	17.92	5.32	-8.26	-0.0155	-0.3668	-0.3273	
-0.203862	0.99186	0.152622	17.22	3.99	-8.33	-0.0082	-0.373	-0.3305	
-0.212524	1.004304	0.150304	16.38	3.29	-8.4	-0.0082	-0.3699	-0.3259	
-0.211914	1.020652	0.157746	17.92	2.45	-8.33	-0.0096	-0.3745	-0.3243	
-0.213744	1.028216	0.152988	16.38	1.89	-8.19	0.0005	-0.3716	-0.3321	
-0.220454	1.039806	0.148352	15.68	2.73	-7.42	0.0019	-0.3761	-0.3183	
-0.227774	1.039196	0.145668	14.91	4.13	-6.44	0.0061	-0.3686	-0.3168	
-0.225822	1.027606	0.142252	13.16	4.41	-5.88	-0.0096	-0.3775	-0.3213	
-0.224114	1.00955	0.136274	11.48	3.99	-5.88	0.0005	-0.3822	-0.3214	
-0.225212	1.009794	0.127856	9.45	3.22	-6.09	0.0106	-0.3717	-0.323	
-0.228262	1.007476	0.12139	9.1	3.5	-5.53	0.0019	-0.3792	-0.3183	
-0.231068	1.000644	0.125538	10.64	3.08	-5.11	0.002	-0.3868	-0.3138	
-0.227408	1.002474	0.118218	10.71	2.66	-5.25	0.0021	-0.3929	-0.323	
-0.220942	0.988932	0.112606	7.56	2.87	-6.02	0.0063	-0.3823	-0.3107	
-0.230214	1.002596	0.103822	5.11	3.57	-5.46	0.0121	-0.3884	-0.3031	
-0.242048	0.985028	0.118584	3.71	3.01	-4.76	0.0077	-0.3808	-0.3123	
-0.241438	0.995398	0.106628	4.62	3.5	-3.92	0.0004	-0.3852	-0.3015	
-0.235338	0.985882	0.097844	4.13	2.31	-3.92	0.0106	-0.3838	-0.3046	
-0.238144	0.993568	0.101382	0.42	2.8	-2.1	0.0078	-0.3899	-0.3077	
-0.240706	0.998082	0.107726	-1.26	2.59	-0.77	0.0209	-0.3855	-0.317	
-0.250832	0.999912	0.106628	-2.45	3.57	1.05	0.0107	-0.3914	-0.3031	
-0.25193	1.00955	0.105896	-3.57	3.22	1.68	0.0135	-0.3793	-0.3108	
-0.256932	1.014064	0.107848	-3.08	2.17	1.82	0.0122	-0.3869	-0.3184	
-0.261934	1.010526	0.106506	-1.96	1.68	2.59	0.007999999	-0.399	-0.32	
-0.260592	1.014308	0.099674	-1.82	0.42	2.73	0.0121	-0.3824	-0.3138	
-0.25559	1.017114	0.107482	-0.84	-2.1	2.24	0.0106	-0.3808	-0.3046	
-0.247538	1.012966	0.106506	-4.34	-2.73	2.31	0.0077	-0.3777	-0.3122	
-0.247782	1.01199	0.100772	-6.09	-2.8	3.08	0.0135	-0.3809	-0.3123	
-0.241072	1.015284	0.10309	-6.58	-3.29	3.22	0.0063	-0.3823	-0.3107	
-0.239486	1.011136	0.108458	-8.19	-2.59	4.9	0.0093	-0.3899	-0.3138	
-0.242048	1.018944	0.11834	-8.05	-2.8	5.39	0.0047	-0.3746	-0.3122	
-0.236436	1.012722	0.120414	-7.35	-2.94	6.3	0.0077	-0.3747	-0.3184	
-0.229604	1.001376	0.124318	-11.62	-2.94	6.93	0.0033	-0.3762	-0.3199	
-0.2196	0.995886	0.121146	-14	-1.82	8.4	0.002	-0.3792	-0.3229	
-0.217648	0.997716	0.12322	-15.4	-0.7	9.8	0.0032	-0.3716	-0.3153	
-0.22387	1.007476	0.122244	-18.41	-1.47	10.64	0.0019	-0.3731	-0.3275	
-0.224358	1.014186	0.130418	-17.92	-3.29	10.85	0.0005	-0.3746	-0.329	
-0.220576	1.010648	0.136518	-21.21	-3.08	12.25	-0.0081	-0.3775	-0.3305	
-0.212158	1.012722	0.147498	-23.38	-2.66	13.65	0.0005	-0.3762	-0.3351	
-0.207034	1.022482	0.154086	-23.59	-4.2	14.07	-0.0112	-0.3593	-0.335	
-0.201178	1.023824	0.159332	-26.81	-4.48	14.63	0.0018	-0.3656	-0.3351	
-0.203252	1.020164	0.167628	-30.52	-3.15	14.98	-0.0083	-0.3608	-0.3366	
-0.203862	1.019188	0.172752	-31.85	-1.75	16.03	-0.014	-0.3623	-0.3457	
-0.203374	1.014552	0.181536	-32.83	-3.99	15.61	-0.017	-0.3547	-0.3441	
-0.196786	1.006134	0.190686	-36.54	-4.2	16.03	-0.0284	-0.3621	-0.3594	
-0.174704	0.998692	0.199104	-38.71	-6.93	15.4	-0.0272	-0.35	-0.3532	
-0.170312	1.002596	0.203008	-41.65	-10.29	15.12	-0.0184	-0.3486	-0.364	
-0.172386	1.010404	0.21472	-41.51	-9.73	16.45	-0.0273	-0.3348	-0.3639	
-0.173362	1.007476	0.232044	-45.01	-7.7	18.48	-0.0314	-0.3485	-0.3761	
-0.16836	1.015894	0.244	-47.53	-10.36	18.62	-0.0331	-0.3348	-0.3776	
-0.15677	1.005646	0.254004	-51.38	-13.37	18.62	-0.0433	-0.327	-0.3867	
-0.138348	1.002962	0.262788	-55.23	-6.44	20.72	-0.0433	-0.321	-0.3913	
-0.145546	1.012722	0.280844	-52.99	-13.93	18.13	-0.0478	-0.3088	-0.3958	
-0.129442	0.998082	0.294386	-56.21	-15.82	19.11	-0.0507	-0.3118	-0.4004	
-0.118706	0.991006	0.310612	-59.92	-10.22	23.17	-0.0551	-0.2981	-0.411	
-0.099552	0.979294	0.313906	-64.61	-10.29	23.52	-0.0523	-0.2921	-0.4186	
-0.111508	0.979416	0.329522	-68.04	-11.76	24.22	-0.0581	-0.292	-0.4155	
-0.11407	0.964532	0.358314	-68.74	-12.11	26.25	-0.0568	-0.2798	-0.4216	
-0.102724	0.949282	0.374174	-66.64	-13.23	25.27	-0.0612	-0.2722	-0.4308	
-0.087596	0.92049	0.39345	-69.65	-13.23	25.2	-0.0657	-0.2615	-0.4353	
-0.06893	0.890722	0.412604	-72.8	-11.62	26.81	-0.0862	-0.2475	-0.4336	
-0.063684	0.8601	0.426512	-77.14	-11.13	27.86	-0.079	-0.2325	-0.4489	
-0.043798	0.850706	0.4453	-75.04	-14.07	26.18	-0.0747	-0.231	-0.452	
-0.033062	0.819352	0.47153	-77.77	-13.58	26.95	-0.0937	-0.2171	-0.4655	
-0.01769	0.768844	0.49593	-81.55	-11.9	27.23	-0.0823	-0.2021	-0.4595	
0.00061	0.74115	0.518256	-80.5	-14.56	26.04	-0.0982	-0.2049	-0.4624	
0.01647	0.70333	0.548756	-81.13	-15.05	25.76	-0.1028	-0.1881	-0.4669	
0.02867	0.668316	0.57218	-82.88	-14.14	25.55	-0.1103	-0.1728	-0.4668	
0.031598	0.64965	0.604388	-84.91	-13.79	25.06	-0.1017	-0.1548	-0.4882	
0.03965	0.598166	0.628056	-86.66	-16.31	22.19	-0.1209	-0.1287	-0.4896	
0.060024	0.562542	0.66246	-85.82	-16.17	21.28	-0.1181	-0.1196	-0.4896	
0.078812	0.518866	0.69052	-89.67	-15.82	20.58	-0.1299	-0.1042	-0.5001	
0.093086	0.49349	0.722118	-89.32	-16.52	20.23	-0.1302	-0.086	-0.4955	
0.111386	0.467382	0.746274	-87.36	-15.89	19.81	-0.1245	-0.0785	-0.4924	
0.135298	0.42273	0.762622	-87.08	-15.26	18.97	-0.1406	-0.0615	-0.5015	
0.136274	0.385398	0.77287	-87.43	-15.05	19.04	-0.1394	-0.0464	-0.4984	
0.135298	0.345016	0.79544	-85.75	-15.68	18.83	-0.1381	-0.0357	-0.5014	
0.144204	0.31415	0.811422	-84.28	-14.63	18.97	-0.147	-0.0219	-0.5028	
0.175924	0.272792	0.844972	-80.57	-14.07	18.2	-0.1473	-0.0037	-0.5012	
0.197884	0.25742	0.863028	-77.56	-15.96	17.22	-0.1549	0.0115	-0.4874	
0.206058	0.237168	0.870348	-76.93	-15.26	17.78	-0.1534	0.013	-0.495	
0.213012	0.215574	0.893772	-73.5	-15.61	17.71	-0.1565	0.0298	-0.4965	
0.216306	0.196908	0.90219	-73.01	-14.91	17.5	-0.1552	0.0374	-0.4934	
0.221186	0.177022	0.911706	-70.07	-15.33	16.45	-0.1597	0.0541	-0.5025	
0.226798	0.144692	0.915976	-69.3	-14.28	15.75	-0.1686	0.0604	-0.4871	
0.23485	0.127368	0.926956	-65.73	-14.63	14.77	-0.1587	0.083	-0.4994	
0.24095	0.117608	0.942572	-63.14	-14.56	13.72	-0.1633	0.0937	-0.4871	
0.250466	0.099064	0.954772	-59.15	-13.44	12.46	-0.1719	0.0893	-0.4885	
0.260226	0.082228	0.960506	-57.4	-12.67	11.48	-0.1749	0.09999999	-0.4946	
0.27694	0.062952	0.967582	-55.02	-14	9.73	-0.1694	0.1136	-0.4839	
0.273646	0.05368	0.975756	-52.36	-10.78	10.22	-0.1725	0.1243	-0.4762	
0.281576	0.042334	0.977464	-49.49	-10.29	8.96	-0.1725	0.1243	-0.4701	
0.285114	0.02257	0.97417	-47.25	-8.54	8.05	-0.1625	0.1393	-0.4747	
0.28853	0.016836	0.972828	-43.05	-7.21	7.49	-0.1786	0.1441	-0.473	
0.293898	-0.00183	0.976732	-36.96	-5.04	6.37	-0.1743	0.1502	-0.4715	
0.293044	-0.013542	0.982466	-34.51	-3.36	6.44	-0.1643	0.1546	-0.467	
0.2928	-0.026352	0.986736	-31.29	-2.17	6.37	-0.1788	0.1563	-0.4684	
0.299632	-0.037576	0.992226	-28.56	-2.45	6.37	-0.1848	0.1671	-0.4592	
0.30378	-0.039772	1.00772	-26.6	-2.59	6.09	-0.1718	0.1729	-0.4608	
0.287676	-0.055754	1.01931	-24.64	-0.42	6.44	-0.1703	0.1714	-0.4684	
0.29585	-0.08662	1.025898	-20.23	0	5.18	-0.1762	0.173	-0.4561	
0.302682	-0.100772	1.03883	-16.24	1.12	5.18	-0.1763	0.1776	-0.4546	
0.305244	-0.1159	1.037854	-13.51	0.84	4.76	-0.1748	0.1821	-0.4653	
0.311344	-0.124806	1.040172	-9.8	0.63	4.41	-0.1779	0.1867	-0.4576	
0.313052	-0.134322	1.048346	-6.09	1.26	3.5	-0.1721	0.1882	-0.4561	
0.31476	-0.153842	1.04066	-2.66	2.45	2.45	-0.1765	0.1867	-0.4423	
0.316468	-0.169214	1.042856	2.45	2.17	1.12	-0.1663	0.1881	-0.45	
0.322324	-0.173118	1.043222	7.21	2.17	0	-0.1763	0.1791	-0.4638	
0.32086	-0.16836	1.041148	10.78	3.15	-0.77	-0.1735	0.1866	-0.4622	
0.314638	-0.163358	1.033462	14.56	3.71	-1.61	-0.172	0.1836	-0.4607	
0.304512	-0.157014	1.024434	18.41	3.85	-2.45	-0.1705	0.1836	-0.4638	
0.298534	-0.141154	1.012478	23.03	4.2	-2.87	-0.1646	0.1759	-0.4562	
0.293166	-0.115778	1.014308	27.93	3.92	-3.57	-0.1676	0.1835	-0.4684	
0.288408	-0.09577	1.018456	32.2	4.48	-4.27	-0.1703	0.1668	-0.4638	
0.280722	-0.066246	1.009916	34.58	4.69	-5.39	-0.1659	0.1652	-0.4654	
0.27267	-0.04819	1.004548	38.85	5.88	-6.79	-0.1731	0.1653	-0.4761	
0.272304	-0.032452	0.995764	43.54	5.67	-8.61	-0.1745	0.1563	-0.4623	
0.27389	-0.015494	0.99186	46.55	5.81	-9.52	-0.1642	0.147	-0.467	
0.273036	0.007198	0.989054	49.63	5.25	-10.29	-0.1772	0.1456	-0.4715	
0.268522	0.034526	0.983686	51.94	5.74	-10.99	-0.1639	0.1302	-0.4762	
0.267058	0.063684	0.978684	57.82	5.67	-12.81	-0.1651	0.1196	-0.487	
0.262788	0.086986	0.963068	58.87	5.95	-13.72	-0.1723	0.1136	-0.4885	
0.25742	0.103578	0.95709	62.23	6.23	-14.49	-0.1676	0.0938	-0.4947	
0.252052	0.127978	0.937448	64.68	6.51	-15.05	-0.1676	0.0862	-0.4825	
0.244122	0.156038	0.933056	68.04	6.37	-15.54	-0.1543	0.0739	-0.4826	
0.24034	0.182634	0.92354	71.12	7.07	-16.17	-0.1585	0.0633	-0.4857	
0.2318	0.20984	0.906094	72.73	7.84	-16.8	-0.1567	0.0389	-0.4888	
0.216672	0.244122	0.88755	74.83	7.98	-17.29	-0.164	0.0436	-0.4964	
0.207278	0.278648	0.87047	77.56	8.19	-18.06	-0.1668	0.0405	-0.504	
0.196664	0.313784	0.85583	79.38	8.47	-18.97	-0.1606	0.0131	-0.4965	
0.180926	0.347822	0.841556	80.29	9.1	-19.46	-0.1606	0.008599999	-0.4965	
0.165432	0.379542	0.820084	81.27	8.89	-20.09	-0.1646	-0.0156	-0.4996	
0.156526	0.404674	0.80398	81.13	9.17	-20.72	-0.1528	-0.0234	-0.5028	
0.154452	0.43493	0.790926	82.88	9.17	-21.35	-0.1496	-0.0432	-0.4983	
0.146156	0.46604	0.77287	82.74	9.52	-22.05	-0.1509	-0.0508	-0.5075	
0.145058	0.493124	0.763232	84.77	9.66	-22.54	-0.1494	-0.0629	-0.4953	
0.136518	0.517036	0.73993	84.28	10.29	-23.17	-0.1375	-0.07979999	-0.4969	
0.130418	0.542534	0.719434	85.19	11.2	-23.66	-0.1418	-0.0904	-0.4847	
0.109068	0.56974	0.681492	82.39	11.13	-24.36	-0.1387	-0.1056	-0.4894	
0.08784	0.593896	0.676612	84.77	12.18	-24.99	-0.1356	-0.1178	-0.4833	
0.078324	0.62037	0.673196	89.32	13.93	-26.6	-0.1266	-0.1407	-0.485	
0.074664	0.621224	0.652944	91.07	16.45	-28.42	-0.1178	-0.1454	-0.4896	
0.06832	0.624884	0.630496	94.36	16.45	-30.38	-0.1337	-0.1543	-0.4712	
0.05978	0.64477	0.61427	93.38	12.81	-31.92	-0.1205	-0.1651	-0.4667	
0.038552	0.695644	0.568276	92.54	12.18	-33.32	-0.1202	-0.1909	-0.4622	
0.000732	0.74969	0.518134	88.62	11.69	-34.93	-0.1186	-0.2076	-0.4562	
-0.0366	0.773114	0.491782	83.79	12.74	-35.07	-0.1083	-0.2123	-0.4547	
-0.059902	0.796904	0.449204	82.39	13.37	-35.28	-0.09649999	-0.2277	-0.4579	
-0.040382	0.812032	0.427488	81.41	13.44	-34.93	-0.0979	-0.2367	-0.4396	
-0.03782	0.832772	0.414434	77.63	11.76	-33.6	-0.0845	-0.2628	-0.4382	
-0.044286	0.83997	0.384422	70.07	13.02	-30.8	-0.0772	-0.272	-0.4276	
-0.04209	0.851194	0.37942	62.09	12.53	-28.91	-0.0845	-0.2703	-0.4275	
-0.055144	0.8723	0.354044	51.31	10.92	-27.44	-0.0654	-0.2888	-0.4094	
-0.071858	0.917684	0.347456	48.16	10.92	-25.34	-0.0639	-0.2919	-0.4186	
-0.095038	0.95465	0.339648	40.18	9.8	-23.87	-0.0682	-0.2964	-0.4139	
-0.13054	0.984906	0.329156	37.38	11.55	-21.84	-0.0695	-0.31	-0.4048	
-0.135908	0.988078	0.292678	33.11	13.37	-19.81	-0.058	-0.3086	-0.3988	
-0.043554	0.986614	0.264496	35.98	19.81	-20.02	-0.0594	-0.3147	-0.3942	
-0.15494	0.948916	0.301218	-7.21	43.12	4.06	-0.0507	-0.3118	-0.3988	
-0.143472	0.992958	0.283528	40.25	3.64	-16.03	-0.0506	-0.3148	-0.3973	
-0.15677	0.997106	0.27389	31.85	5.88	-13.65	-0.0404	-0.3241	-0.3928	
-0.155794	0.988444	0.263154	32.97	7.42	-12.04	-0.0506	-0.3224	-0.3897	
-0.157258	0.985516	0.266936	37.59	7.63	-11.9	-0.0433	-0.3225	-0.3897	
-0.146888	0.973194	0.26657	39.2	7.63	-11.48	-0.0535	-0.3269	-0.3728	
-0.14823	0.965874	0.25071	36.47	7.28	-12.11	-0.036	-0.3362	-0.3715	
-0.153354	0.967704	0.23302	30.87	6.3	-14.21	-0.0345	-0.3363	-0.3776	
-0.162504	0.973194	0.223504	31.5	8.4	-13.72	-0.0242	-0.3471	-0.3792	
-0.173728	0.983564	0.222284	31.29	9.03	-13.58	-0.0244	-0.3409	-0.3639	
-0.187148	0.996862	0.206424	27.93	9.17	-13.93	-0.0126	-0.3548	-0.361	
-0.188124	0.995032	0.201056	24.08	6.79	-14.14	-0.0344	-0.356	-0.3532	
-0.191296	1.006866	0.19459	24.36	5.11	-13.86	-0.0272	-0.35	-0.3502	
-0.202886	1.026386	0.19825	24.01	9.66	-8.54	-0.0185	-0.3501	-0.3456	
-0.19764	1.02968	0.205448	27.65	5.11	-9.45	-0.0127	-0.3562	-0.3365	
-0.201666	1.03273	0.195322	23.17	4.2	-8.4	-0.0053	-0.3624	-0.3473	
-0.200934	1.024312	0.200812	19.67	4.97	-6.86	-0.0126	-0.3593	-0.3396	
-0.195932	1.013698	0.19886	17.85	4.83	-5.6	-0.0125	-0.3654	-0.3411	
-0.19642	1.00101	0.190564	15.82	5.6	-3.71	-0.0037	-0.3776	-0.3382	
-0.192272	0.995764	0.184952	16.66	4.69	-3.64	-0.0082	-0.3684	-0.3335	
-0.19215	0.987834	0.184708	12.39	6.02	-2.52	-0.0023	-0.3716	-0.3397	
-0.195444	0.989054	0.172264	11.97	6.16	-1.47	0.0006	-0.3762	-0.3382	
-0.193614	0.981978	0.167506	10.57	6.58	-0.77	0.0005	-0.3701	-0.3397	
-0.201666	0.987468	0.167994	10.85	6.51	-0.63	0.0092	-0.3733	-0.3367	
-0.20923	0.989054	0.159454	11.48	6.3	-0.77	0.0006	-0.3792	-0.3336	
-0.20862	0.984784	0.154818	11.34	6.44	-0.7	0.0077	-0.3732	-0.3306	
-0.213256	0.994178	0.14396	12.11	5.81	-1.61	0.0035	-0.3823	-0.326	
-0.21594	1.001864	0.146034	13.37	5.32	-1.89	0.0092	-0.3793	-0.3245	
-0.208376	1.00345	0.135786	11.83	4.76	-1.89	0.0005	-0.3792	-0.3214	
-0.211914	1.009916	0.124806	7.07	5.88	-0.98	-0.0067	-0.3791	-0.3229	
-0.218014	1.021628	0.124562	5.11	5.25	-0.98	0.0033	-0.3762	-0.3168	
-0.224602	1.029192	0.121512	5.95	4.69	-0.56	0.0123	-0.387	-0.3261	
-0.221552	1.031388	0.120292	4.34	4.76	-0.14	0.0078	-0.3884	-0.3107	
-0.219234	1.020286	0.11712	1.26	4.83	0	0.0093	-0.3839	-0.3245	
-0.22265	1.01992	0.120414	-1.68	4.27	-0.14	0.0063	-0.3792	-0.3199	
-0.22448	1.014186	0.116632	-2.31	4.27	0.56	0.0034	-0.3792	-0.329	
-0.21716	1.004548	0.116388	-0.7	3.22	0.98	0.0078	-0.3823	-0.3214	
-0.216794	1.000278	0.120902	-0.63	2.87	1.75	0.0064	-0.3884	-0.3199	
-0.219966	0.993812	0.12444	-0.63	2.73	2.17	0.002	-0.3838	-0.326	
-0.221796	0.988688	0.124318	-1.75	2.45	2.38	0.0063	-0.3777	-0.3199	
-0.218746	0.9943	0.12078	-0.14	0.77	2.24	0.0005	-0.3807	-0.3229	
-0.22021	0.999912	0.122122	0	-0.42	1.82	0.0005	-0.3807	-0.3137	
-0.219478	1.006134	0.122122	-4.06	-0.98	1.75	-0.0008	-0.3837	-0.3244	
-0.22631	1.015528	0.117852	-3.92	-1.19	2.45	-0.0008	-0.3792	-0.326	
-0.223504	1.023214	0.126758	-4.41	-2.45	2.94	0.0034	-0.3792	-0.3214	
-0.225334	1.030656	0.125904	-4.55	-3.29	3.08	-0.0037	-0.3867	-0.3229	
-0.224724	1.030412	0.1281	-9.66	-2.8	3.36	-0.0008	-0.3807	-0.3214	
-0.218868	1.025776	0.128588	-14.14	-2.59	3.78	0.0035	-0.3853	-0.3214	
-0.217526	1.020774	0.131882	-16.52	-3.08	4.69	-0.0009	-0.3822	-0.3137	
-0.21838	1.019066	0.136518	-16.94	-3.22	5.81	0.0019	-0.3777	-0.3229	
-0.207644	1.011502	0.140666	-17.64	-3.99	6.23	0.002	-0.3747	-0.3351	
-0.20313	1.006988	0.14579	-17.99	-4.69	6.58	0.002	-0.3777	-0.3336	
-0.196298	1.003328	0.154574	-19.39	-4.62	7.28	-0.0054	-0.3639	-0.332	
-0.18788	1.001986	0.16226	-18.97	-7.56	6.51	-0.0082	-0.3684	-0.3274	
-0.192028	1.005158	0.17141	-20.37	-6.65	7.7	-0.0096	-0.3684	-0.3442	
-0.191418	1.005402	0.18056	-22.89	-4.06	10.08	-0.0153	-0.3775	-0.3381	
-0.187148	1.00284	0.186172	-24.08	-4.48	10.15	-0.0069	-0.3533	-0.3457	
-0.17995	0.997472	0.19398	-24.71	-5.74	10.36	-0.0213	-0.3576	-0.3472	
-0.171288	1.001132	0.203252	-22.89	-8.05	9.59	-0.014	-0.3548	-0.3625	
-0.172996	1.00955	0.21045	-23.73	-6.58	10.85	-0.0111	-0.3593	-0.3503	
-0.174216	1.014552	0.215696	-27.58	-5.25	11.27	-0.0183	-0.3592	-0.3594	
-0.173972	1.019676	0.21411	-31.78	-6.3	10.78	-0.0272	-0.347	-0.367	
-0.178242	1.016748	0.225944	-33.95	-6.3	11.2	-0.02	-0.3455	-0.3502	
-0.172996	1.006866	0.22753	-35.07	-5.67	12.18	-0.0228	-0.3455	-0.3685	
-0.161528	1.002718	0.246318	-34.93	-7	13.02	-0.0418	-0.3346	-0.3699	
-0.162504	0.996496	0.260958	-34.65	-10.64	13.3	-0.0346	-0.3332	-0.3684	
-0.143594	0.98637	0.272914	-37.52	-6.72	15.05	-0.0346	-0.3226	-0.3852	
-0.142008	0.98576	0.286456	-38.71	-7.14	15.05	-0.0389	-0.3241	-0.3913	
-0.138958	0.981978	0.29829	-38.08	-7.42	15.61	-0.033	-0.3272	-0.3959	
-0.133346	0.978074	0.31049	-37.52	-5.67	17.01	-0.0376	-0.3195	-0.3882	
-0.119194	0.970144	0.323788	-36.61	-4.9	17.36	-0.0449	-0.3058	-0.4019	
-0.109434	0.958798	0.339282	-34.93	-4.55	17.36	-0.0405	-0.3104	-0.4081	
-0.10248	0.956114	0.356118	-31.08	-4.9	17.5	-0.0463	-0.3088	-0.4065	
-0.095892	0.945988	0.371002	-31.08	-4.48	17.43	-0.0551	-0.2966	-0.4202	
-0.086254	0.933056	0.380396	-32.69	-2.8	17.64	-0.0582	-0.2874	-0.4125	
-0.074786	0.91439	0.40016	-32.48	-2.03	17.57	-0.061	-0.2904	-0.417	
-0.056364	0.900604	0.425658	-28.07	-1.26	17.85	-0.0553	-0.2814	-0.4216	
-0.052216	0.884988	0.449692	-25.48	-0.98	17.36	-0.0625	-0.2843	-0.4185	
-0.038552	0.86986	0.444324	-27.44	-0.49	15.61	-0.0612	-0.2798	-0.4155	
-0.025864	0.85827	0.44957	-31.85	1.54	14.42	-0.0598	-0.2677	-0.4246	
-0.016836	0.844972	0.464942	-33.32	1.96	13.16	-0.0655	-0.2737	-0.4292	
-0.01891	0.833992	0.473726	-31.57	-0.35	12.67	-0.0743	-0.2675	-0.4352	
-0.0122	0.815936	0.488976	-32.13	0.77	13.09	-0.0816	-0.2598	-0.4382	
-0.00122	0.809836	0.514596	-28.42	-1.12	11.9	-0.0641	-0.2661	-0.4384	
0.00122	0.807762	0.537288	-26.95	-2.1	11.69	-0.0773	-0.2583	-0.4413	
0.000244	0.793366	0.541314	-28.49	0.14	12.46	-0.0627	-0.257	-0.4475	
0.012078	0.776042	0.547414	-29.33	-0.56	10.5	-0.0716	-0.2523	-0.4383	
0.00671	0.768844	0.557296	-29.19	0.77	10.01	-0.0802	-0.2537	-0.4489	
0.004758	0.75335	0.566202	-27.93	-0.21	8.61	-0.0731	-0.2432	-0.4474	
0.010614	0.732732	0.574986	-27.3	-0.98	7.77	-0.0788	-0.2477	-0.4489	
0.024766	0.724924	0.60451	-25.13	-2.03	5.95	-0.0805	-0.2325	-0.4504	
0.022204	0.718824	0.61854	-24.22	-1.33	4.9	-0.0777	-0.2264	-0.4458	
0.025132	0.705282	0.632814	-22.75	-2.03	3.85	-0.0763	-0.2234	-0.4504	
0.030256	0.70821	0.645746	-20.51	-3.57	2.38	-0.0733	-0.2189	-0.4657	
0.036966	0.707356	0.65758	-19.53	-4.2	1.19	-0.0792	-0.2188	-0.4549	
0.041968	0.707112	0.66612	-17.36	-3.92	-0.14	-0.0748	-0.2189	-0.458	
0.045262	0.702232	0.671488	-15.47	-3.22	-0.84	-0.0822	-0.2097	-0.4518	
0.044286	0.69235	0.67161	-13.72	-2.87	-1.05	-0.0807	-0.2112	-0.4626	
0.042456	0.698206	0.679662	-10.85	-3.5	-0.91	-0.0822	-0.2082	-0.4641	
0.035624	0.698938	0.67832	-9.66	-3.43	-0.63	-0.0822	-0.2082	-0.4656	
0.027206	0.693692	0.673806	-9.17	-3.92	-0.49	-0.088	-0.2096	-0.4594	
0.020984	0.695888	0.672342	-7.28	-4.55	-0.7	-0.0794	-0.2052	-0.4595	
0.020008	0.696864	0.671244	-4.83	-5.32	-0.91	-0.0895	-0.2096	-0.4533	
0.023668	0.69662	0.674538	-3.29	-5.88	-0.84	-0.0926	-0.1974	-0.4533	
0.022326	0.699548	0.672952	-1.68	-6.02	-0.7	-0.0852	-0.199	-0.4625	
0.019154	0.700524	0.673318	0.63	-5.88	-0.14	-0.0938	-0.208	-0.4609	
0.013298	0.708698	0.66856	3.43	-6.44	0.77	-0.0983	-0.1988	-0.4593	
0.001952	0.715042	0.658556	5.11	-6.93	1.82	-0.0865	-0.2096	-0.461	
-0.010492	0.726876	0.653676	6.44	-7.42	2.66	-0.0909	-0.205	-0.4655	
-0.017446	0.73322	0.648064	7.28	-7.7	3.57	-0.088	-0.205	-0.464	
-0.01891	0.731512	0.637084	9.45	-7.7	4.55	-0.0895	-0.2111	-0.4487	
-0.021228	0.732854	0.621834	10.43	-8.61	5.81	-0.091	-0.208	-0.4564	
-0.017934	0.744322	0.62281	14.21	-9.73	7.14	-0.0938	-0.211	-0.4625	
-0.017812	0.752618	0.609146	12.39	-9.31	8.54	-0.1113	-0.2092	-0.4562	
-0.028792	0.75884	0.606462	10.92	-9.31	10.29	-0.09959999	-0.214	-0.4609	
-0.0305	0.754936	0.58926	13.72	-10.92	12.95	-0.107	-0.2062	-0.4486	
-0.021716	0.755546	0.5795	12.53	-11.9	14.63	-0.114	-0.2198	-0.4578	
-0.02013	0.76433	0.576694	13.02	-12.81	16.87	-0.1053	-0.226	-0.4441	
-0.01525	0.760304	0.566446	12.67	-14.35	19.11	-0.1111	-0.2259	-0.4486	
-0.008174	0.758962	0.567422	12.74	-15.68	21.49	-0.1184	-0.2228	-0.4516	
0.003904	0.7686	0.559492	12.53	-16.66	23.87	-0.1213	-0.2258	-0.4485	
0.006466	0.76982	0.538386	10.08	-17.78	26.39	-0.1359	-0.2195	-0.4469	
0.019276	0.764452	0.525576	6.44	-20.3	28.63	-0.1286	-0.2257	-0.4424	
0.047336	0.77165	0.52826	7.14	-22.4	30.52	-0.1431	-0.2285	-0.4361	
0.083692	0.776896	0.534482	7.77	-23.87	32.62	-0.1446	-0.23	-0.4331	
0.113826	0.77653	0.537776	6.37	-25.2	35.14	-0.146	-0.2224	-0.4453	
0.142252	0.779458	0.527528	1.47	-25.62	38.22	-0.1506	-0.2086	-0.4422	
0.1586	0.780556	0.51911	-3.08	-27.37	40.74	-0.1577	-0.2237	-0.4376	
0.168604	0.795806	0.509228	-5.95	-29.4	42.49	-0.168	-0.2129	-0.4374	
0.196908	0.801174	0.501542	-7.42	-31.64	42.98	-0.1796	-0.2158	-0.4343	
0.232288	0.811544	0.506666	-6.65	-33.74	43.82	-0.1941	-0.2186	-0.4388	
0.256322	0.798856	0.503006	-6.93	-35.28	44.87	-0.1898	-0.2141	-0.4312	
0.279868	0.783606	0.507886	-9.17	-37.1	45.64	-0.2015	-0.2079	-0.4372	
0.294874	0.772626	0.47153	-12.81	-39.06	45.43	-0.2074	-0.2062	-0.4295	
0.313662	0.76921	0.479216	-9.59	-42.77	45.36	-0.2279	-0.1998	-0.4186	
0.344894	0.79422	0.48861	-8.68	-44.03	44.24	-0.2338	-0.1906	-0.4247	
0.385764	0.789706	0.500444	-11.62	-43.82	43.19	-0.2337	-0.1967	-0.4262	
0.408334	0.77409	0.505202	-14.28	-43.47	43.33	-0.2485	-0.1813	-0.423	
0.412482	0.74664	0.473604	-21.77	-44.31	43.54	-0.2617	-0.1735	-0.4137	
0.42761	0.731024	0.479826	-25.76	-44.31	44.73	-0.266	-0.1765	-0.4167	
0.4453	0.712114	0.486536	-28.56	-42.84	43.33	-0.2734	-0.1657	-0.4166	
0.459452	0.69113	0.48617	-31.36	-41.09	40.6	-0.2852	-0.1625	-0.4089	
0.485804	0.682468	0.50813	-26.88	-41.79	39.69	-0.2911	-0.1502	-0.4104	
0.507032	0.671976	0.517768	-24.01	-43.12	38.85	-0.2956	-0.1396	-0.4149	
0.53741	0.655506	0.505446	-25.9	-43.96	37.66	-0.3059	-0.1379	-0.4071	
0.549244	0.652822	0.504836	-25.27	-45.36	38.01	-0.3132	-0.1362	-0.4025	
0.584258	0.66429	0.50813	-22.82	-46.2	37.45	-0.325	-0.1284	-0.3978	
0.608536	0.639036	0.545218	-17.92	-45.29	36.12	-0.328	-0.1193	-0.3962	
0.60634	0.617686	0.544486	-18.2	-43.05	36.68	-0.331	-0.1086	-0.4008	
0.615246	0.627446	0.518744	-17.08	-41.79	35.49	-0.3383	-0.1145	-0.39	
0.64294	0.625128	0.510692	-15.75	-41.65	32.06	-0.3415	-0.1008	-0.3762	
0.665632	0.613782	0.527772	-15.96	-38.71	31.01	-0.3559	-0.1021	-0.3837	
0.670268	0.5978	0.510936	-17.85	-35.84	28.56	-0.3619	-0.0929	-0.3791	
0.670512	0.596946	0.494832	-14	-35.35	27.23	-0.3605	-0.0959	-0.3699	
0.69113	0.577426	0.488366	-12.67	-35.07	24.71	-0.3707	-0.0882	-0.3744	
0.718092	0.561688	0.481534	-12.46	-34.23	24.36	-0.3752	-0.0805	-0.3682	
0.742858	0.579256	0.472262	-13.23	-32.13	24.29	-0.3753	-0.079	-0.3652	
0.76189	0.563762	0.474946	-16.45	-27.79	22.89	-0.3826	-0.0728	-0.3681	
0.791292	0.533994	0.462136	-16.1	-22.47	22.26	-0.3886	-0.06659999	-0.3513	
0.80459	0.507764	0.446764	-14.35	-19.25	23.52	-0.3959	-0.0604	-0.3665	
0.809592	0.496906	0.439566	-13.58	-17.71	25.41	-0.399	-0.0558	-0.345	
0.814106	0.488122	0.447008	-9.66	-15.05	27.51	-0.3934	-0.0422	-0.345	
0.800808	0.489464	0.468724	-4.06	-14	27.65	-0.3919	-0.0468	-0.3451	
0.79727	0.483852	0.454206	2.38	-12.32	24.08	-0.3918	-0.0528	-0.342	
0.821548	0.474214	0.439322	4.55	-5.67	22.19	-0.4036	-0.0405	-0.3449	
0.822402	0.423706	0.420778	0.56	0.21	22.4	-0.4007	-0.0345	-0.3449	
0.81801	0.430416	0.42273	7.49	-0.7	20.37	-0.4022	-0.0359	-0.3373	
0.822524	0.41846	0.438346	10.08	1.26	19.74	-0.4096	-0.0252	-0.3433	
0.821304	0.419802	0.430782	9.45	4.2	20.51	-0.4038	-0.0268	-0.3449	
0.807762	0.425414	0.41541	7.7	5.18	20.23	-0.4008	-0.0299	-0.348	
0.79666	0.43493	0.40931	6.65	5.74	20.51	-0.4037	-0.0299	-0.351	
0.793	0.427366	0.416874	5.88	4.9	19.67	-0.4067	-0.0268	-0.3388	
0.802272	0.428464	0.415166	5.53	3.01	18.83	-0.3937	-0.0179	-0.3465	
0.7991	0.435784	0.429928	5.95	0.49	18.55	-0.3981	-0.0208	-0.3403	
0.780434	0.449082	0.441396	8.33	-1.26	17.64	-0.3979	-0.0284	-0.3419	
0.787388	0.451156	0.442616	7.14	-0.91	15.89	-0.4097	-0.0161	-0.3433	
0.800442	0.436516	0.449692	4.41	0.84	14.49	-0.4097	-0.0191	-0.3448	
0.810446	0.423462	0.43859	1.26	2.17	13.51	-0.4098	-0.0115	-0.3402	
0.807396	0.428586	0.440664	0.98	1.75	12.6	-0.4053	-0.0192	-0.3464	
0.807274	0.439078	0.45018	3.36	0.28	10.5	-0.4026	-0.0101	-0.3418	
0.799588	0.444934	0.455304	3.15	1.05	9.03	-0.4009	-0.0178	-0.351	
0.80276	0.444934	0.456646	3.43	1.75	6.37	-0.401	-0.0147	-0.3495	
0.810568	0.437004	0.449204	1.89	3.64	4.13	-0.4083	-0.0146	-0.3402	
0.798734	0.435052	0.445056	0.63	4.83	2.1	-0.3982	-0.0087	-0.3434	
0.798002	0.43676	0.440176	0.7	5.39	-0.28	-0.3952	-0.0148	-0.3465	
0.808006	0.428586	0.439688	0.7	5.67	-2.73	-0.401	-0.0147	-0.3449	
0.809836	0.426024	0.439322	1.75	6.79	-3.85	-0.4009	-0.0178	-0.351	
0.818132	0.427488	0.438224	2.31	7.21	-5.6	-0.4054	-0.0101	-0.351	
0.81374	0.433344	0.442128	2.94	7.28	-7.35	-0.3995	-0.0163	-0.3571	
0.811544	0.433222	0.44164	2.45	8.68	-8.89	-0.3965	-0.0194	-0.3602	
0.817644	0.424926	0.449326	2.59	9.87	-10.78	-0.3995	-0.0117	-0.3587	
0.808128	0.439444	0.449448	3.78	10.36	-13.37	-0.3978	-0.0315	-0.3496	
0.818132	0.442128	0.465064	6.79	10.57	-16.52	-0.392	-0.024	-0.3664	
0.825574	0.440664	0.4697	7.91	11.62	-19.11	-0.392	-0.0316	-0.3542	
0.827526	0.446764	0.475312	8.05	14.07	-21.07	-0.3863	-0.0241	-0.3496	
0.821304	0.456646	0.469578	8.96	15.96	-23.24	-0.3905	-0.0286	-0.3649	
0.81069	0.458964	0.46665	7	18.69	-24.92	-0.3831	-0.0424	-0.3604	
0.797392	0.459574	0.480192	10.78	20.02	-26.88	-0.3772	-0.0425	-0.3773	
0.80337	0.463356	0.479216	14.07	21.07	-29.33	-0.3802	-0.0394	-0.365	
0.80581	0.460306	0.488366	14.7	23.1	-31.57	-0.3712	-0.0547	-0.3758	
0.791414	0.478728	0.481168	15.75	24.85	-33.04	-0.3711	-0.0638	-0.3682	
0.781654	0.498614	0.484584	18.83	26.53	-34.23	-0.3696	-0.0624	-0.3743	
0.7686	0.510814	0.487512	20.02	29.26	-35.77	-0.3623	-0.064	-0.379	
0.75762	0.519476	0.483852	18.06	32.27	-36.82	-0.3606	-0.0807	-0.379	
0.735782	0.528992	0.477874	15.75	35.91	-37.1	-0.3519	-0.0779	-0.3852	
0.715164	0.551806	0.4819	17.22	35.91	-38.36	-0.3576	-0.0808	-0.3944	
0.686982	0.570716	0.489952	17.85	37.52	-38.99	-0.3458	-0.0962	-0.393	
0.67222	0.577304	0.48617	17.92	38.57	-40.11	-0.3371	-0.0903	-0.3961	
0.668926	0.59231	0.47336	16.38	39.97	-42.14	-0.3354	-0.1055	-0.3977	
0.641354	0.602314	0.481046	14	40.53	-42.14	-0.3251	-0.1148	-0.4023	
0.617076	0.630008	0.480192	15.61	39.62	-42.42	-0.3206	-0.1224	-0.4055	
0.585478	0.644526	0.487634	18.76	38.01	-43.75	-0.306	-0.1242	-0.4163	
0.565592	0.663192	0.492514	19.39	36.4	-46.2	-0.3059	-0.1303	-0.4117	
0.55205	0.672586	0.500322	20.3	36.19	-48.3	-0.3059	-0.1288	-0.4163	
0.534482	0.68564	0.495808	18.48	37.1	-49.42	-0.284	-0.1382	-0.4211	
0.516548	0.68747	0.487024	14.14	37.52	-50.68	-0.2751	-0.1505	-0.4196	
0.498248	0.704672	0.488854	11.97	38.22	-52.01	-0.2807	-0.1641	-0.4258	
0.462502	0.71797	0.488732	8.05	40.18	-54.25	-0.2603	-0.1674	-0.4229	
0.436638	0.702842	0.503128	3.78	41.79	-54.81	-0.2515	-0.1706	-0.4306	
0.429318	0.718092	0.511424	5.88	40.95	-56.21	-0.2399	-0.1723	-0.423	
0.403942	0.717116	0.533506	6.23	41.37	-56.49	-0.2223	-0.1787	-0.4308	
0.373686	0.71797	0.537166	4.9	42.77	-56.14	-0.2194	-0.1833	-0.4293	
0.35075	0.745786	0.538508	4.48	42.91	-55.72	-0.2135	-0.1849	-0.434	
0.29585	0.770796	0.558272	6.23	43.33	-54.81	-0.2003	-0.1866	-0.4478	
0.264008	0.770186	0.5734	4.2	43.05	-53.76	-0.1886	-0.1944	-0.4372	
0.270962	0.796294	0.58316	6.44	43.19	-56.63	-0.1826	-0.2021	-0.4495	
0.076128	0.740784	0.53558	-32.9	56.84	-44.38	-0.1682	-0.1917	-0.4481	
0.14457	0.76982	0.562786	-5.46	43.68	-54.53	-0.155	-0.2055	-0.4513	
0.117242	0.771406	0.593896	-4.2	46.06	-53.69	-0.1477	-0.2042	-0.4575	
0.103578	0.786168	0.59048	2.17	44.45	-52.99	-0.1318	-0.1953	-0.4545	
0.057462	0.77958	0.595116	-3.29	47.25	-51.1	-0.126	-0.1923	-0.4606	
0.03843	0.771894	0.58743	-6.65	47.67	-52.15	-0.1245	-0.1969	-0.4561	
0.017568	0.75579	0.59231	-12.67	49	-52.57	-0.1026	-0.2018	-0.4685	
-0.027938	0.739198	0.5917	-15.82	49.49	-51.52	-0.0926	-0.1913	-0.4639	
-0.069174	0.760426	0.607194	-9.45	47.04	-51.1	-0.0853	-0.1899	-0.4732	
-0.080154	0.754326	0.62342	-6.37	45.36	-50.89	-0.0708	-0.1962	-0.4565	
-0.096624	0.719556	0.608536	-10.85	45.01	-49.84	-0.0592	-0.1948	-0.4596	
-0.153842	0.687958	0.608536	-8.82	42.91	-47.46	-0.0576	-0.1964	-0.4673	
-0.200812	0.683444	0.621956	2.1	38.64	-44.66	-0.0372	-0.1998	-0.4751	
-0.215574	0.665998	0.591334	5.18	35.91	-40.53	-0.0372	-0.1952	-0.4781	
-0.210938	0.624884	0.575352	8.12	28.98	-36.4	-0.0344	-0.1983	-0.4675	
-0.218258	0.642696	0.564616	14.91	23.1	-31.57	-0.0242	-0.1969	-0.4645	
-0.23729	0.701256	0.582794	13.65	16.24	-24.64	-0.0125	-0.2001	-0.4768	
-0.240828	0.711748	0.591822	10.01	15.54	-19.81	-0.0155	-0.1925	-0.4691	
-0.241316	0.72163	0.587308	9.31	13.37	-15.47	-0.0081	-0.2062	-0.4646	
-0.23973	0.730414	0.58499	10.92	11.41	-12.04	-0.011	-0.2077	-0.4692	
-0.23302	0.751764	0.58865	10.22	9.66	-9.94	-0.0037	-0.2078	-0.4646	
-0.212158	0.773968	0.601948	12.18	7.7	-9.8	0.0093	-0.208	-0.477	
-0.181536	0.797148	0.598532	8.12	7.63	-10.29	0.0006	-0.2079	-0.4708	
-0.174338	0.816302	0.5856	3.15	8.33	-11.97	0.0048	-0.1988	-0.4632	
-0.183366	0.83387	0.567788	0.07	10.36	-14.14	0.0122	-0.2111	-0.4663	
-0.185928	0.854854	0.574986	-0.56	9.94	-16.94	0.0062	-0.2034	-0.4601	
-0.18605	0.86437	0.568886	-4.34	9.52	-19.6	0.0093	-0.2126	-0.4648	
-0.176046	0.859002	0.558028	-9.73	9.52	-22.75	0.015	-0.2081	-0.4587	
-0.159454	0.834724	0.561932	-12.53	10.08	-25.55	0.0194	-0.2066	-0.4618	
-0.150182	0.827038	0.55632	-11.27	11.62	-27.02	0.0179	-0.2036	-0.4679	
-0.142252	0.83204	0.559858	-7.63	11.13	-27.93	0.0252	-0.2037	-0.4679	
-0.139324	0.824598	0.568398	-8.82	12.04	-28.63	0.0208	-0.2021	-0.4679	
-0.140056	0.814228	0.574132	-12.88	13.86	-29.75	0.034	-0.2084	-0.4772	
-0.150182	0.802516	0.583282	-13.72	14.84	-30.59	0.0295	-0.2007	-0.4725	
-0.170434	0.798978	0.600118	-12.53	15.19	-31.5	0.0411	-0.1963	-0.4741	
-0.197518	0.798856	0.60573	-13.23	17.29	-32.2	0.0482	-0.1858	-0.4741	
-0.230092	0.793122	0.610854	-16.59	19.95	-33.6	0.0497	-0.1934	-0.4635	
-0.25071	0.779824	0.622078	-16.59	22.05	-35.56	0.0497	-0.1858	-0.4757	
-0.27084	0.766648	0.620248	-16.03	23.94	-37.1	0.0555	-0.1874	-0.4711	
-0.28792	0.762622	0.616954	-14.07	24.43	-38.85	0.0714	-0.1846	-0.4697	
-0.302804	0.746152	0.614758	-14.49	26.46	-40.04	0.0685	-0.1755	-0.4789	
-0.326716	0.73627	0.612928	-13.86	27.23	-41.09	0.0785	-0.1695	-0.4758	
-0.352458	0.721264	0.593286	-15.05	28.56	-41.93	0.09429999	-0.1591	-0.4729	
-0.38918	0.692106	0.573278	-17.57	29.89	-43.26	0.1001	-0.1531	-0.4698	
-0.406138	0.664534	0.569618	-18.97	29.05	-43.89	0.103	-0.1592	-0.4683	
-0.42944	0.665754	0.574132	-17.43	27.65	-43.47	0.1015	-0.1532	-0.4699	
-0.474702	0.642574	0.56242	-25.2	28.84	-44.59	0.1188	-0.1443	-0.473	
-0.5063	0.630618	0.539362	-24.99	26.67	-45.78	0.1232	-0.1428	-0.473	
-0.508252	0.597678	0.538508	-29.26	23.94	-47.25	0.1288	-0.1308	-0.4685	
-0.519354	0.589016	0.535946	-26.95	23.31	-48.86	0.1345	-0.1278	-0.4624	
-0.51423	0.553758	0.539606	-28.56	27.23	-50.54	0.1415	-0.1081	-0.4654	
-0.555344	0.572058	0.554734	-26.67	26.53	-50.89	0.1504	-0.1189	-0.4686	
-0.599142	0.558028	0.537044	-32.41	19.74	-51.8	0.1474	-0.1052	-0.4808	
-0.632936	0.533262	0.54534	-31.22	18.55	-51.66	0.1675	-0.0964	-0.4702	
-0.623908	0.484828	0.557784	-31.08	18.2	-50.96	0.1587	-0.0901	-0.4624	
-0.620492	0.442982	0.575108	-30.8	14.42	-50.89	0.1657	-0.0735	-0.4655	
-0.636474	0.427732	0.607438	-27.44	15.26	-49.7	0.1686	-0.0751	-0.4579	
-0.660264	0.403942	0.59658	-30.17	12.6	-48.93	0.1701	-0.066	-0.4762	
-0.665388	0.379908	0.60939	-28.35	8.33	-47.11	0.1742	-0.0585	-0.4655	
-0.645624	0.362828	0.641964	-23.03	5.67	-45.78	0.1757	-0.0585	-0.4732	
-0.649406	0.363194	0.647942	-27.86	8.54	-41.58	0.1813	-0.0434	-0.4655	
-0.656238	0.336842	0.636718	-29.47	8.96	-38.08	0.1828	-0.0404	-0.4778	
-0.648308	0.308294	0.646478	-28.98	9.52	-33.81	0.1798	-0.0328	-0.4823	
-0.66673	0.293776	0.652456	-29.4	10.08	-29.33	0.1826	-0.0297	-0.4701	
-0.689422	0.280112	0.650504	-30.17	11.2	-25.41	0.1795	-0.0206	-0.4624	
-0.713456	0.281942	0.657092	-28.84	10.57	-21.98	0.1897	-0.0177	-0.467	
-0.74115	0.279014	0.66002	-27.93	10.08	-19.46	0.1926	-0.0192	-0.4686	
-0.7625	0.258274	0.649894	-28.49	11.48	-16.1	0.188	-0.0055	-0.4609	
-0.752008	0.241316	0.662582	-25.97	10.22	-13.86	0.1996	-0.0026	-0.4594	
-0.767014	0.239852	0.674782	-22.12	8.26	-12.46	0.1964	0.0141	-0.4609	
-0.79117	0.228628	0.662338	-20.65	7.49	-11.9	0.1936	0.0095	-0.4639	
-0.78141	0.208254	0.657214	-18.2	2.94	-11.69	0.1922	0.0095	-0.47	
-0.774456	0.207522	0.661484	-14.56	-0.21	-11.55	0.1935	0.0232	-0.4792	
-0.773724	0.2013	0.659776	-11.97	-2.1	-11.2	0.1906	0.0157	-0.4562	
-0.775188	0.198128	0.670146	-7.14	-2.94	-10.43	0.1978	0.0216	-0.4685	
-0.75762	0.183366	0.670756	-7.35	-3.5	-9.59	0.1936	0.0125	-0.47	
-0.735294	0.174948	0.679906	-3.71	-4.48	-8.26	0.2007	0.0231	-0.4685	
-0.729804	0.179218	0.679052	-1.47	-6.02	-6.93	0.1891	0.0248	-0.4654	
-0.73627	0.17812	0.68076	-0.42	-4.34	-5.39	0.192	0.0247	-0.4654	
-0.728462	0.175436	0.69052	0.56	-4.2	-3.71	0.1803	0.0279	-0.4684	
-0.716262	0.186538	0.693448	1.89	-4.13	-2.1	0.1992	0.0292	-0.467	
-0.70821	0.19947	0.69357	2.59	-2.87	-0.77	0.1891	0.0233	-0.4623	
-0.694058	0.20191	0.696498	1.61	-0.91	0.98	0.1802	0.0295	-0.4592	
-0.71187	0.202032	0.696498	2.1	0.21	2.8	0.1906	0.0187	-0.4654	
-0.729438	0.20069	0.689544	1.82	1.33	4.27	0.1919	0.0308	-0.4654	
-0.722606	0.2013	0.693936	3.22	0.98	5.81	0.1875	0.0309	-0.4669	
-0.734318	0.21106	0.688202	4.48	0.14	7.07	0.1861	0.0249	-0.4562	
-0.745786	0.2135	0.688568	6.02	-0.35	8.26	0.1906	0.0202	-0.4685	
-0.752374	0.225456	0.686128	7.07	-2.03	9.73	0.1803	0.0219	-0.4592	
-0.752862	0.226554	0.67649	7.28	-3.43	11.27	0.1979	0.014	-0.4655	
-0.749568	0.221674	0.675026	9.8	-4.97	12.81	0.1963	0.0262	-0.4685	
-0.749812	0.232532	0.679418	13.44	-6.3	14.14	0.195	0.0156	-0.467	
-0.746518	0.231922	0.675514	15.05	-6.16	15.82	0.1835	0.0066	-0.4623	
-0.740662	0.235948	0.667218	17.71	-7.49	17.29	0.1907	0.0141	-0.47	
-0.740906	0.236802	0.668438	19.81	-8.96	19.04	0.1823	-0.0069	-0.4685	
-0.725046	0.255102	0.677954	24.15	-12.18	20.58	0.1895	-0.0025	-0.4701	
-0.701622	0.268766	0.672098	24.01	-12.11	21.63	0.1852	-0.01	-0.4731	
-0.70272	0.260836	0.665388	23.31	-10.64	24.22	0.1781	-0.0175	-0.47	
-0.70516	0.267668	0.659776	25.9	-10.22	26.74	0.1737	-0.019	-0.4746	
-0.71431	0.286334	0.664778	29.89	-13.79	28	0.171	-0.0326	-0.4746	
-0.71553	0.296338	0.643672	28.84	-14.84	29.75	0.1768	-0.0342	-0.4609	
-0.696376	0.313296	0.643428	31.15	-16.1	31.5	0.1813	-0.0404	-0.4747	
-0.682468	0.339282	0.639036	34.65	-18.2	32.83	0.1625	-0.0492	-0.4685	
-0.673806	0.35868	0.640012	35.56	-19.53	34.79	0.1669	-0.0493	-0.4761	
-0.656482	0.372222	0.633668	37.45	-19.53	36.82	0.1599	-0.0719	-0.467	
-0.640988	0.406626	0.643062	41.58	-21.28	38.43	0.1599	-0.06439999	-0.4746	
-0.631106	0.437126	0.623176	40.04	-20.02	40.67	0.1556	-0.0734	-0.4746	
-0.616954	0.467138	0.621468	41.51	-20.3	42.7	0.1501	-0.0946	-0.4762	
-0.598166	0.49532	0.608414	40.32	-20.3	44.38	0.1473	-0.1006	-0.4716	
-0.574498	0.518988	0.604876	41.3	-20.3	45.85	0.1428	-0.09299999	-0.4715	
-0.56486	0.538386	0.585844	37.87	-20.3	47.32	0.1416	-0.1067	-0.4761	
-0.54534	0.54839	0.573766	38.29	-21.49	48.86	0.1272	-0.1201	-0.4761	
-0.528382	0.566934	0.573522	37.94	-21.63	50.47	0.126	-0.1383	-0.47	
-0.52094	0.584868	0.570228	38.5	-21.84	52.22	0.1216	-0.1367	-0.4638	
-0.4941	0.60207	0.558516	37.66	-23.38	53.13	0.1101	-0.1442	-0.4684	
-0.476898	0.607072	0.56303	34.58	-20.86	55.3	0.1159	-0.1412	-0.4776	
-0.474214	0.623542	0.54595	37.87	-25.55	55.37	0.09869999	-0.1607	-0.4637	
-0.457866	0.63196	0.541314	35.07	-22.4	56.14	0.0828	-0.1666	-0.4698	
-0.41663	0.645136	0.54168	37.94	-24.43	56.21	0.0931	-0.1728	-0.4714	
-0.393694	0.674782	0.533628	37.1	-26.46	57.12	0.0757	-0.1816	-0.4682	
-0.383568	0.69784	0.516182	35.28	-27.86	57.4	0.0802	-0.1908	-0.4637	
-0.359778	0.730536	0.514352	35.56	-30.45	56.91	0.07009999	-0.1982	-0.4545	
-0.32208	0.764452	0.513254	37.24	-32.2	56	0.0543	-0.2071	-0.462	
-0.273524	0.79483	0.504226	37.94	-36.82	55.72	0.0441	-0.2115	-0.4528	
-0.226798	0.80154	0.49593	36.05	-38.43	56.42	0.0383	-0.216	-0.4527	
-0.204838	0.803858	0.49898	31.92	-34.58	57.68	0.0297	-0.2265	-0.4451	
-0.175314	0.810812	0.483364	30.59	-36.47	56.91	0.021	-0.2249	-0.4557	
-0.128588	0.82838	0.488854	32.27	-38.01	55.02	0.0198	-0.2385	-0.4511	
-0.077592	0.85034	0.480802	31.15	-37.94	54.39	-0.0063	-0.2411	-0.4418	
-0.035502	0.882182	0.488854	31.36	-38.22	53.9	-0.0062	-0.2472	-0.4494	
0.001952	0.894504	0.482022	27.58	-35.91	53.62	-0.0133	-0.2608	-0.4494	
0.03965	0.88938	0.476654	22.68	-33.53	52.5	-0.0206	-0.2561	-0.4432	
0.058438	0.898652	0.4819	21.49	-29.96	51.45	-0.0525	-0.2587	-0.4476	
0.07076	0.90707	0.482388	19.46	-27.16	50.47	-0.0554	-0.2647	-0.4445	
0.101748	0.894504	0.487756	14.91	-25.06	49.35	-0.0571	-0.2555	-0.4277	
0.116754	0.897676	0.47946	10.43	-22.75	48.23	-0.0657	-0.2615	-0.4246	
0.115534	0.902556	0.48922	8.47	-20.02	46.48	-0.0758	-0.2644	-0.4352	
0.105896	0.90036	0.467016	4.06	-16.8	43.47	-0.0685	-0.2675	-0.4307	
0.10736	0.91744	0.469822	6.65	-17.01	39.27	-0.0815	-0.2719	-0.4321	
0.115534	0.931104	0.46787	5.11	-16.24	35.07	-0.0874	-0.2703	-0.4306	
0.118584	0.9516	0.475556	6.58	-14.98	31.22	-0.0947	-0.2656	-0.4274	
0.129076	0.94367	0.476654	4.41	-14.42	26.81	-0.1107	-0.273	-0.4151	
0.127856	0.939034	0.459818	0.49	-12.32	22.4	-0.1107	-0.2684	-0.4273	
0.131516	0.930982	0.466772	-0.56	-10.08	17.71	-0.1064	-0.2609	-0.4258	
0.12688	0.920978	0.469334	-1.33	-7.63	12.95	-0.1107	-0.2654	-0.4288	
0.12139	0.91683	0.470188	-1.82	-7.14	11.69	-0.115	-0.2714	-0.4288	
0.111996	0.913414	0.45994	-2.8	-5.46	10.08	-0.1121	-0.2699	-0.4243	
0.111386	0.904142	0.464332	-3.64	-4.9	8.19	-0.1209	-0.2622	-0.4242	
0.108214	0.88389	0.465674	-6.58	-4.06	7.84	-0.1179	-0.2683	-0.4334	
0.100528	0.878278	0.471652	-6.16	-5.04	7.77	-0.1179	-0.2683	-0.4334	
0.073688	0.86803	0.47275	-8.47	-3.64	9.8	-0.1223	-0.2637	-0.4272	
0.053314	0.856806	0.465674	-9.31	-5.18	11.06	-0.1223	-0.2637	-0.4272	
0.02989	0.849608	0.472872	-9.17	-5.74	12.11	-0.1269	-0.2515	-0.4256	
0.012078	0.850706	0.478606	-7.84	-8.05	13.37	-0.1269	-0.2515	-0.4256	
0.001464	0.83692	0.465186	-8.61	-8.68	15.33	-0.1325	-0.262	-0.4302	
0.004026	0.824598	0.469456	-6.72	-11.69	16.94	-0.1313	-0.2499	-0.4225	
0.005246	0.822036	0.474214	-5.74	-14.63	19.32	-0.1313	-0.2499	-0.4225	
0.007808	0.815936	0.480436	-5.53	-16.94	22.05	-0.1487	-0.2481	-0.4285	
0.01525	0.811666	0.484462	-5.74	-19.74	24.36	-0.1487	-0.2481	-0.4285	
0.036356	0.805688	0.498858	-5.88	-23.03	26.53	-0.1415	-0.2437	-0.4255	
0.055632	0.80886	0.504104	-6.09	-24.15	29.19	-0.1634	-0.2388	-0.4253	
0.084302	0.809104	0.50996	-7.91	-26.11	30.87	-0.1648	-0.2418	-0.4314	
0.10004	0.79361	0.50752	-12.67	-26.32	33.04	-0.1648	-0.2418	-0.4314	
0.130906	0.786412	0.504348	-14.28	-28.07	34.09	-0.1809	-0.2355	-0.4221	
0.167872	0.788364	0.517646	-13.44	-30.87	35.35	-0.1809	-0.234	-0.4282	
0.199348	0.786534	0.518012	-14.98	-31.85	37.31	-0.1809	-0.234	-0.4282	
0.222894	0.787876	0.510448	-17.43	-31.78	39.55	-0.1824	-0.2279	-0.4297	
0.245708	0.776652	0.493612	-21.77	-33.39	40.53	-0.2043	-0.2199	-0.4234	
0.275598	0.784338	0.496174	-22.19	-35.56	41.3	-0.2189	-0.2197	-0.4264	
0.29829	0.785802	0.482144	-25.76	-37.1	43.4	-0.2191	-0.206	-0.4172	
0.331474	0.772382	0.470676	-26.74	-40.18	42.91	-0.2293	-0.2043	-0.414	
0.353922	0.755546	0.475922	-29.33	-41.93	42.35	-0.2439	-0.1981	-0.4261	
0.362828	0.73322	0.473238	-29.47	-43.26	41.86	-0.2499	-0.1919	-0.4108	
0.404064	0.728706	0.47031	-24.64	-45.29	41.86	-0.2528	-0.1858	-0.4184	
0.432124	0.72773	0.493246	-25.41	-44.38	44.66	-0.2645	-0.1795	-0.4152	
0.462624	0.708698	0.484828	-31.36	-43.47	44.17	-0.2662	-0.1704	-0.4091	
0.460428	0.680638	0.46848	-43.47	-39.83	46.9	-0.2823	-0.158	-0.4104	
0.458964	0.677954	0.460916	-47.67	-41.93	48.51	-0.2897	-0.1518	-0.4119	
0.465674	0.685274	0.47397	-43.68	-45.22	46.62	-0.2956	-0.1426	-0.4149	
0.487146	0.668682	0.48312	-35.7	-49.28	43.05	-0.3077	-0.1165	-0.401	
0.518988	0.635742	0.491782	-34.51	-50.4	40.95	-0.3133	-0.1286	-0.404	
0.552294	0.609268	0.48922	-34.65	-50.75	38.92	-0.3221	-0.1224	-0.4055	
0.589626	0.61427	0.487146	-32.48	-51.1	34.86	-0.3313	-0.1009	-0.3808	
0.633058	0.564738	0.481656	-38.36	-47.32	32.06	-0.34	-0.0932	-0.3915	
0.655262	0.556564	0.491416	-40.46	-44.73	34.37	-0.3401	-0.0856	-0.3914	
0.68015	0.541924	0.482388	-40.32	-47.18	30.17	-0.3576	-0.0869	-0.3867	
0.686372	0.530578	0.48373	-39.76	-52.29	27.65	-0.3679	-0.0746	-0.3851	
0.729682	0.522648	0.499712	-42.35	-48.79	32.9	-0.3652	-0.07	-0.3713	
0.725778	0.538142	0.491172	-35.63	-50.54	27.65	-0.3769	-0.0638	-0.3682	
0.79117	0.479338	0.466162	-29.68	-48.44	23.31	-0.3916	-0.0575	-0.3634	
0.766892	0.472384	0.476776	-40.46	-40.6	31.5	-0.3962	-0.0407	-0.3634	
0.778482	0.453352	0.4514	-40.32	-43.26	26.18	-0.3889	-0.0393	-0.3619	
0.799954	0.441762	0.467138	-22.33	-45.78	24.01	-0.3935	-0.0315	-0.345	
0.80276	0.424316	0.481046	-21.28	-42.91	25.06	-0.3965	-0.0315	-0.3404	
0.806664	0.418094	0.44591	-26.74	-38.71	24.78	-0.398	-0.0284	-0.3388	
0.789218	0.407358	0.456646	-7.42	-38.85	25.55	-0.3996	-0.0177	-0.3342	
0.812764	0.421266	0.46848	2.52	-40.46	22.54	-0.4143	-0.0114	-0.3234	
0.794464	0.384544	0.48312	-10.43	-33.88	24.85	-0.4231	-0.0067	-0.3248	
0.798246	0.38735	0.443104	-22.26	-29.61	25.41	-0.4275	-0.0006	-0.3232	
0.808128	0.371124	0.440908	-13.72	-33.39	21.77	-0.4204	0.0053	-0.3171	
0.825452	0.36356	0.453352	-6.86	-34.02	20.58	-0.4263	0.0054	-0.3018	
0.846436	0.365634	0.429318	-13.58	-30.87	20.86	-0.4336	0.0101	-0.3109	
0.87291	0.366488	0.424682	-11.34	-33.39	19.32	-0.4307	0.0055	-0.2957	
0.913292	0.37515	0.46055	1.68	-37.1	16.24	-0.4337	0.0147	-0.3002	
0.937082	0.386252	0.443836	-4.41	-31.78	16.1	-0.4381	0.0102	-0.291	
0.928786	0.381372	0.440908	-7.21	-24.92	18.13	-0.447	0.0195	-0.2817	
0.926468	0.381372	0.437614	-10.15	-21.14	16.31	-0.4455	0.0149	-0.2756	
0.928786	0.378078	0.404064	-16.17	-16.17	13.51	-0.4425	0.0148	-0.2894	
0.919514	0.347578	0.382836	-12.74	-14.56	11.34	-0.4471	0.0286	-0.2802	
0.904874	0.333304	0.39528	1.4	-13.23	10.22	-0.4558	0.0242	-0.2786	
0.893162	0.330498	0.375272	-4.13	-7.77	9.94	-0.4487	0.0302	-0.2694	
0.892186	0.318298	0.346114	-9.38	-4.76	8.4	-0.4431	0.0468	-0.2694	
0.890722	0.304024	0.351238	-1.68	-6.3	5.53	-0.4459	0.0438	-0.2786	
0.914512	0.293898	0.342454	1.4	-4.76	3.78	-0.4546	0.0364	-0.2679	
0.919026	0.275354	0.333304	2.94	-5.11	2.1	-0.4546	0.0379	-0.2694	
0.915366	0.279502	0.331718	5.95	-5.46	1.96	-0.4546	0.0424	-0.2724	
0.916342	0.295728	0.331108	7.84	-5.6	1.68	-0.4604	0.0394	-0.277	
0.933788	0.291824	0.33489	8.19	-4.48	1.4	-0.4516	0.0333	-0.2679	
0.945988	0.282186	0.323666	6.72	-3.71	0.98	-0.456	0.0333	-0.2648	
0.93391	0.29219	0.339648	10.15	-3.57	2.45	-0.4575	0.0425	-0.2724	
0.934154	0.304756	0.332694	4.55	-0.77	2.52	-0.459	0.0425	-0.2663	
0.926102	0.310612	0.340136	3.71	1.61	3.08	-0.4589	0.0364	-0.2739	
0.929884	0.317688	0.351116	3.85	2.03	1.89	-0.4546	0.0379	-0.274	
0.942816	0.318054	0.352092	1.33	4.2	0.56	-0.4489	0.0424	-0.2648	
0.95587	0.318176	0.35563	1.54	5.95	-0.42	-0.4502	0.0302	-0.2648	
0.961116	0.326838	0.374662	1.54	8.33	-0.77	-0.4618	0.0364	-0.2709	
0.96136	0.321958	0.374662	-3.15	12.95	-1.47	-0.4443	0.0286	-0.2695	
0.95465	0.313906	0.372954	-5.46	16.59	-2.73	-0.4459	0.0393	-0.2679	
0.96136	0.327814	0.370514	-6.51	18.9	-4.69	-0.4414	0.0346	-0.2787	
0.960628	0.335134	0.381372	-9.87	21.7	-6.44	-0.4545	0.0348	-0.2755	
0.944158	0.335988	0.387716	-13.02	24.64	-8.4	-0.4501	0.0393	-0.2862	
0.936594	0.330254	0.38674	-14.63	27.44	-10.78	-0.4413	0.0316	-0.2833	
0.926224	0.33123	0.389546	-14.14	29.89	-13.09	-0.4371	0.0391	-0.2848	
0.913536	0.32818	0.404674	-12.53	31.15	-15.89	-0.4398	0.033	-0.294	
0.917318	0.323544	0.402112	-12.6	34.51	-18.76	-0.4341	0.036	-0.2864	
0.917562	0.316102	0.4087	-7.7	35.98	-21.07	-0.4266	0.0297	-0.3063	
0.908656	0.319762	0.42822	-2.94	37.31	-22.61	-0.4309	0.0283	-0.3094	
0.895114	0.329156	0.434076	-5.11	40.46	-23.52	-0.4323	0.0268	-0.3124	
0.876814	0.331596	0.444934	-7.28	42.63	-24.92	-0.4206	0.019	-0.3079	
0.864004	0.338306	0.454694	-4.41	44.38	-26.32	-0.4307	0.0191	-0.3247	
0.86071	0.333548	0.464454	-4.34	46.48	-26.88	-0.4161	0.0143	-0.3263	
0.840458	0.342698	0.48251	1.19	47.88	-26.04	-0.4073	0.0081	-0.331	
0.82106	0.357338	0.492392	6.86	49.07	-26.67	-0.4087	0.0157	-0.3509	
0.801296	0.3599	0.503738	9.66	51.66	-27.37	-0.3984	0.011	-0.351	
0.781532	0.375028	0.497272	10.99	52.22	-28.35	-0.3941	0.0094	-0.3495	
0.763598	0.387106	0.506544	16.73	51.24	-30.03	-0.3894	-0.0028	-0.3618	
0.728828	0.427	0.528382	20.51	52.5	-31.57	-0.3952	-0.0042	-0.3663	
0.70028	0.457988	0.519598	20.16	53.83	-32.62	-0.3805	-0.0106	-0.3817	
0.673928	0.463722	0.5429	20.3	53.76	-33.32	-0.3673	-0.0168	-0.3773	
0.645014	0.49105	0.535824	24.57	52.57	-35.63	-0.3686	-0.029	-0.3849	
0.626348	0.503738	0.55754	29.4	49.56	-37.8	-0.3583	-0.0307	-0.3927	
0.620126	0.519964	0.561688	29.4	50.75	-39.41	-0.348	-0.0369	-0.405	
0.600484	0.52582	0.587552	30.59	51.73	-41.09	-0.3421	-0.0461	-0.4035	
0.596336	0.534116	0.612562	21.63	53.97	-42.63	-0.3477	-0.0552	-0.4112	
0.567666	0.53924	0.58621	21.42	56.35	-43.96	-0.3287	-0.0646	-0.4129	
0.557418	0.547536	0.620858	25.41	55.58	-44.94	-0.3242	-0.0692	-0.4145	
0.513376	0.554368	0.629886	25.06	56.42	-46.13	-0.3081	-0.0786	-0.4161	
0.487146	0.58194	0.654164	32.55	55.37	-47.6	-0.3035	-0.09079999	-0.4254	
0.44408	0.60451	0.657458	27.02	59.36	-47.67	-0.289	-0.088	-0.4255	
0.402234	0.616588	0.6771	20.09	59.15	-48.93	-0.28	-0.1033	-0.4287	
0.366	0.64782	0.676612	16.17	60.55	-47.53	-0.277	-0.1049	-0.4394	
0.295484	0.629764	0.657702	18.55	62.37	-42.49	-0.2565	-0.1174	-0.4396	
0.316712	0.62464	0.649284	21.21	63.84	-49.63	-0.2593	-0.122	-0.4503	
0.2867	0.612928	0.641964	23.52	65.38	-48.09	-0.2288	-0.1254	-0.4413	
0.233264	0.623054	0.624762	24.01	66.29	-46.62	-0.2316	-0.1269	-0.452	
0.192394	0.64782	0.611952	29.19	64.12	-45.71	-0.2155	-0.1333	-0.4613	
0.159698	0.654042	0.63196	30.31	60.97	-46.27	-0.2138	-0.1454	-0.4614	
0.111752	0.651114	0.63135	28.49	59.15	-45.15	-0.2008	-0.1426	-0.4599	
0.114436	0.675392	0.612928	15.54	59.85	-41.79	-0.1803	-0.152	-0.4617	
0.063684	0.678808	0.613904	8.12	56.77	-42.56	-0.17	-0.1613	-0.4602	
0.016348	0.675758	0.597434	2.87	55.02	-40.53	-0.1627	-0.1675	-0.4634	
-0.011102	0.656482	0.593774	2.66	50.68	-35.42	-0.1336	-0.1649	-0.4697	
-0.03599	0.685274	0.57828	7.49	44.1	-32.27	-0.1366	-0.1557	-0.4773	
-0.049288	0.698938	0.601338	3.64	40.46	-29.82	-0.1219	-0.1726	-0.4652	
-0.055998	0.69601	0.60878	2.45	36.75	-27.3	-0.1045	-0.1699	-0.4714	
-0.063074	0.713456	0.602924	6.86	31.78	-24.64	-0.1015	-0.1684	-0.4837	
-0.063562	0.720898	0.616344	5.95	27.37	-22.68	-0.1074	-0.1698	-0.4714	
-0.068198	0.726144	0.615734	1.96	24.64	-20.37	-0.0857	-0.1626	-0.47	
-0.069662	0.730414	0.619394	3.43	20.23	-19.11	-0.0898	-0.1762	-0.4777	
-0.074054	0.737612	0.62525	3.29	17.85	-17.43	-0.0839	-0.1793	-0.4808	
-0.06954	0.748714	0.639646	5.95	14.84	-16.59	-0.0781	-0.1824	-0.4793	
-0.06405	0.752862	0.643306	5.95	13.37	-16.45	-0.0725	-0.1689	-0.4793	
-0.05063	0.756766	0.651236	8.47	12.81	-17.22	-0.07669999	-0.1779	-0.4778	
-0.01769	0.766404	0.654042	11.48	13.02	-18.34	-0.0796	-0.1794	-0.4793	
0.00854	0.776286	0.65636	9.73	13.72	-19.04	-0.0665	-0.1826	-0.4794	
0.016958	0.7869	0.6527	8.12	15.68	-19.25	-0.0651	-0.1811	-0.4672	
0.011834	0.80093	0.637572	3.36	18.69	-19.46	-0.0707	-0.1947	-0.4687	
0.008662	0.815936	0.63074	-0.7	21.56	-20.58	-0.0504	-0.1904	-0.475	
-0.005856	0.831674	0.623908	-4.69	24.85	-21.49	-0.0475	-0.1905	-0.475	
-0.02135	0.834358	0.616954	-8.26	27.93	-22.05	-0.0475	-0.189	-0.475	
-0.031964	0.833626	0.609634	-11.27	31.43	-23.31	-0.0388	-0.1846	-0.4857	
-0.041114	0.83021	0.589504	-15.12	32.13	-25.48	-0.0375	-0.1785	-0.4766	
-0.05307	0.829234	0.604388	-16.59	32.06	-26.88	-0.0243	-0.1787	-0.4843	
-0.07808	0.839848	0.60146	-18.2	33.46	-27.65	-0.02	-0.1757	-0.4859	
-0.081618	0.813374	0.611952	-20.16	35.63	-28.7	-0.0156	-0.1804	-0.489	
-0.083082	0.788364	0.604998	-24.5	36.89	-29.61	-0.004	-0.176	-0.4875	
-0.096136	0.752008	0.617808	-23.87	35.98	-30.59	0.0042	-0.1533	-0.4768	
-0.119438	0.720898	0.643672	-20.86	34.02	-30.8	0.0104	-0.1731	-0.4845	
-0.145668	0.707722	0.651724	-21.21	35.14	-30.1	0.0219	-0.1612	-0.4953	
-0.188246	0.709552	0.667096	-18.9	35.63	-30.87	0.0231	-0.1475	-0.4953	
-0.244244	0.704184	0.659776	-21.35	36.19	-32.41	0.0276	-0.1521	-0.4953	
-0.288896	0.69479	0.647088	-19.46	34.93	-34.09	0.0392	-0.1538	-0.4893	

-0.313418	0.683566	0.646722	-13.93	33.53	-38.85	0.0492	-0.1448	-0.4909	
-0.327936	0.668316	0.63867	-12.25	33.04	-41.44	0.052	-0.1327	-0.4908	
-0.29829	0.705892	0.676612	-0.7	29.96	-46.62	0.06659999	-0.139	-0.4894	
-0.354044	0.645136	0.61427	-36.82	40.46	-45.92	0.0765	-0.1209	-0.491	
-0.394914	0.673806	0.655262	-16.52	42.84	-47.18	0.0764	-0.1133	-0.4864	
-0.389546	0.590358	0.623542	-37.17	40.25	-49.42	0.091	-0.1181	-0.488	
-0.409432	0.561566	0.628422	-29.68	36.54	-51.17	0.0981	-0.1106	-0.4911	
-0.425292	0.529358	0.622688	-32.48	33.25	-53.55	0.1011	-0.1107	-0.4957	
-0.450302	0.52033	0.641476	-32.41	31.01	-56.35	0.1182	-0.0942	-0.479	
-0.468602	0.488122	0.618174	-37.73	29.47	-56.7	0.1122	-0.07889999	-0.4896	
-0.483852	0.470188	0.628666	-36.26	27.86	-56.77	0.1267	-0.0761	-0.4836	
-0.504714	0.448228	0.645746	-34.02	24.43	-55.02	0.1368	-0.0717	-0.4898	
-0.533994	0.439932	0.660996	-34.58	23.24	-53.76	0.131	-0.0685	-0.4882	
-0.55266	0.42822	0.678564	-35	24.92	-50.33	0.1365	-0.0534	-0.4836	
-0.566568	0.40199	0.693936	-33.74	25.97	-48.02	0.1422	-0.0444	-0.4867	
-0.584502	0.384788	0.693814	-32.97	25.06	-44.87	0.1422	-0.0353	-0.4989	
-0.590846	0.371368	0.704062	-30.03	22.61	-42.77	0.1522	-0.0309	-0.4928	
-0.59536	0.348066	0.709552	-31.36	24.57	-38.99	0.155	-0.0263	-0.4836	
-0.601094	0.3416	0.709552	-30.17	24.5	-36.4	0.1608	-0.0249	-0.4821	
-0.622688	0.322934	0.707478	-28.77	24.64	-33.88	0.1724	-0.0251	-0.4776	
-0.62098	0.30622	0.70638	-29.4	27.65	-28.28	0.175	-0.0008	-0.4837	
-0.625372	0.298534	0.702354	-25.27	26.18	-26.25	0.1791	0.0067	-0.4654	
-0.63928	0.272304	0.691252	-28	27.58	-23.66	0.1763	0.0082	-0.476	
-0.662094	0.25498	0.689178	-25.27	26.95	-21.98	0.182	0.0127	-0.4684	
-0.686494	0.244244	0.675148	-24.43	28	-20.44	0.1791	0.009699999	-0.4669	
-0.701256	0.23912	0.681736	-24.29	27.72	-18.55	0.1934	0.0262	-0.4654	
-0.726388	0.238022	0.665998	-24.85	26.46	-17.15	0.2007	0.0186	-0.4548	
-0.748958	0.230946	0.649894	-25.27	26.53	-15.96	0.1947	0.0339	-0.4547	
-0.767014	0.21289	0.63989	-25.69	24.22	-15.12	0.2033	0.0368	-0.4532	
-0.787022	0.1891	0.63074	-25.76	23.1	-14.49	0.2046	0.0504	-0.4501	
-0.807396	0.170678	0.6222	-24.22	19.53	-14.77	0.2162	0.0533	-0.4517	
-0.807518	0.160796	0.624274	-20.51	16.52	-15.33	0.2117	0.0549	-0.4456	
-0.805932	0.1403	0.623908	-18.13	13.51	-15.54	0.2058	0.0656	-0.4547	
-0.795684	0.130174	0.638426	-14.56	9.24	-15.05	0.2146	0.0639	-0.4563	
-0.79117	0.132736	0.642452	-11.48	6.79	-14	0.2159	0.067	-0.4456	
-0.795562	0.127124	0.636108	-11.9	5.95	-12.32	0.2146	0.0594	-0.4502	
-0.81008	0.128832	0.642574	-7.14	4.97	-11.62	0.2201	0.0821	-0.4517	
-0.815692	0.11407	0.640134	-7.07	5.32	-10.78	0.2173	0.073	-0.4486	
-0.797514	0.105896	0.640378	-5.25	2.66	-9.8	0.2159	0.0716	-0.4455	
-0.783606	0.102236	0.651236	-3.85	0.7	-7.98	0.2173	0.0731	-0.441	
-0.785436	0.10736	0.656116	-1.4	-0.84	-5.95	0.2189	0.0685	-0.4517	
-0.80276	0.11163	0.645868	-1.54	0	-4.2	0.2144	0.0716	-0.4455	
-0.811178	0.114924	0.64477	-0.14	0.77	-2.73	0.2173	0.0731	-0.444	
-0.815082	0.120536	0.642696	2.59	-0.56	-2.59	0.2159	0.0716	-0.4455	
-0.80093	0.123342	0.640988	1.61	-2.31	-2.1	0.2159	0.0715	-0.4517	
-0.773724	0.1281	0.6466	3.99	-2.52	-0.84	0.2114	0.0747	-0.4379	
-0.76006	0.134932	0.647332	4.13	-3.08	0.63	0.2128	0.0777	-0.4394	
-0.766648	0.14457	0.649406	5.04	-2.52	2.8	0.2099	0.0853	-0.447	
-0.769332	0.152988	0.649894	4.2	-1.75	5.04	0.21	0.0747	-0.444	
-0.76799	0.151768	0.655384	3.29	-1.19	6.79	0.2101	0.07009999	-0.447	
-0.783484	0.151158	0.655262	3.15	-2.31	7.77	0.2043	0.0702	-0.4516	
-0.793	0.158356	0.649284	5.39	-4.13	8.33	0.2189	0.0684	-0.4532	
-0.803736	0.158966	0.652944	6.02	-5.74	9.73	0.2115	0.0731	-0.447	
-0.809226	0.163846	0.651236	7.07	-10.01	10.71	0.2232	0.0684	-0.4548	
-0.807518	0.168482	0.660508	9.17	-11.97	12.39	0.2146	0.0609	-0.4548	
-0.798246	0.163358	0.650748	11.2	-16.45	13.02	0.203	0.0611	-0.4485	
-0.777628	0.170312	0.677466	15.82	-16.73	15.33	0.2103	0.0595	-0.4517	
-0.765672	0.163846	0.677344	15.61	-16.66	18.06	0.1986	0.0596	-0.4531	
-0.763964	0.165432	0.666852	17.29	-18.06	20.58	0.2031	0.0489	-0.4455	
-0.752374	0.172264	0.672342	16.03	-18.76	24.15	0.2061	0.0473	-0.4593	
-0.747494	0.182634	0.676734	19.6	-18.13	26.32	0.1945	0.0505	-0.4699	
-0.734196	0.190076	0.675514	20.72	-18.2	27.23	0.196	0.0475	-0.4669	
-0.737002	0.197518	0.665266	22.19	-18.76	28.42	0.1917	0.0399	-0.4638	
-0.732488	0.214476	0.660874	25.83	-21.07	29.19	0.1891	0.0248	-0.4746	
-0.705404	0.220454	0.668194	27.3	-21.21	30.03	0.1788	0.034	-0.4668	
-0.69845	0.230458	0.66429	28.28	-20.37	31.01	0.192	0.0202	-0.4639	
-0.68198	0.255346	0.661972	30.66	-23.59	31.15	0.1777	0.0067	-0.4669	
-0.688324	0.287676	0.663436	31.71	-25.55	31.57	0.1892	0.0111	-0.4639	
-0.68686	0.310978	0.65148	32.41	-27.02	31.22	0.1808	-0.0054	-0.4715	
-0.669536	0.317932	0.670756	33.11	-28.14	31.64	0.1708	-0.0144	-0.4745	
-0.629154	0.348676	0.682346	36.68	-29.12	31.71	0.1694	-0.0144	-0.4806	
-0.61305	0.376736	0.682468	36.68	-29.75	32.97	0.1593	-0.0173	-0.4898	
-0.60085	0.40199	0.674172	35.21	-27.72	34.51	0.1594	-0.0324	-0.4745	
-0.57462	0.412238	0.678442	35.21	-28.14	35.7	0.1538	-0.0445	-0.4776	
-0.545706	0.419192	0.674782	34.79	-27.37	36.96	0.151	-0.0506	-0.4837	
-0.52948	0.434808	0.66917	35.84	-26.25	38.71	0.1425	-0.0596	-0.4898	
-0.52399	0.453718	0.666852	36.96	-24.78	40.74	0.1441	-0.0748	-0.4852	
-0.509838	0.475556	0.657824	38.29	-25.48	41.93	0.128	-0.07	-0.4805	
-0.49532	0.487634	0.65819	38.71	-25.76	43.4	0.1297	-0.0822	-0.4913	
-0.491416	0.510814	0.659044	40.18	-26.18	44.8	0.1197	-0.0942	-0.4882	
-0.494832	0.534604	0.649162	40.46	-25.41	45.92	0.1181	-0.0941	-0.4729	
-0.487756	0.54595	0.640134	40.53	-25.2	46.83	0.1155	-0.1063	-0.4866	
-0.47214	0.565348	0.636596	41.51	-28.07	48.23	0.1169	-0.1078	-0.4836	
-0.44408	0.579988	0.632814	41.65	-29.26	48.3	0.0998	-0.1243	-0.4866	
-0.419558	0.587674	0.626958	42.35	-29.26	49.49	0.1026	-0.1228	-0.4789	
-0.40016	0.603046	0.610488	43.68	-30.94	50.33	0.0738	-0.1376	-0.4834	
-0.371978	0.614392	0.605608	45.85	-31.71	51.8	0.0812	-0.1468	-0.4865	
-0.346358	0.644526	0.595116	46.34	-33.32	52.5	0.0739	-0.1512	-0.4727	
-0.320128	0.682834	0.583526	47.39	-35.21	52.5	0.0624	-0.1617	-0.4635	
-0.272792	0.718336	0.564128	47.6	-36.68	51.87	0.0539	-0.1692	-0.4833	
-0.22265	0.737124	0.558882	46.34	-36.54	52.5	0.0568	-0.1738	-0.4726	
-0.18483	0.745908	0.556442	44.24	-36.47	53.97	0.0396	-0.1918	-0.4772	
-0.144082	0.765916	0.556564	43.12	-36.75	54.25	0.0281	-0.2022	-0.4649	
-0.09942999	0.77409	0.550342	40.53	-36.89	54.46	0.0179	-0.196	-0.4755	
-0.064172	0.802028	0.547536	39.2	-35.07	55.09	0.0137	-0.2081	-0.4724	
-0.025742	0.830332	0.542656	37.87	-34.23	54.95	0.0094	-0.2247	-0.4556	
-0.004636	0.84912	0.531554	33.32	-30.45	54.32	-0.0005	-0.2291	-0.4617	
0.023912	0.868396	0.514108	27.65	-25.83	51.73	-0.0152	-0.2243	-0.4585	
0.045018	0.88816	0.504592	26.25	-24.57	49.14	-0.0268	-0.2317	-0.4416	
0.059292	0.900482	0.497516	22.26	-21.77	47.6	-0.0353	-0.2423	-0.4538	
0.060146	0.899262	0.48617	17.64	-19.53	45.64	-0.0367	-0.2468	-0.4523	
0.067466	0.905362	0.49166	16.87	-19.53	42.98	-0.0514	-0.2435	-0.4323	
0.067832	0.90768	0.490806	15.19	-19.25	39.9	-0.047	-0.2406	-0.4491	
0.066734	0.89853	0.491904	10.92	-18.13	37.17	-0.0586	-0.2449	-0.4445	
0.059414	0.908656	0.483852	10.36	-18.48	33.6	-0.06	-0.2434	-0.4429	
0.061488	0.914024	0.483242	8.82	-18.62	29.68	-0.0672	-0.2494	-0.4429	
0.070882	0.912072	0.479094	6.79	-19.39	25.34	-0.0731	-0.2462	-0.4398	
0.07076	0.91683	0.483608	6.79	-19.95	21.35	-0.0847	-0.2491	-0.4412	
0.05002	0.925248	0.50081	7.07	-17.71	18.48	-0.0817	-0.2492	-0.4443	
0.058316	0.925614	0.487634	7.84	-15.12	14.91	-0.0832	-0.2522	-0.4443	
0.069296	0.909876	0.49471	7.63	-13.58	11.97	-0.0963	-0.2535	-0.4304	
0.078446	0.893162	0.489098	7.77	-12.32	10.36	-0.1021	-0.2488	-0.4365	
0.077836	0.880108	0.484462	6.23	-11.48	9.73	-0.09779999	-0.2534	-0.4289	
0.066612	0.879132	0.499834	6.3	-11.06	9.8	-0.1036	-0.2488	-0.4334	
0.04209	0.876326	0.483852	3.78	-10.57	9.87	-0.1036	-0.2533	-0.4227	
0.033062	0.8662	0.478118	2.87	-11.2	10.57	-0.1036	-0.2458	-0.4365	
0.02074	0.858392	0.472994	1.89	-12.74	11.55	-0.1007	-0.2549	-0.4289	
0.008784	0.86193	0.471164	1.68	-13.58	12.6	-0.1122	-0.2608	-0.4303	
-0.000488	0.855708	0.468236	1.4	-14.35	13.58	-0.1079	-0.2548	-0.4319	
0.007198	0.837774	0.466162	3.15	-15.33	15.19	-0.1094	-0.2533	-0.4319	
0.02013	0.825818	0.453474	3.64	-16.24	17.5	-0.1193	-0.2668	-0.4334	
0.037942	0.84058	0.467016	5.32	-18.97	20.09	-0.121	-0.2561	-0.4226	
0.069784	0.844972	0.48068	1.4	-19.32	25.62	-0.137	-0.2559	-0.424	
0.065148	0.833626	0.47885	-4.48	-19.04	29.19	-0.1413	-0.2589	-0.4255	
0.066124	0.82838	0.477874	-6.58	-21.42	31.08	-0.1386	-0.2513	-0.4179	
0.074054	0.82777	0.474702	-9.66	-21.91	33.04	-0.1516	-0.2511	-0.4254	
0.10187	0.829112	0.487878	-8.12	-24.01	33.6	-0.1487	-0.2511	-0.4224	
0.13115	0.83631	0.473116	-10.43	-23.59	35.35	-0.1618	-0.251	-0.4223	
0.158234	0.831552	0.474336	-11.69	-25.69	36.96	-0.1721	-0.2387	-0.4253	
0.179096	0.824842	0.468114	-13.51	-26.88	38.15	-0.1706	-0.2372	-0.4344	
0.210816	0.813984	0.468602	-13.93	-29.05	39.2	-0.1866	-0.2369	-0.4328	
0.219722	0.803248	0.463234	-18.34	-30.17	40.81	-0.1853	-0.2293	-0.4251	
0.22814	0.805322	0.462136	-18.62	-32.2	40.95	-0.2071	-0.2305	-0.425	
0.24156	0.803248	0.443714	-24.15	-34.37	41.02	-0.2071	-0.2245	-0.4295	
0.272304	0.790682	0.44164	-25.76	-37.8	40.39	-0.2175	-0.2137	-0.4218	
0.325252	0.788364	0.440786	-29.61	-41.51	40.53	-0.2263	-0.2075	-0.4309	
0.35868	0.78202	0.444934	-35.63	-42.98	41.16	-0.2278	-0.2059	-0.4186	
0.39772	0.765428	0.461282	-36.54	-45.5	42.07	-0.2469	-0.1965	-0.4169	
0.432612	0.758108	0.459696	-37.24	-45.85	42.21	-0.2468	-0.1935	-0.4261	
0.460672	0.740418	0.465064	-36.68	-47.18	37.59	-0.2615	-0.1826	-0.4229	
0.44957	0.690032	0.471042	-32.76	-48.79	36.12	-0.2631	-0.1765	-0.4244	
0.447984	0.69479	0.480314	-34.3	-45.57	43.33	-0.2704	-0.1734	-0.4197	
0.460184	0.69662	0.474458	-41.44	-44.66	45.5	-0.2894	-0.1715	-0.412	
0.467382	0.689788	0.472628	-40.81	-48.02	44.59	-0.2985	-0.1471	-0.4072	
0.504836	0.683688	0.481778	-37.45	-51.1	43.68	-0.3057	-0.1515	-0.4072	
0.521916	0.670024	0.490074	-40.53	-50.12	42.7	-0.3117	-0.1393	-0.404	
0.549366	0.654286	0.501176	-46.27	-46.76	43.12	-0.3119	-0.1226	-0.4025	
0.574376	0.630496	0.515938	-40.95	-44.66	40.32	-0.3294	-0.1208	-0.3977	
0.5978	0.60451	0.519598	-41.3	-44.8	36.68	-0.3384	-0.1054	-0.3915	
0.626226	0.566568	0.527284	-45.57	-42.35	35.91	-0.3472	-0.0992	-0.3899	
0.64721	0.555832	0.52765	-47.95	-42.77	35.77	-0.3445	-0.0856	-0.3929	
0.67039	0.534482	0.51972	-50.33	-43.19	34.65	-0.3548	-0.0809	-0.3867	
0.681492	0.541924	0.53009	-47.11	-44.8	32.83	-0.3665	-0.0761	-0.3851	
0.68808	0.511546	0.525088	-45.29	-44.87	30.8	-0.3668	-0.0563	-0.3789	
0.71614	0.50813	0.531188	-36.19	-45.57	30.94	-0.3697	-0.0623	-0.3667	
0.720898	0.495564	0.53131	-38.5	-44.87	28.14	-0.3846	-0.0363	-0.3696	
0.7381	0.47641	0.509594	-39.48	-41.09	28.42	-0.3919	-0.0286	-0.3679	
0.759084	0.454328	0.5124	-31.5	-41.51	27.65	-0.3949	-0.027	-0.3664	
0.76311	0.43493	0.513498	-25.41	-41.44	26.18	-0.4053	-0.0192	-0.351	
0.774456	0.407724	0.494466	-28.56	-36.12	26.04	-0.401	-0.0132	-0.351	
0.77104	0.410896	0.463478	-37.87	-31.36	24.01	-0.401	-0.0132	-0.3464	
0.820572	0.366244	0.477996	-20.51	-35.98	19.67	-0.4056	-0.0025	-0.3372	
0.809958	0.401624	0.480436	-17.57	-35.28	17.22	-0.4057	0.005	-0.3387	
0.838018	0.365146	0.460306	-17.71	-36.75	9.03	-0.41	-0.0009	-0.3325	
0.83021	0.382348	0.463966	-2.31	-34.02	18.76	-0.4218	0.0068	-0.3278	
0.838994	0.350384	0.45872	-10.15	-28.84	20.16	-0.419	0.0129	-0.3202	
0.841922	0.352824	0.429806	-9.52	-26.6	19.25	-0.4263	0.013	-0.3247	
0.83936	0.333914	0.425902	-12.04	-26.46	18.55	-0.4321	0.0131	-0.3125	
0.843386	0.337696	0.438712	-5.95	-26.18	18.62	-0.4352	0.0207	-0.3124	
0.850096	0.334158	0.42395	-11.27	-22.61	16.8	-0.4324	0.0283	-0.3032	
0.845826	0.327814	0.424316	-7.21	-21.98	15.82	-0.4367	0.0284	-0.3124	
0.847778	0.330498	0.427732	-6.65	-21.84	14.7	-0.4369	0.0345	-0.2986	
0.839116	0.31598	0.411506	-12.81	-20.23	13.09	-0.4355	0.0375	-0.294	
0.850706	0.302682	0.414068	-10.29	-21.35	10.92	-0.4399	0.0361	-0.2924	
0.870592	0.30317	0.406626	-9.87	-20.86	10.22	-0.4414	0.0437	-0.2985	
0.887428	0.301096	0.403332	-7.63	-21.49	8.96	-0.4371	0.0391	-0.2817	
0.909998	0.313296	0.40687	-3.71	-20.44	8.4	-0.4444	0.0453	-0.2847	
0.923906	0.312442	0.416752	-2.73	-18.2	8.26	-0.4445	0.0468	-0.2786	
0.935618	0.304512	0.41297	-6.44	-14	9.03	-0.4429	0.0377	-0.2771	
0.943792	0.29585	0.404796	-7.56	-11.41	9.24	-0.4429	0.0377	-0.2725	
0.952454	0.28975	0.39833	-6.79	-9.17	9.45	-0.4548	0.0515	-0.2739	
0.951844	0.283162	0.39406	-7.56	-6.3	10.08	-0.4488	0.0438	-0.2755	
0.951478	0.285236	0.389546	-7.28	-5.18	9.66	-0.4592	0.0592	-0.2723	
0.965264	0.278282	0.388082	-9.66	-1.4	9.1	-0.4549	0.0637	-0.2708	
0.966972	0.272426	0.392352	-9.24	2.31	8.26	-0.4519	0.0591	-0.2785	
0.967826	0.256444	0.390034	-10.22	5.46	7.14	-0.4447	0.065	-0.2801	
0.964776	0.24827	0.391498	-4.48	7.84	6.65	-0.439	0.065	-0.2648	
0.974902	0.229116	0.386008	-4.34	10.5	4.55	-0.4463	0.0636	-0.2617	
0.966728	0.228506	0.38674	-1.68	13.16	3.71	-0.4417	0.0544	-0.2771	
0.960872	0.229848	0.395036	-0.77	14.63	1.33	-0.452	0.0591	-0.2678	
0.960628	0.227774	0.3965	-1.96	17.92	-0.14	-0.4564	0.0698	-0.2861	
0.958676	0.220454	0.392596	-1.75	20.3	-2.1	-0.4432	0.0635	-0.2847	
0.968192	0.217892	0.391376	0.63	22.26	-4.13	-0.436	0.0679	-0.2924	
0.962946	0.222528	0.397232	4.13	23.24	-5.95	-0.4345	0.0664	-0.2909	
0.962214	0.244488	0.397842	5.39	24.71	-7.7	-0.433	0.0633	-0.2924	
0.948794	0.255468	0.420412	8.33	27.37	-8.47	-0.4359	0.0633	-0.2985	
0.937936	0.26291	0.437492	6.86	30.59	-9.66	-0.4285	0.0541	-0.2955	
0.93147	0.26169	0.442006	5.32	34.51	-10.57	-0.4316	0.0678	-0.2985	
0.917684	0.268522	0.44591	6.02	36.33	-12.39	-0.4285	0.0586	-0.3078	
0.918416	0.27084	0.468968	8.47	38.08	-14.14	-0.4311	0.0389	-0.3109	
0.903776	0.276086	0.475312	6.58	40.95	-16.17	-0.4195	0.0494	-0.3186	
0.88938	0.279502	0.48068	3.78	44.94	-17.85	-0.4181	0.0524	-0.3231	
0.873886	0.30439	0.493246	7.14	45.78	-20.37	-0.4078	0.0476	-0.3339	
0.850218	0.3233	0.501298	6.51	47.67	-23.52	-0.412	0.0431	-0.3385	
0.820816	0.330742	0.496906	4.55	51.87	-26.39	-0.3973	0.0337	-0.3509	
0.80337	0.325496	0.516548	9.24	53.27	-30.31	-0.3915	0.0382	-0.3586	
0.796172	0.363072	0.532652	15.75	54.6	-33.32	-0.3944	0.0383	-0.3524	
0.77836	0.364536	0.537776	10.43	58.24	-37.24	-0.384	0.0274	-0.3663	
0.76799	0.370148	0.544974	16.66	59.15	-39.2	-0.384	0.0244	-0.3648	
0.73505	0.399306	0.558882	21.28	61.39	-40.32	-0.3662	0.0058	-0.3818	
0.721996	0.40321	0.56608	23.31	64.05	-42.49	-0.3734	0.009	-0.3879	
0.701256	0.403576	0.574376	26.88	64.05	-43.68	-0.3573	-0.0033	-0.3895	
0.67344	0.427854	0.565714	29.4	63.28	-43.33	-0.3528	-0.0065	-0.4003	
0.647088	0.448472	0.553758	29.19	62.16	-43.89	-0.3411	-0.0051	-0.4111	
0.61	0.473604	0.575108	40.53	56.21	-45.29	-0.3206	-0.0191	-0.4097	
0.585966	0.536068	0.602314	46.2	53.55	-46.06	-0.3262	-0.0282	-0.4189	
0.573034	0.509716	0.612562	31.15	61.53	-45.36	-0.3188	-0.0404	-0.4114	
0.53314	0.55815	0.604876	26.88	61.32	-44.94	-0.3041	-0.0483	-0.4268	
0.488	0.567422	0.62464	26.88	62.02	-43.33	-0.3024	-0.059	-0.4314	
0.463966	0.576816	0.663314	22.19	62.86	-43.26	-0.2877	-0.0698	-0.4361	
0.39955	0.610366	0.673562	21.63	63.84	-41.23	-0.276	-0.0746	-0.4408	
0.366366	0.614026	0.676002	19.74	62.09	-42.7	-0.2643	-0.0793	-0.4394	
0.320128	0.596458	0.66917	23.59	60.97	-37.52	-0.2524	-0.0962	-0.4441	
0.30744	0.622688	0.679052	29.12	60.41	-44.03	-0.2539	-0.0932	-0.4533	
0.293166	0.59719	0.648552	40.04	56.42	-47.95	-0.2261	-0.1027	-0.4551	
0.240584	0.638792	0.680394	52.29	53.83	-48.65	-0.2171	-0.1196	-0.4643	
0.23058	0.64355	0.687592	48.79	55.65	-47.6	-0.2053	-0.1274	-0.469	
0.168116	0.665144	0.648186	28.7	60.27	-43.26	-0.1964	-0.1427	-0.463	
0.130784	0.676856	0.637084	26.39	63.56	-39.13	-0.1717	-0.14	-0.4678	
0.157014	0.675026	0.656482	18.55	62.44	-43.19	-0.1776	-0.1339	-0.4708	
0.108702	0.682956	0.629398	8.54	63.21	-44.8	-0.1556	-0.1479	-0.4756	
0.066124	0.673196	0.627568	-0.49	60.13	-45.15	-0.1438	-0.1541	-0.4849	
0.045384	0.659166	0.609024	-3.22	60.97	-42.42	-0.1337	-0.1618	-0.4681	
0.015738	0.661728	0.613782	-7.7	58.52	-41.58	-0.1191	-0.1545	-0.482	
-0.003172	0.661728	0.61671	-2.73	57.33	-38.92	-0.1132	-0.1622	-0.479	
-0.03233	0.665266	0.62647	2.45	53.27	-37.24	-0.1003	-0.1518	-0.4867	
-0.06832	0.654042	0.616466	4.41	48.79	-34.44	-0.0885	-0.1565	-0.4899	
-0.074176	0.656116	0.628666	6.65	42.7	-31.85	-0.0828	-0.155	-0.4792	
-0.08967	0.669902	0.625982	7.21	35.84	-29.61	-0.0697	-0.1583	-0.4839	
-0.096502	0.68564	0.654408	5.53	31.5	-27.02	-0.0638	-0.1629	-0.4794	
-0.11163	0.691008	0.650016	4.2	28.35	-24.92	-0.0593	-0.1645	-0.4947	
-0.11407	0.693814	0.642696	0.49	24.78	-23.66	-0.0537	-0.16	-0.484	
-0.130174	0.696498	0.64599	-0.63	21.35	-21.7	-0.0594	-0.163	-0.4947	
-0.138958	0.710162	0.641964	-0.49	18.34	-21.28	-0.0492	-0.1647	-0.4902	
-0.137738	0.71248	0.649406	2.59	16.45	-21.14	-0.0405	-0.1678	-0.4872	
-0.133956	0.705892	0.645746	2.52	14.77	-21.07	-0.0449	-0.1556	-0.4933	
-0.129442	0.713456	0.650748	5.04	13.58	-21.14	-0.039	-0.1678	-0.4857	
-0.116266	0.726998	0.661484	9.31	12.32	-21.35	-0.0332	-0.1649	-0.4903	
-0.097722	0.740174	0.666364	9.66	11.41	-21.56	-0.0377	-0.1618	-0.4842	
-0.089548	0.750422	0.665754	6.65	10.71	-22.54	-0.0172	-0.1636	-0.495	
-0.091744	0.758108	0.661606	3.15	10.64	-23.94	-0.0216	-0.165	-0.4812	
-0.092964	0.771528	0.659166	1.12	11.76	-25.13	-0.0244	-0.1666	-0.4934	
-0.08784	0.774212	0.657214	0.07	14.14	-25.62	-0.0141	-0.1758	-0.4951	
-0.083448	0.776408	0.658922	0	16.1	-25.76	-0.0113	-0.1728	-0.489	
-0.085034	0.778482	0.645502	-3.71	18.27	-26.39	-0.0128	-0.1697	-0.4859	
-0.088816	0.77409	0.643672	-6.37	20.44	-27.09	-0.0012	-0.1669	-0.4951	
-0.102846	0.772138	0.65026	-7.35	23.24	-26.95	0.0045	-0.1655	-0.4891	
-0.112972	0.768356	0.644404	-6.65	25.2	-27.09	0.0074	-0.1685	-0.486	
-0.127002	0.765306	0.643428	-7.42	26.53	-27.37	0.006	-0.1685	-0.4876	
-0.144936	0.765672	0.649528	-8.12	27.44	-28.49	0.0102	-0.1625	-0.4906	
-0.170312	0.76311	0.64355	-9.38	28.56	-29.82	0.0247	-0.1582	-0.4892	
-0.199714	0.757132	0.638182	-10.15	29.4	-30.87	0.0262	-0.1612	-0.4923	
-0.225456	0.7503	0.636596	-10.08	29.47	-32.06	0.0435	-0.1508	-0.4924	
-0.245342	0.728584	0.63684	-8.89	28.84	-34.3	0.0436	-0.1554	-0.4893	
-0.27084	0.715652	0.62342	-6.51	27.93	-36.54	0.0506	-0.1479	-0.4786	
-0.299022	0.719434	0.626836	-2.94	27.09	-39.13	0.0551	-0.1555	-0.4818	
-0.321592	0.715286	0.621468	-2.31	26.04	-41.58	0.058	-0.148	-0.4879	
-0.321836	0.709308	0.638304	-2.59	24.29	-45.5	0.068	-0.1345	-0.4894	
-0.334524	0.687104	0.63257	-11.69	25.48	-47.88	0.0623	-0.1496	-0.4818	
-0.347456	0.669536	0.638792	-19.6	26.11	-49.49	0.07229999	-0.1315	-0.4864	
-0.374662	0.63806	0.630984	-26.95	28.56	-50.82	0.0853	-0.1332	-0.485	
-0.392718	0.636962	0.625128	-24.15	24.92	-53.06	0.0911	-0.1318	-0.4835	
-0.399184	0.59475	0.620614	-31.92	29.26	-54.32	0.0867	-0.1287	-0.4865	
-0.429074	0.568764	0.624762	-28.21	24.85	-56.98	0.1042	-0.1289	-0.4851	
-0.433588	0.54229	0.620736	-29.47	22.75	-57.82	0.1126	-0.1063	-0.4866	
-0.489708	0.52765	0.628178	-30.59	26.53	-54.46	0.1211	-0.0866	-0.4912	
-0.50996	0.500322	0.629764	-32.83	24.71	-53.13	0.1312	-0.08679999	-0.4867	
-0.535702	0.484828	0.63867	-34.86	23.38	-50.96	0.1267	-0.0821	-0.479	
-0.552294	0.467016	0.643428	-32.27	22.4	-49.63	0.1309	-0.0685	-0.479	
-0.581208	0.469822	0.640988	-28.77	24.64	-47.53	0.131	-0.0716	-0.4821	
-0.603534	0.45384	0.642818	-32.48	24.92	-44.1	0.1424	-0.0565	-0.4836	
-0.593652	0.40992	0.650626	-35.28	19.53	-41.3	0.1479	-0.0399	-0.4775	
-0.605486	0.387716	0.653066	-33.39	17.29	-38.36	0.1553	-0.0431	-0.4867	
-0.610976	0.377346	0.667462	-30.24	16.17	-35.07	0.1521	-0.0293	-0.476	
-0.620736	0.36112	0.67039	-31.78	15.75	-31.64	0.1579	-0.0279	-0.4821	
-0.642086	0.347212	0.685152	-29.54	16.38	-28.21	0.1606	-0.0218	-0.4653	
-0.651846	0.353434	0.698572	-27.02	16.1	-26.04	0.1695	-0.0205	-0.4822	
-0.65941	0.339282	0.693326	-29.47	16.66	-24.08	0.1651	-0.0265	-0.4761	
-0.657092	0.324642	0.688812	-29.47	17.08	-21.63	0.1751	-0.0084	-0.4746	
-0.66307	0.315858	0.686738	-29.05	17.36	-19.67	0.1662	0.0008	-0.4745	
-0.67527	0.291702	0.675758	-30.87	17.64	-17.57	0.1748	0.0113	-0.473	
-0.69479	0.274866	0.665632	-30.1	17.64	-16.03	0.1778	0.009699999	-0.4837	
-0.720288	0.265838	0.654652	-31.08	17.5	-14.63	0.1747	0.0159	-0.4684	
-0.732122	0.250954	0.650992	-30.66	15.12	-14.35	0.1834	0.0233	-0.4852	
-0.735538	0.243268	0.645746	-27.79	10.99	-13.72	0.1833	0.0233	-0.4684	
-0.749812	0.23424	0.647088	-28.14	10.43	-12.39	0.1846	0.0309	-0.4653	
-0.755912	0.226066	0.658678	-26.04	8.19	-12.11	0.1831	0.0385	-0.476	
-0.751032	0.208864	0.659654	-25.76	6.79	-11.48	0.183	0.0446	-0.4699	
-0.752374	0.182512	0.665632	-24.71	5.11	-11.9	0.1888	0.0476	-0.473	
-0.742248	0.165554	0.67405	-22.68	3.5	-11.62	0.1872	0.0567	-0.4699	
-0.726754	0.155306	0.68503	-18.27	1.33	-11.97	0.1871	0.0598	-0.4699	
-0.732	0.14823	0.695644	-17.01	1.19	-11.69	0.1931	0.046	-0.4638	
-0.7259	0.143716	0.69174	-15.61	0.77	-11.69	0.1945	0.049	-0.4608	
-0.712114	0.127368	0.695522	-15.19	-0.42	-11.41	0.187	0.0659	-0.4591	
-0.720288	0.129808	0.701866	-13.58	-1.33	-10.99	0.184	0.0735	-0.4698	
-0.72895	0.137494	0.703696	-14.35	-0.56	-9.73	0.1957	0.0703	-0.4668	
-0.7198	0.122488	0.706624	-13.58	-0.49	-8.75	0.1855	0.0735	-0.4667	
-0.706136	0.113826	0.719312	-12.53	-1.05	-7.14	0.1855	0.075	-0.4713	
-0.708088	0.107116	0.727974	-11.34	-1.12	-5.25	0.1884	0.0749	-0.4698	
-0.73078	0.098454	0.724924	-11.62	-1.05	-3.5	0.1839	0.0781	-0.4637	
-0.751276	0.092354	0.722606	-10.22	-2.31	-1.96	0.1911	0.0825	-0.4637	
-0.741516	0.083204	0.731268	-8.12	-4.69	-0.63	0.1897	0.0795	-0.4668	
-0.734562	0.078934	0.742004	-5.6	-7	1.05	0.1823	0.0887	-0.4636	
-0.732244	0.068564	0.74481	-3.43	-8.12	3.36	0.1853	0.08109999	-0.4514	
-0.732366	0.063928	0.748104	-0.91	-8.82	6.02	0.1811	0.075	-0.4652	
-0.728462	0.055754	0.748104	0.84	-9.8	8.68	0.1838	0.0872	-0.4606	
-0.721264	0.05856	0.75213	4.06	-10.85	10.85	0.1751	0.0858	-0.4651	
-0.71492	0.056242	0.755302	5.67	-11.2	12.74	0.1796	0.08109999	-0.4713	
-0.714798	0.06588	0.752374	9.59	-12.25	14.28	0.1723	0.0752	-0.4636	
-0.711748	0.066612	0.757864	10.99	-11.69	16.52	0.1811	0.075	-0.4652	
-0.704184	0.070882	0.755912	14.07	-12.11	18.76	0.1754	0.0721	-0.4713	
-0.695156	0.078202	0.765672	17.36	-12.6	21.07	0.1782	0.072	-0.4667	
-0.696864	0.092354	0.76555	19.53	-12.32	23.17	0.1798	0.0629	-0.4728	
-0.68808	0.100894	0.756278	20.72	-11.69	24.78	0.164	0.0616	-0.4834	
-0.688934	0.117242	0.74664	23.66	-12.81	26.32	0.1668	0.0631	-0.4743	
-0.697474	0.129442	0.73688	25.06	-12.53	27.93	0.1669	0.0494	-0.4697	
-0.685274	0.16409	0.738954	32.76	-16.73	29.4	0.1774	0.034	-0.4775	
-0.673074	0.184708	0.72956	34.51	-16.94	30.59	0.1482	0.039	-0.4727	
-0.66124	0.208986	0.722484	38.01	-19.32	31.5	0.1499	0.0298	-0.4926	
-0.644648	0.22936	0.723826	40.53	-18.76	33.18	0.1559	0.0131	-0.4805	
-0.625738	0.254004	0.715652	41.79	-18.69	34.58	0.1661	0.0159	-0.4882	
-0.61854	0.276086	0.716872	44.8	-19.39	35.63	0.1475	-0.007999999	-0.482	
-0.606462	0.302194	0.70516	45.71	-19.81	36.89	0.1533	-0.002	-0.4897	
-0.601826	0.335378	0.702354	48.93	-21.42	37.59	0.1475	-0.0065	-0.482	
-0.597556	0.377468	0.688812	49.07	-20.65	39.27	0.1406	-0.0322	-0.4881	
-0.580964	0.403332	0.696498	50.54	-19.39	40.46	0.1421	-0.0383	-0.4866	
-0.558516	0.43737	0.681858	51.66	-21.56	39.83	0.1392	-0.0383	-0.4851	
-0.543144	0.456402	0.67588	51.52	-20.51	40.04	0.1365	-0.0534	-0.4821	
-0.524112	0.47153	0.653554	53.06	-21.98	40.32	0.1265	-0.0609	-0.4958	
-0.511668	0.489342	0.645014	53.48	-23.1	41.44	0.1267	-0.0715	-0.4912	
-0.497516	0.51423	0.627324	54.25	-24.22	41.86	0.118	-0.079	-0.4835	
-0.4758	0.524234	0.623176	54.18	-25.13	43.05	0.1023	-0.097	-0.488	
-0.456646	0.542656	0.615246	56.98	-25.27	43.75	0.114	-0.1063	-0.4851	
-0.432124	0.566202	0.609268	57.75	-25.41	44.73	0.1126	-0.1108	-0.482	
-0.402722	0.59536	0.594994	58.66	-28.84	45.5	0.0968	-0.1288	-0.4743	
-0.389058	0.629886	0.597434	59.85	-29.33	46.13	0.0896	-0.1272	-0.4773	
-0.377956	0.664046	0.585234	58.17	-29.05	47.04	0.0825	-0.1453	-0.4743	
-0.341234	0.697962	0.577426	57.47	-31.29	47.67	0.0826	-0.1514	-0.4728	
-0.291946	0.707234	0.57035	54.39	-31.36	48.72	0.0639	-0.1633	-0.4803	
-0.261934	0.71797	0.559492	49.91	-31.85	50.33	0.0568	-0.1738	-0.4757	
-0.240828	0.72651	0.545706	45.71	-31.15	51.66	0.0511	-0.1843	-0.465	
-0.226432	0.74054	0.529968	41.86	-32.83	51.66	0.054	-0.1859	-0.465	
-0.19032	0.779214	0.503738	38.29	-33.53	50.89	0.0412	-0.2024	-0.4741	
-0.165798	0.820572	0.49898	38.57	-34.58	50.54	0.034	-0.2069	-0.471	
-0.136884	0.843508	0.49227	32.9	-36.26	50.96	0.0237	-0.2067	-0.4618	
-0.111386	0.85766	0.50203	29.96	-34.72	50.4	0.0123	-0.2232	-0.4602	
-0.085766	0.876814	0.503982	30.1	-33.81	49	0.0065	-0.2201	-0.4556	
-0.055998	0.890722	0.504836	27.72	-32.06	46.13	-0.0092	-0.2335	-0.4586	
-0.040504	0.902556	0.500932	25.2	-29.33	43.05	-0.0079	-0.229	-0.4555	
-0.027084	0.904142	0.51179	21.98	-26.81	40.11	-0.0236	-0.2424	-0.4554	
-0.016226	0.913048	0.506788	20.09	-24.01	35.7	-0.0308	-0.2499	-0.4554	
-0.004758	0.916342	0.511546	19.53	-21.7	31.57	-0.0323	-0.2469	-0.4538	
0.008052	0.917928	0.50874	18.41	-19.53	27.58	-0.0425	-0.2482	-0.4507	
0.02379	0.913414	0.507398	16.45	-17.64	24.08	-0.0528	-0.248	-0.4338	
0.025742	0.915244	0.51179	14.28	-14.07	21.49	-0.0497	-0.2512	-0.4476	
0.02806	0.91866	0.500932	14.28	-11.76	18.9	-0.0571	-0.251	-0.4368	
0.035136	0.912804	0.49654	12.18	-9.66	16.45	-0.0583	-0.2601	-0.4476	
0.03233	0.903166	0.487146	7.35	-8.12	15.05	-0.057	-0.2541	-0.4399	
0.028304	0.912438	0.487756	6.16	-6.93	13.44	-0.0655	-0.2661	-0.4429	
0.020252	0.915732	0.488854	3.71	-4.76	12.32	-0.0656	-0.2615	-0.4445	
0.017934	0.90341	0.483608	2.38	-3.92	11.55	-0.0628	-0.2555	-0.4399	
0.017324	0.890844	0.481778	1.33	-3.36	10.92	-0.0715	-0.2629	-0.4307	
0.011834	0.884378	0.48922	0.49	-3.64	10.85	-0.0715	-0.2584	-0.4368	
0.011224	0.886818	0.507276	2.59	-3.71	10.15	-0.0728	-0.2614	-0.4459	
0.013298	0.879986	0.50569	1.61	-2.45	9.17	-0.0774	-0.2568	-0.4337	
0.01525	0.872666	0.508374	1.19	-1.68	8.26	-0.0744	-0.2583	-0.4337	
0.01769	0.863516	0.503616	-0.07	-0.7	7.28	-0.073	-0.2599	-0.4337	
0.012688	0.875594	0.510814	1.96	-0.14	6.02	-0.0788	-0.2613	-0.426	
0.005246	0.881572	0.513132	1.33	0.56	5.53	-0.07009999	-0.2584	-0.4337	
0.002684	0.893162	0.507642	-0.35	1.19	4.41	-0.0802	-0.2598	-0.4382	
-0.001586	0.900848	0.503006	-1.89	1.54	3.08	-0.0788	-0.2583	-0.4367	
-0.007808	0.894626	0.49532	-3.64	2.03	2.24	-0.0817	-0.2583	-0.4382	
-0.003782	0.8906	0.489708	-3.5	2.45	1.26	-0.0816	-0.2658	-0.4352	
0.001952	0.88755	0.479948	-3.64	2.38	0.49	-0.07449999	-0.2538	-0.4352	
-0.001952	0.879864	0.484218	-3.85	2.24	0.35	-0.0788	-0.2522	-0.4413	
-0.015006	0.88511	0.487512	-2.94	2.59	0.42	-0.0788	-0.2538	-0.4459	
-0.01403	0.879254	0.488488	-2.59	2.59	0.14	-0.0775	-0.2492	-0.429	
-0.003904	0.874008	0.495808	-2.1	1.75	-0.21	-0.0773	-0.2613	-0.4291	
-0.000976	0.869494	0.496784	-2.66	1.4	-0.28	-0.0717	-0.2477	-0.4337	
-0.007686	0.868884	0.499346	-3.57	1.05	-0.28	-0.0831	-0.2582	-0.4413	
-0.012566	0.87474	0.504836	-3.92	0.84	-0.49	-0.073	-0.2569	-0.4398	
-0.014396	0.86986	0.504714	-5.11	0.84	-0.7	-0.0715	-0.2554	-0.4398	
-0.013908	0.86742	0.50752	-4.9	0.56	-0.91	-0.0717	-0.2462	-0.4383	
-0.017446	0.863272	0.511424	-5.25	0.35	-1.05	-0.0686	-0.2554	-0.4398	
-0.016348	0.85644	0.515816	-5.11	-0.07	-1.4	-0.07009999	-0.2508	-0.4429	
-0.014396	0.855708	0.524722	-4.41	-0.77	-1.75	-0.0731	-0.2508	-0.4337	
-0.01525	0.85278	0.522282	-4.69	0.28	-1.82	-0.0804	-0.2446	-0.4397	
-0.011712	0.846436	0.520574	-5.81	-0.42	-1.89	-0.0702	-0.2508	-0.4367	
-0.019886	0.852658	0.520208	-5.11	-0.98	-1.82	-0.073	-0.2508	-0.449	
-0.021594	0.853512	0.529968	-4.69	-0.42	-1.54	-0.07889999	-0.2477	-0.4367	
-0.016348	0.843264	0.533506	-5.46	-0.14	-1.75	-0.0731	-0.2447	-0.4413	
-0.01464	0.834114	0.534238	-5.18	-0.49	-2.03	-0.0775	-0.2431	-0.4382	
-0.015006	0.83143	0.539484	-4.27	-0.7	-1.89	-0.0703	-0.2417	-0.4383	
-0.01647	0.832528	0.535092	-4.83	-0.42	-1.54	-0.0702	-0.2417	-0.4428	
-0.01647	0.832284	0.54168	-3.71	-0.98	-1.33	-0.0775	-0.2401	-0.4397	
-0.01708	0.831674	0.538874	-4.2	-0.63	-1.26	-0.0816	-0.2537	-0.4504	
-0.01647	0.830332	0.54046	-4.06	-0.77	-1.05	-0.0686	-0.2524	-0.4429	
-0.010614	0.83326	0.545706	-2.52	-0.98	-0.91	-0.0716	-0.2508	-0.4429	
-0.009393999	0.833504	0.547048	-2.73	-0.91	-0.7	-0.073	-0.2493	-0.4413	
-0.008784	0.8296	0.549122	-2.66	-0.35	-0.49	-0.07449999	-0.2447	-0.4505	
-0.010858	0.826062	0.54473	-2.73	-0.07	-0.42	-0.0613	-0.2525	-0.4475	
-0.007686	0.823866	0.54839	-2.03	0.14	-0.14	-0.0716	-0.2417	-0.4505	
0.001098	0.82228	0.55266	-1.4	0.21	0	-0.06879999	-0.2417	-0.4413	
0.015738	0.827648	0.570228	0.21	0.49	0	-0.0717	-0.2432	-0.4413	
0.036356	0.81923	0.577548	-1.68	1.82	0.56	-0.0702	-0.2387	-0.449	
0.057218	0.798246	0.595848	-1.96	3.15	1.68	-0.07449999	-0.2447	-0.4535	
0.075884	0.783972	0.612562	-4.2	6.23	3.64	-0.0686	-0.2494	-0.4582	
0.080642	0.77897	0.613538	-8.4	11.06	6.72	-0.0643	-0.2449	-0.4505	
0.100528	0.781044	0.619882	-5.32	16.31	9.87	-0.0774	-0.2432	-0.455	
0.11224	0.778482	0.625006	-5.6	24.01	14.7	-0.0716	-0.2417	-0.452	
0.118828	0.78385	0.626226	-4.62	32.41	19.95	-0.0702	-0.2372	-0.4505	
0.117852	0.793854	0.611708	-5.53	40.18	25.69	-0.0585	-0.2419	-0.4582	
0.105164	0.800198	0.601704	-3.92	46.2	31.57	-0.0573	-0.2343	-0.4414	
0.091256	0.80032	0.585478	-3.85	52.78	37.31	-0.0659	-0.2372	-0.449	
0.082594	0.812398	0.560346	-5.25	59.15	42.77	-0.0557	-0.2329	-0.4552	
0.07124799	0.82472	0.560956	-2.8	60.55	46.13	-0.0456	-0.2315	-0.4583	
0.08967	0.826794	0.589748	-2.52	66.78	53.13	-0.0441	-0.2315	-0.4583	
0.129198	0.825818	0.589138	-4.48	74.13	60.2	-0.0382	-0.2392	-0.4584	
0.136274	0.841068	0.580232	-7.91	82.6	68.39	-0.0194	-0.2304	-0.4631	
0.13603	0.859002	0.5612	-9.24	90.02	71.89	-0.0123	-0.2214	-0.4646	
0.103822	0.855464	0.525576	-11.13	95.83	72.8	-0.0092	-0.2336	-0.4647	
0.073688	0.855586	0.499346	-13.09	99.05	74.83	0.0052	-0.2307	-0.4602	
-0.009516	0.855342	0.490684	-7.42	101.78	80.64	-0.0019	-0.2352	-0.4571	
-0.00732	0.853756	0.47031	-7.14	103.53	82.11	0.0183	-0.2294	-0.4633	
-0.059658	0.85583	0.489342	-5.46	102.97	82.11	0.0239	-0.2203	-0.4526	
-0.080886	0.846314	0.49898	-0.63	100.1	80.22	0.0429	-0.2267	-0.4605	
-0.07503	0.860588	0.471896	4.9	92.12	73.71	0.0444	-0.2358	-0.4528	
-0.07747	0.852902	0.493978	3.29	88.62	73.57	0.0618	-0.2285	-0.4514	
-0.044896	0.847412	0.521794	7.77	83.23	69.65	0.053	-0.2299	-0.4452	
-0.02745	0.860832	0.512034	12.6	79.03	64.89	0.0589	-0.2391	-0.4407	
-0.01098	0.87108	0.515084	19.04	74.76	61.6	0.0662	-0.2437	-0.4362	
0.00183	0.86437	0.49959	12.46	72.38	59.43	0.0765	-0.2484	-0.4424	
0.00549	0.855342	0.50996	15.96	67.2	54.88	0.0822	-0.247	-0.4317	
0.045262	0.872788	0.493246	17.01	62.72	51.87	0.0895	-0.2471	-0.4303	
0.016714	0.854	0.488732	10.01	62.16	48.79	0.0852	-0.2561	-0.4195	
0.05734	0.870104	0.507886	16.17	56.49	45.01	0.0954	-0.2578	-0.4303	
0.027938	0.868152	0.499224	12.81	53.48	41.93	0.094	-0.2653	-0.4135	
0.076738	0.857904	0.51423	12.32	54.18	41.79	0.0985	-0.2715	-0.4212	
0.054168	0.869616	0.511424	10.57	53.9	41.16	0.0984	-0.273	-0.4151	
0.089426	0.858148	0.52277	11.62	52.01	38.43	0.104	-0.2624	-0.3998	
0.079178	0.871934	0.513864	10.36	51.24	37.87	0.1028	-0.2821	-0.3937	
0.073444	0.866322	0.519354	6.23	50.75	38.22	0.11	-0.2746	-0.3953	
0.05002	0.873886	0.4941	3.78	48.23	37.8	0.1159	-0.2808	-0.403	
0.074176	0.868518	0.49593	3.64	46.27	37.31	0.1158	-0.2762	-0.3954	
0.020008	0.882182	0.465918	-1.75	42.7	35.14	0.1159	-0.2808	-0.3984	
-0.01403	0.865956	0.46848	2.45	35.98	32.97	0.1232	-0.2885	-0.3863	
-0.038918	0.873154	0.4758	2.52	29.26	31.36	0.1145	-0.2899	-0.3862	
-0.036356	0.888648	0.487634	3.92	22.96	27.3	0.1115	-0.2822	-0.3892	
-0.046604	0.875472	0.487878	3.78	19.25	22.4	0.1232	-0.2915	-0.3893	
-0.033306	0.872544	0.509106	3.92	17.01	16.94	0.1202	-0.2854	-0.3847	
-0.018056	0.866078	0.505202	3.36	12.11	12.25	0.1187	-0.2823	-0.3847	
-0.009638	0.863272	0.52765	0.42	14.07	10.64	0.1203	-0.293	-0.3801	
0.00671	0.853024	0.51423	3.15	11.13	7.42	0.1175	-0.299	-0.3832	
0.001708	0.859612	0.504226	-0.14	9.94	5.04	0.1085	-0.2837	-0.3754	
-0.008905999	0.862052	0.508984	2.45	6.09	3.22	0.1188	-0.2884	-0.3786	
-0.000976	0.877424	0.51118	0.98	4.48	0.77	0.1232	-0.296	-0.3786	
-0.030744	0.843264	0.514108	-2.59	7.14	1.19	0.1246	-0.2915	-0.3786	
-0.023912	0.82472	0.513376	-1.19	4.55	-0.63	0.1231	-0.29	-0.3771	
0.005856	0.831918	0.538264	-0.56	2.59	-1.12	0.1276	-0.2961	-0.3848	
0.011468	0.846436	0.528748	3.08	1.89	-1.26	0.1247	-0.2961	-0.3802	
-0.01708	0.861442	0.53375	0	2.03	-1.61	0.129	-0.2961	-0.3802	
-0.016714	0.854122	0.524966	0.84	2.31	-2.8	0.1247	-0.3006	-0.3725	
0.002196	0.84851	0.518866	0.84	0.84	-2.94	0.1304	-0.2886	-0.3802	
0.00671	0.827892	0.52582	0.98	1.4	-2.52	0.1276	-0.2976	-0.3787	
0.004758	0.84363	0.521916	2.73	-0.35	-2.66	0.1261	-0.2945	-0.3725	
-0.00854	0.848266	0.519842	1.47	1.26	-1.33	0.1159	-0.2974	-0.3694	
0.0061	0.838872	0.516792	2.03	-0.84	-1.68	0.1262	-0.2976	-0.3817	
0.008296	0.853024	0.513254	3.22	-1.89	-1.75	0.1364	-0.2993	-0.3833	
-0.01281	0.860832	0.513986	1.82	-1.61	-2.17	0.1263	-0.3037	-0.3817	
-0.002562	0.865346	0.503494	1.61	-3.29	-3.01	0.1247	-0.2976	-0.3741	
-0.00366	0.870714	0.506544	0.77	-6.09	-4.41	0.1319	-0.2992	-0.3695	
-0.00427	0.856562	0.504592	1.05	-7.28	-5.04	0.1275	-0.293	-0.3725	
0.016592	0.84851	0.510448	0	-9.38	-4.41	0.1261	-0.2946	-0.3756	
0.033184	0.854976	0.511302	1.61	-10.43	-3.92	0.1275	-0.2931	-0.3741	
0.047458	0.851804	0.51911	2.45	-9.59	-3.29	0.1292	-0.3053	-0.3818	
0.061488	0.848022	0.525698	3.08	-8.82	-2.94	0.1248	-0.3006	-0.3817	
0.056486	0.859368	0.518866	3.57	-7.84	-2.52	0.1086	-0.2913	-0.3785	
0.040992	0.875838	0.51118	3.36	-7.91	-2.73	0.1146	-0.299	-0.3801	
0.022936	0.88816	0.50081	3.22	-8.19	-3.64	0.1248	-0.2976	-0.3894	
0.01098	0.894626	0.493978	2.24	-8.05	-5.04	0.1305	-0.2992	-0.3772	
-0.017568	0.906826	0.478118	1.96	-10.36	-8.4	0.1202	-0.2914	-0.3755	
-0.045628	0.900238	0.466284	-1.61	-13.3	-12.11	0.132	-0.3008	-0.3848	
-0.073322	0.906704	0.454816	-2.1	-18.41	-16.66	0.1129	-0.2868	-0.3816	
-0.070394	0.909632	0.465796	-2.59	-21.28	-21	0.1218	-0.2975	-0.3786	
-0.080032	0.903166	0.447008	-4.34	-25.76	-25.06	0.1232	-0.2885	-0.3924	
-0.080032	0.903654	0.453718	-2.24	-28.98	-27.44	0.1262	-0.2961	-0.3894	
-0.076982	0.911706	0.465674	2.03	-32.27	-31.43	0.1145	-0.2899	-0.3877	
-0.075518	0.91195	0.45628	4.13	-34.72	-35.77	0.1158	-0.2823	-0.3785	
-0.072834	0.894504	0.450546	11.62	-39.9	-40.46	0.1203	-0.2884	-0.3893	
-0.038796	0.867054	0.449814	12.67	-44.8	-42.7	0.1203	-0.2869	-0.3908	
-0.041846	0.905728	0.459574	15.96	-54.32	-48.58	0.1159	-0.2853	-0.3923	
-0.060268	0.929762	0.463722	15.54	-55.16	-51.52	0.1144	-0.2853	-0.3877	
-0.092598	0.925736	0.455304	13.3	-55.65	-54.95	0.1116	-0.2883	-0.3938	
-0.119438	0.931226	0.427244	15.19	-58.24	-60.76	0.1145	-0.2868	-0.3908	
-0.08662	0.891332	0.3965	9.17	-60.97	-63.63	0.1145	-0.2838	-0.4	
-0.04209	0.909388	0.423584	16.45	-66.01	-63.21	0.1115	-0.2777	-0.3969	
-0.04392	0.901458	0.42273	15.4	-68.18	-62.44	0.1043	-0.2867	-0.3953	
-0.04941	0.923784	0.404918	12.04	-69.16	-60.62	0.1057	-0.2776	-0.406	
-0.056852	0.923662	0.38857	9.59	-73.08	-62.3	0.1028	-0.2776	-0.3999	
-0.05307	0.924394	0.378322	15.12	-78.26	-62.86	0.0999	-0.276	-0.409	
-0.06893	0.938546	0.391742	23.24	-82.88	-62.23	0.0926	-0.2774	-0.4013	
0.017202	0.93086	0.421144	2.1	-84.21	-60.69	0.0999	-0.2791	-0.4075	
-0.024644	0.953918	0.387838	18.48	-93.31	-59.36	0.0869	-0.2728	-0.4211	
-0.02257	0.940376	0.37332	7.49	-91.63	-57.26	0.0883	-0.2774	-0.4135	
-0.04209	0.946354	0.379786	11.41	-91.35	-57.4	0.0752	-0.2757	-0.4119	
-0.044408	0.945744	0.378322	10.57	-91.56	-57.89	0.0535	-0.2784	-0.4179	
-0.042334	0.932324	0.373076	8.82	-92.75	-58.1	0.0636	-0.271	-0.4194	
-0.045262	0.942816	0.368196	9.87	-97.02	-57.89	0.052	-0.2708	-0.4193	
-0.036234	0.935252	0.366366	7.49	-97.93	-56.49	0.0549	-0.2754	-0.4209	
-0.018056	0.9333	0.365512	11.27	-103.32	-58.45	0.0389	-0.2751	-0.4116	
-0.011224	0.919514	0.362584	4.27	-98.84	-55.86	0.0244	-0.2689	-0.4283	
-0.00854	0.930494	0.375272	7.56	-104.09	-56.63	0.0171	-0.2673	-0.4252	
0.008662	0.914756	0.385032	5.53	-99.54	-53.83	0.0071	-0.2808	-0.4282	
0.027328	0.91378	0.41785	8.68	-100.59	-52.5	0.0013	-0.2792	-0.4251	
0.076982	0.944524	0.462136	12.25	-102.48	-50.4	-0.0059	-0.2791	-0.4266	
0.091134	0.913658	0.478606	7.35	-92.89	-49.42	-0.0188	-0.2895	-0.4265	
0.12017	0.886208	0.510204	18.83	-83.79	-48.79	-0.0191	-0.2758	-0.4219	
0.131272	0.85522	0.50142	16.24	-73.57	-40.95	-0.0249	-0.2788	-0.4173	
0.112606	0.82289	0.483486	12.18	-63.98	-33.53	-0.0348	-0.2923	-0.4234	
0.08723	0.828258	0.458476	10.71	-58.94	-28.14	-0.045	-0.2891	-0.4233	
0.066856	0.87901	0.491782	14.28	-53.34	-20.72	-0.0523	-0.292	-0.4064	
0.048922	0.909388	0.497394	6.02	-40.88	-15.89	-0.0595	-0.2919	-0.4171	
0.03416	0.908778	0.488122	-9.38	-29.19	-12.25	-0.0581	-0.292	-0.4186	
0.017324	0.896822	0.477142	-21.49	-21.7	-10.43	-0.0641	-0.2812	-0.4155	
0.00061	0.879986	0.500322	-21.91	-18.83	-10.64	-0.0582	-0.2874	-0.414	
-0.00488	0.867176	0.50569	-17.5	-16.38	-9.73	-0.0626	-0.2828	-0.4155	
-0.019032	0.871934	0.505568	-14.56	-14.77	-8.19	-0.0625	-0.2843	-0.4201	
-0.02989	0.894016	0.486902	-9.31	-15.19	-8.54	-0.0685	-0.2766	-0.4185	
-0.068808	0.890722	0.483486	-10.22	-10.92	-7.42	-0.077	-0.2841	-0.4261	
-0.104066	0.885476	0.473604	-8.26	-2.66	-5.32	-0.0713	-0.2721	-0.4322	
-0.09272	0.88511	0.471896	-2.03	-9.87	-9.17	-0.0741	-0.2781	-0.4353	
-0.097112	0.88023	0.457866	-4.13	-14.63	-11.06	-0.064	-0.2798	-0.4262	
-0.111874	0.872666	0.45506	-4.97	-15.47	-12.04	-0.0597	-0.2753	-0.4292	
-0.114558	0.867054	0.448472	-4.06	-17.78	-13.72	-0.0684	-0.2721	-0.4307	
-0.125172	0.88206	0.43188	-0.28	-22.68	-15.54	-0.0698	-0.2781	-0.4261	
-0.147376	0.89914	0.393572	-5.95	-26.32	-16.17	-0.0671	-0.263	-0.4276	
-0.183122	0.928664	0.411872	-3.36	-32.97	-17.22	-0.0758	-0.2704	-0.4169	
-0.22509	0.957822	0.419924	-0.7	-40.53	-20.51	-0.0655	-0.2827	-0.4185	
-0.236802	0.957578	0.403088	-0.07	-46.2	-25.69	-0.0801	-0.2734	-0.426	
-0.209108	0.954528	0.407602	5.04	-52.22	-32.48	-0.0759	-0.2704	-0.4108	
-0.153232	0.92598	0.417606	11.55	-57.33	-39.83	-0.0916	-0.2869	-0.4183	
-0.138226	0.907314	0.41358	9.31	-60.55	-43.47	-0.0916	-0.2824	-0.4214	
-0.12505	0.896456	0.431026	13.09	-64.54	-46.55	-0.0959	-0.2884	-0.4153	
-0.092232	0.872666	0.4392	11.55	-65.31	-47.25	-0.0961	-0.2792	-0.4122	
-0.082472	0.865712	0.464942	10.15	-66.43	-46.55	-0.1062	-0.2867	-0.4106	
-0.064416	0.859734	0.485316	9.52	-66.99	-45.71	-0.0989	-0.2853	-0.406	
-0.057706	0.867176	0.48861	4.2	-68.32	-43.68	-0.1164	-0.2865	-0.3967	
-0.059414	0.870714	0.48556	1.12	-67.06	-43.89	-0.106	-0.3003	-0.4014	
-0.05429	0.87596	0.488366	2.8	-66.99	-44.52	-0.1204	-0.3108	-0.4014	
-0.068198	0.883158	0.485072	-0.63	-64.96	-44.8	-0.1236	-0.2909	-0.3952	
-0.11895	0.901946	0.489708	4.13	-66.01	-46.27	-0.1292	-0.3091	-0.3875	
-0.145546	0.923662	0.485804	11.27	-68.32	-50.82	-0.1278	-0.3091	-0.3875	
-0.158966	0.914756	0.45384	17.15	-71.47	-55.51	-0.1323	-0.3014	-0.3875	
-0.131882	0.934032	0.403942	24.15	-78.54	-62.09	-0.1365	-0.309	-0.3859	
-0.111752	0.94306	0.43798	24.43	-77.7	-65.52	-0.1409	-0.3134	-0.3706	
-0.07259	0.943548	0.455548	36.75	-76.65	-65.52	-0.1423	-0.321	-0.363	
-0.050752	0.909022	0.435662	25.9	-74.62	-65.66	-0.1408	-0.3256	-0.3661	
-0.023912	0.884988	0.434686	26.32	-69.72	-62.72	-0.1379	-0.3256	-0.3615	
-0.033184	0.862174	0.467992	23.1	-65.66	-56.28	-0.1423	-0.3315	-0.3416	
-0.021228	0.848388	0.508374	17.71	-61.81	-50.61	-0.1378	-0.3438	-0.3463	
-0.012932	0.86742	0.544364	11.13	-56.56	-46.13	-0.1378	-0.3377	-0.3462	
-0.01098	0.874496	0.558028	-0.98	-46.76	-41.3	-0.1276	-0.347	-0.3418	
-0.026352	0.859246	0.541192	-11.62	-33.81	-34.93	-0.151	-0.339	-0.3324	
-0.085644	0.868152	0.518866	-12.95	-20.09	-28.07	-0.145	-0.3497	-0.3355	
-0.109434	0.831186	0.543388	-21.84	-21.07	-24.99	-0.1362	-0.3499	-0.3463	
-0.162504	0.859734	0.498004	-6.16	-17.78	-22.89	-0.1306	-0.3439	-0.3387	
-0.186904	0.857904	0.471286	-9.73	-10.29	-21.07	-0.1321	-0.3393	-0.3356	
-0.212036	0.833748	0.461526	-8.47	-10.85	-20.3	-0.1464	-0.3558	-0.3386	
-0.234362	0.818864	0.456524	-5.74	-16.03	-21.21	-0.1406	-0.3468	-0.3463	
-0.213744	0.834724	0.468358	5.88	-18.13	-21.84	-0.1335	-0.3468	-0.3325	
-0.211426	0.858148	0.47519	3.29	-18.06	-22.54	-0.1406	-0.3422	-0.3524	
-0.227042	0.844728	0.44896	-1.05	-16.17	-22.61	-0.1276	-0.3424	-0.3433	
-0.204106	0.834602	0.46543	1.54	-17.99	-23.38	-0.1349	-0.3423	-0.3371	
-0.23119	0.828136	0.460062	1.26	-17.57	-22.26	-0.1334	-0.3468	-0.3356	
-0.236558	0.7991	0.47824	3.15	-16.03	-21.7	-0.1436	-0.3497	-0.334	
-0.213256	0.805566	0.477752	5.46	-18.97	-21.14	-0.1333	-0.356	-0.3326	
-0.189954	0.805444	0.460916	10.99	-23.52	-20.37	-0.1174	-0.3456	-0.3388	
-0.204472	0.83692	0.56608	47.46	-32.76	-17.92	-0.1275	-0.3545	-0.3357	
-0.170312	0.819474	0.489098	-3.01	-17.08	-13.44	-0.1262	-0.35	-0.328	
-0.188002	0.800442	0.504714	4.13	-14.84	-8.4	-0.126	-0.3637	-0.3296	
-0.184342	0.80581	0.484218	1.75	-14.77	-8.68	-0.1392	-0.3589	-0.3188	
-0.195688	0.796782	0.475678	2.38	-12.04	-5.18	-0.1421	-0.3618	-0.3126	
-0.184464	0.841068	0.495442	7.42	-13.37	-3.01	-0.1348	-0.3605	-0.3264	
-0.19215	0.856928	0.495564	8.82	-12.74	-1.19	-0.1391	-0.3574	-0.3295	
-0.203252	0.85522	0.488976	7.49	-10.29	-0.77	-0.1305	-0.356	-0.3203	
-0.18361	0.861808	0.488122	7.56	-8.82	-0.56	-0.1348	-0.362	-0.3173	
-0.1769	0.86925	0.485072	6.37	-7.42	0.14	-0.1332	-0.3711	-0.3143	
-0.204106	0.871812	0.475068	5.81	-6.16	0.35	-0.1406	-0.3649	-0.3157	
-0.18361	0.85949	0.469822	3.64	-3.92	-0.49	-0.1305	-0.359	-0.3173	
-0.167506	0.83021	0.48068	5.6	-2.38	0.77	-0.1406	-0.3634	-0.3142	
-0.172142	0.861442	0.469212	5.74	0.84	3.29	-0.129	-0.3636	-0.3097	
-0.16958	0.876814	0.48739	5.25	2.31	5.81	-0.1318	-0.3666	-0.3173	
-0.172874	0.866078	0.463234	1.47	4.9	8.68	-0.142	-0.3695	-0.3142	
-0.177754	0.873764	0.45506	0.14	6.09	10.15	-0.1347	-0.3681	-0.3204	
-0.17934	0.877912	0.45384	0.84	5.6	11.13	-0.1435	-0.3664	-0.305	
-0.188734	0.897798	0.440054	-2.31	7.7	11.62	-0.1392	-0.3619	-0.3142	
-0.198738	0.876692	0.453108	-4.62	8.54	12.67	-0.142	-0.371	-0.3111	
-0.17934	0.88023	0.433222	-4.83	9.8	12.25	-0.1494	-0.3617	-0.3141	
-0.194834	0.877058	0.45323	-3.29	11.2	12.6	-0.1305	-0.3529	-0.3249	
-0.145546	0.89365	0.48129	-0.84	10.71	13.09	-0.1479	-0.3618	-0.3202	
-0.139324	0.887794	0.46116	-5.32	15.12	13.86	-0.145	-0.3633	-0.3141	
-0.135176	0.866566	0.468114	-7.91	19.95	15.75	-0.1379	-0.3513	-0.3172	
-0.09747799	0.858392	0.49654	-5.46	20.93	17.5	-0.1436	-0.3588	-0.3111	
-0.06283	0.862418	0.500932	-10.15	26.25	19.88	-0.1421	-0.3603	-0.3187	
-0.091744	0.877058	0.461404	-14.63	31.29	22.89	-0.1364	-0.3483	-0.3218	
-0.13542	0.888892	0.466162	-16.38	36.54	27.02	-0.1405	-0.3619	-0.3295	
-0.125538	0.881816	0.462624	-18.34	39.48	30.45	-0.1377	-0.3544	-0.3341	
-0.137982	0.8418	0.466162	-23.17	42.07	32.48	-0.1466	-0.3451	-0.3324	
-0.11285	0.811666	0.472628	-22.05	43.54	33.04	-0.1494	-0.3436	-0.3462	
-0.075762	0.840946	0.45262	-23.31	42.14	32.76	-0.148	-0.339	-0.3401	
-0.066246	0.893528	0.494954	-17.22	42.7	35.56	-0.1407	-0.3407	-0.3416	
-0.08357	0.908656	0.494222	-23.8	49.21	39.13	-0.148	-0.3376	-0.3538	
-0.12261	0.874984	0.459452	-30.1	58.38	44.59	-0.1363	-0.3378	-0.3585	
-0.116754	0.864004	0.50264	-31.36	63.28	49.35	-0.1365	-0.3226	-0.3661	
-0.132736	0.895114	0.487634	-28.35	59.5	47.11	-0.1408	-0.3271	-0.36	
-0.152256	0.88877	0.505812	-32.48	62.65	50.61	-0.1335	-0.3242	-0.3707	
-0.119926	0.872788	0.516548	-24.99	64.82	51.66	-0.135	-0.3181	-0.3829	
-0.090036	0.862906	0.51728	-25.48	70	52.08	-0.1321	-0.3121	-0.3906	
-0.064294	0.872178	0.520208	-25.06	75.25	53.69	-0.1364	-0.3105	-0.3936	
-0.06832	0.86071	0.508008	-33.46	81.34	56.56	-0.1264	-0.303	-0.3845	
-0.086986	0.847534	0.481656	-39.55	83.51	60.27	-0.1192	-0.2941	-0.3998	
-0.07808	0.84668	0.52582	-33.81	81.27	59.92	-0.115	-0.2805	-0.409	
-0.099064	0.852292	0.544364	-33.95	85.96	61.6	-0.1091	-0.2806	-0.4151	
-0.077348	0.803004	0.515328	-34.44	89.11	64.05	-0.0992	-0.2595	-0.4228	
-0.0732	0.816912	0.531432	-30.17	91.14	65.52	-0.0918	-0.2642	-0.429	
-0.106628	0.83143	0.502152	-39.06	92.82	69.09	-0.0832	-0.2552	-0.4351	
-0.170678	0.835334	0.513864	-41.09	92.54	73.08	-0.0861	-0.2491	-0.4458	
-0.179706	0.827892	0.529724	-30.59	88.9	75.18	-0.0686	-0.2585	-0.4414	
-0.185562	0.835212	0.52887	-24.71	81.34	72.52	-0.06879999	-0.2372	-0.4444	
-0.179706	0.832528	0.525454	-27.3	71.26	70.84	-0.06879999	-0.2327	-0.4642	
-0.167506	0.825208	0.509838	-27.16	64.47	70.14	-0.0601	-0.2298	-0.4582	
-0.214232	0.839238	0.530334	-29.4	62.09	70.28	-0.0602	-0.2252	-0.4612	
-0.255224	0.834602	0.546438	-29.96	59.99	67.41	-0.0414	-0.2194	-0.4568	
-0.240584	0.813984	0.571692	-17.5	52.36	61.67	-0.0559	-0.2177	-0.4612	
-0.198128	0.817156	0.58621	-7.56	47.18	54.67	-0.0545	-0.2132	-0.4674	
-0.172874	0.810568	0.554856	-12.04	45.36	52.29	-0.0458	-0.2148	-0.4628	
-0.172508	0.799954	0.56364	-10.71	42.63	52.57	-0.0489	-0.198	-0.4643	
-0.187026	0.796172	0.573278	-12.6	38.92	50.05	-0.0328	-0.2029	-0.4767	
-0.194712	0.791902	0.56913	-11.83	31.99	45.43	-0.0314	-0.2014	-0.4751	
-0.207522	0.785192	0.57584	-7.77	24.71	40.67	-0.0328	-0.2059	-0.4644	
-0.20984	0.804834	0.561932	-10.36	19.67	37.59	-0.0313	-0.2059	-0.4706	
-0.192028	0.820328	0.565958	-12.18	14.14	34.79	-0.04	-0.2043	-0.4735	
-0.177632	0.808006	0.587308	-10.64	10.71	31.43	-0.0416	-0.1997	-0.4628	
-0.145424	0.801052	0.580232	-8.12	7.84	27.16	-0.0387	-0.1967	-0.4751	
-0.137738	0.804712	0.585966	-6.3	5.39	23.17	-0.0298	-0.2075	-0.4813	
-0.116998	0.835944	0.616222	-5.39	1.26	18.27	-0.046	-0.192	-0.4781	
-0.107604	0.79788	0.590358	-14	1.47	15.47	-0.0415	-0.1982	-0.4842	
-0.083692	0.802028	0.616588	-10.43	-2.03	11.69	-0.0446	-0.1875	-0.4765	
-0.077836	0.807884	0.63135	-2.8	-2.17	8.05	-0.0401	-0.1952	-0.4858	
-0.03355	0.7869	0.632448	-3.92	-9.94	3.78	-0.0475	-0.1874	-0.4734	
-0.0244	0.77836	0.624396	-4.76	-11.62	2.24	-0.0415	-0.1952	-0.4873	
-0.01098	0.774944	0.625616	-2.1	-10.5	1.82	-0.0416	-0.1951	-0.4812	
0.001952	0.775432	0.630496	0.84	-9.38	0.91	-0.049	-0.1844	-0.4795	
0.016836	0.778116	0.639402	1.89	-8.4	0.84	-0.0562	-0.1904	-0.478	
0.029036	0.7747	0.638182	0.56	-6.72	1.47	-0.0519	-0.1904	-0.4734	
0.032818	0.77348	0.645746	2.31	-5.46	1.89	-0.0533	-0.1889	-0.4749	
0.033306	0.783362	0.644282	2.94	-4.41	2.38	-0.0533	-0.1874	-0.478	
0.037088	0.77104	0.660142	0.98	-2.59	3.08	-0.0432	-0.1875	-0.4719	
0.04453	0.762012	0.646234	-1.12	-1.61	3.99	-0.0592	-0.1873	-0.4734	
0.050264	0.774578	0.659898	2.17	-1.19	5.6	-0.062	-0.1963	-0.4718	
0.059292	0.774334	0.66978	0.35	1.54	8.05	-0.0489	-0.192	-0.478	
0.078934	0.783972	0.658922	-1.12	5.11	10.92	-0.0605	-0.1949	-0.4764	
0.097844	0.77043	0.659898	-2.73	10.85	13.58	-0.065	-0.1826	-0.4764	
0.101748	0.751398	0.660752	-4.41	18.13	17.5	-0.0547	-0.1934	-0.4811	
0.106994	0.733098	0.66429	-1.96	24.78	22.4	-0.0606	-0.1873	-0.4764	
0.109312	0.740906	0.672708	0.35	28.7	26.18	-0.0475	-0.1859	-0.478	
0.11773	0.73993	0.6771	1.47	33.18	30.45	-0.0431	-0.1875	-0.4781	
0.114314	0.736758	0.665388	1.19	38.78	35	-0.0387	-0.1921	-0.4766	
