Sensor string: E
Serial number: 1970-01-0000
Firmware version: 2,015
Hardware version: 2,2
Calibration quality: 5
ax	ay	az	gx	gy	gz	mx	my	mz

-1.00894	0.088084	0.03416	0.14	0.21	-0.35	0.4254	-0.0593	-0.2864	Reference
-1.00772	0.08662	0.033672	0.21	0.07	-0.28	0.4199	-0.0581	-0.3003	
-1.008452	0.08906	0.032208	0.28	0.14	-0.07	0.4283	-0.0609	-0.2895	
-1.007964	0.090646	0.031476	0.21	0.07	0.07	0.4226	-0.0609	-0.2895	
-1.011746	0.091988	0.031232	0.07	0.07	-0.07	0.4269	-0.058	-0.2941	
-1.01443	0.0915	0.031354	0.07	-0.07	-0.21	0.4283	-0.0534	-0.2987	
-1.010526	0.089548	0.031232	-0.14	-0.14	-0.28	0.4325	-0.0533	-0.2941	
-1.011014	0.088816	0.033062	-0.14	-0.21	-0.14	0.417	-0.0439	-0.2844	
-1.00772	0.089304	0.031964	-0.07	-0.14	-0.07	0.4311	-0.0485	-0.2861	
-1.01016	0.088572	0.031964	0.14	-0.28	0	0.4255	-0.0502	-0.2924	
-1.011624	0.088816	0.032452	0.21	-0.21	-0.07	0.4226	-0.0563	-0.291	
-1.008208	0.08906	0.031964	-0.07	-0.07	-0.07	0.4339	-0.0485	-0.2877	
-1.006622	0.088816	0.033672	-0.14	-0.42	-0.07	0.4199	-0.0489	-0.3017	
-1.00711	0.088694	0.033306	-0.21	-0.49	-0.07	0.4227	-0.0597	-0.3004	
-1.008086	0.08601	0.03538	-0.21	-0.49	-0.07	0.4184	-0.055	-0.2971	
-1.007842	0.087596	0.036722	-0.07	-0.28	-0.07	0.4184	-0.0564	-0.2909	
-1.010282	0.088816	0.034404	0	0.07	0	0.4298	-0.0522	-0.3096	
-1.011136	0.090158	0.033184	0	0.28	0	0.4297	-0.0546	-0.2832	
-1.01077	0.090036	0.032452	-0.35	0.28	0	0.4227	-0.0533	-0.2924	
-1.00955	0.089548	0.033184	-0.21	0.14	0	0.4297	-0.0379	-0.2937	
-1.01016	0.089182	0.02806	-0.14	0.14	0	0.4326	-0.0426	-0.2954	
-1.01077	0.09028	0.0305	0	-0.07	-0.07	0.4269	-0.0532	-0.2893	
-1.009306	0.090524	0.032574	0.07	0.07	-0.21	0.4269	-0.0471	-0.2908	
-1.007964	0.08906	0.032086	-0.14	-0.07	-0.21	0.427	-0.0474	-0.3032	
-1.007964	0.089548	0.034282	0.14	-0.07	-0.14	0.4227	-0.0488	-0.2954	
-1.009672	0.089426	0.035014	-0.07	0.07	-0.14	0.4255	-0.0563	-0.291	
-1.008452	0.087596	0.03416	-0.21	0	-0.21	0.4312	-0.0489	-0.3017	
-1.009672	0.089548	0.035136	0.07	0	-0.21	0.4283	-0.0594	-0.2911	
-1.012112	0.088572	0.031964	0.14	0.28	-0.21	0.4185	-0.0535	-0.3018	
-1.009794	0.087596	0.032696	0.07	0.28	-0.14	0.4283	-0.0472	-0.2954	
-1.010526	0.089426	0.031842	0.14	0.42	0	0.4255	-0.0503	-0.2971	
-1.009672	0.090158	0.029036	-0.07	0.21	-0.07	0.4213	-0.0473	-0.3001	
-1.011014	0.088938	0.031354	-0.28	0	-0.07	0.4226	-0.0578	-0.2879	
-1.0126	0.08845	0.033306	-0.28	-0.07	-0.07	0.4241	-0.0533	-0.2909	
-1.01077	0.089914	0.032574	-0.35	-0.14	0.07	0.4269	-0.0596	-0.2973	
-1.010404	0.091256	0.032818	-0.35	-0.14	0.07	0.4255	-0.0564	-0.2925	
-1.009672	0.088938	0.03233	-0.28	-0.07	0	0.4227	-0.0489	-0.3017	
-1.010282	0.087718	0.030988	-0.42	-0.14	0.07	0.4326	-0.0473	-0.3001	
-1.009306	0.087352	0.03294	-0.35	-0.14	0.14	0.4198	-0.0379	-0.2905	
-1.007964	0.08686399	0.033062	-0.28	-0.21	0.07	0.4213	-0.0472	-0.2954	
-1.00833	0.08784	0.033306	0.07	0	0.07	0.4269	-0.0504	-0.3017	
-1.009672	0.091012	0.032208	0.07	0.07	0.14	0.4184	-0.0502	-0.2908	
-1.01077	0.091744	0.032818	0.07	0.21	-0.07	0.4213	-0.0458	-0.2985	
-1.010038	0.091256	0.032086	0.14	0.21	-0.14	0.4241	-0.0456	-0.2923	
-1.007598	0.090524	0.032452	0.14	0.21	-0.14	0.4241	-0.0456	-0.2923	
-1.010404	0.090158	0.03233	0.14	0.21	-0.14	0.4227	-0.0487	-0.2939	
-1.010648	0.091012	0.030866	0.07	0.14	0	0.4227	-0.0505	-0.3017	
-1.00894	0.089426	0.031964	-0.14	-0.07	0	0.4254	-0.0454	-0.2829	
-1.009916	0.08906	0.032696	0	0	-0.07	0.4198	-0.0563	-0.2894	
-1.009794	0.08967	0.032452	0.07	-0.14	-0.07	0.4213	-0.0535	-0.2987	
-1.010526	0.090524	0.031354	0	-0.07	-0.14	0.4212	-0.0579	-0.2925	
-1.011746	0.090158	0.033916	0.07	-0.07	-0.14	0.4241	-0.055	-0.2987	
-1.010648	0.088328	0.03294	0	0.07	-0.14	0.4199	-0.0534	-0.2955	
-1.00772	0.08967	0.033062	-0.07	0	-0.07	0.4283	-0.0564	-0.2926	
-1.007598	0.09089	0.033672	-0.07	0.28	-0.07	0.4227	-0.0472	-0.2938	
-1.008452	0.091744	0.031232	-0.07	0.21	-0.14	0.4198	-0.0563	-0.2878	
-1.01077	0.08967	0.031598	-0.14	0.07	-0.21	0.4157	-0.0458	-0.3	
-1.011014	0.088816	0.032208	-0.07	0	-0.21	0.4199	-0.0458	-0.3016	
-1.012234	0.090524	0.029158	-0.21	0	-0.14	0.4269	-0.058	-0.2973	
-1.011624	0.089548	0.030744	-0.14	-0.28	-0.14	0.4171	-0.0535	-0.2986	
-1.011136	0.088328	0.03111	-0.07	-0.21	0	0.4269	-0.0548	-0.2894	
-1.006622	0.087352	0.032818	-0.21	-0.28	0	0.4212	-0.0517	-0.2893	
-1.0065	0.088694	0.0366	-0.07	0	-0.07	0.4142	-0.0501	-0.2876	
-1.007598	0.088694	0.035868	0.07	0.28	-0.21	0.4255	-0.0471	-0.2923	
-1.00955	0.089426	0.033062	0.28	0.42	-0.14	0.4255	-0.0579	-0.291	
-1.011136	0.089792	0.03172	0.07	0.28	-0.07	0.4128	-0.0549	-0.2924	
-1.009672	0.090036	0.030134	-0.07	0.21	0	0.4241	-0.0548	-0.2909	
-1.012478	0.09089	0.029646	0.07	0	0	0.4184	-0.0564	-0.2941	
-1.012722	0.090402	0.030256	0.14	-0.21	-0.14	0.4297	-0.0548	-0.2925	
-1.009184	0.088206	0.03111	-0.07	0	-0.21	0.4283	-0.0501	-0.2862	
-1.005158	0.088328	0.034648	0.14	-0.14	-0.07	0.4198	-0.0471	-0.2907	
-1.006988	0.09076799	0.03538	0	0.14	0.07	0.4241	-0.0548	-0.2909	
-1.009428	0.09089	0.035746	0	0.28	-0.07	0.4297	-0.0534	-0.2972	
-1.007598	0.089792	0.03416	-0.07	0.07	-0.07	0.424	-0.0516	-0.2846	
-1.006378	0.089182	0.033672	-0.07	0.07	-0.14	0.4198	-0.0502	-0.2923	
-1.009062	0.089182	0.030988	-0.07	0.42	-0.21	0.4254	-0.0561	-0.2816	
-1.009794	0.089182	0.030988	0.07	0.35	-0.21	0.4283	-0.0548	-0.291	
-1.011258	0.089182	0.03111	0.14	0.35	-0.07	0.4227	-0.055	-0.3003	
-1.0126	0.091134	0.029402	0.07	0.35	-0.07	0.4325	-0.0533	-0.2925	
-1.01016	0.090158	0.030866	0.07	0.21	-0.07	0.4297	-0.0546	-0.2847	
-1.009184	0.089182	0.031842	0.07	0.14	-0.14	0.4283	-0.0532	-0.2894	
-1.008818	0.08845	0.030866	0	0.07	-0.14	0.4282	-0.0577	-0.2832	
-1.009062	0.090158	0.031354	-0.21	0	-0.07	0.4226	-0.0516	-0.2877	
-1.012966	0.091744	0.034038	-0.21	0.28	0	0.4254	-0.0501	-0.2861	
-1.011624	0.091744	0.033428	-0.07	0.28	0	0.4226	-0.0531	-0.2831	
-1.008452	0.089792	0.03172	-0.42	0.14	-0.07	0.4185	-0.0429	-0.3093	
-1.008086	0.089304	0.03172	-0.21	0.35	-0.07	0.4227	-0.0471	-0.2923	
-1.00955	0.09028	0.029158	-0.21	0.28	-0.07	0.4199	-0.0456	-0.2938	
-1.014308	0.089182	0.026718	-0.42	-0.21	0.07	0.4198	-0.0549	-0.294	
-1.014552	0.090036	0.026596	-0.35	-0.21	0.07	0.4199	-0.0472	-0.2938	
-1.01687	0.089426	0.023912	-0.21	-0.35	-0.07	0.4226	-0.047	-0.2876	
-1.014674	0.08723	0.025742	0.14	-0.77	-0.07	0.4198	-0.047	-0.2876	
-1.014308	0.088084	0.030622	0.07	-0.77	-0.07	0.4184	-0.0517	-0.2877	
-1.012234	0.088694	0.035746	0.28	-0.56	0.07	0.4213	-0.055	-0.3003	
-1.012356	0.090524	0.035502	0.21	-0.28	0.21	0.4227	-0.0503	-0.2939	
-1.006378	0.09076799	0.034648	0.28	0.07	0.21	0.4255	-0.0519	-0.2987	
-1.00467	0.09028	0.03111	0.28	0.42	0.07	0.4212	-0.044	-0.2906	
-1.006134	0.090524	0.031598	0.28	0.21	0	0.4227	-0.0503	-0.2955	
-1.017358	0.091988	0.032086	0.07	-0.28	0.21	0.417	-0.0578	-0.2878	
-1.024312	0.091744	0.033184	-0.28	-0.77	0.63	0.4269	-0.0489	-0.3017	
-1.036024	0.094306	0.02928	-0.07	-0.21	0.98	0.4142	-0.0549	-0.294	
-1.03029	0.09211	0.028792	0.42	0.14	0.91	0.4156	-0.044	-0.2906	
-1.01809	0.087474	0.012688	1.26	0.49	0.91	0.4226	-0.0471	-0.2892	
-1.006134	0.086376	0.014396	1.47	-0.77	1.19	0.424	-0.0423	-0.2844	
-1.008208	0.090036	0.019642	0.91	-2.1	1.12	0.4185	-0.0535	-0.3002	
-1.017236	0.096746	0.021472	0.77	-3.78	0.98	0.4185	-0.0535	-0.3002	
-1.020286	0.097234	0.030622	0.63	-4.62	0.77	0.4184	-0.0503	-0.2955	
-1.01382	0.094794	0.039162	0.42	-4.76	1.05	0.4255	-0.0486	-0.2892	
-0.999546	0.094794	0.049776	-0.14	-5.53	1.4	0.4142	-0.0595	-0.2941	
-0.98942	0.095648	0.052704	-0.7	-5.25	1.54	0.4029	-0.0502	-0.2907	
-0.998814	0.096868	0.045384	-0.77	-3.43	1.4	0.4227	-0.0567	-0.3034	
-1.023336	0.097112	0.038796	-1.12	-3.01	1.05	0.41	-0.0642	-0.2973	
-1.044564	0.096868	0.036356	-0.63	-1.82	0.84	0.4213	-0.0549	-0.2956	
-1.04249	0.101748	0.02684	0	-2.45	1.12	0.4185	-0.0584	-0.3128	
-1.034316	0.09638	0.029768	-0.7	-5.46	1.82	0.4198	-0.0594	-0.2879	
-1.016626	0.096136	0.031232	0.35	-4.62	1.54	0.4199	-0.0535	-0.3002	
-1.011014	0.094916	0.029036	0.63	-3.92	1.12	0.4185	-0.0566	-0.3018	
-1.030046	0.099308	0.029036	0.07	-6.51	0.56	0.4128	-0.0503	-0.297	
-1.048346	0.101504	0.047824	-1.26	-10.71	0.77	0.4086	-0.0519	-0.2954	
-1.046028	0.100406	0.045628	0.7	-7.91	1.05	0.4255	-0.0565	-0.2972	
-1.061156	0.101382	0.05673	3.5	-3.01	1.05	0.417	-0.0441	-0.2953	
-1.050054	0.10004	0.0549	0	-14.63	2.59	0.4128	-0.0566	-0.3018	
-1.024312	0.107848	0.05002	-0.63	-19.74	3.43	0.4199	-0.0568	-0.3097	
-1.031388	0.11834	0.052094	0.42	-19.18	2.52	0.4058	-0.0661	-0.3098	
-1.048956	0.111996	0.053802	3.08	-22.47	1.4	0.4045	-0.0477	-0.314	
-1.043588	0.10675	0.059536	0.07	-22.75	1.75	0.4059	-0.0571	-0.3205	
-1.031266	0.108092	0.07137	0.98	-22.75	2.38	0.4087	-0.0663	-0.3176	
-1.013942	0.104798	0.080886	0.35	-25.48	3.5	0.4073	-0.0633	-0.3238	
-0.99491	0.10492	0.096624	1.19	-29.33	3.92	0.4016	-0.0602	-0.319	
-0.997106	0.110532	0.119926	0.56	-27.44	2.73	0.396	-0.0664	-0.3222	
-0.97722	0.107482	0.136518	-1.19	-30.59	2.03	0.4004	-0.0576	-0.3407	
-0.966118	0.098942	0.155428	-1.68	-31.92	1.82	0.3848	-0.0623	-0.3423	
-0.959896	0.100894	0.174826	-1.96	-31.85	1.68	0.4032	-0.059	-0.3361	
-0.956236	0.099674	0.189466	-1.61	-30.24	2.1	0.3877	-0.0609	-0.3501	
-0.966728	0.09516	0.197762	-0.42	-33.46	3.22	0.3806	-0.0731	-0.3425	
-0.95465	0.09857599	0.215574	-2.66	-29.05	4.2	0.3807	-0.0641	-0.3532	
-0.94367	0.105286	0.219356	-0.7	-26.53	4.55	0.3737	-0.0596	-0.3578	
-0.93574	0.107848	0.227652	-1.54	-25.9	4.55	0.3736	-0.0719	-0.3565	
-0.939034	0.112606	0.235216	-1.47	-23.52	4.2	0.3666	-0.0627	-0.3578	
-0.953064	0.12261	0.24522	-2.45	-23.17	3.85	0.3737	-0.0674	-0.3595	
-0.945622	0.118096	0.256322	-2.17	-24.71	3.92	0.3751	-0.0674	-0.3611	
-0.944158	0.110898	0.254736	-1.4	-20.3	3.64	0.3695	-0.074	-0.3768	
-0.94184	0.117486	0.260714	-1.47	-19.04	3.5	0.3653	-0.0631	-0.3718	
-0.94367	0.122488	0.268766	-1.33	-17.71	3.36	0.3639	-0.0663	-0.3797	
-0.94428	0.128344	0.273768	-1.68	-17.22	3.36	0.3611	-0.0787	-0.38	
-0.940742	0.125904	0.279014	-1.75	-15.75	3.29	0.3583	-0.0711	-0.386	
-0.930616	0.12688	0.268278	-0.42	-21.35	3.78	0.3554	-0.0771	-0.3799	
-0.944646	0.12322	0.288896	-1.68	-12.74	3.01	0.3456	-0.0759	-0.3923	
-0.940376	0.125782	0.28914	-1.47	-10.5	2.31	0.3484	-0.0724	-0.3766	
-0.937692	0.122732	0.291336	-0.42	-9.31	1.75	0.3499	-0.079	-0.3924	
-0.937936	0.127734	0.295362	-0.21	-8.19	0.84	0.347	-0.0758	-0.3876	
-0.939278	0.132858	0.294508	0	-6.93	0.21	0.3485	-0.0744	-0.3954	
-0.937082	0.133712	0.298778	0.07	-4.69	-0.28	0.3456	-0.0774	-0.3892	
-0.937204	0.132004	0.30439	0.14	-2.59	-0.49	0.347	-0.0713	-0.3922	
-0.93269	0.130174	0.30561	0.91	-0.28	-0.7	0.3471	-0.0746	-0.4016	
-0.929152	0.127734	0.307684	1.26	1.82	-0.98	0.3456	-0.0728	-0.3922	
-0.921466	0.127002	0.307196	1.75	3.64	-1.47	0.3414	-0.0711	-0.3859	
-0.91988	0.127002	0.30683	2.03	5.74	-1.96	0.3442	-0.0744	-0.3922	
-0.919392	0.12505	0.304512	1.82	7.91	-2.45	0.347	-0.0758	-0.3876	
-0.920734	0.11895	0.303658	1.54	9.73	-2.87	0.3498	-0.068	-0.3843	
-0.917684	0.113826	0.2989	1.4	12.04	-2.94	0.3471	-0.0682	-0.3937	
-0.917806	0.115534	0.297192	1.54	14.63	-3.22	0.3555	-0.07099999	-0.3829	
-0.920002	0.115168	0.290116	1.68	17.5	-4.13	0.3512	-0.0724	-0.3735	
-0.924882	0.11773	0.28304	1.82	19.81	-4.83	0.3512	-0.0679	-0.3812	
-0.936472	0.116144	0.271938	1.96	22.54	-5.46	0.3512	-0.0648	-0.3796	
-0.942816	0.114192	0.262422	1.33	24.29	-5.88	0.3582	-0.0616	-0.3749	
-0.947574	0.110654	0.250832	1.05	25.83	-6.09	0.3582	-0.0676	-0.3672	
-0.951966	0.110532	0.236924	0.7	27.44	-6.16	0.3709	-0.0615	-0.3718	
-0.962824	0.113948	0.232044	0.14	28.7	-6.44	0.3695	-0.06439999	-0.3641	
-0.97966	0.106872	0.217892	0.14	29.4	-6.09	0.3666	-0.0627	-0.3562	
-0.979538	0.103822	0.214232	-0.49	28.28	-4.62	0.3722	-0.0609	-0.3484	
-0.975878	0.10004	0.204716	-0.77	27.58	-3.22	0.3793	-0.0626	-0.3547	
-0.978562	0.099674	0.193248	1.12	29.89	-2.31	0.3835	-0.0765	-0.3567	
-0.972462	0.099064	0.18544	0.98	30.03	-2.03	0.3779	-0.0579	-0.3515	
-0.96258	0.108824	0.169946	0.56	30.31	-2.17	0.3863	-0.0702	-0.3519	
-0.956846	0.108092	0.155428	0.63	30.66	-2.87	0.3876	-0.0621	-0.333	
-0.96685	0.110898	0.156404	0.42	34.37	-3.78	0.3904	-0.0559	-0.3328	
-0.974536	0.101992	0.139934	-0.07	31.85	-4.13	0.3975	-0.0669	-0.3425	
-0.967704	0.096014	0.132126	-0.63	32.76	-4.62	0.3975	-0.0759	-0.3334	
-0.971242	0.094428	0.11468	0.07	34.09	-4.48	0.4059	-0.0588	-0.3268	
-0.976976	0.093208	0.095892	0.21	33.18	-4.13	0.4172	-0.0541	-0.3236	
-0.98149	0.09467199	0.094306	-0.84	33.95	-4.13	0.4017	-0.0449	-0.3233	
-0.998814	0.097234	0.06954	-0.21	34.09	-4.9	0.41	-0.0459	-0.3046	
-1.00894	0.093696	0.062952	-1.33	33.04	-4.97	0.4058	-0.0569	-0.3127	
-1.014674	0.090402	0.046116	-0.98	32.41	-4.83	0.4128	-0.0474	-0.3016	
-1.016138	0.086376	0.036478	-2.1	29.61	-4.55	0.417	-0.0471	-0.2923	
-1.016748	0.079788	0.023912	-3.71	29.4	-4.34	0.4127	-0.0514	-0.2783	
-1.01992	0.083204	0.011834	-2.94	25.9	-3.57	0.4241	-0.0533	-0.2924	
-1.022116	0.083692	0.000854	-2.87	23.73	-2.73	0.4198	-0.0456	-0.2907	
-1.028582	0.085888	-0.00183	-2.52	23.38	-2.31	0.4282	-0.0453	-0.2814	
-1.019066	0.09162199	-0.00366	-1.54	19.81	-2.38	0.4339	-0.0438	-0.2814	
-1.170712	0.038918	0.0061	-1.4	15.96	-1.4	0.4296	-0.0418	-0.2657	
-1.01992	0.092476	0.048312	-11.06	-5.46	6.02	0.4352	-0.0418	-0.2642	
-0.968314	0.095038	-0.027328	-1.75	-26.81	6.44	0.4282	-0.0546	-0.2832	
-0.972584	0.077104	-0.035624	-3.57	12.39	3.71	0.431	-0.0498	-0.2768	
-0.978562	0.09211	-0.006344	-0.14	21.7	1.47	0.431	-0.0468	-0.2783	
-1.006622	0.09821	-0.002074	0.07	12.39	0.28	0.4352	-0.0574	-0.2724	
-0.998326	0.105164	-0.015006	-2.31	5.25	-0.42	0.4324	-0.0435	-0.2689	
-0.998814	0.110288	-0.014152	-1.47	10.92	-1.68	0.4366	-0.0511	-0.266	
-1.017236	0.0976	-0.037698	-0.84	18.2	-1.54	0.4267	-0.0511	-0.2659	
-1.030534	0.085156	-0.056486	0.77	24.36	-1.75	0.4394	-0.048	-0.2644	
-1.02175	0.082716	-0.06283	-0.07	20.51	-1.26	0.4408	-0.0508	-0.2551	
-1.003084	0.083448	-0.057218	1.12	23.52	-1.61	0.4421	-0.0568	-0.2475	
-1.0004	0.08357	-0.064172	1.54	24.22	-2.59	0.4464	-0.0416	-0.2549	
-1.007476	0.083448	-0.093208	1.19	26.11	-3.64	0.4379	-0.0523	-0.252	
-1.014674	0.088328	-0.10553	1.82	25.55	-4.62	0.4535	-0.0414	-0.2487	
-1.037122	0.087962	-0.110288	0.63	23.87	-4.69	0.445	-0.0459	-0.2456	
-1.048956	0.090036	-0.123586	0.98	27.51	-4.62	0.4562	-0.0413	-0.244	
-1.027972	0.088328	-0.123464	1.4	31.99	-4.2	0.4505	-0.0409	-0.23	
-1.000034	0.079666	-0.126636	1.4	31.29	-3.57	0.4548	-0.0472	-0.2333	
-0.980148	0.069784	-0.115656	0.91	32.55	-3.15	0.4561	-0.0439	-0.2254	
-0.973316	0.07686	-0.117242	1.05	35.28	-2.59	0.4547	-0.0469	-0.2208	
-0.991982	0.093452	-0.13603	-0.77	33.04	-2.52	0.4561	-0.0391	-0.219	
-1.016504	0.07991	-0.164944	-2.59	17.08	-2.17	0.4687	-0.0356	-0.2034	
-1.03761	0.066002	-0.192272	-0.63	32.48	-3.29	0.4575	-0.0482	-0.213	
-1.01504	0.070272	-0.191174	-4.27	20.09	-1.61	0.4659	-0.0356	-0.2019	
-0.998692	0.065148	-0.177022	-0.07	36.54	-1.82	0.4574	-0.0403	-0.2066	
-1.018456	0.066734	-0.254248	-0.91	32.9	-0.49	0.4672	-0.04	-0.1942	
-1.003694	0.080032	-0.21533	2.45	41.16	-0.84	0.4602	-0.0554	-0.193	
-1.008086	0.073078	-0.25254	-0.91	29.12	0.56	0.4588	-0.0445	-0.1896	
-1.003572	0.06893	-0.271572	0.98	31.99	-0.21	0.4714	-0.032	-0.18	
-1.01565	0.069296	-0.287798	3.22	36.89	-1.4	0.4727	-0.0424	-0.1678	
-1.016992	0.066856	-0.32513	10.5	52.92	-2.87	0.4671	-0.0362	-0.166	
-0.990396	0.065514	-0.304146	24.29	89.04	-7.84	0.4769	-0.0388	-0.1475	
-0.974658	0.054168	-0.346236	19.46	85.68	-7.63	0.4769	-0.0436	-0.1538	
-0.96746	0.05856	-0.371856	15.89	78.33	-7.14	0.4824	-0.0353	-0.1303	
-0.9638	0.064538	-0.39101	12.74	71.75	-5.88	0.4964	-0.0443	-0.1212	
-0.960262	0.057218	-0.422852	10.01	65.17	-4.97	0.4851	-0.0285	-0.1036	
-0.953918	0.04941	-0.450546	8.05	55.65	-3.29	0.4977	-0.0421	-0.0916	
-0.940376	0.050508	-0.465064	4.2	43.75	-2.1	0.4921	-0.0376	-0.0977	
-0.924394	0.052094	-0.467138	3.15	34.86	-1.75	0.4878	-0.0325	-0.0772	
-0.925004	0.055388	-0.475312	3.01	27.86	-1.68	0.4863	-0.0353	-0.0664	
-0.920978	0.054778	-0.484218	3.22	20.79	-2.24	0.4835	-0.023	-0.0661	
-0.916586	0.05002	-0.481046	3.57	14.63	-2.8	0.4891	-0.0368	-0.0649	
-0.912438	0.045018	-0.484706	2.94	9.52	-2.45	0.4919	-0.026	-0.0631	
-0.90829	0.039772	-0.480802	1.4	4.83	-1.47	0.4891	-0.0151	-0.0597	
-0.90768	0.039772	-0.476898	0.56	1.82	-0.56	0.4933	-0.0321	-0.0632	
-0.906582	0.045994	-0.47458	0.07	0.35	-0.07	0.4975	-0.0334	-0.054	
-0.902312	0.042334	-0.470798	-0.07	0	0	0.4947	-0.0305	-0.0601	
-0.902556	0.039894	-0.464454	0.35	0.91	-0.21	0.4876	-0.0366	-0.0555	
-0.908168	0.035502	-0.464698	0.35	2.73	-0.35	0.4792	-0.0351	-0.057	
-0.910486	0.034648	-0.471408	0.49	4.13	-0.35	0.4905	-0.032	-0.0601	
-0.907802	0.04148	-0.472628	0.42	4.48	-0.28	0.482	-0.0273	-0.0537	
-0.904386	0.042822	-0.47824	0.21	5.04	-0.14	0.4975	-0.0333	-0.0508	
-0.908412	0.043432	-0.483364	0.07	4.27	0.14	0.4933	-0.0291	-0.0663	
-0.906216	0.049532	-0.483974	-0.07	2.94	0.35	0.4961	-0.0351	-0.0602	
-0.900848	0.049654	-0.481412	0.49	2.45	0.35	0.4933	-0.0289	-0.0569	
-0.908778	0.038064	-0.487146	-0.07	1.12	0.63	0.4932	-0.0333	-0.0508	
-0.90829	0.038918	-0.487268	1.68	-0.42	0.07	0.4862	-0.032	-0.057	
-0.911462	0.065148	-0.488854	-0.77	-3.99	0.77	0.4876	-0.0335	-0.057	
-0.910242	0.042456	-0.493124	-0.35	-6.09	1.47	0.4919	-0.0412	-0.0557	
-0.91866	0.0488	-0.496418	0.7	-10.99	1.4	0.4876	-0.0351	-0.0571	
-0.924516	0.051362	-0.491538	0.84	-16.87	1.89	0.4961	-0.032	-0.0601	
-0.935252	0.054656	-0.488976	-0.28	-24.08	2.24	0.5032	-0.0262	-0.0725	
-0.943792	0.04758	-0.486414	-1.26	-34.51	2.66	0.4962	-0.0338	-0.0695	
-0.955626	0.048434	-0.474092	-2.73	-45.36	3.57	0.4934	-0.034	-0.0773	
-0.951112	0.049898	-0.453108	-5.25	-56.49	4.76	0.4948	-0.0309	-0.0757	
-0.963312	0.049776	-0.430294	-6.79	-66.36	5.74	0.485	-0.0298	-0.0927	
-0.982832	0.05246	-0.421388	-7.28	-73.78	6.44	0.4865	-0.0332	-0.1069	
-0.997472	0.051484	-0.394304	-9.03	-83.09	8.26	0.4796	-0.0245	-0.1269	
-1.017968	0.027694	-0.453474	-5.88	-83.93	7.21	0.4824	-0.0277	-0.1348	
-1.017114	0.05063	-0.34648	8.33	-17.5	1.75	0.4754	-0.0404	-0.1459	
-1.012112	0.042212	-0.38369	2.31	-11.06	3.99	0.4754	-0.0419	-0.146	
-1.006988	0.043066	-0.382348	0.56	-18.76	4.97	0.4811	-0.042	-0.1507	
-1.00406	0.047092	-0.376492	-4.76	-40.25	6.93	0.4698	-0.0344	-0.1536	
-0.992592	0.060512	-0.337452	-5.67	-63.07	7.98	0.4713	-0.036	-0.1567	
-1.003328	0.066978	-0.274134	-5.18	-63.56	7.84	0.4784	-0.044	-0.171	
-1.030778	0.066856	-0.251686	-3.99	-56.07	7.63	0.4784	-0.0518	-0.1743	
-1.04127	0.07442	-0.27145	-4.27	-58.31	7.63	0.463	-0.0416	-0.1958	
-1.00284	0.08235	-0.213378	-9.45	-75.6	8.33	0.4658	-0.0447	-0.1959	
-0.979782	0.100406	-0.163114	-5.53	-66.36	5.6	0.4645	-0.0481	-0.2084	
-0.966972	0.09076799	-0.131394	-7.07	-55.09	3.99	0.4603	-0.0499	-0.2193	
-0.9821	0.096136	-0.119438	-7.21	-48.72	2.45	0.4448	-0.05	-0.2224	
-0.998936	0.090524	-0.105164	-6.72	-43.61	1.82	0.4548	-0.0595	-0.2351	
-0.993202	0.101748	-0.096746	-9.45	-34.02	1.54	0.4435	-0.0411	-0.2362	
-0.981002	0.10675	-0.087108	-5.67	-24.43	-0.21	0.4408	-0.0539	-0.2552	
-0.967704	0.10126	-0.066612	-4.9	-15.19	-2.38	0.4366	-0.0586	-0.2568	
-1.025532	0.08418	-0.053314	-2.87	-5.53	-4.48	0.4464	-0.0505	-0.2426	
-1.107028	0.086376	-0.024888	0.7	-7.07	-0.98	0.4436	-0.0491	-0.2504	
-1.012966	0.078324	-0.06344	-2.87	-31.36	5.46	0.4478	-0.046	-0.2472	
-1.001376	0.079422	-0.055876	-0.07	-12.53	5.04	0.4493	-0.0494	-0.2613	
-0.998204	0.087718	-0.039406	1.96	-23.73	6.51	0.438	-0.054	-0.2583	
-0.991006	0.106628	-0.037576	1.05	-27.51	5.95	0.4464	-0.0523	-0.2552	
-0.986004	0.093818	-0.033672	3.43	-26.11	4.55	0.4437	-0.0511	-0.266	
-1.005036	0.06405	-0.037088	0.56	-35.91	4.62	0.4394	-0.048	-0.2659	
-0.99857	0.043432	-0.003172	-4.34	-44.24	5.39	0.4324	-0.0573	-0.2661	
-1.026752	0.08418	0.008417999	3.15	-18.2	1.4	0.424	-0.0548	-0.2894	
-1.028826	0.106506	0.02562	1.61	-34.93	3.29	0.4268	-0.0593	-0.2848	
-0.988932	0.115046	0.05673	-4.62	-48.16	6.16	0.4255	-0.0641	-0.2927	
-0.965508	0.119926	0.088084	-4.13	-42.7	6.3	0.4241	-0.0626	-0.2942	
-0.960506	0.116144	0.092354	-2.8	-31.92	6.86	0.4157	-0.049	-0.3032	
-0.957822	0.113582	0.110776	-0.28	-32.48	5.32	0.4255	-0.0613	-0.3036	
-0.960384	0.100528	0.10431	0.35	-27.93	4.41	0.4157	-0.0645	-0.3083	
-0.960994	0.101626	0.09821	2.03	-26.53	2.73	0.4185	-0.0537	-0.3065	
-0.950014	0.104066	0.11163	1.68	-26.67	1.75	0.4073	-0.0663	-0.3192	
-0.948306	0.113704	0.127612	0.14	-28	2.17	0.4016	-0.0616	-0.3159	
-0.946598	0.119804	0.139934	0.63	-23.38	2.73	0.3947	-0.0605	-0.3345	
-0.956602	0.127734	0.155428	-0.63	-23.45	3.36	0.4031	-0.0679	-0.3223	
-0.95892	0.115778	0.175924	-2.38	-26.74	4.34	0.3975	-0.0607	-0.3392	
-0.95831	0.10065	0.181048	-2.8	-25.83	3.92	0.3961	-0.0716	-0.3473	
-0.962336	0.101992	0.18605	-0.49	-20.72	3.01	0.3904	-0.06659999	-0.33	
-0.967094	0.112484	0.17873	1.05	-17.71	2.52	0.3778	-0.0684	-0.3409	
-0.962824	0.121878	0.178242	1.75	-15.54	2.24	0.3947	-0.0685	-0.3441	
-0.950624	0.128466	0.176046	1.05	-14.91	2.31	0.3792	-0.0702	-0.3487	
-0.958432	0.127002	0.182512	0.07	-12.67	1.4	0.3863	-0.0686	-0.3471	
-0.965752	0.12261	0.18117	-0.63	-10.08	0.35	0.3905	-0.0746	-0.3411	
-0.960872	0.121512	0.195322	-0.84	-8.75	-0.42	0.3849	-0.0764	-0.352	
-0.969778	0.118462	0.199958	-0.77	-6.58	-0.7	0.3821	-0.0703	-0.355	
-0.974414	0.119072	0.19947	-0.21	-4.55	-0.56	0.3764	-0.0734	-0.3534	
-0.9638	0.120658	0.200812	-0.07	-2.52	-0.14	0.3863	-0.0718	-0.3535	
-0.954406	0.119926	0.2013	-0.14	-0.84	0.14	0.3821	-0.0658	-0.3611	
-0.952454	0.1159	0.2013	-0.56	0.84	-0.42	0.3863	-0.0749	-0.3551	
-0.958554	0.112362	0.202886	-0.42	3.15	-1.47	0.3835	-0.0764	-0.3504	
-0.963678	0.108214	0.202642	0.14	5.67	-2.45	0.3863	-0.0719	-0.3566	
-0.967338	0.110654	0.19764	0.42	7.7	-2.8	0.3779	-0.0657	-0.3548	
-0.963678	0.112728	0.192028	0.84	9.31	-2.8	0.375	-0.06879999	-0.3549	
-0.954406	0.1159	0.188612	0.63	10.36	-3.01	0.3693	-0.07319999	-0.3456	
-0.954894	0.11956	0.188124	0.77	11.69	-3.36	0.3849	-0.0641	-0.3517	
-0.951478	0.11834	0.181414	0.49	13.09	-3.43	0.3933	-0.0639	-0.3455	
-0.95648	0.116998	0.180438	-0.28	15.33	-3.85	0.3863	-0.0687	-0.3503	
-0.9577	0.110776	0.174948	-0.56	17.15	-4.34	0.3877	-0.0624	-0.3454	
-0.958188	0.10858	0.164944	-0.7	18.62	-4.34	0.3961	-0.056	-0.336	
-0.964166	0.110288	0.1586	-0.77	20.23	-4.48	0.3919	-0.0576	-0.3391	
-0.970266	0.102602	0.14762	-0.91	21.7	-5.04	0.3947	-0.0651	-0.3331	
-0.968924	0.100894	0.143106	-1.12	26.46	-5.74	0.4017	-0.059	-0.333	
-0.967582	0.100528	0.133956	-1.4	23.24	-5.32	0.3932	-0.0633	-0.3206	
-0.970022	0.09455	0.124806	-1.4	26.6	-5.53	0.4003	-0.0621	-0.3362	
-0.966606	0.092842	0.115778	-1.61	27.02	-5.25	0.4074	-0.062	-0.3315	
-0.968924	0.093818	0.107482	-0.77	27.51	-5.11	0.4002	-0.0616	-0.3159	
-0.966606	0.09162199	0.102114	-0.56	29.75	-5.11	0.4087	-0.057	-0.3158	
-0.968802	0.093452	0.087718	0.42	29.47	-5.11	0.4129	-0.0553	-0.3111	
-0.991494	0.090402	0.088084	0.77	30.94	-4.55	0.4142	-0.0518	-0.2939	
-1.013942	0.0793	0.062708	1.96	31.92	-3.99	0.4128	-0.0519	-0.2955	
-1.016016	0.086254	0.043676	1.96	31.85	-3.64	0.4269	-0.0594	-0.2911	
-1.002352	0.09028	0.034526	2.59	29.4	-3.08	0.4297	-0.0549	-0.2956	
-1.006012	0.0854	0.016592	0.84	29.05	-2.17	0.4212	-0.0515	-0.2815	
-1.001376	0.091378	0.00915	0.21	29.4	-2.52	0.424	-0.0499	-0.2799	
-1.007598	0.083082	-0.01647	-0.14	24.29	-3.43	0.4367	-0.0593	-0.2849	
-1.020774	0.078446	-0.031354	0.63	25.83	-4.97	0.424	-0.0498	-0.2768	
-1.036634	0.079788	-0.031232	-0.63	22.75	-5.11	0.4296	-0.042	-0.2735	
-1.049444	0.085644	-0.038674	-0.35	19.04	-4.62	0.4253	-0.045	-0.2673	
-1.040538	0.091744	-0.03965	0.14	17.43	-4.48	0.4337	-0.057	-0.2568	
-1.031022	0.09577	-0.052582	-0.63	15.75	-3.99	0.4324	-0.0543	-0.2691	
-1.006378	0.091988	-0.044652	-0.77	16.03	-3.64	0.4366	-0.0496	-0.2675	
-0.985638	0.088938	-0.051118	-0.35	13.16	-3.5	0.4422	-0.0461	-0.2534	
-1.064328	0.047336	-0.031842	-1.54	10.36	-2.8	0.4408	-0.0418	-0.2627	
-1.025166	0.08723	0.035258	-6.44	0.77	2.59	0.4351	-0.0459	-0.244	
-0.97722	0.096746	-0.113216	-1.26	-28.35	5.74	0.4437	-0.034	-0.2625	
-0.98942	0.068686	-0.060634	-0.84	13.72	2.17	0.4422	-0.0416	-0.2564	
-0.984662	0.074176	-0.050508	-0.56	11.13	0.84	0.4366	-0.0557	-0.2661	
-1.01199	0.07124799	-0.042822	-1.75	2.24	-0.21	0.445	-0.0491	-0.2488	
-1.012966	0.063928	-0.062586	-3.01	8.89	-0.84	0.4465	-0.0463	-0.2612	
-1.007964	0.072468	-0.071858	-2.31	14.77	-1.47	0.4393	-0.0445	-0.2487	
-1.001864	0.073078	-0.064538	-2.31	11.34	-1.12	0.4253	-0.0478	-0.258	
-1.019676	0.069784	-0.077714	-1.47	14.28	-1.19	0.4393	-0.0398	-0.2439	
-1.024922	0.076128	-0.091256	-1.05	21.63	-1.12	0.4435	-0.0519	-0.238	
-1.021994	0.07869	-0.102724	-0.35	20.37	-0.56	0.4294	-0.0474	-0.2425	
-1.037122	0.089304	-0.122854	-1.54	25.41	-0.21	0.4365	-0.0428	-0.2408	
-1.025288	0.093452	-0.11529	-3.71	23.1	-1.68	0.4534	-0.0427	-0.2378	
-1.023336	0.095892	-0.10858	-2.8	24.29	-1.82	0.4534	-0.0427	-0.2378	
-1.002962	0.083814	-0.114192	-1.75	26.81	-1.68	0.4533	-0.0517	-0.2287	
-1.011136	0.080276	-0.127368	-1.96	25.76	-0.98	0.4547	-0.0455	-0.2285	
-1.035902	0.080764	-0.138104	-0.35	25.27	-0.98	0.4603	-0.039	-0.2159	
-1.029924	0.079422	-0.172996	1.82	29.4	-1.26	0.4518	-0.0358	-0.2111	
-1.013332	0.077226	-0.181292	2.31	27.86	-1.61	0.4561	-0.0483	-0.2162	
-1.01565	0.075274	-0.193126	2.31	26.04	-2.1	0.4504	-0.0389	-0.2097	
-1.03456	0.069296	-0.215696	1.54	22.89	-1.75	0.4659	-0.0387	-0.2035	
-1.049566	0.072468	-0.229482	1.89	19.74	-0.91	0.4574	-0.0477	-0.1928	
-1.049444	0.068198	-0.240706	1.05	14.7	-0.63	0.4588	-0.0464	-0.2021	
-1.022848	0.071004	-0.24827	1.54	15.12	-0.91	0.456	-0.0478	-0.1959	
-1.002718	0.075762	-0.232166	1.05	9.24	-0.77	0.4644	-0.0431	-0.1958	
-0.997472	0.078934	-0.22448	-0.14	1.33	-1.05	0.4602	-0.0384	-0.1926	
-1.001864	0.07869	-0.215086	-0.98	-1.47	-2.03	0.4588	-0.043	-0.1911	
-1.00833	0.076494	-0.197518	-2.24	-4.34	-2.52	0.4616	-0.034	-0.1987	
-1.01321	0.069418	-0.20435	-2.31	-3.15	-2.31	0.4588	-0.037	-0.1956	
-1.006012	0.068076	-0.185318	-1.33	-0.28	-2.24	0.4659	-0.0432	-0.1989	
-0.987468	0.071858	-0.17507	-0.49	1.61	-2.17	0.4658	-0.0354	-0.1941	
-0.987224	0.072102	-0.183	0	4.27	-2.17	0.4673	-0.0416	-0.1974	
-0.986126	0.068442	-0.18605	0.21	4.97	-2.1	0.4673	-0.0325	-0.2034	
-0.993446	0.071736	-0.18422	-0.42	4.41	-1.96	0.463	-0.0324	-0.1955	
-0.99552	0.070028	-0.189832	-0.07	6.09	-1.75	0.4617	-0.0248	-0.2016	
-1.00467	0.064172	-0.199592	0.21	7.77	-1.68	0.4672	-0.0338	-0.1909	
-1.009916	0.055876	-0.212402	0.14	7.7	-1.26	0.4574	-0.0292	-0.1923	
-1.010282	0.062464	-0.225578	-0.14	7.42	-0.7	0.4785	-0.043	-0.1912	
-1.006988	0.065636	-0.225944	-0.42	7	-0.28	0.4644	-0.043	-0.188	
-1.003816	0.06832	-0.22875	-0.35	5.81	-0.21	0.4574	-0.0322	-0.1908	
-1.00101	0.06954	-0.219966	0.28	5.74	-0.63	0.4728	-0.032	-0.1816	
-1.008574	0.069174	-0.23424	-0.07	2.52	-0.84	0.4658	-0.0304	-0.1784	
-1.00833	0.063318	-0.233386	0.35	1.68	-0.98	0.4673	-0.0324	-0.1956	
-1.005036	0.060512	-0.230214	0.49	1.26	-0.84	0.463	-0.0413	-0.1849	
-0.99918	0.059536	-0.228384	-0.21	-1.68	-0.28	0.4658	-0.0397	-0.1802	
-1.000278	0.061	-0.222528	-1.12	-4.83	0.21	0.4673	-0.0261	-0.1939	
-1.000522	0.059658	-0.217404	-1.89	-7.14	0.56	0.4616	-0.0276	-0.1907	
-1.000034	0.05978	-0.210084	-2.31	-8.75	0.77	0.4658	-0.0321	-0.1862	
-1.002108	0.060756	-0.204106	-2.59	-9.31	1.12	0.4714	-0.0366	-0.1817	
-0.994788	0.06344	-0.19825	-2.59	-8.68	1.47	0.4573	-0.0382	-0.1816	
-0.989908	0.067832	-0.195078	-2.1	-6.72	1.4	0.463	-0.0353	-0.1894	
-0.994544	0.071858	-0.195322	-1.54	-4.69	1.19	0.4672	-0.0292	-0.1908	
-1.002352	0.074298	-0.200812	-1.12	-3.78	1.19	0.4687	-0.0462	-0.1944	
-1.014308	0.074786	-0.202398	-1.12	-4.9	1.33	0.4685	-0.0425	-0.1709	
-1.027728	0.076982	-0.22082	2.24	-2.45	0.42	0.456	-0.04	-0.1926	
-1.02724	0.079544	-0.21777	5.11	0.98	-0.56	0.4673	-0.0293	-0.1955	
-1.032364	0.07442	-0.231312	6.09	0.21	-1.05	0.4644	-0.0368	-0.1879	
-1.03761	0.070028	-0.23668	6.72	2.03	-1.33	0.4574	-0.0355	-0.1987	
-1.04493	0.06405	-0.244366	6.37	2.66	-0.98	0.4616	-0.0384	-0.191	
-1.045296	0.058072	-0.253516	4.62	0.28	-0.07	0.4602	-0.037	-0.1972	
-1.051152	0.05673	-0.255712	1.96	-9.66	1.61	0.4729	-0.0416	-0.1974	
-1.043954	0.055266	-0.25376	-1.26	-27.16	3.64	0.4659	-0.0354	-0.1956	
-1.036146	0.05124	-0.229726	-2.45	-33.88	4.83	0.4658	-0.0337	-0.1878	
-1.02236	0.056486	-0.212158	-4.2	-32.48	5.67	0.4546	-0.0403	-0.205	
-1.034438	0.069906	-0.20496	-3.22	-33.81	5.74	0.4644	-0.0293	-0.1955	
-1.038098	0.0732	-0.20069	-4.69	-42	5.81	0.4575	-0.0359	-0.2159	
-1.03151	0.081374	-0.163724	-5.39	-46.48	4.55	0.4547	-0.0377	-0.2252	
-1.020042	0.088084	-0.141032	-6.44	-38.99	3.36	0.4491	-0.0456	-0.2332	
-1.013942	0.097722	-0.122122	-5.67	-37.94	2.38	0.4491	-0.0426	-0.2331	
-1.006988	0.10187	-0.10309	-4.41	-37.87	0.77	0.4478	-0.0474	-0.2426	
-0.995398	0.093208	-0.079788	-7.14	-34.79	0.35	0.4407	-0.0382	-0.2454	
-0.983076	0.09747799	-0.05185	-4.27	-28.91	-0.91	0.4352	-0.037	-0.2563	
-1.000034	0.089304	-0.040382	0.07	-22.12	-2.52	0.4296	-0.0433	-0.2626	
-1.00833	0.083814	-0.014396	2.94	-10.78	-3.5	0.438	-0.0431	-0.2564	
-1.08153	0.075762	0.006832	5.11	-1.4	-2.17	0.4408	-0.0371	-0.2625	
-1.040904	0.080032	-0.009516	-2.59	-16.1	3.85	0.4366	-0.0431	-0.2564	
-0.992592	0.083448	-0.039772	1.47	-7.98	3.92	0.4338	-0.0355	-0.2593	
-0.992714	0.07808	-0.034282	1.75	5.11	3.5	0.4351	-0.0447	-0.2549	
-1.004182	0.07515199	-0.041846	2.73	-5.67	3.08	0.4337	-0.0369	-0.2547	
-1.011868	0.079788	-0.050264	0.7	-12.53	3.22	0.4366	-0.0403	-0.2673	
-1.021018	0.08235	-0.059536	1.05	-14.07	2.87	0.4352	-0.0495	-0.2644	
-1.025654	0.080032	-0.047946	2.52	-17.22	2.45	0.4324	-0.0526	-0.266	
-1.02602	0.072712	-0.031232	3.85	-21.14	3.15	0.438	-0.0479	-0.2612	
-1.012112	0.082106	-0.026718	4.83	-24.92	3.85	0.4338	-0.0451	-0.2736	
-0.997106	0.078324	-0.01281	2.1	-29.47	4.69	0.4296	-0.0483	-0.2783	
-0.986126	0.08845	0.000732	4.9	-27.58	3.43	0.4282	-0.0529	-0.2769	
-0.999912	0.092232	0.015494	1.33	-31.29	3.29	0.4282	-0.0546	-0.2832	
-1.016748	0.104798	0.052216	4.06	-26.67	1.89	0.4212	-0.0393	-0.2874	
-1.027606	0.124928	0.064904	3.99	-29.26	1.4	0.4241	-0.0614	-0.3082	
-0.98271	0.082106	0.078324	-2.17	-41.44	4.34	0.4171	-0.0566	-0.3003	
-0.996008	0.10248	0.087352	-1.68	-33.18	5.46	0.4227	-0.0504	-0.3002	
-0.980392	0.105164	0.102724	3.85	-21.63	6.79	0.41	-0.0459	-0.3031	
-0.966728	0.107238	0.116876	0.56	-30.52	5.32	0.4129	-0.0552	-0.3065	
-0.948916	0.102724	0.107482	-0.98	-28.28	3.99	0.4086	-0.0584	-0.3096	
-0.94001	0.096624	0.113338	1.89	-22.75	1.4	0.4157	-0.0678	-0.3161	
-0.947818	0.10248	0.1281	1.33	-20.3	0.56	0.4017	-0.0481	-0.3296	
-0.95953	0.09211	0.138714	-0.84	-24.43	1.47	0.4059	-0.0603	-0.3268	
-0.967704	0.092964	0.156038	0.14	-23.73	2.59	0.403	-0.0601	-0.3159	
-0.977098	0.098942	0.1647	1.4	-24.92	3.92	0.3905	-0.0653	-0.3393	
-0.980392	0.104432	0.168726	2.38	-21.7	4.06	0.3989	-0.059	-0.3345	
-0.980392	0.108946	0.173484	3.22	-19.74	3.57	0.3934	-0.0486	-0.3514	
-0.969778	0.105896	0.173728	2.73	-16.66	2.59	0.3947	-0.0546	-0.3437	
-0.960872	0.106994	0.175558	1.75	-16.8	1.89	0.3891	-0.0577	-0.3453	
-0.957944	0.106994	0.181536	1.19	-16.45	1.96	0.3792	-0.0638	-0.3423	
-0.970876	0.109556	0.18117	0.84	-14.7	2.1	0.3849	-0.0593	-0.3469	
-0.982832	0.111508	0.186294	-0.28	-15.75	2.38	0.3806	-0.0655	-0.347	
-0.988566	0.1159	0.186416	0.21	-14.84	2.31	0.3863	-0.0687	-0.3518	
-0.985394	0.122366	0.195078	-0.21	-14.91	2.66	0.3751	-0.0534	-0.3545	
-0.97783	0.12383	0.199958	-0.63	-14	2.38	0.3652	-0.0689	-0.3579	
-0.9699	0.11834	0.203618	-1.05	-13.23	1.75	0.3708	-0.0581	-0.3577	
-0.963922	0.115534	0.210816	-1.4	-13.65	1.61	0.3709	-0.0676	-0.3688	
-0.965874	0.11651	0.212036	-1.33	-11.06	1.4	0.3751	-0.0751	-0.3597	
-0.966728	0.115412	0.213866	-1.47	-10.01	1.12	0.3779	-0.0659	-0.3626	
-0.965508	0.117364	0.219966	-1.19	-8.68	0.7	0.3751	-0.06439999	-0.3626	
-0.965264	0.1159	0.221552	-0.7	-6.37	0.07	0.3807	-0.072	-0.3597	
-0.952088	0.113094	0.228018	-0.28	-4.48	-0.28	0.3694	-0.0718	-0.3534	
-0.945622	0.111874	0.232898	0.14	-2.03	-0.77	0.3638	-0.0721	-0.3627	
-0.943426	0.111996	0.238998	0.49	-0.21	-1.33	0.3737	-0.0661	-0.3688	
-0.943426	0.112972	0.242048	0.91	1.96	-1.75	0.3652	-0.0674	-0.3626	
-0.945134	0.114436	0.245098	1.75	3.92	-1.68	0.3737	-0.06439999	-0.3625	
-0.94428	0.11407	0.241682	1.75	6.51	-1.68	0.3652	-0.0628	-0.3625	
-0.949648	0.113948	0.24034	1.82	8.96	-2.03	0.3652	-0.0706	-0.3642	
-0.947818	0.113948	0.231922	1.82	10.64	-2.31	0.368	-0.0751	-0.3612	
-0.937326	0.108214	0.225212	1.05	12.32	-2.38	0.3779	-0.0596	-0.3578	
-0.934276	0.105652	0.2196	0.49	14.63	-2.73	0.3624	-0.0626	-0.3546	
-0.935008	0.104188	0.213134	0.28	16.59	-3.36	0.3751	-0.0659	-0.361	
-0.94367	0.104798	0.207644	-0.14	17.85	-3.99	0.3723	-0.069	-0.3627	
-0.949282	0.103822	0.201666	-0.49	19.81	-4.48	0.3736	-0.06879999	-0.3549	
-0.958432	0.103212	0.193248	-0.91	22.61	-4.97	0.3821	-0.0702	-0.3518	
-0.959774	0.10126	0.184952	-0.84	24.78	-4.97	0.3806	-0.0592	-0.3406	
-0.965386	0.105774	0.175802	-1.4	27.44	-4.55	0.3863	-0.0592	-0.3407	
-0.960994	0.10309	0.16592	-1.33	28.91	-4.13	0.3876	-0.0576	-0.3375	
-0.95099	0.100528	0.157624	-2.17	28.63	-4.48	0.3933	-0.056	-0.3375	
-0.942206	0.094306	0.138104	-1.47	30.73	-5.81	0.4031	-0.0558	-0.3282	
-0.945012	0.09942999	0.139812	-2.31	34.09	-7.07	0.4017	-0.0574	-0.3329	
-0.953308	0.095038	0.13115	-2.8	32.48	-7.07	0.4017	-0.0558	-0.3282	
-0.969656	0.09211	0.117608	-2.52	33.18	-6.58	0.4158	-0.054	-0.322	
-0.978806	0.083082	0.1159	-2.03	34.09	-4.83	0.4115	-0.051	-0.3219	
-0.98149	0.080032	0.097966	-0.7	33.11	-2.73	0.4129	-0.0568	-0.3096	
-0.982588	0.090036	0.08686399	-0.7	31.71	-1.33	0.4185	-0.0414	-0.3093	
-0.991494	0.09394	0.066856	-0.49	32.97	-1.33	0.4213	-0.0489	-0.3017	
-1.002108	0.09272	0.05368	0.91	31.36	-2.94	0.4185	-0.0459	-0.3063	
-0.998814	0.084302	0.03111	-2.17	29.96	-3.22	0.4213	-0.0519	-0.2971	
-1.009428	0.07869	0.011834	-2.52	27.09	-3.29	0.4226	-0.0592	-0.2817	
-1.041514	0.082594	-0.0061	-3.15	26.74	-2.94	0.431	-0.0483	-0.2783	
-1.037854	0.07381	-0.010736	-1.89	21.84	-2.17	0.4239	-0.0605	-0.2724	
-1.036878	0.077348	-0.02135	-2.31	22.54	-1.54	0.4268	-0.0483	-0.2783	
-1.044686	0.077104	-0.036722	-2.1	19.25	-1.82	0.4423	-0.0481	-0.2691	
-1.031144	0.095282	-0.024156	-1.33	18.34	-1.89	0.4409	-0.0389	-0.2719	
-1.026264	0.099064	-0.04087	-1.19	15.75	-2.24	0.431	-0.0436	-0.2735	
-1.028704	0.090036	-0.037088	-0.84	13.37	-2.73	0.4466	-0.0406	-0.2767	
-1.012356	0.088206	-0.04209	-0.56	12.88	-3.15	0.4451	-0.0402	-0.2626	
-1.01443	0.07869	-0.04026	0.14	9.87	-3.36	0.4394	-0.0402	-0.261	
-1.031876	0.064294	-0.049654	1.19	11.83	-3.22	0.4408	-0.0386	-0.2579	
-1.068842	0.10919	0.050508	-1.96	7.77	1.4	0.4408	-0.0432	-0.2596	
-0.994544	0.102724	-0.132736	1.19	-17.78	4.34	0.4465	-0.0403	-0.2658	
-1.02114	0.07808	-0.073322	-2.31	21.07	2.17	0.4408	-0.0386	-0.261	
-1.006866	0.084912	-0.042334	-3.57	19.25	1.96	0.4437	-0.0542	-0.2677	
-1.028948	0.082838	-0.070882	-3.01	13.65	0.77	0.4408	-0.0464	-0.2628	
-1.013454	0.078324	-0.094428	-3.36	20.37	0	0.4423	-0.0433	-0.2643	
-1.019554	0.072224	-0.08967	-2.52	23.31	-0.7	0.4422	-0.0508	-0.2567	
-1.018944	0.075396	-0.103456	-1.96	25.41	-0.14	0.445	-0.0368	-0.2501	
-1.031144	0.090524	-0.11102	-2.45	25.13	0.21	0.4435	-0.035	-0.2376	
-1.03334	0.1037	-0.12078	-3.08	25.06	-0.14	0.4506	-0.0507	-0.2505	
-1.005524	0.10126	-0.120048	-1.75	27.65	-0.49	0.4534	-0.0459	-0.2426	
-1.028338	0.086254	-0.132004	-2.66	24.15	-0.42	0.4435	-0.0412	-0.2408	
-1.007964	0.074908	-0.135542	-2.31	25.83	-0.56	0.4548	-0.0286	-0.2281	
-0.997838	0.07625	-0.132126	-1.26	26.11	-0.7	0.4562	-0.0318	-0.236	
-1.016626	0.077958	-0.143838	-0.28	23.94	-0.84	0.4448	-0.0422	-0.2175	
-0.994422	0.083692	-0.148962	1.47	28.07	-0.98	0.4618	-0.0314	-0.2204	
-0.988932	0.085034	-0.170556	0.77	21.98	-1.61	0.4616	-0.0418	-0.202	
-1.025532	0.083814	-0.182268	2.59	27.72	-2.66	0.4631	-0.0405	-0.2129	
-1.023336	0.080032	-0.206546	1.82	26.88	-2.24	0.4659	-0.0449	-0.2037	
-1.026508	0.079422	-0.20008	2.38	24.5	-1.89	0.4659	-0.0386	-0.1988	
-1.037	0.08845	-0.225944	4.62	36.54	-1.4	0.463	-0.0478	-0.199	
-1.014918	0.072956	-0.2379	-0.56	15.75	0.14	0.4673	-0.0386	-0.2004	
-1.00284	0.082716	-0.223748	0.91	21.91	-0.21	0.47	-0.0351	-0.1816	
-1.002962	0.081984	-0.23119	1.61	21.07	-0.84	0.4714	-0.0383	-0.1879	
-1.002352	0.080032	-0.229482	2.59	23.17	-1.05	0.4643	-0.0381	-0.1785	
-1.006622	0.071004	-0.260958	1.4	20.02	-0.77	0.47	-0.038	-0.1755	
-0.999668	0.072712	-0.251564	2.24	21.42	-0.7	0.4755	-0.0439	-0.1663	
-0.997716	0.076006	-0.267424	3.64	24.64	-0.98	0.477	-0.0302	-0.1706	
-0.998814	0.075274	-0.271572	12.88	43.05	-3.92	0.4713	-0.0439	-0.1663	
-0.986614	0.068686	-0.281698	13.16	45.08	-4.34	0.4699	-0.0407	-0.1615	
-0.972828	0.06734399	-0.289506	12.88	45.01	-4.69	0.4839	-0.0388	-0.1444	
-0.97173	0.066612	-0.310002	10.99	44.45	-4.34	0.4769	-0.0373	-0.149	
-0.970876	0.063318	-0.327692	10.01	43.12	-4.13	0.4697	-0.0355	-0.1349	
-0.971364	0.059658	-0.350018	8.12	39.55	-3.57	0.4739	-0.0353	-0.1271	
-0.967582	0.064172	-0.356728	8.89	39.41	-3.71	0.4753	-0.0306	-0.1254	
-0.960628	0.060268	-0.37149	7.98	37.1	-3.29	0.4739	-0.0274	-0.1222	
-0.954406	0.060268	-0.384422	6.86	34.23	-2.94	0.4837	-0.0364	-0.11	
-0.952332	0.05978	-0.398086	6.02	31.64	-2.87	0.4893	-0.0239	-0.1051	
-0.946598	0.056852	-0.400892	4.9	27.23	-2.94	0.4822	-0.0359	-0.0929	
-0.946354	0.055266	-0.41846	4.76	25.06	-2.45	0.4822	-0.0454	-0.0994	
-0.939888	0.050386	-0.427488	3.08	19.11	-2.52	0.4921	-0.039	-0.09299999	
-0.940986	0.046482	-0.428708	2.17	13.51	-1.89	0.485	-0.0312	-0.0881	
-0.939766	0.047458	-0.434442	1.54	9.24	-0.98	0.4808	-0.0407	-0.0977	
-0.947818	0.050752	-0.444934	0.21	3.36	-0.7	0.492	-0.0247	-0.0755	
-0.932812	0.049288	-0.43615	-0.42	-2.38	0.21	0.4892	-0.0327	-0.0866	
-0.939156	0.050386	-0.435174	-1.68	-7.91	0.91	0.4935	-0.0297	-0.0881	
-0.947086	0.052826	-0.431026	-2.94	-14.84	1.54	0.4906	-0.028	-0.0849	
-0.950746	0.052582	-0.42456	-4.06	-20.93	2.24	0.4879	-0.0174	-0.0925	
-0.951722	0.054778	-0.414312	-5.46	-27.02	2.94	0.4794	-0.0328	-0.0897	
-0.953918	0.056364	-0.40016	-7	-32.83	3.43	0.4808	-0.0284	-0.0989	
-0.958188	0.05734	-0.388936	-7.63	-37.52	3.36	0.4893	-0.0408	-0.104	
-0.967216	0.058072	-0.36905	-8.33	-41.79	3.71	0.4767	-0.0289	-0.1176	
-0.971364	0.05978	-0.355142	-8.33	-44.8	4.06	0.4781	-0.0257	-0.116	
-0.974536	0.06222	-0.341112	-7.98	-45.78	3.92	0.4824	-0.0369	-0.1319	
-0.974902	0.067588	-0.325496	-7.98	-47.39	3.99	0.4825	-0.034	-0.138	
-0.985882	0.069662	-0.307562	-8.26	-48.93	4.13	0.4768	-0.0248	-0.1409	
-1.003206	0.0549	-0.335988	-6.58	-48.72	3.43	0.4755	-0.042	-0.1522	
-1.004182	0.068808	-0.303536	7.56	-27.79	-0.42	0.4825	-0.0358	-0.1474	
-1.009184	0.068198	-0.298412	5.18	-13.86	0.14	0.4769	-0.0407	-0.1584	
-1.024068	0.066124	-0.307928	1.12	-8.05	1.61	0.4741	-0.0374	-0.1505	
-1.029802	0.06405	-0.326716	-2.24	-26.18	3.43	0.4741	-0.0376	-0.1599	
-1.026386	0.059902	-0.282674	-3.36	-42.84	4.06	0.4798	-0.0425	-0.1694	
-1.009062	0.062708	-0.267058	-4.69	-40.04	4.41	0.4657	-0.0365	-0.1754	
-1.006012	0.074298	-0.265472	-4.55	-38.64	4.06	0.4657	-0.0473	-0.1788	
-1.00894	0.078568	-0.255346	-4.41	-44.31	3.43	0.4672	-0.0446	-0.1912	
-1.02297	0.089182	-0.238388	-3.71	-48.09	2.45	0.4659	-0.0262	-0.1954	
-1.01748	0.078446	-0.220454	-4.83	-43.96	2.24	0.4645	-0.0495	-0.2022	
-1.025898	0.08052	-0.21045	-4.76	-41.16	1.54	0.4546	-0.0341	-0.2049	
-1.024068	0.08052	-0.189954	-6.86	-41.09	0.49	0.4603	-0.0562	-0.2242	
-1.022238	0.084668	-0.165188	-4.13	-40.53	-1.68	0.4477	-0.03	-0.225	
-1.031144	0.084546	-0.15189	2.94	-39.48	-3.99	0.4562	-0.0362	-0.2268	
-1.070062	0.07503	-0.110044	5.25	-32.13	-5.11	0.4534	-0.0395	-0.2362	
-1.062376	0.084058	-0.073322	-3.85	-38.64	-0.42	0.4464	-0.0397	-0.2439	
-1.018822	0.083936	-0.099552	-3.5	-44.87	1.05	0.438	-0.0416	-0.2548	
-0.998326	0.080154	-0.056486	-3.15	-28.63	0.84	0.4479	-0.054	-0.2614	
-0.989908	0.078568	-0.025254	-0.35	-23.66	1.33	0.4338	-0.0354	-0.2562	
-0.996252	0.084668	-0.031232	-0.14	-22.96	2.38	0.4352	-0.0249	-0.2653	
-0.99796	0.087352	-0.023668	0.91	-22.26	2.66	0.4422	-0.0479	-0.2628	
-0.994056	0.087718	-0.031232	0.07	-18.9	3.22	0.431	-0.0418	-0.2626	
-0.986736	0.083204	-0.006466	-0.14	-16.66	3.22	0.4367	-0.0498	-0.2753	
-1.001132	0.072102	-0.026718	0.07	-20.02	3.22	0.4394	-0.045	-0.2674	
-1.005524	0.064904	-0.011102	-1.68	-26.74	4.2	0.4268	-0.0466	-0.2705	
-1.00162	0.09076799	-0.00549	-1.54	-28.28	4.55	0.4367	-0.0485	-0.2862	
-1.017358	0.105652	0.022448	-1.05	-25.13	4.83	0.424	-0.0392	-0.2827	
-1.002962	0.107482	0.052582	-2.38	-26.95	4.41	0.4241	-0.0426	-0.2953	
-0.948428	0.09747799	0.064416	-3.08	-30.66	2.03	0.4241	-0.0456	-0.2938	
-0.912804	0.081374	0.085766	-2.17	-30.24	1.47	0.4157	-0.0505	-0.3048	
-0.919392	0.085766	0.106506	-2.31	-26.74	2.24	0.4171	-0.0537	-0.3096	
-0.92476	0.081862	0.117608	-4.2	-22.12	1.33	0.4142	-0.0503	-0.297	
-0.93086	0.077592	0.127734	-4.97	-19.32	0.28	0.41	-0.0396	-0.2983	
-0.934154	0.073078	0.143716	-2.45	-14.56	0.42	0.4115	-0.0584	-0.3112	
-0.931104	0.068442	0.151402	-1.89	-10.15	2.1	0.4115	-0.0415	-0.3108	
-0.938546	0.077714	0.14091	-0.35	-6.16	3.43	0.41	-0.0551	-0.3002	
-0.919392	0.06588	0.148474	-1.54	-5.81	5.18	0.4115	-0.0538	-0.3126	
-0.953186	0.08723	0.119316	-0.98	-5.11	3.43	0.4172	-0.0494	-0.3204	
-0.964654	0.09455	0.095038	1.61	4.76	3.01	0.4016	-0.0476	-0.3093	
-0.987346	0.096136	0.08479	1.89	4.69	1.96	0.4171	-0.0582	-0.305	
-1.017846	0.099308	0.069906	1.4	4.62	2.03	0.4185	-0.0538	-0.3111	
-1.030778	0.104432	0.064294	0.42	4.41	2.59	0.4199	-0.0506	-0.3095	
-1.025166	0.115046	0.05734	0.21	3.5	2.66	0.4114	-0.0535	-0.3002	
-1.023946	0.117486	0.052826	0.35	0.63	2.38	0.4143	-0.049	-0.3047	
-1.017724	0.108214	0.054534	0.07	0.14	2.38	0.4213	-0.0474	-0.3032	
-1.005402	0.098698	0.059048	-0.35	-1.12	2.45	0.4129	-0.0552	-0.308	
-0.991616	0.095038	0.07259	-0.28	-1.61	2.24	0.4115	-0.0614	-0.3097	
-0.995032	0.099308	0.08235	-0.14	-0.84	1.54	0.41	-0.0536	-0.3048	
-1.002352	0.100894	0.09333	-0.07	0.07	0.91	0.4114	-0.0629	-0.3051	
-1.008208	0.105042	0.088328	0.77	1.12	0.98	0.4115	-0.0661	-0.3114	
-1.001254	0.10614	0.082228	0.42	2.31	1.61	0.4171	-0.0645	-0.3098	
-0.986004	0.111386	0.082716	0.56	3.36	2.17	0.4044	-0.0566	-0.3002	
-0.994178	0.116266	0.072346	1.4	3.43	2.38	0.4143	-0.0537	-0.3064	
-1.008086	0.11224	0.06954	2.1	6.65	1.96	0.4114	-0.0552	-0.3049	
-1.010526	0.108336	0.066124	0.91	2.38	1.05	0.4185	-0.0554	-0.3143	
-1.014674	0.10553	0.061732	1.96	5.04	0.49	0.4157	-0.0553	-0.3112	
-1.00406	0.10797	0.062464	1.96	5.81	0.42	0.4269	-0.0566	-0.3035	
-0.995276	0.113704	0.055022	1.4	5.74	0.7	0.4128	-0.0597	-0.3019	
-1.01016	0.112728	0.054656	0.91	5.74	0.77	0.4227	-0.0551	-0.3018	
-1.026874	0.11346	0.05185	0.21	5.32	0.91	0.4199	-0.0567	-0.3065	
-1.024312	0.11346	0.051606	0.14	5.67	-0.14	0.4199	-0.063	-0.3114	
-1.017602	0.113582	0.054534	0.63	4.13	-1.33	0.4114	-0.066	-0.3052	
-1.022604	0.114314	0.042212	-0.56	6.09	-1.96	0.4143	-0.0615	-0.3113	
-1.025898	0.115168	0.0427	-0.77	5.53	-1.4	0.4142	-0.0658	-0.2974	
-1.008452	0.124074	0.047946	-1.54	4.62	-1.12	0.4213	-0.0473	-0.297	
-0.995154	0.128466	0.03599	-0.91	4.2	-1.75	0.4128	-0.0597	-0.3003	
-1.007842	0.119316	0.031354	-1.19	2.31	-4.13	0.41	-0.0504	-0.297	
-1.035048	0.116632	0.031598	-2.03	1.4	-6.09	0.4184	-0.0518	-0.2955	
-1.039806	0.111386	0.02989	-2.1	2.73	-6.79	0.417	-0.0596	-0.2972	
-1.02968	0.10614	0.031964	-2.24	0.35	-6.79	0.4142	-0.0581	-0.3003	
-1.025166	0.104432	0.035746	-3.15	-0.14	-7.35	0.4227	-0.0472	-0.2954	
-1.007842	0.106384	0.040626	-4.34	-0.28	-8.54	0.4241	-0.0426	-0.2953	
-0.992226	0.103456	0.05246	-4.27	-1.4	-9.38	0.4227	-0.0471	-0.2923	
-0.9943	0.1037	0.060024	-3.71	-0.21	-10.15	0.4129	-0.0414	-0.3077	
-1.001254	0.09272	0.058072	-3.15	2.38	-9.94	0.4199	-0.0505	-0.3017	
-0.989176	0.072102	0.059536	-2.87	0.28	-8.89	0.4242	-0.0413	-0.3046	
-0.982222	0.06222	0.060268	-1.54	0.49	-8.12	0.4214	-0.0461	-0.311	
-0.976732	0.064416	0.056974	-0.91	2.59	-7.84	0.4171	-0.052	-0.3002	
-0.98088	0.06039	0.057096	-0.35	4.48	-8.19	0.4213	-0.0382	-0.303	
-0.994544	0.0549	0.05246	-0.07	4.69	-7.7	0.4256	-0.0366	-0.303	
-1.009306	0.050874	0.047458	-0.77	5.39	-6.09	0.4199	-0.0334	-0.2966	
-1.016992	0.046726	0.03721	-1.4	5.25	-4.27	0.4199	-0.0303	-0.2981	
-1.010892	0.048922	0.037332	-0.91	4.55	-3.36	0.4185	-0.0349	-0.2935	
-1.004548	0.04941	0.03294	0.07	4.62	-3.29	0.4269	-0.0303	-0.295	
-1.008574	0.05734	0.025742	0.28	5.11	-3.01	0.4255	-0.0318	-0.2966	
-1.013332	0.060146	0.025376	0.56	4.76	-2.52	0.4326	-0.0304	-0.2997	
-1.014796	0.058926	0.02074	0.91	4.06	-1.96	0.417	-0.0364	-0.292	
-1.018212	0.050874	0.020984	1.26	3.15	-1.12	0.4213	-0.0305	-0.3043	
-1.02297	0.053436	0.01891	1.26	2.8	0.14	0.4325	-0.0363	-0.2905	
-1.011258	0.058804	0.022082	1.4	1.54	0.49	0.4354	-0.0317	-0.2904	
-1.00467	0.061488	0.027694	2.1	0.35	0.84	0.4284	-0.0304	-0.3028	
-1.013332	0.06771	0.03172	2.31	2.45	1.54	0.4297	-0.0316	-0.2857	
-1.02724	0.060268	0.025376	1.75	0.84	2.94	0.4297	-0.0333	-0.292	
-1.029924	0.06527	0.02501	2.45	1.19	2.66	0.4226	-0.0424	-0.2875	
-1.0187	0.072102	0.025376	3.29	1.12	1.61	0.4297	-0.0331	-0.2873	
-1.013454	0.078812	0.022814	4.62	2.59	0.35	0.4297	-0.0347	-0.2889	
-1.010038	0.076494	0.01586	5.32	1.89	-0.28	0.4199	-0.0396	-0.2968	
-1.014064	0.068076	0.013908	4.27	1.47	0.07	0.4311	-0.0441	-0.2954	
-1.017846	0.063074	0.008417999	4.06	-0.14	1.05	0.4255	-0.0424	-0.2891	
-1.015406	0.074176	0.010248	3.71	-0.42	1.68	0.4241	-0.0394	-0.2905	
-1.017602	0.080642	0.00732	3.85	-1.47	1.68	0.4212	-0.0547	-0.2847	
-1.019432	0.081008	0.014274	2.73	-2.31	1.4	0.4213	-0.0396	-0.2999	
-1.017236	0.066124	0.01586	1.54	-3.64	1.19	0.4213	-0.0456	-0.2938	
-1.01809	0.062342	0.016836	1.05	-4.34	0.91	0.4312	-0.041	-0.2953	
-1.016504	0.061488	0.023302	0.98	-5.25	1.12	0.4185	-0.0364	-0.2935	
-1.012112	0.060878	0.022448	0.98	-5.04	1.33	0.4213	-0.0472	-0.2954	
-1.022604	0.068442	0.026718	1.47	-5.04	2.1	0.4283	-0.0408	-0.2875	
-1.020774	0.064782	0.03233	-0.28	-5.25	3.64	0.4157	-0.0427	-0.2984	
-1.016504	0.067588	0.032452	-0.7	-6.02	4.62	0.4241	-0.0474	-0.3017	
-1.009794	0.071614	0.030988	-1.68	-5.74	5.25	0.4185	-0.0364	-0.2935	
-0.999424	0.068442	0.03538	-2.38	-6.79	4.9	0.4255	-0.0366	-0.3014	
-0.992348	0.066856	0.04575	-2.52	-7.42	4.34	0.4242	-0.0429	-0.3062	
-0.984906	0.061366	0.054778	-2.73	-5.53	4.06	0.4072	-0.0457	-0.2968	
-0.97966	0.057462	0.066856	-2.94	-5.04	5.39	0.4142	-0.0378	-0.2889	
-0.982588	0.059658	0.06466	-3.15	-4.48	7.77	0.4086	-0.0521	-0.3064	
-0.995886	0.068564	0.068808	-3.57	-3.64	9.17	0.4129	-0.0445	-0.3077	
-1.03456	0.089548	0.05978	-3.08	3.78	4.55	0.4171	-0.0507	-0.311	
-1.02358	0.09638	0.048312	-2.73	4.9	0.49	0.4185	-0.0458	-0.2985	
-1.014674	0.081374	0.044408	-1.68	7	-2.52	0.4227	-0.0534	-0.2956	
-1.00528	0.073932	0.040382	-0.63	7.63	-3.64	0.4227	-0.0491	-0.3079	
-1.00894	0.08723	0.032208	1.19	7.35	-1.33	0.4242	-0.0397	-0.3046	
-1.014186	0.105652	0.032086	1.26	5.88	2.87	0.4241	-0.0552	-0.305	
-1.013332	0.11712	0.032696	-1.26	1.4	7.35	0.4283	-0.0472	-0.2939	
-1.013332	0.13847	0.038796	0	6.72	6.93	0.4297	-0.0518	-0.294	
-0.998936	0.14884	0.040138	-0.35	2.73	3.43	0.4326	-0.0536	-0.3065	
-0.97539	0.128954	0.03721	-0.14	0.14	-1.12	0.4227	-0.055	-0.2987	
-0.975268	0.117608	0.038064	-0.84	3.71	-3.08	0.4213	-0.0582	-0.305	
-0.985394	0.111508	0.042456	-1.05	2.45	-2.38	0.417	-0.0595	-0.2926	
-0.997716	0.10004	0.03965	-0.14	1.61	-0.42	0.4255	-0.0672	-0.2944	
-1.019066	0.096136	0.032696	1.33	1.61	0.21	0.4297	-0.0534	-0.2956	
-1.04554	0.082716	0.020374	1.61	-0.07	0.35	0.4283	-0.0548	-0.291	
-1.060546	0.066002	0.018178	3.57	2.17	2.38	0.4156	-0.0456	-0.2922	
-1.04432	0.063318	0.023668	4.13	0.84	5.39	0.4198	-0.0485	-0.2845	
-1.023702	0.078324	0.013908	4.97	1.96	5.81	0.4241	-0.0501	-0.2893	
-1.002718	0.074786	0.01098	4.69	2.31	5.32	0.4255	-0.0548	-0.2925	
-0.995764	0.07686	0.018788	3.99	2.45	4.06	0.4212	-0.0548	-0.2909	
-0.990884	0.078568	0.029524	3.71	0	3.85	0.417	-0.0611	-0.2973	
-1.000156	0.093208	0.033184	6.3	3.5	3.78	0.4156	-0.0579	-0.2894	
-1.011502	0.117974	0.033428	6.93	4.41	4.48	0.4241	-0.0564	-0.2925	
-1.012478	0.136884	0.03172	6.58	5.18	5.67	0.4198	-0.0564	-0.2909	
-0.997838	0.125904	0.02257	3.78	-0.91	7.42	0.4213	-0.0565	-0.2956	
-1.006744	0.129442	0.021838	4.06	5.39	7.77	0.4198	-0.0564	-0.2909	
-1.024922	0.134932	0.01403	3.01	5.32	9.52	0.4212	-0.0591	-0.2786	
-1.04432	0.127856	0.006954	2.94	5.95	11.62	0.4283	-0.0593	-0.288	
-1.042734	0.110654	0.002074	2.45	4.2	13.79	0.4226	-0.0686	-0.2881	
-1.037122	0.105652	-0.005612	2.73	4.76	13.86	0.4297	-0.0608	-0.2849	
-1.031144	0.1098	-0.005856	3.29	6.16	12.88	0.4254	-0.0716	-0.2836	
-1.015284	0.1159	-0.008905999	3.71	5.46	11.55	0.4353	-0.081	-0.2917	
-1.003328	0.116876	-0.007686	2.8	2.1	10.57	0.4254	-0.07449999	-0.279	
-0.991494	0.1281	-0.005612	2.31	1.33	9.38	0.4254	-0.0824	-0.2854	
-0.984662	0.141886	-0.005368	1.05	0.63	8.12	0.4169	-0.0791	-0.2775	
-0.980392	0.1586	0.006222	0.35	-0.77	6.09	0.4282	-0.079	-0.2729	
-0.982344	0.17019	0.009272	-0.14	-1.19	3.92	0.4211	-0.0837	-0.2745	
-0.98271	0.17446	0.015738	-0.7	-0.35	2.66	0.4211	-0.0759	-0.2727	
-0.979416	0.177632	0.024278	-1.96	0.49	2.38	0.4225	-0.076	-0.2759	
-0.97966	0.176046	0.029768	-2.45	0.28	1.82	0.424	-0.0885	-0.2824	
-0.978074	0.174704	0.02562	-2.38	0.7	0.49	0.4156	-0.0702	-0.2897	
-0.978684	0.18117	0.014884	-2.03	1.4	-1.19	0.4253	-0.0806	-0.2744	
-0.989176	0.176656	0.012078	-2.59	1.05	-2.94	0.4155	-0.0853	-0.2776	
-1.00101	0.165554	0.00366	-2.45	2.17	-4.69	0.424	-0.0809	-0.2885	
-1.005524	0.152256	-0.00305	-1.82	3.01	-5.88	0.4325	-0.0731	-0.2836	
-1.004304	0.156282	-0.002928	-2.03	1.75	-6.3	0.4324	-0.07759999	-0.2791	
-1.0126	0.157868	-0.010004	-1.61	0.91	-6.93	0.424	-0.0778	-0.2853	
-1.010648	0.155672	-0.012444	-1.75	-2.24	-7.49	0.4239	-0.0775	-0.2744	
-1.016138	0.147986	-0.01464	-2.94	-2.87	-8.19	0.4226	-0.0731	-0.2836	
-1.012722	0.13847	-0.005124	-3.71	-3.64	-9.1	0.4169	-0.0715	-0.282	
-1.009062	0.126026	-0.000244	-3.64	-4.48	-9.66	0.4296	-0.0715	-0.282	
-1.009428	0.123464	0.005856	-2.94	-6.09	-9.66	0.4282	-0.0655	-0.2865	
-1.011868	0.121146	0.007564	-2.45	-5.74	-9.1	0.4254	-0.073	-0.2789	
-1.004426	0.122488	0.01769	-2.38	-6.72	-8.47	0.4325	-0.0609	-0.2896	
-0.99979	0.117242	0.023912	-2.52	-6.23	-8.12	0.4128	-0.0519	-0.2955	
-1.000888	0.103578	0.024644	-2.66	-5.11	-8.05	0.4268	-0.0654	-0.285	
-1.00162	0.101138	0.024766	-2.73	-3.43	-8.26	0.417	-0.0609	-0.2879	
-1.004914	0.102968	0.021838	-3.64	-4.97	-7.42	0.4198	-0.0593	-0.2848	
-1.004548	0.1037	0.02684	-3.43	-5.18	-7.07	0.417	-0.0487	-0.2923	
-1.004792	0.109678	0.02684	-2.73	-4.48	-7.07	0.4269	-0.0456	-0.2923	
-1.001742	0.118584	0.033184	-1.4	-2.8	-7.35	0.4254	-0.0531	-0.2831	
-1.010648	0.123708	0.02318	-0.35	-3.64	-7.7	0.4212	-0.0595	-0.2926	
-1.017358	0.122244	0.02989	-0.28	-4.13	-8.61	0.4382	-0.0502	-0.2925	
-1.0248	0.124196	0.017934	-0.14	-3.08	-7.98	0.424	-0.0531	-0.2862	
-1.044564	0.119194	0.022204	-0.07	-3.43	-6.65	0.4212	-0.0423	-0.2828	
-1.06079	0.108092	0.02806	0.77	-3.57	-3.85	0.4184	-0.055	-0.2971	
-1.038586	0.10614	0.018788	-0.77	-2.94	-1.61	0.4241	-0.0594	-0.291	
-1.003938	0.100528	0.025986	-1.19	-3.99	-1.54	0.4297	-0.0548	-0.2894	
-1.002596	0.092232	0.0366	0	-4.34	-3.22	0.4227	-0.055	-0.2987	
-0.99186	0.069784	0.03355	-0.42	-5.39	-4.69	0.4241	-0.0534	-0.2971	
-0.996374	0.058682	0.037332	-0.7	-4.97	-5.39	0.4198	-0.0549	-0.294	
-1.013332	0.051484	0.05368	0.42	-3.78	-5.25	0.4284	-0.0489	-0.3033	
-1.014552	0.047214	0.053192	1.12	-1.68	-3.78	0.4199	-0.0426	-0.2968	
-1.005158	0.043432	0.0488	1.47	-0.77	-1.26	0.4142	-0.0485	-0.286	
-0.98637	0.042578	0.056608	1.33	-0.07	0.35	0.4171	-0.0427	-0.2999	
-0.987468	0.060268	0.055388	0.84	-0.07	0.49	0.4255	-0.0443	-0.3031	
-0.991372	0.072834	0.052094	1.4	3.15	0.49	0.4227	-0.0349	-0.2967	
-0.99735	0.091256	0.045384	2.8	2.03	0.63	0.4227	-0.0457	-0.2969	
-1.00955	0.101138	0.03416	1.75	3.01	0.56	0.4269	-0.0411	-0.2984	
-1.033096	0.110288	0.021106	-0.77	4.48	-1.26	0.4227	-0.0518	-0.2924	
-1.037122	0.113826	0.038186	-0.63	2.59	-2.59	0.4156	-0.0518	-0.2924	
-1.025044	0.101626	0.03172	-1.75	3.71	-1.12	0.4213	-0.0441	-0.2938	
-1.005036	0.089914	0.028304	-1.47	2.31	1.61	0.4142	-0.0531	-0.2846	
-0.99491	0.093208	0.034648	-1.47	1.26	3.64	0.4326	-0.0504	-0.2987	
-0.987102	0.10431	0.03355	-1.54	1.05	2.87	0.4198	-0.0331	-0.2857	
-1.007964	0.100528	0.037576	-1.4	2.73	-0.07	0.4311	-0.0595	-0.2942	
-1.015162	0.08845	0.041602	-1.19	3.92	-3.01	0.4213	-0.0534	-0.2971	
-1.022604	0.07869	0.034404	-0.49	5.11	-5.39	0.4269	-0.0456	-0.2923	
-1.019066	0.078202	0.025864	0.7	4.55	-6.51	0.4255	-0.0486	-0.2908	
-1.015406	0.086986	0.018422	1.05	4.48	-6.72	0.4255	-0.0409	-0.2906	
-1.008574	0.10187	0.011102	0.98	3.64	-6.16	0.4227	-0.0458	-0.3	
-1.020042	0.10309	0.007076	0.98	3.99	-6.93	0.4171	-0.0395	-0.2952	
-1.033218	0.094184	0.010004	0.21	1.12	-8.26	0.4157	-0.0506	-0.3079	
-1.02907	0.08235	0.011102	-0.07	1.12	-9.45	0.4227	-0.0318	-0.295	
-1.023092	0.075274	0.017324	0.56	0.91	-9.8	0.4269	-0.0409	-0.2875	
-1.010282	0.070638	0.024888	-0.49	-1.96	-8.82	0.4269	-0.0424	-0.2891	
-0.998326	0.058682	0.030256	-0.56	-1.61	-8.05	0.4254	-0.0361	-0.2827	
-0.995764	0.050386	0.033428	0.21	-1.26	-7.49	0.4311	-0.0377	-0.2843	
-1.003328	0.04392	0.034404	0.42	0.14	-7.42	0.4311	-0.0267	-0.2747	
-1.004792	0.041602	0.034892	0.98	1.47	-7.49	0.4213	-0.0363	-0.2904	
-1.012844	0.0427	0.034648	3.5	7.49	-8.19	0.4312	-0.0334	-0.2967	
-1.018456	0.037454	0.024522	1.96	3.01	-7.14	0.4198	-0.0253	-0.2808	
-1.01138	0.033916	0.016104	1.54	3.22	-5.74	0.4198	-0.0407	-0.2828	
-1.007476	0.038064	0.015616	1.82	2.94	-4.06	0.4226	-0.0268	-0.2809	
-1.00528	0.041358	0.010492	1.33	1.82	-2.66	0.4256	-0.0273	-0.2996	
-1.016016	0.032818	0.006466	1.19	1.68	-1.4	0.4283	-0.0314	-0.2795	
-1.03151	0.032818	0.00122	0.77	0.84	-0.91	0.4297	-0.0347	-0.2889	
-1.023214	0.032696	0.007442	0.63	-0.7	-0.56	0.4368	-0.0287	-0.295	
-1.01565	0.036966	0.01281	0.21	-1.4	0	0.4284	-0.0272	-0.2965	
-1.013088	0.03416	0.014762	-1.12	-1.89	0.98	0.4283	-0.0285	-0.2856	
-1.008208	0.033794	0.018178	-1.75	-2.45	2.45	0.4241	-0.0332	-0.2888	
-1.00223	0.03782	0.025376	-1.96	-2.59	3.92	0.4255	-0.0426	-0.2969	
-1.000278	0.03965	0.029646	-1.54	-2.1	4.62	0.4241	-0.0348	-0.2904	
-0.999546	0.047092	0.030256	-1.19	-1.33	4.83	0.4269	-0.0363	-0.2905	
-1.001498	0.050264	0.029158	-1.4	-1.33	5.39	0.4311	-0.0376	-0.2812	
-1.0065	0.051362	0.029036	-1.96	-1.47	6.3	0.4227	-0.0378	-0.2889	
-1.009306	0.055144	0.025132	-2.17	0.07	7.14	0.4241	-0.0441	-0.2922	
-1.018944	0.06405	0.019642	-1.19	1.26	7	0.4156	-0.0411	-0.2968	
-1.034804	0.06466	0.012566	-0.63	0.35	6.58	0.4283	-0.0331	-0.2857	
-1.046516	0.066856	0.00671	-0.56	0.63	5.81	0.4269	-0.0471	-0.2908	
-1.03151	0.077592	0.008905999	0.77	-0.21	5.11	0.4269	-0.0486	-0.2892	
-1.007232	0.081496	0.012932	1.19	-1.12	4.9	0.4297	-0.041	-0.2922	
-0.994666	0.08052	0.015738	1.26	-1.19	4.55	0.4226	-0.0331	-0.2857	
-0.995154	0.077714	0.015738	0.98	-1.33	4.55	0.4184	-0.0441	-0.2937	
-1.005036	0.06893	0.022448	0.56	-3.43	4.48	0.4269	-0.0425	-0.2938	
-1.01382	0.066734	0.02806	0.7	-4.55	4.9	0.424	-0.0422	-0.2781	
-1.013576	0.073444	0.030012	0.77	-3.29	4.97	0.4185	-0.0534	-0.2971	
-1.005036	0.068442	0.031598	0.84	-3.22	4.34	0.4241	-0.0458	-0.3001	
-0.996374	0.05917	0.02806	0.28	-6.09	3.85	0.4157	-0.0459	-0.3031	
-1.002352	0.062586	0.0305	0.21	-3.08	3.5	0.4241	-0.0517	-0.2909	
-1.006866	0.066246	0.03355	0.21	-3.57	3.43	0.4184	-0.0471	-0.2891	
-1.009672	0.061732	0.029402	0.21	-3.01	3.85	0.4199	-0.0489	-0.3001	
-1.016748	0.065026	0.02684	0.07	-2.31	5.39	0.4198	-0.0394	-0.2905	
-1.020408	0.066002	0.033916	-0.7	-2.8	7.21	0.4199	-0.0365	-0.2967	
-1.019554	0.079422	0.027328	-1.96	-1.96	8.61	0.4227	-0.0456	-0.2938	
-1.003328	0.089182	0.030378	-2.87	-6.79	9.31	0.4241	-0.0503	-0.2939	
-1.0004	0.097234	0.03721	-2.73	-3.29	8.4	0.417	-0.0472	-0.2938	
-0.993446	0.0915	0.04026	-3.43	-3.43	7.14	0.4213	-0.0518	-0.2955	
-1.00162	0.10248	0.050264	-3.22	-0.14	4.9	0.4227	-0.0548	-0.2925	
-0.99857	0.101138	0.047702	-3.29	-3.43	3.08	0.4199	-0.0505	-0.3017	
-0.998326	0.111996	0.055144	-1.54	4.34	0.84	0.4213	-0.0534	-0.2956	
-0.99796	0.110288	0.053436	-0.56	3.78	0.21	0.4269	-0.052	-0.3018	
-1.013698	0.112118	0.052216	0.28	6.86	-0.07	0.4185	-0.0535	-0.3002	
-1.014186	0.113826	0.046726	0.21	6.93	0.35	0.4227	-0.0548	-0.2925	
-1.01138	0.112606	0.034404	1.4	6.16	0.7	0.4199	-0.055	-0.2987	
-1.009184	0.109556	0.024156	1.61	4.62	0.91	0.4226	-0.0533	-0.2909	
-1.006988	0.11468	0.018178	2.66	5.95	0.28	0.4185	-0.0411	-0.2983	
-1.027362	0.11834	0.007929999	2.73	4.55	-0.56	0.4184	-0.0626	-0.2926	
-1.037488	0.108824	0.008052	1.61	1.75	-0.98	0.4297	-0.0579	-0.2926	
-1.022116	0.113094	0.012322	0.56	0.21	0.21	0.4241	-0.0533	-0.2924	
-1.004548	0.127368	0.015128	-0.21	-2.17	1.05	0.4199	-0.055	-0.3003	
-1.000644	0.130174	0.017202	-0.77	-3.15	0.14	0.424	-0.061	-0.2911	
-1.00284	0.124318	0.024644	-1.33	-5.32	-0.7	0.4283	-0.0549	-0.2956	
-1.011136	0.112606	0.028182	-2.38	-5.88	0.14	0.4254	-0.0624	-0.2865	
-1.013698	0.09552599	0.039406	-2.17	-5.46	1.96	0.4297	-0.0534	-0.2972	
-1.012112	0.093452	0.049288	-1.05	-3.92	3.71	0.4227	-0.0548	-0.2925	
-0.992836	0.066002	0.053802	0.42	-2.1	3.57	0.4213	-0.0472	-0.2938	
-1.003694	0.06466	0.040992	2.66	0.84	1.54	0.4227	-0.055	-0.2972	
-1.020652	0.049532	0.037942	3.57	5.46	1.26	0.4128	-0.0564	-0.294	
-1.01748	0.064172	0.049288	5.88	5.39	3.15	0.4283	-0.0534	-0.2987	
-1.013576	0.098698	0.039528	7	6.58	4.2	0.4241	-0.0535	-0.2987	
-0.999546	0.12261	0.021716	7.7	8.05	3.5	0.4212	-0.0579	-0.291	
-0.988566	0.12566	0.010736	5.67	7.56	2.8	0.4198	-0.0624	-0.288	
-0.993568	0.128588	0.010248	2.31	5.25	3.01	0.4282	-0.0577	-0.2832	
-1.01504	0.126514	0.004758	1.96	5.6	3.92	0.4283	-0.0565	-0.2957	
-1.041514	0.132004	0.01159	2.1	4.76	6.16	0.4226	-0.0639	-0.2865	
-1.04005	0.141154	0.015494	1.33	4.06	8.54	0.4367	-0.0562	-0.2879	
-1.01321	0.145302	0.015982	0.49	3.15	9.1	0.4183	-0.0684	-0.2803	
-0.98698	0.143716	0.013786	0	-0.07	7.98	0.4297	-0.07319999	-0.2883	
-0.978562	0.128832	0.013908	0.98	1.75	6.44	0.4212	-0.0686	-0.2897	
-0.996374	0.123098	0.010248	0.98	1.75	4.55	0.4311	-0.0716	-0.2867	
-1.020896	0.128344	0.005978	2.94	2.31	2.03	0.4198	-0.0639	-0.2849	
-1.018944	0.127002	0.00427	3.57	1.82	1.26	0.4311	-0.0685	-0.2851	
-1.008574	0.123952	0.006832	2.59	0.7	1.68	0.4282	-0.0639	-0.2834	
-1.004792	0.12749	0.000122	2.24	0.21	1.75	0.431	-0.0684	-0.282	
-1.008086	0.133224	-0.003294	2.38	0.14	1.4	0.424	-0.0699	-0.2773	
-1.012966	0.135908	0.005978	2.31	-1.33	0.77	0.4325	-0.0734	-0.2946	
-1.01138	0.130662	0.00549	2.17	-2.03	0.35	0.4254	-0.0746	-0.2821	
-1.008696	0.12139	0.008784	1.82	-2.03	0.21	0.4283	-0.0733	-0.2899	
-1.002962	0.123098	0.01952	2.59	-1.26	0.28	0.4183	-0.0731	-0.282	
-1.000644	0.12871	0.018422	3.78	-0.07	-0.42	0.4254	-0.0746	-0.2805	
-0.994178	0.132858	0.022448	4.62	0.91	-1.4	0.4282	-0.0715	-0.2805	
-0.986614	0.13115	0.020496	3.57	0.28	-2.38	0.4254	-0.0794	-0.2884	
-0.985394	0.13359	0.02318	2.66	2.24	-2.8	0.4212	-0.0746	-0.2821	
-0.994178	0.13298	0.017568	2.38	3.36	-3.36	0.4268	-0.0793	-0.2869	
-1.001864	0.13603	0.011346	0.98	1.96	-3.5	0.4339	-0.0733	-0.2915	
-1.00467	0.138226	0.008417999	0.35	1.61	-3.71	0.4268	-0.0808	-0.2838	
-1.008452	0.13603	0.003904	0	1.19	-4.27	0.431	-0.07	-0.2836	
-1.018944	0.12932	-0.00305	-1.19	2.03	-4.76	0.4282	-0.0716	-0.2836	
-1.023214	0.128344	-0.00366	-1.61	0.7	-4.9	0.424	-0.0777	-0.2806	
-1.017724	0.128832	-0.002806	-2.52	-0.63	-4.97	0.4184	-0.0686	-0.2897	
-1.007842	0.122854	-0.000976	-2.59	-1.05	-5.88	0.4339	-0.067	-0.2866	
-0.99735	0.113948	-0.000488	-3.29	-1.75	-6.72	0.4282	-0.0714	-0.2758	
-1.003206	0.110166	-0.001708	-3.64	-0.42	-7.35	0.4297	-0.0624	-0.2865	
-1.00772	0.11224	0.008905999	-2.8	-4.06	-7.28	0.4155	-0.0668	-0.2771	
-1.015894	0.111874	0.01098	-2.17	-2.94	-7.28	0.4197	-0.0715	-0.2804	
-1.021628	0.106384	0.013054	-0.84	-3.43	-6.86	0.4268	-0.0623	-0.2833	
-1.019432	0.100528	0.015738	-1.12	-1.47	-6.58	0.4241	-0.0641	-0.2927	
-1.008818	0.09272	0.016348	-2.31	-2.94	-5.6	0.4283	-0.0549	-0.2941	
-1.001742	0.09357399	0.0183	-2.66	-1.26	-4.62	0.424	-0.0578	-0.2894	
-1.005646	0.09162199	0.016836	-2.87	-0.28	-3.29	0.4268	-0.0638	-0.2803	
-1.003328	0.09467199	0.016348	-4.2	-0.98	-1.75	0.4226	-0.0515	-0.2815	
-1.006378	0.095892	0.011468	-4.34	-0.84	-0.77	0.4269	-0.0485	-0.2861	
-1.005158	0.102236	0.016714	-4.27	-1.12	-1.05	0.4198	-0.0576	-0.2801	
-0.999912	0.101382	0.017324	-4.97	-3.15	-1.75	0.4338	-0.0559	-0.2754	
-1.002596	0.107726	0.018788	-4.97	-4.2	-2.73	0.4184	-0.0594	-0.2895	
-1.011746	0.109556	0.015616	-3.64	-4.69	-3.57	0.4142	-0.0579	-0.2925	
-1.01382	0.11407	0.012688	-4.62	-5.18	-3.85	0.424	-0.0638	-0.2802	
-1.014918	0.115046	0.018666	-5.81	-4.97	-3.08	0.4072	-0.0613	-0.3019	
-1.008086	0.108824	0.027938	-5.25	-6.3	-2.1	0.4254	-0.0484	-0.2799	
-1.017846	0.10431	0.022936	-4.83	-4.41	-1.96	0.4255	-0.055	-0.2972	
-1.01443	0.094184	0.02684	-3.64	-5.25	-2.38	0.4128	-0.0502	-0.2923	
-1.013454	0.081008	0.02928	-2.73	-4.34	-3.08	0.4254	-0.0485	-0.2845	
-1.015162	0.073688	0.039406	-1.05	-5.32	-4.06	0.4241	-0.0487	-0.2923	
-1.021262	0.072834	0.040748	4.2	3.36	-5.67	0.4143	-0.0428	-0.3015	
-1.016504	0.063196	0.032696	2.1	-3.29	-4.83	0.4212	-0.0532	-0.2893	
-1.01504	0.063074	0.032208	1.82	-1.4	-4.27	0.4255	-0.0457	-0.2985	
-1.011136	0.07015	0.030866	2.8	0.07	-4.06	0.4142	-0.0502	-0.2892	
-1.015894	0.079544	0.03416	3.22	2.59	-3.78	0.4156	-0.0488	-0.2985	
-1.013332	0.072346	0.033794	2.17	-0.07	-2.38	0.4184	-0.058	-0.2956	
-1.016626	0.073322	0.019642	1.61	0.91	-0.35	0.4198	-0.0518	-0.2939	
-1.023702	0.091256	0.01769	1.12	-0.98	0.91	0.4213	-0.0489	-0.3001	
-1.022848	0.094794	0.03477	0.84	-2.1	-0.28	0.4198	-0.0456	-0.2922	
-1.026996	0.079422	0.03233	0.56	-0.49	-2.31	0.4156	-0.0456	-0.2938	
-1.016992	0.060878	0.04148	0.07	-0.56	-3.08	0.4241	-0.0441	-0.2922	
-1.003938	0.063196	0.040138	1.19	1.4	-1.47	0.4143	-0.0474	-0.3016	
-0.987834	0.075274	0.041358	2.66	3.57	0.42	0.4241	-0.0428	-0.3047	
-0.994422	0.087596	0.032818	2.24	2.38	1.19	0.4269	-0.0346	-0.2858	
-1.000522	0.097234	0.033062	0.07	1.05	-0.35	0.417	-0.0486	-0.2876	
-1.011136	0.092476	0.038674	-2.24	1.33	-1.26	0.4297	-0.041	-0.2922	
-1.014552	0.088572	0.034526	-3.43	1.61	-1.05	0.4227	-0.0397	-0.3015	
-1.006622	0.087718	0.035624	-2.45	2.03	-1.4	0.417	-0.0409	-0.2874	
-0.998692	0.089182	0.034648	-1.33	2.31	-3.08	0.4283	-0.0471	-0.2892	
-0.999912	0.08357	0.036478	-1.68	2.87	-4.55	0.4226	-0.0594	-0.291	
-1.010404	0.07198	0.028182	-1.61	2.73	-4.48	0.4213	-0.0347	-0.2889	
-1.00406	0.064294	0.023058	-0.35	2.38	-3.78	0.4283	-0.047	-0.2861	
-1.003328	0.068198	0.019764	0.77	3.15	-4.62	0.4227	-0.0473	-0.2985	
-1.011136	0.073688	0.018178	0.7	3.92	-5.95	0.4255	-0.0501	-0.2877	
-1.01931	0.06649	0.019032	-0.21	3.57	-6.09	0.4199	-0.041	-0.2921	
-1.021506	0.056974	0.014884	-1.19	1.54	-5.81	0.4283	-0.0285	-0.2856	
-1.017602	0.05246	0.018056	-1.19	1.12	-5.6	0.4339	-0.0363	-0.289	
-1.010038	0.049166	0.018544	-0.56	1.05	-5.74	0.4226	-0.0329	-0.2779	
-1.013454	0.051118	0.012078	0.21	1.68	-6.02	0.4227	-0.0302	-0.2934	
-1.017602	0.05612	0.015616	0.56	2.17	-6.02	0.4184	-0.0376	-0.2811	
-1.02053	0.052338	0.017568	0.14	-0.77	-5.74	0.4268	-0.0391	-0.2796	
-1.018456	0.055754	0.018178	-0.35	0.63	-5.95	0.4297	-0.0376	-0.2827	
-1.016016	0.056486	0.018056	-0.7	1.12	-6.09	0.4283	-0.0377	-0.2859	
-1.009672	0.051362	0.022326	0	0.56	-7.14	0.4325	-0.0316	-0.2888	
-1.00406	0.05612	0.023668	0.42	0	-7.35	0.4297	-0.0299	-0.281	
-1.002718	0.050752	0.020374	0.21	1.26	-6.65	0.4283	-0.033	-0.2826	
-1.009916	0.042822	0.019032	0.49	1.4	-5.46	0.4184	-0.033	-0.281	
-1.01504	0.035868	0.01769	0.77	0.21	-3.92	0.4297	-0.0314	-0.281	
-1.007842	0.037576	0.014762	0.35	0.49	-2.8	0.4339	-0.0298	-0.2779	
-1.009062	0.042334	0.017324	0.42	1.33	-2.59	0.4269	-0.0286	-0.2903	
-1.015284	0.044164	0.016348	0.28	0.91	-2.66	0.4212	-0.0239	-0.2855	
-1.018456	0.028548	0.01586	-0.56	0.63	-1.96	0.4226	-0.0238	-0.2839	
-1.0187	0.020496	0.01708	-0.84	0.49	-1.05	0.4227	-0.0286	-0.2903	
-1.007598	0.022936	0.017446	-0.42	0.28	-0.42	0.4325	-0.0268	-0.2794	
-0.99979	0.026962	0.018056	0.63	0.28	0.28	0.4198	-0.0314	-0.2794	
-1.006378	0.029524	0.02196	0.84	0.56	1.05	0.4213	-0.0224	-0.2901	
-1.009428	0.02989	0.021228	0.07	0.84	1.75	0.4227	-0.0317	-0.2903	
-1.014064	0.031232	0.014762	-0.35	1.33	2.24	0.4283	-0.0178	-0.2885	
-1.015284	0.036966	0.018788	0.21	3.85	2.38	0.4283	-0.0223	-0.2855	
-1.024556	0.035502	0.007442	-0.84	1.05	3.36	0.4297	-0.0224	-0.287	
-1.025044	0.040016	0.007076	-0.49	-1.75	4.2	0.4311	-0.0239	-0.2886	
-1.017724	0.045384	0.004148	-0.07	-0.63	5.18	0.4269	-0.0237	-0.2808	
-1.011502	0.046604	0.00305	0.63	0.21	6.02	0.4212	-0.0267	-0.2746	
-1.013088	0.044042	0.003538	0.28	-0.77	7.21	0.441	-0.0146	-0.2869	
-1.01687	0.04453	0.003538	-0.07	-1.68	7.91	0.4254	-0.0343	-0.2717	
-1.021018	0.045994	0.004758	0.42	-2.31	8.19	0.4353	-0.0393	-0.2859	
-1.023824	0.051118	0.007442	0.63	-3.01	8.33	0.4269	-0.0408	-0.2844	
-1.020408	0.05429	0.014518	0.42	-3.29	8.4	0.4184	-0.0376	-0.2796	
-1.006988	0.057462	0.022204	0.56	-4.13	8.54	0.424	-0.0375	-0.2749	
-1.004304	0.057584	0.015738	-0.14	-6.16	8.82	0.4212	-0.0346	-0.2842	
-1.008818	0.056364	0.024888	-0.07	-3.99	8.89	0.4184	-0.0438	-0.2813	
-1.002718	0.062586	0.027328	0.28	-5.25	9.31	0.4184	-0.0361	-0.2826	
-1.00223	0.074786	0.027816	1.26	-4.13	9.31	0.4254	-0.0405	-0.275	
-1.006256	0.0793	0.027084	1.12	-4.62	9.1	0.4283	-0.0501	-0.2877	
-1.011624	0.077958	0.02623	0.7	-4.48	8.47	0.4227	-0.0365	-0.2983	
-1.013454	0.083448	0.027572	-0.07	-4.41	8.61	0.4297	-0.0454	-0.2845	
-1.01199	0.085034	0.034282	0.14	-5.32	8.47	0.4184	-0.0425	-0.2921	
-1.009916	0.080276	0.034892	0.42	-6.09	8.33	0.4199	-0.0426	-0.2968	
-1.009916	0.082716	0.033428	1.47	-2.87	7.7	0.4198	-0.0533	-0.294	
-1.00894	0.089426	0.037454	1.54	-2.87	6.65	0.417	-0.0549	-0.294	
-1.004914	0.096258	0.038796	1.19	-5.32	4.97	0.4227	-0.0565	-0.2972	
-0.999668	0.103578	0.048434	3.29	1.82	2.52	0.4226	-0.0578	-0.2863	
-1.001254	0.116754	0.044896	3.36	2.52	0.98	0.4212	-0.0562	-0.2847	
-1.0004	0.110166	0.042944	3.71	4.69	-1.61	0.4128	-0.0672	-0.2943	
-1.01321	0.090524	0.034526	4.9	6.3	-3.5	0.4212	-0.0456	-0.2907	
-1.01809	0.07515199	0.02074	2.03	2.38	-0.98	0.4198	-0.0486	-0.2907	
-1.01931	0.09162199	0.034892	6.93	7.91	0.91	0.41	-0.0611	-0.2957	
-1.0126	0.108946	0.02623	7.28	6.72	2.87	0.424	-0.0562	-0.2847	
-1.003206	0.128222	0.021594	7.21	5.32	2.1	0.4212	-0.0654	-0.2849	
-0.986736	0.119926	0.022204	3.43	-1.82	-0.7	0.4297	-0.0517	-0.2893	
-0.98698	0.122732	0.023546	4.41	3.36	-5.11	0.417	-0.0548	-0.2893	
-0.984662	0.11651	0.026718	3.29	-1.61	-6.79	0.4198	-0.0671	-0.2912	
-0.99857	0.115168	0.024766	3.85	-0.42	-7.63	0.4213	-0.0518	-0.294	
-1.003938	0.117608	0.02928	4.13	-0.98	-7	0.4184	-0.0595	-0.2941	
-1.007964	0.117242	0.024278	2.87	-2.94	-5.11	0.417	-0.0549	-0.2924	
-1.00711	0.109068	0.038796	0.77	-2.1	-4.06	0.4198	-0.0563	-0.2894	
-0.998814	0.094306	0.0366	-0.98	-1.68	-2.87	0.4114	-0.058	-0.2956	
-0.999058	0.076006	0.039406	-2.87	-2.03	-1.68	0.4156	-0.0579	-0.2894	
-1.014186	0.066856	0.038552	-1.54	-0.98	-1.12	0.424	-0.0516	-0.2877	
-1.027728	0.053802	0.035258	-0.63	0.42	-0.56	0.4227	-0.0487	-0.2939	
-1.031388	0.04575	0.030134	1.4	0.98	0	0.4198	-0.0611	-0.2942	
-1.023458	0.044164	0.01952	2.1	3.08	0.77	0.4269	-0.0519	-0.3002	
-1.020042	0.057096	0.016714	2.8	6.16	0.98	0.4156	-0.0563	-0.2894	
-1.015406	0.066368	0.006588	2.24	5.39	1.61	0.4325	-0.0517	-0.2909	
-1.02236	0.065148	0.005368	2.17	4.69	2.17	0.4184	-0.0518	-0.2955	
-1.034804	0.066612	0.001952	2.52	4.27	3.5	0.4198	-0.0548	-0.2893	
-1.052982	0.0793	-0.000488	3.64	4.76	6.44	0.4213	-0.0457	-0.2954	
-1.057862	0.08052	-0.002684	4.83	5.81	10.71	0.4198	-0.0562	-0.2831	
-1.03944	0.106628	0.005612	4.83	4.9	15.96	0.4226	-0.0607	-0.2817	
-1.027606	0.117486	0.007808	3.78	5.53	16.94	0.4226	-0.0607	-0.2817	
-1.002474	0.128588	0.005612	1.82	5.67	16.38	0.424	-0.07	-0.2835	
-1.003694	0.12139	-0.00305	0.42	5.6	15.47	0.4353	-0.0699	-0.2805	
-1.002962	0.114436	0.000244	-0.7	4.41	15.33	0.4239	-0.0728	-0.2711	
-1.001132	0.110288	0.003294	-0.28	3.08	15.12	0.4296	-0.0731	-0.2836	
-1.000888	0.117486	0.0061	0.35	5.39	14.56	0.4254	-0.0714	-0.2789	
-0.992104	0.131882	0.002684	1.19	5.25	13.86	0.4296	-0.0775	-0.2759	
-0.990884	0.150182	-0.003782	1.47	2.73	13.02	0.431	-0.0793	-0.2838	
-0.99735	0.16775	-0.008052	1.47	3.15	11.62	0.4324	-0.07759999	-0.2791	
-1.010892	0.167872	-0.011956	1.19	4.97	11.27	0.431	-0.0823	-0.2808	
-1.01748	0.166896	-0.00732	0.42	3.85	11.48	0.4254	-0.0761	-0.2821	
-1.017724	0.16043	-0.009393999	0.63	2.94	11.62	0.4324	-0.0853	-0.2777	
-1.006378	0.16043	-0.008052	0.42	-0.98	11.41	0.4352	-0.0822	-0.2777	
-0.98027	0.167872	-0.007076	2.73	0.35	9.24	0.421	-0.1004	-0.2671	
-0.96441	0.174826	-0.012932	2.87	0.21	6.51	0.4267	-0.0959	-0.2717	
-0.96319	0.183732	-0.011712	2.94	0	3.5	0.4281	-0.0851	-0.2699	
-0.972584	0.185806	-0.009028	2.38	0.42	1.26	0.4267	-0.0975	-0.2733	
-0.98393	0.187514	-0.004148	2.03	-0.14	0.28	0.4281	-0.0944	-0.2732	
-0.99186	0.189954	0.000122	1.54	-0.7	-0.7	0.4239	-0.1054	-0.2797	
-0.992592	0.19398	0.000854	0.91	-0.77	-1.89	0.431	-0.0884	-0.2809	
-0.982222	0.185196	0.002806	0.07	-1.05	-2.94	0.4211	-0.0882	-0.2715	
-0.97478	0.1769	0.002318	-1.54	-0.7	-3.85	0.4211	-0.1006	-0.2749	
-0.977586	0.174338	0.001464	-2.66	-0.21	-4.62	0.4253	-0.0961	-0.2779	
-0.98576	0.167018	-0.000488	-2.66	0.56	-5.46	0.4296	-0.0852	-0.2761	
-0.993324	0.164212	-0.002928	-2.94	0.28	-6.79	0.4239	-0.08679999	-0.2777	
-1.003206	0.163236	-0.009516	-2.66	0.42	-8.19	0.4352	-0.09299999	-0.281	
-1.006256	0.162382	-0.010126	-2.31	-0.14	-9.24	0.431	-0.0806	-0.2776	
-1.004304	0.156282	-0.015128	-2.87	-0.98	-9.8	0.4338	-0.0884	-0.2794	
-1.000644	0.151158	-0.018788	-3.5	-2.17	-10.22	0.4211	-0.08679999	-0.2761	
-0.999912	0.148352	-0.015616	-4.27	-3.08	-10.64	0.4296	-0.0837	-0.2777	
-1.000644	0.14701	-0.01342	-5.04	-4.55	-11.06	0.4239	-0.0821	-0.2745	
-1.00101	0.148474	-0.007564	-5.39	-6.02	-11.83	0.4338	-0.0791	-0.2776	
-0.998692	0.146522	0.00366	-6.02	-7.07	-12.32	0.431	-0.0791	-0.2776	
-0.998204	0.142862	0.007686	-6.09	-7.84	-12.95	0.4268	-0.0823	-0.2807	
-0.997228	0.133102	0.013786	-6.23	-9.1	-13.09	0.4212	-0.0702	-0.2897	
-1.002474	0.132248	0.020374	-5.95	-9.52	-13.23	0.4141	-0.0762	-0.2821	
-1.0187	0.130296	0.016104	-5.04	-9.45	-13.65	0.424	-0.0669	-0.2803	
-1.031632	0.122488	0.016348	-4.69	-8.61	-13.72	0.4212	-0.0533	-0.2909	
-1.031144	0.113826	0.017568	-5.11	-8.54	-12.32	0.4156	-0.0547	-0.2878	
-1.024312	0.105042	0.012078	-5.95	-8.05	-10.64	0.4282	-0.0623	-0.2818	
-1.029314	0.09552599	0.013054	-6.02	-6.58	-9.03	0.4269	-0.0625	-0.2927	
-1.04981	0.080154	0.01952	-6.09	-5.88	-6.16	0.4283	-0.0671	-0.2881	
-1.050908	0.069174	0.020984	-4.83	-5.6	-3.57	0.4254	-0.0608	-0.2849	
-1.034316	0.077836	0.020252	-3.64	-4.41	-2.1	0.4212	-0.0562	-0.2863	
-1.017724	0.085156	0.026352	-2.17	-3.85	-2.38	0.4226	-0.0656	-0.2912	
-1.012966	0.081862	0.03233	-0.98	-4.27	-3.01	0.4255	-0.0503	-0.2955	
-1.020652	0.074176	0.025254	-0.7	-5.32	-3.5	0.4255	-0.0505	-0.3033	
-1.031998	0.068808	0.025498	-1.33	-4.2	-3.29	0.4128	-0.0535	-0.2986	
-1.01199	0.08113	0.025376	0.7	-0.7	-2.1	0.4157	-0.0505	-0.3048	
-1.008574	0.106018	0.037454	-1.96	-2.38	0.28	0.4157	-0.0475	-0.3047	
-0.99735	0.104554	0.047458	-3.22	-7.35	1.47	0.4283	-0.0471	-0.2908	
-1.016626	0.08845	0.02928	-4.69	-3.78	2.8	0.4227	-0.0489	-0.3032	
-1.026508	0.086376	0.040016	-4.9	-6.72	3.92	0.4213	-0.0518	-0.294	
-1.009672	0.09638	0.045994	-4.55	-8.05	4.48	0.4171	-0.0551	-0.3034	
-0.995154	0.094916	0.047824	-3.5	-6.23	4.34	0.4171	-0.0522	-0.3095	
-0.989786	0.091866	0.053558	-3.64	-7.28	2.66	0.4143	-0.0567	-0.3065	
-0.994422	0.096868	0.06039	-3.78	-5.74	1.12	0.4172	-0.0477	-0.3156	
-0.99491	0.092842	0.070882	-4.55	-7.07	0.63	0.4142	-0.0518	-0.2939	
-0.992104	0.093818	0.075396	-3.71	-6.51	0.14	0.4171	-0.0538	-0.3127	
-0.9882	0.093086	0.083936	-3.08	-5.04	0.63	0.4143	-0.0629	-0.3051	
-0.991494	0.093818	0.078568	-2.24	-4.27	0.98	0.4115	-0.0521	-0.3064	
-0.99491	0.094184	0.083326	-0.91	-2.87	0.14	0.4185	-0.0519	-0.2986	
-0.995764	0.093452	0.080276	-0.07	-1.26	-1.47	0.4114	-0.0458	-0.3	
-0.995154	0.091866	0.077958	1.26	1.47	-3.22	0.4072	-0.0552	-0.3064	
-0.997716	0.095282	0.069174	2.24	1.75	-3.99	0.4143	-0.0536	-0.3049	
-1.003938	0.099918	0.061854	2.59	2.59	-4.34	0.4128	-0.0519	-0.2986	
-1.004914	0.096746	0.060634	2.66	1.89	-4.76	0.4171	-0.0445	-0.3093	
-1.00345	0.09211	0.062098	2.59	1.19	-4.97	0.4128	-0.041	-0.2936	
-1.009672	0.088084	0.064904	2.45	2.8	-4.62	0.403	-0.0522	-0.3094	
-1.003572	0.089304	0.058804	2.31	0.7	-3.92	0.4143	-0.0492	-0.3141	
-1.002596	0.09089	0.058194	3.15	1.89	-3.71	0.4143	-0.0491	-0.3094	
-1.011136	0.09028	0.058926	4.34	-0.63	-3.99	0.4045	-0.0446	-0.3139	
-1.020652	0.088084	0.061976	4.06	0.7	-4.97	0.4143	-0.0459	-0.3031	
-1.028094	0.086498	0.060756	3.78	1.47	-5.53	0.4172	-0.0432	-0.3202	
-1.013332	0.066002	0.05734	4.62	2.03	-4.34	0.4157	-0.0489	-0.3001	
-0.993812	0.066734	0.060268	6.02	1.75	-3.5	0.41	-0.0504	-0.3001	
-0.998082	0.063806	0.062708	6.79	1.96	-3.43	0.4157	-0.0493	-0.3157	
-1.009306	0.066002	0.051484	9.66	1.82	-4.9	0.4143	-0.0412	-0.2999	
-1.00894	0.06832	0.054534	10.99	2.87	-5.32	0.4199	-0.049	-0.3048	
-1.010282	0.045018	0.04758	10.01	2.52	-5.53	0.41	-0.0505	-0.3048	
-1.023092	0.051606	0.04758	13.51	3.64	-6.51	0.4157	-0.0507	-0.311	
-1.026386	0.048922	0.047214	12.32	3.15	-4.83	0.4129	-0.0444	-0.3046	
-1.014552	0.059902	0.04941	14.98	3.71	-4.2	0.4171	-0.0551	-0.3034	
-0.996374	0.068564	0.048556	17.15	4.97	-4.27	0.4199	-0.0536	-0.3049	
-0.99003	0.073566	0.026962	18.13	3.85	-4.55	0.41	-0.0504	-0.297	
-1.017358	0.096258	0.052216	17.57	0.21	-4.76	0.4283	-0.0534	-0.2956	
-1.014674	0.088084	0.03782	13.58	3.01	-4.34	0.4184	-0.0503	-0.2955	
-1.020286	0.092598	0.039772	13.09	1.19	-3.85	0.4171	-0.0537	-0.3064	
-1.00162	0.068808	0.05795	10.01	7	-2.52	0.4156	-0.0503	-0.2939	
-1.01321	0.084912	0.064904	6.02	0.49	-3.22	0.4213	-0.0488	-0.297	
-0.993934	0.07198	0.04453	11.13	7.14	-4.48	0.424	-0.0501	-0.2877	
-0.985516	0.062952	0.042456	8.54	0.49	-3.64	0.4212	-0.0564	-0.2925	
-1.01931	0.07808	0.033916	6.93	2.38	-2.87	0.4227	-0.0473	-0.2985	
-1.022116	0.06222	0.037942	8.19	1.33	-3.43	0.4213	-0.0533	-0.294	
-1.009062	0.038918	0.03111	9.38	2.59	-4.06	0.4199	-0.0489	-0.3001	
-0.991494	0.033916	0.03294	8.89	4.41	-4.2	0.4212	-0.0577	-0.2848	
-1.004304	0.03599	0.02318	8.4	5.46	-4.2	0.4325	-0.0485	-0.2861	
-1.016138	0.038674	0.027816	9.8	6.09	-4.83	0.424	-0.0516	-0.2846	
-1.030412	0.043676	0.019764	7.63	1.75	-3.36	0.4213	-0.0611	-0.2973	
-1.03029	0.055266	0.016958	7.56	3.01	-1.82	0.4254	-0.0656	-0.2896	
-1.020896	0.055022	0.016714	8.19	3.22	-1.75	0.4297	-0.0609	-0.2896	
-1.012478	0.045872	0.013542	7.77	3.08	-2.1	0.4311	-0.0487	-0.2955	
-1.00833	0.05002	0.017934	7.35	3.01	-1.82	0.4226	-0.0516	-0.2862	
-1.008818	0.056852	0.018422	6.23	2.31	-0.77	0.4325	-0.0611	-0.2958	
-1.01321	0.053192	0.021228	4.55	1.33	-0.14	0.4268	-0.0608	-0.2864	
-1.015406	0.057584	0.021716	3.57	1.47	-0.14	0.4268	-0.05	-0.283	
-1.001254	0.054534	0.023912	2.45	1.61	-0.21	0.434	-0.0581	-0.2989	
-0.991006	0.049044	0.030744	0.77	1.19	0.49	0.4325	-0.0486	-0.2893	
-0.999058	0.043432	0.026352	-0.21	1.54	0.77	0.4283	-0.0609	-0.288	
-1.009794	0.042212	0.018422	-0.28	3.01	0.7	0.4311	-0.0486	-0.2893	
-1.01199	0.051606	0.017568	-1.12	3.22	0.35	0.4254	-0.0578	-0.2863	
-1.016016	0.056242	0.012322	-2.45	2.73	0.63	0.4311	-0.0578	-0.2864	
-1.019188	0.05612	0.00854	-3.92	1.61	1.26	0.4212	-0.0579	-0.2894	
-1.019066	0.05429	0.001098	-5.39	0.35	2.03	0.4283	-0.0563	-0.2879	
-1.020652	0.058926	0.000976	-6.51	-0.77	2.31	0.4283	-0.0608	-0.2864	
-1.018944	0.06405	-0.001952	-7.7	-1.61	1.89	0.4269	-0.0501	-0.2877	
-1.028826	0.064416	0.003416	-9.03	-2.66	1.54	0.4297	-0.0516	-0.2878	
-1.0248	0.048068	0.006466	-10.99	-4.83	2.38	0.4311	-0.0533	-0.2941	
-1.02053	0.048434	0.014274	-12.04	-6.79	3.99	0.4297	-0.0484	-0.283	
-1.018944	0.057096	0.013786	-12.11	-8.26	4.9	0.4297	-0.0455	-0.2892	
-1.024922	0.05185	0.018666	-9.94	-5.53	3.71	0.4339	-0.0516	-0.2862	
-1.018944	0.042456	0.024888	-8.4	-4.2	3.36	0.424	-0.0469	-0.2845	
-1.004792	0.045506	0.033672	-8.54	-5.81	4.55	0.4269	-0.0549	-0.2956	
-0.998204	0.048678	0.031842	-8.54	-6.09	6.02	0.4227	-0.058	-0.2941	
-1.006134	0.066246	0.020862	-9.03	-5.04	6.93	0.4354	-0.0489	-0.3002	
-1.0187	0.079788	0.039894	-10.57	-3.99	7.49	0.4213	-0.0442	-0.3	
-1.015162	0.089182	0.027694	-12.46	-7.56	8.12	0.4213	-0.0459	-0.3032	
-1.01992	0.10675	0.035136	-13.93	-6.93	8.54	0.4255	-0.0532	-0.2893	
-1.023824	0.095404	0.044652	-15.26	-7.14	7.98	0.417	-0.0486	-0.2907	
-1.011136	0.073566	0.043554	-13.44	-4.69	6.93	0.4156	-0.0624	-0.288	
-0.994544	0.07198	0.04087	-14.77	-6.44	7.28	0.4255	-0.0578	-0.2895	
-0.9943	0.077592	0.053558	-15.47	-5.53	7.56	0.4255	-0.0565	-0.2957	
-1.005646	0.094306	0.059414	-15.4	-7.7	8.19	0.4156	-0.0643	-0.302	
-1.011868	0.089182	0.059536	-15.75	-8.61	9.31	0.4241	-0.055	-0.3003	
-1.005646	0.069906	0.057096	-11.97	1.05	6.79	0.4185	-0.0551	-0.3018	
-1.015528	0.06832	0.063562	-13.51	0.35	5.11	0.4185	-0.0536	-0.3049	
-1.020652	0.067832	0.048922	-9.73	0.42	4.34	0.4213	-0.052	-0.3002	
-1.018578	0.084424	0.057706	-9.59	0.56	3.64	0.4171	-0.0473	-0.3	
-1.010648	0.096136	0.061122	-7.21	0.49	5.11	0.4242	-0.0553	-0.3096	
-0.996496	0.104798	0.05551	-7.07	-2.17	6.86	0.4114	-0.052	-0.3001	
-1.000644	0.122122	0.051484	-8.61	0.7	7	0.4143	-0.0582	-0.3034	
-1.00894	0.118462	0.047092	-10.64	-1.26	6.86	0.4199	-0.0506	-0.3079	
-1.023214	0.119194	0.06405	-9.59	-0.56	6.65	0.4128	-0.0567	-0.3034	
-1.02053	0.126148	0.056852	-10.78	-1.19	6.86	0.4255	-0.0536	-0.3049	
-1.016016	0.119316	0.056486	-10.92	-1.54	7.84	0.4171	-0.0537	-0.308	
-1.0004	0.122488	0.061488	-13.65	-0.42	8.4	0.4128	-0.0551	-0.3002	
-0.969534	0.14335	0.064538	-14.56	-3.71	10.36	0.4213	-0.052	-0.3033	
-0.97173	0.15189	0.056486	-15.75	-0.84	9.45	0.417	-0.0596	-0.2957	
-0.990884	0.133224	0.072468	-18.34	-0.84	9.1	0.4199	-0.0475	-0.3047	
-1.004304	0.108946	0.06954	-17.08	-0.63	7.77	0.4171	-0.0599	-0.3113	
-1.010404	0.102358	0.081008	-13.23	1.68	5.88	0.4157	-0.0537	-0.3096	
-1.006012	0.093696	0.075762	-12.95	-0.77	6.23	0.4114	-0.0581	-0.3003	
-0.993812	0.100772	0.070638	-10.71	-0.56	6.16	0.4157	-0.0569	-0.3127	
-1.000278	0.09942999	0.070638	-11.2	2.31	7.35	0.4171	-0.052	-0.3033	
-1.002718	0.099796	0.071126	-9.8	1.75	7.14	0.4157	-0.0598	-0.3066	
-1.004548	0.098698	0.074176	-6.86	0.91	4.76	0.41	-0.0565	-0.2956	
-1.028582	0.095038	0.065026	-5.67	2.87	3.22	0.4171	-0.0539	-0.3142	
-1.021628	0.118584	0.054534	-4.41	3.43	5.53	0.4143	-0.0524	-0.3157	
-1.003572	0.137006	0.050508	-3.22	2.66	7.28	0.4128	-0.0536	-0.3033	
-0.999912	0.149694	0.047702	-1.96	-1.05	6.58	0.4157	-0.0553	-0.3112	
-1.001742	0.163114	0.051362	-1.54	-0.28	3.85	0.4143	-0.0599	-0.3081	
-0.99857	0.164822	0.062586	-1.47	0	1.05	0.4171	-0.0551	-0.3018	
-0.988688	0.170312	0.070516	-0.98	-0.98	-0.07	0.4129	-0.063	-0.3098	
-0.98515	0.170922	0.074542	-0.35	-1.05	0.49	0.4142	-0.0628	-0.3035	
-0.983808	0.164944	0.080276	-0.84	-1.05	0.91	0.4171	-0.0599	-0.3097	
-0.990762	0.155184	0.078568	-1.33	1.47	0.7	0.41	-0.0565	-0.2956	
-0.985638	0.147254	0.076738	-1.19	0.14	0.14	0.4185	-0.0584	-0.3112	
-0.99064	0.13725	0.073932	-0.35	1.89	-1.26	0.4143	-0.0629	-0.3067	
-0.999302	0.128344	0.062464	0.35	1.89	-1.68	0.4213	-0.0568	-0.3081	
-1.011502	0.12261	0.060268	0.7	2.59	-2.17	0.4242	-0.0599	-0.3113	
-1.009184	0.132614	0.05429	0.63	2.38	-1.47	0.4214	-0.057	-0.3159	
-1.002596	0.137006	0.056852	0.91	1.75	-1.26	0.4143	-0.0583	-0.3065	
-1.00101	0.138104	0.055876	-0.35	0.7	-0.98	0.417	-0.058	-0.2941	
-1.005524	0.147742	0.056242	-1.89	2.24	-0.42	0.4242	-0.0555	-0.3174	
-1.005036	0.153354	0.063196	-1.96	2.1	0.07	0.4143	-0.0551	-0.3033	
-1.004426	0.157014	0.063806	-1.33	0.7	-0.07	0.4297	-0.0581	-0.2988	
-1.003084	0.149938	0.052338	-1.54	0.7	-0.77	0.4171	-0.06	-0.3144	
-1.008208	0.148596	0.05551	-1.89	2.03	-1.19	0.4171	-0.0568	-0.3096	
-1.003084	0.148352	0.058072	-1.33	1.05	-1.19	0.4156	-0.0581	-0.2988	
-1.000278	0.14274	0.05673	-0.21	0	-1.47	0.4171	-0.0537	-0.3064	
-1.00772	0.140788	0.051972	0.28	-0.35	-2.17	0.4072	-0.0537	-0.3079	
-1.008574	0.139202	0.049044	0.07	-0.35	-2.1	0.4114	-0.0505	-0.3048	
-1.003328	0.139568	0.057828	0.63	-1.89	-1.75	0.4213	-0.0537	-0.3096	
-0.997838	0.136518	0.060146	1.4	-1.54	-1.96	0.4213	-0.0505	-0.3048	
-0.996984	0.131272	0.06466	2.38	-1.68	-2.59	0.4157	-0.0522	-0.3111	
-0.995398	0.12993	0.069784	3.08	-1.54	-3.5	0.4129	-0.0459	-0.3031	
-0.991616	0.129198	0.069906	4.13	-1.26	-3.78	0.4213	-0.0614	-0.3067	
-0.991494	0.1281	0.071858	5.53	-1.61	-4.13	0.4256	-0.0506	-0.308	
-0.997838	0.12871	0.063562	6.79	-2.38	-4.62	0.4171	-0.0568	-0.3081	
-1.002962	0.129808	0.06222	7.91	-3.71	-6.23	0.4143	-0.0413	-0.3061	
-1.000522	0.116388	0.056242	7.91	-3.85	-8.12	0.4172	-0.0415	-0.3139	
-1.00406	0.117242	0.055998	7.35	-2.31	-8.33	0.4128	-0.0535	-0.2986	
-1.021628	0.124196	0.05673	6.65	-0.98	-8.26	0.4129	-0.0536	-0.3049	
-1.031754	0.121756	0.052338	7.91	-0.63	-9.03	0.4143	-0.0567	-0.3034	
-1.018822	0.109556	0.059292	8.75	-2.59	-9.38	0.4157	-0.0444	-0.3046	
-0.998814	0.108946	0.064172	9.17	-2.8	-10.15	0.4086	-0.0522	-0.3079	
-0.988932	0.116876	0.07259	8.89	-0.28	-11.2	0.4128	-0.0535	-0.2986	
-0.987224	0.112362	0.065148	8.68	0.42	-11.13	0.4171	-0.0476	-0.3094	
-1.005768	0.09857599	0.061976	8.4	0.42	-10.36	0.4143	-0.0524	-0.3173	
-1.016016	0.079788	0.062098	8.47	0.14	-9.03	0.4157	-0.0583	-0.3081	
-1.014796	0.080642	0.075396	9.24	2.31	-8.75	0.4157	-0.046	-0.3094	
-1.00284	0.090036	0.07076	8.96	3.57	-8.4	0.4115	-0.0584	-0.3096	
-1.005646	0.112972	0.068076	10.22	3.99	-8.19	0.4171	-0.0505	-0.3048	
-1.01443	0.10858	0.056852	8.4	4.48	-8.19	0.4129	-0.0445	-0.3093	
-1.011502	0.099308	0.063928	9.03	3.78	-7.7	0.4086	-0.0412	-0.3014	
-1.00833	0.09076799	0.051972	8.96	-0.28	-5.32	0.4199	-0.049	-0.3063	
-1.016016	0.076006	0.04514	9.38	0.91	-5.46	0.4171	-0.049	-0.3048	
-1.011624	0.068808	0.04392	10.64	0.56	-6.09	0.4199	-0.0474	-0.3032	
-1.007354	0.064782	0.054168	11.97	1.61	-6.02	0.4298	-0.0383	-0.3108	
-1.02053	0.074054	0.047702	12.32	2.8	-6.65	0.4185	-0.0475	-0.3047	
-1.026386	0.071614	0.05002	13.58	2.31	-8.26	0.4255	-0.0443	-0.3016	
-1.01199	0.065148	0.049654	13.23	0.42	-7.56	0.4242	-0.0401	-0.3186	
-1.005158	0.06283	0.052582	12.88	2.94	-5.04	0.4255	-0.0489	-0.3001	
-1.00894	0.067832	0.052094	12.67	0.7	-3.29	0.4115	-0.0522	-0.3079	
-1.009062	0.060756	0.047458	13.51	2.87	-2.66	0.4227	-0.0489	-0.3017	
-1.009062	0.06527	0.041236	14.21	3.57	-2.24	0.4213	-0.0519	-0.2986	
-1.01138	0.070882	0.049532	11.69	1.89	-1.47	0.4142	-0.0456	-0.2938	
-1.014674	0.069906	0.044286	14.42	5.95	-2.66	0.4199	-0.0519	-0.2971	
-1.018456	0.06649	0.04453	10.22	1.12	-3.15	0.4297	-0.0503	-0.2955	
-1.005646	0.049898	0.035746	16.66	8.75	-4.27	0.4184	-0.0425	-0.2906	
-1.009428	0.05063	0.051484	14.91	4.27	-3.43	0.4213	-0.0595	-0.2957	
-1.01016	0.066246	0.04148	17.36	6.93	-1.75	0.4255	-0.0487	-0.2939	
-1.003816	0.078812	0.034648	18.06	7.14	-1.82	0.4184	-0.0549	-0.2956	
-1.00894	0.098698	0.0305	17.92	7.49	-1.96	0.4212	-0.0579	-0.2894	
-1.007232	0.08113	0.04087	15.82	6.37	-2.73	0.4325	-0.0578	-0.2895	
-0.999668	0.080886	0.024522	16.03	6.51	-3.92	0.4282	-0.0546	-0.2832	
-0.99125	0.07503	0.032818	11.97	0.14	-3.5	0.4254	-0.0516	-0.2846	
-0.984174	0.06405	0.02562	11.62	1.96	-3.92	0.4325	-0.0642	-0.299	
-1.000888	0.066856	0.021838	12.74	7.14	-3.92	0.4297	-0.0408	-0.2859	
-1.02053	0.06771	0.00915	11.97	7.28	-3.71	0.4282	-0.0608	-0.2849	
-1.023336	0.06344	-0.005002	10.01	5.6	-3.57	0.4325	-0.0562	-0.2848	
-1.02663	0.063074	0.001708	7.49	7.84	-3.71	0.4255	-0.0565	-0.2972	
-1.02602	0.054656	0.003416	4.55	1.82	-3.5	0.4198	-0.0578	-0.2863	
-1.029924	0.05246	-0.002562	7.42	2.87	-3.5	0.4226	-0.0654	-0.2834	
-1.030534	0.04941	-0.002196	7.07	0.84	-2.87	0.4227	-0.0549	-0.294	
-1.012356	0.038918	0.007929999	7.7	0.49	-3.29	0.424	-0.0516	-0.2877	
-0.999546	0.056486	0.010614	9.52	2.38	-3.85	0.4283	-0.0578	-0.2879	
-1.011624	0.055998	0.011834	9.66	2.52	-3.85	0.4353	-0.0623	-0.285	
-1.026874	0.04758	0.00915	8.75	2.03	-3.01	0.4269	-0.0657	-0.2959	
-1.0187	0.034038	0.0061	8.82	1.82	-2.8	0.4254	-0.0621	-0.274	
-1.01199	0.029768	0.005246	8.4	1.61	-1.68	0.4324	-0.0605	-0.274	
-1.005036	0.032086	0.008417999	7.49	1.96	-1.19	0.4226	-0.0607	-0.2817	
-1.004304	0.039772	0.013054	6.58	3.01	-1.19	0.4395	-0.0528	-0.2723	
-1.005646	0.042334	0.007929999	5.04	2.1	-1.61	0.4197	-0.0651	-0.2725	
-1.013576	0.045994	0.005978	3.85	1.54	-0.98	0.4325	-0.0654	-0.2835	
-1.010892	0.048068	0.000244	3.08	1.68	-0.14	0.4282	-0.0593	-0.2848	
-1.015528	0.055022	-0.000122	2.03	1.82	0.35	0.4367	-0.0592	-0.2818	
-1.019066	0.054656	0.001342	1.61	2.73	0.42	0.4309	-0.0572	-0.263	
-1.016504	0.054534	-0.001586	0.14	1.26	0.98	0.4268	-0.0716	-0.2836	
-1.011746	0.052704	-0.003294	-1.12	0.21	1.12	0.424	-0.0654	-0.2818	
-1.015406	0.047336	-0.007076	-1.96	0.35	1.05	0.4381	-0.0608	-0.2849	
-1.012356	0.0488	-0.009028	-2.8	0.07	0.84	0.4282	-0.0591	-0.277	
-1.022482	0.051606	-0.006222	-3.36	-0.14	0.63	0.4325	-0.0608	-0.2849	
-1.020042	0.05307	-0.008417999	-3.36	-0.84	0.84	0.4367	-0.0529	-0.2769	
-1.018334	0.049044	-0.002928	-3.85	-1.47	1.26	0.4338	-0.0543	-0.2707	
-1.006988	0.044164	-0.005124	-3.78	-1.61	1.12	0.4255	-0.0594	-0.2895	
-1.0065	0.050874	-0.001708	-4.27	-1.68	0.98	0.4311	-0.0593	-0.2864	
-1.01626	0.055022	0.000244	-4.83	-1.75	0.7	0.4226	-0.0623	-0.2818	
-1.018578	0.052582	0.000976	-5.6	-2.1	0.63	0.431	-0.0605	-0.274	
-1.01626	0.046482	0.003904	-6.37	-2.94	1.33	0.4212	-0.0562	-0.2832	
-1.014918	0.0488	0.002684	-7.07	-3.29	1.96	0.4282	-0.0531	-0.2831	
-1.015772	0.048556	0.004392	-7.49	-3.15	2.03	0.424	-0.0668	-0.2788	
-1.016748	0.041846	0.00183	-8.4	-3.99	2.24	0.4339	-0.0594	-0.2911	
-1.019798	0.05307	0.003538	-9.17	-4.41	3.5	0.4282	-0.0653	-0.2803	
-1.017724	0.060756	0.00976	-9.73	-4.9	3.99	0.4226	-0.0683	-0.2772	
-1.004914	0.060512	0.011102	-9.45	-4.34	3.08	0.4339	-0.0531	-0.2832	
-0.999058	0.055144	0.012078	-9.87	-5.25	2.24	0.4212	-0.0562	-0.2863	
-1.017236	0.04331	0.008296	-9.17	-4.48	1.61	0.4269	-0.0686	-0.2897	
-1.040416	0.04148	0.001342	-8.75	-4.76	2.45	0.417	-0.0563	-0.2878	
-1.035414	0.065758	0.013176	-10.5	-5.81	5.46	0.4255	-0.0532	-0.2878	
-1.016626	0.093452	0.021228	-13.72	-6.37	8.54	0.4297	-0.0516	-0.2878	
-1.015406	0.109068	0.027816	-17.01	-5.46	8.75	0.4255	-0.0548	-0.2894	
-0.98393	0.070272	0.02196	-21.63	-23.52	8.05	0.4325	-0.0564	-0.2941	
-1.000766	0.064172	0.04331	-15.12	-5.32	3.29	0.424	-0.0532	-0.2878	
-1.010526	0.04209	0.039406	-15.68	-10.15	4.34	0.4241	-0.0581	-0.2988	
-1.008208	0.056364	0.057584	-13.65	-7.21	6.93	0.4213	-0.0567	-0.3034	
-1.003938	0.082594	0.055876	-15.12	-5.04	9.73	0.4171	-0.0659	-0.3021	
-0.996008	0.101992	0.059536	-17.57	-5.32	11.69	0.4283	-0.0582	-0.3019	
-0.990396	0.098454	0.060756	-19.32	-5.11	10.29	0.4185	-0.0535	-0.3018	
-0.998936	0.08357	0.058804	-19.39	-4.9	7.35	0.4185	-0.0537	-0.308	
-1.011258	0.05978	0.044896	-17.57	-5.53	6.3	0.4157	-0.066	-0.3052	
-1.01626	0.056974	0.063928	-13.3	2.59	5.11	0.4185	-0.0569	-0.3112	
-1.01565	0.082716	0.055022	-11.62	-1.26	5.18	0.4143	-0.0583	-0.3081	
-1.021506	0.083204	0.048678	-10.5	3.36	5.6	0.4213	-0.0536	-0.3049	
-1.013698	0.08479	0.042944	-9.94	2.94	4.97	0.4114	-0.0519	-0.2986	
-1.006866	0.09089	0.044042	-8.75	2.03	4.69	0.4128	-0.06439999	-0.3051	
-1.009428	0.098088	0.044652	-8.33	0.91	3.92	0.4199	-0.0444	-0.3047	
-1.01809	0.100162	0.04087	-6.93	-1.05	3.57	0.4143	-0.0584	-0.3112	
-1.02846	0.098942	0.039162	-6.51	-0.84	3.22	0.4157	-0.0535	-0.3018	
-1.02663	0.111264	0.043676	-6.23	-1.47	3.64	0.4227	-0.0582	-0.305	
-1.01382	0.119316	0.040504	-7.21	-3.08	4.76	0.4255	-0.0567	-0.3035	
-1.009794	0.11956	0.045384	-8.12	-3.08	4.62	0.4143	-0.049	-0.3032	
-1.008208	0.114314	0.046482	-8.05	-3.85	3.64	0.42	-0.0445	-0.3109	
-1.000522	0.119072	0.057462	-7.98	-5.81	2.52	0.4241	-0.0534	-0.2956	
-0.99796	0.105652	0.06283	-8.12	-4.55	2.17	0.4185	-0.0553	-0.3096	
-1.00406	0.10004	0.074176	-8.89	-2.38	2.31	0.42	-0.0569	-0.3143	
-1.000766	0.102724	0.07381	-10.15	-1.96	4.27	0.4143	-0.0521	-0.3064	
-0.999668	0.102968	0.083204	-9.52	-2.73	5.6	0.42	-0.0569	-0.3143	
-0.994422	0.09857599	0.083692	-11.06	-0.77	7.49	0.4242	-0.0553	-0.3096	
-0.986004	0.095648	0.081496	-11.48	-0.35	7.7	0.4256	-0.0461	-0.3125	
-0.98942	0.099308	0.07564	-9.03	0.07	6.58	0.4185	-0.0551	-0.3034	
-1.000278	0.090524	0.077592	-6.65	1.82	4.55	0.4115	-0.0555	-0.3189	
-1.003206	0.095404	0.072712	-3.43	1.82	1.75	0.4213	-0.0612	-0.3004	
-1.00589	0.110898	0.059536	-1.47	2.31	0.49	0.4185	-0.052	-0.3033	
-1.012356	0.11285	0.057096	-1.33	1.89	0.84	0.4115	-0.0539	-0.3142	
-1.017724	0.111996	0.053558	0.07	1.96	1.12	0.4143	-0.049	-0.3063	
-1.012966	0.112362	0.060268	0.56	0.07	1.75	0.4199	-0.0583	-0.3081	
-1.00223	0.115412	0.06039	0.49	-0.35	1.75	0.4114	-0.0535	-0.3017	
-1.0004	0.113948	0.063684	1.4	-0.28	1.12	0.4171	-0.0552	-0.308	
-1.002962	0.11773	0.064294	1.54	0.28	1.47	0.4185	-0.0569	-0.3143	
-1.006866	0.121878	0.058926	0.98	-0.91	1.82	0.4129	-0.049	-0.3032	
-1.006012	0.116998	0.067588	0.77	-0.28	1.4	0.4086	-0.0613	-0.3035	
-1.009794	0.122976	0.068564	0.35	0.91	1.4	0.4101	-0.0462	-0.3171	
-1.00345	0.134566	0.06405	0.28	0.84	1.61	0.4185	-0.0597	-0.3035	
-0.995154	0.139934	0.066124	-0.91	0	2.1	0.4157	-0.0613	-0.3051	
-0.996618	0.128466	0.066856	-2.31	1.47	2.31	0.4199	-0.0614	-0.3067	
-1.005646	0.122	0.063928	-2.17	1.12	1.96	0.4185	-0.0522	-0.3095	
-1.004914	0.123342	0.066002	-1.89	-0.07	1.61	0.4198	-0.0595	-0.2957	
-0.996984	0.125172	0.069662	-1.47	0.42	1.4	0.4129	-0.0522	-0.3095	
-0.993934	0.12261	0.059902	-1.47	0.56	1.12	0.4242	-0.0584	-0.3128	
-1.006378	0.12444	0.060146	-2.03	2.52	1.61	0.4114	-0.066	-0.3083	
-1.005646	0.1281	0.062098	-2.1	1.96	2.1	0.4241	-0.0598	-0.3051	
-1.002474	0.130052	0.062586	-2.45	1.47	1.68	0.4199	-0.0535	-0.3002	
-1.002474	0.129564	0.06344	-2.45	1.89	0.7	0.4101	-0.0568	-0.3096	
-1.005768	0.129442	0.057706	-2.38	1.19	0.21	0.4071	-0.0657	-0.2942	
-1.004914	0.133224	0.055876	-2.38	1.54	0.14	0.4128	-0.066	-0.3067	
-0.998692	0.139568	0.060146	-1.26	0.21	0.28	0.4186	-0.057	-0.319	
-1.000278	0.139446	0.061732	0.07	-0.28	-0.63	0.427	-0.0506	-0.3064	
-1.005402	0.129442	0.056852	1.33	-0.42	-2.17	0.4156	-0.0565	-0.2956	
-1.00467	0.127734	0.057218	2.03	-1.47	-3.15	0.4114	-0.0567	-0.3065	
-1.001132	0.12078	0.060024	2.59	-1.33	-3.64	0.4198	-0.0611	-0.2942	
-0.996984	0.114558	0.062098	2.87	-1.89	-3.85	0.4143	-0.0598	-0.305	
-1.003328	0.108946	0.059902	3.29	-1.68	-4.48	0.4157	-0.0585	-0.3143	
-1.018944	0.110288	0.061488	4.27	-1.4	-5.32	0.4143	-0.052	-0.3033	
-1.014552	0.10858	0.06405	4.55	-2.45	-5.67	0.4199	-0.0596	-0.2973	
-1.002108	0.109922	0.061122	5.25	-2.17	-6.02	0.4171	-0.06439999	-0.3052	
-0.997838	0.112484	0.06161	4.69	-1.68	-5.53	0.4143	-0.0506	-0.3063	
-1.007842	0.122366	0.056242	3.99	-0.56	-4.69	0.4199	-0.0568	-0.3097	
-1.019554	0.120292	0.055876	2.52	-1.82	-3.71	0.42	-0.0526	-0.3251	
-1.016138	0.108946	0.064782	1.47	-2.94	-3.01	0.4171	-0.0582	-0.3034	
-1.01199	0.0976	0.065636	1.4	-2.1	-2.73	0.4256	-0.0522	-0.3111	
-1.01016	0.105042	0.070516	0.84	-0.42	-2.73	0.4157	-0.0489	-0.3016	
-1.000156	0.114192	0.069052	1.96	-0.07	-2.73	0.4129	-0.0429	-0.3061	
-0.98698	0.119194	0.068564	2.73	-1.05	-3.08	0.4156	-0.0581	-0.3003	
-1.00162	0.111996	0.061244	4.06	0	-4.27	0.4214	-0.0445	-0.3094	
-1.014308	0.101992	0.059292	4.27	-1.4	-5.67	0.4157	-0.0474	-0.3032	
-1.017114	0.107238	0.065392	3.64	-0.91	-6.23	0.4143	-0.0507	-0.3126	
-1.014308	0.116022	0.064294	4.41	0.98	-5.95	0.4129	-0.0599	-0.3081	
-1.004426	0.120902	0.068076	4.48	-0.35	-5.88	0.4171	-0.0521	-0.3064	
-1.001742	0.099308	0.062464	4.2	-0.7	-5.53	0.4171	-0.0367	-0.306	
-1.003206	0.090158	0.072224	5.32	-3.15	-5.67	0.4171	-0.0507	-0.3095	
-0.999912	0.074908	0.077958	3.92	-0.35	-6.16	0.4115	-0.0477	-0.3141	
-0.999546	0.079544	0.080276	6.58	1.19	-6.44	0.4143	-0.0553	-0.3096	
-0.995886	0.075884	0.073688	6.16	-1.33	-5.81	0.4171	-0.0429	-0.3077	
-1.000278	0.080642	0.076738	7.21	1.75	-5.6	0.4157	-0.0414	-0.3108	
-1.0187	0.09162199	0.065514	6.44	2.24	-4.41	0.427	-0.0522	-0.3096	
-1.020896	0.094794	0.058438	4.62	0.98	-2.45	0.4185	-0.0444	-0.3062	
-1.0187	0.08784	0.056364	2.87	-0.49	-0.98	0.41	-0.0505	-0.3048	
-1.023824	0.084424	0.060268	2.87	0.77	-0.7	0.4143	-0.0507	-0.3126	
-1.018212	0.07442	0.049166	4.48	0.28	-1.19	0.4101	-0.0461	-0.3109	
-1.011014	0.070638	0.047214	4.06	0	-1.54	0.4144	-0.0525	-0.3204	
-1.01016	0.067832	0.056852	6.3	-0.28	-1.96	0.4199	-0.0474	-0.3032	
-1.014186	0.059292	0.059414	4.69	-2.31	-0.98	0.4199	-0.0613	-0.3035	
-1.003816	0.056608	0.063684	7.63	-2.03	-1.19	0.4142	-0.0534	-0.2971	
-1.00833	0.070028	0.065392	9.73	1.54	-1.96	0.4058	-0.0521	-0.3032	
-1.003206	0.082838	0.072346	10.71	-0.49	-2.31	0.4129	-0.0491	-0.3079	
-0.99918	0.080032	0.073444	11.41	6.58	-5.04	0.4143	-0.049	-0.3063	
-0.996374	0.100894	0.092354	15.54	1.12	-4.34	0.4185	-0.0459	-0.3047	
-0.995764	0.117974	0.07905599	16.45	7.56	-5.32	0.4185	-0.0568	-0.3081	
-0.989908	0.115534	0.068442	15.54	6.09	-6.3	0.4157	-0.052	-0.3017	
-0.98637	0.10858	0.068442	14.7	6.16	-7.21	0.4128	-0.0551	-0.3018	
-0.980026	0.098332	0.052582	13.51	4.27	-6.79	0.4214	-0.0584	-0.3128	
-1.003816	0.080642	0.046116	9.66	4.41	-6.65	0.4184	-0.058	-0.2972	
-1.031388	0.080276	0.037576	10.36	3.5	-6.86	0.4171	-0.052	-0.3033	
-1.03273	0.066246	0.037942	8.47	2.45	-6.09	0.4255	-0.0536	-0.3034	
-1.031632	0.059902	0.029768	8.4	3.29	-4.9	0.4199	-0.0522	-0.308	
-1.025166	0.055388	0.026474	9.17	3.64	-4.48	0.4269	-0.0425	-0.2938	
-1.016748	0.0488	0.030378	8.82	3.22	-4.76	0.4241	-0.0536	-0.3049	
-1.00528	0.04514	0.039528	6.23	0.91	-3.99	0.4227	-0.0533	-0.294	
-1.008452	0.060024	0.032574	4.9	0.28	-3.5	0.4171	-0.0582	-0.3019	
-1.013088	0.061488	0.044652	2.52	-0.21	-2.17	0.4255	-0.0582	-0.3051	
-1.01443	0.058438	0.047946	1.61	-1.68	-1.68	0.4129	-0.0428	-0.3046	
-1.010526	0.055754	0.049654	1.47	-1.54	-1.4	0.4199	-0.0629	-0.3051	
-1.00345	0.053558	0.053192	1.54	-0.91	-1.19	0.4185	-0.0475	-0.3079	
-0.999058	0.055144	0.0488	3.22	0.84	-1.89	0.4213	-0.0459	-0.3047	
-0.998692	0.052826	0.047214	3.92	2.03	-2.8	0.4227	-0.0521	-0.3049	
-1.001742	0.04636	0.045628	5.18	4.41	-3.71	0.4227	-0.0471	-0.2907	
-1.004548	0.047336	0.047092	3.85	2.87	-2.87	0.4171	-0.0613	-0.3035	
-1.01138	0.04941	0.041358	4.13	3.29	-1.89	0.4298	-0.0427	-0.2985	
-1.0248	0.053192	0.038308	3.71	3.15	-0.63	0.41	-0.0503	-0.2938	
-1.025288	0.05246	0.030866	3.43	3.71	0	0.4283	-0.0564	-0.2926	
-1.017602	0.055876	0.02684	2.38	2.24	0.21	0.4227	-0.0471	-0.2923	
-1.017968	0.063684	0.026596	1.12	1.05	0.7	0.4213	-0.0596	-0.2973	
-1.01931	0.062464	0.024156	0.63	0.49	0.91	0.4255	-0.0488	-0.2986	
-1.012234	0.057462	0.027328	-0.07	-0.28	0.98	0.4255	-0.0626	-0.2942	
-1.009306	0.057828	0.03416	0.14	-0.49	0.7	0.4241	-0.0579	-0.2926	
-1.0065	0.056242	0.036844	0.28	-0.28	0.21	0.424	-0.0532	-0.2893	
-1.006622	0.052826	0.040626	-0.21	0.21	0.07	0.4213	-0.0473	-0.2985	
-1.007232	0.057462	0.041724	-0.98	0	0.7	0.4255	-0.0549	-0.2941	
-1.010038	0.063196	0.03843	-1.47	-0.28	1.12	0.4284	-0.0505	-0.3033	
-1.013576	0.058926	0.02928	-2.17	0.14	0.84	0.4269	-0.0441	-0.2938	
-1.012722	0.057462	0.028914	-2.38	-0.21	0.28	0.4241	-0.0503	-0.2971	
-1.010648	0.058682	0.031598	-3.36	-1.4	0.49	0.4199	-0.0674	-0.3006	
-1.012112	0.061854	0.031842	-3.71	-1.47	0.7	0.4227	-0.0473	-0.3001	
-1.016504	0.059536	0.030256	-3.78	-1.47	1.12	0.4325	-0.058	-0.2942	
-1.009672	0.057584	0.033306	-3.71	-2.17	1.05	0.4226	-0.0484	-0.2814	
-1.014308	0.052216	0.033184	-3.99	-1.96	0.7	0.4226	-0.0533	-0.2909	
-1.01565	0.04941	0.035502	-4.55	-2.17	0.98	0.4226	-0.061	-0.2926	
-1.02114	0.045506	0.03843	-5.39	-2.87	1.89	0.4241	-0.0518	-0.2955	
-1.021018	0.046604	0.041114	-6.02	-2.94	3.43	0.4227	-0.055	-0.2972	
-1.009794	0.056242	0.043066	-7.07	-3.01	5.39	0.4213	-0.0596	-0.2973	
-1.004304	0.070516	0.048556	-8.19	-3.15	6.51	0.4256	-0.0583	-0.3082	
-0.999912	0.071492	0.044408	-8.05	-2.03	6.09	0.4199	-0.0503	-0.2955	
-1.012234	0.063074	0.043554	-8.4	-1.33	5.46	0.4269	-0.0549	-0.2941	
-1.013698	0.060878	0.046482	-7.07	-2.45	4.9	0.4156	-0.0549	-0.2956	
-1.012112	0.074176	0.04819	-6.86	-2.24	5.6	0.4185	-0.0519	-0.2986	
-1.013088	0.100772	0.050264	-8.19	-3.29	7	0.4157	-0.0568	-0.3081	
-1.008208	0.103578	0.050874	-10.08	-4.55	7.49	0.4199	-0.0627	-0.2973	
-1.001742	0.088084	0.055022	-11.34	-4.55	6.86	0.4184	-0.0565	-0.2972	
-0.98759	0.06771	0.05368	-11.9	-7.49	6.16	0.4157	-0.0615	-0.3129	
-0.999912	0.074298	0.054168	-9.87	-0.98	4.9	0.4086	-0.0553	-0.3095	
-1.017724	0.077104	0.060024	-10.36	-0.49	3.71	0.4227	-0.0567	-0.3034	
-1.020896	0.093208	0.054778	-11.55	-3.5	5.25	0.4044	-0.0597	-0.3018	
-1.00955	0.082838	0.061122	-13.37	-3.85	7.49	0.4128	-0.0505	-0.3017	
-1.002474	0.0854	0.059292	-11.83	-3.15	7.49	0.41	-0.0506	-0.3063	
-1.007964	0.083082	0.051972	-9.31	2.31	5.67	0.4157	-0.0567	-0.3065	
-1.002596	0.084912	0.056852	-8.54	0.98	3.64	0.4128	-0.0505	-0.3032	
-1.00223	0.098454	0.05856	-7.35	0.84	2.59	0.4157	-0.0505	-0.3048	
-1.013088	0.118584	0.054412	-7.56	1.75	2.03	0.4241	-0.0474	-0.3032	
-1.021506	0.111508	0.060634	-8.61	1.05	3.22	0.4086	-0.0473	-0.3	
-1.02358	0.104066	0.05734	-10.01	-1.54	3.71	0.4228	-0.0506	-0.3095	
-1.01626	0.1037	0.055876	-9.31	-1.68	5.04	0.4115	-0.0507	-0.3094	
-1.006622	0.102968	0.056486	-9.59	-0.7	4.97	0.4157	-0.0523	-0.3142	
-0.99857	0.105042	0.05673	-8.89	-1.33	3.92	0.4114	-0.0521	-0.3048	
-1.001376	0.11041	0.057828	-9.31	-2.52	2.94	0.4128	-0.0582	-0.305	
-1.01077	0.109068	0.056364	-10.5	-1.68	2.24	0.4087	-0.0447	-0.3171	
-1.01687	0.09516	0.06222	-10.29	-1.47	2.52	0.4044	-0.0458	-0.2984	
-1.01382	0.082716	0.073688	-10.15	-0.35	3.78	0.4143	-0.0584	-0.3097	
-1.001254	0.08686399	0.07259	-9.87	0	5.11	0.4129	-0.0491	-0.3094	
-0.991616	0.093086	0.06588	-8.19	-0.56	5.67	0.4129	-0.0538	-0.3111	
-0.98881	0.11041	0.071492	-8.33	-1.19	4.83	0.4087	-0.0586	-0.3174	
-0.989908	0.10553	0.071858	-7.98	0.77	4.27	0.4171	-0.0583	-0.3081	
-0.999668	0.0976	0.080764	-8.75	-0.35	4.06	0.413	-0.0448	-0.3233	
-1.001986	0.102968	0.079544	-7.7	0.98	3.57	0.4185	-0.0584	-0.3128	
-0.987102	0.094916	0.083326	-7.77	2.38	4.06	0.4213	-0.0536	-0.3049	
-0.988078	0.102114	0.085034	-5.11	2.45	4.34	0.4115	-0.0446	-0.3155	
-1.004792	0.105408	0.071126	-3.85	2.59	5.39	0.4143	-0.0551	-0.3033	
-1.009428	0.117242	0.067466	-3.64	2.1	5.74	0.4242	-0.0491	-0.3095	
-1.001498	0.128222	0.05978	-3.01	2.52	4.9	0.4143	-0.0443	-0.3015	
-1.008208	0.122488	0.056364	-3.36	4.06	2.87	0.4255	-0.0489	-0.3001	
-1.020286	0.121268	0.05429	-2.03	3.85	2.17	0.4213	-0.0568	-0.3081	
-1.021384	0.120292	0.047214	-1.4	1.47	2.24	0.41	-0.0629	-0.3051	
-1.010404	0.123586	0.05124	-1.33	0.7	2.52	0.4128	-0.0613	-0.3035	
-1.00406	0.124928	0.05246	-1.26	1.05	2.24	0.4086	-0.0552	-0.308	
-1.00284	0.124562	0.05673	-1.19	0.77	1.61	0.4199	-0.0475	-0.3047	
-1.004426	0.117242	0.057828	-1.33	0.49	0.98	0.4157	-0.0538	-0.3111	
-1.01626	0.119194	0.062952	-0.63	1.82	0.56	0.4185	-0.0567	-0.3034	
-1.011258	0.12139	0.058194	-0.35	0.77	0.56	0.4185	-0.0613	-0.3051	
-0.999912	0.129198	0.061244	0.07	0.56	0.7	0.4157	-0.0613	-0.3035	
-0.989176	0.13115	0.05917	-0.35	1.26	0.63	0.4114	-0.0598	-0.3034	
-0.990518	0.133224	0.061	-0.49	0.63	0.28	0.4171	-0.0491	-0.311	
-1.0004	0.136152	0.06283	-0.56	0.63	-0.28	0.4156	-0.0628	-0.302	
-1.01016	0.131272	0.062098	-0.28	1.05	-0.77	0.4171	-0.0537	-0.3096	
-1.00406	0.127246	0.063684	0.14	0.49	-0.91	0.4129	-0.0645	-0.3082	
-0.994788	0.12871	0.063562	-0.07	1.26	-0.77	0.4157	-0.0535	-0.3018	
-0.987956	0.129198	0.060146	-0.28	2.38	-1.05	0.4142	-0.0442	-0.2968	
-0.99491	0.125904	0.053802	0.14	1.12	-1.05	0.4114	-0.0473	-0.3	
-1.014064	0.121024	0.051728	0.28	1.61	-0.98	0.4128	-0.0582	-0.3034	
-1.025166	0.11895	0.049044	0.77	1.19	-1.19	0.4129	-0.0506	-0.3063	
-1.020286	0.114436	0.047214	1.68	0.42	-1.82	0.4171	-0.0473	-0.2985	
-1.01016	0.117974	0.041724	2.45	-0.84	-2.24	0.41	-0.0566	-0.2987	
-1.005646	0.119804	0.044652	2.59	-1.26	-2.45	0.4199	-0.0472	-0.2954	
-1.004792	0.118462	0.047214	2.66	-1.96	-2.59	0.4199	-0.0472	-0.2954	
-1.010892	0.120048	0.052582	2.8	-2.66	-2.94	0.4199	-0.0551	-0.3034	
-1.012844	0.119316	0.054656	3.92	-3.85	-4.13	0.4312	-0.0615	-0.3114	
-1.006866	0.115046	0.057584	4.13	-4.62	-4.69	0.4157	-0.0506	-0.3079	
-1.00101	0.11712	0.057584	3.57	-3.71	-4.2	0.4213	-0.0519	-0.2986	
-1.014796	0.13664	0.055388	3.22	-2.94	-3.01	0.4157	-0.0442	-0.2984	
-1.016138	0.136884	0.059658	4.13	-3.29	-3.85	0.4185	-0.0475	-0.3047	
-1.000278	0.11712	0.079178	6.79	-5.81	-5.95	0.4213	-0.0534	-0.2956	
-0.985638	0.083448	0.075884	7.91	-6.72	-8.19	0.41	-0.0566	-0.2987	
-0.990396	0.064782	0.074298	9.31	0.07	-9.73	0.41	-0.0552	-0.3064	
-1.000766	0.086376	0.07124799	9.17	1.47	-9.03	0.4199	-0.0456	-0.2938	
-1.009184	0.11285	0.068564	8.82	1.05	-7.56	0.4115	-0.0507	-0.3126	
-1.010282	0.114436	0.068076	9.87	1.4	-6.79	0.4199	-0.0537	-0.3096	
-1.006988	0.08723	0.067954	9.03	0.77	-7.49	0.4185	-0.0519	-0.2986	
-1.001376	0.066002	0.064172	9.45	3.29	-8.54	0.4157	-0.0567	-0.3065	
-1.0004	0.061366	0.058316	10.15	5.25	-8.75	0.4185	-0.0411	-0.2968	
-1.001132	0.089792	0.05917	10.71	4.55	-7.84	0.4058	-0.0474	-0.3	
-1.017114	0.117242	0.054778	10.01	3.08	-7	0.4228	-0.0475	-0.3079	
-1.036756	0.118828	0.041724	9.24	2.87	-6.3	0.4114	-0.0366	-0.3013	
-1.025166	0.09857599	0.054656	8.33	-0.42	-4.9	0.4157	-0.0458	-0.3	
-0.996984	0.075274	0.047214	7.14	-0.35	-5.25	0.4171	-0.0536	-0.3049	
-0.987834	0.051606	0.065514	10.01	3.22	-6.02	0.4143	-0.052	-0.3033	
-0.991738	0.052338	0.058194	12.6	1.54	-6.16	0.4129	-0.046	-0.3062	
-1.00528	0.069052	0.055876	13.65	4.27	-6.3	0.4156	-0.0395	-0.2952	
-1.009794	0.089426	0.058316	12.81	3.99	-5.32	0.4185	-0.0505	-0.3033	
-1.020286	0.083936	0.047458	10.71	4.2	-3.36	0.4142	-0.0549	-0.294	
-1.01687	0.06527	0.054778	6.44	2.45	-1.4	0.4283	-0.0487	-0.2924	
-1.004914	0.058072	0.05002	7.84	3.08	-1.4	0.4284	-0.0475	-0.3064	
-0.99979	0.062586	0.044408	10.29	4.2	-1.68	0.4156	-0.0426	-0.2952	
-0.998204	0.07015	0.046238	10.57	4.27	-2.52	0.4171	-0.0504	-0.2986	
-1.010282	0.07625	0.039162	10.5	4.76	-2.73	0.4213	-0.0518	-0.294	
-1.020896	0.073322	0.03721	9.1	4.34	-1.54	0.4198	-0.0564	-0.2925	
-1.02297	0.07625	0.035746	8.96	4.97	-0.49	0.4241	-0.0564	-0.2941	
-1.015528	0.080276	0.033184	8.12	3.71	0.07	0.417	-0.0456	-0.2907	
-1.015528	0.077348	0.028304	6.44	4.55	0.35	0.4171	-0.055	-0.3002	
-1.015284	0.07503	0.023912	4.34	3.57	0.49	0.4269	-0.0565	-0.2988	
-1.012112	0.066368	0.019642	1.82	0.28	0.98	0.4198	-0.0549	-0.294	
-1.0187	0.07015	0.01891	0.14	-0.77	1.54	0.4269	-0.0503	-0.2955	
-1.020042	0.081374	0.018056	-1.26	-2.17	1.75	0.4142	-0.0503	-0.2954	
-1.027484	0.086132	0.018544	-2.73	-3.08	1.68	0.4297	-0.0548	-0.2925	
-1.029802	0.089182	0.019886	-4.83	-4.13	1.96	0.417	-0.0593	-0.2863	
-1.027484	0.098088	0.022082	-7	-6.02	2.73	0.4227	-0.055	-0.2972	
-1.020164	0.101626	0.03355	-8.82	-8.4	3.85	0.4128	-0.0487	-0.2923	
-1.01077	0.096624	0.03904	-9.17	-9.45	4.06	0.4256	-0.0552	-0.3065	
-0.994422	0.088816	0.048678	-9.38	-10.22	3.36	0.4199	-0.0503	-0.297	
-0.986492	0.077104	0.061976	-8.68	-9.73	2.24	0.4213	-0.0597	-0.3019	
-0.988566	0.066978	0.067954	-7.14	-8.19	1.33	0.4185	-0.0565	-0.2987	
-0.997838	0.060146	0.074908	-6.09	-5.39	0.56	0.4241	-0.0551	-0.3034	
-1.005402	0.054656	0.074786	-4.83	-3.29	0.49	0.4086	-0.0537	-0.3064	
-1.010892	0.050508	0.076616	-3.78	-1.89	0.84	0.4156	-0.0564	-0.294	
-1.001742	0.053192	0.077958	-2.73	-0.77	1.26	0.4185	-0.0537	-0.3096	
-0.989542	0.056608	0.066124	-1.54	0.28	1.12	0.4114	-0.0474	-0.3016	
-0.999302	0.061854	0.057706	0.42	2.52	0.7	0.4185	-0.0523	-0.3127	
-1.015162	0.06954	0.052338	1.61	3.22	0.21	0.4101	-0.0538	-0.3126	
-1.02053	0.082472	0.048556	1.82	3.5	-0.07	0.4213	-0.0382	-0.3045	
-1.021994	0.09357399	0.044164	1.61	3.43	-0.14	0.4128	-0.0442	-0.2968	
-1.021506	0.102602	0.043798	0.21	2.17	-0.07	0.4156	-0.0488	-0.2954	
-1.009184	0.108946	0.044652	-1.54	-0.07	0.35	0.4128	-0.0536	-0.3033	
-1.004304	0.109434	0.046726	-3.64	-1.54	0.91	0.4199	-0.0519	-0.2971	
-1.005036	0.10553	0.051606	-5.53	-3.22	1.4	0.4115	-0.0506	-0.3063	
-1.009062	0.099552	0.059902	-6.44	-4.48	1.82	0.4129	-0.0538	-0.3111	
-1.007232	0.088816	0.065026	-6.72	-4.48	2.1	0.4157	-0.0475	-0.3047	
-1.001376	0.074054	0.065636	-6.72	-4.83	2.03	0.4171	-0.0506	-0.3064	
-1.003694	0.066124	0.070028	-5.6	-2.66	1.12	0.4058	-0.0319	-0.2996	
-1.00528	0.05917	0.071858	-3.71	-1.75	0	0.4143	-0.0476	-0.3094	
-1.006134	0.05856	0.069662	-0.98	0.63	-0.98	0.4142	-0.0488	-0.2954	
-1.006134	0.057584	0.066612	-0.21	0.7	-0.98	0.4157	-0.0537	-0.3064	
-1.00894	0.063074	0.060878	1.75	2.38	-0.91	0.4142	-0.0535	-0.3017	
-1.008818	0.074054	0.055632	2.17	2.38	-0.91	0.4115	-0.0537	-0.3095	
-1.009184	0.085278	0.053802	2.31	2.45	-0.84	0.4157	-0.049	-0.3048	
-1.01504	0.091378	0.0488	2.1	2.24	-0.98	0.4199	-0.0568	-0.3097	
-1.013576	0.09467199	0.050508	1.47	0.91	-1.05	0.4213	-0.052	-0.3033	
-1.009794	0.094428	0.05734	0.56	0.21	-0.84	0.4143	-0.0537	-0.308	
-1.004426	0.091134	0.061122	0.21	0.21	-0.56	0.4185	-0.0535	-0.2987	
-0.999668	0.09089	0.062952	-0.28	0.14	-0.49	0.4213	-0.0506	-0.308	
-1.000644	0.086986	0.066002	-0.77	-0.07	-0.49	0.42	-0.0445	-0.3109	
-1.005768	0.08357	0.062098	-0.84	0.07	-0.49	0.4128	-0.0458	-0.3	
-1.011868	0.07808	0.059658	-0.91	0.35	-0.63	0.4143	-0.0522	-0.3095	
-1.013454	0.07198	0.05917	-0.7	0.63	-0.35	0.4213	-0.0459	-0.3063	
-1.011868	0.071126	0.056242	-0.49	0.7	-0.28	0.4227	-0.0458	-0.3	
-1.010526	0.072468	0.052948	0.28	1.05	-0.07	0.4128	-0.0518	-0.2939	
-1.011136	0.075762	0.051606	0.49	0.84	-0.14	0.4142	-0.0519	-0.297	
-1.010526	0.079422	0.052094	0.42	0.49	-0.28	0.4198	-0.0518	-0.2939	
-1.009672	0.082472	0.054656	0.21	0.56	-0.28	0.4199	-0.0505	-0.3017	
-1.006378	0.082838	0.058682	-0.14	0.07	-0.07	0.4114	-0.0536	-0.3033	
-1.005524	0.084668	0.05978	-0.35	-0.28	0.21	0.4185	-0.0537	-0.308	
-1.009672	0.085522	0.059292	-0.42	-0.42	0.28	0.4114	-0.0583	-0.3065	
-1.009428	0.084058	0.05978	-0.42	-0.42	0.28	0.4185	-0.0458	-0.3016	
-1.011624	0.081496	0.055388	-0.49	0	0.28	0.4143	-0.0428	-0.3046	
-1.011746	0.079422	0.053924	-0.49	0.14	0.35	0.4199	-0.0491	-0.3079	
-1.012844	0.07747	0.052094	-0.49	0	0.42	0.4171	-0.0522	-0.308	
-1.01138	0.078202	0.053192	-0.35	-0.28	0.21	0.4072	-0.0615	-0.3097	
-1.010892	0.0793	0.053802	-0.35	-0.42	0.21	0.4185	-0.0459	-0.3047	
-1.009428	0.080642	0.05368	-0.21	-0.49	0.21	0.4185	-0.0553	-0.3096	
-1.00894	0.081374	0.057828	-0.07	-0.91	0.21	0.42	-0.0492	-0.3141	
-1.006744	0.082594	0.06039	-0.07	-0.56	0.21	0.4143	-0.0507	-0.311	
-1.004426	0.08295999	0.061976	-0.14	-0.35	0.14	0.4157	-0.049	-0.3048	
-1.002596	0.083326	0.063928	-0.07	-0.14	0.07	0.4171	-0.0522	-0.308	
-1.001254	0.083082	0.06344	-0.21	0	-0.14	0.4185	-0.0569	-0.3128	
-1.003328	0.082838	0.062464	-0.21	0.35	-0.14	0.4115	-0.0521	-0.3064	
-1.006988	0.082838	0.059292	-0.28	0.63	-0.14	0.4213	-0.0566	-0.3019	
-1.00894	0.08295999	0.05612	-0.49	0.63	-0.14	0.4101	-0.046	-0.3062	
-1.011014	0.08174	0.054778	-0.49	0.49	-0.21	0.4185	-0.0459	-0.3063	
-1.010404	0.080276	0.053558	-0.42	0.21	-0.35	0.4185	-0.0489	-0.3001	
-1.01138	0.079788	0.053314	-0.35	0.21	-0.35	0.4114	-0.055	-0.2986	
-1.01199	0.079788	0.053802	-0.21	0	-0.35	0.417	-0.0426	-0.2953	
-1.012112	0.080398	0.05551	-0.35	-0.35	-0.21	0.4171	-0.0504	-0.3001	
-1.01077	0.08052	0.056364	-0.35	-0.28	-0.07	0.4213	-0.0475	-0.3079	
-1.008574	0.08052	0.059048	-0.42	-0.28	0	0.4101	-0.043	-0.3124	
-1.006134	0.080032	0.05978	-0.42	-0.35	0	0.4199	-0.0489	-0.3017	
-1.007598	0.07991	0.058926	-0.49	-0.14	0.07	0.4171	-0.0475	-0.3047	
-1.008086	0.0793	0.05795	-0.35	0	0	0.4128	-0.0488	-0.2954	
-1.008574	0.080886	0.058804	-0.35	0.07	0.07	0.4157	-0.0505	-0.3017	
-1.009306	0.08052	0.057706	-0.28	0.28	0.14	0.4171	-0.0582	-0.3034	
-1.01077	0.080154	0.055998	-0.14	0.35	0.07	0.4128	-0.0549	-0.2955	
-1.00894	0.08052	0.055388	0	0.28	0	0.4101	-0.0475	-0.3062	
-1.01016	0.083082	0.055266	0	0.21	0	0.4142	-0.0549	-0.2955	
-1.009184	0.084912	0.055998	-0.07	0	-0.07	0.4185	-0.0473	-0.3001	
-1.008452	0.083326	0.056608	-0.21	-0.07	0	0.4044	-0.0584	-0.3112	
-1.008452	0.082472	0.056974	-0.21	-0.35	0	0.4157	-0.0491	-0.3094	
-1.007232	0.08113	0.058194	-0.14	-0.14	-0.07	0.4213	-0.0506	-0.308	
-1.008574	0.079788	0.058926	-0.07	-0.07	-0.28	0.4171	-0.0414	-0.3093	
-1.0065	0.080764	0.060146	0.07	-0.14	-0.28	0.4058	-0.0521	-0.3032	
-1.007842	0.081496	0.057218	0.07	0.14	-0.28	0.4199	-0.0459	-0.3031	
-1.008574	0.08174	0.05734	0.14	0.21	-0.28	0.4172	-0.0462	-0.3156	
-1.010282	0.080764	0.055266	-0.07	0.07	-0.21	0.4087	-0.0414	-0.3076	
-1.010404	0.079422	0.056364	-0.21	-0.21	-0.07	0.4129	-0.0536	-0.3049	
-1.009062	0.080886	0.056242	-0.14	-0.14	0	0.4185	-0.0475	-0.3079	
-1.009306	0.080886	0.056852	0	0.07	0	0.4128	-0.0565	-0.2971	
-1.00711	0.080398	0.057584	-0.07	-0.28	0	0.4157	-0.0491	-0.3079	
-1.009184	0.078446	0.058438	-0.14	-0.07	-0.07	0.4157	-0.0474	-0.3016	
-1.011136	0.078568	0.057706	-0.14	0	0.07	0.4185	-0.0537	-0.3065	
-1.01138	0.080032	0.058804	-0.07	0.07	0.07	0.4171	-0.0521	-0.3048	
-1.01077	0.08295999	0.05795	-0.07	0.21	0.07	0.4213	-0.0521	-0.3064	
-1.006988	0.082716	0.056486	-0.14	0.35	0.14	0.4072	-0.0472	-0.2922	
-1.005158	0.08295999	0.056608	-0.35	-0.21	0.35	0.4072	-0.0536	-0.3048	
-1.007842	0.083082	0.056974	-0.63	-0.21	0.35	0.4185	-0.0507	-0.3111	
-1.007964	0.083814	0.057706	-0.56	-0.28	0.35	0.4157	-0.0414	-0.3092	
-1.00833	0.08357	0.059902	-0.42	-0.35	0.21	0.4115	-0.0539	-0.3142	
-1.007598	0.081618	0.058926	-0.49	-0.14	0.07	0.4086	-0.0537	-0.3064	
-1.007964	0.079788	0.058438	-0.56	0.07	0	0.41	-0.0535	-0.3002	
-1.009672	0.079422	0.059414	-0.35	0	0	0.4227	-0.0521	-0.3064	
-1.010526	0.080886	0.05673	-0.21	0.28	0.07	0.4171	-0.0523	-0.3126	
-1.009794	0.082106	0.055144	-0.21	0.28	0	0.4128	-0.0566	-0.3003	
-1.010404	0.08235	0.055632	-0.14	0.28	-0.14	0.4128	-0.0457	-0.2953	
-1.00955	0.08235	0.056242	-0.21	-0.14	-0.07	0.4072	-0.052	-0.3017	
-1.010038	0.082472	0.056608	-0.14	-0.14	0.07	0.4072	-0.0537	-0.3079	
-1.009916	0.083204	0.057462	-0.14	-0.28	0.07	0.4213	-0.0505	-0.3048	
-1.008208	0.083814	0.058316	-0.07	-0.21	0	0.4214	-0.0445	-0.3109	