Sensor string: E
Serial number: 1970-01-0000
Firmware version: 2,015
Hardware version: 2,2
Calibration quality: 5
ax	ay	az	gx	gy	gz	mx	my	mz

-0.86803	0.074298	0.50386	0.77	-0.07	-0.28	0.3137	-0.029	-0.3845	Reference
-0.864614	0.074298	0.50386	0.84	-0.21	-0.49	0.3114	-0.0393	-0.4009	
-0.866078	0.072834	0.504836	0.14	-0.21	-0.7	0.3257	-0.0308	-0.3924	
-0.864126	0.072346	0.506178	0.42	0.14	-0.91	0.3136	-0.0306	-0.3846	
-0.866078	0.070882	0.505934	0.42	0.56	-0.84	0.3032	-0.0449	-0.3833	
-0.867298	0.06893	0.504348	0.35	1.12	-0.7	0.3123	-0.0371	-0.3878	
-0.866932	0.07076	0.502274	-0.07	1.12	-0.63	0.3068	-0.0312	-0.396	
-0.870104	0.071492	0.500322	-0.28	1.47	-0.42	0.3012	-0.0347	-0.4018	
-0.871934	0.071736	0.497394	-0.14	1.68	-0.14	0.3054	-0.0376	-0.3977	
-0.871202	0.070638	0.496052	0.14	1.4	0.14	0.315	-0.0368	-0.3835	
-0.872056	0.066124	0.495686	0	0.98	0.07	0.3037	-0.0389	-0.3918	
-0.868762	0.067466	0.495808	0	0.42	-0.07	0.3123	-0.0371	-0.3878	
-0.872666	0.066978	0.495564	-0.28	-0.07	0.07	0.3124	-0.0389	-0.3922	
-0.870348	0.065636	0.49715	0.56	-0.63	0.21	0.3084	-0.0265	-0.3988	
-0.86803	0.06832	0.499346	0.28	-0.98	0.07	0.3124	-0.034	-0.3905	
-0.866932	0.069296	0.50569	-0.14	-1.05	0.21	0.3063	-0.0321	-0.3829	
-0.865346	0.074176	0.501054	-0.49	-0.7	0.21	0.3081	-0.0421	-0.3936	
-0.869494	0.0671	0.504836	-0.28	-0.63	0.56	0.3125	-0.0309	-0.3919	
-0.86925	0.06222	0.504714	0.21	-0.35	0.42	0.305	-0.0308	-0.3886	
-0.867298	0.064782	0.50386	0.28	-0.21	0	0.3065	-0.034	-0.3888	
-0.866322	0.07259	0.502518	0.28	0.28	-0.28	0.3003	-0.0241	-0.3794	
-0.865468	0.070882	0.499346	0.42	0.42	-0.07	0.3062	-0.0417	-0.3833	
-0.86803	0.069418	0.498492	0.56	0.14	0.28	0.3035	-0.034	-0.3872	
-0.868396	0.06734399	0.5002	0.7	-0.07	0.14	0.3055	-0.0314	-0.4004	
-0.869616	0.06893	0.50081	0.84	0.14	-0.14	0.2968	-0.0395	-0.4033	
-0.871202	0.072346	0.499468	0.49	0.21	-0.28	0.3141	-0.0246	-0.3931	
-0.868762	0.070882	0.499712	0.77	-0.07	-0.14	0.3096	-0.0358	-0.3934	
-0.871324	0.072224	0.498614	0.7	-0.14	-0.28	0.3114	-0.0345	-0.4007	
-0.870836	0.072224	0.498858	0.28	-0.28	-0.07	0.3067	-0.0343	-0.3947	
-0.869616	0.06893	0.49837	0.35	-0.35	0.21	0.314	-0.0357	-0.3936	
-0.870226	0.069784	0.5002	0.77	-0.56	0.42	0.308	-0.0404	-0.3906	
-0.866688	0.071126	0.501542	0.7	-0.63	0.7	0.3079	-0.0419	-0.3892	
-0.867176	0.071614	0.498004	0.28	-0.42	0.84	0.311	-0.0389	-0.3936	
-0.871812	0.075884	0.497272	0.35	-0.14	0.7	0.3081	-0.039	-0.3935	
-0.870714	0.0671	0.499102	-0.21	-0.14	1.05	0.3052	-0.0294	-0.3915	
-0.869616	0.066246	0.500444	-0.21	-0.28	1.05	0.3098	-0.036	-0.3978	
-0.871202	0.06588	0.49837	-0.07	-0.56	0.77	0.3092	-0.0353	-0.3832	
-0.870958	0.067466	0.497638	0.63	-0.63	0.63	0.3125	-0.0357	-0.3921	
-0.871202	0.0671	0.497394	0.56	-0.7	0.56	0.3096	-0.0309	-0.3918	
-0.868274	0.07015	0.497638	0.91	-1.05	0.28	0.3082	-0.0311	-0.3946	
-0.869128	0.074176	0.49959	1.05	-0.98	0.07	0.3086	-0.0315	-0.4034	
-0.867786	0.076372	0.500932	0.91	-0.91	0.07	0.3051	-0.0388	-0.3904	
-0.868518	0.078202	0.501542	0.84	-0.63	0.21	0.3199	-0.0293	-0.3936	
-0.866566	0.076128	0.502396	0.49	-0.42	0.49	0.3114	-0.0281	-0.399	
-0.869006	0.075274	0.502152	0.21	-0.42	0.35	0.3127	-0.0247	-0.3945	
-0.868396	0.076616	0.500566	0.42	-0.56	0.21	0.3053	-0.0375	-0.3962	
-0.86986	0.07625	0.499102	0.21	-0.56	0.14	0.3022	-0.0389	-0.3918	
-0.867176	0.073322	0.499834	0.63	-0.7	0.07	0.3141	-0.0375	-0.3966	
-0.868396	0.07381	0.500078	0.56	-0.7	-0.07	0.3022	-0.0326	-0.3915	
-0.867664	0.076128	0.501786	0.35	-0.77	-0.07	0.3037	-0.0373	-0.3918	
-0.866566	0.077592	0.503372	0.21	-0.7	-0.14	0.3082	-0.0374	-0.3949	
-0.866932	0.077104	0.502762	-0.07	-0.49	-0.07	0.3052	-0.0214	-0.3912	
-0.867908	0.079178	0.502518	-0.21	-0.56	0.07	0.2968	-0.041	-0.4019	
-0.865712	0.079788	0.501664	-0.42	-0.49	0.21	0.3126	-0.0262	-0.3931	
-0.868518	0.077836	0.5002	-0.63	-0.56	0.35	0.304	-0.0281	-0.3972	
-0.867664	0.07625	0.499346	-0.84	-0.7	0.49	0.3139	-0.0341	-0.3921	
-0.86864	0.073444	0.501054	-0.49	-1.05	0.42	0.3034	-0.0243	-0.3839	
-0.867054	0.073444	0.50386	-0.63	-1.26	0.21	0.3082	-0.0374	-0.3949	
-0.86559	0.072956	0.505568	-0.84	-1.19	-0.07	0.3097	-0.0359	-0.3964	
-0.867298	0.069784	0.504714	-0.91	-0.98	0	0.3082	-0.0391	-0.3964	
-0.863028	0.0671	0.504104	-0.07	-0.91	-0.21	0.3065	-0.0388	-0.389	
-0.868274	0.065514	0.504104	-0.42	-0.84	-0.28	0.3109	-0.0292	-0.3888	
-0.864614	0.074664	0.501176	-0.28	-0.77	-0.35	0.3079	-0.0339	-0.3874	
-0.865834	0.075884	0.50142	-0.77	-0.49	-0.14	0.305	-0.0339	-0.3873	
-0.86986	0.06832	0.502518	-0.07	-0.35	0.07	0.3126	-0.031	-0.3933	
-0.86742	0.068808	0.507886	-0.49	-0.91	-0.28	0.3109	-0.0212	-0.387	
-0.864126	0.074298	0.509594	-0.28	-0.7	-0.7	0.3083	-0.0248	-0.3958	
-0.86132	0.076006	0.508008	-0.42	-0.28	-0.77	0.3011	-0.0362	-0.4004	
-0.860954	0.074664	0.506422	-0.84	0	-0.35	0.3125	-0.0309	-0.3919	
-0.862784	0.06954	0.507032	-0.28	-0.07	0	0.3067	-0.047	-0.3952	
-0.862662	0.070516	0.508008	-0.07	-0.14	0	0.3035	-0.0404	-0.389	
-0.864858	0.072712	0.507154	-0.35	-0.07	0	0.3009	-0.036	-0.396	
-0.866444	0.072346	0.506788	-0.49	-0.28	0.21	0.3063	-0.0386	-0.3861	
-0.866078	0.074176	0.506056	-0.77	-0.21	0.14	0.3021	-0.0356	-0.3887	
-0.86498	0.07198	0.507398	-0.98	-0.14	0.07	0.3109	-0.0308	-0.3889	
-0.863638	0.07198	0.506056	-0.77	-0.28	0	0.3094	-0.0324	-0.3889	
-0.862418	0.072346	0.505812	-0.84	-0.21	0.07	0.3096	-0.047	-0.3954	
-0.865102	0.071004	0.5063	-1.05	0	0.07	0.3095	-0.0341	-0.3919	
-0.862174	0.07137	0.50508	-0.7	0.21	0.21	0.3098	-0.0312	-0.3976	
-0.862418	0.075274	0.502884	-0.77	0.35	0.21	0.3094	-0.0356	-0.389	
-0.869372	0.0732	0.504348	-1.82	0.49	0.28	0.3095	-0.0357	-0.392	
-0.865956	0.06954	0.506422	-1.61	0.35	0.49	0.3109	-0.0244	-0.3886	
-0.863516	0.071614	0.506544	-1.33	0.63	0.07	0.315	-0.0416	-0.3837	
-0.870226	0.073932	0.501054	-1.75	0.84	-0.07	0.3165	-0.0433	-0.3853	
-0.875228	0.07442	0.49532	-1.19	0.98	0	0.3124	-0.0308	-0.3889	
-0.874008	0.074176	0.49349	-1.19	0.7	0.28	0.308	-0.0309	-0.3902	
-0.87352	0.069296	0.490074	-0.98	0.49	0.28	0.3011	-0.0345	-0.3988	
-0.876936	0.063196	0.488122	-0.77	0.07	0.42	0.305	-0.0308	-0.3872	
-0.880352	0.064782	0.488122	-0.56	-0.07	0.42	0.2933	-0.0324	-0.3867	
-0.876814	0.063684	0.492392	-0.42	-0.14	0.14	0.295	-0.0295	-0.3925	
-0.870958	0.063562	0.49776	0	-0.07	0.14	0.3153	-0.0308	-0.3891	
-0.868518	0.064538	0.499956	0	-0.14	-0.07	0.3036	-0.0309	-0.39	
-0.872666	0.069296	0.498736	0.56	-0.49	-0.14	0.302	-0.0387	-0.3874	
-0.880596	0.073444	0.49166	0	-0.28	-0.28	0.3109	-0.034	-0.3905	
-0.89243	0.076006	0.480558	0.28	-0.42	-0.14	0.3053	-0.0327	-0.3946	
-0.884988	0.07625	0.476776	0.35	-1.47	0.21	0.3107	-0.0305	-0.383	
-0.879132	0.07515199	0.476654	0.14	-2.87	0.42	0.3012	-0.0282	-0.4	
-0.881328	0.069662	0.476166	-0.07	-3.99	0.56	0.3109	-0.0387	-0.3892	
-0.903288	0.071126	0.463844	-0.63	-4.69	0.63	0.3081	-0.0373	-0.392	
-0.912316	0.072468	0.450668	-0.56	-5.11	0.28	0.3108	-0.0307	-0.386	
-0.945622	0.067588	0.424072	0	-5.46	0.42	0.3084	-0.0313	-0.399	
-0.948306	0.078446	0.405284	-0.42	-7.91	0.21	0.314	-0.0374	-0.3951	
-0.942206	0.074298	0.385764	-0.42	-12.39	0.56	0.2991	-0.0372	-0.3872	
-0.942816	0.079178	0.374296	0.35	-17.92	0.56	0.2963	-0.0341	-0.3899	
-0.939278	0.078812	0.368318	-2.94	-29.26	1.4	0.2997	-0.033	-0.4002	
-0.939644	0.078202	0.375638	-5.04	-33.32	1.61	0.2849	-0.0234	-0.3948	
-0.935618	0.083204	0.39101	-6.16	-39.55	1.26	0.2835	-0.0474	-0.4001	
-0.92476	0.080154	0.411506	-6.58	-43.05	0.49	0.2822	-0.0316	-0.4008	
-0.930738	0.075518	0.411262	-6.02	-47.18	-0.42	0.2807	-0.0284	-0.3992	
-0.89304	0.076982	0.43249	0.21	-55.16	-0.7	0.2623	-0.0293	-0.4145	
-0.87779	0.07259	0.456036	-1.82	-58.87	-0.77	0.2536	-0.0391	-0.4189	
-0.840702	0.06734399	0.487146	-1.68	-62.72	-1.12	0.2401	-0.0387	-0.4096	
-0.827404	0.070882	0.498004	0.14	-66.01	-1.19	0.2393	-0.0315	-0.4238	
-0.80215	0.060268	0.501054	0.28	-67.48	0.35	0.2246	-0.0267	-0.42	
-0.784948	0.061732	0.499468	0.42	-69.93	0.21	0.2146	-0.0462	-0.4292	
-0.755302	0.06527	0.522526	1.47	-74.27	-0.42	0.1989	-0.0372	-0.4369	
-0.711748	0.06344	0.57706	-0.35	-79.24	-0.84	0.1929	-0.0499	-0.4357	
-0.686128	0.061854	0.606828	-1.75	-81.9	-0.98	0.1785	-0.0408	-0.4406	
-0.642208	0.071126	0.641964	-3.78	-83.37	-0.35	0.165	-0.042	-0.4313	
-0.62708	0.064538	0.658922	-3.15	-83.37	1.54	0.1418	-0.0425	-0.4376	
-0.604144	0.055144	0.673806	-2.8	-83.16	3.08	0.1317	-0.0347	-0.4383	
-0.56059	0.055754	0.706014	-3.36	-83.93	3.01	0.126	-0.0462	-0.4444	
-0.510814	0.060634	0.752496	-3.5	-84.35	3.36	0.1015	-0.0436	-0.452	
-0.467748	0.056852	0.794464	-3.29	-82.18	4.2	0.0925	-0.0386	-0.4456	
-0.444324	0.051972	0.810446	-1.05	-79.73	4.48	0.0914	-0.047	-0.4561	
-0.41175	0.049044	0.833626	-1.33	-79.03	3.85	0.0692	-0.0405	-0.4476	
-0.366122	0.045506	0.858514	-0.07	-78.61	3.99	0.0642	-0.0447	-0.4344	
-0.324276	0.03965	0.887916	-1.54	-76.51	4.69	0.0411	-0.0468	-0.4408	
-0.301584	0.04575	0.917196	-2.8	-74.69	4.41	0.031	-0.0503	-0.4464	
-0.256322	0.038674	0.932934	-4.76	-72.52	3.71	0.0148	-0.0567	-0.4445	
-0.2318	0.045018	0.94184	-4.62	-69.79	4.06	0.0174	-0.0419	-0.4337	
-0.211426	0.041846	0.952942	-5.67	-65.87	4.48	0.0014	-0.0357	-0.4343	
-0.19398	0.03904	0.955748	-4.62	-63.07	4.97	-0.0233	-0.0552	-0.4399	
-0.179828	0.042578	0.97478	-3.5	-60.76	4.2	-0.0143	-0.049	-0.4429	
-0.147498	0.043554	0.989908	-3.22	-59.36	3.15	-0.0351	-0.0392	-0.4328	
-0.110898	0.043432	1.009428	-2.73	-57.96	1.82	-0.0423	-0.0474	-0.4373	
-0.082716	0.031964	1.019432	-3.71	-54.74	1.4	-0.047	-0.0551	-0.433	
-0.070394	0.031842	1.034682	-2.8	-51.8	0.77	-0.0597	-0.0445	-0.4408	
-0.06466	0.0305	1.032852	-3.92	-48.93	0.56	-0.0709	-0.0371	-0.4166	
-0.06161	0.032696	1.032486	-4.27	-46.27	0.07	-0.075	-0.047	-0.4242	
-0.045628	0.039772	1.036146	-4.69	-43.75	-0.21	-0.081	-0.0534	-0.4227	
-0.038552	0.03721	1.036512	-4.55	-41.09	0.21	-0.09299999	-0.0339	-0.4112	
-0.036722	0.037698	1.045784	-3.78	-38.36	0.35	-0.09	-0.034	-0.4142	
-0.026962	0.036722	1.051152	-3.5	-34.65	-0.35	-0.0932	-0.0449	-0.4087	
-0.01403	0.03538	1.04798	-2.87	-31.99	-0.98	-0.0959	-0.0436	-0.4144	
-0.00732	0.03355	1.04798	-2.59	-29.68	-1.19	-0.1019	-0.0387	-0.4095	
-0.010736	0.031598	1.05042	-1.75	-27.02	-0.98	-0.1165	-0.0468	-0.4107	
-0.0061	0.027938	1.05652	-1.4	-24.15	-0.56	-0.1142	-0.0397	-0.3959	
0.012932	0.03172	1.06018	-1.05	-21.35	-0.14	-0.1222	-0.0343	-0.4129	
0.01281	0.034648	1.063718	0.21	-19.81	-0.21	-0.124	-0.0451	-0.4059	
0.026352	0.035746	1.061766	-0.42	-15.82	0.42	-0.1254	-0.034	-0.4069	
0.024034	0.030622	1.061156	-1.47	-12.25	1.33	-0.1283	-0.0357	-0.4083	
0.03477	0.024034	1.065792	-0.7	-9.31	1.68	-0.1286	-0.0273	-0.3992	
0.043676	0.0244	1.074698	0.84	-5.81	1.96	-0.1347	-0.0431	-0.3967	
0.050752	0.033062	1.080798	2.03	-2.59	1.61	-0.1405	-0.0432	-0.3979	
0.061488	0.03294	1.087386	1.96	0.35	0.7	-0.1299	-0.0419	-0.4041	
0.074054	0.034038	1.092266	1.82	3.57	0.21	-0.1305	-0.0476	-0.3912	
0.076494	0.044652	1.097024	1.96	6.79	0.07	-0.1302	-0.048	-0.4	
0.074908	0.048678	1.101538	2.31	11.34	0.07	-0.1373	-0.0515	-0.4057	
0.083204	0.038796	1.103124	3.29	16.1	0.28	-0.1284	-0.0435	-0.4057	
0.087108	0.032818	1.103978	3.29	20.09	-0.07	-0.1269	-0.0452	-0.4087	
0.082716	0.032208	1.106052	3.01	24.71	-0.7	-0.1156	-0.0462	-0.3976	
0.077348	0.037454	1.108004	2.94	29.54	-1.12	-0.1121	-0.0484	-0.4124	
0.069418	0.038308	1.106174	3.64	34.23	-1.89	-0.1238	-0.0502	-0.4135	
0.056852	0.048678	1.10898	3.71	39.2	-2.87	-0.1092	-0.05	-0.4126	
0.042334	0.048556	1.108736	4.48	44.52	-3.64	-0.1077	-0.0388	-0.4107	
0.028426	0.0427	1.099586	4.9	49.56	-3.57	-0.1032	-0.0581	-0.4176	
0.017812	0.049044	1.090192	4.41	54.6	-3.92	-0.0995	-0.0509	-0.4335	
0	0.057462	1.078114	4.06	59.36	-4.76	-0.0838	-0.0407	-0.4221	
-0.033916	0.05429	1.056398	4.97	64.26	-5.25	-0.0781	-0.0453	-0.4196	
-0.063684	0.046482	1.034316	5.39	68.74	-5.6	-0.0511	-0.0458	-0.4368	
-0.085644	0.044652	1.016382	5.95	72.87	-5.95	-0.0413	-0.0421	-0.4269	
-0.108214	0.050264	0.998936	5.6	76.93	-6.02	-0.0208	-0.0547	-0.4297	
-0.135908	0.053192	0.980148	5.04	80.64	-6.58	-0.0221	-0.0469	-0.4323	
-0.147498	0.048678	0.958188	5.6	84.84	-7.28	-0.0074	-0.0533	-0.4346	
-0.203252	0.04148	0.920368	4.69	86.59	-7.42	0.0088	-0.0598	-0.4414	
-0.240096	0.044042	0.900848	4.27	89.74	-7.42	0.0178	-0.0551	-0.4445	
-0.272914	0.056486	0.88145	3.22	92.47	-7.35	0.037	-0.052	-0.4496	
-0.29219	0.061732	0.868274	1.89	95.27	-7.14	0.0544	-0.0501	-0.4459	
-0.301584	0.059048	0.836676	3.08	98	-6.58	0.072	-0.0436	-0.4464	
-0.346358	0.045872	0.804346	5.04	99.89	-3.78	0.0794	-0.0531	-0.4485	
-0.396866	0.047336	0.773602	3.99	99.82	-4.48	0.1101	-0.0432	-0.4465	
-0.434564	0.056852	0.760548	4.34	100.03	-4.83	0.1318	-0.0621	-0.4468	
-0.458232	0.05917	0.743712	3.85	101.36	-5.18	0.1403	-0.0553	-0.4381	
-0.464698	0.051728	0.721142	3.71	103.04	-5.39	0.1524	-0.0476	-0.4471	
-0.486048	0.0488	0.68564	3.22	105	-5.04	0.1712	-0.0536	-0.4423	
-0.523868	0.04331	0.64599	2.52	107.24	-4.76	0.1809	-0.053	-0.431	
-0.571326	0.044408	0.615978	2.17	108.08	-4.62	0.2088	-0.048	-0.432	
-0.598044	0.046238	0.583892	0.63	108.85	-3.64	0.2178	-0.037	-0.4348	
-0.618906	0.053314	0.549244	0.21	108.78	-2.73	0.2298	-0.0388	-0.4091	
-0.630496	0.055388	0.519964	-1.05	108.92	-3.08	0.2489	-0.0387	-0.4114	
-0.65453	0.061122	0.478118	0.91	109.41	-4.76	0.2666	-0.0323	-0.4133	
-0.710406	0.073078	0.435418	4.06	109.06	-6.16	0.279	-0.0425	-0.3968	
-0.751642	0.085522	0.377712	5.04	108.57	-6.65	0.2945	-0.045	-0.3844	
-0.804834	0.061122	0.332938	2.8	106.96	-4.27	0.3137	-0.0338	-0.3862	
-0.833504	0.049776	0.304146	6.51	104.3	-4.2	0.3294	-0.0285	-0.3764	
-0.820206	0.04941	0.278648	7.63	100.45	-5.25	0.3389	-0.0308	-0.3609	
-0.815814	0.049166	0.241926	5.95	96.88	-6.65	0.3545	-0.0333	-0.35	
-0.825696	0.061488	0.200324	4.9	93.52	-8.82	0.3667	-0.0257	-0.3589	
-0.88511	0.080642	0.167994	4.34	93.59	-11.83	0.3758	-0.0244	-0.333	
-0.9455	0.084668	0.126026	2.87	91.49	-13.37	0.3917	-0.0305	-0.3296	
-0.956968	0.068564	0.10126	2.52	86.94	-12.46	0.4033	-0.0174	-0.3237	
-0.93208	0.042822	0.042822	1.47	81.48	-10.78	0.4072	-0.0152	-0.3121	
-0.945866	0.040504	0.002806	3.71	78.75	-8.96	0.4161	-0.025	-0.3187	
-1.020286	0.03355	0.001098	-0.98	75.74	-7.35	0.4311	-0.0252	-0.2931	
-1.03395	0.025254	-0.006588	-2.45	66.99	-5.53	0.4293	-0.012	-0.2822	
-1.006988	0.015982	-0.023546	-2.87	60.76	-3.99	0.4453	-0.0135	-0.2815	
-1.022238	0.028426	-0.064782	-2.1	59.64	-3.36	0.448	-0.0243	-0.2777	
-1.070428	0.050874	-0.088816	-2.66	57.82	-2.73	0.4491	-0.0175	-0.2673	
-1.101294	0.049654	-0.11834	-3.57	53.83	-1.12	0.4486	-0.0138	-0.2554	
-1.108492	0.040016	-0.140422	-3.71	49.49	0.42	0.4575	-0.0138	-0.2572	
-1.107516	0.03843	-0.147864	-2.94	47.25	0.28	0.4657	-0.0067	-0.2427	
-1.091412	0.033916	-0.158844	-8.12	36.68	10.64	0.4684	-0.0081	-0.2385	
-1.163636	0.034526	-0.141276	-6.86	38.5	4.69	0.4698	-0.0032	-0.2369	
-1.152046	0.029646	-0.164822	-6.93	36.82	2.52	0.4786	-0.0031	-0.2358	
-1.149118	0.037454	-0.17019	-6.09	34.23	1.61	0.4767	-0.0122	-0.2273	
-1.13033	0.03721	-0.169092	-6.72	29.82	1.33	0.4856	-0.0075	-0.2304	
-1.094096	0.034282	-0.172142	-6.65	26.6	1.4	0.484	-0.0122	-0.2277	
-1.081408	0.031232	-0.15982	-5.32	26.18	1.19	0.4778	-0.0039	-0.2183	
-1.087752	0.024278	-0.166042	-6.16	24.85	0.98	0.4892	-0.0114	-0.2133	
-1.070062	0.020252	-0.198006	-4.55	22.75	1.19	0.4861	-0.0065	-0.2085	
-1.081408	0.041236	-0.18361	-3.71	21.49	0.98	0.4874	-0.0031	-0.2041	
-1.113006	0.040626	-0.197762	-3.64	18.76	0.56	0.4859	-0.0062	-0.2027	
-1.111054	0.0366	-0.212158	-3.15	16.03	0.77	0.4825	-0.0138	-0.1941	
-1.094462	0.036112	-0.222528	-2.59	13.86	0.56	0.4958	0.0022	-0.1925	
-1.091412	0.046604	-0.210206	-3.29	11.06	-0.63	0.4856	-0.0043	-0.1953	
-1.06201	0.067222	-0.196786	-4.9	9.24	-1.75	0.4891	-0.0017	-0.2085	
-1.052128	0.059414	-0.194712	-7.14	8.54	-1.26	0.4887	-0.0028	-0.1983	
-1.066646	0.03843	-0.19764	-7.63	8.19	0.63	0.4913	-0.0041	-0.1926	
-1.06079	0.039284	-0.19215	-7.21	7.35	1.33	0.4926	-0.0007	-0.1867	
-1.052616	0.035258	-0.190808	-6.86	5.88	1.33	0.5001	-0.0025	-0.1929	
-1.052006	0.032574	-0.18117	-5.53	4.97	1.26	0.4877	-0.0001	-0.1748	
-1.049322	0.020374	-0.180316	-4.06	3.92	0.91	0.4987	-0.0025	-0.1928	
-1.04798	0.018666	-0.177266	-2.1	2.52	0.21	0.5029	0.0008	-0.1885	
-1.070672	0.025254	-0.1769	-0.56	0.56	-0.35	0.4938	0.0075	-0.1805	
-1.071526	0.037454	-0.171898	-0.14	-2.17	-1.26	0.4956	-0.0071	-0.19	
-1.058594	0.038918	-0.169336	-0.14	-5.18	-1.4	0.4881	-0.0054	-0.1852	
-1.073478	0.03599	-0.174948	-0.28	-8.26	-1.54	0.4895	0.0009	-0.1835	
-1.098122	0.029036	-0.177998	0.28	-12.74	-1.96	0.4931	0.0099	-0.1964	
-1.098488	0.040138	-0.177022	1.12	-17.36	-2.31	0.4858	-0.0077	-0.1998	
-1.100928	0.04087	-0.167506	-0.07	-20.86	-1.33	0.4873	-0.0029	-0.1997	
-1.101782	0.03355	-0.163846	-0.91	-23.66	-0.56	0.4991	-0.0014	-0.203	
-1.122888	0.03355	-0.170312	-0.77	-26.32	-0.21	0.4922	-0.0035	-0.213	
-1.124962	0.030866	-0.165676	-1.26	-28.98	-0.07	0.4848	0.0092	-0.2093	
-1.110322	0.029158	-0.154452	-1.26	-32.06	-0.77	0.489	-0.0064	-0.2072	
-1.09129	0.03782	-0.145058	-1.75	-34.79	-1.89	0.4761	0.0011	-0.2107	
-1.102758	0.042822	-0.139324	-2.38	-38.22	-2.66	0.488	-0.0005	-0.2171	
-1.114592	0.028182	-0.128832	-3.08	-40.6	-2.31	0.4785	0.0017	-0.2341	
-1.107394	0.037942	-0.116144	-1.82	-42.91	-2.87	0.4668	0.0048	-0.232	
-1.049932	0.052826	-0.088206	-4.06	-44.52	-1.26	0.4729	-0.0065	-0.2401	
-1.116788	0.012078	-0.089914	-4.83	-45.99	3.64	0.4675	0.004	-0.2496	
-1.104222	0.006344	-0.073932	-1.26	-49.14	5.04	0.4632	-0.0024	-0.2526	
-1.036146	0.029158	-0.046848	1.47	-50.26	3.29	0.4546	-0.0075	-0.2568	
-1.059692	0.029646	-0.044164	1.33	-49.42	3.85	0.4546	0.002	-0.255	
-1.079578	0.018666	-0.037576	1.12	-50.19	3.85	0.4521	0.0063	-0.2649	
-1.087874	0.020374	-0.031232	0.14	-51.73	4.83	0.4454	0.0024	-0.2794	
-1.08275	0.019886	-0.019276	0.35	-53.41	6.23	0.4407	-0.0132	-0.2755	
-1.07787	0.020252	0.002318	1.54	-55.79	6.44	0.4351	-0.0119	-0.281	
-1.063474	0.027328	0.018788	2.24	-58.52	6.3	0.4344	-0.0112	-0.2985	
-1.04798	0.037332	0.040992	2.45	-59.99	6.3	0.4342	-0.0062	-0.2939	
-1.025166	0.043798	0.076372	1.89	-61.6	6.37	0.4228	-0.013	-0.301	
-1.007354	0.068076	0.101016	0.7	-61.74	6.65	0.4159	-0.0199	-0.3126	
-1.00284	0.074664	0.108458	-1.05	-62.51	7.14	0.4059	-0.017	-0.3165	
-1.023214	0.080886	0.105408	-2.1	-63.7	7.14	0.4077	-0.011	-0.3236	
-1.02724	0.075274	0.121268	-2.8	-66.5	6.37	0.4039	-0.0213	-0.3399	
-1.024068	0.059414	0.157258	-2.94	-68.95	5.25	0.3893	-0.0246	-0.3394	
-0.99918	0.044896	0.173728	-0.84	-71.82	4.34	0.3783	-0.0223	-0.3564	
-0.97539	0.050386	0.185074	1.68	-74.06	2.8	0.3691	-0.022	-0.3472	
-0.992836	0.065392	0.19032	2.94	-77.42	1.12	0.3608	-0.0369	-0.3606	
-0.981246	0.082228	0.212036	4.48	-83.37	-0.28	0.3542	-0.0314	-0.3762	
-0.95404	0.098454	0.23851	5.18	-88.13	-0.14	0.338	-0.0202	-0.3706	
-0.919758	0.101504	0.280356	2.94	-92.05	0.91	0.3238	-0.0319	-0.3822	
-0.879132	0.092964	0.319884	4.27	-96.81	1.68	0.321	-0.0321	-0.385	
-0.831796	0.09577	0.351848	5.53	-98.84	2.17	0.3034	-0.0306	-0.3842	
-0.809714	0.103578	0.382104	3.99	-104.72	2.24	0.2867	-0.035	-0.4055	
-0.755302	0.102236	0.410164	1.19	-103.6	3.43	0.2636	-0.0243	-0.4099	
-0.70638	0.105042	0.44408	0.77	-102.41	3.78	0.2639	-0.0422	-0.4209	
-0.677466	0.10309	0.487512	-0.77	-104.37	5.53	0.2464	-0.0408	-0.4216	
-0.638304	0.09467199	0.507154	0.14	-107.31	6.44	0.2185	-0.0426	-0.419	
-0.573278	0.076128	0.536556	-1.61	-105.91	6.93	0.2033	-0.0436	-0.4388	
-0.529114	0.041236	0.573888	-1.75	-107.66	6.23	0.1884	-0.0355	-0.432	
-0.444202	0.042822	0.605364	-0.07	-108.36	3.78	0.1803	-0.0379	-0.4478	
-0.393572	0.061	0.657824	-1.33	-110.25	3.22	0.1565	-0.0585	-0.4419	
-0.37393	0.072712	0.715408	-1.54	-108.5	2.59	0.1437	-0.0429	-0.4465	
-0.33794	0.070638	0.76921	-3.57	-108.08	1.89	0.1188	-0.0432	-0.4469	
-0.293532	0.075518	0.822158	-4.83	-105.7	2.31	0.1056	-0.0416	-0.4448	
-0.26413	0.068442	0.863028	-4.06	-100.03	4.83	0.0822	-0.0546	-0.4473	
-0.232654	0.064782	0.89304	-3.08	-97.44	5.88	0.0704	-0.0402	-0.4418	
-0.204228	0.065514	0.911096	-2.8	-92.4	4.62	0.0618	-0.0469	-0.4475	
-0.189222	0.069296	0.917806	-3.64	-88.62	2.31	0.0353	-0.0437	-0.4419	
-0.168604	0.072956	0.941718	-3.71	-84.84	1.12	0.0264	-0.0501	-0.4403	
-0.125904	0.06649	0.96136	-3.99	-81.2	1.47	0.0177	-0.0518	-0.4429	
-0.080886	0.063196	0.976732	-3.22	-77.84	1.26	0.0087	-0.0645	-0.4402	
-0.047092	0.066002	0.996374	-2.31	-75.11	1.05	-0.0206	-0.0534	-0.4341	
-0.033672	0.069296	1.016016	-2.17	-70.91	0.56	-0.0336	-0.0504	-0.4363	
-0.013176	0.063806	1.037488	-3.71	-67.48	0.84	-0.0454	-0.0584	-0.4361	
0.001586	0.05612	1.048834	-4.69	-62.58	0.77	-0.0513	-0.0552	-0.4343	
-0.001952	0.05368	1.052128	-4.69	-58.24	0.63	-0.0657	-0.0492	-0.4378	
-0.012444	0.059292	1.067866	-5.18	-53.41	0.21	-0.0629	-0.057	-0.4353	
-0.001098	0.061976	1.070916	-4.34	-49.7	0.28	-0.0719	-0.0473	-0.4302	
0.029768	0.056608	1.081286	-4.13	-45.08	0.63	-0.0822	-0.0585	-0.4302	
0.033428	0.04636	1.081286	-3.85	-38.78	0.91	-0.0959	-0.0452	-0.4144	
0.036234	0.046116	1.08031	-3.08	-35	0.56	-0.09869999	-0.0534	-0.4191	
0.051606	0.049654	1.084458	-3.5	-30.8	0	-0.106	-0.0551	-0.4203	
0.052704	0.051972	1.087142	-3.71	-26.6	0	-0.1136	-0.0516	-0.4125	
0.04819	0.051606	1.086898	-3.57	-23.17	0.35	-0.1164	-0.0469	-0.4136	
0.047824	0.049044	1.087874	-3.57	-18.9	0.7	-0.1207	-0.0423	-0.4147	
0.042578	0.054168	1.08946	-3.64	-14.84	0.21	-0.1296	-0.0518	-0.4133	
0.052948	0.050386	1.089704	-3.85	-10.85	0	-0.1256	-0.0466	-0.4045	
0.053192	0.040504	1.101904	-3.43	-6.72	0	-0.121	-0.0468	-0.4091	
0.062586	0.03538	1.101172	-2.59	-2.17	-0.21	-0.1165	-0.0548	-0.4125	
0.064904	0.02745	1.094096	-1.75	1.68	-0.42	-0.119	-0.0441	-0.4207	
0.061	0.027938	1.092876	-0.49	6.09	-0.35	-0.1269	-0.0452	-0.4087	
0.059902	0.031598	1.089948	0.42	10.08	-0.42	-0.1194	-0.0485	-0.4136	
0.067222	0.038186	1.101538	1.12	13.72	-0.42	-0.1151	-0.0467	-0.4093	
0.065026	0.045994	1.101782	1.75	18.34	-0.84	-0.1108	-0.0466	-0.408	
0.066734	0.043188	1.099464	1.54	23.31	-0.77	-0.1135	-0.0437	-0.4122	
0.062464	0.039528	1.094828	2.45	28.35	-0.49	-0.1078	-0.0659	-0.4148	
0.061	0.04819	1.094096	2.87	33.25	-0.98	-0.0968	-0.0394	-0.4258	
0.046482	0.049166	1.090802	3.22	37.8	-1.61	-0.0972	-0.0453	-0.4173	
0.032208	0.044896	1.089704	3.64	43.05	-2.1	-0.08679999	-0.0487	-0.4237	
0.017812	0.0488	1.08824	3.85	48.37	-2.38	-0.0839	-0.0551	-0.4241	
0.00427	0.046238	1.076772	4.62	53.9	-2.73	-0.07669999	-0.0533	-0.4215	
-0.01403	0.05368	1.071892	5.74	59.08	-3.22	-0.0692	-0.0566	-0.4263	
-0.034648	0.059658	1.051152	6.65	64.75	-3.64	-0.0543	-0.0504	-0.431	
-0.05673	0.058804	1.035292	6.16	69.3	-4.27	-0.0544	-0.0518	-0.4282	
-0.072224	0.053558	1.015284	5.81	74.2	-4.9	-0.0354	-0.0629	-0.4309	
-0.093696	0.048068	0.994056	6.09	79.31	-5.39	-0.0245	-0.0491	-0.4439	
-0.137616	0.052826	0.957578	6.51	84	-5.88	-0.0105	-0.0578	-0.4303	
-0.182512	0.065758	0.932568	7	88.27	-6.51	0.0035	-0.0604	-0.4529	
-0.21106	0.063806	0.920612	7	92.12	-7.49	0.0062	-0.0665	-0.4489	
-0.235948	0.055144	0.91073	7.84	95.69	-9.1	0.0284	-0.057	-0.4538	
-0.268644	0.053802	0.877302	8.47	98.7	-10.08	0.056	-0.0582	-0.4507	
-0.330742	0.05917	0.838628	5.95	101.85	-9.94	0.0649	-0.0663	-0.4558	
-0.363194	0.066368	0.817766	5.6	102.76	-11.27	0.0805	-0.0591	-0.4416	
-0.380152	0.065636	0.797758	5.04	104.65	-11.41	0.1067	-0.054	-0.4381	
-0.397354	0.067954	0.774456	4.48	106.75	-10.64	0.1132	-0.053	-0.4529	
-0.41785	0.071858	0.742614	4.2	109.62	-9.8	0.1232	-0.0575	-0.4491	
-0.463966	0.072346	0.706136	2.66	113.12	-9.17	0.1506	-0.0521	-0.4399	
-0.518012	0.067222	0.655628	2.17	116.2	-8.4	0.1641	-0.0618	-0.4482	
-0.567178	0.06954	0.605242	1.68	118.23	-7.91	0.1807	-0.0527	-0.4251	
-0.614514	0.071126	0.559126	1.05	119.49	-7.56	0.205	-0.0487	-0.4464	
-0.635498	0.06527	0.5307	1.19	118.86	-7.49	0.2187	-0.0443	-0.4235	
-0.632936	0.0671	0.489586	3.64	118.02	-8.47	0.2407	-0.0426	-0.4243	
-0.682834	0.05734	0.439444	2.38	118.44	-7.91	0.2633	-0.0447	-0.4064	
-0.707844	0.051118	0.397232	1.96	116.69	-6.37	0.2692	-0.0463	-0.4082	
-0.741028	0.045384	0.363072	1.89	114.66	-6.93	0.282	-0.0506	-0.4002	
-0.7869	0.053314	0.330498	4.2	112	-8.82	0.305	-0.0388	-0.389	
-0.838628	0.061	0.285114	5.74	108.71	-10.29	0.3296	-0.0383	-0.3827	
-0.894504	0.050508	0.236802	5.25	104.58	-10.78	0.3379	-0.0313	-0.3711	
-0.922198	0.041358	0.181902	4.55	98.35	-10.5	0.3537	-0.0356	-0.3647	
-0.9394	0.030988	0.139202	1.26	92.61	-9.45	0.3653	-0.0322	-0.3621	
-0.94855	0.045262	0.112728	0.7	87.36	-8.82	0.3824	-0.0331	-0.3512	
-0.97112	0.048434	0.090402	0.35	82.18	-8.33	0.3878	-0.0262	-0.3394	
-0.987712	0.049166	0.074176	-1.19	77.35	-7.91	0.3901	-0.0191	-0.3232	
-1.006378	0.053802	0.0549	-4.27	72.59	-8.47	0.4059	-0.0186	-0.3165	
-1.046638	0.036234	0.055388	-4.34	71.4	-8.4	0.4245	-0.0277	-0.3104	
-1.07482	0.022936	0.010858	-3.64	65.52	-7.14	0.4187	-0.0262	-0.3116	
-1.086532	0.019276	-0.009516	-4.55	62.65	-6.09	0.4253	-0.0157	-0.2924	
-1.082506	0.030012	-0.028548	-7.14	58.52	-5.11	0.4395	-0.0183	-0.2815	
-1.1041	0.03721	-0.04636	-9.52	55.16	-3.43	0.4408	-0.0133	-0.2784	
-1.113006	0.037576	-0.05307	-9.87	48.65	-0.42	0.4493	-0.0114	-0.2714	
-1.119594	0.037454	-0.058682	-10.99	42.49	2.94	0.4549	-0.0014	-0.2639	
-1.121302	0.050264	-0.06771	-12.67	36.82	4.13	0.4546	-0.009099999	-0.2584	
-1.101538	0.027084	-0.083936	-14.35	30.8	5.88	0.4632	-0.0184	-0.2562	
-1.100196	0.025742	-0.063928	-14.07	27.09	5.74	0.4589	-0.0041	-0.254	
-1.080798	0.037088	-0.062464	-12.74	25.97	4.9	0.4589	-0.0041	-0.254	
-1.056642	0.04636	-0.056364	-13.58	23.38	4.69	0.4684	-0.0081	-0.2385	
-1.019066	0.049166	-0.050874	-14.14	21.35	4.83	0.4732	0.0042	-0.2455	
-0.984296	0.037332	-0.078202	-14.91	21.35	4.34	0.4711	-0.0094	-0.2343	
-1.056154	0.037454	-0.071492	-12.74	17.29	8.61	0.4811	-0.0027	-0.2271	
-1.068232	0.011102	-0.092964	-10.43	21.98	1.33	0.4842	-0.0108	-0.232	
-1.102148	0.0061	-0.10614	-7.28	21.98	-1.26	0.4727	0.0032	-0.2338	
-1.09678	0.0244	-0.10431	-4.06	20.72	-2.52	0.4723	-0.0042	-0.2254	
-1.115202	0.026352	-0.10736	-2.45	19.67	-3.36	0.4794	0.0071	-0.2193	
-1.117276	0.022692	-0.115168	-0.56	17.22	-3.29	0.4765	0.0023	-0.2209	
-1.125694	0.03477	-0.117852	0.07	14.77	-3.85	0.4824	0.0055	-0.221	
-1.138016	0.033306	-0.12078	0.21	12.25	-3.92	0.4704	-0.0023	-0.2164	
-1.13155	0.015494	-0.124074	0.56	9.1	-3.57	0.4807	0.0009	-0.2167	
-1.112152	0.016958	-0.123098	1.26	5.74	-4.34	0.4837	0.004	-0.2182	
-1.105198	0.02928	-0.124196	1.47	2.59	-4.69	0.4749	-0.0103	-0.2199	
-1.102026	0.034526	-0.11346	0.91	-0.21	-4.06	0.485	0.0058	-0.2138	
-1.086898	0.03111	-0.11041	0.35	-2.38	-3.36	0.4822	0.0009	-0.2168	
-1.081286	0.017324	-0.11041	-0.7	-4.41	-2.94	0.4853	0.0119	-0.2194	
-1.08031	0.015128	-0.11224	-0.84	-6.37	-2.87	0.4733	0.0042	-0.2134	
-1.07543	0.012566	-0.112118	-1.4	-8.33	-2.73	0.478	0.0166	-0.2189	
-1.070916	0.005246	-0.103944	-1.12	-9.94	-2.24	0.4764	0.012	-0.2161	
-1.068354	0.00122	-0.095404	-0.77	-11.48	-1.75	0.4808	0.012	-0.2163	
-1.067744	-0.000244	-0.09357399	-0.56	-12.88	-1.82	0.4827	0.0147	-0.2264	
-1.068964	0.002684	-0.093696	-0.07	-14.56	-1.96	0.4846	0.0095	-0.237	
-1.078358	0.002318	-0.092964	0.28	-16.66	-1.89	0.4815	0.0129	-0.2323	
-1.094218	0.00854	-0.095282	0.7	-19.18	-2.1	0.4714	0.011	-0.2363	
-1.106174	0.013298	-0.090402	0.49	-21.98	-2.17	0.4771	0.0144	-0.2335	
-1.111298	0.010004	-0.077104	0.42	-24.85	-1.96	0.4566	0.0079	-0.2329	
-1.10715	0.005612	-0.071736	0.42	-27.23	-1.68	0.4757	0.0063	-0.2353	
-1.117886	0.00183	-0.073688	0.49	-30.03	-1.68	0.4627	0.0092	-0.239	
-1.148264	-0.007929999	-0.084302	1.47	-34.23	-1.4	0.4664	0.0116	-0.2565	
-1.165344	-0.00488	-0.071614	3.01	-39.97	-1.96	0.4701	0.0059	-0.2423	
-1.138382	-0.011956	-0.0549	4.76	-44.17	-1.82	0.4608	0.0049	-0.2624	
-1.097634	-0.008417999	-0.01708	6.72	-45.78	-1.12	0.4494	0.0044	-0.2707	
-1.080676	-0.006832	-0.006832	7.21	-46.55	-0.07	0.4555	-0.0005	-0.277	
-1.075552	-0.001708	0.005368	8.47	-47.74	0.28	0.4352	0.0087	-0.2787	
-1.074576	0.006222	0.013664	8.61	-49.7	0.21	0.451	0.0011	-0.2738	
-1.06201	0.011956	0.028914	7.7	-51.52	0.49	0.4398	0.002	-0.2864	
-1.039074	0.008296	0.041724	6.09	-52.85	1.89	0.4197	0.0031	-0.2928	
-1.024312	0.011712	0.058926	4.97	-52.92	3.43	0.427	0.0048	-0.2931	
-1.02419	0.010614	0.063074	2.59	-53.13	5.11	0.4141	0.0012	-0.3	
-1.022238	0.015616	0.08052	0.7	-53.41	6.02	0.4206	-0.0026	-0.3165	
-1.04005	0.011224	0.082594	-1.68	-53.9	7	0.4148	-0.0107	-0.318	
-1.048834	0.004758	0.101748	-3.01	-55.37	7.49	0.3948	-0.0083	-0.3302	
-1.05591	0.01464	0.120292	-2.38	-57.96	7.42	0.3946	-0.0224	-0.3264	
-1.044808	0.01708	0.134932	-1.68	-61.46	7.84	0.3868	-0.0043	-0.3457	
-1.016138	0.017324	0.153476	-0.98	-64.96	8.4	0.384	-0.0093	-0.3502	
-1.016382	0.020618	0.181536	0.98	-67.48	7.7	0.3734	-0.0201	-0.3429	
-1.015894	0.022814	0.206912	3.01	-70.77	6.44	0.3723	-0.0078	-0.3497	
-0.995764	0.034282	0.23119	4.34	-74.76	5.32	0.3582	-0.0053	-0.3606	
-0.974414	0.040626	0.260836	4.83	-77.28	4.48	0.3555	-0.012	-0.3681	
-0.95099	0.052338	0.285358	6.09	-78.54	4.34	0.3367	-0.0156	-0.3733	
-0.934032	0.059902	0.313662	8.33	-80.78	5.18	0.3222	-0.0239	-0.3789	
-0.89548	0.063562	0.344772	8.61	-83.37	5.18	0.3079	-0.0259	-0.3856	
-0.854976	0.074664	0.353922	8.4	-85.05	5.25	0.3011	-0.0234	-0.3984	
-0.825818	0.087474	0.370026	6.51	-86.17	5.53	0.288	-0.0412	-0.4029	
-0.79178	0.077348	0.388692	6.86	-88.83	6.65	0.2797	-0.0402	-0.4142	
-0.732	0.071614	0.426634	6.58	-94.15	7.77	0.2604	-0.0304	-0.4042	
-0.691984	0.069906	0.460794	5.04	-94.22	8.12	0.2507	-0.0343	-0.4186	
-0.632814	0.07625	0.502396	4.06	-91.7	6.37	0.2361	-0.0456	-0.4199	
-0.567178	0.07905599	0.534848	1.89	-95.55	7.28	0.2215	-0.0378	-0.4189	
-0.537044	0.079422	0.570106	2.59	-95.9	6.44	0.2013	-0.043	-0.4256	
-0.51972	0.081862	0.608048	0.7	-92.82	6.72	0.1886	-0.0389	-0.4365	
-0.49715	0.086254	0.646356	0.63	-93.31	6.58	0.1693	-0.0451	-0.4302	
-0.460306	0.08662	0.700524	-1.33	-94.08	6.93	0.1653	-0.052	-0.4405	
-0.426146	0.077104	0.75213	-3.99	-94.43	5.95	0.158	-0.0665	-0.4452	
-0.411262	0.090646	0.77836	-4.62	-92.54	4.83	0.1298	-0.0566	-0.4319	
-0.426024	0.091866	0.809592	-5.25	-88.13	5.11	0.1274	-0.0573	-0.4449	
-0.381738	0.074664	0.850462	-7.14	-86.03	5.95	0.1169	-0.0523	-0.4384	
-0.340624	0.066002	0.86986	-5.18	-85.05	5.32	0.0924	-0.0561	-0.4463	
-0.311588	0.055632	0.88938	-5.74	-81.06	5.11	0.0792	-0.0529	-0.4442	
-0.28426	0.047092	0.899994	-4.55	-77.98	4.34	0.0734	-0.0499	-0.4452	
-0.251686	0.038796	0.90463	-2.17	-74.62	3.08	0.0531	-0.0566	-0.4505	
-0.22692	0.04148	0.911218	-1.4	-72.38	2.87	0.0378	-0.0561	-0.4352	
-0.196786	0.05246	0.925248	-1.47	-69.51	3.36	0.034	-0.0471	-0.4463	
-0.18056	0.05978	0.940132	-1.82	-67.41	3.71	0.0177	-0.047	-0.4413	
-0.170068	0.06405	0.953064	-2.94	-64.19	4.13	0.0017	-0.0456	-0.442	
-0.169824	0.065758	0.966606	-2.87	-61.53	4.06	-0.0159	-0.0553	-0.4416	
-0.174826	0.06734399	0.982222	-3.22	-59.43	3.92	-0.0162	-0.0486	-0.4341	
-0.14701	0.067832	0.987468	-3.15	-58.17	3.5	-0.0306	-0.0489	-0.4378	
-0.130662	0.062342	0.992836	-3.29	-56.56	3.01	-0.0339	-0.0469	-0.4288	
-0.111386	0.058438	1.005646	-3.15	-54.88	2.94	-0.0378	-0.0587	-0.4423	
-0.082472	0.055754	1.010648	-2.66	-51.1	2.73	-0.0519	-0.0593	-0.4199	
-0.076006	0.060512	1.013332	-1.96	-47.18	2.03	-0.0616	-0.0584	-0.4325	
-0.096258	0.06771	1.01687	-2.03	-44.24	1.54	-0.0634	-0.0501	-0.4233	
-0.07869	0.062952	1.029436	-3.01	-43.19	1.26	-0.07979999	-0.0499	-0.4168	
-0.05551	0.06222	1.047614	-3.15	-39.69	1.47	-0.0797	-0.0612	-0.4217	
-0.04819	0.062464	1.05347	-3.85	-35.7	1.54	-0.0958	-0.0469	-0.4174	
-0.037698	0.052094	1.067744	-4.76	-32.41	1.68	-0.0914	-0.0597	-0.4211	
-0.025498	0.047214	1.06323	-4.34	-28.63	2.24	-0.0945	-0.0564	-0.4164	
-0.015616	0.051484	1.072868	-3.92	-23.94	2.17	-0.099	-0.0578	-0.4119	
-0.01647	0.054046	1.082506	-3.29	-19.04	1.75	-0.1032	-0.0468	-0.4142	
-0.00305	0.048556	1.084946	-2.87	-14.63	1.96	-0.1178	-0.0534	-0.4168	
0.008052	0.044408	1.083116	-2.38	-11.13	2.03	-0.1031	-0.0454	-0.4171	
0.004392	0.045994	1.089338	-1.4	-7.42	1.96	-0.1139	-0.0497	-0.4051	
0.01342	0.044774	1.096292	-1.12	-4.41	1.75	-0.1124	-0.0513	-0.4052	
0.031232	0.03843	1.09922	-0.35	-0.63	1.61	-0.09869999	-0.0486	-0.4189	
0.042212	0.033184	1.09739	1.26	2.94	0.98	-0.1062	-0.0516	-0.4143	
0.046604	0.03782	1.09251	2.24	6.44	0.28	-0.1162	-0.0487	-0.4181	
0.035258	0.040016	1.096414	2.24	10.15	-0.07	-0.1107	-0.0483	-0.411	
0.041236	0.037332	1.109956	2.31	14.7	-0.21	-0.1035	-0.0609	-0.4104	
0.053314	0.039406	1.11508	3.36	19.18	-0.84	-0.1046	-0.0469	-0.4156	
0.054168	0.045994	1.116788	3.71	22.96	-1.68	-0.106	-0.0471	-0.4185	
0.048556	0.050142	1.118984	3.78	26.88	-2.31	-0.1002	-0.0421	-0.4156	
0.045872	0.051118	1.119838	3.85	32.69	-2.1	-0.0924	-0.0538	-0.4296	
0.043188	0.048434	1.117886	3.64	38.78	-1.89	-0.0909	-0.0427	-0.4291	
0.030622	0.044896	1.10715	4.48	44.38	-1.89	-0.0722	-0.055	-0.4246	
0.012444	0.044286	1.0919	4.62	49.91	-2.31	-0.0721	-0.0423	-0.4241	
-0.015006	0.052094	1.08092	4.76	55.65	-2.73	-0.0575	-0.0484	-0.4235	
-0.030378	0.05734	1.07238	3.64	60.97	-3.15	-0.0512	-0.0489	-0.4355	
-0.041602	0.05673	1.063352	3.71	65.94	-3.71	-0.0394	-0.0553	-0.4377	
-0.058682	0.056364	1.035048	4.55	70.63	-4.06	-0.0411	-0.0503	-0.4331	
-0.093208	0.056608	1.003938	4.97	75.74	-4.55	-0.0202	-0.0474	-0.4426	
-0.125172	0.057828	0.980392	5.04	80.57	-4.48	-0.0026	-0.0585	-0.4453	
-0.143472	0.058682	0.952332	5.11	85.19	-4.55	0.0047	-0.0505	-0.4452	
-0.178486	0.05856	0.92354	4.76	89.25	-4.41	0.0234	-0.0612	-0.4407	
-0.216306	0.062708	0.890112	5.04	91.07	-4.27	0.0324	-0.0533	-0.4436	
-0.272426	0.064172	0.861686	4.55	93.45	-4.13	0.053	-0.0453	-0.4456	
-0.308538	0.062586	0.840824	3.92	94.99	-4.48	0.0673	-0.0609	-0.4425	
-0.32513	0.064782	0.824842	2.87	96.53	-5.11	0.0719	-0.0595	-0.447	
-0.344528	0.059536	0.79849	3.29	97.86	-5.04	0.1014	-0.0499	-0.4508	
-0.380518	0.05795	0.769942	3.43	100.1	-4.55	0.1114	-0.0431	-0.4436	
-0.428464	0.057218	0.740662	4.27	101.43	-4.48	0.1312	-0.0566	-0.4319	
-0.46848	0.059048	0.710528	3.85	103.25	-4.06	0.1448	-0.0506	-0.441	
-0.49776	0.066856	0.68015	3.36	104.37	-3.22	0.1668	-0.0488	-0.4419	
-0.520818	0.07198	0.653554	1.96	105.98	-2.03	0.1795	-0.0498	-0.4308	
-0.547902	0.088084	0.60878	1.96	108.01	-1.4	0.1867	-0.0416	-0.4264	
-0.60329	0.089182	0.548268	2.73	108.92	-0.7	0.2072	-0.035	-0.4255	
-0.645258	0.094428	0.494954	4.55	109.06	-1.26	0.2289	-0.041	-0.4208	
-0.687958	0.082106	0.455548	4.41	109.13	-1.05	0.2478	-0.0487	-0.4205	
-0.725656	0.068442	0.42517	3.78	108.22	0.07	0.2588	-0.0383	-0.403	
-0.729926	0.07991	0.398818	4.62	106.96	-1.33	0.284	-0.0416	-0.4116	
-0.739564	0.09357399	0.36661	6.02	106.05	-3.57	0.304	-0.0409	-0.4007	
-0.771284	0.081984	0.329522	6.51	104.79	-4.69	0.314	-0.0438	-0.3954	
-0.817278	0.080276	0.308172	6.65	103.88	-5.67	0.3252	-0.0495	-0.3845	
-0.871934	0.091378	0.274744	4.69	102.13	-6.16	0.3366	-0.0426	-0.3759	
-0.909632	0.107726	0.23729	1.33	99.61	-6.37	0.3463	-0.0388	-0.3645	
-0.919636	0.117364	0.196054	1.4	96.88	-6.51	0.3532	-0.0383	-0.3545	
-0.930372	0.106872	0.122732	1.54	95.34	-4.55	0.3782	-0.0286	-0.3552	
-0.992958	0.091866	0.105652	-0.42	92.82	-3.29	0.3859	-0.0273	-0.3292	
-1.026264	0.06832	0.074786	-0.14	87.22	-3.15	0.393	-0.035	-0.3254	
-1.033828	0.077958	0.069662	-1.54	80.71	-3.5	0.4055	-0.031	-0.3098	
-1.00467	0.09162199	0.05368	-2.87	75.32	-3.92	0.4142	-0.0293	-0.3086	
-1.006012	0.086986	0.024522	-3.92	71.82	-3.64	0.4225	-0.0367	-0.2991	
-1.03395	0.07905599	0.009272	-6.72	67.34	-3.01	0.4265	-0.017	-0.2867	
-1.06689	0.071126	-0.01891	-7.14	62.23	-2.94	0.4364	-0.0197	-0.2785	
-1.078358	0.072834	-0.034892	-6.72	55.09	-2.03	0.4468	-0.0246	-0.2835	
-1.08885	0.074908	-0.050752	-6.23	48.3	-0.7	0.4432	-0.0287	-0.2675	
-1.059326	0.066734	-0.073688	-5.32	42.98	0	0.4477	-0.0176	-0.2687	
-1.070306	0.073566	-0.079788	-6.58	41.86	-0.42	0.4629	-0.0133	-0.2487	
-1.074332	0.080764	-0.077836	-8.33	39.13	-1.26	0.4573	-0.0152	-0.2529	
-1.128134	0.072834	-0.103212	-8.96	37.24	-1.89	0.4617	-0.012	-0.253	
-1.122278	0.07015	-0.106628	-8.4	33.88	-2.03	0.4613	-0.0148	-0.2458	
-1.101538	0.06734399	-0.113704	-10.22	28.98	-1.4	0.4681	-0.0189	-0.2331	
-1.087264	0.062342	-0.117364	-7.42	30.17	-2.03	0.4607	-0.0109	-0.231	
-1.081042	0.048556	-0.107848	-5.46	28.84	-2.38	0.4652	-0.0077	-0.231	
-1.086654	0.04758	-0.11834	-3.15	26.95	-3.36	0.477	-0.003	-0.2328	
-1.078846	0.05856	-0.109678	-2.59	19.32	-1.75	0.4665	-0.0108	-0.2283	
-1.06811	0.045384	-0.109312	-0.56	22.12	-5.11	0.4809	-0.0105	-0.2245	
-1.07482	0.040626	-0.114192	1.05	21.28	-6.72	0.4865	-0.0037	-0.2157	
-1.06994	0.041358	-0.123952	2.24	20.16	-7.77	0.4846	-0.016	-0.2089	
-1.082872	0.039162	-0.134566	2.94	18.62	-8.26	0.4807	-0.008599999	-0.2186	
-1.107882	0.045384	-0.138226	3.08	15.82	-8.47	0.4807	-0.0038	-0.2184	
-1.110444	0.038552	-0.149206	2.52	13.02	-7.63	0.5007	-0.0079	-0.2078	
-1.103124	0.040626	-0.155428	1.96	10.08	-7.28	0.4876	0.0094	-0.205	
-1.114714	0.036234	-0.158234	1.75	7.49	-6.44	0.4921	0.0013	-0.2099	
-1.106296	0.038308	-0.15311	1.4	4.55	-5.95	0.4845	-0.0095	-0.2057	
-1.103124	0.038064	-0.159454	0.07	2.66	-5.11	0.4919	-0.0064	-0.2073	
-1.110566	0.032086	-0.163114	-0.77	0.63	-3.71	0.4933	0.0048	-0.204	
-1.11813	0.030256	-0.16409	-1.61	-1.89	-2.87	0.4902	0.0066	-0.1979	
-1.110444	0.02074	-0.164822	-2.03	-4.48	-2.38	0.4817	0.0094	-0.2047	
-1.10959	0.017812	-0.161162	-1.75	-7.21	-1.89	0.4889	0.0032	-0.2024	
-1.106418	0.012444	-0.157258	-1.54	-10.57	-1.26	0.4802	-0.0033	-0.2067	
-1.102758	0.011468	-0.145668	-1.26	-12.74	-1.19	0.4832	0.0078	-0.2049	
-1.09617	0.012444	-0.135664	-0.56	-14.63	-0.77	0.485	0.009099999	-0.2122	
-1.086044	0.012688	-0.124806	-0.28	-16.24	-0.35	0.4879	-0.0036	-0.2143	
-1.08031	0.011224	-0.113216	0.49	-17.85	-0.07	0.4817	-0.0001	-0.2066	
-1.07177	0.014884	-0.10858	1.05	-19.81	-0.28	0.4763	-0.0022	-0.2167	
-1.065548	0.010614	-0.095404	1.26	-20.79	-0.49	0.4721	0.0071	-0.219	
-1.059082	0.011102	-0.08418	1.12	-21.84	-0.14	0.4767	0.01	-0.2249	
-1.063718	0.011834	-0.078812	1.4	-22.89	0	0.4766	0.0038	-0.2223	
-1.066036	0.008662	-0.06771	1.75	-23.94	0.63	0.4779	0.0007	-0.2195	
-1.057618	0.013542	-0.063806	2.1	-25.13	1.12	0.4742	0.0063	-0.2352	
-1.057984	0.016714	-0.05734	2.45	-26.32	1.4	0.4712	-0.0031	-0.234	
-1.074698	0.017568	-0.04697	3.15	-27.65	1.61	0.4698	0	-0.2353	
-1.085678	0.027328	-0.042212	3.29	-29.33	1.47	0.4686	-0.0034	-0.2412	
-1.08824	0.030988	-0.030744	2.94	-31.15	2.1	0.4673	-0.0068	-0.2457	
-1.09312	0.028304	-0.02989	2.31	-32.83	2.87	0.4631	0.004	-0.248	
-1.098854	0.023912	-0.022936	1.75	-35.28	3.22	0.4513	0.0072	-0.2459	
-1.095316	0.02806	-0.010858	1.4	-37.8	3.22	0.4548	0.013	-0.2589	
-1.077382	0.027816	0.00305	0.63	-39.9	3.43	0.452	-0.0015	-0.2638	
-1.059082	0.020008	0.0183	0.63	-40.67	4.48	0.4477	-0.0096	-0.2669	
-1.058228	0.020862	0.034892	2.24	-39.9	4.48	0.4507	-0.007999999	-0.2684	
-1.065304	0.023668	0.041846	3.22	-39.83	3.78	0.4453	0.0025	-0.2779	
-1.0614	0.026962	0.04331	4.55	-41.02	3.01	0.4422	-0.0117	-0.2769	
-1.060424	0.035258	0.048312	5.04	-42.77	2.03	0.4415	-0.0108	-0.2929	
-1.051274	0.029768	0.062586	4.55	-44.73	1.96	0.4384	-0.009099999	-0.2898	
-1.039562	0.027694	0.077592	5.04	-46.27	2.31	0.4255	-0.0127	-0.2952	
-1.034682	0.027816	0.09333	5.18	-47.04	2.66	0.4182	-0.016	-0.2965	
-1.027972	0.02806	0.099064	5.25	-47.67	3.08	0.4203	-0.0182	-0.3113	
-1.03944	0.036844	0.109922	5.04	-48.3	3.71	0.409	-0.0124	-0.3193	
-1.049566	0.04209	0.131272	4.69	-49.21	4.48	0.4056	-0.0168	-0.3106	
-1.03029	0.050996	0.150914	4.55	-50.19	5.39	0.4073	-0.0218	-0.3167	
-1.017968	0.051362	0.198006	3.71	-49.42	6.51	0.3962	-0.0193	-0.3293	
-0.997838	0.043676	0.227408	3.71	-47.81	6.93	0.3878	-0.0263	-0.3409	
-0.972706	0.045018	0.243878	5.04	-45.5	6.72	0.3848	-0.0181	-0.336	
-0.966606	0.056242	0.26169	7.14	-42.98	6.09	0.3876	-0.0356	-0.3369	
-0.952698	0.078446	0.272304	8.54	-41.44	6.23	0.3778	-0.0202	-0.3446	
-0.944158	0.09211	0.27328	6.09	-39.62	6.79	0.3792	-0.0281	-0.345	
-0.941962	0.096136	0.30317	4.9	-39.69	8.12	0.3664	-0.035	-0.355	
-0.902312	0.103822	0.322812	3.57	-40.81	10.5	0.3621	-0.032	-0.3561	
-0.843874	0.101382	0.348188	0.7	-40.46	12.04	0.3581	-0.0308	-0.3646	
-0.798124	0.105286	0.38491	-1.4	-39.62	12.67	0.3493	-0.0373	-0.366	
-0.770674	0.117242	0.425048	-2.87	-39.13	13.02	0.3392	-0.0327	-0.3683	
-0.74969	0.118584	0.4758	-3.08	-38.64	13.65	0.3349	-0.0409	-0.3714	
-0.71919	0.108336	0.50142	-4.76	-36.26	13.37	0.3383	-0.0381	-0.3816	
-0.7137	0.116144	0.534482	-7.28	-35.21	11.9	0.3408	-0.0424	-0.3717	
-0.71919	0.12688	0.558882	-9.45	-31.01	10.15	0.3177	-0.0446	-0.3796	
-0.699426	0.113826	0.588284	-9.03	-29.05	8.4	0.3134	-0.0383	-0.3806	
-0.694546	0.101504	0.615368	-8.19	-33.46	7.91	0.3154	-0.042	-0.3925	
-0.695644	0.10797	0.641842	-6.09	-32.83	7	0.3118	-0.051	-0.3796	
-0.687958	0.125172	0.668682	-2.94	-30.45	5.88	0.3091	-0.0432	-0.3835	
-0.671244	0.13054	0.693204	-3.15	-30.17	5.39	0.3068	-0.0407	-0.3964	
-0.667218	0.14701	0.7015	-5.04	-26.53	3.22	0.3004	-0.0465	-0.3847	
-0.67588	0.154208	0.70028	-8.05	-23.87	0.84	0.2953	-0.0395	-0.4017	
-0.685274	0.161406	0.694424	-10.64	-20.93	-1.61	0.2951	-0.0504	-0.3993	
-0.69906	0.159454	0.68564	-11.62	-18.06	-3.64	0.291	-0.0396	-0.403	
-0.710528	0.14579	0.682468	-14.21	-16.8	-4.41	0.2876	-0.0359	-0.3925	
-0.704184	0.136152	0.684054	-14.91	-14.7	-6.02	0.2877	-0.0424	-0.3957	
-0.709186	0.140788	0.678076	-18.13	-10.85	-8.4	0.2905	-0.0358	-0.3912	
-0.718214	0.147132	0.66551	-22.19	-7.56	-11.62	0.2733	-0.0284	-0.3989	
-0.729682	0.141032	0.662948	-23.87	-4.9	-15.12	0.2792	-0.0236	-0.3989	
-0.742736	0.119316	0.65453	-25.13	-2.38	-18.55	0.2761	-0.025	-0.3944	
-0.740662	0.099918	0.646966	-25.27	0.21	-22.05	0.2692	-0.0032	-0.4005	
-0.74969	0.096258	0.640012	-26.6	3.22	-26.11	0.278	-0.0079	-0.4011	
-0.752374	0.089304	0.628056	-29.19	5.04	-30.87	0.282	-0.0027	-0.3923	
-0.759572	0.062586	0.608292	-33.67	6.23	-35.35	0.2913	-0.0079	-0.4046	
-0.763232	0.036844	0.595604	-34.58	8.26	-38.78	0.2711	0.0251	-0.4037	
-0.786168	0.021838	0.581818	-34.02	9.8	-41.79	0.2871	0.0237	-0.403	
-0.801906	0.01342	0.57706	-33.81	10.64	-44.45	0.2781	0.0319	-0.395	
-0.806908	-0.005246	0.568764	-34.79	10.36	-46.69	0.281	0.04	-0.3933	
-0.81374	-0.020618	0.548146	-34.09	9.94	-48.65	0.2871	0.0526	-0.3959	
-0.81496	-0.04148	0.532164	-37.03	8.61	-50.89	0.2763	0.0531	-0.3838	
-0.800808	-0.058438	0.532408	-36.68	5.53	-55.44	0.281	0.0735	-0.3875	
-0.80642	-0.075274	0.526064	-35.56	4.34	-61.32	0.2753	0.091	-0.3865	
-0.823988	-0.119438	0.518988	-35.35	2.24	-62.02	0.2867	0.0802	-0.3816	
-0.803126	-0.169214	0.506422	-31.57	-0.21	-59.15	0.2808	0.0945	-0.3793	
-0.781288	-0.200324	0.517646	-29.96	-1.19	-57.54	0.2709	0.1005	-0.3859	
-0.781532	-0.221308	0.51362	-29.89	-1.33	-58.8	0.2633	0.112	-0.3763	
-0.779336	-0.229482	0.515206	-27.72	-0.14	-61.67	0.2652	0.1259	-0.3831	
-0.798856	-0.250832	0.509106	-27.02	1.26	-61.46	0.265	0.131	-0.377	
-0.797636	-0.27328	0.493002	-27.3	1.61	-60.2	0.2661	0.1297	-0.3698	
-0.794342	-0.290116	0.470066	-24.78	1.12	-59.08	0.2558	0.1473	-0.3643	
-0.801174	-0.310856	0.475312	-25.9	1.54	-58.31	0.2575	0.1487	-0.3687	
-0.7808	-0.329644	0.461282	-26.53	-0.7	-57.54	0.2489	0.174	-0.3687	
-0.765184	-0.383568	0.466894	-27.02	-2.31	-56.07	0.2533	0.1676	-0.3706	
-0.744566	-0.431636	0.46543	-26.53	-3.15	-54.18	0.2371	0.1741	-0.3652	
-0.737612	-0.45811	0.457256	-26.53	-4.48	-53.97	0.2373	0.1866	-0.3676	
-0.731878	-0.482266	0.477142	-26.74	-3.57	-52.64	0.2311	0.1853	-0.3616	
-0.723216	-0.525698	0.48129	-24.92	-3.71	-50.4	0.2325	0.1822	-0.3603	
-0.709552	-0.585356	0.474946	-23.03	-2.94	-45.78	0.2186	0.2037	-0.3719	
-0.717604	-0.597068	0.474092	-22.68	-2.8	-44.31	0.2136	0.2075	-0.357	
-0.696498	-0.605242	0.463722	-24.01	-2.66	-40.88	0.2104	0.2094	-0.3494	
-0.682346	-0.60756	0.462868	-24.85	-2.59	-37.45	0.2115	0.2258	-0.3386	
-0.671732	-0.610122	0.457256	-23.66	-2.87	-35.56	0.2061	0.2301	-0.3484	
-0.655628	-0.607438	0.455792	-21.56	-3.99	-34.23	0.2074	0.2383	-0.3422	
-0.6344	-0.630618	0.470554	-21.49	-4.97	-31.22	0.2016	0.227	-0.3454	
-0.616344	-0.660874	0.461282	-20.79	-4.97	-28	0.2001	0.2445	-0.3431	
-0.628788	-0.68259	0.43859	-18.41	-4.48	-26.18	0.187	0.246	-0.3425	
-0.62159	-0.687592	0.449082	-15.47	-5.04	-23.66	0.1911	0.248	-0.3353	
-0.597312	-0.696132	0.460428	-13.86	-4.97	-21.14	0.1838	0.2607	-0.333	
-0.60329	-0.691618	0.455304	-12.88	-4.06	-17.22	0.187	0.254	-0.3422	
-0.623298	-0.687714	0.450546	-10.64	-3.64	-14.28	0.181	0.2653	-0.3356	
-0.621346	-0.695888	0.436638	-7	-2.45	-11.55	0.1925	0.2496	-0.3353	
-0.61183	-0.701378	0.438834	-5.53	-1.96	-8.26	0.1765	0.2526	-0.3345	
-0.616588	-0.711138	0.43066	-3.64	-0.91	-4.97	0.1736	0.2493	-0.3374	
-0.608414	-0.69967	0.433222	-1.89	-1.82	-3.99	0.1748	0.256	-0.3299	
-0.6039	-0.701866	0.44408	-0.42	-1.26	-2.87	0.1796	0.2556	-0.3388	
-0.601338	-0.714432	0.4514	1.75	0.7	-0.84	0.1737	0.2604	-0.3369	
-0.613782	-0.716384	0.436028	3.85	2.03	2.17	0.181	0.2606	-0.3358	
-0.625006	-0.700402	0.424438	5.46	2.45	4.48	0.1867	0.2607	-0.3331	
-0.635132	-0.700646	0.430172	6.93	2.52	6.51	0.1775	0.2627	-0.3224	
-0.634888	-0.701622	0.435906	8.61	2.1	9.17	0.1809	0.2638	-0.3342	
-0.655506	-0.71797	0.440176	10.36	1.96	12.39	0.1825	0.2701	-0.3354	
-0.65148	-0.708942	0.44042	13.09	1.4	16.52	0.1943	0.2445	-0.3429	
-0.676246	-0.709552	0.443958	17.08	2.1	20.72	0.1797	0.2603	-0.3416	
-0.667828	-0.69296	0.448228	22.05	1.89	23.94	0.1884	0.2445	-0.3412	
-0.663436	-0.678686	0.445422	26.18	1.4	27.44	0.1871	0.2426	-0.347	
-0.665266	-0.662826	0.449448	29.61	0.84	33.04	0.1962	0.2393	-0.3534	
-0.678198	-0.654774	0.451766	32.34	1.54	39.2	0.1974	0.2299	-0.3495	
-0.68625	-0.652944	0.454694	36.47	3.08	44.1	0.1929	0.222	-0.3496	
-0.681736	-0.638426	0.457256	39.48	4.41	48.09	0.2177	0.2191	-0.3479	
-0.67283	-0.59658	0.4575	39.34	4.34	51.73	0.2122	0.2074	-0.3598	
-0.68686	-0.5795	0.473604	36.61	4.76	56.63	0.2125	0.2135	-0.3654	
-0.707966	-0.583282	0.486658	35.84	6.16	63.42	0.2213	0.2039	-0.3677	
-0.72102	-0.567666	0.478728	39.9	6.09	69.02	0.2273	0.1911	-0.3728	
-0.726022	-0.529846	0.487146	44.38	5.6	73.85	0.2388	0.1722	-0.3727	
-0.705526	-0.469822	0.487512	45.78	3.85	76.09	0.2389	0.1641	-0.376	
-0.718092	-0.448472	0.486414	42.77	3.43	77.07	0.2489	0.1564	-0.3723	
-0.741516	-0.43615	0.493368	41.51	3.92	79.17	0.2489	0.1532	-0.3739	
-0.73871	-0.43127	0.5063	42	2.52	83.86	0.2519	0.1403	-0.3775	
-0.725412	-0.414556	0.509472	44.8	1.61	88.97	0.2594	0.1211	-0.3845	
-0.70821	-0.35014	0.510082	47.88	1.26	91.91	0.2651	0.1149	-0.3821	
-0.70028	-0.288896	0.508984	46.69	1.33	92.12	0.2626	0.0967	-0.3974	
-0.725046	-0.25254	0.507886	46.76	3.08	91.7	0.262	0.0846	-0.3847	
-0.755546	-0.218868	0.513254	49.56	3.43	92.33	0.2764	0.0658	-0.3833	
-0.787998	-0.153232	0.519476	53.34	1.68	94.43	0.271	0.0588	-0.3965	
-0.791414	-0.095404	0.523868	51.87	-1.82	96.04	0.284	0.0495	-0.3945	
-0.772016	-0.024278	0.5185	54.32	-4.2	94.43	0.2779	0.0305	-0.3921	
-0.740174	0.03172	0.50508	57.19	-4.06	92.96	0.2751	0.0127	-0.3986	
-0.734196	0.053924	0.52643	53.34	-2.87	94.5	0.2809	-0.011	-0.4013	
-0.725534	0.108702	0.534726	55.16	-2.73	95.9	0.2734	-0.0221	-0.4	
-0.716018	0.14884	0.529846	56.07	-3.36	94.15	0.2837	-0.0364	-0.4026	
-0.731512	0.198616	0.496052	58.73	-3.22	89.74	0.2801	-0.0566	-0.3916	
-0.754448	0.254858	0.45628	59.01	-4.62	88.41	0.2774	-0.0761	-0.4011	
-0.727852	0.312076	0.442006	55.86	-8.05	89.11	0.2802	-0.0967	-0.4021	
-0.717482	0.352946	0.47214	52.57	-11.48	89.25	0.2788	-0.1015	-0.4037	
-0.714188	0.385886	0.471652	50.05	-13.93	86.59	0.2638	-0.1284	-0.3998	
-0.729804	0.402966	0.450058	50.54	-17.22	83.16	0.2683	-0.1285	-0.4029	
-0.69784	0.434198	0.472384	51.59	-21	81.13	0.2577	-0.1474	-0.3975	
-0.68808	0.499224	0.514352	46.69	-22.4	79.8	0.2486	-0.176	-0.3969	
-0.691252	0.56669	0.558394	41.51	-22.61	76.93	0.2473	-0.1762	-0.3997	
-0.69723	0.608414	0.534848	36.05	-20.37	73.08	0.2365	-0.1837	-0.3894	
-0.652822	0.609512	0.526674	34.86	-18.97	69.93	0.2326	-0.1874	-0.401	
-0.635132	0.5978	0.518622	32.83	-16.38	66.57	0.225	-0.2079	-0.3972	
-0.640134	0.600484	0.509838	30.87	-14.42	63.35	0.222	-0.2175	-0.3975	
-0.626104	0.599142	0.50081	30.38	-14.77	61.39	0.2157	-0.2363	-0.3907	
-0.589016	0.620004	0.49105	33.46	-15.75	57.96	0.2024	-0.2395	-0.3889	
-0.588772	0.620004	0.480924	33.95	-15.54	54.39	0.1965	-0.249	-0.389	
-0.615124	0.612928	0.460794	36.12	-17.92	50.61	0.1966	-0.2523	-0.3906	
-0.592432	0.645746	0.479826	37.87	-21.7	47.6	0.1844	-0.2567	-0.3801	
-0.566324	0.696376	0.485682	36.68	-23.59	44.17	0.1873	-0.2726	-0.3823	
-0.546438	0.723704	0.504958	34.37	-23.31	41.16	0.1785	-0.2711	-0.3819	
-0.544242	0.76189	0.504226	31.5	-22.19	37.52	0.1564	-0.2759	-0.3797	
-0.54839	0.800808	0.50264	29.54	-21	33.39	0.145	-0.3004	-0.3919	
-0.54168	0.831796	0.504226	24.99	-18.48	30.66	0.1503	-0.2949	-0.3773	
-0.516548	0.832162	0.507642	17.85	-16.1	28.98	0.1485	-0.2881	-0.3682	
-0.49776	0.822768	0.504714	13.23	-13.65	26.25	0.1473	-0.3093	-0.3793	
-0.491904	0.811788	0.497272	9.1	-11.55	22.54	0.1385	-0.3013	-0.3771	
-0.478484	0.783728	0.493612	6.44	-10.78	18.97	0.1326	-0.3045	-0.3755	
-0.465186	0.774822	0.490196	4.41	-10.71	15.19	0.1308	-0.2961	-0.3663	
-0.43798	0.776896	0.503372	3.64	-11.34	11.06	0.1325	-0.3124	-0.3744	
-0.423584	0.786168	0.518988	2.24	-10.43	7.77	0.1369	-0.314	-0.3761	
-0.412238	0.79544	0.52887	0.07	-9.17	4.69	0.1236	-0.3028	-0.3707	
-0.409676	0.80215	0.526064	-2.03	-8.96	1.82	0.1337	-0.3009	-0.3667	
-0.40565	0.805688	0.531066	-4.55	-8.26	0.42	0.131	-0.314	-0.3744	
-0.400892	0.798734	0.521794	-7.98	-7	-0.42	0.1252	-0.3077	-0.3739	
-0.418704	0.796294	0.530822	-10.36	-5.74	-1.61	0.124	-0.3079	-0.3797	
-0.410774	0.814228	0.537654	-11.34	-5.11	-3.78	0.1283	-0.2966	-0.3765	
-0.411506	0.839116	0.533994	-11.9	-3.08	-7.42	0.1182	-0.308	-0.3809	
-0.420656	0.842776	0.531066	-14.07	-1.33	-11.34	0.1184	-0.2971	-0.3834	
-0.41053	0.843386	0.547292	-17.5	0.35	-14.98	0.1257	-0.3002	-0.3838	
-0.416264	0.837286	0.560346	-20.02	3.01	-18.48	0.1242	-0.2874	-0.3817	
-0.4209	0.82289	0.560224	-21.49	6.02	-23.38	0.126	-0.2893	-0.3892	
-0.435906	0.806054	0.56242	-24.22	9.1	-28.21	0.1364	-0.283	-0.3923	
-0.446886	0.799222	0.565226	-27.51	12.39	-33.25	0.1381	-0.2833	-0.3982	
-0.454084	0.784338	0.570838	-32.27	15.19	-38.29	0.151	-0.2925	-0.3933	
-0.455914	0.763232	0.575718	-36.54	17.36	-43.61	0.1525	-0.2685	-0.3894	
-0.476532	0.736758	0.57645	-40.53	20.3	-48.72	0.1454	-0.2703	-0.3936	
-0.499956	0.711626	0.571204	-44.31	22.75	-54.18	0.1577	-0.2486	-0.4048	
-0.51606	0.684176	0.574254	-47.11	23.66	-59.15	0.1557	-0.2496	-0.3931	
-0.516426	0.653554	0.568886	-47.6	25.62	-64.26	0.1765	-0.2337	-0.3963	
-0.54473	0.626836	0.55388	-47.6	27.23	-68.81	0.1757	-0.2313	-0.4122	
-0.559736	0.596458	0.555344	-48.37	27.79	-72.31	0.1845	-0.2104	-0.4073	
-0.579988	0.583892	0.547414	-48.37	28.42	-75.25	0.1946	-0.2133	-0.4049	
-0.598288	0.540704	0.537166	-48.16	29.05	-77.42	0.2135	-0.1875	-0.3988	
-0.618784	0.497394	0.525454	-48.09	28.14	-79.59	0.2256	-0.1814	-0.4063	
-0.630862	0.446032	0.526064	-46.97	27.3	-82.81	0.223	-0.1722	-0.4131	
-0.656604	0.394304	0.518866	-44.8	27.51	-85.75	0.2275	-0.1563	-0.4126	
-0.69113	0.344528	0.530456	-42.91	26.67	-87.01	0.2348	-0.145	-0.4095	
-0.711626	0.300486	0.54046	-41.16	26.11	-88.27	0.2451	-0.1322	-0.4079	
-0.74054	0.253028	0.5429	-42.14	26.46	-90.93	0.2394	-0.1164	-0.4085	
-0.776286	0.212524	0.521306	-42.77	26.6	-93.8	0.2627	-0.1081	-0.4047	
-0.764818	0.163602	0.521428	-45.22	24.92	-95.27	0.2703	-0.0971	-0.409	
-0.74542	0.141642	0.520574	-44.94	24.22	-95.69	0.2746	-0.0858	-0.4058	
-0.74664	0.096258	0.511912	-46.9	25.13	-96.04	0.2674	-0.0684	-0.4047	
-0.770308	0.050386	0.501054	-45.71	24.57	-98.14	0.2852	-0.0429	-0.4058	
-0.762134	0.0122	0.499346	-47.74	23.45	-99.19	0.2822	-0.0284	-0.4007	
-0.752496	-0.042456	0.496906	-49.14	21.84	-98.91	0.2866	-0.0189	-0.4005	
-0.774822	-0.084912	0.483974	-48.37	22.68	-96.53	0.2851	-0.0076	-0.3955	
-0.798856	-0.134322	0.48495	-47.67	21.21	-93.31	0.2956	0.0017	-0.4	
-0.786778	-0.14213	0.485804	-44.59	19.18	-93.17	0.2951	0.0198	-0.386	
-0.803126	-0.205204	0.458476	-52.5	20.44	-89.53	0.2924	0.0372	-0.3881	
-0.798978	-0.23973	0.450302	-48.65	16.03	-86.87	0.2848	0.0535	-0.3768	
-0.84668	-0.304146	0.438834	-45.15	11.76	-81.83	0.291	0.0675	-0.3823	
-0.82106	-0.314028	0.46177	-41.58	7	-78.54	0.2894	0.0804	-0.3773	
-0.83082	-0.345748	0.460428	-37.17	4.13	-76.79	0.2898	0.0945	-0.3826	
-0.815082	-0.3416	0.454206	-33.95	2.73	-77.14	0.2893	0.095	-0.3709	
-0.79849	-0.326838	0.437126	-33.18	2.38	-77.84	0.2865	0.1124	-0.3715	
-0.823378	-0.339282	0.410896	-32.9	-0.07	-78.47	0.2922	0.1446	-0.3616	
-0.836066	-0.368196	0.394792	-32.34	-4.62	-77.7	0.2604	0.1503	-0.3687	
-0.80154	-0.39406	0.412116	-32.55	-9.8	-74.62	0.259	0.1614	-0.3682	
-0.779946	-0.424438	0.409554	-29.68	-11.62	-69.72	0.2545	0.1664	-0.3634	
-0.78141	-0.470066	0.410652	-27.79	-13.72	-63.07	0.2558	0.1729	-0.3603	
-0.768722	-0.497882	0.431514	-27.23	-14.49	-56.63	0.2414	0.1837	-0.3636	
-0.742858	-0.539972	0.446032	-26.67	-15.12	-50.12	0.2384	0.1934	-0.3586	
-0.731512	-0.57828	0.453108	-25.13	-12.95	-45.15	0.2325	0.1934	-0.3569	
-0.737612	-0.596702	0.44286	-22.75	-12.6	-42.14	0.234	0.1998	-0.3567	
-0.738832	-0.615612	0.4514	-22.96	-11.2	-40.39	0.2193	0.2126	-0.3526	
-0.715896	-0.610244	0.45384	-20.65	-12.39	-37.52	0.2238	0.2076	-0.3574	
-0.691008	-0.60817	0.464332	-18.97	-13.02	-34.86	0.2149	0.2173	-0.3522	
-0.67283	-0.620126	0.463234	-17.57	-11.83	-31.57	0.2033	0.2187	-0.3531	
-0.676612	-0.619516	0.441518	-17.85	-11.41	-28.84	0.206	0.2302	-0.3454	
-0.6771	-0.620004	0.4392	-17.36	-10.85	-27.51	0.2081	0.2279	-0.3602	
-0.659288	-0.637572	0.443226	-16.73	-10.01	-25.76	0.203	0.2351	-0.3422	
-0.659044	-0.645258	0.422608	-14.98	-10.78	-24.22	0.197	0.2351	-0.3405	
-0.673684	-0.655994	0.413336	-13.93	-11.97	-24.57	0.1945	0.2347	-0.3491	
-0.653554	-0.662216	0.436028	-11.76	-14	-24.29	0.1988	0.246	-0.3459	
-0.62769	-0.671488	0.443714	-9.73	-14.42	-21.91	0.1901	0.2474	-0.3469	
-0.610122	-0.673074	0.443592	-9.94	-14.77	-19.25	0.1842	0.2458	-0.3468	
-0.603168	-0.669048	0.444202	-8.61	-15.61	-17.57	0.1727	0.2455	-0.3507	
-0.589992	-0.671	0.446276	-5.81	-14.28	-17.01	0.1715	0.2532	-0.3561	
-0.586576	-0.683444	0.463722	-5.04	-12.6	-14.35	0.1666	0.2553	-0.3427	
-0.594628	-0.673074	0.467504	-4.9	-12.53	-11.48	0.161	0.2503	-0.3485	
-0.59536	-0.676978	0.467138	-4.13	-12.25	-9.24	0.1738	0.2539	-0.3416	
-0.587552	-0.699914	0.467138	-2.45	-11.13	-6.09	0.1663	0.2573	-0.3353	
-0.584502	-0.709918	0.474946	0	-9.52	-2.38	0.1609	0.2487	-0.3471	
-0.579622	-0.699914	0.476044	2.24	-9.24	0.07	0.1653	0.2472	-0.3474	
-0.575108	-0.696864	0.476532	4.13	-10.01	2.03	0.1579	0.2551	-0.3452	
-0.562054	-0.696864	0.486902	6.44	-10.08	4.41	0.1473	0.2522	-0.3376	
-0.556076	-0.69296	0.495808	7.42	-9.66	6.65	0.1577	0.2522	-0.341	
-0.561078	-0.69967	0.493368	7.63	-8.47	9.52	0.1562	0.241	-0.3414	
-0.573156	-0.702232	0.49288	8.89	-7.84	11.76	0.1551	0.247	-0.3498	
-0.576816	-0.705526	0.519232	10.92	-7.84	13.37	0.1562	0.2395	-0.3415	
-0.565592	-0.71431	0.535702	12.39	-7.21	15.82	0.1622	0.2521	-0.3441	
-0.569374	-0.71187	0.554978	13.58	-5.53	19.88	0.1595	0.2422	-0.3502	
-0.58987	-0.711748	0.547902	15.26	-1.68	24.64	0.1538	0.2372	-0.3546	
-0.592188	-0.691618	0.533994	17.92	0.98	28.98	0.1656	0.2388	-0.3579	
-0.587674	-0.684908	0.526186	21.56	2.8	32.55	0.1597	0.2324	-0.3565	
-0.585478	-0.68198	0.5246	25.2	4.55	36.47	0.1685	0.2245	-0.3587	
-0.598166	-0.67283	0.51911	28.7	6.51	41.02	0.1685	0.2244	-0.3601	
-0.610122	-0.661728	0.530212	32.48	8.75	45.92	0.179	0.2163	-0.3668	
-0.613294	-0.640256	0.528992	36.54	10.57	50.68	0.1786	0.2039	-0.36	
-0.615246	-0.605242	0.531432	38.36	11.97	54.81	0.1863	0.1988	-0.3693	
-0.623176	-0.580232	0.532408	39.69	12.67	57.54	0.1859	0.1944	-0.3622	
-0.619028	-0.552294	0.554734	41.09	13.16	60.48	0.204	0.1876	-0.3749	
-0.64233	-0.538142	0.54717	43.82	15.12	63.91	0.2158	0.1779	-0.3802	
-0.635986	-0.489708	0.540826	46.34	17.36	66.85	0.2233	0.1746	-0.3851	
-0.653798	-0.460794	0.56547	45.71	19.39	69.16	0.2099	0.1652	-0.3805	
-0.649284	-0.438712	0.552782	47.88	22.47	70.56	0.2272	0.1432	-0.3793	
-0.682468	-0.39772	0.53131	46.97	25.27	72.31	0.223	0.1397	-0.3851	
-0.708698	-0.373198	0.52277	46.06	25.62	73.64	0.2417	0.1258	-0.3806	
-0.71248	-0.33733	0.519476	46.41	24.22	76.23	0.2506	0.113	-0.386	
-0.729072	-0.289506	0.513986	42.84	22.75	78.96	0.2607	0.1052	-0.3838	
-0.752618	-0.252418	0.50264	39.97	21.49	82.18	0.2648	0.0928	-0.3801	
-0.767868	-0.209474	0.499468	36.68	19.74	84.56	0.2706	0.0849	-0.3807	
-0.787754	-0.177998	0.497394	35.63	17.71	87.01	0.2769	0.07009999	-0.3933	
-0.797148	-0.146766	0.486048	37.66	16.1	89.53	0.2827	0.0638	-0.3938	
-0.802882	-0.09467199	0.475434	40.88	13.65	92.4	0.2852	0.0354	-0.3893	
-0.804956	-0.041236	0.465064	34.58	12.46	95.13	0.2853	0.0273	-0.394	
-0.804102	-0.001952	0.468968	36.61	11.27	98.21	0.288	0.0179	-0.3916	
-0.802272	0.056486	0.473482	38.01	10.08	101.15	0.3042	-0.0011	-0.3975	
-0.809958	0.105042	0.449082	39.06	7.28	103.95	0.3025	-0.0041	-0.3932	
-0.777384	0.166286	0.45567	40.46	5.81	105.63	0.2981	-0.0265	-0.3954	
-0.78995	0.229726	0.456524	35.42	5.39	105.63	0.3022	-0.0454	-0.3935	
-0.80642	0.2745	0.445422	36.47	3.64	104.16	0.3034	-0.0707	-0.3932	
-0.76311	0.28182	0.43798	35.91	0.84	103.74	0.3017	-0.08	-0.3877	
-0.759816	0.29585	0.430416	36.12	-0.77	101.64	0.3029	-0.0909	-0.3853	
-0.769454	0.31232	0.42883	33.32	-2.73	97.23	0.2943	-0.1135	-0.3917	
-0.777506	0.373564	0.454084	32.97	-7.49	89.95	0.2836	-0.11	-0.3824	
-0.790682	0.418582	0.454572	30.94	-10.36	83.09	0.2837	-0.134	-0.3878	
-0.793122	0.430782	0.445666	30.31	-14.35	77	0.2752	-0.1409	-0.3965	
-0.782264	0.42578	0.437248	30.45	-19.81	72.24	0.273	-0.1497	-0.3807	
-0.754936	0.446398	0.450912	32.69	-24.5	68.25	0.2761	-0.1659	-0.3888	
-0.752984	0.52277	0.494832	32.41	-28.07	66.36	0.2735	-0.1742	-0.3978	
-0.750178	0.58987	0.483364	27.65	-28.7	64.75	0.2659	-0.1883	-0.3923	
-0.700646	0.578036	0.478362	24.64	-29.05	64.75	0.2529	-0.2031	-0.3997	
-0.682102	0.568154	0.485438	25.41	-27.72	64.61	0.2394	-0.1932	-0.3899	
-0.66917	0.579988	0.478484	26.39	-27.3	62.09	0.2394	-0.2044	-0.3918	
-0.65331	0.583282	0.483852	26.67	-27.79	59.22	0.2366	-0.2253	-0.3985	
-0.624274	0.617686	0.49715	28.84	-28.7	53.76	0.2213	-0.2264	-0.3833	
-0.60573	0.672098	0.507886	29.61	-29.12	47.25	0.2098	-0.2251	-0.3886	
-0.58133	0.689788	0.50447	26.46	-28.91	42	0.2084	-0.2396	-0.392	
-0.554734	0.690032	0.50935	25.69	-28.77	39.06	0.2055	-0.2444	-0.3936	
-0.56059	0.691008	0.510204	22.68	-27.44	37.8	0.1953	-0.2557	-0.3951	
-0.567788	0.696742	0.510082	21.49	-25.62	35.56	0.1762	-0.2542	-0.3927	
-0.556198	0.695156	0.515694	21.21	-24.78	33.95	0.1805	-0.2573	-0.3931	
-0.535824	0.715652	0.508008	20.02	-23.31	32.76	0.1719	-0.2591	-0.3957	
-0.526918	0.71675	0.51057	17.78	-21.7	31.5	0.1653	-0.2664	-0.3811	
-0.52216	0.727364	0.522038	17.22	-20.51	29.26	0.1688	-0.2766	-0.3963	
-0.514718	0.726022	0.528016	17.92	-19.81	24.99	0.1499	-0.2704	-0.3967	
-0.499346	0.712846	0.536312	18.34	-19.74	21	0.1593	-0.2807	-0.38	
-0.481656	0.717848	0.535336	19.39	-19.11	16.73	0.1508	-0.2795	-0.3869	
-0.48434	0.744688	0.531188	20.65	-17.71	12.53	0.1478	-0.2842	-0.3855	
-0.482754	0.760426	0.537654	19.11	-16.66	8.47	0.1302	-0.2843	-0.3833	
-0.468724	0.767502	0.534604	18.13	-16.03	4.62	0.1271	-0.3017	-0.3825	
-0.468968	0.768356	0.530822	16.31	-14.63	1.54	0.1226	-0.2968	-0.3792	
-0.461892	0.778848	0.532042	13.58	-13.51	-0.63	0.1196	-0.2936	-0.3774	
-0.463478	0.782996	0.523258	10.29	-11.83	-2.24	0.1329	-0.3016	-0.3813	
-0.459086	0.786656	0.51545	6.44	-10.99	-3.15	0.1258	-0.3067	-0.387	
-0.445788	0.779702	0.524966	2.24	-9.8	-3.85	0.1255	-0.3016	-0.3795	
-0.44103	0.792024	0.528016	-0.7	-8.05	-5.18	0.1343	-0.292	-0.3795	
-0.440176	0.78507	0.532652	-5.39	-6.23	-6.37	0.1329	-0.3032	-0.3813	
-0.447008	0.77958	0.53375	-8.47	-4.83	-7.56	0.1243	-0.3018	-0.3853	
-0.43737	0.788242	0.548268	-10.22	-3.99	-9.45	0.1257	-0.2986	-0.3837	
-0.437126	0.782752	0.554734	-12.88	-2.73	-11.48	0.1316	-0.2922	-0.3837	
-0.44042	0.774212	0.567056	-14.14	-1.33	-13.86	0.13	-0.2904	-0.3792	
-0.43859	0.77287	0.56364	-14.35	0.7	-17.36	0.1285	-0.2904	-0.3791	
-0.44591	0.760304	0.558882	-14.91	3.15	-20.58	0.133	-0.297	-0.384	
-0.447008	0.757986	0.569618	-15.05	4.83	-24.01	0.1348	-0.294	-0.3898	
-0.44957	0.759938	0.568032	-15.68	6.72	-28.42	0.1319	-0.2893	-0.3894	
-0.461648	0.748958	0.575108	-16.17	8.89	-33.32	0.1447	-0.2889	-0.3827	
-0.466772	0.747982	0.58133	-17.29	11.9	-38.22	0.1539	-0.2732	-0.3897	
-0.484218	0.74603	0.585844	-20.44	15.26	-42.35	0.1454	-0.2768	-0.3953	
-0.49166	0.739808	0.589016	-25.13	18.2	-45.85	0.1584	-0.2669	-0.3911	
-0.504104	0.723338	0.57157	-30.38	21.56	-48.86	0.166	-0.2559	-0.3938	
-0.528504	0.70089	0.550708	-35.49	24.57	-51.45	0.1645	-0.2639	-0.3956	
-0.555466	0.68991	0.532286	-38.99	26.39	-54.04	0.1775	-0.2524	-0.3898	
-0.568032	0.656726	0.532652	-43.26	26.74	-56.91	0.1871	-0.2356	-0.4055	
-0.579134	0.63074	0.524966	-46.76	27.02	-60.06	0.197	-0.2256	-0.3953	
-0.588528	0.592798	0.520818	-50.33	27.16	-63.07	0.1959	-0.2228	-0.4039	
-0.591822	0.556442	0.527894	-52.85	27.51	-65.8	0.2164	-0.2034	-0.401	
-0.604022	0.518012	0.530334	-53.55	28.35	-68.53	0.2162	-0.1968	-0.3949	
-0.637328	0.480802	0.520086	-53.41	28.91	-71.89	0.233	-0.1735	-0.4078	
-0.666242	0.41846	0.529236	-52.22	29.19	-73.92	0.2283	-0.17	-0.4001	
-0.673684	0.382348	0.514718	-48.58	29.82	-75.81	0.2359	-0.1622	-0.4045	
-0.712358	0.341356	0.504836	-46.62	30.03	-77.77	0.2506	-0.1542	-0.4048	
-0.748104	0.307928	0.496662	-45.5	28.98	-80.85	0.2513	-0.1373	-0.4172	
-0.763476	0.254248	0.497516	-43.82	27.23	-83.44	0.2568	-0.1208	-0.405	
-0.776164	0.21899	0.488854	-40.67	25.34	-85.26	0.2639	-0.1142	-0.4007	
-0.788486	0.19093	0.481656	-40.11	24.01	-87.5	0.2771	-0.0853	-0.3956	
-0.802882	0.16165	0.48251	-40.11	23.17	-89.88	0.2829	-0.074	-0.391	
-0.813618	0.130418	0.47336	-40.67	21.28	-90.37	0.2902	-0.0579	-0.3892	
-0.813374	0.085766	0.468358	-39.34	17.92	-90.23	0.2866	-0.0412	-0.4029	
-0.805932	0.035502	0.463234	-39.2	15.4	-90.09	0.2938	-0.0266	-0.3982	
-0.8174	-0.02135	0.46177	-40.39	12.88	-89.53	0.2878	-0.0265	-0.395	
-0.800442	-0.055754	0.48007	-40.25	10.92	-90.09	0.3059	-0.0093	-0.4038	
-0.804102	-0.077714	0.494344	-40.25	10.36	-90.02	0.2969	0.002	-0.3956	
-0.818864	-0.123708	0.497028	-39.13	9.8	-89.39	0.2935	0.0265	-0.3798	
-0.824232	-0.14701	0.469334	-36.82	7.98	-87.57	0.2864	0.031	-0.3837	
-0.815814	-0.14701	0.46665	-37.94	7.35	-85.96	0.2957	0.048	-0.3951	
-0.816912	-0.147986	0.459574	-37.94	6.72	-84.35	0.2926	0.069	-0.3853	
-0.828136	-0.195566	0.456524	-38.85	3.99	-81.62	0.2909	0.0724	-0.3792	
-0.826916	-0.225822	0.450668	-36.96	-0.07	-81.2	0.2883	0.0896	-0.3842	
-0.808494	-0.260592	0.451156	-38.5	-3.71	-80.5	0.2796	0.0895	-0.3853	
-0.795684	-0.298656	0.446886	-40.11	-6.37	-79.66	0.281	0.1119	-0.38	
-0.814472	-0.371002	0.435052	-44.8	-8.75	-76.09	0.2766	0.1167	-0.3781	
-0.814716	-0.454206	0.44774	-43.33	-11.97	-70.49	0.2718	0.1235	-0.3674	
-0.77287	-0.474214	0.467382	-35.21	-17.29	-67.27	0.2722	0.1535	-0.3705	
-0.744078	-0.45933	0.47824	-30.8	-17.64	-65.24	0.2605	0.155	-0.3714	
-0.743712	-0.470188	0.481168	-29.68	-14.28	-62.72	0.2457	0.1647	-0.3631	
-0.747738	-0.51667	0.45872	-27.51	-12.46	-59.64	0.2468	0.1699	-0.3542	
-0.72224	-0.518622	0.469334	-26.53	-13.79	-57.19	0.2342	0.1739	-0.368	
-0.704184	-0.511546	0.463966	-26.95	-13.79	-54.53	0.2241	0.1834	-0.3672	
-0.695278	-0.543998	0.470066	-26.6	-14.14	-51.1	0.2266	0.1902	-0.3568	
-0.683444	-0.568032	0.483852	-25.76	-13.65	-47.11	0.2196	0.2042	-0.3617	
-0.674172	-0.572546	0.483242	-24.85	-13.79	-43.19	0.2152	0.2089	-0.3613	
-0.673318	-0.601094	0.478118	-24.71	-12.6	-40.18	0.2151	0.2043	-0.3586	
-0.652944	-0.610122	0.485194	-22.89	-13.3	-37.87	0.2136	0.2155	-0.3566	
-0.646966	-0.608536	0.476532	-23.03	-12.95	-35.98	0.205	0.2153	-0.3592	
-0.658556	-0.62647	0.47824	-23.38	-11.13	-34.3	0.1929	0.222	-0.3496	
-0.658556	-0.6466	0.472384	-21	-11.27	-31.99	0.1943	0.2237	-0.3467	
-0.64843	-0.65209	0.464942	-19.67	-11.41	-30.38	0.1859	0.2328	-0.3547	
-0.643916	-0.668072	0.469212	-18.06	-11.06	-26.67	0.187	0.2364	-0.3444	
-0.635376	-0.678198	0.471408	-13.44	-11.13	-21.84	0.1842	0.249	-0.3452	
-0.618662	-0.675636	0.463966	-9.94	-11.41	-19.39	0.1721	0.2478	-0.3359	
-0.610244	-0.68503	0.469212	-7.14	-11.34	-17.15	0.1692	0.2509	-0.3371	
-0.595848	-0.68442	0.472872	-4.9	-11.13	-14.91	0.1609	0.2391	-0.349	
-0.596092	-0.67283	0.467016	-3.64	-10.43	-12.74	0.1697	0.2536	-0.3473	
-0.60878	-0.668194	0.465064	-3.43	-10.36	-10.15	0.161	0.2566	-0.3482	
-0.607316	-0.669414	0.464698	-2.8	-10.92	-7.21	0.1608	0.2521	-0.344	
-0.592066	-0.676246	0.47153	-1.4	-11.9	-4.97	0.149	0.2473	-0.3423	
-0.574498	-0.688568	0.483486	0.07	-12.25	-2.87	0.1562	0.249	-0.3411	
-0.568398	-0.69601	0.486902	1.96	-11.48	-0.91	0.1583	0.2596	-0.3524	
-0.571814	-0.685762	0.483364	3.29	-10.71	0.49	0.1464	0.2516	-0.3507	
-0.578524	-0.685274	0.479338	4.9	-10.85	1.75	0.1578	0.2505	-0.3425	
-0.57279	-0.689666	0.482022	6.51	-11.41	3.36	0.1507	0.2502	-0.3481	
-0.571204	-0.701744	0.488976	7.7	-11.48	5.88	0.1476	0.2424	-0.3453	
-0.569008	-0.717726	0.496418	9.24	-10.64	8.4	0.1479	0.25	-0.3509	
-0.572546	-0.711504	0.497516	10.92	-9.03	11.06	0.1549	0.2441	-0.3441	
-0.57767	-0.717482	0.515206	12.25	-8.05	13.16	0.1509	0.2452	-0.3527	
-0.56486	-0.725168	0.519354	14.14	-6.02	16.66	0.1481	0.2482	-0.3553	
-0.566568	-0.71614	0.52094	15.61	-3.85	19.32	0.1463	0.2422	-0.3482	
-0.559492	-0.691374	0.523014	18.41	-2.45	21.63	0.1496	0.2338	-0.3589	
-0.571814	-0.679784	0.529968	20.44	-1.19	24.43	0.1495	0.2307	-0.3576	
-0.570472	-0.66856	0.54168	22.54	0.21	28.14	0.1568	0.2196	-0.3599	
-0.56913	-0.665388	0.54839	25.13	1.61	32.06	0.1652	0.22	-0.3514	
-0.57279	-0.659288	0.54961	27.16	3.36	35.91	0.1672	0.2243	-0.363	
-0.583526	-0.645136	0.549366	29.96	4.76	38.99	0.1643	0.2131	-0.3648	
-0.58682	-0.623176	0.562664	32.9	6.02	41.86	0.1688	0.2033	-0.3713	
-0.5856	-0.609878	0.582062	34.44	7.98	45.99	0.1703	0.1921	-0.3733	
-0.583038	-0.586698	0.576694	35.84	10.57	50.26	0.1819	0.1859	-0.3726	
-0.60085	-0.565592	0.570472	37.24	14	53.83	0.1734	0.1871	-0.3795	
-0.622322	-0.549488	0.565714	38.92	17.36	57.19	0.2013	0.1809	-0.3824	
-0.644282	-0.53009	0.555588	40.95	18.83	59.78	0.1998	0.1713	-0.3827	
-0.644282	-0.501908	0.557174	43.47	20.16	62.23	0.1967	0.1603	-0.3816	
-0.643794	-0.47031	0.566446	44.52	22.26	64.47	0.2202	0.1475	-0.3876	
-0.633912	-0.427854	0.545218	44.94	24.99	64.96	0.2144	0.141	-0.389	
-0.687104	-0.418826	0.552538	42	29.47	65.52	0.232	0.1379	-0.3914	
-0.70699	-0.37271	0.541802	46.27	27.93	66.29	0.2362	0.1125	-0.3927	
-0.732732	-0.316224	0.537166	48.16	26.46	66.36	0.2362	0.1078	-0.3914	
-0.757864	-0.264862	0.523258	51.24	24.85	66.71	0.2508	0.0999	-0.3938	
-0.761036	-0.239852	0.51179	53.62	24.22	68.18	0.2523	0.0807	-0.3976	
-0.765916	-0.20374	0.492026	58.66	23.24	68.67	0.2624	0.0746	-0.3954	
-0.76555	-0.146644	0.483608	59.85	21.56	66.71	0.2708	0.0606	-0.3905	
-0.781532	-0.105408	0.498492	61.74	20.09	64.12	0.2725	0.0428	-0.3987	
-0.823378	-0.058316	0.48922	63.63	19.39	62.16	0.2866	0.0307	-0.3896	
-0.813618	-0.027328	0.486414	68.6	17.43	62.72	0.2855	0.0239	-0.3986	
-0.795928	0.007929999	0.468358	76.3	15.47	63.84	0.2894	0.0069	-0.3907	
-0.793122	0.039284	0.461038	81.2	14.42	64.61	0.2885	-0.009699999	-0.4089	
-0.795074	0.06466	0.44042	80.78	11.13	65.24	0.2865	-0.0187	-0.3975	
-0.795196	0.122732	0.43493	80.5	9.31	65.94	0.2861	-0.0503	-0.3945	
-0.795562	0.165188	0.444324	76.16	7	68.46	0.2975	-0.0674	-0.3899	
-0.79971	0.228872	0.421144	70.35	4.06	70.77	0.2887	-0.0787	-0.3929	
-0.807274	0.255834	0.409066	63.35	0.42	73.22	0.2928	-0.1023	-0.3897	
-0.820572	0.259006	0.42151	55.72	-4.55	76.02	0.2914	-0.112	-0.393	
-0.820938	0.277672	0.433344	51.59	-10.78	78.33	0.2909	-0.1243	-0.3833	
-0.79605	0.319518	0.437248	46.83	-17.43	79.94	0.2783	-0.1426	-0.4011	
-0.789706	0.33611	0.461282	41.51	-21.42	80.99	0.2778	-0.1612	-0.3916	
-0.783118	0.3599	0.4819	33.46	-23.17	82.18	0.2807	-0.1628	-0.3918	
-0.763476	0.370514	0.499712	27.37	-23.52	83.51	0.2574	-0.1711	-0.3956	
-0.766038	0.391132	0.499102	25.41	-24.5	83.44	0.2513	-0.1885	-0.3931	
-0.757132	0.40504	0.489464	24.78	-25.41	84.14	0.2526	-0.1948	-0.392	
-0.74054	0.419558	0.48922	26.67	-27.44	85.33	0.2363	-0.2043	-0.3888	
-0.704306	0.448594	0.498492	28.77	-29.75	86.73	0.2273	-0.2121	-0.3844	
-0.690886	0.520452	0.510448	31.78	-30.66	85.54	0.2214	-0.2248	-0.3847	
-0.6649	0.580354	0.54595	30.24	-33.39	82.6	0.2068	-0.2298	-0.3857	
-0.647698	0.63867	0.558638	31.71	-33.81	79.45	0.1859	-0.252	-0.3814	
-0.625494	0.65331	0.548756	31.08	-30.8	74.83	0.1717	-0.2621	-0.3929	
-0.588284	0.67405	0.549854	28.84	-28.77	69.3	0.1733	-0.2702	-0.3962	
-0.549244	0.652944	0.565348	24.43	-25.97	64.96	0.164	-0.2714	-0.3857	
-0.545584	0.649162	0.564006	25.2	-22.05	57.82	0.1712	-0.2696	-0.383	
-0.541558	0.677832	0.535702	28.28	-21.14	51.1	0.149	-0.2871	-0.3799	
-0.510692	0.720898	0.522526	28.35	-20.86	45.01	0.1403	-0.2872	-0.381	
-0.509228	0.74481	0.505202	23.66	-19.67	39.97	0.1323	-0.3106	-0.3699	
-0.496174	0.745664	0.515572	18.62	-19.81	36.61	0.1285	-0.2968	-0.3794	
-0.47702	0.745054	0.535824	15.54	-20.02	33.6	0.1182	-0.3033	-0.3807	
-0.467748	0.760548	0.53314	14.21	-19.39	30.52	0.106	-0.306	-0.3686	
-0.463356	0.772382	0.549488	11.34	-19.11	26.95	0.1032	-0.3174	-0.3748	
-0.45018	0.785436	0.552172	10.5	-17.71	23.94	0.1122	-0.3127	-0.3779	
-0.429562	0.777506	0.559492	10.15	-15.4	20.44	0.1033	-0.3127	-0.3761	
-0.43249	0.773968	0.539118	10.15	-13.72	16.94	0.1077	-0.3095	-0.3762	
-0.421876	0.77531	0.531188	8.4	-13.23	14	0.0925	-0.3169	-0.3627	
-0.395402	0.774212	0.541802	7.21	-12.11	11.97	0.0969	-0.3154	-0.3643	
-0.377468	0.787754	0.546926	6.16	-10.08	9.38	0.08549999	-0.3173	-0.3697	
-0.377834	0.787876	0.544242	4.13	-8.68	6.65	0.086	-0.3291	-0.3834	
-0.376126	0.78751	0.544486	2.31	-8.19	4.83	0.0841	-0.3174	-0.3711	
-0.371124	0.795806	0.548878	0.28	-7.49	3.01	0.0724	-0.3352	-0.3757	
-0.364902	0.806908	0.55998	-2.94	-6.79	1.05	0.0897	-0.3251	-0.3673	
-0.373076	0.828258	0.55998	-6.93	-5.95	-1.54	0.0852	-0.3267	-0.3657	
-0.358436	0.823256	0.573766	-10.29	-4.9	-3.22	0.0753	-0.3351	-0.3759	
-0.35319	0.823988	0.58255	-12.6	-2.73	-5.53	0.0681	-0.3112	-0.3716	
-0.358192	0.83021	0.581452	-15.19	-0.21	-8.33	0.0797	-0.3271	-0.3743	
-0.373442	0.831918	0.57218	-18.48	2.45	-10.71	0.0726	-0.3146	-0.3763	
-0.378566	0.82472	0.585966	-21.49	4.69	-13.58	0.0741	-0.3066	-0.3746	
-0.379054	0.831552	0.585722	-23.52	7.07	-17.29	0.07539999	-0.3112	-0.3719	
-0.384788	0.81679	0.586454	-26.53	10.22	-21.14	0.0816	-0.2955	-0.3774	
-0.391254	0.79544	0.591578	-29.05	13.86	-24.92	0.0923	-0.296	-0.3895	
-0.397598	0.773602	0.598044	-32.97	16.94	-29.47	0.0997	-0.2944	-0.3912	
-0.410286	0.772382	0.600972	-34.09	20.02	-33.39	0.1012	-0.2912	-0.3897	
-0.414556	0.75945	0.59902	-38.99	22.68	-36.26	0.1086	-0.2865	-0.3927	
-0.42334	0.742248	0.593652	-43.96	25.97	-38.78	0.1162	-0.2835	-0.3973	
-0.443958	0.721264	0.591212	-45.36	29.68	-41.16	0.1172	-0.2669	-0.3835	
-0.469578	0.694424	0.588528	-50.96	31.64	-43.19	0.1356	-0.2581	-0.4014	
-0.490074	0.666364	0.590968	-55.09	33.67	-44.45	0.1386	-0.2454	-0.401	
-0.511668	0.637572	0.590236	-58.31	35.77	-45.5	0.1456	-0.2338	-0.392	
-0.533018	0.597068	0.59109	-59.71	38.01	-45.99	0.158	-0.2329	-0.4086	
-0.566568	0.55876	0.588162	-60.13	39.48	-45.71	0.1584	-0.2125	-0.4135	
-0.57401	0.497516	0.59719	-60.13	39.97	-45.36	0.1714	-0.2106	-0.4096	
-0.601582	0.461892	0.596946	-60.34	41.51	-46.06	0.1922	-0.2011	-0.4145	
-0.63074	0.437126	0.601826	-60.55	43.68	-47.81	0.2011	-0.1836	-0.4141	
-0.659898	0.399184	0.599752	-59.99	46.76	-48.3	0.1997	-0.1837	-0.4155	
-0.676124	0.3599	0.591456	-59.5	49.42	-48.09	0.2087	-0.1631	-0.4179	
-0.68808	0.325008	0.569862	-58.17	51.31	-48.09	0.2275	-0.1531	-0.411	
-0.700402	0.30378	0.55815	-60.62	53.69	-49.14	0.2279	-0.1423	-0.4179	
-0.741516	0.28365	0.519232	-63.07	55.86	-49.21	0.25	-0.1247	-0.4195	
-0.771894	0.254248	0.490928	-67.9	54.95	-47.04	0.2497	-0.1131	-0.4088	
-0.813618	0.19337	0.482388	-72.38	53.41	-40.32	0.2574	-0.0863	-0.4138	
-0.795684	0.148352	0.476654	-70.49	49.42	-33.39	0.2613	-0.08419999	-0.4022	
-0.780434	0.121146	0.469822	-69.44	49	-30.94	0.2658	-0.0667	-0.4016	
-0.808982	0.093696	0.460306	-70.14	47.67	-30.8	0.2721	-0.0398	-0.4051	
-0.85644	0.056364	0.46604	-72.8	46.76	-28.7	0.2936	-0.044	-0.3975	
-0.867786	0.010492	0.46726	-69.09	43.33	-23.73	0.2935	-0.0311	-0.3925	
-0.863638	-0.018666	0.465552	-62.51	39.06	-19.46	0.3053	-0.0232	-0.3942	
-0.864004	-0.04514	0.46116	-54.95	35.7	-17.08	0.3126	-0.007	-0.3894	
-0.86437	-0.056608	0.47092	-49.28	32.27	-15.75	0.3182	-0.0035	-0.3822	
-0.882792	-0.072956	0.476166	-43.54	29.89	-14	0.3227	0.0171	-0.3815	
-0.894626	-0.07686	0.481412	-34.37	25.69	-13.16	0.3199	0.0169	-0.3858	
-0.879742	-0.094916	0.475922	-23.94	19.6	-13.65	0.3297	0.0335	-0.3723	
-0.884744	-0.119926	0.471164	-12.18	19.04	-16.73	0.3253	0.0303	-0.3708	
-0.915	-0.128832	0.46421	-1.05	18.69	-21.84	0.3281	0.032	-0.3694	
-0.92964	-0.134932	0.459574	6.44	16.66	-23.59	0.3311	0.0432	-0.3676	
-0.93391	-0.124318	0.44896	17.99	12.53	-25.48	0.337	0.0352	-0.3711	
-0.909144	-0.14823	0.447496	27.3	9.73	-25.34	0.3459	0.0319	-0.3745	
-0.910364	-0.144448	0.444934	38.64	9.52	-25.27	0.3367	0.0307	-0.3654	
-0.934032	-0.12383	0.433344	45.85	9.03	-25.55	0.3341	0.0383	-0.3708	
-0.931226	-0.105164	0.43493	50.82	8.33	-28.07	0.3395	0.0229	-0.363	
-0.91988	-0.088694	0.423706	58.8	6.16	-29.75	0.3354	0.0241	-0.3701	
-0.925004	-0.082594	0.40809	65.45	4.97	-32.13	0.3247	0.0181	-0.3611	
-0.928542	-0.07625	0.403332	65.94	4.97	-34.16	0.3425	0.0132	-0.3679	
-0.955504	-0.09357399	0.406748	70.07	4.62	-33.95	0.344	0.0004	-0.37	
-0.959774	-0.067832	0.39528	74.69	4.06	-35.77	0.3383	0.0002	-0.3727	
-0.958676	-0.077836	0.378932	82.32	-0.28	-37.52	0.3295	-0.0093	-0.3742	
-0.973682	-0.079666	0.361486	92.61	-3.22	-39.2	0.3324	-0.0125	-0.3744	
-0.953796	-0.058804	0.35807	102.06	-6.44	-39.55	0.3352	-0.0187	-0.3734	
-0.928786	-0.02928	0.371734	114.66	-10.99	-40.53	0.3355	-0.027	-0.381	
-0.93513	0.017446	0.369294	126.49	-12.53	-43.96	0.3409	-0.0473	-0.3748	
-0.926468	0.059902	0.3721	128.31	-17.15	-47.11	0.3262	-0.0553	-0.3745	
-0.906338	0.068808	0.397842	129.57	-19.74	-49.07	0.3234	-0.0764	-0.3826	
-0.918782	0.07137	0.407114	127.82	-22.47	-51.45	0.3335	-0.0889	-0.3807	
-0.890844	0.083692	0.42151	128.52	-20.86	-52.64	0.3235	-0.0892	-0.3861	
-0.907314	0.11834	0.422974	122.36	-17.5	-53.27	0.3226	-0.1122	-0.3695	
-0.905972	0.143228	0.42761	116.97	-14.91	-51.87	0.3199	-0.1126	-0.3767	
-0.882304	0.150182	0.428708	109.76	-14.91	-48.37	0.3182	-0.1219	-0.3727	
-0.886696	0.165676	0.445422	103.11	-12.53	-43.82	0.3209	-0.1472	-0.371	
-0.881572	0.190564	0.445544	96.32	-10.22	-40.32	0.3234	-0.1643	-0.3645	
-0.892308	0.22143	0.449082	88.41	-10.01	-36.82	0.3203	-0.1513	-0.358	
-0.86193	0.203862	0.463234	76.51	-6.44	-29.54	0.3216	-0.1544	-0.3553	
-0.875594	0.22448	0.461038	64.33	-9.8	-25.69	0.3216	-0.164	-0.3571	
-0.878522	0.207034	0.460184	58.87	-3.78	-19.81	0.3141	-0.1718	-0.3542	
-0.869616	0.207034	0.458476	53.13	-2.66	-14.7	0.323	-0.1752	-0.3591	
-0.876936	0.2013	0.463478	46.69	-6.51	-11.48	0.3256	-0.1811	-0.3522	
-0.862662	0.204228	0.479094	42.21	-3.5	-10.64	0.3209	-0.1889	-0.3465	
-0.859002	0.173972	0.479216	40.18	-2.38	-11.9	0.315	-0.1952	-0.3465	
-0.887794	0.167018	0.455304	37.17	-1.12	-14.28	0.3163	-0.2014	-0.3425	
-0.874374	0.166042	0.46116	34.93	-1.4	-16.24	0.3166	-0.197	-0.3496	
-0.876814	0.167384	0.46299	32.13	-0.49	-17.08	0.325	-0.206	-0.3416	
-0.889624	0.166896	0.460916	28	0	-16.17	0.3204	-0.1947	-0.3365	
-0.883158	0.168726	0.46726	22.33	0.14	-15.47	0.3333	-0.2055	-0.3317	
-0.878644	0.16226	0.471652	16.59	0.98	-14.07	0.3248	-0.2058	-0.3372	
-0.885598	0.13969	0.472018	13.79	1.33	-13.37	0.329	-0.2057	-0.3344	
-0.883524	0.124196	0.470676	11.48	1.68	-12.67	0.3307	-0.201	-0.3372	
-0.88389	0.122366	0.469822	10.15	1.61	-11.97	0.3219	-0.2059	-0.3385	
-0.873886	0.112728	0.468724	8.89	1.54	-10.29	0.3377	-0.2086	-0.332	
-0.871202	0.118706	0.472018	8.26	3.08	-9.03	0.3374	-0.2131	-0.3264	
-0.884866	0.133102	0.462624	7.35	3.92	-7.56	0.3305	-0.2105	-0.3362	
-0.902312	0.146034	0.44103	6.86	2.24	-5.6	0.3307	-0.2043	-0.3388	
-0.890356	0.140666	0.44713	4.83	0.49	-3.64	0.3361	-0.2069	-0.329	
-0.896456	0.146644	0.451888	3.64	0.42	-2.38	0.333	-0.21	-0.326	
-0.903654	0.152256	0.443226	1.54	0.35	-0.28	0.3406	-0.215	-0.3339	
-0.891454	0.149328	0.452742	-1.4	-0.07	2.24	0.332	-0.2121	-0.3363	
-0.891942	0.147864	0.44774	-3.57	0	4.13	0.3451	-0.2007	-0.3334	
-0.886574	0.144082	0.464698	-6.72	0.56	5.67	0.3364	-0.2137	-0.338	
-0.881572	0.142374	0.467382	-11.06	2.24	6.65	0.3287	-0.2053	-0.3271	
-0.877424	0.13786	0.467016	-14.49	4.06	8.75	0.3362	-0.2118	-0.3321	
-0.883524	0.158966	0.454572	-18.2	6.16	11.55	0.3365	-0.2074	-0.3392	
-0.897188	0.15555	0.44286	-21.98	7.77	14.28	0.3364	-0.2153	-0.3381	
-0.88694	0.175558	0.441518	-28.07	9.1	15.96	0.3289	-0.2055	-0.3315	
-0.883036	0.188734	0.4453	-34.09	10.85	17.5	0.344	-0.2075	-0.3424	
-0.87169	0.202032	0.448594	-44.66	13.44	19.53	0.3348	-0.1943	-0.3298	
-0.888038	0.209352	0.423706	-56.07	17.71	20.23	0.338	-0.2057	-0.3377	
-0.899628	0.220576	0.407236	-68.95	21.98	21.98	0.3487	-0.1934	-0.3464	
-0.922564	0.214598	0.39162	-77.63	23.66	24.01	0.3369	-0.1854	-0.3441	
-0.90402	0.206668	0.389058	-83.79	23.59	27.23	0.3444	-0.1792	-0.3471	
-0.91988	0.207278	0.393328	-90.02	22.89	29.68	0.34	-0.1728	-0.3452	
-0.941962	0.204472	0.363926	-95.48	25.62	28.7	0.3458	-0.1615	-0.342	
-0.923052	0.170678	0.378688	-102.9	21.56	26.95	0.3445	-0.1617	-0.3463	
-0.921832	0.15799	0.356972	-106.12	21.28	26.81	0.342	-0.1446	-0.3528	
-0.95831	0.155184	0.326228	-113.47	21.91	28.28	0.3466	-0.1367	-0.3556	
-0.9821	0.114558	0.317322	-114.03	19.39	31.01	0.3539	-0.1302	-0.3541	
-0.972218	0.099796	0.315004	-107.17	17.43	29.47	0.3544	-0.1068	-0.3604	
-0.966728	0.047702	0.340624	-103.25	13.23	29.75	0.35	-0.0972	-0.3584	
-0.98332	0.054168	0.30439	-101.71	9.66	32.62	0.3486	-0.0957	-0.3597	
-1.003328	0.07381	0.277306	-107.52	5.67	34.09	0.3504	-0.0784	-0.3634	
-0.970144	0.047092	0.31354	-102.48	2.87	31.78	0.356	-0.0685	-0.3559	
-0.973804	0.028914	0.331474	-96.25	1.96	28.91	0.3559	-0.0524	-0.3509	
-0.978806	0.075884	0.326472	-98.35	-1.33	27.02	0.3532	-0.0494	-0.355	
-0.987468	0.080398	0.295484	-106.19	-6.23	33.04	0.3515	-0.0381	-0.3486	
-0.990884	0.016836	0.27145	-109.27	-13.09	42.7	0.3563	-0.0288	-0.3557	
-0.959408	-0.003904	0.31659	-109.55	-14.77	46.2	0.3462	-0.0178	-0.3563	
-0.935618	0.001952	0.345626	-111.93	-13.93	42.63	0.3454	-0.0026	-0.3687	
-0.957456	0.003538	0.372954	-116.13	-12.67	43.96	0.3446	0.0077	-0.3493	
-0.958188	-0.015616	0.37088	-120.96	-12.67	50.82	0.3419	0.017	-0.3531	
-0.936594	-0.041114	0.37942	-123.62	-12.95	59.15	0.341	0.0309	-0.3627	
-0.91683	-0.05673	0.390278	-128.94	-10.01	59.92	0.3505	0.0253	-0.3473	
-0.911584	-0.076494	0.38857	-128.59	-5.95	58.45	0.3465	0.0377	-0.3539	
-0.948184	-0.09076799	0.383202	-120.33	-8.47	54.32	0.339	0.0555	-0.344	
-0.947574	-0.110776	0.405162	-116.13	-5.88	54.18	0.3566	0.0716	-0.3426	
-0.935984	-0.116388	0.41114	-104.09	-6.58	52.29	0.3583	0.0697	-0.3486	
-0.925614	-0.156282	0.399428	-93.17	-5.04	50.68	0.3533	0.0831	-0.3333	
-0.904996	-0.160796	0.408456	-83.58	-7.84	46.06	0.3566	0.0939	-0.3388	
-0.89365	-0.149938	0.439566	-71.82	-7.7	38.85	0.3508	0.0971	-0.3384	
-0.895602	-0.157868	0.446276	-61.39	-7.35	33.46	0.3549	0.1022	-0.331	
-0.90524	-0.152744	0.454938	-49.84	-7.49	27.72	0.355	0.1053	-0.3338	
-0.89548	-0.11529	0.444446	-37.24	-8.61	22.68	0.3578	0.1054	-0.331	
-0.87962	-0.084668	0.44225	-28.77	-7.28	18.9	0.3578	0.1055	-0.3296	
-0.89548	-0.05246	0.44957	-21.98	-5.81	16.94	0.3521	0.1068	-0.3336	
-0.898652	0.002928	0.447984	-17.92	-3.85	14.84	0.3582	0.1098	-0.3396	
-0.885354	0.019032	0.45628	-13.51	-2.66	13.86	0.3626	0.1082	-0.3399	
-0.897432	0.03843	0.457866	-10.5	0.28	13.3	0.3531	0.1089	-0.3234	
-0.895968	0.03599	0.457378	-9.94	0.84	13.93	0.3522	0.1164	-0.3332	
-0.882304	0.01525	0.459208	-8.82	0.84	13.44	0.3593	0.115	-0.3307	
-0.885232	0.016348	0.459452	-8.68	0.84	11.97	0.3591	0.0992	-0.3284	
-0.88938	0.031232	0.458842	-7.21	1.12	10.01	0.3502	0.1009	-0.3251	
-0.893406	0.04026	0.456524	-6.3	1.47	9.59	0.3589	0.1027	-0.3224	
-0.900726	0.05063	0.45384	-5.53	1.61	9.17	0.3531	0.1074	-0.322	
-0.906094	0.072224	0.441274	-3.78	0.35	8.54	0.3652	0.1166	-0.3309	
-0.918538	0.07686	0.44957	-3.15	-1.61	8.54	0.3634	0.1073	-0.3254	
-0.903776	0.06283	0.457378	1.33	-2.73	7.49	0.3579	0.1117	-0.3322	
-0.89609	0.056974	0.453596	1.89	-2.94	7.07	0.3579	0.1117	-0.3322	
-0.881084	0.075762	0.455182	3.5	-3.36	4.41	0.3632	0.0947	-0.323	
-0.8723	0.093818	0.461892	1.68	-2.87	0.63	0.3514	0.106	-0.3176	
-0.883646	0.097356	0.468358	0.56	-1.05	-0.07	0.3492	0.09559999	-0.3369	
-0.891576	0.093696	0.461038	0.28	-0.42	0	0.3492	0.09559999	-0.3369	
-0.893894	0.088084	0.451888	-0.49	0.21	-0.63	0.3621	0.1008	-0.3285	
-0.90036	0.076494	0.454938	-1.12	1.19	-0.84	0.368	0.1103	-0.3298	
-0.897798	0.07515199	0.452986	0	1.89	-1.19	0.3563	0.1006	-0.3312	
-0.902434	0.072224	0.441274	-0.35	2.38	-2.45	0.3663	0.1106	-0.3239	
-0.902312	0.065148	0.428342	0.77	1.96	-3.36	0.3574	0.1059	-0.3208	
-0.900726	0.066978	0.432856	1.26	1.61	-3.92	0.3519	0.107	-0.3292	
-0.895846	0.0732	0.444446	0.49	1.47	-4.27	0.3562	0.096	-0.3284	
-0.898164	0.063318	0.444446	1.12	1.89	-3.99	0.3706	0.1059	-0.3228	
-0.921466	0.048312	0.432368	1.89	1.4	-4.13	0.3549	0.099	-0.3326	
-0.909266	0.029524	0.443348	3.5	0.63	-4.69	0.3605	0.1089	-0.3252	
-0.905118	0.013664	0.446886	4.48	0.28	-5.67	0.3606	0.1056	-0.3282	
-0.896456	0.010614	0.452498	6.93	1.19	-7	0.3501	0.1058	-0.3219	
-0.895602	-0.007198	0.450668	10.99	0.91	-7.77	0.3622	0.1151	-0.3279	
-0.892308	-0.034648	0.448716	18.34	2.24	-10.01	0.3638	0.1006	-0.3344	
-0.893406	-0.062098	0.449326	24.22	2.87	-13.58	0.3637	0.1118	-0.331	
-0.89609	-0.054412	0.460916	30.38	3.08	-18.48	0.3577	0.1007	-0.3298	
-0.895968	-0.065392	0.448472	41.3	3.57	-22.68	0.3621	0.1008	-0.3285	
-0.902312	-0.102602	0.442982	55.86	7.42	-25.48	0.3639	0.1037	-0.3357	
-0.912926	-0.08723	0.415532	70.14	8.54	-29.61	0.3539	0.0889	-0.3447	
-0.912926	-0.04758	0.433954	76.16	6.86	-34.79	0.3606	0.08639999	-0.332	
-0.926102	-0.026596	0.407114	82.53	8.05	-39.34	0.3562	0.0784	-0.3321	
-0.947208	-0.046238	0.368928	92.33	10.15	-40.95	0.3604	0.0786	-0.3279	
-0.983198	-0.072102	0.334158	105.07	8.4	-39.48	0.3548	0.0671	-0.3369	
-0.938058	0.035868	0.355874	98.7	1.82	-41.86	0.3576	0.0592	-0.3359	
-0.937082	0.007808	0.377834	89.04	2.38	-42.42	0.3494	0.0602	-0.3472	
-0.996496	0.00427	0.355264	90.09	4.83	-42.07	0.3543	0.0516	-0.3624	
-0.981368	0.001342	0.327814	90.93	3.92	-36.12	0.352	0.0333	-0.347	
-0.982222	-0.044774	0.330742	94.29	3.78	-28.21	0.3477	0.03	-0.3484	
-0.976854	-0.039772	0.328302	101.92	2.17	-25.55	0.3551	0.014	-0.3538	
-0.952088	0.020618	0.322568	104.23	-0.56	-25.27	0.3606	0.0032	-0.3487	
-0.948062	0.029402	0.352458	100.87	-2.73	-27.58	0.358	-0.0035	-0.3576	
-0.945622	0.042578	0.34831	107.8	-5.67	-33.32	0.349	-0.009699999	-0.3531	
-0.935618	0.094306	0.322202	105.07	-9.94	-37.17	0.3433	-0.0228	-0.3593	
-0.947574	0.097966	0.335012	104.58	-12.25	-37.17	0.3605	-0.035	-0.3532	
-0.963678	0.104798	0.339526	106.89	-12.81	-37.31	0.3551	-0.0451	-0.3651	
-0.96319	0.10126	0.353678	107.66	-13.65	-36.26	0.3472	-0.0558	-0.3536	
-0.93757	0.106506	0.34892	110.95	-15.68	-34.86	0.3415	-0.0704	-0.3598	
-0.91622	0.108946	0.352458	110.18	-14.84	-33.74	0.3504	-0.08	-0.365	
-0.927566	0.107116	0.358314	113.54	-17.99	-36.26	0.3443	-0.0815	-0.3604	
-0.925614	0.12383	0.365512	120.33	-20.51	-38.29	0.3383	-0.1021	-0.3596	
-0.92232	0.152866	0.37637	120.33	-22.05	-42.07	0.3398	-0.1069	-0.3613	
-0.91195	0.179584	0.380152	116.97	-20.09	-44.17	0.3304	-0.1271	-0.3501	
-0.903898	0.209718	0.385398	109.97	-18.76	-44.87	0.3383	-0.1341	-0.3668	
-0.90036	0.221796	0.398574	100.52	-17.57	-43.68	0.3438	-0.1432	-0.3586	
-0.884622	0.243512	0.423462	93.66	-15.26	-40.74	0.3302	-0.1509	-0.3511	
-0.90463	0.261202	0.413092	86.17	-11.48	-36.26	0.3348	-0.1527	-0.3558	
-0.896334	0.26047	0.405406	79.87	-3.71	-29.4	0.3345	-0.17	-0.3521	
-0.920612	0.254614	0.415898	72.87	-9.45	-24.64	0.3309	-0.1805	-0.3393	
-0.905484	0.246196	0.417484	66.92	-8.75	-20.09	0.3415	-0.1759	-0.3454	
-0.900604	0.241804	0.413946	63.98	-8.54	-19.53	0.3441	-0.1883	-0.3402	
-0.893284	0.22997	0.415898	59.08	-8.54	-18.13	0.3334	-0.1975	-0.3314	
-0.913536	0.238876	0.407358	56.56	-7.98	-20.37	0.3379	-0.2057	-0.3363	
-0.897432	0.244732	0.395646	50.54	-8.82	-20.93	0.3465	-0.215	-0.3341	
-0.907802	0.244976	0.399062	42.98	-9.94	-19.95	0.3377	-0.2103	-0.3335	
-0.908656	0.240462	0.400892	38.64	-9.24	-17.85	0.3392	-0.2135	-0.3352	
-0.90646	0.229238	0.406748	33.18	-8.82	-15.82	0.3331	-0.2149	-0.3292	
-0.90341	0.222528	0.410652	26.88	-9.24	-14.14	0.3306	-0.209	-0.3376	
-0.887672	0.215818	0.430416	22.05	-8.68	-13.72	0.3403	-0.2146	-0.3251	
-0.887184	0.200568	0.44713	19.39	-7.63	-13.79	0.3404	-0.2179	-0.3282	
-0.888404	0.163236	0.45323	17.99	-6.23	-14.49	0.3401	-0.2193	-0.3224	
-0.881328	0.13786	0.443836	17.99	-4.83	-15.26	0.3343	-0.2194	-0.3236	
-0.891332	0.119682	0.436272	18.13	-3.64	-15.47	0.3359	-0.2162	-0.325	
-0.89121	0.106018	0.436638	17.57	-2.31	-15.61	0.3375	-0.2149	-0.3294	
-0.89304	0.112972	0.441274	17.99	-1.47	-16.03	0.3356	-0.2223	-0.3194	
-0.90097	0.119072	0.434442	17.29	-0.84	-17.01	0.3433	-0.2212	-0.3299	
-0.909144	0.130296	0.436272	17.22	-0.7	-16.24	0.3412	-0.2236	-0.3138	
-0.906338	0.146644	0.434198	16.52	-0.56	-15.19	0.3413	-0.219	-0.3166	
-0.892918	0.162138	0.43737	14.28	-0.7	-13.09	0.3502	-0.219	-0.3199	
-0.887184	0.156526	0.439322	12.04	-0.56	-10.64	0.3487	-0.2302	-0.3203	
-0.884988	0.146034	0.438468	9.94	-0.35	-9.24	0.343	-0.2192	-0.321	
-0.895358	0.145546	0.435052	7.7	-0.07	-7.84	0.3417	-0.213	-0.3251	
-0.89426	0.138226	0.439322	4.48	0	-5.88	0.3373	-0.2146	-0.3235	
-0.902922	0.14091	0.43127	2.52	-0.07	-3.5	0.3384	-0.2222	-0.318	
-0.899872	0.135176	0.428464	-0.28	-0.35	-1.26	0.3444	-0.2207	-0.3197	
-0.898408	0.127612	0.424072	-1.47	0.21	0.07	0.346	-0.2257	-0.3258	
-0.909754	0.12688	0.420534	-2.73	0.49	0.98	0.3522	-0.2196	-0.3316	
-0.916952	0.12993	0.419436	-3.36	0.7	1.61	0.3488	-0.2175	-0.3212	
-0.915976	0.12993	0.417606	-4.13	0.98	2.45	0.3486	-0.2205	-0.3169	
-0.907802	0.135786	0.418582	-5.39	0.91	2.87	0.3459	-0.2191	-0.3211	
-0.907802	0.125782	0.422242	-5.6	1.05	3.08	0.3488	-0.2159	-0.3197	
-0.91683	0.12688	0.4148	-6.3	1.47	3.29	0.3454	-0.2346	-0.3116	
-0.911096	0.130174	0.417728	-8.4	0.98	4.76	0.3563	-0.2336	-0.328	
-0.916098	0.130174	0.415654	-9.31	0.56	6.16	0.3426	-0.2172	-0.3122	
-0.896944	0.1342	0.42761	-11.62	0.56	7.49	0.3384	-0.2206	-0.3165	
-0.902068	0.141886	0.42578	-13.44	0.63	7.77	0.3417	-0.2145	-0.3237	
-0.904996	0.135908	0.426756	-13.93	1.12	8.47	0.3373	-0.2114	-0.3234	
-0.90524	0.157746	0.42395	-16.03	1.96	9.24	0.3355	-0.211	-0.3145	
-0.922564	0.164944	0.41236	-19.04	2.38	11.06	0.3519	-0.2144	-0.3227	
-0.909144	0.175314	0.408456	-23.31	1.96	13.16	0.3535	-0.2129	-0.3256	
-0.922564	0.169458	0.402112	-25.62	1.82	15.05	0.3462	-0.2066	-0.325	
-0.914146	0.186538	0.403698	-29.26	1.75	16.1	0.346	-0.2161	-0.3239	
-0.899384	0.206058	0.408822	-33.95	2.87	16.59	0.339	-0.2165	-0.331	
-0.89121	0.238266	0.409676	-41.86	5.46	17.71	0.3419	-0.1988	-0.3259	
-0.893528	0.25254	0.420778	-51.03	7.63	20.93	0.3337	-0.1995	-0.3402	
-0.87962	0.239242	0.427854	-58.03	10.99	22.05	0.3469	-0.1979	-0.3407	
-0.894504	0.213744	0.421144	-60.97	12.25	21.98	0.3414	-0.1966	-0.3477	
-0.885842	0.191418	0.426878	-66.64	17.57	21.91	0.35	-0.1915	-0.342	
-0.871934	0.208986	0.41602	-76.02	18.34	24.01	0.3457	-0.1838	-0.3444	
-0.89121	0.198494	0.385886	-86.8	19.88	27.51	0.341	-0.1899	-0.3386	
-0.914512	0.18788	0.380762	-94.15	18.62	29.12	0.3444	-0.1696	-0.3452	
-0.942328	0.16592	0.365756	-92.68	16.52	28.07	0.3459	-0.1631	-0.3435	
-0.97539	0.145058	0.354654	-89.67	13.72	26.74	0.352	-0.1537	-0.3478	
-0.975146	0.120292	0.337208	-89.74	10.01	29.33	0.3477	-0.1523	-0.349	
-0.954772	0.126026	0.338672	-90.58	8.75	32.69	0.3453	-0.1434	-0.3616	
-0.96502	0.127246	0.33916	-94.71	8.4	35.14	0.3437	-0.1287	-0.3536	
-0.954284	0.126758	0.355386	-94.08	4.62	35.35	0.3423	-0.1289	-0.3565	
-0.95587	0.11529	0.346114	-92.05	2.24	37.38	0.3558	-0.1115	-0.3607	
-0.95831	0.088328	0.347212	-89.39	-0.84	38.78	0.3603	-0.1084	-0.3637	
-0.966118	0.080886	0.345138	-84.42	-2.45	36.96	0.3428	-0.0958	-0.3609	
-0.9638	0.101016	0.3477	-86.31	-5.39	35.98	0.343	-0.0976	-0.3669	
-0.960506	0.090036	0.336964	-92.33	-6.86	36.05	0.3329	-0.0851	-0.3674	
-0.952698	0.056974	0.336964	-97.09	-7.56	39.48	0.3327	-0.0768	-0.3597	
-0.951844	0.039162	0.341112	-101.85	-6.51	42.21	0.3476	-0.0722	-0.366	
-0.942572	0.032452	0.35807	-103.95	-6.23	43.61	0.3342	-0.0545	-0.3573	
-0.926834	0.04209	0.375028	-109.06	-1.96	44.31	0.345	-0.0454	-0.3691	
-0.922198	0.01769	0.376492	-108.64	-0.98	48.16	0.3335	-0.0329	-0.3695	
-0.92903	0.00549	0.382958	-113.47	1.75	49.42	0.3318	-0.0246	-0.3632	
-0.92537	0.005368	0.406504	-117.18	0.63	52.22	0.332	-0.0041	-0.3638	
-0.917318	-0.002806	0.414068	-118.93	-1.33	52.08	0.335	0.007	-0.3635	
-0.922564	-0.022936	0.416142	-109.48	-3.36	51.38	0.3277	0.0053	-0.3647	
-0.937082	-0.04514	0.431636	-104.09	-5.53	50.33	0.3426	0.0195	-0.3691	
-0.908168	-0.057706	0.4392	-95.83	-8.26	48.3	0.3365	0.0293	-0.3611	
-0.896578	-0.044408	0.45445	-93.31	-10.08	44.73	0.3354	0.0434	-0.3648	
-0.905118	-0.032208	0.44957	-85.61	-9.38	40.74	0.3365	0.0501	-0.3573	
-0.903044	-0.053924	0.452986	-75.25	-10.64	37.94	0.3465	0.0585	-0.3486	
-0.900116	-0.057096	0.467016	-65.59	-11.13	34.16	0.3466	0.0455	-0.355	
-0.895114	-0.058682	0.479948	-60.2	-10.92	30.66	0.3365	0.0661	-0.3537	
-0.897188	-0.085278	0.476532	-54.32	-9.66	28.35	0.338	0.0614	-0.354	
-0.887062	-0.092598	0.478118	-45.22	-9.03	25.9	0.3496	0.0743	-0.351	
-0.865346	-0.080398	0.499712	-35.56	-8.4	23.03	0.3426	0.0771	-0.3564	
-0.863516	-0.069052	0.501542	-27.37	-5.46	21	0.3396	0.0755	-0.3563	
-0.862662	-0.031354	0.485682	-19.18	-4.76	19.74	0.3425	0.0773	-0.3535	
-0.869982	0.00915	0.475434	-12.74	-4.2	17.15	0.3378	0.0712	-0.3477	
-0.881572	0.038186	0.48068	-10.43	-3.99	16.45	0.327	0.0669	-0.3358	
-0.881938	0.073322	0.501664	-8.54	-3.78	15.47	0.3367	0.0867	-0.3543	
-0.865834	0.074298	0.514108	-4.76	-3.43	14.98	0.3321	0.0854	-0.3483	
-0.85827	0.07808	0.507032	-4.06	-3.01	14.35	0.3276	0.0774	-0.347	
-0.858514	0.094794	0.50935	-5.04	-2.38	13.93	0.3409	0.0726	-0.3522	
-0.851926	0.085278	0.513864	-5.39	-0.84	13.23	0.3398	0.0786	-0.3591	
-0.857782	0.073444	0.505568	-5.18	-0.35	11.69	0.3407	0.076	-0.3476	
-0.862784	0.097844	0.496784	-5.39	-0.28	11.41	0.3412	0.0818	-0.3576	
-0.85156	0.114314	0.510692	-4.13	0.07	10.36	0.3395	0.0853	-0.3501	
-0.85522	0.100406	0.505446	-3.92	0.98	9.45	0.3483	0.0677	-0.3556	
-0.853268	0.119804	0.506788	-3.92	1.05	7.91	0.3408	0.0726	-0.3507	
-0.865468	0.120414	0.498126	-2.8	0.63	6.51	0.332	0.079	-0.3486	
-0.853756	0.12749	0.50813	-2.87	0.07	5.67	0.348	0.0808	-0.3463	
-0.854122	0.136884	0.50691	-2.87	0.84	4.48	0.3453	0.079	-0.3521	
-0.865834	0.132614	0.497638	-3.08	1.54	3.43	0.3436	0.0728	-0.3479	
-0.870226	0.12688	0.489586	-3.92	1.47	2.87	0.3409	0.07099999	-0.3522	
-0.868518	0.12505	0.493978	-4.27	1.96	2.73	0.3468	0.0838	-0.3505	
-0.857904	0.125538	0.510936	-4.69	2.87	2.38	0.3464	0.0683	-0.3438	
-0.863638	0.106628	0.49776	-3.08	3.78	0.84	0.3495	0.0697	-0.3483	
-0.878644	0.088328	0.476166	-0.98	3.15	-1.47	0.3419	0.0747	-0.3404	
-0.875228	0.096624	0.47946	0.07	1.96	-4.13	0.3382	0.07229999	-0.3564	
-0.867664	0.070516	0.489952	2.66	2.03	-5.11	0.3397	0.0803	-0.3561	
-0.863882	0.061976	0.48373	6.58	2.31	-6.51	0.3383	0.0786	-0.3576	
-0.888892	0.06588	0.469944	10.08	0.84	-9.1	0.351	0.0744	-0.3496	
-0.88938	0.076616	0.473238	14.21	-0.7	-11.9	0.3377	0.0729	-0.3447	
-0.876692	0.07381	0.488122	16.38	-0.28	-13.09	0.3451	0.0712	-0.348	
-0.880352	0.0671	0.48251	18.41	1.19	-14	0.3335	0.0758	-0.3488	
-0.88145	0.059292	0.474824	20.23	1.75	-15.54	0.3422	0.0664	-0.3496	
-0.88572	0.035258	0.476044	22.33	2.66	-17.08	0.3452	0.0791	-0.3491	
-0.870348	0.014762	0.483486	27.72	3.71	-19.6	0.3409	0.0742	-0.3506	
-0.872666	-0.003416	0.493246	33.6	6.51	-21.84	0.344	0.0724	-0.3567	
-0.871568	0.005368	0.491904	37.38	8.68	-24.43	0.3322	0.066	-0.355	
-0.875106	0.015982	0.489952	40.67	11.62	-26.67	0.3439	0.0645	-0.3555	
-0.885232	0.012566	0.494588	46.55	15.19	-28.98	0.3496	0.0631	-0.3529	
-0.896456	-0.01891	0.457256	56.28	16.73	-30.66	0.3439	0.0582	-0.3558	
-0.90707	-0.041846	0.390766	69.3	14.91	-32.13	0.3511	0.0583	-0.3532	
-0.91439	0.023668	0.396378	74.55	11.48	-35.21	0.3463	0.054	-0.3444	
-0.931348	0.0305	0.406748	71.4	10.15	-38.15	0.3493	0.0362	-0.3512	
-0.963312	0.00732	0.411994	77.14	7.91	-39.62	0.3463	0.0267	-0.3514	
-0.937692	-0.015616	0.406504	88.2	5.46	-42.07	0.3495	0.0296	-0.3573	
-0.950868	-0.05429	0.371002	96.81	5.81	-41.58	0.3511	0.0199	-0.3622	
-0.932446	-0.01159	0.354776	102.41	2.45	-43.33	0.3522	0.0187	-0.3535	
-0.956602	0.020008	0.359412	97.02	0.56	-44.94	0.3569	0.0072	-0.3629	
-0.969168	0.07905599	0.3477	94.71	-1.82	-45.15	0.3422	0.0023	-0.3625	
-0.975878	0.058194	0.359778	92.89	-3.08	-41.51	0.3464	-0.0165	-0.3621	
-0.96319	0.061244	0.331474	96.53	-4.62	-37.66	0.3477	-0.0307	-0.3613	
-0.97783	0.068808	0.320128	94.5	-6.02	-36.33	0.3437	-0.0296	-0.3698	
-0.96014	0.07625	0.357826	108.92	-7.49	-32.48	0.3461	-0.0402	-0.3602	
-0.961482	0.074298	0.357948	108.22	-12.81	-30.59	0.3477	-0.058	-0.3668	
-0.940254	0.074176	0.350262	116.62	-15.82	-31.43	0.3481	-0.07759999	-0.3794	
-0.922564	0.086254	0.365024	118.09	-18.06	-34.16	0.3417	-0.0818	-0.3661	
-0.949892	0.100406	0.367952	117.46	-21.21	-38.15	0.3376	-0.0901	-0.3751	
-0.901824	0.139202	0.376492	122.22	-21.07	-42.98	0.3402	-0.0961	-0.3681	
-0.889624	0.168604	0.393572	120.75	-21.28	-49.07	0.3397	-0.118	-0.3603	
-0.89975	0.177632	0.40138	116.9	-20.86	-52.78	0.3459	-0.1295	-0.3713	
-0.903898	0.203496	0.427244	111.72	-20.65	-53.48	0.3253	-0.1329	-0.3705	
-0.881206	0.214842	0.43127	102.97	-19.18	-51.87	0.3351	-0.1482	-0.3614	
-0.903288	0.217892	0.409432	90.79	-16.73	-47.39	0.3329	-0.1539	-0.347	
-0.904386	0.241804	0.411262	83.86	-16.38	-41.16	0.3275	-0.1512	-0.3568	
-0.898896	0.258274	0.408578	77.84	-14.84	-33.95	0.3259	-0.1671	-0.356	
-0.91744	0.269254	0.41663	71.96	-13.86	-29.05	0.3311	-0.1679	-0.3417	
-0.893894	0.251686	0.410408	70.28	-8.61	-24.36	0.3287	-0.1748	-0.3535	
-0.893162	0.233264	0.410774	62.86	-11.27	-22.12	0.3212	-0.1811	-0.3506	
-0.893894	0.24583	0.4209	54.95	-11.34	-19.95	0.3369	-0.1854	-0.3427	
-0.866566	0.249246	0.444202	46.13	-12.32	-17.43	0.3339	-0.1917	-0.3428	
-0.871324	0.250466	0.445666	39.62	-8.54	-15.12	0.3322	-0.1946	-0.337	
-0.882426	0.25376	0.450058	33.6	-6.3	-14	0.3411	-0.2011	-0.3421	
-0.878522	0.23058	0.44469	27.72	-4.27	-12.04	0.3352	-0.2107	-0.3422	
-0.890478	0.222528	0.443958	22.47	-2.45	-10.71	0.3377	-0.2023	-0.3317	
-0.879498	0.210694	0.450302	17.29	-1.54	-9.52	0.3304	-0.2055	-0.3316	
-0.88145	0.199958	0.444568	14.84	-0.49	-8.82	0.3335	-0.2137	-0.3379	
-0.877546	0.182634	0.450302	12.11	0.56	-8.61	0.3277	-0.2106	-0.339	
-0.8845	0.148962	0.450058	9.59	1.33	-8.61	0.3292	-0.2027	-0.3387	
-0.893284	0.13603	0.44286	8.33	1.96	-9.31	0.3186	-0.2167	-0.3315	
-0.894504	0.127734	0.449204	8.33	1.61	-10.15	0.3339	-0.2158	-0.3482	
-0.895358	0.11346	0.448228	8.68	1.82	-10.57	0.3317	-0.2069	-0.3288	
-0.904386	0.13359	0.440542	8.82	1.33	-11.41	0.3378	-0.1944	-0.3329	
-0.904508	0.142252	0.43005	9.24	0.21	-10.99	0.3337	-0.1995	-0.3402	
-0.907924	0.136152	0.42883	9.52	-0.77	-9.66	0.3393	-0.2088	-0.335	
-0.903654	0.148474	0.427854	8.96	-1.05	-8.26	0.3402	-0.2177	-0.3238	
-0.90707	0.152744	0.424682	8.26	-1.89	-7.35	0.3364	-0.2072	-0.3348	
-0.901946	0.150548	0.43615	5.53	-2.31	-6.3	0.3348	-0.2055	-0.3318	
-0.894016	0.147254	0.444568	3.22	-1.61	-5.74	0.3286	-0.2084	-0.3258	
-0.894626	0.139324	0.446642	2.73	-0.63	-4.62	0.3436	-0.207	-0.3322	
-0.902678	0.122366	0.433222	3.36	0	-3.57	0.329	-0.2072	-0.333	
-0.896822	0.114924	0.436516	3.36	0.56	-2.66	0.3349	-0.2056	-0.3347	
-0.8845	0.12688	0.444568	2.24	0.91	-2.38	0.3376	-0.2133	-0.3308	
-0.884012	0.131638	0.440664	1.4	1.68	-1.82	0.3404	-0.2116	-0.3279	
-0.896944	0.139568	0.437248	1.54	1.82	-1.26	0.3537	-0.2084	-0.3298	
-0.914756	0.15006	0.42334	0.84	1.4	-0.42	0.3315	-0.2099	-0.3245	
-0.909388	0.162992	0.41419	-0.77	0.63	0.56	0.3376	-0.2053	-0.3289	
-0.917196	0.139202	0.414068	-2.52	0.21	1.89	0.3434	-0.2133	-0.331	
-0.91378	0.143716	0.424438	-5.67	-0.35	2.52	0.3435	-0.2085	-0.3308	
-0.905362	0.14701	0.430782	-7.35	-0.49	3.22	0.3348	-0.1927	-0.3297	
-0.907802	0.136396	0.433588	-8.05	-0.7	4.34	0.3408	-0.2072	-0.3365	
-0.904874	0.131272	0.429074	-8.68	-0.84	4.62	0.3404	-0.2148	-0.3295	
-0.891454	0.136762	0.436638	-9.94	-0.56	4.48	0.3376	-0.207	-0.3305	
-0.900604	0.137616	0.435174	-10.92	0.63	4.97	0.352	-0.2066	-0.3252	
-0.898042	0.139324	0.441518	-12.67	1.68	5.81	0.338	-0.209	-0.3393	
-0.893528	0.164944	0.438468	-15.75	3.15	7	0.3364	-0.1976	-0.3329	
-0.894748	0.182512	0.441152	-19.95	4.13	9.17	0.3334	-0.2072	-0.3347	
-0.8906	0.214476	0.442494	-27.44	4.55	11.9	0.3364	-0.1977	-0.3344	
-0.890966	0.221064	0.419558	-35.07	6.16	13.79	0.3433	-0.2004	-0.3261	
-0.885598	0.21655	0.419436	-41.65	7.49	15.54	0.3453	-0.2057	-0.338	
-0.901702	0.211182	0.422242	-49	9.8	17.64	0.3423	-0.1864	-0.3327	
-0.90219	0.234606	0.431758	-59.64	12.74	20.44	0.347	-0.1851	-0.3402	
-0.916098	0.237046	0.390888	-70.77	16.87	23.66	0.34	-0.1792	-0.3469	
-0.89609	0.197518	0.383568	-79.87	12.53	26.39	0.3371	-0.1792	-0.3468	
-0.884988	0.157258	0.4026	-79.87	13.02	27.51	0.3415	-0.1776	-0.3469	
-0.928176	0.173972	0.402478	-78.26	16.1	24.99	0.3286	-0.162	-0.35	
-0.948794	0.218014	0.398208	-84.84	17.71	23.03	0.3467	-0.1544	-0.3607	
-0.935984	0.229604	0.356972	-93.59	14.77	23.87	0.3613	-0.135	-0.3561	
-0.926712	0.188612	0.326472	-105.77	10.71	26.88	0.3451	-0.1255	-0.3536	
-0.922442	0.136152	0.350384	-99.33	8.47	27.65	0.3381	-0.1194	-0.3574	
-0.960506	0.123464	0.350994	-89.67	7.56	27.09	0.3441	-0.118	-0.362	
-1.00162	0.133956	0.346602	-86.66	6.51	29.54	0.3531	-0.0958	-0.3628	
-0.98698	0.137006	0.337574	-91.07	1.61	30.52	0.3441	-0.1068	-0.3585	
-0.932324	0.149328	0.34282	-91.84	-6.16	30.38	0.3367	-0.086	-0.3544	
-0.950868	0.113338	0.336842	-99.26	-7.28	37.1	0.3417	-0.0866	-0.3678	
-0.961116	0.056242	0.341112	-98.7	-8.33	45.01	0.343	-0.0752	-0.3615	
-0.970754	0.016348	0.334402	-98.07	-9.1	48.16	0.3349	-0.0648	-0.3753	
-0.953186	0.010736	0.345504	-99.26	-9.17	48.93	0.3333	-0.0518	-0.3689	
-0.929152	0.007198	0.373442	-104.72	-7.07	47.53	0.342	-0.0453	-0.366	
-0.920856	0.01769	0.380274	-109.13	-4.76	44.87	0.3213	-0.0389	-0.3605	
-0.925858	0.010736	0.40199	-111.79	-2.94	44.24	0.3353	-0.014	-0.3746	
-0.92415	-0.005124	0.41846	-112	-4.13	45.29	0.3406	-0.008599999	-0.36	
-0.909022	-0.028426	0.431026	-106.82	-7.49	48.16	0.3367	-0.0012	-0.3712	
-0.895236	-0.033794	0.420412	-102.13	-6.93	48.09	0.3429	0.0175	-0.3765	
-0.906948	-0.037698	0.448594	-104.23	-7.21	42.49	0.3368	0.0178	-0.3689	
-0.89609	-0.049044	0.45384	-94.78	-7.56	41.86	0.3295	0.0322	-0.3665	
-0.896822	-0.077714	0.45689	-92.47	-6.02	42.14	0.3406	0.0313	-0.3539	
-0.879254	-0.082106	0.445178	-88.27	-5.04	40.95	0.3308	0.0547	-0.3598	
-0.909022	-0.06039	0.443104	-84.35	-3.92	35.63	0.3292	0.0405	-0.3574	
-0.913658	-0.058682	0.441518	-80.22	-5.46	31.43	0.3425	0.0628	-0.357	
-0.913292	-0.071614	0.457378	-72.03	-6.51	30.31	0.3348	0.07759999	-0.3444	
-0.884378	-0.084546	0.478118	-68.18	-6.09	29.33	0.3374	0.07	-0.3725	
-0.895358	-0.106994	0.461038	-59.99	-5.11	28.84	0.3321	0.0805	-0.35	
-0.874618	-0.107848	0.482632	-53.34	-6.58	26.95	0.3303	0.0873	-0.3409	
-0.885598	-0.09333	0.468602	-47.11	-5.74	25.06	0.3376	0.0826	-0.3414	
-0.895724	-0.079544	0.476532	-41.65	-6.72	22.05	0.3218	0.1029	-0.3442	
-0.895602	-0.067222	0.483974	-37.8	-7.14	20.65	0.3453	0.09339999	-0.3485	
-0.894992	-0.050142	0.486292	-30.94	-7.21	18.27	0.3379	0.0966	-0.3466	
-0.871568	-0.019154	0.504348	-20.79	-5.11	15.4	0.3349	0.0983	-0.3435	
-0.86498	-0.021472	0.496174	-16.45	-2.94	15.82	0.3358	0.1069	-0.3286	
-0.85888	-0.018178	0.49532	-11.76	-1.26	15.12	0.3412	0.1027	-0.3523	
-0.860954	-0.01037	0.497516	-8.26	1.12	13.23	0.3347	0.1097	-0.3357	
-0.869372	0.001342	0.4941	-4.9	2.31	12.32	0.3449	0.1034	-0.3379	
-0.860832	0.02623	0.495564	-2.8	2.59	10.99	0.3439	0.1013	-0.3481	
-0.870348	0.04026	0.496174	-1.54	3.43	10.22	0.3377	0.1096	-0.3387	
-0.888282	0.045872	0.48434	-0.42	3.64	9.24	0.3438	0.1094	-0.3449	
-0.87291	0.057462	0.484584	0.14	3.29	8.4	0.345	0.0969	-0.3411	
-0.89365	0.06344	0.471652	0.7	3.15	7.28	0.3436	0.0937	-0.3426	
-0.88328	0.062708	0.476532	1.54	1.96	6.3	0.3408	0.0983	-0.3437	
-0.878644	0.05978	0.477386	2.1	1.68	6.23	0.3523	0.0938	-0.3415	
-0.873642	0.060146	0.481656	1.89	1.82	5.81	0.352	0.0957	-0.3341	
-0.884744	0.06588	0.471164	2.24	1.12	4.97	0.342	0.1018	-0.3378	
-0.890844	0.068442	0.461282	2.52	0.28	3.71	0.3419	0.1003	-0.3349	
-0.897554	0.077958	0.45872	3.36	-1.54	2.94	0.3409	0.1062	-0.3449	
-0.890966	0.079544	0.465796	3.57	-2.24	1.82	0.3393	0.08549999	-0.3472	
-0.88572	0.075518	0.481168	3.5	-1.47	0.77	0.3512	0.0966	-0.3486	
-0.888892	0.060268	0.476166	4.76	-0.84	-0.49	0.3481	0.092	-0.3458	
-0.879864	0.058072	0.472872	6.3	-1.05	-1.96	0.3406	0.0985	-0.3393	
-0.8784	0.059048	0.474336	7.77	-0.7	-3.43	0.3509	0.0825	-0.3449	
-0.870592	0.051362	0.48007	9.52	0.63	-4.69	0.3466	0.0856	-0.346	
-0.880962	0.041724	0.476288	11.69	1.54	-6.44	0.3435	0.0937	-0.3411	
-0.886818	0.040992	0.46299	14.7	1.96	-8.68	0.3452	0.0903	-0.3472	
-0.888404	0.033672	0.46482	17.64	1.75	-10.92	0.3377	0.0792	-0.3444	
-0.893406	0.02562	0.466772	20.86	2.52	-12.6	0.3481	0.09519999	-0.3442	
-0.881206	-0.012078	0.483974	26.25	2.94	-14.35	0.3476	0.0797	-0.3361	
-0.88816	-0.048678	0.493368	35.63	5.53	-17.36	0.3449	0.08109999	-0.3403	
-0.86681	-0.066368	0.485194	46.83	6.44	-21.21	0.3539	0.07449999	-0.3482	
-0.885476	-0.036112	0.471774	51.38	7.49	-25.41	0.3374	0.0779	-0.3386	
-0.899628	0.019276	0.463356	53.2	7.77	-29.61	0.3482	0.0806	-0.3507	
-0.888648	0.016348	0.463234	55.51	7.7	-33.04	0.3524	0.0729	-0.3468	
-0.907558	-0.029402	0.44896	64.4	10.71	-35.35	0.3363	0.0551	-0.3512	
-0.92537	-0.06222	0.409188	76.23	10.22	-37.1	0.3406	0.0649	-0.3466	
-0.925858	-0.02867	0.38369	81.2	7.21	-39.13	0.3436	0.052	-0.3517	
-0.941962	0.036356	0.37881	73.36	2.94	-41.44	0.3482	0.0343	-0.3585	
-0.952698	0.057218	0.384178	71.12	0.28	-44.24	0.3422	0.0391	-0.3551	
-0.960994	0.041236	0.394548	72.03	0.56	-43.89	0.3466	0.0439	-0.3551	
-0.940742	0.002684	0.393694	74.34	1.33	-39.55	0.3438	0.0358	-0.3582	
-0.942816	-0.03111	0.39345	79.17	2.38	-35.21	0.3391	0.0234	-0.3527	
-0.925126	-0.032452	0.385032	84.49	0.07	-33.74	0.3481	0.0216	-0.359	
-0.93513	-0.000244	0.369294	83.93	-1.19	-35.77	0.3408	0.0038	-0.3639	
-0.932202	0.050264	0.369782	79.17	-3.15	-38.99	0.3453	-0.0073	-0.3689	
-0.939156	0.127856	0.385276	71.05	-4.62	-40.74	0.3437	-0.0024	-0.3643	
-0.92415	0.140178	0.395402	62.02	-4.55	-36.75	0.3364	-0.0072	-0.3642	
-0.935984	0.07747	0.4026	59.57	-2.66	-29.61	0.3422	-0.0168	-0.3663	
-0.935496	0.039772	0.400404	64.4	-4.9	-24.57	0.3379	-0.0217	-0.3692	
-0.908412	0.078934	0.404918	68.04	-8.4	-22.82	0.3378	-0.0216	-0.3663	
-0.919392	0.145302	0.39955	52.85	-8.68	-23.73	0.3378	-0.0328	-0.3697	
-0.93147	0.150426	0.41114	43.47	-7.98	-21.35	0.3303	-0.0503	-0.3687	
-0.91805	0.111264	0.420656	43.33	-9.8	-16.17	0.3364	-0.0425	-0.373	
-0.909754	0.106994	0.404064	41.02	-10.92	-11.76	0.3319	-0.0439	-0.3685	
-0.923296	0.147498	0.396622	29.19	-12.46	-10.85	0.3305	-0.0537	-0.3732	
-0.906216	0.168726	0.433832	22.82	-14.56	-9.73	0.3291	-0.0553	-0.3747	
-0.919636	0.148596	0.41907	20.02	-14.21	-4.62	0.3322	-0.0603	-0.3809	
-0.94184	0.14884	0.388936	10.99	-14.49	-0.91	0.3246	-0.0568	-0.3716	
-0.898652	0.1647	0.449692	8.33	-16.38	0.07	0.3131	-0.0635	-0.3773	
-0.898408	0.162748	0.434686	4.76	-17.01	0.7	0.316	-0.0539	-0.3755	
-0.879132	0.192272	0.465552	-1.89	-19.11	2.94	0.3185	-0.0646	-0.3673	
-0.862052	0.203008	0.488366	-8.89	-17.64	6.65	0.3145	-0.0715	-0.3791	
-0.85095	0.21411	0.507276	-13.72	-16.66	10.36	0.3191	-0.0669	-0.382	
-0.845094	0.18727	0.52338	-12.11	-14.28	14.35	0.318	-0.0609	-0.3905	
-0.829112	0.158966	0.546194	-13.86	-9.73	16.66	0.3087	-0.0716	-0.3803	
-0.822768	0.12017	0.55022	-16.66	-4.41	17.5	0.3107	-0.069	-0.392	
-0.825818	0.088938	0.552538	-16.38	-0.77	18.27	0.3119	-0.0526	-0.3811	
-0.822158	0.082106	0.549244	-15.19	0.84	17.43	0.306	-0.0671	-0.3844	
-0.825696	0.093208	0.548146	-16.59	2.31	15.75	0.3049	-0.0578	-0.3898	
-0.835334	0.100284	0.540948	-18.34	4.13	13.79	0.3046	-0.0527	-0.3823	
-0.845094	0.105164	0.529968	-17.29	5.25	11.69	0.3	-0.0685	-0.3798	
-0.848632	0.111508	0.5307	-18.69	5.46	9.1	0.3092	-0.0609	-0.3886	
-0.851072	0.105164	0.533262	-18.69	7.49	7.07	0.2987	-0.056	-0.3822	
-0.858026	0.114924	0.528016	-17.92	9.38	5.32	0.3106	-0.0544	-0.3855	
-0.858148	0.115778	0.511302	-18.13	10.64	3.85	0.3078	-0.053	-0.3882	
-0.851682	0.11895	0.513864	-18.48	12.32	2.8	0.3022	-0.0469	-0.3936	
-0.84851	0.125172	0.513986	-17.78	14.63	2.31	0.3191	-0.0493	-0.3798	
-0.869494	0.11712	0.50325	-15.68	16.45	1.47	0.3277	-0.0522	-0.3745	
-0.869982	0.104798	0.487024	-12.53	16.38	0.77	0.3148	-0.0446	-0.3794	
-0.878766	0.087108	0.47092	-10.99	17.43	1.19	0.322	-0.0429	-0.3782	
-0.890966	0.077348	0.457744	-12.18	16.31	2.31	0.3322	-0.0411	-0.3771	
-0.902068	0.055998	0.43615	-16.8	14.77	2.31	0.3337	-0.0299	-0.3738	
-0.907802	0.021106	0.418948	-17.15	11.97	2.73	0.3219	-0.0363	-0.3735	
-0.91317	0.005002	0.41663	-16.31	9.87	2.45	0.3276	-0.02	-0.3658	
-0.926712	0.009516	0.421266	-13.72	7.35	2.31	0.3338	-0.0188	-0.3748	
-0.92354	0.022326	0.41785	-11.2	3.01	2.24	0.3277	-0.0298	-0.3706	
-0.91805	0.02928	0.432002	-9.31	0.07	1.61	0.3303	-0.0342	-0.3636	
-0.91561	0.035624	0.440054	-5.88	-1.61	0.28	0.3279	-0.0284	-0.3749	
-0.91683	0.03782	0.440054	-3.99	-3.15	-0.91	0.3323	-0.0284	-0.3751	
-0.907314	0.04636	0.445544	-2.1	-3.85	-2.45	0.3338	-0.0237	-0.3764	
-0.902922	0.045506	0.45506	-0.07	-3.92	-3.85	0.319	-0.0172	-0.3711	
-0.89975	0.042578	0.457012	3.78	-3.5	-4.97	0.3307	-0.0283	-0.3736	
-0.891576	0.03721	0.45811	6.86	-2.8	-6.23	0.3351	-0.0219	-0.372	
-0.888038	0.035258	0.459086	7.84	-2.24	-7.35	0.3288	-0.0278	-0.3633	
-0.890966	0.038796	0.457378	8.26	-1.89	-8.33	0.338	-0.0138	-0.3703	
-0.894626	0.042456	0.45933	7.49	-1.4	-8.61	0.3241	-0.0259	-0.3892	
-0.89731	0.042212	0.460184	6.58	-1.19	-7.84	0.3295	-0.011	-0.3757	
-0.892796	0.04575	0.456768	5.81	-1.26	-7	0.3395	-0.0267	-0.3739	
-0.89304	0.047092	0.457378	5.18	-1.12	-6.02	0.3279	-0.0316	-0.3751	
-0.893162	0.042212	0.4575	4.76	-1.26	-4.27	0.3328	-0.0177	-0.3849	
-0.8906	0.043432	0.459574	4.06	-0.28	-2.94	0.3308	-0.022	-0.3733	
-0.894138	0.045384	0.46482	2.31	0.49	-1.61	0.3325	-0.0318	-0.3811	
-0.893772	0.041724	0.46421	2.24	0.56	-0.77	0.3304	-0.028	-0.3662	
-0.896334	0.04331	0.453474	2.94	0.63	-0.56	0.3414	-0.0271	-0.3827	
-0.898164	0.047458	0.452132	3.08	1.19	0	0.3282	-0.0271	-0.3822	
-0.898286	0.051972	0.449448	2.87	1.26	0.35	0.3251	-0.0238	-0.3775	
-0.898774	0.052216	0.443714	2.38	0.28	0.28	0.3292	-0.0314	-0.3722	
-0.899384	0.050142	0.44164	2.66	-0.35	-0.14	0.3308	-0.022	-0.3733	
-0.904996	0.048922	0.440542	2.38	-0.98	-0.49	0.3189	-0.0283	-0.3701	
-0.901702	0.052704	0.442982	1.75	-1.05	-0.84	0.3244	-0.0198	-0.3598	
-0.899506	0.05795	0.450668	0.49	-0.98	-0.84	0.3334	-0.0168	-0.3659	
-0.90463	0.05673	0.445544	-0.56	-0.98	-0.35	0.3306	-0.0217	-0.3689	
-0.905972	0.055876	0.450546	-1.05	-1.19	-0.21	0.3297	-0.0288	-0.3838	
-0.903166	0.055754	0.456402	-1.47	-1.19	0.56	0.3279	-0.0172	-0.373	
-0.89792	0.054168	0.459208	-0.7	-0.98	1.61	0.3263	-0.0379	-0.3738	
-0.892064	0.05673	0.457744	-0.42	-0.56	2.31	0.3305	-0.0441	-0.3713	
-0.890844	0.058804	0.456158	-0.98	-0.63	2.59	0.3337	-0.0331	-0.3754	
-0.88755	0.059658	0.45933	-0.84	-0.28	2.87	0.3308	-0.0331	-0.3752	
-0.888404	0.05978	0.463722	-0.7	0.28	2.73	0.3306	-0.0281	-0.3692	
-0.889746	0.063806	0.464454	-0.63	0.56	2.38	0.3354	-0.0238	-0.3794	
-0.887062	0.06466	0.465064	-0.14	0.56	1.75	0.3426	-0.0284	-0.377	
-0.88938	0.063196	0.460916	1.05	0.63	1.26	0.3307	-0.0283	-0.3736	
-0.89731	0.062952	0.45689	1.61	0.63	0.91	0.3297	-0.0351	-0.384	
-0.898042	0.062952	0.453108	1.96	0	0.56	0.3322	-0.0299	-0.3737	
-0.895724	0.063318	0.452498	1.05	-0.14	0.21	0.3217	-0.0217	-0.3656	
-0.899262	0.066368	0.453474	0.42	0.07	-0.21	0.3295	-0.0285	-0.3779	
-0.898042	0.064538	0.455426	0.14	-0.14	-0.49	0.3323	-0.0348	-0.3768	
-0.894626	0.061488	0.45262	0.07	-0.14	-0.35	0.3189	-0.0314	-0.3703	
-0.89609	0.060756	0.451522	-0.84	0.07	-0.14	0.3368	-0.0317	-0.3798	
-0.895724	0.056974	0.453352	-1.12	0	0.28	0.3249	-0.0203	-0.3715	
-0.895602	0.05307	0.454084	-1.33	0.07	0.49	0.3362	-0.039	-0.3655	
-0.896456	0.055632	0.453474	-2.17	0.35	0.49	0.3319	-0.0295	-0.3664	
-0.89853	0.052216	0.451522	-2.24	0.42	0.7	0.3266	-0.0223	-0.379	
-0.898286	0.052826	0.450668	-2.17	0.21	0.7	0.3306	-0.0329	-0.3708	
-0.897676	0.05307	0.45262	-1.47	0.21	0.42	0.3217	-0.0457	-0.371	
-0.902922	0.05185	0.452376	-1.33	0	0.49	0.3294	-0.0333	-0.3781	
-0.898286	0.05185	0.45079	-0.56	-0.49	0.35	0.3322	-0.0283	-0.3736	
-0.89792	0.05368	0.450912	-0.07	-0.56	0.07	0.3312	-0.0112	-0.3802	
-0.900238	0.054778	0.45018	0	-0.35	0.07	0.3273	-0.0262	-0.3617	
-0.90219	0.053192	0.451766	0.49	-0.49	0.21	0.332	-0.0329	-0.3709	
-0.898408	0.055388	0.452742	1.4	-0.7	0	0.3307	-0.0299	-0.3736	
-0.897554	0.057828	0.451888	1.82	-0.63	-0.14	0.3247	-0.025	-0.3688	
-0.89426	0.055266	0.451522	1.96	-0.42	-0.21	0.3269	-0.0241	-0.3849	
-0.899384	0.056608	0.449082	2.8	-0.28	-0.42	0.3278	-0.0315	-0.3736	
-0.898652	0.061366	0.45018	2.17	-0.7	-0.77	0.319	-0.0347	-0.3733	
-0.900482	0.05978	0.449692	1.96	-0.56	-0.91	0.3306	-0.033	-0.3723	
-0.90341	0.058072	0.449936	1.75	-0.84	-0.98	0.3277	-0.0299	-0.3721	
-0.89914	0.055876	0.450424	1.33	-1.54	-0.56	0.3304	-0.0248	-0.3661	
-0.899262	0.054046	0.450546	1.05	-1.82	-0.28	0.3277	-0.0346	-0.3723	
-0.899628	0.054168	0.450668	1.26	-1.96	-0.42	0.3264	-0.0252	-0.3747	
-0.8967	0.055144	0.451766	1.05	-2.31	-0.7	0.3307	-0.0394	-0.374	
-0.897432	0.059536	0.45628	0.91	-2.66	-0.91	0.3349	-0.0376	-0.3698	
-0.894992	0.061366	0.45506	0.42	-3.08	-1.05	0.3205	-0.0204	-0.3728	
-0.897798	0.059292	0.455792	0.84	-3.71	-1.05	0.3233	-0.033	-0.3705	
-0.892064	0.058438	0.460672	0.84	-3.64	-0.77	0.325	-0.0348	-0.3765	
-0.892064	0.061122	0.46421	0.77	-2.94	-0.42	0.3309	-0.0253	-0.3764	
-0.891332	0.062098	0.465552	1.12	-2.52	-0.14	0.3247	-0.033	-0.3706	
-0.888038	0.05978	0.465186	0.98	-2.1	0.56	0.3162	-0.0301	-0.376	
-0.890112	0.058804	0.463234	0.98	-2.1	1.19	0.329	-0.0472	-0.3714	
-0.886452	0.05856	0.464088	0.49	-2.1	1.33	0.3292	-0.0251	-0.3719	
-0.891454	0.062708	0.463356	0.7	-1.82	1.4	0.3225	-0.0273	-0.3849	
-0.888526	0.066124	0.463966	0	-2.17	1.61	0.3375	-0.0372	-0.3961	
-0.888038	0.062586	0.46726	0	-2.31	1.82	0.3294	-0.0237	-0.3762	
-0.886452	0.063318	0.467626	-0.35	-2.24	1.68	0.3263	-0.0379	-0.3738	
-0.887428	0.062952	0.467504	-0.49	-2.17	1.47	0.3209	-0.032	-0.3835	
-0.892064	0.066856	0.468358	-1.33	-1.89	1.4	0.3207	-0.0302	-0.3776	
-0.886696	0.067832	0.470676	-1.33	-1.61	1.4	0.319	-0.038	-0.3749	
-0.887428	0.068076	0.471774	-1.54	-1.12	1.4	0.3146	-0.0268	-0.3728	
-0.884012	0.0671	0.467626	-0.98	-0.91	1.54	0.3309	-0.0285	-0.378	
-0.886818	0.067954	0.466894	-1.05	-0.84	1.47	0.3178	-0.0319	-0.379	
-0.886208	0.063806	0.470432	-0.77	-0.77	1.54	0.3264	-0.0364	-0.3752	
-0.889014	0.063318	0.467626	-0.98	-0.63	1.33	0.3165	-0.0384	-0.3836	
-0.88877	0.066124	0.46909	-0.98	-0.49	0.98	0.3312	-0.0385	-0.3872	
-0.887184	0.06588	0.470432	-1.12	-0.28	0.98	0.3162	-0.0349	-0.3762	