Sensor string: E
Serial number: 1970-01-0000
Firmware version: 2,015
Hardware version: 2,2
Calibration quality: 5
ax	ay	az	gx	gy	gz	mx	my	mz

-1.012112	0.105042	0.01647	0.98	0.21	-0.07	0.3667	-0.0849	-0.2116	Reference
-1.009672	0.103944	0.014274	0.7	-0.63	-0.14	0.3734	-0.0806	-0.2111	
-1.009794	0.103334	0.013298	1.05	-0.63	-0.28	0.3621	-0.0736	-0.2083	
-1.007598	0.105896	0.012688	0.98	0	-0.49	0.3628	-0.0845	-0.2055	
-1.008208	0.108824	0.011834	1.05	0.28	-0.56	0.3766	-0.0869	-0.208	
-1.008208	0.110654	0.01281	0.91	0.28	-0.35	0.3668	-0.0832	-0.2068	
-1.009184	0.107848	0.0061	0.07	-0.7	-0.21	0.3652	-0.08329999	-0.2116	
-1.0065	0.10675	0.010492	-0.63	0.14	-0.14	0.3662	-0.0755	-0.2113	
-1.010038	0.107116	0.010492	-0.07	0.49	-0.07	0.3703	-0.0742	-0.211	
-1.014186	0.103578	0.013298	-0.21	0.28	-0.28	0.3759	-0.0793	-0.214	
-1.009672	0.102846	0.017324	0.56	0.7	-0.07	0.3653	-0.0751	-0.2019	
-1.012356	0.102724	0.015738	0	-0.49	0.07	0.3641	-0.0749	-0.1972	
-1.01016	0.106018	0.017324	0.35	-0.56	0.14	0.3655	-0.0766	-0.1988	
-1.01138	0.102968	0.018666	0.91	-0.14	0.07	0.3584	-0.0844	-0.2104	
-1.012844	0.10248	0.01647	0.28	-0.49	0.07	0.3555	-0.0795	-0.2088	
-1.011502	0.103212	0.017812	0.21	0.07	0	0.3611	-0.0797	-0.207	
-1.008818	0.106628	0.013786	-0.42	-1.12	0	0.3648	-0.0803	-0.2178	
-1.009184	0.104798	0.013176	0.28	-0.42	0.28	0.3544	-0.0841	-0.2075	
-1.009794	0.10187	0.015372	-0.21	-0.28	0.14	0.3612	-0.0813	-0.207	
-1.019554	0.101504	0.014518	0.21	-0.07	-0.42	0.3607	-0.08329999	-0.2197	
-1.009306	0.103212	0.012932	0.91	0	-0.07	0.3609	-0.0734	-0.2036	
-1.006866	0.10431	0.015738	0.49	0	0.28	0.3609	-0.0783	-0.2101	
-1.007476	0.10431	0.014762	-0.21	0.35	0.28	0.3635	-0.0753	-0.2098	
-1.00894	0.103212	0.01586	-0.07	0.49	0.21	0.3552	-0.0764	-0.2119	
-1.023702	0.105164	0.01647	0.21	-0.35	0.28	0.364	-0.0799	-0.2052	
-1.012234	0.104554	0.017568	0.21	-0.63	0.35	0.3639	-0.08639999	-0.2133	
-1.01321	0.102846	0.012688	0.98	-0.35	0.21	0.3581	-0.0797	-0.2118	
-1.012478	0.106506	0.015494	0.98	-0.28	0.21	0.3595	-0.0782	-0.2101	
-1.009672	0.108824	0.015372	1.05	-0.21	0.28	0.3593	-0.07669999	-0.2133	
-1.005158	0.10919	0.013054	0.56	-0.28	0.42	0.3609	-0.0783	-0.2101	
-1.024556	0.106018	0.015128	0.21	-0.35	0.21	0.3719	-0.079	-0.2127	
-1.009428	0.106506	0.016104	-0.21	0	0.35	0.3618	-0.077	-0.2179	
-1.009672	0.103334	0.01159	-0.49	-0.49	0.35	0.3625	-0.0863	-0.2134	
-1.009794	0.10736	0.010614	-0.14	0.07	0.42	0.3578	-0.0784	-0.2181	
-1.014186	0.100772	0.015982	-1.68	-0.49	0.35	0.3665	-0.0802	-0.2098	
-1.012356	0.10126	0.014274	-0.63	-0.35	0.28	0.3603	-0.07539999	-0.2195	
-1.013698	0.100162	0.015494	0	-0.07	0.28	0.3581	-0.0765	-0.2086	
-1.011868	0.099186	0.014152	-0.07	-0.7	0.49	0.3527	-0.0777	-0.2073	
-1.01199	0.09942999	0.016592	0.28	-0.21	0.7	0.3706	-0.0821	-0.2144	
-1.011746	0.099918	0.016104	0.77	0	0.63	0.3611	-0.0797	-0.207	
-1.010526	0.10431	0.01647	0.91	0	0.56	0.3605	-0.0769	-0.2163	
-1.011014	0.10858	0.01586	1.05	-0.07	0.49	0.3653	-0.0784	-0.2051	
-1.008086	0.111752	0.015128	1.4	-1.05	0.56	0.3628	-0.0693	-0.2175	
-1.002352	0.108458	0.016592	-0.7	-1.26	0.14	0.3591	-0.0768	-0.2164	
-1.011014	0.10797	0.013786	0.63	-0.77	0.49	0.3635	-0.0818	-0.2163	
-1.012356	0.105774	0.016714	0.63	-0.63	0.49	0.3669	-0.0848	-0.2068	
-1.011624	0.105042	0.018422	0.49	-0.07	0.35	0.3634	-0.0835	-0.2211	
-1.009184	0.106628	0.015982	0.84	0.42	0.28	0.3636	-0.0866	-0.2197	
-1.010282	0.1037	0.014396	1.05	0.21	0.28	0.3509	-0.0795	-0.2185	
-1.008574	0.104554	0.01708	0.77	0.14	0.21	0.3666	-0.0882	-0.218	
-1.010404	0.10858	0.01708	0.77	0.14	0.21	0.3628	-0.0845	-0.2055	
-1.010648	0.111386	0.017446	0.56	0.07	0.07	0.3609	-0.0783	-0.2101	
-1.011746	0.113826	0.019276	0.49	-0.49	0.07	0.376	-0.076	-0.2092	
-1.010038	0.11285	0.01769	0.14	-0.77	0.07	0.3708	-0.0819	-0.2081	
-1.01016	0.111386	0.017812	-0.14	-0.35	0	0.3686	-0.0759	-0.219	
-1.00955	0.10797	0.016714	-0.28	0.21	-0.07	0.3615	-0.0756	-0.2225	
-1.010404	0.104554	0.017324	-0.21	0.35	-0.14	0.3624	-0.0815	-0.2101	
-1.011624	0.102846	0.018788	-0.14	0.35	-0.14	0.362	-0.0737	-0.2114	
-1.010648	0.101626	0.017446	0.14	0	-0.21	0.3706	-0.0821	-0.2128	
-1.009916	0.101138	0.015616	0.28	-0.35	-0.21	0.3592	-0.08	-0.2181	
-1.010038	0.103822	0.01769	1.19	-0.28	-0.21	0.3665	-0.0866	-0.2164	
-1.011746	0.104432	0.019886	1.19	-0.14	-0.21	0.3638	-0.0783	-0.2068	
-1.009184	0.108824	0.014884	1.05	0.14	-0.21	0.3655	-0.0863	-0.2085	
-1.008452	0.10553	0.019154	0.84	0.21	0.07	0.3697	-0.0817	-0.2034	
-1.01199	0.103334	0.017934	0.49	0.14	0.21	0.3648	-0.0755	-0.2129	
-1.014552	0.103212	0.017202	1.19	0.14	-0.07	0.367	-0.0814	-0.2004	
-1.009794	0.104066	0.016592	1.68	0	-0.14	0.3618	-0.0874	-0.2009	
-1.006256	0.10614	0.019032	1.05	-0.14	0	0.3597	-0.0845	-0.2119	
-1.006622	0.108458	0.019642	1.33	0.21	-0.07	0.3625	-0.0879	-0.215	
-1.008208	0.109922	0.021228	0.98	0.28	-0.28	0.3711	-0.0801	-0.2001	
-1.008696	0.109556	0.020496	0.91	0.77	-0.21	0.3637	-0.0784	-0.2084	
-1.00955	0.106018	0.020252	0.63	0.98	0	0.3615	-0.0708	-0.2177	
-1.011502	0.10553	0.021472	0.7	1.47	0.07	0.3637	-0.0816	-0.2116	
-1.012478	0.106506	0.019764	0.7	1.33	0	0.3644	-0.0806	-0.2257	
-1.011014	0.105652	0.020862	0.84	0.7	-0.07	0.3593	-0.07669999	-0.2117	
-1.011136	0.104676	0.016104	1.05	0.49	-0.07	0.3691	-0.0821	-0.2161	
-1.008818	0.104798	0.015372	0.91	0.28	-0.14	0.3653	-0.08	-0.2067	
-1.006256	0.105896	0.015372	1.05	0.21	-0.21	0.3595	-0.0879	-0.2199	
-1.007354	0.105896	0.015372	0.77	1.4	0.07	0.3637	-0.08	-0.21	
-1.006622	0.105896	0.014152	0.49	1.47	-0.07	0.3635	-0.0851	-0.2212	
-1.012844	0.106872	0.016226	-0.35	1.89	-0.35	0.368	-0.085	-0.2131	
-1.014064	0.104554	0.01525	0	1.4	-0.49	0.3675	-0.0741	-0.2127	
-1.011624	0.105042	0.011346	0.7	1.19	-0.63	0.3678	-0.0852	-0.2178	
-1.012478	0.103944	0.006344	1.05	1.33	-0.63	0.3582	-0.0878	-0.2184	
-1.015162	0.105652	0.007198	0.35	1.05	-0.84	0.365	-0.0769	-0.2098	
-1.011746	0.107238	0.005368	0.07	0.77	-0.84	0.365	-0.0786	-0.2114	
-1.012356	0.101748	0.003294	-0.63	0.56	-0.63	0.362	-0.0802	-0.218	
-1.013332	0.100406	-0.001952	-0.14	0	-0.49	0.3618	-0.0706	-0.2113	
-1.016138	0.099674	-0.000122	0.07	-0.21	0.14	0.3662	-0.069	-0.2047	
-1.01382	0.09747799	0.00366	0.21	-0.28	0.42	0.3632	-0.0739	-0.2145	
-1.010282	0.093452	0.004148	0.49	0.07	0.49	0.3652	-0.0752	-0.2034	
-1.011624	0.097966	0.004392	1.75	0.28	0.63	0.368	-0.0786	-0.2066	
-1.012722	0.101626	0.002074	1.96	-0.49	0.42	0.3678	-0.0771	-0.2081	
-1.014796	0.109068	-0.005124	1.61	-0.77	0.21	0.3683	-0.0865	-0.2084	
-1.026508	0.109922	0.000488	1.05	-0.21	0	0.3707	-0.08199999	-0.2113	
-1.020652	0.108824	0.00366	0.49	-1.12	0	0.3694	-0.077	-0.2049	
-1.011502	0.102358	-0.002074	0.42	-2.1	0.42	0.3625	-0.075	-0.202	
-1.014674	0.10065	-0.017202	0.49	-4.41	0.49	0.3653	-0.0751	-0.2003	
-1.021872	0.096868	-0.04026	0.35	-5.88	0.63	0.3637	-0.0752	-0.2051	
-1.031754	0.096868	-0.049654	0.42	-7.91	0.84	0.3649	-0.0786	-0.213	
-1.057984	0.10492	-0.033794	-0.07	-7.28	1.12	0.3555	-0.0779	-0.2072	
-1.05774	0.100772	-0.02989	0.56	-9.24	1.75	0.3635	-0.0737	-0.2082	
-1.046272	0.101748	-0.02196	-0.14	-11.97	2.03	0.365	-0.0834	-0.2163	
-1.037366	0.100528	-0.011346	0.21	-13.02	2.24	0.3501	-0.0639	-0.218	
-1.044564	0.100772	-0.00732	0.35	-15.61	2.73	0.3591	-0.0817	-0.2229	
-1.051884	0.101138	-0.010004	0.49	-18.27	2.87	0.3591	-0.0785	-0.2196	
-1.047614	0.104188	-0.02013	0.21	-22.96	3.36	0.3583	-0.091	-0.2201	
-1.053348	0.10858	-0.030256	-0.35	-30.66	3.85	0.352	-0.0895	-0.2345	
-1.064938	0.1159	-0.014518	-2.94	-37.94	4.76	0.3487	-0.08329999	-0.2408	
-1.061888	0.12749	0.00549	-4.13	-41.3	4.48	0.3459	-0.0815	-0.2393	
-1.044076	0.111874	0.021472	-3.5	-46.55	5.39	0.3404	-0.0925	-0.251	
-1.047736	0.103334	0.015372	-3.64	-47.32	5.46	0.3368	-0.0799	-0.2539	
-1.031998	0.099918	0.029768	-4.2	-49.21	5.74	0.3314	-0.086	-0.2576	
-1.043222	0.099308	0.04636	-3.57	-55.72	6.16	0.3304	-0.0802	-0.2732	
-1.022848	0.117974	0.094916	-5.53	-62.23	7	0.3249	-0.0815	-0.2735	
-0.99979	0.102114	0.114314	-5.67	-70.84	8.26	0.3244	-0.0786	-0.2813	
-0.96807	0.108336	0.132126	-4.83	-66.85	8.61	0.3143	-0.088	-0.3011	
-0.986858	0.149938	0.165554	-5.32	-73.01	9.1	0.3014	-0.0844	-0.3079	
-0.972218	0.132248	0.177266	-6.44	-82.6	9.52	0.2944	-0.084	-0.3083	
-0.979416	0.14335	0.271084	-10.85	-106.96	13.37	0.2925	-0.0891	-0.3243	
-0.97539	0.162382	0.266448	-7.63	-86.45	12.6	0.2696	-0.0787	-0.3315	
-0.944036	0.148474	0.28548	-18.69	-88.9	11.55	0.2764	-0.0888	-0.344	
-0.920368	0.13237	0.310246	-18.76	-93.45	12.11	0.2527	-0.0876	-0.3468	
-0.870714	0.12383	0.347822	-17.92	-92.89	12.67	0.2448	-0.07979999	-0.3612	
-0.846924	0.122	0.39467	-15.05	-93.24	13.02	0.2173	-0.0742	-0.3813	
-0.850828	0.127978	0.457012	-12.39	-87.78	12.95	0.2021	-0.0781	-0.3854	
-0.835822	0.126392	0.496662	-11.27	-87.57	13.3	0.1934	-0.0844	-0.4003	
-0.811788	0.118706	0.514352	-8.61	-88.27	12.25	0.1818	-0.0744	-0.4021	
-0.770918	0.131882	0.547658	-7.42	-83.93	11.41	0.1735	-0.0819	-0.4091	
-0.736026	0.132858	0.57828	-7.77	-80.71	11.41	0.1596	-0.0747	-0.4049	
-0.716262	0.139446	0.600728	-8.26	-80.43	12.25	0.1393	-0.0693	-0.4184	
-0.698328	0.139324	0.62281	-7.56	-77.21	12.32	0.1424	-0.0741	-0.4168	
-0.68137	0.131394	0.665022	-7.07	-69.72	10.43	0.1277	-0.0739	-0.4349	
-0.668072	0.120536	0.695278	-7.21	-67.13	9.31	0.1114	-0.076	-0.4327	
-0.650138	0.117974	0.725656	-6.65	-64.96	8.68	0.1012	-0.0822	-0.4492	
-0.618052	0.127246	0.746396	-4.76	-62.44	7.91	0.0924	-0.0724	-0.4509	
-0.6039	0.12627	0.761768	-5.11	-59.22	7.35	0.0848	-0.0692	-0.4622	
-0.588772	0.133468	0.777872	-4.62	-55.3	6.44	0.0821	-0.0706	-0.4608	
-0.576938	0.138348	0.787266	-3.08	-50.89	5.46	0.0601	-0.0756	-0.4638	
-0.57279	0.14152	0.799954	-3.78	-47.11	5.53	0.0559	-0.0722	-0.4623	
-0.565104	0.14274	0.81374	-4.34	-43.33	5.32	0.0582	-0.07099999	-0.47	
-0.566568	0.149206	0.816546	-2.73	-40.88	4.62	0.0445	-0.0685	-0.4659	
-0.551196	0.141154	0.814838	-4.34	-38.43	4.83	0.053	-0.0689	-0.4624	
-0.54534	0.142008	0.81984	-3.29	-34.93	3.99	0.035	-0.0743	-0.4682	
-0.540216	0.142374	0.835456	-2.73	-32.27	3.36	0.0277	-0.0693	-0.4716	
-0.540704	0.13786	0.842776	-2.1	-29.47	2.8	0.0179	-0.072	-0.4769	
-0.538996	0.147986	0.84302	-0.98	-26.81	2.8	0.0292	-0.0709	-0.47	
-0.530212	0.149328	0.849364	-1.12	-23.87	2.73	0.0163	-0.0656	-0.4736	
-0.515816	0.151768	0.85156	-0.28	-22.12	2.52	0.0066	-0.0683	-0.4774	
-0.50508	0.15616	0.860466	0.14	-19.46	2.38	0.0075	-0.0758	-0.4666	
-0.506666	0.158722	0.863028	0.35	-14.21	1.82	0.0126	-0.0683	-0.4692	
-0.49959	0.159942	0.87108	0.14	-11.9	1.68	0.0077	-0.0686	-0.4852	
-0.493856	0.153842	0.875716	-0.56	-9.38	1.47	0.009699999	-0.0731	-0.4774	
-0.492148	0.144692	0.8845	-0.63	-7.42	1.82	0.004	-0.0583	-0.4646	
-0.486902	0.1403	0.891576	1.4	-4.48	1.61	0.0088	-0.0743	-0.4665	
-0.477874	0.145668	0.898408	2.17	-1.4	1.54	-0.0025	-0.0706	-0.4701	
-0.470188	0.152744	0.90036	3.57	1.82	0.77	-0.0011	-0.0691	-0.4684	
-0.466406	0.15982	0.899262	3.71	5.67	0.14	0.0012	-0.063	-0.4696	
-0.46238	0.157136	0.902678	2.17	9.73	0.07	0.0016	-0.066	-0.465	
-0.460916	0.153842	0.902556	3.15	13.51	-1.05	0.004	-0.0615	-0.4679	
-0.462502	0.147376	0.903166	3.5	17.64	-2.17	0.0062	-0.0692	-0.4586	
-0.465796	0.146156	0.901092	4.34	22.4	-3.22	0.0101	-0.0679	-0.4615	
-0.470188	0.144448	0.89609	3.99	27.44	-3.57	0.0082	-0.065	-0.4693	
-0.47275	0.143716	0.888648	4.2	31.99	-3.99	0.0145	-0.0794	-0.4695	
-0.488976	0.147864	0.878766	5.46	36.75	-5.11	0.0148	-0.0591	-0.4704	
-0.49898	0.156282	0.870958	6.37	41.93	-6.3	0.021	-0.0785	-0.477	
-0.511058	0.155306	0.854732	6.44	46.76	-7.56	0.0276	-0.0629	-0.4666	
-0.51545	0.146644	0.844362	5.39	52.78	-8.68	0.0396	-0.0824	-0.4683	
-0.551318	0.145424	0.810934	7.42	60.2	-9.24	0.0517	-0.0752	-0.4674	
-0.56608	0.14823	0.790316	8.68	65.31	-11.13	0.0637	-0.0801	-0.4527	
-0.58804	0.14945	0.763476	8.4	68.88	-12.32	0.0702	-0.076	-0.457	
-0.606462	0.14213	0.745054	8.47	73.78	-12.95	0.0859	-0.0814	-0.4516	
-0.621834	0.142862	0.720288	8.68	77.35	-13.16	0.0898	-0.0802	-0.4545	
-0.638182	0.13786	0.690764	9.45	80.22	-13.23	0.1091	-0.0749	-0.4501	
-0.664168	0.133834	0.664168	8.96	83.44	-13.3	0.1156	-0.081	-0.4358	
-0.682468	0.131272	0.631838	7.7	86.38	-13.72	0.1254	-0.0815	-0.4337	
-0.707356	0.142374	0.602924	8.33	87.99	-14.21	0.1423	-0.0807	-0.4265	
-0.70333	0.134566	0.574498	6.3	94.22	-15.26	0.1592	-0.09119999	-0.4307	
-0.731756	0.141032	0.538264	9.45	95.48	-15.12	0.1641	-0.08769999	-0.4114	
-0.748958	0.132614	0.511668	8.4	100.1	-15.4	0.1779	-0.0869	-0.4091	
-0.772626	0.123586	0.479582	7.42	101.08	-15.19	0.191	-0.0904	-0.399	
-0.798978	0.11956	0.445788	7.56	102.34	-14.63	0.2098	-0.0909	-0.3823	
-0.820206	0.10858	0.413824	9.45	103.46	-14	0.2232	-0.0872	-0.3862	
-0.830332	0.113094	0.382592	15.33	106.47	-13.72	0.2362	-0.0859	-0.3729	
-0.84241	0.10797	0.350384	9.52	103.74	-13.79	0.2491	-0.0766	-0.353	
-0.854854	0.102724	0.308294	9.1	104.58	-13.58	0.2621	-0.0835	-0.3493	
-0.872666	0.110166	0.24095	8.12	103.95	-13.93	0.2846	-0.0835	-0.3119	
-0.891088	0.103456	0.209962	6.86	108.85	-13.86	0.3014	-0.0876	-0.3112	
-0.908046	0.102724	0.171898	5.95	108.43	-12.81	0.301	-0.0836	-0.2859	
-0.90158	0.098454	0.13115	5.95	110.67	-12.53	0.3232	-0.0784	-0.2782	
-0.905118	0.087596	0.077714	5.53	112.14	-12.25	0.3348	-0.0787	-0.2666	
-0.895358	0.085278	0.034526	6.02	113.82	-13.23	0.3435	-0.0708	-0.2485	
-0.910364	0.079788	-0.021838	8.54	112.42	-12.6	0.352	-0.0896	-0.2361	
-0.92964	0.101748	-0.068564	9.17	108.29	-13.02	0.3577	-0.08329999	-0.2246	
-0.986736	0.097966	-0.105164	10.15	105.7	-14.14	0.3668	-0.08	-0.2035	
-0.996008	0.080154	-0.121024	6.51	100.73	-13.65	0.3827	-0.0788	-0.1869	
-0.957944	0.0671	-0.149572	6.72	99.47	-13.86	0.3787	-0.072	-0.1774	
-0.931104	0.056974	-0.192394	6.58	94.99	-13.93	0.3917	-0.07229999	-0.1657	
-0.92415	0.042456	-0.216062	4.9	94.71	-13.3	0.3926	-0.0668	-0.1387	
-0.933666	0.04819	-0.263032	4.13	90.65	-13.37	0.4012	-0.0622	-0.1287	
-0.940132	0.071126	-0.314638	5.67	81.55	-13.58	0.4015	-0.0707	-0.1022	
-0.986614	0.08174	-0.348188	2.38	82.18	-15.54	0.4099	-0.0646	-0.09209999	
-0.938668	0.063806	-0.353434	1.61	86.31	-15.75	0.4174	-0.0679	-0.0839	
-0.952088	0.045506	-0.372222	4.2	89.46	-16.17	0.4175	-0.0548	-0.0661	
-0.941474	0.038552	-0.424682	1.68	73.57	-13.09	0.4142	-0.054	-0.049	
-0.960384	0.05063	-0.463722	1.33	64.96	-9.94	0.4214	-0.0494	-0.0374	
-0.943548	0.04697	-0.492636	0.7	67.55	-9.87	0.4263	-0.054	-0.0263	
-0.948062	0.050264	-0.523258	-0.35	68.39	-9.38	0.4265	-0.0522	-0.0199	
-0.95831	0.055022	-0.535092	-1.61	65.45	-9.73	0.4202	-0.0514	-0.006	
-0.988322	0.055388	-0.543266	-3.29	66.71	-9.66	0.4257	-0.0387	0.0072	
-1.008452	0.03965	-0.537044	-5.53	66.01	-8.82	0.4322	-0.0432	0.0247	
-1.001498	0.037698	-0.533506	-3.64	62.02	-9.1	0.4326	-0.0462	0.0293	
-0.977098	0.033184	-0.583038	-6.86	54.81	-8.75	0.4288	-0.0392	0.0435	
-0.975756	0.02318	-0.613904	-5.81	52.29	-7.28	0.4331	-0.0361	0.0502	
-0.945622	0.01525	-0.621224	-2.52	53.83	-6.79	0.4203	-0.0275	0.0514	
-0.931592	0.010126	-0.613416	-1.82	49.77	-6.79	0.4288	-0.0382	0.0751	
-0.906094	0.024522	-0.629154	-2.31	48.23	-6.93	0.43	-0.0368	0.072	
-0.87718	0.024766	-0.616222	-1.26	43.96	-6.65	0.4363	-0.0382	0.0865	
-0.831552	0.019886	-0.64721	-5.6	38.15	-5.88	0.4381	-0.0347	0.0993	
-0.836432	0.021838	-0.674904	-0.7	33.46	-6.3	0.4381	-0.0331	0.1009	
-0.827404	0.0061	-0.666364	-0.77	37.73	-7.35	0.4256	-0.0308	0.1019	
-0.818498	0.008784	-0.66673	0	38.22	-7.42	0.435	-0.0267	0.101	
-0.83509	0.009881999	-0.689788	2.66	31.71	-5.46	0.4328	-0.0245	0.1167	
-0.826184	-0.005246	-0.69784	7.56	27.23	-4.55	0.4282	-0.03	0.1288	
-0.80947	-0.01464	-0.70882	10.29	22.68	-4.55	0.4303	-0.0193	0.1277	
-0.790804	-0.005368	-0.72102	10.29	21.35	-5.32	0.426	-0.0191	0.1244	
-0.76982	0.00854	-0.743346	7.14	18.34	-5.81	0.4233	-0.0205	0.1242	
-0.767136	0.024766	-0.736636	5.11	16.45	-5.25	0.4291	-0.0207	0.1292	
-0.774212	0.021472	-0.739442	3.01	11.83	-4.34	0.4208	-0.0202	0.1304	
-0.774334	0.00671	-0.723826	2.31	9.17	-4.13	0.4366	-0.0256	0.1373	
-0.774334	-0.008174	-0.714676	1.4	7.98	-3.64	0.4291	-0.0174	0.134	
-0.760182	-0.01708	-0.71126	1.33	4.13	-2.52	0.4228	-0.0263	0.1365	
-0.763354	-0.024156	-0.713456	2.17	1.96	-1.47	0.4186	-0.0261	0.1347	
-0.771772	-0.031476	-0.706014	2.52	0.84	-0.63	0.4295	-0.0285	0.1305	
-0.791414	-0.020252	-0.69723	4.41	-0.49	-0.14	0.4216	-0.0277	0.1396	
-0.795806	-0.02135	-0.689788	4.13	2.45	0.14	0.4227	-0.0215	0.1399	
-0.792024	-0.01952	-0.673806	2.8	-1.05	-0.14	0.4258	-0.0247	0.1431	
-0.792268	-0.024034	-0.679174	2.52	-4.97	-0.35	0.4268	-0.0234	0.1369	
-0.814472	-0.020496	-0.669414	3.5	-5.18	-0.35	0.4185	-0.0262	0.1332	
-0.80886	-0.015128	-0.668804	3.29	-6.09	-0.21	0.4252	-0.0219	0.1337	
-0.820816	-0.008417999	-0.693936	3.36	-5.88	0.49	0.4305	-0.0192	0.1309	
-0.825574	-0.016348	-0.700036	2.87	-8.61	1.05	0.4245	-0.0191	0.1227	
-0.837286	-0.01586	-0.701988	0.28	-12.88	1.12	0.417	-0.0246	0.1331	
-0.844118	-0.029402	-0.706136	-0.7	-16.66	1.75	0.4224	-0.0234	0.1303	
-0.832162	-0.030988	-0.701988	-2.38	-20.72	2.1	0.4228	-0.0177	0.1164	
-0.8235	-0.030256	-0.689544	-3.78	-22.33	2.31	0.4277	-0.0255	0.1242	
-0.82655	-0.004636	-0.687104	-2.03	-23.66	2.31	0.4316	-0.0178	0.1279	
-0.842288	-0.00122	-0.696742	-3.15	-27.51	2.87	0.4291	-0.0136	0.109	
-0.840824	-0.002684	-0.696864	-2.59	-31.36	2.87	0.4227	-0.0275	0.1034	
-0.813374	0.024034	-0.670878	-3.22	-35.35	4.41	0.4212	-0.0274	0.1018	
-0.853024	0.058072	-0.668682	-2.52	-38.08	6.02	0.4302	-0.0236	0.0914	
-0.88389	0.011956	-0.680394	-7.14	-40.88	6.72	0.4262	-0.0314	0.0846	
-0.840702	-0.038674	-0.671732	-6.44	-46.97	9.03	0.4325	-0.0241	0.0805	
-0.841434	-0.039284	-0.669048	-2.52	-52.15	11.83	0.4351	-0.0276	0.0742	
-0.873032	-0.007442	-0.660752	-0.35	-52.01	12.74	0.4308	-0.0308	0.066	
-0.877546	0.031232	-0.636596	0.35	-47.25	11.97	0.4292	-0.0357	0.0563	
-0.871934	0.035136	-0.606462	-1.26	-47.11	12.32	0.4219	-0.0388	0.0448	
-0.885842	0.016958	-0.602314	-3.92	-52.29	12.74	0.4351	-0.0336	0.0362	
-0.91561	-0.001586	-0.58926	-4.48	-56.35	12.81	0.4216	-0.0406	0.0368	
-0.90097	0.014396	-0.579622	-2.73	-61.39	13.16	0.4329	-0.0438	0.0074	
-0.886208	0.01281	-0.557296	-4.34	-63.91	13.79	0.4281	-0.0375	0.0011	
-0.902312	0.027206	-0.543388	-3.57	-64.61	13.44	0.4206	-0.0488	-0.0233	
-0.92598	0.042212	-0.523014	-5.32	-62.86	12.67	0.43	-0.048	-0.029	
-0.92964	0.036844	-0.494954	-4.76	-62.16	10.99	0.4206	-0.0521	-0.0265	
-0.925858	0.013298	-0.48373	-6.44	-69.16	10.5	0.4257	-0.0511	-0.0357	
-1.004548	0.006588	-0.455182	-4.41	-70.28	10.43	0.4283	-0.0563	-0.0451	
-0.982832	0.01281	-0.425414	-2.1	-71.47	10.5	0.4176	-0.0564	-0.0662	
-0.97417	0.031354	-0.402722	-0.14	-73.29	11.06	0.4153	-0.0521	-0.0803	
-0.988444	0.048922	-0.368196	1.96	-73.29	12.04	0.4095	-0.0616	-0.0967	
-1.016504	0.063196	-0.339892	3.85	-75.81	12.39	0.3994	-0.0582	-0.1034	
-1.011868	0.081618	-0.324276	4.2	-82.46	13.65	0.3964	-0.063	-0.1132	
-0.992592	0.091866	-0.314028	3.57	-96.6	15.61	0.3974	-0.0633	-0.121	
-0.998936	0.110288	-0.245342	6.09	-80.78	15.19	0.3907	-0.0606	-0.1449	
-0.994544	0.109312	-0.222162	0.63	-85.26	16.1	0.3861	-0.0623	-0.1546	
-0.977098	0.11651	-0.204716	-1.54	-92.4	16.24	0.383	-0.0704	-0.1708	
-0.970998	0.122488	-0.166774	-6.37	-95.69	16.66	0.365	-0.0791	-0.1815	
-0.951356	0.109068	-0.101138	-6.3	-110.67	16.52	0.3705	-0.08109999	-0.1845	
-0.938668	0.12139	-0.053314	-8.05	-111.86	16.1	0.3615	-0.0892	-0.2088	
-0.919758	0.09028	0.005124	-10.71	-113.12	15.82	0.3548	-0.0815	-0.2247	
-0.916586	0.09333	0.066612	-10.85	-107.45	14.35	0.3442	-0.0752	-0.2392	
-0.864858	0.086498	0.10614	-8.33	-119.49	16.59	0.3163	-0.0828	-0.2819	
-0.85949	0.059902	0.168116	-8.4	-112.91	15.61	0.3096	-0.0839	-0.2791	
-0.83509	0.072834	0.207644	-6.65	-115.29	15.96	0.2902	-0.0805	-0.3052	
-0.836676	0.096746	0.257908	-4.62	-110.67	16.66	0.2897	-0.0793	-0.3162	
-0.86132	0.096868	0.383568	-6.86	-95.13	17.71	0.2692	-0.0821	-0.3426	
-0.82228	0.161284	0.354654	-4.34	-111.16	14.07	0.2614	-0.0927	-0.345	
-0.818498	0.1647	0.397964	-5.81	-105.35	14.07	0.2383	-0.08549999	-0.357	
-0.797148	0.13725	0.446154	-8.96	-100.45	14.91	0.2393	-0.0826	-0.3631	
-0.79483	0.128588	0.4758	-8.26	-99.96	14.21	0.2177	-0.0885	-0.3881	
-0.785802	0.131516	0.507032	-9.03	-95.48	12.88	0.21	-0.0924	-0.3792	
-0.754326	0.149938	0.53314	-9.59	-92.96	11.34	0.1927	-0.0806	-0.3829	
-0.737612	0.152256	0.579622	-5.32	-84.56	9.94	0.1839	-0.0869	-0.3993	
-0.704916	0.149328	0.615978	-5.39	-91.49	10.57	0.1644	-0.0875	-0.4051	
-0.680638	0.162382	0.643672	-3.78	-83.3	10.43	0.1607	-0.0815	-0.4177	
-0.650626	0.16226	0.676734	-4.2	-72.66	9.66	0.1511	-0.08899999	-0.4247	
-0.627202	0.166652	0.69845	-5.6	-75.74	8.89	0.1347	-0.07099999	-0.4297	
-0.635986	0.171166	0.707112	-4.83	-61.46	7.98	0.1229	-0.0893	-0.4373	
-0.651968	0.167384	0.721508	-3.57	-57.12	7.35	0.1236	-0.0801	-0.4416	
-0.642086	0.167018	0.742858	-4.13	-53.41	7.14	0.1131	-0.0904	-0.441	
-0.636962	0.171654	0.756278	-4.06	-47.53	6.44	0.1155	-0.0778	-0.4341	
-0.625738	0.169214	0.766648	-4.27	-44.73	5.39	0.104	-0.084	-0.4507	
-0.625494	0.16836	0.77348	-3.92	-39.2	4.97	0.1038	-0.076	-0.4457	
-0.607438	0.165798	0.783362	-2.73	-40.6	4.41	0.0738	-0.0836	-0.446	
-0.59414	0.170922	0.789584	-1.61	-33.67	3.64	0.081	-0.0871	-0.4442	
-0.58438	0.168848	0.7991	-2.59	-27.79	2.87	0.0717	-0.0792	-0.457	
-0.5978	0.177144	0.801052	-1.68	-22.96	2.1	0.0693	-0.08199999	-0.4525	
-0.607926	0.174704	0.804468	-0.77	-19.25	1.75	0.0609	-0.07669999	-0.448	
-0.599386	0.169946	0.81008	-0.21	-17.01	1.4	0.0648	-0.0804	-0.459	
-0.596458	0.165798	0.811178	-0.35	-12.25	0.77	0.0655	-0.0712	-0.4618	
-0.588284	0.160552	0.81557	0	-8.4	0.07	0.0563	-0.0784	-0.4609	
-0.58621	0.162382	0.814228	0.28	-3.92	-0.42	0.0594	-0.0816	-0.4561	
-0.582428	0.164334	0.812642	0.77	0.14	-0.63	0.0522	-0.0862	-0.4677	
-0.583282	0.16714	0.8235	0.84	3.99	-1.12	0.0596	-0.0895	-0.4611	
-0.590114	0.16226	0.824964	1.05	9.45	-1.82	0.0549	-0.0832	-0.4659	
-0.585844	0.161894	0.82045	1.82	13.3	-2.8	0.0616	-0.0805	-0.467	
-0.583282	0.16714	0.812764	2.45	17.64	-3.43	0.0593	-0.0768	-0.4528	
-0.583404	0.169336	0.808616	2.8	22.12	-3.99	0.075	-0.0719	-0.466	
-0.585966	0.165676	0.80276	3.15	27.09	-4.55	0.068	-0.0667	-0.463	
-0.590236	0.16226	0.79605	3.5	31.71	-5.11	0.0742	-0.0763	-0.4599	
-0.599386	0.163724	0.787632	3.5	36.33	-5.74	0.0771	-0.0796	-0.4599	
-0.608292	0.162138	0.771284	4.76	41.51	-6.51	0.0792	-0.084	-0.4489	
-0.615612	0.161772	0.75701	4.76	47.04	-7.42	0.0924	-0.0772	-0.4542	
-0.636474	0.158478	0.745664	3.99	52.08	-7.63	0.0928	-0.0818	-0.4512	
-0.641232	0.155306	0.728584	7.14	57.96	-9.45	0.1089	-0.0902	-0.4428	
-0.659166	0.152378	0.703574	6.44	62.23	-9.94	0.1144	-0.0841	-0.436	
-0.66368	0.152378	0.684054	6.86	68.67	-11.41	0.1323	-0.0836	-0.4366	
-0.681614	0.14518	0.65453	6.44	73.01	-11.69	0.1385	-0.0932	-0.4334	
-0.691496	0.142008	0.625372	6.72	76.65	-12.11	0.1564	-0.083	-0.4227	
-0.720166	0.141398	0.590602	6.86	80.99	-12.53	0.1604	-0.0801	-0.4224	
-0.740296	0.134688	0.564006	8.33	82.11	-13.23	0.1779	-0.0853	-0.409	
-0.752984	0.123098	0.51972	8.47	83.44	-13.16	0.181	-0.0852	-0.401	
-0.793488	0.122732	0.50203	11.55	93.03	-15.19	0.1991	-0.0879	-0.4017	
-0.820206	0.110654	0.460794	11.76	95.62	-15.26	0.2026	-0.0891	-0.3858	
-0.831918	0.121146	0.418704	11.97	96.04	-15.33	0.2194	-0.0867	-0.3785	
-0.837408	0.132248	0.381616	12.25	95.55	-15.68	0.2435	-0.08769999	-0.3678	
-0.843508	0.142496	0.342454	12.6	98.35	-16.73	0.2426	-0.0808	-0.3487	
-0.84302	0.13664	0.302682	11.2	101.99	-16.87	0.2531	-0.0938	-0.3455	
-0.858636	0.135054	0.266204	8.47	106.26	-17.15	0.2659	-0.0911	-0.3352	
-0.878522	0.130174	0.217038	5.11	107.45	-16.73	0.2802	-0.085	-0.3169	
-0.896456	0.122732	0.162016	2.59	108.36	-16.17	0.2912	-0.0809	-0.3146	
-0.91866	0.127368	0.118706	-5.11	103.67	-14.35	0.2994	-0.0804	-0.2858	
-0.922686	0.074176	0.124074	-15.4	82.81	-12.53	0.3195	-0.0843	-0.2755	
-0.9211	0.116876	0.055754	8.26	87.71	-13.93	0.326	-0.0801	-0.2781	
-0.911218	0.084302	0.055388	-3.85	90.09	-11.2	0.3254	-0.0698	-0.2495	
-0.921466	0.086498	0.01952	-5.39	71.82	-10.22	0.3418	-0.0579	-0.2403	
-0.943548	0.110654	-0.02013	-5.95	69.65	-9.73	0.346	-0.0684	-0.2215	
-0.955626	0.070638	-0.036234	-14.98	77.56	-9.87	0.3485	-0.0639	-0.2228	
-0.924516	0.049288	-0.056242	-18.13	62.51	-9.8	0.366	-0.0659	-0.2046	
-1.001376	0.064904	-0.104432	-29.12	42.07	-9.03	0.3708	-0.0673	-0.1918	
-1.000522	0.084058	-0.149694	-20.65	46.55	-9.94	0.3738	-0.0689	-0.1886	
-1.01016	0.061854	-0.153842	-16.66	56.35	-7.63	0.372	-0.0578	-0.1852	
-1.019432	0.080398	-0.17385	-16.1	56.42	-9.31	0.3852	-0.0597	-0.1719	
-1.05103	0.091744	-0.194102	-15.96	57.75	-6.86	0.3846	-0.0607	-0.1562	
-0.862784	-0.321714	-0.676368	56.07	90.3	-10.85	0.392	-0.0575	-0.1416	
-1.129598	0.322568	-0.41358	68.53	281.82	-29.26	0.3977	-0.0583	-0.1098	
-0.971242	-0.063684	0.213012	1.89	144.55	-11.34	0.4126	-0.0503	-0.0788	
-1.035658	0.073444	-0.431514	-3.85	45.78	-12.88	0.4236	-0.0548	-0.0548	
-0.99979	0.05124	-0.471774	-5.18	6.09	-10.15	0.4135	-0.0464	-0.055	
-1.015894	0.058804	-0.463966	-3.15	61.81	-11.97	0.4152	-0.0495	-0.0503	
-1.013332	0.08295999	-0.374174	1.75	48.23	-9.59	0.4128	-0.0539	-0.0475	
-1.018944	0.071492	-0.460794	-5.88	42.91	-7.56	0.416	-0.0489	-0.0329	
-0.996008	0.066612	-0.499346	-8.75	58.38	-8.19	0.4195	-0.0367	-0.0339	
-1.006134	0.063806	-0.466894	-4.41	68.95	-8.89	0.428	-0.0338	-0.0255	
-0.995398	0.03965	-0.454694	-9.73	54.67	-7.42	0.4277	-0.041	-0.01	
-0.981612	0.028548	-0.48556	-6.65	38.08	-7.21	0.4316	-0.0366	-0.0112	
-0.9577	0.036722	-0.507764	-3.22	33.53	-8.19	0.423	-0.0418	0.0054	
-0.92476	0.0366	-0.549122	-5.6	40.81	-8.89	0.424	-0.0308	0.0089	
-0.887916	0.021838	-0.551562	-8.61	49.35	-9.38	0.4252	-0.0429	0.0212	
-0.84302	0.017202	-0.566202	-7.77	55.44	-10.36	0.4339	-0.0398	0.0343	
-0.838262	0.00122	-0.554124	-4.27	56.35	-10.36	0.4323	-0.0302	0.0393	
-0.836188	-0.00915	-0.545828	-7.63	56.49	-9.59	0.4288	-0.0376	0.0467	
-0.871568	-0.008417999	-0.57462	-8.05	50.33	-8.33	0.4262	-0.0341	0.053	
-0.902922	-0.011468	-0.59963	-3.71	44.38	-7	0.425	-0.0306	0.0609	
-0.90097	0.009638	-0.60512	0.7	41.37	-6.79	0.4322	-0.0276	0.0693	
-0.905728	0.017934	-0.609756	0.56	38.08	-6.16	0.424	-0.0254	0.0737	
-0.909754	0.018666	-0.61427	2.03	30.38	-5.6	0.4378	-0.0247	0.0744	
-0.906216	0.01159	-0.62281	3.43	28.07	-5.46	0.4338	-0.021	0.0822	
-0.91561	0.004514	-0.617076	6.65	24.29	-5.04	0.436	-0.0254	0.0948	
-0.906216	0.00244	-0.618174	5.88	17.57	-4.62	0.4343	-0.0191	0.0949	
-0.892918	0.00915	-0.620858	7.21	12.74	-4.48	0.4302	-0.0172	0.0979	
-0.87108	0.008296	-0.613782	6.16	7.56	-3.99	0.4324	-0.0312	0.1007	
-0.863516	0.009028	-0.62891	4.48	3.71	-3.08	0.4419	-0.0255	0.103	
-0.85949	0.007076	-0.645746	3.78	1.89	-2.94	0.4292	-0.0201	0.1025	
-0.845094	0.001342	-0.649162	3.01	1.68	-3.22	0.4329	-0.0174	0.09649999	
-0.838872	-0.010492	-0.63989	3.71	3.99	-3.15	0.4367	-0.0217	0.1138	
-0.837286	-0.006344	-0.634888	3.36	3.08	-2.59	0.4311	-0.0078	0.0983	
-0.830454	-0.004392	-0.641476	3.43	-0.91	-1.68	0.4305	-0.0153	0.1058	
-0.825574	-0.019276	-0.645136	4.34	-4.27	-0.91	0.4376	-0.0188	0.1077	
-0.830698	-0.02074	-0.639768	3.78	-5.46	-0.7	0.4238	-0.0261	0.0988	
-0.823866	-0.02379	-0.639158	4.97	-4.9	-0.56	0.4419	-0.0087	0.0925	
-0.840336	-0.021716	-0.634888	4.34	-3.92	-0.21	0.4201	-0.0104	0.096	
-0.858148	-0.015738	-0.628666	2.59	-5.39	0.35	0.4271	-0.0172	0.0914	
-0.865102	-0.01891	-0.630374	3.22	-8.05	0.77	0.4328	-0.0207	0.0916	
-0.87962	-0.015738	-0.632326	2.73	-12.25	0.49	0.4243	-0.0138	0.0946	
-0.882914	-0.017812	-0.629398	1.26	-15.75	0.42	0.4185	-0.0137	0.0879	
-0.88023	-0.008784	-0.622566	1.61	-17.43	0.63	0.4234	-0.0248	0.0926	
-0.907314	-0.009028	-0.613172	0.49	-19.6	1.68	0.4278	-0.0113	0.0838	
-0.933788	-0.016348	-0.618418	-0.14	-25.62	3.01	0.4293	-0.021	0.0757	
-0.933178	-0.016226	-0.62769	-0.14	-33.32	3.99	0.4254	-0.0174	0.0835	
-0.903654	-0.00732	-0.639768	0.56	-40.39	5.39	0.4286	-0.0199	0.0615	
-0.888404	-0.00488	-0.635864	1.54	-43.47	6.86	0.4387	-0.0299	0.0601	
-0.885232	-0.013054	-0.62769	2.17	-42	8.05	0.4302	-0.023	0.0631	
-0.891088	-0.022692	-0.607438	2.8	-42.91	9.24	0.4178	-0.0234	0.0325	
-0.892552	-0.004392	-0.594872	5.6	-45.22	9.17	0.4304	-0.0191	0.0412	
-0.882304	0.004636	-0.58194	4.41	-47.11	9.87	0.4321	-0.032	0.0329	
-0.879376	0.01769	-0.575474	3.85	-48.3	9.94	0.4247	-0.0254	0.0296	
-0.886452	0.00549	-0.556808	1.89	-47.53	10.57	0.4293	-0.0312	0.0045	
-0.897798	0.003904	-0.546194	0.91	-48.16	10.57	0.4172	-0.0367	0.0052	
-0.920002	0.005124	-0.53436	-0.21	-50.05	10.36	0.4231	-0.0298	-0.0083	
-0.936594	0.005368	-0.51972	-1.4	-52.01	10.15	0.4152	-0.0371	-0.009	
-0.956358	0.003538	-0.506666	-0.98	-54.81	10.36	0.428	-0.0305	-0.0222	
-0.966728	0.01098	-0.47946	0.42	-55.93	10.43	0.4163	-0.0303	-0.0354	
-0.96685	0.010126	-0.455182	0.98	-58.45	10.78	0.4112	-0.0378	-0.036	
-0.981612	0.007076	-0.432978	1.12	-62.3	11.62	0.4169	-0.0477	-0.0423	
-0.994666	0.00427	-0.415288	2.03	-67.34	12.74	0.4214	-0.0456	-0.0625	
-1.000888	0.017812	-0.390278	4.41	-70.42	13.51	0.4163	-0.0427	-0.0784	
-1.009672	0.024278	-0.374174	5.6	-77.35	14.91	0.4135	-0.0409	-0.0769	
-1.008452	0.037698	-0.355874	7.77	-87.29	16.73	0.4004	-0.0455	-0.0982	
-1.011502	0.062586	-0.317078	12.25	-85.61	17.64	0.4027	-0.0509	-0.1124	
-1.010038	0.073444	-0.27877	9.45	-82.11	18.27	0.3954	-0.0539	-0.124	
-0.997838	0.078446	-0.22448	3.15	-78.12	18.06	0.3861	-0.0591	-0.153	
-0.970388	0.089304	-0.19764	1.96	-82.04	18.97	0.383	-0.0543	-0.1545	
-0.958066	0.091012	-0.157868	-0.42	-81.9	18.69	0.3731	-0.0716	-0.1777	
-0.94001	0.069784	-0.128832	-3.22	-84.84	18.69	0.3649	-0.0711	-0.1766	
-0.910242	0.077226	-0.091988	-6.09	-82.32	18.9	0.3584	-0.0747	-0.2006	
-0.898164	0.070882	-0.018422	-6.16	-91.28	17.5	0.3494	-0.065	-0.2055	
-0.886452	0.07515199	0.00061	-3.92	-98.49	17.64	0.346	-0.0733	-0.2264	
-0.878888	0.089304	0.054046	-2.17	-93.24	16.59	0.3417	-0.0797	-0.2379	
-0.882304	0.109678	0.104554	-4.76	-100.8	15.54	0.3346	-0.0826	-0.2447	
-0.875716	0.111264	0.136152	-4.06	-98.28	15.33	0.3275	-0.0856	-0.253	
-0.878766	0.113216	0.176168	-5.67	-96.46	16.03	0.3023	-0.074	-0.276	
-0.925858	0.08906	0.40321	-9.38	-20.16	14	0.3013	-0.0747	-0.2981	
-0.906704	0.10492	0.251442	-8.54	-91.28	13.09	0.3032	-0.0923	-0.3065	
-0.882914	0.136396	0.268034	-11.76	-126.14	15.4	0.2914	-0.0856	-0.3148	
-0.89914	0.143228	0.319884	-6.23	-86.87	13.51	0.2794	-0.0808	-0.331	
-0.87901	0.147132	0.349042	-4.06	-79.8	12.88	0.2654	-0.0752	-0.3284	
-0.878278	0.131516	0.377102	-1.82	-83.86	11.55	0.2627	-0.0814	-0.3335	
-0.856074	0.12688	0.41541	-3.36	-77.49	11.41	0.251	-0.08769999	-0.3548	
-0.796782	0.112118	0.464698	-11.55	-65.73	14.42	0.2356	-0.0821	-0.3523	
-0.790804	0.142618	0.471774	-3.78	-75.32	10.64	0.2295	-0.0821	-0.3652	
-0.775676	0.15189	0.479216	-3.64	-77.21	11.69	0.2125	-0.083	-0.374	
-0.759084	0.150426	0.515694	-4.9	-73.99	12.18	0.2009	-0.0779	-0.3808	
-0.766526	0.152622	0.537288	-4.06	-70	11.55	0.1977	-0.0845	-0.3969	
-0.781044	0.15006	0.560102	-7.7	-60.62	11.27	0.183	-0.0865	-0.3883	
-0.770064	0.162016	0.577426	-7.84	-58.17	11.76	0.1753	-0.0834	-0.4028	
-0.787876	0.15738	0.597678	-6.16	-52.15	8.75	0.1709	-0.0817	-0.4061	
-0.77775	0.154452	0.624396	-8.26	-50.96	8.4	0.162	-0.0832	-0.4208	
-0.764574	0.161162	0.626714	-6.65	-54.25	8.26	0.1513	-0.0791	-0.4086	
-0.747738	0.153964	0.630252	-4.83	-55.3	7.14	0.1496	-0.0857	-0.4231	
-0.707356	0.157868	0.63806	-6.3	-48.79	6.3	0.1366	-0.0788	-0.4267	
-0.717726	0.162138	0.640622	-5.39	-38.64	4.48	0.135	-0.0757	-0.4299	
-0.735294	0.161284	0.659898	-6.3	-40.95	5.81	0.1267	-0.08	-0.4336	
-0.719312	0.163602	0.67893	-5.25	-47.88	5.67	0.1298	-0.0768	-0.4239	
-0.716018	0.161406	0.690642	-4.2	-43.75	4.34	0.1194	-0.0799	-0.4419	
-0.701012	0.166652	0.706014	-3.71	-40.67	3.92	0.1153	-0.0829	-0.4453	
-0.692716	0.170922	0.708088	-0.28	-39.83	3.43	0.1052	-0.0761	-0.4456	
-0.67527	0.158966	0.716506	-5.67	-30.8	2.66	0.0984	-0.0772	-0.446	
-0.670756	0.163114	0.735416	-4.76	-27.3	2.66	0.0942	-0.0835	-0.4528	
-0.66673	0.160308	0.742614	-4.48	-25.06	2.31	0.09209999	-0.0796	-0.4354	
-0.65819	0.155672	0.7625	-2.38	-18.83	1.12	0.0817	-0.0795	-0.4502	
-0.65697	0.158234	0.76921	-2.66	-13.79	0.77	0.0858	-0.0814	-0.4532	
-0.642086	0.148352	0.782752	-1.19	-11.55	0.63	0.08199999	-0.0761	-0.4406	
-0.629276	0.146156	0.786534	-0.42	-8.47	0.28	0.0758	-0.0746	-0.4535	
-0.621224	0.146034	0.792756	1.61	-3.15	-0.07	0.0821	-0.0706	-0.4624	
-0.623054	0.147864	0.793976	2.73	1.89	-0.49	0.0803	-0.0762	-0.447	
-0.62281	0.145668	0.79422	3.5	6.44	-0.49	0.0773	-0.0794	-0.4551	
-0.623786	0.141764	0.799466	3.5	10.78	-0.77	0.0816	-0.078	-0.4501	
-0.62464	0.142618	0.807274	4.69	15.33	-1.19	0.086	-0.0846	-0.4533	
-0.621712	0.14518	0.803492	6.3	19.46	-1.61	0.0915	-0.0768	-0.4448	
-0.623542	0.15982	0.793244	6.65	25.62	-2.8	0.09869999	-0.0787	-0.4414	
-0.623786	0.162626	0.783362	6.3	30.94	-3.85	0.0941	-0.0722	-0.4429	
-0.623908	0.158234	0.77104	6.3	36.82	-4.97	0.0959	-0.0768	-0.4383	
-0.633546	0.152012	0.762134	7	42.91	-5.67	0.1057	-0.0839	-0.4443	
-0.647576	0.1525	0.745176	8.68	48.86	-6.3	0.11	-0.0775	-0.4344	
-0.666486	0.149694	0.733586	9.24	54.18	-7	0.1201	-0.0826	-0.4293	
-0.680394	0.147864	0.706746	9.31	59.71	-7.98	0.1286	-0.0814	-0.4241	
-0.680028	0.157258	0.683322	12.74	61.74	-9.8	0.1383	-0.08199999	-0.4252	
-0.701622	0.160308	0.649772	8.19	71.33	-9.45	0.1383	-0.0803	-0.422	
-0.707844	0.158966	0.618418	13.65	72.17	-11.48	0.147	-0.0805	-0.4136	
-0.718946	0.159942	0.586698	11.83	75.11	-11.69	0.1642	-0.0925	-0.4131	
-0.728584	0.149816	0.55571	9.73	80.99	-11.9	0.1725	-0.0816	-0.4013	
-0.754082	0.146522	0.526064	10.08	83.3	-12.53	0.1981	-0.0859	-0.3906	
-0.76799	0.145912	0.495564	11.76	84.07	-12.53	0.2109	-0.08639999	-0.3837	
-0.804956	0.138592	0.457134	11.27	91.49	-13.16	0.2183	-0.0848	-0.3706	
-0.808372	0.138714	0.423218	11.13	90.79	-13.86	0.2356	-0.0967	-0.3685	
-0.83204	0.130296	0.391864	7.49	89.32	-12.95	0.2339	-0.0839	-0.3619	
-0.828136	0.140788	0.359168	7.42	80.78	-14.42	0.25	-0.08899999	-0.3486	
-0.837896	0.12444	0.321104	9.45	91.98	-13.93	0.2587	-0.0876	-0.3371	
-0.864004	0.119926	0.283162	10.15	101.57	-13.23	0.2691	-0.0828	-0.3175	
-0.877302	0.121024	0.245342	7.28	90.93	-12.32	0.2819	-0.0801	-0.3057	
-0.880962	0.119804	0.215086	5.18	80.78	-11.06	0.2874	-0.0788	-0.3037	
-0.863516	0.136396	0.168848	7.21	77.56	-11.69	0.2942	-0.08639999	-0.2863	
-0.904142	0.150182	0.104066	11.27	102.76	-14.77	0.31	-0.0933	-0.281	
-0.89487	0.094794	0.063684	7	80.57	-13.37	0.317	-0.0791	-0.2628	
-0.953674	0.115778	0.029402	12.39	76.44	-14.35	0.3219	-0.0853	-0.2533	
-0.919636	0.110532	-0.025376	9.73	63.98	-11.34	0.3461	-0.083	-0.2362	
-0.914512	0.085888	-0.052338	12.67	82.04	-12.88	0.3418	-0.0796	-0.2348	
-0.97539	0.090036	-0.008052	27.65	78.26	-19.74	0.3486	-0.0823	-0.2109	
-0.837896	-0.036722	-0.053314	-37.03	82.67	1.68	0.3526	-0.07449999	-0.2057	
-0.884622	0.09942999	-0.148352	14.63	85.61	-9.66	0.3616	-0.0762	-0.1926	
-1.002108	0.125782	-0.122976	57.89	84.14	-18.69	0.3709	-0.07759999	-0.1717	
-0.977464	0.073566	-0.232898	-7.63	49.91	-10.36	0.3707	-0.068	-0.1651	
-0.981612	0.096136	-0.195078	-15.61	50.47	-10.08	0.3789	-0.0756	-0.1476	
-1.011258	0.118462	-0.237046	-5.32	71.89	-14.56	0.3914	-0.0731	-0.1437	
-0.998692	0.11773	-0.268644	1.33	73.01	-17.08	0.3919	-0.0679	-0.1262	
-1.00284	0.076128	-0.250222	-7.98	53.48	-12.67	0.3978	-0.0647	-0.1147	
-1.023214	0.06832	-0.304756	0.28	47.95	-10.85	0.4039	-0.063	-0.1002	
-1.026142	0.047214	-0.3172	-1.96	57.82	-12.95	0.4068	-0.063	-0.0969	
-1.011502	0.043432	-0.308904	-5.67	54.95	-12.6	0.4158	-0.0663	-0.08549999	
-0.999058	0.053558	-0.33611	4.48	49.28	-12.6	0.4113	-0.0566	-0.0823	
-0.999668	0.058926	-0.348554	2.31	52.43	-12.32	0.4132	-0.0628	-0.0792	
-1.020286	0.047824	-0.367708	1.05	59.15	-12.25	0.4096	-0.0573	-0.0603	
-1.02907	0.055388	-0.398574	-2.24	61.25	-12.6	0.4206	-0.0515	-0.0564	
-1.019188	0.026474	-0.408822	-6.16	63.07	-11.2	0.4145	-0.0603	-0.0492	
-0.99125	0.00854	-0.421388	-4.41	66.5	-12.04	0.4296	-0.0547	-0.0434	
-0.998692	0.022814	-0.398208	-3.92	68.74	-11.2	0.4245	-0.046	-0.0261	
-0.993568	0.025376	-0.449692	5.32	46.27	-12.18	0.4239	-0.0568	-0.0218	
-1.012356	0.027694	-0.501176	-5.46	38.08	-9.8	0.4309	-0.0538	-0.015	
-0.996374	0.015982	-0.494222	-2.66	38.64	-10.43	0.4288	-0.0646	-0.0123	
-0.972462	0.010736	-0.44835	9.59	45.01	-13.51	0.4245	-0.0466	0.0037	
-0.972218	-0.009028	-0.51179	-18.06	52.71	-9.03	0.4311	-0.0343	0.0092	
-0.94672	0.013298	-0.486048	-3.57	52.08	-12.04	0.4262	-0.0448	0.0117	
-0.929152	-0.005734	-0.483486	0.35	37.87	-11.2	0.4276	-0.0352	0.0231	
-0.924028	-0.024156	-0.524844	-0.28	26.67	-10.22	0.4315	-0.0475	0.034	
-0.918294	-0.011712	-0.544364	3.08	28.77	-9.45	0.4419	-0.0341	0.035	
-0.919636	-0.012444	-0.542534	-1.54	29.4	-8.82	0.4434	-0.0308	0.0399	
-0.911706	-0.008296	-0.53802	-1.68	30.03	-8.96	0.4357	-0.0396	0.0439	
-0.906826	-0.002928	-0.548634	-3.64	25.83	-8.4	0.4372	-0.0364	0.0488	
-0.906094	-0.003782	-0.561322	7	25.69	-9.03	0.4392	-0.0258	0.0446	
-0.92659	-0.003294	-0.563152	7.7	28.42	-8.12	0.4291	-0.0293	0.0612	
-0.896822	-0.004026	-0.583038	4.13	29.19	-7.35	0.4333	-0.0327	0.0582	
-0.909876	-0.005246	-0.580842	0	30.38	-5.88	0.4399	-0.0187	0.0685	
-0.894626	0.000122	-0.607804	-1.26	25.2	-6.79	0.442	-0.0297	0.0713	
-0.884012	0.009638	-0.607926	-0.84	19.04	-6.51	0.4355	-0.0339	0.074	
-0.863394	-0.007929999	-0.675148	-13.58	23.45	-4.13	0.4333	-0.023	0.0695	
-0.882548	-0.003782	-0.695644	-31.36	56.14	-2.59	0.4379	-0.0132	0.0906	
-0.750544	-0.058804	-0.908412	-3.64	57.61	-9.73	0.4357	-0.0094	0.1063	
-0.89243	0.111142	-0.573278	33.74	224.49	-25.83	0.428	-0.0231	0.1039	
-0.858148	0.008905999	-0.471164	22.05	124.53	-13.58	0.432	-0.0062	0.1488	
-0.799466	-0.056974	-0.62037	-19.67	-9.59	-0.28	0.4172	-0.0115	0.1509	
-0.777628	-0.03599	-0.745664	-5.81	-52.85	2.52	0.4199	-0.0068	0.1544	
-0.77958	-0.021716	-0.736514	2.1	-40.74	1.82	0.4224	-0.012	0.1433	
-0.78446	-0.024522	-0.75945	-6.23	-26.39	2.31	0.4219	-0.0026	0.1436	
-0.778848	-0.026474	-0.733586	-2.94	0.42	0.7	0.4288	-0.0047	0.1408	
-0.784338	-0.02806	-0.69174	-1.75	7.84	1.82	0.4251	-0.0139	0.1402	
-0.771894	-0.024156	-0.677954	-2.8	-5.32	2.52	0.4207	-0.0171	0.1305	
-0.797148	-0.020252	-0.668804	-3.78	-25.41	3.57	0.4266	-0.0155	0.1403	
-0.799222	-0.01769	-0.697596	-2.45	-40.04	5.04	0.4204	-0.0221	0.1192	
-0.792024	-0.015616	-0.69967	-3.08	-28.7	4.97	0.4327	-0.0246	0.1135	
-0.802272	-0.012688	-0.678686	-2.94	-16.87	5.18	0.4291	-0.0336	0.1162	
-0.826184	-0.014396	-0.655384	-2.59	-15.96	5.67	0.4323	-0.0232	0.1072	
-0.842776	-0.006588	-0.640622	-1.4	-24.29	5.81	0.4348	-0.0122	0.1141	
-0.849242	0.006466	-0.654042	-0.91	-33.46	6.09	0.4265	-0.0231	0.1006	
-0.855952	0.001586	-0.657092	-0.77	-34.79	6.44	0.4304	-0.0251	0.0945	
-0.870714	-0.009272	-0.643672	-0.35	-29.96	6.58	0.4294	-0.0296	0.09739999	
-0.873154	-0.010004	-0.63379	0	-30.87	6.79	0.4277	-0.0298	0.0895	
-0.862906	0.002806	-0.628178	1.61	-35	7.14	0.4312	-0.0224	0.0836	
-0.862052	0.005734	-0.628666	2.17	-40.53	8.05	0.4277	-0.0163	0.0742	
-0.867664	-0.013542	-0.636108	0.42	-46.62	8.89	0.4267	-0.0289	0.069	
-0.877058	-0.019886	-0.629398	2.31	-46.27	9.03	0.4259	-0.0213	0.0597	
-0.882914	-0.014518	-0.614026	4.41	-42.98	9.17	0.4247	-0.0308	0.0546	
-0.890844	-0.010858	-0.58499	5.32	-40.46	9.45	0.4276	-0.0374	0.0498	
-0.88816	0.000488	-0.571692	5.6	-45.08	9.73	0.4284	-0.0298	0.0454	
-0.885598	0.002928	-0.565714	5.04	-50.54	10.92	0.4311	-0.0413	0.0326	
-0.885598	0.001098	-0.558516	4.69	-53.41	11.97	0.4318	-0.0419	0.0168	
-0.89426	0.017934	-0.546072	4.76	-55.09	13.02	0.4348	-0.0484	0.0152	
-0.93635	0.020496	-0.526552	3.71	-54.04	13.65	0.4309	-0.0393	-0.0003	
-0.945256	0.032208	-0.507642	4.34	-55.37	13.93	0.427	-0.0535	-0.0105	
-0.93391	0.038918	-0.488	3.36	-57.4	14.49	0.4238	-0.0536	-0.0185	
-0.9577	0.03965	-0.479704	2.45	-63.98	15.61	0.4222	-0.0536	-0.0233	
-0.978562	0.035258	-0.459818	2.87	-68.95	16.59	0.4175	-0.0522	-0.0346	
-0.955748	0.036234	-0.430172	4.13	-68.39	17.71	0.4178	-0.0481	-0.0533	
-0.96441	0.049044	-0.408578	5.74	-72.73	18.27	0.4197	-0.0576	-0.0535	
-0.959408	0.06893	-0.374906	5.67	-70.07	18.76	0.4171	-0.06	-0.0805	
-0.954406	0.09455	-0.316346	4.55	-65.31	17.92	0.4132	-0.0693	-0.0857	
-0.967094	0.114802	-0.287798	2.1	-64.54	18.62	0.412	-0.0691	-0.0827	
-0.95709	0.118096	-0.246074	-3.29	-62.37	19.18	0.4027	-0.0693	-0.1036	
-0.93208	0.108458	-0.202764	-4.55	-62.44	19.32	0.4021	-0.0832	-0.1026	
-0.899506	0.097844	-0.16104	-4.55	-59.08	18.69	0.4012	-0.0807	-0.1198	
-0.896212	0.097356	-0.124684	-4.06	-52.57	18.2	0.3928	-0.08989999	-0.1316	
-0.889502	0.099796	-0.0732	-4.27	-47.11	17.22	0.3951	-0.0823	-0.1328	
-0.892552	0.113948	-0.05978	-3.92	-47.25	16.73	0.3887	-0.0761	-0.144	
-0.902068	0.119682	-0.013908	-6.3	-48.02	16.38	0.3877	-0.0823	-0.1442	
-0.917562	0.113704	0.059536	-7.63	-40.11	13.37	0.3804	-0.09339999	-0.1639	
-0.92842	0.134444	0.056852	2.59	-33.95	11.48	0.3826	-0.09559999	-0.178	
-0.926346	0.142984	0.118096	0.77	-30.52	10.92	0.3675	-0.0898	-0.1708	
-0.950502	0.147376	0.136518	-1.61	-32.27	10.57	0.3727	-0.0936	-0.1816	
-0.944524	0.156038	0.126514	0.35	-39.13	9.8	0.3685	-0.095	-0.1851	
-0.935374	0.145912	0.130906	-0.42	-35.14	8.61	0.3702	-0.0981	-0.1803	
-0.92903	0.148718	0.137372	3.01	-24.22	6.3	0.3601	-0.0946	-0.1855	
-0.950624	0.152134	0.144448	2.66	-13.16	2.87	0.3635	-0.0953	-0.2027	
-0.964166	0.171654	0.137128	0.63	-7.56	-1.26	0.3638	-0.0935	-0.1947	
-0.963922	0.17019	0.136396	-3.64	-14.91	-4.2	0.3542	-0.08639999	-0.1855	
-0.970998	0.20496	0.135176	-4.55	-21.35	-7	0.3615	-0.0979	-0.1903	
-0.958798	0.106994	0.100894	-8.82	30.66	-11.06	0.3526	-0.0913	-0.1952	
-0.985394	0.112484	0.223382	-15.4	-17.78	-11.13	0.3565	-0.0885	-0.1981	
-0.959286	0.127978	0.062342	-6.23	-50.05	-11.06	0.3492	-0.0851	-0.2015	
-0.963312	0.118218	0.047214	-6.16	-34.09	-15.05	0.357	-0.0843	-0.2105	
-0.985882	0.116022	0.115778	-11.76	-17.71	-18.69	0.3499	-0.0759	-0.2059	
-0.979172	0.100162	0.0793	-10.08	-13.65	-21.42	0.3425	-0.0775	-0.2173	
-0.98149	0.076982	0.075396	-11.48	-4.41	-24.57	0.3549	-0.075	-0.2166	
-0.989298	0.06649	0.09272	-8.26	6.93	-31.64	0.3452	-0.0696	-0.2106	
-0.990762	0.072346	0.085278	-3.36	8.54	-36.68	0.3529	-0.0608	-0.2146	
-0.995398	0.068198	0.089914	-2.24	-1.82	-39.06	0.3509	-0.0498	-0.2143	
-0.98637	0.101626	0.082838	-13.09	-9.8	-41.93	0.3478	-0.0466	-0.2175	
-1.015528	0.065026	0.050508	-7.63	-12.81	-41.93	0.3518	-0.0372	-0.2107	
-1.022848	0.03965	0.072956	-4.9	-1.47	-44.87	0.3459	-0.0371	-0.2189	
-1.018334	0.02745	0.089914	-0.14	7.98	-46.48	0.3456	-0.0292	-0.2171	
-1.04127	0.006832	0.095038	-2.1	13.72	-47.39	0.3451	-0.0215	-0.22	
-1.048224	-0.027694	0.070272	-2.73	4.2	-49.84	0.3435	-0.0102	-0.2102	
-1.028094	0.009638	0.09638	2.31	0.56	-52.71	0.3512	-0.0062	-0.2191	
-1.03456	-0.0488	0.083204	4.48	15.05	-55.65	0.3427	0.0037	-0.2129	
-1.041514	-0.041602	0.09699	-3.5	-11.62	-55.09	0.3456	0.0037	-0.2096	
-1.012478	-0.071858	0.054412	0.35	-22.19	-55.65	0.3516	0.014	-0.2168	
-0.98332	-0.074908	0.01403	-1.61	-22.61	-58.17	0.3346	0.0212	-0.2191	
-0.989908	-0.104066	0.029036	-5.53	-16.87	-56.49	0.3446	0.024	-0.209	
-0.977098	-0.10065	0.039894	1.19	-5.32	-56.77	0.3345	0.0379	-0.2327	
-1.01992	-0.12139	0.0488	-2.8	-5.95	-56.07	0.3305	0.0447	-0.2216	
-1.01077	-0.162748	0.033672	-2.31	-7.14	-56.56	0.3393	0.0549	-0.2287	
-1.017724	-0.188612	0.059414	-0.42	-5.18	-56.63	0.3305	0.0631	-0.2304	
-0.983808	-0.228262	0.049654	2.24	-10.99	-54.32	0.3157	0.0795	-0.2338	
-0.972096	-0.235582	0.068808	0.7	-10.15	-54.25	0.3156	0.0827	-0.2321	
-0.957334	-0.278404	0.07124799	-1.12	-9.38	-52.15	0.3138	0.0889	-0.2351	
-0.967704	-0.298412	0.062586	-0.14	-11.83	-50.19	0.3127	0.0995	-0.2459	
-0.940864	-0.319762	0.07686	0	-9.24	-47.11	0.3182	0.0992	-0.2472	
-0.956602	-0.32696	0.07381	-0.91	-10.43	-44.73	0.3058	0.0983	-0.2478	
-0.940132	-0.351604	0.085766	-2.8	-8.61	-41.44	0.3034	0.1155	-0.2505	
-0.947086	-0.366732	0.10858	-4.48	-5.46	-38.43	0.3016	0.1202	-0.2536	
-0.944646	-0.381616	0.11956	-4.69	-5.25	-36.05	0.2934	0.1159	-0.2558	
-0.920368	-0.390522	0.10309	-4.9	-5.67	-33.25	0.2989	0.1237	-0.2473	
-0.91256	-0.41602	0.109434	-6.65	-4.55	-31.08	0.293	0.127	-0.2523	
-0.916952	-0.439932	0.131028	-7.14	-5.46	-28.91	0.2888	0.1289	-0.2508	
-0.884622	-0.457866	0.132614	-7.07	-4.97	-28.07	0.2939	0.1396	-0.2486	
-0.892186	-0.456524	0.135908	-5.81	-5.32	-25.69	0.2895	0.1429	-0.2503	
-0.878766	-0.467138	0.135664	-6.37	-2.94	-22.75	0.282	0.1575	-0.2471	
-0.895602	-0.476654	0.126026	-4.76	-2.94	-20.09	0.29	0.1416	-0.2425	
-0.878888	-0.492392	0.122244	-5.88	-3.5	-17.01	0.2805	0.1526	-0.2552	
-0.875106	-0.489586	0.1159	-3.85	-0.84	-14.14	0.2782	0.1531	-0.2459	
-0.886574	-0.48129	0.107482	-4.34	-0.07	-12.6	0.2785	0.1604	-0.2598	
-0.887672	-0.482022	0.108946	-3.43	0.35	-11.9	0.2737	0.145	-0.2621	
-0.882792	-0.501542	0.108824	-5.11	0.28	-9.87	0.2792	0.1527	-0.2537	
-0.878156	-0.50874	0.112484	-4.69	-0.14	-7.63	0.2685	0.1672	-0.2601	
-0.88145	-0.50691	0.113582	-2.38	1.26	-5.39	0.2682	0.1599	-0.2446	
-0.88999	-0.5185	0.089182	-0.07	-0.14	-2.87	0.2759	0.1655	-0.2518	
-0.869738	-0.517158	0.09333	0.14	0.56	-0.63	0.2797	0.178	-0.2433	
-0.88206	-0.511668	0.089426	1.47	2.17	1.4	0.2684	0.172	-0.2567	
-0.880718	-0.509106	0.094428	0.77	3.08	3.64	0.2797	0.165	-0.2595	
-0.892064	-0.495564	0.089548	1.61	4.13	5.81	0.2807	0.1793	-0.2511	
-0.895236	-0.498736	0.107482	0.35	4.97	8.12	0.2838	0.1793	-0.2447	
-0.900238	-0.497516	0.09455	-4.55	3.43	10.15	0.2762	0.1673	-0.2423	
-0.907558	-0.485926	0.068198	-0.28	2.52	12.81	0.2834	0.1655	-0.2373	
-0.922686	-0.478362	0.080642	-0.98	5.25	15.05	0.2819	0.1639	-0.2421	
-0.922564	-0.483364	0.072346	3.29	4.69	18.83	0.2875	0.1652	-0.2386	
-0.912804	-0.471286	0.088694	6.23	4.27	22.82	0.2872	0.1504	-0.2628	
-0.910364	-0.447984	0.082106	11.62	4.2	26.88	0.2795	0.1481	-0.2523	
-0.909388	-0.410408	0.061122	13.09	1.75	33.32	0.286	0.1555	-0.2516	
-0.920246	-0.413336	0.065514	11.27	2.03	37.52	0.2866	0.1462	-0.2504	
-0.915488	-0.396988	0.081618	11.27	4.2	41.58	0.293	0.1351	-0.2441	
-0.921344	-0.40748	0.089548	9.73	5.53	46.13	0.2947	0.1255	-0.2475	
-0.912682	-0.372222	0.085888	7.35	4.06	49.77	0.2986	0.1251	-0.2536	
-0.936838	-0.343796	0.063806	8.12	4.83	53.34	0.3047	0.1203	-0.2471	
-0.96014	-0.310368	0.080764	2.03	8.89	56.49	0.3097	0.1044	-0.2459	
-0.958676	-0.284382	0.060512	1.82	8.89	60.9	0.3185	0.1026	-0.2376	
-0.98942	-0.308172	0.053436	-1.61	10.64	66.08	0.3187	0.0843	-0.224	
-0.950258	-0.30134	0.092232	-2.94	16.17	68.39	0.3236	0.0852	-0.2363	
-0.964166	-0.272792	0.09638	-3.5	15.75	70.77	0.3247	0.0714	-0.2273	
-0.990762	-0.238388	0.082106	-6.72	10.08	72.87	0.332	0.0647	-0.2271	
-0.987102	-0.207156	0.091378	-7.77	5.53	76.02	0.3346	0.0629	-0.2318	
-0.96441	-0.198738	0.08662	-8.19	7.49	80.01	0.3317	0.0396	-0.2312	
-0.983808	-0.18544	0.091378	-6.86	6.58	84.49	0.3381	0.0286	-0.2249	
-0.953064	-0.156648	0.087718	-0.42	9.73	85.75	0.3388	0.0177	-0.2221	
-0.992714	-0.105042	0.080154	-2.52	6.44	86.59	0.3461	0.0062	-0.2253	
-1.020408	-0.092232	0.05124	-3.92	6.09	87.36	0.3396	0.0021	-0.221	
-1.075064	-0.028304	0.07198	3.01	11.55	89.67	0.3425	-0.0196	-0.2138	
-1.054446	0.06832	0.054778	14.49	14.56	91.63	0.3473	-0.0291	-0.2091	
-1.014674	0.076982	0.053314	10.64	11.9	92.96	0.3453	-0.0446	-0.2113	
-1.017114	0.111752	0.048312	13.09	13.09	92.96	0.3542	-0.0544	-0.208	
-1.000644	0.13908	0.110654	42	1.82	95.62	0.3498	-0.0728	-0.2058	
-0.955504	0.113338	0.02074	21.7	-7.28	91.42	0.3373	-0.0769	-0.2113	
-0.962092	0.201422	-0.00854	18.9	1.89	87.43	0.3538	-0.1029	-0.2113	
-0.993934	0.264252	0.04575	21.28	12.67	84.42	0.3486	-0.1121	-0.215	
-0.994666	0.284748	0.053192	15.82	4.69	87.08	0.351	-0.126	-0.2075	
-0.953674	0.278892	0.007442	12.6	-2.1	89.18	0.3423	-0.1442	-0.207	
-0.977098	0.287798	0.032574	8.68	6.02	84.98	0.3471	-0.1505	-0.2007	
-0.952088	0.350384	0.058194	10.71	4.41	79.45	0.3392	-0.1746	-0.1894	
-0.948062	0.335134	0.033306	4.48	-5.6	77.35	0.3368	-0.1823	-0.1913	
-0.922564	0.355996	-0.01647	6.51	-9.94	74.9	0.3314	-0.1981	-0.2048	
-0.913048	0.383568	-0.00122	3.57	-3.92	70.35	0.3314	-0.2013	-0.208	
-0.917074	0.445178	-0.018666	-0.28	-3.29	63.77	0.3286	-0.2196	-0.1994	
-0.951234	0.480314	-0.00366	-1.33	-0.7	56.56	0.323	-0.2129	-0.1947	
-0.9089	0.483852	-0.012932	1.12	-0.56	52.08	0.3202	-0.2257	-0.2095	
-0.888526	0.501664	-0.013786	3.71	0.28	47.39	0.3204	-0.2271	-0.2064	
-0.914268	0.497394	-0.005856	3.43	0.21	47.32	0.3105	-0.2284	-0.2132	
-0.846314	0.484828	0.00732	4.48	-4.06	46.27	0.3101	-0.2357	-0.1993	
-0.858026	0.496296	0.004148	7.7	-3.36	43.96	0.3101	-0.2438	-0.2091	
-0.804468	0.509594	0.026352	11.06	-5.11	42.21	0.3134	-0.255	-0.2108	
-0.900238	0.525454	-0.00061	11.34	-4.41	42.35	0.3054	-0.2656	-0.2148	
-0.850828	0.53924	0.015128	12.18	-5.95	42.28	0.2933	-0.2711	-0.214	
-0.810446	0.57645	-0.006344	8.89	-10.36	40.04	0.3008	-0.2857	-0.2173	
-0.81618	0.61732	-0.013054	10.01	5.53	33.88	0.2954	-0.2885	-0.2177	
-0.843874	0.641354	-0.027816	2.52	-3.22	31.71	0.297	-0.2868	-0.2112	
-0.810812	0.657214	-0.01647	-0.63	-12.32	29.68	0.297	-0.2917	-0.2177	
-0.792268	0.64782	-0.046238	-3.57	-10.36	26.46	0.2863	-0.294	-0.2121	
-0.809836	0.646356	-0.036478	-4.83	-3.71	20.58	0.2825	-0.3033	-0.2157	
-0.799832	0.625372	-0.00671	-2.59	-2.17	16.31	0.2736	-0.2886	-0.2126	
-0.800198	0.619516	-0.008052	-2.8	-3.57	14.98	0.2809	-0.2969	-0.214	
-0.775188	0.609512	0.016836	-4.27	0.49	11.69	0.2799	-0.3078	-0.216	
-0.737368	0.62708	0.037576	-1.89	-2.45	9.59	0.2783	-0.2982	-0.2111	
-0.756156	0.652334	0.03843	-0.21	-6.09	6.58	0.2724	-0.2917	-0.2127	
-0.748592	0.661728	0.042456	2.03	-6.02	2.94	0.2747	-0.3057	-0.2084	
-0.757742	0.676856	0.051484	0.98	-3.57	0.42	0.2782	-0.2966	-0.211	
-0.750422	0.687592	0.04636	0.07	-2.73	-1.68	0.275	-0.2968	-0.2206	
-0.744688	0.697474	0.042456	-0.91	-2.17	-3.29	0.2756	-0.3077	-0.2194	
-0.747006	0.68686	0.042578	-2.8	-2.03	-5.11	0.2684	-0.3059	-0.2245	
-0.756156	0.673684	0.031232	-4.62	-2.45	-6.51	0.2764	-0.3017	-0.2255	
-0.768356	0.659166	0.041114	-3.92	-0.98	-8.61	0.2823	-0.3067	-0.2237	
-0.774944	0.663192	0.040382	-3.5	-1.4	-11.48	0.2844	-0.2943	-0.2248	
-0.774578	0.666486	0.024522	-3.78	-1.96	-14.7	0.2719	-0.2936	-0.2254	
-0.76677	0.66734	0.03294	-4.9	-2.73	-18.62	0.2785	-0.2926	-0.2298	
-0.762256	0.65819	0.01159	-7.35	-3.57	-23.31	0.2786	-0.2958	-0.2314	
-0.786168	0.627202	0.027084	-8.96	-0.63	-27.51	0.2831	-0.3006	-0.2282	
-0.791536	0.609024	0.023546	-10.71	1.26	-31.36	0.2837	-0.2835	-0.2276	
-0.799222	0.599386	0.048556	-10.92	2.31	-35.98	0.2884	-0.2914	-0.2245	
-0.80154	0.589992	0.036844	-12.6	0.98	-41.16	0.282	-0.2755	-0.2243	
-0.80642	0.567544	0.04819	-13.79	-2.66	-45.57	0.294	-0.2684	-0.2265	
-0.818864	0.570106	0.04453	-13.3	1.12	-51.38	0.2941	-0.2668	-0.2233	
-0.83692	0.535824	0.052582	-14.07	3.85	-55.79	0.2914	-0.2513	-0.2324	
-0.856196	0.504592	0.052948	-12.6	4.13	-59.15	0.308	-0.2524	-0.2347	
-0.881328	0.472994	0.07198	-7.7	13.02	-65.38	0.3058	-0.2333	-0.2294	
-0.881328	0.454572	0.045018	-6.58	7	-65.94	0.302	-0.2361	-0.2265	
-0.902556	0.438712	0.03965	-2.87	9.59	-68.81	0.3189	-0.2168	-0.2265	
-0.915488	0.4087	0.046238	-2.66	9.03	-72.1	0.3211	-0.2012	-0.2227	
-0.89365	0.39589	0.03782	3.92	8.12	-75.46	0.3305	-0.2004	-0.2269	
-0.9272	0.335622	0.002562	3.5	9.03	-75.6	0.3266	-0.188	-0.2377	
-0.93635	0.315492	0.039284	10.78	12.81	-76.51	0.3319	-0.1804	-0.234	
-0.969778	0.277672	0.01891	12.11	7.91	-76.72	0.3437	-0.1757	-0.2128	
-0.953552	0.243512	0.006466	9.73	2.87	-75.53	0.3387	-0.1566	-0.2108	
-1.003694	0.225822	0.005368	10.64	4.76	-74.83	0.3368	-0.1552	-0.2187	
-1.032242	0.213012	0.011224	3.92	3.29	-75.46	0.3489	-0.1351	-0.2048	
-1.01565	0.183488	0.00671	-1.61	5.53	-78.47	0.3568	-0.1375	-0.2155	
-1.018822	0.128588	0.017446	-7.28	8.26	-82.18	0.3494	-0.1196	-0.2058	
-0.97539	0.1647	0.029036	0.49	15.54	-84.49	0.3519	-0.1119	-0.2038	
-1.012234	0.05246	0.000732	-3.01	20.3	-83.72	0.3489	-0.1086	-0.2055	
-0.997228	0.036966	0.035746	-2.38	19.95	-88.69	0.3604	-0.0938	-0.2091	
-0.980636	0.026718	0.044286	-2.24	18.69	-87.64	0.3558	-0.0808	-0.2026	
-1.087386	-0.053436	0.03904	-10.85	-8.33	-78.89	0.3514	-0.0413	-0.1951	
-1.008208	-0.041358	0.0305	2.31	-4.13	-83.02	0.3519	-0.0388	-0.2108	
-1.042612	-0.04026	0.017812	-1.12	-2.66	-83.3	0.359	-0.0342	-0.2024	
-1.00162	-0.036356	0.044042	2.87	7.42	-83.51	0.3556	-0.0231	-0.2037	
-1.03456	-0.086254	0.045262	-0.91	2.1	-79.59	0.3521	-0.0089	-0.2034	
-1.032608	-0.102602	0.041114	4.41	-8.68	-75.32	0.3466	0.005	-0.2158	
-1.017114	-0.135298	0.016226	8.33	-4.06	-70.14	0.3521	0.016	-0.2041	
-1.021384	-0.145302	0.023912	11.34	-0.35	-64.05	0.3535	0.0158	-0.2056	
-1.016504	-0.177998	0.00488	12.25	-1.89	-60.34	0.3396	0.035	-0.2152	
-0.998448	-0.205936	0.01037	7.77	-3.29	-58.59	0.3436	0.0428	-0.2084	
-1.00711	-0.207888	0.014396	1.33	-1.26	-60.69	0.3324	0.0467	-0.2073	
-1.01016	-0.217404	0.014396	3.85	-4.13	-60.27	0.338	0.0615	-0.2191	
-1.019676	-0.216428	0.014762	4.13	-7.91	-58.87	0.3468	0.063	-0.2075	
-1.001498	-0.247172	0.016714	2.66	-11.13	-59.29	0.3374	0.0773	-0.2154	
-0.98088	-0.242048	0.021594	-0.56	-16.24	-56.98	0.3206	0.0814	-0.2146	
-0.944768	-0.262666	0.011712	1.68	-14.91	-51.1	0.3217	0.0746	-0.2289	
-0.958798	-0.308416	0.006588	0.14	-14.77	-47.25	0.3237	0.095	-0.2234	
-0.947818	-0.338184	0.023302	-4.2	-16.03	-43.82	0.3219	0.1029	-0.2232	
-0.94916	-0.366976	0.027938	-1.82	-16.59	-38.08	0.3114	0.1143	-0.2281	
-0.957456	-0.384544	0.035014	-0.42	-14.42	-33.53	0.3074	0.1081	-0.2317	
-0.958066	-0.395768	0.059414	-1.33	-11.48	-30.31	0.3157	0.1125	-0.2264	
-0.9272	-0.40809	0.043554	0.63	-13.16	-26.81	0.3067	0.1239	-0.2296	
-0.901214	-0.420412	0.048312	-0.63	-13.86	-24.08	0.2967	0.1242	-0.2364	
-0.928664	-0.431636	0.046726	0.35	-11.27	-23.45	0.3033	0.1333	-0.2326	
-0.9089	-0.452254	0.062098	-1.61	-9.31	-21.21	0.298	0.1257	-0.2363	
-0.930128	-0.44774	0.081984	-0.84	-9.1	-20.93	0.2985	0.1347	-0.2454	
-0.935374	-0.453596	0.072712	0.56	-7.77	-19.25	0.2989	0.1366	-0.2343	
-0.91927	-0.458842	0.082716	1.4	-7.14	-18.34	0.3013	0.1362	-0.2421	
-0.893528	-0.476776	0.085156	2.17	-8.61	-16.38	0.2927	0.1349	-0.2504	
-0.903532	-0.491294	0.103578	1.19	-12.32	-14.42	0.2961	0.1536	-0.2465	
-0.855464	-0.487634	0.097112	1.75	-13.16	-12.53	0.2935	0.1442	-0.2516	
-0.881572	-0.478362	0.080032	2.38	-13.3	-11.13	0.2851	0.1511	-0.2471	
-0.878034	-0.490684	0.092232	-0.14	-11.69	-9.66	0.2861	0.1474	-0.2598	
-0.895236	-0.481534	0.102846	2.52	-9.73	-7.42	0.2891	0.1475	-0.2533	
-0.876082	-0.486048	0.113094	2.24	-9.52	-4.69	0.2902	0.1585	-0.2482	
-0.90585	-0.467016	0.101382	2.66	-8.75	-3.85	0.2857	0.1401	-0.2475	
-0.887672	-0.471408	0.105896	0.07	-8.96	-2.38	0.2855	0.1432	-0.2474	
-0.891698	-0.489952	0.116266	-1.05	-8.19	0.35	0.2825	0.1513	-0.2441	
-0.88511	-0.494588	0.13176	-1.4	-8.12	2.38	0.2816	0.1523	-0.2614	
-0.879864	-0.49044	0.134932	-0.35	-8.54	4.55	0.283	0.149	-0.2646	
-0.876326	-0.483242	0.130296	-1.12	-8.19	6.51	0.2822	0.143	-0.2602	
-0.874374	-0.48312	0.138714	-2.59	-7.49	8.47	0.275	0.1497	-0.2572	
-0.882548	-0.483486	0.140666	-3.92	-7.14	10.08	0.2763	0.1512	-0.2586	
-0.889258	-0.485804	0.138104	-3.57	-5.88	11.9	0.2792	0.143	-0.265	
-0.887794	-0.482754	0.14579	-7.28	-6.58	13.3	0.2779	0.1448	-0.2603	
-0.87962	-0.479948	0.122244	-9.03	-7.42	15.61	0.2795	0.14	-0.2604	
-0.891698	-0.463966	0.13664	-8.4	-1.4	17.08	0.2773	0.1428	-0.2746	
-0.907558	-0.44469	0.111142	-5.67	0.14	19.74	0.2822	0.1398	-0.2618	
-0.918782	-0.435052	0.125782	-2.94	6.51	23.03	0.2893	0.1379	-0.26	
-0.903776	-0.423828	0.136152	-4.06	6.3	26.95	0.2951	0.1345	-0.2582	
-0.895114	-0.429928	0.128832	-2.31	6.93	31.64	0.2911	0.13	-0.2601	
-0.90097	-0.425292	0.116388	0	6.3	36.47	0.2892	0.1226	-0.251	
-0.90585	-0.410408	0.133224	0.21	6.09	41.37	0.298	0.1344	-0.2565	
-0.92171	-0.405772	0.12078	3.22	7.21	46.13	0.2958	0.1203	-0.2602	
-0.923906	-0.390888	0.1342	3.36	9.03	49.91	0.3089	0.1136	-0.2519	
-0.926834	-0.365878	0.134444	3.43	10.43	54.81	0.3074	0.1017	-0.2382	
-0.914756	-0.322202	0.115168	2.94	9.94	56.91	0.3181	0.1072	-0.2406	
-0.935618	-0.329034	0.104188	2.52	12.39	59.71	0.3146	0.09339999	-0.2412	
-0.922564	-0.30561	0.097112	2.52	14.84	61.95	0.3179	0.0822	-0.243	
-0.94123	-0.284626	0.101992	0.28	15.75	63.35	0.3256	0.0726	-0.2367	
-0.935496	-0.24888	0.089914	2.24	19.95	64.82	0.3341	0.069	-0.2363	
-0.96746	-0.2135	0.068076	-2.45	19.67	66.71	0.3327	0.0522	-0.226	
-0.971486	-0.190076	0.106872	-5.04	18.76	68.04	0.3402	0.0577	-0.2348	
-0.958432	-0.169336	0.078568	-4.13	21.28	72.17	0.3334	0.0349	-0.2297	
-0.986858	-0.138958	0.072834	-3.22	23.03	73.85	0.3346	0.0396	-0.2279	
-0.992958	-0.097844	0.07564	-1.05	25.48	74.62	0.3495	0.0136	-0.2327	
-1.005768	-0.05978	0.039284	-2.03	26.39	78.12	0.3493	0.0031	-0.2205	
-0.977708	-0.021472	0.034648	1.68	28.14	78.26	0.3538	-0.0033	-0.2189	
-1.05225	0.031232	0.029158	4.06	24.85	78.89	0.3548	-0.0188	-0.2146	
-1.033218	0.069906	0.024034	5.11	22.12	81.69	0.3551	-0.0219	-0.2132	
-1.057862	0.110654	0.012688	7.21	20.02	83.37	0.3628	-0.0298	-0.2036	
-1.041514	0.125172	-0.008417999	7.63	12.95	87.08	0.3516	-0.0477	-0.1985	
-1.03273	0.180072	-0.028548	4.62	9.73	90.02	0.3609	-0.0604	-0.189	
-1.01931	0.20801	-0.011346	6.65	12.53	95.13	0.3606	-0.0742	-0.1816	
-0.9699	0.23729	-0.055022	6.86	3.71	91.14	0.36	-0.0898	-0.1822	
-1.019188	0.229604	-0.004514	2.03	1.89	89.46	0.3622	-0.1169	-0.1956	
-0.99186	0.311588	-0.040138	3.99	4.06	86.66	0.3535	-0.1286	-0.187	
-0.98698	0.275232	-0.023546	-11.34	6.65	83.79	0.3606	-0.1369	-0.1916	
-0.970754	0.260836	0.007076	-3.5	7.14	81.13	0.3504	-0.1487	-0.1879	
-0.956602	0.26413	-0.002806	-6.09	-1.61	79.31	0.3511	-0.1579	-0.1834	
-0.977708	0.244976	-0.034404	-10.01	-1.47	75.25	0.3535	-0.1751	-0.1792	
-0.97356	0.27938	-0.014274	-4.76	4.34	69.72	0.3492	-0.1815	-0.1907	
-0.975146	0.332938	-0.001098	-5.67	3.22	63.98	0.3467	-0.1876	-0.191	
-0.962336	0.377834	0.007198	-2.94	-0.28	60.76	0.339	-0.198	-0.1902	
-0.946842	0.388692	-0.015982	-3.71	-4.62	58.1	0.3389	-0.1965	-0.1901	
-0.9394	0.427976	-0.0366	3.08	-3.85	53.9	0.3257	-0.2049	-0.1864	
-0.965264	0.458232	-0.020618	0.42	-3.22	48.44	0.3307	-0.2176	-0.1834	
-0.91012	0.499102	-0.063928	0.35	-9.45	43.82	0.3339	-0.2272	-0.1836	
-0.867054	0.500566	-0.044896	0.56	-9.45	43.19	0.3306	-0.229	-0.198	
-0.90524	0.46787	-0.02623	2.17	-2.38	42	0.3269	-0.2398	-0.2002	
-0.897798	0.477386	-0.010126	8.26	-5.46	40.32	0.3169	-0.2378	-0.2053	
-0.864492	0.487634	-0.016836	4.97	-9.94	39.83	0.3161	-0.2406	-0.196	
-0.871934	0.522526	0.017446	5.53	-8.47	36.89	0.3163	-0.2453	-0.1962	
-0.822158	0.550464	-0.001952	4.41	-12.81	34.23	0.3195	-0.2581	-0.2012	
-0.798734	0.598044	-0.016836	3.29	-11.76	29.61	0.3114	-0.2624	-0.2018	
-0.83326	0.610366	-0.024278	4.06	-9.94	28.42	0.2977	-0.2728	-0.2107	
-0.819108	0.594506	-0.034648	0.98	-11.41	27.16	0.3031	-0.2651	-0.2055	
-0.811178	0.621346	-0.039894	3.57	-9.38	24.22	0.3034	-0.2763	-0.2121	
-0.818254	0.611342	-0.037698	2.17	-7.28	22.4	0.2969	-0.2869	-0.2144	
-0.797148	0.57889	0.009516	0.84	-7.56	20.86	0.2963	-0.2776	-0.2173	
-0.836432	0.589138	-0.030134	1.54	-2.52	17.78	0.2999	-0.2869	-0.2095	
-0.797758	0.58743	0.007929999	3.78	3.64	16.38	0.2923	-0.2789	-0.216	
-0.82899	0.582428	0.013908	0.91	-11.55	15.4	0.2924	-0.2853	-0.2193	
-0.783362	0.570594	-0.012078	1.68	-16.45	15.19	0.2868	-0.2801	-0.2163	
-0.819352	0.580842	0.01769	7	-5.88	12.39	0.2926	-0.2884	-0.2194	
-0.801662	0.612562	0.026962	8.12	-9.8	11.55	0.2871	-0.2929	-0.223	
-0.81618	0.619394	0.011224	7.98	-12.25	10.64	0.2874	-0.2927	-0.2167	
-0.782264	0.629154	0.013176	9.87	-6.16	6.93	0.2817	-0.2941	-0.2233	
-0.767258	0.63562	0.020496	8.54	-5.11	5.67	0.2866	-0.3003	-0.2138	
-0.810934	0.666852	0.008662	8.61	-7.7	2.17	0.2852	-0.297	-0.2107	
-0.790438	0.6588	0.012566	6.86	-5.88	-0.21	0.2878	-0.294	-0.2104	
-0.759328	0.65758	0.02135	3.15	-4.69	-1.96	0.2852	-0.2953	-0.2074	
-0.777506	0.649528	0.024522	1.19	-3.01	-4.97	0.2823	-0.2953	-0.2108	
-0.786778	0.660508	0.024156	0.7	-1.82	-6.93	0.2894	-0.3004	-0.2121	
-0.78141	0.649772	0.016104	-0.07	-1.89	-8.89	0.2754	-0.2949	-0.2111	
-0.785192	0.648308	0.030744	-1.12	-0.7	-10.85	0.2825	-0.2919	-0.2028	
-0.779214	0.635132	0.01769	-1.89	-3.43	-12.81	0.2836	-0.297	-0.2139	
-0.788608	0.626958	0.028426	-0.84	-3.36	-14.49	0.2864	-0.2972	-0.2137	
-0.786778	0.618418	0.018666	-1.19	-2.73	-16.94	0.2804	-0.2891	-0.2154	
-0.796538	0.60268	0.02928	-0.7	0.42	-19.25	0.2914	-0.2882	-0.2147	
-0.798124	0.57889	0.047214	0	2.17	-21.77	0.2891	-0.2806	-0.2256	
-0.80093	0.581818	0.033184	2.59	-0.14	-24.64	0.2918	-0.2776	-0.2238	
-0.804712	0.567544	0.05307	3.78	-0.84	-28.56	0.2952	-0.287	-0.2208	
-0.814838	0.575718	0.012444	4.34	-4.97	-32.06	0.2944	-0.2746	-0.2251	
-0.837164	0.575352	0.032208	3.64	-0.21	-36.33	0.3087	-0.2784	-0.2182	
-0.842166	0.569862	0.0183	-0.56	-0.14	-40.74	0.2958	-0.2617	-0.2104	
-0.843874	0.566202	0.017568	-2.59	4.55	-45.22	0.3104	-0.2614	-0.2222	
-0.856806	0.549366	0.020496	-9.17	6.3	-51.94	0.3144	-0.2537	-0.217	
-0.862662	0.546804	0.022326	-12.32	7.91	-55.79	0.3095	-0.2458	-0.2233	
-0.876448	0.50874	0.024034	-15.33	9.31	-58.59	0.3069	-0.2536	-0.2285	
-0.883646	0.468358	0.018056	-16.87	9.66	-61.88	0.3134	-0.2366	-0.2197	
-0.892796	0.43249	0.020984	-17.15	11.06	-64.82	0.3276	-0.2171	-0.2182	
-0.881816	0.394182	0.01464	-14.42	10.57	-66.71	0.3262	-0.217	-0.2183	
-0.890844	0.370758	0.013908	-11.9	11.13	-68.88	0.3346	-0.2061	-0.2049	
-0.922442	0.362584	0.0122	-10.92	11.83	-70.28	0.3363	-0.1859	-0.2057	
-0.933422	0.321958	0.013664	-7.98	12.32	-71.05	0.3454	-0.1788	-0.2097	
-0.97844	0.28121	-0.003782	-3.92	12.88	-71.82	0.3444	-0.1719	-0.1937	
-0.972828	0.25986	-0.007808	0.49	11.62	-71.19	0.3485	-0.1619	-0.212	
-1.00772	0.224114	-0.009516	5.53	12.39	-70.77	0.3487	-0.1553	-0.2024	
-1.00101	0.1891	-0.008662	6.93	9.59	-71.19	0.3413	-0.1503	-0.2057	
-1.002962	0.17263	-0.018544	8.47	10.01	-72.24	0.3595	-0.1464	-0.1968	
-1.017602	0.143106	-0.030988	6.86	6.37	-71.47	0.3596	-0.123	-0.1975	
-1.008696	0.120414	-0.022448	5.74	5.18	-73.08	0.3534	-0.1135	-0.2022	
-1.03761	0.099918	-0.009881999	3.15	4.27	-75.04	0.3544	-0.1089	-0.2052	
-1.033706	0.096624	-0.03477	7.35	-1.68	-73.43	0.3579	-0.09339999	-0.2013	
-1.019554	0.052948	-0.032452	7.42	1.05	-76.3	0.363	-0.073	-0.1893	
-1.0248	0.019154	-0.00122	1.68	6.79	-77.28	0.3592	-0.0638	-0.2002	
-1.0187	-0.001098	-0.010248	4.97	5.25	-77.21	0.3521	-0.057	-0.1972	
-1.000034	-0.023424	-0.01769	3.5	1.82	-75.6	0.3546	-0.0493	-0.1937	
-1.019798	-0.02074	-0.013664	4.27	2.45	-71.26	0.3591	-0.0341	-0.1992	
-1.0675	-0.037698	-0.00854	3.43	-2.31	-69.3	0.3561	-0.0276	-0.1976	
-1.034682	-0.09272	-0.023058	6.3	-8.61	-69.44	0.3615	-0.02	-0.1923	
-1.016016	-0.054656	-0.031232	10.43	-6.37	-70.49	0.3607	-0.0042	-0.1902	
-1.053836	-0.091134	-0.005612	4.34	3.64	-70.84	0.353	0.0003	-0.2031	
-1.021384	-0.0854	0.025864	8.68	7	-70.28	0.3499	0.0165	-0.1932	
-1.02602	-0.131882	0.025376	3.5	-0.98	-67.48	0.3469	0.0165	-0.1981	
-1.015772	-0.167384	0.02562	6.23	-9.59	-67.9	0.34	0.0353	-0.2057	
-1.016138	-0.195078	0.01342	10.57	-8.89	-67.62	0.3416	0.0338	-0.2025	
-1.008574	-0.185684	0.040504	9.66	-4.13	-64.26	0.3414	0.0418	-0.1975	
-1.018944	-0.204228	0.035624	5.74	-11.97	-58.52	0.3387	0.0587	-0.2081	
-0.991982	-0.288042	-0.014884	2.38	-25.06	-51.94	0.3292	0.066	-0.1958	
-0.969168	-0.300242	0.008662	-0.42	-24.71	-50.96	0.3413	0.0698	-0.1997	
-0.960384	-0.306464	0.014518	5.53	-16.03	-47.25	0.3247	0.086	-0.2111	
-0.986858	-0.321104	0.063562	3.99	-14.84	-43.19	0.315	0.0898	-0.2067	
-0.947086	-0.355386	0.04331	3.92	-16.87	-40.6	0.3232	0.0909	-0.2078	
-0.925004	-0.352946	0.02379	2.38	-18.62	-39.13	0.3166	0.0985	-0.2236	
-0.919636	-0.354898	0.056608	0.98	-15.75	-36.82	0.3132	0.108	-0.2251	
-0.942694	-0.37149	0.053436	1.05	-12.32	-32.62	0.3058	0.113	-0.23	
-0.927688	-0.400404	0.060146	-2.87	-17.85	-32.13	0.3031	0.1164	-0.2253	
-0.913902	-0.405894	0.077836	-1.26	-12.04	-30.66	0.3061	0.1115	-0.2269	
-0.913048	-0.42151	0.057218	2.17	-8.05	-27.65	0.3098	0.1094	-0.2378	
-0.946964	-0.432002	0.077592	-0.98	-10.99	-27.37	0.3046	0.1316	-0.2357	
-0.866932	-0.440908	0.06649	-1.4	-8.4	-23.03	0.3	0.1163	-0.2334	
-0.969656	-0.41358	0.05673	0.42	-9.87	-24.64	0.3021	0.127	-0.236	
-0.916952	-0.444934	0.098698	-4.34	-7.84	-19.11	0.2951	0.1274	-0.238	
-0.95831	-0.451644	0.082838	-1.89	-9.52	-18.83	0.2945	0.14	-0.236	
-0.834968	-0.462014	0.086986	0.14	-6.58	-15.05	0.2922	0.1372	-0.2283	
-0.915854	-0.46848	0.0732	1.54	-10.01	-14.21	0.2984	0.1395	-0.2421	
-0.863882	-0.485438	0.09455	2.94	-5.6	-10.92	0.2989	0.1366	-0.2343	
-0.929152	-0.472018	0.095648	3.29	-5.74	-8.26	0.2822	0.156	-0.2455	
-0.903898	-0.454206	0.088206	3.43	-5.67	-5.53	0.2786	0.1485	-0.2413	
-0.9028	-0.457256	0.095892	1.61	-4.83	-3.99	0.2844	0.1419	-0.2428	
-0.893894	-0.478484	0.099308	0.07	-5.11	-2.59	0.2827	0.1434	-0.2475	
-0.86803	-0.488488	0.103822	1.4	-5.32	-1.47	0.2855	0.14	-0.2506	
-0.887672	-0.483974	0.105652	1.54	-6.09	0.42	0.2865	0.1397	-0.2585	
-0.889624	-0.483608	0.11102	0.84	-6.44	2.31	0.2885	0.1367	-0.2506	
-0.885598	-0.482632	0.110776	0.35	-6.86	3.64	0.2797	0.1417	-0.2556	
-0.895968	-0.488244	0.117364	-0.14	-6.3	5.32	0.2727	0.1421	-0.256	
-0.885232	-0.49166	0.10919	-1.75	-8.12	6.79	0.2838	0.143	-0.2553	
-0.892674	-0.490562	0.106262	-4.55	-8.61	8.33	0.2865	0.1413	-0.2568	
-0.89548	-0.489342	0.107604	-2.73	-8.26	10.57	0.2868	0.1333	-0.2602	
-0.887184	-0.482022	0.10309	-7.49	-8.75	12.32	0.2836	0.1462	-0.2552	
-0.90219	-0.495564	0.109556	-4.34	-6.09	15.12	0.285	0.1477	-0.2535	
-0.893162	-0.48007	0.111752	-2.1	-4.27	18.06	0.2839	0.1367	-0.2587	
-0.892308	-0.481168	0.124562	-1.47	-2.24	21.35	0.2842	0.132	-0.2589	
-0.88633	-0.457134	0.117852	-1.54	-1.68	24.08	0.2906	0.1394	-0.2598	
-0.88938	-0.442372	0.11651	-1.05	0.28	26.88	0.2883	0.1301	-0.2603	
-0.893528	-0.435052	0.11773	-2.73	-0.98	29.89	0.2829	0.1273	-0.2607	
-0.903044	-0.428464	0.130052	-0.91	4.9	34.58	0.2916	0.1173	-0.2637	
-0.91439	-0.41724	0.127978	-0.35	6.09	38.01	0.2969	0.1233	-0.2616	
-0.907192	-0.404186	0.123342	0.42	6.51	41.16	0.2954	0.1082	-0.2512	
-0.911706	-0.386618	0.122	-1.68	7.07	43.89	0.2982	0.1064	-0.2527	
-0.919514	-0.365512	0.120048	-0.35	9.8	46.97	0.2998	0.1016	-0.2544	
-0.92293	-0.340136	0.105286	-1.68	9.31	49.63	0.3101	0.0853	-0.2575	
-0.928664	-0.33306	0.092598	0.49	12.18	52.71	0.312	0.0807	-0.2513	
-0.94733	-0.322324	0.103822	-3.71	13.23	55.3	0.3107	0.0824	-0.2481	
-0.944646	-0.295606	0.082228	-3.01	14.35	57.4	0.3128	0.0731	-0.2436	
-0.94916	-0.281332	0.097722	-6.79	15.12	60.27	0.3172	0.0698	-0.2419	
-0.960628	-0.275598	0.092232	-2.03	19.67	63.42	0.3232	0.0649	-0.237	
-0.970754	-0.248026	0.0732	-4.13	18.34	65.52	0.331	0.0505	-0.234	
-0.992348	-0.215086	0.088206	-1.33	20.79	68.18	0.3337	0.0487	-0.237	
-1.000278	-0.180682	0.073688	-1.54	20.72	69.58	0.3426	0.0389	-0.2353	
-1.019798	-0.133346	0.05185	2.87	20.44	70.91	0.3463	0.028	-0.2276	
-0.995764	-0.09162199	0.05063	6.37	17.78	71.12	0.3472	0.0205	-0.2168	
-1.009184	-0.072224	0.03294	6.86	10.71	73.57	0.3511	0.0001	-0.2142	
-1.010892	-0.060756	0.028304	11.06	10.22	76.44	0.351	-0.0064	-0.2239	
-0.979416	-0.025864	0.029402	19.95	10.57	74.76	0.3564	-0.0236	-0.2163	
-1.002596	0.032574	0.00122	26.6	11.34	72.94	0.3631	-0.0377	-0.2054	
-1.024434	0.08967	0.021228	26.6	11.9	74.55	0.352	-0.0468	-0.2173	
-1.008452	0.11651	0.004148	31.57	14.91	74.83	0.3556	-0.0577	-0.2112	
-1.011014	0.159454	-0.003782	33.81	13.44	74.83	0.3578	-0.0686	-0.2068	
-0.988444	0.147254	-0.016348	27.37	13.93	77.14	0.3561	-0.0823	-0.1979	
-0.962458	0.211548	-0.01769	29.82	11.62	79.8	0.3566	-0.0998	-0.2079	
-0.96258	0.237046	0.007076	29.4	8.75	83.3	0.3675	-0.1222	-0.2049	
-0.986736	0.30134	0.01647	25.62	4.13	82.46	0.357	-0.1244	-0.1961	
-1.010282	0.304024	0.029768	18.34	5.67	82.04	0.3547	-0.132	-0.1949	
-1.011014	0.303292	0.022082	14.84	3.57	78.68	0.3513	-0.1523	-0.2021	
-1.018578	0.333426	0.028792	9.38	1.47	73.92	0.3495	-0.1661	-0.1964	
-0.99674	0.35136	0.028548	2.45	0.84	71.33	0.3556	-0.1725	-0.1916	
-0.98271	0.356362	-0.004758	-3.29	-7.77	70.49	0.3449	-0.1765	-0.1891	
-1.002108	0.360388	-0.011224	-3.5	-17.22	70.77	0.3438	-0.1957	-0.204	
-0.96746	0.371246	-0.015494	-13.16	-17.5	67.41	0.3346	-0.2012	-0.2	
-0.990518	0.373686	-0.034404	-10.22	-21.28	65.59	0.3306	-0.196	-0.1906	
-0.955992	0.378078	-0.017568	-15.47	-19.88	63.98	0.3199	-0.2162	-0.206	
-0.96929	0.398574	-0.022204	-11.97	-17.43	63.14	0.3231	-0.2241	-0.2045	
-0.942328	0.402356	-0.001098	-9.17	-7.21	61.11	0.3067	-0.236	-0.2137	
-0.935862	0.399672	0.025864	-7.91	-14.49	59.15	0.3155	-0.2442	-0.2119	
-0.925126	0.402966	0.024766	-4.2	-13.51	57.47	0.296	-0.2481	-0.221	
-0.929884	0.448838	0.031354	-1.12	-9.31	53.62	0.3041	-0.2486	-0.2237	
-0.873276	0.474702	0.006832	1.54	-12.46	47.6	0.3032	-0.2612	-0.2289	
-0.936716	0.568886	0.049532	7.42	-11.41	44.73	0.2959	-0.2513	-0.2258	
-0.786534	0.504348	0.040382	-10.22	-7.14	42.84	0.2957	-0.2732	-0.225	
-0.85583	0.544852	-0.008417999	-0.56	-3.15	39.76	0.2872	-0.2761	-0.2334	
-0.84546	0.57035	0.027694	1.96	3.22	35	0.2863	-0.274	-0.2208	
-0.81008	0.554612	0.03477	-2.38	-4.69	33.88	0.2735	-0.2718	-0.2246	
-0.819352	0.57767	0.027084	-0.77	-7.7	31.78	0.2743	-0.2892	-0.2283	
-0.827038	0.593896	0.048434	-0.42	-0.14	27.58	0.2782	-0.2863	-0.2296	
-0.825452	0.607194	0.045384	-1.54	0.63	24.43	0.2712	-0.2876	-0.2331	
-0.800442	0.615612	0.037088	-1.68	-2.03	21	0.2722	-0.2967	-0.2224	
-0.795196	0.62159	0.038552	-1.4	0.21	19.04	0.2649	-0.2965	-0.229	
-0.801052	0.642452	0.050752	1.33	0.77	16.73	0.2718	-0.2953	-0.2286	
-0.784826	0.629154	0.079788	0.91	-13.37	16.8	0.272	-0.2968	-0.2255	
-0.77409	0.637694	0.03538	1.05	-7.91	13.79	0.2592	-0.2947	-0.2324	
-0.737368	0.646234	0.061122	2.17	-6.37	13.09	0.2615	-0.3055	-0.2248	
-0.756156	0.642452	0.059536	1.05	-7.49	10.64	0.2514	-0.3019	-0.23	
-0.728096	0.653676	0.068686	1.47	-7.7	8.19	0.2581	-0.2993	-0.2311	
-0.732366	0.667706	0.080154	2.17	-4.76	5.39	0.2583	-0.3121	-0.241	
-0.7442	0.66063	0.085034	-0.49	-5.6	5.04	0.2496	-0.3037	-0.2396	
-0.746884	0.676124	0.089548	1.26	-4.2	1.4	0.2538	-0.3023	-0.2361	
-0.743224	0.684664	0.091256	1.47	-3.29	-0.49	0.2565	-0.3009	-0.2375	
-0.753838	0.69052	0.103822	1.89	-0.98	-2.45	0.2517	-0.3114	-0.2334	
-0.742492	0.690886	0.08686399	-1.89	-3.29	-5.39	0.2552	-0.3024	-0.2361	
-0.741882	0.68564	0.083204	-1.96	-1.05	-7.77	0.2539	-0.3039	-0.2378	
-0.751276	0.68137	0.083692	-3.85	-0.14	-10.15	0.2537	-0.3008	-0.2377	
-0.764818	0.68381	0.077104	-6.3	0.49	-12.95	0.2537	-0.3024	-0.2393	
-0.75945	0.67161	0.077226	-7.14	0.28	-16.24	0.2576	-0.2947	-0.2357	
-0.766648	0.660264	0.065758	-6.3	-0.21	-19.6	0.2693	-0.303	-0.2306	
-0.774334	0.64965	0.074664	-6.58	1.47	-23.52	0.2632	-0.2917	-0.2305	
-0.76982	0.63867	0.075396	-7.49	1.89	-27.51	0.2573	-0.2819	-0.2274	
-0.767136	0.62037	0.074542	-6.72	2.94	-31.01	0.2599	-0.2855	-0.2352	
-0.783362	0.622322	0.079422	-6.58	7.84	-36.68	0.2636	-0.2795	-0.238	
-0.78629	0.618906	0.078568	-7.7	8.54	-40.25	0.2745	-0.2771	-0.2389	
-0.791902	0.612318	0.068808	-8.47	6.44	-44.38	0.2697	-0.2643	-0.2387	
-0.789828	0.587674	0.067954	-9.52	4.83	-47.88	0.2758	-0.2772	-0.2404	
-0.803248	0.57401	0.070272	-9.38	4.69	-51.24	0.2842	-0.2576	-0.2456	
-0.833138	0.537166	0.050386	-11.06	3.36	-52.43	0.286	-0.2509	-0.2311	
-0.86437	0.517646	0.068442	-10.29	3.64	-54.74	0.2912	-0.2596	-0.2468	
-0.864614	0.51423	0.045628	-6.79	3.71	-57.4	0.2964	-0.2439	-0.2366	
-0.895114	0.491904	0.062098	-7.14	9.17	-60.06	0.302	-0.2275	-0.2467	
-0.890112	0.455914	0.067588	-7	15.4	-61.18	0.3129	-0.2152	-0.2347	
-0.91805	0.399916	0.070272	-10.22	14.14	-61.11	0.3123	-0.2059	-0.2375	
-0.92476	0.359656	0.04148	-8.61	9.17	-59.08	0.3133	-0.1949	-0.234	
-0.948062	0.331962	0.036112	-10.64	10.57	-58.17	0.3202	-0.1937	-0.2336	
-0.9516	0.330742	0.031354	-12.04	7.7	-57.33	0.3154	-0.1842	-0.2366	
-0.959286	0.300364	0.009393999	-12.74	11.34	-57.47	0.3248	-0.1704	-0.2278	
-0.984296	0.28365	0.02013	-11.2	13.16	-56.77	0.3273	-0.174	-0.2372	
-0.93879	0.272426	0.026718	-12.25	16.24	-55.3	0.3288	-0.1626	-0.221	
-1.010892	0.242658	0.016836	-15.12	18.97	-55.51	0.339	-0.1558	-0.2328	
-0.962092	0.314394	0.025376	-14	21.98	-58.03	0.3351	-0.1521	-0.2235	
-1.003328	0.225578	0.046604	-31.08	26.95	-60.27	0.3348	-0.1258	-0.2288	
-0.965142	0.185196	0.042822	-34.65	31.08	-59.08	0.3378	-0.1274	-0.2272	
-0.93086	0.140544	-0.014518	-36.89	32.62	-57.19	0.3466	-0.1146	-0.2011	
-0.985272	0.114436	0.005368	-34.93	30.66	-56.49	0.3606	-0.1034	-0.2141	
-1.016626	0.132248	0.04636	-37.38	38.64	-57.4	0.344	-0.0926	-0.202	
-1.026264	0.116388	0.014884	-41.23	37.87	-56.28	0.3603	-0.08899999	-0.2042	
-1.031754	0.047214	0.012444	-39.76	30.31	-49.98	0.3606	-0.0758	-0.1832	
-0.972462	0.044164	0.013176	-30.66	28.91	-43.54	0.3606	-0.0542	-0.1904	
-1.023458	-0.023058	-0.006344	-32.62	29.89	-36.82	0.3661	-0.0561	-0.1917	
-1.026264	-0.033428	-0.003904	-17.29	29.54	-33.53	0.3652	-0.059	-0.1856	
-1.012356	-0.03721	0.011468	-16.73	17.22	-28.14	0.3698	-0.0556	-0.171	
-1.029924	-0.083204	-0.006588	-10.08	13.23	-23.38	0.3646	-0.0367	-0.1738	
-1.016504	-0.077836	-0.024034	1.05	12.32	-20.79	0.3586	-0.0318	-0.1771	
-1.052616	-0.073566	-0.028914	9.94	9.59	-13.93	0.371	-0.0212	-0.1666	
-1.051274	-0.05246	-0.035624	16.31	12.11	-10.29	0.3683	-0.0242	-0.1685	
-1.025044	-0.048556	-0.03782	16.8	8.33	-5.88	0.3699	-0.0339	-0.175	
-1.012478	-0.034892	-0.054534	20.16	7.21	-1.54	0.3719	-0.0303	-0.1575	
-1.016504	-0.020618	-0.06039	26.53	3.99	2.59	0.3718	-0.0353	-0.1655	
-1.048468	-0.032086	-0.056486	34.37	-2.73	10.29	0.3625	-0.0376	-0.1598	
-1.025288	-0.04026	-0.053436	33.67	-0.98	12.46	0.3726	-0.0244	-0.1667	
-1.022116	-0.048678	-0.074176	31.36	-11.83	17.64	0.3767	-0.0464	-0.1625	
-1.04798	-0.055266	-0.06734399	40.74	-24.92	17.22	0.3796	-0.0513	-0.1641	
-1.031998	-0.04209	-0.057584	32.06	-22.19	7.42	0.3724	-0.0543	-0.174	
-0.989664	-0.012078	-0.096014	34.37	-14	2.8	0.3659	-0.0633	-0.1747	
-1.058838	-0.048434	-0.098698	29.19	-8.33	7.56	0.3697	-0.0541	-0.1726	
-1.05774	-0.066124	-0.026596	36.33	-34.16	6.65	0.3675	-0.0681	-0.1747	
-1.048102	0.017568	-0.03904	47.04	-18.34	7.63	0.3774	-0.0702	-0.1727	
-1.001376	-0.069906	-0.049532	42.07	-6.51	8.47	0.3767	-0.0577	-0.1739	
-1.085312	-0.021106	-0.061488	52.85	0.07	9.52	0.3662	-0.0712	-0.1765	
-1.028826	-0.02867	-0.144814	79.03	7.35	8.89	0.375	-0.0779	-0.1747	
-1.012234	0.147742	0.071858	97.44	14	16.73	0.3712	-0.0871	-0.1768	
-0.992226	0.03355	-0.091378	55.51	4.62	17.15	0.3652	-0.0741	-0.1719	
-1.020774	0.046116	-0.10492	69.79	-5.18	13.93	0.3689	-0.0915	-0.1723	
-1.008208	0.186172	-0.134688	86.17	3.92	15.47	0.3592	-0.1061	-0.1592	
-0.98027	0.22143	-0.11102	80.85	7.84	17.85	0.3744	-0.1151	-0.1697	
-0.970022	0.201056	-0.07381	69.79	11.97	19.32	0.3712	-0.1223	-0.1559	
-1.00223	0.160552	-0.160552	44.94	-25.69	22.96	0.3623	-0.1174	-0.1641	
-0.894748	0.264496	-0.101992	64.89	24.64	16.94	0.3704	-0.1332	-0.1564	
-1.014064	0.251808	-0.010858	57.61	14.56	16.17	0.3609	-0.1357	-0.1554	
-0.915122	0.272792	-0.123464	56.7	3.15	10.78	0.3597	-0.1387	-0.154	
-1.012478	0.22936	-0.152988	51.87	13.16	13.72	0.3643	-0.1403	-0.1459	
-1.016626	0.292556	0.041602	37.73	31.64	10.29	0.3708	-0.1578	-0.1462	
-0.975878	0.231434	-0.113094	41.72	-22.4	21	0.3667	-0.1494	-0.1351	
-0.982222	0.192638	-0.101748	29.33	1.61	16.52	0.3683	-0.1558	-0.1368	
-0.96746	0.166408	-0.108214	34.02	10.78	8.4	0.3593	-0.1629	-0.1312	
-0.998936	0.159942	-0.08418	27.37	2.66	13.58	0.3678	-0.1665	-0.1309	
-0.999668	0.14579	-0.10736	32.34	-2.17	14.56	0.3594	-0.1628	-0.1281	
-0.938546	0.197884	-0.12322	22.96	0.14	7.56	0.3568	-0.169	-0.1316	
-0.99247	0.176534	-0.101748	29.82	2.94	8.19	0.3679	-0.1696	-0.131	
-1.002718	0.18727	-0.106384	27.79	1.19	9.1	0.3611	-0.174	-0.1347	
-1.007598	0.19154	-0.099552	26.39	1.61	6.58	0.3636	-0.1814	-0.119	
-1.001864	0.18361	-0.118706	22.26	1.96	3.92	0.3633	-0.1816	-0.1254	
-0.996618	0.16226	-0.12017	18.13	2.73	2.87	0.3734	-0.1852	-0.1202	
-0.991006	0.169336	-0.117364	16.87	2.52	1.47	0.3645	-0.177	-0.1251	
-0.98271	0.169946	-0.113094	15.26	2.8	1.89	0.3693	-0.1849	-0.1189	
-0.987956	0.178364	-0.113338	14.28	3.08	1.75	0.3636	-0.1766	-0.1141	
-0.98454	0.184342	-0.110166	11.83	3.36	2.59	0.3665	-0.1847	-0.119	
-0.989542	0.183122	-0.101992	10.57	3.5	3.5	0.3762	-0.1837	-0.1169	
-0.996618	0.191174	-0.102358	6.51	3.71	3.01	0.3673	-0.1874	-0.1049	
-1.00101	0.1891	-0.11712	4.69	2.66	1.54	0.368	-0.1799	-0.1125	
-0.997594	0.200202	-0.118096	3.08	2.1	1.12	0.3686	-0.1875	-0.1064	
-0.99125	0.206668	-0.127856	0.91	1.12	1.54	0.3697	-0.1879	-0.1142	
-0.991616	0.202764	-0.127002	-1.96	0.77	1.05	0.3723	-0.1881	-0.1172	
-0.990396	0.191906	-0.131028	-5.18	0.91	0.14	0.3698	-0.1942	-0.1176	
-0.98515	0.177022	-0.13481	-8.68	0.14	0.49	0.3651	-0.1831	-0.119	
-0.982954	0.199104	-0.141276	-10.92	2.52	-0.63	0.3723	-0.1784	-0.1074	
-0.983564	0.208864	-0.129686	-13.02	3.08	-0.63	0.3686	-0.1924	-0.1129	
-0.979782	0.213988	-0.1403	-14.63	3.22	-1.19	0.364	-0.186	-0.1144	
-0.980514	0.210084	-0.157868	-19.74	4.97	-2.66	0.3645	-0.1938	-0.1131	
-0.987956	0.210816	-0.14701	-26.11	5.67	-3.85	0.3707	-0.1817	-0.1139	
-0.966362	0.22143	-0.163358	-28.98	5.81	-5.46	0.3762	-0.1804	-0.1136	
-0.98088	0.215086	-0.155428	-37.8	4.9	-5.39	0.3696	-0.1863	-0.1142	
-0.988688	0.23058	-0.139202	-45.22	10.22	-8.68	0.3689	-0.169	-0.1105	
-1.007232	0.231068	-0.1525	-64.12	8.19	-12.74	0.3702	-0.1707	-0.1136	
-0.984662	0.239608	-0.151158	-67.55	8.61	-17.92	0.3752	-0.1682	-0.1227	
-0.954284	0.24278	-0.126148	-64.47	9.45	-21.84	0.3752	-0.1681	-0.1211	
-0.962458	0.253638	-0.127612	-59.64	11.13	-26.39	0.3796	-0.1579	-0.1347	
-0.989786	0.204716	-0.137616	-62.16	7.49	-26.46	0.3742	-0.1526	-0.1253	
-0.977342	0.189954	-0.136396	-56.07	2.87	-27.93	0.3749	-0.1467	-0.1346	
-0.97966	0.211548	-0.114924	-52.22	6.58	-30.03	0.3748	-0.1338	-0.1215	
-0.940498	0.190076	-0.15921	-49	3.57	-27.65	0.3845	-0.1343	-0.121	
-1.076772	0.143228	-0.213744	-54.53	20.44	-28.56	0.3849	-0.1141	-0.1203	
-1.037122	0.15494	-0.162992	-56.42	8.54	-37.87	0.3861	-0.1126	-0.1218	
-0.985516	0.188124	-0.154574	-68.46	-9.59	-21.42	0.3817	-0.1077	-0.1234	
-1.051884	0.10614	-0.107238	-83.02	-9.73	-18.69	0.3836	-0.1004	-0.1325	
-1.064328	0.106872	-0.137494	-60.13	-12.74	-16.24	0.3774	-0.0891	-0.134	
-0.996008	0.07442	-0.202886	-59.57	-25.06	-13.02	0.3897	-0.0884	-0.1365	
-0.99491	0.159088	-0.185806	-46.9	-25.48	-13.23	0.3807	-0.0803	-0.143	
-1.099098	-0.048312	-0.103822	-80.78	-0.91	-15.61	0.3821	-0.08679999	-0.1494	
-1.053226	0.101626	-0.041724	-37.8	6.02	-24.15	0.3844	-0.07759999	-0.1505	
-1.011014	0.127612	-0.102236	-74.13	-21	-18.62	0.3795	-0.0714	-0.1585	
-0.895846	0.129564	-0.204228	-65.59	-10.92	-17.15	0.372	-0.0616	-0.1601	
-1.093852	0.024278	-0.15006	-67.9	37.1	-33.67	0.3737	-0.0463	-0.1658	
-1.047248	0.131516	-0.06893	-19.25	67.34	-32.69	0.3702	-0.0343	-0.1388	
-1.06384	0.068076	-0.0488	-69.16	37.03	-31.57	0.3823	-0.0488	-0.1339	
-1.005402	0.074054	-0.167872	-47.32	10.01	-30.31	0.3885	-0.0416	-0.1412	
-0.986004	0.025742	-0.161528	-86.52	12.53	-38.78	0.3816	-0.0314	-0.1286	
-0.702598	-0.50691	-0.32269	-51.31	-24.64	51.24	0.3818	-0.0129	-0.1343	
-1.067744	-0.074298	-0.328668	17.99	-20.72	-16.17	0.386	-0.0099	-0.1292	
-1.022604	-0.128588	-0.115656	-93.94	8.26	-24.36	0.3834	-0.0112	-0.1263	
-1.0126	-0.002684	-0.076738	-34.65	9.03	-13.16	0.3854	-0.0135	-0.1451	
-0.945012	-0.308416	-0.045506	-89.25	-3.57	-7.14	0.3748	-0.011	-0.1346	
-0.991982	-0.125782	-0.179706	-40.81	-10.29	-7.98	0.3767	0.006	-0.1339	
-1.039318	-0.101504	-0.013176	-40.67	-13.16	-5.74	0.3676	0.0157	-0.1403	
-1.007842	-0.233752	-0.105164	-77.84	9.73	-1.47	0.3753	0.0109	-0.1291	
-1.013942	-0.111386	-0.083204	-32.2	17.5	-3.22	0.3744	0.0103	-0.148	
-1.022604	-0.118218	-0.077958	-28.49	14	-0.7	0.3709	0.0143	-0.1308	
-1.012966	-0.09821	-0.104554	-23.73	-0.56	2.52	0.3818	0.0119	-0.1366	
-1.011258	-0.030378	-0.128954	-11.76	2.03	4.06	0.3761	0.0137	-0.1368	
-1.010648	-0.015128	-0.1037	-10.85	6.93	2.8	0.3762	0.0106	-0.1385	
-1.004182	0.009516	-0.116266	-10.22	4.55	3.01	0.3806	0.0089	-0.1352	
-1.004914	0.028182	-0.111142	-6.79	7.91	1.4	0.3822	0.0105	-0.1287	
-1.00833	0.020496	-0.10004	-7	4.2	1.26	0.3777	0.0073	-0.1401	
-1.002352	0.0183	-0.102236	-6.51	4.34	1.82	0.3806	0.0121	-0.1319	
-1.002596	0.022936	-0.110654	-5.74	4.2	2.94	0.3776	0.0218	-0.127	
-1.008208	0.033062	-0.103578	-5.6	6.16	3.85	0.3777	0.0251	-0.1206	
-1.018212	0.04026	-0.094062	-6.09	2.38	4.76	0.3839	0.014	-0.1175	
-1.018944	0.049654	-0.1037	-4.13	0.14	5.46	0.3767	0.0092	-0.1306	
-1.025166	0.061488	-0.104188	-3.29	0.84	5.67	0.3847	0.0135	-0.1301	
-1.031388	0.058316	-0.113338	-2.59	-0.49	5.6	0.3783	0.0093	-0.1258	
-1.017846	0.035868	-0.112118	-1.68	-0.07	5.32	0.3789	0.0217	-0.1285	
-1.008452	0.034404	-0.112606	0.28	-0.98	5.04	0.3876	0.0101	-0.1316	
-0.985028	0.022814	-0.117486	0.84	-0.42	4.2	0.3894	0.0119	-0.122	
-0.986126	0.035868	-0.124928	3.15	0.7	2.38	0.3772	0.0048	-0.1229	
-0.996618	0.069052	-0.130174	3.64	1.54	0.28	0.3821	0.0153	-0.1254	
-1.01077	0.073688	-0.127246	0.91	2.31	-1.89	0.3797	0.0061	-0.1274	
-1.01931	0.069052	-0.134078	0.14	1.47	-2.66	0.3824	0.0075	-0.1272	
-1.010648	0.05429	-0.127124	-1.47	1.54	-3.01	0.3884	-0.0005	-0.1256	
-1.011014	0.054046	-0.13664	-1.54	0.35	-2.45	0.3824	0.0123	-0.1224	
-1.00528	0.047824	-0.139812	-0.42	1.05	-2.87	0.3783	0.0061	-0.1291	
-1.009672	0.042212	-0.13115	0.35	1.47	-3.36	0.3797	0.0044	-0.1306	
-1.00101	0.036112	-0.137616	2.73	0.42	-2.87	0.3883	0.009	-0.119	
-1.00711	0.05185	-0.138348	4.2	0.56	-2.8	0.3807	0.0187	-0.1222	
-1.003938	0.04941	-0.124318	2.87	0.77	-3.5	0.3795	0.0221	-0.1143	
-1.014186	0.038186	-0.124928	3.08	0.77	-3.99	0.3817	0.0112	-0.1098	
-1.022482	0.008905999	-0.118462	3.99	0.49	-3.92	0.3891	0.0231	-0.1153	
-1.011502	0.00183	-0.118096	5.74	-1.19	-2.8	0.3792	0.0187	-0.1239	
-1.007598	0.001952	-0.11163	6.58	-0.91	-2.52	0.3792	0.0122	-0.132	
-1.009428	-0.008784	-0.11712	8.19	-2.59	-1.96	0.3842	0.0093	-0.1161	
-1.001376	-0.032696	-0.124806	10.71	-2.8	-1.05	0.3806	0.0121	-0.1319	
-0.997472	-0.070272	-0.10309	13.65	-2.94	0.56	0.3778	0.0187	-0.1255	
-0.99369	-0.075274	-0.115046	19.6	-5.25	2.87	0.3808	0.029	-0.1376	
-1.002596	-0.046726	-0.12383	27.02	-3.92	3.92	0.372	0.0124	-0.1387	
-1.022604	-0.066124	-0.102968	31.57	-8.19	5.95	0.3787	0.007	-0.1479	
-1.007598	-0.08052	-0.12078	38.78	-8.47	11.69	0.3781	0.0092	-0.129	
-1.000034	-0.072712	-0.097722	44.03	-8.75	13.51	0.3784	0.0013	-0.1308	
-0.98698	-0.018788	-0.089304	52.71	-6.3	16.17	0.379	-0.0047	-0.1263	
-1.0248	-0.035014	-0.12444	47.53	-4.2	15.19	0.3791	-0.0176	-0.1377	
-1.090314	-0.060634	-0.131394	40.81	-6.16	17.64	0.3828	-0.0182	-0.1486	
-0.987346	-0.037942	-0.140544	49.84	-9.38	20.23	0.3863	-0.0178	-0.1311	
-0.980514	-0.079178	-0.1464	42.28	-9.45	24.01	0.3795	-0.0238	-0.1364	
-0.997106	0.09455	-0.225822	73.08	-2.94	15.68	0.3729	-0.0329	-0.1402	
-1.11813	0.15799	-0.088694	57.82	-7.21	16.38	0.3899	-0.0449	-0.1428	
-1.09068	0.117242	-0.119682	61.04	-23.59	23.03	0.3805	-0.0523	-0.1467	
-1.018212	0.067222	-0.11041	31.08	-15.68	26.67	0.3863	-0.054	-0.1418	
-0.977586	0.041724	-0.131882	35.35	-33.04	28.14	0.3736	-0.0616	-0.1569	
-1.0065	0.015494	-0.119926	25.13	-34.3	30.17	0.3866	-0.0717	-0.1549	
-0.952088	0.021716	-0.084668	24.01	-29.89	24.78	0.3751	-0.068	-0.1602	
-1.035048	0.020008	-0.138714	28.35	-32.2	24.15	0.3696	-0.0742	-0.167	
-0.969534	0.107116	-0.075762	70.49	-15.47	18.97	0.3716	-0.0836	-0.164	
-1.057008	0.05551	-0.061122	37.24	-10.5	24.64	0.3724	-0.0792	-0.1717	
-1.01748	0.115534	-0.070638	68.53	-15.26	13.86	0.3719	-0.08989999	-0.1658	
-1.042612	0.044042	-0.117608	55.23	-0.63	10.43	0.3608	-0.0925	-0.1696	
-0.955992	0.142374	-0.14396	86.87	2.73	21.21	0.3622	-0.099	-0.1745	
-0.996008	0.061244	-0.023912	52.43	25.06	20.23	0.3626	-0.102	-0.1699	
-0.979782	0.14274	-0.056242	87.71	-10.15	24.92	0.3669	-0.1053	-0.1698	
-1.035292	0.137006	-0.146156	62.58	-26.88	28.21	0.3639	-0.1222	-0.1658	
-0.98759	0.103456	-0.157624	49.07	-19.46	22.4	0.3716	-0.1231	-0.178	
-0.987956	0.272914	-0.074542	83.23	12.39	15.12	0.3728	-0.1368	-0.1674	
-1.039074	0.16348	-0.05063	57.54	-6.09	18.76	0.3678	-0.1475	-0.168	
-0.869006	0.425902	-0.187392	81.62	-8.96	6.93	0.3621	-0.1505	-0.1747	
-0.96563	0.357826	-0.08052	54.74	2.1	16.52	0.3694	-0.1474	-0.1632	
-0.899018	0.267058	-0.342942	56.91	36.26	12.53	0.3707	-0.1676	-0.1575	
-1.027972	0.269376	0.054534	46.48	50.05	10.36	0.3581	-0.1573	-0.1516	
-0.93086	0.336476	-0.137128	53.62	-22.33	19.32	0.3728	-0.1656	-0.1416	
-0.986614	0.26657	-0.14152	43.89	-18.69	10.43	0.3713	-0.1672	-0.1449	
-0.994178	0.260592	-0.080398	39.62	5.95	8.05	0.3662	-0.1649	-0.1325	
-0.991616	0.235704	-0.082594	40.46	-6.51	7.91	0.3711	-0.1793	-0.1343	
-0.982222	0.23546	-0.129442	45.85	-3.08	8.96	0.3644	-0.1787	-0.1283	
-0.974048	0.254736	-0.119194	40.39	4.13	5.6	0.368	-0.1777	-0.1391	
-0.98088	0.274012	-0.119682	37.59	1.33	6.65	0.3717	-0.1901	-0.1315	
-0.992714	0.288042	-0.112362	29.19	1.75	3.92	0.3646	-0.1818	-0.1284	
-0.993812	0.264374	-0.119438	23.59	-1.54	2.66	0.3657	-0.1837	-0.1347	
-0.984296	0.230458	-0.128954	15.61	2.1	0.7	0.3619	-0.188	-0.1319	
-0.986248	0.185074	-0.131272	17.43	-1.12	-0.49	0.3611	-0.1941	-0.1275	
-0.987712	0.173362	-0.137128	18.55	0.63	-2.8	0.3669	-0.1806	-0.1362	
-0.990518	0.165188	-0.128222	20.09	0.14	-2.31	0.3636	-0.1911	-0.1288	
-0.98393	0.171776	-0.140788	21.63	0.14	-2.66	0.3671	-0.1941	-0.1177	
-0.998326	0.156038	-0.12993	20.86	-0.84	-1.05	0.3651	-0.1912	-0.1272	
-1.154852	-0.019398	-0.107726	15.26	-0.84	-1.82	0.3627	-0.1907	-0.1178	
-0.9272	0.196054	-0.133956	35.7	-1.26	3.78	0.3606	-0.1998	-0.1151	
-1.001986	0.175314	-0.12566	24.78	1.4	1.75	0.3618	-0.2	-0.1182	
-0.997838	0.1891	-0.12383	24.57	-0.77	2.94	0.3698	-0.1942	-0.1176	
-0.997838	0.21472	-0.11163	22.05	1.4	1.54	0.3715	-0.199	-0.1176	
-0.992348	0.198372	-0.122	18.34	0.14	0.98	0.3686	-0.1957	-0.1161	
-0.974658	0.195932	-0.121024	15.33	0.28	0.35	0.3742	-0.1975	-0.1159	
-0.97905	0.192028	-0.124318	11.9	0.63	0.07	0.3692	-0.205	-0.1133	
-0.983686	0.204838	-0.123342	8.68	0.56	0.28	0.3716	-0.2054	-0.121	
-0.99003	0.208742	-0.133346	5.39	0.7	0.63	0.3748	-0.1955	-0.1016	
-0.992348	0.198372	-0.133102	1.54	1.68	0.35	0.377	-0.1896	-0.1076	
-0.988322	0.193736	-0.146278	-1.33	1.61	0.21	0.3758	-0.1926	-0.1062	
-0.99064	0.190442	-0.149206	-1.26	0.84	0.07	0.3779	-0.2036	-0.1033	
-0.998082	0.183732	-0.150548	-1.96	0.91	0.21	0.3662	-0.1969	-0.11	
-0.996618	0.182878	-0.149938	-2.73	0.07	0.7	0.3617	-0.1969	-0.1181	
-0.986126	0.178974	-0.150304	-3.64	1.05	-0.14	0.3715	-0.1973	-0.1144	
-0.987102	0.17263	-0.154452	-6.02	0.91	-0.49	0.3742	-0.1927	-0.111	
-0.983686	0.17995	-0.14823	-6.37	1.33	-0.35	0.3718	-0.2004	-0.113	
-1.000156	0.19276	-0.138348	-5.67	1.12	0	0.3747	-0.2021	-0.1113	
-0.991494	0.198616	-0.14884	-8.12	0.35	-0.28	0.3776	-0.2054	-0.1128	
-0.996618	0.200324	-0.142618	-9.24	1.12	-1.05	0.3633	-0.1935	-0.1084	
-0.988932	0.18422	-0.141398	-11.2	1.26	-1.26	0.3725	-0.1913	-0.1173	
-0.982344	0.185806	-0.147498	-11.69	0.63	-1.19	0.3797	-0.1931	-0.1123	
-0.991738	0.201056	-0.14762	-11.97	1.33	-1.33	0.3654	-0.1893	-0.1192	
-0.985882	0.214476	-0.152866	-14.28	1.05	-1.54	0.367	-0.1974	-0.1226	
-0.99674	0.218868	-0.13298	-16.87	0.49	-2.38	0.3782	-0.1979	-0.1204	
-0.989908	0.223382	-0.149084	-19.32	-0.91	-3.57	0.3631	-0.1986	-0.1197	
-0.992958	0.21411	-0.14335	-23.8	-0.56	-5.39	0.3741	-0.196	-0.1174	
-0.975146	0.225578	-0.154818	-24.15	-5.25	-7.42	0.3747	-0.187	-0.1249	
-0.964044	0.236558	-0.1525	-36.47	-11.55	-8.82	0.3666	-0.1911	-0.1239	
-0.96929	0.24339	-0.142252	-44.59	5.04	-10.15	0.379	-0.1887	-0.1232	
-0.996862	0.272914	-0.118828	-50.05	1.33	-13.65	0.3726	-0.176	-0.1278	
-0.952942	0.266814	-0.125172	-51.87	0.49	-15.05	0.3727	-0.1791	-0.1279	
-0.962824	0.228628	-0.10919	-57.96	2.38	-14.14	0.3724	-0.1761	-0.131	
-0.919636	0.240096	-0.122976	-48.51	5.11	-15.54	0.3744	-0.1638	-0.1336	
-0.97905	0.197762	-0.108702	-52.15	8.89	-20.3	0.3701	-0.1621	-0.1353	
-0.942938	0.20374	-0.13054	-52.5	9.1	-20.16	0.3715	-0.1605	-0.1336	
-1.01931	0.206302	-0.11346	-61.32	6.02	-26.32	0.3678	-0.1464	-0.1381	
-1.014064	0.204716	-0.102724	-57.05	9.24	-26.67	0.369	-0.145	-0.1395	
-0.98881	0.247172	-0.135054	-47.6	12.6	-24.43	0.374	-0.136	-0.1421	
-0.9882	0.153476	-0.17324	-68.74	3.92	-23.17	0.3777	-0.1203	-0.1335	
-1.047248	0.166774	-0.125416	-57.89	-5.46	-28.14	0.3781	-0.1298	-0.1354	
-0.953308	0.14762	-0.11895	-65.1	-2.73	-10.01	0.3774	-0.1205	-0.1398	
-1.05469	0.20374	-0.150182	-55.09	-7.91	-8.12	0.3775	-0.1189	-0.1366	
-0.99125	0.057828	-0.134444	-79.52	-18.83	-1.4	0.3758	-0.1141	-0.1381	
-1.069696	0.135298	-0.149938	-33.88	-12.67	-5.46	0.3747	-0.1019	-0.1472	
-1.024556	0.051362	-0.180438	-31.78	19.46	-16.87	0.3746	-0.102	-0.1503	
-1.014918	0.093818	-0.037698	-59.15	18.06	-11.34	0.382	-0.095	-0.1607	
-1.004182	0.064782	-0.106384	-44.94	-16.87	-13.72	0.3748	-0.08989999	-0.1609	
-0.944158	0.183244	-0.164334	-42.98	-27.79	-11.06	0.37	-0.0988	-0.1552	
-1.086776	0.182146	-0.196298	-42.84	-8.96	-7	0.3685	-0.08199999	-0.1689	
-0.964776	0.014518	0.007076	-149.1	-4.13	-14.98	0.365	-0.0927	-0.1678	
-1.044808	0.172142	-0.132248	-6.58	3.64	-19.18	0.3785	-0.0824	-0.1636	
-1.003938	0.085644	-0.1647	-60.76	24.64	-25.27	0.3754	-0.0727	-0.1603	
-1.001986	-0.062708	-0.109068	-44.45	27.16	-26.25	0.3708	-0.0679	-0.1635	
-0.990518	-0.005246	-0.110288	-33.81	38.15	-30.73	0.3858	-0.0625	-0.1625	
-1.038464	0.0122	-0.149084	-45.36	24.5	-26.74	0.3787	-0.0492	-0.1514	
-0.991494	0.085888	-0.110654	-35.77	13.02	-21.21	0.3901	-0.0529	-0.1478	
-1.005036	-0.061366	-0.066002	-68.88	17.22	-13.93	0.3747	-0.044	-0.142	
-0.99125	-0.029768	-0.144936	-46.2	16.52	-16.8	0.3823	-0.0401	-0.1525	
-1.028948	0.00122	-0.07869	-42.56	1.96	-7.28	0.3769	-0.0348	-0.1447	
-1.013332	-0.0976	-0.092476	-58.24	-4.97	-0.84	0.3726	-0.0315	-0.1449	
-1.01016	-0.061122	-0.107604	-38.64	2.59	-10.57	0.3859	-0.0294	-0.1535	
-1.017114	-0.066978	-0.094794	-41.93	-6.09	-7.63	0.3845	-0.0261	-0.1503	
-1.026874	-0.077714	-0.065758	-35.77	-12.18	-4.55	0.3846	-0.0244	-0.1455	
-1.009306	-0.08418	-0.069906	-33.74	-6.79	-1.61	0.3811	-0.015	-0.1517	
-1.012966	-0.054412	-0.065392	-25.41	-1.12	1.12	0.3828	-0.023	-0.1535	
-1.0187	-0.035136	-0.070516	-20.09	0.49	4.76	0.3733	-0.0272	-0.1541	
-1.010404	-0.029036	-0.08113	-15.05	0.56	8.19	0.3786	-0.0228	-0.1537	
-0.999058	0.010004	-0.087962	-12.95	1.05	8.96	0.3715	-0.016	-0.1507	
-1.005036	0.041114	-0.096502	-8.82	2.66	8.54	0.3763	-0.0239	-0.146	
-1.016382	0.060268	-0.091134	-7.35	0.42	7.84	0.3824	-0.0184	-0.1565	
-1.005524	0.062708	-0.085644	-8.54	0.42	7.21	0.3743	-0.0242	-0.1587	
-0.99979	0.079788	-0.082106	-5.74	2.94	5.74	0.3771	-0.0163	-0.1488	
-1.006744	0.090646	-0.089792	-5.46	-1.96	5.6	0.3786	-0.0228	-0.1537	
-1.00406	0.073078	-0.077226	-7.77	0.35	5.25	0.3798	-0.023	-0.1584	
-1.002596	0.093086	-0.086498	-7.42	1.96	4.48	0.3774	-0.0291	-0.1571	
-1.010892	0.084302	-0.08235	-7.77	2.24	5.46	0.3775	-0.0225	-0.1474	
-1.00894	0.07808	-0.084302	-7.35	0.42	5.18	0.3784	-0.0164	-0.1503	
-0.99918	0.09577	-0.088694	-5.04	-0.21	4.41	0.3727	-0.0211	-0.1602	
-0.995276	0.097722	-0.081374	-5.74	1.89	3.36	0.3824	-0.0233	-0.1614	
-1.00101	0.096502	-0.078934	-4.41	3.15	2.17	0.3785	-0.0212	-0.1536	
-1.002108	0.096502	-0.084546	-3.99	2.45	1.75	0.3884	-0.0184	-0.1467	
-1.005524	0.099064	-0.091256	-4.27	3.01	0.7	0.3756	-0.0179	-0.1537	
-1.00894	0.105896	-0.097234	-3.71	2.45	-1.05	0.3797	-0.0182	-0.155	
-1.008574	0.105042	-0.107238	-3.85	1.75	-1.96	0.3844	-0.0278	-0.1535	
-1.005524	0.105164	-0.103822	-3.85	1.47	-2.31	0.3799	-0.0197	-0.1519	
-1.006012	0.09516	-0.098698	-4.48	1.96	-3.22	0.373	-0.0209	-0.1539	
-1.006378	0.076738	-0.08906	-3.92	2.52	-4.34	0.3806	-0.0224	-0.1394	
-1.006744	0.052216	-0.08967	-2.1	2.45	-4.27	0.3844	-0.0165	-0.1421	
-1.013698	0.05673	-0.095892	2.31	1.75	-4.06	0.3801	-0.0179	-0.1471	
-1.00284	0.057462	-0.099552	4.55	0.77	-3.57	0.379	-0.0192	-0.1409	
-0.999668	0.0488	-0.09076799	6.58	0.56	-3.15	0.3866	-0.0203	-0.1579	
-1.010648	0.04209	-0.086132	9.24	0.56	-2.52	0.3831	-0.0196	-0.1439	
-1.018456	0.043066	-0.096624	12.88	-0.84	-1.75	0.3733	-0.0174	-0.1428	
-1.013454	0.0427	-0.10919	15.54	-0.84	-1.05	0.3812	-0.0182	-0.1518	
-1.016382	0.03843	-0.10736	17.22	-1.61	-1.05	0.3833	-0.0194	-0.1376	
-1.00894	0.036722	-0.108092	18.48	-1.26	-1.33	0.373	-0.0144	-0.1458	
-1.010282	0.024766	-0.09394	21.63	-2.38	-0.98	0.3749	-0.0255	-0.1477	
-0.999058	0.010492	-0.11163	34.58	-5.95	0.84	0.3809	-0.0255	-0.1379	
-0.99247	0.016958	-0.122244	32.06	-2.17	2.38	0.379	-0.0209	-0.1442	
-0.978196	0.019642	-0.108458	34.93	-1.89	5.53	0.3821	-0.0305	-0.1459	
-1.00833	0.014518	-0.09638	35	3.08	8.75	0.3798	-0.0349	-0.1414	
-0.996984	0.043432	-0.099674	22.68	1.61	7.77	0.3797	-0.0415	-0.1511	
-1.015406	0.035746	-0.08295999	22.26	-3.36	7.77	0.3806	-0.037	-0.1572	
-1.030534	0.00671	-0.074664	25.62	-3.5	8.75	0.3804	-0.0458	-0.1402	
-1.000644	-0.024522	-0.085156	26.04	-2.8	14.49	0.3737	-0.0318	-0.1511	
-0.99979	-0.02501	-0.134078	27.16	-11.2	20.79	0.3813	-0.0598	-0.1375	
-1.048468	-0.006466	-0.139934	38.99	-11.76	15.19	0.3884	-0.0449	-0.1461	
-1.026752	0.047336	-0.091378	36.89	-28.63	9.1	0.3746	-0.0538	-0.155	
-1.027728	0.016104	-0.080764	32.27	-35.42	10.85	0.3885	-0.0546	-0.1558	
-1.010648	0.067954	-0.061488	45.08	-42.56	13.65	0.3823	-0.065	-0.1518	
-1.005524	0.004026	-0.099674	13.93	-41.09	16.03	0.3876	-0.06879999	-0.1611	
-1.045418	0.0793	-0.186904	70.28	-24.92	19.95	0.3705	-0.0633	-0.165	
-1.039318	0.125904	-0.06893	55.3	-16.66	12.39	0.3701	-0.0636	-0.1744	
-1.02541	0.139568	-0.04758	57.4	-8.68	16.03	0.3749	-0.0731	-0.1714	
-1.011136	0.0915	-0.081496	53.48	-1.75	12.25	0.3747	-0.07319999	-0.1745	
-1.046516	0.13176	-0.109922	53.83	1.47	12.6	0.368	-0.084	-0.1816	
-1.025044	0.146034	-0.126392	70.07	3.36	12.53	0.3788	-0.0935	-0.1687	
-1.067622	0.09076799	-0.069296	41.44	10.99	3.92	0.3636	-0.0991	-0.1744	
-1.014552	0.085278	-0.051118	42.98	8.33	10.78	0.3705	-0.0898	-0.1659	
-1.04188	0.045872	-0.072712	36.75	-3.57	9.52	0.3693	-0.096	-0.1677	
-1.006988	0.140544	-0.102236	38.43	-25.27	12.39	0.3692	-0.1026	-0.1774	
-0.969412	0.086376	-0.073444	47.53	-23.45	9.87	0.3698	-0.1136	-0.1778	
-0.979172	0.082228	-0.058682	47.67	-6.09	10.5	0.3686	-0.1101	-0.1683	
-0.971364	0.243268	-0.118584	83.02	-13.93	10.64	0.3722	-0.1194	-0.1621	
-1.026264	0.129808	-0.046604	60.83	11.69	9.66	0.365	-0.1225	-0.172	
-0.924028	0.368196	-0.116388	96.46	8.68	7.77	0.3641	-0.1237	-0.1627	
-1.008208	0.265472	-0.061	77.07	10.85	8.75	0.3724	-0.1274	-0.1671	
-0.885964	0.321226	-0.186416	65.45	-23.17	16.66	0.3681	-0.1391	-0.152	
-0.932202	0.259616	-0.143228	55.51	43.19	8.47	0.3709	-0.1426	-0.1567	
-1.061278	0.28365	-0.00366	51.66	32.34	10.5	0.3718	-0.1403	-0.1345	
-0.913536	0.26474	-0.11102	50.68	-28.84	18.41	0.3713	-0.1407	-0.1456	
-1.029924	0.180072	-0.097356	40.32	-11.41	11.34	0.3634	-0.1544	-0.1512	
-1.0004	0.257542	-0.056852	37.38	0.28	10.99	0.3724	-0.1593	-0.1414	
-0.957334	0.255468	-0.095404	33.6	1.26	12.11	0.3699	-0.1638	-0.1417	
-0.968802	0.218258	-0.099308	24.57	2.03	10.01	0.3686	-0.1604	-0.1354	
-0.988566	0.236192	-0.103456	27.23	1.96	7.84	0.3769	-0.169	-0.1447	
-0.981368	0.23546	-0.113948	20.65	2.31	4.83	0.3564	-0.1741	-0.1459	
-0.98393	0.229604	-0.105042	17.43	1.68	3.29	0.3737	-0.1795	-0.1373	
-0.977952	0.199348	-0.12261	15.68	2.17	0.56	0.3664	-0.1712	-0.1359	
-0.988322	0.189222	-0.121268	12.04	3.99	-0.21	0.3785	-0.1641	-0.135	
-1.009184	0.183244	-0.101748	9.17	5.53	0	0.3637	-0.1694	-0.1328	
-1.00711	0.163968	-0.10797	11.27	4.2	-0.98	0.3662	-0.1682	-0.1373	
-1.006378	0.144936	-0.106872	10.71	4.41	0	0.3735	-0.1683	-0.1291	
-1.017846	0.15128	-0.104432	12.81	3.36	-0.07	0.3694	-0.1729	-0.1326	
-1.007964	0.158844	-0.11163	16.52	1.54	0.56	0.3722	-0.1633	-0.1227	
-0.995764	0.165188	-0.108946	17.57	1.26	0.21	0.363	-0.1786	-0.1284	
-1.007476	0.177998	-0.109434	17.71	-0.14	0.42	0.3731	-0.1886	-0.1314	
-1.001132	0.189466	-0.12261	18.55	-0.63	0.28	0.3629	-0.1786	-0.13	
-0.991494	0.175924	-0.115412	11.27	1.54	0.49	0.3723	-0.1745	-0.1309	
-0.993202	0.181414	-0.12322	9.17	0.42	-0.14	0.3645	-0.1753	-0.1219	
-0.99064	0.188612	-0.130418	8.33	-0.21	-1.05	0.3738	-0.1795	-0.1357	
-0.993202	0.180926	-0.126758	5.74	-0.07	-0.77	0.3757	-0.1824	-0.1263	
-0.992958	0.16775	-0.132248	2.87	0.77	-0.7	0.3744	-0.1806	-0.1232	
-0.989908	0.166286	-0.124928	1.54	0.56	-0.07	0.3712	-0.1808	-0.1328	
-0.984296	0.175192	-0.119438	1.26	0	0.77	0.3774	-0.1888	-0.128	
-0.985272	0.178486	-0.119804	1.12	0.7	0.91	0.3757	-0.1808	-0.1262	
-0.992592	0.170922	-0.12505	1.19	1.05	1.19	0.3729	-0.1758	-0.1199	
-1.000644	0.180194	-0.122976	0.7	1.19	1.33	0.3675	-0.1786	-0.1219	
-0.98759	0.194346	-0.134566	-0.7	0	1.61	0.3702	-0.1739	-0.1169	
-1.00467	0.194712	-0.130662	-3.5	-0.7	0.98	0.3645	-0.1786	-0.1252	
-1.010404	0.185684	-0.125782	-4.27	-1.26	0.21	0.3731	-0.1773	-0.1184	
-0.997716	0.18971	-0.123586	-4.76	-1.05	-0.7	0.3676	-0.1834	-0.1236	
-1.003572	0.180438	-0.12322	-6.16	-0.84	-1.12	0.3621	-0.1814	-0.1207	
-0.99613	0.171532	-0.131394	-7.91	-1.05	-1.47	0.3681	-0.1776	-0.1376	
-0.980392	0.17324	-0.131516	-6.86	-0.42	-1.54	0.3663	-0.1881	-0.127	
-0.984662	0.1769	-0.13542	-6.58	-1.54	-1.26	0.3713	-0.1758	-0.1247	
-0.987224	0.18605	-0.134566	-7.28	-0.98	-0.84	0.3692	-0.173	-0.1373	
-0.987468	0.197518	-0.123342	-7.84	-0.56	-0.7	0.3638	-0.1694	-0.1312	
-0.987102	0.210328	-0.123952	-10.64	-0.7	-1.4	0.3725	-0.1728	-0.1261	
-0.989542	0.229116	-0.113582	-15.12	-0.56	-2.87	0.3666	-0.1776	-0.1392	
-0.992104	0.251808	-0.11895	-26.46	-1.05	-7.21	0.3678	-0.1746	-0.139	
-0.983442	0.249002	-0.115412	-35.49	-0.91	-10.01	0.3623	-0.171	-0.1345	
-0.984906	0.226188	-0.11102	-43.82	-3.85	-11.41	0.3635	-0.1631	-0.131	
-0.985638	0.227042	-0.111996	-51.45	-5.53	-12.53	0.3701	-0.1654	-0.1402	
-1.001986	0.264008	-0.086254	-53.34	-3.43	-13.93	0.3679	-0.1577	-0.1479	
-0.961482	0.264984	-0.098088	-59.57	-10.29	-15.05	0.3731	-0.1501	-0.1458	
-0.951966	0.218258	-0.119682	-61.32	-10.92	-15.61	0.3728	-0.152	-0.1553	
-1.023702	0.205936	-0.105652	-61.32	-6.86	-17.64	0.3667	-0.1456	-0.1601	
-0.984418	0.158112	-0.08686399	-57.4	-3.78	-14.21	0.3719	-0.1397	-0.1612	
-1.003084	0.200202	-0.09272	-39.2	0.98	-16.31	0.3744	-0.1351	-0.1609	
-0.984174	0.217038	-0.09028	-35.28	15.68	-19.04	0.3601	-0.1249	-0.1614	
-0.873886	0.227286	-0.152134	-45.15	12.18	-23.59	0.377	-0.1273	-0.1558	
-1.053836	0.162382	-0.081496	-75.88	-9.94	-20.51	0.3746	-0.1134	-0.1633	
-0.990762	0.189954	-0.096502	-49.98	-1.82	-21.28	0.3771	-0.1072	-0.1614	
-1.131184	0.051118	-0.12749	-29.96	11.2	-6.16	0.3659	-0.1002	-0.157	
-1.001864	0.205936	-0.154696	-28.21	16.31	-14.42	0.3742	-0.1023	-0.1598	
-0.984418	0.082106	-0.068442	-55.72	13.58	-3.15	0.3752	-0.0961	-0.1595	
-1.042368	0.11041	-0.162382	-15.96	26.53	-10.36	0.3726	-0.0975	-0.1582	
-1.001376	0.154574	-0.10126	-50.12	-6.02	-18.97	0.3785	-0.0807	-0.1604	
-1.03395	0.051484	-0.056242	-74.9	-35.56	-15.75	0.3767	-0.0913	-0.153	
-1.001986	0.10797	-0.119438	-47.81	-28.49	-16.73	0.3687	-0.077	-0.1592	
-0.996374	0.088206	-0.153476	-46.9	-12.39	-15.26	0.3746	-0.0765	-0.1809	
-1.031022	0.086132	-0.076006	-49.21	-0.49	-20.3	0.3673	-0.0802	-0.1641	
-1.032364	0.098088	-0.055998	-50.75	4.2	-22.4	0.3686	-0.0635	-0.1761	
-1.018334	0.000366	-0.094916	-53.83	5.32	-23.03	0.3728	-0.0621	-0.1742	
-0.924882	-0.139202	-0.180438	-53.48	11.69	-19.32	0.3642	-0.0554	-0.1729	
-1.017358	-0.056486	-0.10065	-19.04	11.97	-19.6	0.3767	-0.0495	-0.1642	
-0.978806	-0.059536	-0.039772	-61.74	16.8	-23.8	0.3692	-0.0398	-0.1674	
-1.017724	-0.05246	-0.093086	-46.34	20.72	-22.61	0.3737	-0.0431	-0.1625	
-1.029924	-0.06222	-0.104432	-42.98	17.36	-20.51	0.3714	-0.0339	-0.1718	
-0.965996	-0.05185	-0.093086	-27.23	22.96	-19.67	0.3715	-0.0241	-0.1604	
-1.058472	-0.0793	-0.074176	-26.11	16.03	-14.84	0.3813	-0.0246	-0.1567	
-1.022116	-0.121634	-0.052216	-45.36	3.43	-10.43	0.381	-0.0248	-0.1631	
-1.009062	-0.08235	-0.085034	-34.93	-3.29	-9.17	0.3825	-0.0167	-0.1517	
-1.01504	-0.044896	-0.011956	-34.23	0.07	-9.31	0.377	-0.0099	-0.1439	
-1.000278	-0.057096	-0.031354	-37.52	1.05	-6.65	0.3821	-0.0072	-0.1498	
-1.019188	-0.07747	-0.050874	-35	-0.42	-2.59	0.3789	-0.0025	-0.1545	
-1.014186	-0.053924	-0.07686	-29.82	-1.19	0.14	0.378	-0.007	-0.15	
-1.016016	-0.04636	-0.071126	-25.2	2.17	0.63	0.3748	0.0009	-0.1499	
-1.021628	-0.032574	-0.07747	-22.4	2.52	1.89	0.3761	-0.004	-0.1563	
-1.012234	-0.035746	-0.076494	-20.93	1.75	2.52	0.3717	0.0024	-0.1563	
-1.016992	-0.010248	-0.084668	-16.38	1.05	3.15	0.3756	0.0036	-0.1592	
-0.998326	-0.01098	-0.08784	-13.23	1.54	3.78	0.3803	-0.0026	-0.1545	
-1.0004	-0.009272	-0.083326	-10.5	3.57	4.34	0.3681	-0.0001	-0.1472	
-1.002962	0.01037	-0.081008	-8.05	4.27	5.04	0.3841	0.0033	-0.1541	
-1.002474	0.008662	-0.082838	-6.44	4.83	5.25	0.3803	0.0054	-0.1447	
-0.999546	0.030866	-0.09089	-4.62	5.46	5.39	0.3774	0.0055	-0.148	
-1.013454	0.040992	-0.085766	-3.15	5.95	4.48	0.3778	-0.0055	-0.1516	
-1.016748	0.052582	-0.084424	-2.24	5.04	3.64	0.3768	-0.0035	-0.1421	
-1.014186	0.050264	-0.08052	-2.38	4.55	3.71	0.3686	-0.0046	-0.141	
-1.014552	0.046604	-0.085644	-0.91	4.13	3.5	0.3778	0.0074	-0.1385	
-1.015284	0.048556	-0.082472	-0.14	3.85	3.29	0.3796	-0.0069	-0.1436	
-1.006012	0.042334	-0.098698	0.07	2.31	3.15	0.3761	-0.0008	-0.1546	
-1.006988	0.059048	-0.099308	0.28	2.87	2.1	0.3781	0.0011	-0.1387	
-1.013332	0.059292	-0.096746	0.35	2.38	1.75	0.3738	-0.0019	-0.1453	
-1.023946	0.052216	-0.094916	1.05	1.05	1.82	0.3792	0.0057	-0.1401	
-1.018212	0.03843	-0.104066	0.7	0.07	2.03	0.3822	0.0041	-0.1352	
-1.01748	0.040748	-0.112606	1.19	-0.84	1.33	0.374	-0.0001	-0.139	
-1.012478	0.037698	-0.11407	1.89	-1.19	0.91	0.3793	0.0009	-0.1418	
-1.00528	0.029036	-0.113948	3.57	-0.7	0.28	0.3853	-0.0006	-0.1337	
-1.0065	0.022936	-0.1098	5.32	-0.84	0.35	0.378	0.0027	-0.1387	
-1.00162	0.023058	-0.110044	7.14	0.14	0.21	0.3641	-0.0029	-0.1459	
-1.005768	0.015982	-0.104188	8.89	0.77	0.07	0.373	-0.0047	-0.136	
-1.007232	0.010614	-0.10431	10.85	0	0	0.3749	0.0042	-0.1435	
-1.01016	0.007564	-0.102846	13.93	-0.98	0	0.3823	-0.0022	-0.1402	
-1.011868	0.006588	-0.11529	17.57	-2.38	0.63	0.3768	-0.0068	-0.1454	
-1.00345	-0.003294	-0.097966	20.09	-1.89	0.91	0.3764	0.0058	-0.1402	
-1.003816	-0.0183	-0.132126	32.27	-4.97	1.89	0.3792	-0.0056	-0.1515	
-1.014674	-0.019886	-0.066856	27.79	1.26	3.85	0.3809	-0.0103	-0.15	
-0.99918	-0.060146	-0.076128	30.31	-2.94	9.03	0.378	-0.008599999	-0.1501	
-1.014918	-0.052704	-0.07137	40.32	-1.75	12.6	0.3855	-0.0151	-0.1452	
-0.998936	-0.02257	-0.068564	43.33	-0.07	13.51	0.3788	-0.021	-0.1473	
-0.993568	0.011346	-0.138104	36.61	7.84	10.64	0.381	-0.0286	-0.138	
-1.022726	-0.01281	-0.10126	37.52	7.42	11.34	0.3778	-0.0271	-0.146	
-1.015772	-0.031598	-0.079178	39.62	-0.77	16.1	0.3847	-0.0427	-0.1336	
-1.04127	-0.037454	-0.144326	35.21	-2.59	17.5	0.3787	-0.0395	-0.1417	
-1.084092	-0.038552	-0.1403	40.32	-7.63	14.98	0.3834	-0.0507	-0.1418	
-1.024922	0.0915	-0.143838	51.8	-23.45	7.77	0.3791	-0.0457	-0.1403	
-1.01321	0.073444	-0.148596	34.37	-35.98	8.82	0.3888	-0.0511	-0.1447	
-1.01138	0.086254	-0.15128	37.8	-28.14	8.26	0.386	-0.0559	-0.1513	
-1.02846	0.052826	-0.107116	36.54	-21.35	14.7	0.3889	-0.0592	-0.1512	
-1.023214	0.033794	-0.087718	41.02	-14.98	15.05	0.3746	-0.0522	-0.1533	
-1.01931	-0.043188	-0.11712	32.34	-13.58	17.36	0.3808	-0.0634	-0.1518	
-0.972096	0.11712	-0.127368	70.84	-10.71	23.45	0.3791	-0.0651	-0.1598	
-1.025288	0.097844	-0.07076	43.82	-4.62	18.83	0.3781	-0.0729	-0.1602	
-1.01382	0.172996	-0.088084	46.55	-6.16	13.16	0.3756	-0.0791	-0.1621	
-1.040294	0.189832	-0.07625	36.19	-15.4	13.72	0.3801	-0.0839	-0.1604	
-0.976	0.150182	-0.081618	40.95	-18.13	13.3	0.3747	-0.09	-0.1641	
-0.992104	0.172874	-0.105042	36.47	-13.09	16.66	0.369	-0.0898	-0.1675	
-1.00833	0.126148	-0.05246	39.48	-0.7	17.36	0.3663	-0.0977	-0.1758	
-1.054568	0.249734	-0.082228	73.43	7.42	15.12	0.3777	-0.1014	-0.1722	
-1.03273	0.15311	-0.02867	23.17	8.68	15.19	0.3686	-0.1085	-0.1682	
-0.978562	0.242902	-0.064782	37.24	-12.25	14.35	0.3767	-0.1042	-0.166	
-1.006256	0.198982	-0.093818	12.11	-17.92	14	0.3734	-0.1212	-0.1668	
-0.998814	0.227164	-0.11529	22.61	-15.33	12.95	0.3761	-0.1215	-0.1698	
-1.022238	0.21655	-0.06039	20.44	-11.2	12.11	0.3718	-0.1245	-0.1749	
-1.012478	0.220088	-0.064782	14.56	-10.78	11.06	0.3677	-0.1194	-0.1686	
-1.011624	0.232898	-0.069296	13.65	-10.99	9.31	0.3681	-0.1305	-0.1721	
-0.993324	0.25132	-0.061366	10.01	-8.89	7.21	0.3668	-0.1255	-0.1657	
-0.98454	0.267912	-0.066246	3.92	-10.08	5.04	0.3598	-0.1235	-0.166	
-0.977342	0.2745	-0.036722	-2.94	-14.77	3.29	0.3536	-0.1253	-0.1822	
-0.981612	0.26596	-0.04514	-6.16	-12.04	1.33	0.3646	-0.1259	-0.1832	
-0.986126	0.252052	-0.07015	-13.72	-9.87	-0.63	0.3605	-0.1289	-0.1851	
-0.966972	0.239242	-0.038674	-19.53	-7.42	-2.1	0.358	-0.1351	-0.187	
-0.962092	0.201422	-0.013786	-22.33	-0.07	-2.87	0.3663	-0.1258	-0.1768	
-0.968558	0.161772	-0.016836	-23.8	1.4	-1.26	0.3545	-0.1225	-0.1899	
-0.97783	0.129564	0.01403	-25.41	-0.21	-0.21	0.355	-0.1269	-0.1822	
-0.994422	0.10797	0.0061	-19.6	-0.63	-0.35	0.3657	-0.1295	-0.1927	
-0.99857	0.117242	-0.001342	-17.64	-5.81	-1.12	0.3597	-0.1263	-0.2008	
-1.005036	0.134932	0.032086	-16.66	-3.78	-2.52	0.3642	-0.123	-0.1878	
-1.001498	0.13786	0.001586	-12.81	-1.54	-4.27	0.3578	-0.1038	-0.1859	
-1.010892	0.153476	-0.020862	-10.92	-2.59	-5.46	0.3601	-0.113	-0.1767	
-1.016626	0.142252	0.011956	-13.3	0.21	-6.44	0.355	-0.1118	-0.1958	
-1.007476	0.141032	0.015006	-5.39	4.06	-8.68	0.3579	-0.1118	-0.1925	
-1.003084	0.14701	-0.011956	-9.17	-2.66	-9.59	0.3562	-0.1072	-0.1956	
-1.000278	0.142984	-0.003782	-9.24	-4.55	-10.99	0.3547	-0.1006	-0.1891	
-1.010648	0.141276	-0.00183	-5.67	-0.91	-12.39	0.355	-0.1102	-0.1942	
-0.998448	0.139324	0	-4.13	1.19	-12.81	0.3542	-0.0929	-0.192	
-0.986126	0.129442	-0.002684	-4.97	3.29	-11.34	0.3543	-0.1025	-0.2002	
-0.998082	0.126148	-0.003416	-4.97	7.7	-10.01	0.3574	-0.1025	-0.1938	
-1.00711	0.114436	-0.00854	-7.42	10.92	-8.96	0.3625	-0.095	-0.1932	
-1.002108	0.122488	-0.02745	-8.4	9.94	-9.59	0.3585	-0.0914	-0.187	
-1.011624	0.110776	0.00305	-12.74	8.96	-8.12	0.357	-0.0897	-0.1871	
-1.026386	0.093086	-0.008417999	-11.69	5.04	-6.23	0.3619	-0.096	-0.1776	
-1.016626	0.077958	-0.008784	-13.72	-0.56	-3.99	0.3626	-0.0852	-0.1819	
-1.01748	0.069906	-0.01403	-11.13	-3.01	-3.78	0.3514	-0.0928	-0.1938	
-1.027118	0.059658	-0.012688	-8.4	-2.94	-4.27	0.3621	-0.0888	-0.1962	
-1.021872	0.052338	-0.012932	-5.53	-3.78	-4.48	0.3569	-0.0714	-0.199	
-1.019676	0.055388	-0.019886	-3.01	-4.34	-4.9	0.3686	-0.0765	-0.1907	
-1.016748	0.065148	-0.018422	0.77	-1.61	-5.32	0.3624	-0.08859999	-0.1899	
-1.012478	0.06954	-0.008296	4.13	0.14	-5.18	0.3669	-0.0799	-0.2004	
-1.006622	0.06954	-0.005002	6.93	0.77	-4.69	0.3605	-0.0743	-0.1848	
-1.006378	0.083082	-0.012688	8.26	-0.14	-4.27	0.3582	-0.0786	-0.1787	
-1.007964	0.093818	-0.011468	7.84	-0.14	-3.85	0.3565	-0.08199999	-0.19	
-1.013332	0.10797	-0.00305	6.86	-0.35	-3.29	0.3637	-0.0871	-0.1898	
-1.009794	0.117974	-0.005612	6.09	-0.98	-2.8	0.3574	-0.07759999	-0.1961	
-1.006622	0.11651	-0.01037	3.43	-0.49	-2.31	0.3623	-0.0854	-0.1882	
-1.00711	0.11163	-0.005368	1.47	0.91	-1.68	0.3591	-0.0807	-0.1914	
-1.011868	0.103822	-0.009272	1.96	1.19	-0.91	0.3607	-0.0854	-0.1914	
-1.01565	0.091988	-0.010858	0.28	-0.07	-0.49	0.3623	-0.0821	-0.1834	
-1.015894	0.083204	-0.00854	1.33	1.05	0.07	0.3557	-0.075	-0.1693	
-1.018822	0.090524	-0.01525	2.45	0.63	-0.21	0.36	-0.0865	-0.1789	
-1.014064	0.085522	-0.018666	1.47	0.49	0	0.3608	-0.0822	-0.1866	
-1.009306	0.081618	-0.015494	2.24	2.17	0.07	0.3577	-0.0725	-0.1833	
-1.011502	0.082228	-0.01647	1.75	1.89	-0.42	0.348	-0.0817	-0.1951	
-1.009794	0.085522	-0.016226	2.31	2.31	-0.7	0.3576	-0.0742	-0.1865	
-1.012234	0.087108	-0.01891	2.52	1.82	-0.63	0.3578	-0.0757	-0.185	
-1.013942	0.089182	-0.019886	2.59	0.49	-0.21	0.3565	-0.0836	-0.1916	
-1.015406	0.087962	-0.01769	0.63	-0.14	0.35	0.3543	-0.0728	-0.1976	
-1.014308	0.099186	-0.025742	2.17	0.07	0.28	0.3605	-0.0807	-0.1913	
-1.016138	0.097234	-0.025742	0.91	-0.77	0.7	0.363	-0.0697	-0.1845	
-1.019188	0.100894	-0.021594	0.35	-0.35	0.42	0.3697	-0.0736	-0.1937	
-1.015406	0.102724	-0.02196	0.07	-0.56	0.56	0.3635	-0.0807	-0.1864	
-1.006988	0.099674	-0.02684	0.14	0.21	0.7	0.3632	-0.0696	-0.1813	
-1.003816	0.091988	-0.020252	-1.54	1.12	0.7	0.3571	-0.068	-0.191	
-1.004792	0.09357399	-0.014152	-0.63	2.38	0.56	0.3662	-0.0809	-0.1878	
-1.006256	0.092476	-0.013786	-0.07	2.66	0.35	0.3672	-0.0764	-0.1908	
-1.010282	0.087718	-0.014152	0.07	2.52	0.56	0.361	-0.0869	-0.1883	
-1.010648	0.086254	-0.008662	0.42	1.89	0.56	0.3681	-0.08549999	-0.1816	
-1.01077	0.08967	-0.007442	1.12	1.54	0.14	0.3711	-0.0872	-0.1783	
-1.011136	0.092232	-0.015738	1.05	0.42	-0.14	0.3592	-0.0822	-0.1914	
-1.015894	0.096258	-0.010736	0.84	0.42	-0.28	0.3663	-0.076	-0.1798	
-1.012112	0.093818	-0.018422	0.56	-0.42	-0.35	0.3581	-0.0803	-0.1835	
-1.013454	0.092476	-0.021472	0.91	-0.07	-0.42	0.3596	-0.0771	-0.177	
-1.012478	0.093086	-0.020618	0.84	0.35	-0.63	0.3639	-0.0804	-0.1769	
-1.008452	0.092476	-0.020374	0.42	0.63	-0.7	0.3571	-0.0881	-0.1839	
-1.009794	0.093452	-0.02379	-0.21	0.7	-0.63	0.3646	-0.0746	-0.1861	
-1.008818	0.091256	-0.023424	-1.05	0.77	-0.84	0.3561	-0.0823	-0.1979	
-1.010282	0.09028	-0.022204	-0.7	0.77	-0.77	0.3692	-0.081	-0.183	
-1.012478	0.084912	-0.024034	-0.91	0.56	-0.63	0.3598	-0.0786	-0.1755	
-1.01321	0.08686399	-0.024278	-0.77	0.63	-0.56	0.3651	-0.0742	-0.1751	
-1.013576	0.083326	-0.022448	-1.19	0.63	-0.56	0.3638	-0.0773	-0.1752	
-1.013576	0.083082	-0.02013	-0.7	0.35	-0.56	0.3691	-0.07449999	-0.178	
-1.015284	0.082594	-0.019764	-0.63	0.21	-0.49	0.3665	-0.0775	-0.1783	
-1.01565	0.082838	-0.021716	-0.35	0.07	-0.49	0.3598	-0.0769	-0.1723	
-1.01321	0.082472	-0.021594	-0.14	-0.07	-0.42	0.3551	-0.0722	-0.1803	
-1.012966	0.084912	-0.025376	0.42	-0.49	0	0.3608	-0.0741	-0.1784	
-1.01809	0.084302	-0.024644	0.35	-0.07	0.28	0.363	-0.073	-0.1877	
-1.012356	0.088328	-0.02562	0.84	-0.42	0.21	0.3631	-0.0681	-0.1813	
-1.0126	0.087596	-0.020496	-0.07	-0.07	0	0.3649	-0.0711	-0.175	
-1.01199	0.086132	-0.020984	0.35	-0.28	-0.14	0.3561	-0.0677	-0.1832	
-1.01382	0.084302	-0.02379	0.21	-1.05	0	0.366	-0.0714	-0.1828	
-1.014552	0.084302	-0.020984	0.63	-0.84	0.07	0.3677	-0.0761	-0.1797	
-1.013576	0.088694	-0.02074	1.33	-1.33	0.07	0.3647	-0.0777	-0.1878	
-1.015772	0.088328	-0.019154	0.77	-1.05	-0.07	0.3636	-0.0758	-0.1799	
-1.014186	0.090402	-0.019886	1.05	-0.63	-0.07	0.3605	-0.0759	-0.1864	
-1.0126	0.089426	-0.023302	0.35	-1.26	-0.07	0.3595	-0.0804	-0.1835	
-1.013698	0.084058	-0.018422	0.28	-1.61	0.14	0.361	-0.0804	-0.1802	
-1.014064	0.083936	-0.01769	0.91	-1.82	0.21	0.3664	-0.0824	-0.1847	
-1.013576	0.084302	-0.016226	0.49	-2.31	0.35	0.3647	-0.07449999	-0.1846	
-1.011014	0.088938	-0.018544	0.77	-2.03	0.28	0.3635	-0.07099999	-0.1766	
-1.014552	0.088206	-0.016714	1.47	-2.03	0.28	0.3609	-0.0805	-0.1834	
-1.014308	0.087596	-0.016958	1.4	-1.68	0.07	0.3532	-0.066	-0.1833	
-1.014552	0.08784	-0.01769	1.12	-1.26	-0.07	0.3705	-0.0859	-0.1894	
-1.013088	0.097966	-0.018788	2.1	-0.35	0	0.3495	-0.0768	-0.187	
-1.008696	0.09638	-0.017446	0.14	-0.42	0.35	0.3635	-0.0856	-0.1913	
-1.00894	0.09552599	-0.012444	-0.56	-0.07	0.42	0.3608	-0.0838	-0.1882	
-1.010526	0.093086	-0.009881999	-0.21	0.14	0.63	0.3616	-0.07449999	-0.191	
-1.01199	0.092842	-0.011956	-0.35	-0.28	0.91	0.3549	-0.0772	-0.1883	
-1.011502	0.09076799	-0.008784	-0.42	-0.35	1.05	0.3575	-0.0775	-0.1929	
-1.01138	0.089914	-0.01098	-0.77	-0.84	1.12	0.3581	-0.0819	-0.1852	
-1.010038	0.089548	-0.013176	-0.42	-1.05	0.98	0.3535	-0.0772	-0.19	
-1.009794	0.090036	-0.015616	-0.28	-0.77	0.98	0.3609	-0.07889999	-0.1818	
-1.015772	0.091866	-0.016226	-0.42	-0.63	0.84	0.359	-0.0759	-0.188	
-1.01443	0.096624	-0.015982	-0.49	-0.84	0.63	0.3662	-0.0793	-0.1862	
-1.010892	0.092232	-0.01342	-0.84	-0.84	0.7	0.3596	-0.0803	-0.1803	
-1.00894	0.089426	-0.016226	-0.84	-0.98	0.77	0.361	-0.0869	-0.1867	
-1.007598	0.09357399	-0.01281	-0.35	-0.49	0.7	0.3671	-0.07319999	-0.1891	
-1.01077	0.089548	-0.011956	-1.12	0.21	0.42	0.3626	-0.0733	-0.1972	
-1.012966	0.092232	-0.013664	0.28	0.28	0.42	0.3573	-0.0793	-0.1993	
-1.013454	0.089426	-0.013664	-0.28	-0.07	0.49	0.3505	-0.08199999	-0.1997	
-1.013454	0.089182	-0.011346	-0.07	0.35	0.56	0.3545	-0.0775	-0.1978	