Sensor string: A
Serial number: 1970-01-0000
Firmware version: 2,015
Hardware version: 2,2
Calibration quality: 5
ax	ay	az	gx	gy	gz	mx	my	mz

0.149816	0.696864	0.685274	-0.21	0.49	-0.28	-0.0981	-0.2642	-0.4358	Reference
0.143106	0.699914	0.681858	-1.33	0.49	0.07	-0.0828	-0.2633	-0.4356	
0.14335	0.706502	0.687714	-0.14	-0.21	0	-0.09209999	-0.263	-0.4429	
0.145668	0.702964	0.683078	1.47	0.14	-0.14	-0.0893	-0.2555	-0.437	
0.146644	0.696498	0.685518	0.98	0	-0.14	-0.0998	-0.2626	-0.443	
0.149084	0.696986	0.685518	-0.35	0	-0.07	-0.0938	-0.2552	-0.4313	
0.146766	0.699304	0.68503	-0.42	0.42	0.07	-0.0922	-0.2584	-0.4371	
0.145302	0.698328	0.683688	-0.35	0.28	0.07	-0.0925	-0.2539	-0.4457	
0.147254	0.699792	0.684176	-0.14	-0.07	0	-0.0888	-0.2677	-0.44	
0.14701	0.70028	0.68503	0.14	-0.21	-0.07	-0.0948	-0.2689	-0.4372	
0.148108	0.700158	0.688202	0.28	-0.28	-0.07	-0.0979	-0.2672	-0.4358	
0.14823	0.69845	0.687348	-0.07	0	-0.07	-0.0969	-0.2566	-0.4342	
0.148962	0.698328	0.683078	-0.42	0.21	0	-0.0891	-0.2585	-0.4342	
0.145546	0.70028	0.68442	-0.28	0.35	0.14	-0.0828	-0.2649	-0.4457	
0.142374	0.700036	0.684542	0.28	-0.07	0.07	-0.092	-0.2645	-0.4473	
0.148474	0.698328	0.685884	0.14	-0.14	0	-0.0953	-0.2582	-0.4386	
0.147742	0.701988	0.684786	0.14	-0.49	-0.14	-0.0955	-0.2552	-0.4386	
0.14762	0.70089	0.686616	0.28	-0.07	0	-0.0906	-0.26	-0.4385	
0.145668	0.700036	0.683566	0.14	0.35	0	-0.0948	-0.2689	-0.4387	
0.145546	0.70089	0.684176	0.14	0.28	0	-0.0932	-0.272	-0.4416	
0.14518	0.700402	0.684054	-0.14	0.28	0.07	-0.09869999	-0.252	-0.4429	
0.143838	0.701988	0.683322	-0.28	-0.07	0	-0.0935	-0.2644	-0.4386	
0.145058	0.701256	0.685274	-0.21	-0.42	0	-0.0969	-0.2582	-0.4458	
0.14457	0.701622	0.6832	-0.28	-0.42	0	-0.0951	-0.2612	-0.4343	
0.146156	0.701622	0.68259	-0.35	-0.42	0.14	-0.0949	-0.2689	-0.443	
0.145424	0.7015	0.6832	-0.77	-0.35	0.28	-0.109	-0.2607	-0.4402	
0.147254	0.699548	0.683688	-0.91	-0.56	0.14	-0.0937	-0.2582	-0.4299	
0.147742	0.69967	0.684176	-1.19	-0.7	0.14	-0.0939	-0.2553	-0.4414	
0.147864	0.700036	0.686494	-1.19	-0.98	0.07	-0.09209999	-0.2614	-0.4415	
0.148474	0.700524	0.687714	-0.98	-0.84	0.07	-0.0936	-0.2629	-0.443	
0.149572	0.697962	0.68747	-0.63	-0.7	0.14	-0.0936	-0.2597	-0.4299	
0.151768	0.696742	0.686738	-1.19	-0.35	0.28	-0.0969	-0.2582	-0.4429	
0.15189	0.69723	0.686372	-1.05	-0.42	0.28	-0.0926	-0.2508	-0.4428	
0.151158	0.696254	0.684542	-0.7	-0.28	0.35	-0.094	-0.2538	-0.44	
0.14945	0.698328	0.685762	-0.63	-0.35	0.49	-0.0845	-0.2634	-0.453	
0.15006	0.70394	0.684664	-0.7	-0.49	0.42	-0.0984	-0.2581	-0.4372	
0.149938	0.697596	0.687836	-1.19	-0.07	0.35	-0.0935	-0.2644	-0.4401	
0.144204	0.698938	0.682956	-1.89	0.07	0.63	-0.0889	-0.2646	-0.4386	
0.14518	0.704062	0.688568	-0.14	-0.84	0.28	-0.1014	-0.261	-0.4416	
0.149572	0.694058	0.687226	0.21	-0.98	0.14	-0.0938	-0.2568	-0.4357	
0.150914	0.692472	0.6893	-1.19	-0.7	0.28	-0.09999999	-0.2565	-0.4372	
0.149328	0.69723	0.686982	-1.54	-1.12	0.14	-0.0982	-0.2627	-0.443	
0.147254	0.695766	0.687592	-1.12	-0.91	0.28	-0.09519999	-0.2629	-0.4444	
0.150548	0.696742	0.688324	-0.84	-1.05	0.14	-0.0953	-0.2582	-0.4386	
0.152378	0.694302	0.690276	-0.56	-0.98	0.14	-0.1016	-0.2565	-0.4444	
0.15189	0.693692	0.69052	-0.77	-0.84	0.21	-0.0875	-0.2632	-0.4443	
0.151524	0.69479	0.691374	-0.49	-0.91	0.07	-0.1042	-0.267	-0.4431	
0.152378	0.69479	0.689788	-0.35	-0.49	0.14	-0.1018	-0.2519	-0.4415	
0.15189	0.695156	0.689544	-0.7	-0.49	0.07	-0.0982	-0.2627	-0.4416	
0.150548	0.694058	0.69113	-0.7	-0.35	0.07	-0.09209999	-0.2614	-0.4386	
0.147864	0.698328	0.68747	-0.21	-0.42	-0.07	-0.0999	-0.2596	-0.443	
0.151524	0.695034	0.690398	-0.21	0	0.21	-0.0941	-0.2523	-0.4429	
0.15128	0.6954	0.688202	-0.21	-0.21	0	-0.09519999	-0.2597	-0.4328	
0.150182	0.697474	0.6893	-0.14	-0.42	-0.07	-0.0954	-0.2568	-0.4444	
0.150914	0.695034	0.688324	0.07	-0.07	-0.07	-0.0937	-0.2583	-0.4342	
0.149206	0.693204	0.690398	0.07	0.14	0	-0.08639999	-0.251	-0.4341	
0.150182	0.694058	0.690032	0.14	0.21	0	-0.0951	-0.2612	-0.4357	
0.148962	0.696742	0.686738	0.42	-0.07	-0.14	-0.0922	-0.2615	-0.4444	
0.149572	0.696742	0.687226	0.56	-0.21	-0.07	-0.0936	-0.2613	-0.4371	
0.150182	0.696498	0.68747	0.42	-0.14	0.07	-0.0983	-0.2596	-0.4357	
0.150182	0.697352	0.687592	0.28	-0.14	0.07	-0.09999999	-0.2565	-0.4401	
0.149572	0.698206	0.686738	0.35	-0.42	0	-0.09999999	-0.2565	-0.4415	
0.148596	0.698206	0.686616	0.56	-0.35	-0.07	-0.1041	-0.2685	-0.446	
0.151768	0.697108	0.68503	0	-0.28	0.07	-0.0939	-0.2568	-0.44	
0.149816	0.698084	0.68625	-0.21	-0.49	0.14	-0.0947	-0.2704	-0.4343	
0.149572	0.699914	0.687714	0.42	-0.84	-0.07	-0.09079999	-0.2569	-0.44	
0.150182	0.698206	0.687348	0.49	-0.63	0	-0.0924	-0.2538	-0.4356	
0.153232	0.695278	0.686982	-0.28	-0.35	0.21	-0.09999999	-0.2565	-0.4415	
0.15372	0.695522	0.68625	-0.42	-0.49	0.28	-0.0939	-0.2553	-0.4385	
0.153232	0.696132	0.686982	0	-0.49	0.35	-0.0969	-0.2582	-0.4429	
0.1525	0.700402	0.687958	0.49	-0.35	0.49	-0.0876	-0.2586	-0.4399	
0.155916	0.698938	0.689178	0.84	-0.56	0.28	-0.0971	-0.2521	-0.44	
0.154818	0.69357	0.687104	-0.21	0.42	0.56	-0.0954	-0.2583	-0.4473	
0.148352	0.701134	0.686982	-0.91	0.14	0.7	-0.08419999	-0.2648	-0.4371	
0.14823	0.704428	0.688446	0.56	0.07	0.42	-0.0968	-0.2597	-0.4401	
0.151158	0.695156	0.68564	1.33	0.56	0.42	-0.0954	-0.2567	-0.44	
0.154696	0.692594	0.68808	0	0.14	0.49	-0.0923	-0.2568	-0.4342	
0.15128	0.698084	0.682346	-0.42	-0.28	0.49	-0.0985	-0.2566	-0.4386	
0.150304	0.69784	0.684664	-0.14	0.07	0.63	-0.1059	-0.2607	-0.4329	
0.150182	0.69723	0.687348	0.14	-0.42	0.35	-0.1031	-0.2595	-0.4503	
0.15433	0.698328	0.687592	0	-0.28	0.28	-0.1014	-0.2579	-0.4328	
0.153232	0.695888	0.68686	-0.35	-0.14	0.28	-0.0986	-0.2551	-0.4429	
0.15189	0.696132	0.68686	-0.28	0	0.21	-0.0922	-0.2599	-0.44	
0.152378	0.696254	0.686128	0	-0.14	0.21	-0.0998	-0.2611	-0.4401	
0.153598	0.693814	0.687592	-0.07	0	0.21	-0.1016	-0.2549	-0.4401	
0.151524	0.696742	0.686738	-0.77	-0.28	0.28	-0.09519999	-0.2597	-0.4314	
0.151524	0.700036	0.687836	-0.35	-0.35	0.07	-0.1032	-0.2549	-0.4459	
0.152866	0.696986	0.687226	0.28	-0.07	0.21	-0.095	-0.2659	-0.4459	
0.156038	0.696498	0.688202	0.07	0	0.21	-0.1019	-0.2504	-0.4429	
0.15494	0.69845	0.685396	-0.21	-0.14	0.14	-0.0939	-0.2553	-0.4385	
0.152866	0.697108	0.686372	-0.14	0.35	0.21	-0.094	-0.2537	-0.4385	
0.152744	0.695766	0.6893	0	0.14	0	-0.0997	-0.2626	-0.4358	
0.152744	0.694912	0.687592	-0.07	0.21	0.07	-0.092	-0.2629	-0.4386	
0.153354	0.694912	0.686494	-0.14	0.14	0	-0.103	-0.2594	-0.4401	
0.152012	0.696742	0.68747	0.07	0	0.07	-0.0826	-0.268	-0.4414	
0.15311	0.697108	0.686006	0.14	-0.14	-0.07	-0.097	-0.2536	-0.4371	
0.153598	0.69662	0.68869	-0.14	-0.14	0	-0.0872	-0.2677	-0.4371	
0.15433	0.696132	0.686738	-0.21	0.07	0	-0.0966	-0.2627	-0.4357	
0.152134	0.696864	0.688202	-0.28	0.07	0	-0.0919	-0.266	-0.4386	
0.152988	0.696986	0.686372	-0.28	0.21	0.07	-0.1063	-0.2516	-0.4328	
0.1525	0.697474	0.686738	-0.14	0.14	-0.07	-0.1062	-0.2531	-0.4329	
0.152378	0.696742	0.687592	-0.28	0.21	0	-0.0999	-0.2596	-0.4459	
0.15128	0.697718	0.687714	-0.28	-0.14	-0.07	-0.0904	-0.2645	-0.44	
0.151158	0.694912	0.686372	-0.28	0.07	0.07	-0.0893	-0.2555	-0.4385	
0.1525	0.69601	0.686616	-0.35	-0.07	0.14	-0.1031	-0.258	-0.4503	
0.15311	0.696376	0.686616	-0.35	-0.28	0.21	-0.0878	-0.2525	-0.4341	
0.151524	0.696986	0.68686	-0.14	-0.14	0.28	-0.0932	-0.2736	-0.4503	
0.151768	0.70089	0.688324	0.21	-0.35	0.07	-0.0954	-0.2552	-0.4371	
0.155062	0.696864	0.68686	-0.07	0.14	0.14	-0.0981	-0.2626	-0.4358	
0.149816	0.696254	0.684664	-1.26	0.56	0.35	-0.0998	-0.2595	-0.4372	
0.1464	0.703452	0.689178	-0.7	-0.21	0.14	-0.0938	-0.2583	-0.44	
0.148596	0.69967	0.686006	1.05	0.21	0.07	-0.1076	-0.2577	-0.4387	
0.152744	0.691618	0.688812	0.42	0.28	0.14	-0.1045	-0.2578	-0.4358	
0.15189	0.696986	0.686494	-0.56	-0.49	0.14	-0.1001	-0.2566	-0.4459	
0.149938	0.69906	0.683932	-0.42	-0.21	0.28	-0.0984	-0.2597	-0.4459	
0.151768	0.695522	0.68808	-0.21	-0.21	0.14	-0.0984	-0.2581	-0.4386	
0.153232	0.69723	0.687592	-0.49	-0.21	0.14	-0.0937	-0.2598	-0.44	
0.152378	0.696376	0.688812	-0.56	-0.14	0.21	-0.0986	-0.2551	-0.4415	
0.152256	0.695522	0.688202	-0.56	-0.21	0.21	-0.1025	-0.2686	-0.4417	
0.1525	0.6954	0.688568	-0.42	-0.21	0.14	-0.0955	-0.2537	-0.44	
0.15311	0.694546	0.68747	-0.35	-0.14	0.21	-0.09519999	-0.2597	-0.4357	
0.152378	0.6954	0.689422	-1.05	-0.07	0.42	-0.0968	-0.2597	-0.4401	
0.151158	0.699426	0.688568	-0.56	-0.14	0.35	-0.1001	-0.2534	-0.4357	
0.15433	0.69296	0.688446	-0.21	0.42	0.49	-0.0955	-0.2552	-0.4386	
0.153232	0.694058	0.687592	-0.42	0.14	0.49	-0.0947	-0.2719	-0.4387	
0.151646	0.697962	0.687958	-0.42	-0.14	0.42	-0.0923	-0.2568	-0.4356	
0.150426	0.697352	0.687348	-0.28	0.07	0.35	-0.1036	-0.2457	-0.4386	
0.150914	0.696986	0.687592	-0.28	0.07	0.28	-0.0874	-0.2647	-0.44	
0.15189	0.695156	0.688446	-0.42	0.28	0.21	-0.09079999	-0.257	-0.4443	
0.151524	0.694668	0.68869	-0.42	0	0.21	-0.0904	-0.2661	-0.44	
0.152012	0.695888	0.687836	-0.28	-0.07	0.21	-0.097	-0.2551	-0.4386	
0.151524	0.696132	0.686616	-0.35	-0.14	0.21	-0.0969	-0.2551	-0.4313	
0.154086	0.69479	0.688812	-0.21	-0.14	0.28	-0.1018	-0.2519	-0.4415	
0.153842	0.694546	0.689666	-0.35	-0.07	0.35	-0.0951	-0.2628	-0.4372	
0.154086	0.696254	0.689178	-0.42	0	0.35	-0.0951	-0.2628	-0.4386	
0.15189	0.695034	0.688202	-0.49	0.14	0.28	-0.0938	-0.2583	-0.4415	
0.152134	0.695034	0.687714	-0.07	0.07	0.35	-0.0985	-0.255	-0.4342	
0.15311	0.6954	0.686738	-0.28	0.14	0.42	-0.098	-0.2657	-0.4387	
0.152378	0.697108	0.68869	-0.35	0.14	0.49	-0.09999999	-0.2565	-0.4415	
0.15372	0.694546	0.690154	-0.42	0.28	0.63	-0.1091	-0.2576	-0.4373	
0.152012	0.693448	0.687226	-0.91	0.49	0.77	-0.0924	-0.2538	-0.4356	
0.152256	0.696498	0.688202	-0.91	-0.21	0.63	-0.0936	-0.2629	-0.4401	
0.153232	0.697108	0.690642	-0.49	-0.42	0.56	-0.0893	-0.2539	-0.4341	
0.153964	0.697108	0.69235	-0.35	-0.21	0.7	-0.1097	-0.2486	-0.4502	
0.153964	0.695034	0.689544	-0.42	0	0.7	-0.0949	-0.2658	-0.4343	
0.151646	0.69235	0.686982	-1.54	0.63	0.91	-0.1002	-0.2551	-0.4473	
0.148962	0.698816	0.692716	-1.4	0	0.91	-0.0986	-0.2519	-0.4328	
0.149206	0.70028	0.691252	0.63	0.21	0.63	-0.0967	-0.2612	-0.4372	
0.154818	0.686982	0.691862	0.91	0.35	0.56	-0.0925	-0.2538	-0.4414	
0.15494	0.68869	0.690764	-0.56	-0.21	0.49	-0.0907	-0.2569	-0.4356	
0.153476	0.694668	0.691008	-0.91	-0.14	0.42	-0.0953	-0.2598	-0.4415	
0.15372	0.692838	0.691496	-0.49	0.28	0.49	-0.1095	-0.2531	-0.4459	
0.15555	0.690764	0.690032	-0.63	0.35	0.42	-0.1061	-0.2562	-0.4372	
0.156648	0.690764	0.692106	-0.35	0.14	0.35	-0.1005	-0.2459	-0.4414	
0.155428	0.690642	0.691008	-0.07	-0.14	0.28	-0.09649999	-0.2673	-0.443	
0.15616	0.690154	0.692472	0.14	0.07	0.28	-0.0941	-0.2538	-0.4472	
0.157136	0.689422	0.693204	0	-0.14	0.07	-0.0967	-0.2612	-0.4415	
0.155672	0.690032	0.691984	-0.7	0.14	0.14	-0.1138	-0.2574	-0.4417	
0.155794	0.693692	0.691496	-0.56	0.21	0.14	-0.0861	-0.2587	-0.4385	
0.155794	0.692228	0.690764	-0.07	0.42	0.21	-0.0971	-0.2552	-0.4473	
0.155794	0.688934	0.692838	0	0.35	0.21	-0.0954	-0.2551	-0.4342	
0.155306	0.691984	0.691496	0.07	-0.14	0	-0.1045	-0.2593	-0.4387	
0.152866	0.694058	0.692838	0.14	0.07	-0.07	-0.1009	-0.2701	-0.4373	
0.152256	0.692594	0.692106	0.14	0.28	-0.14	-0.0951	-0.2628	-0.443	
0.15311	0.691862	0.690276	-0.21	0.56	-0.14	-0.0907	-0.26	-0.4429	
0.152012	0.692472	0.68991	-0.07	0.28	-0.21	-0.1029	-0.261	-0.4459	
0.153598	0.692472	0.691252	-0.07	0.07	-0.28	-0.1043	-0.2624	-0.4373	
0.153598	0.692106	0.69174	0	-0.14	-0.28	-0.1002	-0.2567	-0.456	
0.154452	0.69235	0.691374	-0.14	0.14	-0.21	-0.0834	-0.2512	-0.4413	
0.154086	0.69235	0.691252	-0.35	0.21	-0.21	-0.1032	-0.2549	-0.4415	
0.154208	0.694424	0.69052	-0.35	0.42	-0.07	-0.0954	-0.2567	-0.44	
0.15311	0.692472	0.690276	-0.49	0.63	-0.07	-0.0953	-0.2613	-0.4459	
0.152378	0.694058	0.69113	-0.56	0.35	-0.07	-0.1031	-0.2564	-0.4386	
0.149938	0.697718	0.691618	-0.56	0.14	-0.07	-0.0983	-0.2596	-0.4372	
0.148352	0.697474	0.688934	-0.35	0.63	0.14	-0.1047	-0.2547	-0.4358	
0.14945	0.695034	0.684664	-0.98	0.98	0.42	-0.1015	-0.2564	-0.4357	
0.149084	0.69784	0.68503	-1.4	0.84	0.7	-0.103	-0.2595	-0.4445	
0.145424	0.700158	0.683078	-1.26	0.42	0.77	-0.0942	-0.2491	-0.4356	
0.145424	0.703452	0.682224	-1.19	0.63	0.98	-0.0986	-0.2551	-0.4415	
0.14457	0.70821	0.684176	-0.91	0.21	0.98	-0.1015	-0.2564	-0.4372	
0.1464	0.706014	0.683078	-1.61	0.35	0.84	-0.1096	-0.2485	-0.443	
0.142374	0.703086	0.682956	-3.57	0.98	1.4	-0.09519999	-0.2598	-0.4386	
0.141154	0.708698	0.687348	-3.57	0.14	1.4	-0.0953	-0.2598	-0.4458	
0.144326	0.706624	0.684298	-2.73	-0.35	1.19	-0.1003	-0.2536	-0.4502	
0.149328	0.698328	0.687592	-3.43	-0.21	1.26	-0.0942	-0.2523	-0.4486	
0.15433	0.695644	0.691008	-5.39	-0.42	1.47	-0.1048	-0.2533	-0.4401	
0.153964	0.694058	0.691008	-6.37	-0.42	1.68	-0.09429999	-0.2492	-0.4443	
0.15433	0.693326	0.693692	-6.3	-0.21	1.75	-0.0938	-0.2583	-0.4429	
0.157014	0.692838	0.696864	-6.23	-0.14	1.82	-0.0926	-0.2523	-0.4443	
0.156404	0.694912	0.698084	-5.6	0.14	1.89	-0.09119999	-0.2494	-0.4442	
0.156404	0.691252	0.696742	-5.67	0.35	1.96	-0.0929	-0.2447	-0.4384	
0.160186	0.687836	0.697596	-6.79	0.56	2.17	-0.0975	-0.2461	-0.4457	
0.159332	0.683688	0.699426	-7.7	0.49	2.38	-0.0975	-0.246	-0.4443	
0.15677	0.683932	0.701378	-8.26	0.56	2.73	-0.1004	-0.2473	-0.4342	
0.155672	0.677954	0.700158	-7.98	0.56	2.8	-0.0992	-0.243	-0.4515	
0.15799	0.678686	0.706746	-7.49	0.35	2.87	-0.1039	-0.2397	-0.4428	
0.162382	0.675026	0.70699	-8.4	0.07	2.73	-0.0961	-0.2431	-0.4457	
0.157014	0.676978	0.70699	-9.03	0.49	3.01	-0.0964	-0.237	-0.4456	
0.160796	0.672464	0.708332	-8.61	0.77	2.87	-0.0977	-0.2399	-0.4413	
0.158722	0.672098	0.713334	-8.4	1.05	2.66	-0.1009	-0.2383	-0.4428	
0.160674	0.671732	0.711992	-8.61	1.54	2.66	-0.1008	-0.2414	-0.4501	
0.15921	0.67222	0.71187	-8.4	0.77	2.59	-0.1058	-0.2336	-0.4486	
0.154696	0.667584	0.712602	-8.89	0.77	2.52	-0.0955	-0.2249	-0.4513	
0.158478	0.665022	0.720532	-9.59	0.56	2.03	-0.1045	-0.2275	-0.4456	
0.158234	0.661972	0.72224	-10.92	-0.07	2.1	-0.1048	-0.2214	-0.4485	
0.15738	0.660752	0.720776	-12.25	0.28	2.45	-0.1032	-0.2246	-0.4543	
0.156038	0.656726	0.724558	-11.62	-0.42	2.17	-0.097	-0.2248	-0.4484	
0.157258	0.655018	0.724924	-11.13	-0.91	1.82	-0.0925	-0.2236	-0.4527	
0.15616	0.645502	0.726876	-11.76	-0.63	1.96	-0.0972	-0.2219	-0.4585	
0.155672	0.639524	0.728584	-11.41	-1.47	1.82	-0.09739999	-0.2173	-0.457	
0.159576	0.637572	0.735294	-11.62	-1.4	2.24	-0.1126	-0.2196	-0.4529	
0.16409	0.63745	0.74176	-10.92	-1.89	2.31	-0.1006	-0.2141	-0.4541	
0.166896	0.623542	0.745664	-12.39	-0.84	2.8	-0.102	-0.2171	-0.4527	
0.162748	0.616588	0.747616	-10.92	-1.12	3.01	-0.1112	-0.2182	-0.4543	
0.167506	0.62281	0.743224	-8.89	-2.45	2.66	-0.1011	-0.2019	-0.4526	
0.166896	0.620736	0.751276	-9.59	-2.45	2.59	-0.09299999	-0.2113	-0.4468	
0.162382	0.6161	0.750788	-11.97	-1.33	3.36	-0.1086	-0.2061	-0.4498	
0.16104	0.618662	0.753716	-13.79	-1.12	3.64	-0.1124	-0.1939	-0.4613	
0.164822	0.607072	0.757376	-11.48	-1.61	3.15	-0.0981	-0.2005	-0.4511	
0.166408	0.599874	0.75823	-10.71	-0.35	3.85	-0.1061	-0.1941	-0.4497	
0.169946	0.60695	0.753472	-9.31	-1.47	3.29	-0.0984	-0.196	-0.4612	
0.165066	0.61793	0.75701	-10.43	-0.21	3.92	-0.1124	-0.1908	-0.4555	
0.161406	0.617442	0.752008	-10.22	0.42	4.13	-0.1075	-0.1971	-0.4526	
0.162992	0.610488	0.752618	-10.29	-0.21	4.27	-0.1056	-0.2031	-0.4425	
0.161406	0.607316	0.756278	-13.23	-0.84	4.69	-0.1034	-0.1882	-0.4568	
0.16226	0.604022	0.750422	-13.72	-0.49	5.11	-0.1155	-0.1922	-0.457	
0.16836	0.598532	0.75518	-13.09	-1.82	5.32	-0.1109	-0.1893	-0.4511	
0.165432	0.593774	0.756156	-14.07	-1.33	6.02	-0.1189	-0.1844	-0.457	
0.169946	0.593652	0.752984	-14.07	-0.84	6.65	-0.1035	-0.1851	-0.4554	
0.168848	0.60146	0.747494	-17.85	-0.49	7.63	-0.1098	-0.1834	-0.4612	
0.172142	0.591334	0.760792	-18.48	-1.26	7.77	-0.11	-0.1772	-0.4553	
0.173606	0.595116	0.757986	-20.51	-1.96	8.33	-0.0994	-0.1731	-0.4523	
0.181536	0.586698	0.760426	-23.66	-0.91	9.31	-0.115	-0.1694	-0.4568	
0.185684	0.571204	0.772748	-24.36	-0.21	9.52	-0.106	-0.1637	-0.4537	
0.189466	0.56974	0.778482	-24.08	-2.17	9.03	-0.1074	-0.1683	-0.4625	
0.18971	0.562298	0.78324	-27.72	-0.98	9.31	-0.1168	-0.1601	-0.4466	
0.18788	0.540582	0.787876	-27.93	0.84	9.8	-0.1109	-0.1575	-0.4566	
0.197884	0.524966	0.792024	-27.93	-0.49	9.59	-0.1004	-0.1519	-0.4579	
0.200568	0.515328	0.797636	-29.54	-0.49	10.29	-0.1195	-0.1389	-0.4652	
0.200446	0.506666	0.80154	-31.22	-0.42	10.71	-0.1138	-0.1269	-0.4549	
0.195932	0.488244	0.80703	-33.53	-0.42	11.13	-0.1104	-0.1347	-0.4578	
0.190808	0.478118	0.811178	-31.85	-1.05	11.06	-0.1095	-0.1242	-0.4664	
0.190686	0.467748	0.818864	-34.44	-0.49	11.83	-0.114	-0.1239	-0.4563	
0.197152	0.449204	0.818376	-34.93	-0.21	12.32	-0.1112	-0.1179	-0.4548	
0.203008	0.433222	0.817156	-35.49	-0.35	12.53	-0.1191	-0.1146	-0.4592	
0.207644	0.413214	0.824598	-36.33	0.35	13.16	-0.1148	-0.1072	-0.4591	
0.214354	0.407236	0.83326	-36.96	-0.28	13.65	-0.1106	-0.0998	-0.4633	
0.220576	0.397232	0.848754	-39.13	-1.82	13.72	-0.1258	-0.1006	-0.4533	
0.228506	0.380884	0.865468	-37.31	-0.21	13.79	-0.1192	-0.0797	-0.4603	
0.233752	0.358436	0.865712	-40.04	1.05	14.28	-0.1159	-0.0844	-0.4632	
0.226676	0.329522	0.865956	-43.54	1.82	14.77	-0.1212	-0.0689	-0.4588	
0.229848	0.30378	0.888892	-41.93	2.66	14.77	-0.1168	-0.0615	-0.4514	
0.225334	0.26657	0.893406	-40.32	3.57	14.42	-0.1186	-0.06	-0.4659	
0.221186	0.233142	0.88023	-40.53	2.59	14.07	-0.1095	-0.0543	-0.4571	
0.22082	0.212768	0.886208	-39.9	0	13.44	-0.1193	-0.0416	-0.4556	
0.220942	0.205326	0.894992	-39.06	-0.7	13.58	-0.1133	-0.0373	-0.4541	
0.221186	0.193736	0.902312	-37.03	-2.66	12.81	-0.1059	-0.0331	-0.4554	
0.23119	0.179828	0.930128	-36.4	-2.52	12.6	-0.1076	-0.0269	-0.4467	
0.23973	0.162382	0.938546	-35.49	-2.94	11.41	-0.1082	-0.0163	-0.4523	
0.243268	0.143716	0.945378	-35	-2.31	10.92	-0.118	-0.0053	-0.4596	
0.257664	0.129686	0.95953	-32.41	-5.67	9.87	-0.1134	-0.0024	-0.4552	
0.270108	0.117608	0.959408	-30.66	-6.93	9.03	-0.1137	0.0036	-0.4522	
0.268278	0.105408	0.953918	-32.27	-0.7	10.15	-0.1166	-0.0007	-0.4523	
0.269498	0.089792	0.966362	-32.83	5.32	11.2	-0.1121	0.0051	-0.4464	
0.263886	0.078446	0.97234	-30.03	2.24	10.43	-0.1112	0.0172	-0.4463	
0.269742	0.081984	0.958676	-28.07	-2.17	8.61	-0.1114	0.0202	-0.452	
0.276574	0.085766	0.951478	-29.96	-1.75	8.4	-0.11	0.0263	-0.4418	
0.27694	0.074054	0.96441	-31.64	-0.21	8.19	-0.1058	0.0353	-0.4373	
0.266692	0.06283	0.970876	-27.79	0.35	6.93	-0.1176	0.0267	-0.4376	
0.269498	0.050264	0.983686	-26.95	0	6.09	-0.1181	0.0374	-0.4346	
0.279136	0.040992	0.980758	-22.96	0.63	5.32	-0.1128	0.0538	-0.4387	
0.276696	0.036722	0.978074	-22.26	5.39	6.51	-0.1095	0.0507	-0.43	
0.266082	0.02196	0.97966	-21.28	2.8	5.25	-0.1036	0.0533	-0.4444	
0.26169	0.012566	0.982832	-19.18	1.54	3.99	-0.1034	0.0519	-0.4372	
0.25071	0.008417999	0.984052	-17.78	2.87	3.71	-0.1034	0.0519	-0.4328	
0.25132	0.004026	0.98759	-16.31	2.8	3.36	-0.1006	0.0563	-0.4371	
0.258396	0.005734	0.992104	-12.46	2.73	2.8	-0.0992	0.0608	-0.4327	
0.257908	-0.001464	0.986736	-10.22	1.82	1.89	-0.1104	0.0705	-0.4298	
0.257542	-0.00061	0.984906	-7.77	0.84	1.05	-0.1043	0.07009999	-0.4384	
0.253394	-0.000244	0.985394	-5.53	1.33	0.77	-0.1041	0.0671	-0.4341	
0.253516	0.000122	0.98088	-3.22	1.82	0.7	-0.1071	0.0658	-0.4327	
0.24827	0.000976	0.974536	-1.47	1.4	0.77	-0.1056	0.0657	-0.4327	
0.247904	0.002318	0.974902	1.12	0.63	0.21	-0.1028	0.07009999	-0.4399	
0.249734	0.007564	0.968558	2.8	0.7	0	-0.1101	0.066	-0.4255	
0.250832	0.006222	0.96563	4.13	1.12	0	-0.1077	0.0779	-0.4326	
0.245342	0.005612	0.964898	5.18	1.05	0	-0.1166	0.0707	-0.4342	
0.243756	0.011224	0.961848	5.11	0	-0.14	-0.1099	0.0614	-0.4256	
0.246196	0.019642	0.965874	5.04	-0.21	-0.14	-0.1151	0.0722	-0.4313	
0.246196	0.028304	0.959042	5.04	0.42	0.28	-0.1075	0.0734	-0.4327	
0.247538	0.031232	0.964898	5.67	-0.21	-0.14	-0.1037	0.0564	-0.4386	
0.251076	0.029036	0.964654	6.65	-0.77	-0.7	-0.1129	0.0584	-0.4343	
0.255712	0.030744	0.96441	8.54	-0.63	-1.26	-0.1069	0.0627	-0.4299	
0.257542	0.032696	0.965142	10.29	-1.26	-1.89	-0.1082	0.0536	-0.4401	
0.256078	0.033062	0.965874	10.92	-1.96	-2.03	-0.1128	0.0554	-0.4314	
0.253638	0.053802	0.955382	9.87	-1.61	-1.54	-0.1142	0.0508	-0.4387	
0.252906	0.061488	0.956968	9.38	-1.19	-1.54	-0.1191	0.0571	-0.4387	
0.253882	0.066368	0.954162	9.66	-1.68	-1.96	-0.1052	0.0549	-0.4429	
0.257054	0.070394	0.96014	9.8	-2.45	-2.66	-0.1061	0.0445	-0.43	
0.2562	0.069906	0.960872	10.29	-2.03	-3.01	-0.1029	0.0397	-0.4416	
0.255956	0.065636	0.962336	11.62	-1.68	-3.29	-0.1082	0.0536	-0.4415	
0.263398	0.065392	0.965264	12.18	-1.75	-3.99	-0.1063	0.0475	-0.4329	
0.263032	0.064904	0.96563	13.44	-1.54	-4.48	-0.1077	0.0414	-0.446	
0.263642	0.063562	0.972462	14.63	-1.75	-4.76	-0.1074	0.0384	-0.4344	
0.265228	0.06405	0.96929	15.89	-1.19	-4.97	-0.1126	0.0492	-0.4431	
0.2684	0.06649	0.962336	14.84	-0.35	-4.55	-0.1117	0.031	-0.436	
0.26413	0.077104	0.95892	14.49	-0.21	-4.69	-0.1122	0.0416	-0.4417	
0.256566	0.08235	0.958432	15.61	-1.12	-5.6	-0.115	0.0357	-0.4374	
0.25193	0.088084	0.960384	20.09	-1.26	-6.58	-0.112	0.0355	-0.4461	
0.250466	0.092476	0.950746	22.61	-1.4	-7.21	-0.1196	0.0312	-0.4535	
0.259006	0.098332	0.954162	21.98	-2.03	-7.49	-0.1158	0.0174	-0.4463	
0.262788	0.11041	0.952942	22.33	-2.52	-8.12	-0.1113	0.0203	-0.4462	
0.261446	0.117486	0.96197	22.89	-2.45	-8.54	-0.1177	0.0267	-0.4419	
0.250832	0.118218	0.955504	24.5	-2.1	-9.03	-0.1231	0.008599999	-0.4479	
0.250588	0.123708	0.963434	27.44	-2.24	-9.94	-0.1136	0.0036	-0.4479	
0.259494	0.132248	0.972828	31.85	-2.94	-11.06	-0.1151	0.0007	-0.4494	
0.2623	0.141276	0.972218	35.56	-3.29	-11.76	-0.1239	-0.007999999	-0.4524	
0.260104	0.157258	0.961848	37.17	-2.45	-12.04	-0.1256	-0.0033	-0.4452	
0.260348	0.167872	0.96258	40.11	-1.89	-12.67	-0.1113	-0.0178	-0.4654	
0.262056	0.182878	0.956724	43.19	-1.75	-13.3	-0.1159	-0.0144	-0.451	
0.259128	0.199226	0.944402	45.64	-0.91	-13.79	-0.1136	-0.0344	-0.4613	
0.249124	0.212158	0.931958	47.74	-0.49	-14.07	-0.1165	-0.0373	-0.4613	
0.244976	0.228506	0.92354	51.31	-0.35	-14.28	-0.1172	-0.0539	-0.4528	
0.24583	0.244488	0.906704	52.29	-0.77	-14.91	-0.1203	-0.0553	-0.4601	
0.244732	0.267058	0.897554	53.9	-0.14	-15.33	-0.1225	-0.0735	-0.4632	
0.24156	0.286578	0.894504	55.58	0.56	-15.82	-0.1207	-0.0781	-0.4589	
0.233508	0.306952	0.875228	57.12	0.56	-16.03	-0.116	-0.07979999	-0.4574	
0.234118	0.322568	0.869006	56.91	2.03	-15.68	-0.1247	-0.0931	-0.462	
0.234606	0.340502	0.855464	57.33	1.19	-16.24	-0.1119	-0.1059	-0.4677	
0.24156	0.357948	0.848998	58.31	1.33	-16.59	-0.1178	-0.1102	-0.4664	
0.239608	0.379542	0.834968	58.8	2.38	-16.59	-0.12	-0.1298	-0.4637	
0.235582	0.403576	0.815204	57.61	4.06	-16.1	-0.1228	-0.1358	-0.4681	
0.222162	0.43432	0.790072	57.47	3.64	-16.24	-0.1117	-0.1392	-0.4521	
0.21106	0.463722	0.772016	56.7	2.66	-16.52	-0.1096	-0.1546	-0.4638	
0.202886	0.490196	0.76555	56.63	3.71	-16.87	-0.1149	-0.1694	-0.4495	
0.19276	0.50813	0.764086	56.84	4.2	-17.43	-0.1165	-0.1709	-0.4583	
0.190686	0.525088	0.754448	58.59	4.06	-18.2	-0.11	-0.1788	-0.4597	
0.18605	0.542046	0.746884	59.22	3.85	-18.62	-0.1123	-0.1954	-0.4584	
0.182878	0.563884	0.722972	59.64	3.64	-18.27	-0.1087	-0.203	-0.4483	
0.171776	0.583404	0.697596	58.94	4.97	-17.43	-0.1038	-0.2109	-0.4527	
0.169824	0.602802	0.671976	60.34	4.9	-17.15	-0.097	-0.2249	-0.4513	
0.167872	0.622688	0.666608	60.27	2.87	-17.29	-0.1029	-0.2307	-0.4514	
0.159088	0.65026	0.651846	58.8	1.26	-17.5	-0.1096	-0.2501	-0.4488	
0.15067	0.676856	0.631594	56.91	-0.56	-17.71	-0.0991	-0.2444	-0.4428	
0.146766	0.69967	0.61732	55.86	-1.47	-17.5	-0.0997	-0.2657	-0.4488	
0.144936	0.72163	0.606096	53.55	-1.19	-17.22	-0.1042	-0.2654	-0.4402	
0.139812	0.751398	0.60878	53.62	1.75	-16.38	-0.0944	-0.2781	-0.4431	
0.125416	0.782752	0.598532	46.13	6.65	-14.84	-0.097	-0.287	-0.436	
0.131394	0.777994	0.608536	47.88	12.11	-13.79	-0.0923	-0.2887	-0.4359	
0.130296	0.779336	0.592798	50.12	14.35	-13.51	-0.087	-0.301	-0.423	
0.122976	0.782752	0.559736	47.53	16.59	-12.88	-0.0779	-0.2999	-0.4286	
0.108458	0.80764	0.53863	49.56	6.09	-14.84	-0.0851	-0.3102	-0.4245	
0.097722	0.829722	0.512644	43.68	9.59	-13.65	-0.0739	-0.3214	-0.4303	
0.07381	0.838506	0.488732	41.37	8.4	-13.02	-0.0739	-0.3167	-0.4172	
0.0732	0.867908	0.489342	44.45	4.69	-13.58	-0.061	-0.331	-0.4172	
0.06649	0.876326	0.486048	37.24	4.83	-12.95	-0.0652	-0.3399	-0.4144	
0.054534	0.879254	0.463234	36.54	4.62	-12.88	-0.0586	-0.3493	-0.4173	
0.049288	0.885598	0.463478	34.86	5.04	-12.74	-0.0647	-0.3474	-0.4058	
0.045872	0.891088	0.449692	34.86	6.16	-12.74	-0.0689	-0.3563	-0.4074	
0.039162	0.901946	0.45018	29.68	6.37	-12.46	-0.0529	-0.3691	-0.3986	
0.03904	0.901946	0.43981	31.29	6.65	-12.81	-0.0531	-0.3646	-0.3986	
0.03782	0.903654	0.43859	30.94	4.83	-13.37	-0.0617	-0.3778	-0.3959	
0.047824	0.899262	0.43981	28.91	3.78	-13.58	-0.0522	-0.3828	-0.3958	
0.042944	0.89609	0.426268	31.29	2.73	-13.79	-0.0477	-0.38	-0.3958	
0.042334	0.89365	0.414678	30.8	4.06	-13.3	-0.0505	-0.3827	-0.3828	
0.036234	0.902068	0.409066	26.74	5.53	-12.25	-0.0523	-0.3797	-0.3886	
0.016348	0.900116	0.377834	23.1	5.74	-11.34	-0.044	-0.3922	-0.3886	
0.005734	0.9089	0.377956	19.04	3.22	-10.92	-0.0469	-0.3966	-0.3872	
0.003538	0.935496	0.390278	15.26	3.85	-9.94	-0.0456	-0.389	-0.3828	
-0.017202	0.95526	0.387716	17.08	4.13	-9.87	-0.0315	-0.3957	-0.3798	
-0.019154	0.947452	0.389668	13.58	3.43	-9.94	-0.0372	-0.4045	-0.3756	
-0.01891	0.94977	0.383934	15.4	2.17	-10.08	-0.0281	-0.4004	-0.3726	
-0.01403	0.94977	0.379054	16.59	-0.7	-9.8	-0.0296	-0.4034	-0.3799	
-0.011102	0.94245	0.374174	14.7	-1.61	-9.52	-0.0308	-0.4094	-0.3741	
-0.007686	0.933056	0.38186	12.32	-0.63	-8.89	-0.0302	-0.4215	-0.3699	
-0.01037	0.926224	0.377468	10.99	0.56	-8.61	-0.0194	-0.422	-0.3727	
-0.012932	0.921466	0.377834	12.67	0.21	-8.96	-0.0303	-0.4185	-0.3699	
-0.013176	0.918416	0.37454	13.72	-0.49	-9.31	-0.0244	-0.4142	-0.3712	
-0.008662	0.917074	0.366	13.65	-0.28	-9.24	-0.0303	-0.4169	-0.3655	
-0.01098	0.930372	0.359168	11.9	0.7	-9.03	-0.0269	-0.4246	-0.3641	
-0.027206	0.942084	0.350506	10.64	0.63	-8.89	-0.0133	-0.4207	-0.3654	
-0.031476	0.95343	0.346846	10.08	0.21	-8.96	-0.0228	-0.4142	-0.3683	
-0.03416	0.956968	0.348188	8.75	-1.47	-9.38	-0.0126	-0.4328	-0.3568	
-0.02867	0.970998	0.340136	7.56	-2.1	-10.01	-0.027	-0.42	-0.3568	
-0.030012	0.99125	0.336842	4.76	-1.96	-10.15	-0.0132	-0.4206	-0.3567	
-0.043432	1.00345	0.343308	2.45	-1.89	-9.8	-0.0203	-0.4325	-0.3598	
-0.050386	1.027728	0.346358	1.61	-2.24	-9.1	-0.0129	-0.4267	-0.3596	
-0.039772	1.002108	0.3538	3.15	-2.73	-8.26	-0.0176	-0.4266	-0.364	
-0.030622	0.970144	0.344406	2.17	0.42	-7.21	-0.0052	-0.4287	-0.3668	
-0.0244	0.946842	0.339892	1.82	2.87	-5.95	-0.0081	-0.43	-0.3553	
-0.020862	0.939034	0.3477	6.65	0.42	-6.16	-0.0018	-0.4349	-0.3625	
-0.0183	0.937204	0.343308	6.72	-0.7	-5.74	-0.0066	-0.4301	-0.3625	
-0.022082	0.946354	0.340258	4.97	0.77	-4.69	-0.0173	-0.4295	-0.3539	
-0.030622	0.953186	0.347212	3.64	2.24	-3.78	-0.0173	-0.4295	-0.3554	
-0.033916	0.957456	0.338062	2.66	3.85	-3.22	-0.0127	-0.4298	-0.3553	
-0.036478	0.95892	0.328912	0.77	6.02	-2.17	-0.0063	-0.4345	-0.3495	
-0.037576	0.95526	0.332084	1.47	6.51	-1.54	-0.0187	-0.434	-0.354	
-0.040748	0.960994	0.331108	1.75	6.23	-0.98	0.0041	-0.4321	-0.358	
-0.056242	0.97783	0.322202	0	6.72	0.28	-0.0021	-0.4288	-0.3639	
-0.063806	0.967582	0.334402	0.63	5.88	0.84	0.0024	-0.429	-0.3609	
-0.066246	0.95404	0.33062	0.28	6.02	1.4	0.0028	-0.4365	-0.3552	
-0.054412	0.941352	0.332328	0.49	5.81	1.54	-0.007999999	-0.4315	-0.3524	
-0.042456	0.931714	0.33855	1.61	3.71	1.4	-0.0007	-0.4258	-0.3595	
-0.0488	0.93696	0.3294	0	2.31	1.96	-0.0043	-0.4469	-0.3583	
-0.056852	0.947574	0.326838	-2.38	2.8	2.87	-0.0032	-0.4363	-0.3582	
-0.057584	0.958188	0.339404	-2.8	2.52	3.15	-0.01	-0.4223	-0.3552	
-0.062342	0.966362	0.349164	-1.54	1.12	3.22	0.0059	-0.4351	-0.3523	
-0.059536	0.969046	0.349652	-2.31	0.28	3.01	-0.0078	-0.4376	-0.3568	
-0.0549	0.964654	0.346114	-4.06	1.68	2.66	-0.0016	-0.4395	-0.364	
-0.053924	0.959652	0.34526	-5.32	2.45	2.52	-0.0002	-0.4349	-0.3596	
-0.060512	0.962214	0.338794	-6.3	2.03	2.31	0.0054	-0.4276	-0.3609	
-0.063684	0.967826	0.339282	-6.23	1.05	2.03	-0.002	-0.4287	-0.3566	
-0.067832	0.963678	0.338428	-7.63	0.49	1.96	-0.0004	-0.4335	-0.3668	
-0.066978	0.965142	0.339892	-8.75	0.56	1.75	-0.0004	-0.4303	-0.3566	
-0.064904	0.974658	0.348066	-9.52	0.56	1.61	-0.0038	-0.4272	-0.3668	
-0.060268	0.963068	0.34831	-10.64	-0.7	1.89	-0.0051	-0.4286	-0.3581	
-0.055876	0.951234	0.342942	-12.6	-0.63	2.31	-0.0094	-0.4376	-0.3626	
-0.058316	0.954894	0.346236	-15.12	-0.42	2.8	-0.013	-0.4252	-0.3611	
-0.057462	0.955626	0.357826	-15.12	-1.47	2.87	-0.0009	-0.4228	-0.3681	
-0.050508	0.951722	0.356728	-15.12	-2.38	2.87	-0.0054	-0.4256	-0.3668	
-0.046604	0.952332	0.356484	-17.43	-2.66	3.5	-0.0072	-0.4179	-0.3624	
-0.050264	0.94916	0.364536	-19.04	-3.36	4.06	0.0003	-0.4199	-0.3739	
-0.047092	0.94611	0.374418	-20.16	-3.36	4.83	-0.0136	-0.4131	-0.3653	
-0.04697	0.935496	0.379786	-23.45	-2.73	6.23	-0.0036	-0.4016	-0.3825	
-0.041724	0.94184	0.382836	-23.17	-3.22	6.58	-0.0081	-0.4013	-0.3738	
-0.040504	0.945134	0.39894	-22.33	-3.57	7.35	-0.0174	-0.4025	-0.3884	
-0.029524	0.93879	0.407846	-21.77	-3.22	8.12	-0.0186	-0.4084	-0.3769	
-0.027816	0.93025	0.414068	-24.01	-2.1	9.1	-0.0173	-0.4024	-0.3797	
-0.01952	0.913292	0.421388	-25.76	-1.96	9.31	-0.0145	-0.398	-0.3811	
-0.020252	0.901336	0.429928	-25.76	-3.43	9.52	-0.0181	-0.3904	-0.3984	
-0.020008	0.911584	0.422608	-21.14	-5.88	8.47	-0.0244	-0.3871	-0.397	
-0.021106	0.913536	0.439566	-22.47	-0.49	10.22	-0.0276	-0.3839	-0.3956	
-0.016104	0.908046	0.45262	-21.35	-1.89	9.73	-0.0227	-0.3902	-0.3985	
-0.007442	0.90036	0.454938	-24.71	-1.12	10.08	-0.0324	-0.3822	-0.4029	
-0.003904	0.895846	0.462258	-27.23	1.05	10.57	-0.0281	-0.3733	-0.3969	
-0.006832	0.903288	0.464942	-27.58	1.33	10.71	-0.0287	-0.3627	-0.407	
-0.006954	0.89731	0.472384	-27.65	0.84	10.92	-0.0349	-0.3624	-0.407	
-0.008052	0.903288	0.47336	-31.36	0.91	11.69	-0.0284	-0.3672	-0.4027	
-0.003538	0.89548	0.477874	-31.36	-4.2	11.06	-0.0385	-0.3502	-0.4113	
0.006466	0.899628	0.480802	-31.78	-5.74	10.71	-0.0274	-0.3598	-0.4142	
0.013542	0.893406	0.485072	-35.49	-2.24	11.76	-0.0296	-0.3445	-0.4155	
0.024034	0.881938	0.495442	-37.1	-1.26	12.53	-0.0422	-0.3394	-0.4199	
0.018422	0.87596	0.502762	-39.2	0	13.37	-0.0271	-0.3325	-0.4183	
0.020862	0.87047	0.505568	-39.34	1.05	13.16	-0.0456	-0.3333	-0.4243	
0.028182	0.859856	0.52338	-38.15	-0.91	12.88	-0.0459	-0.3272	-0.4286	
0.029036	0.84363	0.534726	-32.9	-6.23	11.62	-0.0418	-0.3167	-0.4241	
0.021228	0.83326	0.539118	-31.92	-5.88	12.25	-0.0513	-0.3103	-0.4285	
0.028182	0.813618	0.548512	-29.05	-5.88	11.2	-0.05	-0.3073	-0.4313	
0.046848	0.796782	0.578402	-26.18	-4.76	10.99	-0.0472	-0.3014	-0.4341	
0.046238	0.792024	0.581574	-25.13	-4.34	11.55	-0.0425	-0.3047	-0.437	
0.040016	0.77836	0.58377	-30.17	-2.94	12.39	-0.0567	-0.2949	-0.4342	
0.027084	0.772138	0.58133	-32.69	-1.96	12.74	-0.06	-0.2949	-0.4487	
0.031232	0.767624	0.601948	-33.81	-4.2	12.67	-0.0523	-0.2921	-0.4355	
0.043554	0.746762	0.617686	-34.44	-4.06	13.16	-0.0665	-0.2854	-0.4458	
0.058926	0.736636	0.640744	-29.82	-4.62	12.95	-0.0635	-0.2841	-0.4486	
0.083448	0.721752	0.656482	-25.55	-4.62	12.18	-0.0686	-0.2717	-0.4442	
0.096136	0.706746	0.671	-25.62	-5.32	12.74	-0.0559	-0.2813	-0.4398	
0.102358	0.696132	0.672464	-34.37	0	14.98	-0.0669	-0.2763	-0.4486	
0.09747799	0.673684	0.687836	-39.62	1.75	16.1	-0.0678	-0.2581	-0.4484	
0.099064	0.658678	0.691862	-43.82	0.14	16.52	-0.0634	-0.2537	-0.4498	
0.096624	0.636108	0.696132	-46.9	3.29	17.29	-0.0547	-0.242	-0.451	
0.087596	0.61549	0.6954	-47.39	2.94	16.66	-0.07319999	-0.2427	-0.4527	
0.082472	0.59536	0.693814	-50.05	2.52	15.89	-0.08	-0.2287	-0.457	
0.086132	0.57157	0.709552	-51.31	-0.42	14.91	-0.0706	-0.2322	-0.454	
0.100894	0.549488	0.735294	-50.68	-3.01	13.93	-0.0669	-0.2142	-0.4639	
0.113582	0.528992	0.74908	-49.7	-4.69	13.44	-0.0747	-0.2092	-0.4567	
0.126636	0.510204	0.756034	-52.64	-4.41	13.65	-0.0755	-0.1956	-0.4653	
0.13725	0.50325	0.762866	-55.65	-4.34	13.93	-0.0726	-0.1928	-0.4725	
0.146034	0.48739	0.777872	-56.49	-8.33	13.37	-0.0763	-0.1773	-0.4622	
0.145546	0.473726	0.795074	-55.3	-9.03	13.3	-0.08109999	-0.1726	-0.4651	
0.157624	0.455304	0.803858	-54.95	-7.63	13.51	-0.0944	-0.1538	-0.4738	
0.170678	0.43798	0.82289	-55.86	-5.67	14	-0.0756	-0.1592	-0.4664	
0.177266	0.41724	0.834602	-55.58	-4.83	14.07	-0.0887	-0.1419	-0.4678	
0.184586	0.402844	0.847412	-54.53	-4.83	13.23	-0.0829	-0.1345	-0.4648	
0.196298	0.389912	0.852048	-52.08	-5.04	11.69	-0.08	-0.1301	-0.4647	
0.201056	0.366854	0.859124	-48.93	-3.43	10.29	-0.1009	-0.111	-0.4706	
0.201422	0.352214	0.87291	-49.35	-3.08	9.8	-0.0918	-0.1068	-0.4646	
0.197396	0.341478	0.888892	-47.39	-1.96	9.73	-0.09869999	-0.09119999	-0.4616	
0.206424	0.325252	0.902922	-47.88	-2.59	9.31	-0.09739999	-0.08989999	-0.4761	
0.208376	0.319518	0.909998	-46.55	-1.19	9.24	-0.0918	-0.0765	-0.4745	
0.20557	0.302682	0.918294	-46.41	-0.7	8.82	-0.0997	-0.0684	-0.4643	
0.203252	0.288774	0.924394	-44.52	-1.12	8.19	-0.0892	-0.06439999	-0.4656	
0.19886	0.274744	0.9211	-42.63	-0.98	7.28	-0.0925	-0.0597	-0.4642	
0.194956	0.252784	0.91866	-42.21	-0.07	6.79	-0.0959	-0.0535	-0.4714	
0.193126	0.225456	0.926956	-43.89	0.35	6.65	-0.0948	-0.0444	-0.4699	
0.19154	0.208864	0.932324	-44.45	-0.98	6.58	-0.0889	-0.0386	-0.4654	
0.190686	0.190808	0.934886	-45.43	-2.03	6.58	-0.088	-0.025	-0.4725	
0.194346	0.17812	0.955382	-45.22	-1.4	6.51	-0.0929	-0.0187	-0.4667	
0.184464	0.15677	0.960506	-42.07	-2.45	5.95	-0.0944	-0.017	-0.4594	
0.195566	0.13908	0.959286	-37.8	-3.5	5.25	-0.101	-0.0076	-0.4609	
0.219234	0.11834	0.98393	-35.28	-2.1	5.32	-0.1044	-0.0014	-0.4623	
0.219722	0.101992	0.989054	-30.73	0.77	4.41	-0.09209999	-0.0004	-0.4578	
0.216794	0.09747799	1.00223	-32.76	0.63	4.2	-0.0939	0.0072	-0.4563	
0.206302	0.089182	0.999302	-31.64	1.96	4.41	-0.0861	0.0054	-0.4533	
0.20374	0.081008	1.004426	-29.61	4.55	5.39	-0.0954	0.0073	-0.4505	
0.206546	0.06832	1.011136	-24.43	2.73	4.62	-0.0929	0.0209	-0.4489	
0.203374	0.06344	1.000644	-21.42	3.22	4.27	-0.0932	0.0254	-0.4561	
0.199104	0.059536	0.99674	-19.25	4.27	4.2	-0.087	0.0252	-0.4459	
0.19581	0.061488	0.99308	-14.91	3.85	3.08	-0.0873	0.0312	-0.4546	
0.191906	0.055754	0.991128	-12.04	2.03	1.82	-0.0872	0.0282	-0.4502	
0.186538	0.063562	0.977464	-9.73	2.24	0.98	-0.0968	0.0393	-0.4473	
0.185684	0.065636	0.980758	-7.98	1.12	0.7	-0.0955	0.0407	-0.456	
0.188124	0.066246	0.983564	-7.07	-0.35	0.49	-0.0949	0.0301	-0.4503	
0.188734	0.073078	0.981734	-5.81	-0.49	0.14	-0.09339999	0.0285	-0.4561	
0.185318	0.073566	0.981124	-4.97	-0.35	-0.14	-0.0827	0.0295	-0.4589	
0.188978	0.072224	0.981734	-4.48	0	-0.28	-0.0863	0.0434	-0.4501	
0.186294	0.07137	0.992592	-2.8	-1.33	-0.84	-0.1046	0.0397	-0.4489	
0.188734	0.070516	0.990762	-1.54	-1.33	-1.19	-0.0907	0.0422	-0.44	
0.192638	0.068442	0.987834	-0.42	-1.54	-1.33	-0.0984	0.0378	-0.4532	
0.196176	0.069174	0.988078	0.7	-1.19	-1.26	-0.08769999	0.042	-0.4472	
0.196786	0.066124	0.99125	1.4	-1.12	-1.4	-0.0875	0.0374	-0.4444	
0.20069	0.066368	0.991372	3.22	-0.84	-1.89	-0.0944	0.0529	-0.4443	
0.200446	0.06466	0.987834	6.02	-1.12	-2.52	-0.0918	0.03	-0.4459	
0.20313	0.06039	0.99857	7.56	-1.12	-2.8	-0.0846	0.0387	-0.4516	
0.199592	0.061854	0.995032	9.1	-0.77	-2.73	-0.0844	0.0341	-0.456	
0.200934	0.065026	0.994666	10.15	-0.98	-3.01	-0.0963	0.0256	-0.4547	
0.202398	0.066246	1.00101	12.6	-1.05	-3.57	-0.0889	0.0313	-0.4531	
0.206302	0.058926	1.003572	15.19	0.21	-3.85	-0.0997	0.0318	-0.4561	
0.208742	0.056608	1.008452	17.85	0.28	-4.06	-0.0979	0.0287	-0.4518	
0.206546	0.066368	1.008452	19.81	-0.84	-4.62	-0.0873	0.0297	-0.4589	
0.206058	0.070882	1.011136	22.05	-0.77	-5.04	-0.0945	0.021	-0.4489	
0.207156	0.078812	1.01321	24.36	-0.42	-5.88	-0.0959	0.018	-0.4475	
0.210694	0.076006	1.007598	29.33	0.14	-7.07	-0.09559999	0.0104	-0.4534	
0.208376	0.080764	1.011746	34.09	0.63	-8.12	-0.0941	0.0102	-0.4606	
0.206912	0.088206	1.006378	36.75	-0.7	-9.38	-0.0909	0.008599999	-0.4534	
0.206058	0.100284	1.000766	39.69	-1.47	-10.36	-0.0919	-0.0034	-0.4578	
0.211182	0.12322	0.988444	43.47	-1.61	-10.78	-0.0857	-0.0052	-0.4563	
0.207766	0.137982	0.992226	45.57	0.56	-10.85	-0.1037	-0.0151	-0.4624	
0.210816	0.152134	0.985028	50.12	0.63	-11.97	-0.0973	-0.023	-0.4668	
0.207034	0.168238	0.964654	53.97	1.05	-13.09	-0.1106	-0.033	-0.4641	
0.199104	0.186782	0.955748	56.14	1.4	-13.93	-0.0997	-0.0365	-0.4626	
0.18971	0.20557	0.94306	60.06	-0.07	-15.19	-0.0958	-0.0518	-0.4569	
0.18788	0.226798	0.927322	63	0.63	-15.89	-0.0925	-0.0581	-0.4642	
0.180804	0.245098	0.91134	63.7	1.89	-15.54	-0.09959999	-0.0699	-0.46	
0.178608	0.273768	0.899262	64.4	1.54	-15.4	-0.0916	-0.0795	-0.4702	
0.166896	0.303902	0.879254	65.03	0.35	-15.47	-0.0927	-0.0901	-0.4717	
0.16409	0.335622	0.860832	64.47	0.35	-15.33	-0.0904	-0.1038	-0.4631	
0.159332	0.359046	0.847168	64.89	1.68	-14.98	-0.0854	-0.1116	-0.4602	
0.154208	0.378444	0.83936	66.64	3.15	-15.05	-0.091	-0.1235	-0.4604	
0.147742	0.398574	0.822036	67.55	4.27	-15.05	-0.0924	-0.1312	-0.4764	
0.142862	0.423462	0.801174	67.2	5.25	-14.56	-0.0856	-0.142	-0.4634	
0.142496	0.464698	0.779214	68.88	3.71	-14.56	-0.0851	-0.1511	-0.4606	
0.13054	0.491904	0.740052	65.87	5.67	-13.79	-0.0875	-0.1662	-0.4622	
0.123708	0.52826	0.713944	63.21	6.58	-13.23	-0.0882	-0.1859	-0.4624	
0.114802	0.554124	0.700524	59.22	9.45	-11.97	-0.0881	-0.1874	-0.4639	
0.109556	0.585478	0.699426	57.26	9.52	-11.34	-0.0827	-0.2028	-0.4538	
0.106628	0.611586	0.685396	59.64	6.58	-11.55	-0.0719	-0.2064	-0.4625	
0.093452	0.65148	0.671366	57.26	5.46	-11.34	-0.07099999	-0.2231	-0.4554	
0.086376	0.66612	0.668072	52.57	5.95	-10.78	-0.0696	-0.22	-0.451	
0.087474	0.695888	0.676734	51.94	5.11	-10.36	-0.0715	-0.2427	-0.4454	
0.086986	0.686494	0.665022	48.44	5.53	-10.29	-0.0717	-0.2428	-0.4613	
0.090158	0.696864	0.665266	52.29	4.97	-11.41	-0.0685	-0.2428	-0.4454	
0.098332	0.696986	0.62769	49.77	7.84	-12.11	-0.0657	-0.2703	-0.4456	
0.092964	0.705648	0.624762	47.53	8.12	-12.46	-0.0718	-0.2684	-0.4413	
0.0854	0.718458	0.60878	49.07	6.3	-12.95	-0.0558	-0.2797	-0.4311	
0.076372	0.735172	0.596336	50.68	3.43	-13.58	-0.0584	-0.2933	-0.44	
0.067832	0.759328	0.60329	46.97	1.96	-13.58	-0.0592	-0.3053	-0.4285	
0.05978	0.762134	0.584014	48.09	4.62	-13.37	-0.0439	-0.3045	-0.4254	
0.053558	0.777872	0.581696	47.6	6.09	-13.58	-0.045	-0.3136	-0.4299	
0.058926	0.788242	0.559126	45.57	8.33	-13.58	-0.0524	-0.3193	-0.4286	
0.045384	0.800076	0.543754	46.13	11.9	-12.39	-0.0428	-0.3273	-0.4198	
0.038796	0.81069	0.526674	44.38	10.92	-12.74	-0.0393	-0.335	-0.417	
0.02379	0.819962	0.501908	44.45	13.51	-12.81	-0.039	-0.3411	-0.417	
0.005002	0.839604	0.473116	41.37	10.22	-13.3	-0.0307	-0.3551	-0.4142	
-0.012932	0.858636	0.456158	34.79	4.62	-13.09	-0.0312	-0.3444	-0.4141	
-0.024644	0.8906	0.4453	37.03	-1.68	-14.07	-0.0277	-0.3506	-0.4025	
-0.030866	0.898042	0.449204	36.68	-3.22	-14.63	-0.0273	-0.3582	-0.4011	
-0.039772	0.920734	0.439078	38.99	-2.66	-14.49	-0.0314	-0.3686	-0.4013	
-0.022204	0.913292	0.444568	34.23	-14.14	-16.45	-0.0296	-0.3731	-0.3912	
-0.007929999	0.937204	0.416264	33.81	-11.55	-16.45	-0.0292	-0.3823	-0.3927	
-0.011102	0.933056	0.409554	29.12	-3.08	-13.93	-0.0334	-0.3913	-0.3972	
-0.012078	0.935618	0.398818	28	-5.25	-14	-0.0354	-0.3789	-0.3869	
-0.01464	0.941474	0.398696	23.73	-3.57	-13.37	-0.0229	-0.3856	-0.3912	
-0.01891	0.935984	0.39406	19.74	1.61	-11.9	-0.0192	-0.3964	-0.3869	
-0.022204	0.938912	0.380518	18.9	1.61	-11.69	-0.0255	-0.3946	-0.3884	
-0.031232	0.943914	0.390522	18.48	-0.28	-11.62	-0.0145	-0.398	-0.3782	
-0.038796	0.950136	0.39162	19.6	-1.05	-11.55	-0.01	-0.3952	-0.3796	
-0.044408	0.945378	0.377346	20.86	-0.21	-11.41	-0.0115	-0.3951	-0.381	
-0.055632	0.94672	0.375028	18.55	1.61	-10.64	-0.0109	-0.4104	-0.3855	
-0.06466	0.950868	0.372222	17.71	2.73	-10.15	-0.014	-0.4055	-0.3681	
-0.06649	0.95343	0.36905	17.01	2.1	-9.73	-0.0061	-0.4089	-0.3652	
-0.063562	0.955016	0.367098	16.87	1.54	-8.82	-0.0119	-0.4162	-0.3639	
-0.058926	0.951478	0.363072	15.96	2.03	-7.84	-0.0092	-0.4087	-0.3638	
-0.05978	0.95526	0.358558	13.72	2.87	-6.86	-0.0074	-0.4165	-0.3739	
-0.054168	0.959286	0.35685	12.74	3.29	-6.09	-0.0087	-0.4194	-0.3682	
-0.05368	0.966728	0.356118	13.44	3.08	-5.6	-0.004	-0.4195	-0.3566	
-0.054168	0.958798	0.348432	9.24	4.06	-4.27	0.0032	-0.4123	-0.3622	
-0.055388	0.968558	0.350628	8.19	3.78	-2.59	-0.0041	-0.4181	-0.3623	
-0.05307	0.970754	0.35197	7.49	2.38	-1.75	0.0039	-0.426	-0.3594	
-0.060146	0.981856	0.340014	6.23	1.61	-1.05	-0.0019	-0.4318	-0.3552	
-0.069784	0.988444	0.337574	3.57	1.47	-0.21	0.0037	-0.423	-0.3637	
-0.061244	0.99125	0.357216	4.41	1.54	0.21	-0.0021	-0.4272	-0.3595	
-0.060878	0.972584	0.359534	4.41	3.43	1.12	0.0017	-0.4154	-0.368	
-0.06734399	0.953674	0.345992	3.85	4.69	1.68	-0.0024	-0.4227	-0.3624	
-0.062586	0.93086	0.348432	3.78	5.11	2.1	-0.0117	-0.4208	-0.3653	
-0.052094	0.908778	0.352946	4.34	6.09	1.89	-0.0064	-0.4362	-0.3654	
-0.042578	0.907558	0.351604	5.74	4.41	0.56	-0.0069	-0.4224	-0.3508	
-0.03965	0.926956	0.357704	8.82	0.42	-0.77	-0.0038	-0.4241	-0.3595	
-0.046604	0.947696	0.349164	9.73	0.49	-0.63	-0.0071	-0.4194	-0.3551	
-0.057218	0.9699	0.34892	7.98	1.89	-0.49	-0.0004	-0.4335	-0.3653	
-0.068686	0.986248	0.345992	7.28	1.96	-0.98	-0.0003	-0.4318	-0.3508	
-0.067222	0.9821	0.34038	5.11	2.38	-1.19	-0.0004	-0.4319	-0.3581	
-0.066856	0.975268	0.339282	2.87	2.94	-1.33	0.0058	-0.4367	-0.3624	
-0.064172	0.95526	0.337818	2.38	2.87	-1.12	-0.0018	-0.4317	-0.3509	
-0.06588	0.958066	0.326472	2.03	2.31	-1.12	0.0059	-0.4351	-0.3508	
-0.067832	0.958676	0.330742	0.84	1.82	-0.91	0.0059	-0.4367	-0.3537	
-0.07198	0.957944	0.33062	0	0.91	-0.56	0.0136	-0.437	-0.3551	
-0.071858	0.956724	0.326594	-1.19	1.26	-0.28	0.0073	-0.4322	-0.3551	
-0.071492	0.961726	0.328302	-1.82	1.12	-0.28	-0.0006	-0.4257	-0.3537	
-0.071614	0.967216	0.332206	-2.1	0	-0.42	0.0154	-0.4416	-0.3522	
-0.070516	0.965264	0.328546	-3.5	-0.56	-0.28	0.009	-0.4353	-0.3522	
-0.077348	0.965386	0.326594	-6.37	0.14	0.35	0.0165	-0.4342	-0.3579	
-0.07869	0.96807	0.333304	-7.14	-0.21	0.49	0.0042	-0.432	-0.3522	
-0.07137	0.963312	0.344894	-6.09	-1.54	0.35	-0.0001	-0.4379	-0.3581	
-0.064294	0.957578	0.339892	-6.23	-1.33	0.63	0.0054	-0.4276	-0.3638	
-0.064538	0.95343	0.345016	-8.12	-0.42	1.26	0.0045	-0.4397	-0.361	
-0.069418	0.959774	0.342454	-9.52	0.14	1.61	-0.0004	-0.4319	-0.3581	
-0.069296	0.96136	0.342088	-9.87	-0.91	1.89	0.0012	-0.4366	-0.3654	
-0.071004	0.960872	0.348676	-9.45	-1.68	2.17	0.0057	-0.4322	-0.3609	
-0.07625	0.964044	0.34831	-10.71	-1.61	2.94	0.0037	-0.4261	-0.371	
-0.07381	0.964532	0.346602	-12.18	-1.54	3.36	0.0067	-0.4232	-0.3681	
-0.070394	0.95953	0.348432	-14.77	-1.61	3.85	-0.0025	-0.4197	-0.3638	
-0.070028	0.965386	0.352702	-15.75	-2.1	4.13	-0.0026	-0.4181	-0.3609	
-0.059536	0.958554	0.365756	-15.33	-2.8	4.41	-0.0057	-0.418	-0.3681	
-0.053436	0.955138	0.360754	-17.01	-2.45	5.25	-0.012	-0.4131	-0.3624	
-0.054046	0.947086	0.362096	-19.88	-1.96	6.16	0	-0.4092	-0.3666	
-0.061	0.953796	0.364902	-22.89	-0.56	7.14	-0.0016	-0.4092	-0.3709	
-0.070394	0.967704	0.36966	-23.8	-1.82	7.56	-0.0022	-0.397	-0.3737	
-0.058682	0.949526	0.38308	-25.83	-3.43	8.33	-0.0095	-0.4058	-0.3768	
-0.050996	0.94184	0.390888	-28.56	-3.08	9.24	-0.0081	-0.4013	-0.3738	
-0.038186	0.934764	0.40687	-27.58	-3.08	9.87	-0.0069	-0.3969	-0.3868	
-0.027572	0.940498	0.416142	-27.51	-2.24	10.85	-0.0054	-0.3954	-0.3824	
-0.033672	0.944524	0.415166	-28.63	-0.49	12.18	-0.0181	-0.3889	-0.3941	
-0.031842	0.93147	0.422486	-30.73	1.05	13.44	-0.0195	-0.3903	-0.3883	
-0.02562	0.920734	0.427488	-34.02	2.94	14.28	-0.0112	-0.3724	-0.3895	
-0.025376	0.916586	0.43066	-36.12	3.29	14.56	-0.0203	-0.3751	-0.3925	
-0.022448	0.915244	0.447862	-35.49	4.2	14.98	-0.0313	-0.3717	-0.4056	
-0.042822	0.932568	0.458964	-36.54	5.04	16.17	-0.0111	-0.3771	-0.4011	
-0.025132	0.896334	0.456036	-46.27	6.72	17.85	-0.0133	-0.3634	-0.4039	
-0.012932	0.883158	0.47885	-44.1	-3.36	15.19	-0.028	-0.3461	-0.4112	
-0.004514	0.879254	0.473604	-49.49	0.91	16.17	-0.0311	-0.346	-0.417	
-0.009272	0.879864	0.495686	-48.16	-0.07	15.82	-0.0344	-0.3397	-0.4141	
-0.007076	0.867908	0.512156	-45.64	-3.5	14.7	-0.0163	-0.3346	-0.4211	
0.006954	0.858514	0.50996	-48.51	-0.98	15.26	-0.032	-0.3278	-0.4212	
0.000366	0.841312	0.530334	-47.67	-1.05	15.19	-0.0373	-0.3139	-0.4269	
-0.003904	0.830942	0.543144	-47.11	-3.5	14.91	-0.0284	-0.3083	-0.4282	
0.002806	0.822036	0.548024	-43.33	-8.12	13.58	-0.0441	-0.3015	-0.4341	
0.011102	0.804468	0.57584	-40.95	-9.52	13.16	-0.041	-0.3017	-0.4341	
0.023424	0.779946	0.603656	-35.63	-11.69	11.55	-0.0305	-0.2976	-0.4382	
0.046238	0.772504	0.605852	-32.9	-9.8	10.85	-0.0419	-0.285	-0.4382	
0.044896	0.74603	0.61122	-38.85	-6.86	12.74	-0.0478	-0.2877	-0.4354	
0.043066	0.733342	0.620126	-38.57	-6.93	11.97	-0.0544	-0.2799	-0.4412	
0.051118	0.722728	0.633912	-38.15	-4.69	12.53	-0.0469	-0.2757	-0.4426	
0.060634	0.710162	0.667706	-35.63	-1.54	13.79	-0.0492	-0.2604	-0.4453	
0.078568	0.675758	0.688568	-38.99	0.56	13.93	-0.0527	-0.2511	-0.4438	
0.081618	0.655384	0.70028	-37.38	0.07	13.58	-0.0541	-0.2541	-0.4453	
0.087962	0.655506	0.711504	-32.41	-1.61	12.53	-0.0533	-0.2406	-0.4568	
0.09516	0.645136	0.720532	-34.65	0.56	12.74	-0.0582	-0.2359	-0.464	
0.088084	0.635132	0.728706	-35.77	1.61	12.88	-0.0569	-0.2298	-0.4553	
0.077348	0.617442	0.729316	-38.71	2.66	13.02	-0.0633	-0.2234	-0.4553	
0.088572	0.610488	0.731024	-36.89	1.33	11.83	-0.0576	-0.2193	-0.4711	
0.093696	0.593286	0.731756	-36.26	1.47	10.71	-0.0621	-0.2174	-0.461	
0.095282	0.570106	0.73383	-39.34	2.45	10.22	-0.066	-0.2021	-0.4652	
0.091012	0.560346	0.735782	-42.63	1.47	10.5	-0.055	-0.2041	-0.4565	
0.086986	0.554612	0.734074	-43.61	0.28	10.99	-0.0615	-0.1978	-0.4652	
0.083448	0.533994	0.736514	-46.2	0.98	11.2	-0.0603	-0.1902	-0.4636	
0.08662	0.503128	0.758474	-47.74	-0.14	10.71	-0.0746	-0.182	-0.4666	
0.091744	0.485194	0.773846	-49.07	-2.87	10.29	-0.0692	-0.1687	-0.4765	
0.102602	0.474946	0.779946	-49.91	-5.25	10.22	-0.0664	-0.1612	-0.4707	
0.113216	0.458842	0.788242	-51.59	-4.13	10.29	-0.065	-0.1567	-0.4706	
0.11224	0.435296	0.808372	-51.38	-4.13	9.87	-0.0682	-0.1534	-0.4634	
0.11468	0.413336	0.818742	-51.45	-5.88	9.45	-0.0778	-0.1485	-0.475	
0.120292	0.390766	0.830942	-51.66	-6.58	9.73	-0.0649	-0.1278	-0.4732	
0.128954	0.378688	0.851194	-52.08	-7.63	9.73	-0.0774	-0.1227	-0.4719	
0.138958	0.353434	0.874374	-53.41	-9.24	9.24	-0.0703	-0.1093	-0.4702	
0.144692	0.3294	0.883768	-52.36	-8.75	9.03	-0.0826	-0.1087	-0.466	
0.167262	0.311466	0.901092	-47.46	-9.17	8.54	-0.0705	-0.1032	-0.4672	
0.18056	0.281332	0.908534	-48.02	-8.05	8.89	-0.0883	-0.08419999	-0.4673	
0.18849	0.261812	0.91866	-48.58	-5.39	9.66	-0.0932	-0.0795	-0.4745	
0.192638	0.254614	0.9333	-45.71	-5.46	9.24	-0.0738	-0.0682	-0.4727	
0.191418	0.231312	0.949404	-48.09	-3.08	9.45	-0.0875	-0.069	-0.4671	
0.193492	0.217038	0.962092	-45.92	-2.24	9.31	-0.0851	-0.0539	-0.4669	
0.18971	0.195444	0.977708	-45.22	-0.49	9.24	-0.0927	-0.052	-0.4554	
0.18849	0.190076	0.982344	-40.67	-1.19	8.96	-0.0821	-0.051	-0.464	
0.187392	0.172142	0.98027	-40.6	-0.49	9.31	-0.0843	-0.0372	-0.4639	
0.190076	0.160186	0.986858	-38.5	1.54	9.45	-0.0863	-0.0249	-0.458	
0.188978	0.151036	0.989298	-36.26	0.56	8.82	-0.0848	-0.0266	-0.4623	
0.189466	0.152134	0.984052	-32.69	0.91	8.05	-0.0817	-0.0252	-0.4594	
0.182878	0.147864	0.979782	-28.49	1.96	7.28	-0.0825	-0.01	-0.465	
0.182024	0.137494	0.985516	-26.32	1.96	7	-0.0826	-0.0054	-0.4578	
0.183	0.12383	0.990884	-24.5	1.89	6.3	-0.0777	-0.0117	-0.4607	
0.177632	0.120658	0.992836	-24.36	2.94	6.51	-0.0829	-0.0008	-0.4621	
0.169824	0.11834	0.99064	-22.33	2.45	6.3	-0.0795	-0.0055	-0.4563	
0.166896	0.119072	0.98881	-19.67	1.75	5.67	-0.0848	0.0067	-0.4635	
0.166408	0.12139	0.979294	-17.85	0.91	5.11	-0.0691	0.0015	-0.4561	
0.17507	0.121024	0.984052	-15.89	0.49	4.62	-0.0743	0.0155	-0.4531	
0.171898	0.119804	0.981124	-14.49	0.14	3.92	-0.0815	0.0036	-0.4577	
0.168726	0.118828	0.981002	-12.46	-0.42	3.01	-0.0775	0.0187	-0.4473	
0.168482	0.11773	0.977464	-11.97	-0.07	2.45	-0.0805	0.0157	-0.4532	
0.172752	0.118462	0.976732	-11.9	0.7	2.45	-0.0726	0.0108	-0.456	
0.171898	0.118462	0.980026	-10.92	0.63	2.17	-0.073	0.0215	-0.4516	
0.170068	0.114558	0.98027	-9.31	0.42	1.75	-0.0826	0.0295	-0.4516	
0.16775	0.111996	0.979538	-7.56	-1.05	1.05	-0.0759	0.017	-0.4546	
0.171898	0.118096	0.97356	-6.79	-0.84	0.63	-0.08419999	0.0296	-0.4516	
0.172874	0.113094	0.974902	-5.74	-0.35	0.49	-0.0763	0.0262	-0.4516	
0.172752	0.10797	0.97722	-3.01	-0.28	-0.14	-0.0795	0.0294	-0.4473	
0.171532	0.10675	0.97783	-1.82	-1.26	-0.42	-0.0783	0.0354	-0.4544	
0.173606	0.10858	0.977708	-0.98	-1.54	-0.49	-0.078	0.0293	-0.4487	
0.176046	0.108824	0.974048	0	-1.12	-0.42	-0.0806	0.0188	-0.4503	
0.174826	0.10797	0.97722	0.84	-0.7	-0.42	-0.0917	0.0269	-0.4489	
0.173972	0.106018	0.976244	1.89	-0.7	-0.7	-0.0841	0.0265	-0.4546	
0.171898	0.105774	0.970632	2.38	-1.47	-1.05	-0.0787	0.0446	-0.45	
0.17141	0.111874	0.976488	2.45	-1.68	-0.98	-0.0923	0.0406	-0.4502	
0.165676	0.114314	0.980392	3.99	-1.61	-1.26	-0.0749	0.0292	-0.4501	
0.167384	0.111752	0.976854	5.88	-1.75	-1.68	-0.0859	0.0342	-0.4531	
0.172752	0.104798	0.97905	7.56	-1.05	-1.89	-0.0718	0.0306	-0.4443	
0.178242	0.102846	0.983442	8.68	-1.68	-2.24	-0.08859999	0.0237	-0.4575	
0.17812	0.103578	0.988932	9.38	-1.96	-2.52	-0.0869	0.0237	-0.4445	
0.17934	0.108946	0.984174	10.08	-1.96	-2.59	-0.0819	0.0159	-0.4474	
0.181902	0.111752	0.989908	11.62	-1.33	-2.66	-0.0807	0.0203	-0.4546	
0.177754	0.106872	0.994178	13.72	-0.63	-2.87	-0.0805	0.0157	-0.4561	
0.180926	0.107604	0.994422	15.89	-0.84	-3.29	-0.0771	0.0111	-0.4474	
0.18483	0.1098	0.997228	17.85	-1.26	-3.78	-0.0819	0.0143	-0.4503	
0.188978	0.107726	1.005036	19.74	-0.98	-4.34	-0.0818	0.0081	-0.4663	
0.185928	0.109556	1.000278	21.91	-0.7	-4.83	-0.0814	0.0037	-0.4519	
0.181292	0.11712	0.99613	25.41	-1.12	-5.39	-0.0765	-0.0056	-0.4577	
0.181902	0.118828	0.990762	28.56	-0.49	-5.67	-0.0733	-0.0057	-0.4533	
0.18666	0.11834	0.98637	31.15	-2.17	-6.16	-0.0747	-0.0118	-0.4592	
0.185074	0.128954	0.98332	33.67	-2.52	-6.65	-0.0867	-0.0173	-0.4579	
0.185318	0.142984	0.983198	35.56	-2.17	-6.72	-0.088	-0.0234	-0.4667	
0.17934	0.159088	0.974292	35.7	-2.1	-6.93	-0.0881	-0.0203	-0.4565	
0.17995	0.16958	0.969168	38.36	-1.96	-7.42	-0.0892	-0.0294	-0.4624	
0.182878	0.19032	0.958798	43.82	-2.24	-8.47	-0.087	-0.0447	-0.4669	
0.18056	0.206546	0.955016	45.78	-2.1	-8.82	-0.0821	-0.051	-0.4625	
0.178364	0.224236	0.949404	47.53	-2.38	-9.17	-0.0944	-0.052	-0.4656	
0.1769	0.238998	0.94367	49.56	-1.75	-9.52	-0.0879	-0.0599	-0.4699	
0.179096	0.253028	0.940376	51.59	-1.82	-9.94	-0.0919	-0.0718	-0.4628	
0.180316	0.270108	0.937082	53.62	-1.26	-9.94	-0.0885	-0.0796	-0.4614	
0.180194	0.286334	0.92171	54.88	0.77	-9.45	-0.0931	-0.081	-0.4716	
0.1769	0.2989	0.91256	56.28	1.4	-9.45	-0.0878	-0.0964	-0.4732	
0.175192	0.31903	0.892186	58.94	1.26	-10.01	-0.0799	-0.0998	-0.4702	
0.16714	0.339038	0.881572	60.27	1.12	-10.57	-0.0858	-0.1071	-0.4703	
0.162138	0.362584	0.86864	60.06	0.7	-10.78	-0.085	-0.1223	-0.4632	
0.157624	0.393328	0.841678	60.9	0.7	-11.2	-0.0909	-0.1297	-0.4721	
0.157746	0.412848	0.824476	61.95	0.91	-11.83	-0.08419999	-0.1406	-0.4663	
0.159088	0.427854	0.81618	63.07	1.82	-12.25	-0.0848	-0.1587	-0.4607	
0.146156	0.44835	0.795074	62.3	2.8	-12.6	-0.0846	-0.1664	-0.4723	
0.139934	0.473238	0.768722	65.59	2.66	-13.09	-0.0938	-0.166	-0.471	
0.141154	0.493978	0.75335	63.07	3.15	-12.74	-0.0804	-0.1878	-0.4653	
0.135908	0.510814	0.734318	62.37	2.73	-12.74	-0.0799	-0.1968	-0.4567	
0.132614	0.536068	0.7137	64.05	1.89	-13.3	-0.0718	-0.2063	-0.4552	
0.133956	0.574742	0.701988	62.86	3.43	-13.65	-0.078	-0.2061	-0.4582	
0.125294	0.605486	0.690032	61.67	4.76	-13.44	-0.062	-0.219	-0.4596	
0.116266	0.62708	0.670756	59.71	3.08	-13.65	-0.07	-0.2428	-0.4483	
0.105652	0.646356	0.659654	59.78	3.08	-13.09	-0.0687	-0.2398	-0.4526	
0.109068	0.650748	0.662582	54.18	4.41	-12.39	-0.0664	-0.2535	-0.4426	
0.11956	0.650992	0.656116	53.48	7.84	-11.83	-0.0583	-0.263	-0.4455	
0.117364	0.662582	0.639158	55.16	7.42	-11.83	-0.066	-0.2627	-0.4441	
0.109556	0.70028	0.610244	57.26	5.81	-11.9	-0.0589	-0.2827	-0.4384	
0.102602	0.714676	0.59475	54.95	5.32	-11.13	-0.0611	-0.2976	-0.4241	
0.09638	0.753472	0.567056	58.03	5.18	-11.13	-0.0548	-0.3025	-0.4299	
0.082838	0.787998	0.549732	54.6	9.73	-10.5	-0.0606	-0.3083	-0.4285	
0.063806	0.808006	0.525454	56.98	10.36	-10.78	-0.0489	-0.3302	-0.433	
0.038308	0.822524	0.50752	54.88	9.24	-11.48	-0.0407	-0.3395	-0.4214	
0.027084	0.846802	0.488122	53.97	10.29	-11.62	-0.0454	-0.3378	-0.4214	
0.030256	0.869738	0.462746	53.97	12.32	-10.92	-0.0402	-0.3471	-0.4128	
0.025376	0.90219	0.446398	52.71	5.04	-12.81	-0.0368	-0.3533	-0.4099	
0.016104	0.914512	0.413824	43.82	6.79	-12.46	-0.0427	-0.359	-0.4042	
-0.020984	0.930128	0.397964	42.07	6.23	-11.9	-0.038	-0.3592	-0.4027	
-0.012444	0.93818	0.386008	44.8	5.04	-11.69	-0.0392	-0.3683	-0.4071	
-0.006954	0.940376	0.38613	42.35	5.46	-10.36	-0.0282	-0.3718	-0.4027	
0.005612	0.939766	0.385032	41.93	1.75	-10.85	-0.0225	-0.3901	-0.3826	
0.025132	0.940986	0.38796	43.54	-1.4	-12.25	-0.0257	-0.39	-0.3898	
0.044042	0.944402	0.385154	37.31	1.96	-11.69	-0.0132	-0.3936	-0.3854	
0.016836	0.958432	0.381982	32.13	6.37	-10.08	-0.0221	-0.3992	-0.3841	
0.019398	0.960872	0.365024	27.37	10.08	-9.73	-0.0222	-0.3977	-0.3826	
0.00061	0.972096	0.351604	25.83	9.94	-10.36	-0.0114	-0.3982	-0.3811	
0.01647	0.975878	0.343796	20.51	7.49	-8.12	-0.0126	-0.4041	-0.3753	
-0.038308	0.971974	0.35563	23.1	-25.2	-15.82	-0.0111	-0.4042	-0.3782	
-0.011956	0.974536	0.337818	22.33	-16.31	-16.66	-0.0126	-0.4042	-0.3768	
-0.019398	0.944646	0.345504	9.94	6.86	-10.85	-0.0093	-0.4073	-0.371	
-0.04453	0.95343	0.324398	14.21	5.6	-11.97	-0.0045	-0.4121	-0.3739	
-0.055144	0.981856	0.320982	18.41	9.66	-10.57	-0.009	-0.4165	-0.3769	
-0.046848	0.98759	0.323788	16.38	5.53	-10.43	-0.0118	-0.4193	-0.3682	
-0.05978	1.016504	0.304756	12.04	2.24	-10.64	-0.0053	-0.4271	-0.3639	
-0.047702	1.023458	0.316102	8.89	-1.12	-10.99	0.0023	-0.4244	-0.3551	
-0.052704	1.025044	0.343186	5.18	-1.26	-9.87	0.0021	-0.4229	-0.3623	
-0.060024	1.021262	0.333426	6.23	-0.35	-9.17	0.0009	-0.4289	-0.3609	
-0.049166	0.99003	0.328912	5.46	-1.68	-9.17	0.0038	-0.426	-0.3652	
-0.052948	0.973072	0.32452	3.64	0.63	-7.91	0.0042	-0.4336	-0.3595	
-0.06527	0.975024	0.32574	1.89	1.47	-7.21	0.0041	-0.4305	-0.3566	
-0.06734399	0.9699	0.33916	2.17	1.47	-6.79	0.0073	-0.4337	-0.3595	
-0.0549	0.94672	0.34282	1.61	3.57	-5.95	0.0011	-0.4335	-0.3581	
-0.041236	0.927322	0.347944	3.29	3.43	-6.23	0.0021	-0.4214	-0.3623	
-0.054412	0.933422	0.345748	5.25	1.19	-6.58	0.0072	-0.4307	-0.3565	
-0.067954	0.937326	0.32879	7.7	1.4	-6.86	0.0102	-0.4277	-0.3521	
-0.068076	0.94123	0.335744	7	0.28	-7.28	0.0134	-0.4324	-0.3521	
-0.076738	0.96441	0.333304	7	0.07	-7.63	0.0057	-0.4322	-0.3609	
-0.083936	0.979416	0.335012	7.28	-0.77	-8.12	0.0115	-0.4248	-0.3608	
-0.081252	0.970754	0.33306	5.53	-0.21	-7.63	0.0028	-0.435	-0.3566	
-0.075518	0.967582	0.33245	4.41	-0.35	-7.21	0.0151	-0.4324	-0.3449	
-0.077714	0.969046	0.331108	3.29	-0.98	-6.72	0.0079	-0.4458	-0.3509	
-0.075396	0.962824	0.336964	3.29	-1.47	-5.95	0.0214	-0.4404	-0.3579	
-0.074664	0.95953	0.330864	2.66	-0.91	-4.9	0.0227	-0.4344	-0.3535	
-0.07564	0.96014	0.322202	-0.14	0.7	-3.92	0.0274	-0.4345	-0.3477	
-0.07625	0.956846	0.333426	-1.4	1.05	-3.22	0.009099999	-0.4368	-0.3508	
-0.081252	0.951356	0.334646	-1.89	1.05	-2.52	0.0104	-0.4339	-0.358	
-0.081984	0.955382	0.323422	-3.43	1.12	-2.03	0.0198	-0.4388	-0.3565	
-0.0976	0.962702	0.3294	-4.69	0.63	-1.12	0.0147	-0.4264	-0.3535	
-0.095404	0.957334	0.337086	-3.5	-0.84	-1.12	0.0168	-0.4402	-0.3565	
-0.088572	0.951966	0.33733	-4.48	-0.56	-0.63	0.008599999	-0.4277	-0.3565	
-0.082594	0.94611	0.339038	-5.46	-0.07	-0.07	0.0179	-0.4296	-0.3521	
-0.084912	0.945378	0.343064	-5.32	-0.21	0.35	0.0103	-0.4323	-0.358	
-0.089548	0.948184	0.344772	-4.2	-0.98	0.84	0.0149	-0.431	-0.3579	
-0.091988	0.94611	0.344772	-4.48	-1.12	1.47	0.011	-0.446	-0.3537	
-0.084912	0.945134	0.351726	-4.62	-0.63	1.96	0.0132	-0.4295	-0.3637	
-0.092354	0.9516	0.34648	-5.6	-0.42	2.38	0.0199	-0.4388	-0.3507	
-0.099186	0.946232	0.35075	-5.25	-1.33	2.87	0.0132	-0.4295	-0.3608	
-0.10126	0.942938	0.35075	-5.32	-1.05	3.5	0.0161	-0.425	-0.3564	
-0.097722	0.941108	0.362706	-5.39	-0.35	4.06	0.009	-0.4368	-0.358	
-0.091134	0.931958	0.359534	-5.25	-0.35	4.69	0.0134	-0.4324	-0.3536	
-0.09516	0.933178	0.355264	-5.39	-0.7	5.25	0.0113	-0.4234	-0.3666	
-0.094428	0.937448	0.360876	-5.18	-1.4	5.32	0.0078	-0.4125	-0.3636	
-0.087718	0.931226	0.37454	-3.64	-1.82	5.6	0.0161	-0.4266	-0.3607	
-0.082594	0.929396	0.36478	-4.13	-1.96	5.81	0.013	-0.4249	-0.3593	
-0.076494	0.921954	0.366366	-5.32	-2.03	6.23	0.0115	-0.4264	-0.3608	
-0.076006	0.922076	0.371612	-6.23	-2.24	6.86	0.0053	-0.4246	-0.3623	
-0.080642	0.924516	0.365268	-7.91	-2.03	7.63	0.0099	-0.4232	-0.3593	
-0.0793	0.928664	0.373076	-8.54	-2.87	7.98	0.019	-0.4222	-0.3636	
-0.07747	0.936838	0.38064	-7.42	-3.78	8.4	0.0067	-0.4232	-0.3666	
-0.074786	0.937448	0.375882	-6.44	-5.88	8.61	0.01	-0.4294	-0.3681	
-0.063684	0.924882	0.380518	-9.1	-4.06	10.29	0.0018	-0.4185	-0.3739	
-0.055388	0.913902	0.390156	-9.66	-3.64	11.76	-0.0025	-0.4212	-0.3696	
-0.050508	0.912926	0.379298	-9.24	-4.2	13.09	0.0034	-0.42	-0.3739	
-0.047214	0.91561	0.388448	-8.96	-4.69	14	-0.0043	-0.415	-0.3652	
-0.038796	0.920002	0.389424	-8.68	-4.76	15.05	-0.0102	-0.4209	-0.3653	
-0.03233	0.92598	0.388936	-8.89	-5.6	16.1	-0.0185	-0.4084	-0.3711	
-0.023668	0.926224	0.393572	-9.38	-5.32	17.15	-0.0123	-0.4102	-0.3754	
-0.020862	0.935618	0.393084	-12.04	-4.27	18.48	-0.0169	-0.4116	-0.3827	
-0.013664	0.941474	0.39955	-14.35	-3.29	19.39	-0.0184	-0.4099	-0.3711	
-0.007442	0.932812	0.416264	-12.74	-3.5	19.67	-0.0232	-0.4051	-0.3697	
0.007929999	0.928786	0.421998	-11.69	-3.57	19.53	-0.025	-0.4037	-0.3842	
0.02623	0.910608	0.414922	-13.51	-2.66	19.81	-0.0268	-0.3959	-0.3711	
0.035868	0.900604	0.417606	-15.54	-0.63	19.88	-0.0256	-0.3915	-0.3884	
0.03599	0.917806	0.413946	-15.05	0.84	19.32	-0.0317	-0.3896	-0.3783	
0.035136	0.928786	0.41663	-13.86	0	19.18	-0.0394	-0.3908	-0.3827	
0.034038	0.929274	0.417484	-15.19	0.56	19.74	-0.0301	-0.3928	-0.3812	
0.042578	0.927566	0.421144	-15.4	0.49	19.88	-0.0397	-0.3864	-0.3914	
0.050752	0.917684	0.427122	-15.68	-0.21	19.46	-0.041	-0.3908	-0.3857	
0.061854	0.901214	0.439322	-16.52	0.14	19.04	-0.0321	-0.382	-0.3811	
0.066124	0.897676	0.446764	-16.66	-0.84	17.92	-0.0503	-0.3889	-0.3886	
0.069784	0.889258	0.444202	-16.24	-2.1	16.87	-0.0448	-0.377	-0.3914	
0.072468	0.891576	0.435174	-16.73	-2.94	16.17	-0.0557	-0.3735	-0.3929	
0.072834	0.89853	0.442982	-15.89	-4.83	15.61	-0.0524	-0.3782	-0.3972	
0.082106	0.901336	0.46421	-12.04	-6.86	15.05	-0.0541	-0.3751	-0.3914	
0.088816	0.894626	0.46726	-12.18	-7.42	14.91	-0.0607	-0.3673	-0.4001	
0.11041	0.882426	0.473482	-14.28	-7.7	14.63	-0.0576	-0.369	-0.4045	
0.117242	0.871568	0.485194	-14.21	-7.77	14.42	-0.0634	-0.3732	-0.3988	
0.131516	0.86193	0.491416	-14.49	-6.51	14.35	-0.0651	-0.3685	-0.3944	
0.144936	0.864736	0.50142	-17.36	-3.08	16.24	-0.0637	-0.3702	-0.4089	
0.15555	0.848388	0.518378	-13.79	-12.18	12.6	-0.0719	-0.3576	-0.4002	
0.177022	0.850096	0.530456	-12.46	-10.57	11.83	-0.0657	-0.3595	-0.4074	
0.1769	0.834602	0.522648	-19.04	-2.8	13.3	-0.0751	-0.3529	-0.3973	
0.174338	0.829112	0.520574	-16.94	-2.52	12.04	-0.0719	-0.3577	-0.4016	
0.184342	0.820084	0.52887	-13.93	-2.8	10.22	-0.0768	-0.3513	-0.4002	
0.169214	0.795806	0.518134	-12.46	3.01	9.52	-0.0782	-0.3559	-0.4104	
0.17812	0.827526	0.542168	-11.76	3.22	7.63	-0.0721	-0.3531	-0.4074	
0.165798	0.846924	0.539728	-2.45	-3.99	3.29	-0.0756	-0.3454	-0.4088	
0.187514	0.83936	0.542656	-0.98	4.41	2.94	-0.0881	-0.3403	-0.4118	
0.182512	0.829234	0.516304	-7.07	8.26	2.03	-0.074	-0.3471	-0.4146	
0.187392	0.846436	0.521916	-6.16	6.79	0.42	-0.07889999	-0.3392	-0.4088	
0.180926	0.8479	0.518622	-9.1	8.12	0.14	-0.0726	-0.344	-0.4102	
0.169214	0.84729	0.5124	-9.45	10.71	0.49	-0.0677	-0.3504	-0.4131	
0.15311	0.85217	0.503494	-10.64	10.71	0.42	-0.0698	-0.3381	-0.4144	
0.151402	0.849852	0.509594	-9.1	7.07	-0.7	-0.067	-0.3337	-0.4158	
0.148474	0.855098	0.514596	-10.08	5.32	-1.47	-0.0747	-0.3318	-0.4115	
0.137616	0.860588	0.507032	-15.12	4.55	-2.1	-0.0668	-0.3383	-0.413	
0.121268	0.865346	0.509106	-16.94	3.57	-3.15	-0.0698	-0.3381	-0.4115	
0.121756	0.858026	0.518012	-18.69	2.03	-4.27	-0.0702	-0.3305	-0.4129	
0.122244	0.843386	0.529236	-21.21	1.68	-5.25	-0.0762	-0.3349	-0.4203	
0.13176	0.823744	0.55449	-21.49	0.84	-6.23	-0.0705	-0.3245	-0.4201	
0.138592	0.794098	0.580476	-19.6	0.42	-6.93	-0.0611	-0.3326	-0.4288	
0.15433	0.785436	0.59231	-15.61	-0.98	-7.56	-0.0677	-0.3185	-0.42	
0.156038	0.776164	0.617198	-14.98	0.56	-6.72	-0.072	-0.326	-0.423	
0.14762	0.769942	0.604876	-17.85	3.5	-5.81	-0.0645	-0.3217	-0.4215	
0.135786	0.751276	0.596458	-21.28	4.06	-4.06	-0.0635	-0.3111	-0.4185	
0.13176	0.749202	0.612562	-24.01	3.99	-3.43	-0.0634	-0.3142	-0.4272	
0.133834	0.738344	0.64294	-23.17	4.83	-3.92	-0.0592	-0.3069	-0.4329	
0.128222	0.72651	0.641232	-22.75	5.39	-4.34	-0.0654	-0.3067	-0.4358	
0.120536	0.71614	0.6405	-21.7	6.02	-4.69	-0.0706	-0.2927	-0.427	
0.111996	0.707722	0.645258	-20.51	5.46	-5.18	-0.0571	-0.2873	-0.437	
0.108214	0.711504	0.653432	-18.83	3.01	-6.3	-0.0642	-0.2975	-0.4299	
0.11102	0.713822	0.662338	-14.7	1.33	-7.7	-0.057	-0.2888	-0.437	
0.106262	0.710894	0.660386	-14.56	1.26	-8.05	-0.0568	-0.2918	-0.4312	
0.098454	0.709552	0.667218	-15.19	1.54	-8.19	-0.0586	-0.2872	-0.4341	
0.09577	0.711504	0.676734	-12.67	0.35	-8.68	-0.0513	-0.28	-0.4369	
0.09028	0.708698	0.680882	-11.41	0.56	-8.47	-0.057	-0.2872	-0.4283	
0.091256	0.7076	0.680638	-10.43	1.89	-8.33	-0.0544	-0.2783	-0.4354	
0.089914	0.699548	0.690398	-9.45	2.17	-8.4	-0.0579	-0.2706	-0.4426	
0.083814	0.69479	0.693326	-9.24	1.19	-7.98	-0.0559	-0.2813	-0.4398	
0.075762	0.687348	0.695278	-8.05	2.03	-6.65	-0.0545	-0.2768	-0.4369	
0.074298	0.68259	0.693082	-7.7	3.64	-5.39	-0.0422	-0.2789	-0.4425	
0.07259	0.681492	0.691862	-6.86	3.5	-4.69	-0.061	-0.2689	-0.434	
0.060268	0.676246	0.692106	-5.74	2.59	-3.92	-0.0514	-0.2754	-0.4325	
0.04575	0.673318	0.697596	-5.32	2.66	-2.31	-0.0528	-0.2798	-0.4311	
0.03721	0.672708	0.694424	-4.34	0.84	-0.7	-0.0548	-0.2723	-0.447	
0.035502	0.669902	0.702598	-2.52	-0.63	1.33	-0.0499	-0.2754	-0.4339	
0.032696	0.661484	0.70272	-3.22	-1.61	3.5	-0.0547	-0.2754	-0.447	
0.02684	0.656726	0.690154	-4.06	-2.17	5.88	-0.0457	-0.2697	-0.4439	
0.023546	0.641842	0.690764	-5.67	-3.78	8.75	-0.0504	-0.2679	-0.4425	
0.02684	0.643184	0.679052	-6.79	-7.84	12.67	-0.0563	-0.2722	-0.4397	
0.033428	0.638304	0.690764	-7.56	-11.34	15.26	-0.0625	-0.2751	-0.4529	
0.04148	0.636108	0.70638	-6.51	-13.09	18.34	-0.0504	-0.2648	-0.4367	
0.04758	0.637816	0.701988	-7	-14.7	21.35	-0.0643	-0.2642	-0.4412	
0.057706	0.640866	0.700646	-6.3	-16.24	23.66	-0.0721	-0.2592	-0.4311	
0.060756	0.640378	0.690764	-5.04	-17.85	24.99	-0.0704	-0.2639	-0.434	
0.071858	0.644892	0.70028	-3.92	-19.74	25.83	-0.0786	-0.256	-0.4413	
0.080276	0.6588	0.6771	-6.58	-21.91	26.46	-0.0707	-0.2593	-0.4369	
0.097112	0.667218	0.70516	-3.57	-24.57	26.32	-0.0801	-0.2559	-0.4442	
0.122244	0.674416	0.71736	3.22	-24.15	25.76	-0.0922	-0.2599	-0.44	
0.1464	0.673928	0.707478	3.57	-22.89	25.69	-0.0928	-0.2478	-0.4457	
0.158478	0.663192	0.7015	3.5	-22.19	25.83	-0.1034	-0.2487	-0.4371	
0.17446	0.66856	0.678442	4.06	-23.03	25.69	-0.0986	-0.2535	-0.4357	
0.195322	0.665266	0.680272	4.55	-24.78	25.9	-0.1155	-0.2528	-0.4402	
0.216794	0.665998	0.682956	6.65	-24.36	26.39	-0.1091	-0.2575	-0.43	
0.23363	0.662338	0.684908	7.14	-23.17	26.88	-0.1234	-0.2478	-0.4373	
0.257908	0.665266	0.68869	8.47	-22.12	27.23	-0.129	-0.2582	-0.4332	
0.271572	0.679296	0.665144	3.71	-19.81	28.63	-0.1351	-0.2609	-0.4347	
0.27999	0.664656	0.653676	0.07	-21.35	28.98	-0.1361	-0.2699	-0.4232	
0.278038	0.665144	0.63806	1.26	-22.19	28.84	-0.1357	-0.2456	-0.4273	
0.289262	0.662826	0.64904	1.68	-22.75	29.33	-0.1509	-0.2479	-0.4203	
0.318908	0.684664	0.651602	5.39	-24.92	27.86	-0.1462	-0.2513	-0.4289	
0.337818	0.681614	0.641232	2.8	-24.08	28.14	-0.1556	-0.2446	-0.4174	
0.33001	0.684542	0.64477	-2.45	-24.43	28.98	-0.1655	-0.264	-0.422	
0.378688	0.641842	0.607438	-7.21	-24.01	28.77	-0.1645	-0.2518	-0.4176	
0.369172	0.643672	0.61671	-5.32	-26.95	27.79	-0.169	-0.2547	-0.4234	
0.40443	0.635376	0.613538	-5.81	-29.54	26.67	-0.1957	-0.2413	-0.4192	
0.432124	0.621468	0.62586	-5.32	-31.36	26.81	-0.1901	-0.231	-0.422	
0.45445	0.62403	0.62647	-2.38	-29.68	26.04	-0.1957	-0.2398	-0.4149	
0.4575	0.628178	0.622322	-2.1	-27.79	25.76	-0.2023	-0.2319	-0.4207	
0.483486	0.621102	0.600606	-4.27	-25.34	25.76	-0.2054	-0.2271	-0.4062	
0.477142	0.635376	0.609512	-1.68	-25.34	25.13	-0.2207	-0.2279	-0.4064	
0.497028	0.625372	0.609512	0	-25.62	22.96	-0.2134	-0.2191	-0.4033	
0.514596	0.617442	0.597922	-3.64	-23.31	23.52	-0.2285	-0.2244	-0.3992	
0.524844	0.6161	0.577914	-7.7	-22.61	22.96	-0.2246	-0.211	-0.4048	
0.554368	0.612074	0.58621	-1.05	-22.61	22.05	-0.2344	-0.2303	-0.4051	
0.550708	0.621712	0.587552	-3.71	-20.23	21.42	-0.235	-0.2166	-0.4021	
0.557174	0.609024	0.58011	-7.7	-17.99	22.19	-0.2416	-0.2087	-0.405	
0.55815	0.608902	0.57523	-11.41	-17.5	21.84	-0.2428	-0.2116	-0.3949	
0.555954	0.623908	0.5673	-9.45	-17.36	20.72	-0.2522	-0.2097	-0.4022	
0.558272	0.588894	0.565714	-14.14	-17.78	20.58	-0.2493	-0.2053	-0.3992	
0.55327	0.58316	0.557662	-16.24	-17.01	21.91	-0.253	-0.193	-0.4006	
0.546926	0.565104	0.549366	-23.87	-19.53	22.68	-0.2576	-0.1927	-0.3977	
0.553636	0.587674	0.546926	-11.2	-25.69	16.59	-0.2656	-0.1847	-0.3948	
0.569496	0.582184	0.570106	-3.78	-29.12	13.16	-0.2623	-0.1894	-0.3949	
0.59109	0.573766	0.571082	-3.71	-27.44	11.97	-0.2744	-0.1919	-0.3921	
0.602192	0.576938	0.574498	-2.38	-26.32	10.64	-0.2657	-0.1817	-0.3963	
0.607804	0.546316	0.551562	-6.16	-23.59	11.83	-0.2839	-0.1838	-0.3849	
0.613294	0.568398	0.54778	-7.07	-22.75	12.39	-0.2856	-0.1838	-0.3951	
0.62586	0.550708	0.560102	-4.48	-23.8	10.36	-0.2796	-0.1763	-0.379	
0.638182	0.551318	0.583892	-2.73	-23.03	9.31	-0.2872	-0.1806	-0.3864	
0.651114	0.537044	0.572668	-2.52	-18.69	9.94	-0.2993	-0.1799	-0.372	
0.663436	0.541558	0.56364	-5.67	-15.05	10.64	-0.2961	-0.1831	-0.372	
0.667706	0.551074	0.555344	-4.27	-12.81	10.22	-0.3009	-0.1783	-0.372	
0.658556	0.532042	0.547658	-8.12	-10.99	10.15	-0.3078	-0.1628	-0.3734	
0.659776	0.548268	0.564982	-5.18	-10.78	8.4	-0.3075	-0.1721	-0.3865	
0.669902	0.549854	0.576938	-0.28	-10.71	5.25	-0.3093	-0.1659	-0.3792	
0.679174	0.530456	0.56669	-2.17	-9.24	3.64	-0.3136	-0.1733	-0.3822	
0.684176	0.521428	0.550708	-3.08	-5.67	3.36	-0.3134	-0.1732	-0.3677	
0.680394	0.525454	0.54839	-0.7	-4.62	1.75	-0.3141	-0.158	-0.3691	
0.674294	0.525088	0.546072	-1.33	-3.99	0.98	-0.3077	-0.1643	-0.3705	
0.668804	0.513132	0.540826	-2.24	-3.22	0.35	-0.3153	-0.1655	-0.3677	
0.660874	0.516914	0.527894	-3.57	-2.45	-0.07	-0.3064	-0.1599	-0.3762	
0.658312	0.51728	0.537898	-0.77	-2.87	-1.47	-0.3155	-0.164	-0.3749	
0.662704	0.515206	0.546804	0.63	-2.17	-1.96	-0.2987	-0.1602	-0.3704	
0.662338	0.507886	0.53497	-1.33	-0.35	-1.89	-0.3067	-0.1522	-0.3704	
0.654286	0.513742	0.53436	0.07	-0.84	-2.52	-0.3139	-0.1656	-0.3764	
0.65514	0.521062	0.546438	0.07	-1.05	-2.8	-0.3088	-0.1734	-0.3662	
0.65575	0.52277	0.548268	-0.14	-0.56	-2.87	-0.3046	-0.166	-0.3705	
0.658922	0.517646	0.547902	0.14	0.63	-2.45	-0.3048	-0.163	-0.3748	
0.66246	0.513254	0.542778	-0.7	2.03	-2.24	-0.3108	-0.1627	-0.3676	
0.661118	0.522282	0.537166	-1.26	2.17	-2.66	-0.3118	-0.1732	-0.3634	
0.655018	0.518622	0.539972	-2.45	2.31	-2.73	-0.3137	-0.1655	-0.3648	
0.648674	0.525332	0.544364	-2.24	2.45	-3.01	-0.3062	-0.1644	-0.3719	
0.648674	0.52887	0.544242	-2.31	2.45	-3.71	-0.3015	-0.1662	-0.3748	
0.651846	0.526796	0.544608	-2.94	2.66	-4.62	-0.3029	-0.1676	-0.3676	
0.647576	0.529846	0.547658	-2.66	3.29	-5.11	-0.3065	-0.1583	-0.3719	
0.645624	0.530822	0.545218	-2.31	3.99	-6.02	-0.2891	-0.1698	-0.3732	
0.645014	0.518134	0.552782	-2.52	3.99	-6.3	-0.3087	-0.1765	-0.375	
0.64233	0.522892	0.548878	-2.1	5.11	-6.23	-0.2985	-0.1648	-0.3733	
0.63928	0.5246	0.552782	-2.38	5.81	-6.16	-0.3032	-0.1646	-0.3791	
0.635986	0.526308	0.556564	-2.03	5.81	-6.51	-0.3015	-0.1677	-0.3748	
0.633302	0.531066	0.560224	-1.61	6.09	-7	-0.2968	-0.1695	-0.3791	
0.629764	0.533994	0.556686	-1.47	6.3	-7.28	-0.3013	-0.1723	-0.3777	
0.631228	0.528626	0.55449	-0.91	6.93	-7.35	-0.2969	-0.1664	-0.3733	
0.620126	0.528138	0.564006	-0.56	7.7	-7	-0.3029	-0.1707	-0.3806	
0.608902	0.524966	0.554612	-2.03	9.1	-6.58	-0.2983	-0.1709	-0.3791	
0.608658	0.528626	0.560712	-0.21	7.7	-7.7	-0.3	-0.1678	-0.382	
0.620858	0.527406	0.57401	3.43	6.02	-8.89	-0.2878	-0.1685	-0.3906	
0.621956	0.52765	0.572058	1.54	7.21	-8.05	-0.2998	-0.174	-0.385	
0.61732	0.538752	0.566568	-1.33	8.19	-7.63	-0.2832	-0.1656	-0.3847	
0.615978	0.548512	0.575962	-0.77	7.98	-8.19	-0.292	-0.1758	-0.382	
0.61671	0.552294	0.58499	-0.49	8.12	-8.12	-0.2921	-0.1743	-0.3878	
0.614636	0.554368	0.588284	-2.45	9.45	-8.05	-0.2811	-0.1778	-0.379	
0.609268	0.554124	0.588528	-4.2	10.99	-8.4	-0.2861	-0.1716	-0.3877	
0.598654	0.555832	0.58499	-4.69	12.18	-9.24	-0.2814	-0.1749	-0.392	
0.589016	0.552416	0.582916	-3.57	13.72	-10.01	-0.2793	-0.184	-0.3805	
0.58743	0.549122	0.580354	-1.82	15.19	-11.06	-0.2752	-0.1752	-0.3934	
0.581452	0.556076	0.580598	-1.19	15.96	-12.25	-0.2645	-0.1725	-0.386	
0.576694	0.563152	0.59597	-0.98	14.91	-13.3	-0.2853	-0.1883	-0.3893	
0.574132	0.566812	0.605486	-0.63	14.14	-14.14	-0.2699	-0.189	-0.3906	
0.564616	0.568276	0.599508	-0.84	16.45	-14.14	-0.2604	-0.1956	-0.3905	
0.557906	0.568642	0.579256	-2.66	17.99	-14.56	-0.267	-0.1893	-0.4007	
0.55388	0.575474	0.603412	0.07	15.54	-16.45	-0.2705	-0.1769	-0.3934	
0.54778	0.578402	0.612684	-0.14	15.4	-17.08	-0.265	-0.1969	-0.3906	
0.548024	0.576328	0.611342	-0.63	15.68	-18.2	-0.2546	-0.1929	-0.4064	
0.541436	0.5734	0.616344	0.56	15.82	-19.18	-0.2501	-0.1885	-0.4005	
0.53375	0.578158	0.62525	1.89	16.59	-19.53	-0.2451	-0.1963	-0.3976	
0.528016	0.585478	0.622322	3.36	18.2	-20.37	-0.2497	-0.2008	-0.4108	
0.527406	0.588284	0.620492	3.5	19.6	-21.14	-0.2359	-0.1968	-0.399	
0.515328	0.595482	0.619516	3.71	21.21	-21.98	-0.228	-0.2033	-0.4062	
0.512278	0.59963	0.620614	3.22	22.96	-22.61	-0.2419	-0.2011	-0.4049	
0.50081	0.604632	0.626592	2.87	24.15	-23.03	-0.22	-0.2097	-0.4047	
0.49166	0.612684	0.640988	3.99	25.34	-23.8	-0.2262	-0.211	-0.412	
0.486536	0.610488	0.655872	5.81	28.49	-24.57	-0.2202	-0.2067	-0.409	
0.482632	0.621102	0.645624	6.09	33.46	-24.57	-0.2122	-0.2147	-0.4163	
0.477996	0.630252	0.634156	3.71	37.45	-25.06	-0.2111	-0.2088	-0.4292	
0.463966	0.611586	0.613782	1.68	39.76	-25.27	-0.1966	-0.2215	-0.4176	
0.41785	0.660996	0.639402	4.97	43.61	-24.43	-0.1917	-0.2294	-0.422	
0.403454	0.646966	0.655262	1.19	41.02	-27.16	-0.1907	-0.2173	-0.4204	
0.393572	0.647454	0.653188	3.43	40.74	-29.19	-0.178	-0.227	-0.4276	
0.38308	0.641476	0.660508	3.36	44.17	-29.75	-0.1752	-0.2242	-0.4362	
0.369538	0.63806	0.65209	1.89	44.03	-31.29	-0.1675	-0.223	-0.4303	
0.364048	0.650626	0.651358	3.29	43.26	-33.04	-0.1676	-0.2215	-0.4361	
0.353434	0.642208	0.645746	1.54	45.5	-32.34	-0.1565	-0.2281	-0.4332	
0.299998	0.658922	0.670634	-0.42	43.89	-32.62	-0.132	-0.2308	-0.4431	
0.29524	0.657824	0.665632	-2.8	46.55	-32.34	-0.1298	-0.2399	-0.4286	
0.278648	0.643306	0.677588	-5.25	48.44	-31.78	-0.1165	-0.2346	-0.4458	
0.244366	0.639524	0.68381	-4.62	49.14	-31.71	-0.1051	-0.2456	-0.4342	
0.219356	0.654286	0.670878	-7	50.61	-31.08	-0.09959999	-0.2322	-0.4413	
0.178974	0.663192	0.68808	-3.01	46.97	-31.36	-0.0851	-0.2482	-0.4471	
0.144204	0.664656	0.69296	-4.2	46.27	-31.08	-0.0747	-0.2379	-0.4382	
0.132126	0.654774	0.690642	-3.36	51.31	-30.31	-0.0702	-0.2382	-0.4468	
0.105042	0.647332	0.709674	-4.62	49.07	-31.5	-0.0532	-0.2421	-0.4539	
0.091256	0.643916	0.696742	-0.35	46.41	-32.83	-0.0466	-0.2499	-0.4467	
0.0732	0.650504	0.715408	0.28	44.87	-32.76	-0.0331	-0.246	-0.4552	
0.049166	0.648552	0.709918	2.94	44.8	-32.34	-0.015	-0.2409	-0.4651	
0.028182	0.645502	0.705892	9.87	42.91	-33.88	-0.0129	-0.2515	-0.4564	
-0.002318	0.64294	0.695522	16.87	42.28	-35.21	-0.0036	-0.2535	-0.4535	
-0.038186	0.659288	0.705404	23.17	37.87	-38.01	-0.0006	-0.2505	-0.4534	
-0.049654	0.662826	0.698206	32.69	33.95	-41.58	0.0151	-0.2604	-0.4562	
-0.087718	0.680028	0.692106	39.9	30.1	-44.66	0.0165	-0.2558	-0.4475	
-0.089548	0.67527	0.689666	44.8	26.32	-46.2	0.0251	-0.2759	-0.4432	
-0.11651	0.676612	0.675026	40.18	27.23	-44.17	0.0375	-0.278	-0.4446	
-0.159698	0.681004	0.643184	36.89	28.7	-45.71	0.0406	-0.2782	-0.446	
-0.129686	0.701134	0.651968	52.99	21.35	-50.4	0.0519	-0.2909	-0.4474	
-0.183488	0.720532	0.66307	29.68	21.28	-44.31	0.0519	-0.2909	-0.4474	
-0.206546	0.729316	0.62464	23.59	29.61	-43.33	0.0657	-0.2884	-0.4385	
-0.199958	0.722362	0.630252	24.92	27.65	-45.78	0.0657	-0.2884	-0.4385	
-0.234362	0.728218	0.614392	24.99	29.61	-47.04	0.0695	-0.3037	-0.4329	
-0.23668	0.72895	0.625494	25.97	29.12	-48.65	0.0695	-0.3037	-0.4329	
-0.294874	0.734806	0.594994	27.58	25.83	-50.54	0.0862	-0.2999	-0.437	
-0.292434	0.725778	0.573888	26.53	24.85	-52.22	0.099	-0.308	-0.4253	
-0.315248	0.738344	0.571204	27.72	24.71	-51.31	0.1195	-0.3195	-0.4238	
-0.338184	0.719678	0.554002	15.19	30.1	-43.68	0.1197	-0.3241	-0.4238	
-0.380274	0.715652	0.562176	17.64	28.35	-42.91	0.1312	-0.3048	-0.4177	
-0.35746	0.726022	0.562786	7.98	28.63	-40.53	0.1364	-0.3156	-0.412	
-0.411994	0.727974	0.559614	5.53	33.88	-39.69	0.1528	-0.3058	-0.4146	
-0.458354	0.73871	0.53619	13.02	32.48	-41.23	0.153	-0.3119	-0.4161	
-0.424194	0.737368	0.536678	7.84	31.5	-41.09	0.1653	-0.3109	-0.413	
-0.43188	0.724924	0.516914	4.34	33.53	-39.97	0.1716	-0.3111	-0.4057	
-0.451766	0.719312	0.51606	3.57	34.16	-38.57	0.1853	-0.3102	-0.4114	
-0.473238	0.691252	0.511668	1.4	32.06	-36.68	0.1852	-0.3087	-0.4143	
-0.488366	0.683078	0.511912	1.68	30.17	-35.35	0.1915	-0.3089	-0.4012	
-0.50813	0.678198	0.489098	0.84	27.09	-34.51	0.1941	-0.3	-0.4083	
-0.510692	0.670634	0.500932	-0.77	27.16	-32.83	0.2068	-0.3096	-0.4053	
-0.515816	0.66551	0.491294	-1.47	25.97	-32.2	0.2082	-0.3035	-0.3951	
-0.513864	0.656848	0.504104	-1.19	24.78	-30.66	0.2238	-0.3088	-0.395	
-0.524966	0.650626	0.507398	-2.03	24.22	-28.91	0.2262	-0.2953	-0.3963	
-0.557296	0.650138	0.497516	-0.21	22.54	-28	0.2216	-0.295	-0.3949	
-0.578768	0.664168	0.49776	-1.82	22.47	-26.88	0.2402	-0.2989	-0.3976	
-0.59902	0.662948	0.493856	-0.28	21.07	-25.9	0.2371	-0.2973	-0.3977	
-0.60756	0.653066	0.484462	-0.77	18.83	-24.01	0.2475	-0.2917	-0.3989	
-0.613172	0.649284	0.48495	-1.12	18.41	-21.98	0.2508	-0.2949	-0.3975	
-0.616344	0.633912	0.478972	0.42	16.66	-19.67	0.2522	-0.2934	-0.3974	
-0.634034	0.637084	0.47214	1.33	14.63	-17.99	0.2549	-0.2828	-0.3886	
-0.648308	0.642452	0.467992	3.29	11.97	-16.17	0.264	-0.2786	-0.3856	
-0.655628	0.651358	0.456768	4.41	12.25	-14.28	0.26	-0.2937	-0.3872	
-0.656848	0.66246	0.45872	4.55	10.71	-12.39	0.2626	-0.2832	-0.3929	
-0.662338	0.65453	0.448838	4.9	8.89	-10.64	0.2629	-0.2892	-0.3857	
-0.658434	0.64416	0.445666	3.85	6.79	-8.26	0.2701	-0.2774	-0.3855	
-0.650626	0.639402	0.444934	4.27	4.48	-6.44	0.2655	-0.2787	-0.3841	
-0.653188	0.635376	0.439078	3.29	3.29	-4.41	0.2653	-0.2741	-0.3826	
-0.653432	0.638426	0.440908	2.31	2.38	-2.87	0.2751	-0.2867	-0.3826	
-0.645014	0.640744	0.44286	1.89	1.54	-1.4	0.2734	-0.2852	-0.3899	
-0.641232	0.638792	0.446764	2.17	2.03	-0.7	0.2689	-0.2865	-0.3871	
-0.641598	0.637572	0.44164	1.4	1.26	-0.21	0.2733	-0.2806	-0.3855	
-0.634156	0.637084	0.448106	0.63	0.21	0.21	0.2629	-0.2876	-0.3799	
-0.634156	0.633912	0.451522	0.42	-0.77	0.28	0.2745	-0.273	-0.3825	
-0.63562	0.635864	0.45811	0	-1.96	0.77	0.2661	-0.2909	-0.3842	
-0.635742	0.642208	0.461404	0.7	-1.61	0.98	0.2751	-0.2852	-0.3826	
-0.634278	0.645502	0.45872	0	-2.52	1.26	0.2799	-0.2884	-0.3783	
-0.637694	0.642208	0.457866	1.05	-2.45	1.47	0.2766	-0.2853	-0.3855	
-0.64355	0.63989	0.462136	1.12	-1.82	1.82	0.2748	-0.2807	-0.3898	
-0.645014	0.639402	0.457378	1.05	-2.17	2.59	0.2686	-0.2788	-0.3855	
-0.637694	0.640378	0.454694	1.26	-2.31	3.64	0.2732	-0.2775	-0.3826	
-0.640866	0.645746	0.452254	0.7	-1.96	4.69	0.2642	-0.2816	-0.3798	
-0.642696	0.64599	0.442128	0.84	-2.66	5.67	0.2612	-0.2861	-0.3857	
-0.645258	0.648796	0.447374	0.28	-3.29	7	0.2731	-0.2791	-0.3913	
-0.64904	0.645258	0.44774	0.56	-3.36	7.7	0.2659	-0.2879	-0.3871	
-0.640988	0.64477	0.447618	0.7	-5.04	8.54	0.2705	-0.2881	-0.3885	
-0.63379	0.644892	0.449204	1.05	-5.46	9.45	0.2632	-0.2953	-0.3829	
-0.63196	0.644892	0.454206	1.19	-6.51	10.29	0.2644	-0.2893	-0.3886	
-0.631594	0.639524	0.453596	1.19	-7.56	11.2	0.2724	-0.2942	-0.3871	
-0.625128	0.648186	0.460794	1.54	-9.24	12.25	0.2488	-0.2825	-0.3872	
-0.621102	0.655872	0.457866	1.68	-10.57	14.14	0.2614	-0.2892	-0.3886	
-0.61732	0.654286	0.463966	0.77	-10.92	15.4	0.2523	-0.2918	-0.3873	
-0.613416	0.654286	0.45811	1.4	-11.83	16.8	0.2538	-0.2935	-0.3945	
-0.609146	0.659898	0.462746	1.19	-14	18.27	0.2479	-0.2977	-0.3946	
-0.600606	0.667218	0.466894	1.26	-15.47	20.16	0.2419	-0.3005	-0.3904	
-0.5917	0.669292	0.463478	0.98	-16.03	22.4	0.2371	-0.2972	-0.3933	
-0.588528	0.668072	0.468968	0.84	-16.38	24.15	0.2402	-0.2974	-0.3918	
-0.572302	0.668804	0.471164	0.77	-17.15	25.83	0.2238	-0.3103	-0.3965	
-0.550586	0.682956	0.477752	1.33	-18.27	27.44	0.2344	-0.3062	-0.3949	
-0.532286	0.681492	0.478606	0.98	-17.92	28.91	0.2193	-0.3116	-0.3965	
-0.524234	0.683322	0.486292	1.19	-17.71	30.17	0.2127	-0.3054	-0.4067	
-0.513376	0.681492	0.49715	1.75	-17.64	31.64	0.2168	-0.3236	-0.3909	
-0.493368	0.684054	0.500322	2.94	-18.48	32.9	0.2107	-0.3265	-0.4026	
-0.476532	0.690398	0.496906	2.31	-18.34	34.16	0.21	-0.3081	-0.3908	
-0.471286	0.698938	0.497638	3.78	-18.83	35	0.2007	-0.3093	-0.4025	
-0.46116	0.709552	0.502152	4.48	-19.39	36.12	0.1938	-0.3241	-0.394	
-0.443958	0.717848	0.499468	3.64	-18.83	37.31	0.1892	-0.327	-0.4014	
-0.426024	0.727974	0.495442	2.66	-19.81	38.99	0.1864	-0.3298	-0.3898	
-0.411628	0.746518	0.496784	1.61	-20.58	39.97	0.1799	-0.3235	-0.3971	
-0.40626	0.76189	0.492514	1.61	-19.74	41.09	0.1695	-0.3322	-0.3987	
-0.402966	0.773602	0.495686	-0.28	-20.23	42.21	0.1651	-0.3366	-0.4046	
-0.3965	0.766038	0.495686	0.21	-19.88	43.05	0.1545	-0.3407	-0.4062	
-0.368928	0.762134	0.50813	-1.05	-21.84	43.68	0.1526	-0.3314	-0.4003	
-0.354288	0.761646	0.507398	0.77	-23.1	43.68	0.1453	-0.3418	-0.4063	
-0.334158	0.755912	0.505568	-1.12	-24.01	44.87	0.1349	-0.3489	-0.4036	
-0.309026	0.769576	0.514474	-0.14	-25.48	45.85	0.1377	-0.3445	-0.4093	
-0.267668	0.772626	0.518988	-3.78	-24.08	46.83	0.1098	-0.3371	-0.4067	
-0.256566	0.761524	0.52033	-5.39	-23.1	47.6	0.1125	-0.3296	-0.4037	
-0.247416	0.773602	0.528748	-4.34	-23.38	48.58	0.107	-0.3462	-0.4198	
-0.238998	0.796416	0.515572	-5.6	-24.99	49.14	0.0947	-0.3456	-0.4142	
-0.222894	0.804224	0.518866	-7.91	-25.62	49	0.0963	-0.3457	-0.4141	
-0.19032	0.794098	0.513254	-2.1	-28.35	47.11	0.0794	-0.3449	-0.4085	
-0.149938	0.783362	0.53192	3.29	-32.2	45.22	0.0731	-0.3431	-0.4144	
-0.126148	0.780312	0.533262	4.48	-33.11	43.96	0.0581	-0.35	-0.4117	
-0.09638	0.803614	0.54107	6.79	-34.02	43.05	0.0641	-0.3473	-0.416	
-0.07747	0.860954	0.541192	12.95	-35.21	41.44	0.0503	-0.3482	-0.4161	
-0.060512	0.87535	0.532042	10.64	-32.2	39.48	0.0411	-0.3477	-0.4133	
-0.047702	0.860466	0.530456	10.01	-28	38.08	0.0273	-0.347	-0.4077	
-0.03233	0.846802	0.51545	7.56	-25.48	36.82	0.0213	-0.3498	-0.4092	
-0.022204	0.833504	0.510204	5.32	-26.88	35.77	0.0219	-0.362	-0.4064	
-0.001708	0.82594	0.511424	4.76	-27.23	35.21	0.0077	-0.3553	-0.4065	
0.010858	0.847412	0.514108	4.62	-27.37	35.7	0.0016	-0.355	-0.4051	
0.013542	0.860344	0.504348	2.66	-29.4	36.33	-0.0107	-0.3529	-0.4081	
0.021106	0.848998	0.50813	1.33	-29.82	36.47	-0.0247	-0.3508	-0.4083	
0.051728	0.817522	0.502762	-4.48	-26.39	38.22	-0.0229	-0.3554	-0.4068	
0.059292	0.814594	0.511668	-7.07	-26.18	39.9	-0.0244	-0.3553	-0.4011	
0.107238	0.795562	0.493612	-7.63	-27.44	40.6	-0.037	-0.3502	-0.4084	
0.108092	0.817156	0.510326	-4.13	-29.89	42.98	-0.0387	-0.3455	-0.4055	
0.132004	0.824232	0.505934	-5.95	-33.39	43.61	-0.0494	-0.3497	-0.4158	
0.145058	0.8235	0.50508	-8.89	-30.38	45.15	-0.0524	-0.348	-0.4085	
0.1403	0.809226	0.503128	-8.82	-30.03	45.92	-0.0741	-0.3455	-0.4088	
0.17995	0.787144	0.499346	1.82	-35.35	44.66	-0.0862	-0.3464	-0.4046	
0.202398	0.815326	0.526796	2.73	-39.48	44.1	-0.1021	-0.335	-0.4017	
0.230336	0.81557	0.528382	-4.97	-37.31	45.5	-0.1111	-0.3407	-0.4048	
0.256932	0.818986	0.518988	-6.72	-33.74	46.27	-0.1159	-0.3359	-0.4004	
0.273524	0.80947	0.503616	-7.56	-33.53	46.06	-0.1209	-0.3266	-0.4033	
0.287432	0.798124	0.51362	-5.32	-32.83	46.55	-0.1286	-0.3247	-0.3976	
0.299022	0.784704	0.503982	-10.78	-33.95	46.83	-0.1421	-0.3316	-0.3949	
0.332938	0.777628	0.497394	-11.9	-35	47.18	-0.1507	-0.313	-0.3977	
0.35197	0.769332	0.50874	-16.66	-34.65	48.37	-0.1613	-0.3172	-0.4051	
0.386618	0.760426	0.510936	-17.29	-37.03	48.3	-0.1799	-0.3116	-0.3937	
0.409066	0.759694	0.513864	-22.4	-37.66	48.3	-0.1863	-0.3037	-0.3908	
0.43188	0.745786	0.50996	-30.31	-36.33	48.16	-0.1849	-0.3007	-0.3864	
0.418094	0.735538	0.49959	-29.19	-35.07	46.69	-0.2099	-0.2936	-0.3982	
0.43432	0.714676	0.497882	-24.85	-37.87	43.61	-0.2059	-0.2816	-0.398	
0.479704	0.705282	0.510082	-18.76	-40.25	41.16	-0.223	-0.2731	-0.3851	
0.50691	0.685884	0.5002	-19.53	-39.13	41.3	-0.223	-0.2716	-0.3807	
0.523014	0.683932	0.484218	-22.4	-39.2	40.74	-0.2359	-0.2589	-0.3851	
0.526674	0.66429	0.48922	-24.57	-36.89	41.44	-0.2392	-0.2526	-0.3778	
0.546926	0.651724	0.485926	-22.19	-37.8	40.88	-0.2439	-0.2524	-0.3808	
0.556564	0.654896	0.473482	-17.08	-40.11	40.81	-0.2638	-0.253	-0.3839	
0.566324	0.645868	0.462014	-21.28	-42	39.83	-0.2626	-0.2455	-0.3809	
0.551196	0.663558	0.47458	-26.11	-41.09	39.62	-0.2753	-0.2357	-0.3752	
0.561688	0.668926	0.536312	-33.6	-49.28	37.03	-0.2788	-0.228	-0.378	
0.705526	0.547902	0.434686	-27.65	-31.5	34.23	-0.2883	-0.2184	-0.3708	
0.64599	0.606096	0.488366	-18.69	-43.47	32.97	-0.298	-0.2057	-0.3635	
0.68747	0.599142	0.47519	-14.21	-45.57	28.35	-0.3088	-0.2068	-0.368	
0.706258	0.574742	0.47641	-20.72	-38.15	29.89	-0.3105	-0.2037	-0.3694	
0.720898	0.558516	0.468114	-21.07	-36.89	28.21	-0.3169	-0.1957	-0.3593	
0.74054	0.535214	0.467016	-20.86	-35.56	27.37	-0.3295	-0.1875	-0.3507	
0.735782	0.55266	0.473604	-18.48	-34.02	26.32	-0.3282	-0.1799	-0.3477	
0.754082	0.53741	0.47275	-12.81	-33.88	22.47	-0.3345	-0.1782	-0.355	
0.757254	0.56059	0.485804	-15.4	-28.98	21.14	-0.3407	-0.1778	-0.3522	
0.764818	0.529968	0.472994	-20.93	-23.38	20.93	-0.3503	-0.1682	-0.3464	
0.773358	0.517402	0.45506	-12.11	-22.61	17.36	-0.3519	-0.1651	-0.3464	
0.770552	0.513986	0.451522	-12.39	-20.23	15.54	-0.347	-0.1683	-0.3333	
0.779214	0.488732	0.443836	-8.96	-17.29	13.65	-0.3539	-0.1544	-0.3448	
0.785924	0.48312	0.437492	-2.8	-18.2	10.08	-0.3444	-0.1577	-0.3317	
0.781898	0.484706	0.429806	0.35	-17.43	8.26	-0.3569	-0.1557	-0.3376	
0.77226	0.480192	0.421876	-0.35	-14.91	7.7	-0.357	-0.1526	-0.3362	
0.786412	0.47153	0.410774	-1.26	-14.56	6.86	-0.3569	-0.1541	-0.3318	
0.793976	0.481534	0.42334	-0.91	-16.1	5.74	-0.3659	-0.1566	-0.3218	
0.790316	0.48068	0.435906	-6.51	-12.81	5.95	-0.3676	-0.152	-0.3203	
0.789462	0.47458	0.435174	-9.94	-9.52	6.65	-0.3681	-0.1445	-0.3348	
0.7991	0.475068	0.408456	-8.68	-8.61	4.9	-0.3755	-0.1487	-0.3291	
0.798612	0.476776	0.422364	-1.12	-9.24	2.24	-0.3616	-0.1509	-0.3304	
0.796904	0.46116	0.437126	5.95	-6.86	0.56	-0.3663	-0.1459	-0.3145	
0.792634	0.465308	0.41907	12.81	-4.83	-0.77	-0.3743	-0.138	-0.3145	
0.80154	0.475312	0.417606	7.84	-3.36	-0.7	-0.3724	-0.1472	-0.3203	
0.791658	0.465064	0.39955	-0.49	0.14	0.56	-0.3631	-0.1507	-0.3232	
0.777384	0.463844	0.401502	-0.98	-1.68	-0.42	-0.3706	-0.1534	-0.3175	
0.786412	0.47763	0.411262	1.54	-2.38	-1.68	-0.3738	-0.1502	-0.3175	
0.781288	0.483974	0.41785	1.54	-1.4	-2.31	-0.3724	-0.1472	-0.3218	
0.769942	0.48007	0.414068	4.69	1.19	-3.36	-0.3753	-0.1501	-0.3175	
0.779458	0.473726	0.420778	7.14	0	-4.69	-0.3723	-0.1534	-0.3305	
0.78751	0.472384	0.42578	8.82	-0.07	-5.18	-0.3723	-0.1519	-0.3276	
0.786656	0.47031	0.403088	0.56	3.01	-3.22	-0.3628	-0.1552	-0.316	
0.77653	0.476654	0.408334	-3.01	3.01	-2.52	-0.3674	-0.1566	-0.3189	
0.771772	0.488244	0.420534	-1.96	3.08	-3.08	-0.3752	-0.1547	-0.3233	
0.765916	0.485804	0.417728	-2.66	4.62	-2.94	-0.3672	-0.1611	-0.3204	
0.76738	0.487878	0.416996	-0.49	5.25	-3.29	-0.3725	-0.1473	-0.3247	
0.768722	0.48922	0.40931	-1.12	4.97	-3.71	-0.363	-0.1506	-0.3159	
0.768112	0.493002	0.406504	-3.78	4.41	-3.99	-0.375	-0.1593	-0.3234	
0.756156	0.496662	0.410042	-6.86	4.34	-4.13	-0.3674	-0.1566	-0.3247	
0.750544	0.498248	0.413946	-5.39	4.55	-5.11	-0.3751	-0.1578	-0.3306	
0.7564	0.496174	0.419802	-1.4	4.48	-6.23	-0.3677	-0.1505	-0.3218	
0.763232	0.49593	0.418216	-0.7	4.69	-6.86	-0.3643	-0.1583	-0.3291	
0.768234	0.494344	0.426146	-0.91	4.55	-7.56	-0.3643	-0.1567	-0.316	
0.773236	0.503494	0.432856	-3.99	4.9	-7.77	-0.363	-0.1522	-0.3246	
0.77531	0.505324	0.44591	-8.12	6.3	-7.56	-0.3661	-0.1521	-0.3261	
0.774578	0.508618	0.446398	-10.15	7.91	-7.77	-0.3658	-0.1613	-0.3334	
0.773114	0.512522	0.449326	-11.76	9.66	-8.26	-0.3641	-0.1629	-0.3276	
0.771894	0.522892	0.45262	-11.41	10.92	-9.38	-0.3675	-0.1535	-0.3218	
0.7747	0.53009	0.453962	-14.07	12.46	-10.43	-0.3569	-0.1541	-0.3318	
0.773968	0.526552	0.467138	-12.95	15.47	-11.62	-0.3599	-0.1539	-0.3261	
0.767014	0.528504	0.46299	-13.65	18.41	-12.67	-0.3585	-0.1525	-0.3318	
0.754692	0.540094	0.46543	-14.07	20.51	-14.07	-0.3553	-0.1573	-0.3405	
0.753228	0.52765	0.469944	-16.03	22.4	-15.96	-0.3481	-0.1454	-0.3345	
0.730048	0.515938	0.464698	-14.91	25.97	-17.92	-0.3401	-0.1566	-0.3505	
0.714066	0.508496	0.463234	-17.43	27.65	-18.9	-0.3489	-0.1637	-0.3463	
0.713578	0.50813	0.474702	-12.95	24.78	-22.82	-0.34	-0.1581	-0.352	
0.722606	0.508252	0.510082	-6.16	22.12	-24.85	-0.3279	-0.1588	-0.3663	
0.705892	0.519842	0.5124	-13.65	27.23	-22.61	-0.3352	-0.166	-0.3621	
0.698328	0.518256	0.518866	-15.47	30.8	-22.54	-0.3243	-0.168	-0.3577	
0.685518	0.52765	0.524844	-12.25	31.29	-23.59	-0.3247	-0.1605	-0.3663	
0.675758	0.51789	0.532164	-17.5	32.97	-23.31	-0.3167	-0.1684	-0.3634	
0.658312	0.52582	0.535092	-15.61	32.97	-24.64	-0.311	-0.1612	-0.3763	
0.647332	0.528016	0.528016	-14.21	32.48	-26.74	-0.3097	-0.1568	-0.382	
0.630252	0.528992	0.542778	-13.79	33.25	-27.3	-0.2923	-0.1682	-0.379	
0.624274	0.528626	0.554612	-10.99	33.74	-28.56	-0.286	-0.1715	-0.3805	
0.619394	0.530822	0.564006	-6.37	33.74	-30.17	-0.2997	-0.1739	-0.3792	
0.586332	0.534116	0.574254	-2.24	24.99	-34.37	-0.2905	-0.1743	-0.3805	
0.591944	0.573522	0.580598	2.8	28.35	-35.7	-0.2841	-0.1823	-0.3907	
0.57401	0.568154	0.597922	-6.02	36.26	-33.25	-0.2708	-0.1723	-0.3948	
0.554734	0.570106	0.605974	-7.35	37.31	-34.51	-0.2705	-0.1785	-0.3992	
0.541924	0.579866	0.611342	-2.17	35.91	-37.24	-0.2571	-0.1716	-0.4077	
0.531676	0.577792	0.612562	-0.98	39.2	-37.17	-0.2595	-0.1882	-0.4093	
0.514718	0.573156	0.615612	-4.55	45.01	-35.7	-0.247	-0.1918	-0.4063	
0.502884	0.567056	0.626348	-3.36	45.29	-36.96	-0.2438	-0.1934	-0.4063	
0.485926	0.581574	0.64721	1.05	43.47	-38.57	-0.2345	-0.1954	-0.4062	
0.46787	0.59963	0.662704	1.68	45.43	-38.64	-0.2249	-0.205	-0.4105	
0.447374	0.600606	0.671366	0.84	49.14	-37.45	-0.2159	-0.2024	-0.4176	
0.431758	0.551074	0.636962	13.44	58.87	-39.48	-0.2267	-0.2035	-0.4236	
0.38857	0.617808	0.692716	10.78	64.12	-34.44	-0.1941	-0.2127	-0.432	
0.336842	0.613904	0.674294	17.08	49.77	-40.81	-0.1768	-0.2195	-0.4275	
0.338672	0.60146	0.673562	11.62	56.35	-37.8	-0.1674	-0.2261	-0.4362	
0.285968	0.590236	0.687226	6.02	65.52	-33.32	-0.1523	-0.2207	-0.4403	
0.243268	0.596458	0.662338	6.58	61.04	-33.11	-0.1471	-0.2331	-0.4375	
0.208742	0.613538	0.646966	15.82	56.91	-34.02	-0.1318	-0.2323	-0.4402	
0.168482	0.647454	0.67771	14.42	54.53	-34.16	-0.1227	-0.2312	-0.4401	
0.159454	0.654652	0.697718	5.95	52.71	-33.53	-0.1027	-0.2306	-0.4384	
0.122732	0.638304	0.695522	3.29	50.89	-32.83	-0.0992	-0.2414	-0.4443	
0.136884	0.625616	0.663802	7.28	53.97	-31.71	-0.0854	-0.2421	-0.4485	
0.09211	0.666852	0.713822	12.95	50.26	-31.64	-0.073	-0.2457	-0.4484	
0.080032	0.65392	0.72041	6.72	48.72	-31.43	-0.0652	-0.2476	-0.4497	
0.055022	0.671488	0.705404	3.08	52.43	-30.1	-0.0574	-0.251	-0.4511	
0.049166	0.64965	0.69052	0.07	52.57	-29.61	-0.0468	-0.2484	-0.451	
0.02806	0.641232	0.702476	-1.05	50.26	-29.33	-0.0353	-0.2657	-0.4539	
0.024644	0.64538	0.698816	1.4	48.51	-28.56	-0.0247	-0.2616	-0.4581	
0.026108	0.645014	0.702964	3.78	46.9	-26.67	-0.026	-0.2645	-0.448	
-0.01037	0.66124	0.693082	-0.91	49.91	-23.17	-0.0037	-0.252	-0.4563	
-0.044164	0.662216	0.678442	-1.4	56.07	-20.79	0.0056	-0.2554	-0.4534	
-0.083448	0.656848	0.676124	0.91	51.31	-21.63	0.0074	-0.2585	-0.449	
-0.0976	0.644648	0.690886	2.24	43.26	-24.43	0.0287	-0.2565	-0.4589	
-0.015616	0.579012	0.60268	26.67	44.8	-32.41	0.026	-0.2655	-0.4605	
-0.163114	0.701256	0.752374	13.58	62.23	-18.2	0.043	-0.2646	-0.4458	
-0.1891	0.687104	0.6954	17.71	25.55	-30.52	0.0552	-0.2653	-0.4544	
-0.152378	0.719922	0.641598	30.59	32.2	-31.22	0.06	-0.2669	-0.4456	
-0.178608	0.704672	0.685152	24.36	35.35	-27.72	0.0649	-0.2717	-0.4442	
-0.206424	0.717604	0.64294	27.79	33.04	-28.84	0.0743	-0.2766	-0.4427	
-0.214232	0.724436	0.624274	31.64	28.91	-31.92	0.0697	-0.278	-0.4456	
-0.220088	0.713334	0.625006	31.43	32.48	-29.75	0.0888	-0.291	-0.4441	
-0.264008	0.739808	0.618174	41.51	28.35	-31.5	0.0919	-0.2911	-0.4368	
-0.263642	0.733952	0.598288	31.57	29.54	-32.34	0.1061	-0.2993	-0.4411	
-0.28914	0.740784	0.596214	28.77	28.14	-32.83	0.1123	-0.298	-0.4352	
-0.307806	0.746884	0.59231	25.2	25.9	-34.79	0.1167	-0.2921	-0.425	
-0.323422	0.75701	0.586942	27.02	28.28	-36.47	0.125	-0.3046	-0.425	
-0.310978	0.74786	0.58255	25.69	29.47	-38.08	0.1372	-0.3052	-0.4336	
-0.353068	0.750178	0.548512	27.86	27.44	-40.04	0.1361	-0.3096	-0.4148	
-0.376614	0.739076	0.5307	26.11	27.3	-42.07	0.142	-0.3068	-0.4191	
-0.37576	0.73505	0.535092	26.67	25.06	-42.7	0.1406	-0.3067	-0.4118	
-0.3965	0.726388	0.518378	23.38	22.26	-41.93	0.1515	-0.3102	-0.4088	
-0.41236	0.748836	0.510082	20.44	31.43	-40.81	0.1775	-0.3068	-0.41	
-0.43737	0.752862	0.500444	18.2	28.35	-39.62	0.1841	-0.3178	-0.4086	
-0.44591	0.753228	0.487512	10.5	26.04	-38.5	0.1762	-0.3097	-0.3999	
-0.46116	0.734562	0.477142	4.34	30.8	-35.84	0.1907	-0.324	-0.3984	
-0.476654	0.732854	0.495076	4.27	27.16	-34.72	0.1917	-0.3166	-0.4085	
-0.481412	0.731634	0.498614	4.69	21.49	-34.58	0.2026	-0.317	-0.4011	
-0.48617	0.722362	0.490318	5.32	23.31	-33.95	0.2005	-0.3032	-0.3938	
-0.500444	0.727364	0.493734	4.48	24.5	-33.46	0.2034	-0.3034	-0.4082	
-0.52643	0.704916	0.492636	1.47	23.38	-32.83	0.2206	-0.304	-0.3863	
-0.524112	0.693204	0.47641	1.19	21.98	-32.55	0.216	-0.3069	-0.3936	
-0.524112	0.681004	0.489098	2.1	20.51	-31.99	0.2358	-0.3033	-0.3977	
-0.541436	0.670756	0.482876	2.59	22.54	-31.36	0.2375	-0.3064	-0.3948	
-0.558516	0.657946	0.462868	2.73	23.03	-30.31	0.2511	-0.2994	-0.3903	
-0.573278	0.655994	0.459452	4.2	21.63	-29.19	0.2468	-0.3067	-0.3889	
-0.61366	0.673684	0.446398	7.35	24.15	-27.72	0.2464	-0.296	-0.3831	
-0.624884	0.675026	0.442494	7.42	23.45	-27.23	0.2505	-0.2871	-0.3858	
-0.636596	0.673318	0.433344	5.46	21.42	-25.9	0.262	-0.3013	-0.3815	
-0.629032	0.651968	0.42151	5.74	15.82	-25.55	0.2571	-0.2934	-0.3786	
-0.635986	0.653066	0.427854	4.48	14.98	-25.9	0.277	-0.2944	-0.3813	
-0.650748	0.64965	0.428708	3.22	13.79	-25.69	0.277	-0.2944	-0.3813	
-0.64721	0.640622	0.433222	2.8	13.09	-25.27	0.277	-0.2928	-0.3769	
-0.650504	0.64233	0.429806	2.8	13.02	-24.15	0.2927	-0.2981	-0.3739	
-0.655384	0.636962	0.43859	1.4	13.16	-22.96	0.2927	-0.2981	-0.3739	
-0.67527	0.633058	0.427854	2.1	12.74	-21.98	0.2799	-0.2884	-0.3797	
-0.682346	0.62647	0.423096	1.75	11.97	-20.79	0.2934	-0.2814	-0.3781	
-0.687714	0.61183	0.413824	1.4	10.43	-19.11	0.2887	-0.2766	-0.3679	
-0.678808	0.610488	0.424316	0.49	8.4	-17.5	0.2983	-0.2861	-0.3694	
-0.675514	0.610732	0.418582	1.61	6.93	-16.24	0.2948	-0.2769	-0.3722	
-0.697108	0.604754	0.410408	1.19	7.49	-15.26	0.2919	-0.2813	-0.3723	
-0.709674	0.609268	0.409554	1.61	5.95	-13.93	0.298	-0.28	-0.3693	
-0.707722	0.619028	0.407724	1.05	3.57	-11.9	0.3008	-0.2741	-0.3692	
-0.717726	0.622322	0.40321	0.63	2.17	-10.22	0.3021	-0.2664	-0.359	
-0.725046	0.616954	0.410774	-0.14	1.54	-8.89	0.3177	-0.2733	-0.3661	
-0.727974	0.610366	0.407724	-0.56	0.28	-7.63	0.3039	-0.2727	-0.3648	
-0.726022	0.597678	0.410042	0.21	-0.7	-6.09	0.304	-0.2757	-0.3663	
-0.725656	0.59719	0.40504	0.28	-2.17	-4.48	0.3005	-0.2665	-0.3706	
-0.720654	0.599752	0.406992	0.28	-3.5	-2.73	0.3003	-0.2635	-0.372	
-0.716018	0.601094	0.407846	0.42	-4.06	-1.19	0.3008	-0.271	-0.3619	
-0.721386	0.59841	0.405162	0.84	-4.27	-0.14	0.3038	-0.2711	-0.3663	
-0.702232	0.585844	0.416264	0.42	-5.46	1.47	0.3071	-0.2759	-0.3663	
-0.698328	0.591578	0.407114	2.24	-5.18	2.03	0.3052	-0.2698	-0.3735	
-0.705892	0.599386	0.404552	0.84	-5.46	2.24	0.3022	-0.2695	-0.3634	
-0.701622	0.60024	0.408212	1.12	-6.37	2.31	0.3007	-0.2695	-0.3634	
-0.70516	0.604144	0.410896	0.14	-6.58	2.59	0.2928	-0.2677	-0.3707	
-0.708454	0.595848	0.411994	0.42	-7.77	2.94	0.2915	-0.2753	-0.3795	
-0.720654	0.602314	0.412482	-0.42	-8.26	3.43	0.3019	-0.2635	-0.3691	
-0.716384	0.59963	0.412604	-0.77	-9.31	3.78	0.2992	-0.2725	-0.3692	
-0.69662	0.591944	0.421754	-0.91	-10.92	4.69	0.298	-0.2816	-0.3766	
-0.698816	0.588162	0.422852	-0.63	-11.41	5.6	0.2931	-0.2737	-0.3693	
-0.697962	0.594994	0.429074	0	-11.62	6.51	0.2932	-0.2753	-0.3708	
-0.685884	0.60146	0.436638	-0.28	-12.67	7.56	0.2928	-0.2677	-0.375	
-0.67954	0.59841	0.440664	0	-13.58	8.61	0.2836	-0.2704	-0.3795	
-0.687226	0.599386	0.440298	0.07	-12.95	9.87	0.2822	-0.2718	-0.3781	
-0.690398	0.600362	0.445788	0	-12.46	11.55	0.287	-0.2766	-0.3766	
-0.689666	0.603168	0.440542	0.28	-13.72	13.02	0.2793	-0.2763	-0.3825	
-0.680638	0.605242	0.452376	0.77	-14.84	14.77	0.2854	-0.275	-0.3766	
-0.682956	0.613904	0.447496	0.7	-15.61	16.52	0.2809	-0.2794	-0.3825	
-0.678808	0.612806	0.45323	0.42	-16.45	17.92	0.2736	-0.2867	-0.3841	
-0.667706	0.616466	0.451888	1.19	-17.22	19.04	0.2627	-0.2847	-0.3915	
-0.661118	0.615734	0.455426	1.05	-18.2	20.58	0.2643	-0.2847	-0.3856	
-0.652578	0.622688	0.457988	1.05	-19.88	22.47	0.2645	-0.2877	-0.3799	
-0.63318	0.62464	0.462746	1.4	-21.49	24.71	0.2582	-0.2859	-0.3814	
-0.617442	0.621346	0.471896	1.47	-21.49	26.81	0.2458	-0.2823	-0.3786	
-0.62037	0.62464	0.474336	1.05	-20.65	28.63	0.2474	-0.2855	-0.3873	
-0.611342	0.631106	0.47519	1.89	-21.21	30.73	0.242	-0.302	-0.3904	
-0.589626	0.635498	0.477508	1.75	-22.68	32.9	0.2385	-0.2943	-0.3962	
-0.564372	0.645868	0.479948	0.42	-21.77	35.56	0.2265	-0.2997	-0.3891	
-0.563396	0.65514	0.483364	0.42	-21.63	37.59	0.2203	-0.2995	-0.3964	
-0.550952	0.662582	0.482876	-3.85	-21.56	40.04	0.222	-0.3042	-0.3964	
-0.544364	0.678076	0.489464	-2.73	-22.47	41.3	0.211	-0.2976	-0.395	
-0.52765	0.674294	0.492392	-5.32	-23.1	42.42	0.2042	-0.3186	-0.4026	
-0.499712	0.67832	0.50508	-2.1	-24.5	43.12	0.2039	-0.3109	-0.3967	
-0.478118	0.671488	0.512156	-3.08	-24.71	45.01	0.1982	-0.3214	-0.4012	
-0.450424	0.687836	0.50935	-1.12	-24.29	46.62	0.1886	-0.3133	-0.4012	
-0.456402	0.706258	0.512034	-1.68	-22.4	48.02	0.1798	-0.322	-0.4014	
-0.425902	0.716872	0.520452	-3.92	-21.98	48.86	0.1735	-0.3187	-0.4043	
-0.403332	0.704794	0.523014	-5.39	-23.24	50.12	0.1643	-0.3183	-0.4001	
-0.391254	0.716994	0.53375	-5.81	-22.26	51.59	0.1595	-0.3182	-0.4132	
-0.37698	0.723948	0.52643	-8.54	-19.6	52.85	0.1506	-0.3238	-0.409	
-0.353434	0.73322	0.52277	-6.72	-21.21	52.5	0.1479	-0.3313	-0.4105	
-0.335134	0.738466	0.523502	-6.23	-21.84	53.2	0.1443	-0.3205	-0.4119	
-0.317688	0.758352	0.540582	-3.78	-20.79	53.27	0.134	-0.3307	-0.4121	
-0.30073	0.7625	0.53741	-5.67	-20.58	54.04	0.1245	-0.3257	-0.4122	
-0.27938	0.768234	0.54717	-1.61	-24.29	53.41	0.1171	-0.3315	-0.4167	
-0.260592	0.760304	0.53802	-5.67	-24.78	53.48	0.0999	-0.3246	-0.4124	
-0.230946	0.779702	0.562298	1.19	-26.88	52.99	0.106	-0.3234	-0.4167	
-0.199226	0.787022	0.56486	1.75	-27.44	51.66	0.08329999	-0.3315	-0.417	
-0.162138	0.781166	0.56242	-0.07	-28.28	49.98	0.0771	-0.3312	-0.42	
-0.129564	0.775798	0.568032	3.99	-27.79	49.63	0.0712	-0.337	-0.4216	
-0.11041	0.769332	0.562664	5.81	-27.65	49.42	0.0633	-0.3321	-0.4216	
-0.084058	0.761768	0.556686	2.73	-25.2	49.98	0.0482	-0.3375	-0.4204	
-0.073932	0.77653	0.552172	1.4	-24.15	51.38	0.044	-0.3464	-0.4191	
-0.069296	0.806054	0.551318	4.34	-27.58	50.89	0.0332	-0.3428	-0.4119	
-0.063318	0.81496	0.535214	3.71	-28.14	49.63	0.016	-0.3375	-0.4149	
-0.052582	0.802882	0.535092	2.45	-27.37	48.65	0.0111	-0.3328	-0.4193	
-0.033794	0.791048	0.540704	6.65	-28.91	47.04	0.0143	-0.3328	-0.4106	
0.005124	0.783606	0.532286	6.86	-32.48	45.15	0.0066	-0.3356	-0.4237	
0.040138	0.779214	0.50996	4.69	-32.76	45.29	-0.0129	-0.3423	-0.4182	
0.049776	0.803858	0.516914	5.67	-30.24	47.53	-0.0297	-0.3462	-0.4271	
0.066124	0.804468	0.497638	7.84	-36.54	48.02	-0.0359	-0.3412	-0.4126	
0.09455	0.814472	0.507398	5.67	-42.07	47.32	-0.0373	-0.3442	-0.417	
0.1098	0.827892	0.512278	3.78	-43.75	47.04	-0.0499	-0.3375	-0.4099	
0.146156	0.823134	0.507642	-2.52	-44.87	46.13	-0.0604	-0.3431	-0.4115	
0.18483	0.830088	0.510448	-4.13	-44.8	45.78	-0.0773	-0.3439	-0.416	
0.21167	0.833382	0.517768	-7.42	-44.8	45.5	-0.0774	-0.3393	-0.4116	
0.235338	0.837042	0.523258	-7.98	-44.17	45.22	-0.0872	-0.3298	-0.4174	
0.270962	0.829722	0.534726	-13.37	-41.44	45.15	-0.1039	-0.3304	-0.406	
0.292556	0.817522	0.52338	-16.31	-36.75	45.22	-0.1162	-0.3314	-0.4076	
0.315492	0.803492	0.518744	-16.31	-37.24	44.45	-0.1196	-0.3221	-0.4003	
0.333548	0.792756	0.530212	-17.08	-38.64	44.17	-0.1321	-0.3185	-0.4062	
0.345504	0.789706	0.543876	-14.28	-38.99	42.07	-0.1413	-0.3181	-0.4078	
0.368684	0.770064	0.529236	-13.3	-37.1	39.83	-0.1494	-0.307	-0.3976	
0.372588	0.76677	0.546926	-16.31	-39.55	38.15	-0.1606	-0.3005	-0.4078	
0.402844	0.752374	0.527528	-14.21	-36.19	37.24	-0.1576	-0.296	-0.3991	
0.401624	0.748958	0.538142	-20.37	-36.19	36.19	-0.182	-0.301	-0.4052	
0.427976	0.725168	0.508374	-23.73	-34.72	34.51	-0.1842	-0.2873	-0.4051	
0.418094	0.696498	0.496418	-23.87	-33.46	34.3	-0.181	-0.2905	-0.4065	
0.428464	0.686372	0.485194	-14.84	-37.8	32.83	-0.2057	-0.2846	-0.3922	
0.424926	0.69784	0.504348	-3.5	-42.63	30.45	-0.2123	-0.2737	-0.3951	
0.50752	0.655506	0.507886	-6.3	-48.37	26.11	-0.2112	-0.2678	-0.4023	
0.489708	0.67283	0.50264	-5.67	-45.08	28.7	-0.2244	-0.2792	-0.3938	
0.49959	0.652944	0.480802	-4.62	-44.24	29.12	-0.2404	-0.2633	-0.3866	
0.501664	0.675514	0.47519	1.19	-48.44	27.3	-0.2369	-0.271	-0.3867	
0.52216	0.676612	0.48251	3.29	-52.78	25.06	-0.2449	-0.2646	-0.3881	
0.558516	0.65697	0.485926	3.29	-52.22	24.57	-0.2591	-0.2547	-0.381	
0.584868	0.670512	0.487146	4.06	-53.06	23.8	-0.2682	-0.2542	-0.3709	
0.617808	0.670756	0.497638	1.19	-50.4	24.15	-0.2715	-0.2526	-0.3782	
0.62586	0.662582	0.48007	-7.84	-44.31	24.29	-0.2867	-0.2502	-0.3551	
0.632936	0.65941	0.46543	-12.39	-40.25	23.8	-0.2896	-0.2531	-0.3567	
0.650138	0.664778	0.458476	-10.36	-38.99	22.26	-0.2976	-0.2451	-0.3509	
0.665754	0.646844	0.4575	-5.39	-38.22	20.37	-0.2962	-0.2421	-0.3479	
0.682468	0.645502	0.447862	-7.21	-35.21	21	-0.3104	-0.2354	-0.3509	
0.68686	0.621834	0.435052	-11.34	-30.73	22.54	-0.3223	-0.2409	-0.3453	
0.674294	0.634156	0.416264	-9.03	-30.8	21.7	-0.3168	-0.2259	-0.3437	
0.691252	0.60756	0.39589	-10.29	-31.01	21.42	-0.3178	-0.2364	-0.3351	
0.677954	0.60573	0.37698	-13.16	-30.59	23.24	-0.3291	-0.2237	-0.3336	
0.674416	0.609268	0.376858	-12.95	-32.55	23.52	-0.3366	-0.2311	-0.3425	
0.683932	0.591212	0.387228	-4.62	-36.12	22.05	-0.3374	-0.2097	-0.3321	
0.685152	0.56791	0.368562	-2.24	-38.22	21	-0.3495	-0.2137	-0.3338	
0.690398	0.574742	0.368074	1.61	-40.11	20.86	-0.3592	-0.2025	-0.3251	
0.722606	0.5673	0.387716	0.28	-43.12	20.44	-0.3558	-0.2087	-0.3207	
0.74176	0.568886	0.393816	3.29	-41.37	20.02	-0.3669	-0.2006	-0.3193	
0.755302	0.580476	0.38064	-0.91	-34.93	21.42	-0.3724	-0.2124	-0.3123	
0.76616	0.583404	0.368074	-2.45	-28.07	22.54	-0.3728	-0.1986	-0.2962	
0.782996	0.570228	0.351116	-0.21	-24.57	20.58	-0.3742	-0.2015	-0.2934	
0.805322	0.556808	0.34282	-1.75	-20.02	20.44	-0.3791	-0.1969	-0.3021	
0.81191	0.546804	0.340136	-2.1	-17.71	20.23	-0.3887	-0.1872	-0.2934	
0.820694	0.554612	0.343918	-1.26	-16.17	18.48	-0.3906	-0.1795	-0.2933	
0.823134	0.560956	0.344162	-1.75	-13.09	17.01	-0.3842	-0.1828	-0.2875	
0.829234	0.56303	0.33428	5.39	-11.62	14.28	-0.3903	-0.1856	-0.2905	
0.826428	0.560346	0.3416	6.79	-8.47	13.3	-0.3947	-0.1884	-0.2848	
0.833748	0.550952	0.328912	7.63	-5.32	11.9	-0.4013	-0.179	-0.2862	
0.826062	0.552538	0.31964	3.01	-2.52	11.27	-0.3923	-0.1733	-0.2832	
0.80276	0.539972	0.304512	-1.12	-2.03	9.66	-0.3972	-0.1654	-0.2817	
0.789218	0.543876	0.293532	0.84	-0.21	8.33	-0.3847	-0.1737	-0.2918	
0.789828	0.539728	0.297924	2.31	-1.75	6.23	-0.3926	-0.1672	-0.2874	
0.79971	0.525088	0.312442	7.98	-3.29	3.43	-0.3938	-0.1748	-0.289	
0.799588	0.532042	0.31171	11.55	-3.43	1.47	-0.4062	-0.1727	-0.2876	
0.793976	0.518622	0.300242	8.19	-0.35	1.75	-0.4014	-0.1759	-0.2833	
0.79239	0.510204	0.292434	4.13	1.19	2.87	-0.4013	-0.179	-0.2848	
0.796538	0.520208	0.29036	4.9	-0.35	2.38	-0.3955	-0.1701	-0.2788	
0.801418	0.524356	0.286334	4.06	-0.56	2.17	-0.4031	-0.1712	-0.2775	
0.802882	0.529358	0.285968	1.96	-0.84	2.1	-0.3965	-0.1822	-0.2818	
0.801662	0.53619	0.283528	-0.98	-0.7	1.89	-0.4014	-0.1759	-0.2862	
0.803248	0.529724	0.287676	0.21	-0.14	1.05	-0.3952	-0.1793	-0.2919	
0.803858	0.52216	0.29036	2.31	-0.21	0.21	-0.3978	-0.1867	-0.2848	
0.8052	0.52277	0.28182	1.12	0.7	0.21	-0.3997	-0.179	-0.2804	
0.811056	0.524356	0.30683	2.38	-1.4	-0.56	-0.4031	-0.1728	-0.2862	
0.807396	0.522282	0.300852	0.49	0.84	-0.14	-0.3927	-0.1673	-0.2918	
0.812276	0.516426	0.285968	-3.15	3.99	0.98	-0.394	-0.1717	-0.289	
0.813618	0.522526	0.290482	-1.68	3.57	0.63	-0.3908	-0.1734	-0.2918	
0.808372	0.53253	0.291092	-1.4	2.87	-0.28	-0.4046	-0.1727	-0.2847	
0.80337	0.533628	0.302072	-1.96	2.73	-0.98	-0.4029	-0.179	-0.2935	
0.807518	0.533384	0.30134	-1.47	3.29	-2.03	-0.3909	-0.1719	-0.2947	
0.808494	0.526186	0.305122	-1.89	3.78	-2.87	-0.397	-0.1732	-0.2919	
0.811422	0.528748	0.304756	-2.38	4.76	-3.08	-0.3937	-0.1763	-0.2846	
0.813618	0.536312	0.310246	-6.16	4.97	-3.5	-0.3965	-0.1822	-0.2847	
0.819474	0.53863	0.320006	-7.7	5.88	-4.62	-0.397	-0.1731	-0.289	
0.82167	0.547536	0.330498	-8.12	6.23	-6.16	-0.4	-0.1761	-0.2934	
0.818986	0.54473	0.334036	-10.78	8.82	-6.86	-0.3923	-0.1749	-0.289	
0.820572	0.542778	0.325008	-13.58	11.97	-7.21	-0.3986	-0.1716	-0.2933	
0.818864	0.544974	0.332572	-13.16	12.11	-8.96	-0.3925	-0.1703	-0.2918	
0.813984	0.548268	0.34465	-12.25	12.95	-11.13	-0.3911	-0.1674	-0.2932	
0.807518	0.551806	0.355264	-11.48	14.63	-13.09	-0.3818	-0.1724	-0.299	
0.793732	0.547048	0.356606	-13.44	17.5	-14.56	-0.3849	-0.1708	-0.3004	
0.781166	0.54778	0.346724	-14.56	21.77	-15.75	-0.3771	-0.1742	-0.3018	
0.785436	0.551074	0.35319	-11.48	22.12	-18.2	-0.3892	-0.1813	-0.3122	
0.791292	0.55327	0.365146	-8.33	20.79	-22.12	-0.3692	-0.1822	-0.3134	
0.785558	0.549366	0.385398	-11.06	22.68	-23.1	-0.3645	-0.1824	-0.3047	
0.768844	0.542534	0.384422	-16.52	28.91	-22.12	-0.3757	-0.1759	-0.3163	
0.759328	0.552294	0.376858	-19.81	31.78	-21.35	-0.3675	-0.1853	-0.3091	
0.763354	0.560224	0.382592	-17.15	30.38	-23.52	-0.3585	-0.1844	-0.3263	
0.75274	0.565836	0.408944	-19.53	30.94	-23.94	-0.3615	-0.1858	-0.3278	
0.734928	0.577548	0.426878	-18.83	34.51	-25.55	-0.3491	-0.191	-0.3379	
0.721996	0.568276	0.415166	-17.92	37.31	-26.74	-0.3431	-0.1883	-0.3421	
0.712602	0.55022	0.41907	-16.45	37.17	-27.51	-0.3357	-0.1841	-0.3464	
0.701744	0.562786	0.45018	-9.66	34.23	-29.96	-0.3339	-0.1918	-0.3508	
0.696254	0.576084	0.476044	-6.65	34.79	-30.8	-0.331	-0.1889	-0.3536	
0.677832	0.597556	0.472506	-7.77	38.43	-30.94	-0.3217	-0.1909	-0.355	
0.662094	0.576694	0.4758	-11.41	43.19	-30.03	-0.3121	-0.199	-0.3593	
0.645624	0.575108	0.485316	-8.33	43.82	-30.45	-0.3057	-0.2054	-0.3636	
0.624274	0.591456	0.504958	-4.69	42.98	-32.48	-0.3105	-0.2053	-0.3767	
0.601094	0.60146	0.517402	-0.91	44.31	-34.65	-0.2965	-0.2074	-0.3693	
0.58194	0.591578	0.518622	-0.35	47.6	-35.07	-0.2949	-0.2106	-0.3809	
0.572424	0.607194	0.518256	1.68	47.88	-36.05	-0.273	-0.2192	-0.3793	
0.559614	0.61549	0.515694	2.59	45.29	-37.59	-0.2732	-0.2178	-0.3909	
0.540216	0.637694	0.527772	1.75	43.33	-39.27	-0.2668	-0.2241	-0.3938	
0.520818	0.647088	0.549	-0.77	42.28	-40.6	-0.253	-0.2232	-0.3922	
0.501664	0.654652	0.566324	0.49	44.03	-41.44	-0.2469	-0.2283	-0.4095	
0.492148	0.641476	0.569008	-0.07	45.71	-42.21	-0.2326	-0.2364	-0.4008	
0.481534	0.648308	0.57218	-0.28	46.27	-42.56	-0.2278	-0.2412	-0.4037	
0.457744	0.654652	0.588162	-0.21	45.64	-42.91	-0.2221	-0.2324	-0.4108	
0.41968	0.673074	0.594506	-2.1	47.04	-42.98	-0.212	-0.2511	-0.4065	
0.386984	0.68564	0.594384	-6.16	47.88	-43.89	-0.1875	-0.2523	-0.4207	
0.369904	0.691374	0.617198	-3.92	47.25	-46.55	-0.1876	-0.2492	-0.4149	
0.36295	0.674782	0.61305	-4.83	47.11	-48.72	-0.1798	-0.2527	-0.4221	
0.343918	0.661362	0.618418	-6.51	48.16	-48.37	-0.1645	-0.2518	-0.419	
0.31781	0.6527	0.63562	-4.62	48.16	-48.23	-0.1628	-0.255	-0.4219	
0.30012	0.644892	0.642818	3.08	48.23	-48.79	-0.1457	-0.2603	-0.4232	
0.233386	0.657336	0.64172	3.01	50.61	-47.81	-0.1375	-0.2729	-0.4276	
0.18666	0.668804	0.635742	2.1	50.96	-46.97	-0.1286	-0.2688	-0.4347	
0.148962	0.692838	0.638548	3.01	51.45	-46.13	-0.1178	-0.2693	-0.4346	
0.13542	0.697962	0.64904	-2.38	51.94	-45.5	-0.1009	-0.2686	-0.4329	
0.111142	0.69296	0.638426	-4.69	53.97	-43.75	-0.0896	-0.2828	-0.4402	
0.105286	0.697108	0.650504	0.35	48.37	-44.52	-0.0839	-0.2709	-0.4357	
0.100162	0.689788	0.658678	-6.44	51.45	-42.35	-0.0671	-0.2717	-0.4398	
0.07198	0.684298	0.65819	-8.33	54.32	-40.11	-0.0591	-0.2782	-0.4442	
0.05551	0.676246	0.66978	-9.1	55.79	-38.71	-0.0452	-0.2819	-0.4469	
0.012078	0.686372	0.673074	-3.57	57.82	-38.78	-0.0348	-0.2732	-0.4453	
-0.020252	0.671122	0.657214	2.31	55.23	-41.09	-0.0237	-0.2798	-0.4452	
-0.051606	0.6771	0.625982	19.53	50.68	-43.96	-0.013	-0.2771	-0.4364	
-0.074542	0.689666	0.60939	57.68	37.24	-50.75	-0.0033	-0.2898	-0.4408	
-0.09076799	0.740296	0.711504	35.49	46.69	-48.37	0.0072	-0.2857	-0.4392	
-0.135786	0.710772	0.629276	22.82	43.68	-49.98	0.0232	-0.2986	-0.4377	
-0.156892	0.726998	0.607072	29.82	44.17	-49.91	0.0275	-0.2927	-0.439	
-0.157624	0.710894	0.596824	19.88	51.03	-47.11	0.0429	-0.295	-0.4432	
-0.188856	0.721264	0.597434	19.25	50.05	-46.06	0.0542	-0.3045	-0.4345	
-0.20923	0.708942	0.598654	19.11	47.32	-46.55	0.0694	-0.3006	-0.4314	
-0.254492	0.70394	0.59841	20.16	43.19	-46.13	0.08199999	-0.3057	-0.4284	
-0.251808	0.724924	0.576206	20.93	39.2	-45.08	0.0866	-0.3075	-0.4356	
-0.292068	0.721752	0.563762	12.39	47.32	-41.37	0.1007	-0.3111	-0.4282	
-0.315858	0.719312	0.565592	11.2	46.69	-39.69	0.11	-0.313	-0.4267	
-0.334158	0.715774	0.561688	15.26	41.37	-38.92	0.127	-0.3153	-0.4251	
-0.361364	0.701134	0.544364	12.6	41.23	-37.87	0.1286	-0.3154	-0.4222	
-0.375638	0.699426	0.53863	12.32	41.93	-36.33	0.1393	-0.3159	-0.4235	
-0.402112	0.701988	0.512888	10.43	42.21	-35.07	0.1549	-0.3195	-0.4161	
-0.385032	0.716506	0.51972	13.09	39.76	-36.12	0.1655	-0.3154	-0.4145	
-0.425292	0.727852	0.518012	12.46	43.05	-35.77	0.1679	-0.2988	-0.41	
-0.4514	0.706624	0.51911	8.33	45.08	-35.07	0.1721	-0.3248	-0.4102	
-0.467138	0.704184	0.50569	5.88	43.26	-34.23	0.1864	-0.3283	-0.3855	
-0.477508	0.698206	0.485926	6.02	45.08	-34.44	0.2076	-0.3232	-0.3895	
-0.471164	0.683444	0.48678	6.02	45.01	-33.95	0.2137	-0.3236	-0.4011	
-0.480192	0.668804	0.484462	3.01	45.43	-33.25	0.2208	-0.3117	-0.3994	
-0.536922	0.69113	0.48129	7.14	46.13	-33.74	0.2327	-0.3032	-0.4021	
-0.584014	0.705526	0.460916	7.07	47.95	-35.21	0.2412	-0.3171	-0.3862	
-0.60207	0.691252	0.445666	8.47	44.38	-36.26	0.255	-0.3178	-0.389	
-0.602924	0.697352	0.440054	10.22	43.47	-35.77	0.2515	-0.3053	-0.3787	
-0.640256	0.701988	0.41785	9.8	41.86	-34.44	0.259	-0.3027	-0.3801	
-0.677344	0.69845	0.38491	8.05	36.82	-34.09	0.2747	-0.3094	-0.3756	
-0.701256	0.692716	0.373076	3.99	38.29	-34.65	0.2805	-0.3021	-0.3784	
-0.70028	0.675514	0.351116	1.82	36.33	-34.93	0.2929	-0.301	-0.3667	
-0.72102	0.658678	0.360754	1.75	31.57	-34.3	0.2925	-0.2934	-0.368	
-0.743346	0.663436	0.35868	2.59	22.75	-33.53	0.3015	-0.2893	-0.3708	
-0.742736	0.661728	0.335866	1.75	19.32	-31.71	0.3	-0.2877	-0.365	
-0.73017	0.636474	0.356606	0.91	13.72	-28.42	0.3077	-0.2895	-0.3635	
-0.72651	0.631106	0.357216	0.84	9.31	-25.9	0.3029	-0.2848	-0.3678	
-0.738466	0.621834	0.35563	-1.05	10.01	-23.38	0.3105	-0.282	-0.3619	
-0.73871	0.617076	0.364292	-1.89	9.87	-21.56	0.3182	-0.2839	-0.3619	
-0.725046	0.605974	0.371856	-0.7	6.37	-19.74	0.3136	-0.2821	-0.3561	
-0.712968	0.592798	0.381372	-0.14	5.11	-18.41	0.3136	-0.2821	-0.3561	
-0.731146	0.585966	0.37027	1.47	4.27	-16.87	0.3099	-0.2683	-0.3618	
-0.736148	0.595482	0.37698	0.63	3.99	-15.19	0.3212	-0.2779	-0.3502	
-0.744688	0.588284	0.373564	1.26	1.75	-13.09	0.3132	-0.2745	-0.3589	
-0.75274	0.586942	0.367342	1.61	1.12	-11.13	0.3257	-0.2781	-0.3574	
-0.757498	0.585966	0.370758	0.56	1.33	-9.17	0.3208	-0.2718	-0.3574	
-0.75396	0.579988	0.374662	0.91	0.63	-7.42	0.3257	-0.2766	-0.3559	
-0.757254	0.577426	0.37881	1.68	-1.54	-5.18	0.339	-0.2666	-0.3557	
-0.750666	0.57218	0.382226	1.96	-3.99	-3.36	0.3312	-0.2632	-0.3572	
-0.743468	0.569008	0.375882	2.73	-2.94	-2.17	0.3202	-0.2612	-0.3645	
-0.743712	0.57157	0.387594	2.66	-3.36	-0.7	0.3317	-0.2754	-0.3587	
-0.736636	0.57706	0.391254	1.96	-4.62	1.4	0.3223	-0.2735	-0.3646	
-0.73383	0.577182	0.378444	2.59	-4.9	2.87	0.3251	-0.266	-0.3616	
-0.740052	0.576938	0.381372	1.96	-5.32	3.92	0.3283	-0.2676	-0.3529	
-0.740174	0.575352	0.388082	2.59	-5.11	5.11	0.3146	-0.2685	-0.3516	
-0.742126	0.585966	0.385154	2.31	-4.9	6.02	0.3214	-0.2824	-0.3531	
-0.754936	0.595116	0.375882	2.52	-5.46	6.72	0.3151	-0.2823	-0.3648	
-0.737612	0.594506	0.3843	2.03	-8.33	8.05	0.3254	-0.2721	-0.3617	
-0.728218	0.594506	0.380884	1.96	-10.57	9.52	0.3229	-0.2841	-0.3604	
-0.735294	0.604266	0.375272	2.03	-9.45	10.15	0.315	-0.2807	-0.3633	
-0.724924	0.60634	0.388692	2.17	-9.45	11.13	0.306	-0.2833	-0.3562	
-0.720044	0.609878	0.384056	2.66	-11.2	11.97	0.3105	-0.2821	-0.3634	
-0.717238	0.610244	0.385154	2.31	-12.53	13.16	0.3026	-0.2818	-0.3751	
-0.70577	0.613538	0.39467	2.66	-12.6	14.28	0.3041	-0.2772	-0.3605	
-0.69662	0.617442	0.394304	3.43	-11.48	15.12	0.3103	-0.2806	-0.3706	
-0.695888	0.62098	0.39406	3.64	-10.64	16.52	0.2982	-0.2846	-0.3693	
-0.682468	0.62708	0.392352	3.08	-11.06	18.62	0.3019	-0.2953	-0.3593	
-0.677588	0.626226	0.392962	2.66	-10.71	19.53	0.2968	-0.2876	-0.3694	
-0.68076	0.629154	0.390522	3.08	-10.57	20.51	0.28	-0.2899	-0.3725	
-0.682712	0.63867	0.391742	2.73	-11.97	21.42	0.2956	-0.2936	-0.3666	
-0.662094	0.644526	0.399306	2.59	-13.02	22.05	0.2881	-0.2993	-0.371	
-0.656482	0.650016	0.39955	2.73	-13.23	22.82	0.2803	-0.296	-0.3725	
-0.64721	0.65209	0.401258	2.45	-14.28	23.45	0.2805	-0.3006	-0.3755	
-0.638548	0.659898	0.406138	2.94	-14.21	24.01	0.2777	-0.3065	-0.3741	
-0.621956	0.664412	0.414556	2.8	-14.84	24.71	0.2732	-0.3078	-0.3713	
-0.613416	0.670512	0.412116	2.73	-14.14	25.2	0.2606	-0.3042	-0.3786	
-0.61549	0.681126	0.410408	2.59	-14.49	25.55	0.2669	-0.3076	-0.3815	
-0.598288	0.679418	0.417362	2.94	-16.38	26.25	0.2576	-0.3056	-0.3787	
-0.574986	0.683322	0.421388	3.08	-16.66	26.81	0.2563	-0.3101	-0.3787	
-0.56974	0.692228	0.42517	2.45	-15.75	27.09	0.254	-0.3267	-0.3746	
-0.575596	0.700646	0.423828	1.75	-15.4	27.79	0.2536	-0.3175	-0.373	
-0.573766	0.715896	0.429196	1.47	-16.45	28.7	0.251	-0.3281	-0.3804	
-0.56425	0.722606	0.43066	1.19	-17.85	29.26	0.2465	-0.3325	-0.3877	
-0.542168	0.723338	0.425048	0.49	-18.97	29.68	0.2399	-0.3215	-0.3805	
-0.521306	0.729316	0.437492	1.54	-19.32	30.1	0.2402	-0.3276	-0.382	
-0.507764	0.733098	0.43676	0.35	-19.04	30.8	0.229	-0.3211	-0.3907	
-0.489342	0.73566	0.443592	0	-19.6	31.57	0.233	-0.3395	-0.3836	
-0.482876	0.739076	0.4453	-0.7	-18.97	32.69	0.2169	-0.3235	-0.3822	
-0.467016	0.74237	0.449326	-0.84	-18.62	33.39	0.2133	-0.3462	-0.3911	
-0.446398	0.743956	0.454694	-1.47	-18.34	34.16	0.2069	-0.3398	-0.3854	
-0.437126	0.753838	0.458232	-1.61	-16.94	34.93	0.1994	-0.3472	-0.3985	
-0.41968	0.757498	0.466406	-2.52	-16.52	35.84	0.2009	-0.3442	-0.3898	
-0.400282	0.766526	0.467504	-0.98	-15.82	36.89	0.1915	-0.3392	-0.3899	
-0.396012	0.774334	0.476044	-1.54	-15.33	37.03	0.1763	-0.3462	-0.4002	
-0.390156	0.782142	0.468358	-2.45	-14.21	37.03	0.1887	-0.3467	-0.3929	
-0.373808	0.787022	0.464088	-0.42	-15.12	37.17	0.1673	-0.3488	-0.396	
-0.360388	0.78751	0.470798	-3.22	-14.07	38.08	0.1672	-0.3457	-0.3916	
-0.354532	0.788852	0.476898	-4.48	-12.88	38.5	0.1579	-0.3453	-0.3975	
-0.349408	0.794586	0.47458	-4.62	-13.23	38.5	0.1554	-0.3573	-0.3977	
-0.332816	0.799588	0.472384	-2.94	-16.38	37.87	0.146	-0.3523	-0.3934	
-0.305732	0.806908	0.472384	-3.08	-17.15	37.31	0.1495	-0.3647	-0.4021	
-0.293288	0.81679	0.47702	-6.02	-14.42	38.43	0.1443	-0.3507	-0.3934	
-0.290848	0.82045	0.48373	-8.96	-13.16	38.64	0.1369	-0.3565	-0.3979	
-0.274744	0.816424	0.477752	-10.08	-14.56	38.36	0.1351	-0.3535	-0.4051	
-0.25681	0.814472	0.489708	-6.23	-17.08	37.45	0.1276	-0.3577	-0.4081	
-0.235582	0.81862	0.485804	-3.99	-18.55	36.82	0.1149	-0.3496	-0.414	
-0.220332	0.802882	0.487268	-5.46	-20.09	36.75	0.1044	-0.3552	-0.4112	
-0.205082	0.814594	0.495564	-3.15	-20.16	36.4	0.103	-0.355	-0.3982	
-0.186538	0.833016	0.513742	-2.03	-20.86	36.26	0.1047	-0.3597	-0.4084	
-0.174216	0.837164	0.49654	-3.5	-22.26	35.7	0.0938	-0.3577	-0.4099	
-0.160918	0.840214	0.505568	1.82	-23.87	34.09	0.0859	-0.3512	-0.4013	
-0.14335	0.839482	0.510448	2.8	-23.03	32.55	0.0845	-0.3573	-0.4129	
-0.1281	0.845826	0.51179	5.25	-23.17	31.5	0.0784	-0.3554	-0.4028	
-0.110532	0.842288	0.507032	4.69	-23.94	30.52	0.0541	-0.3604	-0.4046	
-0.093208	0.833382	0.50569	0.98	-21.42	30.8	0.0632	-0.3577	-0.4016	
-0.083814	0.83387	0.503006	2.87	-21.07	30.94	0.0541	-0.362	-0.409	
-0.06832	0.846802	0.498614	2.94	-22.12	30.24	0.0556	-0.3652	-0.4191	
-0.05307	0.855586	0.499956	4.27	-22.19	29.61	0.0356	-0.3596	-0.4077	
-0.03782	0.876082	0.493246	3.01	-21.77	29.05	0.0296	-0.3623	-0.402	
-0.033916	0.865712	0.493612	2.52	-22.54	29.05	0.0282	-0.3684	-0.4165	
-0.007564	0.850828	0.496662	2.1	-21	28.98	0.0249	-0.3606	-0.4064	
0.005246	0.855952	0.498126	2.24	-21.77	29.05	0.024	-0.3757	-0.4051	
0.01647	0.864004	0.498004	1.68	-20.72	28.84	0.0021	-0.3672	-0.4081	
0.027084	0.864736	0.503982	-0.28	-18.9	29.26	0.0112	-0.363	-0.4065	
0.046116	0.862662	0.499346	-1.05	-19.95	28.7	-0.0101	-0.3635	-0.3981	
0.061976	0.865956	0.499834	-1.75	-19.53	28.07	-0.0008	-0.367	-0.4024	
0.0671	0.868274	0.50081	-5.95	-19.25	27.16	-0.0117	-0.3634	-0.401	
0.09882	0.854854	0.492026	-7.28	-21.84	24.64	-0.0271	-0.3659	-0.4113	
0.120414	0.865956	0.50935	-4.34	-22.89	23.31	-0.0274	-0.3567	-0.404	
0.144692	0.862784	0.513254	-4.27	-20.44	22.68	-0.0316	-0.3656	-0.4027	
0.157624	0.859124	0.522892	-5.18	-16.45	22.68	-0.0271	-0.3627	-0.3997	
0.1708	0.85827	0.524966	-9.66	-11.9	22.82	-0.0444	-0.3559	-0.4071	
0.173728	0.856928	0.536434	-11.27	-8.19	22.05	-0.0425	-0.3621	-0.4042	
0.178974	0.853878	0.524112	-12.32	-5.18	21.21	-0.0522	-0.3525	-0.4057	
0.183976	0.85278	0.519964	-11.55	-4.97	19.81	-0.0446	-0.3514	-0.407	
0.190076	0.84912	0.517036	-10.43	-4.76	18.48	-0.0403	-0.344	-0.4098	
0.193614	0.843996	0.528626	-11.62	-3.5	17.99	-0.0554	-0.3509	-0.4115	
0.185806	0.847412	0.527772	-11.34	-2.52	17.22	-0.0492	-0.3512	-0.41	
0.18849	0.83875	0.535458	-9.94	-1.68	16.38	-0.0538	-0.3525	-0.4115	
0.191296	0.835944	0.541436	-7.21	-1.82	14.98	-0.0586	-0.3462	-0.4072	
0.174582	0.825818	0.53131	-13.65	-0.63	14.63	-0.062	-0.3384	-0.4013	
0.167994	0.825818	0.52887	-15.4	0.42	13.93	-0.0636	-0.3399	-0.4144	
0.16409	0.830942	0.535824	-14.77	-2.45	12.32	-0.0619	-0.3415	-0.4086	
0.160918	0.827648	0.547902	-12.11	-4.97	10.22	-0.0731	-0.3334	-0.4144	
0.160796	0.82594	0.551562	-11.34	-5.67	8.61	-0.0686	-0.3305	-0.41	
0.163968	0.826794	0.56059	-10.43	-6.93	6.51	-0.0765	-0.3272	-0.4188	
0.171898	0.827038	0.57035	-9.87	-7.42	4.41	-0.0763	-0.3302	-0.4101	
0.170068	0.825574	0.568032	-9.31	-7	2.31	-0.0752	-0.3243	-0.4202	
0.169702	0.826794	0.559126	-10.08	-6.51	0.63	-0.08329999	-0.3148	-0.4202	
0.17202	0.815814	0.56486	-10.64	-9.17	-1.68	-0.0755	-0.3166	-0.4172	
0.177754	0.815326	0.569862	-7.28	-9.1	-3.29	-0.0902	-0.3296	-0.4175	
0.189344	0.8052	0.579744	-7.28	-8.96	-4.83	-0.0829	-0.3224	-0.4217	
0.196298	0.794586	0.58316	-7.63	-9.52	-6.09	-0.07979999	-0.321	-0.4129	
0.19337	0.789706	0.58255	-7.63	-8.33	-6.37	-0.0799	-0.3226	-0.4216	
0.1952	0.779336	0.578402	-7.49	-7.98	-6.37	-0.08419999	-0.3284	-0.4188	
0.198494	0.775554	0.59109	-6.44	-7.35	-6.23	-0.08769999	-0.3192	-0.4217	
0.211548	0.781166	0.608658	-4.13	-7.84	-6.37	-0.0796	-0.3255	-0.413	
0.21167	0.775676	0.608902	-4.76	-4.62	-5.32	-0.0878	-0.3145	-0.4159	
0.208742	0.766038	0.599386	-5.67	-1.47	-3.99	-0.0816	-0.3179	-0.4173	
0.204228	0.764086	0.594384	-6.16	0.07	-2.24	-0.0804	-0.3119	-0.4244	
0.198616	0.76494	0.594506	-5.88	1.54	-0.49	-0.0847	-0.3162	-0.4173	
0.195444	0.7686	0.597922	-4.97	1.89	0.7	-0.08859999	-0.2993	-0.4186	
0.188124	0.774822	0.593774	-5.74	2.24	1.61	-0.0785	-0.318	-0.4187	
0.181536	0.784704	0.594384	-5.32	2.87	1.96	-0.0788	-0.312	-0.423	
0.178852	0.78507	0.60207	-2.73	2.8	1.47	-0.0772	-0.3136	-0.4215	
0.177266	0.776042	0.592676	-1.89	4.69	1.61	-0.0819	-0.3118	-0.4201	
0.174338	0.784826	0.592188	-1.89	5.39	1.68	-0.0791	-0.3059	-0.4186	
0.170434	0.790682	0.601094	-0.49	4.48	0.98	-0.0743	-0.3076	-0.4156	
0.171166	0.777872	0.582184	-0.35	5.74	0.84	-0.0817	-0.3148	-0.4187	
0.171166	0.772138	0.584502	-2.31	5.04	0.49	-0.0772	-0.3151	-0.4244	
0.16287	0.779824	0.590968	-1.82	3.64	0.07	-0.0807	-0.3058	-0.4244	
0.162992	0.781776	0.591334	-1.54	3.71	-0.14	-0.0869	-0.3056	-0.4302	
0.162626	0.781776	0.589504	-0.98	3.57	-0.28	-0.0729	-0.3093	-0.4316	
0.15982	0.785314	0.590968	-0.77	2.8	-0.84	-0.0799	-0.321	-0.4216	
0.156892	0.786046	0.59292	-1.33	2.38	-1.26	-0.0803	-0.3118	-0.4158	
0.153964	0.783972	0.58804	-2.1	1.89	-1.75	-0.0809	-0.3028	-0.4287	
0.1525	0.779092	0.592066	-2.17	1.05	-2.31	-0.0869	-0.304	-0.423	
0.150792	0.780922	0.591334	-1.54	0.7	-2.94	-0.0809	-0.2998	-0.4243	
0.152134	0.778116	0.595238	-1.26	0.35	-3.36	-0.0734	-0.2986	-0.4286	
0.152134	0.777628	0.594384	-1.33	-0.21	-3.5	-0.0684	-0.3064	-0.4243	
0.1525	0.779702	0.59414	-1.82	-0.77	-3.57	-0.07449999	-0.3092	-0.4316	
0.15372	0.77714	0.599874	-1.96	-1.26	-3.64	-0.0773	-0.312	-0.4215	
0.15372	0.777628	0.599142	-1.96	-1.47	-3.78	-0.0791	-0.3059	-0.4215	
0.152256	0.779214	0.597556	-1.68	-1.82	-4.13	-0.0852	-0.3056	-0.4172	
0.14884	0.77836	0.594628	-2.24	-1.75	-4.27	-0.0746	-0.3062	-0.4316	
0.147864	0.777994	0.598288	-2.73	-1.68	-4.34	-0.07449999	-0.3061	-0.4272	
0.146278	0.775798	0.594506	-2.38	-2.38	-4.76	-0.0711	-0.3155	-0.4331	
0.15006	0.776042	0.598288	-2.31	-3.15	-5.11	-0.0711	-0.3123	-0.4229	
0.15311	0.779458	0.60695	-1.33	-3.71	-5.32	-0.07	-0.308	-0.4388	
0.151158	0.780556	0.604876	-1.47	-2.94	-4.97	-0.0878	-0.3161	-0.4188	
0.147742	0.781532	0.596824	-2.52	-2.24	-4.9	-0.0735	-0.2971	-0.43	
0.145424	0.782508	0.595726	-3.08	-3.08	-5.32	-0.0777	-0.3029	-0.4229	
0.14152	0.776652	0.600118	-3.36	-2.94	-5.6	-0.0822	-0.3073	-0.4288	
0.142862	0.774212	0.602192	-3.22	-2.94	-5.95	-0.0744	-0.3092	-0.4301	
0.140544	0.77775	0.602802	-2.31	-4.27	-6.37	-0.0758	-0.309	-0.4186	
0.133956	0.778116	0.597434	-3.71	-4.62	-6.3	-0.0869	-0.3056	-0.4274	
0.136152	0.782142	0.608536	-3.85	-4.69	-6.37	-0.0687	-0.3004	-0.4286	
0.140788	0.776408	0.613416	-1.4	-5.11	-6.79	-0.0716	-0.3048	-0.4315	
0.153842	0.7625	0.612196	-0.42	-4.62	-6.79	-0.07	-0.3033	-0.4242	
0.154208	0.75518	0.61488	-0.28	-3.78	-6.02	-0.0759	-0.3107	-0.4302	
0.156648	0.759694	0.61305	0.63	-3.64	-5.11	-0.0775	-0.3075	-0.4229	
0.161406	0.757742	0.613294	-1.12	-2.8	-3.78	-0.0838	-0.3042	-0.4244	
0.153842	0.758718	0.610732	-2.59	-1.4	-2.45	-0.0775	-0.3091	-0.4316	
0.143106	0.76372	0.602192	-2.94	-0.77	-1.68	-0.0733	-0.3001	-0.4272	
0.143716	0.766648	0.60878	-1.4	-2.24	-1.33	-0.0775	-0.3075	-0.4258	
0.151158	0.768722	0.611952	-0.7	-2.24	-0.98	-0.0821	-0.312	-0.4389	
0.147376	0.768234	0.615368	-2.73	0	-0.21	-0.0746	-0.3062	-0.4301	
0.141032	0.770064	0.609268	-4.48	0.91	0.56	-0.0792	-0.306	-0.4302	
0.138836	0.767746	0.611464	-4.2	0.35	0.84	-0.076	-0.3076	-0.4301	
0.141764	0.766648	0.617808	-2.59	0.42	1.05	-0.0807	-0.3059	-0.4316	
0.142252	0.76982	0.614392	-2.59	0.14	0.84	-0.0796	-0.2937	-0.4185	
0.138592	0.772016	0.616832	-1.75	-0.14	0.63	-0.0761	-0.303	-0.4185	
