Sensor string: A
Serial number: 1970-01-0000
Firmware version: 2,015
Hardware version: 2,2
Calibration quality: 5
ax	ay	az	gx	gy	gz	mx	my	mz

0.036112	0.78629	0.609756	0.98	-0.49	-0.63	-0.0523	-0.3192	-0.4112	Reference
0.0366	0.785314	0.608292	0.49	-0.21	-0.49	-0.0509	-0.3146	-0.4082	
0.0366	0.786778	0.607682	0.56	-0.14	-0.49	-0.0427	-0.3241	-0.4039	
0.037332	0.784826	0.610122	1.19	-0.21	-0.42	-0.0518	-0.3267	-0.3996	
0.036234	0.784704	0.606584	0.84	0.07	-0.14	-0.0577	-0.3341	-0.407	
0.03721	0.785924	0.606706	0.7	0.14	-0.07	-0.0425	-0.3286	-0.4039	
0.036478	0.785802	0.60451	0.28	0.21	0.07	-0.0412	-0.3241	-0.4039	
0.035136	0.7869	0.60634	0.21	-0.14	0.14	-0.0395	-0.3289	-0.4126	
0.034038	0.792756	0.604388	0.77	-0.14	0.07	-0.035	-0.3244	-0.4038	
0.035746	0.788608	0.604266	0.28	0.42	0.21	-0.0487	-0.3268	-0.404	
0.039894	0.78934	0.598776	-1.19	0.49	0.49	-0.0507	-0.3192	-0.4097	
0.034526	0.801418	0.601704	0.07	-1.05	0.21	-0.0444	-0.321	-0.4039	
0.029036	0.80337	0.606096	0.84	-0.63	0.21	-0.0504	-0.3253	-0.4054	
0.032208	0.794586	0.600118	-1.19	1.05	0.56	-0.046	-0.321	-0.4111	
0.035868	0.791414	0.594506	-1.54	1.19	0.56	-0.0459	-0.3209	-0.4039	
0.03721	0.79239	0.596824	-0.28	0.35	0.63	-0.0571	-0.3128	-0.4039	
0.036966	0.79056	0.5978	-0.91	0.21	1.26	-0.0616	-0.3156	-0.4054	
0.03294	0.795928	0.59841	-1.19	-0.42	1.19	-0.0461	-0.3163	-0.3995	
0.032574	0.798368	0.604022	-1.4	-0.35	0.91	-0.0509	-0.3162	-0.4111	
0.03294	0.79361	0.603778	-2.03	0.28	0.77	-0.0503	-0.3268	-0.4098	
0.031354	0.789218	0.604754	-1.54	0.28	0.56	-0.0528	-0.307	-0.4096	
0.032574	0.787144	0.609146	-0.21	0	0.21	-0.0505	-0.3207	-0.4025	
0.034404	0.785558	0.609024	-0.35	-0.07	0.14	-0.0444	-0.321	-0.4068	
0.035258	0.78141	0.608658	-1.33	0.07	0	-0.0471	-0.3284	-0.4011	
0.033184	0.784826	0.612806	0.7	-0.28	-0.21	-0.058	-0.328	-0.4113	
0.031842	0.777872	0.615734	0.84	-0.07	-0.21	-0.0505	-0.3254	-0.4156	
0.038552	0.777994	0.609878	-0.21	0.35	-0.21	-0.0536	-0.322	-0.4025	
0.039772	0.780068	0.611708	0.63	-0.35	-0.42	-0.0487	-0.3283	-0.4025	
0.040504	0.778848	0.610366	-0.07	-0.42	-0.07	-0.0505	-0.3238	-0.4083	
0.036966	0.7808	0.611586	1.05	-0.56	0	-0.0507	-0.3192	-0.4054	
0.037698	0.782996	0.611098	0.91	-0.21	-0.21	-0.0492	-0.3146	-0.3937	
0.036966	0.783362	0.611708	1.05	-0.07	-0.28	-0.0427	-0.324	-0.3995	
0.040016	0.783362	0.610122	1.26	-0.07	-0.35	-0.0487	-0.3252	-0.3967	
0.039894	0.783728	0.609512	1.26	-0.14	-0.35	-0.0411	-0.3272	-0.4068	
0.039528	0.786412	0.610488	1.19	-0.14	-0.14	-0.0487	-0.3268	-0.4025	
0.040382	0.785436	0.608536	0.63	0.28	0.07	-0.0444	-0.321	-0.4039	
0.037332	0.787876	0.607316	0.49	0.49	0.21	-0.0505	-0.3222	-0.4025	
0.036112	0.791414	0.60512	0.28	0.63	0.35	-0.0503	-0.3268	-0.404	
0.034648	0.792146	0.602802	0.28	0.7	0.35	-0.0488	-0.3253	-0.3996	
0.034282	0.794464	0.601704	0	0.84	0.35	-0.049	-0.3223	-0.4054	
0.03111	0.798856	0.599874	-0.07	0.7	0.21	-0.0502	-0.3267	-0.3982	
0.030866	0.795684	0.598288	0.07	0.7	0.28	-0.0489	-0.3238	-0.4068	
0.030622	0.795806	0.594384	-0.56	1.12	0.42	-0.0352	-0.3198	-0.4023	
0.027694	0.799588	0.592432	-0.28	0.28	0.42	-0.0461	-0.3178	-0.4024	
0.027206	0.801052	0.591578	-0.56	-0.07	0.42	-0.0537	-0.3174	-0.3981	
0.028426	0.79849	0.590846	-1.47	-0.21	0.56	-0.0445	-0.3163	-0.3951	
0.02501	0.803248	0.591578	-0.28	-0.84	0.49	-0.0566	-0.3235	-0.4084	
0.027084	0.80337	0.59658	0.91	-0.91	0.7	-0.0521	-0.3206	-0.401	
0.033062	0.798856	0.604998	2.52	-0.35	1.05	-0.0556	-0.3129	-0.4082	
0.027572	0.812886	0.632936	13.93	-1.82	1.19	-0.0412	-0.3226	-0.4024	
0.027084	0.85095	0.627202	25.06	0.28	2.66	-0.0424	-0.3317	-0.4054	
0.00305	0.812154	0.569374	18.55	4.9	5.11	-0.0454	-0.3299	-0.3924	
0.019032	0.80398	0.500932	-1.47	5.04	5.67	-0.0501	-0.3282	-0.3953	
0.060024	0.795318	0.537776	0.42	-3.29	3.08	-0.0511	-0.3403	-0.3954	
0.052094	0.801174	0.549366	-5.32	-4.83	3.29	-0.0472	-0.3269	-0.3996	
0.04514	0.827526	0.555466	-5.11	-6.23	5.04	-0.0531	-0.3327	-0.4055	
0.048434	0.848266	0.578646	-9.17	-4.34	8.82	-0.0579	-0.3279	-0.4026	
0.03111	0.86315	0.572546	-13.93	-2.38	10.01	-0.0547	-0.3296	-0.4026	
0.033184	0.873032	0.554856	-16.8	-1.26	9.73	-0.0503	-0.3252	-0.3967	
0.038552	0.842532	0.544974	-23.73	-1.54	8.19	-0.0505	-0.319	-0.3909	
0.048434	0.828624	0.546926	-24.64	-1.89	7	-0.0493	-0.3162	-0.4097	
0.063074	0.850584	0.533506	-41.23	-14.35	7.42	-0.0619	-0.308	-0.4068	
0.02074	0.841312	0.555466	-20.16	-19.95	-0.21	-0.0684	-0.3032	-0.4126	
0.048678	0.827648	0.592676	-28.28	-1.82	6.86	-0.0699	-0.3016	-0.4069	
0.051362	0.827404	0.533872	-37.03	8.05	10.08	-0.0578	-0.3008	-0.4197	
0.04026	0.836188	0.566446	-31.71	-2.45	7.56	-0.0637	-0.3034	-0.4111	
0.049044	0.829234	0.560346	-36.12	-4.13	5.53	-0.0646	-0.2883	-0.424	
0.060024	0.814838	0.585356	-32.2	-2.59	6.93	-0.0692	-0.285	-0.411	
0.060024	0.807274	0.580598	-40.32	1.75	9.17	-0.0772	-0.2786	-0.4154	
0.069662	0.776042	0.584258	-43.68	-2.03	6.3	-0.0656	-0.2655	-0.4209	
0.066002	0.7686	0.604998	-44.45	-3.08	6.37	-0.07319999	-0.2682	-0.4283	
0.069784	0.75152	0.615246	-51.24	-0.84	7.49	-0.0704	-0.2623	-0.4282	
0.069662	0.7259	0.624518	-57.33	-2.94	7.91	-0.0731	-0.2379	-0.428	
0.066856	0.725412	0.631472	-55.16	-4.97	7.35	-0.07759999	-0.2408	-0.4324	
0.072834	0.708454	0.63562	-56.63	-2.66	8.33	-0.0719	-0.2335	-0.4366	
0.0671	0.67954	0.629764	-62.72	-0.98	9.52	-0.0739	-0.2227	-0.4337	
0.071858	0.67344	0.66185	-56.56	-2.8	10.01	-0.0695	-0.2184	-0.4408	
0.09577	0.652944	0.681614	-56.63	-3.57	7.84	-0.0697	-0.2154	-0.4451	
0.062464	0.625372	0.691374	-63.21	-6.3	9.59	-0.07229999	-0.1925	-0.4464	
0.076128	0.61854	0.688934	-62.93	-7	8.68	-0.0832	-0.1874	-0.4334	
0.041114	0.56852	0.675514	-72.8	-2.52	9.31	-0.0975	-0.1792	-0.4436	
0.054534	0.533018	0.687836	-67.62	-4.41	8.33	-0.091	-0.1522	-0.4433	
0.093208	0.510936	0.719434	-64.26	-7.49	6.79	-0.07889999	-0.1497	-0.4461	
0.072346	0.504104	0.748226	-61.88	-11.27	7.56	-0.0897	-0.1477	-0.4433	
0.071126	0.50935	0.75945	-69.3	-12.53	7.28	-0.0859	-0.1296	-0.4401	
0.091378	0.500444	0.810568	-61.95	-17.08	3.57	-0.0895	-0.1188	-0.4415	
0.12566	0.452254	0.80886	-75.39	-15.26	1.75	-0.1039	-0.106	-0.4416	
0.142984	0.380762	0.824354	-74.97	-13.37	-1.26	-0.0924	-0.08989999	-0.4471	
0.174094	0.318176	0.848266	-75.32	-14.84	-2.1	-0.1091	-0.09209999	-0.4386	
0.187636	0.263154	0.86315	-74.97	-12.81	0.42	-0.1082	-0.0784	-0.4399	
0.17995	0.221796	0.860954	-76.58	-11.83	4.55	-0.1135	-0.063	-0.4369	
0.209962	0.18117	0.872422	-74.13	-11.97	5.04	-0.1032	-0.0544	-0.4382	
0.205692	0.178974	0.88694	-70.98	-9.38	6.86	-0.1161	-0.0385	-0.4353	
0.172874	0.177754	0.884988	-67.76	-9.59	5.88	-0.1164	-0.034	-0.4352	
0.17263	0.149816	0.887306	-65.59	-11.34	2.31	-0.1139	-0.022	-0.4394	
0.202642	0.117852	0.905118	-56	-8.4	-1.89	-0.1222	-0.0063	-0.4321	
0.186416	0.06039	0.891698	-55.86	-5.53	-3.5	-0.1271	0.0014	-0.4292	
0.188246	0.022448	0.911584	-52.99	-9.94	-5.74	-0.1182	0.008599999	-0.4233	
0.197518	-0.012322	0.930616	-50.75	-13.23	-6.72	-0.1137	0.0099	-0.4261	
0.199714	-0.040382	0.921222	-55.09	-13.16	-5.95	-0.1233	0.021	-0.4217	
0.228506	-0.068442	0.937692	-53.9	-12.39	-6.02	-0.1176	0.0315	-0.4187	
0.213622	-0.087718	0.934276	-54.32	-14.42	-6.09	-0.1305	0.0458	-0.4143	
0.197396	-0.072346	0.947818	-55.65	-13.44	-4.06	-0.1415	0.0508	-0.4144	
0.252052	-0.080886	0.957944	-58.45	-12.46	-4.9	-0.1383	0.0492	-0.4115	
0.241926	-0.112118	0.98942	-58.66	-12.6	-6.02	-0.1346	0.06879999	-0.4113	
0.257786	-0.127002	1.004792	-56.63	-11.48	-7.07	-0.1424	0.0738	-0.3997	
0.277794	-0.148962	1.037244	-49.07	-13.44	-6.51	-0.1491	0.0879	-0.3881	
0.275232	-0.16165	1.051274	-47.18	-12.04	-5.74	-0.1466	0.0998	-0.3937	
0.282674	-0.171288	1.034926	-44.73	-10.71	-3.71	-0.1542	0.09869999	-0.388	
0.288408	-0.167994	1.048834	-40.6	-8.96	-4.06	-0.1544	0.1033	-0.3909	
0.28121	-0.170068	1.015894	-39.9	-8.61	-3.64	-0.1561	0.1096	-0.3764	
0.284016	-0.184342	1.0004	-37.45	-7.28	-5.46	-0.1518	0.117	-0.3777	
0.284138	-0.206058	1.005524	-35.56	-9.1	-6.72	-0.1535	0.1201	-0.3762	
0.274012	-0.210328	0.989298	-34.65	-9.1	-5.53	-0.1583	0.1249	-0.3748	
0.252784	-0.226066	0.992348	-32.76	-9.24	-3.64	-0.163	0.1298	-0.3618	
0.286212	-0.224846	0.996984	-28.35	-11.06	-1.54	-0.1648	0.1359	-0.3632	
0.25437	-0.20557	0.978928	-26.95	-12.88	1.19	-0.1571	0.134	-0.3631	
0.289384	-0.254614	0.972706	-23.73	-12.11	0.98	-0.1588	0.1387	-0.3616	
0.437004	-0.308904	1.07299	-17.01	-45.57	26.81	-0.1729	0.1454	-0.3603	
0.311588	-0.253516	0.963312	-23.87	-7	3.64	-0.1731	0.1516	-0.3544	
0.314638	-0.238388	0.971486	-20.51	-8.19	3.71	-0.164	0.1574	-0.3412	
0.333426	-0.248148	0.978196	-19.04	-7.21	2.24	-0.1735	0.1607	-0.3529	
0.335622	-0.264374	0.987468	-16.38	-7.77	2.52	-0.1733	0.1562	-0.3486	
0.32635	-0.267058	0.9943	-13.44	-7.98	3.43	-0.1793	0.155	-0.3472	
0.344528	-0.277184	1.001864	-8.89	-7.28	2.45	-0.1738	0.1684	-0.3427	
0.345016	-0.292922	1.007842	-6.16	-6.65	2.52	-0.176	0.1487	-0.3487	
0.35929	-0.300974	1.008086	-2.38	-4.13	1.68	-0.1749	0.1609	-0.3413	
0.373808	-0.302194	1.01992	1.26	-4.48	1.89	-0.175	0.1609	-0.3442	
0.370148	-0.300364	1.022848	3.22	-2.31	1.68	-0.1763	0.1548	-0.353	
0.37271	-0.315858	1.017236	6.44	-0.42	1.4	-0.1685	0.153	-0.3442	
0.378566	-0.316346	1.025898	10.92	-0.49	1.61	-0.1761	0.1534	-0.3371	
0.37576	-0.31476	1.032974	15.33	0.21	1.82	-0.1715	0.1515	-0.3515	
0.37088	-0.30927	1.021628	21.56	1.19	0.49	-0.173	0.1501	-0.353	
0.373076	-0.31476	1.02358	25.83	0.98	0.14	-0.181	0.155	-0.3545	
0.377102	-0.305854	1.02907	30.03	0.84	-0.14	-0.1824	0.1551	-0.3487	
0.377224	-0.284992	1.02541	32.76	1.61	-0.56	-0.179	0.1442	-0.3575	
0.37271	-0.281332	1.031876	34.58	3.36	-0.07	-0.165	0.1421	-0.3573	
0.371002	-0.28365	1.035292	39.41	2.8	-0.28	-0.1634	0.1405	-0.3544	
0.366732	-0.26901	1.026264	42.77	5.11	0.21	-0.18	0.132	-0.3648	
0.356362	-0.246806	1.015406	44.45	7.84	-0.42	-0.1706	0.127	-0.3691	
0.35136	-0.226798	1.016504	48.37	8.75	-2.38	-0.1798	0.1243	-0.375	
0.349774	-0.224724	1.010404	50.54	10.29	-3.78	-0.1748	0.115	-0.3765	
0.343186	-0.215818	1.007842	54.39	9.87	-4.27	-0.1802	0.09999999	-0.3782	
0.332938	-0.18239	1.029558	59.78	11.48	-4.97	-0.1588	0.099	-0.3866	
0.332328	-0.183244	1.011746	61.04	10.99	-6.44	-0.1628	0.0839	-0.3941	
0.320982	-0.156282	0.990518	65.45	12.6	-5.46	-0.1506	0.08639999	-0.391	
0.300364	-0.119316	0.97966	68.39	12.04	-6.23	-0.1701	0.0751	-0.3971	
0.30195	-0.112606	0.965508	70.91	12.18	-7.49	-0.1561	0.0713	-0.4013	
0.282186	-0.06283	0.946842	71.68	14.98	-5.67	-0.1538	0.0514	-0.4073	
0.268034	-0.03355	0.922686	71.26	14.07	-6.86	-0.1564	0.0425	-0.4031	
0.261934	-0.010492	0.915	68.11	15.05	-6.93	-0.1494	0.0208	-0.4177	
0.240706	0.015616	0.880352	64.05	17.78	-4.27	-0.1526	0.024	-0.4148	
0.221064	0.043188	0.865346	63.91	15.89	-3.36	-0.1463	0.019	-0.4235	
0.22387	0.09076799	0.860832	64.33	14.35	-2.45	-0.1484	-0.0005	-0.4193	
0.200202	0.142984	0.855098	63.84	14.77	-0.7	-0.1449	-0.009699999	-0.4165	
0.181292	0.167262	0.839482	60.55	16.03	1.89	-0.1385	-0.0192	-0.4281	
0.190076	0.198738	0.815326	64.47	11.83	-2.94	-0.1395	-0.0298	-0.4311	
0.177754	0.235826	0.795318	67.62	14.07	-3.22	-0.1294	-0.0501	-0.4341	
0.153354	0.258396	0.764208	69.51	13.51	-3.01	-0.1277	-0.0563	-0.4385	
0.137494	0.300974	0.73444	73.43	9.31	-6.44	-0.1302	-0.0683	-0.4415	
0.108214	0.362462	0.72041	79.73	4.76	-10.71	-0.1231	-0.09	-0.4445	
0.12932	0.411506	0.71919	86.1	4.06	-13.02	-0.132	-0.09559999	-0.4432	
0.103822	0.445666	0.705282	81.27	3.43	-15.12	-0.1251	-0.1111	-0.439	
0.108702	0.484828	0.706136	86.59	4.76	-16.66	-0.1122	-0.1254	-0.4418	
0.100894	0.50691	0.722606	86.73	5.46	-18.27	-0.1223	-0.1385	-0.4392	
0.108336	0.55022	0.712846	83.79	10.29	-16.1	-0.1293	-0.155	-0.4438	
0.097356	0.565958	0.71675	78.75	14.42	-16.31	-0.1115	-0.1708	-0.4307	
0.08686399	0.600972	0.71614	77	14.35	-17.22	-0.1141	-0.1829	-0.4366	
0.07905599	0.637816	0.698694	74.2	15.4	-19.39	-0.1062	-0.1863	-0.4337	
0.093086	0.640744	0.68381	66.22	19.74	-18.27	-0.1025	-0.2017	-0.4367	
0.103334	0.657214	0.665022	62.44	20.44	-17.85	-0.1001	-0.2184	-0.4281	
0.110776	0.671854	0.63928	55.58	22.19	-16.38	-0.0894	-0.219	-0.4367	
0.090524	0.70272	0.624884	55.37	22.12	-14.28	-0.09	-0.2387	-0.434	
0.039406	0.714066	0.611586	47.81	23.87	-11.97	-0.0852	-0.2419	-0.4267	
0.060878	0.724314	0.607804	49.84	22.47	-12.53	-0.0756	-0.2499	-0.431	
0.056486	0.758352	0.602192	53.34	21.21	-13.16	-0.0786	-0.2513	-0.4253	
0.05917	0.759206	0.584258	48.16	18.48	-13.65	-0.0698	-0.2745	-0.4254	
0.022692	0.768966	0.598532	47.88	17.15	-10.43	-0.0655	-0.2686	-0.4268	
0.026108	0.780922	0.580842	41.37	21.42	-9.94	-0.0684	-0.2714	-0.4196	
0.025986	0.778726	0.568276	34.44	21.56	-7.49	-0.0552	-0.2887	-0.4153	
0.02318	0.768234	0.585966	34.02	19.88	-7.56	-0.0489	-0.292	-0.4152	
0.009881999	0.773968	0.596214	34.02	22.89	-6.79	-0.0493	-0.2844	-0.4166	
0.016714	0.808372	0.585112	35.91	20.09	-5.18	-0.0427	-0.2953	-0.4166	
-0.007198	0.776896	0.549488	27.16	22.26	-5.11	-0.0379	-0.2986	-0.4152	
-0.00976	0.812764	0.565104	42.42	16.31	-6.02	-0.0357	-0.3092	-0.4022	
-0.005124	0.820084	0.55388	40.39	16.38	-8.47	-0.0399	-0.3197	-0.4081	
-0.012566	0.823622	0.571326	33.88	17.5	-6.44	-0.037	-0.3168	-0.4081	
-0.02074	0.823744	0.536434	31.57	16.17	-6.3	-0.0223	-0.3341	-0.4066	
-0.02684	0.822768	0.532896	34.23	13.93	-7.14	-0.0286	-0.3324	-0.4081	
-0.028914	0.82777	0.512644	32.69	12.39	-7.21	-0.027	-0.3324	-0.4023	
-0.031842	0.822768	0.512888	33.88	9.87	-8.12	-0.0111	-0.3422	-0.3979	
-0.045384	0.826672	0.50569	34.44	6.37	-5.81	-0.0202	-0.3448	-0.3966	
-0.033184	0.833748	0.50935	33.81	7.14	-5.74	0	-0.3502	-0.395	
-0.017202	0.851316	0.537166	38.64	7	-5.88	-0.0121	-0.3527	-0.3937	
-0.059292	0.88206	0.468358	24.22	10.36	-3.78	-0.0177	-0.3646	-0.3953	
-0.098332	0.874618	0.475434	28.56	4.41	-4.9	-0.0084	-0.3634	-0.385	
-0.062464	0.85522	0.496052	31.29	3.78	-5.6	-0.0018	-0.3728	-0.3822	
-0.066124	0.855586	0.479216	23.87	3.85	-2.87	0.0026	-0.3746	-0.3923	
-0.022936	0.86559	0.480802	27.65	2.38	-1.54	0.0046	-0.3791	-0.3764	
-0.026718	0.88206	0.488976	28.21	1.96	-2.31	-0.0148	-0.3904	-0.3781	
-0.037576	0.877302	0.48983	28.63	-1.4	-5.04	0.003	-0.3775	-0.3691	
-0.052338	0.906826	0.481168	36.61	-4.97	-6.93	-0.0005	-0.397	-0.3664	
-0.072712	0.893528	0.475678	25.76	-2.17	-5.18	0.005	-0.3882	-0.375	
-0.06283	0.891942	0.465308	24.99	-2.03	-5.67	-0.0023	-0.3939	-0.3722	
-0.060146	0.8967	0.451644	16.03	-1.54	-3.29	0.0041	-0.4003	-0.3708	
-0.050142	0.893406	0.43798	14.56	-2.38	-2.8	0.0102	-0.4006	-0.3693	
-0.035014	0.90951	0.448594	19.04	-6.44	-6.86	-0.0021	-0.3985	-0.3708	
-0.058438	0.90585	0.44042	17.71	-8.33	-8.89	0.0013	-0.4062	-0.3694	
-0.072712	0.919758	0.414312	14.07	-7.21	-8.54	-0.0048	-0.4044	-0.3651	
-0.063318	0.916952	0.398574	8.82	-8.89	-7.77	0.0093	-0.4111	-0.3636	
-0.061244	0.92537	0.40504	11.48	-10.57	-8.33	-0.0019	-0.4015	-0.3708	
-0.047336	0.966606	0.400526	17.5	-13.16	-10.01	-0.0001	-0.4061	-0.3636	
-0.07905599	0.95953	0.408456	12.67	-11.41	-10.57	-0.0014	-0.409	-0.3593	
-0.093696	0.951112	0.396378	7.14	-5.88	-6.79	0.0005	-0.4182	-0.3521	
-0.111752	0.946842	0.371856	-2.52	-3.01	-2.1	-0.0074	-0.4118	-0.3536	
-0.082838	0.947696	0.396134	-2.03	-0.21	1.26	-0.0025	-0.4196	-0.3565	
-0.072712	0.953674	0.391498	-1.05	-2.03	0.98	-0.0026	-0.415	-0.3522	
-0.068808	0.935984	0.407968	-4.27	-0.35	1.96	0.0036	-0.4183	-0.3536	
-0.064538	0.93391	0.410164	0.63	-0.63	0.28	0.0019	-0.4168	-0.355	
-0.080276	0.948062	0.398208	5.32	-2.45	-1.61	-0.0046	-0.4058	-0.3535	
-0.080886	0.955016	0.39955	5.18	-1.89	-2.17	-0.0009999999	-0.4166	-0.3507	
-0.07991	0.95221	0.400404	4.55	-3.01	-3.99	0.0036	-0.4199	-0.3536	
-0.083814	0.933178	0.401258	-0.21	-2.38	-4.34	-0.0166	-0.4129	-0.3566	
-0.07869	0.9272	0.39528	-0.42	-4.2	-5.32	0.0014	-0.4061	-0.3549	
-0.068686	0.9394	0.395524	2.94	-7.91	-6.79	-0.0009999999	-0.4166	-0.3522	
-0.07259	0.919392	0.394914	-0.56	-8.19	-5.6	-0.0009999999	-0.4166	-0.3522	
-0.072468	0.924638	0.398452	-2.38	-5.95	-3.22	-0.0024	-0.4211	-0.3537	
-0.077958	0.937082	0.390034	-2.31	-5.11	-2.1	-0.0024	-0.4211	-0.3537	
-0.069662	0.934276	0.39833	-4.62	-3.57	-0.7	-0.0132	-0.4191	-0.3538	
-0.075762	0.925492	0.408334	-6.23	-1.96	0.63	-0.0059	-0.4087	-0.3478	
-0.080154	0.928298	0.402112	-6.93	-1.89	1.89	-0.0059	-0.4087	-0.3478	
-0.074542	0.94428	0.401136	-5.6	-2.8	2.1	-0.0092	-0.4087	-0.3652	
-0.083692	0.946842	0.41419	-8.82	-0.84	3.85	0.0013	-0.4046	-0.3593	
-0.091012	0.939156	0.41358	-11.9	0.98	5.6	-0.0075	-0.4118	-0.3594	
-0.07124799	0.94611	0.421022	-14.21	1.89	6.02	-0.0059	-0.4118	-0.3551	
-0.066734	0.93696	0.428098	-14.56	1.54	5.88	-0.0077	-0.4073	-0.3608	
-0.066368	0.930128	0.431392	-16.8	1.47	7.07	-0.0074	-0.4149	-0.3696	
-0.058072	0.935008	0.43005	-17.92	0.56	7.98	-0.0035	-0.3999	-0.3651	
-0.057706	0.93086	0.431758	-21.7	0.56	9.24	-0.0114	-0.3966	-0.3724	
-0.063318	0.951112	0.44774	-19.88	0.14	9.1	-0.0143	-0.3995	-0.371	
-0.07076	0.984784	0.464942	-19.81	1.75	7.98	-0.0222	-0.393	-0.3666	
-0.091134	0.981978	0.47092	-19.67	3.29	6.58	-0.0128	-0.3964	-0.3651	
-0.133102	0.99491	0.479094	-22.12	5.95	7.49	-0.0257	-0.3868	-0.3724	
-0.09333	0.931104	0.443836	-14	-1.12	-3.15	-0.0134	-0.3874	-0.3752	
-0.063806	0.93696	0.503616	-8.26	-5.04	1.89	-0.0211	-0.387	-0.3753	
-0.009393999	0.909266	0.468968	-24.5	1.19	6.02	-0.0195	-0.3871	-0.3724	
-0.015738	0.871934	0.48129	-34.09	4.48	9.31	-0.0137	-0.3814	-0.3838	
-0.022082	0.868396	0.484096	-21.21	1.47	8.4	-0.0168	-0.3812	-0.381	
-0.037454	0.888404	0.469944	-18.2	-0.63	8.19	-0.0169	-0.3781	-0.378	
-0.02867	0.910852	0.45933	-26.88	2.03	12.39	-0.0186	-0.3782	-0.3911	
-0.021228	0.908534	0.465674	-42.07	3.01	16.8	-0.0251	-0.3688	-0.3882	
-0.023546	0.881206	0.535946	-53.27	-0.35	17.43	-0.0177	-0.363	-0.3866	
0.006344	0.825208	0.556198	-54.74	-10.85	10.57	-0.0245	-0.3506	-0.3923	
0.01159	0.84546	0.531432	-58.87	-14.56	13.86	-0.0279	-0.346	-0.401	
-0.008905999	0.82899	0.523502	-55.72	-19.11	10.15	-0.0346	-0.3351	-0.4068	
-0.04148	0.833992	0.489098	-39.06	-20.37	8.12	-0.0363	-0.332	-0.4068	
0.026108	0.792634	0.537288	-24.5	-24.15	7.84	-0.0337	-0.3184	-0.3994	
0.01952	0.806298	0.5856	-27.44	-23.31	13.23	-0.0554	-0.3175	-0.4097	
0.062952	0.81923	0.552172	-42.21	-12.67	16.03	-0.057	-0.3175	-0.4155	
0.002196	0.818132	0.549854	-35.14	-11.48	16.31	-0.0573	-0.3099	-0.4155	
-0.06734399	0.833626	0.537776	-28.42	-15.75	11.06	-0.056	-0.3038	-0.4111	
-0.013542	0.785924	0.541924	-34.72	-13.72	11.34	-0.0652	-0.3049	-0.4097	
-0.008052	0.785436	0.51362	-36.4	-6.23	16.24	-0.0677	-0.2866	-0.4197	
-0.005124	0.756888	0.542412	-25.34	-10.85	13.72	-0.0691	-0.2897	-0.4256	
0.02745	0.762622	0.569984	-24.78	-17.92	10.01	-0.07099999	-0.282	-0.427	
0.114558	0.769332	0.567056	-42.49	-5.67	14.98	-0.0709	-0.2819	-0.4125	
0.044286	0.77714	0.593652	-45.43	4.97	21.42	-0.07319999	-0.2682	-0.4283	
0.039162	0.764452	0.588528	-53.97	9.87	20.16	-0.0766	-0.262	-0.4268	
-0.00732	0.740418	0.570594	-64.26	-0.49	12.74	-0.072	-0.2607	-0.4282	
0.08479	0.662948	0.597556	-56.84	-9.38	3.36	-0.0831	-0.2557	-0.4326	
0.084424	0.648064	0.694668	-66.29	-1.26	12.11	-0.0806	-0.2437	-0.4339	
0.0732	0.599874	0.671488	-73.01	-2.66	8.68	-0.08109999	-0.233	-0.4353	
0.115168	0.609146	0.719922	-61.67	-3.85	7.14	-0.08199999	-0.2133	-0.438	
0.123952	0.600484	0.714676	-75.11	-5.95	4.97	-0.0853	-0.2086	-0.4394	
0.088572	0.601704	0.72163	-74.06	-7.91	5.67	-0.0843	-0.198	-0.4408	
0.120048	0.545706	0.74603	-74.55	-2.66	7.35	-0.08199999	-0.1814	-0.442	
0.133956	0.510326	0.76189	-69.86	-2.59	8.19	-0.0929	-0.1779	-0.4436	
0.135786	0.464576	0.739442	-69.93	-5.6	4.34	-0.0891	-0.1614	-0.4477	
0.10187	0.48007	0.774212	-56.91	-6.23	7.07	-0.0959	-0.1458	-0.4404	
0.116144	0.441396	0.781288	-68.67	-3.85	8.54	-0.1028	-0.1335	-0.4549	
0.11956	0.41541	0.801662	-64.12	-4.55	9.03	-0.0967	-0.1275	-0.4359	
0.091744	0.412116	0.819352	-62.09	-5.53	10.92	-0.0953	-0.1262	-0.446	
0.119194	0.360266	0.811788	-69.65	-2.87	8.47	-0.0882	-0.1127	-0.4357	
0.122976	0.32696	0.843752	-64.61	-7	7.7	-0.0944	-0.1125	-0.4459	
0.107848	0.290604	0.837286	-69.09	-6.86	7.14	-0.0986	-0.088	-0.4457	
0.129076	0.245952	0.849974	-66.5	-7.84	6.51	-0.0917	-0.07009999	-0.4411	
0.143594	0.206058	0.83936	-64.89	-10.57	4.62	-0.1034	-0.0498	-0.4367	
0.134566	0.209596	0.872544	-61.95	-13.51	5.67	-0.1137	-0.0568	-0.4282	
0.132248	0.19581	0.894748	-60.83	-14.21	4.48	-0.1009	-0.0362	-0.4336	
0.133712	0.158478	0.913292	-56.77	-14.7	1.4	-0.1009	-0.0347	-0.4322	
0.170678	0.128222	0.923052	-52.08	-14.07	0.56	-0.118	-0.0308	-0.428	
0.182146	0.094184	0.931958	-53.55	-15.19	1.33	-0.1234	-0.0123	-0.4264	
0.181902	0.079544	0.92598	-49.42	-17.71	0.84	-0.119	-0.0079	-0.4249	
0.168482	0.057706	0.93818	-42.42	-18.62	2.03	-0.1192	-0.0018	-0.4234	
0.20008	0.050752	0.950502	-38.5	-17.78	2.73	-0.1275	0.0106	-0.4262	
0.185196	0.051606	0.932202	-38.71	-16.94	3.15	-0.1293	0.0167	-0.4262	
0.18361	0.047946	0.946354	-37.24	-18.97	2.24	-0.1344	0.0276	-0.4233	
0.194712	0.042578	0.964654	-37.24	-18.76	2.45	-0.1388	0.0233	-0.4175	
0.239974	0.02318	0.9638	-38.22	-19.95	1.12	-0.1482	0.0315	-0.4031	
0.230702	0.019398	0.98576	-39.06	-16.94	2.31	-0.1394	0.037	-0.416	
0.269376	0.005978	0.999546	-41.65	-14	1.96	-0.1427	0.0433	-0.4116	
0.262788	-0.00915	1.015284	-39.83	-12.88	1.75	-0.1417	0.0554	-0.41	
0.268644	-0.01769	0.99003	-39.06	-10.08	1.54	-0.1497	0.065	-0.4028	
0.287554	-0.02135	0.99613	-34.86	-5.95	0.63	-0.1497	0.0634	-0.4028	
0.31659	-0.046604	1.026752	-29.33	-4.34	-1.05	-0.1483	0.0664	-0.4042	
0.29036	-0.054168	1.023946	-29.12	-0.84	-1.05	-0.1472	0.0786	-0.3939	
0.272182	-0.043066	1.009428	-27.37	2.1	-0.7	-0.1551	0.0819	-0.3998	
0.261568	-0.04209	0.99796	-27.02	2.31	0	-0.1539	0.091	-0.3968	
0.252174	-0.0549	0.987346	-27.44	4.55	-1.19	-0.1535	0.0835	-0.3867	
0.248758	-0.076372	0.970998	-28.42	4.13	-0.84	-0.1538	0.0896	-0.391	
0.246074	-0.089792	0.977098	-28.35	3.92	-0.28	-0.1557	0.0973	-0.3895	
0.214964	-0.118096	0.95953	-29.89	2.38	0	-0.1601	0.0929	-0.3925	
0.209596	-0.127612	0.959164	-26.46	-0.91	1.68	-0.1429	0.0891	-0.3837	
0.224846	-0.132614	0.949526	-25.55	-3.85	0.56	-0.1511	0.097	-0.3924	
0.218014	-0.151158	0.935008	-22.82	-6.58	-0.28	-0.1514	0.1047	-0.3894	
0.226066	-0.139446	0.942572	-22.61	-9.17	-0.49	-0.1596	0.1204	-0.3763	
0.249368	-0.136152	0.95221	-21.98	-12.04	-0.42	-0.1533	0.1139	-0.3821	
0.257664	-0.158356	0.973804	-24.99	-10.85	-0.35	-0.1639	0.1129	-0.3779	
0.267058	-0.179096	0.973682	-23.03	-13.02	-0.56	-0.1581	0.1219	-0.3705	
0.27633	-0.185684	0.992958	-21.14	-12.74	-0.42	-0.1537	0.1262	-0.3704	
0.294264	-0.188734	1.000156	-17.64	-13.93	0.21	-0.1598	0.1234	-0.3763	
0.295728	-0.18727	1.009184	-14.77	-13.51	0.28	-0.1693	0.1331	-0.3647	
0.313784	-0.194102	1.002718	-15.12	-10.5	0.77	-0.1583	0.1264	-0.3704	
0.31476	-0.217892	1.021872	-12.39	-9.45	0.35	-0.1675	0.1253	-0.3705	
0.345382	-0.232898	1.030534	-9.73	-7.77	0.35	-0.1648	0.1344	-0.3675	
0.278526	-0.218136	1.039928	-6.37	-7.7	0.63	-0.1667	0.1436	-0.366	
0.480436	-0.317078	1.067866	-61.46	-63.28	31.22	-0.1773	0.1411	-0.3589	
0.351726	-0.322812	1.015772	1.19	5.18	0.91	-0.1713	0.1454	-0.3574	
0.374418	-0.269864	1.015284	1.82	-0.84	2.52	-0.1729	0.147	-0.3559	
0.355874	-0.254736	1.021384	7.7	-0.42	1.61	-0.1776	0.1472	-0.3574	
0.358436	-0.270718	1.008208	9.87	1.19	1.33	-0.1698	0.1453	-0.3544	
0.344162	-0.25986	1.005768	12.95	0.77	0.91	-0.1772	0.1396	-0.3589	
0.346602	-0.25681	1.02114	15.47	0.56	0.91	-0.1761	0.1471	-0.3617	
0.344894	-0.253638	1.021384	18.48	0.21	0.35	-0.1572	0.1371	-0.3602	
0.34526	-0.249368	1.032486	23.1	-0.98	-0.28	-0.1802	0.1366	-0.3648	
0.343308	-0.235216	1.027484	27.37	-2.03	-0.98	-0.1723	0.1317	-0.3647	
0.348798	-0.227164	1.037122	30.03	-2.59	-1.61	-0.163	0.1297	-0.3661	
0.374296	-0.231312	1.030534	34.02	-1.61	-3.08	-0.1716	0.1165	-0.3591	
0.359656	-0.212036	1.024556	33.95	-0.84	-3.36	-0.1658	0.1222	-0.3706	
0.360266	-0.197274	1.03334	40.46	2.87	-3.5	-0.1747	0.1134	-0.378	
0.355996	-0.185928	1.02114	41.3	4.27	-4.69	-0.159	0.1051	-0.3779	
0.34587	-0.167506	1.013942	48.02	4.97	-4.76	-0.1683	0.107	-0.3823	
0.334402	-0.130662	1.01443	54.11	6.09	-4.06	-0.1708	0.0919	-0.3912	
0.334646	-0.121756	0.996252	54.81	7.35	-5.32	-0.1736	0.0875	-0.384	
0.326838	-0.104676	0.984906	59.5	8.19	-6.16	-0.1731	0.0768	-0.387	
0.320494	-0.083204	0.981856	64.82	8.68	-7.63	-0.1727	0.0645	-0.3987	
0.323544	-0.054778	0.972218	66.43	7.84	-8.68	-0.1727	0.0645	-0.403	
0.30866	-0.029036	0.94428	64.75	10.5	-8.12	-0.1656	0.0414	-0.4046	
0.29463	-0.002928	0.951844	68.25	9.73	-8.96	-0.1558	0.0303	-0.4046	
0.281942	0.019398	0.947818	68.81	11.55	-8.75	-0.1634	0.0276	-0.4047	
0.271084	0.03965	0.923296	66.43	12.53	-8.61	-0.1613	0.0137	-0.415	
0.271084	0.08662	0.915854	70.91	11.83	-8.33	-0.1582	0.0105	-0.4193	
0.260958	0.113338	0.900848	69.79	15.82	-8.33	-0.1528	-0.0048	-0.4194	
0.258762	0.13847	0.900482	72.1	15.47	-10.29	-0.1614	-0.0196	-0.4225	
0.231312	0.155306	0.879132	66.29	17.85	-9.66	-0.1378	-0.0313	-0.4181	
0.210206	0.188978	0.856562	64.4	16.73	-9.03	-0.1519	-0.0261	-0.4211	
0.216916	0.220332	0.846192	63.63	15.96	-8.96	-0.1324	-0.0499	-0.4269	
0.19642	0.231678	0.820572	53.27	16.52	-7.98	-0.1442	-0.0631	-0.4315	
0.198738	0.268766	0.801784	59.29	14.91	-8.12	-0.1471	-0.066	-0.433	
0.171532	0.287066	0.792024	56.91	16.38	-8.26	-0.1422	-0.07229999	-0.4344	
0.156892	0.31415	0.77287	56.7	15.54	-6.65	-0.134	-0.08329999	-0.4344	
0.14457	0.340014	0.752862	58.17	12.46	-7.98	-0.1319	-0.09869999	-0.4433	

0.125904	0.442982	0.733708	68.6	4.34	-10.36	-0.1267	-0.1126	-0.4433	
0.113216	0.471652	0.73871	66.64	4.55	-10.5	-0.1167	-0.1266	-0.4347	
0.16775	0.5246	0.7442	73.08	6.93	-13.79	-0.1225	-0.1339	-0.4319	
0.123464	0.511424	0.75091	71.82	10.78	-18.27	-0.1204	-0.1477	-0.4393	
0.126758	0.554246	0.72895	69.93	20.72	-17.57	-0.1245	-0.1566	-0.4365	
0.108092	0.582062	0.727608	72.87	21.28	-18.69	-0.1191	-0.1736	-0.4351	
0.090402	0.622078	0.710162	64.19	23.52	-18.27	-0.1119	-0.1951	-0.4266	
0.10431	0.598654	0.692228	55.44	21.84	-20.44	-0.0999	-0.1927	-0.4395	
0.081862	0.64111	0.684298	56.14	22.68	-20.93	-0.1007	-0.2078	-0.4353	
0.081618	0.638304	0.664168	46.55	26.46	-20.58	-0.105	-0.2137	-0.4339	
0.076372	0.628178	0.661362	41.86	25.76	-17.22	-0.0831	-0.2223	-0.4309	
0.032086	0.65209	0.633424	41.51	28.42	-13.37	-0.0777	-0.2377	-0.4281	
0.052094	0.680394	0.63562	53.34	22.47	-14.42	-0.081	-0.2346	-0.4353	
0.050386	0.702476	0.632936	52.64	24.5	-12.32	-0.0712	-0.2456	-0.431	
0.033672	0.736514	0.62342	48.72	28.84	-9.38	-0.0694	-0.2501	-0.4208	
0.013542	0.736148	0.620004	41.65	30.03	-7	-0.0627	-0.261	-0.418	
-0.022692	0.726998	0.613416	38.36	30.94	-3.99	-0.0503	-0.2662	-0.4266	
0.00305	0.74786	0.5856	36.75	28.42	-1.82	-0.0468	-0.2724	-0.4208	
-0.006954	0.747372	0.604632	39.9	25.27	-1.61	-0.0374	-0.2774	-0.4236	
0.005246	0.796294	0.58316	42.42	24.71	-0.98	-0.0352	-0.2943	-0.4281	
-0.015494	0.801662	0.579622	44.59	21.35	-1.05	-0.0312	-0.2777	-0.4192	
-0.03538	0.803736	0.565714	35.14	24.15	2.8	-0.0275	-0.2899	-0.4121	
-0.042822	0.783728	0.579866	34.3	22.47	2.45	-0.022	-0.31	-0.418	
-0.018056	0.771162	0.568276	27.58	24.71	4.69	-0.0236	-0.3083	-0.4136	
-0.030134	0.786412	0.55693	34.23	19.67	2.8	-0.0158	-0.3117	-0.415	
-0.028548	0.76921	0.574864	33.88	15.68	1.82	-0.0153	-0.3224	-0.4166	
-0.023912	0.80093	0.584502	34.16	13.23	0.84	-0.0195	-0.3282	-0.4051	
-0.01647	0.808006	0.547658	38.08	9.03	-1.54	-0.0085	-0.3332	-0.4036	
-0.04514	0.825452	0.523136	40.88	6.16	-2.45	-0.0003	-0.3457	-0.4036	
-0.056608	0.83387	0.50996	48.3	2.31	-3.43	-0.0079	-0.3469	-0.4066	
-0.02623	0.85095	0.515206	36.75	5.39	-1.89	0.0031	-0.3535	-0.4036	
-0.040992	0.867664	0.512156	28.84	8.82	1.26	-0.0044	-0.3546	-0.3965	
-0.0427	0.855586	0.50874	26.95	12.88	1.89	0.0115	-0.3659	-0.3921	
-0.061732	0.865468	0.496052	23.24	11.62	2.31	0.0084	-0.3658	-0.3907	
-0.064172	0.86254	0.494466	28.77	8.89	-1.26	-0.0037	-0.3667	-0.385	
-0.060146	0.864248	0.488488	32.41	5.18	-4.55	0.0009999999	-0.3715	-0.3865	
-0.06222	0.875594	0.458476	35.98	-0.21	-7.42	0.0044	-0.3777	-0.385	
-0.047946	0.890112	0.474946	38.92	-5.74	-9.1	0.0001	-0.3835	-0.3779	
-0.034038	0.887916	0.474702	27.79	-4.2	-7.63	0.0139	-0.3842	-0.3835	
-0.04575	0.88572	0.457012	21.7	-6.23	-7.56	0.0172	-0.3826	-0.3618	
-0.022326	0.902556	0.443836	26.53	-8.54	-9.38	0.0081	-0.3868	-0.3706	
-0.053314	0.932202	0.455792	28.49	-9.8	-10.36	0.0129	-0.3916	-0.3677	
-0.062708	0.923296	0.461282	20.65	-7.42	-9.31	0.0101	-0.3991	-0.3721	
-0.056486	0.933544	0.451034	23.66	-10.85	-12.18	0.0102	-0.399	-0.3634	
-0.069784	0.933056	0.431026	17.78	-11.62	-12.95	0.0069	-0.3943	-0.3663	
-0.057096	0.9333	0.433466	16.8	-12.25	-13.16	0.008599999	-0.3958	-0.3562	
-0.061854	0.918782	0.427854	7.35	-10.92	-10.15	0.0107	-0.4065	-0.3577	
-0.054778	0.946232	0.406382	8.54	-13.09	-10.22	-0.0047	-0.4059	-0.3666	
-0.061854	0.951722	0.413214	8.89	-13.72	-10.57	0.0045	-0.4047	-0.3534	
-0.065148	0.93147	0.429562	3.57	-10.64	-8.19	0.0095	-0.4156	-0.3607	
-0.063928	0.935618	0.418948	4.97	-8.61	-6.65	0.0032	-0.4123	-0.3637	
-0.07503	0.939278	0.397964	5.67	-9.24	-7.84	0.0076	-0.4064	-0.3578	
-0.078934	0.948062	0.40138	10.99	-10.22	-9.45	-0.0001	-0.4045	-0.3564	
-0.076128	0.93574	0.411628	11.27	-11.13	-9.45	0.0017	-0.4091	-0.3463	
-0.080398	0.943792	0.400404	7.42	-9.52	-8.05	0.0037	-0.423	-0.3609	
-0.090158	0.961116	0.388082	2.59	-8.12	-6.02	-0.0025	-0.4165	-0.3522	
-0.09333	0.948428	0.393694	-0.7	-6.23	-5.95	0.0035	-0.4184	-0.3565	
-0.076616	0.927444	0.401136	-2.8	-5.95	-5.25	-0.0009	-0.4197	-0.3565	
-0.07137	0.917074	0.411384	-1.47	-5.74	-6.23	-0.0043	-0.4135	-0.358	
-0.075274	0.929518	0.411262	3.5	-6.79	-7	-0.006	-0.4119	-0.3666	
-0.080276	0.919758	0.40748	0	-5.25	-5.18	-0.0043	-0.4119	-0.3565	
-0.071126	0.911828	0.40748	-6.65	-3.08	-2.03	0.0077	-0.4079	-0.3549	
-0.062586	0.92232	0.413824	-3.01	-4.06	-1.61	-0.0138	-0.4054	-0.3536	
-0.066856	0.943426	0.41358	-5.32	-1.82	0.98	-0.0059	-0.4118	-0.3551	
-0.086254	0.930616	0.414556	-10.78	0.91	3.71	0.0037	-0.4213	-0.3507	
-0.093208	0.933666	0.419436	-12.25	3.85	5.46	-0.0012	-0.4151	-0.3608	
-0.09211	0.93574	0.4209	-12.04	4.62	6.23	-0.0122	-0.4086	-0.3609	
-0.08418	0.920978	0.418826	-14.63	6.16	7.35	-0.0078	-0.4058	-0.3637	
-0.073566	0.923418	0.42151	-15.47	7.7	7.28	0.0013	-0.4062	-0.3651	
-0.076494	0.92476	0.418826	-15.68	7.14	6.72	0	-0.4075	-0.355	
-0.079178	0.917684	0.42456	-13.58	5.04	5.46	-0.0045	-0.4089	-0.3608	
-0.073566	0.914268	0.434686	-10.22	2.52	3.29	0.0015	-0.4108	-0.368	
-0.073078	0.92354	0.440908	-6.65	-0.07	1.05	-0.0069	-0.3921	-0.3636	
-0.079666	0.925126	0.439078	-6.23	-1.19	0.07	0.0027	-0.4033	-0.3694	
-0.078568	0.930616	0.434808	-7.14	-1.68	-0.07	-0.0131	-0.3904	-0.368	
-0.07442	0.929396	0.432856	-12.11	-2.1	0.98	-0.0023	-0.394	-0.3766	
-0.066124	0.930616	0.46299	-11.27	-3.57	2.59	-0.0022	-0.397	-0.3752	
-0.063928	0.92842	0.486292	-17.36	0.56	6.79	0.0007	-0.3941	-0.3707	
-0.068442	0.94428	0.497028	-23.17	5.39	11.34	-0.0056	-0.3877	-0.3722	
-0.166286	0.930982	0.48556	-28.7	5.95	18.27	-0.0028	-0.3818	-0.3707	

-0.046482	0.92659	0.45445	-22.26	-1.68	5.6	-0.0026	-0.3879	-0.3794	
-0.047336	0.884622	0.476288	-31.99	-1.4	8.05	-0.011	-0.3739	-0.3852	
0.01952	0.79727	0.508984	-38.15	-3.71	8.05	-0.0111	-0.374	-0.3895	
0.049166	0.832772	0.54168	-22.75	-9.38	7.7	-0.0145	-0.3646	-0.3822	
0.00122	0.8723	0.522892	-14.7	-10.71	5.04	-0.0146	-0.3632	-0.388	
-0.049288	0.899506	0.545096	-20.51	-5.74	10.36	-0.0117	-0.3587	-0.3836	
-0.077104	0.898408	0.536678	-18.27	-6.93	10.57	-0.0176	-0.3645	-0.3852	
-0.076982	0.934886	0.539484	-17.85	-8.75	14.98	-0.0181	-0.3539	-0.388	
-0.07015	0.883768	0.501664	-33.46	-8.05	15.4	-0.0272	-0.3581	-0.3924	
-0.05429	0.864858	0.516792	-28.84	-16.17	15.4	-0.0308	-0.3457	-0.3895	
0.00427	0.883158	0.575962	-28.63	-18.69	11.62	-0.0248	-0.343	-0.3937	
-0.044774	0.807762	0.548512	-54.88	-12.53	16.45	-0.0344	-0.3381	-0.4025	
-0.00366	0.819718	0.514962	-18.55	-23.73	7.28	-0.0346	-0.3336	-0.4039	
0.008052	0.81313	0.514108	-18.62	-16.03	10.22	-0.0458	-0.3239	-0.4054	
0.047336	0.794098	0.522526	-6.93	-15.89	10.22	-0.0392	-0.3333	-0.4039	
0.053802	0.820084	0.586332	-19.67	-10.36	13.37	-0.0473	-0.3254	-0.4025	
0.025864	0.804346	0.529602	-39.27	-7.21	11.06	-0.058	-0.328	-0.4157	
-0.040748	0.791658	0.545828	-46.27	-4.9	14.77	-0.0464	-0.3133	-0.411	
0.011468	0.810812	0.536312	-40.18	-6.44	15.12	-0.0589	-0.3098	-0.4169	
0.038064	0.768356	0.498492	-28.28	-11.62	8.68	-0.0558	-0.3068	-0.4067	
0.029036	0.788852	0.544364	-22.82	-14.07	7.42	-0.0624	-0.3021	-0.4256	
0.059414	0.791048	0.579744	-29.26	-16.03	3.08	-0.0734	-0.2955	-0.417	
0.05185	0.780068	0.583038	-37.59	-17.5	3.85	-0.07319999	-0.2985	-0.4155	
0.01464	0.737124	0.6161	-41.23	-13.86	9.1	-0.0785	-0.2846	-0.4169	
0.100894	0.725534	0.582184	-41.93	-8.89	10.71	-0.074	-0.2833	-0.4198	
0.09455	0.690764	0.619516	-44.52	-4.55	13.86	-0.08639999	-0.2797	-0.4141	
0.114192	0.688202	0.622444	-53.83	-4.06	14.98	-0.0797	-0.2603	-0.4225	
0.094428	0.680638	0.644282	-57.54	-4.06	15.47	-0.0878	-0.2524	-0.4269	
0.084424	0.678808	0.679906	-53.97	-2.24	16.45	-0.0785	-0.2543	-0.4268	
0.102968	0.681614	0.71736	-61.11	6.23	18.76	-0.08679999	-0.2419	-0.4354	
0.07503	0.674538	0.675514	-58.66	-4.41	11.83	-0.0875	-0.2282	-0.4382	
0.101748	0.648796	0.709796	-58.59	-3.43	10.92	-0.0942	-0.2158	-0.4382	
0.132858	0.603534	0.71919	-68.67	5.25	13.09	-0.0834	-0.2147	-0.4337	
0.089792	0.585234	0.693692	-76.65	2.52	11.41	-0.0887	-0.2008	-0.4322	
0.094428	0.58621	0.689544	-68.88	-2.1	9.52	-0.102	-0.1805	-0.4394	
0.094794	0.536678	0.700036	-71.26	-3.22	9.94	-0.08419999	-0.1661	-0.4361	
0.081618	0.503128	0.747738	-57.61	0.42	13.58	-0.0875	-0.163	-0.4434	
0.120414	0.527772	0.755668	-61.46	-7.49	11.41	-0.0895	-0.1522	-0.439	
0.089182	0.532652	0.781776	-54.67	-12.25	10.22	-0.0927	-0.149	-0.4433	
0.12261	0.50386	0.808616	-57.61	-6.3	10.5	-0.1058	-0.1318	-0.4462	
0.100162	0.45506	0.797758	-55.02	-1.19	11.97	-0.1015	-0.1275	-0.4519	
0.114192	0.397354	0.745786	-61.04	-4.48	6.3	-0.0929	-0.1126	-0.4473	
0.074786	0.366244	0.814228	-46.2	-12.46	4.06	-0.0942	-0.1155	-0.4387	
0.155672	0.382226	0.854366	-45.15	-13.79	4.9	-0.115	-0.0979	-0.4416	
0.16836	0.347334	0.851438	-67.55	-12.46	9.17	-0.1075	-0.0936	-0.4386	
0.174094	0.323788	0.88389	-68.18	-10.36	10.57	-0.1094	-0.0875	-0.4415	


0.144082	0.215086	0.881572	-55.79	-10.36	6.86	-0.1111	-0.0494	-0.4382	
0.148352	0.193126	0.888648	-59.85	-9.94	7.98	-0.1228	-0.0292	-0.4396	
0.206058	0.194102	0.924272	-53.48	-12.32	8.12	-0.1151	-0.0248	-0.4221	
0.218746	0.189832	0.940132	-55.65	-9.73	7.28	-0.1144	-0.0113	-0.4393	
0.20313	0.151402	0.941352	-54.74	-8.61	6.37	-0.1238	-0.0047	-0.4292	
0.226554	0.126514	0.926712	-49.84	-6.23	3.36	-0.1238	-0.0016	-0.422	
0.208742	0.100772	0.915488	-47.46	-8.4	2.87	-0.1226	0.0043	-0.4233	
0.180926	0.089304	0.917074	-42.84	-8.47	2.31	-0.1152	0.0116	-0.4174	
0.202642	0.070272	0.915	-41.09	-9.45	0.77	-0.1249	0.0211	-0.4261	
0.201056	0.056974	0.92232	-38.01	-10.71	-1.47	-0.1266	0.0258	-0.4188	
0.193126	0.053192	0.933544	-31.71	-12.88	-3.29	-0.1348	0.0384	-0.4145	
0.209352	0.041236	0.927444	-37.1	-18.13	-2.94	-0.1408	0.0341	-0.4146	
0.240584	0.03355	0.951234	-31.78	-19.32	-3.99	-0.1393	0.0371	-0.4102	
0.259616	0.004514	0.94977	-33.81	-18.9	-5.25	-0.1387	0.0536	-0.4216	
0.264252	-0.021228	0.97661	-30.59	-17.92	-5.18	-0.1523	0.0545	-0.4015	
0.26047	-0.00915	0.977586	-31.43	-17.99	-3.99	-0.1571	0.0577	-0.4044	
0.281698	-0.01586	0.96624	-31.78	-16.17	-4.97	-0.159	0.0638	-0.4116	
0.280722	-0.03172	0.946842	-27.93	-14.7	-5.46	-0.1618	0.0594	-0.403	
0.314638	-0.080398	0.964898	-29.05	-15.19	-5.25	-0.1668	0.06879999	-0.4015	
0.30195	-0.054412	0.964532	-33.95	-12.67	-1.54	-0.1668	0.06879999	-0.4015	
0.283528	-0.035136	0.971608	-36.33	-8.96	-0.35	-0.1641	0.0778	-0.3985	
0.305488	-0.067954	0.97722	-38.22	-6.79	-1.96	-0.1579	0.0791	-0.3897	
0.303658	-0.095282	0.967704	-39.34	-6.09	-1.4	-0.1676	0.08549999	-0.4057	
0.299632	-0.08723	0.971486	-39.69	-4.34	-0.28	-0.1677	0.0949	-0.3795	
0.291092	-0.121756	0.953552	-39.13	-4.48	-2.24	-0.1677	0.0918	-0.3853	
0.290604	-0.16653	0.970754	-39.13	-6.65	-0.7	-0.1651	0.1023	-0.3867	
0.289018	-0.168482	0.973682	-39.2	-6.86	1.19	-0.1746	0.1119	-0.3751	
0.287554	-0.154696	0.984418	-35.63	-7.63	2.8	-0.1685	0.1148	-0.3663	
0.300364	-0.165188	0.981368	-30.38	-8.26	1.75	-0.1661	0.1267	-0.3807	
0.316956	-0.18666	0.969778	-29.82	-8.68	1.26	-0.1704	0.124	-0.3648	
0.321836	-0.208132	0.98149	-27.72	-7.98	1.12	-0.1735	0.1241	-0.3663	
0.324886	-0.207766	0.982832	-26.39	-8.4	2.38	-0.1752	0.1241	-0.3764	
0.335012	-0.193004	0.990518	-22.75	-7	1.47	-0.1648	0.1375	-0.3588	
0.337208	-0.200446	0.985272	-21.91	-5.32	1.61	-0.1662	0.133	-0.3618	
0.332572	-0.230458	0.971852	-21.42	-5.74	1.19	-0.1662	0.1329	-0.3632	
0.338306	-0.23363	0.961726	-20.23	-3.01	2.31	-0.1792	0.1488	-0.356	
0.316102	-0.228506	0.979416	-14.98	-2.73	2.03	-0.1683	0.1468	-0.3544	
0.325862	-0.232288	0.970388	-11.69	-2.87	0.91	-0.1744	0.1455	-0.3559	
0.333548	-0.231556	0.983686	-10.22	-2.8	1.61	-0.1822	0.1474	-0.3575	
0.338306	-0.246806	0.966606	-10.22	0.49	0.84	-0.1852	0.1476	-0.3517	
0.331718	-0.249734	0.98698	-7.7	0.35	0.63	-0.1806	0.1458	-0.3589	
0.334646	-0.254614	0.985394	-3.36	-0.35	0.49	-0.1718	0.1576	-0.3529	
0.340746	-0.262666	0.99247	0.63	-0.49	-0.07	-0.1757	0.1411	-0.3545	
0.338794	-0.271572	0.993568	4.97	-1.96	-0.14	-0.1715	0.15	-0.3501	
0.342088	-0.27694	0.99674	7.7	-2.31	-0.35	-0.1742	0.1457	-0.3415	
0.348554	-0.281454	1.017968	11.97	-3.01	-1.19	-0.1712	0.1439	-0.3501	
0.358558	-0.294142	1.023092	14	-2.66	-1.68	-0.175	0.1577	-0.3616	
0.365268	-0.299022	1.018212	17.22	-0.98	-2.1	-0.1788	0.1443	-0.3473	
0.36905	-0.298046	1.03517	21.42	-1.82	-2.1	-0.1699	0.15	-0.3486	
0.377346	-0.281454	1.042856	25.83	-1.89	-1.75	-0.1729	0.1454	-0.3617	
0.380274	-0.276574	1.03578	29.54	0.77	-3.01	-0.1798	0.1306	-0.3518	
0.382348	-0.281332	1.029558	32.2	2.66	-3.36	-0.1804	0.1412	-0.3604	
0.380274	-0.265472	1.026996	36.47	2.66	-2.87	-0.1782	0.1274	-0.3605	
0.375882	-0.249734	1.040172	39.83	4.13	-3.36	-0.181	0.1199	-0.3664	
0.37149	-0.244732	1.024312	43.4	5.6	-4.06	-0.1796	0.1229	-0.3649	
0.366488	-0.217038	1.032486	49.07	4.9	-3.99	-0.181	0.1199	-0.3664	
0.398818	-0.226554	1.029314	51.17	7.07	-5.67	-0.1712	0.1058	-0.3693	
0.35075	-0.210938	0.98332	46.48	8.68	-2.87	-0.1832	0.0955	-0.3855	
0.35197	-0.166774	1.00467	61.04	9.24	-4.76	-0.1754	0.0937	-0.3811	
0.33306	-0.13969	0.994544	62.65	8.47	-5.32	-0.1733	0.07979999	-0.3913	
0.324398	-0.126636	0.97783	63.77	11.06	-6.3	-0.1761	0.0755	-0.3841	
0.326472	-0.097112	0.976122	69.3	9.52	-7.84	-0.1696	0.0629	-0.4001	
0.318786	-0.07625	0.949282	66.92	12.39	-7.35	-0.1712	0.066	-0.3943	
0.307074	-0.051118	0.938424	69.79	12.67	-7.35	-0.1675	0.049	-0.4089	
0.282308	-0.011834	0.90463	69.72	14.49	-7.63	-0.1679	0.0232	-0.4135	
0.274134	0.03904	0.904996	76.37	15.4	-8.75	-0.1695	0.0232	-0.4164	
0.265228	0.050996	0.861808	68.46	18.06	-8.61	-0.1726	0.0249	-0.4121	
0.248148	0.094062	0.858392	75.88	18.2	-7.56	-0.1528	-0.0064	-0.4209	
0.239608	0.143472	0.854244	73.64	17.15	-7.49	-0.1513	-0.0065	-0.4238	
0.210938	0.177754	0.817034	69.79	17.99	-7.35	-0.1551	-0.023	-0.4225	
0.219966	0.198494	0.804468	70.07	14.42	-7.84	-0.1562	-0.0336	-0.4255	
0.21411	0.232288	0.786412	67.83	14.07	-8.33	-0.147	-0.0341	-0.4327	
0.17751	0.266936	0.76921	68.53	14.98	-7.21	-0.149	-0.0583	-0.4315	
0.188734	0.312564	0.767502	73.43	11.48	-9.03	-0.1411	-0.0632	-0.4343	
0.179706	0.352336	0.77226	77.63	9.66	-10.71	-0.1496	-0.0795	-0.4331	
0.17629	0.393572	0.745664	81.06	8.54	-13.72	-0.1488	-0.0962	-0.4304	
0.185196	0.440542	0.7564	82.81	6.86	-14.42	-0.1301	-0.1017	-0.436	

0.16043	0.498858	0.714554	89.04	12.81	-17.36	-0.1311	-0.1472	-0.4307	
0.130052	0.541802	0.724558	92.61	14.63	-17.36	-0.126	-0.1596	-0.438	
0.127856	0.546316	0.694668	85.19	19.88	-19.46	-0.121	-0.1674	-0.4365	
0.107848	0.60207	0.664046	82.53	21.28	-20.72	-0.1123	-0.1875	-0.4337	
0.09699	0.621834	0.661606	81.34	21.28	-24.85	-0.1042	-0.1955	-0.4279	
0.117974	0.630252	0.667096	72.73	27.02	-26.88	-0.1031	-0.2198	-0.4311	
0.08845	0.644892	0.63745	55.58	33.46	-24.08	-0.0951	-0.2262	-0.4252	
0.06344	0.661728	0.609756	46.76	36.61	-17.64	-0.0959	-0.243	-0.4326	
0.043432	0.678808	0.577182	52.5	30.73	-19.39	-0.0854	-0.2373	-0.431	
0.050752	0.749568	0.573644	64.47	28.21	-17.57	-0.0743	-0.2454	-0.4266	
0.017568	0.777506	0.572912	57.89	28.7	-17.36	-0.0751	-0.2621	-0.4297	
-0.02379	0.751642	0.542778	38.36	35.91	-11.9	-0.0654	-0.2717	-0.4297	
-0.038186	0.753106	0.54778	42.07	35	-7.14	-0.0577	-0.2704	-0.4238	
-0.016348	0.78141	0.554856	44.45	30.94	-5.74	-0.0633	-0.2823	-0.4225	
0.014518	0.787876	0.585112	46.76	29.68	-3.85	-0.043	-0.2877	-0.4137	
-0.00427	0.809348	0.580964	47.74	26.25	-1.89	-0.0442	-0.2953	-0.4195	
-0.005002	0.831064	0.57401	42.98	29.12	0.63	-0.0331	-0.3018	-0.4151	
-0.01769	0.80764	0.54961	36.4	29.89	0.28	-0.0389	-0.3092	-0.4138	
-0.013786	0.80154	0.54412	33.18	31.43	3.64	-0.0324	-0.317	-0.4138	
-0.024278	0.810934	0.51484	30.17	29.47	2.17	-0.0244	-0.325	-0.4153	
-0.055754	0.816302	0.542046	33.81	22.33	2.87	-0.0088	-0.3287	-0.4064	
-0.047824	0.817644	0.528138	33.25	19.18	3.92	-0.0213	-0.3235	-0.4036	
-0.04209	0.824476	0.510326	35.56	13.3	1.26	-0.0099	-0.3362	-0.4036	
-0.057096	0.864858	0.523868	36.26	9.87	0.21	-0.0071	-0.3302	-0.4021	
-0.058438	0.850218	0.546682	34.65	7	-2.1	-0.006	-0.3499	-0.3878	
-0.056486	0.874008	0.506788	28.98	5.04	-3.15	-0.0077	-0.3499	-0.3994	
-0.097356	0.848144	0.527894	28.84	2.24	-4.2	-0.0071	-0.3605	-0.3879	
-0.049654	0.870836	0.530578	31.85	3.43	-4.41	-0.0059	-0.3545	-0.3936	
-0.050386	0.878888	0.511668	23.17	5.95	-2.31	0.0023	-0.3654	-0.3864	
-0.03111	0.843386	0.474214	13.93	9.52	-1.75	-0.0053	-0.3667	-0.3923	
-0.06527	0.85156	0.450302	21.56	3.57	-3.64	0.0039	-0.367	-0.3849	
-0.042944	0.904874	0.51423	46.62	-6.02	-11.9	0.0084	-0.3657	-0.3863	
-0.038552	0.892064	0.501176	21.21	-0.77	-11.41	0.0076	-0.3777	-0.3749	
-0.07198	0.890844	0.480802	25.76	-3.5	-15.05	0.0032	-0.3837	-0.3822	
-0.09028	0.886574	0.479338	21.07	-0.98	-12.74	-0.0045	-0.3803	-0.3808	
-0.061244	0.854488	0.498492	14.42	-1.05	-8.89	0.0065	-0.3883	-0.3779	
-0.038674	0.872544	0.489342	23.73	-5.25	-9.87	0.0141	-0.3871	-0.3763	
-0.029158	0.872422	0.485804	25.13	-5.46	-12.39	0.007	-0.3974	-0.3751	
-0.030378	0.90219	0.475434	30.73	-7.14	-13.79	0.0132	-0.3977	-0.3706	
-0.080032	0.896456	0.485804	26.39	-6.86	-12.81	0.0101	-0.3991	-0.375	
-0.064538	0.908778	0.466162	16.1	-3.64	-9.31	0.0076	-0.408	-0.365	
-0.04514	0.898042	0.457012	16.1	-4.55	-9.17	0.0023	-0.3925	-0.3562	
-0.057218	0.896944	0.443226	15.19	-5.6	-8.89	0.0149	-0.4007	-0.3663	
-0.063684	0.883158	0.440664	12.81	-5.46	-7.91	0.0123	-0.4097	-0.3606	
-0.077226	0.9089	0.415044	14	-6.02	-7.49	0	-0.4107	-0.3637	
-0.070638	0.934764	0.405772	18.41	-8.61	-8.75	0.0126	-0.4158	-0.3607	
-0.069052	0.928664	0.40992	19.32	-9.73	-9.52	0.007999999	-0.4124	-0.3477	
-0.07808	0.942938	0.407114	18.9	-8.54	-9.17	0.0135	-0.399	-0.3504	
-0.087474	0.957578	0.399672	15.89	-6.16	-8.54	0.005	-0.4185	-0.3608	
-0.104554	0.92659	0.386862	5.95	-6.02	-5.74	0.005	-0.4153	-0.3506	
-0.107116	0.927932	0.381128	3.43	-6.37	-5.74	0.0131	-0.4217	-0.339	
-0.107604	0.936838	0.37881	6.72	-8.19	-7.07	0.0158	-0.4158	-0.352	
-0.088938	0.945378	0.390888	7.98	-9.03	-7.77	0.0068	-0.4215	-0.3565	
-0.08845	0.953064	0.4026	3.15	-6.3	-6.16	0.0021	-0.4198	-0.3536	
-0.097234	0.965874	0.398696	1.89	-4.76	-5.53	0.0037	-0.4182	-0.3449	
-0.115412	0.957822	0.392718	-2.73	-2.59	-3.29	0.0053	-0.423	-0.3521	
-0.120536	0.944158	0.384056	-9.66	-0.07	-0.21	0.0114	-0.4249	-0.3637	
-0.110288	0.939034	0.37027	-10.36	0.28	0.07	0.016	-0.422	-0.3564	
-0.104432	0.942938	0.370392	-9.45	0.28	-0.35	0.0101	-0.4262	-0.355	
-0.110776	0.962946	0.370392	-4.2	-1.05	-1.82	0.0234	-0.4147	-0.3519	
-0.125294	0.980026	0.3782	-0.35	-1.89	-2.59	0.0003	-0.4151	-0.3536	
-0.126636	0.974048	0.385642	-5.32	-1.47	-0.7	0.0158	-0.4174	-0.3563	
-0.116998	0.958798	0.386496	-9.66	-0.77	0.84	0.01	-0.4247	-0.3565	
-0.115778	0.9516	0.372832	-13.44	0.42	2.03	0.0114	-0.4217	-0.3535	
-0.111508	0.960384	0.371612	-16.45	1.82	3.99	0.0142	-0.4189	-0.3636	
-0.105042	0.961482	0.38308	-17.57	2.17	5.18	0.0124	-0.4127	-0.3621	
-0.105652	0.973194	0.398452	-14.63	1.89	5.32	0.003	-0.4093	-0.3651	
-0.108458	0.976366	0.410408	-15.68	2.45	5.53	0.0003	-0.4152	-0.3579	
-0.10919	0.959896	0.411384	-18.55	1.26	5.46	0.0056	-0.3972	-0.362	
-0.094794	0.916464	0.404064	-24.43	0.14	6.58	0.0135	-0.4037	-0.3693	
-0.158356	0.943304	0.451522	-25.41	0.28	10.78	0.004	-0.4003	-0.3737	
-0.069662	0.95221	0.426268	0.91	-5.04	0	-0.0021	-0.3969	-0.3679	
-0.079178	0.981368	0.406138	-10.29	-7.07	1.89	-0.0084	-0.3936	-0.3665	
-0.101626	0.97783	0.420656	-23.45	-2.87	10.08	0.002	-0.388	-0.3692	
-0.060756	0.950258	0.45018	-31.5	0.56	12.04	-0.0054	-0.3938	-0.3752	
-0.097722	0.912682	0.486048	-27.79	3.01	11.9	0.0003	-0.3881	-0.3866	
-0.103578	0.921588	0.485804	-17.01	1.61	10.92	-0.0058	-0.3847	-0.378	
-0.111386	0.93025	0.46177	-22.26	3.5	11.2	-0.0136	-0.3829	-0.3795	
-0.114192	0.915732	0.449936	-28.14	3.57	13.37	-0.0046	-0.3787	-0.3822	
-0.069906	0.88084	0.467382	-31.29	-0.42	12.6	-0.0066	-0.3696	-0.3851	
-0.068564	0.850584	0.526918	-34.44	-3.08	14.49	-0.0085	-0.3634	-0.3865	
-0.00366	0.88084	0.542656	-15.12	-9.38	9.17	-0.0087	-0.3573	-0.3821	
-0.035258	0.85827	0.575962	-23.03	-8.75	8.82	-0.0207	-0.3644	-0.3881	
-0.054534	0.8235	0.553758	-31.29	-6.93	9.1	-0.0184	-0.3494	-0.3966	
-0.045506	0.81557	0.528748	-25.76	-14.56	4.76	-0.0103	-0.3573	-0.3908	
0.015494	0.856074	0.557906	-19.74	-19.74	-1.33	-0.0138	-0.348	-0.3893	
-0.089792	0.75579	0.573278	-44.03	-17.36	0.63	-0.0106	-0.3512	-0.3922	
-0.073078	0.796294	0.541192	-18.9	-26.53	-3.22	-0.0293	-0.349	-0.4054	
-0.013298	0.770918	0.597312	-23.94	-26.39	1.82	-0.0341	-0.3411	-0.3938	
0.023912	0.706746	0.60695	-41.23	-19.04	10.78	-0.0356	-0.3425	-0.3953	
0.031476	0.628422	0.588284	-32.55	-25.27	9.1	-0.0451	-0.3392	-0.4069	
0.11651	0.559126	0.59109	-4.9	-30.31	8.89	-0.0395	-0.3304	-0.4111	
0.17019	0.5429	0.645746	-10.15	-23.03	15.75	-0.035	-0.326	-0.4096	
0.085156	0.64904	0.627568	-9.87	-16.87	18.76	-0.0595	-0.3264	-0.4055	
0.035624	0.712602	0.620614	-4.27	-9.45	21.84	-0.0536	-0.3221	-0.4054	
0.015982	0.76677	0.631838	3.64	-2.17	24.78	-0.0579	-0.3295	-0.4084	
0.002806	0.76189	0.615368	5.25	1.61	24.57	-0.0552	-0.3205	-0.4083	
0.024034	0.781166	0.616344	15.89	2.59	21.56	-0.0643	-0.3231	-0.4099	
0.03721	0.795074	0.6161	22.61	0.98	17.15	-0.0712	-0.3076	-0.4084	
0.06344	0.809958	0.59963	26.6	0.07	9.94	-0.0608	-0.3292	-0.3954	
0.07686	0.810446	0.623908	17.36	4.62	13.44	-0.0604	-0.3384	-0.3984	

0.074298	0.793	0.59841	-0.91	4.9	11.06	-0.0672	-0.3228	-0.3925	
0.080764	0.782142	0.612928	-1.61	5.39	10.85	-0.0668	-0.3367	-0.4071	
0.070516	0.770308	0.590236	-5.25	6.72	11.13	-0.0625	-0.3277	-0.4056	
0.054168	0.761158	0.573156	-5.11	4.62	11.41	-0.0657	-0.3245	-0.3983	
0.056242	0.758596	0.57584	-3.85	0.63	11.55	-0.0795	-0.3254	-0.3985	
0.063196	0.756522	0.574986	-9.59	-0.14	13.3	-0.073	-0.3317	-0.3985	
0.061732	0.754936	0.568154	-9.8	-3.01	14.35	-0.0657	-0.3245	-0.4027	
0.06527	0.751642	0.576328	-8.75	-6.72	15.19	-0.0657	-0.3261	-0.4056	
0.07442	0.751398	0.589626	-8.96	-9.1	16.94	-0.0733	-0.3257	-0.3984	
0.095648	0.754082	0.582184	-13.58	-10.92	18.76	-0.0764	-0.3271	-0.4043	
0.084424	0.753838	0.5795	-20.58	-13.51	19.88	-0.075	-0.3225	-0.3955	
0.084668	0.736636	0.570838	-13.86	-19.53	21.28	-0.08769999	-0.3176	-0.4173	
0.100528	0.737734	0.593652	-3.64	-25.62	22.68	-0.09079999	-0.3159	-0.4087	
0.12261	0.7259	0.594018	-7.49	-26.46	25.41	-0.0896	-0.3083	-0.4086	
0.129686	0.73505	0.594018	-10.15	-24.71	30.52	-0.1013	-0.3199	-0.4059	
0.14213	0.726632	0.59231	-11.41	-26.53	31.43	-0.1144	-0.3026	-0.4088	
0.15799	0.727486	0.588162	-10.92	-30.38	31.36	-0.1143	-0.3057	-0.4088	
0.16104	0.72102	0.60329	-9.45	-34.65	30.94	-0.1325	-0.3078	-0.4033	
0.183488	0.726266	0.60939	-7.42	-37.24	30.73	-0.1346	-0.2987	-0.4104	
0.22021	0.716994	0.602802	-1.82	-38.85	30.73	-0.1333	-0.2895	-0.3973	
0.252174	0.733098	0.614758	1.47	-39.83	31.85	-0.1556	-0.3067	-0.3963	
0.261446	0.718336	0.615124	-0.28	-38.29	33.25	-0.1576	-0.296	-0.3947	
0.268278	0.727242	0.615368	0.21	-37.52	32.2	-0.1669	-0.2925	-0.3919	
0.28731	0.718214	0.591212	-7.07	-35.28	32.41	-0.17	-0.2923	-0.3905	
0.323056	0.726998	0.587308	0.63	-41.02	28.63	-0.1826	-0.2857	-0.3949	
0.343552	0.731634	0.599996	4.13	-43.75	24.57	-0.1914	-0.2929	-0.3907	
0.354654	0.748714	0.610366	1.26	-41.65	24.01	-0.2029	-0.2756	-0.3834	
0.365512	0.733098	0.595604	-6.3	-36.82	24.43	-0.2071	-0.2845	-0.3865	
0.381372	0.719068	0.581696	-10.85	-35.77	23.87	-0.212	-0.2797	-0.385	
0.393206	0.722728	0.576694	-8.4	-36.19	22.4	-0.2242	-0.2791	-0.3837	
0.416386	0.710284	0.572912	-7.63	-35	20.51	-0.2261	-0.2714	-0.3808	
0.435174	0.715896	0.575108	-9.52	-33.6	18.97	-0.2399	-0.2708	-0.378	
0.438346	0.70577	0.568276	-16.31	-30.8	19.74	-0.2383	-0.2708	-0.3693	
0.455182	0.703452	0.55327	-15.12	-30.8	19.11	-0.2461	-0.269	-0.3752	
0.470554	0.687958	0.55022	-12.04	-32.41	17.85	-0.2497	-0.2566	-0.3707	
0.48495	0.678808	0.542656	-10.29	-32.97	17.5	-0.2519	-0.2429	-0.3735	
0.48983	0.681492	0.529114	-8.47	-34.3	17.15	-0.253	-0.2519	-0.3693	
0.507154	0.686616	0.539484	-1.61	-36.12	15.05	-0.268	-0.2588	-0.3695	
0.519598	0.668316	0.5429	-7.35	-33.25	15.96	-0.2777	-0.2477	-0.3652	
0.530578	0.676734	0.525088	-9.66	-30.24	15.82	-0.2807	-0.249	-0.3609	
0.536434	0.66429	0.514962	-11.97	-28.49	15.47	-0.2796	-0.24	-0.3622	
0.543754	0.671976	0.519598	-6.44	-30.17	14.35	-0.2898	-0.2485	-0.3523	
0.546194	0.655628	0.53619	-7.21	-29.4	14.35	-0.2921	-0.2317	-0.3536	
0.559126	0.655018	0.543266	-7.63	-27.79	13.93	-0.2993	-0.242	-0.348	
0.555832	0.657092	0.518134	-11.41	-25.13	12.81	-0.3087	-0.2385	-0.3495	
0.553392	0.637694	0.499346	-13.02	-24.43	11.55	-0.303	-0.2298	-0.3595	
0.566446	0.63928	0.496784	-6.3	-27.23	10.01	-0.3167	-0.2306	-0.3509	
0.594262	0.63562	0.502762	-4.55	-29.26	7.84	-0.3242	-0.2316	-0.3409	
0.601948	0.631106	0.505934	-5.6	-28.49	8.61	-0.3261	-0.2256	-0.3496	
0.620614	0.640012	0.487024	-5.46	-27.09	7.56	-0.3313	-0.2116	-0.3393	
0.648674	0.6344	0.500566	-0.77	-28.77	6.51	-0.3307	-0.2237	-0.3394	
0.66917	0.6222	0.520208	-2.73	-25.62	7.14	-0.332	-0.225	-0.325	
0.679296	0.626104	0.514962	-7.7	-20.93	8.4	-0.3369	-0.2219	-0.3323	
0.705648	0.62403	0.50813	-10.71	-16.1	8.61	-0.3433	-0.2155	-0.3323	
0.720898	0.625128	0.501542	-10.43	-12.25	7.98	-0.3495	-0.2152	-0.3323	
0.731146	0.621346	0.503982	-7.77	-9.03	6.72	-0.345	-0.2124	-0.3308	
0.725046	0.61366	0.517402	-1.47	-3.78	4.41	-0.3448	-0.2138	-0.3236	
0.713334	0.602924	0.52521	-1.26	3.92	3.64	-0.3481	-0.2107	-0.3279	
0.695278	0.607804	0.50874	-7.49	13.16	4.62	-0.3559	-0.2073	-0.3251	
0.676368	0.610854	0.485194	-13.65	18.34	3.08	-0.3404	-0.2126	-0.3322	
0.66917	0.632936	0.482266	-7.07	17.71	-2.24	-0.3404	-0.2111	-0.3322	
0.656238	0.634278	0.509472	8.96	16.87	-10.43	-0.3408	-0.2035	-0.3379	
0.665388	0.62281	0.534116	19.18	20.44	-16.52	-0.3343	-0.2098	-0.3321	
0.670756	0.613782	0.5246	15.54	27.79	-17.85	-0.3372	-0.2158	-0.3336	
0.657702	0.637572	0.48434	8.19	32.06	-17.29	-0.3321	-0.2283	-0.3424	
0.63135	0.655262	0.47031	8.33	30.94	-20.09	-0.3204	-0.2151	-0.3421	
0.61549	0.682346	0.487756	20.37	28.42	-25.06	-0.3106	-0.2309	-0.3538	
0.608048	0.696498	0.522892	25.9	30.1	-29.33	-0.3177	-0.2427	-0.3525	
0.603168	0.680272	0.554978	23.73	36.26	-31.78	-0.3201	-0.2562	-0.344	
0.592798	0.684176	0.557784	21.77	42.98	-32.13	-0.2881	-0.2532	-0.3552	
0.561444	0.700646	0.527772	19.04	48.93	-31.36	-0.2867	-0.2502	-0.3537	
0.544852	0.710162	0.500566	21.49	50.26	-35	-0.2815	-0.2626	-0.3567	
0.527284	0.730902	0.519598	22.33	45.43	-42	-0.2658	-0.2709	-0.358	
0.495686	0.742004	0.543754	11.41	48.3	-45.36	-0.2647	-0.2634	-0.3652	
0.473848	0.729926	0.553636	6.02	52.01	-46.2	-0.2566	-0.2713	-0.3579	
0.464088	0.713578	0.549976	-3.71	56.91	-45.5	-0.2348	-0.2816	-0.3723	
0.42029	0.721386	0.532774	-12.81	59.29	-45.22	-0.2258	-0.2791	-0.3837	
0.38003	0.725412	0.541558	-3.85	56	-48.02	-0.2194	-0.2808	-0.3706	
0.367098	0.716384	0.559248	-0.49	52.85	-49.56	-0.204	-0.2846	-0.3777	
0.340014	0.737978	0.574132	8.96	52.29	-49.84	-0.1879	-0.299	-0.3763	
0.314028	0.73139	0.559492	10.64	52.71	-50.19	-0.1872	-0.2855	-0.3935	
0.278892	0.773602	0.564616	23.03	46.9	-51.52	-0.1555	-0.3051	-0.3861	
0.264496	0.771528	0.595116	12.81	43.05	-53.69	-0.1585	-0.308	-0.3891	
0.226798	0.774456	0.565836	6.09	47.74	-51.31	-0.1479	-0.3039	-0.3874	
0.196664	0.755546	0.537288	5.32	48.02	-51.24	-0.1352	-0.3137	-0.3917	
0.198128	0.771894	0.563884	18.69	43.54	-53.06	-0.1262	-0.3111	-0.3989	
0.172508	0.793488	0.603534	0.07	48.79	-49.49	-0.1118	-0.3239	-0.3959	
0.131516	0.76128	0.538996	-21.49	55.02	-44.31	-0.1103	-0.3224	-0.3974	
0.10004	0.763842	0.53924	0.14	44.38	-49.77	-0.0845	-0.316	-0.3985	
0.09942999	0.771162	0.602436	5.32	41.23	-50.4	-0.0859	-0.3206	-0.4029	
0.077348	0.77775	0.583282	-10.08	49.91	-50.05	-0.0721	-0.3197	-0.4056	
-0.02806	0.787266	0.605608	-20.02	59.29	-42.84	-0.0629	-0.3186	-0.4026	
0.001586	0.75701	0.565714	-9.24	56	-50.61	-0.0427	-0.3256	-0.4053	
-0.008417999	0.746152	0.618662	-6.86	52.36	-51.73	-0.0398	-0.3211	-0.4009	
-0.035624	0.754814	0.586942	-15.82	53.2	-47.39	-0.0149	-0.33	-0.4138	
-0.046848	0.745054	0.603046	-15.68	52.5	-48.51	-0.0172	-0.3147	-0.4136	
-0.101748	0.734318	0.564982	-12.04	48.65	-44.94	0.0026	-0.3141	-0.4192	
-0.130906	0.734074	0.57828	2.87	45.57	-43.75	0.0212	-0.3149	-0.406	
-0.16592	0.725656	0.5673	0.56	47.74	-39.06	0.029	-0.3199	-0.419	
-0.183488	0.743224	0.576816	4.27	46.9	-37.03	0.0397	-0.3172	-0.4072	
-0.217648	0.731756	0.56974	2.59	43.75	-35.84	0.0524	-0.3223	-0.3999	
-0.25376	0.749934	0.573766	4.97	38.43	-35.42	0.0582	-0.3181	-0.407	
-0.27572	0.757742	0.58011	1.96	38.29	-34.44	0.0657	-0.3154	-0.4098	
-0.313296	0.750788	0.590968	-13.02	39.9	-29.33	0.0731	-0.3097	-0.414	
-0.285236	0.743102	0.611098	3.5	33.88	-33.6	0.0807	-0.307	-0.4096	
-0.297436	0.712846	0.597312	-8.89	35.14	-32.41	0.0914	-0.306	-0.4124	
-0.329278	0.69784	0.574254	-12.18	31.92	-31.64	0.1005	-0.3049	-0.4166	
-0.324764	0.69784	0.583892	-4.9	26.18	-32.55	0.1099	-0.3068	-0.4064	
-0.32879	0.68991	0.592676	-3.5	23.38	-32.2	0.1067	-0.3052	-0.4122	
-0.341478	0.694668	0.594384	-3.01	22.33	-30.73	0.1204	-0.2996	-0.4004	
-0.351238	0.694546	0.592432	-3.08	21.35	-30.1	0.1284	-0.3044	-0.3946	
-0.37759	0.696132	0.60451	-1.68	20.93	-29.33	0.1371	-0.2958	-0.4031	
-0.389058	0.687958	0.599386	-4.55	23.45	-28.91	0.13	-0.306	-0.3902	
-0.379054	0.674538	0.598898	-5.32	23.1	-28.63	0.14	-0.293	-0.4103	
-0.383812	0.67222	0.59902	-5.46	23.59	-26.88	0.1496	-0.2978	-0.3943	
-0.395402	0.667462	0.588772	-5.53	24.01	-25.62	0.1497	-0.3009	-0.4001	
-0.416142	0.660386	0.594018	-2.8	24.43	-23.31	0.1525	-0.2949	-0.3986	
-0.419802	0.666852	0.589138	-3.43	26.46	-21.07	0.1647	-0.294	-0.397	
-0.41602	0.65941	0.601826	-4.69	27.58	-18.62	0.1676	-0.2896	-0.3998	
-0.424804	0.653554	0.587796	-7.98	28.98	-16.1	0.1739	-0.2913	-0.3939	
-0.446276	0.65026	0.57218	-7.84	30.45	-14.14	0.1734	-0.2838	-0.4011	
-0.4758	0.640622	0.553392	-10.22	30.87	-11.62	0.1902	-0.2815	-0.398	
-0.48617	0.63928	0.546438	-9.52	29.54	-9.17	0.1872	-0.2797	-0.3893	
-0.51606	0.638548	0.542656	-10.36	28.28	-6.65	0.1856	-0.2781	-0.385	
-0.553026	0.639524	0.526552	-10.78	26.74	-5.39	0.2012	-0.2834	-0.3921	
-0.561078	0.637816	0.525942	-9.52	23.45	-5.18	0.2026	-0.2804	-0.3877	




-0.605486	0.646722	0.540948	-1.33	10.57	-5.25	0.2254	-0.2754	-0.3845	



-0.586088	0.588284	0.520086	1.75	1.05	-1.96	0.2254	-0.2754	-0.3845	



-0.601094	0.596824	0.536068	2.8	-5.74	7.98	0.2267	-0.2693	-0.3816	
-0.602436	0.592676	0.522526	1.33	-6.72	10.71	0.2195	-0.2812	-0.389	
-0.597434	0.59658	0.518256	5.04	-10.92	12.6	0.2211	-0.2828	-0.389	
-0.587796	0.618662	0.537776	9.45	-14.77	14.21	0.2057	-0.2806	-0.3906	
-0.581452	0.627202	0.53802	9.59	-15.68	16.66	0.2085	-0.2746	-0.3818	
-0.570228	0.617564	0.515084	5.74	-18.13	19.46	0.2134	-0.2809	-0.3818	
-0.556198	0.61	0.52765	7.91	-22.33	23.17	0.2011	-0.2819	-0.3878	

-0.538386	0.601582	0.50203	6.16	-29.54	27.37	0.189	-0.2859	-0.3908	
-0.498736	0.617686	0.524356	11.62	-34.16	29.4	0.1865	-0.2995	-0.3924	
-0.473848	0.632936	0.54046	10.92	-33.74	33.11	0.1804	-0.2976	-0.3881	
-0.450546	0.655384	0.523746	3.71	-31.08	37.24	0.1834	-0.2978	-0.3939	
-0.415532	0.662216	0.522282	4.41	-33.18	38.92	0.1712	-0.3019	-0.397	
-0.403454	0.692228	0.528138	2.8	-31.78	43.33	0.1527	-0.2979	-0.3884	
-0.385398	0.707112	0.540338	6.02	-25.13	48.37	0.1483	-0.3054	-0.4001	
-0.34465	0.726632	0.549854	-5.67	-25.83	53.62	0.1422	-0.3051	-0.3988	
-0.321226	0.742614	0.555344	-3.22	-35.14	52.92	0.1282	-0.2999	-0.3931	
-0.2867	0.760792	0.558272	-0.91	-39.9	51.38	0.1254	-0.3074	-0.3975	
-0.26779	0.754936	0.577914	-6.02	-37.31	55.44	0.1164	-0.3115	-0.3948	
-0.228262	0.76189	0.581818	-6.79	-35.91	56.63	0.0993	-0.3093	-0.408	
-0.205814	0.763598	0.58865	-6.16	-36.75	55.37	0.0964	-0.3106	-0.3993	
-0.211426	0.779824	0.601338	-3.15	-40.04	52.64	0.0858	-0.3163	-0.4038	
-0.17995	0.763476	0.59597	1.26	-41.3	50.61	0.0764	-0.3128	-0.4054	
-0.148352	0.765306	0.604022	4.76	-42.56	50.19	0.058	-0.3135	-0.4041	
-0.129198	0.775554	0.60024	5.81	-43.47	49.42	0.0503	-0.3148	-0.4143	
-0.11956	0.770552	0.597068	5.67	-45.01	47.32	0.0381	-0.3157	-0.413	
-0.082716	0.766892	0.59658	6.16	-45.85	45.57	0.0349	-0.3125	-0.413	
-0.064538	0.781532	0.61732	10.64	-44.66	44.52	0.0243	-0.3181	-0.4161	
-0.05429	0.79483	0.603412	7.56	-42.7	44.38	0.0186	-0.3238	-0.4032	
-0.027084	0.794708	0.598532	2.03	-42.91	43.12	0.007999999	-0.3311	-0.415	
-0.012932	0.793244	0.596946	3.85	-44.45	42.7	-0.0028	-0.326	-0.4107	
0.004636	0.779946	0.594628	4.83	-42.35	42.91	-0.0148	-0.3315	-0.4123	
0.034282	0.762988	0.58316	0.42	-40.18	43.82	-0.0306	-0.3201	-0.4037	
0.069906	0.773114	0.582184	-0.28	-40.74	44.94	-0.0289	-0.3263	-0.4095	
0.10187	0.77287	0.58194	-5.25	-44.38	43.96	-0.0474	-0.3239	-0.4068	
0.134444	0.773236	0.569008	-0.56	-48.72	41.51	-0.0566	-0.3235	-0.4055	
0.152012	0.777262	0.588894	6.72	-49.84	40.18	-0.0706	-0.3198	-0.4056	
0.178242	0.785924	0.59536	2.45	-45.92	41.3	-0.0813	-0.3192	-0.3985	
0.19825	0.784582	0.583892	-3.71	-42.84	41.23	-0.0951	-0.3185	-0.3928	
0.230702	0.772382	0.584014	-3.22	-46.06	39.9	-0.1076	-0.3134	-0.3958	
0.252906	0.760548	0.58865	-5.74	-47.81	37.38	-0.117	-0.3084	-0.3915	
0.27145	0.753106	0.591822	-5.81	-44.94	36.47	-0.137	-0.3107	-0.4033	
0.283894	0.74237	0.587918	-11.9	-40.95	37.73	-0.1356	-0.3061	-0.396	
0.299754	0.729682	0.580598	-10.43	-41.79	35.14	-0.1494	-0.3054	-0.3904	
0.314028	0.722362	0.574986	-11.34	-42.35	34.44	-0.1666	-0.3001	-0.3934	
0.311466	0.737734	0.579012	-9.24	-43.82	33.81	-0.1681	-0.2985	-0.3891	
0.332816	0.738588	0.57828	-11.13	-44.94	33.32	-0.1757	-0.3011	-0.3877	
0.342454	0.726388	0.579378	-11.69	-44.45	32.76	-0.196	-0.291	-0.3821	
0.359778	0.723826	0.581208	-9.87	-43.96	32.48	-0.193	-0.2912	-0.3878	
0.360754	0.723704	0.592554	-14.77	-43.47	31.08	-0.2055	-0.286	-0.3792	
0.379664	0.731024	0.576572	-14	-42	29.19	-0.2196	-0.2809	-0.3895	
0.391254	0.734318	0.574498	-16.87	-38.64	27.86	-0.2205	-0.2611	-0.382	
0.413702	0.731146	0.569496	-15.68	-38.29	25.76	-0.2199	-0.2733	-0.3836	
0.430172	0.732244	0.569984	-14.77	-38.08	23.24	-0.2396	-0.2768	-0.3708	
0.439688	0.712846	0.55083	-23.38	-37.52	22.33	-0.2357	-0.2634	-0.3808	
0.470066	0.721264	0.547658	-20.37	-41.09	19.39	-0.2622	-0.2561	-0.3825	
0.469822	0.720776	0.561444	-19.67	-43.4	17.85	-0.2481	-0.2582	-0.3736	
0.489708	0.685152	0.560834	-25.06	-42.7	16.24	-0.2562	-0.2487	-0.3678	
0.515084	0.67405	0.540704	-27.09	-41.51	16.52	-0.2749	-0.2433	-0.3709	
0.512522	0.656726	0.53314	-26.04	-42.49	14.49	-0.2828	-0.2368	-0.3666	
0.54412	0.64233	0.534726	-23.8	-43.26	11.41	-0.2964	-0.2391	-0.3551	
0.576328	0.623542	0.55022	-17.36	-43.75	10.29	-0.2941	-0.2241	-0.3651	
0.592554	0.610732	0.565348	-14.42	-41.93	9.94	-0.3048	-0.2251	-0.3609	
0.602558	0.595604	0.564006	-14.63	-38.01	10.71	-0.303	-0.2281	-0.3508	
0.61061	0.592188	0.54595	-16.17	-33.67	10.99	-0.3049	-0.2189	-0.342	
0.591212	0.600362	0.53802	-9.94	-31.64	10.64	-0.3216	-0.2258	-0.3524	
0.588528	0.61122	0.513986	-5.67	-29.54	10.78	-0.3157	-0.2184	-0.345	
0.625738	0.637816	0.53497	-4.48	-28.63	10.36	-0.3266	-0.2133	-0.3379	
0.601582	0.57889	0.48861	-5.53	-24.08	14.7	-0.3376	-0.2098	-0.3437	
0.598166	0.621712	0.534116	8.54	-31.92	7	-0.3356	-0.219	-0.3409	
0.623298	0.609268	0.520086	-4.76	-23.73	11.55	-0.3328	-0.2099	-0.3321	
0.622932	0.616954	0.487634	-11.34	-24.01	11.48	-0.3386	-0.2141	-0.3221	
0.61549	0.623664	0.478972	-6.79	-25.97	4.97	-0.3423	-0.2018	-0.322	
0.641842	0.615856	0.493368	-0.63	-27.65	2.03	-0.3481	-0.2091	-0.325	
0.649406	0.602314	0.507032	1.75	-27.51	1.19	-0.344	-0.1971	-0.3176	
0.665266	0.58926	0.510082	-4.48	-24.08	1.75	-0.359	-0.2056	-0.3208	
0.676978	0.591944	0.500688	-4.48	-20.58	3.29	-0.3562	-0.2012	-0.3265	
0.688934	0.584258	0.493856	-7.49	-16.8	4.69	-0.3604	-0.207	-0.3179	
0.694912	0.546072	0.484828	-10.92	-14.07	6.09	-0.3638	-0.2007	-0.3179	
0.7015	0.559492	0.467992	-7.91	-13.37	7.7	-0.3613	-0.1856	-0.3119	
0.711138	0.567422	0.459086	-10.08	-12.18	7.84	-0.3688	-0.1929	-0.3193	
0.71004	0.555832	0.466772	-7.56	-11.97	6.93	-0.3733	-0.1927	-0.3121	
0.711748	0.577426	0.466406	-3.92	-9.52	6.44	-0.3641	-0.1915	-0.3062	
0.713334	0.584136	0.469944	-3.78	-5.95	5.46	-0.3676	-0.1823	-0.309	
0.670634	0.598288	0.485194	-3.36	-5.74	4.41	-0.3765	-0.1863	-0.3019	
0.756156	0.587186	0.441884	13.16	-5.32	-7.35	-0.3827	-0.1845	-0.2991	
0.737612	0.584624	0.503006	8.12	-3.71	-3.29	-0.3734	-0.1911	-0.3121	
0.736636	0.578768	0.493002	1.61	5.6	-1.47	-0.372	-0.1866	-0.3062	
0.729926	0.584868	0.442372	-7.07	12.74	0.14	-0.3686	-0.1928	-0.3092	
0.718702	0.603168	0.427976	0.7	10.01	-4.76	-0.3742	-0.2047	-0.3079	
0.709308	0.61732	0.454694	9.59	7.56	-9.87	-0.3774	-0.2015	-0.3079	
0.726998	0.605608	0.46909	7.98	12.39	-15.05	-0.3673	-0.1915	-0.3178	
0.720654	0.608902	0.470066	7.84	16.73	-16.03	-0.3653	-0.2007	-0.3164	
0.716384	0.625738	0.476654	12.6	20.37	-18.41	-0.3557	-0.2087	-0.3179	
0.715896	0.633912	0.496296	16.03	24.36	-20.58	-0.368	-0.2097	-0.318	
0.70455	0.633302	0.49898	15.4	28.84	-22.68	-0.356	-0.2042	-0.3193	
0.695278	0.638548	0.481168	11.13	33.39	-25.48	-0.3462	-0.2183	-0.3265	
0.676368	0.659532	0.483364	13.23	36.33	-27.51	-0.3478	-0.2168	-0.3309	
0.655262	0.683078	0.505446	21.84	37.1	-29.96	-0.3317	-0.2342	-0.3309	
0.653432	0.690886	0.54534	25.06	41.3	-33.53	-0.3321	-0.2251	-0.3293	
0.63867	0.679906	0.526186	10.64	53.97	-27.16	-0.3238	-0.2439	-0.3483	
0.62403	0.670878	0.490684	-2.73	62.58	-23.38	-0.3146	-0.2397	-0.3409	
0.591944	0.671732	0.502274	0.7	64.05	-24.57	-0.3022	-0.2417	-0.3379	
0.562176	0.679296	0.522282	5.25	67.06	-25.9	-0.2914	-0.2485	-0.3595	
0.541314	0.678808	0.529236	7.42	69.09	-27.51	-0.2834	-0.2565	-0.3653	
0.525332	0.685396	0.53558	9.59	69.16	-31.5	-0.2668	-0.2528	-0.3694	
0.500322	0.698328	0.556686	7.14	70.91	-33.46	-0.2467	-0.2552	-0.3692	
0.467138	0.711626	0.574254	2.38	73.78	-35.84	-0.245	-0.2599	-0.3751	
0.427976	0.719312	0.562786	8.26	73.01	-38.64	-0.234	-0.2681	-0.3881	
0.391254	0.731146	0.579256	14.42	71.75	-42.91	-0.2217	-0.2702	-0.3894	
0.375638	0.722362	0.569008	8.19	71.61	-44.1	-0.2103	-0.2829	-0.3879	
0.36417	0.723094	0.550586	8.33	71.75	-46.06	-0.1933	-0.2868	-0.3979	
0.311832	0.724802	0.548512	20.86	68.81	-48.02	-0.1626	-0.2866	-0.3918	
0.274744	0.757376	0.550708	27.16	65.03	-51.52	-0.1696	-0.2999	-0.3862	
0.263764	0.769332	0.565714	22.33	63.56	-51.17	-0.1485	-0.2949	-0.4004	
0.23851	0.773602	0.58072	18.13	59.99	-55.44	-0.1404	-0.3013	-0.3931	
0.20679	0.758596	0.56547	-0.63	63.77	-54.88	-0.1216	-0.3129	-0.4075	
0.17019	0.74847	0.588162	-7.42	55.58	-58.31	-0.1015	-0.3137	-0.3943	
0.123708	0.75396	0.576816	-19.04	63.98	-56.42	-0.0941	-0.3096	-0.4028	
0.061244	0.732854	0.532286	-17.78	65.31	-55.72	-0.0805	-0.3042	-0.407	
0.042334	0.742126	0.575108	10.71	53.62	-61.53	-0.07099999	-0.3138	-0.4157	
0.003782	0.752496	0.630008	-5.39	60.41	-55.93	-0.0556	-0.3145	-0.4126	
-0.057462	0.721874	0.530578	-27.58	63.98	-50.61	-0.0332	-0.3003	-0.4122	
-0.062952	0.710894	0.565836	-4.34	49	-53.48	-0.0251	-0.3083	-0.4122	
-0.074542	0.722972	0.601704	-2.03	49.84	-48.93	-0.0093	-0.3181	-0.4136	
-0.09516	0.705282	0.596702	-12.39	52.64	-46.62	-0.0015	-0.3215	-0.415	
-0.135786	0.71736	0.598654	-6.79	47.39	-42.7	0.0038	-0.3066	-0.4177	
-0.182024	0.744688	0.608902	2.38	43.05	-42.49	0.0287	-0.3122	-0.4102	
-0.191784	0.752374	0.607804	4.62	43.61	-43.96	0.0298	-0.3048	-0.4232	
-0.200202	0.749812	0.6222	8.68	40.95	-45.43	0.0482	-0.3009	-0.4084	
-0.202154	0.732976	0.623176	2.66	37.52	-42.91	0.0516	-0.3103	-0.4201	
-0.210328	0.70028	0.587186	-9.94	33.81	-43.68	0.0605	-0.3046	-0.4185	
-0.235582	0.69967	0.604998	-3.22	26.18	-44.17	0.0619	-0.3001	-0.4199	
-0.256078	0.695888	0.615856	-5.74	27.44	-41.02	0.0712	-0.3036	-0.4184	
-0.27145	0.689666	0.61305	-6.86	31.22	-38.92	0.07979999	-0.2903	-0.4181	
-0.279258	0.693448	0.620492	-2.52	28.42	-39.62	0.1021	-0.305	-0.4137	
-0.298778	0.686128	0.627324	-1.05	26.67	-40.04	0.1064	-0.299	-0.4107	
-0.318664	0.688568	0.617686	-1.68	27.44	-38.36	0.1001	-0.2926	-0.4063	
-0.327448	0.688812	0.608902	-2.8	28.07	-36.54	0.1184	-0.292	-0.4148	
-0.326716	0.679052	0.609512	-3.43	27.44	-35.49	0.1231	-0.2937	-0.4105	
-0.334036	0.668072	0.608902	-5.04	28.07	-33.18	0.1308	-0.2925	-0.4075	
-0.362218	0.676856	0.59475	-6.37	29.68	-30.1	0.1308	-0.2941	-0.4118	
-0.395646	0.665632	0.587674	-9.45	32.27	-26.18	0.1445	-0.2901	-0.4058	
-0.420168	0.661972	0.580354	-9.8	31.85	-24.57	0.1562	-0.2785	-0.407	
-0.462136	0.668438	0.570472	-11.69	29.54	-22.89	0.1497	-0.2675	-0.3969	
-0.475922	0.658922	0.557296	-12.88	28.77	-21.7	0.1561	-0.2738	-0.3969	
-0.497272	0.649284	0.575108	-13.93	25.83	-20.09	0.179	-0.2719	-0.4053	
-0.472384	0.626348	0.587796	-11.06	26.11	-19.74	0.1728	-0.2685	-0.3952	
-0.486048	0.610366	0.584624	-10.57	26.81	-17.99	0.179	-0.2719	-0.4053	
-0.497272	0.61549	0.594262	-5.74	23.45	-17.99	0.1802	-0.2643	-0.398	
-0.482022	0.613904	0.602314	-3.57	22.12	-16.17	0.1895	-0.2647	-0.3964	
-0.508984	0.611708	0.577792	-11.41	23.17	-14.56	0.1931	-0.2771	-0.3979	
-0.52033	0.607316	0.583404	-6.58	20.3	-15.12	0.192	-0.2527	-0.3977	
-0.527772	0.60451	0.575352	-6.79	19.18	-15.05	0.2047	-0.2624	-0.3962	
-0.531188	0.604876	0.577426	-5.11	16.52	-14.84	0.2015	-0.2592	-0.3977	
-0.54534	0.606828	0.577792	-5.53	15.4	-14	0.2047	-0.2609	-0.3977	
-0.560834	0.602314	0.576206	-5.81	15.26	-12.74	0.2137	-0.2583	-0.4004	
-0.568764	0.58926	0.579256	-6.02	13.86	-11.13	0.2122	-0.2566	-0.3961	
-0.580964	0.584624	0.582672	-6.16	13.93	-9.87	0.2072	-0.2488	-0.399	
-0.59719	0.581574	0.580354	-5.74	15.05	-8.19	0.2186	-0.263	-0.399	
-0.603778	0.57462	0.57828	-5.46	13.86	-6.58	0.2289	-0.2528	-0.3944	
-0.60878	0.56364	0.572912	-5.04	11.62	-5.25	0.2181	-0.2523	-0.3931	
-0.611464	0.552294	0.566568	-5.53	9.73	-3.29	0.2245	-0.2556	-0.3901	
-0.60451	0.543632	0.562664	-5.6	7.14	-0.56	0.2238	-0.2404	-0.39	
-0.610244	0.541192	0.5673	-4.41	4.76	2.38	0.2253	-0.2405	-0.3914	
-0.620736	0.53985	0.565836	-2.94	3.01	4.41	0.2164	-0.2461	-0.3873	
-0.622444	0.526552	0.567056	-3.01	0.63	6.51	0.2313	-0.2361	-0.3826	
-0.615246	0.535702	0.570106	-0.07	-3.15	7.63	0.2288	-0.2482	-0.3857	
-0.608902	0.557296	0.583526	3.92	-5.74	9.52	0.2318	-0.2484	-0.3914	
-0.613294	0.573888	0.57401	4.41	-5.18	11.41	0.2319	-0.2483	-0.3784	
-0.611098	0.56669	0.55876	2.8	-9.38	13.37	0.2197	-0.2508	-0.3873	
-0.599874	0.556442	0.563274	5.39	-13.65	15.4	0.2253	-0.242	-0.3929	
-0.598532	0.553026	0.552416	4.55	-15.47	17.92	0.2099	-0.2398	-0.3916	
-0.591212	0.551318	0.55937	5.95	-17.36	20.51	0.2203	-0.2661	-0.3903	


-0.548512	0.587552	0.571326	10.22	-24.08	26.88	0.2016	-0.2623	-0.3992	
-0.546926	0.595116	0.555466	8.05	-23.94	30.24	0.1985	-0.2606	-0.4021	
-0.52277	0.59658	0.576206	14.91	-28.14	32.83	0.1802	-0.2644	-0.4052	
-0.496906	0.58316	0.558028	5.32	-28.42	37.52	0.1821	-0.272	-0.3966	
-0.470554	0.585844	0.537166	2.8	-31.64	41.51	0.1822	-0.2735	-0.3966	
-0.446032	0.62525	0.55754	10.92	-37.17	43.68	0.1696	-0.2653	-0.3966	
-0.434076	0.661728	0.568642	9.31	-35.49	47.25	0.1596	-0.2816	-0.394	
-0.404064	0.672342	0.57828	5.46	-32.55	52.01	0.156	-0.2739	-0.4041	
-0.355264	0.66734	0.580232	1.12	-32.34	55.3	0.1489	-0.2874	-0.4145	
-0.342454	0.688812	0.583892	7.35	-37.24	56.49	0.1432	-0.2946	-0.4044	
-0.294264	0.694668	0.593164	5.53	-45.01	55.02	0.1341	-0.2972	-0.406	
-0.270596	0.72346	0.60268	7.35	-46.13	56.07	0.117	-0.2934	-0.4091	
-0.25559	0.718336	0.606462	0.84	-43.19	56.7	0.1061	-0.293	-0.4135	
-0.238388	0.731512	0.584868	-0.35	-43.05	55.86	0.1015	-0.2912	-0.4063	
-0.21411	0.75213	0.584014	-0.84	-46.13	54.74	0.088	-0.2982	-0.408	
-0.163236	0.750666	0.5917	-0.14	-47.39	53.62	0.0742	-0.3007	-0.4168	
-0.141886	0.751886	0.597434	0.63	-48.3	53.48	0.0636	-0.3017	-0.4112	
-0.121268	0.754814	0.602436	-0.56	-49.98	52.29	0.0558	-0.3014	-0.4185	
-0.092232	0.75335	0.607926	1.4	-51.59	49.91	0.0435	-0.3023	-0.4186	
-0.064904	0.772016	0.628788	8.61	-53.34	46.34	0.0237	-0.3029	-0.4102	
-0.038796	0.77409	0.625372	8.68	-53.62	45.01	0.0089	-0.3174	-0.4163	
-0.000488	0.756644	0.613538	3.99	-54.18	44.38	-0.0161	-0.3057	-0.4222	
0.029768	0.751886	0.598654	1.82	-53.55	43.47	-0.0207	-0.307	-0.4208	
0.051118	0.747128	0.614392	0.7	-56.56	43.33	-0.0266	-0.3113	-0.4195	
0.089182	0.755058	0.620614	2.73	-56.7	43.33	-0.0421	-0.306	-0.4124	
0.105774	0.763842	0.608902	0	-54.18	44.1	-0.0558	-0.3084	-0.4126	
0.125172	0.753716	0.600728	2.59	-52.85	42.7	-0.0635	-0.3096	-0.4155	
0.147376	0.772016	0.609146	5.46	-52.78	41.93	-0.0772	-0.3104	-0.407	
0.168482	0.76616	0.593652	2.59	-51.38	40.18	-0.0884	-0.2992	-0.4056	
0.197396	0.768722	0.586088	1.05	-50.82	39.62	-0.105	-0.3076	-0.4073	
0.22509	0.76006	0.580842	-3.01	-49.28	40.81	-0.1127	-0.3057	-0.403	
0.260714	0.777018	0.595116	1.4	-53.62	38.5	-0.1142	-0.3072	-0.4103	
0.270962	0.753594	0.596946	-7.77	-52.43	37.24	-0.1346	-0.2955	-0.4003	
0.278526	0.751154	0.589992	-14.07	-50.4	38.5	-0.1499	-0.2964	-0.4004	
0.308294	0.737246	0.603412	-19.67	-47.67	37.59	-0.1593	-0.2929	-0.402	
0.31354	0.725656	0.601582	-23.03	-46.06	37.94	-0.164	-0.288	-0.3889	
0.311344	0.719434	0.592066	-24.08	-45.57	35.7	-0.1783	-0.2799	-0.3991	
0.333792	0.718336	0.590602	-20.02	-45.92	33.6	-0.1861	-0.2765	-0.3963	
0.346236	0.717726	0.594628	-18.41	-48.44	31.99	-0.1861	-0.2765	-0.3963	
0.365634	0.711016	0.593164	-20.65	-52.85	28.56	-0.1923	-0.2746	-0.3891	
0.393938	0.701134	0.61122	-19.11	-54.25	25.41	-0.2019	-0.2666	-0.3935	
0.391254	0.69967	0.626958	-19.25	-52.78	26.04	-0.2228	-0.2459	-0.395	
0.421998	0.684908	0.60695	-22.68	-49.07	25.97	-0.2255	-0.2533	-0.3864	
0.47092	0.646722	0.60634	-22.68	-44.31	22.4	-0.2516	-0.2505	-0.3794	
0.444568	0.688568	0.61793	-24.36	-40.39	26.46	-0.2548	-0.2489	-0.3809	
0.46726	0.672586	0.599142	-26.46	-39.13	23.24	-0.254	-0.2322	-0.3807	
0.493124	0.637206	0.598288	-20.09	-44.31	19.6	-0.2657	-0.2422	-0.3693	
0.499712	0.612074	0.592554	-20.09	-43.96	16.94	-0.2786	-0.2294	-0.3693	
0.504958	0.616954	0.576328	-19.32	-44.87	15.75	-0.2802	-0.2279	-0.3708	
0.516304	0.623664	0.574498	-12.53	-45.15	14.28	-0.2896	-0.2212	-0.3578	
0.535824	0.615978	0.573766	-9.87	-42.07	13.72	-0.2904	-0.2046	-0.3649	
0.540826	0.607316	0.565592	-13.09	-39.41	14.28	-0.295	-0.2059	-0.3635	
0.556198	0.605242	0.55449	-8.68	-40.39	12.81	-0.3074	-0.2007	-0.3578	
0.567666	0.61	0.537044	-6.51	-40.6	12.46	-0.3102	-0.2066	-0.3535	
0.565104	0.604022	0.518012	-1.61	-42.77	13.65	-0.3242	-0.1998	-0.3478	
0.582672	0.630496	0.550952	7.07	-44.94	10.99	-0.3257	-0.2028	-0.3508	
0.59414	0.627324	0.563884	-0.42	-40.53	10.57	-0.3332	-0.2039	-0.3422	
0.610366	0.60939	0.552416	-9.31	-33.11	10.71	-0.3347	-0.2038	-0.3422	
0.63867	0.587796	0.524722	-14.84	-30.52	9.1	-0.341	-0.1989	-0.3306	
0.668194	0.566324	0.510448	-12.18	-30.73	7.35	-0.3442	-0.1957	-0.3321	
0.692472	0.554368	0.509106	-8.4	-32.34	5.74	-0.3485	-0.2031	-0.3308	
0.701256	0.558394	0.516182	-4.48	-31.22	3.85	-0.3563	-0.1981	-0.3221	
0.711626	0.560956	0.520452	-0.49	-28.63	3.29	-0.3582	-0.1905	-0.3293	
0.704794	0.564738	0.515206	-6.79	-22.82	5.88	-0.3595	-0.1933	-0.3163	
0.710284	0.565348	0.492636	-11.69	-18.76	6.3	-0.3624	-0.1978	-0.3193	
0.709186	0.574132	0.482632	-10.22	-17.85	5.46	-0.3749	-0.1911	-0.315	
0.71004	0.554734	0.49593	-5.88	-17.64	2.38	-0.366	-0.1839	-0.3105	
0.718702	0.539728	0.493612	-5.6	-13.86	2.87	-0.3735	-0.1881	-0.3106	
0.72834	0.527894	0.481046	-10.57	-10.99	3.57	-0.3661	-0.1808	-0.3105	
0.742492	0.538142	0.484828	-2.8	-10.01	2.94	-0.3845	-0.1846	-0.3165	
0.742004	0.52826	0.499468	-2.45	-6.72	3.64	-0.3741	-0.1759	-0.3148	
0.737246	0.532408	0.49837	-3.43	-2.31	4.13	-0.3818	-0.1756	-0.3135	
0.73444	0.550586	0.496296	-2.1	0.7	3.64	-0.3787	-0.1742	-0.3091	
0.732122	0.564738	0.492758	-1.05	3.01	1.96	-0.3726	-0.1745	-0.3163	
0.744932	0.54839	0.491904	-2.59	3.85	-0.98	-0.3758	-0.1697	-0.3076	
0.742858	0.551074	0.502152	1.96	3.71	-3.15	-0.383	-0.1831	-0.315	
0.738832	0.569862	0.508374	2.38	7.42	-4.48	-0.3739	-0.1805	-0.3163	
0.745054	0.575108	0.515328	3.15	11.2	-7	-0.3709	-0.1807	-0.3192	
0.756888	0.579134	0.522282	8.54	15.05	-10.64	-0.3752	-0.185	-0.3106	
0.754082	0.587796	0.537044	12.81	21.07	-13.93	-0.3752	-0.185	-0.3164	
0.754692	0.564982	0.540826	13.37	29.05	-16.45	-0.3689	-0.1899	-0.3222	
0.756034	0.572546	0.53375	9.03	36.61	-14.35	-0.3657	-0.1931	-0.3222	
0.73688	0.58682	0.527284	4.34	41.51	-14.07	-0.3582	-0.1889	-0.3177	
0.719434	0.595116	0.524356	5.88	46.69	-15.12	-0.3534	-0.1984	-0.3366	
0.697352	0.599264	0.536312	10.57	49	-18.69	-0.3472	-0.1971	-0.3307	
0.686738	0.59963	0.566568	19.04	51.17	-23.03	-0.3319	-0.1978	-0.3349	
0.67954	0.594384	0.584868	21.28	56.91	-24.43	-0.3391	-0.2081	-0.335	
0.663314	0.60634	0.58072	21.35	64.12	-24.36	-0.3211	-0.1999	-0.342	
0.626958	0.621712	0.569618	21.91	69.09	-24.85	-0.3079	-0.2203	-0.3479	
0.594872	0.638304	0.554612	17.92	69.93	-27.51	-0.3111	-0.2218	-0.3595	
0.574742	0.649284	0.541436	17.92	70	-29.61	-0.2907	-0.2303	-0.3593	
0.5551	0.66002	0.56669	19.39	69.51	-32.55	-0.2811	-0.2415	-0.368	
0.525088	0.66002	0.572058	17.43	72.52	-31.99	-0.2752	-0.2388	-0.381	
0.488854	0.691008	0.571936	21.28	75.6	-33.32	-0.2444	-0.2402	-0.3792	
0.441274	0.689178	0.5673	15.89	79.1	-34.79	-0.2209	-0.252	-0.3834	
0.400526	0.701622	0.560468	12.53	81.34	-34.86	-0.2208	-0.2551	-0.3907	
0.372954	0.693204	0.555466	11.97	80.15	-35.98	-0.1989	-0.2668	-0.3978	
0.33123	0.726998	0.578402	15.4	76.44	-38.22	-0.1816	-0.2783	-0.4093	
0.300486	0.724436	0.564494	11.34	74.76	-40.53	-0.1831	-0.2782	-0.405	
0.263642	0.741272	0.555344	24.22	67.97	-44.87	-0.1602	-0.2762	-0.4076	
0.24827	0.752008	0.594994	24.22	65.66	-46.97	-0.1464	-0.2753	-0.406	
0.190686	0.777384	0.596092	0.98	71.61	-47.6	-0.1351	-0.2865	-0.406	
0.139202	0.752252	0.53253	-11.62	69.86	-49.42	-0.1182	-0.2888	-0.4131	
0.111752	0.757986	0.564372	7.21	58.03	-57.05	-0.103	-0.2881	-0.4245	
0.113948	0.748836	0.594262	1.89	58.45	-57.54	-0.0888	-0.2963	-0.4229	
0.106506	0.72468	0.604998	-15.4	66.01	-52.36	-0.0707	-0.2881	-0.4241	
0.049288	0.75945	0.582306	-26.81	69.44	-50.4	-0.0625	-0.2975	-0.4169	
0.01647	0.733952	0.577182	-4.06	59.99	-58.73	-0.0539	-0.2858	-0.4239	
-0.005612	0.709674	0.64355	-1.26	52.92	-59.36	-0.0243	-0.2947	-0.4222	
-0.02562	0.676002	0.60451	-11.34	53.48	-56.35	-0.0263	-0.2871	-0.4323	
-0.073444	0.684786	0.655872	2.73	48.58	-58.17	0	-0.2898	-0.4277	
-0.086254	0.701622	0.63867	-11.34	48.65	-52.57	0.009099999	-0.2918	-0.4305	
-0.085522	0.688812	0.612196	-7.28	47.18	-51.45	0.009099999	-0.2918	-0.4291	
-0.111264	0.691618	0.64355	5.81	44.31	-52.15	0.0382	-0.2885	-0.4244	
-0.1586	0.691618	0.650504	3.5	49.14	-48.65	0.0434	-0.3009	-0.423	
-0.172142	0.676856	0.62464	-5.11	47.88	-46.48	0.0488	-0.2828	-0.4199	
-0.168604	0.67588	0.652944	5.81	41.37	-46.69	0.0613	-0.2896	-0.4285	
-0.192272	0.666852	0.648796	0.28	42.42	-45.01	0.0641	-0.282	-0.4226	
-0.242048	0.654896	0.632692	-5.6	43.05	-40.11	0.0814	-0.2904	-0.4167	
-0.259982	0.65636	0.637328	0.63	41.16	-38.5	0.0838	-0.2784	-0.4252	
-0.298778	0.662582	0.62952	-1.61	41.02	-34.58	0.0964	-0.2835	-0.4164	
-0.32086	0.666486	0.614026	-3.08	41.02	-33.11	0.1057	-0.2839	-0.4178	
-0.352824	0.677466	0.615734	-1.12	40.32	-32.34	0.1223	-0.277	-0.4089	
-0.373442	0.675758	0.61305	-4.13	40.6	-30.87	0.1234	-0.2695	-0.4204	
-0.390644	0.658434	0.596702	-9.31	40.88	-28.49	0.1312	-0.2714	-0.4188	
-0.407236	0.647454	0.59048	-7.84	38.36	-26.67	0.1422	-0.2748	-0.4057	
-0.41358	0.64782	0.586088	-7.21	33.67	-25.55	0.1425	-0.281	-0.4116	
-0.421998	0.648308	0.586332	-8.4	31.64	-24.85	0.156	-0.2755	-0.4114	
-0.433344	0.639524	0.597068	-6.58	30.38	-24.08	0.16	-0.262	-0.4112	
-0.457256	0.632326	0.588162	-10.64	29.75	-22.33	0.1568	-0.2588	-0.4069	
-0.468236	0.630252	0.600362	-7.49	27.3	-22.26	0.1757	-0.2688	-0.4082	
-0.463356	0.626958	0.613904	-5.25	25.55	-22.75	0.1796	-0.2522	-0.4036	
-0.47885	0.62525	0.604998	-9.52	25.76	-21.42	0.1798	-0.2568	-0.4037	
-0.503738	0.619882	0.60878	-7.42	25.34	-20.51	0.1842	-0.2508	-0.3992	
-0.499956	0.600606	0.604876	-8.26	24.08	-20.02	0.1828	-0.2523	-0.3949	
-0.499102	0.598166	0.598044	-6.58	22.4	-20.09	0.1873	-0.2525	-0.4007	
-0.495808	0.592798	0.606096	-4.9	21.35	-19.32	0.1965	-0.2514	-0.3977	
-0.504592	0.588772	0.605852	-6.58	22.19	-17.29	0.2084	-0.2413	-0.3989	
-0.523258	0.583648	0.606462	-5.74	23.1	-15.26	0.2069	-0.2427	-0.396	
-0.543144	0.58682	0.593408	-7.7	23.31	-13.44	0.2177	-0.2464	-0.409	
-0.566324	0.594262	0.589992	-7.28	22.12	-11.76	0.2176	-0.2385	-0.3843	
-0.580964	0.58499	0.585356	-8.26	20.65	-11.97	0.2207	-0.2418	-0.3944	
-0.587918	0.567788	0.57828	-8.68	20.16	-11.27	0.2315	-0.2438	-0.3958	
-0.585722	0.549732	0.568398	-9.66	19.67	-9.73	0.2253	-0.242	-0.3944	
-0.584258	0.549854	0.567544	-9.17	18.76	-7.42	0.2311	-0.2347	-0.3986	
-0.586332	0.548146	0.57584	-7.35	16.03	-6.23	0.2435	-0.2352	-0.3868	
-0.628788	0.547536	0.568154	-7.28	15.05	-3.92	0.2494	-0.2278	-0.3824	
-0.633668	0.549488	0.562786	-5.11	12.88	-3.29	0.2498	-0.2354	-0.3795	
-0.642208	0.550342	0.55632	-5.04	9.87	-3.22	0.2477	-0.2279	-0.394	
-0.639158	0.5612	0.564006	-1.26	4.97	-4.2	0.2434	-0.2337	-0.3883	
-0.644526	0.54961	0.562054	-2.8	2.52	-3.29	0.2493	-0.2279	-0.3882	
-0.648308	0.538508	0.55876	-2.73	0.56	-0.84	0.2522	-0.2219	-0.3837	
-0.645014	0.537776	0.55327	-1.75	-2.73	0.91	0.242	-0.2351	-0.3869	
-0.654652	0.53802	0.560834	0.56	-6.86	2.52	0.2477	-0.2247	-0.3838	
-0.656726	0.52704	0.560468	1.54	-10.36	3.71	0.24	-0.2244	-0.3868	
-0.665144	0.533262	0.571204	7.56	-13.23	5.6	0.2447	-0.2261	-0.381	
-0.643306	0.513376	0.567422	4.83	-15.05	7.7	0.2374	-0.2349	-0.3869	
-0.605974	0.50996	0.5734	6.44	-18.48	11.13	0.2369	-0.2258	-0.3897	
-0.60695	0.514474	0.566446	5.18	-20.79	14.84	0.2325	-0.2302	-0.3927	
-0.62586	0.526064	0.574132	8.47	-24.64	17.57	0.231	-0.2316	-0.3913	
-0.643062	0.527528	0.565958	7.7	-28.49	20.44	0.2264	-0.2314	-0.3913	
-0.628788	0.518256	0.541802	4.55	-33.39	22.75	0.2206	-0.2372	-0.3886	
-0.58804	0.49837	0.578524	17.36	-43.4	22.47	0.2159	-0.2386	-0.3988	
-0.557906	0.53253	0.581574	19.11	-43.26	25.34	0.2039	-0.2457	-0.399	
-0.526796	0.580964	0.579988	21.42	-42.63	27.58	0.1963	-0.2469	-0.4034	
-0.51545	0.589992	0.588894	16.73	-39.9	31.22	0.181	-0.2493	-0.4079	
-0.504836	0.584502	0.555832	4.27	-39.06	35.28	0.185	-0.2691	-0.4023	
-0.457134	0.59597	0.542656	9.03	-50.54	34.09	0.1695	-0.2654	-0.3995	
-0.392352	0.623908	0.607682	24.64	-63.35	30.31	0.1616	-0.262	-0.4068	
-0.357704	0.666974	0.672464	29.19	-58.66	34.16	0.1557	-0.2694	-0.4128	
-0.35197	0.681248	0.646112	8.26	-45.22	41.65	0.1361	-0.2776	-0.4131	
-0.302682	0.674538	0.632692	7.98	-45.71	38.85	0.13	-0.2773	-0.4102	
-0.274378	0.672708	0.637938	12.18	-48.09	36.96	0.1086	-0.2794	-0.4105	
-0.271206	0.689422	0.632936	10.92	-45.5	37.52	0.1211	-0.2845	-0.4118	
-0.223992	0.682956	0.637084	10.92	-44.52	36.75	0.1024	-0.2807	-0.4178	
-0.199226	0.694424	0.660752	9.24	-42.28	38.99	0.09209999	-0.2878	-0.4107	
-0.175802	0.707112	0.642818	5.18	-37.94	39.76	0.07979999	-0.2903	-0.4181	
-0.187026	0.711138	0.637206	5.39	-37.8	41.09	0.0755	-0.2946	-0.4153	
-0.168604	0.722606	0.625982	7.42	-38.36	38.85	0.0709	-0.2944	-0.4139	
-0.138226	0.731878	0.634644	16.24	-42	35.56	0.0575	-0.3076	-0.4272	
-0.10553	0.743956	0.637938	17.43	-44.1	34.09	0.0455	-0.3084	-0.4085	
-0.07564	0.759328	0.639036	15.82	-42.07	34.93	0.0391	-0.3067	-0.4202	
-0.044408	0.772626	0.623542	13.3	-42.84	32.76	0.041	-0.3128	-0.4159	
-0.02806	0.789096	0.640622	11.97	-43.19	31.92	0.0164	-0.3117	-0.4147	
-0.01708	0.795928	0.629886	7.84	-41.16	31.71	0.0146	-0.3055	-0.4132	
0.015616	0.802638	0.644038	11.76	-40.32	30.94	0.0034	-0.2974	-0.4147	
0.100162	0.81679	0.710894	22.26	-39.48	26.81	-0.0082	-0.309	-0.4149	
0.130418	0.84119	0.736026	20.44	-28.42	25.27	-0.0169	-0.3208	-0.4122	
0.132858	0.837652	0.722484	3.64	-10.57	29.54	-0.02	-0.3175	-0.405	
0.153964	0.819596	0.716994	-5.25	2.87	31.22	-0.0138	-0.3193	-0.4064	
0.157014	0.78507	0.692594	-15.05	15.4	33.32	-0.0229	-0.3204	-0.4036	
0.15311	0.756766	0.66063	-23.45	26.95	37.87	-0.022	-0.3068	-0.402	
0.141032	0.748104	0.651358	-19.25	33.81	42.49	-0.0235	-0.3114	-0.4195	
0.105042	0.757742	0.650016	-8.47	36.89	42.28	-0.0173	-0.3101	-0.4078	
0.092964	0.757254	0.672098	-2.24	39.13	42.35	-0.0237	-0.3084	-0.4194	
0.091866	0.769088	0.683444	-4.27	45.36	45.64	-0.019	-0.3101	-0.4209	
0.093086	0.755912	0.666364	-8.47	51.94	50.12	-0.0059	-0.2956	-0.4235	
0.106994	0.743224	0.63745	-16.31	59.29	57.82	0.0051	-0.3037	-0.4234	
0.114192	0.741028	0.642086	-11.13	61.46	61.74	0.0015	-0.2898	-0.4175	
0.110654	0.750056	0.64294	-14.84	62.23	65.17	0.008599999	-0.3098	-0.4177	
0.099918	0.756522	0.620492	-16.1	65.24	68.53	0.0263	-0.294	-0.4188	
0.100772	0.77653	0.61793	-7.28	67.76	68.81	0.0246	-0.2924	-0.4188	
0.072468	0.78873	0.61061	-8.12	75.04	72.17	0.0372	-0.299	-0.4201	
0.046482	0.814106	0.607804	-5.46	78.05	72.03	0.0324	-0.2927	-0.4172	
0.052338	0.787876	0.632082	-12.81	79.31	71.54	0.048	-0.2964	-0.4113	
-0.023668	0.776774	0.613294	-8.33	69.02	63.7	0.0646	-0.2911	-0.4125	
0.01159	0.805688	0.649894	13.3	53.13	48.58	0.0652	-0.3079	-0.4228	
-0.021838	0.796782	0.630252	-6.86	55.86	49	0.0581	-0.2847	-0.4154	
-0.010858	0.772138	0.641354	-10.15	60.13	50.4	0.0741	-0.2961	-0.411	
0.01647	0.788608	0.671976	-11.06	62.23	50.61	0.0873	-0.2845	-0.4108	
-0.0061	0.775554	0.678808	0.42	61.11	48.86	0.0924	-0.2954	-0.4123	
0.018178	0.767014	0.675026	-14.35	68.88	55.86	0.0941	-0.2985	-0.4137	
0.000854	0.76494	0.66917	-13.37	62.72	54.95	0.0941	-0.2985	-0.4123	
-0.02196	0.726876	0.647454	-16.73	59.36	55.3	0.115	-0.2826	-0.4017	
-0.049044	0.718336	0.646844	-22.05	65.59	60.06	0.1184	-0.2904	-0.4061	
-0.059658	0.701378	0.676002	-28.63	65.8	65.52	0.1219	-0.3013	-0.4134	
-0.046482	0.690276	0.65331	-27.37	58.73	65.17	0.1277	-0.2923	-0.4031	
-0.04026	0.708942	0.66734	-16.24	53.9	64.89	0.1319	-0.285	-0.4132	
-0.062342	0.718214	0.677222	-17.01	52.99	63.07	0.1399	-0.2883	-0.3986	
-0.070638	0.717116	0.698816	-10.22	47.46	56.98	0.1343	-0.3017	-0.3988	
-0.061244	0.709064	0.71858	-12.25	47.6	55.16	0.157	-0.2936	-0.397	
-0.038064	0.711016	0.713944	-13.37	46.2	52.15	0.1603	-0.2968	-0.397	
-0.034404	0.67893	0.727364	-5.46	41.09	45.85	0.157	-0.2952	-0.4043	
-0.012688	0.657458	0.72163	-7.63	40.95	46.97	0.1586	-0.2968	-0.4043	
0.01037	0.630862	0.7137	-6.72	38.22	46.06	0.1681	-0.3002	-0.3941	
-0.005978	0.65758	0.709674	-3.08	33.39	42.98	0.1684	-0.3062	-0.3912	
-0.055144	0.676856	0.70638	-5.95	31.36	41.51	0.17	-0.3079	-0.397	
-0.072224	0.68991	0.697718	-6.3	30.38	40.39	0.1606	-0.3028	-0.3899	
-0.059414	0.67893	0.71248	-2.03	24.43	36.26	0.1716	-0.3079	-0.3898	
-0.034282	0.68198	0.731634	4.69	21.21	33.25	0.1759	-0.3004	-0.3824	
-0.025254	0.682712	0.738954	-3.57	25.2	36.68	0.1698	-0.3032	-0.3898	
-0.040504	0.676856	0.731024	-8.26	25.69	37.87	0.1656	-0.3122	-0.3899	
-0.0366	0.65209	0.721264	-0.77	17.36	32.13	0.1731	-0.3064	-0.3897	
-0.004026	0.65941	0.712602	5.25	9.94	29.19	0.1841	-0.313	-0.3882	
-0.006222	0.680516	0.720288	5.67	8.12	28.28	0.1719	-0.3124	-0.3811	
-0.007076	0.676246	0.72102	1.89	8.19	26.46	0.1765	-0.3126	-0.3811	
-0.017568	0.67161	0.732122	-1.47	7.84	23.87	0.1768	-0.3187	-0.3811	
-0.028304	0.686738	0.722118	-1.96	6.65	19.95	0.1736	-0.317	-0.3855	
-0.030988	0.680028	0.731146	-1.82	5.39	15.96	0.1674	-0.3121	-0.3725	
-0.011956	0.665754	0.732	-4.13	3.85	13.16	0.172	-0.3155	-0.3869	
-0.0122	0.683444	0.71797	-3.92	1.05	8.47	0.1693	-0.3244	-0.3856	
-0.019154	0.68259	0.726144	-3.43	-1.96	4.41	0.1695	-0.3274	-0.3798	
-0.043432	0.704428	0.72346	-1.47	-6.09	-1.54	0.1665	-0.3304	-0.39	
-0.03721	0.722606	0.712358	-0.63	-8.96	-7.7	0.1632	-0.3241	-0.3813	
-0.02013	0.689544	0.723704	-1.19	-5.32	-8.26	0.1659	-0.3167	-0.3841	
0.000122	0.691862	0.729194	-0.91	-6.44	-9.45	0.1649	-0.3273	-0.3857	
-0.005246	0.67893	0.724436	-4.06	-9.8	-13.79	0.1555	-0.3238	-0.3858	
-0.01098	0.696498	0.700646	-0.07	-14.28	-18.9	0.1739	-0.3231	-0.3841	
-0.036112	0.717604	0.716506	-3.57	-14.35	-22.61	0.1686	-0.3093	-0.3913	
-0.03355	0.712236	0.705648	1.05	-16.66	-27.86	0.1714	-0.3049	-0.3912	
-0.035258	0.702232	0.701866	0.84	-20.44	-30.73	0.1754	-0.3232	-0.3899	
-0.082228	0.726022	0.675758	-2.52	-27.23	-34.93	0.1581	-0.3149	-0.3885	
-0.101138	0.732366	0.63135	3.22	-41.23	-46.13	0.1593	-0.3073	-0.3899	
-0.097722	0.77775	0.678076	20.02	-56.7	-57.05	0.1579	-0.3118	-0.3929	
-0.142008	0.797392	0.666364	13.44	-53.97	-58.94	0.1508	-0.3237	-0.396	
-0.099674	0.74542	0.656604	18.48	-60.55	-68.39	0.1498	-0.3024	-0.3958	
-0.045506	0.716994	0.631472	19.67	-75.39	-77.7	0.1441	-0.3128	-0.3974	
-0.046238	0.744932	0.621468	20.51	-88.48	-86.24	0.1372	-0.2973	-0.4002	
-0.03782	0.783972	0.602192	29.96	-92.47	-86.1	0.1249	-0.2983	-0.4018	
-0.044774	0.801052	0.661118	29.82	-91.7	-82.32	0.1175	-0.3041	-0.4077	
-0.008174	0.83631	0.616832	9.1	-81.41	-80.08	0.1098	-0.3037	-0.4049	
0.021106	0.88511	0.620492	29.82	-83.72	-86.1	0.1041	-0.3141	-0.408	
0.035746	0.869372	0.626226	26.95	-90.44	-88.76	0.09649999	-0.3153	-0.4081	
0.04148	0.842166	0.593896	11.62	-94.85	-87.36	0.07889999	-0.3024	-0.4183	
0.06222	0.85766	0.610732	5.32	-99.96	-86.94	0.0668	-0.3064	-0.4184	
0.067222	0.805566	0.586942	-11.27	-98.7	-87.71	0.0632	-0.2972	-0.4213	
0.092964	0.758962	0.546072	-16.8	-101.71	-90.65	0.0449	-0.2994	-0.4215	
0.133102	0.734806	0.582306	-13.3	-98.98	-91.14	0.0278	-0.294	-0.4187	
0.122	0.735782	0.58011	-22.47	-90.3	-86.59	0.0338	-0.2944	-0.4288	
0.10492	0.747006	0.558272	-24.29	-86.59	-84.63	0.0242	-0.2849	-0.4303	
0.12688	0.763232	0.585478	-12.81	-87.15	-84.91	0.0135	-0.2859	-0.4304	
0.146522	0.75762	0.60512	4.97	-93.94	-84.77	-0.0036	-0.2774	-0.4218	
0.099796	0.783728	0.631472	14.21	-95.41	-84.63	-0.0155	-0.2891	-0.4293	
0.08601	0.815814	0.576084	2.45	-96.81	-86.8	-0.0186	-0.2859	-0.4235	
0.061488	0.820328	0.583526	25.55	-107.8	-90.02	-0.0321	-0.2929	-0.4266	
0.128588	0.823256	0.58194	27.09	-110.18	-94.57	-0.0426	-0.2985	-0.4268	
0.15738	0.803492	0.595116	33.46	-110.25	-96.18	-0.0486	-0.2996	-0.4153	
0.179096	0.783972	0.582306	24.08	-104.58	-91.49	-0.0649	-0.3126	-0.417	
0.199104	0.772138	0.584746	21	-102.9	-86.24	-0.07669999	-0.321	-0.4071	
0.2135	0.71492	0.577304	17.15	-106.33	-87.22	-0.0709	-0.3137	-0.4055	
0.196664	0.805078	0.547658	50.12	-118.16	-81.48	-0.0954	-0.314	-0.4	
0.246562	0.842166	0.606096	63.84	-110.32	-77.77	-0.104	-0.3242	-0.3915	
0.1586	0.885598	0.54229	54.18	-97.23	-72.59	-0.1125	-0.339	-0.3917	
0.122854	0.880718	0.52094	37.03	-88.55	-66.64	-0.1182	-0.3462	-0.3817	
0.146034	0.83631	0.54107	50.4	-93.45	-65.24	-0.1253	-0.3596	-0.3805	
0.126392	0.904264	0.468968	46.83	-101.43	-64.33	-0.1448	-0.3677	-0.3721	
0.086742	0.946476	0.376492	33.25	-95.62	-64.33	-0.1394	-0.3783	-0.3475	
0.07198	0.92842	0.376858	27.58	-93.87	-60.41	-0.1547	-0.3807	-0.3506	
0.137494	0.899384	0.408212	19.6	-96.95	-59.01	-0.1537	-0.3989	-0.3421	
0.175314	0.809592	0.412726	11.48	-94.64	-57.96	-0.1709	-0.392	-0.335	
0.180682	0.845582	0.427366	22.82	-99.26	-55.79	-0.1707	-0.395	-0.335	
0.181902	0.881084	0.464698	23.1	-96.67	-51.73	-0.1764	-0.4038	-0.3308	
0.182024	0.879498	0.451034	13.02	-89.04	-48.16	-0.1792	-0.4082	-0.3222	
0.172264	0.909388	0.434686	10.71	-83.79	-46.2	-0.1883	-0.4061	-0.3063	
0.17385	0.944646	0.489952	25.83	-84.35	-46.55	-0.188	-0.4106	-0.2977	
0.170312	0.92537	0.485316	6.86	-71.89	-43.54	-0.1967	-0.4208	-0.295	
0.14213	0.935618	0.468358	4.27	-65.66	-41.37	-0.1963	-0.4268	-0.2849	
0.129076	0.919148	0.469212	6.23	-62.72	-40.6	-0.2011	-0.4251	-0.2921	
0.121634	0.919392	0.440054	3.85	-56.77	-41.51	-0.2009	-0.4265	-0.282	
0.127978	0.896334	0.446886	3.99	-55.16	-40.11	-0.2067	-0.4338	-0.2793	
0.108824	0.917562	0.449936	-0.49	-52.36	-38.64	-0.2047	-0.4399	-0.2677	
0.087108	0.89304	0.462136	-4.48	-48.79	-37.94	-0.1955	-0.4402	-0.2633	
0.101626	0.893772	0.485438	1.05	-44.03	-36.89	-0.1952	-0.4448	-0.2619	
0.080154	0.900482	0.465552	-0.56	-38.64	-36.33	-0.1936	-0.4479	-0.2633	
0.069906	0.88694	0.452864	-7.42	-29.26	-32.48	-0.1982	-0.4477	-0.2634	
0.086132	0.88694	0.486414	4.97	-27.37	-32.13	-0.1998	-0.4446	-0.2605	
0.081862	0.867664	0.48739	-0.49	-20.23	-29.68	-0.2026	-0.4505	-0.2533	
0.076738	0.85888	0.476288	-3.64	-13.09	-24.92	-0.1996	-0.446	-0.2489	
0.060146	0.863394	0.467138	0.63	-14.07	-23.17	-0.2027	-0.449	-0.2576	
0.027572	0.858758	0.462136	-2.8	-11.41	-18.62	-0.1936	-0.4463	-0.2561	
0.011346	0.8662	0.441274	-4.69	-8.33	-15.47	-0.1858	-0.4467	-0.2531	
0.017568	0.846924	0.4453	0.7	-8.89	-15.05	-0.19	-0.4556	-0.2532	
0.00976	0.857416	0.443226	2.24	-7.49	-11.76	-0.1899	-0.4602	-0.2576	
0.018056	0.877546	0.454938	4.69	-6.3	-9.45	-0.1871	-0.4527	-0.2531	
0.028304	0.883768	0.446154	2.73	-4.2	-7.14	-0.1879	-0.4694	-0.2562	
0.038674	0.87962	0.447252	1.54	0.35	-3.85	-0.1915	-0.4555	-0.2503	
0.029036	0.869128	0.465064	3.71	2.73	-1.54	-0.1929	-0.46	-0.2518	
0.03294	0.871446	0.458842	-2.31	8.05	2.17	-0.1823	-0.4575	-0.256	
0.044042	0.884988	0.452498	2.38	7.91	3.92	-0.1945	-0.4568	-0.246	
0.048922	0.918782	0.466406	2.03	9.45	7.21	-0.1945	-0.4568	-0.246	
0.025864	0.88999	0.472262	-2.87	14.98	10.01	-0.1824	-0.4544	-0.2531	
0.010736	0.844972	0.434808	-12.32	23.24	12.25	-0.1917	-0.4525	-0.2532	
0.052582	0.864126	0.464576	7.84	16.45	11.2	-0.1917	-0.4525	-0.2532	
0.097844	0.895236	0.501908	7.49	19.04	14.28	-0.1821	-0.462	-0.2546	
0.107482	0.89121	0.509838	-2.03	28.07	19.32	-0.1794	-0.4546	-0.2603	
0.114192	0.86742	0.503494	-12.11	41.02	27.16	-0.1933	-0.4525	-0.2605	
0.10431	0.855952	0.476654	-21.42	48.93	30.66	-0.1842	-0.4545	-0.2749	
0.110898	0.86925	0.502518	-4.69	51.31	34.3	-0.1863	-0.4423	-0.2748	
0.130052	0.875472	0.487268	-6.65	61.46	39.41	-0.1754	-0.4474	-0.2805	
0.133102	0.9272	0.433832	-8.54	71.68	41.79	-0.1819	-0.438	-0.2776	
0.118218	0.951234	0.466528	-2.31	77.42	43.61	-0.1759	-0.4368	-0.2862	
0.12627	0.920002	0.444812	-18.83	86.8	44.94	-0.1743	-0.44	-0.2905	
0.14213	0.899262	0.447374	-28.98	95.69	50.26	-0.1651	-0.4389	-0.2904	
0.127612	0.892064	0.426268	-29.89	92.89	48.58	-0.1707	-0.4205	-0.3005	
0.104432	0.897188	0.432246	-25.97	94.43	49.21	-0.1536	-0.4259	-0.3076	
0.078934	0.921344	0.43676	-31.57	106.05	53.69	-0.1466	-0.4157	-0.3219	
0.0854	0.935496	0.447374	-36.96	115.78	61.95	-0.1499	-0.4126	-0.3306	
0.09942999	0.914024	0.427244	-41.79	121.1	63.98	-0.1397	-0.4025	-0.3362	
0.064782	0.922442	0.441518	-40.46	118.3	69.3	-0.1387	-0.3936	-0.352	
0.076494	0.912926	0.455426	-41.58	119.21	72.87	-0.1223	-0.3852	-0.3532	
0.058926	0.925126	0.482144	-48.23	123.34	81.13	-0.1138	-0.3721	-0.3703	
0.060878	0.878888	0.484096	-64.68	125.79	86.59	-0.1029	-0.3788	-0.3819	
0.06222	0.84546	0.47946	-68.11	122.15	87.01	-0.0888	-0.3506	-0.3786	
0.08967	0.84546	0.48434	-59.78	117.25	86.38	-0.0828	-0.3494	-0.3857	
0.03538	0.848876	0.532774	-63.42	116.62	93.38	-0.0634	-0.3398	-0.3956	
0.007808	0.854854	0.512888	-72.38	121.17	98.42	-0.0551	-0.3235	-0.4069	
-0.022448	0.846436	0.516182	-56.49	114.8	97.37	-0.0494	-0.3163	-0.4184	
-0.019398	0.821426	0.557906	-38.15	106.82	94.57	-0.0405	-0.3091	-0.4138	
-0.021716	0.810812	0.551806	-42.84	101.64	94.78	-0.0273	-0.2961	-0.4179	
-0.02135	0.794342	0.542778	-42.7	95.9	92.33	-0.0231	-0.2887	-0.4265	
-0.03721	0.77531	0.579744	-29.4	87.08	89.25	-0.0186	-0.2859	-0.425	
-0.000488	0.797636	0.580476	-21.63	82.25	86.03	-0.0051	-0.2805	-0.4291	
-0.019398	0.785924	0.631228	-21.84	81.83	88.55	0.0051	-0.2718	-0.4304	
-0.032696	0.797148	0.598166	-21.77	81.48	87.64	0.0163	-0.2799	-0.4289	
-0.052094	0.75518	0.639768	-11.34	71.89	83.16	0.0206	-0.2741	-0.4317	
0.030866	0.72834	0.68015	2.03	66.64	76.02	0.0281	-0.2714	-0.4359	
0.013054	0.757132	0.692716	-10.92	74.76	80.5	0.0386	-0.2642	-0.4285	
-0.014762	0.790926	0.679052	-13.09	80.15	83.72	0.0433	-0.2675	-0.4299	
0.002196	0.758474	0.64294	-19.04	82.6	86.38	0.0621	-0.2744	-0.4254	
-0.043066	0.749812	0.668926	-17.22	77.42	83.93	0.0621	-0.276	-0.4327	
-0.003538	0.725656	0.669048	-13.93	72.59	76.58	0.0679	-0.2671	-0.4267	
-0.072834	0.738954	0.669902	-18.83	65.52	75.74	0.0805	-0.2722	-0.4237	
-0.082106	0.74908	0.649894	-18.13	66.15	72.17	0.0879	-0.2665	-0.4265	
-0.088572	0.733342	0.679784	-15.75	61.95	70.21	0.09429999	-0.2697	-0.4178	
-0.080886	0.721386	0.68198	-18.06	58.45	68.25	0.09429999	-0.2728	-0.4279	
-0.063318	0.69357	0.715286	-16.59	57.4	67.97	0.1018	-0.267	-0.4148	
-0.066612	0.695034	0.727364	-14.14	55.23	67.62	0.1077	-0.2612	-0.4147	
-0.053436	0.690886	0.72773	-8.61	49.49	63.84	0.1201	-0.2633	-0.416	
-0.066734	0.674538	0.73444	-0.56	43.68	57.61	0.1153	-0.26	-0.4175	
-0.077836	0.668804	0.72163	1.75	41.79	52.36	0.1268	-0.2773	-0.4189	
-0.076006	0.676124	0.716018	9.38	39.41	49.07	0.1348	-0.2821	-0.4131	
-0.064172	0.683322	0.721386	14.42	38.99	48.02	0.1426	-0.284	-0.4072	
-0.045628	0.671	0.736392	15.05	36.96	45.57	0.1472	-0.2842	-0.4115	
-0.045018	0.701866	0.723216	12.11	37.17	45.15	0.1365	-0.2853	-0.416	
-0.026108	0.687836	0.713944	6.93	40.18	46.83	0.1414	-0.29	-0.4059	
-0.040138	0.662094	0.711504	2.8	40.46	47.74	0.1527	-0.3011	-0.4001	
-0.069906	0.694912	0.70577	2.45	35.49	45.92	0.1622	-0.3045	-0.3942	
-0.033428	0.689788	0.721264	2.66	31.08	42.7	0.1556	-0.2951	-0.3971	
-0.055876	0.711748	0.71126	2.73	29.19	41.16	0.1621	-0.303	-0.3985	
-0.011834	0.691252	0.718702	0.49	27.44	39.34	0.156	-0.3042	-0.3928	
-0.038308	0.695034	0.726022	-1.19	26.53	38.29	0.167	-0.3092	-0.3898	
-0.033916	0.704306	0.69601	4.2	20.44	32.2	0.1685	-0.3062	-0.3869	
0.00122	0.682102	0.704672	7.35	17.99	30.17	0.1516	-0.307	-0.39	
-0.004026	0.65819	0.732366	4.34	19.6	33.32	0.1658	-0.3152	-0.3914	
-0.004026	0.660874	0.70943	5.46	18.06	34.02	0.1721	-0.3201	-0.3957	
0.009272	0.666608	0.717238	6.93	15.05	31.22	0.1732	-0.3095	-0.3883	
-0.004392	0.684298	0.719068	6.23	14.07	30.31	0.1706	-0.3184	-0.3855	
-0.038064	0.713212	0.70821	4.48	13.09	27.86	0.1586	-0.3239	-0.3785	
-0.052582	0.71492	0.700768	3.78	12.39	23.59	0.1696	-0.3289	-0.3784	
-0.057584	0.681248	0.689422	-6.65	13.72	23.59	0.1615	-0.3226	-0.3886	
-0.019886	0.679906	0.684542	-5.11	6.37	19.74	0.1675	-0.3183	-0.3827	
-0.01769	0.703574	0.715774	-2.24	-0.84	14.77	0.1714	-0.3351	-0.3828	
-0.028914	0.715286	0.73627	0.42	-5.6	7.14	0.1617	-0.3272	-0.3886	
-0.021106	0.714188	0.717848	-4.27	-4.76	2.17	0.168	-0.3289	-0.3828	
-0.002562	0.676978	0.709552	-4.13	-5.6	-1.26	0.1664	-0.3289	-0.3929	
0.011712	0.687958	0.7259	1.26	-8.26	-4.97	0.1645	-0.3181	-0.3827	
0.027206	0.681492	0.732366	3.08	-6.93	-7	0.1601	-0.324	-0.3814	
0.030378	0.680882	0.714798	-0.63	-4.9	-6.72	0.151	-0.3267	-0.3858	
0.029524	0.698084	0.728462	2.38	-7.56	-9.87	0.1694	-0.3259	-0.3827	
-0.00854	0.709918	0.70638	-0.63	-8.05	-11.55	0.1633	-0.3288	-0.393	
-0.011468	0.71004	0.693448	1.89	-9.03	-14.49	0.1585	-0.3224	-0.3857	
-0.038796	0.71675	0.67588	-2.24	-11.69	-17.71	0.1556	-0.3253	-0.3829	
-0.056242	0.726754	0.686372	-0.28	-16.87	-24.57	0.1629	-0.3181	-0.3856	
-0.044286	0.73871	0.685518	0.98	-21.07	-29.47	0.1646	-0.3196	-0.3798	
-0.069662	0.765794	0.682712	-2.73	-26.95	-33.67	0.1568	-0.3225	-0.3973	
-0.096868	0.778726	0.684542	1.4	-32.41	-40.95	0.1564	-0.3102	-0.3842	
-0.131028	0.795074	0.667584	0.28	-38.85	-48.51	0.1539	-0.3238	-0.3872	
-0.159576	0.81313	0.628788	-4.34	-46.13	-55.86	0.155	-0.3147	-0.3886	
-0.137982	0.791414	0.598776	-4.9	-56.49	-64.19	0.1467	-0.2991	-0.3871	
-0.128466	0.807152	0.595238	-1.89	-67.13	-71.47	0.1422	-0.3051	-0.3959	
-0.096868	0.810812	0.58987	3.92	-85.05	-80.08	0.1361	-0.3063	-0.3974	
-0.043188	0.81435	0.620004	24.43	-98.35	-88.55	0.1327	-0.3002	-0.4017	
-0.016226	0.814594	0.619394	12.39	-98.42	-89.74	0.1191	-0.3057	-0.4077	
-0.009393999	0.8235	0.595116	7.28	-102.69	-94.15	0.1135	-0.2841	-0.4076	
-0.01586	0.873398	0.589382	17.92	-115.36	-101.71	0.1034	-0.3004	-0.4122	
0.011956	0.841434	0.589016	10.01	-120.54	-104.16	0.0814	-0.2888	-0.4138	
0.08113	0.826428	0.556808	-4.06	-121.73	-101.08	0.083	-0.2935	-0.421	
0.097112	0.802516	0.539972	-11.27	-120.12	-100.94	0.0584	-0.2909	-0.4198	
0.100284	0.79361	0.556686	-2.24	-120.19	-103.53	0.0549	-0.2832	-0.4241	
0.11773	0.777506	0.564982	-4.69	-115.71	-103.39	0.0364	-0.2807	-0.4185	
0.135298	0.775798	0.561444	-18.62	-109.62	-102.83	0.0149	-0.2829	-0.426	
0.135786	0.808494	0.563152	-18.06	-112.98	-108.99	-0.0051	-0.2789	-0.4262	
0.18361	0.783972	0.590602	-10.01	-113.05	-109.06	-0.009699999	-0.2834	-0.4393	
0.194712	0.82045	0.605486	4.55	-117.04	-108.64	-0.0173	-0.2814	-0.4264	
0.165798	0.739076	0.576328	-9.38	-119.7	-107.1	-0.027	-0.2734	-0.4322	
0.193614	0.787632	0.558638	11.76	-129.01	-111.86	-0.0369	-0.288	-0.4194	
0.19398	0.802394	0.586454	18.69	-126.42	-111.93	-0.0524	-0.2858	-0.4195	
0.211304	0.81191	0.56059	29.12	-110.25	-105.42	-0.0876	-0.2872	-0.4185	
0.237778	0.824476	0.58804	40.95	-105	-101.78	-0.0964	-0.2943	-0.41	
0.25925	0.819718	0.597678	44.52	-109.69	-100.17	-0.0991	-0.3002	-0.4028	
0.24095	0.779702	0.551196	37.31	-112.7	-103.39	-0.1119	-0.324	-0.4046	
0.233874	0.786656	0.545706	48.51	-115.64	-100.45	-0.1177	-0.3266	-0.3902	
0.22448	0.819108	0.539362	48.72	-119.28	-97.37	-0.1263	-0.3383	-0.3832	
0.224724	0.805566	0.513254	46.13	-120.19	-89.32	-0.1426	-0.3465	-0.3646	
0.251076	0.813862	0.532286	44.73	-113.75	-80.22	-0.1422	-0.3556	-0.3662	
0.253028	0.837286	0.507398	33.25	-103.18	-73.57	-0.1464	-0.363	-0.3605	
0.203984	0.8906	0.518866	31.85	-96.74	-66.08	-0.1687	-0.3755	-0.3464	
0.19581	0.881328	0.515572	22.26	-92.33	-62.58	-0.1759	-0.3842	-0.3436	
0.176046	0.87779	0.453718	17.36	-87.71	-61.18	-0.1679	-0.3891	-0.3349	
0.159088	0.904508	0.448228	21.35	-90.16	-62.09	-0.1784	-0.393	-0.322	
0.17934	0.92537	0.4636	29.96	-92.82	-61.81	-0.1769	-0.3916	-0.3263	
0.172264	0.916464	0.456402	19.88	-89.32	-60.48	-0.1882	-0.4107	-0.3107	
0.147254	0.919514	0.425536	21.56	-87.43	-59.01	-0.1988	-0.4132	-0.3094	
0.130418	0.926468	0.423096	16.66	-80.29	-56.42	-0.1927	-0.4088	-0.2991	
0.143106	0.934642	0.416264	20.37	-78.26	-58.45	-0.1957	-0.4086	-0.2919	
0.156282	0.925126	0.423706	18.69	-77.49	-58.24	-0.198	-0.4237	-0.2863	
0.14335	0.907802	0.427366	9.17	-75.46	-54.18	-0.207	-0.4262	-0.2777	
0.161894	0.86559	0.455304	7.7	-66.43	-49.77	-0.194	-0.4404	-0.2705	
0.186782	0.850096	0.489708	8.19	-60.62	-45.43	-0.2059	-0.4474	-0.2678	
0.18788	0.872178	0.521184	9.03	-56.07	-41.09	-0.2074	-0.4473	-0.262	
0.174826	0.86193	0.526186	6.51	-46.55	-35.56	-0.2167	-0.4469	-0.265	
0.115778	0.901092	0.478728	-0.84	-35.49	-29.26	-0.2186	-0.4376	-0.2591	
0.063684	0.935618	0.448106	2.17	-27.37	-28.35	-0.1964	-0.4508	-0.2561	
0.019154	0.872422	0.459086	-4.41	-15.19	-25.41	-0.2053	-0.458	-0.2563	
-0.01037	0.860466	0.431514	-3.01	-15.96	-25.83	-0.198	-0.4507	-0.2547	
0.004026	0.860344	0.453108	11.2	-23.24	-26.88	-0.2025	-0.452	-0.2548	
0.050386	0.870226	0.466528	12.95	-25.41	-25.27	-0.2039	-0.4549	-0.2519	
0.059902	0.88511	0.460184	11.34	-22.82	-20.79	-0.2086	-0.4501	-0.2447	
0.061366	0.8784	0.45506	7.77	-16.52	-17.64	-0.2021	-0.4595	-0.2476	
0.060024	0.877912	0.472384	7.77	-10.64	-14.7	-0.1848	-0.4648	-0.2388	
0.069662	0.867054	0.468724	5.04	-6.16	-11.97	-0.1926	-0.4629	-0.2403	
0.045994	0.866322	0.46909	1.47	-0.49	-9.1	-0.1892	-0.4707	-0.2403	
0.027938	0.853268	0.461526	-2.31	4.27	-5.74	-0.196	-0.4567	-0.2388	
-0.009638	0.87901	0.432246	-5.25	4.2	-2.59	-0.1863	-0.4694	-0.249	
-0.005856	0.888648	0.453718	3.57	0.63	-1.4	-0.1875	-0.4738	-0.2389	
-0.030134	0.864248	0.437736	-6.65	9.1	2.52	-0.1802	-0.465	-0.2416	
-0.024644	0.862784	0.426512	-1.68	10.29	3.08	-0.1988	-0.4643	-0.2534	
0.023424	0.884134	0.467138	9.8	6.93	3.5	-0.1846	-0.4725	-0.2461	
0.043676	0.879864	0.482144	4.06	14.49	7.42	-0.1862	-0.4678	-0.2402	
0.028914	0.882792	0.445544	-6.16	18.9	9.87	-0.194	-0.4675	-0.2432	
0.02989	0.916464	0.49471	7.28	15.12	9.8	-0.1864	-0.4648	-0.2446	
0.051484	0.87535	0.508862	-2.52	26.04	14.07	-0.1958	-0.4597	-0.2374	
0.061732	0.857782	0.48861	-0.28	32.48	17.99	-0.1853	-0.4557	-0.2416	
0.074542	0.847412	0.463112	1.33	32.13	21.98	-0.1849	-0.468	-0.2547	
0.09162199	0.892918	0.460916	7.42	35.63	26.46	-0.1885	-0.4525	-0.2445	
0.13237	0.90463	0.460428	-5.74	49.56	33.53	-0.1838	-0.4558	-0.2502	
0.113338	0.923296	0.389912	-16.73	57.26	35.42	-0.1822	-0.4589	-0.2503	
0.120048	0.944036	0.421876	-6.37	62.23	38.22	-0.19	-0.4572	-0.2605	
0.155916	0.93025	0.458842	-16.87	77.7	42.77	-0.1831	-0.4455	-0.2748	
0.20008	0.906216	0.458476	-33.32	99.19	52.29	-0.1804	-0.4396	-0.2863	
0.20252	0.88633	0.448228	-43.19	111.3	57.4	-0.1761	-0.4369	-0.2992	
0.172264	0.887794	0.43493	-45.22	118.72	61.04	-0.1583	-0.4241	-0.3018	
0.152378	0.896212	0.425658	-42.21	126.35	61.74	-0.1583	-0.4273	-0.3207	
0.11102	0.923296	0.430782	-40.18	130.83	65.66	-0.1485	-0.4096	-0.3291	
0.081008	0.936472	0.4392	-44.8	136.71	70.77	-0.1367	-0.4011	-0.3361	
0.080764	0.914146	0.428342	-52.08	135.45	74.76	-0.1355	-0.3983	-0.3563	
0.104066	0.893894	0.452254	-58.94	136.78	81.69	-0.1207	-0.3869	-0.3619	
0.082838	0.897432	0.445178	-65.24	134.75	87.57	-0.1119	-0.3797	-0.3617	
0.07442	0.880718	0.465552	-66.22	128.8	88.62	-0.1049	-0.3665	-0.3745	
0.078202	0.840336	0.484218	-68.74	128.03	90.3	-0.0918	-0.3567	-0.3975	
0.06222	0.865712	0.505446	-58.03	127.05	96.74	-0.0784	-0.3466	-0.3929	
0.05124	0.852048	0.536922	-62.23	128.66	105.28	-0.0655	-0.3275	-0.3969	
0.066856	0.807884	0.536678	-71.05	127.61	110.6	-0.0613	-0.3218	-0.4084	
0.05917	0.788974	0.522404	-59.92	114.87	111.02	-0.0545	-0.307	-0.4212	
0.051362	0.81191	0.554856	-39.9	103.81	106.89	-0.0394	-0.2985	-0.4152	
0.047458	0.808738	0.56486	-26.46	102.69	104.44	-0.041	-0.2985	-0.4181	
0.031232	0.85644	0.566568	-27.51	107.66	108.99	-0.0276	-0.29	-0.4193	
-0.005246	0.810934	0.549	-31.5	110.95	109.34	0	-0.2882	-0.419	
0.00732	0.79849	0.560468	-17.64	100.59	103.18	0.0105	-0.2872	-0.4232	
0.000854	0.85034	0.573034	-4.34	88.27	97.86	0.0177	-0.2785	-0.4332	
0.000244	0.816424	0.580598	-4.62	85.33	93.17	0.0148	-0.2814	-0.4275	
0.015372	0.768356	0.599142	-5.46	84.28	88.41	0.028	-0.2683	-0.4286	
-0.001952	0.823256	0.623054	-7.21	86.59	91	0.0428	-0.2887	-0.4301	
0.002196	0.821426	0.60573	-15.4	94.01	93.66	0.0515	-0.2785	-0.4314	
-0.021472	0.806664	0.602192	-11.41	95.69	92.54	0.0577	-0.2787	-0.4241	
-0.044164	0.786168	0.604144	-10.36	76.72	79.03	0.0646	-0.2942	-0.4241	
-0.061732	0.812154	0.623176	-10.15	69.3	74.2	0.0761	-0.2765	-0.4209	
-0.073688	0.81679	0.627202	-11.9	67.83	71.68	0.0873	-0.2877	-0.4267	
-0.063318	0.795684	0.647332	-3.5	66.57	67.2	0.0903	-0.2847	-0.418	
-0.061732	0.790804	0.64904	-3.15	69.58	65.24	0.0963	-0.2804	-0.4179	
-0.09089	0.75701	0.632692	-12.53	64.82	64.05	0.1081	-0.2688	-0.4162	
-0.097722	0.743102	0.643428	-5.95	48.93	57.26	0.1107	-0.2932	-0.4135	
-0.097234	0.7442	0.67161	1.26	41.86	51.52	0.1182	-0.2874	-0.4061	
-0.08235	0.73688	0.68869	7.21	42	49.28	0.1136	-0.2888	-0.4163	
-0.085888	0.731512	0.6649	7.35	39.48	45.01	0.1264	-0.2968	-0.3989	
-0.080154	0.720044	0.68869	5.39	37.52	40.88	0.1365	-0.2837	-0.4102	
-0.069906	0.715652	0.677222	6.37	36.54	39.06	0.1336	-0.2866	-0.4074	
-0.07564	0.737368	0.697474	7.63	33.6	37.8	0.1263	-0.2937	-0.3974	
-0.039162	0.721752	0.67466	5.11	32.2	35.63	0.1359	-0.3034	-0.4075	
-0.051728	0.734318	0.679906	2.94	30.17	36.47	0.1436	-0.3022	-0.4002	
-0.07442	0.732366	0.690032	2.66	28.77	34.65	0.1481	-0.3009	-0.4045	
-0.061732	0.722118	0.706014	7.28	27.37	31.15	0.1334	-0.3153	-0.399	
-0.028426	0.702842	0.705038	6.58	27.37	29.75	0.1457	-0.3159	-0.4003	
-0.008296	0.696742	0.697474	5.95	26.88	28.84	0.1642	-0.3152	-0.3928	
-0.023058	0.715408	0.687836	1.4	27.72	31.43	0.1551	-0.3194	-0.3988	
-0.029646	0.716018	0.680394	-3.01	27.72	31.85	0.1627	-0.3135	-0.3856	
-0.051362	0.711504	0.701988	0.56	23.03	28.35	0.1584	-0.3225	-0.3959	
-0.022448	0.708088	0.706258	1.61	22.26	27.09	0.1706	-0.32	-0.3885	
-0.02562	0.705648	0.695644	5.11	20.02	26.95	0.1693	-0.3229	-0.3813	
0.050264	0.686372	0.682102	3.57	23.59	27.3	0.1597	-0.3164	-0.3871	
0.000488	0.699914	0.67649	-11.83	33.95	36.89	0.1567	-0.3162	-0.3828	
-0.02501	0.68991	0.706502	-6.72	24.64	32.76	0.1646	-0.3227	-0.3857	
-0.055632	0.708332	0.693326	-3.43	19.88	29.96	0.1695	-0.3275	-0.3856	
-0.021594	0.701012	0.694302	-1.82	17.5	27.93	0.1738	-0.3201	-0.3826	
-0.016958	0.711992	0.691496	-4.69	17.29	24.43	0.1663	-0.3274	-0.39	
-0.08784	0.737734	0.67771	-8.26	15.82	25.06	0.1636	-0.3302	-0.377	
-0.030012	0.702354	0.678442	-1.75	10.29	18.83	0.168	-0.3274	-0.3842	
-0.04209	0.734318	0.67649	1.82	2.73	12.81	0.1717	-0.3412	-0.38	
-0.036966	0.720044	0.67527	2.03	0	8.89	0.1649	-0.3272	-0.3813	
-0.033428	0.726388	0.665144	0	-1.75	6.51	0.1683	-0.3334	-0.3785	
-0.020984	0.719312	0.68625	-1.05	-4.55	3.15	0.159	-0.3331	-0.3829	
0.006222	0.730902	0.686616	0.98	-6.58	0.21	0.1666	-0.3288	-0.377	
0.000732	0.720288	0.69662	0	-6.09	-1.05	0.1681	-0.3289	-0.3784	
0	0.72529	0.70516	1.89	-6.23	-3.78	0.1623	-0.3394	-0.3931	
-0.009272	0.73566	0.689056	-1.47	-8.33	-7.07	0.1682	-0.3335	-0.3828	
-0.030866	0.731756	0.688934	-0.63	-8.12	-9.45	0.1616	-0.3241	-0.3857	
0.002806	0.730048	0.674904	3.15	-7.63	-12.32	0.1605	-0.3316	-0.3829	
-0.024034	0.758474	0.667584	-0.21	-10.57	-15.61	0.1654	-0.3379	-0.3829	
-0.05917	0.776408	0.678564	1.61	-14.77	-21.84	0.1573	-0.3299	-0.3829	
-0.063196	0.757498	0.641842	-3.29	-15.05	-26.32	0.1712	-0.3321	-0.3857	
-0.07259	0.750178	0.64233	-5.04	-18.06	-31.29	0.159	-0.3331	-0.3829	
-0.071492	0.773846	0.65331	-1.12	-25.83	-38.08	0.1643	-0.3151	-0.3856	
-0.074664	0.76738	0.645746	-6.93	-33.32	-41.79	0.1526	-0.3314	-0.3975	
-0.06893	0.75335	0.646722	-4.76	-42	-47.53	0.1533	-0.3116	-0.3915	
-0.080642	0.782508	0.650992	-1.75	-48.44	-52.22	0.1531	-0.307	-0.39	
-0.106628	0.79483	0.656116	-3.92	-54.6	-56.56	0.1458	-0.3159	-0.3974	
-0.12627	0.764208	0.619882	-1.19	-65.03	-63.98	0.1469	-0.3069	-0.4002	
-0.088206	0.797758	0.616954	5.39	-76.3	-72.94	0.1311	-0.2986	-0.4003	
-0.063928	0.805688	0.609756	9.59	-82.32	-79.66	0.1207	-0.3073	-0.4092	
-0.033672	0.809104	0.610854	13.86	-84.77	-82.6	0.1206	-0.3042	-0.4033	
-0.018422	0.80093	0.601948	17.01	-89.95	-83.23	0.1129	-0.3069	-0.4107	
-0.023912	0.789096	0.594994	12.74	-102.97	-85.61	0.0941	-0.3001	-0.4195	
-0.009881999	0.817766	0.60634	2.1	-105	-84.63	0.0845	-0.2889	-0.4094	
0.014396	0.800198	0.581574	-15.05	-102.06	-84.42	0.0759	-0.3038	-0.4169	
0.041358	0.819352	0.573888	-6.44	-110.53	-91.14	0.0659	-0.2882	-0.4168	
0.061488	0.808738	0.564128	0.14	-118.16	-98.84	0.0457	-0.2843	-0.4228	
0.046116	0.828014	0.558516	-2.38	-114.87	-100.31	0.041	-0.2841	-0.4315	
0.063562	0.828136	0.551928	-9.31	-111.3	-98	0.0288	-0.2851	-0.4288	
0.07869	0.824354	0.570716	-6.37	-112.98	-101.08	0.015	-0.2844	-0.426	
0.11407	0.836188	0.56974	-5.04	-116.2	-108.78	0.0069	-0.2749	-0.4231	
0.15311	0.828014	0.560956	-4.06	-112.56	-110.81	-0.0096	-0.2817	-0.4234	
0.140788	0.808006	0.571326	-7.49	-111.02	-110.67	-0.0204	-0.2828	-0.4293	
0.149938	0.825452	0.556442	-11.97	-113.19	-111.44	-0.0327	-0.2807	-0.4265	
0.152134	0.789218	0.528382	-5.67	-116.9	-113.68	-0.0376	-0.2744	-0.4251	
0.192028	0.79727	0.541802	14.49	-121.03	-113.47	-0.0537	-0.2888	-0.4167	
0.208742	0.788242	0.590724	33.67	-121.03	-112.56	-0.0768	-0.2893	-0.4184	
0.185318	0.777994	0.563274	32.62	-114.1	-104.93	-0.0826	-0.2982	-0.4258	
0.205692	0.776042	0.527406	43.61	-119.63	-107.1	-0.096	-0.3035	-0.4129	
0.20069	0.856684	0.61061	76.79	-140.91	-111.44	-0.0984	-0.3155	-0.4044	
0.226554	0.84912	0.60024	52.15	-135.52	-103.6	-0.1231	-0.3431	-0.3948	
0.205326	0.837042	0.523136	38.43	-122.78	-95.41	-0.1323	-0.341	-0.3818	
0.185318	0.853268	0.50691	58.73	-129.57	-91.14	-0.1286	-0.3533	-0.3732	
0.184464	0.961238	0.49471	72.8	-124.74	-86.87	-0.154	-0.3609	-0.3461	
0.19764	0.885598	0.472628	55.51	-118.16	-83.58	-0.1622	-0.3818	-0.3406	
0.21045	0.892186	0.466162	46.69	-111.16	-77	-0.1739	-0.3934	-0.3379	
0.230214	0.868762	0.461404	38.29	-108.43	-73.78	-0.1764	-0.4022	-0.3206	
0.22387	0.838994	0.46421	25.48	-99.19	-65.03	-0.1759	-0.4113	-0.3164	
0.242048	0.81374	0.443836	13.72	-94.78	-57.47	-0.1883	-0.4092	-0.3136	
0.217526	0.848266	0.474336	21.91	-89.11	-52.15	-0.1845	-0.4214	-0.305	
0.192516	0.862906	0.466284	9.24	-79.94	-46.48	-0.1876	-0.4181	-0.2948	
0.17873	0.88084	0.491416	12.95	-70.42	-40.32	-0.1907	-0.4164	-0.2876	
0.184464	0.879742	0.488976	7.84	-64.68	-38.36	-0.2027	-0.4235	-0.2893	
0.163968	0.891088	0.484584	0.84	-56.77	-34.51	-0.1977	-0.4297	-0.2835	
0.13542	0.915976	0.485804	2.87	-51.45	-32.69	-0.211	-0.4381	-0.2721	
0.109312	0.909876	0.481412	-0.63	-43.89	-30.73	-0.205	-0.4369	-0.2793	
0.072712	0.903776	0.46665	2.52	-41.37	-28.28	-0.2082	-0.4321	-0.2691	
0.024034	0.93574	0.437004	7.7	-39.27	-27.37	-0.2022	-0.4294	-0.2719	
0.010614	0.918904	0.41358	6.51	-36.54	-29.75	-0.2014	-0.4445	-0.2605	
0.014884	0.916586	0.435662	12.32	-38.08	-31.57	-0.1967	-0.4463	-0.2619	
0.034526	0.89975	0.444324	13.23	-40.04	-31.5	-0.201	-0.4506	-0.2562	
0.03965	0.918904	0.449082	11.13	-35.35	-29.05	-0.2026	-0.4521	-0.2663	
0.061	0.89975	0.455182	9.94	-33.46	-28.49	-0.1928	-0.4584	-0.2402	
0.052948	0.893162	0.461892	5.53	-29.75	-25.83	-0.2025	-0.4504	-0.249	
0.058072	0.898652	0.458476	4.48	-28	-25.34	-0.2047	-0.4716	-0.2535	
0.069418	0.873398	0.473482	1.68	-25.27	-23.17	-0.2046	-0.4669	-0.2332	
0.078812	0.864736	0.473848	0.07	-20.72	-20.58	-0.2051	-0.4593	-0.2418	
0.074054	0.84912	0.478606	0.98	-16.38	-16.66	-0.1928	-0.4583	-0.2388	
0.060878	0.848876	0.448838	-5.04	-10.43	-12.46	-0.2001	-0.4671	-0.2404	
0.065026	0.859734	0.464332	2.8	-6.3	-8.61	-0.199	-0.4597	-0.2461	
0.063196	0.85339	0.464454	-1.75	0.07	-5.04	-0.1915	-0.4523	-0.2344	
0.038308	0.882914	0.448838	-0.07	2.17	-2.31	-0.1925	-0.4645	-0.2403	
0.04758	0.860588	0.430294	-1.54	7.63	0.28	-0.2033	-0.4655	-0.2419	
0.044042	0.88511	0.424804	3.15	8.75	1.96	-0.1921	-0.4736	-0.2389	
0.049044	0.8784	0.433222	2.38	12.11	4.27	-0.1913	-0.46	-0.246	
0.012566	0.898042	0.407602	-3.64	14.56	7.63	-0.1882	-0.457	-0.2329	
0.016226	0.909998	0.427488	3.64	12.67	8.47	-0.1911	-0.4646	-0.249	
0.037698	0.911096	0.459452	1.33	18.83	10.36	-0.1906	-0.4721	-0.236	
0.058438	0.910364	0.482876	1.47	22.4	11.06	-0.1897	-0.4601	-0.2431	
0.073444	0.910852	0.495198	2.52	25.9	13.02	-0.199	-0.4597	-0.2461	
0.05246	0.884622	0.464576	-6.72	34.02	17.22	-0.19	-0.4556	-0.2503	
0.05734	0.887794	0.463234	3.57	33.88	18.83	-0.1931	-0.4554	-0.2503	
0.09699	0.875472	0.480558	3.78	37.73	22.75	-0.1926	-0.463	-0.2432	
0.111752	0.886452	0.439688	-3.78	44.03	29.4	-0.1986	-0.4689	-0.2534	
0.095282	0.90036	0.425414	-15.61	55.23	36.68	-0.1899	-0.4602	-0.259	
0.106262	0.920612	0.418704	-11.69	57.33	39.83	-0.1921	-0.4449	-0.256	
0.160796	0.930494	0.442128	-12.11	70.49	43.33	-0.1844	-0.4469	-0.2661	
0.157136	0.91622	0.429562	-26.6	82.46	46.62	-0.1865	-0.4393	-0.2805	
0.135786	0.914878	0.43371	-19.81	84	45.57	-0.1787	-0.4396	-0.2718	
0.117364	0.896456	0.457012	-23.52	88.9	48.16	-0.1835	-0.4395	-0.2877	
0.14213	0.892552	0.469212	-30.73	100.52	53.34	-0.182	-0.4381	-0.2892	
0.149816	0.882792	0.48129	-34.44	110.18	58.17	-0.1694	-0.4192	-0.3193	
0.168238	0.86071	0.451522	-47.04	121.24	63.7	-0.1698	-0.41	-0.3134	
0.105164	0.877302	0.41358	-45.36	131.39	67.83	-0.1641	-0.4028	-0.3277	
0.051484	0.90158	0.42639	-40.95	126	72.94	-0.14	-0.3965	-0.3404	
0.065026	0.908046	0.441152	-38.08	118.37	74.62	-0.1452	-0.3841	-0.3447	
0.055388	0.885598	0.474092	-41.02	113.33	78.54	-0.1362	-0.3816	-0.3533	
0.036234	0.8784	0.468358	-53.27	113.68	82.04	-0.1209	-0.3839	-0.3618	
0.005246	0.871812	0.460306	-63.49	111.51	82.88	-0.1171	-0.3674	-0.3703	
-0.036234	0.873398	0.463478	-58.94	108.36	82.18	-0.1073	-0.3497	-0.3759	
-0.068198	0.85644	0.493978	-47.04	97.93	78.05	-0.09519999	-0.3458	-0.3829	
-0.04453	0.835944	0.545462	-36.61	91.28	72.45	-0.0915	-0.3309	-0.4001	
-0.020252	0.83143	0.569496	-33.46	89.88	70.77	-0.0854	-0.3312	-0.403	
-0.01708	0.8235	0.582062	-27.93	89.39	71.19	-0.0717	-0.3304	-0.4086	
-0.027328	0.836066	0.591212	-25.9	90.79	72.59	-0.0631	-0.3187	-0.4142	
-0.053192	0.816668	0.569862	-24.22	90.65	73.08	-0.0496	-0.3086	-0.4081	
-0.05368	0.784094	0.565714	-14.28	80.92	66.71	-0.0512	-0.307	-0.4081	
-0.054778	0.782142	0.588406	-7.56	70.35	62.02	-0.0421	-0.3075	-0.4138	
-0.061854	0.795074	0.602924	-6.16	66.22	59.5	-0.0377	-0.3	-0.4079	
-0.09394	0.79056	0.586698	-8.4	64.89	57.26	-0.0239	-0.3007	-0.4121	
-0.135298	0.801296	0.5612	-4.76	60.69	54.46	-0.0133	-0.2997	-0.4164	
-0.153598	0.796172	0.57035	0	52.36	48.72	-0.008599999	-0.3014	-0.4149	
-0.159576	0.802272	0.583648	4.06	45.43	42.91	-0.004	-0.3001	-0.4134	
-0.153598	0.81069	0.599386	8.68	35.63	35.7	-0.0073	-0.297	-0.4163	
-0.13908	0.807518	0.60329	8.68	27.58	29.05	0.0019	-0.3005	-0.422	
-0.123464	0.782142	0.596092	7.49	23.1	24.15	0.0142	-0.2964	-0.4117	
-0.119316	0.783606	0.585844	6.93	18.2	21.63	0.0113	-0.3008	-0.4088	
-0.05368	0.752374	0.54473	12.81	1.05	8.54	0.0099	-0.3053	-0.4176	
-0.117608	0.805688	0.609634	18.41	-10.92	7.84	0.0069	-0.3052	-0.4147	
-0.085156	0.821304	0.573522	9.94	-10.92	6.44	-0.0017	-0.3169	-0.412	
-0.052704	0.845094	0.572058	13.23	-20.09	1.68	-0.0054	-0.3063	-0.4265	
-0.027206	0.83326	0.584868	12.46	-29.4	-2.8	-0.0033	-0.3169	-0.415	
-0.051484	0.80703	0.584258	11.55	-34.02	-6.37	-0.0089	-0.3288	-0.4151	
-0.068198	0.855464	0.546316	6.79	-30.52	-7.84	-0.0244	-0.325	-0.4167	
0.016836	0.855952	0.553392	16.87	-35.91	-15.19	-0.0151	-0.327	-0.4195	
0.043798	0.845582	0.59719	8.47	-37.17	-16.52	-0.0198	-0.3253	-0.4196	
0.061366	0.843142	0.572058	-3.71	-32.83	-17.01	-0.024	-0.331	-0.4081	
0.10309	0.808982	0.604266	-2.03	-33.67	-20.02	-0.0288	-0.3262	-0.4052	
0.12566	0.788608	0.628056	-11.55	-27.3	-18.76	-0.0337	-0.3215	-0.411	
0.127734	0.771772	0.62098	-21.7	-21.21	-16.03	-0.0293	-0.3172	-0.4109	
0.134322	0.761402	0.62952	-15.54	-19.32	-14.91	-0.0259	-0.3249	-0.4095	
0.128466	0.740418	0.64294	-15.61	-17.01	-12.18	-0.0326	-0.314	-0.4167	
0.122854	0.742736	0.645014	-13.58	-14.98	-9.87	-0.0418	-0.3136	-0.4153	
0.119438	0.731634	0.653188	-13.65	-11.69	-6.79	-0.0494	-0.3163	-0.4184	
0.114924	0.728706	0.655506	-13.02	-9.87	-4.69	-0.0492	-0.3209	-0.4227	
0.107604	0.737368	0.666974	-6.58	-10.71	-4.34	-0.0515	-0.3041	-0.4226	
0.089426	0.73993	0.684176	-3.01	-8.82	-4.13	-0.0498	-0.3072	-0.4183	
0.070394	0.733342	0.65819	-4.97	-4.69	-2.8	-0.0409	-0.3015	-0.4196	
0.066246	0.747372	0.649406	-2.59	-4.41	-3.01	-0.0545	-0.3038	-0.4096	
0.060756	0.751154	0.648918	2.38	-5.39	-4.62	-0.0486	-0.3012	-0.4182	
0.044774	0.748592	0.648064	4.83	-4.48	-4.27	-0.0531	-0.304	-0.4197	
0.03782	0.755424	0.63806	3.85	-2.52	-2.94	-0.0447	-0.3165	-0.414	
0.040138	0.770552	0.641964	6.37	-2.8	-3.15	-0.0586	-0.3143	-0.4097	
0.031476	0.781288	0.637938	7.42	-2.73	-3.36	-0.0515	-0.3025	-0.4081	
0.021106	0.779946	0.63135	7.84	-2.31	-2.87	-0.0578	-0.2992	-0.4154	
0.028548	0.77226	0.625616	6.02	-1.75	-2.73	-0.0589	-0.3082	-0.414	
0.0305	0.775798	0.622444	7.77	-2.03	-3.22	-0.0585	-0.319	-0.4214	
0.028914	0.771528	0.626592	8.19	-2.66	-3.71	-0.0616	-0.3172	-0.4113	
0.037576	0.769088	0.634156	7.07	-2.87	-4.2	-0.0493	-0.3178	-0.414	
0.045994	0.771284	0.6344	5.88	-3.15	-4.06	-0.0541	-0.313	-0.4111	
0.047824	0.76799	0.634888	3.5	-2.66	-3.29	-0.0418	-0.3136	-0.4124	
0.054168	0.75884	0.632814	1.19	-1.61	-2.52	-0.0493	-0.3178	-0.4155	
0.059048	0.754326	0.634034	0.21	-0.49	-1.19	-0.0435	-0.3089	-0.4081	
0.059536	0.754082	0.63257	0	-0.14	-0.07	-0.0566	-0.3251	-0.4142	
0.052826	0.755424	0.622932	-0.56	0.35	1.47	-0.0442	-0.3256	-0.4082	
0.052826	0.760304	0.625494	1.12	0.07	2.59	-0.0446	-0.3148	-0.3995	
0.055022	0.776652	0.62647	1.68	0.21	3.08	-0.0567	-0.3219	-0.4069	
0.047702	0.777994	0.625372	0.91	0.35	2.52	-0.0476	-0.3178	-0.4039	
0.0488	0.779214	0.626592	1.12	1.05	2.03	-0.0414	-0.3196	-0.4067	
0.052948	0.78263	0.625494	-0.35	2.31	1.96	-0.0555	-0.316	-0.4141	
0.059292	0.776408	0.624884	-0.84	3.5	2.03	-0.049	-0.3223	-0.4083	
0.060268	0.768722	0.620614	-3.15	4.41	2.17	-0.0537	-0.3206	-0.4069	
0.054168	0.775066	0.62342	-1.4	3.92	2.52	-0.0556	-0.3129	-0.4068	
0.044164	0.78568	0.625738	1.89	4.55	2.73	-0.0492	-0.3178	-0.4097	
0.043066	0.785436	0.61793	0	5.95	3.01	-0.0398	-0.3212	-0.4053	
0.045018	0.777384	0.615368	-1.68	6.16	2.52	-0.0507	-0.3192	-0.4054	
0.044164	0.778848	0.614026	-1.89	6.3	2.17	-0.0398	-0.3228	-0.4111	
0.041236	0.781898	0.615002	-1.12	5.46	1.96	-0.0448	-0.315	-0.4139	
0.040504	0.77775	0.610244	-0.21	5.25	1.75	-0.0477	-0.3178	-0.4082	
0.034648	0.778726	0.606828	-0.07	4.55	1.61	-0.0476	-0.3209	-0.4126	
0.036356	0.785558	0.60756	1.61	2.94	0.49	-0.0437	-0.3075	-0.4197	
0.038308	0.782386	0.613538	1.05	2.31	0	-0.0447	-0.3164	-0.4096	
0.035136	0.776774	0.611586	0.91	2.1	0.07	-0.0419	-0.3089	-0.4023	
0.037576	0.773602	0.60512	0.91	0.98	0.14	-0.0413	-0.3211	-0.4053	
0.036234	0.77836	0.607316	1.61	-0.49	-0.07	-0.0477	-0.3178	-0.4082	
0.031598	0.783484	0.612196	3.22	-1.26	-0.42	-0.0444	-0.3241	-0.4126	
0.028304	0.784582	0.608658	1.12	-1.19	-0.42	-0.0412	-0.3258	-0.414	
0.029524	0.786412	0.608048	0.98	-1.47	-1.12	-0.0491	-0.3208	-0.4112	
0.035868	0.784216	0.617686	1.68	-1.75	-1.33	-0.0479	-0.3133	-0.4096	
0.036112	0.779702	0.615978	-0.07	-1.19	-1.33	-0.0412	-0.3241	-0.4039	
0.039162	0.777872	0.613782	0.21	-1.82	-1.75	-0.0383	-0.3244	-0.4169	