Sensor string: B
Serial number: 1970-01-0000
Firmware version: 2,015
Hardware version: 2,2
Calibration quality: 5
ax	ay	az	gx	gy	gz	mx	my	mz

0.178364	-0.804712	0.528382	-0.56	-0.35	-0.14	-0.153	0.189	-0.431	Reference
0.18422	-0.80337	0.52765	0	0.14	0.07	-0.1495	0.1807	-0.4251	
0.180316	-0.802882	0.522648	0.21	0	0	-0.1404	0.175	-0.4223	
0.179584	-0.802882	0.527284	-0.42	-0.42	-0.21	-0.149	0.1742	-0.4206	
0.180316	-0.802394	0.531188	-0.63	-0.28	-0.14	-0.1541	0.1843	-0.428	
0.180804	-0.799222	0.530944	-0.63	0.21	0.14	-0.1461	0.1756	-0.4281	
0.179828	-0.800076	0.528504	-0.63	0.42	0.28	-0.1447	0.1771	-0.4326	
0.178974	-0.798856	0.527406	-0.49	0.42	0.35	-0.1435	0.1801	-0.4326	
0.177998	-0.799344	0.529114	-0.28	0.28	0.28	-0.1522	0.1777	-0.4221	
0.178974	-0.800686	0.527284	-0.49	0.14	0.14	-0.1492	0.1775	-0.4251	
0.179828	-0.79971	0.529114	-0.63	0	0	-0.1449	0.1803	-0.4326	
0.17873	-0.798978	0.530334	-0.7	0.07	0	-0.144	0.1833	-0.4253	
0.179218	-0.802394	0.527772	-0.56	0.7	0.14	-0.1477	0.1741	-0.4148	
0.178242	-0.801174	0.522038	-0.14	0.49	0.28	-0.1351	0.1808	-0.4225	
0.17873	-0.799344	0.527894	-0.07	0	0.42	-0.146	0.174	-0.4251	
0.17812	-0.80093	0.528016	-0.35	-0.07	0.28	-0.1464	0.1771	-0.4222	
0.178608	-0.801418	0.529358	-0.49	-0.07	0.14	-0.144	0.18	-0.4105	
0.1769	-0.801052	0.52765	-0.49	0.07	0.07	-0.1415	0.1752	-0.4115	
0.1769	-0.803248	0.524722	-0.35	0.07	0.07	-0.1458	0.1882	-0.4252	
0.176412	-0.802028	0.52521	-0.42	-0.07	0.28	-0.1472	0.1868	-0.4222	
0.178486	-0.80276	0.526308	-0.35	-0.14	0.35	-0.156	0.1892	-0.425	
0.179462	-0.803492	0.525332	-0.21	-0.07	0.21	-0.1516	0.1856	-0.4162	
0.180194	-0.802882	0.525332	0	0	0.07	-0.1451	0.1802	-0.4267	
0.177754	-0.802516	0.526796	0.07	0.14	0	-0.1441	0.1833	-0.4193	
0.177388	-0.803126	0.525332	-0.07	0.28	-0.07	-0.1491	0.1917	-0.4237	
0.177266	-0.802028	0.523624	0.07	0.14	-0.07	-0.1521	0.1745	-0.4117	
0.177144	-0.801906	0.525698	0.21	0.14	-0.14	-0.143	0.1879	-0.4238	
0.17629	-0.801418	0.527772	0.28	0.07	-0.14	-0.1493	0.1933	-0.4193	
0.17751	-0.801296	0.52887	0.21	0.14	-0.21	-0.1432	0.1736	-0.4193	
0.177754	-0.799832	0.52887	0.14	0.28	-0.21	-0.1398	0.1861	-0.4269	
0.175436	-0.80215	0.527894	0.07	0.28	-0.28	-0.1415	0.1862	-0.4194	
0.173606	-0.802882	0.525454	0.28	0.07	-0.14	-0.1514	0.184	-0.4162	
0.173728	-0.801418	0.528382	0.21	-0.21	-0.07	-0.1443	0.1881	-0.4282	
0.176534	-0.799954	0.530212	0.28	-0.21	0	-0.1394	0.1796	-0.4224	
0.175802	-0.800808	0.527528	-0.14	-0.21	-0.07	-0.1418	0.1751	-0.4238	
0.172752	-0.802394	0.524478	-0.35	-0.42	-0.14	-0.1504	0.1886	-0.4192	
0.17568	-0.805444	0.531066	0	-0.7	-0.07	-0.1468	0.1803	-0.4148	
0.182512	-0.801784	0.526308	0.56	-0.14	0.14	-0.142	0.191	-0.4165	
0.179828	-0.7991	0.524966	0.49	-0.49	-0.14	-0.1315	0.19	-0.4271	
0.178242	-0.801174	0.528138	-0.07	-0.7	-0.49	-0.1491	0.1759	-0.4251	
0.179462	-0.800564	0.533018	-0.28	-0.42	-0.42	-0.1408	0.1798	-0.4253	
0.180316	-0.797636	0.53192	-0.07	0.07	-0.28	-0.1467	0.182	-0.4252	
0.179706	-0.79849	0.530212	0.14	0.42	-0.28	-0.1448	0.177	-0.4282	
0.176778	-0.797514	0.52826	0.28	0.28	-0.21	-0.1443	0.1706	-0.4222	
0.17812	-0.79849	0.529724	0.07	0	-0.42	-0.1436	0.1785	-0.4238	
0.17934	-0.798246	0.531798	0	-0.28	-0.49	-0.1368	0.1842	-0.4254	
0.180194	-0.797148	0.533628	-0.14	-0.28	-0.42	-0.1471	0.1852	-0.4222	
0.177876	-0.798124	0.532408	-0.28	-0.07	-0.42	-0.1374	0.1763	-0.4298	
0.17873	-0.80093	0.529846	-0.49	0.21	-0.49	-0.138	0.1827	-0.4328	
0.17812	-0.799588	0.528138	-0.21	0.21	-0.42	-0.1389	0.1748	-0.4253	
0.180438	-0.799466	0.526186	0	0	-0.35	-0.1474	0.1741	-0.4266	
0.177632	-0.799466	0.528382	-0.14	-0.35	-0.42	-0.141	0.1814	-0.4194	
0.178486	-0.799344	0.529114	-0.21	-0.49	-0.63	-0.1424	0.1799	-0.4194	
0.180926	-0.7991	0.531066	-0.42	-0.49	-0.63	-0.139	0.1764	-0.4239	
0.18178	-0.799344	0.528382	-0.28	-0.28	-0.63	-0.1372	0.1731	-0.4268	
0.182024	-0.800198	0.529968	-0.42	-0.35	-0.42	-0.1406	0.1782	-0.4268	
0.182024	-0.80093	0.529114	-0.42	-0.35	-0.28	-0.1409	0.1781	-0.4135	
0.182512	-0.800564	0.528992	-0.49	-0.28	-0.28	-0.145	0.1786	-0.4237	
0.180438	-0.800808	0.528626	-0.35	-0.14	-0.35	-0.1409	0.1814	-0.4253	
0.180804	-0.800808	0.52826	-0.49	-0.07	-0.35	-0.1511	0.184	-0.4295	
0.18117	-0.801296	0.52704	-0.63	-0.14	-0.28	-0.1424	0.1657	-0.4237	
0.180682	-0.80276	0.527284	-0.56	-0.07	-0.28	-0.1437	0.1801	-0.4223	
0.181292	-0.80154	0.526552	-0.35	-0.07	-0.21	-0.1449	0.177	-0.4222	
0.18117	-0.80276	0.528138	-0.35	-0.07	-0.21	-0.1472	0.1709	-0.4236	
0.181292	-0.800808	0.528992	-0.49	0.07	-0.14	-0.1453	0.1818	-0.4252	
0.181048	-0.801662	0.528016	-0.49	0.35	-0.28	-0.1445	0.1722	-0.4193	
0.180316	-0.80276	0.526064	-0.56	0.35	-0.21	-0.1474	0.1883	-0.4193	
0.178974	-0.803126	0.526186	-0.35	0.28	-0.14	-0.1402	0.175	-0.4297	
0.179462	-0.801662	0.52643	-0.35	0.21	-0.07	-0.145	0.177	-0.4193	
0.18056	-0.801296	0.525332	-0.21	0.14	0.07	-0.1454	0.1834	-0.4237	
0.17873	-0.802272	0.525942	-0.21	0.14	0.14	-0.1408	0.1782	-0.4194	
0.175558	-0.803248	0.525576	-0.42	-0.21	0.07	-0.1423	0.1799	-0.4223	
0.177266	-0.803736	0.526552	-0.28	-0.35	0.21	-0.144	0.1833	-0.4223	
0.182878	-0.801662	0.526674	0.21	-0.35	0.42	-0.1349	0.1776	-0.4225	
0.180926	-0.79849	0.521428	0.07	-0.84	0	-0.1465	0.1804	-0.4266	
0.181658	-0.802882	0.526674	-0.49	-1.05	-0.35	-0.1481	0.1821	-0.4266	
0.181048	-0.804834	0.53009	-0.07	-0.91	-0.07	-0.1503	0.1728	-0.4221	
0.180682	-0.80215	0.530944	0	-0.35	0.21	-0.1459	0.1707	-0.4192	
0.182634	-0.798246	0.529114	-0.07	-0.14	0.28	-0.1449	0.1786	-0.4282	
0.182268	-0.796294	0.527772	0	-0.07	0.21	-0.1514	0.1681	-0.4191	
0.18117	-0.79849	0.526674	-0.14	-0.14	-0.14	-0.1406	0.1782	-0.4238	
0.180926	-0.799588	0.528504	-0.14	-0.28	-0.28	-0.1501	0.1838	-0.4118	
0.18239	-0.79971	0.530212	-0.07	-0.28	-0.28	-0.1465	0.1788	-0.4237	
0.18239	-0.79971	0.530334	-0.14	-0.07	-0.07	-0.1465	0.1804	-0.4266	
0.183244	-0.801052	0.528016	-0.21	0.28	-0.07	-0.1454	0.1834	-0.4252	
0.181536	-0.799954	0.527162	-0.14	0.21	-0.07	-0.1442	0.1881	-0.4312	
0.181292	-0.800076	0.526308	0.07	0.21	-0.07	-0.1375	0.1763	-0.4269	
0.180682	-0.79971	0.527162	-0.07	0.07	-0.14	-0.1459	0.174	-0.4281	
0.179828	-0.800198	0.52765	-0.14	0.14	-0.21	-0.1427	0.1831	-0.4164	
0.17934	-0.800808	0.52765	-0.42	-0.07	-0.21	-0.1494	0.179	-0.4221	
0.179462	-0.801296	0.528748	-0.49	-0.28	-0.21	-0.14	0.1702	-0.4223	
0.181048	-0.799832	0.528504	-0.28	-0.28	-0.07	-0.1424	0.1815	-0.4223	
0.183244	-0.797636	0.53009	-0.35	-0.14	-0.07	-0.1485	0.1853	-0.4237	
0.182024	-0.7991	0.528748	-0.35	0	-0.07	-0.1407	0.1782	-0.4223	
0.182146	-0.800442	0.526918	-0.56	-0.21	-0.14	-0.1304	0.1788	-0.433	
0.181902	-0.800198	0.529236	-0.56	-0.07	-0.14	-0.1444	0.1722	-0.4267	
0.180316	-0.799954	0.528138	-0.42	0	-0.07	-0.1428	0.1847	-0.4194	
0.180926	-0.800076	0.527528	-0.56	-0.07	-0.07	-0.145	0.177	-0.4178	
0.181292	-0.799588	0.52765	-0.49	-0.14	-0.14	-0.1422	0.1799	-0.4253	
0.180804	-0.799954	0.529724	-0.42	-0.07	-0.07	-0.1422	0.1816	-0.4297	
0.18056	-0.800442	0.525942	-0.42	-0.07	-0.14	-0.1555	0.1845	-0.4309	
0.181902	-0.80215	0.527162	-0.63	-0.21	-0.21	-0.1441	0.1833	-0.4193	
0.182146	-0.803492	0.52765	-0.49	-0.14	-0.14	-0.1418	0.1767	-0.4282	
0.182634	-0.802272	0.526796	-0.35	-0.14	-0.07	-0.1479	0.1789	-0.4266	
0.18239	-0.802638	0.527528	-0.35	-0.14	0.14	-0.1429	0.1863	-0.4223	
0.181658	-0.801784	0.527406	-0.35	-0.07	0.14	-0.1417	0.1735	-0.4238	
0.18178	-0.800076	0.525088	-0.42	0.14	0	-0.147	0.1868	-0.4311	
0.17934	-0.803004	0.52521	-0.63	-0.21	0	-0.1479	0.1805	-0.4325	
0.180072	-0.804224	0.523868	-0.35	-0.21	0	-0.1445	0.1738	-0.4267	
0.185074	-0.800808	0.525942	0	-0.28	0.07	-0.142	0.1767	-0.4223	
0.184952	-0.798856	0.52277	0.28	-0.42	0	-0.148	0.1789	-0.4222	
0.183	-0.803126	0.523014	-0.28	-0.42	-0.42	-0.1548	0.1923	-0.4295	
0.181414	-0.804834	0.525576	-0.28	-0.49	-0.42	-0.1433	0.1753	-0.4237	
0.182634	-0.80337	0.531432	-0.21	-0.14	0	-0.1388	0.1749	-0.4283	
0.184342	-0.79971	0.528748	-0.28	0.21	0.21	-0.1398	0.1828	-0.418	
0.18239	-0.798978	0.526674	-0.14	0.28	0.21	-0.1414	0.1845	-0.415	
0.183366	-0.79849	0.52521	0	0.21	0	-0.1462	0.1914	-0.4223	
0.18178	-0.800442	0.525088	-0.07	-0.07	-0.21	-0.1472	0.1884	-0.4296	
0.181048	-0.803004	0.526796	-0.07	-0.21	-0.28	-0.1405	0.175	-0.4194	
0.18239	-0.801784	0.529358	-0.07	-0.21	-0.07	-0.1455	0.1867	-0.4341	
0.18422	-0.799588	0.52948	0	0.14	0.07	-0.1484	0.1837	-0.4237	
0.180804	-0.804346	0.523014	0.07	0.14	0	-0.1434	0.1769	-0.4223	
0.18056	-0.80032	0.524966	0.35	-0.14	0.14	-0.1431	0.1895	-0.4238	
0.18178	-0.800442	0.526796	0.14	-0.21	0.14	-0.1378	0.1795	-0.4254	
0.181292	-0.800686	0.526796	0.07	-0.35	0.21	-0.1481	0.1821	-0.4296	
0.182146	-0.801418	0.526674	0	-0.21	0.07	-0.1512	0.1808	-0.4162	
0.182756	-0.800686	0.526796	0.14	-0.07	0.07	-0.1515	0.1856	-0.4221	
0.180438	-0.800808	0.526308	0	-0.21	0.14	-0.1469	0.1852	-0.4296	
0.182878	-0.800808	0.528016	-0.07	-0.35	0.21	-0.1413	0.1846	-0.4224	
0.183732	-0.80093	0.52826	0.07	-0.21	0.14	-0.1469	0.1836	-0.4252	
0.183366	-0.799832	0.52826	0.21	0	0.14	-0.1439	0.1833	-0.4282	
0.182024	-0.801296	0.527406	0.21	0.14	0.21	-0.1401	0.1718	-0.4223	
0.18117	-0.801418	0.527894	0.35	0.28	0.21	-0.1493	0.1791	-0.4266	
0.18178	-0.799344	0.527406	0.07	0.21	0.28	-0.1361	0.1761	-0.4254	
0.181292	-0.798246	0.526918	0.14	0.21	0.14	-0.1446	0.1722	-0.4178	
0.180438	-0.800686	0.52521	0.35	0.07	0.07	-0.1459	0.1707	-0.4192	
0.180926	-0.80276	0.528504	0.14	-0.42	0.07	-0.14	0.1718	-0.4253	
0.18056	-0.804956	0.529236	0.21	-0.07	0.28	-0.1449	0.1754	-0.4163	
0.18178	-0.803004	0.529236	0.42	0.28	0.49	-0.1453	0.1818	-0.4252	
0.182146	-0.80032	0.52643	0.42	0.35	0.63	-0.148	0.1964	-0.4252	
0.181536	-0.800442	0.525698	0.42	0.28	0.7	-0.1368	0.1809	-0.4151	
0.180804	-0.801174	0.526674	0.42	0.07	0.63	-0.1453	0.1818	-0.4237	
0.180804	-0.801052	0.529236	0.35	0.07	0.35	-0.1407	0.1765	-0.4164	
0.179828	-0.800564	0.527772	0.42	0.14	0.28	-0.137	0.1683	-0.4194	
0.177876	-0.80154	0.526064	0.49	-0.14	0.28	-0.1419	0.1751	-0.4193	
0.180804	-0.8052	0.527894	0.98	-0.07	0.42	-0.1506	0.1744	-0.4162	
0.183	-0.798612	0.52948	1.4	-0.07	0.56	-0.1492	0.1917	-0.4193	
0.182512	-0.795562	0.527284	1.12	-0.28	0.28	-0.1432	0.1753	-0.4282	
0.18117	-0.799466	0.530334	0.35	-0.63	-0.14	-0.1382	0.1827	-0.4239	
0.18117	-0.799222	0.53558	0.49	-0.42	0.07	-0.1471	0.1852	-0.4222	
0.18117	-0.79727	0.536068	0.35	0	0.42	-0.1494	0.1807	-0.4295	
0.180194	-0.796782	0.533506	0.35	0.28	0.49	-0.1537	0.1795	-0.4235	
0.178608	-0.795318	0.532042	0.7	0.14	0.35	-0.1459	0.1882	-0.4223	
0.180438	-0.794952	0.533262	0.7	0	0.28	-0.1406	0.1782	-0.4268	
0.17995	-0.794342	0.535336	0.28	-0.14	0.07	-0.15	0.1838	-0.4177	
0.180804	-0.796172	0.535214	0.14	-0.14	0	-0.145	0.177	-0.4193	
0.178486	-0.79605	0.535824	-0.14	0	0.07	-0.1373	0.189	-0.424	
0.179218	-0.798246	0.533872	0.07	0.42	0.07	-0.1415	0.1703	-0.4193	
0.177144	-0.79605	0.532164	0.28	0.42	0.21	-0.1485	0.1821	-0.4133	
0.176412	-0.797758	0.533018	0.21	0.14	0.14	-0.1392	0.1764	-0.4194	
0.178486	-0.79605	0.53436	-0.14	-0.07	0.14	-0.1509	0.1792	-0.4191	
0.179096	-0.795928	0.536068	-0.35	0	0.14	-0.1433	0.1769	-0.4267	
0.178852	-0.796172	0.534238	-0.35	0.14	0.07	-0.1411	0.1814	-0.4179	
0.179218	-0.796416	0.534116	-0.42	0.14	0	-0.1435	0.1768	-0.4193	
0.178242	-0.796782	0.533872	-0.49	0.14	0.14	-0.1423	0.1832	-0.4327	
0.179218	-0.79788	0.53192	-0.42	0.21	0.14	-0.1474	0.1757	-0.4325	
0.177876	-0.798978	0.532408	-0.28	0.21	0.07	-0.1521	0.1777	-0.4265	
0.17873	-0.797026	0.532286	-0.21	0.21	0	-0.1472	0.1851	-0.4193	
0.179462	-0.79727	0.534116	-0.49	0.14	0	-0.1397	0.1828	-0.4224	
0.177144	-0.79849	0.533384	-0.42	0.28	-0.07	-0.1396	0.1829	-0.4268	
0.177876	-0.79788	0.530822	-0.35	0.42	-0.07	-0.1478	0.1773	-0.4222	
0.177388	-0.7991	0.530578	-0.35	0.21	-0.14	-0.1443	0.1722	-0.4296	
0.177632	-0.800564	0.529724	-0.14	0.14	-0.14	-0.1436	0.1801	-0.4267	
0.177266	-0.803736	0.52826	-0.14	0.07	-0.07	-0.1349	0.1808	-0.4314	
0.177998	-0.804956	0.524966	0.14	0.42	0	-0.142	0.1783	-0.4268	
0.176412	-0.8052	0.524966	0.42	0.28	0.14	-0.144	0.1707	-0.434	
0.175558	-0.805688	0.52277	0.91	0.21	0.28	-0.1499	0.1855	-0.4251	
0.175436	-0.805688	0.52277	1.33	0.07	0.35	-0.1437	0.1817	-0.4282	
0.176656	-0.806298	0.52094	1.82	-0.07	0.35	-0.1455	0.1818	-0.4163	
0.176168	-0.805444	0.520696	2.52	0.07	0.28	-0.1393	0.1796	-0.4239	
0.176046	-0.808738	0.523258	3.01	-0.42	0.07	-0.1476	0.1757	-0.4236	
0.181658	-0.807518	0.52704	3.92	-0.07	0	-0.1466	0.1804	-0.4222	
0.18056	-0.806298	0.522282	4.62	-0.07	-0.21	-0.1432	0.1753	-0.4252	
0.177144	-0.80581	0.530456	4.69	0.07	-0.77	-0.1401	0.175	-0.4342	
0.175436	-0.80215	0.533994	4.97	0.56	-0.84	-0.1398	0.1861	-0.4298	
0.173118	-0.800564	0.535458	5.39	0.91	-0.77	-0.1388	0.1748	-0.4268	
0.171776	-0.798124	0.53192	5.46	1.19	-0.77	-0.1344	0.1744	-0.4284	
0.169946	-0.797758	0.533994	5.6	0.77	-0.77	-0.1393	0.1813	-0.4313	
0.170312	-0.796538	0.533262	5.95	0.28	-0.91	-0.1383	0.1701	-0.4312	
0.169702	-0.797392	0.535824	6.16	-0.21	-1.19	-0.1359	0.1729	-0.421	
0.169824	-0.797514	0.536312	6.44	-0.42	-1.26	-0.1439	0.1674	-0.4266	
0.16897	-0.795684	0.537288	7	-0.77	-1.05	-0.1406	0.1623	-0.4267	
0.170678	-0.792146	0.543754	7.49	-1.47	-0.98	-0.1406	0.1749	-0.4149	
0.175558	-0.788974	0.548512	7.91	-1.61	-1.12	-0.1371	0.1589	-0.4371	
0.177022	-0.786412	0.549854	9.03	-1.05	-1.26	-0.1482	0.1662	-0.425	
0.175192	-0.783728	0.548878	10.01	-1.12	-1.4	-0.1393	0.1654	-0.4297	
0.174704	-0.780312	0.554368	10.01	-1.54	-1.75	-0.134	0.1554	-0.4357	
0.178242	-0.778848	0.55937	9.66	-1.82	-2.03	-0.1408	0.1672	-0.4341	
0.177266	-0.77409	0.558394	10.64	-0.98	-2.45	-0.1519	0.1619	-0.4338	
0.176412	-0.77165	0.558516	11.76	-0.77	-2.59	-0.1424	0.153	-0.434	
0.178242	-0.77348	0.563518	11.34	-0.84	-2.8	-0.1374	0.1605	-0.4327	
0.180194	-0.774212	0.567178	11.41	-1.33	-3.22	-0.1413	0.1561	-0.4311	
0.181536	-0.771772	0.56913	12.32	-1.26	-3.36	-0.1412	0.1545	-0.431	
0.188002	-0.767868	0.576572	12.46	-1.33	-3.36	-0.1447	0.1469	-0.4368	
0.1891	-0.76494	0.581086	12.67	-1.26	-3.64	-0.1485	0.1409	-0.4352	
0.19215	-0.76189	0.581452	13.3	-0.7	-3.92	-0.1533	0.1478	-0.444	
0.192028	-0.757254	0.57828	14.07	-0.28	-4.48	-0.1442	0.1421	-0.4412	
0.191418	-0.754814	0.58072	14.91	-0.28	-4.83	-0.1383	0.1257	-0.4413	
0.191052	-0.750422	0.581086	15.19	-0.42	-4.9	-0.1434	0.1341	-0.4427	
0.193004	-0.747372	0.582428	15.54	-1.05	-4.97	-0.1408	0.137	-0.4413	
0.195566	-0.74664	0.596824	15.33	-2.73	-4.76	-0.1476	0.133	-0.444	
0.199104	-0.741028	0.606462	15.26	-2.94	-4.83	-0.1457	0.128	-0.4426	
0.20252	-0.737124	0.607926	15.47	-2.45	-4.62	-0.143	0.1293	-0.4412	
0.20069	-0.731512	0.61	15.61	-1.82	-4.2	-0.1429	0.1277	-0.4382	
0.202154	-0.719312	0.61122	15.75	-2.52	-3.92	-0.1466	0.1234	-0.447	
0.209352	-0.716994	0.623176	14.77	-3.64	-4.41	-0.1488	0.1283	-0.4381	
0.21716	-0.712724	0.62342	15.33	-3.36	-4.83	-0.1452	0.1232	-0.4455	
0.21655	-0.71187	0.626592	15.33	-3.5	-5.25	-0.1421	0.1197	-0.4426	
0.213622	-0.714188	0.631838	15.19	-2.87	-5.39	-0.1497	0.1094	-0.4468	
0.219966	-0.7076	0.638548	15.33	-1.68	-5.39	-0.1453	0.1122	-0.4617	
0.219844	-0.704794	0.638182	15.47	-0.28	-5.18	-0.1439	0.1105	-0.4543	
0.218136	-0.70455	0.637816	15.96	0.63	-5.32	-0.144	0.1104	-0.4499	
0.218746	-0.705526	0.634034	16.59	1.4	-5.81	-0.1563	0.1005	-0.4407	
0.218502	-0.705282	0.631838	17.36	1.05	-6.16	-0.1488	0.1014	-0.4527	
0.221186	-0.699914	0.639768	18.55	0.7	-6.37	-0.1489	0.1014	-0.4497	
0.222772	-0.694668	0.643306	19.95	0.91	-6.58	-0.153	0.0986	-0.4496	
0.221918	-0.694302	0.649528	20.93	1.75	-6.79	-0.1462	0.0885	-0.4527	
0.222162	-0.687226	0.64599	22.68	2.73	-6.93	-0.1527	0.09869999	-0.4599	
0.223382	-0.680028	0.646234	24.43	2.8	-7	-0.1503	0.0857	-0.4511	
0.220454	-0.675026	0.646966	25.76	2.1	-7.07	-0.1579	0.077	-0.4626	
0.219356	-0.675636	0.654896	27.51	1.12	-7.84	-0.1446	0.0708	-0.4541	
0.21899	-0.66795	0.666364	29.82	1.12	-7.98	-0.1502	0.0715	-0.4357	
0.22021	-0.653432	0.671366	31.36	0.91	-8.26	-0.1462	0.0616	-0.4732	
0.219234	-0.643916	0.680272	33.32	0.77	-8.68	-0.144	0.0502	-0.4613	
0.220942	-0.631716	0.694668	34.16	-0.28	-9.17	-0.1397	0.0481	-0.454	
0.226066	-0.617564	0.70211	35.49	0.14	-9.94	-0.1388	0.0385	-0.4555	
0.230702	-0.604144	0.699426	37.45	0.07	-10.43	-0.1405	0.0435	-0.4614	
0.229604	-0.595726	0.714676	37.94	-1.19	-10.78	-0.1419	0.0278	-0.4642	
0.234484	-0.58194	0.72529	38.36	-1.82	-10.85	-0.1524	0.0352	-0.4728	
0.234606	-0.569862	0.72773	38.78	-1.82	-11.06	-0.151	0.0176	-0.4683	
0.24461	-0.56669	0.74298	37.59	-2.73	-11.27	-0.1491	0.0126	-0.4654	
0.250344	-0.551074	0.745176	40.39	-0.49	-10.43	-0.1359	0.0065	-0.4524	
0.254126	-0.52826	0.740662	41.86	-0.14	-10.15	-0.1451	-0.002	-0.4595	
0.25315	-0.515084	0.747494	41.16	-1.47	-10.15	-0.1447	-0.0052	-0.4624	
0.25132	-0.498492	0.749568	43.89	-1.05	-10.64	-0.1424	-0.0117	-0.4757	
0.248392	-0.479826	0.763598	43.68	-3.22	-10.22	-0.1504	-0.0205	-0.4696	
0.250954	-0.46665	0.780434	44.31	-3.85	-10.22	-0.157	-0.0277	-0.4679	
0.248758	-0.44957	0.792878	45.85	-5.39	-9.94	-0.1554	-0.0295	-0.4649	
0.252418	-0.440298	0.81252	45.71	-6.51	-10.43	-0.142	-0.0483	-0.4711	
0.26962	-0.412604	0.823256	48.02	-6.09	-10.5	-0.1492	-0.0508	-0.465	
0.27267	-0.392962	0.831918	48.79	-5.25	-10.78	-0.1447	-0.0671	-0.4694	
0.275598	-0.355508	0.844362	50.19	-3.22	-9.94	-0.1517	-0.0712	-0.4648	
0.294142	-0.318298	0.857416	48.93	-3.08	-9.87	-0.1571	-0.0738	-0.4676	
0.298168	-0.285724	0.86498	47.53	-2.03	-9.73	-0.1502	-0.0888	-0.4602	
0.296338	-0.262544	0.859246	45.92	-0.07	-9.45	-0.1386	-0.0916	-0.4531	
0.303414	-0.258762	0.874008	42.28	-0.63	-9.87	-0.1434	-0.099	-0.4362	
0.309026	-0.247416	0.882792	38.85	-2.24	-8.33	-0.1496	-0.1095	-0.4646	
0.30927	-0.229116	0.899628	38.5	-0.91	-7.98	-0.1467	-0.1097	-0.4661	
0.307562	-0.206668	0.901458	38.22	0.77	-8.26	-0.15	-0.1221	-0.463	
0.309636	-0.202276	0.92171	33.46	0.14	-8.75	-0.136	-0.1331	-0.4633	
0.313418	-0.189466	0.932568	30.73	-1.33	-8.54	-0.1481	-0.1271	-0.463	
0.311954	-0.168848	0.9455	26.18	0.49	-7.42	-0.1428	-0.1388	-0.4571	
0.315126	-0.160918	0.957822	23.52	3.99	-7.56	-0.142	-0.1468	-0.4615	
0.319274	-0.158844	0.95404	23.03	8.26	-7.21	-0.1414	-0.1564	-0.4526	
0.313052	-0.158356	0.951844	22.05	8.05	-5.67	-0.1377	-0.1631	-0.4601	
0.292556	-0.152744	0.937692	21.63	9.59	-4.76	-0.1411	-0.158	-0.4571	
0.285114	-0.145912	0.928542	20.09	6.72	-4.13	-0.1318	-0.1653	-0.4558	
0.28304	-0.15372	0.934764	18.13	5.74	-3.22	-0.1258	-0.1675	-0.4574	
0.28487	-0.155916	0.93635	18.9	6.79	-1.4	-0.1329	-0.1683	-0.4587	
0.278404	-0.1525	0.93818	18.83	4.97	-0.7	-0.1285	-0.172	-0.4484	
0.28426	-0.12932	0.945744	18.48	3.64	-0.21	-0.1271	-0.1705	-0.4514	
0.279258	-0.122854	0.960384	16.66	4.69	-0.84	-0.1375	-0.1663	-0.4541	
0.281332	-0.115656	0.961848	15.68	2.59	-0.77	-0.1143	-0.1829	-0.4591	
0.286212	-0.108946	0.952698	14.21	1.89	-0.35	-0.1283	-0.1878	-0.4587	
0.302072	-0.109434	0.955382	10.78	0.49	-0.28	-0.1258	-0.1833	-0.4588	
0.306342	-0.110166	0.964044	9.94	1.19	-0.14	-0.1279	-0.1943	-0.4512	
0.300364	-0.102114	0.969046	7.77	1.19	0	-0.1259	-0.185	-0.4499	
0.29341	-0.10126	0.962946	6.86	1.4	-0.07	-0.1169	-0.189	-0.4486	
0.291336	-0.10797	0.962092	4.41	-0.28	0.21	-0.1266	-0.1912	-0.4543	
0.28975	-0.116144	0.959774	3.15	0.42	0.42	-0.1201	-0.1839	-0.4515	
0.288652	-0.111142	0.945256	2.8	0.49	1.05	-0.1234	-0.1963	-0.4499	
0.29219	-0.112118	0.94001	1.89	-0.7	0.98	-0.1203	-0.1823	-0.453	
0.28853	-0.11224	0.946232	0.84	-1.12	1.12	-0.1143	-0.1987	-0.4604	
0.288286	-0.108214	0.942572	0.98	-0.7	1.19	-0.1263	-0.1944	-0.4542	
0.290238	-0.115656	0.944036	-0.77	-1.82	1.33	-0.1218	-0.1964	-0.4573	
0.290482	-0.116632	0.941718	-0.28	-1.19	1.68	-0.1282	-0.1911	-0.4498	
0.294386	-0.114558	0.94367	-0.98	-0.98	1.75	-0.1213	-0.1903	-0.4396	
0.293166	-0.117608	0.949404	-1.82	-1.26	2.03	-0.1234	-0.1963	-0.4513	
0.292434	-0.117608	0.956236	-2.59	-1.75	1.82	-0.1279	-0.1927	-0.4572	
0.289506	-0.112362	0.954162	-2.52	-1.26	1.47	-0.1336	-0.1778	-0.4542	
0.288164	-0.11529	0.95343	-3.92	-1.4	0.98	-0.1321	-0.1796	-0.4498	
0.288774	-0.122854	0.947208	-4.48	-0.42	0.56	-0.1304	-0.1972	-0.4556	
0.284504	-0.133468	0.947086	-6.72	-0.49	0.63	-0.1283	-0.1927	-0.4379	
0.283528	-0.137006	0.939888	-6.65	-0.14	1.05	-0.1222	-0.1933	-0.4514	
0.281088	-0.135908	0.943182	-7.63	-0.35	1.4	-0.136	-0.1839	-0.4511	
0.28304	-0.140056	0.945378	-9.03	-1.05	1.4	-0.1317	-0.1844	-0.4483	
0.28426	-0.141642	0.94245	-9.03	-0.63	1.05	-0.1292	-0.1799	-0.4513	
0.282064	-0.142984	0.94367	-10.22	-0.84	0.63	-0.1284	-0.172	-0.4529	
0.28548	-0.149694	0.938668	-11.06	-1.33	0.63	-0.1341	-0.1873	-0.46	
0.288408	-0.150914	0.939156	-11.34	-1.4	0.49	-0.1263	-0.1785	-0.4543	
0.284992	-0.149206	0.937692	-11.76	-0.84	0.56	-0.118	-0.173	-0.4605	
0.284626	-0.151646	0.938668	-12.95	-1.82	1.33	-0.1292	-0.1782	-0.4543	
0.285358	-0.15555	0.947574	-14.77	-2.8	2.03	-0.1318	-0.1669	-0.4498	
0.283772	-0.15311	0.944402	-14.63	-1.61	2.59	-0.1212	-0.1727	-0.4516	
0.28365	-0.148596	0.940132	-15.75	-0.77	2.52	-0.1301	-0.167	-0.4588	
0.287798	-0.153354	0.937936	-17.43	-1.54	2.59	-0.1316	-0.1685	-0.4543	
0.294264	-0.155184	0.939278	-19.04	-2.31	2.73	-0.1351	-0.1618	-0.4542	
0.298656	-0.158966	0.941108	-20.3	-2.52	2.94	-0.1326	-0.1573	-0.4543	
0.298656	-0.170068	0.93696	-23.1	-2.24	2.87	-0.1296	-0.1559	-0.4618	
0.29585	-0.175558	0.931348	-23.59	-1.75	2.52	-0.131	-0.159	-0.4529	
0.295484	-0.189222	0.940864	-25.97	-3.29	2.59	-0.1316	-0.1526	-0.4514	
0.301706	-0.202642	0.93391	-26.53	-1.82	2.87	-0.1377	-0.1313	-0.4588	
0.305976	-0.20191	0.9211	-26.11	0.63	3.15	-0.1422	-0.1452	-0.4601	
0.304634	-0.199226	0.923662	-28.49	-0.07	3.57	-0.1382	-0.1408	-0.4361	
0.304146	-0.208986	0.930616	-32.27	-2.38	3.64	-0.138	-0.1265	-0.4647	
0.309392	-0.233264	0.93086	-35.14	-3.22	3.78	-0.1378	-0.1297	-0.4588	
0.312076	-0.24339	0.925858	-36.26	-1.68	4.48	-0.1417	-0.1166	-0.4662	
0.30378	-0.254004	0.914268	-37.59	-0.42	5.18	-0.1382	-0.1107	-0.4574	
0.299632	-0.26535	0.900726	-39.62	-0.98	6.16	-0.1441	-0.1036	-0.4751	
0.299754	-0.288164	0.901946	-43.05	-1.26	6.86	-0.1445	-0.1037	-0.4618	
0.301828	-0.293044	0.900848	-44.94	-0.56	8.96	-0.136	-0.0997	-0.4679	
0.299754	-0.300974	0.888282	-47.04	-1.05	10.5	-0.1437	-0.0799	-0.4649	
0.295728	-0.307074	0.877546	-49.42	-0.91	12.04	-0.1394	-0.0803	-0.4621	
0.285114	-0.326106	0.852658	-52.36	0	12.74	-0.1474	-0.0667	-0.4782	
0.28853	-0.346846	0.842166	-54.6	-0.98	13.02	-0.1477	-0.0493	-0.4724	
0.279136	-0.363926	0.823134	-54.67	-0.21	13.16	-0.1495	-0.046	-0.4679	
0.276208	-0.383446	0.817522	-56.98	-1.54	13.65	-0.1491	-0.0333	-0.4739	
0.268278	-0.40077	0.793244	-57.05	-0.28	14.42	-0.1563	-0.0166	-0.4753	
0.258884	-0.41358	0.796782	-59.15	-1.19	15.12	-0.1524	-0.0155	-0.4651	
0.249246	-0.436516	0.787388	-60.76	-1.61	15.47	-0.1488	-0.0063	-0.4697	
0.248758	-0.45689	0.76616	-60.76	-1.47	15.4	-0.1556	0.0037	-0.4622	
0.244488	-0.479338	0.74969	-60.55	-1.96	15.4	-0.1512	0.0208	-0.4698	
0.235216	-0.506178	0.730902	-62.02	-1.96	15.19	-0.1534	0.0257	-0.458	
0.23424	-0.527162	0.709552	-62.37	-1.19	15.05	-0.1562	0.0419	-0.4639	
0.238754	-0.545828	0.691496	-63.14	-0.98	14.84	-0.1465	0.0473	-0.4642	
0.24156	-0.574986	0.676612	-64.82	-1.4	14.63	-0.1619	0.0551	-0.4565	
0.240218	-0.604144	0.668682	-63.98	-1.54	15.19	-0.1528	0.0685	-0.4627	
0.23363	-0.632692	0.656726	-60.76	-0.56	16.17	-0.1602	0.0835	-0.4537	
0.220942	-0.643306	0.644648	-59.08	1.68	17.57	-0.1552	0.0942	-0.4613	
0.207034	-0.641842	0.621102	-64.26	0.56	18.2	-0.1574	0.0991	-0.4495	
0.20191	-0.665632	0.584014	-66.08	-1.19	17.43	-0.1609	0.1057	-0.4465	
0.198128	-0.697718	0.548024	-63.7	-1.26	16.87	-0.1551	0.1194	-0.4423	
0.187148	-0.73017	0.513376	-59.85	-1.05	16.31	-0.1549	0.1337	-0.4439	
0.178364	-0.756278	0.49959	-58.03	-4.48	16.45	-0.1524	0.1382	-0.444	
0.181536	-0.77836	0.513376	-59.36	-8.05	17.01	-0.1521	0.146	-0.4248	
0.19337	-0.804346	0.554002	-62.16	-9.24	17.43	-0.1565	0.1481	-0.4321	
0.199958	-0.806908	0.55571	-58.59	-3.08	17.92	-0.1607	0.1628	-0.4291	
0.192272	-0.798368	0.518012	-57.19	2.1	17.01	-0.1574	0.1719	-0.4234	
0.181414	-0.806786	0.443836	-58.8	3.22	15.68	-0.1539	0.1795	-0.4176	
0.15799	-0.835456	0.412848	-53.83	9.59	12.67	-0.1596	0.191	-0.4057	
0.148596	-0.847046	0.393084	-48.3	3.43	14.28	-0.1532	0.2016	-0.4089	
0.152134	-0.866932	0.38918	-50.54	-0.63	13.37	-0.1551	0.2065	-0.4074	
0.159576	-0.875472	0.38979	-51.45	-6.16	14.14	-0.1515	0.2124	-0.4031	
0.160552	-0.8784	0.384544	-48.37	-5.39	13.44	-0.1596	0.2195	-0.3926	
0.16165	-0.875106	0.363804	-42.07	-2.87	12.04	-0.154	0.2238	-0.3987	
0.158112	-0.88267	0.334402	-34.37	-3.5	8.96	-0.1498	0.2376	-0.387	
0.15311	-0.89243	0.341966	-35.98	-6.3	7.49	-0.1458	0.2387	-0.3798	
0.159942	-0.915	0.35258	-37.17	-6.3	7.14	-0.1525	0.2489	-0.3797	
0.161772	-0.916708	0.341844	-35.28	-3.43	7.07	-0.1489	0.2548	-0.3709	
0.156038	-0.922564	0.338062	-32.76	-0.42	7	-0.16	0.2512	-0.3736	
0.1464	-0.9272	0.32269	-29.4	2.17	7.14	-0.1606	0.256	-0.3692	
0.135298	-0.924882	0.315248	-25.62	3.92	7.35	-0.1511	0.2613	-0.3635	
0.128954	-0.912072	0.300486	-24.57	4.9	7.28	-0.149	0.2723	-0.374	
0.131394	-0.909754	0.284626	-24.57	5.11	6.86	-0.1534	0.2695	-0.3591	
0.127612	-0.90768	0.27267	-22.96	4.97	6.09	-0.1535	0.2711	-0.362	
0.127612	-0.92049	0.270718	-24.5	3.43	5.6	-0.1496	0.2771	-0.3651	
0.13603	-0.943548	0.269986	-26.39	3.08	5.95	-0.1509	0.274	-0.3592	
0.13725	-0.952454	0.271206	-25.34	4.2	6.44	-0.1382	0.2775	-0.3625	
0.149572	-0.968558	0.25986	-23.38	5.88	6.79	-0.1478	0.288	-0.3623	
0.141764	-0.963068	0.253394	-20.93	6.79	6.58	-0.1459	0.2814	-0.3564	
0.140788	-0.96624	0.240462	-18.06	7.7	5.11	-0.1544	0.2933	-0.3474	
0.13237	-0.969168	0.23546	-19.32	6.51	4.34	-0.1482	0.2879	-0.346	
0.126636	-0.95648	0.240706	-22.33	5.32	4.06	-0.1489	0.2959	-0.3475	
0.127856	-0.950624	0.241072	-24.64	4.97	3.64	-0.1368	0.29	-0.3478	
0.125294	-0.94123	0.238754	-24.5	6.23	3.71	-0.1389	0.2981	-0.3508	
0.125294	-0.943792	0.235338	-23.59	7.91	3.99	-0.1467	0.302	-0.3417	
0.1159	-0.935984	0.227042	-22.19	9.73	3.92	-0.1361	0.3121	-0.3376	
0.10919	-0.932446	0.20618	-20.79	11.27	3.36	-0.1301	0.3083	-0.3348	
0.10614	-0.938912	0.197884	-19.46	11.76	2.73	-0.1325	0.307	-0.348	
0.107604	-0.954528	0.194956	-19.32	11.06	2.1	-0.1241	0.3061	-0.3379	
0.11224	-0.965142	0.191296	-18.34	11.06	1.96	-0.1279	0.316	-0.3349	
0.107848	-0.96746	0.182878	-16.59	10.08	1.82	-0.1299	0.305	-0.3318	
0.09882	-0.971364	0.167628	-15.68	9.8	1.19	-0.1244	0.3109	-0.3409	
0.092598	-0.98149	0.157868	-12.88	10.01	0.28	-0.1286	0.3207	-0.3246	
0.091256	-1.013942	0.152378	-10.43	8.75	-0.63	-0.1244	0.3093	-0.3364	
0.088572	-1.051518	0.151768	-9.24	5.53	-1.05	-0.1225	0.3186	-0.3321	
0.07564	-1.01687	0.15433	-4.55	2.94	-1.4	-0.1223	0.3186	-0.3395	
0.07905599	-0.98637	0.15006	-3.29	3.5	-1.4	-0.1276	0.3254	-0.3231	
0.080764	-0.976854	0.150304	-3.29	1.96	-1.19	-0.1199	0.3199	-0.3248	
0.080886	-0.97539	0.151768	-4.83	-0.42	-1.33	-0.1258	0.3221	-0.3261	
0.080764	-0.966362	0.158722	-3.71	-1.05	-0.84	-0.1206	0.3262	-0.3174	
0.083448	-0.970144	0.158844	-3.43	-1.33	-0.49	-0.1318	0.3226	-0.3201	
0.081252	-0.981246	0.155794	-3.36	-2.24	-0.7	-0.1213	0.32	-0.3262	
0.07869	-0.98454	0.150792	-2.73	-2.1	-0.56	-0.1293	0.3304	-0.3305	
0.081252	-0.98332	0.14457	-1.19	-3.29	0	-0.132	0.3242	-0.3171	
0.081374	-0.984784	0.15738	-1.96	-5.25	0.14	-0.1255	0.3172	-0.3187	
0.085888	-0.992226	0.165798	-1.19	-5.53	0.84	-0.12	0.3247	-0.3352	
0.089426	-1.000034	0.163114	0.91	-4.69	1.4	-0.1261	0.3269	-0.3306	
0.093818	-0.993568	0.16714	1.12	-4.97	1.47	-0.1225	0.3153	-0.3188	
0.102114	-0.98149	0.170678	0.07	-5.53	1.26	-0.1187	0.3229	-0.3248	
0.106384	-0.96929	0.176534	-1.26	-6.16	1.4	-0.136	0.3231	-0.3259	
0.100894	-0.967826	0.177388	-0.84	-5.6	1.61	-0.1225	0.317	-0.3247	
0.101016	-0.971608	0.18178	0.21	-4.27	1.96	-0.125	0.3283	-0.3247	
0.101382	-0.971486	0.171898	2.94	-1.82	2.73	-0.1329	0.3371	-0.3275	
0.102846	-0.97417	0.165798	4.13	-1.75	2.73	-0.1419	0.322	-0.3154	
0.107848	-0.981124	0.172264	2.73	-4.41	1.96	-0.1228	0.3185	-0.3158	
0.103212	-0.978196	0.171288	3.36	-4.55	1.61	-0.1305	0.3241	-0.3186	
0.099796	-0.974414	0.166774	3.5	-4.48	1.54	-0.1267	0.3158	-0.3246	
0.101748	-0.969656	0.16958	4.2	-4.83	1.26	-0.1137	0.3336	-0.3339	
0.104676	-0.976244	0.169458	4.83	-5.25	0.77	-0.1288	0.324	-0.3275	
0.105042	-0.981734	0.168604	7	-4.9	0.35	-0.1306	0.3257	-0.3216	
0.104798	-0.97173	0.170922	8.19	-4.69	-0.21	-0.1271	0.3206	-0.3276	
0.110776	-0.961238	0.165798	9.45	-3.71	-0.84	-0.1271	0.3206	-0.3246	
0.11163	-0.978318	0.177876	8.47	-5.11	-2.1	-0.1313	0.3194	-0.3289	
0.105896	-0.978196	0.196908	9.17	-4.83	-3.64	-0.1397	0.3155	-0.3243	
0.109068	-0.970388	0.188612	13.79	-1.05	-4.13	-0.1327	0.3196	-0.3304	
0.110288	-0.97295	0.189344	15.89	-0.14	-4.55	-0.1397	0.3187	-0.3346	
0.108092	-0.972584	0.196054	16.94	0.63	-5.18	-0.1276	0.3128	-0.3364	
0.10309	-0.978318	0.18788	18.55	1.12	-5.32	-0.1483	0.318	-0.3344	
0.101992	-0.980514	0.18971	18.2	-0.77	-5.39	-0.1356	0.3073	-0.3406	
0.105896	-0.98149	0.202154	17.43	-2.38	-5.25	-0.1367	0.3042	-0.3464	
0.107604	-0.979294	0.202032	18.69	-2.87	-4.9	-0.1387	0.2933	-0.3389	
0.107726	-0.972706	0.193858	19.18	-3.71	-4.9	-0.1403	0.3125	-0.3464	
0.112728	-0.97722	0.221796	18.27	-5.18	-4.69	-0.143	0.2937	-0.3447	
0.114192	-0.983564	0.22875	19.53	-4.48	-4.62	-0.1415	0.2936	-0.3462	
0.108336	-0.98149	0.23485	21.7	-3.78	-4.62	-0.1398	0.3077	-0.3479	
0.11041	-0.96319	0.240828	24.71	-2.59	-4.27	-0.1513	0.2898	-0.3445	
0.109556	-0.949648	0.233142	23.73	-2.94	-4.27	-0.1506	0.2867	-0.3607	
0.11163	-0.94428	0.247416	19.88	-6.79	-3.99	-0.148	0.2896	-0.3608	
0.12566	-0.934032	0.256444	19.74	-8.05	-3.99	-0.1448	0.2828	-0.349	
0.129442	-0.951844	0.264008	18.83	-7.7	-4.41	-0.1496	0.2738	-0.3533	
0.132126	-0.95099	0.279746	20.44	-7.14	-4.41	-0.1438	0.2749	-0.3579	
0.131272	-0.937082	0.282186	22.89	-5.04	-4.62	-0.1442	0.278	-0.352	
0.131028	-0.936228	0.282064	23.38	-3.85	-4.97	-0.1525	0.2774	-0.3636	
0.135908	-0.9394	0.289994	22.12	-4.13	-5.04	-0.1434	0.2733	-0.3682	
0.137494	-0.934886	0.297558	22.4	-3.64	-5.53	-0.1496	0.2628	-0.3695	
0.141886	-0.929518	0.300852	25.55	-3.08	-6.23	-0.1486	0.2675	-0.3695	
0.139202	-0.930494	0.306708	29.75	-2.03	-7.63	-0.1496	0.2645	-0.3754	
0.131638	-0.94489	0.302072	31.92	-1.47	-8.33	-0.1572	0.2541	-0.3825	
0.125294	-0.94123	0.29097	32.9	-2.73	-8.4	-0.156	0.2572	-0.3826	
0.128222	-0.930128	0.311954	32.69	-5.32	-8.75	-0.151	0.2504	-0.3841	
0.136152	-0.916586	0.326838	33.67	-5.67	-8.89	-0.1505	0.2423	-0.3767	
0.141642	-0.908656	0.335256	34.72	-5.18	-9.38	-0.1576	0.2447	-0.3898	
0.145668	-0.90097	0.356972	37.38	-5.11	-10.57	-0.1565	0.2319	-0.3868	
0.155916	-0.892674	0.375882	40.32	-4.34	-12.18	-0.1505	0.2297	-0.3884	
0.165798	-0.877058	0.391864	44.8	-2.38	-13.23	-0.1482	0.2216	-0.3944	
0.174826	-0.86071	0.394182	47.32	0.14	-13.44	-0.161	0.2197	-0.3955	
0.174094	-0.851072	0.404918	47.32	0.63	-13.72	-0.1589	0.2131	-0.3955	
0.189466	-0.837652	0.43554	46.62	-0.14	-14.28	-0.1564	0.2034	-0.4029	
0.197762	-0.82533	0.451278	49.56	1.26	-14.63	-0.1618	0.1992	-0.4042	
0.21167	-0.808494	0.456768	52.08	2.59	-15.19	-0.1556	0.1844	-0.4235	
0.216794	-0.802028	0.46787	53.27	2.24	-16.38	-0.1638	0.1756	-0.4114	
0.21838	-0.795806	0.494222	53.2	0.42	-17.08	-0.1612	0.1659	-0.4217	
0.221796	-0.784704	0.523136	54.46	-0.28	-17.08	-0.161	0.1643	-0.4232	
0.212646	-0.77226	0.550586	56.07	1.4	-16.73	-0.1693	0.1462	-0.4303	
0.218746	-0.74603	0.552172	59.64	1.82	-16.38	-0.16	0.1421	-0.4408	
0.221186	-0.726388	0.557296	58.45	0.63	-17.15	-0.1617	0.128	-0.4377	
0.233142	-0.71126	0.584746	56.28	-0.56	-16.73	-0.1621	0.1344	-0.4452	
0.23851	-0.68198	0.614026	58.52	0.35	-16.03	-0.1637	0.1187	-0.4391	
0.24522	-0.650504	0.629154	59.29	2.59	-15.96	-0.1639	0.1044	-0.4375	
0.256932	-0.612928	0.619882	61.95	4.41	-15.61	-0.1631	0.0997	-0.4523	
0.260104	-0.592676	0.635742	59.71	2.45	-16.17	-0.1537	0.0891	-0.4466	
0.266204	-0.577548	0.667218	56.7	1.4	-16.66	-0.1571	0.08	-0.4479	
0.266082	-0.56059	0.682346	58.59	2.24	-16.59	-0.1639	0.0743	-0.4462	
0.262544	-0.532164	0.715286	57.96	2.17	-15.89	-0.1696	0.0606	-0.4548	
0.260958	-0.517036	0.726144	57.68	3.5	-15.54	-0.1571	0.0499	-0.4566	
0.258274	-0.50935	0.73261	58.24	5.11	-15.33	-0.1524	0.032	-0.461	
0.258396	-0.50203	0.737734	56.91	4.41	-14.98	-0.1619	0.0266	-0.4681	
0.258518	-0.477996	0.756522	56.63	5.04	-14.49	-0.1548	0.01	-0.4623	
0.25315	-0.452986	0.7808	56.63	6.44	-14.07	-0.1564	0.0134	-0.4682	
0.25437	-0.425536	0.790316	56.91	7.42	-14.28	-0.1522	0.0003	-0.4697	
0.251442	-0.403698	0.785436	57.26	6.23	-14.28	-0.1539	-0.0138	-0.4666	
0.252052	-0.385154	0.804102	54.25	4.48	-15.05	-0.1467	-0.0287	-0.4711	
0.25315	-0.38064	0.812398	52.5	3.29	-15.61	-0.15	-0.0412	-0.4665	
0.25559	-0.378322	0.815448	50.4	1.82	-15.54	-0.1586	-0.0419	-0.4677	
0.252296	-0.365634	0.82777	49.98	1.89	-14.98	-0.1449	-0.0496	-0.4666	
0.256444	-0.35441	0.846192	47.6	-0.35	-13.86	-0.1431	-0.0546	-0.4621	
0.263276	-0.341966	0.857172	46.06	-0.98	-13.02	-0.1396	-0.058	-0.474	
0.272914	-0.319396	0.871812	42.91	-2.66	-12.25	-0.1395	-0.0755	-0.4739	
0.28731	-0.309392	0.891698	40.6	-3.36	-12.53	-0.1391	-0.0819	-0.4665	
0.299022	-0.296338	0.905362	39.13	-2.38	-11.9	-0.1488	-0.0857	-0.4706	
0.29341	-0.272548	0.8967	41.93	1.61	-11.83	-0.1381	-0.0931	-0.465	
0.291092	-0.257786	0.898896	39.06	2.03	-11.48	-0.1341	-0.1063	-0.462	
0.296948	-0.238876	0.907924	36.82	2.17	-10.92	-0.1388	-0.1185	-0.4633	
0.304268	-0.229116	0.914024	34.65	1.82	-10.71	-0.1397	-0.1231	-0.4662	
0.313296	-0.215208	0.91866	33.11	2.1	-10.5	-0.1441	-0.1227	-0.4646	
0.307684	-0.201788	0.9211	32.41	2.87	-9.8	-0.137	-0.1218	-0.4633	
0.310246	-0.191662	0.925614	30.52	2.03	-9.52	-0.1356	-0.1379	-0.4632	
0.307684	-0.178242	0.923662	30.31	2.38	-8.68	-0.1401	-0.1358	-0.4631	
0.302804	-0.158722	0.931714	28.84	1.96	-8.19	-0.1306	-0.1447	-0.4633	
0.302194	-0.150304	0.93391	25.9	1.68	-7.35	-0.135	-0.1602	-0.4616	
0.310002	-0.15311	0.928298	24.43	0.84	-6.65	-0.1378	-0.1472	-0.4543	
0.317932	-0.15372	0.943304	20.3	-0.98	-6.3	-0.1289	-0.1656	-0.4573	
0.317688	-0.142618	0.9577	20.72	-0.21	-5.95	-0.1328	-0.1699	-0.4557	
0.31781	-0.126026	0.96502	19.32	-1.54	-4.2	-0.1226	-0.1693	-0.4634	
0.323544	-0.119682	0.961604	15.05	-1.26	-3.36	-0.1332	-0.1667	-0.4542	
0.325862	-0.115656	0.963678	10.36	-1.68	-2.8	-0.1344	-0.1698	-0.4512	
0.328302	-0.107116	0.960018	9.94	0.49	-2.59	-0.1441	-0.1736	-0.4539	
0.320128	-0.106262	0.941108	8.89	-0.07	-2.31	-0.1308	-0.1765	-0.4542	
0.316346	-0.115412	0.936106	5.74	-1.47	-2.59	-0.1289	-0.1847	-0.4424	
0.317688	-0.12444	0.938668	4.76	-1.12	-2.38	-0.1278	-0.1768	-0.4587	
0.321226	-0.12932	0.943548	4.41	-1.12	-2.03	-0.1317	-0.1828	-0.4557	
0.320616	-0.130784	0.941108	3.5	-0.63	-1.75	-0.1245	-0.1835	-0.4529	
0.322446	-0.131516	0.943426	3.15	-0.56	-1.61	-0.1249	-0.1819	-0.4425	
0.319518	-0.13176	0.942938	2.94	0.14	-1.68	-0.1334	-0.181	-0.4527	
0.32391	-0.128344	0.94428	1.89	-0.07	-1.68	-0.1392	-0.1804	-0.4525	
0.324276	-0.129686	0.951234	0.91	-1.05	-1.61	-0.1339	-0.1905	-0.4556	
0.320982	-0.129808	0.95282	-0.07	-1.12	-1.54	-0.1357	-0.1855	-0.4585	
0.315248	-0.124684	0.9516	-1.47	-1.12	-1.54	-0.1347	-0.1809	-0.4571	
0.317688	-0.120902	0.948794	-3.01	-1.82	-1.54	-0.1327	-0.189	-0.4512	
0.318908	-0.127734	0.94306	-5.32	-1.82	-1.33	-0.1316	-0.1844	-0.4542	
0.318054	-0.13664	0.944524	-7.28	-2.8	-0.42	-0.1277	-0.18	-0.4528	
0.318054	-0.132858	0.949526	-7.21	-1.82	0.35	-0.1271	-0.1864	-0.4543	
0.323544	-0.122122	0.951356	-7.91	-0.91	0.77	-0.1305	-0.1797	-0.4557	
0.326716	-0.12017	0.956236	-11.13	-2.17	1.26	-0.1359	-0.1807	-0.4659	
0.326594	-0.119316	0.959896	-12.74	-2.52	1.4	-0.1308	-0.1765	-0.4542	
0.325618	-0.121512	0.965752	-15.05	-2.31	1.61	-0.1344	-0.1666	-0.4631	
0.323788	-0.117852	0.964166	-17.29	-2.52	2.17	-0.1281	-0.1736	-0.4573	
0.333426	-0.123464	0.969168	-21.21	-4.55	2.73	-0.133	-0.17	-0.4498	
0.33977	-0.12749	0.964288	-21.7	-3.99	3.29	-0.1372	-0.1695	-0.4541	
0.337452	-0.129198	0.963678	-24.08	-3.92	3.92	-0.1373	-0.1679	-0.4571	
0.335622	-0.132736	0.969656	-28.98	-3.64	4.2	-0.143	-0.153	-0.4585	
0.341234	-0.128588	0.966362	-29.26	-0.91	4.06	-0.1307	-0.1606	-0.4588	
0.34099	-0.13542	0.959896	-32.62	-0.98	3.99	-0.1441	-0.1577	-0.454	
0.335012	-0.152744	0.95404	-37.73	-3.57	4.83	-0.1406	-0.1469	-0.4616	
0.33001	-0.169092	0.94367	-40.04	-4.48	6.44	-0.1387	-0.136	-0.4602	
0.336476	-0.191418	0.943792	-45.78	-4.48	7.98	-0.1384	-0.1376	-0.4661	
0.332572	-0.193126	0.93879	-47.6	-0.84	8.26	-0.1405	-0.1151	-0.4648	
0.329888	-0.202764	0.916952	-48.44	0.42	8.33	-0.1447	-0.1163	-0.4661	
0.325984	-0.218624	0.886818	-49.14	-0.07	8.82	-0.144	-0.1084	-0.4647	
0.323666	-0.244732	0.878644	-53.62	-3.01	9.52	-0.1524	-0.0949	-0.4646	
0.313662	-0.25864	0.86376	-55.3	-2.52	10.01	-0.1592	-0.0847	-0.4615	
0.315614	-0.283162	0.853756	-60.13	-4.69	11.06	-0.1612	-0.07979999	-0.4571	
0.315248	-0.305732	0.841922	-63.56	-7.21	11.97	-0.148	-0.08109999	-0.4604	
0.318176	-0.335622	0.809714	-63.63	-7.42	12.39	-0.1492	-0.065	-0.4708	
0.314028	-0.361486	0.790316	-65.45	-9.66	13.16	-0.1534	-0.0536	-0.4604	
0.30805	-0.383446	0.780434	-67.34	-11.69	14.21	-0.161	-0.0321	-0.4633	
0.305366	-0.410286	0.767502	-69.65	-10.64	16.03	-0.1627	-0.0304	-0.4574	
0.302926	-0.440542	0.747128	-69.23	-8.4	17.64	-0.1621	-0.0209	-0.4604	
0.300974	-0.454816	0.732976	-70.56	-9.17	19.32	-0.1702	0.0052	-0.4604	
0.296704	-0.486658	0.710772	-71.54	-9.03	19.88	-0.1657	0.0031	-0.459	
0.294386	-0.522282	0.684298	-70.7	-8.61	20.09	-0.1656	0.0158	-0.4532	
0.270596	-0.559248	0.633546	-66.15	-2.38	21.07	-0.1709	0.0433	-0.4576	
0.262056	-0.583892	0.61549	-66.15	-3.43	21.49	-0.1717	0.0497	-0.4488	
0.264374	-0.614026	0.61305	-66.85	-6.37	21.56	-0.1669	0.0603	-0.4475	
0.263886	-0.649162	0.606096	-66.5	-8.47	21.49	-0.1703	0.0829	-0.4491	
0.275964	-0.668682	0.602192	-61.74	-7.07	20.58	-0.1725	0.0894	-0.4431	
0.277916	-0.690032	0.609756	-61.04	-6.02	19.6	-0.1798	0.0901	-0.4429	
0.272548	-0.703452	0.593286	-56.63	-5.04	19.32	-0.1803	0.1124	-0.4446	
0.263764	-0.710284	0.577548	-54.18	-4.62	19.46	-0.1738	0.1165	-0.4329	
0.260104	-0.718092	0.567788	-55.02	-2.24	20.23	-0.1814	0.122	-0.4357	
0.250344	-0.72224	0.552904	-54.95	1.4	19.95	-0.1851	0.1445	-0.4269	
0.231312	-0.722972	0.532652	-49.91	8.61	19.11	-0.1632	0.144	-0.4349	
0.226066	-0.726266	0.508374	-51.31	7.84	18.62	-0.1647	0.1584	-0.4275	
0.220454	-0.74359	0.498858	-52.15	3.71	18.76	-0.1771	0.15	-0.4212	
0.218502	-0.761036	0.486414	-53.83	-0.84	18.55	-0.1682	0.1618	-0.4156	
0.216306	-0.769576	0.472384	-53.27	-5.18	18.41	-0.1698	0.1794	-0.4142	
0.2318	-0.790316	0.474946	-56	3.01	15.75	-0.1821	0.187	-0.411	
0.20923	-0.816058	0.444934	-47.46	12.6	12.53	-0.1665	0.1886	-0.4085	
0.20374	-0.828624	0.408334	-47.18	6.16	13.79	-0.1646	0.1995	-0.4086	
0.19825	-0.837896	0.393694	-50.33	1.68	14	-0.1645	0.1995	-0.4101	
0.198372	-0.853878	0.379298	-50.75	0.98	14.21	-0.1708	0.2033	-0.4025	
0.202154	-0.869494	0.37088	-47.25	1.89	14.49	-0.1608	0.2197	-0.4014	
0.199226	-0.876448	0.362706	-43.68	1.61	14.7	-0.1641	0.2199	-0.3851	
0.199104	-0.884378	0.349896	-39.9	2.24	13.93	-0.1627	0.2373	-0.3897	
0.198982	-0.891332	0.338428	-38.99	2.73	12.04	-0.1525	0.2346	-0.3855	
0.200324	-0.89487	0.327204	-36.4	3.99	9.52	-0.1599	0.2386	-0.3912	
0.17995	-0.905606	0.315492	-26.6	4.13	7.77	-0.1536	0.2458	-0.4052	
0.172264	-0.93086	0.313418	-26.6	6.79	6.16	-0.1653	0.247	-0.3793	
0.15006	-0.939888	0.298412	-24.22	10.57	4.48	-0.1518	0.2551	-0.3723	
0.145668	-0.954284	0.269254	-23.45	10.15	4.97	-0.147	0.269	-0.3588	
0.142008	-0.958798	0.260714	-27.3	6.02	6.3	-0.1525	0.2631	-0.3738	
0.137738	-0.95709	0.250344	-28.49	4.41	6.58	-0.1558	0.2666	-0.3693	
0.141886	-0.954406	0.241194	-26.88	4.34	6.65	-0.1514	0.2646	-0.365	
0.145058	-0.9516	0.240462	-25.97	3.15	6.37	-0.1527	0.2773	-0.3577	
0.147742	-0.954528	0.235826	-26.39	1.68	5.6	-0.157	0.2778	-0.362	
0.152134	-0.952332	0.239608	-28	-0.49	5.11	-0.1499	0.2787	-0.3607	
0.161894	-0.952698	0.245708	-28.91	-0.63	4.83	-0.1546	0.2855	-0.368	
0.16287	-0.962092	0.238022	-27.65	1.68	4.48	-0.1465	0.2878	-0.3791	
0.161162	-0.97905	0.226798	-25.13	3.64	4.27	-0.1447	0.2845	-0.3564	
0.154086	-0.989054	0.228018	-24.01	4.13	4.55	-0.1458	0.294	-0.3476	
0.146522	-0.974902	0.224114	-23.17	5.04	5.39	-0.1436	0.3001	-0.3433	
0.14396	-0.967948	0.212402	-19.53	7.28	5.6	-0.1341	0.2913	-0.3449	
0.13298	-0.976976	0.199958	-14.63	7.7	5.04	-0.1425	0.3048	-0.3463	
0.121878	-0.986248	0.181902	-13.02	6.93	5.95	-0.1423	0.3016	-0.3404	
0.118096	-0.997838	0.171898	-12.18	4.9	6.23	-0.1369	0.2899	-0.3419	
0.119316	-1.000156	0.17385	-12.81	1.4	6.58	-0.1394	0.3013	-0.3434	
0.120414	-0.996862	0.180926	-12.74	-1.61	6.37	-0.1375	0.3106	-0.3376	
0.119194	-0.996374	0.183122	-10.92	-2.73	6.37	-0.1355	0.3073	-0.345	
0.116266	-1.009428	0.18544	-6.79	-2.59	6.79	-0.1351	0.3184	-0.3451	
0.11346	-0.99247	0.194712	-4.62	-2.24	6.3	-0.143	0.308	-0.3359	
0.116632	-0.979172	0.203008	-4.34	-2.1	5.39	-0.1382	0.306	-0.3494	
0.123952	-0.959408	0.21228	-5.04	-2.31	4.97	-0.141	0.3014	-0.3374	
0.126392	-0.92354	0.21594	-5.25	-1.26	4.48	-0.1302	0.3099	-0.3348	
0.127734	-0.91012	0.20496	-5.39	-0.35	3.99	-0.1349	0.3135	-0.3332	
0.117486	-0.925736	0.194956	-7.35	-1.26	3.64	-0.1433	0.3112	-0.3345	
0.107238	-0.950746	0.19825	-8.89	-2.31	3.43	-0.1312	0.3178	-0.3516	
0.109312	-0.956724	0.197396	-8.61	-1.54	3.01	-0.1329	0.3086	-0.3406	
0.112606	-0.977586	0.185806	-7.07	-0.98	2.87	-0.1282	0.3033	-0.3363	
0.110898	-0.987224	0.192028	-5.46	-1.75	2.24	-0.1369	0.3201	-0.3362	
0.112728	-0.983686	0.186172	-3.36	-1.54	1.75	-0.1322	0.3164	-0.3363	
0.113338	-0.984296	0.180316	-2.87	-2.03	1.47	-0.1354	0.3199	-0.3392	
0.114924	-0.977342	0.18605	-3.29	-2.66	1.19	-0.1231	0.3091	-0.3305	
0.113704	-0.962214	0.18727	-2.45	-1.61	0.98	-0.1239	0.3204	-0.3365	
0.113948	-0.974536	0.177632	-1.19	-1.4	0.35	-0.1358	0.3215	-0.3274	
0.112606	-0.972828	0.177754	-0.63	-1.89	0.14	-0.1433	0.3112	-0.336	
0.114802	-0.96746	0.174582	0.35	-1.12	0	-0.1305	0.3257	-0.3487	
0.116388	-0.967704	0.177144	1.68	-0.63	-0.28	-0.1291	0.3097	-0.323	
0.114436	-0.978074	0.179218	2.94	-0.84	-0.77	-0.139	0.3233	-0.3228	
0.111508	-0.978684	0.181902	3.29	-0.42	-1.19	-0.1356	0.3199	-0.3318	
0.116266	-0.978074	0.177388	4.48	1.12	-1.4	-0.1427	0.3174	-0.3257	
0.12017	-0.981246	0.1769	4.69	0.42	-1.4	-0.1304	0.3082	-0.3215	
0.11346	-0.981246	0.183488	5.04	-0.49	-1.54	-0.1416	0.3221	-0.3302	
0.110898	-0.978684	0.187392	5.46	-0.49	-1.47	-0.137	0.3184	-0.3258	
0.113582	-0.966118	0.182878	7.07	0.63	-1.4	-0.1305	0.3131	-0.3348	
0.116266	-0.972462	0.177998	7.63	0	-1.61	-0.1359	0.3105	-0.3421	
0.114802	-0.974048	0.179584	8.33	-1.4	-2.1	-0.1339	0.3165	-0.3274	
0.119804	-0.978806	0.184464	8.47	-2.38	-2.59	-0.133	0.3086	-0.3362	
0.12383	-0.98149	0.199348	9.87	-2.52	-2.94	-0.1424	0.3158	-0.3331	
0.125782	-0.97844	0.199226	12.25	-0.91	-3.15	-0.1317	0.3116	-0.3392	
0.120658	-0.976854	0.192394	14.7	0.56	-3.64	-0.1417	0.3127	-0.3493	
0.116998	-0.982222	0.19032	15.54	-0.7	-3.92	-0.1309	0.3004	-0.3332	
0.111996	-0.978196	0.186172	16.73	-1.96	-4.13	-0.1372	0.3058	-0.3316	
0.111264	-0.976854	0.20008	17.08	-3.71	-4.41	-0.1422	0.3	-0.3403	
0.117852	-0.969778	0.209352	19.53	-3.08	-4.48	-0.1381	0.3027	-0.3405	
0.128954	-0.980148	0.212036	20.02	-3.43	-4.41	-0.1417	0.2952	-0.3433	
0.128466	-0.985882	0.22082	22.05	-3.85	-4.69	-0.1495	0.304	-0.3505	
0.12749	-0.986736	0.224602	23.45	-3.08	-5.11	-0.1382	0.2901	-0.3493	
0.124806	-0.98149	0.229116	25.48	-2.52	-4.97	-0.1413	0.2936	-0.3536	
0.119194	-0.970754	0.2257	27.23	-2.31	-4.48	-0.1412	0.292	-0.3507	
0.11712	-0.961116	0.228628	28.35	-2.94	-4.69	-0.1482	0.2912	-0.3579	
0.119316	-0.965752	0.24461	27.72	-5.67	-5.11	-0.1443	0.2813	-0.3609	
0.12688	-0.960628	0.261324	27.93	-6.79	-5.53	-0.1442	0.2797	-0.3579	
0.126148	-0.960018	0.26718	30.03	-5.53	-5.6	-0.1522	0.29	-0.3666	
0.125904	-0.953064	0.266326	33.04	-4.76	-5.25	-0.1427	0.2686	-0.3786	
0.135176	-0.94794	0.26962	33.74	-5.74	-4.97	-0.1538	0.2617	-0.3738	
0.160186	-0.934398	0.28487	30.8	-7.98	-4.83	-0.1451	0.2624	-0.3755	
0.14884	-0.923174	0.305244	36.19	-11.76	-5.6	-0.151	0.2646	-0.3798	
0.146888	-0.915854	0.31659	35	-12.6	-6.58	-0.1519	0.2616	-0.3886	
0.155428	-0.920246	0.323056	32.9	-11.83	-7.07	-0.1633	0.242	-0.3808	
0.161162	-0.920124	0.339892	36.82	-9.94	-7.49	-0.1534	0.2459	-0.3885	
0.154086	-0.914024	0.351604	37.52	-7.91	-8.4	-0.1583	0.2352	-0.3853	
0.151158	-0.89914	0.35258	41.65	-5.11	-8.89	-0.1604	0.2434	-0.3883	
0.16836	-0.883768	0.348676	43.75	-4.62	-9.03	-0.156	0.2304	-0.4031	
0.17751	-0.884256	0.380396	39.97	-8.61	-10.64	-0.158	0.221	-0.4045	
0.1891	-0.861198	0.412726	40.81	-6.44	-11.55	-0.1605	0.2149	-0.3955	
0.198982	-0.84058	0.415654	44.8	-2.38	-12.88	-0.1645	0.2138	-0.4072	
0.192516	-0.832772	0.432002	44.66	-2.03	-14.42	-0.1622	0.204	-0.4042	
0.194712	-0.827404	0.45506	41.02	-0.21	-15.61	-0.1639	0.1915	-0.4086	
0.192882	-0.827526	0.446764	46.2	3.71	-15.75	-0.1547	0.1875	-0.4161	
0.206302	-0.818498	0.436638	52.43	4.76	-14.42	-0.1651	0.1917	-0.4159	
0.208986	-0.787876	0.491416	50.12	0.7	-14.35	-0.1682	0.1793	-0.4217	
0.211426	-0.756034	0.509716	52.15	-0.49	-14.56	-0.1657	0.168	-0.4246	
0.21838	-0.732976	0.519476	50.33	-2.38	-15.54	-0.1545	0.1557	-0.4248	
0.230092	-0.722606	0.552416	49.14	-4.83	-16.52	-0.1642	0.152	-0.4245	
0.23973	-0.719678	0.589992	50.12	-2.66	-17.57	-0.1718	0.1416	-0.4287	
0.244976	-0.702476	0.594018	52.78	0.21	-17.57	-0.163	0.1408	-0.4319	
0.249734	-0.683444	0.598532	54.25	1.26	-17.36	-0.175	0.1309	-0.4374	
0.261812	-0.662094	0.613782	53.76	1.68	-17.29	-0.1735	0.1165	-0.4433	
0.261568	-0.646112	0.623054	53.69	2.45	-17.29	-0.1617	0.1121	-0.4376	
0.25498	-0.6344	0.625982	54.11	3.29	-17.22	-0.1734	0.1007	-0.4491	
0.2562	-0.61366	0.635742	52.71	2.1	-16.87	-0.1739	0.1054	-0.4447	
0.263398	-0.603778	0.659654	49.98	-0.35	-16.66	-0.1613	0.0788	-0.4493	
0.271938	-0.591212	0.687226	49.42	0.21	-16.73	-0.1683	0.0763	-0.4505	
0.277062	-0.569862	0.690276	54.25	4.83	-16.59	-0.1697	0.0749	-0.4431	
0.276696	-0.545218	0.690764	57.12	6.72	-16.17	-0.1662	0.0539	-0.4519	
0.2745	-0.5185	0.711382	55.79	6.02	-15.47	-0.1671	0.035	-0.4636	
0.278282	-0.502518	0.72773	54.39	4.62	-15.05	-0.1672	0.0191	-0.4591	
0.274378	-0.482876	0.74359	55.02	6.65	-15.19	-0.1693	0.0273	-0.4635	
0.281454	-0.456524	0.759572	54.25	6.51	-14.84	-0.1621	0.009099999	-0.4517	
0.29036	-0.439322	0.770186	53.34	6.23	-14.98	-0.1593	0.0104	-0.4562	
0.288652	-0.42517	0.789462	51.52	5.32	-14.98	-0.1626	0.0029	-0.4679	
0.291458	-0.40626	0.799222	53.41	6.58	-14.98	-0.1482	-0.0127	-0.4667	
0.293044	-0.383202	0.806542	53.76	5.88	-14.91	-0.1539	-0.0313	-0.462	
0.28426	-0.373686	0.82838	50.82	4.13	-15.19	-0.1493	-0.0333	-0.4636	
0.283284	-0.358436	0.838994	51.31	4.2	-14.35	-0.1511	-0.0442	-0.4679	
0.277916	-0.339282	0.838994	52.15	5.67	-13.02	-0.1513	-0.0426	-0.4664	
0.280234	-0.318054	0.851926	49.49	4.76	-11.06	-0.1526	-0.0457	-0.4605	
0.287066	-0.292922	0.869372	47.25	3.22	-9.59	-0.1486	-0.0731	-0.4648	
0.284992	-0.269376	0.877302	47.18	3.85	-9.03	-0.1501	-0.0729	-0.4633	
0.284626	-0.24705	0.884134	45.78	3.64	-9.17	-0.1474	-0.08419999	-0.4722	
0.29707	-0.244732	0.893406	40.67	0	-9.38	-0.1468	-0.0923	-0.4677	
0.3111	-0.237778	0.926102	36.33	-3.22	-8.75	-0.1468	-0.0939	-0.4618	
0.310856	-0.230092	0.93147	34.3	-2.1	-8.12	-0.1485	-0.1048	-0.4676	
0.30988	-0.216794	0.931348	33.04	-1.05	-7.14	-0.1446	-0.1179	-0.4617	
0.313418	-0.210206	0.934398	29.89	-2.52	-6.37	-0.1434	-0.1149	-0.4617	
0.316834	-0.20496	0.9394	27.86	-2.45	-5.25	-0.1403	-0.1167	-0.4647	
0.317932	-0.19276	0.941718	24.85	-1.75	-4.48	-0.1505	-0.119	-0.4526	
0.322812	-0.186538	0.945378	21.98	-3.22	-4.13	-0.1429	-0.1213	-0.4617	
0.332816	-0.182268	0.946354	20.16	-1.47	-3.71	-0.1403	-0.1342	-0.4617	
0.325252	-0.188856	0.9394	19.39	0.21	-3.85	-0.1408	-0.1278	-0.4632	
0.326472	-0.187758	0.939034	15.4	-1.33	-2.66	-0.1429	-0.1388	-0.4542	
0.330986	-0.188734	0.941596	13.79	0	-1.89	-0.135	-0.1443	-0.4617	
0.33184	-0.183854	0.943182	12.32	1.12	-1.54	-0.1459	-0.1511	-0.4614	
0.324886	-0.180438	0.936716	10.85	1.61	-1.47	-0.1389	-0.1486	-0.4631	
0.319396	-0.17751	0.925736	8.89	0.63	-1.4	-0.1383	-0.1408	-0.4572	
0.31842	-0.18239	0.931714	6.16	-0.63	-1.26	-0.1435	-0.1466	-0.4586	
0.31598	-0.18422	0.922686	6.93	0.77	-1.26	-0.1401	-0.155	-0.4512	
0.318908	-0.194956	0.921588	5.04	0.35	-1.54	-0.1337	-0.1603	-0.4543	
0.317444	-0.197396	0.928786	4.62	1.47	-1.61	-0.136	-0.1489	-0.4376	
0.315248	-0.190198	0.927566	5.25	1.75	-1.54	-0.1323	-0.1605	-0.4543	
0.316468	-0.18605	0.923052	4.69	1.4	-1.33	-0.137	-0.1552	-0.4572	
0.312198	-0.184586	0.922686	3.29	0.77	-1.54	-0.1435	-0.1625	-0.4584	
0.312198	-0.188124	0.923174	2.45	0.07	-1.61	-0.1315	-0.1701	-0.4528	
0.313784	-0.195566	0.92171	2.17	0	-1.33	-0.1394	-0.163	-0.4512	
0.313418	-0.197274	0.920978	1.4	-0.14	-1.26	-0.1393	-0.1613	-0.4586	
0.310246	-0.189832	0.926834	0.91	0.63	-0.91	-0.1305	-0.1654	-0.4514	
0.309758	-0.186904	0.9211	1.4	1.47	-0.91	-0.1406	-0.1628	-0.4585	
0.308294	-0.185074	0.918904	-0.56	0.14	-0.91	-0.1332	-0.1651	-0.4602	
0.311344	-0.182756	0.916464	-1.75	-0.7	-0.98	-0.1422	-0.161	-0.46	
0.312442	-0.186416	0.920246	-2.03	-1.12	-0.7	-0.1371	-0.1569	-0.4498	
0.316224	-0.191662	0.92232	-2.66	-2.03	-0.35	-0.1438	-0.1467	-0.4497	
0.321836	-0.194224	0.922442	-4.13	-2.1	-0.07	-0.1407	-0.1628	-0.4541	
0.321104	-0.183976	0.926224	-4.62	-0.77	-0.49	-0.1273	-0.1689	-0.4514	
0.320982	-0.186538	0.931348	-6.51	-1.05	-0.14	-0.1374	-0.1679	-0.4541	
0.320372	-0.184586	0.928664	-7.35	-0.84	0.56	-0.1369	-0.1552	-0.4616	
0.320128	-0.185684	0.925858	-8.82	-1.54	1.05	-0.1281	-0.1593	-0.4529	
0.319518	-0.184464	0.92659	-10.29	-1.96	1.19	-0.1384	-0.1583	-0.4468	
0.324154	-0.18788	0.935496	-11.55	-2.38	1.26	-0.1403	-0.1517	-0.4556	
0.329034	-0.187636	0.94001	-12.04	-1.68	1.4	-0.1438	-0.1467	-0.4497	
0.3294	-0.18422	0.938912	-13.02	-1.12	1.82	-0.1433	-0.1515	-0.4511	
0.329888	-0.18178	0.938668	-15.26	-2.17	2.38	-0.1378	-0.1472	-0.4557	
0.329278	-0.183488	0.940376	-17.57	-3.29	3.01	-0.1487	-0.1349	-0.4688	
0.335988	-0.188612	0.944036	-20.3	-4.2	3.71	-0.1462	-0.132	-0.463	
0.33977	-0.192272	0.946354	-21.42	-4.34	4.76	-0.1414	-0.1373	-0.4631	
0.334524	-0.198494	0.946964	-23.66	-1.75	4.9	-0.1333	-0.1301	-0.4648	
0.331108	-0.18605	0.934154	-25.27	-2.03	5.88	-0.1422	-0.1277	-0.4646	
0.33123	-0.194102	0.92842	-28.49	-2.52	6.16	-0.1496	-0.127	-0.4615	
0.335866	-0.208498	0.925736	-31.29	-3.71	7.07	-0.1446	-0.1338	-0.4616	
0.340136	-0.228628	0.926834	-35.91	-4.76	8.47	-0.1442	-0.1085	-0.4529	
0.33367	-0.231678	0.917562	-37.03	-2.87	9.17	-0.149	-0.09999999	-0.4661	
0.332572	-0.23607	0.898896	-37.38	-1.75	9.52	-0.1487	-0.1048	-0.4602	
0.331352	-0.256444	0.885964	-39.76	-2.94	9.45	-0.1489	-0.1016	-0.4646	
0.333182	-0.275232	0.885232	-43.12	-5.95	10.15	-0.1589	-0.0879	-0.46	
0.33367	-0.30012	0.88572	-46.2	-6.79	11.34	-0.156	-0.0882	-0.4616	
0.331474	-0.315248	0.878522	-46.41	-3.71	12.39	-0.1542	-0.0757	-0.4858	
0.327082	-0.324032	0.863394	-47.39	-1.75	13.02	-0.1606	-0.0671	-0.4675	
0.320006	-0.332084	0.858758	-50.19	-1.82	13.58	-0.1581	-0.0467	-0.4692	
0.319396	-0.346114	0.84668	-52.99	-1.61	14.28	-0.1597	-0.0482	-0.4558	
0.321836	-0.363926	0.833748	-54.04	-1.12	15.26	-0.1715	-0.0422	-0.4674	
0.314272	-0.37515	0.81679	-54.04	-1.33	16.45	-0.1498	-0.0269	-0.4695	
0.311466	-0.40016	0.803248	-56.77	-3.15	16.87	-0.1691	-0.0059	-0.4662	
0.297558	-0.415654	0.774944	-58.1	-2.66	17.64	-0.1608	-0.002	-0.465	
0.28792	-0.43249	0.76006	-62.51	-3.71	18.69	-0.162	0.0107	-0.465	
0.2806	-0.467748	0.73505	-63.7	-2.17	19.53	-0.1651	0.0126	-0.4605	
0.27572	-0.484828	0.719678	-64.96	-2.66	19.6	-0.1672	0.0191	-0.4576	
0.271084	-0.5124	0.699914	-67.2	-3.85	20.16	-0.167	0.0334	-0.4592	
0.263642	-0.530456	0.684908	-68.74	-4.69	21	-0.165	0.0411	-0.4519	
0.254492	-0.552172	0.66368	-68.67	-4.41	21.91	-0.1677	0.0573	-0.4637	
0.246806	-0.56669	0.632448	-66.92	-2.8	22.33	-0.1678	0.07319999	-0.4579	
0.247172	-0.594384	0.617808	-66.92	-1.68	22.4	-0.1695	0.0716	-0.4416	
0.233874	-0.63379	0.615124	-67.69	-1.4	20.58	-0.1641	0.09339999	-0.4493	
0.236802	-0.6649	0.60817	-67.76	-5.53	21	-0.1796	0.1044	-0.4445	
0.238266	-0.68015	0.584624	-66.36	-7.14	21.7	-0.1713	0.1051	-0.4344	
0.232776	-0.688568	0.56364	-65.87	-4.83	21.77	-0.1701	0.1257	-0.439	
0.219112	-0.70516	0.546438	-65.45	-0.56	21.28	-0.1748	0.1277	-0.433	
0.20008	-0.715164	0.528626	-60.83	3.36	21.07	-0.1723	0.1481	-0.4317	
0.197518	-0.734684	0.513254	-63.7	0.35	21.77	-0.1652	0.1457	-0.4186	
0.194468	-0.751642	0.50264	-63.35	-3.29	23.03	-0.1643	0.1552	-0.4319	
0.174704	-0.77836	0.479826	-60.55	-3.43	23.24	-0.1592	0.1594	-0.4203	
0.176168	-0.811422	0.449814	-54.67	8.75	20.16	-0.1612	0.196	-0.416	
0.185684	-0.825452	0.413458	-44.73	12.53	19.46	-0.1608	0.1912	-0.4131	
0.186538	-0.841922	0.38491	-43.47	7.77	20.58	-0.1637	0.2041	-0.4027	
0.177998	-0.863272	0.382104	-48.72	2.59	20.3	-0.1582	0.2226	-0.4015	
0.166286	-0.868884	0.373442	-45.08	1.4	19.18	-0.1583	0.2226	-0.3971	
0.155794	-0.88694	0.36295	-48.51	-0.49	18.55	-0.16	0.226	-0.3971	
0.15799	-0.920978	0.369538	-52.01	2.24	17.01	-0.1512	0.2235	-0.3958	
0.15555	-0.94611	0.354044	-51.38	7	16.66	-0.1653	0.2486	-0.3838	
0.146888	-0.950624	0.330864	-47.74	12.18	16.31	-0.1502	0.2391	-0.3782	
0.132736	-0.92842	0.30927	-42.63	16.8	15.68	-0.1535	0.2601	-0.3782	
0.105286	-0.92842	0.269498	-38.92	19.74	13.72	-0.1413	0.2542	-0.3844	
0.087474	-0.93086	0.240706	-36.75	18.62	12.04	-0.1372	0.2553	-0.3771	
0.07503	-0.935008	0.234606	-38.64	14.28	10.71	-0.1358	0.2552	-0.3772	
0.084668	-0.938668	0.234972	-42.28	10.08	9.31	-0.1379	0.2759	-0.3669	
0.08686399	-0.93879	0.225456	-43.12	8.61	7.56	-0.1381	0.2808	-0.3758	
0.09028	-0.949038	0.210816	-41.65	7.84	6.16	-0.14	0.2825	-0.3669	
0.095038	-0.953552	0.190442	-17.57	2.31	3.57	-0.139	0.2839	-0.3521	
0.10736	-0.96746	0.214598	-24.01	-3.57	1.96	-0.1295	0.2909	-0.3539	
0.096502	-0.980636	0.228872	-31.15	-3.64	1.4	-0.1385	0.2949	-0.3537	
0.102602	-0.96685	0.217648	-29.26	0.35	3.22	-0.135	0.3025	-0.3479	
0.114924	-0.974292	0.197762	-30.59	3.5	4.69	-0.1349	0.3009	-0.3465	
0.114802	-0.988566	0.182146	-29.47	4.97	4.62	-0.1382	0.3044	-0.342	
0.110776	-0.991494	0.169824	-25.76	5.95	3.5	-0.1289	0.2971	-0.3421	
0.100528	-1.013088	0.162626	-23.24	7.49	2.03	-0.1257	0.3078	-0.3379	
0.085034	-1.041392	0.15433	-17.29	8.75	1.05	-0.1301	0.305	-0.3244	
0.083204	-1.03761	0.153354	-12.18	6.23	0.84	-0.1258	0.3078	-0.3305	
0.092476	-1.025288	0.16104	-11.06	2.94	0.56	-0.1282	0.3159	-0.3231	
0.096136	-1.006378	0.16531	-11.9	0.35	0	-0.1253	0.3189	-0.3335	
0.104188	-0.977464	0.175558	-12.11	0.63	-0.77	-0.1343	0.3197	-0.3244	
0.103334	-0.989542	0.1525	-10.85	3.15	-1.05	-0.1272	0.3222	-0.3291	
0.091988	-0.999424	0.138592	-9.03	4.2	-1.4	-0.1272	0.3222	-0.3291	
0.096868	-0.969168	0.156404	-9.1	2.94	-1.96	-0.1346	0.3245	-0.3289	
0.102358	-0.959286	0.161528	-11.27	1.89	-2.24	-0.1271	0.3206	-0.3261	
0.102724	-0.94794	0.169702	-11.13	0.42	-2.38	-0.13	0.3209	-0.326	
0.111874	-0.943182	0.171654	-10.92	1.33	-2.73	-0.1181	0.3165	-0.3263	
0.113216	-0.95404	0.169946	-10.71	1.68	-2.73	-0.1286	0.3207	-0.3246	
0.110044	-0.97783	0.155062	-10.5	2.94	-3.22	-0.1375	0.3232	-0.3244	
0.111752	-0.989786	0.15372	-10.15	2.73	-3.92	-0.137	0.331	-0.3156	
0.106872	-0.988566	0.151646	-7.28	3.36	-4.48	-0.1322	0.329	-0.3275	
0.109556	-0.997594	0.142862	-6.51	3.22	-4.55	-0.129	0.3223	-0.3157	
0.107116	-1.002718	0.14152	-4.69	2.52	-4.41	-0.1381	0.3296	-0.3244	
0.101748	-1.003694	0.138592	-3.36	1.19	-3.99	-0.1306	0.3273	-0.326	
0.10858	-0.991738	0.14457	-3.01	0.56	-3.43	-0.125	0.3267	-0.3188	
0.108092	-0.97722	0.15067	-1.47	1.61	-2.94	-0.1344	0.3356	-0.3171	
0.106872	-0.980392	0.14213	-0.7	1.4	-2.66	-0.1386	0.3328	-0.3126	
0.108092	-0.98027	0.137982	0.98	0.42	-2.73	-0.1316	0.3353	-0.3157	
0.114436	-0.975146	0.13786	1.05	0.14	-2.8	-0.1296	0.3271	-0.3083	
0.121146	-0.983198	0.138104	1.19	-0.84	-2.87	-0.1327	0.3306	-0.3127	
0.125416	-0.990274	0.150548	1.47	-2.87	-2.87	-0.1349	0.3261	-0.3244	
0.125416	-0.981978	0.160918	1.61	-1.12	-2.73	-0.1321	0.3242	-0.3142	
0.124806	-0.97783	0.153232	3.08	0.42	-2.38	-0.1428	0.3316	-0.3154	
0.126514	-0.982344	0.148596	3.78	0.42	-2.03	-0.131	0.3289	-0.3172	
0.124928	-0.980026	0.152256	3.71	-0.63	-1.82	-0.1342	0.3181	-0.32	
0.130418	-0.973194	0.158112	3.92	-1.54	-1.47	-0.1312	0.3162	-0.3186	
0.129442	-0.97234	0.154818	5.88	-1.19	-1.05	-0.1343	0.3181	-0.317	
0.131028	-0.978074	0.15555	7.21	-1.26	-0.91	-0.1461	0.3208	-0.3167	
0.139934	-0.976244	0.167628	7.35	-2.38	-0.98	-0.1377	0.3248	-0.3199	
0.144448	-0.975634	0.169336	7.98	-1.61	-0.56	-0.1367	0.3294	-0.3185	
0.14579	-0.979416	0.167872	7.77	-0.84	0.07	-0.1372	0.3216	-0.3303	
0.144082	-0.973316	0.178608	6.3	-1.19	0.42	-0.1427	0.3174	-0.3272	
0.14762	-0.965142	0.18117	6.44	0.28	0.77	-0.1392	0.3074	-0.3139	
0.146644	-0.969168	0.178974	6.93	0.63	1.4	-0.1354	0.3183	-0.3318	
0.143838	-0.96258	0.188978	7.49	0.49	1.54	-0.137	0.32	-0.3303	
0.139812	-0.95709	0.185806	8.89	1.33	1.75	-0.1444	0.3191	-0.3197	
0.138592	-0.964166	0.18605	8.75	0.91	2.31	-0.1296	0.3193	-0.3393	
0.141398	-0.96197	0.192394	7.98	-0.14	3.01	-0.1412	0.3172	-0.3272	
0.14152	-0.962946	0.195566	9.24	0.56	3.5	-0.1417	0.3094	-0.3345	
0.138714	-0.969168	0.196298	10.92	1.05	4.27	-0.1298	0.305	-0.3333	
0.133834	-0.97417	0.202642	11.97	0.42	4.62	-0.1371	0.3042	-0.3302	
0.131028	-0.980026	0.202398	13.44	0.21	5.04	-0.1334	0.3117	-0.3318	
0.126758	-0.972462	0.204838	13.37	0.49	5.46	-0.1251	0.3157	-0.332	
0.12505	-0.96319	0.212158	12.25	-0.07	6.23	-0.1275	0.3112	-0.3349	
0.124562	-0.962214	0.213134	10.85	-0.98	7.42	-0.1377	0.3122	-0.3346	
0.124684	-0.967704	0.214354	10.36	-1.68	8.68	-0.1296	0.3051	-0.3451	
0.118462	-0.977098	0.219844	10.78	-2.1	9.66	-0.1356	0.304	-0.3302	
0.106262	-0.977098	0.228262	12.53	-1.19	10.64	-0.131	0.3052	-0.3451	
0.102236	-0.97234	0.220942	14.77	-0.56	11.69	-0.1371	0.3107	-0.3509	
0.10065	-0.966972	0.22021	15.33	-0.63	12.18	-0.1262	0.3	-0.3467	
0.096868	-0.968314	0.229238	15.47	-1.75	12.39	-0.1269	0.308	-0.3452	
0.092964	-0.964166	0.237534	16.52	-2.17	12.11	-0.119	0.3009	-0.3498	
0.088206	-0.953918	0.24827	17.64	-2.66	11.13	-0.1188	0.2993	-0.3498	
0.078934	-0.930128	0.259128	17.29	-2.03	10.64	-0.1211	0.2948	-0.3571	
0.072102	-0.921466	0.252052	16.66	-1.47	10.99	-0.1232	0.3014	-0.3556	
0.066246	-0.945866	0.249368	14.63	-2.1	11.13	-0.1108	0.2938	-0.3618	
0.064904	-0.964288	0.270962	12.25	-4.55	11.13	-0.1107	0.2922	-0.3603	
0.063928	-0.963434	0.282796	14.49	-3.29	11.06	-0.1209	0.2916	-0.3556	
0.055754	-0.95465	0.28975	17.08	-0.98	10.57	-0.1149	0.2911	-0.3602	
0.056242	-0.929884	0.295972	18.69	0.49	9.59	-0.1146	0.2895	-0.3691	
0.056486	-0.911584	0.299388	18.06	1.26	8.47	-0.1076	0.2903	-0.3648	
0.055266	-0.918782	0.310246	15.12	1.12	7.35	-0.1093	0.2937	-0.3663	
0.055266	-0.921954	0.3294	13.93	1.61	6.86	-0.1139	0.2831	-0.3735	
0.054656	-0.935496	0.32879	14.14	3.64	6.72	-0.0981	0.2831	-0.3709	
0.048556	-0.953918	0.347822	11.41	4.9	7.49	-0.09779999	0.2783	-0.3635	
0.049776	-0.944158	0.36051	10.5	6.51	8.12	-0.1151	0.2784	-0.3645	
0.041724	-0.92842	0.35624	15.4	12.53	6.93	-0.092	0.2793	-0.371	
0.027328	-0.925248	0.340258	16.8	15.4	6.3	-0.0951	0.2686	-0.3798	
0.02074	-0.924394	0.342942	14.28	15.19	6.86	-0.0931	0.262	-0.3783	
0.001464	-0.915	0.300852	1.75	11.48	5.81	-0.094	0.2716	-0.3798	
0.000244	-0.917684	0.358314	0.91	4.41	6.23	-0.0959	0.2766	-0.3783	
-0.001708	-0.904264	0.34831	9.03	1.82	6.72	-0.1036	0.2662	-0.3781	
-0.009516	-0.902678	0.368806	12.18	5.88	5.46	-0.1015	0.2739	-0.3752	
-0.010248	-0.884256	0.366366	16.52	9.59	4.69	-0.0895	0.2712	-0.3829	
-0.012932	-0.868518	0.375882	14.84	9.1	3.36	-0.0755	0.2619	-0.3891	
-0.013298	-0.84912	0.37515	16.59	7.07	2.24	-0.09209999	0.2699	-0.3902	
-0.011956	-0.813862	0.345992	18.06	8.4	1.12	-0.0756	0.2619	-0.3861	
-0.016592	-0.837042	0.379176	10.08	3.57	0.35	-0.0822	0.2721	-0.3905	
-0.005856	-0.861076	0.394914	7	-2.45	-1.61	-0.0783	0.2622	-0.3934	
-0.004392	-0.862662	0.387472	7.14	0.7	-4.2	-0.0827	0.2643	-0.3993	
-0.00976	-0.884622	0.38308	10.64	5.53	-4.9	-0.0858	0.2629	-0.3873	
-0.019154	-0.902312	0.380152	14.49	8.19	-5.25	-0.084	0.2629	-0.4007	
-0.032208	-0.897676	0.36966	14.63	7.98	-6.51	-0.0805	0.2403	-0.4021	
-0.028792	-0.904874	0.363194	13.79	5.88	-7.14	-0.0788	0.2512	-0.3919	
-0.023424	-0.91378	0.37637	15.19	2.94	-7.98	-0.0897	0.2651	-0.4109	
-0.009881999	-0.897432	0.395402	17.78	2.59	-8.82	-0.0731	0.2412	-0.4112	
0.00366	-0.890966	0.399916	19.04	2.73	-9.73	-0.0836	0.2454	-0.4124	
0.010126	-0.890478	0.4026	18.48	1.89	-10.29	-0.079	0.2418	-0.4095	
0.014884	-0.886696	0.408212	20.58	1.82	-11.41	-0.0898	0.2366	-0.4196	
0.024888	-0.874862	0.417728	22.26	2.52	-12.88	-0.08419999	0.2343	-0.4035	
0.019642	-0.868884	0.422242	24.08	2.45	-14.21	-0.0829	0.2358	-0.4035	
0.023424	-0.863028	0.4331	24.22	-0.7	-15.12	-0.0892	0.2285	-0.4136	
0.027084	-0.857782	0.443714	24.57	-2.24	-15.61	-0.083	0.2248	-0.4167	
0.0366	-0.849486	0.457988	24.92	-3.29	-15.82	-0.091	0.2176	-0.4194	
0.046604	-0.850706	0.475434	23.31	-4.97	-16.1	-0.0852	0.2187	-0.4225	
0.054656	-0.852048	0.485682	24.22	-3.43	-15.96	-0.0869	0.2204	-0.421	
0.057828	-0.843752	0.497272	26.67	-1.68	-15.4	-0.0969	0.2166	-0.4104	
0.061976	-0.809104	0.514352	26.67	-1.19	-14.49	-0.0997	0.2185	-0.4192	
0.072468	-0.787388	0.532164	23.73	-2.1	-14	-0.1006	0.2139	-0.4251	
0.085156	-0.777628	0.543388	21.56	-3.29	-13.86	-0.0973	0.1962	-0.4369	
0.09747799	-0.768722	0.54839	20.02	-4.2	-14.14	-0.09739999	0.1961	-0.4551	
0.105042	-0.768356	0.55815	17.92	-4.9	-14.35	-0.095	0.188	-0.4383	
0.106628	-0.767624	0.569008	17.36	-4.69	-14.21	-0.1053	0.189	-0.4337	
0.109556	-0.769088	0.574132	16.45	-4.2	-14.14	-0.0999	0.1932	-0.4338	
0.118584	-0.770552	0.577182	14.7	-3.64	-14	-0.1025	0.1903	-0.4352	
0.128832	-0.76982	0.582794	13.58	-3.36	-13.72	-0.0984	0.1772	-0.4126	
0.130174	-0.77043	0.583526	12.67	-2.52	-13.79	-0.1048	0.1842	-0.4366	
0.137494	-0.772992	0.586698	11.55	-2.66	-13.86	-0.11	0.1752	-0.429	
0.142984	-0.773968	0.588284	10.57	-1.89	-13.3	-0.1125	0.1722	-0.4304	
0.146278	-0.779702	0.590114	9.8	-1.26	-12.46	-0.1032	0.1666	-0.4109	
0.149572	-0.783362	0.590358	9.52	-1.4	-11.41	-0.115	0.1694	-0.4392	
0.154208	-0.776408	0.586332	9.24	-1.26	-10.36	-0.1247	0.1623	-0.4286	
0.162382	-0.765428	0.583526	8.54	-0.49	-9.1	-0.113	0.1628	-0.4348	
0.168726	-0.755424	0.579988	6.86	-1.82	-7.63	-0.1093	0.1561	-0.4437	
0.179584	-0.761768	0.576328	6.51	-3.08	-6.51	-0.1123	0.158	-0.4451	
0.191662	-0.771406	0.586088	4.83	-5.32	-5.46	-0.1154	0.1583	-0.4391	
0.20069	-0.778238	0.598044	4.06	-5.95	-3.85	-0.1177	0.1664	-0.4347	
0.213866	-0.779336	0.606096	3.36	-5.67	-2.1	-0.1258	0.1609	-0.4359	
0.223626	-0.78141	0.611098	2.87	-4.55	0.07	-0.1185	0.1602	-0.4376	
0.22631	-0.775188	0.615124	2.59	-3.01	2.59	-0.1196	0.1571	-0.4405	
0.22631	-0.771284	0.604632	2.17	-1.26	5.67	-0.1219	0.151	-0.4419	
0.224968	-0.77836	0.605608	0.42	-0.42	8.47	-0.1215	0.1605	-0.4345	
0.219966	-0.789706	0.609512	-0.77	0.98	11.34	-0.117	0.1617	-0.4435	
0.215574	-0.792146	0.60512	-0.07	3.64	14.56	-0.109	0.1639	-0.4275	
0.21655	-0.782752	0.602924	0.63	5.81	17.99	-0.1127	0.1596	-0.4348	
0.213744	-0.770308	0.600606	0.49	7.84	20.93	-0.1042	0.1636	-0.4453	
0.205326	-0.755912	0.59658	2.66	11.06	23.45	-0.1148	0.1678	-0.4407	
0.198372	-0.745664	0.586332	2.59	12.39	25.27	-0.1029	0.1667	-0.4498	
0.18849	-0.74908	0.58621	1.05	11.76	26.32	-0.09869999	0.1646	-0.4366	
0.167262	-0.764086	0.591456	-0.56	12.32	28.42	-0.09559999	0.1627	-0.4382	
0.146766	-0.760426	0.592676	0.14	14.07	29.26	-0.0891	0.17	-0.4384	
0.129808	-0.765062	0.586698	0.56	15.33	28.98	-0.0859	0.1681	-0.4444	
0.116144	-0.774822	0.588406	1.61	16.38	29.33	-0.08109999	0.1645	-0.4489	
0.097234	-0.772504	0.586942	3.85	18.13	30.31	-0.0813	0.1661	-0.4489	
0.07686	-0.765428	0.58743	4.06	18.55	30.94	-0.0742	0.1686	-0.4506	
0.05673	-0.77043	0.5978	3.78	18.83	31.57	-0.0763	0.1609	-0.4549	
0.042578	-0.767502	0.593896	3.99	19.81	32.69	-0.0695	0.1649	-0.4536	
0.020374	-0.776774	0.58621	2.8	20.3	32.69	-0.0593	0.1623	-0.4479	
0.00366	-0.777506	0.594872	4.55	22.33	33.18	-0.0635	0.1612	-0.4508	
-0.020374	-0.766526	0.589748	5.25	23.17	32.83	-0.0558	0.1731	-0.454	
-0.026596	-0.766648	0.596702	3.57	21.14	33.25	-0.0481	0.1676	-0.4542	
-0.028914	-0.7686	0.593774	3.36	22.54	33.81	-0.0277	0.1672	-0.4591	
-0.047458	-0.771772	0.6039	2.03	24.43	33.6	-0.0337	0.1694	-0.459	
-0.080276	-0.761402	0.60573	3.92	27.79	33.32	-0.0306	0.1658	-0.4546	
-0.121512	-0.752008	0.600728	0.28	26.18	31.71	-0.0212	0.1728	-0.4549	
-0.125172	-0.735782	0.606584	0	24.08	32.13	-0.0009999999	0.1724	-0.4524	
-0.130052	-0.74176	0.610488	-2.38	23.52	32.48	0.0015	0.1611	-0.4554	
-0.156892	-0.742492	0.599874	-2.73	23.73	32.76	0.006	0.159	-0.457	
-0.18605	-0.728462	0.578158	-2.73	24.22	32.76	0.0103	0.1602	-0.4586	
-0.206546	-0.731024	0.579988	-4.97	22.61	32.97	0.0215	0.1463	-0.4528	
-0.215696	-0.734196	0.579134	-5.95	23.24	32.97	0.0224	0.1685	-0.453	
-0.230458	-0.73566	0.56974	-5.74	20.51	32.2	0.0221	0.1717	-0.453	
-0.253516	-0.72895	0.55876	-5.04	19.25	31.29	0.0292	0.1583	-0.459	
-0.273036	-0.72163	0.552416	-4.48	17.36	30.59	0.0407	0.1588	-0.4578	
-0.283528	-0.724558	0.549366	-4.2	16.59	29.33	0.0499	0.1515	-0.4551	
-0.297192	-0.72224	0.54351	-3.22	15.68	28.56	0.0535	0.1607	-0.4597	
-0.330498	-0.726754	0.549244	-0.56	11.13	26.95	0.0455	0.1678	-0.4551	
-0.334646	-0.730048	0.550708	-0.98	11.62	26.11	0.0464	0.1565	-0.4491	
-0.322324	-0.734562	0.560102	-2.24	9.66	25.06	0.0587	0.149	-0.4538	
-0.333914	-0.740052	0.560712	-2.17	8.82	24.01	0.0645	0.1675	-0.4615	
-0.338672	-0.74481	0.562542	-3.85	7.77	23.31	0.0608	0.1599	-0.4613	
-0.33489	-0.744444	0.559126	-3.92	8.68	23.38	0.0662	0.1609	-0.4482	
-0.327326	-0.741028	0.56059	-4.34	8.82	23.94	0.0728	0.154	-0.4571	
-0.330742	-0.729682	0.542778	-2.66	10.92	24.08	0.0752	0.1584	-0.4528	
-0.344162	-0.716994	0.537776	-3.01	10.92	23.31	0.0832	0.1497	-0.4529	
-0.356606	-0.714676	0.529358	-2.31	10.99	21.91	0.0784	0.1566	-0.4588	
-0.37149	-0.72407	0.53375	-2.66	10.92	20.44	0.0847	0.1496	-0.4574	
-0.384666	-0.730902	0.527162	-0.49	12.25	19.25	0.0844	0.1512	-0.4485	
-0.387716	-0.726022	0.528992	1.54	12.04	18.55	0.0928	0.1551	-0.4547	
-0.39955	-0.713578	0.527528	2.45	11.06	18.34	0.0922	0.1599	-0.4473	
-0.40748	-0.708942	0.522892	2.73	9.73	17.57	0.09959999	0.1433	-0.4533	
-0.413336	-0.705282	0.53009	2.17	7.91	16.03	0.0915	0.1537	-0.4532	
-0.416386	-0.710406	0.536678	1.82	5.74	14.84	0.1062	0.149	-0.4491	
-0.430904	-0.713822	0.53985	2.31	5.11	14.07	0.1005	0.1496	-0.4549	
-0.44042	-0.709552	0.535946	3.36	5.32	12.95	0.1052	0.1459	-0.4549	
-0.43493	-0.698694	0.536068	3.57	3.85	11.2	0.1057	0.1411	-0.4564	
-0.43249	-0.688446	0.540948	3.78	3.64	9.8	0.1046	0.1365	-0.4534	
-0.44164	-0.684786	0.548512	2.8	3.08	7.42	0.1087	0.1409	-0.4368	
-0.443348	-0.690032	0.56059	0.91	2.66	5.11	0.1175	0.14	-0.4641	
-0.438102	-0.691252	0.560102	0.07	2.8	4.06	0.115	0.1355	-0.4625	
-0.443714	-0.693326	0.554612	-0.35	3.29	3.5	0.1109	0.1453	-0.4507	
-0.446032	-0.687226	0.54229	-0.56	3.36	2.45	0.113	0.1404	-0.4581	
-0.443348	-0.683688	0.538508	-1.05	2.8	1.26	0.1081	0.144	-0.4506	
-0.43493	-0.685518	0.538508	-1.89	1.61	0.56	0.1155	0.1433	-0.4537	
-0.4331	-0.686616	0.537532	-1.82	0.91	-0.14	0.1092	0.1471	-0.4477	
-0.435784	-0.688934	0.538386	-1.75	-0.49	-0.56	0.1201	0.1397	-0.4523	
-0.434076	-0.692716	0.545584	-2.31	-1.47	-0.98	0.1114	0.1422	-0.458	
-0.427732	-0.695644	0.537654	-1.82	-1.4	-1.19	0.11	0.1391	-0.4476	
-0.423462	-0.701256	0.538874	-1.61	-1.61	-1.75	0.1119	0.15	-0.4507	
-0.425658	-0.70333	0.540948	-0.77	-1.96	-2.45	0.1145	0.1387	-0.4537	
-0.425048	-0.702232	0.547414	-0.49	-2.03	-3.15	0.1124	0.1452	-0.4522	
-0.427244	-0.700768	0.545218	-0.63	-2.1	-3.5	0.1147	0.1371	-0.4566	
-0.427	-0.705282	0.54961	-0.77	-2.24	-3.78	0.1083	0.1408	-0.4432	
-0.418704	-0.7015	0.547536	-1.26	-2.38	-3.92	0.1064	0.1315	-0.449	
-0.413214	-0.700646	0.553026	-1.61	-1.82	-4.55	0.1123	0.1468	-0.4522	
-0.414556	-0.701866	0.545096	-1.89	-1.47	-5.39	0.1152	0.1482	-0.4582	
-0.417118	-0.703574	0.544486	-1.82	-1.05	-6.02	0.1098	0.1407	-0.4491	
-0.41541	-0.702476	0.540826	-1.89	-1.26	-6.65	0.1049	0.1475	-0.4476	
-0.413702	-0.707966	0.542168	-1.75	-1.05	-7.42	0.1073	0.152	-0.4477	
-0.41175	-0.70516	0.538386	-1.4	-1.68	-8.12	0.1093	0.1471	-0.4506	
-0.406626	-0.712724	0.541192	-1.89	-2.31	-8.4	0.1071	0.1552	-0.4506	
-0.40321	-0.713212	0.538508	-1.26	-1.96	-8.61	0.1091	0.1503	-0.4536	
-0.4026	-0.713578	0.538508	-1.4	-2.66	-8.75	0.1017	0.1526	-0.4549	
-0.39589	-0.718458	0.540948	-2.17	-3.08	-9.1	0.1042	0.1555	-0.4506	
-0.394304	-0.722484	0.540094	-1.75	-2.87	-9.45	0.0993	0.1465	-0.4518	
-0.39162	-0.722606	0.54412	-1.75	-3.29	-9.59	0.09559999	0.1564	-0.4563	
-0.387716	-0.716994	0.539362	-1.12	-3.36	-9.73	0.1065	0.1474	-0.455	
-0.371124	-0.713944	0.542656	-1.47	-3.36	-9.87	0.0954	0.158	-0.4548	
-0.374052	-0.7198	0.54534	-1.82	-4.2	-10.22	0.0828	0.1545	-0.4559	
-0.379054	-0.72285	0.547292	-1.82	-3.78	-10.57	0.08899999	0.1475	-0.4457	
-0.375516	-0.72773	0.546804	-2.73	-4.41	-10.57	0.0913	0.1569	-0.4561	
-0.374052	-0.735294	0.54168	-2.17	-4.13	-10.57	0.09519999	0.1437	-0.4502	
-0.376736	-0.741394	0.542778	-1.75	-4.34	-10.64	0.0909	0.1601	-0.4547	
-0.373198	-0.734074	0.538386	-1.12	-4.48	-11.48	0.0869	0.1557	-0.4501	
-0.368562	-0.72651	0.537166	-0.77	-4.83	-12.67	0.0887	0.1523	-0.4531	
-0.36478	-0.724924	0.538264	-1.05	-5.53	-13.79	0.0839	0.156	-0.4486	
-0.354532	-0.724192	0.545462	-1.68	-6.72	-14.77	0.0834	0.1624	-0.4486	
-0.34648	-0.718702	0.54412	-2.03	-7.63	-15.75	0.0716	0.1493	-0.4497	
-0.344528	-0.716628	0.5368	-2.1	-7.91	-16.45	0.0792	0.1612	-0.4514	
-0.337208	-0.731878	0.535458	-2.66	-8.96	-17.15	0.0757	0.152	-0.4498	
-0.330986	-0.737002	0.540826	-2.87	-10.29	-18.27	0.0758	0.1679	-0.4529	
-0.324642	-0.739686	0.546438	-3.01	-11.06	-19.67	0.0641	0.1691	-0.4526	
-0.310246	-0.742858	0.546438	-2.8	-10.71	-21	0.0645	0.1626	-0.4466	
-0.305	-0.749934	0.547414	-3.08	-11.13	-21.35	0.0661	0.1625	-0.4511	
-0.303048	-0.76433	0.548024	-3.5	-11.2	-21.84	0.0652	0.1562	-0.4496	
-0.294508	-0.763476	0.540948	-3.15	-11.27	-22.19	0.0592	0.1601	-0.4539	
-0.291702	-0.75762	0.539484	-3.29	-11.55	-22.47	0.0539	0.1559	-0.4596	
-0.282186	-0.760426	0.538386	-3.15	-12.39	-22.75	0.0494	0.1721	-0.4522	
-0.268522	-0.75335	0.536678	-2.59	-13.09	-23.38	0.0338	0.1705	-0.4577	
-0.268156	-0.746274	0.542046	-1.96	-13.23	-24.57	0.0348	0.1719	-0.446	
-0.265716	-0.743346	0.537654	-2.24	-14.35	-25.83	0.0347	0.1768	-0.4578	
-0.253638	-0.750422	0.533018	-3.29	-15.82	-27.23	0.0323	0.1674	-0.4444	
-0.245342	-0.76067	0.541924	-5.04	-17.92	-28.28	0.023	0.1763	-0.4501	
-0.233142	-0.765306	0.542778	-5.74	-19.32	-28.98	0.0221	0.1717	-0.456	
-0.21899	-0.757864	0.531066	-3.92	-18.76	-30.1	0.0264	0.1712	-0.4517	
-0.210694	-0.75945	0.53436	-4.76	-19.95	-31.64	0.0157	0.1787	-0.4529	
-0.202032	-0.761036	0.523136	-2.87	-21.35	-32.97	0.0102	0.1887	-0.444	
-0.195932	-0.764818	0.528382	-1.96	-22.12	-34.51	0.0089	0.173	-0.4483	
-0.183488	-0.767624	0.53497	-2.45	-23.73	-36.61	-0.0072	0.1745	-0.4434	
-0.143716	-0.764086	0.524966	-1.19	-21.98	-38.15	-0.0139	0.1847	-0.4433	
-0.12078	-0.769332	0.531432	-2.17	-26.81	-39.76	-0.0149	0.1801	-0.4418	
-0.109556	-0.766282	0.546072	-4.62	-29.82	-41.58	-0.0255	0.1875	-0.4475	
-0.092842	-0.776652	0.548634	-5.95	-29.61	-42.63	-0.0355	0.1853	-0.4457	
-0.077104	-0.786534	0.533872	-5.11	-28.7	-42.98	-0.0472	0.1865	-0.444	
-0.069418	-0.796294	0.528504	-4.83	-29.68	-42.7	-0.0557	0.1857	-0.4467	
-0.058316	-0.800076	0.518012	-4.55	-32.27	-42.63	-0.0526	0.1806	-0.4379	
-0.03599	-0.788974	0.521184	-3.78	-33.67	-42.21	-0.0601	0.1846	-0.4407	
-0.00366	-0.777994	0.52277	-5.67	-36.96	-42.35	-0.0787	0.1832	-0.4387	
0.024034	-0.779458	0.533506	-6.58	-38.78	-42.91	-0.0862	0.1872	-0.4415	
0.06039	-0.790072	0.529846	-10.08	-39.27	-43.47	-0.0979	0.1883	-0.4383	
0.081374	-0.817522	0.529114	-11.69	-39.97	-43.96	-0.1157	0.1932	-0.4364	
0.09747799	-0.83814	0.532774	-8.05	-38.15	-42.98	-0.1001	0.1932	-0.4279	
0.126636	-0.798612	0.520452	-3.08	-34.02	-41.44	-0.127	0.1896	-0.4331	
0.164822	-0.771284	0.508008	-7.49	-34.44	-40.81	-0.1261	0.1926	-0.4228	
0.182634	-0.78141	0.5002	-9.66	-36.33	-41.3	-0.1444	0.1865	-0.4179	
0.20252	-0.809958	0.509106	-11.06	-37.31	-41.09	-0.1492	0.1917	-0.4193	
0.217892	-0.800808	0.511058	-7.63	-35.35	-40.04	-0.1558	0.1844	-0.4161	
0.236314	-0.770674	0.509106	-7	-34.72	-39.83	-0.1643	0.1821	-0.4144	
0.256322	-0.747616	0.500078	-7.7	-33.95	-40.25	-0.177	0.1944	-0.4127	
0.292068	-0.750544	0.493734	-10.36	-35	-41.16	-0.1739	0.1767	-0.4126	
0.313296	-0.76128	0.492758	-11.9	-32.76	-42	-0.1805	0.1836	-0.4051	
0.33428	-0.763842	0.476654	-11.13	-30.8	-42.77	-0.188	0.1843	-0.3975	
0.350506	-0.763842	0.462502	-10.92	-30.94	-43.4	-0.2071	0.191	-0.406	
0.367708	-0.760426	0.476044	-10.85	-31.43	-43.33	-0.1956	0.174	-0.4017	
0.395768	-0.749324	0.44774	-8.12	-28.91	-43.12	-0.2122	0.1803	-0.3954	
0.404796	-0.76006	0.435418	-9.24	-30.24	-42.91	-0.2187	0.1747	-0.4026	
0.455548	-0.747982	0.44042	-8.89	-31.08	-42.07	-0.233	0.1872	-0.395	
0.458354	-0.742492	0.413458	-7.35	-30.1	-42.21	-0.2353	0.1778	-0.383	
0.46177	-0.756156	0.434442	-4.76	-28.98	-41.65	-0.2384	0.1781	-0.3755	
0.467382	-0.725412	0.39345	-1.47	-26.6	-41.79	-0.2531	0.162	-0.3662	
0.502762	-0.701378	0.380274	-1.68	-28.49	-42.7	-0.2581	0.1705	-0.3706	
0.519354	-0.716384	0.368196	-1.75	-29.47	-43.4	-0.2637	0.1552	-0.3777	
0.531066	-0.716384	0.360876	1.89	-31.08	-43.61	-0.2651	0.1505	-0.3643	
0.54046	-0.752252	0.386008	-0.21	-35.21	-43.4	-0.2807	0.1472	-0.3624	
0.571814	-0.753106	0.397842	1.96	-34.72	-40.81	-0.2823	0.1506	-0.3683	
0.576694	-0.732	0.374906	6.3	-31.85	-38.36	-0.281	0.1504	-0.3595	
0.589504	-0.687958	0.341356	9.1	-30.03	-36.82	-0.2863	0.143	-0.3534	
0.613782	-0.696254	0.312686	4.69	-33.46	-36.4	-0.3011	0.1334	-0.3589	
0.624274	-0.68564	0.321226	3.99	-37.17	-35.14	-0.2985	0.1314	-0.3412	
0.653676	-0.682224	0.324154	-3.36	-42.98	-34.79	-0.315	0.1252	-0.3511	
0.650626	-0.721386	0.354288	-4.48	-46.62	-34.51	-0.3193	0.1208	-0.3376	
0.65819	-0.698084	0.36356	-1.19	-44.73	-32.13	-0.3251	0.1197	-0.3316	
0.66185	-0.68259	0.35502	0.91	-41.86	-31.36	-0.3279	0.12	-0.3345	
0.692594	-0.659776	0.338062	7.56	-38.85	-29.89	-0.3341	0.1063	-0.3254	
0.697596	-0.64111	0.333304	10.57	-35.28	-29.54	-0.3467	0.1154	-0.3147	
0.70943	-0.630374	0.33733	8.75	-33.18	-27.16	-0.3362	0.0953	-0.3164	
0.713944	-0.614026	0.332694	8.54	-30.03	-26.04	-0.3478	0.1123	-0.3177	
0.712358	-0.618174	0.332572	5.18	-26.6	-25.27	-0.3545	0.0892	-0.3114	
0.72102	-0.59963	0.329278	2.31	-24.64	-24.29	-0.3579	0.0926	-0.304	
0.73383	-0.598166	0.299876	5.18	-21	-23.31	-0.3609	0.0929	-0.3024	
0.737856	-0.591456	0.279502	7.28	-20.23	-22.19	-0.3543	0.0876	-0.3129	
0.762378	-0.60634	0.285602	3.92	-25.41	-20.58	-0.3613	0.0818	-0.3038	
0.776164	-0.618296	0.309636	-1.54	-29.12	-19.32	-0.3738	0.091	-0.2976	
0.784704	-0.622444	0.320128	-7	-28	-17.29	-0.3698	0.0762	-0.2873	
0.783606	-0.62098	0.326472	-7.07	-23.17	-15.54	-0.3746	0.0815	-0.2887	
0.792756	-0.61305	0.306098	-4.06	-14.98	-13.79	-0.3739	0.0751	-0.2946	
0.796538	-0.60634	0.280478	-0.91	-10.57	-11.69	-0.3764	0.0706	-0.2915	
0.795318	-0.605608	0.263154	-1.4	-8.33	-10.08	-0.3733	0.0638	-0.2738	
0.794098	-0.608048	0.259006	-1.96	-8.75	-8.61	-0.3855	0.0697	-0.2706	
0.798856	-0.61732	0.259006	-4.69	-9.45	-7	-0.3917	0.0751	-0.272	
0.793366	-0.616344	0.256444	-3.22	-8.26	-4.97	-0.3821	0.0679	-0.284	
0.793488	-0.61	0.249246	-0.91	-7.28	-3.29	-0.3788	0.0628	-0.2811	
0.78873	-0.595726	0.246562	-1.96	-7.14	-2.1	-0.388	0.0827	-0.2751	
0.790194	-0.583404	0.245098	-4.9	-6.79	-1.4	-0.3871	0.0747	-0.2809	
0.780678	-0.582794	0.25193	-5.25	-5.46	-1.33	-0.3809	0.0693	-0.2811	
0.781288	-0.584746	0.250466	-1.05	-3.5	-0.7	-0.3825	0.0678	-0.2692	
0.782874	-0.577304	0.246562	0.14	-1.89	0.56	-0.3762	0.0783	-0.2694	
0.782874	-0.569252	0.246562	-0.07	-1.26	1.12	-0.387	0.08899999	-0.2796	
0.774578	-0.554368	0.24522	1.12	0.77	1.33	-0.3929	0.0721	-0.2734	
0.773114	-0.556442	0.23912	1.96	1.54	0.84	-0.3799	0.0724	-0.2722	
0.77958	-0.5612	0.241438	2.52	0.98	0.63	-0.3867	0.0699	-0.2809	
0.78019	-0.559858	0.248148	1.12	0.91	0.56	-0.3935	0.0801	-0.2779	
0.781288	-0.562176	0.253394	1.12	1.54	0.21	-0.3839	0.068	-0.2692	
0.784582	-0.583526	0.252052	-0.7	2.38	0.42	-0.3918	0.0751	-0.2705	
0.788608	-0.591334	0.24461	-0.28	3.64	1.19	-0.3785	0.0706	-0.2634	
0.779092	-0.572912	0.24095	3.08	5.04	2.24	-0.3806	0.0661	-0.2796	
0.778116	-0.584258	0.242536	2.45	4.55	2.73	-0.3825	0.0678	-0.2677	
0.781898	-0.593042	0.241926	3.5	5.04	3.29	-0.3825	0.087	-0.2782	
0.781166	-0.587796	0.245708	4.2	5.04	3.99	-0.383	0.0775	-0.2825	
0.78446	-0.58804	0.248636	2.66	4.83	4.41	-0.3809	0.0677	-0.2737	
0.785314	-0.585844	0.24888	2.66	5.39	5.32	-0.3861	0.0761	-0.2706	
0.780556	-0.581574	0.259128	2.31	5.46	6.09	-0.37	0.0619	-0.2601	
0.78263	-0.58011	0.264984	1.33	6.58	6.72	-0.3806	0.0661	-0.2796	
0.779824	-0.57401	0.262544	2.66	8.89	7.07	-0.376	0.07669999	-0.2738	
0.776164	-0.571936	0.265838	3.5	9.24	7.14	-0.3762	0.08	-0.2768	
0.776652	-0.587064	0.274012	1.54	8.33	7.56	-0.3724	0.0733	-0.2887	
0.779946	-0.598654	0.276452	1.05	9.31	8.61	-0.3788	0.0929	-0.2783	
0.778604	-0.597678	0.279136	2.1	11.76	9.59	-0.3801	0.0788	-0.2885	
0.770674	-0.59963	0.277794	3.85	13.44	10.57	-0.3748	0.0831	-0.2872	
0.770796	-0.611586	0.281332	3.15	13.16	12.18	-0.3788	0.0787	-0.2827	
0.76494	-0.62281	0.285968	1.96	13.02	14.21	-0.3697	0.073	-0.2814	
0.75579	-0.61488	0.296216	2.38	14.56	16.52	-0.3566	0.0733	-0.2847	
0.750788	-0.622688	0.30134	1.68	15.19	17.92	-0.3631	0.08679999	-0.3053	
0.742492	-0.629886	0.305854	2.59	16.66	19.74	-0.3665	0.0919	-0.3037	
0.730048	-0.621224	0.305854	4.27	18.48	21.49	-0.3563	0.0892	-0.2996	
0.718214	-0.61488	0.306708	5.39	20.3	22.33	-0.3601	0.1008	-0.3025	
0.711992	-0.622688	0.309392	4.34	20.02	23.17	-0.3563	0.0925	-0.3114	
0.7076	-0.6283	0.317444	5.18	19.39	24.29	-0.3519	0.09209999	-0.3115	
0.697962	-0.63074	0.329522	2.8	18.55	25.97	-0.355	0.0972	-0.3203	
0.68259	-0.626958	0.33794	0.56	19.88	27.51	-0.3413	0.1021	-0.3118	
0.68076	-0.643184	0.343308	-1.96	20.16	29.26	-0.3439	0.0992	-0.3118	
0.67222	-0.645136	0.347212	-2.1	21.49	31.15	-0.3333	0.0983	-0.3268	
0.657824	-0.66002	0.351726	-2.87	22.68	32.55	-0.3352	0.1032	-0.3283	
0.648674	-0.670024	0.35014	-2.24	23.1	34.02	-0.3227	0.11	-0.3345	
0.631228	-0.68808	0.353068	-2.52	24.15	35.14	-0.3207	0.1193	-0.3332	
0.62952	-0.699548	0.357094	-2.59	24.71	36.26	-0.3167	0.122	-0.3289	
0.630862	-0.718702	0.378566	-4.83	24.01	37.31	-0.3159	0.1299	-0.3334	
0.617808	-0.689056	0.411628	-8.68	26.18	38.43	-0.3155	0.1284	-0.3422	
0.604998	-0.696498	0.418094	-10.29	30.03	38.5	-0.3078	0.1387	-0.3425	
0.594018	-0.712968	0.421998	-10.01	34.44	39.34	-0.3083	0.1451	-0.344	
0.573034	-0.7259	0.41724	-5.67	41.86	40.74	-0.3061	0.1528	-0.3441	
0.544974	-0.72895	0.41175	-1.4	48.72	41.93	-0.2842	0.1539	-0.3609	
0.5246	-0.72529	0.412116	-1.96	50.61	42.84	-0.2875	0.1574	-0.3564	
0.513742	-0.732122	0.420046	-5.81	51.8	43.89	-0.2778	0.1628	-0.3611	
0.50142	-0.750788	0.430294	-9.73	52.78	45.64	-0.2769	0.1707	-0.3686	
0.487756	-0.763598	0.461526	-12.11	54.53	49.07	-0.2673	0.1619	-0.3747	
0.47519	-0.747738	0.393328	-6.51	58.45	47.6	-0.253	0.1762	-0.3633	
0.420168	-0.731512	0.402112	-9.87	58.8	47.53	-0.24	0.1831	-0.3874	
0.38857	-0.746396	0.406382	-14.21	55.58	45.99	-0.2288	0.1867	-0.3877	
0.358436	-0.758108	0.401868	-13.86	54.6	46.27	-0.2181	0.1935	-0.3791	
0.336232	-0.771772	0.398452	-13.51	51.1	47.04	-0.206	0.1892	-0.3853	
0.29951	-0.782264	0.417606	-8.75	50.61	47.6	-0.1993	0.1965	-0.3914	
0.26779	-0.808616	0.402234	-7.28	52.22	46.62	-0.1913	0.2053	-0.3991	
0.23485	-0.808494	0.39772	1.05	51.03	44.03	-0.1737	0.2162	-0.3937	
0.217404	-0.812642	0.398208	2.31	46.76	42.07	-0.1596	0.2069	-0.4058	
0.203008	-0.817644	0.394304	-1.61	38.99	40.88	-0.1521	0.203	-0.4001	
0.18849	-0.833992	0.407968	-4.69	33.32	40.11	-0.1468	0.2088	-0.4047	
0.173362	-0.839238	0.41968	-2.87	29.47	39.9	-0.1425	0.2116	-0.4122	
0.161894	-0.836554	0.442738	1.26	28.07	38.71	-0.1343	0.2155	-0.4109	
0.143716	-0.843508	0.454694	2.94	30.03	37.24	-0.1198	0.2157	-0.4128	
0.12688	-0.855708	0.460306	4.55	30.73	37.17	-0.1057	0.2174	-0.4058	
0.1281	-0.854732	0.453474	3.29	32.48	39.13	-0.1078	0.1987	-0.4263	
0.070394	-0.87779	0.467016	5.11	32.9	41.09	-0.1036	0.2142	-0.4206	
0.06466	-0.864858	0.462868	8.33	33.04	43.75	-0.1033	0.2109	-0.4206	
0.050752	-0.869128	0.465186	6.23	32.13	45.08	-0.086	0.2092	-0.4165	
0.03782	-0.858758	0.473848	6.65	32.69	47.11	-0.0773	0.2116	-0.4271	
0.02379	-0.836432	0.467382	7.28	32.9	47.25	-0.0683	0.2075	-0.4244	
0.018422	-0.826794	0.473238	7.49	33.18	47.46	-0.0492	0.2056	-0.4322	
-0.00122	-0.830088	0.462868	7.7	32.41	46.62	-0.0416	0.2176	-0.434	
-0.038308	-0.83631	0.483242	6.65	30.45	45.71	-0.0415	0.216	-0.4325	
-0.067832	-0.845948	0.479338	7.7	31.71	44.8	-0.0303	0.2054	-0.4357	
-0.093818	-0.835456	0.46726	12.25	31.36	44.24	-0.0257	0.2034	-0.4417	
-0.100162	-0.837774	0.481412	11.2	27.51	44.87	-0.0175	0.2056	-0.4316	
-0.11163	-0.834114	0.503738	9.66	26.11	45.64	-0.0052	0.1981	-0.4333	
-0.135176	-0.825818	0.516426	11.62	27.23	46.48	0.0039	0.194	-0.4409	
-0.164944	-0.820694	0.510814	12.81	28.63	46.62	0.0064	0.1969	-0.4365	
-0.19581	-0.811056	0.49776	12.81	28.42	46.48	0.0177	0.2022	-0.4472	
-0.218136	-0.79483	0.490806	13.72	28.07	47.32	0.0225	0.197	-0.4473	
-0.22448	-0.776896	0.499468	11.2	26.46	47.04	0.03	0.1931	-0.446	
-0.233142	-0.7625	0.488122	6.51	24.22	45.43	0.0311	0.1928	-0.4312	
-0.252418	-0.756156	0.478728	0.7	20.93	43.96	0.0605	0.1757	-0.4466	
-0.283894	-0.757376	0.484462	-3.08	17.08	42.28	0.0555	0.1826	-0.4451	
-0.307562	-0.764452	0.502274	-0.42	16.31	41.16	0.064	0.1833	-0.4409	
-0.324398	-0.763476	0.49776	4.97	16.45	40.39	0.0753	0.1853	-0.4412	
-0.334768	-0.774456	0.481168	7.42	17.57	40.6	0.079	0.1787	-0.4486	
-0.360876	-0.765306	0.473726	8.4	16.52	42.07	0.08109999	0.1705	-0.4471	
-0.36112	-0.751764	0.48434	10.71	14.07	42	0.088	0.173	-0.4414	
-0.365024	-0.733342	0.488244	14.28	19.46	41.02	0.09559999	0.169	-0.4416	
-0.355142	-0.704428	0.480436	13.02	19.95	40.88	0.0949	0.1612	-0.4459	
-0.405772	-0.729804	0.5063	3.99	18.83	37.24	0.1079	0.1615	-0.4463	
-0.455304	-0.709064	0.487756	16.24	19.25	37.59	0.1173	0.1526	-0.4435	
-0.45872	-0.699426	0.500322	13.51	12.18	37.17	0.1193	0.1493	-0.4538	
-0.469212	-0.684176	0.497028	16.17	15.47	35.63	0.1238	0.1456	-0.4495	
-0.48007	-0.671	0.51728	15.05	11.13	34.16	0.1267	0.1437	-0.4407	
-0.508618	-0.67161	0.508862	14	14	32.2	0.1281	0.1452	-0.4467	
-0.518378	-0.661972	0.503494	15.12	13.16	31.36	0.1364	0.13	-0.4349	
-0.517524	-0.642086	0.508618	15.05	10.57	30.1	0.1363	0.1332	-0.4438	
-0.52216	-0.634888	0.506544	13.72	9.31	27.58	0.155	0.1203	-0.4531	
-0.533384	-0.637816	0.511668	12.88	7.91	25.48	0.152	0.119	-0.4427	
-0.54961	-0.637084	0.522038	12.46	5.11	21.98	0.1512	0.1127	-0.4426	
-0.549976	-0.631838	0.51606	11.9	5.32	19.46	0.157	0.1154	-0.4546	
-0.552904	-0.612806	0.528992	11.34	5.25	17.64	0.1524	0.1158	-0.4456	
-0.554612	-0.601948	0.533384	11.06	4.62	16.1	0.1603	0.1103	-0.4531	
-0.564616	-0.595604	0.531432	9.31	3.85	14.91	0.1674	0.1112	-0.4533	
-0.561566	-0.59597	0.537898	8.19	2.59	13.51	0.162	0.1053	-0.4472	
-0.558272	-0.593164	0.540948	6.58	1.47	12.39	0.1722	0.1075	-0.4593	
-0.56608	-0.596946	0.544486	6.23	0.77	11.34	0.1654	0.1002	-0.4473	
-0.569984	-0.598532	0.542168	5.32	0.63	9.8	0.1696	0.103	-0.4519	
-0.557906	-0.595238	0.5551	4.9	1.12	8.19	0.1651	0.105	-0.4532	
-0.560956	-0.589992	0.556076	4.34	0.91	6.86	0.1643	0.0955	-0.4428	
-0.575108	-0.587308	0.550464	3.85	-0.14	5.74	0.1642	0.0988	-0.4532	
-0.575108	-0.587552	0.54839	2.66	-0.14	4.48	0.1752	0.104	-0.4505	
-0.560834	-0.585112	0.555466	3.08	-0.49	3.29	0.1648	0.0924	-0.4517	
-0.559614	-0.589382	0.558516	2.45	-2.17	2.38	0.1686	0.0983	-0.4548	
-0.57035	-0.593652	0.559004	1.68	-2.59	1.4	0.1747	0.0945	-0.4519	
-0.556198	-0.595604	0.556076	1.4	-2.66	0.14	0.1755	0.1008	-0.4505	
-0.547536	-0.5978	0.561688	1.26	-2.73	-0.28	0.1661	0.0955	-0.4591	
-0.549122	-0.595116	0.565836	0.77	-2.31	-0.77	0.1571	0.0979	-0.453	
-0.544486	-0.5917	0.562054	0.63	-2.52	-1.61	0.1682	0.0873	-0.4576	
-0.54046	-0.60085	0.562298	0.63	-2.52	-2.8	0.1706	0.09339999	-0.4607	
-0.542412	-0.608414	0.564128	0.35	-2.87	-3.43	0.1692	0.0919	-0.4562	
-0.544974	-0.607316	0.56303	0.28	-2.1	-3.57	0.1572	0.0947	-0.4471	
-0.545584	-0.609756	0.568276	-0.21	-2.17	-3.71	0.1586	0.0961	-0.4515	
-0.537166	-0.604876	0.566812	-0.63	-2.87	-3.78	0.175	0.0897	-0.449	
-0.531798	-0.604876	0.563518	-0.98	-3.08	-4.27	0.1636	0.0909	-0.4575	
-0.533018	-0.610488	0.565104	-1.47	-3.57	-4.83	0.1695	0.1062	-0.4593	
-0.527284	-0.616588	0.56608	-1.12	-2.94	-5.04	0.1625	0.0879	-0.4604	
-0.529236	-0.616344	0.565836	-1.12	-2.59	-5.32	0.17	0.0982	-0.4533	
-0.535458	-0.613782	0.56486	-1.68	-2.59	-5.95	0.1714	0.0997	-0.4563	
-0.525088	-0.610854	0.554124	-1.82	-2.66	-6.37	0.1642	0.0862	-0.4634	
-0.51545	-0.61671	0.558516	-2.52	-3.29	-7.21	0.1573	0.0947	-0.4756	
-0.521184	-0.617808	0.559004	-1.82	-2.38	-7.56	0.1574	0.0963	-0.4589	
-0.524844	-0.619272	0.558394	-1.96	-3.01	-8.19	0.1571	0.0995	-0.4589	
-0.530944	-0.620004	0.556564	-1.26	-2.8	-9.03	0.1509	0.1033	-0.4573	
-0.53009	-0.620736	0.557296	-1.89	-3.64	-9.94	0.1577	0.1057	-0.4501	
-0.528382	-0.626958	0.567544	-2.24	-4.13	-10.99	0.1526	0.1032	-0.4647	
-0.52582	-0.627202	0.558882	-2.59	-4.13	-12.32	0.1583	0.101	-0.456	
-0.527528	-0.626958	0.556442	-2.73	-4.62	-13.72	0.152	0.1063	-0.4544	
-0.527284	-0.626104	0.548512	-3.01	-5.88	-15.19	0.1522	0.1048	-0.4559	
-0.5307	-0.623786	0.54473	-3.43	-6.86	-17.43	0.1527	0.1142	-0.453	
-0.527162	-0.62952	0.550952	-3.85	-8.96	-19.6	0.1462	0.1069	-0.4557	
-0.518622	-0.629154	0.54168	-2.8	-9.94	-21.63	0.1514	0.116	-0.4663	
-0.50325	-0.621956	0.540094	-2.59	-11.41	-24.22	0.145	0.1071	-0.466	
-0.505202	-0.625616	0.540338	-2.17	-13.72	-27.09	0.1343	0.1113	-0.4569	
-0.486292	-0.63684	0.548268	-3.15	-15.75	-29.12	0.1343	0.1113	-0.4569	
-0.458598	-0.629642	0.55998	-3.43	-17.22	-30.24	0.1295	0.1149	-0.4509	
-0.454816	-0.638548	0.570716	-3.43	-17.29	-33.04	0.118	0.1177	-0.4595	
-0.443714	-0.65941	0.557174	-4.9	-18.48	-34.58	0.1135	0.1198	-0.4609	
-0.420656	-0.666242	0.568642	-5.6	-19.74	-35.42	0.1152	0.1307	-0.4536	
-0.41968	-0.66978	0.574864	-5.39	-19.18	-36.47	0.1005	0.1321	-0.4473	
-0.406138	-0.677222	0.560956	-5.67	-18.9	-37.8	0.1007	0.1321	-0.4547	
-0.384422	-0.673684	0.579988	-4.27	-19.39	-38.78	0.0906	0.1331	-0.4589	
-0.377468	-0.681736	0.578402	-5.39	-18.62	-39.97	0.0929	0.1376	-0.4531	
-0.35685	-0.694302	0.577304	-6.37	-17.57	-41.09	0.083	0.1371	-0.4588	
-0.338916	-0.696254	0.574864	-5.6	-16.87	-41.16	0.0807	0.1485	-0.4632	
-0.336476	-0.696376	0.57279	-5.88	-16.94	-41.3	0.0757	0.1378	-0.4586	
-0.319884	-0.704306	0.567544	-8.26	-18.62	-41.86	0.0673	0.1355	-0.4598	
-0.304268	-0.709796	0.573278	-9.45	-21.07	-42	0.0517	0.1497	-0.4625	
-0.284016	-0.723704	0.57462	-11.48	-21.84	-43.05	0.0504	0.1609	-0.4522	
-0.268766	-0.716384	0.567178	-9.24	-18.48	-44.31	0.0454	0.1535	-0.455	
-0.254126	-0.718824	0.563152	-8.82	-18.2	-46.13	0.0348	0.1577	-0.4518	
-0.241682	-0.737978	0.547414	-8.47	-18.69	-47.81	0.0311	0.1692	-0.4606	
-0.21411	-0.750056	0.54839	-7.49	-20.23	-48.86	0.0265	0.1696	-0.4502	
-0.196176	-0.747494	0.547414	-9.38	-21.98	-49.21	0.0187	0.1609	-0.4529	
-0.185074	-0.757986	0.563762	-9.59	-22.33	-48.86	0.008599999	0.1746	-0.4453	
-0.157624	-0.767258	0.524844	-9.52	-23.24	-49.14	0.0001	0.1755	-0.454	
-0.144082	-0.78019	0.548634	-12.88	-28.91	-49.49	0.0008	0.1691	-0.4569	
-0.10126	-0.770674	0.540704	-12.67	-30.8	-49.63	-0.0114	0.1783	-0.4611	
-0.082716	-0.777994	0.563518	-17.43	-22.47	-47.74	-0.0229	0.1746	-0.4504	
-0.051484	-0.784948	0.516914	-15.75	-26.04	-48.37	-0.0197	0.1727	-0.4534	
-0.028182	-0.795196	0.544242	-16.8	-31.43	-48.51	-0.0281	0.183	-0.443	
-0.009393999	-0.794586	0.529236	-16.03	-29.26	-48.58	-0.0517	0.1885	-0.4439	
0.01281	-0.792756	0.526064	-15.54	-29.47	-46.83	-0.0524	0.1823	-0.4497	
0.047458	-0.797514	0.518744	-16.03	-29.96	-45.92	-0.0571	0.1843	-0.4408	
0.072346	-0.795928	0.515938	-14.63	-31.71	-43.75	-0.0694	0.1918	-0.439	
0.103456	-0.787754	0.513864	-14.28	-30.1	-41.79	-0.0764	0.1893	-0.4373	
0.134078	-0.798124	0.508008	-14.77	-30.31	-41.72	-0.0838	0.19	-0.4327	
0.14823	-0.82411	0.503494	-11.83	-28.07	-41.16	-0.0988	0.193	-0.4205	
0.14762	-0.812642	0.495686	-8.68	-26.25	-39.2	-0.1017	0.195	-0.4279	
0.179096	-0.78324	0.479582	-9.03	-25.69	-38.01	-0.1064	0.1844	-0.4336	
0.198616	-0.777384	0.466162	-10.01	-26.95	-38.92	-0.1161	0.1964	-0.4334	
0.212402	-0.784582	0.461282	-10.85	-27.58	-40.25	-0.1295	0.1993	-0.4272	
0.219356	-0.810446	0.462014	-11.69	-29.05	-41.3	-0.1224	0.1986	-0.42	
0.21838	-0.83997	0.456768	-11.76	-29.26	-40.46	-0.1451	0.1928	-0.4149	
0.231922	-0.851072	0.445178	-6.44	-30.1	-38.22	-0.1456	0.1993	-0.4179	
0.23851	-0.835334	0.45506	-3.57	-32.9	-35	-0.1545	0.1842	-0.4117	
0.257786	-0.788486	0.445422	0.77	-33.74	-32.13	-0.1597	0.191	-0.4013	
0.286944	-0.763232	0.434808	-2.1	-35.35	-31.99	-0.1678	0.1887	-0.4129	
0.311588	-0.74725	0.432978	-4.41	-39.69	-32.62	-0.173	0.1972	-0.4098	
0.335256	-0.758474	0.43188	-8.33	-43.33	-34.93	-0.1886	0.1923	-0.4005	
0.30622	-0.825452	0.505324	-12.25	-45.64	-33.04	-0.1842	0.1919	-0.4051	
0.372222	-0.76433	0.403088	10.71	-28.35	-29.12	-0.1981	0.1853	-0.3988	
0.402722	-0.77165	0.4331	-2.24	-39.9	-32.27	-0.2046	0.1907	-0.3913	
0.425048	-0.783728	0.434808	-6.93	-43.82	-33.25	-0.2197	0.1827	-0.3923	
0.423584	-0.807396	0.440298	-8.47	-39.55	-33.04	-0.2111	0.1834	-0.391	
0.440908	-0.776042	0.417728	2.38	-35.35	-31.85	-0.234	0.176	-0.3742	
0.442982	-0.768966	0.40809	1.4	-34.86	-32.83	-0.2295	0.1756	-0.3787	
0.451888	-0.751886	0.406504	-0.28	-37.1	-33.53	-0.238	0.1765	-0.3859	
0.482144	-0.7564	0.411628	-1.89	-36.89	-33.74	-0.2477	0.1853	-0.3768	
0.508008	-0.739076	0.390766	-0.91	-35.49	-34.16	-0.2499	0.1776	-0.3767	
0.50752	-0.75518	0.393572	0.28	-34.79	-34.93	-0.2629	0.1614	-0.3763	
0.528138	-0.752862	0.401502	0.91	-34.37	-34.37	-0.2703	0.178	-0.3688	
0.538752	-0.726266	0.368928	4.2	-29.68	-33.39	-0.2699	0.1732	-0.3688	
0.551928	-0.708576	0.341722	-1.26	-30.8	-34.79	-0.2685	0.1714	-0.3585	
0.567422	-0.714676	0.350872	-11.9	-35.91	-34.37	-0.2863	0.1589	-0.3535	
0.57584	-0.72651	0.374418	-8.61	-35.28	-34.3	-0.2963	0.155	-0.3414	
0.592554	-0.7198	0.355264	-3.08	-30.66	-33.18	-0.2977	0.1568	-0.3488	
0.590358	-0.720166	0.32513	-4.41	-28.35	-33.11	-0.2977	0.1552	-0.3458	
0.601216	-0.729804	0.345748	-3.78	-30.52	-30.31	-0.3005	0.1538	-0.3413	
0.62586	-0.7259	0.331718	0.98	-30.8	-28.21	-0.3155	0.141	-0.3305	
0.628056	-0.717848	0.317688	3.78	-24.29	-28.21	-0.3235	0.1354	-0.3347	
0.63196	-0.696498	0.2928	8.26	-20.79	-28.63	-0.3239	0.137	-0.3243	
0.6405	-0.68259	0.290238	7	-23.66	-28.84	-0.3288	0.128	-0.3271	
0.650748	-0.675392	0.282308	2.38	-28.14	-29.19	-0.3386	0.1258	-0.3328	
0.657092	-0.67954	0.28121	-3.64	-31.5	-29.19	-0.3381	0.1304	-0.3106	
0.678442	-0.665876	0.283406	-6.09	-34.44	-28.21	-0.3376	0.1113	-0.3209	
0.701866	-0.65941	0.302316	-9.59	-35.91	-27.44	-0.3504	0.1221	-0.3058	
0.703818	-0.661362	0.295728	-6.02	-32.9	-26.6	-0.3443	0.1166	-0.3015	
0.712846	-0.648674	0.26962	-1.4	-29.26	-25.55	-0.3485	0.1187	-0.3118	
0.712114	-0.649894	0.24949	2.24	-26.46	-25.06	-0.3505	0.1062	-0.3042	
0.718092	-0.651236	0.236436	3.22	-28.07	-23.66	-0.3607	0.1072	-0.304	
0.73017	-0.63501	0.237778	4.69	-27.16	-22.47	-0.3644	0.1155	-0.2995	
0.73993	-0.633424	0.227896	2.31	-28.42	-20.86	-0.3587	0.09739999	-0.2892	
0.772626	-0.625372	0.258152	1.75	-28.42	-19.88	-0.37	0.1096	-0.286	
0.74603	-0.616588	0.251686	3.15	-24.99	-20.44	-0.3853	0.1031	-0.2827	
0.775554	-0.579622	0.229482	7.35	-23.1	-19.11	-0.3719	0.097	-0.28	
0.775798	-0.570594	0.216672	8.89	-19.88	-19.53	-0.3725	0.1018	-0.2726	
0.786412	-0.581208	0.21716	8.96	-19.6	-20.02	-0.3758	0.0894	-0.268	
0.781898	-0.58926	0.22204	2.73	-20.72	-20.02	-0.3857	0.0888	-0.2722	
0.793488	-0.591944	0.235826	-1.05	-21.98	-19.39	-0.3806	0.0787	-0.2678	
0.803858	-0.589992	0.232898	0.14	-20.09	-17.78	-0.3863	0.0761	-0.2618	
0.820816	-0.567056	0.236802	-2.03	-18.69	-17.08	-0.3939	0.08	-0.2586	
0.8052	-0.580476	0.233508	-1.75	-16.66	-15.68	-0.391	0.0797	-0.2587	
0.82411	-0.577304	0.228262	3.64	-12.11	-14.07	-0.3895	0.078	-0.2573	
0.812642	-0.577914	0.218136	1.96	-11.2	-12.81	-0.3975	0.0725	-0.2615	
0.802516	-0.572668	0.206546	1.12	-8.4	-11.69	-0.3954	0.0802	-0.2571	
0.81313	-0.558516	0.18849	1.89	-7.28	-10.08	-0.3962	0.07229999	-0.2556	
0.817034	-0.564372	0.193736	-2.38	-8.96	-9.17	-0.3936	0.0609	-0.2615	
0.822768	-0.562786	0.211792	-6.16	-11.41	-8.54	-0.3925	0.064	-0.2571	
0.83631	-0.573156	0.212768	-6.23	-9.94	-8.19	-0.4041	0.0794	-0.2539	
0.844484	-0.581452	0.19154	2.8	-3.85	-7.07	-0.3926	0.0607	-0.2423	
0.839482	-0.57462	0.191418	5.25	-1.4	-6.44	-0.409	0.0671	-0.2449	
0.837896	-0.562298	0.19093	4.13	-0.91	-5.39	-0.4034	0.0698	-0.248	
0.83692	-0.562908	0.199348	-0.07	-1.82	-3.64	-0.4041	0.0619	-0.2479	
0.834358	-0.555832	0.208376	-2.94	-0.77	-2.8	-0.4026	0.0585	-0.2391	
0.836676	-0.557296	0.206302	-1.05	2.66	-2.24	-0.4008	0.0568	-0.245	
0.83021	-0.549366	0.19093	4.62	6.72	-1.47	-0.4015	0.0648	-0.2465	
0.81923	-0.537044	0.181536	5.6	7.84	-0.84	-0.4016	0.0489	-0.242	
0.813496	-0.524722	0.1769	4.9	7.98	-0.14	-0.4023	0.0585	-0.2479	
0.81557	-0.523014	0.176168	5.46	8.89	0.14	-0.4022	0.0553	-0.2435	
0.810568	-0.522404	0.174948	3.99	7.49	0.14	-0.3933	0.0545	-0.2496	
0.82167	-0.53375	0.176412	1.4	4.97	0.07	-0.4	0.0504	-0.2553	
0.827648	-0.53741	0.18422	0.42	2.45	0.35	-0.4025	0.0602	-0.2494	
0.835456	-0.533018	0.19764	0.63	2.73	0.56	-0.3935	0.0561	-0.2452	
0.837652	-0.527894	0.214354	0.35	4.13	0.14	-0.3908	0.0606	-0.2542	
0.829112	-0.531188	0.218502	3.36	8.26	-0.14	-0.4011	0.049	-0.2642	
0.823256	-0.5307	0.208132	5.67	11.27	0.42	-0.3959	0.0532	-0.2555	
0.821304	-0.535458	0.20191	8.4	12.46	1.12	-0.3977	0.0598	-0.2658	
0.817888	-0.552172	0.200446	8.05	11.55	2.03	-0.3923	0.0465	-0.2599	
0.819474	-0.554002	0.20191	5.81	9.87	3.64	-0.3934	0.0451	-0.2702	
0.828258	-0.55144	0.21716	3.22	8.96	5.25	-0.3897	0.0494	-0.2585	
0.831918	-0.542046	0.231312	2.66	9.24	6.44	-0.3918	0.0576	-0.263	
0.833016	-0.544608	0.239974	2.73	10.08	7.35	-0.3882	0.0526	-0.2719	
0.830942	-0.55266	0.244366	4.34	11.34	8.4	-0.3932	0.0594	-0.2703	
0.83265	-0.562176	0.247904	5.11	13.16	9.66	-0.3849	0.0458	-0.2675	
0.825574	-0.556686	0.247782	5.88	15.4	10.92	-0.3885	0.0558	-0.2719	
0.822524	-0.547292	0.247782	6.93	18.41	11.9	-0.3818	0.0598	-0.2677	
0.8174	-0.557174	0.24705	8.26	19.18	13.16	-0.3844	0.0585	-0.272	
0.8113	-0.570106	0.254126	7.91	17.85	14.49	-0.3753	0.0561	-0.2841	
0.799344	-0.577548	0.26474	7.07	16.59	16.1	-0.3827	0.0552	-0.2735	
0.796416	-0.5734	0.265838	6.16	17.64	18.48	-0.3877	0.0636	-0.2779	
0.794098	-0.576694	0.271816	6.44	19.67	21.56	-0.3772	0.061	-0.2811	
0.786778	-0.5856	0.278526	5.74	19.39	23.59	-0.3703	0.0668	-0.2902	
0.769332	-0.589016	0.28243	5.53	20.72	25.55	-0.3721	0.07009999	-0.2887	
0.759328	-0.596458	0.290848	6.02	22.26	27.86	-0.3605	0.0722	-0.2979	
0.762378	-0.598166	0.290726	5.88	23.17	30.38	-0.3638	0.0773	-0.3022	
0.75762	-0.603656	0.297558	6.51	24.36	31.57	-0.3548	0.07319999	-0.2995	
0.746518	-0.594384	0.302316	7.42	24.71	32.48	-0.3573	0.0895	-0.2917	
0.732488	-0.600606	0.309148	6.23	24.99	32.76	-0.3519	0.0904	-0.3056	
0.723582	-0.623176	0.32147	3.5	23.24	34.02	-0.352	0.0953	-0.3204	
0.703696	-0.63867	0.335134	4.2	24.43	35.77	-0.3492	0.0966	-0.322	
0.690642	-0.62525	0.346602	2.24	26.11	37.87	-0.3332	0.09339999	-0.3135	
0.69479	-0.63074	0.348066	0.91	27.72	39.9	-0.3331	0.09339999	-0.3209	
0.677588	-0.640622	0.346846	1.05	29.19	40.95	-0.338	0.1052	-0.3371	
0.65575	-0.654286	0.354654	0.7	29.4	42	-0.3344	0.1095	-0.3254	
0.645014	-0.661972	0.368928	0.14	30.66	43.61	-0.3199	0.1113	-0.3346	
0.621834	-0.673196	0.37332	-0.28	35.35	45.15	-0.3192	0.1208	-0.3406	
0.596214	-0.686006	0.373076	-1.12	36.05	46.48	-0.3128	0.1154	-0.3452	
0.584502	-0.689422	0.382226	-3.01	34.51	47.32	-0.3068	0.1275	-0.3424	
0.572302	-0.693448	0.412238	-9.31	31.43	47.88	-0.3023	0.1271	-0.3485	
0.566812	-0.694668	0.437126	-8.05	34.58	48.72	-0.2938	0.1469	-0.3547	
0.546316	-0.715652	0.43005	-6.37	39.48	48.79	-0.2849	0.1461	-0.3609	
0.523868	-0.722972	0.432856	-2.45	42.7	49.21	-0.2806	0.1473	-0.3639	
0.501542	-0.70882	0.419192	2.52	47.39	48.79	-0.274	0.1513	-0.3567	
0.458476	-0.728218	0.404552	6.51	49.98	48.23	-0.2655	0.1569	-0.3688	
0.421632	-0.751032	0.418582	5.11	49.21	47.81	-0.2554	0.1575	-0.372	
0.399916	-0.73871	0.453718	0.49	41.93	48.79	-0.2439	0.1596	-0.3797	
0.387472	-0.738466	0.477874	-7.7	37.94	49.56	-0.2389	0.1686	-0.3784	
0.373076	-0.73688	0.493978	-9.52	38.99	50.61	-0.2212	0.1812	-0.3834	
0.349164	-0.758596	0.4941	-7	42.35	50.82	-0.2297	0.1805	-0.3891	
0.335134	-0.765184	0.467504	-2.03	45.71	51.24	-0.2111	0.185	-0.397	
0.32879	-0.765672	0.470432	-2.38	48.37	51.45	-0.2016	0.1888	-0.3884	
0.29402	-0.770308	0.474336	-3.5	50.19	49.56	-0.1726	0.1907	-0.4009	
0.27999	-0.770674	0.46604	0.35	52.99	48.51	-0.1619	0.1833	-0.3997	
0.242292	-0.794098	0.46299	-1.19	53.2	48.51	-0.169	0.1999	-0.407	
0.185196	-0.822036	0.475678	-4.76	51.59	49.7	-0.1509	0.1918	-0.4074	
0.17934	-0.823988	0.493856	0	51.66	51.17	-0.1445	0.2007	-0.4091	
0.133102	-0.828136	0.452498	0.98	52.85	52.36	-0.1296	0.196	-0.4109	
0.135176	-0.808616	0.45384	5.04	49.28	54.46	-0.1167	0.1979	-0.4142	
0.10919	-0.81191	0.457012	4.62	47.95	54.04	-0.104	0.2047	-0.4264	
0.077836	-0.816546	0.475068	4.41	46.69	53.62	-0.0945	0.1942	-0.4251	
0.038064	-0.825452	0.489952	5.32	45.5	52.36	-0.0915	0.1923	-0.4237	
0.011712	-0.833138	0.485072	-0.07	45.01	51.94	-0.0744	0.197	-0.4301	
-0.02806	-0.822646	0.459452	-3.01	41.37	48.72	-0.0651	0.2056	-0.4289	
-0.038918	-0.824232	0.50996	-3.01	38.71	47.74	-0.0506	0.2058	-0.4337	
-0.07442	-0.85217	0.498004	0.63	44.94	45.85	-0.0508	0.2074	-0.4337	
-0.114558	-0.83631	0.472872	8.68	46.76	46.34	-0.0365	0.2091	-0.4326	
-0.12627	-0.801662	0.488244	7.63	42.07	45.29	-0.0284	0.2004	-0.4372	
-0.13359	-0.793122	0.509838	2.87	41.23	42.42	-0.0212	0.1997	-0.4344	
-0.160796	-0.779702	0.497516	6.72	43.54	40.32	0.0008	0.1959	-0.4408	
-0.194224	-0.790682	0.501054	2.38	40.6	38.29	-0.0081	0.2	-0.4421	
-0.202154	-0.780678	0.489708	5.67	40.04	37.8	0.0152	0.1945	-0.4353	
-0.215818	-0.77592	0.48678	2.45	37.45	38.15	0.0226	0.1937	-0.4369	
-0.232532	-0.781044	0.504836	4.69	35.98	37.03	0.0286	0.1916	-0.44	
-0.252906	-0.784338	0.49654	7	36.61	37.66	0.0415	0.1935	-0.4448	
-0.249002	-0.774578	0.493124	6.23	35.07	38.15	0.0476	0.1881	-0.4375	
-0.260104	-0.753594	0.491172	7.49	37.1	38.71	0.0579	0.1871	-0.4407	
-0.309026	-0.7625	0.48495	2.45	36.26	37.87	0.0594	0.1853	-0.4393	
-0.312198	-0.755302	0.486902	4.27	33.39	38.01	0.0734	0.176	-0.4455	
-0.321592	-0.751886	0.487634	4.9	33.32	37.73	0.0758	0.1805	-0.4441	
-0.32452	-0.74664	0.482388	5.25	32.76	37.52	0.081	0.1864	-0.4428	
-0.347212	-0.730536	0.459452	5.6	31.36	36.68	0.0961	0.1801	-0.4461	
-0.380884	-0.733098	0.470554	3.78	27.51	35.63	0.0958	0.1833	-0.4461	
-0.415288	-0.733586	0.476532	3.08	23.52	33.74	0.1132	0.1641	-0.4375	
-0.41907	-0.720166	0.47458	5.81	23.31	32.76	0.1188	0.1651	-0.4603	
-0.426146	-0.716872	0.485804	5.53	22.26	31.57	0.1256	0.1691	-0.432	
-0.445666	-0.720166	0.482022	5.39	21.77	30.17	0.1302	0.1513	-0.4379	
-0.46848	-0.725534	0.471896	4.62	19.95	28.7	0.1401	0.1535	-0.4381	
-0.489708	-0.726998	0.48739	2.66	17.36	27.79	0.1486	0.1542	-0.4339	
-0.503372	-0.72712	0.479094	2.31	17.5	27.37	0.1452	0.1625	-0.4413	
-0.496296	-0.721752	0.472994	2.24	15.47	28.56	0.1525	0.1443	-0.4369	
-0.49898	-0.719068	0.480802	1.33	13.09	28.56	0.1582	0.1437	-0.4597	
-0.508618	-0.731146	0.471042	0.63	12.95	28.35	0.1522	0.1459	-0.431	
-0.511424	-0.725656	0.468114	1.47	12.74	29.61	0.156	0.1518	-0.4326	
-0.512766	-0.705282	0.462258	3.15	12.88	30.94	0.1697	0.1458	-0.4388	
-0.511912	-0.686616	0.458232	2.17	12.18	31.43	0.1693	0.1331	-0.4343	
-0.504714	-0.68747	0.452986	2.59	10.85	32.2	0.174	0.1437	-0.4301	
-0.519598	-0.67466	0.445056	2.94	11.06	32.97	0.1856	0.1283	-0.4332	
-0.53863	-0.65819	0.44408	3.29	7	33.11	0.1796	0.1321	-0.439	
-0.563518	-0.647088	0.44591	3.36	8.4	31.08	0.1852	0.1298	-0.4258	
-0.58377	-0.648064	0.446886	3.78	5.95	30.31	0.1915	0.1261	-0.4304	
-0.587674	-0.630984	0.44835	4.9	5.88	28.84	0.1997	0.1125	-0.4216	
-0.597678	-0.626226	0.446886	4.55	4.41	27.16	0.2002	0.1109	-0.4349	
-0.623298	-0.626836	0.452376	4.06	4.2	25.76	0.2001	0.1126	-0.4379	
-0.635864	-0.620614	0.442128	3.15	2.45	24.99	0.2	0.1109	-0.4276	
-0.643184	-0.610976	0.443836	2.1	-0.49	23.45	0.2023	0.1187	-0.4336	
-0.653188	-0.614148	0.462868	0	-3.08	21.49	0.2085	0.1116	-0.4248	
-0.64477	-0.61183	0.46604	-0.21	-3.29	19.88	0.2179	0.1044	-0.428	
-0.637694	-0.614026	0.461282	-0.91	-5.18	17.57	0.2139	0.1032	-0.4382	
-0.649772	-0.604876	0.471774	-1.75	-6.02	15.82	0.2055	0.1009	-0.4409	
-0.648186	-0.595848	0.472994	-2.45	-5.11	13.3	0.2137	0.1032	-0.4308	
-0.633424	-0.60024	0.47458	-2.17	-6.02	11.2	0.2122	0.105	-0.4323	
-0.615002	-0.593896	0.472872	-2.1	-5.74	9.73	0.2058	0.0977	-0.438	
-0.61732	-0.591944	0.475434	-2.73	-6.3	8.47	0.2067	0.1023	-0.4351	
-0.623786	-0.591456	0.481168	-3.22	-6.3	7.21	0.2137	0.1048	-0.4338	
-0.617808	-0.59536	0.477508	-3.15	-5.46	5.39	0.207	0.0991	-0.4336	
-0.610244	-0.59902	0.483364	-3.22	-5.6	4.97	0.2102	0.1115	-0.4352	
-0.613904	-0.596214	0.48007	-3.43	-4.69	4.34	0.206	0.1104	-0.4351	
-0.620614	-0.597312	0.476044	-3.57	-4.2	3.57	0.2004	0.1094	-0.4409	
-0.62403	-0.604754	0.477264	-3.57	-3.99	2.66	0.2085	0.1006	-0.444	
-0.622444	-0.607438	0.478484	-2.52	-3.22	1.96	0.2125	0.1018	-0.4352	
-0.62647	-0.605608	0.472994	-1.96	-2.87	1.82	0.2057	0.0977	-0.4365	
-0.632204	-0.60756	0.469334	-1.61	-2.8	1.68	0.2101	0.1148	-0.4411	
-0.630252	-0.60634	0.471286	-0.49	-3.01	1.47	0.2082	0.1022	-0.4366	
-0.629398	-0.60268	0.471652	-0.84	-3.92	0.98	0.211	0.1003	-0.4278	
-0.63013	-0.598654	0.471286	-0.14	-4.13	0.07	0.211	0.1035	-0.4366	
-0.626592	-0.595238	0.474214	0.42	-4.62	-1.33	0.2128	0.1144	-0.4353	
-0.630496	-0.601826	0.47397	0.84	-4.9	-2.17	0.2072	0.1134	-0.4381	
-0.63928	-0.608536	0.474824	1.33	-5.32	-2.1	0.1957	0.113	-0.4363	
-0.630008	-0.60451	0.47641	1.4	-6.02	-2.03	0.2041	0.0994	-0.435	
-0.61976	-0.601216	0.483852	1.19	-6.58	-3.22	0.2	0.0983	-0.4422	
-0.618662	-0.599264	0.48556	1.12	-6.09	-4.06	0.192	0.1054	-0.4362	
-0.618296	-0.604876	0.488366	0.91	-6.58	-5.11	0.1916	0.1118	-0.4406	
-0.620004	-0.603412	0.490318	0.7	-6.65	-6.16	0.2024	0.1044	-0.4453	
-0.619272	-0.593164	0.493246	0.7	-6.79	-7.49	0.195	0.1068	-0.4437	
-0.625128	-0.595726	0.495076	-0.07	-8.05	-9.38	0.1921	0.107	-0.4436	
-0.617076	-0.600728	0.49471	0.49	-7.77	-11.48	0.1961	0.1082	-0.4363	
-0.618296	-0.60085	0.493002	0.42	-7.84	-13.79	0.1932	0.1101	-0.4436	
-0.620614	-0.601948	0.49593	0.07	-9.03	-15.68	0.19	0.1136	-0.4406	
-0.615856	-0.598166	0.494954	-0.21	-10.01	-17.57	0.1815	0.1112	-0.4389	
-0.609024	-0.59841	0.499712	-1.26	-12.32	-20.09	0.1838	0.119	-0.4449	
-0.593774	-0.602192	0.49227	-0.98	-12.53	-22.54	0.1846	0.111	-0.4493	
-0.578402	-0.603412	0.494222	-1.26	-14.98	-24.78	0.1785	0.1131	-0.4403	
-0.564738	-0.600972	0.498126	-0.28	-15.4	-26.81	0.179	0.1242	-0.4463	
-0.554124	-0.606462	0.509838	-1.61	-17.43	-28.7	0.169	0.1237	-0.4475	
-0.561444	-0.613416	0.510448	-0.77	-15.61	-31.43	0.1624	0.118	-0.4518	
-0.54412	-0.636718	0.496662	-2.03	-18.48	-34.65	0.1573	0.1248	-0.4458	
-0.532164	-0.649772	0.511912	-2.17	-17.92	-35.7	0.1595	0.1325	-0.4429	
-0.519476	-0.646478	0.511546	-2.52	-20.09	-36.12	0.1442	0.1277	-0.4499	
-0.510082	-0.64416	0.510936	-0.91	-19.67	-37.52	0.1564	0.1202	-0.4502	
-0.505934	-0.649894	0.513986	-0.98	-20.58	-39.41	0.1346	0.1366	-0.4438	
-0.486048	-0.657946	0.511058	-0.56	-22.61	-41.09	0.1204	0.1349	-0.4479	
-0.476898	-0.672952	0.522404	-1.05	-23.38	-42.42	0.1247	0.1377	-0.4554	
-0.459574	-0.675026	0.531798	0.7	-22.19	-42.98	0.1184	0.1398	-0.4434	
-0.435784	-0.669048	0.531676	0.91	-22.4	-43.26	0.1062	0.1506	-0.455	
-0.425902	-0.677222	0.53253	-0.91	-24.08	-44.8	0.09999999	0.156	-0.4564	
-0.39772	-0.701256	0.544486	-1.82	-24.99	-46.34	0.0998	0.156	-0.4504	
-0.378322	-0.718458	0.54412	-1.19	-22.89	-46.9	0.0939	0.1598	-0.4562	
-0.368684	-0.712358	0.550586	0.56	-20.58	-46.76	0.0845	0.1512	-0.4545	
-0.343674	-0.695278	0.542168	0	-20.58	-47.04	0.0854	0.1574	-0.4545	
-0.312686	-0.685884	0.54839	-2.31	-22.54	-48.3	0.0749	0.1617	-0.4543	
-0.282674	-0.7259	0.559492	-7.21	-23.8	-49.98	0.0618	0.163	-0.4525	
-0.274012	-0.74115	0.566568	-5.88	-22.12	-50.26	0.0583	0.1538	-0.4553	
-0.260592	-0.742004	0.568154	-5.32	-21.49	-49.91	0.0464	0.1582	-0.4565	
-0.236192	-0.738588	0.559004	-4.69	-21.07	-50.33	0.0359	0.1624	-0.4548	
-0.218624	-0.752252	0.556442	-6.09	-21.77	-51.45	0.0326	0.1658	-0.4503	
-0.19886	-0.763842	0.547292	-7.56	-22.05	-51.87	0.0137	0.1694	-0.4572	
-0.188612	-0.76189	0.543388	-7.77	-21.77	-52.08	0.0208	0.1702	-0.4559	
-0.177632	-0.767746	0.551928	-8.4	-23.73	-52.43	0.009	0.173	-0.4527	
-0.145668	-0.768966	0.537532	-6.86	-24.64	-52.43	-0.0017	0.1645	-0.4539	
-0.116754	-0.76372	0.541192	-6.51	-25.55	-53.34	-0.0009	0.174	-0.4613	
-0.08784	-0.755302	0.533384	-5.74	-25.97	-54.11	-0.0131	0.1783	-0.4748	
-0.070394	-0.759694	0.519354	-4.97	-27.16	-55.93	-0.0177	0.1804	-0.4491	
-0.05551	-0.783362	0.529724	-7.63	-31.22	-56.77	-0.0271	0.1876	-0.4415	
-0.03172	-0.801052	0.524478	-7.77	-30.59	-56.7	-0.0423	0.1829	-0.4515	
-0.009272	-0.793732	0.52704	-9.31	-34.79	-54.67	-0.0514	0.1853	-0.4439	
0.013908	-0.773114	0.544608	-12.88	-37.87	-53.55	-0.0498	0.1835	-0.4424	
0.076372	-0.7686	0.520574	-11.13	-35	-51.52	-0.0734	0.1874	-0.4345	
0.111508	-0.784582	0.512156	-12.39	-35.35	-51.24	-0.0818	0.1868	-0.4461	
0.145424	-0.788974	0.492636	-10.22	-33.53	-51.38	-0.0903	0.1828	-0.4355	
0.152256	-0.793488	0.492148	-9.38	-33.11	-50.54	-0.0977	0.1851	-0.4353	
0.166652	-0.794708	0.488	-6.86	-31.99	-50.89	-0.0991	0.1852	-0.4367	
0.18117	-0.793	0.492026	-6.37	-33.11	-50.82	-0.119	0.1951	-0.4289	
0.188856	-0.800076	0.479338	-5.67	-33.81	-50.4	-0.1328	0.1727	-0.4284	
0.208742	-0.801662	0.469334	-4.76	-35	-49.77	-0.1347	0.1776	-0.4269	
0.22448	-0.77409	0.44347	0.35	-33.67	-48.3	-0.1409	0.1814	-0.4238	
0.258152	-0.73078	0.438468	-0.42	-35.21	-48.09	-0.1598	0.18	-0.416	
0.288164	-0.7137	0.448838	-0.21	-39.55	-49.07	-0.1641	0.1821	-0.4233	
0.318054	-0.73383	0.45689	-5.11	-48.51	-50.75	-0.165	0.1758	-0.4217	
0.296826	-0.783606	0.49044	-3.5	-53.55	-51.73	-0.1752	0.172	-0.4037	
0.39528	-0.71065	0.415898	7.77	-42.84	-47.18	-0.1879	0.1717	-0.4137	
0.41114	-0.745298	0.421144	-5.88	-55.37	-51.17	-0.1983	0.1727	-0.4061	
0.431026	-0.78629	0.451766	-8.89	-58.31	-51.17	-0.211	0.1708	-0.4072	
0.44103	-0.754204	0.443714	1.26	-54.53	-48.37	-0.2111	0.1516	-0.3923	
0.45994	-0.718702	0.419192	1.75	-52.92	-46.27	-0.2275	0.1739	-0.3935	
0.50325	-0.741272	0.43432	-2.03	-55.72	-44.94	-0.2439	0.1612	-0.3842	
0.529114	-0.74481	0.446032	2.17	-52.92	-44.38	-0.2488	0.1648	-0.3752	
0.539606	-0.73932	0.415166	4.2	-47.04	-41.79	-0.2484	0.1441	-0.3736	
0.551196	-0.730414	0.38308	3.57	-46.34	-39.83	-0.2652	0.1537	-0.3688	
0.572058	-0.734684	0.390034	-3.57	-51.03	-37.87	-0.2714	0.1416	-0.3686	
0.591944	-0.712968	0.402478	-4.13	-50.68	-35.56	-0.2804	0.144	-0.361	
0.615612	-0.6954	0.38552	-3.08	-46.97	-33.81	-0.2903	0.1402	-0.3562	
0.623542	-0.684054	0.374906	-0.56	-43.4	-33.67	-0.2986	0.1347	-0.3501	
0.615978	-0.675148	0.347944	1.26	-42.21	-31.99	-0.3007	0.1253	-0.347	
0.604998	-0.676734	0.327936	-1.96	-42.28	-29.68	-0.3018	0.1206	-0.3425	
0.64233	-0.658678	0.32635	-3.15	-44.66	-27.65	-0.3085	0.1325	-0.3498	
0.66368	-0.66673	0.33733	-6.58	-47.53	-27.65	-0.3198	0.1272	-0.3377	
0.67771	-0.660752	0.337574	-7.98	-46.69	-27.16	-0.3223	0.1226	-0.3361	
0.684542	-0.637572	0.305	-3.71	-42.42	-25.62	-0.3368	0.1192	-0.3495	
0.687104	-0.626226	0.286334	-2.31	-39.69	-25.34	-0.3437	0.1261	-0.3016	
0.699792	-0.628056	0.25681	0.98	-37.45	-24.29	-0.3479	0.1091	-0.3029	
0.727852	-0.628178	0.235094	6.23	-39.55	-22.4	-0.3577	0.1228	-0.3071	
0.747006	-0.643672	0.254492	-0.49	-46.27	-20.65	-0.3521	0.1095	-0.2831	
0.752496	-0.649406	0.275232	-9.31	-50.33	-19.74	-0.3642	0.1106	-0.3147	
0.774212	-0.645136	0.269742	-11.27	-47.18	-19.88	-0.3571	0.1098	-0.2819	
0.794586	-0.638548	0.25376	-8.33	-41.02	-19.67	-0.3656	0.1075	-0.2802	
0.799222	-0.640988	0.236314	-2.03	-37.66	-19.74	-0.3709	0.1017	-0.2771	
0.810568	-0.618784	0.241316	8.82	-32.55	-18.41	-0.3797	0.1009	-0.268	
0.789462	-0.634644	0.250588	14.07	-28.56	-18.55	-0.3874	0.0906	-0.2692	
0.816058	-0.639402	0.229482	12.74	-21.77	-17.29	-0.388	0.0953	-0.2618	
0.835456	-0.613904	0.218502	16.87	-17.71	-16.38	-0.3866	0.0935	-0.2545	
0.83021	-0.616832	0.211426	8.68	-14.42	-16.73	-0.3899	0.0828	-0.2558	
0.812764	-0.603412	0.208742	4.06	-17.01	-17.08	-0.3949	0.07539999	-0.2601	
0.818132	-0.606828	0.208498	1.89	-16.31	-17.43	-0.3982	0.0931	-0.2512	
0.825452	-0.584258	0.19886	2.38	-10.57	-16.45	-0.3892	0.0731	-0.2513	
0.820816	-0.586332	0.21167	-0.77	-10.71	-16.03	-0.3981	0.0772	-0.2556	
0.816424	-0.576816	0.210816	-0.84	-9.59	-15.19	-0.3916	0.0654	-0.2409	
0.812764	-0.564738	0.196298	-0.56	-6.58	-13.72	-0.3941	0.0784	-0.2468	
0.81313	-0.551318	0.178974	-1.33	-3.57	-12.67	-0.3946	0.0689	-0.2482	
0.811056	-0.556198	0.177022	-0.98	-2.94	-12.04	-0.4045	0.0683	-0.2553	
0.829234	-0.589138	0.19276	-3.92	-5.67	-11.2	-0.4017	0.0664	-0.2465	
0.83692	-0.583404	0.193736	-1.19	-2.45	-9.94	-0.4031	0.06659999	-0.2465	
0.827892	-0.55693	0.182634	1.4	0.07	-8.89	-0.3943	0.0624	-0.2393	
0.83326	-0.559126	0.182024	-0.49	-0.63	-7.42	-0.4049	0.0683	-0.2405	
0.846436	-0.575962	0.198494	-2.66	-1.47	-5.67	-0.3935	0.0544	-0.2422	
0.842776	-0.564128	0.202886	-3.22	0.07	-4.06	-0.3947	0.0546	-0.2525	
0.82045	-0.528626	0.193126	0.07	4.97	-3.43	-0.4062	0.0542	-0.2522	
0.826794	-0.535336	0.186416	-0.42	5.53	-2.52	-0.401	0.06	-0.2509	
0.832894	-0.552904	0.192028	-1.68	3.64	-1.33	-0.3955	0.0643	-0.2526	
0.821304	-0.541924	0.18483	0.42	4.34	-0.56	-0.3976	0.0533	-0.2451	
0.825818	-0.545706	0.182512	2.59	4.48	0.77	-0.4062	0.0558	-0.2567	
0.831552	-0.548512	0.182634	3.15	4.34	2.45	-0.4012	0.0474	-0.2523	
0.83692	-0.532042	0.182878	2.59	4.48	3.92	-0.3977	0.0565	-0.2554	
0.8418	-0.537776	0.19703	0.98	3.78	3.99	-0.4061	0.0542	-0.2537	
0.831308	-0.55266	0.216794	-0.28	2.17	4.06	-0.4098	0.0609	-0.2478	
0.828868	-0.5551	0.213378	-2.24	3.92	4.62	-0.4044	0.0508	-0.2523	
0.826184	-0.550342	0.205692	0.84	8.05	5.18	-0.4038	0.0587	-0.2479	
0.818132	-0.55266	0.205936	2.8	9.73	5.11	-0.4053	0.0605	-0.2538	
0.819474	-0.563152	0.200446	3.22	8.82	6.09	-0.3965	0.058	-0.251	
0.81313	-0.571692	0.202642	3.22	7.91	7.49	-0.3923	0.0608	-0.2556	
0.806542	-0.573888	0.208864	1.82	8.61	8.61	-0.4096	0.0609	-0.2552	
0.805566	-0.579622	0.205326	1.54	10.29	10.08	-0.3941	0.0657	-0.2571	
0.80581	-0.584624	0.209962	3.15	11.34	11.55	-0.3912	0.0654	-0.2557	
0.801784	-0.584746	0.214354	3.29	11.41	13.16	-0.3926	0.0689	-0.2719	
0.792268	-0.570716	0.219356	4.55	12.74	14.28	-0.3991	0.0726	-0.257	
0.793122	-0.55449	0.223504	6.09	14.7	14.84	-0.3872	0.0715	-0.2676	
0.79117	-0.565836	0.225822	7.07	14.49	14.84	-0.3904	0.0766	-0.2735	
0.780068	-0.5795	0.230458	5.74	13.58	15.12	-0.3895	0.0653	-0.266	
0.779946	-0.584258	0.232654	5.39	13.16	15.96	-0.378	0.0674	-0.2737	
0.771894	-0.58438	0.245708	4.76	13.02	16.45	-0.3823	0.0695	-0.281	
0.771406	-0.589992	0.259616	3.22	13.93	16.87	-0.3801	0.0756	-0.2767	
0.756888	-0.594384	0.26901	2.73	15.12	17.5	-0.3811	0.08679999	-0.2797	
0.752252	-0.582428	0.263276	5.53	18.69	18.55	-0.3793	0.0835	-0.2797	
0.753838	-0.589626	0.261202	6.37	18.9	18.9	-0.3722	0.086	-0.2829	
0.73993	-0.60146	0.26779	6.16	17.36	18.83	-0.3735	0.0845	-0.2873	
0.72407	-0.608414	0.273768	3.64	16.8	19.25	-0.3781	0.0898	-0.2931	
0.720776	-0.612562	0.273402	4.06	18.13	20.09	-0.3691	0.0857	-0.2933	
0.726144	-0.627324	0.282064	3.57	17.99	21.14	-0.3737	0.0861	-0.2814	
0.729682	-0.627202	0.29158	4.48	17.5	22.26	-0.3661	0.0854	-0.2963	
0.723094	-0.629032	0.302194	5.6	16.52	22.82	-0.3663	0.0887	-0.3008	
0.69418	-0.634522	0.316346	2.8	17.36	22.89	-0.3556	0.09869999	-0.3041	
0.68442	-0.64172	0.320006	2.8	19.11	23.03	-0.3547	0.1066	-0.3101	
0.67588	-0.659532	0.32208	2.52	19.81	23.87	-0.3516	0.1047	-0.3116	
0.663192	-0.661606	0.328546	2.94	20.93	25.13	-0.3546	0.1067	-0.3145	
0.65453	-0.64965	0.331962	4.2	21.56	26.11	-0.3452	0.1136	-0.3103	
0.640744	-0.666486	0.336842	2.94	21.35	26.81	-0.3426	0.1023	-0.3162	
0.627568	-0.67039	0.334524	4.48	23.38	27.51	-0.3448	0.1121	-0.3207	
0.618662	-0.66917	0.33489	4.97	21.49	28.63	-0.3302	0.1106	-0.3225	
0.607804	-0.674538	0.346846	5.46	21.14	28.77	-0.326	0.1134	-0.3315	
0.60146	-0.676612	0.357704	4.34	18.83	29.68	-0.3288	0.1138	-0.3359	
0.595848	-0.681126	0.35868	3.78	18.76	30.59	-0.3139	0.125	-0.3363	
0.591334	-0.692838	0.358924	3.43	19.46	31.15	-0.3194	0.1224	-0.3377	
0.578524	-0.709552	0.369538	1.68	18.48	31.43	-0.3128	0.1296	-0.3379	
0.569496	-0.70638	0.383446	1.61	17.85	32.41	-0.3112	0.1279	-0.3409	
0.564006	-0.698572	0.38918	1.26	19.18	33.04	-0.3149	0.1378	-0.3438	
0.560712	-0.696742	0.395158	0.56	20.79	33.11	-0.3032	0.1383	-0.35	
0.535092	-0.71919	0.392962	1.19	22.05	32.62	-0.3061	0.1353	-0.3396	
0.50752	-0.735904	0.394426	1.89	23.8	32.83	-0.2973	0.1536	-0.3532	
0.506788	-0.733952	0.40077	1.33	22.82	33.67	-0.2894	0.1607	-0.352	
0.497882	-0.728462	0.418948	-0.91	23.59	33.53	-0.2915	0.153	-0.3519	
0.495076	-0.72346	0.435296	-3.36	23.8	32.9	-0.2879	0.159	-0.3461	
0.473238	-0.737246	0.447252	-5.74	25.83	31.85	-0.285	0.1636	-0.3639	
0.45933	-0.748714	0.433344	-3.71	28.35	32.06	-0.2816	0.1552	-0.3551	
0.437492	-0.749202	0.430904	-0.98	31.71	31.99	-0.2701	0.1573	-0.3613	
0.427732	-0.752374	0.44042	-4.13	31.85	32.34	-0.2634	0.1788	-0.3587	
0.41846	-0.758108	0.453108	-6.44	31.43	32.34	-0.2541	0.159	-0.3721	
0.396744	-0.765794	0.461038	-7	33.46	31.99	-0.2524	0.1698	-0.3633	
0.387594	-0.750056	0.454816	-4.34	37.03	31.29	-0.2525	0.1731	-0.3722	
0.374174	-0.762744	0.448838	-3.08	40.46	30.03	-0.2424	0.1737	-0.3754	
0.353068	-0.785558	0.442128	-2.24	41.3	29.33	-0.2377	0.1876	-0.3815	
0.33001	-0.798002	0.435296	0.49	42.35	29.68	-0.2233	0.1877	-0.3834	
0.310246	-0.79483	0.43493	0.77	41.37	30.17	-0.2194	0.1953	-0.3924	
0.28548	-0.784826	0.44042	-4.48	35.77	30.45	-0.2055	0.186	-0.3971	
0.26779	-0.786656	0.458354	-9.8	32.06	29.68	-0.2023	0.1968	-0.3899	
0.25925	-0.805444	0.46726	-11.83	31.64	28.77	-0.195	0.1977	-0.3945	
0.249978	-0.82716	0.462868	-8.82	32.62	28.49	-0.1948	0.1945	-0.393	
0.230336	-0.829844	0.45567	-5.81	33.11	28	-0.1836	0.2014	-0.4037	
0.210572	-0.823256	0.456646	-6.16	33.39	27.58	-0.1676	0.1981	-0.3982	
0.197884	-0.823988	0.46604	-7.49	32.55	27.51	-0.1649	0.2011	-0.3997	
0.19032	-0.840092	0.470432	-8.61	34.37	27.93	-0.1594	0.2037	-0.3984	
0.173972	-0.83753	0.459696	-4.34	36.19	27.86	-0.1577	0.2036	-0.4088	
0.154696	-0.832284	0.451888	-6.58	34.3	27.72	-0.1554	0.2081	-0.403	
0.138348	-0.826184	0.450912	-5.74	33.53	27.02	-0.1425	0.2116	-0.4122	
0.12566	-0.822524	0.44408	-3.43	33.53	26.46	-0.1369	0.2159	-0.4197	
0.086742	-0.84729	0.433222	-4.9	31.85	25.97	-0.1267	0.2149	-0.4229	
0.064538	-0.843386	0.431514	-6.58	26.25	26.46	-0.1196	0.2141	-0.4157	
0.049654	-0.852414	0.46299	-7.28	23.03	25.9	-0.1153	0.2137	-0.4144	
0.027206	-0.84668	0.44713	-1.19	24.99	24.85	-0.1077	0.2114	-0.419	
0.020862	-0.836432	0.43859	-0.84	24.15	24.43	-0.1017	0.2218	-0.4103	
-0.001098	-0.834602	0.42578	-2.52	18.9	22.05	-0.0966	0.215	-0.4163	
-0.011102	-0.841312	0.433344	-2.03	14.98	20.93	-0.1027	0.2221	-0.4295	
-0.026108	-0.83875	0.434198	-0.84	10.5	19.53	-0.0928	0.221	-0.4179	
-0.029768	-0.842044	0.44042	-1.4	5.04	17.99	-0.0928	0.221	-0.4179	
-0.031354	-0.842776	0.451522	-0.77	0	16.8	-0.0858	0.2218	-0.4107	
-0.021594	-0.842166	0.458232	0.35	-2.03	15.68	-0.0876	0.2268	-0.4151	
-0.019276	-0.837652	0.464088	2.1	-2.73	14.21	-0.087	0.2204	-0.4166	
-0.015372	-0.837774	0.462136	3.5	-4.27	13.23	-0.08419999	0.2217	-0.4182	
-0.006832	-0.842776	0.462868	4.48	-5.39	12.53	-0.0778	0.2147	-0.4153	
0.006588	-0.847046	0.479948	2.87	-6.65	12.18	-0.0829	0.2215	-0.4108	
0.00732	-0.850828	0.491172	3.64	-5.81	11.34	-0.0803	0.2118	-0.4226	
0.016348	-0.840824	0.50386	3.43	-4.41	10.15	-0.09079999	0.2303	-0.4151	
0.022204	-0.82655	0.506422	4.2	-1.54	8.19	-0.0806	0.215	-0.4226	
0.024888	-0.824842	0.505812	3.78	0.63	6.23	-0.0771	0.2226	-0.4154	
0.013176	-0.823378	0.503006	3.99	4.13	3.08	-0.0814	0.223	-0.4182	
0.013664	-0.830576	0.497516	4.34	6.86	1.05	-0.0787	0.2101	-0.4197	
0.012688	-0.83692	0.499956	2.87	7.49	-0.56	-0.0734	0.2143	-0.4184	
0.002196	-0.837042	0.500932	0.63	7.21	-2.59	-0.0773	0.2258	-0.4198	
0.01098	-0.831674	0.507276	0.77	8.61	-3.78	-0.0763	0.2146	-0.4198	
-0.000976	-0.835944	0.494466	2.87	11.69	-5.6	-0.0821	0.2168	-0.4241	
-0.00854	-0.842654	0.493612	5.39	12.32	-6.58	-0.0763	0.2178	-0.4301	
-0.009393999	-0.842654	0.474092	5.67	11.76	-7.07	-0.0808	0.2056	-0.4373	
-0.009881999	-0.84668	0.474946	1.82	7.7	-7.07	-0.073	0.2111	-0.4243	
-0.00732	-0.84546	0.48678	0.56	5.18	-6.72	-0.0764	0.2195	-0.4331	
-0.011834	-0.846192	0.490562	1.12	5.04	-6.51	-0.0834	0.2153	-0.424	
-0.020374	-0.851804	0.4819	3.43	5.25	-6.37	-0.0635	0.2165	-0.4201	
-0.022082	-0.858758	0.47641	2.8	3.43	-5.74	-0.0829	0.2105	-0.427	
-0.017446	-0.861198	0.472994	1.96	0.21	-4.55	-0.0678	0.2169	-0.4215	
-0.00915	-0.858392	0.481168	0.7	-2.45	-3.08	-0.0749	0.2177	-0.4272	
-0.000488	-0.856318	0.48556	0.98	-3.78	-2.03	-0.0718	0.2158	-0.4302	
0.005734	-0.849486	0.484828	2.66	-4.27	-1.05	-0.067	0.2106	-0.4303	
0.008296	-0.843996	0.487268	2.87	-4.69	-0.49	-0.0721	0.2158	-0.4184	
0.007929999	-0.845338	0.491538	1.82	-5.95	-0.63	-0.0663	0.2025	-0.4273	
0.01525	-0.841434	0.496174	1.89	-6.3	-0.14	-0.0774	0.2115	-0.4212	
0.022082	-0.831308	0.497272	1.82	-6.44	-0.28	-0.08329999	0.2137	-0.424	
0.021106	-0.83387	0.498248	1.4	-6.65	-1.26	-0.0796	0.2055	-0.4285	
0.024034	-0.840946	0.502274	-0.56	-7.49	-1.68	-0.0915	0.2098	-0.4268	
0.029036	-0.834358	0.50386	-0.14	-6.79	-1.47	-0.0722	0.2048	-0.4331	
0.029646	-0.833016	0.501298	0.35	-5.88	-1.47	-0.0844	0.2123	-0.4314	
0.033306	-0.83997	0.498614	0.7	-5.46	-1.68	-0.0843	0.2075	-0.4195	
0.03477	-0.841922	0.500688	0.98	-5.25	-1.96	-0.0828	0.2089	-0.427	
0.037332	-0.838994	0.504958	0.7	-5.18	-2.24	-0.0859	0.2108	-0.4239	
0.042944	-0.837286	0.507276	0.84	-4.27	-2.66	-0.0735	0.2017	-0.4242	
0.04392	-0.839482	0.504958	1.05	-2.87	-3.29	-0.084	0.2075	-0.4328	
0.045872	-0.836798	0.502274	1.33	-2.17	-3.57	-0.0871	0.1919	-0.4238	
0.049898	-0.836066	0.505812	1.05	-1.33	-3.85	-0.0905	0.2145	-0.4253	
0.050752	-0.838018	0.506544	1.19	-0.49	-4.13	-0.0849	0.2012	-0.4283	
0.051362	-0.839238	0.505934	1.33	0.35	-4.34	-0.094	0.2069	-0.4326	
0.050264	-0.83387	0.504104	1.61	1.12	-4.48	-0.0832	0.2138	-0.427	
0.049898	-0.839238	0.503128	1.12	1.33	-4.69	-0.0976	0.2136	-0.4281	
0.048678	-0.840824	0.50325	1.47	1.68	-4.62	-0.0849	0.1996	-0.4254	
0.05002	-0.839604	0.504226	1.26	2.03	-4.48	-0.08199999	0.2009	-0.4284	
0.053192	-0.833748	0.503494	1.26	2.59	-4.55	-0.085	0.1996	-0.418	
0.0549	-0.83021	0.504348	1.12	2.73	-4.69	-0.0929	0.21	-0.4282	
0.055754	-0.834724	0.507154	0.28	2.94	-4.97	-0.0834	0.2153	-0.424	
0.051362	-0.835578	0.504836	1.05	3.29	-5.18	-0.07889999	0.1974	-0.427	
0.050142	-0.837164	0.501908	0.84	3.43	-5.6	-0.0869	0.2062	-0.4254	
0.051972	-0.843142	0.503982	0.14	3.01	-5.81	-0.0909	0.205	-0.4341	
0.056486	-0.83814	0.509106	1.54	3.92	-5.88	-0.0828	0.2073	-0.421	
0.05856	-0.830332	0.508862	2.8	5.39	-6.23	-0.0881	0.2047	-0.4298	
0.060512	-0.82838	0.502396	2.52	5.6	-6.3	-0.0875	0.1967	-0.4268	
0.059292	-0.830332	0.49776	1.61	4.83	-6.65	-0.0805	0.2008	-0.4299	
0.06344	-0.840946	0.50325	1.05	3.71	-6.86	-0.0803	0.196	-0.421	
0.066978	-0.83631	0.504714	2.03	3.78	-6.51	-0.0887	0.1969	-0.4371	
0.072834	-0.830698	0.50996	1.54	3.78	-6.51	-0.0914	0.1923	-0.4266	
0.06832	-0.834846	0.509838	2.03	4.34	-7.07	-0.0875	0.2	-0.4386	
0.058072	-0.840702	0.510326	1.82	4.55	-7.14	-0.09119999	0.2066	-0.4282	
0.05612	-0.836798	0.51118	1.4	4.62	-6.09	-0.0972	0.2104	-0.431	
0.057828	-0.833138	0.509472	1.26	5.04	-5.04	-0.0829	0.1947	-0.4269	
0.05063	-0.83875	0.50325	1.54	4.76	-4.41	-0.0863	0.2014	-0.4327	
0.049288	-0.841068	0.50142	1.61	3.29	-3.71	-0.0892	0.1968	-0.4149	
0.056974	-0.837286	0.505324	1.12	2.1	-2.73	-0.0861	0.1998	-0.4327	
0.05795	-0.835334	0.509838	1.96	1.75	-1.75	-0.0947	0.1974	-0.4281	
0.057218	-0.832528	0.506178	2.24	0.91	-1.12	-0.09209999	0.2004	-0.4282	
0.061366	-0.834114	0.509594	1.61	0	-0.63	-0.0792	0.2039	-0.4389	
0.062586	-0.835456	0.513498	1.75	-0.84	-0.07	-0.0879	0.2031	-0.4327	
0.066978	-0.827038	0.51728	1.54	-1.33	0.35	-0.0832	0.1995	-0.4343	
0.07015	-0.828014	0.518744	0.98	-1.05	0.28	-0.0911	0.205	-0.4267	
0.070882	-0.827282	0.51606	0.84	-0.77	0.28	-0.0884	0.1937	-0.4371	
0.070028	-0.832528	0.515938	-0.07	-1.19	0.21	-0.0936	0.2005	-0.4266	
0.070882	-0.82899	0.519354	-0.07	-1.4	0.21	-0.0884	0.1937	-0.4371	
