Sensor string: A
Serial number: 1970-01-0000
Firmware version: 2,015
Hardware version: 2,2
Calibration quality: 5
ax	ay	az	gx	gy	gz	mx	my	mz

-0.010004	0.924272	0.38613	-2.1	2.8	1.26	-0.0202	-0.3203	-0.3355	Reference
-0.011224	0.925126	0.387594	-2.45	2.73	1.75	-0.0187	-0.3265	-0.3372	
-0.0122	0.928176	0.389546	-2.52	2.73	1.75	-0.0187	-0.3265	-0.3387	
-0.013298	0.921832	0.393084	-2.31	2.8	1.61	-0.0158	-0.3236	-0.3465	
-0.007808	0.916586	0.38979	-1.68	2.59	1.12	-0.0101	-0.3299	-0.3483	
-0.00915	0.923784	0.392718	-0.77	1.82	1.05	-0.0088	-0.3267	-0.3389	
-0.017812	0.924638	0.38918	-0.84	2.52	0.42	-0.0158	-0.3266	-0.3419	
-0.004392	0.919392	0.386984	-0.28	1.75	-0.28	-0.0131	-0.325	-0.3357	
-0.005734	0.928542	0.384788	-0.49	1.12	0.49	-0.0117	-0.3174	-0.3434	
-0.00976	0.928176	0.384178	-1.26	0.84	0.84	-0.0142	-0.3314	-0.3498	
-0.009028	0.92842	0.38674	-1.4	0.35	0.7	-0.02	-0.3389	-0.3358	
-0.007808	0.924882	0.389668	-1.89	0.28	0.63	-0.0199	-0.3267	-0.3496	
-0.005734	0.921222	0.393816	-1.68	0.21	0.56	-0.0115	-0.3206	-0.3528	
-0.0061	0.915854	0.395524	-1.54	0.07	0.7	-0.0116	-0.3266	-0.3404	
-0.0061	0.913048	0.396256	-1.12	-0.28	0.63	-0.0145	-0.322	-0.3403	
-0.005612	0.914268	0.396866	-0.56	-0.77	0.63	-0.0215	-0.3219	-0.3433	
-0.005856	0.914756	0.396866	-0.28	-0.98	0.63	-0.0145	-0.3235	-0.3388	
-0.005002	0.916708	0.396012	0.07	-1.4	0.7	-0.0159	-0.3204	-0.3387	
-0.00488	0.919148	0.39528	0.21	-1.68	0.77	-0.0201	-0.3173	-0.3448	
-0.005246	0.921954	0.39589	0.21	-2.03	0.91	-0.0101	-0.3267	-0.3451	
-0.006222	0.926834	0.396744	0.28	-2.45	0.98	-0.0173	-0.3204	-0.3418	
-0.008905999	0.936838	0.39528	0.14	-2.17	0.42	-0.0146	-0.3142	-0.3371	
-0.004392	0.93574	0.395402	-0.28	-1.82	-0.35	-0.0172	-0.3312	-0.3419	
-0.001586	0.928542	0.397476	-0.42	-1.19	-0.77	-0.0187	-0.3235	-0.3403	
0.001708	0.920246	0.397476	-0.35	-0.49	-0.98	-0.0216	-0.3157	-0.3401	
0.002806	0.91317	0.397354	-0.21	-0.28	-0.91	-0.0186	-0.3235	-0.3434	
0.000732	0.912682	0.393572	0.21	-0.28	-0.49	-0.0173	-0.3173	-0.3418	
-0.002562	0.919636	0.38979	0.42	-0.56	-0.28	-0.0201	-0.3204	-0.3402	
-0.006588	0.927688	0.38552	0.56	-1.05	-0.07	-0.0173	-0.3265	-0.3341	
-0.009393999	0.933788	0.37942	0.35	-1.19	-0.14	-0.0269	-0.3312	-0.348	
-0.011468	0.93391	0.37759	0.63	-1.19	-0.7	-0.0217	-0.3248	-0.3278	
-0.018422	0.940132	0.368562	0.91	-1.33	-0.84	-0.0244	-0.3218	-0.3355	
-0.00732	0.947086	0.367464	0.98	-1.68	-1.12	-0.0229	-0.3265	-0.3418	
-0.010614	0.954772	0.35929	0.14	-1.61	-0.14	-0.0129	-0.3313	-0.3467	
-0.010614	0.950502	0.356118	-1.19	-1.4	-0.07	-0.0117	-0.3235	-0.3341	
-0.016348	0.95648	0.358436	-1.33	-0.91	0.28	-0.0145	-0.3235	-0.3388	
-0.01952	0.956724	0.365268	-2.52	0.21	0.21	-0.0214	-0.3312	-0.3403	
-0.004514	0.931226	0.36844	-4.06	0.98	0.56	-0.0202	-0.3295	-0.331	
-0.001708	0.929884	0.367952	-3.92	0.98	0.7	-0.0175	-0.3125	-0.3308	
-0.003294	0.934642	0.369172	-3.78	0.35	0.98	-0.0258	-0.3233	-0.3355	
-0.002562	0.933422	0.365756	-4.27	-0.56	1.4	-0.0173	-0.3219	-0.3371	
-0.006588	0.95099	0.366244	-3.08	-0.84	0.56	-0.0216	-0.3126	-0.3401	
-0.012566	0.969046	0.359046	-3.92	-0.14	0.84	-0.0103	-0.3189	-0.3419	
-0.013176	0.969412	0.359168	-4.9	1.12	0.07	-0.0103	-0.3189	-0.3419	
-0.013542	0.964776	0.358192	-7.07	2.24	-1.05	-0.0186	-0.3281	-0.3434	
-0.012688	0.956114	0.35441	-9.17	2.38	-1.61	-0.0129	-0.3267	-0.3482	
-0.004758	0.953674	0.356606	-11.13	0.84	-1.4	-0.0189	-0.3187	-0.3293	
-0.013054	0.960628	0.355752	-12.25	1.26	0.14	-0.0202	-0.3126	-0.3385	
-0.020984	0.980148	0.354654	-12.88	2.94	0.77	-0.0172	-0.3251	-0.345	
-0.018788	0.976732	0.35319	-16.38	4.27	-0.91	-0.0172	-0.3098	-0.3556	
-0.01403	0.969412	0.35624	-19.25	3.85	-1.54	-0.0172	-0.3159	-0.348	
-0.012078	0.952454	0.358924	-23.45	4.62	-1.61	-0.0174	-0.3081	-0.3447	
-0.023302	0.946598	0.36417	-26.88	4.76	-0.28	-0.0116	-0.3144	-0.3511	
-0.032208	0.947574	0.36783	-29.54	4.83	0.98	-0.0172	-0.3036	-0.3602	
-0.026962	0.951356	0.37698	-32.48	3.43	1.75	-0.0088	-0.3052	-0.3573	
-0.029524	0.954894	0.377346	-37.8	4.34	1.61	-0.0117	-0.2944	-0.3586	
-0.038064	0.942816	0.384666	-42.91	4.41	1.26	-0.0102	-0.2899	-0.3679	
-0.035136	0.926468	0.408456	-46.41	3.57	1.82	-0.0171	-0.2869	-0.3802	
-0.025254	0.906338	0.425902	-49.63	2.87	1.75	-0.0118	-0.2682	-0.3676	
-0.01525	0.89121	0.434808	-52.36	2.66	2.31	-0.0116	-0.2699	-0.3801	
-0.015372	0.890966	0.437736	-54.88	3.71	2.94	-0.0116	-0.2684	-0.3832	
-0.029646	0.888648	0.438834	-59.08	4.62	3.64	-0.0189	-0.2559	-0.3767	
-0.027084	0.858392	0.464454	-65.31	3.71	3.22	-0.013	-0.2469	-0.3969	
-0.025986	0.83997	0.527894	-69.16	4.62	3.29	-0.009	-0.2314	-0.3905	
-0.011224	0.782264	0.572912	-70.84	2.45	6.58	-0.0105	-0.2283	-0.3889	
0.010004	0.7625	0.585478	-70.56	-7.91	5.39	-0.0174	-0.2176	-0.4058	
0.02562	0.758596	0.586942	-66.99	-3.22	5.18	-0.0076	-0.2054	-0.4089	
0.016104	0.758718	0.579622	-66.08	-0.28	5.18	-0.0203	-0.2023	-0.4148	
-0.01281	0.783484	0.57645	-65.31	4.41	6.72	-0.009099999	-0.1731	-0.4255	
-0.036844	0.751886	0.572302	-71.4	7.84	6.02	-0.0134	-0.1746	-0.4239	
-0.049044	0.682346	0.58743	-77.98	7.63	3.43	-0.0218	-0.17	-0.4299	
-0.046238	0.633058	0.623542	-82.32	1.4	1.54	-0.0136	-0.1514	-0.4267	
-0.023058	0.60024	0.664778	-86.52	-9.1	1.4	-0.007999999	-0.1407	-0.4267	
-0.015738	0.594506	0.70821	-87.15	-6.72	6.58	-0.0109	-0.1268	-0.4342	
-0.017934	0.565836	0.72834	-88.27	-5.04	8.47	-0.0222	-0.1252	-0.4356	
-0.001586	0.554246	0.750666	-88.55	-6.72	5.74	-0.0109	-0.0961	-0.4525	
0.027084	0.535336	0.7808	-90.72	-8.68	6.37	-0.0139	-0.0837	-0.4507	
0.025376	0.497882	0.783972	-90.3	-5.81	6.79	-0.0169	-0.07889999	-0.4413	
0.020862	0.486048	0.803858	-89.81	-5.67	5.95	-0.0227	-0.0511	-0.447	
0.025864	0.44469	0.821304	-90.51	-3.15	6.72	-0.023	-0.037	-0.436	
0.03233	0.381372	0.829112	-91.42	-1.82	8.4	-0.0204	-0.0232	-0.4374	
0.02928	0.350628	0.834724	-89.53	-0.49	10.29	-0.0175	-0.0125	-0.4451	
0.021594	0.338062	0.865834	-88.06	-3.08	11.27	-0.0162	-0.0002	-0.4496	
0.011102	0.329156	0.872422	-87.85	-2.31	12.88	-0.0193	0.0215	-0.4462	
0.016592	0.285968	0.899262	-87.5	-3.15	13.16	-0.0224	0.0463	-0.4411	
0.019642	0.23119	0.90646	-87.01	-3.01	11.41	-0.0226	0.0556	-0.4379	
0.019032	0.196908	0.91683	-85.26	-3.22	11.34	-0.0212	0.0725	-0.4439	
0.020374	0.169214	0.919636	-83.93	-3.36	10.5	-0.0299	0.0897	-0.4389	
0.032086	0.138714	0.926346	-83.93	-3.78	11.34	-0.0245	0.1006	-0.4311	
0.026718	0.117486	0.932446	-82.95	-5.32	10.99	-0.0249	0.1254	-0.4214	
0.032452	0.084546	0.954406	-82.04	-5.46	10.15	-0.0207	0.1223	-0.4215	
0.048556	0.042944	0.971974	-81.27	-6.02	10.15	-0.0194	0.1377	-0.4244	
0.06527	0.004392	0.970632	-79.8	-5.18	10.08	-0.0195	0.1455	-0.4197	
0.05673	-0.006344	0.967338	-76.44	-3.85	8.26	-0.0296	0.1612	-0.4146	
0.051484	-0.021594	0.97295	-74.2	-2.24	8.19	-0.0257	0.1797	-0.4082	
0.051606	-0.051972	0.97905	-72.73	-2.03	7.63	-0.0257	0.1875	-0.4097	
0.054168	-0.100894	0.988444	-70.28	-2.94	7.98	-0.0261	0.2016	-0.394	
0.064172	-0.128954	0.99613	-64.82	-1.82	7.28	-0.0234	0.2078	-0.3877	
0.070028	-0.139934	0.998326	-61.18	-5.18	5.95	-0.022	0.2047	-0.3862	
0.034648	-0.150548	0.991494	-54.6	0.63	5.88	-0.025	0.2203	-0.3828	
0.019886	-0.173484	0.994178	-51.1	0.28	6.44	-0.0224	0.2342	-0.378	
0.040138	-0.191906	0.993568	-49.21	-3.99	8.75	-0.0153	0.2295	-0.3782	
0.0488	-0.186294	0.980026	-46.69	-5.39	5.81	-0.0184	0.2435	-0.3749	
0.032696	-0.188978	0.99247	-44.87	-5.67	5.46	-0.0171	0.2559	-0.3716	
0.044042	-0.218868	1.021628	-43.12	-8.12	7.63	-0.0172	0.2529	-0.3608	
0.055022	-0.243268	1.017602	-40.53	-8.61	6.3	-0.0215	0.2577	-0.3591	
0.06832	-0.2501	1.009916	-36.89	-7.7	3.85	-0.023	0.2669	-0.3589	
0.074176	-0.259616	1.000522	-36.54	-6.3	5.11	-0.0218	0.2732	-0.3496	
0.086254	-0.273646	0.993324	-32.76	-5.81	6.93	-0.0275	0.2779	-0.351	
0.089304	-0.281088	0.99064	-31.5	-3.57	6.72	-0.029	0.2795	-0.3478	
0.08295999	-0.30805	0.994544	-27.72	-2.66	6.51	-0.0206	0.2872	-0.3447	
0.08174	-0.325984	0.9882	-23.38	-2.87	5.67	-0.0222	0.2858	-0.3354	
0.084912	-0.303902	0.972218	-20.02	-2.87	4.48	-0.0306	0.2889	-0.3383	
0.070394	-0.283284	0.935618	-19.18	-1.68	3.85	-0.0279	0.289	-0.3337	
0.051362	-0.270108	0.91866	-21.07	0.35	3.64	-0.0237	0.2951	-0.3352	
0.026962	-0.310856	0.922808	-22.89	-0.14	4.69	-0.0196	0.3105	-0.3351	
0.03599	-0.327692	0.928542	-23.59	-4.69	5.53	-0.0253	0.3045	-0.3304	
0.066978	-0.340868	0.950136	-21.42	-6.93	4.55	-0.0254	0.3077	-0.3211	
0.080886	-0.355996	0.95526	-20.58	-5.18	4.55	-0.0256	0.314	-0.3116	
0.074176	-0.365756	0.964776	-18.34	-4.55	4.2	-0.0129	0.3184	-0.3165	
0.07905599	-0.380152	0.976244	-15.33	-3.57	4.13	-0.0198	0.3107	-0.3211	
0.09089	-0.382226	0.986004	-12.25	-3.64	3.57	-0.0156	0.3168	-0.3227	
0.09333	-0.389546	0.994788	-9.59	-3.64	3.43	-0.0172	0.3185	-0.3164	
0.09638	-0.39406	0.998448	-6.51	-1.82	3.43	-0.0186	0.317	-0.3102	
0.093208	-0.405528	0.993324	-2.8	0.49	3.29	-0.0214	0.3231	-0.3209	
0.093696	-0.406504	0.979782	0.49	0.84	3.08	-0.0298	0.3171	-0.3146	
0.09272	-0.398574	0.978806	2.17	0.35	2.45	-0.0271	0.3202	-0.31	
0.089182	-0.396622	0.989786	4.97	-1.47	2.87	-0.0171	0.3138	-0.318	
0.084302	-0.404918	0.99796	8.54	-1.33	2.94	-0.02	0.3169	-0.3164	
0.087962	-0.426024	0.996252	10.43	-4.06	3.5	-0.0255	0.3154	-0.3178	
0.074908	-0.431514	1.000522	14.14	-3.64	2.17	-0.0186	0.317	-0.3133	
0.095038	-0.461282	1.01504	19.6	-4.97	2.31	-0.024	0.3184	-0.3272	
0.093452	-0.470432	1.025654	26.6	-4.48	1.4	-0.0309	0.3045	-0.3288	
0.098332	-0.459818	1.042246	32.48	-5.53	-0.42	-0.0253	0.306	-0.3273	
0.093696	-0.46848	1.041636	37.31	-5.32	-1.47	-0.0123	0.2872	-0.3355	
0.097722	-0.465552	1.042246	44.94	-5.39	-3.01	-0.0224	0.3074	-0.3367	
0.114436	-0.443836	1.038342	51.03	-5.95	-4.34	-0.0223	0.2997	-0.3337	
0.102968	-0.417606	1.033828	58.94	-2.73	-6.23	-0.0206	0.2872	-0.3447	
0.104676	-0.395646	1.028948	63.63	-5.11	-7.14	-0.0175	0.2716	-0.3543	
0.11102	-0.366976	1.020164	68.67	-5.46	-6.79	-0.0315	0.264	-0.3588	
0.121146	-0.331962	1.011624	74.27	-6.37	-7.84	-0.0272	0.2669	-0.3635	
0.1281	-0.298168	0.995032	80.57	-3.92	-7.84	-0.027	0.2499	-0.3653	
0.13786	-0.263764	0.984906	85.89	-3.99	-10.57	-0.0295	0.2343	-0.3748	
0.122244	-0.222284	0.967582	91.21	1.89	-12.18	-0.0379	0.2405	-0.3839	
0.099552	-0.175314	0.950624	98.49	2.73	-15.05	-0.029	0.2185	-0.4015	
0.09089	-0.105774	0.93635	101.71	3.29	-12.81	-0.0303	0.2001	-0.3955	
0.082228	-0.024522	0.911218	102.34	1.33	-12.32	-0.0256	0.172	-0.4083	
0.080642	0.0122	0.891576	102.69	-2.03	-11.34	-0.0365	0.1473	-0.4147	
0.071004	0.05856	0.879742	103.32	-3.01	-12.95	-0.0405	0.1349	-0.4226	
0.074176	0.101382	0.86925	106.26	-2.94	-11.76	-0.0377	0.1379	-0.4257	
0.091134	0.140422	0.845338	109.41	-3.92	-13.58	-0.0373	0.11	-0.4323	
0.070028	0.21716	0.801906	113.12	-0.21	-15.96	-0.0356	0.0898	-0.4357	
0.055144	0.295972	0.7808	112.21	-2.87	-15.47	-0.034	0.0712	-0.4359	
0.07259	0.347456	0.76372	109.48	-4.97	-13.09	-0.0364	0.0495	-0.4486	
0.08295999	0.377346	0.759694	107.24	-0.84	-12.88	-0.0336	0.0402	-0.4426	
0.087108	0.41541	0.745786	105.49	-2.73	-13.65	-0.0375	0.0124	-0.4429	
0.084546	0.450546	0.736148	103.53	-3.85	-16.17	-0.0444	-0.0014	-0.4476	
0.08784	0.484218	0.721996	100.94	-3.85	-15.47	-0.0471	-0.009099999	-0.4461	
0.093086	0.52582	0.707234	97.37	-3.15	-13.93	-0.0426	-0.0415	-0.4435	
0.08845	0.560956	0.702842	93.03	-4.34	-13.86	-0.0509	-0.0538	-0.4451	
0.07564	0.590358	0.70394	90.3	-1.26	-14.21	-0.0451	-0.0694	-0.4438	
0.07991	0.603046	0.696254	86.03	-2.31	-13.37	-0.0437	-0.074	-0.4423	
0.072224	0.62281	0.690642	83.02	-1.47	-14.21	-0.0521	-0.0893	-0.4377	
0.072956	0.649406	0.671122	82.18	-0.28	-15.4	-0.0419	-0.1065	-0.4443	
0.056242	0.70028	0.650504	80.71	0.77	-14.42	-0.0447	-0.1234	-0.4367	
0.049898	0.712968	0.646722	78.05	1.82	-13.16	-0.0362	-0.1281	-0.4354	
0.049776	0.700768	0.63684	76.02	3.43	-13.58	-0.0459	-0.1465	-0.4308	
0.04758	0.696864	0.61854	76.16	3.5	-13.44	-0.039	-0.148	-0.4232	
0.050996	0.719068	0.606706	77.28	3.36	-13.72	-0.0414	-0.1729	-0.4343	
0.040748	0.740052	0.590724	76.3	3.64	-10.92	-0.0457	-0.1804	-0.4235	
0.028548	0.763598	0.565836	75.74	3.78	-9.66	-0.0471	-0.1881	-0.4189	
0.034648	0.783362	0.559858	74.2	4.27	-7.91	-0.0329	-0.2113	-0.4116	
0.023668	0.788608	0.5368	72.8	4.13	-6.79	-0.0272	-0.2084	-0.4148	
0.023668	0.795318	0.52033	71.47	4.2	-7.14	-0.0329	-0.2251	-0.3978	
0.019032	0.81313	0.49471	71.47	3.08	-7.98	-0.0229	-0.2407	-0.3998	
0.008784	0.849486	0.478484	70.7	2.03	-8.12	-0.0245	-0.242	-0.3826	
-0.014152	0.889502	0.46055	68.81	1.68	-8.68	-0.0298	-0.2652	-0.3891	
-0.00427	0.89365	0.453474	62.86	-0.98	-10.85	-0.0256	-0.276	-0.3815	
0.010004	0.87535	0.448594	60.48	-3.08	-12.11	-0.0342	-0.2803	-0.3659	
0.012444	0.889014	0.420412	59.99	-3.92	-12.46	-0.0286	-0.2926	-0.3552	
0.006222	0.918172	0.391132	59.36	-4.76	-13.09	-0.0312	-0.302	-0.3662	
-0.01769	0.943548	0.367342	57.33	-4.41	-13.65	-0.0356	-0.3095	-0.3507	
-0.034282	0.955382	0.353678	55.02	-5.04	-15.33	-0.0343	-0.3125	-0.3414	
-0.035746	0.959042	0.337086	52.36	-5.95	-16.03	-0.0258	-0.3172	-0.3385	
-0.035014	0.953674	0.318054	49.91	-7.28	-16.38	-0.027	-0.3266	-0.3479	
-0.033428	0.947208	0.301462	48.44	-8.75	-17.57	-0.0215	-0.3357	-0.331	
-0.029158	0.951478	0.288286	49.28	-10.36	-17.5	-0.0203	-0.3355	-0.3171	
-0.027938	0.973682	0.276208	50.96	-10.99	-16.24	-0.0258	-0.3448	-0.3233	
-0.034892	0.992348	0.26779	50.19	-8.61	-16.03	-0.0214	-0.3572	-0.322	
-0.037332	0.9943	0.262788	49.35	-6.09	-17.85	-0.0214	-0.3618	-0.3174	
-0.034892	0.978684	0.2562	48.09	-5.11	-18.69	-0.0217	-0.3616	-0.3018	
-0.031354	0.96014	0.243146	47.32	-4.55	-19.95	-0.0145	-0.3756	-0.3021	
-0.040748	0.972828	0.221552	47.11	-4.06	-18.9	-0.0118	-0.3801	-0.2882	
-0.0427	1.004792	0.196542	42.21	-3.29	-15.96	-0.0231	-0.383	-0.2834	
-0.056974	0.991982	0.187636	39.62	-2.8	-14.63	-0.0159	-0.3848	-0.2945	
-0.069174	0.993934	0.188612	37.52	-3.29	-12.32	-0.0134	-0.3937	-0.2666	
-0.057584	0.990518	0.18849	35.35	-3.5	-10.22	-0.0049	-0.3938	-0.2699	
-0.038552	0.991494	0.185684	35.21	-4.83	-12.39	-0.0077	-0.3954	-0.273	
-0.022814	1.001742	0.166774	34.02	-6.23	-11.69	-0.009099999	-0.4061	-0.2653	
-0.034404	1.006378	0.147254	32.13	-4.76	-11.76	-0.002	-0.4062	-0.2639	
-0.047824	1.010038	0.131882	31.08	-3.64	-10.57	-0.0006	-0.4154	-0.2593	
-0.057584	1.013698	0.12566	28.7	-0.21	-10.92	0.0004	-0.4106	-0.2422	
-0.061366	1.004426	0.115412	29.82	1.05	-10.01	-0.0037	-0.409	-0.2437	
-0.0671	0.996984	0.099064	28.28	2.24	-10.22	-0.0009	-0.4213	-0.2345	
-0.078568	0.993446	0.080764	28.77	2.45	-9.52	-0.0064	-0.4228	-0.2407	
-0.078446	1.000278	0.06527	30.03	3.36	-9.45	-0.0037	-0.4228	-0.2361	
-0.081496	1.015772	0.057218	34.23	2.52	-8.26	0.006	-0.4213	-0.23	
-0.089792	1.017236	0.041114	33.74	5.53	-7.91	0.0059	-0.4335	-0.2177	
-0.09467199	0.98332	0.02501	35.14	7.7	-9.8	0.003	-0.4319	-0.213	
-0.113704	0.990518	-0.046482	43.26	8.33	-8.47	0.0087	-0.4366	-0.2131	
-0.14945	1.05896	-0.057462	47.88	7.77	-5.18	0.0044	-0.438	-0.2053	
-0.17446	1.110688	-0.062098	38.78	9.45	-3.22	0.007	-0.4286	-0.199	
-0.16043	1.106662	-0.062342	26.25	8.19	-3.08	0.0141	-0.441	-0.1946	
-0.126514	1.085434	-0.0549	15.68	4.34	-3.08	0.0085	-0.4487	-0.1931	
-0.122488	1.054568	-0.050752	5.74	1.26	-3.29	0.0127	-0.4472	-0.1931	
-0.121634	1.027972	-0.054046	3.08	-2.59	-2.87	0.009699999	-0.4424	-0.1821	
-0.11346	1.019798	-0.0549	2.24	-2.66	-1.26	0.0112	-0.4501	-0.1853	
-0.113338	1.017724	-0.049776	2.73	-0.35	0.42	0.0126	-0.4486	-0.1822	
-0.125294	1.015284	-0.046604	3.08	1.82	2.87	0.021	-0.4425	-0.1838	
-0.126758	1.019066	-0.04453	1.75	2.73	4.48	0.0139	-0.4485	-0.176	
-0.119316	1.006866	-0.043554	-0.42	0.98	3.08	0.0195	-0.444	-0.1792	
-0.112606	0.99857	-0.037942	0.07	-0.07	2.24	0.0142	-0.4487	-0.1931	
-0.11163	1.018212	-0.04636	1.89	-0.14	1.68	0.0195	-0.4394	-0.1822	
-0.110288	1.034438	-0.048312	2.1	1.75	1.89	0.0125	-0.4546	-0.173	
-0.106506	1.026508	-0.046238	1.82	3.22	3.5	0.0084	-0.4393	-0.1883	
-0.101138	1.04249	-0.05734	0.77	3.36	4.48	0.0098	-0.4455	-0.1837	
-0.097234	1.061888	-0.061366	-1.89	2.66	4.27	0.0113	-0.4456	-0.1946	
-0.096014	1.054202	-0.062464	-5.95	2.52	3.57	0.0111	-0.4439	-0.179	
-0.095892	1.028338	-0.056852	-7.98	1.47	3.36	0.0084	-0.447	-0.1868	
-0.105896	1.01992	-0.06344	-6.86	0.14	4.06	0.0113	-0.4518	-0.19	
-0.116022	1.045174	-0.061366	-7.7	-0.35	4.41	0.0126	-0.4424	-0.1853	
-0.104066	1.055056	-0.05063	-9.52	-2.03	4.55	0.0085	-0.4486	-0.1884	
-0.09638	1.034194	-0.044286	-12.6	-1.96	3.85	0.007	-0.4455	-0.1868	
-0.088084	1.02846	-0.039162	-13.02	-1.89	2.66	0.014	-0.4394	-0.1852	
-0.089304	1.0309	-0.042212	-12.67	-2.17	2.24	0.009699999	-0.4409	-0.1852	
-0.09394	1.04249	-0.043432	-14.7	-1.4	3.01	0.0084	-0.4363	-0.1898	
-0.088328	1.047126	-0.03721	-16.8	-1.96	3.5	0.0001	-0.4455	-0.196	
-0.083326	1.042368	-0.02501	-19.18	-1.89	3.92	0.0056	-0.4378	-0.1898	
-0.085278	1.053836	-0.009028	-19.11	0.07	2.8	0.0042	-0.4317	-0.199	
-0.086376	1.055544	-0.004392	-22.26	0.28	2.94	0.0001	-0.4333	-0.2083	
-0.087962	1.027606	0.008784	-26.74	0.49	3.29	0.0143	-0.4382	-0.2132	
-0.09942999	1.036268	0.015616	-28.56	0.14	4.06	0.0016	-0.4334	-0.213	
-0.091744	1.02053	0.017446	-31.57	0.07	3.71	0.0045	-0.4243	-0.2253	
-0.082472	1.015528	0.019398	-31.5	-0.98	3.78	0.0031	-0.4243	-0.2237	
-0.075518	1.03883	0.024156	-32.41	-1.26	3.5	0.0044	-0.4212	-0.2222	
-0.072956	1.06201	0.03294	-34.3	-2.87	4.13	0.0018	-0.4198	-0.2346	
-0.077348	1.06323	0.062098	-39.9	-1.96	4.69	0.0004	-0.4167	-0.236	
-0.090158	1.033096	0.092964	-43.54	-1.54	3.36	0.0047	-0.4152	-0.2423	
-0.080276	0.987956	0.122488	-44.52	-2.03	2.31	-0.0065	-0.4044	-0.2498	
-0.06527	0.952454	0.149206	-41.86	-6.16	0.56	0.009	-0.4123	-0.2501	
-0.060268	0.954162	0.162016	-36.96	-8.12	0.49	-0.0022	-0.3968	-0.2606	
-0.069418	0.977098	0.169092	-32.55	-4.69	0.91	0.0035	-0.4001	-0.267	
-0.081862	0.99735	0.174948	-30.66	-1.68	0.63	-0.0078	-0.3876	-0.2666	
-0.08113	0.9821	0.195078	-31.36	-0.84	-0.49	-0.002	-0.3985	-0.2715	
-0.077714	0.963922	0.201544	-31.85	-2.45	-0.14	0.0023	-0.3941	-0.2855	
-0.078934	0.965142	0.189832	-35.21	-1.61	0.98	-0.0034	-0.3924	-0.2792	
-0.081862	0.968924	0.202154	-34.3	-3.08	3.43	-0.002	-0.3863	-0.2823	
-0.068076	0.985638	0.234362	-35.28	-3.36	5.11	-0.0119	-0.3739	-0.285	
-0.044164	0.989542	0.26596	-40.18	-3.99	7.42	-0.009	-0.374	-0.2913	
-0.039162	0.96624	0.285114	-45.5	-4.55	11.27	-0.0075	-0.3787	-0.2945	
-0.049532	0.95648	0.286578	-48.37	-1.26	14.42	-0.0062	-0.3602	-0.3036	
-0.069174	0.956114	0.304512	-51.24	1.75	14.84	-0.0117	-0.3526	-0.3143	
-0.069906	0.939034	0.320738	-53.9	4.41	12.74	-0.0118	-0.3571	-0.3066	
-0.05429	0.892674	0.367708	-55.16	3.43	11.13	-0.0116	-0.3542	-0.319	
-0.033428	0.863028	0.406504	-52.29	0.98	11.27	-0.0061	-0.3388	-0.3204	
-0.022326	0.865224	0.410774	-48.02	-0.28	12.46	-0.0117	-0.3358	-0.3296	
-0.031598	0.89304	0.399794	-44.73	0.91	13.58	-0.0144	-0.3281	-0.3388	
-0.060512	0.908412	0.390156	-45.08	2.1	12.53	-0.0129	-0.3298	-0.3451	
-0.07625	0.914512	0.394426	-46.62	0.98	11.06	-0.0159	-0.3112	-0.3448	
-0.061976	0.912926	0.408334	-46.34	-0.21	9.45	-0.0158	-0.3174	-0.3496	
-0.04453	0.90951	0.420534	-47.46	-0.56	8.26	-0.0144	-0.3113	-0.3526	
-0.042212	0.921222	0.413214	-52.5	-2.24	9.17	-0.0215	-0.2928	-0.3647	
-0.041602	0.90829	0.426756	-62.79	-1.4	8.19	-0.0217	-0.285	-0.3568	
-0.017568	0.846558	0.46238	-68.32	-0.77	6.79	-0.0186	-0.276	-0.3801	
0.0122	0.82045	0.479948	-66.92	4.41	6.16	-0.0273	-0.2589	-0.3735	
0.09577	0.952942	0.535946	-63.77	14.63	12.25	-0.0185	-0.273	-0.3862	
-0.016592	0.776652	0.563762	-64.89	18.34	21.35	-0.0272	-0.2467	-0.3904	
0.029158	0.823378	0.527162	-50.33	11.9	15.33	-0.0217	-0.239	-0.3858	
0.014396	0.852536	0.494832	-45.85	11.9	12.04	-0.0217	-0.2252	-0.3933	
-0.006222	0.86498	0.496296	-44.66	13.79	7.77	-0.0159	-0.23	-0.4059	
-0.030744	0.859734	0.509594	-46.41	14.21	6.86	-0.0117	-0.2193	-0.4105	
-0.033672	0.81984	0.511424	-50.54	13.65	8.05	-0.0146	-0.21	-0.4104	
-0.026352	0.83143	0.523868	-52.36	10.01	9.03	-0.0102	-0.2148	-0.4183	
-0.026596	0.833138	0.543632	-57.12	7.35	7.77	-0.0119	-0.1992	-0.4134	
-0.036234	0.801662	0.546194	-64.33	7.21	6.37	-0.0133	-0.1839	-0.4209	
-0.03538	0.767136	0.557052	-69.58	8.19	5.25	-0.0161	-0.1793	-0.427	
-0.049044	0.734318	0.576694	-72.38	3.92	1.05	-0.0078	-0.1685	-0.4255	
-0.025986	0.681614	0.63684	-77	-0.42	0.98	-0.0107	-0.1577	-0.4284	
-0.00854	0.683566	0.638914	-79.45	-1.05	3.57	-0.0179	-0.1467	-0.425	
-0.018788	0.668316	0.627202	-87.15	2.03	8.05	-0.0108	-0.1331	-0.439	
-0.051728	0.645136	0.644404	-94.15	3.43	11.2	-0.0209	-0.1128	-0.4323	
-0.059902	0.591456	0.693448	-99.54	1.96	12.39	-0.0139	-0.0975	-0.4431	
-0.012566	0.508008	0.737124	-98.28	-3.99	9.03	-0.0153	-0.0822	-0.4507	
0.042212	0.47214	0.772504	-91.91	-3.78	1.47	-0.008599999	-0.0635	-0.4397	
-0.026596	0.485926	0.76982	-97.02	-4.76	8.05	-0.0127	-0.0606	-0.452	
-0.00732	0.442616	0.762866	-98.91	-5.67	11.55	-0.0143	-0.0374	-0.4563	
0.009272	0.398574	0.792634	-96.81	-3.01	11.48	-0.0147	-0.0233	-0.4421	
0.012932	0.34648	0.844972	-91.91	0.21	10.29	-0.009	-0.0126	-0.4499	
0.050508	0.296704	0.877302	-90.86	-1.75	12.32	-0.0148	0.0013	-0.4465	
0.047702	0.298168	0.869006	-91.07	-4.13	13.79	-0.0122	0.0198	-0.4478	
0.004392	0.311344	0.875228	-92.96	-5.39	15.26	-0.0024	0.0259	-0.4464	
-0.002928	0.284748	0.887306	-93.87	-3.78	15.19	-0.0183	0.0494	-0.438	
0.020984	0.20679	0.906094	-96.53	-4.69	13.02	-0.0172	0.0757	-0.433	
0.036356	0.15372	0.913658	-98.49	-5.74	12.39	-0.0132	0.1004	-0.4359	
0.0305	0.11895	0.915244	-99.05	-6.02	13.09	-0.0176	0.1159	-0.4341	
0.027816	0.090158	0.925126	-98.77	-7.98	14.91	-0.0236	0.127	-0.4198	
0.032086	0.053924	0.935496	-97.16	-8.75	16.31	-0.0207	0.1392	-0.4306	
0.058682	0.007686	0.935374	-96.46	-10.01	17.29	-0.0169	0.1564	-0.4133	
0.056974	-0.029524	0.937082	-91.77	-7.98	16.73	-0.0185	0.1734	-0.4131	
0.039528	-0.043554	0.938058	-87.85	-7.07	13.79	-0.0187	0.1843	-0.4052	
0.054412	-0.07442	0.948916	-85.96	-7.7	14.07	-0.016	0.189	-0.3989	
0.058194	-0.10675	0.976488	-79.94	-6.44	10.43	-0.0249	0.2109	-0.3876	
0.072224	-0.126148	0.998692	-77.35	-8.26	10.08	-0.0138	0.2125	-0.3785	
0.078446	-0.152622	1.020164	-72.17	-5.81	7.56	-0.0223	0.2249	-0.3828	
0.085766	-0.181048	1.0248	-66.57	-3.22	5.67	-0.0239	0.2343	-0.3718	
0.09942999	-0.218868	1.028094	-63	-3.36	4.55	-0.0129	0.2436	-0.3641	
0.088572	-0.235582	1.022482	-58.38	-1.26	6.3	-0.0173	0.256	-0.3623	
0.08601	-0.23912	1.017236	-52.29	-0.84	5.6	-0.0271	0.2592	-0.3636	
0.05368	-0.228018	0.982466	-47.74	5.04	4.2	-0.0274	0.2671	-0.3527	
0.070394	-0.247538	0.967826	-45.64	6.09	3.71	-0.0133	0.27	-0.3528	
0.06161	-0.24888	0.960994	-44.17	5.39	3.22	-0.015	0.2779	-0.3418	
0.043676	-0.260592	0.952454	-44.24	4.41	3.08	-0.0108	0.281	-0.3372	
0.043798	-0.28792	0.949038	-42.98	5.46	1.68	-0.0194	0.292	-0.3338	
0.042578	-0.31598	0.941108	-42.49	4.9	0.42	-0.0167	0.292	-0.3307	
0.040626	-0.324154	0.94123	-40.95	4.41	1.33	-0.0169	0.3029	-0.3259	
0.057462	-0.322446	0.933422	-40.67	3.43	2.1	-0.007	0.3059	-0.326	
0.059536	-0.338306	0.934642	-40.18	5.67	0.21	-0.0172	0.3078	-0.3072	
0.061976	-0.366366	0.930616	-40.95	4.69	0.77	-0.0158	0.3185	-0.3149	
0.0549	-0.378566	0.926834	-40.67	6.86	1.26	-0.0129	0.3169	-0.3165	
0.03721	-0.402966	0.91073	-39.69	6.16	-0.56	-0.0076	0.3216	-0.301	
0.013908	-0.417362	0.906094	-37.45	9.03	-1.12	-0.0075	0.3278	-0.3055	
0.00305	-0.429562	0.916342	-35.35	6.09	-0.77	-0.009	0.3386	-0.3085	
0.005124	-0.447618	0.918782	-34.16	5.18	-0.28	-0.0121	0.3404	-0.2929	
0.010248	-0.45567	0.926834	-31.15	2.8	-0.77	-0.0121	0.3404	-0.2913	
0.027938	-0.454816	0.927444	-27.58	0.63	-2.24	-0.0052	0.3465	-0.2867	
0.027572	-0.456158	0.923784	-25.48	1.05	-2.66	-0.0111	0.3606	-0.2802	
0.030866	-0.459086	0.917562	-23.94	-0.07	-2.8	-0.0124	0.3575	-0.2849	
0.027938	-0.468968	0.91439	-21.42	0	-2.66	-0.009699999	0.3545	-0.2756	
0.024644	-0.474946	0.91378	-19.6	-0.7	-2.87	-0.0013	0.3652	-0.2787	
0.026962	-0.481046	0.915	-17.08	-1.05	-3.29	-0.0026	0.359	-0.2788	
0.033794	-0.480192	0.919148	-14.63	-1.54	-3.36	-0.0112	0.353	-0.2678	
0.032452	-0.487878	0.920978	-13.51	-1.61	-2.52	-0.0084	0.3653	-0.2724	
0.030622	-0.503372	0.924516	-11.41	-2.1	-2.17	-0.0071	0.3654	-0.2662	
0.03904	-0.517524	0.924272	-9.17	-2.03	-1.68	-0.0055	0.3545	-0.271	
0.045018	-0.523136	0.926712	-6.02	-1.89	-0.84	-0.0072	0.37	-0.2646	
0.052216	-0.533994	0.925858	-3.57	-2.03	-0.14	-0.0057	0.3638	-0.2662	
0.048312	-0.543876	0.928054	-1.33	-1.12	0.98	-0.0113	0.3608	-0.2662	
0.043676	-0.552416	0.923418	0.7	-2.24	2.87	-0.0044	0.3747	-0.2614	
0.043188	-0.56303	0.915366	4.48	-0.98	2.45	-0.0055	0.3622	-0.274	
0.03599	-0.561688	0.90707	8.19	-0.98	2.38	-0.0098	0.3638	-0.2693	
0.043554	-0.58194	0.924272	13.79	-2.66	2.8	-0.0071	0.3639	-0.2647	
0.030256	-0.580964	0.920734	19.32	-4.97	2.8	-0.0098	0.3607	-0.2693	
0.04453	-0.561444	0.926712	23.8	-7.14	3.78	-0.0111	0.3576	-0.2724	
0.06649	-0.54107	0.939766	28.7	-7.07	4.2	-0.0112	0.3592	-0.2678	
0.068076	-0.513376	0.956846	31.15	-6.79	5.46	-0.0096	0.3513	-0.2803	
0.061	-0.501298	0.957334	32.41	-8.12	5.95	-0.0067	0.3513	-0.2819	
0.061976	-0.488854	0.96746	33.39	-8.89	6.72	-0.0122	0.342	-0.2835	
0.063196	-0.489098	0.978684	34.72	-8.33	6.51	-0.0051	0.3465	-0.2913	
0.056486	-0.487268	0.97661	38.22	-6.44	6.58	-0.0134	0.3326	-0.2961	
0.059292	-0.47641	0.980026	41.44	-6.37	6.79	-0.0163	0.3435	-0.2959	
0.071614	-0.47336	0.986614	46.27	-4.48	6.02	-0.0104	0.3325	-0.3039	
0.061366	-0.458842	0.992226	53.06	2.38	5.46	-0.0217	0.3433	-0.3098	
0.044652	-0.434686	0.980026	57.4	0.35	3.15	-0.0004	0.3153	-0.3058	
0.065148	-0.403942	0.963678	60.69	0	1.68	-0.0043	0.3182	-0.3259	
0.062708	-0.366366	0.943426	64.75	0.14	-0.7	-0.0072	0.3075	-0.3182	
0.037576	-0.320372	0.936838	68.6	-0.49	-4.27	-0.0068	0.2919	-0.3324	
0.039772	-0.30805	0.937814	69.44	-1.54	-6.09	-0.0135	0.2825	-0.3465	
0.03233	-0.294874	0.939156	71.68	-3.15	-8.05	-0.0119	0.2761	-0.3559	
0.033062	-0.260104	0.929396	74.62	-4.9	-9.59	-0.0033	0.2621	-0.3609	
0.031964	-0.222528	0.93086	77.14	-5.88	-10.85	-0.0102	0.2436	-0.3579	
0.025254	-0.184464	0.93635	79.24	-7	-11.06	-0.0127	0.2434	-0.375	
0.042822	-0.149816	0.945012	80.22	-9.1	-11.2	-0.0151	0.2216	-0.3876	
0.059658	-0.126636	0.954772	80.64	-8.61	-11.2	-0.0221	0.2171	-0.3892	
0.065758	-0.108214	0.960384	83.09	-5.53	-11.2	-0.0163	0.2076	-0.3956	
0.069052	-0.07808	0.949404	85.96	-3.36	-12.04	-0.0274	0.1938	-0.3971	
0.080764	-0.043798	0.9394	87.71	-3.22	-11.06	-0.0199	0.1719	-0.4115	
0.081374	-0.011712	0.936228	89.04	-2.94	-8.75	-0.0227	0.1642	-0.41	
0.083204	0.018056	0.927444	91.84	-2.1	-7.42	-0.0266	0.1472	-0.4164	
0.076982	0.060878	0.897798	94.08	-1.61	-8.05	-0.0307	0.1425	-0.4257	
0.076006	0.110654	0.874862	97.23	-2.24	-7.98	-0.0291	0.1316	-0.4259	
0.080642	0.165432	0.84729	99.68	-0.56	-10.15	-0.0205	0.1129	-0.4294	
0.060634	0.246318	0.808372	98.07	-0.49	-10.71	-0.023	0.0867	-0.4266	
0.055876	0.28304	0.814228	95.97	-0.35	-11.41	-0.0285	0.079	-0.4313	
0.056242	0.311954	0.822646	94.5	-0.35	-12.74	-0.0226	0.0603	-0.4363	
0.056852	0.34221	0.807762	92.75	-1.47	-13.65	-0.031	0.0603	-0.4424	
0.051362	0.379908	0.786046	91.56	-0.56	-14.28	-0.0309	0.0357	-0.4333	
0.024278	0.412482	0.765794	90.02	1.26	-13.02	-0.0335	0.0186	-0.4366	
0.023912	0.453596	0.76311	89.74	0.49	-10.99	-0.0263	0.0016	-0.4354	
0.02074	0.510814	0.746152	88.55	1.12	-9.45	-0.0329	-0.0155	-0.4511	
0.018666	0.535458	0.739564	85.26	1.54	-7.91	-0.0259	-0.0278	-0.4405	
0.0366	0.547658	0.714798	82.74	0.91	-6.93	-0.0229	-0.0433	-0.4407	
0.028182	0.577914	0.69601	80.43	1.89	-6.3	-0.0241	-0.0572	-0.444	
0.01525	0.607438	0.688202	77.56	1.47	-5.25	-0.0212	-0.0727	-0.4411	
0.016226	0.629642	0.67344	74.06	1.82	-4.76	-0.028	-0.08199999	-0.452	
0.00671	0.644038	0.660142	69.51	2.17	-3.92	-0.0337	-0.0865	-0.4427	
0.009393999	0.66978	0.661728	66.29	0.77	-3.57	-0.0267	-0.0942	-0.4367	
0.005856	0.711382	0.651602	60.62	-1.47	-3.78	-0.0278	-0.1189	-0.437	
0.00122	0.723582	0.651236	57.33	-4.48	-4.55	-0.0277	-0.1298	-0.4387	
0.02318	0.72956	0.66185	54.74	-6.3	-6.3	-0.0249	-0.1283	-0.4371	
0.03843	0.742858	0.660142	52.85	-6.44	-6.79	-0.0262	-0.1513	-0.4296	
0.054046	0.747738	0.65819	52.43	-6.65	-9.24	-0.0318	-0.1574	-0.4281	
0.064294	0.752984	0.646234	51.52	-6.72	-9.73	-0.0248	-0.1697	-0.4143	
0.069418	0.758474	0.640012	51.03	-5.95	-10.71	-0.0346	-0.1681	-0.4204	
0.073444	0.765062	0.63867	50.4	-4.41	-10.08	-0.029	-0.182	-0.4098	
0.071736	0.776042	0.629764	50.33	-3.01	-10.08	-0.0275	-0.1928	-0.4084	
0.064782	0.792146	0.620248	49.77	-1.12	-10.64	-0.0302	-0.2021	-0.4116	
0.038064	0.803004	0.599752	47.95	0.35	-10.85	-0.0244	-0.2038	-0.421	
0.03355	0.800442	0.587552	46.2	0.77	-9.38	-0.0262	-0.205	-0.3915	
0.041724	0.786412	0.584746	44.59	0.28	-9.52	-0.0301	-0.2144	-0.4071	
0.03477	0.788608	0.57767	43.68	1.12	-9.66	-0.0273	-0.2298	-0.398	
0.026352	0.800076	0.56486	44.1	0.35	-9.59	-0.0218	-0.2251	-0.3887	
0.020496	0.81252	0.555222	44.31	0.63	-7.84	-0.0201	-0.2361	-0.3997	
0.020374	0.810202	0.539606	45.01	2.66	-6.65	-0.0272	-0.2421	-0.3904	
0.023668	0.829112	0.522526	46.13	2.31	-5.81	-0.0243	-0.2545	-0.3937	
0.025742	0.860466	0.502518	45.99	1.33	-4.06	-0.0243	-0.2544	-0.389	
0.015738	0.881206	0.480436	43.75	1.12	-2.87	-0.0229	-0.2729	-0.38	
0.012688	0.880718	0.474458	42	1.05	-3.29	-0.0186	-0.2699	-0.3815	
0.02257	0.883646	0.469822	41.51	0.91	-3.78	-0.0158	-0.276	-0.3754	
0.028792	0.895724	0.4636	40.81	1.12	-4.62	-0.0215	-0.279	-0.3723	
0.0244	0.9028	0.44713	38.78	1.82	-5.04	-0.0187	-0.2867	-0.3662	
0.020496	0.90219	0.424682	37.31	3.57	-5.53	-0.0228	-0.2913	-0.3693	
0.008905999	0.91744	0.412116	36.54	4.48	-5.67	-0.0229	-0.2944	-0.3647	
-0.002684	0.92903	0.3965	34.44	4.69	-5.67	-0.0173	-0.3082	-0.3525	
-0.0061	0.934398	0.389302	32.13	3.22	-5.04	-0.0201	-0.3035	-0.3509	
-0.014518	0.939644	0.391986	30.45	2.66	-5.81	-0.0144	-0.3128	-0.3511	
-0.018666	0.93269	0.392474	29.82	2.52	-6.65	-0.0202	-0.3187	-0.3339	
-0.007929999	0.912682	0.393694	29.47	1.96	-7.98	-0.0103	-0.3174	-0.3419	
-0.002562	0.89914	0.391986	29.75	1.19	-10.08	-0.0216	-0.3234	-0.3371	
-0.008417999	0.89365	0.390278	30.94	-1.4	-10.29	-0.0131	-0.325	-0.3373	
-0.024156	0.892186	0.384666	31.71	-1.61	-10.5	-0.0144	-0.3312	-0.3373	
-0.028182	0.894138	0.376248	33.74	-2.31	-10.57	-0.0076	-0.3342	-0.3219	
-0.035258	0.898042	0.366244	35.98	-3.29	-11.76	-0.0118	-0.3372	-0.3219	
-0.033306	0.906948	0.35014	39.2	-3.78	-12.95	-0.009099999	-0.3402	-0.308	
-0.031598	0.921466	0.332938	43.05	-3.92	-13.51	-0.0103	-0.3603	-0.3098	
-0.04453	0.95221	0.317444	45.22	-3.78	-12.81	-0.0032	-0.3604	-0.3114	
-0.051362	0.970876	0.302194	45.5	-3.15	-13.16	-0.0076	-0.3664	-0.3006	
-0.049532	0.948306	0.292678	44.59	-2.66	-14.98	-0.0061	-0.371	-0.2975	
-0.0244	0.933788	0.272182	47.04	-2.66	-15.61	0.002	-0.3617	-0.2929	
-0.035258	0.96441	0.2379	50.96	-2.73	-14.7	0.0022	-0.3741	-0.2946	
-0.073566	1.008452	0.204838	52.71	0	-14.49	0.0007	-0.3833	-0.2838	
-0.106628	1.027118	0.176534	52.92	2.17	-14.7	-0.0006	-0.394	-0.2746	
-0.112606	1.025166	0.154086	51.87	2.1	-14.35	0.0089	-0.4	-0.2546	
-0.119194	1.028216	0.132248	48.79	3.22	-13.86	0.0033	-0.3999	-0.2561	
-0.131028	1.03883	0.110654	42.28	1.05	-15.68	0.0118	-0.4016	-0.2578	
-0.119072	1.023336	0.1098	36.26	0.28	-15.33	0.0201	-0.4062	-0.2471	
-0.108214	0.993202	0.103212	32.06	-1.4	-13.93	0.0075	-0.4153	-0.2439	
-0.087962	0.974902	0.093818	29.33	-2.38	-11.34	0.0172	-0.4138	-0.2363	
-0.08418	0.978318	0.086742	28.56	-3.15	-8.19	0.0142	-0.4136	-0.2238	
-0.087352	0.999668	0.077714	28.98	-1.82	-5.25	0.0116	-0.4137	-0.2331	
-0.089426	1.013332	0.07137	28.77	-0.35	-3.99	0.0172	-0.4291	-0.224	
-0.074908	1.0004	0.062464	27.09	2.94	-3.57	0.0186	-0.4275	-0.2225	
-0.06832	0.978562	0.040992	27.37	4.76	-3.64	0.0129	-0.432	-0.2162	
-0.0793	0.995154	0.010248	29.61	4.9	-2.59	0.0156	-0.4319	-0.2085	
-0.097722	1.056886	-0.005856	30.66	4.27	-0.35	0.0227	-0.4274	-0.2117	
-0.10248	1.076894	-0.010614	25.69	6.3	1.33	0.027	-0.4398	-0.2088	
-0.127246	1.070184	-0.021716	21.49	8.05	1.26	0.0225	-0.435	-0.1962	
-0.122122	1.0736	-0.042334	17.43	5.95	2.17	0.0227	-0.4351	-0.2071	
-0.097966	1.072868	-0.047336	12.88	5.25	-0.07	0.017	-0.4396	-0.2024	
-0.068198	1.076406	-0.038552	10.36	2.17	-2.1	0.024	-0.4319	-0.2009	
-0.09333	1.045662	-0.027206	4.97	4.55	-1.61	0.0226	-0.4396	-0.1994	
-0.09747799	1.011136	-0.027938	4.76	4.83	0.56	0.031	-0.4335	-0.1994	
-0.09638	0.995886	-0.0366	3.99	5.81	1.12	0.0266	-0.4364	-0.187	
-0.089914	1.006866	-0.037454	5.25	3.71	1.05	0.0183	-0.441	-0.19	
-0.088816	1.015406	-0.02806	4.62	2.59	0.91	0.0267	-0.4365	-0.1901	
-0.094916	1.013698	-0.028792	4.83	-0.28	1.4	0.017	-0.4441	-0.1947	
-0.100284	1.020774	-0.038918	2.94	-0.91	2.52	0.0296	-0.4442	-0.1902	
-0.102236	1.026752	-0.051484	1.61	-0.07	0.42	0.0225	-0.4457	-0.187	
-0.107726	1.044442	-0.050142	3.08	-0.42	-2.24	0.0254	-0.4442	-0.1948	
-0.109922	1.063352	-0.050874	2.17	-0.21	-2.94	0.0238	-0.438	-0.1885	
-0.107848	1.047248	-0.0427	-1.12	0.35	-2.73	0.0282	-0.4443	-0.1949	
-0.10858	1.008818	-0.046604	-2.59	0	-3.22	0.0183	-0.4441	-0.1885	
-0.10858	1.012722	-0.054168	-1.33	-1.12	-3.64	0.0142	-0.4487	-0.1931	
-0.11346	1.042612	-0.058194	-1.75	-0.84	-2.45	0.0267	-0.438	-0.1917	
-0.124806	1.065182	-0.053924	-4.13	-0.42	-1.12	0.0197	-0.4318	-0.1961	
-0.11102	1.05957	-0.034648	-9.66	-1.47	-1.82	0.0253	-0.435	-0.1947	
-0.115168	1.031998	-0.030256	-13.3	-1.12	-1.82	0.0308	-0.4395	-0.184	
-0.111996	1.020896	-0.020496	-13.51	-1.19	-1.82	0.0295	-0.4381	-0.1917	
-0.108458	1.018578	-0.01769	-13.58	-0.98	-1.75	0.0395	-0.4383	-0.1996	
-0.103578	1.03944	-0.010126	-13.16	-1.68	-2.1	0.0241	-0.4412	-0.2025	
-0.115168	1.044808	-0.0061	-14.91	-1.19	-1.54	0.0183	-0.4395	-0.1962	
-0.135054	1.037732	-0.003904	-16.52	-1.26	-0.14	0.0271	-0.4353	-0.2196	
-0.140788	1.019066	-0.000122	-19.32	-0.14	0.63	0.0227	-0.4336	-0.2102	
-0.129198	1.012478	0.005734	-19.67	-0.7	0	0.0143	-0.432	-0.2131	
-0.124684	1.01077	0.009516	-20.16	-1.61	-0.42	0.0256	-0.4398	-0.2103	
-0.119072	1.022726	0.023302	-21.07	-2.94	0.35	0.0299	-0.4323	-0.2212	
-0.117974	1.020408	0.02745	-23.73	-2.38	1.4	0.0242	-0.4276	-0.2241	
-0.116876	1.00955	0.037576	-24.99	-1.89	2.03	0.0257	-0.4277	-0.2273	
-0.117364	1.001986	0.046726	-25.83	-3.71	1.82	0.0298	-0.4138	-0.2256	
-0.114436	1.014796	0.053192	-26.11	-3.15	3.78	0.0271	-0.42	-0.2318	
-0.10858	1.021872	0.063318	-27.16	-2.66	5.11	0.0229	-0.4261	-0.2288	
-0.112118	1.01626	0.080154	-30.38	-3.22	5.81	0.0188	-0.4169	-0.241	
-0.107482	0.994056	0.0854	-33.25	-3.92	5.53	0.0328	-0.4156	-0.2428	
-0.09857599	1.000888	0.095404	-32.27	-4.69	5.18	0.0159	-0.4031	-0.2486	
-0.09857599	1.010404	0.10309	-31.36	-2.87	4.69	0.016	-0.4063	-0.2548	
-0.105164	1.014796	0.11468	-31.29	-2.31	6.3	0.0174	-0.4047	-0.2548	
-0.099796	1.014308	0.135176	-33.53	-1.33	8.26	0.0231	-0.4017	-0.258	
-0.09552599	1.004792	0.159454	-36.4	-1.12	8.54	0.0104	-0.3924	-0.2639	
-0.088084	0.978928	0.177022	-38.15	0.28	7.28	0.0062	-0.3832	-0.2761	
-0.090646	0.955016	0.185562	-37.45	0.21	5.74	0.0092	-0.3972	-0.2764	
-0.08662	0.956724	0.19703	-34.37	-1.61	5.04	0.0161	-0.3849	-0.2779	
-0.092964	0.990884	0.211426	-33.88	-2.1	7.07	0.0161	-0.3757	-0.284	
-0.099186	1.003572	0.22265	-34.16	-1.61	7.56	0.0092	-0.3926	-0.2825	
-0.090646	1.003938	0.242658	-37.03	-0.98	7.56	0.0093	-0.3789	-0.2948	
-0.08295999	0.9882	0.267058	-39.97	-0.98	6.58	0.0162	-0.3712	-0.2948	
-0.067588	0.952088	0.292678	-42.84	-2.1	5.81	0.0038	-0.3697	-0.3101	
-0.05978	0.910852	0.3111	-41.79	-2.52	3.78	0.0092	-0.3619	-0.2977	
-0.058926	0.928176	0.3355	-35.42	-4.34	3.5	0.0166	-0.3608	-0.3242	
-0.056852	0.945988	0.342332	-37.17	-3.85	3.71	0.0008	-0.3634	-0.3038	
-0.058072	0.914146	0.344528	-41.51	-4.41	4.2	0.0107	-0.3513	-0.3162	
-0.06344	0.906826	0.35624	-38.64	-7.42	3.78	0.0038	-0.3468	-0.3285	
-0.055022	0.921832	0.360876	-36.82	-7.98	2.24	-0.0019	-0.342	-0.3221	
-0.044652	0.91256	0.366	-33.53	-7.7	0.56	0.0038	-0.336	-0.333	
-0.049532	0.922686	0.374906	-30.73	-6.86	-0.7	0.0051	-0.3359	-0.3268	
-0.066368	0.93025	0.377956	-30.87	-4.76	-1.4	0.0022	-0.3251	-0.3313	
-0.071492	0.92415	0.379664	-31.08	-4.27	-1.89	0.0038	-0.3269	-0.3438	
-0.063074	0.90463	0.38003	-32.41	-4.55	-2.59	-0.009	-0.3096	-0.3371	
-0.057828	0.896944	0.390644	-32.48	-4.41	-2.31	-0.0003	-0.3268	-0.3406	
-0.073444	0.901458	0.412238	-32.27	-4.41	-0.42	-0.0018	-0.3083	-0.3481	
-0.079544	0.902922	0.425536	-32.06	-3.43	1.54	0.0066	-0.3054	-0.356	
-0.062342	0.88572	0.43188	-33.25	-3.99	2.8	-0.0017	-0.3023	-0.3636	
-0.050508	0.86925	0.438468	-32.2	-5.46	4.06	-0.0073	-0.2976	-0.365	
-0.05612	0.867054	0.444812	-30.24	-4.55	4.76	-0.0088	-0.2868	-0.3664	
-0.064416	0.880596	0.442982	-28.28	-3.15	5.67	-0.0033	-0.2853	-0.3618	
-0.068564	0.897066	0.445178	-28.49	-1.61	6.65	-0.0017	-0.287	-0.3743	
-0.066368	0.90158	0.438468	-31.71	-0.56	7.42	-0.0018	-0.2792	-0.3726	
-0.06893	0.898408	0.43432	-35.42	-1.26	7.7	-0.0088	-0.2684	-0.3786	
-0.066856	0.897554	0.429318	-41.93	-4.06	9.03	-0.0061	-0.2637	-0.3739	
-0.061244	0.890844	0.429928	-50.33	-5.74	9.31	-0.0075	-0.2653	-0.377	
-0.049044	0.885598	0.447618	-56.42	-5.6	10.85	-0.0103	-0.2469	-0.3907	
-0.046482	0.887916	0.46909	-63.28	-4.97	10.99	-0.0117	-0.2438	-0.3953	
-0.053436	0.873764	0.467504	-66.71	-4.69	10.57	-0.0146	-0.236	-0.392	
-0.048922	0.891332	0.477508	-67.41	-3.85	9.31	-0.0133	-0.2222	-0.395	
-0.049532	0.889746	0.489586	-73.64	-2.03	5.6	-0.0133	-0.2206	-0.395	
-0.044164	0.834602	0.513498	-76.09	-3.22	2.17	-0.0175	-0.2083	-0.4041	
-0.044774	0.791536	0.524356	-79.66	-1.26	2.8	-0.016	-0.2023	-0.4165	
-0.02745	0.769942	0.519842	-84.63	-6.37	6.93	-0.0261	-0.1821	-0.4145	
-0.025742	0.759572	0.50935	-89.46	-6.58	10.99	-0.0161	-0.17	-0.43	
-0.04514	0.716506	0.560102	-97.86	-7.56	15.61	-0.022	-0.1483	-0.4281	
-0.03233	0.658678	0.642696	-104.51	-6.23	18.55	-0.0221	-0.1298	-0.4356	
-0.01647	0.597434	0.68381	-109.9	-10.92	18.83	-0.025	-0.1205	-0.4339	
0.013054	0.6039	0.697352	-112.77	-15.96	19.18	-0.0309	-0.0973	-0.4382	
0.034038	0.592432	0.673928	-119.28	-11.27	19.11	-0.0309	-0.0834	-0.4427	
0.01281	0.536312	0.68564	-117.74	-7.35	20.58	-0.0226	-0.0696	-0.4442	
0.012078	0.462136	0.70394	-114.8	-4.41	21.35	-0.0412	-0.0462	-0.4405	
0.047946	0.411994	0.74969	-112.21	-4.13	19.88	-0.0257	-0.0433	-0.4438	
0.04392	0.402722	0.806908	-113.68	-1.05	23.31	-0.0344	-0.0092	-0.4479	
0.015372	0.31415	0.81984	-113.4	-0.35	27.58	-0.0444	0.0093	-0.4506	
0.03843	0.29829	0.823988	-107.94	-1.12	24.99	-0.0265	0.0309	-0.4428	
0.049044	0.25315	0.82533	-107.03	0.14	21.91	-0.0407	0.0418	-0.4424	
0.03965	0.211304	0.853146	-102.41	-1.47	20.86	-0.0367	0.0604	-0.4392	
0.022082	0.192394	0.854	-104.51	-4.97	19.53	-0.0313	0.079	-0.4343	
0.016958	0.165676	0.87291	-107.03	-9.8	20.86	-0.0329	0.0914	-0.4326	
0.021594	0.149206	0.90036	-108.22	-15.89	21.91	-0.0261	0.1099	-0.4294	
0.07198	0.060146	0.926224	-105.28	-14.35	16.73	-0.0421	0.1489	-0.4177	
0.10675	0.001342	0.944768	-103.67	-13.65	17.08	-0.0493	0.1568	-0.4113	
0.133224	-0.04392	0.94977	-101.29	-14.14	14.63	-0.0497	0.1709	-0.3986	
0.1403	-0.075762	0.946476	-99.33	-8.12	14.28	-0.0415	0.194	-0.3954	
0.118584	-0.110654	0.941352	-94.36	-7.28	12.04	-0.0346	0.2017	-0.3923	
0.107604	-0.146278	0.939156	-89.74	-5.11	11.27	-0.0377	0.2204	-0.3842	
0.124318	-0.179828	0.96441	-85.33	-3.85	9.38	-0.0408	0.2314	-0.37	
0.124928	-0.206668	0.968558	-82.95	-0.91	8.12	-0.0411	0.2485	-0.3651	
0.11468	-0.244732	0.975634	-79.8	-0.98	6.51	-0.0368	0.2484	-0.3683	
0.117974	-0.272914	0.979172	-76.58	-1.33	6.72	-0.0344	0.261	-0.3511	
0.109068	-0.285724	0.99308	-72.17	-2.38	6.16	-0.0415	0.278	-0.3538	
0.118706	-0.304756	0.997838	-69.79	-1.47	6.23	-0.0388	0.2827	-0.3538	
0.128954	-0.317566	0.99125	-66.22	-2.03	5.11	-0.0349	0.2937	-0.3351	
0.135542	-0.340868	0.989176	-62.72	2.24	1.33	-0.0379	0.2954	-0.3257	
0.124562	-0.372588	0.971242	-59.22	2.17	-0.7	-0.0407	0.303	-0.3333	
0.09162199	-0.390888	0.943182	-51.17	7.07	-5.88	-0.0339	0.3093	-0.3225	
0.072956	-0.422974	0.939034	-50.19	7.21	-5.6	-0.0328	0.3249	-0.3129	
0.05917	-0.442494	0.940498	-46.97	5.18	-5.25	-0.0426	0.3189	-0.3082	
0.081862	-0.459452	0.952942	-45.01	1.82	-3.5	-0.0399	0.3281	-0.3066	
0.101748	-0.478484	0.947452	-42.84	1.82	-2.38	-0.0344	0.3312	-0.3004	
0.102602	-0.489098	0.94245	-40.81	2.94	-0.35	-0.0347	0.3284	-0.2818	
0.108946	-0.504348	0.937082	-38.5	2.8	0.7	-0.0305	0.3422	-0.2848	
0.105652	-0.506178	0.924272	-35.21	1.61	1.61	-0.0376	0.3454	-0.2862	
0.092964	-0.514352	0.91073	-33.32	2.1	2.17	-0.0362	0.3546	-0.2876	
0.085156	-0.533628	0.909144	-31.15	0.84	2.73	-0.0334	0.3515	-0.2846	
0.081496	-0.553636	0.896822	-28.56	-0.63	2.66	-0.0323	0.3533	-0.2691	
0.077104	-0.565592	0.894016	-25.9	-3.5	3.43	-0.0423	0.3658	-0.2672	
0.072346	-0.565226	0.886818	-21.14	-6.3	2.66	-0.0366	0.358	-0.2658	
0.07991	-0.556564	0.895236	-16.52	-7.98	1.82	-0.0323	0.3656	-0.2751	
0.089548	-0.56364	0.915976	-14.56	-10.29	3.64	-0.0352	0.3564	-0.2659	
0.109312	-0.582794	0.937814	-9.24	-11.34	2.59	-0.0353	0.3642	-0.2611	
0.127246	-0.588162	0.961482	-2.8	-13.86	2.8	-0.0354	0.3566	-0.2534	
0.154574	-0.569496	0.96685	2.59	-15.12	2.94	-0.0367	0.3627	-0.2611	
0.161284	-0.580964	0.993812	7.98	-11.27	-0.42	-0.0395	0.3612	-0.2626	
0.152134	-0.593408	0.992714	10.57	-9.94	-1.26	-0.0409	0.3658	-0.2641	
0.152622	-0.60024	0.992592	13.44	-9.03	0.98	-0.0353	0.3611	-0.2611	
0.153842	-0.602314	0.997594	17.5	-8.47	2.66	-0.0578	0.3675	-0.2669	
0.137494	-0.58804	1.002962	21.91	-7.7	4.55	-0.0464	0.3627	-0.2718	
0.141398	-0.590724	1.000888	25.34	-7.28	5.74	-0.0423	0.3612	-0.2657	
0.153598	-0.593774	0.997106	31.22	-6.09	4.9	-0.0519	0.3503	-0.275	
0.145546	-0.582672	0.989176	37.24	-4.69	3.15	-0.0463	0.3533	-0.275	
0.145668	-0.57828	0.99247	41.09	-6.44	3.71	-0.0434	0.3578	-0.2844	
0.151402	-0.587308	0.987468	48.02	-6.86	2.66	-0.0474	0.3424	-0.2861	
0.15006	-0.568154	0.974658	57.61	-5.95	0.42	-0.0417	0.3346	-0.2862	
0.155916	-0.53924	0.959896	67.55	-1.19	-2.17	-0.0455	0.3266	-0.3065	
0.148352	-0.501298	0.958066	74.06	-0.49	-6.58	-0.0441	0.3236	-0.3035	
0.137128	-0.459696	0.96929	79.45	-0.49	-5.74	-0.0395	0.3063	-0.3177	
0.149206	-0.446886	0.967094	83.3	-1.33	-8.26	-0.0519	0.2986	-0.3316	
0.140056	-0.42334	0.9577	87.99	-0.35	-8.47	-0.0516	0.2891	-0.3458	
0.1464	-0.38979	0.956114	93.31	2.1	-10.64	-0.0584	0.2721	-0.3521	
0.143472	-0.360754	0.951112	97.51	3.71	-9.66	-0.0497	0.2625	-0.3648	
0.133956	-0.320128	0.93147	102.76	4.69	-9.73	-0.0552	0.2456	-0.3618	
0.130296	-0.273036	0.921222	105.63	4.27	-9.24	-0.0508	0.2424	-0.3681	
0.114192	-0.23912	0.921954	108.29	3.15	-8.05	-0.0435	0.2268	-0.3747	
0.118218	-0.210084	0.919392	112.28	0.63	-7.49	-0.0474	0.2097	-0.3842	
0.119926	-0.1464	0.890356	118.44	1.54	-7.7	-0.0499	0.1941	-0.3983	
0.115778	-0.089304	0.85827	121.59	2.45	-7.56	-0.0537	0.1661	-0.408	
0.1098	-0.04026	0.830942	124.11	4.06	-7.21	-0.0493	0.1614	-0.4143	
0.11895	0.012444	0.84058	126.28	5.32	-6.93	-0.0504	0.1381	-0.4193	
0.115412	0.061732	0.824232	127.12	6.3	-8.4	-0.053	0.1211	-0.4257	
0.109068	0.120292	0.796172	128.66	9.38	-9.31	-0.047	0.1008	-0.4322	
0.076006	0.170556	0.748836	131.32	11.2	-10.57	-0.0382	0.0682	-0.4359	
0.060024	0.22997	0.703208	132.93	9.52	-9.45	-0.0381	0.0619	-0.4422	
0.074786	0.373686	0.688812	131.88	3.92	-6.44	-0.0378	0.031	-0.4395	
0.0549	0.451644	0.658434	127.33	2.31	-7.56	-0.0515	-0.0074	-0.4382	
0.058316	0.490684	0.65209	121.17	1.33	-9.1	-0.0484	-0.0291	-0.4432	
0.074786	0.532652	0.638182	116.69	-0.63	-11.2	-0.0483	-0.0445	-0.4403	
0.086986	0.56913	0.640988	112.07	-1.61	-12.74	-0.0467	-0.0707	-0.4329	
0.116144	0.603168	0.641964	108.43	-2.17	-13.09	-0.0467	-0.0707	-0.4329	
0.11041	0.644404	0.623908	103.88	0.98	-12.46	-0.0507	-0.0878	-0.4362	
0.104066	0.669658	0.61061	99.89	3.5	-11.06	-0.0464	-0.0925	-0.4394	
0.103944	0.695644	0.585478	96.6	4.69	-9.38	-0.0349	-0.1296	-0.4261	
0.10065	0.723826	0.568032	93.1	6.16	-7.42	-0.0432	-0.1388	-0.4292	
0.101504	0.751154	0.565592	90.44	7.98	-6.37	-0.0377	-0.1541	-0.4124	
0.076616	0.794952	0.529724	88.06	10.78	-5.46	-0.0377	-0.1541	-0.4124	
0.053558	0.83509	0.494222	83.51	11.97	-4.48	-0.0345	-0.1835	-0.4159	
0.042212	0.851438	0.478362	78.05	11.48	-5.18	-0.0345	-0.1835	-0.4159	
0.04453	0.865468	0.470798	73.22	9.8	-5.88	-0.0303	-0.2081	-0.3992	
0.069418	0.85888	0.501054	64.33	7.21	-7.14	-0.0302	-0.2219	-0.3916	
0.083204	0.848022	0.493612	61.39	5.95	-6.72	-0.0344	-0.2266	-0.3963	
0.060756	0.862174	0.46299	59.5	7.21	-5.95	-0.03	-0.2405	-0.395	
0.050386	0.873642	0.435418	57.33	8.33	-4.62	-0.0285	-0.2575	-0.3906	
0.04636	0.88572	0.419802	56.35	8.54	-1.89	-0.0216	-0.2636	-0.3767	
0.039284	0.899018	0.41236	55.02	8.75	0.35	-0.013	-0.2638	-0.3862	
0.035258	0.914024	0.405528	52.01	8.33	2.17	-0.0327	-0.2728	-0.3782	
0.014152	0.933178	0.39101	47.74	6.93	2.38	-0.0214	-0.2806	-0.3785	
0.020984	0.932934	0.390278	44.24	6.16	1.82	-0.0229	-0.279	-0.3723	
0.020252	0.946964	0.374662	40.6	3.78	3.43	-0.0173	-0.2913	-0.3601	
0.033428	0.936716	0.368074	35.98	2.24	5.11	-0.0202	-0.3019	-0.3508	
0.03172	0.941474	0.370514	32.9	1.05	8.26	-0.0145	-0.3021	-0.3556	
0.015616	0.964288	0.351482	31.22	0.49	9.1	-0.0187	-0.3081	-0.3509	
-0.011468	0.987834	0.333914	30.17	0.07	8.05	-0.0158	-0.3098	-0.3541	
-0.015738	1.00345	0.317688	28.42	-1.05	6.37	-0.0228	-0.3128	-0.354	
-0.004026	1.00833	0.297802	27.09	-2.8	1.05	-0.0256	-0.3189	-0.3494	
0.001098	1.006378	0.27877	25.62	-2.8	-2.66	-0.0241	-0.3236	-0.3526	
-0.0061	1.013576	0.266326	25.13	-3.01	-5.6	-0.0257	-0.3264	-0.3371	
-0.016958	1.009916	0.261568	23.38	-3.64	-8.89	-0.0215	-0.3311	-0.3341	
-0.00183	0.993934	0.271084	21.91	-6.72	-11.97	-0.0148	-0.3186	-0.3216	
0.031476	0.981612	0.291946	23.59	-8.12	-16.1	-0.0231	-0.3263	-0.3262	
0.044896	0.969534	0.285358	23.87	-8.61	-19.18	-0.0173	-0.3373	-0.3311	
0.046604	0.968558	0.273768	24.78	-9.03	-20.86	-0.0186	-0.3281	-0.3403	
0.030622	0.964044	0.269498	25.2	-7.84	-22.96	-0.0188	-0.3448	-0.3188	
0.01769	0.975146	0.258762	26.95	-7.56	-23.03	-0.0202	-0.3433	-0.3218	
0.019032	0.986492	0.273646	31.85	-8.05	-22.33	-0.0201	-0.3464	-0.3219	
0.033306	0.987346	0.279746	31.36	-7.07	-20.93	-0.0116	-0.3588	-0.3175	
0.01891	0.981612	0.273768	32.48	-6.02	-20.44	-0.0133	-0.3524	-0.3034	
0.013176	0.989298	0.269742	30.66	-4.62	-19.6	-0.0159	-0.3649	-0.3113	
0.001098	0.985638	0.264496	27.3	-4.55	-18.97	-0.0076	-0.3571	-0.3036	
-0.012078	0.964288	0.273768	25.34	-7.28	-18.76	-0.0075	-0.3694	-0.299	
-0.000244	0.93635	0.279014	27.09	-8.05	-15.75	-0.0104	-0.3771	-0.2944	
0.005978	0.943182	0.268034	30.1	-7.42	-15.61	-0.0047	-0.3787	-0.2961	
-0.00488	0.972218	0.25498	31.99	-7.21	-15.33	-0.0018	-0.3772	-0.2992	
-0.020984	0.99186	0.254492	29.75	-6.02	-14.7	-0.0033	-0.3848	-0.2869	
-0.027938	0.982466	0.260104	27.09	-6.02	-13.93	-0.0006	-0.3802	-0.2869	
-0.026474	0.968802	0.2562	25.13	-7.91	-13.44	0.0005	-0.3831	-0.2714	
-0.014762	0.95343	0.246196	26.39	-7.63	-14.7	-0.0077	-0.3892	-0.2713	
-0.012688	0.957578	0.22814	27.72	-7.56	-13.51	0.0006	-0.3862	-0.2714	
-0.031842	0.981246	0.21228	28	-6.37	-12.46	0.0035	-0.394	-0.2716	
-0.040016	0.999058	0.203496	26.95	-5.32	-11.41	0.0062	-0.3924	-0.2654	
-0.038918	0.98149	0.204594	25.62	-4.9	-12.04	-0.0006	-0.4047	-0.2701	
-0.036722	0.959286	0.192882	26.6	-4.9	-13.09	0.0075	-0.403	-0.2484	
-0.040382	0.969534	0.174338	29.96	-5.18	-13.58	0.0078	-0.4171	-0.261	
-0.053314	0.996496	0.150182	32.41	-3.71	-13.93	0.0032	-0.4029	-0.2437	
-0.063806	1.017114	0.13237	33.11	-0.98	-13.02	0.0088	-0.4122	-0.2392	
-0.078934	1.01809	0.12871	30.73	1.19	-10.64	0.0059	-0.4151	-0.2299	
-0.083326	1.008208	0.095648	27.37	1.47	-11.13	0.0114	-0.409	-0.2283	
-0.10553	1.01687	0.06954	26.39	0.21	-10.36	0.0285	-0.4277	-0.2258	
-0.144082	1.070794	0.054778	25.9	0	-8.96	0.0116	-0.4259	-0.2255	
-0.137738	1.072502	0.056852	18.06	1.96	-8.19	0.0145	-0.4276	-0.2302	
-0.12078	1.02602	0.058438	12.95	1.33	-8.89	0.02	-0.4275	-0.2209	
-0.121634	1.005524	0.046116	13.09	-1.54	-10.22	0.0185	-0.4366	-0.2086	
-0.130052	1.010038	0.034404	12.67	-3.08	-10.15	0.0158	-0.429	-0.2225	
-0.124684	1.01077	0.035258	11.2	-2.31	-9.87	0.017	-0.4289	-0.2085	
-0.102358	0.989542	0.045384	11.13	-2.73	-8.19	0.0227	-0.4244	-0.2194	
-0.10858	0.993324	0.044896	13.72	-1.75	-8.68	0.0199	-0.4397	-0.2071	
-0.119072	0.998448	0.02867	13.79	-0.63	-8.05	0.0256	-0.4352	-0.2118	
-0.120902	1.019798	0.012322	14.07	-0.42	-6.86	0.0227	-0.4366	-0.2071	
-0.127368	1.039196	0.005124	10.08	0.91	-3.99	0.0298	-0.4321	-0.2118	
-0.130174	1.028704	0.00976	3.99	2.94	-1.47	0.0227	-0.4397	-0.2025	
-0.127978	1.009794	0.019764	1.19	2.52	0.63	0.0282	-0.4289	-0.204	
-0.098332	1.001986	0.034526	0.42	0.63	5.04	0.0284	-0.4368	-0.2119	
-0.078568	1.014308	0.03843	-1.26	1.61	8.4	0.0297	-0.429	-0.2071	
-0.086498	1.035658	0.02806	-3.57	4.9	10.5	0.0253	-0.4211	-0.2007	
-0.104066	1.05042	0.008174	-6.37	7.56	12.95	0.0254	-0.4366	-0.1994	
-0.11712	1.055788	0.005734	-10.08	9.73	12.67	0.0297	-0.4351	-0.2041	
-0.10614	1.035902	0.011224	-11.2	11.34	11.41	0.024	-0.4305	-0.2055	
-0.086986	1.014674	0.007929999	-9.59	12.39	11.2	0.0198	-0.4411	-0.1994	
-0.088938	1.022482	0.002196	-8.75	13.93	11.41	0.0186	-0.4367	-0.2133	
-0.106872	1.034682	-0.001586	-8.89	14.28	11.9	0.0171	-0.4335	-0.2101	
-0.109068	1.043954	-0.006832	-9.73	13.16	12.88	0.0257	-0.4368	-0.2181	
-0.102724	1.05347	-0.008174	-11.48	12.11	12.95	0.0227	-0.4289	-0.2101	
-0.098942	1.053714	-0.00976	-15.19	9.87	12.32	0.0158	-0.4321	-0.2178	
-0.098454	1.054202	-0.004148	-18.83	6.79	11.62	0.0185	-0.4198	-0.2224	
-0.083814	1.040904	-0.002318	-21.63	3.85	11.13	0.0228	-0.426	-0.2241	
-0.079666	1.035292	-0.00427	-22.4	3.15	10.43	0.0228	-0.4322	-0.2211	
-0.08113	1.04432	-0.005002	-23.17	1.33	11.69	0.013	-0.4198	-0.2316	
-0.084058	1.09495	-0.00061	-24.78	0.77	14.49	0.0131	-0.423	-0.2332	
-0.077714	1.113006	0.009638	-30.8	-2.45	14.84	0.0061	-0.4245	-0.2378	
-0.06161	1.090192	0.024034	-37.52	-1.82	13.86	0.0061	-0.4184	-0.2424	
-0.051972	1.05286	0.043798	-40.88	-1.12	11.27	0.0102	-0.4122	-0.2393	
-0.056364	1.024068	0.06588	-40.6	-1.26	7.77	0.0102	-0.406	-0.2423	
-0.056364	1.000888	0.081984	-39.13	-1.96	5.32	0.0005	-0.4122	-0.25	
-0.056486	0.994422	0.099186	-36.47	-0.98	4.55	0.0006	-0.4046	-0.2608	
-0.066246	1.000522	0.103456	-33.74	-1.19	5.32	0.0049	-0.4047	-0.2655	
-0.070394	1.009672	0.123952	-31.71	-0.14	4.55	0.0061	-0.3893	-0.2653	
-0.062098	1.036024	0.165188	-34.37	1.4	7.14	0.005	-0.4002	-0.2732	
-0.067222	0.970144	0.197274	-43.68	3.22	7.28	-0.0062	-0.397	-0.2746	
-0.046116	0.921588	0.220332	-43.75	-2.66	3.36	0.0007	-0.3894	-0.2777	
-0.023912	0.920734	0.230946	-40.53	-4.97	0.7	-0.0021	-0.3755	-0.2821	
-0.026718	0.952332	0.230214	-37.24	-9.24	1.89	-0.002	-0.3694	-0.2914	
-0.01769	1.011624	0.232166	-33.95	-10.92	3.78	-0.0075	-0.3741	-0.2976	
0.006222	1.031632	0.264496	-39.83	-7.35	3.92	0.0007	-0.371	-0.293	
-0.028304	0.963312	0.303048	-45.08	-3.29	0.77	-0.0019	-0.3527	-0.3114	
-0.019642	0.9394	0.30012	-44.1	-2.59	-3.85	-0.0021	-0.3449	-0.3066	
-0.029158	0.923906	0.30439	-42.98	-2.66	-6.16	-0.0019	-0.3496	-0.3129	
-0.036234	0.900116	0.328302	-41.3	-4.2	-4.69	-0.0102	-0.3543	-0.3237	
-0.038796	0.87047	0.366122	-39.76	-4.83	-2.03	-0.0076	-0.3388	-0.3173	
-0.01769	0.83204	0.414312	-36.4	-6.09	-1.33	-0.0062	-0.3373	-0.3204	
0.013298	0.81618	0.44164	-30.8	-7	-0.28	0.0035	-0.3235	-0.3266	
0.014518	0.837408	0.44957	-25.2	-6.93	1.54	-0.0076	-0.3112	-0.3387	
-0.00366	0.85095	0.447862	-20.72	-5.18	2.52	-0.0104	-0.3188	-0.3326	
-0.017568	0.841922	0.459696	-15.19	-3.36	3.36	-0.013	-0.3251	-0.3419	
-0.014152	0.832284	0.474214	-8.26	-2.24	2.94	-0.0032	-0.3267	-0.3405	
-0.003538	0.851316	0.467992	-1.75	-2.59	2.52	-0.0118	-0.3142	-0.3387	
-0.00549	0.879254	0.452864	-0.42	-1.61	3.08	-0.0033	-0.3174	-0.3373	
-0.01281	0.900604	0.446398	-1.61	-0.84	4.2	-0.016	-0.3219	-0.3341	
-0.023302	0.913536	0.443348	-1.89	0	4.06	-0.0118	-0.3142	-0.3371	
-0.012932	0.914878	0.44164	-2.94	-0.91	1.96	-0.0117	-0.3235	-0.3341	
-0.00976	0.91988	0.434442	-4.48	-1.68	1.26	-0.0215	-0.3234	-0.3402	
-0.001586	0.938424	0.435052	-6.44	-2.17	0.84	-0.0016	-0.3223	-0.3514	
0	0.932324	0.432978	-9.52	-2.24	0.42	-0.0132	-0.3173	-0.3372	
0.004758	0.921832	0.436272	-10.5	-2.52	-1.33	-0.0231	-0.3125	-0.3369	
0.009028	0.919148	0.445666	-11.62	-2.52	-2.52	-0.0115	-0.3252	-0.3466	
0.003782	0.909144	0.451522	-13.86	-1.47	-3.64	-0.0173	-0.3189	-0.3418	
-0.003782	0.877668	0.456036	-14.56	-0.07	-3.78	-0.0117	-0.3143	-0.3434	
0.002318	0.865346	0.457866	-12.18	-0.63	-3.85	-0.0131	-0.3143	-0.3433	
0.002684	0.85949	0.46238	-10.15	0.21	-2.8	-0.0117	-0.3066	-0.3479	
0.00549	0.863272	0.463234	-8.26	0.21	-1.26	-0.0144	-0.3083	-0.3572	
-0.000976	0.868518	0.462136	-6.37	2.24	1.26	-0.0089	-0.3128	-0.3418	
-0.00488	0.871568	0.456158	-4.83	3.08	2.8	-0.0102	-0.3068	-0.3573	
-0.00427	0.883646	0.446764	-3.36	3.22	3.29	-0.0158	-0.3067	-0.3587	
-0.005368	0.895602	0.444812	-2.66	4.41	4.62	-0.016	-0.2989	-0.3509	
-0.00976	0.897432	0.444202	-2.73	4.97	5.11	-0.0061	-0.3052	-0.348	
-0.010614	0.904264	0.436394	-1.82	4.41	4.48	-0.0117	-0.3036	-0.3541	
-0.01281	0.90585	0.43493	-1.89	3.01	3.78	-0.0103	-0.3067	-0.3495	
-0.013054	0.907558	0.434076	-1.89	1.89	2.87	-0.0131	-0.299	-0.3556	
-0.010492	0.912804	0.433344	-1.75	1.12	2.24	-0.013	-0.3006	-0.3572	
-0.007198	0.917318	0.434076	-1.75	0.63	1.4	-0.0046	-0.3083	-0.3543	
-0.00732	0.91561	0.433222	-2.59	0.63	0.63	-0.0116	-0.3036	-0.3557	
-0.010248	0.912682	0.430172	-3.15	0.35	0.21	-0.0157	-0.3114	-0.3604	
-0.008174	0.908046	0.434442	-3.36	-0.07	-0.35	-0.0147	-0.2927	-0.3477	
-0.005246	0.904508	0.441762	-3.5	-0.49	-1.33	-0.0201	-0.3066	-0.3525	
-0.001342	0.899018	0.443592	-3.29	-0.56	-1.96	-0.0187	-0.305	-0.3509	
0.006588	0.88816	0.447008	-2.94	-0.63	-1.68	-0.0129	-0.3007	-0.3665	
0.001708	0.893162	0.44896	-2.73	-0.63	-0.42	-0.006	-0.2975	-0.3572	
0.003904	0.893894	0.450546	-2.52	-0.07	-0.84	-0.006	-0.2915	-0.3649	
0.005124	0.893528	0.44713	-2.03	-0.49	-1.19	-0.0074	-0.2991	-0.3588	
0.000366	0.893894	0.447496	-2.03	-0.7	-1.12	-0.0116	-0.2944	-0.3618	
-0.011834	0.897798	0.45323	-1.47	-0.28	-0.7	-0.0145	-0.3005	-0.3525	
-0.015738	0.886818	0.448716	-1.19	0.98	-1.47	-0.006	-0.3113	-0.3481	
-0.024766	0.888526	0.447984	-0.49	0.56	-1.19	-0.0059	-0.3038	-0.3604	
-0.030866	0.895114	0.44652	-0.28	0.28	-0.84	-0.0061	-0.3006	-0.3526	
-0.033916	0.893894	0.448228	-0.07	-0.21	0.07	-0.0144	-0.3052	-0.3587	
-0.027572	0.894626	0.447984	0.07	-0.63	0.56	-0.0088	-0.2976	-0.3634	
-0.033184	0.89609	0.448228	-0.28	-0.7	0.98	-0.0017	-0.2977	-0.3635	
-0.033306	0.898896	0.448838	-0.42	-0.77	0.56	-0.0145	-0.299	-0.3571	
-0.03111	0.896456	0.447984	-0.42	-0.84	0.35	-0.0046	-0.3006	-0.3542	
-0.02989	0.894748	0.447618	-0.56	-1.33	0.14	-0.0089	-0.296	-0.3572	
-0.031354	0.895846	0.449326	-0.63	-1.54	0.14	-0.0116	-0.3129	-0.3511	
-0.028548	0.898408	0.451766	-0.77	-1.89	0.28	-0.0088	-0.3037	-0.3588	
-0.013786	0.896334	0.449204	-0.49	-2.31	0.21	-0.003	-0.3039	-0.3651	
-0.007076	0.900238	0.450058	-0.77	-2.45	-0.07	-0.0089	-0.299	-0.3556	
-0.000732	0.904386	0.455548	-1.33	-2.1	-0.49	-0.0101	-0.3007	-0.365	
0.016104	0.898774	0.45811	-1.68	-1.75	-1.26	-0.0101	-0.3022	-0.365	
0.027206	0.90219	0.457622	-2.45	-1.47	-0.98	-0.0031	-0.2976	-0.3619	
0.036478	0.913414	0.456036	-3.85	-1.82	-1.19	-0.0157	-0.3098	-0.3588	
0.041724	0.918782	0.457744	-4.34	-1.05	-1.96	-0.0075	-0.2898	-0.3571	
0.057218	0.920978	0.4636	-5.32	-0.56	-2.8	-0.0159	-0.3005	-0.3571	
0.067222	0.921832	0.462258	-5.81	1.19	-4.76	-0.0102	-0.2976	-0.3618	
0.079544	0.909388	0.465674	-6.16	2.94	-7.07	-0.0117	-0.299	-0.3556	
0.084912	0.903044	0.473116	-6.16	3.92	-8.89	-0.0073	-0.3007	-0.3619	
0.075274	0.904508	0.472018	-7.77	6.02	-10.22	-0.0143	-0.3022	-0.3649	
0.057218	0.8967	0.47397	-8.61	8.12	-11.83	-0.0046	-0.2991	-0.3604	
0.03782	0.890234	0.476166	-7.42	10.43	-13.72	-0.0103	-0.2898	-0.3617	
0.023546	0.89121	0.473238	-6.37	12.11	-14.91	0.0051	-0.2915	-0.362	
0.00671	0.905606	0.46421	-4.9	13.37	-16.31	0.0024	-0.2916	-0.3666	
-0.005978	0.920124	0.461526	-5.04	14.56	-18.34	0.0038	-0.2946	-0.3636	
-0.013908	0.921222	0.461892	-5.74	15.54	-20.93	0.0067	-0.2948	-0.3698	
-0.028548	0.917318	0.463234	-7.07	15.89	-23.94	0.0206	-0.2825	-0.3683	
-0.033794	0.914756	0.464088	-7.7	16.24	-27.3	0.0165	-0.2841	-0.373	
-0.051606	0.898774	0.46604	-9.38	17.01	-31.78	0.0234	-0.2856	-0.3638	
-0.059902	0.89426	0.46726	-9.94	16.87	-34.44	0.0263	-0.2888	-0.3701	
-0.068198	0.888282	0.475068	-9.45	16.94	-37.31	0.0333	-0.2873	-0.3655	
-0.080886	0.878888	0.48251	-9.1	17.29	-40.04	0.0332	-0.2749	-0.3684	
-0.10675	0.870714	0.48739	-7.35	17.36	-42.7	0.0432	-0.2767	-0.378	
-0.12078	0.869738	0.49044	-5.74	18.48	-44.73	0.0488	-0.2813	-0.3688	
-0.146766	0.869616	0.486292	-5.04	21.35	-47.11	0.053	-0.2752	-0.3703	
-0.171776	0.86925	0.484706	-5.67	20.09	-49.28	0.0656	-0.2692	-0.3735	
-0.187514	0.859002	0.487268	-5.53	21.7	-52.15	0.0628	-0.266	-0.3719	
-0.194102	0.853878	0.483608	-6.51	22.96	-52.01	0.0669	-0.266	-0.3689	
-0.214964	0.828014	0.481534	-8.4	24.01	-52.85	0.0841	-0.2726	-0.3801	
-0.241194	0.839604	0.474092	-10.64	22.26	-51.52	0.0922	-0.2601	-0.3661	
-0.23668	0.842654	0.469822	-13.65	22.82	-50.05	0.1035	-0.2602	-0.3678	
-0.246196	0.825452	0.46787	-16.03	23.1	-50.75	0.1077	-0.2557	-0.374	
-0.264496	0.828624	0.46726	-16.38	27.51	-49.91	0.109	-0.2495	-0.3678	
-0.31232	0.807884	0.477752	-17.71	32.69	-48.72	0.1302	-0.2452	-0.3774	
-0.325618	0.782142	0.476532	-17.78	29.96	-51.87	0.13	-0.2404	-0.3664	
-0.333304	0.7625	0.46604	-17.92	28.91	-49.84	0.1412	-0.2298	-0.3696	
-0.37576	0.737734	0.456402	-17.92	45.36	-47.46	0.1484	-0.2392	-0.3729	
-0.410896	0.736026	0.429562	-17.08	26.95	-51.17	0.1596	-0.2347	-0.373	
-0.44957	0.728584	0.422364	-15.19	27.72	-51.52	0.1608	-0.2222	-0.3682	
-0.498126	0.738954	0.458354	-17.64	24.85	-47.53	0.1776	-0.2039	-0.3698	
-0.580354	0.743468	0.455182	-13.93	22.33	-44.45	0.1707	-0.2086	-0.3775	
-0.578158	0.738344	0.460184	-13.79	20.58	-43.33	0.1845	-0.2024	-0.3668	
-0.530212	0.707844	0.461282	-16.66	17.5	-43.96	0.193	-0.1979	-0.3715	
-0.53314	0.66063	0.46421	-19.46	15.61	-41.86	0.1901	-0.1901	-0.3698	
-0.541436	0.628422	0.44957	-16.03	17.71	-42.14	0.1874	-0.1978	-0.3699	
-0.571814	0.637572	0.431636	-12.46	19.6	-38.92	0.2069	-0.1841	-0.3716	
-0.604876	0.663802	0.429318	-10.92	21.28	-34.23	0.2028	-0.1887	-0.3716	
-0.631228	0.670146	0.446276	-13.44	23.52	-31.64	0.2168	-0.1812	-0.3733	
-0.65575	0.669658	0.45811	-16.17	21.63	-29.61	0.211	-0.1764	-0.3684	
-0.625128	0.628056	0.462746	-22.75	19.6	-28.07	0.2207	-0.1733	-0.3592	
-0.59963	0.60146	0.47702	-23.8	18.9	-27.37	0.2292	-0.1673	-0.3671	
-0.622322	0.567422	0.477874	-22.47	19.88	-28.63	0.2291	-0.158	-0.3638	
-0.648796	0.5673	0.473238	-19.53	21.56	-25.62	0.2262	-0.1456	-0.3636	
-0.652578	0.5917	0.484462	-19.32	22.75	-24.43	0.2362	-0.1536	-0.3732	
-0.649894	0.571692	0.49227	-21.07	24.57	-23.59	0.2318	-0.1442	-0.3668	
-0.654774	0.542778	0.480314	-20.58	23.45	-24.15	0.2402	-0.1396	-0.3653	
-0.650992	0.535702	0.48983	-18.41	22.12	-23.24	0.2485	-0.1349	-0.3576	
-0.6832	0.53375	0.48373	-16.45	21.49	-22.54	0.2486	-0.1335	-0.3654	
-0.699548	0.526064	0.485682	-15.75	20.51	-19.18	0.2512	-0.1318	-0.3545	
-0.712724	0.526552	0.479948	-14.63	19.74	-16.38	0.261	-0.1181	-0.356	
-0.720898	0.517768	0.484096	-14.28	18.83	-13.58	0.2554	-0.1211	-0.3576	
-0.739076	0.51606	0.489464	-14.28	16.94	-9.66	0.2665	-0.1165	-0.353	
-0.748836	0.495442	0.496296	-13.93	15.61	-6.79	0.2678	-0.1103	-0.3483	
-0.77043	0.490074	0.493978	-11.55	12.81	-4.62	0.2622	-0.1087	-0.3482	
-0.77104	0.48739	0.494954	-11.2	11.2	-1.68	0.2607	-0.1025	-0.3481	
-0.756156	0.502518	0.47458	-7.21	9.24	2.24	0.272	-0.1057	-0.3483	
-0.7503	0.504836	0.461404	-4.97	8.33	4.97	0.2734	-0.098	-0.3513	
-0.748836	0.512888	0.460916	-3.5	7.77	6.58	0.2635	-0.1102	-0.3451	
-0.757742	0.510204	0.464088	-3.43	6.02	7.7	0.2706	-0.1119	-0.3483	
-0.762134	0.501786	0.460062	-2.31	3.43	7.35	0.2749	-0.1119	-0.3484	
-0.750056	0.50447	0.452498	-1.47	2.52	8.05	0.2819	-0.1151	-0.3486	
-0.736026	0.514962	0.450302	-0.63	2.73	8.61	0.2747	-0.1042	-0.3452	
-0.745298	0.520574	0.447496	0.28	1.12	8.33	0.2734	-0.1103	-0.3453	
-0.764086	0.525576	0.438712	-0.14	-1.47	8.4	0.2777	-0.1073	-0.35	
-0.77287	0.519354	0.44408	-1.54	-4.48	9.24	0.2735	-0.1058	-0.3576	
-0.78629	0.50325	0.451888	-1.19	-7.42	10.92	0.2735	-0.1074	-0.3546	
-0.770918	0.500932	0.463478	0.63	-9.31	11.06	0.2708	-0.1074	-0.3592	
-0.768478	0.507398	0.470554	2.03	-10.64	13.02	0.2748	-0.1103	-0.3437	
-0.762256	0.50325	0.476166	4.41	-13.23	15.54	0.2664	-0.1103	-0.3467	
-0.764818	0.507276	0.471286	5.81	-15.19	17.92	0.2709	-0.1228	-0.3594	
-0.748592	0.532774	0.471286	4.27	-17.29	24.71	0.2638	-0.1227	-0.353	
-0.72102	0.498736	0.47092	1.19	-16.45	29.12	0.2609	-0.1211	-0.3499	
-0.704306	0.512278	0.493612	4.41	-16.8	32.06	0.2568	-0.1257	-0.3561	
-0.693326	0.50874	0.50264	5.74	-18.55	35.63	0.257	-0.1412	-0.3594	
-0.68564	0.51362	0.498126	9.8	-20.72	36.96	0.2541	-0.1335	-0.3577	
-0.671488	0.538264	0.484706	13.72	-22.96	40.39	0.2429	-0.138	-0.3576	
-0.652944	0.572912	0.480314	14.28	-23.66	43.4	0.2444	-0.1443	-0.3639	
-0.629032	0.587796	0.485438	16.45	-24.36	45.85	0.2515	-0.1536	-0.3595	
-0.607804	0.605242	0.482022	16.66	-24.85	47.25	0.2318	-0.1472	-0.3622	
-0.598532	0.631472	0.485316	14.21	-29.4	50.54	0.2291	-0.158	-0.3623	
-0.585234	0.633546	0.493612	12.88	-28.63	52.29	0.2237	-0.1735	-0.3686	
-0.565592	0.636596	0.489952	14.49	-28.42	52.71	0.2152	-0.1703	-0.3669	
-0.545828	0.651968	0.48861	17.43	-26.18	52.92	0.2041	-0.1749	-0.3761	
-0.519964	0.665876	0.48434	16.24	-26.95	53.97	0.1984	-0.1794	-0.3714	
-0.489708	0.682224	0.491782	14.77	-27.02	55.93	0.1902	-0.1994	-0.37	
-0.47031	0.700158	0.486658	15.4	-27.65	57.33	0.1888	-0.2025	-0.3715	
-0.425414	0.713944	0.475678	17.15	-28	57.12	0.1734	-0.2146	-0.3637	
-0.384788	0.741394	0.47336	18.06	-28.49	56.77	0.1679	-0.2132	-0.3776	
-0.36905	0.774578	0.47519	18.48	-29.33	55.93	0.1537	-0.2206	-0.365	
-0.345748	0.775798	0.47641	17.22	-29.61	56.14	0.1553	-0.2314	-0.3667	
-0.325618	0.783362	0.472262	19.25	-31.43	55.02	0.1468	-0.2206	-0.3758	
-0.29707	0.817156	0.478728	14.49	-35.35	61.04	0.1373	-0.2469	-0.3791	
-0.247294	0.821792	0.473726	13.93	-33.11	56.63	0.1272	-0.2389	-0.3695	
-0.251076	0.825818	0.482266	10.15	-32.69	53.34	0.1134	-0.2436	-0.3833	
-0.22997	0.818742	0.490806	11.97	-33.32	49.91	0.1105	-0.2496	-0.3725	
-0.213256	0.820572	0.486536	16.31	-28	46.2	0.1062	-0.2449	-0.3723	
-0.184342	0.836432	0.4819	17.78	-29.68	46.62	0.0936	-0.2602	-0.3692	
-0.12993	0.849486	0.481534	19.18	-29.96	45.85	0.0923	-0.2633	-0.3755	
-0.10248	0.86376	0.482022	15.89	-29.26	44.73	0.0822	-0.2599	-0.3597	
-0.090036	0.857416	0.474702	15.4	-26.74	42.91	0.07669999	-0.2645	-0.3643	
-0.081374	0.86437	0.469334	16.45	-24.85	42.35	0.0628	-0.2722	-0.3704	
-0.064538	0.878888	0.462624	15.61	-25.34	42.35	0.0599	-0.2752	-0.3658	
-0.041114	0.884866	0.46238	12.53	-24.85	41.93	0.0557	-0.2736	-0.3641	
-0.05063	0.888038	0.45933	11.27	-23.94	38.85	0.0489	-0.2814	-0.3734	
-0.056974	0.89853	0.459818	10.85	-22.82	37.17	0.032	-0.2858	-0.3717	
-0.057584	0.896456	0.45018	8.68	-22.4	35.56	0.0332	-0.2826	-0.3608	
-0.04819	0.88572	0.44957	8.19	-23.94	35	0.0305	-0.2826	-0.3685	
-0.023546	0.889502	0.449326	7.98	-24.36	35.49	0.0205	-0.2824	-0.3606	
-0.01037	0.883036	0.44957	7	-24.15	34.86	0.015	-0.2917	-0.3653	
-0.01037	0.890966	0.434076	5.46	-24.99	34.09	0.0121	-0.2916	-0.3574	
-0.005612	0.897676	0.424926	3.57	-25.13	33.32	0.0009	-0.2961	-0.3589	
-0.007564	0.927078	0.42578	0.7	-25.48	35.14	-0.0047	-0.2883	-0.3587	
-0.004026	0.887306	0.431636	-2.73	-26.04	35.98	-0.0103	-0.2959	-0.3571	
0.043432	0.871202	0.439322	-3.71	-29.4	36.26	-0.0187	-0.2974	-0.3586	
0.079788	0.851316	0.452498	-3.29	-31.43	36.47	-0.0213	-0.3006	-0.3679	
0.096502	0.860588	0.454206	-2.52	-31.08	36.05	-0.0329	-0.291	-0.3567	
0.105774	0.866444	0.448228	-2.24	-29.96	35.98	-0.0343	-0.2849	-0.3597	
0.109922	0.861564	0.444568	-1.05	-28.98	35.28	-0.0568	-0.2938	-0.3548	
0.147498	0.85461	0.457988	4.13	-33.81	35.49	-0.0623	-0.2863	-0.3702	
0.180682	0.871568	0.466528	7.49	-33.32	33.46	-0.0668	-0.2798	-0.3545	
0.189588	0.871568	0.450546	5.18	-35.7	32.55	-0.0737	-0.2876	-0.3622	
0.196542	0.853878	0.451888	6.09	-36.26	29.61	-0.0751	-0.2921	-0.356	
0.223626	0.849486	0.431636	8.33	-32.41	29.19	-0.0935	-0.2887	-0.3495	
0.226432	0.85949	0.423584	11.06	-29.33	29.26	-0.08769999	-0.2966	-0.3575	
0.223748	0.868518	0.415166	11.06	-26.88	30.1	-0.0992	-0.2887	-0.351	
0.221918	0.862418	0.399428	8.68	-26.46	31.92	-0.116	-0.2885	-0.3538	
0.218258	0.854854	0.396012	6.86	-27.44	34.65	-0.1149	-0.2883	-0.3352	
0.245098	0.859856	0.398818	5.74	-30.94	37.59	-0.1177	-0.2898	-0.3367	
0.278038	0.87474	0.388814	4.34	-34.72	38.22	-0.1232	-0.2837	-0.3458	
0.310368	0.88267	0.380396	1.75	-37.52	39.62	-0.1415	-0.2912	-0.3425	
0.307318	0.886208	0.371978	-3.5	-36.61	40.11	-0.1527	-0.288	-0.347	
0.299632	0.8418	0.366976	-9.87	-36.96	41.51	-0.1516	-0.2847	-0.3267	
0.348188	0.817644	0.347334	-13.58	-40.25	44.45	-0.16	-0.277	-0.3358	
0.396988	0.829478	0.396988	-9.59	-47.95	50.26	-0.1714	-0.2814	-0.3279	
0.422608	0.802516	0.41846	-4.9	-49.21	48.58	-0.1855	-0.269	-0.3369	
0.448228	0.787266	0.402966	-0.42	-46.97	45.43	-0.1841	-0.2735	-0.3276	
0.464454	0.815814	0.383446	0.84	-40.25	43.54	-0.2055	-0.2685	-0.3163	
0.463966	0.825452	0.395036	1.47	-34.65	43.4	-0.2124	-0.2654	-0.324	
0.488	0.833382	0.395646	2.24	-35.84	50.19	-0.2154	-0.2576	-0.3176	
0.48922	0.81862	0.369538	-0.35	-28.14	43.82	-0.2225	-0.2528	-0.3174	
0.47397	0.820084	0.360754	0.42	-23.17	35.42	-0.2367	-0.2495	-0.3125	
0.471774	0.824232	0.344528	-1.19	-22.96	30.24	-0.2325	-0.2541	-0.3048	
0.51545	0.803492	0.36295	-0.84	-23.45	27.72	-0.2453	-0.2447	-0.3061	
0.543876	0.777384	0.356972	-0.14	-25.76	25.9	-0.241	-0.2463	-0.3062	
0.56608	0.766526	0.340258	2.03	-26.53	25.27	-0.2509	-0.2339	-0.3136	
0.577182	0.769698	0.311954	2.17	-27.23	23.94	-0.2539	-0.2399	-0.3012	
0.578646	0.793122	0.310002	2.31	-26.6	23.52	-0.2581	-0.2383	-0.3011	
0.593042	0.784338	0.320006	1.89	-26.39	23.73	-0.2626	-0.2426	-0.2809	
0.609146	0.752618	0.300364	4.2	-29.54	21.91	-0.2739	-0.2333	-0.2837	
0.59048	0.7442	0.273768	2.17	-28.56	20.16	-0.2908	-0.2269	-0.2849	
0.592432	0.764208	0.27816	5.67	-32.83	19.39	-0.2753	-0.2333	-0.2868	
0.605242	0.781654	0.282064	7.28	-34.58	19.67	-0.2909	-0.2314	-0.2741	
0.617564	0.766038	0.267546	6.93	-35.63	15.82	-0.2937	-0.2329	-0.2756	
0.646966	0.7625	0.245464	6.79	-36.75	12.32	-0.3023	-0.2236	-0.2769	
0.641964	0.788974	0.249124	7.56	-36.54	11.9	-0.3022	-0.2282	-0.277	
0.634644	0.795684	0.25254	5.74	-35.21	11.97	-0.3082	-0.2233	-0.2566	
0.64904	0.780068	0.256932	6.02	-33.53	8.68	-0.3126	-0.2108	-0.2532	
0.689666	0.762866	0.245464	6.23	-30.73	4.55	-0.3194	-0.2278	-0.2549	
0.692594	0.749202	0.229238	6.44	-26.95	0.84	-0.3181	-0.2322	-0.2426	
0.688446	0.75884	0.224236	5.11	-24.92	-0.84	-0.3266	-0.2337	-0.2424	
0.683322	0.757986	0.225944	4.41	-20.58	-0.56	-0.3239	-0.2244	-0.2392	
0.686616	0.756766	0.22631	4.06	-16.66	0.49	-0.3252	-0.2353	-0.2425	
0.707234	0.748958	0.22143	4.41	-11.55	0.98	-0.3168	-0.2414	-0.2318	
0.70089	0.751764	0.219966	2.24	-8.12	1.26	-0.3253	-0.2213	-0.2407	
0.685152	0.749202	0.217404	-0.42	-6.3	2.66	-0.3238	-0.2337	-0.2394	
0.68015	0.731512	0.209596	-2.52	-1.26	3.71	-0.3182	-0.2291	-0.2378	
0.695156	0.72346	0.200324	-3.92	-0.28	4.83	-0.3254	-0.2289	-0.2331	
0.704184	0.73383	0.20801	-4.06	0.42	4.41	-0.324	-0.2274	-0.2315	
0.699182	0.739686	0.203252	-7.63	1.96	3.64	-0.3269	-0.215	-0.2344	
0.697718	0.74359	0.199104	-9.8	3.92	4.83	-0.3352	-0.2227	-0.2359	
0.702964	0.734806	0.204594	-10.29	4.13	4.48	-0.3337	-0.2305	-0.2392	
0.71492	0.728584	0.21594	-9.31	4.2	2.38	-0.3283	-0.2196	-0.2298	
0.717848	0.73139	0.214598	-9.87	5.04	-0.49	-0.3238	-0.2306	-0.2393	
0.721386	0.742004	0.214476	-9.94	6.72	-2.03	-0.3308	-0.2275	-0.247	
0.719678	0.748836	0.225334	-8.75	7.35	-3.15	-0.328	-0.2183	-0.25	
0.709918	0.740296	0.23851	-8.68	7.49	-5.74	-0.321	-0.2199	-0.2486	
0.713822	0.72102	0.251686	-9.31	7.14	-8.68	-0.328	-0.2291	-0.2486	
0.72041	0.71553	0.25437	-8.82	8.61	-10.85	-0.321	-0.2214	-0.2455	
0.710772	0.731512	0.26047	-8.82	10.29	-12.11	-0.3211	-0.2183	-0.2423	
0.70028	0.754448	0.270962	-8.47	13.16	-13.02	-0.3168	-0.2199	-0.2471	
0.70028	0.75823	0.288408	-11.55	20.09	-16.52	-0.314	-0.2231	-0.2456	
0.682956	0.7625	0.323056	-12.32	27.44	-20.65	-0.311	-0.2232	-0.2581	
0.684664	0.780312	0.33489	-8.82	30.17	-26.88	-0.3095	-0.2264	-0.2613	
0.688812	0.786168	0.325252	-7.7	32.41	-33.46	-0.3036	-0.2328	-0.2754	
0.655628	0.77287	0.30256	-9.66	35.07	-41.65	-0.2995	-0.2266	-0.2708	
0.621346	0.76433	0.283528	-9.59	34.65	-48.09	-0.2797	-0.2285	-0.2773	
0.610732	0.777994	0.285724	-10.22	34.93	-46.06	-0.278	-0.2456	-0.2807	
0.587796	0.78812	0.30256	-8.75	31.85	-42.56	-0.2726	-0.2362	-0.2729	
0.579744	0.76738	0.310002	-8.61	30.66	-42.63	-0.2707	-0.2474	-0.2979	
0.57523	0.764086	0.333792	-7.07	28.98	-41.93	-0.2581	-0.2444	-0.2965	
0.551928	0.77592	0.351604	-7.49	28.49	-41.3	-0.2539	-0.2506	-0.2936	
0.521184	0.7747	0.361852	-5.46	28.98	-44.31	-0.2466	-0.2509	-0.3061	
0.518866	0.816058	0.3782	-3.15	27.44	-45.78	-0.2409	-0.2618	-0.3048	
0.49532	0.776896	0.38369	-5.6	30.94	-48.23	-0.2354	-0.2663	-0.2956	
0.485072	0.821548	0.389668	-1.47	30.87	-49.98	-0.2183	-0.2667	-0.3068	
0.458232	0.81374	0.389058	-5.39	35.56	-51.31	-0.2239	-0.2635	-0.3082	
0.440176	0.807274	0.386862	-5.53	37.38	-53.06	-0.2125	-0.2776	-0.3117	
0.415898	0.809104	0.393084	-6.72	37.31	-52.08	-0.2025	-0.2717	-0.3258	
0.385276	0.808006	0.399306	-8.19	39.41	-47.46	-0.1942	-0.2655	-0.318	
0.355874	0.790194	0.380274	-13.16	40.25	-43.68	-0.1854	-0.2797	-0.3324	
0.322568	0.785558	0.363682	-13.72	42.77	-40.46	-0.1685	-0.283	-0.328	
0.275964	0.826306	0.387228	-8.54	42.28	-38.36	-0.1656	-0.2892	-0.3312	
0.266814	0.82838	0.413458	-7.98	39.97	-33.67	-0.1613	-0.2878	-0.3391	
0.281088	0.799832	0.430172	-8.68	36.26	-29.54	-0.15	-0.2834	-0.3423	
0.280966	0.790804	0.43737	-7.77	34.44	-27.72	-0.1374	-0.2819	-0.3409	
0.25925	0.79971	0.438468	-8.33	28.21	-25.48	-0.1331	-0.282	-0.3457	
0.231556	0.799222	0.426512	-9.1	29.82	-22.61	-0.1373	-0.2866	-0.3425	
0.212158	0.806664	0.42517	-7.77	28.63	-21.56	-0.1301	-0.2837	-0.3535	
0.191296	0.841556	0.42639	-6.09	31.15	-21.07	-0.1275	-0.2805	-0.3426	
0.162748	0.845948	0.434198	-5.46	33.95	-21.84	-0.123	-0.2854	-0.3599	
0.133712	0.865956	0.446276	-1.4	35.28	-23.1	-0.112	-0.29	-0.3414	
0.115168	0.90097	0.45445	2.45	34.16	-25.62	-0.09209999	-0.2781	-0.3603	
0.09942999	0.904752	0.449448	0.49	31.99	-27.65	-0.0863	-0.289	-0.3652	
0.087108	0.901092	0.446764	-1.4	30.1	-27.72	-0.0891	-0.2921	-0.3636	
0.083814	0.89609	0.447374	-2.52	27.44	-27.72	-0.0822	-0.2889	-0.3528	
0.083814	0.892186	0.45323	-3.22	27.02	-27.37	-0.0652	-0.2861	-0.3608	
0.083936	0.893406	0.453596	-3.85	28.14	-27.93	-0.0665	-0.2939	-0.364	
0.09357399	0.90219	0.461282	-4.34	29.05	-29.19	-0.0623	-0.2863	-0.3702	
0.09455	0.907558	0.460184	-7	30.59	-31.71	-0.0511	-0.2786	-0.3687	
0.11163	0.918904	0.472262	-8.68	32.06	-32.69	-0.0511	-0.2817	-0.3656	
0.109312	0.91378	0.482754	-10.99	37.94	-37.24	-0.0441	-0.2849	-0.3658	
0.089914	0.873642	0.469822	-14.63	40.95	-38.43	-0.033	-0.2756	-0.3612	
0.085156	0.821914	0.453474	-13.09	43.82	-39.55	-0.0173	-0.2851	-0.3647	
0.02989	0.87169	0.450912	-7.21	47.11	-43.89	-0.0145	-0.2775	-0.3708	
0.000488	0.88999	0.445422	-7.07	48.65	-43.96	-0.0047	-0.2852	-0.3602	
-0.036966	0.894382	0.435296	-7.07	50.4	-44.1	0.0093	-0.2824	-0.365	
-0.058438	0.911462	0.432978	-9.38	50.47	-43.68	0.0208	-0.2857	-0.3777	
-0.072346	0.895602	0.440176	-13.65	45.08	-45.5	0.0319	-0.2766	-0.3762	
-0.091866	0.88084	0.441884	-14.21	42.49	-48.86	0.046	-0.269	-0.3779	
-0.095648	0.87169	0.4453	-16.03	42.07	-51.31	0.0643	-0.2708	-0.3798	
-0.118218	0.870958	0.451522	-17.43	41.3	-54.39	0.0669	-0.2614	-0.3688	
-0.141154	0.848998	0.456036	-19.46	39.55	-57.33	0.0671	-0.2739	-0.3752	
-0.151524	0.829356	0.464698	-18.2	36.96	-58.73	0.08109999	-0.2586	-0.3814	
-0.166042	0.80398	0.46848	-17.15	37.38	-59.71	0.0948	-0.2416	-0.3674	
-0.22021	0.806786	0.465796	-16.73	36.82	-59.71	0.1049	-0.2403	-0.38	
-0.262544	0.815448	0.456402	-16.52	36.89	-59.64	0.1119	-0.2435	-0.3817	
-0.284748	0.834724	0.453108	-17.85	36.12	-58.17	0.1217	-0.242	-0.3741	
-0.313784	0.829356	0.45933	-19.74	37.66	-57.61	0.1343	-0.239	-0.3743	
-0.366732	0.808372	0.47458	-23.66	38.22	-58.66	0.1344	-0.2422	-0.3774	
-0.408334	0.791536	0.48556	-23.31	37.24	-62.51	0.1611	-0.2209	-0.3853	
-0.44225	0.771772	0.492636	-25.06	35.63	-61.18	0.1523	-0.2175	-0.368	
-0.433954	0.7381	0.485682	-24.78	35.63	-58.52	0.1566	-0.2114	-0.3743	
-0.50081	0.697718	0.485316	-25.62	31.78	-61.25	0.1762	-0.1947	-0.379	
-0.52094	0.673196	0.47275	-22.61	38.15	-61.95	0.1901	-0.1809	-0.3775	
-0.547414	0.642208	0.47031	-22.96	36.33	-58.8	0.2001	-0.1903	-0.3778	
-0.568764	0.620492	0.468236	-23.31	29.89	-57.54	0.1971	-0.1749	-0.3806	
-0.571692	0.598288	0.460916	-24.71	26.32	-50.68	0.2067	-0.1563	-0.3712	
-0.61	0.586332	0.46543	-23.24	26.04	-48.3	0.2221	-0.1564	-0.3653	
-0.654896	0.576084	0.459574	-24.43	23.45	-44.94	0.2193	-0.1503	-0.3729	
-0.653188	0.58499	0.469822	-25.13	18.2	-40.88	0.2348	-0.152	-0.3701	
-0.63684	0.581818	0.488976	-27.65	12.04	-40.04	0.2221	-0.1457	-0.3744	
-0.648796	0.548146	0.497638	-27.44	10.43	-36.68	0.2261	-0.1271	-0.3712	
-0.661728	0.528504	0.516914	-26.74	4.06	-38.64	0.2332	-0.1181	-0.3851	
-0.648796	0.522282	0.532042	-26.67	1.61	-36.19	0.236	-0.1211	-0.3775	
-0.638792	0.510204	0.537166	-25.2	2.94	-35.63	0.2302	-0.1087	-0.3756	
-0.63989	0.48068	0.559126	-22.68	2.52	-34.37	0.2358	-0.1072	-0.3788	
-0.630984	0.462136	0.577914	-20.44	3.78	-31.92	0.2414	-0.09649999	-0.3819	
-0.645624	0.458354	0.576938	-18.27	5.39	-27.16	0.2357	-0.0994	-0.3725	
-0.671	0.47092	0.570472	-15.54	6.93	-22.33	0.241	-0.0839	-0.3646	
-0.676734	0.475312	0.564982	-15.05	9.94	-18.48	0.2483	-0.0858	-0.3803	
-0.685518	0.471774	0.562298	-13.23	12.11	-14.63	0.2456	-0.095	-0.3804	
-0.713212	0.479826	0.556686	-11.13	15.68	-13.16	0.2439	-0.0856	-0.3709	
-0.729194	0.483486	0.550464	-10.71	15.4	-11.27	0.2469	-0.0857	-0.3772	
-0.7442	0.46909	0.552294	-11.69	12.74	-11.27	0.2537	-0.0871	-0.3633	
-0.745664	0.45079	0.555588	-13.16	10.92	-8.33	0.2551	-0.0794	-0.3648	
-0.726388	0.428586	0.558028	-12.67	9.24	-6.93	0.2551	-0.0687	-0.374	
-0.7259	0.3965	0.589016	-11.2	8.33	-4.55	0.2508	-0.0763	-0.3616	
-0.749202	0.374906	0.60817	-7.56	7.35	0	0.2648	-0.0626	-0.3694	
-0.73078	0.36539	0.605608	-4.83	7.07	7.14	0.2564	-0.0671	-0.3693	
-0.708088	0.374418	0.592798	-0.14	6.3	12.39	0.258	-0.078	-0.3726	
-0.71797	0.421632	0.56852	5.6	7.77	17.29	0.2592	-0.0641	-0.3693	
-0.725534	0.480924	0.533506	9.59	10.71	21.49	0.2578	-0.0764	-0.3648	
-0.729072	0.502762	0.527894	9.03	9.94	26.11	0.2565	-0.0779	-0.3648	
-0.760914	0.498614	0.508008	4.62	7.49	26.81	0.2551	-0.0872	-0.3649	
-0.756278	0.489708	0.497272	3.15	4.62	26.74	0.2607	-0.0887	-0.3557	
-0.744932	0.475922	0.494588	2.73	1.54	26.67	0.2608	-0.0888	-0.3634	
-0.76067	0.492026	0.494466	2.87	-1.96	27.37	0.2704	-0.081	-0.3542	
-0.757864	0.494832	0.50508	1.54	-5.95	29.89	0.2566	-0.0857	-0.368	
-0.740174	0.482998	0.509838	-0.98	-10.85	32.76	0.2624	-0.1027	-0.3668	
-0.719434	0.479216	0.515084	-1.12	-15.26	34.72	0.261	-0.1028	-0.3698	
-0.699426	0.49959	0.52094	1.54	-18.97	33.25	0.2413	-0.1026	-0.3711	
-0.686128	0.518988	0.537776	1.75	-22.19	32.83	0.2497	-0.1087	-0.3635	
-0.683932	0.51972	0.543754	2.59	-22.26	32.13	0.2456	-0.1088	-0.3697	
-0.701378	0.522404	0.555954	6.44	-23.31	29.61	0.2385	-0.1056	-0.3726	
-0.68503	0.525088	0.553392	9.94	-23.94	28.56	0.243	-0.1182	-0.3791	
-0.647454	0.54229	0.543022	12.95	-23.94	28.42	0.2344	-0.1072	-0.3773	
-0.610854	0.548756	0.536556	13.51	-24.71	30.52	0.2261	-0.1256	-0.3727	
-0.614392	0.562786	0.527894	15.47	-23.66	33.18	0.2248	-0.1349	-0.3743	
-0.615002	0.584258	0.51789	17.5	-22.12	35.35	0.2248	-0.1334	-0.3774	
-0.607926	0.599874	0.50935	17.71	-23.31	38.78	0.2165	-0.1411	-0.3821	
-0.60268	0.608536	0.510692	17.85	-24.5	39.06	0.2151	-0.138	-0.3805	
-0.60634	0.620614	0.51179	17.08	-27.79	40.25	0.2123	-0.1472	-0.3805	
-0.569496	0.621468	0.512766	16.24	-31.64	42.84	0.2011	-0.1533	-0.3804	
-0.515328	0.618662	0.5307	16.17	-36.12	43.19	0.2012	-0.1626	-0.3821	
-0.492758	0.621468	0.539606	16.94	-37.66	42.91	0.1942	-0.1595	-0.3866	
-0.480558	0.632082	0.538142	18.83	-36.89	44.1	0.1773	-0.1685	-0.3802	
-0.453474	0.6466	0.544486	20.93	-37.31	46.48	0.1691	-0.1731	-0.3879	
-0.410286	0.66063	0.552416	25.76	-35.84	47.46	0.1635	-0.1823	-0.388	
-0.390156	0.66063	0.547048	24.92	-40.25	51.87	0.1509	-0.1899	-0.3863	
-0.321836	0.692106	0.537898	28.14	-39.2	48.44	0.1552	-0.1977	-0.3896	
-0.28304	0.74298	0.543388	29.26	-41.09	48.02	0.1441	-0.2084	-0.3911	
-0.220454	0.771528	0.551562	31.29	-40.04	47.32	0.1368	-0.202	-0.38	
-0.20984	0.804834	0.534238	31.08	-32.69	48.51	0.1245	-0.2206	-0.3925	
-0.185928	0.813496	0.531188	30.24	-30.94	47.25	0.1216	-0.2204	-0.3831	
-0.160796	0.836188	0.52216	28.28	-32.34	47.39	0.1034	-0.228	-0.3861	
-0.121146	0.849242	0.511058	26.53	-26.67	45.36	0.0949	-0.2371	-0.3783	
-0.119438	0.855098	0.504226	24.78	-25.69	45.64	0.0795	-0.2339	-0.3842	
-0.101748	0.85827	0.49654	26.18	-22.26	43.96	0.0924	-0.2511	-0.3846	
-0.100894	0.86315	0.490684	24.99	-19.11	43.4	0.0711	-0.2507	-0.3781	
-0.09699	0.870836	0.477142	21.35	-19.32	44.24	0.0741	-0.2662	-0.3752	
-0.087962	0.861686	0.473238	18.76	-19.18	43.89	0.0671	-0.2647	-0.3813	
-0.077836	0.857172	0.46909	16.59	-18.34	42.98	0.0585	-0.2721	-0.3673	
-0.086376	0.855708	0.460794	13.72	-16.94	44.52	0.039	-0.2736	-0.3763	
-0.092964	0.843752	0.462624	13.02	-15.96	45.29	0.0487	-0.2721	-0.3718	
-0.061732	0.84607	0.459818	11.83	-20.02	47.46	0.0403	-0.2751	-0.3717	
-0.041846	0.855952	0.454084	11.83	-19.95	46.69	0.0305	-0.2811	-0.3716	
-0.05002	0.88023	0.448594	11.41	-21	45.78	0.0263	-0.2842	-0.3731	
-0.045506	0.896212	0.443226	10.08	-20.86	45.78	0.015	-0.2778	-0.3697	
-0.039284	0.899506	0.445666	8.61	-21.7	42.7	0.0122	-0.2824	-0.3698	
-0.031476	0.9028	0.442616	6.02	-23.24	41.09	0.0137	-0.2886	-0.3699	
-0.009272	0.908046	0.441396	4.2	-27.02	39.2	0.0038	-0.2886	-0.3713	
0.01647	0.90829	0.431026	2.03	-28.84	36.4	-0.0031	-0.2869	-0.3696	
0.03355	0.889746	0.419436	0.21	-31.22	33.6	-0.0173	-0.2806	-0.3693	
0.041724	0.895114	0.427488	-0.21	-32.48	30.31	-0.0186	-0.2883	-0.3725	
0.067588	0.907924	0.454206	0.56	-33.95	28.49	-0.0299	-0.2943	-0.3677	
0.127124	0.90585	0.495076	-0.91	-36.12	26.46	-0.0341	-0.3004	-0.3646	
0.17507	0.886452	0.50569	-3.57	-35.84	24.92	-0.0412	-0.2864	-0.3643	
0.184952	0.887062	0.48983	-5.25	-35.84	21.98	-0.051	-0.291	-0.3657	
0.177144	0.874374	0.480192	-5.04	-34.02	20.09	-0.0554	-0.2785	-0.3655	
0.180316	0.866688	0.47519	-4.2	-31.08	19.32	-0.0609	-0.2878	-0.3702	
0.171044	0.845216	0.474702	-1.47	-28.14	19.04	-0.0695	-0.2722	-0.3699	
0.164334	0.840824	0.4697	2.17	-27.02	19.32	-0.0637	-0.2878	-0.3717	
0.165798	0.843996	0.468236	2.8	-28.7	21.42	-0.078	-0.2782	-0.362	
0.163358	0.829966	0.472994	3.15	-30.24	23.8	-0.078	-0.2752	-0.3636	
0.17141	0.809104	0.465918	2.31	-31.78	25.76	-0.0906	-0.2781	-0.3634	
0.19032	0.807884	0.457866	2.87	-33.46	30.45	-0.0949	-0.278	-0.3602	
0.195078	0.80825	0.426756	2.52	-31.29	34.72	-0.1033	-0.2841	-0.3617	
0.205326	0.833382	0.416142	4.34	-31.78	41.16	-0.1189	-0.2793	-0.3567	
0.223626	0.842898	0.427122	0.98	-33.18	45.5	-0.1259	-0.2792	-0.3566	
0.27023	0.836798	0.437248	-0.7	-37.59	48.58	-0.143	-0.2727	-0.3469	
0.311466	0.838628	0.435296	-3.64	-39.62	46.83	-0.143	-0.2742	-0.347	
0.33184	0.836798	0.426146	-4.06	-37.66	42.28	-0.1487	-0.271	-0.3437	
0.3416	0.840458	0.407114	-3.71	-34.23	38.57	-0.1571	-0.2726	-0.3498	
0.374784	0.843874	0.425414	1.82	-33.95	37.66	-0.1601	-0.2723	-0.3358	
0.418094	0.869616	0.44591	5.04	-36.05	39.27	-0.1699	-0.2723	-0.3387	
0.406504	0.843752	0.430172	-0.14	-31.99	33.95	-0.1826	-0.269	-0.34	
0.406504	0.830332	0.430782	-0.98	-34.02	31.92	-0.1869	-0.2674	-0.3353	
0.407602	0.842776	0.406748	-3.22	-34.16	29.47	-0.194	-0.2581	-0.3382	
0.414556	0.838018	0.401502	-3.57	-31.15	25.13	-0.2038	-0.2641	-0.3365	
0.438468	0.840946	0.388448	-2.17	-30.73	24.85	-0.1942	-0.2425	-0.3333	
0.462258	0.808982	0.368318	-4.13	-30.1	24.99	-0.2095	-0.2563	-0.3363	
0.470188	0.764574	0.360022	-3.85	-30.38	24.99	-0.2127	-0.2453	-0.3221	
0.50569	0.79422	0.370636	1.82	-32.2	28.91	-0.2125	-0.2546	-0.3238	
0.511668	0.816546	0.379664	0.42	-30.73	30.45	-0.2253	-0.2467	-0.3204	
0.51301	0.794952	0.374906	-2.52	-28.14	30.38	-0.2339	-0.2449	-0.314	
0.535214	0.77714	0.371612	-4.55	-27.65	30.45	-0.2354	-0.2402	-0.3093	
0.535702	0.770064	0.373442	-4.69	-24.85	28.07	-0.2425	-0.2417	-0.3092	
0.549	0.761402	0.371734	-4.97	-23.31	28	-0.251	-0.2369	-0.3028	
0.555832	0.75457	0.368318	-3.5	-21	25.97	-0.2496	-0.2354	-0.3043	
0.557784	0.75091	0.361364	-2.87	-19.25	23.73	-0.2538	-0.2246	-0.315	
0.565348	0.73871	0.361852	-2.52	-19.25	24.01	-0.2538	-0.2384	-0.3059	
0.574864	0.72346	0.356606	-2.73	-17.92	24.08	-0.2666	-0.2229	-0.3086	
0.600484	0.736026	0.358192	0.77	-19.32	25.9	-0.2652	-0.2259	-0.3024	
0.61122	0.752374	0.352458	0.63	-21	27.51	-0.2752	-0.2134	-0.3036	
0.609024	0.734928	0.349164	2.73	-21.98	25.76	-0.2766	-0.2242	-0.2991	
0.613538	0.722728	0.341844	4.83	-23.03	25.97	-0.2839	-0.2101	-0.291	
0.613904	0.711382	0.330742	7.7	-23.94	25.34	-0.2853	-0.2161	-0.2833	
0.649406	0.712114	0.315126	13.72	-30.31	24.15	-0.2909	-0.2131	-0.2894	
0.682468	0.713456	0.325618	11.76	-33.88	23.45	-0.2939	-0.2098	-0.2784	
0.69723	0.723216	0.324642	5.04	-32.13	23.8	-0.2981	-0.2159	-0.28	
0.705404	0.722606	0.31171	-3.08	-27.3	21.49	-0.301	-0.2127	-0.2706	
0.709552	0.723948	0.317932	-4.13	-22.61	18.06	-0.3138	-0.2095	-0.2703	
0.711382	0.738832	0.31781	-4.06	-17.71	15.75	-0.325	-0.2078	-0.2748	
0.711992	0.721752	0.314394	-5.25	-14	12.6	-0.3209	-0.1955	-0.2731	
0.730536	0.688568	0.306586	-4.97	-11.41	8.89	-0.3237	-0.2016	-0.2669	
0.732366	0.686494	0.292434	-4.27	-8.4	7.49	-0.3309	-0.1937	-0.2621	
0.704672	0.70272	0.281576	-3.99	-5.32	5.18	-0.3223	-0.1986	-0.2716	
0.682468	0.695034	0.280112	-1.96	-4.41	3.92	-0.3281	-0.1906	-0.2621	
0.696498	0.691374	0.275232	0	-4.76	2.1	-0.3197	-0.1938	-0.2591	
0.71004	0.699182	0.265716	0.42	-5.46	-0.21	-0.3267	-0.1891	-0.2636	
0.720776	0.707112	0.267424	-0.28	-5.39	-1.12	-0.3223	-0.2001	-0.2685	
0.72956	0.718946	0.272304	-1.26	-4.9	-2.66	-0.3252	-0.1985	-0.2684	
0.720654	0.720166	0.284138	-3.29	-2.38	-4.83	-0.3338	-0.1998	-0.2559	
0.732122	0.7015	0.279258	-4.13	-0.21	-7.14	-0.3169	-0.2046	-0.2531	
0.733708	0.691618	0.27572	-5.6	0.56	-8.89	-0.3239	-0.1923	-0.2653	
0.735782	0.6954	0.278282	-6.16	0.56	-9.45	-0.3224	-0.1954	-0.2638	
0.736514	0.689666	0.284382	-6.79	0.98	-10.43	-0.3209	-0.1955	-0.2716	
0.737124	0.68076	0.288774	-5.95	2.03	-11.2	-0.3195	-0.1986	-0.2701	
0.741516	0.682102	0.290482	-4.76	2.38	-11.83	-0.3266	-0.1969	-0.2653	
0.737368	0.68625	0.291092	-4.13	3.92	-12.81	-0.3195	-0.2031	-0.2655	
0.731268	0.691008	0.29158	-2.38	4.55	-13.65	-0.3237	-0.2031	-0.267	
0.725534	0.700402	0.29036	-2.03	7.35	-15.75	-0.3237	-0.1971	-0.2762	
0.710528	0.712114	0.289018	-0.98	8.96	-17.99	-0.3194	-0.2033	-0.2748	
0.697352	0.707356	0.292068	-1.12	10.92	-20.93	-0.3195	-0.2078	-0.264	
0.689666	0.69662	0.292312	-0.84	10.78	-23.24	-0.3194	-0.2032	-0.2733	
0.689788	0.702964	0.282674	-0.07	10.22	-24.71	-0.3094	-0.2142	-0.2751	
0.698938	0.733708	0.295118	-2.45	9.1	-25.48	-0.2995	-0.2174	-0.2769	
0.686982	0.71126	0.308782	-8.4	12.39	-27.09	-0.3052	-0.2142	-0.2736	
0.668804	0.712724	0.311588	-9.94	15.96	-29.68	-0.3009	-0.2236	-0.2754	
0.632448	0.722728	0.316956	-6.65	14.91	-32.69	-0.2894	-0.2208	-0.288	
0.619638	0.744932	0.32269	-5.46	13.44	-31.99	-0.2768	-0.2286	-0.282	
0.604388	0.74908	0.333792	-8.33	16.03	-31.64	-0.2781	-0.2271	-0.2882	
0.620858	0.75762	0.345504	-8.54	14.7	-30.1	-0.2837	-0.2301	-0.2866	
0.601582	0.753838	0.349286	-12.25	17.22	-32.69	-0.2808	-0.2364	-0.293	
0.590846	0.768844	0.355996	-11.69	17.5	-34.44	-0.2751	-0.2334	-0.2946	
0.579622	0.785924	0.37088	-12.74	20.51	-35.77	-0.2723	-0.2411	-0.2932	
0.559736	0.782264	0.378444	-17.01	25.76	-37.66	-0.2584	-0.2273	-0.287	
0.54046	0.773236	0.368196	-18.97	27.93	-39.9	-0.2552	-0.2384	-0.3043	
0.517646	0.791414	0.361486	-17.01	27.65	-39.69	-0.2482	-0.2385	-0.3059	
0.50813	0.8235	0.373442	-14	27.16	-39.2	-0.2439	-0.2355	-0.3091	
0.477508	0.812276	0.399306	-14.49	30.94	-42.98	-0.2395	-0.2449	-0.317	
0.460794	0.799344	0.41663	-13.51	33.81	-45.78	-0.2255	-0.2404	-0.3141	
0.443714	0.789706	0.435662	-11.97	36.96	-47.6	-0.224	-0.2497	-0.3158	
0.416752	0.794952	0.44286	-9.59	40.25	-48.23	-0.2127	-0.2438	-0.3237	
0.381128	0.786778	0.44591	-7.42	46.34	-48.51	-0.2054	-0.2578	-0.3302	
0.344406	0.799588	0.447496	-5.11	49.84	-47.81	-0.1968	-0.2642	-0.3351	
0.30988	0.808494	0.448472	-4.34	54.81	-46.13	-0.1826	-0.2568	-0.3461	
0.262544	0.810934	0.44103	-5.88	57.33	-42.98	-0.1785	-0.2567	-0.3415	
0.24461	0.836676	0.432856	-5.11	56.77	-38.78	-0.1658	-0.2568	-0.3386	
0.231556	0.86742	0.43188	-4.55	56	-38.85	-0.1488	-0.2526	-0.3528	
0.217648	0.875228	0.43127	-5.18	55.23	-37.73	-0.1458	-0.2665	-0.353	
0.2135	0.874252	0.438224	-7.63	56	-38.5	-0.1331	-0.259	-0.3594	
0.184464	0.864126	0.445788	-7.56	56.56	-39.62	-0.1204	-0.2622	-0.358	
0.162748	0.841434	0.453596	-8.47	53.06	-40.04	-0.1175	-0.2747	-0.3598	
0.147742	0.814228	0.465918	-9.73	50.05	-39.97	-0.09779999	-0.2596	-0.3693	
0.120292	0.79605	0.46543	-10.64	48.3	-39.2	-0.0935	-0.2735	-0.3648	
0.085522	0.799222	0.460916	-8.47	47.25	-38.57	-0.0821	-0.266	-0.3774	
0.060878	0.806664	0.464454	-6.02	43.33	-34.65	-0.0709	-0.2737	-0.3668	
0.042456	0.812154	0.471774	-4.27	41.02	-31.29	-0.068	-0.2708	-0.3761	
0.024522	0.834114	0.48495	-3.15	37.1	-30.31	-0.0597	-0.2708	-0.3653	
0.01464	0.842898	0.50386	-1.96	31.01	-28.35	-0.0539	-0.2709	-0.3748	
0.046238	0.856074	0.504958	-1.05	30.59	-28.14	-0.0315	-0.2589	-0.3781	
0.05368	0.861442	0.497394	-3.43	28.35	-28.91	-0.0244	-0.2651	-0.3752	
0.07515199	0.862662	0.47763	-5.53	28.98	-30.31	-0.0243	-0.2698	-0.3799	
0.059536	0.876082	0.488122	-5.88	31.08	-31.5	-0.0216	-0.2605	-0.3767	
0.061854	0.882182	0.494954	-7.42	32.27	-33.53	-0.009	-0.256	-0.3737	
0.074542	0.865224	0.51057	-8.4	32.97	-35.7	-0.0159	-0.2683	-0.38	
0.048312	0.85522	0.510448	-9.87	34.02	-39.69	0.0023	-0.264	-0.3834	
0.020252	0.840824	0.513132	-11.48	37.24	-41.72	0.0194	-0.2674	-0.393	
-0.001098	0.83753	0.511546	-12.67	39.06	-41.86	0.0164	-0.2611	-0.3867	
-0.0427	0.834602	0.504226	-12.74	43.4	-41.23	0.029	-0.2519	-0.3867	
-0.075884	0.839848	0.510082	-13.09	43.54	-41.44	0.0418	-0.2613	-0.3839	
-0.103456	0.854	0.510692	-14.35	42.14	-41.79	0.0472	-0.2444	-0.3854	
-0.091012	0.867298	0.510814	-15.47	40.67	-40.81	0.0558	-0.2492	-0.3902	
-0.09333	0.843874	0.485072	-18.83	39.27	-42.35	0.0655	-0.2384	-0.384	
-0.131882	0.835822	0.471042	-19.25	40.11	-46.69	0.0752	-0.2369	-0.3779	
-0.18849	0.854244	0.477386	-19.46	41.93	-50.05	0.0782	-0.2462	-0.3828	
-0.251442	0.889502	0.491538	-17.71	48.3	-56.28	0.09779999	-0.2325	-0.3814	
-0.297802	0.887916	0.504836	-20.65	45.36	-63.14	0.102	-0.2203	-0.3922	
-0.326228	0.854	0.50996	-24.92	42.28	-69.23	0.1131	-0.2219	-0.3815	
-0.354288	0.813984	0.515206	-28.63	41.23	-73.36	0.1215	-0.2097	-0.3877	
-0.35075	0.759206	0.501176	-30.17	40.95	-75.53	0.1427	-0.2069	-0.3911	
-0.400648	0.737734	0.493124	-28.28	47.32	-76.72	0.1425	-0.1975	-0.3832	
-0.439688	0.736026	0.473604	-31.08	47.88	-73.22	0.1565	-0.1869	-0.3864	
-0.424316	0.710406	0.4697	-31.71	55.65	-66.99	0.1606	-0.1791	-0.3817	
-0.510204	0.66368	0.460916	-38.99	43.19	-66.99	0.1788	-0.1701	-0.385	
-0.513132	0.619272	0.47519	-42.91	42.7	-62.65	0.1958	-0.1658	-0.3945	
-0.527772	0.57401	0.476166	-47.6	31.85	-55.65	0.1887	-0.1579	-0.3927	
-0.531676	0.53924	0.473482	-47.74	23.38	-52.5	0.1926	-0.1408	-0.3832	
-0.524966	0.523136	0.48861	-47.46	18.83	-46.83	0.2011	-0.1395	-0.3911	
-0.549366	0.526674	0.499102	-44.31	18.2	-47.11	0.208	-0.1272	-0.388	
-0.60573	0.51362	0.509716	-42.14	20.02	-45.22	0.2092	-0.1132	-0.3816	
-0.65392	0.544852	0.538996	-41.72	17.22	-44.52	0.2275	-0.098	-0.391	
-0.685274	0.511668	0.601826	-44.52	14.21	-42.91	0.2216	-0.0809	-0.3845	
-0.698816	0.48861	0.636718	-42.56	12.25	-42.42	0.2241	-0.0638	-0.3796	
-0.658556	0.43554	0.644648	-40.6	12.04	-43.75	0.2271	-0.0731	-0.3798	
-0.615368	0.377346	0.649772	-38.22	10.99	-42.21	0.2354	-0.067	-0.3799	
-0.594018	0.357826	0.651846	-34.51	11.69	-37.38	0.234	-0.0517	-0.389	
-0.622566	0.345748	0.651968	-29.05	17.36	-30.87	0.2366	-0.0423	-0.378	
-0.650626	0.349652	0.637328	-23.52	20.79	-23.03	0.2367	-0.0409	-0.3889	
-0.652334	0.35258	0.637938	-20.37	24.99	-17.08	0.2366	-0.0408	-0.3826	
-0.694546	0.352946	0.633668	-19.67	28.77	-12.67	0.2421	-0.0285	-0.3841	
-0.720288	0.359534	0.621224	-18.62	29.12	-9.8	0.2421	-0.03	-0.3764	
-0.731512	0.357948	0.609268	-18.97	25.55	-7.35	0.2575	-0.0255	-0.3781	
-0.747616	0.365268	0.609634	-18.06	22.89	-5.39	0.256	-0.0193	-0.3733	
-0.758962	0.35441	0.60512	-18.2	20.58	-4.48	0.2615	-0.0208	-0.3657	
-0.75579	0.344406	0.607438	-17.22	17.5	-4.76	0.2543	-0.0067	-0.3638	
-0.751154	0.328546	0.591944	-14.35	13.79	-4.13	0.2558	-0.0115	-0.3686	
-0.74481	0.329278	0.601094	-12.95	13.51	-3.85	0.263	-0.0147	-0.3718	
-0.758962	0.332206	0.601094	-12.6	13.09	-3.36	0.2572	-0.0099	-0.3686	
-0.7686	0.327448	0.604266	-12.53	10.78	-2.66	0.2657	-0.0146	-0.3641	
-0.76494	0.318908	0.604998	-13.23	9.03	-2.52	0.2712	-0.0116	-0.3626	
-0.748592	0.307074	0.61244	-13.23	7.21	-1.89	0.2684	-0.01	-0.361	
-0.751398	0.294752	0.619272	-11.9	6.37	-1.19	0.2656	-0.01	-0.364	
-0.765428	0.28853	0.625128	-10.15	6.09	0.7	0.2724	0.0023	-0.3562	
-0.764086	0.28243	0.629764	-8.19	5.74	2.52	0.274	-0.0054	-0.361	
-0.757498	0.275232	0.62281	-7.14	4.9	3.57	0.2782	-0.0039	-0.3611	
-0.761402	0.274866	0.630618	-5.18	5.04	5.39	0.2782	-0.0008	-0.3626	
-0.780434	0.28304	0.628422	-2.66	5.88	7.91	0.2766	0.0054	-0.3578	
-0.78934	0.278648	0.627812	-0.7	6.44	10.5	0.2766	0.0038	-0.3563	
-0.782386	0.263398	0.620492	1.54	5.46	12.18	0.278	0.0054	-0.3532	
-0.776042	0.256444	0.61976	5.18	3.71	13.02	0.2809	0.0037	-0.3626	
-0.784338	0.251442	0.628422	9.1	2.52	15.33	0.2782	-0.0024	-0.3657	
-0.792268	0.241072	0.633546	12.88	1.19	19.18	0.2795	0.0053	-0.3594	
-0.790682	0.247782	0.603534	17.85	-2.45	28	0.2768	-0.0192	-0.3519	
-0.793	0.30439	0.587064	20.23	-3.71	36.68	0.2683	-0.0191	-0.3471	
-0.803736	0.35441	0.583404	22.33	-5.04	42.49	0.2742	-0.0301	-0.3613	
-0.808494	0.376004	0.57401	22.89	-7.49	47.25	0.263	-0.0331	-0.3596	
-0.808616	0.39162	0.555954	24.15	-10.29	49.42	0.2744	-0.0456	-0.3631	
-0.794342	0.393328	0.54961	25.55	-12.04	49.98	0.2562	-0.0501	-0.3675	
-0.777262	0.399794	0.53558	25.83	-17.15	50.89	0.2647	-0.0625	-0.3632	
-0.772138	0.411872	0.527284	27.02	-22.12	53.2	0.255	-0.0686	-0.3646	
-0.750056	0.431636	0.525454	29.12	-28.28	56.35	0.255	-0.0733	-0.3678	
-0.719922	0.45262	0.52277	30.31	-32.83	58.38	0.2581	-0.0843	-0.3758	
-0.68564	0.472018	0.527772	29.12	-37.52	60.83	0.2469	-0.0903	-0.3757	
-0.661362	0.487756	0.535092	31.36	-41.58	61.18	0.247	-0.1012	-0.3789	
-0.63745	0.514108	0.529358	32.55	-44.8	59.85	0.2344	-0.1149	-0.3711	
-0.606218	0.534726	0.510326	32.97	-50.61	58.03	0.2334	-0.132	-0.3853	
-0.554612	0.582062	0.525088	33.46	-58.1	54.53	0.2249	-0.1243	-0.3898	
-0.512278	0.592066	0.537654	35.42	-55.79	50.19	0.2121	-0.1393	-0.3695	
-0.488122	0.608292	0.534604	36.26	-56.42	44.24	0.197	-0.1502	-0.3881	
-0.443836	0.61671	0.537776	35.49	-63.28	42.98	0.1857	-0.1593	-0.3818	
-0.394182	0.631594	0.540338	36.96	-65.45	42.98	0.1815	-0.147	-0.394	
-0.338916	0.657214	0.534116	39.48	-65.73	44.1	0.1675	-0.1607	-0.3862	
-0.288286	0.694302	0.521794	41.3	-65.24	44.66	0.1649	-0.1761	-0.3879	
-0.241194	0.727608	0.518622	41.44	-63.98	46.76	0.1425	-0.1837	-0.3954	
-0.206302	0.748348	0.517036	43.33	-60.69	47.18	0.1328	-0.1945	-0.397	
-0.188612	0.790072	0.505934	41.09	-56.42	52.92	0.1215	-0.2051	-0.3892	
-0.176412	0.817034	0.498004	41.02	-52.71	51.45	0.1089	-0.2096	-0.3921	
-0.15189	0.83753	0.495198	36.47	-52.43	52.5	0.0963	-0.2248	-0.3828	
-0.11651	0.848388	0.492392	32.55	-53.41	52.85	0.0866	-0.2248	-0.3935	
-0.070638	0.846192	0.49715	30.1	-50.82	51.52	0.0796	-0.237	-0.3873	
-0.020252	0.850584	0.493124	31.22	-41.51	50.4	0.0685	-0.2493	-0.3889	
-0.033184	0.860466	0.476654	25.62	-35.21	53.48	0.0642	-0.2323	-0.3964	
-0.033062	0.848388	0.463722	22.19	-30.1	57.96	0.0515	-0.2598	-0.3779	
-0.020252	0.83936	0.445666	23.1	-25.83	58.17	0.0276	-0.2519	-0.3852	
-0.012078	0.839482	0.422486	22.26	-28.77	59.43	0.0403	-0.2689	-0.3778	
0.015128	0.856318	0.41541	24.43	-27.51	59.64	0.0306	-0.2735	-0.3808	
0.027694	0.894748	0.415166	26.67	-23.66	59.08	0.0137	-0.2687	-0.3852	
0.018178	0.907924	0.406382	24.99	-22.4	59.15	0.0123	-0.2733	-0.3821	
0.027816	0.89792	0.389546	23.03	-22.96	57.19	0.0009999999	-0.2793	-0.3773	
0.042944	0.915	0.380396	22.75	-27.44	56	-0.0117	-0.2852	-0.3647	
0.055876	0.937936	0.377712	22.75	-28.35	53.13	-0.0115	-0.2899	-0.371	
0.080764	0.958188	0.38247	19.95	-30.87	50.89	-0.0244	-0.2835	-0.3645	
0.082716	0.952576	0.371002	15.96	-29.96	46.27	-0.0286	-0.288	-0.3598	
0.089426	0.950868	0.36783	16.17	-33.81	39.27	-0.0342	-0.2957	-0.3567	
0.09552599	0.946354	0.363438	15.89	-35.91	33.53	-0.0482	-0.291	-0.3658	
0.115778	0.938912	0.371612	15.4	-40.39	30.24	-0.051	-0.3048	-0.3597	
0.12932	0.93208	0.378078	13.72	-42.98	29.19	-0.0596	-0.2938	-0.3563	
0.152378	0.938668	0.388936	9.52	-45.5	29.96	-0.07229999	-0.2983	-0.3531	
0.20252	0.920124	0.400404	1.61	-48.93	31.43	-0.0764	-0.2983	-0.3592	
0.215818	0.90585	0.401624	-1.96	-50.19	30.73	-0.092	-0.3057	-0.3435	
0.232166	0.905118	0.395768	-3.15	-48.37	30.59	-0.1007	-0.2947	-0.3386	
0.261202	0.892064	0.39284	-3.29	-46.62	29.68	-0.1104	-0.2962	-0.3447	
0.291702	0.885476	0.391498	-4.13	-45.57	30.31	-0.1301	-0.3006	-0.3413	
0.323666	0.865834	0.39101	-4.9	-43.26	30.94	-0.1234	-0.2805	-0.338	
0.351604	0.84363	0.378078	-7	-42.63	32.48	-0.1389	-0.2895	-0.3317	
0.374418	0.81069	0.380884	-7	-40.95	34.51	-0.1388	-0.2911	-0.3348	
0.390034	0.792878	0.377224	-6.58	-38.15	37.59	-0.1586	-0.2847	-0.336	
0.404674	0.784826	0.377346	-2.52	-35.21	39.27	-0.1656	-0.2846	-0.3343	
0.419558	0.77348	0.387838	-1.75	-32.41	41.79	-0.1687	-0.2767	-0.3217	
0.435174	0.791658	0.404674	4.55	-31.92	45.15	-0.1785	-0.2751	-0.3293	
0.431636	0.79971	0.396378	5.18	-31.5	44.94	-0.1872	-0.2672	-0.3182	
0.430782	0.784582	0.360022	6.58	-29.4	43.61	-0.197	-0.2701	-0.3181	
0.438224	0.80886	0.346236	11.06	-28.98	40.39	-0.2068	-0.2746	-0.3148	
0.441884	0.82045	0.348554	22.47	-40.11	38.57	-0.2042	-0.2592	-0.3116	
0.488244	0.871202	0.31598	17.43	-43.26	33.88	-0.2168	-0.2698	-0.31	
0.47031	0.903532	0.313418	3.85	-40.04	34.93	-0.2241	-0.2665	-0.2974	
0.48007	0.82716	0.315492	-5.18	-37.52	33.53	-0.2309	-0.2727	-0.3067	
0.50935	0.77348	0.348798	-4.9	-37.52	32.55	-0.238	-0.271	-0.3034	
0.55815	0.767258	0.352336	-1.33	-37.52	35.35	-0.2383	-0.2616	-0.2909	
0.568886	0.749568	0.340746	-0.14	-36.61	35.14	-0.2481	-0.2615	-0.2923	
0.596092	0.752618	0.331718	3.71	-36.75	36.68	-0.2567	-0.249	-0.292	
0.623664	0.790316	0.323544	7.56	-33.81	35.98	-0.2624	-0.2504	-0.2857	
0.617442	0.807274	0.325008	9.03	-31.78	33.67	-0.2624	-0.252	-0.2857	
0.664046	0.818132	0.322202	7.63	-29.61	32.27	-0.2781	-0.2516	-0.273	
0.656116	0.81191	0.318786	5.67	-25.41	29.05	-0.2823	-0.2516	-0.276	
0.668316	0.811422	0.325618	2.24	-21.42	26.88	-0.2907	-0.2516	-0.2774	
0.679784	0.77958	0.329522	-2.38	-16.31	24.5	-0.298	-0.2405	-0.2694	
0.679052	0.727974	0.303292	-4.83	-13.72	20.44	-0.298	-0.2375	-0.2694	
0.659166	0.738832	0.29646	-3.29	-7.42	18.2	-0.301	-0.2235	-0.2691	
0.623542	0.76189	0.275842	-3.78	-3.22	16.17	-0.2936	-0.2346	-0.2803	
0.635254	0.746274	0.268522	-3.15	-1.89	11.83	-0.3024	-0.225	-0.2676	
0.650626	0.746762	0.27023	-2.8	-1.61	9.45	-0.308	-0.228	-0.2629	
0.662216	0.73078	0.268766	-3.78	-3.99	9.24	-0.2968	-0.2235	-0.2661	
0.679174	0.741394	0.269986	-4.13	-3.5	9.24	-0.3124	-0.2217	-0.2581	
0.6771	0.74969	0.26718	-6.16	-3.85	7.56	-0.3037	-0.2266	-0.2691	
0.670878	0.736758	0.265716	-7.14	-4.83	5.11	-0.3138	-0.2201	-0.2565	
0.682834	0.731024	0.269864	-7.07	-6.44	4.41	-0.3081	-0.2141	-0.2658	
0.687348	0.72834	0.28182	-6.23	-6.02	3.5	-0.3107	-0.2281	-0.2706	
0.704062	0.733952	0.291214	-5.67	-6.51	2.24	-0.3179	-0.2141	-0.2719	
0.714188	0.735172	0.296948	-5.39	-5.32	-0.14	-0.3123	-0.2233	-0.2612	
0.726266	0.726876	0.298534	-4.97	-3.92	-3.01	-0.3123	-0.2218	-0.2674	
0.723826	0.74298	0.304268	-4.27	-1.19	-5.6	-0.311	-0.2186	-0.2611	
0.713456	0.736636	0.311222	-5.04	0.14	-8.05	-0.3137	-0.211	-0.2703	
0.722362	0.718214	0.311466	-5.18	1.26	-10.92	-0.3125	-0.2124	-0.261	
0.725656	0.73688	0.319884	-4.9	5.39	-14.42	-0.3052	-0.2265	-0.2676	
0.718458	0.730048	0.31903	-6.65	7.35	-17.57	-0.3023	-0.2297	-0.2692	
0.716506	0.727364	0.319518	-6.58	10.22	-21.07	-0.3107	-0.2281	-0.2722	
0.703574	0.731024	0.317688	-6.44	12.95	-23.38	-0.3052	-0.225	-0.266	
0.7015	0.73932	0.318908	-5.88	16.8	-26.25	-0.2981	-0.2312	-0.2662	
0.691862	0.740174	0.320616	-6.3	20.37	-29.47	-0.2926	-0.2251	-0.2646	
0.67771	0.736636	0.319396	-6.02	23.24	-32.9	-0.2937	-0.2315	-0.2818	
0.66551	0.737612	0.31476	-5.81	24.5	-35.77	-0.2922	-0.2346	-0.2819	
0.651724	0.745786	0.319274	-6.16	26.81	-37.24	-0.2795	-0.2348	-0.2836	
0.63074	0.748958	0.32025	-4.9	29.89	-38.43	-0.2723	-0.2396	-0.2931	
0.619028	0.755912	0.329522	-3.85	31.01	-36.89	-0.2665	-0.2459	-0.298	
0.602314	0.770918	0.331474	-1.05	34.09	-39.06	-0.2624	-0.2443	-0.2918	
0.57218	0.790804	0.341966	-0.42	35.49	-40.04	-0.2652	-0.2412	-0.2917	
0.55815	0.784948	0.35258	-0.84	35.98	-41.09	-0.2482	-0.2462	-0.3014	
0.544608	0.776164	0.35014	-1.75	35.91	-42.84	-0.241	-0.2616	-0.297	
0.528138	0.777384	0.348188	-2.31	36.33	-43.89	-0.2325	-0.2542	-0.308	
0.487878	0.800442	0.360022	0.28	38.85	-45.36	-0.2238	-0.2667	-0.3129	
0.46665	0.819474	0.348188	-0.35	38.5	-44.24	-0.2068	-0.27	-0.3179	
0.417972	0.828502	0.351238	-2.66	40.95	-44.52	-0.2025	-0.2763	-0.3212	
0.40504	0.83082	0.380884	-3.5	41.44	-43.4	-0.194	-0.2795	-0.3244	
0.384056	0.831186	0.405406	-3.36	42.49	-43.4	-0.191	-0.2843	-0.3292	
0.36844	0.820694	0.414068	-2.24	42.07	-42.84	-0.1812	-0.2813	-0.3278	
0.348798	0.82411	0.418094	0.21	40.95	-41.93	-0.177	-0.2782	-0.3278	
0.314882	0.82716	0.41663	1.89	41.65	-40.04	-0.16	-0.2801	-0.3343	
0.282186	0.84729	0.395158	0.28	41.3	-36.12	-0.1571	-0.2833	-0.3406	
0.25437	0.855342	0.384178	0.14	41.16	-33.25	-0.1444	-0.2865	-0.3424	
0.220942	0.86132	0.38369	-1.82	41.44	-30.03	-0.1458	-0.288	-0.3362	
0.210694	0.873886	0.39894	-6.44	40.81	-25.83	-0.1244	-0.2992	-0.3522	
0.200324	0.873276	0.408822	-13.16	43.05	-23.1	-0.1246	-0.2837	-0.3443	
0.190808	0.846924	0.396012	-17.71	47.18	-21.98	-0.1146	-0.2946	-0.3477	
0.176046	0.85217	0.405162	-14.91	52.29	-23.8	-0.1032	-0.2918	-0.3587	
0.116266	0.85461	0.431514	-8.12	59.29	-22.96	-0.1019	-0.2856	-0.3571	
0.106506	0.861808	0.428952	-3.36	57.33	-19.67	-0.0865	-0.2827	-0.3557	
0.088694	0.872056	0.433222	-0.07	55.09	-20.72	-0.0766	-0.2813	-0.3559	
0.07124799	0.865224	0.429196	0.07	52.57	-22.54	-0.0553	-0.2832	-0.3687	
0.036478	0.846192	0.419558	0.28	49	-24.71	-0.0597	-0.2861	-0.3531	
0.016226	0.844972	0.421144	2.73	44.1	-25.2	-0.0496	-0.2879	-0.3688	
0.004636	0.831186	0.42029	4.41	38.57	-24.92	-0.0384	-0.2849	-0.3659	
-0.019886	0.831796	0.420778	6.09	33.32	-24.22	-0.0328	-0.2896	-0.3614	
-0.041114	0.851438	0.40992	7.14	26.6	-25.2	-0.0271	-0.2836	-0.3723	
-0.068686	0.884988	0.419314	7.98	21.28	-24.99	-0.0228	-0.2913	-0.3693	
-0.09394	0.901458	0.41419	6.02	16.1	-26.32	-0.0159	-0.2944	-0.3617	
-0.099064	0.899872	0.408334	4.83	10.36	-28.42	-0.0075	-0.2836	-0.3601	
-0.09028	0.909266	0.415898	3.92	3.99	-29.89	-0.0033	-0.2929	-0.3525	
-0.088328	0.910486	0.415532	2.52	-1.12	-30.8	-0.0118	-0.2897	-0.3539	
-0.089304	0.898896	0.418216	1.47	-5.04	-31.15	0.0009	-0.2976	-0.3558	
-0.076372	0.901336	0.42517	2.45	-9.17	-31.57	-0.0089	-0.296	-0.3572	
-0.072468	0.892796	0.442982	3.36	-11.62	-29.54	0.0053	-0.2993	-0.3668	
-0.065026	0.8723	0.445056	2.31	-12.32	-28.28	0.0109	-0.2917	-0.3683	
-0.062342	0.861076	0.43859	0.28	-11.48	-26.81	0.0106	-0.2854	-0.3573	
-0.073444	0.862174	0.439444	-0.77	-9.8	-25.41	0.0052	-0.2977	-0.3636	
-0.068808	0.86559	0.438224	-2.03	-9.24	-22.96	0.0037	-0.2915	-0.3573	
-0.074664	0.840092	0.424194	-4.62	-5.95	-18.9	0.0011	-0.2948	-0.3744	
-0.083448	0.84912	0.449204	-2.31	-5.11	-16.45	0.0165	-0.2964	-0.3653	
-0.08601	0.88755	0.45811	-0.91	-3.36	-12.04	0.0051	-0.29	-0.3589	
-0.103944	0.877302	0.452376	-2.03	-2.66	-6.3	0.0067	-0.2947	-0.3683	
-0.10248	0.8845	0.442006	-2.87	-4.48	-2.73	0.0137	-0.2933	-0.3715	
-0.110044	0.901214	0.43615	-1.96	-5.67	-0.77	0.0081	-0.2994	-0.3684	
-0.105774	0.929762	0.436394	-3.78	-12.6	-0.7	0.0152	-0.2964	-0.3731	
-0.09552599	0.93635	0.436638	-6.65	-19.11	-4.48	-0.0004	-0.29	-0.365	
-0.098942	0.936106	0.44103	-7.21	-23.17	-9.66	0.0038	-0.2916	-0.3651	
-0.110898	0.957212	0.444934	-5.11	-27.65	-17.29	0.0051	-0.2884	-0.3604	
-0.121878	0.960994	0.425292	-5.32	-31.08	-23.66	-0.0031	-0.2869	-0.3727	
-0.139568	0.959286	0.397354	-1.61	-42.35	-32.76	-0.0073	-0.2946	-0.3665	
-0.16165	0.981978	0.385154	1.68	-52.5	-37.38	-0.0003	-0.2931	-0.3666	
-0.177266	0.998082	0.361608	-1.54	-65.03	-39.48	-0.0061	-0.2883	-0.3602	
-0.15555	0.967582	0.362096	-7.35	-77.56	-41.65	-0.0116	-0.2929	-0.3633	
-0.13969	0.960628	0.38918	-8.96	-90.51	-46.97	-0.023	-0.2897	-0.36	
-0.08967	0.945378	0.400648	-10.71	-101.71	-52.64	-0.0215	-0.2851	-0.3677	
-0.03355	0.923174	0.386984	-11.97	-107.31	-57.4	-0.0428	-0.2848	-0.358	
0.024766	0.907436	0.418338	-14.7	-106.75	-58.52	-0.0427	-0.2894	-0.3565	
0.064904	0.85522	0.482144	-14.14	-102.83	-57.47	-0.0524	-0.2925	-0.3673	
0.083448	0.867298	0.508374	-9.24	-101.71	-59.08	-0.0582	-0.2969	-0.3564	
0.059292	0.882182	0.504592	-7.49	-95.06	-61.04	-0.0696	-0.2813	-0.3529	
0.038552	0.868396	0.521184	-7.77	-90.37	-61.04	-0.0782	-0.2857	-0.3435	
0.066124	0.835944	0.548024	-5.74	-85.26	-59.64	-0.088	-0.2872	-0.3433	
0.049898	0.84851	0.526918	-1.19	-81.76	-59.99	-0.09209999	-0.2873	-0.3542	
-0.002928	0.874374	0.524478	-0.98	-77.35	-56.07	-0.09209999	-0.2888	-0.3542	
-0.020496	0.846924	0.522892	-1.26	-73.15	-50.68	-0.09779999	-0.2901	-0.3432	
-0.004392	0.87291	0.53009	-0.91	-72.73	-50.54	-0.1105	-0.2946	-0.34	
-0.001708	0.833016	0.546072	0.28	-71.05	-48.23	-0.0993	-0.3009	-0.3356	
0.034648	0.827648	0.53619	0.35	-69.44	-49.07	-0.1148	-0.3006	-0.3322	
0.004758	0.827648	0.54534	2.31	-60.69	-48.93	-0.1276	-0.2989	-0.3258	
0.055144	0.803858	0.578524	5.46	-50.19	-48.65	-0.1219	-0.2989	-0.3274	
0.039894	0.80093	0.566446	9.66	-36.54	-49.35	-0.1191	-0.3097	-0.3214	
-0.004148	0.802638	0.564372	11.2	-24.78	-45.08	-0.1274	-0.3144	-0.3291	
-0.044286	0.780678	0.564128	14	-21	-38.92	-0.119	-0.3128	-0.3214	
-0.041602	0.743834	0.581208	15.54	-19.88	-31.99	-0.1147	-0.3253	-0.3232	
-0.031964	0.736514	0.562664	15.96	-20.58	-25.06	-0.1122	-0.3158	-0.3076	
-0.065636	0.74969	0.557052	19.04	-18.48	-16.66	-0.1191	-0.3204	-0.3091	
-0.096868	0.80215	0.55022	20.65	-15.61	-11.41	-0.112	-0.3221	-0.3139	
-0.107238	0.816546	0.528992	17.99	-14.35	-7.42	-0.115	-0.328	-0.2999	
-0.063562	0.81435	0.532408	14.21	-10.57	-7.28	-0.1133	-0.3344	-0.3125	
-0.075518	0.818742	0.493978	14	-9.87	-3.92	-0.1192	-0.3341	-0.2968	
-0.126392	0.851804	0.515572	15.68	-7.28	3.22	-0.1178	-0.3403	-0.2907	
-0.07124799	0.859978	0.50203	13.3	-6.02	2.45	-0.1076	-0.3438	-0.3127	
-0.077226	0.88328	0.495076	13.65	-3.5	2.59	-0.1163	-0.3388	-0.2954	
-0.08052	0.891942	0.476654	12.6	-2.31	4.13	-0.1277	-0.3463	-0.2844	
-0.085278	0.88633	0.469578	10.57	-2.1	4.9	-0.112	-0.3481	-0.2955	
-0.07991	0.876814	0.466406	9.1	-2.31	5.81	-0.119	-0.3435	-0.3032	
-0.07124799	0.870592	0.460794	8.33	-2.38	6.3	-0.1249	-0.3417	-0.289	
-0.047702	0.882548	0.468724	7.49	-0.21	6.16	-0.1291	-0.3401	-0.2858	
-0.042578	0.895236	0.4758	6.02	2.31	6.86	-0.122	-0.3494	-0.283	
-0.029036	0.88938	0.488854	4.97	5.39	7.35	-0.1234	-0.3402	-0.2937	
-0.017812	0.87169	0.49349	4.62	8.4	7.84	-0.1318	-0.3525	-0.2891	
-0.017568	0.865834	0.492026	4.69	12.39	9.24	-0.1106	-0.3573	-0.2879	
-0.013786	0.862174	0.493368	4.83	16.66	10.43	-0.1247	-0.351	-0.2923	
0.00488	0.846558	0.493246	3.22	21.21	12.32	-0.1288	-0.3557	-0.2954	
0.01037	0.844484	0.489342	2.87	25.83	14.7	-0.1219	-0.3449	-0.2953	
0.010126	0.842532	0.495564	2.17	31.43	18.9	-0.1207	-0.3387	-0.2891	
0.008784	0.8235	0.500322	1.33	39.06	25.06	-0.1247	-0.3465	-0.2969	
0.022692	0.819108	0.511058	0.7	43.75	27.09	-0.1134	-0.3466	-0.3002	
0.030988	0.801296	0.494222	1.82	49.14	31.22	-0.1176	-0.3465	-0.297	
0.037698	0.806054	0.476654	4.55	54.53	35.07	-0.1119	-0.3421	-0.311	
0.043676	0.845704	0.43737	6.23	59.57	39.55	-0.1063	-0.3528	-0.2957	
0.0183	0.924272	0.43371	8.05	63.21	44.1	-0.1134	-0.3451	-0.3017	
0.00854	0.924394	0.425048	6.09	67.55	47.46	-0.1061	-0.347	-0.319	
0.023912	0.888892	0.432246	4.55	70.07	47.67	-0.1061	-0.3439	-0.3205	
0.04758	0.875472	0.426878	5.18	71.4	49.56	-0.0963	-0.3454	-0.3129	
0.036356	0.896944	0.402844	4.2	73.57	54.04	-0.1034	-0.3376	-0.3127	
0.01708	0.957822	0.402722	2.1	75.46	61.32	-0.0949	-0.3424	-0.3175	
0.0427	1.004914	0.412848	-3.43	76.16	69.3	-0.0907	-0.3271	-0.3236	
0.062952	1.032974	0.4453	-3.85	68.53	70.14	-0.0905	-0.3379	-0.3269	
0.031354	1.046272	0.429562	-5.81	72.03	67.41	-0.0906	-0.3318	-0.3268	
0.01098	1.033706	0.39284	-10.5	74.62	59.08	-0.0892	-0.3241	-0.3314	
0.023302	1.023336	0.361608	-11.55	82.18	48.93	-0.0947	-0.3257	-0.3375	
0.055144	1.002596	0.363072	-13.58	79.59	43.61	-0.0778	-0.3243	-0.3393	
0.047092	0.972828	0.373686	-14.42	83.3	43.33	-0.0752	-0.318	-0.3284	
0.081008	0.962946	0.41968	-12.6	80.64	46.97	-0.07099999	-0.312	-0.3362	
0.117974	0.953918	0.420534	-10.71	77.07	50.05	-0.0709	-0.3044	-0.3454	
0.112362	0.930128	0.4148	-8.96	73.64	55.37	-0.0595	-0.3046	-0.3518	
0.118462	0.935374	0.389424	-6.58	71.4	57.05	-0.051	-0.3063	-0.3551	
0.109922	0.946842	0.367098	-7.7	73.57	54.04	-0.0484	-0.2939	-0.3534	
0.076372	0.976732	0.344772	-9.73	80.08	52.29	-0.0512	-0.2923	-0.3518	
0.037576	1.014674	0.332206	-15.96	88.48	51.45	-0.0426	-0.2956	-0.3597	
0.0183	0.88572	0.331352	-17.64	90.79	53.13	-0.0383	-0.2988	-0.3614	
0.018788	0.90829	0.342332	-11.48	89.53	48.79	-0.0244	-0.2897	-0.3615	
-0.001586	0.928786	0.369294	-7.14	94.22	43.96	-0.0285	-0.2897	-0.3692	
-0.00732	0.93818	0.384544	-4.69	93.17	39.2	-0.0101	-0.2884	-0.3741	
0.021106	0.915	0.399184	-3.43	94.78	35.91	-0.0018	-0.2808	-0.3726	
0.035746	0.876082	0.424072	-1.19	96.32	35.63	0.0009	-0.2884	-0.365	
0.021838	0.878522	0.426146	3.01	98.28	35.98	0.0277	-0.2841	-0.3669	
0.017324	0.912682	0.413702	-1.19	99.96	38.85	0.0378	-0.2936	-0.3765	
-0.020374	0.944646	0.418338	-3.85	102.97	41.58	0.0446	-0.2905	-0.3673	
-0.01891	0.932446	0.433222	-5.53	100.45	42.7	0.0543	-0.2798	-0.3642	
0.010858	0.885354	0.44408	-8.68	97.58	41.79	0.0559	-0.2907	-0.3706	
0.029646	0.843386	0.460306	-8.96	95.55	38.57	0.067	-0.2784	-0.3675	
0.022082	0.869372	0.458598	-7.35	98.07	37.87	0.07979999	-0.2801	-0.3708	
0.002074	0.8662	0.45567	-8.89	102.76	39.13	0.09519999	-0.2894	-0.3587	
0.03599	0.869006	0.447862	-8.33	104.79	38.15	0.0993	-0.2863	-0.3525	
-0.030988	0.930494	0.422608	-10.71	108.78	35.98	0.109	-0.2832	-0.3464	
-0.110166	0.953308	0.44286	-9.66	108.92	36.33	0.119	-0.2972	-0.3452	
-0.091012	0.933666	0.442494	-9.66	103.53	38.43	0.1358	-0.2836	-0.35	
-0.128832	0.921832	0.441152	-11.62	100.24	35.49	0.1329	-0.288	-0.3391	
-0.149328	0.91439	0.417118	-10.92	91.84	32.2	0.1428	-0.2836	-0.3439	
-0.145668	0.910486	0.420046	-9.66	84.35	32.27	0.1511	-0.2866	-0.33	
-0.113338	0.907802	0.429074	-10.08	76.51	31.36	0.1623	-0.2821	-0.3333	
-0.12505	0.871934	0.44286	-15.54	68.11	24.64	0.1736	-0.2838	-0.3335	
-0.148352	0.892064	0.452742	-11.13	62.72	20.79	0.1679	-0.2851	-0.3241	
-0.15128	0.89487	0.449204	-10.5	60.27	19.53	0.1833	-0.2761	-0.3273	
-0.145546	0.857904	0.438224	-12.46	54.39	17.64	0.1805	-0.2914	-0.3166	
-0.141032	0.858148	0.44896	-12.6	47.04	17.01	0.1946	-0.2823	-0.3229	
-0.135908	0.84485	0.463356	-13.51	43.26	17.22	0.1903	-0.2853	-0.3182	
-0.14823	0.844118	0.466406	-11.06	39.34	15.26	0.1961	-0.2916	-0.3215	
-0.174826	0.87474	0.474336	-8.33	37.17	12.88	0.1958	-0.2807	-0.312	
-0.215696	0.899994	0.43005	-8.47	32.62	8.68	0.1986	-0.2822	-0.3121	
-0.226676	0.89121	0.468236	-7.98	25.2	6.65	0.2057	-0.2854	-0.3122	
-0.194712	0.873764	0.490806	-8.89	18.83	3.64	0.2098	-0.2823	-0.3061	
-0.18605	0.836188	0.517036	-7.42	12.6	2.52	0.2071	-0.2854	-0.3107	
-0.166652	0.84912	0.500322	-4.97	6.44	-2.17	0.2196	-0.2808	-0.3015	
-0.186416	0.89548	0.309514	-3.15	3.64	-5.04	0.2169	-0.284	-0.3109	
-0.26718	0.836554	0.534116	0.21	4.69	-3.71	0.2083	-0.2776	-0.3044	
-0.12749	0.83082	0.491904	-1.96	-6.79	-5.88	0.2114	-0.2794	-0.3185	
-0.18361	0.873154	0.517158	-0.14	-8.47	-8.12	0.207	-0.2838	-0.3076	
-0.137982	0.843508	0.518012	-2.8	-7.21	-9.45	0.224	-0.2749	-0.3171	
-0.111752	0.83326	0.547414	-3.85	-8.54	-8.82	0.2239	-0.2763	-0.3124	
-0.13237	0.827038	0.539118	-3.43	-7.42	-11.83	0.221	-0.2746	-0.303	
-0.161772	0.837042	0.529114	0.14	-6.79	-9.94	0.2183	-0.2809	-0.3124	
-0.179584	0.865346	0.516426	5.25	-7.14	-9.94	0.2099	-0.2701	-0.323	
-0.138714	0.840092	0.527894	1.82	-9.94	-9.52	0.2141	-0.2747	-0.3122	
-0.106872	0.809226	0.531676	0.07	-13.58	-7.49	0.2182	-0.2731	-0.3061	
-0.137128	0.828624	0.530456	0.91	-11.62	-9.24	0.2171	-0.2749	-0.3247	
-0.165432	0.845216	0.518622	3.5	-9.87	-9.24	0.2085	-0.2778	-0.3184	
-0.189832	0.830332	0.505324	4.06	-10.92	-10.78	0.207	-0.2716	-0.3168	
-0.158844	0.809836	0.502762	3.01	-17.36	-10.92	0.2156	-0.2779	-0.3201	
-0.130418	0.822036	0.518622	2.94	-20.23	-10.99	0.2072	-0.2763	-0.3215	
-0.165188	0.843142	0.521184	3.43	-18.76	-12.88	0.2085	-0.2685	-0.3198	
-0.17873	0.843264	0.506422	4.27	-19.53	-13.86	0.2072	-0.2748	-0.3277	
-0.229726	0.821792	0.461892	5.39	-28.42	-18.27	0.203	-0.2686	-0.3291	
-0.221918	0.86437	0.465064	9.1	-33.6	-15.75	0.2113	-0.2624	-0.3245	
-0.203252	0.901824	0.49349	10.29	-36.47	-17.78	0.1946	-0.2777	-0.3244	
-0.186782	0.88755	0.512888	7.35	-40.25	-20.02	0.2085	-0.267	-0.3229	
-0.180438	0.866688	0.501054	5.95	-43.68	-23.73	0.1916	-0.2669	-0.3258	
-0.229238	0.871812	0.467504	10.01	-46.06	-28.98	0.189	-0.2747	-0.3321	
-0.310002	0.913292	0.42456	19.39	-50.89	-32.69	0.1961	-0.2748	-0.3353	
-0.338306	0.946964	0.392474	26.67	-61.04	-31.64	0.1875	-0.2669	-0.3304	
-0.181658	0.888892	0.407724	16.03	-74.06	-28.77	0.182	-0.2731	-0.3366	
-0.07747	0.834236	0.445056	10.64	-86.66	-35.98	0.175	-0.2746	-0.3412	
-0.20679	0.909632	0.43066	14.56	-80.85	-43.68	0.168	-0.2791	-0.3364	
-0.232288	0.909998	0.390522	18.76	-82.53	-40.95	0.1653	-0.2685	-0.3565	
-0.245708	0.91988	0.348554	19.04	-92.26	-43.4	0.1554	-0.273	-0.3502	
-0.20618	0.9394	0.353922	17.15	-107.31	-43.05	0.1511	-0.2682	-0.3454	
-0.110166	0.888526	0.360144	10.85	-117.46	-42.42	0.147	-0.2683	-0.3562	
0.007076	0.836066	0.399794	19.25	-123.27	-50.75	0.1121	-0.2758	-0.3697	
0.097844	0.95648	0.487146	28.7	-121.87	-48.09	0.1007	-0.2771	-0.3571	
0.108946	0.923784	0.480558	17.71	-110.74	-48.65	0.088	-0.2785	-0.3569	
-0.02135	0.960018	0.491782	19.11	-101.92	-55.3	0.0783	-0.2724	-0.3691	
0.05185	0.976732	0.51667	21.49	-98.98	-55.44	0.0756	-0.2847	-0.3724	
0.119438	0.926956	0.533018	18.13	-91.49	-53.27	0.0571	-0.2752	-0.3673	
0.134566	0.853634	0.51484	13.65	-80.57	-48.16	0.0573	-0.2815	-0.3751	
0.124074	0.828868	0.49593	12.04	-69.93	-40.04	0.0545	-0.286	-0.372	
0.057218	0.834114	0.48251	11.48	-55.51	-33.25	0.0389	-0.2873	-0.3656	
-0.012932	0.847046	0.470554	13.37	-45.36	-27.51	0.0516	-0.2813	-0.3657	
-0.046726	0.870104	0.467748	14.7	-40.67	-23.38	0.0431	-0.2812	-0.3656	
-0.068808	0.890478	0.47214	13.09	-38.99	-19.6	0.0404	-0.2874	-0.3687	
-0.063928	0.885964	0.469578	8.61	-41.86	-15.89	0.0348	-0.3027	-0.3611	
-0.043066	0.883402	0.46726	5.53	-44.66	-14.84	0.0291	-0.2903	-0.367	
-0.05307	0.864248	0.462868	3.43	-42.28	-15.75	0.0235	-0.2964	-0.3608	
-0.060512	0.865834	0.461282	5.95	-42.49	-18.55	0.0264	-0.2919	-0.3717	
-0.06283	0.905362	0.459086	9.38	-47.11	-17.92	0.0193	-0.2995	-0.3639	
-0.059048	0.907558	0.45262	10.64	-49.07	-16.31	0.0136	-0.2855	-0.3667	
-0.044652	0.911828	0.45018	12.04	-50.33	-16.59	-0.0004	-0.2823	-0.3664	
-0.054778	0.91073	0.441274	11.2	-51.94	-18.41	0.0054	-0.301	-0.373	
-0.05856	0.904264	0.430416	10.08	-53.34	-20.86	-0.0018	-0.2976	-0.3604	
-0.06344	0.92537	0.430416	8.33	-52.71	-23.66	-0.0102	-0.3068	-0.3573	
-0.079544	0.94855	0.44347	7	-52.08	-24.92	-0.006	-0.3037	-0.3542	
-0.076494	0.940986	0.443226	5.18	-51.87	-26.32	-0.0244	-0.3019	-0.3508	
-0.059658	0.911218	0.405894	1.54	-52.15	-27.93	-0.0158	-0.3021	-0.3602	
-0.059536	0.923784	0.415532	1.33	-52.64	-29.19	-0.0186	-0.3097	-0.3556	
-0.086742	0.947086	0.416264	0.14	-54.25	-27.51	-0.0299	-0.3112	-0.3555	
-0.102114	0.942328	0.43249	-0.7	-54.81	-26.32	-0.0314	-0.3065	-0.3523	
-0.086132	0.913536	0.424072	-3.08	-61.46	-28.14	-0.0285	-0.2973	-0.3584	
-0.050142	0.892674	0.428464	0.49	-68.04	-29.26	-0.0454	-0.3048	-0.3551	
-0.052704	0.918904	0.435052	0.07	-69.02	-30.66	-0.0539	-0.3062	-0.3504	
-0.051606	0.916586	0.441518	1.19	-67.48	-30.24	-0.0553	-0.3108	-0.3488	
-0.038796	0.911706	0.427122	0.56	-66.5	-32.2	-0.0695	-0.309	-0.3439	
-0.03355	0.939278	0.422974	-0.42	-67.62	-32.13	-0.0751	-0.3013	-0.3484	
-0.051118	0.97478	0.415654	-2.66	-66.5	-31.15	-0.0736	-0.3182	-0.3424	
-0.061976	0.98332	0.420412	-7.42	-68.74	-28.49	-0.0766	-0.315	-0.333	
-0.041236	0.968314	0.423584	-14.7	-70.98	-28.91	-0.0836	-0.3103	-0.3375	
-0.009638	0.939156	0.434808	-21.21	-72.38	-30.17	-0.0951	-0.3024	-0.3325	
0.030378	0.918416	0.434076	-28.35	-72.73	-28.7	-0.09779999	-0.307	-0.331	
0.045506	0.920246	0.44835	-34.58	-68.25	-29.26	-0.1019	-0.304	-0.3418	
0.022936	0.929884	0.463478	-37.73	-63.56	-32.2	-0.1105	-0.2992	-0.3369	
-0.002196	0.873642	0.498492	-41.86	-57.4	-33.39	-0.1176	-0.2975	-0.3321	
0.009638	0.85522	0.535824	-38.57	-55.3	-36.96	-0.119	-0.2929	-0.3383	
0.013542	0.861198	0.532652	-33.95	-52.64	-43.12	-0.1204	-0.2837	-0.3428	
-0.001952	0.851438	0.531676	-30.66	-51.24	-45.57	-0.1232	-0.2898	-0.3397	
0.024522	0.836676	0.551684	-29.47	-51.03	-48.23	-0.1273	-0.2961	-0.349	
0.029768	0.798368	0.563518	-29.33	-50.75	-49.42	-0.1302	-0.2867	-0.3458	
0.07442	0.723216	0.595726	-25.41	-51.03	-47.67	-0.1247	-0.2805	-0.3396	
0.09516	0.686616	0.622444	-21.07	-44.52	-42.84	-0.1415	-0.2866	-0.3456	
0.076616	0.660386	0.651968	-14.28	-34.65	-38.5	-0.1317	-0.279	-0.3456	
0.07381	0.644038	0.696376	-9.03	-28.35	-31.08	-0.1332	-0.2819	-0.3363	
0.055388	0.626714	0.710772	0.77	-26.32	-24.78	-0.1374	-0.282	-0.3425	
0.02806	0.670634	0.673562	8.89	-18.83	-23.03	-0.1402	-0.2758	-0.3455	
0.005734	0.6893	0.654896	14.42	-10.5	-12.67	-0.1375	-0.288	-0.3301	
-0.017568	0.71736	0.644282	19.88	-8.96	-8.19	-0.1403	-0.2941	-0.327	
-0.026474	0.768356	0.624274	21.63	-6.09	-6.79	-0.1275	-0.2882	-0.3365	
-0.032208	0.821304	0.598776	21.28	-3.22	-5.95	-0.1362	-0.2818	-0.327	
-0.059414	0.84241	0.58377	18.13	-0.56	-3.01	-0.1416	-0.2911	-0.3379	
-0.062586	0.823012	0.574498	16.03	1.05	-1.54	-0.1362	-0.2925	-0.3209	
-0.05612	0.82838	0.560712	16.17	-0.21	-1.47	-0.1304	-0.3004	-0.3257	
-0.058072	0.844972	0.548268	13.72	0.84	-0.84	-0.1361	-0.3033	-0.3179	
-0.06344	0.842288	0.565104	12.25	0.49	0.98	-0.1374	-0.3065	-0.3257	
-0.050264	0.806176	0.585234	11.83	-1.26	1.82	-0.1319	-0.3018	-0.3164	
-0.023058	0.816302	0.580354	13.44	-1.4	0.77	-0.1389	-0.3079	-0.3148	
-0.020618	0.813008	0.554246	9.66	2.73	5.53	-0.1332	-0.3111	-0.3181	
-0.024766	0.806054	0.534848	6.3	7.42	9.45	-0.1487	-0.3093	-0.3162	
-0.044164	0.823988	0.525942	3.5	12.11	14.98	-0.1402	-0.3156	-0.3149	
-0.043676	0.827648	0.559248	1.4	14.35	18.41	-0.1417	-0.3079	-0.3194	
-0.032086	0.825574	0.568032	0.42	15.68	17.64	-0.1403	-0.3109	-0.3148	
-0.01891	0.807762	0.571692	0.7	18.48	17.71	-0.1402	-0.3079	-0.3195	
0.008905999	0.803492	0.564738	2.31	20.72	18.76	-0.1319	-0.3033	-0.3164	
0.005612	0.815448	0.54229	2.03	24.22	21.35	-0.1373	-0.3096	-0.3273	
-0.02623	0.817766	0.546926	4.2	26.32	25.83	-0.1347	-0.3018	-0.321	
-0.015006	0.80337	0.551074	5.04	27.16	24.85	-0.129	-0.3065	-0.3212	
0.027328	0.767624	0.579012	5.81	25.97	24.43	-0.1417	-0.2972	-0.3255	
0.06771	0.735538	0.609756	9.03	24.99	25.69	-0.1359	-0.3142	-0.3212	
0.115656	0.721874	0.607194	13.09	27.58	27.86	-0.1304	-0.3004	-0.3273	
0.13359	0.732732	0.576328	16.8	37.1	31.43	-0.1332	-0.3049	-0.3195	
0.150792	0.749934	0.552538	20.58	48.37	36.96	-0.1331	-0.3111	-0.3227	
0.140788	0.808616	0.493002	23.31	67.83	47.95	-0.1205	-0.3112	-0.3183	
0.077348	0.881572	0.47397	23.59	79.17	58.17	-0.1202	-0.3146	-0.3385	
0.06222	0.924394	0.477996	21.21	80.71	64.82	-0.1191	-0.3036	-0.326	
0.074664	0.956236	0.454328	17.57	82.88	68.04	-0.1203	-0.3175	-0.3261	
0.077958	0.961848	0.442006	12.88	84.14	68.74	-0.1147	-0.3054	-0.3385	
0.062708	0.927932	0.432124	9.66	88.48	71.4	-0.1117	-0.3162	-0.3387	
0.050386	0.937082	0.407358	12.46	88.2	72.94	-0.1089	-0.3102	-0.3464	
0.048068	0.953064	0.402112	14.77	87.36	73.22	-0.1021	-0.3024	-0.3355	
0.03233	0.95587	0.394304	20.3	85.26	69.86	-0.0865	-0.3011	-0.3435	
0.062952	0.952332	0.384422	20.37	79.66	62.86	-0.0964	-0.3009	-0.3356	
0.126392	0.94733	0.31598	17.08	76.58	51.38	-0.0794	-0.2997	-0.3468	
0.065026	1.013576	0.321592	15.26	74.13	42.84	-0.0862	-0.312	-0.3515	
-0.022936	1.039562	0.318054	11.41	79.24	39.06	-0.0791	-0.3121	-0.3547	
-0.037454	1.02846	0.317688	10.57	75.67	36.61	-0.0737	-0.3074	-0.3438	
-0.036966	1.049932	0.32208	9.45	71.54	33.6	-0.0681	-0.3075	-0.3439	
-0.060512	1.064572	0.360388	3.15	61.95	31.5	-0.0553	-0.3062	-0.3519	
-0.021106	1.034926	0.366122	-0.56	52.85	28.49	-0.0582	-0.3	-0.3533	
-0.005246	0.996374	0.370148	-3.36	45.43	25.55	-0.0553	-0.3093	-0.3535	
0.002318	0.956724	0.378444	-3.64	40.32	21.77	-0.0511	-0.3063	-0.3535	
0.001342	0.924638	0.376736	-3.99	40.39	19.81	-0.0398	-0.3033	-0.3521	
-0.006588	0.925126	0.369416	-3.78	41.86	19.81	-0.0341	-0.3095	-0.3523	
-0.037454	0.94306	0.376126	-5.18	44.38	19.74	-0.03	-0.2972	-0.3553	
-0.052704	0.951478	0.390278	-6.02	40.39	15.96	-0.0242	-0.3082	-0.3617	
-0.033672	0.95465	0.399428	-7	35.14	9.66	-0.0184	-0.313	-0.3666	
-0.012078	0.946964	0.403088	-5.46	29.33	3.57	-0.0186	-0.296	-0.3663	
0.015616	0.91256	0.427732	-2.94	25.62	0.07	-0.0202	-0.3004	-0.3524	
0.059536	0.897188	0.44896	-2.59	23.87	-4.76	-0.0143	-0.3099	-0.3619	
0.081862	0.873276	0.471042	-1.96	24.5	-7.77	-0.0157	-0.3068	-0.3619	
0.105164	0.846314	0.48983	-1.54	25.76	-7	-0.0045	-0.3022	-0.3604	
0.132126	0.83997	0.519964	1.19	29.47	-3.08	-0.0075	-0.3006	-0.3526	
0.164822	0.84668	0.511912	1.33	35.49	1.12	0.0038	-0.3024	-0.3621	
0.122122	0.846558	0.488366	0.35	47.95	6.79	0.0067	-0.3055	-0.3653	
0.091866	0.85461	0.467382	0.21	54.81	11.13	0.0067	-0.307	-0.3591	
0.080032	0.875106	0.473116	0.42	61.11	15.89	0.0265	-0.3058	-0.3703	
0.07686	0.883158	0.482754	0.7	68.18	21.42	0.0207	-0.301	-0.3593	
0.078934	0.854976	0.476654	-1.89	73.57	27.3	0.032	-0.3073	-0.3611	
0.06893	0.842776	0.443592	-2.1	79.73	31.22	0.0347	-0.2918	-0.3594	
0.050508	0.854488	0.43066	0.07	83.93	35.28	0.0475	-0.3013	-0.3643	
0.03782	0.895114	0.412116	2.45	89.11	39.97	0.0446	-0.295	-0.3596	
0.027938	0.911584	0.410652	3.22	93.38	44.03	0.0559	-0.2983	-0.3598	
0.03111	0.912804	0.4087	2.38	96.32	46.48	0.0715	-0.3032	-0.3663	
0.026352	0.930982	0.380518	0.42	98.84	45.57	0.0783	-0.3077	-0.3494	
-0.012322	0.927688	0.365634	-2.94	102.83	45.43	0.081	-0.3014	-0.3447	
-0.047702	0.954162	0.363438	-3.99	105.21	46.69	0.0853	-0.3108	-0.3433	
-0.067954	0.966362	0.350872	-4.06	106.75	47.67	0.1035	-0.3078	-0.3358	
-0.071858	0.952942	0.359778	-6.44	101.99	44.8	0.1077	-0.3032	-0.3405	
-0.077348	0.935984	0.361364	-11.41	97.44	41.37	0.1147	-0.3079	-0.3344	
-0.091988	0.926346	0.387716	-11.83	88.55	39.55	0.1273	-0.3064	-0.3253	
-0.074664	0.902312	0.393816	-11.41	83.93	39.34	0.1386	-0.3127	-0.3271	
-0.062342	0.923418	0.391864	-9.38	80.85	38.01	0.1427	-0.308	-0.3224	
-0.100528	0.954284	0.382958	-7.56	81.06	36.54	0.1456	-0.3142	-0.3194	
-0.093208	0.971242	0.402966	-3.5	75.46	32.83	0.1539	-0.3112	-0.3164	
-0.094794	0.95465	0.415288	-6.58	71.4	29.54	0.1539	-0.3111	-0.3133	
-0.111142	0.925126	0.421266	-8.68	67.97	26.04	0.1651	-0.3097	-0.3119	
-0.108336	0.894504	0.397232	-9.45	63.63	22.89	0.1638	-0.319	-0.3136	
-0.122854	0.895724	0.37759	-6.93	58.38	21.35	0.182	-0.3114	-0.3075	
-0.151524	0.89182	0.372954	-4.83	54.74	21.21	0.1707	-0.3127	-0.3027	
-0.15189	0.926468	0.374662	-0.14	47.6	19.81	0.1763	-0.3143	-0.3028	
-0.149694	0.930372	0.38308	-1.47	39.41	18.48	0.1804	-0.3097	-0.2982	
-0.163968	0.94367	0.379542	-2.38	31.78	14.35	0.1776	-0.3188	-0.2905	
-0.163968	0.941596	0.386008	-4.13	22.89	8.33	0.1902	-0.3174	-0.2891	
-0.160918	0.925614	0.399428	-5.67	16.03	2.87	0.1875	-0.3129	-0.2968	
-0.152378	0.906338	0.41114	-3.08	8.54	-3.43	0.1917	-0.3175	-0.2969	
-0.141764	0.895358	0.40687	-0.07	4.62	-6.3	0.1987	-0.316	-0.2908	
-0.131516	0.903776	0.415044	2.59	0.42	-8.4	0.1848	-0.3252	-0.2984	
-0.131638	0.907802	0.419802	2.87	-3.36	-9.73	0.1904	-0.3237	-0.2938	
-0.107604	0.901092	0.432856	1.75	-7	-10.85	0.1917	-0.3129	-0.2968	
-0.101382	0.898774	0.43127	0.91	-8.54	-11.55	0.2086	-0.3193	-0.2956	
