Sensor string: E
Serial number: 1970-01-0000
Firmware version: 2,015
Hardware version: 2,2
Calibration quality: 5
ax	ay	az	gx	gy	gz	mx	my	mz

-1.006866	0.092232	-0.04453	-2.8	1.68	0.49	2.8759	2.199	1.2646	Reference
-1.008818	0.093696	-0.04392	-2.8	1.68	0.42	2.8803	2.2037	1.2632	
-1.008452	0.100406	-0.040748	-1.12	1.54	0.63	2.8855	2.1857	1.256	
-1.010038	0.100528	-0.03965	-0.35	1.26	0.84	2.8826	2.1932	1.2528	
-1.007598	0.108336	-0.041968	0.63	1.33	0.84	2.8676	2.1914	1.2445	
-1.011014	0.10431	-0.051972	0.56	1.12	0.49	2.8742	2.199	1.2584	
-1.018456	0.091744	-0.055266	1.26	0.35	0.49	2.8738	2.193	1.2539	
-1.011136	0.096014	-0.051118	3.36	-0.49	0.56	2.8815	2.1976	1.2603	
-1.00345	0.113826	-0.050386	3.71	-0.49	0.63	2.8781	2.1931	1.2511	
-1.011868	0.115168	-0.051484	1.19	0.63	0.21	2.881	2.1825	1.2559	
-1.012844	0.105286	-0.050264	-0.14	0.35	0.21	2.8781	2.1962	1.2495	
-1.009184	0.105652	-0.052216	1.12	-0.49	0.42	2.8829	2.1916	1.2619	
-1.00589	0.108458	-0.044042	0.91	-0.77	0.56	2.8719	2.1855	1.2463	
-1.006622	0.107848	-0.040992	0.28	-0.49	0.56	2.8741	2.1884	1.2631	
-1.005036	0.10553	-0.04636	-0.42	0	0.56	2.8733	2.1855	1.2448	
-1.008086	0.104066	-0.044774	-2.03	0.91	0.49	2.8783	2.1915	1.2572	
-1.013088	0.109312	-0.049166	-2.59	0.91	0.42	2.8826	2.1871	1.2559	
-1.008086	0.105042	-0.050264	-1.89	0.77	0.42	2.8736	2.1869	1.2525	
-1.009672	0.099064	-0.045384	-2.03	0.77	0.28	2.8756	2.1991	1.257	
-1.013088	0.09942999	-0.045262	-1.82	0.56	0.28	2.8813	2.1916	1.2573	
-1.006012	0.101138	-0.0488	-0.84	0	0.07	2.8752	2.1854	1.2556	
-1.006378	0.102236	-0.045262	-1.05	0.07	0.07	2.892	2.1948	1.2669	
-1.009062	0.102114	-0.045384	-1.61	0.49	0.14	2.8755	2.1899	1.2616	
-1.007964	0.102602	-0.047214	-1.33	0.63	0.21	2.8795	2.1901	1.2512	
-1.00894	0.10126	-0.046726	-1.4	0.7	0.28	2.8793	2.1917	1.245	
-1.008574	0.10004	-0.04636	-1.61	1.05	0.28	2.8739	2.1976	1.2523	
-1.010038	0.10187	-0.047824	-1.4	1.05	0.07	2.8769	2.1839	1.2633	
-1.007964	0.10126	-0.045872	-0.91	0.98	0	2.8785	2.193	1.2617	
-1.011136	0.10309	-0.047458	-0.14	0.7	-0.14	2.8756	2.1945	1.2601	
-1.01016	0.10614	-0.049898	0.07	0.49	-0.14	2.8795	2.1855	1.2543	
-1.007232	0.10492	-0.048556	-0.28	0.28	-0.14	2.8767	2.1885	1.2556	
-1.009794	0.10126	-0.051606	-0.56	0.42	-0.28	2.8782	2.19	1.2557	
-1.014186	0.09857599	-0.04819	-0.42	0.07	-0.28	2.8769	2.1869	1.2602	
-1.008208	0.11102	-0.046482	1.26	-0.56	0.14	2.8739	2.1823	1.2617	
-1.005158	0.111874	-0.047946	0.98	-0.56	0.14	2.8764	2.1764	1.2542	
-1.009428	0.100528	-0.049898	-0.28	0.28	-0.14	2.8927	2.192	1.2502	
-0.992714	0.095404	-0.05612	0.28	0.42	-0.21	2.8857	2.1902	1.259	
-1.002596	0.096624	-0.051118	-0.63	1.19	0	2.8792	2.1887	1.2451	
-1.001742	0.0915	-0.075762	1.33	2.03	0	2.8779	2.1916	1.248	
-1.022604	0.109068	-0.095404	-3.29	2.31	-0.56	2.8854	2.1872	1.253	
-1.03334	0.11468	-0.11834	-4.62	0.56	-1.61	2.8782	2.1916	1.2541	
-1.044076	0.1159	-0.129808	-2.66	-0.14	-1.82	2.8733	2.1855	1.2464	
-1.043222	0.124318	-0.130296	-2.87	-1.4	-2.73	2.8816	2.1976	1.2618	
-1.0309	0.128954	-0.136396	-1.47	-4.69	-3.5	2.8785	2.193	1.2602	
-1.048956	0.124562	-0.121634	0.7	-8.82	-3.5	2.8765	2.1931	1.2479	
-1.03517	0.129076	-0.124074	3.57	-13.09	-4.13	2.8765	2.1886	1.2495	
-1.039562	0.141154	-0.118706	-1.75	-15.89	-5.32	2.8794	2.1932	1.2465	
-1.045418	0.128344	-0.119804	-3.85	-19.6	-6.93	2.8813	2.2114	1.2479	
-1.057252	0.118462	-0.116022	-1.96	-25.48	-7.63	2.878	2.2084	1.2402	
-1.06384	0.128588	-0.104066	2.87	-32.69	-8.19	2.8671	2.1946	1.2323	
-1.071038	0.131394	-0.095282	-1.54	-37.87	-9.45	2.8629	2.199	1.2336	
-1.059082	0.119804	-0.078202	0.14	-49.77	-11.27	2.8745	2.1963	1.2326	
-1.051884	0.107604	-0.083326	-1.26	-57.54	-12.74	2.8635	2.2039	1.2107	
-1.063108	0.113094	-0.095282	1.96	-66.15	-14.21	2.8594	2.2037	1.2181	
-1.068354	0.099796	-0.066002	4.76	-75.04	-14.21	2.8542	2.2007	1.2012	
-1.044564	0.083326	-0.02501	9.73	-84.84	-14.56	2.8438	2.2097	1.1915	
-1.024678	0.09467199	0.008784	11.97	-95.69	-14.98	2.8318	2.208	1.1849	
-1.016138	0.081984	0.033306	8.54	-99.05	-15.12	2.8085	2.2124	1.1519	
-0.99613	0.067588	0.036722	9.24	-102.48	-14.42	2.8041	2.2046	1.1548	
-0.984052	0.040992	0.087108	10.08	-107.94	-15.54	2.7856	2.2151	1.1265	
-0.96136	0.030256	0.117364	7.63	-111.23	-15.82	2.7809	2.2136	1.1202	
-0.944036	0.027816	0.151036	6.37	-114.31	-15.82	2.7629	2.2133	1.1087	
-0.938912	0.023424	0.185928	12.95	-117.46	-14.42	2.748	2.2191	1.0989	
-0.908656	0.040138	0.244976	17.01	-121.24	-12.88	2.741	2.2025	1.0805	
-0.905972	0.052826	0.314638	16.38	-124.67	-9.59	2.7197	2.2038	1.0613	
-0.872788	0.032574	0.354166	7.07	-124.04	-8.26	2.7044	2.2112	1.0407	
-0.85034	0.006344	0.416142	4.55	-125.51	-8.26	2.6869	2.2078	1.043	
-0.81313	0.012444	0.450912	4.48	-127.54	-7.98	2.6644	2.2135	1.0283	
-0.770186	0.022204	0.496418	5.6	-127.33	-7.84	2.6506	2.2057	1.0171	
-0.733586	-0.009272	0.56669	3.78	-122.78	-8.47	2.6343	2.2038	1.0134	
-0.703208	-0.024522	0.61122	4.41	-120.47	-6.86	2.6075	2.2018	1.0016	
-0.65758	-0.00183	0.652822	1.33	-117.39	-4.62	2.5886	2.209	1.0007	
-0.620614	-0.005002	0.68869	0.56	-116.27	-4.27	2.5716	2.2012	0.9833	
-0.56974	-0.017812	0.71248	0.49	-115.22	-2.52	2.5631	2.201	0.989	
-0.544608	0.003904	0.72651	1.47	-113.54	-0.56	2.5466	2.2068	0.976	
-0.506788	-0.010614	0.752374	-2.1	-111.09	-0.7	2.5216	2.2001	0.9765	
-0.47458	0.001098	0.779214	-2.17	-109.55	0.07	2.5023	2.1952	0.9742	
-0.443836	0.009272	0.795562	-0.21	-106.89	1.75	2.4903	2.1996	0.9645	
-0.440176	-0.016592	0.836188	-2.31	-106.75	1.12	2.4757	2.2007	0.9638	
-0.399794	0.002806	0.833382	-3.36	-101.36	4.48	2.4566	2.2003	0.9615	
-0.351604	-0.008052	0.861808	-0.56	-105.77	2.94	2.4183	2.1965	0.9568	
-0.33001	-0.00549	0.890722	0.7	-104.65	3.15	2.4007	2.2006	0.9545	
-0.289994	0.010126	0.90097	-0.98	-102.13	3.64	2.3918	2.1974	0.9526	
-0.241438	0.010736	0.91378	-6.09	-96.32	6.09	2.3716	2.1999	0.9578	
-0.215086	-0.00061	0.939278	-8.54	-90.58	8.75	2.3732	2.2045	0.9593	
-0.17934	0.004758	0.962092	-5.53	-89.88	8.68	2.3523	2.1934	0.9554999	
-0.168482	-0.014274	0.97295	-3.08	-86.59	7.49	2.3324	2.1989	0.9667	
-0.160064	-0.009638	0.9943	-4.27	-78.47	8.19	2.3268	2.1957	0.9742	
-0.139446	-0.003782	1.000278	-3.57	-76.16	8.05	2.3105	2.1984	0.9673	
-0.101626	-0.015128	1.01687	-3.08	-74.69	6.58	2.2961	2.1995	0.9728	
-0.070394	-0.011712	1.018334	-3.99	-69.3	6.93	2.2858	2.1932	0.9739	
-0.061854	-0.03111	1.023458	-4.06	-65.03	4.55	2.286	2.1977	0.9754	
-0.027938	-0.014274	1.035292	-3.78	-62.16	3.43	2.2671	2.1988	0.9776	
-0.012932	-0.007564	1.039928	-3.92	-59.22	3.29	2.2526	2.203	0.98	
0.008417999	-0.023302	1.025532	-5.04	-55.79	3.5	2.2457	2.2012	0.9903	
0.04392	-0.008905999	1.034316	-4.55	-53.2	3.29	2.2355	2.1949	0.993	
0.06771	-0.013542	1.047126	-6.09	-47.88	4.2	2.2313	2.2069	0.9927	
0.094306	-0.018788	1.05469	-6.02	-43.26	3.08	2.2285	2.2022	0.9972	
0.106506	-0.031964	1.058106	-5.67	-39.2	1.68	2.2166	2.2051	0.9921	
0.105164	-0.039162	1.058472	-6.02	-33.67	1.54	2.2171	2.1897	1.0105	
0.111142	-0.043798	1.065548	-5.95	-29.47	1.61	2.2041	2.2	1.0099	
0.132858	-0.055876	1.06811	-6.93	-24.64	0.98	2.206	2.2091	1.0144	
0.138104	-0.049654	1.064938	-6.79	-19.11	2.1	2.201	2.2046	1.0036	
0.147864	-0.056608	1.06506	-3.08	-15.96	1.05	2.2014	2.206	1.0127	
0.139812	-0.058926	1.062376	-3.01	-10.22	0.91	2.1967	2.209	1.0018	
0.131272	-0.065758	1.05103	-1.89	-3.78	1.19	2.1984	2.1998	1.0127	
0.133834	-0.059658	1.059936	-0.77	0.21	1.75	2.197	2.212	1.0094	
0.133834	-0.05551	1.06872	-0.14	4.27	1.96	2.1966	2.2029	1.0049	
0.127856	-0.053314	1.067256	0.49	8.05	2.03	2.1935	2.1999	1.0003	
0.130662	-0.054046	1.074454	1.12	12.18	2.45	2.2029	2.2136	1.0081	
0.136518	-0.055266	1.09312	2.17	16.94	1.68	2.2016	2.2166	1.0111	
0.139812	-0.032086	1.09007	4.69	22.68	1.61	2.1971	2.2043	1.0141	
0.12932	-0.03904	1.093852	5.88	28.14	1.96	2.2043	2.2076	1.0113	
0.116998	-0.044774	1.086654	6.65	33.6	1.54	2.2139	2.2049	0.9965	
0.110532	-0.048556	1.09617	8.82	38.57	1.75	2.2172	2.2034	1.0074	
0.110898	-0.042456	1.091412	11.48	43.54	0.98	2.2172	2.211	1.0027	
0.10004	-0.035014	1.082994	13.09	49.77	0.35	2.2182	2.199	0.9967999	
0.077958	-0.030988	1.071892	13.58	55.58	0.14	2.2338	2.1933	0.9899	
0.056974	-0.015982	1.06933	14.21	61.11	-0.56	2.2413	2.198	0.9917	
0.035624	-0.009638	1.061156	14.77	66.29	-0.91	2.2486	2.1967	0.992	
0.010126	0.005002	1.053104	16.24	70.98	-1.61	2.2544	2.1923	0.9923	
-0.01403	0.010736	1.039318	15.96	76.51	-2.38	2.2618	2.2077	0.9863999	
-0.040992	0.011712	1.019066	13.79	82.32	-2.87	2.2744	2.2035	0.9763	
-0.108946	0.01281	0.991372	11.2	89.74	-4.34	2.3061	2.1861	0.9734	
-0.14701	0.008174	0.979416	14.07	92.96	-5.04	2.3179	2.1879	0.9739	
-0.18605	0.005856	0.96502	15.05	97.72	-5.18	2.3371	2.1913	0.9762	
-0.220332	0.011224	0.942938	14.42	101.08	-5.46	2.351	2.1888	0.9601	
-0.261202	0.018056	0.916952	11.76	104.86	-5.11	2.3652	2.1877	0.9516	
-0.272182	-0.011712	0.885354	1.05	105.28	-6.79	2.3804	2.1849	0.966	
-0.331352	-0.000244	0.882426	1.68	102.83	-4.76	2.3901	2.1715	0.9604	
-0.370148	0.020984	0.84973	1.12	109.9	-3.5	2.4159	2.1871	0.9751	
-0.389058	0.02013	0.8113	-8.19	112.35	-2.03	2.4317	2.1906	0.9666	
-0.44225	0	0.798978	14.14	112.7	0.84	2.454	2.191	0.9752	
-0.490684	0.037454	0.75701	15.68	125.23	-0.56	2.4698	2.1854	0.9714	
-0.509716	0.02196	0.748836	11.2	119.35	1.4	2.4846	2.1918	0.972	
-0.539972	0.041602	0.708454	8.05	119.77	3.64	2.5143	2.1893	0.9824	
-0.569618	0.030622	0.689056	-5.18	110.18	0.98	2.5186	2.1894	0.9811	
-0.608292	0.040382	0.67039	0.14	112.28	4.13	2.5437	2.2006	0.9805	
-0.638792	0.043188	0.63318	-4.9	115.85	6.65	2.557	2.1948	0.9873	
-0.665266	0.058682	0.593042	-4.55	117.81	8.26	2.5781	2.1936	1.0019	
-0.695156	0.064538	0.578646	0.77	117.74	9.66	2.5955	2.1894	1.0012	
-0.741272	0.066856	0.532042	-3.5	118.93	11.34	2.6211	2.199	1.0144	
-0.753472	0.063684	0.504348	-4.97	118.58	11.83	2.6524	2.1904	1.0326	
-0.781654	0.087718	0.488122	-1.61	119.63	13.09	2.6642	2.1968	1.0315	
-0.795928	0.083814	0.44042	-11.41	121.94	15.47	2.6838	2.1879	1.0492	
-0.81618	0.06734399	0.398574	-12.53	121.73	16.24	2.6973	2.1912	1.0559	
-0.840458	0.07747	0.384422	-8.33	120.96	17.29	2.7186	2.2006	1.0719	
-0.872666	0.094306	0.360144	-5.74	120.61	16.87	2.7291	2.1931	1.0801	
-0.880962	0.109068	0.2989	-10.99	121.45	18.48	2.7549	2.192	1.1041	
-0.879864	0.115046	0.238998	-7.84	119.84	20.16	2.7714	2.1922	1.1139	
-0.9211	0.13359	0.211548	-4.13	117.39	20.44	2.7823	2.1847	1.1328	
-0.943914	0.125538	0.175924	-6.02	117.88	21.42	2.7945	2.1986	1.1377	
-0.94611	0.138836	0.0976	-2.03	111.79	21.84	2.8054	2.1864	1.1612	
-0.972584	0.154818	0.031964	2.24	111.16	21.63	2.819	2.1866	1.1709	
-0.973194	0.133102	0.007076	0.91	110.25	20.72	2.8234	2.1821	1.1742	
-0.97234	0.151768	-0.040138	9.52	106.96	19.88	2.8476	2.1794	1.1935	
-0.950868	0.177266	-0.095282	15.54	102.27	19.67	2.8484	2.1838	1.2103	
-0.94245	0.198738	-0.128466	20.23	95.83	19.53	2.8504	2.1746	1.2287	
-0.982832	0.202642	-0.117364	7.49	100.94	16.59	2.8685	2.1764	1.2402	
-0.97356	0.162138	-0.158722	28	112	24.85	2.878	2.152	1.2698	
-0.931104	0.180072	-0.262666	38.01	101.43	21.07	2.8829	2.1626	1.2775	
-0.994422	0.173484	-0.28487	33.88	97.65	19.46	2.8863	2.1549	1.293	
-0.996984	0.200202	-0.274378	34.79	96.32	19.74	2.8878	2.1443	1.2993	
-1.012722	0.21045	-0.309758	33.11	88.2	16.73	2.9004	2.1383	1.3227	
-1.01809	0.224114	-0.34465	33.53	79.17	14.14	2.9006	2.1382	1.3273	
-1.009672	0.223016	-0.371734	28.07	68.74	12.53	2.9011	2.1381	1.3395	
-0.999424	0.242536	-0.383568	31.92	65.52	14.14	2.909	2.132	1.3567	
-0.995642	0.25742	-0.36539	18.97	57.05	10.92	2.9063	2.1288	1.3642	
-0.95038	0.240218	-0.364414	20.16	52.43	9.87	2.9096	2.1227	1.3766	
-0.94367	0.225944	-0.3904	18.41	51.1	8.4	2.923	2.1214	1.3833	
-0.96197	0.219844	-0.405772	13.02	49.7	6.09	2.9165	2.1195	1.4028	
-0.947208	0.210328	-0.442006	17.85	44.87	4.97	2.9177	2.1211	1.3968	
-0.903288	0.220088	-0.472628	21.7	39.83	6.3	2.9105	2.1133	1.4026	
-0.905362	0.217038	-0.460184	15.26	40.81	6.58	2.9211	2.1135	1.4122	
-0.877424	0.20679	-0.479094	11.06	42.21	6.16	2.9157	2.1178	1.4196	
-0.840702	0.203008	-0.483974	12.67	43.75	5.88	2.9274	2.1135	1.4216	
-0.828746	0.217404	-0.455548	9.52	47.39	5.04	2.9173	2.1071	1.4289	
-0.845338	0.182512	-0.474458	3.01	48.93	3.57	2.918	2.1054	1.4457	
-0.875228	0.174826	-0.509228	6.44	47.39	4.97	2.9231	2.1038	1.4657	
-1.097024	0.223138	-0.293532	-95.69	40.95	-14.63	2.9175	2.1067	1.4685	
-0.69296	0.175436	-0.527894	-78.12	33.74	-13.23	2.9261	2.1099	1.4643	
-0.821182	0.26657	-0.740662	52.64	47.74	1.89	2.922	2.1113	1.4702	
-0.881938	0.27389	-0.579622	-15.05	25.48	-1.05	2.9148	2.1126	1.4714	
-0.86864	0.26047	-0.504958	-17.64	34.16	1.4	2.9178	2.102	1.4792	
-0.86132	0.248148	-0.526918	-6.09	44.66	5.88	2.9196	2.1096	1.4838	
-0.82716	0.246806	-0.513986	-8.54	45.57	6.44	2.9246	2.105	1.5008	
-0.857416	0.234118	-0.528382	-1.61	38.29	6.86	2.9158	2.1093	1.4958	
-0.85339	0.240462	-0.544364	0.14	30.38	5.6	2.9218	2.1049	1.5037	
-0.809958	0.235582	-0.559858	0.14	24.15	4.27	2.9178	2.1153	1.5065	
-0.818742	0.241682	-0.562786	-4.41	22.68	4.2	2.9132	2.1	1.5095	
-0.845948	0.260958	-0.588772	1.68	19.53	2.94	2.9199	2.1015	1.5281	
-0.846924	0.26779	-0.620126	2.38	19.6	2.1	2.9199	2.103	1.528	
-0.813862	0.262788	-0.620126	-1.05	20.58	2.31	2.9173	2.1105	1.5309	
-0.77958	0.248026	-0.605486	-5.32	17.92	2.24	2.923	2.1061	1.5312	
-0.768234	0.259128	-0.605242	-1.33	14.7	2.03	2.9202	2.0984	1.5372	
-0.754936	0.269498	-0.607438	0.63	14	1.05	2.9098	2.1043	1.5306	
-0.751154	0.27267	-0.601094	-2.59	14.42	-0.07	2.9213	2.0985	1.5281	
-0.757132	0.266692	-0.62159	-10.22	15.12	-1.75	2.9171	2.0983	1.5341	
-0.786778	0.271694	-0.640866	-3.08	11.06	-1.33	2.9132	2.1042	1.543	
-0.775432	0.258884	-0.652334	-4.55	8.26	-1.33	2.9143	2.1043	1.5339	
-0.75884	0.26169	-0.656116	-5.67	7.7	-0.56	2.9143	2.1059	1.5339	
-0.764818	0.271572	-0.659166	-4.55	6.65	-0.7	2.9111	2.1028	1.5277	
-0.76799	0.263642	-0.644404	-5.6	5.11	-0.77	2.9131	2.0966	1.543	
-0.765306	0.257542	-0.639158	-1.96	5.53	-0.14	2.9142	2.0952	1.537	
-0.771406	0.25864	-0.643672	-1.68	3.92	-0.56	2.9099	2.0844	1.543	
-0.761524	0.256688	-0.64233	-0.56	1.26	-0.98	2.9205	2.1029	1.5433	
-0.758474	0.266814	-0.636474	2.17	-1.4	-0.98	2.9071	2.095	1.5413	
-0.775676	0.27328	-0.638792	-1.19	-4.34	-3.08	2.9146	2.1027	1.5415	
-0.789584	0.2623	-0.640256	-4.13	-5.32	-4.34	2.9085	2.095	1.5398	
-0.775188	0.252784	-0.645014	-2.94	-6.58	-4.83	2.9234	2.1029	1.5419	
-0.773602	0.25193	-0.6588	-4.2	-11.2	-5.95	2.9088	2.1072	1.5412	
-0.804834	0.278892	-0.64599	-5.67	-14.91	-7.56	2.9171	2.0983	1.5341	
-0.833504	0.280966	-0.63501	-8.47	-20.02	-9.45	2.923	2.1046	1.5312	
-0.830942	0.254614	-0.63196	-9.73	-24.85	-10.57	2.9159	2.1135	1.5308	
-0.800442	0.261202	-0.62952	-5.6	-29.75	-11.13	2.9109	2.1044	1.5231	
-0.79727	0.271816	-0.626348	-4.83	-32.48	-11.83	2.9259	2.1214	1.522	
-0.804224	0.265472	-0.611098	-4.41	-32.27	-11.97	2.9212	2.1153	1.5188	
-0.83875	0.266692	-0.602314	-7.28	-34.16	-13.58	2.9176	2.1139	1.5019	
-0.862662	0.264984	-0.592432	-8.96	-37.8	-13.65	2.9217	2.114	1.4945	
-0.837774	0.254492	-0.5795	-7.21	-40.6	-12.11	2.9218	2.1186	1.496	
-0.831064	0.23973	-0.585356	-7.42	-43.4	-12.53	2.9173	2.117	1.4943	
-0.819474	0.217648	-0.572302	-9.31	-42	-11.2	2.9228	2.1218	1.4838	
-0.844728	0.223748	-0.54534	-5.39	-43.19	-11.83	2.9253	2.1265	1.4701	
-0.857782	0.238022	-0.526552	1.89	-44.17	-10.57	2.9297	2.1221	1.4719	
-0.856074	0.236192	-0.525698	4.55	-44.17	-10.5	2.925	2.1251	1.464	
-0.85888	0.22875	-0.52948	0.84	-45.43	-11.41	2.9175	2.1326	1.456	
-0.870104	0.22997	-0.518134	1.12	-46.76	-10.57	2.9201	2.1373	1.4454	
-0.889136	0.215818	-0.505446	-1.26	-47.46	-10.22	2.927	2.1315	1.4382	
-0.893406	0.214842	-0.487268	1.33	-48.79	-9.1	2.9195	2.1344	1.4332	
-0.8845	0.219234	-0.467748	3.01	-49.28	-8.68	2.9294	2.1408	1.4214	
-0.908046	0.205204	-0.448228	-0.91	-49	-8.54	2.9279	2.1423	1.4183	
-0.91439	0.19032	-0.413824	-3.22	-48.86	-9.59	2.9187	2.1422	1.4087	
-0.91927	0.193736	-0.384544	-3.08	-50.19	-9.59	2.9231	2.1484	1.4058	
-0.941962	0.19154	-0.36356	-2.03	-52.5	-9.66	2.9152	2.1454	1.3933	
-0.942084	0.190564	-0.335988	-1.89	-55.93	-9.59	2.9191	2.141	1.3844	
-0.945012	0.20557	-0.312442	4.48	-57.19	-9.45	2.9185	2.1503	1.366	
-0.941718	0.200446	-0.291092	-0.42	-58.38	-10.01	2.9049	2.1516	1.3547	
-0.948428	0.196542	-0.278648	0.35	-57.12	-10.43	2.9049	2.1456	1.3563	
-0.962946	0.191906	-0.265106	-0.91	-56.14	-11.06	2.9102	2.1595	1.3366	
-0.967948	0.182268	-0.24644	-1.82	-56.07	-12.39	2.9098	2.1551	1.3305	
-0.986004	0.168482	-0.230702	1.19	-56.56	-11.62	2.8981	2.1579	1.327	
-0.978318	0.16775	-0.19764	-3.01	-61.88	-12.88	2.9018	2.1566	1.3119	
-0.977952	0.171776	-0.17446	-9.73	-66.57	-14.91	2.9035	2.1657	1.3134	
-0.943304	0.23607	-0.193248	-9.38	-68.74	-18.62	2.8954	2.1673	1.2932	
-0.99003	0.1647	-0.117364	-23.03	-75.11	-16.03	2.8993	2.1736	1.2796	
-0.950258	0.143106	-0.040748	-10.01	-71.75	-16.73	2.8842	2.1703	1.2683	
-0.964654	0.143716	-0.048312	-8.75	-71.89	-16.94	2.8781	2.1794	1.2573	
-0.970754	0.148108	-0.039284	-5.74	-67.06	-15.96	2.8805	2.1796	1.2452	
-0.994422	0.140056	-0.021228	-8.96	-65.24	-15.26	2.879	2.1872	1.2405	
-0.990152	0.16348	0.00183	-9.73	-73.08	-16.1	2.8695	2.1826	1.2249	
-0.956846	0.126636	-0.091012	2.38	-79.17	-16.24	2.8681	2.1917	1.2232	
-1.00162	0.119804	0.031598	-15.54	-86.87	-17.64	2.8529	2.19	1.2089	
-0.959042	0.102358	0.13725	1.33	-89.46	-17.92	2.8394	2.2004	1.196	
-0.973926	0.09857599	0.0976	-3.57	-73.15	-16.8	2.8423	2.2112	1.1899	
-0.976854	0.085766	0.11407	-7.42	-71.96	-15.54	2.8302	2.2019	1.1849	
-0.994056	0.06222	0.160308	-6.02	-74.13	-16.73	2.8195	2.2078	1.1722	
-0.985882	0.056608	0.181292	-1.89	-78.4	-18.2	2.8098	2.2094	1.1489	
-0.958554	0.049166	0.199348	2.8	-83.02	-19.81	2.8007	2.2154	1.1378	
-0.92476	0.04819	0.232898	8.26	-86.52	-21.42	2.796	2.2184	1.1284	
-0.940254	0.044896	0.281332	9.94	-86.94	-21.49	2.7705	2.2165	1.1136	
-0.937936	0.036844	0.288896	5.04	-85.54	-19.81	2.7731	2.2136	1.1077	
-0.932446	0.030866	0.31354	2.59	-86.45	-18.83	2.7669	2.2211	1.0966	
-0.916098	0.042456	0.331108	0.42	-89.81	-19.11	2.7433	2.2252	1.0879	
-0.900238	0.031232	0.342576	4.34	-92.12	-20.16	2.7358	2.222	1.0861	
-0.904142	0.011102	0.372954	10.22	-94.85	-21.07	2.7297	2.2296	1.0751	
-0.890234	-0.006588	0.380396	12.67	-96.25	-22.47	2.7144	2.2172	1.0655	
-0.881816	-0.004514	0.424316	12.67	-97.51	-21.14	2.7025	2.22	1.0603	
-0.843264	-0.002928	0.43371	9.59	-99.54	-19.25	2.6812	2.2152	1.0442	
-0.815692	0.004636	0.45506	11.55	-103.95	-16.87	2.6678	2.218	1.036	
-0.81496	0.001586	0.521916	24.08	-108.36	-14.21	2.6493	2.2102	1.0185	
-0.810934	-0.009516	0.561078	22.68	-105.63	-12.04	2.6321	2.2128	1.0254	
-0.772748	-0.020862	0.573522	14.98	-101.78	-9.03	2.624	2.2067	1.0099	
-0.721142	-0.021594	0.59292	18.97	-106.54	-6.86	2.5991	2.2046	1.0103	
-0.690154	-0.001952	0.615734	20.3	-107.31	-3.99	2.5915	2.206	1.0023	
-0.664412	0.01952	0.632448	11.9	-103.18	-1.54	2.5775	2.1952	0.9881999	
-0.620248	0.01647	0.648308	5.46	-98.56	-1.61	2.5541	2.1947	0.9870999	
-0.596214	0.00976	0.703086	9.1	-97.72	-1.12	2.5362	2.2005	0.9772	
-0.562786	0.0122	0.7625	9.66	-96.46	0.28	2.5168	2.194	0.9703	
-0.520574	-0.000244	0.772626	0.98	-90.65	1.47	2.5099	2.1983	0.9791	
-0.495076	-0.005002	0.804712	-0.56	-90.44	3.5	2.4769	2.1902	0.964	
-0.4514	0.007442	0.823866	0.14	-89.32	5.6	2.4625	2.1928	0.9679	
-0.434564	0.009393999	0.83936	-2.17	-87.85	6.02	2.4637	2.1944	0.9603	
-0.421022	-0.002318	0.855464	-4.69	-85.12	6.44	2.4391	2.1953	0.9669	
-0.402234	-0.000732	0.872178	0.49	-82.81	7.42	2.4285	2.1936	0.9588	
-0.370026	-0.011956	0.889014	1.54	-81.34	7.14	2.4121	2.1903	0.9536	
-0.350994	-0.007442	0.91439	4.83	-79.87	7.63	2.4023	2.193	0.9607	
-0.350628	0.007076	0.942694	-2.24	-78.26	6.02	2.3902	2.1867	0.9557	
-0.275842	0.012322	0.954894	-1.33	-75.39	6.65	2.3734	2.1938	0.9686	
-0.265594	0.015128	0.96563	-1.68	-72.73	7.56	2.3567	2.1905	0.9572	
-0.254492	0.011956	0.978196	-2.66	-68.67	7.28	2.3482	2.1917	0.9629	
-0.238266	0.015738	0.97478	-5.67	-63.07	9.1	2.3468	2.1841	0.9675	
-0.20862	0.010614	0.982954	-5.04	-62.79	8.89	2.3349	2.1838	0.964	
-0.190686	0.018178	0.993934	-6.58	-56.91	8.68	2.3176	2.1925	0.9646	
-0.171532	0.021106	1.000522	-7.07	-54.81	6.86	2.3118	2.1939	0.9659	
-0.13847	0.025132	1.008574	-8.12	-51.73	6.16	2.3104	2.1893	0.9705	
-0.117974	0.009028	1.0248	-9.03	-48.51	5.11	2.2976	2.198	0.9744	
-0.097966	0.008174	1.027972	-9.52	-45.43	4.41	2.2961	2.1934	0.9744	
-0.077836	-0.002806	1.030168	-9.45	-42.07	3.64	2.2843	2.1978	0.9692	
-0.068076	-0.00427	1.02907	-8.82	-38.36	2.8	2.2775	2.1883	0.9873	
-0.051484	-0.009638	1.03395	-8.33	-35.07	2.45	2.2702	2.2019	0.9807	
-0.025498	-0.02684	1.036024	-7.91	-32.13	1.75	2.2707	2.1987	0.9945	
-0.017812	-0.022204	1.041026	-8.33	-27.44	1.19	2.2513	2.1861	0.9923	
-0.009393999	-0.01952	1.045662	-7.49	-23.17	0.35	2.247	2.1998	0.9858	
-0.011224	-0.039894	1.055178	-6.51	-19.95	-0.91	2.2528	2.1938	0.9877	
0.002196	-0.047458	1.056398	-4.9	-14.35	-0.63	2.2481	2.1983	0.9798	
0.009028	-0.052826	1.05896	-3.64	-10.36	-0.28	2.2518	2.1997	0.9967	
0.002806	-0.045506	1.059204	-2.52	-6.44	-0.07	2.2487	2.2012	0.992	
0.003416	-0.041968	1.056032	-1.89	-2.59	-0.49	2.2461	2.2103	0.9933	
0.002074	-0.041724	1.053958	-1.19	0.84	-0.7	2.2412	2.2042	0.9855	
-0.006344	-0.039528	1.045296	-1.12	4.06	-1.26	2.2545	2.2014	0.9906999	
-0.008662	-0.03782	1.051152	0.07	7.21	-1.26	2.2528	2.1999	0.9861	
-0.011712	-0.044896	1.048468	1.12	10.29	-1.19	2.2527	2.2014	0.983	
-0.02013	-0.046116	1.05164	2.17	14.07	-1.19	2.2469	2.1967	0.9859	
-0.033916	-0.046116	1.066158	1.12	19.74	0	2.2501	2.2043	0.989	
-0.030134	-0.049044	1.076406	1.33	22.96	-1.33	2.2526	2.2015	0.98	
-0.03843	-0.040382	1.07055	2.38	27.09	-1.54	2.2576	2.206	0.9908	
-0.036356	-0.031964	1.064206	7.84	32.27	-1.33	2.26	2.2062	0.9802999	
-0.043676	-0.02135	1.06201	9.38	37.52	-1.12	2.2677	2.2032	0.9898	
-0.054778	-0.027328	1.051762	9.73	43.33	-0.91	2.2705	2.2003	0.9884	
-0.076738	-0.03721	1.043954	9.31	48.58	-1.26	2.2791	2.2066	0.9811	
-0.093452	-0.034282	1.04371	11.41	53.48	-2.03	2.2862	2.2068	0.9753	
-0.110776	-0.031232	1.037488	11.76	58.03	-3.08	2.295	2.1994	0.9802999	
-0.141886	-0.014274	1.019188	12.95	66.57	-3.99	2.3134	2.1909	0.9705999	
-0.162382	-0.000244	1.006622	12.67	70.56	-4.34	2.3209	2.194	0.9724	
-0.18483	0.00427	1.003084	10.92	75.53	-4.2	2.325	2.1896	0.968	
-0.207766	0.000854	0.996618	9.03	81.2	-3.99	2.3453	2.1978	0.9612	
-0.24461	-0.001952	0.969412	9.24	85.4	-4.48	2.3553	2.1798	0.9649	
-0.272182	-0.00427	0.942694	10.01	89.46	-4.34	2.368	2.1832	0.9517	
-0.291702	-0.003172	0.929762	11.48	91.77	-4.55	2.383	2.1881	0.9584	
-0.30927	0.001708	0.915976	7.21	98.49	-5.32	2.3977	2.1838	0.9606	
-0.361974	0.015372	0.888526	6.37	106.05	-3.85	2.4125	2.1841	0.9643	
-0.404308	0.008174	0.856074	-1.61	111.65	-2.59	2.436	2.1907	0.9637	
-0.431636	0.00854	0.810934	1.96	113.54	-1.26	2.4519	2.1881	0.9599	
-0.481656	0.016714	0.77897	15.96	109.55	-1.12	2.4682	2.1869	0.9667	
-0.513132	0.011712	0.780922	23.73	113.47	-1.61	2.4829	2.1842	0.9689	
-0.556564	0.05063	0.730048	-1.26	123.34	-0.35	2.496	2.183	0.9695	
-0.573888	0.028304	0.694912	-4.06	115.85	-0.14	2.5181	2.1911	0.9689	
-0.61488	0.027206	0.675148	-0.77	114.24	0.98	2.5435	2.19	0.9822	
-0.657458	0.036478	0.665754	-6.02	116.62	2.87	2.5555	2.1963	0.9857	
-0.681004	0.012444	0.62403	-12.46	118.3	4.48	2.5757	2.1831	0.9867	
-0.71553	0.025132	0.590602	-0.42	116.06	6.58	2.6166	2.1974	1.0112	
-0.739686	0.016104	0.557906	-4.97	115.85	7.42	2.6228	2.199	1.019	
-0.7686	0.020984	0.524356	-4.06	114.8	9.73	2.6462	2.1964	1.0216	
-0.789706	0.024766	0.495198	-3.36	111.51	10.64	2.6611	2.2013	1.0252	
-0.81496	0.017934	0.47946	-3.22	108.08	12.04	2.6782	2.206	1.0457	
-0.813984	0.021106	0.429928	-9.73	107.66	13.02	2.6884	2.2063	1.0446	
-0.843752	0.04819	0.413702	-3.43	106.54	14.84	2.7037	2.2034	1.0621	
-0.851682	0.051484	0.375272	0.56	105.14	15.89	2.7289	2.1962	1.0755	
-0.88023	0.059902	0.347334	-0.42	104.44	16.66	2.7364	2.1994	1.0773	
-0.907924	0.07808	0.314882	-1.89	102.9	17.71	2.7558	2.1906	1.0919	
-0.91317	0.080032	0.261812	-1.47	99.96	17.92	2.7638	2.1998	1.1028	
-0.944036	0.107604	0.223992	1.12	96.53	18.55	2.7774	2.1893	1.1188	
-0.984296	0.121878	0.19398	2.73	96.67	18.76	2.7954	2.1865	1.1318	
-0.982466	0.127246	0.149572	4.41	97.02	18.55	2.7956	2.188	1.1348	
-0.976854	0.126026	0.116144	3.92	94.92	18.83	2.8077	2.1851	1.146	
-0.973072	0.130296	0.0671	8.26	89.95	18.27	2.8137	2.1761	1.1555	
-0.982466	0.132004	0.035868	6.51	84.28	16.38	2.8231	2.1792	1.1666	
-0.978074	0.14518	0.012322	7.35	78.33	14.35	2.834	2.1808	1.1823	
-0.98332	0.159576	-0.039772	13.93	75.11	13.16	2.8536	2.1689	1.2031	
-1.006988	0.160796	-0.053558	10.5	72.1	12.6	2.8488	2.1685	1.2272	
-1.0126	0.153232	-0.094184	12.11	68.32	11.2	2.8675	2.1644	1.2235	
-1.01809	0.156892	-0.13115	11.27	63.28	10.71	2.8743	2.1628	1.2467	
-0.979904	0.184952	-0.142374	12.04	59.5	10.57	2.867	2.1657	1.2448	
-0.96258	0.158966	-0.172508	11.83	62.86	9.8	2.8747	2.152	1.2605	
-0.941108	0.160796	-0.18117	9.17	57.33	10.08	2.8767	2.1687	1.2665	
-0.964166	0.155672	-0.18178	9.8	61.25	10.15	2.8856	2.1521	1.2762	
-0.981734	0.144936	-0.221186	11.48	67.97	10.78	2.8829	2.1581	1.2791	
-1.026142	0.168238	-0.304024	20.93	72.31	10.99	2.8918	2.1598	1.281	
-1.039928	0.19825	-0.36661	8.68	62.51	8.33	2.8912	2.1534	1.3054	
-1.015894	0.215574	-0.278404	23.8	78.19	15.12	2.9015	2.1429	1.312	
-1.002596	0.213622	-0.35197	13.72	54.18	9.87	2.9033	2.1459	1.3197	
-0.980148	0.213866	-0.339892	12.18	45.71	9.59	2.9038	2.1489	1.3304	
-0.959408	0.195078	-0.319884	16.66	46.2	10.57	2.9039	2.1336	1.3397	
-0.920978	0.167018	-0.339892	14.49	45.43	10.08	2.9053	2.1336	1.3382	
-0.942938	0.188734	-0.324032	14.56	49.14	9.87	2.9104	2.1397	1.3521	
-0.915732	0.195566	-0.348188	15.61	52.71	10.29	2.9088	2.1336	1.3521	
-0.96563	0.213256	-0.406138	9.1	54.39	8.19	2.9167	2.1214	1.3724	
-0.96868	0.210206	-0.386008	7.21	51.66	8.61	2.9143	2.1273	1.3813	
-0.953796	0.210572	-0.368196	5.95	49.14	9.31	2.9145	2.1272	1.3874	
-0.927322	0.208742	-0.37027	6.3	46.62	9.03	2.9223	2.1197	1.4031	
-0.92537	0.226432	-0.367464	7.07	43.61	8.82	2.9211	2.1226	1.406	
-0.935008	0.211426	-0.376492	7.49	41.58	8.75	2.9196	2.1119	1.4122	
-0.940986	0.209108	-0.351238	3.43	37.03	7.56	2.9196	2.1195	1.4075	
-0.922442	0.20862	-0.360266	1.82	30.45	6.02	2.9229	2.1088	1.423	
-0.937082	0.20191	-0.378688	2.24	28.91	5.74	2.9193	2.1223	1.4349	
-0.904142	0.19459	-0.411628	10.29	28.21	6.02	2.9117	2.1145	1.4316	
-0.920002	0.208254	-0.437126	8.75	23.31	5.32	2.9234	2.1072	1.4352	
-0.924028	0.213988	-0.433222	4.97	21.91	4.34	2.9223	2.1132	1.4412	
-0.89853	0.209108	-0.421998	-0.56	20.02	3.92	2.9197	2.1115	1.4503	
-0.868152	0.20984	-0.439078	1.96	19.88	3.85	2.921	2.107	1.4489	
-0.861198	0.211182	-0.451888	2.31	21.35	3.92	2.9239	2.1116	1.4459	
-0.863394	0.218624	-0.4758	5.46	21.35	3.64	2.9169	2.1114	1.4532	
-0.854	0.222406	-0.491172	2.59	20.44	2.8	2.9128	2.1066	1.4607	
-0.863394	0.223626	-0.486414	-0.42	21.84	2.24	2.9201	2.1053	1.461	
-0.874984	0.228018	-0.487756	-2.8	20.51	1.47	2.9207	2.099	1.4809	
-0.850096	0.225212	-0.498004	-3.15	20.3	1.75	2.9159	2.1036	1.4685	
-0.838628	0.222284	-0.495686	-5.6	21.07	1.54	2.9148	2.1111	1.4714	
-0.833626	0.23241	-0.507398	-4.69	20.44	0.98	2.9161	2.0975	1.4762	
-0.861808	0.23058	-0.52277	-3.78	21.21	0.7	2.9196	2.102	1.4869	
-0.84851	0.227896	-0.520208	-4.34	21.49	0.77	2.9194	2.0944	1.4855	
-0.840214	0.223138	-0.540338	-4.41	18.97	0.91	2.9126	2.1032	1.4927	
-0.833016	0.222284	-0.543388	-4.34	18.13	0.91	2.9139	2.1033	1.4897	
-0.818254	0.2257	-0.56059	-3.01	17.71	0.84	2.923	2.108	1.4946	
-0.837774	0.230458	-0.577426	-1.68	16.87	0.7	2.9198	2.1034	1.4915	
-0.860344	0.231312	-0.585356	-0.35	16.31	0.63	2.9189	2.1017	1.5052	
-0.826794	0.232654	-0.588406	-0.84	13.93	1.05	2.9142	2.1063	1.4942	
-0.803126	0.224724	-0.58255	-5.04	13.58	0.63	2.917	2.0942	1.4991	
-0.817522	0.22204	-0.571936	-2.66	12.32	0.63	2.917	2.0926	1.5006	
-0.814838	0.233142	-0.582794	2.87	10.99	0.77	2.9202	2.1049	1.5006	
-0.804468	0.24156	-0.614392	4.13	8.68	0.35	2.9092	2.1029	1.5169	
-0.818376	0.237168	-0.586332	-3.5	9.59	-0.49	2.9205	2.1017	1.5083	
-0.8052	0.228506	-0.570594	-5.67	8.61	-0.56	2.9178	2.1001	1.5158	
-0.795928	0.238998	-0.595604	-0.56	7.63	0.14	2.9134	2.1	1.5141	
-0.805322	0.229116	-0.620492	-3.36	5.46	-1.54	2.9179	2.1046	1.5157	
-0.815204	0.22997	-0.60512	-3.08	4.76	-1.61	2.921	2.1062	1.5189	
-0.830454	0.250832	-0.63379	3.15	1.96	-1.82	2.9194	2.0925	1.522	
-0.834968	0.253516	-0.643428	0.77	-2.24	-2.8	2.9162	2.094	1.5143	
-0.81862	0.239608	-0.613538	-1.89	-5.25	-2.66	2.9162	2.1001	1.5112	
-0.826184	0.24217	-0.613782	0.56	-9.31	-3.5	2.9132	2.0985	1.511	
-0.82228	0.242536	-0.631838	2.17	-11.76	-4.27	2.9137	2.106	1.5186	
-0.829112	0.239486	-0.636474	-2.03	-16.59	-5.53	2.9179	2.1107	1.5111	
-0.84546	0.241072	-0.635498	-1.75	-19.95	-6.72	2.9188	2.1079	1.499	
-0.822158	0.243634	-0.635376	-3.15	-25.69	-6.86	2.9233	2.1003	1.5054	
-0.826916	0.247904	-0.628666	-0.91	-27.02	-6.86	2.9167	2.1004	1.4883	
-0.829478	0.241072	-0.62586	-3.99	-29.05	-8.26	2.9168	2.1141	1.4836	
-0.824842	0.23241	-0.621468	-6.23	-32.06	-9.17	2.9259	2.1111	1.4917	
-0.838384	0.228384	-0.598776	-5.11	-33.25	-9.8	2.9194	2.1142	1.4761	
-0.862418	0.227164	-0.594384	-7.07	-38.78	-10.99	2.9193	2.1097	1.4762	
-0.874374	0.220088	-0.58316	-6.51	-42.35	-11.55	2.9207	2.1143	1.4716	
-0.868762	0.217282	-0.574742	-8.12	-44.1	-12.67	2.9319	2.1238	1.4552	
-0.87169	0.214598	-0.530944	-9.17	-52.64	-13.23	2.9289	2.1207	1.4536	
-0.873642	0.211548	-0.49227	-8.96	-56	-13.44	2.9223	2.1238	1.435	
-0.898774	0.215208	-0.47397	-6.86	-58.31	-13.93	2.9292	2.1211	1.4262	
-0.91195	0.219722	-0.45933	-8.47	-62.3	-14.77	2.9174	2.1315	1.418	
-0.92537	0.208864	-0.44713	-15.12	-68.6	-16.66	2.9213	2.1287	1.4075	
-0.923052	0.194468	-0.41724	-17.71	-73.5	-17.64	2.9194	2.1394	1.3936	
-0.94428	0.172752	-0.380762	-15.54	-73.78	-17.64	2.9219	2.1487	1.3784	
-0.933788	0.164944	-0.354654	-9.17	-75.95	-16.8	2.919	2.1441	1.3798	
-0.944646	0.166408	-0.334158	-6.79	-74.41	-16.94	2.9143	2.1471	1.372	
-0.946964	0.158112	-0.309758	-7.49	-73.64	-16.8	2.9063	2.1532	1.3517	
-0.95648	0.155794	-0.287676	-5.18	-72.94	-15.82	2.9042	2.1518	1.3364	
-0.95343	0.146888	-0.257908	-6.86	-74.2	-14.91	2.9111	2.1521	1.3276	
-0.958676	0.155672	-0.26108	-2.8	-76.72	-13.37	2.9063	2.1567	1.3151	
-0.987224	0.159942	-0.238876	-5.53	-77.14	-12.81	2.8895	2.1504	1.3023	
-0.98027	0.152256	-0.187392	-13.09	-82.32	-12.67	2.8952	2.1658	1.2887	
-0.926346	0.199958	-0.161162	-15.54	-89.67	-12.53	2.8945	2.1614	1.275	
-1.050298	0.086132	-0.129564	-45.01	-90.16	-15.89	2.8809	2.1734	1.259	
-0.989176	0.148108	-0.023058	-18.9	-93.31	-14.42	2.8748	2.1718	1.2542	
-0.99674	0.130296	-0.051484	-12.6	-87.08	-14.21	2.8638	2.1672	1.237	
-0.985638	0.129564	-0.019276	-14.07	-98.35	-14.28	2.8607	2.1809	1.2261	
-0.97722	0.11224	0.04453	-9.17	-108.92	-15.19	2.8572	2.184	1.2107	
-0.94184	0.10736	0.008784	1.68	-113.61	-15.61	2.8363	2.1867	1.2006	
-0.96868	0.052582	0.12688	-11.97	-122.36	-18.83	2.8221	2.1836	1.1771	
-0.958188	0.063196	0.138836	-0.49	-122.71	-18.9	2.8247	2.2005	1.1603	
-0.943792	0.078446	0.19215	0.98	-123.62	-18.2	2.8107	2.1897	1.1461	
-0.945012	0.109434	0.248392	2.73	-120.82	-15.54	2.7942	2.1956	1.1332	
-0.931836	0.110044	0.254126	-5.81	-121.87	-13.65	2.7821	2.1939	1.125	
-0.854122	0.085766	0.234118	-4.97	-126.77	-13.23	2.757	2.1937	1.0843	
-0.854366	0.040748	0.333304	8.47	-133	-15.61	2.7361	2.1873	1.0774	
-0.887672	0.065148	0.373808	4.62	-125.79	-15.4	2.7056	2.2048	1.0728	
-0.88511	0.073078	0.397598	-1.68	-124.39	-14.7	2.7024	2.2063	1.0651	
-0.822402	0.044408	0.402356	-0.49	-129.36	-13.86	2.6899	2.2124	1.0431	
-0.773968	0.016226	0.43615	-1.12	-134.4	-14.07	2.6628	2.2013	1.0314	
-0.757132	0.009881999	0.49166	5.25	-134.89	-12.53	2.6402	2.2024	1.0152	
-0.746884	0.03233	0.523014	7.42	-134.26	-10.78	2.6208	2.2036	1.0037	
-0.71492	0.04819	0.568398	12.11	-135.8	-8.12	2.6072	2.1989	0.9955	
-0.659898	0.049288	0.60939	11.76	-132.86	-5.39	2.5953	2.1956	0.9935	
-0.625494	0.025986	0.664778	8.05	-130.55	-5.25	2.567	2.1905	0.9832	
-0.590114	-0.005002	0.699914	8.47	-129.08	-3.99	2.5436	2.1945	0.9821	
-0.553392	0.02928	0.708332	-6.58	-122.43	0.63	2.5242	2.1972	0.9705999	
-0.493002	0.05551	0.748348	-1.26	-120.82	2.59	2.5081	2.1923	0.973	
-0.446154	0.057218	0.769088	-5.11	-113.96	3.29	2.4903	2.1874	0.9692	
-0.416508	0.043188	0.823744	-7.35	-110.6	2.73	2.4685	2.1899	0.9712999	
-0.371368	0.033306	0.838018	-4.9	-104.02	3.64	2.4417	2.1909	0.961	
-0.345138	-0.011468	0.880108	-5.46	-100.38	4.13	2.424	2.192	0.9571	
-0.38369	0.00305	0.92842	-8.4	-99.61	2.1	2.4049	2.2023	0.9501	
-0.28304	-0.002684	0.928054	-13.79	-87.85	7.35	2.399	2.1869	0.9561	
-0.291092	-0.00366	0.940742	-13.93	-85.19	4.06	2.3887	2.1928	0.951	
-0.266448	-0.015006	0.963556	-11.9	-83.09	3.08	2.3747	2.1969	0.964	
-0.216672	0.01464	0.97905	-11.27	-78.54	4.34	2.3395	2.19	0.9656	
-0.177266	0.005368	1.001742	-10.22	-74.97	3.64	2.3381	2.1884	0.9671	
-0.16775	-0.000366	0.999546	-11.76	-67.06	3.36	2.3249	2.1927	0.9633999	
-0.165798	-0.00122	0.99857	-11.62	-64.05	2.38	2.3149	2.197	0.9691	
-0.142984	-0.02074	1.020896	-11.69	-61.88	2.66	2.3019	2.1997	0.9715	
-0.092842	-0.019154	1.034194	-11.13	-54.95	2.45	2.2902	2.1979	0.9725	
-0.085278	-0.03599	1.03151	-10.15	-51.31	0.77	2.292	2.2039	0.9771	
-0.070638	-0.046604	1.030778	-9.94	-46.83	-0.07	2.2787	2.1991	0.9766	
-0.029524	-0.04453	1.046272	-8.19	-43.96	0	2.2629	2.2063	0.9789	
-0.019886	-0.052216	1.042734	-7.07	-39.27	0.42	2.275	2.2095	0.987	
-0.007198	-0.06283	1.032974	-4.97	-36.68	-0.49	2.26	2.2032	0.9802999	
-0.004148	-0.050508	1.034194	-3.57	-33.04	1.12	2.2616	2.2062	0.9834	
0.022448	-0.063684	1.051762	-1.54	-29.47	0.91	2.259	2.2091	0.9878	
0.01891	-0.05307	1.050908	-0.63	-24.43	1.05	2.2462	2.2102	0.9964	
0.011956	-0.035502	1.03944	0.49	-22.19	0.49	2.2297	2.2023	0.9912	
0.01891	-0.034526	1.04798	0.21	-18.69	1.19	2.2387	2.2101	0.993	
0.02806	-0.035258	1.06018	0.28	-15.26	1.05	2.2427	2.2057	0.9856	
0.035258	-0.021838	1.060546	-0.49	-11.48	0.63	2.2297	2.213	0.9849	
0.034404	-0.030744	1.060424	-1.54	-7.7	0.49	2.2286	2.2129	0.994	
0.028426	-0.04087	1.064084	-1.4	-4.2	0.42	2.2346	2.2099	1.0004	
0.033184	-0.036844	1.05652	-0.84	-0.77	-0.14	2.2282	2.1992	0.9926	
0.033794	-0.037332	1.051396	-1.4	2.52	-0.42	2.2284	2.2099	0.991	
0.029402	-0.040992	1.060302	-1.75	6.02	-0.49	2.227	2.2053	0.994	
0.02196	-0.05734	1.069452	-0.56	11.34	-1.61	2.2359	2.2161	0.9913	
0.026474	-0.046848	1.0736	0.63	14.98	-1.89	2.2265	2.2084	0.9818	
0.035868	-0.073932	1.088728	2.31	19.04	-1.75	2.237	2.2071	0.9884	
0.025132	-0.064782	1.090802	2.03	24.5	-1.68	2.2357	2.2177	0.9867	
0.021838	-0.066612	1.080432	3.85	29.12	-2.03	2.2457	2.2012	0.9888	
0.013176	-0.063806	1.070306	8.68	34.44	-2.66	2.2396	2.2057	0.9824	
0.00671	-0.044652	1.072014	11.34	40.25	-3.29	2.2511	2.2015	0.9784	
-0.004636	-0.037454	1.0736	11.97	46.27	-3.57	2.2678	2.2017	0.9944	
-0.022448	-0.036844	1.061156	12.67	52.01	-3.99	2.2671	2.1988	0.9791	
-0.05124	-0.027816	1.047126	15.33	56.98	-4.76	2.2816	2.2068	0.9721	
-0.072468	-0.027084	1.035902	16.45	61.88	-5.39	2.2905	2.2039	0.9755	
-0.09272	-0.032818	1.045052	15.33	66.99	-5.6	2.2917	2.1979	0.9726	
-0.12078	-0.019276	1.019554	17.99	71.96	-5.6	2.3062	2.1983	0.9687	
-0.13969	-0.006344	1.005158	18.69	76.51	-4.9	2.3192	2.191	0.9693	
-0.157136	0.003172	0.98942	19.67	81.34	-4.76	2.3326	2.1897	0.976	
-0.190442	0.01098	0.967216	19.74	85.4	-5.04	2.3398	2.193	0.9717	
-0.228384	0.014152	0.95648	17.85	88.13	-5.74	2.3493	2.1812	0.9601	
-0.262666	0.023546	0.940498	16.8	92.89	-5.46	2.3584	2.1874	0.9633999	
-0.326838	0.013664	0.904142	12.53	97.79	-5.46	2.3962	2.1853	0.959	
-0.341722	0.019398	0.873642	17.43	99.61	-6.37	2.412	2.1766	0.9568	
-0.397354	0.027572	0.852292	10.08	106.12	-5.53	2.415	2.169	0.9631	
-0.414556	0.037332	0.828136	11.2	109.9	-5.46	2.4462	2.1864	0.9658	
-0.442128	0.036966	0.78751	7.28	113.26	-4.48	2.4609	2.1806	0.971	
-0.479582	0.038552	0.76128	2.87	118.09	-3.64	2.4739	2.1718	0.9702	
-0.49715	0.037454	0.742126	-3.22	122.22	-2.87	2.503	2.168	0.97	
-0.554002	0.037698	0.67954	16.87	122.29	-2.59	2.5196	2.1743	0.9782	
-0.5612	0.051118	0.669902	35.28	111.3	-2.94	2.5447	2.1779	0.9824	
-0.607926	0.06588	0.685152	25.62	127.12	-3.15	2.5552	2.175	0.9888999	
-0.65148	0.071004	0.60939	-4.97	134.26	-2.45	2.5761	2.1784	0.9974	
-0.675026	0.071858	0.56608	-0.84	127.33	-1.4	2.5999	2.1819	1.006	
-0.720044	0.049044	0.544364	-7.28	125.09	-0.56	2.6203	2.1733	1.0085	
-0.745176	0.043554	0.515816	-9.52	129.78	1.61	2.6353	2.1827	1.0121	
-0.75762	0.053192	0.471042	-9.31	129.99	4.48	2.6508	2.1797	1.0342	
-0.79239	0.059048	0.435906	-6.93	128.45	6.23	2.6778	2.1786	1.0521	
-0.809714	0.061854	0.40138	-4.55	127.4	7.77	2.6879	2.1774	1.048	
-0.83692	0.074786	0.359656	-3.29	124.95	9.03	2.7134	2.1809	1.0613	
-0.9211	0.089792	0.313418	-3.5	121.45	10.36	2.735	2.1811	1.0881	
-0.94672	0.097966	0.282796	-6.3	117.11	11.48	2.7472	2.1873	1.0962	
-0.952942	0.106384	0.242658	-5.6	112.42	13.51	2.7707	2.1711	1.108	
-0.94611	0.09467199	0.205448	-6.09	107.66	14.35	2.7875	2.1773	1.1224	
-0.949526	0.089914	0.169702	-5.25	106.82	14.91	2.7922	2.1758	1.1302	
-0.948184	0.118584	0.116632	-3.64	108.99	15.19	2.8029	2.1714	1.1429	
-0.949038	0.14884	0.096136	-0.28	107.31	14.77	2.8226	2.1778	1.1574	
-0.955016	0.165066	0.045018	-5.67	102.48	13.51	2.8274	2.164	1.173	
-0.965508	0.153232	-0.001342	-5.67	100.8	13.58	2.8337	2.1686	1.1809	
-0.951356	0.16287	-0.05734	0.35	98.42	14.84	2.8376	2.173	1.2023	
-0.939522	0.138226	-0.103456	3.71	95.13	15.12	2.8584	2.1704	1.2124	
-0.970388	0.12505	-0.12444	4.34	94.92	14.56	2.8574	2.1626	1.2277	
-0.977098	0.122	-0.163358	12.74	97.09	16.17	2.8725	2.1567	1.2406	
-0.953918	0.125294	-0.240584	20.16	97.3	17.57	2.8789	2.1582	1.2545	
-0.958066	0.151646	-0.296094	15.75	95.97	16.8	2.8828	2.152	1.2791	
-1.034926	0.150304	-0.278648	7.98	103.88	14.42	2.902	2.1509	1.2846	
-1.012478	0.1586	-0.3416	19.74	101.78	15.82	2.9011	2.1537	1.2982	
-0.977464	0.21228	-0.446032	18.9	82.04	13.79	2.8986	2.1535	1.3072	
-0.87718	0.181292	-0.36844	40.25	98.35	20.02	2.9102	2.1351	1.3491	
-0.949892	0.19337	-0.446276	20.79	86.52	13.58	2.9107	2.1396	1.3597	
-1.016138	0.198372	-0.471408	26.74	86.31	13.16	2.9217	2.1366	1.38	
-0.97356	0.20252	-0.523624	31.08	86.45	14.7	2.9233	2.1244	1.3894	
-0.962946	0.179584	-0.533994	19.04	77.56	13.09	2.912	2.124	1.3995	
-0.930128	0.18727	-0.493856	12.81	65.94	11.97	2.9216	2.1377	1.412	
-0.945622	0.210084	-0.486658	10.64	62.09	10.22	2.926	2.115	1.4231	
-0.922808	0.212524	-0.50813	10.22	57.96	9.73	2.9219	2.1239	1.4243	
-0.865224	0.2074	-0.463966	5.39	55.44	10.78	2.9117	2.1161	1.4316	
-0.854732	0.197762	-0.46055	5.32	55.79	10.78	2.9257	2.1207	1.4474	
-0.882548	0.226798	-0.461282	6.65	53.13	10.43	2.9112	2.1143	1.4544	
-0.877912	0.23729	-0.503128	7.28	50.4	9.73	2.9261	2.1115	1.4612	
-0.840946	0.22021	-0.522526	0.56	48.65	9.38	2.9161	2.1097	1.4684	
-0.853756	0.213988	-0.513376	-1.19	47.25	9.94	2.9192	2.0975	1.4793	
-0.8601	0.226432	-0.520818	-0.35	44.17	9.45	2.9119	2.0943	1.4821	
-0.805444	0.228628	-0.540704	-2.52	43.96	9.03	2.9241	2.1081	1.4855	
-0.817522	0.245708	-0.552782	-8.54	41.86	8.12	2.9257	2.0913	1.4995	
-0.877058	0.238388	-0.567178	-5.11	40.11	7.35	2.9147	2.1062	1.508	
-0.873642	0.211182	-0.562298	-15.4	32.2	5.53	2.9109	2.1105	1.5184	
-0.825208	0.231922	-0.569618	-14.49	27.09	4.34	2.9079	2.0982	1.5245	
-0.804468	0.24095	-0.5917	-9.52	23.73	3.92	2.9112	2.0982	1.5323	
-0.844484	0.247904	-0.583892	-6.58	19.25	2.87	2.917	2.0968	1.5325	
-0.834114	0.246806	-0.591944	-4.97	16.73	1.82	2.9151	2.0908	1.5249	
-0.80093	0.24522	-0.613782	3.08	17.22	3.29	2.9095	2.0937	1.5292	
-0.81008	0.247294	-0.631716	1.26	14.42	2.52	2.9101	2.0996	1.5414	
-0.804834	0.253394	-0.639646	0.14	7.49	0.77	2.914	2.0861	1.5371	
-0.785802	0.275598	-0.66246	3.92	4.48	-0.21	2.9126	2.0937	1.5324	
-0.76799	0.269742	-0.658068	-1.33	0.91	-0.77	2.9155	2.0907	1.5341	
-0.736392	0.263032	-0.64721	-5.81	-1.4	-1.05	2.9187	2.0938	1.5387	
-0.729804	0.264374	-0.662216	-8.19	-0.98	-2.17	2.9213	2.0939	1.5312	
-0.73871	0.269864	-0.67954	-7.84	-0.98	-3.71	2.9178	2.0925	1.5189	
-0.742248	0.268522	-0.672708	-10.71	-1.96	-4.2	2.9186	2.0953	1.5372	
-0.764452	0.262422	-0.67039	-13.16	-3.85	-4.41	2.9156	2.0968	1.534	
-0.77531	0.264008	-0.67832	-14.07	-6.58	-4.97	2.9138	2.0892	1.5294	
-0.770064	0.261202	-0.685274	-13.3	-8.96	-4.97	2.9175	2.0998	1.5417	
-0.769942	0.25254	-0.670878	-11.34	-11.62	-4.06	2.9154	2.0999	1.5264	
-0.797392	0.247904	-0.664046	-8.4	-14.07	-4.34	2.9154	2.0999	1.5279	
-0.818254	0.254492	-0.665632	-6.86	-19.81	-5.81	2.9161	2.0955	1.5112	
-0.80581	0.249856	-0.644648	-7.98	-23.87	-6.09	2.9161	2.1001	1.5096	
-0.772748	0.247782	-0.63135	-3.01	-27.37	-5.32	2.9191	2.0986	1.5113	
-0.793854	0.266204	-0.622444	-1.12	-28.56	-5.67	2.913	2.1016	1.5049	
-0.827648	0.262788	-0.60878	-6.16	-30.66	-7.28	2.9262	2.1019	1.5055	
-0.819596	0.243756	-0.585112	-9.87	-31.99	-7.7	2.9305	2.099	1.5042	
-0.824476	0.244488	-0.592188	-6.3	-34.02	-8.4	2.9184	2.1003	1.4945	
-0.83082	0.256932	-0.597922	-6.72	-37.66	-9.45	2.9169	2.1064	1.4898	
-0.8296	0.255834	-0.565104	-10.29	-38.71	-9.31	2.9283	2.1037	1.4842	
-0.839482	0.255346	-0.521306	-12.95	-40.6	-10.08	2.9195	2.105	1.4823	
-0.838872	0.255102	-0.509838	-9.31	-39.62	-10.5	2.9206	2.1113	1.4716	
-0.84973	0.25498	-0.507154	-8.47	-39.97	-10.99	2.9192	2.1112	1.4716	
-0.8662	0.24827	-0.494466	-7.35	-41.09	-10.99	2.9162	2.1173	1.4683	
-0.866444	0.239486	-0.47092	-8.19	-41.44	-10.71	2.9277	2.1191	1.4627	
-0.876936	0.23729	-0.466894	-10.43	-42.42	-12.25	2.9184	2.1236	1.447	
-0.905118	0.238388	-0.456036	-13.09	-42.63	-13.86	2.9226	2.1177	1.4442	
-0.899018	0.23546	-0.426268	-16.31	-45.15	-14	2.929	2.1196	1.4232	
-0.890234	0.234362	-0.387228	-16.03	-48.79	-14.56	2.9245	2.121	1.4199	
-0.8845	0.22875	-0.371612	-15.19	-47.6	-14.42	2.9184	2.124	1.412	
-0.889746	0.218258	-0.357704	-13.58	-45.5	-14.35	2.92	2.1393	1.4073	
-0.900604	0.200568	-0.338062	-14.91	-43.33	-14	2.9224	2.1379	1.3953	
-0.909266	0.188368	-0.304268	-19.39	-44.03	-14.35	2.9232	2.1336	1.3816	
-0.904508	0.181414	-0.293654	-10.36	-39.76	-12.95	2.9126	2.1334	1.372	
-0.925492	0.18178	-0.283162	-9.38	-36.75	-12.04	2.917	2.1442	1.3675	
-0.953552	0.171776	-0.253028	-12.25	-34.58	-12.18	2.9255	2.1445	1.3618	
-0.959408	0.16226	-0.226676	-8.82	-34.23	-11.06	2.9121	2.1458	1.3536	
-0.953186	0.175924	-0.200812	-6.58	-34.93	-10.78	2.9166	2.1504	1.3553	
-0.967582	0.16348	-0.192516	-8.4	-34.44	-11.34	2.9148	2.1535	1.3445	
-0.95892	0.167628	-0.189954	-5.25	-32.83	-9.66	2.9074	2.1549	1.3426	
-0.949038	0.175558	-0.186904	-0.91	-30.38	-7.77	2.9118	2.1611	1.3382	
-0.94489	0.173118	-0.174094	-8.26	-30.03	-8.68	2.9012	2.1548	1.3347	
-0.87169	0.130662	-0.182878	-11.97	-29.75	-8.26	2.9054	2.158	1.3288	
-1.144116	0.16531	-0.13603	-7.56	-25.97	-11.69	2.9037	2.1581	1.3211	
-1.029436	0.110044	-0.0854	-39.83	-38.71	-12.74	2.8993	2.1641	1.3178	
-0.97539	0.124562	-0.09333	-8.75	-31.08	-10.5	2.9034	2.1658	1.3103	
-0.976732	0.123952	-0.08601	-5.46	-27.93	-8.54	2.9063	2.1689	1.3074	
-0.986736	0.144936	-0.089548	3.5	-28.21	-7.28	2.8971	2.1703	1.2978	
-0.96624	0.16165	-0.093818	8.61	-26.74	-5.81	2.8959	2.1717	1.3039	
-0.966362	0.165432	-0.095404	4.2	-24.22	-5.25	2.9018	2.1718	1.3041	
-0.97905	0.1464	-0.084424	0.07	-22.82	-5.18	2.9089	2.1751	1.2983	
-0.976366	0.154452	-0.079422	2.59	-20.93	-4.62	2.8987	2.1718	1.2994	
-0.976	0.16165	-0.087718	2.17	-18.9	-4.34	2.885	2.1777	1.285	
-0.99125	0.167262	-0.081618	-1.68	-16.52	-4.13	2.9013	2.1735	1.2904	
-0.988444	0.156038	-0.079666	-4.62	-13.86	-2.94	2.8956	2.1794	1.2916	
-0.996496	0.149084	-0.078934	-5.39	-11.48	-1.54	2.8876	2.1779	1.2775	
-0.99491	0.13542	-0.080276	-10.22	-10.78	-0.84	2.8918	2.175	1.2732	
-0.998082	0.136274	-0.08686399	-4.41	-9.94	0.77	2.8814	2.1733	1.2697	
-0.995398	0.135542	-0.082838	-3.01	-9.24	0.98	2.8859	2.1764	1.2714	
-0.98698	0.125416	-0.072834	-4.34	-8.4	1.4	2.8877	2.184	1.2744	
-0.995276	0.133834	-0.058316	-3.57	-6.09	2.17	2.882	2.1808	1.2803	
-1.000644	0.137372	-0.081374	3.85	-3.15	2.87	2.8831	2.1687	1.279	
-1.00101	0.145546	-0.092964	4.27	-3.99	3.43	2.8832	2.1748	1.2774	
-0.997716	0.147864	-0.087962	2.94	-3.85	3.57	2.883	2.1763	1.2713	
-1.010892	0.14823	-0.083204	3.57	-5.25	3.5	2.8772	2.1808	1.271	
-0.994666	0.151158	-0.08601	6.37	-6.44	3.92	2.8874	2.1734	1.273	
-0.995154	0.164578	-0.071614	6.51	-6.79	3.78	2.8828	2.1764	1.2682	
-0.998814	0.173972	-0.07076	5.88	-5.67	3.01	2.8799	2.1687	1.2727	
-1.003572	0.17446	-0.07686	5.25	-4.48	2.24	2.881	2.1673	1.2637	
-0.99796	0.17324	-0.077714	3.71	-6.09	2.17	2.8841	2.1749	1.2652	
-0.992348	0.174826	-0.05856	2.24	-6.51	2.1	2.8826	2.1688	1.2668	
-0.995154	0.171532	-0.05917	3.08	-4.76	2.31	2.8792	2.1566	1.2622	
-0.990396	0.179828	-0.06039	3.5	-4.97	2.52	2.878	2.1626	1.2651	
-0.995276	0.180926	-0.060024	2.38	-4.41	2.38	2.8855	2.1597	1.27	
-1.0004	0.173484	-0.053314	0.42	-3.29	2.24	2.8764	2.1611	1.262	
-1.00101	0.168604	-0.05917	0.98	-3.43	2.03	2.8838	2.1674	1.2623	
-0.996008	0.17141	-0.058682	1.96	-3.64	1.96	2.8883	2.1705	1.2624	
-0.997472	0.172142	-0.0488	0.98	-3.78	1.47	2.8749	2.1672	1.2588	
-0.998814	0.17141	-0.04758	1.05	-2.87	0.98	2.8836	2.1598	1.2593	
-1.000034	0.1708	-0.050386	0.56	-2.31	0.56	2.8795	2.1611	1.2667	
-0.99796	0.169824	-0.052582	1.05	-2.66	0.21	2.8804	2.1628	1.253	
-1.000278	0.171288	-0.052094	1.68	-2.73	0	2.8827	2.1596	1.273	
-0.999424	0.169092	-0.05307	1.26	-2.45	-0.56	2.8765	2.1611	1.2651	
-0.998326	0.164822	-0.048434	1.61	-2.66	-0.77	2.8837	2.1567	1.2654	
-0.996252	0.16714	-0.04087	1.96	-2.24	-0.7	2.8776	2.1627	1.256	
-1.000522	0.171532	-0.043676	1.89	-1.61	-0.91	2.8826	2.1703	1.2667	
-0.99735	0.172142	-0.045994	1.33	-1.75	-0.98	2.8733	2.1702	1.2542	
-1.00101	0.171898	-0.040382	1.96	-1.68	-0.7	2.879	2.1674	1.2514	
-0.997716	0.173484	-0.035502	1.89	-1.19	-0.77	2.8794	2.1627	1.2621	
-1.001864	0.17934	-0.042212	1.4	-1.33	-1.12	2.8766	2.1687	1.2619	
-1.007354	0.169702	-0.049898	1.26	-0.63	-1.54	2.8817	2.1599	1.2501	
-0.999302	0.159454	-0.052216	1.82	-1.4	-0.91	2.876	2.1566	1.256	
-0.995154	0.169458	-0.04148	1.82	-2.24	-1.33	2.8908	2.1631	1.255	
-1.000156	0.173606	-0.037576	-1.47	-2.1	-1.54	2.876	2.1582	1.2544	
-0.996374	0.169336	-0.036356	-1.05	-0.7	-1.19	2.8747	2.1627	1.2558	
-0.996862	0.161528	-0.040992	-2.8	-0.77	-1.12	2.8749	2.1611	1.2604	
-1.00101	0.157746	-0.041236	-1.96	-0.07	-0.7	2.8686	2.1626	1.2495	
-1.001254	0.15982	-0.042334	-0.77	-0.77	-0.7	2.8761	2.1688	1.2513	
-0.998936	0.159576	-0.046482	-0.07	-0.42	-0.84	2.8729	2.1643	1.2466	
-0.999912	0.1586	-0.043676	-1.05	-0.07	-1.05	2.8788	2.1674	1.2468	
-1.00284	0.158234	-0.048312	-0.35	0.7	-1.05	2.8747	2.181	1.2465	
-1.0004	0.15799	-0.052582	-0.07	0.35	-1.05	2.8775	2.1628	1.2529	
-1.001498	0.156282	-0.048434	-1.19	-0.14	-0.98	2.8764	2.1626	1.262	
-1.004914	0.15921	-0.045628	-1.54	0	-1.19	2.8758	2.1537	1.2514	
-1.003328	0.157136	-0.0488	-0.42	-0.21	-1.19	2.882	2.169	1.2515	
-0.998936	0.152866	-0.046604	0.28	-0.42	-0.77	2.8762	2.1749	1.2512	
-1.00101	0.15372	-0.048068	-0.14	-0.35	-0.98	2.873	2.1673	1.2481	
-1.003206	0.15555	-0.046604	-0.07	0.35	-0.91	2.8706	2.161	1.2633	
-1.003572	0.15921	-0.048922	0.98	0.21	-0.7	2.8807	2.1719	1.2545	
-1.000888	0.157746	-0.047092	0.63	-0.28	-0.42	2.8793	2.1688	1.2575	
-0.998448	0.155916	-0.04697	0.28	-0.14	-0.42	2.8736	2.1641	1.2649	
-1.000156	0.162626	-0.042944	0.7	-0.21	-0.28	2.8811	2.1764	1.262	
-1.001498	0.166774	-0.040626	0.84	-0.7	-0.21	2.8709	2.1716	1.2647	
-1.000888	0.163968	-0.045506	-0.07	-0.14	-0.49	2.8736	2.1641	1.2649	
-0.998326	0.156892	-0.044652	-1.26	0.35	-0.7	2.8754	2.1656	1.2711	
-0.993934	0.158356	-0.039528	0.21	-0.07	-0.56	2.8712	2.1746	1.2708	
-0.993202	0.175192	-0.036356	0.84	-0.42	-0.91	2.869	2.1701	1.2555	
-0.991616	0.186904	-0.028182	-0.91	0.49	-1.4	2.8808	2.1704	1.2575	
-1.013698	0.190808	-0.017202	2.38	5.25	-2.66	2.8788	2.1598	1.2515	
-1.002474	0.18361	-0.038064	-0.07	2.52	-4.06	2.8795	2.1794	1.2574	
-1.002108	0.176412	-0.028914	-0.77	3.22	-6.02	2.8762	2.1703	1.2528	
-1.009794	0.173362	-0.01281	-1.4	3.99	-8.12	2.876	2.1673	1.2497	
-1.01565	0.171166	-0.035502	0.77	4.27	-10.71	2.8733	2.1764	1.2495	
-0.999668	0.158356	-0.039528	2.38	3.57	-12.25	2.884	2.175	1.2607	
-0.995154	0.13603	-0.024644	5.95	3.08	-14.56	2.8826	2.1734	1.2637	
-0.98637	0.134078	-0.01464	12.39	4.83	-17.36	2.8735	2.1733	1.2557	
-1.020896	0.145302	-0.032086	19.04	5.39	-21.49	2.872	2.1687	1.2572	
-1.004182	0.15555	-0.039284	21.42	6.09	-24.64	2.8787	2.1747	1.2741	
-1.003206	0.142496	-0.039528	23.45	10.29	-27.02	2.8902	2.1841	1.2654	
-0.985028	0.132492	-0.04209	24.92	7.63	-29.4	2.8772	2.1945	1.2632	
-1.00528	0.118706	-0.060146	30.45	8.19	-33.18	2.8816	2.1915	1.2649	
-1.010892	0.107726	-0.06161	25.76	7.14	-36.12	2.8801	2.1854	1.268	
-1.023458	0.082228	-0.083082	26.6	5.67	-39.34	2.8788	2.1991	1.2647	
-1.028582	0.05612	-0.093208	24.22	3.92	-42.98	2.8891	2.1993	1.2667	
-1.014796	0.039772	-0.08662	22.75	2.1	-46.76	2.8838	2.2112	1.2724	
-1.009062	0.029646	-0.08845	32.27	2.8	-50.61	2.885	2.2128	1.2664	
-1.012722	0.002318	-0.058804	44.1	7.07	-52.36	2.8793	2.2233	1.2645	
-0.843386	0.174582	-0.106994	56.49	1.4	-52.08	2.8853	2.2295	1.2631	
-1.05347	-0.070638	-0.146888	27.37	10.43	-58.73	2.8859	2.2416	1.2706	
-1.01504	-0.011468	-0.09272	39.76	0.77	-64.19	2.8724	2.2444	1.2624	
-1.019798	-0.030378	-0.124928	39.9	0	-68.95	2.8742	2.2459	1.2701	
-1.00955	-0.029646	-0.105042	22.61	-9.03	-73.99	2.8817	2.2613	1.2657	
-0.986614	-0.064172	-0.072712	27.02	-6.23	-77.42	2.8726	2.2642	1.2561	
-0.995276	-0.081618	-0.09455	34.37	-8.26	-79.1	2.8715	2.2717	1.2621	
-0.992592	-0.104554	-0.096624	24.71	-10.85	-81.13	2.8749	2.2869	1.2636	
-0.97295	-0.129198	-0.051728	23.59	-7.56	-82.88	2.8646	2.2943	1.26	
-0.97417	-0.182756	-0.041114	20.58	-5.46	-85.12	2.8618	2.314	1.2505	
-0.971364	-0.22448	-0.08113	27.93	-9.03	-85.61	2.8533	2.3229	1.2531	
-1.00528	-0.286334	-0.073566	27.65	-12.88	-86.45	2.8635	2.3262	1.2504	
-0.95343	-0.345992	-0.055022	21.49	-18.69	-85.96	2.8564	2.3443	1.2453	
-0.890356	-0.353068	-0.041358	18.34	-12.6	-83.16	2.8485	2.3381	1.2359	
-0.910486	-0.377956	-0.050508	15.4	-5.32	-81.55	2.8357	2.3484	1.2383	
-0.967948	-0.402356	-0.04758	9.87	-6.86	-80.5	2.836	2.3697	1.2335	
-0.951966	-0.417606	-0.034038	8.26	-14.42	-79.1	2.8319	2.3802	1.2347	
-0.894016	-0.439688	-0.011102	1.96	-20.37	-75.88	2.827	2.3787	1.2254	
-0.818742	-0.489464	-0.008417999	2.66	-18.97	-70.77	2.8156	2.4013	1.2185	
-0.809226	-0.499346	-0.002928	-9.94	-17.15	-70.28	2.8072	2.4086	1.2242	
-0.807274	-0.527528	-0.00854	-19.95	-15.4	-70.7	2.8014	2.4252	1.2161	
-0.784094	-0.563396	-0.004514	-24.99	-13.02	-72.66	2.7903	2.4416	1.2215	
-0.754814	-0.66551	0.014274	-30.94	-12.74	-73.08	2.7961	2.4478	1.2187	
-0.763964	-0.722728	0.047458	-25.83	-14.84	-67.83	2.7799	2.449	1.2149	
-0.756644	-0.68076	-0.026108	-33.32	-22.05	-60.62	2.7687	2.4684	1.2172	
-0.800686	-0.615612	-0.001098	-19.18	-25.34	-51.8	2.7645	2.4683	1.2216	
-0.75457	-0.704794	0.02562	-18.55	-21.91	-41.3	2.7615	2.4697	1.2184	
-0.68442	-0.88633	-0.010736	-16.87	-12.46	-29.89	2.7497	2.4787	1.2102	
-0.673318	-0.92171	-0.015738	-10.5	-5.74	-23.38	2.7511	2.4772	1.2103	
-0.70577	-0.826306	-0.030622	-14.21	-6.09	-23.24	2.7517	2.4877	1.2193	
-0.716872	-0.743102	-0.00244	-0.14	-8.4	-20.86	2.7488	2.4846	1.2208	
-0.72041	-0.752984	0.01159	6.23	-13.16	-13.58	2.7395	2.486	1.2082	
-0.67771	-0.766282	-0.00061	7.07	-14.07	-6.65	2.7338	2.495	1.2063	
-0.667584	-0.773602	0.010004	-3.01	-10.29	-5.04	2.7386	2.4904	1.2187	
-0.694424	-0.727242	0.001708	-5.74	-10.5	-2.87	2.7429	2.489	1.2174	
-0.709064	-0.737612	0.027328	-2.8	-17.85	-1.12	2.7323	2.4858	1.2109	
-0.673318	-0.779092	0.031354	-2.8	-13.16	0.21	2.7262	2.4888	1.2045	
-0.67283	-0.746274	0.0183	-8.26	-10.01	2.94	2.7367	2.492	1.208	
-0.689422	-0.769942	0.02623	1.19	-4.06	5.95	2.7217	2.4933	1.1997	
-0.698938	-0.788608	0.036722	0.84	-4.34	9.8	2.738	2.4936	1.2034	
-0.70394	-0.762744	0.056364	0.7	-1.96	13.72	2.7309	2.4904	1.2092	
-0.684298	-0.718336	0.055632	-0.7	-2.03	15.19	2.7392	2.4922	1.1974	
-0.694546	-0.717848	0.052948	-1.54	3.29	20.51	2.7396	2.4845	1.2127	
-0.71126	-0.683932	0.048922	-7.07	7.07	24.5	2.7422	2.4816	1.2053	
-0.729804	-0.703574	0.042334	-10.43	11.69	26.6	2.7503	2.477	1.2255	
-0.730414	-0.74725	0.024522	-13.23	12.18	31.22	2.748	2.471	1.2102	
-0.73322	-0.745298	0.046482	-7.21	12.32	35.77	2.7584	2.4697	1.2153	
-0.752984	-0.721996	0.024644	-9.52	17.15	37.31	2.7631	2.4743	1.22	
-0.785558	-0.668682	0.003782	-8.47	16.66	38.78	2.7617	2.4682	1.2246	
-0.805078	-0.665144	0.007686	-3.85	14.07	40.53	2.7675	2.4653	1.2248	
-0.791048	-0.648186	0.011834	-5.88	13.02	43.12	2.7768	2.4684	1.2359	
-0.789584	-0.58316	-0.006222	-9.38	15.19	45.43	2.778	2.4593	1.2345	
-0.830576	-0.54168	-0.030744	-15.96	13.16	47.46	2.7879	2.452	1.2305	
-0.873642	-0.579134	-0.046848	-14.49	9.52	50.47	2.7793	2.4487	1.2347	
-0.85278	-0.605242	-0.069906	-13.51	1.82	54.6	2.7971	2.446	1.2431	
-0.854854	-0.583892	-0.06832	-8.89	-1.26	56.91	2.8024	2.4387	1.2328	
-0.860588	-0.562786	-0.079178	-9.59	-1.54	58.17	2.8053	2.4281	1.2391	
-0.875106	-0.544608	-0.081008	-11.34	-1.33	59.5	2.8038	2.425	1.2406	
-0.880596	-0.498126	-0.085644	-13.3	-2.87	60.06	2.8022	2.4159	1.2406	
-0.888648	-0.493734	-0.069174	-8.61	-4.76	61.67	2.8179	2.4041	1.2384	
-0.900238	-0.48739	-0.063196	-9.94	-3.5	63.98	2.8226	2.4041	1.2462	
-0.902434	-0.435784	-0.06954	-12.18	-3.92	65.24	2.8264	2.3968	1.2358	
-0.908656	-0.398208	-0.05551	-10.85	-8.47	65.24	2.8313	2.3937	1.2498	
-0.918782	-0.376248	-0.036722	-13.86	-6.3	66.85	2.8426	2.3803	1.2474	
-0.940254	-0.357094	-0.042578	-24.01	1.4	69.86	2.8337	2.3771	1.2455	
-0.93635	-0.31293	-0.091012	-30.52	0.35	69.51	2.8441	2.3682	1.2537	
-0.968314	-0.312564	-0.050508	-26.46	-6.02	68.81	2.844	2.3651	1.2522	
-0.986614	-0.241194	-0.03599	-21.77	-5.88	70.91	2.8536	2.3503	1.2451	
-0.984906	-0.188246	-0.068442	-19.46	-4.2	70.56	2.8445	2.3456	1.2418	
-0.963922	-0.163236	-0.031232	-27.02	-3.92	71.96	2.8666	2.343	1.2458	
-0.956358	-0.180194	-0.010736	-26.11	-1.4	72.73	2.8578	2.3291	1.2517	
-0.974414	-0.16775	-0.03416	-27.37	7	72.8	2.8681	2.3202	1.2583	
-0.980758	-0.152134	-0.06893	-24.92	8.82	73.5	2.8735	2.3158	1.251	
-0.986614	-0.125782	-0.044042	-21.56	8.82	73.43	2.8719	2.296	1.2572	
-1.015406	-0.095892	-0.06771	-19.18	10.85	73.78	2.8747	2.2839	1.2605	
-1.02114	-0.050508	-0.079422	-22.96	6.72	74.06	2.882	2.2658	1.2717	
-1.01321	-0.018544	-0.080764	-31.57	-2.59	73.29	2.8896	2.2689	1.2751	
-0.977952	-0.021838	-0.001708	-24.29	6.09	76.09	2.8892	2.2614	1.269	
-1.002352	0.024522	-0.06893	-23.03	-2.24	78.05	2.8816	2.2506	1.2688	
-1.00345	0.023424	-0.077836	-26.53	-3.5	79.31	2.8895	2.2327	1.2587	
-1.006012	0.035258	-0.075274	-24.78	-5.46	78.61	2.8842	2.2248	1.2753	
-0.992226	0.057584	-0.070272	-22.89	-11.48	78.68	2.8834	2.2128	1.2633	
-0.985516	0.083448	-0.071614	-20.65	-12.81	79.87	2.8881	2.2022	1.2758	
-0.989542	0.093086	-0.06405	-26.11	-12.95	79.73	2.8802	2.1945	1.2664	
-0.97539	0.116876	-0.06771	-23.8	-14.84	80.43	2.8799	2.1748	1.2681	
-0.96258	0.139568	-0.069906	-18.27	-15.4	81.69	2.8839	2.1689	1.2638	
-0.94977	0.173972	-0.05063	-16.31	-16.45	84.49	2.8821	2.1583	1.2592	
-0.951234	0.210694	-0.042944	-13.72	-19.11	87.71	2.8734	2.155	1.2635	
-0.940132	0.257786	-0.046238	-8.89	-20.44	90.23	2.8773	2.14	1.2592	
-0.949526	0.306586	-0.029646	-12.88	-20.72	91.07	2.8621	2.1245	1.2542	
-0.897432	0.37454	0.002196	-19.18	-24.85	88.55	2.8589	2.1077	1.2573	
-0.888892	0.39284	0.015616	-15.96	-18.13	89.18	2.8642	2.1004	1.2485	
-0.894138	0.428708	0.000488	-10.57	-15.82	90.16	2.8507	2.0803	1.2496	
-0.904508	0.492026	0.012322	-6.37	-15.12	88.97	2.8499	2.0638	1.2391	
-0.882548	0.479094	0.018422	-11.34	-17.64	86.31	2.8423	2.0484	1.2405	
-0.876936	0.49776	0.00061	0.14	-16.94	86.45	2.8466	2.0455	1.2407	
-0.863516	0.541558	-0.00305	2.31	-16.73	85.12	2.8212	2.0405	1.2305	
-0.834846	0.576084	0.021106	-3.78	-18.9	82.6	2.8179	2.0252	1.2306	
-0.807762	0.620004	0.04697	-8.75	-20.3	79.38	2.8191	2.0055	1.2354	
-0.792634	0.642086	0.05978	-9.73	-20.72	76.09	2.8101	2.0008	1.232	
-0.774456	0.629398	0.032452	-9.1	-19.67	73.29	2.8126	1.9948	1.2246	
-0.774334	0.645746	0.040504	-8.68	-24.22	71.12	2.7942	1.9794	1.2133	
-0.499468	0.5063	0.07137	-39.97	-44.8	65.73	2.7913	1.9763	1.2147	
-0.79605	0.712846	0.122366	-1.26	-44.38	59.64	2.7843	1.9791	1.2205	
-0.746396	0.710284	0.0732	22.26	-18.83	62.72	2.7712	1.9547	1.2004	
-0.728462	0.760792	0.08723	1.33	-22.96	58.87	2.7682	1.9608	1.1956	
-0.684176	0.766038	0.060634	4.34	-16.03	57.26	2.7621	1.9394	1.2002	
-0.663558	0.729804	0.038796	-11.55	-20.16	51.73	2.7575	1.9378	1.1969	
-0.661606	0.751886	0.10858	-16.87	-24.22	46.55	2.7516	1.93	1.1998	
-0.655994	0.751886	0.119438	-11.62	-22.68	43.75	2.7427	1.9299	1.1964	
-0.639646	0.739076	0.13603	-13.37	-18.76	41.93	2.7394	1.9238	1.1902	
-0.610854	0.769576	0.161528	-2.66	-19.11	42.42	2.732	1.9221	1.1899	
-0.601704	0.829722	0.166774	9.52	-18.13	41.86	2.7257	1.913	1.1836	
-0.597556	0.816302	0.116998	3.99	-14.56	37.38	2.7186	1.9158	1.1879	
-0.606584	0.815936	0.132248	-13.65	-12.6	32.27	2.7065	1.908	1.1829	
-0.60634	0.813862	0.173972	-18.69	-15.05	27.79	2.705	1.9095	1.1813	
-0.594628	0.809104	0.162138	-5.04	-13.3	26.53	2.6976	1.9002	1.1841	
-0.568642	0.801906	0.163846	-5.81	-12.53	25.34	2.694	1.8988	1.1687	
-0.555954	0.817034	0.146034	0.84	-14.77	22.89	2.7014	1.8989	1.1706	
-0.532164	0.82228	0.193614	-14.63	-14.28	21.84	2.6941	1.9003	1.1702	
-0.542778	0.826184	0.210816	-13.02	-9.52	20.79	2.6881	1.8956	1.1685	
-0.556564	0.838018	0.211182	-10.64	-6.09	19.39	2.6795	1.903	1.1696	
-0.55632	0.84363	0.194712	-4.06	-3.43	17.5	2.6809	1.8954	1.1712	
-0.52826	0.840458	0.186904	-4.76	-4.62	15.54	2.691	1.888	1.1718	
-0.517646	0.85461	0.201422	-6.16	-5.67	13.58	2.6765	1.9029	1.1664	
-0.537654	0.8723	0.215208	-9.45	-6.02	10.85	2.679	1.9031	1.1574	
-0.51789	0.845216	0.201544	-9.1	-3.64	8.68	2.6792	1.8908	1.1682	
-0.498736	0.84058	0.213866	-9.73	-3.15	8.12	2.6749	1.8938	1.1679	
-0.507154	0.85339	0.209108	-4.62	-0.28	8.19	2.672	1.8998	1.1662	
-0.513376	0.846558	0.187636	-6.09	-0.42	6.37	2.6762	1.903	1.1603	
-0.507398	0.851194	0.204716	-10.5	-3.43	4.06	2.6688	1.8937	1.1631	
-0.506178	0.851682	0.231922	-11.2	-4.83	2.24	2.667	1.8937	1.1554	
-0.49959	0.836432	0.228994	-8.33	-2.94	1.75	2.67	1.8938	1.1571	
-0.50386	0.843508	0.234972	-8.19	-0.28	2.03	2.6671	1.8968	1.1554	
-0.503616	0.83814	0.232288	-5.53	1.47	1.33	2.6647	1.9042	1.1628	
-0.51057	0.836676	0.227896	-5.6	1.68	-0.42	2.6771	1.8925	1.1528	
-0.514352	0.847046	0.233752	-4.83	1.4	-1.47	2.6656	1.8998	1.1522	
-0.506422	0.852048	0.230214	-2.17	1.26	-2.87	2.6655	1.8952	1.1538	
-0.500932	0.843996	0.2318	-4.27	0.42	-4.2	2.6713	1.8984	1.151	
-0.511302	0.842166	0.238876	-4.9	1.68	-5.25	2.6687	1.8983	1.1585	
-0.523136	0.84363	0.22936	-1.89	3.22	-6.79	2.6755	1.8971	1.1466	
-0.520208	0.842166	0.22204	-0.56	3.08	-8.68	2.6734	1.906	1.1601	
-0.52094	0.844362	0.230336	-1.05	1.68	-10.92	2.6684	1.8984	1.1509	
-0.52277	0.839238	0.225944	1.54	0.77	-13.02	2.6762	1.9076	1.1572	
-0.52582	0.84302	0.235338	2.38	-0.07	-15.61	2.6806	1.9122	1.1558	
-0.524112	0.856684	0.234362	7.98	2.03	-17.43	2.681	1.9121	1.165	
-0.532408	0.860344	0.224968	10.78	3.36	-19.74	2.6816	1.8971	1.1514	
-0.554856	0.844484	0.20008	7.98	5.6	-22.82	2.6835	1.9062	1.1575	
-0.557296	0.828258	0.197762	0.56	6.02	-26.11	2.688	1.9124	1.1561	
-0.563884	0.825086	0.197152	2.38	5.74	-28.56	2.6838	1.9153	1.1589	
-0.571082	0.824476	0.192028	9.24	5.18	-30.31	2.6883	1.9184	1.1622	
-0.562176	0.822768	0.195078	13.16	4.27	-32.34	2.6926	1.9155	1.1609	
-0.571936	0.810568	0.192638	8.96	6.02	-34.51	2.6967	1.9157	1.1534	
-0.593774	0.799344	0.190076	8.61	6.23	-36.61	2.7003	1.9247	1.1657	
-0.6039	0.783118	0.186538	8.68	4.83	-39.34	2.7033	1.9217	1.1673	
-0.606584	0.770674	0.194468	9.94	3.99	-41.3	2.7063	1.9218	1.1705	
-0.619882	0.768234	0.19642	14.28	5.6	-42.49	2.7162	1.9343	1.1556	
-0.644648	0.772382	0.177266	21.42	6.37	-43.54	2.7154	1.9341	1.1723	
-0.646478	0.767014	0.152256	24.57	6.09	-45.15	2.7299	1.9345	1.1684	
-0.654652	0.764696	0.155184	21.21	3.92	-48.16	2.7306	1.9419	1.1805	
-0.651602	0.751398	0.166164	17.43	3.22	-50.89	2.7365	1.9359	1.1854	
-0.658678	0.726876	0.160674	18.27	6.44	-52.99	2.7409	1.9452	1.1809	
-0.698206	0.702232	0.153598	13.23	8.33	-56.42	2.7455	1.9513	1.1826	
-0.706502	0.685396	0.158966	12.11	7.84	-58.45	2.7489	1.965	1.1871	
-0.719922	0.674416	0.146766	16.73	10.5	-59.57	2.7533	1.9682	1.1842	
-0.752374	0.64782	0.117364	19.95	13.93	-61.18	2.7575	1.9668	1.1814	
-0.758718	0.639158	0.118096	17.71	13.02	-62.37	2.7755	1.9777	1.1866	
-0.761402	0.62891	0.122976	15.82	12.6	-64.75	2.773	1.9883	1.1894	
-0.776774	0.610976	0.121024	13.37	13.86	-67.41	2.7815	1.9901	1.1822	
-0.79483	0.56913	0.111752	11.55	14.98	-69.37	2.7933	1.9888	1.1873	
-0.8052	0.565958	0.123342	13.51	18.13	-70.28	2.7938	1.9993	1.1933	
-0.823988	0.551928	0.122366	15.82	15.61	-72.59	2.7987	2.0085	1.1994	
-0.851072	0.527772	0.116876	13.65	16.8	-75.46	2.8157	2.033	1.209	
-0.896944	0.502152	0.117486	10.57	18.2	-78.33	2.8114	2.0298	1.2119	
-0.905484	0.4636	0.088938	17.22	19.67	-80.71	2.8206	2.0513	1.2121	
-0.920002	0.419924	0.076738	13.44	21.84	-81.97	2.8237	2.0482	1.2168	
-0.890844	0.38186	0.06466	16.52	27.93	-81.06	2.8254	2.0604	1.2168	
-0.894992	0.361486	0.046116	16.24	29.33	-82.11	2.8404	2.0729	1.2188	
-0.90158	0.328302	0.050874	10.85	28.7	-83.37	2.8363	2.0712	1.2263	
-0.931348	0.315126	0.051484	18.62	25.76	-85.4	2.8428	2.0864	1.234	
-0.945866	0.277794	0.02501	20.72	26.88	-87.29	2.8668	2.1143	1.2317	
-0.93208	0.264008	0.009516	22.26	25.34	-88.69	2.8716	2.1188	1.241	
-0.925614	0.23729	0.005246	13.3	24.78	-91.28	2.8706	2.1415	1.2391	
-0.917684	0.21106	0.015738	3.64	26.6	-93.1	2.8749	2.1447	1.2362	
-0.916586	0.174948	0.012566	1.19	28.14	-94.78	2.8743	2.1552	1.2498	
-0.933178	0.146522	-0.015616	2.73	30.17	-95.83	2.8732	2.1672	1.2527	
-0.934032	0.11041	-0.041968	1.47	35.07	-97.16	2.8784	2.1839	1.2634	
-0.937448	0.061976	-0.070638	-0.77	40.53	-99.12	2.8819	2.1976	1.2695	
-0.981002	0.013786	-0.091012	-5.39	43.82	-102.2	2.8868	2.2082	1.2756	
-1.002474	-0.022936	-0.11224	-7.49	43.89	-104.37	2.8884	2.2173	1.2756	
-0.99125	-0.058926	-0.131516	-8.75	45.36	-104.72	2.8891	2.24	1.2799	
-1.087752	0.015372	-0.100162	-2.17	47.88	-102.2	2.8823	2.2611	1.2809	
-0.98759	-0.377102	-0.349164	-41.37	34.93	-103.95	2.8905	2.2748	1.2948	
-0.973926	-0.24461	-0.147132	-19.6	47.67	-101.57	2.8757	2.2943	1.2803	
-0.97966	-0.247294	-0.188978	-6.37	41.79	-104.02	2.8842	2.311	1.2987	
-1.004792	-0.242048	-0.211548	-5.32	35.21	-102.41	2.8889	2.3171	1.3034	
-0.986126	-0.261812	-0.223016	0.28	34.16	-96.11	2.8883	2.3336	1.3139	
-0.986614	-0.30805	-0.240462	1.33	28.07	-93.8	2.8811	2.3456	1.3119	
-0.988078	-0.364292	-0.238266	14.63	22.33	-86.87	2.8703	2.368	1.3218	
-0.949038	-0.359534	-0.259982	24.5	15.26	-82.39	2.8693	2.3861	1.3231	
-0.940864	-0.39223	-0.252174	20.23	12.74	-78.26	2.8713	2.3983	1.3276	
-0.937936	-0.424804	-0.228994	14.77	6.16	-74.97	2.8524	2.4161	1.322	
-0.916098	-0.40931	-0.202398	15.19	1.68	-70.91	2.8523	2.4192	1.3189	
-0.907192	-0.4026	-0.224602	15.82	-2.03	-65.59	2.8526	2.4237	1.3219	
-0.889502	-0.392718	-0.243512	15.89	-7	-62.3	2.845	2.4327	1.3108	
-0.865712	-0.421388	-0.23973	17.99	-10.85	-62.16	2.8383	2.4431	1.3211	
-0.86437	-0.486414	-0.213866	15.75	-13.02	-59.92	2.8273	2.4415	1.3023	
-0.851804	-0.5185	-0.198128	18.76	-15.47	-56.84	2.8353	2.4476	1.3148	
-0.83631	-0.543998	-0.19459	17.85	-17.5	-53.69	2.8158	2.4549	1.3002	
-0.82167	-0.533628	-0.152012	19.18	-17.22	-48.65	2.8208	2.4671	1.3079	
-0.823256	-0.55571	-0.133712	10.22	-15.47	-43.82	2.8093	2.4744	1.3088	
-0.82472	-0.532774	-0.17019	13.02	-12.95	-41.09	2.8027	2.4698	1.2949	
-0.815936	-0.574132	-0.154086	7.21	-7.35	-38.29	2.7923	2.4757	1.2867	
-0.805078	-0.609024	-0.144814	3.85	-5.04	-34.16	2.7943	2.4848	1.2943	
-0.779946	-0.597678	-0.171776	0.84	-3.78	-31.22	2.8	2.4804	1.2946	
-0.794098	-0.616954	-0.170312	-1.05	-2.03	-29.4	2.7882	2.4801	1.2926	
-0.806908	-0.660996	-0.148352	-2.94	-1.12	-25.2	2.7809	2.4952	1.283	
-0.784948	-0.652334	-0.152256	-0.56	-1.82	-23.17	2.7801	2.4981	1.2981	
-0.775798	-0.66917	-0.150792	0.7	-2.8	-22.05	2.7765	2.4982	1.2827	
-0.777994	-0.647576	-0.15433	3.5	-4.41	-20.16	2.784	2.5044	1.283	
-0.764574	-0.652822	-0.139324	4.76	-5.6	-17.71	2.7708	2.5056	1.2809	
-0.770674	-0.64416	-0.137372	4.83	-5.95	-14.49	2.7768	2.5057	1.2857	
-0.763476	-0.67466	-0.12932	2.73	-5.81	-12.95	2.7736	2.5088	1.2779	
-0.752008	-0.669292	-0.142618	3.01	-5.32	-12.95	2.768	2.5147	1.2806	
-0.74176	-0.689056	-0.138226	4.13	-4.27	-13.09	2.7647	2.504	1.2761	
-0.753228	-0.67954	-0.14213	6.16	-3.29	-12.11	2.7646	2.5025	1.2745	
-0.74176	-0.677588	-0.135542	3.15	-1.54	-10.57	2.7709	2.5086	1.2824	
-0.747372	-0.698206	-0.134078	0.42	-0.63	-9.94	2.7635	2.51	1.2805	
-0.74786	-0.702598	-0.136152	0.7	0.14	-7.56	2.7638	2.5084	1.2866	
-0.746884	-0.699426	-0.136518	1.54	0.42	-5.32	2.7602	2.507	1.2728	
-0.742736	-0.69357	-0.14091	1.82	0.91	-4.2	2.759	2.5084	1.2773	
-0.745908	-0.688812	-0.143228	2.45	0.07	-3.71	2.7545	2.5007	1.2802	
-0.736148	-0.69357	-0.127856	5.46	-0.98	-2.8	2.7603	2.5131	1.2712	
-0.738344	-0.705038	-0.12505	6.72	-0.49	-1.19	2.7633	2.5024	1.2791	
-0.73932	-0.695278	-0.117608	5.18	0	1.82	2.7586	2.507	1.2697	
-0.736392	-0.688812	-0.129076	1.96	0.14	3.43	2.7622	2.516	1.2804	
-0.73383	-0.689666	-0.132492	4.55	-1.19	2.8	2.7547	2.5068	1.2817	
-0.734562	-0.705038	-0.12993	7.35	-2.66	1.75	2.7675	2.5057	1.2716	
-0.73383	-0.698694	-0.11041	5.04	-1.75	2.45	2.7618	2.5131	1.2728	
-0.741028	-0.690398	-0.122732	0.07	0.28	4.13	2.7705	2.4981	1.2794	
-0.747372	-0.689544	-0.118462	1.4	-0.35	5.88	2.7536	2.5112	1.2877	
-0.745542	-0.699548	-0.118706	1.61	-0.49	7.77	2.7662	2.5132	1.273	
-0.743712	-0.703818	-0.129564	-0.07	-0.21	9.59	2.7663	2.5101	1.2761	
-0.749202	-0.698572	-0.122854	0.84	-0.35	11.69	2.7616	2.5101	1.2682	
-0.74908	-0.693082	-0.115168	0.77	0.07	13.93	2.7573	2.5024	1.2742	
-0.74542	-0.725168	-0.09747799	-0.14	1.05	17.01	2.76	2.501	1.2698	
-0.763598	-0.6649	-0.136884	-1.19	2.73	19.74	2.7725	2.5071	1.287	
-0.767502	-0.66429	-0.12932	-0.21	0.49	20.16	2.7688	2.4966	1.2733	
-0.76433	-0.661118	-0.131028	0.14	0.35	21.91	2.7792	2.5044	1.2721	
-0.76799	-0.68686	-0.11834	-3.08	3.99	26.32	2.7747	2.4936	1.2766	
-0.778604	-0.65819	-0.136152	-2.38	4.48	29.54	2.7851	2.4908	1.2817	
-0.782874	-0.646356	-0.140178	-3.01	4.27	32.06	2.7834	2.503	1.2693	
-0.782386	-0.62769	-0.146278	-2.66	3.15	33.11	2.7968	2.4819	1.2853	
-0.789584	-0.645258	-0.131394	-4.13	7.49	36.54	2.7864	2.4787	1.2834	
-0.801052	-0.623908	-0.17202	-6.37	7.35	39.34	2.801	2.4729	1.2871	
-0.808982	-0.620004	-0.140666	-3.08	2.94	40.95	2.8023	2.4669	1.2857	
-0.809958	-0.604876	-0.157014	-3.22	3.43	44.24	2.8019	2.4639	1.2781	
-0.822036	-0.59231	-0.14945	-3.08	4.27	47.46	2.8045	2.4565	1.2738	
-0.830576	-0.557296	-0.143716	-3.92	4.34	50.4	2.8136	2.4535	1.2833	
-0.817888	-0.535458	-0.145546	-6.37	3.92	52.5	2.8122	2.4474	1.2894	
-0.84302	-0.529968	-0.153476	-9.38	4.76	55.37	2.8296	2.4448	1.2872	
-0.849974	-0.51972	-0.14762	-8.75	3.78	57.68	2.843	2.4267	1.3017	
-0.849608	-0.493978	-0.163846	-11.06	6.72	60.69	2.8324	2.4342	1.2889	
-0.878278	-0.465918	-0.167018	-14.42	7.63	62.44	2.8455	2.4223	1.2942	
-0.900726	-0.402722	-0.193248	-13.93	1.89	62.86	2.8517	2.4178	1.3052	
-0.910852	-0.421144	-0.13542	-15.19	7.49	64.4	2.847	2.4117	1.3005	
-0.915122	-0.363438	-0.165798	-16.38	1.96	68.46	2.8467	2.4072	1.2944	
-0.95099	-0.349286	-0.147498	-16.73	0.35	70	2.8567	2.3907	1.2981	
-0.997228	-0.324032	-0.137982	-16.24	-0.28	74.13	2.8639	2.3863	1.297	
-1.0065	-0.26657	-0.154818	-13.93	-5.18	75.6	2.8649	2.3727	1.2941	
-0.97417	-0.213866	-0.161528	-15.12	-8.05	76.65	2.8676	2.3606	1.2959	
-0.971974	-0.178242	-0.142862	-22.33	-6.72	77.98	2.8718	2.3364	1.3024	
-0.988566	-0.155672	-0.141886	-28.84	-5.95	79.66	2.8757	2.3229	1.2997	
-0.981246	-0.125904	-0.15067	-25.55	-9.73	81.62	2.8875	2.3216	1.3033	
-1.012478	-0.112118	-0.12017	-29.82	-10.85	85.75	2.8834	2.3184	1.3108	
-0.996496	-0.066368	-0.133956	-28.98	-10.78	89.11	2.8842	2.3018	1.3049	
-0.98698	-0.026962	-0.171776	-31.92	-8.47	91	2.8929	2.2883	1.3085	
-0.991494	-0.005612	-0.191052	-38.85	-16.38	89.18	2.8988	2.2808	1.3149	
-0.998692	-0.000122	-0.16958	-41.79	-23.8	88.06	2.8943	2.2746	1.3148	
-1.000034	-0.001952	-0.099186	-39.55	-19.39	90.86	2.8955	2.258	1.3166	
-0.989786	0.045872	-0.149572	-42.7	-27.93	92.68	2.897	2.2462	1.2909	
-0.98088	0.077836	-0.144936	-38.92	-28.7	93.8	2.8969	2.2355	1.2925	
-0.97966	0.125172	-0.12078	-41.58	-29.96	94.08	2.9011	2.2189	1.2975	
-0.957578	0.141886	-0.108824	-43.82	-30.31	94.5	2.8946	2.2098	1.2866	
-0.976122	0.161406	-0.101504	-42.35	-32.13	94.99	2.8928	2.1854	1.2929	
-0.95343	0.1708	-0.111996	-45.22	-34.93	93.94	2.8899	2.1838	1.2928	
-0.960872	0.241072	-0.106628	-46.34	-31.15	93.38	2.8935	2.1673	1.284	
-0.966728	0.305976	-0.04819	-57.61	-33.74	90.02	2.8845	2.1733	1.2744	
-0.976488	0.322934	-0.026596	-52.78	-34.51	87.08	2.8794	2.152	1.2683	
-0.941962	0.320982	-0.067832	-48.72	-31.43	86.94	2.87	2.1382	1.262	
-0.91073	0.369904	-0.048068	-49.56	-30.24	87.71	2.8694	2.1247	1.2545	
-0.912682	0.391742	0.020374	-48.51	-35	86.1	2.8627	2.111	1.2422	
-0.927688	0.474946	0.050996	-37.45	-44.45	78.54	2.8584	2.1048	1.2466	
-0.925858	0.4209	0.054656	-43.4	-28.77	78.47	2.8476	2.0986	1.2371	
-0.881328	0.429318	0.033794	-42.84	-32.48	75.95	2.8406	2.0789	1.2187	
-0.835578	0.457988	0.013786	-35.77	-30.94	77.7	2.8319	2.0772	1.223	
-0.802272	0.5063	0.074298	-33.6	-33.11	76.79	2.8359	2.0774	1.214	
-0.811666	0.551318	0.125904	-28.84	-35.63	72.45	2.8241	2.0756	1.212	
-0.854732	0.578036	0.152866	-26.74	-34.93	70.35	2.8192	2.0619	1.2073	
-0.852292	0.597434	0.147376	-25.69	-32.76	67.62	2.8335	2.0516	1.205	
-0.824842	0.573888	0.13481	-23.8	-34.72	63.91	2.8048	2.0421	1.1871	
-0.766892	0.580354	0.142008	-21	-34.58	62.09	2.802	2.0344	1.1947	
-0.726388	0.623786	0.18422	-17.78	-37.31	61.11	2.8045	2.0254	1.1888	
-0.74298	0.662216	0.225334	-16.73	-40.6	56.42	2.7953	2.0207	1.1824	
-0.763598	0.634766	0.217526	-9.1	-36.47	52.71	2.7922	2.0252	1.1761	
-0.746396	0.648796	0.235094	-7.84	-37.73	48.93	2.7783	2.0114	1.165	
-0.682468	0.693204	0.24888	-3.5	-37.24	48.16	2.774	2.0082	1.1694	
-0.664168	0.692106	0.244366	-6.44	-37.24	45.64	2.7592	2.0064	1.1658	
-0.660874	0.691618	0.24827	-2.45	-39.13	42.91	2.7482	1.9942	1.1548	
-0.633546	0.728584	0.255956	1.54	-38.01	40.18	2.7469	1.9926	1.1578	
-0.655262	0.716872	0.263764	3.01	-39.27	34.23	2.7468	1.988	1.1578	
-0.619272	0.706624	0.3172	6.86	-36.75	34.79	2.7333	1.9832	1.1542	
-0.597556	0.71126	0.311832	8.12	-30.73	33.95	2.7298	1.9833	1.1404	
-0.599874	0.738344	0.291336	5.39	-26.53	32.55	2.7221	1.9725	1.1371	
-0.581818	0.763476	0.276452	6.02	-25.55	30.73	2.7161	1.974	1.1323	
-0.577304	0.77775	0.302194	6.58	-23.73	28.7	2.7111	1.9649	1.123	
-0.580598	0.762622	0.307074	7.98	-22.05	26.04	2.6997	1.9554	1.1348	
-0.573888	0.75518	0.30561	6.58	-20.16	23.8	2.7025	1.9585	1.1303	
-0.551318	0.775432	0.307318	5.95	-15.82	23.24	2.6935	1.9538	1.127	
-0.543998	0.80337	0.30683	6.51	-14.49	21	2.6937	1.9553	1.1315	
-0.536434	0.794952	0.310124	5.25	-12.88	18.27	2.6875	1.9491	1.1267	
-0.540704	0.772138	0.31598	4.34	-10.85	16.94	2.6861	1.9475	1.1282	
-0.551318	0.778604	0.299266	8.33	-10.15	15.75	2.6849	1.952	1.1312	
-0.548512	0.797148	0.298046	10.01	-10.08	14.63	2.6841	1.9385	1.1206	
-0.519476	0.79727	0.315126	8.82	-7.14	13.16	2.6753	1.9337	1.1218	
-0.513376	0.814228	0.31476	7.7	-5.53	12.6	2.6726	1.9367	1.1247	
-0.515084	0.837286	0.306464	7.77	-4.83	11.69	2.6768	1.9307	1.125	
-0.515694	0.845704	0.305	6.58	-3.71	10.43	2.6738	1.9368	1.1187	
-0.502762	0.84119	0.299632	6.02	-2.87	9.03	2.6699	1.9274	1.1354	
-0.494954	0.840336	0.30561	2.73	-2.87	7.84	2.6698	1.9289	1.1338	
-0.498126	0.843142	0.299266	3.43	-2.31	6.51	2.6711	1.9305	1.1278	
-0.49471	0.83936	0.292556	3.43	-2.38	4.83	2.6697	1.9289	1.1308	
-0.49715	0.826062	0.296582	1.89	-3.29	3.29	2.6694	1.9275	1.1232	
-0.490928	0.818742	0.300242	1.33	-3.43	2.52	2.6596	1.9287	1.1349	
-0.494466	0.831918	0.305488	1.05	-4.41	2.45	2.6664	1.9259	1.123	
-0.498858	0.833504	0.302316	-0.56	-4.34	1.26	2.6637	1.9273	1.129	
-0.501786	0.828746	0.287432	-0.21	-2.38	0.7	2.6724	1.9276	1.1248	
-0.504592	0.818498	0.305244	-3.85	-3.5	0.07	2.6709	1.9214	1.1294	
-0.503128	0.811178	0.311222	-3.01	-3.29	-0.56	2.6653	1.9212	1.1352	
-0.507398	0.814838	0.311832	-1.05	-2.17	-0.7	2.662	1.9228	1.1244	
-0.51667	0.81801	0.311832	-1.68	-0.91	-1.33	2.6696	1.9259	1.1293	
-0.508374	0.807884	0.316102	-2.38	0.42	-2.24	2.6682	1.9289	1.1292	
-0.50813	0.819596	0.321226	0.84	0.91	-4.27	2.6631	1.9198	1.1184	
-0.521672	0.828502	0.295484	2.31	0.77	-6.93	2.6621	1.9289	1.1228	
-0.524844	0.831918	0.305122	-2.73	0.07	-8.75	2.6664	1.9274	1.123	
-0.504592	0.831918	0.338672	-6.44	0.98	-10.15	2.6651	1.9304	1.1245	
-0.523014	0.823988	0.316834	-5.46	1.4	-13.23	2.6755	1.9367	1.1248	
-0.532286	0.814228	0.300486	-4.48	3.01	-15.47	2.6737	1.9322	1.1187	
-0.521062	0.827892	0.32086	-5.67	2.31	-17.43	2.6814	1.9399	1.1251	
-0.513864	0.829478	0.326472	-4.62	3.64	-20.37	2.6731	1.9472	1.1322	
-0.526308	0.831552	0.325862	-4.62	3.64	-24.01	2.6715	1.9426	1.1307	
-0.550464	0.825818	0.299754	-0.77	5.81	-27.58	2.6797	1.946	1.1158	
-0.544242	0.804468	0.306464	-2.8	10.36	-28.84	2.6727	1.9443	1.1231	
-0.525088	0.79666	0.31537	-2.94	11.62	-31.78	2.679	1.9458	1.134	
-0.535092	0.7808	0.2989	3.15	13.79	-34.16	2.686	1.946	1.1267	
-0.533018	0.783728	0.279868	11.27	14.77	-35.56	2.6904	1.9583	1.1207	
-0.558028	0.770674	0.278404	6.93	14.91	-37.59	2.6966	1.963	1.127	
-0.584746	0.746152	0.267302	7.07	14.21	-40.25	2.7022	1.954	1.1243	
-0.61793	0.723582	0.266692	7.56	12.11	-40.53	2.7014	1.9675	1.1332	
-0.611464	0.732122	0.303414	8.05	15.54	-38.43	2.7133	1.9754	1.1352	
-0.608902	0.7198	0.27816	19.46	22.4	-37.52	2.7242	1.9831	1.1447	
-0.62281	0.729682	0.265594	16.24	23.45	-38.78	2.725	1.9726	1.1357	
-0.641476	0.734074	0.271938	11.41	25.41	-40.46	2.7329	1.9787	1.1467	
-0.648308	0.715164	0.256566	12.95	29.26	-42.56	2.7359	1.9803	1.1468	
-0.676002	0.703452	0.225334	21.42	26.88	-45.85	2.7418	1.9758	1.1517	
-0.707356	0.692106	0.196786	24.36	26.25	-47.88	2.7466	1.982	1.1564	
-0.729682	0.698572	0.197152	23.8	24.78	-50.47	2.7606	1.9927	1.1721	
-0.736514	0.685884	0.199226	16.94	23.87	-53.27	2.7561	1.9896	1.1704	
-0.737612	0.671366	0.18605	24.08	28.14	-55.51	2.7637	2.0004	1.1706	
-0.756034	0.63196	0.167628	22.12	27.58	-58.38	2.7652	1.9958	1.1738	
-0.766282	0.613294	0.16104	26.81	24.5	-60.83	2.7862	2.0099	1.1791	
-0.78446	0.603656	0.145668	28.49	22.82	-63.98	2.7866	2.0174	1.1866	
-0.80703	0.601704	0.141764	35	20.79	-66.92	2.7921	2.0055	1.1824	
-0.82411	0.585844	0.133224	33.74	18.48	-69.79	2.7899	2.0281	1.1897	
-0.831186	0.570106	0.128222	37.31	18.55	-72.8	2.8049	2.0283	1.198	
-0.831064	0.539728	0.114558	35.42	18.41	-74.97	2.7993	2.0373	1.1976	
-0.832406	0.5429	0.133712	32.2	17.22	-77.49	2.8169	2.0453	1.1968	
-0.837042	0.522404	0.142496	24.15	17.29	-81.48	2.8216	2.0407	1.2062	
-0.869494	0.460672	0.136396	24.43	23.73	-84.42	2.8402	2.0668	1.2173	
-0.91195	0.423706	0.131394	28.49	23.87	-86.52	2.8439	2.0835	1.2265	
-0.942572	0.392718	0.098454	35.91	23.38	-89.11	2.8454	2.0835	1.228	
-0.941352	0.359656	0.070882	36.19	27.44	-90.16	2.8499	2.0958	1.2235	
-0.91744	0.332816	0.063928	32.27	28.91	-90.86	2.8624	2.1111	1.2346	
-0.894626	0.309636	0.054534	35.42	29.26	-90.3	2.8685	2.1234	1.2347	
-0.9089	0.28426	0.04087	33.53	28.77	-91.84	2.8634	2.1292	1.2481	
-0.920612	0.257908	0.034648	25.69	31.64	-92.82	2.868	2.146	1.2435	
-0.917196	0.21594	0.014762	21.91	32.06	-95.13	2.8666	2.1429	1.2481	
-0.93086	0.220088	0.006344	25.41	32.55	-97.58	2.882	2.1689	1.253	
-0.911218	0.18117	0.005124	9.8	35.84	-100.52	2.8781	2.1733	1.2604	
-0.913414	0.175436	0.000854	2.73	38.43	-105.84	2.8859	2.184	1.2667	
-0.895358	0.133346	-0.010858	-6.86	41.51	-110.11	2.8818	2.1991	1.2664	
-0.867176	0.037942	-0.06649	-9.17	46.34	-109.48	2.8858	2.2324	1.2753	
-0.896578	-0.088816	-0.158234	12.18	56.84	-105.98	2.8893	2.24	1.2845	
-1.002718	-0.178974	-0.168848	-8.05	73.08	-107.8	2.8867	2.2444	1.2904	
-1.002596	-0.257908	-0.185562	-8.26	69.72	-104.16	2.8934	2.2703	1.295	
-0.871324	-0.069052	-0.316346	8.4	71.68	-103.18	2.8959	2.2884	1.3117	
-1.016748	-0.244976	-0.221308	-18.69	51.17	-98	2.8972	2.317	1.3266	
-1.004426	-0.29951	-0.31476	7.21	51.03	-92.96	2.8905	2.3289	1.3353	
-1.023214	-0.335988	-0.291702	8.61	42.77	-87.64	2.8838	2.3438	1.3425	
-0.976122	-0.34282	-0.266936	16.94	33.95	-81.2	2.8926	2.3532	1.3382	
-0.98393	-0.330376	-0.279624	36.26	23.59	-72.31	2.8815	2.3634	1.3467	
-0.948916	-0.336842	-0.315614	39.9	16.94	-70.7	2.8874	2.3727	1.3423	
-0.921222	-0.356728	-0.332084	35	15.19	-68.67	2.8773	2.3755	1.3434	
-0.881206	-0.360876	-0.274866	30.38	10.29	-68.67	2.8751	2.392	1.3522	
-0.8601	-0.379542	-0.240706	25.34	7.98	-70.07	2.8589	2.4069	1.3422	
-0.848144	-0.386984	-0.259128	23.38	4.55	-69.65	2.8688	2.4133	1.3319	
-0.857172	-0.421022	-0.254004	18.13	3.85	-68.88	2.8528	2.4175	1.3296	
-0.84668	-0.452864	-0.266692	18.13	3.64	-68.04	2.8522	2.4295	1.3447	
-0.835456	-0.469822	-0.250222	20.44	3.15	-66.85	2.8457	2.4356	1.3261	
-0.83082	-0.5002	-0.237534	19.11	2.87	-63.63	2.8416	2.4354	1.3335	
-0.87108	-0.534848	-0.252052	18.06	4.69	-59.29	2.8313	2.4565	1.3206	
-0.856928	-0.550464	-0.256688	18.27	3.57	-53.41	2.829	2.4548	1.3358	
-0.853634	-0.549244	-0.225578	15.12	2.94	-48.51	2.8129	2.4636	1.3304	
-0.84485	-0.537898	-0.239974	16.03	1.33	-43.33	2.8214	2.4715	1.32	
-0.78141	-0.574376	-0.250588	9.52	1.54	-40.46	2.8135	2.4802	1.3379	
-0.800442	-0.61183	-0.239974	8.96	1.26	-36.75	2.8027	2.4862	1.319	
-0.811544	-0.614392	-0.24217	10.01	0.21	-32.2	2.8068	2.4803	1.3162	
-0.797392	-0.619028	-0.250832	9.45	1.82	-27.72	2.8043	2.4908	1.3206	
-0.79788	-0.633424	-0.25071	5.53	1.61	-24.71	2.7966	2.4907	1.3111	
-0.806298	-0.64599	-0.242292	4.69	0	-21.42	2.8101	2.4909	1.3193	
-0.79056	-0.643672	-0.241804	9.17	-1.68	-18.34	2.7983	2.4953	1.3157	
-0.761402	-0.634278	-0.24217	9.31	-3.64	-15.75	2.791	2.4859	1.32	
-0.75457	-0.653676	-0.234118	8.75	-3.15	-14.28	2.7982	2.4938	1.3142	
-0.747494	-0.648796	-0.228994	11.06	-3.64	-12.95	2.7907	2.4982	1.3077	
-0.730048	-0.62891	-0.228872	8.96	-3.29	-13.09	2.7968	2.4998	1.311	
-0.728584	-0.641964	-0.23058	7.14	-2.73	-14.56	2.7817	2.4965	1.3028	
-0.737246	-0.656848	-0.217282	6.72	-1.75	-14.63	2.7867	2.5026	1.3136	
-0.73627	-0.663558	-0.221308	6.16	0.35	-12.95	2.794	2.4997	1.3155	
-0.743102	-0.680394	-0.229482	4.76	2.45	-11.13	2.7924	2.4967	1.3139	
-0.745908	-0.687714	-0.232776	4.34	2.66	-10.43	2.7911	2.5042	1.3138	
-0.749446	-0.676734	-0.229848	5.88	2.52	-9.8	2.7866	2.4935	1.3167	
-0.743956	-0.65941	-0.234484	6.86	2.38	-9.45	2.7775	2.5025	1.304	
-0.739686	-0.66917	-0.219966	7.7	2.17	-7.49	2.7797	2.513	1.3147	
-0.733342	-0.676368	-0.223016	5.81	2.66	-5.95	2.784	2.5116	1.3149	
-0.744444	-0.68625	-0.228506	3.71	2.45	-5.32	2.782	2.5087	1.3026	
-0.748836	-0.692716	-0.227896	5.95	0.63	-4.83	2.7854	2.504	1.3166	
-0.744322	-0.697108	-0.213744	10.29	-1.61	-3.78	2.7806	2.5117	1.3025	
-0.734318	-0.694546	-0.20374	10.08	-1.75	-2.24	2.7824	2.5086	1.3118	
-0.72895	-0.689544	-0.209474	7.07	-1.19	-1.19	2.7766	2.5115	1.3115	
-0.728462	-0.6771	-0.205448	7.63	-2.87	-0.84	2.7761	2.5192	1.2962	
-0.731878	-0.680516	-0.19093	4.69	-3.29	-0.28	2.7746	2.5055	1.3024	
-0.737734	-0.68869	-0.191174	6.16	-3.85	0.7	2.7791	2.5086	1.304	
-0.728218	-0.684054	-0.179828	8.4	-4.83	1.96	2.7746	2.5116	1.2992	
-0.713334	-0.683932	-0.177388	5.18	-4.2	2.45	2.7848	2.5103	1.2997	
-0.721752	-0.689544	-0.171288	3.01	-2.52	3.5	2.7775	2.5116	1.2994	
-0.736514	-0.697962	-0.190686	1.89	-3.5	4.9	2.7697	2.4933	1.2977	
-0.727486	-0.687836	-0.171654	6.86	-4.34	6.93	2.7695	2.504	1.2869	
-0.726266	-0.687592	-0.165432	5.11	-2.87	8.33	2.7654	2.5038	1.2944	
-0.737612	-0.691252	-0.180072	1.61	-1.75	9.17	2.7742	2.504	1.2932	
-0.734196	-0.670634	-0.16287	5.39	-2.66	9.73	2.7681	2.4979	1.2915	
-0.729804	-0.681492	-0.157014	1.47	-0.7	10.57	2.7804	2.4995	1.3042	
-0.73627	-0.692594	-0.141032	-10.71	1.82	17.57	2.7874	2.5059	1.2938	
-0.743834	-0.651358	-0.190076	-7.14	2.17	18.48	2.7899	2.4938	1.291	
-0.76372	-0.634522	-0.17629	-8.54	2.38	18.69	2.7908	2.4921	1.3124	
-0.749324	-0.681492	-0.188124	-12.95	3.78	18.13	2.7888	2.4861	1.3032	
-0.772016	-0.661362	-0.19093	-10.15	3.85	22.54	2.7918	2.4938	1.3002	
-0.777018	-0.644526	-0.213256	-9.1	3.22	24.78	2.7965	2.4846	1.3127	
-0.767746	-0.644404	-0.207644	-6.44	-0.21	25.55	2.7933	2.4846	1.3065	
-0.769698	-0.657946	-0.196054	-7	-1.54	27.09	2.8125	2.4881	1.3088	
-0.768356	-0.624762	-0.216794	-9.45	0.21	30.94	2.7978	2.4771	1.3128	
-0.785802	-0.606828	-0.230336	-11.41	-0.56	32.2	2.8077	2.4744	1.3057	
-0.795074	-0.612562	-0.2135	-10.64	-1.47	33.67	2.8061	2.4667	1.3072	
-0.79361	-0.607072	-0.202764	-10.78	-0.56	36.96	2.8211	2.4777	1.3093	
-0.804224	-0.579622	-0.23851	-10.29	-2.24	38.08	2.8091	2.4622	1.312	
-0.820694	-0.60329	-0.215818	-8.4	-3.64	40.67	2.8227	2.4624	1.3217	
-0.836798	-0.60024	-0.232044	-9.73	-6.37	44.24	2.8237	2.4549	1.3142	
-0.838872	-0.593652	-0.230092	-8.54	-9.59	48.3	2.8309	2.4566	1.3115	
-0.839482	-0.580964	-0.22387	-8.12	-12.81	53.27	2.8281	2.452	1.316	
-0.852536	-0.560102	-0.236192	-6.58	-15.47	59.92	2.8365	2.4386	1.3134	
-0.868152	-0.531066	-0.231434	-8.05	-16.87	63.42	2.8361	2.4325	1.3089	
-0.878278	-0.50691	-0.215086	-11.9	-19.95	67.62	2.8504	2.4131	1.3098	
-0.893406	-0.49044	-0.215818	-11.06	-21.21	71.89	2.8469	2.4071	1.299	
-0.901336	-0.482754	-0.20374	-11.41	-23.73	75.81	2.8567	2.3907	1.2981	
-0.911462	-0.452986	-0.214354	-13.51	-24.08	81.06	2.8629	2.3968	1.3029	
-0.923174	-0.42883	-0.20069	-14.7	-27.23	84.84	2.8664	2.3789	1.2911	
-0.932812	-0.385032	-0.17446	-17.85	-30.52	89.53	2.8765	2.3669	1.2947	
-0.962702	-0.337208	-0.156282	-17.78	-31.64	93.45	2.8788	2.355	1.2858	
-1.023336	-0.284748	-0.137738	-16.94	-33.25	97.51	2.8741	2.3397	1.2873	
-1.032974	-0.209108	-0.12749	-16.94	-36.75	103.39	2.8796	2.3292	1.2831	
-0.961116	-0.134322	-0.132004	-23.31	-41.51	110.6	2.8751	2.3169	1.2891	
-0.952088	-0.124196	-0.114436	-28.14	-36.26	111.16	2.8907	2.2991	1.2854	
-0.997472	-0.111996	-0.114436	-29.89	-39.13	110.53	2.8781	2.2854	1.2729	
-0.989054	-0.068686	-0.105164	-31.01	-40.39	112.91	2.8794	2.2809	1.2714	
-0.990762	-0.03355	-0.07869	-29.89	-40.11	114.03	2.8908	2.2614	1.2737	
-0.966728	0.005978	-0.066124	-31.85	-44.87	114.66	2.8784	2.2399	1.2688	
-0.958188	0.047336	-0.051606	-33.32	-52.71	115.64	2.8804	2.2372	1.2476	
-0.959042	0.10065	-0.023302	-21.7	-60.13	118.37	2.8723	2.2143	1.2414	
-0.948306	0.108702	-0.010126	-19.6	-62.65	117.11	2.8779	2.1993	1.2418	
-0.92476	0.15372	0.00122	-14.21	-62.09	119.7	2.868	2.178	1.2279	
-0.89365	0.207034	0.029158	-12.25	-61.32	118.65	2.8575	2.1641	1.2292	
-0.915122	0.279746	0.066002	-12.32	-64.19	118.65	2.8582	2.1567	1.2141	
-0.892674	0.347212	0.087352	0.28	-57.4	120.89	2.8469	2.1293	1.2032	
-0.87535	0.352214	0.059658	-11.55	-59.29	121.17	2.8426	2.1246	1.2077	
-0.862174	0.33916	0.079178	-17.57	-63.35	119	2.8231	2.0804	1.1845	
-0.789462	0.313052	0.148474	-9.45	-71.54	115.36	2.8046	2.0772	1.1654	
-0.798246	0.487024	0.122488	10.57	-57.33	115.43	2.8121	2.0621	1.1766	
-0.79361	0.502518	0.148718	-3.43	-61.04	111.58	2.7836	2.0433	1.1695	
-0.776896	0.503128	0.184464	-7.91	-63.91	106.54	2.7765	2.0282	1.148	
-0.74542	0.52948	0.222772	-7	-66.64	102.76	2.756	2.0278	1.1486	
-0.794098	0.627324	0.274744	0.42	-65.03	98.98	2.7541	2.0202	1.141	
-0.76494	0.65453	0.296704	-5.53	-68.25	88.34	2.7389	2.0078	1.1344	
-0.70272	0.67832	0.318176	-12.95	-65.59	80.08	2.7313	1.9986	1.1327	
-0.661728	0.671366	0.30683	-10.78	-61.53	73.15	2.71	1.9876	1.1197	
-0.640378	0.701134	0.33367	-2.52	-51.1	71.82	2.6922	1.9827	1.1144	
-0.647454	0.766648	0.327936	13.65	-52.43	66.78	2.6904	1.9827	1.1082	
-0.600972	0.751398	0.26779	0	-34.44	61.74	2.68	1.9703	1.1109	
-0.582916	0.70882	0.334402	-27.3	-29.12	57.05	2.6633	1.9518	1.1059	
-0.600118	0.725412	0.410408	-26.67	-31.22	51.45	2.6613	1.9534	1.092	
-0.562664	0.750666	0.428708	-4.76	-25.9	48.37	2.6527	1.9608	1.0916	
-0.535458	0.769942	0.379664	9.45	-13.65	46.76	2.6378	1.9484	1.0911	
-0.52765	0.775066	0.357338	6.37	-10.64	44.73	2.645	1.9516	1.0883	
-0.562054	0.801296	0.388692	-5.32	-15.61	38.5	2.6291	1.9466	1.0953	
-0.528504	0.7808	0.395036	-1.61	-12.74	34.23	2.6376	1.9438	1.0896	
-0.512522	0.777628	0.392108	-1.75	-10.22	30.52	2.64	1.9334	1.0822	
-0.520086	0.792756	0.398574	-1.26	-11.69	27.16	2.6285	1.9285	1.0894	
-0.500566	0.804712	0.397232	6.86	-9.17	24.57	2.6154	1.9342	1.0887	
-0.470676	0.811178	0.389546	5.39	-7.98	20.65	2.6105	1.9221	1.0826	
-0.463722	0.812032	0.391864	-1.96	-8.54	16.66	2.6062	1.9265	1.0823	
-0.475068	0.8052	0.399916	-5.11	-7.07	14.35	2.6083	1.9279	1.0976	
-0.475556	0.797392	0.40199	0.49	-6.09	12.46	2.6009	1.9247	1.0974	
-0.473482	0.806664	0.392108	4.97	-7.56	10.22	2.6065	1.9234	1.0915	
-0.38857	0.74298	0.306342	10.36	-5.81	8.61	2.5992	1.9308	1.0881	
-0.491904	0.8418	0.413458	-1.61	-30.45	8.89	2.5987	1.9111	1.0867	
-0.453718	0.815814	0.45872	2.31	-19.88	4.83	2.5932	1.9216	1.0879	
-0.449692	0.799466	0.434076	9.94	-4.48	5.04	2.5959	1.9126	1.0881	
-0.443592	0.833016	0.392718	16.73	0.42	7.07	2.5946	1.917	1.0911	
-0.44957	0.840336	0.364902	5.53	3.43	5.32	2.5947	1.9094	1.0957	
-0.46482	0.843508	0.35136	-0.56	2.03	2.45	2.5886	1.9154	1.0878	
-0.455426	0.83448	0.375882	-5.95	0.07	0.49	2.6018	1.9127	1.0884	
-0.445178	0.825208	0.396378	-5.32	0.91	0	2.5961	1.9156	1.0912	
-0.454694	0.828868	0.389668	-4.62	6.09	-0.7	2.5975	1.9171	1.0897	
-0.460916	0.830698	0.36356	-1.75	6.37	-2.73	2.5942	1.908	1.0851	
-0.463356	0.825208	0.373076	-3.29	4.06	-4.55	2.5856	1.9154	1.0861	
-0.468724	0.819962	0.380274	-3.85	4.97	-6.51	2.5992	1.9156	1.0959	
-0.47763	0.827038	0.380152	-4.69	5.88	-8.19	2.6049	1.9234	1.0884	
-0.472262	0.843264	0.379176	-1.12	5.6	-9.94	2.602	1.9172	1.0914	
-0.4758	0.842166	0.37027	-3.15	6.72	-11.27	2.602	1.9218	1.0898	
-0.494588	0.829966	0.364292	-7.77	7	-13.23	2.5975	1.9202	1.0881	
-0.490196	0.817644	0.37332	-8.19	7.84	-14.84	2.6051	1.9279	1.0914	
-0.495808	0.815204	0.366976	-3.29	7.91	-17.99	2.6092	1.9205	1.0871	
-0.487146	0.816058	0.356972	0.21	7.91	-21.28	2.6167	1.9251	1.0904	
-0.501664	0.803614	0.345626	-0.21	6.86	-25.13	2.6134	1.9313	1.078	
-0.504958	0.796782	0.372832	-3.57	8.33	-26.95	2.6209	1.9284	1.083	
-0.50691	0.79849	0.37332	0.56	10.71	-29.75	2.6226	1.9375	1.0829	
-0.504348	0.776286	0.339526	3.29	12.39	-32.9	2.6214	1.9313	1.0936	
-0.541924	0.777872	0.3721	9.31	15.33	-33.6	2.6304	1.9375	1.0954	
-0.55815	0.772992	0.33489	21.77	17.5	-37.94	2.6374	1.9332	1.0897	
-0.566812	0.752618	0.322446	15.82	18.2	-41.37	2.6404	1.9363	1.0898	
-0.577548	0.74176	0.332084	8.47	17.64	-44.31	2.6456	1.9408	1.1067	
-0.59353	0.757864	0.337452	12.18	19.6	-49.07	2.6454	1.9408	1.1022	
-0.584868	0.747006	0.331474	8.33	24.99	-51.38	2.6619	1.9457	1.1104	
-0.589504	0.736636	0.34282	3.85	28	-52.15	2.671	1.9534	1.1138	
-0.604144	0.725778	0.318786	11.2	31.64	-53.55	2.674	1.9611	1.1123	
-0.66978	0.715286	0.281576	18.06	36.33	-56.28	2.6864	1.9642	1.1265	
-0.65758	0.695278	0.290116	11.83	44.03	-56.7	2.6831	1.9597	1.1188	
-0.634766	0.648186	0.305854	-4.48	45.71	-57.89	2.698	1.9691	1.1209	
-0.673806	0.642696	0.277672	13.65	42.28	-58.38	2.7133	1.9784	1.1321	
-0.705404	0.610122	0.225334	27.16	46.62	-58.31	2.7167	1.9799	1.1429	
-0.751886	0.614392	0.218868	3.64	44.66	-61.95	2.7342	1.9788	1.1421	
-0.758108	0.562176	0.22265	-4.27	50.33	-62.37	2.739	1.9941	1.1437	
-0.829966	0.54351	0.185806	7.56	51.45	-61.81	2.7586	1.9944	1.1583	
-0.863882	0.531554	0.145912	-3.29	49.49	-62.09	2.7681	2.0142	1.1645	
-0.892674	0.506666	0.14213	-7.56	52.5	-60.34	2.7697	2.0127	1.1692	
-0.970754	0.517524	0.15982	-9.59	45.43	-59.01	2.7833	2.0236	1.1727	
-0.84668	0.412726	0.114192	-12.18	39.2	-57.54	2.7894	2.0297	1.176	
-0.849486	0.420534	0.084058	9.8	42.21	-56.98	2.7996	2.0254	1.178	
-0.884622	0.407358	0.049166	-4.9	40.53	-59.08	2.7974	2.0419	1.1853	
-0.89853	0.395402	0.043798	-2.8	35.49	-57.26	2.8128	2.0558	1.198	
-0.917074	0.343308	0.062342	-3.15	31.85	-55.65	2.8245	2.0576	1.197	
-0.936472	0.297436	0.080886	-2.66	31.57	-54.11	2.8209	2.0695	1.2089	
-0.950136	0.283284	0.063196	6.44	28.07	-53.41	2.828	2.0652	1.2046	
-0.972828	0.296948	0.05063	12.88	23.66	-50.89	2.8325	2.082	1.1986	
-0.969534	0.317566	0.045018	18.83	20.3	-46.97	2.8344	2.085	1.2093	
-0.97295	0.319152	0.05246	20.3	17.57	-43.26	2.8401	2.0912	1.2018	
-0.975756	0.283894	0.049288	16.8	14.77	-38.71	2.8478	2.0898	1.2113	
-0.956968	0.25071	0.050752	14.35	11.62	-34.02	2.8407	2.0972	1.2125	
-0.966118	0.257054	0.05673	18.27	10.43	-29.47	2.8439	2.1018	1.2171	
-0.977952	0.331474	0.04636	27.58	4.97	-23.38	2.8469	2.1079	1.2156	
-0.981246	0.348188	0.057584	14.49	4.41	-21	2.8456	2.1094	1.2186	
-0.983076	0.354288	0.038674	12.18	2.52	-18.06	2.8458	2.1093	1.2232	
-0.986736	0.32574	0.024156	2.24	-0.42	-14.28	2.8472	2.1033	1.2248	
-0.983686	0.28914	0.03172	2.66	-1.05	-9.52	2.8595	2.1202	1.2298	
-0.976854	0.245708	0.034648	-0.28	-2.87	-6.44	2.8493	2.1215	1.2293	
-0.984174	0.226798	0.025986	4.13	-5.67	-4.83	2.8446	2.1123	1.2277	
-0.987468	0.21167	0.010248	6.44	-5.95	-4.48	2.8444	2.1245	1.2169	
-0.99308	0.210694	-0.00122	9.73	-7.35	-6.58	2.8515	2.1171	1.2142	
-0.996984	0.182268	0.037942	7.21	-9.66	-7.7	2.8565	2.1217	1.2266	
-1.001132	0.171288	0.044652	17.01	-9.59	-8.68	2.8402	2.1107	1.2275	
-0.99613	0.173972	0.032208	24.36	-11.06	-9.52	2.8625	2.1218	1.2299	
-1.012966	0.201056	0.040016	29.19	-15.05	-8.47	2.8446	2.1245	1.2214	
-0.985638	0.207156	0.036722	26.67	-15.96	-8.33	2.8455	2.1125	1.214	
-0.975512	0.232532	0.030378	33.46	-17.5	-8.33	2.8456	2.1094	1.2186	
-0.964166	0.192882	0.02867	31.57	-12.39	-7.84	2.8455	2.1231	1.2093	
-1.008818	0.161772	0.032574	49.77	-4.62	-3.64	2.8441	2.117	1.2139	
-1.017602	0.156404	0.010248	58.8	-7.21	-3.22	2.8436	2.1125	1.2048	
-1.00894	0.198616	-0.004514	66.64	-21.07	-9.24	2.8407	2.0957	1.2125	
-0.98576	0.21899	0.047214	59.64	-23.17	-13.23	2.8393	2.0987	1.2124	
-0.982954	0.223138	0.07503	73.22	-19.11	-13.72	2.8439	2.0865	1.2249	
-1.00711	0.22936	0.060756	91.77	-14.56	-11.62	2.8432	2.0852	1.2097	
-0.990884	0.269864	0.04941	94.29	-13.58	-10.57	2.8421	2.0774	1.2204	
-0.967582	0.288286	0.043432	94.85	-13.79	-13.02	2.8332	2.0788	1.2184	
-0.965264	0.293532	0.03294	93.45	-13.72	-14.35	2.8343	2.0789	1.2093	
-0.965996	0.275354	0.028182	92.61	-12.32	-13.58	2.8341	2.0759	1.2063	
-0.976122	0.25559	-0.002562	93.03	-14.84	-12.88	2.8393	2.0697	1.2295	
-0.977952	0.244244	-0.009516	95.13	-17.99	-12.18	2.8402	2.0668	1.2173	
-0.988688	0.242414	0.006954	90.09	-18.97	-10.22	2.8374	2.0606	1.2219	
-0.989786	0.223626	-0.007564	103.95	-18.97	-10.78	2.8315	2.0514	1.2263	
-0.98332	0.191418	-0.027206	113.4	-17.29	-15.05	2.8373	2.0332	1.2344	
-0.992714	0.23424	-0.02074	111.58	-24.29	-14.07	2.8257	2.039	1.2338	
-0.987834	0.280234	-0.044286	119	-33.25	-14.98	2.8359	2.0271	1.2389	
-0.99308	0.307684	0.007564	117.6	-35.35	-16.17	2.8296	2.0224	1.2311	
-0.980636	0.338428	0.024156	111.51	-30.73	-15.05	2.8359	2.024	1.242	
-0.964532	0.363682	0.023668	105.07	-17.92	-16.59	2.8272	2.0162	1.2463	
-0.989298	0.32086	-0.011224	95.2	-16.87	-19.32	2.8214	2.0099	1.2522	
-0.986858	0.29768	0.016958	81.9	-30.17	-21.77	2.8303	2.0131	1.2526	
-0.98698	0.256444	0.06405	71.47	-33.32	-26.25	2.8285	1.9964	1.2542	
-1.01016	0.224602	0.06222	76.23	-23.31	-25.06	2.8286	1.9994	1.2557	
-0.996984	0.170068	0.043188	64.47	-23.73	-26.6	2.8271	1.9979	1.2556	
-1.0248	0.13237	0.03782	63.77	-24.43	-25.69	2.8362	2.0026	1.2605	
-1.069696	0.135908	0.03111	66.22	-25.83	-22.12	2.8286	1.9933	1.2573	
-1.040782	0.148962	0.030866	70.28	-31.01	-18.2	2.832	2.0039	1.2649	
-1.01321	0.126026	0.02196	63.98	-27.72	-19.81	2.83	2.0025	1.2527	
-1.025532	0.139812	0.04087	58.1	-27.44	-18.97	2.8348	2.0117	1.2558	
-0.951966	0.181048	0.02379	50.61	-23.17	-18.83	2.8271	1.9994	1.2541	
-0.951966	0.188978	0.041358	43.12	-17.22	-19.39	2.8289	1.9993	1.2618	
-0.96563	0.154452	0.041236	34.86	-12.39	-22.33	2.8247	1.9992	1.2677	
-0.986858	0.167506	0.066002	28.49	-8.33	-25.34	2.8213	1.9916	1.26	
-0.982344	0.18056	0.080642	20.23	-4.62	-25.9	2.8256	1.9948	1.2556	
-0.926468	0.162992	0.07905599	8.89	-2.24	-27.3	2.8288	1.9978	1.2603	
-0.940254	0.17995	0.114314	-0.35	3.64	-27.86	2.8321	2.0085	1.2633	
-0.965386	0.182024	0.115168	-11.55	8.05	-28.07	2.8438	2.0027	1.267	
-0.975146	0.099918	0.088816	-19.53	11.13	-26.04	2.8454	2.0179	1.2623	
-0.975756	0.04331	0.090036	-17.01	9.73	-19.95	2.841	2.0224	1.259	
-1.01809	-0.012566	0.05917	-13.79	8.68	-13.79	2.8454	2.0225	1.2592	
-1.103612	-0.075396	0.064172	-11.06	7.21	-14.14	2.8537	2.0423	1.2715	
-1.0736	-0.060878	0.041114	-9.1	3.57	-14.91	2.8466	2.0344	1.282	
-1.053836	-0.015494	0.020252	-5.74	3.29	-15.26	2.8487	2.0362	1.2607	
-1.06506	-0.01525	0.042822	-2.59	1.54	-16.1	2.8545	2.0363	1.261	
-1.009794	-0.028426	0.05795	-0.84	-0.7	-14.35	2.8491	2.0437	1.2667	
-0.974414	-0.057584	0.084424	-1.61	-1.47	-10.43	2.8534	2.0423	1.2654	
-1.00162	-0.091256	0.06283	0.77	-1.12	-10.57	2.8458	2.0407	1.2605	
-1.040904	-0.041846	0.079544	4.06	-0.63	-14.14	2.8462	2.0482	1.265	
-1.015162	0.001952	0.084546	5.88	-1.47	-15.54	2.8594	2.05	1.2641	
-0.959286	0.019764	0.081618	1.89	-0.63	-13.79	2.8487	2.0377	1.2607	
-0.96258	0.003904	0.047458	-1.33	1.47	-11.83	2.8593	2.0546	1.2594	
-1.004182	0.024644	0.073322	-4.97	5.11	-12.25	2.8593	2.047	1.2641	
-0.992226	0.076128	0.047336	-7.07	7.07	-14.42	2.8581	2.0484	1.2701	
-1.060424	-0.04636	0.070272	-5.67	7.77	-14	2.8506	2.0468	1.2652	
-1.019554	-0.087718	0.096868	-4.2	4.06	-10.01	2.8578	2.0485	1.2625	
-0.938912	-0.00976	0.103822	-3.99	3.85	-3.78	2.8606	2.0517	1.258	
-1.011624	-0.02318	0.05795	-1.75	6.16	-0.28	2.8639	2.0684	1.258	
-1.07726	-0.085766	0.057706	-2.59	6.02	0.21	2.8568	2.0606	1.2669	
-1.019676	-0.053436	0.06466	-5.6	4.48	0.49	2.864	2.0623	1.2626	
-0.987956	-0.021228	0.064416	-6.23	7.42	0.98	2.8667	2.0578	1.2597	
-1.033218	-0.038552	0.05734	-8.33	6.79	1.54	2.861	2.0561	1.2641	
-1.036024	-0.06344	0.027572	-10.99	5.32	3.01	2.8568	2.0621	1.2669	
-1.019798	-0.086376	0.0244	-9.59	4.27	4.13	2.8672	2.0653	1.2688	
-1.01687	-0.06649	0.032696	-9.66	3.22	5.6	2.8671	2.0638	1.2673	
-1.028094	-0.042334	0.012688	-5.74	1.12	5.88	2.8536	2.0606	1.2606	
-1.03761	-0.04026	0.019886	-4.55	-1.82	6.65	2.8614	2.0621	1.2716	
-1.04798	-0.034892	0.007564	-3.85	-3.85	7.63	2.863	2.0713	1.2685	
-1.05652	-0.049654	-0.005002	-1.47	-7.49	9.87	2.8551	2.0575	1.2638	
-1.05469	-0.039528	-0.000976	3.71	-11.48	11.13	2.862	2.0532	1.2565	
-1.054324	-0.035624	0.001708	9.59	-14.14	10.36	2.8478	2.0528	1.265	
-1.053226	-0.03111	0.012932	11.83	-16.94	9.38	2.8627	2.0607	1.2687	
-1.02053	-0.023546	0.005978	14.63	-17.85	7.98	2.8551	2.0454	1.2685	
-1.033096	-0.0244	0.017324	19.32	-18.06	6.65	2.8501	2.0393	1.2577	
-1.025166	0.014518	0.051484	26.32	-18.76	4.13	2.8472	2.0529	1.2513	
-1.019554	0.040382	0.077104	27.93	-19.81	2.52	2.8548	2.0439	1.2639	
-1.015406	0.036478	0.08357	26.95	-20.44	-0.56	2.8456	2.0499	1.2498	
-1.00772	0.033672	0.089304	26.6	-21.21	-1.33	2.8485	2.0423	1.253	
-0.993324	0.047824	0.103578	25.55	-20.86	-1.33	2.8483	2.0424	1.2484	
-0.981368	0.07905599	0.11529	26.04	-20.3	-2.24	2.8308	2.045	1.2492	
-0.983442	0.07869	0.146156	24.71	-18.06	-2.31	2.8466	2.0363	1.2454	
-0.970266	0.048556	0.161284	21	-15.75	-2.52	2.8364	2.033	1.248	
-0.97356	0.062342	0.162748	18.48	-13.58	-3.64	2.8378	2.03	1.2481	
-0.940986	0.063684	0.167018	12.53	-10.01	-2.66	2.8366	2.0421	1.2495	
-0.949892	0.045872	0.166164	5.74	-6.16	-3.08	2.8423	2.0392	1.2467	
-0.95221	0.019642	0.179706	2.52	-3.57	-3.92	2.8436	2.0409	1.2406	
-0.961116	0.02074	0.198494	-1.47	-0.56	-4.34	2.8437	2.0286	1.2499	
-0.946232	0.027694	0.188734	-8.19	2.1	-3.64	2.8345	2.0331	1.2373	
-0.955016	-0.013542	0.177632	-12.18	7.21	-2.59	2.8404	2.0317	1.2391	
-0.966972	0.033306	0.171898	-11.76	13.23	1.96	2.8338	2.039	1.2524	
-0.942206	0.01403	0.16775	-16.31	16.03	1.68	2.8406	2.0393	1.2405	
-0.972828	0.014152	0.157258	-19.04	20.65	1.33	2.8439	2.0392	1.2498	
-0.957212	0.035014	0.105774	-28.63	26.88	-1.54	2.8408	2.0362	1.2482	
-0.966972	0.038552	0.087962	-40.53	28.49	-3.29	2.841	2.0422	1.2481	
-1.009184	0.061854	0.097356	-44.59	31.08	-6.79	2.8426	2.0498	1.2481	
-1.023824	0.059292	0.090646	-51.52	36.75	-7	2.8501	2.0454	1.2546	
-0.985028	0.073566	0.077958	-61.95	44.31	-8.19	2.852	2.056	1.2606	
-0.95709	0.109556	0.085644	-77.28	54.32	-9.52	2.8507	2.0574	1.2636	
-0.963068	0.072102	0.032818	-97.72	64.75	-7.28	2.8628	2.0591	1.2717	
-0.952088	0.06161	-0.011834	-100.66	61.67	-2.24	2.8657	2.0638	1.2688	
-0.903898	0.061366	-0.056608	-76.3	51.31	2.17	2.8737	2.0745	1.2796	
-0.99613	0.061854	-0.083814	-63.91	49.42	0.21	2.8667	2.0864	1.2792	
-1.032608	0.053192	-0.096014	-65.45	49.84	-8.12	2.8784	2.0791	1.2828	
-1.033218	0.033794	-0.131638	-57.4	52.85	-9.38	2.8822	2.0881	1.3012	
-1.060424	0.04026	-0.165432	-65.66	50.82	-10.92	2.8897	2.0973	1.2999	
-1.047004	0.008296	-0.22021	-70.49	50.26	-10.36	2.8901	2.0972	1.309	
-1.028704	0.011224	-0.240462	-64.68	47.39	-14	2.8966	2.1048	1.3199	
-1.038098	0.05307	-0.238144	-66.08	36.12	-23.66	2.8887	2.0987	1.3105	
-1.086898	0.081374	-0.242658	-60.83	36.68	-28.42	2.8981	2.1155	1.3153	
-1.068354	0.03599	-0.29585	-62.93	34.79	-28.91	2.8941	2.123	1.3211	
-1.016992	-0.002684	-0.310246	-94.43	24.99	-30.1	2.9003	2.1307	1.3243	
-0.998204	0.09857599	-0.26047	-114.03	20.02	-30.38	2.9062	2.1354	1.323	
-0.978562	0.071858	-0.30012	-123.62	13.93	-26.25	2.9123	2.1415	1.3262	
-0.974414	0.030134	-0.340502	-144.55	15.33	-32.55	2.9008	2.1488	1.3272	
-0.965752	-0.036112	-0.369294	-177.87	17.43	-29.19	2.9161	2.1627	1.3368	
-1.019066	-0.009028	-0.264008	-197.96	11.06	-24.08	2.8986	2.176	1.3313	
-1.031022	-0.039528	-0.300852	-178.22	14.49	-23.94	2.9057	2.1839	1.3209	
-1.002108	0.013176	-0.415044	-140.63	12.6	-18.62	2.9035	2.1958	1.3329	
-0.998326	-0.033916	-0.355996	-198.03	11.76	-19.04	2.9075	2.1945	1.3239	
-1.00955	-0.121634	-0.377224	-181.23	9.73	-17.78	2.8961	2.2064	1.3233	
-0.996984	-0.038308	-0.346724	-180.88	7.98	-14.56	2.9116	2.2339	1.3312	
-0.972096	0.038674	-0.337696	-184.94	11.97	-10.5	2.9093	2.2367	1.3448	
-0.90219	0.21838	-0.277672	-184.73	-22.89	21.14	2.9045	2.2398	1.3324	
-1.102148	-0.347944	-0.553758	-156.03	-42.7	16.73	2.9143	2.2325	1.3268	
-0.963312	0.02135	-0.401624	-172.97	0.07	-13.02	2.9121	2.2506	1.3341	
-0.999546	0.015738	-0.360632	-160.86	16.1	-12.39	2.9066	2.2534	1.3399	
-1.014552	0.009393999	-0.279258	-165.48	1.05	-16.38	2.904	2.2593	1.3459	
-0.999302	-0.022692	-0.32391	-136.5	6.02	-12.04	2.9143	2.2672	1.3432	
-0.978318	-0.027572	-0.271694	-165.34	8.89	-4.2	2.9076	2.2699	1.3566	
-0.975878	0.043798	-0.321348	-142.17	15.68	0.7	2.907	2.2895	1.3654	
-1.02785	0.038796	-0.309758	-135.24	7.91	2.45	2.9095	2.2866	1.3564	
-1.012112	-0.007929999	-0.305122	-120.82	-1.4	2.94	2.9054	2.2758	1.3701	
-1.025654	-0.02867	-0.270474	-108.71	-6.23	5.95	2.916	2.2881	1.3719	
-1.034194	-0.01464	-0.239486	-90.58	-5.46	9.45	2.9087	2.2819	1.3763	
-1.011868	0.043066	-0.206546	-89.81	-8.75	12.95	2.9114	2.2881	1.3672	
-1.003206	0.091744	-0.186538	-86.03	-11.2	12.32	2.9161	2.282	1.3781	
-1.04127	0.084424	-0.16531	-74.06	-14.14	11.27	2.9046	2.2832	1.3822	
-1.071526	0.0305	-0.196054	-63.28	-16.66	10.99	2.916	2.2866	1.3735	
-1.019798	-0.006832	-0.167994	-48.93	-21.63	10.71	2.9165	2.2819	1.3873	
-0.996496	-0.013176	-0.11529	-42.98	-27.86	12.46	2.9237	2.2836	1.3845	
-0.98942	-0.000122	-0.087352	-39.06	-22.4	17.01	2.9126	2.2821	1.3642	
-0.99979	0.001342	-0.113094	-36.61	-18.34	19.81	2.9129	2.2851	1.3688	
-0.961116	0.00549	-0.082716	-25.2	-21.35	22.33	2.9132	2.2758	1.3811	
-0.929518	0.121756	-0.06734399	-20.09	-18.9	26.39	2.923	2.2685	1.3755	
-0.949892	0.174216	-0.048068	-17.57	-14.63	25.2	2.9143	2.2729	1.3736	
-0.974414	0.170434	-0.035258	-16.38	-11.2	26.04	2.918	2.2625	1.3632	
-0.952454	0.178486	-0.04575	-14.35	-9.52	27.65	2.9078	2.2562	1.3674	
-0.94916	0.224846	-0.036844	-11.83	-5.95	27.16	2.9179	2.2564	1.3648	
-0.962458	0.255224	-0.044286	-7.63	-5.88	25.83	2.912	2.2502	1.3661	
-0.986492	0.246318	-0.055144	1.89	-8.19	26.25	2.9147	2.2519	1.3601	
-0.943792	0.306464	-0.042334	10.36	-9.73	26.32	2.9177	2.2443	1.3649	
-0.98149	0.326106	-0.022936	11.83	-11.62	24.99	2.9146	2.2519	1.3586	
-0.945134	0.30866	-0.025132	1.82	-10.29	24.78	2.9125	2.2368	1.3495	
-0.97234	0.326716	-0.055022	2.59	-9.87	25.34	2.9181	2.2309	1.3468	
-0.932934	0.330132	-0.039162	8.82	-9.73	23.1	2.9214	2.2339	1.356	
-0.926834	0.37515	-0.069296	2.73	-1.26	23.66	2.9241	2.2248	1.3547	
-0.967094	0.358314	-0.041968	8.68	-9.52	18.97	2.9106	2.217	1.3512	
-0.955016	0.340624	-0.025986	12.11	-7.98	17.5	2.9015	2.2138	1.3447	
-0.954284	0.34282	-0.05795	12.25	-7.21	17.92	2.9116	2.2171	1.3406	
-0.933666	0.371246	-0.028182	13.37	-8.96	16.17	2.9119	2.2125	1.3498	
-0.923784	0.36844	-0.039406	5.6	-4.34	13.86	2.9147	2.2065	1.35	
-0.940376	0.383446	-0.066612	6.79	-2.8	12.32	2.9098	2.205	1.3376	
-0.948672	0.381982	-0.04941	10.71	-4.13	11.13	2.9072	2.2018	1.3482	
-0.91866	0.393206	-0.052094	8.05	-1.12	10.01	2.9129	2.2035	1.3423	
-0.923662	0.414068	-0.053802	8.54	-1.05	7.35	2.9141	2.1899	1.344	
-0.930006	0.396256	-0.052338	5.88	0.84	6.65	2.91	2.1973	1.3468	
-0.930738	0.404064	-0.071492	4.27	1.89	5.81	2.9104	2.2064	1.3513	
-0.93147	0.427244	-0.063928	6.51	-0.07	4.76	2.9041	2.1957	1.3466	
-0.936838	0.440298	-0.058926	8.12	-1.68	2.8	2.9113	2.1928	1.3454	
-0.934886	0.442982	-0.057584	6.37	-1.96	0.84	2.9114	2.1959	1.3454	
-0.94977	0.41541	-0.057706	2.17	-1.33	0.07	2.9189	2.1945	1.3503	
-0.94672	0.374662	-0.064782	-1.12	-0.35	-0.42	2.9156	2.1899	1.3456	
-0.945134	0.358192	-0.06405	-1.12	-0.84	-1.05	2.91	2.1988	1.3468	
-0.939156	0.351726	-0.068686	-0.49	-1.75	-0.91	2.91	2.1928	1.3484	
-0.939644	0.35868	-0.073078	0	-1.96	-1.33	2.919	2.1975	1.3518	
-0.933788	0.342088	-0.075762	0	-1.05	-1.82	2.9141	2.199	1.3394	
-0.92232	0.32635	-0.072712	-5.53	1.33	-0.28	2.9114	2.1974	1.3454	
-0.919026	0.315736	-0.074298	-12.32	5.32	0.07	2.9025	2.2003	1.3404	
-0.926468	0.276696	-0.05368	-14.49	10.5	1.96	2.9115	2.1958	1.3484	
-0.963434	0.27633	-0.054046	-12.04	10.85	2.66	2.9171	2.1914	1.3457	
-0.974536	0.271328	-0.06649	-6.72	8.89	3.22	2.9148	2.2004	1.3561	
-0.954528	0.190076	-0.104554	4.34	-3.71	-4.34	2.9142	2.1868	1.3471	
-0.984296	0.179462	-0.081862	12.95	-0.91	5.6	2.9125	2.199	1.3363	
-0.951356	0.190076	-0.167628	14.63	-4.69	12.53	2.9097	2.1928	1.3423	
-0.957578	0.189954	-0.158478	28.28	-15.82	17.57	2.9099	2.1852	1.35	
-0.951356	0.16165	-0.237778	49.7	-25.2	17.29	2.9117	2.1882	1.3561	
-1.062864	0.371002	-0.165676	107.38	-38.71	21.98	2.9098	2.1837	1.3485	
-1.010282	0.374296	-0.139446	110.32	-46.2	15.61	2.9073	2.1762	1.3287	
-1.053714	0.322324	-0.102114	98	-34.44	9.38	2.8952	2.17	1.3221	
-0.976732	0.386008	-0.145058	46.13	-10.01	-12.39	2.9051	2.1688	1.315	
-0.956846	0.446154	-0.177754	41.44	-14.07	-8.12	2.9054	2.1626	1.3257	
-0.949282	0.366976	-0.177754	63.77	-27.44	-9.45	2.9135	2.1553	1.3124	
-0.932934	0.281332	-0.131028	74.27	-34.51	-10.57	2.9012	2.1747	1.3223	
-0.879132	0.288774	-0.10919	119.14	-29.89	-4.2	2.9019	2.1627	1.3118	
-0.898652	0.31293	-0.129808	137.13	-26.39	4.2	2.9047	2.1597	1.3105	
-0.957456	0.270352	-0.181536	144.34	-32.97	8.12	2.9019	2.152	1.3165	
-0.96685	0.287066	-0.231434	158.76	-42.28	5.88	2.9	2.1353	1.3166	
-0.946842	0.316224	-0.257786	160.16	-42.56	4.41	2.8939	2.1367	1.3087	
-0.895114	0.340258	-0.27816	159.46	-43.68	2.1	2.8931	2.1202	1.2982	
-0.956968	0.410164	-0.302804	175.49	-41.3	-1.05	2.8931	2.1141	1.3029	
-1.016504	0.456402	-0.284382	167.37	-40.67	4.2	2.8834	2.1198	1.3115	
-1.02175	0.443348	-0.255834	143.71	-46.76	4.55	2.8937	2.0899	1.294	
-0.985882	0.406626	-0.247904	137.48	-57.54	3.92	2.8763	2.0971	1.2947	
-0.968314	0.377346	-0.246806	140.28	-62.23	2.59	2.8872	2.0823	1.2817	
-0.937814	0.387838	-0.23851	146.23	-63.07	0.77	2.8681	2.0758	1.2839	
-0.93757	0.394914	-0.206302	141.61	-70.77	-0.28	2.8709	2.0683	1.2842	
-0.934276	0.394304	-0.210938	144.97	-72.87	0.98	2.8657	2.0592	1.2719	
-0.975512	0.447252	-0.173484	117.88	-76.02	1.96	2.8522	2.056	1.2637	
-0.890722	0.476532	-0.105774	83.58	-84.07	-0.7	2.8581	2.0515	1.267	
-0.953308	0.409676	-0.151646	86.17	-82.88	-8.47	2.8521	2.0377	1.2715	
-0.975512	0.46726	-0.021106	64.89	-95.69	-9.73	2.8562	2.0516	1.2578	
-0.92049	0.333914	0.053314	118.86	-104.02	-12.18	2.8475	2.0441	1.2286	
-0.907802	0.416264	-0.102236	114.8	-47.95	-1.82	2.8398	2.0212	1.2316	
-0.968436	0.358924	-0.049532	99.82	-44.87	-5.32	2.8373	2.0286	1.2375	
-0.969412	0.330498	-0.029646	92.12	-52.22	-11.97	2.8227	2.0237	1.2414	
-0.97173	0.296094	-0.010126	88.69	-48.09	-14.42	2.825	2.0132	1.2325	
-0.97966	0.282186	-0.046848	88.2	-44.38	-13.44	2.8267	2.0208	1.234	
-0.96136	0.29341	-0.030378	84.28	-45.92	-11.69	2.8207	2.0009	1.2401	
-0.939766	0.312808	0.001464	85.54	-48.86	-14.07	2.8086	1.9962	1.232	
-0.928908	0.315736	0.036722	84.63	-49.56	-14.91	2.8148	2.0069	1.2352	
-0.943914	0.355996	0.07442	86.8	-48.58	-13.86	2.8041	1.9976	1.2287	
-0.913902	0.34709	0.077226	86.17	-47.74	-13.93	2.8074	1.9976	1.238	
-0.924516	0.347578	0.116388	86.94	-42.07	-12.39	2.8052	1.9825	1.229	
-0.965996	0.37576	0.083936	87.15	-36.4	-8.47	2.8054	1.9809	1.2336	
-0.938424	0.38003	0.107848	79.66	-39.34	-7.63	2.7921	1.9761	1.233	
-0.953796	0.349896	0.104066	73.78	-36.54	-8.05	2.8067	1.9688	1.2383	
-0.938424	0.34221	0.103456	63.84	-35.07	-7.7	2.7962	1.9686	1.2318	
-0.961238	0.339282	0.102968	58.31	-31.01	-10.01	2.7986	1.952	1.2275	
-0.939888	0.339404	0.114924	51.17	-28.35	-11.9	2.7993	1.961	1.2396	
-0.916342	0.37149	0.124684	44.31	-26.46	-9.17	2.8009	1.9595	1.2427	
-0.921466	0.344772	0.135054	36.4	-23.8	-7.84	2.7949	1.9533	1.2426	
-0.930128	0.318176	0.15128	28.84	-21.91	-10.57	2.8024	1.958	1.2444	
-0.946354	0.29646	0.154818	23.66	-19.46	-12.74	2.779	1.9544	1.2464	
-0.957334	0.287188	0.156282	20.16	-18.13	-14.35	2.7919	1.9609	1.2378	
-0.97295	0.249856	0.140178	17.36	-16.45	-16.24	2.7861	1.9561	1.2406	
-0.990396	0.25315	0.171044	14.28	-15.05	-18.2	2.7892	1.9592	1.2438	
-0.974536	0.218868	0.162504	10.15	-13.09	-21.98	2.7904	1.9654	1.2331	
-0.971974	0.174216	0.177754	7.84	-12.53	-26.46	2.7992	1.958	1.2381	
-0.966606	0.177754	0.188368	6.51	-12.04	-26.74	2.7902	1.9655	1.2285	
-0.991372	0.155916	0.180194	5.95	-11.9	-27.09	2.7963	1.9625	1.2364	
-0.99247	0.139202	0.187514	6.51	-12.53	-28.7	2.8009	1.9747	1.235	
-0.976	0.14884	0.204472	6.02	-12.74	-29.75	2.7964	1.9838	1.227	
-0.961116	0.141398	0.199836	4.97	-12.53	-31.15	2.7962	1.9839	1.224	
-0.96075	0.116266	0.202276	3.92	-12.53	-34.37	2.798	1.9884	1.2286	
-0.979294	0.110288	0.204838	4.55	-11.83	-34.72	2.8062	1.9857	1.2168	
-0.973194	0.13481	0.218136	2.87	-11.69	-33.6	2.8065	1.9856	1.2229	
-0.956724	0.122122	0.228384	0.91	-10.15	-32.41	2.8156	2.0086	1.2185	
-0.948916	0.09577	0.235826	-2.31	-7.77	-31.15	2.807	2.0038	1.2258	
-0.963312	0.095892	0.221308	0.56	0.98	-24.36	2.8156	2.004	1.2216	
-0.974658	0.067466	0.227652	-3.22	2.03	-22.33	2.8204	2.0117	1.2262	
-0.972218	0.039528	0.236558	-8.12	1.68	-21.35	2.8068	2.0084	1.2196	
-0.93513	0.044652	0.22082	-8.33	3.78	-18.06	2.8083	2.0084	1.2197	
-0.951966	0.020862	0.218868	-8.75	7.98	-14.56	2.819	2.0177	1.2261	
-0.99796	-0.00854	0.210572	-8.75	11.48	-11.48	2.8131	2.0237	1.2212	
-0.989054	-0.005856	0.217404	-10.36	11.34	-9.87	2.8098	2.0222	1.212	
-0.965264	0.001708	0.200568	-8.19	12.74	-6.58	2.8232	2.0163	1.2217	
-0.974536	-0.027694	0.18788	-6.79	13.3	-5.74	2.8248	2.024	1.2202	
-1.001376	-0.033672	0.187026	-7.35	13.86	-4.69	2.822	2.0178	1.2278	
-0.992836	-0.016714	0.18361	-6.02	13.23	-4.13	2.8342	2.0316	1.2327	
-0.973316	0.018422	0.181414	-4.55	14.77	-2.38	2.827	2.0345	1.2339	
-0.990152	-0.027572	0.176046	-12.04	13.3	-5.32	2.8208	2.0238	1.2292	
-0.984174	-0.045506	0.143716	-4.76	14.84	-3.15	2.8322	2.0272	1.2205	
-0.964044	0.00061	0.13969	-5.18	17.5	-2.31	2.8271	2.0329	1.237	
-0.971852	0.044408	0.171288	-4.27	20.65	-4.83	2.8276	2.0374	1.2445	
-1.047248	0.031964	0.10858	-3.01	18.06	-4.2	2.8328	2.0286	1.2342	
-1.026264	0.015128	0.10492	-1.75	14.84	-2.52	2.8302	2.0299	1.2417	
-0.99491	0.033916	0.104554	-5.6	21.84	-2.31	2.838	2.0269	1.2543	
-0.945988	0.05917	0.145424	-14.07	33.88	-5.95	2.8348	2.0269	1.248	
-0.926712	0.1098	0.184708	-22.96	43.19	-6.3	2.8472	2.0362	1.2606	
-1.008208	0.105408	0.088084	-31.15	40.46	-4.2	2.8413	2.033	1.2604	
-1.027118	0.091866	0.07259	-25.76	33.74	-4.27	2.8501	2.0378	1.2592	
-0.992958	0.103944	0.07137	-29.05	33.53	-4.9	2.8488	2.0316	1.2653	
-0.98027	0.115046	0.048922	-33.25	36.12	-7.28	2.8625	2.0424	1.2734	
-0.984296	0.121146	0.052948	-56.21	43.05	-3.22	2.8597	2.0576	1.267	
-0.981612	0.157258	0.015006	-45.01	44.38	0.56	2.8597	2.0515	1.2717	
-1.069086	0.068564	-0.077592	-42.42	40.39	-5.6	2.8516	2.0481	1.2896	
-1.00589	0.029402	-0.02501	-62.3	41.93	-8.61	2.869	2.0577	1.2811	
-1.06994	0.044164	-0.034648	-69.93	41.3	0.21	2.8667	2.0605	1.2947	
-1.036878	0.050386	-0.062952	-72.1	39.48	-8.96	2.8637	2.065	1.29	
-1.00589	0.058682	-0.09028	-82.95	29.33	-10.99	2.8697	2.0773	1.2855	
-1.037122	0.00061	-0.127856	-81.83	35.14	-10.43	2.8773	2.0759	1.295	
-1.045906	-0.02562	-0.142252	-78.89	32.62	-9.87	2.8752	2.0909	1.3054	
-1.028704	0.012078	-0.115778	-87.01	23.24	-10.22	2.8845	2.0761	1.2907	
-1.04188	0.041846	-0.077226	-86.73	19.46	-13.09	2.8773	2.0942	1.2841	
-1.075796	0.138226	-0.030744	-65.59	20.72	-8.12	2.881	2.0941	1.3041	
-1.02297	0.107848	-0.081252	-52.22	19.81	0.28	2.8853	2.0988	1.2981	
-1.006378	0.079788	-0.1525	-59.08	9.73	11.83	2.8834	2.0958	1.2905	
-0.964898	0.03904	-0.200812	-76.37	8.4	6.44	2.8882	2.0943	1.2998	
-0.967826	0.091012	-0.179218	-86.52	13.65	2.52	2.8826	2.1078	1.2994	
-0.950624	0.101138	-0.148108	-107.52	19.04	-5.88	2.884	2.1124	1.2949	
-1.000156	0.108458	-0.160674	-119.77	17.01	-4.69	2.886	2.1154	1.3056	
-1.034926	0.092354	-0.213378	-124.67	10.36	-0.77	2.8814	2.123	1.2962	
-1.04249	0.103456	-0.210572	-131.39	13.02	-3.08	2.8853	2.1308	1.2825	
-1.024434	0.148718	-0.205936	-128.8	20.65	-5.53	2.8912	2.1324	1.2813	
-0.974292	0.16714	-0.279014	-114.31	21.14	-5.18	2.8875	2.1505	1.2885	
-0.9943	0.142008	-0.253638	-151.76	21.98	-4.9	2.8952	2.1582	1.2933	
-1.038098	0.101382	-0.315492	-135.87	14.42	2.24	2.8939	2.1642	1.2932	
-1.004548	0.05795	-0.370392	-141.82	14.49	-6.93	2.8913	2.1717	1.2991	
-1.031266	0.137128	-0.27877	-166.95	0.63	-8.19	2.8953	2.1825	1.2839	
-1.020164	0.088816	-0.266326	-160.93	1.75	-5.74	2.8944	2.1915	1.2914	
-1.00589	0.068808	-0.22143	-154.91	4.9	-2.17	2.8927	2.187	1.2883	
-1.024922	0.124806	-0.273036	-135.66	7.07	1.4	2.9006	2.2038	1.293	
-1.016016	0.09942999	-0.331596	-143.5	5.25	2.66	2.8967	2.2081	1.302	
-1.028948	0.097722	-0.318786	-138.46	4.97	2.94	2.8904	2.2111	1.291	
-1.02663	0.050386	-0.2318	-135.52	-1.89	-0.42	2.8922	2.2264	1.2894	
-0.963678	0.074176	-0.211304	-129.5	-1.05	-1.68	2.8984	2.2325	1.2957	
-1.016138	0.031354	-0.197518	-133.98	2.1	0.21	2.8998	2.2402	1.2911	
-0.994178	0.056608	-0.205936	-126.84	3.64	-0.35	2.8946	2.2506	1.2999	
-1.017114	0.010004	-0.208864	-120.68	-1.96	1.26	2.9032	2.2401	1.3019	
-1.031754	0.013176	-0.154452	-105.77	-6.3	3.71	2.8946	2.246	1.303	
-0.97051	0.027328	-0.16836	-89.6	0.63	2.66	2.8978	2.2597	1.3014	
-1.058716	0.030378	-0.116998	-84.91	-0.49	2.24	2.892	2.2596	1.3027	
-1.01931	0.024766	-0.098454	-81.97	-0.07	3.85	2.8966	2.2566	1.309	
-1.001376	0.002684	-0.118828	-75.39	-1.26	5.46	2.8996	2.2597	1.3091	
-1.009062	0.038308	-0.113582	-63.35	-1.82	4.34	2.8939	2.2702	1.3087	
-1.011502	0.04697	-0.102114	-63.49	-0.35	3.57	2.897	2.2595	1.3181	
-1.00894	0.072956	-0.104066	-60.2	1.05	3.29	2.8985	2.2672	1.3151	
-1.02724	0.082472	-0.08601	-58.17	0.98	4.97	2.8985	2.2763	1.3104	
-1.036146	0.103822	-0.08479	-52.64	-0.56	7.77	2.9007	2.2746	1.3288	
-1.031388	0.083814	-0.082228	-52.08	-2.31	7.56	2.9122	2.2765	1.3216	
-1.007842	0.057706	-0.062952	-49.14	-1.82	9.31	2.8959	2.2701	1.3195	
-1.01138	0.078812	-0.059658	-46.69	-1.68	11.27	2.8945	2.2715	1.3225	
-1.00772	0.09089	-0.055632	-45.71	0.35	14.07	2.8988	2.2732	1.3181	
-1.00772	0.113582	-0.034404	-45.57	2.87	15.68	2.8871	2.2729	1.3191	
-1.004548	0.130174	-0.02562	-45.71	4.27	16.73	2.9005	2.2777	1.3211	
-1.022726	0.09857599	-0.02501	-42.91	3.57	20.51	2.9093	2.2734	1.3246	
-0.993324	0.153354	0.01403	-31.85	-4.69	23.17	2.9034	2.2595	1.3306	
-0.97295	0.111752	0.03416	-32.13	1.12	26.11	2.9046	2.2611	1.323	
-0.97295	0.155672	-0.00549	-27.65	4.76	26.04	2.9033	2.2611	1.3275	
-0.989298	0.172142	0.007808	-15.68	-2.17	26.46	2.9024	2.27	1.3365	
-0.975878	0.186294	0.020984	-8.4	-5.11	27.86	2.9016	2.255	1.326	
-0.971852	0.193004	0.006832	-4.48	-4.41	28.84	2.9061	2.2459	1.3324	
-0.981368	0.225822	0.016836	-1.47	-2.52	29.12	2.906	2.2551	1.3247	
-0.984296	0.23607	-0.010492	1.4	-3.22	26.88	2.9091	2.2414	1.3356	
-0.962336	0.260836	0.001098	9.38	-5.46	26.39	2.9003	2.232	1.3414	
-0.95648	0.284504	-0.002928	9.17	-4.9	25.83	2.9099	2.2202	1.3313	
-0.961238	0.321836	-0.001952	10.22	-5.81	24.78	2.9051	2.2202	1.322	
-0.95099	0.312442	0.004026	7.91	-4.41	22.54	2.907	2.2156	1.3343	
-0.957822	0.32086	-0.006588	6.65	-2.8	19.81	2.9013	2.2276	1.3324	
-0.951356	0.338672	-0.01098	8.19	-3.36	18.76	2.9142	2.2219	1.3285	
-0.942938	0.356606	-0.0183	8.68	-3.5	18.76	2.914	2.2112	1.3301	
-0.934764	0.379542	-0.01464	9.31	-2.87	17.36	2.9107	2.1991	1.327	
-0.934398	0.38857	-0.01281	7.7	-1.47	15.61	2.9092	2.2143	1.3192	
-0.945012	0.39284	-0.032208	8.89	-1.89	16.31	2.9034	2.2065	1.3236	
-0.940864	0.41175	0.00305	13.65	-3.85	14.98	2.9021	2.2064	1.3281	
-0.918172	0.405162	0.005124	1.19	0	11.41	2.9075	2.2036	1.3192	
-0.92964	0.404186	-0.02562	-0.28	1.82	9.66	2.9029	2.1899	1.3207	
-0.935008	0.4087	-0.027572	4.55	0	8.75	2.8916	2.1956	1.3278	
-0.937082	0.42761	-0.010004	5.81	-2.38	7.91	2.908	2.2005	1.3315	
-0.926468	0.429562	-0.009881999	2.24	-1.47	4.76	2.9077	2.1944	1.3285	
-0.92232	0.394304	-0.011346	-2.45	0.91	3.15	2.9066	2.1989	1.3345	
-0.955138	0.357704	-0.03721	-4.9	3.5	3.92	2.896	2.1881	1.3326	
-0.94733	0.35807	-0.038552	-0.07	1.4	3.71	2.9031	2.1944	1.3237	
-0.946964	0.34648	-0.030622	2.24	0	2.1	2.9037	2.2019	1.3343	
-0.938546	0.341844	-0.01769	3.64	0.63	1.26	2.9064	2.1928	1.333	
-0.94245	0.313784	-0.024644	5.53	0.63	1.82	2.8974	2.1851	1.3312	
-0.947452	0.302438	-0.042212	7.63	1.05	2.66	2.9013	2.1838	1.3207	
-0.944524	0.323178	-0.047092	13.37	-0.42	3.64	2.9044	2.1792	1.3285	
-0.942328	0.344772	-0.032086	8.61	1.12	2.24	2.8984	2.1745	1.3268	
-0.959164	0.318542	-0.030744	4.9	3.85	0.42	2.9001	2.1867	1.3267	
-0.964776	0.3111	-0.021228	3.92	2.45	0.77	2.9117	2.1885	1.3226	
-0.986004	0.281942	-0.034038	0.56	1.82	3.43	2.9145	2.181	1.3228	
-0.961848	0.270596	-0.05185	-2.8	0.91	6.86	2.9151	2.1931	1.3303	
-0.951844	0.37515	-0.06649	8.05	-4.76	9.31	2.9045	2.1944	1.3223	
-0.967582	0.288286	-0.012322	36.54	-22.82	-0.77	2.9072	2.1824	1.3225	
-0.984052	0.354044	-0.016836	53.76	-20.51	-0.91	2.9057	2.1854	1.3194	
-0.996862	0.32696	-0.05795	36.4	-17.5	-2.45	2.8981	2.1868	1.3129	
-0.942572	0.307928	-0.069662	44.03	-21.77	0.42	2.9014	2.1792	1.3253	
-1.001742	0.324886	-0.06954	46.41	-24.85	0.28	2.9029	2.1838	1.3238	
-0.982344	0.331352	-0.047092	42.98	-20.79	-2.17	2.8976	2.1702	1.3085	
-0.99003	0.36173	-0.076006	34.23	-19.67	-3.99	2.8901	2.1716	1.3036	
-0.963068	0.380396	-0.087474	30.38	-23.1	-3.78	2.8988	2.1733	1.3024	
-0.929396	0.399062	-0.068564	36.61	-24.57	-4.69	2.8953	2.1703	1.2901	
-0.930738	0.38125	-0.066612	44.1	-21.77	-4.76	2.8947	2.1762	1.3068	
-1.020896	0.345748	-0.111264	54.04	-28.49	-5.74	2.8893	2.1748	1.2837	
-1.01138	0.340624	-0.106018	61.95	-33.04	-2.59	2.9013	2.1689	1.2935	
-0.998204	0.332206	-0.06466	63.77	-37.73	-4.34	2.8924	2.1718	1.29	
-0.944158	0.342088	-0.02318	66.29	-34.79	-4.76	2.8902	2.1628	1.2763	
-0.980514	0.296338	-0.03294	86.59	-32.83	-3.15	2.8823	2.1567	1.2654	
-0.970754	0.258152	-0.095892	131.39	-15.33	-8.75	2.8884	2.1598	1.2702	
-1.009916	0.282918	-0.175558	136.22	-25.62	-3.99	2.8839	2.1475	1.2732	
-0.921832	0.353556	-0.160186	113.89	-38.5	-7.77	2.8848	2.1431	1.2641	
-0.848266	0.344406	-0.179218	105.56	-40.11	-11.83	2.8891	2.1417	1.2613	
-0.864248	0.378078	-0.208132	102.69	-40.74	-14.56	2.8801	2.1339	1.261	
-0.982954	0.318298	-0.168604	104.3	-40.18	-12.53	2.8707	2.1248	1.25	
-0.964898	0.307318	-0.132492	109.9	-37.17	-12.67	2.8723	2.1278	1.2531	
-1.016382	0.30378	-0.118218	115.99	-42.28	-11.69	2.873	2.1158	1.2411	
-1.024922	0.30805	-0.129442	138.11	-46.55	-6.23	2.868	2.114	1.2607	
-0.970022	0.304756	-0.148962	153.58	-46.69	-7.14	2.8643	2.1064	1.2469	
-0.974292	0.375272	-0.128832	146.37	-46.83	-9.24	2.8595	2.0958	1.2437	
-0.990274	0.354044	-0.142252	148.19	-49.07	-10.64	2.8516	2.0866	1.2328	
-0.966728	0.393206	-0.138226	155.33	-53.41	-13.23	2.8531	2.0821	1.236	
-0.986858	0.464942	-0.091866	154.91	-54.53	-16.17	2.8502	2.0759	1.2405	
-1.014674	0.460428	-0.098088	142.66	-53.48	-18.06	2.8511	2.0623	1.2346	
-0.968802	0.392718	-0.111508	142.59	-50.26	-22.96	2.8481	2.0608	1.233	
-0.854854	0.374784	-0.097722	139.51	-44.38	-24.15	2.8453	2.0561	1.239	
-0.8967	0.364536	-0.06832	118.58	-35.84	-23.31	2.8423	2.0515	1.2389	
-0.942694	0.392718	-0.048678	106.19	-34.16	-23.1	2.8343	2.0438	1.228	
-0.95648	0.372588	-0.042334	116.48	-31.85	-24.64	2.8347	2.0392	1.2387	
-0.94001	0.28975	-0.020374	100.73	-30.8	-22.33	2.8325	2.0374	1.2585	
-0.935252	0.270352	-0.03843	104.58	-30.59	-18.97	2.8407	2.0255	1.2498	
-0.988078	0.235948	-0.06893	108.08	-31.22	-17.01	2.8377	2.0255	1.2497	
-0.954406	0.274622	-0.083204	115.08	-35.21	-13.3	2.8366	2.0269	1.2557	
-0.843752	0.140666	-0.043676	115.08	-39.69	-12.04	2.8363	2.0147	1.2558	
-1.121546	0.467504	-0.02196	138.53	-33.81	-8.4	2.8406	2.0088	1.2561	
-0.94855	0.341966	-0.03355	101.36	-36.96	-8.19	2.8307	2.01	1.2648	
-0.95038	0.325496	0.01647	108.5	-39.06	-7.56	2.8306	2.0039	1.2649	
-0.99918	0.34221	0.102724	117.74	-40.18	-3.5	2.8317	1.9811	1.2682	
-0.97722	0.360876	0.036234	115.29	-45.78	-0.84	2.8247	1.987	1.2739	
-0.951112	0.369172	0.099918	109.97	-51.38	0.42	2.827	1.9765	1.2635	
-0.915976	0.374174	0.089426	94.15	-46.83	-0.84	2.8167	1.9794	1.2615	
-0.925736	0.3965	0.103822	78.05	-37.52	-4.97	2.811	1.9761	1.2658	
-0.933788	0.361486	0.14335	61.53	-30.24	-9.24	2.8095	1.9715	1.2674	
-0.917562	0.372222	0.109312	42.63	-20.16	-11.62	2.8122	1.9595	1.2676	
-0.900604	0.320616	0.114802	25.83	-10.15	-14.07	2.8151	1.9672	1.2646	
-0.94794	0.284748	0.13115	18.76	-2.38	-15.61	2.82	1.9626	1.2786	
-0.97234	0.197884	0.110776	7	-1.05	-17.01	2.8256	1.9628	1.2727	
-0.973194	0.114802	0.10614	4.83	0.84	-17.64	2.8202	1.9747	1.2769	
-1.008452	0.071126	0.111142	6.79	-0.14	-17.5	2.8188	1.9747	1.2784	
-1.018334	0.088084	0.115656	9.52	-1.75	-17.01	2.8155	1.9747	1.2691	
-0.973926	0.134688	0.130418	11.13	-2.52	-15.68	2.8173	1.9777	1.2752	
-0.980636	0.125538	0.129808	7.28	-0.49	-14.7	2.8213	1.9748	1.2678	
-0.986004	0.118096	0.11468	4.69	1.54	-15.4	2.8274	1.9764	1.2726	
-1.010038	0.073322	0.108092	1.12	3.64	-17.29	2.8303	1.9735	1.2743	
-1.007354	0.08418	0.115534	1.54	2.87	-18.06	2.8247	1.987	1.2724	
-0.992592	0.09467199	0.112728	0.91	2.8	-17.36	2.8261	1.9855	1.2725	
-0.991616	0.095892	0.101382	-1.82	3.78	-14.91	2.8312	1.99	1.2864	
-1.017114	0.077104	0.094794	-2.24	4.41	-14	2.8351	1.9872	1.2759	
-1.00955	0.09089	0.08479	-3.43	5.04	-13.93	2.832	1.9872	1.2727	
-0.975268	0.100162	0.082838	-6.58	7.14	-13.02	2.8308	2.0008	1.271	
-1.003938	0.064172	0.068686	-7.77	8.61	-11.97	2.8413	1.9888	1.2853	
-1.009306	0.064538	0.066612	-6.58	7.84	-9.45	2.8458	1.9934	1.2839	
-0.998692	0.09394	0.067832	-7.91	8.26	-8.05	2.8412	2.001	1.2745	
-0.99979	0.09394	0.054168	-9.66	10.15	-7.84	2.828	1.9931	1.2786	
-0.99369	0.074664	0.045628	-10.92	11.34	-6.51	2.8413	1.9949	1.2822	
-1.009062	0.072712	0.046604	-10.5	12.46	-4.76	2.8389	1.9992	1.2912	
-0.993934	0.09699	0.041114	-11.13	14	-4.83	2.8431	2.0085	1.2821	
-0.995154	0.07747	0.040992	-12.18	14.49	-4.76	2.8497	2.0146	1.296	
-1.019798	0.072956	0.0366	-13.51	14.42	-3.99	2.8465	2.01	1.2929	
-1.01199	0.103578	0.028792	-14.56	13.37	-4.76	2.8478	2.0055	1.2915	
-1.00345	0.112484	0.000732	-19.11	14.84	1.96	2.8374	2.0175	1.2802	
-0.957578	0.0854	0.01098	-25.2	14.63	0.49	2.8551	2.0103	1.2887	
-0.965142	0.102114	0.018422	-23.59	20.09	-1.4	2.8511	2.0162	1.2945	
-0.977586	0.119438	0.013298	-23.03	25.13	-3.22	2.8498	2.013	1.2991	
-1.00101	0.109312	0.003782	-25.83	29.82	-3.92	2.854	2.0132	1.2947	
-1.015284	0.13786	0.013542	-35.21	33.32	-3.01	2.8498	2.0176	1.2975	
-0.999424	0.129442	-0.039894	-46.76	36.26	-2.17	2.8635	2.0178	1.3103	
-0.947086	0.118706	-0.034648	-60.69	38.78	-2.45	2.8574	2.0162	1.304	
-0.966484	0.118828	-0.042334	-45.01	37.03	-2.73	2.8637	2.0299	1.3071	
-1.000034	0.134322	-0.06466	-22.47	44.17	-6.02	2.8664	2.0285	1.3042	
-1.033462	0.127612	-0.083326	-24.57	46.48	-5.81	2.8722	2.0256	1.3045	
-1.019798	0.122366	-0.11651	-33.81	45.01	-3.43	2.8776	2.0301	1.326	
-1.01565	0.138836	-0.17385	-26.6	39.9	-1.89	2.8642	2.0268	1.3224	
-0.99003	0.1464	-0.193004	-40.95	35.56	-2.52	2.8734	2.0345	1.3288	
-0.968192	0.15921	-0.186416	-43.12	33.88	-3.99	2.8708	2.0343	1.3363	
-1.011136	0.160308	-0.205448	-57.19	34.23	-10.78	2.8778	2.0315	1.3306	
