Sensor string: B
Serial number: 1970-01-0000
Firmware version: 2.015
Hardware version: 2.2
Calibration quality: 5
ax	ay	az	gx	gy	gz	mx	my	mz

0.13786	-0.878278	0.407358	-0.56	-0.56	-0.21	-0.1076	0.353	-0.4273	Reference
0.139934	-0.878766	0.409432	0.07	-0.42	-0.42	-0.1256	0.3464	-0.4242	
0.138714	-0.877546	0.410286	0.14	-0.14	-0.49	-0.115	0.3561	-0.4334	
0.140422	-0.877424	0.411262	-0.28	-0.14	-0.28	-0.1016	0.3531	-0.4272	
0.1403	-0.874618	0.411262	-0.35	-0.21	-0.21	-0.118	0.353	-0.4333	
0.139446	-0.876326	0.410286	-0.35	-0.21	-0.07	-0.1166	0.3513	-0.4288	
0.139934	-0.877058	0.411506	-0.63	-0.35	0.07	-0.1134	0.3592	-0.4334	
0.1403	-0.875716	0.410286	-0.42	-0.42	0	-0.1152	0.3435	-0.4226	
0.14091	-0.875594	0.410164	-0.56	-0.42	0.14	-0.1223	0.3604	-0.4291	
0.141276	-0.875716	0.409432	-0.7	-0.56	0.14	-0.1181	0.3515	-0.4332	
0.141398	-0.875228	0.410652	-1.05	-0.42	0.21	-0.1108	0.3409	-0.4314	
0.141886	-0.878034	0.409432	-1.12	-0.21	0.14	-0.1285	0.3493	-0.4214	
0.14091	-0.879376	0.408578	-0.98	-0.14	0.14	-0.1107	0.3501	-0.4346	
0.140178	-0.88023	0.407358	-0.98	0	0.21	-0.1076	0.3501	-0.4301	
0.1403	-0.879132	0.405772	-0.91	0	0.21	-0.115	0.356	-0.4289	
0.140178	-0.877546	0.406992	-0.91	-0.07	0.35	-0.1061	0.3514	-0.4242	
0.138714	-0.878278	0.406138	-0.7	-0.07	0.35	-0.1062	0.3484	-0.4256	
0.13969	-0.878156	0.406382	-0.84	-0.35	0.42	-0.1239	0.3525	-0.4214	
0.139446	-0.878034	0.408334	-0.77	-0.35	0.35	-0.1208	0.362	-0.4306	
0.138958	-0.878034	0.40748	-0.7	-0.14	0.42	-0.1166	0.3467	-0.4256	
0.139446	-0.878278	0.405406	-0.7	-0.14	0.42	-0.118	0.3512	-0.4258	
0.138958	-0.880352	0.405162	-0.84	-0.14	0.35	-0.1076	0.3483	-0.4227	
0.138348	-0.88084	0.405894	-1.05	-0.21	0.42	-0.1076	0.3546	-0.4303	
0.13908	-0.880352	0.406382	-0.84	0.07	0.49	-0.1211	0.3449	-0.4226	
0.13725	-0.880718	0.404308	-1.12	0.28	0.56	-0.1224	0.3557	-0.426	
0.139812	-0.878156	0.40504	-0.98	0.42	0.49	-0.1077	0.3485	-0.4286	
0.13786	-0.880352	0.406138	-1.33	0.7	0.35	-0.1091	0.3516	-0.4317	
0.133956	-0.87779	0.408334	-1.47	1.33	0.42	-0.1135	0.3528	-0.4258	
0.131394	-0.877668	0.399916	-1.54	0.77	0.63	-0.1165	0.3513	-0.4273	
0.141398	-0.881084	0.399794	-1.05	-0.49	0.56	-0.112	0.3529	-0.4258	
0.141886	-0.880352	0.40443	-0.84	0.77	-0.14	-0.1164	0.3589	-0.426	
0.135908	-0.880596	0.406626	-1.26	1.54	0.07	-0.112	0.3528	-0.4228	
0.132736	-0.884378	0.407968	-1.96	1.26	0.49	-0.1163	0.3605	-0.4276	
0.135664	-0.87596	0.405162	-1.82	0.77	0.98	-0.1165	0.3529	-0.4303	
0.136274	-0.874862	0.404796	-1.75	0.7	1.05	-0.118	0.3525	-0.4199	
0.137494	-0.87352	0.406626	-2.1	0.49	0.91	-0.1137	0.3454	-0.433	
0.136518	-0.874008	0.406382	-2.45	0.84	0.77	-0.106	0.356	-0.4244	
0.136762	-0.87779	0.403332	-3.01	0.77	0.84	-0.1165	0.3511	-0.4228	
0.136762	-0.879376	0.40626	-3.01	0.7	0.98	-0.1135	0.3512	-0.4228	
0.134932	-0.878888	0.401014	-2.8	0.91	1.12	-0.1163	0.3587	-0.4216	
0.137006	-0.88328	0.399794	-3.08	0.42	1.4	-0.109	0.3558	-0.4214	
0.137738	-0.885232	0.396622	-3.22	0.42	1.33	-0.1075	0.3544	-0.4214	
0.134932	-0.883524	0.396256	-2.73	0.91	1.26	-0.1136	0.3531	-0.4332	
0.131272	-0.887428	0.39589	-3.29	0.98	1.47	-0.1165	0.356	-0.4304	
0.130662	-0.884866	0.392596	-3.01	0.56	1.54	-0.1089	0.359	-0.4245	
0.131272	-0.880108	0.392352	-2.8	0.63	1.68	-0.1163	0.3637	-0.4336	
0.131272	-0.881084	0.393328	-3.43	0.35	1.75	-0.1104	0.3587	-0.4171	
0.131638	-0.87962	0.39528	-3.29	0	1.68	-0.1074	0.3622	-0.429	
0.131882	-0.884256	0.392962	-3.64	-0.35	1.68	-0.1192	0.3615	-0.4143	
0.12932	-0.889258	0.388326	-3.43	-0.56	1.47	-0.1116	0.3694	-0.4189	
0.126636	-0.892674	0.386862	-3.22	-0.28	1.33	-0.1073	0.3618	-0.4157	
0.12383	-0.899506	0.385032	-3.15	0	1.33	-0.1059	0.3622	-0.4261	
0.12261	-0.901458	0.385642	-2.94	0.14	1.47	-0.0998	0.3652	-0.4217	
0.120902	-0.897554	0.382592	-2.66	0.35	1.82	-0.1058	0.3603	-0.4141	
0.120658	-0.899628	0.376736	-3.15	0	1.96	-0.1089	0.3604	-0.4216	
0.119072	-0.903044	0.371612	-2.59	-0.35	1.89	-0.1044	0.3608	-0.4305	
0.118462	-0.90158	0.368318	-2.1	-0.28	1.82	-0.1028	0.3586	-0.4096	
0.118828	-0.903776	0.364902	-2.24	-0.28	1.75	-0.1072	0.3666	-0.4218	
0.118096	-0.905118	0.363438	-1.68	-0.42	1.47	-0.1072	0.3667	-0.4247	
0.115656	-0.906338	0.363682	-0.84	-0.21	1.12	-0.1027	0.3695	-0.4159	
0.115412	-0.906216	0.364414	-0.07	-0.35	1.05	-0.0984	0.359	-0.417	
0.112728	-0.911096	0.365024	0.56	-0.42	0.91	-0.1027	0.3681	-0.4173	
0.112484	-0.905484	0.367708	1.75	-0.7	0.84	-0.0983	0.3651	-0.4157	
0.120902	-0.897554	0.372344	1.26	-1.05	0.84	-0.1073	0.3684	-0.4307	
0.123586	-0.892308	0.37759	1.19	-0.91	0.49	-0.1057	0.3665	-0.4188	
0.128466	-0.88511	0.383446	1.33	-0.14	0.28	-0.1087	0.3632	-0.4142	
0.13481	-0.88206	0.382836	1.12	-0.28	-0.14	-0.1027	0.3666	-0.4188	
0.143472	-0.891088	0.377468	1.26	-0.98	-1.12	-0.0953	0.362	-0.4126	
0.144082	-0.89853	0.381616	1.54	0.21	-2.45	-0.1043	0.3653	-0.4276	
0.13664	-0.898774	0.381128	1.82	2.87	-3.22	-0.1102	0.3681	-0.4248	
0.128222	-0.894992	0.385398	1.4	4.76	-2.73	-0.0999	0.3608	-0.426	
0.123708	-0.89304	0.383324	-0.07	5.04	-1.96	-0.1057	0.3665	-0.4173	
0.120536	-0.896456	0.377834	-0.07	4.27	-1.75	-0.1045	0.3558	-0.4184	
0.111142	-0.89914	0.374296	0.77	3.64	-1.68	-0.1058	0.3636	-0.4217	
0.108458	-0.898408	0.37576	1.61	3.08	-1.47	-0.1029	0.3624	-0.432	
0.109068	-0.899262	0.379298	1.82	2.31	-1.4	-0.1043	0.3637	-0.4246	
0.106628	-0.899872	0.378322	2.59	1.61	-1.12	-0.0984	0.3639	-0.4261	
0.100284	-0.901336	0.381494	2.8	1.19	-0.7	-0.1014	0.3623	-0.4275	
0.098454	-0.906216	0.37454	3.15	0	-0.28	-0.1029	0.3606	-0.4215	
0.097722	-0.92232	0.368196	3.08	-2.38	0.35	-0.1073	0.3651	-0.4232	
0.09516	-0.933666	0.35685	3.43	-3.43	0.42	-0.1075	0.3576	-0.4274	
0.086132	-0.945378	0.34648	4.27	-4.27	0.28	-0.1033	0.3439	-0.4255	
0.08113	-0.953552	0.331962	5.46	-5.32	-0.07	-0.1104	0.359	-0.426	
0.081008	-0.961604	0.318908	7.42	-5.95	-0.84	-0.1059	0.3606	-0.4245	
0.078812	-0.970632	0.311954	10.36	-5.88	-2.03	-0.1118	0.3604	-0.4231	
0.079666	-0.972828	0.308782	13.65	-5.53	-3.15	-0.1045	0.3575	-0.4229	
0.081008	-0.971852	0.304512	15.82	-5.39	-4.41	-0.1107	0.3501	-0.4331	
0.083082	-0.96868	0.299266	18.13	-4.97	-5.74	-0.1061	0.3517	-0.4317	
0.08235	-0.968802	0.291092	21.49	-4.2	-7.35	-0.1093	0.3426	-0.4359	
0.078812	-0.969534	0.288652	24.36	-3.85	-8.75	-0.1139	0.3359	-0.4208	
0.081008	-0.959774	0.297924	29.61	-2.73	-10.5	-0.1166	0.3484	-0.4316	
0.090524	-0.951966	0.305976	33.67	-1.82	-12.39	-0.1182	0.3453	-0.4315	
0.098698	-0.944036	0.31049	37.73	-1.05	-14.35	-0.114	0.335	-0.4416	
0.105164	-0.938912	0.329644	41.72	0.7	-16.24	-0.117	0.3366	-0.4461	
0.108092	-0.920612	0.348188	46.27	3.15	-18.06	-0.1127	0.3243	-0.4383	
0.116998	-0.874374	0.389058	48.37	8.26	-19.39	-0.1177	0.3061	-0.4451	
0.127978	-0.834724	0.40748	50.12	10.36	-20.02	-0.1253	0.3033	-0.4584	
0.089548	-0.833504	0.466894	51.87	6.3	-21.49	-0.1179	0.2991	-0.4642	
0.152744	-0.81374	0.44774	38.71	-24.01	-14.49	-0.1272	0.285	-0.4594	
0.153964	-0.78568	0.444202	59.22	-1.82	-21	-0.1272	0.2834	-0.4593	
0.151768	-0.753838	0.493124	59.92	5.95	-23.1	-0.1276	0.2667	-0.4617	
0.163846	-0.750544	0.493978	55.51	-3.71	-20.72	-0.135	0.2715	-0.4723	
0.16226	-0.745176	0.503738	58.59	0.21	-19.67	-0.125	0.2568	-0.4837	
0.163968	-0.717238	0.518866	59.64	9.87	-17.22	-0.1447	0.2394	-0.4773	
0.146766	-0.72163	0.58072	70.28	-20.09	-26.95	-0.1388	0.235	-0.4801	
0.193004	-0.679784	0.553148	61.11	1.4	-22.33	-0.1421	0.2243	-0.4813	
0.176778	-0.640744	0.558638	76.16	1.82	-23.8	-0.1572	0.2148	-0.4811	
0.219478	-0.645258	0.60146	82.74	-34.3	-26.25	-0.1397	0.197	-0.4863	
0.240828	-0.618052	0.609878	67.9	-7.98	-24.08	-0.1489	0.1847	-0.4874	
0.236802	-0.513254	0.62037	91.56	-1.19	-27.3	-0.158	0.1799	-0.4874	
0.297436	-0.489098	0.690032	75.39	-6.86	-27.44	-0.1598	0.1663	-0.4944	
0.30134	-0.453352	0.723094	76.93	-7.63	-29.12	-0.1645	0.1587	-0.4971	
0.36234	-0.41602	0.76921	72.87	-13.79	-29.26	-0.1663	0.1419	-0.4981	
0.324642	-0.377102	0.780922	82.74	-8.61	-34.16	-0.1683	0.1173	-0.4943	
0.315248	-0.382226	0.786412	71.19	-12.25	-34.09	-0.1714	0.1158	-0.4958	
0.314394	-0.356484	0.792634	72.73	-5.74	-32.41	-0.1703	0.0991	-0.4997	
0.330864	-0.341234	0.805444	69.65	-8.12	-31.29	-0.1749	0.0898	-0.4979	
0.350628	-0.32025	0.827648	66.85	-6.44	-30.59	-0.1767	0.0777	-0.502	
0.36417	-0.304024	0.844484	67.34	-6.65	-30.38	-0.1724	0.06659999	-0.4883	
0.38918	-0.292434	0.896944	63.42	-4.48	-28.77	-0.1608	0.0535	-0.4967	
0.371978	-0.266692	0.88755	65.94	-1.68	-27.3	-0.1775	0.0393	-0.4948	
0.363926	-0.231312	0.894748	62.65	-2.52	-24.71	-0.1792	0.0299	-0.4886	
0.381006	-0.195444	0.911096	57.26	-3.5	-22.47	-0.1749	0.0242	-0.4988	
0.39711	-0.1708	0.914268	55.02	-2.1	-20.86	-0.169	0.0131	-0.4821	
0.387838	-0.152988	0.918294	52.99	-2.73	-19.46	-0.1799	-0.0053	-0.483	
0.389302	-0.1342	0.928054	45.92	-3.92	-17.08	-0.1786	-0.0146	-0.4783	
0.394548	-0.131882	0.917562	43.89	-3.5	-16.17	-0.1817	-0.0191	-0.4841	
0.402234	-0.127856	0.933178	41.44	-4.69	-15.19	-0.1805	-0.0346	-0.4747	
0.405284	-0.110898	0.93635	41.79	-1.26	-14.49	-0.1746	-0.0407	-0.4715	
0.399794	-0.097234	0.936716	38.36	-1.19	-13.72	-0.1761	-0.0425	-0.4625	
0.40809	-0.095404	0.956724	34.86	-1.47	-12.74	-0.1732	-0.0421	-0.4729	
0.408578	-0.091378	0.961238	33.53	-0.7	-11.97	-0.1751	-0.0621	-0.4708	
0.419436	-0.071126	0.97417	29.33	1.4	-10.29	-0.178	-0.0576	-0.4695	
0.421632	-0.054778	0.981368	25.2	0.21	-8.19	-0.1752	-0.0668	-0.4677	
0.431758	-0.038796	1.005768	22.26	1.12	-6.72	-0.1767	-0.07009999	-0.4616	
0.435784	-0.023912	1.00955	18.62	2.59	-5.6	-0.1781	-0.0687	-0.4587	
0.430904	-0.00549	1.000278	15.05	3.92	-4.2	-0.1722	-0.06659999	-0.4706	
0.430904	0.010736	1.009184	10.01	3.01	-2.38	-0.1708	-0.0711	-0.4734	
0.424682	0.021594	1.005768	6.16	2.45	-0.77	-0.1737	-0.07	-0.4601	
0.41602	0.026108	0.996374	2.52	2.17	0.7	-0.1739	-0.07759999	-0.4614	
0.40565	0.028426	0.990518	-1.47	1.96	2.45	-0.1724	-0.079	-0.4658	
0.401624	0.044896	0.981978	-6.93	0.49	5.11	-0.171	-0.0821	-0.4627	
0.410042	0.039894	0.987956	-11.83	-0.28	6.51	-0.1753	-0.0729	-0.4675	
0.413336	0.032208	0.996008	-15.96	-1.26	8.05	-0.1723	-0.0728	-0.4675	
0.41358	0.021472	0.99491	-18.34	-1.61	9.17	-0.1812	-0.0715	-0.4661	
0.420656	0.018544	1.001498	-22.96	-0.84	10.85	-0.1737	-0.0683	-0.4661	
0.41907	0.003782	0.986004	-26.67	-1.4	12.04	-0.1796	-0.0639	-0.4663	
0.415044	-0.021838	0.988078	-32.06	-2.87	13.37	-0.1794	-0.0564	-0.4621	
0.421754	-0.04148	0.987102	-36.61	-2.17	15.4	-0.1826	-0.0668	-0.4722	
0.431392	-0.045872	0.993446	-41.3	-1.19	17.36	-0.1928	-0.0533	-0.4712	
0.428342	-0.060878	0.974536	-45.29	0.14	18.62	-0.1733	-0.0484	-0.4668	
0.421266	-0.076006	0.958554	-49.63	0.91	19.74	-0.1791	-0.0375	-0.479	



0.392352	-0.171044	0.901092	-64.89	2.17	23.45	-0.1768	0.0008	-0.4847	

0.360266	-0.242048	0.837164	-69.65	3.57	25.27	-0.1761	0.033	-0.4887	
0.35319	-0.270596	0.829112	-71.47	3.92	26.18	-0.1832	0.0496	-0.4863	
0.343064	-0.291702	0.808494	-72.17	4.41	26.74	-0.1739	0.0619	-0.4837	
0.33367	-0.32147	0.793244	-74.41	3.78	27.51	-0.1739	0.0667	-0.4913	
0.321104	-0.36295	0.765916	-76.72	2.38	28.42	-0.1736	0.08199999	-0.4932	
0.309148	-0.393206	0.744932	-76.16	2.1	28.84	-0.1764	0.0895	-0.4905	
0.301584	-0.422852	0.73017	-76.65	3.08	29.26	-0.1803	0.114	-0.4943	
0.292312	-0.452254	0.709796	-76.65	3.5	29.61	-0.1801	0.1213	-0.4841	
0.283284	-0.479094	0.69601	-75.95	4.2	29.61	-0.1635	0.1325	-0.4888	
0.267668	-0.50508	0.673928	-74.76	4.9	29.26	-0.1694	0.1336	-0.48	
0.262422	-0.534848	0.655628	-76.09	5.6	29.33	-0.1689	0.1599	-0.4912	
0.257664	-0.562908	0.634156	-75.39	6.3	28.91	-0.1669	0.1812	-0.4875	
0.24888	-0.58377	0.604754	-73.85	7.63	28.28	-0.1669	0.1828	-0.4905	
0.240706	-0.60329	0.590114	-72.94	9.59	27.93	-0.1591	0.1965	-0.4834	
0.226188	-0.63257	0.57035	-73.43	11.48	27.3	-0.1513	0.2088	-0.4808	
0.214232	-0.654774	0.554246	-71.12	14.98	26.67	-0.1498	0.2086	-0.4734	
0.197152	-0.668926	0.528626	-71.89	14.98	26.88	-0.154	0.2239	-0.4769	
0.194834	-0.683322	0.515572	-71.05	16.45	26.81	-0.1462	0.2359	-0.4653	
0.196786	-0.710406	0.50874	-74.41	14.77	26.67	-0.1401	0.2421	-0.4655	
0.186294	-0.759816	0.501176	-75.88	12.81	25.27	-0.1336	0.2684	-0.4693	
0.173484	-0.784216	0.476044	-73.78	9.1	24.01	-0.1274	0.2758	-0.4591	
0.15799	-0.80032	0.46055	-73.36	15.05	23.73	-0.1331	0.2815	-0.4519	
0.142618	-0.824842	0.427122	-76.86	7.7	22.96	-0.127	0.296	-0.4701	
0.153964	-0.817278	0.37393	-76.65	8.82	23.31	-0.1251	0.3075	-0.4482	
0.084424	-0.885232	0.307318	-80.43	46.97	21	-0.1116	0.3126	-0.4527	
0.096014	-0.828258	0.34587	-41.44	43.68	11.27	-0.1007	0.3307	-0.4399	
0.06771	-0.869982	0.361608	-93.38	0.84	23.03	-0.0958	0.3489	-0.4345	
0.02196	-0.92415	0.233752	-96.25	2.31	23.94	-0.0985	0.3579	-0.4318	
-0.004636	-0.933056	0.182634	-77.7	12.04	22.26	-0.0937	0.3733	-0.4308	
0.01708	-0.919758	0.204594	-79.59	3.08	24.43	-0.0995	0.3771	-0.4102	
0.005124	-0.937082	0.188124	-86.31	-0.35	26.95	-0.0873	0.3878	-0.4045	
0.011834	-0.96075	0.142618	-80.01	-1.82	24.85	-0.08679999	0.4058	-0.3932	
0.020008	-0.97905	0.141154	-72.45	-0.21	22.05	-0.0672	0.4154	-0.3934	
0.024522	-0.984662	0.134444	-65.38	0.7	19.67	-0.07759999	0.4181	-0.3891	
0.018788	-0.98759	0.124318	-62.09	-1.82	18.83	-0.0758	0.4286	-0.3835	
-0.006832	-1.008818	0.118218	-53.9	-5.46	15.75	-0.074	0.4357	-0.3659	
-0.01037	-1.013088	0.107482	-47.04	-5.6	12.88	-0.068	0.4388	-0.3645	
-0.011102	-1.007598	0.099918	-38.71	-0.98	11.41	-0.0651	0.4308	-0.3493	
-0.004514	-1.004304	0.110898	-33.95	-2.94	10.5	-0.0636	0.4342	-0.3613	
0.014152	-0.999668	0.10309	-28.14	-3.22	9.8	-0.0663	0.4443	-0.3453	
0.019276	-1.009428	0.114436	-26.32	-4.48	8.33	-0.0691	0.4505	-0.35	
0.024766	-1.014064	0.113094	-24.5	-4.55	7.21	-0.0647	0.449	-0.3469	
0.013176	-1.024434	0.098332	-24.36	-6.02	7.07	-0.0616	0.4504	-0.341	
-0.0061	-1.039684	0.088328	-26.32	-6.86	7.77	-0.0631	0.4488	-0.3395	
-0.001952	-1.024068	0.08235	-22.89	-6.3	7.56	-0.0599	0.4627	-0.3429	
0.014152	-0.998692	0.06734399	-19.46	-3.92	7.07	-0.0585	0.4533	-0.3352	
0.020252	-0.99247	0.060146	-17.08	-7.35	5.46	-0.0598	0.4625	-0.3355	
0.017202	-0.996252	0.056242	-18.2	-7.21	4.97	-0.0597	0.4667	-0.3237	
0.015738	-0.996496	0.047946	-17.36	-6.58	3.43	-0.0584	0.4575	-0.3219	
0.01342	-1.003328	0.04636	-15.89	-5.95	2.66	-0.0566	0.4665	-0.3178	
0.003904	-1.008452	0.04148	-16.1	-6.44	2.1	-0.0535	0.4694	-0.3104	
0.004026	-1.006256	0.019276	-14.14	-5.67	1.75	-0.052	0.4694	-0.3104	
-0.002684	-1.008818	0.004636	-14.77	-5.46	1.33	-0.061	0.4725	-0.3165	
-0.000244	-1.01077	-0.005612	-12.95	-5.04	0.56	-0.0594	0.474	-0.3151	
0.003172	-1.022238	-0.011956	-14.98	-7.28	-0.42	-0.0536	0.4679	-0.3104	
0.007076	-1.028338	-0.016226	-12.74	-4.41	-1.68	-0.0579	0.4723	-0.3091	
-0.014274	-1.043222	-0.016592	-13.44	-4.55	-2.38	-0.0609	0.4723	-0.3106	
-0.010736	-1.038342	-0.024034	-9.87	-3.71	-2.31	-0.0578	0.4749	-0.2943	
0.000732	-1.01687	-0.022448	-9.94	-2.31	-2.31	-0.0578	0.4767	-0.3033	
0.005124	-0.992226	-0.028914	-9.38	-3.22	-3.01	-0.0577	0.4827	-0.3005	
0.001342	-0.996374	-0.035014	-11.9	-3.78	-2.73	-0.0593	0.4752	-0.3047	
-0.009028	-1.006988	-0.044408	-14	-3.57	-2.38	-0.0651	0.4827	-0.3035	
0.00366	-1.00284	-0.04575	-10.08	-1.89	-2.31	-0.0652	0.4781	-0.3034	
0.011346	-0.988566	-0.034892	-8.61	-2.03	-2.31	-0.059	0.4873	-0.3006	
0.01098	-0.991738	-0.034648	-11.06	-2.31	-0.98	-0.0699	0.4655	-0.2956	
0.005124	-1.013942	-0.043188	-10.15	-0.14	-0.63	-0.0681	0.481	-0.302	
-0.00488	-1.022848	-0.047336	-7.84	-0.14	-0.63	-0.0561	0.481	-0.293	
-0.000366	-1.045784	-0.059536	-7.49	-0.07	-0.21	-0.0651	0.4823	-0.2931	
0.006832	-1.04798	-0.05734	-4.2	-1.05	-0.28	-0.0725	0.4788	-0.2841	
0.008174	-1.050298	-0.04697	-1.96	-1.19	-0.28	-0.0651	0.4792	-0.2915	
0.01098	-1.055544	-0.043798	-0.42	-1.19	0	-0.0651	0.4774	-0.284	
0.005124	-1.058228	-0.04514	3.36	0.42	-0.63	-0.0637	0.4744	-0.2825	
0.007686	-1.058594	-0.056486	5.04	0.7	-1.26	-0.0651	0.4806	-0.2871	
0.015616	-1.038342	-0.05734	9.31	1.33	-2.03	-0.0786	0.4756	-0.2841	
0.019276	-1.019066	-0.057584	12.67	1.89	-3.15	-0.0608	0.4717	-0.2927	
0.013298	-1.023092	-0.05795	13.51	1.82	-3.85	-0.06659999	0.4776	-0.2885	
0.013542	-1.01382	-0.05734	17.29	-1.68	-4.2	-0.0592	0.4764	-0.2958	
0.012932	-1.016504	-0.045628	16.59	-1.54	-3.99	-0.0667	0.4746	-0.2929	
0.012078	-1.036512	-0.045018	19.88	-2.24	-4.55	-0.0743	0.4717	-0.3017	
0.017324	-1.028582	-0.03782	22.68	-4.2	-5.11	-0.0713	0.472	-0.3077	
0.009272	-1.039196	-0.03111	24.85	-2.17	-6.16	-0.0728	0.4685	-0.2972	
0.012566	-1.041758	-0.028182	27.23	-2.03	-6.51	-0.0714	0.4721	-0.3106	
0.018788	-1.039806	-0.022692	29.68	-4.83	-7.07	-0.07889999	0.4704	-0.3106	
0.021716	-1.041392	-0.0061	30.8	-5.81	-7.63	-0.0715	0.4674	-0.309	
0.02135	-1.049566	0.007198	33.39	-4.2	-8.4	-0.0762	0.4588	-0.3266	
0.01891	-1.052372	0.013664	36.4	-1.75	-8.96	-0.0819	0.4723	-0.3256	
0.0244	-1.039928	0.011712	39.41	-3.85	-9.52	-0.0839	0.4497	-0.3337	
0.027694	-1.038708	0.0244	42.21	-3.85	-10.15	-0.0765	0.4483	-0.3351	
0.033306	-1.031266	0.039406	44.24	-2.17	-11.2	-0.0841	0.4402	-0.3245	
0.03416	-1.031754	0.05612	46.76	-4.27	-11.83	-0.08419999	0.4423	-0.3409	
0.040626	-1.01992	0.06771	47.74	-5.67	-11.97	-0.0813	0.443	-0.3602	
0.039894	-1.016382	0.07124799	51.17	-4.2	-13.44	-0.0949	0.4316	-0.3481	
0.038918	-1.02724	0.07905599	50.75	-6.93	-14.49	-0.0995	0.427	-0.3509	
0.043188	-1.024312	0.109556	55.72	-7.98	-16.66	-0.0892	0.4232	-0.3671	
0.061	-1.01565	0.116022	65.52	3.85	-18.2	-0.1014	0.4091	-0.3652	
0.048312	-1.010282	0.125782	66.99	-4.27	-18.27	-0.0988	0.3958	-0.3781	
0.067222	-1.009062	0.164456	59.92	-14.35	-18.9	-0.1107	0.3954	-0.3737	
0.072712	-0.998936	0.184342	71.19	-2.59	-22.12	-0.1064	0.3944	-0.3841	
0.071492	-0.971364	0.191784	78.82	2.31	-23.66	-0.1111	0.3855	-0.3972	
0.073688	-0.940864	0.210572	76.65	-6.16	-21.91	-0.1174	0.3703	-0.4027	
0.093086	-0.938668	0.24217	72.1	-11.55	-20.93	-0.1176	0.3611	-0.4009	
0.108092	-0.910364	0.277794	80.5	-6.09	-22.12	-0.1285	0.3461	-0.4168	
0.118218	-0.879986	0.310612	83.79	-4.2	-22.54	-0.1313	0.3555	-0.426	
0.141154	-0.854244	0.351848	77.14	-8.47	-21.21	-0.1362	0.3371	-0.427	
0.152744	-0.81862	0.404796	76.58	-5.39	-21.91	-0.1304	0.3329	-0.4357	
0.154452	-0.791536	0.402844	77.91	0.35	-23.45	-0.1294	0.3165	-0.4455	
0.160918	-0.777506	0.404674	75.46	-1.4	-23.8	-0.14	0.3037	-0.4348	
0.169336	-0.738954	0.44103	73.22	-2.87	-24.08	-0.1371	0.3045	-0.43	
0.164944	-0.718214	0.457744	75.81	1.12	-25.9	-0.1422	0.2799	-0.4563	
0.17873	-0.703452	0.500322	73.36	-2.03	-27.09	-0.1485	0.2663	-0.4648	
0.180682	-0.693692	0.509716	77	-1.61	-28.28	-0.1548	0.2527	-0.4704	
0.184952	-0.672952	0.53741	76.72	-2.94	-28.84	-0.1552	0.236	-0.4743	
0.19154	-0.655262	0.558638	76.23	-3.43	-28.42	-0.154	0.2222	-0.4709	
0.202886	-0.627446	0.574254	77	-1.54	-27.51	-0.1512	0.213	-0.4691	
0.223626	-0.582672	0.593042	78.54	-0.98	-26.88	-0.1441	0.2014	-0.4835	
0.235338	-0.538386	0.619638	79.38	0.14	-26.81	-0.1634	0.2025	-0.4837	
0.243268	-0.489952	0.649528	79.87	0.14	-26.74	-0.1607	0.1887	-0.4802	
0.247538	-0.457256	0.67954	76.44	-0.07	-26.11	-0.1612	0.166	-0.4854	
0.259982	-0.43371	0.705526	71.54	-4.83	-24.5	-0.1661	0.1476	-0.4864	
0.29402	-0.39528	0.750422	63.07	-10.78	-21.63	-0.1708	0.1415	-0.4907	
0.32635	-0.370148	0.78507	68.25	1.68	-24.71	-0.1724	0.1355	-0.4935	
0.324154	-0.34282	0.798246	64.61	-5.67	-24.15	-0.1713	0.1171	-0.4914	
0.3233	-0.339648	0.835578	60.48	-4.34	-24.64	-0.173	0.1062	-0.5092	
0.335378	-0.304756	0.854488	61.74	-2.8	-24.78	-0.1732	0.1021	-0.4742	
0.335256	-0.291824	0.86498	56.91	-2.03	-24.99	-0.1718	0.0909	-0.5072	
0.342698	-0.283528	0.874008	53.69	-1.19	-24.85	-0.1826	0.0753	-0.4812	
0.337818	-0.26535	0.877912	52.22	-0.63	-24.43	-0.1632	0.0775	-0.4871	
0.33367	-0.24949	0.870592	51.1	0.35	-23.87	-0.1771	0.0544	-0.4909	
0.340502	-0.23607	0.878766	48.3	-0.14	-22.89	-0.1771	0.0543	-0.512	
0.349042	-0.23119	0.891088	46.13	-0.7	-22.26	-0.1743	0.0435	-0.4816	
0.357704	-0.23302	0.89121	44.45	-0.98	-21.98	-0.1745	0.0376	-0.4888	
0.356484	-0.244976	0.909388	40.67	2.66	-21.56	-0.1748	0.0239	-0.4884	
0.35563	-0.23912	0.900848	41.23	3.78	-20.65	-0.1852	0.0252	-0.4885	
0.350872	-0.2257	0.904508	39.9	4.69	-19.39	-0.1735	0.0178	-0.4882	
0.359778	-0.213256	0.912438	35.7	2.59	-17.85	-0.1752	0.0038	-0.4833	
0.352092	-0.211182	0.904508	36.89	3.43	-17.5	-0.1678	0.0041	-0.4847	
0.340624	-0.213866	0.896822	33.53	1.05	-16.52	-0.1754	-0.0068	-0.483	
0.34099	-0.202642	0.905484	32.48	-0.49	-15.82	-0.174	-0.0067	-0.4844	
0.348432	-0.1891	0.909144	30.8	-6.23	-15.12	-0.1726	-0.0143	-0.4842	
0.361486	-0.181048	0.922564	29.33	-2.66	-14.77	-0.1699	-0.0265	-0.4808	
0.376492	-0.164334	0.938058	26.04	-3.85	-12.81	-0.1805	-0.0328	-0.4836	
0.386984	-0.152988	0.957822	23.59	-4.69	-11.69	-0.1745	-0.033	-0.4732	
0.397354	-0.132492	0.968192	22.12	-5.53	-10.29	-0.1716	-0.0423	-0.467	
0.397842	-0.103212	0.966606	19.95	-2.94	-8.89	-0.1643	-0.0434	-0.4758	
0.39101	-0.09089	0.957456	15.75	-4.9	-7.14	-0.1734	-0.056	-0.468	
0.39101	-0.09552599	0.955626	12.46	-4.97	-6.3	-0.1734	-0.0527	-0.4755	
0.403698	-0.08479	0.962458	10.15	-3.01	-4.9	-0.1733	-0.0483	-0.4712	
0.413824	-0.064782	0.981002	5.88	-3.29	-3.15	-0.1734	-0.0529	-0.4711	
0.420656	-0.052338	0.980758	4.34	-2.66	-2.03	-0.1735	-0.0575	-0.4709	
0.422242	-0.04636	0.980636	1.33	-2.38	-0.91	-0.1673	-0.0464	-0.4772	
0.422242	-0.03416	0.976732	-2.1	-1.47	0.28	-0.1703	-0.0499	-0.4682	
0.429318	-0.029036	0.982344	-5.46	-0.84	1.47	-0.1779	-0.0579	-0.462	
0.429562	-0.026352	0.974902	-8.82	-0.7	2.87	-0.1822	-0.0485	-0.4698	
0.426756	-0.030378	0.982344	-13.23	-0.63	4.41	-0.169	-0.0574	-0.4709	
0.421876	-0.040138	0.978806	-16.17	-0.42	5.6	-0.1853	-0.0515	-0.4757	
0.420656	-0.048922	0.98942	-21.42	1.82	7.56	-0.1673	-0.0434	-0.4773	
0.420534	-0.049898	0.984784	-26.11	0.14	9.45	-0.1777	-0.0452	-0.4743	
0.419924	-0.05734	0.991006	-30.87	1.12	11.27	-0.1789	-0.0314	-0.4777	
0.413824	-0.073322	0.97783	-34.65	0.91	12.67	-0.179	-0.036	-0.4791	
0.418582	-0.09089	0.985394	-40.11	1.4	14	-0.1772	-0.0176	-0.4797	
0.411018	-0.091988	0.968192	-41.51	4.2	15.26	-0.1698	-0.0203	-0.4855	
0.403088	-0.09857599	0.961726	-47.46	3.15	17.08	-0.1739	-0.008599999	-0.4725	
0.396256	-0.114924	0.94733	-51.87	1.75	18.76	-0.183	-0.0165	-0.4708	
0.385398	-0.13847	0.931348	-56.84	1.05	20.02	-0.1781	0.0069	-0.4864	
0.379298	-0.1525	0.918538	-60.62	1.19	21.28	-0.1718	0.0223	-0.4839	
0.37332	-0.16836	0.896456	-63.98	1.33	22.4	-0.169	0.0178	-0.4852	
0.362584	-0.19825	0.871934	-67.2	0.07	23.24	-0.1747	0.0299	-0.4871	
0.354166	-0.236558	0.848754	-70.42	-0.98	24.15	-0.1804	0.0422	-0.492	
0.344894	-0.26779	0.829112	-72.66	-0.56	25.06	-0.1815	0.054	-0.4805	
0.341112	-0.289994	0.812276	-74.48	0.07	25.83	-0.1784	0.0667	-0.4928	
0.332938	-0.324398	0.785924	-76.65	-0.91	26.46	-0.1782	0.0725	-0.484	
0.321958	-0.388692	0.745298	-79.17	-2.38	26.81	-0.176	0.1049	-0.4925	
0.310002	-0.432368	0.72102	-80.01	-1.68	26.67	-0.1803	0.117	-0.4929	
0.306586	-0.461282	0.710406	-81.2	-0.14	27.37	-0.1737	0.1398	-0.4862	
0.304024	-0.488976	0.692594	-82.04	1.33	28.21	-0.1738	0.1383	-0.4876	
0.29341	-0.517646	0.672098	-83.16	1.96	29.33	-0.1747	0.161	-0.4809	
0.27023	-0.541924	0.630862	-82.88	2.45	30.59	-0.1657	0.1675	-0.487	
0.258274	-0.574132	0.610366	-82.88	3.36	31.85	-0.1713	0.181	-0.4845	
0.250954	-0.599996	0.595116	-83.16	6.3	32.55	-0.1621	0.1931	-0.4759	
0.241194	-0.612562	0.5612	-81.9	8.82	33.25	-0.1692	0.2082	-0.4735	
0.23851	-0.63196	0.551928	-83.58	10.57	33.46	-0.1673	0.2231	-0.4636	
0.228506	-0.645502	0.52765	-84.21	11.76	33.39	-0.164	0.2418	-0.4716	
0.211914	-0.666852	0.498126	-85.33	10.78	32.76	-0.1579	0.2449	-0.4702	
0.193736	-0.69723	0.45994	-87.01	9.59	31.99	-0.153	0.2632	-0.4648	
0.189222	-0.726876	0.444324	-86.52	10.92	31.15	-0.1453	0.2757	-0.4696	
0.17385	-0.75274	0.410774	-87.5	11.48	30.31	-0.142	0.2876	-0.4581	
0.162504	-0.777384	0.36661	-87.5	12.74	29.12	-0.1328	0.2967	-0.4494	
0.147132	-0.826916	0.338428	-87.36	11.48	27.3	-0.1248	0.3181	-0.4456	
0.123708	-0.868884	0.273158	-83.16	13.65	25.41	-0.1169	0.3362	-0.4568	
0.136884	-0.857538	0.224236	-85.12	28.91	27.02	-0.1196	0.3465	-0.4227	
0.052216	-0.92598	0.224236	-43.89	45.78	13.79	-0.1104	0.3606	-0.429	
0.101992	-0.899872	0.304878	-81.13	3.64	22.75	-0.1162	0.363	-0.4113	
0.058926	-0.95587	0.214354	-83.65	-0.84	22.68	-0.1011	0.3727	-0.419	
0.066612	-0.947208	0.189344	-72.52	8.4	22.75	-0.0948	0.3862	-0.406	
0.055022	-0.954162	0.195078	-68.04	6.44	22.12	-0.1005	0.3917	-0.3928	
0.036234	-0.966362	0.166652	-69.58	1.61	21.77	-0.0944	0.3964	-0.3915	
0.015982	-0.976	0.135664	-66.29	-1.82	20.51	-0.09429999	0.4023	-0.3857	
0.003904	-0.993568	0.12322	-61.32	-3.57	19.74	-0.0865	0.4162	-0.3846	
0.01159	-1.001254	0.123586	-62.93	-6.72	21	-0.0758	0.4286	-0.3835	
0.001708	-1.019066	0.105164	-58.31	-1.75	20.37	-0.0815	0.4357	-0.3719	
0.023912	-1.015162	0.099918	-57.68	-7.28	21.91	-0.083	0.4338	-0.3614	
0.021594	-1.021506	0.081984	-58.73	-9.66	21.98	-0.0784	0.4366	-0.3496	
0.002562	-1.03578	0.028182	-55.72	-9.31	19.67	-0.0753	0.4396	-0.3452	
-0.004148	-1.037976	0.02745	-56.84	-14.49	18.62	-0.0751	0.4455	-0.341	
-0.014884	-1.033584	0.010614	-50.19	-10.15	16.59	-0.069	0.4501	-0.3366	
-0.013054	-1.019432	0.002684	-43.61	-9.87	14.7	-0.0598	0.459	-0.3235	
-0.009881999	-1.017114	-0.01037	-41.51	-13.09	13.3	-0.0685	0.4677	-0.3164	
-0.017568	-1.030534	-0.0244	-38.01	-10.71	11.97	-0.0744	0.4672	-0.3046	
-0.015128	-1.030412	-0.022692	-35.77	-10.64	10.99	-0.0578	0.4769	-0.3092	
-0.00305	-1.010648	-0.0183	-30.66	-9.66	9.87	-0.0639	0.4721	-0.3076	
0.009272	-1.001498	-0.016836	-30.73	-8.4	9.45	-0.0653	0.4734	-0.3017	
0.008905999	-0.995642	-0.019764	-28.91	-2.03	8.75	-0.06659999	0.4792	-0.2915	
-0.022936	-0.993934	-0.037088	-22.82	3.22	6.72	-0.0621	0.4824	-0.2946	
-0.01403	-0.996252	-0.050508	-30.94	-6.09	8.82	-0.0591	0.481	-0.2945	
-0.019032	-1.008818	-0.064172	-26.18	-3.85	7.7	-0.0604	0.4866	-0.2799	
-0.016958	-1.001376	-0.07442	-25.06	-3.78	6.79	-0.0546	0.4805	-0.2766	
-0.013786	-1.010282	-0.084058	-23.59	-3.01	6.3	-0.0544	0.4899	-0.2844	
-0.020862	-1.02968	-0.086376	-21.91	-2.52	5.39	-0.0572	0.4941	-0.2741	
-0.027328	-1.03639	-0.09467199	-20.23	-2.03	4.48	-0.0497	0.4956	-0.2697	
-0.030012	-1.036756	-0.103212	-16.38	-0.14	3.22	-0.0588	0.4894	-0.271	
-0.030012	-1.026508	-0.115656	-15.47	-0.28	2.59	-0.0527	0.4907	-0.2621	
-0.028426	-1.015406	-0.125294	-14.42	-0.91	1.33	-0.051	0.498	-0.2505	
-0.027938	-1.00589	-0.128588	-11.76	-1.26	0.21	-0.0437	0.4956	-0.2652	
-0.028182	-1.003694	-0.129076	-13.86	-4.34	0	-0.057	0.5013	-0.2625	
-0.027206	-1.012356	-0.1342	-13.02	-5.32	-0.63	-0.0525	0.4996	-0.2535	
-0.017934	-1.00345	-0.13237	-11.48	-5.95	-1.54	-0.0512	0.4921	-0.2562	
-0.023546	-0.992592	-0.131028	-11.2	-6.65	-2.38	-0.057	0.4948	-0.2489	
-0.030866	-1.00833	-0.134932	-11.69	-6.23	-1.96	-0.054	0.4995	-0.252	
-0.026596	-1.014186	-0.14213	-11.97	-8.05	-0.98	-0.0525	0.4981	-0.2535	
-0.021838	-1.003084	-0.153598	-8.75	-7.21	-1.54	-0.0522	0.5103	-0.2524	
-0.017934	-1.008086	-0.156038	-8.75	-6.51	-1.47	-0.0553	0.5023	-0.2447	
-0.027206	-1.013454	-0.14884	-7.28	-6.44	-0.98	-0.0553	0.5055	-0.2478	
-0.02318	-1.020164	-0.143838	-5.95	-6.02	-0.21	-0.0584	0.4959	-0.2371	
-0.021228	-1.028826	-0.151768	-1.47	-3.01	0.21	-0.0538	0.5023	-0.2432	
-0.01159	-1.0126	-0.150914	1.33	-2.38	0.21	-0.0584	0.4959	-0.2386	
-0.008784	-1.011868	-0.150426	1.54	-2.31	-0.07	-0.057	0.493	-0.24	
-0.009272	-1.014918	-0.148352	3.22	-1.05	-0.42	-0.057	0.493	-0.24	
-0.003172	-1.011868	-0.15006	4.55	-0.42	-1.26	-0.057	0.4961	-0.2415	
-0.00061	-1.01016	-0.151524	5.11	0.28	-2.03	-0.0553	0.5055	-0.2478	
-0.00549	-1.024312	-0.146156	6.09	0.98	-2.8	-0.0599	0.4991	-0.2417	
-0.013542	-1.021262	-0.138714	9.31	2.17	-3.71	-0.057	0.4979	-0.252	
-0.016958	-1.022238	-0.150182	9.73	0.91	-3.78	-0.06439999	0.4976	-0.2461	
-0.020496	-1.019432	-0.147986	10.92	2.87	-3.92	-0.0539	0.4977	-0.2431	
-0.02318	-1.023092	-0.155306	15.33	4.9	-5.25	-0.06	0.4982	-0.2609	
-0.02074	-1.02724	-0.15189	15.82	4.34	-5.32	-0.0526	0.4902	-0.2473	
-0.024034	-1.037366	-0.140422	16.94	3.29	-5.74	-0.0585	0.4965	-0.2564	
-0.017446	-1.029192	-0.12383	17.92	-0.98	-5.39	-0.0572	0.4906	-0.2622	
-0.016226	-1.016992	-0.110654	22.75	2.17	-5.67	-0.0555	0.5046	-0.267	
-0.015494	-1.01809	-0.110288	22.26	2.31	-5.46	-0.066	0.4997	-0.2655	
-0.015982	-1.035292	-0.114924	25.69	0.35	-5.25	-0.0632	0.4923	-0.2697	
-0.011102	-1.0309	-0.107482	28.21	-1.05	-5.32	-0.0663	0.4893	-0.274	
-0.008784	-1.01931	-0.09357399	31.29	0.42	-5.95	-0.0557	0.4942	-0.2771	
-0.004636	-1.023702	-0.082106	30.38	-0.35	-6.37	-0.0651	0.479	-0.2856	
-0.008052	-1.029314	-0.07686	35.35	-1.12	-7.77	-0.0697	0.4729	-0.2869	
-0.010248	-1.02297	-0.069052	37.73	-2.1	-8.82	-0.068	0.4821	-0.2887	
0.003782	-1.019432	-0.05978	38.71	-0.77	-9.45	-0.0712	0.4765	-0.3048	
0.006588	-1.02297	-0.039284	40.53	-1.4	-10.71	-0.0728	0.4717	-0.3017	
0.014152	-1.030412	-0.021472	39.76	-2.17	-11.06	-0.07	0.4657	-0.303	
0.013786	-1.012844	-0.013298	45.64	-1.05	-11.83	-0.076	0.466	-0.3149	
0.010004	-1.010404	0.002196	44.03	-2.73	-12.04	-0.079	0.4661	-0.3194	
0.008417999	-1.01565	0.013176	42.77	-4.97	-12.53	-0.0761	0.4665	-0.3298	
0.01098	-1.025166	0.012322	42.28	-6.16	-12.95	-0.0838	0.4491	-0.3159	
0.01464	-1.02358	0.01769	48.86	-1.33	-14.98	-0.0838	0.4524	-0.3234	
0.02318	-1.011502	0.039528	50.12	-3.5	-16.17	-0.08419999	0.439	-0.3334	
0.022326	-1.032364	0.063928	52.78	-4.27	-19.04	-0.0931	0.4423	-0.3469	
0.027572	-1.026508	0.058804	62.65	3.22	-20.16	-0.101	0.4288	-0.3599	
0.01525	-1.029558	0.080154	61.11	-3.78	-19.67	-0.1009	0.4286	-0.354	
0.044042	-1.012722	0.109068	57.75	-14.07	-20.23	-0.107	0.424	-0.3583	
0.03294	-1.013576	0.133468	69.02	-1.47	-24.15	-0.1014	0.4122	-0.3412	
0.03965	-0.995886	0.133956	68.88	-1.89	-24.64	-0.1151	0.405	-0.3889	
0.041114	-1.00467	0.140544	72.03	-3.08	-25.9	-0.1212	0.397	-0.3828	
0.054168	-0.990762	0.148718	77	-6.37	-27.44	-0.123	0.3882	-0.3944	
0.06588	-0.986858	0.186294	74.97	-7.49	-27.37	-0.1188	0.3747	-0.3984	
0.082472	-0.95221	0.227774	82.04	-5.95	-27.72	-0.1292	0.3791	-0.4001	
0.096868	-0.924272	0.268278	84.49	-1.47	-28.49	-0.1191	0.3662	-0.4174	
0.095892	-0.895358	0.26596	88.55	-1.4	-29.12	-0.1255	0.3462	-0.4168	
0.105408	-0.863028	0.29097	84.77	-6.37	-27.58	-0.133	0.3446	-0.4198	
0.124684	-0.829112	0.329888	87.5	-5.67	-28.84	-0.1409	0.3246	-0.4221	
0.133346	-0.793	0.360266	90.09	-2.8	-30.03	-0.1397	0.3189	-0.4338	
0.15006	-0.759816	0.401258	84.77	-5.11	-30.1	-0.1443	0.3144	-0.4396	
0.179462	-0.708454	0.437736	79.94	-6.09	-30.52	-0.1526	0.2778	-0.4459	
0.20191	-0.668682	0.468724	79.8	-3.57	-31.36	-0.1616	0.2764	-0.4549	
0.223504	-0.640988	0.496296	78.82	-5.11	-32.76	-0.156	0.2615	-0.4618	
0.226188	-0.628788	0.513376	78.75	-6.3	-33.95	-0.168	0.2598	-0.4633	
0.24156	-0.608414	0.55083	77.21	-5.6	-34.79	-0.1702	0.2263	-0.4682	
0.253882	-0.586576	0.583648	77.63	-3.36	-35.42	-0.1688	0.2233	-0.468	
0.264984	-0.55937	0.596458	76.86	-3.78	-35.63	-0.1723	0.2019	-0.4718	
0.27816	-0.53009	0.624518	75.88	-2.8	-35.77	-0.1736	0.208	-0.472	
0.27999	-0.501664	0.647942	76.16	-1.82	-35.56	-0.1743	0.1793	-0.4815	
0.298778	-0.483364	0.66612	73.22	-3.36	-34.23	-0.176	0.1732	-0.4813	
0.322202	-0.449814	0.69418	73.08	-3.15	-33.53	-0.1929	0.1517	-0.4882	
0.33977	-0.410896	0.712968	73.85	-1.05	-33.25	-0.1842	0.1363	-0.4802	
0.356118	-0.385154	0.745908	71.26	1.61	-32.76	-0.186	0.1257	-0.4843	
0.348432	-0.367464	0.76372	69.93	1.47	-32.27	-0.1847	0.1134	-0.481	
0.345382	-0.361364	0.7869	67.69	0.42	-31.5	-0.1818	0.1136	-0.4839	
0.35258	-0.339282	0.800198	67.41	1.61	-30.31	-0.182	0.1028	-0.4806	
0.367586	-0.301706	0.812886	65.66	1.96	-29.05	-0.188	0.09649999	-0.4775	
0.370636	-0.283894	0.82655	61.74	0.14	-28.14	-0.1842	0.0741	-0.4901	
0.378688	-0.263886	0.847778	60.48	1.4	-27.02	-0.1858	0.063	-0.4808	
0.388448	-0.248392	0.85522	58.45	1.75	-25.62	-0.2011	0.0474	-0.4789	
0.388204	-0.230702	0.863394	57.4	2.17	-24.99	-0.1864	0.0387	-0.483	
0.387594	-0.215574	0.878644	55.23	2.38	-24.57	-0.1923	0.0399	-0.4786	
0.388326	-0.207644	0.889136	51.73	0.84	-23.52	-0.1852	0.0219	-0.481	
0.395158	-0.199714	0.898896	48.51	0.63	-22.4	-0.1856	0.0049	-0.4775	
0.395524	-0.18056	0.906094	47.53	2.24	-21.56	-0.1915	0.0079	-0.4791	
0.394182	-0.167018	0.908534	45.15	2.66	-20.44	-0.1782	0.0005	-0.4773	
0.38857	-0.158844	0.909388	44.52	2.52	-19.32	-0.186	-0.0134	-0.4739	
0.38613	-0.14884	0.904874	42.77	2.52	-18.27	-0.1786	-0.0179	-0.4722	
0.388814	-0.133468	0.911218	40.32	2.59	-17.29	-0.1788	-0.0302	-0.4689	
0.38918	-0.122244	0.915366	38.43	3.29	-16.31	-0.179	-0.0345	-0.4762	
0.394304	-0.11712	0.919026	35.77	3.01	-15.12	-0.1909	-0.0317	-0.4763	
0.388448	-0.109068	0.937204	32.76	2.31	-12.74	-0.1852	-0.047	-0.4713	
0.39772	-0.088206	0.936472	30.87	-0.98	-10.71	-0.1779	-0.0545	-0.4725	
0.413458	-0.069174	0.955504	28.42	1.12	-9.59	-0.1883	-0.0535	-0.4623	
0.430416	-0.039162	0.973072	24.08	-0.14	-8.12	-0.172	-0.0607	-0.4634	
0.440298	-0.027572	0.990762	19.04	-0.35	-6.86	-0.1765	-0.0642	-0.4529	
0.441762	-0.015494	0.995276	16.17	-1.33	-5.46	-0.181	-0.0657	-0.4588	
0.43676	-0.00366	0.997716	12.11	-1.54	-3.85	-0.1722	-0.0685	-0.4602	
0.441762	0.01525	1.005768	7.91	-1.4	-2.31	-0.1767	-0.0733	-0.4556	
0.447252	0.033428	1.005646	4.41	-1.33	-0.91	-0.1781	-0.0673	-0.4543	
0.45079	0.048556	1.009062	-0.98	-1.82	0.63	-0.1766	-0.0687	-0.4557	
0.448838	0.051362	1.008086	-5.18	-1.75	2.03	-0.1765	-0.064	-0.4589	
0.441152	0.046116	0.99735	-9.45	-2.38	3.5	-0.1752	-0.0685	-0.4602	
0.4392	0.038796	0.9943	-14.49	-2.38	5.25	-0.1753	-0.073	-0.463	
0.445178	0.022448	0.988688	-18.41	-2.17	6.86	-0.1781	-0.0687	-0.4587	
0.444812	0.015494	0.976366	-21.42	-1.4	8.47	-0.184	-0.0642	-0.4589	
0.44103	-0.002074	0.972218	-24.57	-0.63	9.38	-0.1853	-0.0581	-0.4591	
0.437004	-0.026962	0.967216	-30.52	-0.07	11.06	-0.1809	-0.0563	-0.4666	
0.430904	-0.046116	0.952942	-32.41	0.98	11.55	-0.1732	-0.0452	-0.4713	
0.429196	-0.063318	0.949038	-37.52	-0.35	12.81	-0.1821	-0.0457	-0.4639	
0.425658	-0.083936	0.948184	-40.32	0.63	13.72	-0.1821	-0.044	-0.4685	
0.416996	-0.11102	0.946964	-44.03	0.91	14.63	-0.179	-0.0395	-0.4641	
0.414068	-0.131516	0.942328	-47.18	1.33	16.31	-0.1894	-0.0349	-0.4732	
0.405406	-0.145546	0.929274	-49.07	2.52	17.71	-0.1772	-0.0174	-0.4841	
0.3965	-0.160064	0.916708	-52.22	3.08	19.11	-0.18	-0.0148	-0.4738	
0.390034	-0.178364	0.903288	-55.51	2.66	20.51	-0.1798	-0.0024	-0.4787	
0.38003	-0.203374	0.888404	-58.66	1.96	21.7	-0.1753	0.0007	-0.4802	
0.374418	-0.223626	0.874374	-60.62	1.82	23.1	-0.1839	0.0144	-0.4867	
0.36722	-0.246806	0.858636	-63.63	1.47	24.5	-0.1853	0.0173	-0.4823	
0.361242	-0.26413	0.847046	-65.24	1.61	25.48	-0.1775	0.0327	-0.4813	
0.353922	-0.28609	0.823988	-66.5	0.84	26.11	-0.1754	0.0649	-0.4838	
0.34892	-0.317444	0.80581	-69.16	0.14	26.88	-0.1831	0.0526	-0.4849	
0.32818	-0.360144	0.77165	-71.19	-0.56	27.58	-0.1752	0.0742	-0.487	
0.327326	-0.39284	0.762256	-72.87	-0.7	28.21	-0.185	0.0981	-0.479	
0.325496	-0.426512	0.743102	-72.87	-1.26	28.35	-0.1803	0.1139	-0.4928	
0.319884	-0.45384	0.722728	-72.52	-0.63	28.7	-0.1744	0.1109	-0.4882	
0.310856	-0.4758	0.706136	-72.66	0.98	28.98	-0.1786	0.1246	-0.4902	
0.30317	-0.499956	0.689422	-72.8	1.75	29.05	-0.1765	0.1507	-0.494	
0.289872	-0.524112	0.675636	-72.73	2.03	29.05	-0.1764	0.1566	-0.4867	
0.27572	-0.544852	0.659166	-73.15	3.08	29.05	-0.1702	0.1659	-0.487	
0.265716	-0.562176	0.64172	-73.78	3.78	29.4	-0.1655	0.1782	-0.4874	
0.255468	-0.583648	0.610122	-74.34	4.2	29.89	-0.1652	0.1837	-0.4697	
0.248148	-0.615978	0.598166	-76.65	4.27	30.87	-0.1648	0.2052	-0.4734	
0.23912	-0.63135	0.578646	-75.46	6.02	31.64	-0.163	0.2159	-0.4737	
0.24461	-0.638182	0.576084	-75.95	9.52	32.27	-0.1538	0.225	-0.465	
0.238022	-0.633546	0.562664	-77	11.48	32.55	-0.158	0.2371	-0.464	
0.232654	-0.631838	0.53375	-79.24	12.11	33.32	-0.1639	0.2414	-0.4582	
0.220454	-0.647698	0.513254	-82.46	11.2	33.11	-0.1529	0.2677	-0.4634	
0.192516	-0.69967	0.457134	-86.73	8.89	32.69	-0.1374	0.2923	-0.4567	
0.177266	-0.745664	0.416142	-89.04	7.35	31.71	-0.1343	0.2982	-0.4494	
0.1647	-0.780068	0.374662	-86.1	8.05	29.96	-0.1309	0.3134	-0.4455	
0.17019	-0.788974	0.352092	-81.55	10.78	28.28	-0.1352	0.3193	-0.4412	
0.13542	-0.814228	0.32208	-79.52	12.18	26.32	-0.1185	0.3298	-0.4251	
0.10309	-0.859978	0.307806	-77.84	11.06	24.5	-0.1182	0.3435	-0.4226	
0.089304	-0.866322	0.265594	-74.13	9.52	24.22	-0.1134	0.3541	-0.4184	
0.067222	-0.881328	0.249002	-70.77	8.26	23.87	-0.1163	0.3586	-0.4186	
0.052338	-0.894626	0.2318	-71.61	2.1	24.22	-0.1055	0.3739	-0.4101	
0.055144	-0.927688	0.19825	-73.29	-2.24	24.36	-0.1083	0.3781	-0.4014	
0.048922	-0.981124	0.178852	-72.8	-3.78	23.59	-0.1038	0.3812	-0.4014	
0.052948	-1.011746	0.15921	-69.44	-5.46	22.89	-0.08989999	0.3963	-0.3855	
0.049898	-1.024434	0.138836	-62.51	-2.52	21.49	-0.09869999	0.4069	-0.3889	
0.104432	-0.98515	0.106018	-59.15	-1.33	20.72	-0.0939	0.4124	-0.3667	
-0.054778	-1.13704	0.08845	-49.56	40.95	5.88	-0.0862	0.4264	-0.3701	
0.046604	-1.009062	0.1708	-60.13	-12.39	19.32	-0.0804	0.4207	-0.3773	
0.0244	-1.019798	0.068564	-43.68	-7.7	15.82	-0.0681	0.4326	-0.3598	
0.02562	-1.00223	0.07198	-44.73	-5.95	15.33	-0.0742	0.4261	-0.3522	
0.018666	-0.997228	0.082838	-42.77	-5.18	14.21	-0.0814	0.4334	-0.3466	
0.021594	-0.978196	0.074664	-44.1	-4.55	14	-0.0782	0.4457	-0.3499	
0.007076	-0.978074	0.06588	-43.19	-5.46	13.86	-0.0825	0.4465	-0.3307	
0.009881999	-0.974048	0.055632	-47.95	-9.24	15.33	-0.0856	0.4437	-0.3395	
0.007564	-0.988566	0.031232	-46.76	-8.47	15.05	-0.0778	0.4572	-0.328	
0.013786	-0.994178	0.011834	-46.34	-6.79	14.77	-0.06879999	0.4557	-0.3205	
0.006588	-1.000888	-0.005856	-44.59	-3.64	13.86	-0.0716	0.4614	-0.3118	
0.005246	-1.00772	-0.016836	-40.88	-5.74	12.67	-0.0729	0.469	-0.3105	
-0.00671	-1.028826	-0.029768	-40.32	-5.32	11.27	-0.0548	0.4786	-0.3107	
-0.0122	-1.053104	-0.042822	-38.15	0.28	10.08	-0.0684	0.469	-0.3075	
-0.019398	-1.05774	-0.049776	-26.74	-0.56	8.33	-0.0594	0.4706	-0.3031	
-0.012322	-1.059814	-0.040992	-28	-4.13	8.33	-0.0653	0.4749	-0.3003	
-0.012688	-1.051884	-0.043798	-20.44	-2.1	6.93	-0.06659999	0.4824	-0.2976	
-0.007564	-1.042246	-0.045384	-15.82	-1.68	5.88	-0.0577	0.4745	-0.2839	
-0.002318	-1.022848	-0.048922	-13.44	-1.33	5.25	-0.0589	0.4914	-0.2874	
-0.01281	-1.022482	-0.047092	-11.97	-0.7	4.9	-0.0667	0.4727	-0.2809	
-0.012932	-1.01931	-0.053436	-11.41	-1.68	5.39	-0.0634	0.49	-0.2948	
-0.01403	-1.012478	-0.05795	-9.87	-2.1	5.53	-0.0634	0.4864	-0.2784	
-0.016958	-0.987712	-0.064416	-7.14	-2.17	5.11	-0.0605	0.4869	-0.2888	
-0.01159	-0.99064	-0.072712	-8.19	-2.73	4.69	-0.0528	0.4928	-0.2785	
-0.008296	-0.987224	-0.073444	-7.07	-3.29	4.13	-0.0484	0.49	-0.2843	
-0.009272	-0.986614	-0.072834	-7.56	-4.55	3.43	-0.0618	0.4879	-0.274	
-0.007564	-0.992592	-0.073688	-7.56	-4.76	3.22	-0.0544	0.4832	-0.2649	
-0.016592	-1.009062	-0.074786	-8.61	-4.83	3.15	-0.0485	0.4836	-0.2737	
-0.022692	-1.016992	-0.079544	-7.21	-4.06	3.08	-0.0591	0.4791	-0.2826	
-0.024766	-1.016748	-0.08174	-7.07	-3.5	3.08	-0.056	0.48	-0.2633	
-0.027206	-1.022116	-0.095892	-6.3	-3.29	2.73	-0.0514	0.488	-0.2724	
-0.0305	-1.03456	-0.10675	-6.09	-3.15	2.1	-0.0526	0.497	-0.2668	
-0.02928	-1.026996	-0.100894	-2.24	-2.45	1.47	-0.0513	0.4893	-0.2636	
-0.02562	-1.01687	-0.097356	-1.82	-2.87	1.05	-0.0467	0.4907	-0.2576	
-0.030134	-1.027362	-0.1037	-2.03	-2.52	0.49	-0.0599	0.5028	-0.264	
-0.030134	-1.017236	-0.107604	1.26	-2.59	0.07	-0.0601	0.4954	-0.2697	
-0.02928	-1.01443	-0.101138	2.59	-2.87	-0.49	-0.0587	0.4907	-0.2666	
-0.021472	-1.006134	-0.096014	4.41	-2.24	-0.91	-0.0557	0.494	-0.2697	
-0.015006	-0.999058	-0.09272	4.62	-2.24	-0.91	-0.0526	0.4986	-0.2698	
-0.005978	-0.997716	-0.08601	3.5	-2.73	-0.56	-0.0498	0.4912	-0.274	
-0.008052	-1.001864	-0.078446	3.08	-3.08	-0.63	-0.0572	0.4921	-0.2607	
-0.013176	-1.00345	-0.07991	4.2	-2.31	-0.84	-0.0513	0.4892	-0.2621	
-0.019886	-1.005646	-0.089548	5.25	-1.47	-1.33	-0.0676	0.492	-0.2652	
-0.015982	-1.019188	-0.09857599	4.2	-1.96	-1.61	-0.0679	0.4832	-0.2768	
-0.016836	-1.02175	-0.094916	8.26	-0.7	-2.87	-0.0497	0.494	-0.2681	
-0.017934	-1.036268	-0.08723	7.63	-0.84	-3.5	-0.0557	0.4956	-0.2727	
-0.014274	-1.031266	-0.08235	11.06	-0.14	-4.27	-0.0557	0.4923	-0.2652	
-0.017812	-1.039684	-0.07905599	11.34	0.77	-4.69	-0.0632	0.4923	-0.2712	
-0.019642	-1.039562	-0.08113	14.14	1.47	-5.18	-0.0527	0.4958	-0.2756	
-0.013786	-1.027606	-0.073322	17.29	1.68	-5.6	-0.0604	0.483	-0.2634	
-0.016958	-1.02114	-0.06466	19.11	2.1	-6.3	-0.0606	0.4774	-0.2796	
-0.021228	-1.019798	-0.06222	20.44	2.66	-6.58	-0.0605	0.4837	-0.2857	
-0.02806	-1.024434	-0.057218	21.28	2.1	-6.72	-0.068	0.482	-0.2857	
-0.013054	-1.020286	-0.052216	20.86	-4.06	-5.81	-0.0547	0.4747	-0.2854	
-0.013298	-1.018456	-0.041358	25.48	-0.35	-6.58	-0.0651	0.4806	-0.2886	
-0.008784	-1.018334	-0.03294	25.76	1.26	-7.28	-0.0712	0.4731	-0.2958	
-0.008417999	-1.01626	-0.02623	27.37	1.12	-7.77	-0.0756	0.4775	-0.293	
-0.008905999	-1.015528	-0.019154	29.47	-0.98	-8.4	-0.0684	0.4705	-0.3061	
0.000732	-1.014674	-0.0061	28.28	-4.2	-8.4	-0.0699	0.469	-0.309	
0.0061	-1.013576	0.00549	31.64	-1.61	-9.38	-0.064	0.4658	-0.3	
0.004026	-1.020652	0.012688	32.62	-0.21	-10.36	-0.0729	0.4721	-0.3136	
0.006344	-1.028338	0.018666	30.17	-4.06	-10.64	-0.07759999	0.4615	-0.3192	
0.00732	-1.031876	0.02501	33.81	-0.84	-11.83	-0.0672	0.4585	-0.3131	
0.015616	-1.023702	0.03416	34.23	-1.82	-12.32	-0.0779	0.4494	-0.3218	
0.013908	-1.026142	0.043432	36.82	-2.03	-13.51	-0.0749	0.4527	-0.3278	
0.021472	-1.028704	0.053558	37.03	-3.01	-13.93	-0.0941	0.4601	-0.3341	
0.019886	-1.021628	0.063806	42.63	0.28	-14.07	-0.0931	0.4418	-0.3336	
0.02806	-1.02114	0.083326	38.85	-0.63	-13.23	-0.0901	0.4438	-0.344	
0.030988	-1.009672	0.088694	43.12	-1.05	-13.09	-0.08899999	0.4253	-0.3389	
0.038674	-0.999668	0.106506	42.21	-2.1	-13.23	-0.0891	0.4242	-0.3508	
0.044286	-0.985516	0.128222	44.45	-2.45	-13.58	-0.095	0.429	-0.3628	
0.051362	-0.986248	0.150304	41.72	-3.08	-13.65	-0.0935	0.4303	-0.3554	
0.05429	-0.986126	0.16409	41.65	-2.24	-13.72	-0.1027	0.4182	-0.3384	
0.059414	-0.97966	0.177266	42.84	-0.98	-13.65	-0.1102	0.4198	-0.373	
0.06466	-0.970632	0.19886	43.33	-0.91	-13.16	-0.1029	0.4122	-0.3668	
0.076372	-0.958798	0.232044	43.89	0.42	-12.32	-0.1092	0.4018	-0.3799	
0.089426	-0.93757	0.270962	43.4	1.4	-11.55	-0.1062	0.4021	-0.3617	
0.111752	-0.912438	0.30561	40.74	2.45	-10.78	-0.1124	0.3897	-0.3869	
0.109678	-0.88145	0.31293	39.06	3.43	-10.01	-0.1138	0.399	-0.3917	
0.105408	-0.866932	0.318664	34.16	0.42	-8.47	-0.1097	0.3826	-0.4	
0.114436	-0.852536	0.339038	31.08	-0.7	-8.54	-0.1155	0.3901	-0.4003	
0.12261	-0.840946	0.355508	28.35	-3.08	-9.8	-0.1189	0.375	-0.4073	
0.127124	-0.833626	0.357704	25.9	-4.41	-10.36	-0.1205	0.3688	-0.4041	
0.131028	-0.849852	0.378932	26.46	-3.01	-11.34	-0.1189	0.3718	-0.4042	
0.141276	-0.846192	0.407602	27.09	-2.24	-11.62	-0.125	0.3738	-0.4221	
0.147742	-0.821548	0.405528	30.66	0.21	-12.39	-0.1206	0.3612	-0.4054	
0.158844	-0.793732	0.42151	30.38	-1.19	-12.32	-0.1177	0.3599	-0.3856	
0.168482	-0.797514	0.435906	28.28	-1.75	-12.81	-0.1192	0.3617	-0.4202	
0.174948	-0.778726	0.442982	31.43	-1.05	-13.02	-0.1344	0.3521	-0.4185	
0.178486	-0.766038	0.457866	29.75	-0.91	-13.37	-0.1302	0.3418	-0.4256	
0.181902	-0.752984	0.475922	27.72	-0.21	-12.95	-0.1273	0.3375	-0.4343	
0.194346	-0.74847	0.481168	25.41	-0.35	-12.6	-0.1243	0.3359	-0.4283	
0.208376	-0.753594	0.499346	22.19	-0.07	-12.11	-0.1244	0.3312	-0.4237	
0.21838	-0.7503	0.521306	20.23	0.28	-11.83	-0.1273	0.3374	-0.4299	
0.220332	-0.745542	0.531554	18.69	1.05	-12.04	-0.1289	0.3297	-0.4282	
0.219112	-0.745054	0.537288	15.47	1.68	-11.9	-0.1307	0.3225	-0.4443	
0.217648	-0.758962	0.54595	12.39	1.26	-11.2	-0.1366	0.3253	-0.4384	
0.223748	-0.765306	0.551074	11.34	2.24	-10.15	-0.1367	0.3207	-0.4398	
0.231068	-0.767624	0.552538	10.29	1.75	-9.1	-0.1336	0.3221	-0.4339	
0.235948	-0.766892	0.552416	9.87	1.75	-8.4	-0.1366	0.3218	-0.4265	
0.241316	-0.765794	0.551562	8.75	2.38	-7.42	-0.1396	0.3236	-0.4369	
0.24583	-0.762134	0.546926	7.42	3.71	-6.16	-0.1474	0.3083	-0.4395	
0.2501	-0.765428	0.552538	5.46	4.97	-5.11	-0.1414	0.3084	-0.4379	
0.248026	-0.772016	0.548024	3.64	5.53	-4.06	-0.1382	0.3159	-0.4322	
0.244122	-0.77653	0.543632	2.59	5.88	-2.59	-0.1353	0.3147	-0.4426	
0.24583	-0.78446	0.533872	1.96	6.09	-0.98	-0.1354	0.3132	-0.4425	
0.244854	-0.794464	0.526918	0.91	6.02	0.56	-0.1324	0.3117	-0.4395	
0.24644	-0.800442	0.513742	0.84	6.09	2.1	-0.1338	0.3131	-0.4366	
0.25254	-0.808128	0.509106	0.07	6.51	3.78	-0.1414	0.3132	-0.4455	
0.255346	-0.816546	0.50447	-0.28	6.86	5.18	-0.1397	0.3158	-0.4307	
0.250466	-0.827038	0.493368	0.28	7.91	7.49	-0.1457	0.3176	-0.4427	
0.242048	-0.832284	0.489708	0.14	8.75	9.38	-0.1354	0.3134	-0.4485	
0.23241	-0.840946	0.475068	0.21	9.87	11.55	-0.1263	0.318	-0.4426	
0.231678	-0.84485	0.470798	0.98	9.8	13.65	-0.1337	0.3241	-0.4488	
0.236314	-0.854366	0.458964	1.82	9.87	15.26	-0.1189	0.3183	-0.4455	
0.228628	-0.850828	0.464088	5.04	13.09	16.52	-0.1158	0.3229	-0.4442	
0.224724	-0.85034	0.46055	4.41	13.79	18.62	-0.1129	0.32	-0.4485	
0.217526	-0.85461	0.461404	5.53	14.28	20.58	-0.1117	0.3078	-0.4466	
0.212646	-0.858148	0.45811	6.23	15.19	22.61	-0.1158	0.3214	-0.4471	
0.202764	-0.85766	0.464454	7.84	16.38	24.71	-0.0995	0.3172	-0.4454	
0.192516	-0.862906	0.465552	10.15	18.55	26.81	-0.1055	0.3203	-0.4514	
0.182268	-0.866566	0.46299	10.36	18.9	28.91	-0.0862	0.3164	-0.4586	
0.16775	-0.866566	0.465918	12.53	21.21	30.94	-0.08	0.3271	-0.4559	
0.14457	-0.859246	0.472506	14.77	23.03	33.39	-0.0832	0.3196	-0.4375	
0.110166	-0.859246	0.480314	16.94	25.13	35.7	-0.0743	0.3199	-0.4661	
0.08601	-0.865224	0.499468	16.24	25.2	38.36	-0.0699	0.3139	-0.4643	
0.052094	-0.854122	0.509716	18.97	27.09	42.07	-0.0682	0.3214	-0.4601	
0.041236	-0.852902	0.508618	18.97	27.3	43.33	-0.0579	0.3172	-0.4644	
0.013054	-0.835212	0.508862	19.95	27.72	46.62	-0.0459	0.3222	-0.4704	
-0.022692	-0.836676	0.513986	21.49	28.84	47.74	-0.0384	0.3256	-0.4749	
-0.061976	-0.84485	0.52399	21.98	29.75	48.72	-0.0282	0.3134	-0.4685	
-0.08601	-0.83753	0.522404	26.11	30.03	49.56	-0.0222	0.3202	-0.485	
-0.095892	-0.80276	0.525698	28.56	29.89	50.4	-0.0045	0.3128	-0.4787	
-0.106018	-0.792878	0.538264	28.35	28.42	50.89	0.0029	0.3163	-0.4877	
-0.132614	-0.77592	0.524356	29.89	27.44	51.31	-0.0002	0.3055	-0.4873	
-0.163968	-0.759328	0.540704	29.75	28.21	51.52	0.0249	0.3	-0.487	
-0.204716	-0.750666	0.556808	29.61	29.19	50.05	0.0174	0.2983	-0.487	
-0.227164	-0.755912	0.55998	28.7	27.3	48.93	0.0262	0.294	-0.4898	
-0.233996	-0.724436	0.560712	31.36	25.55	48.23	0.0411	0.2977	-0.5002	
-0.243512	-0.681492	0.555344	33.46	25.55	46.97	0.0485	0.2901	-0.4969	
-0.259128	-0.671488	0.556198	31.92	26.04	45.36	0.0542	0.283	-0.5085	
-0.263398	-0.640988	0.587552	32.34	28.07	42.98	0.066	0.2787	-0.5083	
-0.281576	-0.65514	0.602192	31.57	26.88	40.6	0.0706	0.28	-0.4994	
-0.30012	-0.654164	0.618418	33.04	27.79	38.85	0.0746	0.262	-0.5047	
-0.322934	-0.64843	0.622932	33.6	28	37.24	0.0806	0.2637	-0.5077	
-0.346236	-0.64599	0.618052	33.18	25.76	36.96	0.0863	0.2533	-0.5103	
-0.37454	-0.629886	0.630496	34.51	27.23	36.33	0.0863	0.2548	-0.5089	
-0.390766	-0.628422	0.6405	32.27	26.46	35.98	0.1026	0.2459	-0.507	
-0.377956	-0.601094	0.649894	31.5	24.43	35.49	0.1039	0.2415	-0.5128	
-0.385642	-0.580354	0.65575	29.4	23.17	34.23	0.1159	0.2434	-0.5157	
-0.423706	-0.584014	0.664412	26.81	22.19	32.69	0.1098	0.2353	-0.5051	
-0.445544	-0.580232	0.648308	26.74	21.21	31.01	0.1245	0.2315	-0.5182	
-0.450302	-0.56059	0.654408	27.02	19.95	29.89	0.1199	0.2251	-0.5121	
-0.457378	-0.546926	0.660874	26.39	18.06	28.28	0.1259	0.2255	-0.5195	
-0.474214	-0.535214	0.669536	25.62	17.36	26.53	0.139	0.2121	-0.5205	
-0.497272	-0.527772	0.676124	24.08	15.68	25.27	0.1405	0.212	-0.519	
-0.523014	-0.516304	0.66612	24.01	14.77	24.22	0.1525	0.2154	-0.519	
-0.559248	-0.499956	0.668072	24.36	12.04	22.96	0.1463	0.2062	-0.5217	
-0.580354	-0.491538	0.67222	24.29	10.15	22.54	0.155	0.194	-0.5168	
-0.589992	-0.477874	0.671976	23.31	5.67	22.75	0.1518	0.1865	-0.5225	
-0.59109	-0.454816	0.672586	23.31	2.24	23.31	0.1399	0.188	-0.5316	
-0.579012	-0.433954	0.689544	20.65	-1.33	23.45	0.1532	0.1787	-0.5178	
-0.556808	-0.408944	0.707844	18.48	-3.01	22.12	0.153	0.1743	-0.5221	
-0.545218	-0.388082	0.719556	17.08	-3.29	20.16	0.1591	0.1788	-0.5163	
-0.554734	-0.375882	0.727608	14.49	-5.18	19.18	0.1498	0.1636	-0.5233	
-0.553636	-0.373198	0.73139	13.23	-6.3	18.69	0.1498	0.1635	-0.5203	
-0.556564	-0.367342	0.731268	11.83	-7.84	18.34	0.1471	0.1759	-0.5297	
-0.554124	-0.370392	0.733586	9.45	-8.82	18.06	0.1453	0.1635	-0.5233	
-0.547902	-0.368684	0.734806	7.56	-9.94	18.06	0.15	0.1713	-0.528	
-0.548268	-0.383934	0.731756	4.97	-12.32	18.13	0.1513	0.1621	-0.5247	
-0.537776	-0.387594	0.739808	4.55	-12.46	18.2	0.1453	0.1605	-0.5247	
-0.52704	-0.38918	0.74237	3.64	-11.69	18.27	0.1496	0.156	-0.5245	
-0.532286	-0.391864	0.748714	3.22	-11.97	18.13	0.1423	0.1588	-0.5232	
-0.529602	-0.399062	0.749812	2.87	-12.46	17.78	0.1425	0.168	-0.525	
-0.510326	-0.387472	0.756644	3.29	-10.92	16.73	0.1436	0.1561	-0.5335	
-0.511058	-0.378932	0.761402	3.08	-9.38	15.05	0.1406	0.1514	-0.5304	
-0.517646	-0.371368	0.766282	2.8	-8.82	13.3	0.1465	0.15	-0.5318	
-0.516426	-0.369172	0.769332	2.24	-8.82	11.97	0.1316	0.1512	-0.5305	
-0.513864	-0.364536	0.773358	2.73	-9.8	10.64	0.1303	0.1553	-0.5187	
-0.51728	-0.371734	0.767868	1.82	-10.36	8.82	0.1377	0.1574	-0.5291	
-0.510814	-0.370392	0.775432	1.19	-9.45	6.58	0.1374	0.1438	-0.5331	
-0.5124	-0.35929	0.774578	0.56	-8.19	4.34	0.1269	0.1387	-0.5241	
-0.51362	-0.356484	0.777628	-0.63	-7.7	2.31	0.13	0.1435	-0.5287	
-0.50569	-0.360876	0.775066	-1.82	-7.84	0.35	0.1301	0.1478	-0.5229	
-0.507886	-0.360144	0.76921	-2.17	-6.93	-1.75	0.1213	0.1555	-0.5307	
-0.517158	-0.364536	0.767502	-2.8	-6.09	-3.78	0.1331	0.1529	-0.5364	
-0.51545	-0.362828	0.77653	-2.1	-4.97	-5.11	0.127	0.1448	-0.5258	
-0.520818	-0.365146	0.775432	-3.29	-4.62	-6.51	0.1314	0.1438	-0.5376	
-0.521916	-0.356606	0.762988	-4.41	-5.04	-8.75	0.1226	0.1511	-0.535	
-0.51667	-0.353922	0.778604	-5.95	-4.06	-10.36	0.1258	0.1556	-0.5292	
-0.514962	-0.360022	0.778116	-7.07	-4.27	-11.97	0.1214	0.1633	-0.5339	
-0.506422	-0.35136	0.778604	-7.49	-4.41	-13.65	0.124	0.1433	-0.5273	
-0.514352	-0.360388	0.78446	-10.57	-3.43	-15.75	0.1199	0.1618	-0.5368	
-0.516304	-0.3599	0.788242	-11.83	-4.06	-17.29	0.1302	0.156	-0.5395	
-0.509472	-0.359412	0.78934	-13.79	-4.34	-18.83	0.1198	0.1587	-0.5337	
-0.51179	-0.361974	0.784094	-16.1	-5.39	-20.72	0.1109	0.1616	-0.5354	
-0.507642	-0.368318	0.767624	-17.71	-7.07	-22.68	0.1201	0.174	-0.5372	
-0.495076	-0.378322	0.771772	-19.53	-7.07	-24.85	0.1158	0.1752	-0.5284	
-0.488122	-0.386374	0.779336	-21.35	-7.21	-26.6	0.1037	0.1705	-0.5327	
-0.486292	-0.39345	0.773236	-23.52	-7.98	-27.65	0.1143	0.1782	-0.5285	
-0.48312	-0.412116	0.76738	-26.25	-9.8	-28.42	0.1085	0.1842	-0.5287	
-0.48434	-0.425048	0.75396	-28.14	-10.78	-29.4	0.1025	0.1841	-0.5302	
-0.476898	-0.433222	0.745176	-29.68	-11.48	-29.96	0.1014	0.2009	-0.5308	
-0.467992	-0.442982	0.737246	-32.06	-12.67	-30.94	0.0985	0.1989	-0.5189	
-0.444446	-0.476898	0.725656	-34.02	-15.61	-32.27	0.1016	0.2066	-0.5206	
-0.435296	-0.502152	0.714798	-34.3	-15.75	-33.46	0.1004	0.2205	-0.524	
-0.41419	-0.506544	0.710528	-34.86	-16.17	-34.3	0.087	0.2218	-0.5286	
-0.403454	-0.521916	0.709674	-36.61	-15.96	-35.49	0.0841	0.2247	-0.5257	
-0.40626	-0.54351	0.693936	-36.82	-17.22	-36.33	0.0782	0.2292	-0.5259	
-0.393328	-0.56791	0.676002	-36.96	-18.9	-36.61	0.0769	0.2351	-0.5202	
-0.36966	-0.576572	0.67039	-36.61	-18.83	-37.52	0.07099999	0.238	-0.5203	
-0.344772	-0.586332	0.65941	-37.52	-20.09	-39.06	0.0711	0.2442	-0.522	
-0.330864	-0.593896	0.651602	-38.64	-19.18	-40.67	0.0549	0.2529	-0.5209	
-0.321714	-0.61915	0.643794	-40.04	-19.74	-42.49	0.0522	0.2585	-0.5062	
-0.30988	-0.632448	0.634522	-38.99	-18.9	-43.96	0.0403	0.2646	-0.5154	
-0.294386	-0.64111	0.62037	-39.9	-18.9	-44.94	0.0463	0.2661	-0.5095	
-0.285724	-0.64965	0.60756	-40.46	-18.69	-45.78	0.0495	0.2704	-0.5007	
-0.266082	-0.657946	0.596458	-41.02	-18.2	-46.9	0.0362	0.278	-0.5085	
-0.245464	-0.667706	0.584746	-42.28	-16.8	-47.95	0.0287	0.2763	-0.507	
-0.214598	-0.688934	0.575962	-42.77	-15.82	-49.42	0.0142	0.2909	-0.4957	
-0.199836	-0.724436	0.570594	-45.08	-16.66	-49.63	0.0098	0.2922	-0.4928	
-0.168238	-0.74969	0.555222	-43.54	-16.87	-49.98	0.0012	0.3089	-0.4949	
-0.14823	-0.770918	0.542412	-43.82	-18.9	-49.07	-0.0094	0.2945	-0.4826	
-0.12322	-0.802516	0.521062	-44.73	-21.07	-48.58	-0.0045	0.3129	-0.4817	
-0.08113	-0.820816	0.50935	-41.44	-22.75	-49.63	-0.0134	0.3109	-0.4742	
-0.033184	-0.811178	0.498004	-39.27	-27.79	-50.26	-0.0193	0.3119	-0.461	
0.030622	-0.796294	0.461282	-40.74	-25.48	-51.38	-0.0308	0.3334	-0.4736	
0.023546	-0.800198	0.456768	-36.05	-19.95	-52.01	-0.0341	0.3196	-0.4732	
0.025254	-0.852414	0.443226	-40.81	-26.6	-51.73	-0.0457	0.3328	-0.4648	
0.027572	-0.881084	0.43432	-36.26	-24.92	-51.8	-0.0503	0.3265	-0.4631	
0.072102	-0.859124	0.411262	-32.97	-27.02	-50.89	-0.0635	0.3368	-0.4621	
0.099186	-0.840946	0.400404	-31.64	-28	-50.54	-0.0663	0.3411	-0.4548	
0.113704	-0.843142	0.385398	-32.27	-30.52	-50.61	-0.0859	0.3299	-0.4516	
0.15677	-0.8479	0.385886	-31.71	-31.71	-50.61	-0.0827	0.3372	-0.4385	
0.206302	-0.850706	0.398818	-30.17	-31.57	-51.03	-0.099	0.3398	-0.4387	
0.229116	-0.86803	0.395036	-26.74	-31.78	-54.18	-0.1064	0.341	-0.4313	
0.25559	-0.88999	0.375272	-25.76	-33.11	-52.99	-0.1169	0.3379	-0.4372	
0.311344	-0.90951	0.381738	-26.25	-32.06	-49.14	-0.1182	0.3451	-0.4271	
0.346114	-0.9089	0.384666	-23.59	-28.63	-45.43	-0.1317	0.3336	-0.4105	
0.351116	-0.91744	0.3843	-23.45	-26.46	-41.72	-0.142	0.3412	-0.4153	
0.337208	-0.916098	0.360388	-22.05	-24.36	-35.63	-0.1497	0.3319	-0.4165	
0.33733	-0.926468	0.34709	-22.4	-21.77	-28.42	-0.1616	0.3313	-0.4076	
0.329644	-0.930982	0.331596	-19.74	-18.27	-22.61	-0.1615	0.3313	-0.4062	
0.327936	-0.931714	0.316224	-16.87	-16.03	-18.34	-0.1568	0.3404	-0.402	
0.321836	-0.920734	0.30805	-12.95	-13.86	-15.4	-0.1598	0.3401	-0.3946	
0.31781	-0.892796	0.297924	-8.26	-12.6	-13.16	-0.1734	0.3338	-0.3989	
0.324764	-0.88023	0.313296	-6.58	-10.92	-11.62	-0.1732	0.3396	-0.3902	
0.316712	-0.86864	0.339526	-6.23	-10.08	-10.78	-0.1719	0.3305	-0.3914	
0.300974	-0.854	0.351848	-4.83	-9.94	-11.76	-0.1791	0.343	-0.4022	
0.280722	-0.84973	0.35929	-6.65	-12.74	-12.81	-0.1792	0.3364	-0.3886	
0.275232	-0.855464	0.345626	-7.49	-14	-15.12	-0.1704	0.3304	-0.3854	
0.273646	-0.86559	0.351238	-8.68	-13.44	-17.71	-0.1777	0.3363	-0.3857	
0.269498	-0.859124	0.350506	-9.1	-12.6	-20.86	-0.1926	0.3359	-0.3828	
0.258274	-0.856562	0.341966	-9.17	-12.39	-23.8	-0.1896	0.3375	-0.3828	
0.243878	-0.864248	0.343064	-8.82	-11.27	-26.18	-0.197	0.3372	-0.3799	
0.236436	-0.868762	0.342576	-7.98	-10.29	-27.79	-0.1958	0.3235	-0.3779	
0.235216	-0.86071	0.332206	-5.32	-10.71	-29.33	-0.2073	0.3415	-0.3771	
0.235338	-0.852536	0.338306	-3.92	-11.69	-31.22	-0.2151	0.3261	-0.3797	
0.237412	-0.847656	0.332206	-4.27	-13.65	-32.69	-0.2212	0.3197	-0.3735	
0.25864	-0.841068	0.325008	-4.62	-16.8	-33.74	-0.2182	0.3213	-0.3751	
0.286944	-0.837042	0.331962	-4.97	-19.25	-35.14	-0.2272	0.3213	-0.3811	
0.315858	-0.826794	0.323056	-4.06	-21.77	-37.17	-0.2361	0.3195	-0.3766	
0.355386	-0.821426	0.321836	-5.11	-23.8	-39.27	-0.2393	0.3117	-0.3749	
0.381372	-0.807518	0.307318	-3.01	-25.97	-41.65	-0.2406	0.3161	-0.3706	
0.402478	-0.80215	0.288896	-3.08	-28.84	-44.38	-0.2425	0.2976	-0.3656	
0.42212	-0.805078	0.2867	-6.3	-33.04	-46.34	-0.2469	0.294	-0.3521	
0.443348	-0.79056	0.251076	-5.04	-36.82	-49.49	-0.2543	0.2969	-0.3538	
0.46421	-0.77958	0.229604	-8.19	-40.53	-51.66	-0.2663	0.292	-0.3507	
0.490074	-0.770064	0.211304	-7.7	-42.42	-53.55	-0.28	0.2825	-0.349	
0.515206	-0.767868	0.208132	-9.45	-44.59	-55.58	-0.2815	0.2808	-0.346	
0.538996	-0.758474	0.191906	-7.21	-44.38	-57.19	-0.2903	0.285	-0.3403	
0.559858	-0.739564	0.174582	-6.37	-43.61	-58.8	-0.31	0.2642	-0.3249	
0.604266	-0.729804	0.15189	-8.75	-43.68	-59.43	-0.3071	0.2612	-0.3248	
0.62891	-0.700158	0.141398	-4.97	-42.98	-60.9	-0.3191	0.2532	-0.3201	
0.631716	-0.662338	0.130662	-5.6	-41.65	-62.23	-0.3221	0.2511	-0.3067	
0.639158	-0.63806	0.108946	-7.63	-39.83	-61.81	-0.3329	0.2323	-0.2973	
0.666852	-0.641354	0.087718	-10.92	-38.92	-61.32	-0.3389	0.226	-0.2957	
0.683322	-0.654042	0.085034	-10.57	-40.95	-61.04	-0.3479	0.2273	-0.2958	
0.719922	-0.673196	0.066978	-22.12	-49.49	-56.77	-0.3421	0.2182	-0.2925	
0.74664	-0.66307	0.0488	-15.47	-50.82	-55.3	-0.366	0.2095	-0.2775	
0.831796	-0.641354	0.027572	-36.12	-51.17	-52.08	-0.3616	0.2032	-0.2698	
0.815204	-0.586088	0.085522	-7.7	-41.09	-57.19	-0.3783	0.1872	-0.2576	
0.834968	-0.591944	0.076738	-11.06	-38.15	-56.84	-0.3889	0.1794	-0.2589	
0.867054	-0.574864	0.06832	-18.41	-37.8	-54.04	-0.398	0.1696	-0.2709	
0.867786	-0.569862	0.05063	-10.29	-38.5	-53.83	-0.3921	0.1601	-0.2331	
0.889136	-0.549976	0.034526	-11.62	-34.37	-51.87	-0.3952	0.1537	-0.2269	
0.860954	-0.564372	0.023546	-0.63	-29.54	-53.76	-0.4058	0.1459	-0.2268	
0.86803	-0.57218	0.020374	-8.68	-31.71	-49.35	-0.403	0.1365	-0.2175	
0.862906	-0.554978	0.013054	-2.17	-29.4	-46.2	-0.4106	0.1302	-0.2174	
0.880108	-0.51118	-0.014396	-0.21	-26.46	-41.79	-0.4152	0.1241	-0.2202	
0.91256	-0.48312	-0.046482	-3.29	-28.77	-38.5	-0.4211	0.1203	-0.2008	
0.88938	-0.546926	0.055876	1.75	-27.3	-38.85	-0.4227	0.1125	-0.1976	
0.968192	-0.479704	-0.02196	5.39	-20.23	-33.39	-0.4168	0.1126	-0.1961	
0.969412	-0.486902	-0.046848	-2.24	-19.39	-29.68	-0.4213	0.1096	-0.2005	
0.96563	-0.46909	-0.040016	9.38	-14.07	-27.86	-0.4229	0.1034	-0.1988	
0.977708	-0.431392	-0.038308	3.99	-13.09	-24.43	-0.4199	0.103	-0.1869	
0.990518	-0.420168	-0.04148	3.01	-10.71	-22.75	-0.4276	0.0907	-0.1895	
1.003694	-0.40321	-0.045384	0.56	-6.93	-20.09	-0.4277	0.0875	-0.185	
0.988932	-0.393694	-0.044042	3.15	-4.2	-19.18	-0.4217	0.0892	-0.185	
0.980148	-0.393694	-0.058438	-0.7	-3.29	-16.66	-0.4263	0.0831	-0.1893	
0.977098	-0.39711	-0.068076	-1.05	-1.05	-14.84	-0.4265	0.0725	-0.1919	
0.965264	-0.393572	-0.064782	-0.07	0.98	-12.6	-0.4266	0.0709	-0.1904	
0.951844	-0.381738	-0.065148	-0.98	1.05	-9.38	-0.4264	0.0785	-0.1891	
0.946598	-0.37088	-0.06832	-2.17	0	-6.58	-0.4236	0.0678	-0.1858	
0.951356	-0.37027	-0.068686	-2.8	-0.14	-4.62	-0.4357	0.0665	-0.1992	
0.948184	-0.362706	-0.069906	-1.4	-0.42	-3.43	-0.4191	0.0694	-0.1858	
0.937204	-0.357338	-0.069906	-2.17	-0.63	-2.45	-0.4354	0.0769	-0.1906	
0.921466	-0.388692	-0.06893	-2.66	-2.1	-1.4	-0.4324	0.0703	-0.1755	
0.91805	-0.392596	-0.062342	-0.77	-2.87	0.7	-0.4221	0.0677	-0.1828	
0.93208	-0.384178	-0.06466	-1.12	-3.57	2.66	-0.4249	0.077	-0.1891	
0.950624	-0.381982	-0.062464	-0.84	-4.83	4.27	-0.4236	0.0662	-0.1828	
0.95221	-0.38308	-0.051606	-0.49	-4.55	5.88	-0.4188	0.0815	-0.1817	
0.966972	-0.386008	-0.045018	0	-3.99	7.07	-0.4311	0.0662	-0.1873	
0.97905	-0.405894	-0.043554	2.17	-2.38	8.4	-0.4294	0.0737	-0.183	
0.982466	-0.415044	-0.04514	1.89	-0.77	9.8	-0.4265	0.0722	-0.183	
0.977098	-0.418948	-0.043554	3.22	1.89	10.99	-0.4294	0.0737	-0.1845	
0.974902	-0.42151	-0.047946	3.36	3.71	12.6	-0.4279	0.0752	-0.1801	
0.966118	-0.430904	-0.051118	3.36	5.81	14.63	-0.4322	0.0825	-0.1744	
0.959652	-0.430294	-0.058072	4.06	8.4	17.08	-0.4201	0.09079999	-0.1865	
0.955382	-0.424804	-0.058804	4.55	10.36	19.67	-0.4204	0.0834	-0.1937	
0.959896	-0.42151	-0.055754	4.48	11.41	21.98	-0.4232	0.0844	-0.1804	
0.954406	-0.426024	-0.055998	5.53	12.67	23.66	-0.429	0.0937	-0.1881	
0.93086	-0.433344	-0.056852	4.83	13.72	25.27	-0.4232	0.09119999	-0.1999	
0.923662	-0.458354	-0.042944	8.4	19.46	24.5	-0.4215	0.1034	-0.2003	
0.931104	-0.45872	-0.041968	13.37	20.86	27.23	-0.42	0.09869999	-0.1957	
0.941718	-0.451522	-0.038308	1.33	16.52	34.65	-0.4155	0.1021	-0.2032	
0.951234	-0.45506	-0.021594	2.94	19.18	36.68	-0.4138	0.1145	-0.208	
0.940742	-0.47763	-0.003294	6.09	24.5	37.1	-0.4092	0.1225	-0.2156	
0.91744	-0.513376	0.009881999	0.98	27.23	42.7	-0.4002	0.1289	-0.2188	
0.909998	-0.511546	0.009516	7.91	32.27	43.05	-0.4117	0.1487	-0.2254	
0.88145	-0.547536	0.00976	7.77	36.05	44.38	-0.4117	0.1473	-0.2268	
0.870714	-0.567666	0.01403	7.49	38.57	47.95	-0.4027	0.154	-0.2404	
0.855952	-0.585844	0.025742	13.16	40.95	48.79	-0.3998	0.156	-0.2523	
0.838018	-0.61976	0.038308	11.9	41.58	51.38	-0.3907	0.1638	-0.2495	
0.81191	-0.64782	0.056364	13.86	44.24	55.09	-0.386	0.1763	-0.2573	
0.796538	-0.623908	0.055754	13.93	44.66	57.54	-0.3813	0.1887	-0.2606	
0.773724	-0.644892	0.060268	14.42	44.31	57.82	-0.3679	0.1879	-0.2724	
0.75335	-0.66795	0.084424	14.42	43.26	58.45	-0.3722	0.1988	-0.2802	
0.744322	-0.673562	0.099674	18.13	46.34	59.92	-0.3648	0.1991	-0.2861	
0.731024	-0.687104	0.11712	18.48	46.76	61.04	-0.3572	0.2055	-0.2892	
0.712114	-0.702842	0.115412	19.18	50.12	64.54	-0.3466	0.2167	-0.2969	
0.69723	-0.658922	0.118706	25.69	48.3	60.83	-0.3526	0.2232	-0.315	
0.688812	-0.70943	0.156892	21.21	46.34	60.97	-0.3332	0.2222	-0.3163	
0.662826	-0.73017	0.177754	22.26	48.86	62.93	-0.3285	0.2332	-0.3225	
0.622932	-0.696864	0.202398	26.04	53.55	64.82	-0.3179	0.2458	-0.3288	
0.610244	-0.708698	0.209962	20.02	53.06	66.08	-0.3134	0.2477	-0.3363	
0.588406	-0.729926	0.217282	17.15	51.31	66.92	-0.3059	0.2541	-0.3409	
0.58011	-0.731634	0.249246	18.97	49.63	65.31	-0.2908	0.2606	-0.3424	
0.511424	-0.763476	0.26718	17.85	51.38	65.52	-0.2817	0.272	-0.3561	
0.46543	-0.797636	0.290116	12.95	51.52	67.06	-0.2639	0.2725	-0.3605	
0.430782	-0.804712	0.374052	13.02	56.07	66.43	-0.2668	0.2774	-0.371	
0.381372	-0.832162	0.314028	17.57	64.26	65.94	-0.2445	0.2781	-0.3768	
0.372588	-0.789462	0.323544	18.69	61.81	66.64	-0.2368	0.2907	-0.3846	
0.31415	-0.7869	0.359412	16.24	62.44	66.57	-0.2338	0.2939	-0.3876	
0.267668	-0.79788	0.376248	14.35	62.16	64.96	-0.2159	0.2945	-0.3935	
0.220942	-0.828014	0.409798	14.7	60.69	63.35	-0.1994	0.3043	-0.3996	
0.173606	-0.824232	0.411506	14.56	56.7	61.88	-0.1785	0.3099	-0.4175	
0.13054	-0.804834	0.41114	19.18	55.65	58.94	-0.1711	0.3071	-0.4218	
0.100406	-0.8296	0.426268	13.86	52.22	57.82	-0.1694	0.3163	-0.4191	
0.0732	-0.830454	0.443226	17.43	47.74	55.51	-0.1381	0.3203	-0.4279	
0.039894	-0.80703	0.469456	17.08	47.6	53.62	-0.1306	0.322	-0.4294	
0.031354	-0.74603	0.45567	20.51	42.7	49.84	-0.1246	0.3273	-0.4444	
0.021472	-0.72468	0.45628	15.4	36.82	46.2	-0.1127	0.3243	-0.4383	
0.020252	-0.733586	0.474458	7.07	28.63	42.98	-0.1066	0.332	-0.4385	
0.011102	-0.747738	0.476898	8.26	24.99	37.8	-0.0874	0.3268	-0.4515	
-0.005978	-0.757742	0.472384	4.2	20.3	33.04	-0.0888	0.3346	-0.4577	
-0.02989	-0.780068	0.47092	7.49	19.04	26.04	-0.07669999	0.3375	-0.4444	
-0.044896	-0.784948	0.465064	5.95	14.84	21.49	-0.083	0.3269	-0.453	
-0.049044	-0.799344	0.463966	8.05	12.18	17.29	-0.0739	0.3317	-0.4516	
-0.0427	-0.800686	0.480192	6.65	8.75	14.63	-0.0813	0.3394	-0.4593	
-0.032452	-0.808982	0.47641	6.37	6.79	11.2	-0.0709	0.3317	-0.4501	
-0.023302	-0.816912	0.470066	6.93	3.92	7.84	-0.0633	0.3427	-0.4548	
-0.016836	-0.82655	0.474458	8.96	2.31	4.55	-0.0769	0.3301	-0.4516	
-0.012688	-0.842654	0.481168	9.94	0.77	2.24	-0.0725	0.3336	-0.4635	
-0.004758	-0.856318	0.490196	10.78	0.14	0.98	-0.0649	0.3381	-0.4547	
0.01037	-0.866444	0.48983	11.9	2.17	1.12	-0.0697	0.3231	-0.4661	
0.043066	-0.86803	0.490318	10.15	-0.28	2.24	-0.07099999	0.3288	-0.4559	
0.066124	-0.86437	0.48983	14	1.05	2.45	-0.0635	0.3322	-0.4589	
0.089548	-0.87047	0.48129	14.07	1.54	4.13	-0.0606	0.3308	-0.4619	
0.107848	-0.88084	0.488732	14.91	4.27	5.39	-0.0652	0.3247	-0.4661	
0.115778	-0.884256	0.484218	17.01	6.65	6.58	-0.0728	0.3215	-0.4661	
0.113094	-0.88572	0.483242	19.39	10.43	8.82	-0.0742	0.3213	-0.4616	
0.120048	-0.88267	0.484462	21.21	12.88	11.27	-0.064	0.3127	-0.4717	
0.124318	-0.875838	0.48983	23.17	14.84	13.72	-0.0655	0.3175	-0.4793	
0.12078	-0.86742	0.496784	25.83	16.8	16.03	-0.0551	0.3179	-0.4822	
0.10919	-0.86681	0.511424	26.88	18.48	18.34	-0.0627	0.3069	-0.4789	
0.099552	-0.859978	0.5246	28.14	21.28	20.51	-0.0508	0.3039	-0.4728	
0.088084	-0.845094	0.536556	28.84	24.15	22.82	-0.0479	0.3058	-0.4817	
0.07515199	-0.82777	0.547414	28.84	25.97	25.06	-0.045	0.3028	-0.4816	
0.054046	-0.813618	0.563518	29.61	28.56	27.16	-0.0467	0.2954	-0.4903	
0.008662	-0.809592	0.57889	29.05	28.98	30.52	-0.0244	0.2913	-0.4885	
-0.017934	-0.798124	0.584868	29.33	30.87	32.69	-0.0214	0.2945	-0.4916	
-0.038674	-0.786656	0.595482	29.19	31.71	34.65	-0.0022	0.2844	-0.4956	
-0.068198	-0.78629	0.59536	27.93	31.99	36.68	-0.0039	0.2782	-0.4939	
-0.100162	-0.786778	0.59353	27.44	32.97	38.85	0.0005	0.2833	-0.5074	
-0.119194	-0.779336	0.597312	26.53	33.81	40.39	0.0094	0.279	-0.5087	
-0.148108	-0.768234	0.5856	30.59	35.63	41.65	0.0182	0.2713	-0.5024	
-0.180804	-0.739564	0.583404	33.74	34.79	43.33	0.0269	0.2611	-0.5095	
-0.200202	-0.711138	0.564982	35	32.69	44.73	0.036	0.2738	-0.5202	
-0.225578	-0.699426	0.57096	37.8	33.04	44.45	0.0494	0.2677	-0.511	
-0.265106	-0.675514	0.571692	39.41	31.43	44.1	0.0627	0.2635	-0.5138	
-0.286212	-0.65514	0.587796	39.13	31.36	43.68	0.0639	0.248	-0.5314	
-0.280234	-0.627202	0.617564	38.92	28.77	43.75	0.0653	0.2502	-0.5252	
-0.274744	-0.5978	0.618662	42.21	27.79	42.42	0.0739	0.2334	-0.5172	
-0.277672	-0.581818	0.637328	42.56	28.49	40.25	0.08	0.2397	-0.5203	
-0.291702	-0.56608	0.651968	42.7	31.15	37.38	0.0841	0.2262	-0.5243	
-0.322934	-0.545218	0.672586	43.75	37.31	33.04	0.0958	0.2143	-0.5238	
-0.348432	-0.5246	0.672464	44.1	38.01	31.64	0.1076	0.2085	-0.525	
-0.384544	-0.496662	0.690398	44.31	39.13	30.38	0.1076	0.21	-0.5266	
-0.409432	-0.485072	0.7015	42	33.32	30.45	0.1192	0.1983	-0.5321	
-0.4331	-0.479704	0.688202	41.44	31.01	30.45	0.1251	0.1906	-0.5258	
-0.449326	-0.488122	0.694302	43.05	32.9	28.63	0.1281	0.192	-0.5199	
-0.487268	-0.481168	0.703696	45.64	34.02	27.16	0.1352	0.1772	-0.5313	
-0.506666	-0.454206	0.699548	46.48	34.09	26.74	0.1411	0.1774	-0.5312	
-0.531188	-0.43554	0.691984	41.23	43.75	28.42	0.1439	0.1651	-0.5278	
-0.542412	-0.381494	0.70089	53.69	36.19	22.96	0.1572	0.1591	-0.5216	
-0.552904	-0.382104	0.704062	45.01	24.01	26.53	0.1644	0.1471	-0.5227	
-0.5734	-0.375028	0.689544	45.43	23.8	25.97	0.1568	0.144	-0.5271	
-0.591334	-0.360266	0.70028	48.37	29.82	23.52	0.1746	0.1383	-0.5268	
-0.584868	-0.328424	0.714554	47.95	24.36	23.87	0.1771	0.1186	-0.5291	
-0.571692	-0.306342	0.716018	47.04	19.67	23.38	0.1767	0.1001	-0.5255	
-0.549488	-0.283772	0.749324	45.36	22.89	21.42	0.1753	0.1032	-0.5256	
-0.551074	-0.274622	0.75335	43.26	21.07	20.37	0.1827	0.09869999	-0.5255	
-0.548756	-0.266326	0.75335	40.11	20.23	18.97	0.1944	0.0847	-0.5071	
-0.544974	-0.267058	0.760914	39.27	22.33	17.22	0.1988	0.085	-0.513	
-0.553026	-0.255712	0.769088	39.27	23.66	16.38	0.1957	0.079	-0.5188	
-0.567178	-0.238998	0.770918	37.94	22.75	16.38	0.2014	0.0668	-0.5154	
-0.585844	-0.235826	0.779214	36.75	23.17	16.03	0.2102	0.056	-0.5061	
-0.620492	-0.229604	0.77592	35.21	21.98	15.61	0.2042	0.056	-0.5121	
-0.654896	-0.22448	0.773724	33.04	20.3	15.26	0.21	0.0502	-0.5163	
-0.685518	-0.207644	0.772626	32.13	18.41	14.77	0.2113	0.0393	-0.5085	
-0.682102	-0.188002	0.765184	30.31	14.07	14.7	0.2141	0.0302	-0.5082	
-0.683444	-0.175802	0.755302	27.44	10.43	13.79	0.2215	0.0272	-0.5051	
-0.691984	-0.159088	0.754082	26.6	8.75	11.9	0.223	0.0303	-0.5052	
-0.68442	-0.121268	0.762988	24.92	7.14	10.22	0.2198	0.0164	-0.5033	
-0.6588	-0.097112	0.759328	21.91	3.64	9.03	0.2229	0.0208	-0.496	
-0.651236	-0.098698	0.760182	18.41	1.12	7.28	0.2212	0.0133	-0.4987	
-0.64111	-0.08906	0.761158	15.54	2.66	3.99	0.2151	0.0055	-0.5	
-0.644282	-0.079666	0.764696	13.72	2.52	2.24	0.2242	0.0134	-0.5002	
-0.657458	-0.069906	0.775066	12.39	3.5	1.12	0.2225	0.0057	-0.5014	
-0.65758	-0.080032	0.769454	10.36	2.73	0.42	0.2239	-0.0019	-0.4982	
-0.659532	-0.08784	0.760792	8.12	0.98	0.91	0.2267	-0.0079	-0.498	
-0.673806	-0.097844	0.751276	6.72	1.4	1.05	0.2225	-0.0007	-0.4893	
-0.691374	-0.09211	0.753106	5.25	1.89	1.47	0.2225	0.0056	-0.497	
-0.6954	-0.093696	0.7503	3.64	-0.91	2.59	0.2193	-0.0084	-0.4876	
-0.68808	-0.089304	0.745176	3.15	-2.8	2.66	0.2225	0.0025	-0.4969	
-0.684664	-0.086742	0.757132	2.1	-3.36	2.24	0.2225	0.0023	-0.4909	
-0.682712	-0.086376	0.748226	1.26	-5.04	2.1	0.2254	0.0027	-0.5013	
-0.683444	-0.083936	0.75762	-0.35	-7	1.54	0.2193	-0.0066	-0.4981	
-0.682224	-0.077226	0.761768	-1.82	-7.98	0.21	0.218	0.0007	-0.4909	
-0.692472	-0.079422	0.768844	-3.64	-9.66	-0.84	0.2269	-0.0019	-0.4967	
-0.700646	-0.073932	0.771894	-4.9	-12.25	-2.03	0.2148	-0.0081	-0.4995	
-0.690154	-0.06832	0.781532	-7.07	-12.81	-3.99	0.2164	-0.0022	-0.4923	
-0.674416	-0.05978	0.78751	-11.06	-15.4	-6.3	0.2075	0.0009	-0.5043	
-0.68198	-0.060512	0.796172	-14	-17.78	-8.33	0.2044	-0.0038	-0.4997	
-0.679662	-0.06893	0.792756	-17.15	-18.9	-10.78	0.2016	0.0022	-0.5014	
-0.665754	-0.078812	0.792878	-19.67	-20.58	-13.16	0.2017	0.0084	-0.5046	
-0.64843	-0.084546	0.800564	-22.26	-20.65	-15.68	0.1959	0.0144	-0.5048	
-0.637572	-0.078446	0.799466	-24.78	-20.02	-18.34	0.193	0.0237	-0.5096	
-0.627446	-0.091012	0.790194	-27.37	-20.93	-20.79	0.1962	0.0314	-0.5113	
-0.625494	-0.109312	0.792512	-29.12	-21.35	-23.45	0.1871	0.0251	-0.5097	
-0.619272	-0.126514	0.792756	-31.15	-21.42	-25.62	0.1904	0.0371	-0.5026	
-0.618418	-0.138592	0.778482	-33.11	-24.36	-26.88	0.1844	0.0404	-0.5147	
-0.599996	-0.156892	0.78446	-36.68	-24.99	-28	0.1771	0.0432	-0.5118	
-0.582062	-0.176168	0.785924	-38.78	-23.73	-29.68	0.1862	0.0525	-0.5091	
-0.573766	-0.202886	0.772138	-41.51	-26.39	-30.73	0.1745	0.0665	-0.5245	
-0.570716	-0.235094	0.7747	-43.68	-28.07	-31.43	0.1762	0.0724	-0.5172	
-0.552416	-0.249734	0.770308	-43.68	-27.72	-31.92	0.1777	0.0759	-0.5292	
-0.533262	-0.260958	0.762256	-44.45	-29.75	-32.34	0.1691	0.0925	-0.5298	
-0.515694	-0.289872	0.761646	-47.11	-32.06	-33.04	0.1647	0.0953	-0.5269	
-0.494954	-0.321958	0.750544	-48.16	-32.34	-34.09	0.147	0.1074	-0.5334	
-0.47946	-0.35807	0.757986	-50.61	-33.67	-34.44	0.1459	0.1225	-0.5294	
-0.454572	-0.382348	0.740174	-49.28	-36.33	-34.79	0.1308	0.1162	-0.5353	
-0.432002	-0.403942	0.73749	-49.21	-35.28	-35.63	0.1298	0.1343	-0.5299	
-0.41114	-0.431392	0.734928	-49.84	-38.85	-35.7	0.1196	0.1463	-0.5304	
-0.391376	-0.453962	0.728462	-48.37	-37.17	-37.03	0.118	0.1449	-0.5333	
-0.378566	-0.47397	0.724314	-47.95	-37.17	-37.94	0.1108	0.154	-0.5366	
-0.369782	-0.490928	0.705526	-47.32	-37.66	-38.78	0.1081	0.1674	-0.5297	
-0.347334	-0.505812	0.705648	-47.46	-36.05	-40.18	0.0905	0.1778	-0.5316	
-0.322446	-0.516548	0.710528	-47.88	-37.24	-41.02	0.0933	0.1717	-0.5314	
-0.30195	-0.526918	0.708576	-49.21	-38.64	-41.44	0.08329999	0.1897	-0.5276	
-0.273158	-0.541436	0.707112	-50.61	-38.43	-42.35	0.0804	0.1957	-0.5278	
-0.245464	-0.559004	0.700646	-51.87	-40.67	-43.12	0.06439999	0.2105	-0.5224	
-0.213622	-0.598044	0.684786	-53.97	-41.72	-43.96	0.0553	0.2028	-0.5282	
-0.1586	-0.65514	0.672342	-54.11	-41.93	-45.85	0.0601	0.2181	-0.5257	
-0.120658	-0.682224	0.660508	-53.9	-42.84	-46.97	0.0378	0.2221	-0.5245	
-0.091256	-0.681126	0.626226	-53.2	-46.48	-47.95	0.0278	0.2369	-0.5176	
-0.059414	-0.683688	0.619272	-54.6	-42.56	-49	0.0173	0.235	-0.5117	
-0.054168	-0.703696	0.608902	-54.04	-44.31	-48.86	0.0103	0.2532	-0.5123	
-0.0305	-0.731634	0.589016	-53.83	-46.13	-47.32	-0.0058	0.2617	-0.5053	
0.005124	-0.741028	0.562176	-52.22	-46.9	-45.5	-0.0074	0.2557	-0.5095	
0.042212	-0.750544	0.54778	-51.38	-47.25	-44.52	-0.0102	0.2582	-0.4933	
0.068686	-0.770918	0.530822	-50.75	-46.9	-43.61	-0.0277	0.2793	-0.4971	
0.093818	-0.784704	0.51667	-49.14	-44.03	-42.42	-0.0381	0.2804	-0.4927	
0.12139	-0.803614	0.504714	-47.18	-41.51	-41.23	-0.032	0.285	-0.4899	
0.145302	-0.815814	0.500444	-44.87	-40.74	-39.06	-0.0482	0.2954	-0.4903	
0.171532	-0.837408	0.49593	-42.7	-36.82	-36.82	-0.0603	0.2811	-0.481	
0.177266	-0.854488	0.488122	-38.57	-31.92	-34.16	-0.0674	0.2974	-0.4727	
0.189832	-0.866566	0.484462	-35.84	-28.49	-30.94	-0.0746	0.3081	-0.4761	
0.197152	-0.875838	0.471164	-30.03	-23.66	-25.9	-0.0971	0.3012	-0.4701	
0.196054	-0.881206	0.463112	-26.6	-20.3	-23.38	-0.0982	0.3165	-0.4706	
0.198128	-0.884012	0.465796	-24.01	-19.04	-20.86	-0.0983	0.3085	-0.4584	
0.197762	-0.879132	0.457744	-21.56	-17.08	-18.69	-0.1013	0.3085	-0.4614	
0.197884	-0.872544	0.461038	-19.39	-14.35	-16.94	-0.1028	0.31	-0.463	
0.198982	-0.871934	0.461892	-17.5	-12.95	-15.82	-0.1087	0.3111	-0.4526	
0.194346	-0.86498	0.454084	-15.68	-11.41	-14.63	-0.1163	0.3031	-0.448	
0.194102	-0.859978	0.456402	-14.84	-9.24	-14.07	-0.11	0.3155	-0.4469	
0.192394	-0.850218	0.453474	-14.21	-8.54	-13.72	-0.1221	0.3092	-0.4512	
0.178852	-0.837652	0.447374	-13.3	-8.05	-13.51	-0.1203	0.3196	-0.4411	
0.151524	-0.842898	0.447862	-13.58	-8.12	-13.79	-0.1264	0.3199	-0.4545	
0.118462	-0.847046	0.448106	-14.77	-9.94	-14.42	-0.1159	0.3183	-0.444	
0.101504	-0.847168	0.433954	-14.98	-12.6	-14.91	-0.1279	0.3165	-0.4455	
0.092598	-0.841922	0.4209	-14.91	-17.36	-15.89	-0.1293	0.3147	-0.4381	
0.09089	-0.838506	0.40931	-13.44	-20.16	-17.64	-0.132	0.33	-0.4415	
0.096258	-0.844728	0.407114	-14.77	-23.94	-20.02	-0.1321	0.3234	-0.4265	
0.11956	-0.834236	0.404186	-11.06	-27.58	-25.62	-0.1411	0.322	-0.4354	
0.132858	-0.839726	0.397964	-10.85	-29.61	-29.82	-0.1545	0.3248	-0.4371	
0.141398	-0.848876	0.393206	-8.12	-31.22	-32.9	-0.1544	0.3231	-0.4311	
0.155672	-0.859734	0.381982	-6.79	-33.81	-35.7	-0.1634	0.3213	-0.4281	
0.167628	-0.854244	0.391498	-2.87	-33.53	-38.85	-0.1681	0.3086	-0.4174	
0.17629	-0.842044	0.391498	0.49	-32.9	-41.72	-0.1679	0.3163	-0.4206	
0.193004	-0.83265	0.393084	0.28	-35.63	-42.84	-0.1845	0.3067	-0.4174	
0.22997	-0.827404	0.396256	-0.21	-39.2	-43.26	-0.189	0.3048	-0.4085	
0.266814	-0.8113	0.389546	0.28	-41.16	-43.4	-0.1922	0.294	-0.4067	
0.30927	-0.799344	0.38857	1.68	-42.91	-44.24	-0.2055	0.2983	-0.4069	
0.331962	-0.787876	0.358558	3.92	-43.4	-45.22	-0.2237	0.284	-0.4021	
0.382104	-0.776408	0.343186	-0.28	-47.95	-44.38	-0.2147	0.2858	-0.4051	
0.431148	-0.767502	0.338916	-0.49	-50.33	-45.85	-0.228	0.2848	-0.3843	

0.486048	-0.718702	0.299266	-0.84	-49	-52.57	-0.2551	0.2704	-0.4082	
0.505202	-0.709796	0.290116	-9.03	-52.36	-57.47	-0.2687	0.261	-0.3839	
0.529602	-0.717726	0.286578	-5.11	-52.64	-60.27	-0.2793	0.2544	-0.3763	
0.548146	-0.702232	0.264496	-0.21	-54.18	-63.28	-0.2941	0.2538	-0.3675	
0.568642	-0.688934	0.238632	9.45	-51.38	-67.9	-0.2975	0.2336	-0.3594	
0.586576	-0.65941	0.250222	2.1	-52.64	-68.25	-0.3106	0.2421	-0.3479	
0.628422	-0.609634	0.247172	-2.8	-57.12	-68.81	-0.314	0.225	-0.3415	
0.655994	-0.585966	0.239974	0.84	-56.21	-72.17	-0.3349	0.2214	-0.34	
0.699304	-0.601704	0.243146	-2.8	-60.27	-73.01	-0.3306	0.2088	-0.3262	
0.720044	-0.625006	0.24766	-3.64	-60.27	-72.66	-0.3442	0.1992	-0.3215	
0.734806	-0.614758	0.24888	-1.4	-61.39	-72.17	-0.3504	0.1819	-0.3092	
0.757864	-0.627202	0.203496	-9.1	-61.46	-68.67	-0.3579	0.1816	-0.3047	
0.77104	-0.63074	0.229726	-7.84	-52.99	-63.7	-0.3672	0.161	-0.2893	
0.815204	-0.607194	0.18239	0.42	-51.31	-60.34	-0.3763	0.1548	-0.2921	
0.825208	-0.624152	0.19154	-18.76	-53.55	-54.32	-0.3836	0.1509	-0.2713	
0.900116	-0.6222	0.202154	-9.24	-49.35	-53.41	-0.3911	0.1508	-0.2728	
0.87047	-0.586576	0.163968	-14.21	-47.18	-47.81	-0.3915	0.1289	-0.2588	
0.903044	-0.54656	0.123708	-19.04	-45.01	-43.75	-0.3915	0.1289	-0.2573	
0.888892	-0.563274	0.091256	-48.79	-50.68	-40.18	-0.3989	0.1283	-0.244	
0.894992	-0.559004	0.118218	-3.22	-36.26	-37.59	-0.4079	0.1203	-0.2408	
0.86864	-0.526674	0.075396	-6.58	-38.36	-36.05	-0.4111	0.1111	-0.2405	
0.872544	-0.518744	0.055632	-8.26	-35.77	-31.78	-0.4125	0.112	-0.2213	
0.875838	-0.495076	0.050996	-10.5	-36.68	-27.51	-0.4142	0.0995	-0.2149	
0.895968	-0.463844	0.0305	-12.46	-38.43	-25.34	-0.4112	0.1028	-0.221	
0.90463	-0.455914	0.018056	-12.39	-37.59	-23.73	-0.4156	0.0993	-0.209	
0.916098	-0.444934	-0.008052	-12.95	-37.24	-21.91	-0.4188	0.0883	-0.2012	
0.931836	-0.440176	-0.024278	-14	-36.89	-20.65	-0.4292	0.0895	-0.1999	
0.937326	-0.437126	-0.033062	-14.35	-35.14	-20.09	-0.4172	0.09429999	-0.197	
0.958554	-0.43432	-0.035624	-12.18	-30.94	-19.53	-0.4233	0.0848	-0.1908	
0.960628	-0.392352	-0.060512	-7.91	-26.6	-18.41	-0.4368	0.0796	-0.1833	
0.97905	-0.383446	-0.086986	-9.38	-23.8	-18.55	-0.4233	0.0814	-0.1803	
0.987346	-0.378444	-0.079544	-9.38	-21	-17.92	-0.4309	0.0751	-0.1816	
0.981368	-0.364536	-0.087352	-9.17	-17.71	-17.71	-0.4383	0.0714	-0.1652	
0.974658	-0.365146	-0.09089	-10.71	-14.49	-17.29	-0.4281	0.0658	-0.1739	
0.969534	-0.370148	-0.114436	-10.29	-12.74	-16.31	-0.4296	0.0591	-0.1559	
0.962214	-0.375882	-0.113948	-11.69	-11.13	-14.77	-0.4279	0.07319999	-0.1682	
0.97173	-0.35929	-0.128954	-10.85	-9.31	-12.53	-0.4325	0.0606	-0.1574	
0.984296	-0.357826	-0.119682	-13.51	-7.35	-10.5	-0.437	0.0636	-0.1605	
0.973682	-0.352336	-0.122366	-14.98	-6.51	-8.26	-0.4339	0.0635	-0.156	
0.957578	-0.360144	-0.142496	-14.07	-6.72	-7.42	-0.4325	0.0607	-0.1604	
0.962702	-0.364048	-0.134322	-17.22	-8.54	-5.04	-0.4415	0.062	-0.162	
0.970754	-0.367708	-0.13298	-17.01	-7.63	-2.52	-0.4414	0.065	-0.1576	
0.984906	-0.3599	-0.134444	-14.14	-4.69	-0.49	-0.434	0.0589	-0.1544	
0.989786	-0.351482	-0.1342	-13.58	-3.92	1.26	-0.428	0.0638	-0.1605	
0.976366	-0.35929	-0.132736	-12.53	-1.61	1.61	-0.4266	0.0606	-0.1559	
0.952332	-0.371612	-0.13542	-10.01	1.68	2.03	-0.4296	0.0576	-0.1588	
0.931836	-0.368318	-0.14701	-9.1	2.17	4.06	-0.4341	0.0573	-0.1785	
0.930372	-0.377712	-0.148718	-8.61	0.21	5.04	-0.437	0.062	-0.1575	
0.935618	-0.380518	-0.140178	-0.14	1.68	4.83	-0.4192	0.0546	-0.1527	
0.939034	-0.372222	-0.150548	1.82	1.96	4.97	-0.4353	0.068	-0.1532	
0.956846	-0.380274	-0.13481	2.03	1.33	5.6	-0.4294	0.0634	-0.1486	
0.975268	-0.389058	-0.124196	2.1	1.47	6.86	-0.4325	0.0622	-0.1604	
0.993324	-0.395646	-0.111996	4.83	3.01	7.42	-0.4309	0.0651	-0.1561	
0.995276	-0.414434	-0.10675	6.79	5.11	7.42	-0.4292	0.0742	-0.1534	
0.993324	-0.41419	-0.116754	10.5	6.58	8.12	-0.4294	0.0715	-0.1637	
0.977586	-0.43188	-0.121268	10.78	9.73	9.73	-0.4262	0.076	-0.1593	
0.964776	-0.439688	-0.12566	15.05	10.78	11.76	-0.4457	0.0724	-0.1564	
0.96624	-0.438956	-0.124196	15.33	12.25	14.77	-0.4339	0.0682	-0.1577	
0.968436	-0.431392	-0.112484	16.38	13.86	18.2	-0.4249	0.0733	-0.1682	
0.967826	-0.422364	-0.105652	21.21	19.32	19.32	-0.4338	0.07449999	-0.1638	
0.967094	-0.410408	-0.088084	20.86	20.79	21.84	-0.4307	0.0774	-0.1579	
0.953064	-0.408334	-0.087596	20.44	21.07	24.5	-0.4234	0.075	-0.1712	
0.949526	-0.411994	-0.090158	18.62	20.65	26.95	-0.4203	0.0829	-0.1773	
0.945622	-0.424926	-0.083692	19.95	22.89	28.91	-0.4231	0.08899999	-0.1805	
0.934764	-0.434442	-0.038064	25.97	29.12	31.36	-0.4201	0.0954	-0.1881	
0.932568	-0.426512	-0.028304	23.73	31.36	34.44	-0.414	0.1002	-0.1882	
0.927322	-0.4392	-0.01769	20.86	32.2	36.75	-0.4169	0.1066	-0.2003	
0.9272	-0.452864	-0.010492	18.48	34.02	38.36	-0.414	0.1053	-0.2047	
0.925248	-0.477752	-0.000122	18.41	36.54	37.94	-0.4183	0.1161	-0.2125	
0.909266	-0.474702	0.013786	23.66	41.16	37.73	-0.4092	0.1242	-0.2187	
0.890844	-0.48495	0.01708	20.72	42.63	38.29	-0.406	0.1349	-0.2175	
0.870714	-0.53619	0.032208	18.62	42.63	39.13	-0.4033	0.1296	-0.2411	
0.853024	-0.556076	0.055998	17.99	41.72	40.81	-0.4076	0.1339	-0.2338	
0.837652	-0.55937	0.069784	16.8	41.44	41.37	-0.3985	0.1452	-0.2489	
0.802516	-0.575962	0.102114	20.51	46.48	42.49	-0.3925	0.1502	-0.255	
0.780312	-0.58255	0.104066	22.61	48.23	46.06	-0.3895	0.1519	-0.2595	
0.784338	-0.59475	0.110532	21.35	47.6	48.79	-0.3849	0.1615	-0.2702	
0.779946	-0.596946	0.143716	21.21	46.83	50.19	-0.3714	0.1683	-0.2807	
0.757864	-0.606218	0.1525	19.25	44.73	50.96	-0.3757	0.1757	-0.278	
0.748958	-0.632692	0.163236	15.4	43.96	52.99	-0.3638	0.1761	-0.2824	
0.744566	-0.657092	0.202764	16.1	45.64	56	-0.3653	0.1796	-0.2973	
0.760182	-0.656238	0.224602	18.55	47.67	57.89	-0.3562	0.1859	-0.2975	
0.733342	-0.669536	0.24705	19.25	51.45	56.63	-0.3637	0.189	-0.3035	
0.6954	-0.677222	0.245464	17.78	52.57	58.31	-0.341	0.2035	-0.3098	
0.674904	-0.684176	0.230092	15.54	53.34	60.55	-0.3351	0.2104	-0.3307	
0.654774	-0.692838	0.263764	13.58	52.92	63.07	-0.3246	0.2138	-0.3323	
0.623542	-0.701988	0.304024	15.54	55.16	63.77	-0.3214	0.2263	-0.3401	
0.59963	-0.705648	0.304024	14.98	57.54	66.78	-0.3007	0.2226	-0.3517	
0.561566	-0.724314	0.31537	12.04	55.79	67.62	-0.293	0.2336	-0.3579	
0.515572	-0.739686	0.35746	12.39	55.37	67.2	-0.2869	0.2415	-0.3626	
0.455548	-0.752862	0.37027	17.15	57.47	65.8	-0.2806	0.2571	-0.3675	
0.406504	-0.74847	0.360876	15.26	58.66	66.71	-0.2734	0.2515	-0.3777	
0.37759	-0.725412	0.370392	15.96	57.82	65.94	-0.2566	0.2755	-0.4006	
0.339404	-0.741394	0.409554	9.94	56.07	64.61	-0.2566	0.2755	-0.4006	
0.292556	-0.75762	0.432734	9.03	55.65	62.72	-0.2312	0.2776	-0.4005	
0.229482	-0.766038	0.434808	3.15	50.89	61.53	-0.2176	0.287	-0.3977	
0.194712	-0.781654	0.449082	3.01	50.47	59.92	-0.2011	0.2939	-0.4097	
0.157502	-0.78202	0.443714	3.08	49.07	58.52	-0.1981	0.2971	-0.4127	
0.140544	-0.793854	0.480314	2.38	47.39	57.61	-0.1757	0.301	-0.4246	
0.103944	-0.794708	0.461892	5.04	44.94	54.18	-0.1712	0.3056	-0.4217	
0.09162199	-0.789218	0.462136	5.18	42.84	51.73	-0.1592	0.3089	-0.4203	
0.078324	-0.78446	0.471774	8.33	40.32	47.74	-0.1473	0.308	-0.4305	
0.070516	-0.780068	0.479704	6.16	37.59	44.03	-0.1383	0.313	-0.4366	
0.07515199	-0.76616	0.46909	5.04	33.67	39.83	-0.1353	0.3147	-0.4411	
0.071614	-0.760182	0.45689	5.88	31.57	35.14	-0.1173	0.323	-0.4501	
0.060268	-0.76372	0.460794	4.2	29.82	29.96	-0.1247	0.3239	-0.4354	
0.036966	-0.77287	0.462258	3.78	26.74	25.13	-0.1128	0.3231	-0.4501	
0.043798	-0.783118	0.450546	2.45	21.84	21.07	-0.1099	0.3218	-0.453	
0.035502	-0.80886	0.447984	2.52	20.02	17.08	-0.1097	0.3306	-0.4444	
0.039284	-0.824598	0.463112	3.08	17.99	14	-0.1009	0.3218	-0.447	
0.034526	-0.835822	0.471164	5.67	17.78	11.48	-0.08899999	0.3238	-0.4529	
0.027694	-0.854366	0.472872	3.36	16.31	10.78	-0.1008	0.3312	-0.4547	
0.03843	-0.86132	0.478606	3.29	15.12	10.78	-0.086	0.3239	-0.4559	
0.056364	-0.857172	0.472384	3.57	13.09	11.06	-0.0889	0.3283	-0.4516	
0.071614	-0.86498	0.467382	2.73	11.9	11.48	-0.0784	0.3284	-0.4485	
0.0793	-0.874252	0.463966	3.22	11.83	11.41	-0.0829	0.3301	-0.456	
0.087108	-0.8662	0.453474	5.95	12.18	11.69	-0.0726	0.3273	-0.4559	
0.099796	-0.871568	0.458598	6.44	12.04	12.18	-0.0713	0.3181	-0.4541	
0.101382	-0.882792	0.454328	8.54	13.58	12.53	-0.0739	0.3381	-0.4622	
0.088084	-0.881206	0.451034	11.9	15.96	13.72	-0.0682	0.3261	-0.4647	
0.080886	-0.88755	0.456158	14.07	17.36	15.89	-0.0653	0.3218	-0.469	
0.061488	-0.90158	0.46604	16.59	17.99	18.13	-0.0548	0.3218	-0.463	
0.047214	-0.903044	0.473482	20.79	18.83	20.09	-0.0489	0.3205	-0.4644	
0.052582	-0.879986	0.480558	23.31	18.06	22.26	-0.0581	0.3161	-0.4777	
0.06222	-0.868396	0.48434	23.87	18.13	24.36	-0.0476	0.3147	-0.4731	
0.060756	-0.860588	0.499346	24.71	18.55	26.25	-0.0433	0.312	-0.4819	
0.031964	-0.857538	0.523868	26.95	22.12	28.84	-0.0418	0.3104	-0.4789	
0.00854	-0.849608	0.534604	28.07	23.38	30.59	-0.0327	0.3166	-0.476	
-0.00854	-0.845338	0.55022	28.84	24.64	32.48	-0.0299	0.3106	-0.4773	
-0.027328	-0.835822	0.556564	29.4	25.48	34.51	-0.0196	0.3036	-0.4874	
-0.054534	-0.824842	0.557418	28.98	27.51	36.61	-0.0137	0.3038	-0.4918	
-0.06734399	-0.795806	0.558516	29.96	28.77	38.85	-0.0153	0.299	-0.4858	
-0.075884	-0.786046	0.561322	26.95	29.4	40.88	-0.0019	0.2997	-0.4961	
-0.09467199	-0.778116	0.569374	28.07	31.22	41.65	0.0113	0.292	-0.4868	
-0.13115	-0.770186	0.573278	29.12	32.76	41.51	0.0096	0.2865	-0.506	
-0.166286	-0.765794	0.5795	29.96	34.65	42.21	0.0201	0.2914	-0.509	
-0.210206	-0.752618	0.578524	31.99	35.07	42.77	0.0349	0.287	-0.5028	
-0.251808	-0.742126	0.559492	33.25	35.07	43.75	0.0364	0.2855	-0.5043	
-0.284992	-0.715652	0.57157	34.44	33.6	45.36	0.036	0.2722	-0.5172	
-0.311588	-0.691618	0.558516	36.12	33.67	46.62	0.0492	0.2617	-0.5123	
-0.309392	-0.652944	0.56486	35.21	30.03	47.46	0.0629	0.2725	-0.5066	
-0.302072	-0.622444	0.565104	38.85	28.63	45.36	0.0657	0.2664	-0.5064	
-0.305732	-0.6161	0.595116	38.92	26.74	41.09	0.0832	0.2521	-0.5222	
-0.321226	-0.610488	0.614148	42.14	27.02	37.94	0.09339999	0.2399	-0.5158	
-0.34465	-0.59475	0.622688	45.92	29.33	35.21	0.0994	0.2416	-0.5187	
-0.362584	-0.579378	0.6283	46.55	29.33	33.67	0.111	0.2298	-0.5227	
-0.381616	-0.564494	0.640378	47.04	27.51	32.48	0.1106	0.2132	-0.5267	
-0.39955	-0.55632	0.643794	47.53	28	30.66	0.1107	0.2145	-0.5208	
-0.404064	-0.533018	0.658556	48.93	29.82	28.7	0.1223	0.2013	-0.5292	
-0.416996	-0.515938	0.675392	48.51	29.54	27.02	0.1192	0.1964	-0.5231	
-0.441762	-0.505812	0.683932	48.37	26.53	26.04	0.1431	0.1955	-0.5244	
-0.452498	-0.50142	0.694302	48.09	25.13	25.13	0.1353	0.1831	-0.524	
-0.477996	-0.496052	0.697596	49	25.06	24.36	0.1351	0.1709	-0.5251	
-0.48068	-0.47763	0.697962	49.49	22.19	24.08	0.1439	0.1684	-0.5339	
-0.489342	-0.466528	0.715896	49.14	23.24	22.96	0.1526	0.1563	-0.532	
-0.50386	-0.456768	0.71919	49.56	23.45	22.26	0.1512	0.1592	-0.5276	
-0.50813	-0.42456	0.727364	49.14	23.87	21.84	0.1538	0.1409	-0.527	
-0.52643	-0.381616	0.732488	47.88	23.66	20.93	0.1685	0.1338	-0.5326	
-0.52338	-0.359412	0.735172	44.17	20.37	21.07	0.161	0.1318	-0.5252	
-0.529236	-0.343186	0.735904	44.24	22.47	20.51	0.1714	0.1257	-0.5175	
-0.55022	-0.314516	0.736026	44.24	23.73	20.16	0.1726	0.1167	-0.5216	
-0.572302	-0.304146	0.742858	41.79	23.24	20.16	0.1681	0.1151	-0.5216	
-0.573644	-0.288042	0.733708	40.88	23.8	20.72	0.1796	0.0972	-0.5269	
-0.612196	-0.306586	0.772138	34.51	29.19	19.53	0.1794	0.0848	-0.5221	
-0.60573	-0.253882	0.741272	39.06	18.97	19.25	0.1824	0.0881	-0.5266	
-0.599996	-0.241194	0.740784	36.54	12.04	20.79	0.1914	0.0896	-0.5206	
-0.597434	-0.22448	0.740784	37.17	16.03	19.6	0.1866	0.0725	-0.5142	
-0.596946	-0.202642	0.755546	35.7	17.08	18.41	0.2013	0.0654	-0.5198	
-0.600118	-0.191906	0.754204	33.46	13.37	17.99	0.1908	0.0589	-0.5137	
-0.604266	-0.181658	0.756644	31.36	13.51	17.43	0.2025	0.0518	-0.5223	
-0.599996	-0.173728	0.762378	30.52	14.49	16.1	0.198	0.0466	-0.5088	
-0.59536	-0.166652	0.767136	29.05	14	14.7	0.2054	0.0455	-0.5147	
-0.58743	-0.156404	0.763598	28	13.23	13.09	0.1993	0.0375	-0.5085	
-0.602924	-0.150548	0.769576	26.46	13.93	11.13	0.2141	0.0302	-0.5097	
-0.618418	-0.137006	0.770552	25.83	14.98	10.15	0.2092	0.0134	-0.5121	
-0.643672	-0.137006	0.762744	24.57	13.79	9.66	0.2065	0.027	-0.5081	
-0.671488	-0.130418	0.75274	24.57	12.39	8.82	0.2152	0.0135	-0.5091	
-0.690764	-0.13176	0.749324	23.31	11.41	8.19	0.2107	0.0085	-0.5001	
-0.697474	-0.115412	0.751276	22.82	8.12	7.49	0.2225	0.0042	-0.4999	
-0.707722	-0.102724	0.747372	20.79	4.27	6.93	0.218	0.0043	-0.5058	
-0.710894	-0.093452	0.758596	18.76	1.4	6.16	0.2224	-0.0001	-0.5057	
-0.69845	-0.07503	0.764574	16.66	-1.75	5.53	0.2208	-0.0047	-0.5055	
-0.69784	-0.061	0.764208	13.86	-4.41	4.55	0.215	0.0039	-0.4984	
-0.70516	-0.044286	0.768356	12.11	-6.02	2.94	0.2045	-0.0024	-0.4953	
-0.711748	-0.034038	0.772504	9.24	-8.05	1.75	0.2133	-0.009699999	-0.498	
-0.70577	-0.02928	0.770064	6.58	-9.8	0.63	0.2162	-0.0127	-0.4994	
-0.69784	-0.010736	0.776896	3.5	-12.25	-1.4	0.2192	-0.0096	-0.4995	
-0.697962	-0.0061	0.791414	-0.21	-13.3	-2.66	0.2117	-0.0114	-0.4965	
-0.668194	0.007564	0.803004	-5.11	-16.24	-3.99	0.2056	-0.0174	-0.5023	
-0.66368	0.006832	0.804468	-9.03	-17.92	-5.46	0.2058	-0.0082	-0.504	
-0.661118	0.004514	0.80398	-12.67	-18.13	-7.28	0.2087	-0.0113	-0.501	
-0.658556	0.009638	0.80764	-15.96	-18.27	-9.17	0.2043	-0.0115	-0.498	
-0.662216	-0.00061	0.812154	-20.23	-18.62	-10.92	0.1954	-0.0035	-0.5147	
-0.66124	-0.02867	0.798612	-23.17	-20.44	-12.18	0.194	-0.0023	-0.5314	
-0.666852	-0.047824	0.79178	-25.41	-21.98	-13.3	0.1955	0.0025	-0.5134	
-0.660752	-0.063928	0.790438	-27.3	-22.47	-14.7	0.1867	0.0052	-0.5091	
-0.64355	-0.084424	0.799832	-30.59	-23.66	-15.96	0.1957	0.0083	-0.5061	
-0.63318	-0.099064	0.794708	-31.85	-24.5	-17.08	0.1929	0.0174	-0.5035	
-0.611464	-0.102236	0.80459	-34.23	-25.2	-18.41	0.178	0.0189	-0.4884	
-0.611586	-0.105774	0.80581	-37.66	-26.18	-20.23	0.1706	0.0268	-0.5262	
-0.593164	-0.124806	0.818498	-41.44	-27.79	-21.84	0.1726	0.0465	-0.5209	
-0.570716	-0.137128	0.801784	-43.47	-29.19	-23.52	0.1711	0.045	-0.5223	
-0.563396	-0.161406	0.813984	-46.34	-28.77	-25.62	0.1757	0.0495	-0.5195	
-0.547902	-0.178242	0.80398	-47.88	-29.82	-28.14	0.1595	0.0615	-0.5214	
-0.508496	-0.219844	0.804834	-53.13	-30.73	-31.57	0.1537	0.0722	-0.5278	
-0.495442	-0.246684	0.792634	-53.83	-29.4	-34.23	0.1498	0.0967	-0.533	
-0.492392	-0.26413	0.780556	-53.97	-32.06	-36.12	0.1468	0.1015	-0.515	
-0.490562	-0.31232	0.761768	-56.28	-34.02	-37.59	0.1383	0.118	-0.5624	
-0.478972	-0.34221	0.74969	-55.3	-32.41	-38.85	0.1325	0.1239	-0.537	
-0.459086	-0.364902	0.74298	-55.02	-33.6	-39.97	0.1236	0.1283	-0.5372	
-0.442738	-0.38552	0.73017	-56.07	-34.23	-40.95	0.1221	0.1252	-0.5356	
-0.424682	-0.412482	0.723216	-56.42	-35.63	-41.72	0.1093	0.157	-0.5367	
-0.402478	-0.445666	0.72346	-56.49	-37.87	-42.28	0.1034	0.1584	-0.5368	
-0.383202	-0.474214	0.70455	-57.05	-38.57	-42.63	0.09299999	0.1579	-0.528	
-0.363804	-0.507398	0.692228	-57.4	-39.83	-42.49	0.0902	0.1657	-0.5357	
-0.343552	-0.551318	0.68564	-57.33	-39.62	-42.14	0.0787	0.1866	-0.529	
-0.319274	-0.574742	0.6771	-54.74	-39.69	-42.42	0.0714	0.1929	-0.5396	
-0.296216	-0.59475	0.673928	-55.3	-40.18	-41.58	0.0626	0.1985	-0.531	
-0.25925	-0.613538	0.661484	-55.79	-41.3	-41.44	0.0584	0.209	-0.5284	
-0.194712	-0.663192	0.659898	-58.38	-43.05	-41.72	0.0511	0.2196	-0.5302	
-0.156038	-0.68869	0.650504	-57.33	-42.77	-42.77	0.035	0.2265	-0.5187	
-0.124196	-0.706258	0.635498	-56.28	-43.61	-44.38	0.0307	0.2355	-0.519	
-0.093086	-0.6954	0.62281	-56.07	-40.39	-45.5	0.0159	0.2365	-0.5132	
-0.073444	-0.681248	0.609756	-54.81	-40.74	-46.34	0.008599999	0.2472	-0.5181	
-0.0549	-0.69662	0.601338	-57.4	-42.7	-45.85	0.0116	0.247	-0.5106	
-0.026474	-0.721752	0.568154	-57.61	-44.1	-45.43	0	0.2546	-0.5154	
0.000366	-0.757498	0.553514	-57.68	-44.45	-45.71	-0.0043	0.262	-0.5112	
0.02928	-0.759328	0.546194	-54.74	-43.68	-46.97	-0.0233	0.2762	-0.494	
0.047946	-0.763476	0.528382	-54.74	-40.32	-47.11	-0.0265	0.2636	-0.4847	
0.064172	-0.77958	0.5063	-53.55	-35.98	-47.39	-0.0304	0.2898	-0.493	
0.083326	-0.801784	0.488244	-54.74	-36.82	-45.78	-0.0467	0.2937	-0.4858	
0.105286	-0.816058	0.47885	-54.18	-34.72	-44.31	-0.057	0.2946	-0.474	
0.116754	-0.823256	0.467138	-49.42	-33.04	-43.75	-0.0596	0.3114	-0.4761	
0.1342	-0.838384	0.454206	-46.69	-30.17	-42.21	-0.0733	0.3021	-0.4803	
0.152622	-0.851072	0.442494	-42.77	-29.4	-40.53	-0.0774	0.3123	-0.4673	
0.18666	-0.87108	0.446276	-35.84	-28.07	-37.73	-0.0982	0.3113	-0.4526	
0.214842	-0.878278	0.448594	-32.27	-27.72	-35.56	-0.0966	0.3224	-0.4362	
0.220088	-0.882548	0.448228	-28.28	-26.6	-33.81	-0.1116	0.3157	-0.4558	
0.23363	-0.88816	0.438834	-26.95	-24.99	-31.01	-0.11	0.317	-0.4469	
0.237778	-0.889868	0.44225	-23.94	-22.19	-28.63	-0.1174	0.3165	-0.438	
0.242414	-0.88816	0.431392	-20.86	-20.44	-26.6	-0.1232	0.321	-0.4382	
0.245952	-0.88938	0.429928	-20.09	-18.62	-23.94	-0.1249	0.315	-0.444	
0.246562	-0.881328	0.422242	-17.22	-16.17	-22.05	-0.1305	0.3251	-0.4295	
0.251686	-0.865834	0.426024	-15.54	-13.09	-20.37	-0.1291	0.3255	-0.4414	
0.24827	-0.86071	0.414556	-14.77	-9.87	-19.6	-0.1336	0.3222	-0.4368	
0.24095	-0.854244	0.404552	-13.44	-7.63	-19.04	-0.1424	0.3311	-0.4357	
0.238876	-0.845826	0.40687	-13.44	-5.39	-18.69	-0.138	0.3231	-0.4191	
0.226676	-0.853756	0.407602	-14.14	-3.92	-18.69	-0.1468	0.3292	-0.4253	
0.213256	-0.85583	0.39955	-12.67	-4.2	-19.46	-0.1572	0.3336	-0.427	
0.20618	-0.850218	0.402234	-11.06	-5.53	-20.65	-0.1469	0.3277	-0.4282	
0.206912	-0.85034	0.396134	-12.04	-9.03	-21.42	-0.1514	0.326	-0.4252	
0.196664	-0.85156	0.387472	-11.2	-10.78	-22.82	-0.1482	0.3321	-0.4224	
0.185074	-0.863882	0.382348	-11.41	-12.39	-25.41	-0.1575	0.3149	-0.416	
0.184098	-0.86254	0.37759	-10.57	-13.65	-26.6	-0.1604	0.3195	-0.4176	
0.182268	-0.860466	0.37942	-10.85	-16.31	-27.79	-0.1692	0.322	-0.4089	
0.18239	-0.85949	0.36539	-10.92	-18.27	-28.56	-0.1708	0.3206	-0.4133	
0.199104	-0.853512	0.35685	-7.49	-19.67	-30.1	-0.1826	0.3232	-0.4075	
0.205326	-0.850462	0.355386	-6.02	-21.56	-31.85	-0.1917	0.3186	-0.4134	
0.22753	-0.836432	0.352336	-6.16	-24.71	-33.39	-0.1931	0.3183	-0.4045	
0.245464	-0.831918	0.343064	-4.2	-27.72	-35.91	-0.2037	0.3102	-0.3984	
0.274378	-0.825818	0.344528	-5.32	-31.92	-38.01	-0.2095	0.3178	-0.4001	
0.30073	-0.811422	0.326472	0.42	-33.81	-42	-0.217	0.3126	-0.3866	
0.336842	-0.78934	0.32025	3.36	-34.86	-46.9	-0.2292	0.2987	-0.3907	
0.352824	-0.791048	0.318298	0.91	-40.25	-53.34	-0.2247	0.2988	-0.3907	
0.399184	-0.791292	0.30073	0.7	-42.84	-52.29	-0.2428	0.2905	-0.3831	
0.423706	-0.766526	0.27877	4.27	-42.56	-54.25	-0.2502	0.2905	-0.3877	
0.470432	-0.743834	0.286822	1.33	-46.41	-58.45	-0.2565	0.2765	-0.3828	
0.486658	-0.72956	0.261568	4.2	-47.67	-61.74	-0.2653	0.2774	-0.371	
0.516548	-0.706868	0.23729	5.53	-50.61	-64.61	-0.2788	0.2741	-0.3725	
0.539118	-0.692106	0.221552	-7.07	-55.23	-66.85	-0.2864	0.2612	-0.3573	
0.569618	-0.691252	0.230214	-7.84	-57.47	-70.07	-0.2984	0.2577	-0.3498	
0.61488	-0.67893	0.228262	-5.95	-59.15	-71.75	-0.3046	0.2471	-0.3569	
0.66551	-0.65575	0.224846	-2.17	-60.62	-74.9	-0.3139	0.228	-0.3401	
0.635498	-0.638304	0.211426	-13.02	-68.95	-77.84	-0.3347	0.2271	-0.3283	
0.686006	-0.70211	0.223138	-8.33	-65.59	-69.79	-0.3319	0.2147	-0.3205	
0.743712	-0.630252	0.243756	7.56	-62.09	-70.42	-0.3382	0.1961	-0.314	
0.771406	-0.62464	0.235704	6.16	-56.35	-71.47	-0.3574	0.1998	-0.3009	
0.791048	-0.632326	0.210084	7	-55.16	-71.33	-0.3562	0.1859	-0.2945	
0.816058	-0.631472	0.198616	8.96	-47.74	-68.95	-0.3624	0.1733	-0.2882	
0.827404	-0.642452	0.194102	4.69	-45.99	-67.76	-0.3773	0.1696	-0.2793	
0.85217	-0.642086	0.190564	0.98	-41.23	-64.82	-0.3958	0.1416	-0.2755	
0.84851	-0.613782	0.155672	-4.27	-35.98	-60.34	-0.3884	0.1352	-0.2604	
0.847168	-0.585234	0.125172	0.63	-30.87	-53.13	-0.396	0.1274	-0.2602	
0.84119	-0.580354	0.107116	-3.43	-31.64	-49	-0.3904	0.1104	-0.2522	
0.859734	-0.560956	0.088572	5.67	-24.78	-42.42	-0.4007	0.1115	-0.2464	
0.881084	-0.51423	0.069418	8.89	-25.62	-38.29	-0.4068	0.1036	-0.2417	
0.894138	-0.505202	0.060634	7.14	-26.32	-34.72	-0.4113	0.1051	-0.2433	
0.893894	-0.507764	0.060268	3.64	-28.35	-31.71	-0.407	0.0962	-0.2489	
0.891698	-0.49715	0.061732	2.1	-27.86	-28.63	-0.4117	0.0836	-0.2411	
0.905484	-0.487878	0.053802	-3.15	-28.42	-25.69	-0.4101	0.0847	-0.2263	
0.899994	-0.46726	0.043676	-0.84	-27.44	-23.66	-0.422	0.0861	-0.2294	
0.918538	-0.435906	0.029158	-3.85	-26.95	-20.86	-0.4116	0.0847	-0.2263	
0.93147	-0.412238	0.024766	-1.61	-27.93	-18.83	-0.4175	0.08419999	-0.2159	
0.964532	-0.411018	0.006954	-6.16	-28.49	-18.2	-0.4207	0.07009999	-0.2066	
0.953308	-0.405528	-0.006588	-0.84	-22.05	-19.6	-0.4164	0.0658	-0.2124	
0.969168	-0.395646	0.014396	4.06	-20.93	-20.79	-0.4193	0.0669	-0.2006	
0.952942	-0.392596	-0.00915	-1.61	-18.76	-21.21	-0.4226	0.0548	-0.2061	
0.97051	-0.369416	-0.032452	2.45	-13.58	-18.41	-0.421	0.0563	-0.2062	
0.979172	-0.353678	-0.0122	3.64	-8.47	-18.13	-0.418	0.0576	-0.1973	
0.973072	-0.344284	0.001464	-4.06	-8.61	-16.94	-0.4269	0.0606	-0.2019	
0.972096	-0.328668	-0.007076	0.14	-4.97	-16.45	-0.4284	0.0559	-0.1973	
0.970388	-0.319884	-0.016348	-0.84	-3.29	-15.96	-0.4256	0.0499	-0.1986	
0.964898	-0.314516	-0.025376	-0.21	-3.78	-15.75	-0.433	0.0509	-0.1883	
0.96624	-0.30683	-0.030256	-2.66	-4.27	-15.19	-0.4258	0.0373	-0.1878	
0.959652	-0.323056	-0.011102	-2.66	-2.66	-14.28	-0.4227	0.0418	-0.1835	
0.968924	-0.329156	-0.020862	-1.47	-3.43	-13.65	-0.4243	0.0388	-0.1863	
0.962214	-0.32879	-0.019154	-1.19	-1.82	-12.46	-0.4229	0.0344	-0.1892	
0.96502	-0.330376	-0.00915	-0.98	-1.75	-11.27	-0.4243	0.0374	-0.1907	
0.967948	-0.338916	-0.004514	-0.7	-1.47	-9.8	-0.4185	0.0347	-0.1951	
0.987346	-0.319274	-0.003538	0.07	-0.91	-6.86	-0.4275	0.0314	-0.195	
1.012966	-0.30927	0.004636	-1.61	-0.56	-4.62	-0.4215	0.0299	-0.192	
1.025898	-0.310124	0.01769	-0.84	1.82	-3.78	-0.4261	0.0251	-0.1889	
1.02236	-0.311832	0.016592	1.75	3.36	-3.08	-0.4304	0.0345	-0.1996	
1.024312	-0.325984	0.017324	1.4	4.97	-0.49	-0.4125	0.0333	-0.1965	
1.027972	-0.321836	0.016104	4.97	7.28	1.68	-0.4184	0.0362	-0.1951	
1.02358	-0.306708	0.018666	7.21	8.82	4.34	-0.4275	0.0299	-0.1965	
1.019554	-0.298778	0.015616	8.12	9.45	6.86	-0.4289	0.0378	-0.2041	
1.012356	-0.299632	0.010126	9.24	10.15	9.45	-0.4274	0.0343	-0.1892	
1.01016	-0.30378	0.009028	9.45	10.15	12.11	-0.426	0.0332	-0.2025	
1.012844	-0.315004	0.016104	10.08	10.92	14.77	-0.4245	0.03	-0.1964	
1.006866	-0.314028	0.024522	12.11	11.55	17.43	-0.4231	0.0302	-0.2009	
1.012722	-0.310978	0.024034	11.69	12.6	20.37	-0.4169	0.0397	-0.2071	
1.01077	-0.307562	0.031598	11.27	13.37	23.45	-0.4228	0.0442	-0.2088	
1.007354	-0.32086	0.03782	9.17	14	26.25	-0.4183	0.0442	-0.2072	
1.003206	-0.331352	0.043798	10.57	17.64	28	-0.4196	0.0533	-0.2046	
1.01016	-0.33184	0.048678	11.69	19.32	30.45	-0.4286	0.0534	-0.1909	
1.003816	-0.350018	0.055388	8.47	21.77	32.62	-0.4149	0.0673	-0.2109	
0.989664	-0.368928	0.068198	8.19	22.89	34.44	-0.4104	0.0694	-0.2243	
0.980392	-0.388082	0.075884	7.28	24.5	37.1	-0.4135	0.068	-0.2302	
0.944524	-0.413458	0.076128	10.92	31.22	39.55	-0.4072	0.0801	-0.2232	
0.92476	-0.41968	0.084912	13.16	33.53	42.49	-0.4043	0.0773	-0.229	
0.904508	-0.439688	0.090036	8.19	35.77	45.71	-0.4101	0.0914	-0.2428	
0.903532	-0.470066	0.117852	4.34	36.47	50.19	-0.4056	0.0962	-0.2489	
0.91073	-0.494832	0.149816	9.45	41.93	54.25	-0.4011	0.095	-0.2533	
0.879376	-0.503006	0.140056	5.32	45.99	55.65	-0.3935	0.1061	-0.2625	
0.885842	-0.503372	0.152622	12.46	49.56	55.23	-0.3978	0.1151	-0.2598	
0.854732	-0.531432	0.160552	8.82	49.63	56.21	-0.3888	0.1218	-0.2734	
0.819474	-0.567788	0.179096	-0.28	49.42	57.89	-0.384	0.1373	-0.2753	
0.811666	-0.587186	0.208986	3.01	53.13	60.83	-0.384	0.1409	-0.2917	
0.77592	-0.579378	0.219112	3.43	52.5	61.04	-0.3675	0.1474	-0.2918	
0.757864	-0.58682	0.20557	-1.54	52.36	62.44	-0.3734	0.1536	-0.301	
0.736148	-0.590358	0.20008	1.68	55.86	61.25	-0.3656	0.1725	-0.3119	
0.674782	-0.658434	0.226188	-8.19	55.16	64.05	-0.3536	0.1774	-0.315	
0.691618	-0.6283	0.216184	-1.68	53.9	68.81	-0.34	0.1858	-0.327	
0.628666	-0.66673	0.279258	-10.36	48.79	68.32	-0.3294	0.2	-0.3363	
0.63074	-0.68503	0.311832	-5.11	48.93	68.95	-0.3202	0.2127	-0.3426	
0.597068	-0.699182	0.304512	0.49	51.52	67.34	-0.3199	0.2281	-0.349	
0.570106	-0.71858	0.323788	-1.26	49.49	66.15	-0.299	0.2317	-0.3505	
0.511058	-0.740662	0.362218	0.84	52.36	65.38	-0.2946	0.2324	-0.3683	
0.471042	-0.7442	0.354166	1.33	54.46	68.04	-0.2764	0.2449	-0.3656	
0.458964	-0.708576	0.35319	3.43	52.99	69.72	-0.278	0.2451	-0.3715	
0.442616	-0.717848	0.366732	-0.35	53.48	68.11	-0.2643	0.2612	-0.3868	
0.400526	-0.740174	0.364902	1.96	54.88	65.03	-0.2537	0.2674	-0.384	
0.355996	-0.769942	0.354776	-0.77	55.72	63.21	-0.2386	0.2771	-0.3901	
0.304146	-0.81252	0.368928	-1.4	55.86	60.76	-0.2309	0.2928	-0.3965	
0.279014	-0.805688	0.3904	2.87	56	58.38	-0.216	0.2932	-0.4009	
0.233996	-0.800686	0.380518	5.11	56.77	55.44	-0.2041	0.2953	-0.4098	
0.210938	-0.795684	0.381128	4.27	54.11	53.76	-0.1936	0.3002	-0.4113	
0.180682	-0.795074	0.381494	6.65	49.84	50.19	-0.186	0.3066	-0.4159	
0.16104	-0.790072	0.393816	5.6	45.78	46.41	-0.1712	0.3042	-0.4261	
0.14274	-0.77104	0.418948	4.41	40.04	40.39	-0.1546	0.3121	-0.4233	
0.131638	-0.773358	0.42151	4.2	34.44	35.63	-0.1592	0.3125	-0.4367	
0.115412	-0.78324	0.42944	1.05	29.89	31.5	-0.1574	0.3196	-0.4462	
0.093208	-0.79422	0.431758	0.63	25.55	27.58	-0.1489	0.3067	-0.4379	
0.091866	-0.805688	0.443592	0	21.91	24.08	-0.1455	0.3252	-0.4415	
0.082106	-0.816668	0.453474	-1.4	18.76	20.72	-0.1426	0.3221	-0.4384	
0.076738	-0.831796	0.435784	-1.82	14.84	18.27	-0.1351	0.3238	-0.4399	
0.074176	-0.852902	0.446154	-1.82	11.41	16.59	-0.1219	0.3149	-0.438	
0.070882	-0.853146	0.445056	-1.19	9.38	15.75	-0.1307	0.3225	-0.4443	
0.072224	-0.860344	0.444324	0.63	8.12	14.56	-0.1234	0.3149	-0.4395	
0.08052	-0.857538	0.446032	1.82	6.58	13.51	-0.1126	0.3304	-0.4399	
0.087718	-0.856684	0.448838	2.59	5.11	12.46	-0.1201	0.3287	-0.4399	
0.09552599	-0.853756	0.45201	3.5	3.99	11.62	-0.1141	0.3286	-0.4325	
0.102602	-0.842532	0.464088	4.27	2.94	10.85	-0.1111	0.3303	-0.434	
0.104432	-0.840458	0.471164	3.15	2.59	10.36	-0.1141	0.3336	-0.443	
0.101016	-0.824232	0.465674	3.78	2.59	9.31	-0.1037	0.334	-0.4504	
0.105652	-0.81923	0.472018	2.24	1.82	8.89	-0.108	0.3433	-0.4566	
0.112728	-0.832162	0.476166	-0.35	0.42	8.19	-0.1066	0.3322	-0.4429	
0.115168	-0.837042	0.471042	-0.07	-0.42	6.65	-0.1083	0.3279	-0.4532	
0.11529	-0.8418	0.471652	-0.42	-0.84	5.32	-0.105	0.3367	-0.4386	
0.111386	-0.858636	0.46787	-1.61	-1.82	4.2	-0.1113	0.323	-0.4456	
0.107116	-0.863394	0.458476	-0.7	-1.82	2.94	-0.1066	0.332	-0.4385	
0.102602	-0.861442	0.45567	-0.28	-0.77	2.24	-0.1094	0.3444	-0.4463	
0.094306	-0.864614	0.449082	-0.21	-0.42	1.82	-0.1068	0.3279	-0.4517	
0.089548	-0.8601	0.438834	1.12	-0.98	1.05	-0.1082	0.3324	-0.4518	
0.105042	-0.859002	0.44469	2.1	-1.47	0.21	-0.1111	0.3338	-0.4475	
0.108946	-0.855708	0.450302	2.59	-0.84	-0.84	-0.1021	0.3371	-0.4505	
0.108458	-0.853512	0.458476	2.87	0	-1.82	-0.1127	0.3307	-0.4474	
0.109312	-0.855342	0.46482	2.1	-0.42	-2.03	-0.1186	0.3336	-0.449	
0.114314	-0.860466	0.46238	2.03	-1.33	-1.96	-0.0963	0.3312	-0.4517	
0.11651	-0.859856	0.46482	2.24	-1.19	-2.03	-0.1051	0.3354	-0.446	
0.121146	-0.85583	0.465186	2.8	-0.49	-2.38	-0.1095	0.3398	-0.4447	
0.124318	-0.851682	0.4636	3.08	-0.63	-2.66	-0.1068	0.3264	-0.4531	
0.12688	-0.850584	0.465674	2.94	-0.7	-2.87	-0.1037	0.3309	-0.4473	
0.130052	-0.846436	0.466894	2.87	-0.98	-3.01	-0.1083	0.3265	-0.4561	
0.13359	-0.841678	0.468358	3.08	-1.61	-3.22	-0.1068	0.3213	-0.4381	
0.133224	-0.839848	0.471042	3.08	-1.33	-3.5	-0.1008	0.3263	-0.4457	
0.133956	-0.841678	0.469212	2.87	-2.38	-3.71	-0.1068	0.3261	-0.4427	
0.139324	-0.84668	0.472262	2.59	-3.36	-3.92	-0.1111	0.3353	-0.4475	
0.141032	-0.842654	0.47641	3.99	-1.96	-4.69	-0.1068	0.3261	-0.4427	
0.145668	-0.834114	0.483364	4.48	-1.82	-4.76	-0.1098	0.3244	-0.4412	
0.148596	-0.834968	0.485682	3.29	-2.1	-4.34	-0.1084	0.3166	-0.435	
0.149084	-0.832284	0.483974	3.15	-1.82	-4.13	-0.1142	0.326	-0.4443	
0.151158	-0.83265	0.485194	2.24	-1.75	-3.78	-0.1231	0.3272	-0.4429	
0.154818	-0.833626	0.488122	2.24	-2.1	-3.71	-0.1218	0.3197	-0.4456	
0.151646	-0.831308	0.48556	3.15	-1.54	-3.78	-0.1174	0.3183	-0.4455	
0.153964	-0.830088	0.489464	2.59	-0.98	-3.5	-0.1203	0.3197	-0.4426	
0.151768	-0.83387	0.488122	2.1	-1.12	-3.29	-0.1189	0.3185	-0.4515	
0.150426	-0.832284	0.493002	2.1	-0.91	-2.94	-0.1219	0.3201	-0.4575	
0.148474	-0.831796	0.48861	1.54	-1.05	-2.52	-0.1265	0.3104	-0.4424	
0.151402	-0.828624	0.491904	1.26	-0.77	-1.89	-0.1188	0.3229	-0.4486	
0.15128	-0.825818	0.490562	1.19	-0.84	-1.47	-0.1159	0.3202	-0.456	
0.147986	-0.818864	0.496296	0.84	-0.77	-1.12	-0.1159	0.3185	-0.4514	
0.135298	-0.824598	0.49715	0.21	-1.05	-0.77	-0.1114	0.3215	-0.4456	
0.12261	-0.827404	0.502762	-1.12	-2.17	-0.21	-0.1219	0.3166	-0.4425	
0.108824	-0.830454	0.49349	-1.47	-4.62	0.84	-0.1293	0.3196	-0.4456	
0.096502	-0.842288	0.485316	-2.94	-9.31	3.29	-0.1187	0.3243	-0.4427	
0.08723	-0.855586	0.485438	-4.41	-14.49	7.49	-0.1233	0.3229	-0.4516	
0.061854	-0.864736	0.457866	-4.2	-18.06	12.11	-0.1281	0.306	-0.4511	
0.050752	-0.88328	0.461648	-8.33	-22.54	17.78	-0.1159	0.3164	-0.4321	
0.04026	-0.881938	0.430782	-9.17	-30.38	23.66	-0.1276	0.3269	-0.437	
0.04148	-0.90341	0.43066	-10.92	-38.36	28.35	-0.1378	0.3408	-0.4464	
0.057096	-0.913292	0.430294	-7.84	-46.62	31.36	-0.1245	0.3299	-0.4326	
0.07015	-0.913902	0.397232	-4.2	-56.77	37.1	-0.1333	0.3389	-0.4344	
0.086132	-0.901824	0.362828	0.07	-64.12	39.69	-0.1379	0.3312	-0.4342	
0.074176	-0.920612	0.365878	-0.49	-67.9	41.58	-0.1495	0.3431	-0.4317	
0.06344	-0.937326	0.35624	0.77	-71.19	43.12	-0.139	0.3429	-0.4183	
0.061488	-0.950502	0.336232	0.91	-78.82	45.71	-0.1451	0.3363	-0.4077	
0.035868	-0.941718	0.335134	-5.18	-92.54	50.68	-0.1551	0.3495	-0.3993	
0.070394	-0.944646	0.31293	-5.53	-100.38	55.3	-0.1508	0.3433	-0.3946	
0.102114	-0.95282	0.313906	0.14	-107.17	57.19	-0.161	0.349	-0.3874	
0.146522	-0.968924	0.330376	-1.12	-113.4	60.48	-0.1636	0.3657	-0.388	
0.196542	-0.971242	0.310368	1.26	-112.14	64.26	-0.174	0.3634	-0.3702	
0.228262	-0.96441	0.325252	6.79	-107.87	67.41	-0.174	0.3649	-0.3687	
0.244122	-0.920856	0.344528	11.55	-102.76	68.74	-0.1785	0.3618	-0.3716	
0.267668	-0.876204	0.354044	11.13	-97.65	67.62	-0.1872	0.367	-0.3496	
0.292434	-0.894138	0.400282	1.19	-95.34	71.68	-0.1797	0.3653	-0.3391	
0.243634	-0.88755	0.391132	3.29	-84.49	69.51	-0.1882	0.3867	-0.3458	
0.211304	-0.880474	0.39711	0.14	-79.66	68.46	-0.1761	0.3941	-0.3326	
0.188124	-0.872178	0.408944	-4.34	-75.39	67.41	-0.1865	0.3956	-0.3386	
0.152866	-0.875106	0.40931	-5.88	-72.38	65.87	-0.1759	0.4018	-0.3343	
0.11285	-0.879254	0.401258	-7.7	-66.29	63.42	-0.1878	0.4013	-0.327	
0.103456	-0.870104	0.391864	-8.89	-65.94	61.39	-0.1726	0.4073	-0.3122	
0.069418	-0.866566	0.383324	-9.52	-62.72	56.91	-0.1769	0.4164	-0.3125	
0.04758	-0.876326	0.393816	-11.97	-60.06	54.25	-0.1709	0.4145	-0.2991	
0.03965	-0.878156	0.37149	-11.83	-59.57	50.68	-0.1631	0.4283	-0.295	
0.010614	-0.891088	0.379908	-9.87	-57.26	46.48	-0.1693	0.4206	-0.2963	
0.002074	-0.90463	0.375028	-10.43	-54.32	44.87	-0.1661	0.4232	-0.283	
-0.017202	-0.90402	0.385276	-9.87	-52.15	42.49	-0.157	0.4342	-0.2848	
-0.021838	-0.901824	0.375516	-10.57	-51.73	42	-0.1568	0.4369	-0.273	
-0.050386	-0.91744	0.37088	-10.85	-51.73	40.95	-0.1509	0.4387	-0.2789	
-0.034038	-0.918782	0.36173	-9.59	-51.8	38.43	-0.1494	0.4356	-0.2759	
-0.040504	-0.888892	0.346236	-8.33	-51.8	36.96	-0.152	0.4489	-0.2659	
-0.036112	-0.906094	0.383812	-8.68	-50.05	34.65	-0.1472	0.4624	-0.2544	
0.01464	-0.893284	0.379542	-4.69	-48.58	31.57	-0.1504	0.4549	-0.2616	
0.039894	-0.905972	0.374296	-5.46	-44.59	28.77	-0.1397	0.4623	-0.247	
0.04697	-0.892064	0.377102	-3.43	-40.88	25.13	-0.1368	0.4578	-0.2468	
0.053558	-0.87596	0.384422	-0.42	-32.9	20.37	-0.1442	0.4609	-0.2514	
0.032574	-0.88023	0.37942	-0.56	-25.76	17.22	-0.1486	0.4653	-0.2501	
0.038186	-0.867664	0.364048	0.91	-18.9	12.53	-0.1396	0.4652	-0.2426	
0.0244	-0.86986	0.346236	-0.07	-14.56	8.61	-0.1364	0.4763	-0.2504	
0.006954	-0.88633	0.33428	-3.15	-10.08	4.9	-0.1366	0.4621	-0.2365	
0.00305	-0.890112	0.333548	-3.43	-8.12	2.03	-0.1396	0.4685	-0.2501	
-0.007929999	-0.906216	0.347822	-2.94	-5.88	0.21	-0.1353	0.4609	-0.2469	
-0.004026	-0.925736	0.33184	-5.25	-6.23	-0.91	-0.1411	0.4684	-0.2472	
-0.00549	-0.92293	0.302926	-4.06	-4.34	-1.75	-0.1456	0.4652	-0.2456	
-0.00488	-0.929396	0.30866	-2.94	-1.75	-2.38	-0.1306	0.4652	-0.2366	
0.002806	-0.920246	0.314638	-4.2	-1.19	-2.03	-0.1365	0.4666	-0.2367	
0.001708	-0.913902	0.30683	-3.78	-0.63	-1.75	-0.153	0.4633	-0.2382	
-0.00488	-0.942206	0.304268	-5.88	-1.26	-1.4	-0.1454	0.4695	-0.2368	
-0.003782	-0.945744	0.310124	-4.55	-0.84	-1.26	-0.1425	0.4681	-0.2398	
0.002074	-0.93879	0.308416	-3.85	0.7	-0.91	-0.1349	0.4742	-0.2325	
-0.01769	-0.932202	0.296338	-3.78	1.19	-0.98	-0.1393	0.4724	-0.228	
-0.009881999	-0.921222	0.293654	-3.5	0.77	-0.7	-0.1409	0.4712	-0.2398	
-0.014518	-0.940742	0.296582	-4.2	0.56	-0.56	-0.1441	0.4619	-0.2381	
-0.008905999	-0.938302	0.29829	-2.52	1.05	-0.98	-0.1425	0.4679	-0.2323	
-0.013054	-0.934886	0.303414	-2.17	1.61	-0.63	-0.1323	0.456	-0.2363	
0.000854	-0.930006	0.310124	-2.24	2.03	-0.63	-0.1381	0.4636	-0.2381	
-0.006954	-0.926102	0.310124	-2.24	3.43	-0.91	-0.1395	0.4649	-0.2322	
-0.011956	-0.928664	0.311344	-1.96	5.46	-2.17	-0.1467	0.4751	-0.2222	
-0.013664	-0.942816	0.311954	-3.15	5.88	-2.59	-0.144	0.4648	-0.2307	
-0.014274	-0.939888	0.315126	-2.1	7.56	-3.29	-0.1439	0.4709	-0.2324	
-0.02013	-0.952088	0.301096	-2.17	9.17	-3.36	-0.135	0.4649	-0.2292	
-0.043676	-0.941352	0.302072	0.63	10.29	-3.5	-0.1471	0.4618	-0.2366	
-0.061122	-0.934032	0.296338	0.77	10.01	-2.8	-0.1366	0.4636	-0.2366	
-0.062952	-0.936472	0.296704	0.42	9.73	-2.03	-0.1381	0.4637	-0.2411	
-0.054656	-0.935984	0.299266	-0.35	7.7	-1.47	-0.1426	0.4634	-0.2337	
-0.042578	-0.931592	0.304146	0	6.93	-1.75	-0.1365	0.4665	-0.2322	
-0.038918	-0.920368	0.305122	0.84	7.14	-2.73	-0.1396	0.4651	-0.2396	
-0.01708	-0.907314	0.322202	0.77	7.84	-4.97	-0.1324	0.4547	-0.2422	
0.010492	-0.896578	0.335134	0.42	9.38	-8.12	-0.141	0.4664	-0.2338	
0.037698	-0.901824	0.334036	-1.05	12.74	-12.18	-0.144	0.4682	-0.2442	
0.050264	-0.904508	0.321958	-2.94	17.57	-15.05	-0.1395	0.468	-0.2338	
0.052582	-0.913658	0.315614	-3.36	23.24	-17.64	-0.1366	0.4637	-0.2411	
0.056364	-0.93574	0.310368	-4.27	28.63	-20.02	-0.1472	0.4588	-0.2365	
0.059536	-0.93635	0.314638	-2.24	35.84	-22.33	-0.1429	0.4482	-0.2376	
0.06405	-0.941352	0.318176	-1.47	43.26	-24.99	-0.1442	0.4574	-0.2394	
0.073932	-0.91805	0.323422	-0.7	50.19	-27.51	-0.1517	0.4575	-0.2469	
0.076128	-0.915854	0.313906	-0.91	56.49	-29.47	-0.1443	0.4564	-0.2542	
0.081984	-0.901336	0.310856	-0.7	60.69	-32.83	-0.1518	0.453	-0.2497	
0.067466	-0.910486	0.300486	-3.01	64.47	-34.09	-0.1489	0.4566	-0.2647	
0.064904	-0.926834	0.28731	-3.5	67.9	-37.03	-0.1459	0.4568	-0.2691	
0.096258	-0.913658	0.29097	-1.19	72.1	-39.2	-0.1505	0.4537	-0.269	
0.100528	-0.937326	0.277794	-2.31	73.64	-41.51	-0.1612	0.4413	-0.2732	
0.098698	-0.930128	0.266814	3.64	80.43	-43.26	-0.1614	0.4339	-0.2774	
0.084546	-0.933422	0.259616	1.96	86.1	-44.24	-0.1541	0.4296	-0.2831	
0.08235	-0.946598	0.261812	1.82	88.13	-44.8	-0.1676	0.4264	-0.2861	
0.089426	-0.972828	0.265838	1.05	89.53	-45.85	-0.1555	0.4377	-0.2982	
0.09028	-0.953308	0.259616	6.58	91	-47.18	-0.1692	0.4238	-0.3008	
0.088816	-0.95648	0.263398	4.34	92.26	-48.09	-0.1603	0.4258	-0.2842	
0.088328	-0.966606	0.26352	5.18	93.73	-50.19	-0.1544	0.4212	-0.3066	
0.052338	-0.978318	0.253882	4.97	95.48	-52.15	-0.159	0.4185	-0.3199	
0.030378	-0.974048	0.25193	11.34	94.85	-53.83	-0.1564	0.4082	-0.3299	
0.0488	-0.956602	0.269986	8.4	92.4	-54.46	-0.1473	0.4098	-0.324	
0.085888	-0.967216	0.28121	5.95	89.74	-56.07	-0.1459	0.4103	-0.3403	
0.06161	-0.898774	0.264984	13.09	92.33	-59.08	-0.1508	0.397	-0.3548	
0.126514	-0.918172	0.302438	-6.51	88.83	-58.1	-0.1508	0.3985	-0.3563	
0.107604	-0.924638	0.306952	4.13	94.01	-63.63	-0.1479	0.3974	-0.3396	
0.117486	-0.941108	0.304634	1.82	91.84	-65.59	-0.1544	0.376	-0.3704	
0.106994	-0.925614	0.287432	7.21	96.88	-66.64	-0.147	0.3767	-0.3867	
0.114802	-0.949892	0.300486	-1.19	99.75	-66.22	-0.1484	0.3796	-0.3824	
0.105652	-0.940254	0.324398	3.78	101.29	-66.29	-0.1336	0.3807	-0.3805	
0.095038	-0.943304	0.304024	-7.63	97.58	-64.47	-0.1279	0.3651	-0.3907	
0.056608	-0.938302	0.271694	-1.61	99.54	-62.65	-0.1324	0.3702	-0.3846	
0.030622	-0.951722	0.317932	-3.36	94.01	-59.92	-0.1399	0.3654	-0.4327	
0.016348	-0.96502	0.2989	-1.68	85.61	-56.84	-0.1266	0.3642	-0.4085	
-0.02989	-0.981246	0.306464	-5.18	80.43	-51.52	-0.1163	0.3569	-0.4126	
-0.029524	-0.98149	0.307928	-4.41	65.94	-47.04	-0.1208	0.357	-0.4171	
-0.013298	-0.958676	0.324886	-0.63	54.18	-40.67	-0.1269	0.3555	-0.4245	
-0.009272	-0.928298	0.33123	6.02	42.42	-34.93	-0.109	0.3528	-0.4228	
0.027572	-0.918294	0.35624	6.51	30.59	-30.87	-0.1224	0.3557	-0.426	
0.047458	-0.890112	0.356484	11.97	19.18	-28.84	-0.1121	0.3513	-0.4258	
0.066612	-0.899994	0.398574	13.23	19.04	-26.46	-0.1182	0.3469	-0.4331	
0.08845	-0.883402	0.40992	14.91	16.38	-23.45	-0.1183	0.3407	-0.4314	
0.112484	-0.872178	0.419924	11.9	11.48	-20.37	-0.1199	0.3346	-0.4327	
0.148596	-0.871324	0.463966	11.27	8.26	-18.69	-0.12	0.3332	-0.4371	
0.186904	-0.844118	0.491172	14	6.93	-18.83	-0.1139	0.3379	-0.4357	
0.22448	-0.825086	0.483608	12.25	4.13	-19.18	-0.1185	0.3349	-0.4416	
0.244732	-0.823012	0.476166	6.51	0.49	-20.3	-0.1202	0.3242	-0.4413	
0.253516	-0.831674	0.472262	1.68	-4.2	-20.3	-0.1216	0.327	-0.4354	
0.260226	-0.840458	0.455426	1.89	-2.31	-21.63	-0.1274	0.333	-0.4342	
0.239364	-0.835334	0.426634	0.35	3.01	-21.42	-0.1246	0.3287	-0.4414	
0.255468	-0.853146	0.452498	0.35	8.19	-21.42	-0.1291	0.3272	-0.4459	
0.249856	-0.849852	0.436882	-0.63	12.74	-18.69	-0.1336	0.3222	-0.4354	
0.269498	-0.87596	0.449448	-7.21	17.01	-16.1	-0.1293	0.3147	-0.4381	
0.295972	-0.86742	0.483364	-5.18	24.08	-14.63	-0.1262	0.3225	-0.4398	
0.371246	-0.861686	0.46543	-4.69	37.66	-16.8	-0.1247	0.3274	-0.4488	
0.395524	-0.859978	0.476654	-9.52	44.73	-18.62	-0.1206	0.3092	-0.4482	
0.362462	-0.839116	0.468358	-10.5	54.46	-19.6	-0.1128	0.3246	-0.4472	
0.345626	-0.806054	0.434076	-8.54	62.72	-22.05	-0.1024	0.3233	-0.4471	
0.30622	-0.80886	0.40992	-15.05	66.78	-24.85	-0.1024	0.3233	-0.4471	
0.264496	-0.8357	0.39833	-18.76	66.5	-26.88	-0.098	0.3205	-0.4514	
0.270352	-0.835822	0.417118	-15.54	70.35	-29.19	-0.0742	0.321	-0.4512	
0.253028	-0.812398	0.406748	-10.43	76.51	-32.55	-0.0832	0.3179	-0.4571	
0.259738	-0.79727	0.407846	-9.73	79.1	-36.4	-0.0755	0.3304	-0.4605	
0.255834	-0.790682	0.406992	-13.02	75.81	-39.06	-0.0744	0.3154	-0.4674	
0.24339	-0.811666	0.440054	-20.37	71.47	-39.9	-0.0698	0.3166	-0.4811	
0.250466	-0.815326	0.451766	-21.42	72.52	-40.25	-0.0625	0.3125	-0.4628	
0.232898	-0.81679	0.464454	-22.89	72.31	-41.02	-0.0518	0.3233	-0.4601	
0.255956	-0.805078	0.483242	-25.69	73.36	-40.46	-0.0427	0.3312	-0.4632	
0.287554	-0.82045	0.485072	-29.96	76.44	-40.81	-0.0337	0.333	-0.4647	
0.343552	-0.804102	0.482388	-31.57	80.78	-42.21	-0.0337	0.3327	-0.4543	
0.329644	-0.807884	0.45018	-38.5	88.76	-45.08	-0.0233	0.3349	-0.4691	
0.306586	-0.81618	0.407236	-41.09	93.17	-47.74	-0.0203	0.3363	-0.4632	
0.280356	-0.852292	0.389546	-47.32	94.01	-49.28	-0.0141	0.3456	-0.462	
0.230702	-0.89243	0.35868	-44.8	95.83	-51.87	-0.0064	0.3563	-0.4578	
0.199226	-0.903654	0.354654	-39.34	96.74	-52.43	0.0039	0.3536	-0.4607	
0.144936	-0.892308	0.34892	-32.34	95.55	-52.78	0.0099	0.3535	-0.4532	
0.157014	-0.8906	0.31293	-33.74	87.64	-50.68	0.0221	0.3676	-0.4565	
0.156282	-0.907802	0.318298	-33.46	80.92	-48.37	0.0219	0.36	-0.4578	
0.119194	-0.930494	0.28914	-31.01	75.74	-45.01	0.0326	0.369	-0.4461	
0.130296	-0.931104	0.297192	-31.64	67.62	-38.92	0.0373	0.3783	-0.4464	
0.110044	-0.91866	0.330498	-34.86	58.94	-32.55	0.0419	0.3796	-0.4375	
0.12261	-0.92842	0.34892	-35.28	42.28	-28.49	0.057	0.3856	-0.4227	
0.171654	-0.908168	0.329156	-34.23	39.76	-18.34	0.0539	0.388	-0.451	
0.196786	-0.939034	0.345626	-32.48	34.51	-16.45	0.0496	0.3919	-0.4349	
0.196786	-0.88389	0.33916	-19.53	38.57	-20.09	0.0573	0.3996	-0.4321	
0.174826	-0.848144	0.327814	-15.12	40.04	-26.32	0.0649	0.4056	-0.4233	
0.258762	-0.8723	0.33184	-6.44	39.83	-25.34	0.0604	0.4055	-0.4233	
0.188734	-0.843874	0.286456	-10.57	34.58	-30.17	0.0603	0.3995	-0.4276	
0.222894	-0.878034	0.349164	-12.95	27.37	-25.83	0.0589	0.4056	-0.4278	
0.198372	-0.908534	0.33611	-16.31	25.69	-20.79	0.0619	0.404	-0.4218	
0.217404	-0.898774	0.354288	-7.7	22.12	-21	0.06659999	0.4132	-0.4221	
0.209474	-0.879254	0.33977	-8.47	22.4	-20.58	0.07099999	0.4103	-0.4234	
0.251808	-0.887184	0.343308	-5.53	21.91	-21.14	0.0605	0.4067	-0.4145	
0.230702	-0.910364	0.392962	-4.76	19.81	-23.45	0.0692	0.3995	-0.4216	
0.23424	-0.871934	0.329644	-11.48	23.31	-14.35	0.0709	0.4055	-0.4173	
0.236558	-0.883036	0.364292	-1.61	19.32	-13.65	0.0607	0.4142	-0.4103	
0.206912	-0.908656	0.367342	-6.65	19.25	-11.06	0.0577	0.4127	-0.4132	
0.211182	-0.870958	0.368806	-2.66	20.16	-9.45	0.0636	0.4131	-0.4206	
0.212646	-0.870592	0.355508	-5.81	19.6	-6.44	0.0698	0.4255	-0.4224	
0.194956	-0.870836	0.360876	-4.34	14.98	-5.04	0.0651	0.4098	-0.4116	
0.228506	-0.87108	0.35014	-4.97	12.6	-3.99	0.0698	0.4237	-0.415	
0.229482	-0.877424	0.359656	-4.97	12.67	-1.96	0.0696	0.413	-0.4131	
0.21594	-0.915122	0.373198	-7.49	8.68	1.68	0.0741	0.4148	-0.4176	
0.20252	-0.881328	0.375028	-4.55	6.86	2.94	0.0744	0.4268	-0.4121	
0.222284	-0.862418	0.349286	-6.23	6.86	2.1	0.0758	0.4205	-0.4059	
0.210206	-0.882548	0.343064	-7.35	3.71	2.45	0.0831	0.4164	-0.4146	
0.187026	-0.893894	0.33977	-5.53	1.26	2.45	0.0772	0.419	-0.4059	
0.155794	-0.915244	0.323544	-4.2	-0.42	4.2	0.0773	0.4206	-0.4074	
0.169824	-0.906582	0.340868	-0.63	-2.73	5.67	0.0787	0.4175	-0.4058	
0.19154	-0.909022	0.329522	0.28	-4.34	5.95	0.0787	0.4207	-0.4089	
0.172752	-0.917074	0.327936	2.8	-7.42	5.6	0.079	0.4298	-0.4077	
0.203618	-0.909022	0.335988	5.18	-8.96	6.3	0.0849	0.4268	-0.4061	
0.195932	-0.89487	0.34404	6.79	-9.24	7.77	0.0786	0.4146	-0.4102	
0.204716	-0.899262	0.33306	5.39	-10.92	7.63	0.0727	0.4159	-0.4073	
0.21777	-0.89731	0.330376	6.58	-12.81	6.93	0.0801	0.4149	-0.4161	
0.21228	-0.892918	0.335744	6.16	-13.37	8.05	0.0743	0.4224	-0.4164	
0.20313	-0.91866	0.336598	5.25	-14.49	9.59	0.0756	0.418	-0.4222	
0.167262	-0.919636	0.332816	9.8	-15.05	9.94	0.0832	0.4225	-0.4133	
0.150792	-0.911096	0.33672	12.6	-15.68	11.06	0.0681	0.4132	-0.4191	
0.13908	-0.91805	0.325862	15.12	-18.62	12.39	0.0756	0.4183	-0.4296	
0.116876	-0.928786	0.319396	16.94	-21.77	14.07	0.0742	0.421	-0.4208	
0.089426	-0.928542	0.32025	19.6	-23.8	16.03	0.074	0.4134	-0.422	
0.104432	-0.940376	0.340258	20.02	-29.26	18.27	0.0696	0.4132	-0.4206	
0.125904	-0.94916	0.334524	22.33	-35.98	21.14	0.0677	0.3983	-0.4305	
0.16958	-0.920612	0.33306	24.01	-39.48	22.89	0.062	0.4119	-0.431	
0.158966	-0.905362	0.32025	24.15	-41.72	25.69	0.0601	0.3969	-0.4409	
0.131272	-0.928176	0.317078	22.05	-44.45	28.56	0.0647	0.3984	-0.4364	
0.10797	-0.91378	0.314272	26.11	-46.34	30.45	0.0572	0.3999	-0.4395	
0.13054	-0.912438	0.325862	25.83	-49.49	33.39	0.0538	0.3801	-0.4434	
0.14579	-0.90951	0.355752	32.62	-52.43	35.35	0.0525	0.3892	-0.4437	
0.231434	-0.784582	0.354288	48.37	-57.26	31.57	0.0553	0.3848	-0.448	
0.261324	-0.820084	0.386618	16.38	-76.93	37.8	0.0504	0.3666	-0.4548	
0.21045	-0.894016	0.367586	15.61	-78.96	37.87	0.0238	0.3736	-0.4537	
0.174094	-0.921466	0.348066	16.1	-77.84	36.96	0.0281	0.3692	-0.4551	
0.161772	-0.93574	0.352092	16.03	-75.67	40.67	0.0206	0.3692	-0.461	
0.150182	-0.926346	0.335622	18.41	-76.09	43.68	0.0192	0.3721	-0.4567	
0.152378	-0.88084	0.336842	29.89	-76.09	45.36	0.0131	0.3641	-0.4491	
0.21472	-0.841556	0.366488	27.65	-80.01	45.64	0.0101	0.3625	-0.4505	
0.228872	-0.867542	0.35746	20.02	-86.38	45.15	0.0039	0.3551	-0.4607	
0.211304	-0.885842	0.338306	21	-87.85	44.24	-0.0005	0.3534	-0.4577	
0.168238	-0.906704	0.331718	23.1	-87.36	45.43	-0.0183	0.3528	-0.4534	
0.178608	-0.907436	0.333182	23.8	-90.72	48.58	-0.0199	0.348	-0.4458	
0.222162	-0.906704	0.33733	25.76	-91.56	53.27	-0.0183	0.3576	-0.4595	
0.228018	-0.893162	0.361242	28.7	-92.47	55.44	-0.0333	0.3527	-0.4594	
0.271694	-0.872056	0.358192	27.16	-91.07	55.51	-0.044	0.3418	-0.4606	
0.315858	-0.864614	0.366488	24.78	-88.48	55.02	-0.0409	0.3416	-0.4532	
0.335744	-0.849364	0.389424	24.85	-87.36	53.41	-0.0501	0.329	-0.4454	
0.33001	-0.848388	0.419436	19.53	-88.41	51.66	-0.0573	0.3443	-0.4519	
0.319274	-0.899018	0.383202	16.1	-88.97	50.26	-0.0679	0.3349	-0.4531	
0.340258	-0.873764	0.424194	18.34	-83.44	49.42	-0.07099999	0.3302	-0.45	
0.369172	-0.836676	0.42273	19.53	-78.33	46.97	-0.0693	0.3411	-0.4563	
0.3477	-0.84729	0.427854	18.34	-73.08	43.89	-0.0812	0.3376	-0.4503	
0.31293	-0.829234	0.43066	17.99	-67.76	42.07	-0.0916	0.3372	-0.4459	
0.306708	-0.832284	0.420168	17.36	-64.33	38.36	-0.0917	0.3356	-0.4444	
0.303658	-0.817156	0.42273	19.46	-58.94	33.04	-0.08859999	0.3371	-0.4415	
0.323178	-0.798368	0.434808	20.72	-55.65	28.42	-0.1065	0.3398	-0.4432	
0.324398	-0.798856	0.439078	19.39	-51.66	24.64	-0.1142	0.3272	-0.4369	
0.324398	-0.805078	0.443226	19.25	-46.13	20.93	-0.123	0.3348	-0.4416	
0.305122	-0.805444	0.452132	18.55	-38.64	16.94	-0.1124	0.3361	-0.4253	
0.286212	-0.810446	0.446276	17.5	-29.4	13.58	-0.1216	0.3286	-0.437	
0.286456	-0.819474	0.470554	15.26	-22.75	12.25	-0.1172	0.3257	-0.4398	
0.283406	-0.814106	0.471652	15.89	-15.61	10.78	-0.1201	0.3303	-0.4415	
0.26596	-0.824354	0.476044	14.28	-12.6	9.52	-0.1232	0.3227	-0.4427	
0.238632	-0.826062	0.487268	13.79	-4.55	7.42	-0.1203	0.3227	-0.4427	
0.2318	-0.824964	0.47519	13.16	-0.21	6.44	-0.1308	0.3161	-0.4337	
0.215574	-0.823866	0.493246	9.24	4.2	6.72	-0.1202	0.3208	-0.4323	
0.214842	-0.846314	0.503006	2.94	6.51	5.74	-0.1217	0.324	-0.4353	
0.224602	-0.826184	0.487146	4.83	0.56	6.02	-0.1206	0.309	-0.4438	
0.16348	-0.845582	0.485438	5.25	8.26	4.06	-0.1248	0.3181	-0.4456	
0.149328	-0.838506	0.484584	3.57	7.28	3.64	-0.1292	0.3209	-0.4412	
0.132858	-0.849852	0.474946	2.52	8.68	4.06	-0.1158	0.3179	-0.4336	
0.116022	-0.849852	0.473848	2.8	9.52	4.34	-0.1189	0.3182	-0.4426	
0.10492	-0.856928	0.469822	1.05	8.61	5.25	-0.1173	0.3194	-0.4322	
0.107726	-0.856196	0.469212	-0.7	6.44	6.23	-0.1116	0.3108	-0.4452	
0.092232	-0.856806	0.468846	-0.56	3.71	6.58	-0.1097	0.3277	-0.4472	
0.104066	-0.854366	0.466406	-2.24	1.61	7	-0.1083	0.3246	-0.4457	
0.09699	-0.848998	0.458476	-0.21	-0.56	6.3	-0.1097	0.3292	-0.4473	
0.08686399	-0.877058	0.435174	-2.31	-5.46	7.49	-0.1052	0.3259	-0.4368	
0.068686	-0.903654	0.436272	-2.73	-8.4	9.03	-0.1053	0.3213	-0.4351	
0.036966	-0.903654	0.428952	0	-14.91	12.39	-0.1143	0.3214	-0.4441	
0.019764	-0.89487	0.41541	-1.05	-20.3	15.82	-0.1067	0.3291	-0.4428	
0.016958	-0.89121	0.404674	-3.5	-29.19	19.46	-0.1096	0.332	-0.44	
