Sensor string: E
Serial number: 1970-01-75959973
Firmware version: NaN
Hardware version: 4,387476E-38
Calibration quality: 204
ax	ay	az	gx	gy	gz	mx	my	mz

-0.986736	0.081008	0.193126	1.19	-1.4	-1.47	0.3871	0.094	-0.2854	Reference
-0.986858	0.093818	0.20374	-1.12	-0.7	-0.91	0.3871	0.09079999	-0.2884	
-0.9943	0.095648	0.213866	-3.78	0.77	0.42	0.381	0.105	-0.2868	
-0.993568	0.081984	0.2074	-2.17	1.26	1.33	0.3914	0.1032	-0.2911	
-0.987468	0.06954	0.20008	2.17	1.4	1.4	0.3886	0.094	-0.2854	
-0.983198	0.075884	0.19703	6.3	1.47	0.98	0.3871	0.0957	-0.2709	
-0.978318	0.089304	0.199348	6.09	1.05	0.28	0.3782	0.0926	-0.2826	
-0.98393	0.097966	0.205814	1.12	-0.07	-0.56	0.3811	0.09869999	-0.2869	
-0.987346	0.089792	0.211548	-4.62	-0.42	-0.7	0.3884	0.1064	-0.2882	
-0.986004	0.073688	0.210206	-7	-0.14	-0.49	0.3856	0.0972	-0.281	
-0.988688	0.064294	0.20923	-5.04	0.98	0.07	0.387	0.1002	-0.2854	
-0.993324	0.07124799	0.209108	-1.12	3.43	1.47	0.3826	0.0972	-0.284	
-0.99247	0.082594	0.206668	-1.05	5.95	3.08	0.3886	0.094	-0.2825	
-0.991494	0.081496	0.200324	-3.5	6.37	3.85	0.387	0.1002	-0.2854	
-0.9943	0.07259	0.189832	-4.76	4.83	3.01	0.3826	0.09559999	-0.2854	
-0.99613	0.072468	0.188002	-3.99	3.15	1.54	0.3901	0.0939	-0.2869	
-0.994544	0.072468	0.190198	-3.78	2.17	0.7	0.387	0.1034	-0.2839	
-0.99186	0.074176	0.191662	-2.31	0.7	-0.21	0.3856	0.0971	-0.2854	
-0.991006	0.075274	0.189954	-1.54	0	-0.42	0.3944	0.1017	-0.2824	
-0.991372	0.069784	0.18666	-3.43	1.05	0.42	0.3722	0.0958	-0.2811	
-0.997838	0.071004	0.192394	-2.94	1.68	0.98	0.3825	0.1003	-0.2868	
-0.997594	0.070394	0.194224	-1.47	2.03	1.33	0.3796	0.0972	-0.2825	
-0.994178	0.069418	0.192638	0.14	2.1	1.61	0.3945	0.1002	-0.2824	
-0.99247	0.071736	0.188124	2.31	0.56	0.84	0.3914	0.1048	-0.2868	
-0.988688	0.083082	0.185684	4.48	-1.19	-0.14	0.3871	0.094	-0.2796	
-0.986492	0.09552599	0.183976	4.48	-1.96	-0.56	0.3795	0.1051	-0.2781	
-0.989908	0.09455	0.183244	2.24	-2.24	-0.14	0.3811	0.0988	-0.2767	
-0.992592	0.092354	0.183488	0	-1.89	0.07	0.3767	0.0958	-0.2767	
-0.993446	0.08357	0.188124	0.07	-0.84	0.56	0.3931	0.0939	-0.281	
-0.99613	0.08845	0.192882	1.89	0.07	0.77	0.3842	0.091	-0.2797	
-0.996008	0.089304	0.193736	2.8	0.35	0.91	0.3959	0.1033	-0.278	
-0.996252	0.089792	0.19398	4.76	-0.63	0.49	0.402	0.0955	-0.2752	
-0.994056	0.092354	0.191052	5.11	-1.75	-0.35	0.3842	0.091	-0.2797	
-0.992348	0.09333	0.189222	4.13	-2.87	-1.12	0.3798	0.0879	-0.2782	
-0.989298	0.092598	0.18849	1.68	-3.01	-1.54	0.3855	0.1003	-0.281	
-0.994422	0.093086	0.19032	0.28	-2.59	-1.54	0.3915	0.0986	-0.2839	
-0.999546	0.091256	0.192028	-1.4	-1.61	-0.63	0.3826	0.09869999	-0.2839	
-1.004182	0.08967	0.19215	-2.73	-0.35	0.35	0.3841	0.0925	-0.284	
-1.011136	0.094428	0.193492	-0.14	-1.12	0.07	0.3886	0.0955	-0.284	
-1.015406	0.09942999	0.198982	-0.63	-2.73	-0.63	0.3781	0.0988	-0.281	
-1.013454	0.100162	0.200202	0.28	-5.46	-2.59	0.384	0.1035	-0.2781	
-1.009062	0.102846	0.197274	3.22	-8.68	-4.13	0.3839	0.1096	-0.2911	
-1.005402	0.099796	0.181048	4.27	-10.36	-4.48	0.3811	0.1004	-0.2796	
-1.015406	0.095892	0.167872	4.34	-11.27	-4.83	0.3797	0.0926	-0.2811	
-1.01138	0.092476	0.161406	2.94	-13.16	-5.74	0.3765	0.1051	-0.2839	
-1.009916	0.095404	0.174826	1.68	-16.24	-8.33	0.3796	0.09869999	-0.2883	
-1.015406	0.09942999	0.194712	4.62	-19.04	-10.08	0.3781	0.1002	-0.2941	
-1.011868	0.092476	0.203862	7.56	-20.23	-9.94	0.3692	0.0972	-0.3	
-0.998936	0.083082	0.21045	9.45	-20.79	-9.38	0.3676	0.1035	-0.2956	
-0.99186	0.075884	0.221674	10.85	-23.03	-10.36	0.3706	0.1018	-0.3072	
-0.99857	0.074298	0.238754	8.96	-25.06	-11.41	0.3721	0.0955	-0.3102	
-1.01565	0.068564	0.2623	6.79	-26.25	-11.27	0.3676	0.097	-0.3131	
-1.014186	0.055998	0.272182	8.54	-28.56	-11.76	0.3631	0.1049	-0.313	
-1.005768	0.061244	0.26474	11.83	-31.15	-12.11	0.3616	0.1049	-0.313	
-0.99491	0.072224	0.25498	15.12	-33.81	-12.39	0.3512	0.1019	-0.3189	
-0.991372	0.074054	0.264618	12.46	-36.26	-12.88	0.3498	0.094	-0.3277	
-0.984052	0.078202	0.277916	13.79	-39.76	-13.72	0.3363	0.1019	-0.3335	
-1.006378	0.063318	0.280478	17.01	-43.54	-12.53	0.3378	0.0988	-0.3292	
-0.959408	0.066612	0.297436	23.17	-43.47	-12.11	0.3304	0.09739999	-0.3292	
-0.97661	0.053314	0.325496	19.32	-40.81	-10.36	0.323	0.0926	-0.3424	
-0.95587	0.075518	0.308172	30.52	-41.09	-10.78	0.3155	0.1005	-0.3496	
-0.970998	0.10248	0.304756	38.01	-42.98	-9.45	0.3124	0.1052	-0.3524	
-0.95648	0.085034	0.320982	18.97	-46.55	-10.92	0.3096	0.0911	-0.357	
-0.95099	0.068442	0.339648	24.85	-51.31	-11.41	0.2991	0.0989	-0.3685	
-0.941596	0.061244	0.365512	34.58	-51.38	-10.08	0.3051	0.091	-0.3701	
-0.918904	0.056608	0.370026	36.75	-46.41	-8.54	0.2872	0.0942	-0.3832	
-0.920734	0.080764	0.363438	44.1	-39.41	-6.16	0.2828	0.08639999	-0.3905	
-0.949038	0.0854	0.406382	38.78	-43.47	-7.07	0.2814	0.0818	-0.3833	
-0.914756	0.04697	0.453718	32.34	-49.84	-10.99	0.2784	0.0801	-0.3921	
-0.904996	0.039162	0.505202	35.28	-51.87	-10.78	0.2666	0.0771	-0.3965	
-0.870104	0.080642	0.444446	41.58	-47.6	-9.1	0.2624	0.0584	-0.3953	
-0.909876	0.088816	0.399916	43.61	-38.57	-7.91	0.2578	0.0646	-0.4127	
-0.87169	0.057218	0.41663	45.22	-47.32	-10.29	0.2547	0.0693	-0.4097	
-0.85034	0.07564	0.529358	41.44	-60.55	-12.39	0.2311	0.0571	-0.4143	
-0.842166	0.071004	0.50935	34.09	-48.16	-9.45	0.2223	0.0493	-0.4202	
-0.830698	0.081862	0.497882	34.51	-50.33	-7.14	0.2178	0.0508	-0.4289	
-0.806908	0.084302	0.554856	34.02	-60.9	-8.96	0.2194	0.0336	-0.4335	
-0.787998	0.08295999	0.560102	28.91	-58.03	-8.26	0.2047	0.0259	-0.4394	
-0.771894	0.080642	0.565104	22.54	-57.4	-8.05	0.1896	0.0386	-0.4437	
-0.751032	0.105774	0.604022	29.26	-59.99	-7.35	0.1794	0.0262	-0.4438	
-0.733952	0.122488	0.615002	23.87	-57.26	-6.86	0.1749	0.0231	-0.4497	
-0.706746	0.10858	0.634278	23.24	-58.45	-5.88	0.169	0.0215	-0.4527	
-0.693814	0.10248	0.660996	14.28	-62.44	-5.67	0.1616	0.0169	-0.4542	
-0.68625	0.100894	0.669414	9.31	-63	-5.11	0.1409	0.0094	-0.4558	
-0.673806	0.088084	0.686738	4.2	-63.77	-5.88	0.1335	0.0079	-0.4602	
-0.648796	0.098942	0.698206	5.67	-64.75	-4.55	0.1319	0.0126	-0.4572	
-0.626348	0.091378	0.720288	2.17	-64.19	-4.69	0.1319	0.0125	-0.4659	
-0.602924	0.094794	0.710894	-1.26	-64.4	-3.71	0.1141	0.007999999	-0.469	
-0.579744	0.114558	0.75579	4.55	-65.38	-3.64	0.09779999	0.0051	-0.4661	
-0.56364	0.096502	0.77043	-4.06	-64.12	-2.31	0.0857	0.021	-0.4631	
-0.564006	0.08295999	0.783972	-2.87	-61.95	-1.82	0.07539999	0.0084	-0.4792	
-0.54961	0.061244	0.7991	-6.65	-62.72	-1.89	0.0739	0.0132	-0.4763	
-0.527894	0.101504	0.820084	-3.57	-59.78	0.63	0.0412	0.0168	-0.4749	
-0.477996	0.066978	0.817278	-8.05	-58.1	1.19	0.0427	0.0121	-0.4735	
-0.47641	0.06283	0.834602	-5.32	-57.4	1.61	0.0204	0.0107	-0.4808	
-0.469822	0.063684	0.857538	-6.58	-56.91	1.33	0.0233	0.017	-0.4779	
-0.450668	0.057218	0.861686	-7.49	-55.37	1.47	0.0084	0.0186	-0.4852	
-0.415898	0.071126	0.869738	-4.55	-52.36	2.8	0.007	0.0156	-0.4779	
-0.42883	0.058072	0.899262	-8.05	-51.38	2.03	-0.0139	0.03	-0.4764	
-0.388326	0.056364	0.900604	-4.55	-49.21	1.89	-0.0168	0.0205	-0.4896	
-0.385398	0.056486	0.909998	-7.7	-45.15	2.66	-0.0213	0.027	-0.475	
-0.396988	0.061854	0.91622	-2.17	-39.76	0.49	-0.0317	0.0255	-0.4837	
-0.350506	0.09333	0.915	-4.69	-40.46	2.31	-0.0391	0.0239	-0.4896	
-0.34587	0.083204	0.920978	-8.89	-37.24	1.4	-0.039	0.0163	-0.4737	
-0.353312	0.078934	0.92293	-5.46	-36.26	0.49	-0.0437	0.0303	-0.4823	
-0.331352	0.060268	0.93635	-7	-34.93	0.56	-0.0436	0.0272	-0.4823	
-0.321104	0.045018	0.93879	-10.15	-32.13	0.91	-0.0645	0.029	-0.4838	
-0.33062	0.05734	0.954772	-4.76	-31.57	-0.21	-0.063	0.029	-0.4823	
-0.28304	0.059414	0.947574	-6.23	-28.77	0.7	-0.066	0.0339	-0.4721	
-0.264008	0.06527	0.95953	-5.74	-26.88	0.56	-0.0674	0.026	-0.4766	
-0.25681	0.034892	0.972218	-7.84	-25.48	-0.35	-0.0703	0.0213	-0.4781	
-0.2318	0.04575	0.975146	-3.92	-23.59	0.07	-0.0881	0.0216	-0.4752	
-0.23851	0.037942	0.986248	-5.39	-20.93	0.42	-0.0883	0.0357	-0.4736	
-0.228872	0.04636	0.990762	-2.24	-18.9	1.12	-0.09119999	0.0342	-0.4693	
-0.22936	0.030378	0.989664	-3.71	-17.08	1.68	-0.0958	0.0405	-0.4736	
-0.223748	0.038674	0.99918	-1.33	-15.05	1.89	-0.0972	0.0374	-0.4736	
-0.24461	0.041114	1.00406	0.98	-11.06	1.96	-0.0942	0.0311	-0.4751	
-0.216794	0.051606	1.011868	1.96	-11.48	2.24	-0.0897	0.0311	-0.4649	
-0.230824	0.050386	1.017724	2.73	-8.12	2.38	-0.1032	0.0359	-0.4708	
-0.21472	0.049044	1.019432	1.33	-6.65	2.1	-0.1031	0.0313	-0.4693	
-0.211304	0.048678	1.020652	1.47	-3.57	1.82	-0.0971	0.0265	-0.4708	
-0.204106	0.037454	1.026874	2.73	-1.33	1.68	-0.1061	0.0361	-0.4649	
-0.200812	0.04514	1.017114	2.1	0.84	1.89	-0.1046	0.0345	-0.4635	
-0.192272	0.040016	1.012966	2.17	3.08	1.61	-0.09869999	0.0327	-0.4722	
-0.191662	0.036112	1.00833	2.38	5.39	1.4	-0.1015	0.0249	-0.4738	
-0.188734	0.03233	1.011502	3.36	7.49	1.12	-0.1016	0.0265	-0.4708	
-0.196542	0.038918	1.009794	3.85	9.73	1.12	-0.1031	0.0296	-0.4766	
-0.202154	0.048312	1.01443	4.13	13.02	0.49	-0.0985	0.0235	-0.4621	
-0.20984	0.042578	1.017358	4.69	15.68	0.49	-0.09869999	0.0327	-0.4722	
-0.211792	0.053314	1.021018	5.81	17.85	0.35	-0.09559999	0.0249	-0.4694	
-0.21472	0.066002	1.019066	6.16	21.63	0.21	-0.09119999	0.0296	-0.4621	
-0.226188	0.075762	1.0126	5.46	25.69	-0.14	-0.0867	0.0264	-0.4664	
-0.226066	0.078934	1.006988	6.51	29.05	-0.49	-0.0792	0.0232	-0.4665	
-0.234362	0.083326	0.997228	7.91	36.96	-0.35	-0.0689	0.0275	-0.4882	
-0.21838	0.072224	0.984784	8.47	41.3	1.05	-0.07319999	0.0182	-0.4796	
-0.26108	0.075274	0.974902	9.45	44.59	0.63	-0.0569	0.018	-0.4781	
-0.27084	0.081618	0.960384	10.01	48.93	0.63	-0.0525	0.0195	-0.4853	
-0.305366	0.08295999	0.951112	10.92	54.18	0.21	-0.0405	0.0131	-0.481	
-0.327814	0.090646	0.929762	10.15	57.68	0.21	-0.033	0.0099	-0.4752	
-0.348554	0.08052	0.914146	9.8	61.32	0.14	-0.0242	0.0176	-0.4751	
-0.376614	0.076494	0.896944	10.43	63.14	0.56	-0.0196	0.0129	-0.4737	
-0.403332	0.081496	0.877546	11.69	66.29	0.21	-0.0092	0.0063	-0.4882	
-0.420046	0.085034	0.866078	10.5	67.83	0.28	0.007	0.0141	-0.4779	
-0.4514	0.090158	0.845582	10.92	70.63	0.14	0.0219	0.0123	-0.4765	
-0.476654	0.091134	0.821914	9.87	72.59	0.14	0.0338	0.009	-0.4765	
-0.518012	0.096868	0.79544	10.08	73.92	-0.21	0.0383	0.0089	-0.4808	
-0.53314	0.109068	0.767258	8.89	75.25	-0.35	0.0576	0.0102	-0.4793	
-0.561688	0.10126	0.739808	6.23	76.37	-1.33	0.06659999	0.0008	-0.4706	
-0.584136	0.100406	0.711626	4.83	77.63	-1.26	0.077	0.0102	-0.4603	
-0.620736	0.118584	0.702354	6.86	79.73	-1.82	0.092	-0.0073	-0.4779	
-0.635376	0.10065	0.683078	0.14	80.15	-1.75	0.1083	-0.0012	-0.4691	
-0.652822	0.103456	0.66368	3.36	81.9	-1.19	0.1142	0.0034	-0.4632	
-0.694668	0.103456	0.63867	-0.98	83.44	-1.12	0.1307	-0.0012	-0.4457	
-0.698206	0.111264	0.61427	-3.15	80.57	-0.42	0.1381	-0.0014	-0.4574	
-0.723948	0.10919	0.59902	-7.98	82.25	0.28	0.153	-0.0062	-0.4414	
-0.736392	0.119926	0.575596	-9.03	79.59	1.47	0.1736	0.0153	-0.444	
-0.75396	0.13115	0.552538	-11.2	82.53	4.76	0.1917	-0.0019	-0.431	
-0.774578	0.116388	0.521916	-19.74	81.34	5.67	0.2109	0.0055	-0.4352	
-0.794952	0.12078	0.50447	-20.58	78.12	8.12	0.2168	0.0103	-0.4235	
-0.790316	0.111996	0.474946	-26.46	76.72	8.96	0.2272	0.0148	-0.4235	
-0.81679	0.12932	0.449204	-33.32	74.69	10.57	0.248	0.0083	-0.4235	
-0.815448	0.13664	0.424926	-38.43	72.94	12.18	0.2509	0.0224	-0.4146	
-0.845216	0.12383	0.412116	-42.7	72.8	12.32	0.2642	0.0286	-0.4087	
-0.886208	0.107482	0.391254	-49.91	71.89	9.73	0.2627	0.0333	-0.4028	
-0.890966	0.112972	0.382348	-56.21	69.3	8.96	0.276	0.038	-0.3882	

-0.923906	0.11224	0.364414	-69.37	70.49	7	0.2952	0.0489	-0.3734	
-0.945378	0.11163	0.344772	-69.37	66.22	5.74	0.307	0.0596	-0.3777	
-0.944646	0.10553	0.303292	-80.57	64.61	4.2	0.3099	0.0676	-0.3601	
-0.949892	0.085522	0.271572	-80.01	65.66	7.28	0.3158	0.07539999	-0.3542	
-0.984052	0.085644	0.255346	-74.62	61.46	7.98	0.3366	0.0799	-0.3454	
-1.014918	0.07686	0.242536	-68.32	48.72	9.66	0.335	0.0862	-0.3395	
-1.049078	0.09333	0.258152	-55.23	49.7	17.57	0.3379	0.094	-0.3379	
-1.02114	0.080032	0.238266	-47.95	48.79	19.04	0.3422	0.1097	-0.329	
-1.005158	0.073444	0.212158	-39.13	42.49	18.13	0.3498	0.09079999	-0.3292	
-0.988566	0.081252	0.196542	-27.65	40.67	18.69	0.3616	0.1033	-0.3189	
-0.992104	0.074542	0.19337	-19.11	44.94	20.51	0.369	0.1112	-0.3071	
-1.00955	0.103212	0.186782	-5.53	45.5	22.47	0.3722	0.0924	-0.3	
-1.008696	0.125538	0.164944	2.38	46.34	22.26	0.3796	0.094	-0.2942	
-1.015284	0.142252	0.148718	-5.04	47.39	21.77	0.3797	0.091	-0.2797	
-1.000278	0.137006	0.133834	-18.55	46.76	19.53	0.3944	0.1001	-0.2868	
-0.997716	0.1281	0.142008	-29.89	46.62	20.23	0.4006	0.08769999	-0.2709	
-1.021628	0.143716	0.148474	-23.24	42.91	19.67	0.3991	0.0894	-0.2651	
-1.033096	0.1464	0.156404	-23.66	38.92	18.2	0.405	0.0973	-0.2504	
-1.029802	0.153598	0.162016	-21.98	33.95	17.01	0.3991	0.0895	-0.2549	
-1.020408	0.144326	0.13969	-20.58	29.26	15.4	0.4095	0.0925	-0.2519	
-1.0065	0.129076	0.125904	-24.57	26.6	15.33	0.4111	0.0847	-0.2491	
-1.002718	0.128466	0.112606	-21.7	21.7	14.42	0.4185	0.0925	-0.2417	
-1.01077	0.138714	0.092354	-18.83	22.4	14.56	0.4185	0.0894	-0.2374	
-1.019066	0.149572	0.073932	-22.05	25.27	14.7	0.4199	0.0957	-0.23	
-1.026874	0.168238	0.059292	-26.53	22.89	13.93	0.4185	0.0879	-0.2345	
-1.028338	0.174704	0.03416	-25.2	23.24	13.51	0.4304	0.0925	-0.2286	
-1.013454	0.174948	0.0183	-23.1	23.66	12.95	0.4291	0.0816	-0.2244	
-1.00101	0.17812	0.008784	-18.69	20.23	11.62	0.4275	0.0879	-0.2185	
-1.00223	0.172386	0.006466	-17.36	15.54	10.15	0.429	0.0832	-0.22	
-1.000644	0.171776	0.018666	-17.99	13.09	8.12	0.432	0.0879	-0.2185	
-1.024922	0.164822	0.036112	-13.58	12.6	6.3	0.426	0.0911	-0.2199	
-1.027728	0.165188	0.053924	-0.98	10.78	3.36	0.432	0.0832	-0.2156	
-1.02785	0.16897	0.059414	3.01	7.91	3.15	0.4335	0.0895	-0.2112	
-1.024678	0.174338	0.062708	-1.12	7.49	3.08	0.4276	0.0849	-0.2083	
-0.990396	0.177876	0.059414	-1.68	7.98	1.12	0.432	0.0849	-0.2098	
-0.995642	0.173728	0.055388	-10.85	7.49	1.33	0.4367	0.07229999	-0.2099	
-1.005158	0.164456	0.054168	-11.76	6.72	2.59	0.4381	0.0786	-0.1996	
-1.009794	0.154452	0.031842	-10.71	4.34	2.1	0.4291	0.0802	-0.2127	
-1.01077	0.153842	0.025132	-12.53	2.66	2.24	0.4364	0.0927	-0.1995	
-1.006134	0.164944	0.03599	-19.04	2.59	2.03	0.4395	0.08639999	-0.1995	
-0.988444	0.16287	0.03233	-26.88	3.64	2.45	0.4469	0.0848	-0.201	
-0.985882	0.16043	0.023302	-26.53	6.72	4.48	0.4276	0.0881	-0.2025	
-0.994666	0.157014	0.0305	-21.07	9.66	8.4	0.4365	0.0881	-0.1981	
-0.993202	0.169336	0.035868	-17.64	12.11	10.15	0.4455	0.0817	-0.1938	
-0.996374	0.172874	0.039772	-14.35	14	11.83	0.435	0.0913	-0.1937	
-0.993202	0.18544	0.056608	-5.67	13.3	12.39	0.438	0.0881	-0.1908	
-1.022604	0.190564	0.043676	-2.87	13.09	12.32	0.444	0.0819	-0.1836	
-1.022604	0.19947	0.06039	-21.77	15.26	15.47	0.444	0.0786	-0.1952	
-0.990762	0.195322	0.044774	-19.39	16.38	18.55	0.4439	0.0897	-0.185	
-0.992226	0.193004	0.038552	-18.2	17.22	17.36	0.4367	0.0773	-0.1807	
-0.996862	0.199714	0.040382	-22.05	16.66	18.34	0.4455	0.0819	-0.1778	
-1.0065	0.194224	0.028548	-17.43	14.35	18.41	0.4412	0.07099999	-0.1764	
-1.027484	0.193126	0.024522	-20.3	10.78	14.63	0.4529	0.085	-0.1762	
-1.015162	0.190564	0.015982	-21.98	10.01	12.25	0.4516	0.0693	-0.1793	
-1.006012	0.185562	0.006588	-21.35	8.47	10.5	0.4516	0.0741	-0.172	
-0.9882	0.193858	-0.003172	-17.85	7.91	9.59	0.4517	0.07099999	-0.1677	
-0.984662	0.202154	-0.008417999	-13.86	8.54	10.85	0.4502	0.07099999	-0.1662	
-0.987224	0.213988	-0.013176	-8.75	9.24	13.16	0.4547	0.0662	-0.1706	
-0.990396	0.235582	-0.007198	-4.83	11.55	15.75	0.4577	0.0632	-0.1634	
-0.999912	0.247172	-0.011468	-3.29	13.79	17.71	0.4518	0.0601	-0.1649	
-0.994178	0.25986	-0.019886	1.68	16.8	19.04	0.4607	0.06	-0.1605	
-0.976244	0.27816	-0.031598	8.82	18.9	21.28	0.4549	0.0524	-0.1533	
-0.96258	0.29768	-0.044408	14.28	19.04	22.96	0.4565	0.0477	-0.1519	
-0.959774	0.310856	-0.052216	13.51	18.41	24.78	0.461	0.0414	-0.1505	
-0.965386	0.322202	-0.049776	9.87	19.67	23.1	0.461	0.0461	-0.149	
-0.974536	0.337452	-0.06222	3.71	18.62	17.43	0.47	0.0397	-0.1476	
-0.980026	0.341234	-0.072834	-3.36	15.61	12.04	0.467	0.0414	-0.1447	
-0.982832	0.333426	-0.07686	-9.8	11.27	8.12	0.4567	0.0305	-0.1506	
-0.979416	0.326838	-0.068808	-17.57	7.14	4.76	0.4552	0.0337	-0.1462	
-0.971852	0.314272	-0.057218	-17.78	4.34	3.29	0.4582	0.0321	-0.1419	
-0.973682	0.307562	-0.061122	-8.96	3.22	2.94	0.4671	0.0368	-0.1374	
-0.9821	0.30866	-0.06344	-4.13	2.38	2.24	0.4552	0.0291	-0.1419	
-0.987102	0.313906	-0.067832	-3.01	2.59	1.4	0.4671	0.0368	-0.1316	
-0.987346	0.317932	-0.07381	-2.24	2.66	0.84	0.4626	0.0337	-0.1346	
-0.997594	0.319518	-0.08418	0.49	1.19	-0.07	0.4537	0.0354	-0.136	
-0.987712	0.320372	-0.085888	2.38	-0.91	-2.03	0.4656	0.0337	-0.136	
-0.966606	0.320494	-0.083692	0.49	-3.71	-5.67	0.4701	0.0336	-0.1375	
-0.965508	0.323422	-0.08113	0.35	-5.32	-7.28	0.4655	0.0415	-0.1359	
-0.977708	0.325496	-0.076372	5.32	-5.46	-7.28	0.4686	0.0305	-0.1375	
-0.992958	0.323056	-0.076982	9.1	-4.9	-8.12	0.4625	0.0431	-0.1359	
-0.997472	0.322324	-0.072956	9.03	-5.04	-9.73	0.467	0.0429	-0.1432	
-1.001132	0.32147	-0.066612	9.03	-7.56	-11.83	0.4654	0.0477	-0.1417	
-1.005402	0.319152	-0.048922	9.31	-10.92	-14.63	0.461	0.043	-0.1432	
-1.017724	0.31171	-0.034038	10.78	-12.81	-17.71	0.4655	0.0413	-0.1505	
-1.01565	0.291458	-0.028304	9.87	-13.79	-20.65	0.4565	0.0462	-0.1476	
-1.025044	0.275964	-0.022814	10.15	-17.08	-22.82	0.4535	0.0509	-0.1461	
-1.043222	0.26047	-0.025864	16.94	-23.03	-25.41	0.4652	0.0601	-0.1518	
-1.058838	0.229848	-0.055266	26.39	-34.16	-29.68	0.4607	0.06	-0.159	
-1.056276	0.227652	-0.04758	38.57	-41.02	-33.04	0.4546	0.0725	-0.1706	
-1.013576	0.227408	-0.034282	40.95	-47.95	-36.47	0.4517	0.0662	-0.175	
-0.97173	0.22509	-0.015006	43.26	-50.89	-38.01	0.4576	0.0692	-0.1793	
-0.970632	0.229482	0.039894	48.93	-48.93	-37.38	0.4501	0.0724	-0.1851	
-1.003816	0.218624	0.081252	45.78	-46.62	-35.28	0.4425	0.0848	-0.2039	
-1.050542	0.191784	0.08052	51.24	-42	-30.59	0.4335	0.085	-0.1996	
-1.07116	0.169946	0.078202	61.6	-40.18	-23.52	0.4395	0.0816	-0.2112	
-1.061278	0.14152	0.051362	59.15	-42.49	-20.23	0.4247	0.0756	-0.2113	
-1.039074	0.146644	0.051728	59.22	-42.14	-20.93	0.4231	0.0848	-0.2229	
-0.998326	0.164334	0.069906	54.32	-56.42	-23.94	0.4245	0.083	-0.2418	
-0.917806	0.189954	0.108092	62.65	-54.39	-20.3	0.4187	0.0722	-0.239	
-0.987224	0.18178	0.09821	53.97	-42.77	-21.07	0.4097	0.0785	-0.2419	
-0.995886	0.156038	0.121024	28.28	-35.63	-13.3	0.4007	0.0816	-0.2564	
-1.045296	0.154696	0.12444	16.94	-37.94	-18.06	0.4052	0.0831	-0.2579	
-0.99552	0.155672	0.14335	3.71	-35.91	-16.94	0.3991	0.0845	-0.2797	
-0.988322	0.13176	0.107482	37.66	-43.61	-21.21	0.4022	0.0782	-0.2783	
-0.951966	0.13115	0.099308	44.38	-51.1	-20.37	0.3932	0.0862	-0.2768	
-0.977342	0.192516	0.18605	37.8	-60.62	-22.75	0.3873	0.0784	-0.2783	
-0.93452	0.070394	0.096746	18.13	-76.09	-23.87	0.3664	0.08	-0.3016	
-0.94367	0.067588	0.093086	-0.84	-60.97	-23.73	0.3737	0.0923	-0.3131	
-0.912682	0.135542	0.15128	-9.03	-37.52	-17.85	0.3604	0.0831	-0.3104	
-0.951478	0.135176	0.163968	-9.45	-33.74	-15.96	0.3514	0.0847	-0.3176	
-0.968802	0.05185	0.341112	33.04	-54.81	-27.23	0.3529	0.0861	-0.3278	
-0.955138	0.017934	0.414068	72.17	-62.72	-33.25	0.335	0.0831	-0.3381	
-0.906216	-0.07503	0.472994	53.62	-32.13	-9.59	0.3439	0.0893	-0.338	
-0.94855	0.002074	0.447618	75.39	-18.9	5.11	0.3322	0.0722	-0.3367	
-0.98088	0.089548	0.27267	59.92	-25.41	-1.05	0.3323	0.0658	-0.3499	
-0.991494	0.230824	0.12322	59.85	-43.75	-10.71	0.3381	0.0704	-0.3571	
-0.988932	0.194468	0.113094	10.08	-55.79	-14.7	0.3249	0.058	-0.3616	
-0.954406	0.123708	0.239486	14.91	-73.08	-18.83	0.3203	0.0674	-0.363	
-0.906338	0.044164	0.393938	40.18	-64.89	-13.58	0.3025	0.0613	-0.3718	
-0.921832	0.035258	0.505446	58.66	-37.24	-4.48	0.3011	0.0582	-0.3704	
-0.962214	0.132004	0.416996	70.63	-22.26	-0.14	0.3072	0.0456	-0.3735	
-0.915244	0.141642	0.301706	39.69	-27.93	-2.52	0.2953	0.041	-0.3794	
-0.946598	0.12688	0.29097	37.45	-48.72	-8.54	0.2953	0.041	-0.3794	
-0.896578	0.126148	0.402356	48.37	-47.95	-6.44	0.2806	0.0269	-0.3955	
-0.893406	0.1708	0.422852	45.5	-49.98	-9.38	0.2672	0.0239	-0.4	
-0.882548	0.154208	0.383202	22.82	-43.82	-4.83	0.2718	0.0176	-0.4	
-0.874252	0.11712	0.397842	30.66	-49.7	-3.64	0.2614	0.0177	-0.4044	
-0.8357	0.08686399	0.465796	37.8	-52.15	0.49	0.248	0.0146	-0.419	
-0.83265	0.108458	0.497394	28.63	-63.63	-1.75	0.2451	0.0116	-0.4147	
-0.865224	0.16104	0.485682	22.47	-53.34	-2.03	0.2348	0.0022	-0.4221	
-0.84546	0.139934	0.499834	12.95	-57.61	-5.74	0.2303	-0.0008	-0.4265	
-0.797636	0.147498	0.495442	18.83	-58.31	-2.17	0.2156	-0.0084	-0.4237	
-0.779458	0.140788	0.530456	17.57	-61.04	1.96	0.2155	-0.0022	-0.4295	
-0.768478	0.07137	0.608536	11.62	-63.98	2.45	0.2022	-0.0098	-0.4311	
-0.76311	0.13725	0.567544	2.66	-70.35	1.89	0.1917	-0.0034	-0.4325	
-0.77409	0.131638	0.592188	3.08	-65.87	-0.7	0.1887	-0.0051	-0.4456	
-0.74298	0.133468	0.628788	2.52	-67.2	-0.49	0.1709	-0.0095	-0.4413	
-0.728706	0.138104	0.641842	4.27	-63.42	1.05	0.159	-0.0064	-0.453	
-0.694302	0.108092	0.675392	1.4	-65.73	2.1	0.1546	-0.011	-0.4501	
-0.678442	0.14213	0.687348	0.21	-68.39	3.36	0.1456	-0.0062	-0.4559	

-0.604144	0.134444	0.732976	-3.78	-63.14	-0.28	0.1247	-0.0044	-0.4589	
-0.607682	0.131638	0.737124	-4.62	-59.5	-1.05	0.1099	-0.0089	-0.459	
-0.598166	0.11773	0.752374	-2.38	-58.03	-0.14	0.0964	-0.0026	-0.4677	
-0.561078	0.135054	0.753472	-4.2	-56.77	0.98	0.0876	-0.0088	-0.4721	
-0.5429	0.130418	0.771162	-6.79	-58.17	1.19	0.0757	-0.0102	-0.4736	
-0.522282	0.129686	0.783728	-5.81	-55.23	-0.14	0.0637	-0.0006	-0.4692	
-0.501298	0.118096	0.807762	-5.11	-50.05	1.12	0.052	-0.0129	-0.465	
-0.500322	0.115534	0.820206	-2.66	-47.95	0.35	0.0458	-0.0004	-0.4765	
-0.486414	0.12322	0.831918	-2.45	-44.1	0.63	0.04	-0.0049	-0.4693	
-0.463112	0.146156	0.851438	-2.17	-41.72	2.59	0.0296	-0.0095	-0.4723	
-0.479582	0.142252	0.844728	-2.17	-35.14	2.24	0.0354	0.0043	-0.4794	
-0.496296	0.156038	0.874374	3.64	-30.87	2.17	0.0176	-0.0032	-0.4752	
-0.467504	0.13237	0.866322	-3.92	-29.96	3.36	0.0176	0.0014	-0.4795	
-0.4392	0.128466	0.874496	-2.8	-31.22	3.22	0.0176	-0.0017	-0.4839	
-0.45079	0.14213	0.879864	-1.68	-29.33	3.57	0	-0.0092	-0.4797	
-0.433466	0.127612	0.86986	-3.78	-31.57	3.99	0.0042	-0.0015	-0.4796	
-0.432368	0.13237	0.878888	-2.31	-29.05	4.27	-0.0061	0.0001	-0.4796	
-0.425902	0.121024	0.886452	-2.8	-29.68	3.99	-0.009	-0.009099999	-0.4768	
-0.41053	0.116144	0.898652	-3.57	-28.91	4.27	-0.009	-0.006	-0.4796	
-0.409188	0.108214	0.907314	-3.99	-28.98	4.83	-0.0136	0.0018	-0.4796	
-0.400404	0.102968	0.901946	-5.04	-28.56	5.18	-0.015	-0.0027	-0.4782	
-0.40138	0.101626	0.90951	-5.04	-28.07	4.48	-0.0254	-0.0042	-0.4782	
-0.389546	0.114924	0.903654	-4.2	-27.44	3.71	-0.0388	0.0021	-0.4796	
-0.364902	0.119072	0.91195	-4.62	-27.37	3.71	-0.0328	-0.0009	-0.4709	
-0.376858	0.113948	0.920246	-4.62	-27.44	3.36	-0.0507	0.0008	-0.4768	
-0.3782	0.106506	0.929274	-4.27	-26.46	3.78	-0.0567	0.0023	-0.4841	
-0.366488	0.12078	0.936594	-2.87	-25.2	3.57	-0.0523	0.0087	-0.4738	
-0.357948	0.115534	0.94062	-4.76	-24.99	2.1	-0.0625	-0.0052	-0.4769	
-0.34404	0.115778	0.95221	-3.57	-24.08	1.89	-0.0538	0.0087	-0.4753	
-0.325984	0.134566	0.953552	-2.8	-23.24	1.19	-0.0643	0.0135	-0.4781	
0.308782	0.119926	0.961726	10.57	-22.26	-2.8	-0.07319999	0.0167	-0.4767	
-0.27023	0.079422	0.997716	-3.92	-20.23	-0.77	-0.0761	0.0073	-0.4797	
-0.280112	0.113582	0.969534	-4.13	-18.48	0.49	-0.0731	0.0058	-0.471	
-0.263398	0.120902	0.97051	-4.34	-15.68	0.77	-0.0775	0.0074	-0.4768	
-0.246928	0.119072	0.986126	-3.5	-14.35	0.42	-0.0819	-0.0003	-0.4783	
-0.239364	0.106262	0.989054	-3.01	-11.83	0.14	-0.088	0.0122	-0.4826	
-0.22814	0.102358	0.998814	-2.59	-7.77	-0.28	-0.0849	0.0028	-0.474	
-0.221796	0.102602	1.00833	-1.89	-5.18	0.49	-0.0865	0.0122	-0.4797	
-0.218746	0.104798	1.014674	-0.77	-2.24	0.77	-0.0834	0.0077	-0.4594	
-0.216062	0.1037	1.01687	-0.35	1.26	0.63	-0.0835	0.0106	-0.4739	
-0.2135	0.09747799	1.012356	0.14	4.76	0.07	-0.0895	0.0154	-0.4753	
-0.217282	0.085156	1.009306	2.1	7.84	-0.49	-0.08199999	0.009	-0.4768	
-0.222772	0.098332	1.008086	3.64	10.64	-0.14	-0.0806	0.0153	-0.4767	
-0.234606	0.10187	1.007964	4.13	13.72	-0.42	-0.0715	0.0042	-0.4725	
-0.247538	0.109068	0.99796	4.83	16.8	-0.63	-0.0775	0.0059	-0.471	
-0.248758	0.118706	1.003572	3.92	18.76	-1.47	-0.0775	0.0011	-0.4812	
-0.25986	0.110166	1.003938	2.24	21.91	-2.1	-0.07889999	-0.0019	-0.4754	
-0.27267	0.11285	0.991738	1.68	24.15	-2.03	-0.0641	0.0025	-0.4768	
-0.284504	0.122366	0.985272	1.82	27.51	-2.38	-0.0612	0.0087	-0.4796	
-0.290238	0.13054	0.981734	0.77	29.26	-2.66	-0.0582	0.004	-0.4753	
-0.288042	0.112362	0.976732	-1.4	34.16	-2.87	-0.0581	0.0009	-0.4739	
-0.302072	0.101626	0.962946	-1.89	38.22	-2.8	-0.0418	0.0037	-0.484	
-0.309636	0.108702	0.951722	-0.91	41.23	-2.59	-0.0403	0.0022	-0.4753	
-0.330376	0.110166	0.94367	0.77	46.13	-2.59	-0.0255	0.0066	-0.4839	
-0.350628	0.100894	0.921466	2.31	51.1	-3.01	-0.0255	0.0051	-0.481	
-0.372832	0.115534	0.903044	5.39	57.05	-2.24	-0.0239	-0.0011	-0.4796	
-0.399672	0.102724	0.879498	4.2	61.11	-2.66	-0.018	0.0035	-0.4767	
-0.431514	0.097722	0.863272	6.93	63.07	-2.38	0.0055	0.0126	-0.4736	
-0.461282	0.103212	0.83143	4.27	65.52	-1.75	0.0175	0.006	-0.4853	
-0.484218	0.114924	0.834846	8.05	65.59	-1.54	0.0146	0.0014	-0.4839	
-0.499834	0.105408	0.810446	6.44	68.11	-1.54	0.0384	-0.0035	-0.4795	
-0.531676	0.108458	0.795806	8.68	69.72	-1.05	0.0474	-0.0036	-0.4766	
-0.5551	0.099186	0.77226	8.12	71.4	-1.47	0.0606	0.0103	-0.4691	
-0.577914	0.122854	0.74542	8.82	72.87	-0.63	0.077	0.0023	-0.4706	
-0.60085	0.123098	0.736636	8.89	73.29	-0.84	0.0772	-0.0101	-0.4649	
-0.619272	0.120536	0.717238	6.09	74.9	-0.42	0.0964	-0.0025	-0.4633	
-0.629642	0.118706	0.698816	3.01	75.95	-0.49	0.1069	-0.0058	-0.4648	
-0.651114	0.128466	0.666974	1.19	76.93	-0.07	0.1263	-0.0107	-0.4633	
-0.673318	0.123708	0.650748	-1.33	77	-0.7	0.1353	-0.0187	-0.4619	
-0.680516	0.129198	0.619516	-5.95	77	-0.14	0.147	-0.0031	-0.4544	
-0.70394	0.138714	0.602802	-5.95	77.28	0.7	0.1707	0.0012	-0.4543	
-0.732244	0.115046	0.589504	-13.09	78.05	0.42	0.1724	-0.009699999	-0.4544	
-0.763842	0.118462	0.545218	-14	77.56	2.87	0.1887	-0.0067	-0.4427	
-0.78751	0.105408	0.521794	-20.16	75.11	3.71	0.1961	-0.0037	-0.447	
-0.800686	0.116754	0.494832	-23.24	74.34	3.36	0.208	0.0025	-0.4353	
-0.837042	0.136518	0.483608	-21.91	73.99	3.5	0.2169	0.0024	-0.4265	
-0.847046	0.142618	0.468236	-23.8	68.74	4.34	0.2302	0.0133	-0.4191	
-0.859124	0.125416	0.451766	-35.21	66.15	4.06	0.2421	0.01	-0.4147	
-0.851194	0.128588	0.445666	-37.94	61.53	4.2	0.2465	0.0179	-0.4088	
-0.833748	0.115534	0.422852	-45.78	59.08	2.94	0.2597	0.0254	-0.4145	
-0.82472	0.101992	0.392962	-52.64	61.53	0.35	0.2612	0.0286	-0.4116	
-0.88633	0.10492	0.38674	-56.7	65.66	-0.07	0.2656	0.0349	-0.397	
-0.877302	0.10797	0.343308	-68.67	59.43	0	0.2847	0.0566	-0.3923	
-0.891332	0.098332	0.325252	-76.86	66.36	0.35	0.2907	0.0552	-0.3734	
-0.912194	0.089914	0.333548	-75.32	62.09	0.56	0.3024	0.0707	-0.3703	
-0.923418	0.112362	0.317688	-89.88	54.53	0.84	0.3188	0.069	-0.3644	
-0.997106	0.08784	0.317444	-98.91	52.15	3.64	0.3084	0.07229999	-0.3572	
-1.038342	0.07381	0.331718	-84.98	46.13	6.02	0.3215	0.0909	-0.3569	
-1.006988	0.022082	0.362218	-79.24	51.03	16.24	0.3214	0.102	-0.3481	
-1.01992	0.046726	0.286578	-53.34	49.7	17.57	0.3259	0.1005	-0.335	
-1.024922	0.07137	0.27755	-43.68	53.34	19.6	0.3436	0.1176	-0.3202	
-1.023336	0.083448	0.239242	-33.95	53.62	22.68	0.3437	0.1098	-0.3218	
-1.014552	0.083692	0.219966	-25.83	48.65	23.45	0.351	0.1175	-0.3202	
-1.00589	0.085644	0.212036	-27.93	46.27	24.22	0.3629	0.1222	-0.3056	
-0.995398	0.073078	0.204228	-25.9	44.1	24.08	0.36	0.1145	-0.3013	
-0.983564	0.068076	0.182878	-25.69	43.61	24.43	0.3764	0.1143	-0.2998	
-0.985638	0.066002	0.179828	-19.88	43.82	25.2	0.3823	0.1221	-0.291	
-0.989908	0.086376	0.18056	-14.07	42.14	23.94	0.3839	0.1128	-0.2809	
-1.01016	0.085156	0.166896	-5.53	38.08	21.84	0.3869	0.1097	-0.2765	
-1.027118	0.09162199	0.149694	-6.93	34.79	19.39	0.3943	0.1127	-0.2765	
-1.022238	0.10065	0.139568	-4.06	31.08	18.13	0.3944	0.1098	-0.2605	
-1.04798	0.11163	0.131028	3.22	29.05	16.45	0.396	0.102	-0.2577	
-1.028582	0.120536	0.126148	-3.43	26.74	15.89	0.4034	0.1034	-0.2591	
-1.004304	0.11834	0.117974	-10.92	23.59	16.66	0.4064	0.09869999	-0.2562	
-0.972462	0.123708	0.106506	-15.12	24.43	16.59	0.4109	0.1003	-0.2547	
-0.964532	0.123342	0.099552	-16.52	27.16	17.99	0.4021	0.0941	-0.2534	
-0.98332	0.133468	0.104798	-16.87	29.82	18.2	0.4184	0.09869999	-0.2417	
-1.006744	0.139446	0.112606	-14.28	30.59	18.69	0.4126	0.0879	-0.2374	
-1.021506	0.137006	0.087718	-7.91	26.53	16.17	0.4169	0.0988	-0.2387	
-1.002718	0.125172	0.079788	-16.73	25.06	14.98	0.4244	0.0957	-0.2271	
-0.993812	0.128588	0.07442	-19.25	24.29	15.47	0.4289	0.0926	-0.2228	
-0.998082	0.123952	0.069784	-16.73	26.95	17.71	0.4335	0.0879	-0.2155	
-0.993324	0.13664	0.07124799	-14	27.58	18.06	0.4261	0.0817	-0.22	
-1.00711	0.147132	0.080154	-15.89	26.67	17.85	0.4335	0.08	-0.2214	
-1.011624	0.153232	0.077958	-14.28	24.78	17.29	0.4365	0.0832	-0.2127	
-1.012478	0.156404	0.065636	-15.89	24.64	16.94	0.4351	0.0786	-0.2069	
-1.015406	0.15921	0.057218	-16.24	25.27	17.5	0.444	0.0848	-0.201	
-1.020652	0.17141	0.054656	-13.72	25.27	18.2	0.4367	0.0741	-0.1924	
-1.001132	0.177022	0.03355	-8.96	22.96	18.9	0.4456	0.0724	-0.1924	
-0.97905	0.190076	0.01037	-2.31	21.07	17.22	0.4456	0.074	-0.1851	
-0.981978	0.205204	0.013664	-7.77	21.7	19.39	0.4472	0.0645	-0.1939	
-0.992104	0.2196	0.015982	-3.85	23.17	19.11	0.4457	0.0662	-0.1837	
-0.997228	0.23546	0.005612	-3.71	23.94	18.97	0.4398	0.0649	-0.1707	
-0.99613	0.241804	-0.008784	-2.1	23.87	19.18	0.4547	0.0661	-0.1794	
-0.999058	0.244976	-0.025864	-2.59	23.03	19.53	0.4489	0.0506	-0.1781	
-0.983564	0.243634	-0.047946	-6.93	22.96	19.95	0.4474	0.0507	-0.1723	
-0.974658	0.253882	-0.047458	-13.86	23.1	19.95	0.4533	0.0553	-0.1737	
-0.998326	0.265106	-0.053558	-13.09	22.33	19.25	0.4623	0.0552	-0.1678	
-1.012112	0.265838	-0.0671	-18.34	21.49	18.2	0.4535	0.0462	-0.1505	
-1.00894	0.266936	-0.08174	-28.35	20.02	16.87	0.4623	0.0506	-0.162	
-0.983564	0.26901	-0.087108	-29.82	16.94	15.05	0.4522	0.0336	-0.155	
-0.9699	0.268766	-0.087962	-32.9	13.72	12.6	0.4595	0.0414	-0.1461	
-0.96868	0.276818	-0.084424	-34.65	13.16	11.69	0.461	0.0414	-0.1491	
-0.979904	0.289872	-0.07137	-31.43	13.65	11.2	0.4536	0.0367	-0.1549	
-0.981246	0.30134	-0.06161	-29.82	13.79	9.87	0.464	0.0399	-0.1432	
-0.977952	0.315858	-0.051728	-24.78	12.18	11.76	0.4699	0.0445	-0.1388	
-0.97173	0.314272	-0.065514	-16.73	11.06	12.18	0.4701	0.0273	-0.1434	
-0.970998	0.31964	-0.074542	-11.55	14.91	13.72	0.4628	0.0212	-0.1376	
-0.968558	0.332206	-0.063074	-18.27	17.5	16.1	0.4671	0.0352	-0.1404	
-0.959042	0.339526	-0.083448	-21.56	15.96	18.2	0.4687	0.0273	-0.1405	
-0.943792	0.350628	-0.099796	-20.51	15.19	18.76	0.4702	0.0274	-0.1303	
-0.945744	0.363072	-0.108702	-24.99	16.87	19.74	0.4717	0.0243	-0.1303	
-0.96014	0.363682	-0.116266	-25.83	18.97	19.6	0.4687	0.0244	-0.123	
-0.964776	0.364048	-0.12322	-23.03	16.24	16.94	0.4762	0.0243	-0.1216	
-0.951722	0.364658	-0.142862	-10.92	9.8	12.53	0.4688	0.0197	-0.1231	
-0.94001	0.379176	-0.129198	-7.98	7.49	10.36	0.4629	0.0152	-0.1144	
-0.956968	0.376004	-0.102968	-12.46	7.28	8.75	0.4689	0.0151	-0.1159	
-0.96258	0.366244	-0.086986	-14.63	5.39	6.44	0.4734	0.0119	-0.1173	
-0.959774	0.365756	-0.078446	-6.86	3.43	4.83	0.466	0.0122	-0.1014	
-0.955992	0.360144	-0.082594	-1.54	3.85	4.55	0.4645	0.0105	-0.1145	
-0.950258	0.364658	-0.0793	3.5	4.9	3.99	0.466	0.0089	-0.113	
-0.95282	0.36844	-0.08418	4.55	4.83	2.87	0.4779	0.0119	-0.113	
-0.9577	0.362462	-0.096014	3.92	3.85	1.61	0.4674	0.0151	-0.1144	
-0.957944	0.366854	-0.104798	3.92	0.98	-0.91	0.4778	0.0135	-0.1115	
-0.95648	0.380518	-0.107482	5.67	-0.28	-2.24	0.4719	0.0136	-0.1086	
-0.950014	0.389668	-0.10675	3.22	0.49	-1.82	0.4629	0.0183	-0.1158	
-0.943792	0.388936	-0.110166	3.43	2.17	-2.17	0.469	0.0042	-0.1145	
-0.936472	0.384056	-0.121512	6.51	2.94	-2.8	0.4749	0.0088	-0.1145	
-0.938912	0.377224	-0.12749	7.98	3.15	-3.57	0.4749	0.0135	-0.1115	
-0.955016	0.372344	-0.12871	4.69	1.26	-4.48	0.4644	0.0183	-0.1144	
-0.953064	0.368074	-0.12749	1.4	-1.96	-6.02	0.4793	0.0151	-0.0998	
-0.94245	0.369172	-0.116022	-0.63	-4.34	-7.49	0.4703	0.0182	-0.1173	
-0.959652	0.371734	-0.102724	1.26	-4.9	-8.26	0.4779	0.0073	-0.1057	
-0.97905	0.361242	-0.101626	5.11	-4.34	-10.29	0.4733	0.0229	-0.1114	
-0.991006	0.355874	-0.100162	8.4	-6.86	-12.18	0.4688	0.0261	-0.1128	
-0.995886	0.352824	-0.087108	9.45	-10.71	-14.35	0.4658	0.0261	-0.1172	
-0.99613	0.341844	-0.077714	11.41	-14.21	-17.08	0.4687	0.0261	-0.1143	
-0.99613	0.32452	-0.076006	15.75	-17.92	-20.16	0.4746	0.0322	-0.1157	
-1.011868	0.312564	-0.075518	25.48	-22.33	-23.52	0.4746	0.0305	-0.1331	
-1.032364	0.310734	-0.088572	33.88	-27.79	-26.6	0.4612	0.0322	-0.1288	
-1.037976	0.31903	-0.08418	44.52	-31.64	-28.14	0.4626	0.0384	-0.136	
-0.989542	0.318908	-0.083692	45.36	-37.17	-27.65	0.4596	0.0353	-0.1404	
-0.957822	0.313418	-0.07503	42.84	-44.1	-27.86	0.4581	0.0399	-0.1447	
-0.976244	0.315858	-0.085766	53.9	-41.93	-27.02	0.4579	0.0523	-0.1519	
-0.98454	0.31415	-0.082594	43.4	-32.69	-20.86	0.4506	0.0446	-0.1549	
-1.003694	0.28609	-0.090646	30.38	-29.75	-21.56	0.4563	0.0554	-0.162	
-1.040904	0.266692	-0.092354	16.66	-35.28	-22.89	0.4549	0.0507	-0.1664	
-1.048956	0.254614	-0.08601	14.42	-42.35	-25.13	0.4549	0.0523	-0.1635	
-1.024068	0.237656	-0.076006	21.07	-46.2	-26.11	0.4547	0.0631	-0.1765	
-1.001132	0.224724	-0.061122	32.62	-50.05	-24.36	0.4503	0.0567	-0.1882	
-0.987102	0.21167	-0.044774	44.31	-49.35	-21.14	0.4443	0.0631	-0.1852	
-1.007842	0.20313	0.01586	59.22	-48.44	-17.57	0.4382	0.06439999	-0.2129	
-1.043954	0.199104	0.03904	60.13	-54.32	-18.9	0.4337	0.066	-0.2187	
-1.02541	0.186172	0.058804	43.12	-56.77	-24.15	0.4293	0.0628	-0.2246	
-0.998448	0.155428	0.070516	40.46	-57.47	-23.17	0.4248	0.0628	-0.2333	
-0.981612	0.127734	0.11346	26.11	-44.1	-21.63	0.4129	0.06439999	-0.2406	
-0.977952	0.124318	0.130052	48.58	-35.42	-22.4	0.4174	0.058	-0.2479	
-0.990396	0.147376	0.12383	66.5	-32.97	-20.3	0.4144	0.0628	-0.245	
-0.959896	0.1891	0.078202	45.85	-31.71	-20.02	0.407	0.0597	-0.2537	
-0.922076	0.21106	0.049898	38.64	-33.39	-17.99	0.413	0.0518	-0.2567	
-0.949404	0.207034	0.065026	2.31	-37.66	-21.14	0.401	0.0596	-0.2654	
-0.998692	0.189466	0.066978	3.01	-42.21	-24.78	0.4039	0.0658	-0.2653	
-0.9821	0.220454	0.085644	24.22	-51.03	-21.77	0.3934	0.0674	-0.277	
-0.990274	0.214842	0.045872	18.62	-57.96	-23.8	0.3875	0.0643	-0.2872	
-1.002108	0.224236	0.096868	24.01	-62.51	-23.73	0.3845	0.0642	-0.2916	
-0.990518	0.138836	0.114924	3.92	-58.87	-20.16	0.3754	0.0783	-0.3016	
-0.9882	0.10309	0.17873	-12.6	-53.41	-20.09	0.368	0.0705	-0.3105	
-0.956968	0.108824	0.235948	-4.34	-45.99	-15.47	0.3649	0.0784	-0.3075	
-0.94306	0.098942	0.295972	-0.91	-46.41	-17.01	0.3574	0.0799	-0.3206	
-0.958066	0.031842	0.40809	32.34	-54.04	-24.78	0.3618	0.08769999	-0.3147	
-0.941596	-0.010492	0.443714	61.6	-66.22	-28.07	0.3395	0.0863	-0.3307	
-0.90768	0.034526	0.488244	85.61	-58.24	-14.98	0.3322	0.0737	-0.3425	
-0.925614	0.10858	0.39955	62.16	-37.1	-2.94	0.3308	0.0595	-0.3616	
-0.929152	0.199226	0.277306	69.44	-43.12	-2.45	0.325	0.0519	-0.3501	
-0.931958	0.230092	0.187026	36.05	-61.81	-8.68	0.3131	0.0488	-0.3574	
-0.930006	0.150426	0.175436	4.34	-70.63	-7.28	0.3144	0.0612	-0.3704	
-0.931592	0.12322	0.253516	9.94	-70.84	-4.13	0.3099	0.0611	-0.3762	
-0.974536	0.135054	0.31354	39.69	-57.68	3.64	0.2937	0.0535	-0.3792	
-0.930494	0.09552599	0.411506	19.32	-57.26	1.33	0.2818	0.049	-0.3793	
-0.895846	0.082472	0.428586	51.66	-58.1	-0.84	0.2698	0.0583	-0.3967	
-0.876814	0.091744	0.453352	30.59	-58.52	-2.66	0.276	0.0348	-0.3998	
-0.87657	0.084424	0.435052	31.08	-51.31	-6.65	0.2583	0.0241	-0.3942	
-0.90158	0.186782	0.43005	44.03	-44.94	-2.52	0.2478	0.0289	-0.4029	
-0.87596	0.144814	0.46543	7.49	-56.63	-10.64	0.2479	0.0257	-0.4087	
-0.830332	0.127856	0.485926	21.7	-58.52	-9.52	0.2478	0.0288	-0.4102	
-0.833626	0.158844	0.433588	23.45	-53.06	-8.68	0.2389	0.0256	-0.4219	
-0.809714	0.153354	0.539606	42.28	-59.71	-7.35	0.2272	0.0134	-0.4148	
-0.798368	0.140422	0.568032	7.77	-63.14	-10.08	0.2168	0.0102	-0.4279	
-0.79544	0.141276	0.534238	10.36	-58.45	-8.4	0.2033	0.0134	-0.4381	
-0.764208	0.116022	0.582428	16.8	-65.03	-9.24	0.2078	0.0165	-0.4395	
-0.728706	0.121756	0.587796	17.22	-65.03	-7.14	0.1946	0.0009999999	-0.4383	
-0.699182	0.149572	0.62525	17.99	-68.32	-4.76	0.1679	-0.0064	-0.4457	
-0.682956	0.152256	0.65453	11.27	-71.4	-3.71	0.1619	-0.0048	-0.4515	
-0.67893	0.144448	0.666852	7.77	-68.11	-1.4	0.1425	0.0047	-0.4558	
-0.651846	0.120414	0.686128	5.18	-67.69	-1.4	0.1424	0.0093	-0.4587	
-0.637084	0.135054	0.68991	3.64	-67.48	-0.56	0.1247	-0.0013	-0.4603	
-0.62098	0.130174	0.724924	5.53	-67.13	-0.49	0.1173	-0.0075	-0.4604	
-0.600972	0.11895	0.745664	-1.89	-66.78	-0.28	0.1025	-0.012	-0.4692	
-0.581208	0.120414	0.759572	-3.78	-65.17	-0.56	0.095	-0.0041	-0.4691	
-0.577426	0.13298	0.777872	-2.94	-63.91	0.7	0.086	-0.004	-0.4721	
-0.564616	0.144326	0.80825	-5.95	-62.65	0.21	0.0711	0.0039	-0.472	
-0.532286	0.116754	0.803004	-15.33	-61.18	-2.24	0.0576	0.0071	-0.4779	
-0.504104	0.119926	0.80947	-10.36	-58.38	-2.66	0.0561	0.0103	-0.4778	
-0.496906	0.101626	0.834236	-10.85	-57.68	-3.15	0.0414	-0.002	-0.4853	
-0.484828	0.128588	0.854976	-9.1	-54.18	-2.87	0.0354	0.0059	-0.4721	
-0.450302	0.096624	0.851194	-11.55	-53.34	-3.08	0.0293	0.009	-0.4823	
-0.43493	0.09747799	0.87779	-7.28	-49.98	-3.57	0.0205	0.0077	-0.4751	
-0.446154	0.084058	0.869128	-9.31	-47.32	-3.99	0.0085	0.0141	-0.4765	
-0.414678	0.10187	0.892552	-3.29	-45.64	-2.8	0.01	0.0077	-0.4794	
-0.410286	0.071736	0.885232	-5.46	-40.18	-2.24	-0.0047	0.0079	-0.4809	
-0.398696	0.080764	0.908046	-0.07	-39.34	-0.98	-0.0034	0.0189	-0.475	
-0.396866	0.082472	0.92232	0.63	-37.45	-0.77	-0.0137	0.0159	-0.4794	
-0.373076	0.105896	0.930494	1.54	-35.91	0	-0.0255	0.0082	-0.481	
-0.366244	0.110776	0.93147	0.21	-33.53	0.7	-0.0198	0.0254	-0.4706	
-0.365268	0.133346	0.939156	1.89	-31.29	1.47	-0.0331	0.0177	-0.4766	
-0.34282	0.135298	0.943914	-2.1	-30.17	1.05	-0.0375	0.0099	-0.4796	
-0.338428	0.112728	0.945012	-3.78	-29.26	0.77	-0.0493	0.0101	-0.4767	
-0.331474	0.09747799	0.937814	-4.48	-27.09	0	-0.0494	0.0133	-0.4767	
-0.327204	0.095892	0.942694	-2.8	-25.2	0.21	-0.0643	0.015	-0.4767	
-0.31598	0.096502	0.942694	-3.01	-23.8	1.19	-0.06879999	0.0198	-0.4723	
-0.311588	0.098698	0.9455	-2.17	-22.47	1.47	-0.0613	0.0181	-0.4825	
-0.294142	0.080642	0.950868	-3.78	-21.49	1.33	-0.07319999	0.0167	-0.4796	
-0.285724	0.091378	0.957944	-3.29	-18.97	1.33	-0.0673	0.0182	-0.4781	
-0.278282	0.091866	0.96746	-3.43	-17.01	1.47	-0.0806	0.0152	-0.4825	
-0.287188	0.075762	0.971242	-2.8	-15.96	0.63	-0.0836	0.0122	-0.4753	
-0.274866	0.083326	0.979782	-2.38	-13.72	1.4	-0.0866	0.0153	-0.4753	
-0.2623	0.086254	0.98881	-1.82	-11.83	1.4	-0.0835	0.009099999	-0.4681	
-0.256444	0.079422	0.989664	-1.96	-10.43	0.49	-0.0821	0.0185	-0.4709	
-0.24888	0.085034	0.990274	-0.84	-8.75	0.91	-0.0821	0.0137	-0.4767	
-0.239974	0.085156	0.991616	0	-6.79	0.77	-0.0836	0.0168	-0.4782	
-0.234972	0.098088	1.007354	0.28	-4.83	0.98	-0.0879	0.0076	-0.4725	
-0.234362	0.085644	1.001864	0.21	-2.87	0.77	-0.0895	0.0107	-0.4753	
-0.224358	0.08845	1.000278	0	-0.84	1.05	-0.0881	0.0185	-0.4753	
-0.219722	0.089182	1.004548	0.28	0.77	0.84	-0.0955	0.0185	-0.4811	
-0.216794	0.08906	1.007598	-0.21	3.85	0.35	-0.0835	0.0075	-0.4768	
-0.208376	0.082228	1.000034	-0.42	6.93	-0.35	-0.0865	0.0138	-0.4753	
-0.218868	0.089426	0.998814	0.49	10.99	-0.91	-0.0866	0.02	-0.4767	
-0.227408	0.086742	1.014918	1.26	13.79	-0.91	-0.0791	0.009	-0.4782	
-0.233874	0.088938	1.025166	1.12	17.15	-1.19	-0.0865	0.009	-0.4812	
-0.232166	0.098942	1.018456	1.12	20.51	-1.82	-0.0763	0.0261	-0.481	
-0.26901	0.09699	1.012112	0.84	25.34	-2.1	-0.0717	0.0152	-0.4709	
-0.24339	0.090646	0.992958	3.85	32.48	-1.4	-0.0657	0.0134	-0.4825	
-0.270474	0.077104	0.987224	3.08	37.59	-2.1	-0.07319999	0.0152	-0.4723	
-0.286212	0.074664	0.982832	5.04	41.65	-2.17	-0.0509	0.0147	-0.4912	
-0.300242	0.084912	0.97112	7.21	46.27	-1.54	-0.0463	0.0054	-0.4782	
-0.309026	0.085888	0.957578	8.26	50.05	-2.1	-0.0346	0.0145	-0.4868	
-0.322568	0.084546	0.942084	7.98	53.41	-2.38	-0.036	0.0146	-0.4781	
-0.344284	0.105042	0.925858	10.5	58.87	-2.24	-0.024	0.0019	-0.484	
-0.348188	0.100284	0.898286	8.68	62.58	-2.94	-0.0197	0.0128	-0.4809	
-0.386984	0.100162	0.872056	8.26	66.78	-2.94	-0.0062	0.0064	-0.4766	
-0.416142	0.106506	0.857294	9.31	67.83	-2.94	-0.0032	0.0032	-0.4795	
-0.445544	0.09699	0.83265	7	69.72	-2.94	0.013	0.0124	-0.475	
-0.472506	0.105042	0.823378	12.04	70.35	-2.66	0.0236	-0.007999999	-0.4781	
-0.501542	0.10004	0.797636	9.59	73.36	-2.8	0.0413	0.0057	-0.4881	
-0.52948	0.105286	0.78385	12.46	74.9	-2.52	0.0457	0.0073	-0.475	
-0.555344	0.12993	0.75945	12.6	76.79	-2.66	0.0622	0.0008	-0.4779	
-0.5795	0.139202	0.737734	8.75	79.73	-3.64	0.0724	0.0147	-0.4777	
-0.602802	0.132004	0.709918	2.66	82.67	-4.69	0.0875	-0.004	-0.4677	
-0.631106	0.135298	0.690154	1.75	83.93	-3.99	0.0993	0.002	-0.4662	
-0.664412	0.119194	0.635498	-6.72	86.38	-3.29	0.1262	-0.0013	-0.4603	
-0.683566	0.116266	0.620614	-7.77	86.45	-2.52	0.1426	-0.0077	-0.456	
-0.703452	0.109312	0.584136	-17.29	87.36	-2.1	0.1469	0.0046	-0.4544	
-0.721264	0.117852	0.551684	-15.47	87.01	0.84	0.1663	0.006	-0.4441	
-0.759572	0.118706	0.539728	-24.01	84.42	1.54	0.1766	0.0106	-0.4426	
-0.788486	0.116754	0.521916	-31.36	81.34	2.52	0.1885	0.0152	-0.4396	
-0.814472	0.10797	0.514108	-27.58	80.78	5.95	0.1974	0.0166	-0.4381	
-0.845216	0.121634	0.496784	-38.99	77.98	8.47	0.2226	0.0179	-0.4307	
-0.855464	0.105896	0.460916	-47.74	73.5	8.12	0.2241	0.0197	-0.4132	
-0.873154	0.088084	0.458232	-52.15	69.79	10.15	0.2315	0.0257	-0.4277	
-0.80703	0.114314	0.436882	-51.8	63.91	9.03	0.2371	0.0508	-0.4143	
-0.802394	0.099552	0.412848	-70	66.36	5.67	0.2609	0.0521	-0.407	
-0.854122	0.082838	0.40992	-72.03	69.02	5.18	0.2639	0.0506	-0.3997	
-0.882914	0.09028	0.355752	-90.44	72.45	4.76	0.2772	0.063	-0.3894	
-0.941474	0.078202	0.322446	-87.5	78.05	4.97	0.2755	0.0771	-0.3921	
-0.95709	0.087352	0.335256	-92.12	69.72	3.99	0.2933	0.08329999	-0.376	
-0.95343	0.068442	0.332938	-86.8	62.51	5.18	0.3007	0.088	-0.3643	
-0.96746	0.05795	0.308782	-81.55	62.72	8.82	0.3007	0.0927	-0.3599	
-1.00589	0.076494	0.265228	-52.15	60.13	17.99	0.3243	0.1129	-0.3407	
-1.003328	0.07503	0.266448	-48.93	59.08	21.14	0.3406	0.1128	-0.3348	
-1.018822	0.081618	0.260714	-39.55	65.03	23.66	0.3495	0.1191	-0.3202	
-1.023214	0.077104	0.244732	-30.87	59.01	23.1	0.3451	0.116	-0.3188	
-1.009672	0.07991	0.219112	-42.14	52.22	22.47	0.3555	0.1192	-0.3071	
-1.003572	0.064904	0.199714	-47.95	56.14	25.9	0.36	0.1208	-0.2983	
-1.001864	0.056852	0.186904	-46.9	57.12	29.05	0.3718	0.1253	-0.2968	
-1.005402	0.078324	0.187636	-35.91	54.95	31.29	0.3748	0.1255	-0.2808	
-1.01443	0.08295999	0.152866	-22.61	51.1	30.8	0.3763	0.127	-0.2764	
-1.023824	0.110044	0.15433	-16.73	51.1	31.29	0.3838	0.1192	-0.2706	
-1.02114	0.116144	0.151158	-16.8	45.71	30.24	0.3957	0.119	-0.2706	
-1.013454	0.111142	0.13359	-15.61	40.11	27.09	0.3988	0.1128	-0.2634	
-0.989908	0.09455	0.127612	-24.15	34.72	24.92	0.4062	0.116	-0.2502	
-0.991616	0.084302	0.126148	-21	31.64	20.86	0.4064	0.1035	-0.2504	
-0.998082	0.096624	0.121634	-12.81	30.52	19.32	0.4182	0.1128	-0.2459	
-1.013332	0.11224	0.116998	-14.7	29.33	18.9	0.4137	0.1191	-0.2429	
-1.027606	0.113704	0.106018	-15.33	29.54	17.08	0.4123	0.1083	-0.2328	
-1.003816	0.123708	0.082228	-11.34	29.05	14.63	0.4168	0.1035	-0.2372	
-0.999912	0.13603	0.062952	-24.57	28.21	12.18	0.4214	0.1005	-0.2256	
-1.031998	0.140422	0.056974	-24.78	25.41	13.16	0.4214	0.1006	-0.2111	
-1.03029	0.148352	0.047824	-23.45	25.62	14	0.4364	0.0862	-0.2214	
-1.004182	0.151036	0.038308	-25.69	25.55	14.49	0.4288	0.1005	-0.2154	
-0.988932	0.153842	0.038186	-30.03	22.33	14.91	0.4304	0.1007	-0.1936	
-0.991494	0.157258	0.052338	-32.34	24.85	17.57	0.4334	0.09429999	-0.2038	
-1.000522	0.159454	0.067466	-31.01	28.63	21.49	0.4275	0.0929	-0.1981	
-1.014064	0.159698	0.063684	-23.03	27.86	23.24	0.4349	0.0944	-0.1907	
-1.014064	0.161162	0.052948	-17.43	26.39	24.43	0.4455	0.0882	-0.1762	
-1.012966	0.167018	0.039772	-18.41	24.36	24.5	0.4439	0.0896	-0.1893	
-0.998082	0.184464	0.036356	-27.09	25.2	25.41	0.4455	0.085	-0.1792	
-1.011258	0.186172	0.02013	-26.18	28.49	27.09	0.441	0.08989999	-0.1704	
-1.020286	0.20008	0.020252	-22.47	31.15	26.11	0.4485	0.0819	-0.1763	
-1.031022	0.198128	0.001708	-17.01	27.93	25.55	0.4471	0.0804	-0.1705	
-1.017724	0.202154	-0.019032	-12.88	23.17	21.98	0.4516	0.0742	-0.1618	
-1.003206	0.218868	-0.030378	-10.71	20.3	19.11	0.4518	0.0648	-0.1605	
-0.992348	0.227896	-0.03599	-10.71	20.93	17.71	0.4502	0.0712	-0.1531	
-0.997472	0.228994	-0.037698	-12.67	20.37	17.15	0.4532	0.0711	-0.1546	
-0.989176	0.240584	-0.040504	-14.21	17.78	16.24	0.462	0.07889999	-0.1457	
-0.981978	0.262666	-0.03599	-14.56	17.29	17.08	0.4549	0.0571	-0.1489	
-0.981978	0.269376	-0.042944	-18.27	18.41	18.27	0.4623	0.0619	-0.1357	
-0.988688	0.281576	-0.05734	-22.4	19.53	19.11	0.4653	0.0555	-0.1373	
-0.992958	0.290482	-0.066002	-30.8	20.3	20.51	0.4594	0.0509	-0.1388	
-0.982222	0.295972	-0.073932	-33.67	18.2	21.49	0.4566	0.0447	-0.1359	
-0.96685	0.300242	-0.077714	-37.73	17.36	22.26	0.4685	0.0414	-0.1359	
-0.960872	0.30317	-0.08723	-43.47	19.46	22.61	0.4654	0.0525	-0.13	
-0.96929	0.306464	-0.08357	-34.09	22.75	24.64	0.4713	0.0525	-0.1256	
-0.98088	0.3111	-0.095282	-20.09	22.75	23.87	0.4746	0.0353	-0.1185	
-0.98088	0.329522	-0.104432	-8.19	17.36	20.93	0.4715	0.0368	-0.1258	
-0.961726	0.35075	-0.103334	-9.24	11.2	18.55	0.4672	0.0339	-0.1171	
-0.95099	0.358924	-0.083936	-14.07	8.68	15.61	0.473	0.04	-0.117	
-0.95587	0.36783	-0.078934	-9.87	7.91	13.02	0.4702	0.0292	-0.1099	
-0.953674	0.370026	-0.080398	-10.29	7.7	10.5	0.4687	0.0324	-0.1099	
-0.952332	0.366854	-0.093452	-8.4	6.65	8.05	0.4673	0.023	-0.1085	
-0.953918	0.36539	-0.105164	-7.49	3.57	5.25	0.4717	0.0261	-0.1099	
-0.959774	0.366244	-0.101138	-8.54	1.33	3.71	0.4762	0.026	-0.107	
-0.960506	0.370148	-0.076616	-5.67	1.61	3.71	0.4688	0.023	-0.107	
-0.959408	0.368684	-0.074176	-0.42	1.61	3.43	0.4704	0.0199	-0.1013	
-0.95526	0.370026	-0.076128	5.53	1.82	3.22	0.4689	0.0183	-0.1086	
-0.949648	0.368074	-0.084302	10.15	1.4	3.15	0.4689	0.0183	-0.1115	
-0.946232	0.361608	-0.096624	11.41	0.77	2.03	0.4703	0.0245	-0.1128	
-0.947208	0.366854	-0.101992	10.08	-0.63	0.28	0.4703	0.0246	-0.107	
-0.947208	0.373198	-0.10553	11.2	-1.96	-1.19	0.4717	0.0308	-0.1099	
-0.947696	0.381982	-0.10492	10.5	-4.2	-2.24	0.4763	0.0166	-0.1085	
-0.945866	0.392108	-0.103822	12.11	-6.02	-3.22	0.4673	0.0277	-0.107	
-0.966606	0.380396	-0.114924	9.24	-7.42	-5.88	0.4658	0.0277	-0.1143	
-0.96014	0.377468	-0.120048	4.55	-4.06	-5.46	0.4689	0.0167	-0.11	
-0.951844	0.36783	-0.10126	-1.05	-4.06	-4.9	0.4717	0.0323	-0.1084	
-0.967948	0.357338	-0.101992	3.22	-5.53	-6.44	0.4704	0.0136	-0.1115	
-0.974536	0.345016	-0.091744	2.52	-6.58	-8.4	0.4718	0.0229	-0.1099	
-0.99247	0.351726	-0.07564	5.53	-9.8	-12.32	0.4746	0.0307	-0.1128	
-1.011014	0.350628	-0.066368	11.62	-13.65	-15.33	0.4672	0.0355	-0.1084	
-1.02663	0.337818	-0.076616	18.27	-16.31	-19.11	0.4627	0.0339	-0.1157	
-1.03822	0.31354	-0.094916	26.67	-19.46	-23.94	0.4763	0.0197	-0.1158	
-1.06262	0.299144	-0.102968	36.26	-26.88	-29.82	0.464	0.0432	-0.1228	
-1.016382	0.30805	-0.077104	54.67	-40.32	-34.65	0.4655	0.0431	-0.1301	
-0.951966	0.312442	-0.041968	64.82	-41.79	-34.93	0.4682	0.06	-0.1503	
-0.947086	0.303414	-0.015372	58.59	-37.17	-30.94	0.4579	0.0524	-0.1504	
-0.98393	0.284748	-0.011834	56.91	-33.32	-27.86	0.4578	0.0618	-0.1488	
-0.998814	0.27694	-0.025132	63.28	-31.78	-27.51	0.449	0.0492	-0.1621	
-0.994178	0.269254	-0.025376	67.2	-32.41	-25.13	0.4504	0.0555	-0.1577	
-0.984174	0.26352	-0.018178	49.07	-36.47	-23.03	0.4533	0.0569	-0.1693	
-0.99125	0.253028	-0.008174	38.36	-33.11	-21.21	0.4533	0.0553	-0.1751	
-1.011624	0.221064	0.007564	33.25	-28.28	-18.13	0.4547	0.0661	-0.1808	
-1.04859	0.21106	0.043066	19.6	-31.85	-17.99	0.4457	0.0678	-0.1808	
-1.04371	0.201056	0.030378	19.04	-40.32	-22.19	0.4457	0.0646	-0.1896	
-1.013088	0.196664	0.0244	16.45	-42.91	-18.62	0.4369	0.0584	-0.1955	
-0.96624	0.162748	0.031842	23.73	-37.52	-15.47	0.4367	0.0709	-0.1983	
-0.959164	0.152134	0.051728	9.31	-30.17	-10.36	0.4337	0.0724	-0.2026	
-0.971852	0.146644	0.05978	21.84	-26.88	-5.32	0.4367	0.0693	-0.2012	
-0.965142	0.145302	0.065392	23.17	-24.29	-6.09	0.4336	0.0738	-0.2157	
-0.965386	0.12993	0.035624	16.8	-21.91	-9.03	0.4321	0.0769	-0.22	
-0.973072	0.138348	0.024888	32.62	-26.11	-10.99	0.4338	0.0629	-0.2129	
-0.958798	0.16531	0.029402	35.42	-29.68	-12.25	0.4277	0.0675	-0.2289	
-0.950868	0.216794	0.050264	18.41	-32.83	-13.58	0.4277	0.0721	-0.2346	
-0.96624	0.258274	0.064294	-0.21	-32.13	-12.25	0.4156	0.08	-0.2462	
-0.95404	0.223138	0.032818	0.91	-33.74	-10.99	0.4232	0.0737	-0.2434	
-0.9638	0.20313	0.014274	5.88	-34.16	-7.77	0.4097	0.0785	-0.2448	
-0.965508	0.188734	0.037576	16.45	-32.97	-3.71	0.4023	0.0785	-0.2536	
-0.961238	0.177388	0.059902	12.46	-31.78	-1.54	0.4068	0.0691	-0.2507	
-0.956114	0.181048	0.083692	3.71	-26.32	0.91	0.4083	0.0737	-0.2565	
-0.957578	0.190564	0.111386	4.34	-19.88	6.65	0.4038	0.0737	-0.2652	
-0.966484	0.210328	0.137738	8.33	-13.37	12.6	0.4054	0.0658	-0.2639	
-0.987468	0.209474	0.1586	8.12	-7.07	16.59	0.3978	0.0737	-0.2682	
-0.98332	0.208132	0.188124	0.98	-6.65	18.06	0.4039	0.0658	-0.2668	
-0.987468	0.178486	0.197274	-8.4	-9.73	17.36	0.4084	0.0626	-0.2712	
-0.979416	0.161528	0.222894	-10.92	-16.24	15.89	0.4053	0.0641	-0.277	
-0.985272	0.153476	0.233996	-12.6	-24.57	13.72	0.401	0.0579	-0.2785	
-0.97844	0.151402	0.275232	-6.58	-30.52	11.83	0.392	0.0611	-0.2814	
-0.943182	0.15128	0.293898	7.91	-36.33	10.15	0.3964	0.0626	-0.2857	
-0.929884	0.157624	0.313906	19.53	-36.82	17.01	0.3949	0.0642	-0.2828	
-0.941352	0.166164	0.299876	21.49	-31.01	22.96	0.4025	0.0484	-0.2902	
-0.96136	0.17812	0.281454	20.09	-24.71	27.51	0.3891	0.0485	-0.299	
-0.965142	0.208986	0.27572	31.36	-21.21	30.17	0.3876	0.0532	-0.299	
-0.98393	0.263642	0.266326	28.84	-21.49	31.78	0.3804	0.0313	-0.3065	
-0.991372	0.230458	0.233508	17.71	-25.41	30.45	0.3776	0.0205	-0.3008	
-0.973926	0.269498	0.224114	14.63	-28.98	26.11	0.3791	0.0189	-0.3008	
-0.93696	0.260592	0.226066	-22.26	-39.13	23.38	0.3716	0.0173	-0.311	
-0.909632	0.243756	0.25925	-32.83	-38.99	17.85	0.3717	0.0126	-0.3154	
-0.925736	0.23424	0.26901	-14	-36.4	14.35	0.3642	0.0173	-0.3198	
-0.948306	0.21228	0.241072	26.04	-33.18	10.92	0.3672	0.0141	-0.3227	
-0.926346	0.24278	0.276208	20.79	-28.98	9.52	0.3553	0.0127	-0.3242	
-0.916464	0.271206	0.32513	4.48	-26.74	11.83	0.348	0.0034	-0.3258	
-0.906826	0.260348	0.332816	-17.71	-24.71	16.59	0.3479	0.0064	-0.3345	
-0.90219	0.263642	0.346358	-7.63	-23.38	16.45	0.3434	0.0127	-0.3359	
-0.907314	0.285358	0.358314	1.82	-21.84	16.24	0.3495	-0.003	-0.3462	
-0.905484	0.29951	0.368562	0.98	-19.95	16.1	0.3479	0.0063	-0.3418	
-0.895846	0.298168	0.361852	0.28	-17.08	17.57	0.339	0.0064	-0.3447	
-0.886452	0.322568	0.351604	0.07	-14.14	20.23	0.3406	-0.0028	-0.3404	
-0.86376	0.326472	0.356728	-1.89	-12.6	20.16	0.3362	-0.0076	-0.3536	
-0.853024	0.32635	0.366	-4.97	-14	18.34	0.3541	-0.0141	-0.3521	
-0.8601	0.32147	0.375516	3.43	-17.29	15.75	0.3286	0.0002	-0.3506	
-0.871568	0.322934	0.37576	4.83	-19.25	13.79	0.3302	-0.009099999	-0.3507	
-0.86254	0.324886	0.389668	4.06	-18.69	13.65	0.329	-0.0246	-0.345	
-0.859734	0.33794	0.40382	5.39	-17.92	13.09	0.3333	-0.0169	-0.3522	
-0.857172	0.33672	0.406504	3.57	-16.66	13.86	0.3319	-0.0248	-0.361	
-0.856196	0.338794	0.406626	3.43	-16.8	14.07	0.32	-0.02	-0.3596	
-0.846558	0.342332	0.407602	3.36	-15.96	14.28	0.3245	-0.028	-0.3684	
-0.842044	0.352092	0.413458	4.83	-14.98	14.07	0.3142	-0.0308	-0.3553	
-0.838384	0.358558	0.420656	4.76	-14.28	13.72	0.311	-0.0199	-0.3654	
-0.825452	0.36234	0.418704	3.43	-14.63	13.37	0.3157	-0.0341	-0.3685	
-0.824232	0.370636	0.425414	4.62	-14.07	12.18	0.3142	-0.034	-0.3656	
-0.828746	0.377102	0.433222	7.63	-13.44	11.06	0.3127	-0.0372	-0.37	
-0.82411	0.376858	0.4331	8.05	-12.81	10.71	0.3053	-0.0372	-0.3758	
-0.81313	0.395768	0.436272	11.13	-12.04	10.92	0.3083	-0.0418	-0.37	
-0.798734	0.40016	0.434442	4.48	-9.94	11.83	0.3038	-0.0371	-0.3743	
-0.803858	0.39772	0.432246	4.62	-8.82	10.64	0.3024	-0.0448	-0.3657	
-0.798368	0.404064	0.437736	1.75	-11.27	8.96	0.3024	-0.0481	-0.3788	
-0.794952	0.413824	0.437004	5.67	-11.9	6.3	0.3084	-0.0466	-0.3773	
-0.79788	0.423462	0.44286	5.67	-10.08	7.07	0.3039	-0.0434	-0.3744	
-0.79727	0.423218	0.441762	3.64	-7.28	9.1	0.295	-0.0464	-0.3774	
-0.78995	0.4209	0.440054	2.1	-6.02	8.61	0.2995	-0.0511	-0.3716	
-0.79361	0.425536	0.447618	8.4	-6.86	7.42	0.2935	-0.0431	-0.3613	
-0.795318	0.43188	0.452864	10.78	-8.05	5.11	0.2966	-0.0606	-0.3819	
-0.783118	0.430294	0.449692	6.09	-9.03	4.06	0.298	-0.0528	-0.3833	
-0.780068	0.43188	0.455792	3.85	-7.77	2.66	0.2877	-0.062	-0.3848	
-0.783728	0.433466	0.465918	2.8	-6.02	2.52	0.2891	-0.0557	-0.3789	
-0.779824	0.432246	0.469822	2.52	-3.5	2.8	0.2892	-0.0621	-0.3863	
-0.786534	0.435906	0.470066	2.38	-0.84	2.59	0.2921	-0.0511	-0.3774	
-0.781288	0.440786	0.466162	2.73	1.61	2.03	0.2965	-0.0512	-0.3818	
-0.779458	0.443104	0.460062	1.61	2.8	0.49	0.2876	-0.0527	-0.3862	
-0.790194	0.44347	0.450546	0.56	4.41	-0.91	0.2966	-0.0605	-0.3761	
-0.788974	0.445788	0.450424	-0.21	6.37	-3.36	0.2952	-0.0605	-0.3746	
-0.784216	0.44774	0.44225	-0.7	8.12	-5.67	0.2922	-0.0589	-0.379	
-0.77287	0.444812	0.432002	-3.22	12.53	-7.91	0.298	-0.0496	-0.3789	
-0.78873	0.446398	0.43371	-1.47	14.84	-9.03	0.2935	-0.0448	-0.3745	
-0.788242	0.437492	0.427488	-15.75	14.77	-10.92	0.298	-0.0464	-0.373	
-0.79483	0.405772	0.429562	-16.87	16.45	-14.28	0.3084	-0.0497	-0.3759	
-0.803858	0.39711	0.425292	-6.65	16.52	-16.24	0.3025	-0.0496	-0.3745	
-0.797148	0.407114	0.431392	-0.21	17.15	-17.5	0.3025	-0.0511	-0.3687	
-0.793122	0.404308	0.426878	-3.78	19.46	-17.43	0.3083	-0.0404	-0.3816	
-0.782874	0.390034	0.41602	-8.61	21.84	-16.45	0.3172	-0.0388	-0.3685	
-0.793122	0.371002	0.397476	-14.63	24.43	-15.96	0.3097	-0.0356	-0.3685	
-0.817522	0.357948	0.39711	-15.96	26.74	-16.52	0.3261	-0.0358	-0.3684	
-0.858148	0.365268	0.394304	-8.19	27.37	-18.48	0.3216	-0.0294	-0.364	
-0.881206	0.369294	0.38857	-2.94	27.51	-18.76	0.3246	-0.0293	-0.3524	
-0.885354	0.366366	0.369904	-10.57	27.93	-20.23	0.3201	-0.0324	-0.3524	
-0.88267	0.350384	0.35868	-20.37	29.68	-20.79	0.3289	-0.0232	-0.3552	
-0.884866	0.322568	0.352702	-28.77	33.46	-21.49	0.3393	-0.0217	-0.3508	
-0.89792	0.298412	0.349652	-26.32	34.51	-22.19	0.3393	-0.017	-0.3493	
-0.879498	0.29951	0.356362	-15.96	33.88	-24.22	0.3438	-0.0169	-0.3376	
-0.879742	0.299998	0.352092	-8.82	30.8	-24.71	0.3554	0	-0.3418	
-0.926224	0.287798	0.305488	-8.26	27.65	-23.45	0.3599	0.0032	-0.3287	
-0.995032	0.252418	0.245586	5.32	30.87	-28.49	0.3554	0.0064	-0.3272	
-0.9699	0.287676	0.27023	19.32	39.97	-37.94	0.3642	0.0125	-0.3271	
-0.928664	0.255224	0.259738	14.21	32.2	-44.1	0.3657	0.0157	-0.3183	
-0.95282	0.261934	0.276086	13.79	20.02	-49.28	0.3686	0.022	-0.3139	
-0.96441	0.235704	0.290848	12.11	23.8	-51.8	0.3686	0.0235	-0.3168	
-0.98698	0.235704	0.324032	-8.75	34.93	-50.96	0.3685	0.0345	-0.3108	
-0.969412	0.246684	0.341112	-31.15	35.28	-47.88	0.3714	0.0376	-0.3108	
-0.934154	0.167872	0.277184	-49.21	35.21	-50.68	0.389	0.0531	-0.3077	
-0.970022	0.187636	0.25376	-19.11	43.05	-49.63	0.38	0.0642	-0.3003	
-0.966484	0.135176	0.221918	-39.55	41.16	-46.55	0.3786	0.0612	-0.2887	
-0.963556	0.130906	0.214354	-26.32	43.12	-49.35	0.3813	0.0784	-0.2871	
-0.978806	0.16165	0.242658	-26.88	42.98	-45.08	0.3872	0.0893	-0.2855	
-0.987712	0.148352	0.262056	-45.29	40.95	-38.36	0.3931	0.094	-0.2752	
-0.992104	0.113216	0.241804	-52.36	39.34	-40.88	0.3914	0.1128	-0.2707	
-1.031876	0.065026	0.147132	-34.09	36.19	-43.47	0.3974	0.1097	-0.2649	
-1.023092	0.037576	0.122	-38.5	42.7	-44.87	0.3958	0.1208	-0.2575	
-0.99918	0.031598	0.127368	-37.38	40.32	-47.04	0.3928	0.1209	-0.2517	
-0.984174	0.077348	0.101504	-20.44	41.09	-41.51	0.3955	0.1459	-0.2456	
-0.995764	0.110044	0.11529	-28	44.73	-30.52	0.3895	0.1491	-0.2441	
-0.994544	0.095648	0.102724	-36.89	42	-21.77	0.4013	0.1569	-0.2324	
-1.034316	0.021838	0.105652	-32.55	35.84	-24.78	0.4056	0.1694	-0.2322	
-1.005036	-0.015494	0.099918	-21.07	19.74	-34.23	0.4042	0.1696	-0.2162	
-1.00711	-0.022936	0.111264	-5.39	11.62	-38.15	0.4115	0.1789	-0.2074	
-1.022238	-0.053192	0.113216	-27.51	10.85	-35.7	0.3995	0.1821	-0.2219	
-1.009672	-0.087352	0.074176	-1.33	3.71	-38.08	0.3949	0.1963	-0.2174	
-1.004426	-0.083448	0.09467199	2.8	1.4	-37.73	0.3993	0.1994	-0.2101	
-1.003694	-0.096868	0.120536	-15.75	11.55	-29.47	0.3993	0.2025	-0.2086	
-1.012234	-0.123464	0.097722	-26.39	22.12	-23.73	0.3932	0.2137	-0.2012	
-1.013332	-0.136274	0.066368	-17.01	19.6	-21.49	0.3962	0.212	-0.2027	
-1.00589	-0.115168	0.068686	-7.49	16.73	-23.52	0.3902	0.2184	-0.2026	
-1.013942	-0.115412	0.063806	-8.47	16.31	-24.29	0.3902	0.22	-0.1997	
-1.019066	-0.116876	0.05368	-13.79	16.94	-25.34	0.3887	0.2231	-0.1997	
-1.011014	-0.124074	0.03172	-16.38	16.66	-23.87	0.3946	0.2232	-0.1866	
-0.998448	-0.134322	0.018422	-17.01	17.57	-24.71	0.3975	0.2326	-0.1821	
-0.99125	-0.147864	0.011224	-20.16	18.13	-24.64	0.3915	0.242	-0.1806	
-0.993934	-0.157746	0.016104	-19.6	19.81	-22.82	0.3931	0.2311	-0.1778	
-0.992592	-0.17263	0.01403	-18.76	19.95	-21.7	0.3959	0.2468	-0.1674	
-0.989908	-0.182756	0.009028	-20.16	18.27	-20.86	0.3914	0.2532	-0.163	
-0.98637	-0.186294	-0.006832	-16.8	19.53	-21.49	0.3779	0.2581	-0.1586	
-0.985638	-0.191296	-0.00915	-17.36	19.88	-20.58	0.3853	0.2579	-0.1673	
-0.988322	-0.198982	-0.019398	-18.69	18.97	-19.67	0.375	0.2534	-0.1616	
-0.993812	-0.20618	-0.040626	-20.93	18.41	-19.67	0.3763	0.2674	-0.1643	
-1.004548	-0.217038	-0.054656	-20.51	17.71	-18.97	0.3823	0.2675	-0.1527	
-1.004304	-0.227042	-0.07124799	-25.62	16.94	-18.27	0.3792	0.2801	-0.1511	
-0.992226	-0.22875	-0.078446	-22.05	14.42	-18.13	0.3881	0.2802	-0.1307	
-0.98332	-0.228628	-0.070638	-15.4	12.18	-18.69	0.3808	0.2739	-0.1424	
-1.0004	-0.232044	-0.07503	-11.83	11.76	-18.13	0.3837	0.2786	-0.1395	
-0.984418	-0.233874	-0.084668	-11.62	10.99	-17.22	0.3777	0.2834	-0.1336	
-0.976244	-0.24339	-0.093696	-15.68	12.74	-16.24	0.3777	0.2834	-0.1322	
-0.977098	-0.254736	-0.0976	-19.32	13.37	-14.77	0.3762	0.2866	-0.1292	
-0.976488	-0.265716	-0.096258	-14.07	12.6	-14.35	0.376	0.296	-0.1291	
-0.975024	-0.265838	-0.07905599	-5.6	10.92	-13.58	0.3745	0.3055	-0.1203	
-0.971608	-0.263032	-0.078324	-7.42	9.24	-12.81	0.3762	0.2899	-0.1176	
-0.963922	-0.262544	-0.08784	-8.89	9.59	-11.69	0.3717	0.2932	-0.1088	
-0.964166	-0.27145	-0.098454	-18.55	9.31	-9.73	0.373	0.3025	-0.1145	
-0.971852	-0.281088	-0.108458	-12.74	8.96	-8.89	0.373	0.304	-0.1131	
-0.970754	-0.296338	-0.12871	-13.79	7.42	-6.58	0.3626	0.3042	-0.1102	
-0.967094	-0.295972	-0.13786	-14.42	6.93	-4.34	0.3686	0.3041	-0.116	
-0.96502	-0.294874	-0.142862	-14.14	5.81	-1.82	0.3716	0.3042	-0.1029	
-0.962946	-0.291092	-0.139324	-11.55	3.92	-1.12	0.3641	0.3027	-0.1058	
-0.966606	-0.28914	-0.140666	-10.85	2.1	-0.49	0.3819	0.3103	-0.0999	
-0.957822	-0.28914	-0.141642	-10.15	0.84	0.49	0.37	0.3089	-0.0999	
-0.966728	-0.285724	-0.144082	-8.54	-0.84	1.33	0.3745	0.3105	-0.097	
-0.964776	-0.28609	-0.14884	-9.38	-2.31	1.96	0.3656	0.3073	-0.1058	
-0.958554	-0.29036	-0.151646	-11.2	-3.64	2.8	0.3819	0.3088	-0.0941	
-0.965264	-0.295484	-0.148718	-7.7	-4.41	4.55	0.3685	0.3121	-0.0999	
-0.970022	-0.292068	-0.150304	-2.03	-6.86	6.37	0.3715	0.3089	-0.1028	
-0.956846	-0.287432	-0.148474	-1.54	-8.61	8.19	0.3776	0.2979	-0.1015	
-0.956724	-0.284626	-0.14213	1.26	-9.87	9.94	0.3656	0.3027	-0.1015	
-0.96075	-0.27938	-0.13359	6.93	-12.32	11.48	0.3744	0.3119	-0.1101	
-0.9638	-0.276696	-0.12871	8.12	-13.58	13.16	0.3702	0.298	-0.0957	
-0.97234	-0.272548	-0.124684	15.4	-17.43	14.98	0.3776	0.293	-0.1132	
-0.969168	-0.263276	-0.112606	20.58	-19.95	16.24	0.379	0.296	-0.1218	
-0.965386	-0.242414	-0.100528	20.79	-21.35	16.31	0.3777	0.2899	-0.1132	
-0.967216	-0.223626	-0.097722	14.91	-21.07	17.08	0.379	0.2991	-0.1247	
-0.97295	-0.199958	-0.080642	10.71	-20.93	18.06	0.3807	0.2819	-0.1293	
-0.976244	-0.189588	-0.061732	4.9	-21.63	20.02	0.3807	0.2818	-0.1336	
-0.977952	-0.182146	-0.055876	8.54	-23.24	22.05	0.3806	0.2912	-0.1335	
-1.009916	-0.17507	-0.04453	12.11	-24.08	24.01	0.3852	0.2755	-0.1366	
-1.042246	-0.169336	-0.027084	14.7	-20.93	25.06	0.3867	0.2754	-0.1366	
-1.045174	-0.141764	-0.002928	13.02	-19.81	24.92	0.3838	0.2659	-0.1527	
-1.02663	-0.11712	0.01098	19.6	-19.11	22.4	0.3942	0.2674	-0.1483	
-1.01687	-0.1159	0.004026	18.48	-28	24.15	0.3868	0.2675	-0.1469	
-1.018944	-0.122122	-0.007076	22.26	-37.52	27.79	0.3854	0.2549	-0.1601	
-0.996496	-0.13115	-0.003416	33.74	-40.53	31.5	0.3928	0.2563	-0.163	
-0.983808	-0.134566	0.013542	37.59	-38.29	32.97	0.381	0.2517	-0.1703	
-0.980392	-0.135664	0.036234	35.07	-36.89	34.44	0.3931	0.2343	-0.1748	
-0.985882	-0.148474	0.04514	33.11	-35.63	36.33	0.3885	0.2358	-0.1865	
-1.01626	-0.146156	0.059536	22.05	-37.1	38.43	0.3914	0.242	-0.1864	
-1.01504	-0.123098	0.090036	37.52	-37.31	46.83	0.4035	0.223	-0.1938	
-1.028094	-0.082106	0.10736	38.78	-35	53.06	0.3977	0.2088	-0.2071	
-1.014064	-0.05368	0.126514	42.21	-32.69	53.06	0.3935	0.1931	-0.2174	
-1.010282	-0.018544	0.147986	52.01	-36.33	52.22	0.395	0.1836	-0.2277	
-1.023946	-0.027816	0.12688	52.5	-41.44	49.63	0.395	0.1851	-0.2335	
-1.05103	-0.01769	0.13542	61.53	-44.24	43.05	0.3922	0.1695	-0.2352	
-1.02175	0.01098	0.148718	63.21	-48.51	38.5	0.3939	0.1506	-0.2441	
-1.009794	0.026962	0.17995	50.47	-55.16	37.1	0.3911	0.1412	-0.25	
-0.993202	0.03416	0.225944	34.65	-57.26	31.85	0.391	0.1395	-0.2602	
-1.012112	0.06832	0.249612	30.52	-50.33	35.35	0.3821	0.1348	-0.2719	
-0.981124	0.07686	0.243512	23.24	-42.35	39.62	0.3854	0.116	-0.2765	
-0.992592	0.124806	0.241194	44.38	-45.29	44.1	0.3838	0.1206	-0.2837	
-0.956968	0.14762	0.22509	44.73	-48.58	40.53	0.3735	0.1097	-0.2926	
-0.939522	0.170312	0.25559	40.88	-51.17	37.8	0.381	0.1034	-0.2912	
-0.944646	0.1464	0.303658	28.7	-54.39	41.86	0.3723	0.0815	-0.3016	
-0.965752	0.11163	0.323056	24.92	-43.33	39.34	0.359	0.0785	-0.3031	
-0.95465	0.103212	0.338306	37.87	-39.76	40.74	0.356	0.0752	-0.3206	
-0.928664	0.152378	0.368196	31.57	-43.26	34.72	0.3561	0.0673	-0.328	
-0.920978	0.201788	0.353556	23.52	-41.93	27.86	0.3534	0.0439	-0.3312	
-0.926834	0.234606	0.36295	18.27	-32.55	35.28	0.3548	0.0548	-0.331	
-0.905484	0.244122	0.3599	16.45	-29.61	36.12	0.3371	0.0441	-0.3312	
-0.914634	0.216794	0.3599	13.79	-26.04	38.78	0.3446	0.0346	-0.3356	
-0.908778	0.208132	0.36722	21.35	-20.37	35.21	0.3402	0.0283	-0.343	
-0.91195	0.238022	0.371978	27.51	-22.54	30.31	0.3359	0.0174	-0.346	
-0.878888	0.261568	0.381616	14.49	-25.9	29.61	0.3375	0.0095	-0.3461	
-0.884134	0.277306	0.366244	18.97	-33.04	28	0.33	0.0111	-0.3548	
-0.88755	0.290116	0.374418	10.99	-30.73	31.01	0.3196	0.0066	-0.3491	
-0.890722	0.295118	0.366122	14.42	-24.92	31.85	0.3286	0.0003	-0.3477	
-0.875472	0.310734	0.385764	12.67	-22.75	32.48	0.3257	-0.0029	-0.3637	
-0.866078	0.330132	0.384422	23.38	-24.64	30.03	0.3199	-0.0153	-0.3595	
-0.867908	0.35929	0.388448	15.82	-23.38	28.21	0.314	-0.0168	-0.3625	
-0.856928	0.359168	0.399794	5.88	-20.72	27.23	0.3096	-0.0198	-0.3567	
-0.840092	0.361608	0.411262	4.69	-20.02	23.66	0.3095	-0.0169	-0.3727	
-0.831064	0.370392	0.416508	6.79	-21.14	21	0.3023	-0.0322	-0.3568	
-0.82411	0.372344	0.433466	6.79	-22.26	18.34	0.3127	-0.0341	-0.3728	
-0.820206	0.375516	0.445544	10.99	-23.17	14.7	0.3053	-0.0419	-0.3817	
-0.807396	0.389912	0.46116	12.46	-22.82	12.88	0.3022	-0.0292	-0.3714	
-0.79971	0.395646	0.467016	11.97	-22.05	12.74	0.3038	-0.0371	-0.3758	
-0.78385	0.396378	0.467016	8.96	-19.67	13.93	0.2993	-0.0371	-0.3758	
-0.762134	0.393084	0.467504	7.49	-16.17	15.54	0.292	-0.0495	-0.3745	
-0.75823	0.409676	0.464942	10.36	-13.44	17.01	0.2949	-0.0449	-0.3817	
-0.760304	0.427	0.4697	9.38	-10.43	18.48	0.2817	-0.0557	-0.3848	
-0.760304	0.443226	0.471164	8.12	-8.89	19.46	0.2832	-0.0588	-0.3805	
-0.75518	0.456158	0.470798	10.64	-8.4	19.11	0.2832	-0.0557	-0.3804	
-0.7564	0.468358	0.469212	8.96	-7.63	18.62	0.2819	-0.0713	-0.3777	
-0.756888	0.473482	0.465796	4.83	-6.86	17.99	0.2834	-0.0714	-0.3864	
-0.756278	0.474336	0.465064	5.53	-6.72	16.17	0.2774	-0.0712	-0.3821	
-0.762744	0.476654	0.468358	4.06	-7.56	14	0.2804	-0.0729	-0.3879	
-0.756888	0.4758	0.469578	1.12	-7.35	12.04	0.2714	-0.0665	-0.3835	
-0.749934	0.469212	0.475678	-0.56	-7.35	10.15	0.2789	-0.0713	-0.3821	
-0.734196	0.460916	0.478118	-1.05	-7.07	9.45	0.27	-0.0713	-0.3966	
-0.735172	0.461038	0.482632	0.35	-5.32	7.77	0.2714	-0.06659999	-0.3893	
-0.743956	0.462502	0.487024	3.85	-4.34	7.7	0.27	-0.0759	-0.3909	
-0.743956	0.47824	0.495686	5.67	-2.17	7.77	0.2656	-0.0758	-0.3865	
-0.743956	0.485804	0.48373	5.67	-0.7	7.28	0.2672	-0.0837	-0.3909	
-0.745298	0.495564	0.482876	8.19	-1.19	5.39	0.2671	-0.0759	-0.388	
-0.738466	0.507764	0.486292	8.05	-0.42	3.85	0.2702	-0.0853	-0.388	
-0.739198	0.507154	0.484218	4.69	0.35	3.01	0.2598	-0.0867	-0.3895	
-0.737978	0.503128	0.478362	2.1	0.91	1.82	0.2687	-0.08679999	-0.3866	
-0.733342	0.499956	0.472872	0.84	2.1	0.49	0.2717	-0.0836	-0.3793	
-0.73078	0.500078	0.473726	0.56	3.15	-0.14	0.2746	-0.0822	-0.3851	
-0.730414	0.500078	0.471042	-1.33	4.48	-1.4	0.2612	-0.08199999	-0.3837	
-0.73627	0.501542	0.472018	-1.68	5.53	-2.73	0.2701	-0.0804	-0.3735	
-0.73749	0.499834	0.470066	-3.36	6.65	-4.34	0.2642	-0.0852	-0.3924	
-0.745786	0.499956	0.469822	-3.29	7.63	-6.09	0.2612	-0.08199999	-0.3851	
-0.752496	0.500932	0.476776	-6.86	10.08	-8.12	0.2776	-0.0885	-0.3866	
-0.751642	0.497272	0.483608	-7.7	12.81	-9.87	0.279	-0.0759	-0.3806	
-0.729926	0.485072	0.465674	-9.66	14.91	-10.85	0.282	-0.0775	-0.3792	
-0.72834	0.472018	0.44347	-11.2	16.87	-12.53	0.2804	-0.0698	-0.3879	
-0.749324	0.46726	0.439078	-9.03	18.62	-15.05	0.279	-0.076	-0.3865	
-0.756644	0.469456	0.441396	-5.95	17.57	-17.57	0.2804	-0.0713	-0.3835	
-0.75762	0.459208	0.42456	-6.65	15.96	-19.32	0.2892	-0.0636	-0.3849	
-0.765672	0.445422	0.41724	-9.94	16.87	-22.68	0.2862	-0.0573	-0.3819	
-0.806298	0.433832	0.430904	-8.4	19.39	-26.04	0.2936	-0.0558	-0.3833	
-0.79056	0.418338	0.425414	-9.03	22.05	-27.44	0.2935	-0.0478	-0.3643	
-0.77775	0.404308	0.417972	-14.63	24.43	-29.68	0.3055	-0.0542	-0.3643	
-0.804834	0.387106	0.414312	-11.69	27.23	-32.48	0.3039	-0.048	-0.3657	
-0.842288	0.377712	0.420168	-6.79	28.49	-34.09	0.3068	-0.0371	-0.3671	
-0.851072	0.379054	0.419558	-0.77	29.47	-34.65	0.3112	-0.0355	-0.3583	
-0.845948	0.377346	0.41053	-3.99	32.48	-35.91	0.3172	-0.0356	-0.3612	
-0.852902	0.366732	0.403088	-16.52	39.13	-35.56	0.3245	-0.0294	-0.3567	
-0.884256	0.351604	0.394426	-21.14	44.66	-35.14	0.3304	-0.0231	-0.3508	
-0.901214	0.334524	0.386008	-23.1	46.27	-33.74	0.3303	-0.0137	-0.3493	
-0.909144	0.310856	0.354898	-26.74	47.6	-33.04	0.3302	-0.0027	-0.3434	
-0.892918	0.299022	0.351604	-40.18	47.67	-31.22	0.3435	0.0033	-0.3418	
-0.922442	0.293166	0.324154	-32.76	48.93	-33.39	0.351	0.0033	-0.333	
-0.981734	0.25803	0.282186	-39.55	48.65	-35.56	0.3524	0.0128	-0.3199	
-0.947574	0.23729	0.280356	-10.01	52.92	-44.45	0.3612	0.0173	-0.3241	
-0.940498	0.249002	0.297436	7.14	46.34	-50.05	0.3671	0.0235	-0.3211	
-0.950624	0.249612	0.311222	3.29	41.93	-57.05	0.3685	0.0314	-0.3109	
-0.967216	0.217526	0.331962	-24.08	36.12	-56	0.3862	0.0438	-0.3005	
-0.953796	0.164944	0.336842	-64.33	35.63	-59.08	0.3742	0.0582	-0.2888	
-0.935862	0.109312	0.268156	-51.73	44.8	-63.35	0.374	0.0659	-0.2989	
-0.930128	0.107238	0.209718	-23.52	54.32	-56	0.3827	0.08769999	-0.2899	
-0.996496	0.138836	0.241316	16.8	53.41	-50.96	0.3946	0.08769999	-0.2811	
-0.974658	0.136396	0.22997	-20.3	43.68	-54.74	0.3871	0.0973	-0.2679	
-0.963068	0.160308	0.14335	-37.87	53.76	-48.86	0.3825	0.1099	-0.2649	
-1.017602	0.12566	0.104432	-31.22	69.93	-36.75	0.3943	0.1161	-0.2546	
-1.028826	0.104188	0.136884	-52.57	58.03	-36.54	0.3838	0.1304	-0.2516	
-1.034194	0.038796	0.12261	-66.43	36.89	-46.55	0.3969	0.1475	-0.2412	
-0.995154	0.002318	0.114192	-59.5	23.59	-58.8	0.4059	0.1458	-0.2397	
-0.997594	0.011834	0.112118	-49.56	20.44	-54.6	0.3969	0.1539	-0.2309	
-1.040782	-0.053192	0.117364	-56.98	14.63	-47.95	0.3938	0.1648	-0.2308	
-0.998204	-0.07198	0.114802	-42.7	11.48	-44.8	0.3995	0.1883	-0.2218	
-0.979172	-0.080764	0.098698	-12.39	11.27	-38.78	0.3965	0.1853	-0.219	
-0.98576	-0.093696	0.122732	-13.44	14.77	-35.84	0.3875	0.198	-0.2116	
-0.996862	-0.113216	0.103212	-7.77	19.18	-35.56	0.3934	0.2011	-0.2072	
-0.982954	-0.108336	0.110776	3.01	21.98	-32.27	0.3948	0.2042	-0.2086	
-1.017236	-0.13664	0.116266	-8.26	25.41	-28	0.3828	0.2122	-0.2042	
-1.014308	-0.143228	0.09357399	-11.41	21.35	-32.13	0.3842	0.2232	-0.1968	
-1.000522	-0.132492	0.08174	-7.14	19.04	-32.83	0.3871	0.2309	-0.2011	
-1.002474	-0.135786	0.07991	-12.67	17.43	-32.13	0.3902	0.2231	-0.1982	
-1.001376	-0.143472	0.056852	-15.12	17.08	-31.92	0.3855	0.2388	-0.2024	
-0.99979	-0.135786	0.05795	-17.22	17.5	-29.4	0.3811	0.239	-0.1879	
-1.004792	-0.147254	0.050142	-9.73	19.74	-28.07	0.393	0.2388	-0.1893	
-1.006744	-0.15067	0.048068	-16.31	19.6	-27.65	0.3825	0.2422	-0.182	
-0.999302	-0.161162	0.033428	-12.88	18.48	-25.9	0.3794	0.2499	-0.1878	
-0.989664	-0.163114	0.034282	-18.06	18.97	-24.99	0.3794	0.2515	-0.1907	
-0.988322	-0.17995	0.021838	-20.72	18.83	-24.57	0.3792	0.2688	-0.176	
-0.991372	-0.19276	0.014396	-18.83	19.32	-24.43	0.3718	0.2674	-0.1731	
-0.998936	-0.205936	0.014152	-14.84	19.11	-23.45	0.3763	0.2642	-0.176	
-0.997472	-0.222162	-0.00732	-20.86	18.55	-22.05	0.3658	0.2738	-0.1643	
-0.982466	-0.23546	-0.024156	-21	18.76	-20.72	0.3748	0.2722	-0.1585	
-0.973194	-0.24583	-0.045872	-18.27	17.99	-19.39	0.379	0.2909	-0.1597	
-0.970632	-0.249124	-0.0488	-17.01	18.27	-17.78	0.3627	0.2881	-0.154	
-0.973926	-0.257298	-0.05429	-14.7	18.48	-17.71	0.3761	0.2847	-0.1554	
-0.972584	-0.260714	-0.060634	-13.58	17.85	-18.06	0.3672	0.2865	-0.1453	
-0.978562	-0.274134	-0.07442	-14.14	17.71	-17.08	0.3686	0.2959	-0.1422	
-0.969412	-0.285846	-0.085766	-17.64	16.66	-16.94	0.367	0.3023	-0.1393	
-0.971486	-0.28487	-0.089548	-19.88	13.72	-17.64	0.3746	0.2929	-0.1248	
-0.957944	-0.29219	-0.09455	-16.24	13.44	-17.99	0.37	0.3023	-0.1276	
-0.961116	-0.303536	-0.09162199	-13.51	13.3	-17.15	0.3552	0.2994	-0.1262	
-0.957822	-0.299022	-0.090036	-14.35	13.16	-16.94	0.3685	0.3071	-0.1247	
-0.95709	-0.30561	-0.106994	-18.13	14.28	-16.8	0.3698	0.3164	-0.1304	
-0.959652	-0.308782	-0.105164	-19.32	14.42	-15.33	0.364	0.3055	-0.1291	
-0.964288	-0.309758	-0.117364	-14.21	13.23	-14.56	0.3624	0.3166	-0.1188	
-0.97234	-0.316712	-0.113582	-10.01	13.09	-13.09	0.3654	0.3134	-0.1246	
-0.97051	-0.316712	-0.116388	-15.19	11.69	-12.88	0.3596	0.309	-0.1072	
-0.962214	-0.322202	-0.12566	-17.78	9.8	-13.16	0.3623	0.3245	-0.1158	
-0.97173	-0.329156	-0.12444	-14.63	9.45	-12.11	0.3566	0.3106	-0.1058	
-0.965996	-0.331962	-0.127368	-8.33	6.79	-11.06	0.3565	0.3184	-0.1042	
-0.952088	-0.329888	-0.140788	-8.47	5.18	-9.8	0.3595	0.3199	-0.1057	
-0.937814	-0.326838	-0.149938	-8.4	4.34	-8.68	0.3505	0.3232	-0.0998	
-0.936716	-0.331596	-0.150304	-10.43	4.2	-7.28	0.3521	0.3186	-0.0984	
-0.945134	-0.34099	-0.152012	-10.08	3.29	-5.53	0.3401	0.3202	-0.1057	
-0.94367	-0.349774	-0.158966	-9.03	1.89	-3.22	0.3461	0.3218	-0.0984	
-0.929884	-0.34953	-0.16714	-8.4	-0.21	-1.33	0.352	0.328	-0.094	
-0.937814	-0.349286	-0.169458	-9.03	-0.77	-0.21	0.346	0.3311	-0.0998	
-0.94733	-0.351482	-0.173484	-7.42	-2.45	0.7	0.3609	0.3247	-0.094	
-0.943182	-0.350872	-0.169092	-8.54	-3.22	1.61	0.352	0.3249	-0.0882	
-0.935618	-0.350994	-0.170922	-10.36	-4.48	3.22	0.3593	0.3373	-0.0909	
-0.935374	-0.355508	-0.17751	-7.98	-6.44	4.55	0.3445	0.3298	-0.0838	
-0.94367	-0.350994	-0.17385	-6.23	-8.26	6.02	0.3534	0.3311	-0.0939	
-0.944036	-0.347944	-0.165676	-3.92	-9.73	7.77	0.3445	0.3328	-0.0939	
-0.94306	-0.345138	-0.159332	-2.52	-11.97	9.17	0.3505	0.3264	-0.0954	
-0.938058	-0.338672	-0.151036	0.7	-14.91	10.15	0.3624	0.3263	-0.0939	
-0.938546	-0.33367	-0.139324	4.06	-17.99	12.11	0.3533	0.3341	-0.1012	
-0.949526	-0.332328	-0.138592	8.96	-20.79	14.7	0.3491	0.3201	-0.0999	
-0.945256	-0.323666	-0.136152	12.81	-23.17	16.52	0.361	0.3184	-0.1042	
-0.931714	-0.31354	-0.131272	13.44	-24.5	18.06	0.3521	0.3153	-0.113	
-0.930006	-0.308294	-0.117974	14.84	-24.5	20.58	0.361	0.3152	-0.1101	
-0.942328	-0.296826	-0.105408	14.98	-25.83	23.45	0.3715	0.3103	-0.1115	
-0.954284	-0.279868	-0.088938	15.33	-26.88	26.81	0.3551	0.3088	-0.1247	
-0.962946	-0.252418	-0.068442	6.65	-30.59	27.16	0.3701	0.296	-0.135	
-0.961604	-0.243634	-0.058926	5.88	-30.87	28.84	0.3805	0.2991	-0.1233	
-0.97539	-0.238144	-0.05429	9.73	-32.48	29.61	0.3643	0.2851	-0.1366	
-0.991006	-0.226066	-0.036478	11.97	-28	30.59	0.3672	0.293	-0.1306	
-1.000278	-0.216184	-0.011712	10.01	-33.04	30.59	0.3806	0.2881	-0.1336	
-1.00955	-0.207034	-0.001464	11.34	-37.59	30.1	0.3731	0.288	-0.151	
-1.009306	-0.19581	0.015616	22.61	-39.13	31.01	0.3703	0.2786	-0.1526	
-1.010648	-0.181902	0.049898	46.97	-38.36	33.39	0.3793	0.2658	-0.1673	
-1.009428	-0.168116	0.068442	51.45	-37.52	37.66	0.3808	0.2626	-0.1717	
-0.999546	-0.151158	0.085278	59.71	-37.73	40.53	0.3779	0.2579	-0.179	
-1.013698	-0.13725	0.093696	65.1	-37.73	42.91	0.3779	0.2531	-0.1892	
-1.014918	-0.133712	0.081496	67.83	-40.04	45.64	0.375	0.2452	-0.1995	
-1.015772	-0.093452	0.12261	63.91	-47.25	49.84	0.3825	0.2372	-0.2068	
-1.026508	-0.090524	0.136274	38.43	-48.44	48.58	0.3887	0.2182	-0.2216	
-0.995642	-0.072102	0.125294	30.87	-50.4	49.07	0.3827	0.2167	-0.223	
-0.972828	-0.055754	0.162626	34.3	-46.9	54.6	0.3843	0.2056	-0.229	
-1.017724	-0.08052	0.17446	47.95	-49.49	56.28	0.3844	0.1977	-0.2436	
-1.025898	-0.044408	0.215452	71.4	-53.2	51.17	0.3787	0.174	-0.2715	
-1.017846	-0.021228	0.200934	70.07	-53.69	44.59	0.379	0.1521	-0.2732	
-0.989908	0.016226	0.23729	51.03	-53.97	39.48	0.3745	0.1505	-0.279	
-1.011746	0.017568	0.27511	52.43	-53.48	38.99	0.3717	0.1364	-0.2807	
-0.965752	0.04087	0.302438	30.45	-51.17	37.03	0.3688	0.1285	-0.2924	
-0.943792	0.084912	0.305366	42.14	-44.31	40.67	0.36	0.1176	-0.2983	
-0.952332	0.109434	0.321104	50.75	-40.04	45.71	0.3674	0.1159	-0.3056	
-0.934276	0.159698	0.327082	67.06	-46.13	49.63	0.3617	0.0971	-0.3146	
-0.930616	0.184098	0.299754	49.14	-46.41	49.84	0.3617	0.097	-0.3204	
-0.951356	0.15921	0.288286	18.34	-37.8	46.69	0.3486	0.0737	-0.325	
-0.961604	0.155428	0.311222	23.03	-38.99	41.02	0.3531	0.0674	-0.3236	
-0.962824	0.155672	0.366122	6.72	-43.54	36.54	0.3502	0.0627	-0.3324	
-0.890112	0.155916	0.38552	4.83	-45.08	27.86	0.3396	0.0751	-0.3512	
-0.910364	0.166042	0.386984	12.53	-42.14	28.84	0.3293	0.06439999	-0.3455	
-0.88877	0.163114	0.383934	17.29	-35.98	35.28	0.3354	0.0518	-0.3413	
-0.890112	0.189344	0.396622	31.15	-30.94	35.07	0.3355	0.0486	-0.3515	
-0.869738	0.200934	0.416752	35.63	-29.47	37.17	0.325	0.0487	-0.3559	
-0.894504	0.224114	0.401746	30.8	-26.74	36.54	0.3253	0.0253	-0.3533	
-0.899262	0.237046	0.390034	24.22	-23.87	37.24	0.3254	0.0205	-0.3591	
-0.898408	0.25376	0.386374	17.08	-23.8	35.56	0.3209	0.0189	-0.3679	
-0.851072	0.297192	0.418704	10.15	-23.94	30.8	0.3255	0.0111	-0.3607	
-0.847046	0.297924	0.424804	8.68	-22.75	28.77	0.3152	0.0002	-0.3725	
-0.841678	0.295728	0.439444	6.93	-23.24	28.77	0.3137	0.0032	-0.3782	
-0.847168	0.306098	0.443836	16.38	-22.26	25.9	0.3093	-0.0028	-0.374	
-0.852048	0.320738	0.44347	13.37	-22.12	23.24	0.3066	-0.0215	-0.3713	
-0.84485	0.333792	0.437492	13.51	-23.52	19.18	0.3035	-0.0153	-0.3799	
-0.820328	0.349042	0.447374	8.19	-23.38	17.92	0.299	-0.0106	-0.3813	
-0.813008	0.354288	0.446764	10.08	-22.54	17.85	0.2976	-0.0231	-0.3829	
-0.815204	0.356606	0.442738	6.65	-17.85	18.48	0.2872	-0.0214	-0.3902	
-0.801296	0.376004	0.465308	9.8	-15.75	18.83	0.2947	-0.0277	-0.3845	
-0.789828	0.386618	0.46299	16.73	-16.31	19.32	0.2814	-0.0339	-0.3918	
-0.788364	0.39894	0.466284	15.12	-14.63	18.41	0.2963	-0.0356	-0.3903	
-0.79361	0.402356	0.479094	10.64	-13.65	18.06	0.2874	-0.0418	-0.3904	
-0.798856	0.409554	0.47946	8.61	-13.44	17.29	0.2815	-0.0448	-0.3876	
-0.794342	0.409798	0.48556	10.36	-13.58	16.17	0.2787	-0.0526	-0.3877	
-0.779824	0.410042	0.48861	14.98	-15.4	14.28	0.2802	-0.054	-0.379	
-0.790682	0.420412	0.480802	25.34	-16.87	12.32	0.2757	-0.0494	-0.3891	
-0.75579	0.451156	0.504714	22.12	-15.61	9.87	0.2698	-0.0572	-0.3907	
-0.748104	0.4636	0.516914	16.1	-11.9	9.38	0.2653	-0.054	-0.3935	
-0.758718	0.444934	0.504714	13.3	-6.23	11.48	0.2728	-0.0604	-0.3994	
-0.737124	0.475922	0.532652	17.08	-4.48	13.93	0.2714	-0.0634	-0.3907	
-0.74542	0.47336	0.5368	14.07	-8.4	13.72	0.2655	-0.0697	-0.3966	
-0.74786	0.46543	0.506666	17.15	-6.44	11.76	0.2641	-0.0807	-0.4011	
-0.72468	0.472262	0.488732	14.21	-5.88	11.13	0.276	-0.0808	-0.3953	
-0.721508	0.48251	0.46665	11.76	-5.25	9.17	0.2598	-0.0947	-0.4013	
-0.73993	0.501786	0.468724	8.89	-3.64	7.42	0.2746	-0.0823	-0.3996	
-0.739198	0.502884	0.459086	6.02	-2.73	6.44	0.2538	-0.0852	-0.3968	
-0.73444	0.497028	0.452132	0.77	-0.28	5.11	0.2627	-0.08679999	-0.3968	
-0.73871	0.497516	0.458842	-0.7	2.45	3.22	0.2597	-0.0821	-0.3997	
-0.728218	0.492026	0.473848	-3.22	3.64	1.19	0.2641	-0.0791	-0.4011	
-0.734562	0.483852	0.484706	-2.24	3.15	-1.4	0.2671	-0.0807	-0.3982	
-0.746762	0.4819	0.487268	-3.01	3.5	-3.15	0.2641	-0.0758	-0.388	
-0.737124	0.477508	0.488732	-5.46	4.2	-5.46	0.2627	-0.0869	-0.3983	
-0.734562	0.475068	0.49044	-5.88	4.83	-8.33	0.2717	-0.0885	-0.3924	
-0.737368	0.470554	0.486658	-8.68	8.05	-12.53	0.2701	-0.0837	-0.3909	
-0.735172	0.474946	0.484218	-6.65	10.36	-15.05	0.2656	-0.079	-0.3938	
-0.734684	0.477142	0.48068	-7	12.25	-16.87	0.267	-0.0743	-0.3923	
-0.746396	0.467016	0.481168	-9.31	15.89	-17.85	0.2714	-0.0714	-0.3995	
-0.75945	0.46177	0.479216	-2.38	19.39	-20.16	0.2731	-0.0806	-0.388	
-0.75213	0.445056	0.47397	-15.61	22.05	-21.7	0.2743	-0.0635	-0.3878	
-0.766892	0.41236	0.464088	-22.12	23.8	-23.94	0.2714	-0.0619	-0.3892	
-0.782752	0.399062	0.459818	-17.01	26.18	-27.02	0.2848	-0.0699	-0.3951	
-0.79178	0.39467	0.4575	-15.4	27.58	-29.89	0.2965	-0.0481	-0.3847	
-0.801296	0.386008	0.445056	-15.96	29.47	-32.06	0.2979	-0.0386	-0.37	
-0.806908	0.375638	0.43981	-18.06	31.43	-33.67	0.2844	-0.0339	-0.3889	
-0.820816	0.364536	0.426146	-18.2	34.09	-36.12	0.2949	-0.0417	-0.3759	
-0.848388	0.373686	0.437004	-16.8	40.25	-39.55	0.3006	-0.0247	-0.3829	
-0.890722	0.36661	0.43798	-23.31	42.42	-38.71	0.3141	-0.0294	-0.3713	
-0.868396	0.342942	0.418216	-26.25	44.73	-38.36	0.3094	-0.012	-0.3595	
-0.860466	0.308294	0.376492	-22.26	43.75	-36.33	0.3214	-0.0185	-0.3683	
-0.851926	0.294508	0.383812	-33.74	45.01	-34.44	0.3287	-0.0029	-0.3579	
-0.892064	0.281332	0.365878	-25.2	50.05	-36.96	0.3329	0.0173	-0.3577	
-0.93147	0.269864	0.3538	-21.21	49.35	-39.76	0.3418	0.0173	-0.3475	
-0.917684	0.249856	0.377346	-23.45	53.27	-41.72	0.3566	0.0233	-0.3532	
-0.986614	0.213256	0.334036	-4.34	39.97	-46.13	0.3461	0.0345	-0.3415	
-0.97661	0.211182	0.34892	-8.82	37.66	-56.35	0.3551	0.0297	-0.3357	
-0.97417	0.179828	0.368196	-48.09	38.43	-58.45	0.3624	0.0375	-0.3341	
-0.935374	0.126026	0.313662	-72.73	43.12	-64.4	0.3666	0.0625	-0.3251	
-0.947452	0.12627	0.242902	-11.06	51.17	-63.28	0.3679	0.0782	-0.3206	
-0.975512	0.190686	0.249978	21.84	49	-55.44	0.3649	0.0799	-0.3089	
-0.984418	0.205936	0.226554	8.12	48.86	-54.67	0.3797	0.0845	-0.3016	
-0.996496	0.227896	0.233752	-31.08	56.49	-48.58	0.3841	0.0938	-0.3043	
-0.994178	0.168848	0.181658	-59.5	65.45	-37.66	0.378	0.1034	-0.2912	
-0.993324	0.063928	0.164944	-84.49	58.45	-41.72	0.3838	0.1174	-0.2881	
-0.969778	0.03172	0.185318	-73.08	42.91	-53.41	0.394	0.1379	-0.266	
-0.983198	0.009516	0.19581	-54.04	28.91	-59.5	0.388	0.149	-0.2572	
-0.970876	-0.011468	0.215086	-42.21	24.71	-59.85	0.3864	0.1537	-0.2601	
-0.990396	-0.02806	0.196054	-45.01	24.5	-56.98	0.3878	0.1647	-0.2512	
-0.993934	-0.051362	0.138836	-42.35	30.94	-53.13	0.3936	0.1772	-0.2453	
-0.982466	-0.076738	0.14091	-54.95	39.41	-45.57	0.3756	0.1932	-0.235	
-1.010038	-0.11712	0.091988	-30.38	32.2	-39.13	0.3814	0.2073	-0.2261	
-1.020652	-0.136884	0.090646	-12.88	31.29	-40.32	0.3858	0.2104	-0.2202	
-1.000644	-0.134688	0.068198	-1.12	20.72	-42.14	0.3842	0.2167	-0.2187	
-0.989786	-0.144082	0.06893	-15.96	14.28	-45.57	0.3783	0.2168	-0.2129	
-0.996496	-0.178608	0.073932	-34.23	14.28	-46.2	0.3797	0.2263	-0.2084	
-0.98515	-0.20984	0.070882	-26.32	11.62	-45.43	0.3825	0.234	-0.2098	
-0.977464	-0.22753	0.071492	-15.33	14.21	-42.07	0.3631	0.2405	-0.2141	
-0.981978	-0.224968	0.070272	-20.86	17.15	-37.73	0.3721	0.2405	-0.2039	
-1.005036	-0.229238	0.062098	-11.41	19.88	-33.18	0.3718	0.2592	-0.2066	
-0.998082	-0.224114	0.041968	-15.4	20.23	-30.94	0.3628	0.2672	-0.1993	
-0.985516	-0.21777	0.03233	-21.77	21.14	-28	0.3584	0.269	-0.1906	
-0.973682	-0.225334	0.021594	-25.62	22.26	-27.37	0.3643	0.2736	-0.1832	
-0.963556	-0.237046	0.016958	-26.81	22.54	-27.65	0.3702	0.2784	-0.1744	
-0.974292	-0.247538	0.024278	-22.54	22.12	-27.44	0.3627	0.2846	-0.1831	
-0.974414	-0.25559	0.029646	-20.37	22.26	-25.41	0.3627	0.28	-0.1773	
-0.977708	-0.264862	0.019764	-18.69	20.65	-24.71	0.3627	0.2896	-0.1554	
-0.999424	-0.289262	-0.008784	-22.33	19.46	-22.75	0.3551	0.2958	-0.1714	
-0.99247	-0.29585	-0.022082	-26.53	16.52	-22.47	0.361	0.302	-0.1655	
-0.971608	-0.296338	-0.027206	-26.53	13.72	-21.91	0.3581	0.3006	-0.1582	
-0.94428	-0.305122	-0.018422	-22.68	14.91	-21.35	0.3506	0.307	-0.1509	
-0.941596	-0.325618	-0.031476	-25.34	17.71	-19.6	0.3519	0.3164	-0.1464	
-0.928542	-0.33794	-0.039162	-25.62	19.53	-16.73	0.3608	0.3179	-0.1479	
-0.935618	-0.34099	-0.055388	-19.25	20.37	-16.24	0.349	0.3134	-0.1436	
-0.942694	-0.340502	-0.070516	-16.45	18.34	-16.17	0.3534	0.3181	-0.1377	
-0.969412	-0.3538	-0.095038	-29.68	16.17	-16.52	0.3519	0.3213	-0.1318	
-0.955504	-0.350994	-0.085644	-20.72	13.79	-14.84	0.3431	0.3152	-0.1261	
-0.958554	-0.347822	-0.084424	-7.77	13.93	-14.28	0.346	0.3262	-0.1173	
-0.954772	-0.34648	-0.094428	-11.62	14.28	-13.65	0.3549	0.3245	-0.126	
-0.9516	-0.346724	-0.09552599	-12.46	12.53	-12.39	0.3415	0.3279	-0.1173	
-0.943548	-0.357338	-0.107726	-8.82	12.18	-10.64	0.3386	0.3217	-0.1101	
-0.940864	-0.360876	-0.122488	-5.74	12.74	-7.7	0.3459	0.3324	-0.1216	
-0.941352	-0.362584	-0.123952	-9.52	10.78	-5.74	0.3445	0.3279	-0.11	
-0.942206	-0.36722	-0.11529	-3.92	9.45	-5.6	0.3458	0.3388	-0.1157	
-0.953674	-0.36783	-0.111996	-2.24	7.7	-3.78	0.334	0.3376	-0.0968	
-0.939034	-0.365024	-0.120536	-5.74	6.16	-3.5	0.3473	0.342	-0.1025	
-0.946232	-0.370636	-0.1342	-3.71	3.85	-2.59	0.3443	0.342	-0.1098	
-0.938668	-0.366488	-0.137494	-3.5	3.01	-1.54	0.3548	0.3372	-0.1026	
-0.935618	-0.371856	-0.141886	-7.91	1.68	-0.07	0.3399	0.3405	-0.1055	
-0.945378	-0.37515	-0.140422	-4.76	-0.14	1.89	0.3428	0.3405	-0.1069	
-0.94123	-0.37027	-0.147254	-3.57	-1.33	3.01	0.3429	0.3343	-0.0983	
-0.932202	-0.367708	-0.150304	-1.89	-2.87	3.29	0.3459	0.3359	-0.0953	
-0.94306	-0.36905	-0.138348	1.19	-4.76	3.85	0.3444	0.3343	-0.0983	
-0.940864	-0.36539	-0.142862	0.84	-6.09	5.32	0.3474	0.3359	-0.0924	
-0.94062	-0.365634	-0.147986	0.91	-8.05	7	0.3474	0.3357	-0.1055	
-0.936716	-0.365756	-0.148352	-3.08	-9.1	8.96	0.3429	0.3342	-0.1114	
-0.941596	-0.364414	-0.1464	-1.26	-10.43	11.69	0.3459	0.3373	-0.1055	
-0.946598	-0.35258	-0.135542	2.31	-11.34	13.37	0.3415	0.3311	-0.1085	
-0.936472	-0.337086	-0.121024	2.52	-12.74	14.07	0.3505	0.3232	-0.1071	
-0.937692	-0.326228	-0.101992	2.8	-14.84	15.26	0.3371	0.3281	-0.1056	
-0.940498	-0.32879	-0.09394	0.91	-16.8	17.5	0.3474	0.3294	-0.1143	
-0.927688	-0.33733	-0.090524	-1.4	-18.55	20.44	0.3622	0.3339	-0.1142	
-0.934398	-0.337818	-0.103578	3.08	-21.35	20.93	0.3624	0.3245	-0.1114	
-0.947208	-0.331718	-0.098454	7.21	-22.19	21.84	0.3595	0.3104	-0.1218	
-0.949282	-0.31781	-0.089304	4.34	-22.12	22.82	0.3565	0.3136	-0.1145	
-0.947208	-0.296094	-0.066124	5.67	-24.22	23.45	0.3489	0.3262	-0.1173	
-0.952332	-0.270718	-0.053802	3.29	-26.32	27.44	0.3595	0.3134	-0.1319	
-0.963678	-0.262666	-0.046848	-0.98	-27.23	28.07	0.3596	0.3039	-0.1422	
-0.990518	-0.25925	-0.023058	10.36	-22.4	28.28	0.3641	0.3023	-0.1349	
-0.9943	-0.233996	-0.001342	19.53	-24.57	27.51	0.373	0.3005	-0.1465	
-0.98759	-0.215818	0.010248	30.94	-25.62	28.21	0.3761	0.2896	-0.1452	
-0.989054	-0.200568	0.020496	39.41	-27.02	29.89	0.3687	0.2881	-0.1438	
-1.01199	-0.202032	0.016348	47.81	-25.83	33.39	0.3775	0.291	-0.1568	
-1.025288	-0.193004	0.027938	49.35	-24.78	36.12	0.3761	0.2846	-0.17	
-1.017602	-0.181536	0.031598	40.6	-25.41	36.33	0.3763	0.2658	-0.1731	
-1.000644	-0.157502	0.055022	39.55	-29.89	34.65	0.3837	0.2641	-0.176	
-0.99491	-0.152744	0.06222	39.97	-32.55	34.44	0.3808	0.2609	-0.1848	
-0.989054	-0.15555	0.065636	34.58	-32.2	35.91	0.3735	0.2499	-0.1951	
-0.991372	-0.15189	0.08174	27.93	-28.49	38.43	0.3675	0.2468	-0.1995	
-0.989908	-0.127612	0.10248	30.1	-25.55	41.58	0.3841	0.2324	-0.2098	
-0.976732	-0.099674	0.126514	37.24	-25.97	45.08	0.3826	0.2262	-0.2099	
-0.99857	-0.086132	0.122	37.73	-25.97	46.9	0.3827	0.2214	-0.2201	
-1.026752	-0.093452	0.116754	38.99	-23.73	45.92	0.3887	0.215	-0.2216	
-1.028948	-0.06771	0.12932	37.52	-24.36	44.38	0.3844	0.2011	-0.2174	
-1.015528	-0.052826	0.149084	51.66	-26.18	42.7	0.392	0.1884	-0.2277	
-1.014308	-0.044774	0.175924	58.45	-28.63	33.81	0.3787	0.1789	-0.2467	
-0.991616	-0.033184	0.190442	80.08	-32.41	26.74	0.3921	0.1725	-0.2497	
-0.99491	0.00427	0.219112	79.8	-34.44	26.53	0.3879	0.1568	-0.2542	
-0.987956	0.022204	0.223504	55.65	-28.56	26.11	0.3819	0.1552	-0.2702	
-0.999668	0.020496	0.243512	34.23	-25.13	29.89	0.3895	0.1378	-0.2733	
-0.999668	-0.005124	0.265716	11.69	-23.59	30.1	0.3776	0.1396	-0.2704	
-1.013454	-0.013908	0.224358	-1.96	-20.72	28.14	0.3835	0.141	-0.2777	
-1.012478	-0.002562	0.207644	-6.65	-16.17	25.13	0.3807	0.1286	-0.2764	
-1.015406	0.01281	0.199958	3.43	-16.8	20.23	0.3792	0.1302	-0.2749	
-0.996252	0.040504	0.204838	19.25	-13.16	16.1	0.3778	0.1207	-0.2852	
-0.973926	0.07137	0.216184	23.17	-7.77	13.44	0.3808	0.1238	-0.2808	
-0.97051	0.106628	0.236436	13.72	-2.59	10.99	0.378	0.1113	-0.2824	
-0.987468	0.12993	0.252174	1.47	5.18	11.13	0.3808	0.1237	-0.2895	
-0.966606	0.13725	0.254858	-0.84	10.01	10.29	0.3854	0.1144	-0.2765	
-0.94977	0.13481	0.239364	-11.83	10.36	7.77	0.3869	0.1112	-0.2823	
-0.971974	0.118828	0.22875	-21.07	12.74	6.79	0.378	0.1082	-0.278	
-0.996252	0.125294	0.24644	-17.43	16.24	7	0.3795	0.1082	-0.2838	
-0.974292	0.159576	0.266204	-18.27	16.17	3.15	0.3779	0.1177	-0.275	
-0.96868	0.182268	0.261446	-11.62	14.35	1.26	0.3824	0.1163	-0.2561	
-0.971974	0.21411	0.264252	-16.38	14.77	4.48	0.3869	0.1161	-0.2677	
-0.96502	0.23485	0.26169	-13.23	21	12.18	0.3898	0.1193	-0.259	
-0.951478	0.23424	0.233386	-15.12	27.58	15.68	0.3972	0.1207	-0.2575	
-0.963556	0.224846	0.224602	-26.67	29.05	16.66	0.3958	0.1177	-0.2532	
-0.961482	0.193736	0.190442	-39.62	25.9	14.7	0.4032	0.1207	-0.2531	
-0.977586	0.177632	0.187392	-56.98	24.08	14.49	0.3987	0.1239	-0.2545	
-0.99247	0.141154	0.167262	-60.97	23.59	12.6	0.4048	0.1177	-0.2429	
-0.998448	0.140422	0.163602	-63.91	22.54	9.03	0.4091	0.127	-0.2399	
-1.011136	0.153232	0.156404	-63.63	22.05	7.7	0.4033	0.121	-0.2255	
-1.010648	0.163968	0.154208	-57.68	21.77	6.51	0.4076	0.1319	-0.2268	
-1.006012	0.176778	0.144204	-55.51	21.35	4.13	0.4105	0.135	-0.2238	
-0.98027	0.189222	0.131394	-61.81	21.35	6.09	0.4134	0.1459	-0.2223	
-0.958554	0.167506	0.068076	-63.07	27.58	10.85	0.4239	0.1412	-0.215	
-0.999546	0.140178	0.071126	-78.68	33.95	16.38	0.4268	0.1412	-0.2121	
-1.040294	0.07625	0.049776	-70.7	31.99	13.3	0.418	0.1399	-0.1976	
-1.038952	0.036112	0.012078	-55.09	26.81	4.41	0.4224	0.1431	-0.1859	
-1.029192	0.042212	-0.008052	-66.85	30.94	-3.5	0.4224	0.1479	-0.1742	
-1.000278	0.056608	0.00854	-70.42	38.92	0.35	0.4283	0.1573	-0.1668	
-1.044564	0.05856	-0.007442	-54.95	34.44	9.1	0.4239	0.1512	-0.1596	
-0.97173	0.025742	-0.01464	-44.59	35.42	5.04	0.4313	0.1558	-0.1552	
-1.000156	0.080886	-0.007076	-20.86	27.3	-4.76	0.4387	0.1557	-0.1552	
-1.061156	0.112484	-0.048434	4.69	5.53	-6.79	0.4342	0.1606	-0.1479	
-1.039562	0.069662	-0.024766	3.64	12.88	-10.29	0.4342	0.1622	-0.1449	
-1.003816	0.08601	0.040382	5.25	5.6	-18.69	0.4343	0.1559	-0.145	
-0.998448	0.103212	0.001098	42.56	7.14	-16.38	0.4401	0.1636	-0.1493	
-0.98698	0.125172	0.007808	38.71	10.5	-17.5	0.4298	0.1574	-0.1566	
-1.001132	0.045384	0.049898	9.87	8.26	-17.15	0.4268	0.1575	-0.1479	
-0.995154	0.050752	0.034648	1.75	12.53	-14.84	0.4282	0.1654	-0.142	
-1.004914	0.076372	0.007808	-10.64	16.17	-9.8	0.4385	0.1715	-0.1477	
-1.016504	0.023546	-0.010492	-17.5	9.38	-8.05	0.4357	0.1621	-0.1449	
-1.02602	0.015372	-0.022814	5.67	6.3	-9.17	0.4297	0.1685	-0.1449	
-1.011746	0.008662	0.016958	11.34	4.69	-11.97	0.431	0.1842	-0.136	
-1.025898	0.004392	0.018666	2.52	2.45	-11.69	0.425	0.1827	-0.1404	
-1.01504	0.0366	0.010858	-3.85	6.72	-9.87	0.4267	0.1717	-0.139	
-1.017724	0.04636	-0.005368	-1.54	5.25	-8.96	0.4221	0.1843	-0.1331	
-1.003816	0.015982	0.014518	8.89	1.12	-8.26	0.434	0.1811	-0.1287	
-1.006378	0.004758	-0.010492	11.2	2.66	-6.16	0.431	0.1857	-0.1374	
-1.024068	0.019032	-0.011224	18.83	0.35	-7.84	0.4296	0.1795	-0.1346	
-1.019676	0.037332	0.006588	18.9	-4.27	-7.49	0.4234	0.1905	-0.1418	
-1.012844	0.052338	0.020496	16.24	-3.15	-6.72	0.4249	0.1872	-0.152	
-1.019432	0.06283	-0.001342	6.3	1.4	-5.74	0.428	0.1842	-0.136	
-1.017724	0.048556	-0.008052	-3.5	4.27	-4.13	0.4279	0.1889	-0.1418	
-1.01382	0.028304	-0.009028	-4.2	4.27	-3.85	0.4206	0.1796	-0.139	
-1.007598	-0.001708	-0.008662	-5.11	4.83	-3.71	0.4236	0.1827	-0.1375	
-1.008086	-0.012688	-0.006588	-1.54	4.2	-3.64	0.4265	0.1827	-0.1346	
-1.015772	-0.033428	0.005246	-1.54	2.59	-3.15	0.4221	0.1812	-0.1317	
-1.016016	-0.015494	0.00366	3.71	2.38	-3.15	0.4234	0.1921	-0.1359	
-1.01565	-0.004636	0.005124	6.37	2.03	-3.5	0.431	0.1825	-0.1433	
-1.010282	-0.002684	0.00366	8.89	3.57	-2.87	0.4309	0.1905	-0.1345	
-1.01626	-0.007808	0.005612	11.06	3.43	-2.45	0.4249	0.192	-0.1403	
-1.007842	-0.009028	0.008296	11.06	1.96	-3.01	0.425	0.1842	-0.1404	
-1.016992	-0.007564	-0.006222	4.27	1.89	-2.59	0.4206	0.1843	-0.136	
-1.006012	0.00061	0.002196	5.32	0.7	-1.26	0.4294	0.1888	-0.1418	
-1.009794	0.012688	-0.013664	4.83	0.98	-0.42	0.4309	0.1889	-0.1388	
-1.021262	-0.001952	-0.01464	2.45	2.17	-0.28	0.4278	0.1983	-0.1329	
-1.024678	-0.018544	-0.009516	5.67	2.17	0.14	0.4221	0.1812	-0.136	
-1.02053	-0.016104	-0.00671	8.26	0.49	0.91	0.4251	0.1764	-0.139	
-1.017236	-0.02318	-0.02196	4.69	0.35	1.68	0.4176	0.1812	-0.1404	
-1.013332	-0.042822	-0.016836	7.98	-0.49	2.03	0.4354	0.1904	-0.133	
-1.007842	-0.032696	-0.01098	18.2	-3.15	3.92	0.4235	0.1875	-0.1302	
-1.021872	-0.022692	-0.010736	11.2	-5.11	7.7	0.4266	0.1779	-0.1433	
-1.018822	-0.018422	-0.001586	18.2	-6.65	11.06	0.4236	0.1811	-0.1419	
-1.016504	-0.007564	-0.015738	18.06	-11.48	15.26	0.4191	0.1812	-0.1404	
-1.017602	-0.028548	0.012322	26.67	-14.35	19.67	0.4252	0.1685	-0.1449	
-1.006622	-0.014518	-0.015372	9.73	-13.86	23.1	0.4281	0.1747	-0.1506	
-1.0004	-0.030256	-0.005978	-0.77	-13.72	25.9	0.4282	0.1621	-0.158	
-1.0004	-0.011224	-0.016836	-3.08	-13.79	26.39	0.4207	0.1701	-0.1507	
-1.002352	-0.016592	-0.062098	3.78	-21.07	28.91	0.4267	0.1621	-0.161	
-1.02419	0.027694	-0.02135	28.63	-36.05	26.11	0.4327	0.162	-0.1653	
-1.016748	0.045872	0.053802	20.44	-48.72	19.39	0.4193	0.1574	-0.1668	
-1.096658	-0.068442	0.003172	58.38	-25.9	16.17	0.4238	0.1541	-0.1785	
-1.04493	-0.00427	0.039528	21.28	-18.2	21.21	0.4254	0.1447	-0.1801	
-1.057862	0.034526	-0.022814	19.04	-34.02	13.09	0.4196	0.1306	-0.1919	
-1.073722	0.09333	0.009272	-2.45	-36.05	13.51	0.433	0.132	-0.1903	
-1.032852	0.101382	0.012688	20.93	-39.2	11.13	0.4255	0.1288	-0.202	
-1.022726	0.080032	-0.008052	15.82	-41.16	-4.2	0.4255	0.1271	-0.2108	
-0.99979	0.106262	0.039406	8.33	-32.48	-14.49	0.4226	0.1272	-0.2079	
-0.951844	0.140422	0.069906	8.54	-29.96	-18.06	0.4106	0.1289	-0.2137	
-0.97661	0.172264	0.104676	24.71	-27.44	-21.77	0.4105	0.1365	-0.2282	
-0.998204	0.198738	0.116632	47.46	-25.48	-17.36	0.4045	0.1382	-0.2267	
-0.930128	0.171532	0.19825	51.59	-27.16	-11.27	0.4105	0.135	-0.2267	
-0.97051	0.147376	0.16897	39.55	-32.48	-16.66	0.4031	0.1286	-0.2428	
-0.978074	0.095038	0.170068	42.28	-15.33	-10.15	0.4061	0.1286	-0.2457	
-0.993812	0.108336	0.198616	35.14	-16.1	-11.06	0.4031	0.1301	-0.2486	
-1.014308	0.09357399	0.17202	18.06	-11.06	-10.57	0.3898	0.1241	-0.2444	
-0.998448	0.108214	0.142374	4.62	-8.19	-10.29	0.3986	0.1302	-0.2443	
-0.99674	0.120536	0.194224	25.06	-5.39	-7.63	0.4016	0.1301	-0.2545	
-0.986614	0.168238	0.198616	40.25	-22.47	-19.18	0.3986	0.1301	-0.2559	
-0.966972	0.17385	0.191906	24.43	-25.41	-21.7	0.3956	0.1285	-0.2618	
-0.975024	0.131516	0.193004	13.02	-17.78	-17.85	0.3897	0.127	-0.2647	
-0.967338	0.116266	0.207034	8.33	-9.17	-15.47	0.3926	0.1348	-0.2646	
-0.98515	0.10309	0.203374	28	-7.98	-12.95	0.3896	0.1364	-0.2661	
-0.959408	0.102968	0.19642	36.19	-7.42	-9.31	0.3808	0.1286	-0.2691	
-0.963556	0.08967	0.187636	36.82	-5.18	-10.5	0.3807	0.1302	-0.2705	
-0.977708	0.09882	0.196664	21.84	-7.84	-12.25	0.3838	0.1223	-0.2706	
-0.985394	0.129686	0.21716	41.58	-9.59	-10.36	0.3807	0.1301	-0.2792	
-0.976	0.107482	0.246196	48.16	-12.18	-13.93	0.3748	0.1302	-0.2764	
-0.960506	0.091256	0.262544	28.56	-16.87	-20.23	0.3777	0.1269	-0.2909	
-0.975146	0.004392	0.291092	33.46	-15.26	-9.87	0.3764	0.1192	-0.2823	
-1.0187	0.000854	0.27572	44.94	-7.21	-1.47	0.3837	0.1237	-0.2909	
-1.021018	0.065148	0.200202	34.44	-6.86	2.38	0.3689	0.1176	-0.2925	
-1.003206	0.11773	0.148718	20.51	-6.86	11.48	0.3779	0.1143	-0.294	
-1.00467	0.12444	0.139568	16.73	0.14	16.38	0.3719	0.1144	-0.294	
-1.005158	0.111874	0.152012	39.2	-5.11	18.2	0.381	0.1049	-0.297	
-0.981246	0.113094	0.171776	61.88	-13.16	18.48	0.3737	0.094	-0.2957	
-0.992592	0.114558	0.202032	67.83	-15.68	16.03	0.3737	0.08769999	-0.3044	
-0.983686	0.08418	0.217404	82.32	-9.38	16.1	0.3769	0.0721	-0.3002	
-0.95953	0.123952	0.24766	98.7	-9.87	18.9	0.3694	0.0783	-0.3104	
-0.956846	0.13908	0.285846	144.9	-6.09	21.7	0.3696	0.0658	-0.3076	
-0.981734	0.183122	0.242536	145.11	-3.08	19.25	0.3625	0.033	-0.3182	
-0.96319	0.208254	0.24095	140.91	-4.34	15.75	0.3671	0.0252	-0.3124	
-0.971242	0.236802	0.211182	135.87	-3.71	13.37	0.3703	0.0032	-0.3126	
-0.954528	0.249124	0.204716	130.97	-5.39	13.3	0.3734	-0.0013	-0.3069	
-0.947574	0.276086	0.202886	129.01	-6.93	12.46	0.3661	-0.017	-0.3172	
-0.961604	0.305488	0.198738	116.48	-5.18	10.99	0.3707	-0.028	-0.3173	
-0.957944	0.287432	0.22021	96.46	-4.48	10.15	0.3695	-0.0498	-0.3132	
-0.970022	0.273402	0.181414	77.49	-4.69	9.87	0.3682	-0.0591	-0.3104	
-0.970266	0.278892	0.156526	74.13	-7.07	9.31	0.3742	-0.0655	-0.3148	
-0.97234	0.278526	0.1708	88.69	-10.57	9.52	0.3683	-0.0669	-0.309	
-0.962092	0.296948	0.176168	85.61	-12.53	8.47	0.3701	-0.0951	-0.3108	
-0.955626	0.31354	0.155062	77.77	-9.66	7.42	0.3686	-0.0903	-0.3005	
-0.925492	0.346968	0.164578	77.35	-4.2	8.12	0.3614	-0.1058	-0.3007	
-0.952698	0.306342	0.18117	76.65	-7.63	8.96	0.3644	-0.1137	-0.2994	
-0.961482	0.290482	0.1647	60.48	-7.7	7.28	0.3631	-0.1214	-0.2907	
-0.96197	0.304756	0.157624	66.08	-7.84	5.04	0.3722	-0.1356	-0.2937	
-0.964532	0.303414	0.162626	63.77	-7.21	3.5	0.3604	-0.1417	-0.2953	
-0.94367	0.322934	0.14213	61.81	-9.59	2.73	0.359	-0.1479	-0.2925	
-0.945988	0.319396	0.140788	57.68	-7.77	2.73	0.3589	-0.1416	-0.288	
-0.943792	0.329034	0.1342	51.24	-5.95	1.61	0.362	-0.1495	-0.2939	
-0.936106	0.325252	0.134444	45.29	-5.18	1.26	0.3562	-0.1603	-0.2897	
-0.936716	0.319762	0.136274	42.91	-4.76	1.05	0.3503	-0.1633	-0.2854	
-0.95953	0.322812	0.118218	35.35	-4.83	1.4	0.3547	-0.1603	-0.2897	
-0.960018	0.32086	0.115412	40.18	-6.44	2.31	0.3578	-0.168	-0.2752	
-0.94672	0.352336	0.127002	47.32	-6.58	3.43	0.3548	-0.1696	-0.2767	
-0.935496	0.369294	0.141276	43.96	-4.97	3.64	0.3505	-0.1789	-0.2768	
-0.920612	0.389302	0.149572	39.69	-4.27	2.94	0.358	-0.1852	-0.2754	
-0.925126	0.407968	0.147498	31.36	-2.94	2.45	0.3491	-0.1883	-0.2784	
-0.939034	0.375882	0.150426	16.73	-1.19	0.42	0.3521	-0.1866	-0.2711	
-0.928664	0.36112	0.131882	5.81	-0.91	-1.54	0.355	-0.1852	-0.2754	
-0.926224	0.345382	0.127612	2.8	-0.14	-2.03	0.3536	-0.1866	-0.2667	
-0.922686	0.353678	0.105774	2.17	-0.07	-1.26	0.3625	-0.1837	-0.271	
-0.931958	0.33306	0.12139	-0.84	0.42	-0.35	0.3507	-0.1945	-0.2741	
-0.93635	0.370636	0.133956	3.71	0.49	0.91	0.3566	-0.1883	-0.2754	
-0.94306	0.35319	0.12017	-6.86	1.75	0.21	0.3522	-0.1928	-0.261	
-0.939522	0.352946	0.11102	-4.48	1.82	0.49	0.3565	-0.1836	-0.2725	
-0.942328	0.35014	0.116144	-8.47	2.52	0.7	0.3535	-0.1836	-0.2739	
-0.961604	0.341356	0.12383	-11.55	2.94	0.28	0.3477	-0.1881	-0.2697	
-0.952332	0.338306	0.118096	-15.47	3.08	-1.4	0.3581	-0.1899	-0.2725	
-0.954162	0.33794	0.127368	-18.41	4.27	-2.59	0.3609	-0.1789	-0.2651	
-0.942206	0.362218	0.127246	-20.23	4.27	-3.01	0.3521	-0.1835	-0.2681	
-0.93879	0.348188	0.130906	-27.65	6.02	-4.55	0.3626	-0.1931	-0.2726	
-0.92842	0.33245	0.11712	-41.51	6.58	-6.44	0.3596	-0.1898	-0.2682	
-0.935496	0.326228	0.128344	-48.86	7.84	-7.42	0.3595	-0.1804	-0.2666	
-0.941962	0.333548	0.141032	-54.39	9.66	-9.17	0.3637	-0.165	-0.2752	
-0.922076	0.3538	0.150792	-60.97	10.92	-11.83	0.3636	-0.1604	-0.2824	
-0.915854	0.359656	0.142862	-71.82	11.76	-13.93	0.368	-0.1573	-0.2824	
-0.910486	0.37027	0.13176	-79.17	13.65	-17.5	0.3501	-0.1492	-0.2838	
-0.952942	0.36234	0.150548	-92.96	14.7	-20.86	0.3752	-0.1356	-0.2908	
-0.9577	0.337086	0.167262	-94.92	15.96	-21.35	0.3662	-0.1308	-0.2908	
-0.94123	0.322568	0.17507	-102.27	17.08	-22.75	0.3734	-0.1137	-0.2891	
-0.961604	0.312198	0.172996	-125.02	21	-23.94	0.3761	-0.0919	-0.2947	
-0.959774	0.310978	0.163114	-139.86	19.95	-27.72	0.3832	-0.0702	-0.3032	
-0.953064	0.305244	0.156648	-157.43	16.52	-29.05	0.3771	-0.0576	-0.306	
-0.988444	0.25925	0.17568	-163.66	16.38	-29.19	0.3799	-0.0436	-0.3044	
-0.999546	0.270474	0.191418	-158.34	22.47	-32.97	0.3812	-0.0247	-0.294	
-1.0004	0.262422	0.205082	-162.61	13.72	-43.82	0.3927	-0.0016	-0.3039	
-0.959774	0.219478	0.182146	-158.41	19.32	-36.61	0.3851	0.0172	-0.3023	
-1.00589	0.174704	0.106872	-146.16	23.73	-25.76	0.3849	0.0329	-0.3021	
-1.0492	0.128832	0.10431	-142.52	26.11	-22.47	0.3891	0.0517	-0.2917	
-1.034194	0.10858	0.127978	-104.23	25.69	-19.88	0.386	0.0642	-0.2945	
-0.978318	0.083448	0.132004	-97.58	17.22	-21.91	0.4036	0.0829	-0.2768	
-0.950136	0.021716	0.106018	-87.85	11.41	-17.78	0.3946	0.0892	-0.2869	
-1.001986	0.04758	0.121146	-62.09	9.87	-15.33	0.39	0.1019	-0.2722	
-1.02724	0.064782	0.160552	-52.64	9.31	-11.06	0.3915	0.0988	-0.2708	
-1.006256	0.089548	0.189344	-62.44	6.86	-12.81	0.3974	0.1065	-0.2707	
-0.978806	0.048434	0.149694	-62.23	6.86	-7.7	0.3913	0.1175	-0.2706	
-0.999668	-0.012566	0.107482	-59.85	12.46	-4.76	0.3987	0.1238	-0.2647	
-1.00772	-0.036722	0.06466	-75.25	13.09	-4.62	0.3942	0.1238	-0.2676	
-1.051518	-0.00244	0.08113	-10.15	6.58	0.84	0.3942	0.127	-0.2574	
-1.001742	0.017324	0.098942	-12.18	2.24	-6.23	0.3956	0.1364	-0.253	
-0.981734	0.02867	0.069296	-24.15	3.99	-6.79	0.3986	0.1302	-0.2501	
-0.979172	0.041236	0.095038	-23.03	12.6	0.49	0.3867	0.135	-0.253	
-0.986248	0.065758	0.091012	-17.92	15.68	6.02	0.4059	0.1441	-0.2514	
-0.993446	0.086254	0.078812	-26.53	23.17	9.17	0.406	0.1381	-0.2355	
-1.03029	0.10248	0.071614	1.26	28.84	14.84	0.4044	0.1427	-0.2383	
-1.0309	0.133102	0.066124	6.51	23.59	17.92	0.4001	0.1366	-0.2297	
-1.012966	0.116754	0.028304	-7.21	18.34	15.19	0.4074	0.1411	-0.2412	
-1.01077	0.119682	0.0427	-26.11	14.7	12.25	0.4105	0.1333	-0.234	
-1.0309	0.100772	0.081618	-45.08	8.89	13.72	0.4046	0.1304	-0.2268	
-1.041148	0.009272	0.120902	-68.67	5.25	11.55	0.3987	0.1288	-0.2341	
-1.0187	-0.029036	0.13725	-57.4	-2.73	1.75	0.4089	0.1444	-0.2223	
-0.997838	0.044286	0.090524	-42	-1.47	-4.06	0.4149	0.1428	-0.2194	
-1.007598	0.146278	0.062464	-57.47	7.28	-1.4	0.412	0.1382	-0.2165	
-1.010892	0.155184	0.027694	-69.65	8.47	2.24	0.4149	0.1476	-0.2135	
-0.986858	0.137372	0.07991	-72.1	10.64	2.73	0.4088	0.1555	-0.2134	
-0.98149	0.100528	0.092354	-49.42	6.72	10.08	0.4102	0.1618	-0.2061	
-0.995032	0.127978	0.02623	-3.71	17.15	20.23	0.4161	0.168	-0.1987	
-1.023336	0.050142	-0.031354	-40.53	12.32	18.83	0.4237	0.1554	-0.2018	
-1.056032	-0.207156	-0.078812	-120.05	13.02	1.96	0.4148	0.154	-0.1945	
-1.050176	-0.13969	-0.037332	-27.93	21.84	-11.76	0.4103	0.162	-0.1886	
-1.008696	0.027694	-0.042944	-26.18	11.55	-13.44	0.4148	0.1605	-0.1741	
-0.979538	0.045628	0.047092	-2.38	10.99	-10.78	0.431	0.1711	-0.1841	
-1.013454	0.025742	0.053924	16.94	5.95	-7.56	0.4116	0.176	-0.1885	
-1.018456	-0.019398	0.04514	0.49	12.25	-6.23	0.4206	0.1728	-0.1856	
-1.024556	-0.039528	0.008296	-14.98	18.2	-6.09	0.4178	0.1605	-0.1741	
-1.02602	-0.015982	-0.010858	-22.26	14.21	-6.79	0.4118	0.1605	-0.1828	
-1.042124	-0.00305	0.00061	-19.53	10.64	-9.45	0.4176	0.1729	-0.1812	
-1.017358	0.033062	0.00366	-9.8	7.77	-10.01	0.4162	0.1715	-0.1725	
-0.99796	0.01769	-0.006832	-7.91	5.74	-9.1	0.4176	0.1747	-0.1638	
-1.014064	-0.01647	-0.000244	8.68	3.57	-10.36	0.4176	0.1778	-0.1681	
-1.01382	-0.010004	0.001586	9.1	3.01	-9.87	0.4115	0.1856	-0.1709	
-1.000156	-0.041724	0.038064	5.81	2.24	-12.04	0.4191	0.1777	-0.1724	
-1.011868	-0.009881999	0.030866	1.05	5.88	-8.54	0.416	0.1825	-0.1651	
-1.017602	-0.001708	0.037698	-14.35	8.96	-5.95	0.4205	0.184	-0.1651	
-1.010526	-0.017324	0.00122	-22.26	8.05	-2.52	0.416	0.1888	-0.1607	
-1.010282	-0.03538	0.009393999	-11.76	5.6	-2.38	0.4235	0.1841	-0.1535	
-1.012722	-0.016836	0.005124	-12.53	5.81	-3.71	0.4102	0.178	-0.1565	
-1.0126	-0.004758	0.002562	-15.19	7.49	-3.08	0.4219	0.1888	-0.1534	
-1.019432	-0.008662	0.008296	-18.76	6.51	-2.94	0.4175	0.1874	-0.1462	
-1.018456	-0.010736	0.006954	-18.34	6.02	-3.01	0.4144	0.1983	-0.1548	
-1.026508	-0.016226	-0.00183	-17.71	6.79	-2.59	0.4159	0.1952	-0.1461	
-1.023946	-0.030378	-0.004392	-20.93	6.37	-2.17	0.4233	0.1982	-0.1475	
-1.025288	-0.02074	0.001464	-17.15	5.18	-2.24	0.4233	0.203	-0.1402	
-1.023214	-0.044164	0.00305	-17.22	6.02	-1.68	0.4202	0.2061	-0.1503	
-1.013576	-0.048434	0.017934	-13.37	5.39	-1.68	0.4175	0.189	-0.1418	
-1.016748	-0.049654	0.01525	-14.49	5.18	-1.4	0.4219	0.1936	-0.1432	
-1.00772	-0.039162	0.008296	-11.69	3.99	-1.75	0.419	0.1923	-0.1272	
-1.016992	-0.052826	0.008417999	-12.32	3.5	-1.05	0.4278	0.203	-0.1343	
-1.015284	-0.049532	0.006588	-8.05	3.01	-0.7	0.419	0.1938	-0.1345	
-1.013576	-0.050386	0.004514	-6.86	1.96	0	0.4204	0.2	-0.1315	
-1.004426	-0.049776	0.002318	-3.99	2.24	0.35	0.4248	0.203	-0.1387	
-1.005036	-0.048312	0.013786	-0.42	1.82	0.77	0.4187	0.2093	-0.143	
-1.006866	-0.02989	-0.000244	0.35	2.31	1.12	0.4262	0.2077	-0.1328	
-1.004548	-0.021716	0.016958	1.75	1.75	1.68	0.4161	0.1844	-0.136	
-1.016748	-0.025132	-0.000366	2.59	2.45	0.63	0.4173	0.2063	-0.1343	
-1.010282	-0.01281	-0.005734	5.04	2.87	0.21	0.4217	0.2094	-0.1314	
-1.013088	-0.018788	-0.008417999	3.5	3.01	0.07	0.416	0.1907	-0.133	
-1.019188	-0.02074	-0.00366	7.28	3.22	-0.56	0.4203	0.2078	-0.1372	
-1.02602	-0.018544	-0.00854	8.26	2.24	0.7	0.4204	0.1968	-0.1373	
-1.0187	-0.040626	-0.013542	10.08	1.96	1.61	0.4174	0.2001	-0.1315	
-1.011258	-0.049654	0.011224	14.91	1.05	2.17	0.4189	0.1969	-0.133	
-1.007842	-0.056242	0.010248	15.82	-1.12	3.36	0.4234	0.1937	-0.1301	
-1.013576	-0.045018	0.003172	19.25	-2.87	5.6	0.4189	0.2015	-0.1387	
-1.004182	-0.028304	0.000366	30.03	-6.65	6.79	0.4249	0.1936	-0.1403	
-1.006622	-0.01769	0.009881999	25.06	-11.97	10.15	0.4249	0.1936	-0.1388	
-1.015772	-0.011346	-0.012078	27.58	-14.77	13.93	0.4116	0.189	-0.1476	
-1.029924	-0.035502	-0.01281	15.96	-14.07	17.5	0.4146	0.1812	-0.1419	
-1.04066	-0.047458	-0.0183	22.12	-15.12	18.62	0.4131	0.1828	-0.1419	
-1.032608	-0.04209	-0.009881999	26.46	-17.78	21.56	0.4265	0.1809	-0.1564	
-0.999668	-0.0732	-0.010126	36.61	-19.88	24.57	0.4265	0.1794	-0.1491	
-0.99918	-0.04636	-0.003172	14.35	-23.24	28.63	0.4132	0.1748	-0.1623	
-1.014796	-0.084058	-0.00976	12.74	-27.16	32.06	0.4282	0.1651	-0.1667	
-1.057374	-0.06832	-0.022692	14.35	-32.41	29.12	0.4253	0.1558	-0.1654	
-1.05042	-0.048922	-0.011712	45.01	-35.35	25.2	0.4225	0.1399	-0.1888	
-1.066036	-0.054656	-0.025986	58.17	-38.57	20.37	0.4238	0.1541	-0.18	
-1.07543	-0.05246	-0.026108	42.35	-38.08	19.04	0.4254	0.1398	-0.1947	
-1.07787	0.01891	-0.022326	31.99	-46.27	13.93	0.4121	0.1337	-0.2035	
-1.076284	0.06222	-0.019886	14.63	-44.87	10.85	0.4181	0.1319	-0.2093	
-1.02785	0.113094	-0.018178	26.46	-39.48	11.41	0.4152	0.1241	-0.2138	
-1.018578	0.088694	0.001708	21.84	-42	-1.05	0.4151	0.1286	-0.2283	
-1.00223	0.04941	0.01952	25.2	-36.82	-11.48	0.4105	0.1365	-0.234	
-0.977586	0.087596	0.061732	24.64	-32.97	-20.23	0.4106	0.1255	-0.2341	
-0.94794	0.142862	0.073444	34.51	-28.07	-25.55	0.4062	0.124	-0.2385	
-0.94001	0.222894	0.130784	37.17	-30.03	-25.55	0.3971	0.1318	-0.2428	
-1.002474	0.173362	0.150792	51.03	-19.11	-20.44	0.3853	0.1257	-0.2487	
-0.951356	0.111142	0.230336	44.1	-24.71	-26.81	0.3912	0.1319	-0.2472	
-0.98271	0.143594	0.19093	38.36	-30.59	-30.73	0.3898	0.1224	-0.2589	
-0.961726	0.132004	0.202642	63.49	-16.24	-22.54	0.3881	0.1349	-0.2603	
-0.986248	0.145546	0.226432	54.53	-7.07	-21.84	0.3868	0.1222	-0.2779	
-0.966972	0.147498	0.218624	64.19	-27.09	-27.58	0.3852	0.1333	-0.269	
-0.945134	0.153842	0.201788	43.96	-30.52	-21.77	0.3778	0.1255	-0.2735	
-0.972096	0.127002	0.184464	29.96	-23.66	-14.49	0.3793	0.1239	-0.272	
-0.968436	0.104798	0.210938	31.92	-22.33	-6.86	0.3749	0.1176	-0.2838	
-0.984418	0.032208	0.224114	85.33	-21.35	-3.78	0.3747	0.13	-0.2967	
-1.02175	0.016226	0.25132	92.05	-5.53	0.49	0.3647	0.09739999	-0.2884	
-0.995764	0.084058	0.228628	94.36	-4.76	1.12	0.3736	0.1003	-0.2985	
-0.983808	0.180804	0.182024	84.14	-13.86	6.72	0.3707	0.0925	-0.2957	
-1.01443	0.175192	0.17141	70.28	-18.13	8.61	0.3605	0.0801	-0.3031	
-1.00711	0.160308	0.191662	64.68	-22.12	10.08	0.365	0.0721	-0.3134	
-0.980392	0.147254	0.193248	66.85	-21.28	15.54	0.3637	0.0612	-0.312	
-0.957334	0.157258	0.197396	82.74	-17.78	16.38	0.3578	0.0533	-0.3267	
-0.983686	0.198738	0.233874	92.4	-7.98	20.58	0.3653	0.0486	-0.318	
-0.96441	0.158356	0.314028	142.45	-1.96	23.24	0.3581	0.0315	-0.3196	
-0.96746	0.185562	0.271816	141.4	3.29	18.76	0.3613	0.0126	-0.3198	
-0.955748	0.224602	0.253394	124.39	6.16	17.92	0.3674	-0.0014	-0.3185	
-0.96258	0.262544	0.218502	109.27	2.66	13.93	0.3646	-0.0107	-0.3201	
-0.937204	0.264252	0.206668	102.13	0.77	11.83	0.3558	-0.0247	-0.3217	
-0.949526	0.283162	0.206302	99.05	3.29	10.15	0.365	-0.0419	-0.3088	
-0.949282	0.278282	0.21411	97.58	6.37	9.66	0.3577	-0.0559	-0.3162	
-0.946476	0.285602	0.19459	82.67	5.04	8.68	0.3638	-0.067	-0.3163	
-0.950136	0.28426	0.19886	78.4	2.24	6.86	0.3579	-0.0731	-0.3106	
-0.951966	0.295484	0.182146	78.05	-0.77	6.23	0.3625	-0.0794	-0.3092	
-0.964044	0.294996	0.17324	76.3	0.35	7.28	0.3566	-0.0824	-0.3092	
-0.963434	0.301096	0.170922	82.6	0.98	7.63	0.3701	-0.0904	-0.3107	
-0.955016	0.314882	0.13542	77.42	-2.03	8.75	0.3644	-0.1106	-0.3008	
-0.967704	0.302682	0.159454	77.56	1.47	6.23	0.357	-0.112	-0.2979	
-0.961116	0.30195	0.139934	63.77	-0.28	6.65	0.3646	-0.1198	-0.2892	
-0.968924	0.30134	0.125538	57.82	0.35	6.02	0.3677	-0.1323	-0.285	
-0.955626	0.317688	0.134688	58.66	-1.47	5.32	0.3634	-0.1432	-0.2837	
-0.94794	0.314028	0.11407	51.45	-1.26	5.04	0.3694	-0.1512	-0.2939	
-0.95038	0.3111	0.104432	46.34	0.14	3.22	0.3636	-0.1557	-0.2823	
-0.962702	0.319274	0.096868	42.91	0.7	1.89	0.3592	-0.1587	-0.2751	
-0.962702	0.30744	0.097112	45.29	-0.91	1.82	0.3606	-0.154	-0.2765	
-0.977708	0.2989	0.11285	42.28	-0.91	3.43	0.3711	-0.1634	-0.2693	
-0.965874	0.330376	0.105042	43.82	-2.73	4.34	0.3697	-0.1697	-0.2752	
-0.955504	0.34221	0.099552	38.36	-1.96	5.6	0.3623	-0.1696	-0.2738	
-0.961116	0.338428	0.09638	34.58	-1.75	4.97	0.3682	-0.1696	-0.2694	
-0.967582	0.320128	0.092842	31.15	-1.75	3.29	0.3682	-0.1681	-0.2694	
-0.95831	0.334524	0.080398	25.41	-2.45	1.89	0.3669	-0.1837	-0.2681	
-0.956236	0.335378	0.088572	25.83	-3.5	0.91	0.3624	-0.1806	-0.2739	
-0.945256	0.333548	0.081008	19.39	-2.87	0.84	0.3624	-0.1773	-0.2579	
-0.95526	0.337696	0.100894	22.68	-1.89	1.89	0.3669	-0.182	-0.2593	
-0.949892	0.343918	0.101626	21.28	-1.47	1.26	0.3596	-0.1898	-0.2653	
-0.93086	0.346846	0.0976	15.96	-0.63	0.7	0.3685	-0.1883	-0.2609	
-0.943426	0.34099	0.097356	13.58	-1.12	1.19	0.3611	-0.1897	-0.2536	
-0.936594	0.357338	0.08662	9.38	-0.91	1.82	0.3716	-0.1961	-0.258	
-0.965386	0.314394	0.094184	5.74	-0.98	2.1	0.3715	-0.193	-0.2565	
-0.955626	0.335012	0.092354	4.41	-1.4	1.61	0.37	-0.1899	-0.258	
-0.94977	0.34038	0.093208	2.59	-2.38	1.75	0.3656	-0.1898	-0.2536	
-0.950136	0.330986	0.09333	1.68	-1.75	1.26	0.358	-0.1819	-0.2594	
-0.950502	0.334158	0.099064	-0.98	-1.4	0.77	0.3611	-0.1898	-0.2653	
-0.95587	0.325984	0.109312	-0.91	-1.05	0.56	0.3612	-0.1991	-0.2566	
-0.947818	0.33062	0.090158	-3.08	-0.91	-0.28	0.3581	-0.1897	-0.2609	
-0.94855	0.337818	0.086498	-8.54	0.07	-0.42	0.3581	-0.1882	-0.2638	
-0.959652	0.313296	0.089304	-9.52	0.7	-0.14	0.3595	-0.185	-0.2565	
-0.956846	0.335256	0.093086	-8.4	0.77	-0.49	0.3611	-0.1882	-0.2623	
-0.951966	0.33245	0.102846	-12.67	2.17	-1.26	0.3611	-0.1944	-0.2595	
-0.950746	0.334158	0.099186	-18.27	3.43	-2.1	0.3656	-0.1945	-0.2624	
-0.938668	0.339282	0.117364	-18.2	3.78	-2.45	0.3627	-0.1976	-0.2595	
-0.932324	0.341112	0.118706	-25.83	4.9	-4.06	0.3549	-0.1773	-0.2724	
-0.929396	0.339892	0.113216	-31.78	6.23	-5.46	0.3655	-0.1851	-0.2608	
-0.936472	0.343552	0.108702	-42.56	7.21	-7.42	0.3713	-0.1758	-0.2578	
-0.940742	0.349408	0.116266	-54.18	8.54	-9.59	0.3667	-0.168	-0.2636	
-0.943426	0.340502	0.123586	-65.03	9.87	-11.48	0.3638	-0.1728	-0.2782	
-0.931714	0.344284	0.13115	-73.78	10.22	-13.37	0.3622	-0.1602	-0.2679	
-0.896212	0.356728	0.135786	-78.75	9.66	-17.78	0.3621	-0.1555	-0.2736	
-0.903898	0.356972	0.151158	-89.39	11.48	-20.09	0.3678	-0.1417	-0.2822	
-0.941962	0.366244	0.14579	-95.76	12.04	-22.96	0.3664	-0.1416	-0.2764	
-0.950868	0.361852	0.156526	-119.56	12.88	-23.8	0.3736	-0.1261	-0.2791	
-0.966606	0.344772	0.159576	-151.97	11.13	-26.46	0.3777	-0.1028	-0.2934	
-0.96319	0.32757	0.168726	-171.92	10.5	-26.04	0.3805	-0.092	-0.2991	
-1.005768	0.253638	0.165188	-187.04	17.57	-28.28	0.3755	-0.0482	-0.3059	
-0.97966	0.274866	0.16775	-185.64	21.42	-31.78	0.3783	-0.0342	-0.3014	
-1.00955	0.266448	0.17812	-166.6	19.88	-36.54	0.384	-0.017	-0.2968	
-0.98881	0.267668	0.142252	-143.92	23.8	-38.92	0.3807	0.0143	-0.2907	
-0.966118	0.188124	0.172386	-147.49	19.11	-35.21	0.3925	0.0203	-0.2978	
-0.996984	0.1281	0.13908	-136.85	19.6	-27.93	0.3923	0.0297	-0.2963	
-1.006988	0.119682	0.117242	-131.95	25.2	-26.74	0.398	0.0517	-0.2829	
-1.001254	0.139934	0.124196	-114.24	29.33	-30.8	0.3859	0.0674	-0.2857	
-1.009794	0.120292	0.136884	-93.45	29.4	-33.81	0.3901	0.0893	-0.2782	
-1.007842	0.138714	0.148474	-68.6	24.71	-31.29	0.399	0.0971	-0.2708	
-1.002108	0.107116	0.162748	-77.49	17.57	-24.85	0.396	0.1004	-0.2621	
-0.99857	0.048556	0.131882	-66.36	9.8	-18.62	0.3898	0.1192	-0.2662	
-0.972706	0.024766	0.144204	-63.77	9.87	-15.89	0.3972	0.1239	-0.2545	
-0.97295	0.012322	0.09028	-34.09	15.19	-9.8	0.3942	0.1271	-0.2516	
-0.997838	0.0305	0.100162	-19.88	19.11	-5.25	0.3881	0.1349	-0.2588	
-1.00528	0.060512	0.084668	-14.77	12.95	-0.14	0.406	0.1316	-0.2573	
-1.011502	0.098454	0.06039	-2.66	7.35	11.06	0.3985	0.1411	-0.25	
-0.998326	0.137128	0.045384	-9.87	9.87	18.97	0.4089	0.1379	-0.2485	
-1.027362	0.160674	0.038674	-52.22	13.3	21.56	0.4091	0.1254	-0.2414	
-1.028582	0.127612	-0.021594	-73.57	16.17	24.08	0.4031	0.1287	-0.2356	
-0.996008	0.09699	-0.039162	-74.55	16.31	24.99	0.4061	0.1303	-0.2312	
-1.042734	0.058072	-0.036722	-99.68	15.61	22.68	0.4077	0.1272	-0.2239	
-1.008574	-0.087474	0.027694	-120.96	14.63	11.69	0.4195	0.1365	-0.2165	
-1.01443	-0.029524	0.070272	-45.78	6.37	-3.08	0.4089	0.1477	-0.2135	
-0.99491	0.064904	-0.026352	-10.15	2.52	-3.92	0.4	0.1509	-0.2121	
-1.004182	0.139446	-0.074176	-30.87	7	1.33	0.4059	0.154	-0.212	
-1.000766	0.038918	-0.005978	-57.19	4.9	1.19	0.4104	0.1477	-0.2106	
-1.009916	-0.03294	-0.014274	-0.91	1.54	-0.7	0.4058	0.1571	-0.2076	
-1.003572	0.07747	-0.002318	3.85	3.5	-1.12	0.4148	0.1571	-0.2032	
-1.002352	-0.016226	-0.044896	9.24	11.76	4.69	0.4163	0.1555	-0.1989	
-1.03883	-0.061976	0.00061	11.76	33.67	4.41	0.4163	0.1587	-0.1945	
-1.045662	-0.049044	0.01464	14.63	20.58	-4.69	0.4163	0.1587	-0.1974	
-1.06689	-0.061488	0.051362	-29.61	15.26	-8.12	0.4252	0.1538	-0.2018	
-1.055788	0.001342	0.005978	-41.3	25.27	-9.03	0.4209	0.1445	-0.2048	
-1.034926	0.019642	-0.004392	-62.37	26.18	-11.62	0.4192	0.165	-0.1871	
-1.036512	-0.034404	-0.045018	-44.17	19.88	-12.04	0.4297	0.1586	-0.1901	
-1.020286	-0.050264	-0.044164	-25.2	7.7	-14.07	0.4192	0.1682	-0.1813	
-1.017602	-0.03538	-0.005856	-24.43	4.55	-12.95	0.4177	0.1668	-0.1682	
-1.018578	-0.044652	0.006222	-33.11	4.27	-12.25	0.4131	0.1794	-0.1681	
-1.00955	-0.037088	0.011102	-32.62	8.4	-9.8	0.425	0.1761	-0.1695	
-1.011136	-0.042334	-0.010858	-33.46	7.98	-7.77	0.4205	0.184	-0.1636	
-1.020408	-0.055144	-0.009272	-18.2	5.81	-5.25	0.4175	0.1856	-0.1666	
-1.008696	-0.055266	0.007198	-16.38	1.68	-5.74	0.4117	0.178	-0.1579	
-1.017846	-0.055876	-0.001342	-19.81	4.2	-6.44	0.4219	0.1918	-0.1636	
-1.007476	-0.0366	-0.014152	-29.75	7.56	-5.11	0.4234	0.1871	-0.1636	
-1.007232	-0.012566	-0.018788	-24.57	6.58	-2.03	0.4219	0.195	-0.1577	
-1.0065	-0.001098	-0.009881999	-20.02	4.97	-0.14	0.4115	0.1889	-0.1593	
-1.00955	-0.011346	-0.021838	-24.01	7.07	1.47	0.4176	0.181	-0.155	
-1.011624	-0.00366	-0.019764	-24.78	8.33	1.82	0.425	0.1826	-0.1491	
-1.020896	-0.00976	-0.01525	-28.7	9.38	1.68	0.4219	0.1935	-0.1505	
-1.028948	-0.009393999	-0.00732	-27.09	10.64	0.28	0.4205	0.1905	-0.1461	
-1.029192	-0.014762	-0.006344	-26.39	10.64	0.28	0.4278	0.1967	-0.1388	
-1.02053	-0.039894	0.011834	-20.93	9.45	0.14	0.4146	0.1875	-0.136	
-0.998082	-0.06161	0.030012	-15.61	8.75	0.7	0.4203	0.2063	-0.1285	
-1.000766	-0.076982	0.015006	-18.41	7.7	2.24	0.4233	0.2047	-0.13	
-1.004182	-0.075884	0.026474	-9.73	7.21	1.19	0.4234	0.1937	-0.133	
-1.010038	-0.07625	0.008052	-8.4	6.86	1.33	0.4204	0.1937	-0.1359	
-1.022848	-0.049898	0.016836	-2.1	6.44	1.33	0.4249	0.1984	-0.1315	
-1.021506	-0.04941	0.00671	-1.89	4.97	3.15	0.4263	0.2047	-0.1256	
-1.011258	-0.044652	0.008174	1.05	3.36	3.08	0.4219	0.1953	-0.1301	
-1.018456	-0.047824	-0.026352	2.17	2.66	1.89	0.4294	0.1905	-0.1316	
-1.016748	-0.025376	-0.02928	7.7	1.54	2.1	0.4251	0.1844	-0.1287	
-1.019066	-0.010248	-0.004026	9.8	0.42	2.87	0.419	0.1923	-0.1272	
-1.016138	-0.003538	-0.028792	8.89	-0.14	3.01	0.4264	0.1937	-0.1286	
-1.020408	-0.025132	-0.039894	7.84	1.12	2.45	0.4339	0.1937	-0.1199	
-1.023458	-0.02806	-0.041358	8.89	0.42	2.8	0.4279	0.192	-0.1388	
-1.009184	-0.041236	-0.036478	13.93	0.21	3.57	0.4249	0.1921	-0.1345	
-1.00589	-0.03477	-0.025742	17.01	-0.84	3.78	0.4294	0.1921	-0.133	
-1.006866	-0.034892	-0.024522	15.75	-0.21	3.57	0.422	0.1858	-0.1389	
-1.006988	-0.026108	-0.013542	21.21	-2.45	3.99	0.428	0.1859	-0.1302	
-1.003572	-0.016226	-0.006222	22.26	-2.73	5.53	0.4339	0.1905	-0.1301	
-1.00406	-0.026596	0.010248	28.56	-7.14	8.05	0.4294	0.1905	-0.1374	
-1.023702	-0.027572	-0.037454	24.01	-14.28	14.14	0.4265	0.1841	-0.1535	
-1.050054	-0.03538	-0.045506	27.16	-16.94	21.49	0.425	0.1826	-0.1447	
-1.035536	-0.00183	-0.05185	40.67	-18.9	22.68	0.4267	0.1654	-0.1478	
-1.042124	-0.016836	-0.005734	50.68	-22.33	27.44	0.4297	0.1684	-0.1478	
-1.014674	-0.007564	-0.036234	52.5	-30.52	29.89	0.4298	0.1542	-0.1668	
-1.019676	-0.031964	-0.03477	64.68	-32.06	35.42	0.4164	0.1526	-0.1844	
-1.022238	-0.047458	-0.047824	60.55	-29.68	32.34	0.4314	0.1432	-0.167	
-1.0187	-0.0732	-0.044652	60.48	-34.16	33.25	0.424	0.1353	-0.1816	
-1.077748	-0.109068	-0.03416	60.13	-28.63	32.48	0.4256	0.1289	-0.1904	
-1.07116	-0.09516	-0.007076	28.42	-26.11	30.8	0.4301	0.1241	-0.1934	
-1.083848	-0.041724	-0.043432	-3.15	-37.45	23.1	0.4271	0.1242	-0.189	
-1.076406	0.05673	-0.06893	-15.82	-38.01	14.98	0.4168	0.1181	-0.1905	
-1.038464	0.08784	-0.101016	-17.57	-45.99	7.63	0.4243	0.11	-0.2081	
-1.044686	0.093086	-0.0183	-17.36	-44.31	-2.03	0.4242	0.1147	-0.208	
-1.011746	0.09455	0.011468	-10.22	-48.86	-10.57	0.4168	0.1147	-0.2182	
-1.005768	0.131516	0.019154	11.97	-40.88	-13.37	0.4137	0.1209	-0.2269	
-0.96563	0.104066	0.012322	4.9	-43.82	-19.67	0.4195	0.127	-0.2312	
-0.958188	0.114924	0.028426	31.36	-41.09	-22.54	0.4091	0.1255	-0.2356	
-0.9821	0.058926	0.110654	69.16	-52.92	-22.47	0.4032	0.1176	-0.2517	
-0.984662	0.098942	0.033794	74.41	-36.19	-30.94	0.3972	0.119	-0.272	
-0.963068	0.154208	0.11529	69.44	-25.69	-22.33	0.3913	0.1191	-0.2692	
-0.940132	0.18117	0.130906	82.81	-17.08	-24.29	0.3838	0.1255	-0.2633	
-0.99186	0.209474	0.142862	105.42	-13.86	-22.19	0.3839	0.1144	-0.2779	
-0.975756	0.30927	0.169336	114.73	-26.88	-30.73	0.3869	0.1081	-0.2766	
-0.970632	0.32025	0.17507	171.64	-33.18	-20.23	0.3767	0.0941	-0.2898	
-1.015894	0.287798	0.230092	160.58	-48.16	-16.94	0.3812	0.086	-0.3059	
-0.914146	0.194346	0.308294	116.13	-62.65	-11.06	0.3738	0.0782	-0.3104	
-0.965752	0.170922	0.322202	135.1	-13.09	13.23	0.3651	0.0626	-0.3178	
-0.981124	0.13603	0.217892	115.08	-4.69	20.65	0.3727	0.0485	-0.3136	
-0.956968	0.23546	0.147254	106.82	-13.72	19.32	0.3654	0.0392	-0.3195	
-0.934154	0.257908	0.147864	86.94	-20.3	18.69	0.3627	0.0174	-0.3169	
-0.950014	0.245586	0.199226	96.88	-5.53	19.88	0.3703	0.0016	-0.3199	
-0.95221	0.265594	0.210084	143.64	19.04	19.88	0.363	-0.0029	-0.32	
-0.98088	0.299266	0.250344	129.43	17.99	17.78	0.3707	-0.0201	-0.3085	
-0.980514	0.293532	0.221064	120.4	4.27	18.13	0.3679	-0.0373	-0.316	
-0.978928	0.268156	0.18544	97.02	-0.28	19.11	0.3696	-0.0545	-0.3118	
-0.965142	0.300852	0.186294	108.64	-8.33	18.34	0.3785	-0.0531	-0.3161	
-0.955138	0.308538	0.157868	97.65	-11.69	17.5	0.3742	-0.0687	-0.3148	
-0.937448	0.314272	0.138226	95.9	-8.19	14.91	0.3671	-0.0904	-0.3078	
-0.943792	0.315004	0.143228	104.51	-1.96	14.49	0.3673	-0.1012	-0.2963	
-0.948794	0.32513	0.140056	101.92	-0.63	13.37	0.366	-0.12	-0.3023	
-0.947818	0.334158	0.136884	91.28	-0.7	13.16	0.3645	-0.1151	-0.2863	
-0.965874	0.35014	0.109556	86.87	-4.34	12.25	0.3677	-0.1324	-0.2894	
-0.937326	0.344162	0.113582	81.97	-0.98	12.46	0.3663	-0.1401	-0.2851	
-0.95404	0.363926	0.113704	75.67	-5.25	8.75	0.368	-0.1541	-0.2794	
-0.93025	0.358192	0.09857599	63.98	-5.39	5.88	0.3621	-0.1556	-0.2765	
-0.95038	0.371246	0.116388	63.14	-7.91	4.34	0.3667	-0.1664	-0.2635	
-0.938424	0.344284	0.097966	48.37	-7.28	4.48	0.3668	-0.1744	-0.2738	
-0.93879	0.357094	0.089914	51.1	-4.34	4.06	0.3535	-0.1819	-0.2652	
-0.942084	0.350018	0.107238	50.61	-3.36	4.76	0.3626	-0.1914	-0.2638	
-0.95343	0.349408	0.092598	41.37	-2.03	4.83	0.3682	-0.1696	-0.2665	
-0.95221	0.354166	0.08601	40.25	-1.96	5.88	0.3551	-0.1881	-0.2624	
-0.950624	0.34892	0.085156	33.25	-1.61	4.55	0.3596	-0.185	-0.2536	
-0.942938	0.36539	0.091134	32.69	-2.03	3.57	0.3612	-0.1961	-0.2639	
-0.941108	0.363804	0.088084	25.97	-1.05	3.08	0.3613	-0.2021	-0.2465	
-0.938058	0.374784	0.089426	21.56	-0.56	3.71	0.3569	-0.21	-0.2553	
-0.94001	0.362218	0.092232	18.48	-0.7	3.92	0.3598	-0.2037	-0.2538	
-0.951844	0.369172	0.08662	17.99	-1.26	4.27	0.3659	-0.2132	-0.2539	
-0.954528	0.36112	0.094306	16.66	-1.4	4.06	0.3568	-0.1989	-0.2479	
-0.94733	0.363316	0.098088	15.05	-1.61	3.92	0.3523	-0.2021	-0.2596	
-0.931836	0.370148	0.091378	12.95	-2.66	4.27	0.354	-0.2114	-0.2452	
-0.934154	0.381616	0.093452	11.69	-3.01	5.11	0.3628	-0.2005	-0.2421	
-0.934154	0.387472	0.096502	8.47	-2.52	5.04	0.3511	-0.2176	-0.2496	
-0.932568	0.388448	0.094306	4.76	-1.82	3.99	0.3526	-0.2176	-0.2438	
-0.939888	0.380396	0.08052	-1.68	-0.98	2.45	0.36	-0.2146	-0.2423	
-0.948306	0.36905	0.071614	-5.46	0	1.4	0.3569	-0.2098	-0.2437	
-0.94306	0.36539	0.055998	-6.93	-0.49	1.61	0.3585	-0.2192	-0.2438	
-0.943182	0.359168	0.056486	-7.84	0.63	1.89	0.3599	-0.2115	-0.248	
-0.93391	0.387228	0.069296	-4.83	0.63	1.89	0.3481	-0.2176	-0.2496	
-0.938668	0.360998	0.072956	-13.3	1.47	0.21	0.3451	-0.2191	-0.2467	
-0.939644	0.367708	0.069296	-17.15	2.03	-0.42	0.354	-0.2161	-0.251	
-0.939644	0.379298	0.086986	-21.07	2.73	-1.12	0.3509	-0.2051	-0.248	
-0.9272	0.380518	0.09942999	-26.11	3.71	-3.22	0.3539	-0.2069	-0.2611	
-0.93086	0.386984	0.105042	-32.97	5.46	-4.9	0.3613	-0.2038	-0.2567	
-0.91744	0.390644	0.11895	-38.57	5.74	-6.09	0.3509	-0.2068	-0.2538	
-0.908778	0.383568	0.12566	-51.24	7.56	-8.89	0.3494	-0.2021	-0.2596	
-0.906704	0.38918	0.121146	-62.93	8.4	-11.06	0.3551	-0.1818	-0.255	
-0.890112	0.383934	0.13603	-80.78	9.52	-13.44	0.355	-0.1787	-0.2535	
-0.931592	0.409676	0.13603	-81.83	7.63	-19.18	0.349	-0.1772	-0.2681	
-0.93147	0.425658	0.127734	-86.87	7	-20.93	0.3668	-0.1759	-0.2695	
-0.930982	0.402966	0.140788	-101.78	8.68	-21	0.3561	-0.1555	-0.278	
-0.945866	0.382104	0.124318	-116.76	10.71	-26.25	0.3724	-0.1527	-0.2867	
