Sensor string: E
Serial number: 1970-01-10160974
Firmware version: 8,312615E-40
Hardware version: 4,489434E-39
Calibration quality: 204
ax	ay	az	gx	gy	gz	mx	my	mz

-0.91561	-0.002074	0.416752	3.29	-0.28	-1.26	0.2921	0.0211	-0.418	Reference
-0.91744	0.002318	0.414922	1.61	0.77	-1.19	0.2877	0.0214	-0.4133	
-0.92232	0.004636	0.415532	1.05	1.54	-0.63	0.2951	0.018	-0.4181	
-0.920612	0.00305	0.414312	1.05	1.26	0	0.2949	0.024	-0.4195	
-0.915122	0.002074	0.41419	1.05	0.77	0.21	0.2924	0.0136	-0.4166	
-0.909754	0.000976	0.41663	0.7	0.28	0.07	0.2918	0.0273	-0.4101	
-0.909754	0.002318	0.418948	0.7	0.14	-0.14	0.3012	0.0088	-0.4121	
-0.915488	0.005368	0.418216	0.56	0.42	-0.07	0.2962	0.0273	-0.4024	
-0.915488	0.006588	0.418826	-0.91	0.84	0.21	0.3036	0.0223	-0.4103	
-0.913048	0.002928	0.42029	-2.45	0.77	0.49	0.2922	0.0168	-0.4088	
-0.915	0.000854	0.419558	-3.15	1.4	0.56	0.2934	0.0242	-0.4133	
-0.922076	0.000732	0.412482	-2.52	1.89	0.7	0.2921	0.0225	-0.4226	
-0.923418	-0.003538	0.411506	-3.99	1.68	0.98	0.3026	0.0104	-0.4059	
-0.918416	-0.006588	0.410286	-3.64	1.4	1.33	0.2924	0.0122	-0.412	
-0.92049	-0.007929999	0.405406	-3.5	1.33	1.26	0.302	0.0254	-0.4117	
-0.921954	-0.00854	0.408456	-3.99	1.12	1.12	0.3094	0.0234	-0.4211	
-0.919636	-0.010248	0.410652	-3.57	0.77	0.98	0.2979	0.021	-0.4103	
-0.919148	-0.011468	0.409554	-2.8	0.56	0.84	0.3049	0.0269	-0.4071	
-0.919148	-0.01281	0.4087	-1.96	0.77	0.7	0.2904	0.0274	-0.4101	
-0.920002	-0.012444	0.408212	-1.4	0.77	0.56	0.2993	0.0224	-0.4164	
-0.925126	-0.0122	0.40443	0.14	0.91	0.35	0.2976	0.0286	-0.4086	
-0.926712	-0.009028	0.402478	-0.42	1.19	0.14	0.2975	0.0314	-0.4224	
-0.922442	-0.012932	0.406504	-0.42	0.84	-0.07	0.3007	0.0239	-0.4149	
-0.91988	-0.012322	0.40565	1.19	0.42	-0.21	0.3018	0.0313	-0.4178	
-0.917196	-0.008417999	0.407724	2.1	0.35	-0.42	0.3011	0.0131	-0.4213	
-0.919148	-0.00488	0.404064	3.15	0.84	-0.49	0.3052	0.0193	-0.4103	
-0.921344	-0.000488	0.403454	3.22	1.26	-0.49	0.3022	0.0209	-0.4103	
-0.925004	0.001098	0.40016	3.29	1.54	-0.35	0.2978	0.0227	-0.4025	
-0.926956	0.002562	0.3965	2.94	1.61	-0.35	0.3096	0.0162	-0.4042	
-0.928542	0.003538	0.395036	2.31	1.61	-0.35	0.298	0.0165	-0.4088	
-0.930738	0.00305	0.394182	1.89	1.19	-0.35	0.3045	0.036	-0.4053	
-0.92842	0.002562	0.397476	1.54	0.77	-0.35	0.2951	0.0167	-0.4073	
-0.92842	0.00427	0.394304	2.38	-0.07	-0.21	0.2935	0.0213	-0.4056	
-0.927078	0.005002	0.392352	1.82	-0.42	-0.07	0.3007	0.021	-0.4087	
-0.930128	0.005124	0.387106	1.68	-0.7	0.07	0.3036	0.0238	-0.4133	
-0.934886	0.00427	0.383568	1.26	-0.49	0.14	0.2922	0.0169	-0.4041	
-0.939278	0.000488	0.38003	0.21	-0.91	0.35	0.2965	0.0181	-0.4103	
-0.944036	0.000244	0.369904	1.19	-1.54	0.56	0.3008	0.0181	-0.4042	
-0.953918	-0.001098	0.36173	-0.14	-2.94	0.56	0.2918	0.0274	-0.407	
-0.954772	0.005124	0.353678	1.12	-6.3	1.05	0.292	0.0214	-0.4056	
-0.957334	0.012444	0.331474	2.38	-10.01	1.54	0.2892	0.0211	-0.4226	
-0.955382	0.005734	0.34038	-2.8	-13.16	2.03	0.2891	0.0231	-0.4009	
-0.95465	-0.00671	0.368684	-6.72	-14.49	1.96	0.2875	0.0288	-0.4194	
-0.948428	-0.008417999	0.374052	-2.17	-15.26	1.82	0.2904	0.0288	-0.4132	
-0.93513	-0.003294	0.375516	0.28	-17.01	1.75	0.2881	0.0135	-0.4259	
-0.942694	-0.00366	0.376736	1.47	-17.92	1.47	0.2833	0.0257	-0.4287	
-0.941352	0.001342	0.372344	5.46	-19.53	1.68	0.272	0.0187	-0.4257	
-0.943182	0.009638	0.375638	7	-22.4	1.68	0.2731	0.0277	-0.424	
-0.927322	0.008905999	0.371124	4.83	-25.41	1.61	0.2851	0.0154	-0.415	
-0.921222	0.008662	0.36539	3.99	-28.49	1.89	0.2751	0.0139	-0.4336	
-0.937326	0.00488	0.368806	0.56	-30.52	2.24	0.2694	0.0111	-0.4321	
-0.931226	-0.001464	0.3782	1.05	-33.53	2.87	0.2706	0.0169	-0.4397	
-0.911218	0.006222	0.40565	2.03	-39.76	3.01	0.2548	0.016	-0.4412	
-0.901214	0.007198	0.409554	1.26	-44.38	2.87	0.2594	0.0083	-0.4383	
-0.884866	0.0122	0.440054	-1.75	-47.32	3.08	0.2534	0.0143	-0.449	
-0.88084	0.006344	0.44774	-2.03	-49.7	3.36	0.2347	0.0119	-0.4536	
-0.859124	0.004392	0.45628	-0.7	-53.2	3.64	0.2288	0.0152	-0.4535	
-0.855586	0.012322	0.456402	3.22	-53.27	4.97	0.2305	0.0104	-0.4645	
-0.850218	0.017934	0.477752	-1.89	-60.41	4.76	0.2219	0.0062	-0.463	
-0.841922	0.032452	0.493612	-3.43	-61.39	4.83	0.1986	0.0131	-0.4628	
-0.82228	0.015006	0.541802	-12.11	-67.2	5.11	0.1967	0.0239	-0.4579	
-0.802882	0.017202	0.531432	3.92	-65.38	5.39	0.1826	0.0151	-0.4689	
-0.785436	0.01891	0.543876	-5.04	-62.72	4.13	0.1827	0.0119	-0.4767	
-0.763354	0.00427	0.58133	-9.17	-64.26	3.22	0.171	0.0167	-0.4843	
-0.747982	0.022448	0.58438	-3.64	-68.88	2.94	0.1592	0.0232	-0.4857	
-0.728828	0.035014	0.612318	-7.21	-70.14	2.1	0.1597	0.0109	-0.4952	
-0.724436	0.015616	0.636474	-11.13	-67.41	1.12	0.1363	0.0192	-0.4996	
-0.70272	0.010492	0.6527	-7.77	-67.69	0.77	0.1334	0.0182	-0.4841	
-0.670024	0.005124	0.663192	-6.86	-72.03	0.91	0.1218	0.0197	-0.5027	
-0.646478	-0.0061	0.674782	-6.44	-73.64	0.63	0.1018	0.0158	-0.5089	
-0.626226	0.001708	0.697962	-4.41	-75.04	0.14	0.0957	0.0236	-0.5087	
-0.593408	-0.000854	0.712724	-4.69	-75.39	-0.07	0.0813	0.0199	-0.4963	
-0.55754	-0.01647	0.736514	-4.27	-74.76	-0.21	0.0716	0.0108	-0.5135	
-0.54229	-0.015616	0.7503	1.19	-75.11	-0.14	0.0568	0.0192	-0.5024	
-0.513986	-0.007442	0.76799	1.89	-74.97	0.21	0.0381	0.0167	-0.5086	
-0.491782	-0.014396	0.789218	4.69	-74.97	0.21	0.0436	0.0255	-0.5115	
-0.452132	0.004636	0.80215	6.37	-76.72	0.49	0.0193	0.0187	-0.5178	
-0.425292	0.01159	0.825208	7.28	-77.84	1.26	0.0148	0.0219	-0.5193	
-0.387838	0.010736	0.838628	7.14	-78.68	1.89	-0.0009	0.0182	-0.51	
-0.36234	0.018056	0.852292	8.4	-79.24	1.26	-0.0185	0.0249	-0.5098	
-0.33306	0.011468	0.849608	6.58	-80.08	2.17	-0.0267	0.0132	-0.5069	
-0.285968	0.024156	0.873398	7.21	-79.24	2.94	-0.0339	0.0118	-0.5131	
-0.256566	0.031354	0.882548	8.26	-80.08	4.2	-0.0443	0.0185	-0.5036	
-0.234606	0.031354	0.886574	5.95	-80.64	4.48	-0.06879999	0.0176	-0.5144	
-0.198738	0.024644	0.896578	4.2	-81.13	4.76	-0.0918	0.014	-0.5144	
-0.167872	0.021472	0.907802	4.41	-80.08	4.62	-0.1036	0.0195	-0.4926	
-0.13908	0.027328	0.9272	5.39	-79.38	5.11	-0.1092	0.0134	-0.502	
-0.11163	0.030622	0.931104	6.51	-76.72	5.74	-0.1176	0.0049	-0.4944	
-0.084424	0.025132	0.940376	4.2	-76.86	6.79	-0.1247	0.0036	-0.4944	
-0.05673	0.025132	0.958676	10.71	-73.22	7.56	-0.1405	0	-0.482	
-0.021472	0.040382	0.956846	10.36	-72.38	7.63	-0.1495	0.0065	-0.4772	
-0.00061	0.033916	0.979172	9.66	-73.08	7.14	-0.1639	0.0053	-0.4849	
0.027328	0.041968	0.9821	11.55	-71.54	6.44	-0.1774	0.0196	-0.4753	
0.051362	0.044652	0.98942	8.75	-71.61	6.16	-0.1829	0.0095	-0.4662	
0.083204	0.044652	0.989298	10.29	-68.46	5.88	-0.1926	-0.0022	-0.4679	
0.106872	0.046482	0.995276	10.08	-66.64	5.53	-0.2115	0.0016	-0.4631	
0.125538	0.050508	1.002962	11.76	-63.49	5.04	-0.2176	0.0081	-0.4506	
0.138592	0.062708	1.011258	13.58	-60.9	4.69	-0.2199	-0.0054	-0.4586	
0.167872	0.060878	1.00833	13.44	-59.08	4.2	-0.2376	0.0017	-0.4352	
0.177998	0.080276	0.995764	11.97	-59.71	5.18	-0.2402	-0.0073	-0.4415	
0.196786	0.08418	1.0004	15.82	-54.18	4.48	-0.2547	-0.0053	-0.4446	
0.218136	0.078446	1.002108	8.61	-56.14	4.83	-0.2492	0.0022	-0.432	
0.233874	0.07381	0.989298	8.89	-52.57	4.83	-0.2605	-0.0062	-0.4244	
0.257908	0.092598	0.984418	6.44	-50.68	4.83	-0.2765	-0.0039	-0.4166	
0.273646	0.095404	0.97844	5.81	-49.28	4.62	-0.2821	-0.009699999	-0.4182	
0.283406	0.102724	0.9821	5.18	-46.83	4.2	-0.2892	-0.0164	-0.3889	
0.299998	0.099674	0.986614	4.48	-45.29	3.08	-0.2965	-0.0119	-0.4027	
0.321836	0.094794	0.988932	3.43	-43.26	2.03	-0.2968	-0.0056	-0.3948	
0.331108	0.101016	0.9821	3.08	-39.83	1.96	-0.2984	-0.0011	-0.3978	
0.357704	0.102724	0.980392	2.66	-37.8	2.1	-0.3083	-0.0068	-0.3995	
0.382348	0.100528	0.980392	0.56	-34.3	1.96	-0.3113	-0.0035	-0.3916	
0.391864	0.092476	0.98454	0.14	-31.43	1.54	-0.3201	-0.0014	-0.3807	
0.412848	0.091988	0.992226	-0.28	-29.89	1.47	-0.3188	0.003	-0.3775	
0.4148	0.079666	0.980636	0.63	-25.48	1.05	-0.3331	-0.0023	-0.3745	
0.429562	0.087962	0.987468	0.91	-23.31	0.77	-0.333	-0.0053	-0.373	
0.429074	0.086742	0.9821	0.91	-19.81	0.63	-0.3374	-0.0039	-0.3838	
0.442982	0.09638	0.986736	1.4	-17.71	0.84	-0.3374	-0.0021	-0.3745	
0.447862	0.09394	0.989298	1.68	-14.42	0.49	-0.3242	-0.0073	-0.3808	
0.446886	0.107482	0.994178	2.45	-11.9	0.35	-0.3345	-0.0038	-0.3776	
0.45567	0.110288	1.002962	2.38	-9.17	0.07	-0.3255	-0.0144	-0.3624	
0.460306	0.10431	1.004182	2.24	-7.14	-0.21	-0.3313	-0.0114	-0.3716	
0.479948	0.10004	1.003572	2.03	-4.13	-0.21	-0.3359	-0.0065	-0.3622	
0.478728	0.099796	1.001986	2.17	0.21	-0.91	-0.3327	-0.0156	-0.3624	
0.485072	0.099796	1.005768	2.24	3.78	-1.26	-0.3473	-0.0079	-0.3808	
0.482632	0.101138	0.997838	2.66	8.47	-1.75	-0.3444	-0.0107	-0.3653	
0.483364	0.102968	1.000278	2.52	12.46	-2.45	-0.3311	-0.0174	-0.3733	
0.47336	0.10431	0.996862	2.87	16.59	-2.87	-0.334	-0.0173	-0.3717	
0.469456	0.105164	1.001376	3.43	20.23	-2.52	-0.33	-0.0098	-0.3685	
0.464942	0.106384	1.006012	3.92	23.17	-2.45	-0.3296	-0.019	-0.3733	
0.455426	0.113704	1.009184	4.9	26.25	-2.8	-0.3286	-0.007	-0.3762	
0.446276	0.120048	1.00894	6.23	29.61	-2.87	-0.3193	-0.0241	-0.3812	
0.442738	0.129808	1.015894	6.93	32.41	-2.73	-0.3267	-0.0193	-0.3826	
0.433222	0.134078	1.013576	6.51	34.93	-2.59	-0.3165	-0.0197	-0.3842	
0.419924	0.138714	1.010038	7.21	38.22	-2.52	-0.305	-0.0186	-0.3811	
0.407846	0.146034	1.008574	8.96	42.84	-3.29	-0.3094	-0.0172	-0.3919	
0.394182	0.14945	1.01321	7.28	44.31	-3.85	-0.3021	-0.0161	-0.4012	
0.37637	0.151036	1.008696	6.79	49.63	-4.13	-0.2877	-0.0167	-0.4029	
0.359778	0.142374	1.00101	5.11	52.92	-4.41	-0.2816	-0.0245	-0.4015	
0.32208	0.140178	1.008208	3.57	55.3	-4.62	-0.2798	-0.0323	-0.411	
0.300852	0.133346	0.999058	3.08	59.64	-4.97	-0.2832	-0.0201	-0.4122	
0.268522	0.133956	0.998936	1.33	64.33	-5.74	-0.2646	-0.0135	-0.4215	
0.244	0.130662	0.988688	1.54	68.88	-6.3	-0.2628	-0.0213	-0.4294	
0.217648	0.12749	0.987102	0.28	71.75	-6.72	-0.2612	-0.0261	-0.4419	
0.182268	0.126392	0.982222	1.05	74.41	-7.28	-0.2425	-0.0237	-0.4357	
0.140544	0.132858	0.967826	0.21	78.33	-8.05	-0.2205	-0.0294	-0.4514	
0.105652	0.133346	0.962092	0	80.64	-8.4	-0.2233	-0.0322	-0.4484	
0.0793	0.12993	0.944402	-0.21	82.04	-8.96	-0.1988	-0.0289	-0.4608	
0.03294	0.142374	0.942694	-1.12	82.32	-9.38	-0.1991	-0.0214	-0.4606	
0.009393999	0.138104	0.931836	-1.89	86.24	-10.5	-0.1917	-0.0264	-0.47	
-0.024278	0.129442	0.916952	-4.69	88.83	-10.85	-0.1699	-0.0272	-0.4717	
-0.067954	0.121146	0.916952	-4.55	89.81	-11.13	-0.1467	-0.0297	-0.4765	
-0.100406	0.122	0.915732	-3.99	93.03	-12.18	-0.1449	-0.0378	-0.4953	
-0.132736	0.121146	0.905484	-4.34	95.48	-13.02	-0.1319	-0.0368	-0.4984	
-0.167018	0.111264	0.90524	-5.39	96.11	-13.51	-0.1105	-0.03	-0.4921	
-0.195688	0.108336	0.884256	-5.88	99.75	-14.14	-0.1045	-0.0351	-0.5093	
-0.224724	0.104798	0.872788	-6.23	99.68	-13.93	-0.0903	-0.0279	-0.503	
-0.259616	0.103212	0.848998	-9.1	101.92	-13.79	-0.0684	-0.0347	-0.497	
-0.30012	0.09162199	0.83631	-8.89	104.23	-13.3	-0.0567	-0.0354	-0.511	
-0.334524	0.091866	0.805932	-9.94	107.8	-12.81	-0.0356	-0.0196	-0.5092	
-0.364902	0.097234	0.790316	-11.55	108.78	-12.6	-0.0179	-0.0307	-0.5017	
-0.40626	0.091134	0.75945	-13.65	111.3	-12.18	0.0281	-0.0265	-0.508	
-0.45384	0.09821	0.732122	-13.02	112.07	-11.06	0.0352	-0.0222	-0.5064	
-0.48983	0.08357	0.69662	-15.47	114.03	-9.59	0.0496	-0.0212	-0.5033	
-0.55693	0.082472	0.6771	-17.5	115.01	-9.1	0.0774	-0.0298	-0.5036	
-0.584868	0.07686	0.652578	-17.15	112.98	-7.84	0.0768	-0.016	-0.4956	

-0.671976	0.070638	0.588406	-14.42	107.59	-5.67	0.1317	-0.0136	-0.4957	
-0.71736	0.05917	0.563152	-14.63	105.7	-7.14	0.1456	0.0008	-0.4954	
-0.70943	0.059292	0.52033	-14	101.57	-5.74	0.1677	-0.0117	-0.4849	
-0.761768	0.051728	0.503006	-13.23	100.17	-7	0.1645	-0.0011	-0.4893	
-0.80459	0.046848	0.481656	-12.53	95.76	-5.67	0.1874	0.0029	-0.4661	
-0.853878	0.023668	0.448472	-5.04	90.58	-4.76	0.2066	-0.0083	-0.4679	
-0.86315	0.019398	0.42151	-3.15	89.46	-4.9	0.2149	0.0004	-0.4631	
-0.883036	0.025498	0.423828	-4.69	84.63	-5.95	0.2367	-0.0032	-0.4555	
-0.861198	0.022814	0.408578	-3.36	81.13	-5.95	0.2425	-0.0033	-0.4525	
-0.882548	0.022692	0.393572	1.82	78.82	-6.79	0.2567	0.0038	-0.4415	
-0.89975	0.029402	0.362706	9.8	76.3	-6.37	0.2564	0.0103	-0.4228	
-0.928908	0.050386	0.34709	12.81	73.85	-6.72	0.2653	0.0023	-0.4276	
-0.92049	0.038186	0.320372	9.66	70.84	-6.86	0.2843	-0.004	-0.4123	
-0.950136	0.052826	0.312076	11.2	69.51	-6.65	0.296	-0.0062	-0.4217	
-0.930494	0.047824	0.291824	11.55	66.08	-3.78	0.3059	-0.0016	-0.4	
-0.95526	0.031598	0.262544	15.61	64.61	-5.39	0.316	-0.002	-0.4016	
-0.96624	0.052948	0.246318	18.69	61.04	-5.81	0.3131	-0.0032	-0.3923	
-0.986858	0.047336	0.223992	19.53	56.35	-5.39	0.322	-0.0081	-0.3955	
-0.99613	0.05002	0.210938	13.65	51.52	-4.62	0.3347	0.0007	-0.3814	
-0.994788	0.032574	0.209474	5.88	47.25	-4.2	0.3376	-0.0021	-0.3706	
-0.984418	0.022936	0.21228	-1.61	44.66	-4.34	0.3424	-0.0158	-0.3679	
-0.99674	0.027572	0.198372	5.67	42.14	-4.34	0.3507	-0.0042	-0.3723	
-1.008818	0.036234	0.179096	20.86	44.94	-5.39	0.3508	-0.0085	-0.3615	
-0.989176	0.041846	0.166164	12.18	43.47	-4.97	0.3724	-0.0075	-0.3507	
-1.010648	0.006954	0.15128	-0.42	37.59	-4.48	0.3597	-0.0146	-0.3524	
-1.01931	0.018788	0.147254	11.48	34.65	-5.81	0.3696	-0.0075	-0.3523	
-1.004792	0.021594	0.139568	12.39	35.49	-5.67	0.3695	-0.0074	-0.3492	
-1.008818	0.000244	0.130784	0.42	31.92	-5.46	0.3767	-0.0074	-0.3384	
-1.00162	0.009272	0.129076	0.56	29.19	-4.97	0.374	-0.0118	-0.3354	
-1.01016	0.022448	0.122854	4.55	28.98	-5.46	0.3737	-0.0056	-0.329	
-1.028216	0.000976	0.109312	-1.19	28.42	-4.9	0.384	-0.0104	-0.323	
-1.024312	-0.002562	0.104676	-6.09	20.93	-3.71	0.3898	-0.0092	-0.3292	
-1.04554	0.008174	0.112362	-1.47	18.9	-4.34	0.3954	-0.005	-0.3306	
-1.006988	0.013298	0.102602	6.58	18.69	-3.22	0.391	-0.0032	-0.3259	
-1.008696	0.02684	0.107848	1.75	11.83	-1.33	0.4025	-0.0006	-0.3244	
-1.011258	0.025376	0.116388	-8.05	14.07	-1.19	0.3937	0.0015	-0.3119	
-1.022848	0.005856	0.111874	-9.59	19.81	0	0.3966	0.0013	-0.3134	
-1.013454	-0.005368	0.110166	-4.9	20.02	-1.12	0.4071	-0.0094	-0.3044	
-1.009428	0.011834	0.108946	6.02	15.61	-1.4	0.4011	-0.0045	-0.2981	
-1.00589	0.013664	0.101626	9.52	9.66	-1.33	0.4099	-0.0065	-0.309	
-1.005036	0.011468	0.101138	0.21	11.76	-0.84	0.4079	0.0056	-0.3025	
-1.0126	0.006466	0.102846	-4.55	15.47	-2.52	0.4128	-0.0081	-0.3044	
-0.993202	0.011712	0.095038	-3.78	15.33	-2.52	0.4008	0.0044	-0.3025	
-1.009184	0.013542	0.094306	2.38	12.32	-1.82	0.411	0.0024	-0.3057	
-1.0126	0.02196	0.099064	-0.84	15.54	-1.82	0.3997	-0.0061	-0.3043	
-1.009062	0.012566	0.09089	1.68	15.4	-0.91	0.4109	0.0027	-0.2918	
-1.034072	0.014762	0.091744	-1.47	16.24	-0.35	0.4082	-0.0019	-0.3043	
-1.023336	0.02013	0.076494	-3.01	15.4	0.91	0.4067	-0.0015	-0.2888	
-1.010038	0.024644	0.078568	0.35	6.65	2.24	0.4127	-0.005	-0.3012	
-1.020042	0.027816	0.07515199	2.8	8.75	3.29	0.4094	0.0044	-0.2871	
-1.01443	0.013908	0.063806	-7.07	12.67	4.2	0.4164	0.0104	-0.2792	
-1.039074	0.015738	0.054778	-3.08	13.23	4.13	0.4126	-0.0047	-0.2873	
-1.031388	0.008784	0.050996	0.98	12.39	2.24	0.4154	-0.0019	-0.2919	
-1.037366	0.022448	0.04941	-0.77	10.85	2.03	0.4299	-0.0036	-0.278	
-1.019066	0.0183	0.053436	0.77	5.6	2.03	0.4256	-0.005	-0.2812	
-1.02053	0.017812	0.056486	-1.47	4.48	1.33	0.4312	-0.0006	-0.2749	
-1.01565	0.014396	0.045018	1.47	4.48	0.56	0.4316	-0.009699999	-0.2797	
-1.018456	0.018422	0.02928	3.64	3.08	-0.49	0.4315	-0.0096	-0.272	
-1.024678	0.0244	0.018422	6.79	1.26	-0.77	0.4171	-0.0107	-0.2813	
-1.029314	0.020008	0.01342	4.76	0.07	-0.98	0.4194	0.0044	-0.2685	
-1.027728	0.020008	0.01464	-1.12	-0.91	-0.7	0.4213	-0.0077	-0.2734	
-1.019066	0.022814	0.026962	0.42	-2.52	-0.84	0.4237	0.0072	-0.2716	
-1.01382	0.022204	0.036844	-0.07	-1.4	-0.98	0.4242	-0.0063	-0.2734	
-1.020408	0.02501	0.037576	-0.28	0.28	-0.7	0.4152	0.0014	-0.2763	
-1.023458	0.029646	0.022814	5.88	2.17	-0.77	0.4213	-0.0048	-0.2796	
-1.023458	0.030012	0.014518	4.76	2.59	-0.21	0.4185	-0.0077	-0.2781	
-1.036512	0.02379	0.013786	2.31	2.66	0.35	0.4211	-0.0002	-0.2748	
-1.034804	0.0183	0.012566	2.24	3.43	0.84	0.4141	-0.0076	-0.2827	
-1.03151	0.021106	0.009272	3.22	3.15	0.84	0.4268	0.0023	-0.2825	
-1.035414	0.014152	0.008784	3.57	0.77	1.54	0.4172	-0.0121	-0.2766	
-1.034438	0.02196	0.003782	2.45	1.61	1.19	0.421	0.0026	-0.2794	
-1.04249	0.021106	-0.00366	4.41	1.19	1.4	0.4315	-0.0096	-0.2751	
-1.046394	0.015494	-0.009516	1.47	-0.14	1.61	0.4158	-0.0123	-0.2844	
-1.04554	0.015006	-0.014884	3.5	-1.82	1.61	0.4288	-0.0126	-0.2782	
-1.062376	0.01952	-0.016836	5.11	-4.69	1.26	0.4169	-0.0045	-0.2703	
-1.044808	0.015128	-0.019642	1.12	-7.28	0.77	0.4144	-0.0136	-0.2798	
-1.028948	0.013542	-0.010614	-0.14	-11.55	0.63	0.4157	-0.0121	-0.2782	
-1.030046	0.017324	0.002074	-0.91	-11.83	-0.07	0.4259	-0.014	-0.2767	
-1.044686	0.023912	0.010126	1.05	-9.87	-0.21	0.4112	-0.0061	-0.2858	
-1.051152	0.02684	0.0122	2.38	-10.01	-0.28	0.4272	-0.0081	-0.2812	
-1.053958	0.02379	0.014274	-0.14	-10.99	0	0.4244	-0.0109	-0.2782	
-1.054568	0.029158	0.013908	4.2	-13.72	-0.35	0.417	-0.0062	-0.2827	
-1.064206	0.035624	0.012932	9.87	-16.45	0.77	0.417	-0.0063	-0.2858	
-1.06384	0.040016	0.0122	6.65	-17.5	1.82	0.4172	-0.0109	-0.2875	
-1.06506	0.02135	0.01342	-1.33	-20.16	2.31	0.4157	-0.0108	-0.2843	
-1.065182	0.004148	0.026718	-14.84	-23.31	1.75	0.4013	-0.012	-0.2967	
-1.069818	-0.004392	0.04392	-14.91	-24.36	0.35	0.4072	-0.0151	-0.2922	
-1.085068	-0.019642	0.055632	-13.58	-24.85	-1.4	0.4024	-0.0001	-0.3027	
-1.067134	-0.020618	0.081862	-12.74	-31.99	-4.34	0.3998	-0.0077	-0.3121	
-1.041026	0.002684	0.107726	6.58	-37.24	-5.81	0.3941	-0.0105	-0.3091	
-0.995154	0.037088	0.120658	27.79	-38.64	-6.23	0.3909	-0.0014	-0.3135	
-0.989786	0.04636	0.113338	34.02	-34.09	-3.99	0.4027	-0.0066	-0.3229	
-1.008818	0.012078	0.108946	13.65	-28.42	-0.56	0.3925	-0.0047	-0.326	
-1.014674	-0.02196	0.113338	-6.58	-28.77	5.25	0.3829	-0.018	-0.3278	
-1.0614	-0.011346	0.181536	-61.04	-54.53	2.17	0.3767	-0.0072	-0.3275	
-1.02297	-0.006588	0.214476	-21.35	-49.7	7.98	0.3783	-0.009099999	-0.3446	
-0.984906	0.011102	0.232654	-5.95	-65.73	8.19	0.3649	0.0018	-0.3474	
-0.939278	0.038186	0.225578	-1.33	-68.95	6.58	0.3639	-0.0103	-0.3539	
-0.934764	0.063196	0.24278	7.28	-73.85	7.7	0.361	-0.0076	-0.374	
-0.936472	0.07381	0.252906	0	-79.03	11.76	0.3406	-0.0037	-0.3691	
-0.960994	0.034404	0.22814	-10.78	-62.51	12.04	0.3335	-0.0067	-0.3785	
-0.957334	0.0244	0.227164	-18.62	-63.35	13.02	0.3365	-0.01	-0.3879	
-0.942938	0.013298	0.252662	1.33	-88.97	18.06	0.3234	-0.0068	-0.4017	
-0.909632	0.039894	0.32391	1.96	-94.78	16.31	0.3117	-0.0033	-0.3985	
-0.859978	0.045506	0.354044	-3.85	-81.62	14.49	0.2918	-0.0104	-0.4172	
-0.876448	0.032208	0.35441	-10.71	-76.23	13.02	0.2922	-0.0212	-0.4252	
-0.849608	0.055388	0.381372	1.05	-83.09	10.36	0.2686	-0.0069	-0.4325	
-0.814228	0.09162199	0.405162	12.18	-80.64	8.4	0.2733	-0.0178	-0.439	
-0.822646	0.076616	0.434076	-18.97	-67.34	6.44	0.2531	-0.0171	-0.442	
-0.801784	0.072346	0.528626	-23.24	-71.61	5.81	0.2471	-0.0124	-0.4449	
-0.832162	0.048922	0.527528	-10.5	-57.33	5.6	0.2181	-0.0098	-0.4479	
-0.79849	0.040504	0.488732	0	-51.1	7.56	0.2215	-0.0208	-0.4621	
-0.772504	0.040748	0.532042	-35	-49.35	4.83	0.2139	-0.0115	-0.4634	
-0.784826	0.029402	0.606096	-47.11	-59.29	1.12	0.2138	-0.008599999	-0.468	
-0.80703	0.045384	0.528992	9.38	-64.12	2.94	0.2092	-0.0009999999	-0.474	
-0.809104	0.05917	0.486658	6.44	-62.44	4.06	0.1889	-0.0001	-0.4677	
-0.796416	0.021716	0.5429	-22.47	-54.04	1.4	0.1894	-0.0109	-0.4788	
-0.742736	0.035258	0.613904	-12.95	-53.13	0.28	0.1675	-0.0059	-0.4925	
-0.735782	0.037942	0.638792	-3.57	-70	1.12	0.1677	-0.0089	-0.4926	
-0.711016	0.014274	0.591212	9.94	-76.37	2.94	0.1672	0.0018	-0.4815	
-0.72895	0.02684	0.561566	2.87	-69.02	2.24	0.1355	0.0011	-0.5	
-0.68503	0.025132	0.6161	-17.78	-65.31	0.63	0.1353	0.0057	-0.4999	
-0.663192	0.022936	0.679174	-18.41	-66.99	1.19	0.1153	-0.0009	-0.4953	
-0.625006	0.026718	0.702842	-7.28	-68.74	1.89	0.0949	0.0041	-0.5045	
-0.604266	-0.00244	0.715042	-10.08	-70.28	3.01	0.0818	0.0074	-0.5136	
-0.588162	0.005856	0.731634	-3.22	-67.62	3.43	0.0774	0.0107	-0.5073	
-0.561322	0.007686	0.72285	-0.77	-72.73	3.64	0.0631	0.0038	-0.5044	
-0.529724	0.01525	0.739564	1.68	-76.79	4.9	0.054	0.0161	-0.5071	
-0.510692	0.030012	0.778848	3.01	-75.88	4.97	0.034	0.0093	-0.5103	
-0.491538	0.047214	0.825208	5.88	-74.34	5.39	0.0211	0.0082	-0.515	
-0.471774	0.037576	0.80886	7.63	-78.4	7.56	0.0105	0.0193	-0.5054	
-0.43432	0.02196	0.811544	9.59	-80.08	8.12	0.0009	0.0074	-0.518	
-0.396134	0.01891	0.795074	10.99	-80.92	7.49	-0.0133	0.002	-0.5119	
-0.360754	0.026474	0.8296	11.06	-80.15	7	-0.0366	0.0073	-0.5179	
-0.341112	0.065148	0.891698	18.69	-78.05	6.65	-0.0292	0.0013	-0.5041	
-0.299632	0.07137	0.885476	12.81	-79.8	6.86	-0.0564	-0.0053	-0.5103	
-0.273402	0.06527	0.88572	11.76	-79.17	7.14	-0.0606	-0.0081	-0.5088	
-0.227896	0.055022	0.890112	8.4	-80.5	6.93	-0.0793	-0.0133	-0.5058	
-0.17751	0.05795	0.930494	9.1	-80.29	6.23	-0.0894	-0.0115	-0.5088	
-0.160918	0.07747	0.949282	10.92	-79.59	6.3	-0.1043	-0.0002	-0.5008	

-0.099186	0.10187	0.965264	7.63	-79.59	7.98	-0.1241	-0.0144	-0.4933	
-0.061	0.097234	0.98454	9.66	-75.67	7.21	-0.1345	-0.0078	-0.4884	
-0.031232	0.096014	0.99003	7.84	-74.9	6.44	-0.1446	-0.0076	-0.4961	
-0.005368	0.102846	0.986492	8.61	-69.72	5.25	-0.1575	-0.0114	-0.4838	
0.015738	0.102114	0.996984	5.67	-66.15	4.41	-0.1691	-0.0093	-0.4775	
0.04026	0.105652	0.985882	6.79	-60.76	4.27	-0.175	-0.0089	-0.4682	
0.062952	0.10187	0.988932	6.16	-57.19	4.13	-0.1845	-0.0238	-0.4762	
0.066612	0.101748	0.99186	4.48	-55.09	3.99	-0.1892	-0.017	-0.4528	
0.073688	0.108214	0.986004	6.44	-52.71	3.92	-0.2007	-0.0182	-0.4559	
0.092354	0.115168	0.986248	6.51	-50.61	3.92	-0.2125	-0.0103	-0.4603	
0.105896	0.106018	0.980636	5.53	-50.54	4.48	-0.2135	-0.0236	-0.4513	
0.123342	0.111508	0.979172	7.35	-49.63	5.46	-0.2211	-0.0142	-0.4464	
0.13786	0.114802	0.983564	7.7	-48.65	6.16	-0.2399	-0.0136	-0.451	
0.147986	0.116998	0.983198	7.7	-48.3	6.3	-0.2383	-0.0179	-0.4387	
0.183122	0.116144	0.98332	8.82	-47.18	6.72	-0.2497	-0.0236	-0.445	
0.202276	0.112484	0.981002	8.05	-46.48	7.07	-0.2613	-0.0257	-0.4202	
0.203984	0.121024	0.983076	9.45	-45.22	7.35	-0.2628	-0.0227	-0.4263	
0.222894	0.121756	0.980026	10.01	-43.33	6.86	-0.2642	-0.0241	-0.4232	
0.233142	0.110532	0.97844	8.82	-41.37	6.37	-0.2718	-0.0131	-0.4183	
0.257542	0.12627	0.972706	8.54	-39.27	5.95	-0.2888	-0.0246	-0.4185	
0.252662	0.12627	0.977342	5.74	-38.78	5.11	-0.2858	-0.0275	-0.4078	
0.25986	0.138714	0.976366	5.18	-35.91	4.97	-0.2935	-0.0137	-0.4105	
0.259982	0.130906	0.971486	4.97	-34.16	3.64	-0.2893	-0.0122	-0.4043	
0.292312	0.135786	0.967704	5.53	-32.2	3.92	-0.2978	-0.0163	-0.3997	
0.302682	0.142374	0.972706	4.48	-30.45	3.78	-0.3049	-0.0205	-0.3982	
0.301706	0.147132	0.96624	4.41	-28.35	2.66	-0.3103	-0.0306	-0.3876	
0.304878	0.155184	0.969534	3.43	-27.09	2.24	-0.3094	-0.0171	-0.3873	
0.317688	0.157136	0.95892	2.73	-25.48	0.56	-0.3038	-0.014	-0.3748	
0.33733	0.160308	0.966362	0.98	-25.83	0.77	-0.3161	-0.0319	-0.386	
0.350018	0.148474	0.962824	-0.84	-25.9	0.77	-0.3164	-0.0242	-0.3797	
0.297558	0.118828	0.866322	-9.31	-32.83	2.59	-0.3221	-0.027	-0.3813	
0.435906	0.152622	0.969046	-0.42	-17.5	1.19	-0.3234	-0.0285	-0.3828	
0.41236	0.147132	1.001254	-3.92	-22.82	0.98	-0.3384	-0.0171	-0.3717	
0.42944	0.147376	0.977464	-1.82	-17.99	0.84	-0.328	-0.0235	-0.3672	
0.442006	0.147498	0.96807	-0.63	-13.37	0.84	-0.3367	-0.0246	-0.3641	
0.459696	0.147864	0.97661	-0.84	-11.34	0.7	-0.3393	-0.0322	-0.372	
0.4697	0.136884	0.98698	-2.59	-9.31	0.35	-0.3381	-0.0244	-0.3595	
0.484706	0.134688	0.996984	-2.87	-5.32	-0.49	-0.3351	-0.0262	-0.3673	
0.48739	0.1342	1.005036	-2.73	-1.82	-0.56	-0.3351	-0.029	-0.3549	
0.490318	0.135176	1.005036	-2.17	1.89	-0.35	-0.3339	-0.0202	-0.3671	
0.495198	0.143228	1.011258	-1.26	5.53	-0.21	-0.3312	-0.0158	-0.367	
0.5002	0.142008	1.012356	-0.56	9.73	-1.05	-0.3325	-0.0203	-0.3687	
0.486658	0.134322	1.014186	-1.12	13.51	-2.03	-0.3401	-0.0095	-0.3715	
0.472994	0.130174	1.01626	-1.68	17.92	-2.38	-0.3294	-0.0251	-0.3735	
0.465308	0.140056	1.02297	-2.1	22.54	-2.38	-0.3193	-0.0238	-0.3688	
0.458598	0.141276	1.013942	-2.87	26.88	-2.17	-0.3195	-0.018	-0.3764	
0.448228	0.142862	1.021628	-5.39	29.47	-1.89	-0.324	-0.0148	-0.3794	
0.437126	0.141886	1.027484	-5.88	33.74	-2.52	-0.3136	-0.0213	-0.3827	
0.423218	0.142252	1.021628	-6.09	37.8	-2.59	-0.3108	-0.0185	-0.3873	
0.405406	0.145546	1.020896	-5.39	42.77	-2.45	-0.3095	-0.0155	-0.3842	
0.391742	0.14152	1.028094	-6.44	45.64	-2.52	-0.3034	-0.022	-0.3936	
0.372466	0.139812	1.011258	-5.88	50.05	-2.8	-0.3008	-0.0145	-0.3935	
0.346724	0.129076	1.006622	-7.42	53.41	-3.29	-0.2965	-0.0106	-0.412	
0.33245	0.135786	1.013698	-7.91	56.7	-3.92	-0.2849	-0.0122	-0.3997	
0.311588	0.132126	1.009062	-8.26	60.2	-4.76	-0.2846	-0.02	-0.4107	
0.283406	0.11834	0.997838	-7.56	63.63	-4.97	-0.2717	-0.0177	-0.4184	
0.249856	0.114436	0.993324	-6.65	66.29	-4.9	-0.2585	-0.0201	-0.4371	
0.212524	0.114314	0.976488	-5.46	69.79	-5.53	-0.2544	-0.0127	-0.437	
0.175192	0.106628	0.978318	-6.02	72.52	-6.44	-0.243	-0.0089	-0.4509	
0.1525	0.098454	0.959042	-5.04	76.02	-6.93	-0.2369	-0.0168	-0.4557	
0.116266	0.103334	0.963434	-5.18	76.44	-6.93	-0.2156	-0.0054	-0.4478	
0.077348	0.104066	0.954894	-1.96	78.54	-7.35	-0.2149	-0.0237	-0.4591	
0.042578	0.094794	0.952942	-4.2	80.22	-8.26	-0.2037	-0.0153	-0.4651	
0.01769	0.098454	0.951844	-3.08	82.74	-8.82	-0.1994	-0.0111	-0.4728	
-0.009516	0.092476	0.94855	-4.83	84.56	-9.24	-0.182	-0.0147	-0.4698	
-0.035868	0.092476	0.940254	-5.88	86.8	-9.24	-0.1777	-0.0135	-0.4791	
-0.07381	0.090402	0.930982	-6.37	89.53	-9.73	-0.1413	-0.0181	-0.4886	
-0.110166	0.092476	0.906704	-5.88	92.26	-10.15	-0.1386	-0.0138	-0.4916	
-0.141398	0.092842	0.90036	-8.68	93.66	-10.5	-0.1214	-0.0071	-0.5008	
-0.172752	0.088328	0.890234	-8.12	96.46	-10.5	-0.1155	-0.0103	-0.4978	
-0.205448	0.080032	0.86986	-9.59	98.84	-10.15	-0.0951	-0.0142	-0.5042	
-0.246074	0.060268	0.859978	-13.09	99.75	-10.29	-0.0837	-0.0101	-0.5041	
-0.294996	0.061976	0.836676	-8.54	102.62	-10.71	-0.0604	-0.0156	-0.509	
-0.341478	0.053924	0.825452	-11.27	104.72	-11.06	-0.0456	-0.0252	-0.5062	
-0.376492	0.056852	0.799954	-9.94	106.89	-10.71	-0.0432	-0.0104	-0.5151	
-0.432978	0.050874	0.782874	-9.31	109.2	-11.13	0.0044	-0.0104	-0.4998	
-0.463966	0.053802	0.767746	-11.69	107.66	-9.87	0.0044	-0.0105	-0.506	
-0.502884	0.042822	0.746152	-14.14	106.82	-8.26	0.0461	-0.0047	-0.5122	
-0.53863	0.036966	0.731024	-12.95	107.31	-7.28	0.0589	0.0023	-0.5121	
-0.559858	0.037576	0.697474	-12.18	107.38	-6.65	0.0792	0	-0.5122	
-0.582672	0.040626	0.656726	-6.58	106.47	-5.46	0.0891	0.0072	-0.5121	
-0.618174	0.04514	0.637938	-12.32	106.61	-5.74	0.1079	0.0039	-0.4921	
-0.646844	0.037576	0.615612	-15.33	105.84	-5.25	0.1208	0.0078	-0.4967	
-0.666486	0.027206	0.579744	-13.16	104.86	-4.13	0.15	0.0007	-0.4923	
-0.711504	0.026596	0.559248	-10.5	103.88	-2.8	0.1683	0.011	-0.4751	
-0.75884	0.01281	0.530578	-2.73	103.32	-1.4	0.1814	0.0105	-0.4752	
-0.792756	0.022204	0.515206	1.4	97.44	-0.7	0.1918	0.0025	-0.4785	
-0.828746	0.01342	0.488244	6.09	92.47	0.49	0.2003	0.007999999	-0.4877	
-0.846436	0.02318	0.46116	11.41	87.43	-0.56	0.2161	0.0079	-0.463	
-0.886452	0.024522	0.432124	20.65	83.44	-2.17	0.2236	-0.0009999999	-0.4508	
-0.89304	0.021594	0.41358	21	76.44	-3.15	0.2378	0.0073	-0.4538	
-0.910852	0.010492	0.404308	13.51	70.91	-3.22	0.2551	0.0069	-0.4399	
-0.899018	0.019398	0.386618	15.89	73.29	-3.99	0.257	-0.005	-0.434	
-0.907924	0.036844	0.364658	26.32	67.06	-4.62	0.2815	-0.0044	-0.4356	
-0.90951	0.047214	0.350994	33.67	58.31	-3.43	0.2756	-0.0009999999	-0.4277	
-0.911828	0.045628	0.33855	28	56.07	-3.92	0.2901	-0.0044	-0.4186	
-0.922564	0.047458	0.32879	24.85	56.07	-4.06	0.2901	-0.0042	-0.4124	
-0.924028	0.024766	0.30073	27.65	56.42	-4.62	0.305	-0.0153	-0.4111	
-0.949648	0.019154	0.282796	24.85	54.67	-6.58	0.3109	-0.0185	-0.405	
-0.95099	0.050752	0.28121	19.74	55.02	-7.7	0.3153	-0.0229	-0.3958	
-0.968436	0.049898	0.273158	11.41	51.66	-6.86	0.3254	-0.0218	-0.3927	
-0.98332	0.032452	0.268156	4.27	46.62	-5.81	0.3298	-0.0234	-0.3912	
-0.975146	0.036844	0.266204	0.84	42.77	-5.74	0.3501	-0.0269	-0.379	
-0.953186	0.045262	0.268888	2.8	41.37	-6.3	0.3411	-0.0176	-0.3803	
-0.94123	0.05063	0.251808	8.68	41.02	-5.25	0.3487	-0.0285	-0.3837	
-0.95038	0.046726	0.230092	8.19	40.11	-5.11	0.3543	-0.0224	-0.3727	
-0.966362	0.05856	0.209718	15.82	39.9	-3.57	0.3553	-0.0116	-0.3601	
-0.972462	0.0366	0.188734	13.16	41.51	-2.87	0.3526	-0.0174	-0.354	
-0.994178	0.03233	0.197884	-0.63	39.48	-2.66	0.364	-0.0132	-0.3477	
-0.97783	0.027938	0.203984	-0.98	37.59	-3.43	0.3702	-0.0253	-0.3403	
-0.981246	0.027694	0.199592	0.42	35.49	-4.76	0.3699	-0.0179	-0.3479	
-0.981978	0.04209	0.18422	4.34	34.23	-4.27	0.3687	-0.0237	-0.3387	
-0.987102	0.036112	0.163724	7.49	33.88	-4.62	0.3858	-0.0169	-0.3417	
-0.986858	0.045506	0.154086	2.73	31.78	-5.39	0.3827	-0.0135	-0.3308	
-1.005768	0.024644	0.143472	-6.23	32.83	-4.62	0.38	-0.0193	-0.3247	
-1.009306	0.034282	0.130174	-5.11	29.54	-3.64	0.3916	-0.0198	-0.3247	
-1.02602	0.04331	0.117974	5.74	24.78	-3.36	0.387	-0.012	-0.3246	
-1.01199	0.03111	0.100284	-3.01	26.04	-3.5	0.3944	-0.0183	-0.3201	
-1.001132	0.02196	0.097844	-10.5	20.72	-3.92	0.397	-0.0107	-0.3153	
-1.007476	0.029036	0.104066	-1.33	17.92	-3.57	0.4042	-0.0121	-0.2983	
-1.011136	0.038064	0.09638	0.98	21.49	-3.08	0.4015	-0.0152	-0.3045	
-1.00955	0.038918	0.077348	3.85	21.91	-1.05	0.4057	-0.0123	-0.3029	
-1.021018	0.024278	0.064172	-1.96	18.9	0	0.4029	-0.0151	-0.2983	
-1.024434	0.032086	0.045018	1.26	16.66	2.1	0.4128	-0.0094	-0.2967	
-1.026142	0.022814	0.027816	9.24	14.07	2.66	0.4127	-0.0078	-0.292	
-1.015894	0.01098	0.024644	1.75	13.23	2.66	0.4159	-0.0156	-0.2968	
-1.025166	0.02867	0.025864	-0.49	11.97	3.57	0.4115	-0.0139	-0.2983	
-1.036268	0.022814	0.025986	3.71	15.33	3.15	0.4156	-0.0064	-0.2904	
-1.044076	0.019764	0.028304	-5.95	17.64	3.15	0.4159	-0.0168	-0.2829	
-1.046272	0.02318	0.03904	-6.16	13.09	2.94	0.4173	-0.014	-0.2906	
-1.017724	0.022204	0.0488	-1.82	9.59	1.89	0.4084	-0.0075	-0.2858	
-1.019554	0.034038	0.054778	-0.21	8.12	0.91	0.4246	-0.0171	-0.2845	
-1.01077	0.03965	0.04453	5.53	9.38	0.35	0.4234	-0.0245	-0.2785	
-1.027972	0.03721	0.024278	3.64	11.62	1.4	0.4163	-0.026	-0.2909	
-1.02663	0.041846	0.004636	1.75	10.64	1.61	0.4244	-0.0096	-0.2859	
-1.026508	0.047214	-0.005246	5.88	5.74	2.45	0.4201	-0.0137	-0.2751	
-1.030778	0.05185	-0.008296	0.56	4.2	2.03	0.4307	-0.0249	-0.2832	
-1.032974	0.039284	-0.008784	0.49	2.52	2.94	0.4164	-0.0302	-0.2739	
-1.028704	0.043798	-0.002928	-7.28	1.26	2.66	0.4235	-0.0247	-0.2862	
-1.020652	0.042578	0.00427	-3.15	0.63	2.45	0.4232	-0.0185	-0.2814	
-1.022238	0.05124	0.009272	0.35	0.98	2.8	0.4146	-0.021	-0.2737	
-1.028704	0.052826	0.013786	-1.05	2.03	2.94	0.4203	-0.0183	-0.2752	
-1.036024	0.042212	0.019398	-4.62	4.9	2.87	0.4189	-0.0198	-0.2799	
-1.034072	0.049532	0.023546	-0.84	6.3	1.33	0.4204	-0.0215	-0.2846	
-1.023214	0.065148	0.017202	7.42	3.5	-0.14	0.4266	-0.0335	-0.2725	
-1.028216	0.061488	0.013176	3.71	2.87	-0.56	0.4262	-0.0214	-0.2722	
-1.038098	0.050874	0.00244	-0.98	6.72	-0.84	0.432	-0.0204	-0.2831	
-1.043832	0.045872	-0.007198	0	7.56	-1.61	0.4192	-0.0274	-0.2785	
-1.033096	0.041724	-0.007198	2.03	5.39	-1.33	0.4144	-0.0165	-0.2736	
-1.03273	0.062586	-0.004148	3.85	4.55	-1.96	0.4277	-0.0245	-0.2723	
-1.03151	0.07124799	0.00061	8.4	3.29	-2.1	0.4233	-0.02	-0.2784	
-1.036146	0.046238	0.00366	-0.77	4.06	-1.05	0.4278	-0.0273	-0.2631	
-1.038952	0.040504	0	-3.29	3.08	-1.33	0.4251	-0.0306	-0.2786	
-1.039074	0.049898	-0.008174	7.49	-0.7	-1.82	0.4159	-0.018	-0.2721	
-1.03517	0.06039	-0.015006	8.19	-2.87	-1.89	0.4146	-0.0196	-0.2768	
-1.03578	0.05246	-0.020496	2.87	-3.22	-1.12	0.4235	-0.0259	-0.2754	
-1.026874	0.048312	-0.022692	-0.91	-5.53	-0.77	0.4292	-0.0247	-0.2801	
-1.026142	0.042822	-0.019886	-1.05	-7.35	0	0.4176	-0.0242	-0.2738	
-1.032608	0.028548	-0.013664	-6.86	-5.25	0.49	0.4261	-0.0184	-0.2691	
-1.039318	0.026962	-0.007442	-6.86	-4.83	-0.28	0.4161	-0.0225	-0.2707	
-1.021628	0.037698	-0.002562	1.89	-6.93	-0.7	0.4288	-0.014	-0.2736	
-1.033828	0.05307	0.005612	-0.14	-7.91	-0.77	0.4238	-0.0336	-0.2787	
-1.040172	0.037454	0.010004	-6.79	-5.32	0.07	0.4276	-0.0203	-0.2846	
-1.05835	0.037332	0.010614	-7.56	-5.81	1.12	0.4203	-0.0184	-0.283	
-1.062498	0.050142	0.008662	0.77	-8.96	1.12	0.4177	-0.0272	-0.2739	
-1.063108	0.048922	0.008662	4.69	-9.31	1.54	0.4173	-0.0152	-0.2767	
-1.060302	0.037942	0.009028	-2.8	-9.94	2.66	0.4116	-0.0168	-0.2907	
-1.065304	0.023058	0.007198	-7.84	-12.88	3.5	0.4177	-0.0259	-0.2847	
-1.073356	0.018178	-0.00122	-5.95	-18.13	3.57	0.4131	-0.0184	-0.2923	
-1.08641	0.029524	-0.01159	-2.94	-23.38	2.94	0.419	-0.02	-0.2877	
-1.061888	0.025376	-0.001342	-8.47	-24.78	2.59	0.4131	-0.0184	-0.2954	
-1.039928	0.023302	0.017812	-19.74	-19.6	2.31	0.4135	-0.0289	-0.2925	
-1.017358	0.034526	0.037332	-5.67	-25.97	1.54	0.4104	-0.023	-0.3016	
-1.018578	0.048434	0.058926	14.77	-26.88	3.08	0.3969	-0.0102	-0.292	
-1.03395	0.040138	0.068198	2.24	-19.67	5.39	0.406	-0.0212	-0.2954	
-1.056398	0.023912	0.074908	-11.97	-19.18	5.46	0.4047	-0.0245	-0.3094	
-1.071526	0.004636	0.067222	4.69	-23.03	5.11	0.3977	-0.0302	-0.308	
-1.054202	-0.002074	0.043554	21.35	-30.66	5.39	0.3991	-0.0289	-0.3157	
-1.02907	0.011346	0.036234	22.75	-44.1	4.41	0.3963	-0.0303	-0.3173	
-1.011136	0.02013	0.049288	10.36	-50.54	1.96	0.3889	-0.0256	-0.3187	
-0.994422	0.030988	0.07869	4.83	-47.81	0.63	0.3803	-0.0283	-0.3218	
-0.98576	0.069174	0.150914	-16.24	-39.06	0.77	0.3703	-0.0297	-0.3326	
-1.00955	0.07747	0.17873	-82.81	-33.39	0.49	0.3759	-0.0239	-0.3356	
-0.999912	0.004026	0.219112	-38.36	-57.68	6.51	0.3743	-0.018	-0.3448	
-0.962458	0.038308	0.21655	19.74	-66.85	8.05	0.3696	-0.009	-0.3523	
-0.967826	0.071126	0.193614	11.69	-72.87	5.6	0.3483	-0.0187	-0.3494	
-0.94855	0.078934	0.208132	-0.98	-78.89	6.3	0.3426	-0.019	-0.3741	
-0.94428	0.089304	0.242536	0.63	-73.01	9.66	0.3472	-0.0269	-0.3821	
-0.901092	0.08357	0.269254	-24.29	-74.69	5.6	0.3312	-0.0219	-0.3897	
-0.877912	0.038186	0.287554	-25.2	-74.9	6.65	0.3208	-0.0143	-0.4034	
-0.909388	0.052338	0.284748	7.28	-50.12	7.07	0.312	-0.0109	-0.4017	
-0.92781	0.069784	0.304024	-12.11	-50.26	8.12	0.3005	-0.0121	-0.4064	
-0.919148	0.054412	0.318054	-13.72	-48.09	7.07	0.289	-0.0147	-0.411	
-0.901824	0.069174	0.345748	-13.44	-51.03	6.23	0.2938	-0.0257	-0.4222	
-0.90341	0.065026	0.393694	-20.51	-62.44	7.42	0.2861	-0.0104	-0.4264	
-0.883524	0.062952	0.42517	-6.16	-72.24	8.61	0.2819	-0.0147	-0.4234	
-0.879864	0.06039	0.405284	5.81	-76.44	7.84	0.2619	-0.0216	-0.4282	
-0.866932	0.07686	0.420778	2.24	-84.98	7.77	0.262	-0.0233	-0.4359	
-0.842898	0.05856	0.425048	3.22	-90.65	9.87	0.2515	-0.0125	-0.4419	
-0.804102	0.0793	0.452254	4.83	-86.1	11.41	0.233	-0.0211	-0.4544	
-0.782874	0.08295999	0.481168	-1.33	-80.22	10.5	0.2173	-0.0237	-0.4621	
-0.765672	0.068564	0.50447	-18.9	-72.66	8.33	0.2042	-0.0204	-0.4713	
-0.70882	0.03294	0.552782	-42.63	-70.7	6.65	0.1954	-0.0173	-0.4852	
-0.691496	0.017568	0.570838	-23.45	-80.36	10.08	0.1837	-0.0136	-0.4726	
-0.72956	0.042578	0.506422	9.17	-80.01	15.54	0.172	-0.0088	-0.4833	
-0.726022	0.06649	0.539606	-13.65	-70.84	16.17	0.1562	-0.0116	-0.4973	
-0.713212	0.062708	0.669292	-41.58	-61.18	12.81	0.1446	-0.0109	-0.4879	
-0.736148	0.085156	0.745054	-24.78	-60.69	10.08	0.1258	-0.0105	-0.5018	
-0.699914	0.079666	0.67466	14.77	-82.18	10.92	0.1153	-0.0009	-0.4969	
-0.638914	0.09211	0.620248	25.34	-87.85	11.62	0.0967	-0.0063	-0.5001	
-0.583526	0.120658	0.650992	-0.07	-85.82	9.03	0.1012	-0.009699999	-0.5094	
-0.578158	0.10126	0.74664	-32.48	-77.14	4.83	0.0865	-0.0031	-0.5061	
-0.5734	0.096746	0.812398	-23.59	-70.28	3.85	0.075	-0.0027	-0.5076	
-0.552294	0.090036	0.762988	7.63	-76.79	5.25	0.0577	-0.0038	-0.5185	
-0.501542	0.089182	0.720288	6.09	-83.09	5.39	0.0402	-0.0015	-0.5152	
-0.472018	0.083448	0.750056	-10.29	-79.94	4.06	0.0258	-0.0023	-0.509	
-0.441518	0.073444	0.823256	-24.57	-76.65	3.78	0.0009	0.0074	-0.518	
-0.438224	0.061488	0.84973	-13.58	-74.9	3.64	-0.0075	0.002	-0.5041	
-0.39955	0.057828	0.837042	-1.05	-77.56	5.25	-0.0162	0.002	-0.5181	
-0.366122	0.063928	0.827892	-2.17	-79.52	4.83	-0.0246	-0.0052	-0.5213	
-0.331596	0.049288	0.84485	-5.6	-77.77	4.41	-0.0379	0.0015	-0.5071	
-0.286456	0.029158	0.867664	-4.9	-76.23	3.43	-0.0482	0.0066	-0.5008	
-0.245586	0.033306	0.894626	-1.12	-76.09	4.06	-0.0641	0.0084	-0.5162	
-0.219234	0.043188	0.900848	1.96	-75.46	5.39	-0.07979999	0.0001	-0.507	
-0.19398	0.04758	0.91195	1.96	-74.34	6.93	-0.0862	0.0186	-0.5035	
-0.163602	0.062464	0.918782	3.92	-73.22	7.84	-0.09739999	0.0085	-0.499	
-0.129442	0.069418	0.916342	2.94	-75.11	7.28	-0.1029	-0.0002	-0.4977	
-0.112728	0.069296	0.929396	5.32	-74.9	7	-0.1132	0.0033	-0.4898	
-0.082594	0.069052	0.955626	3.64	-72.66	6.09	-0.132	0.0053	-0.499	
-0.059658	0.076372	0.975634	3.64	-72.17	5.18	-0.1434	-0.0001	-0.4929	
-0.048312	0.081374	0.960872	3.64	-75.6	4.13	-0.1552	0.0036	-0.4772	
-0.008296	0.090036	0.982954	5.67	-75.18	4.06	-0.1553	0.0083	-0.4709	
0.015006	0.086742	0.988566	8.33	-74.06	2.8	-0.1827	0.0061	-0.4817	
0.034038	0.098332	1.002962	11.9	-72.38	1.89	-0.1929	0.0068	-0.4662	
0.063074	0.098332	0.977464	16.03	-71.19	-0.28	-0.2044	0.0058	-0.4646	
0.102114	0.106262	0.982954	18.2	-71.75	-0.84	-0.2076	0.012	-0.4629	
0.120292	0.105286	0.99125	19.95	-71.12	-1.75	-0.2144	0.0017	-0.4616	
0.166774	0.102602	1.016626	14.28	-73.08	-1.47	-0.2201	-0.0024	-0.4586	
0.182634	0.103578	0.99308	21.49	-64.89	-3.64	-0.2316	-0.0046	-0.4415	
0.211914	0.092476	1.01687	13.23	-66.29	-3.5	-0.2499	-0.0175	-0.4433	
0.220576	0.103822	1.025288	17.5	-60.76	-2.66	-0.2618	-0.0106	-0.4245	
0.229482	0.116022	1.021262	19.25	-56.49	-3.36	-0.2587	-0.0168	-0.4262	
0.245586	0.11834	1.011868	19.25	-53.76	-3.92	-0.2645	-0.015	-0.4199	
0.274866	0.128832	1.01992	20.86	-52.29	-3.22	-0.2729	-0.0238	-0.4248	
0.28792	0.147498	0.991738	23.73	-47.04	-2.73	-0.2803	-0.0187	-0.4122	
0.297802	0.151524	0.989176	18.06	-48.37	-0.42	-0.2816	-0.0246	-0.4093	
0.332938	0.1708	0.996496	15.96	-43.12	1.68	-0.3047	-0.0263	-0.3891	
0.34099	0.181658	0.956114	14	-40.88	2.8	-0.2975	-0.0251	-0.3906	
0.340136	0.17019	0.965996	11.06	-42.28	1.47	-0.3086	-0.0395	-0.3785	
0.357582	0.184952	0.954894	10.29	-38.01	1.54	-0.3072	-0.0381	-0.3816	
0.368318	0.174338	0.955138	6.93	-32.76	0.49	-0.3091	-0.0259	-0.3766	
0.388692	0.177998	0.957212	5.81	-31.78	1.61	-0.3172	-0.0423	-0.3801	
0.401868	0.182268	0.970144	5.53	-31.71	2.17	-0.3172	-0.0423	-0.3801	
0.405284	0.177754	0.971608	2.8	-25.2	1.68	-0.3305	-0.034	-0.3706	
0.412848	0.176778	0.975512	1.26	-20.58	0.91	-0.3304	-0.037	-0.3706	
0.416996	0.17141	0.973194	0	-16.59	0	-0.3332	-0.0399	-0.3691	
0.425536	0.177998	0.96929	-1.12	-14.56	0.42	-0.3276	-0.034	-0.3675	
0.449936	0.18849	0.987712	-0.35	-14.14	0.98	-0.3363	-0.035	-0.3582	
0.447252	0.184464	0.963922	-0.7	-7.21	0.49	-0.3406	-0.0352	-0.3721	
0.458354	0.191052	0.97661	-0.56	-6.02	0.63	-0.3409	-0.0288	-0.358	
0.46604	0.191174	0.97356	0.07	-2.03	0.35	-0.3348	-0.038	-0.3551	
0.466528	0.184342	0.97661	-0.14	0.63	0.28	-0.3404	-0.0408	-0.3552	
0.47336	0.190564	0.974414	0.98	3.43	0.35	-0.3345	-0.0442	-0.363	
0.47641	0.201788	0.981856	1.19	6.3	0.42	-0.3405	-0.0382	-0.3753	
0.480802	0.195566	0.977464	0.07	10.22	-0.07	-0.3346	-0.0413	-0.3645	
0.483364	0.200934	0.991372	-0.56	13.16	0.07	-0.3463	-0.0363	-0.3674	
0.473604	0.198494	0.992958	-0.07	17.43	-0.56	-0.3364	-0.0323	-0.3705	
0.477264	0.206302	1.002962	0.07	21.7	-1.26	-0.3305	-0.0341	-0.3768	
0.484584	0.208498	1.017724	-1.33	24.57	-1.82	-0.3301	-0.0462	-0.3755	
0.481412	0.210572	1.019432	-2.52	28	-2.59	-0.3319	-0.0354	-0.3675	
0.454572	0.220576	1.018578	-2.52	34.37	-4.27	-0.3288	-0.0401	-0.3707	
0.443958	0.2196	1.022238	-3.64	36.89	-4.97	-0.3188	-0.0363	-0.3861	
0.429928	0.203618	1.018822	-4.97	41.09	-6.3	-0.3144	-0.0394	-0.3816	
0.413702	0.193248	1.014064	-4.34	46.13	-7.49	-0.3145	-0.0366	-0.3908	
0.393084	0.192516	1.008574	-4.48	50.54	-8.26	-0.29	-0.0316	-0.3954	
0.381006	0.191906	1.006256	-4.27	54.25	-9.31	-0.3029	-0.0357	-0.3986	
0.359778	0.191662	1.008818	-4.2	58.45	-9.8	-0.2738	-0.0401	-0.4112	
0.340746	0.185562	0.9882	-3.64	62.79	-9.94	-0.2751	-0.043	-0.4112	
0.308416	0.184098	0.985516	-4.62	66.64	-10.15	-0.2695	-0.0375	-0.4251	
0.274378	0.1891	0.976732	-6.16	71.33	-10.85	-0.2575	-0.0485	-0.4254	
0.23851	0.175558	0.973072	-10.15	74.41	-11.62	-0.2576	-0.0442	-0.4346	
0.202398	0.177144	0.969168	-10.08	78.47	-12.25	-0.2331	-0.0422	-0.4393	
0.168726	0.172752	0.965752	-12.25	82.39	-13.65	-0.236	-0.0422	-0.4423	
0.143594	0.172386	0.96807	-14.49	84.28	-14.77	-0.222	-0.0293	-0.4514	
0.106262	0.168482	0.954528	-17.78	89.53	-16.45	-0.2055	-0.0438	-0.4611	
0.06344	0.169702	0.96197	-18.34	91.77	-16.03	-0.1974	-0.0291	-0.467	
0.01952	0.160186	0.953796	-20.86	97.51	-15.4	-0.1828	-0.0316	-0.4841	
-0.01342	0.147376	0.937082	-18.34	102.48	-14.84	-0.1728	-0.0301	-0.4671	
-0.06588	0.12505	0.921466	-19.25	106.05	-13.86	-0.1454	-0.0254	-0.481	
-0.10004	0.112606	0.909022	-20.02	109.34	-12.81	-0.1407	-0.0349	-0.4952	
-0.143594	0.097844	0.88755	-19.67	112.14	-12.25	-0.119	-0.0344	-0.5015	
-0.189954	0.079788	0.871812	-19.04	114.59	-12.11	-0.108	-0.0181	-0.498	
-0.234484	0.072712	0.848022	-19.88	117.46	-12.04	-0.0849	-0.0174	-0.495	
-0.290238	0.05856	0.823988	-18.27	119.63	-11.97	-0.0718	-0.0183	-0.5106	
-0.339282	0.070516	0.806176	-16.1	122.08	-11.76	-0.0385	-0.0197	-0.5185	
-0.390156	0.052094	0.783484	-17.64	122.01	-11.76	-0.0285	-0.0184	-0.5107	
-0.439322	0.04941	0.758474	-13.16	122.29	-12.18	-0.0184	-0.0171	-0.5045	
-0.468236	0.053436	0.734928	-14	121.1	-12.04	0.0203	-0.0113	-0.5138	
-0.513132	0.048068	0.721874	-17.57	120.89	-12.25	0.0344	0.0002	-0.5105	
-0.524722	0.056608	0.68503	-13.09	118.44	-11.9	0.0448	-0.0076	-0.5092	
-0.575718	0.057706	0.653554	-12.74	118.65	-11.41	0.0667	-0.0129	-0.5078	
-0.600484	0.057218	0.637206	-15.82	116.62	-10.71	0.108	0.0022	-0.4968	
-0.631838	0.050142	0.61122	-17.64	112.49	-10.01	0.1326	0.0027	-0.5015	
-0.66185	0.036234	0.576938	-14.63	108.99	-8.89	0.1467	0.0099	-0.4921	
-0.734562	0.033916	0.543388	-9.38	106.89	-8.19	0.1525	0.0112	-0.4921	
-0.742004	0.030012	0.514474	-9.1	101.64	-4.76	0.1815	0.0073	-0.4845	
-0.781288	0.019764	0.47641	-5.81	99.89	-1.4	0.193	0.007	-0.4753	
-0.832284	0.02379	0.464332	-1.96	95.83	-1.19	0.2074	0.0098	-0.4613	
-0.821914	0.016104	0.430782	3.22	92.75	-2.17	0.2193	-0.0012	-0.4647	
-0.865468	0.021594	0.404552	8.12	89.88	-1.75	0.2275	0.0108	-0.4505	
-0.856318	0.021716	0.385154	14.49	84.28	1.54	0.2393	0.0058	-0.4507	
-0.929518	0.006222	0.354776	29.26	81.06	9.38	0.254	-0.0019	-0.4354	
-0.931958	-0.001708	0.331718	32.13	74.27	-1.68	0.2654	0.0021	-0.4354	
-0.887794	0.03172	0.305732	28.56	76.58	-3.43	0.2857	0.0001	-0.4231	
-0.925736	0.012566	0.288408	23.38	68.88	-3.92	0.2992	-0.0152	-0.4157	
-0.955748	0.034892	0.27877	14.35	71.26	-2.94	0.2992	-0.0151	-0.4111	
-0.950624	0.029768	0.269254	12.53	68.81	-2.8	0.3092	-0.0123	-0.4018	
-0.95343	0.028426	0.26108	9.66	65.38	-1.82	0.3221	-0.0096	-0.3956	
-0.930006	0.041968	0.267668	5.74	63.49	-3.43	0.3225	-0.0215	-0.3881	
-0.9333	0.036844	0.25193	12.67	59.64	-4.27	0.3385	-0.0237	-0.3882	
-0.94733	0.041114	0.225456	24.15	55.93	-4.9	0.3495	-0.0116	-0.3678	
-0.966484	0.05612	0.201056	24.08	54.95	-5.74	0.3525	-0.0148	-0.3741	
-0.99186	0.046848	0.179706	12.46	50.89	-5.32	0.3509	-0.0101	-0.3693	
-0.988566	0.05795	0.184586	4.83	47.95	-5.6	0.3553	-0.0131	-0.357	
-0.982466	0.047214	0.18178	3.29	46.55	-6.02	0.3668	-0.012	-0.3555	
-0.988932	0.030744	0.178364	-6.72	48.86	-7.77	0.3701	-0.0239	-0.3434	
-1.002718	0.036112	0.162992	-1.96	46.97	-7	0.3712	-0.0134	-0.3462	
-0.992104	0.033428	0.14579	-2.66	39.48	-6.02	0.374	-0.0118	-0.3369	
-0.978318	0.028914	0.144082	-4.76	34.3	-7	0.3812	-0.0104	-0.3292	
-1.000888	0.026474	0.139812	-2.1	35.91	-7.63	0.3913	-0.0122	-0.323	
-0.994788	0.020252	0.12566	-3.01	38.01	-7.07	0.3884	-0.012	-0.3215	
-1.01138	0.019154	0.102724	-0.14	33.39	-4.41	0.4044	-0.0156	-0.3201	
-1.020896	0.008662	0.087962	-2.87	27.44	-4.69	0.4013	-0.0093	-0.3137	
-1.032852	0.012078	0.085644	-0.07	28.77	-5.11	0.4012	-0.0062	-0.3105	
-1.014674	0.025254	0.079178	3.29	30.87	-6.3	0.4026	-0.0062	-0.3059	
-1.007598	0.034892	0.070394	11.76	24.85	-3.43	0.3999	-0.0108	-0.3122	
-1.033462	0.018178	0.063684	0	24.36	-3.01	0.4069	-0.005	-0.3105	
-1.039806	0.00549	0.052094	-8.75	23.59	0.07	0.4127	-0.0049	-0.2981	
-1.040782	-0.00671	0.04514	-4.62	17.99	-0.14	0.4115	-0.0137	-0.2906	
-1.049444	0.004026	0.042334	8.82	14.42	-2.45	0.4143	-0.0108	-0.2905	
-1.016992	0.009516	0.031598	14.49	14.28	-1.26	0.4158	-0.0125	-0.2952	
-1.019066	0.00366	0.02562	6.02	9.45	0.35	0.4144	-0.0138	-0.2891	
-1.02358	0.006222	0.027816	-1.75	10.36	0.7	0.4082	-0.0028	-0.2795	
-1.02175	0.006832	0.022204	5.88	10.92	0.28	0.417	-0.0077	-0.2812	
-1.032242	0.002928	0.028182	-1.47	9.73	0.84	0.4173	-0.0137	-0.2798	
-1.018822	0.005612	0.032696	-4.55	11.55	1.19	0.4113	-0.009	-0.2812	
-1.033096	0.024156	0.027084	7.84	10.15	1.47	0.423	-0.0111	-0.2875	
-1.03517	0.019642	0.025986	2.03	11.27	1.75	0.417	-0.0063	-0.2842	
-1.029802	0.012444	0.01464	-1.4	8.05	3.15	0.421	0.0028	-0.2732	
-1.027606	0.009272	0.008052	3.36	2.24	3.08	0.417	-0.0076	-0.275	
-1.017968	0.0305	-0.005368	8.4	1.68	2.73	0.4288	-0.014	-0.2721	
-1.037244	0.028426	-0.006344	3.43	1.4	3.29	0.4242	-0.0063	-0.2719	
-1.039684	0.024644	-0.002806	-6.09	3.99	2.66	0.4302	-0.0125	-0.272	
-1.030168	0.026962	0.001098	0.42	3.92	1.05	0.426	-0.0155	-0.2767	
-1.019798	0.036234	0.008174	3.57	1.61	0.98	0.4287	-0.0111	-0.2798	
-1.02907	0.050874	0.010492	-4.41	0.42	1.12	0.4198	-0.0047	-0.2765	
-1.039318	0.039528	0.010126	-3.01	3.15	1.26	0.4228	-0.0078	-0.2735	
-1.034926	0.025498	0.007076	-4.2	5.6	1.75	0.4305	-0.0214	-0.2614	
-1.02724	0.031354	0.007076	0.35	3.78	0.84	0.4241	-0.0032	-0.2687	
-1.031388	0.03843	0.009393999	4.27	3.29	-0.84	0.4275	-0.0184	-0.2675	
-1.028826	0.050874	0.003782	-0.7	5.25	-0.7	0.4286	-0.007999999	-0.2735	
-1.047736	0.036234	-0.001586	0.91	4.62	-0.14	0.4259	-0.0139	-0.2721	
-1.036146	0.030622	-0.005246	1.54	3.08	0.07	0.4271	-0.007999999	-0.275	
-1.036756	0.032696	-0.012322	4.06	-1.4	0.63	0.4247	-0.0214	-0.2707	
-1.031144	0.035014	-0.014396	1.47	-4.55	1.26	0.4373	-0.0098	-0.2705	
-1.031388	0.031232	-0.01769	-0.77	-3.78	1.33	0.4259	-0.0137	-0.2628	
-1.029558	0.02318	-0.015738	2.66	-3.43	1.26	0.4245	-0.0153	-0.2705	
-1.02236	0.030866	-0.012078	1.61	-2.59	0.56	0.4218	-0.0212	-0.2691	
-1.029802	0.038552	-0.006832	2.66	-2.59	0.7	0.4276	-0.0199	-0.266	
-1.035292	0.02806	-0.001464	-3.08	-2.52	0.77	0.4286	-0.0095	-0.2751	
-1.046882	0.02013	-0.002074	-6.65	-3.71	1.19	0.4184	-0.0075	-0.2672	
-1.036268	0.030622	-0.005368	2.73	-6.86	1.54	0.4246	-0.0169	-0.2721	
-1.040904	0.02379	-0.00488	-0.49	-9.1	2.52	0.4202	-0.0139	-0.2813	
-1.058106	0.022082	-0.003904	-7	-6.72	2.45	0.4231	-0.014	-0.2829	
-1.054446	0.031476	-0.009638	6.72	-6.16	1.61	0.4202	-0.0153	-0.2783	
-1.063962	0.039528	-0.006344	6.23	-6.23	0.42	0.4246	-0.0184	-0.2753	
-1.081408	0.041846	-0.000244	-1.68	-5.95	0.56	0.4191	-0.023	-0.2862	
-1.096414	0.020862	0.002074	-4.62	-7.84	0.84	0.4231	-0.0167	-0.269	
-1.107272	0.012688	-0.002562	-7.56	-14.42	-0.07	0.4248	-0.0229	-0.2707	
-1.100928	0.025376	-0.004392	-3.71	-17.99	-3.5	0.4156	-0.009	-0.275	
-1.05774	0.0244	0.012444	-0.42	-19.11	-7.28	0.4248	-0.0218	-0.2893	
-1.023336	0.053192	0.034892	7.35	-23.8	-5.67	0.413	-0.0167	-0.286	
-1.011136	0.041602	0.060024	8.54	-22.89	-3.43	0.41	-0.0121	-0.289	
-1.018212	0.023424	0.074298	-12.81	-11.55	-2.73	0.4046	-0.0226	-0.2954	
-1.02785	0.01586	0.081008	-14.84	-11.76	-1.75	0.3996	-0.0043	-0.2919	
-1.009062	0.029524	0.091744	-0.56	-23.66	-0.98	0.4143	-0.0111	-0.3014	
-1.014064	0.048678	0.09467199	23.31	-25.41	0.35	0.3983	-0.0088	-0.2935	
-1.012478	0.037454	0.078568	21.7	-19.53	1.96	0.4014	-0.0136	-0.303	
-1.021018	0.024888	0.066124	-0.7	-22.26	3.71	0.4004	-0.0243	-0.3078	
-1.024922	0.010858	0.069784	-8.75	-30.73	5.53	0.4014	-0.011	-0.3184	
-1.007842	0.008296	0.10248	-13.86	-41.93	7.14	0.3899	-0.0148	-0.306	
-0.985272	0.032818	0.200324	-64.26	-53.62	1.89	0.3968	-0.0047	-0.3167	
-0.983076	-0.011102	0.179218	-50.68	-45.92	5.88	0.3779	-0.0011	-0.3243	
-0.9577	0.035014	0.179828	-10.92	-49.14	9.17	0.372	0.0033	-0.3319	
-0.929396	-0.00183	0.18361	-22.4	-59.78	10.08	0.3723	-0.0057	-0.3352	
-0.93086	0.011712	0.204838	-20.72	-62.79	9.52	0.3618	0.005	-0.3442	
-0.947818	-0.001586	0.2379	-13.79	-53.2	11.27	0.3608	-0.0042	-0.3568	
-0.942816	0.030866	0.263764	-21.42	-43.82	8.75	0.3476	0.0006	-0.3613	
-0.946842	0.01708	0.270596	-24.85	-38.15	7.98	0.346	0.0052	-0.3628	
-0.931714	0.02501	0.269986	1.89	-33.18	11.48	0.3377	-0.0025	-0.3862	
-0.924516	0.035136	0.265594	2.31	-30.66	14.28	0.3463	-0.0026	-0.3753	
-0.922686	0.022082	0.267668	-7.77	-23.38	14.28	0.3425	-0.0161	-0.3787	
-0.92659	0.037088	0.343186	-17.99	-20.86	14.84	0.3333	-0.0023	-0.3861	
-0.9333	0.01281	0.363438	-13.37	-18.06	15.12	0.3249	-0.007999999	-0.3878	
-0.931836	0.02928	0.34587	18.76	-19.11	16.59	0.3247	-0.0034	-0.383	
-0.917806	0.040138	0.312198	24.57	-19.74	17.85	0.3207	-0.0124	-0.3879	
-0.921222	0.056974	0.324398	16.94	-17.57	19.18	0.3283	-0.0218	-0.3881	
-0.936594	0.078568	0.360632	13.58	-8.68	20.44	0.3284	-0.0249	-0.3913	
-0.9394	0.071126	0.365756	12.32	-4.83	23.03	0.3342	-0.0266	-0.3929	
-0.93391	0.082106	0.36234	17.71	-3.99	25.83	0.3199	-0.0307	-0.3976	
-0.92415	0.083448	0.357094	16.66	-7.49	28.49	0.3186	-0.0348	-0.3806	
-0.919392	0.10309	0.372222	17.71	-9.52	31.08	0.3288	-0.037	-0.3962	
-0.92293	0.120536	0.371246	22.19	-10.36	32.83	0.3261	-0.0428	-0.3886	
-0.909266	0.135786	0.367708	20.93	-10.64	34.51	0.318	-0.0562	-0.3966	
-0.892796	0.150182	0.371124	14.14	-8.96	35.98	0.3166	-0.0577	-0.3982	
-0.893162	0.155794	0.376492	14.21	-6.37	37.38	0.3168	-0.0638	-0.3999	
-0.88633	0.177998	0.384666	16.66	-3.22	38.43	0.3083	-0.0694	-0.3953	
-0.904874	0.190076	0.383568	18.76	-4.41	39.41	0.3185	-0.0712	-0.3876	
-0.906338	0.212524	0.37576	24.29	-4.34	41.44	0.3014	-0.0783	-0.397	
-0.91134	0.235948	0.382958	20.93	-1.89	42.56	0.3094	-0.0967	-0.4006	
-0.899994	0.237656	0.386496	17.78	-2.31	43.82	0.3092	-0.0935	-0.3927	
-0.88572	0.253882	0.390644	21.98	-6.09	44.66	0.3135	-0.0935	-0.3835	
-0.877424	0.26413	0.385764	31.08	-9.1	45.22	0.2997	-0.1099	-0.3993	
-0.867542	0.289994	0.379786	37.87	-12.25	45.29	0.2998	-0.1128	-0.3931	
-0.870348	0.308904	0.362218	41.02	-12.04	45.29	0.297	-0.1157	-0.3917	
-0.857416	0.34221	0.355264	34.51	-8.54	44.38	0.3005	-0.1322	-0.3843	
-0.864614	0.346114	0.35197	27.44	-4.76	43.05	0.2934	-0.1352	-0.3921	
-0.856074	0.371856	0.36722	21	-1.68	41.16	0.2921	-0.1395	-0.386	
-0.859246	0.39528	0.371734	25.41	-3.01	39.9	0.2969	-0.1518	-0.3878	
-0.846558	0.417118	0.346602	30.1	-3.22	39.69	0.2798	-0.1614	-0.374	
-0.848388	0.43737	0.330498	21.28	-2.45	38.78	0.289	-0.1743	-0.3945	
-0.845216	0.447008	0.338916	10.92	-0.07	37.59	0.2801	-0.1704	-0.3696	
-0.838018	0.465796	0.343674	10.29	1.12	36.19	0.2673	-0.1746	-0.3789	
-0.830332	0.474214	0.341234	13.3	-1.75	35.77	0.2765	-0.19	-0.3762	
-0.822158	0.484218	0.347822	13.51	-8.68	34.51	0.2725	-0.1989	-0.3779	
-0.817644	0.496174	0.330986	24.22	-9.66	33.53	0.2653	-0.1986	-0.3764	
-0.81374	0.50996	0.314638	25.2	-8.26	32.34	0.2644	-0.2139	-0.3891	
-0.808128	0.517646	0.319396	16.66	-6.44	29.96	0.2711	-0.2001	-0.3656	
-0.798246	0.52399	0.332816	10.01	-3.64	27.72	0.2501	-0.2165	-0.3922	
-0.791048	0.532408	0.340014	10.57	-2.8	26.88	0.2499	-0.2132	-0.3813	
-0.787632	0.533872	0.339892	10.92	-5.11	27.23	0.2601	-0.2164	-0.3705	
-0.784582	0.541192	0.335866	12.67	-5.74	26.74	0.2533	-0.2269	-0.3816	
-0.780556	0.555344	0.329278	16.45	-5.25	25.83	0.2504	-0.2253	-0.3816	
-0.763354	0.57157	0.330742	12.81	-4.41	24.15	0.2477	-0.2327	-0.3786	
-0.756888	0.575474	0.336598	9.45	-7	23.8	0.2494	-0.2387	-0.3772	
-0.753594	0.591822	0.342576	11.76	-5.88	22.68	0.2463	-0.234	-0.3724	
-0.755668	0.601216	0.335744	15.54	-7.56	21.84	0.2408	-0.2399	-0.3741	
-0.746762	0.61244	0.32513	19.11	-6.44	21	0.2443	-0.2566	-0.3745	
-0.739686	0.615002	0.322812	13.51	-4.97	19.53	0.2436	-0.2384	-0.371	
-0.729926	0.626226	0.327082	12.39	-5.25	18.48	0.2309	-0.2483	-0.365	
-0.723704	0.633546	0.327936	13.93	-5.46	17.5	0.2368	-0.2516	-0.3682	
-0.717238	0.632326	0.320006	15.89	-7.7	17.15	0.2288	-0.2695	-0.3716	
-0.715408	0.643794	0.316468	17.22	-5.81	15.54	0.2266	-0.2497	-0.3681	
-0.715408	0.654896	0.313784	15.96	-5.53	14.35	0.2326	-0.2559	-0.3636	
-0.720776	0.655872	0.30561	18.62	-5.18	13.3	0.2244	-0.2677	-0.3638	
-0.716994	0.660874	0.295606	22.89	-3.29	12.18	0.2259	-0.2705	-0.3546	
-0.714066	0.664168	0.303292	15.61	-3.01	10.92	0.2241	-0.2601	-0.3636	
-0.71004	0.6771	0.314516	13.72	-2.1	9.66	0.2274	-0.2734	-0.3469	
-0.69357	0.686006	0.313052	16.17	-2.59	9.03	0.2217	-0.2721	-0.3639	
-0.700036	0.683322	0.30378	18.76	-5.39	8.82	0.2174	-0.2734	-0.3608	
-0.702354	0.698694	0.2867	25.34	-5.6	7.49	0.2132	-0.2776	-0.3547	
-0.70394	0.707356	0.26291	23.03	-2.87	5.95	0.2064	-0.291	-0.3565	
-0.706014	0.721752	0.266936	8.4	-0.98	3.57	0.2091	-0.2836	-0.3595	
-0.696986	0.724558	0.276696	-1.47	0.28	1.47	0.2074	-0.2787	-0.3485	
-0.697352	0.730414	0.28243	-1.68	-0.49	0.42	0.2236	-0.287	-0.3534	
-0.706014	0.737246	0.275842	0.7	-0.49	-1.61	0.2165	-0.2897	-0.3488	
-0.700524	0.742248	0.273646	-3.29	2.1	-4.34	0.2224	-0.293	-0.3535	
-0.696986	0.750544	0.28853	-12.46	3.92	-7.7	0.2017	-0.2814	-0.3408	
-0.686372	0.747372	0.285846	-12.32	3.71	-10.78	0.2159	-0.2746	-0.35	
-0.703452	0.72834	0.275354	-9.66	2.8	-13.65	0.2192	-0.2838	-0.3518	
-0.710162	0.717604	0.263398	-11.55	8.54	-17.99	0.2216	-0.2703	-0.353	
-0.71248	0.708332	0.255956	-20.23	11.83	-22.4	0.2249	-0.2827	-0.3626	
-0.719312	0.700158	0.2745	-31.43	11.76	-25.83	0.2361	-0.2724	-0.3547	
-0.72224	0.683078	0.294386	-31.08	11.34	-28.91	0.2377	-0.2757	-0.3625	
-0.732244	0.678442	0.305244	-24.85	11.13	-32.34	0.2357	-0.262	-0.3606	
-0.727364	0.663924	0.296216	-25.69	11.83	-36.33	0.2403	-0.2668	-0.367	
-0.738222	0.632082	0.295728	-34.09	11.76	-39.76	0.2398	-0.2533	-0.3713	
-0.76006	0.61915	0.30805	-36.54	18.41	-45.36	0.2539	-0.2433	-0.3696	
-0.785314	0.59902	0.307196	-40.32	26.53	-50.75	0.2522	-0.2371	-0.3663	
-0.786656	0.581696	0.319396	-57.96	23.1	-53.9	0.2519	-0.228	-0.3661	
-0.81862	0.542534	0.329766	-56.28	10.99	-54.04	0.2631	-0.2181	-0.3768	
-0.824354	0.519476	0.321348	-37.03	6.79	-53.69	0.2728	-0.2051	-0.3827	
-0.827282	0.504226	0.304268	-31.5	6.23	-54.39	0.2783	-0.1992	-0.3795	
-0.831796	0.48068	0.31964	-49.49	3.64	-56.56	0.2748	-0.1825	-0.3838	
-0.834968	0.441762	0.34526	-55.72	2.8	-58.87	0.2874	-0.1708	-0.3789	
-0.84607	0.406016	0.348554	-41.93	-0.77	-58.87	0.2756	-0.1645	-0.3834	
-0.84424	0.402966	0.34099	-25.41	0.21	-59.15	0.2919	-0.1744	-0.3976	
-0.848266	0.376736	0.325984	-32.83	2.94	-59.64	0.2954	-0.1505	-0.3986	
-0.878888	0.354654	0.344284	-41.79	5.67	-61.18	0.2935	-0.1381	-0.389	
-0.878644	0.327814	0.350018	-38.57	4.48	-61.74	0.2985	-0.1173	-0.3932	
-0.88755	0.290116	0.332938	-35.63	4.83	-62.02	0.3001	-0.1203	-0.3902	
-0.875838	0.29036	0.34343	-27.86	1.05	-63.21	0.298	-0.1022	-0.3945	
-0.906338	0.263764	0.31537	-29.26	5.46	-64.75	0.3066	-0.1024	-0.3898	
-0.913902	0.23912	0.320494	-43.26	4.06	-64.61	0.2898	-0.0763	-0.3969	
-0.904874	0.210206	0.354898	-47.46	2.03	-63	0.3056	-0.0738	-0.3954	
-0.899262	0.185562	0.364902	-34.86	-2.38	-61.11	0.3105	-0.0471	-0.4072	
-0.900482	0.1403	0.335744	-24.78	-5.18	-58.94	0.3089	-0.0438	-0.3963	
-0.90646	0.119804	0.328302	-32.34	-0.49	-59.5	0.3073	-0.0395	-0.4086	
-0.903288	0.099674	0.341844	-38.01	2.31	-60.13	0.3153	-0.0216	-0.4035	
-0.903532	0.080276	0.362584	-38.36	3.01	-60.13	0.3106	-0.0122	-0.394	
-0.919636	0.0427	0.362096	-33.67	0.98	-59.15	0.3174	0.0009	-0.4015	
-0.929884	0.026718	0.34465	-27.09	1.33	-58.66	0.3128	0.0085	-0.406	
-0.920124	0.012566	0.354654	-30.73	-2.31	-58.94	0.3184	0.0113	-0.4059	
-0.917074	-0.027206	0.360022	-38.99	-4.97	-58.87	0.3133	0.0327	-0.4023	
-0.911706	-0.05246	0.370514	-31.92	-7.49	-59.22	0.3203	0.0398	-0.4084	
-0.91561	-0.066368	0.359534	-22.96	-5.25	-58.31	0.3057	0.0423	-0.3897	
-0.90951	-0.103334	0.350994	-21.07	-9.66	-56.56	0.3023	0.0559	-0.3971	
-0.900604	-0.110288	0.359534	-21.21	-5.95	-53.62	0.3049	0.0661	-0.4077	
-0.91378	-0.13969	0.369416	-26.11	-4.27	-50.96	0.2901	0.0742	-0.4075	
-0.912804	-0.157258	0.371856	-25.97	-2.59	-47.25	0.2869	0.0835	-0.4026	
-0.907192	-0.19032	0.380396	-23.45	-9.17	-45.36	0.291	0.0893	-0.4041	
-0.904874	-0.193858	0.37576	-9.38	-7.84	-43.61	0.2864	0.097	-0.4054	
-0.900482	-0.199958	0.375638	-5.88	-6.16	-42.35	0.2976	0.1072	-0.4037	
-0.895724	-0.224236	0.383446	-14.35	-4.69	-42.14	0.2892	0.0984	-0.4039	
-0.878522	-0.233996	0.38979	-15.12	-4.76	-42	0.2799	0.1154	-0.4034	
-0.88023	-0.23546	0.39345	-14	-5.25	-41.65	0.2755	0.117	-0.4049	
-0.878766	-0.256322	0.395158	-15.96	-6.3	-41.09	0.2828	0.1166	-0.4112	
-0.875228	-0.276574	0.391986	-16.38	-7.07	-40.18	0.2804	0.1439	-0.4106	
-0.868518	-0.29036	0.390644	-23.45	-8.26	-39.13	0.2734	0.1368	-0.3998	
-0.860832	-0.305976	0.396988	-31.85	-11.69	-38.43	0.2645	0.1416	-0.4059	
-0.851804	-0.320006	0.401624	-30.1	-13.79	-37.03	0.2627	0.1522	-0.4041	
-0.849242	-0.333182	0.393206	-22.33	-15.4	-35.49	0.2581	0.1584	-0.4055	
-0.848144	-0.355996	0.388082	-22.68	-15.47	-33.6	0.2584	0.1523	-0.4103	
-0.83204	-0.374174	0.388936	-20.51	-15.26	-32.06	0.2518	0.1739	-0.4005	
-0.83143	-0.382836	0.385886	-19.46	-16.38	-30.38	0.2531	0.1754	-0.3973	
-0.826428	-0.388082	0.384666	-18.76	-17.57	-28.14	0.24	0.1802	-0.4049	
-0.826672	-0.405284	0.382104	-15.96	-16.24	-26.6	0.2354	0.1866	-0.397	
-0.822036	-0.401136	0.381982	-13.72	-15.68	-24.5	0.2369	0.1862	-0.4141	
-0.810324	-0.422364	0.39711	-17.64	-16.87	-21.49	0.2323	0.1912	-0.4016	
-0.81618	-0.43981	0.39772	-16.59	-14.98	-21.07	0.2204	0.2006	-0.406	
-0.814472	-0.455182	0.399428	-15.75	-13.58	-19.67	0.2245	0.208	-0.4027	
-0.78751	-0.449204	0.412848	-9.8	-12.32	-20.16	0.2201	0.2109	-0.415	
-0.787144	-0.45018	0.418948	-13.72	-13.86	-21.77	0.2131	0.2053	-0.4089	
-0.784216	-0.471408	0.418338	-16.24	-13.65	-21.91	0.2154	0.2203	-0.4102	
-0.77775	-0.469578	0.413092	-10.99	-12.04	-20.93	0.2112	0.2175	-0.4071	
-0.773724	-0.484706	0.41663	-15.89	-11.76	-20.16	0.2153	0.2232	-0.4132	
-0.766648	-0.49105	0.410652	-13.44	-13.79	-18.13	0.1878	0.2229	-0.4084	
-0.767502	-0.501908	0.402478	-15.19	-12.11	-17.22	0.1895	0.2154	-0.404	
-0.760914	-0.512888	0.40443	-16.17	-13.09	-16.73	0.2008	0.2254	-0.41	
-0.762378	-0.515206	0.411994	-17.5	-12.6	-15.68	0.2053	0.2193	-0.4039	
-0.752618	-0.515816	0.410286	-17.99	-12.04	-13.44	0.1959	0.2378	-0.4019	
-0.739564	-0.529358	0.418094	-20.58	-12.04	-10.57	0.1902	0.2367	-0.3942	
-0.742492	-0.554246	0.418094	-21.91	-10.64	-7.63	0.1842	0.2429	-0.3956	
-0.739442	-0.571082	0.419558	-18.27	-9.1	-5.11	0.18	0.24	-0.3987	
-0.738588	-0.572058	0.422486	-9.87	-6.02	-3.01	0.1842	0.2428	-0.4002	
-0.726144	-0.57523	0.423584	-10.5	-5.81	-1.82	0.1911	0.2515	-0.4063	
-0.724924	-0.574986	0.419436	-8.05	-4.9	-0.56	0.1885	0.2426	-0.4003	
-0.734562	-0.565592	0.40931	-4.9	-3.36	0.35	0.1781	0.2504	-0.4062	
-0.724924	-0.566812	0.41968	-6.16	-0.28	1.4	0.1839	0.2505	-0.3939	
-0.727242	-0.575352	0.422852	-7.49	-0.49	2.87	0.181	0.252	-0.3969	
-0.729316	-0.570106	0.40504	-5.32	-2.66	4.48	0.1841	0.2472	-0.4063	
-0.727242	-0.576572	0.409554	-5.18	-0.56	5.74	0.1795	0.2522	-0.3938	
-0.726632	-0.592432	0.414434	-4.76	-0.28	8.12	0.187	0.2443	-0.3956	
-0.72712	-0.601826	0.412482	-2.24	1.4	10.85	0.1854	0.2503	-0.4001	
-0.724192	-0.600972	0.41419	0.84	1.89	13.44	0.1854	0.2489	-0.397	
-0.722972	-0.593652	0.415532	2.59	2.87	16.1	0.197	0.2469	-0.3986	
-0.745054	-0.58499	0.409066	4.2	5.25	19.32	0.1916	0.2366	-0.3958	
-0.736392	-0.567788	0.39833	13.44	8.19	22.26	0.1885	0.2426	-0.4018	
-0.748104	-0.561444	0.394182	15.4	9.52	24.01	0.1955	0.2513	-0.4063	
-0.767258	-0.544974	0.388936	16.03	11.62	24.5	0.1991	0.2302	-0.4006	
-0.771772	-0.517036	0.393206	19.74	16.03	25.69	0.2074	0.2404	-0.4019	
-0.773236	-0.500688	0.40199	19.25	18.69	28.14	0.2122	0.228	-0.4084	
-0.779336	-0.486536	0.407846	20.37	21.84	32.27	0.2124	0.2221	-0.4024	
-0.788852	-0.486414	0.411872	23.24	28.07	37.45	0.2196	0.2248	-0.4023	
-0.783606	-0.465308	0.396744	31.92	29.89	39.69	0.224	0.2217	-0.3993	
-0.837164	-0.452132	0.35868	36.05	32.9	40.25	0.2362	0.2032	-0.3967	
-0.891088	-0.409676	0.341722	48.86	40.25	43.82	0.2425	0.1921	-0.4109	
-0.881328	-0.371856	0.346236	47.74	49.7	46.48	0.2443	0.1787	-0.3972	
-0.881328	-0.363072	0.366366	27.86	41.09	52.08	0.2545	0.1784	-0.3926	
-0.863394	-0.354898	0.363194	23.8	23.17	54.67	0.2563	0.1677	-0.396	
-0.870958	-0.340868	0.32391	38.92	22.61	54.95	0.2697	0.1581	-0.4009	
-0.865468	-0.310368	0.341234	31.15	24.57	57.89	0.2744	0.1476	-0.3903	
-0.868762	-0.279258	0.357582	28.98	24.78	60.41	0.2772	0.149	-0.3887	
-0.8662	-0.249368	0.3538	32.2	19.53	63.42	0.2876	0.141	-0.392	
-0.87413	-0.231434	0.337818	28.21	13.86	65.24	0.2959	0.1119	-0.3974	
-0.896822	-0.215086	0.337086	29.96	15.33	65.66	0.3119	0.1098	-0.3975	
-0.90219	-0.188124	0.33306	32.97	14.63	65.45	0.3061	0.1088	-0.382	
-0.907436	-0.152622	0.335134	34.72	10.29	63.77	0.3112	0.0904	-0.3902	
-0.91927	-0.122122	0.318054	41.44	9.87	62.37	0.3175	0.0752	-0.3828	
-0.914878	-0.085644	0.310612	35.49	7.14	62.16	0.3177	0.0705	-0.3906	
-0.925614	-0.053924	0.317566	29.33	6.51	61.46	0.3137	0.0615	-0.3939	
-0.93574	-0.039772	0.31781	28.21	5.67	60.83	0.317	0.0479	-0.3896	
-0.941108	-0.028182	0.314516	32.41	5.53	60.62	0.3217	0.0403	-0.3867	
-0.934276	-0.010492	0.310124	33.25	1.96	59.78	0.3277	0.0324	-0.3931	
-0.93879	0.011468	0.311466	36.4	1.47	58.45	0.3208	0.0238	-0.384	
-0.930128	0.043066	0.313052	38.29	0.35	57.75	0.3243	0.0056	-0.3813	
-0.93269	0.073078	0.31171	36.19	1.61	57.47	0.3247	-0.0037	-0.3954	
-0.927932	0.106872	0.326838	31.29	-0.49	58.03	0.3235	-0.011	-0.3878	
-0.925126	0.13664	0.325496	33.95	1.05	58.66	0.3242	-0.0291	-0.3852	
-0.908046	0.167384	0.323666	34.44	-0.77	59.5	0.3286	-0.0308	-0.3883	
-0.908534	0.197396	0.31476	34.3	-0.07	58.31	0.3306	-0.0461	-0.3918	
-0.90768	0.216916	0.316712	29.75	0.77	57.12	0.3227	-0.0682	-0.3829	
-0.909022	0.243268	0.328058	28.28	-0.63	56.49	0.3256	-0.0697	-0.3768	
-0.895724	0.270108	0.323666	30.17	-1.75	55.3	0.3273	-0.0744	-0.3815	
-0.890478	0.27938	0.311588	28.56	-3.15	54.32	0.3159	-0.08	-0.3832	
-0.887428	0.30622	0.31598	31.15	-3.15	53.13	0.3238	-0.0984	-0.3821	
-0.892918	0.305488	0.299632	30.8	-2.94	53.41	0.3215	-0.1148	-0.3793	
-0.88328	0.331474	0.304878	30.52	-5.11	54.39	0.326	-0.1196	-0.381	
-0.87474	0.346358	0.30988	30.31	-6.93	53.69	0.3132	-0.1248	-0.3687	
-0.878522	0.361974	0.312076	31.22	-6.02	53.69	0.3121	-0.1341	-0.3797	
-0.864736	0.374784	0.311222	33.11	-8.12	53.2	0.3065	-0.1397	-0.3721	
-0.86498	0.384666	0.295484	38.43	-5.32	51.8	0.313	-0.1598	-0.3819	
-0.864492	0.397964	0.289506	39.76	-3.78	50.33	0.3	-0.1607	-0.3741	
-0.878522	0.434808	0.276574	37.66	-1.33	48.02	0.2977	-0.177	-0.3651	
-0.858392	0.456036	0.268034	38.43	-2.38	46.83	0.2952	-0.186	-0.3684	
-0.859124	0.476166	0.268156	34.3	-3.99	45.15	0.2953	-0.189	-0.3685	
-0.848266	0.495686	0.273036	33.18	-6.23	43.33	0.2897	-0.1961	-0.3593	
-0.843996	0.526674	0.266692	34.58	-6.86	41.44	0.2829	-0.2064	-0.358	
-0.824354	0.548756	0.259982	34.86	-7.98	40.11	0.2788	-0.2139	-0.3644	
-0.807884	0.563884	0.257176	31.08	-8.26	38.78	0.2866	-0.2307	-0.357	
-0.80764	0.577426	0.264252	26.32	-8.05	37.03	0.2795	-0.232	-0.3632	
-0.800564	0.591578	0.266692	23.45	-8.33	35	0.2678	-0.2313	-0.3477	
-0.788608	0.610732	0.271938	21.21	-8.47	33.32	0.2681	-0.2375	-0.3571	
-0.778848	0.61366	0.26962	20.65	-9.87	32.27	0.2741	-0.2436	-0.3511	
-0.769454	0.619394	0.269376	22.89	-10.85	31.01	0.2571	-0.2535	-0.3481	
-0.753594	0.621468	0.271694	22.33	-11.41	29.75	0.2658	-0.2567	-0.342	
-0.739442	0.616344	0.273036	21.49	-13.02	28.91	0.2576	-0.2671	-0.3484	
-0.734684	0.634156	0.277062	26.25	-10.29	27.16	0.2529	-0.2593	-0.3467	
-0.727974	0.651236	0.265716	30.03	-9.24	25.83	0.2418	-0.2708	-0.3407	
-0.722972	0.66185	0.25925	27.37	-9.73	24.15	0.2519	-0.2726	-0.3346	
-0.722606	0.6832	0.252052	27.86	-6.93	23.24	0.2484	-0.2937	-0.3397	
-0.71614	0.700402	0.248148	22.33	-4.83	21.77	0.2351	-0.2843	-0.3456	
-0.720532	0.703208	0.24888	18.27	-4.41	20.65	0.2395	-0.2871	-0.3318	
-0.718458	0.709552	0.255468	16.17	-2.8	18.69	0.2238	-0.2928	-0.3427	
-0.718214	0.72468	0.25071	15.82	-2.66	17.29	0.2397	-0.2932	-0.3335	
-0.707112	0.724192	0.243512	13.65	-3.22	16.03	0.2284	-0.3003	-0.3336	
-0.694424	0.716262	0.238876	11.13	-2.87	14.56	0.224	-0.3	-0.3274	
-0.695522	0.715164	0.235826	10.57	-1.19	12.53	0.2214	-0.3075	-0.3291	
-0.696376	0.725656	0.233142	9.87	-0.63	10.85	0.2256	-0.3032	-0.3336	
-0.70272	0.72346	0.215208	12.53	1.05	9.31	0.22	-0.3104	-0.3245	
-0.705038	0.730536	0.208132	9.59	2.17	7.7	0.2247	-0.3183	-0.334	
-0.698938	0.745176	0.213622	5.32	3.01	5.18	0.2215	-0.3105	-0.326	
-0.696376	0.75152	0.210206	6.09	0.77	4.06	0.23	-0.3076	-0.3198	
-0.699548	0.751154	0.208498	6.02	0.42	3.5	0.2246	-0.3151	-0.3277	
-0.69784	0.760304	0.205936	6.72	0.49	2.31	0.2312	-0.3002	-0.3212	
-0.697596	0.754204	0.202276	3.43	-1.54	1.26	0.2219	-0.321	-0.3263	
-0.695766	0.751276	0.202398	1.96	-0.63	-0.42	0.2186	-0.3103	-0.3245	
-0.687226	0.754448	0.202032	-0.56	1.33	-2.8	0.2174	-0.3164	-0.3277	
-0.693204	0.753472	0.201422	-3.29	1.47	-4.97	0.2276	-0.3183	-0.3309	
-0.69784	0.756522	0.19642	-3.85	2.24	-6.86	0.2102	-0.3191	-0.3246	
-0.699304	0.75945	0.191052	-5.67	2.52	-8.89	0.2155	-0.307	-0.3166	
-0.71614	0.771894	0.198616	-11.2	5.88	-12.95	0.223	-0.3134	-0.3215	
-0.714188	0.782508	0.207278	-19.39	8.54	-17.43	0.2354	-0.2959	-0.3242	
-0.698694	0.765428	0.214842	-28.98	7.91	-19.32	0.2374	-0.3112	-0.3339	
-0.695644	0.755668	0.226066	-28.91	6.93	-21.63	0.2387	-0.3068	-0.3353	
-0.707356	0.72895	0.221674	-27.09	9.66	-25.41	0.2398	-0.2962	-0.3335	
-0.716872	0.72712	0.221064	-25.62	12.95	-29.89	0.2457	-0.2982	-0.3444	
-0.72346	0.714188	0.219234	-33.11	12.88	-33.81	0.2411	-0.2905	-0.3427	
-0.747494	0.69906	0.23363	-34.23	12.88	-38.08	0.2597	-0.2865	-0.3365	
-0.761524	0.697108	0.237534	-30.66	13.3	-43.19	0.2545	-0.2651	-0.3313	
-0.750666	0.686616	0.21777	-31.01	11.55	-47.46	0.2573	-0.2609	-0.3405	
-0.77287	0.650382	0.225578	-40.81	8.19	-50.47	0.2689	-0.2599	-0.3452	
-0.798856	0.627446	0.243268	-42.28	13.16	-56.35	0.2656	-0.2495	-0.3589	
-0.807152	0.605364	0.248026	-43.33	15.68	-61.04	0.2748	-0.2228	-0.3645	
-0.808372	0.598654	0.26657	-48.93	12.74	-64.54	0.2978	-0.2204	-0.3522	
-0.807884	0.558882	0.244366	-43.54	3.85	-64.68	0.2906	-0.2203	-0.3568	
-0.829966	0.54168	0.232044	-36.26	-0.63	-66.01	0.2938	-0.189	-0.37	
-0.850218	0.498126	0.249612	-56.56	3.15	-67.83	0.2997	-0.1922	-0.3701	
-0.867908	0.463722	0.28304	-57.75	-0.14	-68.46	0.3065	-0.1804	-0.3699	
-0.86498	0.436882	0.281576	-45.15	-3.57	-70	0.3058	-0.1608	-0.3726	
-0.859978	0.405284	0.275232	-39.55	-5.95	-70.98	0.3071	-0.1551	-0.3833	
-0.876326	0.380152	0.286944	-43.89	-6.23	-71.89	0.3121	-0.1342	-0.3828	
-0.858148	0.340624	0.293776	-36.12	-8.75	-71.47	0.3093	-0.137	-0.3813	
-0.878034	0.32391	0.277672	-41.65	-3.15	-72.66	0.3103	-0.1236	-0.3857	
-0.884622	0.281454	0.30012	-49.56	-7.49	-73.01	0.3181	-0.1011	-0.3775	
-0.890234	0.24949	0.30134	-46.97	-4.41	-73.64	0.3192	-0.0909	-0.3927	
-0.882548	0.218746	0.299876	-48.79	-5.88	-73.22	0.3185	-0.0712	-0.3892	
-0.903288	0.188856	0.309514	-51.45	-4.27	-72.1	0.3227	-0.0683	-0.3891	
-0.907802	0.158234	0.33062	-48.37	-5.81	-71.05	0.3208	-0.0534	-0.4012	
-0.9089	0.12139	0.325862	-36.61	-8.05	-68.46	0.3183	-0.0261	-0.3975	
-0.897798	0.09357399	0.309758	-31.85	-6.93	-66.92	0.3211	-0.0218	-0.4005	
-0.893528	0.05246	0.306342	-45.29	-3.15	-68.25	0.3151	-0.0155	-0.4019	
-0.897798	0.016348	0.313662	-51.1	0.84	-69.09	0.323	0.0039	-0.3937	
-0.913902	-0.012688	0.32025	-48.72	0	-68.11	0.3216	0.0037	-0.4045	
-0.91378	-0.0488	0.325862	-41.09	-1.19	-65.24	0.3249	0.0307	-0.4024	
-0.915488	-0.092232	0.330376	-36.68	-2.52	-62.09	0.3144	0.0406	-0.3851	
-0.91927	-0.131638	0.355386	-35.63	-5.95	-60.97	0.3086	0.042	-0.399	
-0.911096	-0.145424	0.37027	-24.36	-13.09	-58.45	0.3068	0.054	-0.4049	
-0.896944	-0.157502	0.375638	-19.04	-17.29	-57.68	0.3077	0.0677	-0.3984	
-0.880352	-0.185074	0.373686	-22.75	-18.76	-56.98	0.3106	0.0675	-0.4031	
-0.904752	-0.190564	0.37149	-21.28	-15.33	-55.58	0.3044	0.0797	-0.4059	
-0.870592	-0.202764	0.388936	-26.18	-20.58	-55.58	0.3028	0.0828	-0.4074	
-0.87779	-0.2318	0.384544	-21.49	-16.03	-53.2	0.2935	0.1025	-0.4177	
-0.877424	-0.245342	0.388082	-19.53	-11.27	-50.82	0.2777	0.09739999	-0.4007	
-0.86925	-0.268156	0.386008	-18.62	-10.22	-49	0.2874	0.109	-0.4083	
-0.862052	-0.270108	0.393694	-16.31	-7.77	-48.16	0.2782	0.1229	-0.4079	
-0.86803	-0.274378	0.396378	-13.65	-10.08	-47.11	0.2781	0.1261	-0.3985	
-0.861442	-0.295606	0.3965	-17.22	-13.93	-45.22	0.2774	0.1455	-0.4105	
-0.85522	-0.305854	0.40382	-18.34	-12.11	-43.47	0.273	0.1486	-0.4151	
-0.845704	-0.299998	0.41846	-14.56	-11.13	-43.96	0.2659	0.1444	-0.4105	
-0.846436	-0.31659	0.407602	-19.6	-11.55	-43.89	0.2643	0.1491	-0.4073	
-0.846192	-0.334524	0.40382	-23.45	-11.97	-43.33	0.2628	0.149	-0.4119	
-0.8357	-0.342332	0.413702	-25.9	-12.74	-42.49	0.2478	0.1661	-0.4192	
-0.842288	-0.365512	0.408578	-24.57	-13.23	-41.09	0.2477	0.1677	-0.4114	
-0.832772	-0.3782	0.400038	-21	-15.54	-38.29	0.2501	0.1812	-0.4112	
-0.81313	-0.39711	0.40321	-20.93	-14.84	-35.7	0.2386	0.1801	-0.4142	
-0.817766	-0.424682	0.394792	-21.98	-12.67	-32.83	0.2351	0.1941	-0.4015	
-0.812154	-0.4453	0.39711	-20.79	-12.32	-30.17	0.2352	0.1939	-0.4093	
-0.79849	-0.465186	0.401258	-18.76	-13.37	-27.16	0.2294	0.1926	-0.4108	
-0.789096	-0.469456	0.40016	-14.42	-14.63	-25.27	0.2231	0.2064	-0.412	
-0.779214	-0.475312	0.392962	-12.46	-14.63	-24.22	0.2171	0.2128	-0.4026	
-0.777384	-0.478972	0.391376	-12.74	-13.09	-23.31	0.2075	0.1995	-0.409	
-0.76433	-0.480436	0.40077	-13.58	-10.36	-22.19	0.2173	0.2082	-0.4089	
-0.768966	-0.498248	0.40321	-16.38	-9.59	-21.14	0.2038	0.2206	-0.4132	
-0.756034	-0.509716	0.404796	-15.68	-10.57	-20.02	0.2211	0.2216	-0.4086	
-0.746762	-0.512644	0.40199	-14.21	-11.41	-19.6	0.2095	0.2249	-0.4162	
-0.742614	-0.518378	0.403454	-15.96	-13.02	-19.46	0.2019	0.2316	-0.3975	
-0.745176	-0.523014	0.401868	-13.72	-11.69	-19.39	0.1946	0.2362	-0.4097	
-0.73505	-0.523014	0.41175	-13.72	-10.5	-19.46	0.196	0.2363	-0.4004	
-0.723582	-0.526552	0.41602	-14.77	-10.01	-19.32	0.1963	0.2285	-0.4115	
-0.726876	-0.533262	0.414434	-13.58	-10.85	-17.99	0.1769	0.2444	-0.4079	
-0.710406	-0.553636	0.410408	-15.19	-9.66	-17.99	0.1813	0.243	-0.3971	
-0.731634	-0.567056	0.411384	-16.1	-7.07	-17.08	0.1815	0.2383	-0.405	
-0.725412	-0.562298	0.413214	-9.73	-7.49	-16.17	0.1853	0.2533	-0.4016	
-0.71492	-0.573278	0.407846	-10.85	-8.19	-16.38	0.1694	0.2509	-0.4016	
-0.722606	-0.585844	0.4087	-13.58	-10.57	-16.94	0.1709	0.2522	-0.4062	
-0.723582	-0.604876	0.406382	-11.27	-10.99	-14.7	0.162	0.2571	-0.4045	
-0.708332	-0.61976	0.406382	-13.02	-8.47	-12.88	0.1705	0.2615	-0.3951	
-0.694546	-0.614148	0.414922	-7.14	-8.89	-11.06	0.1649	0.2556	-0.3983	
-0.693326	-0.610366	0.41114	-6.65	-9.03	-8.26	0.1629	0.2724	-0.3964	
-0.682224	-0.62586	0.406626	-9.59	-9.94	-5.11	0.1571	0.2713	-0.3871	
-0.684908	-0.637084	0.406382	-7.84	-8.96	-3.36	0.1501	0.2667	-0.3996	
-0.681736	-0.638182	0.4087	-3.78	-6.51	-1.61	0.1603	0.2647	-0.4043	
-0.670756	-0.641964	0.404796	-4.41	-4.62	0	0.1527	0.2728	-0.3933	
-0.669292	-0.64477	0.415166	-2.87	-3.01	2.03	0.1618	0.2633	-0.3997	
-0.679418	-0.644038	0.417606	-2.38	-2.87	4.2	0.1516	0.2635	-0.4059	
-0.676368	-0.655994	0.41846	-1.89	-0.91	6.37	0.1513	0.2712	-0.3979	
-0.660508	-0.651846	0.416264	2.17	-0.42	8.96	0.1563	0.2559	-0.4029	
-0.668682	-0.649406	0.41175	3.08	-2.52	10.71	0.1532	0.2593	-0.3905	
-0.686616	-0.653066	0.407724	3.64	0.49	12.81	0.1541	0.2742	-0.3963	
-0.676246	-0.650626	0.41053	6.86	3.22	15.33	0.1634	0.2587	-0.3998	
-0.672098	-0.657214	0.417118	6.93	3.15	18.48	0.1573	0.2664	-0.4043	
-0.68625	-0.6405	0.41724	13.16	3.15	21.91	0.1691	0.2602	-0.3889	
-0.691252	-0.642574	0.415654	13.02	5.25	25.34	0.1734	0.2615	-0.3936	
-0.702232	-0.63196	0.424682	15.19	10.92	28.63	0.1693	0.2554	-0.403	
-0.694546	-0.614636	0.431758	21.42	14.07	32.27	0.1693	0.2567	-0.4092	
-0.690642	-0.595116	0.422852	22.05	15.54	35.14	0.1752	0.2506	-0.4047	
-0.715286	-0.580232	0.413214	21.21	17.78	37.94	0.1854	0.2502	-0.4063	
-0.720166	-0.564372	0.413946	26.81	23.52	41.37	0.192	0.2274	-0.3991	
-0.747494	-0.548634	0.411994	28.28	27.86	45.85	0.2036	0.2241	-0.3914	
-0.75823	-0.529236	0.39406	30.59	29.75	50.47	0.2009	0.2209	-0.4085	
-0.768112	-0.497028	0.383934	36.4	31.01	53.69	0.2201	0.2111	-0.4073	
-0.80032	-0.470066	0.387716	40.88	35.91	57.19	0.2275	0.2048	-0.409	
-0.793976	-0.446276	0.419314	38.5	40.95	60.62	0.2294	0.1926	-0.4077	
-0.809836	-0.419314	0.410042	39.2	37.73	64.61	0.2428	0.1818	-0.3987	
-0.826184	-0.371734	0.396988	46.41	31.36	65.1	0.2503	0.1755	-0.3973	
-0.831796	-0.349164	0.37332	41.44	34.09	61.67	0.2625	0.1581	-0.4102	
-0.863394	-0.312076	0.373808	46.34	35.42	66.5	0.2614	0.1493	-0.4042	
-0.86315	-0.266326	0.353068	45.57	31.15	68.11	0.2767	0.1245	-0.4063	
-0.872666	-0.240096	0.343674	33.6	25.06	69.79	0.2805	0.138	-0.4014	
-0.88145	-0.213744	0.33916	27.16	21.42	70.77	0.29	0.1164	-0.4081	
-0.88816	-0.179584	0.32452	27.44	16.38	70.84	0.2859	0.1091	-0.4036	
-0.892552	-0.160308	0.326472	24.57	11.48	69.93	0.2933	0.106	-0.3975	
-0.898042	-0.133102	0.330376	29.26	10.36	70.28	0.304	0.0888	-0.4057	
-0.892186	-0.109556	0.332084	26.81	7.63	70.63	0.3031	0.0741	-0.389	
-0.908046	-0.072712	0.341234	26.11	6.86	69.44	0.3077	0.0662	-0.3953	
-0.925858	-0.042822	0.334524	28.56	6.16	68.18	0.3156	0.0494	-0.3942	
-0.92659	-0.021472	0.338184	28.84	4.62	68.04	0.3242	0.0493	-0.3849	
-0.924516	0.007442	0.33367	30.31	2.17	66.85	0.3104	0.0331	-0.3899	
-0.915732	0.047946	0.339038	32.41	-0.35	65.87	0.3132	0.0358	-0.3991	
-0.920368	0.081618	0.334768	30.73	-1.33	64.4	0.3187	0.004	-0.3937	
-0.913902	0.109312	0.333304	31.43	-2.8	63.42	0.3203	-0.0008	-0.4077	
-0.904386	0.133956	0.33855	32.13	-5.32	62.44	0.3147	-0.0065	-0.4032	
-0.906704	0.143838	0.331352	31.22	-3.85	61.81	0.3108	-0.0167	-0.3957	
-0.900238	0.167018	0.331474	29.4	-3.85	61.74	0.3127	-0.0318	-0.3929	
-0.89121	0.181536	0.338184	30.73	-5.32	61.39	0.3233	-0.0428	-0.3917	
-0.89243	0.211304	0.341966	36.47	-3.92	60.55	0.315	-0.0518	-0.4073	
-0.900604	0.23241	0.337818	34.37	-3.85	60.9	0.3195	-0.0592	-0.3905	
-0.881938	0.265838	0.362096	31.64	-6.58	60.76	0.3089	-0.0844	-0.3894	
-0.88694	0.280356	0.359046	34.65	-5.46	60.48	0.3089	-0.0844	-0.3894	
-0.87169	0.30134	0.35807	38.85	-6.16	59.57	0.3167	-0.1014	-0.3945	
-0.864126	0.325252	0.357216	36.19	-4.27	57.75	0.2925	-0.1096	-0.3992	
-0.855342	0.341356	0.352214	38.08	-2.94	55.65	0.3028	-0.116	-0.3963	
-0.857904	0.363926	0.34831	34.44	0.07	53.69	0.3046	-0.1249	-0.3857	
-0.857416	0.388448	0.358924	34.44	-2.59	51.73	0.3005	-0.1324	-0.3905	
-0.851072	0.426878	0.332206	40.6	-2.87	48.86	0.2839	-0.1542	-0.3847	
-0.852048	0.440176	0.324032	33.74	-2.87	46.34	0.2988	-0.1669	-0.3835	
-0.846558	0.45079	0.318054	32.06	-1.19	44.8	0.2861	-0.1754	-0.3821	
-0.829722	0.47214	0.31842	35.63	-3.08	43.26	0.2845	-0.1709	-0.3866	
-0.836066	0.494344	0.297314	37.66	-0.7	40.81	0.285	-0.1844	-0.3839	
-0.833504	0.508862	0.301096	30.45	-1.61	38.43	0.2676	-0.1821	-0.3775	
-0.828014	0.518378	0.317688	21.35	-0.84	36.61	0.2842	-0.2024	-0.3781	
-0.815326	0.517646	0.324398	25.62	-1.4	36.12	0.2798	-0.202	-0.3703	
-0.81191	0.528016	0.304024	38.01	-3.29	35	0.2845	-0.2098	-0.3705	
-0.80459	0.553392	0.279624	42.21	-3.01	33.95	0.2803	-0.214	-0.3644	
-0.79544	0.573034	0.27572	38.64	-1.96	31.99	0.2706	-0.2271	-0.3584	
-0.785924	0.586576	0.264496	35.77	-2.52	30.1	0.2635	-0.2314	-0.3616	
-0.784948	0.608902	0.244976	38.22	-2.52	27.79	0.2654	-0.2436	-0.3665	
-0.79117	0.621712	0.232776	38.08	-2.31	26.18	0.2585	-0.2508	-0.3589	
-0.79422	0.6222	0.23302	27.3	-2.94	24.29	0.2658	-0.2542	-0.3637	
-0.77775	0.621102	0.246928	18.69	-2.45	23.31	0.2587	-0.2582	-0.3529	
-0.767746	0.628056	0.253882	22.05	-7.28	23.1	0.2575	-0.2641	-0.3499	
-0.766892	0.637328	0.246928	28	-9.87	22.4	0.2471	-0.2576	-0.3482	
-0.751886	0.656726	0.244244	26.88	-10.92	21.98	0.2475	-0.2696	-0.3438	
-0.75274	0.672098	0.238876	23.1	-9.59	20.65	0.2464	-0.2787	-0.3455	
-0.738466	0.672464	0.239364	15.26	-10.71	21	0.2577	-0.2702	-0.3531	
-0.734318	0.684786	0.250344	12.6	-11.62	20.93	0.2465	-0.2816	-0.3441	
-0.731878	0.711748	0.253638	10.57	-9.17	19.95	0.2378	-0.2813	-0.344	
-0.723582	0.720532	0.250222	5.11	-9.87	19.46	0.2351	-0.2845	-0.3549	
-0.707966	0.716994	0.238022	4.13	-10.01	19.11	0.2321	-0.2826	-0.344	
-0.697108	0.718946	0.236314	4.13	-9.45	17.71	0.2309	-0.2886	-0.3442	
-0.704428	0.7442	0.241438	4.83	-5.46	14.84	0.2181	-0.2942	-0.3458	
-0.704428	0.745786	0.238022	1.68	-3.22	11.83	0.2308	-0.2872	-0.3472	
-0.698206	0.74725	0.242048	-0.98	-2.94	8.82	0.2286	-0.3049	-0.3368	
-0.703208	0.752008	0.248758	0.7	-2.8	5.46	0.2253	-0.2958	-0.3397	
-0.69601	0.747982	0.24339	1.68	-3.22	2.73	0.2165	-0.2896	-0.3472	
-0.696376	0.746274	0.242292	0.56	-1.96	-0.56	0.2237	-0.2912	-0.3396	
-0.702232	0.754692	0.243878	-4.55	1.61	-4.76	0.2181	-0.2929	-0.3551	
-0.698938	0.75823	0.25498	-9.73	1.12	-8.19	0.232	-0.2796	-0.344	
-0.702598	0.751642	0.2562	-7.56	-0.07	-11.06	0.2222	-0.2884	-0.3488	
-0.701988	0.76311	0.256444	-5.88	1.12	-14.98	0.2294	-0.2872	-0.3519	
-0.694302	0.770308	0.253638	-8.89	2.52	-19.88	0.2309	-0.2887	-0.3473	
-0.696376	0.770918	0.266692	-17.29	3.36	-24.57	0.2178	-0.2867	-0.3503	
-0.708576	0.76921	0.278648	-21.21	5.81	-29.4	0.2365	-0.2829	-0.3518	
-0.715408	0.751886	0.264618	-22.89	7.7	-34.16	0.2332	-0.2723	-0.3531	
-0.730536	0.740052	0.26962	-31.57	9.66	-39.62	0.2407	-0.2787	-0.3579	
-0.7381	0.718214	0.274988	-47.81	13.44	-45.57	0.2517	-0.2626	-0.3592	
-0.748592	0.693814	0.290726	-51.87	9.52	-50.54	0.253	-0.2598	-0.3684	
-0.765672	0.66185	0.305488	-55.23	10.57	-55.16	0.2565	-0.2358	-0.3694	
-0.77287	0.624884	0.322568	-58.1	10.01	-58.87	0.2693	-0.2304	-0.3755	
-0.777872	0.5917	0.311832	-50.61	6.37	-61.18	0.2647	-0.2212	-0.3769	
-0.780068	0.580964	0.28548	-44.45	5.46	-64.05	0.2714	-0.2077	-0.3673	
-0.808738	0.561688	0.294874	-49.77	7.35	-66.5	0.2839	-0.1934	-0.381	
-0.836066	0.520452	0.306586	-58.45	9.24	-68.6	0.2837	-0.1888	-0.3809	
-0.855342	0.480924	0.314882	-55.02	2.73	-69.65	0.2874	-0.1709	-0.3805	
-0.825452	0.445056	0.324642	-47.46	-4.62	-71.96	0.2842	-0.1619	-0.3911	
-0.809226	0.410042	0.297558	-48.23	1.61	-73.5	0.294	-0.1516	-0.3831	
-0.848754	0.379054	0.303536	-51.24	4.27	-74.34	0.3019	-0.131	-0.3936	
-0.846802	0.342454	0.294142	-46.34	3.43	-74.06	0.2938	-0.1052	-0.4007	
-0.86803	0.295484	0.292678	-52.78	6.37	-75.25	0.2953	-0.1083	-0.4023	
-0.8784	0.270596	0.304756	-47.88	0.14	-74.2	0.3092	-0.0936	-0.3943	
-0.890356	0.239852	0.311222	-38.64	-6.09	-72.94	0.3044	-0.08	-0.4017	
-0.895236	0.204472	0.30317	-40.81	-3.78	-73.01	0.3041	-0.0724	-0.4	
-0.911462	0.17263	0.323666	-36.96	-8.19	-73.08	0.3095	-0.0593	-0.4121	
-0.904874	0.149572	0.34282	-26.67	-14.21	-70.77	0.3072	-0.0364	-0.4023	
-0.900116	0.127246	0.345016	-24.01	-14.98	-70.35	0.3046	-0.0441	-0.4149	
-0.896334	0.100406	0.338794	-31.78	-8.82	-70.98	0.3038	-0.0229	-0.4128	
-0.912194	0.088084	0.338062	-42.35	-6.02	-70.98	0.3005	-0.0109	-0.4234	
-0.902312	0.035502	0.328302	-43.75	-5.18	-68.81	0.3015	0.0011	-0.4185	
-0.903288	0.005002	0.33733	-46.06	-9.17	-67.2	0.2999	0.0043	-0.4122	
-0.889746	-0.038308	0.35624	-45.22	-11.34	-64.47	0.3006	0.0255	-0.4071	
-0.878156	-0.070516	0.372222	-42.56	-11.13	-62.09	0.2917	0.0317	-0.4178	
-0.877912	-0.096868	0.375272	-40.25	-12.11	-60.62	0.2971	0.042	-0.4191	
-0.87901	-0.141642	0.371734	-37.87	-14.98	-57.47	0.2948	0.065	-0.4077	
-0.86742	-0.165798	0.38247	-32.83	-15.96	-54.53	0.2875	0.0681	-0.4138	
-0.87169	-0.179218	0.378444	-29.26	-14.56	-52.5	0.2799	0.0775	-0.4105	
-0.865346	-0.210084	0.394304	-34.16	-17.92	-52.01	0.2766	0.0883	-0.4087	
-0.863394	-0.244732	0.406382	-34.3	-14.14	-51.1	0.278	0.0894	-0.4211	
-0.86132	-0.265716	0.419558	-36.33	-15.19	-50.05	0.2614	0.1098	-0.4143	
-0.84302	-0.27328	0.433954	-26.53	-20.51	-48.86	0.2699	0.114	-0.4143	
-0.834724	-0.288042	0.425048	-23.1	-18.62	-47.6	0.255	0.1252	-0.4109	
-0.824476	-0.28853	0.435174	-24.08	-17.85	-47.39	0.2534	0.1311	-0.4231	
-0.825818	-0.307928	0.432246	-29.19	-17.92	-47.32	0.2433	0.1298	-0.4278	
-0.816668	-0.337696	0.452254	-34.93	-17.15	-46.97	0.2504	0.1342	-0.4231	
-0.823012	-0.369294	0.457622	-35.7	-14.77	-45.64	0.2468	0.1525	-0.4211	
-0.813496	-0.372466	0.45994	-30.59	-12.53	-44.52	0.2292	0.1594	-0.4131	
-0.805444	-0.380762	0.451156	-29.89	-11.13	-43.96	0.2305	0.1651	-0.4223	
-0.789462	-0.381738	0.447374	-24.85	-13.3	-42.21	0.2329	0.1758	-0.4128	
-0.783484	-0.396012	0.446764	-24.43	-12.04	-40.39	0.2272	0.1732	-0.4051	
-0.790316	-0.403698	0.447862	-21.21	-11.13	-38.43	0.2196	0.1853	-0.4156	
-0.784338	-0.414068	0.44286	-15.12	-9.66	-36.4	0.2136	0.1917	-0.4108	
-0.776774	-0.435296	0.44896	-19.04	-9.94	-35.21	0.2102	0.2053	-0.4136	
-0.784826	-0.4636	0.45262	-21.84	-7.98	-33.25	0.2161	0.2021	-0.4121	
-0.77043	-0.47885	0.458964	-18.97	-10.22	-31.71	0.2147	0.202	-0.4183	
-0.758108	-0.481412	0.450912	-14.14	-11.69	-31.64	0.1914	0.2045	-0.4166	
-0.746884	-0.490928	0.448106	-15.33	-14.35	-30.52	0.197	0.2088	-0.4134	
-0.732244	-0.48922	0.443714	-11.69	-15.89	-27.23	0.2026	0.2147	-0.4118	
-0.732122	-0.490074	0.441884	-12.46	-14.91	-24.57	0.1835	0.2228	-0.4177	
-0.716628	-0.507032	0.43493	-14.7	-13.09	-23.31	0.1982	0.2178	-0.4132	
-0.70272	-0.519598	0.443592	-17.71	-11.41	-21.7	0.1759	0.2323	-0.4128	
-0.70943	-0.537288	0.430172	-15.19	-10.43	-21.28	0.1804	0.2277	-0.4068	
-0.711016	-0.564494	0.450546	-16.24	-7.63	-21.14	0.1803	0.232	-0.416	
-0.717116	-0.550464	0.449692	-8.68	-6.09	-23.52	0.1644	0.2326	-0.4174	
-0.716018	-0.55083	0.456646	-9.8	-5.74	-21.84	0.164	0.2417	-0.4172	
-0.696864	-0.57523	0.45994	-18.34	-7.63	-19.18	0.1738	0.2505	-0.4124	
-0.697352	-0.582062	0.458964	-13.72	-8.26	-16.94	0.1568	0.2406	-0.411	
-0.694058	-0.601216	0.447252	-13.09	-9.03	-15.05	0.1706	0.2583	-0.406	
-0.679296	-0.60695	0.438346	-10.99	-8.12	-14.07	0.1579	0.2512	-0.4062	
-0.687226	-0.60817	0.43615	-9.03	-5.11	-13.02	0.158	0.2482	-0.4078	
-0.693936	-0.608536	0.43188	-9.94	-3.08	-10.92	0.1501	0.2679	-0.4135	
-0.690154	-0.620004	0.436028	-10.5	-2.03	-8.61	0.1562	0.2574	-0.3998	
-0.681858	-0.625616	0.433588	-7.07	-4.13	-6.02	0.1443	0.2682	-0.4135	
-0.686494	-0.61915	0.424316	-5.88	-4.2	-4.13	0.1402	0.2595	-0.4013	
-0.67649	-0.622688	0.428708	-4.55	-2.03	-2.24	0.1518	0.259	-0.406	
-0.674294	-0.63562	0.42883	-4.55	-1.54	0.14	0.1456	0.2698	-0.4057	
-0.680394	-0.629886	0.427	-1.68	0.28	1.82	0.1372	0.2627	-0.3996	
-0.673562	-0.625006	0.430782	-0.91	1.19	3.22	0.1573	0.2678	-0.4058	
-0.673318	-0.627934	0.429196	-0.7	-0.21	4.9	0.1458	0.2667	-0.4089	
-0.679906	-0.642574	0.436028	-2.52	1.54	7.07	0.1483	0.2743	-0.401	
-0.672708	-0.64843	0.44103	1.26	4.48	10.01	0.1502	0.2636	-0.4059	
-0.670146	-0.645502	0.445544	4.69	4.9	12.74	0.1477	0.2532	-0.3999	
-0.674782	-0.652456	0.430904	5.32	4.9	15.4	0.1531	0.2634	-0.409	
-0.692716	-0.631716	0.42578	10.08	7.98	17.57	0.1678	0.2568	-0.4092	
-0.692716	-0.616466	0.43127	10.85	13.02	20.3	0.1576	0.2602	-0.4106	
-0.687836	-0.617564	0.43859	10.99	13.02	24.78	0.1652	0.2494	-0.4062	
-0.701622	-0.612562	0.42761	14.84	12.18	29.33	0.1678	0.2542	-0.3906	
-0.701134	-0.594994	0.430416	21.7	16.94	32.76	0.1811	0.2501	-0.4187	
-0.700524	-0.574376	0.442128	24.29	20.79	35.21	0.1844	0.2381	-0.4096	
-0.724192	-0.5551	0.438224	25.2	23.87	38.08	0.1872	0.241	-0.4096	
-0.736758	-0.539118	0.44225	23.8	28.49	40.53	0.1845	0.2336	-0.4066	
-0.734196	-0.52033	0.442006	31.78	31.5	44.8	0.1933	0.2331	-0.4129	
-0.734928	-0.497882	0.427366	35.77	31.29	47.74	0.2111	0.2189	-0.4117	
-0.762866	-0.472506	0.404674	38.85	30.31	48.72	0.21	0.2086	-0.4026	
-0.827648	-0.429562	0.403942	42	37.38	49.35	0.2206	0.1961	-0.4045	
-0.798002	-0.396988	0.439688	30.94	39.48	50.4	0.2311	0.1864	-0.4125	
-0.814228	-0.384056	0.41846	29.75	35.56	55.09	0.2414	0.1829	-0.4204	
-0.815448	-0.353556	0.388936	39.83	26.6	56.14	0.2418	0.1696	-0.4067	
-0.850584	-0.322202	0.365878	38.08	31.43	53.48	0.2534	0.1692	-0.4052	
-0.882548	-0.299876	0.357948	36.89	32.97	52.22	0.2627	0.151	-0.3902	
-0.875594	-0.255956	0.366244	34.65	29.68	53.27	0.2744	0.1486	-0.412	
-0.867176	-0.23424	0.359534	28.42	23.59	54.04	0.2723	0.1263	-0.4016	
-0.879498	-0.224968	0.360754	24.92	22.4	52.64	0.2925	0.1285	-0.4032	
-0.8784	-0.20374	0.362706	31.01	21	52.78	0.2768	0.1202	-0.394	
-0.887062	-0.190076	0.354166	31.01	21.35	51.87	0.2972	0.1163	-0.4004	
-0.896334	-0.173728	0.358802	24.36	22.33	50.12	0.2993	0.0998	-0.393	
-0.891698	-0.145424	0.352946	28.63	22.61	48.86	0.2968	0.0879	-0.3902	
-0.909876	-0.125904	0.334768	31.71	24.08	48.3	0.3025	0.092	-0.4009	
-0.920002	-0.10919	0.324398	28.84	24.5	48.16	0.3147	0.072	-0.3952	
-0.930128	-0.085644	0.328302	28.28	22.19	47.67	0.3219	0.0747	-0.3968	
-0.933544	-0.06344	0.326594	26.53	20.65	46.76	0.324	0.0553	-0.3864	
-0.932812	-0.034648	0.320982	30.73	18.48	45.22	0.3136	0.0618	-0.3815	
-0.93513	0.003416	0.307562	35.14	16.66	43.54	0.3244	0.0432	-0.3866	
-0.940742	0.036234	0.294752	33.53	15.68	41.65	0.3244	0.0433	-0.382	
-0.954162	0.04087	0.281576	28.77	13.86	39.2	0.3306	0.0339	-0.3869	
-0.962458	0.05795	0.28365	28.91	11.34	37.17	0.3226	0.0147	-0.3811	
-0.957822	0.078568	0.276452	28.14	11.55	33.88	0.3295	0.0236	-0.3747	
-0.975634	0.097722	0.27755	22.54	9.94	31.08	0.3317	0.0023	-0.3798	
-0.990762	0.096746	0.27145	13.23	14.84	26.74	0.3389	0.0007	-0.3706	
-0.97783	0.100162	0.292556	-9.03	16.8	22.47	0.3435	-0.0054	-0.3738	
-0.990884	0.123464	0.297924	-6.37	7.28	18.76	0.3367	-0.0172	-0.3725	
-0.977464	0.141398	0.26047	-2.94	3.22	14.35	0.3438	-0.0129	-0.3694	
-0.97173	0.156892	0.277062	-13.23	0.7	10.5	0.3406	-0.0053	-0.3723	
-0.97356	0.153354	0.27816	-17.01	-1.33	8.12	0.345	-0.0055	-0.3738	
-0.974292	0.157014	0.259738	-12.32	-3.78	6.58	0.3364	-0.0096	-0.3693	
-0.954528	0.165676	0.259616	-17.99	-7.07	5.04	0.3462	-0.0008	-0.3629	
-0.964532	0.161772	0.270352	-23.45	-6.58	1.89	0.3491	-0.0009	-0.3629	
-0.974414	0.154574	0.283284	-28.56	-6.23	-0.63	0.3464	-0.0042	-0.3816	
-0.97234	0.157014	0.298412	-38.99	-5.46	-2.31	0.3347	0.0007	-0.3814	
-0.952454	0.145668	0.321958	-45.71	-7.84	-1.75	0.3391	-0.0023	-0.3769	
-0.931104	0.123708	0.327204	-39.83	-9.17	0.21	0.3444	0.0095	-0.3751	
-0.958188	0.117242	0.318176	-41.02	-9.1	3.01	0.3356	0.0143	-0.3765	
-0.961238	0.122366	0.315492	-42.84	-10.36	7.07	0.3268	0.0189	-0.3872	
-0.9577	0.115534	0.29585	-43.4	-11.27	10.5	0.3381	0.0246	-0.3855	
-0.9699	0.106018	0.290238	-48.79	-11.62	14	0.3366	0.0249	-0.3747	
-0.957822	0.096868	0.291946	-59.99	-7.77	16.1	0.3276	0.0342	-0.3791	
-0.954772	0.085034	0.303658	-63.28	-7.84	16.52	0.3377	0.0367	-0.3822	
-0.966972	0.07991	0.299388	-61.32	-7.28	18.2	0.3317	0.0415	-0.382	
-0.965874	0.085156	0.295484	-63.7	-6.58	19.88	0.3359	0.0458	-0.3851	
-0.98759	0.079422	0.293898	-66.08	-4.41	18.9	0.3271	0.0493	-0.3788	
-0.972096	0.055998	0.282064	-76.65	-3.64	21.35	0.3268	0.0566	-0.3879	
-0.9699	0.057218	0.297314	-82.39	-2.87	22.26	0.3249	0.0691	-0.3721	
-0.962824	0.042944	0.310612	-83.93	-2.73	24.15	0.341	0.0653	-0.38	
-0.962702	0.0122	0.306586	-80.92	-1.33	24.57	0.3277	0.0733	-0.3813	
-0.967094	-0.001952	0.304146	-77.98	2.87	23.8	0.3273	0.0825	-0.3749	
-0.967826	-0.016836	0.302682	-74.41	1.4	24.43	0.3268	0.0947	-0.37	
-0.961604	-0.031842	0.310612	-73.64	0.63	23.31	0.3281	0.0994	-0.3621	
-0.970388	-0.013298	0.296704	-64.89	-1.61	22.82	0.3323	0.1038	-0.3605	
-0.96929	-0.035136	0.286944	-63.49	-1.68	23.31	0.3454	0.1017	-0.3652	
-0.960384	-0.042456	0.309514	-65.73	1.75	22.19	0.3396	0.1006	-0.3544	
-0.965264	-0.044652	0.312564	-57.82	-3.22	20.79	0.3406	0.1125	-0.3603	
-0.966362	-0.022448	0.304268	-49	-2.52	18.9	0.3288	0.1192	-0.3508	
-0.975634	-0.00183	0.30256	-52.85	-3.22	17.43	0.345	0.1095	-0.3527	
-0.977952	0.006344	0.325252	-55.44	-3.78	18.2	0.3358	0.1248	-0.3569	
-0.95038	-0.004758	0.33611	-54.39	-10.29	20.51	0.3359	0.1219	-0.3555	
-0.925858	-0.00305	0.328058	-44.73	-6.23	21	0.3357	0.128	-0.3522	
-0.943182	-0.001098	0.321348	-50.05	-1.12	19.88	0.3414	0.1307	-0.3537	
-0.949404	-0.00671	0.326716	-55.09	1.54	18.69	0.3297	0.1315	-0.3397	
-0.939156	-0.015372	0.339404	-52.92	2.59	18.06	0.3438	0.1442	-0.355	
-0.95404	-0.022814	0.33123	-50.61	3.57	17.29	0.3424	0.1401	-0.3365	
-0.952332	-0.02135	0.334036	-53.55	4.97	17.92	0.3495	0.143	-0.3302	
-0.948672	-0.038796	0.328424	-49.28	4.41	17.85	0.3402	0.16	-0.3267	
-0.959896	-0.029402	0.324398	-44.03	6.02	17.57	0.3364	0.1451	-0.3255	
-0.964532	-0.036478	0.328424	-46.69	5.39	16.1	0.3492	0.1523	-0.3207	
-0.964166	-0.02379	0.340746	-44.24	2.94	15.05	0.342	0.1494	-0.3254	
-0.951844	-0.014518	0.33184	-36.68	2.03	15.96	0.3508	0.1464	-0.3131	
-0.951356	-0.007076	0.316712	-31.5	1.89	16.45	0.3518	0.1582	-0.3191	
-0.956968	-0.004148	0.32025	-31.15	2.03	16.66	0.3517	0.1613	-0.319	
-0.958798	0.007564	0.31903	-28.77	1.47	15.68	0.3502	0.1614	-0.3143	
-0.964898	0.02745	0.32391	-25.76	0.7	14.91	0.3475	0.1557	-0.3036	
-0.960384	0.023912	0.32452	-22.68	-1.4	15.26	0.3503	0.1586	-0.3051	
-0.970388	0.022936	0.318298	-22.54	0.07	15.26	0.3574	0.1614	-0.3035	
-0.959774	0.023058	0.320372	-23.1	1.54	15.82	0.3575	0.1613	-0.3097	
-0.956602	0.009881999	0.328912	-24.85	1.68	16.24	0.3587	0.1671	-0.3142	
-0.94977	0.016592	0.335256	-23.03	2.87	15.75	0.3574	0.1615	-0.3004	
-0.946842	0.028914	0.327082	-19.95	2.03	14.07	0.358	0.1477	-0.3069	
-0.941962	0.032574	0.322934	-21.07	3.57	10.57	0.3501	0.1633	-0.2988	
-0.956724	0.030988	0.317078	-17.71	2.73	8.12	0.3691	0.1592	-0.3129	
-0.954772	0.020984	0.325862	-17.57	1.33	6.86	0.3615	0.1674	-0.2956	
-0.95465	0.016592	0.335622	-13.65	1.33	5.81	0.3704	0.1611	-0.2943	
-0.948306	0.020496	0.3294	-8.19	2.1	4.55	0.3659	0.1671	-0.305	
-0.952576	0.018544	0.317688	-6.51	1.12	3.08	0.359	0.1585	-0.2958	
-0.951356	0.02013	0.319884	-5.18	1.47	1.54	0.3599	0.172	-0.2986	
-0.95465	0.012566	0.31659	-1.47	1.82	-0.42	0.36	0.1705	-0.2956	
-0.954894	0.022204	0.318664	0.63	1.47	-1.68	0.3689	0.1627	-0.2911	
-0.962092	0.026352	0.312686	2.52	2.31	-2.45	0.3716	0.1672	-0.291	
-0.969656	-0.001342	0.320494	1.75	2.24	-2.31	0.3644	0.1689	-0.2925	
-0.96441	0.004758	0.318176	9.45	0.84	-3.5	0.3627	0.1748	-0.3017	
-0.96075	0.006344	0.307562	12.25	1.68	-4.97	0.3646	0.1614	-0.2927	
-0.963068	-0.017568	0.302438	13.93	2.45	-5.95	0.3617	0.1643	-0.3019	
-0.962824	-0.040504	0.30622	17.36	3.01	-7.42	0.3647	0.1597	-0.2989	
-0.97478	-0.04514	0.303536	25.34	3.43	-8.47	0.3659	0.1659	-0.2879	
-0.975268	-0.052094	0.300486	32.9	2.24	-8.54	0.3631	0.1642	-0.3035	
-0.983076	-0.059048	0.307684	40.25	1.82	-9.17	0.3631	0.1642	-0.305	
-0.987834	-0.068808	0.282308	53.13	1.05	-9.45	0.3631	0.1656	-0.3065	
-0.975512	-0.047214	0.279258	62.37	-1.33	-10.99	0.3593	0.1493	-0.3022	
-0.971608	-0.039528	0.292068	66.22	-4.34	-12.95	0.3752	0.1515	-0.31	
-0.977708	-0.03904	0.294874	75.6	-6.93	-14.91	0.3592	0.1522	-0.3053	
-0.961726	-0.014762	0.28548	91.49	-10.5	-18.13	0.3509	0.1433	-0.3147	
-0.956846	0.005856	0.284138	92.33	-12.32	-23.52	0.3512	0.1371	-0.3226	
-0.965996	0.006466	0.280356	94.29	-8.4	-26.46	0.3543	0.1307	-0.3321	
-0.971974	0.028792	0.260104	105.56	-2.73	-29.26	0.3577	0.1184	-0.3386	
-0.970388	0.046482	0.25498	98.98	-2.52	-29.82	0.3609	0.1106	-0.3434	
-1.001864	0.040504	0.274012	86.66	-12.18	-29.82	0.3426	0.0977	-0.3452	
-0.987712	0.024034	0.274134	92.75	-13.65	-31.15	0.3465	0.108	-0.3481	
-0.9882	0.07137	0.27389	102.9	-13.72	-32.48	0.34	0.0884	-0.3593	
-0.969412	0.095038	0.258884	100.52	-16.59	-35.35	0.3419	0.0777	-0.3627	
-0.951234	0.108702	0.272182	89.67	-17.43	-36.61	0.3375	0.0808	-0.3688	
-0.940986	0.10919	0.299632	78.54	-14.98	-37.59	0.3361	0.0794	-0.3673	
-0.942938	0.083326	0.310612	79.38	-13.02	-36.61	0.3307	0.06879999	-0.3752	
-0.937448	0.074054	0.328302	78.82	-11.97	-35.21	0.3236	0.0659	-0.383	
-0.935862	0.067832	0.338184	81.76	-13.72	-33.6	0.3279	0.0674	-0.3752	
-0.934276	0.081496	0.348554	88.34	-13.37	-32.34	0.3268	0.0568	-0.3786	
-0.95953	0.079422	0.340136	90.72	-7.28	-31.01	0.3232	0.0386	-0.3914	
-0.957456	0.075884	0.34587	86.87	-8.19	-30.38	0.3259	0.0445	-0.3944	
-0.973438	0.077348	0.33977	89.32	-10.71	-27.37	0.325	0.0266	-0.3839	
-0.94245	0.09272	0.33428	89.95	-15.4	-24.92	0.3321	0.0336	-0.3977	
-0.947818	0.110532	0.322934	83.16	-13.37	-25.48	0.3266	0.0233	-0.3948	
-0.953308	0.119438	0.338062	70.49	-13.02	-24.57	0.3141	0.0101	-0.4013	
-0.928176	0.109068	0.36722	61.74	-9.94	-23.03	0.3073	-0.0017	-0.4031	
-0.92903	0.112362	0.363926	64.75	-8.4	-22.82	0.3188	0.0009	-0.3984	
-0.931714	0.117852	0.343918	65.38	-4.76	-22.61	0.3173	0.0024	-0.3999	
-0.934276	0.119316	0.340868	48.58	-1.82	-23.73	0.3203	-0.002	-0.3954	
-0.931836	0.108336	0.349408	32.41	-1.89	-26.25	0.3149	-0.0095	-0.4033	
-0.92781	0.094184	0.367464	24.78	2.17	-28.7	0.3047	-0.0076	-0.4032	
-0.929518	0.088328	0.36966	27.16	3.57	-29.4	0.3161	-0.0034	-0.3969	
-0.936838	0.082838	0.368318	31.29	4.48	-29.75	0.3105	-0.0092	-0.3971	
-0.934032	0.045262	0.358924	33.74	2.45	-27.51	0.3208	-0.0156	-0.3941	
-0.95282	0.022326	0.36112	34.72	4.55	-25.83	0.3095	-0.0227	-0.3943	
-0.962336	0.006344	0.352458	39.9	7.21	-24.85	0.3134	-0.0095	-0.4048	
-0.968314	-0.004758	0.344772	42.07	8.12	-25.2	0.3234	-0.0053	-0.4017	
-0.96197	-0.013176	0.344528	44.59	5.39	-25.76	0.3225	-0.0216	-0.3912	
-0.964288	-0.018666	0.342698	44.45	6.3	-26.39	0.3227	-0.0279	-0.4006	
-0.954894	-0.02257	0.338672	50.75	3.71	-26.46	0.3197	-0.0246	-0.3959	
-0.960506	-0.026962	0.334646	65.59	0	-26.46	0.3171	-0.0306	-0.3976	
-0.965508	-0.01769	0.324154	73.64	1.54	-26.67	0.3199	-0.0305	-0.3883	
-0.949526	-0.003538	0.327814	83.72	-2.03	-27.02	0.3306	-0.0459	-0.384	
-0.950258	0.003904	0.334768	84.21	-0.7	-27.79	0.3207	-0.0532	-0.3888	
-0.954406	0.005612	0.317932	86.66	4.48	-27.58	0.3268	-0.0595	-0.3936	
-0.953308	0.01403	0.315492	88.48	6.86	-28.7	0.3255	-0.0654	-0.3891	
-0.966118	0.03294	0.321836	83.72	6.3	-28.84	0.3317	-0.0761	-0.3831	
-0.950502	0.05551	0.335134	78.47	4.34	-28.84	0.3272	-0.0728	-0.3799	
-0.954162	0.069174	0.335012	80.92	3.29	-27.58	0.335	-0.0896	-0.3757	
-0.941108	0.074542	0.331962	78.68	3.22	-25.41	0.3406	-0.0851	-0.3663	
-0.9516	0.084058	0.325496	77.49	6.3	-23.94	0.3322	-0.0909	-0.368	
-0.961116	0.076372	0.315614	76.51	8.47	-22.47	0.3372	-0.1106	-0.3653	
-0.96319	0.067222	0.31781	69.16	7.7	-21.98	0.3429	-0.1077	-0.3622	
-0.972706	0.060512	0.31964	70.7	6.86	-22.47	0.3449	-0.1244	-0.3641	
-0.96624	0.051728	0.302682	71.33	8.33	-24.15	0.3389	-0.1166	-0.3624	
-0.96624	0.07686	0.300974	66.5	5.39	-24.78	0.3305	-0.1266	-0.3502	
-0.976366	0.08052	0.282186	62.23	5.11	-25.2	0.3512	-0.1379	-0.3474	
-0.966728	0.083082	0.27938	55.23	3.08	-24.22	0.346	-0.1149	-0.3391	
-0.964044	0.081862	0.297314	45.43	-0.35	-24.15	0.3448	-0.1227	-0.3517	
-0.970998	0.049898	0.308538	38.85	0.49	-24.71	0.3539	-0.132	-0.3504	
-0.968436	0.049166	0.329644	37.87	-0.14	-25.41	0.3424	-0.1374	-0.3396	
-0.981612	0.05002	0.332694	43.68	2.17	-24.15	0.3438	-0.1358	-0.3349	
-0.968192	0.04575	0.323422	53.69	1.26	-21.56	0.3422	-0.1299	-0.3441	
-0.94489	0.05795	0.34038	49.49	0.63	-20.65	0.3454	-0.1388	-0.3319	
-0.952454	0.051606	0.336964	48.58	-0.07	-20.44	0.3479	-0.1299	-0.3348	
-0.948794	0.051972	0.318054	48.02	2.17	-20.16	0.3496	-0.1372	-0.3195	
-0.939156	0.049776	0.322934	37.8	2.73	-20.02	0.3498	-0.1434	-0.3258	
-0.96868	0.009393999	0.31781	29.96	5.32	-19.46	0.3557	-0.1437	-0.329	
-0.962458	0.007686	0.32757	32.34	4.27	-19.25	0.3586	-0.1451	-0.3182	
-0.958798	0.021716	0.317322	40.25	0.77	-19.74	0.3558	-0.1482	-0.326	
-0.95221	0.033916	0.316834	34.86	1.54	-19.04	0.3557	-0.1449	-0.3166	
-0.949404	0.043798	0.322202	28.21	1.26	-17.78	0.3641	-0.1392	-0.3165	
-0.950502	0.044286	0.327326	23.03	0.49	-15.4	0.3645	-0.1483	-0.3167	
-0.960018	0.05856	0.317566	23.38	0.35	-11.83	0.3715	-0.1437	-0.3027	
-0.962458	0.058926	0.312442	15.75	-0.28	-8.47	0.3717	-0.1486	-0.3198	
-0.940254	0.028792	0.333304	0.56	-2.8	-6.23	0.3656	-0.1405	-0.3057	
-0.945134	0.023546	0.347944	1.75	-0.84	-4.41	0.3609	-0.1299	-0.3101	
-0.930372	0.013664	0.333426	3.08	-1.47	-3.43	0.3598	-0.1389	-0.3118	
-0.950746	-0.003904	0.318054	-2.17	0.49	-1.82	0.3698	-0.1365	-0.3226	
-0.952698	0.002562	0.326594	-8.54	0.98	-0.42	0.36	-0.1464	-0.3073	
-0.957944	-0.00122	0.32208	-4.27	-1.4	2.66	0.366	-0.1513	-0.3121	
-0.94855	0.005246	0.339526	-9.94	-1.47	4.06	0.3571	-0.1464	-0.3104	
-0.944768	0.00671	0.334158	-6.93	-1.19	6.23	0.3644	-0.1482	-0.3136	
-0.965508	0.02684	0.317688	-4.55	0.7	7.07	0.3717	-0.15	-0.3152	
-0.962092	0.028548	0.320006	-13.72	-1.47	7.77	0.3674	-0.1512	-0.3075	
-0.970144	0.03172	0.330498	-16.8	-1.89	8.82	0.3629	-0.1453	-0.3213	
-0.950746	0.050874	0.332816	-17.29	-3.5	9.45	0.3671	-0.1423	-0.3166	
-0.93818	0.05978	0.3294	-21.21	-3.92	10.43	0.3545	-0.1525	-0.3183	
-0.925736	0.061976	0.330376	-24.15	-3.01	11.83	0.3703	-0.1485	-0.3183	
-0.947208	0.075396	0.32635	-28.14	0.21	11.9	0.3553	-0.1358	-0.3148	
-0.960384	0.071492	0.297924	-25.9	-0.14	12.67	0.3441	-0.1461	-0.3197	
-0.970388	0.06771	0.28121	-39.34	0.63	14.35	0.3628	-0.1423	-0.3243	
-0.982832	0.086132	0.296216	-52.78	0.42	14.7	0.3659	-0.1485	-0.326	
-0.978562	0.101748	0.31415	-59.64	0.98	16.31	0.3632	-0.1515	-0.3292	
-0.98393	0.099918	0.310734	-63.77	1.96	17.64	0.3624	-0.1304	-0.3318	
-0.988566	0.098698	0.298168	-69.44	0.56	17.71	0.3551	-0.1271	-0.3301	
-0.971486	0.087474	0.271572	-76.3	-2.59	19.46	0.3536	-0.1256	-0.3332	
-0.96868	0.052948	0.249734	-89.46	-6.58	22.12	0.3566	-0.1289	-0.3395	
-0.973438	0.043554	0.272548	-105	-8.33	26.11	0.3501	-0.109	-0.3406	
-0.93696	0.016226	0.29646	-113.89	-9.94	29.05	0.3532	-0.114	-0.3531	
-0.973316	0.004392	0.285968	-103.39	-6.37	31.08	0.3499	-0.1017	-0.3497	
-0.985882	-0.01647	0.24278	-99.54	-10.99	34.02	0.348	-0.09119999	-0.3572	
-0.955992	-0.051362	0.271328	-102.48	-24.22	38.78	0.3464	-0.0854	-0.3679	
-0.969534	-0.031232	0.30683	-99.82	-23.38	40.46	0.3356	-0.0654	-0.3721	
-0.99308	-0.015128	0.295118	-106.19	-15.89	39.62	0.3311	-0.0595	-0.3828	
-0.980392	-0.018666	0.293288	-119.7	-18.13	38.15	0.3289	-0.0412	-0.3792	
-0.95343	-0.065514	0.300242	-119.84	-22.68	39.48	0.3221	-0.049	-0.4011	
-0.941108	-0.05185	0.32879	-99.4	-28.84	38.36	0.3247	-0.0428	-0.3901	
-0.96197	-0.026108	0.31842	-96.46	-21.98	34.86	0.3243	-0.0322	-0.3914	
-0.957822	-0.026718	0.306708	-101.29	-17.78	32.48	0.3161	-0.005	-0.4032	
-0.948306	-0.04758	0.329522	-114.52	-18.41	31.57	0.3104	-0.0065	-0.4094	
-0.929274	-0.08906	0.358192	-106.89	-21	33.46	0.3136	-0.0154	-0.4003	
-0.917928	-0.0854	0.386374	-85.12	-19.04	32.48	0.3071	0.0041	-0.4091	
-0.946476	-0.076494	0.370514	-73.01	-13.44	30.87	0.3012	0.0075	-0.4028	
-0.949282	-0.080764	0.343674	-75.04	-8.26	27.65	0.3093	0.0252	-0.4087	
-0.946598	-0.066124	0.362096	-70.84	-8.61	24.57	0.3062	0.0312	-0.4132	
-0.950624	-0.057828	0.357338	-69.09	-3.64	25.34	0.2933	0.0258	-0.4071	
-0.938668	-0.072102	0.337818	-66.01	-2.87	24.92	0.3105	0.0325	-0.4178	
-0.907924	-0.039772	0.338062	-59.36	5.53	23.52	0.2926	0.0457	-0.3958	
-0.949526	-0.051118	0.341112	-75.74	4.83	21	0.3014	0.0421	-0.4083	
-0.955016	-0.040748	0.370636	-70.35	7.14	21.35	0.3023	0.0574	-0.3955	
-0.96807	-0.056974	0.362462	-69.65	0.35	22.4	0.317	0.0507	-0.4019	
-0.942084	-0.056242	0.352824	-64.33	-4.06	23.87	0.3003	0.0712	-0.3875	
-0.937814	-0.054412	0.363316	-69.93	-5.81	24.43	0.2992	0.062	-0.3954	
-0.945622	-0.06466	0.373686	-65.31	-6.58	26.11	0.3046	0.07099999	-0.3906	
-0.961238	-0.071492	0.36112	-62.02	-7.28	27.72	0.3003	0.0726	-0.3952	
-0.945988	-0.056364	0.360632	-58.59	-8.96	29.33	0.3068	0.0904	-0.3964	
-0.934154	-0.039772	0.373076	-58.17	-9.73	30.87	0.3056	0.0859	-0.3964	
-0.951478	-0.040626	0.37149	-56	-8.96	33.11	0.3025	0.0907	-0.3917	
-0.948184	-0.029524	0.35624	-51.73	-5.88	35.91	0.3038	0.0935	-0.3963	
-0.93452	-0.030134	0.35075	-58.31	-4.83	37.03	0.3006	0.1015	-0.3837	
-0.943182	-0.013542	0.36783	-64.96	-1.12	37.8	0.3094	0.0981	-0.3822	
-0.943426	-0.013908	0.369416	-68.46	-0.98	38.92	0.3079	0.09959999	-0.3868	
-0.947818	-0.013664	0.36844	-74.55	-0.91	40.11	0.3076	0.1085	-0.3928	
-0.922686	-0.033306	0.376492	-79.87	-0.98	40.39	0.3076	0.1086	-0.3882	
-0.932568	-0.052826	0.38979	-78.47	-2.1	38.71	0.3103	0.1147	-0.3834	
-0.937936	-0.055998	0.379664	-66.99	-2.66	36.89	0.3228	0.128	-0.3754	
-0.922686	-0.05185	0.37759	-66.43	-6.3	36.19	0.3085	0.1224	-0.3801	
-0.916586	-0.051362	0.377712	-63	-1.68	35.56	0.3127	0.1254	-0.3723	
-0.926102	-0.06222	0.374296	-68.18	2.38	33.46	0.3212	0.1311	-0.3722	
-0.93147	-0.04697	0.382592	-67.69	4.2	29.96	0.3077	0.1436	-0.375	
-0.941474	-0.027938	0.376126	-66.36	5.74	26.46	0.3249	0.1464	-0.3564	
-0.949282	-0.04026	0.371856	-62.51	3.57	24.29	0.3192	0.1437	-0.3534	
-0.943426	-0.022936	0.369294	-57.05	4.69	24.08	0.3248	0.1509	-0.3594	
-0.928786	-0.023546	0.36783	-56.35	3.29	22.89	0.3319	0.1521	-0.3579	
-0.94611	-0.038796	0.35746	-57.26	5.81	23.8	0.3233	0.1496	-0.3517	
-0.94123	-0.028914	0.34953	-52.92	7.14	23.24	0.3336	0.1434	-0.341	
-0.942938	-0.03721	0.338306	-55.23	10.08	21.98	0.3346	0.1571	-0.3345	
-0.943914	-0.052338	0.344528	-55.93	8.19	22.05	0.3401	0.1642	-0.3437	
-0.953186	-0.04453	0.332694	-48.09	8.05	21.14	0.3342	0.1678	-0.3281	
-0.955016	-0.04636	0.3355	-45.22	7.07	20.3	0.3412	0.1721	-0.3249	
-0.948184	-0.027328	0.340502	-42.77	6.86	19.04	0.3371	0.1661	-0.3297	
-0.94977	-0.018544	0.336232	-39.76	6.09	18.2	0.3414	0.1676	-0.3235	
-0.962336	-0.016592	0.327448	-37.8	6.44	18.13	0.3321	0.1832	-0.3153	
-0.940132	-0.012322	0.337208	-37.1	4.69	18.13	0.3441	0.1722	-0.3172	
-0.955504	-0.008296	0.335988	-38.78	6.51	18.2	0.3438	0.1812	-0.3201	
-0.957456	-0.009393999	0.328302	-36.4	5.53	18.2	0.3529	0.1676	-0.3018	
-0.971364	-0.01281	0.323666	-32.9	7.21	17.71	0.3526	0.1766	-0.3078	
-0.967582	-0.008174	0.319152	-31.22	5.81	17.36	0.3553	0.1795	-0.3046	
-0.959164	0.002196	0.321592	-34.65	6.44	16.1	0.3449	0.1862	-0.2952	
-0.95709	-0.017812	0.338428	-31.36	5.46	15.26	0.3521	0.1874	-0.2967	
-0.954894	-0.016226	0.341112	-27.72	4.48	13.58	0.3569	0.1764	-0.3063	
-0.937082	-0.022204	0.333914	-21.98	2.31	13.16	0.3638	0.1853	-0.3045	
-0.953918	-0.015128	0.324764	-20.58	4.83	11.34	0.3579	0.1887	-0.2952	
-0.954406	-0.034526	0.324886	-17.71	4.06	9.94	0.3639	0.1798	-0.2783	
-0.954894	-0.03721	0.331352	-12.39	3.43	9.24	0.3579	0.1859	-0.2859	
-0.942572	-0.013176	0.333426	-9.1	2.1	7.7	0.3666	0.1857	-0.2798	
-0.936106	-0.015982	0.332206	-6.65	1.54	7.07	0.3567	0.18	-0.2814	
-0.958798	-0.008052	0.328546	-2.59	3.08	5.39	0.3627	0.1736	-0.2878	
-0.946354	0.005612	0.333792	0	1.61	3.64	0.3683	0.1796	-0.2814	
-0.943304	0.019642	0.3294	2.73	1.26	2.45	0.3642	0.1735	-0.2909	
-0.952698	0.021472	0.320982	3.64	1.89	1.4	0.3668	0.1809	-0.2907	
-0.956846	0.025498	0.304512	4.27	1.96	-0.42	0.3638	0.1827	-0.2845	
-0.953064	0.027328	0.318176	2.59	1.96	-2.03	0.3699	0.1763	-0.2877	
-0.966606	0.001464	0.315736	5.67	2.24	-2.24	0.364	0.1796	-0.2892	
-0.968924	-0.000122	0.30988	7.98	2.45	-3.57	0.3596	0.1772	-0.2675	
-0.963556	-0.007929999	0.311466	9.87	1.61	-4.76	0.3597	0.1782	-0.2876	
-0.955138	-0.02623	0.30866	15.26	2.17	-5.6	0.3657	0.1719	-0.2909	
-0.954772	-0.022326	0.299998	21	2.1	-7.35	0.3584	0.1723	-0.2862	
-0.966728	-0.04148	0.292068	23.38	1.82	-8.96	0.3578	0.1876	-0.2766	
-0.94977	-0.040626	0.278404	30.59	-0.28	-9.38	0.3642	0.1734	-0.2955	
-0.960018	-0.031842	0.281698	32.76	-0.98	-9.59	0.3598	0.1749	-0.3001	
-0.984296	-0.040382	0.270474	40.53	-2.1	-8.96	0.3589	0.1615	-0.2958	
-0.994056	-0.038308	0.27328	49.07	-4.2	-9.03	0.3613	0.1748	-0.3048	
-1.004548	-0.062708	0.285846	54.04	-7.63	-9.17	0.3546	0.1614	-0.3081	
-0.967094	-0.083204	0.304756	60.41	-11.06	-10.64	0.3646	0.1627	-0.2989	
-0.954894	-0.073688	0.304878	76.3	-13.09	-15.96	0.3504	0.1568	-0.3175	
-0.964654	-0.06344	0.288652	83.93	-13.65	-20.44	0.3419	0.1541	-0.3176	
-0.987346	-0.054046	0.286456	91.56	-15.96	-23.45	0.3508	0.1462	-0.3209	
-0.983442	-0.029768	0.30195	99.75	-19.18	-27.37	0.3484	0.1338	-0.3382	
-0.970876	0.005368	0.30012	122.22	-18.48	-33.11	0.3612	0.1409	-0.3381	
-0.96197	0.038674	0.271328	126	-15.61	-38.57	0.3347	0.1146	-0.3432	
-0.968558	0.043432	0.273036	112.77	-13.51	-43.47	0.3375	0.1175	-0.3447	
-1.002718	0.050874	0.297924	103.11	-12.46	-45.5	0.3308	0.104	-0.3527	
-1.001986	0.053436	0.318054	113.19	-19.46	-46.48	0.319	0.1102	-0.3681	
-0.989542	0.04636	0.313296	120.96	-25.97	-45.92	0.3208	0.1038	-0.3791	
-0.951966	0.077714	0.326472	130.41	-29.82	-48.58	0.3211	0.0933	-0.3762	
-0.931592	0.077226	0.319152	122.99	-27.65	-51.17	0.326	0.0794	-0.3827	
-0.908778	0.090646	0.349042	114.66	-30.87	-53.76	0.3162	0.0722	-0.3859	
-0.92049	0.073932	0.362096	107.87	-23.8	-55.58	0.3104	0.0708	-0.3906	
-0.915854	0.073444	0.383324	106.75	-19.95	-54.88	0.3035	0.0634	-0.3938	
-0.926834	0.0732	0.392108	107.1	-16.1	-52.57	0.2968	0.0499	-0.405	
-0.913292	0.068442	0.3904	105.91	-17.01	-50.4	0.3088	0.0388	-0.4068	
-0.915366	0.09333	0.406626	105.77	-14.21	-48.44	0.289	0.0273	-0.4179	
-0.913902	0.084424	0.39772	103.25	-14.49	-44.59	0.3066	0.0207	-0.4119	
-0.915244	0.072956	0.383812	100.38	-12.11	-42.35	0.2981	0.0135	-0.412	
-0.913658	0.045506	0.37332	94.57	-7.7	-39.83	0.2941	0.0073	-0.4245	
-0.909876	0.028914	0.399672	83.93	-7.84	-39.48	0.2843	-0.0013	-0.4262	
-0.921954	0.05368	0.41053	90.79	-5.46	-38.92	0.2932	-0.009099999	-0.4202	
-0.921344	0.061488	0.395158	95.27	-3.85	-38.36	0.2933	-0.0107	-0.428	
-0.930616	0.049044	0.386008	87.5	-1.47	-36.4	0.288	-0.024	-0.4236	
-0.925736	0.050874	0.391132	72.52	-4.34	-35.7	0.2878	-0.0208	-0.4158	
-0.93635	0.031598	0.406016	68.11	-4.9	-36.05	0.2839	-0.0328	-0.4161	
-0.943182	0.043066	0.411994	73.57	-2.94	-37.38	0.2955	-0.0333	-0.4208	
-0.940986	0.067588	0.412238	73.08	-0.91	-40.39	0.2962	-0.0514	-0.4212	
-0.934276	0.057096	0.403576	75.53	-2.73	-40.88	0.2902	-0.0466	-0.418	
-0.928176	0.057828	0.40931	83.09	-2.73	-41.02	0.2962	-0.0515	-0.4227	
-0.93574	0.050386	0.393694	81.34	3.01	-43.4	0.2941	-0.0736	-0.4046	
-0.925248	0.03965	0.392474	74.83	7.07	-43.47	0.3024	-0.0622	-0.4184	
-0.937814	0.03965	0.40992	70.84	6.3	-42.84	0.3025	-0.0679	-0.4045	
-0.940864	0.058194	0.415532	80.85	2.52	-41.86	0.2969	-0.0707	-0.4046	
-0.914878	0.063806	0.39284	80.29	5.18	-40.95	0.3074	-0.0818	-0.4095	
-0.909876	0.069052	0.388082	68.81	6.65	-37.66	0.3047	-0.0889	-0.3973	
-0.904264	0.08479	0.407602	59.43	6.23	-35.35	0.3047	-0.0875	-0.3988	
-0.906704	0.086498	0.394792	63.28	9.52	-32.83	0.3003	-0.08859999	-0.3895	
-0.917196	0.10126	0.39528	65.59	10.43	-30.59	0.3064	-0.0964	-0.3928	
-0.920612	0.09516	0.394548	61.88	8.89	-28.63	0.3156	-0.1104	-0.3947	
-0.912194	0.089548	0.404064	49.77	11.2	-27.23	0.3108	-0.0993	-0.3774	
-0.926102	0.073322	0.399184	45.85	12.95	-27.16	0.3214	-0.1104	-0.3839	
-0.936106	0.06283	0.401624	44.73	12.6	-25.62	0.332	-0.1244	-0.3858	
-0.948062	0.045384	0.396012	39.97	15.47	-24.85	0.3303	-0.1195	-0.3717	
-0.945134	0.041846	0.371734	46.06	13.65	-23.52	0.3289	-0.1208	-0.364	
-0.958798	0.037698	0.347944	47.74	13.79	-23.38	0.3324	-0.1376	-0.3675	
-0.956236	0.043798	0.353434	39.27	12.32	-23.45	0.3303	-0.1194	-0.3671	
-0.952942	0.043554	0.350262	39.76	10.29	-23.1	0.3304	-0.1237	-0.3563	
-0.942938	0.052704	0.349408	40.74	10.57	-22.89	0.3393	-0.1285	-0.3518	
-0.945256	0.057462	0.34953	35.63	9.73	-23.17	0.3437	-0.1303	-0.3596	
-0.944036	0.037698	0.34831	28.28	10.08	-22.47	0.3448	-0.1226	-0.3486	
-0.955138	0.005246	0.347822	23.8	10.08	-21.35	0.3418	-0.118	-0.35	
-0.950258	-0.02562	0.369294	22.82	9.03	-21.28	0.3405	-0.1224	-0.3486	
-0.95709	-0.015006	0.36478	32.34	10.36	-20.72	0.3439	-0.1376	-0.3489	
-0.961604	-0.01586	0.327204	41.72	9.73	-20.58	0.3465	-0.1299	-0.3364	
-0.95343	-0.005368	0.329034	38.29	8.4	-19.53	0.3451	-0.13	-0.3426	
-0.951112	0.003782	0.333792	37.24	7.91	-19.18	0.3527	-0.1406	-0.3304	
-0.952942	0.012078	0.325496	37.94	4.27	-17.99	0.3525	-0.1376	-0.3319	
-0.95587	0.000244	0.322568	32.55	4.76	-15.96	0.361	-0.1318	-0.3287	
-0.957822	-0.011468	0.33428	28.7	4.27	-14.14	0.3602	-0.1484	-0.3275	
-0.935252	-0.009881999	0.349042	29.89	3.5	-12.95	0.3541	-0.1421	-0.3289	
-0.946598	0.016592	0.350506	32.2	3.29	-11.76	0.3568	-0.1348	-0.335	
-0.956114	0.011956	0.325374	29.61	3.71	-9.94	0.3597	-0.1377	-0.3226	
-0.926468	-0.002074	0.343674	14.7	3.15	-7.14	0.3671	-0.1422	-0.3119	
-0.938424	0.005246	0.345016	21.56	3.71	-5.32	0.3613	-0.1422	-0.3181	
-0.93452	0.001952	0.324886	24.99	2.52	-2.8	0.3702	-0.1473	-0.3306	
-0.963434	0.00732	0.320738	19.25	3.22	-2.8	0.3704	-0.153	-0.3153	
-0.954772	0.003172	0.329644	5.46	1.96	-1.82	0.3703	-0.1486	-0.3214	
-0.951478	-0.000244	0.339404	4.06	0.63	-0.7	0.3644	-0.1482	-0.3151	
-0.940864	0.012322	0.338916	7	0.14	0.42	0.3603	-0.1527	-0.3214	
-0.951356	0.015128	0.335622	1.82	0.63	1.89	0.3629	-0.1466	-0.3136	
-0.953796	0.015494	0.343186	-4.34	-0.56	2.59	0.36	-0.145	-0.3104	
-0.947086	0.004392	0.335744	-2.8	-1.19	3.36	0.3557	-0.145	-0.3212	
-0.941108	-0.001952	0.342088	-6.09	-2.59	3.99	0.363	-0.1467	-0.3167	
-0.942572	0.010492	0.351116	-6.72	-2.66	4.83	0.3644	-0.1469	-0.3213	
-0.96014	0.020862	0.348554	-9.1	-1.54	5.25	0.3615	-0.1469	-0.3259	
-0.940254	0.018788	0.355874	-15.05	-2.66	6.37	0.366	-0.1499	-0.3198	
-0.944036	0.034526	0.354898	-12.88	-2.94	7.49	0.3603	-0.1528	-0.323	
-0.943792	0.056974	0.343552	-13.58	-3.85	7.84	0.3485	-0.1449	-0.3259	
-0.934032	0.071736	0.339038	-22.89	-5.11	8.75	0.3586	-0.1452	-0.3244	
-0.937204	0.082594	0.339282	-30.17	-5.67	9.38	0.3501	-0.1495	-0.3306	
-0.9455	0.08662	0.332938	-33.11	-3.99	9.94	0.3548	-0.1588	-0.3308	
-0.953918	0.075884	0.329034	-36.89	-4.69	11.41	0.3571	-0.1438	-0.3305	
-0.954528	0.063684	0.33733	-44.17	-4.2	12.88	0.3597	-0.1349	-0.335	
-0.955504	0.06893	0.33916	-49.49	-2.87	13.51	0.3495	-0.1332	-0.3426	
-0.951112	0.082472	0.333792	-48.58	-3.85	16.45	0.3583	-0.1364	-0.3366	
-0.958676	0.089182	0.322324	-61.6	-1.89	17.08	0.3523	-0.1302	-0.3395	
-0.976976	0.110288	0.312442	-71.54	-2.66	18.83	0.3506	-0.124	-0.3347	
-0.96868	0.072712	0.289384	-81.62	-6.09	22.4	0.3492	-0.1227	-0.3471	
-0.967094	0.061	0.296094	-93.73	-7.07	27.37	0.3461	-0.1166	-0.3485	
-0.96441	0.04758	0.296582	-93.31	-8.54	30.03	0.3499	-0.1017	-0.3497	
-0.96136	0.02379	0.321104	-111.02	-12.53	32.55	0.3472	-0.1079	-0.3622	
-0.967094	0.002562	0.327082	-115.99	-12.74	33.18	0.3512	-0.09779999	-0.3744	
-0.965142	0.00671	0.32452	-108.57	-17.08	35.56	0.3465	-0.087	-0.3741	
-0.957822	-0.006954	0.275964	-102.97	-16.52	38.43	0.3377	-0.0834	-0.3647	
-0.945134	-0.002806	0.27816	-108.15	-21.77	40.81	0.3255	-0.0668	-0.3814	
-0.960872	-0.005002	0.313052	-126.21	-17.78	39.69	0.3224	-0.0594	-0.3951	
-0.965142	-0.011102	0.324398	-133.35	-19.39	38.08	0.3194	-0.0547	-0.3919	
-0.962458	-0.016592	0.305732	-128.38	-20.58	39.2	0.3232	-0.0414	-0.3978	
-0.957944	-0.057584	0.302438	-134.61	-20.16	42.21	0.3086	-0.0351	-0.41	
-0.968924	-0.083326	0.33123	-127.82	-20.58	43.68	0.3208	-0.0141	-0.3972	
-0.954528	-0.063074	0.339282	-113.12	-20.23	43.19	0.3178	-0.0109	-0.394	
-0.941352	-0.075884	0.300364	-108.29	-20.16	43.4	0.3145	-0.0005	-0.4046	
-0.927932	-0.104432	0.312564	-113.26	-20.23	44.45	0.31	0.004	-0.4091	
-0.961848	-0.093452	0.345138	-113.12	-7.84	41.86	0.3031	0.0361	-0.4038	
-0.97051	-0.09821	0.331352	-105.98	-9.24	41.86	0.3031	0.0361	-0.4038	
-0.943792	-0.110166	0.32879	-97.16	-12.46	43.05	0.2959	0.0347	-0.4084	
-0.941108	-0.106384	0.344406	-95.41	-10.99	43.12	0.3055	0.048	-0.4066	
-0.927566	-0.082594	0.351726	-90.58	-6.3	43.68	0.2924	0.0515	-0.408	
-0.950502	-0.084058	0.352824	-103.25	-5.46	42.91	0.2889	0.0656	-0.3906	
-0.95099	-0.067832	0.360266	-100.87	-9.59	42.77	0.3061	0.0722	-0.403	
-0.93391	-0.087352	0.36905	-99.54	-10.01	43.82	0.2927	0.0832	-0.4042	
-0.936838	-0.07503	0.382836	-93.66	-5.74	44.38	0.2894	0.0924	-0.4024	
-0.923906	-0.058438	0.374662	-79.94	-9.24	44.17	0.2937	0.0939	-0.3978	
-0.920612	-0.05185	0.372344	-80.64	-4.48	42.63	0.2996	0.09209999	-0.3994	
-0.944768	-0.057584	0.38552	-86.94	-3.78	41.3	0.2932	0.109	-0.3959	
-0.928298	-0.055388	0.393938	-85.54	-0.91	40.46	0.2989	0.109	-0.3882	
-0.930738	-0.055144	0.381616	-82.18	-0.07	39.9	0.3059	0.1162	-0.3896	
-0.943792	-0.072224	0.379908	-83.65	2.8	38.99	0.306	0.1134	-0.3803	
-0.943182	-0.0915	0.382348	-79.03	2.73	40.39	0.3053	0.1315	-0.383	
-0.95831	-0.101016	0.362584	-70.49	2.03	40.32	0.3114	0.1238	-0.3801	
-0.940498	-0.096502	0.369172	-71.75	3.78	38.78	0.3037	0.1334	-0.3675	
-0.945378	-0.107238	0.370636	-75.11	6.58	35.91	0.3165	0.1404	-0.3674	
-0.949526	-0.088084	0.366366	-66.92	5.74	35.14	0.3153	0.1343	-0.3721	
-0.983564	-0.08723	0.336232	-67.34	10.64	34.16	0.3145	0.1529	-0.3516	
-0.976122	-0.072102	0.337574	-65.59	6.16	33.39	0.3171	0.162	-0.3467	
-0.963556	-0.08174	0.323544	-65.1	6.16	32.55	0.3203	0.1526	-0.3563	
-0.95465	-0.07625	0.340136	-66.01	3.64	29.54	0.323	0.1588	-0.3422	
-0.947208	-0.09089	0.342698	-62.37	3.71	27.86	0.3314	0.1633	-0.3313	
-0.935496	-0.088694	0.350506	-57.47	5.11	27.16	0.3316	0.1585	-0.3407	
-0.951966	-0.078934	0.347578	-54.32	5.95	26.67	0.3354	0.1751	-0.3372	
-0.93574	-0.073322	0.351604	-50.82	4.55	26.18	0.3312	0.1708	-0.3342	
-0.942938	-0.052704	0.341966	-48.02	7.21	24.5	0.3323	0.1787	-0.3154	
-0.938912	-0.061	0.343064	-44.1	3.43	24.71	0.3427	0.1705	-0.3265	
-0.948062	-0.048434	0.341722	-39.62	5.32	23.45	0.3354	0.1724	-0.3218	
-0.945866	-0.051484	0.345016	-38.08	4.76	22.89	0.3466	0.1825	-0.3216	
-0.94001	-0.028426	0.343796	-35.14	7.07	21.77	0.3484	0.1722	-0.3079	
-0.946354	-0.035014	0.327936	-31.15	8.33	22.12	0.3439	0.1768	-0.3109	
-0.951966	-0.01403	0.335256	-31.15	8.47	22.12	0.3426	0.1723	-0.3125	
-0.953064	0.005002	0.337208	-31.01	10.99	22.96	0.3449	0.1876	-0.2998	
-0.951966	0.01952	0.337452	-33.95	12.95	23.03	0.351	0.1785	-0.2923	
-0.959408	0.017324	0.317078	-31.22	14.7	23.1	0.3482	0.1769	-0.3016	
-0.945622	0.0183	0.31842	-30.17	11.48	23.1	0.3609	0.1857	-0.2906	
-0.950624	-0.017812	0.323544	-22.4	13.44	20.44	0.351	0.1799	-0.2969	
-0.945866	-0.008296	0.32696	-20.16	10.92	17.15	0.3668	0.1798	-0.2737	
-0.933422	-0.0122	0.31842	-16.1	9.24	13.86	0.3684	0.1779	-0.2892	
-0.937204	-0.00244	0.320738	-12.53	8.19	11.13	0.3642	0.1722	-0.2816	
-0.952698	-0.009393999	0.320006	-8.89	7	8.47	0.3754	0.1809	-0.2783	
-0.974048	-0.021106	0.30805	-2.52	3.99	6.51	0.3653	0.1827	-0.2798	
-0.974292	-0.008174	0.295484	0.07	3.29	3.99	0.3771	0.1748	-0.2754	
-0.955138	0.021106	0.288164	4.2	2.03	1.82	0.3729	0.1732	-0.2894	
-0.961726	-0.000366	0.295118	5.74	2.03	1.12	0.3639	0.1797	-0.283	
-0.973316	0.005856	0.297924	9.17	0.63	-0.35	0.3743	0.1719	-0.2754	
-0.969534	0.022814	0.28304	11.48	-0.56	-1.19	0.3754	0.1837	-0.2876	
-0.965874	0.03355	0.28609	11.34	-0.91	-1.89	0.3785	0.1776	-0.2862	
-0.984784	0.021716	0.276208	12.53	-0.91	-2.8	0.3703	0.1657	-0.2911	
-0.964044	0.01342	0.293776	12.46	-1.26	-4.06	0.3744	0.1688	-0.2802	
-0.954528	-0.001464	0.299876	15.68	-1.96	-5.18	0.3773	0.1702	-0.2786	
-0.954894	0.01525	0.29768	17.78	-0.14	-7.21	0.3686	0.1705	-0.2817	
-0.961238	-0.000122	0.28609	19.95	0.07	-8.33	0.3704	0.1611	-0.2927	
-0.966118	-0.032208	0.275842	24.22	0.91	-9.45	0.3761	0.164	-0.2911	
-0.979294	-0.056364	0.274988	31.22	0.84	-9.73	0.3632	0.1614	-0.2927	
-0.972706	-0.051972	0.266082	45.01	-2.03	-9.52	0.3747	0.1625	-0.2912	
-1.009916	-0.034892	0.24949	57.47	-6.72	-9.66	0.3735	0.1564	-0.2959	
-1.021384	-0.021594	0.242658	59.29	-10.71	-9.24	0.3619	0.1569	-0.2943	
-1.033218	-0.036112	0.267912	59.22	-13.51	-9.1	0.3591	0.1552	-0.3083	
-0.985028	-0.053314	0.299876	74.97	-25.83	-10.22	0.3552	0.1433	-0.307	
-0.948306	-0.045018	0.295728	88.34	-21.91	-10.99	0.3525	0.1388	-0.3102	
-0.957822	-0.046116	0.30622	95.27	-23.87	-17.08	0.36	0.1336	-0.3289	
-0.96929	-0.036234	0.287188	116.83	-17.92	-21.84	0.3558	0.1292	-0.3306	
-0.959408	-0.00488	0.247782	129.99	-19.25	-26.04	0.3574	0.1258	-0.343	
-0.96502	0.030256	0.252052	125.44	-16.8	-33.6	0.3437	0.1065	-0.3543	
-0.981368	0.063684	0.265594	116.2	-21.98	-38.01	0.3425	0.1005	-0.3544	
-0.976366	0.06588	0.279868	106.75	-22.96	-42	0.3455	0.0972	-0.3607	
-0.991616	0.053192	0.293654	106.19	-24.36	-44.73	0.3429	0.09119999	-0.3655	
-0.996862	0.04514	0.300852	111.37	-27.37	-45.36	0.3347	0.0779	-0.3688	
-0.97478	0.0671	0.30317	121.45	-29.33	-45.92	0.3306	0.07319999	-0.3813	
-0.967582	0.069174	0.297192	126	-33.95	-47.74	0.3339	0.0597	-0.3754	
-0.946354	0.079666	0.296704	129.78	-34.58	-49.91	0.3298	0.0549	-0.391	
-0.92293	0.077104	0.299876	129.85	-33.88	-53.13	0.3187	0.0418	-0.3913	
-0.92903	0.092354	0.332084	129.92	-30.45	-55.86	0.3088	0.0372	-0.4115	
-0.931714	0.099674	0.360144	118.72	-29.47	-57.75	0.3138	0.0204	-0.4119	
-0.929884	0.10065	0.3599	130.9	-29.19	-58.59	0.3029	0.0025	-0.42	
-0.914512	0.103456	0.356972	124.6	-26.67	-59.08	0.3101	0.0027	-0.4014	
-0.912194	0.123586	0.368074	126.91	-19.11	-59.64	0.3015	0.0011	-0.4216	
-0.936228	0.100162	0.364292	114.45	-14	-59.29	0.3006	-0.0137	-0.4126	
-0.931226	0.106384	0.393938	107.94	-11.48	-60.34	0.2952	-0.0243	-0.4252	
-0.942328	0.100894	0.409188	109.55	-10.5	-60.2	0.2866	-0.0255	-0.4237	
-0.931836	0.108458	0.377102	127.33	-9.94	-57.54	0.2885	-0.0388	-0.4085	
-0.960628	0.127978	0.349652	118.72	-7.21	-56.07	0.299	-0.0498	-0.4103	
-0.92049	0.120048	0.366244	95.97	-6.02	-53.97	0.2876	-0.0526	-0.4196	
-0.91744	0.091378	0.387106	71.47	4.97	-52.71	0.2863	-0.0586	-0.4213	
-0.911706	0.105652	0.434076	74.34	0.98	-51.31	0.2983	-0.0709	-0.4092	
-0.920978	0.09942999	0.410286	95.41	4.41	-47.18	0.2951	-0.0604	-0.4183	
-0.932568	0.07808	0.368928	105.7	3.43	-44.1	0.2985	-0.07669999	-0.4001	
-0.950746	0.102846	0.349774	102.62	6.3	-42.35	0.3019	-0.0905	-0.4035	
-0.9577	0.10919	0.34892	83.72	5.67	-42.63	0.2961	-0.0916	-0.3973	
-0.953674	0.117364	0.389058	59.64	6.09	-42.91	0.3053	-0.1041	-0.3976	
-0.933666	0.110532	0.428586	64.75	4.9	-41.23	0.3099	-0.1117	-0.3947	
-0.926956	0.101748	0.410042	79.8	7.84	-40.88	0.3112	-0.1088	-0.3977	
-0.929762	0.122976	0.393084	90.65	7	-38.15	0.3113	-0.1116	-0.3854	
-0.927444	0.117364	0.365268	88.76	7.49	-35.7	0.3215	-0.1161	-0.3701	
-0.924638	0.11651	0.36356	74.69	11.13	-35.42	0.3215	-0.1146	-0.3685	
-0.935618	0.080642	0.35929	55.72	12.95	-34.44	0.3233	-0.1251	-0.3641	
-0.927566	0.102602	0.391986	47.95	11.27	-33.6	0.3281	-0.139	-0.369	
-0.959652	0.075762	0.376736	54.67	11.06	-32.41	0.3252	-0.1373	-0.3659	
-0.932324	0.090646	0.37027	61.67	10.64	-30.94	0.3294	-0.1343	-0.3612	
-0.938302	0.099918	0.351238	60.34	12.53	-29.47	0.3268	-0.1419	-0.3645	
-0.930616	0.079178	0.343308	49.07	13.37	-27.79	0.3412	-0.142	-0.3475	
-0.954772	0.054168	0.35014	38.43	13.51	-26.39	0.3411	-0.1391	-0.3536	
-0.940986	0.05246	0.366976	33.25	12.18	-24.92	0.3527	-0.1423	-0.3398	
-0.941474	0.04453	0.368074	35.07	14.42	-23.24	0.3415	-0.1509	-0.3384	
-0.940986	0.035258	0.373686	36.19	14	-21.91	0.3442	-0.1464	-0.3336	
-0.956968	0.027694	0.343064	44.8	14.28	-21.21	0.3483	-0.1417	-0.3211	
-0.955626	0.036234	0.318908	49.21	10.92	-20.51	0.3542	-0.1424	-0.3398	
-0.955138	0.02623	0.311832	37.45	10.36	-19.53	0.3644	-0.1468	-0.3198	
-0.955748	0.028792	0.326472	26.95	10.29	-18.2	0.3631	-0.1514	-0.3245	
-0.949892	0.024034	0.333914	27.44	8.89	-15.4	0.3559	-0.151	-0.3183	
-0.942328	0.020618	0.335866	26.32	8.26	-13.09	0.3606	-0.1616	-0.3139	
-0.948794	0.008296	0.327936	22.82	9.87	-10.99	0.3633	-0.1544	-0.3246	
-0.964044	0.01159	0.326472	23.45	9.8	-9.1	0.3604	-0.1555	-0.3091	
-0.963312	0.025498	0.317688	24.43	8.75	-7.42	0.3633	-0.1571	-0.3076	
-0.964898	0.02806	0.301706	24.57	6.65	-5.32	0.3733	-0.1557	-0.2967	
-0.949038	0.027206	0.304146	15.75	4.9	-4.34	0.3694	-0.1663	-0.3032	
-0.954772	0.040016	0.308416	14.63	2.66	-3.71	0.3722	-0.1633	-0.3	
-0.961726	0.05551	0.31049	16.59	1.75	-2.17	0.3733	-0.1557	-0.2936	
-0.967948	0.049532	0.310124	10.29	0.77	0.07	0.3742	-0.1783	-0.2942	
-0.978562	0.052094	0.310978	6.3	-0.56	1.47	0.375	-0.162	-0.3031	
-0.967582	0.031232	0.299632	6.09	-1.19	2.87	0.3693	-0.1647	-0.3	
-0.956724	0.02867	0.305122	-1.75	-2.59	3.43	0.3636	-0.1645	-0.3031	
-0.95526	0.049166	0.31049	-2.17	-1.68	3.71	0.3621	-0.1659	-0.2985	
-0.952332	0.047946	0.303048	-5.81	-2.45	5.18	0.3706	-0.1602	-0.3015	
-0.955748	0.04453	0.303902	-12.6	-1.89	6.72	0.3781	-0.1664	-0.2939	
-0.960506	0.04758	0.310856	-16.1	-3.5	7.98	0.3752	-0.1666	-0.3094	
-0.961848	0.083326	0.316224	-13.02	-2.8	8.82	0.3723	-0.1663	-0.2985	
-0.944646	0.088206	0.308172	-20.09	-4.83	10.22	0.365	-0.1646	-0.3047	
-0.960018	0.106262	0.321104	-32.48	-3.64	10.78	0.3679	-0.1633	-0.3093	
-0.965874	0.122	0.303292	-31.5	-5.88	11.55	0.359	-0.1585	-0.3092	
-0.950868	0.117852	0.281576	-38.43	-7.84	14.28	0.371	-0.1681	-0.3156	
-0.94489	0.101748	0.274622	-52.22	-8.05	17.36	0.3662	-0.1572	-0.3061	
-0.984906	0.104066	0.289628	-63.84	-7.7	19.6	0.3558	-0.1467	-0.3275	
-0.986858	0.119438	0.309514	-72.31	-8.96	21.63	0.356	-0.1526	-0.3214	
