Sensor string: E
Serial number: 1970-01-0000
Firmware version: 2,015
Hardware version: 2,2
Calibration quality: 5
ax	ay	az	gx	gy	gz	mx	my	mz

-0.93879	0.154818	0.284382	-6.16	-72.73	10.01	0.2864	-0.0795	-0.3274	Reference
-0.915732	0.164822	0.306098	-5.74	-73.99	10.43	0.274	-0.0835	-0.3298	
-0.917196	0.147498	0.348798	-8.12	-75.04	9.94	0.2611	-0.0799	-0.3367	
-0.91561	0.147376	0.393206	-8.05	-73.01	10.64	0.2544	-0.0755	-0.3574	
-0.89853	0.152744	0.387228	-7.77	-79.45	11.69	0.2439	-0.0826	-0.3534	
-0.88084	0.157868	0.415532	-8.47	-78.33	11.34	0.2367	-0.084	-0.3617	
-0.845582	0.155306	0.424316	-9.03	-76.51	10.99	0.2331	-0.0812	-0.376	
-0.858514	0.17263	0.461282	-10.71	-75.11	9.52	0.2191	-0.0869	-0.3848	
-0.783728	0.181292	0.517402	-12.67	-77.14	9.38	0.2021	-0.0813	-0.3887	
-0.767136	0.171044	0.537288	-10.92	-77	9.03	0.1922	-0.0874	-0.4004	
-0.758352	0.16226	0.558638	-10.43	-77.63	8.75	0.1757	-0.0679	-0.407	
-0.712358	0.16226	0.592798	-12.39	-75.95	7.07	0.1661	-0.0738	-0.4124	
-0.69296	0.154574	0.61976	-14.84	-76.44	6.16	0.1566	-0.0844	-0.4196	
-0.686982	0.150426	0.655994	-11.06	-72.03	6.23	0.1446	-0.0682	-0.4228	
-0.652944	0.15128	0.66612	-13.3	-73.78	6.72	0.1322	-0.07229999	-0.4252	
-0.639158	0.156892	0.682956	-10.78	-72.45	7	0.1237	-0.0654	-0.4222	
-0.610976	0.147254	0.698938	-11.13	-72.8	6.79	0.1167	-0.07	-0.4306	
-0.6039	0.148474	0.730658	-11.13	-71.68	6.51	0.0982	-0.0628	-0.4345	
-0.540948	0.14335	0.741272	-11.9	-71.33	6.16	0.0939	-0.0659	-0.4412	
-0.535946	0.151768	0.779214	-11.06	-68.6	6.72	0.0872	-0.0637	-0.4336	
-0.593652	0.157502	0.803614	-10.15	-65.94	6.3	0.066	-0.0676	-0.4474	
-0.48556	0.1647	0.809104	-10.08	-68.46	6.65	0.0656	-0.0581	-0.4456	
-0.503372	0.179706	0.826184	-10.92	-65.8	6.93	0.0455	-0.0646	-0.439	
-0.598044	0.168238	0.836798	-10.22	-63.07	6.23	0.0365	-0.0678	-0.4585	
-0.435174	0.148718	0.83997	-11.55	-66.36	7.28	0.0326	-0.0577	-0.4426	
-0.50935	0.16836	0.874252	-9.03	-58.38	5.6	0.0224	-0.0526	-0.4477	
-0.42151	0.182268	0.897066	-10.99	-56.28	4.48	0.0084	-0.0502	-0.4483	
-0.372954	0.152378	0.910974	-10.22	-56.7	3.15	-0.0127	-0.051	-0.4605	
-0.44896	0.158844	0.92598	-11.97	-50.61	2.03	-0.0181	-0.0441	-0.4511	
-0.339648	0.143228	0.933422	-13.65	-51.87	0.21	-0.0269	-0.0471	-0.4643	
-0.347578	0.140788	0.938546	-10.71	-44.03	0.56	-0.0252	-0.0422	-0.453	
-0.330498	0.136884	0.933178	-12.18	-45.22	0.42	-0.0324	-0.0387	-0.4549	
-0.350506	0.12383	0.945134	-11.69	-41.09	0.84	-0.0335	-0.0498	-0.4616	
-0.333792	0.108458	0.934764	-12.39	-42.07	0.98	-0.0557	-0.0252	-0.4651	
-0.308416	0.107482	0.955382	-10.57	-38.92	1.05	-0.0523	-0.0282	-0.4556	
-0.308294	0.106018	0.963922	-8.68	-36.54	1.75	-0.0689	-0.0353	-0.463	
-0.260104	0.099918	0.96929	-7.07	-35.35	1.68	-0.0621	-0.0276	-0.4561	
-0.308294	0.114192	0.979782	-3.36	-28.28	1.54	-0.0759	-0.0301	-0.46	
-0.25742	0.114802	0.97051	-4.34	-28.7	1.54	-0.0769	-0.0346	-0.4571	
-0.243878	0.103212	0.978684	-7.28	-25.27	0.42	-0.086	-0.02	-0.4571	
-0.286212	0.1037	0.982954	-7.28	-22.26	-0.21	-0.0848	-0.0186	-0.4601	
-0.269498	0.095892	0.989908	-4.55	-21.14	-0.49	-0.0858	-0.028	-0.4621	
-0.299022	0.091988	0.986614	-5.39	-20.44	-0.14	-0.0843	-0.0264	-0.4572	
-0.266448	0.082838	0.987102	-3.92	-17.64	-0.28	-0.0994	-0.0238	-0.4532	
-0.274378	0.089304	0.983686	-3.08	-14.77	-0.07	-0.1018	-0.0234	-0.4454	
-0.251808	0.114924	1.006744	-1.47	-11.13	-0.35	-0.1083	-0.0156	-0.4565	
-0.253516	0.104676	0.989176	-2.8	-9.1	-1.19	-0.1037	-0.022	-0.4534	
-0.247416	0.093818	0.974902	-3.08	-7.98	-1.54	-0.09649999	-0.0238	-0.4499	
-0.247538	0.099796	0.982344	-1.33	-4.27	-1.68	-0.1019	-0.0332	-0.4584	
-0.249002	0.096258	0.984662	-1.89	-3.43	-1.89	-0.1075	-0.0247	-0.4489	
-0.251076	0.083448	0.980392	-2.03	-1.61	-2.38	-0.0913	-0.0228	-0.4559	
-0.248758	0.072956	0.979782	-2.1	0.21	-2.59	-0.101	-0.0173	-0.4499	
-0.252174	0.07747	0.980758	-0.91	1.89	-2.45	-0.1134	-0.0279	-0.462	
-0.254248	0.076494	0.993812	-0.35	3.78	-2.52	-0.1097	-0.0171	-0.4582	
-0.252052	0.083082	0.992958	0	6.44	-2.24	-0.1103	-0.0295	-0.4556	
-0.243024	0.067832	0.995764	0.84	10.36	-1.4	-0.103	-0.0129	-0.4593	
-0.241194	0.053924	1.018212	3.01	14.14	-0.42	-0.1125	-0.0138	-0.4567	
-0.23607	0.058194	1.030534	5.95	18.06	0.49	-0.0967	-0.0191	-0.4497	
-0.232166	0.07198	1.017602	7	23.31	0.56	-0.09079999	-0.0273	-0.4513	
-0.239608	0.05673	1.024556	-0.21	28.56	-0.49	-0.0928	-0.0195	-0.4543	
-0.241682	0.07515199	1.007842	8.68	31.08	0	-0.0809	-0.0294	-0.4477	
-0.2623	0.09162199	0.992714	8.05	35.07	-0.49	-0.0797	-0.0295	-0.4508	
-0.283406	0.086498	0.980636	10.78	38.29	-0.35	-0.0718	-0.0255	-0.4549	
-0.299266	0.08686399	0.960994	11.2	39.69	0	-0.0677	-0.0323	-0.4644	
-0.315492	0.09076799	0.943792	12.6	42.7	-0.14	-0.0592	-0.031	-0.4576	
-0.347212	0.093818	0.942328	14.28	45.29	-0.84	-0.0478	-0.0314	-0.4507	
-0.36905	0.106384	0.940376	14.91	47.04	-0.63	-0.0454	-0.0351	-0.4633	
-0.385276	0.130296	0.94794	15.12	49	-0.77	-0.0369	-0.0354	-0.4581	
-0.413214	0.14457	0.926468	13.23	54.04	-1.19	-0.0326	-0.0453	-0.4661	
-0.417118	0.14518	0.89975	14.77	51.45	-2.17	-0.0212	-0.049	-0.4625	
-0.409432	0.154208	0.880352	15.33	51.52	-1.26	-0.0062	-0.0419	-0.4583	
-0.412116	0.152134	0.869128	13.02	55.37	-3.43	-0.0051	-0.0574	-0.4525	
-0.441762	0.155428	0.875594	15.05	57.4	-2.8	0.0108	-0.0523	-0.4593	
-0.47153	0.154574	0.860588	14.35	61.11	-3.85	0.011	-0.0586	-0.4611	
-0.484706	0.167994	0.831674	13.09	62.02	-4.69	0.0139	-0.0506	-0.4512	
-0.508252	0.168116	0.823866	10.71	62.86	-5.46	0.0365	-0.0646	-0.4552	
-0.518012	0.163602	0.801052	11.48	64.47	-5.18	0.0436	-0.06	-0.4468	
-0.533628	0.147498	0.798856	9.73	65.59	-5.88	0.0514	-0.0576	-0.4526	
-0.555832	0.141886	0.78934	9.52	65.94	-6.09	0.0564	-0.067	-0.4464	
-0.58743	0.146156	0.77104	11.9	67.13	-6.09	0.06659999	-0.0737	-0.4429	
-0.600972	0.160186	0.734806	8.4	67.76	-6.72	0.0846	-0.0764	-0.4436	
-0.620614	0.157868	0.730658	11.97	65.38	-4.97	0.0929	-0.0687	-0.435	
-0.652578	0.162382	0.710528	12.39	69.23	-4.69	0.1195	-0.0717	-0.4306	
-0.673074	0.155184	0.69174	12.81	67.2	-5.11	0.1251	-0.0704	-0.4271	
-0.68137	0.160918	0.685152	8.75	70.91	-5.95	0.1394	-0.0823	-0.4314	
-0.698572	0.178486	0.673684	13.37	65.03	-5.04	0.15	-0.0719	-0.4289	
-0.725534	0.169824	0.64294	9.8	71.68	-5.74	0.1502	-0.0853	-0.4105	
-0.740174	0.176046	0.61	11.76	68.11	-4.69	0.1608	-0.0814	-0.4145	
-0.747616	0.184342	0.5978	10.22	70.77	-4.9	0.1658	-0.0875	-0.4034	
-0.803004	0.19581	0.582794	14.14	68.81	-6.72	0.1767	-0.0802	-0.3995	
-0.772138	0.173118	0.548634	9.87	71.75	-4.06	0.1951	-0.081	-0.3906	
-0.770674	0.165798	0.522892	8.19	72.03	-5.74	0.2029	-0.0905	-0.3811	
-0.814228	0.172508	0.514474	8.89	72.73	-5.53	0.2125	-0.0944	-0.3886	
-0.819718	0.171044	0.479216	12.6	69.23	-5.81	0.2184	-0.0848	-0.369	
-0.83875	0.171898	0.45079	11.55	66.22	-5.53	0.2274	-0.0793	-0.3778	
-0.853024	0.178852	0.423706	11.41	66.36	-5.88	0.2358	-0.0966	-0.3654	
-0.864736	0.185806	0.392962	11.97	67.06	-6.16	0.2396	-0.09209999	-0.3666	
-0.893894	0.183244	0.365268	11.41	64.68	-6.51	0.2573	-0.094	-0.3452	
-0.909754	0.185684	0.34709	13.09	62.3	-6.09	0.267	-0.0929	-0.3431	
-0.910242	0.183854	0.340258	12.53	61.81	-5.74	0.2659	-0.0975	-0.3418	
-0.93452	0.18056	0.319884	9.8	58.8	-5.67	0.2831	-0.0916	-0.3217	
-0.931592	0.181658	0.289384	12.81	61.53	-5.04	0.2935	-0.0966	-0.3119	
-0.94001	0.175436	0.26901	8.54	63.98	-5.32	0.3024	-0.1031	-0.3069	
-0.928542	0.177022	0.249246	8.26	58.03	-5.25	0.3092	-0.1004	-0.3065	
-0.942328	0.183122	0.24522	5.81	57.54	-5.46	0.3121	-0.0939	-0.2951	
-0.952454	0.177144	0.210938	4.9	55.72	-5.39	0.3188	-0.09779999	-0.3043	
-0.96319	0.17019	0.195322	5.74	52.01	-5.32	0.3339	-0.0977	-0.2767	
-0.979294	0.168482	0.186294	5.39	52.15	-5.46	0.3273	-0.1035	-0.2757	
-0.987712	0.166042	0.170922	3.22	51.1	-5.39	0.3328	-0.0925	-0.264	
-0.999546	0.16409	0.14579	3.36	47.25	-5.18	0.3382	-0.0897	-0.2636	
-0.993934	0.17446	0.14274	4.13	44.87	-4.62	0.3466	-0.0902	-0.2632	
-0.990884	0.176656	0.137738	3.85	43.19	-4.41	0.3524	-0.0854	-0.2517	
-1.003084	0.172142	0.123342	3.64	43.89	-4.13	0.351	-0.087	-0.2534	
-0.998692	0.165554	0.105164	3.01	43.12	-2.94	0.3563	-0.1059	-0.2491	
-1.005646	0.160308	0.085766	2.17	42.07	-2.59	0.3552	-0.09429999	-0.2314	
-1.001132	0.16165	0.072712	2.52	39.83	-2.1	0.3603	-0.0917	-0.2373	
-0.997594	0.159088	0.05063	2.52	40.67	-2.24	0.3621	-0.0931	-0.2294	
-0.992592	0.16531	0.035746	3.15	39.06	-2.24	0.3672	-0.0975	-0.2151	
-1.007598	0.16409	0.023546	2.52	37.73	-2.8	0.3741	-0.0882	-0.2034	
-1.024312	0.16653	0.000244	1.68	35.84	-2.8	0.38	-0.0964	-0.205	
-1.01504	0.161406	-0.004026	-0.63	38.15	-3.36	0.384	-0.0919	-0.2046	
-1.015528	0.160674	-0.02013	-0.84	35.07	-3.5	0.3792	-0.104	-0.2005	
-1.01809	0.159088	-0.0305	-1.12	34.09	-3.29	0.3907	-0.0931	-0.1807	
-1.022116	0.155062	-0.035258	-0.7	32.97	-3.01	0.3977	-0.0999	-0.1852	
-1.015406	0.151768	-0.046116	0.35	30.87	-2.38	0.4003	-0.0969	-0.185	
-1.00528	0.1464	-0.066612	0.63	31.78	-2.1	0.4023	-0.1014	-0.1772	
-1.011014	0.146888	-0.072102	2.31	30.52	-1.89	0.3964	-0.0916	-0.174	
-1.00772	0.149694	-0.091988	3.85	28.28	-1.61	0.4064	-0.09519999	-0.172	
-1.003572	0.154574	-0.10858	3.29	28.07	-1.68	0.4075	-0.0874	-0.1685	
-0.99613	0.162138	-0.10736	3.01	29.19	-1.82	0.4025	-0.0883	-0.1594	
-1.010404	0.166652	-0.109434	4.55	25.97	-1.68	0.4056	-0.0882	-0.1514	
-1.016992	0.165066	-0.114802	1.47	24.57	-0.56	0.4098	-0.0884	-0.1496	
-1.002718	0.16226	-0.142862	-0.56	21	0.35	0.407	-0.0867	-0.1497	
-1.00711	0.16409	-0.118096	0.35	21.7	0.21	0.4099	-0.0916	-0.1512	
-1.00406	0.15799	-0.132492	-0.56	20.72	0	0.4131	-0.0931	-0.1448	
-1.01199	0.155428	-0.136518	0.49	21.49	-0.07	0.4171	-0.0902	-0.1445	
-1.015284	0.16226	-0.0976	3.08	16.52	-0.07	0.415	-0.0961	-0.1354	
-1.007964	0.158356	-0.124562	1.47	16.17	0.56	0.4106	-0.0863	-0.1306	
-1.00223	0.158234	-0.102602	2.24	18.2	1.4	0.4235	-0.0883	-0.1236	
-1.001986	0.153842	-0.119682	1.33	13.44	1.4	0.4259	-0.0887	-0.1314	
-0.99796	0.16653	-0.12017	1.82	16.38	0.63	0.4185	-0.1022	-0.1275	
-1.01199	0.170922	-0.12932	1.82	14	0	0.4198	-0.09429999	-0.1209	
-1.018212	0.168482	-0.137738	-0.7	12.67	-0.56	0.4239	-0.09779999	-0.1255	
-0.995642	0.172874	-0.120902	0.84	10.36	-0.84	0.4216	-0.0989	-0.1162	
-0.984052	0.166774	-0.147742	-0.42	11.55	-0.63	0.4327	-0.0963	-0.1124	
-0.980392	0.170312	-0.151402	0.63	9.87	-0.7	0.4271	-0.0993	-0.1175	
-0.983198	0.168726	-0.153842	-0.63	10.43	-0.84	0.4231	-0.0957	-0.1113	
-0.981856	0.171654	-0.15433	1.05	8.82	-1.54	0.4289	-0.09739999	-0.1063	
-0.973072	0.161772	-0.152134	1.12	7.21	-1.96	0.4286	-0.0976	-0.1127	
-0.971486	0.162016	-0.170678	-0.84	7.28	-2.45	0.4207	-0.09519999	-0.102	
-0.969534	0.16226	-0.179096	1.05	8.54	-2.31	0.437	-0.0884	-0.1009	
-0.964166	0.162992	-0.17324	3.99	13.58	-2.24	0.4282	-0.0801	-0.1026	
-0.98942	0.158966	-0.16714	4.27	11.41	-2.45	0.4257	-0.0927	-0.1111	
-0.99674	0.14823	-0.171898	5.04	11.2	-2.03	0.4279	-0.0906	-0.0904	
-0.968802	0.139568	-0.17995	2.45	10.36	-1.05	0.4233	-0.0923	-0.1017	
-0.955992	0.138836	-0.170922	5.25	11.97	-0.91	0.4431	-0.0964	-0.0977	
-0.954894	0.141032	-0.208864	4.27	10.78	-0.63	0.4337	-0.0972	-0.0919	
-0.96563	0.16104	-0.212768	0.84	13.37	-1.12	0.4278	-0.0906	-0.092	
-1.01992	0.10675	-0.254614	8.82	10.01	-0.63	0.4343	-0.0865	-0.09779999	
-0.981124	0.129808	-0.134078	6.79	13.09	-0.84	0.4252	-0.0937	-0.0938	
-1.012356	0.139202	-0.21167	2.38	23.73	-1.12	0.4378	-0.091	-0.08679999	
-1.007476	0.146644	-0.201422	3.29	27.93	-1.4	0.4379	-0.0958	-0.0901	
-0.967826	0.157868	-0.168238	9.17	29.05	-2.66	0.4348	-0.0846	-0.0851	
-1.002962	0.144082	-0.176656	1.47	31.5	-2.38	0.4417	-0.0985	-0.0711	
-0.966972	0.13115	-0.231678	-8.19	23.31	-1.54	0.4429	-0.0971	-0.0725	
-0.99064	0.156892	-0.20252	0.98	25.9	-2.45	0.4424	-0.0861	-0.0722	
-0.969656	0.161284	-0.25803	-4.97	30.8	-3.57	0.4413	-0.0891	-0.0692	
-0.953674	0.141764	-0.268888	-11.97	29.89	-4.2	0.4439	-0.0796	-0.0624	
-0.967094	0.149084	-0.278282	3.29	25.55	-4.76	0.4408	-0.0964	-0.0569	
-1.014674	0.12993	-0.249734	-10.43	23.38	-5.39	0.4489	-0.0857	-0.0498	
-1.02175	0.153354	-0.283528	-3.57	12.67	-4.62	0.4455	-0.0795	-0.056	
-0.999424	0.156892	-0.282918	-6.65	8.26	-3.78	0.4521	-0.0888	-0.0434	
-0.96868	0.157258	-0.319518	-5.81	8.68	-5.04	0.4408	-0.0867	-0.0471	
-1.05713	0.175558	-0.350628	-6.65	5.6	-8.12	0.4476	-0.0808	-0.0434	
-0.928298	0.147132	-0.346602	-4.06	2.73	-2.66	0.448	-0.0853	-0.0388	
-0.955382	0.14579	-0.320494	-3.57	6.86	-1.47	0.4408	-0.0803	-0.0406	
-0.967216	0.140422	-0.33733	0.56	6.86	-0.91	0.4462	-0.079	-0.0402	
-0.974414	0.125416	-0.338306	-3.43	6.58	-0.49	0.453	-0.0747	-0.0397	
-0.968436	0.128222	-0.355264	-1.89	1.89	0.07	0.4372	-0.0845	-0.033	
-0.96807	0.13481	-0.351848	-2.1	1.19	0.84	0.4465	-0.0821	-0.0388	
-0.972584	0.133956	-0.344772	-4.83	-1.47	1.54	0.4434	-0.0757	-0.0387	
-0.967216	0.138226	-0.338794	-2.1	-3.5	1.54	0.4505	-0.0808	-0.0401	
-0.94916	0.142862	-0.330254	3.85	-4.27	1.19	0.4482	-0.0836	-0.034	
-0.95709	0.122732	-0.344528	-0.07	-3.57	0.98	0.4495	-0.0837	-0.0339	
-0.971486	0.128222	-0.358192	-2.87	-6.37	0.84	0.4395	-0.08329999	-0.0407	
-0.961116	0.153354	-0.35624	4.34	-8.47	0.56	0.4433	-0.0741	-0.0387	
-0.965264	0.141642	-0.321226	1.05	-9.59	0.77	0.446	-0.0808	-0.0466	
-0.963068	0.149938	-0.30256	2.03	-11.48	1.19	0.4466	-0.0869	-0.0421	
-0.976122	0.150914	-0.287432	2.59	-12.32	1.75	0.4464	-0.0918	-0.0501	
-0.957944	0.131272	-0.308294	-1.26	-11.83	1.54	0.4461	-0.0823	-0.0467	
-0.940376	0.151158	-0.299754	1.54	-8.82	0.28	0.4512	-0.0781	-0.051	
-0.967826	0.155916	-0.30866	1.33	-8.12	-0.77	0.4434	-0.0702	-0.0621	
-0.970754	0.162748	-0.313174	3.01	-11.27	-0.84	0.4474	-0.0874	-0.0546	
-0.97783	0.141642	-0.277306	-3.08	-11.62	-0.84	0.4386	-0.0759	-0.0531	
-0.979782	0.157136	-0.288286	2.66	-13.37	-0.98	0.4399	-0.0841	-0.0628	
-0.975024	0.144814	-0.28121	0.91	-14.21	-0.84	0.4327	-0.079	-0.063	
-0.974414	0.145058	-0.282674	-1.4	-13.65	-1.33	0.4509	-0.0832	-0.0637	
-0.989786	0.146278	-0.254492	1.26	-15.89	-1.54	0.4398	-0.0809	-0.0611	
-0.9638	0.166164	-0.30073	2.24	-17.99	-1.47	0.4352	-0.0794	-0.0692	
-0.98271	0.137982	-0.246684	-5.11	-10.92	-1.47	0.4396	-0.08109999	-0.0674	
-0.979294	0.141764	-0.269376	-3.01	-16.94	-1.54	0.442	-0.08639999	-0.0801	
-0.992104	0.121756	-0.237778	0	-13.3	-1.82	0.4394	-0.0828	-0.0722	
-1.005646	0.141398	-0.228506	-4.97	-17.85	-1.82	0.4389	-0.0832	-0.08329999	
-1.027362	0.1586	-0.201178	-2.8	-23.59	-3.92	0.4386	-0.0753	-0.0814	
-1.014674	0.151036	-0.250222	-6.86	-27.02	-2.17	0.4329	-0.0751	-0.0849	
-1.013576	0.155672	-0.21228	1.96	-28.28	-2.17	0.4427	-0.0853	-0.0926	
-1.227076	0.166042	-0.225944	-1.89	-24.64	2.94	0.4235	-0.07759999	-0.0823	
-1.015162	0.14945	-0.261568	-4.34	-28.91	-0.56	0.427	-0.0831	-0.1012	
-0.973316	0.138714	-0.199104	-3.57	-32.55	-0.21	0.4262	-0.07229999	-0.1072	
-1.005402	0.13908	-0.215696	-10.99	-32.27	0.14	0.4308	-0.08199999	-0.1089	
-1.001986	0.138958	-0.199226	-8.96	-35.77	-0.07	0.4332	-0.0791	-0.1118	
-1.015894	0.139202	-0.201056	-9.1	-34.86	-0.21	0.4212	-0.0678	-0.1199	
-1.01748	0.117242	-0.19642	-2.24	-37.73	0	0.4198	-0.0709	-0.1232	
-1.02114	0.114436	-0.179706	-8.26	-36.68	-0.35	0.418	-0.0712	-0.1328	
-1.02724	0.122732	-0.166896	-7.14	-41.02	-0.7	0.4217	-0.0669	-0.1387	
-1.03944	0.125904	-0.167262	-7.98	-45.57	-0.28	0.4218	-0.0733	-0.1437	
-1.026752	0.13908	-0.158478	-5.18	-48.86	0.35	0.4169	-0.0687	-0.1532	
-1.02663	0.122488	-0.135298	-4.06	-57.19	1.12	0.4033	-0.0725	-0.1525	
-1.042246	0.120048	-0.102724	-2.66	-58.59	2.24	0.4018	-0.0742	-0.1574	
-1.037976	0.124196	-0.105164	-2.31	-61.95	1.96	0.3949	-0.0651	-0.1763	
-1.016992	0.128832	-0.087108	-5.81	-66.15	1.61	0.3893	-0.0697	-0.1846	
-1.02846	0.138104	-0.061244	-5.04	-69.93	1.47	0.397	-0.0706	-0.1969	
-1.007598	0.132736	-0.028548	-5.32	-74.48	1.61	0.3847	-0.0762	-0.2009	
-1.0004	0.133346	-0.025986	-4.62	-70.7	2.24	0.3783	-0.07009999	-0.2136	
-0.997228	0.12566	0.02257	-1.26	-77	4.27	0.3617	-0.0853	-0.2307	
-0.976244	0.09857599	0.052338	-2.1	-80.57	4.27	0.3625	-0.0673	-0.2521	
-1.01504	0.128344	0.108946	5.81	-74.9	5.81	0.3435	-0.07889999	-0.2583	
-0.99796	0.129442	0.147376	-0.63	-86.52	6.16	0.3413	-0.0729	-0.2676	
-0.987834	0.131638	0.169458	-5.11	-89.74	6.86	0.3285	-0.0805	-0.2843	
-0.965752	0.119194	0.165798	-6.44	-90.44	6.79	0.3248	-0.0712	-0.2936	
-0.94489	0.108336	0.190076	-4.2	-90.16	8.4	0.3145	-0.0678	-0.3035	
-0.951356	0.118828	0.231678	-3.5	-93.17	11.69	0.3048	-0.07539999	-0.3137	
-0.96746	0.118706	0.271938	-2.8	-93.8	13.3	0.2851	-0.0729	-0.3178	
-0.939888	0.115168	0.29402	-0.7	-97.51	14.42	0.2716	-0.0696	-0.3373	
-0.897798	0.124928	0.302804	0	-99.12	15.54	0.2623	-0.0801	-0.3413	
-0.882426	0.130418	0.298656	-5.25	-101.29	14.14	0.2545	-0.0787	-0.359	
-0.870836	0.140056	0.354288	-9.73	-101.29	11.97	0.2436	-0.0796	-0.3565	
-0.846558	0.163358	0.401502	-9.38	-101.01	10.01	0.2282	-0.0853	-0.367	
-0.831064	0.175802	0.446154	-6.02	-99.26	9.87	0.2219	-0.0838	-0.3814	
-0.797514	0.17019	0.495076	-5.04	-99.54	11.34	0.1999	-0.0873	-0.3827	
-0.741272	0.166408	0.53863	-7	-100.31	11.55	0.1797	-0.0802	-0.393	
-0.711504	0.152256	0.569496	-10.15	-96.88	10.57	0.1702	-0.0725	-0.4121	
-0.684542	0.157624	0.610732	-10.36	-96.67	10.64	0.1597	-0.0812	-0.4098	
-0.659532	0.18178	0.650748	-9.24	-90.72	10.92	0.1385	-0.077	-0.4156	
-0.634888	0.179828	0.683322	-8.68	-88.9	11.83	0.1286	-0.0765	-0.4192	
-0.58133	0.175436	0.699792	-9.1	-88.76	12.53	0.1088	-0.0838	-0.4363	
-0.547414	0.172508	0.741272	-9.45	-85.68	12.67	0.0932	-0.0718	-0.432	
-0.497394	0.170434	0.76982	-10.01	-82.53	12.32	0.0807	-0.0775	-0.4391	
-0.484706	0.181902	0.798734	-10.64	-80.78	9.73	0.0694	-0.0722	-0.4395	
-0.549732	0.177266	0.825208	-12.11	-77.77	9.17	0.0593	-0.0703	-0.4463	
-0.420534	0.175314	0.817278	-14.84	-79.8	8.68	0.047	-0.0694	-0.4422	
-0.48556	0.166408	0.826672	-11.62	-75.32	9.1	0.0321	-0.0596	-0.4553	
-0.346358	0.149084	0.838384	-16.73	-79.94	8.05	0.022	-0.0593	-0.4637	
-0.43615	0.145546	0.848144	-18.2	-72.94	7.42	0.0002	-0.0578	-0.4569	
-0.226188	0.155916	0.888038	-11.2	-69.44	7.49	0.0051	-0.0705	-0.4539	
-0.386984	0.161162	0.929884	-13.79	-62.37	5.67	-0.0095	-0.0557	-0.4574	
-0.3599	0.154452	0.928664	-14.07	-64.68	5.04	-0.0169	-0.0443	-0.4542	
-0.345992	0.14579	0.94001	-9.87	-58.17	5.95	-0.0333	-0.0512	-0.4585	
-0.297802	0.14884	0.976	-15.54	-55.16	4.97	-0.0422	-0.0479	-0.4667	
-0.386374	0.15738	0.977708	-16.52	-52.92	5.32	-0.045	-0.0462	-0.4668	
-0.251686	0.139202	0.976	-12.81	-48.37	6.51	-0.0623	-0.0478	-0.4536	
-0.28487	0.116022	0.97417	-12.32	-45.22	6.23	-0.0613	-0.0368	-0.45	
-0.246684	0.110776	0.981124	-10.01	-40.95	4.97	-0.078	-0.0343	-0.4493	
-0.174948	0.122488	0.986736	-7.84	-36.61	4.27	-0.0852	-0.0389	-0.4608	
-0.306952	0.143106	1.000278	-7.28	-25.69	5.04	-0.0759	-0.0284	-0.4568	
-0.254248	0.13176	0.994056	-11.76	-29.33	3.08	-0.0834	-0.0371	-0.4497	
-0.212646	0.116998	1.005524	-13.51	-24.99	2.17	-0.0998	-0.0289	-0.4676	
-0.266448	0.116144	0.997106	-9.1	-23.66	1.68	-0.0988	-0.0331	-0.4503	
-0.247294	0.101138	0.996984	-10.01	-23.24	1.47	-0.1008	-0.0269	-0.4565	
-0.20801	0.135176	1.010038	-5.6	-19.25	1.82	-0.1057	-0.0191	-0.4644	
-0.255224	0.083936	0.999668	-9.1	-15.47	0.91	-0.1058	-0.0127	-0.4595	
-0.209596	0.011468	0.996862	-6.86	-13.16	1.96	-0.1103	-0.0262	-0.4523	
-0.21289	-0.008905999	1.029192	-4.41	-7.77	2.45	-0.107	-0.0141	-0.458	
-0.241926	0.069418	1.011868	1.33	-6.72	0.84	-0.1205	-0.0212	-0.459	
-0.227652	0.113216	1.003938	0.77	-6.09	-1.05	-0.1119	-0.0166	-0.4473	
-0.219112	0.111996	1.008208	1.47	-3.43	-2.1	-0.1108	-0.0136	-0.4487	
-0.218624	0.11468	1.005402	1.26	-0.07	-2.1	-0.109	-0.0248	-0.4522	
-0.210816	0.110288	0.998448	0.35	1.33	-1.61	-0.1091	-0.0249	-0.4553	
-0.240828	0.100528	0.998448	-0.14	3.99	-1.54	-0.1066	-0.0155	-0.4502	
-0.236436	0.08235	1.00467	0.7	4.9	-1.96	-0.1089	-0.0296	-0.4555	
-0.245342	0.08662	0.999668	1.61	6.02	-1.75	-0.107	-0.0109	-0.4532	
-0.219722	0.107604	1.002108	0.21	8.89	-1.54	-0.1052	-0.022	-0.4566	
-0.201056	0.103456	1.00467	1.12	11.48	-0.77	-0.1104	-0.0247	-0.4522	
-0.205448	0.090646	1.023214	2.52	14.56	-0.21	-0.1046	-0.0281	-0.4505	
-0.212524	0.089792	1.035292	4.76	17.99	0.56	-0.1081	-0.0138	-0.4502	
-0.21106	0.085644	1.04127	4.34	22.12	0.77	-0.1024	-0.027	-0.4613	
-0.207156	0.10309	1.03822	8.05	24.5	1.4	-0.0989	-0.0267	-0.4454	
-0.210572	0.101748	1.048224	10.15	29.33	1.68	-0.0916	-0.0214	-0.4606	
-0.213744	0.097966	1.056276	9.59	33.74	2.24	-0.0971	-0.0226	-0.4609	
-0.223748	0.10126	1.042856	12.46	38.99	2.59	-0.08419999	-0.0312	-0.4605	
-0.245586	0.121146	1.03456	12.74	43.75	2.31	-0.0734	-0.0255	-0.4597	
-0.25864	0.119438	1.02541	13.44	48.09	2.1	-0.0647	-0.0306	-0.4563	
-0.268034	0.113582	1.006134	14.35	52.22	1.19	-0.0651	-0.026	-0.4593	
-0.276696	0.121268	0.995276	15.05	56.42	-0.84	-0.0535	-0.0393	-0.4639	
-0.291702	0.133224	0.986126	15.75	61.74	-2.94	-0.0397	-0.0434	-0.468	
-0.313906	0.129198	0.977464	16.8	67.2	-3.71	-0.0321	-0.045	-0.4551	
-0.335866	0.128466	0.95831	16.94	70.7	-4.76	-0.0213	-0.0442	-0.4592	
-0.362584	0.135054	0.930128	17.57	77.07	-6.37	-0.0085	-0.0496	-0.4587	
-0.370758	0.15616	0.891698	18.9	81.55	-7.42	0.0012	-0.0549	-0.4599	
-0.406626	0.14274	0.86254	19.11	85.05	-8.33	0.0177	-0.0511	-0.4573	
-0.442128	0.13542	0.833138	20.09	86.24	-7.63	0.027	-0.059	-0.4461	
-0.460916	0.136762	0.81252	21.56	89.04	-8.61	0.0406	-0.06	-0.4501	
-0.494466	0.144326	0.791414	24.08	91.07	-8.05	0.0606	-0.072	-0.4495	
-0.515572	0.133712	0.748348	23.45	93.45	-9.17	0.0869	-0.0687	-0.4448	
-0.53558	0.130906	0.720898	24.64	96.11	-9.03	0.08859999	-0.07669999	-0.4465	
-0.5795	0.143716	0.68015	22.89	98.77	-10.92	0.1108	-0.0883	-0.4284	
-0.62647	0.16958	0.62403	24.78	99.12	-11.06	0.1143	-0.076	-0.4278	
-0.681736	0.193248	0.596214	23.31	101.5	-11.55	0.1429	-0.0867	-0.4188	
-0.699914	0.198372	0.544486	19.74	98.98	-12.6	0.1572	-0.0873	-0.4102	
-0.718824	0.190198	0.540826	19.39	100.03	-12.6	0.1655	-0.0845	-0.4065	
-0.73078	0.189954	0.495808	17.85	97.09	-13.02	0.1798	-0.0866	-0.3979	
-0.76128	0.213134	0.444202	19.67	96.95	-12.04	0.1917	-0.0964	-0.3913	
-0.775066	0.204106	0.404552	10.71	95.76	-14.35	0.2105	-0.097	-0.3746	
-0.793976	0.206302	0.387472	12.39	97.93	-14.49	0.2214	-0.09119999	-0.3707	
-0.83082	0.19154	0.352946	8.4	97.09	-15.4	0.2346	-0.098	-0.3623	
-0.877302	0.183366	0.307806	9.94	97.51	-14.84	0.2456	-0.0889	-0.3536	
-0.931348	0.194712	0.284504	10.78	94.22	-15.82	0.2574	-0.0939	-0.3421	
-0.903044	0.15433	0.263032	10.36	95.69	-13.65	0.2773	-0.0979	-0.3349	
-0.945378	0.14945	0.228384	7.84	90.51	-13.16	0.2745	-0.0962	-0.3334	
-0.95587	0.15494	0.209474	9.03	87.92	-12.46	0.2885	-0.0904	-0.323	
-0.984662	0.159942	0.169214	7.91	88.2	-12.6	0.3082	-0.0865	-0.3124	
-0.979172	0.162382	0.165066	5.04	83.79	-11.27	0.3137	-0.102	-0.3	
-0.971608	0.17446	0.124074	5.81	81.55	-10.29	0.3248	-0.0945	-0.2897	
-0.97478	0.181658	0.110654	5.11	75.6	-9.17	0.3297	-0.1007	-0.2802	
-0.99552	0.179218	0.075396	4.9	72.52	-8.96	0.3315	-0.0941	-0.2657	
-1.02541	0.180194	0.074054	1.05	76.3	-8.54	0.363	-0.0951	-0.242	
-1.034682	0.176656	0.062586	1.19	66.64	-8.82	0.3618	-0.0949	-0.2374	
-1.024556	0.170068	0.041968	1.82	64.12	-8.82	0.3716	-0.0922	-0.2336	
-1.01748	0.15494	0.02257	4.62	62.72	-7.56	0.3601	-0.0788	-0.2275	
-1.01199	0.138348	-0.005368	4.27	61.81	-5.95	0.371	-0.0867	-0.2098	
-1.002352	0.148352	-0.012932	6.79	64.26	-4.62	0.3742	-0.0898	-0.205	
-1.011136	0.15677	-0.045384	5.67	61.67	-3.36	0.3935	-0.0861	-0.2007	
-1.014552	0.150914	-0.0366	5.67	57.96	-2.73	0.3817	-0.0849	-0.1856	
-1.019188	0.148718	-0.049654	5.81	63.14	-1.75	0.3978	-0.0917	-0.1739	
-1.014552	0.15677	-0.08686399	4.9	55.58	-2.24	0.399	-0.0838	-0.1689	
-1.003084	0.16409	-0.104432	5.18	54.6	-1.54	0.4091	-0.0922	-0.1702	
-1.018456	0.162382	-0.122	2.17	51.03	-2.17	0.4073	-0.0914	-0.1482	
-1.025654	0.167994	-0.133468	1.33	47.95	-3.36	0.4156	-0.0837	-0.1396	
-1.021262	0.163114	-0.146644	0.98	44.73	-3.01	0.4164	-0.0945	-0.1337	
-1.0187	0.144082	-0.168482	0.28	43.05	-2.24	0.4112	-0.0972	-0.1293	
-1.021994	0.13237	-0.17812	1.33	42.98	-2.31	0.4147	-0.08329999	-0.1287	
-1.00101	0.132126	-0.208864	-2.66	34.23	-2.59	0.4184	-0.08769999	-0.1144	
-0.98271	0.13908	-0.233386	-0.14	32.41	-2.8	0.4168	-0.0861	-0.116	
-0.973926	0.133346	-0.241316	-1.89	30.87	-2.66	0.4273	-0.0959	-0.1095	
-0.977952	0.13542	-0.246928	-1.47	30.52	-2.73	0.43	-0.09119999	-0.1061	
-0.985516	0.128954	-0.265472	-4.55	28.14	-2.52	0.4294	-0.0835	-0.109	
-0.998204	0.142984	-0.263154	-0.98	23.66	-3.01	0.4275	-0.08769999	-0.0966	
-0.970022	0.141642	-0.246684	0.35	13.51	-2.59	0.4369	-0.0819	-0.0944	
-0.95953	0.143594	-0.273402	0.49	18.48	-2.66	0.4382	-0.0788	-0.0942	
-0.95892	0.152012	-0.271206	2.17	18.97	-3.29	0.4262	-0.0794	-0.0854	
-0.931714	0.139324	-0.25925	2.52	16.17	-2.24	0.4343	-0.0784	-0.0881	
-0.93635	0.133346	-0.255712	4.48	18.55	-1.96	0.4403	-0.0784	-0.0783	
-0.979538	0.143106	-0.259616	11.27	19.6	-1.82	0.4488	-0.0771	-0.0715	
-1.000278	0.184586	-0.219478	13.16	24.5	-1.26	0.4408	-0.0878	-0.077	
-1.000522	0.113826	-0.247538	4.97	23.66	0	0.441	-0.0779	-0.0625	
-0.97905	0.137006	-0.225944	0.91	19.6	0.98	0.4297	-0.0774	-0.0678	
-0.987834	0.155916	-0.243024	11.13	24.64	0.14	0.446	-0.09209999	-0.0596	
-0.968314	0.151646	-0.27328	9.59	23.38	0.42	0.4417	-0.0823	-0.0532	
-0.978318	0.135664	-0.260836	4.97	21.35	-0.77	0.4443	-0.08419999	-0.0578	
-0.987346	0.14579	-0.264618	2.8	25.13	-1.47	0.4485	-0.0828	-0.0544	
-0.98881	0.148108	-0.263276	4.48	23.52	-1.54	0.4434	-0.0821	-0.0452	
-0.96197	0.147864	-0.288408	-2.87	18.34	-1.82	0.4422	-0.0803	-0.0405	
-0.966484	0.135542	-0.287188	-9.31	26.32	-3.15	0.4517	-0.0827	-0.0464	
-0.961726	0.135664	-0.294874	2.31	23.59	-2.87	0.4506	-0.0759	-0.032	
-0.853268	0.13542	-0.338916	-4.62	15.75	-9.45	0.4524	-0.07889999	-0.0257	
-0.965508	0.1464	-0.25925	4.76	27.79	-4.55	0.4529	-0.0834	-0.0211	
-0.94428	0.151646	-0.363072	4.97	22.96	-2.59	0.4431	-0.0829	-0.0232	
-0.96624	0.136884	-0.331474	2.03	25.2	-2.17	0.4455	-0.0753	-0.0228	
-0.929152	0.10614	-0.346602	6.79	24.29	-1.61	0.4614	-0.079	-0.0127	
-0.955016	0.123098	-0.364414	4.69	23.31	-1.05	0.4403	-0.0731	-0.0136	
-0.970144	0.127002	-0.367586	7.77	23.1	-1.12	0.4534	-0.0766	-0.002	
-0.919026	0.116388	-0.397964	5.53	24.85	-0.28	0.4575	-0.0769	-0.0049	
-0.909388	0.119926	-0.387228	6.16	28.35	0.14	0.4576	-0.0784	-0.0034	
-0.920612	0.123586	-0.405284	4.06	25.27	-0.56	0.4512	-0.07759999	0.0088	
-0.943304	0.130296	-0.403454	6.16	22.68	-1.12	0.4503	-0.0772	0.0182	
-0.928542	0.125294	-0.42822	5.6	22.33	-1.47	0.4541	-0.0729	0.0154	
-0.927444	0.115656	-0.446032	3.29	21.07	-2.17	0.4574	-0.0775	0.0217	
-0.902922	0.125294	-0.441518	4.34	18.9	-1.61	0.4577	-0.0822	0.0231	
-0.898164	0.136884	-0.45933	5.32	17.57	-0.91	0.4573	-0.0695	0.0299	
-0.904996	0.129808	-0.453108	3.92	17.01	-0.07	0.4664	-0.0824	0.0315	
-0.891942	0.126636	-0.451644	4.76	17.01	-0.28	0.4585	-0.0762	0.0187	
-0.893406	0.13054	-0.455548	3.22	16.87	-0.84	0.4577	-0.07889999	0.028	
-0.898896	0.129686	-0.460184	1.47	18.97	-0.84	0.4542	-0.0831	0.0371	
-0.88145	0.12627	-0.470676	3.92	18.48	-0.42	0.459	-0.0661	0.0395	
-0.900848	0.11956	-0.48495	4.62	17.22	0	0.4616	-0.0696	0.0332	
-0.873276	0.113338	-0.479338	4.76	14.56	1.26	0.4594	-0.0772	0.036	
-0.905972	0.107238	-0.483364	2.73	16.73	0.98	0.4496	-0.0718	0.0388	
-0.901336	0.10553	-0.495564	3.22	15.82	0.14	0.4572	-0.0718	0.0534	
-0.886696	0.110532	-0.492392	7.35	14.21	-0.07	0.46	-0.0719	0.0535	
-0.870836	0.117486	-0.50569	4.06	11.9	0.28	0.4576	-0.0779	0.0563	
-0.898286	0.110776	-0.494832	2.52	14.63	-0.42	0.4616	-0.0766	0.055	
-0.885598	0.107726	-0.514962	4.2	12.39	-0.63	0.4547	-0.0714	0.0596	
-0.88267	0.107238	-0.486902	4.2	10.29	0.07	0.4588	-0.07009999	0.0598	
-0.878644	0.109312	-0.495198	6.51	10.85	0.07	0.4589	-0.07	0.063	
-0.874618	0.104432	-0.499102	3.08	11.34	0.14	0.4597	-0.0759	0.0738	
-0.880352	0.109434	-0.51606	2.94	12.67	-0.21	0.4573	-0.0668	0.0614	
-0.873154	0.116632	-0.527406	4.9	9.03	0.07	0.4615	-0.079	0.0785	
-0.862662	0.117242	-0.513864	3.78	7.42	0.14	0.4623	-0.0665	0.0806	
-0.85766	0.112606	-0.536434	3.22	6.72	0.28	0.4626	-0.0727	0.0804	
-0.858148	0.119316	-0.543266	3.36	6.16	0.49	0.4588	-0.0771	0.0832	
-0.86559	0.124074	-0.554734	0.77	6.23	0	0.4608	-0.0713	0.0725	
-0.867786	0.124684	-0.546804	0.14	4.62	-0.28	0.4599	-0.0757	0.0786	
-0.86681	0.11651	-0.54656	-0.14	2.59	-0.49	0.457	-0.079	0.0704	
-0.866932	0.110166	-0.548146	-1.12	0.77	-0.91	0.4573	-0.0803	0.07669999	
-0.862296	0.104188	-0.570716	-0.35	0.21	-1.19	0.457	-0.0773	0.0736	
-0.863272	0.096014	-0.56364	-0.77	-3.92	-0.42	0.4626	-0.0792	0.07229999	
-0.870104	0.10736	-0.565836	-1.05	-5.25	0.07	0.4592	-0.0698	0.0693	
-0.875472	0.113094	-0.569984	-0.07	-7.14	0.49	0.4597	-0.0792	0.069	
-0.873886	0.113216	-0.574498	-2.94	-8.26	0	0.463	-0.0806	0.0786	
-0.86559	0.111752	-0.572424	0.21	-11.48	0.28	0.4579	-0.0761	0.0643	
-0.86132	0.103334	-0.560834	-3.22	-12.6	0.42	0.4549	-0.0713	0.0643	
-0.874252	0.10553	-0.553758	-5.53	-13.23	0.63	0.4589	-0.0749	0.0565	
-0.879254	0.116632	-0.547536	-2.87	-16.31	0.98	0.4538	-0.084	0.0559	
-0.878278	0.11407	-0.543632	-4.13	-19.53	0.84	0.4643	-0.072	0.0585	
-0.882548	0.101382	-0.529602	-8.54	-21.49	0.42	0.4626	-0.0873	0.0642	
-0.904752	0.118584	-0.508618	-6.02	-25.55	0.49	0.4559	-0.0748	0.0532	
-0.914512	0.129686	-0.499834	-7	-29.47	0.56	0.4555	-0.0654	0.0551	
-0.916708	0.122122	-0.498736	-10.43	-31.71	0.84	0.4589	-0.0764	0.0565	
-0.928664	0.097966	-0.474702	-13.3	-35	1.54	0.464	-0.0803	0.0424	
-0.935618	0.101016	-0.470066	-8.68	-42.14	2.17	0.4647	-0.0793	0.0283	
-0.926956	0.117852	-0.452986	-5.46	-47.67	2.66	0.4587	-0.0712	0.0267	
-0.934886	0.131638	-0.431026	-3.64	-50.05	2.31	0.4586	-0.08419999	0.0121	
-0.941718	0.133712	-0.425902	-13.72	-54.25	0.21	0.4497	-0.0809	0.0023	
-0.973804	0.125172	-0.370636	-15.12	-61.53	-0.42	0.4557	-0.0771	-0.0129	
-0.942694	0.123342	-0.358924	-9.87	-55.86	0.35	0.4513	-0.0786	-0.0195	
-0.978318	0.120414	-0.381128	-8.89	-51.38	-0.28	0.4527	-0.08199999	-0.0243	
-0.975634	0.109068	-0.321348	-7.49	-59.22	-0.98	0.456	-0.0763	-0.0349	
-0.986126	0.11834	-0.281088	-1.68	-59.5	-2.03	0.4526	-0.0782	-0.0509	
-1.021262	0.121268	-0.300486	-5.95	-49.14	-2.73	0.4524	-0.0735	-0.0507	
-0.988444	0.133468	-0.328546	-2.31	-50.4	-1.19	0.447	-0.0779	-0.0528	
-0.976366	0.142618	-0.271328	-1.68	-46.76	-0.56	0.4423	-0.0748	-0.0608	
-0.967582	0.149572	-0.253882	-5.46	-48.16	-0.42	0.4365	-0.0795	-0.07229999	
-1.004304	0.14518	-0.266814	0.14	-39.55	-0.28	0.433	-0.0718	-0.0801	
-0.99674	0.11041	-0.212524	-12.25	-49.91	0.42	0.4394	-0.0742	-0.0924	
-0.98271	0.12383	-0.208742	-5.88	-49.91	1.4	0.4377	-0.0727	-0.0971	
-0.994544	0.107604	-0.243024	-12.46	-50.75	0.98	0.4262	-0.0739	-0.1088	
-0.988932	0.11895	-0.201544	-2.94	-51.1	1.33	0.4272	-0.0727	-0.115	
-0.976732	0.1098	-0.196664	-6.16	-57.4	2.52	0.4315	-0.0809	-0.1214	
-0.99064	0.09942999	-0.151036	-3.43	-54.88	3.5	0.4259	-0.0671	-0.1369	
-1.000278	0.09577	-0.116144	-1.82	-57.47	4.41	0.4224	-0.07449999	-0.1311	
-1.002962	0.086498	-0.112362	-9.45	-60.69	3.43	0.416	-0.0699	-0.1439	
-1.001376	0.118706	-0.072346	-6.86	-64.4	3.92	0.4052	-0.0734	-0.1729	
-1.012722	0.134688	-0.053802	-2.87	-67.13	5.67	0.3994	-0.0716	-0.1763	
-1.021994	0.146278	-0.019642	-0.35	-69.79	6.79	0.3863	-0.0696	-0.1879	
-1.035414	0.138958	-0.029158	-4.41	-75.39	6.93	0.391	-0.0874	-0.1962	
-0.983076	0.123586	-0.036844	-2.1	-74.55	6.65	0.3778	-0.0791	-0.2045	
-0.969168	0.127856	-0.01525	0.49	-61.18	5.74	0.3791	-0.08899999	-0.2173	
-0.968924	0.125904	0.06734399	-0.91	-69.72	5.67	0.3603	-0.0819	-0.226	
-0.984052	0.125538	0.073688	-4.97	-67.55	6.16	0.3631	-0.0837	-0.2275	
-1.015772	0.150792	0.112972	2.66	-65.59	7.35	0.355	-0.0792	-0.2482	
-0.999912	0.147742	0.123586	-2.87	-70.98	8.33	0.35	-0.0915	-0.2505	
-0.9699	0.146034	0.12261	-2.24	-71.26	8.61	0.3398	-0.0848	-0.2555	
-0.911828	0.141276	0.13603	-6.86	-74.48	7.07	0.3333	-0.0819	-0.2731	
-1.331996	0.188246	0.171776	0.07	-73.01	-0.21	0.3246	-0.085	-0.2847	
0.303902	0.040382	0.296094	-9.59	-85.05	12.88	0.33	-0.0935	-0.2973	
-0.983076	0.17995	0.264618	-2.66	-60.34	9.59	0.3117	-0.0893	-0.2981	
-0.941962	0.15372	0.292312	-3.15	-88.27	12.25	0.3109	-0.0802	-0.3057	
-0.935984	0.15494	0.31415	-11.27	-72.94	11.27	0.3014	-0.0892	-0.3128	
-0.889136	0.13664	0.314028	-10.5	-81.13	11.55	0.2776	-0.088	-0.3188	
-0.906338	0.127856	0.360388	-11.27	-77.7	12.6	0.267	-0.088	-0.3366	
-0.898774	0.146644	0.388814	-7.14	-75.46	12.95	0.2543	-0.0762	-0.3306	
-0.896334	0.150182	0.415776	-7.49	-78.33	14	0.2467	-0.0843	-0.3533	
-0.87962	0.147498	0.403088	-5.53	-78.33	15.12	0.2349	-0.0858	-0.3713	
-0.863394	0.136396	0.424682	-7.35	-76.3	14.98	0.2237	-0.0836	-0.3719	
-0.833992	0.156038	0.442128	-6.79	-77.21	13.86	0.2198	-0.0913	-0.3755	
-0.823378	0.171898	0.484706	-5.25	-75.18	12.74	0.2023	-0.0844	-0.3872	
-0.786168	0.169824	0.503982	-3.92	-75.32	12.95	0.1855	-0.0869	-0.3961	
-0.811056	0.172386	0.54107	-3.85	-72.1	13.3	0.1814	-0.0865	-0.3931	
-0.752252	0.183976	0.534726	-6.3	-74.55	12.6	0.1678	-0.0769	-0.4093	
-0.7442	0.203984	0.537166	-9.24	-73.5	10.99	0.1669	-0.0846	-0.4064	
-0.727608	0.20801	0.575352	-12.39	-74.41	9.52	0.1532	-0.0836	-0.4024	
-0.735538	0.209108	0.601582	-12.46	-73.08	8.89	0.1426	-0.0772	-0.4153	
-0.694912	0.202764	0.622932	-10.01	-74.06	10.01	0.1369	-0.0802	-0.422	
-0.65575	0.188612	0.656238	-11.97	-74.83	11.55	0.1198	-0.0731	-0.4259	
-0.637694	0.177754	0.686372	-12.25	-73.01	10.36	0.115	-0.0733	-0.4403	
-0.624274	0.177144	0.720654	-16.31	-73.64	9.66	0.1031	-0.0787	-0.4348	
-0.633058	0.199836	0.750056	-9.73	-67.97	9.52	0.08639999	-0.0762	-0.4356	
-0.538142	0.171776	0.751276	-9.17	-66.22	10.43	0.0845	-0.0716	-0.4419	
-0.543022	0.17629	0.772382	-12.67	-64.89	10.71	0.0693	-0.0658	-0.4346	
-0.52399	0.18361	0.78141	-11.27	-63.42	11.27	0.0582	-0.07	-0.4401	
-0.463234	0.174216	0.804712	-14.28	-64.54	10.22	0.0564	-0.0654	-0.4447	
-0.514718	0.165676	0.831308	-14.42	-62.51	7.91	0.0406	-0.0551	-0.4452	
-0.36295	0.157624	0.838872	-8.19	-63.7	8.12	0.0306	-0.058	-0.4569	
-0.437248	0.182512	0.866322	-12.74	-57.75	6.86	0.0156	-0.0586	-0.453	
-0.342942	0.177144	0.87474	-9.59	-59.57	6.09	0.0027	-0.0647	-0.4696	
-0.38369	0.15616	0.89426	-13.23	-55.65	5.95	-0.0083	-0.0527	-0.4572	
-0.340014	0.144326	0.885598	-10.29	-56.77	6.79	-0.0177	-0.0583	-0.4563	
-0.350018	0.155916	0.911096	-13.02	-52.78	5.39	-0.0189	-0.0581	-0.4532	
-0.301218	0.153598	0.920002	-13.79	-54.04	3.71	-0.036	-0.0526	-0.4587	
-0.347822	0.166652	0.935496	-11.2	-46.9	3.01	-0.0363	-0.0463	-0.4569	
-0.266326	0.152134	0.920612	-9.8	-46.9	2.8	-0.0483	-0.0534	-0.4562	
-0.353068	0.169336	0.941474	-10.92	-39.62	2.03	-0.0511	-0.0549	-0.458	
-0.301706	0.16226	0.94916	-13.93	-43.12	1.19	-0.0604	-0.0324	-0.4561	
-0.332084	0.15311	0.956358	-12.53	-38.57	0.98	-0.067	-0.0398	-0.4567	
-0.25742	0.131882	0.966972	-13.23	-37.59	0.98	-0.0653	-0.0365	-0.4471	
-0.285602	0.117608	0.98393	-13.51	-31.43	0.35	-0.0749	-0.0504	-0.4607	
-0.2745	0.112362	0.981002	-12.46	-26.6	-0.42	-0.0826	-0.0344	-0.4605	
-0.22387	0.111752	0.99125	-11.27	-25.41	0.14	-0.0869	-0.0261	-0.4542	
-0.250222	0.122122	0.991616	-8.82	-21.63	0	-0.0939	-0.0274	-0.4578	
-0.26596	0.110288	0.981978	-8.89	-21.49	-0.07	-0.08679999	-0.0325	-0.4591	
-0.247904	0.097356	0.98698	-8.82	-19.25	-0.42	-0.0991	-0.0349	-0.4583	
-0.222528	0.089304	0.986614	-9.31	-19.32	-0.7	-0.1004	-0.0315	-0.4535	
-0.223748	0.093452	0.97722	-7.63	-14.49	-0.7	-0.1076	-0.0232	-0.4505	
-0.248636	0.101748	0.973438	-8.61	-12.74	-0.07	-0.1038	-0.0269	-0.4614	
-0.246074	0.085888	0.981002	-7.42	-12.67	0	-0.1003	-0.0266	-0.4455	
-0.228994	0.103456	0.988566	-4.13	-12.6	-0.35	-0.111	-0.0138	-0.4535	
-0.19764	0.151646	1.003572	-2.59	-12.18	-1.12	-0.1105	-0.0199	-0.4505	
-0.233874	0.103456	0.99796	-6.93	-9.03	-1.68	-0.1082	-0.0123	-0.4517	
-0.216672	0.005246	1.002718	-7.63	-5.18	-1.4	-0.1141	-0.0106	-0.4583	
-0.23058	0.007442	1.003694	-4.27	-3.29	-0.91	-0.118	-0.0053	-0.4457	
-0.228262	0.055876	0.991372	0	-3.85	-1.05	-0.1178	-0.0116	-0.449	
-0.21472	0.07808	0.996496	1.19	-1.54	-2.1	-0.1098	-0.0075	-0.45	
-0.228628	0.086986	1.001742	2.1	1.82	-2.31	-0.1166	-0.0135	-0.4553	
-0.2623	0.08784	0.991982	1.82	3.64	-1.12	-0.1131	-0.0228	-0.4492	
-0.25803	0.077958	0.98698	1.82	6.16	-0.35	-0.1137	-0.0119	-0.4504	
-0.239974	0.07905599	0.9882	4.27	7	-0.28	-0.1143	-0.0259	-0.4493	
-0.230824	0.097356	0.989298	5.32	7.63	-0.21	-0.1075	-0.0031	-0.4561	
-0.222894	0.100894	0.995764	5.18	9.94	0	-0.1096	-0.0122	-0.4518	
-0.217648	0.091744	1.013454	5.11	13.16	0.35	-0.1124	-0.0201	-0.4601	
-0.21411	0.091744	1.024434	5.74	15.33	1.19	-0.1077	-0.0265	-0.4553	
-0.216672	0.09552599	1.04127	5.18	18.13	1.68	-0.1039	-0.0238	-0.4613	
-0.21716	0.09516	1.042124	5.6	21.21	1.4	-0.1017	-0.0281	-0.4472	
-0.207278	0.103822	1.0431	7	25.06	0.49	-0.1071	-0.0294	-0.4475	
-0.19947	0.099552	1.036878	8.4	29.82	-0.14	-0.0944	-0.0245	-0.464	
-0.213622	0.104432	1.03822	8.47	35.56	-0.84	-0.094	-0.0177	-0.4496	
-0.223016	0.10553	1.035658	10.43	39.83	-1.68	-0.0928	-0.0211	-0.4559	
-0.234728	0.10675	1.039074	12.81	44.52	-2.52	-0.0849	-0.0171	-0.4601	
-0.232776	0.120658	1.009428	13.65	49.63	-3.08	-0.0815	-0.0265	-0.4571	
-0.247904	0.116998	0.997716	16.59	52.57	-2.66	-0.0606	-0.0293	-0.456	
-0.272182	0.116022	0.989298	15.47	57.12	-4.2	-0.0451	-0.0348	-0.4554	
-0.28914	0.113582	0.968192	17.22	61.39	-5.74	-0.0363	-0.0415	-0.452	
-0.31964	0.122366	0.928908	21.07	67.2	-6.37	-0.0271	-0.0375	-0.4577	
-0.360876	0.135542	0.92354	22.26	71.05	-7.28	-0.017	-0.0492	-0.4623	
-0.38857	0.131272	0.906216	22.54	70.91	-6.86	-0.0127	-0.0542	-0.4638	
-0.416264	0.141032	0.903166	23.31	75.53	-7.42	0.0042	-0.0549	-0.4566	
-0.436516	0.153598	0.87657	25.06	76.72	-6.72	0.0102	-0.0597	-0.4502	
-0.452254	0.167506	0.842288	21.7	80.99	-8.05	0.0285	-0.0703	-0.4543	
-0.466162	0.177754	0.816668	20.93	84.28	-7.42	0.0451	-0.0681	-0.4533	
-0.496174	0.181658	0.795562	19.32	87.15	-7.35	0.0523	-0.0667	-0.445	
-0.530334	0.190808	0.74481	18.62	89.53	-7.7	0.0651	-0.0721	-0.4429	
-0.571448	0.19276	0.717848	19.32	92.68	-7.63	0.0831	-0.0747	-0.4436	
-0.589016	0.211548	0.685884	18.13	92.05	-8.82	0.0866	-0.0809	-0.4358	
-0.610366	0.1952	0.655628	16.38	92.47	-9.45	0.1107	-0.0803	-0.4219	
-0.640378	0.194712	0.62525	15.4	94.85	-9.17	0.1203	-0.0841	-0.4278	
-0.641964	0.181902	0.609268	15.96	95.9	-9.1	0.1332	-0.0878	-0.4225	
-0.658922	0.163236	0.579134	11.9	96.46	-10.64	0.1464	-0.0913	-0.4093	
-0.7015	0.161284	0.53619	15.4	97.37	-11.06	0.1624	-0.0862	-0.4162	
-0.74054	0.177632	0.50386	13.44	97.37	-12.46	0.1672	-0.0844	-0.4001	
-0.774578	0.18483	0.472262	13.23	97.51	-12.32	0.1927	-0.09999999	-0.404	
-0.819596	0.167872	0.41785	10.43	95.69	-12.88	0.2158	-0.0958	-0.3774	
-0.8174	0.147498	0.389912	6.37	94.43	-14.91	0.2314	-0.0948	-0.3671	
-0.843386	0.158478	0.359656	10.92	93.52	-14.49	0.2345	-0.08989999	-0.3542	
-0.85949	0.180804	0.34587	7.84	92.82	-14.63	0.2572	-0.0957	-0.3485	
-0.891454	0.166164	0.306342	5.53	90.93	-14.42	0.2628	-0.0944	-0.3465	
-0.9089	0.141886	0.29951	8.89	89.46	-11.62	0.2799	-0.095	-0.3362	
-0.925492	0.15311	0.250466	7.84	89.46	-11.27	0.2885	-0.0969	-0.3311	
-0.942572	0.164578	0.23485	9.45	87.08	-10.5	0.2948	-0.0967	-0.3134	
-0.951112	0.17324	0.213012	10.22	85.26	-9.52	0.3105	-0.094	-0.2999	
-0.951722	0.151646	0.179462	5.18	86.24	-9.31	0.3163	-0.0958	-0.2965	
-0.951234	0.147376	0.141032	8.4	80.71	-7.35	0.3279	-0.09119999	-0.28	
-0.981734	0.165432	0.13176	9.38	84.28	-7.56	0.3363	-0.09	-0.2763	
-0.969778	0.184952	0.102358	8.89	80.36	-8.12	0.3436	-0.0853	-0.2616	
-1.012966	0.198006	0.09577	8.12	79.45	-8.26	0.3583	-0.0953	-0.2549	
-1.021994	0.187514	0.037942	8.05	74.62	-7.14	0.3602	-0.0949	-0.2422	
-0.981856	0.168482	0.038918	7.21	73.5	-6.65	0.3718	-0.0969	-0.2337	
-0.984418	0.154452	-0.010858	8.47	72.31	-6.72	0.379	-0.0873	-0.2157	
-0.990152	0.163602	-0.035624	8.82	70.84	-6.93	0.3881	-0.0986	-0.2109	
-1.015894	0.15189	-0.084668	10.78	68.04	-6.86	0.3969	-0.0907	-0.1913	
-0.949282	0.143472	-0.117974	9.17	69.72	-6.23	0.3934	-0.0949	-0.1837	
-0.967582	0.135542	-0.151158	9.45	70.21	-6.23	0.3985	-0.0944	-0.1614	
-1.017724	0.14823	-0.177632	5.81	67.83	-6.72	0.4085	-0.0932	-0.1529	
-0.993202	0.151158	-0.236558	7.7	64.82	-7.07	0.3981	-0.0817	-0.1563	
-0.960506	0.134566	-0.263642	4.76	66.22	-6.51	0.4119	-0.0881	-0.1353	
-1.019066	0.124806	-0.289018	4.2	68.53	-5.25	0.4153	-0.091	-0.1242	
-1.006622	0.13542	-0.265228	8.05	64.96	-4.27	0.4292	-0.09339999	-0.1251	
-1.031388	0.137738	-0.29097	3.5	67.55	-3.22	0.4265	-0.0851	-0.1139	
-0.986126	0.118096	-0.280478	5.81	70.28	-4.13	0.4286	-0.0863	-0.0997	
-0.960506	0.115168	-0.308416	4.97	65.31	-3.15	0.4358	-0.08	-0.0881	
-0.972218	0.112362	-0.330742	5.18	62.79	-4.27	0.4297	-0.0888	-0.0808	
-0.980148	0.111508	-0.344406	3.99	56.98	-4.48	0.4366	-0.0795	-0.0707	
-0.986492	0.11712	-0.36722	1.26	46.76	-5.04	0.4371	-0.084	-0.0645	
-0.97661	0.123708	-0.356484	1.47	48.02	-2.45	0.4393	-0.0883	-0.0504	
-0.943304	0.125416	-0.319518	-3.92	40.11	0.35	0.4475	-0.0824	-0.0466	
-0.951844	0.153598	-0.323666	-14.77	18.9	1.68	0.4468	-0.0867	-0.0373	
-0.964166	0.157502	-0.320494	-16.73	2.45	1.12	0.4411	-0.0768	-0.0294	
-0.95465	0.178852	-0.351604	-4.76	-8.33	0.84	0.4439	-0.0883	-0.0423	
-0.961116	0.159576	-0.336842	-5.6	9.8	-0.56	0.4364	-0.085	-0.0504	
-0.989908	0.152134	-0.321836	-1.26	16.59	-0.84	0.4506	-0.0791	-0.0353	
-1.012722	0.169946	-0.28426	3.85	22.75	0.84	0.4487	-0.0729	-0.0399	
-0.955748	0.12139	-0.314028	6.37	16.52	-0.56	0.4425	-0.0834	-0.0374	
-1.09312	0.122976	-0.362096	-8.75	16.17	-4.34	0.4453	-0.077	-0.0292	
-0.977098	0.12749	-0.311466	1.75	20.65	2.66	0.4498	-0.0819	-0.026	
-0.97539	0.133102	-0.34587	-3.64	24.29	1.96	0.4485	-0.0866	-0.0309	
-1.05042	0.098454	-0.312686	8.89	33.95	4.41	0.4452	-0.0858	-0.0122	
-0.99247	0.11834	-0.36234	-1.82	19.11	6.79	0.4541	-0.0923	-0.0056	
-1.00894	0.122122	-0.305122	3.85	28.07	6.3	0.4561	-0.0817	-0.0099	
-0.939766	0.156282	-0.385154	17.43	20.58	7.49	0.4441	-0.0871	-0.0076	
-0.913658	0.155794	-0.34221	6.23	23.38	5.81	0.4525	-0.0843	-0.0007	
-0.928054	0.181048	-0.368196	11.55	25.06	5.11	0.4574	-0.0889	0.0103	
-0.92598	0.176534	-0.401014	9.8	24.85	3.5	0.4529	-0.0905	0.0006	
-0.937692	0.193858	-0.392108	9.03	20.37	1.54	0.462	-0.0937	0.0135	
-0.923174	0.185806	-0.401746	5.67	20.02	0.14	0.4543	-0.0841	0.0071	
-0.906582	0.175558	-0.418826	2.31	20.93	-0.84	0.4581	-0.0916	0.0228	
-0.915976	0.17324	-0.395158	-2.73	14.91	-1.61	0.4485	-0.0926	0.0223	
-0.920734	0.166774	-0.395402	1.26	16.45	-2.87	0.4562	-0.0854	0.0182	
-0.919636	0.144448	-0.435906	-2.8	17.36	-2.52	0.4556	-0.0881	0.0307	
-0.921344	0.137128	-0.46543	-1.12	16.87	-1.75	0.4589	-0.0927	0.037	
-0.8906	0.13908	-0.454572	-0.63	13.09	-1.47	0.4552	-0.0851	0.026	
-0.871324	0.132492	-0.449936	0.98	11.2	-1.26	0.4553	-0.0834	0.0293	
-0.891942	0.126026	-0.445422	1.82	13.44	-1.47	0.4545	-0.0926	0.032	
-0.901092	0.133956	-0.443836	2.8	12.81	-1.96	0.4662	-0.0945	0.0436	
-0.894748	0.131516	-0.45262	2.24	10.85	-2.38	0.4589	-0.0878	0.0435	
-0.910852	0.130296	-0.469822	7.21	10.64	-2.73	0.4548	-0.09079999	0.0416	
-0.876082	0.138226	-0.485926	6.37	8.33	-2.8	0.4546	-0.0861	0.0417	
-0.88877	0.147986	-0.45689	4.83	8.75	-2.94	0.4604	-0.0797	0.0548	
-0.900238	0.151646	-0.47519	4.69	9.38	-2.94	0.4605	-0.0829	0.0532	
-0.895968	0.13725	-0.481412	0.77	11.13	-2.94	0.4551	-0.0809	0.0577	
-0.886574	0.140544	-0.485804	3.01	7.91	-2.8	0.4592	-0.0844	0.053	
-0.874252	0.135908	-0.474946	5.46	8.19	-2.94	0.457	-0.0903	0.059	
-0.877546	0.134566	-0.485926	1.19	9.45	-2.24	0.4585	-0.0751	0.0486	
-0.88206	0.14579	-0.490562	2.73	10.5	-2.8	0.4618	-0.0814	0.0533	
-0.89121	0.13969	-0.472994	2.52	8.68	-2.66	0.4695	-0.0861	0.0646	
-0.88206	0.117608	-0.509228	2.1	8.4	-2.24	0.4595	-0.0858	0.0577	
-0.86254	0.129564	-0.51301	3.85	8.26	-2.31	0.4649	-0.083	0.0581	
-0.871446	0.127368	-0.490928	3.78	8.26	-1.89	0.4611	-0.0792	0.0706	
-0.87047	0.108336	-0.512644	3.15	9.24	-1.75	0.4579	-0.0729	0.0675	
-0.87718	0.113338	-0.526308	0.56	12.11	-1.47	0.4595	-0.0809	0.0626	
-0.867542	0.116998	-0.532164	5.46	10.78	-1.47	0.4565	-0.0777	0.0626	
-0.853756	0.110532	-0.521672	3.15	8.68	-1.33	0.4556	-0.0757	0.0736	
-0.880352	0.11041	-0.507154	6.58	8.05	-1.4	0.4613	-0.0774	0.077	
-0.878644	0.10736	-0.535214	3.43	10.92	-1.05	0.457	-0.07889999	0.072	
-0.877424	0.119316	-0.545706	7.49	8.75	-1.05	0.4666	-0.0812	0.0677	
-0.863638	0.131516	-0.546804	5.11	6.58	-1.47	0.4598	-0.0807	0.0705	
-0.873764	0.137494	-0.549854	5.11	7.21	-1.89	0.4571	-0.0756	0.0769	
-0.857172	0.139812	-0.564372	3.64	4.27	-1.89	0.4569	-0.0709	0.077	
-0.86315	0.124074	-0.540826	1.61	2.52	-1.75	0.463	-0.07889999	0.0818	
-0.86071	0.120658	-0.552294	0.56	1.61	-1.26	0.4553	-0.0613	0.0835	
-0.86315	0.119316	-0.563274	-0.21	0.28	-0.98	0.4543	-0.0787	0.0734	
-0.871324	0.113948	-0.56547	-2.24	-2.8	-0.98	0.4583	-0.0759	0.0722	
-0.851438	0.105896	-0.568886	-2.66	-5.11	-0.49	0.454	-0.079	0.0656	
-0.857416	0.104554	-0.553148	-2.1	-7.77	0.63	0.4654	-0.0762	0.0757	
-0.8845	0.106872	-0.547536	-2.1	-9.87	1.26	0.4611	-0.0808	0.069	
-0.893284	0.10248	-0.556808	-1.05	-12.88	1.47	0.4586	-0.0757	0.0785	
-0.881816	0.089792	-0.56059	-3.08	-14.98	1.54	0.4666	-0.078	0.07099999	
-0.881206	0.101016	-0.555344	-2.17	-18.76	2.31	0.4566	-0.0711	0.0707	
-0.882792	0.114314	-0.555832	-1.54	-21.7	3.36	0.4574	-0.0667	0.0646	
-0.894504	0.112362	-0.552294	-5.18	-23.17	3.64	0.4663	-0.0782	0.0647	
-0.920002	0.104798	-0.540826	-11.48	-24.5	3.99	0.4627	-0.0737	0.052	
-0.91927	0.12444	-0.5002	-5.18	-34.02	4.2	0.456	-0.0796	0.0499	
-0.900604	0.12322	-0.51179	-6.09	-38.22	4.48	0.4588	-0.0846	0.0451	
-0.920002	0.120658	-0.50386	-7.07	-38.92	4.41	0.4614	-0.09299999	0.0324	
-0.912682	0.116022	-0.503982	-8.96	-46.83	4.69	0.4525	-0.0849	0.0275	
-0.92598	0.121878	-0.474092	-7.42	-54.39	5.6	0.4466	-0.0831	0.0225	
-0.927078	0.137494	-0.452376	-7.84	-60.2	5.46	0.4624	-0.0831	0.006	
-0.956846	0.14091	-0.45445	-22.47	-65.31	2.38	0.4581	-0.0878	-0.0037	
-0.950624	0.143838	-0.38369	-16.31	-72.73	2.8	0.4592	-0.0865	-0.0083	
-0.970388	0.13908	-0.360144	-15.33	-69.09	3.22	0.4468	-0.077	-0.026	
-1.018212	0.150182	-0.371002	-13.65	-70.56	2.52	0.4552	-0.0872	-0.0353	
-0.98698	0.146278	-0.342942	-16.66	-79.87	2.38	0.4419	-0.0805	-0.0468	
-0.981246	0.146034	-0.305122	-14.14	-83.02	2.1	0.4499	-0.0845	-0.056	
-0.97112	0.14518	-0.26413	-10.08	-76.23	1.68	0.4382	-0.0827	-0.0691	
-0.981246	0.143106	-0.271206	-11.13	-75.32	3.08	0.43	-0.0902	-0.0746	
-0.995398	0.166774	-0.24644	-8.68	-74.83	3.64	0.4327	-0.0865	-0.101	
-0.980758	0.153964	-0.218136	-10.01	-74.41	3.71	0.4321	-0.0837	-0.1104	
-0.96136	0.188124	-0.24095	-8.89	-71.75	3.43	0.4265	-0.0883	-0.1188	
-1.053958	0.123952	-0.09272	-15.82	-65.45	2.94	0.4257	-0.0856	-0.1313	
-1.02846	0.154208	-0.151402	-12.11	-83.65	3.78	0.4115	-0.0915	-0.1464	
-1.005402	0.148596	-0.112972	-11.34	-77.77	3.22	0.4034	-0.079	-0.1574	
-0.983076	0.145546	-0.077592	-9.24	-77.49	3.01	0.3978	-0.0835	-0.1642	
-0.973926	0.13237	-0.049776	-11.48	-73.29	3.22	0.3961	-0.0853	-0.1738	
-1.015894	0.162748	0.000488	-9.24	-75.25	4.48	0.3895	-0.08419999	-0.1962	
-1.015894	0.167018	0.0183	-8.89	-89.11	5.88	0.3851	-0.0954	-0.2141	
-0.99491	0.158844	0.008296	-5.81	-92.89	6.16	0.3748	-0.0871	-0.2175	
-0.968802	0.152012	0.012322	0.42	-85.54	7.21	0.3689	-0.0936	-0.2338	
-0.96685	0.134444	-0.019642	-6.09	-85.89	6.58	0.3599	-0.0871	-0.2403	
-1.022604	0.169458	0.140788	-5.11	-86.94	7	0.3466	-0.08859999	-0.2616	
-0.987102	0.15128	0.152744	1.4	-90.09	8.96	0.3424	-0.0932	-0.2667	
-0.994178	0.128588	0.15738	-2.66	-87.71	8.26	0.3255	-0.0876	-0.269	
-0.902678	0.104798	0.109922	-9.94	-96.46	6.65	0.3251	-0.0959	-0.285	
-0.870958	0.152134	0.194224	-2.24	-96.39	-5.04	0.3129	-0.0896	-0.3028	
-0.855464	0.141642	0.199348	-9.1	-102.2	-2.8	0.2998	-0.0893	-0.316	
-1.028704	0.183854	0.30744	-8.54	-84.42	2.03	0.2871	-0.0904	-0.3246	
0.559736	-0.074542	0.567178	0.91	-56.49	34.37	0.2842	-0.0919	-0.328	
-0.839604	0.138958	0.324276	0.84	-96.81	10.43	0.2721	-0.0806	-0.3393	
-0.854854	0.133834	0.403942	-5.88	-83.3	9.66	0.2484	-0.0939	-0.3583	
-0.819352	0.168848	0.365512	-9.45	-92.61	9.73	0.2499	-0.0923	-0.3535	
-0.835456	0.188368	0.44957	-8.4	-91.21	10.15	0.2341	-0.0918	-0.3669	
-0.852292	0.188978	0.434808	-7.98	-92.61	11.97	0.2146	-0.09559999	-0.3743	
-0.853268	0.178852	0.472506	-7.28	-92.05	12.88	0.1952	-0.0793	-0.3858	
-0.804224	0.167872	0.464698	-10.29	-90.37	11.41	0.1887	-0.0916	-0.3913	
-0.752252	0.184342	0.50447	-8.54	-91.77	10.92	0.1763	-0.0853	-0.4122	
-0.694668	0.189344	0.55266	-8.47	-90.86	10.92	0.1569	-0.0875	-0.4165	
-0.652822	0.184952	0.615856	-8.26	-93.1	12.25	0.1419	-0.09119999	-0.4159	
-0.635254	0.171044	0.654774	-12.67	-87.78	11.55	0.1205	-0.0905	-0.4296	
-0.639158	0.183488	0.684664	-12.67	-83.86	10.78	0.1142	-0.0761	-0.431	
-0.651846	0.19764	0.718214	-14.49	-81.9	10.43	0.102	-0.0784	-0.4286	
-0.553392	0.183976	0.725534	-12.67	-81.76	10.64	0.0867	-0.0808	-0.4342	
-0.482754	0.162382	0.74908	-7.77	-79.52	10.5	0.0761	-0.0695	-0.4407	
-0.52948	0.176778	0.77348	-10.15	-74.69	9.17	0.0697	-0.0801	-0.4414	
-0.40626	0.171776	0.777384	-15.19	-76.37	7.28	0.05	-0.07759999	-0.4471	
-0.446886	0.174216	0.80825	-15.19	-72.66	5.39	0.0485	-0.0743	-0.4455	
-0.436394	0.189832	0.838872	-12.53	-70.91	6.23	0.0401	-0.0674	-0.4409	
-0.370392	0.162504	0.860588	-14.28	-72.73	6.65	0.0226	-0.0638	-0.4559	
-0.42578	0.152256	0.897188	-10.71	-65.59	6.23	0.0173	-0.0649	-0.4531	
-0.353678	0.142374	0.915	-9.52	-65.24	6.93	0.01	-0.0616	-0.4581	
-0.468602	0.164578	0.926102	-5.11	-60.9	9.17	-0.0067	-0.0558	-0.4556	
-0.320982	0.157136	0.91073	-8.33	-62.93	9.17	-0.0122	-0.0603	-0.4592	
-0.377468	0.184708	0.942572	-5.6	-53.48	10.08	-0.0238	-0.0455	-0.4562	
-0.278648	0.179584	0.943426	-7.7	-56.49	9.31	-0.0317	-0.0593	-0.4618	
-0.300364	0.18544	0.953186	-10.01	-51.38	8.75	-0.0481	-0.0549	-0.4547	
-0.260958	0.197152	0.969778	-13.09	-47.46	7.7	-0.0535	-0.0561	-0.4534	
-0.244976	0.182878	0.978074	-13.37	-42.07	7.07	-0.0641	-0.0416	-0.4567	
-0.256444	0.168726	0.973804	-14	-41.51	6.44	-0.0709	-0.0411	-0.4539	
-0.275964	0.149206	0.977586	-14.98	-38.08	5.39	-0.0778	-0.039	-0.451	
-0.233142	0.13664	0.984906	-15.05	-35.84	4.76	-0.0796	-0.0409	-0.4622	
-0.27816	0.139446	0.99613	-10.43	-30.17	3.71	-0.0875	-0.0401	-0.4531	
-0.246806	0.135298	1.004304	-10.36	-30.03	3.22	-0.095	-0.0352	-0.4597	
-0.247782	0.119926	1.006378	-11.62	-26.81	2.59	-0.0947	-0.035	-0.4533	
-0.224236	0.117364	1.008818	-10.57	-25.2	2.59	-0.1043	-0.0376	-0.4539	
-0.228506	0.111386	1.011868	-11.34	-22.47	2.17	-0.1006	-0.0301	-0.4566	
-0.239364	0.10858	1.01016	-9.1	-18.55	0.84	-0.107	-0.0309	-0.446	
-0.194834	0.024644	1.038952	-9.03	-14.14	1.05	-0.1035	-0.0203	-0.4486	
-0.216794	0.074054	1.022726	-3.57	-12.88	-0.42	-0.1214	-0.0207	-0.4464	
-0.176534	0.12566	1.007842	-2.94	-11.83	-1.96	-0.1154	-0.0137	-0.46	
-0.167018	0.13115	1.004548	-3.08	-7.56	-3.22	-0.1147	-0.0245	-0.4556	
-0.17568	0.112728	1.008086	-3.43	-4.27	-2.94	-0.1129	-0.026	-0.4493	
-0.196054	0.102724	1.014674	-3.64	-0.63	-2.38	-0.1153	-0.0255	-0.4399	
-0.218014	0.087108	1.021994	-3.57	1.4	-2.38	-0.1161	-0.0229	-0.4556	
-0.2196	0.07564	1.012722	-2.1	1.96	-2.31	-0.1199	-0.0256	-0.4496	
-0.21594	0.081252	1.00223	-0.63	3.64	-2.03	-0.1199	-0.0289	-0.4545	
-0.230824	0.094916	0.994178	0.07	6.3	-1.47	-0.1123	-0.0233	-0.4617	
-0.230702	0.101138	0.997838	1.05	8.61	-1.19	-0.1163	-0.0117	-0.4474	
-0.241682	0.09333	1.003328	0.77	9.66	-1.33	-0.1103	-0.0246	-0.4507	
-0.232044	0.086986	1.01077	1.4	10.36	-1.26	-0.1184	-0.024	-0.4464	
-0.2196	0.087108	1.009916	2.52	12.18	-0.84	-0.1108	-0.0152	-0.4504	
-0.209352	0.089914	1.018334	3.5	14.56	-0.21	-0.1134	-0.0133	-0.4457	
-0.20252	0.08357	1.02541	5.95	17.57	0.49	-0.1059	-0.0279	-0.449	
-0.202764	0.083448	1.031144	6.86	21.07	0.63	-0.0976	-0.0317	-0.4534	
-0.202764	0.084302	1.035536	6.86	25.34	0.49	-0.1021	-0.022	-0.4501	
-0.20435	0.091988	1.041636	8.33	29.19	0.84	-0.1005	-0.0251	-0.4486	
-0.21777	0.100528	1.047614	11.27	38.64	1.19	-0.0913	-0.0276	-0.4608	
-0.187148	0.115046	1.021994	13.37	37.17	1.82	-0.0773	-0.0235	-0.452	
-0.195444	0.10614	1.029558	11.97	44.66	1.19	-0.0827	-0.0247	-0.4508	
-0.216062	0.109312	1.027484	14.07	50.26	0.35	-0.077	-0.0363	-0.4603	
-0.243268	0.113826	1.02175	13.37	56	-0.21	-0.0697	-0.0461	-0.4618	
-0.257298	0.123464	1.003816	16.24	60.62	-1.54	-0.0545	-0.0438	-0.4594	
-0.274012	0.12932	0.9821	17.43	65.73	-3.29	-0.0475	-0.0377	-0.4509	
-0.305244	0.151036	0.946598	18.83	72.52	-5.18	-0.0235	-0.0485	-0.4516	
-0.322934	0.160064	0.917806	20.3	77.56	-5.11	-0.0178	-0.0503	-0.4513	
-0.364658	0.170556	0.901214	20.02	82.88	-5.46	-0.0012	-0.0546	-0.4553	
-0.390156	0.168238	0.876692	19.88	85.26	-5.32	0.0088	-0.0581	-0.4486	
-0.424316	0.163724	0.86132	24.08	90.02	-6.09	0.0173	-0.06	-0.4466	
-0.494588	0.1708	0.84668	23.8	91.7	-6.72	0.0438	-0.0712	-0.4551	
-0.498736	0.180072	0.798856	26.46	92.89	-6.44	0.042	-0.0617	-0.4517	
-0.525332	0.181292	0.75457	25.06	94.57	-6.93	0.0672	-0.0581	-0.4407	
-0.543144	0.188734	0.730536	20.93	95.34	-9.17	0.076	-0.0712	-0.4455	
-0.559736	0.196664	0.707112	21.21	98.07	-8.75	0.0949	-0.07979999	-0.4353	
-0.571692	0.201666	0.668438	18.76	98.49	-9.73	0.1088	-0.0773	-0.4297	
-0.602314	0.204716	0.645502	17.99	101.29	-10.92	0.113	-0.0807	-0.4312	
-0.642086	0.19703	0.597312	17.5	102.62	-10.57	0.139	-0.0928	-0.4208	
-0.679418	0.200324	0.555344	15.61	101.99	-11.97	0.1531	-0.08859999	-0.4104	
-0.69723	0.194224	0.517524	15.96	102.48	-11.62	0.1648	-0.0937	-0.4021	
-0.732	0.178852	0.484828	13.02	101.36	-11.9	0.1805	-0.091	-0.3886	
-0.754936	0.181048	0.433222	12.11	100.52	-13.79	0.1841	-0.1036	-0.3857	
-0.808616	0.187636	0.427488	14.84	101.78	-13.37	0.2158	-0.1007	-0.3823	
-0.826062	0.18605	0.361486	9.87	96.88	-13.65	0.2367	-0.0888	-0.3651	
-0.86681	0.177876	0.343186	9.94	96.6	-13.72	0.2518	-0.1034	-0.3553	
-0.892674	0.17385	0.32574	10.29	93.66	-14.42	0.2605	-0.1036	-0.347	
-0.902068	0.171776	0.288286	10.92	90.51	-11.06	0.279	-0.0994	-0.3301	
-0.90951	0.159332	0.257542	9.03	92.33	-10.29	0.2788	-0.0915	-0.3251	
-0.901946	0.167018	0.226066	11.06	96.18	-9.17	0.3045	-0.09079999	-0.3064	
-0.93696	0.179218	0.19215	10.99	96.25	-9.73	0.2999	-0.0979	-0.2943	
-0.91378	0.171288	0.173728	8.89	97.72	-10.36	0.3138	-0.1003	-0.2968	
-0.905484	0.167018	0.132614	9.59	88.27	-9.8	0.3255	-0.0941	-0.2755	
-0.954772	0.167384	0.105652	10.85	90.3	-8.68	0.3289	-0.097	-0.2644	
-0.97478	0.183854	0.09357399	11.34	85.47	-7.91	0.3392	-0.1004	-0.2561	
-1.005402	0.206058	0.074298	10.92	83.93	-9.03	0.3478	-0.09739999	-0.2445	
-1.011624	0.204472	0.055144	9.03	84	-8.12	0.3494	-0.0957	-0.2381	
-0.987712	0.18788	0.028548	9.17	80.78	-6.93	0.3748	-0.0953	-0.2272	
-0.987712	0.176046	-0.019642	12.67	80.15	-6.86	0.3789	-0.0923	-0.2238	
-1.015406	0.162382	-0.02928	13.65	84.63	-6.02	0.3908	-0.0924	-0.2074	
-1.011014	0.139324	-0.053314	14	84.35	-6.16	0.3906	-0.106	-0.1953	
-0.995276	0.137006	-0.09638	11.69	81.41	-6.86	0.392	-0.0931	-0.1806	
-1.002474	0.155184	-0.111508	11.27	79.94	-8.89	0.4022	-0.0999	-0.1771	
-0.996496	0.172142	-0.150304	9.94	78.4	-10.78	0.4093	-0.0927	-0.1371	
-0.97295	0.147132	-0.167628	6.44	79.17	-10.57	0.4137	-0.1041	-0.1436	
-0.981002	0.13542	-0.205814	5.95	79.17	-9.73	0.4267	-0.0963	-0.1222	
-0.984296	0.14457	-0.233996	4.34	77.49	-9.17	0.423	-0.0925	-0.1081	
-0.99186	0.15372	-0.26169	3.64	75.53	-8.05	0.4374	-0.09299999	-0.0979	
-0.980758	0.164212	-0.271572	3.85	67.55	-6.51	0.4413	-0.0917	-0.1008	
-1.001132	0.173606	-0.274622	-0.7	64.33	-6.23	0.4416	-0.0802	-0.0815	
-0.961238	0.157868	-0.278892	-2.17	57.54	-6.51	0.4427	-0.09079999	-0.0707	
-0.915244	0.146522	-0.307928	-7.77	49.07	-6.09	0.4463	-0.0903	-0.0516	
-0.956846	0.143594	-0.332816	-8.96	33.81	-4.69	0.4444	-0.0809	-0.0514	
-0.974536	0.150914	-0.351238	0.28	27.51	-5.39	0.4479	-0.0821	-0.0371	
-0.986736	0.12932	-0.366732	-1.05	32.97	-4.9	0.4466	-0.0869	-0.0421	
-0.959896	0.130418	-0.389058	0.56	38.01	-5.39	0.4493	-0.0822	-0.037	
-0.96624	0.1281	-0.360144	7	36.54	-4.9	0.4454	-0.0786	-0.0293	
-0.97539	0.12505	-0.399794	4.2	34.72	-3.71	0.4515	-0.0866	-0.0245	
-1.022848	0.13603	-0.422852	14.49	37.45	-2.1	0.4481	-0.0739	-0.0242	
-0.98393	0.153598	-0.35868	1.96	42	-1.33	0.4516	-0.0849	-0.0213	
-0.978562	0.17446	-0.438468	23.66	27.16	0	0.4561	-0.0849	-0.0132	
-0.932568	0.125782	-0.42334	6.86	30.45	-0.49	0.4562	-0.0783	-0.0035	
-0.930982	0.110654	-0.426634	7.7	31.43	-3.01	0.4555	-0.07449999	0.0154	
-0.949526	0.119194	-0.507886	1.19	28.63	-12.53	0.4527	-0.0857	0.0023	
-0.93696	0.12017	-0.407846	11.69	36.75	-3.64	0.4589	-0.0775	0.0249	
-0.923906	0.12322	-0.447252	12.25	30.94	-2.73	0.4589	-0.0775	0.0249	
-0.925248	0.122488	-0.465186	4.34	30.66	-2.17	0.4591	-0.0774	0.0297	
-0.91866	0.111996	-0.472018	2.73	27.86	-2.31	0.4533	-0.074	0.0263	
-0.923418	0.112972	-0.466284	5.18	27.58	-3.29	0.4544	-0.0814	0.0419	
-0.888892	0.121146	-0.459208	9.38	32.13	-3.01	0.4586	-0.07669999	0.0486	
-0.915366	0.118218	-0.475922	10.99	34.72	-2.38	0.4564	-0.0707	0.0376	
-0.9028	0.117608	-0.499224	8.82	33.6	-1.26	0.4613	-0.0736	0.052	
-0.899872	0.122854	-0.502762	8.54	31.22	-0.14	0.4598	-0.0704	0.052	
-0.868884	0.11529	-0.5185	11.97	26.81	1.05	0.4588	-0.07009999	0.0598	
-0.870592	0.117242	-0.50813	8.89	24.29	2.52	0.4559	-0.07319999	0.0548	
-0.865712	0.120536	-0.520208	7.7	26.04	1.12	0.4623	-0.0794	0.066	
-0.86681	0.124196	-0.53436	6.79	25.48	1.05	0.4599	-0.0774	0.07539999	
-0.876448	0.116998	-0.540948	6.44	22.26	1.05	0.4585	-0.07889999	0.0737	
-0.878766	0.100772	-0.539728	6.72	19.39	0.28	0.4571	-0.074	0.0785	
-0.848388	0.101016	-0.538752	4.9	16.52	0.21	0.4591	-0.0753	0.0896	
-0.851804	0.102114	-0.549366	1.96	15.54	-0.84	0.4488	-0.0719	0.0813	
-0.853756	0.1098	-0.586698	5.6	17.29	-2.52	0.4673	-0.0726	0.0917	
-0.817034	0.099674	-0.59048	2.66	13.79	-2.45	0.4591	-0.0769	0.0879	
-0.849974	0.09942999	-0.578158	7.42	14.21	-2.1	0.4698	-0.0849	0.1024	
-0.833748	0.09357399	-0.59963	3.92	12.88	-0.77	0.4485	-0.0775	0.0984	
-0.84424	0.1037	-0.586088	3.5	13.16	-0.91	0.4603	-0.08899999	0.1018	
-0.83204	0.105042	-0.586088	3.36	10.64	-1.33	0.4524	-0.06659999	0.1037	
-0.811178	0.104066	-0.586088	1.05	10.08	-1.4	0.4639	-0.0735	0.1056	
-0.817888	0.103212	-0.588162	3.01	9.03	-1.05	0.4611	-0.0669	0.112	
-0.825208	0.104066	-0.598898	2.17	8.26	-0.91	0.4554	-0.0698	0.1069	
-0.839848	0.096746	-0.590968	0.98	5.88	-0.63	0.4591	-0.06879999	0.0977	
-0.834358	0.09272	-0.590602	0	4.34	-0.7	0.4518	-0.07889999	0.1079	
-0.83265	0.08967	-0.59109	-1.12	5.18	-0.35	0.4613	-0.07319999	0.1102	
-0.83387	0.089548	-0.608414	1.33	3.29	-0.07	0.4603	-0.07449999	0.1164	
-0.829722	0.08479	-0.606828	-0.14	1.19	0.21	0.4486	-0.0677	0.1113	
-0.832528	0.087718	-0.60207	-1.05	0.07	-0.07	0.4488	-0.0676	0.1145	
-0.824964	0.085156	-0.613904	0	-2.73	0	0.4628	-0.07319999	0.1119	
-0.81557	0.088816	-0.616466	0.42	-3.29	-0.21	0.454	-0.0681	0.1084	
-0.832406	0.088938	-0.605974	0	-5.39	0.63	0.4571	-0.0762	0.1052	
-0.829356	0.09552599	-0.601704	-0.7	-6.72	1.12	0.4495	-0.0681	0.1003	
-0.828868	0.106994	-0.60939	-3.01	-7.14	0.77	0.4576	-0.0672	0.0976	
-0.827648	0.113338	-0.59963	-1.61	-10.92	0.7	0.4576	-0.0672	0.0976	
-0.83814	0.096136	-0.595238	-3.01	-12.04	-0.07	0.4565	-0.07009999	0.1006	
-0.852292	0.09076799	-0.593774	-3.57	-13.02	0.21	0.4582	-0.0717	0.1038	
-0.845216	0.107482	-0.601216	-3.15	-14.91	0.98	0.4664	-0.07539999	0.0994	
-0.83753	0.111386	-0.607926	-0.77	-17.5	1.75	0.4634	-0.077	0.0929	
-0.838018	0.111386	-0.578158	-3.36	-19.67	2.24	0.4549	-0.0718	0.0926	
-0.852902	0.110776	-0.542168	-5.53	-22.89	2.52	0.4645	-0.0773	0.0851	
-0.883768	0.119926	-0.515206	-4.9	-28.84	2.52	0.4585	-0.0741	0.0786	
-0.878888	0.109312	-0.527406	-10.15	-34.44	2.38	0.4663	-0.0668	0.0777	
-0.891698	0.106384	-0.5185	-12.25	-41.93	2.52	0.4637	-0.0714	0.0758	
-0.841312	0.115656	-0.518012	-11.13	-44.87	0.98	0.4605	-0.07319999	0.0629	
-0.921466	0.118218	-0.492026	-15.05	-42.63	-0.84	0.4557	-0.0653	0.0582	
-0.918294	0.113582	-0.508374	-13.16	-40.74	0.49	0.4634	-0.0694	0.0412	
-0.905728	0.112972	-0.477874	-11.69	-39.34	-0.28	0.4603	-0.0814	0.0501	
-0.956602	0.127368	-0.459208	-9.17	-45.08	-1.54	0.456	-0.0742	0.0249	
-0.95038	0.123342	-0.43798	-10.92	-53.41	-1.4	0.4548	-0.074	0.0296	
-0.907314	0.121756	-0.432124	-8.96	-50.89	-0.91	0.4588	-0.076	0.025	
-0.925492	0.126636	-0.444202	-2.73	-43.89	0.21	0.4529	-0.0791	0.0135	
-0.895602	0.118828	-0.452864	-5.11	-45.15	1.12	0.4578	-0.07669999	0.0029	
-0.918782	0.115046	-0.421998	-5.88	-39.69	1.33	0.4564	-0.0766	0.0012	
-0.944158	0.12261	-0.389546	-4.69	-39.27	1.82	0.4655	-0.0694	-0.0011	
-0.95282	0.117486	-0.35563	-4.2	-38.57	1.61	0.4446	-0.0797	-0.0167	
-0.964288	0.117364	-0.33672	-4.48	-38.22	1.4	0.4495	-0.0658	-0.0144	
-0.943914	0.120902	-0.33916	-3.92	-37.66	1.61	0.4564	-0.07759999	-0.0286	
-0.931714	0.12139	-0.353922	-2.94	-33.6	1.68	0.445	-0.0708	-0.029	
-0.931104	0.122976	-0.352214	-7.84	-32.62	1.96	0.4463	-0.0757	-0.0354	
-0.934276	0.117486	-0.330376	-1.89	-30.03	1.61	0.4495	-0.0669	-0.0459	
-0.952942	0.116266	-0.290116	-2.1	-26.39	1.75	0.4474	-0.0841	-0.0498	
-0.983442	0.101748	-0.254614	-9.94	-25.13	1.61	0.4427	-0.081	-0.0594	
-0.971486	0.1098	-0.26718	-6.23	-28.21	1.4	0.4424	-0.0747	-0.0576	
-0.962336	0.10736	-0.244	-3.85	-25.62	0.77	0.4425	-0.0796	-0.0625	
-0.968436	0.136884	-0.268522	2.03	-24.99	0.21	0.4312	-0.0806	-0.0679	
-0.969046	0.126392	-0.253394	-2.38	-25.06	-0.07	0.4393	-0.0796	-0.0705	
-0.978562	0.130662	-0.229604	-3.85	-24.71	-0.42	0.4444	-0.0771	-0.0781	
-0.986736	0.1464	-0.22204	-1.54	-23.24	-0.63	0.4402	-0.0752	-0.0766	
-0.978074	0.14762	-0.219478	-1.47	-25.2	-0.35	0.4372	-0.072	-0.0783	
-0.9699	0.14457	-0.210816	-3.64	-23.87	-0.49	0.4415	-0.0786	-0.083	
-0.979904	0.128954	-0.201178	-5.39	-22.54	-0.42	0.4298	-0.0784	-0.0946	
-0.984296	0.122732	-0.192516	-6.79	-22.47	-0.49	0.4418	-0.0713	-0.0969	
-0.9882	0.127856	-0.181414	-6.09	-22.82	-0.35	0.4416	-0.0715	-0.1016	
-0.991494	0.137738	-0.170434	-6.02	-20.65	-0.7	0.4305	-0.0725	-0.1038	
-0.978074	0.129808	-0.168726	-6.3	-21.42	-0.28	0.4367	-0.0756	-0.0926	
-0.977464	0.130662	-0.167384	-2.8	-18.9	0.42	0.4278	-0.0787	-0.1089	
-0.992592	0.133956	-0.139934	-2.03	-17.08	0.91	0.4207	-0.0817	-0.1157	
-0.99125	0.133224	-0.139934	-1.54	-19.81	0.56	0.4271	-0.07759999	-0.1231	
-0.987468	0.125416	-0.137128	-0.63	-18.27	-0.28	0.426	-0.0773	-0.1168	
-0.987468	0.127124	-0.134688	3.01	-16.94	-1.61	0.4244	-0.0774	-0.1216	
-0.984662	0.132614	-0.14884	0.21	-15.12	-2.24	0.4309	-0.0716	-0.1227	
-0.987102	0.138104	-0.132614	-1.82	-14.56	-3.71	0.4247	-0.0918	-0.1316	
-0.99918	0.139324	-0.11041	-0.14	-12.67	-6.65	0.4309	-0.0765	-0.1291	
-1.00528	0.125782	-0.11712	-0.7	-14	-10.92	0.421	-0.07449999	-0.1327	
-0.98881	0.12444	-0.113094	-1.12	-14.07	-12.81	0.4252	-0.0714	-0.1277	
-0.997106	0.126392	-0.098088	-0.63	-13.23	-14.63	0.4178	-0.0713	-0.1375	
-0.995642	0.128954	-0.086254	0.84	-13.37	-16.87	0.4149	-0.0631	-0.1311	
-1.006012	0.11712	-0.072224	2.17	-10.85	-19.95	0.4162	-0.0633	-0.1342	
-0.995032	0.10553	-0.0671	2.73	-12.74	-22.33	0.4166	-0.0679	-0.1296	
-0.990518	0.08845	-0.06649	2.1	-10.99	-24.36	0.4155	-0.0541	-0.1386	
-0.996496	0.083204	-0.064782	3.08	-8.82	-27.02	0.4162	-0.0562	-0.1544	
-0.999546	0.077714	-0.054534	2.31	-9.87	-29.61	0.416	-0.0418	-0.1429	
-1.01382	0.064172	-0.050508	1.33	-9.52	-30.66	0.4179	-0.0512	-0.1431	
-1.035658	0.06161	-0.039284	2.94	-9.38	-34.72	0.4102	-0.0449	-0.1528	
-1.009062	0.050508	-0.04087	2.73	-10.22	-37.59	0.4233	-0.0365	-0.1581	
-1.021506	0.060756	-0.036844	14.07	-10.15	-38.78	0.4164	-0.0247	-0.1454	
-1.010282	0.033672	-0.048434	3.99	-11.83	-42.14	0.4116	-0.0417	-0.1478	
-1.02419	0.018788	-0.041114	2.1	-11.76	-43.96	0.4042	-0.0167	-0.16	
-1.010282	0.018178	-0.035258	6.79	-14.14	-44.59	0.4017	-0.0131	-0.1505	
-1.015528	-0.02989	-0.04514	-0.35	-13.09	-44.38	0.4112	-0.0106	-0.1515	
-1.020286	-0.055388	-0.0244	-1.54	-12.32	-43.68	0.3995	0.0041	-0.1501	
-1.016748	-0.09552599	-0.023424	-2.59	-12.18	-42.77	0.3978	0.0176	-0.1701	
-1.01748	-0.096502	-0.02318	-2.17	-12.04	-41.79	0.4015	0.0267	-0.1712	
-1.03395	-0.10431	-0.011102	-6.16	-12.39	-41.3	0.3902	0.037	-0.1636	
-1.005158	-0.124806	-0.03721	-6.65	-13.44	-41.58	0.3969	0.0283	-0.1777	
-1.013576	-0.130662	-0.024034	-1.82	-11.62	-41.93	0.3994	0.0344	-0.1774	
-0.991006	-0.134444	-0.020618	0.91	-11.06	-41.3	0.3906	0.0507	-0.171	
-1.004914	-0.153842	-0.008905999	-0.42	-7.63	-41.3	0.3836	0.0528	-0.1697	
-1.001132	-0.166042	-0.008417999	0.07	-7.21	-41.58	0.3839	0.0681	-0.177	
-0.993202	-0.179218	0.003294	5.04	-5.25	-42.28	0.3828	0.0538	-0.187	
-0.99857	-0.210938	-0.003782	4.62	-3.08	-43.68	0.3856	0.0634	-0.1755	
-1.004182	-0.222894	0.002196	6.51	-4.34	-43.54	0.3811	0.0747	-0.1706	
-0.988078	-0.239364	0.007686	6.16	-4.69	-42.42	0.3789	0.0791	-0.1832	
-0.977708	-0.224724	0.000854	12.46	-4.9	-40.39	0.3662	0.0846	-0.1821	
-0.990518	-0.252296	0.002806	11.76	-1.4	-36.68	0.3731	0.0857	-0.1817	
-0.973682	-0.251808	-0.003172	11.41	-0.84	-34.09	0.3725	0.0951	-0.183	
-0.965386	-0.257298	-0.015006	9.38	-0.84	-33.11	0.3718	0.1124	-0.1793	
-0.955504	-0.271694	-0.000488	9.8	-2.94	-31.36	0.3788	0.1056	-0.1839	
-0.968924	-0.288652	-0.005246	6.58	-1.89	-30.31	0.3646	0.1061	-0.1925	
-0.938424	-0.304512	-0.018056	5.39	-2.03	-27.93	0.3648	0.1128	-0.1796	
-0.937814	-0.313906	-0.00122	7.07	-1.26	-28.35	0.3645	0.119	-0.181	
-0.9394	-0.33489	0.001464	4.13	-0.21	-28.91	0.3544	0.1226	-0.1846	
-0.943304	-0.3477	0.016348	2.87	-0.21	-28.21	0.3555	0.1272	-0.1859	
-0.95587	-0.362706	0.025376	1.89	-0.91	-26.6	0.3623	0.1267	-0.1887	
-0.95404	-0.365512	0.02745	0.21	-0.49	-25.27	0.3661	0.1375	-0.185	
-0.944768	-0.375272	0.018788	-0.14	-0.49	-24.5	0.3536	0.1318	-0.1922	
-0.9272	-0.391498	0.014152	0.07	-1.4	-23.52	0.3443	0.1527	-0.1904	
-0.917318	-0.401136	0.020252	0.42	-1.47	-22.75	0.3594	0.1333	-0.1839	
-0.917806	-0.415288	0.029768	-0.7	-0.49	-21.63	0.3447	0.1464	-0.189	
-0.922198	-0.420534	0.02074	-2.17	-1.12	-20.58	0.3514	0.1524	-0.1869	
-0.920734	-0.432856	0.023424	-1.26	-0.63	-19.25	0.3429	0.1511	-0.1937	
-0.91927	-0.442128	0.029524	-1.33	-0.35	-17.92	0.3474	0.1527	-0.1839	
-0.904874	-0.462868	0.021472	-1.26	0.63	-16.66	0.348	0.1585	-0.1947	
-0.907314	-0.48556	0.019642	-3.22	4.83	-15.33	0.3388	0.1595	-0.1826	
-0.902556	-0.4758	0.000732	0.56	2.17	-13.16	0.3454	0.1621	-0.1869	
-0.904386	-0.48861	0.007442	0.84	2.87	-10.99	0.337	0.169	-0.1808	
-0.90951	-0.490928	0.007686	2.59	3.5	-8.89	0.337	0.1641	-0.1872	
-0.897066	-0.473848	-0.002928	1.4	3.15	-6.72	0.3448	0.173	-0.1881	
-0.895358	-0.466772	0.00366	2.24	3.64	-5.53	0.3436	0.1684	-0.1883	
-0.894626	-0.46665	0.003416	1.61	3.01	-4.48	0.3425	0.1638	-0.1869	
-0.891088	-0.472384	0.001586	1.96	4.41	-2.94	0.3418	0.1731	-0.1914	
-0.894626	-0.477264	0.01281	1.4	5.04	-1.68	0.3454	0.167	-0.1804	
-0.899018	-0.467626	0.01037	1.05	5.46	0	0.3397	0.1655	-0.187	
-0.903288	-0.468846	0.015494	0.7	6.16	2.1	0.3422	0.1668	-0.19	
-0.905972	-0.468846	0.01952	0.35	5.67	3.78	0.3347	0.1598	-0.1812	
-0.90158	-0.467992	0.00732	-0.91	4.76	5.46	0.3345	0.1645	-0.1811	
-0.897798	-0.469212	0.006832	-0.84	5.04	7.35	0.3401	0.1691	-0.1743	
-0.904752	-0.46543	0.014396	-1.4	4.69	9.45	0.3394	0.1702	-0.1885	
-0.907192	-0.46177	0.011468	-2.52	4.55	11.27	0.3507	0.1729	-0.1799	
-0.902556	-0.4575	0.007564	-2.94	4.69	13.23	0.3464	0.1449	-0.1842	
-0.904874	-0.454816	0.006588	-3.36	5.04	15.4	0.3483	0.1702	-0.1738	
-0.902068	-0.445788	0	-3.85	4.83	17.78	0.3489	0.1495	-0.1839	
-0.906704	-0.441518	-0.005612	-3.71	4.9	20.37	0.3452	0.1549	-0.1682	
-0.922686	-0.443836	-0.00854	-3.57	3.99	23.45	0.3405	0.1564	-0.1794	
-0.937326	-0.432612	-0.012688	-2.73	2.73	27.16	0.3627	0.1567	-0.1767	
-0.926102	-0.432856	-0.019032	0.14	1.75	32.69	0.359	0.1492	-0.1755	
-0.904874	-0.38918	-0.020862	9.03	-1.4	37.17	0.3592	0.1412	-0.1805	
-0.930982	-0.384544	-0.025742	1.68	-0.56	40.25	0.3584	0.132	-0.1778	
-0.936472	-0.361486	-0.021594	6.72	-1.4	43.26	0.3627	0.1302	-0.176	
-0.93269	-0.36112	-0.020374	3.78	-1.33	45.29	0.3694	0.1128	-0.1715	
-0.923296	-0.350262	-0.031232	2.59	0	46.97	0.3692	0.116	-0.1714	
-0.932812	-0.341234	-0.042944	4.9	-0.77	48.16	0.3733	0.1157	-0.1728	
-0.95099	-0.309758	-0.037698	2.66	1.4	49.42	0.3725	0.1032	-0.1748	
-0.962946	-0.285602	-0.04331	2.8	0.14	50.61	0.3741	0.0935	-0.1814	
-0.987346	-0.252052	-0.011468	3.57	1.96	52.71	0.3802	0.0887	-0.1734	
-0.99186	-0.224602	-0.02135	-0.28	2.31	55.58	0.3804	0.0824	-0.1751	
-0.9699	-0.211914	-0.030012	-0.7	4.13	57.12	0.3787	0.0654	-0.1727	
-0.973926	-0.208254	-0.031598	-1.89	8.19	58.24	0.3914	0.0584	-0.1738	
-0.974658	-0.184098	-0.050142	-3.85	7.07	58.94	0.3918	0.0457	-0.1789	
-1.008574	-0.149328	-0.020008	-4.13	13.93	60.48	0.3923	0.046	-0.1695	
-1.01626	-0.125416	-0.036234	-8.54	11.97	63.35	0.3971	0.0365	-0.1648	
-1.037976	-0.108824	0.005246	-11.27	15.82	65.59	0.4046	0.0186	-0.1729	
-1.0309	-0.070028	-0.027084	-13.44	12.46	67.97	0.4009	0.0225	-0.1588	
-1.04676	-0.057584	-0.034282	-12.88	14	69.72	0.4074	0.0083	-0.1526	
-1.037976	-0.029036	-0.055876	-14	14.7	70.07	0.4096	-0.009099999	-0.1563	
-1.009794	0.007442	-0.070882	-15.47	13.23	69.23	0.4161	-0.0281	-0.155	
-1.006378	0.035014	-0.061488	-14.77	11.83	69.16	0.4077	-0.0212	-0.1505	
-1.014308	0.06771	-0.061122	-16.1	13.16	69.58	0.4087	-0.0465	-0.1576	
-1.009916	0.115412	-0.082228	-14.7	11.9	71.05	0.412	-0.0495	-0.1497	
-1.01016	0.143228	-0.089548	-11.69	12.95	73.01	0.4154	-0.0557	-0.1418	
-1.010282	0.166042	-0.103944	-12.67	12.95	75.04	0.4148	-0.0778	-0.1489	
-0.9882	0.196176	-0.097966	-8.47	10.99	76.93	0.4155	-0.0854	-0.1429	
-0.9943	0.216306	-0.109556	-12.74	9.17	77.21	0.4156	-0.087	-0.1429	
-1.010648	0.246562	-0.12688	-7.7	7.35	77.63	0.4151	-0.1009	-0.1387	
-1.00711	0.275476	-0.092232	-7.56	5.53	77.7	0.4208	-0.1092	-0.145	
-0.995276	0.265106	-0.089548	-13.93	3.57	77	0.409	-0.1291	-0.1526	
-0.964288	0.327936	-0.10431	-5.74	1.82	73.78	0.4101	-0.1364	-0.137	
-0.963312	0.303414	-0.106994	-7	1.47	70.56	0.4031	-0.1409	-0.1439	
-0.97661	0.33306	-0.112728	-8.05	-2.52	69.23	0.411	-0.1569	-0.1424	
-0.976122	0.32208	-0.119682	-2.66	-2.03	67.48	0.4107	-0.162	-0.1536	
-0.971974	0.351726	-0.119682	2.94	-0.42	64.75	0.4007	-0.1751	-0.1452	
-0.920124	0.368562	-0.1037	10.22	5.11	60.76	0.3982	-0.1829	-0.1487	
-0.931958	0.380884	-0.099552	-7.21	7.63	57.82	0.4036	-0.2017	-0.1428	
-0.92598	0.412482	-0.098454	-3.71	8.19	54.88	0.398	-0.2015	-0.1447	
-0.914756	0.437858	-0.086742	3.43	8.96	51.66	0.3964	-0.2232	-0.1423	
-0.898286	0.46116	-0.09394	-1.96	9.94	49.21	0.3891	-0.2117	-0.1392	
-0.879132	0.465674	-0.132492	0.14	9.66	47.53	0.3785	-0.2237	-0.1433	
-0.88389	0.492148	-0.127978	-2.66	10.43	46.69	0.3859	-0.227	-0.1352	
-0.891698	0.512156	-0.132492	-4.06	8.75	44.66	0.3836	-0.2395	-0.1404	
-0.861198	0.521672	-0.12322	-4.2	10.64	42.56	0.3842	-0.2471	-0.1344	
-0.879132	0.52948	-0.088328	4.27	6.65	39.83	0.3791	-0.2514	-0.1301	
-0.855464	0.520574	-0.116632	-1.82	4.2	37.45	0.3769	-0.2573	-0.1257	
-0.831186	0.533506	-0.115046	-4.41	4.41	35.77	0.374	-0.2637	-0.1355	
-0.826428	0.562542	-0.11163	-2.24	5.6	34.44	0.3739	-0.2687	-0.1435	
-0.846192	0.559614	-0.09942999	-0.63	2.1	33.25	0.3666	-0.2756	-0.1284	
-0.857538	0.533872	-0.125416	1.82	1.96	32.06	0.3625	-0.2753	-0.1271	
-0.812154	0.536678	-0.138348	3.36	8.68	30.31	0.3638	-0.2722	-0.1269	
-0.785802	0.572302	-0.137494	6.79	-0.35	30.38	0.3599	-0.2766	-0.1257	
-0.784704	0.609268	-0.113826	6.44	-4.97	29.89	0.3632	-0.2846	-0.1242	
-0.778726	0.625006	-0.125416	4.69	-2.24	27.93	0.3582	-0.2768	-0.1336	
-0.775066	0.63745	-0.14701	2.1	-3.15	25.97	0.3537	-0.2985	-0.1362	
-0.778726	0.663314	-0.10614	2.31	-6.16	22.75	0.3496	-0.2949	-0.13	
-0.765916	0.665632	-0.113338	-0.63	-4.69	19.74	0.3505	-0.2953	-0.141	
-0.749324	0.665022	-0.127002	0.49	-4.41	17.08	0.3571	-0.3046	-0.1284	
-0.754326	0.673928	-0.100406	0.21	-6.58	15.19	0.3539	-0.2983	-0.1299	
-0.768966	0.653066	-0.129686	0.21	-3.64	12.18	0.35	-0.2995	-0.127	
-0.743468	0.650016	-0.124318	1.26	-3.43	10.5	0.3501	-0.3059	-0.1319	
-0.73505	0.668804	-0.10797	1.82	-3.78	9.45	0.3503	-0.3074	-0.1288	
-0.722362	0.671488	-0.11468	2.73	-4.48	8.54	0.3452	-0.3149	-0.1294	
-0.708698	0.680028	-0.123586	0.98	-0.7	6.58	0.342	-0.3134	-0.1358	
-0.730536	0.681492	-0.107848	2.45	-0.42	4.76	0.3455	-0.306	-0.1416	
-0.748714	0.684542	-0.11407	2.17	-0.35	3.43	0.3466	-0.3182	-0.1325	
-0.750544	0.692106	-0.121268	1.4	-1.4	0.98	0.3509	-0.3199	-0.1292	
-0.750178	0.689178	-0.130418	1.05	-0.98	-1.82	0.3461	-0.304	-0.1274	
-0.737978	0.691618	-0.127978	1.26	-1.19	-5.18	0.3476	-0.3153	-0.1371	
-0.729194	0.698938	-0.106628	3.15	-2.38	-8.19	0.346	-0.3089	-0.1338	
-0.737002	0.686738	-0.106994	2.38	-2.52	-11.55	0.3357	-0.3104	-0.1502	
-0.744688	0.656238	-0.12322	-0.21	0.84	-16.03	0.3459	-0.3057	-0.1321	
-0.733342	0.660264	-0.117242	1.05	-0.21	-18.13	0.3434	-0.3086	-0.1292	
-0.748104	0.672708	-0.114192	0	0.42	-20.86	0.3554	-0.3048	-0.1348	
-0.756156	0.680882	-0.106384	1.26	-0.35	-23.8	0.3522	-0.3017	-0.1411	
-0.757864	0.677954	-0.122488	0.63	1.26	-27.09	0.351	-0.2999	-0.1364	
-0.7686	0.652334	-0.108946	1.33	1.12	-29.75	0.3548	-0.2922	-0.1344	
-0.779214	0.625128	-0.09942999	-1.89	0.84	-32.69	0.3535	-0.2937	-0.1345	
-0.786046	0.599996	-0.111996	-1.75	0.35	-35.63	0.3565	-0.2904	-0.1248	
-0.803248	0.58621	-0.106872	-1.12	0.7	-38.01	0.365	-0.2773	-0.1364	
-0.810568	0.578768	-0.101992	-0.91	-1.05	-39.83	0.3668	-0.2835	-0.1334	
-0.809104	0.574254	-0.10126	-1.19	-1.61	-42.63	0.3687	-0.2665	-0.1343	
-0.814838	0.564494	-0.095404	-2.45	-0.98	-45.22	0.3714	-0.2634	-0.1309	
-0.820328	0.554246	-0.096014	-2.87	-2.17	-47.67	0.3735	-0.2543	-0.1352	
-0.839848	0.535946	-0.116632	-1.82	-1.68	-50.54	0.3817	-0.2501	-0.133	
-0.859612	0.523014	-0.108702	-0.77	-1.54	-52.92	0.3848	-0.2532	-0.1283	
-0.872666	0.495198	-0.10919	1.54	-1.05	-55.16	0.3796	-0.2359	-0.1327	
-0.883646	0.467992	-0.111996	1.75	1.26	-56.98	0.4015	-0.2341	-0.1346	
-0.890234	0.45323	-0.11651	3.85	0.49	-57.96	0.3965	-0.2215	-0.1391	
-0.90097	0.431758	-0.117852	6.16	-0.21	-59.78	0.3963	-0.2119	-0.1325	
-0.9028	0.421022	-0.14335	7.91	1.89	-61.74	0.3972	-0.1977	-0.1272	
-0.900116	0.38857	-0.144814	7.77	4.69	-63.07	0.4052	-0.1936	-0.1298	
-0.920856	0.345382	-0.133468	9.87	3.5	-63.56	0.4058	-0.1828	-0.1326	
-0.965874	0.32757	-0.14091	14.07	3.57	-64.61	0.407	-0.1814	-0.1356	
-1.003084	0.29158	-0.157868	8.26	5.32	-65.87	0.4146	-0.1694	-0.1364	
-0.986126	0.254126	-0.1464	8.68	4.83	-66.43	0.4138	-0.1522	-0.1358	
-0.98027	0.2257	-0.127978	11.9	7	-66.99	0.4111	-0.1471	-0.1295	
-0.98271	0.19703	-0.154696	14.84	5.74	-66.43	0.421	-0.1491	-0.1259	
-0.98027	0.174216	-0.168482	10.22	5.88	-66.01	0.422	-0.1365	-0.1207	
-0.975634	0.15372	-0.176534	15.12	5.11	-65.24	0.4323	-0.1215	-0.1196	
-0.973804	0.137372	-0.163114	14.28	6.79	-66.01	0.4248	-0.1117	-0.1212	
-1.013332	0.103456	-0.163358	10.15	8.33	-69.23	0.4216	-0.1021	-0.1195	
-1.01809	0.094062	-0.160186	14.84	10.57	-71.96	0.4205	-0.0835	-0.1236	
-1.03456	0.070272	-0.135054	9.94	8.05	-71.89	0.4153	-0.078	-0.1096	
-1.03517	0.06466	-0.160796	4.48	2.1	-68.18	0.4299	-0.068	-0.1116	
-1.047736	0.069784	-0.156404	1.05	0	-62.44	0.4315	-0.0712	-0.11	
-1.01687	0.038552	-0.142496	5.32	-5.81	-57.26	0.4246	-0.0507	-0.1176	
-1.020164	0.005612	-0.141032	1.61	-1.89	-55.79	0.4227	-0.038	-0.1141	
-1.033462	0	-0.14701	5.67	-7.56	-54.11	0.4176	-0.0287	-0.125	
-1.033584	-0.038064	-0.135176	2.52	-10.36	-51.66	0.4259	-0.0228	-0.1181	
-1.01138	-0.058194	-0.149206	8.19	-11.2	-46.76	0.4225	-0.0132	-0.1195	
-1.020652	-0.083814	-0.133468	6.72	-10.29	-45.29	0.4263	-0.004	-0.1174	
-1.000766	-0.083814	-0.139324	11.62	-15.05	-43.12	0.4203	0.004	-0.119	
-0.999424	-0.104188	-0.139446	5.88	-12.25	-42.84	0.4209	0.0082	-0.1299	
-1.014918	-0.115534	-0.133956	9.03	-13.37	-42.84	0.4134	0.0212	-0.1298	
-0.995398	-0.107726	-0.128222	10.01	-14.28	-44.38	0.412	0.0164	-0.1348	
-1.020286	-0.104554	-0.135176	5.67	-10.57	-49.14	0.4094	0.0167	-0.1318	
-1.023702	-0.110166	-0.10797	1.68	-14.07	-50.4	0.4129	0.0354	-0.1246	
-1.050298	-0.116876	-0.102602	-2.45	-12.46	-50.61	0.4075	0.0381	-0.1469	
-1.03151	-0.130906	-0.113704	-6.3	-13.65	-48.09	0.4091	0.0479	-0.1323	
-1.01199	-0.162016	-0.10797	-1.89	-12.53	-43.82	0.4078	0.0615	-0.1461	
-0.997838	-0.140544	-0.104432	2.87	-15.82	-41.58	0.3999	0.0623	-0.1354	
-1.021018	-0.14396	-0.08967	2.31	-14.63	-40.11	0.3983	0.0606	-0.1435	
-0.984296	-0.154696	-0.095038	6.93	-13.02	-37.24	0.3877	0.0735	-0.1483	
-0.975756	-0.190808	-0.080276	12.04	-10.36	-35.21	0.4018	0.0729	-0.1428	
-0.973804	-0.211182	-0.08906	13.51	-7.07	-32.2	0.3976	0.0948	-0.1486	
-0.958676	-0.2379	-0.082106	10.22	-4.69	-31.85	0.3883	0.0875	-0.1494	
-0.952088	-0.257542	-0.05368	9.03	-6.58	-32.06	0.3853	0.0891	-0.1526	
-0.94062	-0.275476	-0.066246	4.2	-4.62	-33.11	0.3779	0.0957	-0.1559	
-0.940986	-0.275842	-0.061366	6.3	-2.59	-33.18	0.3829	0.0999	-0.1618	
-0.945988	-0.313784	-0.04941	4.41	-2.24	-31.29	0.3797	0.1111	-0.1584	
-0.944402	-0.342454	-0.04758	2.52	-5.25	-30.94	0.3797	0.116	-0.1536	
-0.949892	-0.35624	-0.056242	3.15	-4.69	-30.17	0.3805	0.1187	-0.1644	
-0.950014	-0.372222	-0.061732	2.8	-5.04	-28.7	0.3694	0.1291	-0.1521	
-0.958066	-0.370026	-0.053314	2.31	-5.46	-27.44	0.3736	0.1208	-0.16	
-0.960506	-0.366366	-0.044164	1.75	-4.69	-24.78	0.3787	0.1315	-0.1578	
-0.956602	-0.358924	-0.045506	2.66	-4.62	-22.33	0.3634	0.1258	-0.1667	
-0.935862	-0.368806	-0.041724	2.31	-3.22	-20.23	0.3695	0.1346	-0.1739	
-0.928298	-0.379054	-0.029768	2.73	-4.27	-18.76	0.3647	0.1305	-0.1633	
-0.920124	-0.400648	-0.04331	0.49	-4.76	-17.85	0.3756	0.1363	-0.1594	
-0.91439	-0.427366	-0.03416	1.54	-3.99	-16.87	0.3679	0.1377	-0.1755	
-0.909022	-0.429074	-0.02562	2.17	-3.01	-16.03	0.3652	0.1444	-0.1675	
-0.914634	-0.421266	-0.02135	0.35	-2.03	-15.82	0.3697	0.1444	-0.1594	
-0.923296	-0.43066	-0.030378	-0.63	-1.89	-14.56	0.3535	0.1479	-0.1759	
-0.911462	-0.457012	-0.033672	-1.89	-0.63	-13.16	0.3615	0.165	-0.1638	
-0.901214	-0.463844	-0.02379	2.1	-0.56	-12.04	0.3664	0.1508	-0.1625	
-0.899872	-0.462136	-0.03233	1.05	0	-11.62	0.3641	0.1631	-0.1701	
-0.915976	-0.457378	-0.016836	0.35	0.63	-10.5	0.3535	0.156	-0.1677	
-0.922198	-0.454694	-0.02806	-0.07	0.7	-8.61	0.357	0.1666	-0.1703	
-0.916098	-0.46055	-0.02745	0.28	0.49	-6.72	0.3612	0.1681	-0.1669	
-0.90524	-0.455304	-0.024522	0.63	0.21	-4.83	0.3565	0.156	-0.1629	
-0.911584	-0.455426	-0.02684	0.14	0.21	-3.22	0.3557	0.162	-0.1721	
-0.90951	-0.447374	-0.02257	0.63	0.35	-1.61	0.3614	0.165	-0.1654	
-0.91073	-0.466406	-0.029524	0.28	0.7	0.84	0.356	0.1654	-0.1626	
-0.915488	-0.453596	-0.027084	-0.56	0.98	3.15	0.3515	0.1654	-0.1707	
-0.912682	-0.43554	-0.01952	-1.12	1.75	5.67	0.3611	0.168	-0.1685	
-0.907436	-0.43859	-0.0244	-2.17	2.31	8.33	0.3493	0.1611	-0.1631	
-0.909266	-0.448472	-0.028914	-1.96	3.57	10.36	0.349	0.1609	-0.1694	
-0.903898	-0.445422	-0.021716	-2.66	3.92	11.55	0.3533	0.1575	-0.1708	
-0.909388	-0.443714	-0.02745	-3.71	3.57	13.37	0.3558	0.1571	-0.177	
-0.9089	-0.438956	-0.027694	-4.13	3.85	15.26	0.3579	0.1543	-0.1644	
-0.909022	-0.427976	-0.030012	-4.55	4.9	18.34	0.365	0.154	-0.1609	
-0.912316	-0.436882	-0.031354	-3.92	5.39	20.93	0.3568	0.1497	-0.1631	
-0.918538	-0.438834	-0.030744	-2.87	5.67	23.59	0.365	0.1541	-0.1593	
-0.920734	-0.426512	-0.046726	-2.17	6.02	26.04	0.3648	0.1403	-0.1504	
-0.923784	-0.396744	-0.048556	6.51	6.65	28.21	0.3718	0.1367	-0.1533	
-0.934154	-0.397354	-0.052094	-1.75	4.62	31.71	0.3797	0.1311	-0.1672	
-0.943426	-0.384666	-0.048678	0.49	6.23	34.58	0.3699	0.1332	-0.1676	
-0.936228	-0.367098	-0.063806	-0.28	5.04	37.24	0.3781	0.1175	-0.1567	
-0.934398	-0.351482	-0.063684	2.66	5.88	39.9	0.3799	0.1112	-0.1553	
-0.938424	-0.347334	-0.07905599	-2.66	4.76	42.63	0.3871	0.1062	-0.1535	
-0.959286	-0.329034	-0.061732	-3.22	5.04	44.73	0.3842	0.1062	-0.1568	
-0.9577	-0.305122	-0.078812	-3.99	1.54	47.53	0.3884	0.1125	-0.1485	
-0.968924	-0.28914	-0.065148	-0.91	3.29	49.84	0.3837	0.0939	-0.1525	
-0.958798	-0.281454	-0.09333	-1.82	3.08	52.43	0.3899	0.0794	-0.1543	
-0.964532	-0.261446	-0.075274	-6.44	2.03	54.74	0.3956	0.0793	-0.1492	
-0.956846	-0.243878	-0.102968	-7.49	2.17	56.35	0.3999	0.0726	-0.154	
-0.962214	-0.236192	-0.085644	-4.9	4.62	57.68	0.398	0.0621	-0.1466	
-0.971364	-0.19337	-0.088084	-6.44	5.53	59.22	0.3972	0.0479	-0.1502	
-0.99857	-0.15555	-0.069418	-6.79	5.95	61.88	0.4022	0.0369	-0.1441	
-1.006378	-0.142984	-0.095038	-6.79	5.39	64.33	0.4026	0.0307	-0.1427	
-1.00528	-0.123342	-0.092232	-6.51	7.42	66.5	0.4029	0.0212	-0.1477	
-1.011624	-0.088694	-0.10126	-5.95	8.26	67.41	0.4078	0.0069	-0.1464	
-1.021262	-0.036356	-0.116022	-7.14	8.19	67.9	0.4224	-0.0014	-0.1396	
-1.032974	0.014762	-0.105652	-10.92	8.82	68.88	0.4144	-0.0137	-0.1467	
-1.018456	0.060512	-0.110288	-10.36	10.01	69.23	0.4273	-0.0173	-0.1399	
-1.000278	0.094184	-0.116876	-9.03	10.85	68.81	0.4197	-0.0277	-0.1375	
-0.985882	0.11773	-0.132736	-8.4	12.6	68.88	0.4258	-0.0455	-0.1441	
-0.989908	0.142618	-0.126392	-9.17	9.03	70.77	0.4247	-0.0468	-0.1395	
-1.00345	0.157258	-0.12627	-8.68	8.54	73.92	0.4203	-0.0619	-0.1323	
-1.007476	0.170312	-0.154818	-7.14	9.45	76.86	0.4271	-0.064	-0.1368	
-0.996618	0.187392	-0.154696	-8.82	12.95	77.21	0.4189	-0.0819	-0.1268	
-1.008696	0.214964	-0.14396	-12.46	12.81	77.21	0.4207	-0.0979	-0.1336	
-1.011746	0.263032	-0.127978	-13.65	6.79	76.16	0.4185	-0.1055	-0.1308	
-1.017602	0.302438	-0.14518	-8.33	1.47	73.08	0.4223	-0.1162	-0.1199	
-1.002108	0.315614	-0.119072	-7.84	0.56	70.21	0.4208	-0.126	-0.1345	
-0.975756	0.30744	-0.11407	-10.08	0	68.04	0.4208	-0.1244	-0.1329	
-0.96075	0.30805	-0.1098	-15.19	0.28	66.08	0.423	-0.1385	-0.1301	
-0.937082	0.34648	-0.1342	-8.26	-2.59	63.21	0.4151	-0.1707	-0.1285	
-0.941718	0.354044	-0.144082	-13.44	-2.8	62.72	0.4079	-0.1705	-0.1336	
-0.937692	0.401624	-0.13176	-8.47	-3.15	60.34	0.4059	-0.186	-0.1342	
-0.943792	0.420534	-0.120536	-3.36	-3.29	56.77	0.3977	-0.1887	-0.1364	
-0.94367	0.426756	-0.116144	-9.38	-1.82	54.46	0.4008	-0.1902	-0.1299	
-0.948672	0.41175	-0.11712	-5.25	-2.03	52.71	0.3995	-0.2069	-0.118	
-0.9394	0.417484	-0.131272	-3.85	-4.2	52.92	0.4025	-0.2031	-0.1382	
-0.93208	0.422608	-0.107482	-1.68	-4.13	50.75	0.3904	-0.207	-0.1358	
-0.905728	0.438102	-0.128588	-5.81	-2.38	48.86	0.3871	-0.2191	-0.1317	
-0.876814	0.487146	-0.122	-3.99	-0.98	45.5	0.394	-0.226	-0.1394	
-0.872544	0.503128	-0.10675	-6.09	1.4	42.84	0.3806	-0.2233	-0.1274	
-0.87413	0.519232	-0.098088	-3.43	0.42	40.6	0.3836	-0.2411	-0.1405	
-0.868884	0.524478	-0.097112	-2.03	1.12	38.5	0.3869	-0.2442	-0.1341	
-0.859978	0.52277	-0.113338	-6.51	3.5	35.42	0.3744	-0.2435	-0.1348	
-0.834114	0.5307	-0.088572	-3.64	2.03	33.88	0.3774	-0.2483	-0.1332	
-0.824232	0.536434	-0.096502	-3.22	1.05	33.11	0.3755	-0.2469	-0.1427	
-0.827892	0.545828	-0.09089	-6.37	3.57	31.85	0.3697	-0.2603	-0.134	
-0.829356	0.56059	-0.110166	-3.71	1.26	30.8	0.3687	-0.2616	-0.1278	
-0.828258	0.548512	-0.118462	-5.95	1.26	29.54	0.3729	-0.2748	-0.1422	
-0.828624	0.569618	-0.096746	-4.2	1.26	28.21	0.3656	-0.2714	-0.1457	
-0.837408	0.566934	-0.099918	-6.72	-1.05	27.3	0.3522	-0.2768	-0.1434	
-0.820816	0.570716	-0.097234	-7.28	-2.1	25.76	0.3583	-0.2832	-0.137	
-0.808982	0.576694	-0.117852	-4.9	-0.21	23.31	0.3595	-0.2818	-0.14	
-0.78446	0.597556	-0.115168	-3.36	2.17	20.72	0.3572	-0.2894	-0.1389	
-0.804712	0.59597	-0.08479	-4.48	4.2	18.9	0.3574	-0.2957	-0.1406	
-0.788608	0.60085	-0.100162	-0.63	1.54	18.2	0.3607	-0.2917	-0.1545	
-0.779946	0.61122	-0.09467199	0	1.19	16.8	0.353	-0.2941	-0.1455	
-0.784826	0.61854	-0.106872	0.42	2.94	15.12	0.3525	-0.2863	-0.1469	
-0.781288	0.620614	-0.103456	1.75	2.1	13.09	0.3573	-0.2958	-0.1438	
-0.76982	0.63989	-0.10431	1.82	-1.61	12.46	0.3467	-0.2965	-0.1349	
-0.759694	0.665632	-0.110288	1.61	-2.31	10.85	0.3412	-0.2978	-0.1369	
-0.753106	0.673684	-0.109922	0.98	0.28	8.96	0.3426	-0.3026	-0.1401	
-0.756034	0.678564	-0.10431	0.42	0.63	7.56	0.3415	-0.304	-0.137	
-0.758352	0.689056	-0.095648	-0.98	-1.54	5.67	0.3465	-0.2966	-0.1397	
-0.76067	0.682346	-0.101382	0.49	-1.61	3.5	0.3469	-0.3044	-0.1399	
-0.747494	0.66978	-0.11346	0.07	-0.84	1.33	0.3479	-0.3048	-0.1478	
-0.736514	0.667462	-0.098454	3.29	-3.99	0.98	0.344	-0.3043	-0.1416	
-0.73017	0.666242	-0.100406	2.17	-3.71	0	0.3454	-0.3061	-0.1448	
-0.737246	0.67039	-0.098698	1.54	-1.33	-1.47	0.3426	-0.3026	-0.1401	
-0.742248	0.677832	-0.09882	1.33	-2.31	-2.38	0.3371	-0.3007	-0.1372	
-0.750178	0.679662	-0.0915	0.49	-1.89	-4.13	0.3479	-0.3064	-0.1494	
-0.745786	0.674538	-0.097722	-0.14	-1.96	-6.51	0.3468	-0.3029	-0.1399	
-0.754936	0.66917	-0.097356	-0.56	-1.96	-9.03	0.3468	-0.3013	-0.1382	
-0.76372	0.655994	-0.091866	-0.35	-2.59	-11.27	0.3419	-0.2918	-0.1445	
-0.761524	0.659288	-0.092476	0.14	-3.08	-13.93	0.36	-0.2912	-0.1403	
-0.77653	0.652212	-0.07991	0.7	-3.15	-16.8	0.3531	-0.2972	-0.1456	
-0.774822	0.642574	-0.08418	0.07	-3.71	-20.02	0.3506	-0.3001	-0.1443	
-0.782142	0.637328	-0.080154	0.49	-4.27	-22.89	0.358	-0.285	-0.1465	
-0.779092	0.626592	-0.079178	-0.91	-4.41	-25.69	0.3618	-0.2904	-0.1591	
-0.789096	0.63196	-0.074542	-0.49	-5.46	-28.56	0.3523	-0.2767	-0.1402	
-0.792024	0.629032	-0.069052	-2.94	-4.9	-31.85	0.3635	-0.2822	-0.1446	
-0.779458	0.613538	-0.076982	-2.03	-4.06	-35.28	0.3636	-0.2804	-0.1398	
-0.785436	0.600484	-0.07503	-2.1	-2.59	-38.01	0.3625	-0.2698	-0.1505	
-0.798124	0.596092	-0.064538	-1.4	-2.24	-40.88	0.3624	-0.2602	-0.1423	
-0.816546	0.576694	-0.069784	-0.84	-1.26	-45.08	0.3648	-0.259	-0.15	
-0.82716	0.566568	-0.06527	0.77	-1.26	-47.81	0.3703	-0.2593	-0.1497	
-0.831674	0.551928	-0.066246	0.49	0.91	-51.45	0.3709	-0.247	-0.154	
-0.843996	0.539972	-0.075396	1.75	2.87	-53.76	0.3737	-0.2358	-0.1408	
-0.840458	0.516304	-0.084058	3.5	3.43	-56.28	0.3886	-0.2402	-0.1512	
-0.856562	0.489586	-0.082716	6.09	4.41	-57.75	0.3757	-0.2284	-0.1483	
-0.882792	0.474336	-0.091134	8.61	4.62	-60.2	0.3834	-0.2131	-0.1443	
-0.878156	0.449082	-0.100162	8.96	3.57	-62.86	0.386	-0.2183	-0.1537	
-0.886086	0.433832	-0.117364	9.87	6.23	-64.47	0.397	-0.2173	-0.1531	
-0.900848	0.412726	-0.125416	10.36	4.41	-64.89	0.3991	-0.2001	-0.1477	
-0.946964	0.39711	-0.134688	16.87	4.06	-66.08	0.395	-0.195	-0.1414	
-0.964044	0.36539	-0.114436	13.58	3.85	-67.76	0.4027	-0.1829	-0.1406	
-0.98088	0.318176	-0.12078	13.02	3.29	-67.83	0.4151	-0.1675	-0.1252	
-0.988078	0.267424	-0.12383	16.52	4.2	-66.57	0.4138	-0.1538	-0.1374	
-0.985394	0.221308	-0.147742	15.61	3.99	-65.73	0.4093	-0.144	-0.1342	
-0.995886	0.200202	-0.158722	14.77	3.36	-65.24	0.4161	-0.1283	-0.1191	
-1.002718	0.179584	-0.15616	13.23	1.26	-65.1	0.4132	-0.1179	-0.1394	
-1.00162	0.119804	-0.158478	18.2	0	-65.31	0.4202	-0.1102	-0.1293	
-0.991006	0.126148	-0.149694	23.52	-2.03	-67.34	0.4127	-0.1069	-0.1374	
-1.018578	0.107116	-0.12322	21.91	-3.78	-69.72	0.4183	-0.0991	-0.129	
-1.031266	0.097844	-0.128466	20.3	-6.93	-71.54	0.4211	-0.08899999	-0.1458	
-1.01504	0.076738	-0.125538	15.12	-8.61	-71.89	0.4192	-0.0665	-0.1326	
-1.003816	0.06893	-0.137128	18.06	-13.16	-70	0.4204	-0.0635	-0.1324	
-1.013698	0.020374	-0.129564	14.56	-14.91	-65.94	0.4169	-0.0541	-0.137	
-1.06506	-0.023546	-0.115046	5.95	-12.53	-61.18	0.4196	-0.0543	-0.1384	
-1.082262	-0.05673	-0.106018	0.21	-13.58	-59.85	0.422	-0.0467	-0.1396	
-1.060424	-0.05124	-0.087352	2.66	-16.87	-58.24	0.4181	-0.0359	-0.1504	
-1.058716	-0.038308	-0.064904	-1.05	-14.56	-58.17	0.4168	-0.0293	-0.1424	
-1.068476	-0.035624	-0.08052	-6.3	-15.47	-56.84	0.4076	-0.0181	-0.1488	
-0.994544	-0.016592	-0.10004	-1.12	-19.46	-56.49	0.4083	-0.0056	-0.1499	
-0.99857	-0.061854	-0.063684	-3.22	-13.65	-56.21	0.4049	0.0037	-0.1529	
-0.990274	-0.075274	-0.062708	-1.89	-15.05	-54.6	0.4119	0.0153	-0.1679	
-0.993568	-0.101992	-0.050874	-0.56	-12.04	-53.83	0.4064	0.0238	-0.1569	
-1.002352	-0.119438	-0.04575	-0.91	-10.92	-53.34	0.4004	0.0335	-0.1569	
-0.99613	-0.127002	-0.051606	-0.91	-8.12	-52.01	0.4006	0.0504	-0.1626	
-1.003816	-0.135176	-0.03721	1.12	-7.07	-50.82	0.3918	0.0587	-0.1643	
-1.025044	-0.149084	-0.04331	-0.07	-5.18	-49.07	0.3973	0.0583	-0.1656	
-1.009672	-0.195932	-0.043188	0.49	-5.18	-45.15	0.3871	0.0731	-0.1609	
-0.985638	-0.217038	-0.040626	4.48	-3.64	-43.54	0.3857	0.07319999	-0.1626	
-0.986004	-0.235094	-0.02806	6.93	-4.83	-39.62	0.3849	0.084	-0.167	
-0.974536	-0.236558	-0.028792	8.54	-4.9	-38.36	0.3834	0.0775	-0.1767	
-0.971974	-0.250466	-0.02623	10.43	-5.53	-37.45	0.3901	0.08989999	-0.1681	
-0.962702	-0.254248	-0.021594	8.26	-8.47	-36.89	0.3802	0.08549999	-0.1766	
-0.96868	-0.263886	-0.029036	7.7	-9.52	-36.4	0.3764	0.1044	-0.1777	
-0.977098	-0.292922	-0.019642	6.16	-7.56	-35	0.3861	0.1087	-0.1724	
-0.950014	-0.302438	-0.027816	5.18	-7.56	-33.39	0.3782	0.1078	-0.1649	
-0.942572	-0.314394	-0.024034	2.87	-8.05	-34.37	0.3749	0.1108	-0.1745	
-0.949526	-0.322934	-0.040748	-1.05	-7.84	-35.63	0.3728	0.1251	-0.1725	
-0.961482	-0.331352	-0.020496	-2.17	-8.26	-34.86	0.3648	0.1225	-0.1699	
-0.981612	-0.344162	-0.018544	-2.8	-6.51	-31.5	0.364	0.1236	-0.1856	
-0.97234	-0.354898	-0.006954	-2.59	-5.6	-27.86	0.3624	0.1284	-0.1855	
-0.95038	-0.35807	-0.016226	-0.84	-2.24	-24.71	0.3569	0.1303	-0.1826	
-0.929152	-0.388814	-0.029524	0.84	-2.66	-21.28	0.3578	0.1429	-0.179	
-0.91134	-0.420534	-0.010736	0.91	-1.89	-18.27	0.356	0.1459	-0.1853	
-0.907802	-0.426024	-0.008052	-0.14	-1.33	-16.73	0.3487	0.1477	-0.1903	
-0.915488	-0.439322	0.003172	-0.84	-2.87	-14.98	0.3554	0.1504	-0.1914	
-0.925248	-0.446642	0.000732	-0.56	-2.03	-14.28	0.3534	0.1413	-0.1871	
-0.919758	-0.435784	0.007076	0.63	-3.43	-12.95	0.3499	0.1572	-0.1852	
-0.898164	-0.440542	-0.006344	7.98	-0.28	-11.69	0.343	0.156	-0.1856	
-0.905362	-0.452254	0.01647	1.19	0.7	-11.2	0.349	0.1495	-0.1824	
-0.893162	-0.45933	0.00976	0.91	-1.54	-11.2	0.3457	0.1623	-0.179	
-0.895968	-0.477264	0.008296	1.33	-1.75	-10.85	0.3444	0.1559	-0.1855	
-0.901458	-0.471164	0.014518	0.35	-1.33	-10.15	0.3456	0.1606	-0.1837	
-0.906826	-0.457378	0.001342	0.84	-1.89	-9.03	0.3431	0.1545	-0.1841	
-0.912316	-0.458476	0.010736	0.07	-1.68	-7.56	0.3504	0.1727	-0.1862	
-0.914756	-0.451766	0.011224	-0.14	-1.75	-6.16	0.3423	0.1701	-0.1852	
-0.915732	-0.455792	0.00549	-1.4	-1.82	-4.48	0.3422	0.1636	-0.1933	
-0.91805	-0.458598	0.0061	-1.47	-1.05	-2.17	0.3549	0.1662	-0.1862	
-0.911096	-0.45384	0.004392	-1.12	-0.98	0.42	0.3464	0.1731	-0.1817	
-0.90707	-0.447374	0.00427	-1.33	0.56	2.87	0.3421	0.1667	-0.1932	
-0.902068	-0.443348	0.008784	-1.19	0.84	4.97	0.3433	0.1563	-0.1777	
-0.903654	-0.455548	0.007076	-1.05	1.4	7.14	0.3427	0.1623	-0.1854	
-0.909998	-0.466406	0.007929999	-0.98	1.96	10.43	0.3486	0.1525	-0.1886	
-0.910364	-0.455914	0.010004	-0.84	2.87	12.6	0.3553	0.16	-0.1848	
-0.908534	-0.447984	0.010736	-0.49	3.08	14.56	0.3463	0.1579	-0.1712	
-0.906216	-0.448594	0.00732	-0.07	3.85	16.24	0.341	0.1502	-0.1765	
-0.915488	-0.453352	0.013054	2.94	1.33	18.97	0.3502	0.1574	-0.1773	
-0.917928	-0.450912	0.008417999	0.21	3.85	21.35	0.3512	0.1571	-0.1867	
-0.91805	-0.438834	0.012444	2.52	3.78	24.5	0.3478	0.1465	-0.1825	
-0.914512	-0.429074	0.000244	0.91	4.62	27.72	0.3587	0.1457	-0.1851	
-0.916098	-0.412848	-0.008296	1.26	4.27	31.43	0.3633	0.1441	-0.1786	
-0.942938	-0.40321	-0.00061	1.82	6.09	34.86	0.3576	0.1411	-0.1853	
-0.950136	-0.38674	0.000976	1.33	4.76	39.06	0.3621	0.1379	-0.1821	
-0.956114	-0.366	-0.00061	0.84	3.92	42	0.3602	0.1257	-0.1763	
-0.948062	-0.362584	-0.001586	2.17	3.78	44.73	0.366	0.1174	-0.1794	
-0.932568	-0.35197	-0.014152	1.96	3.92	47.39	0.3756	0.1216	-0.1772	
-0.917318	-0.313296	-0.02745	4.13	3.29	49.42	0.3777	0.1107	-0.1727	
-0.932324	-0.299632	-0.036966	0.98	1.82	50.89	0.375	0.1044	-0.1794	
-0.948916	-0.266814	-0.0305	1.26	3.43	51.87	0.3749	0.1028	-0.1826	
-0.968436	-0.258884	-0.02867	0.7	2.1	55.3	0.377	0.0685	-0.1758	
-0.975024	-0.251442	-0.030134	-1.05	4.62	56.7	0.3852	0.0712	-0.1753	
-0.972828	-0.219844	-0.02806	-2.73	4.55	56.7	0.3858	0.0684	-0.1659	
-0.975634	-0.19642	-0.038918	-5.32	4.27	56.98	0.3922	0.0508	-0.1662	
-0.991616	-0.158356	-0.03782	-0.42	8.61	56.21	0.3994	0.0425	-0.1676	
-0.993446	-0.141398	-0.042578	-6.51	6.09	57.33	0.4037	0.044	-0.1642	
-1.011014	-0.10858	-0.050508	-8.47	9.38	59.36	0.3986	0.0397	-0.1599	
-1.026874	-0.083936	-0.040748	-8.26	10.29	62.09	0.4006	0.0271	-0.1602	
-1.03761	-0.053314	-0.025864	-9.24	10.85	65.31	0.405	0.0124	-0.1715	
-1.035048	-0.015006	-0.040016	-11.62	10.36	68.95	0.4029	0.005	-0.164	
-1.030656	0.028182	-0.036844	-11.41	10.36	70.91	0.4102	-0.0016	-0.1639	
-1.03944	0.061244	-0.05063	-11.13	11.55	71.96	0.4141	-0.0236	-0.1628	
-1.017602	0.091988	-0.068198	-10.85	9.87	73.36	0.4053	-0.0241	-0.146	
-1.006744	0.108458	-0.063684	-7.21	9.03	74.83	0.4136	-0.031	-0.1521	
-0.989176	0.14091	-0.063196	-5.39	7.91	76.93	0.4117	-0.0465	-0.1527	
-0.966362	0.187514	-0.07991	-4.69	8.12	78.54	0.4085	-0.0602	-0.1471	
-0.98881	0.20191	-0.100894	-7.7	10.36	80.29	0.4112	-0.07009999	-0.1583	
-1.001376	0.224602	-0.073078	-9.52	10.01	83.44	0.411	-0.0806	-0.1461	
-1.020286	0.241804	-0.079422	-9.87	4.34	84.98	0.4112	-0.0983	-0.1608	
-0.989054	0.27206	-0.082838	-12.53	5.18	83.79	0.4096	-0.1167	-0.1553	
-1.012112	0.271572	-0.102846	-8.68	6.02	81.9	0.4016	-0.1225	-0.1559	
-0.990884	0.259738	-0.095038	-14	6.37	80.5	0.4029	-0.1411	-0.1502	
-0.99064	0.284504	-0.107604	-6.65	3.57	79.24	0.3983	-0.146	-0.1648	
-1.007354	0.298412	-0.114802	-12.81	3.01	74.97	0.4084	-0.1663	-0.1476	
-1.000522	0.336842	-0.07564	0.42	4.48	68.11	0.4021	-0.1736	-0.1435	
-0.973316	0.355386	-0.085278	0.07	6.02	63	0.3884	-0.184	-0.1524	
-0.951356	0.384666	-0.100406	5.18	2.1	59.92	0.397	-0.1875	-0.1489	
-0.917562	0.410896	-0.105652	-1.26	1.96	57.61	0.4024	-0.2097	-0.1478	
-0.90463	0.432978	-0.108458	-7.7	1.82	54.6	0.391	-0.2076	-0.1515	
-0.91561	0.47641	-0.073688	-9.87	3.08	52.15	0.3889	-0.2118	-0.1439	
-0.894016	0.504226	-0.096014	-8.68	2.66	50.33	0.3887	-0.2168	-0.152	
-0.874618	0.499346	-0.0915	-9.03	4.41	49.7	0.3893	-0.2245	-0.1475	
-0.866566	0.508374	-0.106994	-7.84	3.15	49.84	0.3844	-0.2253	-0.1352	
-0.868396	0.518866	-0.073444	-6.65	0.77	48.58	0.3791	-0.2411	-0.1486	
-0.854	0.52765	-0.075396	-10.92	0.49	46.41	0.3736	-0.2456	-0.1522	
-0.84912	0.521916	-0.07259	-5.25	-1.05	45.36	0.3781	-0.2456	-0.1457	
-0.842654	0.5124	-0.09076799	-6.93	-0.42	44.94	0.3757	-0.2533	-0.1461	
-0.851682	0.534848	-0.088206	-5.95	-2.8	41.86	0.3609	-0.2651	-0.1504	
-0.855952	0.565714	-0.093696	-2.73	-2.87	39.48	0.3635	-0.2621	-0.1517	
-0.86315	0.575962	-0.0915	-5.6	-3.5	36.12	0.3568	-0.2697	-0.1555	
-0.846924	0.580232	-0.084912	-5.67	-3.57	34.16	0.3572	-0.2775	-0.1542	
-0.823866	0.588772	-0.084912	-3.43	-6.58	31.71	0.354	-0.2695	-0.1557	
-0.810202	0.591334	-0.076738	-3.29	-5.11	28.42	0.3477	-0.2849	-0.1597	
-0.806542	0.586454	-0.063074	-4.76	-4.83	24.85	0.3502	-0.2755	-0.1561	
-0.791048	0.595848	-0.052948	-3.5	-1.4	20.51	0.3512	-0.2927	-0.1535	
-0.79056	0.5978	-0.03172	-3.99	2.73	18.2	0.3415	-0.2954	-0.1572	
-0.776164	0.622566	-0.064538	-1.05	2.45	16.24	0.3416	-0.3001	-0.1589	
-0.73871	0.669658	-0.066978	2.59	-3.29	16.03	0.336	-0.2917	-0.1511	
-0.73566	0.698694	-0.060268	1.4	-8.19	15.89	0.3327	-0.2887	-0.1606	
-0.735294	0.695766	-0.072712	-0.49	-3.99	14.21	0.3332	-0.2948	-0.1561	
-0.740174	0.687104	-0.049532	-1.12	-3.15	12.81	0.3392	-0.3062	-0.1593	
-0.741028	0.688812	-0.055388	-1.19	-4.9	11.48	0.3406	-0.2998	-0.1511	
-0.742858	0.685518	-0.055754	-1.96	-6.44	9.8	0.3371	-0.2952	-0.1606	
-0.744322	0.683566	-0.05368	-1.61	-5.74	7.77	0.3305	-0.3027	-0.1628	
-0.72163	0.682346	-0.033672	-2.24	-5.6	5.95	0.328	-0.3073	-0.1631	
-0.719556	0.683566	-0.051728	-0.98	-4.06	3.57	0.3304	-0.3044	-0.1676	
-0.720288	0.690642	-0.043066	0.56	-4.27	2.59	0.3318	-0.3045	-0.1675	
-0.72468	0.70272	-0.027206	1.82	-5.04	0.77	0.3397	-0.3004	-0.1701	
-0.732488	0.709918	-0.027328	1.19	-3.78	-1.54	0.3306	-0.3108	-0.1709	
-0.740906	0.70638	-0.0305	0.35	-3.15	-4.9	0.3363	-0.3093	-0.1643	
-0.739686	0.690886	-0.033672	-0.56	-3.22	-6.93	0.337	-0.2969	-0.1654	
-0.730048	0.684786	-0.030744	-0.77	-2.45	-9.17	0.3352	-0.2939	-0.1717	
-0.737856	0.689544	-0.022204	-1.19	-3.64	-11.41	0.3345	-0.3015	-0.1657	
-0.7503	0.682712	-0.02379	-3.64	-3.64	-14.98	0.3381	-0.3037	-0.1781	
-0.756766	0.670268	-0.01952	-4.06	-3.22	-18.69	0.3348	-0.2861	-0.1714	
-0.753716	0.657458	-0.020618	-4.27	-3.22	-21.77	0.3365	-0.2924	-0.1715	
-0.759816	0.649894	-0.015372	-5.25	-3.22	-24.5	0.3432	-0.2897	-0.1727	
-0.777018	0.647332	-0.01281	-5.88	-3.01	-27.58	0.3336	-0.2826	-0.1635	
-0.782752	0.637816	-0.008052	-6.72	-2.66	-30.31	0.3461	-0.285	-0.1645	
-0.778116	0.627202	-0.00854	-6.51	-3.64	-32.9	0.343	-0.2769	-0.1628	
-0.78873	0.614392	-0.019154	-8.12	-4.2	-35	0.3438	-0.2758	-0.1737	
-0.792512	0.604144	-0.010736	-7.21	-3.57	-37.24	0.3471	-0.2685	-0.1843	
-0.809348	0.592066	-0.019398	-6.3	-0.63	-40.88	0.3478	-0.2696	-0.1702	
-0.811544	0.58682	-0.016348	-4.9	1.05	-42.91	0.3457	-0.2604	-0.1762	
-0.841068	0.579256	-0.007564	-2.73	1.96	-44.17	0.3519	-0.2564	-0.1868	
-0.870836	0.568032	-0.009881999	-1.96	6.93	-46.76	0.3604	-0.2454	-0.1686	
-0.873154	0.555588	-0.00244	-3.08	8.61	-49.7	0.3611	-0.2395	-0.1779	
-0.85644	0.538996	-0.005368	-4.69	8.96	-53.13	0.3651	-0.235	-0.1759	
-0.842776	0.530212	-0.027816	-4.97	9.38	-55.79	0.3697	-0.2229	-0.1815	
-0.863638	0.513742	-0.036234	-2.31	9.17	-56.84	0.372	-0.217	-0.1859	
-0.88694	0.472262	-0.042822	-5.04	11.97	-57.26	0.3723	-0.207	-0.1667	
-0.885598	0.437492	-0.054534	-2.66	11.27	-56.56	0.3801	-0.1965	-0.1675	
-0.885354	0.420168	-0.051728	2.38	11.27	-55.16	0.3865	-0.1876	-0.1684	
-0.87535	0.380884	-0.04819	1.47	9.87	-53.34	0.3929	-0.177	-0.1661	
-0.922198	0.367586	-0.03904	3.92	12.46	-53.27	0.4	-0.1789	-0.1642	
-0.957578	0.338794	-0.035746	6.51	13.79	-52.43	0.3976	-0.1633	-0.1685	
-0.971486	0.310246	-0.036844	11.69	13.02	-49.84	0.3939	-0.1643	-0.1609	
-0.970144	0.265716	-0.062464	11.97	12.6	-47.25	0.4035	-0.1585	-0.1555	
-0.978928	0.247904	-0.089182	11.2	12.88	-46.41	0.3975	-0.1439	-0.1506	
-0.990884	0.250588	-0.09882	14.35	13.02	-47.18	0.4058	-0.1363	-0.142	
-0.980148	0.25437	-0.099552	19.74	14.21	-49.63	0.4055	-0.1446	-0.1565	
-0.982954	0.244366	-0.105164	23.1	14.07	-50.54	0.4081	-0.1335	-0.1481	
-0.99186	0.227164	-0.097966	22.82	12.81	-50.54	0.4119	-0.1275	-0.1476	
-0.996374	0.213866	-0.099674	21.35	7.7	-50.26	0.4115	-0.1181	-0.1458	
-1.011258	0.22387	-0.09211	12.88	8.19	-51.17	0.4139	-0.1088	-0.1453	
-0.99979	0.245464	-0.108824	17.71	6.23	-51.1	0.4143	-0.1069	-0.1342	
-0.97905	0.215208	-0.10431	10.71	8.05	-50.61	0.4192	-0.0963	-0.1352	
-1.602836	0.28487	-0.135542	6.58	8.54	-51.59	0.4204	-0.0933	-0.1366	
-0.817156	0.128466	-0.09821	-5.32	-12.88	-47.39	0.419	-0.09	-0.1334	
-1.034926	0.176534	-0.084546	-7.56	13.44	-47.53	0.4154	-0.0758	-0.1347	
-1.011502	0.159576	-0.135664	-7.84	0.14	-44.31	0.4198	-0.0791	-0.133	
-1.0126	0.139324	-0.121146	-11.83	4.13	-41.44	0.426	-0.0621	-0.1289	
-0.99857	0.128954	-0.118706	-17.5	9.24	-40.88	0.4128	-0.0538	-0.1372	
-1.014552	0.121878	-0.128832	-19.67	8.33	-41.44	0.4224	-0.0415	-0.1252	
-0.992592	0.116266	-0.122122	-17.01	5.11	-41.86	0.4197	-0.0396	-0.1206	
-0.988932	0.078202	-0.13054	-31.01	8.33	-41.02	0.4198	-0.0244	-0.1311	
-1.016992	0.066124	-0.14213	-29.68	8.47	-39.76	0.4167	-0.0228	-0.1359	
-1.004182	0.046726	-0.131394	-35.21	1.61	-38.99	0.421	-0.0165	-0.1276	
-1.006378	0.015372	-0.144448	-34.79	7.63	-38.92	0.4204	-0.004	-0.1256	
-1.014918	-0.009516	-0.13664	-36.4	6.93	-38.92	0.4175	0.0041	-0.1192	
-1.04859	-0.024522	-0.151524	-33.74	2.17	-36.68	0.4214	0.0102	-0.1188	
-1.047004	-0.04636	-0.149328	-35.42	3.64	-35.56	0.422	0.0274	-0.115	
-1.05164	-0.063684	-0.15616	-34.23	0.91	-31.29	0.4131	0.0356	-0.1199	
-1.031754	-0.050996	-0.154574	-35.42	0.49	-30.45	0.4151	0.0343	-0.1088	
-1.000278	-0.08662	-0.1769	-34.16	0.35	-26.04	0.4185	0.0416	-0.1163	
-0.961116	-0.102968	-0.192638	-36.68	-7	-24.43	0.4183	0.0448	-0.1162	
-1.0126	-0.105286	-0.15738	-41.23	2.24	-21.21	0.4092	0.0544	-0.1226	
-1.01626	-0.081252	-0.15494	-39.9	-0.56	-19.25	0.4175	0.0588	-0.1189	
-1.006988	-0.084668	-0.170312	-41.16	-3.15	-16.03	0.4158	0.0619	-0.1204	
-1.019554	-0.068442	-0.168482	-38.29	-3.36	-13.72	0.4056	0.067	-0.1271	
-1.01992	-0.079422	-0.162382	-39.06	-2.87	-11.27	0.4092	0.0609	-0.1161	
-1.016992	-0.103456	-0.153964	-38.92	-0.28	-9.38	0.408	0.0779	-0.1219	
-1.032364	-0.117486	-0.155794	-38.71	-3.57	-6.3	0.4055	0.0799	-0.1141	
-1.018822	-0.123952	-0.159332	-33.39	-6.51	-2.17	0.4112	0.07319999	-0.1187	
-0.986492	-0.147498	-0.146888	-32.41	-5.46	0.35	0.4151	0.0825	-0.1135	
-0.98942	-0.154574	-0.148352	-30.94	-4.27	1.68	0.4084	0.083	-0.1091	
-1.010648	-0.15006	-0.12017	-28	-3.01	1.89	0.4182	0.0841	-0.1054	
-1.008574	-0.134566	-0.113216	-22.47	-4.06	5.25	0.4099	0.07979999	-0.1107	
-1.00406	-0.133834	-0.108946	-18.69	-3.85	6.86	0.4028	0.0866	-0.1061	
-1.011502	-0.122122	-0.119926	-16.87	-3.5	9.03	0.4166	0.0906	-0.1021	
-1.005036	-0.09357399	-0.124196	-14	-3.99	10.43	0.4096	0.0845	-0.1105	
-1.007598	-0.059536	-0.123098	-13.37	-4.2	10.99	0.4051	0.0893	-0.1138	
-1.010648	-0.054412	-0.120048	-14.21	-2.03	12.67	0.41	0.088	-0.0994	
-1.014674	-0.031842	-0.126636	-14.91	-3.29	13.86	0.4084	0.0846	-0.1074	
-1.00833	-0.02196	-0.124806	-16.73	-2.73	14.56	0.4149	0.0889	-0.1101	
-0.97905	-0.022326	-0.120292	-17.29	-2.1	14	0.4124	0.0843	-0.1104	
-1.000888	-0.02135	-0.119072	-19.11	-0.35	13.72	0.4136	0.0857	-0.1134	
-1.013576	-0.015006	-0.112728	-18.48	-1.33	12.81	0.4143	0.0765	-0.1074	
-1.00467	-0.022814	-0.099186	-17.15	-1.47	12.67	0.4118	0.0736	-0.1045	
-1.020164	-0.01525	-0.102968	-16.03	-1.89	13.37	0.4117	0.08	-0.09959999	
-1.016748	-0.007808	-0.100528	-13.93	-2.94	13.51	0.4081	0.0693	-0.1017	
-1.005646	-0.00915	-0.10858	-13.51	-4.13	13.16	0.4177	0.0735	-0.0979	
-0.997228	-0.002684	-0.101626	-10.64	-4.41	12.32	0.4206	0.0605	-0.1092	
-0.99308	-0.003416	-0.090036	-8.33	-4.13	11.55	0.4135	0.077	-0.0948	
-0.999668	0.003782	-0.085766	-4.83	-4.27	10.01	0.4082	0.0661	-0.1018	
-1.001986	-0.008296	-0.081252	-2.59	-3.71	9.45	0.4048	0.0691	-0.1129	
-1.005768	-0.011468	-0.077104	1.96	-3.15	9.03	0.4123	0.0578	-0.1113	
-1.004792	0.006344	-0.077714	6.86	-3.01	8.26	0.4168	0.0561	-0.1064	
-0.996862	0.017446	-0.085766	7.91	-2.52	7.56	0.4149	0.0623	-0.111	
-0.99918	0.031598	-0.079666	9.59	-2.45	7.21	0.4122	0.0674	-0.1031	
-1.003938	0.032818	-0.094428	10.5	-2.31	6.65	0.415	0.0559	-0.116	
-0.998204	0.011224	-0.096502	12.18	-0.42	6.37	0.4138	0.0642	-0.1016	
-0.990518	0.007076	-0.093208	15.96	0.35	6.58	0.4128	0.0532	-0.1067	
-0.990518	0.012322	-0.092232	18.83	-0.56	6.93	0.4152	0.0544	-0.1128	
-0.984662	0.008417999	-0.097112	18.2	-1.89	6.65	0.4222	0.0508	-0.1158	
-0.968924	0.005368	-0.104188	19.39	-2.59	7.56	0.416	0.0469	-0.1036	
-0.981002	0.007442	-0.097234	19.81	1.12	8.26	0.4222	0.0492	-0.1158	
-1.007476	0.01159	-0.096502	21.56	1.33	7.84	0.413	0.0388	-0.1182	
-1.016138	0.02013	-0.104432	23.17	1.47	7.77	0.4212	0.0415	-0.1161	
-1.00284	0.01891	-0.105774	24.15	0.77	7.28	0.412	0.0423	-0.1071	
-1.01626	0.003416	-0.093208	25.2	1.96	8.12	0.4153	0.0448	-0.121	
-1.00833	-0.025742	-0.104798	29.61	2.8	9.87	0.4112	0.0483	-0.1164	
-0.98759	-0.031598	-0.101748	32.97	4.06	12.67	0.4202	0.0369	-0.1148	
-0.992226	0.031964	-0.126514	36.54	2.38	13.79	0.4182	0.0262	-0.1105	
-1.027362	0.039284	-0.10492	39.55	2.8	15.54	0.4139	0.0248	-0.1139	
-1.055422	0.03355	-0.120414	41.86	0.63	18.9	0.4162	0.0107	-0.1112	
-1.032852	0.030866	-0.135298	44.31	7.63	21.98	0.4213	0.0117	-0.1187	
-1.03395	0.039162	-0.140788	54.67	6.58	24.22	0.4122	0.0046	-0.1147	
-1.00162	0.039162	-0.149694	54.81	2.03	26.46	0.4264	-0.004	-0.1158	
-1.033706	0.04758	-0.137006	53.2	3.5	23.94	0.424	-0.0117	-0.1162	
-1.044198	0.050386	-0.147864	55.58	-0.49	26.6	0.4279	-0.0072	-0.1159	
-1.029802	0.053802	-0.139324	59.99	2.31	31.22	0.4263	-0.0192	-0.1054	
-1.014552	0.07503	-0.154574	59.64	1.89	32.13	0.425	-0.0288	-0.1136	
-1.022116	0.080032	-0.1464	60.76	-0.42	33.74	0.4187	-0.036	-0.1079	
-0.99247	0.113826	-0.147864	53.34	-6.3	30.8	0.4283	-0.0448	-0.1203	
-1.006256	0.123586	-0.166896	58.8	-4.62	33.25	0.4253	-0.0584	-0.1115	
-1.006866	0.12322	-0.172264	62.09	-5.81	34.72	0.4268	-0.0713	-0.1229	
-0.99674	0.12688	-0.185318	55.72	-5.81	34.16	0.4337	-0.0653	-0.116	
-1.00955	0.154452	-0.170678	54.95	-8.75	34.51	0.4258	-0.0775	-0.1216	
-1.005646	0.155428	-0.17385	49.35	-9.31	35.14	0.4247	-0.0853	-0.1235	
-1.008574	0.166408	-0.175924	48.23	-9.66	37.38	0.416	-0.0922	-0.1116	
-0.993446	0.157258	-0.181902	51.94	-9.1	38.22	0.4284	-0.0994	-0.119	
-1.001254	0.152134	-0.210572	48.79	-9.24	35.77	0.4237	-0.1163	-0.1199	
-0.989176	0.155306	-0.196298	49.21	-5.88	32.27	0.422	-0.1164	-0.1263	
-0.952942	0.19093	-0.288774	56.14	-28.28	34.3	0.4306	-0.14	-0.1172	
-1.021262	0.208254	-0.118584	67.41	1.75	32.76	0.4095	-0.1342	-0.1197	
-0.97112	0.236192	-0.242902	59.64	-19.11	32.97	0.4158	-0.1437	-0.1118	
-0.98088	0.273768	-0.171044	69.86	-14.98	29.4	0.4118	-0.1563	-0.1235	
-0.956236	0.298656	-0.196786	63.56	-18.41	26.46	0.415	-0.161	-0.1187	
-0.941962	0.337818	-0.172264	61.67	-18.69	21	0.4115	-0.1685	-0.1145	
-0.968436	0.333548	-0.16897	59.29	-13.16	16.94	0.4125	-0.1736	-0.1272	
-0.981612	0.364292	-0.139202	59.01	-10.57	16.38	0.4129	-0.1766	-0.1225	
-0.964898	0.37332	-0.166774	56	-12.39	14.49	0.408	-0.1872	-0.1216	
-0.934032	0.3599	-0.147254	48.58	-8.89	11.55	0.4081	-0.1823	-0.1135	
-0.94184	0.362706	-0.157014	47.39	-9.03	12.46	0.4072	-0.1883	-0.1091	
-0.947086	0.3477	-0.15555	43.68	-9.52	12.81	0.406	-0.1962	-0.1141	
-0.995032	0.35258	-0.164944	29.75	-4.69	21	0.3938	-0.2002	-0.1149	
-0.931348	0.34221	-0.15799	43.96	-11.9	12.39	0.4068	-0.2006	-0.1032	
-0.960872	0.285846	-0.164944	29.68	-5.81	11.34	0.4067	-0.2071	-0.1129	
-0.973682	0.288652	-0.178486	25.27	-6.58	8.33	0.3966	-0.2204	-0.106	
-0.977708	0.269254	-0.177998	26.32	-7	7.42	0.409	-0.2211	-0.107	
-0.969534	0.286334	-0.16958	24.85	-5.18	5.74	0.4009	-0.2238	-0.1075	
-0.95099	0.274622	-0.157746	23.8	-4.9	6.3	0.4035	-0.2176	-0.104	
-0.957578	0.283162	-0.156038	26.46	-4.34	4.34	0.3967	-0.2235	-0.1077	
-0.952454	0.271816	-0.159454	27.51	-5.39	4.76	0.4074	-0.2163	-0.1069	
-0.94428	0.273646	-0.166408	18.27	-4.76	4.83	0.4082	-0.2271	-0.1009	
-0.953674	0.279136	-0.156282	30.66	-2.31	5.25	0.4082	-0.2369	-0.1123	
-0.965386	0.29341	-0.157502	27.51	-2.31	6.09	0.3984	-0.225	-0.1014	
-0.96136	0.278526	-0.144692	18.69	-3.64	6.93	0.4008	-0.2406	-0.0986	
-0.947818	0.317444	-0.155672	25.97	-2.17	4.83	0.4015	-0.2266	-0.09649999	
-0.96014	0.296216	-0.137372	13.09	-1.47	4.13	0.4019	-0.2312	-0.0935	
-0.965752	0.310856	-0.153232	16.66	-3.36	3.08	0.4072	-0.2284	-0.0947	
-0.965874	0.314394	-0.141032	10.64	-3.78	2.59	0.4034	-0.2311	-0.0903	
-0.96319	0.295728	-0.116632	5.74	-3.71	0.56	0.4032	-0.2378	-0.1031	
-0.960262	0.31903	-0.162626	5.18	-3.36	-0.98	0.4081	-0.2375	-0.08549999	
-0.949526	0.285846	-0.15189	-1.4	-2.87	-2.31	0.389	-0.2291	-0.1004	
-0.949282	0.286944	-0.146278	-1.33	-0.07	-2.52	0.403	-0.2266	-0.0949	
-0.943182	0.296582	-0.158356	1.68	-1.12	-1.75	0.4033	-0.2296	-0.0918	
-0.9638	0.274256	-0.149328	-3.5	0.49	-0.98	0.3966	-0.2307	-0.0891	
-0.968314	0.270962	-0.150792	-1.89	-0.07	-0.56	0.3912	-0.2335	-0.0895	
-0.95831	0.271328	-0.151646	-1.82	0.91	-0.84	0.3961	-0.2342	-0.1018	
-0.961482	0.27755	-0.157258	-2.66	0.7	-0.91	0.4019	-0.2312	-0.0935	
-0.959896	0.276574	-0.160918	-2.31	0.42	-0.49	0.3985	-0.2282	-0.103	
-0.960994	0.272914	-0.153354	-3.01	0.56	-0.42	0.4038	-0.2438	-0.0954	
-0.964654	0.270352	-0.157136	-4.27	1.05	-0.49	0.4014	-0.2283	-0.1013	
-0.964166	0.271816	-0.161772	-5.74	0.77	-1.4	0.3921	-0.2339	-0.0989	
-0.958188	0.27938	-0.156526	-7.42	1.12	-2.73	0.396	-0.2279	-0.0984	
-0.936472	0.294752	-0.175192	-8.05	3.15	-3.99	0.3969	-0.2282	-0.1079	
-0.936472	0.297924	-0.158356	-1.61	0.7	-4.62	0.4005	-0.2295	-0.092	
-0.95038	0.291458	-0.155672	-13.02	4.48	-5.39	0.4019	-0.2312	-0.0935	
-0.952942	0.30378	-0.17507	-16.1	2.73	-6.3	0.3927	-0.2232	-0.1032	
-0.95221	0.30439	-0.162748	-13.02	0.14	-6.3	0.4084	-0.2319	-0.1026	
-0.944402	0.324276	-0.165066	-20.72	2.59	-8.89	0.4052	-0.2288	-0.109	
-0.94367	0.333182	-0.149694	-22.47	0.98	-11.69	0.4066	-0.224	-0.104	
-0.959164	0.351238	-0.148596	-31.29	4.62	-16.66	0.4049	-0.216	-0.1007	
-0.95282	0.364536	-0.177266	-32.97	3.85	-20.65	0.402	-0.2095	-0.0975	
-0.949526	0.336476	-0.164822	-35.35	5.88	-23.45	0.4071	-0.2101	-0.1067	
-0.960506	0.299876	-0.165066	-37.87	6.37	-24.78	0.4139	-0.2073	-0.1062	
-0.971242	0.276452	-0.151036	-41.86	9.31	-24.29	0.3991	-0.1909	-0.108	
-0.969046	0.267302	-0.158478	-45.57	8.54	-25.13	0.4106	-0.1843	-0.1213	
-0.97722	0.26413	-0.14518	-50.12	10.43	-26.6	0.407	-0.1901	-0.117	
-0.994422	0.26901	-0.15555	-54.95	10.99	-30.17	0.4146	-0.17	-0.108	
-0.976	0.25742	-0.149938	-58.03	7	-32.27	0.4141	-0.1703	-0.1191	
-0.986858	0.25315	-0.17263	-58.94	14.7	-37.17	0.4142	-0.1606	-0.1077	
-0.981612	0.246074	-0.163846	-58.45	16.59	-42.56	0.4147	-0.1467	-0.1104	
-1.007232	0.237778	-0.185318	-64.05	16.87	-46.97	0.4173	-0.1469	-0.1134	
-0.983076	0.21411	-0.20923	-67.06	16.1	-44.8	0.4214	-0.1304	-0.1252	
-1.025044	0.179584	-0.183732	-67.83	17.36	-43.05	0.4245	-0.1238	-0.1106	
-1.102392	0.272304	-0.16897	-79.87	2.1	-23.17	0.4184	-0.1126	-0.1106	
-0.89548	0.08662	-0.339038	-65.1	-12.04	-38.78	0.4191	-0.1051	-0.1182	
-1.023336	0.123952	-0.11773	-60.27	27.09	-33.6	0.4197	-0.0992	-0.1274	
-0.975878	0.128588	-0.175192	-64.61	5.6	-34.86	0.4246	-0.07889999	-0.1185	
-0.989298	0.11407	-0.243878	-63.91	-4.34	-34.79	0.425	-0.0699	-0.1308	
-1.00528	0.109556	-0.184952	-60.34	-7.21	-31.22	0.4309	-0.07319999	-0.1259	
-0.900238	0.050874	-0.184586	-61.88	-13.16	-25.62	0.4249	-0.0635	-0.1259	
-1.02663	0.101504	-0.19825	-50.33	-1.75	-24.01	0.4234	-0.0587	-0.1226	
-1.084092	0.114802	-0.19886	-56.35	-7.49	-19.67	0.417	-0.0459	-0.1257	
-1.008452	0.110044	-0.176412	-62.09	-10.15	-20.37	0.4224	-0.0464	-0.1301	
-1.0248	0.038552	-0.112118	-58.1	4.27	-20.86	0.4165	-0.0398	-0.1302	
-0.982954	0.025376	-0.193126	-69.16	-6.51	-18.48	0.4193	-0.0399	-0.1301	
-0.988078	0.020618	-0.14579	-64.96	9.1	-24.99	0.4059	-0.0252	-0.1334	
-1.012356	-0.038308	-0.106384	-69.23	13.93	-20.65	0.4142	0.0007	-0.1336	
-1.019066	-0.021472	-0.139812	-64.96	-5.11	-23.24	0.4159	-0.0007	-0.1305	
-1.011624	-0.008296	-0.121634	-62.65	3.85	-23.24	0.415	0.0028	-0.1162	
-1.038098	-0.006832	-0.135908	-61.88	2.52	-21.42	0.4143	0.0056	-0.1272	
-1.036146	0.031232	-0.12444	-53.41	-3.71	-19.53	0.4129	0.0154	-0.1159	
-1.011624	-0.008784	-0.120048	-54.32	-5.32	-15.12	0.4127	0.0088	-0.1287	
-1.01687	-0.027206	-0.117242	-52.5	-5.04	-14.07	0.4125	0.0184	-0.1221	
-1.022848	-0.0122	-0.106506	-51.45	-3.22	-13.72	0.4082	0.025	-0.119	
-1.025776	0.002196	-0.08906	-47.6	-2.87	-12.04	0.4226	0.0398	-0.1177	
-1.041514	-0.000488	-0.09516	-45.08	-3.5	-10.99	0.4058	0.0406	-0.1217	
-1.000644	-0.031354	-0.092476	-42.49	-5.81	-11.48	0.4157	0.0353	-0.1229	
-0.98515	-0.01769	-0.067832	-37.52	-1.47	-11.34	0.4056	0.0469	-0.1199	
-1.004548	-0.028792	-0.06466	-36.4	-1.33	-9.45	0.4103	0.047	-0.1086	
-1.017358	-0.026108	-0.074786	-33.25	-0.98	-8.61	0.4132	0.0557	-0.1239	
-1.008818	-0.033794	-0.074542	-26.88	-2.8	-7.35	0.4148	0.0574	-0.1175	
-1.000278	-0.032574	-0.073932	-22.89	-2.66	-5.46	0.4124	0.0665	-0.1299	
-1.016504	-0.016104	-0.078812	-19.04	-1.96	-4.55	0.4089	0.0623	-0.1208	
-1.029802	0.012078	-0.077836	-16.52	-1.96	-3.78	0.4144	0.0685	-0.114	
-1.009794	0.040748	-0.067466	-14.14	-3.08	-3.78	0.4064	0.0594	-0.1194	
-1.008818	0.038796	-0.060634	-15.33	-3.64	-2.59	0.4124	0.0729	-0.1234	
-1.000888	0.028182	-0.068076	-17.29	-3.36	-2.66	0.4073	0.0639	-0.124	
-1.002352	-0.00427	-0.067222	-16.8	-1.89	-2.38	0.4087	0.0654	-0.1207	
-0.998814	-0.013664	-0.065636	-15.05	-2.38	-2.24	0.4129	0.0684	-0.1172	
-1.00345	-0.010126	-0.05612	-13.09	-2.45	-1.75	0.4169	0.0697	-0.1185	
-0.992958	-0.012932	-0.053192	-11.13	-2.73	-1.12	0.4179	0.07099999	-0.1263	
-1.006622	-0.021228	-0.059292	-9.52	-2.45	-0.28	0.4071	0.0686	-0.1222	
-1.011502	-0.02867	-0.060878	-7.21	-2.59	-0.07	0.4154	0.073	-0.1169	
-1.000522	-0.02928	-0.064782	-2.59	-1.4	0.28	0.4097	0.0716	-0.122	
-0.99735	-0.018422	-0.073932	-0.77	-1.82	0.77	0.4084	0.07979999	-0.1123	
-0.999302	-0.018666	-0.064294	0.56	-0.91	0.84	0.4113	0.0668	-0.1237	
-0.9943	-0.00976	-0.06222	1.75	0	0.49	0.4033	0.0691	-0.1146	
-0.997106	0.00061	-0.061122	1.89	1.12	-0.07	0.4083	0.0651	-0.1302	
-1.02175	0.003538	-0.06039	3.71	2.45	0.28	0.4138	0.0696	-0.1266	
-1.01931	-0.010736	-0.047946	4.83	3.08	1.19	0.4071	0.0686	-0.1222	
-1.015284	-0.004758	-0.058194	6.79	3.57	2.24	0.3975	0.0773	-0.1114	
-1.017968	0.012078	-0.072468	8.54	3.22	3.22	0.4015	0.0721	-0.1208	
-1.01199	0.015128	-0.07124799	9.94	3.71	3.64	0.4138	0.0778	-0.1168	
-1.01321	0.01586	-0.066734	10.57	4.55	4.27	0.4015	0.0721	-0.1208	
-1.02602	0.023912	-0.074542	11.13	4.41	4.41	0.4062	0.0641	-0.1177	
-0.999912	0.028304	-0.083814	11.9	4.41	4.27	0.411	0.0763	-0.1186	
-1.002474	0.01586	-0.084058	11.76	5.39	4.06	0.409	0.0689	-0.1111	
-0.99613	0.01037	-0.088816	12.81	5.25	4.2	0.4117	0.0622	-0.1206	
-1.010892	0.01342	-0.075274	14.21	6.86	4.41	0.4034	0.0659	-0.1162	
-1.015528	0.009638	-0.081618	15.47	6.72	4.13	0.4202	0.0618	-0.1171	
-1.005524	0.000976	-0.093818	16.59	5.88	4.97	0.4105	0.0592	-0.1192	
-0.99979	-0.000366	-0.100772	18.97	5.6	5.88	0.407	0.0669	-0.127	
-0.975268	-0.023546	-0.105042	17.85	3.22	7.56	0.4166	0.0479	-0.1193	
-0.988444	-0.020618	-0.095404	19.81	3.71	8.26	0.4157	0.0418	-0.1164	
-0.999302	-0.031476	-0.094184	20.86	5.6	8.54	0.4148	0.0558	-0.1191	
-1.00101	-0.028304	-0.09467199	24.15	5.95	10.29	0.414	0.0514	-0.1114	
-1.02236	-0.001098	-0.10187	27.3	4.97	10.64	0.42	0.0498	-0.1033	
-1.015162	0.012566	-0.108092	27.79	6.09	11.41	0.4153	0.0545	-0.1113	
-1.0126	-0.005002	-0.113338	30.73	9.73	13.23	0.4197	0.0447	-0.1161	
-0.98942	-0.015616	-0.10492	33.81	7.42	14.49	0.4158	0.0403	-0.1149	
-1.005036	-0.015982	-0.13542	36.96	2.66	17.36	0.4121	0.0343	-0.1121	
-1.006622	0.02684	-0.122854	40.88	0.21	14.77	0.4139	0.0264	-0.1123	
-1.061888	0.031354	-0.121756	43.54	-0.35	14.63	0.4141	0.0266	-0.1076	
-1.050664	0.039284	-0.11529	49.14	5.04	16.45	0.4111	0.0217	-0.1189	
-1.04249	0.048312	-0.102358	50.82	-0.56	20.51	0.4194	0.0212	-0.1185	
-1.019432	0.020008	-0.120536	49.21	-3.85	22.68	0.4216	0.0103	-0.114	
-1.02785	0.045384	-0.121024	48.86	-1.12	25.9	0.4191	0.0026	-0.116	
-1.043466	0.058194	-0.148474	49.42	-0.21	25.48	0.4278	-0.0089	-0.1207	
-1.020652	0.069906	-0.15738	52.29	-4.41	28.35	0.424	-0.0214	-0.126	
-1.003572	0.072346	-0.162138	57.4	0.28	31.22	0.4293	-0.0154	-0.1255	
-0.99552	0.081618	-0.16348	58.24	-6.86	31.78	0.4194	-0.0301	-0.1171	
-0.968558	0.092964	-0.180804	59.78	-8.54	31.22	0.4213	-0.0412	-0.1174	
-1.001742	0.088206	-0.16165	58.31	6.58	31.78	0.4244	-0.0477	-0.119	
-1.009062	0.11285	-0.196176	63.35	-8.33	34.72	0.4321	-0.0485	-0.1312	
-1.00162	0.134566	-0.200812	64.12	-3.92	33.6	0.4252	-0.0681	-0.1228	
-1.00406	0.15921	-0.184708	64.89	-3.92	32.76	0.4237	-0.06	-0.1164	
-0.978684	0.16836	-0.188978	60.41	-4.9	33.04	0.4129	-0.077	-0.1301	
-0.980636	0.186904	-0.194346	60.2	-3.36	31.22	0.4177	-0.0866	-0.127	
-0.991128	0.176046	-0.217038	57.96	0.98	36.19	0.4241	-0.0911	-0.1127	
-0.971974	0.186172	-0.219112	59.22	-9.8	37.17	0.4268	-0.1043	-0.1287	
-0.976732	0.20923	-0.191906	56	-13.72	33.6	0.4207	-0.1098	-0.1182	
-0.999302	0.207156	-0.207278	54.11	-4.76	33.18	0.4177	-0.1234	-0.1078	
-0.965508	0.197518	-0.228628	51.87	-12.95	33.25	0.422	-0.1133	-0.1246	
-0.95099	0.189222	-0.231556	61.67	-7	30.59	0.4252	-0.1363	-0.1095	
-0.944402	0.157258	-0.26779	65.31	-3.01	28.56	0.4199	-0.1521	-0.1229	
-1.021262	0.175802	-0.190808	76.16	7.63	24.29	0.4169	-0.144	-0.1196	
-0.955992	0.248636	-0.245342	80.36	-9.31	25.69	0.4183	-0.1576	-0.1043	
-1.011868	0.280478	-0.1891	72.17	-4.62	25.76	0.4181	-0.1594	-0.1106	
-0.989664	0.298168	-0.179096	68.81	-6.37	23.31	0.4072	-0.1835	-0.1042	
-0.931714	0.32208	-0.194224	61.32	-8.75	21.21	0.4129	-0.1805	-0.0975	
-0.962946	0.334646	-0.175924	54.67	-10.01	19.04	0.4076	-0.1848	-0.0979	
-0.954528	0.36539	-0.176656	53.83	-9.8	16.45	0.4171	-0.1872	-0.1038	
-0.952576	0.370514	-0.183244	46.83	-8.05	14.63	0.4041	-0.2004	-0.1018	
-0.92781	0.338306	-0.170434	31.71	-7.7	13.79	0.4112	-0.2023	-0.0999	
-0.931104	0.350628	-0.17141	26.95	-6.93	11.06	0.4117	-0.2019	-0.0873	
-0.941352	0.33123	-0.182512	26.32	-5.32	9.17	0.4161	-0.2117	-0.09209999	
-0.967826	0.306342	-0.18117	21.35	-7.21	8.96	0.4126	-0.2126	-0.0813	
-0.945134	0.274866	-0.18056	16.8	-6.86	11.2	0.4181	-0.2194	-0.0875	
-0.97661	0.294386	-0.1769	19.18	-4.83	10.01	0.4079	-0.216	-0.0958	
-0.971852	0.303902	-0.174948	19.67	-3.64	8.47	0.4067	-0.2093	-0.0846	
-0.961116	0.310612	-0.18239	17.36	-3.57	6.51	0.4095	-0.2175	-0.0926	
-0.963312	0.2867	-0.174582	17.01	-4.83	4.97	0.4137	-0.2194	-0.0941	
-0.97051	0.2745	-0.177998	15.61	-6.79	4.62	0.4141	-0.2191	-0.0862	
-0.952454	0.266936	-0.176046	17.85	-6.09	3.99	0.4023	-0.2228	-0.0759	
-0.960262	0.269498	-0.182756	17.85	-4.55	3.78	0.4081	-0.2207	-0.096	
-0.959164	0.28792	-0.17995	17.57	-4.34	3.01	0.4032	-0.2232	-0.0853	
-0.945134	0.286822	-0.177022	15.33	-4.06	3.08	0.402	-0.2311	-0.0904	
-0.95587	0.28487	-0.170068	12.18	-3.01	3.15	0.399	-0.2214	-0.08549999	
-0.947452	0.297558	-0.17385	10.99	-1.19	2.38	0.406	-0.2233	-0.0852	
-0.951478	0.299754	-0.166164	7.84	0.14	1.47	0.4095	-0.2279	-0.0757	
-0.956358	0.309026	-0.18178	3.78	0.21	0.35	0.401	-0.234	-0.0858	
-0.94733	0.28853	-0.186416	-2.52	1.05	-1.05	0.399	-0.2214	-0.08549999	
-0.960994	0.270352	-0.18178	-4.97	1.68	-1.54	0.4029	-0.2185	-0.0867	
-0.964288	0.265106	-0.179828	-4.34	1.75	-1.26	0.4051	-0.231	-0.0839	
-0.967582	0.267668	-0.186904	-3.99	1.82	-1.12	0.4033	-0.2248	-0.0869	
-0.96868	0.279746	-0.182268	-4.2	2.31	-1.19	0.4038	-0.2309	-0.0824	
-0.960994	0.266936	-0.177754	-5.67	2.38	-1.68	0.4077	-0.2297	-0.0869	
-0.96014	0.259494	-0.184342	-5.95	1.89	-2.24	0.4092	-0.2248	-0.0787	
-0.963434	0.263398	-0.188002	-5.11	1.47	-2.17	0.407	-0.2221	-0.0929	
-0.958676	0.269986	-0.191052	-6.3	1.33	-2.52	0.403	-0.2201	-0.08679999	
-0.955382	0.273768	-0.188002	-7.07	1.68	-3.36	0.4101	-0.2253	-0.0897	
-0.941474	0.310734	-0.204228	-9.87	2.73	-3.57	0.4074	-0.2218	-0.0835	
-0.945012	0.29097	-0.175802	-6.16	-0.07	-3.29	0.4063	-0.2312	-0.087	
-0.954528	0.28731	-0.16958	-7.21	2.1	-3.64	0.4067	-0.2191	-0.096	
-0.955138	0.28609	-0.173362	-11.97	2.66	-4.97	0.4031	-0.2184	-0.0836	
-0.955016	0.314028	-0.175802	-11.41	3.22	-6.02	0.4124	-0.216	-0.0893	
-0.958676	0.308538	-0.156038	-14.56	1.61	-7.91	0.4098	-0.2222	-0.0928	
-0.96136	0.297924	-0.158478	-25.76	3.64	-10.43	0.4126	-0.2143	-0.0829	
-0.953918	0.29768	-0.169336	-26.18	2.17	-13.23	0.4021	-0.2126	-0.0992	
-0.945256	0.318664	-0.176656	-23.45	2.17	-15.82	0.4022	-0.2174	-0.1009	
-0.966362	0.301096	-0.17019	-26.74	2.17	-17.99	0.4072	-0.2051	-0.0986	
-0.947696	0.302316	-0.1891	-26.18	2.8	-19.74	0.4198	-0.2009	-0.08989999	
-0.948428	0.280478	-0.182512	-33.46	5.32	-22.47	0.4127	-0.2039	-0.0983	
-0.960384	0.282796	-0.18849	-34.02	7.42	-25.48	0.4054	-0.1988	-0.1001	
-0.975024	0.282064	-0.174338	-35.49	11.83	-28.63	0.4077	-0.1848	-0.0963	
-1.009062	0.290604	-0.179218	-35.84	12.46	-31.57	0.4167	-0.1777	-0.1019	
-0.991616	0.262544	-0.180438	-41.16	12.81	-32.9	0.422	-0.1717	-0.0998	
-0.966728	0.240828	-0.182756	-42.63	15.96	-34.93	0.4205	-0.1652	-0.095	
-1.023458	0.231556	-0.209718	-48.02	17.22	-36.68	0.4229	-0.164	-0.1011	
-0.992958	0.21411	-0.203618	-49.98	16.03	-36.47	0.4186	-0.1509	-0.0914	
-0.98088	0.204594	-0.223992	-50.82	18.62	-37.45	0.4313	-0.1363	-0.0981	
-0.965264	0.188612	-0.214476	-53.55	15.89	-37.73	0.4206	-0.1354	-0.0892	
-1.004914	0.171166	-0.22448	-56.42	16.52	-38.64	0.431	-0.1252	-0.09299999	
-0.98759	0.165066	-0.24034	-56.7	14	-38.01	0.4281	-0.1251	-0.0947	
-0.878034	0.086986	-0.268278	-68.95	-18.83	-43.05	0.4394	-0.1088	-0.1015	
-1.012356	0.10736	-0.252052	-63.98	14.63	-36.82	0.4306	-0.0957	-0.0983	
-0.955748	0.113826	-0.254614	-61.11	-2.52	-34.02	0.4276	-0.09079999	-0.0983	
-0.945744	0.101626	-0.295362	-56.42	-10.92	-32.27	0.4299	-0.0832	-0.0995	
-1.06384	0.113216	-0.309514	-59.5	12.32	-30.45	0.437	-0.0699	-0.1097	
-0.96685	0.099674	-0.208864	-63.91	4.48	-33.11	0.4301	-0.0646	-0.1036	
-1.008818	0.127368	-0.28792	-60.48	-3.15	-32.2	0.4258	-0.0629	-0.1053	
-1.010038	0.134078	-0.228506	-58.94	-0.28	-30.52	0.4322	-0.0507	-0.103	
-0.990152	0.101138	-0.353312	-66.15	-25.27	-24.01	0.4322	-0.0507	-0.103	
-1.036756	0.13359	-0.170068	-50.89	6.02	-32.41	0.4316	-0.0446	-0.1075	
-1.03456	0.09357399	-0.23851	-62.65	-11.06	-29.4	0.4339	-0.0289	-0.1006	
-0.991372	0.08052	-0.199714	-63.98	-3.08	-27.65	0.4241	-0.03	-0.1059	
-0.998814	0.09942999	-0.219844	-67.06	0.42	-24.85	0.4275	-0.0194	-0.1084	
-1.004304	-0.014274	-0.190686	-66.57	-5.11	-23.8	0.4239	-0.002	-0.108	
-1.021506	-0.00854	-0.195566	-68.74	-9.94	-24.5	0.425	-0.0039	-0.1159	
-1.044808	-0.006954	-0.207888	-70.7	-5.88	-23.52	0.4321	0.0022	-0.1059	
-1.012844	-0.01464	-0.175192	-72.52	-5.46	-21.84	0.4151	0.0094	-0.1065	
-0.98942	-0.050996	-0.178852	-71.75	-4.69	-21.14	0.4196	0.0246	-0.1105	
-0.981978	-0.096624	-0.153476	-66.08	-9.87	-17.5	0.4239	0.026	-0.1071	
-0.989908	-0.100406	-0.138714	-61.32	-5.95	-15.47	0.4128	0.0299	-0.1028	
-1.012722	-0.112118	-0.125538	-57.33	-5.18	-12.6	0.4174	0.0419	-0.11	
