Sensor string: E
Serial number: 1970-01-0000
Firmware version: 2,015
Hardware version: 2,2
Calibration quality: 5
ax	ay	az	gx	gy	gz	mx	my	mz

-0.578158	0.062586	0.693204	-11.76	-85.89	6.58	0.1228	-0.0283	-0.4347	Reference
-0.547292	0.060634	0.702232	-11.41	-86.94	7.07	0.114	-0.0187	-0.431	
-0.527528	0.057096	0.72651	-11.55	-88.48	7.14	0.0938	-0.0288	-0.4394	
-0.50081	0.057584	0.744322	-11.9	-91.21	7.35	0.0909	-0.0192	-0.4374	
-0.476776	0.060268	0.75518	-11.97	-92.12	6.93	0.0691	-0.0228	-0.4424	
-0.411872	0.055876	0.793122	-11.76	-94.22	6.3	0.0307	-0.0259	-0.4336	
-0.371978	0.071736	0.804956	-11.9	-94.08	5.81	0.025	-0.0133	-0.4343	
-0.334158	0.072956	0.826062	-13.65	-93.87	5.25	0.0046	-0.0168	-0.4365	
-0.290848	0.06893	0.84546	-14.77	-94.08	4.48	-0.0101	-0.0119	-0.4313	
-0.23119	0.060878	0.868396	-14.98	-94.22	3.92	-0.0247	-0.0153	-0.4337	
-0.191174	0.058072	0.881572	-15.05	-93.45	3.43	-0.0367	-0.008599999	-0.4242	
-0.144814	0.044408	0.889868	-15.26	-92.19	2.45	-0.0637	-0.0082	-0.4084	
-0.11407	0.032818	0.893894	-15.05	-90.79	0.84	-0.0606	-0.0052	-0.4128	
-0.081618	0.022326	0.902312	-15.54	-90.44	-0.07	-0.0838	-0.0088	-0.4178	
-0.046726	0.01891	0.919026	-14.77	-90.09	-1.12	-0.0942	-0.0023	-0.4127	
-0.008052	0.012444	0.92537	-13.58	-89.18	-1.89	-0.1047	-0.0037	-0.4064	
0.023058	0.006832	0.926224	-12.39	-87.43	-2.45	-0.1255	0.0093	-0.3948	
0.049898	0.001342	0.93513	-11.83	-85.68	-3.5	-0.1329	0.0045	-0.3932	
0.080032	0.00305	0.943182	-10.92	-84.07	-4.48	-0.1464	0.0048	-0.3853	
0.116266	-0.004514	0.950868	-10.43	-82.67	-5.39	-0.1506	0.006	-0.3909	
0.142984	-0.00671	0.960872	-9.87	-81.13	-5.67	-0.1732	0.0098	-0.3738	
0.174338	-0.00427	0.970144	-9.94	-80.5	-5.25	-0.1882	0.0116	-0.3657	
0.198616	-0.002318	0.98332	-9.59	-79.66	-4.48	-0.1884	0.0087	-0.36	
0.235948	0.00427	0.986248	-9.87	-78.54	-3.71	-0.205	0.0075	-0.3491	
0.268644	-0.008296	0.990152	-9.66	-77.14	-2.94	-0.2196	0.0106	-0.3484	
0.293532	-0.004758	0.995764	-9.73	-74.9	-1.89	-0.2319	0.0127	-0.3346	
0.316834	-0.003416	0.995398	-12.18	-73.78	-1.26	-0.2437	0.0096	-0.3313	
0.347334	-0.00183	1.002596	-14.63	-72.38	-1.12	-0.2425	0.0082	-0.3271	
0.374906	-0.003904	0.986492	-16.24	-70	-1.05	-0.2515	0.0163	-0.3205	
0.400648	-0.022448	0.95099	-17.57	-70.77	-1.26	-0.2634	0.0134	-0.3143	
0.40931	-0.041236	0.959408	-17.15	-69.79	-2.31	-0.267	0.0236	-0.2976	
0.421998	-0.053558	0.963434	-16.52	-65.94	-2.38	-0.2829	0.0281	-0.3012	
0.442128	-0.070272	0.919758	-15.4	-62.37	-1.68	-0.2878	0.0206	-0.2896	
0.465674	-0.077958	0.930738	-12.67	-60.34	-1.26	-0.303	0.0131	-0.2776	
0.47885	-0.074176	0.938302	-9.45	-55.3	-0.98	-0.3044	0.0338	-0.2766	
0.499834	-0.070394	0.930494	-7.7	-50.12	-0.77	-0.3122	0.0278	-0.2664	
0.532286	-0.069784	0.932446	-6.44	-45.78	-1.54	-0.3167	0.0232	-0.2634	
0.53924	-0.080032	0.930006	-5.04	-40.81	-2.66	-0.3215	0.022	-0.2545	
0.53192	-0.076006	0.903532	-1.96	-36.68	-3.43	-0.3258	0.0203	-0.2559	
0.531188	-0.07381	0.900848	-2.45	-34.23	-3.99	-0.3243	0.0282	-0.2556	
0.528626	-0.079666	0.912682	-3.71	-31.64	-4.69	-0.335	0.0254	-0.2465	
0.529358	-0.078324	0.900116	-4.06	-29.54	-4.2	-0.3293	0.0385	-0.2389	
0.530578	-0.082106	0.90707	-2.87	-27.51	-5.04	-0.3327	0.0262	-0.2305	
0.534604	-0.078934	0.908046	-2.45	-25.34	-5.53	-0.3387	0.0374	-0.2254	
0.548878	-0.063928	0.915732	-3.78	-22.4	-5.74	-0.3486	0.0178	-0.2375	
0.579134	-0.073566	0.911584	-6.51	-18.83	-5.46	-0.3429	0.0356	-0.2297	
0.56547	-0.06771	0.896212	-6.09	-15.75	-3.99	-0.349	0.0295	-0.2238	
0.568276	-0.065392	0.88755	-8.4	-12.74	-3.57	-0.3539	0.0283	-0.2135	
0.56486	-0.075884	0.878766	-9.8	-9.73	-3.36	-0.3496	0.0237	-0.2124	
0.569252	-0.074054	0.8784	-10.57	-7.21	-2.38	-0.348	0.0204	-0.2155	
0.565348	-0.087352	0.863638	-11.83	-4.83	-2.03	-0.3598	0.0267	-0.2133	
0.565592	-0.100528	0.86864	-11.13	-2.59	-1.89	-0.358	0.0392	-0.2172	
0.568764	-0.105896	0.880108	-9.45	-0.07	-1.68	-0.3553	0.0267	-0.2149	
0.576572	-0.126514	0.885354	-7	2.03	-0.98	-0.3477	0.0329	-0.2194	
0.592554	-0.1403	0.886574	-2.24	4.34	0.07	-0.3553	0.0347	-0.2131	
0.599386	-0.146766	0.912194	2.31	8.54	0.91	-0.3522	0.0345	-0.2177	
0.623664	-0.138348	0.939522	4.97	13.58	0.98	-0.354	0.0413	-0.2085	
0.646112	-0.124318	0.944524	7.84	18.9	-0.49	-0.3566	0.0281	-0.2177	
0.641842	-0.112362	0.934886	9.52	24.22	-1.19	-0.3538	0.0266	-0.2165	
0.63684	-0.10797	0.929274	9.73	30.03	-0.77	-0.3507	0.0297	-0.2194	
0.618296	-0.105652	0.914024	12.46	35.42	-0.07	-0.3418	0.0297	-0.2212	
0.570838	-0.091378	0.894504	13.93	39.13	-0.14	-0.3371	0.0406	-0.2268	
0.56669	-0.07625	0.898896	12.39	41.3	-0.91	-0.3428	0.0275	-0.2329	
0.545462	-0.074786	0.911462	8.89	43.89	-0.42	-0.3308	0.032	-0.2406	
0.518988	-0.070882	0.914756	6.65	48.37	0.42	-0.3291	0.0206	-0.2484	
0.49044	-0.075396	0.92903	5.88	53.62	0.77	-0.3202	0.0158	-0.2519	
0.476898	-0.07564	0.949404	8.47	57.33	1.05	-0.3184	0.0218	-0.2576	
0.45872	-0.054046	0.945378	10.64	60.06	0.98	-0.3078	0.0279	-0.2665	
0.438346	-0.04392	0.961238	8.61	62.58	1.54	-0.2997	0.0223	-0.2846	
0.411018	-0.04148	0.950746	7.63	66.01	2.1	-0.3024	0.0172	-0.292	
0.401258	-0.039406	0.95038	8.54	69.65	2.59	-0.2846	0.0075	-0.299	
0.388326	-0.02806	0.951844	8.54	74.13	3.01	-0.274	0.0185	-0.3049	
0.357338	-0.026108	0.94428	6.79	78.26	2.94	-0.2593	0.0072	-0.3104	
0.311832	-0.032452	0.954406	6.79	81.69	2.59	-0.256	0.0164	-0.3174	
0.280112	-0.03843	0.95404	9.31	84.14	3.08	-0.238	0.0193	-0.3268	
0.248392	-0.032696	0.94733	12.6	86.52	3.64	-0.2365	0.0081	-0.3303	
0.21838	-0.022326	0.955748	13.16	88.55	3.85	-0.2169	0.014	-0.3425	
0.202276	-0.02074	0.959286	12.39	90.51	3.43	-0.1929	-0.0023	-0.3603	
0.159942	-0.017812	0.948794	13.16	93.03	2.73	-0.1869	0.0183	-0.3597	
0.12078	-0.024888	0.943548	15.68	94.43	2.24	-0.168	0.0009999999	-0.3598	
0.09821	-0.020374	0.943914	17.78	95.97	2.87	-0.1683	0.0076	-0.3872	
0.06405	-0.004392	0.945744	18.2	97.51	2.66	-0.1538	0.0015	-0.3852	
-0.00061	0.012444	0.940132	17.36	98.63	2.03	-0.1328	-0.0083	-0.3981	
-0.0305	0.007442	0.934886	16.66	97.37	1.54	-0.1124	-0.0113	-0.3992	
-0.038308	0.009028	0.918416	16.94	96.53	1.19	-0.1108	-0.0082	-0.4005	
-0.07564	0.015982	0.924516	16.94	94.85	0.84	-0.087	-0.0005	-0.41	
-0.143106	0.03416	0.90768	16.03	93.45	0	-0.0825	-0.0037	-0.4118	
-0.18605	0.03843	0.892552	15.19	90.65	-0.14	-0.0662	-0.0167	-0.4203	
-0.21045	0.035868	0.881694	15.26	88.34	0	-0.0511	-0.0138	-0.4296	
-0.228018	0.044286	0.864004	15.82	86.1	-0.14	-0.0352	-0.0183	-0.4276	
-0.264374	0.05307	0.848876	15.75	84.07	-0.56	-0.0237	-0.0212	-0.4238	
-0.302072	0.058804	0.84241	14.56	82.18	-1.12	-0.0116	-0.0167	-0.4314	
-0.335988	0.06466	0.833504	13.37	81.06	-1.4	0.0158	-0.0273	-0.4272	
-0.368684	0.065148	0.820816	12.04	80.01	-1.12	0.0263	-0.0228	-0.4333	
-0.402966	0.06893	0.80093	10.92	78.12	-0.91	0.0309	-0.0181	-0.4362	
-0.432978	0.07515199	0.781654	10.64	76.37	-0.91	0.0467	-0.0208	-0.4297	
-0.46726	0.081984	0.763232	10.57	75.39	-0.7	0.0624	-0.0332	-0.4251	
-0.499956	0.08479	0.745542	10.57	75.11	-0.28	0.0702	-0.0288	-0.4354	
-0.52582	0.085766	0.738466	10.29	74.27	0.14	0.0922	-0.0287	-0.4364	
-0.552904	0.09076799	0.736148	10.01	72.94	0.28	0.08329999	-0.0286	-0.4331	
-0.56669	0.089182	0.72285	10.08	71.47	0.63	0.102	-0.0345	-0.4283	
-0.590846	0.096746	0.712724	9.73	70.28	0.56	0.1154	-0.0394	-0.4334	
-0.607926	0.099918	0.689788	9.59	68.74	0.14	0.131	-0.0356	-0.4223	
-0.631716	0.101504	0.672342	9.24	67.83	0.07	0.1412	-0.0307	-0.421	
-0.642696	0.106262	0.66002	8.96	66.43	0	0.1459	-0.0357	-0.4287	
-0.671854	0.106628	0.640256	8.47	64.68	-0.14	0.156	-0.0371	-0.4249	
-0.69601	0.105774	0.624762	7.7	62.86	-0.28	0.1704	-0.0463	-0.423	
-0.719312	0.111264	0.609634	7.14	60.69	-0.63	0.1839	-0.0353	-0.4274	
-0.743224	0.114192	0.602314	6.51	58.24	-0.56	0.2023	-0.0394	-0.4153	
-0.75518	0.106994	0.590724	6.58	55.86	-0.7	0.1949	-0.0313	-0.4102	
-0.771772	0.107604	0.589992	6.93	54.04	-0.91	0.1993	-0.0376	-0.4121	
-0.779458	0.106994	0.583404	6.44	51.94	-0.14	0.2095	-0.0488	-0.4145	
-0.791292	0.10553	0.56608	6.44	49.91	0.28	0.2124	-0.0439	-0.413	
-0.798612	0.11224	0.55632	6.37	47.74	0.35	0.2296	-0.0337	-0.4016	
-0.803614	0.119072	0.548146	6.44	46.06	0.28	0.2395	-0.0493	-0.3983	
-0.807884	0.12505	0.537166	5.74	44.87	0.07	0.2471	-0.0415	-0.4027	
-0.82167	0.129076	0.529968	4.97	43.89	-0.42	0.2454	-0.0509	-0.3986	
-0.83448	0.12749	0.510814	4.34	43.12	-1.05	0.2631	-0.0349	-0.4002	
-0.849242	0.127612	0.486536	4.76	42.14	-1.19	0.2684	-0.0311	-0.3871	
-0.867054	0.129442	0.470676	4.27	40.74	-1.19	0.2698	-0.0438	-0.3877	
-0.87535	0.126514	0.45811	3.78	39.06	-0.63	0.2825	-0.0495	-0.3768	
-0.886696	0.125904	0.44835	4.2	37.59	-0.63	0.2743	-0.0454	-0.3894	
-0.890844	0.12322	0.451522	4.69	35.98	-0.91	0.2838	-0.051	-0.3755	
-0.899018	0.123586	0.43737	4.9	34.44	-1.26	0.2968	-0.0395	-0.3682	
-0.892186	0.124684	0.439566	4.9	32.76	-1.54	0.2854	-0.0383	-0.375	
-0.89182	0.128222	0.428464	4.76	31.99	-1.82	0.3041	-0.0506	-0.3705	
-0.904142	0.130174	0.413092	4.41	31.5	-2.59	0.3086	-0.0395	-0.3717	
-0.907558	0.129808	0.411628	4.48	31.08	-3.15	0.3115	-0.049	-0.3722	
-0.911828	0.123952	0.39223	5.11	30.94	-3.78	0.3102	-0.0364	-0.373	
-0.923906	0.119926	0.378078	5.74	31.22	-3.85	0.3114	-0.0425	-0.369	
-0.931836	0.125416	0.36905	6.02	30.1	-3.57	0.3244	-0.0454	-0.3653	
-0.931592	0.127368	0.37637	5.74	29.19	-3.01	0.3311	-0.0479	-0.3525	
-0.938058	0.130784	0.360266	5.95	28.91	-3.01	0.34	-0.0432	-0.3542	
-0.941352	0.125416	0.350872	6.23	28.49	-2.8	0.3282	-0.0464	-0.3524	
-0.937204	0.127002	0.362706	8.05	28.14	-3.08	0.3369	-0.0446	-0.3497	
-0.948428	0.121512	0.335134	8.4	27.86	-3.01	0.3424	-0.0506	-0.3429	
-0.954528	0.130174	0.33428	7.49	25.97	-2.94	0.3457	-0.0493	-0.3518	
-0.950746	0.132614	0.340746	6.23	22.89	-2.17	0.3616	-0.0506	-0.3467	
-0.950136	0.124318	0.338184	5.39	20.72	-1.96	0.3409	-0.0489	-0.3413	
-0.94977	0.133468	0.33977	5.04	19.46	-2.66	0.3638	-0.0562	-0.3324	
-0.953796	0.13969	0.326228	3.99	17.64	-3.01	0.3629	-0.0487	-0.3423	
-0.965386	0.133224	0.32391	3.85	15.68	-2.8	0.3613	-0.0519	-0.3409	
-0.961726	0.137006	0.325496	2.24	13.51	-2.52	0.3594	-0.0386	-0.3285	
-0.940742	0.134688	0.341234	-0.07	12.67	-2.38	0.3655	-0.0469	-0.3365	
-0.93879	0.13176	0.330986	-1.05	12.81	-1.82	0.3744	-0.0357	-0.3364	
-0.944036	0.13115	0.324154	-2.17	13.44	-1.12	0.3683	-0.0482	-0.3323	
-0.938546	0.138104	0.331596	-2.94	13.72	-0.7	0.358	-0.0579	-0.3337	
-0.929396	0.135786	0.33672	-3.57	14.98	-0.14	0.3725	-0.048	-0.328	
-0.920612	0.137738	0.343674	-2.66	17.01	0.21	0.3724	-0.0495	-0.3267	
-0.910364	0.134566	0.34831	-2.38	20.23	0.21	0.3752	-0.0462	-0.3237	
-0.911706	0.133224	0.33855	-2.66	24.99	-0.07	0.3739	-0.0543	-0.3284	
-0.924638	0.133834	0.323422	-1.96	29.4	-0.56	0.3794	-0.0427	-0.3179	
-0.934154	0.126758	0.311588	-0.91	31.5	-0.84	0.3821	-0.0392	-0.312	
-0.934032	0.119926	0.303414	0	33.46	-0.63	0.3878	-0.0486	-0.3098	
-0.939278	0.110776	0.282918	1.89	36.05	-0.35	0.3866	-0.0457	-0.3154	
-0.936106	0.111386	0.274866	3.57	38.22	-0.98	0.3965	-0.0468	-0.3071	
-0.934276	0.11895	0.260226	4.97	40.81	-2.03	0.3978	-0.0435	-0.3041	
-0.96014	0.12383	0.230824	7.84	44.45	-3.29	0.4109	-0.0417	-0.3017	
-0.978806	0.12627	0.216062	8.19	44.31	-4.48	0.3969	-0.0473	-0.2838	
-0.99796	0.122	0.209352	7.7	45.08	-4.41	0.412	-0.0381	-0.2928	
-0.98576	0.122976	0.18422	7.84	40.74	-5.11	0.4114	-0.0455	-0.2814	
-0.990518	0.128832	0.18605	6.72	38.85	-5.46	0.4185	-0.0499	-0.2761	
-0.986004	0.1159	0.159454	6.23	36.33	-4.9	0.4139	-0.0433	-0.2698	
-0.98637	0.108336	0.138958	5.46	34.44	-3.92	0.4238	-0.0525	-0.2648	
-1.014796	0.1159	0.113582	4.83	34.93	-4.06	0.4308	-0.0424	-0.2544	
-1.023336	0.12322	0.107604	2.45	31.5	-3.85	0.4312	-0.0349	-0.2629	
-1.0126	0.11895	0.101748	1.19	29.33	-3.29	0.4356	-0.0381	-0.2647	
-1.00101	0.111142	0.067832	0.07	27.44	-2.45	0.4395	-0.0391	-0.2517	
-1.021506	0.103822	0.009881999	2.59	26.04	-2.17	0.4381	-0.0391	-0.2531	
-1.082018	0.101992	-0.01525	6.58	23.24	-1.75	0.442	-0.029	-0.2412	
-1.116422	0.106384	-0.008052	3.29	17.15	-1.75	0.4522	-0.0337	-0.2418	
-1.086898	0.115534	0.00122	0.28	9.94	-1.4	0.4505	-0.043	-0.2363	
-1.064206	0.114314	0.023424	-1.82	5.46	-0.84	0.4407	-0.0388	-0.2474	
-1.031266	0.112484	0.02623	-4.06	3.78	-0.42	0.4508	-0.0433	-0.2436	
-1.006012	0.104432	0.007686	-2.66	4.2	-0.07	0.451	-0.0355	-0.2462	
-1.025654	0.107238	-0.011712	-0.07	3.78	0.77	0.458	-0.032	-0.2391	
-1.0553	0.111752	-0.012322	-1.47	3.64	1.33	0.4582	-0.0306	-0.2434	
-1.045906	0.10431	-0.013664	-2.1	0.7	1.4	0.4538	-0.0323	-0.2447	
-1.045174	0.09638	-0.013298	-1.96	-0.49	1.4	0.449	-0.0366	-0.2345	
-1.04981	0.10187	-0.003416	-1.75	-0.56	1.12	0.4431	-0.035	-0.2342	
-1.043954	0.106506	0.001708	-2.52	-1.54	0.91	0.4418	-0.0384	-0.2387	
-1.03334	0.11041	-0.003294	-1.96	-3.92	1.19	0.4494	-0.0291	-0.243	
-1.026386	0.116144	0.00244	-1.89	-4.9	1.12	0.449	-0.0414	-0.2362	
-1.031876	0.117852	0.01037	-0.56	-5.25	0.42	0.4433	-0.0337	-0.2385	
-1.02968	0.112118	0.015982	-0.91	-6.86	0.07	0.4433	-0.04	-0.2388	
-1.02602	0.112606	0.023912	-0.49	-7.91	-0.07	0.4521	-0.0431	-0.2393	
-1.026508	0.113216	0.02257	-0.21	-9.1	-0.07	0.4465	-0.0403	-0.2448	
-1.026996	0.116632	0.024156	0.14	-10.78	0.21	0.4398	-0.0394	-0.259	
-1.032242	0.121756	0.036722	-0.42	-12.95	0.28	0.4407	-0.0324	-0.2457	
-1.013454	0.12566	0.055876	-1.05	-14.84	0.14	0.4346	-0.0338	-0.2396	
-1.006988	0.12871	0.063196	-1.54	-14.7	-0.49	0.4365	-0.0423	-0.2517	
-1.008086	0.123708	0.073566	-1.05	-13.93	-0.84	0.438	-0.0423	-0.2518	
-1.011746	0.124196	0.075274	-1.19	-13.72	-1.12	0.4276	-0.0326	-0.2466	
-1.015284	0.118706	0.074786	-1.33	-13.86	-1.33	0.4364	-0.0389	-0.2472	
-1.016138	0.11529	0.076128	-1.54	-14.42	-1.26	0.4264	-0.0456	-0.2544	
-1.014796	0.118462	0.075396	-1.68	-15.47	-1.33	0.4385	-0.0396	-0.2634	
-1.013942	0.12078	0.084302	-1.89	-16.17	-1.4	0.4413	-0.0427	-0.2622	
-1.012356	0.11651	0.093208	-1.82	-16.8	-1.19	0.434	-0.0332	-0.26	
-1.007354	0.113582	0.098942	-1.82	-17.85	-0.98	0.4223	-0.0348	-0.2596	
-1.012356	0.11041	0.098454	-2.31	-18.34	-0.91	0.4298	-0.0318	-0.2641	
-1.020286	0.113338	0.09821	-2.66	-18.62	-0.7	0.4315	-0.0352	-0.2687	
-1.02114	0.10553	0.09162199	-3.57	-20.23	-0.56	0.4304	-0.0372	-0.2775	
-1.03395	0.103822	0.090158	-3.08	-23.24	-0.42	0.4128	-0.039	-0.2783	
-1.046882	0.11102	0.107726	-4.69	-26.6	-0.28	0.4202	-0.0406	-0.2801	
-1.032852	0.112484	0.124806	-5.95	-30.59	0	0.4155	-0.0322	-0.2708	
-1.021018	0.109068	0.135054	-6.09	-32.83	0.49	0.4116	-0.0296	-0.2808	
-1.022116	0.110166	0.146888	-6.23	-34.37	0.91	0.418	-0.043	-0.2977	
-0.99857	0.10309	0.14518	-7.49	-35.77	1.89	0.4136	-0.0238	-0.2937	
-1.007598	0.110166	0.149816	-9.45	-34.86	2.38	0.403	-0.0427	-0.2883	
-1.010404	0.110654	0.149084	-10.43	-36.47	2.73	0.3992	-0.0322	-0.3008	
-1.009916	0.106262	0.150304	-11.62	-37.94	3.08	0.3877	-0.0309	-0.3046	
-1.010526	0.107604	0.155184	-11.2	-40.74	2.87	0.3937	-0.031	-0.3078	
-1.010404	0.10065	0.168726	-11.34	-43.26	2.94	0.3898	-0.0412	-0.3212	
-1.009794	0.099674	0.161284	-10.5	-46.62	3.29	0.3824	-0.0251	-0.3158	
-1.013332	0.097966	0.168726	-11.48	-49.77	3.43	0.3799	-0.0289	-0.3275	
-1.01748	0.080764	0.172264	-13.3	-53.48	4.13	0.3635	-0.0335	-0.3212	
-1.005768	0.09394	0.176656	-14.14	-57.61	4.62	0.3567	-0.0421	-0.3344	
-0.99491	0.094794	0.201788	-15.33	-61.53	4.55	0.3673	-0.0392	-0.342	
-0.979904	0.091988	0.21899	-17.15	-65.87	5.25	0.3429	-0.0255	-0.3506	
-0.955626	0.11651	0.230702	-17.5	-69.93	4.69	0.3369	-0.0286	-0.3461	
-0.948306	0.119682	0.253028	-16.03	-74.62	3.57	0.3329	-0.0355	-0.3579	
-0.930128	0.10248	0.276086	-15.89	-78.96	3.5	0.3174	-0.0218	-0.3683	
-0.896944	0.091378	0.318054	-15.89	-81.41	4.06	0.316	-0.0219	-0.3698	
-0.866566	0.096868	0.368684	-15.68	-84.42	4.27	0.2988	-0.0272	-0.378	
-0.850096	0.089304	0.378078	-16.03	-86.59	4.34	0.2918	-0.0213	-0.3847	
-0.83021	0.072102	0.3965	-17.01	-87.22	4.62	0.273	-0.0248	-0.3899	
-0.818132	0.07564	0.413946	-15.75	-90.44	3.99	0.2602	-0.0173	-0.3964	
-0.795806	0.076738	0.431026	-15.54	-94.71	3.57	0.244	-0.0237	-0.3945	
-0.753838	0.06161	0.46238	-16.03	-99.47	3.57	0.2401	-0.0099	-0.4039	
-0.729438	0.05307	0.54046	-15.4	-103.25	3.08	0.2241	-0.0262	-0.4098	
-0.712602	0.035502	0.541802	-13.93	-105.56	2.94	0.1981	-0.0108	-0.4139	
-0.68991	0.036844	0.5551	-14	-107.31	2.52	0.1925	-0.0191	-0.4213	
-0.65636	0.028548	0.564128	-13.58	-111.16	2.31	0.1722	-0.0099	-0.4229	
-0.615124	0.030866	0.57584	-11.41	-116.48	1.33	0.1547	-0.0181	-0.4254	
-0.578402	0.055754	0.61549	-10.08	-121.24	-0.21	0.1357	-0.0166	-0.4246	
-0.546316	0.091012	0.680516	-10.92	-123.62	-0.56	0.1155	-0.0139	-0.4309	
-0.489342	0.08662	0.696132	-11.55	-125.65	-0.56	0.0935	-0.0189	-0.4316	
-0.43798	0.072712	0.714676	-11.2	-128.1	-1.61	0.0778	-0.0082	-0.4363	
-0.366366	0.05246	0.735904	-11.41	-130.41	-2.73	0.0482	-0.0129	-0.4309	
-0.312198	0.042212	0.75152	-11.48	-130.76	-3.36	0.0322	-0.0164	-0.4333	
-0.268888	0.03599	0.784216	-12.6	-131.11	-4.2	0.0012	-0.0115	-0.4244	
-0.19642	0.030256	0.834114	-13.65	-131.88	-5.39	-0.01	-0.0009	-0.4323	
-0.121634	0.021106	0.868518	-14.98	-132.23	-6.16	-0.0339	-0.0085	-0.4214	
-0.02318	0.021716	0.89243	-15.19	-131.46	-5.95	-0.07979999	-0.005	-0.4061	
-0.000244	0.02623	0.896578	-14.84	-130.55	-5.81	-0.07979999	-0.005	-0.4061	
0.050996	0.012566	0.915488	-15.4	-128.8	-4.76	-0.0954	-0.0009999999	-0.4184	
0.14152	0.00061	0.94123	-16.17	-125.65	-4.27	-0.1373	0.0092	-0.3928	
0.195688	-0.00061	0.952576	-16.17	-122.15	-3.78	-0.1479	0	-0.3869	
0.232898	-0.008417999	0.95709	-16.8	-117.88	-3.43	-0.163	-0.0011	-0.3747	
0.285358	-0.012932	0.947696	-16.8	-113.75	-3.43	-0.1941	0.0021	-0.3659	
0.32574	-0.010614	0.95343	-15.26	-108.15	-3.15	-0.2134	0.0023	-0.3578	
0.348676	-0.02135	0.956968	-14.84	-103.04	-3.22	-0.2183	0.0075	-0.3457	
0.386374	-0.027328	0.963556	-14.35	-97.23	-3.01	-0.2378	0.0127	-0.3329	
0.41053	-0.036844	0.969168	-13.58	-91.56	-2.8	-0.237	0.0102	-0.3185	
0.43371	-0.03233	0.973316	-12.53	-86.31	-1.89	-0.2607	0.0072	-0.3103	
0.442616	-0.035136	0.970754	-11.69	-81.76	-1.47	-0.2683	0.0266	-0.3004	
0.460794	-0.04209	0.971608	-9.59	-78.54	-1.61	-0.2711	0.0168	-0.3065	
0.477996	-0.067954	0.985516	-8.47	-75.18	-1.47	-0.2775	0.0206	-0.293	
0.489098	-0.074298	0.985882	-6.37	-72.03	-0.63	-0.2824	0.0292	-0.2778	
0.521306	-0.068198	0.977342	-5.53	-68.81	-0.07	-0.3106	0.0181	-0.2712	
0.56547	-0.056608	0.969778	-4.62	-63.77	0.7	-0.3016	0.0292	-0.274	
0.592676	-0.049532	0.952576	-4.2	-56.98	1.47	-0.314	0.0203	-0.2578	
0.591578	-0.05734	0.93147	-3.92	-50.05	1.68	-0.332	0.0206	-0.2483	
0.584746	-0.058316	0.922076	-2.66	-44.38	1.54	-0.3333	0.03	-0.2493	
0.574376	-0.04941	0.90951	-2.1	-39.76	1.4	-0.3381	0.0272	-0.2419	
0.57096	-0.058072	0.905484	-2.94	-36.4	0.91	-0.3398	0.0211	-0.2363	
0.576206	-0.064416	0.901336	-3.22	-33.53	0.91	-0.343	0.0277	-0.2286	
0.570106	-0.07076	0.90402	-4.55	-31.43	1.26	-0.3428	0.0323	-0.2327	
0.59109	-0.038674	0.917196	-6.79	-29.54	1.12	-0.35	0.0273	-0.2356	
0.60207	-0.082716	0.917806	-9.31	-26.88	0.77	-0.3475	0.0182	-0.2288	
0.566812	-0.110166	0.892552	-6.72	-22.54	1.33	-0.3521	0.028	-0.2209	
0.621468	-0.13176	0.915732	-3.36	-18.9	0	-0.3505	0.0343	-0.2221	
0.612562	-0.048312	0.884622	-4.62	-15.33	-5.39	-0.3567	0.041	-0.2128	
0.61244	-0.063806	0.884134	-12.32	-12.95	-10.01	-0.3496	0.038	-0.2103	
0.621346	-0.08052	0.88389	-13.3	-9.45	-8.33	-0.3731	0.0348	-0.2065	
0.620736	-0.10492	0.88084	-10.01	-5.53	-6.72	-0.3702	0.0332	-0.2082	
0.610244	-0.107482	0.875716	-2.38	-1.82	-4.9	-0.366	0.0399	-0.2022	
0.593774	-0.086132	0.867054	1.82	0.98	-3.15	-0.364	0.0346	-0.2142	
0.58804	-0.07442	0.862784	-0.14	2.24	-2.17	-0.3619	0.0339	-0.1954	
0.593652	-0.080154	0.870226	-4.62	2.87	-3.29	-0.369	0.0336	-0.2009	
0.595848	-0.099552	0.87535	-4.97	4.2	-4.34	-0.3673	0.0285	-0.2071	
0.614636	-0.11346	0.861442	-1.96	5.95	-2.24	-0.36	0.0414	-0.2039	
0.629032	-0.106384	0.866444	2.52	9.03	0.49	-0.3661	0.0288	-0.2013	
0.641842	-0.102114	0.880108	4.69	12.04	2.24	-0.356	0.0402	-0.1968	
0.651846	-0.092842	0.89426	3.92	14.56	1.61	-0.3627	0.0251	-0.2132	
0.66734	-0.093818	0.90768	2.1	17.57	0.98	-0.3509	0.0299	-0.215	
0.675758	-0.102968	0.917684	2.94	21.77	0.91	-0.3555	0.0253	-0.2106	
0.68808	-0.114558	0.930494	5.53	26.6	2.17	-0.3536	0.0328	-0.2191	
0.698938	-0.116266	0.944158	9.31	31.78	2.87	-0.3433	0.0361	-0.2194	
0.680516	-0.097112	0.947818	14.35	38.29	3.57	-0.3519	0.0182	-0.2271	
0.65514	-0.070516	0.949648	15.75	43.75	3.99	-0.3356	0.0357	-0.2285	
0.646966	-0.054168	0.948062	13.44	48.3	4.2	-0.3412	0.0209	-0.2391	
0.626836	-0.056242	0.95038	11.06	52.92	3.43	-0.3386	0.0229	-0.2304	
0.627202	-0.061	0.956968	12.04	58.87	4.55	-0.3288	0.0155	-0.256	
0.608902	-0.049776	0.952576	12.67	65.31	5.6	-0.3185	0.014	-0.2565	
0.582062	-0.047458	0.94794	9.8	70.35	4.62	-0.3088	0.0146	-0.2787	
0.556076	-0.038064	0.946232	6.86	74.62	3.29	-0.2987	0.0292	-0.2742	
0.537044	-0.043066	0.950258	5.74	79.31	2.03	-0.2907	0.019	-0.291	
0.512522	-0.059292	0.94001	9.38	84.98	3.08	-0.2843	0.0168	-0.3045	
0.437736	-0.050752	0.919514	13.37	90.09	3.78	-0.2592	0.0231	-0.3097	
0.412604	-0.050752	0.918782	14.49	93.24	2.59	-0.2574	0.0164	-0.3188	
0.389058	-0.04514	0.910974	17.64	97.44	0.56	-0.2408	0.0256	-0.3279	
0.348554	-0.051118	0.909266	19.32	101.43	-1.19	-0.2307	0.0178	-0.3272	
0.310368	-0.037576	0.89975	19.67	105.21	-2.59	-0.2195	0.0025	-0.3517	
0.255346	-0.02013	0.891942	17.5	109.06	-4.62	-0.2034	-0.0054	-0.3556	
0.17934	-0.009516	0.882182	14.49	112.07	-6.93	-0.1868	-0.0074	-0.3681	
0.091744	0.004026	0.864248	13.23	113.96	-7.7	-0.1746	0.0065	-0.3768	
0.045262	0.014274	0.858148	11.55	114.59	-6.93	-0.1437	-0.0029	-0.3814	
0.007198	0.020862	0.864248	9.38	114.87	-6.72	-0.1329	-0.0034	-0.395	
-0.025498	0.027816	0.851316	6.93	115.71	-5.81	-0.1284	-0.0051	-0.3982	
-0.08479	0.031842	0.83204	5.25	117.18	-3.78	-0.1088	-0.0072	-0.4123	
-0.12871	0.041358	0.821914	3.85	118.65	-2.24	-0.0884	-0.0022	-0.4115	
-0.177266	0.04575	0.803858	3.08	120.4	-1.4	-0.0724	-0.0099	-0.411	
-0.226066	0.042456	0.779702	2.87	122.43	0.42	-0.0471	-0.0038	-0.4206	
-0.29036	0.041724	0.763598	2.59	123.06	1.89	-0.0281	-0.0036	-0.4199	
-0.333426	0.03294	0.747982	1.82	122.36	3.64	-0.0028	-0.0038	-0.4298	
-0.410164	0.035746	0.715286	3.15	121.66	4.97	0.0074	-0.0038	-0.4317	
-0.450424	0.031232	0.703086	1.54	118.51	5.04	0.0309	-0.0005	-0.4325	
-0.487634	0.02562	0.684542	3.29	116.9	4.27	0.0672	-0.0111	-0.4287	
-0.530456	0.016104	0.667218	7.35	114.94	3.36	0.073	0.0049	-0.4253	
-0.564006	0.020374	0.639646	13.02	112.21	2.8	0.0906	-0.0045	-0.428	
-0.624152	0.047092	0.62952	18.13	108.64	1.19	0.1101	-0.009699999	-0.4407	
-0.640378	0.047824	0.615856	17.36	104.37	0.49	0.1243	-0.0027	-0.4308	
-0.67222	0.060146	0.599386	19.67	102.2	1.96	0.1447	-0.0121	-0.4306	
-0.703208	0.071004	0.591212	18.48	99.33	3.29	0.1559	-0.0129	-0.418	
-0.740052	0.087718	0.56547	17.78	95.97	3.08	0.1717	-0.0221	-0.4132	
-0.75579	0.09028	0.564128	16.45	92.05	2.94	0.2072	-0.0078	-0.4199	
-0.761036	0.079178	0.551318	15.61	88.48	2.73	0.1964	-0.0169	-0.4082	
-0.765184	0.075884	0.54717	16.38	85.82	2.87	0.2053	-0.0154	-0.4114	
-0.797148	0.069662	0.508252	15.47	84.91	2.94	0.24	-0.0211	-0.4044	
-0.820694	0.085522	0.486292	16.24	82.11	1.75	0.2472	-0.0256	-0.402	
-0.833504	0.08845	0.46665	15.47	79.73	1.12	0.2576	-0.0258	-0.4068	
-0.86498	0.098332	0.44164	15.82	76.58	-0.07	0.2585	-0.0267	-0.3938	
-0.870714	0.103944	0.416386	15.12	73.22	-0.49	0.2713	-0.0262	-0.3841	
-0.882182	0.107726	0.414556	13.65	70.63	-0.21	0.2902	-0.0339	-0.3838	
-0.906582	0.115778	0.40077	12.53	67.55	-0.56	0.2955	-0.0301	-0.3707	
-0.926712	0.128954	0.376126	11.55	65.17	-1.47	0.3056	-0.0426	-0.3687	
-0.927078	0.12627	0.360754	9.38	62.37	-1.19	0.3145	-0.0379	-0.3718	
-0.954162	0.112118	0.34465	8.54	59.36	-0.84	0.3226	-0.0418	-0.3563	
-0.954528	0.107116	0.33062	8.61	56.49	-0.84	0.3391	-0.039	-0.3671	
-0.95038	0.117364	0.303658	10.43	53.27	-2.03	0.3328	-0.0322	-0.3549	
-0.962092	0.114802	0.293166	8.4	52.01	-2.66	0.3528	-0.033	-0.3426	
-0.967948	0.111874	0.276574	7.77	52.43	-3.08	0.3423	-0.0216	-0.3344	
-0.976732	0.099918	0.258518	7.7	51.66	-3.5	0.3628	-0.0503	-0.3409	
-0.996984	0.102358	0.22509	9.52	49.7	-4.41	0.3685	-0.0292	-0.3329	
-1.001986	0.108214	0.214354	7.7	48.09	-4.83	0.3727	-0.0387	-0.332	
-0.985394	0.120536	0.216062	7.14	45.99	-4.97	0.3709	-0.0399	-0.3247	
-0.975512	0.116754	0.2196	5.67	45.29	-4.97	0.3841	-0.0446	-0.3255	
-0.973316	0.104188	0.22936	5.11	46.13	-4.41	0.3897	-0.0395	-0.3182	
-0.971242	0.102846	0.213256	6.86	46.69	-4.55	0.3939	-0.0313	-0.3137	
-0.950746	0.105896	0.21228	8.05	49.77	-4.97	0.398	-0.0341	-0.3066	
-0.96807	0.096868	0.188734	8.54	51.94	-5.39	0.3992	-0.0354	-0.3009	
-0.994056	0.096746	0.170556	10.22	52.99	-5.6	0.4078	-0.0287	-0.2952	
-1.001742	0.101504	0.157868	10.71	50.54	-5.18	0.4101	-0.0456	-0.2843	
-1.016382	0.106628	0.135298	10.57	46.41	-4.55	0.4119	-0.0268	-0.2894	
-1.018456	0.102114	0.134688	8.47	44.38	-3.99	0.426	-0.0453	-0.2806	
-1.006744	0.107726	0.128222	7.49	39.83	-3.92	0.4271	-0.0289	-0.2683	
-1.003206	0.112118	0.114802	5.67	38.5	-3.57	0.4373	-0.0351	-0.269	
-1.010526	0.106018	0.098088	5.11	37.66	-3.78	0.4443	-0.0331	-0.2604	
-1.015406	0.106262	0.09882	4.69	35.28	-3.57	0.4281	-0.0299	-0.2567	
-1.006378	0.102968	0.081496	3.36	32.69	-3.29	0.4354	-0.041	-0.2589	
-1.01443	0.103212	0.063074	3.29	31.22	-3.43	0.4453	-0.0262	-0.25	
-1.005036	0.101016	0.069174	1.54	28.63	-2.94	0.4539	-0.0292	-0.2461	
-1.001132	0.09882	0.067954	0.77	29.12	-2.17	0.4444	-0.0316	-0.2283	
-0.977098	0.097966	0.060634	0.21	29.96	-0.77	0.4575	-0.0314	-0.2274	
-1.00345	0.105774	0.02562	2.24	31.08	-1.05	0.4546	-0.0347	-0.2288	
-1.007842	0.10065	0.010248	1.82	30.73	-0.56	0.4558	-0.0312	-0.2229	
-1.008574	0.097966	-0.006344	3.08	28.77	-0.21	0.4631	-0.0248	-0.2215	
-1.015162	0.099064	-0.00549	3.08	28.35	-0.91	0.4714	-0.0273	-0.2103	
-1.046882	0.09857599	-0.008296	4.83	29.19	-2.24	0.4612	-0.0242	-0.2097	
-1.02846	0.095892	0.003782	8.96	26.6	-2.8	0.4715	-0.029	-0.2133	
-0.98759	0.091866	-0.042334	12.39	21	-3.01	0.4655	-0.0321	-0.2102	
-0.99125	0.083082	-0.05795	8.19	25.9	-4.62	0.4815	-0.0302	-0.2064	
-1.041636	0.09089	-0.086132	8.4	26.04	-4.06	0.474	-0.0301	-0.2017	
-1.060302	0.09333	-0.099918	6.37	25.34	-4.06	0.4664	-0.0347	-0.1972	
-1.051274	0.095404	-0.10065	5.6	22.54	-3.99	0.4723	-0.0315	-0.1973	
-1.032852	0.081862	-0.109068	4.2	19.46	-3.85	0.4765	-0.0264	-0.1915	
-1.030534	0.083082	-0.11834	3.64	18.9	-4.13	0.4779	-0.0216	-0.1899	
-1.02053	0.083082	-0.112484	2.8	18.76	-4.48	0.4649	-0.033	-0.1956	
-1.01809	0.088694	-0.116754	2.66	16.66	-4.34	0.4837	-0.0279	-0.1904	
-1.01504	0.09076799	-0.12139	1.82	16.66	-4.2	0.4802	-0.0305	-0.1772	
-0.996008	0.085522	-0.127734	2.8	16.45	-4.34	0.4777	-0.0357	-0.1875	
-1.010282	0.07625	-0.129564	2.87	17.43	-3.92	0.4829	-0.019	-0.1695	
-1.017236	0.066734	-0.131394	3.22	19.88	-3.64	0.4874	-0.0254	-0.1729	
-1.005524	0.069296	-0.127978	4.41	20.09	-3.08	0.4858	-0.0333	-0.1717	
-1.00894	0.072102	-0.13969	3.71	18.83	-3.22	0.48	-0.0254	-0.1711	
-1.021994	0.076494	-0.151402	4.27	18.34	-3.78	0.4859	-0.0239	-0.1728	
-1.02175	0.073932	-0.15921	4.48	16.73	-3.85	0.4915	-0.0219	-0.1656	
-1.02846	0.061854	-0.17019	5.11	13.44	-3.85	0.4867	-0.0231	-0.1567	
-1.028826	0.058072	-0.172386	5.88	13.58	-3.57	0.4944	-0.0186	-0.1642	
-1.021994	0.061732	-0.17202	5.32	12.46	-3.64	0.4856	-0.0203	-0.1639	
-1.007842	0.063928	-0.170434	4.48	11.41	-3.43	0.4996	-0.0147	-0.1482	
-1.00223	0.056608	-0.173728	5.39	10.5	-3.57	0.4954	-0.0149	-0.1524	
-1.016504	0.055388	-0.186172	5.88	8.75	-3.57	0.4999	-0.008599999	-0.1538	
-1.022604	0.059048	-0.187148	7.35	8.26	-3.78	0.4851	-0.0213	-0.1522	
-1.019554	0.069052	-0.191662	6.65	6.37	-4.2	0.4877	-0.0242	-0.1466	
-1.0187	0.060024	-0.194346	5.18	5.88	-4.34	0.4954	-0.0197	-0.154	
-1.023458	0.047336	-0.201666	3.92	4.83	-3.92	0.4999	-0.015	-0.1555	
-1.020774	0.048068	-0.210084	4.76	4.48	-3.57	0.4908	-0.0163	-0.1479	
-1.030412	0.049898	-0.213988	3.57	3.78	-2.87	0.4861	-0.0241	-0.1436	
-1.032852	0.065392	-0.224724	2.03	2.24	-2.03	0.4939	-0.0149	-0.1523	
-1.03212	0.055998	-0.237168	0.91	2.24	-1.61	0.4954	-0.0134	-0.1538	
-1.037854	0.047702	-0.242658	0.42	0.07	-0.07	0.491	-0.015	-0.1537	
-1.03822	0.042822	-0.244976	-0.07	-1.12	0.7	0.5024	-0.0354	-0.1506	
-1.031998	0.038796	-0.24522	0	-2.31	1.26	0.5	-0.02	-0.1601	
-1.030412	0.03294	-0.25803	-0.28	-4.55	1.19	0.4909	-0.0228	-0.1511	
-1.047248	0.036356	-0.263154	0	-7	1.19	0.4906	-0.0209	-0.1451	
-1.053104	0.046726	-0.253272	-2.17	-9.24	0.98	0.4953	-0.0212	-0.1526	
-1.043466	0.04941	-0.254004	-2.1	-10.43	1.61	0.4864	-0.0163	-0.1477	
-1.033462	0.041236	-0.252418	-2.24	-11.62	2.45	0.4968	-0.01	-0.1508	
-1.033706	0.038186	-0.253882	-1.68	-13.51	2.66	0.501	-0.0227	-0.15	
-1.041148	0.043432	-0.244854	-1.75	-14.35	2.38	0.4941	-0.0295	-0.1588	
-1.0553	0.044652	-0.238754	-2.17	-15.68	2.87	0.4866	-0.0165	-0.1521	
-1.050054	0.049044	-0.231068	-1.96	-18.34	3.71	0.4853	-0.0232	-0.1581	
-1.037366	0.060634	-0.231678	-1.4	-21.21	3.92	0.4869	-0.0265	-0.1627	
-1.061034	0.060268	-0.221186	-1.82	-23.73	4.27	0.4888	-0.0158	-0.1711	
-1.073356	0.050508	-0.205326	-3.01	-26.04	5.18	0.4829	-0.0302	-0.1715	
-1.05774	0.049898	-0.185928	-4.34	-27.23	5.88	0.4858	-0.0173	-0.1681	
-1.048834	0.050386	-0.180804	-3.15	-29.54	6.51	0.4873	-0.0237	-0.1699	
-1.054202	0.050996	-0.169214	-4.06	-32.97	6.93	0.4836	-0.0213	-0.1857	
-1.06262	0.057584	-0.164334	-6.23	-35.42	6.72	0.4836	-0.0293	-0.1875	
-1.051762	0.071736	-0.14396	-7.42	-38.71	6.51	0.4768	-0.0283	-0.1989	
-1.059814	0.087474	-0.121146	-9.1	-42.21	6.44	0.4752	-0.017	-0.1939	
-1.039806	0.091012	-0.097112	-10.29	-45.78	6.37	0.4798	-0.0268	-0.2004	
-1.016138	0.078446	-0.07515199	-9.52	-47.32	6.37	0.4641	-0.037	-0.2118	
-1.025654	0.070516	-0.061	-8.47	-49.49	6.44	0.4586	-0.0327	-0.2202	
-1.034316	0.078202	-0.039772	-7.42	-52.78	6.3	0.4528	-0.0391	-0.2216	
-1.031144	0.087718	-0.017446	-9.73	-60.13	6.02	0.4524	-0.0323	-0.2447	
-1.013576	0.09162199	0.00366	-12.81	-65.45	5.74	0.4481	-0.0389	-0.2492	
-1.002108	0.094184	0.023912	-16.66	-66.99	4.69	0.4275	-0.034	-0.2437	
-0.98637	0.09577	0.039162	-18.41	-67.76	4.27	0.4339	-0.0363	-0.2587	
-0.986126	0.090158	0.051118	-18.9	-66.15	4.41	0.424	-0.0287	-0.2637	
-0.999302	0.080154	0.07076	-19.04	-65.52	5.74	0.4288	-0.0291	-0.2742	
-0.99369	0.089182	0.09516	-16.87	-66.78	6.02	0.4163	-0.03	-0.2897	
-0.984662	0.082716	0.113216	-15.05	-68.81	5.53	0.4061	-0.0221	-0.289	
-0.974658	0.07686	0.142496	-13.51	-71.82	5.04	0.4036	-0.0369	-0.3012	
-0.945012	0.07905599	0.166652	-9.94	-72.8	4.13	0.3822	-0.0249	-0.3114	
-0.94062	0.077592	0.1891	-10.01	-70.35	4.2	0.3912	-0.0347	-0.3181	
-0.922564	0.081862	0.220332	-9.87	-69.65	3.5	0.3783	-0.0303	-0.3232	
-0.917684	0.078812	0.253882	-8.89	-71.54	2.8	0.3781	-0.0365	-0.3205	
-0.918294	0.074908	0.286456	-10.57	-71.47	2.94	0.3626	-0.0276	-0.3311	
-0.913536	0.067222	0.287676	-8.47	-73.15	1.82	0.3516	-0.0285	-0.3482	
-0.904386	0.068808	0.305	-5.88	-74.06	1.33	0.3458	-0.0335	-0.3511	
-0.894992	0.076982	0.326228	-5.39	-77.63	1.4	0.336	-0.0404	-0.3626	
-0.88877	0.082472	0.361608	-5.74	-80.15	2.38	0.3183	-0.0324	-0.3572	
-0.858148	0.09638	0.434442	-5.18	-79.24	2.94	0.3029	-0.0365	-0.3727	
-0.82106	0.09747799	0.453962	-3.78	-77.91	2.73	0.3103	-0.0381	-0.376	
-0.802882	0.078202	0.435418	-6.09	-77.77	3.64	0.2916	-0.0355	-0.3839	
-0.816668	0.079666	0.441762	-6.23	-79.66	4.13	0.2861	-0.0295	-0.3907	
-0.81923	0.087108	0.45811	-7.49	-84.42	4.76	0.2627	-0.0345	-0.3914	
-0.797392	0.076982	0.484218	-7.42	-88.97	5.81	0.2587	-0.0429	-0.4003	
-0.758596	0.077226	0.522282	-5.81	-90.51	6.65	0.2404	-0.0295	-0.415	
-0.734684	0.088938	0.563762	-5.95	-90.86	6.86	0.234	-0.0353	-0.4033	
-0.71248	0.101626	0.582794	-7.21	-89.88	6.86	0.2199	-0.0345	-0.4158	
-0.73017	0.11529	0.598044	-6.44	-94.5	7.35	0.213	-0.027	-0.4239	
-0.646966	0.084912	0.618418	-8.12	-88.2	6.51	0.1938	-0.0333	-0.419	
-0.646844	0.10309	0.625982	-7.35	-91.98	6.51	0.1719	-0.032	-0.4209	
-0.61732	0.084424	0.665022	-10.15	-93.52	8.05	0.1617	-0.0449	-0.424	
-0.577914	0.058072	0.700036	-11.06	-94.64	8.54	0.1399	-0.0404	-0.4258	
-0.557174	0.039528	0.713944	-11.62	-94.08	8.47	0.1428	-0.034	-0.4242	
-0.534848	0.039528	0.721142	-11.2	-94.36	7.63	0.1182	-0.0344	-0.429	
-0.50508	0.042944	0.731756	-11.2	-95.55	8.82	0.1156	-0.0284	-0.4359	
-0.482998	0.07015	0.766404	-10.78	-98.07	9.24	0.0802	-0.0269	-0.4299	
-0.45811	0.0915	0.789584	-11.83	-100.17	8.47	0.0715	-0.0334	-0.4328	
-0.403942	0.068808	0.808006	-12.46	-101.57	9.1	0.0541	-0.0369	-0.4351	
-0.358314	0.054046	0.815936	-12.39	-103.67	8.75	0.0395	-0.0275	-0.4355	
-0.328302	0.063684	0.829356	-12.32	-104.65	8.12	0.0174	-0.0275	-0.4302	
-0.295606	0.076372	0.832528	-12.39	-105.35	7.56	0.0028	-0.0309	-0.4326	
-0.24217	0.088206	0.853512	-13.72	-105.7	7.07	-0.012	-0.0338	-0.4248	
-0.216428	0.082472	0.879864	-14.7	-103.67	7.56	-0.047	-0.0167	-0.4241	
-0.200446	0.065392	0.887062	-15.82	-100.17	7.49	-0.0549	-0.0225	-0.4123	
-0.140056	0.066124	0.895114	-16.17	-98.28	6.72	-0.0501	-0.0181	-0.4211	
-0.081618	0.048556	0.90341	-17.64	-98.21	6.23	-0.07979999	-0.0147	-0.4094	
-0.061122	0.030134	0.915366	-18.48	-97.02	5.95	-0.09779999	-0.0176	-0.4	
-0.016714	0.02013	0.932934	-19.18	-96.04	5.39	-0.098	-0.0141	-0.3941	
0.020008	0.005856	0.957334	-18.97	-94.57	4.62	-0.1211	-0.005	-0.3985	
0.050752	0.003538	0.96502	-18.06	-93.59	4.55	-0.1302	0	-0.3906	
0.094916	0.003172	0.965508	-17.15	-93.66	3.29	-0.1525	0.0033	-0.3808	
0.134078	0.005246	0.968924	-16.59	-92.12	1.75	-0.1732	-0.0013	-0.3772	
0.175314	0.009272	0.959164	-15.96	-89.95	0.77	-0.1909	-0.0013	-0.3735	
0.205326	0.017812	0.940498	-15.96	-87.99	1.82	-0.1895	0.0067	-0.3688	
0.246562	0.00244	0.946842	-18.83	-86.66	2.38	-0.2018	0.0137	-0.3534	
0.28853	-0.016714	0.945988	-19.46	-84.49	1.96	-0.2169	0.0092	-0.3442	
0.3233	-0.024034	0.948428	-18.27	-81.69	2.1	-0.2319	0.0159	-0.3345	
0.346358	-0.030988	0.942084	-16.31	-78.61	2.45	-0.2335	0.0113	-0.3303	
0.364292	-0.033184	0.937326	-15.4	-76.58	2.31	-0.2407	0.0207	-0.331	
0.39101	-0.035868	0.939766	-15.12	-75.11	0.77	-0.2617	0.0323	-0.3165	
0.410042	-0.03538	0.947818	-13.72	-71.89	-0.35	-0.2651	0.0279	-0.3078	
0.437004	-0.045872	0.948428	-14.77	-68.32	-0.7	-0.2773	0.0284	-0.2955	
0.454206	-0.04636	0.939034	-14.77	-65.38	-1.54	-0.285	0.0383	-0.2846	
0.479704	-0.045262	0.934154	-14.84	-61.6	-1.82	-0.3073	0.0354	-0.275	
0.489342	-0.051728	0.918538	-15.47	-57.19	-1.75	-0.3073	0.0322	-0.2766	
0.50813	-0.075396	0.928664	-15.75	-53.34	-1.82	-0.3155	0.0346	-0.2557	
0.518012	-0.086498	0.935252	-14.49	-48.72	-1.19	-0.3256	0.0344	-0.2582	
0.540338	-0.09028	0.930494	-13.23	-44.59	-1.33	-0.3255	0.0456	-0.2577	
0.545706	-0.103944	0.92903	-10.57	-39.83	-1.82	-0.3248	0.0496	-0.2401	
0.547902	-0.108092	0.919026	-9.94	-36.47	-1.75	-0.3482	0.0493	-0.2405	
0.557174	-0.11407	0.901092	-9.8	-33.39	-2.66	-0.3336	0.04	-0.2401	
0.565226	-0.103822	0.894626	-8.26	-30.1	-2.03	-0.3387	0.0471	-0.2221	
0.56242	-0.10065	0.879254	-7.42	-27.23	-1.89	-0.3428	0.0291	-0.2343	
0.565226	-0.09942999	0.867908	-7.63	-25.55	-2.1	-0.355	0.0456	-0.2171	
0.562054	-0.123952	0.855464	-6.79	-23.24	-2.66	-0.3446	0.0407	-0.2221	
0.557174	-0.125538	0.849852	-5.67	-22.61	-2.94	-0.3519	0.0342	-0.225	
0.554246	-0.122244	0.849608	-4.06	-21.77	-3.36	-0.355	0.0424	-0.2187	
0.56059	-0.108824	0.846558	-4.83	-20.86	-3.15	-0.3608	0.0486	-0.2196	
0.587308	-0.063074	0.860832	-8.19	-19.74	-2.66	-0.3495	0.0444	-0.21	
0.604388	-0.128222	0.867298	-18.41	-16.45	-0.14	-0.3496	0.0333	-0.2091	
0.594384	-0.17385	0.85217	-14.98	-14.07	3.22	-0.3686	0.0491	-0.2076	
0.625372	-0.153598	0.85034	-12.11	-12.46	0	-0.3601	0.0463	-0.2008	
0.610732	-0.133346	0.841556	-12.67	-11.06	-2.59	-0.3562	0.0356	-0.1926	
0.62403	-0.146156	0.849608	-18.34	-7.7	-7.63	-0.366	0.0511	-0.1988	
0.624396	-0.176534	0.853878	-13.51	-3.43	-6.51	-0.3707	0.0418	-0.1932	
0.603046	-0.188978	0.855342	-5.95	0	-4.83	-0.3679	0.0484	-0.1887	
0.592066	-0.171654	0.84424	1.26	2.87	-2.8	-0.3661	0.0417	-0.1978	
0.582184	-0.140056	0.83265	2.31	4.62	-1.68	-0.3604	0.0547	-0.1916	
0.589992	-0.134444	0.829478	-1.33	4.97	-1.61	-0.3617	0.0433	-0.1979	
0.605364	-0.15006	0.850218	-3.22	6.23	-0.7	-0.3674	0.0479	-0.2004	
0.619516	-0.162748	0.860954	-1.54	9.24	1.12	-0.372	0.048	-0.1958	
0.628422	-0.167628	0.852048	0.98	12.25	3.22	-0.3587	0.0544	-0.1975	
0.655384	-0.167628	0.873642	2.38	14.49	3.64	-0.3642	0.0475	-0.2078	
0.66429	-0.15982	0.882548	3.22	16.24	3.78	-0.3585	0.0494	-0.2036	
0.673074	-0.142984	0.902922	3.22	19.88	3.99	-0.3556	0.0462	-0.2039	
0.686372	-0.142496	0.90829	2.45	23.66	3.99	-0.351	0.0476	-0.2084	
0.697718	-0.149572	0.916586	1.47	30.31	5.04	-0.3564	0.0599	-0.2164	
0.683078	-0.140544	0.917806	1.89	36.05	4.41	-0.3474	0.0501	-0.2245	
0.682224	-0.146034	0.920978	2.24	41.23	3.92	-0.3429	0.0532	-0.226	
0.673196	-0.158234	0.92598	2.8	45.78	4.13	-0.3385	0.0501	-0.2263	
0.646478	-0.145546	0.928908	3.71	50.4	4.13	-0.339	0.0522	-0.2481	
0.637938	-0.149816	0.92537	3.22	55.16	3.29	-0.317	0.0523	-0.2505	
0.61793	-0.139446	0.914756	4.55	60.34	3.92	-0.3201	0.0524	-0.2474	
0.589138	-0.134932	0.903898	5.53	65.31	3.15	-0.3076	0.0629	-0.2636	
0.548756	-0.133468	0.895114	6.58	70.21	3.36	-0.3121	0.0486	-0.2625	
0.500322	-0.13969	0.887184	5.95	73.85	2.87	-0.2908	0.0574	-0.282	
0.482022	-0.144814	0.90097	5.6	75.74	1.26	-0.2862	0.0445	-0.2886	
0.45018	-0.157258	0.911706	7.91	78.12	1.82	-0.2756	0.0553	-0.2959	
0.439444	-0.151402	0.928908	11.27	80.22	4.2	-0.2565	0.0474	-0.2985	
0.416874	-0.142618	0.93025	15.19	84.21	6.16	-0.252	0.0473	-0.3016	
0.365878	-0.117974	0.926468	16.38	88.41	6.93	-0.2485	0.0499	-0.3148	
0.339038	-0.100162	0.92232	16.38	91.84	6.44	-0.2392	0.043	-0.3286	
0.278282	-0.09577	0.905972	16.52	95.69	6.72	-0.2168	0.0428	-0.3384	
0.215208	-0.091134	0.899872	18.2	98.42	9.31	-0.206	0.0422	-0.352	
0.19886	-0.078812	0.895724	19.88	100.45	11.83	-0.1973	0.0408	-0.351	
0.143228	-0.05795	0.89182	22.12	103.11	12.04	-0.1793	0.0324	-0.3638	
0.111508	-0.046116	0.885232	20.16	104.23	10.08	-0.1672	0.0321	-0.373	
0.078324	-0.048068	0.865956	17.57	105.21	8.4	-0.1553	0.04	-0.3761	
0.039284	-0.042334	0.847168	14.14	107.17	8.82	-0.1344	0.0349	-0.3875	
-0.039284	-0.040504	0.839848	13.02	108.29	8.33	-0.1241	0.0381	-0.3892	
-0.081618	-0.027328	0.8357	14.21	108.36	8.82	-0.0973	0.0347	-0.3993	
-0.152744	-0.008662	0.831552	14.84	109.55	7.56	-0.09	0.0235	-0.4015	
-0.17507	-0.022326	0.820206	8.96	106.82	7.28	-0.0673	0.0293	-0.4183	
-0.213866	-0.024278	0.80703	7.07	106.68	6.23	-0.0529	0.0137	-0.4167	
-0.269254	-0.03416	0.795684	7.98	106.26	6.72	-0.0353	0.0281	-0.4153	
-0.31598	-0.028426	0.769576	11.69	106.05	8.68	-0.0179	0.0301	-0.4116	
-0.364536	-0.01525	0.770918	10.08	103.18	7.91	-0.0051	0.0225	-0.4402	
-0.38308	-0.018544	0.759694	9.1	100.52	5.6	0.0137	0.0197	-0.4368	
-0.435662	-0.022936	0.756766	11.34	99.19	5.81	0.0328	0.0261	-0.4388	
-0.463356	-0.01281	0.73566	15.26	97.16	7.28	0.0502	0.0216	-0.4353	
-0.49349	0.000122	0.728462	14.84	94.71	7.28	0.0658	0.0175	-0.426	
-0.531432	0.02135	0.701012	13.72	91.98	5.18	0.0702	0.0175	-0.4261	
-0.561688	0.019276	0.692472	12.95	90.16	3.5	0.0808	0.0188	-0.4338	
-0.59353	0.021594	0.687836	14.35	88.62	3.29	0.1056	0.0191	-0.432	
-0.623176	0.03721	0.6771	15.68	86.66	3.78	0.1228	0.018	-0.4254	
-0.64965	0.054412	0.66063	15.12	83.86	4.55	0.1402	0.012	-0.4221	
-0.665144	0.065514	0.627202	13.09	81.2	4.9	0.1652	-0.0039	-0.4297	
-0.675148	0.053192	0.616466	11.06	78.26	4.97	0.1625	0.0134	-0.4303	
-0.70211	0.058682	0.61732	13.65	77.14	4.69	0.1665	0.0042	-0.4235	
-0.743956	0.080154	0.592676	14	76.37	3.78	0.1884	0.0125	-0.4212	
-0.751398	0.088572	0.585356	10.22	74.83	2.38	0.1984	0.0016	-0.4177	
-0.769698	0.070516	0.559004	7.35	73.85	1.54	0.2052	-0.0009	-0.4079	
-0.807762	0.06405	0.522648	6.72	73.78	0.21	0.2188	-0.0044	-0.4174	
-0.82472	0.075884	0.50386	6.93	72.73	-1.47	0.2238	-0.0034	-0.3971	
-0.819596	0.043432	0.507276	4.13	73.36	-0.7	0.2446	0.0059	-0.4034	
-0.878766	0.042578	0.462136	4.76	74.76	0.77	0.2589	0	-0.397	
-0.892308	0.045262	0.416874	6.51	75.11	0.14	0.2617	0.009699999	-0.3938	
-0.867542	0.057462	0.405406	9.17	77.14	1.54	0.2751	0.0016	-0.3991	
-0.860954	0.061976	0.39223	11.27	80.43	1.47	0.2847	-0.004	-0.3866	
-0.877302	0.07137	0.383446	14.21	83.02	0.49	0.3048	-0.0018	-0.3772	
-0.89853	0.07442	0.36112	14.84	84.77	0.56	0.2972	-0.0031	-0.3696	
-0.915732	0.072468	0.330742	12.46	87.57	0.42	0.3201	-0.0071	-0.3591	
-0.935374	0.070394	0.290116	10.5	91.07	0	0.3315	0.0028	-0.3504	
-0.942572	0.067466	0.244	11.62	93.66	0.21	0.3388	0.006	-0.3505	
-0.93818	0.061122	0.212646	13.65	96.04	0.07	0.3544	-0.0108	-0.3432	
-0.94306	0.07869	0.16958	21.49	97.16	-0.21	0.3581	-0.0068	-0.3257	
-0.949648	0.095892	0.15189	25.62	97.37	0.07	0.3786	-0.0082	-0.3266	
-0.979416	0.084668	0.145546	26.39	98.77	0.91	0.3914	-0.0061	-0.3183	
-1.002474	0.092842	0.11773	27.02	95.97	1.47	0.4134	-0.0156	-0.2875	
-0.995276	0.089426	0.104676	26.81	89.46	1.96	0.4296	-0.0027	-0.2862	
-1.00589	0.084058	0.072712	28.07	81.76	1.89	0.4302	-0.0114	-0.2691	
-1.021384	0.083326	0.055144	26.6	76.65	1.33	0.4387	-0.0143	-0.2638	
-1.044442	0.078812	0.03782	24.01	66.71	0.35	0.4397	-0.0201	-0.2524	
-1.055666	0.09162199	0.00061	25.34	61.18	-0.56	0.448	-0.026	-0.2442	
-1.080676	0.088938	-0.007564	20.02	61.18	-0.98	0.4583	-0.0114	-0.2411	
-1.106174	0.094916	0.01403	21.49	43.19	-1.96	0.4578	-0.0269	-0.233	
-1.082628	0.07869	-0.024278	15.19	33.53	-1.26	0.4574	-0.0233	-0.2226	
-1.097756	0.085278	-0.009516	13.72	34.09	0.21	0.4558	-0.0264	-0.2212	
-1.080554	0.09857599	-0.023912	11.76	30.31	0	0.4616	-0.0246	-0.2185	
-1.047858	0.115534	-0.026108	6.79	31.57	-2.24	0.4581	-0.0224	-0.2051	
-1.015528	0.106994	-0.038308	7.63	28.56	-3.01	0.4629	-0.0277	-0.2172	
-1.017846	0.131272	-0.031598	8.54	24.71	-2.45	0.467	-0.0274	-0.2101	
-1.031388	0.139934	-0.051484	3.01	21.28	-2.87	0.4753	-0.0251	-0.1972	
-1.046028	0.127246	-0.043798	0.35	21.28	-1.61	0.4796	-0.033	-0.1977	
-1.035536	0.116266	-0.035624	-1.68	16.66	0	0.4802	-0.0192	-0.2088	
-1.025532	0.12505	-0.035136	-3.01	16.8	0.98	0.4814	-0.0333	-0.2051	
-1.010648	0.133712	-0.051606	-3.57	18.27	0.7	0.4748	-0.0278	-0.1871	
-1.02419	0.115656	-0.083936	-3.92	18.34	0.91	0.471	-0.0284	-0.2001	
-1.065426	0.080154	-0.110166	-1.82	14.49	2.1	0.4883	-0.0329	-0.1966	
-1.055666	0.088572	-0.087352	-0.84	10.36	1.68	0.4796	-0.0218	-0.1958	
-1.01077	0.094306	-0.05795	-3.29	13.72	-0.42	0.4794	-0.0216	-0.1914	
-0.969534	0.085156	-0.078934	-0.98	18.83	-0.84	0.4747	-0.0308	-0.1843	
-0.989908	0.099918	-0.09357399	0.84	16.24	-1.47	0.4791	-0.0308	-0.1845	
-1.042368	0.113338	-0.111996	1.47	13.51	-2.8	0.4815	-0.0302	-0.1729	
-1.04188	0.09882	-0.119194	3.36	14.98	-3.78	0.4834	-0.0355	-0.1834	
-1.014064	0.09516	-0.10065	4.69	15.54	-4.13	0.4816	-0.0287	-0.1743	
-1.002474	0.098454	-0.119072	4.27	15.12	-5.11	0.4862	-0.0242	-0.1801	
-1.003816	0.09467199	-0.13664	4.34	14.42	-5.67	0.4862	-0.0177	-0.1769	
-1.044198	0.091378	-0.145546	4.9	13.02	-4.55	0.4798	-0.0252	-0.1667	
-1.030534	0.08967	-0.132248	5.04	12.04	-4.2	0.4913	-0.0249	-0.1614	
-1.001864	0.083692	-0.122488	4.13	12.53	-4.34	0.4857	-0.0252	-0.167	
-0.994544	0.077104	-0.152622	3.92	12.53	-3.71	0.4885	-0.0187	-0.1639	
-1.010526	0.083692	-0.149328	2.31	12.18	-3.92	0.4929	-0.0218	-0.1642	
-1.026752	0.085888	-0.154452	1.75	11.41	-4.06	0.4915	-0.0235	-0.1672	
-1.028582	0.072468	-0.15433	2.87	10.15	-3.08	0.4765	-0.0248	-0.1578	
-1.019066	0.07381	-0.157746	1.89	10.08	-2.38	0.4888	-0.0206	-0.1713	
-0.986004	0.079544	-0.15555	0	11.41	-3.71	0.4824	-0.0072	-0.1559	
-1.000522	0.063928	-0.15799	-1.4	11.48	-3.57	0.4853	-0.0183	-0.1565	
-1.006622	0.054046	-0.184342	0.98	9.66	-3.01	0.4981	-0.029	-0.1502	
-1.013698	0.062464	-0.184342	3.43	10.22	-3.08	0.4942	-0.0184	-0.1598	
-1.011258	0.06734399	-0.176412	2.45	10.36	-3.78	0.4955	-0.0214	-0.157	
-0.984052	0.074176	-0.175314	3.64	11.34	-3.64	0.4891	-0.0145	-0.1419	
-1.020896	0.056852	-0.196542	0.28	8.12	-3.22	0.4849	-0.0227	-0.1479	
-1.028826	0.06649	-0.21716	1.82	8.33	-3.57	0.492	-0.0224	-0.1438	
-1.02236	0.0793	-0.220454	0.14	7.28	-4.97	0.4934	-0.0272	-0.1441	
-1.034438	0.077348	-0.248148	0	3.78	-5.32	0.4981	-0.013	-0.1466	
-1.041758	0.069418	-0.238876	-0.56	3.85	-4.55	0.4934	-0.0111	-0.139	
-1.016992	0.053924	-0.242414	0.63	2.52	-3.01	0.5012	-0.0084	-0.1509	
-1.019188	0.056242	-0.24888	-0.28	-0.56	-1.68	0.5038	-0.0177	-0.1456	
-1.039806	0.062708	-0.248392	-0.77	-1.96	-1.33	0.4934	-0.0032	-0.1387	
-1.0431	0.059902	-0.25925	0.56	-5.04	-0.42	0.4947	-0.0142	-0.1377	
-1.043832	0.05551	-0.253028	-0.28	-6.09	-0.28	0.4938	-0.0036	-0.1474	
-1.027606	0.048678	-0.249246	0.77	-7.28	-0.07	0.5009	-0.0081	-0.1436	
-1.02114	0.035258	-0.255346	0.35	-9.52	0	0.4949	-0.0096	-0.1405	
-1.054568	0.047458	-0.263032	0.77	-12.18	0.35	0.4893	-0.0083	-0.146	
-1.070794	0.058072	-0.263154	0.98	-14.63	0.07	0.4925	-0.0262	-0.1557	
-1.06079	0.042578	-0.25376	1.12	-17.71	0.28	0.4984	-0.0022	-0.1534	
-1.054446	0.036112	-0.259494	2.87	-19.74	0	0.4879	-0.0051	-0.1458	
-1.057984	0.029768	-0.246684	2.1	-21.7	0.49	0.4974	-0.0027	-0.1636	
-1.06811	0.03111	-0.24278	3.15	-24.92	1.61	0.4998	-0.0149	-0.154	
-1.064206	0.050508	-0.243268	0.98	-28.42	2.31	0.5106	-0.0058	-0.1643	
-1.064816	0.046238	-0.235826	-0.07	-32.41	3.36	0.4727	-0.0159	-0.169	
-1.069452	0.03721	-0.22143	0.14	-33.81	5.18	0.4935	-0.0176	-0.1772	
-1.06933	0.039406	-0.210816	0	-35.77	6.37	0.4848	-0.0162	-0.1782	
-1.054324	0.040626	-0.204472	-0.77	-38.85	7	0.4748	-0.0198	-0.1853	
-1.054812	0.052826	-0.20496	-1.19	-41.93	6.86	0.4721	-0.0281	-0.1928	
-1.070306	0.066856	-0.184586	-4.06	-44.45	6.72	0.4781	-0.0234	-0.1958	
-1.07055	0.070394	-0.166164	-5.95	-49.14	7.63	0.4757	-0.0223	-0.2058	
-1.07055	0.072834	-0.143228	-6.02	-53.62	8.54	0.4731	-0.0259	-0.2147	
-1.04432	0.076982	-0.120048	-6.51	-58.52	9.03	0.4716	-0.0212	-0.2144	
-1.033584	0.08418	-0.09747799	-7	-63.63	9.31	0.4606	-0.0268	-0.2302	
-1.02846	0.089426	-0.06588	-9.73	-65.8	8.82	0.4518	-0.0284	-0.2299	
-0.984662	0.087962	-0.036966	-9.1	-69.3	8.12	0.4613	-0.0356	-0.2496	
-0.987102	0.078202	-0.007076	-8.54	-71.05	8.61	0.432	-0.0326	-0.2467	
-0.981002	0.08357	0.017446	-6.79	-73.29	8.4	0.4374	-0.0208	-0.2684	
-0.972096	0.09577	0.034038	-5.95	-77.77	7.56	0.4336	-0.0247	-0.2815	
-0.967704	0.10736	0.048678	-3.85	-80.78	7.98	0.419	-0.0312	-0.2841	
-0.967338	0.11102	0.073322	-4.76	-81.69	9.31	0.4135	-0.0445	-0.2946	
-0.97844	0.101992	0.100406	-7.07	-85.96	10.01	0.4007	-0.0339	-0.3024	
-0.974536	0.090646	0.137128	-9.59	-90.65	10.36	0.4011	-0.0439	-0.313	
-0.937936	0.084058	0.17141	-13.09	-96.39	11.2	0.3821	-0.036	-0.3104	
-0.901946	0.086498	0.20557	-11.9	-93.31	10.5	0.3755	-0.0385	-0.3292	
-0.88877	0.107238	0.22692	-13.3	-95.55	9.17	0.354	-0.044	-0.3402	
-0.894382	0.099674	0.252662	-15.47	-97.23	9.73	0.3543	-0.0379	-0.3458	
-0.878644	0.111386	0.285358	-14.35	-99.54	10.29	0.3285	-0.0354	-0.3563	
-0.841434	0.12505	0.340014	-14.91	-100.45	10.57	0.3156	-0.0391	-0.3646	
-0.79239	0.121146	0.402966	-15.61	-103.67	10.01	0.3088	-0.0301	-0.3727	
-0.783972	0.113826	0.39467	-13.86	-105.14	9.59	0.299	-0.0354	-0.3842	
-0.786778	0.101992	0.396744	-14.42	-106.26	9.8	0.28	-0.0404	-0.3851	
-0.781166	0.08662	0.40565	-15.19	-113.68	10.36	0.2689	-0.0428	-0.4007	
-0.724558	0.083326	0.488244	-13.72	-121.38	8.82	0.2428	-0.0401	-0.4053	
-0.687592	0.10797	0.590724	-11.55	-119.56	7.21	0.2285	-0.0374	-0.4119	
-0.658556	0.120658	0.574742	-12.25	-119.91	3.08	0.2038	-0.0346	-0.4151	
-0.646844	0.113338	0.592554	-13.58	-117.67	0.84	0.1861	-0.0377	-0.4116	
-0.639402	0.102968	0.590236	-13.3	-123.41	1.05	0.1719	-0.0336	-0.421	
-0.723338	0.098942	0.606218	-13.23	-128.24	0.07	0.1576	-0.0324	-0.4276	
-0.50874	0.056364	0.633302	-13.58	-128.94	1.82	0.1343	-0.0312	-0.431	
-0.502762	0.073932	0.67771	-15.54	-131.39	0.84	0.1081	-0.0395	-0.4331	
-0.476532	0.062342	0.70577	-16.8	-133.56	1.19	0.0866	-0.0402	-0.4439	
-0.41663	0.057096	0.7076	-17.71	-137.9	3.01	0.0659	-0.0257	-0.4351	
-0.390888	0.076128	0.756156	-19.88	-138.95	4.9	0.0428	-0.0343	-0.4447	
-0.360022	0.083936	0.76982	-21.98	-139.3	5.67	0.0246	-0.0193	-0.4272	
-0.269742	0.057462	0.820694	-22.19	-137.2	6.02	-0.0018	-0.0241	-0.4219	
-0.198006	0.061854	0.832284	-22.54	-133.91	6.23	-0.0117	-0.0262	-0.4318	
-0.12078	0.030744	0.856928	-23.24	-132.86	7.07	-0.0468	-0.0169	-0.4285	
-0.03904	0.004148	0.886696	-22.54	-130.62	8.26	-0.0662	-0.0022	-0.4168	
-0.003538	0.008174	0.910974	-21.63	-127.26	7.21	-0.0825	-0.0134	-0.4151	
0.020008	0.016104	0.951234	-21.21	-123.97	4.48	-0.1103	-0.0072	-0.4122	
0.086132	0.024278	0.950258	-21.42	-121.1	1.75	-0.1253	-0.0053	-0.4042	
0.173484	0.014152	0.944158	-22.54	-119.42	0.21	-0.1302	-0.0015	-0.3892	
0.208742	-0.005002	0.949892	-23.24	-115.92	0.28	-0.1624	0.0013	-0.3877	
0.238022	-0.015494	0.94977	-23.24	-110.53	-0.63	-0.1762	0.0034	-0.3739	
0.279258	-0.01769	0.95892	-23.1	-104.79	-2.1	-0.1945	0.009	-0.3539	
0.305366	-0.017202	0.955504	-22.61	-99.75	-2.94	-0.2017	0.0135	-0.3563	
0.327936	-0.023302	0.95221	-21.98	-95.06	-3.57	-0.2301	0.0076	-0.3422	
0.35807	-0.04148	0.945256	-21.07	-90.3	-3.29	-0.2232	0.0081	-0.3338	
0.383568	-0.059658	0.94367	-18.2	-86.52	-3.57	-0.2422	0.0111	-0.3328	
0.405528	-0.07808	0.94306	-15.26	-82.95	-3.85	-0.256	0.0276	-0.3155	
0.437736	-0.084912	0.941474	-10.5	-80.01	-4.41	-0.2576	0.0198	-0.3128	
0.469456	-0.0732	0.931836	-6.86	-76.3	-4.69	-0.267	0.0253	-0.2961	
0.500444	-0.058438	0.940498	-4.41	-71.05	-4.06	-0.276	0.0302	-0.2911	
0.51179	-0.049044	0.933422	-2.66	-65.17	-3.08	-0.2937	0.0174	-0.2895	
0.530334	-0.04636	0.917928	0.35	-60.34	-1.75	-0.3027	0.0096	-0.285	
0.549854	-0.045872	0.91927	2.45	-56.98	-0.42	-0.3013	0.0289	-0.2799	
0.550708	-0.040992	0.923418	3.99	-52.71	1.82	-0.3229	0.0267	-0.2557	
0.567422	-0.04331	0.921954	2.66	-48.86	4.27	-0.3181	0.0183	-0.265	
0.574742	-0.037454	0.909022	1.12	-45.57	5.81	-0.3291	0.0127	-0.2488	
0.577304	-0.049654	0.907558	0.56	-42.14	6.09	-0.3353	0.0257	-0.2392	
0.575962	-0.054168	0.909022	0.7	-38.71	6.37	-0.3355	0.0308	-0.2331	
0.57889	-0.058438	0.903898	2.31	-35	6.23	-0.3455	0.032	-0.2385	
0.582916	-0.073566	0.905728	2.87	-33.46	6.09	-0.3533	0.0325	-0.2265	
0.598654	-0.029402	0.909632	1.12	-31.85	6.23	-0.3475	0.0294	-0.2268	
0.609512	-0.067954	0.901214	-4.34	-29.05	5.67	-0.3492	0.0264	-0.221	
0.61122	-0.074542	0.889502	-7.42	-26.32	4.76	-0.3594	0.036	-0.2187	
0.671	-0.085278	0.903776	-6.23	-23.59	0.56	-0.3554	0.0332	-0.2117	
0.614026	-0.030378	0.869738	-8.26	-19.67	-0.84	-0.3553	0.0347	-0.2131	
0.651358	-0.054656	0.866566	-13.51	-18.62	-6.23	-0.3596	0.0361	-0.2158	
0.659532	-0.10614	0.86742	-11.97	-15.19	-7.84	-0.3612	0.0411	-0.2097	
0.649772	-0.110776	0.868884	-6.86	-10.36	-5.11	-0.3642	0.0428	-0.208	
0.630252	-0.109556	0.860466	-2.38	-5.95	-3.85	-0.3734	0.0352	-0.1992	
0.62586	-0.09821	0.860222	-2.31	-3.85	-1.82	-0.3647	0.0321	-0.1997	
0.618906	-0.095892	0.868274	-4.69	-1.96	-1.12	-0.3684	0.0313	-0.2142	
0.617442	-0.107116	0.863028	-6.3	0.42	-1.75	-0.363	0.0318	-0.2056	
0.61488	-0.108702	0.858636	-6.02	2.87	-2.31	-0.3692	0.0306	-0.1967	
0.599508	-0.096258	0.852658	-5.04	5.25	-1.33	-0.3634	0.0339	-0.1939	
0.600728	-0.100162	0.862662	-4.48	7.21	-0.35	-0.3614	0.0365	-0.207	
0.607438	-0.106628	0.857416	-4.34	9.1	0.63	-0.3665	0.0404	-0.1905	
0.620736	-0.122366	0.859856	-3.5	10.92	0.77	-0.3567	0.0362	-0.2145	
0.633912	-0.117974	0.864858	-1.96	13.23	1.54	-0.3598	0.0412	-0.2083	
0.652944	-0.125294	0.880962	-2.31	15.47	2.31	-0.3569	0.0444	-0.2083	
0.665388	-0.127612	0.890356	-1.19	18.76	3.15	-0.3688	0.0381	-0.2051	
0.671732	-0.129076	0.894626	1.05	22.75	3.57	-0.3613	0.038	-0.2098	
0.678198	-0.127734	0.896212	2.38	26.39	3.92	-0.357	0.0477	-0.2052	
0.68381	-0.13237	0.909022	5.39	30.03	4.2	-0.3532	0.0548	-0.224	
0.700524	-0.124928	0.92049	10.43	34.93	4.69	-0.3458	0.034	-0.2296	
0.701378	-0.10553	0.927566	13.86	41.3	4.41	-0.34	0.034	-0.2299	
0.68747	-0.097722	0.936594	13.02	47.25	3.43	-0.3337	0.0256	-0.2422	
0.676734	-0.074786	0.945134	9.1	52.57	3.01	-0.3336	0.0255	-0.2436	
0.66429	-0.067832	0.943914	4.69	58.1	1.68	-0.326	0.0301	-0.2496	
0.637206	-0.07991	0.937082	2.45	64.19	1.12	-0.3231	0.0397	-0.2479	
0.607682	-0.091744	0.936228	2.73	70.35	1.47	-0.315	0.0421	-0.2656	
0.5795	-0.101382	0.923906	6.16	76.51	2.1	-0.3018	0.0214	-0.2715	
0.543632	-0.087474	0.9272	10.43	82.81	2.73	-0.2941	0.0306	-0.2787	
0.505568	-0.076616	0.928908	12.04	89.11	2.94	-0.2921	0.0444	-0.2884	
0.452132	-0.05917	0.925736	12.25	94.71	2.59	-0.2731	0.0207	-0.2917	
0.410042	-0.052948	0.924394	11.9	98.14	1.26	-0.2649	0.0374	-0.3088	
0.374174	-0.061488	0.914024	12.81	101.36	0.42	-0.2499	0.0179	-0.322	
0.31903	-0.04819	0.9028	15.33	105.14	1.12	-0.2364	0.032	-0.3278	
0.270474	-0.035502	0.896456	14.49	107.1	0.35	-0.2318	0.0222	-0.3342	
0.234606	-0.029036	0.89243	14.21	108.71	0.28	-0.2048	0.0217	-0.35	
0.200202	-0.034038	0.888526	15.47	110.6	0.7	-0.194	0.0228	-0.3635	
0.16775	-0.02013	0.88145	17.29	113.4	2.38	-0.1761	0.0178	-0.3718	
0.10675	-0.011224	0.87047	17.78	116.27	3.15	-0.1626	0.0238	-0.3809	
0.029768	0.005612	0.853268	18.69	117.95	3.01	-0.1405	0.0031	-0.3871	
0	0.018788	0.83875	18.2	118.16	2.45	-0.124	0.0124	-0.3947	
-0.08845	0.022448	0.817766	16.45	120.96	1.54	-0.0928	0.0057	-0.4095	
-0.138958	0.02257	0.815936	16.66	121.45	1.61	-0.0928	0.0057	-0.4095	
-0.189466	0.025254	0.802638	17.22	119.7	1.33	-0.0749	-0.0008	-0.4178	
-0.20862	0.035624	0.798734	19.88	119.63	1.19	-0.0573	0.004	-0.4198	
-0.260226	0.039528	0.792024	22.05	119.98	0.28	-0.0438	0.0053	-0.4276	
-0.322812	0.04148	0.77592	21.98	118.86	-0.07	-0.0146	-0.007	-0.428	
-0.36905	0.035624	0.764574	21.7	116.06	-0.91	0.0175	-0.0164	-0.4312	
-0.404796	0.040748	0.723582	23.8	116.69	-1.75	0.0412	-0.0117	-0.4378	
-0.442128	0.06161	0.720776	25.83	116.34	-2.03	0.063	-0.0193	-0.4347	
-0.489952	0.062586	0.678808	23.31	116.27	-2.24	0.0848	-0.0143	-0.4325	
-0.525942	0.068076	0.656604	21.77	115.43	-2.73	0.0935	-0.0189	-0.4316	
-0.565714	0.075396	0.646722	22.89	114.94	-4.62	0.1129	-0.0223	-0.4399	
-0.623176	0.081374	0.59658	24.36	113.96	-5.11	0.1341	-0.0357	-0.4253	
-0.66246	0.09857599	0.583038	23.17	112	-4.48	0.1502	-0.0276	-0.4242	
-0.687348	0.10736	0.568398	20.51	110.39	-1.26	0.1735	-0.0304	-0.4224	
-0.71492	0.112972	0.556564	19.6	106.12	-0.77	0.1998	-0.0302	-0.4235	
-0.738344	0.126514	0.538508	16.87	103.81	-0.98	0.207	-0.0396	-0.4213	
-0.753228	0.124196	0.521306	13.93	101.5	-1.89	0.223	-0.0346	-0.4189	
-0.773114	0.118706	0.491538	11.62	100.59	-3.36	0.2458	-0.0369	-0.4053	
-0.78263	0.11773	0.472628	9.73	99.05	-5.39	0.2482	-0.0363	-0.3937	
-0.813618	0.119194	0.45018	10.22	98.56	-6.93	0.26	-0.0428	-0.3974	
-0.834114	0.123464	0.406016	10.29	96.32	-8.12	0.2713	-0.0454	-0.3878	
-0.855586	0.110532	0.387838	8.68	95.13	-8.05	0.2927	-0.0398	-0.3754	
-0.868274	0.098332	0.359412	11.76	92.47	-8.54	0.3062	-0.0417	-0.3833	
-0.887794	0.08845	0.328058	12.81	91.98	-9.17	0.3186	-0.0424	-0.3664	
-0.906094	0.089426	0.29951	13.51	92.89	-9.45	0.3314	-0.045	-0.3583	
-0.930006	0.105164	0.256444	14.21	93.66	-9.38	0.3386	-0.0304	-0.3521	
-0.93818	0.121024	0.243634	12.11	93.17	-8.96	0.3556	-0.0473	-0.3433	
-0.948672	0.13542	0.210694	11.76	89.67	-9.59	0.3582	-0.0341	-0.3341	
-0.918538	0.139202	0.171532	9.73	88.13	-8.89	0.3797	-0.043	-0.3252	
-0.963678	0.12871	0.115412	8.12	86.94	-7.07	0.3812	-0.0366	-0.3235	
-0.99369	0.126392	0.104798	6.44	86.03	-5.25	0.402	-0.032	-0.2965	
-1.026996	0.09857599	0.093208	5.46	81.69	-3.64	0.4033	-0.0383	-0.2954	
-1.017846	0.08686399	0.074908	7.56	75.46	-4.48	0.4135	-0.03	-0.2911	
-1.021262	0.076372	0.056364	8.75	71.54	-6.23	0.416	-0.0392	-0.2843	
-1.047004	0.076006	0.023546	9.94	68.25	-7.21	0.4261	-0.0309	-0.2785	
-1.037976	0.083936	0.00488	11.48	62.3	-7.98	0.4385	-0.03	-0.2615	
-1.038708	0.082838	-0.001342	9.17	57.75	-7.49	0.4472	-0.0299	-0.2604	
-1.028216	0.077958	-0.032086	8.96	49.84	-6.51	0.4392	-0.0276	-0.2439	
-1.042978	0.086498	-0.042334	10.22	49.56	-5.88	0.4479	-0.0274	-0.2414	
-1.04554	0.092598	-0.049532	8.26	45.08	-6.3	0.4565	-0.0336	-0.2391	
-1.044808	0.088938	-0.058926	9.8	41.44	-5.81	0.465	-0.0251	-0.2303	
-1.015894	0.082594	-0.072956	9.17	39.2	-6.93	0.4678	-0.0266	-0.2276	
-1.041514	0.081862	-0.070638	11.34	38.22	-7.56	0.4674	-0.0213	-0.2171	
-1.031266	0.078934	-0.044042	7.07	34.79	-7.63	0.47	-0.0258	-0.2116	
-1.020652	0.078446	-0.074786	7.28	35	-6.86	0.4671	-0.0195	-0.2112	
-1.038952	0.086742	-0.104676	8.05	37.52	-6.37	0.4654	-0.0256	-0.2056	
-1.040294	0.077836	-0.105774	3.22	34.09	-6.09	0.474	-0.0286	-0.2031	
-1.035292	0.068564	-0.140666	5.74	31.57	-6.16	0.4809	-0.0152	-0.1897	
-1.052372	0.0549	-0.125172	7.84	31.08	-5.39	0.481	-0.0169	-0.1927	
-1.047126	0.07076	-0.119682	7	24.85	-4.34	0.4776	-0.018	-0.1809	
-1.037732	0.073932	-0.139202	4.06	19.81	-3.92	0.4751	-0.0185	-0.1925	
-1.029314	0.074054	-0.139446	2.24	18.83	-4.69	0.4821	-0.0166	-0.1854	
-1.017968	0.0732	-0.157868	3.92	21	-5.53	0.48	-0.0286	-0.1713	
-1.03273	0.069418	-0.16287	1.33	24.22	-5.6	0.4888	-0.0158	-0.1696	
-1.031754	0.070028	-0.168116	2.94	24.57	-4.41	0.4917	-0.0157	-0.1683	
-1.04005	0.0549	-0.174948	0	21.84	-3.71	0.4858	-0.0269	-0.17	
-1.057252	0.056852	-0.181048	-1.12	16.52	-3.43	0.484	-0.0121	-0.1591	
-1.06506	0.066002	-0.185806	-0.42	14.14	-4.41	0.4868	-0.0104	-0.1562	
-1.048956	0.069784	-0.183366	2.38	12.74	-4.83	0.4925	-0.0134	-0.1536	
-1.014064	0.05917	-0.184464	5.39	10.78	-4.76	0.4799	-0.0173	-0.1664	
-1.000644	0.042944	-0.199226	6.02	10.92	-4.69	0.4919	-0.0079	-0.1724	
-1.015528	0.042822	-0.188124	2.31	10.29	-4.55	0.4938	-0.0132	-0.1508	
-1.031998	0.032452	-0.206302	-1.96	6.23	-4.83	0.4941	-0.0007	-0.1546	
-1.017724	0.044896	-0.218258	3.01	8.96	-4.55	0.4956	0.0008	-0.1546	
-1.023702	0.059048	-0.209718	1.68	8.05	-4.2	0.5011	0.0012	-0.1461	
-1.018456	0.054656	-0.207522	2.03	8.4	-4.2	0.494	-0.0119	-0.1551	
-1.026752	0.036844	-0.211914	0.49	7.35	-3.5	0.4892	-0.0178	-0.1464	
-1.030534	0.03233	-0.215818	2.38	5.95	-2.66	0.4962	-0.0094	-0.1376	
-1.031144	0.037332	-0.20984	2.1	5.88	-2.31	0.4955	-0.0103	-0.1551	
-1.034316	0.036966	-0.218624	1.05	3.85	-1.89	0.4909	-0.0085	-0.1505	
-1.028094	0.030988	-0.21594	-0.07	4.55	-2.03	0.4978	-0.0159	-0.1408	
-1.029436	0.02318	-0.224724	0.21	2.38	-1.61	0.4936	-0.013	-0.1449	
-1.039318	0.027084	-0.225334	0.56	-0.49	-1.19	0.5008	-0.0064	-0.142	
-1.041148	0.036112	-0.231678	-0.14	-2.1	-1.26	0.5055	-0.0099	-0.1497	
-1.025044	0.03294	-0.224236	0.14	-1.75	-1.61	0.5054	-0.0065	-0.1451	
-1.013088	0.022204	-0.227896	0.84	-2.59	-1.75	0.4994	-0.0049	-0.1434	
-1.026752	0.019398	-0.237656	0.63	-3.78	-1.4	0.4953	-0.0084	-0.1492	
-1.043832	0.02806	-0.240218	0.49	-5.53	-0.98	0.4909	-0.0036	-0.1473	
-1.04737	0.038308	-0.231068	-0.7	-6.79	-0.35	0.5002	-0.0009	-0.1593	
-1.032974	0.036844	-0.234606	-1.75	-9.1	0.63	0.4938	-0.0148	-0.1508	
-1.036268	0.028548	-0.235948	-0.63	-9.38	1.89	0.4995	0.0013	-0.1431	
-1.04737	0.025498	-0.227286	-0.84	-11.2	3.08	0.5027	-0.0069	-0.1523	
-1.053592	0.024766	-0.222528	-2.24	-12.6	3.22	0.4865	-0.01	-0.1489	
-1.031754	0.03294	-0.219722	-1.82	-14.07	3.57	0.4899	-0.0073	-0.1591	
-1.038708	0.038796	-0.224724	-1.61	-16.87	4.34	0.4881	-0.0006	-0.15	
-1.070672	0.046604	-0.21411	-1.54	-18.97	5.25	0.4997	-0.0115	-0.1495	
-1.078114	0.047092	-0.189588	-3.57	-19.88	5.6	0.4943	-0.0105	-0.1609	
-1.044442	0.043676	-0.168116	-3.29	-22.68	5.88	0.5016	-0.0153	-0.1614	
-1.034438	0.044408	-0.166774	-3.15	-25.2	6.93	0.4831	-0.0064	-0.1719	
-1.044076	0.04575	-0.172508	-2.87	-26.67	7.63	0.4841	-0.009099999	-0.1619	
-1.052128	0.059536	-0.157746	-2.59	-27.16	7.35	0.4891	-0.0128	-0.1754	
-1.052616	0.06283	-0.137128	-5.46	-29.19	7	0.4834	-0.0131	-0.1795	
-1.04371	0.060878	-0.13359	-5.67	-32.13	7.14	0.4899	-0.0122	-0.1958	
-1.030412	0.06893	-0.12322	-5.88	-35.49	7.77	0.4737	-0.0186	-0.1939	
-1.021262	0.071736	-0.09821	-7.07	-36.89	7.63	0.4737	-0.0122	-0.1922	
-0.996496	0.070394	-0.07137	-7.28	-38.71	7.42	0.4723	-0.0235	-0.197	
-0.988322	0.06771	-0.057462	-7.14	-36.75	7.28	0.4744	-0.0242	-0.2117	
-0.98576	0.069784	-0.042822	-6.93	-34.58	7.07	0.4626	-0.0177	-0.2066	
-0.99125	0.076372	-0.035868	-5.67	-32.62	6.65	0.4749	-0.0151	-0.2201	
-1.007964	0.080032	-0.026596	-5.32	-31.64	6.37	0.4631	-0.0279	-0.2216	
-1.014186	0.082106	-0.005002	-5.6	-33.95	6.23	0.4648	-0.0281	-0.2261	
-1.005768	0.08052	0.012566	-6.65	-37.17	6.16	0.4518	-0.0237	-0.2297	
-0.98881	0.076982	0.03904	-6.23	-37.66	5.67	0.4535	-0.0351	-0.2376	
-0.975634	0.083204	0.06527	-3.92	-35.7	4.97	0.4551	-0.0256	-0.2387	
-0.97783	0.086742	0.072712	-3.85	-31.92	4.27	0.4447	-0.0431	-0.2375	
-0.98576	0.085156	0.07869	-2.59	-29.61	3.5	0.45	-0.0217	-0.2558	
-0.989054	0.083082	0.072346	-1.26	-29.96	3.43	0.4457	-0.0266	-0.2573	
-0.991738	0.093208	0.091866	-0.07	-30.8	3.36	0.4482	-0.0213	-0.247	
-0.999058	0.099064	0.113094	-1.82	-32.41	2.52	0.4387	-0.0286	-0.2658	
-0.986248	0.101138	0.127978	-2.1	-33.18	1.12	0.4294	-0.0361	-0.2541	
-0.9821	0.106994	0.138348	-3.22	-32.2	0.49	0.4375	-0.0385	-0.2735	
-0.981124	0.109434	0.150426	-4.76	-30.38	0.21	0.4358	-0.0302	-0.2658	
-0.987346	0.105164	0.151036	-5.67	-28.84	0.35	0.4231	-0.0277	-0.2768	
-0.986614	0.09882	0.154696	-8.12	-28.21	0.63	0.4118	-0.017	-0.2832	
-0.979904	0.095038	0.167628	-8.47	-26.88	1.12	0.4162	-0.0218	-0.285	
-0.976122	0.086254	0.180194	-7.35	-26.18	1.54	0.4114	-0.0294	-0.2778	
-0.97966	0.08662	0.187392	-5.18	-25.76	1.75	0.4032	-0.0333	-0.2908	
-0.979782	0.09455	0.198128	-5.53	-25.48	1.54	0.4104	-0.0363	-0.2883	
-0.973072	0.091744	0.208132	-7.07	-25.13	1.4	0.412	-0.022	-0.2892	
-0.971974	0.090524	0.21045	-6.44	-25.62	1.68	0.4079	-0.032	-0.2982	
-0.966118	0.09211	0.22875	-4.69	-25.97	2.31	0.4023	-0.0244	-0.3035	
-0.971486	0.095282	0.239608	-5.18	-24.71	2.45	0.3933	-0.029	-0.2989	
-0.965508	0.093696	0.259372	-6.72	-24.15	1.75	0.3924	-0.0392	-0.3125	
-0.957212	0.087596	0.271938	-4.34	-20.58	1.47	0.3951	-0.0245	-0.3047	
-0.970876	0.110288	0.29646	-7.21	-17.85	1.26	0.4027	-0.02	-0.3121	
-0.936594	0.124928	0.295118	-18.13	-16.66	-0.42	0.3968	-0.0248	-0.312	
-0.939766	0.144204	0.269376	-20.23	-16.87	-0.84	0.3893	-0.0359	-0.3093	
-0.945622	0.149816	0.288652	-21.7	-15.12	-3.57	0.3898	-0.022	-0.3175	
-0.952088	0.14518	0.293044	-21.07	-16.17	-5.67	0.384	-0.0221	-0.3187	
-0.947818	0.137494	0.298412	-20.09	-16.8	-6.44	0.3812	-0.0239	-0.323	
-0.934032	0.142008	0.308416	-17.92	-19.39	-8.68	0.3899	-0.0061	-0.3168	
-0.939766	0.153232	0.318298	-20.16	-17.15	-12.18	0.3794	-0.0155	-0.3124	
-0.940864	0.153842	0.32269	-19.81	-17.29	-15.89	0.3832	-0.0052	-0.331	
-0.93879	0.146644	0.330132	-17.08	-17.64	-19.11	0.3816	0.0044	-0.3262	
-0.93086	0.132736	0.331718	-13.65	-17.99	-23.03	0.3668	0.0013	-0.3213	
-0.928298	0.120902	0.34587	-10.78	-18.55	-27.51	0.3755	-0.0016	-0.3203	
-0.915488	0.10858	0.345748	-8.96	-18.76	-32.48	0.3699	0.0123	-0.3239	
-0.908534	0.091988	0.354532	-7.21	-16.1	-37.17	0.363	0.008599999	-0.334	
-0.913536	0.078202	0.361486	-5.25	-15.47	-41.79	0.3591	0.0129	-0.3438	
-0.909998	0.065026	0.365634	-5.6	-15.26	-45.01	0.3705	0.0261	-0.335	
-0.913292	0.043676	0.364536	-5.39	-14.98	-47.74	0.3606	0.024	-0.3434	
-0.91134	0.036112	0.355752	-5.46	-15.96	-49.7	0.3559	0.0403	-0.3323	
-0.91134	0.012078	0.359534	-6.93	-16.87	-50.96	0.3621	0.0352	-0.3415	
-0.904752	-0.024034	0.367098	-7.63	-16.87	-51.8	0.3549	0.0382	-0.344	
-0.899384	-0.06893	0.380396	-7.7	-17.29	-53.27	0.3461	0.0557	-0.34	
-0.892064	-0.10431	0.391864	-8.12	-16.73	-54.25	0.3361	0.0698	-0.3418	
-0.886208	-0.131394	0.397476	-7.84	-15.4	-55.93	0.3389	0.07319999	-0.3389	
-0.88206	-0.148474	0.403942	-6.79	-14.56	-57.4	0.3329	0.0733	-0.3357	
-0.879376	-0.16592	0.401136	-9.24	-14.42	-58.94	0.3286	0.0844	-0.3351	
-0.880474	-0.18544	0.4026	-11.48	-15.19	-59.71	0.3274	0.0872	-0.3422	
-0.876204	-0.216428	0.402966	-11.76	-17.57	-59.85	0.3186	0.09519999	-0.3385	
-0.864004	-0.246074	0.40748	-12.11	-18.9	-59.36	0.3193	0.1056	-0.3542	
-0.848266	-0.272914	0.412482	-10.85	-17.71	-59.36	0.3196	0.1117	-0.3598	
-0.84668	-0.28792	0.406382	-11.9	-16.94	-59.29	0.3207	0.1169	-0.3494	
-0.835822	-0.291214	0.405162	-11.83	-18.06	-59.15	0.3032	0.1295	-0.3481	
-0.827282	-0.302804	0.418338	-13.86	-20.51	-59.99	0.3079	0.134	-0.3539	
-0.825574	-0.326594	0.423584	-14.14	-23.52	-60.62	0.2991	0.1387	-0.3534	
-0.823622	-0.355996	0.433222	-14.98	-24.22	-61.25	0.2759	0.1431	-0.3566	
-0.792878	-0.397354	0.454328	-14	-25.06	-60.2	0.2879	0.1445	-0.3628	
-0.782752	-0.416386	0.447374	-13.23	-23.45	-58.17	0.2787	0.1561	-0.3517	
-0.774944	-0.436028	0.437614	-14.63	-21.14	-57.19	0.2746	0.1589	-0.3573	
-0.775676	-0.444446	0.44042	-13.86	-19.88	-54.95	0.258	0.1657	-0.3446	
-0.773602	-0.467626	0.446276	-13.09	-20.23	-51.8	0.2553	0.1751	-0.347	
-0.750666	-0.482388	0.448594	-12.25	-19.32	-47.95	0.251	0.175	-0.3483	
-0.73627	-0.487268	0.44652	-14.07	-19.6	-44.38	0.2528	0.1905	-0.355	
-0.71919	-0.496906	0.460306	-15.75	-18.55	-40.95	0.2382	0.1889	-0.3544	
-0.70821	-0.507154	0.454694	-15.54	-16.17	-37.52	0.2396	0.1889	-0.3545	
-0.69357	-0.517158	0.461526	-16.38	-14.77	-34.23	0.2412	0.1952	-0.3558	
-0.704428	-0.563274	0.46787	-16.59	-11.69	-30.31	0.2367	0.2065	-0.3507	
-0.694424	-0.56669	0.471896	-16.24	-10.01	-26.67	0.2204	0.2097	-0.3455	
-0.695278	-0.566568	0.462746	-17.5	-9.87	-24.71	0.2148	0.2046	-0.3513	
-0.680638	-0.57279	0.46909	-19.6	-11.2	-22.89	0.221	0.2107	-0.3586	
-0.660996	-0.58865	0.464576	-18.76	-11.34	-20.37	0.2164	0.2125	-0.3539	
-0.652578	-0.588772	0.462624	-17.36	-9.38	-18.62	0.2194	0.2317	-0.3503	
-0.65392	-0.596458	0.454816	-16.45	-8.96	-17.15	0.2048	0.2314	-0.3526	
-0.64843	-0.601704	0.454938	-15.68	-7.91	-16.1	0.2057	0.2241	-0.3399	
-0.648064	-0.61732	0.4514	-15.12	-7.21	-14.56	0.1902	0.2393	-0.3517	
-0.637572	-0.63318	0.45872	-14.7	-6.23	-13.65	0.1945	0.2266	-0.3524	
-0.620126	-0.654286	0.463478	-12.32	-6.3	-13.65	0.1912	0.2382	-0.3401	
-0.618174	-0.666852	0.453962	-8.89	-5.53	-13.58	0.1899	0.2381	-0.343	
-0.625372	-0.668438	0.446398	-5.11	-4.62	-13.09	0.1912	0.2462	-0.3397	
-0.6222	-0.682224	0.45445	-1.89	-3.85	-12.46	0.1884	0.2349	-0.343	
-0.62586	-0.687836	0.442372	-0.28	-2.24	-12.25	0.187	0.2428	-0.3426	
-0.620492	-0.650016	0.444324	1.54	-0.91	-12.39	0.1779	0.2495	-0.3347	
-0.614758	-0.660752	0.451156	0.7	-1.26	-11.76	0.1805	0.2371	-0.3295	
-0.612074	-0.66856	0.449204	0.56	-0.49	-9.24	0.1942	0.2461	-0.3413	
-0.60634	-0.667828	0.456524	1.4	1.26	-6.09	0.1838	0.2414	-0.3382	
-0.60573	-0.680516	0.455792	1.61	1.96	-4.34	0.1815	0.2472	-0.351	
-0.611464	-0.67344	0.45018	3.57	2.87	-2.17	0.1751	0.2365	-0.3395	
-0.619638	-0.675636	0.454084	3.99	3.57	-0.14	0.187	0.238	-0.3443	
-0.620004	-0.676612	0.453718	4.2	4.69	2.8	0.1853	0.2479	-0.3365	
-0.615368	-0.66795	0.453108	4.83	4.48	4.83	0.1826	0.2492	-0.3422	
-0.613538	-0.676368	0.45079	5.04	4.9	6.79	0.1826	0.2459	-0.3438	
-0.61427	-0.671976	0.465918	6.02	6.09	8.89	0.1928	0.243	-0.3414	
-0.618662	-0.668804	0.465064	5.81	6.72	10.99	0.1841	0.2427	-0.3454	
-0.618662	-0.668194	0.460428	6.23	6.86	13.51	0.1985	0.2447	-0.3387	
-0.621956	-0.671366	0.458842	6.09	7.84	16.31	0.2049	0.2442	-0.3506	
-0.621712	-0.667584	0.462136	6.58	8.33	18.9	0.1982	0.245	-0.3328	
-0.635986	-0.677832	0.457134	7.84	9.03	21.98	0.2044	0.2303	-0.3439	
-0.656482	-0.685396	0.45689	11.27	9.73	24.99	0.2032	0.2285	-0.3483	
-0.662826	-0.674416	0.454694	14.21	11.55	27.93	0.2075	0.2318	-0.3454	
-0.660264	-0.683078	0.453718	16.1	11.83	31.43	0.2059	0.235	-0.3438	
-0.66612	-0.665876	0.447984	22.89	13.3	35	0.2163	0.2238	-0.3491	
-0.683932	-0.661972	0.456036	25.97	15.4	39.34	0.2116	0.2097	-0.3451	
-0.680272	-0.6283	0.455914	31.71	17.01	45.01	0.2255	0.217	-0.36	
-0.678686	-0.58072	0.445056	35.98	18.27	49.77	0.2309	0.1999	-0.3536	
-0.681736	-0.55815	0.433222	36.68	22.96	53.34	0.2324	0.1839	-0.3573	
-0.699304	-0.529724	0.433954	38.5	26.88	56.56	0.2412	0.1936	-0.3558	
-0.721386	-0.506056	0.446154	38.92	28.91	61.04	0.2549	0.1755	-0.3718	
-0.742614	-0.47885	0.417728	40.46	29.96	64.68	0.2457	0.1678	-0.3644	
-0.766526	-0.458232	0.414922	39.2	30.1	68.39	0.2804	0.1623	-0.3545	
-0.76006	-0.411628	0.421388	39.69	29.4	70.91	0.2628	0.1445	-0.3574	
-0.757742	-0.370636	0.408578	37.8	28.63	72.87	0.2772	0.1257	-0.3574	
-0.777994	-0.34587	0.411262	35.42	27.58	75.6	0.285	0.1189	-0.3682	
-0.815204	-0.330986	0.412482	31.22	24.01	78.4	0.3083	0.1159	-0.3679	
-0.825208	-0.314394	0.41175	28.35	26.6	81.9	0.3036	0.1018	-0.3639	
-0.83936	-0.279868	0.403088	26.11	26.04	83.44	0.3136	0.0894	-0.3605	
-0.854488	-0.238998	0.396622	23.66	25.9	85.4	0.3104	0.0672	-0.3584	
-0.876082	-0.196176	0.41175	19.39	22.26	87.36	0.3187	0.0679	-0.347	
-0.876326	-0.14091	0.41175	12.88	18.9	88.55	0.3247	0.0646	-0.3503	
-0.868762	-0.116388	0.405162	8.75	20.23	89.67	0.3274	0.0472	-0.3497	
-0.863028	-0.069052	0.388936	8.26	20.09	90.93	0.3259	0.0328	-0.3518	
-0.879864	-0.038674	0.368074	7.7	19.67	91.21	0.3436	0.0313	-0.354	
-0.88999	-0.018666	0.3599	8.4	19.11	91.42	0.3405	0.025	-0.3527	
-0.887428	0.003782	0.343918	8.68	18.55	93.24	0.3476	0.0078	-0.3494	
-0.884012	0.037698	0.341722	8.89	17.78	94.22	0.349	-0.0066	-0.353	
-0.878644	0.09857599	0.327448	12.11	15.54	94.64	0.3556	-0.0121	-0.3375	
-0.877424	0.146034	0.326594	13.02	13.93	95.06	0.3511	-0.0312	-0.3381	
-0.880108	0.184952	0.312808	13.3	12.95	95.41	0.3425	-0.0427	-0.344	
-0.892186	0.221186	0.302926	14	11.9	95.41	0.3552	-0.0484	-0.3332	
-0.88755	0.267302	0.304878	13.72	8.75	95.41	0.3553	-0.0614	-0.3396	
-0.871324	0.296216	0.301828	14.21	5.25	96.39	0.3568	-0.07099999	-0.3415	
-0.855098	0.32147	0.313784	14.7	3.71	97.16	0.3477	-0.0804	-0.3371	
-0.846558	0.351848	0.316224	16.03	2.45	96.46	0.3493	-0.0981	-0.3438	
-0.848388	0.39528	0.325618	17.78	3.5	94.36	0.3474	-0.1136	-0.3356	
-0.850218	0.436882	0.331108	21.91	2.17	92.4	0.3442	-0.1181	-0.3299	
-0.841556	0.45872	0.302682	25.55	-5.67	90.72	0.343	-0.144	-0.3411	
-0.825696	0.453596	0.309026	26.18	-7.28	88.97	0.3328	-0.1473	-0.3423	
-0.807274	0.482266	0.315492	26.39	-8.12	86.1	0.3323	-0.1724	-0.3361	
-0.800564	0.524112	0.313174	22.82	-6.51	82.11	0.3234	-0.1707	-0.3327	
-0.797392	0.543022	0.30561	21.28	-7.35	78.61	0.3188	-0.1994	-0.3337	
-0.781166	0.565348	0.313174	19.95	-9.73	75.04	0.3144	-0.1929	-0.3303	
-0.755668	0.587308	0.310368	19.53	-10.29	71.12	0.3116	-0.2139	-0.3384	
-0.756034	0.614148	0.315004	16.66	-7.42	66.64	0.305	-0.2244	-0.324	
-0.745908	0.646844	0.299266	17.22	-8.26	63.21	0.2908	-0.2217	-0.332	
-0.727242	0.67039	0.296338	17.92	-7.14	60.9	0.2904	-0.2341	-0.3253	
-0.714554	0.694912	0.290116	17.92	-8.61	57.82	0.2815	-0.2485	-0.3255	
-0.71065	0.67893	0.28487	18.41	-7.7	53.69	0.2785	-0.2595	-0.3244	
-0.697596	0.686128	0.300486	22.61	-8.75	50.26	0.2714	-0.2615	-0.3315	
-0.676246	0.695278	0.279624	21.56	-11.13	46.76	0.2654	-0.2678	-0.3286	
-0.689056	0.71126	0.277916	25.06	-10.71	43.75	0.2582	-0.2776	-0.333	
-0.679052	0.733098	0.30195	26.74	-12.6	40.67	0.2489	-0.2819	-0.3226	
-0.649894	0.730658	0.298534	23.94	-16.73	35.98	0.252	-0.29	-0.326	
-0.631472	0.748592	0.2867	21.98	-17.99	32.27	0.2444	-0.2914	-0.3214	
-0.61183	0.75457	0.294874	21.28	-18.55	29.61	0.2475	-0.2947	-0.3246	
-0.609146	0.778604	0.305	20.93	-15.68	26.39	0.2381	-0.2941	-0.3095	
-0.596702	0.799588	0.306098	17.71	-12.88	24.22	0.2236	-0.304	-0.3152	
-0.590724	0.816424	0.300364	17.01	-11.2	22.26	0.2192	-0.304	-0.315	
-0.567056	0.826916	0.306342	13.23	-10.57	21.14	0.2323	-0.3071	-0.3142	
-0.565592	0.821792	0.29707	9.73	-9.03	18.97	0.2266	-0.3184	-0.3189	
-0.561078	0.832528	0.296948	6.86	-7.84	17.15	0.2132	-0.32	-0.3154	
-0.569252	0.837042	0.295606	5.11	-8.19	15.89	0.2206	-0.32	-0.3172	
-0.538874	0.824598	0.31781	4.55	-7.07	11.76	0.2118	-0.328	-0.3172	
-0.532408	0.826062	0.312442	3.36	-7.28	10.22	0.2159	-0.3277	-0.3115	
-0.52094	0.81679	0.308782	1.75	-5.32	7.84	0.2011	-0.3196	-0.3047	
-0.522648	0.836676	0.301462	4.41	-3.64	3.99	0.2061	-0.333	-0.3215	
-0.527162	0.837652	0.30866	5.32	-2.03	2.59	0.206	-0.3249	-0.3183	
-0.551928	0.83875	0.2928	2.1	-3.15	-0.21	0.2088	-0.3183	-0.3137	
-0.55144	0.87596	0.299022	0.56	-1.96	-1.96	0.2039	-0.3354	-0.3055	
-0.540216	0.89365	0.301096	-1.61	-1.54	-5.67	0.2091	-0.3299	-0.323	
-0.52155	0.86925	0.306586	-4.76	1.05	-8.82	0.2014	-0.3232	-0.3136	
-0.5246	0.86376	0.302926	-7	0.91	-10.15	0.2099	-0.3276	-0.3083	
-0.538752	0.848388	0.301096	-8.68	2.38	-11.76	0.2001	-0.3265	-0.3166	
-0.540216	0.827892	0.310124	-9.1	4.2	-15.61	0.2102	-0.3214	-0.3125	
-0.536312	0.839116	0.309392	-10.29	4.06	-19.81	0.2044	-0.3296	-0.3155	
-0.541436	0.8418	0.306952	-11.69	4.48	-21.63	0.2075	-0.3169	-0.3165	
-0.551318	0.84546	0.317322	-12.95	6.51	-23.31	0.216	-0.3118	-0.3108	
-0.555344	0.85156	0.329156	-14.07	7.84	-25.41	0.2228	-0.3144	-0.3331	
-0.562542	0.840702	0.324764	-18.55	10.92	-30.1	0.2325	-0.3057	-0.3186	
-0.579988	0.810324	0.309392	-21.28	10.99	-33.88	0.2224	-0.3123	-0.3228	
-0.605364	0.790682	0.317932	-20.86	12.53	-37.87	0.2328	-0.306	-0.3259	
-0.621712	0.778726	0.31476	-21.98	12.46	-43.26	0.2389	-0.295	-0.3286	
-0.624274	0.765062	0.31415	-20.58	12.67	-48.44	0.2491	-0.2773	-0.3253	
-0.627324	0.755058	0.31415	-21.63	12.25	-52.85	0.248	-0.2745	-0.3325	
-0.63379	0.720654	0.314638	-22.12	11.27	-56.63	0.2547	-0.2674	-0.3179	
-0.65392	0.714066	0.320128	-23.87	10.92	-58.87	0.2639	-0.2694	-0.3286	
-0.672952	0.712236	0.312808	-25.55	11.06	-62.51	0.2671	-0.2472	-0.3292	
-0.688934	0.669414	0.309148	-26.46	12.39	-65.8	0.2761	-0.241	-0.3337	
-0.711992	0.615368	0.314516	-25.48	11.69	-67.9	0.286	-0.2357	-0.3251	
-0.736026	0.586698	0.313906	-24.92	10.85	-70.77	0.2898	-0.2222	-0.3422	
-0.746884	0.568886	0.320494	-23.94	10.99	-74.27	0.3081	-0.2086	-0.3249	
-0.754692	0.554368	0.33001	-24.08	10.5	-77.07	0.2999	-0.2077	-0.3377	
-0.759816	0.519232	0.32208	-21.77	12.04	-79.45	0.3116	-0.1915	-0.3345	
-0.765428	0.47153	0.313296	-19.11	14.21	-81.62	0.322	-0.174	-0.3342	
-0.816058	0.449448	0.313784	-15.05	16.31	-83.02	0.3189	-0.177	-0.3298	
-0.855708	0.433588	0.30561	-15.4	14.84	-84.84	0.3339	-0.1645	-0.3373	
-0.864736	0.375638	0.292434	-11.9	13.09	-86.38	0.3279	-0.158	-0.3323	
-0.870714	0.302194	0.296948	-7.91	12.39	-87.29	0.3427	-0.1357	-0.332	
-0.883524	0.251076	0.291702	-3.85	10.92	-88.34	0.3517	-0.1311	-0.338	
-0.884012	0.233996	0.287798	-3.15	9.66	-89.74	0.362	-0.1118	-0.3347	
-0.882792	0.223138	0.288042	-6.72	7.28	-89.74	0.3501	-0.1149	-0.3314	
-0.889868	0.210938	0.288286	-8.82	5.25	-87.99	0.3562	-0.0927	-0.3322	
-0.88755	0.183366	0.297436	-11.76	5.32	-87.08	0.3632	-0.0923	-0.3237	
-0.915488	0.13359	0.286334	-7.42	5.46	-85.47	0.3579	-0.0801	-0.3346	
-0.928542	0.083448	0.28304	-4.69	3.43	-85.12	0.3651	-0.0656	-0.3299	
-0.933666	0.048556	0.29524	-2.66	1.61	-84.21	0.3624	-0.045	-0.3304	
-0.947086	0.016714	0.310612	-8.33	-0.77	-84.14	0.364	-0.0484	-0.335	
-0.945134	-0.011346	0.300974	-9.87	-4.06	-83.3	0.3566	-0.0355	-0.3298	
-0.939522	-0.034404	0.30744	-11.27	-6.51	-81.62	0.3655	-0.0212	-0.331	
-0.947574	-0.05917	0.306586	-10.71	-8.82	-79.1	0.3717	-0.0183	-0.3369	
-0.952698	-0.085156	0.302926	-7	-8.75	-76.02	0.3705	-0.0058	-0.3407	
-0.952088	-0.108214	0.307684	-9.8	-10.85	-74.41	0.3628	0.0104	-0.3295	
-0.936472	-0.13237	0.311588	-11.55	-14.14	-73.99	0.3644	0.0183	-0.3307	
-0.92903	-0.138714	0.316346	-15.89	-16.38	-73.92	0.3661	0.026	-0.3348	
-0.92598	-0.15128	0.313052	-19.46	-18.2	-74.83	0.3586	0.023	-0.3302	
-0.916708	-0.160674	0.3172	-20.72	-19.04	-75.6	0.3502	0.0545	-0.3329	
-0.91622	-0.15921	0.323178	-21.84	-20.51	-76.16	0.35	0.0451	-0.3304	
-0.913414	-0.169824	0.308782	-20.65	-22.96	-76.23	0.3406	0.0681	-0.3465	
-0.915122	-0.191906	0.327814	-21.42	-24.85	-76.44	0.3444	0.0863	-0.3298	
-0.91927	-0.223504	0.348066	-18.2	-26.6	-76.16	0.3285	0.0812	-0.3337	
-0.888282	-0.264984	0.355874	-17.64	-29.68	-76.16	0.335	0.0902	-0.3468	
-0.872544	-0.316712	0.367586	-16.31	-30.87	-74.97	0.3203	0.1141	-0.3407	
-0.869494	-0.33489	0.36905	-14.28	-28.77	-72.17	0.312	0.1103	-0.3537	
-0.862418	-0.35014	0.379054	-14.21	-27.65	-69.02	0.3149	0.1264	-0.3487	
-0.844972	-0.382226	0.400648	-16.17	-27.65	-64.05	0.2957	0.1248	-0.3451	
-0.817522	-0.398574	0.40321	-18.55	-28.07	-58.1	0.2945	0.1421	-0.3472	
-0.804102	-0.422364	0.414434	-22.75	-28	-52.92	0.2965	0.1463	-0.3602	
-0.790072	-0.44774	0.41419	-23.8	-27.23	-47.74	0.2771	0.1562	-0.3487	
-0.77897	-0.45628	0.41785	-23.59	-25.69	-43.4	0.2788	0.1704	-0.3497	
-0.755668	-0.461892	0.427244	-23.73	-23.59	-39.69	0.2775	0.1622	-0.3558	
-0.73871	-0.476532	0.445422	-25.13	-22.26	-36.61	0.2612	0.1719	-0.3489	
-0.726632	-0.486902	0.446276	-23.94	-20.09	-33.67	0.2568	0.1686	-0.3503	
-0.723948	-0.50447	0.438956	-23.31	-17.29	-31.64	0.2585	0.1876	-0.351	
-0.715164	-0.520696	0.439322	-22.68	-17.36	-30.31	0.2525	0.1813	-0.3495	
-0.720654	-0.537532	0.43371	-21.84	-14.63	-28.84	0.245	0.1975	-0.3412	
-0.711138	-0.562786	0.444812	-21.35	-13.3	-27.51	0.2426	0.1985	-0.3527	
-0.721508	-0.592676	0.442982	-20.02	-12.39	-26.04	0.2325	0.203	-0.3565	
-0.716628	-0.596458	0.44042	-19.32	-11.34	-24.15	0.2323	0.2017	-0.3507	
-0.698938	-0.590114	0.439688	-17.22	-10.85	-22.82	0.2321	0.2083	-0.3446	
-0.691252	-0.585966	0.432002	-16.1	-10.99	-20.44	0.2267	0.2189	-0.3541	
-0.679418	-0.579134	0.440298	-14.84	-11.34	-17.92	0.2264	0.2145	-0.347	
-0.66063	-0.598044	0.439688	-14.84	-11.48	-16.03	0.2192	0.2286	-0.3475	
-0.64538	-0.610122	0.435662	-14.63	-9.24	-14.56	0.2192	0.2303	-0.346	
-0.647332	-0.610732	0.441518	-14.35	-7.14	-14.07	0.2205	0.2385	-0.3413	
-0.654774	-0.61671	0.442982	-13.3	-5.67	-13.02	0.2192	0.2334	-0.3473	
-0.65636	-0.63074	0.440786	-12.46	-6.3	-11.62	0.2073	0.2272	-0.3427	
-0.63623	-0.6405	0.434198	-11.06	-6.02	-11.2	0.2131	0.2433	-0.3379	
-0.624762	-0.640622	0.4331	-9.94	-5.18	-11.27	0.2071	0.2402	-0.3348	
-0.632692	-0.645502	0.43371	-9.38	-4.41	-10.99	0.2016	0.2381	-0.3449	
-0.649894	-0.661728	0.430538	-7.84	-3.5	-10.29	0.1981	0.2483	-0.3297	
-0.645502	-0.667828	0.431026	-5.32	-3.29	-9.66	0.2	0.2527	-0.3384	
-0.641232	-0.673074	0.435052	-3.85	-3.57	-8.19	0.1987	0.2445	-0.3445	
-0.635376	-0.673562	0.440786	-1.33	-2.17	-6.09	0.2073	0.2448	-0.339	
-0.637328	-0.66246	0.437126	0.98	-0.84	-4.83	0.1927	0.2383	-0.3401	
-0.6344	-0.670024	0.435296	2.52	-1.26	-3.08	0.1987	0.2413	-0.3447	
-0.639646	-0.694424	0.43981	3.64	-0.63	-0.77	0.1926	0.2479	-0.3368	
-0.635132	-0.69723	0.45079	5.32	1.61	1.61	0.1882	0.2351	-0.3401	
-0.62952	-0.66734	0.455182	6.51	3.08	4.69	0.2015	0.2367	-0.3421	
-0.625494	-0.659288	0.442982	6.79	3.64	7.49	0.1989	0.2363	-0.3493	
-0.632326	-0.648674	0.438224	6.37	5.53	9.59	0.2003	0.2444	-0.346	
-0.635986	-0.655994	0.4453	5.11	6.23	11.76	0.2056	0.2386	-0.3348	
-0.62525	-0.664046	0.446764	4.48	7.28	14.77	0.2102	0.24	-0.3394	
-0.632936	-0.663192	0.44347	5.32	8.47	17.71	0.2173	0.2227	-0.339	
-0.63562	-0.648186	0.441274	6.58	9.52	20.23	0.2207	0.2398	-0.3457	
-0.642574	-0.654774	0.442616	7.84	9.59	22.12	0.219	0.2369	-0.3399	
-0.648552	-0.659044	0.438346	10.57	10.78	23.94	0.216	0.2401	-0.3396	
-0.659166	-0.654164	0.44103	12.6	12.46	25.9	0.2204	0.2225	-0.3435	
-0.671732	-0.658434	0.43493	14.84	13.58	28.7	0.2303	0.2246	-0.3336	
-0.686128	-0.648186	0.431392	18.27	15.26	32.06	0.2383	0.2208	-0.3501	
-0.693936	-0.63196	0.429684	20.09	16.45	35.56	0.237	0.2125	-0.3563	
-0.697962	-0.62098	0.419924	22.12	18.27	39.34	0.2413	0.2111	-0.3551	
-0.70272	-0.590602	0.410042	24.43	19.53	42.77	0.2496	0.2117	-0.3437	
-0.720776	-0.589992	0.409188	26.04	20.09	46.2	0.2482	0.186	-0.3491	
-0.73505	-0.574498	0.419314	27.86	20.79	51.1	0.2554	0.1782	-0.3483	
-0.7442	-0.559126	0.419314	29.96	20.79	55.65	0.2613	0.1878	-0.3482	
-0.742858	-0.529724	0.395402	31.99	22.61	59.64	0.2599	0.1765	-0.3515	
-0.756766	-0.494954	0.394914	31.5	25.55	62.16	0.2817	0.1785	-0.348	
-0.76189	-0.47702	0.396256	30.24	26.67	65.52	0.2817	0.1593	-0.3517	
-0.76799	-0.439078	0.38125	31.08	27.16	68.81	0.2857	0.1469	-0.3451	
-0.785436	-0.417728	0.369904	31.15	27.79	72.24	0.2967	0.1381	-0.3664	
-0.802272	-0.390766	0.363438	31.99	28.35	75.11	0.3033	0.1358	-0.3493	
-0.831308	-0.35807	0.377956	32.27	27.86	77.91	0.3121	0.1231	-0.3517	
-0.833138	-0.326594	0.364048	32.06	28.7	80.57	0.3131	0.1044	-0.3452	
-0.847168	-0.27877	0.364902	28.56	30.52	80.43	0.3293	0.1076	-0.3472	
-0.868518	-0.23729	0.353068	25.41	31.29	80.85	0.335	0.0822	-0.3486	
-0.89426	-0.17629	0.33184	22.75	31.36	81.9	0.3409	0.0773	-0.3519	
-0.888282	-0.121634	0.307318	18.55	31.01	83.72	0.3477	0.0604	-0.3428	
-0.893406	-0.076616	0.309758	15.54	30.24	85.82	0.3577	0.0495	-0.3393	
-0.901702	-0.045872	0.304756	12.95	27.86	88.27	0.3557	0.0437	-0.3278	
-0.915976	-0.036234	0.288164	8.33	25.34	90.93	0.3562	0.032	-0.3414	
-0.921344	-0.00427	0.284504	8.19	23.31	93.52	0.3661	0.0228	-0.3364	
-0.912194	0.034282	0.274744	7.07	20.02	95.41	0.3689	0.0038	-0.3373	
-0.907314	0.061122	0.271206	7.98	18.13	96.95	0.3759	-0.0069	-0.3323	
-0.91317	0.113948	0.252662	9.38	15.19	96.04	0.3712	-0.0227	-0.3284	
-0.934276	0.163846	0.25193	7.42	14.77	94.78	0.3708	-0.035	-0.3201	
-0.940498	0.218136	0.25925	5.11	12.18	94.15	0.3752	-0.0446	-0.3236	
-0.922808	0.260836	0.263642	2.66	7.49	95.76	0.3762	-0.0504	-0.3123	
-0.905362	0.28243	0.263398	0.35	5.53	98.63	0.3735	-0.0651	-0.3201	
-0.893894	0.2867	0.25986	4.06	1.54	99.4	0.3705	-0.08419999	-0.3222	
-0.886818	0.310246	0.258518	9.1	-1.54	97.86	0.3792	-0.0905	-0.3229	
-0.868884	0.341478	0.279258	9.52	-4.27	94.78	0.3627	-0.103	-0.3154	
-0.86925	0.38552	0.281942	10.78	-4.48	91.35	0.3673	-0.1079	-0.3202	
-0.867542	0.424804	0.27023	6.44	-7.07	89.04	0.3582	-0.1253	-0.3162	
-0.863028	0.438224	0.261812	10.43	-8.61	89.25	0.3627	-0.1334	-0.3211	
-0.863272	0.439322	0.25803	15.61	-11.69	90.72	0.36	-0.1656	-0.3326	
-0.85339	0.479582	0.288408	14.98	-12.18	90.23	0.3363	-0.1655	-0.3243	
-0.843264	0.519598	0.290482	13.16	-16.94	84.63	0.3304	-0.1767	-0.326	
-0.820694	0.550708	0.284016	14.98	-20.16	79.52	0.3306	-0.1978	-0.3356	
-0.784948	0.561078	0.286456	16.66	-20.16	76.51	0.3183	-0.2068	-0.3238	
-0.768844	0.58804	0.303536	14.84	-16.8	72.59	0.304	-0.2201	-0.3325	
-0.751398	0.614758	0.314394	11.76	-15.61	67.97	0.3021	-0.2196	-0.3222	
-0.733586	0.642452	0.327204	8.96	-13.93	65.38	0.298	-0.228	-0.3312	
-0.725046	0.665632	0.315858	5.04	-15.12	63.21	0.298	-0.2327	-0.3314	
-0.698572	0.659166	0.318542	6.37	-12.74	61.46	0.2953	-0.2266	-0.3354	
-0.69662	0.651358	0.316956	4.83	-13.09	60.34	0.2762	-0.2491	-0.337	
-0.682346	0.650748	0.320372	5.53	-12.25	58.24	0.2802	-0.2599	-0.3318	
-0.668194	0.672464	0.334402	6.65	-12.39	55.79	0.2687	-0.2537	-0.3339	
-0.671976	0.71187	0.33611	4.34	-12.6	51.17	0.2647	-0.2687	-0.3475	
-0.665998	0.727852	0.322446	5.46	-12.53	46.41	0.2553	-0.26	-0.3292	
-0.645258	0.73871	0.318664	6.37	-12.67	42.49	0.2594	-0.2741	-0.3271	
-0.656238	0.73383	0.327448	6.44	-12.88	38.5	0.2479	-0.2727	-0.3295	
-0.639036	0.73017	0.332694	5.04	-15.05	37.17	0.244	-0.2813	-0.3428	
-0.611708	0.743468	0.351238	6.44	-14.21	35.14	0.2403	-0.2854	-0.3268	
-0.594506	0.768844	0.345382	7.42	-13.23	31.57	0.2433	-0.2903	-0.33	
-0.603656	0.768844	0.345382	6.16	-10.36	28.14	0.2233	-0.2941	-0.3396	
-0.587552	0.761768	0.34709	8.33	-10.22	24.22	0.223	-0.2921	-0.3322	
-0.574498	0.77226	0.33977	9.17	-10.57	20.51	0.2275	-0.2955	-0.3369	
-0.580354	0.787144	0.33977	10.36	-10.5	16.24	0.2277	-0.3021	-0.343	
-0.569496	0.801052	0.348432	10.36	-8.54	11.83	0.2129	-0.3036	-0.3381	
-0.559248	0.81008	0.341722	10.71	-8.68	7.49	0.2142	-0.3034	-0.3352	
-0.55205	0.809226	0.329522	9.1	-8.68	5.11	0.2157	-0.297	-0.3335	
-0.550342	0.817644	0.331718	6.93	-7.28	4.55	0.214	-0.308	-0.331	
-0.544364	0.822402	0.337818	5.95	-5.53	3.22	0.1992	-0.3192	-0.3294	
-0.555344	0.823866	0.33306	3.15	-4.27	2.31	0.2109	-0.3079	-0.328	
-0.556198	0.815692	0.313296	0.77	-5.88	2.17	0.2023	-0.3177	-0.3324	
-0.543266	0.812154	0.331962	-0.14	-5.46	2.31	0.2041	-0.318	-0.3398	
-0.52704	0.801174	0.342942	-1.19	-4.9	1.33	0.1979	-0.3161	-0.3321	
-0.524112	0.793	0.334646	-1.19	-3.57	0	0.2109	-0.3094	-0.3266	
-0.53314	0.80215	0.33611	-0.84	-2.31	-1.47	0.2054	-0.3034	-0.3334	
-0.53924	0.819474	0.340746	-1.47	-1.89	-3.57	0.2111	-0.3096	-0.331	
-0.533262	0.82899	0.348676	-3.36	-0.77	-5.18	0.2085	-0.3149	-0.3413	
-0.525698	0.838018	0.353434	-5.46	0.42	-7.07	0.2009	-0.3162	-0.3337	
-0.533506	0.834724	0.345748	-6.65	0.91	-9.45	0.2098	-0.305	-0.3336	
-0.545218	0.832162	0.345992	-7.63	2.03	-12.04	0.211	-0.3032	-0.3292	
-0.548634	0.840214	0.350994	-8.33	2.94	-15.19	0.2035	-0.3046	-0.3246	
-0.55205	0.84119	0.35746	-9.87	3.36	-18.9	0.2114	-0.3035	-0.3365	
-0.555954	0.829844	0.360632	-11.27	3.92	-23.03	0.204	-0.3003	-0.3346	
-0.5612	0.82106	0.369172	-13.58	4.2	-26.67	0.2131	-0.3038	-0.3425	
-0.561322	0.818376	0.372466	-14.84	4.55	-31.5	0.2145	-0.2829	-0.3372	
-0.565836	0.81374	0.373198	-17.78	5.46	-36.19	0.2132	-0.2943	-0.3435	
-0.571082	0.79727	0.36905	-18.83	6.3	-39.97	0.2315	-0.2838	-0.3249	
-0.565958	0.775798	0.373198	-20.23	8.19	-43.75	0.2353	-0.2656	-0.3432	
-0.587308	0.769576	0.37271	-21	10.57	-48.37	0.2325	-0.2705	-0.3462	
-0.58987	0.75884	0.365024	-23.17	10.57	-52.85	0.2426	-0.2702	-0.3423	
-0.610366	0.740784	0.366976	-24.5	11.34	-55.44	0.2412	-0.2607	-0.3418	
-0.626714	0.736392	0.380762	-24.99	12.32	-58.59	0.247	-0.2495	-0.3401	
-0.627934	0.716018	0.374418	-27.51	12.46	-62.44	0.2621	-0.2467	-0.3509	
-0.632936	0.671488	0.36844	-28.07	12.32	-65.31	0.259	-0.2368	-0.343	
-0.659654	0.648064	0.367586	-26.67	12.88	-66.92	0.2606	-0.229	-0.3457	
-0.679906	0.618418	0.367586	-25.83	13.09	-70.63	0.2753	-0.2209	-0.3459	
-0.715896	0.596092	0.370148	-24.71	15.33	-74.76	0.2888	-0.2116	-0.3519	
-0.701134	0.561566	0.361364	-24.43	13.3	-77.63	0.2958	-0.2	-0.343	
-0.724558	0.523746	0.34587	-23.03	14.91	-78.82	0.2993	-0.191	-0.3544	
-0.76616	0.483242	0.334646	-20.16	16.52	-79.94	0.3038	-0.175	-0.3525	
-0.830454	0.46055	0.33489	-13.93	20.16	-82.53	0.3187	-0.1721	-0.3603	
-0.829356	0.445666	0.34404	-13.37	17.22	-84.98	0.314	-0.1573	-0.3492	
-0.845094	0.394914	0.33306	-14.49	14.98	-85.12	0.3298	-0.1424	-0.339	
-0.856928	0.322446	0.327814	-10.5	12.88	-84.84	0.327	-0.1362	-0.3416	
-0.876448	0.265594	0.309758	-6.44	9.8	-86.52	0.3334	-0.116	-0.3497	
-0.89609	0.25925	0.30866	-3.01	8.96	-89.74	0.3348	-0.1159	-0.3498	
-0.881694	0.2318	0.303902	-5.11	5.81	-91.14	0.3377	-0.0919	-0.3445	
-0.867054	0.193004	0.301584	-4.69	4.83	-91.21	0.3434	-0.08199999	-0.3385	
-0.888526	0.157868	0.301096	-4.06	6.3	-90.79	0.3511	-0.0856	-0.3492	
-0.915244	0.113704	0.308416	-7.77	5.74	-90.58	0.3489	-0.0608	-0.3261	
-0.908534	0.096136	0.32086	-5.25	0.98	-89.81	0.3495	-0.0503	-0.3388	
-0.896456	0.053558	0.324886	-4.41	-3.43	-88.34	0.3528	-0.0442	-0.3446	
-0.912438	0.025986	0.345016	-0.49	-4.83	-86.87	0.3571	-0.0393	-0.3416	
-0.915976	0.000488	0.34038	0.35	-5.88	-86.03	0.3558	-0.0187	-0.3421	
-0.93086	-0.028426	0.356728	-2.38	-5.6	-86.87	0.3513	-0.0218	-0.3406	
-0.93757	-0.05673	0.353678	0.21	-9.24	-88.69	0.3558	-0.0043	-0.34	
-0.930982	-0.06734399	0.358558	-1.68	-12.95	-92.26	0.3442	-0.0045	-0.3425	
-0.916708	-0.078202	0.348798	-4.62	-17.01	-95.06	0.3503	0.0143	-0.3448	
-0.910364	-0.106628	0.361242	-9.52	-22.89	-93.94	0.3334	0.0296	-0.3551	
-0.902556	-0.140666	0.38064	-15.05	-27.16	-90.51	0.3389	0.0299	-0.3481	
-0.873764	-0.166896	0.381372	-18.55	-25.62	-86.24	0.3287	0.0587	-0.342	
-0.851316	-0.202276	0.402234	-20.3	-24.43	-80.92	0.3323	0.0659	-0.3564	
-0.855586	-0.230092	0.413214	-23.03	-23.31	-76.65	0.3192	0.0706	-0.3571	
-0.852902	-0.252174	0.41175	-25.62	-23.03	-74.34	0.3178	0.088	-0.3563	
-0.840214	-0.270474	0.413092	-27.02	-22.26	-70.91	0.3102	0.0851	-0.3503	
-0.845094	-0.31293	0.422852	-28.14	-22.4	-67.55	0.296	0.0941	-0.3581	
-0.859246	-0.346114	0.432612	-27.58	-23.59	-63.84	0.3062	0.1038	-0.3552	
-0.833748	-0.354898	0.437858	-26.6	-25.34	-61.67	0.3005	0.1164	-0.3558	
-0.814716	-0.368318	0.427976	-25.27	-25.13	-61.25	0.2934	0.1273	-0.3594	
-0.794586	-0.389668	0.42639	-24.78	-24.99	-59.43	0.2805	0.1318	-0.3631	
-0.788608	-0.399672	0.417484	-23.66	-24.08	-56.7	0.2867	0.141	-0.3702	
-0.778238	-0.40687	0.4209	-24.08	-23.38	-53.69	0.2747	0.1572	-0.3603	
-0.76799	-0.433588	0.453596	-24.01	-23.38	-50.26	0.2632	0.1633	-0.3624	
-0.765672	-0.4697	0.454328	-21.77	-23.52	-46.2	0.2571	0.1635	-0.3578	
-0.74359	-0.475678	0.44164	-20.3	-21.35	-43.33	0.2514	0.1697	-0.3587	
-0.739198	-0.469944	0.452864	-20.23	-20.16	-41.23	0.2499	0.1809	-0.3567	
-0.724192	-0.47214	0.444202	-21	-18.34	-39.27	0.2427	0.1792	-0.3594	
-0.723582	-0.492392	0.44957	-22.33	-16.87	-36.61	0.2354	0.1902	-0.3586	
-0.734562	-0.551562	0.473116	-22.19	-16.45	-33.74	0.2368	0.1951	-0.3556	
-0.74298	-0.58316	0.467016	-21.07	-15.54	-29.61	0.2251	0.1966	-0.355	
-0.71126	-0.58804	0.467138	-20.16	-14.91	-26.67	0.231	0.1998	-0.3566	
-0.695034	-0.590236	0.46421	-19.11	-14.84	-23.8	0.2208	0.2029	-0.356	
-0.679418	-0.60695	0.465186	-18.2	-14.21	-20.09	0.2122	0.2139	-0.3566	
-0.669048	-0.610976	0.462868	-17.43	-13.02	-17.57	0.2165	0.2204	-0.3536	
-0.652456	-0.605974	0.468236	-16.45	-10.22	-16.59	0.2046	0.2237	-0.3486	
-0.644038	-0.613538	0.468724	-14.91	-9.52	-14.98	0.2105	0.2173	-0.3506	
-0.65209	-0.619394	0.479704	-14.28	-8.75	-13.86	0.2034	0.2218	-0.3559	
-0.651358	-0.614758	0.466284	-13.02	-7.77	-12.53	0.1973	0.2221	-0.3483	
-0.635254	-0.60451	0.461526	-13.51	-7.7	-11.34	0.2077	0.2284	-0.3514	
-0.624518	-0.609268	0.454816	-13.16	-8.05	-10.85	0.2018	0.2331	-0.3495	
-0.624884	-0.618418	0.457744	-14.07	-7.14	-10.01	0.1939	0.2305	-0.3376	
-0.619638	-0.621468	0.457988	-13.16	-6.3	-9.31	0.2002	0.2317	-0.3466	
-0.621956	-0.628544	0.45506	-11.34	-5.6	-9.66	0.2049	0.2362	-0.3524	
-0.625372	-0.633058	0.457012	-9.87	-5.39	-10.22	0.2004	0.2395	-0.3492	
-0.630984	-0.651236	0.457256	-8.54	-4.62	-9.31	0.1898	0.2382	-0.3415	
-0.632936	-0.649406	0.45384	-6.16	-4.13	-7.63	0.187	0.2364	-0.3458	
-0.634644	-0.671854	0.468846	-4.76	-3.78	-6.37	0.2029	0.2431	-0.3404	
-0.632448	-0.678198	0.467382	-2.24	-2.52	-3.71	0.1798	0.2426	-0.3467	
-0.623786	-0.672098	0.470188	0.42	-0.7	-0.28	0.1873	0.2456	-0.3513	
-0.62159	-0.662094	0.475434	2.38	0.63	2.24	0.1926	0.2383	-0.3387	
-0.62098	-0.661484	0.473238	2.59	0.91	3.57	0.1926	0.2383	-0.3387	
-0.615124	-0.660264	0.468236	4.48	2.94	6.23	0.1837	0.2448	-0.3351	
-0.619516	-0.671488	0.46909	6.16	3.85	8.19	0.196	0.2379	-0.3491	
-0.6222	-0.664778	0.473848	9.8	6.09	11.13	0.1915	0.2347	-0.3475	
-0.620248	-0.657946	0.47397	10.5	6.93	12.04	0.1915	0.2347	-0.3475	
-0.625128	-0.654164	0.47763	12.46	7.77	14.56	0.1956	0.2286	-0.3436	
-0.62708	-0.661118	0.481412	13.09	7.35	17.22	0.1987	0.2349	-0.3449	
-0.631594	-0.656604	0.472994	15.61	8.96	19.46	0.2014	0.24	-0.339	
-0.636718	-0.666974	0.481656	14.14	11.2	21.42	0.2033	0.2315	-0.3511	
-0.632692	-0.673318	0.480924	16.52	12.46	24.36	0.2046	0.222	-0.3501	
-0.64538	-0.665876	0.472994	20.37	14.49	26.74	0.2163	0.2174	-0.3494	
-0.667828	-0.653554	0.458598	24.99	15.96	30.59	0.2105	0.2173	-0.3506	
-0.683322	-0.648064	0.464454	29.82	16.52	35.28	0.218	0.2219	-0.3551	
-0.670268	-0.588894	0.461404	35.84	17.5	39.34	0.2168	0.2057	-0.363	
-0.675758	-0.603778	0.468602	34.86	19.67	42.84	0.2234	0.1905	-0.3508	
-0.67161	-0.559736	0.447374	39.76	21.77	47.67	0.2396	0.1954	-0.3513	
-0.696498	-0.533872	0.449326	39.2	24.57	52.5	0.2337	0.1761	-0.3548	
-0.712236	-0.511058	0.431758	39.41	27.58	58.03	0.2514	0.1697	-0.3602	
-0.721874	-0.49166	0.427	39.34	30.03	62.16	0.2646	0.1714	-0.3607	
-0.738222	-0.452742	0.4026	40.18	31.5	64.75	0.263	0.1571	-0.3598	
-0.753106	-0.414068	0.405284	38.57	34.23	66.08	0.2659	0.1395	-0.3636	
-0.776286	-0.373686	0.409554	35.42	35	67.9	0.276	0.1334	-0.3614	
-0.794952	-0.348188	0.407236	30.24	33.04	70.63	0.2837	0.1234	-0.3723	
-0.808738	-0.338794	0.415166	28.91	29.68	74.13	0.299	0.1069	-0.3562	
-0.823256	-0.31598	0.427	29.54	27.72	77.84	0.3022	0.08899999	-0.3658	
-0.841312	-0.29646	0.427488	26.53	25.83	80.43	0.3082	0.092	-0.3703	
-0.851194	-0.266936	0.40321	26.11	28.07	83.79	0.3123	0.07319999	-0.367	
-0.872666	-0.20923	0.389058	21.28	29.47	87.22	0.3206	0.069	-0.3573	
-0.88328	-0.14823	0.400282	18.2	27.23	89.04	0.328	0.061	-0.3594	
-0.891454	-0.109068	0.388692	16.59	25.55	91.49	0.3322	0.0388	-0.3605	
-0.893528	-0.07381	0.366366	14.77	25.34	95.13	0.326	0.0295	-0.3548	
-0.881938	-0.02013	0.343308	10.22	22.89	99.54	0.3461	0.0157	-0.349	
-0.881084	0.024522	0.339526	8.96	21	102.27	0.3446	0.0093	-0.3492	
-0.869006	0.046116	0.345138	7.91	17.99	103.46	0.3457	-0.0045	-0.3425	
-0.873032	0.06771	0.350628	10.92	15.96	104.72	0.3541	-0.0137	-0.336	
-0.856928	0.125294	0.325618	14.28	13.51	106.05	0.3559	-0.03	-0.347	
-0.878278	0.177266	0.320616	9.17	11.27	106.89	0.3571	-0.0393	-0.3431	
-0.88389	0.211426	0.32696	9.94	9.94	107.03	0.3438	-0.0521	-0.3416	
-0.86315	0.241316	0.313418	7.91	4.13	106.61	0.355	-0.0659	-0.3339	
-0.85827	0.263032	0.3172	9.59	2.24	107.59	0.3502	-0.075	-0.3253	
-0.852414	0.312686	0.332938	13.23	1.26	107.87	0.3534	-0.0977	-0.3367	
-0.859368	0.360144	0.34099	12.6	0.35	104.44	0.3431	-0.1201	-0.3387	
-0.86803	0.40931	0.323422	14.07	-0.7	100.17	0.339	-0.1252	-0.346	
-0.85522	0.443958	0.315126	19.95	-3.57	95.97	0.3428	-0.1358	-0.3349	
-0.848388	0.462746	0.297802	24.71	-7.7	91.98	0.3384	-0.1566	-0.3386	
-0.84546	0.481656	0.30073	26.32	-9.94	86.1	0.3223	-0.1727	-0.3415	
-0.818254	0.494222	0.2989	23.73	-12.81	79.94	0.3191	-0.1741	-0.3356	
-0.798368	0.536068	0.29646	24.08	-11.34	75.67	0.3117	-0.182	-0.3341	
-0.794464	0.578524	0.321714	19.67	-8.75	72.52	0.3075	-0.2015	-0.3436	
-0.763598	0.574986	0.31354	15.82	-14	70.21	0.3032	-0.2065	-0.3465	
-0.737246	0.594384	0.318908	13.72	-11.76	68.32	0.2925	-0.2203	-0.3364	
-0.732854	0.615978	0.321226	14.7	-9.52	64.96	0.2934	-0.2214	-0.3248	
-0.712846	0.626958	0.318298	13.44	-9.8	62.72	0.2807	-0.2332	-0.3379	
-0.707722	0.622566	0.321958	13.72	-11.41	61.81	0.2732	-0.2395	-0.335	
-0.707234	0.62403	0.33001	12.81	-10.29	61.11	0.2734	-0.2461	-0.3411	
-0.708332	0.651724	0.330986	12.11	-10.5	58.24	0.276	-0.2457	-0.3324	
-0.69296	0.691496	0.33062	10.08	-11.48	55.23	0.2687	-0.2714	-0.3376	
-0.69479	0.717848	0.329644	8.54	-13.02	51.87	0.2614	-0.257	-0.3352	
-0.697718	0.728706	0.329034	8.82	-12.18	49.35	0.2555	-0.265	-0.3353	
-0.66612	0.739076	0.32879	7.98	-14.63	45.71	0.2438	-0.2812	-0.3399	
-0.644892	0.748592	0.328424	7.91	-16.8	42.14	0.232	-0.27	-0.3345	
-0.636962	0.76311	0.347578	6.65	-15.4	38.99	0.225	-0.2863	-0.3437	
-0.605364	0.763842	0.351238	4.48	-17.29	34.58	0.2265	-0.2815	-0.3435	
-0.58804	0.766404	0.351482	3.22	-18.69	31.22	0.2219	-0.2878	-0.3407	
-0.581208	0.77958	0.361852	2.17	-19.88	29.89	0.2187	-0.2844	-0.3346	
-0.56547	0.786778	0.370392	4.83	-22.12	26.81	0.2068	-0.2842	-0.3297	
-0.549366	0.782874	0.371124	4.27	-22.47	23.24	0.2118	-0.3008	-0.3467	
-0.536434	0.787388	0.381738	3.71	-18.06	19.04	0.2072	-0.3038	-0.3422	
-0.51972	0.808982	0.385398	4.13	-11.97	16.1	0.1966	-0.2939	-0.3311	
-0.523258	0.815082	0.381006	1.82	-11.34	14.77	0.1999	-0.2975	-0.3402	
-0.527406	0.81557	0.363194	0.91	-11.48	14.21	0.1938	-0.3117	-0.3376	
-0.521916	0.82411	0.389302	0.07	-9.52	12.18	0.1927	-0.3105	-0.3463	
-0.499346	0.815082	0.398452	-0.21	-8.47	8.33	0.1851	-0.3087	-0.34	
-0.48434	0.812276	0.377834	0.35	-10.08	5.6	0.1856	-0.298	-0.3483	
-0.490928	0.812032	0.389912	0.42	-7.21	2.87	0.1822	-0.2991	-0.338	
-0.486292	0.80886	0.40321	0.28	-5.95	0.7	0.1825	-0.3059	-0.3471	
-0.478606	0.825574	0.411018	-1.19	-4.83	-0.84	0.1879	-0.3021	-0.3355	
-0.489952	0.839116	0.406382	-3.43	-4.06	-1.96	0.1885	-0.3011	-0.3486	
-0.498858	0.839604	0.40992	-4.48	-2.03	-3.15	0.1823	-0.3088	-0.3428	
-0.496296	0.829478	0.417362	-6.23	-0.7	-5.53	0.1809	-0.3025	-0.3425	
-0.48739	0.836066	0.4148	-8.4	0	-8.61	0.1829	-0.3015	-0.3557	
-0.498248	0.838506	0.413946	-10.99	1.75	-11.83	0.1752	-0.3027	-0.3452	
-0.50508	0.848876	0.421754	-13.86	3.71	-15.26	0.1752	-0.2867	-0.343	
-0.503128	0.839604	0.427732	-15.96	5.88	-19.32	0.19	-0.2916	-0.3482	
-0.512766	0.81618	0.425292	-18.69	7.42	-24.01	0.1954	-0.3007	-0.3401	
-0.531432	0.815326	0.429684	-20.23	9.31	-27.86	0.1978	-0.292	-0.3588	
-0.530456	0.803004	0.429196	-21.84	10.5	-32.06	0.2006	-0.2791	-0.354	
-0.54473	0.78629	0.434442	-25.55	12.18	-35.42	0.1859	-0.2807	-0.352	
-0.554856	0.77043	0.422852	-27.79	13.44	-39.13	0.2093	-0.2693	-0.3496	
-0.557662	0.753106	0.42639	-27.93	14.7	-42.77	0.2229	-0.2617	-0.36	
-0.569862	0.737124	0.430904	-30.31	15.82	-46.69	0.2053	-0.2585	-0.3562	
-0.580964	0.715408	0.433832	-31.64	16.52	-50.61	0.2191	-0.2464	-0.3709	
-0.603046	0.692594	0.419924	-32.13	16.52	-52.99	0.2275	-0.2443	-0.3609	
-0.644526	0.664778	0.431392	-31.78	16.66	-54.39	0.2321	-0.2413	-0.3654	
-0.665266	0.649162	0.434076	-33.81	14.77	-55.23	0.2232	-0.2252	-0.3585	
-0.666242	0.634034	0.433588	-38.36	11.48	-56.14	0.2426	-0.2319	-0.3698	
-0.66002	0.602192	0.422486	-41.16	11.13	-55.79	0.2439	-0.2077	-0.3615	
-0.648674	0.574132	0.431758	-39.9	13.93	-54.74	0.2509	-0.2089	-0.3546	
-0.7015	0.532652	0.42761	-38.5	18.97	-54.11	0.2646	-0.1854	-0.3629	
-0.7198	0.473116	0.44042	-33.67	22.75	-52.64	0.271	-0.1714	-0.3713	
-0.704916	0.471896	0.432612	-31.92	20.37	-52.43	0.2706	-0.1775	-0.3643	
-0.709186	0.441152	0.41663	-30.94	21.35	-51.94	0.2769	-0.1651	-0.3728	
-0.752008	0.405772	0.416874	-25.27	23.73	-52.01	0.2741	-0.1348	-0.3684	
-0.784216	0.399062	0.44225	-23.1	24.43	-54.04	0.2919	-0.1477	-0.3771	
-0.787144	0.378566	0.438224	-21	21.98	-56.07	0.3063	-0.117	-0.3676	
-0.80703	0.352946	0.442738	-16.24	21.63	-58.03	0.3047	-0.128	-0.3651	
-0.816302	0.335988	0.443226	-12.11	20.02	-61.6	0.3169	-0.1221	-0.3756	
-0.822402	0.311344	0.435906	-9.87	19.39	-65.03	0.3059	-0.1086	-0.3555	
-0.843752	0.291824	0.417484	-6.86	20.58	-67.34	0.3308	-0.0988	-0.3547	
-0.848998	0.257786	0.40626	-7.21	19.81	-67.34	0.3271	-0.0851	-0.3671	
-0.861198	0.227408	0.40443	-9.52	21.7	-65.73	0.3266	-0.0846	-0.3554	
-0.870836	0.215696	0.375272	-7.28	21	-61.95	0.3423	-0.0792	-0.3456	
-0.894016	0.206058	0.369538	-6.72	20.86	-59.15	0.3353	-0.0717	-0.3523	
-0.902922	0.196298	0.367586	-7.84	18.62	-57.61	0.3367	-0.0715	-0.3494	
-0.892796	0.173362	0.368196	-10.85	15.54	-55.16	0.3414	-0.059	-0.3549	
-0.889136	0.162382	0.36966	-14.7	13.58	-51.8	0.337	-0.0383	-0.3509	
-0.906948	0.159942	0.363682	-16.87	12.39	-47.25	0.3388	-0.0403	-0.3598	
-0.881206	0.145424	0.343552	-24.08	7.28	-39.55	0.3542	-0.0314	-0.3426	
-0.917684	0.13237	0.35258	-31.78	11.69	-35.91	0.3442	-0.0237	-0.3462	
-0.928542	0.128466	0.350384	-39.9	10.43	-31.43	0.3413	-0.0126	-0.3442	
-0.926468	0.109922	0.346114	-47.25	11.69	-25.9	0.3532	-0.0095	-0.3489	
-0.935252	0.090158	0.334768	-52.5	10.99	-20.86	0.3558	-0.0042	-0.3386	
-0.940132	0.098088	0.337574	-58.66	11.9	-17.78	0.3618	0.0035	-0.3414	
-0.937204	0.07625	0.322568	-66.01	10.92	-13.44	0.3602	0.0164	-0.3364	
-0.947208	0.054168	0.318908	-66.29	13.86	-6.79	0.3602	0.026	-0.3346	
-0.95953	0.020984	0.332816	-64.89	13.44	-1.19	0.3632	0.042	-0.3325	
-0.954162	-0.000366	0.306586	-65.59	10.92	2.38	0.3603	0.0483	-0.3321	
-0.955016	0	0.293288	-62.86	9.31	3.92	0.3704	0.0486	-0.3282	
-0.976122	-0.014274	0.30927	-62.51	7.21	4.69	0.3632	0.0659	-0.3286	
-0.993568	0	0.276696	-58.17	5.25	7	0.3584	0.068	-0.3181	
-0.994422	-0.02196	0.283284	-66.01	1.96	10.92	0.3629	0.0775	-0.3193	
-1.005768	-0.027084	0.289506	-64.96	2.73	12.18	0.3688	0.0743	-0.3197	
-0.998936	-0.062464	0.309758	-70.35	2.59	15.4	0.3659	0.08859999	-0.319	
-0.972218	-0.081374	0.301706	-66.64	2.52	16.66	0.361	0.1004	-0.3037	
-0.958188	-0.072712	0.301828	-64.26	3.22	16.73	0.3556	0.0998	-0.3151	
-0.97722	-0.076738	0.319884	-63.21	5.67	16.45	0.3685	0.1035	-0.3068	
-0.975756	-0.05978	0.313052	-60.62	4.55	18.48	0.3715	0.1162	-0.3063	
-0.97966	-0.059658	0.312198	-62.58	5.46	22.4	0.3772	0.1164	-0.3037	
-0.985882	-0.061732	0.304756	-61.46	5.18	27.09	0.3814	0.115	-0.2995	
-1.006256	-0.074054	0.303414	-56.63	5.46	30.03	0.3815	0.1149	-0.3024	
-1.012112	-0.065636	0.2928	-52.71	4.27	31.29	0.3813	0.1216	-0.2949	
-1.007476	-0.070028	0.294508	-49.35	1.61	34.16	0.3842	0.1296	-0.2946	
-0.981734	-0.066124	0.303414	-45.92	-0.84	35.84	0.3751	0.1315	-0.2854	
-0.963556	-0.077104	0.300364	-44.94	-2.24	35.07	0.3883	0.1203	-0.2894	
-0.9638	-0.07015	0.312076	-40.53	-1.47	32.97	0.3823	0.1317	-0.2828	
-0.972706	-0.06344	0.317322	-35	-1.54	32.13	0.3924	0.1239	-0.2821	
-0.97356	-0.044042	0.316956	-31.78	-2.73	31.5	0.3954	0.127	-0.2836	
-0.968802	-0.035624	0.321104	-26.81	-3.99	30.17	0.3733	0.1206	-0.28	
-0.96807	-0.021228	0.322568	-21.7	-5.53	29.68	0.3854	0.1332	-0.2858	
-0.96807	0.016226	0.335012	-18.62	-7.21	29.33	0.3937	0.1369	-0.2743	
-0.972462	0.020984	0.340014	-15.89	-7.56	29.75	0.3895	0.1271	-0.2804	
-0.962458	0.048678	0.330498	-14.42	-8.19	30.17	0.3929	0.1298	-0.2921	
-0.954406	0.079666	0.342698	-15.33	-10.15	30.52	0.4009	0.1114	-0.2786	
-0.937814	0.081252	0.34953	-17.22	-10.43	30.52	0.3906	0.1226	-0.2748	
-0.91012	0.100284	0.359534	-18.62	-9.1	30.1	0.394	0.1158	-0.2854	
-0.909754	0.124074	0.369172	-18.97	-7.35	29.75	0.3981	0.1113	-0.2814	
-0.937326	0.108458	0.372344	-18.13	-6.51	28.98	0.395	0.1146	-0.2768	
-0.920856	0.118706	0.372466	-17.36	-7.07	26.95	0.3999	0.1078	-0.2889	
-0.932324	0.13054	0.378566	-14.98	-7.7	25.06	0.3995	0.1067	-0.2788	
-0.928908	0.143472	0.385886	-14.35	-9.31	23.52	0.3967	0.1113	-0.2814	
-0.908534	0.154452	0.391376	-12.74	-10.36	20.65	0.3971	0.106	-0.2918	
-0.885476	0.146278	0.40138	-10.36	-10.92	17.5	0.3934	0.1132	-0.2724	
-0.885232	0.15067	0.41419	-7.35	-9.38	14.56	0.3907	0.1002	-0.2801	
-0.89365	0.146644	0.415898	-5.53	-9.17	11.48	0.3952	0.1065	-0.2815	
-0.892674	0.143838	0.424804	-1.47	-9.24	8.26	0.397	0.0949	-0.2923	
-0.881206	0.150792	0.426634	2.24	-9.24	4.69	0.3954	0.0999	-0.2876	
-0.878888	0.150426	0.428586	4.97	-7.98	1.19	0.3983	0.1031	-0.2862	
-0.877668	0.145668	0.427122	7.28	-6.51	-1.68	0.3968	0.0919	-0.288	
-0.882792	0.162992	0.43249	10.43	-5.04	-4.13	0.382	0.0872	-0.2847	
-0.896456	0.152378	0.441274	14	-4.76	-5.81	0.3911	0.0981	-0.2904	
-0.88877	0.146766	0.430294	16.03	-4.62	-8.12	0.3927	0.0867	-0.2968	
-0.87169	0.143594	0.417362	17.36	-3.22	-11.13	0.394	0.09649999	-0.2906	
-0.887306	0.137006	0.409676	18.76	-1.33	-13.86	0.3858	0.0894	-0.3052	
-0.891332	0.11468	0.404064	21.42	0.77	-17.78	0.3926	0.0949	-0.2906	
-0.8845	0.093818	0.418582	26.95	2.38	-22.75	0.3856	0.0865	-0.3009	
-0.899994	0.113094	0.414068	31.36	5.04	-26.32	0.3988	0.0962	-0.2996	
-0.894138	0.122366	0.3965	35.84	6.51	-28.56	0.3796	0.0946	-0.2959	
-0.922808	0.104554	0.3904	38.22	7.35	-30.94	0.3827	0.0944	-0.3005	
-0.924882	0.066124	0.393694	41.09	7.35	-32.97	0.3853	0.098	-0.2917	
-0.91927	0.046604	0.40138	46.9	7.63	-34.44	0.3843	0.0959	-0.3019	
-0.903288	0.055998	0.39162	52.71	4.69	-34.86	0.3856	0.0897	-0.2993	
-0.908168	0.041724	0.370636	55.44	4.9	-35.56	0.374	0.0895	-0.3018	
-0.944402	0.026596	0.36783	60.13	6.72	-36.68	0.3769	0.0863	-0.3035	
-0.971364	0.015738	0.36051	69.72	7.63	-36.54	0.3844	0.0766	-0.3086	
-0.970998	0.031476	0.348066	80.85	4.41	-35.14	0.3814	0.0735	-0.3071	
-0.969656	0.045628	0.3355	88.48	-0.42	-32.55	0.3805	0.0792	-0.32	
-0.971974	0.052704	0.337452	94.5	-0.7	-32.55	0.3786	0.0621	-0.3119	
-0.980148	0.05002	0.317932	98.56	-2.1	-32.06	0.3803	0.0586	-0.3194	
-0.977708	0.050264	0.299754	102.06	-4.83	-30.1	0.3845	0.0477	-0.3171	
-0.984052	0.068808	0.302072	104.86	-3.71	-29.96	0.3863	0.0506	-0.3229	
-0.973194	0.09162199	0.293898	104.86	-8.75	-33.32	0.3697	0.0365	-0.3155	
-0.955138	0.101748	0.29646	103.11	-9.31	-35.63	0.3643	0.0264	-0.3274	
-0.964532	0.09455	0.299876	105.21	-6.44	-33.6	0.3685	0.0154	-0.3251	
-0.962458	0.091744	0.306464	109.76	-8.68	-31.5	0.3642	0.0073	-0.3282	
-0.969778	0.102846	0.31049	116.9	-6.72	-30.52	0.3644	0.0039	-0.3328	
-0.965508	0.119926	0.309392	119.77	-6.86	-30.17	0.3625	-0.0211	-0.3279	
-0.952942	0.127368	0.2989	118.93	-10.92	-32.13	0.3624	-0.0275	-0.3282	
-0.979416	0.135664	0.281332	122.92	-10.64	-31.57	0.3696	-0.0449	-0.3293	
-0.977098	0.148962	0.271816	121.94	-9.94	-31.99	0.3656	-0.0405	-0.3362	
-0.979294	0.15921	0.26474	119.56	-8.47	-32.97	0.3653	-0.0642	-0.3343	
-0.968436	0.164578	0.280112	120.19	-9.73	-33.53	0.3535	-0.0658	-0.3324	
-0.971486	0.16958	0.267912	126.91	-11.06	-34.16	0.3637	-0.0801	-0.3349	
-0.953186	0.171532	0.25559	130.55	-9.31	-37.45	0.3549	-0.0881	-0.3349	
-0.971364	0.19337	0.251442	130.41	-7	-40.25	0.3487	-0.1038	-0.3309	
-0.966728	0.21106	0.235582	119.77	-8.05	-41.51	0.3587	-0.1083	-0.3257	
-0.98576	0.229848	0.235704	112.07	-6.51	-43.19	0.3513	-0.121	-0.3259	
-0.974658	0.264984	0.239852	101.01	-8.12	-45.43	0.364	-0.1332	-0.3182	
-0.970388	0.267424	0.242536	89.67	-6.44	-48.09	0.3698	-0.1331	-0.3155	
-0.94977	0.260592	0.245708	83.09	-6.44	-48.58	0.3627	-0.143	-0.323	
-0.96624	0.240828	0.27206	77.21	-7.35	-46.2	0.3605	-0.1438	-0.3069	
-0.964044	0.227042	0.276696	69.93	-5.6	-43.82	0.3684	-0.1443	-0.3189	
-0.964044	0.203496	0.2745	69.37	-7.77	-41.93	0.3595	-0.1523	-0.3188	
-0.953796	0.176656	0.280844	63.35	-5.6	-37.73	0.3707	-0.1612	-0.308	
-0.942572	0.197274	0.263276	63.21	-6.93	-33.6	0.3649	-0.1517	-0.3074	
-0.952576	0.192516	0.274622	60.62	-5.11	-29.68	0.3688	-0.1656	-0.2994	
-0.93025	0.170678	0.285846	54.18	-3.64	-27.16	0.366	-0.161	-0.302	
-0.96746	0.156526	0.280722	51.66	-2.94	-23.8	0.3717	-0.1576	-0.2977	
-0.973316	0.168604	0.24827	50.12	-5.04	-22.82	0.3686	-0.1622	-0.2949	
-0.983076	0.139446	0.266936	44.73	-6.93	-23.17	0.3834	-0.159	-0.2968	
-0.964532	0.128954	0.27511	43.12	-6.93	-24.08	0.3819	-0.1622	-0.2969	
-0.970266	0.127734	0.269986	40.81	-6.3	-22.82	0.3671	-0.1718	-0.2952	
-0.960628	0.11651	0.284992	37.87	-5.81	-22.4	0.3754	-0.1776	-0.2856	
-0.956358	0.106628	0.300974	36.05	-6.44	-22.61	0.3756	-0.1858	-0.2918	
-0.951966	0.099918	0.302438	36.33	-4.69	-22.82	0.3856	-0.1743	-0.2844	
-0.93757	0.094306	0.307684	33.18	-2.73	-20.93	0.3725	-0.176	-0.2854	
-0.95099	0.091744	0.30073	35.14	-1.19	-19.53	0.3753	-0.1822	-0.2829	
-0.966728	0.099674	0.299022	33.67	-0.35	-18.2	0.384	-0.1709	-0.2798	
-0.960506	0.103334	0.299632	30.94	0.91	-17.29	0.384	-0.1853	-0.2834	
-0.959774	0.11773	0.299144	28.14	1.96	-15.12	0.3811	-0.1949	-0.2837	
-0.97051	0.110532	0.295118	26.25	2.45	-14	0.3734	-0.1849	-0.2727	
-0.969168	0.12383	0.296826	20.09	0.84	-12.6	0.3794	-0.1787	-0.2771	
-0.963556	0.12383	0.298656	13.86	0.07	-11.13	0.3865	-0.1848	-0.2718	
-0.971974	0.117242	0.306098	7.56	-0.14	-8.75	0.3843	-0.1872	-0.2893	
-0.969656	0.117486	0.312564	2.17	-1.82	-6.51	0.3822	-0.1769	-0.2727	
-0.947574	0.11102	0.316224	-1.47	-1.96	-4.34	0.3853	-0.1787	-0.2773	
-0.945256	0.094062	0.312442	-2.59	-1.26	-1.19	0.3864	-0.1879	-0.2705	
-0.941962	0.073444	0.312686	-3.08	-1.12	0.28	0.3777	-0.1849	-0.2729	
-0.951478	0.069784	0.317444	-3.5	-0.7	0.7	0.3796	-0.1805	-0.2815	
-0.96319	0.08662	0.31415	-3.85	-0.7	1.96	0.3765	-0.1835	-0.2771	
-0.951966	0.082472	0.313174	-4.62	-1.26	2.1	0.3867	-0.1819	-0.2775	
-0.959042	0.07381	0.30866	-3.71	-0.77	3.29	0.3968	-0.1832	-0.2736	
-0.95465	0.079788	0.311466	-3.22	-0.14	3.99	0.3811	-0.1726	-0.2812	
-0.953674	0.0793	0.31171	-3.36	0.28	4.69	0.3791	-0.18	-0.2698	
-0.957822	0.088816	0.303536	-3.5	0.35	5.81	0.3881	-0.1834	-0.2762	
-0.964654	0.102724	0.29768	-6.09	0.77	6.51	0.3883	-0.1755	-0.2773	
-0.963922	0.10797	0.300852	-11.97	1.05	7.91	0.3778	-0.1769	-0.2725	
-0.963434	0.102358	0.29097	-15.75	1.96	9.45	0.3852	-0.177	-0.2758	
-0.950502	0.108092	0.28426	-15.05	0.49	9.8	0.3813	-0.1808	-0.2874	
-0.953796	0.099308	0.280478	-14.77	0.91	11.06	0.3797	-0.1822	-0.2845	
-0.967216	0.117608	0.271694	-15.12	1.82	12.32	0.3752	-0.1837	-0.2815	
-0.967582	0.153232	0.272426	-19.25	2.03	14.7	0.3753	-0.179	-0.2827	
-0.955138	0.176534	0.270718	-28	3.01	18.06	0.3811	-0.1757	-0.2814	
-0.95221	0.20069	0.271206	-39.9	4.9	21.49	0.3783	-0.1823	-0.2845	
-0.965996	0.218014	0.265106	-49.56	3.64	24.71	0.3769	-0.1792	-0.2857	
-0.970632	0.189222	0.272182	-59.43	-0.35	27.72	0.3746	-0.1847	-0.3019	
-0.971974	0.149816	0.267546	-61.18	-0.7	31.78	0.3714	-0.1764	-0.2941	
-0.96136	0.151402	0.26962	-63.84	2.17	33.39	0.3849	-0.167	-0.2987	
-0.950746	0.183244	0.265106	-70.84	4.69	32.69	0.3702	-0.1655	-0.2965	
-0.945866	0.195322	0.268644	-80.92	5.88	31.5	0.3721	-0.1596	-0.3066	
-0.974414	0.20008	0.254736	-89.39	7.21	30.31	0.3633	-0.1644	-0.3064	
-0.996618	0.18544	0.237168	-96.95	4.69	30.17	0.3646	-0.1531	-0.3016	
-0.987224	0.196542	0.24827	-103.18	1.75	32.06	0.3652	-0.1521	-0.3147	
-0.997716	0.19764	0.242414	-110.6	-1.47	32.13	0.3622	-0.1376	-0.3096	
-0.988932	0.149328	0.24156	-114.31	-5.11	35	0.3597	-0.1173	-0.3159	
-1.000278	0.119438	0.231678	-114.03	-6.3	38.43	0.376	-0.1222	-0.3212	
-1.004182	0.090158	0.2318	-120.75	-5.6	40.88	0.3655	-0.1077	-0.3143	
-1.0004	0.076372	0.24644	-123.2	-6.16	42.35	0.3619	-0.0957	-0.3297	
-0.996862	0.075884	0.274988	-127.54	-8.68	42.56	0.3626	-0.0916	-0.3441	
-0.977952	0.076372	0.2745	-129.29	-6.09	45.78	0.3568	-0.079	-0.3433	
-0.961116	0.04819	0.297558	-130.13	-7.07	48.51	0.3526	-0.0552	-0.3436	
-0.972706	0.045994	0.288042	-124.46	-2.66	50.61	0.3559	-0.0476	-0.3492	
-0.975268	0.04392	0.288164	-124.74	0.07	51.8	0.35	-0.0412	-0.3487	
-0.964776	0.025376	0.315614	-124.6	1.89	52.22	0.3584	-0.0279	-0.3368	
-0.98149	0.014274	0.342088	-124.39	4.48	50.54	0.3543	-0.009	-0.3387	
-0.954894	0.06039	0.345016	-125.51	9.94	50.82	0.3439	-0.0058	-0.3352	
-0.927444	0.075274	0.337452	-124.18	9.1	53.62	0.3532	0.0065	-0.3438	
-0.961604	0.058438	0.347822	-123.2	10.64	50.33	0.3572	0.0229	-0.3331	
-0.94916	0.069662	0.356972	-119.77	13.93	48.79	0.3603	0.0131	-0.3395	
-0.932568	0.08357	0.343674	-114.87	9.52	46.69	0.3585	0.0279	-0.3286	
-0.94306	0.05673	0.337452	-113.05	8.82	45.01	0.3748	0.0374	-0.3303	
-0.970876	0.051606	0.33977	-100.59	7	43.89	0.369	0.0469	-0.3296	
-0.95282	0.051606	0.326716	-93.94	3.01	42.91	0.3643	0.0472	-0.3221	
-0.971974	0.059292	0.34526	-98.28	0.63	42.07	0.3685	0.0442	-0.3195	
-0.963556	0.057096	0.354044	-91.77	3.64	42.84	0.3674	0.055	-0.3263	
-0.933544	0.04636	0.346846	-84.84	3.85	43.33	0.3815	0.075	-0.3085	
-0.937326	0.063318	0.344894	-79.59	3.71	40.6	0.3743	0.0748	-0.3112	
-0.969046	0.06893	0.353922	-75.67	6.23	37.66	0.3814	0.0766	-0.307	
-0.998326	0.081984	0.363316	-72.03	6.79	35.63	0.3874	0.0926	-0.3066	
-0.951844	0.067222	0.370392	-69.51	4.83	34.09	0.3825	0.0898	-0.2963	
-0.923906	0.061488	0.37088	-64.19	0.14	34.09	0.387	0.0881	-0.2995	
-0.915244	0.03477	0.38369	-60.34	-1.54	31.22	0.3812	0.0992	-0.2987	
-0.910486	0.033184	0.391498	-55.79	-4.06	27.65	0.3894	0.1015	-0.2844	
-0.904752	0.044408	0.383324	-49.91	-4.55	24.15	0.3838	0.1044	-0.2899	
-0.940376	0.04209	0.39467	-43.4	-5.53	22.4	0.3854	0.1139	-0.291	
-0.92537	0.052094	0.395768	-36.89	-6.3	20.65	0.3883	0.09959999	-0.2917	
-0.910608	0.07381	0.413702	-30.87	-7.07	18.9	0.394	0.0981	-0.2906	
-0.919026	0.093086	0.405284	-26.88	-6.44	17.71	0.3882	0.1077	-0.2885	
-0.93269	0.10126	0.41846	-23.94	-6.72	16.87	0.385	0.1144	-0.2807	
-0.901824	0.113094	0.418582	-25.62	-8.89	16.66	0.3797	0.1136	-0.2951	
-0.887184	0.127612	0.424316	-24.36	-7.07	17.22	0.3838	0.1077	-0.2883	
-0.8906	0.113704	0.41724	-22.12	-7	17.22	0.3857	0.1024	-0.2988	
-0.89609	0.107482	0.425048	-19.11	-6.51	16.31	0.3807	0.1046	-0.2853	
-0.890844	0.109312	0.436028	-18.83	-6.09	13.86	0.3943	0.1155	-0.2928	
-0.878522	0.10492	0.441762	-16.38	-5.04	12.04	0.3814	0.1102	-0.3012	
-0.887306	0.098942	0.441274	-13.58	-4.27	10.57	0.3794	0.0964	-0.2915	
-0.898164	0.102358	0.438468	-10.64	-3.85	8.82	0.3854	0.1203	-0.2892	
-0.894748	0.11041	0.447496	-8.19	-4.9	6.58	0.3832	0.1099	-0.275	
-0.884012	0.09577	0.43798	-5.67	-4.34	3.43	0.3864	0.1112	-0.2809	
-0.890966	0.106628	0.441152	-1.96	-3.15	1.68	0.3895	0.1095	-0.284	
-0.88084	0.109678	0.446276	-0.28	-2.38	-0.56	0.3794	0.1028	-0.2897	
-0.876326	0.106994	0.451034	0.7	0.07	-2.45	0.3826	0.1121	-0.2939	
-0.88267	0.104188	0.44896	0.14	1.68	-3.92	0.3897	0.1028	-0.2916	
-0.906216	0.109068	0.459818	4.48	1.89	-4.2	0.39	0.1153	-0.2955	
-0.900726	0.097844	0.44774	7	0.84	-5.04	0.3866	0.1062	-0.287	
-0.888404	0.108824	0.440298	7.84	1.05	-6.16	0.3897	0.1045	-0.2901	
-0.905606	0.108458	0.444324	11.2	1.26	-6.44	0.3835	0.1175	-0.2805	
-0.90524	0.118462	0.437858	13.51	0.7	-6.44	0.3883	0.1188	-0.288	
-0.8967	0.139446	0.43737	15.05	0.21	-6.44	0.3943	0.1026	-0.2962	
-0.892064	0.13908	0.43859	15.26	0.49	-6.09	0.3912	0.1028	-0.2917	
-0.889502	0.120658	0.442738	15.61	2.03	-6.58	0.3827	0.1104	-0.2969	
-0.890356	0.117608	0.43859	16.87	3.08	-7.42	0.3915	0.1073	-0.2974	
-0.888404	0.127246	0.433832	19.04	3.78	-8.47	0.384	0.0994	-0.2945	
-0.89975	0.131272	0.430416	21.35	4.13	-9.24	0.3885	0.1009	-0.2975	
-0.90158	0.119438	0.415776	22.54	3.78	-9.66	0.3889	0.0989	-0.3064	
-0.898164	0.113094	0.415898	23.1	3.85	-11.13	0.3796	0.101	-0.2942	
-0.898896	0.086376	0.398696	24.71	5.18	-13.37	0.3911	0.0918	-0.2907	
-0.897798	0.074908	0.388814	27.51	7.77	-16.38	0.3752	0.0914	-0.2959	
-0.915488	0.076128	0.40504	31.78	8.75	-20.16	0.3725	0.1007	-0.2998	
-0.9089	0.058438	0.39772	38.78	7.91	-23.59	0.3796	0.101	-0.2942	
-0.91439	0.086742	0.401868	44.31	8.33	-26.74	0.3899	0.0962	-0.2963	
-0.93086	0.06161	0.397598	45.78	8.33	-29.26	0.3769	0.1007	-0.2999	
-0.919636	0.032452	0.374784	48.93	8.61	-31.99	0.3812	0.0881	-0.2992	
-0.887672	0.059414	0.37942	56.28	6.86	-33.04	0.3782	0.0945	-0.2973	
-0.891698	0.08174	0.363682	59.08	3.29	-35	0.3711	0.083	-0.3048	
-0.94489	0.083326	0.353068	64.26	8.47	-38.85	0.38	0.0846	-0.3066	
-0.98759	0.048312	0.364048	70.77	7.42	-39.48	0.3947	0.083	-0.3088	
-0.974536	0.022326	0.356606	81.06	3.22	-36.82	0.3754	0.0799	-0.3037	
-0.97966	0.020252	0.348676	89.39	-0.28	-34.58	0.3829	0.0751	-0.3071	
-0.984418	0.033306	0.341112	95.2	-3.36	-33.04	0.3759	0.0634	-0.3176	
-0.983198	0.055388	0.325374	99.68	-4.62	-32.62	0.3715	0.0698	-0.3156	
-0.982222	0.076616	0.320494	101.22	-8.05	-33.67	0.3716	0.0505	-0.3223	
-0.97905	0.086376	0.301096	104.16	-10.43	-33.6	0.3731	0.036	-0.3259	
-0.983076	0.087352	0.308172	106.54	-9.59	-31.5	0.364	0.0363	-0.3182	
-0.958798	0.110166	0.310612	109.69	-10.43	-30.17	0.3789	0.0313	-0.3264	
-0.956236	0.113582	0.306586	110.53	-11.62	-31.57	0.3524	0.0153	-0.3245	
-0.94672	0.116388	0.30805	113.96	-11.48	-33.81	0.366	-0.0106	-0.3408	
-0.959164	0.123342	0.318176	117.6	-9.03	-34.86	0.3599	-0.0103	-0.3332	
-0.965752	0.152622	0.30439	116.13	-6.72	-37.45	0.3584	-0.0295	-0.3369	
-0.959286	0.160552	0.307928	116.62	-7.14	-39.2	0.3601	-0.0362	-0.3445	
-0.951844	0.162748	0.295728	115.5	-6.51	-37.87	0.361	-0.0388	-0.3315	
-0.953552	0.161284	0.28975	116.62	-8.54	-37.17	0.3594	-0.0418	-0.3287	
-0.95831	0.174094	0.284992	114.66	-9.94	-36.12	0.3581	-0.0548	-0.335	
-0.951722	0.17324	0.285114	113.89	-11.62	-35.49	0.3541	-0.0649	-0.347	
-0.96624	0.173362	0.301218	114.94	-9.66	-33.81	0.3577	-0.0784	-0.3302	
-0.96319	0.167994	0.297192	114.45	-11.34	-33.81	0.3577	-0.0847	-0.3305	
-0.946232	0.167506	0.291458	119	-5.6	-35.28	0.3518	-0.1007	-0.3323	
-0.947696	0.164822	0.307806	115.99	1.4	-37.66	0.3589	-0.1036	-0.3284	
-0.940864	0.176778	0.273524	113.33	3.29	-39.06	0.3568	-0.1174	-0.3172	
-0.952698	0.176168	0.243512	110.04	2.03	-40.88	0.3629	-0.116	-0.3218	
-0.962336	0.180804	0.248026	110.88	5.46	-41.72	0.3579	-0.1394	-0.3124	
-0.97478	0.2013	0.218746	108.22	7.14	-45.08	0.3636	-0.1392	-0.3097	
-0.966972	0.194956	0.22631	105.21	5.81	-47.18	0.3635	-0.1439	-0.3084	
-0.971364	0.221308	0.223748	100.1	5.11	-48.02	0.3661	-0.1466	-0.2999	
-0.981856	0.216672	0.228018	93.24	3.01	-50.75	0.375	-0.1579	-0.3052	
-0.977098	0.206912	0.22509	83.3	1.61	-50.26	0.382	-0.1751	-0.3018	
-0.982222	0.223138	0.228872	77.42	1.75	-47.67	0.3775	-0.1686	-0.2984	
-0.979294	0.226066	0.234362	66.78	-0.28	-43.19	0.3695	-0.1599	-0.2802	
-0.965264	0.202154	0.238632	60.62	-2.17	-37.38	0.3871	-0.1647	-0.2826	
-0.974536	0.168116	0.230214	55.93	-3.78	-31.29	0.3751	-0.1772	-0.2783	
-0.983076	0.138836	0.239852	50.19	-2.8	-25.41	0.3824	-0.1867	-0.279	
-0.97783	0.150792	0.247782	42.63	-3.01	-21	0.3886	-0.1807	-0.2863	
-0.979782	0.154818	0.254492	37.03	-4.06	-17.85	0.388	-0.18	-0.2716	
-0.983808	0.149938	0.25742	31.36	-3.85	-13.79	0.3852	-0.1786	-0.2758	
-0.98576	0.138348	0.2623	26.46	-2.87	-10.57	0.385	-0.1719	-0.2682	
-0.978562	0.124806	0.2623	26.11	-2.66	-9.94	0.3883	-0.1836	-0.2806	
-0.982588	0.107848	0.254004	28.49	-2.52	-10.78	0.3819	-0.1814	-0.2671	
-0.970632	0.092354	0.257176	28.49	-3.85	-11.34	0.3848	-0.1749	-0.264	
-0.96441	0.097356	0.263032	30.17	-3.01	-11.9	0.3882	-0.1867	-0.2792	
-0.969778	0.099918	0.259616	28.91	-2.03	-12.18	0.391	-0.1913	-0.2766	
-0.973438	0.114436	0.262666	27.02	-1.47	-10.5	0.3876	-0.194	-0.2664	
-0.96197	0.125782	0.2745	23.59	-1.75	-9.17	0.3846	-0.1924	-0.2647	
-0.958676	0.134078	0.277306	20.3	-1.19	-8.54	0.3892	-0.191	-0.2692	
-0.955382	0.128588	0.27877	15.4	-1.19	-7.21	0.3861	-0.1892	-0.2647	
-0.968558	0.139446	0.27938	10.5	0.14	-5.32	0.3876	-0.194	-0.2664	
-0.972584	0.136152	0.27572	3.57	0.21	-3.01	0.3894	-0.1863	-0.272	
-0.967582	0.1281	0.27633	-1.68	0.14	-0.21	0.3935	-0.186	-0.2663	
-0.965874	0.101992	0.272182	-3.92	-0.07	1.33	0.395	-0.1893	-0.268	
-0.972828	0.095038	0.27328	-5.39	0.35	2.03	0.3905	-0.1907	-0.2634	
-0.977708	0.096746	0.274622	-6.65	0.63	3.57	0.3893	-0.191	-0.2707	
-0.974902	0.104188	0.269376	-10.29	0.91	3.85	0.3851	-0.1945	-0.2765	
-0.97112	0.105408	0.272426	-11.27	0.14	4.83	0.3933	-0.1985	-0.2624	
-0.96624	0.100772	0.273036	-10.92	0.07	5.46	0.3892	-0.1877	-0.2676	
-0.968802	0.100406	0.269498	-11.41	0.35	6.23	0.396	-0.1855	-0.2547	
-0.965142	0.100894	0.273036	-12.39	0.98	6.37	0.3849	-0.1958	-0.2707	
-0.965264	0.100528	0.27328	-12.11	1.12	6.51	0.382	-0.1927	-0.2719	
-0.966484	0.111386	0.271328	-12.32	1.89	7.35	0.3909	-0.1959	-0.2739	
-0.96258	0.119194	0.272182	-14.98	2.94	8.19	0.3983	-0.1944	-0.2771	
-0.958066	0.123708	0.268278	-16.8	3.99	8.82	0.3891	-0.1892	-0.2648	
-0.966362	0.136152	0.26413	-19.11	5.04	9.52	0.3832	-0.1972	-0.2649	
-0.96929	0.162504	0.257664	-23.73	5.81	10.08	0.3881	-0.1929	-0.2766	
-0.976	0.180926	0.253882	-29.75	5.53	10.99	0.3892	-0.1845	-0.266	
-0.97234	0.17751	0.253394	-38.36	6.23	12.6	0.3789	-0.1798	-0.2654	
-0.97905	0.168482	0.24461	-45.92	7.63	14.49	0.3867	-0.1802	-0.276	
-0.979416	0.179096	0.225212	-47.11	5.11	15.54	0.3842	-0.1823	-0.2862	
-0.971974	0.186294	0.222894	-48.23	3.22	15.68	0.3966	-0.1814	-0.2691	
-0.957822	0.213378	0.22814	-53.62	3.78	16.24	0.3765	-0.1756	-0.2768	
-0.969168	0.212768	0.228506	-63.35	4.76	16.24	0.3898	-0.1676	-0.2785	
-0.982466	0.196542	0.215086	-71.26	3.99	18.2	0.3815	-0.1585	-0.2865	
-0.988078	0.170434	0.20435	-78.4	2.17	20.72	0.3775	-0.1543	-0.2964	
-0.993812	0.163846	0.201544	-83.02	0.35	22.89	0.3774	-0.1605	-0.2937	
-0.999424	0.154696	0.19398	-89.53	-2.38	24.78	0.3808	-0.1467	-0.3035	
-1.003694	0.13847	0.202886	-97.09	-5.46	27.79	0.3734	-0.145	-0.3002	
-0.997106	0.124074	0.206668	-102.48	-9.17	31.15	0.3826	-0.1326	-0.3073	
-0.998082	0.119072	0.20618	-108.99	-10.15	33.25	0.374	-0.1265	-0.3111	
-1.00406	0.116876	0.22326	-114.66	-12.11	33.6	0.3697	-0.1186	-0.312	
-0.999058	0.118706	0.225334	-118.16	-15.33	33.6	0.3762	-0.1112	-0.3236	
-0.991372	0.105164	0.23058	-120.19	-19.18	34.02	0.3723	-0.1054	-0.3349	
-0.986004	0.083448	0.245464	-122.57	-19.81	37.45	0.3723	-0.0878	-0.3312	
-0.973682	0.073078	0.255468	-122.01	-23.38	40.39	0.3564	-0.0802	-0.3346	
-0.97173	0.04575	0.284992	-122.71	-17.08	42	0.3552	-0.0773	-0.3402	
-0.961238	0.047458	0.299876	-120.96	-16.03	43.47	0.3626	-0.0565	-0.3382	
-0.948916	0.053924	0.306098	-121.17	-13.16	44.66	0.3468	-0.0505	-0.3431	
-0.955138	0.057462	0.295362	-123.48	-11.13	44.94	0.3503	-0.0448	-0.3561	
-0.971852	0.055266	0.319518	-128.17	-4.41	45.85	0.3559	-0.03	-0.347	
-0.979782	0.061122	0.309392	-126.84	-1.19	45.01	0.3502	-0.0222	-0.3479	
-0.970876	0.066612	0.306952	-129.15	-0.21	46.13	0.3471	-0.0061	-0.3427	
-0.96136	0.08845	0.320006	-129.22	3.22	48.51	0.353	0.0098	-0.3408	
-0.946598	0.081984	0.334646	-129.71	3.5	51.24	0.3558	0.0052	-0.3382	
-0.96685	0.06832	0.35746	-126.28	6.16	54.18	0.3499	0.0212	-0.3343	
-0.960262	0.062464	0.324642	-115.15	3.08	53.2	0.3545	0.0291	-0.3356	
-0.95709	0.061	0.337452	-110.6	5.04	54.25	0.3591	0.0449	-0.3381	
-0.958798	0.074054	0.337574	-107.87	3.29	52.57	0.3631	0.0581	-0.326	
-0.974414	0.080154	0.305	-105.42	4.97	53.76	0.3687	0.0585	-0.3204	
-0.97417	0.042578	0.309636	-105.91	6.44	55.44	0.3619	0.0642	-0.3315	
-0.962336	0.013298	0.322812	-99.33	8.33	54.95	0.363	0.0742	-0.3224	
-0.938912	-0.006588	0.335622	-91.84	8.54	51.94	0.3776	0.0808	-0.3198	
-0.930128	-0.022692	0.350872	-86.8	7	49	0.3729	0.08109999	-0.3123	
-0.94001	-0.01342	0.365756	-76.09	6.02	45.01	0.3816	0.0829	-0.3097	
-0.967826	0.00183	0.369538	-69.79	3.92	40.74	0.3828	0.0911	-0.3021	
-0.971974	0.021716	0.381616	-63.98	2.8	34.93	0.3892	0.0889	-0.317	
-0.990274	0.031964	0.372954	-59.57	-1.12	27.72	0.39	0.0993	-0.2976	
-0.923052	-0.05795	0.379786	-45.99	-7.42	18.34	0.3874	0.1021	-0.3062	
-0.897676	-0.019642	0.413702	-37.24	-6.79	15.05	0.3871	0.1024	-0.2988	
-0.89609	-0.003904	0.412116	-30.31	-7.28	15.05	0.3795	0.1107	-0.2909	
-0.905118	0.034526	0.422364	-23.03	-5.39	15.89	0.381	0.0979	-0.2929	
-0.913658	0.07076	0.410164	-19.18	-4.27	16.52	0.3827	0.1153	-0.2952	
-0.923296	0.10431	0.417118	-17.15	-3.92	16.66	0.3913	0.1139	-0.2912	
-0.903898	0.122976	0.419314	-17.5	-4.55	16.66	0.3927	0.098	-0.2934	
-0.871934	0.131028	0.429318	-20.51	-2.52	16.1	0.3829	0.1054	-0.3029	
-0.877302	0.142374	0.430904	-20.86	-0.28	16.52	0.3911	0.1141	-0.2868	
