Sensor string: E
Serial number: 2106-01--26538169
Firmware version: 2,769288E-40
Hardware version: 1,092478E-36
Calibration quality: 204
ax	ay	az	gx	gy	gz	mx	my	mz

-0.9943	0.1342	0.127978	0.21	0.14	-0.07	0.3768	-0.0555	-0.2865	Reference
-0.995642	0.133834	0.124562	0.07	0.35	-0.21	0.3854	-0.0465	-0.2928	
-0.996252	0.134078	0.124196	0.07	0	-0.21	0.3897	-0.0465	-0.2898	
-0.995642	0.135054	0.12749	0.21	-0.14	-0.14	0.3826	-0.054	-0.2928	
-0.994666	0.135176	0.127856	0.21	0	-0.21	0.3855	-0.054	-0.2959	
-0.994666	0.135786	0.128832	0.14	0	-0.21	0.3913	-0.0556	-0.299	
-0.993934	0.135176	0.127978	0	-0.07	-0.14	0.3796	-0.0495	-0.2866	
-0.9943	0.133346	0.127246	0	0	-0.14	0.387	-0.051	-0.299	
-0.993812	0.133956	0.128588	0.07	0	-0.07	0.3914	-0.0586	-0.3006	
-0.993568	0.135176	0.12749	0	0.07	-0.14	0.3957	-0.0541	-0.3052	
-0.993812	0.134444	0.128954	0	-0.07	-0.07	0.3812	-0.0585	-0.2943	
-0.993568	0.134078	0.128466	0	-0.07	-0.07	0.3883	-0.0465	-0.2913	
-0.993568	0.134932	0.128588	0	0.14	0	0.3884	-0.051	-0.2929	
-0.993568	0.135054	0.1281	0.07	0.14	0.07	0.3855	-0.054	-0.2913	
-0.994666	0.134932	0.127856	0.21	0.21	0.07	0.3984	-0.0481	-0.2883	
-0.99491	0.134688	0.127002	0.14	0.14	0	0.3913	-0.048	-0.2991	
-0.995398	0.134932	0.126392	0.14	0.14	-0.07	0.3841	-0.054	-0.2943	
-0.995886	0.134444	0.12566	0.07	0.07	-0.07	0.384	-0.0525	-0.2882	
-0.996862	0.134444	0.126148	0.14	0.07	-0.07	0.3826	-0.0403	-0.3021	
-0.996374	0.134566	0.125904	0.28	0	0.07	0.3899	-0.054	-0.3006	
-0.994666	0.13725	0.127368	0.28	-0.07	0	0.3885	-0.0586	-0.3021	
-0.9943	0.136274	0.127002	0	-0.07	0	0.3812	-0.0509	-0.3005	
-0.994666	0.13542	0.12749	-0.14	-0.07	0	0.3812	-0.0525	-0.2959	
-0.994666	0.135786	0.128466	-0.14	0	0	0.3856	-0.0601	-0.302	
-0.993202	0.135664	0.127978	0	0.14	0	0.3898	-0.048	-0.2929	
-0.994544	0.135908	0.128222	0.14	0.07	0	0.3826	-0.0555	-0.2959	
-0.9943	0.134932	0.127368	0.14	0.14	-0.07	0.3855	-0.051	-0.2913	
-0.995032	0.13481	0.126758	0.14	0.14	0	0.3956	-0.0556	-0.2883	
-0.994544	0.135054	0.127002	0	0.07	0	0.3842	-0.0677	-0.2958	
-0.9943	0.135542	0.127856	-0.14	0.21	0.07	0.387	-0.0616	-0.2897	
-0.99552	0.136152	0.127978	-0.07	0.21	0	0.387	-0.0616	-0.2912	
-0.995154	0.13542	0.127978	0.14	0.42	0	0.3797	-0.0555	-0.2897	
-0.994422	0.134932	0.126392	0.56	0.63	-0.07	0.3899	-0.0556	-0.2975	
-0.993202	0.135298	0.130174	1.19	0.77	-0.07	0.3899	-0.054	-0.299	
-0.99552	0.135542	0.125782	1.33	1.4	-0.21	0.3898	-0.051	-0.2929	
-0.998692	0.134932	0.12078	1.33	1.19	-0.28	0.3839	-0.0419	-0.2898	
-0.997106	0.134444	0.121146	1.05	0.84	-0.28	0.3913	-0.0602	-0.2882	
-0.997716	0.13481	0.121634	0.91	1.05	-0.21	0.3899	-0.0556	-0.299	
-0.999912	0.137372	0.12139	0.7	1.19	-0.07	0.3883	-0.0541	-0.2867	
-0.99918	0.138226	0.121024	0.56	1.19	0	0.3898	-0.0541	-0.2882	
-1.001132	0.138592	0.121024	0.35	1.47	-0.07	0.3914	-0.0662	-0.2944	
-1.003694	0.136518	0.112606	0.07	1.54	-0.21	0.3854	-0.0465	-0.2898	
-1.00467	0.136762	0.109922	-0.07	1.33	-0.35	0.3913	-0.0541	-0.2959	
-1.005768	0.136274	0.112606	-0.7	1.4	-0.35	0.3912	-0.048	-0.2914	
-1.00833	0.138348	0.107116	-0.98	0.21	-0.21	0.3941	-0.0526	-0.2821	
-1.011014	0.13786	0.113216	-0.63	-2.17	0	0.3883	-0.051	-0.2898	
-1.01443	0.134566	0.11895	-0.77	-0.98	-0.07	0.3942	-0.0571	-0.2929	
-1.003206	0.1342	0.114436	-0.49	-3.85	0.14	0.3884	-0.0541	-0.2928	
-1.00345	0.134322	0.113582	-1.05	-3.57	0	0.3912	-0.0496	-0.2852	
-1.007598	0.136884	0.111874	-1.89	-5.88	0.07	0.3913	-0.0556	-0.2929	
-1.004182	0.136762	0.11712	-2.8	-7.42	0.21	0.3841	-0.051	-0.2974	
-1.006134	0.13481	0.118096	-3.43	-7.21	0.21	0.3899	-0.0556	-0.2959	
-1.00223	0.13542	0.12322	-3.43	-9.45	0.49	0.3825	-0.051	-0.2882	
-1.011868	0.139202	0.12993	-3.64	-8.96	0.56	0.3797	-0.0418	-0.3005	
-1.01809	0.137982	0.136884	-4.41	-8.33	1.05	0.3869	-0.048	-0.2975	
-1.013088	0.137738	0.146522	-4.83	-9.38	1.54	0.3798	-0.057	-0.2974	
-1.002718	0.137372	0.149328	-5.32	-8.26	1.68	0.3783	-0.0509	-0.302	
-1.00284	0.13786	0.147742	-5.46	-8.12	1.68	0.3783	-0.0509	-0.2989	
-0.994544	0.137494	0.153842	-5.39	-8.68	1.4	0.3798	-0.0448	-0.3082	
-0.994788	0.135298	0.150914	-4.69	-10.99	1.19	0.3756	-0.0599	-0.3112	
-0.995032	0.13115	0.157868	-4.48	-11.76	0.49	0.377	-0.0554	-0.3143	
-1.005158	0.127978	0.164456	-4.34	-11.48	0.07	0.3769	-0.0463	-0.3066	
-1.009794	0.130906	0.164456	-3.71	-11.97	-0.49	0.3669	-0.0508	-0.3127	
-1.021262	0.13481	0.167384	-3.43	-10.99	-0.77	0.377	-0.0478	-0.3128	
-1.01565	0.141032	0.162382	-4.13	-12.95	-0.91	0.3726	-0.0554	-0.3081	
-1.012234	0.143106	0.16165	-5.25	-14.63	-0.63	0.3741	-0.0417	-0.3159	
-1.000766	0.141642	0.168238	-6.23	-17.29	-0.14	0.361	-0.0386	-0.3096	
-0.992592	0.141154	0.1769	-7.28	-19.18	0.84	0.367	-0.0522	-0.3281	
-0.98393	0.140178	0.179828	-8.47	-20.65	1.75	0.3683	-0.0477	-0.3173	
-0.986004	0.140544	0.190442	-8.68	-20.51	2.17	0.3511	-0.0521	-0.3233	
-0.979416	0.140056	0.206546	-7.7	-21.49	2.31	0.364	-0.0325	-0.3328	
-0.985028	0.138348	0.210328	-7	-21.63	2.24	0.3641	-0.0477	-0.3265	
-0.98088	0.131394	0.220088	-6.65	-22.4	1.96	0.3582	-0.0309	-0.325	
-0.970144	0.13054	0.232288	-5.81	-24.64	1.54	0.3569	-0.0415	-0.3388	
-0.965142	0.136762	0.244732	-5.04	-25.41	1.05	0.3511	-0.046	-0.3326	
-0.962458	0.14091	0.252418	-4.69	-25.69	0.49	0.3468	-0.0399	-0.3449	
-0.958798	0.138592	0.266204	-4.69	-26.04	0.35	0.344	-0.0414	-0.3433	
-0.951234	0.13359	0.2745	-5.18	-25.48	0.35	0.344	-0.0398	-0.3495	
-0.951844	0.128344	0.284138	-5.67	-25.06	0.35	0.3412	-0.0504	-0.3509	
-0.950014	0.1281	0.28853	-5.88	-24.08	0.35	0.344	-0.0368	-0.3495	
-0.942938	0.128954	0.296582	-5.6	-25.34	0.49	0.3325	-0.0427	-0.357	
-0.940986	0.126026	0.308294	-6.02	-24.5	0.84	0.3312	-0.0442	-0.3647	
-0.93391	0.120048	0.31476	-6.58	-24.57	1.33	0.3266	-0.0291	-0.354	
-0.931714	0.111996	0.330498	-6.44	-26.32	1.12	0.3339	-0.0306	-0.3633	
-0.93269	0.107116	0.334768	-6.44	-22.75	0.84	0.3211	-0.0365	-0.3739	
-0.933666	0.109922	0.341966	-5.39	-23.59	0.77	0.3196	-0.035	-0.3739	
-0.924516	0.118584	0.35197	-4.62	-23.45	0.91	0.3139	-0.0349	-0.3769	
-0.918172	0.119804	0.360266	-4.48	-23.24	1.05	0.3182	-0.0365	-0.3785	
-0.91744	0.119804	0.371612	-5.46	-21.98	1.26	0.3111	-0.041	-0.3815	
-0.925004	0.124318	0.379054	-5.74	-21.21	1.33	0.3139	-0.038	-0.3815	
-0.92171	0.128222	0.383934	-5.6	-21.42	1.4	0.2994	-0.0348	-0.3752	
-0.907558	0.126636	0.390034	-4.9	-21.42	1.89	0.3024	-0.0318	-0.3907	
-0.907924	0.124806	0.402112	-5.04	-20.58	2.03	0.2994	-0.0318	-0.3799	
-0.89914	0.125172	0.411506	-5.32	-19.53	1.82	0.2952	-0.0363	-0.386	
-0.894626	0.129564	0.413458	-4.62	-18.9	1.61	0.2938	-0.0347	-0.3968	
-0.890966	0.132736	0.425902	-4.97	-18.41	1.33	0.2894	-0.0347	-0.3936	
-0.882792	0.130906	0.425902	-4.83	-17.85	1.12	0.2808	-0.0391	-0.3981	
-0.881816	0.12688	0.433222	-5.11	-17.5	1.26	0.2823	-0.0331	-0.4013	
-0.879132	0.125904	0.441518	-5.32	-16.73	1.33	0.2881	-0.0422	-0.3967	
-0.870348	0.126514	0.447984	-4.9	-15.61	1.47	0.2779	-0.0361	-0.4012	
-0.866078	0.126514	0.453352	-5.04	-15.68	1.75	0.2736	-0.0269	-0.4028	
-0.863638	0.122976	0.46421	-5.39	-13.51	1.68	0.2736	-0.03	-0.4058	
-0.85522	0.11651	0.467504	-4.55	-13.37	1.75	0.2736	-0.0269	-0.4058	
-0.852414	0.111142	0.47153	-3.78	-11.06	1.54	0.2707	-0.0315	-0.3996	
-0.851316	0.11468	0.466772	-2.59	-10.57	1.26	0.278	-0.0315	-0.4105	
-0.851316	0.117974	0.472384	-1.68	-9.03	0.77	0.2751	-0.0269	-0.4074	
-0.85461	0.119926	0.47763	-1.05	-7.84	0.63	0.2708	-0.0269	-0.4135	
-0.857904	0.122854	0.481534	-0.77	-9.38	0.14	0.268	-0.0359	-0.4196	
-0.865956	0.123708	0.47763	-0.7	-7.63	0.07	0.2679	-0.0314	-0.4104	
-0.868396	0.12505	0.476532	-0.28	-7.07	0.14	0.2621	-0.0223	-0.4165	
-0.87657	0.125416	0.477264	0.28	-7.21	0.28	0.2665	-0.0253	-0.4181	
-0.875106	0.126026	0.481534	0.14	-6.51	0.42	0.2607	-0.0268	-0.4165	
-0.87535	0.134078	0.476776	0.21	-5.53	0.49	0.2593	-0.0328	-0.4195	
-0.867176	0.135176	0.473726	0.21	-5.74	0.35	0.2606	-0.0223	-0.4088	
-0.872666	0.128344	0.477264	-0.56	-4.76	0.07	0.2607	-0.0237	-0.4242	
-0.863638	0.124196	0.485438	-0.63	-5.32	-0.07	0.265	-0.0344	-0.4088	
-0.864614	0.12261	0.484584	0.07	-4.83	-0.07	0.265	-0.0329	-0.4119	
-0.867542	0.126636	0.485072	0.35	-4.69	-0.07	0.2621	-0.0253	-0.4165	
-0.869128	0.127978	0.486414	0.21	-4.9	0	0.2578	-0.0253	-0.4165	
-0.863638	0.128466	0.48617	-0.35	-5.46	-0.14	0.2665	-0.0253	-0.4181	
-0.869128	0.128588	0.489098	-0.98	-5.04	-0.42	0.2608	-0.0252	-0.4273	
-0.862418	0.127002	0.488366	-1.05	-6.51	-0.42	0.2592	-0.0313	-0.4118	
-0.86498	0.126026	0.493612	-1.33	-4.69	-0.49	0.2564	-0.0283	-0.418	
-0.860588	0.125294	0.494832	-1.61	-4.9	-0.49	0.2579	-0.0267	-0.4257	
-0.869982	0.12444	0.49837	-1.82	-5.04	-0.56	0.2535	-0.0328	-0.421	
-0.864858	0.127246	0.504226	-1.96	-5.53	-0.7	0.255	-0.0312	-0.4272	
-0.871812	0.124562	0.505812	-1.89	-5.53	-0.56	0.2606	-0.0177	-0.4135	
-0.863394	0.120048	0.504104	-1.82	-4.9	-0.35	0.2536	-0.0343	-0.4225	
-0.860954	0.115046	0.503006	-1.54	-4.41	-0.14	0.2419	-0.0267	-0.4163	
-0.864614	0.111752	0.505812	-1.26	-4.48	-0.14	0.2548	-0.0207	-0.4149	
-0.848388	0.11346	0.517158	-0.42	-6.79	-0.28	0.2491	-0.0176	-0.4272	
-0.852658	0.116144	0.51484	-0.28	-4.83	-0.49	0.2491	-0.0221	-0.4195	
-0.84424	0.117974	0.519964	-0.14	-5.46	-0.63	0.252	-0.0283	-0.4149	
-0.845338	0.115778	0.52033	-0.42	-3.57	-0.7	0.2477	-0.0236	-0.4225	
-0.841434	0.116388	0.523258	-0.28	-3.64	-0.56	0.2434	-0.0251	-0.4256	
-0.83753	0.116632	0.521184	-0.28	-4.34	-0.35	0.2621	-0.0192	-0.4242	
-0.841434	0.116022	0.522526	-0.84	-2.73	0	0.2332	-0.022	-0.4209	
-0.836554	0.11529	0.524112	-0.77	-2.38	0.42	0.2477	-0.0191	-0.4287	
-0.834602	0.113948	0.51911	-0.49	-2.1	0.7	0.2449	-0.0251	-0.4271	
-0.833748	0.11102	0.521062	-0.28	-0.35	0.7	0.2404	-0.0191	-0.4179	
-0.83204	0.111508	0.52155	0	-0.07	0.63	0.2419	-0.019	-0.4287	
-0.835456	0.112362	0.522526	0	0.7	0.56	0.2463	-0.0266	-0.4271	
-0.831064	0.116144	0.524478	0.35	-0.28	0.63	0.2449	-0.0251	-0.4318	
-0.834724	0.120292	0.526186	0.49	1.61	0.7	0.2319	-0.0265	-0.4285	
-0.836432	0.120292	0.527406	0.77	2.52	0.7	0.2362	-0.0235	-0.4317	
-0.837896	0.118706	0.524234	0.98	3.01	0.77	0.242	-0.0281	-0.4317	
-0.84058	0.117364	0.521062	1.12	3.01	0.63	0.2448	-0.0251	-0.4225	
-0.84058	0.11956	0.52399	1.47	3.29	0.63	0.2492	-0.0176	-0.4287	
-0.839116	0.118828	0.519476	1.82	3.85	0.77	0.2405	-0.0251	-0.4255	
-0.83936	0.119316	0.518744	1.89	4.41	0.84	0.2477	-0.0297	-0.421	
-0.83875	0.11773	0.52033	2.17	4.76	0.98	0.2448	-0.0266	-0.424	
-0.835944	0.121634	0.520574	3.22	5.25	0.91	0.2463	-0.0297	-0.4256	
-0.833992	0.120292	0.519476	3.99	6.51	0.77	0.2505	-0.0237	-0.4179	
-0.832528	0.122732	0.514352	4.13	7.77	0.42	0.2535	-0.0252	-0.4195	
-0.835212	0.12566	0.512522	4.62	8.61	0.21	0.2563	-0.0313	-0.4133	
-0.833016	0.130784	0.51301	5.04	9.24	0.14	0.2463	-0.0297	-0.4225	
-0.825696	0.131272	0.507154	5.04	10.08	0.28	0.2593	-0.0313	-0.418	
-0.822646	0.132614	0.510692	5.04	11.83	0.35	0.2549	-0.0206	-0.4257	
-0.82777	0.129686	0.505202	5.25	14.49	0.49	0.2564	-0.0222	-0.4242	
-0.833626	0.130784	0.503128	5.25	15.82	0.56	0.2492	-0.0312	-0.4225	
-0.836554	0.131028	0.496662	5.46	17.5	0.7	0.2577	-0.0253	-0.4134	
-0.835822	0.124318	0.49044	5.81	20.09	0.63	0.2694	-0.0284	-0.4197	
-0.833748	0.124074	0.483364	7.21	22.68	0.56	0.265	-0.0253	-0.4196	
-0.837164	0.125416	0.474092	8.12	24.85	0.42	0.2665	-0.0344	-0.415	
-0.843264	0.130052	0.460184	8.47	27.23	0.14	0.2766	-0.036	-0.412	
-0.853268	0.135298	0.44957	8.61	29.54	-0.28	0.2794	-0.0346	-0.4043	
-0.866688	0.137372	0.43371	8.75	31.57	-0.63	0.2837	-0.0331	-0.4044	
-0.87291	0.136762	0.413702	8.61	33.81	-0.84	0.2896	-0.0392	-0.409	
-0.883036	0.137982	0.40382	8.54	36.75	-1.12	0.3026	-0.0438	-0.4045	
-0.887306	0.142618	0.38552	8.89	37.87	-1.19	0.304	-0.05	-0.3891	
-0.886208	0.14457	0.365512	8.54	39.41	-1.47	0.3097	-0.044	-0.3876	
-0.899262	0.144204	0.362828	8.4	40.81	-1.82	0.3053	-0.047	-0.3814	
-0.904142	0.144326	0.343064	8.47	41.44	-1.96	0.3081	-0.0425	-0.3738	
-0.92293	0.144692	0.332938	8.33	42.7	-2.38	0.3283	-0.0457	-0.3709	
-0.930982	0.14823	0.324642	8.47	43.61	-2.94	0.3223	-0.0366	-0.3554	
-0.937204	0.14823	0.30012	8.05	45.22	-3.29	0.3253	-0.0473	-0.3508	
-0.943182	0.147132	0.289018	7.77	43.75	-3.5	0.3369	-0.0488	-0.3601	
-0.942816	0.144204	0.273158	7.77	43.19	-3.5	0.3296	-0.058	-0.3385	
-0.938668	0.13847	0.25193	7.98	42.21	-3.36	0.3454	-0.0474	-0.3433	
-0.940742	0.13542	0.247294	8.82	38.5	-3.15	0.3542	-0.046	-0.3495	
-0.966362	0.13786	0.245464	9.87	37.73	-3.01	0.3453	-0.043	-0.3294	
-0.968558	0.145546	0.229238	12.67	25.55	-1.89	0.3597	-0.0522	-0.3234	
-0.974658	0.15921	0.219112	12.88	25.13	-1.68	0.361	-0.0462	-0.3095	
-0.980148	0.164944	0.201422	13.23	21.91	-1.54	0.3727	-0.0462	-0.3205	
-0.98698	0.167018	0.200446	12.67	24.15	-1.75	0.3697	-0.0432	-0.3143	
-0.997594	0.168604	0.184708	12.81	26.04	-1.12	0.3611	-0.0492	-0.3111	
-0.988078	0.160674	0.16897	11.34	27.72	-0.42	0.3741	-0.0447	-0.3174	
-0.976366	0.154574	0.157624	11.41	29.68	-0.77	0.364	-0.0553	-0.3095	
-0.987102	0.143594	0.145546	12.53	28.14	-1.19	0.3798	-0.0616	-0.2973	
-0.986126	0.139202	0.138714	13.44	29.47	-2.31	0.377	-0.0569	-0.305	
-0.987712	0.137006	0.119804	14.63	28.28	-3.29	0.3797	-0.0616	-0.2865	
-1.000522	0.13481	0.126392	14.91	27.86	-4.27	0.3855	-0.0525	-0.2959	
-1.006378	0.136396	0.116144	15.54	31.92	-6.02	0.387	-0.0601	-0.2928	
-1.008696	0.141276	0.116388	16.24	31.57	-6.86	0.3869	-0.0678	-0.2758	
-1.014308	0.131272	0.10309	16.38	37.38	-7.28	0.3897	-0.0587	-0.2743	
-1.01687	0.130296	0.079666	16.45	40.74	-7.42	0.3939	-0.0633	-0.262	
-1.013088	0.139934	0.054534	17.36	37.8	-6.02	0.3997	-0.0634	-0.2636	
-1.014918	0.144448	0.015494	17.99	39.62	-5.53	0.4083	-0.0635	-0.2545	
-1.007232	0.145424	0.023424	15.96	39.34	-4.41	0.404	-0.0665	-0.2529	
-1.020164	0.138226	0.007808	13.3	40.32	-3.99	0.4083	-0.0604	-0.2545	
-1.026142	0.138958	-0.007198	10.08	38.5	-3.71	0.4112	-0.0559	-0.2576	
-1.029192	0.135176	-0.015372	7.35	37.8	-3.57	0.4139	-0.0591	-0.233	
-1.03517	0.127978	-0.036478	6.79	35.56	-3.71	0.4125	-0.059	-0.236	
-1.023214	0.11895	-0.06405	7.7	34.37	-4.27	0.4183	-0.0667	-0.233	
-1.032608	0.116632	-0.088328	9.24	33.67	-4.76	0.4239	-0.0698	-0.2176	
-1.02846	0.117974	-0.106994	9.66	30.24	-4.06	0.4266	-0.0562	-0.2069	
-1.034438	0.126148	-0.114802	8.89	26.39	-3.15	0.4238	-0.0638	-0.2038	
-1.04554	0.129076	-0.133834	6.86	24.78	-2.17	0.4353	-0.0624	-0.2023	
-1.037732	0.126514	-0.13908	5.6	23.45	-1.61	0.428	-0.0654	-0.1976	
-1.02785	0.12444	-0.136152	4.27	24.36	-1.19	0.4382	-0.0594	-0.2039	
-1.020164	0.122244	-0.131882	3.64	22.05	-0.98	0.438	-0.0519	-0.187	
-1.00589	0.120414	-0.124562	2.45	21.98	-0.98	0.4381	-0.0594	-0.1916	
-0.992226	0.117364	-0.119682	2.03	21.42	-0.91	0.4337	-0.0609	-0.1885	
-1.00101	0.121878	-0.10797	2.45	23.1	-1.12	0.4381	-0.0685	-0.1854	
-1.008574	0.12871	-0.113338	3.29	22.19	-1.05	0.4408	-0.0625	-0.1762	
-1.024922	0.134932	-0.140178	3.78	22.47	-1.12	0.4422	-0.0626	-0.1716	
-1.019554	0.129686	-0.162382	3.5	21.56	-0.84	0.4423	-0.0626	-0.1731	
-1.00284	0.12871	-0.156038	3.57	21.77	-0.56	0.4379	-0.0656	-0.1654	
-0.986126	0.11956	-0.15372	2.24	20.79	-0.49	0.4509	-0.0642	-0.1671	
-0.984174	0.115656	-0.162992	2.73	21	-0.07	0.4392	-0.0611	-0.1623	
-0.990396	0.117974	-0.15921	3.64	21.7	0.49	0.4494	-0.0657	-0.167	
-1.001986	0.111264	-0.167506	3.43	22.68	0.42	0.4538	-0.0672	-0.1655	
-0.998204	0.101382	-0.197152	4.55	23.45	-0.35	0.4465	-0.0642	-0.1624	
-0.99491	0.109434	-0.199348	6.44	21.98	-0.91	0.4421	-0.0687	-0.1546	
-0.995764	0.124562	-0.196176	6.93	21.77	-1.19	0.4536	-0.0628	-0.1455	
-0.994056	0.129564	-0.219844	6.09	22.05	-1.05	0.455	-0.0704	-0.1424	
-0.98942	0.13542	-0.234606	6.02	21.49	-0.77	0.4535	-0.0613	-0.1424	
-0.991006	0.130174	-0.245342	5.25	20.58	-0.35	0.4447	-0.0582	-0.1316	
-0.994788	0.128954	-0.254736	4.83	19.95	-0.49	0.4505	-0.0598	-0.127	
-0.998814	0.128588	-0.270718	4.62	19.6	-1.12	0.4463	-0.0734	-0.1331	
-0.984418	0.126148	-0.260104	3.92	20.16	-1.68	0.4534	-0.0583	-0.1286	
-0.978684	0.122366	-0.255834	2.59	20.86	-2.1	0.4563	-0.0705	-0.1239	
-0.98088	0.124074	-0.253272	1.96	19.25	-1.61	0.4606	-0.0705	-0.1193	
-0.990274	0.126392	-0.256566	3.01	20.09	-1.12	0.462	-0.0736	-0.1163	
-0.990274	0.11651	-0.269376	3.57	21.35	-1.26	0.462	-0.063	-0.1163	
-0.983198	0.114314	-0.295362	4.55	20.09	-1.12	0.4662	-0.0706	-0.104	
-0.975024	0.115412	-0.30012	4.34	19.18	-0.98	0.4589	-0.063	-0.1024	
-0.971486	0.117486	-0.326228	3.5	16.52	-0.42	0.456	-0.0615	-0.1008	
-0.971852	0.11834	-0.339404	2.31	15.61	-0.14	0.4603	-0.0585	-0.0963	
-0.963922	0.115168	-0.339282	0.98	13.02	-0.28	0.4588	-0.0722	-0.087	
-0.956968	0.107116	-0.34526	0	11.62	-0.91	0.456	-0.0661	-0.0947	
-0.949038	0.106994	-0.345138	0	9.52	-0.91	0.4646	-0.0661	-0.0932	
-0.963312	0.115168	-0.341112	0.07	6.58	-0.7	0.4602	-0.0601	-0.087	
-0.980026	0.123098	-0.345382	0.07	5.46	-0.91	0.4574	-0.0706	-0.087	
-0.979416	0.11102	-0.33977	0.07	4.55	-1.12	0.4733	-0.0662	-0.0902	
-0.96807	0.105774	-0.327692	-0.21	4.83	-1.12	0.4674	-0.0556	-0.0871	
-0.957456	0.11651	-0.316834	0.7	4.41	-1.19	0.463	-0.0616	-0.0793	
-0.962946	0.118828	-0.330742	-0.14	3.71	-1.61	0.466	-0.0662	-0.084	
-0.96929	0.108702	-0.339404	-1.05	3.64	-2.03	0.4617	-0.0676	-0.0885	
-0.975268	0.108092	-0.341844	-0.7	3.57	-2.03	0.4573	-0.0646	-0.0839	
-0.971364	0.110898	-0.350018	0.28	3.43	-1.82	0.4602	-0.0646	-0.087	
-0.962702	0.110532	-0.35441	0	1.4	-1.47	0.4732	-0.0571	-0.0841	
-0.95892	0.105042	-0.359534	-0.84	0.21	-1.33	0.4646	-0.0646	-0.08549999	
-0.959286	0.108214	-0.34221	-1.54	-2.1	-0.91	0.4659	-0.054	-0.084	
-0.963678	0.11224	-0.333548	-0.77	-2.87	-0.91	0.4675	-0.0722	-0.08549999	
-0.968436	0.117486	-0.335134	0.7	-2.94	-1.05	0.4731	-0.0632	-0.0764	
-0.975512	0.110898	-0.341478	0.42	-3.36	-1.12	0.4617	-0.057	-0.0901	
-0.971364	0.096258	-0.344772	-0.91	-3.15	-1.05	0.4631	-0.0616	-0.0809	
-0.959652	0.091988	-0.335134	-0.91	-3.92	-0.77	0.4631	-0.0616	-0.0871	
-0.9577	0.097722	-0.323788	0	-5.04	-0.35	0.466	-0.0647	-0.0824	
-0.969046	0.101382	-0.31903	0.63	-4.83	-0.21	0.4603	-0.0585	-0.0994	
-0.975634	0.099552	-0.322934	0.42	-4.48	-0.21	0.453	-0.06	-0.09	
-0.975512	0.097722	-0.332694	0.35	-4.62	-0.21	0.4762	-0.0571	-0.0949	
-0.973316	0.10065	-0.333792	0.28	-4.13	-0.14	0.4616	-0.051	-0.0917	
-0.966362	0.101504	-0.33245	-0.28	-5.53	0.42	0.4602	-0.0646	-0.087	
-0.967094	0.101748	-0.321958	-0.84	-7	0.77	0.453	-0.0661	-0.0885	
-0.967094	0.096746	-0.312808	-1.26	-8.12	0.77	0.4588	-0.0646	-0.0901	
-0.97051	0.098454	-0.299144	-1.61	-7.56	0.63	0.4617	-0.0631	-0.0917	
-0.971852	0.100162	-0.293166	-1.61	-6.44	0.7	0.4574	-0.0661	-0.0962	
-0.972218	0.105164	-0.301096	-1.54	-5.95	0.7	0.4603	-0.0539	-0.1025	
-0.97783	0.106506	-0.30744	-1.47	-5.39	0.35	0.4559	-0.057	-0.0947	
-0.975024	0.112606	-0.291214	-1.82	-5.53	0.14	0.4589	-0.0615	-0.0963	
-0.977342	0.113582	-0.30683	-2.03	-5.18	0.14	0.4545	-0.066	-0.0946	
-0.986248	0.113948	-0.308538	-1.61	-4.13	0.21	0.4574	-0.063	-0.09779999	
-0.980392	0.108946	-0.306952	-1.61	-5.18	0.49	0.4689	-0.054	-0.0902	
-0.973194	0.11041	-0.312442	-1.33	-5.81	0.35	0.4589	-0.063	-0.1009	
-0.97661	0.115046	-0.306952	-0.91	-8.26	0.14	0.4575	-0.0508	-0.1102	
-0.981246	0.113338	-0.304878	-1.75	-8.75	-0.07	0.4604	-0.0554	-0.1071	
-0.987956	0.111386	-0.309148	-2.94	-10.01	0	0.4706	-0.06	-0.1149	
-0.97905	0.113948	-0.289628	-3.36	-11.97	0.56	0.4735	-0.0661	-0.1103	
-0.990884	0.111142	-0.292312	-4.2	-12.46	0.77	0.4562	-0.06439999	-0.1178	
-0.995032	0.110898	-0.288896	-4.34	-13.65	1.19	0.4604	-0.063	-0.1101	
-0.99186	0.11285	-0.2867	-4.83	-15.61	1.33	0.4589	-0.0554	-0.1086	
-1.00406	0.111874	-0.289994	-4.83	-16.66	1.54	0.4533	-0.0659	-0.1147	
-1.005524	0.108458	-0.288408	-4.83	-19.39	1.75	0.4605	-0.063	-0.1132	
-0.997838	0.109312	-0.283894	-4.9	-24.08	2.03	0.4606	-0.066	-0.124	
-0.999058	0.11651	-0.28548	-5.6	-24.08	1.96	0.4593	-0.06439999	-0.1379	
-0.999058	0.12078	-0.273768	-6.09	-26.39	1.82	0.4563	-0.0537	-0.1363	
-1.000278	0.126758	-0.260592	-6.65	-27.93	1.54	0.452	-0.0658	-0.1347	
-0.999546	0.130662	-0.245586	-7.84	-30.24	1.47	0.4536	-0.0612	-0.1532	
-0.99674	0.130418	-0.232532	-8.47	-31.99	1.75	0.4478	-0.0612	-0.1485	
-0.998692	0.13115	-0.217526	-8.54	-32.34	2.1	0.4479	-0.0672	-0.1531	
-1.005768	0.132126	-0.196664	-9.03	-32.9	2.87	0.4449	-0.0566	-0.1532	
-1.00772	0.137128	-0.180926	-9.59	-32.48	3.08	0.4423	-0.0671	-0.17	
-1.005768	0.136518	-0.176412	-10.78	-31.5	2.73	0.4538	-0.0611	-0.1717	
-1.000156	0.136152	-0.160674	-11.9	-30.94	1.96	0.4494	-0.0672	-0.1655	
-0.99369	0.133956	-0.149084	-13.23	-31.15	1.54	0.4496	-0.0595	-0.1856	
-0.99552	0.128588	-0.13603	-14.14	-29.82	1.26	0.435	-0.061	-0.1746	
-1.001864	0.12444	-0.112118	-14.14	-30.1	1.26	0.4351	-0.0457	-0.1947	
-1.001254	0.120536	-0.097234	-14.63	-31.15	1.47	0.4338	-0.0548	-0.1977	
-1.016016	0.119072	-0.089304	-15.68	-30.8	1.12	0.4382	-0.0594	-0.2009	
-1.0187	0.11529	-0.084058	-15.75	-31.29	1.05	0.4353	-0.0578	-0.207	
-1.022848	0.109312	-0.06222	-14.84	-35.14	1.4	0.4266	-0.0578	-0.2054	
-1.01443	0.102846	-0.049044	-12.81	-36.19	1.68	0.4282	-0.0547	-0.2208	
-1.017968	0.105408	-0.038796	-10.92	-37.24	1.96	0.4252	-0.0501	-0.2177	
-1.017236	0.108824	-0.0305	-8.75	-39.69	2.45	0.4167	-0.0515	-0.2269	
-1.02419	0.121146	-0.009516	-8.4	-41.09	2.38	0.4124	-0.0515	-0.2345	
-1.027118	0.127002	0.011102	-9.59	-40.04	2.45	0.4241	-0.0636	-0.2438	
-1.035292	0.13542	0.008174	-10.57	-39.9	2.66	0.4139	-0.0575	-0.2407	
-1.016016	0.142618	0.018056	-11.27	-42.98	3.08	0.4069	-0.0498	-0.2638	
-1.017236	0.153354	0.03294	-12.39	-43.54	3.08	0.404	-0.0574	-0.2591	
-1.024556	0.16409	0.066734	-13.44	-45.01	2.59	0.4026	-0.0558	-0.2652	
-1.016748	0.170922	0.09028	-15.54	-43.54	1.96	0.404	-0.0497	-0.2653	
-1.002718	0.16287	0.109678	-16.87	-43.33	1.82	0.4012	-0.0497	-0.276	
-0.99125	0.150426	0.126514	-15.96	-42.91	1.47	0.3925	-0.0542	-0.2698	
-0.985638	0.14335	0.137738	-13.09	-42	1.33	0.3926	-0.039	-0.2868	
-0.9943	0.140666	0.153232	-10.5	-43.05	1.19	0.3839	-0.0434	-0.2867	
-0.987224	0.138836	0.149572	-8.47	-44.87	1.61	0.3782	-0.0479	-0.2912	
-0.980392	0.140666	0.162504	-8.12	-46.55	1.89	0.371	-0.0372	-0.3035	
-0.967948	0.141154	0.183976	-8.33	-47.11	1.61	0.3639	-0.0508	-0.308	
-0.968924	0.138714	0.200812	-8.33	-47.46	1.68	0.3626	-0.0431	-0.325	
-0.96563	0.134322	0.220332	-8.4	-46.9	1.82	0.3437	-0.0369	-0.3202	
-0.958676	0.127612	0.23912	-7.84	-45.43	1.68	0.3526	-0.0369	-0.3419	
-0.94977	0.124806	0.247294	-7.7	-45.22	1.47	0.3498	-0.0414	-0.3511	
-0.949282	0.119194	0.262056	-7.98	-44.1	1.26	0.3412	-0.0383	-0.3587	
-0.938912	0.12017	0.283162	-8.26	-44.66	1.26	0.3413	-0.0504	-0.3571	
-0.931958	0.124196	0.304268	-7.63	-44.66	1.19	0.3252	-0.0442	-0.3508	
-0.919392	0.122976	0.328668	-7.42	-43.19	1.12	0.3282	-0.0366	-0.3586	
-0.915244	0.1159	0.341844	-8.05	-38.78	1.05	0.3211	-0.0441	-0.3723	
-0.909998	0.114192	0.354776	-7.56	-38.5	0.91	0.308	-0.0395	-0.3691	
-0.899994	0.126392	0.36844	-7.21	-37.17	0.63	0.3138	-0.0395	-0.3707	
-0.892552	0.132614	0.38918	-7.56	-36.33	0.77	0.3068	-0.0455	-0.3876	
-0.880108	0.132248	0.408212	-8.4	-35.28	1.19	0.298	-0.0318	-0.3845	
-0.870958	0.122488	0.424438	-9.1	-34.09	1.47	0.3009	-0.0318	-0.3876	
-0.859978	0.116998	0.442982	-9.03	-31.22	1.75	0.2967	-0.0393	-0.3891	
-0.848388	0.116876	0.44652	-7.84	-29.82	1.26	0.2852	-0.0468	-0.3997	
-0.843264	0.118584	0.453596	-7.28	-27.23	0.7	0.2779	-0.0285	-0.3982	
-0.84729	0.124196	0.453108	-6.79	-26.53	0.56	0.2737	-0.0345	-0.4073	
-0.846192	0.124318	0.465308	-6.86	-26.74	0.98	0.2707	-0.0284	-0.4027	
-0.8479	0.120902	0.470066	-6.93	-26.25	1.54	0.2795	-0.0436	-0.4104	
-0.848022	0.11529	0.478362	-7.56	-24.36	1.96	0.2721	-0.0209	-0.4074	
-0.85278	0.117608	0.477508	-7.7	-22.82	2.52	0.2665	-0.0238	-0.4181	
-0.852658	0.122366	0.493368	-6.65	-23.59	3.15	0.2651	-0.0283	-0.4242	
-0.859368	0.126148	0.500444	-5.81	-22.26	3.5	0.2664	-0.0284	-0.4088	
-0.85156	0.123952	0.50813	-4.9	-21	3.43	0.2505	-0.0222	-0.4149	
-0.848632	0.119438	0.51118	-4.41	-19.25	2.87	0.2548	-0.0176	-0.418	
-0.844728	0.121756	0.51362	-4.06	-18.06	2.31	0.2362	-0.0205	-0.4363	
-0.834602	0.126758	0.514352	-3.64	-16.8	2.03	0.2492	-0.0236	-0.4318	
-0.827648	0.131882	0.521184	-3.15	-15.05	2.03	0.2462	-0.0267	-0.4194	
-0.824842	0.13176	0.52216	-3.22	-14.77	2.31	0.242	-0.0281	-0.424	
-0.81679	0.125904	0.526918	-3.5	-13.86	2.66	0.2405	-0.0251	-0.4209	
-0.813862	0.12322	0.5368	-3.29	-12.39	2.73	0.2405	-0.0357	-0.4147	
-0.807518	0.12566	0.544974	-2.94	-10.85	2.59	0.2407	-0.025	-0.441	
-0.807152	0.127612	0.54168	-2.24	-9.1	2.45	0.2377	-0.0387	-0.427	
-0.81313	0.132614	0.543144	-1.96	-7.84	2.31	0.2306	-0.0356	-0.4362	
-0.823256	0.133834	0.54778	-2.24	-6.72	2.03	0.2421	-0.0326	-0.4379	
-0.819718	0.134444	0.553514	-1.96	-6.3	1.89	0.2362	-0.022	-0.4271	
-0.823744	0.135054	0.553514	-1.75	-4.48	1.33	0.2334	-0.025	-0.4347	
-0.81801	0.135054	0.55449	-1.19	-4.13	1.12	0.2276	-0.028	-0.43	
-0.822524	0.13237	0.549122	-1.19	-2.38	0.91	0.2304	-0.0265	-0.4285	
-0.821914	0.13481	0.549488	-0.98	-2.73	0.91	0.2233	-0.0264	-0.4408	
-0.822402	0.13298	0.550342	-0.63	-1.82	0.91	0.2261	-0.0143	-0.4347	
-0.816546	0.130052	0.549976	-0.42	-1.68	0.84	0.2247	-0.034	-0.433	
-0.820572	0.129198	0.546316	0	0	0.56	0.2335	-0.031	-0.4439	
-0.827648	0.128222	0.549122	0.21	-0.35	0.28	0.2233	-0.0249	-0.4439	
-0.82533	0.12688	0.549366	-0.07	-0.42	0.14	0.2261	-0.0249	-0.4362	
-0.82167	0.129442	0.552538	0	0	-0.07	0.2204	-0.0249	-0.4454	
-0.82289	0.127978	0.54961	0.28	0.77	-0.35	0.2247	-0.0173	-0.4455	
-0.823744	0.121878	0.549244	0.21	0.98	-0.63	0.2319	-0.0204	-0.4393	
-0.82045	0.121512	0.548268	0.21	1.33	-0.77	0.2321	-0.028	-0.4486	
-0.822036	0.123952	0.552172	0.7	0.42	-0.77	0.2261	-0.031	-0.4315	
-0.816546	0.128466	0.548756	1.05	2.17	-0.98	0.2246	-0.0204	-0.4331	
-0.81984	0.126636	0.548146	1.12	2.59	-1.05	0.2377	-0.022	-0.4363	
-0.819962	0.125172	0.550098	0.77	2.8	-1.05	0.2304	-0.0189	-0.4363	
-0.823622	0.127124	0.549366	0.98	3.01	-0.91	0.2131	-0.0309	-0.4329	
-0.824598	0.127612	0.54595	1.47	3.08	-0.91	0.2305	-0.0249	-0.4424	
-0.828258	0.126636	0.544364	1.47	4.2	-0.98	0.2247	-0.0325	-0.4269	
-0.829966	0.126026	0.545706	1.61	4.48	-0.84	0.2248	-0.031	-0.4408	
-0.827038	0.124562	0.55022	1.75	4.9	-0.63	0.2334	-0.028	-0.4316	
-0.821548	0.125172	0.549976	2.45	5.95	-0.42	0.2246	-0.025	-0.4254	
-0.815204	0.125782	0.548756	3.22	7.42	-0.49	0.2305	-0.0219	-0.4362	
-0.809714	0.126392	0.542046	3.78	8.89	-0.49	0.2319	-0.0296	-0.427	
-0.808372	0.124684	0.53924	3.92	9.94	-0.42	0.2334	-0.0341	-0.4285	
-0.802516	0.121024	0.53558	4.2	11.27	-0.63	0.2348	-0.0326	-0.4239	
-0.801296	0.120414	0.53802	4.48	12.04	-0.84	0.245	-0.0342	-0.4348	
-0.801662	0.12139	0.535214	4.9	14.42	-0.63	0.2491	-0.0282	-0.4195	
-0.800076	0.120658	0.534848	5.53	15.89	-0.49	0.2435	-0.0388	-0.4255	
-0.804346	0.123098	0.528504	6.37	18.06	-0.56	0.2392	-0.0342	-0.4301	
-0.810934	0.125172	0.52338	7.07	19.88	-0.77	0.2449	-0.0357	-0.424	
-0.81923	0.129198	0.492758	8.33	20.09	-0.91	0.2594	-0.0419	-0.4257	
-0.827282	0.128832	0.482144	8.05	26.39	-1.05	0.2563	-0.0328	-0.4133	
-0.825696	0.129564	0.50935	8.61	25.13	-1.47	0.271	-0.0481	-0.4196	
-0.834114	0.1342	0.490196	8.96	27.65	-1.4	0.2665	-0.039	-0.4119	
-0.845582	0.13908	0.461282	9.87	28.63	-1.33	0.265	-0.0345	-0.4057	
-0.83997	0.137738	0.455914	9.24	33.74	-1.12	0.2679	-0.042	-0.4088	
-0.856196	0.135542	0.438224	9.1	36.05	-1.12	0.2691	-0.0315	-0.3919	
-0.866444	0.132858	0.417362	9.24	38.64	-1.05	0.2809	-0.0421	-0.4074	
-0.8723	0.134688	0.413946	9.38	41.3	-1.19	0.291	-0.0514	-0.3967	
-0.880108	0.142252	0.39406	9.52	43.61	-1.33	0.2896	-0.0453	-0.3997	
-0.878644	0.146888	0.383568	8.96	44.17	-1.4	0.3039	-0.0363	-0.3907	
-0.887916	0.146888	0.364658	8.12	47.53	-1.47	0.2908	-0.0454	-0.3782	
-0.904996	0.14457	0.350262	7.28	48.58	-1.33	0.3022	-0.0394	-0.3691	
-0.918782	0.140056	0.336964	7.21	49.84	-1.68	0.3269	-0.0487	-0.3662	
-0.917318	0.136762	0.320738	7.49	49.7	-2.24	0.3181	-0.0457	-0.3615	
-0.931226	0.136762	0.301218	7.63	50.82	-3.22	0.3384	-0.0534	-0.3571	
-0.935008	0.139812	0.28975	8.54	49.42	-4.27	0.3369	-0.0489	-0.354	
-0.936838	0.140422	0.270718	8.75	49.35	-4.97	0.3411	-0.0489	-0.3402	
-0.95099	0.142496	0.253516	8.54	46.9	-5.46	0.3495	-0.0385	-0.3249	
-0.954284	0.148474	0.237046	8.82	44.52	-5.53	0.3554	-0.037	-0.3296	
-0.988932	0.15616	0.222894	11.27	37.24	-4.2	0.3541	-0.0567	-0.3325	
-0.977952	0.158478	0.206912	13.51	29.68	-2.03	0.3641	-0.0537	-0.325	
-0.989298	0.158234	0.191662	14.14	28.14	0.49	0.3668	-0.0432	-0.3158	
-0.978684	0.156038	0.166774	14.91	26.6	1.33	0.3698	-0.0614	-0.3111	
-0.995764	0.161772	0.130784	14.84	32.2	1.47	0.377	-0.0524	-0.3097	
-0.991738	0.160674	0.139202	14.91	31.15	1.4	0.3725	-0.0417	-0.3081	
-0.986858	0.154452	0.140544	12.74	34.86	0.49	0.3784	-0.0631	-0.2973	
-0.98027	0.152866	0.120658	12.11	34.02	-0.42	0.3769	-0.0524	-0.302	
-0.994788	0.154696	0.119072	12.11	33.67	-1.26	0.384	-0.051	-0.2897	
-1.001376	0.14762	0.09333	12.53	34.58	-2.31	0.384	-0.0586	-0.2835	
-1.01687	0.144204	0.096502	12.39	35.63	-3.43	0.3796	-0.0601	-0.2788	
-1.010648	0.129076	0.08906	12.81	37.8	-4.34	0.3955	-0.0587	-0.2775	
-1.020164	0.124562	0.058194	13.65	36.89	-4.13	0.4027	-0.0634	-0.2683	
-1.027972	0.131882	0.030622	14.07	38.29	-3.15	0.4012	-0.0679	-0.2667	
-1.030046	0.150914	-0.002074	13.93	35.77	-2.38	0.4098	-0.0695	-0.2575	
-1.053714	0.167994	-0.003294	13.02	34.93	-2.66	0.3997	-0.0664	-0.2528	
-1.052006	0.153476	-0.01952	10.71	30.73	-2.94	0.4025	-0.0619	-0.2467	
-1.0431	0.136884	-0.023546	9.66	27.86	-2.52	0.4199	-0.0636	-0.2515	
-1.02602	0.129076	-0.025498	9.38	32.41	-2.8	0.4155	-0.06659999	-0.2499	
-1.020652	0.128832	-0.042578	10.01	33.32	-3.36	0.4096	-0.0681	-0.2283	
-1.021506	0.130296	-0.062342	10.5	30.87	-3.43	0.4197	-0.0667	-0.2299	
-1.035048	0.133712	-0.071492	11.13	28.91	-3.64	0.4198	-0.0773	-0.2329	
-1.042124	0.137006	-0.074542	10.78	24.22	-3.36	0.4254	-0.0592	-0.2269	
-1.037122	0.138836	-0.08723	8.82	23.73	-2.52	0.4239	-0.0622	-0.2238	
-1.03029	0.142496	-0.09076799	7.63	23.24	-1.4	0.4254	-0.0622	-0.2238	
-1.02785	0.143106	-0.09577	6.3	22.05	-0.21	0.4369	-0.0669	-0.2193	
-1.02236	0.14091	-0.10065	5.46	22.61	0.42	0.4296	-0.0684	-0.2084	
-1.005158	0.13969	-0.094428	5.32	20.51	0.07	0.4281	-0.0669	-0.2053	
-1.009062	0.13969	-0.107604	4.97	21.7	-0.91	0.4353	-0.0578	-0.2039	
-1.016748	0.143228	-0.116998	4.48	18.62	-1.61	0.4324	-0.0715	-0.193	
-1.016504	0.14396	-0.116266	4.13	18.69	-1.75	0.4352	-0.07	-0.1869	
-1.008452	0.14274	-0.122488	3.85	19.18	-1.68	0.441	-0.0655	-0.1885	
-1.006256	0.148108	-0.12749	3.99	18.69	-1.75	0.4366	-0.061	-0.1839	
-1.001986	0.149694	-0.127124	3.92	17.43	-1.82	0.4309	-0.0746	-0.1822	
-1.003206	0.14945	-0.123098	3.43	17.71	-2.38	0.4452	-0.0626	-0.1809	
-1.001132	0.152378	-0.12261	4.13	15.26	-3.29	0.4366	-0.0716	-0.1838	
-1.003938	0.152988	-0.127002	3.92	15.89	-4.34	0.441	-0.0716	-0.187	
-1.006012	0.141764	-0.139324	4.34	16.17	-4.97	0.438	-0.0655	-0.1777	
-1.008452	0.139324	-0.15067	4.9	16.24	-5.11	0.4468	-0.07319999	-0.1839	
-0.997594	0.13176	-0.163968	4.76	15.47	-4.83	0.4509	-0.0627	-0.1671	
-0.994056	0.125904	-0.165554	5.11	15.05	-4.41	0.4408	-0.0747	-0.1638	
-1.003938	0.119682	-0.164334	5.81	14.07	-4.2	0.4394	-0.0641	-0.1746	
-1.015406	0.109434	-0.180438	6.72	13.65	-4.2	0.4451	-0.0657	-0.1639	
-1.01504	0.108702	-0.19093	7.42	13.23	-3.85	0.4436	-0.0687	-0.1562	
-1.004914	0.111996	-0.19947	7.14	13.72	-3.71	0.4393	-0.0687	-0.1592	
-0.99674	0.110044	-0.21838	6.72	11.9	-3.71	0.4552	-0.0673	-0.1578	
-0.99491	0.1159	-0.200568	6.09	9.87	-3.43	0.4451	-0.0626	-0.1639	
-1.000034	0.117608	-0.19886	4.2	9.94	-2.87	0.4508	-0.0612	-0.1624	
-0.99613	0.116754	-0.191418	2.87	10.99	-2.1	0.4465	-0.0596	-0.1609	
-0.993568	0.10858	-0.196542	2.8	10.78	-1.68	0.4493	-0.0596	-0.1609	
-0.996862	0.102358	-0.200568	2.94	9.87	-1.33	0.4506	-0.0613	-0.1424	
-0.999912	0.10004	-0.219478	2.59	9.24	-1.12	0.4449	-0.0521	-0.1547	
-0.99857	0.107238	-0.23241	3.22	7.35	-1.12	0.4507	-0.0597	-0.1501	
-0.99552	0.115778	-0.235826	3.15	5.32	-0.98	0.4507	-0.0643	-0.1439	
-0.99186	0.115656	-0.238022	2.38	4.06	-0.56	0.4522	-0.0718	-0.1485	
-0.991616	0.113704	-0.240584	1.68	2.8	-0.28	0.4391	-0.0672	-0.1407	
-0.995032	0.116876	-0.225578	1.05	2.24	-0.28	0.4462	-0.0597	-0.1362	
-0.99796	0.119072	-0.228872	0.35	2.1	-0.42	0.4507	-0.0658	-0.1486	
-0.994544	0.112972	-0.223016	-0.7	2.03	-0.56	0.4608	-0.0628	-0.1425	
-0.98637	0.106872	-0.225578	-1.12	1.54	-0.42	0.4535	-0.0598	-0.1424	
-0.989786	0.10553	-0.213134	-1.05	0.63	-0.35	0.4492	-0.0582	-0.1517	
-0.997594	0.107604	-0.21411	-0.63	1.19	-0.42	0.4535	-0.0598	-0.1394	
-0.996374	0.109312	-0.217038	0.14	1.19	-0.28	0.4536	-0.0643	-0.144	
-0.984906	0.10797	-0.226188	0.14	1.54	-0.07	0.4565	-0.0689	-0.1471	
-0.983564	0.10736	-0.218868	0.07	0.49	0.07	0.4491	-0.0506	-0.1455	
-0.991616	0.106872	-0.218014	0	0.35	0.07	0.4419	-0.0612	-0.1377	
-0.994666	0.10858	-0.22326	0.14	1.26	0	0.4534	-0.0507	-0.1425	
-0.99186	0.110166	-0.229482	0.28	1.12	0	0.452	-0.0643	-0.1378	
-0.98881	0.108946	-0.224358	0.07	0.7	0	0.4434	-0.0643	-0.1377	
-0.986248	0.10675	-0.217404	-0.77	0.7	0.21	0.4507	-0.0643	-0.147	
-0.99247	0.104554	-0.219356	-0.49	0.49	0.28	0.4461	-0.0537	-0.1285	
-0.99125	0.10858	-0.218746	0.07	1.05	0.35	0.4535	-0.0643	-0.1378	
-0.98881	0.110898	-0.22143	0.77	1.82	0.35	0.4608	-0.0628	-0.1502	
-0.992958	0.111142	-0.225822	0.7	1.47	0.42	0.4521	-0.0597	-0.144	
-0.994544	0.11285	-0.225822	-0.77	2.03	0.28	0.4607	-0.0659	-0.1379	
-0.990152	0.113704	-0.22875	-1.47	2.38	0.35	0.4536	-0.0643	-0.1486	
-0.988932	0.112606	-0.227042	-1.19	2.17	0.49	0.4549	-0.0613	-0.1347	
-0.991128	0.112728	-0.225822	-1.05	2.03	0.63	0.4433	-0.0627	-0.1362	
-0.996984	0.110776	-0.229116	-1.19	1.96	0.49	0.4579	-0.0719	-0.1393	
-0.996984	0.107482	-0.232044	-1.05	1.68	0.49	0.4463	-0.06879999	-0.1408	
-0.992348	0.105652	-0.231312	-0.84	1.54	0.49	0.4579	-0.0659	-0.1394	
-0.992348	0.11224	-0.238266	-0.42	0.56	0.42	0.4492	-0.0612	-0.1439	
-0.990518	0.111142	-0.228506	-0.28	-0.7	0.49	0.4536	-0.0704	-0.1409	
-0.99552	0.117974	-0.235582	-0.21	-1.75	0.56	0.4492	-0.0628	-0.1424	
-1.004304	0.120292	-0.24583	-0.56	-1.82	0.42	0.4477	-0.0582	-0.1439	
-1.003572	0.117852	-0.254126	-1.82	-3.71	0.56	0.4535	-0.0628	-0.1363	
-1.00345	0.11834	-0.259738	-2.24	-5.18	0.84	0.4506	-0.0628	-0.1393	
-1.006378	0.116266	-0.249002	-3.15	-6.23	0.63	0.4491	-0.0613	-0.1378	
-1.00894	0.115412	-0.247782	-3.64	-8.89	0.77	0.4564	-0.0643	-0.1409	
-1.003816	0.116144	-0.23119	-3.85	-9.8	1.12	0.4492	-0.0673	-0.1377	
-1.007476	0.111752	-0.24461	-3.78	-10.5	1.05	0.452	-0.0598	-0.1332	
-1.001864	0.116754	-0.23424	-2.94	-13.3	1.12	0.4536	-0.0673	-0.147	
-1.008574	0.119926	-0.228018	-2.38	-13.51	0.91	0.4565	-0.0643	-0.1517	
-1.010892	0.121512	-0.228628	-2.73	-14.77	0.77	0.4537	-0.0673	-0.1547	
-1.014796	0.121512	-0.221064	-2.94	-17.78	1.12	0.4492	-0.0597	-0.1455	
-1.010038	0.119438	-0.213378	-3.92	-18.69	1.12	0.4508	-0.0642	-0.1547	
-1.008574	0.119072	-0.199226	-4.83	-19.25	1.4	0.4509	-0.0717	-0.1686	
-1.013332	0.124684	-0.197396	-5.04	-21.49	1.82	0.4481	-0.07319999	-0.1701	
-1.018578	0.125294	-0.19459	-5.95	-21.21	1.4	0.4407	-0.058	-0.1654	
-1.018822	0.127612	-0.191052	-6.72	-22.4	1.19	0.4379	-0.0671	-0.1684	
-1.0187	0.130052	-0.189588	-7.28	-23.66	0.84	0.451	-0.0687	-0.1732	
-1.018944	0.12993	-0.18178	-8.4	-23.73	0.63	0.4496	-0.0671	-0.1778	
-1.01687	0.127734	-0.172264	-9.31	-24.85	0.84	0.4395	-0.0655	-0.1854	
-1.01504	0.123586	-0.157868	-9.8	-24.92	0.84	0.4425	-0.064	-0.1963	
-1.020164	0.11834	-0.151646	-10.78	-24.08	0.42	0.4381	-0.064	-0.1916	
-1.02602	0.117242	-0.137738	-10.92	-24.85	0.07	0.4339	-0.0654	-0.2008	
-1.024312	0.118584	-0.143838	-11.97	-28	0.35	0.4411	-0.0594	-0.207	
-1.036024	0.12078	-0.123586	-12.67	-31.36	0.21	0.4267	-0.0638	-0.21	
-1.030412	0.119194	-0.10614	-13.65	-33.81	0.7	0.434	-0.0562	-0.2178	
-1.027728	0.116022	-0.09699	-14.07	-39.13	1.54	0.4254	-0.0561	-0.2269	
-1.038708	0.119804	-0.06161	-13.58	-40.39	2.38	0.4167	-0.0591	-0.2284	
-1.019188	0.116998	-0.056852	-13.44	-46.76	3.15	0.4212	-0.0606	-0.2377	
-1.01809	0.116022	-0.030744	-12.88	-49.7	3.01	0.4125	-0.0514	-0.2422	
-1.027484	0.114802	-0.004758	-12.81	-50.61	2.03	0.411	-0.0575	-0.2329	
-1.02724	0.118584	0.012688	-13.09	-53.34	1.89	0.4112	-0.0589	-0.2545	
-1.034804	0.124074	0.033062	-14	-55.79	1.68	0.4084	-0.0513	-0.2684	
-1.04676	0.13664	0.069784	-15.05	-54.04	1.4	0.4039	-0.0422	-0.2607	
-1.045418	0.147864	0.091256	-15.61	-52.01	1.19	0.3999	-0.0527	-0.2837	
-1.027118	0.149694	0.105164	-15.12	-51.17	1.61	0.3956	-0.0511	-0.2929	
-1.024678	0.13908	0.104554	-14.14	-51.66	2.38	0.3941	-0.0495	-0.2929	
-1.01565	0.139202	0.131394	-13.58	-54.32	3.57	0.3783	-0.0433	-0.3097	
-0.993446	0.137738	0.148108	-12.53	-59.22	5.04	0.3683	-0.0447	-0.3143	
-0.964044	0.137494	0.176534	-12.32	-60.2	5.74	0.3698	-0.0462	-0.3173	
-0.956724	0.13725	0.191296	-13.37	-55.86	5.88	0.3654	-0.0492	-0.3173	
-0.962336	0.134932	0.21106	-13.58	-55.44	6.79	0.3612	-0.04	-0.3312	
-0.958676	0.131882	0.226066	-13.3	-54.6	7.56	0.3555	-0.0384	-0.3481	
-0.94733	0.123464	0.252296	-13.51	-54.25	7.84	0.341	-0.0353	-0.3433	
-0.932446	0.116632	0.270474	-13.51	-53.97	7.14	0.3397	-0.0443	-0.354	
-0.917684	0.111752	0.303658	-13.02	-52.5	5.6	0.3298	-0.0518	-0.3662	
-0.911584	0.11163	0.32086	-11.97	-51.1	4.06	0.3269	-0.0502	-0.3677	
-0.911462	0.106994	0.339038	-11.2	-48.09	2.38	0.3182	-0.035	-0.3754	
-0.90036	0.105286	0.35014	-10.43	-47.53	1.26	0.3152	-0.032	-0.3662	
-0.888282	0.113826	0.371978	-8.96	-48.23	0.56	0.3053	-0.0515	-0.3783	
-0.876936	0.11834	0.384422	-8.54	-47.67	0.28	0.3097	-0.0485	-0.3876	
-0.859734	0.127978	0.408944	-8.82	-45.5	0.14	0.301	-0.0378	-0.3937	
-0.847168	0.136884	0.427488	-8.26	-44.03	0.42	0.2853	-0.0391	-0.409	
-0.834724	0.140422	0.446032	-7.98	-41.02	0.98	0.2894	-0.0256	-0.3968	
-0.82899	0.137982	0.460428	-8.68	-38.85	1.12	0.278	-0.0346	-0.4043	
-0.82899	0.135786	0.475068	-9.45	-35.42	1.54	0.2679	-0.0345	-0.4088	
-0.82167	0.131394	0.486048	-8.68	-34.16	1.96	0.2664	-0.0284	-0.4042	
-0.819108	0.127368	0.5002	-7.28	-33.25	1.82	0.2592	-0.0268	-0.4149	
-0.80703	0.128222	0.515084	-6.44	-31.99	1.33	0.2593	-0.042	-0.4133	
-0.801906	0.125538	0.517768	-6.3	-28	0.14	0.2623	-0.0389	-0.4211	
-0.79971	0.12566	0.527284	-5.39	-25.76	-0.28	0.252	-0.0252	-0.418	
-0.791536	0.124806	0.52826	-4.41	-25.2	-0.14	0.2479	-0.0357	-0.4302	
-0.790438	0.123708	0.534848	-4.06	-22.96	-0.28	0.2478	-0.0358	-0.4209	
-0.791658	0.122732	0.53253	-3.99	-20.16	-0.56	0.2479	-0.0296	-0.4348	
-0.819596	0.127124	0.501298	-3.57	-19.39	-0.84	0.232	-0.0341	-0.4347	
-0.793122	0.11895	0.616222	-4.34	-21.42	-1.19	0.232	-0.0341	-0.4347	
-0.818376	0.113582	0.554368	-4.2	-13.44	-0.91	0.229	-0.025	-0.4362	
-0.809714	0.11346	0.56303	-4.34	-9.17	-0.77	0.2305	-0.0356	-0.4316	
-0.810568	0.111386	0.560102	-4.06	-7.35	-0.77	0.2262	-0.0325	-0.4361	
-0.811544	0.113826	0.548756	-3.43	-8.54	-0.7	0.2291	-0.028	-0.4439	
-0.810202	0.112362	0.5551	-3.43	-6.16	-1.05	0.2189	-0.0233	-0.4407	
-0.814716	0.113216	0.552782	-2.66	-4.13	-1.19	0.2217	-0.0128	-0.4377	
-0.815326	0.115656	0.551806	-1.82	-4.9	-1.05	0.2276	-0.0234	-0.4362	
-0.815326	0.112728	0.549976	-1.61	-4.34	-0.98	0.2363	-0.0265	-0.4409	
-0.8235	0.110898	0.550708	-1.61	-2.59	-0.77	0.2175	-0.0294	-0.4392	
-0.829478	0.111752	0.550464	-0.49	-2.59	-0.07	0.2146	-0.0248	-0.4407	
-0.831796	0.11224	0.55754	0.14	-2.87	0.35	0.2275	-0.0174	-0.4362	
-0.832772	0.114436	0.554246	0.07	-1.82	0.42	0.2232	-0.0249	-0.43	
-0.83021	0.116876	0.552416	-0.21	-1.05	0.14	0.2304	-0.0143	-0.4378	
-0.82655	0.115656	0.551074	-0.42	-0.7	-0.14	0.2219	-0.0294	-0.4454	
-0.826184	0.111752	0.554856	-0.42	-0.7	-0.28	0.2219	-0.0294	-0.4423	
-0.826916	0.103822	0.560224	-0.14	-0.84	-0.35	0.2261	-0.0188	-0.4408	
-0.8235	0.103944	0.56059	0.42	-0.56	-0.35	0.2218	-0.0249	-0.4392	
-0.825208	0.11041	0.55693	0.98	-0.07	-0.07	0.2247	-0.0173	-0.4424	
-0.818986	0.114558	0.552294	1.26	-1.61	0.21	0.2188	-0.0264	-0.4253	
-0.82472	0.11712	0.548756	0.7	-0.91	0.07	0.2204	-0.0218	-0.4438	
-0.826062	0.115778	0.55388	0.42	-0.98	0.14	0.2161	-0.0248	-0.4422	
-0.824354	0.112484	0.553636	0.28	-0.49	0.28	0.2262	-0.0249	-0.4439	
-0.820206	0.111264	0.554246	0.42	-0.77	0.42	0.232	-0.0265	-0.4424	
-0.826306	0.11468	0.554856	0.49	0.28	0.35	0.2233	-0.0264	-0.4361	
-0.828136	0.116388	0.556076	0.28	-0.63	0.56	0.2189	-0.0249	-0.433	
-0.82411	0.114436	0.555832	0.14	-0.21	0.56	0.2261	-0.0219	-0.4377	
-0.823256	0.112606	0.551928	-0.07	0.07	0.49	0.2289	-0.0174	-0.4301	
-0.820328	0.108702	0.557418	-0.35	-0.07	0.35	0.2261	-0.0249	-0.4331	
-0.820084	0.109068	0.560224	-0.21	0	0.42	0.2262	-0.0264	-0.4439	
-0.821426	0.111996	0.56242	0.49	-0.21	0.63	0.2175	-0.037	-0.4345	
-0.819718	0.1159	0.563152	0.77	0.21	0.56	0.2277	-0.0234	-0.4455	
-0.815936	0.119316	0.562786	0.98	0.63	0.35	0.219	-0.0339	-0.4438	
-0.813862	0.118584	0.564128	0.63	1.26	0.07	0.2232	-0.0204	-0.4393	
-0.80886	0.11651	0.566202	0.42	1.75	0.21	0.2175	-0.0233	-0.4438	
-0.805688	0.113704	0.56974	0.63	2.45	0.49	0.2248	-0.0325	-0.4377	
-0.800198	0.11102	0.570228	1.19	3.5	0.84	0.2246	-0.0204	-0.4331	
-0.797514	0.112728	0.569374	1.68	4.48	1.19	0.2277	-0.0264	-0.447	
-0.795562	0.114436	0.570472	2.03	5.95	1.33	0.2276	-0.0249	-0.4424	
-0.794342	0.113582	0.568276	2.03	7.7	1.19	0.2305	-0.025	-0.4331	
-0.790194	0.111386	0.565714	2.52	8.96	1.05	0.2262	-0.028	-0.4393	
-0.78751	0.112484	0.560102	3.08	10.29	0.7	0.2248	-0.0325	-0.4408	
-0.788242	0.112484	0.559858	3.36	11.76	0.28	0.2219	-0.0279	-0.4485	
-0.7869	0.109678	0.554734	3.78	13.65	0.21	0.2407	-0.0341	-0.4378	
-0.787876	0.11041	0.553758	4.55	15.26	0.28	0.2421	-0.0372	-0.4363	
-0.793732	0.115534	0.546194	5.67	17.43	0.21	0.232	-0.031	-0.4393	
-0.803614	0.122244	0.524722	6.37	20.09	0.07	0.2364	-0.0356	-0.4378	
-0.806298	0.12322	0.534238	6.65	21.42	0	0.2478	-0.0282	-0.4287	
-0.812886	0.124074	0.503128	7.42	21.7	-0.07	0.2463	-0.0327	-0.4256	
-0.817644	0.12322	0.486292	7.21	26.74	-0.07	0.2521	-0.0297	-0.4272	
-0.81252	0.124562	0.527528	8.05	26.74	-0.42	0.2564	-0.0358	-0.421	
-0.820816	0.11956	0.52521	8.68	27.23	-0.35	0.2477	-0.0373	-0.4148	
-0.832528	0.122244	0.477508	9.73	30.8	-0.35	0.2724	-0.039	-0.4258	
-0.835944	0.124318	0.47275	10.36	32.2	-0.56	0.2709	-0.042	-0.4134	
-0.843142	0.128588	0.451156	10.43	35.21	-0.91	0.2679	-0.0375	-0.4104	
-0.856074	0.132004	0.44164	10.57	38.57	-1.4	0.2751	-0.0345	-0.4074	
-0.866322	0.133346	0.43005	10.64	42.21	-1.82	0.2779	-0.0361	-0.4012	
-0.874374	0.139934	0.420046	10.99	43.89	-2.1	0.2881	-0.0453	-0.3982	
-0.873764	0.141886	0.403576	10.85	46.41	-2.59	0.2953	-0.0468	-0.3952	
-0.887062	0.14457	0.386984	10.15	49.21	-3.29	0.2895	-0.0498	-0.3936	
-0.904264	0.148962	0.369782	9.52	50.89	-3.64	0.301	-0.0409	-0.3845	
-0.905484	0.149328	0.359412	8.47	51.94	-3.78	0.3169	-0.0425	-0.3877	
-0.911096	0.145302	0.33062	7.77	51.17	-3.5	0.3182	-0.0395	-0.3723	
-0.917806	0.14152	0.304878	7.63	52.01	-3.29	0.3153	-0.0426	-0.3677	
-0.922198	0.137006	0.286822	8.47	49.56	-3.01	0.3341	-0.0457	-0.3709	
-0.927688	0.134688	0.283162	8.82	51.17	-3.5	0.3368	-0.0474	-0.3509	
-0.941596	0.138348	0.261812	9.87	48.58	-4.2	0.3455	-0.049	-0.3464	
-0.963556	0.146034	0.261568	10.57	46.62	-4.76	0.3526	-0.043	-0.3403	
-1.00101	0.144814	0.243878	11.69	37.8	-3.85	0.3498	-0.0475	-0.3418	
-0.992348	0.147986	0.224724	12.67	28.14	-2.38	0.354	-0.0476	-0.331	
-0.977952	0.147376	0.210694	13.02	25.48	-0.49	0.3599	-0.0628	-0.331	
-0.96685	0.144326	0.202154	11.76	28.98	0	0.3728	-0.0523	-0.3266	
-0.96685	0.141154	0.184586	11.34	31.01	-0.63	0.3626	-0.0522	-0.3172	
-0.980636	0.12993	0.19459	9.8	37.24	-0.7	0.3713	-0.0523	-0.3173	
-0.984784	0.132004	0.178974	12.6	37.38	-1.19	0.3798	-0.0479	-0.3066	
-1.008818	0.14091	0.159942	14	36.61	-1.75	0.3842	-0.0555	-0.3036	
-1.018578	0.14335	0.13969	14.42	35.98	-2.59	0.3711	-0.0676	-0.2926	
-1.015162	0.14091	0.121756	15.75	37.52	-4.41	0.3942	-0.0586	-0.2929	
-1.007842	0.132858	0.080764	16.1	41.51	-6.44	0.3942	-0.0586	-0.2944	
-1.016504	0.13847	0.065514	16.52	42.98	-7.28	0.3897	-0.0602	-0.2759	
-1.018944	0.134932	0.031964	16.1	44.31	-7.14	0.3926	-0.0648	-0.2743	
-1.015528	0.135786	0.020862	16.45	42.49	-6.79	0.4026	-0.0558	-0.2668	
-1.01016	0.12932	0.00549	15.12	42.42	-6.3	0.4011	-0.0513	-0.2606	
-1.015406	0.128222	0.008296	13.79	38.78	-6.02	0.4084	-0.0604	-0.2668	
-1.020164	0.129076	0.012932	12.32	36.68	-5.53	0.4097	-0.065	-0.2468	
-1.027972	0.128588	0.008905999	10.78	36.12	-5.18	0.4141	-0.062	-0.253	
-1.020652	0.118462	-0.023302	10.01	36.54	-5.11	0.4082	-0.06659999	-0.2375	
-1.03822	0.119926	-0.03538	11.41	39.41	-5.67	0.4153	-0.0712	-0.2252	
-1.03151	0.109068	-0.049166	12.11	38.92	-6.3	0.4256	-0.0697	-0.2407	
-1.034438	0.10553	-0.080764	11.69	35.35	-5.88	0.4225	-0.0622	-0.2253	
-1.037732	0.107726	-0.10553	11.2	34.3	-5.46	0.4268	-0.0638	-0.2177	
-1.031754	0.119072	-0.12444	10.78	30.87	-4.9	0.434	-0.0684	-0.2085	
-1.032852	0.12444	-0.130784	9.45	31.85	-4.48	0.428	-0.0639	-0.1992	
-1.031632	0.128832	-0.140666	8.33	30.24	-4.06	0.431	-0.0623	-0.2085	
-1.036024	0.124562	-0.152988	6.65	28.42	-3.78	0.4382	-0.0715	-0.1977	
-1.035658	0.115778	-0.164944	5.11	26.67	-3.36	0.4308	-0.0578	-0.1931	
-1.023702	0.113216	-0.177754	4.41	24.5	-3.15	0.4437	-0.0656	-0.1762	
-1.024556	0.111264	-0.171044	3.85	22.4	-2.94	0.4438	-0.0671	-0.1839	
-1.020652	0.111996	-0.174216	3.15	19.6	-2.52	0.4394	-0.061	-0.1762	
-1.019676	0.111996	-0.177998	2.59	18.62	-2.8	0.4379	-0.0519	-0.1808	
-1.0126	0.105164	-0.18239	1.89	16.03	-2.8	0.4408	-0.0595	-0.1762	
-1.010282	0.098454	-0.167994	1.26	17.01	-2.52	0.4437	-0.061	-0.1793	
-1.000278	0.09357399	-0.161406	1.47	15.33	-1.75	0.448	-0.0611	-0.167	
-1.00223	0.095404	-0.15433	2.1	17.78	-1.54	0.4364	-0.055	-0.1669	
-1.0004	0.104676	-0.161528	2.59	17.5	-1.75	0.445	-0.0551	-0.1624	
-1.012112	0.102968	-0.17751	2.73	17.92	-2.17	0.4493	-0.0551	-0.1625	
-1.017968	0.101748	-0.19215	3.29	18.69	-2.31	0.4536	-0.0597	-0.1532	
-1.000644	0.089426	-0.197274	3.08	18.76	-1.82	0.4565	-0.0567	-0.1548	
-0.985882	0.084668	-0.193736	3.5	18.34	-1.26	0.4508	-0.0627	-0.1594	
-0.989908	0.084058	-0.196542	4.27	17.64	-0.98	0.4434	-0.0597	-0.1485	
-1.00345	0.097356	-0.194224	5.6	17.29	-0.84	0.4578	-0.0553	-0.1394	
-1.004548	0.101748	-0.216184	4.76	18.76	-0.77	0.4506	-0.0506	-0.1471	
-0.996374	0.10126	-0.237778	4.55	18.69	-1.12	0.4607	-0.0629	-0.1394	
-0.986736	0.105652	-0.241194	4.55	16.45	-0.91	0.4491	-0.0643	-0.1331	
-0.984662	0.109068	-0.24461	3.92	15.12	-0.63	0.4594	-0.0689	-0.144	
-0.984418	0.109434	-0.263398	3.08	14.42	-0.63	0.4564	-0.0659	-0.1378	
-0.986248	0.101138	-0.263764	2.8	13.09	-0.7	0.452	-0.0704	-0.1316	
-0.98698	0.098454	-0.263642	2.38	12.32	-0.84	0.465	-0.0675	-0.1271	
-0.982222	0.09857599	-0.266204	1.4	12.11	-0.91	0.4533	-0.0507	-0.1271	
-0.987346	0.099064	-0.265228	1.89	10.92	-0.77	0.4575	-0.0493	-0.1148	
-0.984906	0.09516	-0.257298	1.54	11.2	-0.49	0.4562	-0.06439999	-0.1209	
-0.97844	0.099796	-0.26413	0.56	12.46	-0.14	0.4533	-0.0538	-0.1255	
-0.974902	0.09357399	-0.254614	-0.7	13.09	0.14	0.4606	-0.0675	-0.124	
-0.984662	0.08723	-0.265838	-0.84	13.72	0.28	0.4591	-0.0706	-0.1101	
-0.991494	0.091256	-0.270596	0.21	13.72	0.42	0.4662	-0.0554	-0.1164	
-0.988322	0.089426	-0.285846	0.77	14	0.35	0.456	-0.0554	-0.1086	
-0.979294	0.087352	-0.303658	1.12	13.23	0.21	0.4648	-0.0524	-0.1149	
-0.97478	0.092842	-0.313784	1.96	11.9	0.14	0.4576	-0.0614	-0.1147	
-0.973072	0.098698	-0.318298	1.61	11.06	-0.21	0.466	-0.051	-0.0964	
-0.970754	0.099796	-0.32513	0.49	9.59	0.14	0.4573	-0.0509	-0.0963	
-0.973072	0.10126	-0.327692	-0.21	8.19	0.35	0.4704	-0.0586	-0.0979	
-0.981246	0.099552	-0.332816	-0.42	6.02	0.14	0.4561	-0.063	-0.107	
-0.978806	0.101748	-0.333304	-0.7	4.55	0.07	0.4574	-0.06	-0.09779999	
-0.969168	0.096624	-0.33489	-0.28	3.64	0.07	0.4662	-0.0676	-0.1025	
-0.963922	0.096746	-0.333304	-0.07	1.82	0.07	0.4618	-0.0554	-0.1056	
-0.974902	0.101016	-0.325618	0.56	0.28	-0.07	0.4618	-0.0691	-0.0962	
-0.980758	0.100894	-0.316224	0.49	-0.49	-0.14	0.456	-0.0599	-0.1055	
-0.972096	0.099918	-0.32208	-0.91	-0.35	0.14	0.4631	-0.0585	-0.0932	
-0.968924	0.091988	-0.319762	-1.68	-0.98	0.63	0.4633	-0.0646	-0.1024	
-0.969046	0.09076799	-0.30622	-1.12	-1.47	0.56	0.4603	-0.0631	-0.0901	
-0.976122	0.093696	-0.305732	-1.19	-1.4	0.14	0.4618	-0.0554	-0.1056	
-0.976732	0.10065	-0.310734	-0.77	-0.63	-0.14	0.4646	-0.0585	-0.0948	
-0.973316	0.101992	-0.318176	-0.28	0	0	0.4617	-0.0525	-0.0948	
-0.97478	0.096136	-0.319152	-0.98	-0.35	0.21	0.4603	-0.0585	-0.0994	
-0.97539	0.091744	-0.322324	-1.12	-2.38	0.21	0.4588	-0.0524	-0.0948	
-0.978806	0.09333	-0.321836	-1.33	-2.52	0.28	0.4545	-0.0584	-0.0993	
-0.97356	0.09357399	-0.323422	-1.54	-3.15	0.28	0.4675	-0.0646	-0.0932	
-0.973438	0.091744	-0.315248	-0.77	-4.83	0.28	0.4646	-0.057	-0.0979	
-0.977708	0.093208	-0.309026	0	-5.46	0.07	0.4531	-0.0569	-0.107	
-0.976122	0.099674	-0.314028	0.07	-6.58	0	0.4618	-0.0554	-0.104	
-0.972706	0.103944	-0.31415	-0.56	-5.88	0	0.4588	-0.057	-0.09779999	
-0.973804	0.104188	-0.311588	-1.33	-8.05	0.07	0.4663	-0.0645	-0.1133	
-0.982222	0.101748	-0.299754	-2.24	-8.96	0.21	0.4503	-0.0584	-0.1085	
-0.985272	0.09699	-0.300852	-2.45	-9.17	0.49	0.456	-0.0569	-0.107	
-0.98393	0.097356	-0.302804	-2.17	-9.17	0.7	0.4619	-0.0615	-0.1148	
-0.981734	0.10248	-0.297314	-2.03	-10.78	0.84	0.4604	-0.0539	-0.1117	
-0.98637	0.102846	-0.291458	-3.29	-11.76	0.98	0.4575	-0.0523	-0.1163	
-0.984906	0.101382	-0.294264	-3.64	-12.39	0.98	0.4575	-0.0523	-0.1163	
-0.98332	0.10309	-0.288164	-3.57	-14.07	0.77	0.4606	-0.0584	-0.1256	
-0.98759	0.101748	-0.279502	-3.78	-15.12	0.49	0.4504	-0.0553	-0.1209	
-0.987102	0.10065	-0.273646	-3.43	-16.24	0.28	0.4548	-0.0507	-0.1332	
-0.986248	0.098454	-0.263154	-3.01	-16.8	0.49	0.4634	-0.0539	-0.121	
-0.98576	0.097722	-0.25437	-3.22	-17.29	0.84	0.4649	-0.0584	-0.1272	
-0.980148	0.101626	-0.231434	-3.29	-19.11	1.19	0.4635	-0.0568	-0.1318	
-0.993202	0.104188	-0.233264	-3.71	-16.73	0.84	0.4592	-0.0583	-0.1317	
-0.992714	0.105408	-0.22143	-3.5	-16.45	0.77	0.4564	-0.0674	-0.1363	
-0.995032	0.10675	-0.224846	-3.43	-15.96	0.42	0.458	-0.06879999	-0.1563	
-0.995276	0.105652	-0.22631	-3.85	-16.1	0.07	0.4463	-0.0627	-0.1439	
-0.999424	0.105408	-0.223138	-3.85	-17.08	0.14	0.455	-0.0597	-0.1502	
-1.004182	0.10797	-0.219844	-3.78	-16.87	0.35	0.4521	-0.0582	-0.1471	
-1.000888	0.105408	-0.21411	-3.78	-17.08	0.42	0.4449	-0.0581	-0.1532	
-1.005036	0.106628	-0.205326	-3.08	-18.55	0.49	0.4434	-0.0566	-0.1485	
-1.003938	0.10919	-0.19825	-2.66	-19.6	0.49	0.4421	-0.0627	-0.1531	
-1.005036	0.107482	-0.20313	-3.5	-19.32	0.28	0.4448	-0.0506	-0.1486	
-1.001254	0.104798	-0.199104	-3.85	-19.53	0.35	0.4451	-0.0672	-0.1624	
-1.006866	0.106628	-0.19032	-4.34	-21.07	0.14	0.4465	-0.0626	-0.167	
-1.011746	0.10614	-0.192516	-5.39	-23.17	0.35	0.4436	-0.0444	-0.1732	
-1.012112	0.110044	-0.175558	-5.32	-23.66	0.28	0.4523	-0.0566	-0.1717	
-1.013698	0.108702	-0.169824	-6.51	-23.38	0.35	0.4466	-0.0596	-0.1732	
-1.00894	0.111508	-0.174704	-7.7	-24.43	0.35	0.4366	-0.0625	-0.187	
-1.006134	0.116754	-0.14213	-8.47	-26.04	0.42	0.4481	-0.0474	-0.1918	
-0.998326	0.11651	-0.127612	-9.1	-25.9	0.49	0.451	-0.0459	-0.1933	
-0.998448	0.115778	-0.12017	-8.89	-24.85	0.35	0.4438	-0.0519	-0.1902	
-1.006378	0.113704	-0.111874	-8.75	-25.9	0.42	0.4396	-0.0548	-0.2071	
-1.004182	0.108946	-0.096136	-10.22	-27.72	0.56	0.4382	-0.0593	-0.2086	
-1.010404	0.10187	-0.083204	-12.04	-26.32	0.49	0.431	-0.0517	-0.2147	
-1.006256	0.100162	-0.06649	-12.32	-28.49	0.56	0.4369	-0.0563	-0.2209	
-1.003694	0.103944	-0.05063	-12.46	-28.07	0.7	0.4282	-0.0547	-0.2223	
-0.998326	0.111386	-0.04697	-12.46	-27.3	0.35	0.4296	-0.0516	-0.2208	
-1.001742	0.121634	-0.03965	-12.25	-26.67	-0.35	0.4267	-0.0547	-0.2208	
-1.012966	0.121146	-0.031842	-12.25	-28.49	-0.7	0.424	-0.0576	-0.2346	
-1.012722	0.119194	-0.01525	-13.09	-30.59	-0.35	0.4225	-0.0485	-0.2393	
-1.024556	0.117242	-0.005002	-13.02	-29.47	-0.63	0.4297	-0.047	-0.2363	
-1.016504	0.11529	0.000976	-11.41	-30.52	-0.63	0.4138	-0.0408	-0.2408	
-1.005036	0.116266	0.02318	-9.31	-31.43	-0.84	0.4154	-0.0423	-0.2485	
-1.013454	0.114802	0.027206	-8.33	-29.33	-1.19	0.4196	-0.0363	-0.2408	
-1.017114	0.116876	0.036112	-7.49	-32.55	-1.05	0.404	-0.0513	-0.2637	
-1.007476	0.117608	0.055022	-8.47	-33.18	-1.12	0.4112	-0.0361	-0.2685	
-1.004792	0.11102	0.07137	-10.01	-31.64	-1.12	0.4113	-0.0543	-0.2715	
-0.999668	0.111386	0.078324	-10.15	-31.36	-1.26	0.3995	-0.0346	-0.2638	
-0.991006	0.119316	0.089914	-10.01	-31.71	-1.33	0.4027	-0.0481	-0.2822	
-0.988444	0.118462	0.112118	-10.01	-26.25	-1.75	0.3969	-0.0375	-0.2868	
-0.980514	0.112606	0.116998	-8.54	-27.65	-1.4	0.4042	-0.0405	-0.29	
-0.98027	0.104554	0.131028	-7.77	-27.37	-1.4	0.3912	-0.0343	-0.2991	
-0.984784	0.095038	0.140788	-6.58	-26.25	-1.75	0.3956	-0.0404	-0.2961	
-0.981734	0.09357399	0.151402	-4.41	-26.6	-2.24	0.3926	-0.0328	-0.2961	
-0.985028	0.092842	0.155672	-2.87	-25.2	-2.38	0.3796	-0.0358	-0.299	
-0.987834	0.09467199	0.162382	-2.1	-24.78	-1.96	0.3812	-0.0388	-0.3052	
-0.985882	0.103944	0.1708	-2.31	-23.31	-1.47	0.3883	-0.0358	-0.3006	
-0.970998	0.108214	0.173362	-3.36	-22.96	-1.12	0.3667	-0.0372	-0.305	
-0.963068	0.109312	0.179828	-5.04	-22.05	-0.56	0.371	-0.0326	-0.3066	
-0.97051	0.098454	0.191418	-6.65	-20.02	0.21	0.3783	-0.0312	-0.3129	
-0.970632	0.084302	0.20191	-7.35	-19.18	1.19	0.374	-0.0265	-0.3221	
-0.962092	0.07564	0.213256	-6.72	-18.69	1.82	0.3654	-0.0371	-0.3204	
-0.953552	0.074176	0.224236	-4.83	-17.78	1.82	0.361	-0.0325	-0.3189	
-0.941596	0.072712	0.232166	-2.94	-16.24	1.19	0.374	-0.0372	-0.3128	
-0.936106	0.070516	0.239974	-1.33	-15.54	0.49	0.3726	-0.028	-0.3252	
-0.940986	0.069418	0.242902	0.07	-13.51	-0.07	0.364	-0.0219	-0.3328	
-0.951356	0.074908	0.25437	1.33	-12.95	-0.21	0.3582	-0.0385	-0.328	
-0.95587	0.08662	0.255712	1.96	-12.46	0.07	0.3595	-0.0264	-0.322	
-0.953552	0.097112	0.25193	1.89	-11.48	0.7	0.3612	-0.0355	-0.3327	
-0.954284	0.102236	0.253638	1.4	-10.43	1.54	0.3467	-0.0278	-0.3403	
-0.95099	0.106384	0.254736	0.42	-7.98	2.31	0.3526	-0.0293	-0.345	
-0.94367	0.106506	0.25315	-0.07	-7.35	2.8	0.354	-0.0384	-0.3373	
-0.94916	0.105774	0.255834	-0.98	-5.6	3.01	0.3511	-0.0324	-0.3372	
-0.949038	0.103212	0.253028	-0.91	-4.34	2.8	0.3583	-0.0324	-0.3358	
-0.950502	0.101382	0.253516	-0.35	-4.27	2.59	0.3525	-0.0308	-0.3404	
-0.950502	0.09942999	0.26291	-0.07	-2.31	2.52	0.3482	-0.0384	-0.3387	
-0.949892	0.103212	0.2684	0.7	-1.33	2.8	0.3425	-0.0368	-0.3448	
-0.949404	0.110044	0.270474	0.84	0.42	3.15	0.3496	-0.0293	-0.3403	
-0.951112	0.112362	0.267912	0.84	1.61	3.5	0.3469	-0.0383	-0.3495	
-0.953796	0.110898	0.263764	0.21	2.73	3.92	0.3483	-0.0429	-0.3433	
-0.952698	0.105652	0.26291	0.07	3.57	4.41	0.3483	-0.0369	-0.3434	
-0.955748	0.102358	0.259006	-0.21	6.23	4.83	0.3612	-0.0461	-0.3311	
-0.95038	0.100284	0.244366	0.49	3.99	5.6	0.3627	-0.0385	-0.342	
-0.962092	0.09089	0.254492	0.63	9.38	6.09	0.3554	-0.0385	-0.3373	
-0.959896	0.083204	0.245464	2.59	8.12	7.42	0.3583	-0.0278	-0.3466	
-0.96258	0.076494	0.24827	2.73	10.08	9.03	0.351	-0.0384	-0.3311	
-0.964532	0.083692	0.24034	3.99	11.13	10.78	0.3598	-0.0431	-0.3327	
-0.96929	0.09638	0.230092	4.41	12.11	12.11	0.3585	-0.0521	-0.3465	
-0.972462	0.105652	0.234606	3.92	12.32	12.95	0.3525	-0.0521	-0.3264	
-0.97173	0.113094	0.222894	4.06	11.97	13.3	0.3699	-0.0447	-0.3281	
-0.974292	0.122366	0.222528	3.99	13.3	13.37	0.3512	-0.049	-0.3356	
-0.97417	0.128832	0.216428	3.08	14.77	13.16	0.3539	-0.043	-0.3264	
-0.97417	0.13176	0.206668	2.59	15.4	13.44	0.3643	-0.0628	-0.3342	
-0.983808	0.143228	0.192882	1.68	15.26	14.49	0.357	-0.0628	-0.3264	
-0.990884	0.160552	0.192516	0.84	16.45	15.12	0.3699	-0.0599	-0.3204	
-0.989664	0.178242	0.169702	1.26	15.05	15.19	0.3685	-0.0629	-0.3219	
-0.991006	0.188124	0.164334	0.63	14.56	14.84	0.3669	-0.06439999	-0.3111	
-0.991006	0.191174	0.157258	-0.07	14.07	14.21	0.3727	-0.063	-0.3065	
-0.99735	0.199226	0.148596	-0.21	13.79	14	0.3713	-0.066	-0.3126	
-0.99674	0.206912	0.143716	0.63	12.53	14.14	0.3727	-0.0675	-0.3111	
-0.997472	0.21411	0.14152	1.68	11.55	14.42	0.3699	-0.0751	-0.3126	
-0.992592	0.225334	0.13298	2.24	10.43	14.91	0.3742	-0.0781	-0.308	
-0.98149	0.237046	0.137982	2.59	9.31	15.54	0.3771	-0.0721	-0.3111	
-0.967338	0.244366	0.148474	2.1	8.33	16.1	0.377	-0.0721	-0.2988	
-0.962946	0.244854	0.148352	1.68	8.75	16.38	0.3727	-0.0736	-0.3049	
-0.962702	0.244976	0.14762	2.38	8.96	16.66	0.3872	-0.0828	-0.2958	
-0.96807	0.244	0.145302	3.15	8.82	16.73	0.3785	-0.0812	-0.2988	
-0.971608	0.248392	0.148596	3.15	8.68	16.8	0.3829	-0.0873	-0.2988	
-0.97173	0.251076	0.146522	2.45	10.15	16.66	0.3699	-0.0812	-0.3018	
-0.972096	0.2562	0.140544	2.1	10.71	16.8	0.3713	-0.0964	-0.294	
-0.973682	0.254614	0.128954	1.89	11.83	16.24	0.3785	-0.0904	-0.2879	
-0.976122	0.2501	0.117364	1.12	11.41	15.61	0.3727	-0.0979	-0.2832	
-0.980636	0.246806	0.110654	0.56	10.43	15.33	0.3785	-0.101	-0.2833	
-0.982222	0.255224	0.10553	0.42	9.87	15.26	0.3756	-0.0995	-0.2848	
-0.98088	0.274378	0.10614	-0.07	10.92	14.98	0.3772	-0.1086	-0.2909	
-0.976244	0.289872	0.098942	-0.91	11.06	14.28	0.3858	-0.1071	-0.2818	
-0.969412	0.291824	0.090036	-1.19	10.78	13.58	0.3887	-0.1132	-0.2849	
-0.973194	0.29768	0.08357	-0.49	10.43	13.02	0.3771	-0.1147	-0.2817	
-0.976976	0.309392	0.081496	1.47	9.59	11.97	0.3843	-0.1132	-0.2756	
-0.974048	0.310734	0.07747	1.54	8.47	11.06	0.3801	-0.1162	-0.2894	
-0.965142	0.316712	0.069662	1.26	7.07	10.92	0.3771	-0.1147	-0.2817	
-0.964166	0.321226	0.072468	1.47	5.95	10.78	0.3887	-0.1162	-0.2848	
-0.962214	0.322446	0.074176	0.84	5.18	10.85	0.3858	-0.1132	-0.2833	
-0.954528	0.3233	0.080764	0	5.95	10.29	0.3858	-0.1223	-0.2786	
-0.945012	0.321348	0.077226	-0.21	5.88	10.08	0.38	-0.1192	-0.2786	
-0.951478	0.321104	0.083448	0.14	5.39	10.22	0.3801	-0.1329	-0.2724	
-0.959042	0.316712	0.090036	0.91	4.9	10.01	0.37	-0.1389	-0.2768	
-0.955382	0.319762	0.096502	1.05	4.48	9.38	0.3801	-0.1268	-0.277	
-0.949892	0.33001	0.08686399	0.98	3.99	8.47	0.3872	-0.1254	-0.2694	
-0.948794	0.328058	0.09394	0.07	4.13	7.14	0.3785	-0.1178	-0.2709	
-0.946964	0.326838	0.082594	-0.56	4.13	6.09	0.3785	-0.1284	-0.2662	
-0.948428	0.331596	0.080398	-0.49	4.76	5.04	0.3843	-0.1208	-0.2725	
-0.953186	0.334402	0.077226	-0.49	5.46	3.78	0.3843	-0.1254	-0.2663	
-0.951844	0.33794	0.070394	-1.12	5.39	2.66	0.3858	-0.1315	-0.2678	
-0.95282	0.34282	0.064904	-1.61	4.83	2.1	0.3786	-0.136	-0.2692	
-0.954162	0.347944	0.060146	-2.03	4.83	1.61	0.3785	-0.1299	-0.2646	
-0.955626	0.351116	0.055266	-3.15	3.92	1.19	0.3845	-0.1344	-0.277	
-0.956358	0.351238	0.050874	-3.29	3.08	0.98	0.3771	-0.1345	-0.26	
-0.956724	0.35136	0.04758	-3.43	1.61	0.49	0.3872	-0.1208	-0.2725	
-0.954894	0.345748	0.050996	-3.29	-0.07	-0.42	0.3828	-0.1224	-0.2616	
-0.94916	0.341722	0.058438	-2.66	-1.68	-1.12	0.3829	-0.1314	-0.2693	
-0.944768	0.341722	0.0671	-2.24	-2.24	-1.75	0.3858	-0.1269	-0.2678	
-0.943304	0.343674	0.073078	-1.75	-2.17	-2.31	0.3886	-0.1285	-0.2648	
-0.948428	0.345382	0.076738	-1.05	-1.26	-2.73	0.3872	-0.1254	-0.2663	
-0.949648	0.337452	0.076372	-0.84	-1.12	-3.22	0.3813	-0.1224	-0.2585	
-0.947208	0.331718	0.079422	-1.05	-1.61	-3.78	0.3886	-0.1239	-0.2694	
-0.94489	0.330376	0.0793	-0.35	-2.31	-4.62	0.3973	-0.1164	-0.268	
-0.945378	0.331596	0.07515199	0.49	-2.1	-5.46	0.3814	-0.136	-0.2631	
-0.950014	0.32635	0.07015	1.4	-2.03	-6.3	0.3829	-0.1345	-0.2693	
-0.952454	0.32147	0.06893	2.24	-3.01	-7.21	0.3771	-0.1284	-0.2677	
-0.94611	0.314638	0.069662	2.31	-4.41	-8.26	0.3872	-0.1315	-0.2678	
-0.94916	0.307928	0.081008	1.33	-4.13	-9.73	0.38	-0.1223	-0.2709	
-0.943914	0.30378	0.079422	1.75	-5.46	-10.71	0.3944	-0.1133	-0.2772	
-0.954162	0.304268	0.08784	3.08	-4.34	-11.55	0.3741	-0.1086	-0.2709	
-0.958432	0.299632	0.082228	4.48	-4.76	-11.9	0.3901	-0.1239	-0.271	
-0.961482	0.293288	0.088084	4.9	-5.18	-12.04	0.3829	-0.1208	-0.2801	
-0.956236	0.29707	0.090036	4.34	-6.09	-12.25	0.3757	-0.1131	-0.2894	
-0.952698	0.307562	0.09394	3.71	-5.53	-12.67	0.3843	-0.1208	-0.274	
-0.95709	0.30378	0.09638	2.66	-4.13	-13.09	0.38	-0.1162	-0.2755	
-0.963312	0.283894	0.081252	3.36	-5.81	-12.81	0.3785	-0.1147	-0.2786	
-0.974292	0.272914	0.08723	3.71	-6.44	-12.88	0.3828	-0.1178	-0.2694	
-0.971364	0.269742	0.087352	3.99	-7.35	-12.6	0.3828	-0.1178	-0.2694	
-0.96197	0.272304	0.108702	3.85	-6.58	-11.62	0.3872	-0.1057	-0.2787	
-0.96136	0.281576	0.107482	3.22	-4.41	-11.27	0.3799	-0.0995	-0.2771	
-0.960994	0.283284	0.101138	3.29	-4.34	-11.13	0.3888	-0.1178	-0.2848	
-0.97478	0.278526	0.099674	3.08	-4.9	-11.2	0.3901	-0.1042	-0.2803	
-0.983442	0.264374	0.095404	3.08	-5.11	-11.41	0.3887	-0.1102	-0.2803	
-0.982466	0.252906	0.096868	2.59	-5.6	-11.55	0.3842	-0.09959999	-0.2803	
-0.981856	0.253394	0.100528	2.31	-5.32	-11.62	0.3843	-0.098	-0.2864	
-0.97051	0.25376	0.097966	2.66	-5.39	-11.69	0.38	-0.101	-0.291	
-0.97051	0.253272	0.102236	2.94	-5.67	-11.55	0.3798	-0.0859	-0.2772	
-0.980392	0.245952	0.098698	2.52	-4.2	-11.76	0.3857	-0.0904	-0.288	
-0.98576	0.238266	0.103456	2.87	-4.41	-11.97	0.3784	-0.0859	-0.2849	
-0.978074	0.236558	0.110532	3.5	-4.76	-12.6	0.38	-0.09649999	-0.2895	
-0.972706	0.241316	0.11041	3.5	-5.25	-13.3	0.38	-0.098	-0.2925	
-0.973316	0.238632	0.111386	3.01	-3.92	-14	0.3842	-0.0935	-0.2849	
-0.974658	0.233996	0.116632	2.94	-4.34	-14.14	0.3871	-0.0875	-0.2803	
-0.977464	0.230336	0.123342	2.73	-4.69	-14.28	0.377	-0.0874	-0.2849	
-0.97417	0.224602	0.120292	2.24	-4.34	-14.56	0.3827	-0.0829	-0.2849	
-0.972096	0.219234	0.12383	2.1	-3.29	-14.63	0.3885	-0.0829	-0.2819	
-0.972828	0.212646	0.129808	2.17	-3.36	-14.7	0.3826	-0.0799	-0.2772	
-0.981978	0.204838	0.124196	2.17	-2.38	-14.77	0.3871	-0.0814	-0.2881	
-0.986492	0.19581	0.119926	2.24	-2.17	-14.77	0.3943	-0.0768	-0.2913	
-0.999668	0.188734	0.12322	2.8	0	-14.7	0.377	-0.0737	-0.2988	
-1.002352	0.185928	0.115412	3.5	-1.12	-14.35	0.3856	-0.0814	-0.285	
-1.005158	0.18483	0.110776	3.5	-0.42	-14.35	0.3914	-0.0799	-0.2897	
-1.00406	0.17751	0.10736	2.66	-0.07	-14.49	0.3856	-0.0738	-0.2912	
-1.008452	0.171044	0.096624	2.52	-0.21	-14.91	0.3856	-0.0738	-0.2896	
-1.005768	0.166286	0.105774	2.31	-2.1	-15.47	0.3855	-0.0601	-0.2851	
-1.008086	0.15555	0.102724	1.19	-2.38	-15.26	0.3842	-0.0692	-0.2958	
-1.014552	0.149084	0.100772	1.33	-3.5	-14.63	0.3871	-0.0677	-0.2989	
-1.019188	0.149206	0.107482	1.47	-3.92	-14.42	0.3884	-0.0601	-0.2882	
-1.019432	0.146888	0.111996	0.77	-3.08	-14.63	0.3856	-0.0631	-0.2958	
-1.018822	0.141642	0.102846	-0.14	-2.59	-14.84	0.3927	-0.0556	-0.2929	
-1.017358	0.131272	0.111264	-0.35	-2.31	-15.12	0.397	-0.0541	-0.2898	
-1.009916	0.119194	0.12322	-0.91	-2.45	-14.63	0.387	-0.0586	-0.2928	
-1.009428	0.110776	0.114802	-1.33	-2.24	-14.21	0.384	-0.0388	-0.2975	
-1.010526	0.114558	0.11895	-0.98	-3.36	-13.79	0.3812	-0.0525	-0.2974	
-1.013088	0.126148	0.116388	0.21	-4.76	-14.14	0.3856	-0.0464	-0.3052	
-1.006256	0.123586	0.126026	-0.21	-4.76	-14.98	0.3796	-0.0282	-0.3006	
-0.997716	0.11163	0.139568	-2.45	-5.11	-15.47	0.387	-0.0434	-0.3067	
-0.992836	0.109434	0.138714	-3.5	-3.36	-15.96	0.3898	-0.0374	-0.2991	
-0.9943	0.102846	0.141032	-5.18	-0.91	-16.1	0.3839	-0.0373	-0.2929	
-0.990884	0.091134	0.145302	-6.79	-0.07	-15.68	0.3868	-0.0313	-0.2929	
-0.986492	0.077592	0.143838	-6.72	0.49	-14.7	0.3955	-0.0374	-0.2976	
-0.986004	0.073078	0.152134	-5.67	-0.42	-13.3	0.3869	-0.0297	-0.3022	
-0.988078	0.068442	0.147498	-5.53	-1.54	-12.25	0.3767	-0.0342	-0.2959	
-0.98515	0.054534	0.14579	-5.6	-1.54	-11.41	0.3723	-0.0312	-0.2943	
-0.98271	0.039772	0.151158	-5.11	-1.68	-10.71	0.3839	-0.0267	-0.296	
-0.980148	0.031964	0.159332	-4.62	-1.82	-9.94	0.3825	-0.0236	-0.3052	
-0.97905	0.023546	0.153354	-3.64	-0.07	-8.96	0.3897	-0.0313	-0.296	
-0.982222	0.012688	0.148962	-3.43	-0.07	-7.91	0.3838	-0.0283	-0.2883	
-0.991494	0.00183	0.141764	-3.29	-1.26	-6.44	0.3911	-0.0192	-0.2976	
-0.998082	0.00122	0.147986	-1.4	-2.24	-5.53	0.378	-0.0176	-0.2944	
-0.996008	0.010126	0.156282	0.07	-2.52	-4.97	0.3765	-0.0191	-0.2898	
-0.99735	0.018544	0.153476	0.07	-1.82	-5.32	0.3809	-0.0176	-0.2929	
-0.994666	0.023058	0.156038	0.35	-1.75	-6.16	0.3897	-0.0207	-0.2992	
-1.000156	0.02867	0.150914	0.42	-0.28	-7.07	0.3825	-0.0251	-0.3068	
-1.00772	0.033428	0.14335	0.98	-0.42	-8.26	0.3823	-0.0146	-0.2945	
-1.002718	0.035502	0.142618	1.12	-0.84	-8.82	0.3809	-0.0161	-0.2976	
-1.000034	0.0366	0.145668	0.49	-0.98	-8.68	0.3824	-0.013	-0.3007	
-0.994666	0.02867	0.144448	-0.07	-0.84	-8.05	0.3839	-0.0161	-0.3053	
-0.993934	0.030866	0.147498	0.7	-1.4	-7.56	0.3924	0.0004	-0.3039	
-0.992958	0.049166	0.147376	1.47	-1.54	-7.63	0.3867	-0.01	-0.3038	
-0.98942	0.062098	0.148596	0.84	-0.7	-8.75	0.3794	-0.0039	-0.3007	
-0.987956	0.05795	0.153232	-0.84	0.98	-10.22	0.378	-0.0039	-0.3022	
-0.9943	0.039284	0.157136	-1.05	4.97	-11.2	0.3982	-0.0025	-0.3024	
-1.012722	0.014396	0.161772	-0.07	7.49	-10.85	0.3823	-0.0009	-0.2992	
-1.013088	-0.004758	0.152012	0.21	9.66	-9.73	0.3866	0.005	-0.2993	
-1.00833	-0.00732	0.148718	1.89	11.06	-8.89	0.3867	0.0035	-0.3054	
-0.99979	-0.000976	0.131638	3.29	11.55	-8.54	0.391	0.0035	-0.3039	
-0.991006	-0.00122	0.122976	4.34	11.9	-8.89	0.3909	-0.0009999999	-0.2931	
-0.983564	-0.011102	0.127002	4.13	10.78	-9.24	0.3837	0.0096	-0.2992	
-0.982466	-0.031598	0.128588	1.96	11.34	-9.73	0.3922	0.0079	-0.287	
-0.987956	-0.052948	0.127124	2.1	11.83	-9.8	0.3924	0.007999999	-0.2993	
-0.997106	-0.062098	0.126026	2.24	10.85	-9.17	0.388	0.005	-0.2962	
-1.000644	-0.069418	0.121756	2.1	11.06	-8.82	0.3922	0.0079	-0.287	
-1.00101	-0.069906	0.114924	4.48	8.54	-8.61	0.3981	0.0003	-0.287	
-1.006134	-0.056974	0.097356	3.78	4.13	-9.45	0.385	0.0019	-0.2838	
-1.015772	-0.043554	0.09455	0.91	4.83	-10.5	0.3951	0.014	-0.2917	
-1.012112	-0.037332	0.096868	0.07	2.45	-10.43	0.398	0.0155	-0.2948	
-1.01931	-0.031598	0.093086	0.98	5.32	-10.01	0.4038	0.0155	-0.2902	
-1.007232	-0.0244	0.081984	2.38	3.64	-8.61	0.395	0.017	-0.2763	
-1.011502	-0.022082	0.075396	2.59	3.08	-7.49	0.3907	0.0155	-0.2855	
-1.018456	-0.018544	0.081862	2.38	3.57	-6.86	0.3951	0.0064	-0.2824	
-1.0248	-0.011468	0.07515199	1.96	2.38	-6.37	0.3863	0.0231	-0.2824	
-1.036146	-0.01403	0.074298	0.84	2.17	-5.81	0.3936	0.0109	-0.2824	
-1.028704	-0.026474	0.08418	0.91	4.27	-5.11	0.3936	0.011	-0.2855	
-1.020774	-0.036844	0.075762	1.82	5.53	-4.41	0.3993	0.0154	-0.2748	
-1.011136	-0.045262	0.076372	2.59	5.11	-4.34	0.4022	0.02	-0.2779	
-1.012844	-0.060512	0.079422	2.24	6.16	-4.76	0.395	0.0185	-0.2763	
-1.006744	-0.065026	0.083692	2.31	4.55	-4.9	0.4037	0.0124	-0.2779	
-1.004792	-0.071126	0.082106	1.89	3.85	-5.11	0.395	0.0139	-0.2747	
-1.001132	-0.069784	0.079178	2.31	3.57	-5.11	0.4022	0.02	-0.2825	
-1.0065	-0.080886	0.070272	2.31	1.82	-4.83	0.405	0.0154	-0.2702	
-1.009672	-0.087474	0.07137	1.4	0	-4.83	0.3935	0.0307	-0.2856	
-1.008696	-0.08686399	0.088572	0.07	-0.35	-4.97	0.3907	0.017	-0.2855	
-0.998204	-0.08662	0.079788	-0.84	-0.91	-4.9	0.392	0.0306	-0.2748	
-0.986126	-0.087596	0.087962	-0.56	-1.33	-4.69	0.3963	0.0291	-0.2702	
-0.991372	-0.0854	0.093696	-0.7	-1.26	-4.06	0.4008	0.0261	-0.2841	
-0.991006	-0.086986	0.0915	-1.26	-0.49	-4.06	0.3978	0.0291	-0.2825	
-0.997716	-0.08295999	0.08967	-1.05	-1.26	-4.48	0.408	0.026	-0.2811	
-1.009672	-0.071004	0.091134	-1.47	-1.19	-4.55	0.4051	0.0275	-0.2841	
-1.015894	-0.058072	0.088572	-2.03	-0.77	-4.2	0.3977	0.0245	-0.2686	
-1.00772	-0.054046	0.09028	-1.89	-0.21	-3.92	0.4036	0.0215	-0.2779	
-1.009794	-0.056608	0.09089	-2.24	1.05	-3.22	0.4036	0.023	-0.2795	
-1.011868	-0.061366	0.08113	-2.73	1.47	-2.45	0.4065	0.0336	-0.2888	
-1.016504	-0.056608	0.07564	-2.45	3.01	-1.89	0.4063	0.0381	-0.2703	
-1.014308	-0.066124	0.069296	-2.45	3.85	-1.54	0.4006	0.026	-0.2702	
-1.00772	-0.076128	0.06734399	-1.33	3.5	-1.54	0.3963	0.0351	-0.2733	
-1.01077	-0.074542	0.066002	-0.56	2.87	-1.33	0.402	0.029	-0.2702	
-1.012722	-0.081374	0.06405	-0.49	1.89	-1.05	0.3919	0.023	-0.2639	
-1.008696	-0.092354	0.068564	0.14	1.54	-0.63	0.3977	0.0382	-0.2764	
-1.00711	-0.096502	0.06954	0.42	1.12	-0.21	0.4034	0.0366	-0.2641	
-1.00833	-0.095282	0.077226	0.98	0.84	-0.07	0.4093	0.0305	-0.2688	
-1.00772	-0.10187	0.077104	1.33	0.35	0.42	0.4007	0.026	-0.281	
-1.005036	-0.101748	0.076982	1.54	0.63	0.91	0.4021	0.0351	-0.278	
-1.004548	-0.090158	0.07442	1.54	0.42	1.05	0.4021	0.0306	-0.278	
-1.004792	-0.091866	0.078568	1.26	-0.14	1.19	0.392	0.0322	-0.2825	
-1.003816	-0.090524	0.087352	0.21	0.21	1.89	0.3962	0.0351	-0.2656	
-1.003328	-0.083936	0.08113	-1.19	0.42	2.52	0.3977	0.0366	-0.2733	
-1.006744	-0.088816	0.075274	-2.24	-0.7	3.29	0.3934	0.0337	-0.2794	
-1.00589	-0.09089	0.081252	-3.01	-0.98	3.71	0.3992	0.0382	-0.2764	
-1.000888	-0.08418	0.073444	-3.64	-0.91	4.13	0.3977	0.0382	-0.2718	
-1.003084	-0.0732	0.072956	-3.08	-1.4	4.62	0.3977	0.0275	-0.2702	
-1.001254	-0.063928	0.074542	-3.36	-1.75	5.81	0.4006	0.029	-0.2733	
-1.001742	-0.067222	0.08418	-3.57	-0.91	7	0.3992	0.0321	-0.2764	
-1.00101	-0.066368	0.08052	-3.78	-0.49	7.98	0.4022	0.0199	-0.2748	
-1.001376	-0.066002	0.071614	-4.55	-1.19	8.54	0.4036	0.0291	-0.2841	
-1.000644	-0.070516	0.082106	-4.48	-3.08	9.1	0.3978	0.0215	-0.2702	
-1.002108	-0.073322	0.08967	-3.22	-3.5	9.66	0.3992	0.0169	-0.264	
-1.005158	-0.06649	0.08723	-1.75	-2.87	10.01	0.4006	0.026	-0.2702	
-0.999424	-0.054778	0.089914	-0.14	-3.29	10.57	0.4021	0.029	-0.2749	
-0.996252	-0.054168	0.09089	1.33	-3.01	11.27	0.4036	0.0123	-0.2733	
-0.998204	-0.051362	0.096868	1.75	-2.38	11.9	0.4007	0.0169	-0.2763	
-1.004182	-0.047824	0.09333	1.4	-1.47	12.39	0.4064	0.0229	-0.2718	
-1.002962	-0.045506	0.080764	0.07	-2.66	13.02	0.3921	0.014	-0.2809	
-0.998204	-0.041724	0.08479	-1.4	-4.83	13.65	0.3965	0.0094	-0.2793	
-0.9943	-0.041236	0.099796	-1.82	-5.39	14.14	0.3892	0.0109	-0.2747	
-0.998326	-0.038186	0.107482	-1.19	-4.69	14.56	0.4009	0.0064	-0.2855	
-1.003816	-0.033306	0.104554	-0.77	-4.06	14.91	0.4008	0.02	-0.2856	
-1.009428	-0.0305	0.103822	-0.7	-3.99	15.19	0.4038	0.0079	-0.2871	
-1.011624	-0.025986	0.106262	-0.21	-2.87	15.19	0.3895	-0.0056	-0.2884	
-1.013942	-0.019764	0.100772	0.56	-1.19	14.84	0.3907	0.0034	-0.2793	
-1.018212	-0.009638	0.093452	1.12	-0.7	14.7	0.3951	0.0018	-0.2839	
-1.013576	0.007686	0.077836	0.63	-1.61	15.12	0.4008	0.0078	-0.2778	
-1.009184	0.019764	0.07686	-0.42	-3.08	15.61	0.3981	-0.0102	-0.2823	
-1.007842	0.026352	0.07747	-2.24	-4.62	15.96	0.3909	-0.008599999	-0.2838	
-1.006866	0.02623	0.096258	-3.43	-6.02	15.89	0.3923	-0.0026	-0.2839	
-1.004792	0.034282	0.111752	-3.99	-5.95	15.61	0.3996	-0.0102	-0.2854	
-1.000156	0.034404	0.114192	-4.27	-5.74	15.47	0.3909	-0.0132	-0.2869	
-0.999546	0.04087	0.12444	-3.22	-5.18	15.26	0.3939	-0.0177	-0.29	
-0.997228	0.049044	0.123952	-2.03	-4.34	15.05	0.3982	-0.0162	-0.2885	
-0.994666	0.053558	0.122366	-2.1	-3.85	14.49	0.3852	-0.0177	-0.2837	
-0.99979	0.05734	0.1159	-2.8	-3.92	13.93	0.3954	-0.0283	-0.2915	
-1.012356	0.066856	0.109068	-3.92	-3.22	13.51	0.3808	-0.0161	-0.2883	
-1.021018	0.0732	0.106872	-5.74	-1.4	13.23	0.391	-0.0253	-0.2868	
-1.018456	0.072224	0.109556	-5.67	-0.35	13.23	0.391	-0.0253	-0.2868	
-1.007964	0.07808	0.103456	-3.71	1.54	13.02	0.3925	-0.0344	-0.2868	
-1.003938	0.089792	0.093696	-2.87	0.49	12.46	0.394	-0.0268	-0.2899	
-1.005158	0.101016	0.099918	-2.03	-0.28	10.99	0.3925	-0.0283	-0.2868	
-1.007842	0.104188	0.10309	-0.35	-0.63	9.59	0.3896	-0.0344	-0.2868	
-1.01016	0.10858	0.10187	0.7	-0.21	8.61	0.3867	-0.039	-0.2744	
-1.009428	0.111386	0.105408	-0.35	0.42	8.4	0.3953	-0.0238	-0.2853	
-1.001986	0.108824	0.111874	-1.05	1.89	8.61	0.3926	-0.0313	-0.2961	
-0.996496	0.103456	0.12505	0	3.43	9.38	0.3925	-0.039	-0.2837	
-0.99369	0.099186	0.126514	2.45	5.04	10.43	0.3896	-0.0374	-0.2806	
-0.99247	0.089792	0.129808	5.32	5.88	11.34	0.3911	-0.0389	-0.2899	
-1.004304	0.090158	0.112606	6.86	7.07	11.76	0.3883	-0.0404	-0.2929	
-1.01138	0.088694	0.110532	6.23	6.93	11.97	0.3939	-0.0253	-0.2853	
-1.011014	0.08686399	0.106994	5.39	5.95	11.9	0.3911	-0.042	-0.2868	
-1.000034	0.10004	0.102968	4.2	3.08	12.32	0.3984	-0.0466	-0.2822	
-0.992348	0.120536	0.090402	3.22	1.75	12.25	0.3912	-0.0526	-0.2852	
-0.999302	0.140544	0.087108	1.4	0.91	11.69	0.3883	-0.0587	-0.2805	
-1.002474	0.152378	0.094184	-0.14	0.49	11.27	0.3925	-0.0527	-0.2744	
-0.997838	0.152622	0.100528	0.35	0.42	11.62	0.3985	-0.0557	-0.2868	
-0.99613	0.149084	0.096624	0.63	2.17	12.18	0.3883	-0.0556	-0.279	
-0.998204	0.153476	0.09942999	0	3.92	12.81	0.3898	-0.0495	-0.2913	
-0.995764	0.166408	0.09162199	-0.56	4.48	13.09	0.3997	-0.0573	-0.2667	
-0.996008	0.179706	0.087718	-0.77	5.74	12.81	0.3985	-0.0572	-0.2852	
-0.996862	0.19093	0.080276	-1.96	5.6	12.53	0.3927	-0.0617	-0.2821	
-0.997106	0.192272	0.075396	-3.99	4.69	12.32	0.3984	-0.0648	-0.2698	
-0.99308	0.182634	0.080276	-5.18	3.5	12.46	0.4042	-0.0634	-0.2714	
-0.994178	0.175924	0.086254	-5.95	3.08	12.67	0.3941	-0.0648	-0.2774	
-0.9943	0.174338	0.082594	-5.74	1.75	13.44	0.3899	-0.0769	-0.282	
-0.994788	0.175802	0.090036	-4.55	1.26	14.28	0.3956	-0.08	-0.2758	
-0.986126	0.180194	0.09638	-2.87	1.12	14.84	0.3955	-0.077	-0.2651	
-0.9821	0.18788	0.099552	-1.33	1.75	14.84	0.3883	-0.0708	-0.2681	
-0.979538	0.19764	0.103822	0	2.17	14.42	0.3956	-0.0663	-0.2774	
-0.979782	0.198128	0.097234	0.42	3.01	13.51	0.3928	-0.0708	-0.2836	
-0.981002	0.201788	0.094306	-0.14	3.5	12.53	0.3985	-0.08	-0.2712	
-0.981246	0.200202	0.09272	-0.42	3.64	11.76	0.3956	-0.0876	-0.265	
-0.981856	0.205448	0.088938	-0.42	3.22	11.41	0.387	-0.0875	-0.2788	
-0.98576	0.210816	0.08479	-0.7	3.08	11.55	0.3955	-0.083	-0.2635	
-0.986492	0.219112	0.083936	-0.84	3.15	12.11	0.3926	-0.07539999	-0.2681	
-0.98942	0.22204	0.0854	-0.84	2.38	13.02	0.4015	-0.09519999	-0.2727	
-0.99369	0.230214	0.08295999	-0.91	3.57	13.93	0.4014	-0.0846	-0.2713	
-0.986126	0.23546	0.081252	-0.28	4.06	14.49	0.3956	-0.0891	-0.2696	
-0.978196	0.240706	0.07869	0	4.48	14.49	0.3726	-0.0904	-0.2771	
-0.967826	0.253394	0.083692	0.35	5.11	13.93	0.3914	-0.0966	-0.2696	
-0.967338	0.264374	0.073444	-0.21	5.67	12.95	0.4013	-0.0937	-0.2573	
-0.972096	0.267912	0.066368	-1.12	5.88	12.32	0.3768	-0.095	-0.2663	
-0.981246	0.266814	0.067588	-2.24	5.88	12.67	0.3971	-0.1013	-0.2603	
-0.986858	0.278038	0.063806	-3.15	5.88	13.44	0.3972	-0.1042	-0.2711	
-0.978318	0.282552	0.06771	-4.06	7.07	13.93	0.3943	-0.1118	-0.2618	
-0.974048	0.286578	0.06161	-4.13	7.98	13.93	0.3871	-0.1026	-0.2756	
-0.976976	0.294386	0.050142	-3.22	8.89	13.44	0.3958	-0.1103	-0.2695	
-0.973072	0.296094	0.04941	-3.01	9.24	12.95	0.3958	-0.1149	-0.268	
-0.965508	0.29036	0.047702	-2.8	8.4	12.81	0.3986	-0.1088	-0.2619	
-0.968802	0.281942	0.045872	-1.89	6.3	12.88	0.3856	-0.1148	-0.2602	
-0.97173	0.283894	0.047824	-0.28	5.6	13.3	0.3928	-0.1179	-0.2525	
-0.969168	0.2989	0.054412	1.68	5.95	13.86	0.3972	-0.1149	-0.2634	
-0.967094	0.312442	0.047946	1.96	7.35	13.86	0.3957	-0.1179	-0.2587	
-0.96624	0.316956	0.034038	2.03	6.93	13.37	0.3914	-0.1179	-0.2571	
-0.96502	0.320372	0.026474	1.54	5.39	12.39	0.3871	-0.127	-0.2555	
-0.95648	0.32696	0.03599	0.49	4.41	11.06	0.3972	-0.1301	-0.251	
-0.956968	0.33611	0.031354	-0.42	3.85	9.38	0.3885	-0.1209	-0.2555	
-0.95831	0.337452	0.038552	-1.75	4.76	8.12	0.3827	-0.1285	-0.2524	
-0.962946	0.333914	0.032086	-3.01	5.81	8.33	0.3886	-0.1361	-0.2524	
-0.958554	0.342698	0.032574	-2.8	4.97	9.66	0.3871	-0.1346	-0.2555	
-0.952332	0.358558	0.044286	-2.31	4.62	10.71	0.3886	-0.1315	-0.2601	
-0.951966	0.366	0.036356	-2.66	5.18	10.57	0.403	-0.1393	-0.2448	
-0.949282	0.366	0.030622	-3.57	5.67	9.52	0.3899	-0.1316	-0.2401	
-0.941596	0.35746	0.031476	-5.39	6.02	8.33	0.39	-0.1331	-0.2524	
-0.93208	0.352946	0.031842	-5.95	4.9	7.63	0.4015	-0.1332	-0.2495	
-0.930494	0.351116	0.036844	-5.95	4.2	7	0.3957	-0.1301	-0.2432	
-0.931348	0.358314	0.039406	-5.18	3.78	6.58	0.3943	-0.1362	-0.2463	
-0.9272	0.35929	0.045384	-3.43	3.99	6.02	0.3885	-0.1316	-0.2524	
-0.93269	0.356118	0.028914	-2.31	4.13	5.53	0.3857	-0.1361	-0.257	
-0.943304	0.359534	0.035746	-1.19	3.15	5.81	0.4015	-0.1393	-0.2448	
-0.953674	0.36783	0.027206	0.07	3.64	6.3	0.3814	-0.1452	-0.2507	
-0.96075	0.371612	0.008296	-0.14	4.9	6.51	0.3915	-0.1407	-0.2478	
-0.95282	0.361242	0.009516	-0.84	4.2	6.44	0.3973	-0.1453	-0.2509	
-0.951966	0.355264	0.0122	-1.33	2.66	6.02	0.3857	-0.1452	-0.2431	
-0.963312	0.360632	0.002684	-0.49	2.66	4.97	0.3929	-0.1438	-0.2432	
-0.96197	0.35868	-0.000366	-0.84	2.73	3.92	0.3798	-0.133	-0.2446	
-0.953674	0.353434	0.002928	-0.49	1.68	2.73	0.39	-0.1392	-0.2493	
-0.952576	0.359412	-0.002074	0.14	0.49	1.4	0.3943	-0.1346	-0.2494	
-0.947208	0.37149	0.005124	-0.84	-0.14	0.63	0.39	-0.1331	-0.2509	
-0.942572	0.375272	0.017812	-1.82	-0.35	0.21	0.3915	-0.1437	-0.2478	
-0.943792	0.379542	0.01525	-1.68	-0.84	0.21	0.3914	-0.1407	-0.2462	
-0.94428	0.38735	0.017202	-1.12	-0.98	0.07	0.4016	-0.1423	-0.2479	
-0.941718	0.38735	0.019276	-1.68	-0.84	0.14	0.3885	-0.1407	-0.2431	
-0.936594	0.383812	0.02074	-1.82	-1.4	0.07	0.3858	-0.1543	-0.2492	
-0.935374	0.37454	0.01769	-2.03	-1.19	-0.7	0.3841	-0.1316	-0.2431	
-0.936838	0.366488	0.017934	-2.31	-1.19	-1.19	0.39	-0.1392	-0.2509	
-0.935008	0.36539	0.02562	-1.89	-1.61	-1.54	0.4001	-0.1438	-0.2463	
-0.935496	0.373808	0.028792	-0.91	-2.24	-1.82	0.3856	-0.1346	-0.2493	
-0.934398	0.377224	0.030256	-0.28	-1.54	-2.17	0.3843	-0.1406	-0.257	
-0.937082	0.372222	0.03111	-0.14	-1.19	-2.52	0.4015	-0.1377	-0.2448	
-0.936106	0.371978	0.035868	0.7	-1.47	-2.87	0.3812	-0.1315	-0.2446	
-0.936838	0.36905	0.029646	0.42	-0.98	-3.5	0.3957	-0.1377	-0.2432	
-0.938546	0.367708	0.028548	0.42	-0.98	-4.2	0.3899	-0.1331	-0.2447	
-0.93696	0.370148	0.032452	0.63	-1.05	-4.55	0.3871	-0.1392	-0.2462	
-0.937814	0.370758	0.026718	0.7	-0.98	-4.83	0.39	-0.1361	-0.2478	
-0.940986	0.362584	0.026108	1.47	-1.19	-4.9	0.3915	-0.1346	-0.254	
-0.94672	0.358436	0.021472	1.75	-1.75	-4.97	0.3944	-0.1377	-0.2524	
-0.948428	0.3599	0.022204	1.96	-2.03	-4.97	0.3885	-0.1301	-0.2463	
-0.95038	0.359534	0.02196	1.75	-2.38	-5.32	0.3914	-0.1362	-0.2463	
-0.950868	0.35929	0.02501	1.75	-2.59	-5.6	0.387	-0.1316	-0.2478	
-0.954772	0.352214	0.02623	0.91	-2.52	-5.67	0.4016	-0.1332	-0.251	
-0.956846	0.343308	0.022204	1.26	-3.01	-5.81	0.3914	-0.1316	-0.2524	
-0.955138	0.338428	0.02623	1.61	-3.43	-5.81	0.3957	-0.1362	-0.2463	
-0.956358	0.341844	0.032452	1.4	-3.29	-5.88	0.3871	-0.1331	-0.2508	
-0.959408	0.336598	0.029646	0.84	-2.87	-6.37	0.3915	-0.1392	-0.2524	
-0.959286	0.332938	0.030012	0.84	-3.01	-6.93	0.4015	-0.1271	-0.2526	
-0.951356	0.331718	0.037454	1.05	-3.57	-7.35	0.3828	-0.1239	-0.2586	
-0.94977	0.335622	0.03904	0.77	-3.5	-7.77	0.3899	-0.124	-0.2525	
-0.95343	0.331962	0.038552	0.84	-3.22	-8.33	0.3885	-0.1194	-0.2571	
-0.95709	0.328424	0.028182	1.61	-3.57	-8.89	0.4016	-0.1362	-0.2541	
-0.955138	0.326594	0.034526	2.38	-4.76	-9.03	0.3929	-0.1331	-0.254	
-0.953308	0.326716	0.034282	2.73	-5.67	-9.17	0.3958	-0.1301	-0.254	
-0.952454	0.330254	0.03904	3.08	-6.3	-9.17	0.3914	-0.1194	-0.254	
-0.956846	0.330376	0.045018	2.87	-5.95	-9.45	0.4045	-0.1301	-0.2557	
-0.958798	0.330132	0.051728	2.8	-5.53	-9.8	0.3899	-0.1179	-0.2587	
-0.960384	0.329034	0.046726	2.38	-4.62	-10.36	0.3915	-0.1179	-0.2664	
-0.966728	0.325496	0.042212	3.08	-4.34	-10.71	0.387	-0.1133	-0.254	
-0.97173	0.320128	0.043676	3.43	-4.83	-10.71	0.387	-0.1103	-0.254	
-0.96929	0.31781	0.04453	2.8	-5.04	-10.71	0.3971	-0.1119	-0.2588	
-0.963434	0.316956	0.046848	2.45	-6.02	-11.06	0.3885	-0.1179	-0.2633	
-0.965874	0.313052	0.049654	1.82	-5.67	-11.83	0.3943	-0.1103	-0.2649	
-0.964288	0.302194	0.04697	1.33	-6.44	-12.81	0.3885	-0.1057	-0.2695	
-0.968192	0.297558	0.046482	0.91	-7.07	-13.44	0.3986	-0.1104	-0.2634	
-0.973316	0.295606	0.0549	0.63	-7.77	-13.93	0.3856	-0.1057	-0.2633	
-0.973438	0.289506	0.055266	0.35	-8.12	-14.35	0.3986	-0.1058	-0.2665	
-0.967704	0.279136	0.061854	-0.28	-8.26	-14.7	0.3958	-0.1103	-0.2726	
-0.961482	0.27694	0.070394	0	-8.75	-14.77	0.3958	-0.1072	-0.2757	
-0.966972	0.279014	0.07442	0.63	-8.75	-15.05	0.3957	-0.1027	-0.268	
-0.965142	0.274744	0.066734	1.05	-7.21	-15.96	0.3987	-0.1027	-0.2742	
-0.983686	0.26535	0.070028	2.45	-8.68	-16.66	0.3914	-0.0981	-0.2757	
-0.984052	0.25132	0.07747	3.43	-9.31	-17.08	0.3884	-0.0906	-0.268	
-0.984296	0.237168	0.07747	4.06	-9.17	-17.08	0.3841	-0.0966	-0.271	
-0.987956	0.229726	0.079422	5.04	-8.12	-17.08	0.3942	-0.0906	-0.2681	
-0.987834	0.228506	0.083814	5.6	-8.05	-16.94	0.3914	-0.0875	-0.2804	
-0.985638	0.226188	0.083692	5.95	-7.63	-16.66	0.3913	-0.086	-0.2727	
-0.986004	0.228506	0.08601	5.67	-6.93	-16.24	0.3913	-0.0906	-0.265	
-0.987468	0.227042	0.091988	4.83	-6.79	-16.1	0.3841	-0.0784	-0.2757	
-0.99003	0.216306	0.094062	4.27	-6.65	-16.17	0.3957	-0.07229999	-0.2836	
-0.991982	0.198128	0.09577	3.92	-6.58	-16.03	0.3943	-0.086	-0.282	
-0.994422	0.188002	0.104188	4.9	-5.67	-15.82	0.3856	-0.0905	-0.2772	
-0.995764	0.188002	0.10431	5.74	-4.48	-15.61	0.3914	-0.0844	-0.2866	
-0.993934	0.188368	0.101016	6.3	-3.64	-15.82	0.3855	-0.0768	-0.2788	
-0.992348	0.190198	0.097966	6.51	-2.94	-15.47	0.3942	-0.0708	-0.2882	
-0.992714	0.18849	0.099308	3.85	-2.03	-14.77	0.3899	-0.0844	-0.2819	
-0.990396	0.188734	0.08784	0.7	-1.89	-13.93	0.3927	-0.0662	-0.2851	
-0.995032	0.183366	0.094062	-1.96	-3.36	-13.02	0.3898	-0.0647	-0.282	
-1.004304	0.170068	0.09857599	-3.92	-3.71	-11.62	0.3971	-0.0769	-0.2774	
-1.003694	0.15006	0.102236	-4.13	-4.2	-10.43	0.3914	-0.0693	-0.2897	
-0.997594	0.127734	0.108092	-3.92	-4.97	-9.1	0.3913	-0.0632	-0.2882	
-0.988444	0.112972	0.114314	-3.99	-4.76	-8.12	0.3826	-0.0616	-0.2912	
-0.990396	0.11285	0.116876	-3.36	-4.55	-7.91	0.3942	-0.0662	-0.2913	
-0.989054	0.117608	0.122244	-2.1	-4.69	-8.12	0.3855	-0.0662	-0.2897	
-0.986736	0.124928	0.1342	-1.19	-6.09	-8.47	0.3927	-0.0526	-0.2929	
-0.98515	0.128588	0.143228	-1.12	-4.06	-8.54	0.3928	-0.0556	-0.296	
-0.98698	0.11773	0.142496	-1.75	-3.36	-8.19	0.3956	-0.0541	-0.2929	
-0.989298	0.109068	0.143594	-1.75	-2.94	-7.35	0.384	-0.0586	-0.2897	
-0.99125	0.113338	0.141154	-1.12	-1.61	-6.65	0.3956	-0.0496	-0.2898	
-0.99918	0.121512	0.13054	-0.42	-0.91	-6.44	0.3883	-0.0556	-0.2851	
-1.00223	0.123586	0.120292	-0.07	-0.49	-6.72	0.3912	-0.0465	-0.2914	
-1.006866	0.120048	0.121268	0.91	-0.98	-7.07	0.3942	-0.0511	-0.2945	
-1.004182	0.117242	0.108092	2.38	-1.61	-7.28	0.3898	-0.0434	-0.2944	
-1.00345	0.117852	0.10736	2.17	-2.38	-7.77	0.3927	-0.0602	-0.2882	
-0.999546	0.121268	0.113094	1.47	-3.92	-8.12	0.3898	-0.045	-0.2944	
-0.997228	0.117242	0.122976	1.54	-5.11	-8.12	0.3941	-0.0374	-0.3022	
-0.994788	0.118218	0.130662	2.24	-5.18	-7.98	0.3869	-0.051	-0.2898	
-0.99674	0.126636	0.137982	1.75	-5.11	-7.84	0.3781	-0.048	-0.282	
-0.99552	0.136518	0.141276	0.7	-4.34	-7.98	0.3869	-0.0464	-0.2975	
-0.99247	0.139446	0.138714	-0.28	-3.57	-8.75	0.3855	-0.0479	-0.3005	
-1.000034	0.132614	0.12383	-0.91	-3.43	-9.66	0.3884	-0.0525	-0.299	
-1.00711	0.130418	0.12566	-0.91	-3.85	-10.78	0.3927	-0.0404	-0.3006	
-1.001132	0.119438	0.128222	-1.54	-4.13	-12.04	0.3839	-0.0373	-0.2944	
-0.995764	0.103456	0.126514	-2.38	-4.06	-12.88	0.371	-0.0372	-0.2989	
-0.996496	0.101748	0.141032	-2.03	-3.92	-13.58	0.3883	-0.0343	-0.2976	
-0.998936	0.101504	0.145424	-1.96	-3.5	-14.07	0.3854	-0.0267	-0.2991	
-1.007598	0.095648	0.135176	-0.28	-3.43	-14.49	0.3811	-0.0327	-0.3052	
-1.008452	0.090036	0.131516	1.89	-4.41	-14.91	0.3941	-0.0283	-0.3023	
-1.001742	0.083204	0.142374	2.8	-3.08	-15.47	0.381	-0.0221	-0.3022	
-0.996618	0.074054	0.13908	3.57	-2.73	-16.17	0.3869	-0.0267	-0.3053	
-0.99552	0.069418	0.148352	3.92	-3.36	-16.59	0.3956	-0.0283	-0.31	
-0.991006	0.053192	0.15555	1.75	-1.4	-16.38	0.3854	-0.0176	-0.3068	
-0.991006	0.039284	0.16592	1.19	0.7	-16.8	0.3868	-0.0176	-0.3069	
-0.98881	0.032208	0.16714	1.4	1.68	-17.29	0.3883	-0.0115	-0.3115	
-0.990396	0.02623	0.16226	0.21	2.38	-17.99	0.3839	-0.0115	-0.3115	
-0.992348	0.023424	0.152622	0.28	3.01	-18.97	0.3839	-0.0115	-0.3053	
-0.989664	0.014762	0.155916	0.49	4.2	-19.81	0.3811	-0.016	-0.3099	
-1.001132	-0.000976	0.165676	0.7	5.11	-19.74	0.3925	-0.0055	-0.3023	
-1.016382	-0.011468	0.15433	0.42	6.51	-18.41	0.3881	-0.0009	-0.3039	
-1.027484	-0.013908	0.14396	-0.14	6.3	-17.22	0.3867	-0.0024	-0.3069	
-1.011136	-0.020252	0.126636	1.33	4.27	-16.59	0.391	0.0004	-0.3008	
-1.005646	-0.028182	0.126636	3.08	4.9	-17.01	0.3881	0.005	-0.3085	
-0.998448	-0.030744	0.113216	4.83	1.89	-16.73	0.3837	0.0035	-0.2946	
-0.982588	-0.032696	0.115412	4.62	1.19	-17.01	0.388	0.0141	-0.2978	
-0.984174	-0.033184	0.12078	4.34	2.31	-17.22	0.3938	0.0095	-0.2978	
-0.989054	-0.04392	0.126636	3.99	3.43	-17.01	0.3836	0.0202	-0.2978	
-0.995032	-0.057462	0.134932	3.71	3.92	-16.73	0.388	0.0171	-0.3024	
-1.003084	-0.06588	0.140788	3.99	3.99	-16.59	0.388	0.0065	-0.2977	
-1.006988	-0.074786	0.137982	2.87	3.99	-16.31	0.3894	0.0186	-0.3009	
-1.002352	-0.083448	0.134078	2.59	3.78	-15.75	0.3923	0.0171	-0.3025	
-0.996618	-0.073078	0.138348	3.36	3.57	-14.77	0.3908	0.0232	-0.2948	
-0.986858	-0.074786	0.137616	2.45	4.34	-13.65	0.3951	0.0247	-0.2979	
-0.9821	-0.080764	0.135176	1.75	5.88	-12.95	0.3907	0.0277	-0.2932	
-0.994544	-0.084912	0.132736	1.47	7.42	-12.39	0.3893	0.0247	-0.2963	
-0.98881	-0.084424	0.124928	0.84	7.35	-11.62	0.3951	0.0262	-0.2964	
-0.994056	-0.08686399	0.12566	2.03	6.09	-11.27	0.3907	0.0246	-0.2855	
-0.992958	-0.094916	0.125416	0.49	5.32	-10.43	0.3951	0.0307	-0.2964	
-0.991128	-0.104432	0.121146	-0.42	6.09	-9.66	0.3922	0.0277	-0.2933	
-0.990518	-0.1098	0.113338	0.91	6.09	-8.82	0.3877	0.0322	-0.2886	
-0.996984	-0.107116	0.113704	0.35	5.04	-7.42	0.395	0.0246	-0.284	
-1.01077	-0.103212	0.106506	-0.63	5.81	-6.79	0.3966	0.0292	-0.3026	
-1.010892	-0.106506	0.096136	0.14	5.25	-5.95	0.395	0.0337	-0.2948	
-1.010404	-0.113094	0.083204	0.77	4.55	-5.39	0.3921	0.0413	-0.2949	
-1.001986	-0.115778	0.08845	0.98	3.5	-5.11	0.3905	0.0383	-0.284	
-1.00345	-0.122854	0.087962	0.91	2.8	-5.18	0.4064	0.0412	-0.2842	
-0.99735	-0.12078	0.085888	2.17	2.87	-5.25	0.3978	0.0458	-0.2965	
-1.003816	-0.109312	0.090524	3.01	2.03	-4.97	0.3964	0.0352	-0.2841	
-1.009184	-0.1037	0.092476	2.73	1.05	-4.27	0.3949	0.0352	-0.2871	
-1.010038	-0.111142	0.10126	2.45	1.89	-3.22	0.3978	0.0337	-0.2872	
-1.006134	-0.119438	0.101138	2.52	2.17	-2.24	0.3936	0.0398	-0.2979	
-0.997228	-0.111752	0.096746	2.8	1.82	-1.68	0.3963	0.0428	-0.2887	
-0.99552	-0.105164	0.096136	2.17	1.33	-1.33	0.3964	0.0413	-0.2903	
-0.995032	-0.1098	0.101016	1.68	1.61	-0.7	0.3979	0.0382	-0.2918	
-0.995276	-0.113216	0.097844	0.98	1.33	0.21	0.3905	0.0413	-0.2841	
-0.997594	-0.117974	0.095648	0.77	0.91	0.56	0.3993	0.0413	-0.2949	
-0.998936	-0.118462	0.095404	0.56	0.7	0.63	0.3992	0.0397	-0.2841	
-0.999668	-0.114924	0.091012	-0.07	0.07	0.7	0.3906	0.0368	-0.2856	
-1.001254	-0.114558	0.09162199	0	-0.98	0.84	0.3992	0.0382	-0.278	
-1.000034	-0.116754	0.096502	0.07	-0.63	1.26	0.3934	0.0352	-0.281	
-0.998692	-0.11285	0.094916	-0.07	-1.19	1.54	0.3921	0.0353	-0.2933	
-0.999302	-0.114436	0.098332	-0.84	-1.33	1.82	0.395	0.0352	-0.2887	
-0.995154	-0.117242	0.096868	-1.4	-0.63	1.96	0.3934	0.0398	-0.2825	
-1.002474	-0.10858	0.09699	-1.19	0	2.24	0.4006	0.0397	-0.2826	
-0.995276	-0.101382	0.100528	-0.77	-0.98	3.08	0.3934	0.0412	-0.2779	
-0.999546	-0.108702	0.101382	-1.47	0.07	3.64	0.4007	0.0367	-0.2872	
-0.99918	-0.104188	0.099918	-1.54	-0.28	4.27	0.3935	0.0383	-0.2887	
-1.003572	-0.102358	0.096868	-1.61	-0.49	4.55	0.3978	0.0337	-0.2841	
-1.00833	-0.10919	0.09699	-1.33	0.49	4.83	0.3949	0.0352	-0.2871	
-1.006012	-0.105896	0.090524	-0.63	0.28	4.9	0.3949	0.0337	-0.2794	
-1.006134	-0.092354	0.096624	0.42	0.35	5.11	0.3965	0.0352	-0.2949	
-1.001986	-0.094306	0.093086	1.19	-0.49	5.46	0.3993	0.0352	-0.2918	
-1.004548	-0.105286	0.101992	1.89	0.56	5.74	0.3935	0.0276	-0.2825	
-1.004914	-0.101138	0.088572	1.05	1.26	6.3	0.4007	0.0306	-0.2841	
-1.003816	-0.08845	0.087352	1.33	-0.07	6.51	0.3979	0.0231	-0.2871	
-1.003694	-0.087718	0.089792	1.05	-1.61	7.35	0.3906	0.0368	-0.2856	
-0.999058	-0.092354	0.096502	0.7	-1.12	7.84	0.3964	0.0337	-0.2902	
-0.997228	-0.092598	0.098454	0.14	-1.47	8.12	0.3934	0.0276	-0.2763	
-0.992714	-0.087718	0.10492	-0.14	-1.75	8.12	0.4065	0.0214	-0.2764	
-0.999668	-0.083814	0.102358	-0.35	-1.89	8.47	0.3921	0.02	-0.2809	
-1.003328	-0.083082	0.11163	-1.05	-1.47	9.1	0.4007	0.023	-0.281	
-1.002108	-0.081008	0.114924	-1.05	-0.7	9.38	0.395	0.0246	-0.2856	
-0.999302	-0.075274	0.101016	-1.68	-0.91	9.87	0.3994	0.0307	-0.2918	
-0.99918	-0.06771	0.106018	-2.52	-0.91	10.36	0.4067	0.0231	-0.298	
-0.993934	-0.066734	0.106872	-2.94	-1.19	11.2	0.3966	0.0155	-0.2932	
-0.993202	-0.069052	0.10614	-3.29	-0.91	12.04	0.3994	0.017	-0.2902	
-0.99735	-0.067222	0.111386	-3.15	-0.63	12.6	0.3937	0.0125	-0.2947	
-1.002596	-0.061244	0.104432	-2.66	-0.63	13.44	0.3994	0.017	-0.2871	
-1.008086	-0.057462	0.098332	-2.17	-0.56	13.86	0.3908	0.0125	-0.2932	
-1.00772	-0.056242	0.099186	-1.82	-0.77	13.93	0.3965	0.0124	-0.284	
-1.00406	-0.05185	0.102236	-1.05	-1.19	14.14	0.3966	0.0125	-0.2886	
-1.005158	-0.045018	0.103334	-0.84	-1.26	14.14	0.3908	0.0049	-0.2823	
-1.008208	-0.034038	0.105774	-0.56	-1.19	14.21	0.3936	0.0049	-0.2808	
-1.013454	-0.02623	0.102114	-0.07	-1.4	14.42	0.3965	0.0124	-0.2824	
-1.014918	-0.018056	0.10431	0.63	-2.73	14.7	0.3996	-0.0132	-0.287	
-1.020286	-0.006466	0.097844	0	0.14	14.35	0.3938	0.0004	-0.2978	
-1.032242	0.005612	0.104188	0.21	-2.1	14.49	0.3952	-0.0009999999	-0.2932	
-1.017114	0.016104	0.09821	0.49	-2.59	14.7	0.4053	-0.0011	-0.2871	
-1.011014	0.023668	0.091012	0.14	-1.82	14.49	0.3951	-0.0011	-0.2793	
-1.009916	0.027816	0.092232	-0.56	-1.96	14.42	0.3966	-0.0026	-0.2839	
-1.013088	0.031232	0.088694	-2.59	-3.15	14.42	0.401	-0.0194	-0.2762	
-1.016382	0.030744	0.099552	-4.62	-2.31	14.49	0.391	-0.0132	-0.2884	
-1.011868	0.030622	0.10126	-5.53	-2.03	15.12	0.3954	-0.0238	-0.2884	
-1.001498	0.030866	0.109678	-6.16	-1.82	15.61	0.391	-0.0207	-0.2869	
-0.99003	0.034648	0.120658	-6.37	-2.17	15.68	0.3882	-0.0146	-0.2976	
-0.985272	0.033306	0.130296	-5.74	-2.38	15.26	0.391	-0.0238	-0.2899	
-0.989176	0.031354	0.135542	-4.9	-2.59	14.56	0.3982	-0.0132	-0.2916	
-0.991128	0.03294	0.137982	-3.57	-5.88	14.77	0.3895	-0.0253	-0.2837	
-0.999302	0.039894	0.141276	-2.8	-3.92	14.42	0.3954	-0.0223	-0.2884	
-1.000034	0.046848	0.134688	-2.38	-3.99	14.56	0.3852	-0.0252	-0.2883	
-1.000766	0.055998	0.126758	-3.36	-4.13	14.63	0.3911	-0.0253	-0.2961	
-1.000766	0.065148	0.126636	-5.11	-3.99	14.28	0.3939	-0.0238	-0.2915	
-1.002352	0.074542	0.13176	-5.67	-2.66	13.65	0.3913	-0.0358	-0.3053	
-1.004304	0.08357	0.127856	-5.18	-2.24	12.95	0.3868	-0.0328	-0.2898	
-1.005768	0.083326	0.122	-4.55	-0.7	12.11	0.3854	-0.0419	-0.2898	
-1.009916	0.077714	0.117974	-3.36	-0.35	11.69	0.3855	-0.0434	-0.2975	
-1.014796	0.085644	0.106506	-1.26	-0.56	11.13	0.3852	-0.0298	-0.2821	
-1.02297	0.106262	0.107726	0.98	-0.77	9.87	0.3854	-0.0404	-0.2975	
-1.01504	0.127002	0.103334	1.89	-0.77	8.4	0.3839	-0.0359	-0.2867	
-1.007476	0.135664	0.099918	0.98	0.56	7.56	0.3897	-0.0419	-0.2929	
-0.999058	0.139202	0.096868	-0.28	-0.42	7.77	0.3955	-0.042	-0.2914	
-0.998326	0.143106	0.105652	-1.89	0.84	8.19	0.3912	-0.0404	-0.2929	
-0.99613	0.137616	0.12139	-3.57	0	8.47	0.3898	-0.0434	-0.296	
-0.997594	0.130052	0.123342	-3.43	-0.14	8.4	0.3912	-0.0435	-0.2883	
-0.998326	0.122732	0.131882	-1.82	-0.21	7.91	0.3868	-0.0419	-0.2898	
-0.992226	0.115168	0.145546	0.21	-0.28	7.56	0.3869	-0.0404	-0.296	
-0.987956	0.114192	0.147864	2.45	1.12	7.28	0.3898	-0.0511	-0.2882	
-0.986248	0.114436	0.145302	3.99	2.52	7.07	0.3898	-0.0435	-0.2929	
-0.987468	0.120658	0.13786	4.97	3.78	6.65	0.3956	-0.042	-0.2991	
-0.989054	0.129808	0.129198	3.57	3.78	6.23	0.3941	-0.0526	-0.2914	
-0.99064	0.131638	0.127246	1.89	3.29	6.16	0.3912	-0.0496	-0.2852	
-0.999424	0.132004	0.11529	1.05	3.57	6.09	0.397	-0.0541	-0.2868	
-1.003084	0.12993	0.112484	0.21	1.68	6.44	0.3956	-0.0587	-0.2867	
-1.003938	0.122	0.124928	0	0.42	7.63	0.3999	-0.0496	-0.2914	
-0.996862	0.121268	0.121878	0.28	1.05	8.54	0.3854	-0.0526	-0.2836	
-0.998204	0.13115	0.121268	0.56	1.61	8.82	0.3898	-0.0602	-0.2851	
-0.994666	0.144326	0.119316	0.98	1.05	8.33	0.3768	-0.057	-0.2896	
-0.99247	0.153354	0.116632	0.91	1.26	7.28	0.3883	-0.0602	-0.282	
-0.99247	0.156282	0.114192	0.35	1.33	6.51	0.3926	-0.0602	-0.279	
-0.991128	0.156038	0.1159	-0.77	1.12	6.23	0.3827	-0.0692	-0.2912	
-0.998204	0.159088	0.117364	-1.33	0.84	6.51	0.3869	-0.0556	-0.2867	
-0.987346	0.17568	0.121024	-1.54	0.63	6.51	0.3827	-0.0646	-0.2912	
-0.981978	0.184708	0.12322	-1.19	-0.49	6.02	0.3913	-0.0601	-0.2944	
-0.978928	0.189344	0.124928	-1.26	1.26	5.11	0.3913	-0.0526	-0.2929	
-0.98637	0.191174	0.122244	-1.12	2.87	4.62	0.3841	-0.0601	-0.2897	
-0.99308	0.186538	0.11651	-2.24	2.17	5.18	0.3898	-0.0693	-0.282	
-1.000888	0.18178	0.11956	-3.85	1.89	6.65	0.3869	-0.0586	-0.2897	
-0.99674	0.175924	0.115046	-4.34	1.68	8.75	0.3899	-0.0677	-0.2866	
-0.986736	0.174704	0.11895	-3.85	1.89	10.43	0.387	-0.0707	-0.2866	
-0.976	0.176656	0.123586	-3.22	2.17	11.48	0.3812	-0.0662	-0.2881	
-0.966362	0.174216	0.121146	-2.17	1.75	11.69	0.3884	-0.0708	-0.2804	
-0.967216	0.162992	0.128954	-1.12	2.87	11.48	0.387	-0.0753	-0.285	
-0.976244	0.152256	0.129564	-0.63	3.64	10.99	0.387	-0.0677	-0.2851	
-0.985272	0.145546	0.129564	-0.28	2.66	10.71	0.3901	-0.0813	-0.2958	
-0.991616	0.140666	0.122854	1.19	4.06	11.27	0.3915	-0.07979999	-0.2943	
-0.996252	0.145424	0.118096	2.31	4.9	12.11	0.3856	-0.0738	-0.2912	
-0.99552	0.15616	0.108824	3.43	5.95	12.74	0.3972	-0.0845	-0.2882	
-0.990762	0.173728	0.105774	4.27	5.39	13.23	0.3856	-0.0875	-0.2772	
-0.988322	0.191906	0.108092	3.22	6.37	13.23	0.3899	-0.0905	-0.2711	
-0.992836	0.205204	0.098454	1.96	7	13.44	0.3769	-0.0844	-0.2787	
-1.005646	0.214232	0.094306	-0.56	5.74	13.65	0.3986	-0.0845	-0.2774	
-1.011868	0.219722	0.08418	-1.89	4.69	14.49	0.3985	-0.083	-0.2712	
-1.002596	0.23119	0.081496	-2.66	6.93	14.56	0.3928	-0.08899999	-0.2789	
-0.985028	0.237534	0.087474	-3.22	7.14	14.35	0.39	-0.092	-0.2788	
-0.975146	0.238266	0.075396	-2.94	9.03	14.42	0.3958	-0.0905	-0.285	
-0.9699	0.251198	0.072102	-2.73	7.7	15.12	0.3929	-0.0966	-0.2773	
-0.964898	0.269254	0.084302	-1.47	5.6	15.61	0.3856	-0.0905	-0.2741	
-0.963922	0.286212	0.08723	-0.49	4.48	15.4	0.39	-0.09959999	-0.2742	
-0.963922	0.292678	0.087474	-0.14	5.04	14.21	0.3972	-0.1012	-0.2773	
-0.970998	0.29829	0.081618	0.77	6.65	13.16	0.3827	-0.1148	-0.2601	
-0.971364	0.296094	0.078202	0.28	7	12.88	0.3856	-0.1102	-0.2664	
-0.97356	0.292068	0.062586	-0.56	7	13.44	0.3813	-0.09959999	-0.2725	
-0.97417	0.299998	0.06039	-0.63	8.19	13.86	0.3828	-0.1133	-0.2663	
-0.968192	0.302438	0.065392	-0.49	7.56	13.93	0.3914	-0.1133	-0.2633	
-0.965264	0.303902	0.063196	-0.21	7.7	13.72	0.3813	-0.1208	-0.2632	
-0.96746	0.312564	0.06344	-0.14	8.19	12.74	0.3885	-0.1118	-0.2633	
-0.962336	0.315492	0.056242	-0.28	7.77	11.2	0.3914	-0.1179	-0.2633	
-0.956846	0.312442	0.05185	-0.77	5.81	9.73	0.3929	-0.1179	-0.2602	
-0.958676	0.309392	0.047214	-1.12	5.11	8.54	0.3857	-0.1148	-0.2663	
-0.962702	0.30744	0.045018	-1.82	4.97	8.12	0.39	-0.124	-0.2586	
-0.960506	0.316468	0.056852	-2.1	4.06	8.54	0.3914	-0.1164	-0.2633	
-0.956358	0.337452	0.068076	-1.68	3.85	8.68	0.3885	-0.1209	-0.2555	
-0.953552	0.346602	0.056974	-2.1	5.39	8.47	0.3842	-0.1285	-0.2524	
-0.955504	0.349164	0.04758	-3.08	7	8.75	0.3856	-0.1194	-0.2571	
-0.954772	0.340624	0.053192	-3.85	6.16	9.59	0.3842	-0.1209	-0.2555	
-0.95343	0.336842	0.047824	-3.78	5.11	9.73	0.3828	-0.1193	-0.2617	
-0.957578	0.330986	0.042944	-3.43	4.62	9.66	0.3885	-0.1224	-0.2602	
-0.955382	0.324154	0.041724	-2.59	4.9	9.03	0.3813	-0.13	-0.257	
-0.950868	0.318176	0.05002	-1.54	4.62	8.26	0.3844	-0.1299	-0.2709	
-0.949526	0.32574	0.052826	0	4.62	7.21	0.3972	-0.124	-0.2572	
-0.949892	0.338794	0.037088	0.84	5.11	6.51	0.3929	-0.1377	-0.2509	
-0.95343	0.337208	0.036844	0.49	4.76	6.72	0.3783	-0.127	-0.2477	
-0.965264	0.337086	0.030012	1.26	3.85	6.72	0.3827	-0.1209	-0.2493	
-0.966118	0.345992	0.037576	1.68	3.78	6.58	0.3886	-0.1346	-0.2601	
-0.955992	0.3538	0.022814	1.19	3.99	6.44	0.3929	-0.1331	-0.254	
-0.951112	0.349164	0.030378	-0.21	3.01	6.79	0.3885	-0.13	-0.2524	
-0.956724	0.346602	0.029158	-0.56	1.89	7.14	0.3842	-0.1361	-0.2446	
-0.962458	0.350994	0.028548	-0.42	1.68	7.14	0.3885	-0.1301	-0.2478	
-0.96441	0.351238	0.02257	-0.63	2.24	6.93	0.3929	-0.1331	-0.2525	
-0.957822	0.342698	0.022082	-1.4	1.75	6.44	0.39	-0.1452	-0.2462	
-0.952332	0.342942	0.026474	-1.82	0.84	5.95	0.3755	-0.1406	-0.243	
-0.94916	0.352214	0.031354	-2.45	0.56	5.32	0.3872	-0.1467	-0.2477	
-0.952576	0.358558	0.036966	-2.38	1.12	4.76	0.387	-0.1346	-0.2416	
-0.950868	0.366488	0.039406	-2.31	1.75	4.27	0.3872	-0.1406	-0.2554	
-0.948184	0.368928	0.03294	-2.24	1.96	3.99	0.3944	-0.1529	-0.2447	
-0.945622	0.367586	0.032818	-2.94	2.17	3.71	0.3828	-0.1528	-0.2461	
-0.944158	0.3721	0.03416	-3.57	1.68	3.71	0.3915	-0.1422	-0.2539	
-0.944036	0.37759	0.029524	-3.64	2.03	3.29	0.3886	-0.1467	-0.2493	
-0.937692	0.376004	0.032086	-3.43	1.89	2.8	0.3899	-0.1377	-0.2432	
-0.9333	0.381128	0.02806	-3.43	1.54	2.1	0.3814	-0.1528	-0.2445	
-0.933178	0.389546	0.026718	-3.5	1.75	1.47	0.3813	-0.1452	-0.2446	
-0.93391	0.396744	0.02257	-3.71	1.19	0.84	0.3857	-0.1406	-0.2493	
-0.932934	0.392596	0.024644	-3.85	-0.28	0.7	0.3957	-0.1408	-0.2401	
-0.933788	0.385032	0.0244	-3.85	-0.56	0.56	0.39	-0.1452	-0.2477	
-0.936228	0.382958	0.03294	-3.57	-1.12	0.42	0.3944	-0.1437	-0.2524	
-0.934886	0.386252	0.03599	-3.36	-1.12	0.21	0.3902	-0.1589	-0.2508	
-0.936594	0.389058	0.038064	-2.94	-0.98	-0.14	0.3887	-0.1482	-0.2523	
-0.934886	0.38735	0.043798	-2.38	-0.63	-0.56	0.39	-0.127	-0.254	
-0.93147	0.381006	0.038918	-2.8	-0.42	-1.05	0.3857	-0.1421	-0.2554	
-0.931714	0.375882	0.041358	-2.38	-0.7	-1.96	0.3914	-0.1392	-0.2401	
-0.93513	0.370148	0.040016	-2.45	0	-3.36	0.3856	-0.1346	-0.2477	
-0.938302	0.367708	0.038308	-1.89	0	-3.57	0.3857	-0.1422	-0.2493	
-0.941352	0.364048	0.039162	-0.63	-0.56	-3.92	0.3813	-0.133	-0.2477	
-0.945378	0.361852	0.0366	0.63	-0.63	-4.34	0.3887	-0.1482	-0.2585	
-0.941596	0.361486	0.037088	0.42	-1.33	-4.69	0.3842	-0.1391	-0.2477	
-0.938058	0.363438	0.035746	0.42	-0.98	-5.04	0.3872	-0.1345	-0.2585	
-0.943914	0.355874	0.030012	0.42	-0.98	-5.6	0.3856	-0.1437	-0.24	
-0.94733	0.35258	0.03965	0.77	-3.01	-6.09	0.3843	-0.1361	-0.257	
-0.945622	0.354288	0.04575	1.19	-3.22	-6.37	0.3814	-0.1315	-0.257	
-0.943914	0.35075	0.042212	1.33	-2.73	-6.79	0.3871	-0.1331	-0.2539	
-0.942938	0.347212	0.04453	2.52	-3.01	-7.28	0.3871	-0.1331	-0.2508	
-0.936594	0.345382	0.050386	2.87	-3.78	-7.77	0.3842	-0.1331	-0.2477	
-0.939888	0.342454	0.049044	3.15	-3.99	-8.4	0.387	-0.1285	-0.2462	
-0.940864	0.34648	0.055266	3.64	-3.64	-9.38	0.3843	-0.1391	-0.2539	
-0.94489	0.351238	0.05246	3.85	-3.71	-9.73	0.3827	-0.1361	-0.2462	
-0.950868	0.35258	0.053436	3.29	-3.36	-10.15	0.3885	-0.1255	-0.2509	
-0.953674	0.344528	0.042578	3.22	-3.5	-10.78	0.3857	-0.13	-0.2586	
-0.960018	0.345626	0.04087	3.01	-3.85	-10.92	0.3928	-0.1331	-0.2463	
-0.959774	0.34343	0.034526	3.22	-4.9	-10.99	0.3842	-0.1224	-0.257	
-0.961116	0.33672	0.034038	3.43	-5.88	-11.34	0.39	-0.1224	-0.2586	
-0.961848	0.325984	0.041846	3.36	-7.21	-11.76	0.3885	-0.1194	-0.2586	
-0.95465	0.317688	0.050752	3.43	-7.84	-12.39	0.387	-0.1179	-0.2555	
-0.952942	0.32452	0.055876	3.22	-6.93	-13.09	0.3928	-0.1149	-0.2587	
-0.955992	0.327692	0.058194	2.94	-5.74	-13.58	0.39	-0.1209	-0.2602	
-0.967582	0.325862	0.053436	2.73	-6.79	-13.93	0.3857	-0.1194	-0.2617	
-0.97478	0.313784	0.04819	2.73	-7.21	-14.35	0.3928	-0.1118	-0.2618	
-0.979538	0.306464	0.051728	2.31	-8.96	-14.49	0.3885	-0.1027	-0.268	
-0.980392	0.299632	0.069296	1.82	-8.4	-14.56	0.3871	-0.1117	-0.2725	
-0.9699	0.29341	0.06344	1.75	-9.45	-14.77	0.3929	-0.1088	-0.268	
-0.974048	0.289018	0.065148	2.52	-8.82	-15.05	0.3899	-0.0981	-0.2711	
-0.969534	0.280722	0.071614	2.73	-9.66	-15.12	0.3827	-0.1072	-0.2679	
-0.969778	0.277062	0.07503	2.66	-9.52	-15.75	0.39	-0.1012	-0.2726	
-0.970754	0.270596	0.083936	3.08	-10.43	-16.38	0.3973	-0.1057	-0.2757	
-0.9882	0.27084	0.089426	3.71	-8.82	-17.36	0.3871	-0.1011	-0.2757	
-0.98332	0.25742	0.081862	4.62	-10.64	-17.99	0.3871	-0.1042	-0.2741	
-0.98088	0.244732	0.088206	5.46	-10.78	-18.48	0.387	-0.09959999	-0.271	
-0.983198	0.241804	0.094062	6.23	-10.08	-18.97	0.3828	-0.09959999	-0.2756	
-0.986248	0.242536	0.094062	6.93	-9.1	-19.04	0.387	-0.0905	-0.2757	
-0.98881	0.24339	0.096868	6.86	-8.68	-18.9	0.3871	-0.0935	-0.2819	
-0.987468	0.23668	0.098332	5.39	-8.19	-18.55	0.3901	-0.095	-0.288	
-0.983686	0.22814	0.098942	3.99	-7.42	-18.62	0.3842	-0.092	-0.2849	
-0.980392	0.219112	0.1037	3.01	-7.28	-18.9	0.3857	-0.0874	-0.2865	
-0.98393	0.213012	0.106384	2.94	-7.14	-19.46	0.3855	-0.0753	-0.2773	
-0.992104	0.207766	0.104798	3.36	-7.77	-20.16	0.3914	-0.0768	-0.2897	
-0.990762	0.199348	0.107848	2.87	-6.58	-20.65	0.3884	-0.0753	-0.282	
-0.990762	0.190808	0.113948	2.59	-6.79	-20.3	0.3899	-0.0814	-0.2789	
-0.988932	0.188978	0.118584	2.8	-6.86	-19.46	0.3827	-0.0768	-0.2896	
-0.99308	0.18605	0.117608	2.45	-5.88	-18.62	0.3827	-0.0722	-0.2881	
-0.996252	0.186782	0.111996	2.31	-5.39	-18.13	0.3827	-0.0692	-0.2881	
-0.9943	0.181292	0.117852	1.19	-5.74	-18.41	0.3812	-0.06	-0.2974	
-0.993324	0.165188	0.11956	-0.56	-4.2	-18.06	0.3898	-0.0708	-0.282	
-0.996984	0.148108	0.117974	-2.8	-4.48	-17.71	0.3827	-0.0601	-0.2958	
-0.998448	0.141642	0.120536	-4.34	-4.13	-16.87	0.3927	-0.0556	-0.2944	
-1.000522	0.136152	0.129564	-5.18	-4.83	-15.4	0.384	-0.0495	-0.2913	
-0.996374	0.122366	0.138226	-5.74	-5.6	-14	0.3812	-0.054	-0.2943	
-0.990396	0.102602	0.147254	-6.86	-5.25	-12.95	0.3783	-0.054	-0.2943	
-0.988444	0.097722	0.139934	-6.3	-4.27	-12.81	0.3826	-0.0479	-0.299	
-0.9882	0.091378	0.145424	-5.11	-5.6	-13.3	0.3826	-0.0419	-0.3005	
-0.992836	0.083448	0.160674	-4.48	-5.95	-13.93	0.3796	-0.0358	-0.299	
-0.990762	0.068808	0.160552	-3.78	-3.85	-13.65	0.3811	-0.0403	-0.3005	
-0.9882	0.057706	0.166286	-3.01	-3.92	-12.53	0.3855	-0.0388	-0.3021	
-0.994056	0.059048	0.159942	-1.4	-2.52	-11.13	0.3796	-0.0267	-0.3021	
-0.992836	0.066002	0.158478	-0.49	-2.24	-10.22	0.3738	-0.0357	-0.2974	
-0.992226	0.064782	0.152622	-0.84	-0.77	-9.66	0.3782	-0.0342	-0.3036	
-0.994666	0.06405	0.153476	-2.1	-1.89	-8.82	0.381	-0.0221	-0.3006	
-0.9943	0.064172	0.149938	-1.89	-2.1	-8.33	0.3826	-0.0373	-0.3021	
-0.992348	0.067832	0.150548	-1.47	-2.66	-7.84	0.3869	-0.0252	-0.3068	
-0.995398	0.07015	0.1525	-1.75	-2.73	-7.14	0.3854	-0.0252	-0.3037	
-1.006988	0.074298	0.131638	-0.14	-3.71	-7.14	0.3838	-0.0222	-0.2929	
-1.009794	0.095404	0.138714	2.1	-5.88	-8.26	0.3811	-0.0297	-0.3037	
-1.006866	0.100894	0.14396	0.28	-5.6	-10.01	0.3724	-0.0266	-0.3098	
-0.997106	0.091988	0.147254	-3.71	-7.56	-11.34	0.381	-0.0236	-0.3037	
-0.99125	0.076494	0.158234	-5.25	-7.49	-11.41	0.3869	-0.0252	-0.3068	
-0.991738	0.070638	0.159088	-4.48	-7	-10.71	0.3825	-0.0206	-0.3068	
-0.989298	0.071736	0.170312	-2.38	-7.56	-10.08	0.3766	-0.0084	-0.3068	
-0.991128	0.079544	0.182146	-0.56	-6.37	-10.64	0.3782	-0.016	-0.3099	
-0.988322	0.081618	0.184098	1.33	-4.69	-12.04	0.3795	-0.0054	-0.3068	
-0.984418	0.074542	0.181536	0.84	-2.87	-14.14	0.3767	-0.0145	-0.3083	
-0.973194	0.055022	0.188612	-0.56	-1.4	-15.4	0.3767	-0.013	-0.3083	
-0.961848	0.026108	0.20191	-2.1	1.54	-14.77	0.3781	-0.0115	-0.3083	
-0.965264	0.012932	0.202764	-1.47	2.94	-13.86	0.381	-0.0069	-0.3115	
-0.974902	0.008662	0.20191	1.12	4.34	-13.23	0.3781	-0.0023	-0.313	
-0.976488	0.002928	0.193736	2.17	4.69	-12.6	0.381	0.0006	-0.313	
-0.9821	-0.000976	0.18666	2.87	5.81	-12.53	0.3809	0.002	-0.3023	
-0.993812	-0.011346	0.173728	4.76	6.79	-12.74	0.3752	-0.0084	-0.3068	
-1.001864	-0.02013	0.162016	5.25	7.28	-12.95	0.3766	-0.0054	-0.3099	
-1.017236	-0.020496	0.154086	5.18	7.28	-13.65	0.3808	0.0157	-0.3054	
-1.02541	-0.019154	0.145912	5.32	6.44	-14.28	0.378	0.0021	-0.3022	
-1.028338	-0.014274	0.120902	5.81	5.74	-14.63	0.3895	0.0065	-0.3055	
-1.024556	-0.011956	0.114802	5.18	4.41	-14.91	0.3794	0.0035	-0.2992	
-1.017724	-0.013664	0.116632	4.27	3.57	-14.63	0.3866	0.007999999	-0.2977	
-1.009306	-0.014884	0.127002	2.94	6.79	-14.21	0.3923	0.0171	-0.3055	
-1.004792	-0.022936	0.12078	2.59	7.28	-13.65	0.3851	0.0126	-0.3054	
-0.999424	-0.033184	0.133712	2.45	7.07	-13.3	0.3852	0.0096	-0.3116	
-1.003206	-0.046726	0.134566	1.82	7.07	-13.16	0.3923	0.0186	-0.3055	
-1.008696	-0.07076	0.138714	1.12	6.09	-12.46	0.3909	0.0111	-0.304	
-1.004182	-0.084302	0.14701	2.73	4.62	-11.34	0.3924	0.0141	-0.304	
-1.000278	-0.080642	0.154208	3.78	4.2	-10.22	0.3865	0.0232	-0.304	
-1.000156	-0.075762	0.133712	2.8	4.13	-9.24	0.3792	0.0202	-0.2962	
-1.002962	-0.076494	0.141032	3.08	5.46	-9.31	0.3851	0.0172	-0.3008	
-1.001986	-0.073566	0.133346	3.22	5.25	-9.73	0.3893	0.0277	-0.2994	
-0.99735	-0.065758	0.139446	3.78	5.74	-10.92	0.3851	0.0126	-0.2962	
-0.994178	-0.07747	0.130296	3.43	5.95	-11.13	0.3935	0.0368	-0.2933	
-0.992104	-0.08845	0.12871	3.64	6.72	-10.22	0.3821	0.0172	-0.2962	
-0.996374	-0.084302	0.130906	4.76	6.79	-8.96	0.3879	0.0201	-0.2916	
-0.990152	-0.077348	0.12749	2.94	4.9	-7.42	0.3907	0.0216	-0.2917	
-0.992714	-0.076006	0.109678	2.24	2.94	-6.3	0.3864	0.0277	-0.2978	
-0.99918	-0.06649	0.124318	2.17	2.38	-5.46	0.395	0.0368	-0.2964	
-1.003206	-0.070516	0.121756	-0.63	3.36	-5.18	0.382	0.0308	-0.2962	
-1.002108	-0.07686	0.122976	-0.91	3.08	-5.39	0.3951	0.0292	-0.2964	
-1.00467	-0.087962	0.126636	-1.33	4.2	-5.67	0.3906	0.0261	-0.2855	
-1.001376	-0.094428	0.118218	-1.19	4.41	-5.6	0.3907	0.0277	-0.2902	
-0.990884	-0.098088	0.110166	0.21	3.5	-5.88	0.3906	0.0383	-0.2902	
-0.993568	-0.0915	0.10797	0.7	3.36	-5.88	0.3892	0.0247	-0.2886	
-1.002474	-0.08235	0.108092	0.7	2.24	-5.32	0.3849	0.0414	-0.2963	
-1.013454	-0.084668	0.100162	0	1.47	-4.55	0.3965	0.0292	-0.2902	
-1.014552	-0.088938	0.108702	0	1.82	-3.78	0.379	0.0368	-0.2839	
-1.009916	-0.096624	0.098698	-0.49	2.52	-3.08	0.3847	0.0489	-0.2856	
-1.004914	-0.105896	0.088328	0.21	1.54	-2.17	0.3906	0.0337	-0.2809	
-1.00528	-0.102846	0.10187	1.12	0.35	-1.47	0.3949	0.0428	-0.2856	
-1.004914	-0.108214	0.100772	1.4	0.21	-0.91	0.3978	0.0336	-0.2779	
-1.00711	-0.106872	0.096502	1.82	0.14	-0.7	0.3921	0.0292	-0.2856	
-1.005646	-0.102968	0.09699	1.82	-0.91	-0.14	0.4022	0.0276	-0.2826	
-0.997838	-0.1037	0.106994	1.75	-2.03	0	0.3878	0.0307	-0.2901	
-0.99491	-0.110166	0.11041	1.05	-2.17	0.35	0.392	0.0352	-0.281	
-0.992226	-0.106872	0.115168	0.84	-1.96	1.33	0.3978	0.0398	-0.2918	
-0.99186	-0.103944	0.119682	1.05	-2.59	2.24	0.3877	0.0398	-0.2886	
-0.989176	-0.101382	0.125904	0.28	-2.31	2.66	0.3907	0.0307	-0.2902	
-0.989542	-0.10614	0.120048	-0.77	-1.33	3.01	0.3921	0.0368	-0.2902	
-0.996862	-0.103334	0.125782	-0.77	-0.84	3.43	0.392	0.0459	-0.2918	
-0.99369	-0.092232	0.128344	-1.05	-1.26	3.78	0.3907	0.0246	-0.2901	
-0.986126	-0.088206	0.126148	-1.12	-0.91	3.92	0.3936	0.0383	-0.2979	
-0.989054	-0.09857599	0.129686	-0.7	-0.7	4.2	0.3979	0.0352	-0.2949	
-0.996984	-0.097966	0.13054	-0.56	0.91	4.2	0.3834	0.0338	-0.2932	
-1.001742	-0.086742	0.114436	-0.63	1.54	4.34	0.3877	0.0353	-0.2886	
-1.003328	-0.081008	0.105408	-0.49	1.19	4.62	0.3907	0.0322	-0.2917	
-1.008696	-0.077348	0.09942999	0	0.84	5.18	0.3994	0.0215	-0.2871	
-1.005402	-0.06832	0.10736	0.7	-0.63	5.67	0.395	0.0291	-0.2856	
-0.999424	-0.07124799	0.105408	0.14	-1.33	6.23	0.3864	0.0232	-0.2916	
-0.996984	-0.076128	0.116022	-0.7	-0.91	6.37	0.395	0.0337	-0.2918	
-0.999668	-0.081252	0.118218	-1.19	-0.28	6.37	0.3964	0.0306	-0.2825	
-1.006744	-0.0793	0.121512	-0.91	1.12	6.23	0.4037	0.0215	-0.2856	
-1.004914	-0.076006	0.118218	-0.84	-0.28	6.65	0.3978	0.0321	-0.2841	
-1.000888	-0.077348	0.114314	-0.77	-0.42	6.93	0.3922	0.0201	-0.2886	
-0.996862	-0.076738	0.115656	-0.98	0	7.63	0.3936	0.0246	-0.2917	
-0.998082	-0.068076	0.115046	-0.84	-0.49	8.12	0.3964	0.0276	-0.284	
-0.997228	-0.061732	0.11712	-0.7	-1.05	8.68	0.3922	0.0216	-0.2917	
-0.996374	-0.060878	0.120048	-0.98	-0.7	8.96	0.4008	0.0306	-0.2903	
-0.999668	-0.069052	0.113948	-1.05	-0.07	9.24	0.3878	0.0323	-0.2932	
-1.000888	-0.068808	0.120048	-0.84	-0.49	9.45	0.3923	0.0095	-0.2932	
-1.002352	-0.062708	0.119316	-0.63	0	9.94	0.3906	0.0185	-0.2793	
-1.004792	-0.058438	0.114314	-0.77	-0.07	10.64	0.3937	0.0125	-0.2932	
-1.005646	-0.053314	0.115046	-0.63	0.28	11.62	0.3865	0.0202	-0.2962	
-1.001864	-0.050874	0.115168	-0.84	-0.42	12.18	0.3936	0.0079	-0.2778	
-0.99552	-0.04331	0.119316	-0.84	-0.84	12.46	0.3864	0.0141	-0.29	
-0.991372	-0.03843	0.124806	-0.56	-1.05	12.53	0.4011	0.0019	-0.2978	
-0.993324	-0.039894	0.126148	0.07	-1.33	12.88	0.3952	0.0019	-0.287	
-1.001498	-0.026718	0.1281	1.26	-1.47	13.51	0.3894	0.0095	-0.2916	
-1.004182	-0.02196	0.128222	1.33	-1.19	13.72	0.3865	0.0019	-0.2854	
-1.004426	-0.011102	0.120048	0.49	-1.12	14	0.3909	0.0004	-0.2931	
-1.002474	-0.008417999	0.12505	0	-1.33	14.21	0.4011	-0.0026	-0.2947	
-0.999668	0.002318	0.125782	-0.49	-1.4	14.49	0.3852	-0.0055	-0.293	
-0.997594	0.0122	0.122732	-1.12	-2.38	14.7	0.3967	0.0004	-0.2963	
-1.000034	0.017202	0.12566	-1.96	2.66	14.35	0.391	-0.0071	-0.2962	
-1.00528	0.018666	0.1281	-0.77	-1.12	14.91	0.3881	-0.004	-0.2961	
-1.010526	0.022448	0.127246	0.14	-2.03	15.33	0.3953	-0.0071	-0.2962	
-1.009062	0.027816	0.11712	0.49	-1.4	15.4	0.391	-0.0147	-0.293	
-0.99735	0.037942	0.103334	0.42	-1.89	15.4	0.3925	-0.0147	-0.2946	
-1.003816	0.046848	0.107116	-0.42	-1.26	14.91	0.3982	-0.0117	-0.2962	
-0.998692	0.049776	0.110532	-1.54	-2.59	14.91	0.3881	-0.0177	-0.2884	
-1.003328	0.049654	0.120902	-2.17	-2.45	14.56	0.3866	-0.0222	-0.2853	
-1.006134	0.054412	0.12383	-2.8	-2.03	14.56	0.3896	-0.0146	-0.3007	
-1.010282	0.058926	0.124562	-3.29	-0.98	14.56	0.3896	-0.0207	-0.2961	
-1.011746	0.064172	0.126026	-2.8	0.07	14.14	0.3839	-0.0282	-0.2929	
-1.012356	0.069174	0.117608	-1.33	-0.14	13.44	0.3824	-0.0252	-0.2914	
-1.009916	0.076494	0.115778	-0.28	-0.07	12.6	0.3809	-0.0222	-0.2852	
-1.008818	0.08113	0.122854	0.35	0.21	11.55	0.3811	-0.0343	-0.3021	
-1.006256	0.081618	0.128588	0.56	0.42	10.92	0.381	-0.0343	-0.2913	
-0.998692	0.087962	0.12383	0.77	0.42	10.99	0.3912	-0.0404	-0.2929	
-1.000156	0.09942999	0.124928	0.21	1.68	10.92	0.3838	-0.0313	-0.2867	
-1.001132	0.108824	0.12078	-1.19	2.17	10.85	0.3868	-0.0465	-0.2821	
-1.004792	0.112606	0.119804	-1.47	2.94	10.5	0.3869	-0.0419	-0.296	
-1.007476	0.110532	0.114314	-1.4	4.27	9.94	0.3825	-0.0328	-0.299	
-1.006134	0.109068	0.10553	-0.84	3.71	9.66	0.394	-0.0435	-0.2852	
-1.000644	0.117364	0.10614	0.42	2.17	8.96	0.3897	-0.0389	-0.2868	
-1.01016	0.128222	0.11407	0.91	0.91	7.98	0.3926	-0.042	-0.2899	
-1.003694	0.13359	0.114802	-0.49	1.47	6.86	0.3926	-0.045	-0.2868	
-1.00101	0.130418	0.110654	-1.26	1.26	6.51	0.3826	-0.0555	-0.2928	
-0.9943	0.130418	0.119926	-1.05	0.7	6.79	0.3868	-0.048	-0.2836	
-0.986614	0.125904	0.131028	-1.19	1.19	7.07	0.3869	-0.0586	-0.2805	
-0.987224	0.118584	0.128344	-0.77	2.1	7.28	0.3927	-0.0526	-0.2944	
-0.998448	0.116754	0.12383	0.07	2.17	7.42	0.3869	-0.0526	-0.2867	
-1.004304	0.11956	0.116388	0.98	2.31	7.56	0.3898	-0.0526	-0.2898	
-1.00223	0.12383	0.111874	0.98	2.38	7.49	0.3912	-0.048	-0.2867	
-0.99735	0.133224	0.114924	0.7	2.59	7.14	0.3883	-0.0465	-0.2898	
-0.996252	0.1403	0.10919	0.28	2.66	6.51	0.3883	-0.0511	-0.2836	
-0.994788	0.13908	0.110532	-0.49	2.03	6.09	0.3927	-0.0556	-0.2944	
-0.995764	0.135542	0.11163	-0.7	1.82	5.95	0.3926	-0.0557	-0.2775	
-1.000034	0.136396	0.108336	-0.77	1.75	6.02	0.3869	-0.0556	-0.2882	
-1.002474	0.140666	0.105286	-0.63	1.89	6.09	0.3985	-0.0496	-0.296	
-1.005036	0.143228	0.102724	-0.49	1.68	6.16	0.3913	-0.0586	-0.2898	
-1.0065	0.14152	0.09821	-0.77	1.26	6.23	0.387	-0.0632	-0.2882	
-1.006622	0.141886	0.100772	-0.35	1.12	6.37	0.3941	-0.0526	-0.2883	
-1.001498	0.146888	0.106384	0.28	0.56	6.16	0.3942	-0.0556	-0.2913	
-0.996862	0.155184	0.107116	1.33	0.63	5.6	0.3956	-0.0496	-0.2898	
-0.990884	0.161284	0.10919	2.03	0.63	4.76	0.3897	-0.0572	-0.2805	
-0.988444	0.163602	0.109922	2.31	0.56	3.85	0.3971	-0.0556	-0.2929	
-0.990396	0.163602	0.107116	1.75	0.49	3.22	0.3941	-0.0617	-0.2821	
-0.991128	0.168482	0.103944	1.54	0.28	3.01	0.384	-0.0571	-0.2866	
-0.99308	0.178242	0.101016	1.12	-0.77	3.08	0.3913	-0.0677	-0.2882	
-0.99186	0.183366	0.10309	-0.21	-1.26	3.01	0.3912	-0.0693	-0.2774	
-0.984906	0.18056	0.113826	-1.61	-2.24	2.8	0.3913	-0.0647	-0.2836	
-0.97661	0.177632	0.124318	-2.24	-1.82	2.24	0.3884	-0.0616	-0.2928	
-0.981246	0.17751	0.12139	-2.59	-0.77	1.61	0.3913	-0.07229999	-0.2851	
-0.987712	0.177632	0.116632	-2.94	-0.63	0.84	0.3855	-0.0662	-0.2866	
-0.99064	0.173606	0.110898	-2.8	-0.91	0.28	0.3927	-0.0678	-0.2851	
-0.99064	0.16714	0.10675	-2.66	-0.77	0	0.3928	-0.0708	-0.2836	
-0.99369	0.158722	0.108092	-2.8	-1.4	-0.14	0.3869	-0.051	-0.2898	
-0.996618	0.15555	0.109556	-2.66	-1.68	-0.07	0.3971	-0.0663	-0.2836	
-0.99491	0.153842	0.115534	-1.61	-2.38	-0.07	0.4014	-0.0633	-0.2852	
-0.992348	0.152256	0.11651	-0.49	-2.17	-0.21	0.3812	-0.0646	-0.2896	
-0.99247	0.155794	0.11956	0.84	-2.31	-0.42	0.3869	-0.0541	-0.2851	
-0.99247	0.158478	0.11529	1.68	-2.03	-0.35	0.3884	-0.0647	-0.2851	
-0.992226	0.162016	0.116876	1.4	-2.45	-0.28	0.3855	-0.0662	-0.2835	
-0.996374	0.162382	0.11285	0.77	-2.1	-0.28	0.3914	-0.0692	-0.2959	
-0.995886	0.165554	0.11163	0.42	-2.38	-0.28	0.3798	-0.0661	-0.2912	
-0.996374	0.168116	0.119194	-0.49	-2.52	-0.28	0.3798	-0.0661	-0.2912	
-0.989786	0.171898	0.122366	-0.98	-2.94	-0.42	0.3798	-0.0661	-0.2912	
-0.988688	0.17751	0.121878	-1.4	-1.82	-0.91	0.3798	-0.0631	-0.2912	
-0.993568	0.183366	0.116266	-2.1	-1.26	-0.98	0.3942	-0.0647	-0.2913	
-0.990518	0.185684	0.114558	-3.29	-1.96	-0.98	0.3796	-0.0495	-0.2881	
-0.989542	0.187148	0.111996	-4.76	-1.19	-0.77	0.3797	-0.0555	-0.2912	
-0.986614	0.185074	0.12078	-6.93	-2.03	-0.63	0.3854	-0.0571	-0.2835	
-0.989664	0.181902	0.121756	-9.45	-1.19	-0.63	0.3928	-0.0571	-0.299	
-0.99735	0.173606	0.125294	-11.55	0.21	-0.7	0.3869	-0.0586	-0.2866	
-0.997838	0.171044	0.126636	-13.51	-0.84	-0.35	0.3827	-0.0692	-0.2896	
-0.99247	0.164456	0.120048	-14.63	-0.21	-0.28	0.3768	-0.057	-0.2927	
-0.993324	0.151158	0.12139	-14.56	-1.4	0.07	0.3856	-0.0448	-0.3144	
-0.995032	0.146034	0.127124	-14.28	-1.61	0.35	0.3813	-0.0509	-0.3066	
-0.9943	0.142252	0.124562	-14	-1.54	0.28	0.3797	-0.0479	-0.2974	
-0.991494	0.145424	0.137616	-12.74	-1.82	-0.28	0.3898	-0.048	-0.2913	
-0.984418	0.150792	0.145058	-11.27	-1.75	-0.56	0.3884	-0.0495	-0.299	
-0.977098	0.15982	0.143472	-11.55	-0.42	-1.19	0.3827	-0.054	-0.302	
-0.97966	0.172508	0.133834	-12.32	-0.56	-1.61	0.3869	-0.0419	-0.296	
-0.980758	0.182146	0.14152	-13.09	2.17	-1.89	0.3826	-0.0464	-0.2959	
-0.98027	0.186782	0.154452	-15.05	3.5	-2.45	0.3797	-0.0373	-0.3021	
-0.986614	0.18178	0.137982	-17.08	3.92	-2.8	0.3767	-0.0403	-0.2912	
-0.983442	0.175436	0.14518	-19.04	2.59	-2.94	0.3797	-0.0358	-0.3036	
-0.987102	0.159332	0.134078	-20.23	5.11	-3.08	0.384	-0.0403	-0.3021	
-0.988078	0.152744	0.133102	-19.67	4.83	-3.43	0.3781	-0.0358	-0.2882	
-0.997716	0.14884	0.125904	-18.83	5.04	-4.27	0.3869	-0.0449	-0.2975	
-0.995764	0.149206	0.130052	-18.06	5.18	-4.83	0.3853	-0.0298	-0.2914	
-0.993812	0.146522	0.123464	-18.55	4.9	-5.39	0.3884	-0.0343	-0.3037	
-0.996374	0.13786	0.12017	-19.39	4.69	-5.74	0.3868	-0.0267	-0.2976	
-1.001132	0.13237	0.127246	-19.18	4.41	-5.88	0.3796	-0.016	-0.3053	
-1.001864	0.1281	0.122854	-18.2	3.71	-6.02	0.3838	-0.0191	-0.2945	
-1.001132	0.113704	0.124196	-17.57	3.43	-5.81	0.3853	-0.0237	-0.2991	
-1.00101	0.11407	0.118828	-16.73	3.78	-5.81	0.3867	-0.0131	-0.2945	
-0.99796	0.105286	0.119072	-16.24	2.31	-6.02	0.391	-0.0146	-0.2977	
-0.994666	0.10614	0.12688	-15.89	1.33	-5.88	0.3824	-0.0146	-0.2976	
-1.000278	0.097966	0.127368	-15.26	1.12	-5.32	0.3838	-0.01	-0.3038	
-0.998936	0.086986	0.125538	-14.77	0.7	-4.83	0.3896	-0.004	-0.3008	
-0.996496	0.081618	0.133102	-13.23	-0.07	-4.41	0.3939	-0.0101	-0.2946	
-0.990396	0.074786	0.134688	-11.48	-0.28	-4.27	0.391	0.002	-0.3024	
-0.99125	0.074298	0.139934	-9.52	-0.56	-3.92	0.3852	0.0005	-0.2992	
-0.996984	0.06832	0.140666	-7.28	-0.56	-3.64	0.3983	-0.0071	-0.3009	
-1.001254	0.064904	0.143106	-5.25	-0.49	-3.5	0.3939	-0.0041	-0.2962	
-1.001742	0.06405	0.133834	-3.78	-0.35	-3.57	0.3794	0.002	-0.2976	
-1.001376	0.059536	0.138958	-1.96	-0.63	-3.22	0.388	0.005	-0.3008	
-0.995642	0.057828	0.133346	-0.42	-1.05	-2.8	0.388	0.005	-0.2931	
-0.992104	0.065636	0.133224	0.77	-0.91	-2.59	0.3865	0.0095	-0.2962	
-0.9943	0.071004	0.134078	3.01	-1.4	-2.66	0.3924	0.005	-0.2978	
-1.001254	0.074664	0.13542	4.9	-2.17	-2.66	0.385	0.007999999	-0.2915	
-1.003084	0.074786	0.133468	5.95	-2.45	-2.45	0.3938	-0.0009999999	-0.2978	
-1.002962	0.082716	0.1342	7	-3.01	-2.1	0.3779	0.0096	-0.3023	
-0.996496	0.090158	0.13481	7.14	-3.22	-1.89	0.3952	0.007999999	-0.2978	
-0.99064	0.0976	0.139934	6.86	-3.08	-1.82	0.391	-0.0055	-0.3039	
-0.993812	0.100406	0.14152	6.79	-2.66	-1.54	0.394	-0.0009999999	-0.3116	
-0.994422	0.096746	0.147376	6.72	-2.59	-0.84	0.3939	-0.0071	-0.3008	
-0.989908	0.096746	0.140422	4.97	-1.89	-0.21	0.3853	0.0021	-0.3146	
-0.9943	0.100162	0.142374	4.06	-1.47	0.14	0.3954	-0.0009999999	-0.3039	
-0.996862	0.10065	0.138104	2.8	-1.19	0.21	0.3794	0.0005	-0.2992	
-0.994178	0.099186	0.136396	1.19	-1.33	0.42	0.3895	0.002	-0.2993	
-0.988932	0.092598	0.143228	0.07	-1.75	0.7	0.3779	0.002	-0.2992	
-0.989786	0.088206	0.15006	0.21	-1.47	0.98	0.3794	0.0021	-0.3053	
-0.991982	0.084424	0.148718	-0.21	-1.05	1.33	0.3837	0.0005	-0.3007	
-0.994544	0.088938	0.149084	-0.28	-0.7	1.33	0.3881	-0.007	-0.2992	
-0.996496	0.08967	0.145302	-0.07	-0.56	1.26	0.3838	-0.0009	-0.3007	
-0.994788	0.090402	0.147498	0.07	-0.56	1.68	0.3925	-0.0025	-0.307	
-0.996008	0.089182	0.146888	-0.14	-0.21	1.96	0.3794	-0.0054	-0.3007	
-0.996008	0.091744	0.14823	-0.07	0.14	2.1	0.3881	-0.004	-0.3008	
-0.994788	0.095892	0.146278	0.35	0.42	2.17	0.3895	-0.004	-0.2977	
-0.993202	0.102236	0.143472	0.49	0.35	2.1	0.3809	-0.0069	-0.3053	
-0.99125	0.106262	0.14579	0.56	0.21	1.96	0.3795	-0.0054	-0.3068	
-0.991494	0.106994	0.146644	0.98	0.21	1.75	0.3853	-0.007	-0.3115	
-0.991372	0.112606	0.146034	1.47	0.14	1.4	0.3824	0.0005	-0.31	
-0.996252	0.111874	0.142862	1.26	0.28	0.91	0.3867	0.0051	-0.3162	
-0.99613	0.11224	0.148962	1.54	0	0.77	0.3795	-0.0069	-0.3053	
-0.994422	0.112728	0.150304	1.61	0.7	0.56	0.3897	-0.0115	-0.3085	
-0.992348	0.11041	0.145058	1.54	1.82	0.35	0.3866	0.0005	-0.2992	
-0.991982	0.10736	0.140544	1.75	1.61	0.07	0.3766	-0.0039	-0.3053	
-0.993202	0.104554	0.14213	2.1	1.12	-0.07	0.3852	-0.0055	-0.3023	
-0.99369	0.10187	0.138592	2.17	1.12	0.07	0.3852	-0.0085	-0.2992	
-0.993934	0.099674	0.138836	2.52	0.56	0.35	0.3809	-0.01	-0.2945	
-0.994422	0.099064	0.140788	3.08	0.14	0.35	0.3853	-0.0024	-0.3069	
-0.992714	0.097722	0.137738	3.85	-0.21	0.21	0.3854	-0.0146	-0.3069	
-0.994544	0.09821	0.140544	4.83	-0.63	0	0.394	-0.0055	-0.3085	
-0.998814	0.103334	0.137372	5.81	-0.91	-0.28	0.3868	-0.01	-0.31	
-0.997716	0.099796	0.136884	5.53	-2.17	-0.14	0.3882	-0.0116	-0.3038	
-0.993202	0.089914	0.143228	4.2	-2.24	0.49	0.3838	-0.0161	-0.2991	
-0.995276	0.085644	0.139568	4.41	-2.24	0.7	0.3867	-0.0085	-0.3007	
-0.99613	0.076982	0.146034	5.95	-2.87	0.7	0.3868	-0.0191	-0.3053	
-0.997472	0.06832	0.155672	7.21	-3.36	0.63	0.3882	-0.0131	-0.2992	
-0.992714	0.05917	0.155184	10.99	-3.22	1.19	0.3824	-0.0176	-0.2991	
-0.995398	0.06222	0.15677	12.74	-3.08	1.19	0.3897	-0.007	-0.3085	
-0.991372	0.082716	0.151402	15.75	-3.08	0.84	0.3781	-0.0115	-0.3037	
-0.998814	0.109068	0.145424	17.71	-2.87	-0.42	0.3854	-0.0267	-0.3022	
-0.99979	0.118096	0.1403	17.15	-2.66	-0.7	0.3854	-0.0176	-0.3115	
-0.998448	0.119438	0.13359	15.4	-2.87	-0.35	0.3839	-0.0222	-0.2991	
-0.99674	0.126026	0.139934	13.16	-2.66	0.56	0.3868	-0.0206	-0.3053	
-1.000034	0.138714	0.136152	10.64	0	1.19	0.3882	-0.0146	-0.3069	
-0.99613	0.144448	0.131638	9.45	-3.57	1.75	0.3766	-0.0252	-0.2944	
-0.992104	0.14274	0.142496	9.66	-4.06	1.68	0.3854	-0.0221	-0.3037	
-0.998082	0.138836	0.141032	8.33	-3.29	0.84	0.3768	-0.0266	-0.3098	
-1.003572	0.137128	0.140666	6.72	-3.22	0.35	0.3855	-0.0388	-0.3083	
-1.008452	0.127246	0.142374	4.34	-2.8	0.14	0.3797	-0.0373	-0.3036	
-1.00467	0.117242	0.145302	2.66	-1.89	0.28	0.3768	-0.0266	-0.316	
-0.996374	0.111874	0.148474	3.43	-2.03	0.77	0.384	-0.0373	-0.299	
-0.988444	0.102846	0.155062	5.53	-2.45	1.19	0.3812	-0.0327	-0.3114	
-0.989908	0.094428	0.169946	9.66	-1.75	1.19	0.3754	-0.0312	-0.3082	
-0.996618	0.091866	0.167384	14.56	-0.91	0.98	0.3781	-0.0297	-0.2944	
-0.998082	0.095892	0.155184	18.76	-0.49	0.35	0.3797	-0.0388	-0.299	
-0.995398	0.105652	0.145058	20.72	-0.14	-0.35	0.3856	-0.0403	-0.3114	
-0.994422	0.116632	0.138104	20.16	-0.7	-1.05	0.3827	-0.0403	-0.3113	
-0.991372	0.125904	0.147376	17.92	-1.54	-0.98	0.3841	-0.0373	-0.3098	
-0.998814	0.135298	0.152256	16.1	-2.24	-0.14	0.374	-0.0448	-0.3051	
-0.997472	0.13969	0.149084	13.93	-1.19	0.98	0.3768	-0.0357	-0.3051	
-1.000278	0.135908	0.149816	11.83	-0.56	1.89	0.3769	-0.0372	-0.3128	
-0.996862	0.13054	0.152256	11.13	-0.98	2.59	0.3798	-0.0433	-0.3082	
-0.993202	0.12627	0.156648	11.62	-0.28	2.59	0.3768	-0.0388	-0.3051	
-0.988078	0.121756	0.152622	13.51	0.56	2.38	0.377	-0.0448	-0.3143	
-0.995276	0.11834	0.1525	15.96	2.45	2.1	0.3827	-0.0464	-0.3036	
-0.99796	0.121878	0.153964	17.92	2.45	1.75	0.3813	-0.0554	-0.3097	
-1.000888	0.12261	0.146278	19.25	3.78	1.12	0.387	-0.0555	-0.3021	
-0.994666	0.126514	0.154452	19.46	5.81	0.42	0.3841	-0.0509	-0.3051	
-0.99491	0.1342	0.142984	19.88	6.86	0.28	0.3856	-0.054	-0.3005	
-0.993812	0.130052	0.146766	19.67	7.77	0.42	0.3885	-0.0661	-0.3005	
