Sensor string: E
Serial number: 2106-01--25424199
Firmware version: 9,200505E-40
Hardware version: 1,409864E-36
Calibration quality: 204
ax	ay	az	gx	gy	gz	mx	my	mz

-0.982222	0.111386	0.223626	-0.28	0.14	0.42	0.3542	-0.0154	-0.3318	Reference
-0.980514	0.112362	0.222406	-0.28	0.35	0.14	0.3512	-0.0185	-0.3347	
-0.981368	0.11529	0.223016	-0.14	0.28	0.07	0.3557	-0.0202	-0.3376	
-0.980758	0.11407	0.223626	0	0.21	0.14	0.3513	-0.0264	-0.3334	
-0.981856	0.113216	0.224236	0.07	0.21	0.21	0.3572	-0.017	-0.3274	
-0.980636	0.112484	0.224724	0.21	0.42	0.21	0.3528	-0.0264	-0.3319	
-0.980392	0.115046	0.225456	0.42	0.21	0.21	0.3498	-0.0201	-0.3333	
-0.98088	0.113338	0.2257	0.21	0.21	0.28	0.3587	-0.0216	-0.3231	
-0.98027	0.112972	0.224724	0.42	0.07	0.21	0.3453	-0.0216	-0.3319	
-0.980148	0.114192	0.225334	0.42	0	0.14	0.3513	-0.0168	-0.3202	
-0.981246	0.114192	0.22448	0.21	-0.07	0.21	0.3573	-0.0264	-0.3333	
-0.981368	0.114192	0.222772	0.21	0	0.35	0.3602	-0.0233	-0.3304	
-0.980392	0.114314	0.225456	0	-0.07	0.35	0.3528	-0.0184	-0.3216	
-0.980514	0.11468	0.225212	0	-0.07	0.28	0.3571	-0.0076	-0.323	
-0.98027	0.1159	0.223626	0	-0.28	0.07	0.341	-0.0277	-0.3261	
-0.981734	0.115534	0.2257	0	-0.21	0.07	0.3543	-0.0263	-0.329	
-0.98149	0.114558	0.224358	0	0.07	0.35	0.3558	-0.0233	-0.3304	
-0.981368	0.11407	0.223992	-0.07	0.07	0.42	0.3454	-0.0262	-0.3305	
-0.980148	0.114436	0.224724	-0.07	0.07	0.35	0.3542	-0.0154	-0.3318	
-0.981124	0.116022	0.223992	0.14	0.21	0.28	0.3543	-0.0217	-0.3304	
-0.980514	0.116998	0.224846	-0.14	0.28	0.35	0.3543	-0.0247	-0.3202	
-0.980148	0.11712	0.224358	-0.14	0.21	0.42	0.3483	-0.0215	-0.3231	
-0.981734	0.115168	0.224236	-0.35	0.28	0.42	0.3513	-0.0248	-0.3319	
-0.981978	0.116022	0.222284	-0.07	0.14	0.42	0.3542	-0.0201	-0.3318	
-0.980758	0.11712	0.224114	0.14	0	0.28	0.3512	-0.0218	-0.3435	
-0.981002	0.118218	0.223138	0.14	0	0.35	0.3572	-0.0202	-0.3318	
-0.980636	0.117974	0.223382	-0.07	-0.07	0.42	0.3468	-0.0152	-0.3245	
-0.981124	0.115778	0.224236	-0.21	-0.14	0.42	0.3513	-0.0201	-0.3333	
-0.981856	0.117364	0.222894	-0.14	-0.28	0.14	0.3527	-0.0185	-0.3245	
-0.982344	0.118584	0.221552	-0.21	-0.49	-0.07	0.3617	-0.0249	-0.329	
-0.984662	0.119072	0.222772	-0.35	-0.63	-0.14	0.3573	-0.0312	-0.3421	
-0.986858	0.121878	0.22265	-0.35	-0.98	-0.14	0.3497	-0.017	-0.3362	
-0.986492	0.120658	0.222406	-0.21	-1.54	0.21	0.3423	-0.0184	-0.3304	
-0.984174	0.117608	0.219112	-0.63	-2.17	0	0.3496	-0.0059	-0.3273	
-0.9882	0.119682	0.218746	-0.56	-2.87	-0.35	0.3498	-0.0168	-0.3216	
-0.9882	0.125294	0.217648	-0.91	-3.57	-0.84	0.3452	-0.0106	-0.3274	
-0.989298	0.119926	0.218014	-2.59	-4.27	-1.05	0.3512	-0.0138	-0.3289	
-0.99186	0.120902	0.215086	-3.71	-5.81	-1.26	0.3526	-0.0139	-0.339	
-0.992836	0.117608	0.217404	-4.9	-6.65	-1.4	0.3467	-0.0153	-0.3333	
-0.993812	0.117364	0.219478	-4.97	-7.49	-1.4	0.3482	-0.0137	-0.3216	
-0.991616	0.114558	0.222406	-5.95	-7.84	-1.47	0.351	-0.0061	-0.3419	
-0.993446	0.11163	0.22204	-5.32	-8.47	-1.47	0.3289	-0.0135	-0.3275	
-0.991128	0.110288	0.22265	-4.69	-9.1	-1.68	0.351	-0.0045	-0.339	
-0.991494	0.109312	0.227164	-4.83	-9.94	-1.96	0.3452	-0.0137	-0.3289	
-0.99308	0.110654	0.229604	-3.92	-11.13	-1.96	0.3481	-0.0028	-0.3302	
-0.99491	0.112118	0.22753	-4.2	-12.25	-2.03	0.3453	-0.0201	-0.342	
-0.991738	0.111508	0.23424	-4.62	-13.16	-2.24	0.3422	-0.0107	-0.3463	
-0.9882	0.11041	0.243512	-5.04	-14.35	-2.45	0.338	-0.0278	-0.3392	
-0.98515	0.107482	0.247294	-5.11	-14.77	-2.52	0.3437	-0.0139	-0.3478	
-0.986126	0.102236	0.25193	-5.18	-15.12	-2.31	0.3392	-0.0139	-0.3536	
-0.983442	0.09857599	0.257908	-4.76	-15.96	-2.52	0.3437	-0.0139	-0.3434	
-0.984662	0.098088	0.263276	-2.94	-17.5	-2.1	0.3287	-0.0075	-0.3507	
-0.982832	0.100162	0.272792	-3.01	-18.34	-1.82	0.3377	-0.0076	-0.3463	
-0.984906	0.09857599	0.282674	-2.52	-19.95	-1.33	0.3243	-0.0074	-0.3507	
-0.98881	0.096014	0.292068	-1.68	-21.07	-1.05	0.3272	-0.0029	-0.3623	
-0.986248	0.095892	0.297192	-1.75	-23.1	-1.26	0.3258	-0.009099999	-0.3594	
-0.975024	0.09577	0.305976	-1.26	-25.62	-1.75	0.3123	-0.0027	-0.3652	
-0.966972	0.099308	0.314882	-1.61	-26.88	-2.03	0.3182	-0.0012	-0.3579	
-0.965386	0.101748	0.329522	-2.8	-28	-2.1	0.3063	-0.0011	-0.3696	
-0.957212	0.08845	0.34038	-3.92	-29.75	-2.1	0.3093	0.0004	-0.3608	
-0.958188	0.081252	0.355386	-3.01	-31.22	-2.1	0.3005	-0.0106	-0.3784	
-0.955504	0.095282	0.356606	-0.14	-32.41	-2.8	0.3063	-0.0044	-0.3784	
-0.947208	0.09699	0.358924	-1.26	-33.46	-3.64	0.2988	0.0034	-0.3797	
-0.95282	0.097844	0.368928	-0.07	-33.6	-3.99	0.2869	-0.0027	-0.3886	
-0.94977	0.103334	0.37027	-1.4	-33.95	-4.34	0.2884	0.0036	-0.3783	
-0.935496	0.0976	0.385886	-3.71	-34.37	-4.27	0.2854	-0.0012	-0.3958	
-0.922076	0.091988	0.39528	-6.02	-33.74	-4.2	0.281	-0.0057	-0.3915	
-0.914512	0.084302	0.40809	-8.26	-32.69	-4.13	0.2794	0.0082	-0.3914	
-0.90158	0.07259	0.415776	-9.1	-32.69	-4.41	0.2794	0.0082	-0.3928	
-0.89487	0.07076	0.420656	-8.68	-32.27	-4.13	0.2733	0.0145	-0.3972	
-0.889502	0.07747	0.434442	-8.47	-31.71	-3.5	0.2645	0.0036	-0.406	
-0.881694	0.070516	0.45262	-7.77	-31.64	-3.01	0.2599	0.0194	-0.3957	
-0.870958	0.065758	0.458842	-8.19	-31.29	-2.1	0.2495	0.0116	-0.4074	
-0.865712	0.05795	0.479704	-8.47	-31.15	-0.98	0.2407	0.007	-0.4119	
-0.865468	0.056486	0.492636	-7.77	-31.22	-0.14	0.2406	0.01	-0.4206	
-0.863516	0.060756	0.501908	-6.44	-31.78	0.56	0.2316	0.0116	-0.4264	
-0.848632	0.055754	0.507642	-6.51	-32.34	1.4	0.2363	0.0023	-0.4148	
-0.839726	0.049654	0.5185	-6.58	-32.62	1.89	0.2272	0.008599999	-0.4192	
-0.83753	0.047458	0.525698	-6.65	-32.76	2.17	0.2183	0.0102	-0.4264	
-0.833138	0.05307	0.537776	-6.16	-33.6	2.1	0.2168	0.0118	-0.4235	
-0.825696	0.04697	0.556442	-6.09	-34.51	1.82	0.2109	0.0072	-0.428	
-0.8174	0.048434	0.56547	-5.32	-35.42	1.4	0.2121	0.0243	-0.4307	
-0.807152	0.038552	0.565958	-5.04	-35.98	0.7	0.2033	0.0181	-0.4424	
-0.800076	0.03538	0.582794	-4.76	-35.77	0.35	0.2003	0.015	-0.4381	
-0.790194	0.04575	0.595604	-3.85	-36.68	-0.42	0.1914	0.0183	-0.4337	
-0.789218	0.051728	0.609146	-3.57	-36.54	-1.54	0.1869	0.0166	-0.4512	
-0.774822	0.05063	0.622932	-5.04	-37.38	-2.8	0.172	0.0184	-0.4512	
-0.767502	0.05124	0.629886	-5.67	-36.54	-3.43	0.1705	0.023	-0.4555	
-0.75457	0.040138	0.638182	-6.86	-36.33	-4.48	0.175	0.0216	-0.4439	
-0.74969	0.035014	0.652822	-6.86	-35.84	-4.48	0.1616	0.0216	-0.457	
-0.74054	0.031842	0.664168	-7.07	-35.63	-3.92	0.169	0.0216	-0.4512	
-0.721508	0.031354	0.66978	-7.07	-35.28	-3.01	0.1466	0.0281	-0.4556	
-0.720776	0.031232	0.685274	-6.72	-34.51	-2.66	0.1496	0.028	-0.4585	
-0.704306	0.030378	0.693814	-7.49	-34.44	-3.22	0.145	0.0359	-0.4584	
-0.69418	0.025864	0.707112	-7.7	-33.6	-3.08	0.1317	0.0298	-0.4556	
-0.681248	0.018666	0.70882	-7.28	-32.76	-2.66	0.1378	0.0218	-0.4629	
-0.673928	0.01525	0.721508	-7.63	-31.78	-1.61	0.1242	0.0376	-0.4686	
-0.654042	0.02196	0.72651	-6.44	-31.64	-1.12	0.1169	0.0267	-0.4717	
-0.646844	0.020252	0.742492	-6.58	-29.47	-0.7	0.1197	0.0393	-0.4642	
-0.639402	0.014518	0.751764	-6.72	-28.14	-0.42	0.1123	0.033	-0.476	
-0.636108	0.01037	0.7564	-6.44	-26.6	-0.35	0.1018	0.0378	-0.473	
-0.626104	0.012566	0.758962	-6.58	-24.92	-0.77	0.1062	0.0488	-0.4671	
-0.62159	0.00854	0.767258	-6.44	-24.36	-0.91	0.1005	0.0285	-0.4731	
-0.6161	0.000122	0.76616	-6.86	-22.96	-0.7	0.0988	0.0426	-0.4672	
-0.61427	0.000976	0.771894	-7.21	-21	-0.63	0.0913	0.0442	-0.4759	
-0.61183	0.000854	0.772992	-6.65	-20.3	-0.63	0.0885	0.0364	-0.4745	
-0.606584	-0.006954	0.777872	-6.44	-19.39	-0.28	0.0869	0.0427	-0.4745	
-0.606706	-0.00732	0.781288	-5.04	-19.74	-0.14	0.081	0.0412	-0.4803	
-0.607194	-0.000976	0.784948	-3.92	-19.18	0	0.0675	0.0494	-0.4614	
-0.602192	-0.00061	0.798002	-3.15	-18.62	0.77	0.0616	0.0494	-0.4672	
-0.598288	-0.002928	0.807396	-1.96	-18.48	0.7	0.0645	0.0477	-0.4774	
-0.596824	0.00305	0.80642	-1.54	-17.57	0.77	0.0601	0.0461	-0.4803	
-0.590358	0.000244	0.802882	-1.4	-16.24	0.84	0.0556	0.0477	-0.4818	
-0.589382	0.003416	0.805078	-0.91	-14.84	1.54	0.0571	0.0446	-0.4833	
-0.575596	-0.009516	0.81008	-0.14	-13.86	1.75	0.0603	0.0321	-0.479	
-0.57523	0.00183	0.807884	0.7	-12.25	2.1	0.0437	0.0495	-0.4789	
-0.574376	0.002806	0.807518	1.33	-11.34	1.82	0.0497	0.0431	-0.4804	
-0.576084	0.00671	0.804102	1.26	-10.08	1.12	0.0542	0.04	-0.4761	
-0.57767	0.012444	0.806176	1.12	-9.17	0.91	0.0498	0.0385	-0.4761	
-0.57401	0.00854	0.808372	-0.07	-8.4	0.77	0.0423	0.0448	-0.4833	
-0.57401	0.008174	0.814594	-0.91	-7.77	0.56	0.0483	0.0416	-0.4819	
-0.57584	0.015128	0.810812	-1.47	-7.28	0.21	0.0424	0.0386	-0.4761	
-0.577304	0.01159	0.812764	-2.87	-6.79	0.07	0.0557	0.0415	-0.4833	
-0.572424	0.008296	0.806664	-3.29	-6.93	0.21	0.0377	0.0479	-0.4891	
-0.569496	0.003294	0.8113	-4.2	-7.07	-0.28	0.0348	0.0433	-0.4848	
-0.569984	0.00305	0.824476	-4.41	-6.65	-0.42	0.0363	0.0465	-0.4804	
-0.569008	-0.005368	0.822646	-4.2	-7.07	-0.77	0.0363	0.0465	-0.4804	
-0.572912	-0.011956	0.821792	-3.22	-7.21	-0.56	0.0363	0.0496	-0.4804	
-0.56303	-0.011346	0.825574	-2.8	-7.49	-0.63	0.0378	0.0433	-0.4819	
-0.557418	-0.009272	0.828258	-2.31	-7.35	-0.7	0.0273	0.0527	-0.4891	
-0.554002	-0.007808	0.831918	-2.38	-7.28	-1.19	0.0333	0.0512	-0.4775	
-0.548512	-0.012932	0.837286	-2.52	-7.07	-1.05	0.0228	0.0575	-0.4905	
-0.542534	-0.011956	0.835334	-2.17	-7.14	-1.05	0.0362	0.0558	-0.4847	
-0.536312	-0.016226	0.836066	-1.96	-6.86	-1.05	0.0303	0.0481	-0.4819	
-0.53375	-0.020618	0.841922	-1.68	-6.58	-0.91	0.0274	0.0418	-0.4863	
-0.530822	-0.021838	0.846192	-1.12	-6.3	-0.91	0.0289	0.0433	-0.4906	
-0.527528	-0.028182	0.848998	-0.63	-5.74	-0.63	0.0318	0.0449	-0.4863	
-0.523868	-0.024766	0.848388	0.07	-4.97	-0.35	0.0214	0.0481	-0.4892	
-0.521184	-0.020374	0.847534	0.56	-4.41	-0.35	0.0169	0.0561	-0.4789	
-0.516426	-0.019886	0.847778	0.7	-3.78	-0.42	0.0288	0.0543	-0.4847	
-0.518134	-0.019642	0.84912	0.63	-2.52	-0.21	0.0199	0.0498	-0.4833	
-0.517036	-0.020374	0.847534	0.28	-1.54	0.14	0.0244	0.0497	-0.4804	
-0.51728	-0.021106	0.85339	0.07	-0.98	0.07	0.0228	0.056	-0.4789	
-0.515694	-0.014762	0.852902	-0.07	-0.49	0.21	0.0213	0.0561	-0.4789	
-0.516792	-0.015372	0.856074	0.21	0.49	0.49	0.0274	0.0465	-0.4848	
-0.513986	-0.017202	0.855464	0.56	1.61	0.7	0.023	0.0451	-0.4746	
-0.516548	-0.02196	0.858758	0.91	3.01	0.91	0.0243	0.0529	-0.4746	
-0.516548	-0.018178	0.85583	1.96	5.32	1.19	0.0274	0.0435	-0.4761	
-0.516548	-0.01952	0.857904	2.38	7	1.47	0.0214	0.0482	-0.4848	
-0.517158	-0.01952	0.864492	2.66	8.68	1.68	0.0244	0.0481	-0.4862	
-0.51484	-0.015982	0.861442	3.5	10.43	1.89	0.0303	0.0481	-0.4819	
-0.516182	-0.012566	0.861686	4.2	12.25	1.82	0.0319	0.0434	-0.479	
-0.51728	-0.013176	0.859856	4.55	14.28	1.96	0.0379	0.0386	-0.4819	
-0.515938	-0.010126	0.858148	4.97	16.59	1.89	0.0363	0.0495	-0.4833	
-0.517524	-0.006466	0.856562	5.46	18.9	2.03	0.0393	0.0432	-0.4848	
-0.52033	-0.003782	0.854366	6.09	20.79	2.31	0.0422	0.0479	-0.4877	
-0.52033	-0.00244	0.84485	5.74	23.45	2.45	0.0392	0.0495	-0.4818	
-0.52643	-0.00915	0.84302	5.81	25.2	2.73	0.0497	0.0462	-0.4833	
-0.5307	-0.005368	0.834358	7.21	27.44	2.94	0.0571	0.0509	-0.4774	
-0.539484	0.001708	0.832528	8.12	30.03	3.36	0.0527	0.0416	-0.4717	
-0.547292	0.00549	0.826306	8.12	32.13	3.64	0.0602	0.04	-0.4717	
-0.556442	0.00671	0.813374	8.12	34.16	3.85	0.0677	0.0368	-0.4673	
-0.564128	0.005002	0.804956	8.4	36.33	4.41	0.081	0.0381	-0.4775	
-0.575596	0.01586	0.789218	9.38	39.48	4.48	0.0884	0.0427	-0.4774	
-0.587796	0.017934	0.778116	9.1	41.58	4.27	0.0914	0.0443	-0.4672	
-0.601216	0.022936	0.769332	9.73	43.4	4.2	0.09739999	0.0396	-0.4643	
-0.614758	0.0305	0.759938	9.66	45.57	4.34	0.1064	0.0284	-0.4746	
-0.628544	0.028914	0.73993	9.52	47.67	4.41	0.1034	0.0364	-0.46	
-0.647332	0.035502	0.719556	9.66	49.49	4.41	0.1259	0.0236	-0.4571	
-0.65636	0.044042	0.706014	9.87	50.89	4.2	0.1332	0.0281	-0.4672	
-0.6649	0.04575	0.69235	9.73	52.78	4.13	0.1332	0.0313	-0.4628	
-0.67954	0.052216	0.675148	10.22	54.46	3.71	0.1467	0.0233	-0.4629	
-0.697108	0.058438	0.65941	9.94	56.28	3.08	0.1542	0.0202	-0.4542	
-0.713212	0.063928	0.642208	9.87	57.68	2.8	0.1676	0.0168	-0.4556	
-0.731878	0.060146	0.62037	9.52	59.36	2.59	0.175	0.0184	-0.4469	
-0.744322	0.06771	0.603168	9.87	60.2	2.66	0.1854	0.0167	-0.4497	
-0.758474	0.063074	0.581208	10.43	61.6	2.66	0.1989	0.0135	-0.4337	
-0.770186	0.066246	0.552904	11.13	62.86	2.31	0.2034	0.0119	-0.4381	
-0.773236	0.073566	0.53924	11.62	63.7	2.03	0.2138	0.0118	-0.4337	
-0.792878	0.077348	0.518866	11.2	65.03	2.31	0.2108	0.0165	-0.4322	
-0.810324	0.076982	0.49654	11.13	66.43	2.38	0.2229	-0.0006	-0.4178	
-0.838384	0.088084	0.465308	10.99	66.29	1.89	0.2347	0.0071	-0.4104	
-0.86193	0.094916	0.450424	11.13	65.8	2.17	0.2525	0.0084	-0.4089	
-0.873398	0.091134	0.432734	11.2	65.38	2.45	0.2571	0.0053	-0.3973	
-0.88938	0.093086	0.418582	12.32	64.89	2.8	0.2721	-0.0041	-0.393	
-0.90158	0.08906	0.407846	15.19	63	3.64	0.2691	0.0006	-0.3857	
-0.89975	0.09857599	0.373686	14.21	63.35	2.94	0.2854	0.0003	-0.3929	
-0.900848	0.097722	0.353068	13.23	65.03	2.66	0.2959	-0.0011	-0.374	
-0.912804	0.09747799	0.33489	15.89	64.4	2.52	0.2973	0.002	-0.371	
-0.905606	0.108458	0.311588	18.41	63.7	1.82	0.3019	-0.0089	-0.3682	
-0.925248	0.119194	0.296948	20.3	63.49	1.54	0.3094	-0.0058	-0.3638	
-0.943426	0.121512	0.285358	20.79	61.53	0.77	0.3214	-0.0184	-0.3595	
-0.946354	0.12139	0.24583	21.7	62.51	-1.26	0.338	-0.0295	-0.348	
-0.962824	0.102724	0.211304	16.66	64.96	-2.59	0.3424	-0.0278	-0.3378	
-0.993934	0.091134	0.196786	14.91	64.75	-3.85	0.3467	-0.0106	-0.3303	
-1.00955	0.079544	0.179828	15.75	62.09	-3.99	0.3588	-0.0248	-0.329	
-1.028948	0.090402	0.161162	17.08	59.57	-3.92	0.3587	-0.0216	-0.3202	
-1.027972	0.109922	0.128954	20.65	55.37	-4.13	0.3737	-0.0264	-0.3129	
-1.032608	0.12139	0.08845	20.65	53.69	-4.97	0.3766	-0.0186	-0.3085	
-1.04554	0.11895	0.077958	17.22	49.35	-4.34	0.3797	-0.0279	-0.2955	
-1.034804	0.11407	0.057096	18.55	44.8	-3.78	0.3872	-0.0327	-0.297	
-1.029436	0.112484	0.041236	18.55	41.58	-3.22	0.3828	-0.0372	-0.2839	
-1.027606	0.118218	0.025742	19.6	39.13	-2.73	0.3932	-0.0278	-0.2736	
-1.02175	0.117852	0.004636	16.8	38.78	-2.38	0.3888	-0.0387	-0.2723	
-1.014308	0.1037	-0.009516	14.49	38.71	-2.24	0.3991	-0.0262	-0.2678	
-1.01809	0.112972	-0.037942	12.46	40.67	-3.08	0.3991	-0.0262	-0.2678	
-1.01687	0.097356	-0.045018	7.84	42.77	-1.89	0.3993	-0.0402	-0.2577	
-1.01504	0.10736	-0.05368	9.38	43.19	-3.43	0.4125	-0.0247	-0.2575	
-1.012234	0.11346	-0.065758	10.64	42.91	-2.73	0.4083	-0.0434	-0.2563	
-1.008818	0.120292	-0.078934	13.02	42	-1.75	0.4067	-0.0354	-0.2388	
-1.017236	0.1159	-0.083936	12.67	42.21	-1.05	0.4111	-0.0307	-0.2372	
-1.036512	0.116388	-0.095648	12.32	41.02	-0.63	0.4082	-0.0321	-0.2242	
-1.035902	0.114436	-0.117974	9.59	37.66	-1.82	0.4172	-0.0401	-0.2286	
-1.051152	0.092598	-0.10736	6.93	44.17	-0.98	0.4233	-0.048	-0.2258	
-1.04493	0.107604	-0.128588	8.47	38.29	-2.17	0.4322	-0.0417	-0.2155	
-1.038952	0.105774	-0.119682	4.69	35.63	-1.05	0.4485	-0.0355	-0.1979	
-1.027606	0.10004	-0.134444	7.21	31.08	-0.35	0.4381	-0.0369	-0.195	
-1.023214	0.119438	-0.067222	2.45	15.47	-5.67	0.4366	-0.0384	-0.1965	
-1.02846	0.096746	-0.136762	2.52	27.16	1.47	0.4455	-0.0339	-0.1994	
-1.026386	0.104188	-0.148962	3.36	22.75	0.21	0.4396	-0.0337	-0.1848	
-1.020164	0.096746	-0.132126	1.96	23.31	-0.7	0.4382	-0.0446	-0.1849	
-1.02663	0.10431	-0.142618	6.16	22.47	-0.49	0.4351	-0.0304	-0.1834	
-1.01687	0.097722	-0.166042	4.83	21.07	0.98	0.4457	-0.0463	-0.1893	
-1.004304	0.096624	-0.16775	3.43	20.09	1.47	0.4426	-0.0385	-0.1907	
-1.008574	0.105164	-0.177144	7.35	19.6	0	0.4382	-0.0414	-0.1805	
-1.005524	0.109312	-0.198006	5.95	18.27	1.54	0.4426	-0.0383	-0.1747	
-1.007232	0.11102	-0.192516	5.88	17.08	2.31	0.4457	-0.0461	-0.1689	
-0.997594	0.11895	-0.21716	8.68	16.17	4.06	0.447	-0.0336	-0.1732	
-0.979416	0.124318	-0.225944	6.23	16.1	3.85	0.4472	-0.0477	-0.1733	
-0.989908	0.114314	-0.21472	3.08	18.83	3.99	0.4412	-0.0413	-0.1674	
-1.014918	0.115534	-0.223748	9.73	16.1	3.36	0.4428	-0.046	-0.1704	
-1.035536	0.131882	-0.243268	7.35	12.88	1.89	0.4383	-0.0475	-0.1646	
-1.04859	0.129808	-0.246562	3.5	10.99	2.24	0.4443	-0.0427	-0.1471	
-1.039928	0.148596	-0.234606	4.13	7.84	-0.35	0.4562	-0.0444	-0.15	
-1.03639	0.170434	-0.228262	2.59	4.83	-1.47	0.4488	-0.0491	-0.1544	
-1.015894	0.160674	-0.253028	-2.45	1.4	-1.4	0.4458	-0.0476	-0.1646	
-0.992592	0.137494	-0.255956	-9.1	2.24	0.84	0.4547	-0.0476	-0.1558	
-0.971974	0.12871	-0.242292	-10.36	2.45	-0.42	0.4562	-0.0508	-0.1573	
-0.962702	0.119072	-0.239974	-8.05	2.45	-2.03	0.4501	-0.0381	-0.1528	
-0.965874	0.13176	-0.238754	-7.49	2.66	-2.1	0.4577	-0.0461	-0.1573	
-0.978928	0.11224	-0.239242	-8.61	2.8	-1.12	0.4487	-0.0396	-0.1456	
-0.97417	0.148474	-0.26535	-7.35	2.73	-1.12	0.4457	-0.0428	-0.1544	
-0.965508	0.114802	-0.24888	-12.53	4.48	-0.56	0.4517	-0.046	-0.1544	
-0.979538	0.117242	-0.235216	-7.14	4.83	-0.91	0.4445	-0.0567	-0.1443	
-0.999058	0.107848	-0.242292	-4.83	3.22	-0.98	0.4546	-0.0414	-0.1587	
-1.008574	0.115534	-0.24766	-3.78	1.54	-2.17	0.4473	-0.0459	-0.1558	
-1.020652	0.137982	-0.248392	-3.15	0.63	-1.47	0.4472	-0.0443	-0.1529	
-1.005768	0.140178	-0.243146	-4.41	-0.98	-1.33	0.4534	-0.0584	-0.1487	
-0.995154	0.12261	-0.23729	-3.57	-2.59	-1.12	0.4576	-0.0429	-0.1529	
-0.990396	0.120902	-0.243146	-2.24	-4.55	-2.17	0.4561	-0.0413	-0.147	
-0.98576	0.119194	-0.249734	-2.03	-5.32	-2.38	0.4546	-0.0351	-0.1543	
-0.9882	0.125782	-0.24644	-2.24	-4.62	-2.31	0.4517	-0.0444	-0.1544	
-0.996374	0.127124	-0.242902	-3.78	-4.9	-1.89	0.4591	-0.0414	-0.1587	
-0.996374	0.116632	-0.240706	-4.62	-5.67	-1.54	0.4502	-0.0445	-0.1616	
-1.001742	0.11346	-0.239486	-5.32	-6.72	-1.19	0.4561	-0.043	-0.1587	
-1.003084	0.121146	-0.235704	-4.27	-8.33	-0.14	0.4515	-0.0272	-0.1571	
-1.007476	0.117364	-0.227774	-3.85	-9.8	0.14	0.4531	-0.0335	-0.1513	
-1.009672	0.111996	-0.218258	-1.54	-11.2	0.63	0.456	-0.0351	-0.1572	
-1.015894	0.10553	-0.221918	-1.68	-12.11	0.98	0.456	-0.0368	-0.163	
-1.015772	0.107604	-0.215696	-2.66	-13.79	0.84	0.4605	-0.0353	-0.1644	
-1.014796	0.111142	-0.207278	-2.73	-15.61	0.21	0.4517	-0.0461	-0.1646	
-1.005768	0.116144	-0.21106	-0.91	-16.94	0.84	0.465	-0.0417	-0.1747	
-0.997472	0.10187	-0.195932	-2.87	-17.78	0.91	0.4441	-0.0399	-0.1762	
-1.006134	0.097966	-0.187026	-0.91	-17.29	1.4	0.4471	-0.04	-0.1805	
-0.998326	0.099064	-0.183488	1.47	-18.06	1.4	0.4472	-0.0461	-0.1748	
-1.004548	0.110166	-0.175436	3.29	-19.88	0.63	0.4472	-0.0462	-0.1806	
-1.003694	0.11407	-0.165676	2.52	-20.86	0.35	0.4472	-0.0446	-0.1806	
-1.012356	0.111508	-0.160186	1.82	-22.68	0.56	0.4441	-0.0415	-0.1805	
-1.023824	0.10919	-0.147132	-0.35	-21.84	0.63	0.4367	-0.0478	-0.1981	
-1.02297	0.115412	-0.143716	-0.28	-23.59	0.42	0.4471	-0.0433	-0.1995	
-1.024068	0.117608	-0.141276	1.19	-25.76	-0.07	0.4424	-0.0244	-0.1964	
-1.025898	0.120414	-0.143716	-0.42	-26.04	0.21	0.4337	-0.04	-0.198	
-1.026386	0.122366	-0.130662	-0.42	-30.17	0.56	0.4322	-0.04	-0.2024	
-1.021872	0.11834	-0.120292	-0.56	-31.36	1.47	0.4336	-0.0402	-0.2184	
-1.018334	0.124196	-0.112728	-1.75	-31.15	1.47	0.4247	-0.0432	-0.2141	
-1.01321	0.128588	-0.106384	-1.96	-32.55	1.05	0.4381	-0.0434	-0.2169	
-1.01809	0.129198	-0.094794	-3.5	-33.6	0.84	0.4187	-0.0417	-0.2257	
-1.018212	0.126758	-0.077836	-4.83	-34.72	0.84	0.4396	-0.0482	-0.2301	
-1.019676	0.122244	-0.072712	-6.09	-36.47	1.12	0.4277	-0.0482	-0.2403	
-1.02907	0.124318	-0.062342	-8.89	-36.75	0.98	0.4157	-0.0355	-0.2402	
-1.027484	0.12627	-0.05368	-8.26	-38.92	0.35	0.4158	-0.0433	-0.2374	
-1.025654	0.126514	-0.039162	-9.87	-39.69	0.28	0.4215	-0.0279	-0.2474	
-1.026752	0.118096	-0.02501	-11.76	-40.46	0	0.4097	-0.0324	-0.2431	
-1.01809	0.11407	-0.015006	-10.57	-41.37	-0.35	0.4097	-0.0403	-0.2563	
-1.01565	0.109922	-0.008784	-10.5	-41.37	-0.7	0.4023	-0.0419	-0.2679	
-1.012234	0.109556	0.011956	-11.55	-40.39	-1.12	0.4095	-0.0296	-0.2736	
-1.009306	0.11651	0.022082	-8.82	-39.62	-2.03	0.3978	-0.0404	-0.2752	
-1.004426	0.122854	0.039406	-9.38	-38.57	-2.31	0.3872	-0.0309	-0.2795	
-1.005524	0.12749	0.06039	-8.33	-38.22	-2.1	0.3916	-0.0248	-0.2867	
-1.002352	0.128344	0.070638	-8.54	-37.24	-1.75	0.3902	-0.0326	-0.2897	
-1.001498	0.116388	0.099308	-12.39	-35.91	-0.77	0.3798	-0.031	-0.2941	
-1.004182	0.111996	0.120048	-13.51	-35.7	-0.42	0.3722	-0.02	-0.3041	
-1.001376	0.112118	0.131028	-14.28	-35.77	0	0.3709	-0.0356	-0.3014	
-0.999058	0.117608	0.147132	-13.37	-35.21	0.49	0.3693	-0.0295	-0.3115	
-0.99674	0.114558	0.152134	-13.23	-35.14	1.26	0.3676	-0.0139	-0.3172	
-0.996618	0.115534	0.167994	-13.37	-35	1.89	0.3706	-0.0203	-0.3245	
-0.99491	0.114802	0.187758	-14.35	-34.58	2.73	0.3615	-0.0092	-0.3259	
-0.988444	0.111386	0.193004	-15.47	-33.53	3.92	0.363	-0.0092	-0.3244	
-0.994178	0.100772	0.212646	-18.06	-32.69	4.55	0.3541	-0.0123	-0.3318	
-0.980392	0.090158	0.218868	-18.9	-33.6	4.9	0.3437	-0.0092	-0.3434	
-0.977342	0.084424	0.235216	-18.76	-34.23	5.32	0.3363	-0.0105	-0.3347	
-0.974048	0.086132	0.243268	-19.67	-34.93	4.34	0.3377	-0.0138	-0.3493	
-0.970632	0.091256	0.260958	-20.65	-35.56	2.45	0.3288	-0.009	-0.3492	
-0.96258	0.094184	0.28243	-20.51	-36.33	1.19	0.3287	-0.0044	-0.3536	
-0.953552	0.088816	0.29219	-19.88	-36.68	-0.14	0.3272	-0.0075	-0.3565	
-0.95221	0.077226	0.2989	-20.37	-36.33	-1.05	0.3241	0.0033	-0.3622	
-0.949404	0.075396	0.313052	-20.23	-36.05	-1.68	0.3227	-0.0045	-0.3681	
-0.952332	0.088084	0.324032	-18.62	-35.63	-3.64	0.3106	0.007999999	-0.3738	
-0.942694	0.086132	0.340868	-14.77	-36.05	-4.27	0.3167	0.0017	-0.371	
-0.937204	0.085278	0.347578	-13.51	-36.61	-3.99	0.3137	-0.0013	-0.3739	
-0.940132	0.09333	0.368318	-11.48	-36.26	-1.61	0.2943	0.0067	-0.3754	
-0.928664	0.07869	0.382104	-10.08	-37.94	-0.63	0.2914	0.0019	-0.3856	
-0.910486	0.072346	0.386984	-9.38	-38.01	-0.91	0.2808	0.0113	-0.3943	
-0.908168	0.069296	0.403332	-11.13	-37.73	-1.05	0.2809	0.0067	-0.3885	
-0.899018	0.063562	0.412604	-10.71	-38.71	0.28	0.2764	0.0082	-0.3972	
-0.882548	0.055266	0.422364	-8.12	-39.41	0.91	0.2747	0.0223	-0.3942	
-0.87901	0.061244	0.433222	-6.79	-39.97	1.68	0.2703	0.0129	-0.403	
-0.876814	0.060634	0.445666	-4.41	-40.95	1.75	0.2525	0.0164	-0.3943	
-0.863516	0.055144	0.453108	-3.78	-41.37	0.77	0.2555	0.0114	-0.4147	
-0.856074	0.060878	0.471042	-3.78	-41.93	0.91	0.2524	0.0192	-0.4248	
-0.853146	0.066368	0.486902	-4.34	-42.77	0.98	0.245	0.0163	-0.4074	
-0.839604	0.06466	0.49166	-4.06	-43.33	0.63	0.2347	0.0069	-0.4206	
-0.826062	0.066124	0.507032	-3.71	-43.75	0.35	0.2256	0.0148	-0.4307	
-0.814106	0.057828	0.518622	-2.03	-44.73	0.35	0.2301	0.0148	-0.4191	
-0.813374	0.05185	0.54473	-1.68	-45.22	0.56	0.2196	0.0243	-0.4234	
-0.798368	0.055998	0.559858	-1.61	-45.99	-0.07	0.2197	0.0164	-0.4307	
-0.785192	0.047946	0.585844	-1.54	-46.83	-1.47	0.1959	0.0183	-0.4337	
-0.779092	0.045384	0.606096	-2.38	-46.97	-2.03	0.1929	0.0168	-0.4294	
-0.76128	0.039406	0.618906	-1.89	-47.25	-1.96	0.2004	0.0136	-0.4265	
-0.740296	0.036966	0.627812	-2.03	-46.9	-2.31	0.1913	0.0245	-0.4409	
-0.738954	0.047092	0.648796	-1.89	-45.5	-3.01	0.1779	0.0264	-0.4308	
-0.719434	0.051606	0.6649	-0.63	-46.13	-2.87	0.1675	0.0295	-0.4409	
-0.704428	0.053558	0.686494	-2.73	-44.94	-3.08	0.1689	0.0278	-0.4497	
-0.685396	0.047092	0.690276	-2.87	-43.26	-2.73	0.1423	0.014	-0.463	
-0.673562	0.049044	0.695522	-3.92	-41.23	-2.66	0.1423	0.0172	-0.4513	
-0.656238	0.04514	0.704428	-5.18	-40.81	-2.87	0.1377	0.0297	-0.457	
-0.6527	0.039528	0.7137	-6.3	-38.92	-3.64	0.1289	0.0204	-0.4601	
-0.640866	0.035014	0.72529	-7.21	-38.15	-3.71	0.1303	0.0218	-0.4746	
-0.634034	0.02928	0.739076	-8.33	-35.98	-2.8	0.1183	0.0283	-0.4658	
-0.629642	0.025498	0.737246	-7.28	-34.51	-2.1	0.1123	0.0347	-0.4658	
-0.630252	0.017202	0.740784	-6.79	-33.25	-1.61	0.1034	0.0316	-0.4716	
-0.625372	0.014152	0.760548	-7.28	-32.13	-0.84	0.1094	0.0299	-0.4716	
-0.622566	0.027084	0.778848	-6.16	-31.5	-0.98	0.0991	0.0239	-0.4645	
-0.627446	0.033184	0.790072	-5.81	-29.75	-1.12	0.096	0.0286	-0.4717	
-0.613782	0.02928	0.784216	-5.95	-27.79	-0.98	0.0872	0.0256	-0.4645	
-0.603168	0.033062	0.791292	-6.3	-26.6	-0.63	0.0795	0.0381	-0.476	
-0.594506	0.027328	0.80337	-7.63	-25.62	-0.56	0.0796	0.0367	-0.4629	
-0.57889	0.019642	0.808372	-7.84	-24.22	-0.63	0.0795	0.0397	-0.4731	
-0.57706	0.017446	0.810324	-8.33	-22.61	-0.35	0.0721	0.0414	-0.4731	
-0.576084	0.017568	0.812276	-7.07	-19.88	0	0.0632	0.0337	-0.4747	
-0.570228	0.00976	0.814838	-5.53	-17.78	-0.07	0.0735	0.0413	-0.476	
-0.558028	0.010004	0.823378	-5.88	-16.38	0.28	0.0617	0.0399	-0.4775	
-0.558394	0.010126	0.825086	-5.53	-14.7	-0.07	0.0512	0.0416	-0.4746	
-0.55449	0.01098	0.819352	-4.27	-13.02	-0.07	0.0543	0.0384	-0.4761	
-0.555222	0.014518	0.826916	-3.57	-11.62	0.42	0.0586	0.0477	-0.4818	
-0.563884	0.012932	0.837164	-3.36	-10.29	0.42	0.051	0.0556	-0.4832	
-0.558394	0.012566	0.836676	-1.96	-9.24	0.49	0.0543	0.0369	-0.4761	
-0.56486	0.019276	0.833626	-2.03	-8.47	0.7	0.0497	0.0447	-0.4804	
-0.563152	0.008174	0.837286	-1.26	-7.07	1.33	0.0527	0.0416	-0.4746	
-0.564372	0.011102	0.829966	0	-6.37	1.68	0.0438	0.0433	-0.4775	
-0.562298	0.016104	0.828258	-0.49	-6.09	1.47	0.0422	0.0496	-0.476	
-0.562176	0.01525	0.830454	0.56	-5.67	1.82	0.0438	0.04	-0.4863	
-0.55632	0.01891	0.825818	0.63	-4.34	1.75	0.0437	0.0479	-0.4804	
-0.56242	0.015982	0.823012	0.77	-3.29	1.4	0.0438	0.0416	-0.4833	
-0.563152	0.011102	0.827404	0.77	-3.15	1.19	0.0454	0.0338	-0.4791	
-0.55632	0.018056	0.828258	1.19	-2.52	1.4	0.0467	0.051	-0.4789	
-0.555588	0.021228	0.831186	0.91	-2.03	1.12	0.0423	0.0465	-0.4731	
-0.557662	0.014884	0.825452	1.19	-1.19	0.77	0.0453	0.0433	-0.4746	
-0.55754	0.01586	0.829234	1.19	-0.49	0.49	0.0452	0.0464	-0.4775	
-0.552904	0.014762	0.828746	1.05	-0.14	0.7	0.0423	0.0465	-0.4731	
-0.55083	0.015128	0.827648	0.98	0.28	0.49	0.0453	0.0417	-0.4775	
-0.550464	0.01525	0.82594	0.98	1.05	0.07	0.0482	0.0432	-0.479	
-0.551806	0.014152	0.833138	1.12	1.75	-0.21	0.0423	0.048	-0.4716	
-0.55266	0.014396	0.83204	1.47	2.52	-0.28	0.0423	0.0432	-0.4862	
-0.555832	0.015494	0.832284	1.12	3.43	0	0.0439	0.037	-0.479	
-0.55754	0.014884	0.830454	1.54	3.92	0.21	0.0452	0.0448	-0.4819	
-0.558516	0.0122	0.836432	2.17	4.76	0.14	0.0409	0.0387	-0.4703	
-0.55815	0.014396	0.8418	2.52	5.67	0.56	0.0423	0.0417	-0.4761	
-0.553026	0.010248	0.85217	2.38	6.79	0.14	0.0528	0.0385	-0.4746	
-0.551318	0.011102	0.854244	3.01	8.54	-0.07	0.0409	0.0354	-0.4805	
-0.538874	0.011712	0.847778	4.06	11.62	0.07	0.0542	0.0415	-0.4848	
-0.536434	0.013664	0.848632	4.62	14.07	0.07	0.0542	0.04	-0.479	
-0.539362	0.014152	0.839604	4.9	16.87	-0.07	0.0588	0.0321	-0.4761	
-0.540582	0.01769	0.83021	6.44	19.6	0.84	0.0647	0.032	-0.4819	
-0.536922	0.013542	0.833504	5.53	21.35	0.77	0.0603	0.0337	-0.4747	
-0.540948	0.013786	0.827404	6.37	23.87	0.98	0.06	0.0492	-0.4818	
-0.554246	0.014884	0.817644	6.23	26.67	0.56	0.0721	0.0335	-0.479	
-0.552782	0.018788	0.816302	7.07	28.42	0.56	0.0766	0.0319	-0.479	
-0.559614	0.021838	0.816424	7.35	30.24	0.77	0.0737	0.0304	-0.4761	
-0.574742	0.021472	0.81008	7.77	32.62	0.98	0.0856	0.0318	-0.4761	
-0.58133	0.021594	0.797636	6.72	35.84	0.84	0.0885	0.0333	-0.4746	
-0.591212	0.028182	0.790316	8.61	36.75	1.12	0.0931	0.0222	-0.482	
-0.60085	0.030256	0.781898	8.4	39.48	1.33	0.0916	0.0286	-0.4746	
-0.6161	0.035746	0.764574	8.47	41.65	1.26	0.09739999	0.0364	-0.4702	
-0.629154	0.039162	0.751398	8.05	44.38	1.89	0.1064	0.0332	-0.46	
-0.635742	0.041724	0.742858	7.91	46.27	1.89	0.1139	0.0252	-0.4688	
-0.651114	0.041236	0.719312	8.54	48.16	1.89	0.1199	0.0268	-0.4615	
-0.66185	0.043066	0.701988	8.89	50.47	2.03	0.1287	0.0298	-0.46	
-0.678686	0.055998	0.67649	8.05	53.48	2.59	0.1482	0.025	-0.4483	
-0.69357	0.053192	0.659044	8.54	54.81	2.87	0.1571	0.028	-0.4439	
-0.709064	0.058194	0.636474	9.17	56.07	2.73	0.1676	0.0138	-0.444	
-0.723826	0.07198	0.617564	8.68	57.33	2.17	0.175	0.0168	-0.4454	
-0.743346	0.076616	0.598166	8.89	58.03	1.89	0.1825	0.0167	-0.4454	
-0.757132	0.07515199	0.575474	9.03	59.01	1.61	0.1884	0.0168	-0.4366	
-0.762744	0.073932	0.554124	8.19	60.2	1.4	0.2049	0.0055	-0.4469	
-0.781532	0.082594	0.539484	8.47	60.41	1.19	0.2034	0.0103	-0.4338	
-0.78995	0.08295999	0.520452	8.61	60.06	1.05	0.2242	0.0085	-0.4323	
-0.807518	0.084668	0.512644	8.12	60.34	0.42	0.2153	0.0087	-0.4236	
-0.823012	0.08967	0.498614	7.21	60.34	0.07	0.2317	0.0069	-0.4294	
-0.837286	0.09028	0.477752	7.63	59.36	-0.56	0.2437	0.0022	-0.4134	
-0.863394	0.088084	0.462014	6.79	59.71	-0.84	0.254	0.0084	-0.4118	
-0.877302	0.087474	0.438712	7.77	59.43	-0.98	0.2631	0.0005	-0.4075	
-0.889868	0.086376	0.413214	7.49	59.29	-0.98	0.2631	0.0037	-0.3944	
-0.89243	0.088816	0.392108	7.63	58.8	-0.7	0.2795	-0.0043	-0.4032	
-0.888282	0.096502	0.37271	8.12	59.36	-0.63	0.2854	-0.0027	-0.3929	
-0.909022	0.105042	0.360266	7.98	59.85	-0.14	0.2868	0.0082	-0.3841	
-0.909388	0.107726	0.323544	10.01	60.2	0.14	0.3046	0.0112	-0.3738	
-0.92049	0.107726	0.307928	10.57	60.27	-0.07	0.3122	0.005	-0.3637	
-0.940376	0.10126	0.273402	11.69	60.48	0.98	0.3213	-0.009	-0.358	
-0.947452	0.078324	0.248636	12.39	60.48	0.84	0.3242	0.0002	-0.355	
-0.967338	0.082716	0.222284	14.21	59.71	0.14	0.3406	-0.0046	-0.3535	
-1.000156	0.086254	0.197762	14	57.96	-1.33	0.3437	-0.0154	-0.3376	
-1.013698	0.081374	0.180316	14.49	55.3	-2.38	0.3511	-0.0092	-0.3361	
-1.028826	0.095038	0.165676	15.75	52.08	-0.77	0.3541	-0.0123	-0.3303	
-1.042612	0.111386	0.131638	18.13	50.26	0.35	0.3469	-0.0262	-0.3246	
-1.030046	0.088938	0.119072	17.92	48.44	1.82	0.3601	-0.0138	-0.3172	
-1.031754	0.088694	0.102846	19.18	46.97	2.45	0.3646	-0.0138	-0.3114	
-1.023702	0.105042	0.085156	18.83	46.13	1.75	0.3765	-0.0155	-0.3114	
-1.034194	0.110044	0.07991	18.06	45.08	0.49	0.3766	-0.0185	-0.3012	
-1.03151	0.116144	0.05307	18.62	43.05	0.07	0.3944	-0.0139	-0.2909	
-1.023214	0.118462	0.044652	18.55	40.39	0.49	0.3855	-0.0138	-0.291	
-1.03639	0.129808	0.035258	18.55	39.62	0.07	0.3811	-0.0167	-0.2735	
-1.033218	0.131516	0.017202	14.07	38.99	-0.91	0.3991	-0.028	-0.2852	
-1.035292	0.132492	0.012688	9.59	37.52	-2.03	0.3855	-0.0153	-0.2793	
-1.028094	0.130906	0.005612	9.17	35.14	-2.17	0.4006	-0.0326	-0.2737	
-1.023946	0.128954	-0.008052	5.04	33.11	-1.96	0.4125	-0.0247	-0.2575	
-1.020042	0.12505	-0.017446	4.62	30.94	-1.89	0.4124	-0.0185	-0.256	
-1.020408	0.13176	-0.025376	4.27	29.89	-2.45	0.4097	-0.034	-0.2475	
-1.01565	0.117974	-0.02318	3.08	30.52	-1.75	0.4067	-0.0355	-0.2475	
-1.018944	0.108336	-0.029768	7	32.27	-2.03	0.4081	-0.0276	-0.243	
-1.01687	0.1159	-0.038674	10.5	30.73	-2.8	0.4112	-0.0355	-0.2402	
-1.016626	0.124196	-0.05002	11.97	30.24	-2.94	0.4125	-0.0229	-0.2357	
-1.023702	0.12566	-0.055632	11.9	29.89	-3.15	0.4157	-0.0386	-0.2344	
-1.026142	0.133346	-0.074054	11.48	28.42	-2.52	0.4245	-0.0278	-0.2343	
-1.037122	0.128222	-0.067588	10.08	27.58	-1.96	0.423	-0.0261	-0.2241	
-1.040782	0.126148	-0.08235	12.81	24.15	-1.05	0.426	-0.0244	-0.2153	
-1.03578	0.120048	-0.099552	12.74	22.61	-0.56	0.426	-0.0245	-0.2168	
-1.039562	0.123952	-0.096624	9.73	22.05	-0.63	0.4276	-0.0322	-0.2081	
-1.042246	0.116632	-0.110776	8.26	19.88	-1.4	0.4381	-0.0416	-0.2009	
-1.0431	0.12383	-0.124318	9.1	17.71	-1.19	0.4335	-0.0323	-0.211	
-1.033828	0.130784	-0.126636	5.11	16.45	-1.33	0.435	-0.0307	-0.2037	
-1.030778	0.106872	-0.125782	1.75	15.75	-0.35	0.4307	-0.04	-0.2038	
-1.011868	0.103578	-0.134078	4.2	13.72	-0.42	0.4395	-0.0308	-0.2066	
-1.02175	0.114802	-0.152012	4.9	11.69	-1.19	0.4379	-0.0229	-0.2036	
-1.016016	0.106994	-0.146278	1.89	11.06	-1.82	0.4381	-0.0337	-0.195	
-1.026752	0.097234	-0.1403	0.98	10.57	-1.33	0.4351	-0.0321	-0.1892	
-1.034194	0.102358	-0.135054	2.17	8.33	-0.84	0.4351	-0.032	-0.1863	
-1.032486	0.119682	-0.140788	3.08	5.25	-1.33	0.4411	-0.0353	-0.1892	
-1.018212	0.1159	-0.154208	0.42	3.43	-1.26	0.4337	-0.0351	-0.1805	
-1.018212	0.10675	-0.14091	-1.05	3.5	-0.91	0.444	-0.037	-0.1979	
-1.007232	0.113338	-0.147742	-0.63	3.15	-0.91	0.4425	-0.0307	-0.195	
-0.99308	0.115046	-0.151036	-1.68	3.08	-0.84	0.4439	-0.0259	-0.1891	
-0.99613	0.115534	-0.149938	-1.4	3.64	-0.77	0.4366	-0.0384	-0.1922	
-0.99918	0.113704	-0.15433	-2.24	3.08	-1.05	0.4456	-0.0369	-0.1848	
-0.996374	0.10553	-0.149572	-3.57	3.01	-1.19	0.447	-0.0354	-0.1906	
-0.992836	0.10797	-0.154574	-1.82	3.36	-0.77	0.444	-0.037	-0.1994	
-0.995886	0.106262	-0.153476	-0.84	3.29	-0.07	0.4485	-0.0354	-0.1877	
-1.01077	0.106994	-0.147376	0.28	3.15	0.91	0.4455	-0.0338	-0.1906	
-1.016626	0.107116	-0.15128	0.21	2.31	1.33	0.444	-0.0322	-0.1877	
-1.01748	0.108092	-0.155916	-1.05	1.96	1.05	0.4471	-0.0416	-0.1834	
-1.010892	0.110288	-0.15189	-1.26	1.33	0.35	0.4381	-0.0369	-0.195	
-1.012356	0.107848	-0.13786	-0.07	0.49	0.42	0.4366	-0.0353	-0.1921	
-1.008696	0.109434	-0.146034	-0.21	-0.77	0.84	0.4455	-0.0321	-0.1746	
-1.006988	0.09882	-0.152256	-2.31	-1.47	1.47	0.441	-0.0307	-0.195	
-1.005524	0.09882	-0.146644	-2.52	-0.91	1.33	0.4395	-0.0288	-0.1746	
-1.005402	0.101748	-0.143838	-1.82	-1.82	0.7	0.4469	-0.0211	-0.173	
-1.006988	0.110654	-0.146156	-1.26	-2.52	0.7	0.4439	-0.0243	-0.1862	
-1.014918	0.111142	-0.139934	-0.98	-3.57	1.33	0.4352	-0.0334	-0.1717	
-1.01687	0.110776	-0.147376	-1.61	-4.76	1.68	0.4411	-0.0337	-0.1848	
-1.009306	0.106628	-0.147132	-1.68	-4.9	1.19	0.4455	-0.0322	-0.1862	
-1.01565	0.109312	-0.134688	-1.33	-4.9	0.84	0.4411	-0.0368	-0.1878	
-1.017724	0.118584	-0.14213	-0.35	-6.51	0.77	0.4351	-0.0384	-0.1994	
-1.01809	0.115656	-0.142862	-1.75	-7.63	0.91	0.4455	-0.0338	-0.1906	
-1.018212	0.1159	-0.137616	-1.89	-8.54	1.26	0.444	-0.0323	-0.2008	
-1.024434	0.118828	-0.1342	-2.03	-10.08	1.19	0.4351	-0.0322	-0.1965	
-1.023946	0.116388	-0.13664	-1.68	-11.83	1.19	0.4396	-0.0354	-0.1979	
-1.02785	0.1159	-0.125416	-2.94	-13.3	1.33	0.4455	-0.0339	-0.2037	
-1.029802	0.119194	-0.124562	-2.03	-15.61	1.33	0.435	-0.0291	-0.2037	
-1.022482	0.120658	-0.124196	-1.61	-17.43	1.19	0.4335	-0.0259	-0.1993	
-1.030168	0.127978	-0.117608	-1.47	-19.74	0.35	0.4292	-0.0368	-0.1994	
-1.03395	0.122976	-0.098942	-2.94	-21.98	0	0.4335	-0.0323	-0.2096	
-1.036634	0.128222	-0.120902	-1.89	-24.5	0.21	0.4321	-0.0385	-0.2096	
-1.029436	0.125294	-0.109068	-6.51	-25.55	0.14	0.438	-0.0341	-0.2285	
-1.031754	0.121024	-0.097356	-6.02	-27.02	-0.42	0.4202	-0.0338	-0.2169	
-1.022726	0.123708	-0.09162199	-4.48	-28.91	-0.7	0.4231	-0.0371	-0.2285	
-1.023458	0.127856	-0.084302	-3.71	-29.47	-1.05	0.4231	-0.0339	-0.2227	
-1.024068	0.12444	-0.081374	-4.48	-29.89	-0.7	0.414	-0.0261	-0.2386	
-1.032974	0.12139	-0.0671	-4.13	-29.75	0.35	0.4157	-0.0386	-0.2344	
-1.026752	0.124806	-0.061732	-4.06	-31.36	0.35	0.4171	-0.0325	-0.2489	
-1.029314	0.127368	-0.057218	-5.25	-32.62	0.56	0.4096	-0.0261	-0.2416	
-1.027362	0.110776	-0.04331	-9.1	-32.76	0.49	0.4052	-0.0324	-0.2504	
-1.032364	0.111996	-0.030134	-5.18	-34.16	0.21	0.4111	-0.0294	-0.2547	
-1.036268	0.110532	-0.016104	-6.79	-35.35	-0.35	0.4139	-0.0185	-0.2531	
-1.032364	0.11773	-0.001708	-5.11	-38.01	-0.35	0.3946	-0.0262	-0.2663	
-1.02724	0.118096	0.011224	-6.79	-38.71	-0.42	0.3961	-0.0262	-0.2678	
-1.029924	0.117364	0.016348	-7.56	-39.55	-0.49	0.3976	-0.0279	-0.2809	
-1.02968	0.129808	0.03477	-7.91	-40.39	-0.63	0.3961	-0.0295	-0.2867	
-1.024922	0.13054	0.052582	-9.59	-41.72	-0.56	0.3857	-0.0294	-0.2868	
-1.01992	0.125294	0.060512	-11.48	-41.93	-0.42	0.3752	-0.0214	-0.2838	
-1.01687	0.120292	0.07259	-12.81	-41.23	-0.07	0.3737	-0.0232	-0.3013	
-1.0187	0.11102	0.091866	-14.14	-40.11	0.35	0.3797	-0.0263	-0.2998	
-1.01504	0.10431	0.103456	-14.35	-39.06	0.98	0.3737	-0.0232	-0.3042	
-1.016992	0.097844	0.12627	-13.86	-38.92	1.12	0.3631	-0.017	-0.3216	
-1.006744	0.102358	0.130906	-13.3	-39.06	1.26	0.3617	-0.0152	-0.2998	
-1.00467	0.102968	0.14762	-15.68	-37.59	0.63	0.3706	-0.0202	-0.3187	
-0.996008	0.107116	0.152988	-15.68	-38.08	0.49	0.3572	-0.0154	-0.3245	
-0.996252	0.09699	0.167262	-13.44	-39.2	0.77	0.3541	-0.0059	-0.3186	
-0.993934	0.091134	0.180194	-12.67	-39.55	0.77	0.3512	-0.017	-0.3333	
-0.986492	0.083448	0.207644	-12.81	-41.58	1.61	0.3467	-0.0107	-0.3376	
-0.976366	0.084912	0.220942	-11.69	-42.98	2.17	0.3392	-0.0107	-0.3449	
-0.970998	0.088084	0.241316	-10.5	-45.36	2.52	0.3242	-0.0059	-0.3565	
-0.970388	0.08723	0.264862	-9.59	-46.76	1.75	0.3244	-0.0185	-0.3654	
-0.972706	0.096746	0.293044	-8.82	-49.35	0.84	0.311	-0.0184	-0.3654	
-0.96929	0.10614	0.305244	-9.52	-51.66	0.49	0.3063	-0.0011	-0.3638	
-0.964898	0.107604	0.331474	-13.51	-52.99	0.63	0.3004	-0.009	-0.3784	
-0.964776	0.089182	0.346358	-14	-53.27	0.07	0.3019	-0.006	-0.3871	
-0.956968	0.097112	0.364048	-9.52	-54.95	2.03	0.2989	-0.0043	-0.3827	
-0.935374	0.075518	0.385764	-12.04	-58.8	2.66	0.2796	-0.0057	-0.3857	
-0.901336	0.061976	0.396256	-13.79	-58.1	2.94	0.2765	0.0036	-0.3885	
-0.88572	0.066368	0.423828	-11.9	-61.53	1.75	0.272	0.0019	-0.4046	
-0.865346	0.057706	0.439322	-10.15	-62.23	0.7	0.2571	0.0036	-0.4148	
-0.848754	0.076738	0.461404	-9.31	-63.14	0.49	0.2542	-0.004	-0.4047	
-0.825696	0.06649	0.478972	-9.1	-61.95	0.21	0.2511	0.0069	-0.4075	
-0.808372	0.070638	0.502396	-8.82	-63.21	0.14	0.2392	0.0037	-0.4235	
-0.80398	0.076372	0.526186	-8.33	-62.65	-0.07	0.2273	0.0055	-0.4163	
-0.77897	0.077836	0.549732	-8.54	-62.79	-0.42	0.2198	0.0103	-0.4206	
-0.758718	0.068808	0.567178	-10.15	-61.88	-0.7	0.2093	0.0134	-0.4293	
-0.747372	0.060024	0.588894	-9.59	-61.11	-1.05	0.1973	0.0182	-0.4352	
-0.73871	0.051606	0.60146	-5.6	-60.97	-1.4	0.1974	0.0166	-0.4366	
-0.726388	0.06344	0.618052	-5.46	-60.34	-1.96	0.1722	0.0075	-0.4484	
-0.700768	0.063562	0.64904	-4.48	-60.41	-3.01	0.1765	0.0168	-0.4483	
-0.682224	0.05185	0.664778	-3.57	-59.08	-3.78	0.1601	0.017	-0.4527	
-0.659044	0.043676	0.69479	-5.25	-54.74	-4.27	0.1482	0.0186	-0.46	
-0.63745	0.038552	0.719312	-4.62	-52.85	-4.27	0.1423	0.0124	-0.463	
-0.617564	0.045384	0.733342	-3.92	-49.98	-3.99	0.1348	0.0203	-0.46	
-0.600606	0.047702	0.749324	0.21	-49.56	-4.2	0.1229	0.0205	-0.463	
-0.590236	0.043798	0.757864	-4.27	-43.96	-3.64	0.1155	0.0189	-0.4732	
-0.585722	0.046116	0.774212	-3.78	-41.23	-2.87	0.1095	0.0222	-0.463	
-0.576572	0.048312	0.78385	-4.34	-39.13	-3.5	0.0976	0.0207	-0.4718	
-0.560102	0.048068	0.799588	-4.2	-37.1	-2.66	0.0946	0.0191	-0.4776	
-0.560956	0.047946	0.80398	-4.62	-34.65	-2.1	0.0931	0.0223	-0.4747	
-0.547536	0.045506	0.80764	-6.65	-32.06	-2.59	0.0841	0.0272	-0.4703	
-0.54534	0.041602	0.817034	-6.58	-29.33	-2.38	0.0871	0.0255	-0.4732	
-0.53497	0.037942	0.818254	-6.23	-27.3	-2.66	0.0812	0.0209	-0.4762	
-0.539118	0.033672	0.815082	-7.28	-24.29	-2.31	0.0812	0.0256	-0.4747	
-0.54351	0.033062	0.822646	-7.14	-22.12	-1.82	0.0677	0.0288	-0.4805	
-0.546926	0.033672	0.835456	-6.3	-21.42	-2.66	0.0663	0.0274	-0.4747	
-0.548024	0.037698	0.848876	-5.32	-19.74	-2.59	0.0574	0.0274	-0.482	
-0.55754	0.017568	0.848022	-7.21	-17.78	-3.22	0.0602	0.0368	-0.4804	
-0.542656	0.014396	0.84607	-4.55	-18.9	-2.59	0.0543	0.0337	-0.4849	
-0.544608	0.013542	0.842532	-6.93	-15.47	-2.73	0.0409	0.0323	-0.482	
-0.539728	0.007808	0.847168	-6.44	-13.51	-3.01	0.0514	0.0322	-0.4791	
-0.53863	0.007808	0.849974	-4.13	-12.81	-2.52	0.0424	0.0338	-0.482	
-0.541924	0.008417999	0.83814	-4.55	-10.15	-2.52	0.0425	0.0276	-0.4791	
-0.548512	0.010248	0.831552	-3.64	-9.1	-2.1	0.032	0.0338	-0.4951	
-0.551074	0.005612	0.830332	-4.55	-8.05	-2.03	0.0349	0.0387	-0.4776	
-0.551196	-0.00976	0.833016	-4.06	-6.51	-1.75	0.0394	0.037	-0.4849	
-0.54778	-0.00732	0.83265	-2.38	-6.02	-1.54	0.038	0.0323	-0.4864	
-0.56059	0.005002	0.837652	-1.61	-5.25	-1.12	0.0304	0.0402	-0.4849	
-0.561932	0.00549	0.844118	-1.61	-4.34	-0.7	0.0319	0.0433	-0.4863	
-0.55815	0.008296	0.835212	-0.91	-4.62	-0.28	0.0216	0.0357	-0.4791	
-0.551562	0.00915	0.834236	-0.7	-4.13	0.28	0.0335	0.034	-0.4791	
-0.550952	0.007076	0.831918	-0.84	-3.57	0.35	0.0245	0.0404	-0.4761	
-0.553514	0.001708	0.83631	-0.35	-3.78	0.35	0.0305	0.0324	-0.4835	
-0.550952	-0.001464	0.831064	0	-3.99	0.84	0.032	0.0371	-0.482	
-0.550708	0.001342	0.829966	0.21	-3.99	0.98	0.0334	0.0418	-0.4805	
-0.547902	0.00366	0.821426	0.63	-4.13	0.98	0.032	0.0371	-0.4834	
-0.545828	0.006832	0.827648	1.05	-4.27	1.19	0.0305	0.0355	-0.4864	
-0.546072	0.010736	0.83143	1.05	-4.2	1.68	0.0378	0.0417	-0.4819	
-0.545828	0.006222	0.829844	0.98	-4.2	2.03	0.0289	0.0434	-0.4848	
-0.543266	0.007564	0.832284	1.12	-4.34	2.31	0.0349	0.0402	-0.4863	
-0.54412	0.013786	0.838872	1.4	-4.34	2.59	0.0304	0.037	-0.4922	
-0.541314	0.013542	0.837042	1.26	-4.13	2.24	0.0201	0.0342	-0.4806	
-0.537532	0.016348	0.836066	0.84	-3.43	1.96	0.0229	0.0434	-0.4907	
-0.53558	0.018666	0.83387	0.91	-3.08	1.89	0.0259	0.0418	-0.4907	
-0.533262	0.013298	0.843264	0.42	-3.22	1.75	0.0185	0.0419	-0.4892	
-0.52948	0.015372	0.8479	0.49	-2.59	1.89	0.0216	0.034	-0.4893	
-0.528748	0.016714	0.851438	1.12	-2.03	1.54	0.0259	0.045	-0.4863	
-0.525576	0.016592	0.853512	1.33	-1.26	1.33	0.017	0.042	-0.4805	
-0.519598	0.01769	0.855464	1.33	-0.84	1.19	0.0275	0.0372	-0.4805	
-0.515206	0.01647	0.860466	1.61	0.07	1.61	0.02	0.0451	-0.4805	
-0.510448	0.01342	0.862906	2.03	1.05	1.4	0.0229	0.0482	-0.4804	
-0.506788	0.010614	0.869372	2.24	2.24	1.05	0.0335	0.0339	-0.4878	
-0.503006	0.011468	0.87108	2.73	3.64	1.05	0.029	0.0388	-0.4791	
-0.496052	0.010492	0.874984	2.66	5.53	1.12	0.0275	0.0403	-0.4805	
-0.497028	0.011956	0.874374	3.36	7.56	0.84	0.0246	0.0308	-0.4922	
-0.492514	0.014884	0.873276	3.43	9.31	0.7	0.0304	0.0419	-0.479	
-0.48922	0.019276	0.872422	3.36	13.09	0.98	0.032	0.0371	-0.4834	
-0.489952	0.020252	0.869738	3.5	15.82	0.98	0.0319	0.0371	-0.4878	
-0.490196	0.014274	0.870348	3.57	18.41	0.84	0.0439	0.0323	-0.482	
-0.492026	0.012078	0.868762	4.13	21.28	0.7	0.0395	0.0292	-0.4806	
-0.49776	0.015616	0.863394	4.41	24.29	0.42	0.0424	0.0306	-0.4893	
-0.506544	0.018544	0.858026	4.62	27.02	0.28	0.0498	0.0385	-0.4761	
-0.510326	0.018422	0.854854	6.02	29.4	0.35	0.0484	0.0259	-0.4879	
-0.525088	0.02013	0.842776	5.04	32.97	0.56	0.0545	0.0196	-0.4836	
-0.528748	0.024156	0.837042	6.58	34.93	0.77	0.0619	0.0227	-0.4791	
-0.543388	0.014884	0.827892	6.58	37.17	0.77	0.0604	0.0226	-0.4835	
-0.551196	0.02379	0.812886	7.56	40.46	0.91	0.0737	0.0256	-0.4834	
-0.565226	0.027572	0.80215	6.65	43.26	1.05	0.07979999	0.0226	-0.466	
-0.576328	0.030134	0.789096	6.02	46.27	0.56	0.0871	0.0288	-0.4645	
-0.591578	0.036356	0.774822	8.4	48.72	0.42	0.0916	0.0239	-0.4732	
-0.606706	0.04209	0.757742	9.59	50.75	0.49	0.0976	0.0208	-0.4616	
-0.621834	0.04209	0.742614	8.12	53.83	0.49	0.1125	0.0222	-0.4644	
-0.633668	0.046116	0.72773	9.24	56.21	0.35	0.1229	0.0221	-0.4557	
-0.64843	0.054168	0.712358	10.29	58.24	0.14	0.1362	0.0266	-0.4614	
-0.66978	0.055022	0.68381	10.5	61.25	-0.42	0.1452	0.0201	-0.4687	
-0.690764	0.06161	0.662582	10.43	63.63	-0.07	0.1558	0.0092	-0.4572	
-0.709064	0.064416	0.639524	11.69	64.89	0.7	0.1646	0.0154	-0.444	
-0.720044	0.063318	0.617198	10.57	64.96	0.84	0.1797	-0.0019	-0.45	
-0.730048	0.070394	0.590724	12.6	66.29	1.26	0.1884	0.0151	-0.4454	
-0.744566	0.074908	0.571204	13.51	66.99	0.91	0.1929	0.0136	-0.4352	
-0.762378	0.079788	0.552416	13.65	68.11	0.56	0.2124	0.0056	-0.4323	
-0.777506	0.079666	0.527772	11.76	69.23	0.21	0.2185	-0.007	-0.4354	
-0.801052	0.09516	0.502152	12.04	68.95	-0.07	0.2274	-0.0023	-0.428	
-0.831674	0.086742	0.49288	10.92	69.3	1.12	0.2364	-0.008599999	-0.4208	
-0.846558	0.091012	0.474702	10.15	68.81	1.89	0.2408	-0.0039	-0.4105	
-0.8479	0.09333	0.451888	9.1	67.69	1.47	0.2617	-0.0073	-0.4134	
-0.869372	0.101382	0.425902	11.69	67.06	0.84	0.2557	-0.0056	-0.412	
-0.874496	0.097966	0.40199	10.15	67.34	-0.56	0.2662	-0.0087	-0.3974	
-0.889502	0.107238	0.380762	11.34	66.71	-0.91	0.29	-0.0059	-0.39	
-0.897066	0.099064	0.357704	8.75	66.85	-2.1	0.281	0.0005	-0.3856	
-0.907192	0.09162199	0.342332	7.98	66.99	-2.94	0.293	-0.0073	-0.377	
-0.937936	0.113216	0.327204	9.87	66.22	-3.78	0.3079	-0.0122	-0.3755	
-0.939156	0.100528	0.285602	10.22	65.31	-3.36	0.3064	-0.0089	-0.3624	
-0.941718	0.0976	0.267668	11.97	63.77	-4.9	0.3183	-0.0073	-0.3507	
-0.956114	0.082716	0.23729	10.43	63.56	-4.69	0.3317	-0.0107	-0.3536	
-0.974414	0.090158	0.208864	12.04	63.21	-3.78	0.3527	-0.0155	-0.342	
-0.978806	0.089304	0.171898	16.31	60.06	-4.13	0.3543	-0.0248	-0.329	
-0.993934	0.09552599	0.14213	16.38	59.5	-4.06	0.3468	-0.0152	-0.3245	
-0.99918	0.088328	0.123708	15.26	58.03	-3.64	0.3558	-0.0263	-0.3217	
-1.005646	0.09089	0.110898	14.63	57.75	-3.36	0.3661	-0.0138	-0.3128	
-1.020286	0.092842	0.105774	15.75	55.09	-4.13	0.3708	-0.0278	-0.3028	
-1.036268	0.083814	0.100162	17.99	50.96	-4.41	0.3869	-0.014	-0.3011	
-1.034804	0.089792	0.068808	19.67	48.09	-4.34	0.39	-0.0218	-0.3012	
-1.033828	0.089914	0.03721	20.16	45.15	-4.06	0.3915	-0.0122	-0.2749	
-1.056764	0.080154	0.023302	16.94	43.96	-4.55	0.3976	-0.028	-0.2852	
-1.046028	0.085766	-0.00549	19.81	39.9	-5.04	0.3931	-0.0215	-0.2721	
-1.047858	0.099918	-0.011712	15.96	40.67	-4.69	0.4139	-0.025	-0.2764	
-1.048468	0.100894	-0.01769	14.14	38.78	-5.67	0.402	-0.0185	-0.2691	
-1.039928	0.099552	-0.040382	14.21	37.03	-6.3	0.405	-0.0215	-0.2604	
-1.03395	0.10309	-0.056364	11.97	36.12	-6.65	0.4081	-0.0262	-0.2561	
-1.02602	0.097112	-0.05429	8.26	36.4	-5.74	0.42	-0.0279	-0.2488	
-1.018578	0.096014	-0.065026	9.03	36.26	-4.69	0.4171	-0.0293	-0.2387	
-1.00345	0.08357	-0.08113	8.47	36.75	-3.71	0.4184	-0.0152	-0.2341	
-1.012112	0.085034	-0.086376	9.24	36.68	-3.15	0.4201	-0.0308	-0.2329	
-1.014186	0.086376	-0.095282	9.66	37.03	-2.38	0.4216	-0.0292	-0.227	
-1.007354	0.081862	-0.11285	9.94	38.01	-1.12	0.4274	-0.0231	-0.2357	
-1.016382	0.06832	-0.105408	8.68	38.71	-0.63	0.423	-0.0294	-0.2416	
-1.0187	0.069784	-0.12017	10.29	36.68	-0.49	0.4215	-0.0212	-0.2109	
-1.019066	0.070882	-0.131272	10.22	34.3	-0.42	0.4364	-0.0277	-0.2139	
-1.027606	0.070028	-0.137616	10.01	34.09	-0.21	0.4366	-0.0401	-0.2096	
-1.037244	0.081008	-0.167018	9.24	32.76	0.42	0.441	-0.0307	-0.1993	
-1.041636	0.087596	-0.171288	5.32	28.56	0.7	0.4424	-0.0244	-0.1905	
-1.032486	0.071126	-0.153476	3.36	29.12	0.21	0.4439	-0.026	-0.1964	
-1.049566	0.079666	-0.164578	6.86	28.84	1.19	0.4397	-0.0414	-0.182	
-1.052128	0.072956	-0.182024	5.95	26.18	0.07	0.444	-0.029	-0.1789	
-1.039562	0.087596	-0.214354	4.9	22.75	-1.33	0.4395	-0.0242	-0.1804	
-1.04432	0.07686	-0.1769	-1.68	22.19	-1.61	0.444	-0.0321	-0.1775	
-1.028948	0.088572	-0.18666	2.87	19.39	-1.82	0.4515	-0.032	-0.1615	
-1.013454	0.098088	-0.20801	2.52	15.54	-1.68	0.4456	-0.0366	-0.1601	
-0.999424	0.09357399	-0.218868	0.7	14.77	-0.84	0.444	-0.0304	-0.1659	
-0.991372	0.084912	-0.205936	-0.7	15.68	0.84	0.4515	-0.0337	-0.1746	
-0.988932	0.100284	-0.221918	2.59	15.05	0.91	0.4513	-0.0179	-0.157	
-0.989298	0.0854	-0.223016	-0.63	14.14	0.63	0.4471	-0.0334	-0.1528	
-0.993446	0.091744	-0.232898	2.73	13.09	1.47	0.4546	-0.0413	-0.1529	
-0.99918	0.09577	-0.252906	0.14	11.97	1.54	0.4515	-0.0272	-0.1513	
-0.992836	0.084058	-0.236558	-2.31	12.32	1.12	0.4545	-0.0351	-0.1586	
-1.010038	0.087108	-0.22997	-2.24	10.85	0.98	0.453	-0.0288	-0.1513	
-1.022726	0.095404	-0.23302	-0.84	8.47	1.61	0.4487	-0.0381	-0.1499	
-1.02785	0.09076799	-0.25132	-3.22	6.16	1.47	0.4559	-0.0256	-0.1483	
-1.02114	0.086498	-0.244122	-5.46	4.48	2.1	0.4516	-0.0381	-0.1456	
-1.012966	0.101382	-0.24644	-4.9	2.66	1.33	0.459	-0.0287	-0.1367	
-1.009184	0.09747799	-0.254248	-4.55	0.77	1.05	0.4606	-0.0381	-0.1368	
-1.00772	0.101748	-0.258274	-3.15	-0.21	1.12	0.4635	-0.0336	-0.1484	
-0.986492	0.08967	-0.261934	-4.69	-0.98	0.35	0.4546	-0.035	-0.1499	
-0.986492	0.092964	-0.258274	-4.06	-0.91	0.98	0.4561	-0.0381	-0.1485	
-0.992226	0.091134	-0.261324	-3.01	-1.82	0.77	0.4605	-0.032	-0.1513	
-0.980636	0.100162	-0.26169	-2.38	-2.94	1.12	0.4441	-0.0285	-0.1426	
-0.975512	0.104432	-0.261568	-0.42	-2.66	0.98	0.4516	-0.038	-0.1441	
-0.983564	0.112118	-0.247172	0.42	-2.24	1.54	0.4546	-0.0366	-0.1499	
-0.989176	0.10492	-0.259128	1.19	-2.66	1.19	0.4605	-0.032	-0.1498	
-0.99247	0.107848	-0.261934	0.56	-2.94	0.63	0.4576	-0.0429	-0.1558	
-0.988932	0.106018	-0.257786	-1.75	-2.73	0.21	0.4605	-0.0351	-0.1499	
-0.996374	0.110288	-0.242292	-1.47	-3.22	0.63	0.4605	-0.0352	-0.1586	
-1.00833	0.106262	-0.244732	-0.28	-4.34	1.26	0.459	-0.0351	-0.1528	
-1.01565	0.100894	-0.243634	-2.1	-6.3	1.26	0.4456	-0.0333	-0.147	
-1.012478	0.10126	-0.242414	-1.75	-8.05	0.98	0.4575	-0.0336	-0.163	
-1.005036	0.101992	-0.23546	-3.43	-8.89	0.91	0.4576	-0.0398	-0.1572	
-1.010526	0.104066	-0.240584	-3.99	-10.15	0.77	0.4486	-0.0303	-0.1513	
-1.01077	0.092354	-0.234118	-4.62	-11.06	0.77	0.4456	-0.0382	-0.1674	
-1.005036	0.09162199	-0.232044	-3.64	-12.53	0.91	0.4516	-0.0367	-0.1601	
-0.999546	0.09455	-0.230092	-2.03	-13.72	0.84	0.4529	-0.0194	-0.1512	
-1.008452	0.10126	-0.216916	-1.4	-14.77	0.84	0.447	-0.0304	-0.1615	
-1.013088	0.107482	-0.214842	-0.42	-16.59	0.84	0.4426	-0.035	-0.163	
-1.006866	0.100894	-0.210206	0.07	-18.06	0.42	0.4383	-0.0444	-0.166	
-1.006866	0.101138	-0.196908	1.4	-18.97	0.63	0.444	-0.0304	-0.1688	
-1.012234	0.107116	-0.188368	2.38	-20.3	0.07	0.4441	-0.032	-0.1688	
-1.014552	0.11346	-0.19154	2.59	-22.47	-0.35	0.4485	-0.029	-0.1746	
-1.019066	0.115778	-0.188002	0.7	-23.38	0.21	0.4515	-0.0306	-0.1731	
-1.013942	0.106384	-0.178486	-1.54	-24.22	0.14	0.4366	-0.0335	-0.1776	
-1.011868	0.104676	-0.170922	-3.15	-24.85	-0.21	0.4381	-0.0352	-0.1819	
-1.019798	0.104432	-0.156648	-4.55	-25.48	-0.42	0.45	-0.0354	-0.1906	
-1.012112	0.096868	-0.147376	-6.09	-25.62	-0.28	0.4336	-0.0337	-0.195	
-1.011746	0.10126	-0.139568	-4.2	-25.83	0.14	0.4351	-0.0369	-0.198	
-1.006988	0.097966	-0.13481	-3.5	-26.53	0.07	0.4424	-0.0308	-0.2095	
-1.010892	0.093696	-0.12322	-3.22	-26.39	0.42	0.4201	-0.0305	-0.2081	
-1.010526	0.097966	-0.115534	-1.68	-26.25	0.56	0.4351	-0.0402	-0.214	
-1.009062	0.094428	-0.100162	-3.64	-26.67	0	0.4305	-0.0261	-0.2153	
-1.014308	0.093818	-0.085888	-3.15	-28.07	-0.21	0.4336	-0.037	-0.2154	
-1.017358	0.103944	-0.079788	-1.54	-29.33	-0.84	0.4231	-0.0339	-0.2256	
-1.01992	0.101016	-0.065026	-4.34	-28.7	-0.63	0.423	-0.0292	-0.2256	
-1.024068	0.095282	-0.05612	-5.04	-29.82	-0.63	0.4171	-0.0323	-0.2329	
-1.021872	0.09638	-0.051728	-8.19	-30.45	-0.28	0.4245	-0.0262	-0.2342	
-1.023946	0.099796	-0.031476	-7.07	-32.27	-0.56	0.411	-0.0246	-0.2474	
-1.022482	0.099674	-0.024888	-7.63	-33.53	-0.84	0.4082	-0.0355	-0.2475	
-1.023214	0.10065	-0.015982	-7.7	-33.25	-0.63	0.4185	-0.0342	-0.2591	
-1.020408	0.096624	-0.007686	-8.68	-33.67	-0.98	0.405	-0.0215	-0.2604	
-1.020164	0.088572	0.004758	-9.17	-33.6	-0.98	0.3991	-0.0262	-0.2605	
-1.012478	0.091988	0.011834	-10.01	-33.6	-1.12	0.4051	-0.0246	-0.2561	
-1.009672	0.092232	0.023058	-7.49	-32.41	-1.54	0.3977	-0.0309	-0.2693	
-1.009672	0.096014	0.037698	-5.67	-32.48	-2.24	0.3989	-0.009	-0.2661	
-1.001376	0.096868	0.040016	-5.81	-30.87	-2.17	0.4035	-0.0264	-0.2765	
-1.00467	0.09577	0.05917	-6.16	-27.93	-2.52	0.393	-0.0137	-0.2749	
-1.011868	0.096258	0.076494	-5.88	-27.79	-2.59	0.3855	-0.0153	-0.2837	
-1.001376	0.09455	0.077226	-7.07	-27.3	-2.52	0.3915	-0.0155	-0.2924	
-1.001376	0.094428	0.09747799	-8.54	-26.04	-2.87	0.3915	-0.0202	-0.2939	
-0.997594	0.094306	0.104188	-9.87	-25.27	-3.15	0.3884	-0.014	-0.3026	
-1.002962	0.09162199	0.11834	-10.99	-24.22	-3.08	0.3855	-0.0171	-0.3055	
-0.992714	0.082838	0.128832	-11.48	-23.8	-2.8	0.3751	-0.0169	-0.2954	
-0.990396	0.080398	0.135176	-10.22	-22.96	-2.38	0.3765	-0.0059	-0.2967	
-0.99186	0.068564	0.152256	-9.17	-22.12	-1.61	0.3752	-0.0232	-0.3042	
-0.986004	0.073078	0.162138	-6.16	-21.84	-1.47	0.3721	-0.0171	-0.3187	
-0.980392	0.073932	0.171776	-6.44	-21.14	-1.47	0.3675	-0.0061	-0.3171	
-0.973804	0.0732	0.171654	-6.02	-20.72	-2.38	0.3719	-0.0029	-0.3127	
-0.983442	0.076982	0.184098	-8.05	-20.02	-3.29	0.3661	-0.0169	-0.3129	
-0.981002	0.083204	0.194712	-8.75	-19.46	-3.22	0.3586	-0.0059	-0.3171	
-0.982588	0.07515199	0.199714	-8.33	-19.46	-2.38	0.351	0.0003	-0.3214	
-0.986248	0.066002	0.201178	-7.28	-19.53	-1.33	0.3644	-0.0013	-0.3171	
-0.987468	0.068442	0.213378	-6.3	-19.6	-1.47	0.3556	-0.006	-0.3244	
-0.983198	0.056974	0.221796	-5.88	-20.23	-1.54	0.354	-0.003	-0.3346	
-0.97783	0.057096	0.232288	-5.53	-20.37	-1.82	0.3511	-0.0044	-0.3317	
-0.97783	0.062098	0.246318	-4.06	-19.95	-1.96	0.348	-0.0014	-0.3418	
-0.980026	0.06039	0.254004	-3.29	-20.23	-1.54	0.3407	-0.0059	-0.3346	
-0.977952	0.065514	0.255102	-2.24	-21	-0.91	0.3391	-0.0028	-0.3404	
-0.968558	0.059292	0.261446	-3.78	-20.23	-0.14	0.3436	-0.0014	-0.3433	
-0.964044	0.058438	0.279136	-3.78	-19.74	-0.35	0.3361	-0.0044	-0.3492	
-0.958066	0.058438	0.289018	-2.8	-19.6	-0.63	0.3376	-0.0029	-0.3492	
-0.95343	0.05856	0.293532	-1.54	-19.11	-0.84	0.3419	0.0079	-0.3505	
-0.947208	0.067222	0.296582	-1.68	-19.18	-0.63	0.3389	0.011	-0.3534	
-0.943304	0.055632	0.304634	-1.68	-18.76	0.35	0.3301	0.0001	-0.3637	
-0.939522	0.049532	0.317322	-2.66	-17.15	1.4	0.3226	0.0049	-0.3622	
-0.942816	0.049288	0.323666	-1.89	-16.87	1.75	0.3301	0.0016	-0.3637	
-0.94001	0.038552	0.327936	-2.1	-15.82	2.24	0.3256	0.0049	-0.352	
-0.939278	0.05124	0.33733	-0.98	-15.75	2.1	0.3168	-0.0075	-0.3624	
-0.945134	0.055754	0.347822	-0.56	-15.61	2.59	0.3183	-0.006	-0.3682	
-0.94184	0.048068	0.348432	-1.26	-14.49	4.41	0.3242	-0.0078	-0.3812	
-0.932202	0.052338	0.348188	-0.21	-13.93	4.55	0.3151	0.0065	-0.368	
-0.927566	0.038064	0.364292	-0.28	-13.86	5.39	0.3182	-0.003	-0.3812	
-0.919636	0.035868	0.366854	2.17	-13.09	5.88	0.3121	0.007999999	-0.3782	
-0.912926	0.035014	0.375882	2.8	-12.81	6.37	0.3122	0.0049	-0.3739	
-0.908534	0.045384	0.38003	4.69	-11.83	6.58	0.3064	-0.009	-0.3726	
-0.900726	0.048312	0.382104	4.55	-10.99	6.51	0.2929	-0.0026	-0.3784	
-0.893894	0.054534	0.38491	5.25	-9.87	6.58	0.3004	-0.0042	-0.374	
-0.89487	0.058072	0.383568	5.6	-8.96	6.72	0.3065	-0.0153	-0.377	
-0.8967	0.058682	0.388326	4.69	-7.21	6.72	0.2974	-0.0041	-0.3624	
-0.90524	0.059048	0.39711	5.04	-6.02	6.93	0.3092	0.0018	-0.371	
-0.90951	0.066246	0.395402	6.16	-5.32	7.28	0.3034	-0.0043	-0.374	
-0.914756	0.06405	0.39528	5.88	-3.99	7.7	0.3035	-0.0136	-0.3712	
-0.916708	0.063928	0.400404	6.58	-2.73	8.26	0.3019	-0.0074	-0.374	
-0.903776	0.081252	0.38857	6.93	-1.4	9.94	0.302	-0.0151	-0.3683	
-0.90524	0.088572	0.396988	8.19	-1.05	11.41	0.3036	-0.0199	-0.3713	
-0.902678	0.092354	0.397598	9.24	0.14	12.81	0.2916	-0.0151	-0.3785	
-0.907192	0.102236	0.395524	9.66	1.89	14.77	0.2992	-0.0309	-0.383	
-0.916586	0.103578	0.393328	10.64	3.22	16.24	0.3082	-0.0357	-0.3772	
-0.915366	0.103944	0.393816	10.01	3.85	17.85	0.2992	-0.0309	-0.3859	
-0.914268	0.104798	0.392718	9.73	3.64	19.74	0.3008	-0.0324	-0.3714	
-0.91805	0.111996	0.38552	9.87	4.34	22.05	0.3022	-0.0324	-0.3743	
-0.920612	0.116144	0.382348	12.25	4.97	24.78	0.2964	-0.0417	-0.3744	
-0.915366	0.116998	0.380518	14.07	4.83	26.74	0.2875	-0.0447	-0.3701	
-0.921466	0.123342	0.379298	15.96	4.83	28.56	0.3024	-0.0497	-0.3788	
-0.916708	0.13542	0.37576	16.94	5.39	30.87	0.298	-0.0464	-0.3701	
-0.917928	0.14762	0.374052	18.97	5.39	33.6	0.2922	-0.0619	-0.3688	
-0.918538	0.164212	0.362462	21.56	4.34	35.14	0.3026	-0.0591	-0.3819	
-0.905362	0.18605	0.35441	21.42	4.41	36.4	0.3057	-0.0715	-0.3674	
-0.909022	0.205082	0.349652	18.69	5.53	37.24	0.3087	-0.0731	-0.3689	
-0.904996	0.220576	0.339038	17.85	5.6	37.1	0.3074	-0.08549999	-0.3618	
-0.91195	0.252418	0.328546	14.28	8.26	37.73	0.3015	-0.0901	-0.3618	
-0.930738	0.266448	0.332816	11.69	9.66	38.78	0.3045	-0.0917	-0.3662	
-0.909632	0.265838	0.322324	10.08	9.17	38.57	0.306	-0.0901	-0.3589	
-0.922686	0.28243	0.319518	10.43	8.4	37.73	0.2988	-0.1072	-0.3577	
-0.912194	0.296094	0.313784	9.24	7.35	36.05	0.2989	-0.1181	-0.3563	
-0.909998	0.32574	0.30561	7.42	6.58	35.07	0.293	-0.1196	-0.352	
-0.891088	0.317322	0.304878	5.18	6.16	33.6	0.3004	-0.115	-0.3519	
-0.904996	0.341234	0.29707	8.61	7.14	31.71	0.2975	-0.1212	-0.3491	
-0.893772	0.376004	0.282918	3.92	6.16	29.96	0.2962	-0.1383	-0.3478	
-0.901702	0.38979	0.29097	1.4	7.56	29.61	0.2918	-0.135	-0.3347	
-0.880962	0.38735	0.284504	11.55	3.78	31.99	0.2963	-0.1445	-0.345	
-0.885964	0.405894	0.287798	14.77	3.01	31.99	0.2904	-0.1461	-0.3552	
-0.864736	0.382836	0.272548	15.82	3.15	37.45	0.295	-0.1556	-0.3538	
-0.885354	0.417728	0.273768	16.66	5.81	37.94	0.2861	-0.1633	-0.3568	
-0.865712	0.447252	0.264862	17.29	6.02	38.22	0.2891	-0.1601	-0.3452	
-0.85644	0.469944	0.267424	14.91	7.49	39.97	0.2878	-0.1741	-0.3395	
-0.847534	0.481534	0.268034	13.72	8.19	42.63	0.2894	-0.1835	-0.3439	
-0.815692	0.482388	0.25864	11.55	8.19	43.54	0.2789	-0.1803	-0.3483	
-0.832894	0.503006	0.255346	11.76	9.31	42.77	0.2775	-0.1834	-0.3513	
-0.810446	0.524356	0.252296	10.64	6.44	42.14	0.2747	-0.1957	-0.3339	
-0.819718	0.53497	0.24888	9.31	5.74	43.33	0.2807	-0.1958	-0.3397	
-0.835822	0.549976	0.24827	5.11	5.95	39.48	0.2734	-0.2082	-0.3312	
-0.80032	0.563518	0.240218	11.97	-2.24	42.77	0.2748	-0.2051	-0.337	
-0.798734	0.566446	0.226188	7.91	1.19	41.44	0.2662	-0.2237	-0.3284	
-0.794464	0.588894	0.235216	7.42	0.84	39.69	0.2676	-0.2222	-0.3328	
-0.806786	0.621224	0.242048	5.81	2.66	34.79	0.2632	-0.2268	-0.3314	
-0.816546	0.62464	0.22936	3.15	2.45	31.5	0.2661	-0.2205	-0.3299	
-0.787754	0.635742	0.211914	2.73	0.35	29.4	0.2604	-0.2362	-0.3344	
-0.781288	0.64782	0.211304	3.64	-0.42	30.45	0.2604	-0.2329	-0.3271	
-0.766038	0.615246	0.211914	1.89	-0.49	28.84	0.2559	-0.2376	-0.3301	
-0.765428	0.6222	0.206302	8.82	-0.7	27.09	0.2516	-0.2453	-0.3258	
-0.753472	0.62586	0.206546	10.64	-0.07	24.43	0.2589	-0.2409	-0.3403	
-0.737734	0.629032	0.206058	10.01	0.42	25.06	0.2486	-0.2438	-0.3331	
-0.739808	0.64294	0.198128	10.71	1.19	25.62	0.2413	-0.2547	-0.3347	
-0.730902	0.650016	0.204228	9.52	1.96	24.29	0.2309	-0.2528	-0.3216	
-0.729682	0.655506	0.213988	0.07	5.46	22.96	0.2518	-0.2593	-0.3216	
-0.710162	0.657824	0.213622	3.15	1.33	21.56	0.2339	-0.256	-0.3274	
-1.00528	0.583526	0.266082	-67.27	-5.39	-71.4	0.2399	-0.2623	-0.3246	
-0.727364	0.614636	0.188734	26.46	-6.93	12.46	0.2517	-0.2532	-0.3303	
-0.705282	0.690276	0.235582	5.11	-7.28	17.08	0.2414	-0.2577	-0.3245	
-0.730414	0.665754	0.222894	7.28	1.05	19.74	0.2474	-0.2624	-0.3231	
-0.715408	0.68198	0.225822	6.93	-5.81	14.98	0.2384	-0.2576	-0.3231	
-0.710406	0.675392	0.232044	4.13	-2.59	14.42	0.234	-0.2607	-0.326	
-0.724802	0.685518	0.222406	1.19	-0.63	12.32	0.2326	-0.2652	-0.3144	
-0.71187	0.698084	0.22448	3.01	-3.15	9.59	0.2311	-0.2732	-0.3291	
-0.71004	0.702232	0.230458	-1.96	-1.33	7.91	0.2236	-0.2685	-0.3363	
-0.704428	0.694058	0.225212	-1.82	-1.61	5.32	0.2208	-0.2761	-0.3204	
-0.706136	0.6954	0.228262	-2.45	-1.75	4.2	0.2178	-0.273	-0.3277	
-0.7015	0.684786	0.228872	-2.31	-1.47	2.66	0.2325	-0.267	-0.329	
-0.705404	0.684664	0.221186	-1.96	-0.42	1.47	0.2207	-0.2699	-0.3262	
-0.695522	0.689056	0.220454	0	-2.03	0.91	0.2235	-0.2575	-0.3289	
-0.68564	0.686372	0.223626	0.42	-1.47	-0.07	0.2267	-0.2732	-0.332	
-0.690886	0.68381	0.222406	0.14	0.07	-0.56	0.2177	-0.2668	-0.3305	
-0.69296	0.690398	0.229238	0.35	0.35	-1.61	0.2266	-0.2732	-0.3378	
-0.702842	0.67161	0.234972	0.07	1.33	-2.87	0.2296	-0.267	-0.3334	
-0.706624	0.688812	0.238388	0.49	0.98	-3.57	0.2193	-0.2777	-0.3277	
-0.694912	0.687958	0.237046	-0.21	0.35	-4.27	0.2238	-0.2794	-0.3306	
-0.705648	0.678076	0.242048	-0.49	0.56	-5.25	0.2251	-0.2685	-0.332	
-0.70333	0.676124	0.238998	-2.1	0.42	-6.51	0.228	-0.2607	-0.3348	
-0.71065	0.670756	0.2379	-1.96	0.91	-8.05	0.2266	-0.2653	-0.329	
-0.711504	0.662826	0.235338	-1.26	1.4	-9.52	0.2414	-0.264	-0.3333	
-0.710528	0.662094	0.228994	-1.05	2.1	-11.06	0.2295	-0.2592	-0.3318	
-0.704306	0.665388	0.231068	-2.1	3.01	-12.67	0.2399	-0.2623	-0.3231	
-0.70699	0.6527	0.237534	-4.13	3.78	-14.98	0.2339	-0.256	-0.3274	
-0.723338	0.648918	0.239242	-4.27	4.48	-17.64	0.2399	-0.2592	-0.3274	
-0.732854	0.646722	0.241682	-4.69	5.39	-19.6	0.2413	-0.2578	-0.3362	
-0.737246	0.639158	0.23851	-4.83	5.53	-21.35	0.2473	-0.2595	-0.3376	
-0.735538	0.629276	0.235582	-5.11	5.81	-22.68	0.2398	-0.2531	-0.3347	
-0.744444	0.62403	0.239608	-7.56	6.86	-23.66	0.2413	-0.2594	-0.3405	
-0.752252	0.615612	0.239486	-10.01	7.07	-25.27	0.2471	-0.2422	-0.336	
-0.757742	0.615124	0.239486	-7.56	5.88	-26.32	0.2575	-0.2424	-0.3389	
-0.764086	0.614514	0.230458	-9.66	6.37	-27.23	0.262	-0.2439	-0.3287	
-0.764208	0.594262	0.225578	-9.03	6.72	-28.63	0.2603	-0.2346	-0.3359	
-0.775676	0.584868	0.23912	-9.38	7.63	-29.82	0.2633	-0.23	-0.3373	
-0.791414	0.570838	0.245098	-9.24	7.56	-31.01	0.2707	-0.2331	-0.3329	
-0.809104	0.569862	0.234118	-9.8	6.65	-31.78	0.2617	-0.2205	-0.3342	
-0.79971	0.564372	0.239242	-12.25	6.58	-32.34	0.2751	-0.2238	-0.327	
-0.806298	0.566812	0.230946	-11.97	5.81	-32.55	0.272	-0.2176	-0.3385	
-0.796172	0.553392	0.234728	-10.29	4.97	-34.16	0.2764	-0.2114	-0.3399	
-0.823378	0.551928	0.243512	-8.33	6.3	-34.58	0.2703	-0.1987	-0.3296	
-0.819596	0.531676	0.237046	-9.31	5.46	-36.19	0.2867	-0.199	-0.331	
-0.831674	0.508008	0.232776	-9.73	5.6	-36.89	0.2881	-0.1959	-0.3354	
-0.846192	0.499346	0.237534	-9.24	6.72	-36.4	0.2865	-0.1849	-0.3367	
-0.84973	0.495686	0.232654	-7.49	5.6	-38.08	0.2894	-0.1819	-0.3425	
-0.854366	0.48617	0.238266	-7.98	6.86	-39.9	0.2983	-0.1819	-0.3323	
-0.864126	0.474458	0.231922	-6.51	6.65	-39.06	0.2938	-0.1772	-0.3322	
-0.859002	0.478606	0.232654	-6.3	7.42	-39.76	0.3041	-0.1743	-0.3438	
-0.877058	0.460184	0.227896	-9.03	7.28	-41.79	0.304	-0.1618	-0.3408	
-0.872178	0.432246	0.229604	-8.12	5.95	-42.56	0.304	-0.1666	-0.3495	
-0.88389	0.434686	0.218624	-5.95	6.3	-42.21	0.3026	-0.168	-0.3379	
-0.879498	0.419558	0.232044	-4.55	5.6	-44.31	0.3231	-0.1433	-0.3391	
-0.903044	0.395402	0.233874	-4.62	5.81	-43.75	0.32	-0.1322	-0.3346	
-0.90402	0.366	0.223992	-3.29	4.27	-45.43	0.323	-0.1385	-0.3332	
-0.917074	0.365268	0.22814	-1.61	3.64	-48.16	0.32	-0.1322	-0.3331	
-0.9333	0.341356	0.23119	1.05	4.34	-49.35	0.3288	-0.1215	-0.3388	
-0.929274	0.320128	0.222406	7.28	1.89	-44.52	0.3272	-0.1151	-0.3344	
-0.959164	0.32879	0.201544	5.46	5.6	-44.38	0.333	-0.1058	-0.3299	
-0.94489	0.307806	0.210206	-2.03	4.13	-45.5	0.3391	-0.12	-0.3359	
-0.946964	0.291092	0.206058	-1.82	5.11	-45.29	0.3271	-0.1073	-0.3343	
-0.95038	0.275964	0.210084	-4.76	6.65	-46.48	0.3359	-0.1012	-0.3357	
-0.955992	0.257176	0.210572	-6.58	6.16	-45.36	0.3418	-0.095	-0.337	
-0.944524	0.232654	0.188856	-5.67	5.25	-48.58	0.349	-0.0748	-0.3339	
-0.966728	0.2135	0.199226	-9.03	7	-46.55	0.346	-0.0714	-0.3193	
-0.959896	0.19703	0.194956	-8.33	8.54	-46.69	0.3446	-0.0762	-0.3266	
-0.973316	0.17995	0.193614	-8.4	7.91	-44.94	0.3414	-0.0652	-0.3294	
-0.97905	0.156038	0.191906	-7.84	9.17	-43.61	0.3578	-0.0685	-0.3251	
-0.980148	0.160552	0.187758	-6.72	7.7	-42.63	0.3606	-0.0561	-0.3293	
-0.995398	0.144204	0.190076	-10.71	9.52	-42.49	0.3546	-0.0451	-0.3321	
-0.99064	0.111508	0.196908	-11.76	9.03	-40.74	0.3574	-0.0373	-0.3291	
-0.98271	0.09272	0.182512	-10.08	8.75	-40.53	0.3603	-0.0263	-0.3144	
-0.993324	0.086742	0.189222	-10.01	8.61	-40.74	0.3602	-0.0217	-0.326	
-0.994666	0.077714	0.193248	-9.8	9.73	-40.53	0.3706	-0.0172	-0.3274	
-0.992226	0.062708	0.195566	-9.03	8.68	-38.92	0.3631	-0.0107	-0.3157	
-0.997838	0.04209	0.196542	-12.81	8.68	-37.8	0.3599	0.0048	-0.3228	
-1.000766	0.024522	0.18971	-15.96	8.61	-36.82	0.3613	0.007999999	-0.3199	
-0.99918	0.01037	0.19032	-13.02	5.67	-35.21	0.3643	0.011	-0.3213	
-0.99735	-0.00488	0.190076	-14.84	4.62	-35.14	0.3656	0.0204	-0.3168	
-0.994666	-0.016226	0.19337	-16.1	4.62	-34.51	0.3701	0.0236	-0.3095	
-0.998692	-0.030012	0.193736	-15.19	3.57	-32.62	0.3625	0.0314	-0.3153	
-0.998692	-0.040626	0.20008	-13.93	2.24	-30.8	0.3654	0.0376	-0.3181	
-0.997472	-0.04636	0.205326	-14.28	0.77	-30.03	0.3595	0.0393	-0.3181	
-0.990152	-0.058072	0.20679	-14.56	-1.19	-28.98	0.3565	0.0346	-0.3167	
-0.981856	-0.063806	0.19276	-13.3	-3.08	-28.49	0.3638	0.0502	-0.3151	
-0.981978	-0.089426	0.193736	-16.52	-3.78	-28.77	0.3608	0.0487	-0.3136	
-0.970144	-0.1098	0.189832	-16.59	-2.31	-30.31	0.3622	0.0581	-0.3121	
-0.96197	-0.124074	0.18239	-19.18	-0.77	-31.99	0.3562	0.0643	-0.3164	
-0.976122	-0.142618	0.193492	-19.6	1.05	-31.29	0.3635	0.0752	-0.3177	
-0.969412	-0.146522	0.192516	-22.4	2.1	-33.18	0.3575	0.0768	-0.3148	
-0.975634	-0.175924	0.207034	-21.35	1.47	-34.3	0.3662	0.0922	-0.3248	
-0.96746	-0.166164	0.185562	-16.87	1.96	-35.63	0.3542	0.1019	-0.3116	
-0.976732	-0.166042	0.196542	-17.08	2.8	-38.01	0.3482	0.1098	-0.3145	
-0.982466	-0.178608	0.189222	-11.97	2.66	-36.47	0.3497	0.1082	-0.3145	
-0.974292	-0.188246	0.181292	-15.96	3.01	-36.4	0.3555	0.116	-0.31	
-0.986126	-0.199226	0.18666	-16.45	3.64	-36.54	0.345	0.124	-0.3071	
-0.970022	-0.228506	0.186538	-15.05	2.52	-35.49	0.3539	0.1254	-0.3143	
-0.970144	-0.226798	0.189832	-11.83	3.01	-32.55	0.3495	0.1238	-0.3172	
-0.995154	-0.224846	0.19703	-12.53	4.76	-30.1	0.3492	0.1426	-0.3112	
-0.989054	-0.238632	0.203374	-11.97	1.19	-26.46	0.3508	0.1411	-0.3039	
-0.989176	-0.256078	0.194102	-8.33	0	-24.36	0.3479	0.1365	-0.2996	
-0.988688	-0.280478	0.183122	-6.72	-1.82	-20.86	0.3521	0.1535	-0.3125	
-0.986736	-0.287676	0.18361	-3.22	-4.9	-17.85	0.3387	0.1491	-0.3097	
-0.969412	-0.295606	0.175314	-2.73	-6.93	-18.06	0.3625	0.1534	-0.311	
-0.97966	-0.306586	0.183976	-2.45	-7.91	-16.45	0.3401	0.1632	-0.3052	
-0.970998	-0.30439	0.180926	-3.64	-9.45	-16.45	0.3402	0.1537	-0.3082	
-0.956724	-0.296094	0.186294	-3.57	-9.87	-15.12	0.3489	0.1645	-0.3153	
-0.938302	-0.29951	0.192272	-4.13	-10.15	-14.7	0.3401	0.1615	-0.311	
-0.920002	-0.300608	0.168604	-1.26	-12.81	-15.4	0.331	0.1725	-0.3153	
-0.929884	-0.298656	0.19337	-2.17	-10.71	-16.03	0.3354	0.1724	-0.3269	
-0.909266	-0.314028	0.193248	-4.48	-10.99	-17.22	0.334	0.1709	-0.3197	
-0.908412	-0.290116	0.16775	-2.31	-9.73	-18.9	0.3309	0.1818	-0.3225	
-0.902922	-0.321592	0.179218	-6.58	-7.42	-18.97	0.328	0.1757	-0.3196	
-0.891088	-0.332816	0.167994	-6.3	-4.27	-19.39	0.322	0.1773	-0.3167	
-0.914024	-0.335134	0.190076	-6.58	-1.82	-21.49	0.3294	0.1835	-0.3152	
-0.908168	-0.3355	0.19154	-5.88	-0.84	-23.24	0.3159	0.1899	-0.3166	
-0.917562	-0.353556	0.195322	-7.35	0.14	-23.73	0.3129	0.1884	-0.321	
-0.919148	-0.36539	0.185684	-4.69	2.17	-23.24	0.3158	0.1961	-0.3195	
-0.921344	-0.36966	0.182024	-5.04	4.83	-23.1	0.3159	0.1884	-0.3094	
-0.939034	-0.377834	0.189466	-4.9	6.72	-21.21	0.3261	0.2023	-0.3165	
-0.950746	-0.369172	0.17995	-2.73	7.14	-18.97	0.3143	0.2041	-0.3106	
-0.959652	-0.384056	0.179096	-4.48	7.28	-16.59	0.3157	0.204	-0.3194	
-0.95587	-0.401868	0.169336	-3.85	6.65	-15.96	0.3172	0.2055	-0.3164	
-0.95892	-0.409066	0.165798	-4.9	6.72	-13.86	0.3127	0.2103	-0.3179	
-0.94245	-0.401136	0.17202	-2.87	5.11	-12.11	0.3186	0.2103	-0.312	
-0.919026	-0.409798	0.167018	-3.36	3.85	-9.87	0.3141	0.2119	-0.3149	
-0.91683	-0.411506	0.162992	-5.25	4.97	-8.54	0.3186	0.2134	-0.3134	
-0.907436	-0.418826	0.17568	-6.37	4.06	-8.47	0.3111	0.2199	-0.3018	
-0.903654	-0.416752	0.160186	-5.32	2.03	-8.19	0.3186	0.2166	-0.3076	
-0.901092	-0.417728	0.167628	-5.04	0.91	-7.42	0.3141	0.215	-0.3134	
-0.894748	-0.428952	0.159088	-5.18	2.24	-7.14	0.3036	0.2231	-0.3047	
-0.880596	-0.428098	0.154086	-5.04	1.26	-8.75	0.3097	0.2089	-0.3048	
-0.890844	-0.429562	0.164822	-6.16	0.56	-9.87	0.314	0.2229	-0.3061	
-0.878888	-0.42578	0.160186	-6.23	1.19	-10.57	0.3185	0.2211	-0.3177	
-0.888892	-0.434808	0.169214	-7.84	1.68	-10.5	0.3036	0.2278	-0.3017	
-0.89609	-0.431514	0.163602	-5.74	0.91	-10.99	0.3065	0.2308	-0.3075	
-0.898042	-0.437736	0.163846	-5.04	1.05	-10.64	0.3021	0.2247	-0.2988	
-0.899994	-0.446764	0.176534	-4.41	1.82	-9.66	0.3035	0.2325	-0.2987	
-0.905972	-0.45689	0.171166	-3.29	1.96	-9.24	0.305	0.2356	-0.2987	
-0.912926	-0.452254	0.168238	-1.05	1.75	-8.19	0.302	0.2372	-0.3031	
-0.911584	-0.44591	0.164944	0.56	0.14	-6.44	0.2975	0.2372	-0.3089	
-0.912926	-0.453108	0.1586	-0.14	0.49	-5.32	0.3006	0.231	-0.2959	
-0.918294	-0.453596	0.15067	-1.33	1.82	-3.15	0.308	0.2324	-0.3002	
-0.90951	-0.449448	0.158844	-1.54	1.12	-1.47	0.3095	0.2293	-0.3017	
-0.903776	-0.451156	0.151158	-1.47	1.47	0	0.3035	0.2356	-0.3016	
-0.902068	-0.44835	0.149572	-1.12	1.68	1.26	0.2991	0.231	-0.2973	
-0.902068	-0.451644	0.150792	-0.7	1.82	2.8	0.302	0.2356	-0.3031	
-0.892186	-0.46543	0.14762	0.07	1.89	3.78	0.302	0.2372	-0.3031	
-0.890844	-0.472628	0.15128	0.07	2.24	4.69	0.3109	0.2355	-0.2987	
-0.894626	-0.460672	0.1403	1.54	1.4	5.18	0.302	0.234	-0.306	
-0.889746	-0.470798	0.15433	1.12	0.84	5.46	0.296	0.2341	-0.3046	
-0.893406	-0.466284	0.15006	1.61	1.26	5.88	0.305	0.234	-0.3045	
-0.891942	-0.45872	0.15067	2.52	0.49	5.67	0.3021	0.2278	-0.3017	
-0.895846	-0.451766	0.155428	3.22	0.21	6.09	0.3064	0.2387	-0.3016	
-0.894748	-0.453596	0.155306	3.15	0.07	6.86	0.3065	0.234	-0.3031	
-0.898408	-0.444324	0.154086	3.15	-0.28	7.84	0.3066	0.2215	-0.3032	
-0.899994	-0.446032	0.15433	3.22	-0.77	8.54	0.3064	0.2356	-0.2987	
-0.907314	-0.450058	0.16104	2.8	0	9.87	0.3035	0.2325	-0.3002	
-0.906948	-0.4514	0.156892	3.29	-0.21	11.41	0.3036	0.2215	-0.3076	
-0.907924	-0.449204	0.160796	4.27	-0.07	13.09	0.3156	0.2135	-0.3018	
-0.90524	-0.432002	0.159942	5.39	-0.84	14.77	0.3007	0.2216	-0.3018	
-0.914756	-0.42395	0.162626	6.51	-1.05	18.2	0.3096	0.223	-0.3032	
-0.928298	-0.421388	0.165676	7.07	-1.61	20.93	0.32	0.2196	-0.3105	
-0.91927	-0.41602	0.158844	8.33	-1.96	23.31	0.3171	0.2149	-0.3207	
-0.922564	-0.409676	0.16958	10.43	-3.15	25.69	0.3158	0.201	-0.3034	
-0.921344	-0.40016	0.171776	11.48	-2.87	28.07	0.3173	0.1963	-0.302	
-0.91988	-0.385398	0.177144	11.41	-3.22	29.68	0.3188	0.1978	-0.3063	
-0.922198	-0.378566	0.171776	11.76	-3.22	31.01	0.3232	0.1992	-0.3136	
-0.924394	-0.367586	0.183732	12.88	-3.85	32.62	0.3219	0.1868	-0.3108	
-0.915732	-0.353678	0.182756	13.72	-3.5	33.88	0.3279	0.1835	-0.3152	
-0.913902	-0.332084	0.176534	13.09	-2.8	35.21	0.3234	0.1867	-0.3123	
-0.919514	-0.327448	0.188856	10.92	-1.96	36.4	0.3355	0.1742	-0.3051	
-0.918782	-0.310612	0.181048	10.29	-0.77	37.45	0.3339	0.1772	-0.3123	
-0.92964	-0.300242	0.175802	10.71	-0.77	37.73	0.3251	0.1711	-0.3081	
-0.942816	-0.295728	0.183122	10.29	-0.7	38.85	0.3341	0.1647	-0.3139	
-0.950624	-0.283528	0.178486	11.27	-0.56	39.48	0.3431	0.1599	-0.3125	
-0.960872	-0.277794	0.18361	10.5	-0.98	39.9	0.3432	0.1505	-0.3111	
-0.967216	-0.266204	0.187636	11.2	-1.54	40.18	0.3417	0.1458	-0.3141	
-0.970388	-0.243512	0.177266	12.95	-2.17	40.46	0.3434	0.1333	-0.3171	
-0.96502	-0.21655	0.175314	16.17	-3.92	41.3	0.3435	0.127	-0.3172	
-0.970144	-0.1952	0.181536	16.1	-4.27	41.23	0.345	0.1207	-0.3216	
-0.966972	-0.172264	0.179828	16.8	-4.06	40.74	0.3406	0.1177	-0.3173	
-0.96868	-0.146766	0.167262	16.38	-4.48	40.32	0.3422	0.1083	-0.316	
-0.972462	-0.133224	0.20191	11.55	-3.92	41.51	0.3498	0.09559999	-0.3219	
-0.97356	-0.118462	0.194956	9.03	-4.2	41.3	0.3395	0.0911	-0.3191	
-0.979782	-0.114192	0.21228	6.51	-4.2	41.44	0.3574	0.0861	-0.322	
-0.977464	-0.096258	0.201056	6.16	-5.53	40.39	0.3603	0.0829	-0.3307	
-0.975634	-0.082716	0.207034	4.48	-4.2	40.04	0.3545	0.0783	-0.3279	
-0.97478	-0.065148	0.187148	5.39	-4.27	40.25	0.3621	0.0658	-0.3178	
-0.986004	-0.059902	0.214842	2.45	0.21	40.53	0.3517	0.0659	-0.3193	
-0.986614	-0.049898	0.221674	0.77	4.2	40.6	0.3472	0.0659	-0.3251	
-0.986492	-0.026962	0.212524	0.42	4.76	38.99	0.3517	0.0612	-0.3266	
-0.986614	-0.014396	0.21045	0.63	4.83	37.94	0.3594	0.0471	-0.3166	
-0.989664	-0.004636	0.210816	3.5	5.25	36.96	0.3624	0.0408	-0.3195	
-0.986126	0.01098	0.200934	6.02	6.3	37.24	0.3535	0.0362	-0.3196	
-0.991738	0.02623	0.197884	7.77	6.65	37.45	0.358	0.0345	-0.324	
-0.98332	0.047458	0.18483	11.55	6.02	37.1	0.3611	0.0267	-0.3226	
-0.988078	0.058316	0.192638	12.88	7.63	37.03	0.3628	0.0126	-0.3198	
-0.984784	0.072102	0.189588	12.39	8.26	38.08	0.3747	0.0126	-0.3125	
-0.97905	0.07869	0.184464	10.43	8.12	38.92	0.3644	0.0002	-0.3069	
-0.987102	0.094306	0.197274	11.13	7.21	38.99	0.372	-0.0092	-0.3113	
-0.989786	0.123586	0.192516	13.02	5.53	38.08	0.369	-0.0092	-0.3128	
-0.993812	0.146156	0.186904	11.83	3.57	35.35	0.378	-0.0187	-0.3187	
-0.981002	0.149084	0.17995	10.36	2.52	34.37	0.3662	-0.0249	-0.3289	
-1.004426	0.173484	0.181292	8.89	3.29	32.06	0.3618	-0.0263	-0.3144	
-1.00894	0.157502	0.178364	4.34	3.15	30.52	0.356	-0.034	-0.3131	
-1.00528	0.133712	0.17446	3.01	3.22	31.99	0.3604	-0.0309	-0.3116	
-0.994544	0.158722	0.162626	6.02	2.38	30.24	0.362	-0.0388	-0.316	
-0.988322	0.179218	0.15433	8.96	0.14	29.12	0.3694	-0.0357	-0.3087	
-0.985516	0.18849	0.161772	12.25	-0.42	27.86	0.371	-0.0483	-0.3161	
-0.98698	0.204472	0.165798	13.23	-2.17	26.81	0.3696	-0.0497	-0.3045	
-0.978562	0.213622	0.160918	13.09	-3.36	26.46	0.3682	-0.0592	-0.3148	
-0.975756	0.229238	0.159454	10.99	-3.22	25.76	0.3756	-0.0576	-0.3031	
-0.974292	0.23729	0.161406	8.47	-2.8	26.04	0.3669	-0.0716	-0.3091	
-0.973316	0.264496	0.16409	10.5	-3.36	25.97	0.3609	-0.0716	-0.3164	
-0.965264	0.273158	0.170556	7.84	-3.01	27.02	0.361	-0.0825	-0.315	
-0.958798	0.281088	0.168726	7.98	-2.87	28.84	0.3536	-0.0839	-0.3063	
-0.953064	0.282674	0.172752	6.86	-3.29	29.75	0.3671	-0.0904	-0.3107	
-0.948428	0.278648	0.173484	5.53	-2.73	30.17	0.3582	-0.0903	-0.3122	
-0.94245	0.286212	0.176168	5.95	-2.59	29.96	0.3582	-0.0902	-0.3049	
-0.945866	0.294264	0.180682	4.62	-1.68	29.82	0.3599	-0.1059	-0.3124	
-0.935618	0.303048	0.17507	4.34	-2.03	30.66	0.3644	-0.1074	-0.3022	
-0.934276	0.314882	0.17812	4.62	-2.03	31.29	0.345	-0.1088	-0.3037	
-0.93208	0.320494	0.181048	5.6	-2.52	31.57	0.3495	-0.1137	-0.3154	
-0.926468	0.332084	0.181292	8.47	-3.22	32.13	0.3467	-0.1245	-0.3068	
-0.924394	0.34282	0.184708	10.71	-3.78	32.34	0.3497	-0.123	-0.3082	
-0.915244	0.36112	0.177266	11.55	-3.64	31.85	0.3438	-0.1291	-0.3098	
-0.914756	0.3721	0.178608	12.74	-3.85	31.57	0.3497	-0.1261	-0.3126	
-0.913536	0.393816	0.179218	10.78	-2.38	31.43	0.3557	-0.134	-0.3141	
-0.918172	0.387594	0.184098	8.82	-0.91	32.55	0.3454	-0.137	-0.3098	
-0.909998	0.408212	0.17385	8.54	-1.05	31.78	0.3322	-0.1508	-0.2998	
-0.909022	0.421632	0.180926	9.66	-0.49	29.33	0.3352	-0.154	-0.31	
-0.900482	0.438224	0.180682	10.43	-1.19	30.03	0.3412	-0.162	-0.313	
-0.89121	0.45811	0.175436	8.75	-1.61	28.21	0.3295	-0.171	-0.2972	
-0.873398	0.472994	0.162748	8.47	-2.38	29.47	0.3325	-0.1743	-0.3074	
-0.879132	0.473604	0.155672	5.18	-1.68	28.21	0.3206	-0.1725	-0.3045	
-0.885842	0.461648	0.152622	3.99	-1.96	29.12	0.3237	-0.1803	-0.3002	
-0.866932	0.468602	0.15433	7	-4.69	22.54	0.3235	-0.171	-0.3059	
-0.88145	0.491904	0.16714	5.81	-0.49	32.27	0.3104	-0.1865	-0.3076	
-0.880108	0.507764	0.161406	1.05	0.28	33.88	0.3236	-0.1788	-0.306	
-0.863516	0.530334	0.14945	-0.84	-1.05	31.36	0.3164	-0.1912	-0.2974	
-0.860222	0.512522	0.146278	-0.7	-0.21	36.68	0.3091	-0.1989	-0.2975	
-0.83387	0.517036	0.149938	2.38	-3.78	37.59	0.312	-0.2005	-0.3033	
-0.839238	0.512888	0.149084	1.33	-1.96	38.99	0.3121	-0.2005	-0.2961	
-0.825452	0.526796	0.155672	1.61	-1.61	36.26	0.3091	-0.2051	-0.299	
-0.841312	0.546072	0.161162	5.18	-1.75	36.61	0.2972	-0.2035	-0.3063	
-0.833748	0.559614	0.159698	2.31	-3.22	34.51	0.299	-0.2284	-0.2979	
-0.810202	0.577426	0.139324	4.48	-3.71	37.24	0.293	-0.2237	-0.2993	
-0.80154	0.597556	0.149816	5.53	-3.64	35.35	0.293	-0.2221	-0.3007	
-0.777506	0.621834	0.158966	9.45	-6.93	34.3	0.2901	-0.2299	-0.2994	
-0.775188	0.63684	0.156038	10.43	-7.42	33.39	0.2857	-0.2347	-0.3111	
-0.752496	0.645868	0.158112	7.49	-7.35	31.43	0.2828	-0.2392	-0.2995	
-0.761646	0.637816	0.17507	4.13	-3.99	30.66	0.2814	-0.2423	-0.3039	
-0.74908	0.640256	0.164822	3.29	-4.06	29.19	0.277	-0.2486	-0.3069	
-0.75823	0.655506	0.166286	7.77	-4.13	29.61	0.2757	-0.2625	-0.2954	
-0.729926	0.683444	0.155428	3.64	-5.25	27.72	0.2712	-0.2561	-0.2895	
-0.726266	0.701378	0.15982	4.83	-4.62	26.53	0.2698	-0.2623	-0.2881	
-0.713456	0.685884	0.168482	1.68	-3.57	25.83	0.2667	-0.2609	-0.3085	
-0.714432	0.677466	0.165676	1.96	-2.38	25.48	0.2713	-0.2671	-0.2984	
-0.7076	0.674538	0.169702	-0.7	0	23.03	0.2639	-0.2733	-0.3013	
-0.70638	0.678808	0.167262	-0.14	-0.63	20.72	0.2654	-0.2703	-0.3057	
-0.697962	0.693936	0.165798	-1.47	-0.98	17.64	0.2505	-0.2685	-0.3057	
-0.648674	0.767258	0.116998	-11.48	-0.35	6.3	0.2578	-0.2639	-0.3042	
-0.752008	0.601216	0.238998	-42.49	5.32	-13.79	0.2595	-0.2749	-0.3072	
-0.746518	0.642574	0.171044	-8.82	2.52	8.05	0.255	-0.2717	-0.3057	
-0.723582	0.680272	0.183976	-1.12	-5.6	12.74	0.2446	-0.2748	-0.316	
-0.717604	0.703086	0.161894	0.84	-5.18	13.09	0.2505	-0.2701	-0.3072	
-0.710284	0.696742	0.16836	0.14	-4.41	12.46	0.2505	-0.2733	-0.313	
-0.725412	0.700158	0.168116	-0.35	-3.08	10.5	0.2401	-0.2747	-0.3087	
-0.71004	0.71492	0.16226	-1.4	-1.89	7.84	0.2506	-0.2747	-0.3029	
-0.707966	0.71614	0.163968	-0.84	-1.96	6.37	0.2416	-0.2747	-0.3145	
-0.703574	0.708454	0.167384	-0.42	-1.05	5.53	0.2489	-0.2655	-0.3159	
-0.701744	0.712602	0.174582	0.07	0.07	3.99	0.2417	-0.281	-0.3175	
-0.69296	0.710162	0.179706	-0.28	0.42	2.45	0.2417	-0.2778	-0.3102	
-0.702842	0.70272	0.174216	-1.68	0.49	1.19	0.2431	-0.2731	-0.3072	
-0.70577	0.70516	0.179706	-2.17	0.84	-0.35	0.243	-0.2701	-0.3145	
-0.697718	0.702232	0.179096	-1.82	0.21	-0.98	0.2386	-0.2715	-0.3116	
-0.696864	0.707234	0.176778	-1.4	0.42	-1.19	0.2491	-0.2747	-0.3029	
-0.687958	0.710162	0.18605	-2.24	0.35	-1.96	0.2416	-0.2762	-0.3058	
-0.68625	0.709064	0.187148	-2.24	0	-2.73	0.2565	-0.2748	-0.3043	
-0.689544	0.693082	0.19154	-3.36	0.91	-3.01	0.249	-0.2716	-0.3072	
-0.693936	0.691374	0.191906	-3.92	1.26	-4.34	0.2504	-0.2654	-0.31	
-0.691374	0.69662	0.193858	-3.29	1.68	-5.18	0.2475	-0.2684	-0.3028	
-0.686616	0.699914	0.19215	-1.75	1.26	-5.6	0.246	-0.2717	-0.313	
-0.695522	0.697962	0.196908	-0.7	1.05	-5.88	0.2535	-0.2732	-0.3014	
-0.697352	0.691374	0.19459	-0.56	0.98	-6.23	0.2371	-0.2716	-0.316	
-0.70028	0.69357	0.192516	0.14	0.7	-6.51	0.2445	-0.2701	-0.3174	
-0.700768	0.695644	0.195566	-0.56	0.21	-7.42	0.249	-0.2686	-0.313	
-0.70516	0.688812	0.19093	-0.77	0.49	-7.84	0.2548	-0.2593	-0.3158	
-0.705282	0.694546	0.194102	-0.91	0.21	-8.75	0.2504	-0.2671	-0.3173	
-0.706868	0.680272	0.191906	-0.49	0.21	-9.17	0.2519	-0.2655	-0.3144	
-0.716628	0.6771	0.193248	0.7	-0.07	-10.22	0.2547	-0.2561	-0.3128	
-0.717116	0.675758	0.180316	-0.7	0.91	-10.29	0.2564	-0.2686	-0.3057	
-0.717116	0.673074	0.186904	-1.4	1.26	-10.57	0.2623	-0.2639	-0.3013	
-0.72529	0.67161	0.188856	-1.4	1.33	-10.85	0.2534	-0.2607	-0.3012	
-0.728462	0.66978	0.184586	-0.98	1.61	-11.48	0.2564	-0.2671	-0.3115	
-0.73932	0.671122	0.183244	-0.28	1.4	-12.04	0.2533	-0.2545	-0.3099	
-0.74298	0.667096	0.189832	-0.77	1.82	-13.16	0.2578	-0.2593	-0.3129	
-0.748958	0.666608	0.186172	-1.33	2.1	-14.35	0.2622	-0.253	-0.3026	
-0.74603	0.656116	0.189222	-3.01	2.17	-15.75	0.2547	-0.2562	-0.3143	
-0.759206	0.658556	0.181414	-2.45	2.03	-17.78	0.2666	-0.2516	-0.3069	
-0.752374	0.652822	0.183122	-3.64	1.54	-19.04	0.2755	-0.2532	-0.3055	
-0.75091	0.637328	0.184708	-3.92	1.19	-20.09	0.2636	-0.2468	-0.3025	
-0.757742	0.62708	0.189588	-2.94	1.26	-21.49	0.2785	-0.2502	-0.3127	
-0.75762	0.62037	0.178852	-2.17	1.47	-22.54	0.2755	-0.247	-0.3098	
-0.757742	0.611708	0.180804	-2.17	1.33	-24.01	0.2783	-0.2408	-0.3126	
-0.776042	0.619272	0.181292	-0.91	2.17	-25.13	0.2768	-0.2394	-0.3228	
-0.773968	0.625128	0.18483	-1.33	2.31	-25.62	0.2754	-0.2423	-0.3097	
-0.774212	0.615002	0.187514	-4.2	2.17	-26.25	0.2857	-0.2316	-0.3125	
-0.787266	0.612806	0.18666	-3.36	2.1	-26.81	0.2857	-0.2363	-0.3154	
-0.793	0.601582	0.185928	-3.99	1.75	-28.35	0.2856	-0.23	-0.3139	
-0.792756	0.603168	0.174948	3.85	1.89	-26.39	0.2856	-0.2284	-0.3066	
-0.798612	0.59536	0.183	-5.53	1.82	-29.19	0.2945	-0.2238	-0.3095	
-0.79422	0.582062	0.17385	-5.04	3.01	-28.91	0.3003	-0.2161	-0.3094	
-0.807518	0.572058	0.179096	-4.48	3.36	-29.89	0.2972	-0.2083	-0.3136	
-0.812886	0.566446	0.184708	-2.73	2.38	-31.64	0.3033	-0.2146	-0.3137	
-0.812886	0.556686	0.173972	-4.9	4.06	-32.9	0.3018	-0.213	-0.3137	
-0.825818	0.5368	0.175314	-6.51	5.32	-33.67	0.3031	-0.2037	-0.3136	
-0.8357	0.534238	0.180194	-7.56	5.46	-35.28	0.3075	-0.2006	-0.3135	
-0.844606	0.518378	0.180072	-9.17	4.9	-37.59	0.3104	-0.1913	-0.3178	
-0.85278	0.503616	0.186172	-8.05	3.22	-36.61	0.3177	-0.182	-0.3191	
-0.850828	0.490928	0.185928	-6.44	2.73	-37.24	0.3132	-0.1788	-0.3176	
-0.861442	0.476532	0.168604	-3.29	1.47	-37.94	0.3205	-0.1664	-0.316	
-0.877424	0.468968	0.184952	2.38	1.05	-39.2	0.328	-0.1713	-0.3219	
-0.886452	0.455182	0.189344	0.63	2.24	-40.04	0.3206	-0.1741	-0.3074	
-0.897432	0.41541	0.193004	4.83	2.03	-38.99	0.3278	-0.1586	-0.3087	
-0.899506	0.420656	0.170556	10.08	-1.26	-39.48	0.3189	-0.1601	-0.316	
-0.920002	0.398574	0.18422	3.43	1.47	-43.47	0.3307	-0.1523	-0.3028	
-0.918294	0.40687	0.172508	2.94	2.45	-42.14	0.3337	-0.1525	-0.3159	
-0.927688	0.38491	0.173118	2.45	3.01	-41.51	0.344	-0.1432	-0.307	
-0.935862	0.360754	0.187148	2.73	3.78	-43.61	0.3425	-0.1401	-0.3099	
-0.931104	0.37393	0.173484	3.99	3.64	-46.48	0.3335	-0.1369	-0.3186	
-0.940376	0.338794	0.167628	3.01	5.74	-44.66	0.3319	-0.1259	-0.3098	
-0.943304	0.31476	0.182024	10.85	4.62	-41.58	0.3512	-0.1246	-0.3097	
-0.942328	0.336476	0.157258	5.25	5.32	-45.92	0.3481	-0.1184	-0.3242	
-0.949526	0.306342	0.170678	-5.25	11.83	-45.15	0.348	-0.1057	-0.3066	
-0.961604	0.281698	0.167872	0.07	5.25	-41.44	0.354	-0.1106	-0.3139	
-0.952942	0.284504	0.155794	-6.16	5.95	-40.32	0.3644	-0.1075	-0.3036	
-0.955504	0.23058	0.168482	-12.25	6.65	-35.42	0.3567	-0.09339999	-0.3137	
-0.953064	0.24217	0.154452	-8.19	4.34	-34.37	0.3597	-0.0933	-0.3035	
-0.965386	0.22204	0.15189	-11.69	5.25	-36.47	0.3729	-0.0794	-0.2975	
-0.968802	0.21777	0.16653	-11.69	9.24	-35	0.3699	-0.0747	-0.3047	
-0.975756	0.194956	0.176168	-17.71	11.2	-31.85	0.3697	-0.0607	-0.3119	
-0.980392	0.17568	0.174582	-19.6	9.66	-32.13	0.3563	-0.0574	-0.3119	
-0.987346	0.157868	0.179584	-20.02	8.82	-31.22	0.3578	-0.0589	-0.3046	
-0.981612	0.144448	0.17324	-20.23	8.61	-31.15	0.3636	-0.0512	-0.306	
-0.984052	0.126758	0.177266	-18.76	6.44	-31.5	0.3665	-0.045	-0.303	
-0.984174	0.117608	0.172386	-14.35	5.18	-30.52	0.3679	-0.0356	-0.3043	
-1.011746	0.107238	0.169702	-2.45	1.05	-28.35	0.3723	-0.031	-0.3043	
-0.99918	0.098088	0.167628	-14.35	4.55	-27.86	0.3633	-0.0278	-0.3086	
-0.999424	0.082472	0.165066	-11.83	1.26	-28.63	0.3767	-0.0263	-0.2998	
-0.999302	0.071004	0.163602	-11.55	0	-29.96	0.3751	-0.0138	-0.3012	
-1.006622	0.079788	0.162016	-8.33	-1.96	-31.5	0.3706	-0.0153	-0.3012	
-1.004548	0.07747	0.153354	-10.22	-0.49	-30.87	0.3764	-0.0029	-0.301	
-1.001742	0.07137	0.155306	-9.94	-0.49	-30.94	0.3719	0.0002	-0.301	
-1.006622	0.063196	0.154452	-9.1	-0.7	-31.22	0.3733	0.0112	-0.298	
-0.994666	0.061488	0.146034	-8.75	-0.98	-32.34	0.3703	0.0112	-0.3009	
-0.991982	0.050142	0.152134	-9.31	-0.42	-32.97	0.3702	0.0158	-0.3081	
-0.996374	0.03721	0.155794	-9.45	0.28	-34.3	0.3717	0.0126	-0.3082	
-0.998814	0.021472	0.156038	-7.56	0.21	-36.75	0.3761	0.0174	-0.3008	
-1.0004	0.014762	0.158966	-7.7	0.07	-38.22	0.37	0.0315	-0.3036	
-0.998814	0.016592	0.160796	-7.84	-0.56	-39.13	0.3699	0.0409	-0.3006	
-0.992714	0.010004	0.163114	-8.68	-0.63	-39.41	0.3683	0.044	-0.3064	
-0.993812	-0.005124	0.165432	-7.91	-0.63	-39.34	0.3727	0.0533	-0.3077	
-0.997594	-0.013298	0.160308	-5.04	-1.47	-38.78	0.3772	0.0502	-0.2947	
-0.996862	-0.034892	0.164456	-6.93	-1.19	-39.06	0.371	0.0658	-0.312	
-0.99003	-0.05246	0.161528	-7.21	-1.4	-40.11	0.3621	0.0707	-0.3032	
-0.997716	-0.07198	0.163846	-7.07	-0.91	-40.67	0.3695	0.0689	-0.3105	
-1.003084	-0.082838	0.16104	-5.81	-2.66	-39.97	0.3679	0.08	-0.2973	
-0.997228	-0.09211	0.16653	-4.55	-3.57	-40.6	0.3693	0.0909	-0.3001	
-1.001986	-0.125294	0.169336	-10.36	-1.05	-39.62	0.3693	0.091	-0.2928	
-1.005036	-0.13908	0.17568	-12.39	-0.7	-38.78	0.3572	0.1035	-0.3072	
-0.991738	-0.156892	0.174826	-11.06	-1.26	-38.71	0.3571	0.1098	-0.3043	
-0.999546	-0.19093	0.18666	-10.78	-0.7	-35.98	0.3571	0.1083	-0.3014	
-0.969412	-0.212524	0.175558	-8.89	-1.61	-35.77	0.3571	0.1098	-0.3043	
-0.961848	-0.184464	0.16409	-2.38	-0.91	-38.57	0.3569	0.1223	-0.307	
-0.977708	-0.202154	0.188002	-7.56	0.21	-39.06	0.3524	0.127	-0.3085	
-0.978684	-0.249124	0.192882	-7.56	3.22	-35.21	0.3464	0.1317	-0.3113	
-0.970998	-0.272914	0.178486	-7.21	3.57	-33.39	0.3553	0.1317	-0.3055	
-0.960262	-0.274134	0.164334	-4.76	-0.21	-34.44	0.3477	0.1459	-0.3039	
-0.946964	-0.295728	0.159698	-2.24	-0.98	-32.76	0.3447	0.1491	-0.3024	
-0.987346	-0.473848	0.251442	28.42	-6.72	-11.27	0.3431	0.1601	-0.2979	
-1.000888	-0.309148	0.141398	-10.78	12.32	-25.97	0.3462	0.149	-0.3068	
-0.948428	-0.299876	0.163358	6.16	-2.1	-30.1	0.3416	0.1553	-0.3082	
-0.945744	-0.314394	0.16714	3.08	-1.05	-29.05	0.3386	0.16	-0.3096	
-0.934398	-0.314516	0.174338	2.73	1.61	-27.79	0.3431	0.157	-0.2951	
-0.942084	-0.319884	0.17995	0.77	1.54	-26.39	0.337	0.1663	-0.3081	
-0.923662	-0.32574	0.167262	1.54	0	-27.16	0.3429	0.1741	-0.2992	
-0.918782	-0.341966	0.177388	-1.4	1.4	-27.3	0.3445	0.1661	-0.3139	
-0.91195	-0.345382	0.17385	-2.24	1.61	-26.53	0.3339	0.182	-0.305	
-0.923906	-0.359534	0.16897	-2.87	1.61	-25.97	0.3428	0.1788	-0.3021	
-0.908412	-0.377712	0.158112	-2.87	1.68	-27.23	0.3369	0.1804	-0.3036	
-0.91073	-0.398086	0.157136	-3.08	2.38	-28.98	0.3309	0.1804	-0.3079	
-0.916098	-0.412848	0.160918	-5.53	3.15	-28.91	0.3307	0.1992	-0.3077	
-0.929396	-0.412116	0.157624	-6.58	3.29	-27.23	0.3247	0.1992	-0.3136	
-0.91317	-0.417972	0.156038	-8.19	2.94	-25.76	0.3217	0.2056	-0.3048	
-0.912072	-0.436028	0.164578	-6.86	2.45	-23.73	0.3247	0.2056	-0.3004	
-0.899506	-0.422852	0.147986	-3.43	1.4	-22.89	0.3291	0.204	-0.3033	
-0.915732	-0.440176	0.16165	-5.46	1.54	-19.53	0.3156	0.2119	-0.3077	
-0.898164	-0.441884	0.15189	-5.04	1.05	-19.18	0.3232	0.2057	-0.299	
-0.895968	-0.451888	0.142008	-4.83	-0.35	-18.13	0.3186	0.2103	-0.3048	
-0.8906	-0.460306	0.149328	-4.2	-0.07	-16.59	0.3127	0.2152	-0.2989	
-0.88633	-0.441518	0.14152	-3.92	0.56	-15.33	0.3186	0.212	-0.3004	
-0.899506	-0.45811	0.150426	-6.16	0.7	-15.19	0.3155	0.2261	-0.2988	
-0.891454	-0.45506	0.129442	-3.78	-1.05	-16.17	0.3125	0.2246	-0.2959	
-0.884622	-0.46604	0.139324	-4.34	-0.63	-15.33	0.3111	0.2199	-0.3003	
-0.8845	-0.471652	0.134566	-4.62	1.12	-14.84	0.3169	0.2259	-0.3104	
-0.887794	-0.475556	0.132492	-3.29	1.82	-14.35	0.3051	0.2231	-0.3017	
-0.87474	-0.47702	0.135298	-4.69	2.59	-14.21	0.311	0.2292	-0.3046	
-0.884134	-0.47946	0.13115	-4.69	4.27	-12.46	0.3021	0.2293	-0.3031	
-0.901336	-0.49044	0.130174	-6.3	4.9	-9.24	0.3049	0.2371	-0.3031	
-0.895602	-0.498492	0.139446	-6.93	4.13	-8.12	0.3139	0.2291	-0.3075	
-0.883402	-0.48983	0.134566	-5.46	2.17	-7.56	0.3035	0.2373	-0.2929	
-0.88511	-0.4941	0.134322	-3.99	2.52	-6.44	0.3034	0.2402	-0.3059	
-0.889136	-0.497638	0.140544	-5.53	4.41	-3.36	0.3036	0.231	-0.2929	
-0.885476	-0.48556	0.135786	-2.45	2.38	-0.21	0.2914	0.25	-0.2884	
-0.880352	-0.483608	0.134566	-3.08	2.03	1.33	0.3078	0.2434	-0.2986	
-0.876692	-0.488366	0.130174	-2.59	1.26	2.1	0.302	0.2341	-0.2973	
-0.876082	-0.487268	0.133956	-1.96	1.33	2.59	0.3034	0.2387	-0.303	
-0.877424	-0.476288	0.12993	-1.68	1.33	3.22	0.3093	0.2434	-0.2942	
-0.87535	-0.481046	0.132004	-1.89	1.19	4.06	0.3183	0.2354	-0.3001	
-0.873886	-0.482022	0.126026	-1.19	0.77	3.85	0.3092	0.2512	-0.2985	
-0.876204	-0.474702	0.127978	-1.05	1.33	4.13	0.3169	0.2308	-0.2987	
-0.883402	-0.48251	0.138836	-2.8	1.89	4.97	0.3153	0.245	-0.2884	
-0.885476	-0.485438	0.126026	-1.05	2.17	5.46	0.3109	0.234	-0.2943	
-0.883036	-0.48251	0.13237	-1.4	2.73	5.95	0.3123	0.2386	-0.303	
-0.888892	-0.477508	0.127856	-1.96	3.5	7.21	0.308	0.234	-0.2973	
-0.893772	-0.478972	0.127612	-1.19	3.08	8.47	0.3094	0.2355	-0.2987	
-0.898652	-0.479948	0.129808	-0.98	3.71	10.22	0.3183	0.2387	-0.2885	
-0.904874	-0.466894	0.122244	-0.49	2.94	11.76	0.3169	0.2357	-0.2739	
-0.90585	-0.472018	0.119072	0.35	2.03	13.3	0.3184	0.2341	-0.2783	
-0.90646	-0.47946	0.11346	2.1	2.38	14.21	0.3199	0.234	-0.2856	
-0.908046	-0.45689	0.112484	4.9	1.89	15.89	0.3213	0.2435	-0.2768	
-0.91805	-0.444202	0.122244	5.53	0.56	18.13	0.3184	0.2356	-0.2827	
-0.906216	-0.445422	0.10248	7.84	0.98	18.83	0.3231	0.2168	-0.2858	
-0.903288	-0.446032	0.11651	7.07	1.82	18.9	0.3303	0.2306	-0.2958	
-0.902434	-0.437126	0.122488	7.49	1.47	19.18	0.3245	0.2198	-0.2945	
-0.91195	-0.425414	0.126026	7.63	0.77	19.88	0.3261	0.2135	-0.2931	
-0.91439	-0.409066	0.12383	8.89	0.98	21.63	0.3245	0.215	-0.3032	
-0.91683	-0.415166	0.130662	8.19	0.98	23.31	0.3336	0.2041	-0.2902	
-0.910974	-0.404674	0.125416	9.59	1.54	24.22	0.3336	0.2072	-0.2917	
-0.920612	-0.408212	0.132858	9.1	0.91	24.85	0.3381	0.2023	-0.299	
-0.930494	-0.398086	0.132858	8.96	1.12	25.48	0.3337	0.1977	-0.299	
-0.935496	-0.389912	0.12749	9.17	-0.14	26.39	0.3501	0.1944	-0.2917	
-0.931348	-0.38125	0.121512	8.75	-0.77	27.37	0.3442	0.1929	-0.2932	
-0.93391	-0.372832	0.128222	7.21	-0.49	28.84	0.3502	0.1882	-0.2947	
-0.931714	-0.355386	0.126758	7.42	-1.26	29.26	0.3428	0.182	-0.2904	
-0.931592	-0.34404	0.1281	6.93	-0.77	29.89	0.3503	0.1788	-0.2963	
-0.940132	-0.339038	0.130174	6.3	-1.19	30.1	0.3578	0.1739	-0.2992	
-0.947818	-0.326228	0.129442	6.51	-1.54	31.01	0.3489	0.1677	-0.3037	
-0.948062	-0.310368	0.12749	5.04	-2.73	31.5	0.349	0.1663	-0.295	
-0.953674	-0.303292	0.125538	4.62	-2.8	32.41	0.352	0.1616	-0.2906	
-0.960994	-0.29158	0.118706	5.04	-2.59	32.83	0.3581	0.1505	-0.3009	
-0.961726	-0.282796	0.122732	4.9	-2.66	33.11	0.3536	0.149	-0.3009	
-0.966484	-0.263886	0.124074	6.16	-2.66	33.18	0.3597	0.1427	-0.2952	
-0.975756	-0.25071	0.1281	5.88	-3.43	33.53	0.3537	0.1411	-0.301	
-0.986492	-0.244488	0.13176	6.09	-2.59	33.95	0.3628	0.1317	-0.2982	
-0.986858	-0.232166	0.132248	6.02	-2.8	34.02	0.3613	0.1301	-0.2968	
-0.993202	-0.212768	0.14152	6.86	-3.29	34.86	0.3584	0.1239	-0.2997	
-0.99796	-0.197884	0.13847	7.7	-4.06	36.05	0.3659	0.1207	-0.2998	
-0.992592	-0.180682	0.132126	10.15	-5.32	37.03	0.3689	0.1143	-0.3042	
-0.99186	-0.1647	0.13115	10.36	-5.67	37.17	0.3602	0.102	-0.3029	
-0.992226	-0.153232	0.128832	8.75	-5.6	37.66	0.3647	0.09559999	-0.3073	
-0.989664	-0.145912	0.13603	6.93	-4.62	38.78	0.3573	0.091	-0.3059	
-0.977342	-0.134688	0.139202	5.46	-3.71	38.57	0.3605	0.0753	-0.3075	
-0.984296	-0.119926	0.15982	3.85	-2.66	38.57	0.3679	0.0783	-0.3075	
-0.982466	-0.09455	0.159942	3.15	-4.06	37.87	0.3605	0.0738	-0.3075	
-0.990762	-0.086742	0.168848	1.12	-4.48	37.94	0.362	0.0738	-0.3032	
-0.99308	-0.07442	0.1647	-1.47	-5.6	37.87	0.371	0.0674	-0.3076	
-0.987956	-0.067222	0.14945	-4.34	-5.6	37.73	0.3681	0.0643	-0.3076	
-0.996374	-0.063684	0.172874	-10.22	-5.6	37.1	0.3696	0.0612	-0.3033	
-0.99064	-0.055266	0.18605	-8.19	-3.85	36.05	0.3743	0.0471	-0.3005	
-1.001132	-0.036112	0.187636	-5.39	-2.31	35.21	0.3741	0.0548	-0.3092	
-1.0004	-0.018056	0.183244	-3.22	-1.75	34.09	0.3652	0.0582	-0.299	
-0.99369	-0.005612	0.176656	-1.54	-2.03	32.9	0.3713	0.0439	-0.3093	
-0.99369	0.012322	0.17507	1.54	-2.03	32.55	0.3698	0.0454	-0.3136	
-0.990518	0.021106	0.171044	4.41	-1.4	32.2	0.3773	0.0438	-0.3078	
-0.999302	0.028182	0.16836	4.55	0.35	31.29	0.376	0.0235	-0.3124	
-1.00284	0.040992	0.159576	7.98	1.54	30.24	0.3671	0.0267	-0.3124	
-1.001864	0.055144	0.157502	8.61	1.61	29.4	0.3642	0.0189	-0.3125	
-0.996252	0.081252	0.153476	11.62	1.68	28.77	0.3746	0.0204	-0.3124	
-0.997106	0.09882	0.155916	10.43	3.29	28.56	0.3732	0.0157	-0.3125	
-0.988322	0.10492	0.162382	10.85	4.27	29.4	0.36	0.0002	-0.3156	
-0.98454	0.121756	0.159454	13.02	3.99	30.8	0.3824	-0.0078	-0.3142	
-0.986614	0.145058	0.165432	13.51	4.06	30.45	0.369	-0.0076	-0.3113	
-0.98881	0.15799	0.15738	12.74	4.76	31.01	0.3648	-0.0263	-0.3159	
-0.99247	0.170678	0.16531	12.6	4.62	31.5	0.3752	-0.0248	-0.3056	
-0.995764	0.17995	0.171288	11.2	3.92	30.45	0.3677	-0.02	-0.3056	
-0.995642	0.163358	0.162992	9.59	2.8	30.52	0.3752	-0.0279	-0.3013	
-0.990762	0.17385	0.159576	10.78	0.77	29.4	0.3724	-0.042	-0.3073	
-0.998326	0.179218	0.157258	8.61	-0.21	27.58	0.3709	-0.0389	-0.3102	
-1.00101	0.1769	0.149206	7.7	-1.19	26.18	0.3741	-0.0544	-0.3016	
-0.996618	0.178852	0.1403	7.14	-1.61	25.13	0.3786	-0.0592	-0.3031	
-0.983564	0.182268	0.146644	7.84	-2.1	24.43	0.3711	-0.0512	-0.3001	
-0.985394	0.192272	0.148352	8.68	-1.82	23.03	0.3711	-0.0528	-0.2987	
-0.978318	0.201666	0.152134	7.28	-2.38	20.3	0.3683	-0.0652	-0.2959	
-0.973072	0.211182	0.153842	6.44	-2.52	18.06	0.3713	-0.0733	-0.312	
-0.973194	0.228872	0.152866	8.61	-2.66	17.01	0.3744	-0.0764	-0.3047	
-0.970998	0.241438	0.152378	8.05	-3.08	16.73	0.3729	-0.0763	-0.3033	
-0.972218	0.248514	0.153598	6.09	-3.36	15.82	0.367	-0.0793	-0.2961	
-0.97295	0.248392	0.153842	3.99	-3.43	14.91	0.358	-0.0729	-0.2931	
-0.967094	0.247416	0.147498	4.62	-2.94	14	0.3625	-0.0761	-0.2946	
-0.96197	0.255224	0.14396	5.46	-1.4	12.67	0.3684	-0.0762	-0.2946	
-0.964654	0.264862	0.157502	4.48	-0.91	12.81	0.367	-0.0777	-0.2961	
-0.961116	0.26718	0.160186	4.62	-1.47	14	0.3611	-0.08549999	-0.3005	
-0.960872	0.267912	0.1647	3.99	-1.89	15.96	0.3641	-0.0872	-0.3093	
-0.958066	0.270352	0.167506	4.2	-2.73	18.2	0.367	-0.0856	-0.3063	
-0.953186	0.2745	0.161406	5.46	-3.29	20.16	0.3523	-0.098	-0.3094	
-0.964898	0.282674	0.169458	3.99	-2.38	21.42	0.3658	-0.1011	-0.2963	
-0.964654	0.2745	0.167994	1.33	-1.82	23.45	0.3598	-0.1011	-0.2949	
-0.95038	0.265106	0.166408	2.1	-2.94	26.25	0.3614	-0.1091	-0.3124	
-0.94611	0.282674	0.166408	4.55	-3.57	28.07	0.3658	-0.1027	-0.2992	
-0.940742	0.286944	0.167262	3.78	-4.13	29.4	0.3555	-0.1104	-0.3008	
-0.938546	0.295606	0.169458	5.11	-4.55	30.94	0.3541	-0.1167	-0.2994	
-0.9394	0.313662	0.173362	6.37	-5.46	31.64	0.3571	-0.1167	-0.3009	
-0.936594	0.320616	0.17812	5.6	-5.88	31.99	0.3512	-0.126	-0.2995	
-0.937448	0.329278	0.186294	8.75	-7	31.29	0.3483	-0.1355	-0.3098	
-0.941718	0.346724	0.180804	10.43	-4.97	30.24	0.3394	-0.1321	-0.3025	
-0.942328	0.35441	0.181048	8.4	-4.97	29.68	0.347	-0.1431	-0.2954	
-0.933544	0.373198	0.170556	6.72	-5.11	28.7	0.3351	-0.1415	-0.307	
-0.931592	0.38186	0.164822	3.64	-5.6	28.14	0.3486	-0.151	-0.3042	
-0.918294	0.38308	0.1464	-0.28	-5.46	30.59	0.3411	-0.1478	-0.3085	
-0.923174	0.414312	0.162626	-2.24	-3.15	29.82	0.3308	-0.1587	-0.3159	
-0.921222	0.425536	0.165798	1.4	-0.35	31.71	0.3383	-0.1587	-0.3043	
-0.905362	0.438468	0.172264	1.61	-3.5	31.5	0.3353	-0.1633	-0.3029	
-0.886696	0.459208	0.162992	6.09	-7.49	28.49	0.3265	-0.1664	-0.3044	
-0.87047	0.456036	0.170312	1.61	-5.6	27.3	0.3311	-0.1758	-0.3001	
-0.867054	0.477996	0.172142	3.57	-4.83	24.36	0.3221	-0.1773	-0.306	
-0.868884	0.466528	0.170556	-3.43	-0.21	20.44	0.328	-0.1695	-0.3001	
-0.84973	0.495442	0.149084	5.74	-7.07	24.78	0.3252	-0.1787	-0.2914	
-0.85827	0.484706	0.153598	9.03	-8.54	28.14	0.3417	-0.1931	-0.2988	
-0.843752	0.50569	0.17141	11.97	-10.71	25.76	0.3194	-0.1976	-0.3106	
-0.82289	0.530578	0.16165	14.42	-10.85	33.11	0.3165	-0.2038	-0.3077	
-0.854244	0.528016	0.17751	8.33	-1.82	35.28	0.3136	-0.2053	-0.3034	
-0.81984	0.561932	0.172386	6.86	-5.53	31.43	0.3003	-0.2114	-0.3093	
-0.82716	0.557296	0.163114	3.99	-2.1	33.04	0.2972	-0.2066	-0.3049	
-0.823744	0.57401	0.15128	0.07	-0.56	30.38	0.2944	-0.2174	-0.2963	
-0.805688	0.585356	0.157746	2.17	-1.26	30.24	0.3048	-0.2176	-0.2963	
-0.811178	0.585356	0.165798	0.49	-1.89	30.8	0.2914	-0.2175	-0.3094	
-0.791536	0.609268	0.165432	6.79	-4.55	30.24	0.2944	-0.2175	-0.3065	
-0.790072	0.58743	0.171288	0.21	-1.19	28.49	0.2855	-0.2175	-0.3123	
-0.800442	0.60878	0.177754	2.38	-2.38	27.86	0.296	-0.2285	-0.308	
-0.793976	0.618662	0.183244	2.73	-3.01	26.74	0.2842	-0.2299	-0.3023	
-0.783972	0.626226	0.190686	3.5	-4.62	29.4	0.2842	-0.2298	-0.3008	
-0.754814	0.634278	0.173972	1.68	-6.79	28.98	0.2798	-0.2409	-0.314	
-0.757742	0.61732	0.169092	-0.84	-5.53	29.54	0.2784	-0.2486	-0.3112	
-0.754204	0.631106	0.17385	2.8	-4.97	30.1	0.2741	-0.2564	-0.3099	
-0.753594	0.636596	0.175314	4.62	-4.97	29.82	0.2741	-0.2532	-0.304	
-0.740418	0.644892	0.174704	5.18	-5.88	28.42	0.2637	-0.2594	-0.3143	
-0.734684	0.654652	0.183	5.67	-6.02	27.37	0.2652	-0.2594	-0.3114	
-0.739442	0.65392	0.180438	4.83	-6.44	26.18	0.2593	-0.2593	-0.3085	
-0.729072	0.665144	0.179462	6.93	-5.81	25.55	0.2593	-0.264	-0.3144	
-0.721874	0.653554	0.160186	4.97	-5.39	25.48	0.2549	-0.2687	-0.3144	
-0.728096	0.674782	0.175802	5.95	-4.41	23.8	0.2623	-0.2623	-0.2983	
-0.732122	0.67649	0.17446	6.3	-2.66	24.99	0.2564	-0.2685	-0.2999	
-0.71492	0.69052	0.167262	5.46	-3.64	21.07	0.2476	-0.2763	-0.3029	
-0.702842	0.7015	0.1647	6.37	-1.75	21.14	0.2447	-0.2777	-0.2985	
-0.704672	0.692106	0.163602	3.78	-0.7	20.02	0.2403	-0.2856	-0.3088	
-0.713944	0.709308	0.177266	2.1	0	15.4	0.2373	-0.2839	-0.3001	
-0.701256	0.71065	0.171288	1.89	-0.28	14.14	0.2329	-0.2869	-0.2958	
-0.693936	0.7198	0.168482	2.1	0.35	13.16	0.2538	-0.2936	-0.3045	
-0.689422	0.71553	0.180194	0.49	1.75	11.55	0.2314	-0.2917	-0.3045	
-0.69113	0.717726	0.17019	-0.35	2.66	9.17	0.2226	-0.2931	-0.3002	
-0.694668	0.72224	0.177632	-5.25	3.5	5.74	0.233	-0.2932	-0.3002	
-0.692228	0.728584	0.169824	-1.26	4.34	5.74	0.2285	-0.29	-0.3002	
-0.68808	0.733342	0.1708	-0.63	2.87	5.32	0.2359	-0.2917	-0.3002	
-0.680028	0.7381	0.16958	-0.42	3.22	4.83	0.2329	-0.2917	-0.3031	
-0.687836	0.736148	0.182024	-2.52	2.59	3.78	0.2404	-0.2965	-0.3002	
-0.678686	0.73322	0.172142	-2.1	2.31	2.24	0.2301	-0.301	-0.2959	
-0.673074	0.72956	0.164944	-2.94	3.71	1.82	0.2329	-0.2854	-0.2987	
-0.675148	0.735538	0.166164	-1.68	2.52	0.84	0.2359	-0.2886	-0.3045	
-0.666608	0.733098	0.160796	-2.94	2.8	-0.21	0.2255	-0.2932	-0.3075	
-0.660142	0.732366	0.165188	-2.8	1.75	-0.42	0.2225	-0.29	-0.3002	
-0.657336	0.73383	0.15982	-3.64	1.82	-0.49	0.2284	-0.2869	-0.3031	
-0.661362	0.739808	0.169092	-2.94	1.26	-0.49	0.23	-0.2916	-0.3016	
-0.660752	0.732976	0.168604	-3.22	1.47	-1.19	0.2359	-0.2902	-0.3074	
-0.66795	0.728584	0.173972	-2.73	1.33	-2.03	0.2343	-0.2792	-0.3044	
-0.668682	0.727242	0.170556	-2.73	1.54	-2.31	0.2373	-0.2871	-0.3059	
-0.668682	0.733708	0.177266	-3.08	0.77	-2.66	0.2551	-0.2842	-0.3029	
-0.674294	0.732122	0.174582	-3.22	0.42	-2.94	0.2374	-0.2902	-0.3002	
-0.665388	0.735172	0.179828	-3.22	-0.49	-3.71	0.2449	-0.2934	-0.3002	
-0.67649	0.731512	0.185562	-3.78	-0.28	-4.55	0.2344	-0.2871	-0.3074	
-0.679174	0.717848	0.180072	-4.83	-1.12	-5.67	0.2343	-0.2855	-0.3103	
-0.684786	0.710772	0.177144	-4.13	-1.05	-7.21	0.2357	-0.2794	-0.319	
-0.687958	0.712724	0.19154	-3.29	-1.26	-8.47	0.2298	-0.2824	-0.3117	
-0.687348	0.711748	0.191662	-3.5	-1.12	-9.87	0.2373	-0.2872	-0.3132	
-0.688324	0.704672	0.186782	-3.08	-1.12	-10.92	0.2372	-0.2792	-0.3015	
-0.693814	0.705282	0.19154	-2.52	-1.26	-12.18	0.2418	-0.284	-0.3015	
-0.690154	0.702476	0.184464	-2.31	-1.4	-12.95	0.2417	-0.2808	-0.3	
-0.691862	0.69052	0.18666	-2.31	-1.26	-14.28	0.2477	-0.2825	-0.3059	
-0.708088	0.69723	0.193614	-1.4	-0.63	-15.61	0.2506	-0.2763	-0.3058	
-0.70577	0.690398	0.193492	-1.26	-1.19	-16.8	0.2475	-0.2669	-0.3057	
-0.704794	0.687714	0.193736	-1.4	-1.19	-18.2	0.2505	-0.2749	-0.313	
-0.705892	0.67771	0.198006	-1.82	-1.61	-19.88	0.2564	-0.2655	-0.3057	
-0.718214	0.675026	0.200324	-0.49	-0.7	-22.75	0.24	-0.2668	-0.3072	
-0.719556	0.676856	0.193614	-2.24	-0.77	-25.27	0.2505	-0.2749	-0.3145	
-0.72407	0.674904	0.192028	-3.71	-0.49	-26.11	0.2534	-0.2639	-0.3129	
-0.729316	0.67466	0.19215	-3.29	-0.77	-27.3	0.2578	-0.264	-0.3144	
-0.73993	0.662338	0.188978	-5.04	-0.63	-28.28	0.2606	-0.2516	-0.3142	
-0.746762	0.650016	0.185562	-4.83	0.91	-30.45	0.2606	-0.2532	-0.3201	
-0.747006	0.650016	0.180072	-5.39	1.89	-31.15	0.268	-0.247	-0.3156	
-0.743102	0.640378	0.18239	-5.95	1.89	-31.43	0.2637	-0.2562	-0.3099	
-0.754326	0.620492	0.180316	-7.42	1.47	-31.99	0.2739	-0.2408	-0.317	
-0.773236	0.620126	0.1891	-5.88	2.17	-33.53	0.2843	-0.241	-0.3184	
-0.770796	0.601826	0.18483	-5.04	1.89	-34.37	0.2738	-0.2313	-0.3052	
-0.784094	0.587064	0.184098	-5.39	1.26	-35.21	0.29	-0.2238	-0.3138	
-0.784094	0.591578	0.183976	-5.46	2.31	-34.65	0.2825	-0.2191	-0.3167	
-0.794708	0.584624	0.19154	-5.81	2.17	-34.37	0.2794	-0.2112	-0.3166	
-0.811788	0.576938	0.189344	-3.99	2.17	-34.44	0.2943	-0.2082	-0.3122	
-0.82167	0.56242	0.1952	-5.39	3.22	-35	0.2912	-0.2035	-0.3136	
-0.848998	0.55022	0.19947	-4.48	3.92	-36.4	0.2971	-0.1942	-0.3164	
-0.821914	0.537288	0.188612	-6.16	1.4	-36.96	0.3015	-0.1974	-0.3179	
-0.829722	0.538752	0.19825	-6.23	4.34	-37.31	0.3074	-0.1897	-0.3192	
-0.840214	0.500078	0.192516	-5.6	3.43	-37.73	0.3058	-0.1787	-0.3162	
-0.84424	0.494222	0.189344	-4.55	3.71	-40.32	0.3103	-0.1803	-0.3162	
-0.866322	0.497028	0.196542	-2.66	5.18	-41.65	0.3132	-0.1772	-0.3147	
-0.881694	0.466162	0.196664	-2.94	2.66	-44.59	0.3087	-0.1708	-0.303	
-0.879742	0.458964	0.194102	0.49	1.89	-46.76	0.3206	-0.1743	-0.3205	
-0.898164	0.443104	0.196908	-2.1	2.73	-46.97	0.3174	-0.1602	-0.3189	
-0.886086	0.435784	0.198738	3.15	0.7	-48.86	0.3218	-0.1571	-0.3188	
-0.903044	0.419802	0.196908	3.43	2.03	-48.09	0.3382	-0.1605	-0.3217	
-0.920368	0.40626	0.195566	3.78	0.28	-53.13	0.3291	-0.1464	-0.3289	
-0.905362	0.39711	0.188612	2.73	2.1	-54.11	0.3322	-0.1526	-0.3231	
-0.908656	0.3782	0.17995	4.48	1.26	-55.79	0.3276	-0.1383	-0.3128	
-0.918416	0.366854	0.19459	8.61	4.55	-56.84	0.3395	-0.1401	-0.3201	
-0.936594	0.32025	0.179584	5.39	5.11	-59.5	0.3481	-0.1199	-0.3198	
-0.92415	0.344894	0.171044	4.55	8.26	-56.98	0.3467	-0.1214	-0.314	
-0.970266	0.276696	0.201544	-4.83	11.2	-48.37	0.3525	-0.1105	-0.3095	
-0.931226	0.29158	0.16104	5.32	4.34	-50.82	0.3494	-0.1011	-0.308	
-0.9394	0.27145	0.167872	-8.54	12.25	-46.83	0.3522	-0.08549999	-0.3078	
-0.95282	0.245586	0.180926	-4.69	12.32	-44.31	0.364	-0.0841	-0.3092	
-0.96685	0.223138	0.171898	-15.19	10.92	-42.56	0.361	-0.0826	-0.3179	
-0.977708	0.18666	0.185806	-15.12	8.82	-39.41	0.3639	-0.0762	-0.3062	
-0.967338	0.193736	0.172386	-20.72	10.43	-39.55	0.3668	-0.0685	-0.3134	
-0.980514	0.157624	0.177022	-24.22	12.46	-36.68	0.3741	-0.0545	-0.3089	
-0.99003	0.143106	0.183854	-24.71	11.27	-36.33	0.3592	-0.0511	-0.3045	
-0.98149	0.119682	0.171776	-23.66	9.17	-36.26	0.3621	-0.0496	-0.3074	
-0.980758	0.125904	0.171898	-20.86	5.95	-36.12	0.3664	-0.0341	-0.3058	
-0.990152	0.077714	0.185196	-23.59	8.82	-33.6	0.3693	-0.0295	-0.3144	
-0.981612	0.084668	0.178364	-15.96	4.06	-35.91	0.3737	-0.0248	-0.3071	
-1.000156	0.080764	0.165188	-10.99	2.8	-33.46	0.3632	-0.02	-0.3114	
-0.996984	0.047336	0.182634	-25.55	8.47	-35.63	0.3706	-0.0185	-0.3114	
-0.995764	0.035624	0.182146	-20.16	5.04	-36.75	0.3675	-0.0044	-0.3084	
-0.993446	0.021594	0.176534	-21.14	4.83	-37.38	0.3689	-0.0014	-0.3141	
-0.98454	0.023302	0.160308	-19.95	3.57	-37.87	0.3749	0.0002	-0.2996	
-0.99125	0.01281	0.159576	-19.46	3.43	-38.78	0.3777	0.011	-0.3096	
-0.992348	-0.007198	0.164944	-22.47	4.48	-39.97	0.3791	0.0141	-0.3125	
-0.99125	-0.009393999	0.15982	-21.84	4.34	-42.42	0.3759	0.0328	-0.3138	
-0.98698	-0.017324	0.15311	-19.88	2.94	-42.14	0.382	0.025	-0.3109	
-0.978562	-0.036722	0.1647	-25.2	7.35	-44.1	0.3697	0.0501	-0.3121	
-0.988444	-0.049532	0.160552	-19.39	7.7	-43.89	0.3683	0.0487	-0.3063	
-0.992714	-0.05429	0.147498	-15.82	8.4	-42.56	0.3756	0.0594	-0.312	
-0.997106	-0.063318	0.149816	-16.03	8.89	-42.35	0.3799	0.0689	-0.2988	
-0.993934	-0.091988	0.156892	-16.38	10.5	-41.37	0.368	0.069	-0.3076	
-0.98698	-0.104676	0.145058	-12.74	10.01	-42.21	0.3707	0.094	-0.3029	
-0.98271	-0.12139	0.146888	-9.31	9.1	-42.91	0.3782	0.08769999	-0.2972	
-0.995642	-0.150792	0.149328	-12.46	14.35	-40.95	0.3811	0.097	-0.3043	
-1.00772	-0.154086	0.151036	-6.93	12.25	-38.15	0.3632	0.0989	-0.2956	
-1.00833	-0.154696	0.14152	-5.95	11.06	-37.66	0.3823	0.1174	-0.2939	
-1.0065	-0.173362	0.142618	-5.39	9.87	-36.19	0.3764	0.1143	-0.2998	
-1.000156	-0.186172	0.142374	-4.34	8.82	-34.09	0.369	0.1161	-0.2896	
-0.991738	-0.209718	0.136274	-5.6	7.77	-32.62	0.3689	0.1255	-0.2808	
-0.993568	-0.221674	0.135908	-4.83	7.14	-31.92	0.3717	0.1316	-0.2923	
-0.995764	-0.239242	0.138958	-3.85	6.44	-30.31	0.3702	0.1317	-0.2894	
-0.991982	-0.248392	0.128466	-2.8	4.9	-29.33	0.3671	0.1426	-0.2908	
-0.99308	-0.260104	0.1281	-0.84	2.8	-29.4	0.3716	0.1474	-0.2776	
-0.988566	-0.283406	0.114558	4.69	-0.84	-27.02	0.3611	0.1521	-0.2907	
-0.983442	-0.281942	0.104188	1.96	-1.61	-28.14	0.3656	0.1442	-0.2893	
-0.969046	-0.284748	0.110654	1.75	-3.64	-29.33	0.3611	0.1522	-0.2805	
-0.960384	-0.27999	0.100162	2.45	-4.41	-30.17	0.3549	0.1647	-0.2935	
-0.956358	-0.288164	0.080154	4.76	-3.85	-30.8	0.3624	0.1646	-0.2891	
-0.958798	-0.311832	0.100528	0.28	-0.42	-29.89	0.3518	0.1757	-0.2919	
-0.953308	-0.32635	0.090158	0.63	1.54	-30.52	0.3593	0.1725	-0.289	
-0.949648	-0.320616	0.096624	-0.91	1.19	-30.8	0.3579	0.1709	-0.2876	
-0.938546	-0.336598	0.103334	-4.13	2.38	-31.15	0.3518	0.182	-0.2802	
-0.94367	-0.333426	0.097722	-2.45	2.31	-31.15	0.3444	0.1805	-0.2861	
-0.949282	-0.356484	0.094794	-1.26	4.41	-28.49	0.3516	0.1897	-0.2947	
-0.931836	-0.385276	0.07808	2.8	5.53	-26.04	0.3486	0.1991	-0.2917	
-0.92415	-0.406626	0.083692	6.86	3.15	-29.05	0.3442	0.1899	-0.2889	
-0.945256	-0.409432	0.088816	2.73	4.9	-28.28	0.347	0.2039	-0.2844	
-0.929518	-0.42883	0.08845	-4.9	5.81	-26.95	0.3381	0.204	-0.2859	
-0.93879	-0.413336	0.100772	-1.19	3.01	-27.93	0.35	0.2039	-0.2887	
-0.93452	-0.418338	0.096258	0.42	1.12	-26.39	0.3441	0.2009	-0.2786	
-0.924272	-0.437492	0.111874	-0.98	1.96	-22.4	0.3336	0.2041	-0.2859	
-0.924638	-0.434686	0.097234	1.61	0.56	-21.56	0.338	0.2103	-0.2829	
-0.826062	-0.414312	0.110776	35.84	-10.64	-2.94	0.3378	0.2243	-0.2885	
-0.908778	-0.437126	0.087962	-3.64	3.36	-17.08	0.3274	0.2245	-0.2886	
-0.886086	-0.431026	0.1037	0.56	-0.07	-18.62	0.332	0.2214	-0.2755	
-0.902434	-0.430416	0.093818	-1.75	0.84	-18.41	0.3334	0.2244	-0.2886	
-0.891698	-0.443958	0.104188	-7.91	-0.91	-17.92	0.3303	0.2339	-0.2812	
-0.903044	-0.441152	0.10797	-7.98	0	-16.73	0.3334	0.2229	-0.2871	
-0.912804	-0.450912	0.105164	-9.17	-1.19	-16.31	0.3333	0.2339	-0.2812	
-0.909998	-0.457988	0.108702	-10.01	-1.75	-15.33	0.3244	0.2324	-0.2798	
-0.902434	-0.470188	0.092476	-8.82	-2.59	-15.61	0.3257	0.2418	-0.2811	
-0.90036	-0.481168	0.086254	-9.17	-2.03	-13.44	0.314	0.231	-0.2784	
-0.895114	-0.47153	0.094184	-9.38	-2.24	-11.9	0.3244	0.2389	-0.2622	
-0.908656	-0.478606	0.09162199	-8.12	-3.08	-9.73	0.3228	0.2403	-0.2782	
-0.902312	-0.48373	0.088328	-6.23	-3.01	-7.84	0.3137	0.2496	-0.2913	
-0.897066	-0.493368	0.091378	-6.65	-2.17	-5.95	0.3168	0.245	-0.284	
-0.887184	-0.492026	0.087352	-3.71	-2.17	-4.48	0.3168	0.2482	-0.2796	
-0.88511	-0.498858	0.089792	-2.31	-2.03	-2.8	0.3124	0.2419	-0.2826	
-0.891454	-0.496784	0.088938	-1.96	-0.21	-1.19	0.3182	0.2465	-0.2884	
-0.890478	-0.48861	0.09211	0.42	0.63	0.35	0.3049	0.25	-0.2738	
-0.87718	-0.486658	0.085278	1.4	1.4	1.19	0.3182	0.2482	-0.2782	
-0.885476	-0.493002	0.094794	1.47	1.33	2.45	0.3183	0.2434	-0.2884	
-0.87718	-0.493734	0.09699	0.7	1.05	2.8	0.3183	0.2418	-0.2841	
-0.875594	-0.490928	0.102846	1.4	1.82	3.85	0.3109	0.2388	-0.2827	
-0.874862	-0.482144	0.098088	1.26	1.47	4.41	0.3197	0.2513	-0.2752	
-0.882548	-0.487268	0.108824	0.42	2.1	5.46	0.3229	0.2324	-0.2812	
-0.881694	-0.48983	0.103334	0.42	1.54	6.16	0.3168	0.2466	-0.2796	
-0.882304	-0.490684	0.10736	0.63	2.24	7.35	0.3167	0.2481	-0.284	
-0.886452	-0.487146	0.10614	-0.21	1.61	8.26	0.3332	0.2417	-0.2826	
-0.898408	-0.475922	0.109312	0.63	1.96	9.66	0.3212	0.2497	-0.2738	
-0.894504	-0.473238	0.106994	-0.07	0.56	10.22	0.3273	0.2356	-0.2739	
-0.904264	-0.46726	0.110044	-0.42	-0.42	11.97	0.3302	0.2433	-0.2782	
-0.903898	-0.469944	0.104554	0.14	-1.05	13.37	0.3332	0.2401	-0.2797	
-0.905118	-0.470798	0.100894	0.7	-1.4	14.28	0.3184	0.234	-0.2841	
-0.900604	-0.459452	0.09516	2.45	-2.38	14.98	0.3229	0.2324	-0.2885	
-0.909388	-0.455548	0.09882	1.89	-2.38	16.17	0.323	0.2247	-0.277	
-0.91622	-0.453718	0.104798	2.59	-2.24	17.92	0.3347	0.237	-0.2753	
-0.914146	-0.440176	0.09699	3.99	-3.15	20.09	0.3214	0.2309	-0.2798	
-0.91378	-0.426268	0.099552	5.18	-3.5	21.7	0.3393	0.2228	-0.2886	
-0.923052	-0.429928	0.10797	4.41	-2.31	22.96	0.3469	0.2197	-0.2769	
-0.915488	-0.421266	0.110166	4.76	-2.45	23.03	0.326	0.2214	-0.2842	
-0.928298	-0.41236	0.105652	5.74	-3.15	24.36	0.3366	0.2104	-0.2814	
-0.926346	-0.412604	0.111264	5.88	-3.08	25.9	0.3381	0.2039	-0.2946	
-0.922808	-0.401258	0.114314	7.07	-3.29	26.74	0.3397	0.1962	-0.2888	
-0.931592	-0.39528	0.121634	8.19	-4.06	27.51	0.3366	0.2056	-0.2858	
-0.926346	-0.378322	0.113582	9.59	-4.2	28.56	0.344	0.2055	-0.2858	
-0.932568	-0.366732	0.115778	9.52	-5.04	29.96	0.3369	0.1869	-0.2831	
-0.940864	-0.365878	0.117486	9.73	-4.2	31.92	0.3399	0.1806	-0.2846	
-0.941962	-0.361364	0.12017	9.87	-3.92	31.85	0.3503	0.1803	-0.2948	
-0.945134	-0.341966	0.114314	11.69	-5.32	31.43	0.3533	0.1788	-0.2861	
-0.943182	-0.335866	0.12139	10.99	-4.13	31.99	0.3534	0.1741	-0.2876	
-0.948672	-0.318176	0.12566	9.87	-3.29	31.85	0.349	0.1679	-0.2906	
-0.945866	-0.306098	0.13481	10.08	-3.22	32.55	0.3611	0.1474	-0.2878	
-0.945866	-0.293654	0.13359	9.94	-2.1	32.9	0.3581	0.1522	-0.2834	
-0.9516	-0.282796	0.135664	8.61	-1.96	33.18	0.361	0.1584	-0.2877	
-0.959286	-0.269254	0.136884	8.96	-1.82	33.25	0.3551	0.1537	-0.298	
-0.965142	-0.261568	0.141886	8.4	-1.82	33.53	0.3553	0.138	-0.2967	
-0.966362	-0.244244	0.13725	8.75	-2.1	33.67	0.3598	0.1334	-0.2851	
-0.967582	-0.22936	0.141642	8.26	-2.66	34.58	0.3701	0.1425	-0.2966	
-0.978928	-0.21045	0.13847	7.91	-3.01	35.14	0.3689	0.1207	-0.2896	
-0.98149	-0.205936	0.141154	7.56	-3.36	36.33	0.3585	0.1224	-0.2939	
-0.98332	-0.189344	0.132126	9.03	-4.41	35.35	0.366	0.116	-0.2983	
-0.987224	-0.175192	0.135542	7.7	-3.92	35	0.3645	0.1113	-0.2999	
-0.990152	-0.158722	0.143106	8.47	-5.46	34.65	0.3691	0.0971	-0.3073	
-0.998692	-0.142862	0.148962	8.47	-6.44	34.23	0.3631	0.1051	-0.3014	
-0.994666	-0.126148	0.149816	7.49	-6.58	33.81	0.3649	0.0801	-0.2958	
-0.988932	-0.110532	0.14579	7	-5.95	33.95	0.3693	0.0893	-0.3015	
-0.975634	-0.095038	0.138104	7.35	-6.02	34.09	0.3693	0.0847	-0.2958	
-0.981856	-0.08662	0.120902	3.01	-4.48	34.09	0.3679	0.0816	-0.2973	
-0.984906	-0.086376	0.159088	-4.27	-3.92	34.44	0.3711	0.0675	-0.2945	
-0.994788	-0.081984	0.16043	-2.03	-1.19	35.28	0.3724	0.0768	-0.2987	
-0.988078	-0.073566	0.147254	0.28	-1.05	34.37	0.3696	0.0643	-0.3018	
-0.998814	-0.055754	0.158356	0.77	-0.35	33.46	0.3801	0.0563	-0.3091	
-1.007842	-0.036722	0.159576	3.64	0	33.04	0.3712	0.0501	-0.3092	
-1.001864	-0.020374	0.149084	6.86	0.42	32.06	0.3697	0.0502	-0.3107	
-1.006012	-0.011956	0.154574	5.04	1.19	31.64	0.3789	0.0376	-0.3006	
-1.002596	0.00976	0.152012	7.98	0.35	31.29	0.3728	0.0423	-0.3108	
-1.003938	0.0183	0.157136	6.93	0.28	30.24	0.3759	0.0345	-0.305	
-1.001376	0.028548	0.154574	7.56	-0.35	29.54	0.3745	0.0267	-0.3095	
-0.989664	0.046116	0.136152	6.58	-0.35	29.12	0.3715	0.033	-0.3065	
-0.993446	0.052826	0.155184	4.27	0.07	28.14	0.3716	0.0236	-0.311	
-0.999424	0.07137	0.159088	4.62	1.26	27.3	0.3762	0.0079	-0.3097	
-0.996252	0.081374	0.1647	6.09	1.82	26.6	0.3703	0.0112	-0.298	
-1.001742	0.092598	0.162016	7.42	2.1	26.6	0.3808	0.0032	-0.301	
-0.99491	0.101016	0.148108	8.47	1.54	26.88	0.372	-0.009099999	-0.3069	
-0.993568	0.101138	0.152866	7.14	2.31	27.3	0.375	-0.0092	-0.3098	
-1.007232	0.116388	0.15189	8.89	2.52	26.81	0.381	-0.0108	-0.304	
-0.997716	0.127856	0.15494	7.07	1.89	25.97	0.3764	-0.006	-0.304	
-0.990518	0.127246	0.161894	5.53	3.08	24.92	0.3706	-0.0185	-0.31	
-0.989786	0.143716	0.148962	5.53	0.98	25.06	0.3692	-0.0216	-0.3056	
-0.99918	0.147742	0.15128	5.46	1.26	23.87	0.3723	-0.0294	-0.3042	
-1.004914	0.154086	0.152622	4.13	0.63	22.68	0.3767	-0.0295	-0.3042	
-0.998204	0.167628	0.14701	2.94	-0.21	21.49	0.3723	-0.0341	-0.3043	
-0.985638	0.161406	0.14823	1.82	-2.17	20.16	0.3723	-0.0357	-0.3072	
-0.99003	0.164944	0.147254	2.8	-1.33	19.6	0.3754	-0.0372	-0.3014	
-0.982344	0.16348	0.14335	2.52	-1.54	19.32	0.3664	-0.0324	-0.297	
-0.985882	0.173606	0.13664	3.92	-1.26	18.06	0.3755	-0.0466	-0.2971	
-0.990762	0.175558	0.137006	3.15	-0.98	17.01	0.3769	-0.0419	-0.2971	
-0.985516	0.186172	0.131272	4.55	-1.47	15.75	0.3814	-0.0451	-0.2986	
-0.985882	0.199348	0.129564	5.53	-2.17	13.93	0.3755	-0.0481	-0.2913	
-0.9943	0.21228	0.13664	6.58	-2.17	11.34	0.3756	-0.0591	-0.2987	
-0.992714	0.22082	0.135542	5.67	-3.08	9.8	0.3786	-0.0593	-0.3147	
-0.99186	0.224724	0.142008	3.5	-3.08	8.54	0.3682	-0.0574	-0.2973	
-0.987224	0.226676	0.149328	2.73	-3.78	8.33	0.3741	-0.056	-0.2987	
-0.97844	0.232898	0.151158	1.96	-4.69	7.7	0.3771	-0.0607	-0.2987	
-0.982222	0.229116	0.157746	-0.42	-3.43	7.35	0.3816	-0.0608	-0.2987	
-0.98088	0.230702	0.162626	-1.26	-3.5	6.72	0.3682	-0.0654	-0.3134	
-0.98271	0.230824	0.156648	-3.5	-3.99	5.39	0.3698	-0.0654	-0.3075	
-0.974292	0.237778	0.157136	-4.2	-4.06	3.85	0.3683	-0.07	-0.3047	
-0.974902	0.240096	0.166042	-5.88	-3.22	3.78	0.3638	-0.0621	-0.3017	
-0.975268	0.234118	0.168726	-5.11	-3.22	4.83	0.3698	-0.0685	-0.309	
-0.974658	0.231434	0.170068	-5.6	-2.94	4.69	0.3698	-0.07009999	-0.3076	
-0.970388	0.23729	0.167872	-4.69	-3.15	4.13	0.3578	-0.062	-0.3032	
-0.967704	0.233752	0.168604	-5.46	-2.52	3.64	0.3683	-0.0637	-0.3017	
-0.969778	0.231556	0.17141	-5.74	-2.31	3.15	0.3727	-0.0591	-0.3046	
-0.971608	0.228872	0.167872	-5.04	-2.73	2.59	0.3682	-0.0607	-0.3119	
-0.977708	0.224602	0.169702	-5.53	-2.66	1.75	0.3623	-0.0622	-0.3104	
-0.97234	0.231312	0.16714	-5.6	-3.64	0.07	0.3564	-0.0699	-0.3047	
-0.977342	0.228872	0.171776	-6.09	-3.01	0	0.3681	-0.0544	-0.3103	
-0.974536	0.231434	0.171898	-6.02	-2.87	-0.91	0.3564	-0.0668	-0.3091	
-0.970388	0.228506	0.16836	-6.79	-3.15	-2.38	0.3578	-0.0622	-0.3192	
-0.972584	0.231678	0.171044	-5.04	-2.31	-2.66	0.3593	-0.0622	-0.3177	
-0.970022	0.235948	0.178242	-3.85	-2.87	-4.9	0.3712	-0.0623	-0.3119	
-0.96502	0.240218	0.178852	-2.66	-3.22	-6.65	0.3563	-0.0574	-0.3119	
-0.9699	0.24522	0.180926	-3.22	-2.45	-8.82	0.3592	-0.0576	-0.3235	
-0.972584	0.259982	0.182634	-4.41	-3.85	-12.32	0.3622	-0.0559	-0.3089	
-0.962946	0.256688	0.185318	-9.94	-3.43	-15.54	0.3682	-0.0576	-0.3104	
-0.962458	0.255834	0.177388	-11.06	-4.2	-13.23	0.362	-0.0467	-0.3234	
-0.974414	0.230946	0.181902	-20.16	-0.56	-13.93	0.3723	-0.039	-0.3247	
-0.972096	0.239364	0.187758	-21.98	-0.91	-16.87	0.3665	-0.0483	-0.3234	
-0.970754	0.216062	0.194102	-27.58	2.31	-17.71	0.3634	-0.0388	-0.3175	
-0.970388	0.19581	0.191906	-28.21	2.94	-16.31	0.3561	-0.045	-0.319	
-0.978196	0.194346	0.189344	-25.48	4.41	-14.77	0.3588	-0.0263	-0.3188	
-0.989054	0.171898	0.192882	-23.73	3.64	-15.68	0.3633	-0.0263	-0.3144	
-0.98698	0.154574	0.1952	-18.2	-2.45	-25.2	0.3646	-0.0203	-0.3318	
-0.975146	0.179706	0.184464	-25.83	2.94	-22.26	0.3616	-0.0107	-0.3172	
-0.984784	0.115534	0.198494	-33.18	5.88	-17.92	0.3644	-0.0046	-0.3302	
-0.978928	0.12932	0.197152	-25.69	2.94	-22.82	0.3615	-0.0029	-0.3229	
-0.980026	0.111508	0.19032	-23.38	3.43	-23.66	0.36	0.0018	-0.3127	
-0.982954	0.09857599	0.205692	-25.13	4.27	-22.33	0.3629	0.0016	-0.3243	
-0.975756	0.10614	0.201422	-23.66	3.78	-26.11	0.3687	0.0156	-0.3241	
-0.976366	0.099796	0.209474	-24.36	2.03	-27.79	0.3746	0.0188	-0.3168	
-0.995764	0.0793	0.20313	-25.27	3.29	-24.78	0.3834	0.0312	-0.3094	
-0.975512	0.078812	0.198494	-20.09	-0.42	-23.73	0.3654	0.036	-0.3225	
-1.014796	0.12017	0.171532	6.3	1.12	-6.58	0.367	0.0314	-0.3167	
-0.987712	0.075762	0.191418	-24.57	-0.35	-20.72	0.3625	0.0298	-0.3196	
-0.990274	0.052948	0.205936	-28.63	-0.84	-17.29	0.3578	0.0518	-0.3194	
-0.987102	0.036722	0.199836	-29.75	-2.24	-15.68	0.3682	0.0533	-0.3106	
-0.993568	0.029158	0.201788	-30.1	-2.03	-14	0.3577	0.0628	-0.3106	
-0.988688	0.016226	0.19703	-29.05	-4.27	-13.93	0.3592	0.0628	-0.3106	
-0.993812	0.009638	0.20191	-29.82	-4.41	-12.88	0.3636	0.066	-0.3003	
-0.977098	0.00671	0.193736	-29.82	-5.88	-12.88	0.3636	0.069	-0.3105	
-0.987346	-0.017446	0.208864	-32.97	-3.01	-8.68	0.3575	0.0768	-0.3221	
-0.990884	-0.018544	0.203984	-31.5	-2.24	-7.49	0.3588	0.0862	-0.319	
-0.991738	-0.012444	0.199714	-31.15	-1.54	-8.05	0.3589	0.0832	-0.3045	
-0.997472	-0.00732	0.194224	-29.82	-1.4	-7.84	0.3573	0.0878	-0.3176	
-0.99613	-0.024156	0.194712	-31.57	-1.4	-7.35	0.3543	0.0955	-0.3233	
-0.997228	-0.037942	0.194102	-31.43	-1.82	-7.42	0.3588	0.0861	-0.3249	
-0.991738	-0.056974	0.196786	-30.52	-1.61	-6.79	0.3513	0.0988	-0.3175	
-0.99491	-0.074176	0.202886	-29.54	-0.77	-6.02	0.3557	0.09869999	-0.3175	
-0.990396	-0.079544	0.20557	-27.93	-0.63	-5.46	0.3541	0.1066	-0.3159	
-0.988688	-0.089426	0.209108	-25.13	-0.35	-5.32	0.3556	0.1129	-0.3115	
-0.986004	-0.097112	0.209352	-21.42	-1.05	-5.46	0.3512	0.1051	-0.316	
-0.993446	-0.093696	0.210816	-17.92	-1.26	-5.39	0.3526	0.1161	-0.3057	
-0.991616	-0.113338	0.20984	-12.6	-1.68	-5.67	0.354	0.1224	-0.2954	
-0.991616	-0.107848	0.205448	-9.94	-2.17	-5.11	0.3556	0.1097	-0.313	
-0.990396	-0.11651	0.21106	-7.14	-1.33	-6.3	0.354	0.1223	-0.31	
-0.98637	-0.122	0.209108	-5.46	-0.77	-5.53	0.3569	0.1269	-0.3157	
-0.986004	-0.10614	0.212768	-1.82	-0.28	-6.93	0.3614	0.1205	-0.3158	
-0.979782	-0.098942	0.213378	0.63	-0.28	-7.28	0.3525	0.1176	-0.3086	
-0.983076	-0.098454	0.215452	2.87	0.21	-7.14	0.354	0.1192	-0.3027	
-0.9882	-0.10309	0.218136	4.55	0.56	-7	0.3568	0.1381	-0.2938	
-0.98637	-0.089304	0.20618	6.3	0.7	-6.58	0.3554	0.127	-0.3012	
-0.984418	-0.087718	0.213866	7.14	0.98	-6.79	0.3583	0.1332	-0.3069	
-0.994544	-0.080032	0.208498	7.21	0.98	-5.95	0.3585	0.1207	-0.3041	
-0.98942	-0.068686	0.205814	7.35	0.98	-5.46	0.3554	0.1253	-0.3157	
-0.99003	-0.065026	0.216428	6.65	1.05	-5.25	0.36	0.1175	-0.3071	
-0.994178	-0.080154	0.20984	5.95	0.56	-4.06	0.3583	0.1301	-0.3069	
-0.98759	-0.077226	0.20984	4.41	0.7	-3.01	0.3494	0.1302	-0.3084	
-0.98759	-0.074908	0.208742	3.92	1.4	-2.1	0.351	0.1255	-0.3027	
-0.989054	-0.072224	0.212402	2.66	1.75	-1.05	0.3525	0.1239	-0.3041	
-0.984784	-0.059292	0.211792	3.36	2.1	-1.12	0.3523	0.13	-0.3201	
-0.98271	-0.07076	0.210816	1.33	2.38	0.91	0.351	0.1223	-0.31	
-0.98332	-0.08295999	0.210084	0.07	2.45	1.68	0.3555	0.1191	-0.3085	
-0.984906	-0.078812	0.211182	0.07	2.45	1.61	0.3628	0.1284	-0.3084	
-0.983808	-0.081984	0.206668	0	2.1	1.68	0.36	0.1159	-0.3158	
-0.988932	-0.084302	0.210938	-0.14	2.24	1.82	0.3436	0.1162	-0.31	
-0.990274	-0.080032	0.211182	0.35	1.68	1.12	0.351	0.1208	-0.3027	
-0.986248	-0.075274	0.207888	-0.7	1.89	1.47	0.3524	0.1302	-0.3041	
-0.985516	-0.07625	0.208742	-0.91	2.17	0.98	0.3538	0.1379	-0.3069	
-0.984662	-0.063318	0.205326	0.21	2.24	0.14	0.3584	0.1286	-0.2953	
-0.989786	-0.066612	0.208254	-1.19	2.38	0.77	0.3568	0.13	-0.3157	
-0.986736	-0.067588	0.211304	-0.77	2.31	0.21	0.357	0.1144	-0.3086	
-0.993446	-0.064416	0.209108	0.21	1.82	0	0.3599	0.1207	-0.2998	
-0.999058	-0.067222	0.208376	0.77	1.54	0.35	0.3629	0.1205	-0.3172	
-1.00162	-0.070272	0.205204	1.47	1.12	0.84	0.3644	0.1221	-0.3099	
-0.994056	-0.062098	0.212402	2.45	0.91	0.77	0.36	0.1112	-0.313	
-0.997106	-0.059414	0.20557	2.87	0.28	0.91	0.3571	0.1096	-0.3188	
-0.992226	-0.061976	0.208742	2.45	0.42	2.03	0.3539	0.1269	-0.3157	
-0.987834	-0.049654	0.200446	5.32	0.84	1.4	0.3584	0.1253	-0.3114	
-0.988078	-0.077104	0.202642	3.43	0.91	2.66	0.3555	0.1207	-0.3056	
-0.988444	-0.074542	0.20252	4.34	1.47	2.45	0.3673	0.1205	-0.3157	
-0.99003	-0.073932	0.195444	4.97	1.4	2.73	0.3601	0.1066	-0.3101	
-0.994544	-0.0732	0.195444	6.37	1.61	2.59	0.357	0.1176	-0.3056	
-0.991006	-0.069174	0.184708	8.82	1.89	2.59	0.36	0.1144	-0.3042	
-0.989664	-0.080398	0.18056	11.62	4.06	2.8	0.3601	0.1066	-0.3057	
-0.985272	-0.084424	0.188978	14.07	8.68	3.01	0.363	0.1143	-0.3144	
-0.992226	-0.09699	0.189832	10.57	7.07	4.97	0.3511	0.1098	-0.3115	
-0.994178	-0.099064	0.19398	11.55	7.28	6.16	0.363	0.1112	-0.3086	
-0.986614	-0.10187	0.192028	13.58	5.18	8.12	0.3601	0.1097	-0.313	
-0.990884	-0.096136	0.19093	14.56	4.13	8.61	0.3646	0.1034	-0.3058	
-0.984418	-0.084058	0.190442	18.34	3.92	8.82	0.3556	0.1066	-0.3087	
-0.978928	-0.08357	0.187636	20.02	3.57	8.68	0.3542	0.1021	-0.3	
-0.987224	-0.076372	0.199592	22.47	3.22	7.49	0.3589	0.0895	-0.303	
-0.990274	-0.05795	0.182512	25.34	2.38	6.23	0.3707	0.0955	-0.3058	
-0.998814	-0.049654	0.175314	24.5	2.24	6.37	0.3633	0.0909	-0.3088	
-1.006622	-0.039162	0.181414	25.76	3.01	7.14	0.3603	0.0927	-0.2928	
-0.99979	-0.037088	0.17568	26.11	3.43	7.14	0.3648	0.0878	-0.3016	
-0.99613	-0.039528	0.169824	26.18	4.34	8.96	0.3708	0.0862	-0.303	
-1.0065	-0.027084	0.161894	25.97	2.31	9.03	0.3709	0.07669999	-0.3075	
-1.00955	-0.008784	0.17263	25.9	0.84	9.87	0.3592	0.06439999	-0.3091	
-1.007598	0.006832	0.163236	27.86	0.56	12.6	0.371	0.0673	-0.309	
-1.009062	0.01281	0.154208	28.42	0.28	14.63	0.3666	0.0659	-0.3076	
-1.009306	0.01525	0.16226	27.37	-0.7	14.63	0.3637	0.0581	-0.3062	
-1.00528	0.010858	0.157746	29.54	1.61	14.7	0.3668	0.0439	-0.3137	
-0.976488	0.004026	0.16287	24.57	7.35	11.55	0.3697	0.0565	-0.3033	
-0.989054	0.005856	0.165798	31.01	-0.28	18.27	0.3801	0.0516	-0.3077	
-0.989786	0.016836	0.174582	36.54	3.5	17.43	0.3699	0.0393	-0.3021	
-1.01077	0.042334	0.168726	34.72	2.17	16.59	0.3625	0.041	-0.3006	
-0.99308	0.013176	0.16409	44.1	0.77	17.43	0.3729	0.036	-0.3108	
-0.999912	0.065026	0.15311	47.95	-1.61	17.99	0.376	0.0235	-0.308	
-1.006134	0.06222	0.155184	52.64	-1.33	19.39	0.3761	0.0125	-0.3183	
-1.00345	0.06039	0.142008	53.97	-5.04	21.35	0.3792	0.0094	-0.3067	
-0.992226	0.09089	0.137616	56.35	-5.25	22.33	0.3794	-0.0061	-0.3083	
-1.009916	0.084302	0.15067	51.1	-1.19	32.41	0.3779	-0.0076	-0.3069	
-1.011136	0.105164	0.129808	59.85	-7.98	24.01	0.3811	-0.0217	-0.3041	
-1.002962	0.114314	0.147864	48.37	-8.89	21.28	0.3739	-0.0388	-0.3043	
-0.994788	0.14213	0.155916	51.38	-9.1	35.7	0.3664	-0.0357	-0.3145	
-1.008574	0.166408	0.141154	33.67	-3.43	28.35	0.371	-0.0452	-0.3146	
-0.976244	0.126148	0.155916	37.45	-15.54	39.41	0.3682	-0.0607	-0.309	
-1.001986	0.17812	0.132492	48.44	-16.73	32.06	0.3668	-0.0637	-0.3032	
-0.977586	0.219234	0.13969	42.84	-16.8	32.83	0.3669	-0.0763	-0.3077	
