Sensor string: E
Serial number: 1970-01-54529916
Firmware version: NaN
Hardware version: 6,240235E-38
Calibration quality: 204
ax	ay	az	gx	gy	gz	mx	my	mz

-0.950502	0.03538	0.34038	-0.56	-0.28	0	0.3436	0.0323	-0.3668	Reference
-0.952332	0.035014	0.335378	-0.56	0.07	0.21	0.3307	0.0282	-0.3699	
-0.949892	0.035746	0.337818	-0.42	-0.07	0.21	0.3306	0.0299	-0.3606	
-0.950136	0.035624	0.337574	-0.14	0.14	0.07	0.3425	0.0216	-0.3748	
-0.9516	0.036722	0.338306	0.14	-0.14	-0.07	0.3334	0.0341	-0.3729	
-0.950868	0.0366	0.33916	0.28	-0.21	-0.07	0.3275	0.0374	-0.3697	
-0.95099	0.03599	0.339648	0.21	-0.21	-0.21	0.3259	0.0404	-0.3712	
-0.947574	0.034892	0.339038	0.14	-0.14	-0.21	0.3318	0.0387	-0.3728	
-0.951722	0.033916	0.335744	-0.07	0.14	-0.21	0.3432	0.0428	-0.3712	
-0.951722	0.036234	0.338062	0.14	0	-0.14	0.3231	0.0377	-0.3635	
-0.951356	0.034404	0.33672	0.28	-0.28	-0.14	0.3349	0.0327	-0.3652	
-0.949648	0.033672	0.337818	0.28	-0.42	-0.14	0.3391	0.0342	-0.359	
-0.951478	0.035624	0.33916	0.28	-0.14	0.07	0.3279	0.0268	-0.37	
-0.950868	0.036234	0.338916	0.14	-0.35	0	0.319	0.0317	-0.3698	
-0.949282	0.034648	0.340258	0.21	-0.21	0	0.3438	0.0277	-0.3715	
-0.949038	0.035502	0.341112	0.14	-0.14	0.14	0.3303	0.0388	-0.3713	
-0.94977	0.034892	0.339404	0	-0.07	0.21	0.3319	0.0343	-0.3636	
-0.950624	0.035136	0.338062	-0.21	0.07	0.28	0.3375	0.0387	-0.3635	
-0.9516	0.035502	0.338916	-0.28	0.07	0.28	0.3275	0.0359	-0.3682	
-0.950136	0.036234	0.339404	-0.14	0.14	0.35	0.3379	0.0296	-0.3653	
-0.950136	0.037332	0.337818	-0.28	0.07	0.28	0.3379	0.0293	-0.3761	
-0.951356	0.037942	0.338184	-0.28	0.21	0.35	0.3321	0.0311	-0.3745	
-0.951356	0.03721	0.337696	-0.21	0	0.42	0.3374	0.0416	-0.3666	
-0.951234	0.037332	0.337452	-0.21	0.07	0.35	0.3261	0.0358	-0.3744	
-0.95282	0.036844	0.337086	-0.14	-0.21	0.28	0.3289	0.0374	-0.3682	
-0.95099	0.037454	0.338306	0	-0.28	0.35	0.3334	0.0343	-0.3652	
-0.950502	0.039162	0.336598	-0.14	-0.21	0.49	0.3307	0.0297	-0.3715	
-0.951844	0.039406	0.334524	-0.21	-0.28	0.49	0.3405	0.0385	-0.3666	
-0.951234	0.039162	0.336842	-0.21	-0.28	0.42	0.3423	0.0292	-0.3746	
-0.9516	0.042212	0.332816	-0.21	-0.63	0.21	0.3289	0.0373	-0.3728	
-0.953064	0.041846	0.331352	-0.63	-0.42	0.28	0.339	0.0384	-0.3728	
-0.954162	0.03965	0.3294	-0.91	-0.84	0.14	0.3376	0.0371	-0.3636	
-0.958066	0.042944	0.324764	-0.98	-1.19	-0.28	0.3286	0.0462	-0.3788	
-0.95221	0.047092	0.325374	-1.4	-1.96	-0.42	0.3303	0.0403	-0.3681	
-0.95343	0.047092	0.325496	-2.1	-1.47	-0.07	0.3401	0.0491	-0.3649	
-0.959896	0.046238	0.319152	-2.66	-1.54	-0.07	0.3263	0.0298	-0.373	
-0.959774	0.04758	0.314638	-3.08	-2.59	-0.21	0.3332	0.0387	-0.3697	
-0.96258	0.045872	0.312808	-3.29	-3.08	-0.42	0.3334	0.0327	-0.3683	
-0.96929	0.047946	0.311832	-3.5	-3.99	-0.56	0.3302	0.0418	-0.3712	
-0.967704	0.047824	0.309392	-3.43	-5.53	-1.05	0.3335	0.0325	-0.3745	
-0.96624	0.043676	0.314272	-3.36	-6.51	-1.4	0.3318	0.0386	-0.3759	
-0.964898	0.043188	0.314394	-3.57	-7.42	-1.61	0.3317	0.0401	-0.3759	
-0.964898	0.040382	0.315248	-3.15	-8.12	-1.82	0.3331	0.043	-0.3805	
-0.965874	0.039284	0.31781	-2.8	-9.59	-2.38	0.329	0.0357	-0.376	
-0.96319	0.038796	0.3172	-2.66	-10.15	-2.59	0.329	0.0357	-0.376	
-0.960994	0.04087	0.320616	-2.45	-11.27	-2.94	0.3229	0.045	-0.3757	
-0.961848	0.038552	0.321592	-3.43	-11.97	-3.08	0.3271	0.0479	-0.3741	
-0.95648	0.03477	0.326228	-3.5	-13.37	-3.29	0.3142	0.0451	-0.385	
-0.953918	0.02867	0.336598	-3.57	-14.77	-3.29	0.3245	0.0431	-0.3897	
-0.954162	0.026108	0.337818	-2.73	-15.89	-3.36	0.3201	0.0447	-0.3928	
-0.956114	0.0244	0.346358	-2.31	-16.73	-3.29	0.3157	0.0452	-0.3773	
-0.9516	0.023058	0.34953	-2.17	-18.55	-3.78	0.3156	0.048	-0.3865	
-0.945744	0.020862	0.358802	-2.03	-20.02	-4.06	0.2966	0.0534	-0.3832	
-0.946232	0.02074	0.362218	-1.68	-20.65	-4.34	0.3213	0.0492	-0.3911	
-0.949404	0.021838	0.369172	-1.68	-22.19	-4.48	0.3013	0.0452	-0.4051	
-0.94733	0.024888	0.372344	-1.19	-24.01	-5.04	0.3043	0.0421	-0.4005	
-0.935252	0.02257	0.37942	-1.89	-25.34	-5.67	0.2996	0.0516	-0.3894	
-0.921588	0.020252	0.39162	-2.17	-26.81	-6.02	0.2985	0.0422	-0.4083	
-0.912438	0.01708	0.40138	-2.38	-27.86	-6.09	0.2883	0.0456	-0.4081	
-0.909266	0.012322	0.411872	-2.38	-29.19	-6.16	0.2909	0.053	-0.4111	
-0.905484	0.010858	0.41541	-2.38	-30.87	-6.58	0.2867	0.0502	-0.408	
-0.908046	0.014396	0.437004	-1.4	-32.34	-7.35	0.278	0.0504	-0.4142	
-0.899384	0.016958	0.449814	-0.98	-34.09	-8.4	0.2753	0.0446	-0.4081	
-0.896212	0.012078	0.462624	-1.12	-34.51	-8.82	0.2589	0.0586	-0.417	
-0.889136	0.011102	0.476898	-1.75	-35.35	-8.68	0.2588	0.0615	-0.4216	
-0.87535	0.00671	0.489098	-3.36	-35.28	-8.75	0.2559	0.0617	-0.4185	
-0.850218	-0.006344	0.510082	-4.9	-34.16	-8.33	0.2581	0.0434	-0.4236	
-0.833138	-0.019276	0.525698	-5.32	-32.83	-7.77	0.2561	0.0568	-0.4341	
-0.823866	-0.024766	0.530944	-4.83	-30.45	-7.49	0.2415	0.0607	-0.4216	
-0.818132	-0.027328	0.531432	-5.32	-29.82	-7.7	0.2387	0.059	-0.434	
-0.815814	-0.033184	0.541924	-5.81	-28.21	-7.35	0.2256	0.0625	-0.4354	
-0.812276	-0.040626	0.553148	-6.37	-27.23	-6.72	0.2386	0.0619	-0.4401	
-0.805078	-0.049044	0.562542	-6.58	-27.65	-6.02	0.2185	0.0608	-0.4556	
-0.796782	-0.056974	0.570594	-6.65	-26.18	-4.55	0.2198	0.0641	-0.44	
-0.795196	-0.056974	0.5734	-7.35	-25.62	-3.71	0.2186	0.0566	-0.4402	
-0.795318	-0.058194	0.578036	-6.65	-25.06	-3.15	0.2097	0.0629	-0.4431	
-0.79605	-0.05795	0.58194	-6.93	-25.13	-2.66	0.2183	0.0654	-0.4539	
-0.779214	-0.060634	0.591822	-6.51	-26.11	-2.1	0.2025	0.0617	-0.4431	
-0.768722	-0.057584	0.600728	-6.09	-26.11	-1.82	0.215	0.0763	-0.4428	
-0.761036	-0.05307	0.600972	-5.18	-25.34	-1.89	0.2007	0.0721	-0.4522	
-0.757498	-0.054046	0.61122	-4.27	-25.97	-2.24	0.1978	0.0709	-0.4429	
-0.750544	-0.053192	0.61976	-4.62	-26.18	-2.73	0.1978	0.0736	-0.4552	
-0.740418	-0.051728	0.624274	-3.71	-27.58	-3.5	0.1935	0.07229999	-0.4552	
-0.73871	-0.052826	0.632814	-2.8	-27.37	-4.27	0.1787	0.0817	-0.4658	
-0.732976	-0.046848	0.644404	-2.87	-27.16	-5.32	0.1789	0.0757	-0.4629	
-0.73139	-0.051606	0.65209	-3.64	-27.44	-6.02	0.1703	0.0744	-0.4675	
-0.716628	-0.053802	0.666974	-3.08	-28.07	-6.16	0.1777	0.0696	-0.4676	
-0.701256	-0.05795	0.68015	-3.01	-28.91	-6.44	0.1715	0.0806	-0.4612	
-0.688934	-0.067222	0.69296	-3.85	-28.84	-6.65	0.1775	0.0771	-0.469	
-0.686738	-0.077714	0.696132	-4.2	-28.28	-7	0.1731	0.0772	-0.4752	
-0.684542	-0.082838	0.704184	-5.32	-27.72	-7.7	0.1528	0.081	-0.475	
-0.673684	-0.088206	0.716994	-5.04	-28.14	-7.56	0.1469	0.0828	-0.4688	
-0.659166	-0.090646	0.73078	-5.32	-27.65	-7.28	0.1486	0.0752	-0.469	
-0.655506	-0.096014	0.735782	-5.81	-27.16	-6.37	0.1354	0.0818	-0.4688	
-0.644892	-0.101138	0.751276	-6.37	-25.13	-5.74	0.135	0.09079999	-0.4686	
-0.635742	-0.103578	0.755424	-6.79	-23.94	-5.53	0.1338	0.0862	-0.4764	
-0.625006	-0.107726	0.760548	-7	-22.89	-5.11	0.1279	0.0893	-0.4841	
-0.61915	-0.107604	0.77714	-7.77	-20.65	-4.9	0.1262	0.0954	-0.4839	
-0.61488	-0.113094	0.793366	-7.07	-20.79	-4.83	0.1282	0.0806	-0.4672	
-0.599264	-0.115656	0.79788	-6.86	-20.72	-4.48	0.1151	0.0838	-0.481	
-0.595726	-0.116266	0.79605	-7	-19.67	-4.2	0.1206	0.091	-0.484	
-0.590236	-0.117974	0.7991	-6.65	-16.87	-3.92	0.1091	0.0884	-0.4856	
-0.586332	-0.123952	0.802394	-6.72	-15.75	-3.43	0.1073	0.0992	-0.4807	
-0.587918	-0.125904	0.798612	-6.79	-14.21	-2.94	0.1059	0.0976	-0.4869	
-0.581086	-0.13115	0.799344	-7	-13.02	-2.52	0.097	0.1042	-0.4759	
-0.576816	-0.13908	0.807396	-6.02	-11.06	-1.96	0.107	0.1068	-0.4774	
-0.580354	-0.13542	0.798002	-3.71	-10.57	-1.61	0.106	0.0946	-0.4839	
-0.580842	-0.129686	0.793122	-3.36	-10.01	-1.82	0.0959	0.0936	-0.4777	
-0.58499	-0.1342	0.793854	-3.36	-8.47	-1.75	0.1002	0.0947	-0.4885	
-0.59658	-0.133834	0.79544	-1.47	-8.89	-1.75	0.0969	0.1056	-0.482	
-0.601216	-0.13054	0.799222	-0.77	-9.52	-1.54	0.1014	0.1023	-0.4852	
-0.60268	-0.129076	0.808006	-0.14	-8.47	-1.12	0.0902	0.0924	-0.4746	
-0.596824	-0.130784	0.808616	0.91	-8.96	-0.63	0.0856	0.0985	-0.4775	
-0.591578	-0.13237	0.81496	1.89	-8.47	-0.14	0.0781	0.1064	-0.4773	
-0.587674	-0.126636	0.814716	2.24	-8.12	0.14	0.0812	0.1015	-0.4898	
-0.58194	-0.121756	0.813252	1.82	-7.56	-0.14	0.0942	0.1011	-0.4852	
-0.58255	-0.11956	0.811056	2.03	-6.93	0	0.08989999	0.0998	-0.4837	
-0.583038	-0.115168	0.805078	2.17	-6.37	0.14	0.0797	0.1033	-0.4789	
-0.582062	-0.10919	0.8052	1.75	-4.97	0.49	0.0871	0.097	-0.476	
-0.581818	-0.105164	0.800442	0.56	-4.41	0.63	0.0737	0.1067	-0.4726	
-0.581696	-0.105896	0.800808	-0.7	-3.99	0.42	0.0898	0.1015	-0.4744	
-0.582062	-0.107238	0.796904	-0.84	-3.78	0.63	0.0797	0.1017	-0.4836	
-0.585234	-0.110532	0.798368	-1.54	-2.59	0.7	0.0841	0.1014	-0.4883	
-0.578646	-0.109068	0.793122	-2.59	-3.29	0.35	0.08419999	0.0986	-0.476	
-0.579866	-0.109922	0.792268	-3.36	-2.03	0.42	0.0872	0.09559999	-0.4729	
-0.57889	-0.114924	0.795196	-3.85	-1.89	0.35	0.0856	0.09999999	-0.4821	
-0.58377	-0.119438	0.787266	-3.92	-3.43	-0.28	0.0796	0.1062	-0.4835	
-0.587796	-0.122854	0.787144	-3.78	-4.13	-0.84	0.0742	0.0958	-0.4837	
-0.58499	-0.123952	0.79117	-3.57	-4.2	-1.4	0.0735	0.114	-0.4818	
-0.5795	-0.122854	0.797392	-3.78	-4.62	-1.89	0.0706	0.1141	-0.4802	
-0.573644	-0.126514	0.798246	-3.92	-5.39	-1.75	0.0828	0.0971	-0.4775	
-0.566324	-0.133468	0.80032	-3.64	-5.18	-1.4	0.0871	0.0984	-0.4806	
-0.562908	-0.134078	0.806908	-3.43	-5.11	-1.33	0.0748	0.1185	-0.4817	
-0.562054	-0.141398	0.812642	-3.36	-4.76	-1.19	0.0738	0.1062	-0.4912	
-0.55693	-0.14396	0.82106	-2.52	-4.69	-1.26	0.0793	0.1137	-0.4849	
-0.551806	-0.149084	0.822768	-1.82	-4.69	-1.4	0.0669	0.0961	-0.4837	
-0.55144	-0.152622	0.833992	-1.47	-3.78	-1.4	0.0649	0.1112	-0.4864	
-0.542656	-0.153232	0.832894	-0.56	-4.2	-1.61	0.0664	0.1112	-0.4834	
-0.547536	-0.15067	0.83387	0.28	-3.85	-1.33	0.077	0.0972	-0.4853	
-0.546194	-0.14945	0.835822	0.07	-3.08	-1.12	0.0637	0.1055	-0.4742	
-0.537166	-0.149206	0.834724	0.21	-2.24	-0.7	0.0654	0.0977	-0.4821	
-0.536068	-0.147864	0.83509	0.21	-1.05	-0.14	0.0722	0.1109	-0.4896	
-0.537288	-0.146522	0.836066	-0.35	0.14	0.21	0.0633	0.1157	-0.4894	
-0.53863	-0.148962	0.835456	-0.7	0.7	0.21	0.07099999	0.1021	-0.4805	
-0.540948	-0.14884	0.844362	-0.28	1.68	0.42	0.0708	0.1068	-0.4695	
-0.541314	-0.14701	0.842288	-0.42	2.38	0.98	0.0665	0.1069	-0.4742	
-0.546194	-0.152256	0.848388	-0.98	4.34	1.47	0.0765	0.1095	-0.4772	
-0.543266	-0.153842	0.854244	-0.63	4.97	1.61	0.075	0.1126	-0.4741	
-0.543388	-0.152622	0.857294	0.28	5.88	1.89	0.0679	0.1083	-0.4757	
-0.539972	-0.15433	0.85949	0.28	7.21	1.89	0.0637	0.1067	-0.4896	
-0.543876	-0.151646	0.862784	1.12	8.26	2.24	0.065	0.107	-0.4695	
-0.543754	-0.149206	0.86559	1.54	9.38	2.45	0.078	0.1095	-0.4726	
-0.545462	-0.150304	0.866444	1.96	11.13	2.94	0.0697	0.0977	-0.4759	
-0.540826	-0.152134	0.872788	2.1	13.37	3.5	0.0782	0.1047	-0.4866	
-0.541436	-0.151524	0.866932	3.08	14.14	3.71	0.0814	0.0942	-0.476	
-0.540216	-0.148474	0.86681	3.29	16.1	4.06	0.081	0.1076	-0.485	
-0.541558	-0.148108	0.858392	3.36	18.06	4.55	0.0942	0.1013	-0.4759	
-0.546438	-0.151158	0.858148	3.57	19.32	4.69	0.094	0.1071	-0.4851	
-0.54473	-0.14945	0.852048	3.71	20.44	4.76	0.0931	0.0922	-0.4808	
-0.547902	-0.147254	0.849608	4.69	23.03	5.11	0.0972	0.0981	-0.4791	
-0.554246	-0.143472	0.838872	4.9	23.31	5.46	0.1032	0.0919	-0.4746	
-0.557052	-0.13847	0.832894	4.76	24.85	6.23	0.1044	0.098	-0.4683	
-0.560102	-0.135054	0.827282	4.69	26.6	6.79	0.1084	0.1082	-0.4774	
-0.562786	-0.132858	0.822524	4.69	28.63	7	0.11	0.1036	-0.479	
-0.572424	-0.127124	0.816424	5.25	30.03	7.21	0.1131	0.0975	-0.4761	
-0.584624	-0.121512	0.800198	6.09	31.36	7.49	0.1273	0.1048	-0.4636	
-0.59597	-0.122244	0.793122	6.16	33.88	8.12	0.1306	0.0938	-0.4762	
-0.60573	-0.114436	0.783972	7.14	34.02	8.33	0.1364	0.0938	-0.4669	
-0.611098	-0.101748	0.761402	7.28	34.86	8.47	0.1391	0.0981	-0.4731	
-0.62159	-0.092232	0.747616	6.79	38.43	8.89	0.1332	0.1014	-0.4699	
-0.633668	-0.08723	0.745176	6.37	40.32	8.75	0.164	0.0883	-0.4641	
-0.634522	-0.082594	0.7259	6.02	40.81	8.61	0.1642	0.0823	-0.4642	
-0.646478	-0.07808	0.711626	5.81	43.19	8.89	0.1788	0.0803	-0.4612	
-0.659654	-0.075884	0.696864	5.53	46.34	9.31	0.1743	0.0848	-0.4673	
-0.677344	-0.070638	0.671732	5.39	47.95	9.38	0.1878	0.0721	-0.4723	
-0.691862	-0.066002	0.651846	4.62	50.68	9.45	0.1844	0.0832	-0.4534	
-0.70394	-0.058438	0.637084	3.99	52.22	9.73	0.1962	0.0769	-0.4489	
-0.707478	-0.049288	0.62281	3.71	53.55	10.08	0.2076	0.0796	-0.4427	
-0.711748	-0.047214	0.607072	2.31	57.33	10.5	0.2074	0.0869	-0.4519	
-0.72224	-0.048434	0.582184	1.61	59.22	10.92	0.2138	0.0702	-0.4476	
-0.734196	-0.043554	0.552538	1.54	61.74	11.48	0.2297	0.0682	-0.4415	
-0.76189	-0.038064	0.51606	2.03	63.77	11.69	0.2396	0.0727	-0.4275	
-0.789096	-0.036356	0.490684	3.08	64.05	11.41	0.25	0.0677	-0.4307	
-0.824964	-0.034404	0.479094	3.64	63.63	11.2	0.2511	0.0753	-0.4228	
-0.835578	-0.029768	0.462868	5.11	61.32	11.06	0.277	0.0791	-0.4135	
-0.848632	-0.022936	0.444568	6.72	57.75	10.5	0.273	0.0687	-0.4107	
-0.851438	-0.019276	0.426268	8.33	56.49	10.01	0.2802	0.07	-0.4076	
-0.85644	-0.008174	0.410896	8.47	59.08	9.94	0.286	0.0682	-0.4107	
-0.853512	-0.002928	0.394304	8.54	61.46	10.08	0.2949	0.0621	-0.3985	
-0.861198	0.006588	0.368074	7.63	61.67	10.78	0.3049	0.065	-0.3892	
-0.872544	0.010492	0.342576	6.16	63.21	11.34	0.3136	0.0618	-0.3831	
-0.901824	0.014762	0.328546	5.32	64.96	11.27	0.3309	0.0628	-0.3754	
-0.904996	0.024522	0.29768	6.79	62.16	11.27	0.3414	0.0521	-0.3648	
-0.931592	0.024888	0.268034	5.67	59.15	10.29	0.3285	0.0495	-0.3648	
-0.93757	0.021228	0.24095	5.81	58.52	9.59	0.343	0.0476	-0.3587	
-0.943792	0.017568	0.205448	1.82	57.68	8.47	0.3512	0.0595	-0.3523	
-0.96502	0.016836	0.163846	0.98	55.37	7.35	0.3531	0.0458	-0.3526	
-0.988688	0.012078	0.131272	0	53.83	6.16	0.3642	0.0594	-0.3353	
-1.018334	0.01769	0.10919	3.22	53.48	6.86	0.3705	0.0442	-0.3279	
-1.045296	0.03538	0.094062	6.72	48.16	6.16	0.3813	0.0636	-0.3213	
-1.064084	0.041602	0.083204	8.4	43.61	4.06	0.3891	0.0482	-0.3201	
-1.043588	0.044164	0.07381	7.35	39.34	2.87	0.3775	0.0501	-0.3216	
-1.033462	0.038064	0.077958	9.66	37.1	1.47	0.3801	0.0548	-0.3091	
-1.025166	0.045018	0.078202	9.45	36.47	1.47	0.3951	0.0395	-0.294	
-1.008574	0.047214	0.0793	8.89	34.23	1.61	0.3975	0.0545	-0.2937	
-1.00101	0.047336	0.07625	7.98	36.12	2.87	0.3949	0.0454	-0.2985	
-0.99735	0.036722	0.069906	6.72	38.64	3.64	0.4051	0.0437	-0.2908	
-0.994178	0.031964	0.060756	4.9	40.95	4.27	0.4035	0.0469	-0.2877	
-0.983442	0.029646	0.048922	3.92	41.79	4.27	0.4136	0.044	-0.2645	
-0.980148	0.033184	0.028548	0.84	43.82	5.25	0.423	0.0254	-0.2696	
-0.975878	0.04392	0.00183	-3.78	45.36	6.79	0.4196	0.0378	-0.2616	
-0.977342	0.045872	-0.027938	-9.38	47.39	5.95	0.4341	0.0386	-0.2678	
-1.008452	0.0549	-0.05734	-5.74	48.72	7.14	0.4294	0.0467	-0.249	
-1.11203	0.078812	-0.073566	-2.38	45.43	6.79	0.4354	0.0407	-0.2399	
-1.07909	0.066124	-0.102236	-4.13	43.96	8.33	0.4327	0.0349	-0.2307	
-1.072868	0.061976	-0.106994	3.36	39.41	7.28	0.443	0.0285	-0.2309	
-1.04066	0.059048	-0.09942999	8.4	38.29	5.67	0.443	0.0272	-0.2232	
-1.03212	0.048068	-0.083692	17.15	31.01	1.68	0.45	0.033	-0.2184	
-1.075674	0.071736	-0.035258	10.99	4.97	-2.45	0.4529	0.0332	-0.206	
-1.042978	0.069906	-0.086986	6.86	-2.1	-3.99	0.4486	0.0303	-0.2061	
-1.066402	0.096014	-0.141032	6.93	0.56	-4.13	0.4418	0.0201	-0.2047	
-1.04005	0.082472	-0.130784	9.52	-2.17	-6.23	0.4441	0.0378	-0.2167	
-1.042612	0.078324	-0.113704	10.36	8.68	-5.67	0.4426	0.0378	-0.2214	
-1.05408	0.07686	-0.116266	13.58	12.67	-5.39	0.4558	0.0315	-0.2092	
-1.029314	0.051972	-0.09882	17.5	8.26	-7.49	0.443	0.0287	-0.2231	
-1.016626	0.032574	-0.063928	21	8.12	-8.82	0.4471	0.0347	-0.2137	
-1.013088	0.020862	-0.047824	17.64	10.36	-9.66	0.4371	0.0306	-0.2122	
-1.014796	0.031842	-0.07625	13.16	11.55	-11.69	0.4516	0.0299	-0.2185	
-1.02541	0.04819	-0.099064	11.69	8.61	-14	0.4528	0.0346	-0.2091	
-1.011258	0.055388	-0.10736	9.38	9.17	-14	0.4567	0.0467	-0.2011	
-0.981002	0.05002	-0.115168	3.71	11.27	-11.83	0.4427	0.0337	-0.1982	
-1.0126	0.046116	-0.139324	-0.14	11.62	-9.87	0.4525	0.0438	-0.2027	
-1.099464	0.04453	-0.173606	-5.25	11.06	-8.68	0.448	0.0471	-0.1979	
-1.163514	0.068564	-0.222284	1.96	2.87	-8.96	0.4553	0.0452	-0.2042	
-1.110078	0.069052	-0.241804	3.85	-9.87	-8.96	0.4539	0.0437	-0.2058	
-1.080432	0.047824	-0.220698	14	-21.14	-8.12	0.4541	0.0391	-0.209	
-1.065548	0.019886	-0.122488	26.25	-19.04	-4.27	0.4484	0.0377	-0.2136	
-1.043954	0.02501	-0.058072	32.2	-9.52	-0.77	0.4478	0.0558	-0.2163	
-0.999302	0.02806	-0.062342	20.37	-5.46	-1.75	0.4414	0.0318	-0.2199	
-0.988444	0.032086	-0.086498	12.88	-0.49	-1.4	0.4364	0.05	-0.2226	
-0.991006	0.027816	-0.092354	6.58	-1.26	-1.68	0.4366	0.0441	-0.2181	
-1.012478	0.020618	-0.087352	1.61	-0.35	-1.19	0.4484	0.0376	-0.2167	
-1.026386	0.000854	-0.08418	-1.33	0.07	-0.28	0.4398	0.0366	-0.2105	
-1.013332	-0.013176	-0.078568	0.49	-1.68	-1.26	0.4529	0.033	-0.2138	
-1.003694	0.000976	-0.07991	0	-2.87	-2.8	0.4554	0.0448	-0.2213	
-1.01748	0.00854	-0.106262	-4.62	-0.56	-2.52	0.4452	0.0453	-0.2166	
-1.054202	-0.001342	-0.122	-6.58	-0.28	-1.54	0.4496	0.0437	-0.2151	
-1.0797	-0.006344	-0.108336	-3.5	-2.24	-1.33	0.4412	0.0377	-0.226	
-1.061278	0.001098	-0.098088	-0.63	-7.49	-2.24	0.444	0.0409	-0.2136	
-1.031876	0.00976	-0.089914	0.49	-8.89	-2.31	0.4469	0.0406	-0.2244	
-1.01992	0.010004	-0.082472	-0.21	-5.18	-1.89	0.4455	0.039	-0.2275	
-1.020408	0.005734	-0.094794	-2.66	-2.38	-0.7	0.4483	0.042	-0.2244	
-1.021262	0.001464	-0.094794	-4.69	-4.13	0.28	0.441	0.0439	-0.2212	
-1.037	-0.00061	-0.09747799	-4.55	-4.55	0.84	0.4482	0.0451	-0.2197	
-1.040538	-0.012322	-0.122244	-7.14	3.99	2.38	0.4422	0.0484	-0.218	
-1.047614	-0.020984	-0.077714	-3.15	-5.53	1.82	0.4482	0.0435	-0.2244	
-1.052372	-0.011956	-0.09638	-1.26	-12.46	0.35	0.4369	0.0364	-0.226	
-1.039684	0.002684	-0.097966	-0.91	-10.5	0	0.4349	0.0517	-0.2195	
-1.023946	-0.00305	-0.085644	-3.71	-9.1	1.05	0.4381	0.0453	-0.2305	
-1.038586	-0.012078	-0.086254	-4.34	-9.66	1.54	0.4324	0.0412	-0.2213	
-1.049322	-0.01586	-0.080886	-3.01	-12.25	1.12	0.4395	0.0468	-0.2289	
-1.040416	-0.014274	-0.061976	-1.75	-14.14	0.56	0.4326	0.0379	-0.2322	
-1.021018	-0.014396	-0.05246	-1.47	-14.28	0.63	0.4338	0.0424	-0.2305	
-1.00467	-0.016104	-0.041846	-1.89	-13.3	0.63	0.4409	0.0494	-0.2443	
-1.00894	-0.01769	-0.03904	-2.03	-14.14	0.14	0.4364	0.0527	-0.2381	
-1.029436	-0.01281	-0.041968	-1.54	-14.77	-0.91	0.4408	0.0497	-0.2304	
-1.037976	-0.001952	-0.035746	-0.77	-16.24	-1.05	0.441	0.0448	-0.2491	
-1.026386	0.003538	-0.036112	-0.35	-18.9	-0.7	0.4429	0.0342	-0.2447	
-1.031876	0.000244	-0.030378	-0.35	-17.43	-0.35	0.4278	0.0499	-0.2443	
-1.042124	-0.002562	-0.023302	-0.07	-18.27	-0.07	0.4352	0.0451	-0.2444	
-1.037976	0.000854	-0.017568	0.84	-20.44	-0.63	0.428	0.0438	-0.246	
-1.031388	0.005246	-0.016104	-0.14	-21.14	-0.63	0.4265	0.0482	-0.2567	
-1.038708	0.003538	-0.015006	-2.1	-19.25	-0.56	0.425	0.0482	-0.2567	
-1.04249	0.004636	-0.012932	-3.5	-20.02	-0.56	0.4193	0.0469	-0.2583	
-1.037854	0.011468	-0.003782	-5.18	-26.04	-0.91	0.4149	0.0501	-0.2597	
-1.02968	0.012078	0.000122	-9.94	-30.94	-1.47	0.4177	0.0526	-0.2752	
-1.032486	0.006222	0.02379	-11.76	-30.24	-1.33	0.4146	0.0587	-0.2766	
-1.011258	0.000854	0.047214	-5.95	-30.66	-1.19	0.4067	0.0379	-0.2786	
-1.01931	0.007564	0.026718	-4.48	-34.16	-1.68	0.4082	0.0377	-0.2863	
-1.02419	0.010248	0.040382	-6.23	-34.09	-1.89	0.4136	0.0466	-0.283	
-1.02663	0.0061	0.061366	-5.6	-33.74	-2.45	0.3976	0.0501	-0.2891	
-1.02663	0.004392	0.066612	-4.76	-36.75	-3.43	0.4088	0.0588	-0.2828	
-1.026264	0	0.07991	-4.83	-37.94	-3.85	0.4047	0.0556	-0.2999	
-1.012722	-0.008052	0.103822	-4.27	-37.45	-4.06	0.3976	0.0513	-0.303	
-1.003084	-0.006222	0.12383	-2.8	-36.89	-3.99	0.3958	0.062	-0.2997	
-0.99613	-0.00366	0.140178	-2.59	-35.35	-4.06	0.3759	0.052	-0.306	
-0.992836	-0.00915	0.156038	-2.8	-32.97	-4.48	0.3772	0.0577	-0.3214	
-0.98698	-0.015006	0.168726	-3.22	-33.11	-4.9	0.3769	0.0653	-0.3197	
-0.98637	-0.017812	0.178608	-3.22	-32.62	-4.9	0.3689	0.0488	-0.3293	
-0.990152	-0.016714	0.187026	-3.92	-32.97	-4.13	0.3703	0.0502	-0.3308	
-0.99674	-0.017324	0.195444	-3.92	-33.46	-3.01	0.3699	0.062	-0.343	
-0.986736	-0.02318	0.20618	-4.48	-34.37	-1.96	0.3673	0.0546	-0.3431	
-0.984174	-0.028548	0.220942	-4.69	-33.95	-1.12	0.3573	0.0505	-0.3416	
-0.98393	-0.032696	0.235216	-4.55	-34.72	-0.84	0.3658	0.0546	-0.3431	
-0.97234	-0.0366	0.248392	-5.18	-36.19	-0.35	0.3544	0.0519	-0.3509	
-0.963922	-0.033184	0.264496	-5.11	-35.98	0.21	0.3453	0.0628	-0.3506	
-0.972218	-0.034404	0.287676	-6.16	-34.93	1.61	0.3438	0.0656	-0.3614	
-0.97051	-0.036112	0.292434	-7.07	-35.98	2.1	0.3383	0.0555	-0.3508	
-0.96075	-0.036966	0.298778	-7.28	-36.89	3.5	0.3368	0.0585	-0.3553	
-0.9516	-0.043188	0.309636	-7.49	-35.56	4.83	0.3208	0.0618	-0.3676	
-0.947086	-0.039528	0.335134	-3.5	-32.2	5.18	0.3267	0.0585	-0.3708	
-0.94123	-0.030378	0.332694	-3.78	-33.18	4.97	0.322	0.0679	-0.3659	
-0.925614	-0.021594	0.346724	-6.3	-33.88	4.48	0.3212	0.0511	-0.374	
-0.918172	-0.01769	0.358558	-8.26	-32.76	3.71	0.315	0.0648	-0.3799	
-0.919514	-0.021472	0.370514	-9.1	-33.6	2.94	0.3065	0.0603	-0.3955	
-0.901946	-0.019642	0.387716	-10.29	-32.83	2.31	0.3037	0.0588	-0.3986	
-0.900238	-0.021228	0.40748	-10.43	-31.57	1.4	0.296	0.0712	-0.3952	
-0.903776	-0.023302	0.408456	-8.26	-32.13	0.35	0.3035	0.0619	-0.3923	
-0.894382	-0.031354	0.425292	-9.1	-29.68	0.21	0.2892	0.0606	-0.4094	
-0.895968	-0.033184	0.438834	-8.05	-27.72	0	0.2903	0.0682	-0.4061	
-0.87657	-0.043432	0.454328	-8.4	-30.24	-0.42	0.2817	0.0684	-0.4092	
-0.876814	-0.0488	0.455182	-7.98	-30.59	-0.42	0.2812	0.0805	-0.412	
-0.862418	-0.047458	0.467382	-8.4	-30.38	-0.07	0.2687	0.066	-0.4061	
-0.85522	-0.05124	0.45994	-7.63	-30.87	0.35	0.2744	0.07009999	-0.4168	
-0.852902	-0.062952	0.47275	-6.79	-29.33	1.12	0.267	0.0735	-0.4105	
-0.853634	-0.063196	0.48251	-5.04	-28.35	1.26	0.2659	0.0657	-0.4247	
-0.848022	-0.05429	0.485194	-1.96	-30.52	0.28	0.2522	0.0846	-0.4118	
-0.833016	-0.043676	0.484584	-0.28	-31.29	0	0.257	0.072	-0.4276	
-0.824354	-0.03599	0.499834	0.7	-30.8	0.07	0.2567	0.07979999	-0.4181	
-0.818864	-0.032574	0.504348	1.26	-32.13	-0.07	0.2482	0.0768	-0.4305	
-0.815204	-0.033428	0.51179	1.61	-31.99	-0.07	0.2381	0.0755	-0.4383	
-0.798856	-0.032086	0.51728	1.12	-32.34	-0.07	0.2351	0.0802	-0.4335	
-0.789218	-0.03782	0.529358	1.61	-32.41	-0.49	0.2398	0.0694	-0.4384	
-0.774822	-0.040992	0.544974	2.73	-32.83	-0.77	0.2228	0.061	-0.437	
-0.778238	-0.037698	0.551806	3.78	-33.95	-1.33	0.2179	0.0747	-0.4413	
-0.76982	-0.036112	0.577304	2.94	-33.67	-1.61	0.2278	0.0805	-0.435	
-0.770186	-0.034892	0.590236	2.87	-34.44	-2.1	0.2167	0.0714	-0.4553	
-0.752618	-0.038796	0.607316	1.68	-35.7	-2.03	0.2106	0.0778	-0.4505	
-0.736392	-0.042334	0.618296	2.73	-35.98	-2.03	0.2067	0.0645	-0.4431	
-0.719068	-0.047214	0.643306	1.89	-33.74	-2.31	0.2124	0.0687	-0.4492	
-0.714066	-0.055266	0.663314	2.24	-33.04	-2.52	0.1935	0.0722	-0.4614	
-0.694912	-0.052582	0.675026	1.75	-34.23	-3.43	0.1895	0.0633	-0.4601	
-0.68015	-0.053802	0.697718	2.03	-34.72	-4.41	0.1861	0.077	-0.4582	
-0.668438	-0.051972	0.71126	1.05	-33.67	-4.97	0.182	0.0698	-0.4506	
-0.668194	-0.047946	0.71553	-0.28	-32.27	-4.13	0.1796	0.0589	-0.471	
-0.652944	-0.054412	0.721264	-1.75	-29.82	-3.22	0.1735	0.0669	-0.463	
-0.626714	-0.066124	0.731024	-3.78	-29.4	-2.66	0.1647	0.0703	-0.4598	
-0.626592	-0.067832	0.740174	-3.85	-28.14	-2.31	0.1601	0.0765	-0.4612	
-0.62708	-0.070638	0.748714	-4.34	-26.88	-2.1	0.1617	0.0734	-0.4613	
-0.634522	-0.076128	0.75701	-4.97	-25.76	-2.38	0.1543	0.0766	-0.4659	
-0.629886	-0.079544	0.762378	-5.46	-25.06	-2.73	0.15	0.0765	-0.4767	
-0.628788	-0.074786	0.774822	-5.6	-23.66	-3.64	0.1442	0.0782	-0.4766	
-0.628422	-0.071736	0.787144	-6.51	-22.33	-4.06	0.1433	0.0634	-0.4692	
-0.638548	-0.072834	0.790926	-6.3	-20.58	-3.57	0.1311	0.0788	-0.4735	
-0.636718	-0.07442	0.79483	-7.35	-18.27	-2.94	0.1356	0.0756	-0.4751	
-0.629154	-0.079178	0.79727	-9.03	-16.24	-2.24	0.118	0.0822	-0.478	
-0.619638	-0.084302	0.805688	-8.75	-13.79	-1.47	0.1281	0.08199999	-0.4718	
-0.618174	-0.084546	0.812764	-9.1	-12.67	-1.33	0.1182	0.0778	-0.4719	
-0.609512	-0.086742	0.815082	-9.03	-11.69	-1.47	0.1254	0.079	-0.475	
-0.610854	-0.089304	0.81252	-8.61	-10.29	-1.89	0.1166	0.0809	-0.4718	
-0.606096	-0.097234	0.810202	-8.47	-9.66	-2.45	0.1223	0.0822	-0.4734	
-0.606462	-0.10126	0.806054	-7.42	-8.19	-2.1	0.1089	0.0933	-0.47	
-0.61427	-0.100528	0.808982	-6.3	-6.72	-1.75	0.1149	0.0897	-0.4856	
-0.614758	-0.098332	0.802394	-5.11	-6.79	-1.33	0.1147	0.0929	-0.4762	
-0.613294	-0.096624	0.797758	-4.34	-5.74	-0.63	0.1176	0.0944	-0.4746	
-0.618052	-0.09699	0.796294	-2.94	-5.25	-0.35	0.1149	0.0898	-0.4825	
-0.621712	-0.096868	0.790072	-2.31	-6.16	-0.42	0.115	0.0853	-0.4795	
-0.622566	-0.09577	0.794952	-1.33	-6.37	-0.07	0.1135	0.08679999	-0.4856	
-0.620492	-0.096868	0.792268	-0.35	-6.58	-0.07	0.1158	0.1021	-0.4698	
-0.61732	-0.091378	0.790072	0.35	-5.95	-0.07	0.1077	0.0885	-0.484	
-0.623542	-0.092232	0.794342	0.07	-4.9	0.49	0.1075	0.0917	-0.4762	
-0.61488	-0.090402	0.796172	-0.07	-3.71	0.77	0.1048	0.0873	-0.4763	
-0.609512	-0.086986	0.793366	-0.35	-3.78	0.98	0.1135	0.0884	-0.4794	
-0.614514	-0.08845	0.786046	-0.21	-3.71	1.26	0.1016	0.09649999	-0.473	
-0.61976	-0.08784	0.792512	0.14	-2.45	1.19	0.1015	0.0981	-0.4683	
-0.61305	-0.084302	0.790926	0.28	-2.1	0.63	0.1102	0.099	-0.4853	
-0.612074	-0.08357	0.790194	0.07	-2.17	0.21	0.1032	0.0918	-0.4808	
-0.60573	-0.088938	0.78812	0.28	-1.54	0.49	0.1046	0.0932	-0.4808	
-0.616344	-0.085644	0.786534	0.84	-1.75	0.49	0.1045	0.0961	-0.4885	
-0.608902	-0.085644	0.785558	0.14	-1.61	0.07	0.0947	0.0889	-0.4886	
-0.605974	-0.0854	0.792512	-0.35	-0.91	-0.21	0.0991	0.0861	-0.4716	
-0.604998	-0.087596	0.789584	0.14	-0.77	-0.21	0.1031	0.09339999	-0.4761	
-0.608536	-0.089792	0.791902	0.14	0.28	0	0.0929	0.0967	-0.4791	
-0.60329	-0.091866	0.799222	-0.91	0.56	-0.14	0.1062	0.0887	-0.4794	
-0.607072	-0.094916	0.79544	-0.84	0.35	-0.21	0.1046	0.092	-0.47	
-0.610732	-0.098088	0.803004	-0.21	1.82	0.07	0.1135	0.0884	-0.4778	
-0.616344	-0.098088	0.80886	0.42	1.89	0	0.109	0.0902	-0.4716	
-0.608292	-0.093452	0.818376	0.21	2.52	-0.49	0.0986	0.09959999	-0.4744	
-0.606096	-0.095404	0.830698	0	4.27	-0.63	0.1104	0.0945	-0.4808	
-0.608536	-0.105164	0.838384	-0.21	5.39	-0.28	0.1094	0.08109999	-0.4733	
-0.596336	-0.11407	0.844484	0.49	6.72	0.28	0.1106	0.0883	-0.4871	
-0.58987	-0.116632	0.850706	1.68	8.82	0.63	0.1104	0.0945	-0.4823	
-0.590968	-0.115168	0.848022	2.24	10.22	0.84	0.1147	0.0944	-0.4793	
-0.579378	-0.11407	0.844362	2.38	12.53	1.54	0.1103	0.0961	-0.4777	
-0.57218	-0.112362	0.84363	2.73	14.7	1.82	0.1179	0.0867	-0.4825	
-0.572546	-0.107116	0.834968	3.08	16.17	1.89	0.1218	0.0958	-0.4715	
-0.577792	-0.109312	0.837774	2.94	18.62	1.89	0.1354	0.083	-0.4827	
-0.584014	-0.110776	0.837286	3.15	21.28	2.17	0.1197	0.0761	-0.4781	
-0.588894	-0.108214	0.824598	3.57	22.05	2.38	0.127	0.07449999	-0.472	
-0.595848	-0.11041	0.822646	3.99	25.06	3.15	0.1323	0.0862	-0.4795	
-0.604144	-0.107604	0.815204	4.9	26.32	3.15	0.1367	0.08329999	-0.4672	
-0.609512	-0.102236	0.802516	4.62	27.16	3.08	0.1321	0.0937	-0.4824	
-0.619638	-0.098454	0.796294	5.04	29.89	3.15	0.1453	0.0873	-0.4749	
-0.62464	-0.099186	0.781044	4.76	30.24	3.15	0.1468	0.0871	-0.4826	
-0.637694	-0.09638	0.774334	5.25	31.01	3.15	0.1483	0.08419999	-0.4719	
-0.64416	-0.086498	0.764086	5.18	33.39	3.5	0.1585	0.0823	-0.4735	
-0.645014	-0.091012	0.754448	4.41	34.51	3.85	0.1616	0.0763	-0.4674	
-0.647088	-0.091866	0.735904	4.41	36.05	4.76	0.1701	0.0792	-0.4566	
-0.652944	-0.085644	0.715774	4.34	39.27	4.76	0.1732	0.0758	-0.4706	
-0.665754	-0.073566	0.69601	5.04	41.09	4.55	0.1806	0.0682	-0.4599	
-0.675392	-0.063074	0.674538	4.76	42.56	4.76	0.1907	0.0692	-0.463	
-0.684176	-0.055998	0.65819	4.06	46.06	5.74	0.1949	0.075	-0.466	
-0.706868	-0.051728	0.634156	3.85	47.95	6.51	0.2004	0.0812	-0.452	
-0.721508	-0.045872	0.611342	4.06	48.3	7	0.2094	0.0717	-0.4538	
-0.722118	-0.03782	0.58926	3.64	50.4	7.35	0.2108	0.0734	-0.4429	
-0.734318	-0.031354	0.56974	2.31	52.15	7.77	0.2223	0.07319999	-0.4352	
-0.74481	-0.031232	0.549122	2.1	52.78	7.77	0.224	0.067	-0.4384	
-0.76555	-0.027694	0.523502	2.45	54.11	7.84	0.2356	0.0665	-0.4416	
-0.788608	-0.017812	0.508008	1.96	54.6	7.77	0.2443	0.0649	-0.4277	
-0.803004	-0.017568	0.49288	2.45	52.01	7.21	0.2469	0.0708	-0.4291	
-0.819108	-0.017568	0.475556	3.57	50.54	6.72	0.2502	0.0605	-0.4139	
-0.8418	-0.014274	0.461648	4.48	49.84	6.09	0.2643	0.069	-0.4122	
-0.852048	-0.013908	0.446886	3.5	49.63	6.51	0.2857	0.0774	-0.4074	
-0.86559	-0.015372	0.435174	2.38	50.96	7.63	0.276	0.0642	-0.4061	
-0.850828	-0.020252	0.429318	3.29	52.71	8.12	0.2845	0.0699	-0.406	
-0.859002	-0.016226	0.406748	3.36	52.57	8.4	0.2848	0.0612	-0.3892	
-0.861564	-0.011346	0.384056	3.01	53.83	8.82	0.2948	0.0636	-0.4016	
-0.877912	-0.002196	0.364414	3.22	54.11	8.89	0.3019	0.0652	-0.3845	
-0.885598	0.00488	0.342454	3.08	54.46	8.61	0.3035	0.0608	-0.3769	
-0.892186	0.005734	0.309514	3.29	54.74	8.26	0.3209	0.0589	-0.363	
-0.90463	0.009881999	0.272182	2.94	54.95	7.56	0.3285	0.0507	-0.3818	
-0.94245	0.02562	0.232654	1.05	54.18	7.35	0.3468	0.0623	-0.3692	
-0.97661	0.016348	0.202398	0.21	55.65	7.98	0.337	0.0525	-0.3524	
-0.99918	-0.002318	0.184098	-0.42	52.78	7.42	0.3514	0.0536	-0.3446	
-1.02358	-0.00549	0.160308	3.01	47.18	5.81	0.3676	0.0454	-0.3464	
-1.04249	0.012078	0.147376	5.74	41.44	3.99	0.369	0.0456	-0.3356	
-1.029924	0.015982	0.148596	7.21	36.82	1.96	0.3716	0.0519	-0.32	
-1.006622	0.016714	0.146156	8.54	35.21	1.47	0.366	0.0461	-0.3201	
-1.001986	0.016104	0.1281	6.3	35.7	1.61	0.3729	0.0549	-0.3168	
-1.011136	0.021594	0.113216	5.81	36.4	2.03	0.3749	0.0398	-0.3156	
-1.016992	0.035014	0.101626	7.21	35.49	2.38	0.3731	0.0489	-0.3138	
-1.023336	0.04575	0.092964	8.33	34.65	2.45	0.3834	0.0455	-0.314	
-1.028826	0.053924	0.08601	7.98	33.6	2.24	0.3907	0.0424	-0.3048	
-1.022848	0.058316	0.08662	7.84	31.01	0.91	0.3905	0.0473	-0.2907	
-1.026142	0.061244	0.082838	9.24	28.56	-0.49	0.4007	0.045	-0.3063	
-1.022238	0.058072	0.085644	6.86	28.77	-1.33	0.3921	0.0426	-0.2955	
-1.018822	0.048678	0.08479	6.09	27.02	-1.4	0.4024	0.0378	-0.291	
-1.011502	0.040992	0.088206	6.3	25.83	-1.96	0.3921	0.0427	-0.2893	
-1.008086	0.043066	0.07686	9.03	23.94	-3.15	0.4021	0.0457	-0.2753	
-1.004304	0.043676	0.069418	6.93	24.71	-3.92	0.4123	0.042	-0.2862	
-1.003694	0.047336	0.064782	4.55	26.95	-3.71	0.4124	0.0407	-0.277	
-1.004548	0.044042	0.05185	4.48	25.62	-3.57	0.4081	0.0392	-0.2863	
-1.0065	0.038796	0.029524	2.38	31.5	-2.17	0.4168	0.0389	-0.2832	
-1.01504	0.033062	0.021716	-1.05	33.95	-1.26	0.4138	0.0394	-0.2646	
-1.028582	0.024766	0.008662	1.4	29.82	-1.19	0.4166	0.041	-0.2584	
-1.031876	0.020008	-0.011346	-0.49	28.84	-1.26	0.4285	0.0343	-0.2648	
-1.042856	0.036478	-0.02562	0.84	25.9	-0.49	0.4192	0.0485	-0.2536	
-1.064572	0.037942	-0.032452	0.14	23.66	0.07	0.425	0.0483	-0.2552	
-1.065304	0.034648	-0.04575	-1.19	20.3	0.28	0.4267	0.0422	-0.2553	
-1.08275	0.042212	-0.059902	1.05	18.13	-0.42	0.4441	0.0415	-0.2554	
-1.071892	0.043066	-0.063074	2.24	17.08	-0.14	0.4293	0.0497	-0.252	
-1.034194	0.037332	-0.0488	1.96	16.38	0.07	0.4284	0.0334	-0.24	
-1.00162	0.03233	-0.031842	-1.33	18.41	0.56	0.4336	0.0484	-0.235	
-0.996374	0.031354	-0.036112	-6.37	19.67	1.47	0.4396	0.0436	-0.2352	
-1.022482	0.027938	-0.055266	-12.39	19.88	2.03	0.4411	0.0422	-0.2275	
-1.04981	0.023058	-0.081618	-12.04	16.24	1.33	0.4423	0.0468	-0.2227	
-1.067134	0.029646	-0.105896	-8.26	12.95	0.63	0.4391	0.056	-0.2209	
-1.086288	0.036844	-0.130052	-3.64	10.36	-0.56	0.4396	0.0424	-0.2228	
-1.084458	0.047336	-0.141032	-1.54	7.14	-1.75	0.4471	0.0344	-0.2292	
-1.064084	0.053314	-0.13725	1.68	1.12	-2.87	0.4305	0.0534	-0.2179	
-1.0492	0.041236	-0.107238	5.32	-2.17	-1.96	0.4379	0.0499	-0.2273	
-1.026142	0.020984	-0.048678	7.21	-3.08	-1.26	0.4438	0.0467	-0.2227	
-1.00955	0.015128	-0.01769	9.17	-1.82	-0.7	0.4382	0.0422	-0.2352	
-1.010526	0.016714	-0.02562	5.88	0.42	-0.49	0.4397	0.0395	-0.2182	
-1.015772	0.021594	-0.046116	0.14	2.45	-0.7	0.438	0.0455	-0.2196	
-1.014674	0.013176	-0.044652	-2.52	3.57	-0.49	0.4352	0.0438	-0.2352	
-1.008086	0.006222	-0.043798	-4.83	6.02	0.14	0.4353	0.0409	-0.2306	
-1.016138	0.00854	-0.046482	-7.49	7.63	0.56	0.4421	0.0514	-0.218	
-1.039928	0.017568	-0.064538	-10.5	7.14	0.63	0.4492	0.0556	-0.2225	
-1.064938	0.030378	-0.09577	-8.68	3.22	0.14	0.4411	0.0393	-0.2229	
-1.048468	0.027816	-0.093208	-4.76	-2.1	-0.35	0.445	0.0528	-0.2179	
-1.020408	0.018422	-0.072468	-0.91	-3.08	0.07	0.4426	0.0406	-0.229	
-1.025532	0.01525	-0.0671	-0.56	-0.63	0.56	0.448	0.0495	-0.2258	
-1.041636	0.022448	-0.075396	0.14	-2.1	0.42	0.4437	0.0483	-0.2227	
-1.031754	0.025864	-0.07442	2.87	-7.98	-0.56	0.4363	0.0532	-0.2148	
-1.014674	0.016104	-0.056364	4.06	-7.7	-0.49	0.4437	0.0469	-0.2165	
-1.021628	0.009881999	-0.045872	3.78	-5.11	-0.21	0.4496	0.045	-0.2228	
-1.021872	0.012444	-0.051606	3.22	-6.72	-0.7	0.4479	0.0511	-0.2226	
-1.036024	0.025376	-0.061	1.75	-7.98	-1.05	0.4423	0.0468	-0.2227	
-1.049932	0.035014	-0.07137	2.66	-10.08	-1.26	0.4364	0.0515	-0.2272	
-1.037976	0.029646	-0.061732	6.37	-13.58	-1.54	0.4437	0.051	-0.2366	
-1.013942	0.015006	-0.040748	6.72	-12.18	-1.05	0.4423	0.0494	-0.2428	
-1.021872	0.012566	-0.02684	3.85	-8.75	-0.35	0.438	0.0483	-0.2304	
-1.04005	0.022326	-0.040626	-0.14	-8.54	-0.49	0.4454	0.0419	-0.2337	
-1.040782	0.028792	-0.05795	-0.91	-12.88	-1.26	0.4349	0.0528	-0.2349	
-1.04371	0.029402	-0.04941	-1.68	-13.79	-1.47	0.4268	0.0394	-0.2445	
-1.055788	0.027938	-0.056608	-0.84	-14.77	-1.4	0.4365	0.0482	-0.2382	
-1.05408	0.030744	-0.055632	1.89	-18.9	-2.03	0.4219	0.053	-0.2488	
-1.045662	0.03599	-0.049898	3.64	-21.63	-2.24	0.4175	0.0563	-0.2472	
-1.04005	0.037332	-0.038552	3.99	-21.98	-1.89	0.4239	0.0406	-0.2615	
-1.041514	0.03355	-0.03111	2.17	-21.91	-1.33	0.4336	0.0496	-0.249	
-1.051762	0.030866	-0.031476	1.75	-24.36	-1.61	0.4178	0.0485	-0.2551	
-1.063962	0.032208	-0.028182	4.9	-27.93	-2.1	0.4164	0.0473	-0.2459	
-1.056764	0.032696	-0.016226	6.79	-31.15	-2.17	0.4235	0.0525	-0.2721	
-1.037488	0.029768	-0.004758	5.81	-32.2	-2.59	0.412	0.0501	-0.2613	
-1.045418	0.030622	-0.001464	2.03	-30.73	-2.38	0.4108	0.0424	-0.2738	
-1.042612	0.025132	0.010492	-0.56	-27.51	-1.89	0.4032	0.0547	-0.2735	
-1.016626	0.025254	0.046116	2.59	-24.43	-0.63	0.4122	0.0467	-0.2815	
-1.022238	0.025254	0.044408	-2.31	-20.51	0.21	0.4107	0.0482	-0.2814	
-1.039196	0.02318	0.038064	-1.33	-23.52	0.07	0.4077	0.0499	-0.2814	
-1.048346	0.023058	0.04819	0.91	-26.88	0.07	0.4092	0.051	-0.2969	
-1.041392	0.018544	0.05368	-1.47	-31.36	-0.91	0.3873	0.0547	-0.2998	
-1.012966	0.01586	0.078446	-2.45	-30.31	-1.82	0.398	0.0392	-0.3018	
-0.995764	0.022448	0.105774	-5.74	-27.93	-1.75	0.3919	0.0487	-0.2938	
-1.022116	0.02318	0.096746	-6.44	-31.78	-2.1	0.3877	0.0469	-0.3139	
-1.021994	0.020374	0.09857599	-5.39	-38.92	-3.78	0.3946	0.0557	-0.3122	
-1.025288	0.015982	0.114924	-3.36	-40.39	-4.62	0.3729	0.0564	-0.3168	
-1.026996	0.015372	0.128954	-3.15	-40.67	-4.13	0.3714	0.0565	-0.3183	
-1.01138	0.0122	0.14701	-3.15	-42.77	-3.78	0.3727	0.0623	-0.3228	
-1.007842	0.005856	0.167018	-2.52	-44.59	-3.22	0.3646	0.0475	-0.3262	
-1.000522	0.00122	0.17751	-4.2	-44.03	-2.73	0.3776	0.047	-0.3278	
-0.997838	0.004758	0.197518	-2.73	-43.12	-2.52	0.3541	0.0582	-0.3384	
-0.991372	0.002562	0.216794	-2.1	-43.33	-2.8	0.3555	0.0595	-0.343	
-0.98393	0.005246	0.234972	-2.24	-43.47	-1.89	0.3512	0.0583	-0.3399	
-0.979538	-0.004392	0.256322	-3.36	-39.41	-0.35	0.3454	0.0597	-0.3522	
-0.960628	-0.014884	0.262422	-6.93	-39.83	1.26	0.3409	0.063	-0.3491	
-0.94184	-0.026962	0.280844	-6.86	-39.9	1.33	0.3369	0.0554	-0.3585	
-0.935496	-0.021838	0.27328	-5.67	-37.45	1.4	0.3384	0.0536	-0.3663	
-0.94794	-0.021106	0.264618	-6.58	-36.61	1.96	0.3267	0.06	-0.3739	
-0.954162	-0.025986	0.279136	-6.37	-36.61	1.61	0.3167	0.0572	-0.3785	
-0.949526	-0.013176	0.28853	-5.25	-40.04	1.12	0.3153	0.0558	-0.3786	
-0.934886	0.004392	0.305488	-5.25	-43.33	0.49	0.3126	0.0513	-0.3787	
-0.926712	0.0122	0.323788	-7.07	-45.08	-0.91	0.3166	0.0615	-0.3893	
-0.924882	0.014152	0.347334	-6.37	-46.62	-1.26	0.3047	0.0709	-0.3937	
-0.924882	0.007564	0.363926	-6.09	-47.53	-1.54	0.298	0.0562	-0.3909	
-0.904142	0.00427	0.396134	-6.37	-50.89	-1.61	0.2871	0.0773	-0.409	
-0.902678	0.000122	0.402844	-7.07	-51.38	-1.82	0.2792	0.0578	-0.4187	
-0.866566	-0.020008	0.422242	-8.54	-48.37	-0.91	0.27	0.0703	-0.4122	
-0.859246	-0.033916	0.448472	-7.98	-48.23	-0.91	0.2731	0.0656	-0.4154	
-0.818132	-0.037088	0.46482	-8.82	-50.61	-2.59	0.2626	0.0751	-0.4136	
-0.79727	-0.033672	0.485804	-6.65	-53.41	-4.55	0.2614	0.069	-0.4168	
-0.780556	-0.034648	0.496052	-5.74	-51.73	-5.95	0.2439	0.0739	-0.4306	
-0.782264	-0.03477	0.52277	-4.48	-49.35	-6.37	0.2401	0.062	-0.4324	
-0.760182	-0.03416	0.533262	-3.01	-49.63	-7.28	0.2426	0.0709	-0.4353	
-0.73444	-0.04026	0.560346	-1.61	-50.19	-7.21	0.2248	0.085	-0.4411	
-0.718824	-0.04209	0.580354	-0.21	-48.58	-6.86	0.2195	0.0689	-0.4291	
-0.723826	-0.044408	0.584258	-0.35	-50.4	-7	0.2162	0.0837	-0.4442	
-0.691862	-0.044774	0.624884	-2.17	-50.96	-7.21	0.2168	0.0669	-0.4539	
-0.672708	-0.044042	0.64538	-1.82	-49.35	-6.93	0.2049	0.075	-0.4521	
-0.67405	-0.0488	0.65636	0.42	-48.02	-6.51	0.1965	0.0677	-0.4538	
-0.660386	-0.052094	0.689544	-0.84	-45.99	-6.37	0.185	0.06659999	-0.4538	
-0.636474	-0.059536	0.71675	-2.17	-44.45	-6.58	0.1734	0.0697	-0.4692	
-0.629032	-0.06771	0.73688	-2.66	-44.52	-6.58	0.169	0.0715	-0.466	
-0.60451	-0.074664	0.757986	-2.24	-44.52	-7.7	0.1602	0.0748	-0.469	
-0.592798	-0.077714	0.78812	-1.96	-42	-8.82	0.138	0.0879	-0.4609	
-0.57401	-0.08662	0.802394	-1.61	-40.46	-9.31	0.1502	0.0705	-0.4737	
-0.573644	-0.088084	0.81008	-0.77	-38.36	-9.24	0.1429	0.0739	-0.4705	
-0.563274	-0.09076799	0.827892	-1.05	-34.37	-8.61	0.1189	0.09739999	-0.4715	
-0.561444	-0.088816	0.828502	-1.05	-33.04	-7.77	0.1193	0.0853	-0.4717	
-0.548146	-0.094428	0.849486	-2.1	-28.84	-6.79	0.1223	0.0836	-0.478	
-0.544364	-0.093818	0.853024	-1.75	-27.37	-6.3	0.1225	0.0775	-0.4797	
-0.54595	-0.086376	0.861564	-2.17	-24.22	-5.81	0.1137	0.0824	-0.4795	
-0.52765	-0.086498	0.856318	-2.59	-22.4	-4.9	0.1092	0.0871	-0.4794	
-0.531066	-0.091378	0.862052	-3.43	-18.06	-4.34	0.114	0.0748	-0.4797	
-0.53314	-0.092354	0.851804	-3.78	-14.56	-3.43	0.0995	0.0752	-0.4874	
-0.5429	-0.08906	0.848144	-3.71	-12.74	-3.15	0.102	0.0844	-0.4748	
-0.55388	-0.09272	0.85217	-4.41	-9.87	-3.15	0.0963	0.0816	-0.4748	
-0.557174	-0.102846	0.847778	-3.85	-9.24	-2.31	0.1021	0.0841	-0.4887	
-0.564372	-0.108824	0.849974	-3.57	-7.56	-2.03	0.0948	0.0844	-0.4887	
-0.564372	-0.10919	0.847412	-3.64	-7.7	-2.59	0.09779999	0.083	-0.4795	
-0.56608	-0.104798	0.834114	-3.43	-7.07	-2.59	0.1034	0.0872	-0.4809	
-0.580232	-0.103456	0.839482	-3.78	-4.83	-2.38	0.092	0.08329999	-0.4763	
-0.580232	-0.109434	0.839482	-4.2	-5.18	-2.31	0.0904	0.0861	-0.4887	
-0.582428	-0.116632	0.828136	-4.55	-3.92	-1.96	0.09429999	0.09959999	-0.4837	
-0.58377	-0.12139	0.82533	-3.71	-2.31	-1.4	0.0888	0.0894	-0.4762	
-0.587186	-0.111752	0.816546	-2.8	-2.66	-1.26	0.08859999	0.0968	-0.4822	
-0.590968	-0.11041	0.808616	-3.22	-1.47	-1.47	0.0931	0.0909	-0.4684	
-0.592798	-0.113704	0.806908	-4.06	-0.56	-1.75	0.099	0.0888	-0.484	
-0.602802	-0.116876	0.798612	-3.5	-1.12	-1.82	0.0892	0.0816	-0.4857	
-0.601704	-0.116144	0.80093	-2.66	-1.61	-1.61	0.0887	0.0939	-0.4761	
-0.602924	-0.116022	0.79849	-2.66	-2.17	-1.61	0.0857	0.097	-0.4806	
-0.601338	-0.117364	0.792146	-2.45	-2.8	-1.75	0.09739999	0.092	-0.4792	
-0.59414	-0.113216	0.791536	-0.49	-3.71	-0.98	0.0959	0.0935	-0.4839	
-0.594506	-0.11468	0.781776	-0.28	-3.71	-0.56	0.09559999	0.1026	-0.4806	
-0.593408	-0.118096	0.785314	-1.05	-3.64	-0.35	0.0872	0.0939	-0.4807	
-0.589992	-0.116388	0.782752	-0.49	-4.06	-0.35	0.083	0.091	-0.4839	
-0.591334	-0.114192	0.78751	0.49	-4.2	-0.14	0.0831	0.0893	-0.4901	
-0.5856	-0.1098	0.787998	0.42	-4.69	0.14	0.0845	0.0894	-0.4824	
-0.582184	-0.111264	0.794586	0.63	-4.06	0.28	0.0875	0.0876	-0.4933	
-0.586942	-0.112362	0.79239	0.98	-5.04	0.63	0.0846	0.0863	-0.4855	
-0.58621	-0.111752	0.797758	1.61	-4.9	0.7	0.0801	0.0911	-0.4839	
-0.58499	-0.102724	0.803492	1.75	-4.55	0.42	0.0902	0.0936	-0.4885	
-0.579622	-0.10004	0.804224	0.98	-3.92	0.49	0.0741	0.0959	-0.4791	
-0.575962	-0.101748	0.806664	0.84	-3.71	0.91	0.0784	0.0986	-0.4868	
-0.57584	-0.10187	0.802028	0.98	-3.57	1.4	0.0815	0.094	-0.4853	
-0.57279	-0.101138	0.811056	0.49	-2.45	1.54	0.083	0.0923	-0.49	
-0.570838	-0.100406	0.813984	0.35	-2.31	1.54	0.0726	0.0989	-0.4821	
-0.569618	-0.100528	0.820328	-0.42	-2.1	1.47	0.0726	0.1003	-0.4883	
-0.568276	-0.1037	0.82411	-0.28	-2.03	1.47	0.0696	0.1035	-0.4851	
-0.565226	-0.107726	0.833382	-0.28	-1.54	1.47	0.0812	0.1017	-0.479	
-0.560224	-0.10919	0.842898	-0.14	-1.54	1.12	0.0784	0.0988	-0.479	
-0.550342	-0.10797	0.846802	0.49	-0.98	0.91	0.0888	0.0923	-0.4839	
-0.55205	-0.112972	0.859734	1.05	0.56	0.7	0.0786	0.0925	-0.49	
-0.545584	-0.11773	0.867054	1.12	1.19	0.56	0.0771	0.09559999	-0.4915	
-0.53558	-0.114558	0.872178	0.98	2.8	0.56	0.08	0.0942	-0.4807	
-0.533506	-0.116144	0.87779	1.19	4.48	0.63	0.0804	0.0834	-0.4902	
-0.533628	-0.118462	0.882792	1.54	6.51	0.84	0.0903	0.0892	-0.4839	
-0.5246	-0.118828	0.890478	1.12	8.54	1.12	0.0889	0.0879	-0.4778	
-0.520208	-0.120048	0.889136	1.54	10.15	1.12	0.083	0.0924	-0.4854	
-0.522282	-0.118828	0.888038	1.33	12.74	1.54	0.0844	0.0911	-0.4746	
-0.52277	-0.117974	0.891088	1.05	15.19	1.75	0.0905	0.0832	-0.4825	
-0.524966	-0.116632	0.887794	1.05	17.22	1.33	0.0875	0.0878	-0.4824	
-0.529968	-0.119682	0.886086	0.49	20.09	1.54	0.0964	0.0799	-0.4842	
-0.537166	-0.124684	0.880596	1.05	22.26	2.1	0.09339999	0.0843	-0.4934	
-0.54046	-0.124074	0.871934	1.47	24.36	2.24	0.0994	0.0784	-0.4796	
-0.547414	-0.123464	0.867054	1.54	26.46	2.38	0.1002	0.0949	-0.4807	
-0.548756	-0.122488	0.859002	1.82	29.4	2.87	0.1062	0.0887	-0.4763	
-0.55815	-0.112362	0.846558	3.08	30.52	3.15	0.1134	0.0914	-0.4809	
-0.568398	-0.108336	0.835456	2.87	34.58	3.43	0.1206	0.0898	-0.4732	
-0.573766	-0.109922	0.827404	2.17	37.38	3.57	0.1193	0.0853	-0.4748	
-0.586698	-0.108092	0.80825	3.01	39.62	3.92	0.1238	0.0821	-0.4749	
-0.598776	-0.107604	0.795562	3.85	41.02	4.34	0.131	0.0846	-0.4826	
-0.603168	-0.099674	0.778848	3.78	42.84	4.76	0.1437	0.0892	-0.4578	
-0.615246	-0.09211	0.761036	3.71	45.78	5.11	0.1467	0.0872	-0.4749	
-0.626958	-0.087718	0.747128	3.36	47.25	5.18	0.1614	0.0835	-0.4812	
-0.634278	-0.088572	0.729194	3.78	49.35	5.46	0.1685	0.0851	-0.4673	
-0.644526	-0.087596	0.701744	4.41	51.1	6.02	0.1696	0.0915	-0.447	
-0.663192	-0.083814	0.68076	4.27	54.53	6.86	0.1816	0.0817	-0.4596	
-0.683444	-0.076616	0.65514	4.34	55.86	7.42	0.1887	0.0843	-0.4658	
-0.69235	-0.06527	0.629764	3.92	56.91	7.56	0.1914	0.0905	-0.4533	
-0.69784	-0.059536	0.610244	3.85	58.87	8.05	0.2048	0.0781	-0.4474	
-0.705892	-0.055998	0.591334	3.22	60.55	8.96	0.2179	0.0762	-0.4428	
-0.719922	-0.051118	0.5551	2.94	61.32	9.8	0.2136	0.075	-0.4351	
-0.743956	-0.04758	0.523258	2.66	62.86	10.57	0.2267	0.0714	-0.4368	
-0.77592	-0.048068	0.50203	3.15	64.05	10.78	0.231	0.0716	-0.4244	
-0.799466	-0.035868	0.482754	4.48	62.37	10.29	0.2451	0.0816	-0.4211	
-0.817766	-0.020374	0.475312	4.9	61.53	9.52	0.2598	0.0749	-0.426	
-0.827404	-0.015738	0.45506	5.11	59.64	9.03	0.2615	0.0675	-0.4199	
-0.829234	-0.012322	0.438956	5.04	59.78	9.24	0.2759	0.0686	-0.4107	
-0.833992	-0.009393999	0.418704	3.99	60.83	9.52	0.2831	0.0699	-0.4091	
-0.854122	-0.000976	0.39284	2.73	62.02	9.59	0.2949	0.0608	-0.3908	
-0.858148	-0.002562	0.364902	1.75	63.7	9.38	0.3062	0.068	-0.3876	
-0.889136	-0.00305	0.345748	1.05	63.56	9.17	0.318	0.0615	-0.3877	
-0.8967	-0.001708	0.31537	0.56	61.6	8.61	0.3164	0.0662	-0.3814	
-0.898408	0.002562	0.288042	0.42	60.06	7.98	0.3251	0.0631	-0.3722	
-0.909876	-0.000854	0.26962	1.19	59.36	7.63	0.334	0.0554	-0.3647	
-0.919636	0.00305	0.232288	1.4	57.47	7.84	0.354	0.0609	-0.3507	
-0.93452	0.013908	0.212524	1.82	56.28	7.42	0.3584	0.0605	-0.3631	
-0.957212	0.009272	0.17873	0.84	55.65	7.07	0.3555	0.061	-0.3445	
-0.960872	0.013908	0.150182	-0.56	49.84	5.46	0.3744	0.0546	-0.3308	
-0.971608	0.013542	0.134444	-0.35	48.86	5.04	0.3702	0.0518	-0.3246	
-0.993812	0.011346	0.1098	-2.24	45.57	3.71	0.3787	0.0546	-0.3199	
-1.031144	0.01586	0.096258	-0.28	41.09	3.01	0.3743	0.0576	-0.3307	
-1.048224	0.01525	0.084668	2.03	37.73	1.89	0.3772	0.0564	-0.3121	
-1.059692	0.018056	0.068808	2.38	33.18	1.26	0.3787	0.0548	-0.3137	
-1.040416	0.021472	0.069052	4.62	32.41	1.54	0.4018	0.0542	-0.2999	
-1.029436	0.019154	0.060146	4.2	32.55	1.19	0.3858	0.0577	-0.3044	
-1.038342	0.020984	0.05429	3.5	32.97	1.12	0.3913	0.0652	-0.298	
-1.042368	0.029768	0.05307	4.27	31.92	0.84	0.3994	0.0422	-0.3001	
-1.054568	0.035868	0.042944	5.46	29.33	0.7	0.3973	0.059	-0.2951	
-1.054934	0.031964	0.037576	5.18	29.89	1.4	0.4004	0.0531	-0.2844	
-1.033828	0.026596	0.03965	5.67	30.87	2.45	0.4021	0.0453	-0.2923	
-1.021262	0.027694	0.04575	7	30.52	2.73	0.4033	0.0502	-0.2752	
-0.99735	0.020862	0.046848	7.07	29.61	2.52	0.4034	0.0488	-0.2675	
-0.977098	0.01464	0.040504	4.9	29.47	2.52	0.4095	0.0395	-0.2677	
-0.981002	0.008784	0.028792	4.34	30.73	2.73	0.4193	0.0483	-0.2644	
-1.000522	0.007442	0.016714	6.37	31.5	3.22	0.4133	0.0533	-0.2519	
-1.002596	0.008662	0.007564	5.88	31.01	4.06	0.4228	0.0301	-0.2618	
-1.0004	0.01159	-0.003782	4.55	30.17	4.27	0.4208	0.0439	-0.2552	
-1.009306	0.013176	-0.020496	3.36	31.36	4.41	0.4294	0.0452	-0.2475	
-1.023824	0.013664	-0.034038	3.43	31.64	5.25	0.4264	0.0487	-0.2319	
-1.022848	0.017568	-0.04697	2.94	30.45	5.18	0.4368	0.0406	-0.2383	
-1.021018	0.02379	-0.053192	1.05	28.98	4.83	0.4338	0.0438	-0.2367	
-1.009794	0.030134	-0.073932	-4.83	26.95	4.83	0.4381	0.0437	-0.2352	
-1.04188	0.05185	-0.088084	-9.31	25.9	4.83	0.4397	0.0392	-0.2291	
-1.090558	0.068076	-0.110898	-6.02	20.93	4.41	0.4442	0.0362	-0.223	
-1.136064	0.08235	-0.125294	-7.84	19.39	2.94	0.4485	0.0359	-0.2292	
-1.078602	0.064782	-0.125782	-8.82	17.64	2.17	0.4367	0.0398	-0.2089	
-1.013576	0.056486	-0.114192	-6.37	17.01	1.33	0.4571	0.0375	-0.209	
-1.028582	0.055754	-0.110776	-7.56	20.79	1.33	0.4451	0.0484	-0.2134	
-1.068232	0.05612	-0.126636	-4.55	21.84	0.35	0.4457	0.0334	-0.2075	
-1.081042	0.069662	-0.156526	2.17	19.18	0.07	0.4567	0.0466	-0.2057	
-1.04676	0.061854	-0.158844	0.77	10.92	-0.14	0.4467	0.0429	-0.1887	
-1.002718	0.041968	-0.120292	0.63	8.82	-0.56	0.4539	0.0453	-0.2026	
-1.00345	0.03111	-0.09882	0.63	11.69	-0.49	0.4521	0.0545	-0.1962	
-1.03151	0.033672	-0.10431	0.91	11.41	-0.49	0.4525	0.0425	-0.195	
-1.042734	0.04636	-0.125782	0.21	7.28	-0.7	0.4508	0.0486	-0.1964	
-1.010526	0.045506	-0.13359	-0.21	3.5	-1.96	0.458	0.0497	-0.1995	
-1.023092	0.045506	-0.130418	-0.98	3.92	-2.66	0.4682	0.0478	-0.1995	
-1.077626	0.059292	-0.155794	-1.68	3.99	-2.17	0.4453	0.0412	-0.1965	
-1.09861	0.077104	-0.211548	3.08	-3.57	-3.85	0.4566	0.0483	-0.1995	
-1.071404	0.07259	-0.228506	0.42	-14	-6.02	0.4396	0.04	-0.1919	
-1.046028	0.056608	-0.179706	1.54	-16.94	-6.16	0.4624	0.0482	-0.1933	
-1.025654	0.035746	-0.112118	2.52	-13.93	-4.62	0.4419	0.0565	-0.1931	
-1.02602	0.021838	-0.063562	7.28	-7.98	-3.01	0.4625	0.0467	-0.1933	
-1.008208	0.030012	-0.081374	9.66	-5.95	-2.8	0.4542	0.0349	-0.1951	
-1.006134	0.03416	-0.10736	6.09	-8.89	-4.34	0.4556	0.0391	-0.2059	
-1.024922	0.03416	-0.10309	6.16	-10.36	-5.11	0.4381	0.0427	-0.2104	
-1.036878	0.029768	-0.106994	4.69	-6.86	-4.2	0.4479	0.0514	-0.2087	
-1.014552	0.027816	-0.096136	7.49	-9.87	-3.85	0.4453	0.0439	-0.2104	
-1.008208	0.031476	-0.082228	8.4	-8.75	-2.73	0.4436	0.0486	-0.2072	
-1.01992	0.031232	-0.083204	4.13	-5.11	-1.75	0.4391	0.0547	-0.2117	
-1.036146	0.02867	-0.095038	1.75	-3.99	-1.12	0.4496	0.0451	-0.2166	
-1.027606	0.02562	-0.08906	1.47	-5.88	-0.84	0.4408	0.0484	-0.2227	
-1.022482	0.023546	-0.085644	0	-6.79	-0.63	0.4525	0.0449	-0.2212	
-1.044076	0.028548	-0.09638	-3.43	-5.32	-0.42	0.445	0.05	-0.2087	
-1.069574	0.033794	-0.106018	-3.85	-7.21	-0.91	0.4363	0.0532	-0.2148	
-1.067256	0.029402	-0.108702	1.89	-12.39	-1.47	0.4436	0.0514	-0.2164	
-1.037488	0.02013	-0.089304	6.86	-14.7	-1.54	0.4351	0.0456	-0.2196	
-1.0309	0.012932	-0.070516	5.95	-11.62	-0.77	0.4352	0.0442	-0.2165	
-1.03761	0.006954	-0.069784	4.13	-10.29	-1.05	0.4438	0.0453	-0.2212	
-1.038464	0.008784	-0.070394	4.83	-12.67	-1.89	0.4323	0.0441	-0.2274	
-1.02724	0.016348	-0.070028	2.66	-14.56	-2.17	0.4412	0.0378	-0.2245	
-1.03822	0.022204	-0.069418	1.68	-14.84	-2.31	0.4442	0.0361	-0.2276	
-1.05713	0.024522	-0.066856	2.38	-14.56	-1.96	0.4406	0.0543	-0.2287	
-1.050176	0.022814	-0.066978	5.67	-17.57	-1.54	0.4393	0.0512	-0.235	
-1.029314	0.019032	-0.05368	7.14	-18.9	-1.19	0.4383	0.0405	-0.2414	
-1.034316	0.017812	-0.048068	5.18	-18.55	-1.19	0.4427	0.0374	-0.24	
-1.055178	0.026352	-0.046116	5.46	-19.88	-1.68	0.4321	0.05	-0.2304	
-1.057984	0.03416	-0.041358	7.84	-21.28	-1.4	0.4293	0.0499	-0.2396	
-1.036756	0.033672	-0.0244	7.14	-21.49	-0.77	0.428	0.0453	-0.249	
-1.030046	0.027084	-0.002928	4.83	-19.67	-0.56	0.4236	0.0468	-0.2567	
-1.02663	0.021838	0.005978	3.15	-19.81	-0.98	0.4265	0.0469	-0.2474	
-1.017236	0.016592	0.004636	0.98	-21.21	-1.47	0.4213	0.0332	-0.2601	
-1.014308	0.015494	0.016226	-0.14	-19.6	-1.82	0.4249	0.0511	-0.2613	
-1.0065	0.008662	0.036112	-0.35	-17.71	-2.03	0.4106	0.0471	-0.2644	
-1.011624	0.009516	0.040504	-0.07	-18.62	-2.73	0.4205	0.0542	-0.2659	
-1.026752	0.015616	0.027328	-2.59	-20.16	-3.08	0.4151	0.0452	-0.2753	
-1.022238	0.019154	0.037088	-8.05	-19.6	-3.01	0.4192	0.0511	-0.2721	
-1.015528	0.005002	0.076738	-5.81	-20.86	-3.08	0.418	0.045	-0.2784	
-1.018212	0.000122	0.078934	-1.26	-25.97	-3.43	0.3977	0.0457	-0.2815	
-1.022848	0.007442	0.059902	-1.26	-30.31	-4.9	0.4048	0.0514	-0.2829	
-1.015406	0.002562	0.083204	-1.4	-30.03	-5.74	0.405	0.0453	-0.2877	
-1.01382	-0.002806	0.099186	-1.33	-29.89	-6.3	0.4032	0.0544	-0.2875	
-1.007964	-0.001342	0.106872	-0.49	-29.75	-6.3	0.405	0.0467	-0.2923	
-1.014674	0.000854	0.11163	-0.77	-30.1	-6.44	0.3975	0.0544	-0.2999	
-1.013332	-0.002074	0.123586	-2.8	-30.38	-6.72	0.3815	0.0565	-0.2998	
-1.004304	-0.006344	0.134566	-2.66	-29.89	-6.44	0.3917	0.0543	-0.3122	
-1.003694	-0.01342	0.140544	-2.45	-30.59	-6.3	0.3931	0.0559	-0.3045	
-0.99796	-0.022448	0.15921	-2.1	-29.19	-6.02	0.3742	0.0594	-0.3167	
-0.983808	-0.028792	0.172264	-0.42	-29.33	-5.95	0.3785	0.061	-0.3074	
-0.981246	-0.022448	0.187392	0.98	-29.47	-5.81	0.383	0.0573	-0.3292	
-0.984662	-0.019398	0.206058	1.61	-28.56	-5.67	0.3787	0.0559	-0.3323	
-0.981002	-0.0183	0.213378	1.75	-28.21	-5.11	0.3698	0.0637	-0.3336	
-0.983076	-0.020984	0.225578	1.61	-26.32	-4.41	0.3744	0.0559	-0.3369	
-0.986736	-0.022814	0.238022	1.19	-25.27	-3.5	0.3683	0.064	-0.3259	
-0.984418	-0.021594	0.247538	0.56	-24.22	-2.24	0.3669	0.0623	-0.3337	
-0.964654	-0.031354	0.25803	-1.47	-22.75	-1.19	0.3569	0.0624	-0.3491	
-0.96014	-0.04392	0.265228	-1.89	-21.14	-0.28	0.3583	0.0625	-0.3429	
-0.965142	-0.04819	0.27816	-2.38	-19.81	-0.07	0.3583	0.0621	-0.3569	
-0.960628	-0.04026	0.283772	-1.33	-19.81	0	0.354	0.061	-0.3491	
-0.953918	-0.034404	0.289872	-0.21	-19.67	-0.28	0.3409	0.0643	-0.3599	
-0.956236	-0.027572	0.297924	-0.63	-17.5	-0.35	0.354	0.0624	-0.3538	
-0.941962	-0.023546	0.302194	-0.42	-17.22	-0.49	0.3439	0.0612	-0.3568	
-0.934276	-0.026596	0.304878	-0.28	-15.54	0	0.3455	0.0595	-0.3631	
-0.946598	-0.03843	0.30683	-0.98	-14.56	1.05	0.3386	0.0478	-0.3571	
-0.956358	-0.039284	0.310124	0.14	-14.77	2.03	0.3339	0.0597	-0.3723	
-0.95587	-0.034404	0.31293	0.91	-14.98	2.8	0.343	0.049	-0.3649	
-0.94611	-0.028426	0.3172	-0.56	-14.77	2.45	0.3339	0.0597	-0.3739	
-0.940986	-0.02928	0.329034	-0.77	-14.98	1.68	0.3309	0.0631	-0.3599	
-0.931592	-0.026352	0.335378	0.14	-15.54	0.7	0.3282	0.0557	-0.36	
-0.939278	-0.029158	0.343064	0.49	-15.26	-0.14	0.3225	0.0557	-0.3677	
-0.944402	-0.03538	0.336476	-0.63	-16.1	-0.14	0.3305	0.0734	-0.3751	
-0.940376	-0.035868	0.357948	-0.49	-14.14	0.7	0.324	0.0539	-0.3786	
-0.942084	-0.030988	0.363438	0.42	-14.21	0.28	0.3209	0.0616	-0.3785	
-0.93147	-0.033306	0.365634	-0.07	-16.1	-0.21	0.3211	0.0542	-0.3724	
-0.923296	-0.035014	0.375638	-1.4	-13.37	0.63	0.3282	0.0584	-0.3724	
-0.922686	-0.037088	0.38552	-1.54	-12.39	1.19	0.3196	0.0558	-0.3677	
-0.918416	-0.03904	0.3843	-1.75	-12.53	1.68	0.3195	0.0602	-0.3769	
-0.906704	-0.042212	0.386618	-2.94	-12.25	2.31	0.3136	0.0619	-0.3769	
-0.90097	-0.041602	0.39406	-3.5	-12.18	2.52	0.3121	0.0635	-0.3737	
-0.90097	-0.043188	0.400648	-3.15	-11.97	2.87	0.3223	0.0601	-0.3769	
-0.910608	-0.043066	0.402966	-2.31	-10.99	3.71	0.3022	0.0578	-0.3785	
-0.911584	-0.046604	0.40626	-2.17	-11.13	4.41	0.321	0.0597	-0.394	
-0.914878	-0.054046	0.422242	-1.33	-11.69	4.62	0.2995	0.0534	-0.377	
-0.920856	-0.061244	0.420046	-0.42	-14.21	4.48	0.3076	0.0695	-0.386	
-0.906948	-0.063318	0.427244	1.33	-15.4	4.83	0.3125	0.0526	-0.3895	
-0.897432	-0.05734	0.442738	2.8	-14.56	5.04	0.2968	0.0487	-0.3895	
-0.88206	-0.05429	0.448106	3.43	-14	4.76	0.2951	0.0549	-0.3832	
-0.873764	-0.0549	0.458598	3.71	-12.95	4.48	0.3067	0.0556	-0.4002	
-0.869006	-0.052094	0.463478	4.55	-11.13	4.48	0.2978	0.0592	-0.3908	
-0.865224	-0.049776	0.47214	5.25	-10.15	4.69	0.3053	0.0527	-0.4003	
-0.860588	-0.04575	0.478118	6.65	-8.33	5.32	0.2995	0.0543	-0.4049	
-0.858148	-0.039772	0.47641	6.58	-7.63	5.74	0.2984	0.0453	-0.4035	
-0.866322	-0.039406	0.480436	6.16	-5.32	6.65	0.2951	0.0547	-0.3956	
-0.86925	-0.041114	0.477874	5.88	-4.48	7.42	0.2943	0.0382	-0.3913	
-0.881328	-0.040382	0.488732	7	-3.43	8.19	0.3	0.0393	-0.399	
-0.88389	-0.039894	0.48495	7.7	-2.52	9.24	0.2885	0.041	-0.4113	
-0.878888	-0.045506	0.48556	6.93	0.21	10.5	0.2909	0.0518	-0.3972	
-0.884012	-0.046116	0.486658	7.91	0.91	12.04	0.2927	0.0441	-0.402	
-0.885476	-0.040138	0.474092	8.89	1.4	13.86	0.2869	0.043	-0.3911	
-0.879376	-0.034038	0.478728	9.59	3.08	16.24	0.3046	0.0332	-0.3961	
-0.886696	-0.027084	0.478118	9.73	4.9	18.83	0.2856	0.0384	-0.3959	
-0.886452	-0.020862	0.462014	9.17	4.2	21.14	0.2961	0.0289	-0.3992	
-0.891454	-0.018666	0.454206	9.38	4.13	23.59	0.2991	0.0259	-0.3931	
-0.894626	-0.013054	0.45384	10.78	5.04	25.97	0.2932	0.0275	-0.3977	
-0.895968	-0.007076	0.446886	11.34	3.08	27.65	0.298	0.0167	-0.4026	
-0.89792	-0.00061	0.445544	12.46	3.29	29.68	0.301	0.0123	-0.3888	
-0.898042	0.007442	0.44164	13.09	3.08	31.29	0.3071	0.0044	-0.3983	
-0.896212	0.014884	0.440908	13.51	3.64	33.18	0.2956	0.0017	-0.403	
-0.890112	0.019154	0.440542	14.63	3.08	35.07	0.3116	-0.0002	-0.3984	
-0.8967	0.028182	0.432368	15.47	3.01	36.75	0.3057	0.0031	-0.3875	
-0.891942	0.050264	0.420656	16.45	2.87	38.43	0.3117	-0.0045	-0.3846	
-0.899384	0.072346	0.424438	16.59	3.57	40.6	0.3096	-0.0228	-0.4005	
-0.893406	0.102236	0.42029	17.01	2.03	42.28	0.3069	-0.0301	-0.3944	
-0.885476	0.137616	0.41114	16.94	2.38	43.54	0.3022	-0.0193	-0.3911	
-0.880108	0.165798	0.413214	16.31	4.27	44.45	0.3028	-0.0361	-0.3976	
-0.87718	0.19032	0.397354	14.98	4.13	45.01	0.3045	-0.0422	-0.3978	
-0.882914	0.218502	0.390034	13.51	4.69	46.34	0.3118	-0.0468	-0.3902	
-0.891942	0.24217	0.386496	12.67	3.29	46.9	0.3019	-0.0509	-0.3887	
-0.887672	0.2684	0.38186	11.27	1.89	46.48	0.3121	-0.0558	-0.3842	
-0.888038	0.284016	0.374662	10.43	1.4	46.2	0.3053	-0.0646	-0.389	
-0.88816	0.30317	0.381128	10.92	0.07	45.5	0.3053	-0.0675	-0.3829	
-0.890112	0.320494	0.379298	10.99	-1.4	44.59	0.3059	-0.0815	-0.4018	
-0.873032	0.327448	0.38369	11.48	-2.31	44.17	0.3058	-0.0785	-0.3986	
-0.86193	0.33916	0.384178	11.48	-3.85	43.96	0.3079	-0.09649999	-0.3944	
-0.848144	0.355996	0.383934	12.46	-4.48	44.03	0.3019	-0.09429999	-0.371	
-0.845826	0.375516	0.398452	15.05	-4.62	45.29	0.2981	-0.1066	-0.3899	
-0.83875	0.386984	0.396866	15.75	-5.11	45.57	0.2981	-0.1066	-0.3899	
-0.821548	0.398696	0.392962	15.75	-3.71	45.78	0.2941	-0.1155	-0.3901	
-0.795928	0.409432	0.389912	17.92	-2.1	47.25	0.3019	-0.1309	-0.3905	
-0.782874	0.426024	0.375638	19.74	-3.64	47.95	0.296	-0.1291	-0.3873	
-0.773114	0.44957	0.367708	21.91	-4.34	48.79	0.2863	-0.1396	-0.3999	
-0.769942	0.473482	0.363438	23.73	-4.34	49	0.2851	-0.1453	-0.3861	
-0.764452	0.505934	0.354166	24.64	-6.3	48.58	0.2866	-0.1469	-0.3877	
-0.750666	0.538386	0.346846	25.48	-8.26	48.02	0.2842	-0.1618	-0.3833	
-0.74542	0.563152	0.34648	25.13	-8.47	48.3	0.2714	-0.1688	-0.3835	
-0.748592	0.578646	0.349652	23.73	-11.34	48.23	0.2731	-0.1734	-0.3851	
-0.729316	0.596702	0.344162	22.26	-12.67	47.74	0.2707	-0.1895	-0.3653	
-0.717604	0.617686	0.347578	21.63	-11.06	47.32	0.2723	-0.1917	-0.3917	
-0.710772	0.649772	0.35685	20.65	-13.02	46.48	0.2621	-0.1898	-0.3932	
-0.713334	0.698328	0.3477	19.74	-13.58	45.71	0.2554	-0.2059	-0.3811	
-0.707234	0.707722	0.334768	15.96	-16.1	44.94	0.2439	-0.2071	-0.3873	
-0.695034	0.700646	0.340746	13.3	-17.29	44.59	0.2324	-0.2095	-0.3796	
-0.686372	0.707356	0.332816	11.69	-18.48	44.52	0.2269	-0.2154	-0.3828	
-0.673318	0.714798	0.349896	11.2	-18.55	43.33	0.2516	-0.2179	-0.386	
-0.649528	0.714188	0.361364	11.48	-18.55	41.16	0.2361	-0.2308	-0.3832	
-0.627568	0.698206	0.365512	11.41	-18.97	39.27	0.2309	-0.2458	-0.3881	
-0.604632	0.700768	0.376126	12.25	-17.5	37.24	0.2117	-0.2359	-0.3832	
-0.603778	0.712724	0.374418	13.65	-15.89	35.14	0.2175	-0.2359	-0.3739	
-0.605608	0.713822	0.366854	11.69	-13.93	33.53	0.2232	-0.2332	-0.377	
-0.593774	0.71858	0.373686	12.88	-12.53	32.06	0.2064	-0.2493	-0.3819	
-0.570838	0.736148	0.369172	14	-12.74	29.68	0.2021	-0.249	-0.3757	
-0.624884	0.737246	0.404918	12.67	-16.94	29.26	0.1937	-0.255	-0.3913	
-0.512644	0.765672	0.371856	18.9	-23.52	24.64	0.1935	-0.2503	-0.3835	
-0.532774	0.787632	0.367708	12.67	1.47	24.92	0.1925	-0.2637	-0.3776	
-0.534238	0.790194	0.39711	11.06	-4.2	22.54	0.1767	-0.265	-0.393	
-0.523258	0.806176	0.369782	9.73	-11.27	20.58	0.1823	-0.2618	-0.3744	
-0.527528	0.827282	0.377468	7.42	-5.25	19.46	0.181	-0.2664	-0.3838	
-0.529846	0.834236	0.384178	5.88	-5.32	16.17	0.1726	-0.2709	-0.3931	
-0.516304	0.8296	0.37149	3.64	-7.14	13.16	0.1827	-0.271	-0.3839	
-0.516426	0.839604	0.37515	2.03	-5.32	11.97	0.1728	-0.2796	-0.3778	
-0.513742	0.837286	0.37881	-0.28	-4.27	10.92	0.1683	-0.2736	-0.387	
-0.518622	0.827404	0.376126	-1.68	-3.78	9.73	0.1741	-0.2725	-0.3947	
-0.513254	0.81557	0.38064	-1.96	-3.5	8.19	0.1639	-0.2733	-0.3808	
-0.513132	0.81069	0.380762	-1.68	-3.64	5.88	0.1668	-0.2735	-0.3839	
-0.503738	0.80459	0.385764	-1.61	-3.5	3.99	0.1626	-0.2776	-0.3747	
-0.493124	0.799954	0.386862	-1.68	-1.75	2.87	0.1713	-0.2766	-0.3824	
-0.488488	0.804102	0.383568	-0.98	-1.89	1.47	0.1654	-0.2733	-0.3808	
-0.494222	0.803004	0.385642	-1.54	-2.03	0.21	0.1683	-0.275	-0.3824	
-0.513864	0.803248	0.383324	-1.54	-0.84	-0.63	0.1614	-0.2837	-0.3795	
-0.508496	0.808128	0.382104	-2.1	-0.63	-1.68	0.1643	-0.2823	-0.381	
-0.500566	0.80703	0.38857	-2.52	-0.98	-2.73	0.1627	-0.2793	-0.3809	
-0.501298	0.8113	0.38674	-3.01	-0.63	-3.78	0.155	-0.2669	-0.3806	
-0.50569	0.812642	0.398452	-3.29	0.63	-5.39	0.1669	-0.275	-0.3839	
-0.50996	0.815326	0.397476	-3.64	0.91	-7.35	0.164	-0.2763	-0.3808	
-0.508618	0.82167	0.393938	-4.41	1.96	-9.73	0.1669	-0.2751	-0.3886	
-0.509594	0.814472	0.408212	-6.09	3.71	-12.88	0.1621	-0.2626	-0.379	
-0.506544	0.797148	0.398818	-6.86	5.32	-15.96	0.1638	-0.2689	-0.3884	
-0.508618	0.801418	0.402966	-7.35	8.12	-18.76	0.1693	-0.2601	-0.3882	
-0.53009	0.810812	0.401014	-8.05	8.75	-21.98	0.1697	-0.2735	-0.3808	
-0.53863	0.794464	0.397598	-9.45	9.38	-25.27	0.1767	-0.2663	-0.3853	
-0.54595	0.78629	0.395036	-10.64	10.43	-28.49	0.1811	-0.2667	-0.3946	
-0.547902	0.780556	0.39406	-11.76	10.5	-31.92	0.179	-0.2498	-0.385	
-0.556564	0.764818	0.401746	-14	11.83	-35.07	0.1849	-0.253	-0.3835	
-0.574376	0.75579	0.40687	-14.91	12.88	-37.38	0.1894	-0.2566	-0.4037	
-0.581818	0.73993	0.40687	-15.12	14.14	-39.41	0.2007	-0.2492	-0.3866	
-0.57401	0.707966	0.406626	-16.17	12.95	-42.14	0.1992	-0.2492	-0.3928	
-0.598654	0.690276	0.407602	-15.82	13.72	-45.15	0.2087	-0.23	-0.3939	
-0.61915	0.68808	0.404796	-15.61	14.21	-47.88	0.2131	-0.233	-0.3847	
-0.631472	0.681492	0.396256	-17.57	14.91	-49.35	0.2101	-0.2299	-0.3846	
-0.643306	0.661606	0.402234	-19.95	13.86	-49.56	0.2257	-0.2243	-0.3783	
-0.648552	0.64721	0.39284	-21.28	12.67	-49.98	0.2309	-0.2065	-0.3842	
-0.6649	0.6283	0.396744	-20.58	12.04	-51.17	0.2348	-0.1948	-0.3948	
-0.688324	0.61427	0.398818	-19.39	13.79	-52.08	0.2352	-0.2039	-0.395	
-0.69845	0.60512	0.394426	-19.39	13.79	-52.92	0.236	-0.1873	-0.3915	
-0.701012	0.583526	0.40138	-21.7	11.48	-54.25	0.2494	-0.1983	-0.3887	
-0.706868	0.558028	0.40016	-21.35	11.97	-54.32	0.2563	-0.188	-0.3916	
-0.725656	0.541436	0.392962	-21.63	14.21	-53.2	0.2603	-0.1778	-0.3976	
-0.74115	0.519476	0.399306	-23.38	13.51	-53.13	0.2613	-0.1673	-0.4004	
-0.75335	0.510204	0.403088	-21.63	13.93	-53.62	0.2673	-0.1736	-0.4006	
-0.77409	0.505324	0.396012	-21	14.98	-54.67	0.2768	-0.1571	-0.391	
-0.79666	0.484096	0.398208	-21.21	14	-53.55	0.2724	-0.154	-0.394	
-0.788242	0.452742	0.40321	-21.98	15.68	-51.17	0.2748	-0.1406	-0.3983	
-0.774578	0.440542	0.407114	-21.98	16.1	-49.63	0.2889	-0.1319	-0.3904	
-0.787754	0.42883	0.39711	-20.37	16.73	-49.35	0.2884	-0.1183	-0.3886	
-0.803492	0.413458	0.390034	-20.09	17.92	-49.77	0.293	-0.1247	-0.3996	
-0.819718	0.401746	0.371246	-20.79	17.43	-50.96	0.2926	-0.1139	-0.3869	
-0.83448	0.384788	0.36783	-22.47	18.13	-51.31	0.2937	-0.1036	-0.396	
-0.84851	0.365756	0.365146	-23.45	17.43	-50.82	0.3021	-0.09779999	-0.3928	
-0.862906	0.340868	0.366488	-24.01	17.08	-49.21	0.3031	-0.0841	-0.3863	
-0.859856	0.322934	0.36112	-23.66	15.47	-48.16	0.3147	-0.086	-0.3833	
-0.876204	0.295972	0.367586	-22.96	16.38	-48.58	0.3067	-0.0661	-0.3844	
-0.879864	0.273524	0.367464	-21.49	14.28	-49.28	0.3081	-0.0645	-0.3781	
-0.887794	0.259738	0.362828	-21.49	14.91	-49.77	0.3136	-0.0572	-0.378	
-0.90036	0.237778	0.37149	-21.98	16.1	-50.75	0.3265	-0.0531	-0.3764	
-0.904752	0.209596	0.356362	-22.33	15.75	-50.75	0.3234	-0.0471	-0.384	
-0.900848	0.183488	0.360266	-20.86	17.5	-49.35	0.3262	-0.0455	-0.3716	
-0.898408	0.16287	0.360388	-19.39	17.64	-48.37	0.3312	-0.0245	-0.3711	
-0.91317	0.136396	0.344528	-18.97	19.04	-48.37	0.3398	-0.0221	-0.382	
-0.924882	0.109922	0.34282	-18.13	20.02	-48.02	0.3264	-0.0136	-0.3631	
-0.937448	0.08662	0.328058	-16.24	20.79	-47.32	0.3247	-0.0047	-0.3707	
-0.949648	0.080764	0.314272	-16.94	21.49	-46.06	0.3343	0.0085	-0.3688	
-0.947818	0.06405	0.307562	-17.78	22.33	-44.94	0.3381	0.0236	-0.3608	
-0.944524	0.049776	0.308294	-15.82	22.54	-44.24	0.341	0.0235	-0.3623	
-0.951234	0.0427	0.299388	-16.03	22.19	-43.33	0.3493	0.0338	-0.3606	
-0.950746	0.019276	0.296948	-18.27	23.66	-41.79	0.3361	0.0374	-0.3558	
-0.95465	-0.005734	0.2928	-18.83	24.15	-40.25	0.3445	0.0447	-0.351	
-0.962336	-0.015372	0.27877	-17.71	22.96	-39.2	0.3503	0.0446	-0.3464	
-0.978562	-0.032818	0.262788	-18.76	21.21	-37.66	0.3529	0.0506	-0.3432	
-0.979172	-0.058194	0.253394	-19.88	21.49	-35.91	0.3479	0.0689	-0.3427	
-0.971364	-0.080154	0.245952	-19.11	18.48	-34.79	0.3524	0.0656	-0.3475	
-0.97356	-0.090036	0.235826	-17.08	16.94	-33.67	0.3533	0.0793	-0.3379	
-0.976122	-0.09882	0.223504	-17.99	15.68	-33.04	0.3589	0.0853	-0.3331	
-0.972462	-0.104798	0.223138	-18.34	14.14	-32.62	0.3559	0.0869	-0.3346	
-0.969778	-0.109922	0.21472	-18.83	11.41	-32.83	0.357	0.0959	-0.3344	
-0.974048	-0.121024	0.214476	-20.3	9.38	-33.11	0.3555	0.0988	-0.3406	
-0.975268	-0.124074	0.20557	-20.86	6.51	-33.6	0.3497	0.0977	-0.3313	
-0.967948	-0.12383	0.203252	-21.7	3.71	-33.53	0.3507	0.1085	-0.3186	
-0.951722	-0.128588	0.210328	-23.24	2.45	-33.81	0.3548	0.1186	-0.3355	
-0.944158	-0.136762	0.218868	-24.43	2.87	-34.58	0.366	0.1259	-0.3229	
-0.93452	-0.143594	0.220576	-26.88	2.03	-36.33	0.3456	0.1313	-0.3212	
-0.924028	-0.162504	0.230702	-28.42	2.17	-38.71	0.3422	0.145	-0.3224	
-0.930128	-0.177632	0.226676	-30.52	2.66	-41.02	0.3436	0.1449	-0.3209	
-0.928664	-0.184342	0.221796	-32.69	4.34	-43.82	0.3445	0.1614	-0.3267	
-0.927078	-0.211426	0.230458	-33.74	6.3	-46.2	0.3472	0.166	-0.3173	
-0.92476	-0.235094	0.220454	-34.86	7.56	-47.11	0.331	0.1728	-0.3109	
-0.913292	-0.284626	0.214964	-34.44	8.26	-47.81	0.3263	0.1823	-0.2998	
-0.917196	-0.311466	0.197884	-34.02	9.1	-47.67	0.3362	0.1894	-0.3013	
-0.908046	-0.330742	0.184708	-34.37	10.15	-47.74	0.3317	0.1926	-0.3012	
-0.907802	-0.347578	0.18666	-31.85	12.11	-47.6	0.334	0.2065	-0.2823	
-0.914634	-0.36539	0.170312	-30.52	11.62	-47.81	0.3298	0.2063	-0.2978	
-0.922442	-0.388692	0.156648	-31.01	8.75	-47.46	0.318	0.2128	-0.2991	
-0.936228	-0.394548	0.146034	-30.17	4.13	-46.69	0.3132	0.2251	-0.2957	
-0.912194	-0.421022	0.135176	-30.1	-2.45	-46.9	0.3111	0.2418	-0.2953	
-0.90951	-0.438224	0.129198	-28.21	-3.99	-47.11	0.3121	0.2538	-0.2935	
-0.905972	-0.462014	0.123708	-27.3	-5.74	-47.95	0.3124	0.245	-0.2844	
-0.902922	-0.482632	0.133834	-23.94	-7.35	-49.42	0.3031	0.2633	-0.2917	
-0.895236	-0.501298	0.132614	-22.96	-8.61	-51.38	0.2986	0.2652	-0.2793	
-0.86742	-0.49532	0.120292	-23.87	-13.37	-51.8	0.2868	0.2717	-0.2806	
-0.860954	-0.504714	0.127124	-25.48	-11.34	-50.33	0.2823	0.2764	-0.2805	
-0.842898	-0.527406	0.113704	-27.79	-13.86	-49.28	0.2807	0.2823	-0.2866	
-0.822768	-0.521428	0.14518	-23.73	-15.82	-48.23	0.2599	0.2969	-0.2753	
-0.81435	-0.537288	0.148352	-20.86	-13.79	-45.99	0.2569	0.2999	-0.283	
-0.811422	-0.544852	0.131882	-20.65	-14.28	-43.82	0.2643	0.2937	-0.2801	
-0.80459	-0.537654	0.161284	-16.59	-11.83	-41.09	0.2563	0.3167	-0.2764	
-0.778604	-0.595116	0.166896	-23.17	-3.92	-36.75	0.2403	0.3188	-0.2763	
-0.765672	-0.628178	0.180072	-22.19	1.61	-32.62	0.2359	0.3206	-0.2716	
-0.770064	-0.639646	0.19825	-17.71	3.78	-29.89	0.2444	0.3233	-0.2685	
-0.762134	-0.623054	0.18239	-13.65	2.24	-27.58	0.2374	0.319	-0.2701	
-0.75579	-0.616832	0.191418	-12.81	4.34	-25.69	0.2351	0.3419	-0.2634	
-0.763598	-0.633668	0.167506	-15.12	7.21	-24.29	0.2295	0.3346	-0.2604	
-0.779092	-0.644404	0.129686	-17.08	8.68	-22.05	0.2292	0.345	-0.271	
-0.793122	-0.659654	0.115168	-19.32	11.27	-19.53	0.2338	0.3372	-0.2728	
-0.808006	-0.672342	0.104066	-17.92	10.22	-17.99	0.2334	0.3482	-0.2539	
-0.81435	-0.67832	0.07869	-16.45	6.65	-16.87	0.2246	0.3516	-0.2523	
-0.792512	-0.668682	0.07442	-13.72	3.08	-15.96	0.2156	0.358	-0.2506	
-0.776286	-0.682712	0.060878	-16.8	2.52	-16.03	0.2145	0.3503	-0.2616	
-0.805444	-0.688568	0.047946	-16.59	0.28	-15.75	0.2289	0.3501	-0.2461	
-0.798002	-0.674294	0.045506	-12.74	-1.54	-14.77	0.2114	0.354	-0.232	
-0.765794	-0.65148	0.043432	-11.27	-3.22	-14	0.2175	0.3458	-0.2539	
-0.757498	-0.646722	0.052826	-13.02	-0.07	-12.67	0.2141	0.3583	-0.2381	
-0.737124	-0.64721	0.049044	-11.41	0.84	-12.46	0.2171	0.3565	-0.2459	
-0.73932	-0.662948	0.05673	-8.68	2.03	-12.88	0.2154	0.3644	-0.2365	
-0.738222	-0.682346	0.058682	-8.4	2.59	-12.95	0.1965	0.3663	-0.2472	
-0.721996	-0.680516	0.061	-7.21	1.82	-12.67	0.2097	0.3601	-0.235	
-0.70699	-0.660386	0.075518	-5.25	1.26	-12.88	0.1948	0.3727	-0.2362	
-0.698328	-0.665998	0.075518	-6.65	2.1	-13.23	0.1979	0.3668	-0.2255	
-0.705892	-0.678564	0.059536	-8.68	2.03	-12.74	0.2062	0.3781	-0.2439	
-0.717726	-0.687714	0.064172	-9.31	2.38	-11.83	0.1963	0.3712	-0.2316	
-0.728096	-0.68808	0.069906	-8.82	2.17	-11.13	0.1943	0.3864	-0.2328	
-0.72468	-0.70455	0.05978	-8.26	2.59	-9.87	0.1927	0.3895	-0.2312	
-0.714432	-0.725778	0.061244	-6.79	3.36	-9.17	0.1884	0.3898	-0.225	
-0.721874	-0.737246	0.06283	-4.27	3.01	-9.03	0.199	0.3757	-0.2269	
-0.733464	-0.735538	0.06161	-2.59	1.19	-8.12	0.1963	0.37	-0.2177	
-0.731878	-0.722728	0.059292	-2.17	-1.4	-7.21	0.1946	0.3761	-0.2191	
-0.730048	-0.733098	0.03721	-5.32	-1.33	-6.3	0.1842	0.3854	-0.225	
-0.739686	-0.738832	0.041602	-5.11	-0.56	-4.69	0.1888	0.3792	-0.2236	
-0.735904	-0.730536	0.038674	-3.36	-1.4	-2.94	0.1782	0.3902	-0.2249	
-0.723826	-0.726388	0.026718	-2.66	-1.19	-0.98	0.1886	0.3837	-0.2282	
-0.728462	-0.733952	0.03416	-0.63	0.21	0.7	0.1886	0.3837	-0.2251	
-0.711504	-0.726632	0.041114	2.31	-2.1	1.82	0.1855	0.3899	-0.2234	
-0.695522	-0.723582	0.042334	2.45	-1.54	2.73	0.1944	0.3835	-0.2236	
-0.698328	-0.731512	0.038918	2.52	-0.07	3.22	0.1902	0.3792	-0.2236	
-0.703818	-0.72651	0.04941	4.55	-1.05	3.64	0.1874	0.3761	-0.2315	
-0.69906	-0.717848	0.040992	5.18	-2.03	3.57	0.1841	0.3883	-0.2296	
-0.696986	-0.714798	0.038918	5.32	-1.61	3.71	0.1899	0.3866	-0.2281	
-0.70516	-0.712358	0.046238	6.09	-1.12	3.99	0.1898	0.3898	-0.2203	
-0.702232	-0.71187	0.046726	5.74	-2.17	4.06	0.1957	0.3865	-0.2235	
-0.706746	-0.717726	0.04087	4.48	-3.08	4.34	0.1859	0.3793	-0.2267	
-0.710894	-0.71858	0.055998	4.9	-3.78	4.97	0.196	0.3803	-0.2298	
-0.71797	-0.726876	0.053192	4.69	-4.62	6.16	0.193	0.3832	-0.2406	
-0.716628	-0.736148	0.060024	5.04	-3.92	7.84	0.1876	0.3701	-0.2269	
-0.714066	-0.739442	0.057462	6.72	-4.2	9.45	0.1989	0.3773	-0.2253	
-0.716994	-0.744444	0.061122	7.35	-3.85	11.06	0.2007	0.3693	-0.2425	
-0.722972	-0.744566	0.069662	9.66	-5.46	13.02	0.1932	0.3759	-0.2299	
-0.72651	-0.741394	0.067466	12.18	-6.58	15.54	0.1934	0.3712	-0.2393	
-0.738344	-0.74481	0.062952	12.88	-6.09	18.97	0.1965	0.365	-0.2379	
-0.742858	-0.739198	0.077714	16.31	-6.93	22.12	0.2009	0.3662	-0.2457	
-0.74847	-0.727852	0.077226	17.57	-9.03	24.71	0.2082	0.3629	-0.2442	
-0.750178	-0.716018	0.094184	19.88	-7.49	27.65	0.2138	0.3701	-0.2518	
-0.740418	-0.706624	0.09272	22.89	-7.14	30.8	0.2155	0.3611	-0.2474	
-0.738832	-0.689422	0.10309	25.62	-6.37	33.46	0.1981	0.3629	-0.2628	
-0.742004	-0.673806	0.119438	26.95	-4.9	35.7	0.2177	0.3426	-0.2602	
-0.745054	-0.653676	0.127124	29.82	-4.83	37.59	0.2233	0.347	-0.2586	
-0.751276	-0.629886	0.127856	30.24	-6.93	39.2	0.2251	0.3392	-0.2665	
-0.758718	-0.613294	0.138104	29.12	-5.95	40.81	0.2358	0.3236	-0.2731	
-0.76799	-0.602314	0.152012	29.54	-4.97	42.28	0.2327	0.3268	-0.2668	
-0.776286	-0.594628	0.149572	28.77	-4.55	43.61	0.2314	0.3251	-0.2792	
-0.790438	-0.582428	0.144692	27.93	-4.97	45.22	0.242	0.3111	-0.278	
-0.813374	-0.570472	0.157258	27.93	-4.62	45.71	0.2433	0.3155	-0.2857	
-0.825818	-0.559858	0.161528	28.14	-6.37	45.5	0.2453	0.3004	-0.2829	
-0.833382	-0.545828	0.17263	28.7	-6.65	46.06	0.26	0.295	-0.294	
-0.835944	-0.525942	0.182634	31.01	-4.9	47.11	0.2573	0.2907	-0.2894	
-0.845338	-0.501908	0.185806	31.22	-4.69	47.95	0.2647	0.2871	-0.305	
-0.85217	-0.482754	0.191418	30.87	-4.69	48.44	0.2813	0.2655	-0.2978	
-0.85888	-0.464454	0.209962	31.22	-3.78	50.19	0.2753	0.2732	-0.3007	
-0.854488	-0.441518	0.213378	31.22	-2.8	52.22	0.2814	0.2638	-0.304	
-0.856074	-0.421266	0.220454	30.66	-0.7	54.46	0.2833	0.2544	-0.3182	
-0.86559	-0.396988	0.23363	32.06	-0.49	55.65	0.2908	0.2452	-0.3122	
-0.877912	-0.373076	0.231068	31.22	-1.19	55.79	0.2957	0.2313	-0.3188	
-0.879864	-0.354166	0.236802	30.17	-0.14	56.77	0.2927	0.2344	-0.3218	
-0.896578	-0.330376	0.24583	29.05	1.26	56.49	0.303	0.2295	-0.3173	
-0.904874	-0.304268	0.26108	29.54	1.54	55.37	0.3086	0.1945	-0.3212	
-0.907314	-0.275232	0.264374	30.45	1.54	54.67	0.3141	0.2017	-0.3303	
-0.906948	-0.250344	0.265472	30.1	2.94	54.6	0.3181	0.1729	-0.3279	
-0.905728	-0.230214	0.269498	29.75	5.67	54.11	0.3166	0.1729	-0.3326	
-0.90341	-0.208864	0.27206	29.4	6.93	53.13	0.3258	0.1589	-0.3344	
-0.920002	-0.189466	0.26352	28.49	8.89	52.5	0.3273	0.1573	-0.3345	
-0.938058	-0.16897	0.251686	25.62	9.24	52.36	0.3435	0.1507	-0.3347	
-0.947208	-0.1525	0.24583	24.85	9.59	52.43	0.3381	0.1403	-0.338	
-0.95221	-0.146034	0.252296	24.78	10.29	52.29	0.3441	0.1325	-0.3367	
-0.946964	-0.144692	0.246318	25.48	9.66	52.22	0.3488	0.1246	-0.3446	
-0.945866	-0.12017	0.235704	24.85	9.31	52.22	0.3563	0.1143	-0.3216	
-0.94367	-0.086742	0.234118	24.99	9.87	51.94	0.3506	0.1144	-0.3247	
-0.949282	-0.058926	0.227286	25.55	8.4	50.89	0.3568	0.1019	-0.3343	
-0.956724	-0.032086	0.216062	23.31	7.07	49.91	0.36	0.09429999	-0.3314	
-0.95526	-0.000976	0.21472	21.14	5.32	48.93	0.3649	0.07759999	-0.3271	
-0.961848	0.032452	0.217038	18.62	4.06	48.16	0.3621	0.0759	-0.3411	
-0.977464	0.064538	0.219356	14.84	3.78	47.25	0.3724	0.07	-0.3165	
-0.99003	0.07905599	0.22509	11.97	2.87	45.43	0.3657	0.0565	-0.3245	
-0.993812	0.07625	0.218502	11.83	-0.28	43.4	0.3625	0.0642	-0.3243	
-0.995642	0.083814	0.21655	10.15	-0.28	41.86	0.3793	0.0409	-0.3249	
-0.972828	0.091256	0.221308	9.8	0.35	39.06	0.3723	0.0322	-0.322	
-0.97295	0.10004	0.225334	11.27	-1.89	36.12	0.3709	0.0308	-0.3204	
-0.979782	0.105652	0.213622	10.15	0	35.56	0.3694	0.0336	-0.3328	
-0.978684	0.113094	0.21655	9.66	-1.33	34.79	0.3709	0.0321	-0.3297	
-0.976244	0.134078	0.21838	10.5	-1.75	33.81	0.3769	0.0259	-0.3252	
-0.981246	0.142984	0.219478	10.99	-3.5	33.46	0.3732	0.0079	-0.3272	
-0.984174	0.14762	0.217648	10.15	-3.99	34.23	0.3675	0.0081	-0.3302	
-0.983442	0.145912	0.225822	10.64	-5.67	35	0.3719	0.0062	-0.338	
-0.968924	0.152378	0.239486	11.97	-7.91	35.84	0.3778	0.0019	-0.318	
-0.951722	0.158722	0.242902	12.18	-7.28	36.47	0.3726	-0.0132	-0.3338	
-0.94733	0.171288	0.249612	13.44	-7.14	37.45	0.3725	-0.0101	-0.3307	
-0.947086	0.18727	0.25559	14.28	-7.21	37.8	0.37	-0.0208	-0.3417	
-0.954406	0.20496	0.254248	15.54	-7.91	37.94	0.3775	-0.0298	-0.3249	
-0.94367	0.21167	0.256932	15.33	-9.1	38.36	0.3663	-0.0372	-0.339	
-0.92049	0.214964	0.258152	16.45	-8.68	38.29	0.3736	-0.0406	-0.3422	
-0.920978	0.226432	0.26657	17.43	-7	38.99	0.3711	-0.0496	-0.3439	
-0.919026	0.239486	0.260226	16.94	-7.07	40.53	0.3727	-0.0555	-0.3348	
-0.91866	0.254614	0.25254	17.43	-8.12	41.79	0.3759	-0.0619	-0.3489	
-0.923296	0.277916	0.25803	18.69	-8.19	43.54	0.3586	-0.0654	-0.3288	
-0.92354	0.30073	0.25559	19.6	-9.31	45.08	0.3608	-0.084	-0.3478	
-0.919148	0.333792	0.2562	20.86	-9.8	46.76	0.3581	-0.0898	-0.3448	
-0.917928	0.34404	0.261202	21.35	-9.17	47.25	0.3581	-0.0898	-0.3448	
-0.910364	0.365756	0.264618	21.07	-10.57	48.16	0.364	-0.0945	-0.3403	
-0.887184	0.400648	0.259128	19.81	-13.23	50.26	0.3461	-0.118	-0.3438	
-0.87718	0.408822	0.258762	20.16	-13.58	51.03	0.3461	-0.118	-0.3438	
-0.86132	0.434076	0.256322	20.58	-17.92	51.8	0.3494	-0.1289	-0.3549	
-0.844362	0.458232	0.254858	21.49	-19.25	51.87	0.3465	-0.13	-0.341	
-0.826794	0.49593	0.260958	22.82	-19.11	50.68	0.3353	-0.1401	-0.3397	
-0.811422	0.51789	0.2562	22.96	-16.17	49.21	0.3417	-0.1542	-0.3524	
-0.826184	0.523746	0.270718	20.16	-19.39	48.02	0.3331	-0.1583	-0.3478	
-0.821914	0.533384	0.25864	20.16	-16.59	47.32	0.3275	-0.1628	-0.3556	
-0.797514	0.53924	0.252784	18.97	-14.42	46.2	0.3161	-0.1683	-0.3511	
-0.771528	0.552904	0.25986	18.55	-14.56	45.57	0.3183	-0.188	-0.3515	
-0.764208	0.560956	0.270596	19.18	-14.14	44.87	0.3124	-0.1835	-0.3607	
-0.754692	0.569496	0.27084	19.95	-15.75	43.4	0.2952	-0.1872	-0.3561	
-0.750178	0.595726	0.273646	21.21	-14.77	41.44	0.2971	-0.2007	-0.3471	
-0.736392	0.617198	0.26474	20.44	-16.66	38.29	0.3002	-0.2083	-0.3442	
-0.744566	0.63074	0.271572	19.88	-15.96	36.26	0.2846	-0.2152	-0.3427	
-0.73444	0.64599	0.267668	19.95	-14.91	34.37	0.2875	-0.2153	-0.3427	
-0.705892	0.66307	0.26291	19.88	-15.4	32.69	0.2879	-0.2276	-0.3507	
-0.704306	0.670756	0.282186	20.16	-15.47	32.62	0.2764	-0.2287	-0.3554	
-0.6954	0.683688	0.284138	21.63	-13.79	33.53	0.2775	-0.2195	-0.3459	
-0.694302	0.690642	0.28365	20.44	-14.42	34.79	0.2653	-0.2418	-0.3525	
-0.682834	0.70089	0.281698	21	-15.54	35.21	0.2683	-0.245	-0.3526	
-0.669902	0.728462	0.285602	21.84	-17.43	34.37	0.2643	-0.2551	-0.3404	
-0.658434	0.724802	0.280722	20.16	-14.84	33.46	0.2523	-0.2414	-0.354	
-0.652822	0.729804	0.284504	18.06	-13.93	31.85	0.2571	-0.2548	-0.3373	
-0.634278	0.751886	0.25925	15.96	-14.49	29.54	0.2428	-0.2603	-0.3405	
-0.613904	0.772504	0.272792	16.94	-13.37	29.68	0.2517	-0.2652	-0.3406	
-0.60817	0.787876	0.279136	15.33	-13.3	28	0.2434	-0.2756	-0.3501	
-0.619394	0.791048	0.264618	14.42	-16.8	25.97	0.2434	-0.2755	-0.3455	
-0.6161	0.768356	0.265716	12.25	-16.94	24.43	0.2264	-0.2839	-0.3425	
-0.61061	0.75701	0.26535	10.22	-17.5	21.77	0.2217	-0.2748	-0.35	
-0.632448	0.764452	0.273158	10.71	-22.54	19.11	0.229	-0.2766	-0.3485	
-0.573644	0.795318	0.280478	15.89	-39.13	13.09	0.2253	-0.2947	-0.3551	
-0.56425	0.824598	0.24949	8.54	-10.99	14.84	0.2181	-0.2941	-0.3442	
-0.605242	0.80154	0.303658	5.81	-8.05	16.17	0.2104	-0.2819	-0.3486	
-0.590724	0.807396	0.272792	7.35	-15.33	14	0.1991	-0.2889	-0.3441	
-0.588528	0.821182	0.29097	4.69	-9.59	13.37	0.2128	-0.3076	-0.3492	
-0.584746	0.837286	0.292556	3.71	-7.28	11.06	0.2124	-0.297	-0.3489	
-0.576206	0.835334	0.293044	2.24	-6.23	8.75	0.2095	-0.2956	-0.3551	
-0.580964	0.824354	0.29463	1.33	-3.01	7.91	0.2023	-0.2981	-0.3443	
-0.576816	0.82289	0.288042	0.56	-2.52	7	0.1965	-0.298	-0.3505	
-0.566202	0.824354	0.283894	0.42	-3.92	4.76	0.1934	-0.2931	-0.341	
-0.566446	0.82289	0.283406	-0.21	-2.38	3.29	0.1995	-0.301	-0.3474	
-0.571936	0.82716	0.284382	-0.21	-1.75	2.45	0.1848	-0.293	-0.3519	
-0.57279	0.817034	0.279868	-1.47	-0.21	1.33	0.2035	-0.292	-0.341	
-0.56852	0.812764	0.279502	-1.82	0.14	-0.42	0.2011	-0.3028	-0.3537	
-0.566568	0.815326	0.282186	-2.59	0.7	-1.96	0.1896	-0.3066	-0.3429	
-0.560102	0.802394	0.289872	-4.13	1.75	-3.08	0.2024	-0.2996	-0.3443	
-0.561078	0.806054	0.293288	-4.62	1.89	-3.92	0.2022	-0.2954	-0.3582	
-0.563274	0.795318	0.296216	-4.55	1.75	-4.62	0.2015	-0.3134	-0.3586	
-0.56059	0.78751	0.29829	-4.27	1.89	-5.18	0.2024	-0.2996	-0.3474	
-0.565104	0.786168	0.29341	-5.18	1.19	-5.81	0.1978	-0.2934	-0.3473	
-0.570838	0.789706	0.296338	-5.74	2.03	-6.02	0.2008	-0.2951	-0.3489	
-0.571326	0.790316	0.29463	-6.23	1.4	-6.3	0.2122	-0.291	-0.3488	
-0.573644	0.779702	0.296704	-6.16	1.19	-6.72	0.2065	-0.2914	-0.3751	
-0.577792	0.778726	0.29524	-5.53	1.12	-7.07	0.2097	-0.3002	-0.3614	
-0.57401	0.780556	0.293044	-5.04	0.21	-7.77	0.1991	-0.2891	-0.3518	
-0.57462	0.780312	0.296826	-5.6	0.7	-8.19	0.2051	-0.2938	-0.3519	
-0.581818	0.779092	0.296948	-5.6	-0.07	-8.82	0.2019	-0.2862	-0.3518	
-0.591212	0.780678	0.302194	-6.02	0.21	-9.31	0.2107	-0.2896	-0.355	
-0.593774	0.773358	0.306464	-5.46	-0.14	-10.15	0.2004	-0.2861	-0.3502	
-0.59048	0.761402	0.309636	-5.81	-0.63	-11.13	0.2033	-0.2849	-0.3595	
-0.594018	0.765306	0.30866	-5.53	0.49	-11.62	0.2061	-0.2832	-0.3486	
-0.596824	0.767868	0.311222	-6.65	0.98	-12.11	0.2089	-0.2792	-0.3671	
-0.607072	0.772992	0.313662	-7.28	1.47	-12.53	0.2161	-0.2794	-0.3625	
-0.617198	0.77714	0.311832	-7.7	1.96	-13.65	0.2149	-0.2854	-0.3657	
-0.61915	0.774578	0.313906	-9.24	2.87	-14.91	0.22	-0.2661	-0.3669	
-0.62037	0.771162	0.30988	-10.78	3.01	-16.66	0.2248	-0.2798	-0.3641	
-0.628178	0.770552	0.313662	-11.41	3.5	-19.04	0.2191	-0.2825	-0.361	
-0.631228	0.772382	0.314028	-11.76	3.08	-21.84	0.2156	-0.2644	-0.3668	
-0.630618	0.761646	0.319274	-12.46	3.99	-23.94	0.22	-0.2675	-0.3638	
-0.634522	0.747982	0.317932	-12.74	4.27	-25.9	0.2254	-0.2556	-0.3605	
-0.640866	0.732854	0.317688	-14.14	4.83	-28.35	0.2282	-0.2542	-0.362	
-0.645014	0.72102	0.321104	-14.63	4.97	-31.22	0.2281	-0.2513	-0.3666	
-0.648674	0.706136	0.325862	-14.14	5.88	-33.74	0.2342	-0.2591	-0.3668	
-0.653554	0.702842	0.327448	-15.54	6.37	-36.12	0.235	-0.2408	-0.3571	
-0.655628	0.693204	0.339648	-16.73	7.28	-37.94	0.241	-0.2458	-0.3696	
-0.663558	0.690276	0.328546	-16.24	7	-38.99	0.2449	-0.2354	-0.3709	
-0.680394	0.674416	0.323666	-17.78	7.14	-38.85	0.2463	-0.234	-0.3709	
-0.706746	0.653066	0.34648	-17.99	10.43	-38.01	0.2517	-0.2222	-0.3753	
-0.706746	0.64904	0.329034	-18.41	10.22	-39.13	0.2606	-0.2287	-0.3817	
-0.714066	0.630252	0.334524	-18.34	8.96	-40.04	0.253	-0.2191	-0.369	
-0.713334	0.612318	0.334524	-17.78	7.77	-40.39	0.2743	-0.2079	-0.3719	
-0.72041	0.613782	0.33306	-20.58	10.29	-41.02	0.2727	-0.2061	-0.3626	
-0.73139	0.59597	0.351116	-19.95	11.27	-42.07	0.2799	-0.2021	-0.3734	
-0.74359	0.59597	0.340014	-17.01	7.84	-43.05	0.2786	-0.2066	-0.3719	
-0.759572	0.583526	0.328302	-18.34	9.17	-43.19	0.2836	-0.1871	-0.3715	
-0.768844	0.558516	0.333548	-19.46	11.69	-42.56	0.2838	-0.1902	-0.3747	
-0.768112	0.5429	0.324886	-19.11	10.64	-42.98	0.2891	-0.1768	-0.3729	
-0.777384	0.5246	0.325984	-19.53	11.27	-43.33	0.2989	-0.1682	-0.3773	
-0.791048	0.502396	0.33245	-19.81	10.85	-43.54	0.2945	-0.168	-0.3758	
-0.805566	0.479582	0.340014	-19.53	11.48	-43.89	0.297	-0.1561	-0.3802	
-0.812276	0.46787	0.338672	-18.9	11.83	-44.17	0.2997	-0.1517	-0.377	
-0.82472	0.458476	0.337452	-19.6	11.69	-44.31	0.3069	-0.1504	-0.3739	
-0.831186	0.439688	0.338916	-20.79	12.95	-44.24	0.2994	-0.144	-0.3706	
-0.846924	0.418704	0.33611	-22.05	18.62	-43.19	0.3049	-0.1353	-0.3766	
-0.84119	0.396134	0.334036	-21.7	14.77	-42.56	0.3087	-0.1203	-0.3763	
-0.841556	0.37698	0.327204	-20.51	15.26	-41.93	0.327	-0.1087	-0.3653	
-0.873886	0.364536	0.33611	-19.88	16.52	-42.07	0.3244	-0.1146	-0.3654	
-0.885842	0.346114	0.328912	-20.51	15.54	-41.72	0.315	-0.0963	-0.3727	
-0.891942	0.329644	0.330132	-20.72	16.94	-40.53	0.3354	-0.09999999	-0.3682	
-0.882914	0.310368	0.33733	-20.86	16.59	-40.11	0.3379	-0.0896	-0.3695	
-0.863638	0.290604	0.328424	-20.23	16.8	-39.41	0.3345	-0.0773	-0.363	
-0.88938	0.269864	0.337208	-20.93	21.21	-38.29	0.3302	-0.0757	-0.3692	
-0.890478	0.261324	0.321104	-19.53	17.43	-38.71	0.3401	-0.0702	-0.3737	
-0.914512	0.253638	0.306464	-19.53	20.58	-37.1	0.3486	-0.0672	-0.3613	
-0.92659	0.217648	0.30134	-24.43	35.84	-32.06	0.3441	-0.0609	-0.358	
-0.904996	0.189466	0.30805	-22.82	24.5	-31.36	0.3636	-0.0407	-0.3639	
-0.901702	0.17019	0.269864	-21.98	23.03	-30.87	0.3562	-0.0372	-0.356	
-0.90097	0.138714	0.273768	-20.02	26.32	-30.59	0.347	-0.0246	-0.3479	
-0.930982	0.127124	0.272914	-19.25	23.94	-31.29	0.3554	-0.0174	-0.3463	
-0.978562	0.142496	0.251686	-18.13	23.52	-31.78	0.3657	-0.0208	-0.3479	
-1.013454	0.15799	0.237412	-20.44	23.73	-29.4	0.3641	-0.0161	-0.3447	
-0.998082	0.1342	0.23302	-23.24	22.54	-26.32	0.3738	-0.008599999	-0.326	
-0.972828	0.108214	0.241926	-21.91	20.79	-24.43	0.3709	-0.0072	-0.3399	
-0.981368	0.094184	0.234972	-17.57	14.84	-23.8	0.3735	0.003	-0.3443	
-0.984174	0.082594	0.215818	-15.96	11.97	-23.87	0.3705	0.0049	-0.3334	
-0.977708	0.074664	0.199836	-14.98	9.03	-22.96	0.3691	0.0035	-0.3303	
-0.991616	0.083204	0.202032	-13.23	10.01	-23.8	0.3757	0.0185	-0.3223	
-1.001376	0.083204	0.209474	-11.9	8.96	-24.36	0.384	0.0287	-0.3252	
-0.996252	0.07905599	0.20313	-10.43	5.67	-25.34	0.3725	0.029	-0.3298	
-0.988078	0.07747	0.206546	-9.94	4.55	-26.18	0.3767	0.0334	-0.3281	
-0.98271	0.073444	0.22448	-8.47	2.94	-27.72	0.3798	0.0258	-0.3283	
-0.987468	0.080642	0.222894	-6.65	0.98	-29.4	0.3679	0.0353	-0.3265	
-0.987956	0.079788	0.225212	-7.07	1.54	-30.38	0.3867	0.0361	-0.325	
-0.983076	0.072346	0.226188	-8.12	3.22	-30.8	0.3702	0.0505	-0.3184	
-0.965386	0.06283	0.227652	-8.33	3.64	-31.36	0.3702	0.052	-0.3169	
-0.958432	0.059536	0.230458	-8.33	4.97	-32.27	0.3744	0.0561	-0.3292	
-0.959042	0.049654	0.227286	-8.47	5.95	-33.95	0.3697	0.0642	-0.3135	
-0.965386	0.040748	0.220088	-8.33	6.09	-36.19	0.3724	0.0699	-0.3242	
-0.975634	0.031964	0.21716	-9.24	5.6	-38.43	0.3682	0.0655	-0.3258	
-0.97417	0.023546	0.214964	-10.92	5.25	-40.67	0.3681	0.0687	-0.3149	
-0.966972	0.01586	0.223992	-11.2	5.18	-42.63	0.3761	0.08639999	-0.3223	
-0.96502	0.002684	0.21716	-12.53	4.76	-44.31	0.3643	0.0945	-0.3159	
-0.961238	-0.013298	0.214842	-14.84	6.72	-45.29	0.3697	0.1046	-0.325	
-0.953918	-0.028182	0.213134	-15.26	7.21	-46.9	0.3744	0.0941	-0.3175	
-0.962214	-0.052948	0.201788	-17.71	7.56	-48.02	0.3593	0.1112	-0.317	
-0.969412	-0.077714	0.187392	-20.16	8.61	-48.51	0.3696	0.1063	-0.3172	
-0.960872	-0.101992	0.18971	-22.12	7.28	-49.56	0.3617	0.1248	-0.3152	
-0.959896	-0.12688	0.187148	-20.72	7.07	-52.22	0.3641	0.1383	-0.3149	
-0.966118	-0.150182	0.161284	-20.44	6.51	-53.9	0.3569	0.1372	-0.3087	
-0.97112	-0.174094	0.166774	-23.17	5.88	-55.79	0.3581	0.1447	-0.307	
-0.961848	-0.200568	0.165676	-24.43	3.78	-58.8	0.3561	0.1584	-0.3051	
-0.950502	-0.227286	0.163724	-27.16	2.52	-60.41	0.3485	0.1693	-0.3033	
-0.935252	-0.2623	0.191174	-26.67	-1.12	-59.85	0.3469	0.1739	-0.3016	
-0.915244	-0.295362	0.18178	-23.87	-4.13	-58.31	0.3506	0.1889	-0.2982	
-0.90707	-0.328302	0.167628	-23.1	-5.25	-56.77	0.3289	0.1913	-0.2965	
-0.909388	-0.374418	0.166896	-23.45	-5.46	-56.84	0.3325	0.2107	-0.2977	
-0.910608	-0.407602	0.154696	-22.12	-4.83	-57.26	0.3305	0.2245	-0.2927	
-0.912316	-0.431148	0.161772	-21.14	-4.2	-57.47	0.3173	0.2321	-0.3111	
-0.89609	-0.45262	0.169336	-18.41	-5.74	-57.54	0.3143	0.2326	-0.294	
-0.87535	-0.460794	0.163114	-16.45	-6.37	-53.62	0.3116	0.2296	-0.2972	
-0.865224	-0.474214	0.16653	-16.73	-4.97	-53.97	0.3039	0.242	-0.2953	
-0.853756	-0.473116	0.15921	-15.61	-1.68	-51.66	0.2995	0.2435	-0.3046	
-0.854732	-0.48983	0.155184	-17.22	3.15	-48.72	0.2905	0.2517	-0.2919	
-0.839238	-0.499102	0.14945	-18.76	3.78	-47.18	0.296	0.2589	-0.2949	
-0.819718	-0.515694	0.154574	-18.9	0.56	-47.39	0.2914	0.2668	-0.2901	
-0.80886	-0.537898	0.140056	-19.81	-0.42	-47.11	0.2751	0.2766	-0.2836	
-0.817644	-0.54961	0.14091	-17.29	-3.5	-47.25	0.2822	0.2808	-0.2851	
-0.819962	-0.563152	0.149084	-16.87	-3.71	-47.6	0.2675	0.286	-0.2818	
-0.806176	-0.56913	0.150182	-15.26	-4.9	-46.97	0.2642	0.2995	-0.2877	
-0.784216	-0.583892	0.14945	-16.03	-4.34	-45.57	0.2626	0.3027	-0.2814	
-0.78202	-0.620248	0.118828	-19.74	-1.96	-43.61	0.2554	0.3016	-0.2783	
-0.791902	-0.65026	0.111874	-20.51	1.19	-41.79	0.2551	0.3092	-0.2766	
-0.805688	-0.647454	0.122976	-18.2	1.89	-40.18	0.252	0.3153	-0.2795	
-0.786412	-0.652944	0.09455	-20.44	0.35	-38.01	0.2388	0.3188	-0.2779	
-0.775188	-0.658434	0.096502	-18.48	0.49	-36.05	0.2397	0.334	-0.2713	
-0.77104	-0.67893	0.099186	-17.71	2.8	-34.44	0.2279	0.342	-0.2711	
-0.773846	-0.693936	0.071614	-16.73	0.91	-32.13	0.2262	0.3467	-0.2663	
-0.756156	-0.679906	0.07869	-11.9	-3.57	-31.08	0.2179	0.3366	-0.2619	
-0.73688	-0.683078	0.09942999	-12.32	-2.8	-30.1	0.2219	0.3455	-0.2617	
-0.734806	-0.703574	0.095038	-13.44	0.49	-28	0.2232	0.3499	-0.2616	
-0.731024	-0.695888	0.099796	-10.08	-0.77	-25.69	0.2141	0.3608	-0.2629	
-0.720044	-0.696254	0.10431	-9.24	0.56	-23.38	0.2073	0.3504	-0.2693	
-0.71553	-0.709552	0.105286	-9.87	3.01	-21.14	0.2114	0.3565	-0.2599	
-0.709918	-0.722728	0.097234	-9.38	4.41	-18.76	0.2017	0.3449	-0.2524	
-0.70821	-0.724924	0.102358	-7.84	5.18	-16.94	0.1996	0.3629	-0.2612	
-0.711138	-0.725656	0.083082	-6.86	5.11	-15.05	0.1994	0.3662	-0.2488	
-0.709552	-0.738344	0.071492	-6.93	5.6	-13.37	0.1964	0.3707	-0.2533	
-0.7259	-0.750178	0.073078	-7.63	6.65	-11.55	0.192	0.3712	-0.2378	
-0.718824	-0.749934	0.066246	-6.58	3.85	-9.66	0.1967	0.3618	-0.2458	
-0.715408	-0.743102	0.065636	-6.02	4.27	-7.63	0.195	0.3678	-0.2503	
-0.717604	-0.741638	0.064782	-3.78	3.15	-6.65	0.2007	0.3708	-0.2425	
-0.710894	-0.744078	0.049166	-2.73	1.54	-6.16	0.1933	0.3756	-0.2454	
-0.709064	-0.745786	0.057218	-1.96	0.35	-5.39	0.1924	0.3604	-0.252	
-0.708332	-0.736392	0.063196	0.7	-1.4	-4.48	0.195	0.3695	-0.244	
-0.70333	-0.727974	0.066612	2.66	-1.61	-2.8	0.1989	0.3799	-0.2423	
-0.695888	-0.721874	0.075518	2.87	-1.4	-1.26	0.1977	0.3739	-0.2439	
-0.70028	-0.727974	0.077592	2.66	-0.91	-0.35	0.1925	0.3589	-0.252	
-0.69479	-0.723704	0.077958	4.13	-1.47	0.63	0.1891	0.3725	-0.2532	
-0.6893	-0.71736	0.087962	5.6	-2.52	1.05	0.1963	0.371	-0.2424	
-0.697352	-0.719556	0.083204	4.34	-1.89	1.68	0.1963	0.3709	-0.244	
-0.695766	-0.716872	0.088694	3.85	-1.82	2.87	0.1952	0.3619	-0.2442	
-0.687958	-0.717726	0.093696	2.38	-1.4	3.71	0.2065	0.3703	-0.258	
-0.691252	-0.727242	0.088572	0.56	-0.28	4.34	0.1949	0.3722	-0.2564	
-0.69357	-0.73383	0.08662	0.49	-0.35	5.25	0.1896	0.3575	-0.252	
-0.697596	-0.727974	0.087718	0.84	-0.28	6.51	0.2009	0.3646	-0.2504	
-0.708088	-0.73444	0.077836	0.21	-1.61	7.35	0.1967	0.3617	-0.2535	
-0.725534	-0.742004	0.084424	0.7	-1.54	8.33	0.2038	0.3659	-0.2565	
-0.722606	-0.731024	0.08906	4.06	-3.36	9.59	0.1995	0.3647	-0.2488	
-0.707478	-0.725168	0.08723	5.6	-4.2	11.06	0.2037	0.3676	-0.2472	
-0.70943	-0.734562	0.082472	4.9	-1.26	12.39	0.1996	0.3616	-0.2535	
-0.726998	-0.72956	0.08845	7.49	-1.05	13.44	0.2052	0.3659	-0.2519	
-0.729926	-0.709918	0.096258	10.08	-1.82	15.12	0.1982	0.3629	-0.2659	
-0.717604	-0.69906	0.091988	9.94	-2.87	16.87	0.2055	0.3583	-0.2567	
-0.716872	-0.70272	0.09272	9.52	-0.63	18.48	0.2099	0.3579	-0.266	
-0.723094	-0.702354	0.092964	10.85	-0.14	19.74	0.207	0.3581	-0.2614	
-0.735172	-0.686494	0.092964	12.11	-1.4	20.72	0.226	0.3514	-0.2585	
-0.740784	-0.674904	0.09942999	11.83	-1.54	21.98	0.2178	0.3395	-0.2634	
-0.740296	-0.668438	0.107726	13.02	-2.03	22.82	0.2224	0.3346	-0.2759	
-0.734928	-0.663802	0.10614	13.79	-2.66	23.45	0.2205	0.3453	-0.271	
-0.747128	-0.665876	0.110532	13.51	-1.12	24.15	0.221	0.3318	-0.2667	
-0.755546	-0.66185	0.111386	13.58	-1.89	24.64	0.2282	0.3329	-0.2713	
-0.76372	-0.649162	0.108458	12.88	-3.01	25.06	0.2297	0.3328	-0.276	
-0.762012	-0.644648	0.116266	12.53	-3.22	25.69	0.2353	0.3357	-0.2713	
-0.761768	-0.638548	0.114192	13.02	-4.27	26.39	0.237	0.328	-0.273	
-0.770552	-0.618662	0.127002	13.65	-3.92	27.3	0.2338	0.3358	-0.2666	
-0.774334	-0.603656	0.125172	13.44	-5.18	28.14	0.2417	0.3201	-0.2825	
-0.78019	-0.602802	0.130784	12.88	-4.34	29.05	0.2434	0.3127	-0.2734	
-0.792024	-0.60939	0.134322	13.23	-3.22	30.17	0.2419	0.3141	-0.2811	
-0.801418	-0.593896	0.137616	13.79	-4.9	31.22	0.2419	0.3142	-0.2764	
-0.80032	-0.572668	0.146156	15.47	-5.95	32.06	0.2525	0.3017	-0.2783	
-0.805932	-0.568276	0.154696	14.84	-3.22	33.25	0.2555	0.2999	-0.2845	
-0.821792	-0.561932	0.154208	16.1	-2.45	34.37	0.2598	0.3012	-0.2876	
-0.830454	-0.54778	0.15433	17.15	-2.31	35.7	0.2631	0.2889	-0.2926	
-0.839726	-0.532408	0.162016	16.94	-1.96	37.38	0.2693	0.2781	-0.2913	
-0.8479	-0.52948	0.165432	17.01	-0.98	38.78	0.2692	0.2811	-0.2928	
-0.864858	-0.527284	0.16226	17.78	-1.82	39.41	0.277	0.2655	-0.304	
-0.883524	-0.513254	0.16592	19.67	-4.2	40.46	0.2844	0.2594	-0.2933	
-0.880718	-0.484462	0.173606	20.65	-4.34	41.02	0.2847	0.2531	-0.3074	
-0.874374	-0.467748	0.19154	21.35	-4.2	41.79	0.2848	0.2503	-0.2982	
-0.87291	-0.454084	0.193492	21.91	-4.06	42.98	0.2978	0.2496	-0.3044	
-0.87779	-0.43493	0.191174	22.05	-3.5	44.45	0.294	0.2361	-0.3078	
-0.873276	-0.413946	0.20191	20.79	-1.61	45.99	0.2925	0.2376	-0.3109	
-0.87047	-0.400404	0.205326	20.09	-0.21	47.67	0.2971	0.2301	-0.3033	
-0.884744	-0.379908	0.203374	19.6	0.28	48.37	0.3046	0.2234	-0.3205	
-0.893162	-0.355264	0.211304	18.9	-0.91	48.51	0.3061	0.2218	-0.319	
-0.903776	-0.336232	0.215696	18.2	-0.63	48.86	0.3096	0.2067	-0.3132	
-0.909876	-0.320616	0.216794	17.01	-0.56	49.7	0.3228	0.2	-0.3211	
-0.907314	-0.305976	0.224968	16.94	-1.19	50.33	0.3173	0.1942	-0.3212	
-0.904508	-0.291702	0.235582	17.5	0.56	50.54	0.3144	0.1943	-0.3212	
-0.911706	-0.274744	0.23668	17.92	0.7	49.28	0.3324	0.1755	-0.3248	
-0.92415	-0.257176	0.236436	17.92	-0.35	48.3	0.3328	0.1664	-0.325	
-0.942816	-0.23729	0.239974	18.34	-0.56	47.74	0.3255	0.1667	-0.3234	
-0.936106	-0.214964	0.246074	19.74	-2.03	46.55	0.3333	0.1513	-0.3253	
-0.936594	-0.186416	0.24522	21.14	-2.03	44.66	0.3375	0.1543	-0.316	
-0.94245	-0.159942	0.243146	21.28	-1.47	43.68	0.3347	0.1527	-0.3269	
-0.946232	-0.139324	0.24888	20.37	0.42	43.4	0.3467	0.1402	-0.3256	
-0.95282	-0.134688	0.250344	19.04	3.57	44.03	0.3486	0.1296	-0.3243	
-0.96502	-0.127856	0.246562	18.69	5.32	44.66	0.3434	0.1132	-0.3262	
-0.96624	-0.112118	0.24827	19.39	4.34	44.24	0.348	0.1053	-0.3342	
-0.957822	-0.096258	0.242536	19.81	4.76	44.17	0.3582	0.1035	-0.3281	
-0.957212	-0.08357	0.244488	19.88	6.51	44.87	0.3553	0.1037	-0.3249	
-0.959164	-0.060024	0.24095	20.51	6.51	45.43	0.36	0.09429999	-0.3314	
-0.964166	-0.01769	0.227164	18.55	7.63	46.41	0.3763	0.0845	-0.3394	
-0.9577	-0.005124	0.223992	17.57	7.42	46.9	0.3693	0.0774	-0.3318	
-0.964532	0.034526	0.228994	13.79	6.79	47.95	0.3782	0.07099999	-0.3304	
-0.964898	0.042578	0.219356	11.41	6.79	47.81	0.3652	0.0686	-0.3258	
-0.971486	0.066002	0.215086	8.82	5.18	46.83	0.3713	0.0609	-0.3213	
-0.99735	0.097966	0.215818	6.79	0.42	42.98	0.3689	0.0473	-0.3294	
-1.002352	0.112728	0.198616	7.49	-0.84	41.02	0.3721	0.0396	-0.3295	
-0.983442	0.101992	0.20984	4.76	-0.63	39.27	0.3723	0.0322	-0.322	
-0.980392	0.102846	0.223382	5.11	-0.07	36.61	0.384	0.0302	-0.3251	
-0.971486	0.116144	0.231556	6.86	0.07	34.58	0.3901	0.0195	-0.3192	
-0.956358	0.127368	0.23485	5.46	-0.28	32.06	0.3772	0.0185	-0.3176	
-0.971486	0.139446	0.23851	4.06	-0.49	29.26	0.3715	0.017	-0.33	
-0.980758	0.148474	0.228018	3.92	-0.49	26.67	0.3718	0.0081	-0.321	
-0.978318	0.157624	0.22631	4.97	-1.89	24.57	0.3782	-0.0074	-0.3322	
-0.975024	0.172142	0.230946	5.53	-3.15	23.03	0.3774	0.0138	-0.3255	
-0.973926	0.18361	0.230092	5.18	-3.78	21.63	0.3747	0.0065	-0.3225	
-0.96258	0.177144	0.236802	5.18	-2.38	21.21	0.3806	0.0048	-0.3195	
-0.956724	0.168726	0.236314	4.48	-2.03	20.79	0.3736	-0.0009	-0.3227	
-0.96258	0.16958	0.234484	3.85	-1.96	20.44	0.3807	0.0015	-0.3304	
-0.971974	0.169458	0.228262	4.48	-0.63	21	0.3768	-0.0104	-0.3338	
-0.966972	0.161894	0.220698	4.62	-2.8	21.21	0.3724	-0.0085	-0.3275	
-0.969168	0.158966	0.228872	7.35	-3.99	21.91	0.3857	-0.0152	-0.3308	
-0.972706	0.155672	0.22509	8.75	-5.04	23.03	0.3744	-0.0239	-0.3356	
-0.968314	0.152988	0.228994	9.66	-8.96	23.87	0.3722	-0.0404	-0.3375	
-0.976244	0.155062	0.22814	10.92	-9.38	25.34	0.3728	-0.0191	-0.3247	
-0.96624	0.150304	0.225334	12.18	-10.78	27.09	0.3791	-0.0344	-0.325	
-0.952332	0.152988	0.23851	14.56	-11.83	28.56	0.3766	-0.0449	-0.3253	
-0.961726	0.16836	0.235094	16.94	-13.02	30.1	0.3692	-0.04	-0.322	
-0.945622	0.180926	0.234118	18.06	-14.7	31.85	0.3682	-0.0522	-0.3331	
-0.936106	0.19947	0.238022	17.64	-13.16	34.02	0.3716	-0.0645	-0.335	
-0.941596	0.22387	0.2501	17.85	-13.09	36.61	0.3699	-0.0572	-0.3488	
-0.937082	0.250344	0.251198	16.45	-14.42	38.71	0.3715	-0.0631	-0.3411	
-0.930372	0.277306	0.249856	15.05	-15.4	39.97	0.3542	-0.064	-0.3427	
-0.937326	0.290726	0.247294	13.37	-14.42	42.07	0.352	-0.0806	-0.3461	
-0.935862	0.32208	0.257176	16.1	-16.38	43.26	0.3549	-0.0834	-0.3338	
-0.922808	0.346724	0.260958	17.22	-18.06	43.68	0.3408	-0.0936	-0.3402	
-0.902678	0.361974	0.27633	21.63	-17.43	43.82	0.3469	-0.1003	-0.3605	
-0.893528	0.366	0.28426	19.53	-15.4	44.24	0.3459	-0.1136	-0.3499	
-0.888526	0.385764	0.286212	19.81	-16.31	43.54	0.3459	-0.1107	-0.3545	
-0.87047	0.408212	0.269376	17.99	-15.96	41.58	0.346	-0.1151	-0.35	
-0.84241	0.431758	0.269132	16.8	-17.57	40.67	0.3334	-0.1252	-0.3486	
-0.836188	0.453474	0.27694	17.08	-17.92	41.09	0.3337	-0.1342	-0.3488	
-0.821426	0.47946	0.282796	17.15	-19.11	40.67	0.337	-0.1451	-0.3568	
-0.805688	0.493612	0.28365	18.2	-18.34	39.9	0.3227	-0.1506	-0.3584	
-0.805444	0.487512	0.28487	19.74	-15.19	39.83	0.3242	-0.1506	-0.3553	
-0.80154	0.505446	0.295362	21.7	-16.94	39.69	0.32	-0.155	-0.3585	
-0.797392	0.516426	0.302438	21.21	-17.99	39.48	0.3145	-0.1638	-0.3541	
-0.771894	0.54168	0.296338	20.93	-19.88	39.48	0.309	-0.1711	-0.3511	
-0.772504	0.573278	0.305244	20.3	-17.08	40.11	0.3009	-0.1846	-0.3622	
-0.765672	0.591456	0.305244	19.53	-15.54	39.9	0.302	-0.1754	-0.3558	
-0.739564	0.608292	0.303536	16.94	-14.98	39.9	0.295	-0.1827	-0.356	
-0.732976	0.6161	0.306464	15.54	-13.37	39.27	0.2867	-0.1944	-0.3546	
-0.716018	0.625982	0.295118	15.47	-10.5	38.92	0.2874	-0.2127	-0.3628	
-0.724314	0.642574	0.298412	13.44	-6.86	39.97	0.2988	-0.2057	-0.3689	
-0.712236	0.652334	0.296948	13.65	-10.71	39.55	0.2804	-0.2184	-0.3567	
-0.715042	0.664046	0.288652	13.23	-10.85	40.39	0.2757	-0.2075	-0.3534	
-0.703574	0.682102	0.289628	14.07	-10.5	40.25	0.2722	-0.2317	-0.3601	
-0.697596	0.679418	0.288774	12.95	-12.74	39.69	0.2747	-0.2197	-0.3583	
-0.695034	0.679052	0.293044	12.32	-15.33	39.2	0.2711	-0.2407	-0.3587	
-0.68137	0.67954	0.291092	13.93	-16.31	38.57	0.2606	-0.2297	-0.3584	
-0.658922	0.682224	0.302316	14.28	-17.01	37.17	0.2636	-0.2329	-0.3601	
-0.637206	0.694058	0.311344	14.14	-17.01	34.86	0.2468	-0.2487	-0.3542	
-0.623054	0.705526	0.299266	14.35	-17.36	31.85	0.2544	-0.2596	-0.356	
-0.63196	0.734196	0.309148	18.48	-16.87	31.36	0.238	-0.2455	-0.3618	
-0.633302	0.743346	0.30195	17.78	-15.82	31.71	0.2287	-0.2691	-0.3546	
-0.621834	0.748714	0.31049	18.27	-15.33	31.22	0.2319	-0.2754	-0.3578	
-0.596824	0.750666	0.30134	18.9	-15.33	30.45	0.2174	-0.2747	-0.3531	
-0.596458	0.74664	0.307196	18.83	-13.09	30.1	0.2189	-0.2764	-0.3593	
-0.616832	0.788974	0.324032	20.72	-9.87	28	0.2247	-0.2792	-0.3393	
-0.60939	0.801296	0.302194	20.44	-12.74	23.66	0.2075	-0.2804	-0.3547	
-0.573522	0.790194	0.310002	16.94	-12.95	21.42	0.212	-0.2866	-0.3534	
-0.561078	0.785558	0.310124	14.98	-8.4	20.93	0.2005	-0.2876	-0.3533	
-0.577548	0.82899	0.289384	15.05	-3.15	19.6	0.2006	-0.2908	-0.3581	
-0.589504	0.849486	0.303536	12.81	-2.1	17.57	0.2008	-0.2938	-0.3597	
-0.579866	0.833382	0.29097	10.43	-2.31	15.47	0.2097	-0.3029	-0.3444	
-0.565104	0.822036	0.28914	7.98	0.35	13.65	0.1993	-0.2935	-0.3488	
-0.559736	0.834724	0.297558	6.58	1.75	11.9	0.1969	-0.3085	-0.3476	
-0.561566	0.848388	0.282186	4.34	1.26	10.15	0.2008	-0.2979	-0.3396	
-0.567666	0.843386	0.282064	2.73	0.63	7.98	0.1983	-0.307	-0.346	
-0.56242	0.824232	0.27694	0.91	1.19	6.65	0.1938	-0.3038	-0.3444	
-0.56242	0.826184	0.2745	0.63	3.64	6.37	0.2023	-0.2981	-0.3474	
-0.554124	0.836554	0.27084	0.84	3.64	5.04	0.198	-0.2993	-0.3381	
-0.553148	0.837286	0.271328	-0.98	2.45	3.64	0.1896	-0.3081	-0.3414	
-0.553148	0.834602	0.267912	-2.59	2.8	3.22	0.2002	-0.3191	-0.3432	
-0.55022	0.826306	0.260226	-2.8	1.54	2.24	0.1881	-0.3064	-0.3367	
-0.543266	0.826184	0.264496	-3.01	1.68	0.7	0.1911	-0.3082	-0.3445	
-0.535092	0.820572	0.264374	-3.85	0.91	-0.49	0.1982	-0.3039	-0.3428	
-0.53375	0.818254	0.26901	-4.06	2.03	-0.98	0.1927	-0.3142	-0.3384	
-0.535458	0.82167	0.266936	-3.92	1.96	-1.33	0.1967	-0.3037	-0.3366	
-0.536434	0.823134	0.268034	-4.34	2.66	-2.03	0.195	-0.2961	-0.338	
-0.53802	0.818986	0.26352	-4.9	2.1	-2.45	0.1912	-0.3111	-0.3399	
-0.539606	0.816668	0.269864	-6.37	2.66	-2.38	0.1937	-0.2994	-0.3505	
-0.54534	0.813618	0.275964	-7.77	2.59	-2.73	0.1998	-0.3084	-0.3368	
-0.54717	0.816424	0.276086	-7.14	1.75	-3.36	0.1993	-0.2937	-0.355	
-0.549122	0.818132	0.276818	-7	0.77	-3.99	0.1966	-0.2994	-0.3458	
-0.544364	0.818376	0.276818	-7.35	0.49	-5.11	0.1965	-0.2979	-0.3458	
-0.543998	0.818742	0.280356	-7.28	-0.14	-5.67	0.1924	-0.3039	-0.3537	
-0.559248	0.819352	0.282796	-7.14	-0.35	-5.46	0.1945	-0.2828	-0.3501	
-0.568032	0.821426	0.288286	-7.84	-1.05	-6.65	0.1922	-0.2964	-0.3535	
-0.559858	0.813496	0.293044	-8.68	-1.47	-8.82	0.199	-0.2847	-0.3595	
-0.556442	0.809104	0.297192	-9.03	-1.89	-10.71	0.1935	-0.2949	-0.3519	
-0.56181	0.80947	0.304512	-8.89	-1.12	-11.69	0.2008	-0.2954	-0.3613	
-0.568398	0.799832	0.303902	-9.1	-1.05	-12.95	0.2035	-0.2894	-0.358	
-0.567666	0.794464	0.310002	-8.96	-1.26	-14.98	0.2103	-0.2791	-0.3578	
-0.565226	0.796294	0.307684	-8.68	-0.91	-17.29	0.209	-0.282	-0.3548	
-0.577304	0.797392	0.316712	-8.89	0.14	-19.32	0.1989	-0.2817	-0.3594	
-0.588406	0.80093	0.317444	-9.03	0	-21.91	0.206	-0.2803	-0.3516	
-0.585112	0.794098	0.308172	-9.87	-0.98	-24.36	0.2172	-0.2703	-0.3608	
-0.586332	0.7808	0.315492	-10.78	-0.42	-26.88	0.216	-0.2762	-0.3531	
-0.594018	0.782508	0.326106	-11.41	-0.28	-29.47	0.2157	-0.2687	-0.3561	
-0.601338	0.784216	0.321226	-11.76	-1.89	-31.92	0.2259	-0.2707	-0.3608	
-0.60329	0.766892	0.325618	-14.7	-0.49	-33.53	0.2186	-0.2662	-0.3762	
-0.606584	0.757864	0.332572	-15.4	0	-35.56	0.2296	-0.2529	-0.3682	
-0.619638	0.752618	0.332206	-15.68	0.28	-37.31	0.2273	-0.2665	-0.3731	
-0.63074	0.742004	0.341722	-17.22	1.89	-38.78	0.2282	-0.2529	-0.3712	
-0.64294	0.727486	0.341234	-18.62	2.73	-40.74	0.2338	-0.2471	-0.3742	
-0.641842	0.707356	0.346358	-20.37	3.57	-42.63	0.2293	-0.2439	-0.371	
-0.641842	0.69601	0.342576	-21	6.72	-43.82	0.2364	-0.2397	-0.3741	
-0.652944	0.677954	0.344162	-20.86	7.84	-44.87	0.2391	-0.2323	-0.3786	
-0.683322	0.655018	0.35075	-20.44	8.75	-45.57	0.2444	-0.2217	-0.3675	
-0.698938	0.638304	0.330498	-21.56	7.84	-46.76	0.2544	-0.2178	-0.3768	
-0.707112	0.611586	0.35868	-23.87	15.61	-47.81	0.2572	-0.2151	-0.3844	
-0.705526	0.598044	0.366	-20.93	8.61	-49.42	0.2569	-0.2073	-0.3765	
-0.715652	0.589626	0.346846	-18.41	8.4	-50.19	0.2669	-0.2032	-0.3765	
-0.742858	0.578524	0.35258	-18.69	10.57	-50.68	0.2679	-0.1897	-0.3777	
-0.7564	0.56669	0.354044	-18.62	10.15	-51.45	0.279	-0.1782	-0.3852	
-0.77531	0.55083	0.343186	-20.23	9.1	-51.8	0.2773	-0.1719	-0.3774	
-0.782264	0.525698	0.346602	-21.49	10.36	-50.96	0.2917	-0.1695	-0.3804	
-0.778116	0.502396	0.367586	-19.39	11.48	-49.49	0.2852	-0.1498	-0.3862	
-0.784338	0.493246	0.358192	-16.8	11.55	-49.35	0.2909	-0.1469	-0.3799	
-0.792634	0.478362	0.35075	-16.59	11.48	-49.14	0.2964	-0.1396	-0.3844	
-0.82167	0.471774	0.35136	-17.08	13.23	-48.79	0.2982	-0.1502	-0.38	
-0.833382	0.460184	0.347456	-18.13	12.74	-48.58	0.3123	-0.14	-0.3752	
-0.827282	0.439932	0.350872	-18.55	14.77	-48.65	0.3033	-0.1307	-0.3781	
-0.829844	0.42334	0.349286	-18.62	14.35	-49.28	0.3104	-0.1264	-0.3764	
-0.857294	0.40992	0.346358	-19.32	16.1	-49.21	0.3128	-0.1158	-0.3716	
-0.86498	0.391376	0.343918	-20.23	17.43	-48.79	0.314	-0.107	-0.3807	
-0.868152	0.36966	0.346724	-20.58	17.15	-47.95	0.3195	-0.09959999	-0.3774	
-0.871202	0.343674	0.346724	-20.79	18.06	-46.83	0.3203	-0.0831	-0.3771	
-0.869128	0.313784	0.353068	-21.7	19.74	-45.5	0.3217	-0.0801	-0.3785	
-0.867176	0.294874	0.342698	-22.19	19.74	-44.52	0.3243	-0.0741	-0.3722	
-0.874618	0.280844	0.3355	-22.47	21.91	-44.24	0.3314	-0.0698	-0.3706	
-0.886452	0.266448	0.329156	-23.1	22.4	-43.89	0.3485	-0.063	-0.3783	
-0.910608	0.23485	0.318176	-23.87	24.29	-42.63	0.3454	-0.0566	-0.3642	
-0.900482	0.198128	0.308416	-23.45	25.34	-42	0.3468	-0.0554	-0.375	
-0.887306	0.181292	0.295484	-23.73	23.45	-41.51	0.3433	-0.0396	-0.3514	
-0.915122	0.164456	0.287432	-24.5	26.74	-39.9	0.3382	-0.0198	-0.3509	
-0.941474	0.15006	0.277184	-26.04	26.39	-38.29	0.3588	-0.0282	-0.3558	
-0.961116	0.128344	0.272304	-27.23	24.85	-36.26	0.3641	-0.0162	-0.3478	
-0.956724	0.103334	0.262788	-26.46	24.5	-35.07	0.3612	-0.0175	-0.3416	
-0.954162	0.087962	0.258396	-25.62	22.05	-34.16	0.3564	-0.0039	-0.3491	
-0.967948	0.076738	0.252662	-25.41	21.21	-32.83	0.3626	-0.0147	-0.3493	
-0.974658	0.067588	0.24705	-24.36	19.11	-31.08	0.36	0.0142	-0.3394	
-0.9638	0.050752	0.239852	-25.2	16.87	-30.8	0.3715	0.0167	-0.3409	
-0.962214	0.045994	0.238632	-26.32	17.22	-29.68	0.3742	0.0228	-0.333	
-0.955016	0.03294	0.238144	-26.04	18.06	-28.07	0.3652	0.0308	-0.3313	
-0.979416	0.02135	0.223626	-26.39	20.65	-28.28	0.3696	0.0277	-0.3252	
-0.98271	0.022936	0.218624	-22.68	18.41	-28.56	0.375	0.038	-0.3265	
-0.984418	0.010126	0.216428	-23.66	17.43	-28.07	0.3774	0.053	-0.3293	
-0.97051	-0.001464	0.215574	-24.71	16.03	-28.14	0.3807	0.0409	-0.3233	
-0.959896	-0.000732	0.211304	-23.66	15.47	-28.98	0.3759	0.0531	-0.3262	
-0.957822	0.00183	0.201788	-24.22	16.8	-29.96	0.3771	0.0607	-0.3213	
-0.95831	-0.002318	0.201422	-26.32	19.04	-31.01	0.3693	0.0762	-0.3163	
-0.952332	-0.001952	0.2013	-27.86	18.76	-31.71	0.3884	0.06659999	-0.3057	
-0.958798	-0.006832	0.199226	-29.82	17.01	-33.74	0.3732	0.08679999	-0.3052	
-0.962824	-0.02013	0.193736	-28.84	19.11	-35.91	0.3787	0.09559999	-0.3082	
-0.975878	-0.03721	0.189222	-28.35	22.96	-35.77	0.3756	0.099	-0.2988	
-0.978928	-0.06771	0.176656	-32.9	22.19	-36.61	0.3726	0.1006	-0.2956	
-0.975878	-0.082594	0.1647	-31.43	20.72	-38.29	0.3809	0.1111	-0.2861	
-0.968314	-0.099186	0.155672	-32.34	25.83	-38.85	0.3735	0.1159	-0.2875	
-0.956114	-0.125538	0.157258	-31.85	24.57	-40.74	0.3819	0.123	-0.2921	
-0.960872	-0.150426	0.14579	-29.54	25.48	-42.21	0.3753	0.1462	-0.2791	
-0.97844	-0.173606	0.120536	-28.56	27.23	-43.05	0.3865	0.155	-0.2697	
-0.999668	-0.189832	0.099552	-25.69	26.04	-42.77	0.3837	0.1519	-0.2775	
-0.996374	-0.20008	0.078568	-25.97	22.54	-43.61	0.3848	0.1612	-0.2633	
-0.987834	-0.209352	0.07625	-26.81	18.69	-44.24	0.3773	0.1689	-0.2709	
-0.977342	-0.221674	0.073444	-24.78	17.5	-44.38	0.3896	0.1882	-0.2627	
-0.971486	-0.234362	0.059536	-24.85	15.26	-45.15	0.371	0.183	-0.2581	
-0.970998	-0.257298	0.042212	-23.94	13.23	-45.99	0.3623	0.1834	-0.2534	
-0.98027	-0.280112	0.023912	-20.51	10.57	-46.34	0.3721	0.1906	-0.2549	
-0.978562	-0.297314	0.020008	-15.68	7.42	-46.76	0.3654	0.2139	-0.2357	
-0.96624	-0.30866	0.022448	-11.41	2.73	-48.79	0.3573	0.2003	-0.2484	
-0.963312	-0.310734	0.041724	-8.4	0.42	-50.82	0.3493	0.2217	-0.251	
-0.94245	-0.329156	0.026962	-10.01	1.89	-52.01	0.3746	0.2391	-0.2398	
-0.930372	-0.351482	0.029646	-7.98	-1.89	-54.18	0.3398	0.2447	-0.2473	
-0.921222	-0.368196	0.057218	-6.09	-2.45	-55.37	0.3339	0.2467	-0.238	
-0.893406	-0.382592	0.058072	-9.17	-0.28	-55.51	0.3334	0.26	-0.2516	
-0.894504	-0.39833	0.04941	-10.92	-1.12	-54.67	0.3261	0.2634	-0.2469	
-0.88084	-0.422364	0.050142	-14.98	3.29	-55.58	0.3328	0.2767	-0.2466	
-0.872788	-0.443226	0.036722	-16.73	7	-53.97	0.3171	0.2699	-0.242	
-0.867786	-0.4697	0.009272	-21.42	8.61	-52.92	0.3214	0.2715	-0.2265	
-0.878644	-0.491904	0.003294	-21.14	5.32	-51.8	0.3035	0.2856	-0.2354	
-0.87657	-0.496662	-0.006222	-23.03	0.42	-51.45	0.3076	0.2931	-0.2322	
-0.855708	-0.518012	-0.016226	-24.43	-5.25	-52.01	0.303	0.2993	-0.2305	
-0.846802	-0.548756	-0.012078	-24.92	-2.66	-53.55	0.2909	0.3121	-0.2162	
-0.840336	-0.577182	-0.024766	-24.43	2.94	-53.27	0.2935	0.321	-0.2191	
-0.830088	-0.599264	-0.024888	-22.54	3.71	-52.71	0.2894	0.3165	-0.2285	
-0.848632	-0.623786	-0.02562	-24.43	5.32	-50.82	0.2817	0.329	-0.2205	
-0.846924	-0.618418	-0.033306	-18.83	3.36	-48.44	0.2563	0.3499	-0.2059	
-0.824964	-0.636108	-0.03782	-19.81	2.38	-46.41	0.2654	0.3389	-0.2093	
-0.803248	-0.640134	-0.034526	-19.18	1.96	-43.26	0.255	0.3453	-0.2122	
-0.786412	-0.653798	-0.036966	-16.03	-0.84	-37.45	0.2578	0.3467	-0.2107	
-0.770064	-0.652944	-0.053436	-16.66	-0.28	-36.33	0.2504	0.3517	-0.2028	
-0.770674	-0.640378	-0.047824	-12.46	0.49	-34.58	0.2457	0.3624	-0.2041	
-0.76677	-0.665754	-0.033184	-10.99	-0.56	-34.09	0.24	0.3611	-0.2056	
-0.779946	-0.682834	-0.0427	-10.85	0.91	-32.13	0.2413	0.364	-0.2071	
-0.771894	-0.680882	-0.030988	-6.23	-5.04	-31.01	0.2264	0.3768	-0.2021	
-0.760914	-0.691984	-0.027938	-7.21	-4.55	-28.63	0.2384	0.3643	-0.1978	
-0.759084	-0.702354	-0.040626	-8.05	-3.57	-25.9	0.2322	0.3763	-0.2115	
-0.74969	-0.712968	-0.0366	-7.49	-3.15	-23.24	0.2238	0.3678	-0.2008	
-0.74298	-0.724802	-0.056486	-8.96	-0.07	-19.6	0.223	0.3905	-0.2003	
-0.75091	-0.734806	-0.055266	-7	-0.77	-17.29	0.2151	0.3682	-0.2007	
-0.747372	-0.74176	-0.040138	-5.18	0.7	-14	0.222	0.3784	-0.2021	
-0.736148	-0.745298	-0.039772	-2.94	-0.42	-11.2	0.2157	0.3908	-0.2002	
-0.7442	-0.746274	-0.043798	0.28	-2.03	-9.31	0.203	0.3823	-0.1957	
-0.733952	-0.740052	-0.040626	4.97	-4.13	-7.35	0.2099	0.3925	-0.2017	
-0.720776	-0.733708	-0.036478	5.18	-3.71	-4.76	0.2056	0.3897	-0.2002	
-0.727974	-0.73261	-0.03111	5.53	-0.84	-2.24	0.2115	0.3865	-0.1972	
-0.725046	-0.728218	-0.038552	6.16	-0.21	-0.07	0.21	0.3895	-0.2018	
-0.715652	-0.718458	-0.034648	6.51	-1.33	1.33	0.2085	0.3896	-0.1971	
-0.715286	-0.720044	-0.030256	6.37	-1.26	2.17	0.2115	0.3878	-0.2049	
-0.710894	-0.713334	-0.033062	7.14	-1.33	3.22	0.2055	0.3954	-0.2125	
-0.706746	-0.706258	-0.029646	6.58	-1.12	4.13	0.21	0.3908	-0.2095	
-0.708088	-0.711748	-0.02379	5.53	-1.33	4.97	0.2145	0.3848	-0.1988	
-0.713944	-0.71675	-0.025742	5.25	-1.54	5.95	0.2061	0.3775	-0.2051	
-0.70455	-0.70577	-0.016958	5.74	-3.22	6.09	0.2116	0.3848	-0.2066	
-0.712724	-0.70943	-0.016714	3.57	-2.52	6.23	0.2088	0.3834	-0.2066	
-0.723948	-0.70333	-0.02501	3.78	-3.57	6.02	0.2162	0.3786	-0.2052	
-0.725046	-0.693204	-0.022814	2.87	-6.65	5.53	0.2146	0.3817	-0.2051	
-0.736514	-0.707112	-0.010492	-0.14	-5.18	6.44	0.2134	0.377	-0.2114	
-0.742248	-0.71309	-0.007564	2.17	-5.04	8.12	0.2222	0.3737	-0.213	
-0.74298	-0.711748	-0.008296	4.83	-6.51	9.38	0.2116	0.3846	-0.2128	
-0.738954	-0.709918	-0.000366	6.44	-7.49	10.08	0.2104	0.3801	-0.2144	
-0.740174	-0.710162	0.001952	7	-7.07	11.48	0.2091	0.3756	-0.2145	
-0.74359	-0.718336	0.006832	8.89	-5.67	13.23	0.2182	0.3646	-0.2225	
-0.751032	-0.710284	0.005612	10.08	-6.79	14.21	0.2151	0.3694	-0.2147	
-0.752984	-0.690764	0.015738	12.25	-7.84	15.47	0.222	0.3794	-0.2284	
-0.746274	-0.679662	0.019032	12.11	-7.56	17.29	0.2222	0.3733	-0.2301	
-0.746762	-0.68625	0.018788	11.48	-6.09	19.32	0.2255	0.3628	-0.2226	
-0.760182	-0.692228	0.017934	13.02	-5.53	21.21	0.2299	0.3625	-0.2273	
-0.767014	-0.676612	0.022448	16.31	-6.86	22.47	0.2253	0.366	-0.2148	
-0.764818	-0.660874	0.029768	18.13	-8.12	23.1	0.2344	0.3591	-0.2382	
-0.76128	-0.657458	0.037698	19.95	-7.28	23.87	0.2286	0.3565	-0.2289	
-0.770674	-0.66124	0.039528	20.09	-6.79	24.64	0.2492	0.3481	-0.2308	
-0.774822	-0.647942	0.041846	22.33	-9.8	25.27	0.2319	0.3473	-0.2307	
-0.777018	-0.635376	0.053314	22.89	-9.73	26.32	0.2391	0.3495	-0.2539	
-0.784216	-0.62037	0.057462	23.31	-10.64	27.02	0.2411	0.3329	-0.2497	
-0.784948	-0.609634	0.072346	23.17	-10.01	27.37	0.2496	0.3372	-0.248	
-0.795562	-0.601094	0.083692	23.38	-7.91	28.35	0.253	0.3262	-0.2591	
-0.790072	-0.588406	0.090036	22.26	-7.77	29.19	0.2487	0.3235	-0.2514	
-0.793976	-0.583526	0.095404	20.09	-7.14	29.96	0.2514	0.3279	-0.2545	
-0.798856	-0.571082	0.103822	20.86	-7	30.59	0.2551	0.308	-0.2596	
-0.806786	-0.554978	0.113704	21.21	-6.58	31.15	0.2504	0.3171	-0.2686	
-0.816302	-0.55144	0.113216	19.67	-6.09	31.85	0.2569	0.3002	-0.2721	
-0.824964	-0.544242	0.117364	20.09	-5.95	32.34	0.2683	0.3026	-0.2768	
-0.838872	-0.53436	0.130052	20.93	-5.11	33.04	0.2657	0.298	-0.2862	
-0.840946	-0.530822	0.13176	20.72	-5.39	33.39	0.2818	0.2914	-0.2848	
-0.859124	-0.518744	0.129564	20.37	-6.37	33.95	0.2865	0.2822	-0.282	
-0.863394	-0.494344	0.140056	20.72	-9.31	34.3	0.2777	0.284	-0.2865	
-0.86742	-0.482632	0.143716	20.93	-8.96	35.28	0.2811	0.2703	-0.2853	
-0.870836	-0.46421	0.150792	20.51	-8.47	36.12	0.2915	0.2623	-0.2855	
-0.874374	-0.443592	0.161772	22.47	-9.03	36.19	0.287	0.2684	-0.2916	
-0.8906	-0.432002	0.172874	20.44	-8.47	37.31	0.2931	0.2606	-0.2949	
-0.892796	-0.422486	0.177632	18.41	-6.09	39.41	0.2974	0.2618	-0.2995	
-0.899384	-0.408334	0.186294	18.41	-7.28	40.04	0.302	0.2543	-0.2919	
-0.888282	-0.390522	0.2013	20.37	-10.22	39.48	0.3071	0.2327	-0.3017	
-0.882426	-0.380762	0.209596	20.86	-8.82	39.83	0.3072	0.2326	-0.3095	
-0.889868	-0.363316	0.20679	20.51	-7.28	41.09	0.3029	0.2311	-0.3141	
-0.904996	-0.348798	0.210328	21.28	-3.92	42.56	0.3134	0.2202	-0.3129	
-0.903898	-0.3355	0.225456	21.35	-2.45	42.84	0.3063	0.2158	-0.3176	
-0.908534	-0.310978	0.227774	21.28	-0.63	42.63	0.3064	0.2129	-0.313	
-0.917196	-0.293654	0.222284	19.74	0.28	41.93	0.3243	0.1985	-0.3181	
-0.92415	-0.275354	0.217892	18.34	0.77	41.65	0.3271	0.2029	-0.3226	
-0.925614	-0.268156	0.21716	17.85	0.35	41.09	0.3156	0.1988	-0.3196	
-0.93879	-0.241682	0.222406	18.2	1.4	39.55	0.3294	0.1772	-0.317	
-0.945378	-0.232166	0.221552	18.48	0.91	38.85	0.3294	0.1772	-0.317	
-0.951356	-0.213134	0.218746	17.92	0.84	38.15	0.3429	0.166	-0.325	
-0.95221	-0.19764	0.223748	19.46	0.91	37.66	0.3355	0.1709	-0.3218	
-0.9455	-0.179218	0.235216	19.25	1.54	37.87	0.3476	0.1553	-0.3253	
-0.943426	-0.161528	0.23729	17.64	3.85	38.57	0.3409	0.1416	-0.3411	
-0.960506	-0.148962	0.231434	16.52	4.69	38.85	0.347	0.1326	-0.3274	
-0.968436	-0.141276	0.232898	16.94	2.94	38.15	0.3507	0.1493	-0.3162	
-0.969534	-0.128954	0.228384	17.99	1.12	37.24	0.3453	0.1375	-0.3133	
-0.965142	-0.111386	0.226432	16.94	1.33	37.24	0.3532	0.1205	-0.3199	
-0.957334	-0.097234	0.216672	14.35	2.94	38.22	0.353	0.1264	-0.326	
-0.95648	-0.08052	0.221186	12.25	4.62	39.27	0.3503	0.122	-0.3245	
-0.970022	-0.062708	0.219356	11.55	6.02	39.41	0.3636	0.1153	-0.3309	
-0.975024	-0.040504	0.21106	11.27	5.39	38.57	0.3656	0.09869999	-0.3282	
-0.974048	-0.02562	0.224846	12.18	2.87	36.96	0.3625	0.1048	-0.3296	
-0.978806	-0.010614	0.223016	10.85	3.22	36.68	0.363	0.0898	-0.3237	
-0.984906	-0.006344	0.219966	9.03	1.82	35.91	0.3732	0.0894	-0.3284	
-0.976488	-0.000976	0.222284	8.75	-0.07	34.65	0.3663	0.0806	-0.3286	
-0.973194	0.013786	0.222894	7.7	0.77	33.74	0.3736	0.076	-0.3163	
-0.970388	0.030988	0.225578	5.67	0.28	32.55	0.3769	0.0653	-0.3181	
-0.968558	0.043798	0.22753	3.01	1.47	31.29	0.367	0.0594	-0.3275	
-0.965874	0.050508	0.228384	1.96	3.01	29.82	0.3697	0.0641	-0.3166	
-0.96746	0.055266	0.226798	-2.8	5.95	29.61	0.3655	0.0612	-0.3182	
-0.972218	0.06527	0.222284	-7.91	10.22	30.38	0.3763	0.0428	-0.3155	
-0.978196	0.076372	0.223992	-10.43	11.83	30.31	0.3787	0.0561	-0.323	
-0.976	0.105652	0.218136	-12.53	10.36	29.68	0.3779	0.038	-0.3234	
-0.978928	0.119316	0.213622	-13.72	11.34	30.03	0.376	0.0502	-0.3185	
-0.986126	0.140666	0.201544	-14.07	15.05	30.52	0.3875	0.0529	-0.3138	
-0.992348	0.159698	0.186538	-13.58	13.16	28.14	0.3776	0.0444	-0.3093	
-1.021018	0.178486	0.177998	-9.66	10.71	25.27	0.3949	0.0453	-0.3047	
-1.023702	0.178974	0.171166	-8.54	6.86	22.47	0.3851	0.0379	-0.3141	
-1.011014	0.18727	0.175436	-4.62	2.87	19.53	0.4068	0.0359	-0.2988	
-1.003938	0.173362	0.176412	-2.24	-1.05	15.19	0.3911	0.0304	-0.305	
-0.999058	0.170556	0.182024	0.84	-5.6	10.99	0.3941	0.0302	-0.3081	
-0.991006	0.172142	0.187148	1.12	-7.49	8.05	0.3926	0.0304	-0.3019	
-0.987834	0.17019	0.190442	3.71	-9.73	6.02	0.3911	0.0332	-0.3112	
-0.982344	0.1586	0.1952	6.09	-12.25	3.92	0.3856	0.023	-0.3083	
-0.983686	0.153354	0.19764	10.85	-16.52	1.12	0.3797	0.0276	-0.3112	
-0.97783	0.145424	0.215452	14	-19.32	-1.19	0.3913	0.0286	-0.3175	
-0.97234	0.147254	0.23607	13.09	-18.48	-1.61	0.3786	0.0186	-0.3145	
-0.970388	0.150548	0.242414	7.91	-15.26	-1.75	0.3807	0.0408	-0.3264	
-0.976488	0.155794	0.240462	3.57	-13.79	-1.96	0.3725	0.0275	-0.3314	
-0.983564	0.151646	0.23424	-0.91	-10.85	-1.47	0.3766	0.0361	-0.342	
-0.974414	0.150914	0.242658	-1.47	-10.01	-1.4	0.3887	0.0208	-0.3331	
-0.971974	0.152866	0.251808	-1.26	-9.45	-1.68	0.3715	0.0169	-0.3331	
-0.97173	0.158478	0.257054	-1.47	-8.61	-2.24	0.38	0.021	-0.3362	
-0.970388	0.164822	0.257542	-4.97	-6.93	-1.75	0.3771	0.0227	-0.3346	
-0.969168	0.16897	0.253272	-8.68	-5.6	-1.26	0.3827	0.0257	-0.3268	
-0.969412	0.171532	0.255102	-8.61	-5.67	-0.91	0.3799	0.0227	-0.33	
-0.963922	0.183	0.25986	-13.58	-4.9	0.07	0.3756	0.0229	-0.3299	
-0.980636	0.183244	0.24888	-21.56	-1.61	1.54	0.3753	0.0316	-0.3468	
-0.981978	0.181414	0.244854	-25.27	-3.57	2.17	0.374	0.0276	-0.3252	
-0.970998	0.184586	0.249734	-29.19	-5.18	3.29	0.3696	0.0304	-0.339	
-0.981734	0.17934	0.256078	-35.14	-2.94	4.62	0.3751	0.0379	-0.3311	
-0.976732	0.168238	0.25925	-39.41	-4.06	5.18	0.3603	0.0474	-0.3402	
-0.977586	0.154818	0.267546	-43.19	-4.62	6.65	0.3696	0.0291	-0.3298	
-0.970998	0.15189	0.269742	-44.66	-4.83	6.44	0.3633	0.0442	-0.3403	
-0.961482	0.140544	0.277306	-45.71	-8.89	4.2	0.3776	0.0484	-0.3294	
-0.960384	0.128222	0.281698	-49.21	-3.22	3.78	0.3714	0.0578	-0.3276	
-0.95892	0.127856	0.291092	-53.27	-0.35	3.57	0.3666	0.0715	-0.3273	
-0.962946	0.123952	0.27328	-58.03	5.11	4.55	0.37	0.0576	-0.3384	
-0.97844	0.119682	0.278526	-55.16	16.66	7.14	0.3765	0.0758	-0.321	
-0.983442	0.115656	0.273646	-58.59	16.8	6.37	0.3723	0.073	-0.3179	
-0.957822	0.105774	0.265838	-65.59	12.18	4.48	0.3723	0.0715	-0.3164	
-0.936472	0.080154	0.255346	-71.61	18.97	4.48	0.3704	0.0853	-0.313	
-0.980636	0.058316	0.235948	-69.86	25.69	5.39	0.3775	0.0881	-0.3099	
-0.98088	0.069906	0.239364	-67.41	18.13	3.5	0.383	0.0955	-0.3051	
-0.995886	0.055876	0.236314	-72.38	17.43	3.85	0.3771	0.09739999	-0.3004	
-0.95831	0.046116	0.217892	-70.7	11.83	0.84	0.3896	0.1107	-0.2908	
-0.967338	0.033794	0.23302	-66.08	11.9	-0.77	0.3737	0.1113	-0.2876	
-0.972462	0.035258	0.23119	-64.33	12.11	-1.12	0.3805	0.123	-0.2936	
-0.997106	0.031354	0.216062	-63.91	12.74	-0.42	0.3876	0.1245	-0.2828	
-0.987224	0.041236	0.231556	-64.12	9.8	-0.42	0.3875	0.1275	-0.2842	
-0.989176	0.027938	0.218136	-66.08	12.04	0.14	0.3913	0.1426	-0.2762	
-0.991616	0.029036	0.211548	-64.75	11.48	0.49	0.3829	0.1341	-0.2639	
-0.963556	-0.000976	0.21411	-64.82	7.98	-0.07	0.3874	0.1307	-0.2764	
-0.95221	-0.0122	0.218258	-63.14	9.73	-0.21	0.3896	0.1474	-0.2652	
-0.973438	-0.010492	0.192882	-59.29	11.97	0	0.3877	0.1597	-0.2572	
-0.997106	0.000976	0.187514	-57.96	11.48	-0.14	0.3919	0.1643	-0.2493	
-1.000888	-0.002318	0.180682	-55.3	10.85	-0.28	0.396	0.1703	-0.243	
-1.005646	-0.00671	0.174826	-50.89	7.42	-1.33	0.3946	0.1673	-0.2462	
-0.995032	-0.029158	0.188856	-47.18	4.83	-1.26	0.3943	0.1765	-0.2398	
-0.993934	-0.042822	0.179462	-46.2	5.81	-0.91	0.4001	0.1734	-0.2321	
-0.996008	-0.057828	0.177388	-40.46	5.04	-1.05	0.3984	0.1811	-0.2288	
-1.00101	-0.06344	0.179706	-36.19	4.9	-1.47	0.3923	0.1905	-0.2224	
-0.983808	-0.064172	0.170556	-34.09	5.18	-1.82	0.3909	0.1877	-0.2147	
-0.993324	-0.058438	0.171654	-30.87	5.95	-2.31	0.3885	0.1728	-0.2119	
-0.99674	-0.067222	0.167506	-29.26	6.65	-2.66	0.4007	0.1978	-0.2192	
-1.00284	-0.061488	0.151158	-24.85	6.44	-3.92	0.3933	0.2012	-0.2144	
-0.995764	-0.070516	0.169214	-15.54	2.59	-5.53	0.3863	0.1954	-0.2161	
-0.998326	-0.07564	0.156648	-12.04	2.31	-5.81	0.3888	0.2043	-0.2174	
-0.991372	-0.077592	0.17019	-8.05	1.68	-6.09	0.4021	0.1964	-0.213	
-0.992348	-0.074542	0.171166	-5.95	3.99	-7	0.3848	0.1941	-0.2068	
-0.9943	-0.075396	0.162016	-3.43	5.18	-6.58	0.3962	0.1996	-0.2114	
-0.991006	-0.075518	0.171776	0.21	4.2	-6.72	0.3918	0.2014	-0.2067	
-1.003816	-0.074786	0.160064	3.5	3.92	-6.79	0.3858	0.2076	-0.2112	
-1.003084	-0.073444	0.159576	6.23	3.57	-6.72	0.3965	0.1922	-0.2053	
-0.999424	-0.06893	0.155306	7.98	3.36	-6.44	0.4001	0.2117	-0.2049	
-1.005524	-0.061854	0.150792	8.19	2.8	-5.67	0.389	0.1984	-0.2098	
-1.002474	-0.051728	0.154696	8.19	2.45	-5.04	0.3901	0.2089	-0.2127	
-1.009184	-0.054534	0.140422	5.81	3.5	-4.83	0.3908	0.1894	-0.2069	
-1.011868	-0.060634	0.14945	7.14	1.68	-4.13	0.3872	0.2078	-0.2003	
-1.004182	-0.064172	0.152622	6.44	1.05	-3.22	0.3819	0.1972	-0.2098	
-1.004304	-0.066002	0.150914	4.76	1.89	-2.31	0.3875	0.2	-0.2082	
-1.007354	-0.068808	0.152378	4.48	1.4	-1.26	0.3991	0.2009	-0.2191	
-1.00406	-0.066124	0.14945	3.43	0.91	-0.14	0.3916	0.2073	-0.2143	
-0.99735	-0.062708	0.154452	2.24	0.63	0.98	0.3874	0.2031	-0.2051	
-0.992836	-0.060512	0.155062	0.21	0.49	1.4	0.3882	0.2211	-0.2078	
-1.00223	-0.058316	0.155062	1.05	0.77	1.4	0.3932	0.2029	-0.2051	
-0.992592	-0.059658	0.159942	0.7	0.07	1.61	0.389	0.2	-0.2082	
-0.995154	-0.052582	0.159942	0.28	1.05	1.89	0.4003	0.2069	-0.219	
-1.00101	-0.053192	0.1647	0.42	1.26	2.24	0.3832	0.2003	-0.2036	
-0.993934	-0.05307	0.173728	0.7	0.91	2.31	0.3948	0.1983	-0.2067	
-0.989176	-0.048922	0.170068	0.14	1.82	2.31	0.3934	0.1982	-0.2114	
-0.992348	-0.04392	0.164212	-2.17	3.29	2.38	0.3934	0.1968	-0.2099	
-0.99796	-0.036722	0.163968	-1.33	3.5	2.52	0.3903	0.2031	-0.202	
-0.99308	-0.041358	0.159942	-1.82	3.01	2.38	0.3919	0.1984	-0.2083	
-1.002718	-0.039528	0.159942	-1.47	2.45	1.96	0.3935	0.1952	-0.2099	
-1.011746	-0.038064	0.15189	-0.35	1.26	1.54	0.3905	0.1971	-0.2006	
-1.009184	-0.044164	0.158112	1.82	-0.14	1.26	0.3923	0.1879	-0.2054	
-1.003938	-0.044042	0.161162	2.38	-0.56	1.05	0.3988	0.206	-0.1926	
-1.006012	-0.042456	0.16104	2.03	-0.28	1.05	0.3959	0.2074	-0.2019	
-1.005158	-0.047824	0.160308	3.01	-0.63	1.33	0.3935	0.1939	-0.2022	
-1.00223	-0.04575	0.157746	4.2	-1.61	1.4	0.4037	0.1923	-0.1899	
-0.997228	-0.043188	0.158722	4.76	-1.89	1.4	0.3935	0.1952	-0.2099	
-0.995154	-0.044286	0.157868	6.58	-2.38	1.4	0.3907	0.1923	-0.21	
-0.997716	-0.046238	0.157136	7.77	-2.94	1.33	0.3847	0.1972	-0.2067	
-0.999912	-0.04453	0.155428	9.03	-3.08	0.91	0.3877	0.1954	-0.2114	
-0.999302	-0.048434	0.15555	9.1	-3.15	0.63	0.3934	0.1982	-0.2145	
-1.001376	-0.058316	0.157624	9.24	-3.15	0.42	0.3937	0.1905	-0.2193	
-0.99735	-0.07905599	0.16897	12.46	-6.93	-0.84	0.3877	0.1953	-0.2161	
-0.992592	-0.087474	0.161894	18.06	-4.97	-1.61	0.3962	0.1995	-0.2176	
-0.99918	-0.092598	0.172508	26.18	-7.28	-2.66	0.3849	0.1925	-0.2146	
-0.98698	-0.09857599	0.160918	30.87	-8.82	-4.13	0.3962	0.201	-0.2191	
-0.994788	-0.101626	0.177144	38.36	-8.19	-4.69	0.3924	0.186	-0.2194	
-0.989908	-0.088694	0.174216	44.45	-9.59	-5.88	0.3897	0.1829	-0.2288	
-0.978318	-0.075396	0.188124	50.4	-12.74	-7.91	0.3838	0.1862	-0.2271	
-0.979294	-0.068442	0.20496	56.35	-14.84	-10.01	0.3881	0.1859	-0.2349	
-0.986858	-0.067832	0.192882	56.56	-15.4	-12.18	0.3751	0.1862	-0.241	
-0.985028	-0.06954	0.204472	59.15	-13.65	-12.95	0.3749	0.1936	-0.2502	
-1.000156	-0.066368	0.20679	63.35	-12.67	-12.25	0.3844	0.172	-0.2553	
-1.000766	-0.074786	0.19459	64.54	-10.78	-10.71	0.3823	0.1886	-0.2565	
-0.980636	-0.075518	0.198616	68.04	-9.73	-9.66	0.3834	0.1611	-0.2695	
-0.983564	-0.081008	0.191174	70.63	-9.24	-9.87	0.3686	0.1692	-0.2708	
-0.987834	-0.079788	0.194346	72.52	-7.35	-9.24	0.3709	0.1463	-0.2807	
-0.99369	-0.076372	0.189954	72.8	-4.76	-7.49	0.369	0.1601	-0.2757	
-1.003328	-0.066368	0.184342	74.48	-5.25	-5.74	0.3811	0.1443	-0.2869	
-0.99613	-0.05063	0.189466	77.63	-6.93	-4.41	0.377	0.1412	-0.2963	
-0.995764	-0.051728	0.211548	78.47	-5.88	-4.83	0.3671	0.1341	-0.2933	
-0.98454	-0.050508	0.20984	80.36	-3.15	-5.25	0.3655	0.137	-0.2994	
-0.985638	-0.034892	0.20862	84.28	2.8	-4.97	0.3734	0.1215	-0.3076	
-0.99247	-0.020252	0.21167	93.73	11.97	-1.12	0.3719	0.1214	-0.3138	
-0.981734	-0.00061	0.193858	94.22	9.31	-0.77	0.3843	0.0999	-0.3096	
-1.000644	0.033794	0.182024	96.53	7.91	-1.61	0.3774	0.0911	-0.3083	
-1.006988	0.050996	0.167628	96.11	10.64	-1.05	0.3658	0.0914	-0.316	
-1.028216	0.039528	0.151646	94.29	3.92	-1.68	0.3662	0.0809	-0.3131	
