Sensor string: E
Serial number: 1970-01-0000
Firmware version: 2,015
Hardware version: 2,2
Calibration quality: 5
ax	ay	az	gx	gy	gz	mx	my	mz

-0.941596	0.183488	-0.331718	0.28	0.07	0.28	0.4656	-0.0543	-0.156	Reference
-0.938912	0.182878	-0.33062	0.14	0.42	0.28	0.4643	-0.0606	-0.1591	
-0.938302	0.183854	-0.330376	0.28	1.12	0.07	0.464	-0.0605	-0.15	
-0.939156	0.18422	-0.333914	0.42	1.47	0	0.4624	-0.062	-0.1455	
-0.940376	0.18422	-0.336964	-0.21	1.12	-0.21	0.4727	-0.059	-0.1548	
-0.94123	0.183366	-0.338794	0	0.84	-0.14	0.4623	-0.0541	-0.1423	
-0.940376	0.185074	-0.339282	0.07	0.21	-0.07	0.4637	-0.0541	-0.1424	
-0.937326	0.184098	-0.338672	0.63	0.07	-0.07	0.4622	-0.0619	-0.1394	
-0.938058	0.182512	-0.340868	0.42	0.35	0	0.4622	-0.0587	-0.1394	
-0.940498	0.18239	-0.339892	0.42	0.21	0.07	0.4595	-0.051	-0.1437	
-0.940254	0.182756	-0.341478	1.12	0.07	0.28	0.4683	-0.0542	-0.1501	
-0.938424	0.184464	-0.340746	1.05	0.14	0.56	0.4624	-0.0572	-0.1439	
-0.941596	0.184464	-0.3355	0.07	-0.35	0.63	0.4713	-0.059	-0.1548	
-0.941108	0.18056	-0.338184	0	-0.63	0.84	0.4639	-0.0589	-0.1485	
-0.938546	0.173606	-0.33977	0.77	-1.54	1.47	0.4684	-0.0512	-0.1561	
-0.935374	0.176046	-0.33306	2.59	-1.96	1.89	0.4668	-0.0574	-0.1501	
-0.9394	0.184098	-0.328302	3.29	-1.47	2.45	0.4683	-0.0558	-0.1501	
-0.938546	0.183488	-0.332206	1.82	-1.4	2.52	0.4609	-0.0525	-0.1438	
-0.932324	0.188612	-0.330376	2.52	0.14	2.31	0.4726	-0.0464	-0.1516	
-0.938058	0.190564	-0.3355	2.52	-0.35	2.45	0.4698	-0.0574	-0.1547	
-0.93879	0.19032	-0.327204	1.54	-0.28	2.17	0.461	-0.062	-0.1454	
-0.937692	0.191052	-0.325252	1.54	0.56	2.1	0.461	-0.0542	-0.1468	
-0.9394	0.192394	-0.332938	0.84	1.19	1.61	0.4655	-0.0605	-0.1531	
-0.93818	0.196176	-0.332572	0.7	-0.07	1.33	0.4612	-0.0558	-0.1529	
-0.937326	0.198372	-0.32879	0.28	-0.35	0.91	0.4712	-0.0605	-0.1518	
-0.938546	0.197762	-0.32696	-0.56	-0.21	0.21	0.464	-0.0542	-0.1499	
-0.93696	0.196786	-0.328546	-1.05	0.56	-0.7	0.4668	-0.0605	-0.1486	
-0.933788	0.196054	-0.336598	-1.54	1.05	-1.47	0.467	-0.0653	-0.1547	
-0.934886	0.193858	-0.336964	-3.78	1.33	-2.03	0.4669	-0.0652	-0.1517	
-0.937326	0.190442	-0.33184	-4.13	1.89	-2.52	0.4683	-0.0574	-0.1516	
-0.941352	0.194102	-0.324886	-3.15	1.54	-3.01	0.4612	-0.0574	-0.1529	
-0.938912	0.194468	-0.330498	-3.85	1.54	-3.78	0.4697	-0.0558	-0.1517	
-0.938668	0.18971	-0.33245	-4.83	1.4	-4.34	0.4715	-0.0638	-0.1624	
-0.938424	0.185928	-0.330986	-5.18	0.56	-4.34	0.4714	-0.0575	-0.1593	
-0.941474	0.18361	-0.333304	-4.9	0.63	-4.27	0.4655	-0.0621	-0.1531	
-0.942084	0.183244	-0.333304	-4.69	0.7	-4.2	0.4725	-0.0573	-0.1472	
-0.944402	0.17751	-0.334036	-3.78	0.63	-4.2	0.4639	-0.0495	-0.1483	
-0.940132	0.172264	-0.33733	-2.94	0.49	-3.85	0.4636	-0.0446	-0.1392	
-0.94001	0.17385	-0.331962	-1.75	0.35	-3.29	0.4714	-0.0497	-0.1592	
-0.940864	0.171288	-0.334402	-1.96	0.56	-2.52	0.4668	-0.0495	-0.1484	
-0.94062	0.171776	-0.335622	-0.49	0.49	-1.54	0.4664	-0.0399	-0.1362	
-0.941352	0.174216	-0.337452	1.4	-0.14	-0.77	0.4737	-0.0463	-0.1426	
-0.940132	0.17751	-0.336964	2.03	0.07	-0.14	0.4741	-0.0512	-0.1563	
-0.937082	0.180682	-0.337696	1.82	0.07	0.07	0.4693	-0.0493	-0.1379	
-0.938302	0.180316	-0.334158	1.89	0.07	0.63	0.4737	-0.051	-0.1426	
-0.94001	0.182512	-0.333182	2.38	-0.07	1.33	0.4767	-0.0464	-0.1472	
-0.9394	0.182512	-0.335012	2.31	-0.35	1.96	0.4655	-0.0543	-0.1545	
-0.940986	0.182268	-0.336598	2.45	-0.63	2.38	0.4696	-0.0542	-0.1471	
-0.942572	0.184708	-0.334402	2.52	-1.05	2.52	0.4597	-0.0605	-0.1499	
-0.938668	0.183976	-0.335012	2.1	-1.26	2.52	0.4699	-0.0465	-0.1576	
-0.936716	0.182756	-0.337208	1.82	-0.91	2.24	0.4613	-0.0606	-0.156	
-0.940254	0.184952	-0.332816	1.4	-1.05	2.03	0.4712	-0.0512	-0.1531	
-0.940986	0.183732	-0.335988	0.84	-0.84	1.61	0.4609	-0.051	-0.1422	
-0.939156	0.183488	-0.335256	0.77	-0.84	1.26	0.4739	-0.0479	-0.1471	
-0.94123	0.185562	-0.330254	0.21	-0.7	0.84	0.464	-0.0558	-0.1515	
-0.94001	0.186294	-0.33428	0.35	-0.07	0.56	0.4682	-0.0542	-0.147	
-0.938546	0.185562	-0.334158	-0.21	-0.28	0.21	0.4699	-0.0512	-0.1576	
-0.941108	0.185684	-0.333426	-0.7	-0.49	0	0.4711	-0.0527	-0.1501	
-0.942938	0.18239	-0.331352	-1.12	-0.7	-0.42	0.4698	-0.0574	-0.1532	
-0.941108	0.182878	-0.331108	-1.19	-0.21	-0.63	0.461	-0.0589	-0.1469	
-0.938668	0.181536	-0.33489	-1.12	0.35	-0.77	0.4696	-0.0479	-0.1485	
-0.939278	0.184708	-0.33306	-1.26	0.28	-0.84	0.4667	-0.0589	-0.1455	
-0.939644	0.186538	-0.331108	-1.54	0.49	-0.91	0.4726	-0.0511	-0.1517	
-0.937448	0.184708	-0.33245	-2.17	0.91	-1.05	0.4726	-0.059	-0.1533	
-0.938668	0.18361	-0.331108	-1.75	1.05	-0.98	0.4682	-0.0464	-0.1499	
-0.94123	0.182146	-0.329522	-1.47	1.12	-0.77	0.4694	-0.0478	-0.1409	
-0.942328	0.18422	-0.326594	-1.12	1.05	-0.63	0.4666	-0.0573	-0.144	
-0.940742	0.18727	-0.325374	-1.33	0.91	-0.7	0.4655	-0.0465	-0.1544	
-0.938668	0.18361	-0.332206	-2.1	0.84	-0.91	0.4666	-0.0572	-0.141	
-0.94001	0.183976	-0.331108	-1.19	-0.49	-0.77	0.4756	-0.0559	-0.1564	
-0.94245	0.18361	-0.32696	-0.91	-1.75	-0.49	0.4641	-0.0606	-0.1546	
-0.943914	0.180682	-0.332572	-1.61	-2.24	-0.63	0.464	-0.0526	-0.1499	
-0.947086	0.184098	-0.324276	0.07	-3.92	-0.77	0.4595	-0.0416	-0.1451	
-0.951234	0.185318	-0.322812	-0.21	-4.06	-0.91	0.4684	-0.0481	-0.156	
-0.946232	0.18605	-0.325008	-2.1	-3.71	-1.47	0.4713	-0.0528	-0.1577	
-0.943792	0.18361	-0.329034	-3.22	-3.22	-1.82	0.4714	-0.0513	-0.1607	
-0.93635	0.18117	-0.337818	-3.01	-2.87	-1.89	0.4714	-0.0544	-0.1608	
-0.946232	0.185562	-0.320494	-2.59	-3.08	-1.61	0.4613	-0.0527	-0.1559	
-0.938546	0.182024	-0.327082	-2.87	-1.19	-1.61	0.4798	-0.0481	-0.1549	
-0.939034	0.17568	-0.329278	-3.01	0.35	-1.68	0.467	-0.0543	-0.1561	
-0.939888	0.174216	-0.322446	-2.38	0.42	-1.19	0.4713	-0.0559	-0.1578	
-0.938302	0.171898	-0.327936	-2.73	1.05	-1.12	0.4672	-0.0529	-0.1621	
-0.936472	0.173606	-0.325008	-2.24	0.77	-0.98	0.4672	-0.045	-0.1635	
-0.950136	0.177144	-0.323056	-2.17	-0.07	-1.33	0.4671	-0.0434	-0.1589	
-0.952576	0.181414	-0.312198	-1.19	-0.77	-1.54	0.4613	-0.0465	-0.1573	
-0.947208	0.17934	-0.319396	-1.19	-0.42	-1.68	0.461	-0.0479	-0.1467	
-0.944524	0.181658	-0.316834	-0.91	-1.33	-1.12	0.477	-0.0434	-0.1562	
-0.943426	0.183244	-0.319762	-1.12	-1.4	-0.56	0.4716	-0.0561	-0.1668	
-0.94062	0.184342	-0.326594	-0.84	-1.12	-0.07	0.4714	-0.0544	-0.1608	
-0.942084	0.183122	-0.324154	-1.47	-0.07	0.07	0.4656	-0.0449	-0.1559	
-0.940498	0.180194	-0.323178	-1.26	1.05	0.14	0.466	-0.0498	-0.1696	
-0.94062	0.177266	-0.319762	-0.7	1.96	0.28	0.4671	-0.0559	-0.1591	
-0.940132	0.177632	-0.3233	-0.28	2.73	0.35	0.4685	-0.045	-0.1575	
-0.941474	0.177266	-0.322934	0.14	2.73	0.49	0.4688	-0.0467	-0.1696	
-0.942816	0.179462	-0.320006	0.7	2.45	0.56	0.4685	-0.0575	-0.1577	
-0.94306	0.179828	-0.316468	1.12	2.38	0.56	0.4655	-0.0496	-0.1529	
-0.944036	0.177876	-0.313662	1.4	2.45	0.63	0.4671	-0.059	-0.1577	
-0.945622	0.17751	-0.315492	2.1	1.89	0.98	0.4639	-0.0463	-0.1468	
-0.949404	0.181414	-0.31903	2.94	0.7	1.26	0.4671	-0.0512	-0.1591	
-0.948184	0.183976	-0.317566	2.52	-0.42	1.26	0.4639	-0.0464	-0.1498	
-0.945744	0.183366	-0.316468	1.75	-0.35	0.98	0.4599	-0.0543	-0.1559	
-0.93635	0.179584	-0.328668	1.26	0.28	0.63	0.4683	-0.0527	-0.1531	
-0.936106	0.1769	-0.330742	1.68	0.42	0.49	0.4669	-0.0465	-0.1544	
-0.938912	0.178852	-0.332328	2.17	0.63	0.28	0.4657	-0.0559	-0.1591	
-0.94123	0.179706	-0.335622	2.1	1.47	0	0.4668	-0.0495	-0.1499	
-0.93879	0.180438	-0.34404	3.08	2.38	0.07	0.4684	-0.0512	-0.1561	
-0.94245	0.179218	-0.343064	3.99	1.89	0.35	0.4657	-0.0591	-0.1591	
-0.935618	0.174094	-0.351848	4.83	1.19	0.7	0.4612	-0.048	-0.1543	
-0.94916	0.182024	-0.334768	5.04	0.07	0.98	0.4565	-0.0478	-0.1405	
-0.954528	0.181292	-0.334036	2.52	-0.7	1.12	0.4541	-0.0558	-0.1527	
-0.948184	0.180316	-0.33977	2.38	-1.47	0.98	0.4683	-0.0464	-0.153	
-0.944768	0.184708	-0.33916	3.36	-3.08	1.26	0.4624	-0.0541	-0.1438	
-0.943182	0.187392	-0.339892	1.47	-4.69	1.54	0.4598	-0.0527	-0.1528	
-0.93879	0.181658	-0.34404	-0.35	-6.09	0.84	0.46	-0.0544	-0.1604	
-0.940254	0.180194	-0.341234	0.7	-6.65	0.63	0.4656	-0.0496	-0.1575	
-0.944036	0.181658	-0.338306	-0.14	-6.37	0.07	0.4658	-0.0623	-0.1637	
-0.946598	0.181902	-0.33123	-0.56	-5.67	-0.42	0.4671	-0.0544	-0.1606	
-0.952088	0.180682	-0.33001	-1.19	-5.04	-0.63	0.4643	-0.0481	-0.1604	
-0.95526	0.18361	-0.322324	-1.47	-7.21	-0.07	0.4672	-0.0513	-0.1636	
-0.95221	0.182634	-0.324886	-1.68	-9.45	0.35	0.4514	-0.0449	-0.16	
-0.949648	0.179828	-0.324764	-1.61	-11.97	1.05	0.4588	-0.0576	-0.1665	
-0.956236	0.182756	-0.31842	-1.75	-14.56	1.47	0.4728	-0.0481	-0.1607	
-0.962336	0.18727	-0.309392	-2.8	-15.47	1.61	0.4615	-0.0513	-0.1619	
-0.963922	0.18788	-0.297314	-3.85	-15.61	1.4	0.4559	-0.0482	-0.1662	
-0.965874	0.181048	-0.304634	-4.97	-18.27	1.33	0.4691	-0.0437	-0.1772	
-0.974414	0.185806	-0.294142	-4.62	-21	0.91	0.4548	-0.0515	-0.1768	
-0.972828	0.188124	-0.284382	-5.11	-23.52	0.91	0.4635	-0.0485	-0.1831	
-0.97112	0.188856	-0.275842	-6.65	-24.78	0.7	0.4636	-0.0454	-0.1846	
-0.978806	0.187514	-0.266936	-7.35	-26.04	0.56	0.4566	-0.0548	-0.189	
-0.991128	0.189344	-0.266814	-8.61	-26.11	0.56	0.458	-0.0595	-0.1892	
-0.985638	0.18422	-0.263764	-8.19	-29.68	0.84	0.4567	-0.0455	-0.195	
-0.99186	0.198372	-0.246562	-9.1	-34.65	1.12	0.4527	-0.0456	-0.2024	
-0.991494	0.191052	-0.230214	-13.23	-36.82	1.4	0.4501	-0.0599	-0.2116	
-0.986614	0.189222	-0.245952	-13.09	-38.43	0.35	0.4574	-0.0537	-0.2163	
-0.997106	0.189588	-0.219722	-10.78	-42.84	-0.35	0.4533	-0.0459	-0.2221	
-1.01016	0.198006	-0.17568	-12.53	-47.6	-1.12	0.4524	-0.0431	-0.2387	
-1.01321	0.207034	-0.147132	-16.31	-51.03	-1.05	0.4425	-0.0431	-0.2429	
-0.998692	0.200324	-0.14213	-23.87	-54.95	-0.07	0.4399	-0.0542	-0.249	
-0.95526	0.168848	-0.190686	-20.16	-56.35	-3.08	0.4413	-0.0417	-0.2519	
-0.973072	0.16958	-0.218502	-5.32	-52.08	-5.6	0.4417	-0.0434	-0.264	
-0.999058	0.191662	-0.160552	-0.14	-59.29	-5.53	0.4403	-0.045	-0.2655	
-1.013088	0.207888	-0.08357	-11.69	-59.71	-3.36	0.4351	-0.0406	-0.2804	
-0.997838	0.207034	-0.047214	-18.55	-54.74	-2.1	0.4237	-0.0437	-0.2831	
-1.007598	0.198006	-0.047336	-28.49	-51.66	-2.24	0.4285	-0.0377	-0.2983	
-1.039318	0.200446	0.008662	-33.6	-60.83	-2.73	0.4129	-0.0299	-0.3022	
-0.998692	0.18788	0.042212	-36.19	-63.42	-4.27	0.4174	-0.0207	-0.3128	
-0.967704	0.172996	0.023302	-34.51	-63.84	-4.76	0.4221	-0.0177	-0.3251	
-0.942328	0.16775	0.03416	-36.89	-66.29	-3.71	0.4067	-0.0273	-0.3353	
-0.985028	0.167018	0.11895	-28.21	-70.63	-1.82	0.3982	-0.0194	-0.3364	
-0.974536	0.15799	0.127368	-25.9	-68.53	-2.38	0.3972	-0.0228	-0.3501	
-0.945988	0.14762	0.153232	-14.35	-72.73	-1.61	0.389	-0.0214	-0.3619	
-0.994544	0.145546	0.169214	-11.34	-68.53	-3.64	0.3835	-0.0168	-0.3722	
-0.98637	0.147132	0.176656	-14.14	-68.39	-3.85	0.3735	-0.023	-0.3705	
-0.982588	0.169092	0.22265	-18.76	-69.3	-3.92	0.3699	-0.0077	-0.3928	
-0.937692	0.173606	0.210572	-21.49	-66.64	-4.62	0.3626	-0.0077	-0.3896	
-0.945256	0.180926	0.24339	-20.86	-66.5	-5.67	0.3584	-0.003	-0.3909	
-0.919392	0.17019	0.250588	-19.39	-65.38	-6.02	0.3421	-0.0018	-0.4191	
-0.9333	0.142008	0.281088	-14.42	-65.03	-7.07	0.3408	-0.0066	-0.4221	
-0.92476	0.129076	0.305976	-20.58	-61.81	-6.37	0.3353	0.0011	-0.4309	
-0.909022	0.126148	0.328058	-21.28	-61.32	-5.04	0.3298	0.0041	-0.4367	
-0.916464	0.130418	0.375516	-21.28	-60.55	-4.2	0.3114	-0.0005	-0.4423	
-0.90585	0.1281	0.40809	-21.14	-62.16	-2.73	0.3014	0.0072	-0.4434	
-0.879376	0.122122	0.424438	-20.86	-61.74	-1.19	0.3004	0.0054	-0.4555	
-0.871568	0.097966	0.451034	-15.82	-62.44	0.14	0.2916	0.0118	-0.4505	
-0.856806	0.095404	0.456768	-15.54	-59.78	0.91	0.282	0.021	-0.4637	
-0.856806	0.082228	0.484584	-14.35	-58.52	2.24	0.2764	0.021	-0.4665	
-0.829722	0.085156	0.52155	-10.15	-58.38	0.56	0.2739	0.0224	-0.477	
-0.818132	0.092598	0.538996	-10.64	-57.68	-0.49	0.2611	0.0146	-0.4783	
-0.814838	0.110288	0.566446	-11.13	-56.56	-0.42	0.2641	0.027	-0.4857	
-0.802394	0.103212	0.588528	-10.15	-56.35	0.49	0.244	0.0302	-0.4805	
-0.80764	0.09857599	0.59231	-8.26	-54.11	1.4	0.2442	0.0286	-0.4881	
-0.772748	0.087596	0.589992	-10.71	-57.12	0.35	0.2344	0.03	-0.4953	
-0.74847	0.08686399	0.584746	-8.26	-56.63	-0.49	0.2243	0.0333	-0.4904	
-0.76067	0.092476	0.63074	-3.36	-56.42	-2.1	0.2161	0.0268	-0.5023	
-0.752008	0.09699	0.630984	-3.15	-47.04	-3.15	0.2047	0.0269	-0.502	
-0.830576	0.307196	0.596336	54.11	-39.41	-5.53	0.2031	0.0285	-0.4989	
-0.722972	0.069662	0.658434	-30.17	-51.24	-0.21	0.1963	0.019	-0.5079	
-0.731512	0.081008	0.674294	-3.01	-41.93	0.28	0.1921	0.0236	-0.5122	
-0.706014	0.079666	0.692838	-4.97	-42	1.96	0.185	0.0267	-0.5135	
-0.703452	0.05795	0.65514	-9.59	-33.25	2.24	0.168	0.0283	-0.5174	
-0.716384	0.05246	0.716628	6.02	-38.92	4.06	0.1624	0.022	-0.5204	
-0.695888	0.08174	0.730902	7.91	-33.32	5.11	0.1552	0.0236	-0.5186	
-0.682712	0.100284	0.735538	5.88	-30.8	5.11	0.1596	0.0141	-0.5219	
-0.673562	0.101748	0.738222	3.64	-29.96	4.83	0.1526	0.0235	-0.5261	
-0.660752	0.10614	0.746274	0.98	-27.93	3.99	0.1453	0.0251	-0.5228	
-0.646478	0.10858	0.753594	0.77	-25.06	2.24	0.1394	0.0221	-0.5151	
-0.639646	0.104432	0.772016	2.73	-24.08	1.68	0.1369	0.0235	-0.5256	
-0.63928	0.09467199	0.777994	0.98	-20.65	1.47	0.1325	0.0221	-0.5209	
-0.633912	0.083936	0.779702	0.49	-18.69	1.61	0.1339	0.0127	-0.5196	
-0.633668	0.09552599	0.77775	2.45	-17.36	1.4	0.1328	0.0312	-0.5344	
-0.627446	0.107116	0.776164	2.59	-19.04	1.33	0.1313	0.0203	-0.5315	
-0.616954	0.11407	0.78019	3.99	-19.46	1.68	0.1185	0.0141	-0.5312	
-0.608414	0.119682	0.79178	3.85	-18.06	2.31	0.1221	0.016	-0.5101	
-0.608048	0.118706	0.793244	0.98	-15.96	3.01	0.1197	0.0158	-0.5251	
-0.606584	0.115778	0.792878	1.4	-14.14	3.08	0.1225	0.0205	-0.5221	
-0.606706	0.116144	0.792756	1.61	-13.02	2.94	0.1095	0.0206	-0.5157	
-0.599386	0.124684	0.80703	2.8	-11.9	2.66	0.117	0.0188	-0.528	
-0.596092	0.119194	0.810568	0.77	-9.59	2.59	0.1156	0.0251	-0.5294	
-0.595848	0.118462	0.807762	-0.56	-6.44	2.24	0.107	0.022	-0.5292	
-0.589504	0.113582	0.805932	-0.07	-4.06	1.75	0.1011	0.019	-0.5215	
-0.58865	0.119804	0.814716	1.19	-0.77	1.75	0.1125	0.019	-0.5218	
-0.584502	0.115656	0.819962	0.07	2.24	1.33	0.1056	0.022	-0.5291	
-0.580842	0.114802	0.82167	-0.28	5.53	0.35	0.1126	0.0158	-0.5249	
-0.581452	0.114802	0.814594	-1.96	12.04	-0.35	0.1142	0.0157	-0.5295	
-0.586942	0.110044	0.823256	-0.7	13.09	-0.35	0.1156	0.0094	-0.5296	
-0.582306	0.11041	0.840336	1.26	15.68	-0.28	0.1155	0.0236	-0.5279	
-0.582062	0.112606	0.835822	1.12	20.65	-0.84	0.1256	0.0141	-0.5284	
-0.579866	0.117852	0.835578	4.76	23.59	-1.26	0.1226	0.0189	-0.5252	
-0.582794	0.104188	0.843142	6.3	27.16	-1.19	0.1182	0.0268	-0.5204	
-0.589504	0.092842	0.836432	6.09	32.06	-0.28	0.1339	0.022	-0.521	
-0.591822	0.09699	0.818864	11.48	39.06	-0.21	0.1381	0.0158	-0.5197	
-0.5978	0.107726	0.821548	15.96	42.7	-0.21	0.1425	0.0142	-0.5229	
-0.604876	0.109922	0.803248	15.19	50.33	-0.35	0.1464	0.0143	-0.5109	
-0.625128	0.120658	0.784704	16.59	55.3	0	0.152	0.0191	-0.5065	
-0.63623	0.123098	0.751398	18.97	62.09	-0.35	0.1634	0.016	-0.5054	
-0.654652	0.128222	0.729072	22.54	66.36	-0.77	0.1692	0.0206	-0.5085	
-0.671732	0.131638	0.697352	24.15	71.4	-1.05	0.1831	0.002	-0.4956	
-0.697596	0.14762	0.674538	27.02	74.13	-0.77	0.2032	0.0035	-0.4977	
-0.708942	0.143106	0.634034	28.56	78.19	-1.82	0.199	0.005	-0.5021	
-0.714798	0.142496	0.568154	26.95	83.23	-2.73	0.2085	-0.0072	-0.4845	
-0.7503	0.144814	0.542778	35.56	85.61	-2.94	0.2202	-0.0152	-0.494	
-0.809714	0.154086	0.51606	32.55	87.36	-2.24	0.2485	-0.0245	-0.4845	
-0.827282	0.17629	0.476532	37.87	90.02	-2.1	0.2623	-0.029	-0.4699	
-0.835212	0.196176	0.450058	40.81	91.7	-1.89	0.2722	-0.0227	-0.4656	
-0.83326	0.168604	0.365756	34.65	95.83	-1.4	0.2819	-0.0351	-0.4555	
-0.874862	0.175314	0.335012	40.18	96.53	0.84	0.2873	-0.0365	-0.4436	
-0.895358	0.180804	0.309636	39.76	95.41	1.75	0.3029	-0.0396	-0.4411	
-0.917318	0.223626	0.289506	35	96.6	2.1	0.3141	-0.0427	-0.4324	
-0.949526	0.218624	0.241682	30.38	98.42	1.61	0.3278	-0.0487	-0.4148	
-0.935862	0.22082	0.219478	31.78	91.98	-0.98	0.3403	-0.047	-0.4031	
-0.956602	0.218502	0.179584	21.56	90.86	-0.77	0.3527	-0.0468	-0.3898	
-0.969656	0.242414	0.149938	20.86	83.93	0.07	0.3639	-0.0482	-0.3812	
-0.95709	0.234118	0.10919	21.56	83.16	-2.66	0.3623	-0.0607	-0.3752	
-0.971486	0.23363	0.107482	24.08	76.23	-3.99	0.382	-0.0496	-0.3651	
-0.991738	0.23607	0.091744	23.1	70.91	-4.55	0.3856	-0.0587	-0.3442	
-0.984662	0.224968	0.067832	18.83	71.33	-7.14	0.3887	-0.0697	-0.3505	
-0.985394	0.219844	0.039284	13.93	66.99	-7.35	0.4001	-0.0682	-0.3478	
-0.990274	0.210206	0.010736	12.18	64.96	-8.12	0.3911	-0.0648	-0.3339	
-0.982222	0.210694	-0.04026	20.72	61.74	-8.19	0.4036	-0.0662	-0.3222	
-1.012478	0.222894	-0.039162	17.08	55.79	-7.77	0.4031	-0.0785	-0.3072	
-1.002108	0.218624	-0.06588	12.88	56.63	-7.14	0.4199	-0.0658	-0.297	
-0.991616	0.209962	-0.092476	9.87	58.59	-7.35	0.4226	-0.0611	-0.2909	
-0.98698	0.209718	-0.108824	3.71	56.07	-5.67	0.4181	-0.0625	-0.2848	
-0.974292	0.198616	-0.124684	4.83	57.47	-6.23	0.4264	-0.0593	-0.2774	
-0.988078	0.19764	-0.13115	4.69	57.68	-8.26	0.4279	-0.064	-0.279	
-0.983686	0.186782	-0.146888	-3.22	60.48	-9.03	0.4317	-0.0637	-0.261	
-0.997228	0.203008	-0.143106	-3.64	57.54	-9.17	0.4399	-0.0557	-0.249	
-0.984784	0.196664	-0.145424	-10.15	56.21	-10.85	0.4395	-0.0602	-0.2355	
-1.003938	0.222894	-0.180926	-14.28	59.36	-10.22	0.4492	-0.0492	-0.2281	
-0.952088	0.18727	-0.19825	-13.23	51.8	-6.3	0.4519	-0.0491	-0.2236	
-0.993446	0.186416	-0.180438	-15.12	50.89	-6.09	0.4487	-0.0473	-0.2129	
-0.995642	0.186904	-0.18117	-14.84	49.63	-4.69	0.4572	-0.0473	-0.2086	
-0.999912	0.185928	-0.181292	-16.94	45.99	-2.87	0.4556	-0.0472	-0.2025	
-0.967948	0.17629	-0.235704	-12.74	46.97	-2.73	0.4626	-0.0503	-0.1982	
-0.967094	0.186782	-0.279624	-0.56	47.74	-1.54	0.4578	-0.0484	-0.1814	
-0.97478	0.19032	-0.26657	4.34	41.79	0.07	0.4636	-0.0469	-0.1846	
-0.981368	0.182878	-0.245464	6.51	38.36	0.84	0.4659	-0.0435	-0.168	
-0.983198	0.183122	-0.277672	1.75	39.76	1.12	0.4684	-0.0434	-0.156	
-0.9638	0.182878	-0.320006	3.22	36.4	3.5	0.4655	-0.0449	-0.1544	
-0.943914	0.18971	-0.360754	11.62	34.16	4.97	0.4654	-0.0386	-0.1512	
-0.931836	0.192882	-0.37881	17.36	29.33	7	0.4666	-0.0494	-0.1439	
-0.931958	0.1891	-0.374906	17.99	27.58	8.33	0.4667	-0.0463	-0.1469	
-0.944646	0.188734	-0.355996	17.78	27.51	8.96	0.4707	-0.0478	-0.1364	
-0.947086	0.201178	-0.363804	15.96	31.08	9.03	0.4666	-0.0478	-0.1424	
-0.917684	0.18239	-0.390888	8.47	34.37	9.24	0.4661	-0.0554	-0.1273	
-0.908412	0.184586	-0.421754	4.48	35.98	10.43	0.4704	-0.0523	-0.1274	
-0.877058	0.19154	-0.41846	7.84	35.35	11.13	0.4674	-0.0553	-0.1213	
-0.875228	0.21533	-0.406626	12.04	37.73	10.92	0.4747	-0.057	-0.1261	
-0.886086	0.221308	-0.3965	8.96	38.57	10.5	0.4728	-0.0646	-0.111	
-0.896456	0.221796	-0.415776	4.69	39.48	10.22	0.4742	-0.0567	-0.1094	
-0.88999	0.221064	-0.435418	5.32	38.01	9.66	0.4711	-0.0676	-0.1019	
-0.889014	0.223992	-0.453962	2.94	35.42	9.94	0.4694	-0.0674	-0.0928	
-0.89121	0.230214	-0.445666	4.48	31.78	9.45	0.4621	-0.0736	-0.0866	
-0.88572	0.230214	-0.457622	7.07	32.48	8.75	0.4646	-0.0625	-0.0774	
-0.882304	0.238998	-0.476654	9.52	30.87	7.77	0.4675	-0.0687	-0.07759999	
-0.867542	0.24156	-0.466284	8.75	28.49	5.32	0.4617	-0.0702	-0.0744	
-0.866566	0.243146	-0.479216	6.37	28.35	4.41	0.4672	-0.07009999	-0.0655	
-0.851926	0.23851	-0.510082	-1.54	24.57	1.47	0.4669	-0.0575	-0.0578	
-0.826306	0.22692	-0.526674	-1.26	21.42	0.56	0.4624	-0.08549999	-0.049	
-0.83326	0.23241	-0.542168	0.07	21.77	-0.56	0.4698	-0.07319999	-0.0596	
-0.837286	0.243634	-0.551318	2.45	18.62	-0.49	0.4684	-0.0778	-0.0581	
-0.838018	0.24522	-0.57584	-0.7	21.56	-0.7	0.471	-0.0714	-0.0506	
-0.826428	0.228506	-0.56852	-0.98	19.32	-1.47	0.4654	-0.0887	-0.0522	
-0.807152	0.226432	-0.56913	-2.73	21.14	-1.61	0.4619	-0.0696	-0.0351	
-0.815692	0.237778	-0.55083	-3.78	22.47	-2.66	0.4648	-0.0806	-0.0354	
-0.832162	0.247538	-0.537044	-7.07	18.34	-2.94	0.4689	-0.0727	-0.0293	
-0.813984	0.227286	-0.554246	-10.08	13.3	-1.82	0.4619	-0.079	-0.0322	
-0.798246	0.210328	-0.565104	-4.2	10.36	0.14	0.4606	-0.0821	-0.0353	
-0.79788	0.213012	-0.573644	2.31	8.89	2.38	0.4634	-0.0774	-0.0353	
-0.807884	0.220332	-0.57767	3.22	8.47	3.29	0.4662	-0.0665	-0.0352	
-0.808738	0.227042	-0.606096	3.01	9.38	3.22	0.4558	-0.0772	-0.0199	
-0.80215	0.2318	-0.616954	2.24	7.84	2.59	0.4614	-0.0787	-0.0156	
-0.800808	0.228628	-0.599996	1.75	6.79	1.68	0.4628	-0.0787	-0.0156	
-0.791292	0.236924	-0.60451	-0.21	7.77	0.42	0.4632	-0.07889999	-0.0277	
-0.784216	0.227042	-0.592798	-0.42	7.28	-0.56	0.4701	-0.07099999	-0.0203	
-0.78141	0.219356	-0.599996	0.35	6.86	-0.28	0.4643	-0.0819	-0.0172	
-0.786412	0.22509	-0.594994	0.77	5.32	0.14	0.4586	-0.0678	-0.0183	
-0.784582	0.233508	-0.606706	-0.28	5.46	0.42	0.4659	-0.0867	-0.0234	
-0.79361	0.237534	-0.603168	0.84	4.48	1.26	0.4657	-0.0897	-0.0174	
-0.7991	0.239608	-0.611708	-0.49	3.36	1.96	0.4675	-0.0821	-0.0294	
-0.793488	0.240584	-0.603046	-2.03	1.33	1.75	0.47	-0.0647	-0.0202	
-0.799588	0.244366	-0.582062	-1.89	0.84	1.12	0.4673	-0.0866	-0.0219	
-0.803126	0.243268	-0.578524	-3.36	-1.12	1.12	0.4587	-0.0788	-0.0215	
-0.8052	0.246196	-0.599142	-4.97	-4.27	0.84	0.4629	-0.0709	-0.02	
-0.787632	0.238632	-0.606584	-6.86	-9.1	0.49	0.4604	-0.0821	-0.0307	
-0.796416	0.238754	-0.591334	-3.85	-10.5	0.35	0.4628	-0.0802	-0.0141	
-0.808982	0.24339	-0.577182	0	-8.82	0.07	0.4556	-0.074	-0.0138	
-0.802882	0.250832	-0.581452	-1.54	-7.28	0.14	0.4647	-0.0805	-0.0293	
-0.794586	0.248148	-0.593896	-3.64	-10.29	0.14	0.4633	-0.0884	-0.0324	
-0.794586	0.251198	-0.58621	-4.9	-14.56	1.05	0.46	-0.0819	-0.0186	
-0.803004	0.251442	-0.567544	-3.92	-16.31	0.98	0.4605	-0.0821	-0.0322	
-0.814594	0.252052	-0.557418	-3.08	-16.59	-0.35	0.4693	-0.0823	-0.0416	
-0.818864	0.254248	-0.554978	-3.78	-18.2	-1.54	0.4636	-0.0807	-0.0429	
-0.827282	0.255224	-0.545828	-5.32	-21.14	-1.75	0.4636	-0.0822	-0.0414	
-0.830576	0.252906	-0.539484	-7.63	-24.22	-1.19	0.462	-0.0837	-0.0353	
-0.83875	0.257176	-0.533506	-8.12	-27.3	-1.19	0.4712	-0.0825	-0.0583	
-0.850462	0.251564	-0.517768	-10.22	-30.24	-1.96	0.4653	-0.0824	-0.049	
-0.85949	0.25071	-0.513742	-11.9	-33.32	-2.03	0.4698	-0.081	-0.0582	
-0.861442	0.24888	-0.501908	-9.1	-33.32	-3.57	0.4658	-0.0858	-0.0673	
-0.88572	0.25315	-0.477996	-11.34	-39.34	-4.2	0.4731	-0.0765	-0.0734	
-0.909388	0.247416	-0.455548	-15.54	-47.04	-5.25	0.4789	-0.0797	-0.07669999	
-0.9211	0.25315	-0.430416	-18.83	-55.02	-6.58	0.4764	-0.0736	-0.0871	
-0.900848	0.262056	-0.428342	-20.79	-60.13	-7.42	0.4638	-0.069	-0.0972	
-0.880108	0.284992	-0.436028	-20.86	-58.59	-9.03	0.4727	-0.0708	-0.1066	
-0.871568	0.276086	-0.452742	-23.24	-55.37	-10.71	0.4663	-0.0711	-0.1306	
-0.884622	0.255834	-0.43249	-18.48	-50.96	-10.08	0.4666	-0.0713	-0.1397	
-0.889868	0.242902	-0.392474	-11.2	-48.09	-8.19	0.4665	-0.065	-0.1396	
-0.913536	0.234484	-0.355386	-11.2	-44.94	-6.02	0.4711	-0.0652	-0.1503	
-0.912438	0.233996	-0.338184	-10.22	-42.49	-3.57	0.4657	-0.0669	-0.1593	
-0.902922	0.242902	-0.325008	-8.54	-40.6	-1.68	0.4683	-0.0605	-0.1502	
-0.906948	0.241316	-0.32635	-7.42	-38.57	-1.61	0.4687	-0.0529	-0.1637	
-0.923784	0.242536	-0.311222	-2.94	-36.96	-1.96	0.4589	-0.067	-0.1696	
-0.951844	0.244366	-0.2745	-2.03	-38.22	-2.38	0.4678	-0.0641	-0.1805	
-0.950868	0.240828	-0.24461	-5.11	-36.82	-4.62	0.4622	-0.0626	-0.1863	
-0.96014	0.248026	-0.258884	-4.83	-28.77	-5.67	0.4609	-0.0643	-0.1908	
-0.970754	0.251808	-0.211182	1.33	-31.15	-8.96	0.4495	-0.0658	-0.189	
-0.956236	0.241438	-0.155062	-0.7	-32.83	-12.04	0.467	-0.0535	-0.203	
-0.991616	0.244366	-0.162504	-7.63	-26.81	-14.56	0.4586	-0.0583	-0.2088	
-0.98393	0.224846	-0.205448	-12.04	-26.53	-15.82	0.4628	-0.0442	-0.2072	
-0.91988	0.19337	-0.237534	-6.44	-29.47	-14.7	0.4557	-0.0504	-0.2086	
-0.957212	0.216916	-0.212402	1.82	-25.62	-11.76	0.4645	-0.0474	-0.2164	
-0.970022	0.21411	-0.139568	0.35	-27.3	-11.06	0.4632	-0.0428	-0.2193	
-0.975512	0.214842	-0.119194	-1.33	-25.2	-9.38	0.4646	-0.0444	-0.2194	
-0.995886	0.220942	-0.142374	-5.53	-20.02	-6.44	0.4515	-0.0411	-0.2114	
-0.987468	0.210206	-0.167872	-6.02	-21.56	-3.36	0.4536	-0.0445	-0.2312	
-0.980392	0.191296	-0.162504	0.98	-27.58	-0.56	0.4548	-0.046	-0.2252	
-1.003084	0.196054	-0.124562	3.71	-31.01	0.98	0.4511	-0.0479	-0.2447	
-1.014186	0.193248	-0.100284	-0.63	-29.26	3.08	0.4524	-0.0462	-0.2402	
-0.995886	0.188978	-0.162382	-3.85	-28.28	3.64	0.4455	-0.0354	-0.2474	
-0.939156	0.188002	-0.201056	-1.68	-41.72	1.05	0.4468	-0.051	-0.2447	
-0.98271	0.19764	-0.15372	-2.03	-42.42	-0.14	0.4401	-0.0355	-0.2578	
-0.99979	0.224846	-0.145058	-2.31	-41.58	-1.33	0.4489	-0.0513	-0.2644	
-1.011258	0.230214	-0.131272	-12.11	-42.49	-1.89	0.4461	-0.0419	-0.2672	
-1.019798	0.227896	-0.086376	-13.37	-48.02	-2.87	0.4334	-0.031	-0.2727	
-0.99918	0.230824	-0.08662	-18.41	-49	-5.04	0.4329	-0.0456	-0.3016	
-0.96441	0.213134	-0.113216	-21.63	-48.86	-7.14	0.4286	-0.0456	-0.3015	
-1.00162	0.23241	-0.0732	-12.04	-48.86	-7.14	0.4229	-0.0424	-0.3028	
-1.014308	0.218502	-0.012078	-14.7	-50.82	-8.82	0.4245	-0.0347	-0.3087	
-1.00589	0.206058	0.010004	-19.95	-46.62	-8.33	0.4115	-0.0346	-0.3053	
-0.980514	0.199714	0.012444	-17.36	-46.69	-7.63	0.4175	-0.0238	-0.3144	
-0.970754	0.215696	0.024644	-8.4	-47.11	-5.46	0.4117	-0.0269	-0.3112	
-0.98759	0.199226	0.037698	-14.98	-48.16	-2.52	0.3996	-0.0257	-0.335	
-0.986248	0.182512	0.057462	-13.09	-50.89	-2.94	0.4053	-0.0132	-0.3381	
-0.939522	0.186782	0.06588	-8.61	-54.32	-3.85	0.3969	-0.0258	-0.341	
-0.99674	0.20557	0.130784	-3.22	-53.97	-3.78	0.3971	-0.0243	-0.3486	
-0.973682	0.18605	0.197884	-8.68	-56.14	-5.6	0.3848	-0.0152	-0.3677	
-0.983076	0.179096	0.17202	-17.08	-51.03	-7.91	0.375	-0.0105	-0.3718	
-0.946476	0.155062	0.07515199	-23.73	-46.76	-8.82	0.3795	-0.0138	-0.3796	
-1.002108	0.129564	0.154086	-13.09	-55.65	-7.84	0.3755	-0.0015	-0.3914	
-0.981978	0.16043	0.228262	0.42	-65.52	-5.81	0.3612	-0.0123	-0.3881	
-0.96746	0.161162	0.273524	-3.15	-65.45	-4.76	0.3543	-0.0093	-0.3984	
-0.948672	0.155062	0.288408	-6.02	-63.77	-2.31	0.3488	-0.0094	-0.4043	
-0.943792	0.170556	0.28121	-14.28	-63.98	-1.33	0.3433	-0.0032	-0.4101	
-0.92354	0.183366	0.26413	-14.28	-63	-4.97	0.3393	0.0012	-0.4205	
-0.910486	0.140788	0.320738	-10.5	-68.39	-5.74	0.3266	-0.0066	-0.4262	
-0.890966	0.139934	0.357704	-18.48	-67.13	-5.81	0.3209	0.0043	-0.4274	
-0.912194	0.129076	0.392474	-26.04	-55.86	-6.44	0.3153	-0.0019	-0.4288	
-0.903654	0.126514	0.432856	-24.01	-56.07	-5.04	0.3071	0.0009999999	-0.4406	
-0.878522	0.125416	0.44042	-18.55	-51.45	-3.71	0.3089	-0.0023	-0.4528	
-0.878644	0.12078	0.445178	-16.03	-50.96	-1.96	0.2932	0.0211	-0.4565	
-0.871324	0.113826	0.44896	-13.72	-52.57	-1.96	0.289	0.0195	-0.4579	
-0.865834	0.120292	0.471042	-8.75	-54.67	-1.26	0.2863	0.0226	-0.4638	
-0.847534	0.099064	0.47519	-9.73	-53.83	-0.63	0.2806	0.0195	-0.4622	
-0.839116	0.1098	0.509716	-9.38	-56.63	-1.05	0.2594	0.021	-0.4705	
-0.823012	0.118218	0.525088	-8.19	-59.92	-0.42	0.2497	0.0099	-0.4795	
-0.809714	0.100406	0.53863	-10.22	-61.53	0.21	0.2483	0.0208	-0.4808	
-0.801296	0.101016	0.552416	-12.81	-58.94	0.35	0.2399	0.0239	-0.488	
-0.784948	0.091988	0.558028	-14.7	-59.22	0.28	0.2244	0.0332	-0.4934	
-0.763232	0.089792	0.57035	-10.78	-60.06	-0.35	0.2157	0.0271	-0.4887	
-0.770796	0.104798	0.590114	-7.35	-55.93	0	0.2175	0.0347	-0.5008	
-0.76555	0.10675	0.632692	-5.53	-59.57	-0.35	0.2088	0.0347	-0.499	
-0.743346	0.11102	0.659288	-6.58	-56.84	-0.7	0.1846	0.0332	-0.4997	
-0.733586	0.093818	0.662704	-9.17	-50.82	-1.54	0.185	0.0393	-0.5117	
-0.717116	0.077958	0.672464	-10.01	-48.58	-2.38	0.1809	0.0455	-0.5191	
-0.70943	0.094306	0.690886	-6.58	-46.76	-2.38	0.1793	0.0299	-0.5132	
-0.701622	0.087962	0.70211	-6.93	-45.36	-3.01	0.1666	0.0314	-0.5188	
-0.691862	0.08418	0.7198	-6.3	-43.68	-3.29	0.1607	0.0409	-0.5109	
-0.681614	0.073322	0.725534	-6.93	-42.14	-3.01	0.1522	0.0346	-0.5153	
-0.66307	0.073444	0.739564	-5.74	-42.14	-2.1	0.1452	0.0377	-0.5181	
-0.649406	0.076616	0.75701	-2.8	-42.14	-2.24	0.1496	0.047	-0.5226	
-0.6283	0.074054	0.779214	-2.66	-42.63	-2.52	0.1383	0.0454	-0.5283	
-0.603656	0.068564	0.781532	-3.08	-40.81	-3.15	0.1254	0.0392	-0.525	
-0.593042	0.06039	0.795074	0.21	-41.65	-3.71	0.1154	0.0315	-0.5232	
-0.59109	0.061488	0.802394	0.28	-39.48	-3.78	0.1225	0.0487	-0.5232	
-0.58072	0.055266	0.811178	0.56	-38.78	-3.29	0.108	0.0441	-0.5152	
-0.573888	0.051728	0.820938	0.07	-36.33	-2.45	0.1028	0.0329	-0.5334	
-0.56364	0.053558	0.816058	-1.26	-33.39	-2.17	0.0966	0.0472	-0.5179	
-0.560102	0.05185	0.81862	-0.28	-32.06	-2.24	0.0854	0.0378	-0.5237	
-0.553758	0.053802	0.846192	1.12	-29.96	-1.89	0.0813	0.0486	-0.531	
-0.54656	0.055632	0.84668	-0.35	-26.39	-1.33	0.0755	0.0299	-0.5265	
-0.544364	0.0549	0.848998	-0.77	-24.71	-0.98	0.0782	0.0488	-0.5218	
-0.542046	0.056852	0.844728	-0.7	-22.12	-0.49	0.0673	0.0423	-0.5382	
-0.53375	0.060634	0.84424	1.19	-21.28	-0.35	0.0643	0.0377	-0.5336	
-0.529358	0.063196	0.855952	3.15	-18.9	-0.14	0.0685	0.0424	-0.5322	
-0.52277	0.068564	0.85339	3.43	-16.38	0.35	0.0658	0.0361	-0.5352	
-0.520574	0.073566	0.858636	3.15	-15.19	0.91	0.0599	0.0377	-0.5304	
-0.518744	0.07015	0.855342	1.19	-13.02	0.84	0.0627	0.0425	-0.5274	
-0.51545	0.067588	0.855586	2.31	-11.9	0.84	0.0612	0.0347	-0.5275	
-0.509106	0.0793	0.865712	4.13	-10.29	0.77	0.054	0.0441	-0.5256	
-0.499956	0.08235	0.879254	4.48	-8.47	0.77	0.0453	0.0474	-0.5192	
-0.488854	0.080154	0.876326	2.38	-4.9	0	0.0543	0.0393	-0.5333	
-0.477508	0.081374	0.881084	2.73	-1.96	-0.21	0.0543	0.0315	-0.5319	
-0.477142	0.076616	0.89609	3.08	1.68	-0.35	0.0599	0.0487	-0.5303	
-0.477142	0.076982	0.902068	1.82	6.16	-0.56	0.047	0.0394	-0.5285	
-0.472262	0.08601	0.90829	2.31	7.77	-0.84	0.0556	0.0299	-0.5304	
-0.467382	0.08723	0.91195	1.75	10.71	-1.89	0.0482	0.0317	-0.5211	
-0.471774	0.077104	0.90646	1.89	13.58	-2.66	0.0497	0.0332	-0.5226	
-0.470554	0.085888	0.901458	2.52	16.24	-3.15	0.0525	0.041	-0.5211	
-0.4697	0.103822	0.880596	2.03	21	-3.5	0.0627	0.0393	-0.529	
-0.486414	0.086132	0.86315	0.35	25.48	-3.36	0.0614	0.033	-0.5321	
-0.507642	0.074176	0.870836	-0.28	28.91	-2.8	0.0613	0.0425	-0.5289	
-0.524112	0.07381	0.873398	0.14	32.76	-1.54	0.07009999	0.0329	-0.5384	
-0.5368	0.069174	0.868396	2.52	34.86	0.21	0.074	0.0409	-0.5263	
-0.543632	0.06954	0.846802	4.41	36.47	1.82	0.0825	0.0456	-0.5235	
-0.555466	0.06734399	0.845216	9.1	38.92	2.59	0.087	0.0408	-0.5298	
-0.562786	0.07137	0.836676	9.45	43.05	2.24	0.0986	0.0344	-0.5348	
-0.576084	0.06588	0.830942	9.45	47.32	1.75	0.1068	0.0346	-0.5244	
-0.587552	0.059048	0.8113	9.24	52.5	0.77	0.1124	0.03	-0.5186	
-0.614758	0.055266	0.80398	13.09	56.42	-0.28	0.118	0.0347	-0.5157	
-0.62464	0.05307	0.785924	14.49	60.55	-1.19	0.1267	0.0299	-0.5191	
-0.637816	0.055998	0.75945	16.38	64.4	-2.1	0.1379	0.0206	-0.5105	
-0.65209	0.059048	0.739198	18.97	66.29	-2.45	0.1651	0.0268	-0.5158	
-0.658068	0.061976	0.71004	19.74	68.39	-3.08	0.1707	0.0206	-0.5101	
-0.671122	0.07198	0.667584	19.95	73.85	-3.29	0.1807	0.019	-0.5104	
-0.693448	0.08052	0.650138	25.41	72.94	-1.96	0.192	0.0143	-0.5063	
-0.721386	0.092232	0.635742	28.91	74.83	-1.12	0.1931	0.0129	-0.4973	
-0.741028	0.101382	0.597434	27.86	76.65	0.14	0.2219	0.0018	-0.5029	
-0.76311	0.123464	0.56669	34.58	77	1.05	0.2177	-0.006	-0.5044	
-0.797148	0.13176	0.542778	39.2	77.49	1.82	0.2305	-0.006	-0.5033	
-0.803492	0.147498	0.522282	45.85	76.65	1.61	0.2455	-0.012	-0.4812	
-0.816302	0.169458	0.501176	48.02	77.49	1.12	0.2514	-0.0073	-0.4858	
-0.819352	0.167872	0.462746	45.92	83.65	0	0.251	-0.0291	-0.4726	
-0.833748	0.169824	0.421998	39.69	88.41	-1.33	0.2706	-0.0304	-0.4581	
-0.860222	0.160064	0.385276	36.89	92.75	-2.87	0.286	-0.0241	-0.4509	
-0.874618	0.17324	0.37088	40.53	90.65	-3.08	0.2974	-0.0351	-0.4499	
-0.892796	0.18117	0.339038	40.46	93.87	-3.57	0.3111	-0.0364	-0.4307	
-0.9211	0.183	0.290848	37.94	93.8	-5.04	0.3254	-0.0395	-0.4312	
-0.923784	0.18422	0.247904	32.06	94.57	-6.09	0.3278	-0.044	-0.4132	
-0.92293	0.183366	0.183732	26.39	95.97	-7.28	0.3445	-0.0423	-0.4016	
-0.94184	0.183488	0.15128	23.1	95.13	-6.58	0.353	-0.0469	-0.3974	
-0.964288	0.203496	0.147254	23.38	85.82	-4.62	0.3598	-0.0468	-0.3886	
-0.975634	0.203008	0.113582	20.51	84.56	-3.43	0.3739	-0.0592	-0.3816	
-0.988566	0.209474	0.0793	17.92	81.76	-2.52	0.3748	-0.0496	-0.3649	
-1.000522	0.196908	0.038064	18.34	77.84	-1.89	0.3849	-0.0559	-0.3653	
-1.032242	0.219234	0.04026	13.23	71.75	-1.47	0.3855	-0.0555	-0.3396	
-1.00589	0.210572	-0.021106	16.38	73.08	-1.54	0.4035	-0.049	-0.3219	
-1.024434	0.211914	-0.004392	14.07	64.4	-1.4	0.412	-0.0646	-0.3179	
-1.011258	0.203008	-0.020618	15.75	60.69	-2.8	0.4158	-0.0612	-0.3028	
-1.013332	0.20313	-0.018666	15.61	56.56	-4.27	0.4142	-0.0627	-0.2952	
-1.02114	0.188002	-0.034526	11.97	55.51	-7.07	0.4241	-0.0611	-0.294	
-0.99369	0.177144	-0.062342	12.6	53.34	-6.37	0.4253	-0.0579	-0.2879	
-0.999302	0.176412	-0.081252	12.11	51.03	-5.81	0.4294	-0.0625	-0.2806	
-0.999302	0.17446	-0.096502	7.77	49	-4.69	0.4263	-0.0623	-0.2714	
-0.998936	0.178852	-0.11468	1.05	47.11	-3.15	0.4346	-0.0654	-0.2642	
-1.0004	0.159454	-0.149084	10.99	43.05	-1.61	0.4415	-0.0621	-0.2568	
-1.00406	0.169092	-0.162748	11.41	40.6	0.21	0.4386	-0.0715	-0.2538	
-1.001498	0.199104	-0.181048	8.96	36.68	1.89	0.4369	-0.065	-0.2446	
-0.990396	0.19215	-0.177876	7.56	34.93	2.38	0.4525	-0.0619	-0.2405	
-0.97173	0.191418	-0.211914	4.27	34.09	1.54	0.4494	-0.0524	-0.2342	
-0.978318	0.180316	-0.224968	3.36	31.71	1.61	0.4494	-0.0571	-0.2358	
-0.999912	0.192516	-0.200446	0.84	30.24	0.84	0.4479	-0.068	-0.2298	
-1.002962	0.199958	-0.205326	-4.27	28.49	1.19	0.4503	-0.0647	-0.2177	
-0.978806	0.20618	-0.206058	-3.57	29.75	0.35	0.4448	-0.0663	-0.2236	
-0.956968	0.190442	-0.21716	-3.5	30.24	0.42	0.4504	-0.06	-0.2192	
-0.955992	0.202642	-0.237656	-1.47	31.22	0.56	0.456	-0.0599	-0.2148	
-0.961604	0.203496	-0.257298	-9.03	32.2	1.89	0.4526	-0.0565	-0.1995	
-0.966484	0.218868	-0.246562	-10.43	28.98	3.15	0.4596	-0.0612	-0.1938	
-0.95404	0.209596	-0.257542	-11.06	30.38	3.92	0.4623	-0.0595	-0.1893	
-0.95343	0.20923	-0.286212	-7.07	29.33	3.5	0.4611	-0.069	-0.1939	
-0.964532	0.19093	-0.276818	-5.95	28.21	3.29	0.4562	-0.0562	-0.1769	
-0.972706	0.190442	-0.269498	2.94	24.5	2.73	0.4622	-0.061	-0.1848	
-0.986004	0.1952	-0.266082	9.52	23.52	0.56	0.4449	-0.0671	-0.1783	
-0.94672	0.18971	-0.311954	15.47	21.21	-0.98	0.4649	-0.0719	-0.179	
-0.93391	0.190198	-0.313296	11.06	19.18	-2.24	0.4589	-0.0749	-0.1682	
-0.934764	0.193614	-0.299754	10.22	17.22	-3.29	0.4702	-0.0608	-0.1669	
-0.944402	0.204594	-0.2989	7.84	19.04	-2.87	0.4644	-0.0623	-0.1652	
-0.936716	0.210084	-0.328424	4.55	19.81	-2.03	0.4585	-0.0637	-0.156	
-0.937814	0.212646	-0.315858	-2.45	19.46	-1.82	0.4613	-0.0668	-0.1561	
-0.969412	0.21716	-0.31476	-3.08	21.42	-1.61	0.4582	-0.0729	-0.1455	
-0.95038	0.206302	-0.316956	-2.1	25.55	-2.31	0.463	-0.0623	-0.1652	
-0.939522	0.20496	-0.3294	-14.98	26.11	-2.59	0.4597	-0.0636	-0.1484	
-0.93757	0.207888	-0.34648	-10.99	27.09	-2.94	0.4607	-0.0603	-0.1363	
-0.931958	0.21716	-0.342454	-6.09	26.74	-3.5	0.4635	-0.0587	-0.1349	
-0.925248	0.213134	-0.3477	-6.37	26.81	-3.92	0.4667	-0.0557	-0.1455	
-0.925004	0.209962	-0.350384	-8.19	26.39	-3.64	0.4648	-0.0617	-0.1304	
-0.910486	0.19703	-0.367464	-7.42	27.23	-3.22	0.4634	-0.0602	-0.1318	
-0.898408	0.191784	-0.377468	-1.82	30.59	-2.94	0.4692	-0.0618	-0.1336	
-0.893162	0.184098	-0.397354	-2.38	31.85	-2.1	0.4729	-0.0552	-0.1139	
-0.899628	0.180072	-0.409798	2.31	34.23	-1.54	0.4744	-0.0584	-0.1186	
-0.904142	0.187514	-0.412482	3.43	33.95	-0.07	0.4625	-0.0613	-0.1016	
-0.906338	0.18666	-0.424072	-1.26	31.43	2.24	0.4625	-0.055	-0.1015	
-0.88084	0.177998	-0.439688	0.84	31.99	3.92	0.4751	-0.0565	-0.09429999	
-0.868884	0.178364	-0.4453	6.23	31.92	4.76	0.4664	-0.0579	-0.088	
-0.881694	0.189466	-0.449204	5.46	30.52	5.6	0.462	-0.061	-0.0834	
-0.88023	0.195932	-0.489342	1.4	29.33	7.14	0.469	-0.0641	-0.0791	
-0.89426	0.196176	-0.503494	3.78	26.25	7.84	0.469	-0.0657	-0.0807	
-0.898652	0.18056	-0.484218	8.4	22.19	8.89	0.466	-0.0702	-0.0746	
-0.88511	0.190442	-0.482876	6.72	21.63	10.22	0.4731	-0.064	-0.07319999	
-0.865346	0.218868	-0.494954	2.59	21.91	12.11	0.4614	-0.067	-0.0653	
-0.856196	0.210084	-0.51301	0.14	19.81	13.3	0.4672	-0.07009999	-0.0655	
-0.831308	0.182024	-0.543266	3.01	16.8	15.26	0.46	-0.0685	-0.0638	
-0.826062	0.194224	-0.541192	7.21	13.51	16.1	0.4725	-0.0668	-0.0536	
-0.828868	0.221064	-0.520574	7.84	14.35	14.28	0.4755	-0.0794	-0.0569	
-0.839848	0.231434	-0.531188	6.51	19.74	10.08	0.4624	-0.0761	-0.0488	
-0.825208	0.229482	-0.551196	2.45	22.54	7.14	0.4636	-0.0854	-0.0399	
-0.80581	0.2318	-0.575962	-3.29	23.73	5.32	0.4649	-0.0822	-0.0369	
-0.808738	0.246928	-0.576938	-4.76	21.07	3.78	0.4663	-0.0884	-0.037	
-0.781898	0.25437	-0.570838	-2.87	20.3	1.47	0.4638	-0.087	-0.0475	
-0.805078	0.266814	-0.54778	-2.94	23.03	-0.98	0.4635	-0.0869	-0.0384	
-0.810812	0.267668	-0.565958	-8.26	22.26	-0.21	0.4547	-0.0883	-0.0291	
-0.81496	0.265228	-0.575718	-4.83	18.34	0.84	0.4637	-0.087	-0.0445	
-0.80581	0.263398	-0.583526	-3.92	14.77	1.05	0.4574	-0.0851	-0.0261	
-0.798978	0.26413	-0.59536	-3.5	11.27	0.7	0.4577	-0.0837	-0.0352	
-0.79605	0.268034	-0.574132	-5.67	10.5	-0.91	0.4643	-0.0897	-0.0173	
-0.8052	0.265716	-0.576572	-8.68	12.18	-2.8	0.4601	-0.0882	-0.0202	
-0.797392	0.266204	-0.583038	-8.54	10.78	-3.85	0.4543	-0.085	-0.0185	
-0.79178	0.249734	-0.59475	-6.86	11.13	-4.62	0.4611	-0.0801	-0.007999999	
-0.781898	0.221064	-0.597678	-3.85	9.52	-4.62	0.4501	-0.0866	-0.0199	
-0.777994	0.219722	-0.609024	-1.26	9.1	-3.64	0.456	-0.08199999	-0.026	
-0.779458	0.231556	-0.62281	-0.77	7.91	-3.43	0.4569	-0.0755	-0.0093	
-0.769332	0.243024	-0.634034	-3.71	6.72	-4.2	0.4583	-0.07229999	-0.0078	
-0.757376	0.24339	-0.627202	-2.38	5.95	-4.27	0.461	-0.077	-0.0049	
-0.763598	0.238388	-0.613782	2.38	6.72	-2.87	0.4585	-0.0787	-0.0139	
-0.773358	0.2379	-0.61732	2.31	7.21	-0.84	0.4613	-0.0818	-0.0126	
-0.782752	0.240584	-0.635132	1.4	3.64	0.91	0.4554	-0.08329999	-0.0079	
-0.782996	0.247416	-0.633302	2.94	-1.12	1.33	0.4511	-0.0832	-0.0047	
-0.771528	0.242536	-0.622932	3.01	-2.87	-0.14	0.4554	-0.077	-0.0078	
-0.778116	0.23973	-0.603656	3.08	-2.31	-0.42	0.4628	-0.0834	-0.0142	
-0.785558	0.238998	-0.593164	1.89	-2.45	-0.77	0.4599	-0.0771	-0.0155	
-0.797148	0.245342	-0.607072	0.21	-4.83	-0.77	0.4556	-0.0865	-0.014	
-0.785924	0.248392	-0.616954	-0.28	-9.87	-1.4	0.4656	-0.0802	-0.0127	
-0.789828	0.245708	-0.60573	0.7	-10.99	-2.38	0.461	-0.0738	-0.0049	
-0.784094	0.237778	-0.604144	0.35	-12.67	-2.87	0.457	-0.0817	-0.0109	
-0.783118	0.22997	-0.591456	-0.49	-12.39	-3.43	0.4571	-0.0849	-0.0155	
-0.794342	0.228506	-0.59353	-0.14	-11.9	-3.5	0.4601	-0.0788	-0.0201	
-0.804102	0.236802	-0.600362	-0.56	-13.58	-4.41	0.4632	-0.0695	-0.0306	
-0.80947	0.244	-0.585844	-1.12	-16.8	-5.25	0.4578	-0.0884	-0.0368	
-0.801296	0.23668	-0.580598	-3.08	-19.04	-4.9	0.4648	-0.0681	-0.0352	
-0.807884	0.231678	-0.573522	-4.27	-20.93	-3.5	0.4544	-0.07099999	-0.0228	
-0.823744	0.224724	-0.568398	-4.06	-22.96	-2.45	0.4707	-0.0713	-0.04	
-0.825208	0.219722	-0.554978	-4.62	-25.55	-1.82	0.4737	-0.0729	-0.0461	
-0.828136	0.225822	-0.54839	-6.02	-26.25	-1.89	0.4575	-0.0742	-0.0305	
-0.829112	0.230824	-0.546804	-6.79	-27.51	-2.45	0.4581	-0.07449999	-0.0487	
-0.839848	0.230092	-0.535824	-4.48	-25.97	-3.64	0.4638	-0.0698	-0.0488	
-0.84485	0.234484	-0.52277	-5.6	-28.42	-3.85	0.4655	-0.07	-0.0579	
-0.852902	0.232288	-0.505324	-6.65	-31.99	-3.78	0.4599	-0.0716	-0.0608	
-0.840946	0.23241	-0.511912	-9.03	-32.76	-3.64	0.4674	-0.0703	-0.0746	
-0.843874	0.236436	-0.517158	-8.4	-31.71	-3.85	0.4574	-0.0749	-0.0729	
-0.863638	0.242536	-0.507764	-8.4	-35.63	-3.78	0.4661	-0.0703	-0.07759999	
-0.879986	0.24278	-0.478362	-7.91	-36.26	-4.06	0.4651	-0.0721	-0.0927	
-0.885964	0.238022	-0.443348	-9.52	-38.64	-4.83	0.4694	-0.0627	-0.09429999	
-0.895602	0.238998	-0.425292	-10.78	-36.54	-5.04	0.4666	-0.069	-0.09429999	
-0.885354	0.233264	-0.441152	-12.95	-35.28	-5.04	0.4625	-0.0659	-0.1001	
-0.88755	0.2257	-0.438956	-13.37	-37.03	-4.76	0.4726	-0.0598	-0.1049	
-0.874496	0.223992	-0.43554	-14.98	-37.8	-4.97	0.4726	-0.0582	-0.1064	
-0.904874	0.234362	-0.398696	-8.54	-37.38	-5.6	0.4704	-0.0617	-0.126	
-0.920368	0.232166	-0.373198	-8.47	-36.75	-3.22	0.4632	-0.0601	-0.1258	
-0.94733	0.232166	-0.344894	-11.34	-37.24	-2.59	0.4636	-0.0556	-0.1393	
-0.954894	0.227652	-0.303292	-7.84	-36.82	-2.94	0.4609	-0.0619	-0.1439	
-0.937814	0.226798	-0.296704	-9.66	-36.4	-3.43	0.4713	-0.0668	-0.1549	
-0.938058	0.225334	-0.302682	-8.05	-37.66	-4.9	0.4712	-0.059	-0.1533	
-0.926346	0.212036	-0.29951	-3.08	-39.76	-5.95	0.4657	-0.0591	-0.1607	
-0.95343	0.207644	-0.271694	1.82	-37.1	-6.44	0.4559	-0.0545	-0.1663	
-0.942206	0.204228	-0.283772	0.21	-30.03	-6.93	0.4662	-0.0468	-0.1786	
-0.945012	0.212524	-0.283162	2.38	-25.76	-5.53	0.4632	-0.0561	-0.1726	
-0.947452	0.228994	-0.276574	2.87	-27.3	-4.06	0.4579	-0.0579	-0.1846	
-0.940376	0.231068	-0.266692	4.62	-27.51	-1.54	0.4622	-0.0516	-0.1846	
-0.942572	0.218136	-0.259494	4.27	-26.46	1.12	0.4637	-0.0454	-0.1876	
-0.965386	0.211182	-0.236192	3.29	-28.14	3.78	0.4666	-0.0611	-0.1895	
-0.969656	0.209108	-0.227896	4.62	-27.65	5.53	0.4582	-0.0565	-0.1952	
-0.956846	0.212036	-0.238144	4.2	-26.18	5.88	0.4598	-0.0613	-0.2014	
-0.94123	0.215208	-0.250344	7.21	-25.9	4.48	0.4513	-0.0597	-0.2041	
-0.968436	0.215696	-0.221186	7.98	-29.12	2.31	0.4569	-0.0597	-0.1997	
-0.933544	0.220454	-0.242414	-4.48	-29.54	2.17	0.4558	-0.0536	-0.2117	
-0.961482	0.230824	-0.246684	4.83	-25.13	2.38	0.4488	-0.0583	-0.2146	
-0.97783	0.238632	-0.202886	6.16	-29.82	2.03	0.4518	-0.0584	-0.2192	
-0.970632	0.23241	-0.178364	-0.14	-28.14	1.26	0.4506	-0.0632	-0.2253	
-0.970266	0.22753	-0.172874	-4.48	-25.48	-0.07	0.4493	-0.0492	-0.2311	
-0.972218	0.225334	-0.159088	-5.81	-25.2	-0.98	0.4495	-0.0603	-0.2373	
-0.988078	0.218746	-0.147986	-7.98	-26.74	-0.7	0.448	-0.054	-0.2357	
-1.015772	0.220942	-0.116144	-5.25	-30.52	0.35	0.4452	-0.0555	-0.2356	
-1.021018	0.226798	-0.096502	-6.02	-32.83	0.77	0.4455	-0.0604	-0.2478	
-1.00833	0.224236	-0.106506	-9.1	-34.09	0.28	0.4486	-0.0496	-0.2568	
-1.001254	0.214598	-0.098332	-5.95	-42.14	-0.98	0.4389	-0.0638	-0.2643	
-1.001864	0.212402	-0.083204	-8.61	-44.59	-1.54	0.4387	-0.0543	-0.2581	
-1.002352	0.221552	-0.095282	-10.99	-42.98	-1.96	0.4332	-0.0575	-0.264	
-1.034682	0.233996	-0.055876	-11.97	-46.13	-1.75	0.4376	-0.0513	-0.2686	
-1.008208	0.232654	-0.062952	-14.42	-46.76	-1.19	0.431	-0.0469	-0.288	
-0.967094	0.210084	-0.118584	-16.94	-44.24	0.21	0.427	-0.0502	-0.2954	
-0.996008	0.211914	-0.091134	-15.47	-49.7	2.38	0.4273	-0.0456	-0.306	
-1.01992	0.243756	-0.049044	-12.18	-50.82	2.8	0.4277	-0.0505	-0.3182	
-1.032486	0.245708	0.020984	-19.6	-53.55	1.19	0.4204	-0.0504	-0.3134	
-1.02175	0.244976	0.057218	-23.59	-56.84	1.47	0.4137	-0.0523	-0.3299	
-0.899872	0.189954	-0.127002	-25.55	-48.72	-1.47	0.4055	-0.0493	-0.3401	
-0.96929	0.16592	-0.080764	-38.78	-61.53	-2.31	0.3954	-0.0382	-0.3381	
-0.994544	0.195932	0.018788	-17.5	-68.46	-0.07	0.4	-0.0462	-0.3475	
-1.010038	0.217038	0.076372	-22.96	-65.17	-0.49	0.3848	-0.0433	-0.3636	
-1.007476	0.217892	0.134566	-27.16	-69.79	-1.96	0.3762	-0.0292	-0.3631	
-0.950502	0.212646	0.123464	-28.91	-73.15	-5.95	0.3809	-0.0279	-0.3768	
-0.922198	0.212036	0.130296	-27.37	-80.78	-6.44	0.3738	-0.0295	-0.3797	
-0.892186	0.181292	0.130418	-23.66	-76.09	-6.86	0.3657	-0.0234	-0.396	
-0.959408	0.181414	0.179706	-21.63	-74.41	-6.09	0.3556	-0.0202	-0.3926	
-0.991006	0.19947	0.262422	-17.22	-80.01	-4.48	0.3446	-0.0235	-0.4059	
-0.960384	0.194712	0.30683	-16.8	-77.28	-5.04	0.3434	-0.0111	-0.4147	
-0.932324	0.180926	0.315614	-20.65	-75.67	-6.16	0.331	-0.016	-0.428	
-0.90402	0.168604	0.339526	-18.69	-77.21	-5.6	0.334	-0.013	-0.4341	
-0.870348	0.136884	0.384422	-15.54	-77.42	-5.81	0.3084	-0.0129	-0.4348	
-0.860832	0.141764	0.391864	-21.91	-73.36	-4.48	0.3088	-0.0085	-0.4484	
-0.848022	0.155672	0.40626	-20.93	-76.86	-3.57	0.2973	-0.0006	-0.4494	
-0.849364	0.16775	0.463356	-16.87	-82.39	-0.91	0.2892	-0.0039	-0.4613	
-0.83387	0.15738	0.487634	-24.36	-82.39	-0.63	0.2694	0.0068	-0.4711	
-0.800198	0.140178	0.498614	-23.31	-84.14	-0.98	0.2637	0.0084	-0.4709	
-0.78202	0.141886	0.521794	-17.08	-87.64	-0.84	0.24	0.0191	-0.4911	
-0.74847	0.128344	0.564982	-15.26	-90.86	-0.28	0.2316	0.016	-0.4939	
-0.734318	0.110654	0.58499	-17.43	-85.68	-0.63	0.2243	0.0192	-0.4906	
-0.71248	0.103578	0.611586	-15.96	-83.79	-2.45	0.2077	0.0096	-0.5054	
-0.693692	0.114192	0.661362	-16.87	-79.73	-2.87	0.1977	0.0159	-0.5065	
-0.6832	0.11041	0.688446	-15.05	-76.72	-2.94	0.1779	0.0267	-0.5147	
-0.672098	0.103578	0.716384	-13.3	-74.97	-3.08	0.1709	0.022	-0.5176	
-0.660996	0.09076799	0.722972	-12.6	-72.87	-3.99	0.1666	0.0236	-0.5174	
-0.641842	0.080154	0.759938	-8.05	-71.19	-4.27	0.1511	0.022	-0.523	
-0.607926	0.066124	0.769942	-9.1	-68.25	-4.55	0.1353	0.033	-0.5208	
-0.59414	0.068076	0.789584	-5.18	-66.85	-4.9	0.1255	0.0376	-0.528	
-0.56608	0.077348	0.807884	-4.27	-67.34	-4.62	0.1171	0.0297	-0.5339	
-0.554246	0.082716	0.843142	-2.8	-60.48	-3.78	0.1015	0.0282	-0.535	
-0.53985	0.077592	0.838262	-6.02	-55.44	-3.71	0.1013	0.0298	-0.5289	
-0.529846	0.086132	0.852536	-4.34	-53.48	-3.5	0.0924	0.0378	-0.5209	
-0.515816	0.07808	0.8662	-5.04	-50.82	-4.27	0.0712	0.03	-0.5264	
-0.497394	0.10004	0.87962	-3.64	-46.69	-4.76	0.0714	0.0283	-0.531	
-0.487268	0.092964	0.890234	-4.06	-41.37	-4.69	0.0571	0.0346	-0.5334	
-0.473848	0.07808	0.886696	-4.76	-37.73	-4.55	0.0686	0.0408	-0.5352	
-0.452742	0.073322	0.905972	-3.57	-35.84	-4.27	0.0542	0.0315	-0.5304	
-0.445056	0.069296	0.910852	-1.96	-31.57	-4.06	0.0429	0.0393	-0.5344	
-0.434564	0.076372	0.915122	-1.47	-27.02	-3.29	0.0388	0.0361	-0.5404	
-0.419558	0.075274	0.917562	-0.42	-21	-1.19	0.0399	0.0378	-0.5283	
-0.412482	0.07991	0.9272	0.91	-16.66	0.35	0.0209	0.0256	-0.5142	
-0.406626	0.08357	0.920734	-0.14	-11.34	1.19	0.0286	0.0237	-0.5312	
-0.403332	0.079422	0.933788	-0.07	-8.68	1.96	0.0314	0.0409	-0.531	
-0.410896	0.078446	0.926468	-0.42	-3.99	1.96	0.024	0.0317	-0.5218	
-0.412482	0.077592	0.93391	0.49	-2.31	1.54	0.0344	0.0409	-0.5356	
-0.416874	0.083082	0.93391	0.49	2.52	1.47	0.0199	0.0269	-0.5278	
-0.42029	0.083326	0.939522	0.7	7.42	1.33	0.0229	0.0331	-0.5339	
-0.423706	0.0793	0.933666	0.63	12.81	1.26	0.0287	0.0377	-0.5385	
-0.425414	0.08174	0.94367	0	16.66	0.84	0.0244	0.0315	-0.5354	
-0.429074	0.081984	0.939278	-0.56	20.86	0.49	0.0243	0.0441	-0.5322	
-0.434076	0.06588	0.927688	0.42	25.34	0.35	0.0357	0.0331	-0.5328	
-0.4453	0.050264	0.927688	1.89	29.96	0.7	0.0471	0.0425	-0.5315	
-0.451644	0.044042	0.92964	4.27	34.3	1.26	0.0399	0.0378	-0.5313	
-0.461404	0.05551	0.91988	8.33	38.85	1.05	0.0458	0.0314	-0.5361	
-0.466284	0.062952	0.907192	10.92	42.14	1.12	0.0415	0.0362	-0.5344	
-0.480558	0.070882	0.906582	14.98	45.71	1.12	0.0586	0.0408	-0.5334	
-0.489952	0.069662	0.89121	16.45	49.21	0.98	0.0601	0.0283	-0.5351	
-0.506178	0.085644	0.86376	17.29	59.43	2.38	0.0853	0.0237	-0.5209	
-0.532408	0.092354	0.84058	18.97	61.81	2.24	0.094	0.0284	-0.5241	
-0.542046	0.089792	0.836188	21.56	63.63	2.38	0.09519999	0.0222	-0.5152	
-0.56364	0.090402	0.819352	22.75	70.98	1.96	0.1154	0.0252	-0.5233	
-0.587796	0.107726	0.794708	23.38	76.93	0.98	0.1251	0.0144	-0.5132	
-0.602192	0.11834	0.769454	22.82	80.71	0	0.1456	0.0172	-0.529	
-0.631594	0.116266	0.739198	24.64	86.31	-1.4	0.1479	0.019	-0.5109	
-0.649284	0.11712	0.720654	28	88.76	-2.03	0.1651	0.0033	-0.5147	
-0.665998	0.118218	0.688934	29.47	94.15	-3.15	0.1765	-0.0013	-0.5121	
-0.671122	0.130052	0.631472	30.8	98.28	-3.64	0.1947	0.0003	-0.5006	
-0.705282	0.14091	0.590968	34.93	101.43	-3.36	0.1976	-0.0106	-0.5023	
-0.73932	0.132492	0.55693	38.15	108.85	-4.2	0.2171	-0.0166	-0.4849	
-0.762744	0.148596	0.525942	38.5	107.66	-3.36	0.2387	-0.0184	-0.4917	
-0.760914	0.164944	0.499956	38.78	109.55	-2.59	0.2568	-0.0244	-0.4757	
-0.793	0.187392	0.454816	41.23	116.41	-3.92	0.2637	-0.0243	-0.4683	
-0.817644	0.161284	0.39467	36.47	118.44	-3.29	0.2819	-0.0304	-0.4554	
-0.854732	0.164456	0.357216	40.32	117.32	-1.61	0.2929	-0.0318	-0.4422	
-0.861442	0.177388	0.314394	42.35	117.11	-1.89	0.3057	-0.038	-0.4381	
-0.880718	0.205814	0.273158	41.72	115.71	-1.26	0.3181	-0.041	-0.425	
-0.920124	0.20496	0.215818	45.71	112.07	-1.68	0.3444	-0.05	-0.3957	
-0.941352	0.19337	0.176534	38.71	107.17	-0.98	0.3542	-0.0562	-0.39	
-0.9394	0.217404	0.155428	37.66	102.34	0.84	0.3681	-0.0591	-0.3769	
-0.96014	0.212402	0.096136	31.36	105.98	0.63	0.3832	-0.0495	-0.3591	
-0.96807	0.237168	0.077714	31.15	100.17	1.47	0.3889	-0.0683	-0.3565	
-0.97051	0.243146	0.018056	30.17	98.07	0.91	0.3997	-0.0648	-0.3357	
-0.994056	0.254736	0	32.41	90.09	1.33	0.4078	-0.074	-0.3209	
-0.9821	0.250466	-0.057462	31.22	86.17	0.49	0.4074	-0.0676	-0.3087	
-0.991006	0.243878	-0.088572	35.49	82.53	-1.68	0.4231	-0.07229999	-0.3063	
-0.990152	0.233874	-0.10919	32.34	77.84	-4.76	0.4182	-0.0719	-0.2864	
-0.986858	0.216306	-0.165188	26.53	77.56	-7.91	0.428	-0.0813	-0.2808	
-0.9882	0.210938	-0.187514	19.53	72.94	-8.33	0.432	-0.0733	-0.2702	
-1.002474	0.23485	-0.180072	16.31	70	-8.33	0.4258	-0.084	-0.2536	
-0.99308	0.236436	-0.193736	13.23	67.69	-8.82	0.4356	-0.0761	-0.2477	
-0.971974	0.211426	-0.224724	10.08	66.92	-9.59	0.4408	-0.07889999	-0.2313	
-0.980758	0.214476	-0.228872	18.06	61.11	-9.24	0.4334	-0.07099999	-0.2249	
-0.95099	0.199836	-0.291214	17.29	60.06	-8.96	0.4518	-0.0709	-0.2179	
-0.967948	0.188124	-0.310856	9.73	60.34	-9.59	0.4618	-0.0756	-0.2168	
-0.96258	0.20496	-0.28487	7.63	56.7	-9.03	0.4594	-0.0563	-0.1861	
-0.946354	0.192638	-0.312076	3.57	59.15	-9.66	0.4619	-0.0765	-0.1729	
-0.951356	0.190808	-0.321348	0.84	57.96	-9.94	0.4675	-0.0609	-0.1728	
-0.958798	0.187392	-0.34038	1.19	53.69	-11.13	0.4657	-0.056	-0.1606	
-0.943426	0.17507	-0.342454	-1.12	49.56	-12.11	0.4642	-0.0716	-0.1578	
-0.932812	0.186294	-0.364048	-26.88	40.95	-10.57	0.4685	-0.0575	-0.1577	
-0.967094	0.184342	-0.370636	-13.3	42.77	-11.83	0.474	-0.0589	-0.1503	
-0.965996	0.193736	-0.357582	-0.42	40.81	-11.9	0.4709	-0.0573	-0.1441	
-0.950136	0.173606	-0.386252	-3.01	40.74	-11.9	0.4735	-0.0508	-0.1335	
-0.935984	0.155916	-0.431758	-6.51	40.53	-10.57	0.4703	-0.0444	-0.1243	
-0.931104	0.165798	-0.43615	-3.5	34.44	-7.98	0.4732	-0.0429	-0.1258	
-0.942938	0.174338	-0.454328	-9.38	28.49	-5.88	0.4659	-0.0491	-0.1212	
-0.931714	0.168604	-0.454694	-8.54	25.34	-3.36	0.4617	-0.0444	-0.1225	
-0.923662	0.164334	-0.461892	-4.97	24.01	-1.05	0.4642	-0.0551	-0.1091	
-0.925614	0.16592	-0.474336	-3.43	23.1	0.98	0.464	-0.041	-0.1043	
-0.91378	0.167872	-0.493246	-2.03	17.99	2.94	0.4767	-0.0441	-0.1003	
-0.912316	0.163968	-0.509594	-5.11	12.74	3.85	0.4726	-0.052	-0.1063	
-0.88816	0.150792	-0.517524	-2.38	7.49	4.83	0.4724	-0.0472	-0.1002	
-0.873886	0.158234	-0.513498	4.97	7.77	4.76	0.4607	-0.0579	-0.0894	
-0.878888	0.171898	-0.49898	7	9.1	3.92	0.4652	-0.0424	-0.0968	
-0.882426	0.179706	-0.496662	4.97	10.64	2.94	0.4709	-0.0518	-0.09559999	
-0.86132	0.16043	-0.4941	-2.17	11.83	2.45	0.4695	-0.055	-0.0972	
-0.852658	0.173362	-0.515816	-3.15	11.48	5.32	0.4692	-0.0485	-0.088	
-0.859002	0.187148	-0.517524	-5.53	8.05	8.54	0.4735	-0.0486	-0.0896	
-0.880108	0.205814	-0.494466	-1.12	6.02	11.27	0.4705	-0.0469	-0.0819	
-0.881206	0.207034	-0.479338	-1.68	3.64	12.39	0.4692	-0.0611	-0.0867	
-0.87474	0.213256	-0.460062	5.18	4.55	13.09	0.4793	-0.0533	-0.08989999	
-0.871446	0.216428	-0.463356	3.29	10.64	12.46	0.4679	-0.0752	-0.0914	
-0.85339	0.20984	-0.489952	3.22	14.63	11.55	0.4705	-0.0641	-0.0837	
-0.858392	0.212158	-0.47641	5.74	12.39	11.83	0.4692	-0.07669999	-0.0854	
-0.871202	0.22021	-0.435174	6.02	9.03	10.71	0.4706	-0.06879999	-0.0838	
-0.882792	0.22387	-0.418216	6.72	13.44	8.26	0.472	-0.0751	-0.0824	
-0.876814	0.231312	-0.444446	-0.14	19.18	6.51	0.4588	-0.078	-0.073	
-0.868152	0.228506	-0.469334	-1.75	20.51	5.67	0.4701	-0.0686	-0.0671	
-0.86742	0.221064	-0.4636	1.12	15.68	6.51	0.46	-0.07319999	-0.0654	
-0.8601	0.226066	-0.451644	5.81	14.21	4.97	0.4653	-0.0699	-0.0519	
-0.862662	0.238632	-0.437736	7	16.94	3.5	0.4712	-0.0653	-0.058	
-0.86437	0.247904	-0.469456	0.7	19.6	2.24	0.464	-0.0778	-0.0565	
-0.863272	0.236558	-0.503738	-5.39	18.76	2.03	0.4668	-0.0683	-0.0534	
-0.854976	0.229726	-0.513986	-2.52	13.58	1.26	0.4724	-0.0793	-0.0507	
-0.848266	0.224358	-0.493246	3.71	10.43	-0.21	0.4681	-0.0746	-0.0505	
-0.85095	0.227896	-0.493124	3.99	12.74	-1.12	0.4695	-0.0636	-0.0489	
-0.856196	0.233386	-0.507642	-0.91	14.42	-0.98	0.4622	-0.07449999	-0.0443	
-0.849608	0.220942	-0.527162	-3.71	14.77	-0.07	0.4708	-0.0729	-0.043	
-0.830698	0.229238	-0.515694	-1.89	12.39	0.42	0.4595	-0.073	-0.0487	
-0.815814	0.230702	-0.519842	-1.19	13.23	-0.21	0.4651	-0.0713	-0.0443	
-0.826794	0.231556	-0.511912	0.28	13.16	-0.56	0.4692	-0.0791	-0.0385	
-0.837652	0.218258	-0.512888	2.03	9.94	1.05	0.4731	-0.0695	-0.0279	
-0.830698	0.2074	-0.539728	-1.89	11.34	2.24	0.472	-0.0791	-0.0371	
-0.831674	0.221186	-0.559492	-3.08	10.29	1.82	0.4635	-0.076	-0.0398	
-0.81252	0.216062	-0.559492	0.77	7.98	1.05	0.4691	-0.0744	-0.0369	
-0.81374	0.22326	-0.550098	5.95	9.24	1.47	0.4735	-0.0822	-0.0372	
-0.815814	0.219478	-0.56059	5.39	12.32	1.4	0.4677	-0.0822	-0.0355	
-0.80825	0.21472	-0.584624	4.9	14.07	1.75	0.472	-0.0806	-0.0356	
-0.801174	0.21533	-0.584258	5.46	11.41	1.54	0.4592	-0.0665	-0.0395	
-0.800076	0.219356	-0.569618	5.53	10.15	1.12	0.4561	-0.0695	-0.0319	
-0.799954	0.229116	-0.559614	4.83	11.2	1.05	0.4588	-0.08199999	-0.0261	
-0.795562	0.234972	-0.570228	2.24	12.04	0.77	0.4643	-0.0741	-0.0186	
-0.79483	0.232166	-0.580842	1.96	10.01	0.35	0.4613	-0.0646	-0.0153	
-0.795318	0.229482	-0.585844	4.62	9.1	0.07	0.4615	-0.0787	-0.0186	
-0.790072	0.229604	-0.590114	5.39	9.52	0	0.4629	-0.0803	-0.0202	
-0.799588	0.230214	-0.58011	6.02	10.64	-0.21	0.4674	-0.0804	-0.0249	
-0.794952	0.223504	-0.572302	4.76	12.81	-0.77	0.4611	-0.0801	-0.007999999	
-0.802638	0.228994	-0.593286	-0.77	12.6	-2.73	0.4599	-0.0724	-0.0154	
-0.804224	0.229482	-0.622566	-7.07	8.61	-6.16	0.4628	-0.0834	-0.0142	
-0.789584	0.23424	-0.632082	-8.26	2.45	-8.61	0.4629	-0.0834	-0.0187	
-0.780068	0.239242	-0.625494	-8.47	-0.7	-9.8	0.4597	-0.0739	-0.0094	
-0.782142	0.236192	-0.611098	-5.95	1.4	-9.73	0.4655	-0.0802	-0.009699999	
-0.779336	0.225334	-0.615002	-8.96	5.25	-9.8	0.4614	-0.0693	-0.0184	
-0.782386	0.212036	-0.627446	-12.95	5.46	-10.08	0.4655	-0.0817	-0.009699999	
-0.782508	0.207766	-0.61732	-9.52	0.7	-9.59	0.4655	-0.0708	-0.0125	
-0.786168	0.200934	-0.612806	-8.82	-3.22	-8.05	0.4641	-0.0677	-0.0124	
-0.790926	0.21472	-0.622688	-6.65	-9.45	-6.09	0.4569	-0.077	-0.0093	
-0.787632	0.221308	-0.626348	-5.53	-12.46	-5.67	0.4698	-0.0708	-0.0127	
-0.805688	0.222406	-0.62647	-4.83	-14.98	-4.48	0.463	-0.0616	-0.0229	
-0.804834	0.223504	-0.614148	-8.12	-13.79	-4.83	0.4659	-0.0632	-0.0245	
-0.82228	0.226798	-0.607194	-9.45	-18.55	-4.55	0.463	-0.0647	-0.0245	
-0.8296	0.231312	-0.602436	-7.21	-23.17	-4.13	0.4631	-0.0632	-0.026	
-0.826672	0.21899	-0.608292	-7.21	-30.38	-3.22	0.4662	-0.0618	-0.0336	
-0.823012	0.217648	-0.610122	-8.75	-37.38	-2.59	0.4691	-0.0681	-0.0368	
-0.815814	0.2196	-0.59536	-6.37	-41.86	-2.8	0.4706	-0.0556	-0.0382	
-0.814228	0.220454	-0.564128	-5.04	-42.56	-2.94	0.4709	-0.0683	-0.049	
-0.837286	0.223748	-0.536922	-8.54	-39.62	-3.22	0.4712	-0.0591	-0.0595	
-0.854	0.208864	-0.508008	-9.66	-39.34	-2.31	0.4556	-0.0513	-0.0634	
-0.8601	0.198128	-0.485316	-8.75	-40.74	-1.75	0.4657	-0.056	-0.0653	
-0.873032	0.19947	-0.474214	-9.73	-44.1	-1.26	0.4572	-0.0623	-0.0681	
-0.876936	0.19703	-0.467626	-9.73	-50.68	-0.28	0.4663	-0.061	-0.085	
-0.833016	0.201056	-0.496418	-8.82	-51.24	0.49	0.4696	-0.0597	-0.1003	
-0.873886	0.220576	-0.487512	-0.28	-48.79	1.89	0.4641	-0.0645	-0.1077	
-0.925492	0.232776	-0.406138	9.17	-48.16	2.1	0.4655	-0.0566	-0.1046	
-0.937692	0.214598	-0.39467	-2.52	-43.89	1.19	0.4633	-0.0586	-0.1273	
-0.945866	0.217648	-0.426024	-6.3	-42.84	0.77	0.4676	-0.0602	-0.129	
-0.929884	0.216184	-0.405772	-1.68	-54.46	2.52	0.4665	-0.0572	-0.1395	
-0.912926	0.225456	-0.368074	6.65	-59.08	4.27	0.4622	-0.0587	-0.1394	
-0.912438	0.210572	-0.335988	11.9	-55.37	5.53	0.4723	-0.0573	-0.1427	
-0.903898	0.199714	-0.321836	23.24	-47.53	4.13	0.4616	-0.0639	-0.1666	
-0.899994	0.208864	-0.335866	14.56	-38.57	4.9	0.4618	-0.0624	-0.1712	
-0.906338	0.222528	-0.328546	13.65	-35.49	4.06	0.4557	-0.0638	-0.1604	
-0.894626	0.236192	-0.318908	10.29	-30.73	1.75	0.4631	-0.067	-0.1683	
-0.902434	0.231434	-0.299022	3.08	-23.59	1.12	0.4646	-0.0592	-0.1697	
-0.918782	0.23607	-0.273402	2.87	-19.74	0.77	0.4604	-0.0562	-0.1741	
-0.917684	0.228384	-0.24766	5.74	-15.61	-1.33	0.4645	-0.0717	-0.1669	
-0.932568	0.22631	-0.238144	1.96	-9.38	-2.52	0.4547	-0.0702	-0.1741	
-0.935618	0.224114	-0.230458	-0.91	-6.09	-2.1	0.4646	-0.0655	-0.1698	
-0.946354	0.214842	-0.216794	-1.33	-5.32	-0.7	0.4549	-0.0594	-0.1815	
-0.955504	0.215208	-0.207644	-2.31	-5.04	0.91	0.4564	-0.0563	-0.183	
-0.962458	0.210938	-0.20435	-3.36	-4.41	2.17	0.4607	-0.0751	-0.1834	
-0.973072	0.204472	-0.198982	-4.27	-3.57	3.15	0.4693	-0.0595	-0.185	
-0.98088	0.206668	-0.194956	-3.99	-5.74	4.2	0.4554	-0.0675	-0.1968	
-0.986492	0.206546	-0.196786	-4.62	-7.14	3.92	0.4638	-0.0721	-0.1895	
-0.982588	0.209108	-0.191906	-3.71	-10.22	3.43	0.4656	-0.066	-0.2016	
-0.977464	0.211182	-0.198738	-4.55	-12.46	2.94	0.454	-0.0691	-0.1983	
-0.966118	0.216306	-0.200568	-4.06	-12.25	2.31	0.4569	-0.0675	-0.1968	
-0.962946	0.222284	-0.209108	-3.78	-11.41	1.89	0.4525	-0.0721	-0.1952	
-0.958554	0.225456	-0.218258	-3.78	-10.43	1.26	0.4554	-0.0643	-0.1967	
-0.948794	0.234362	-0.216428	-3.22	-9.45	0.56	0.4614	-0.0614	-0.2059	
-0.944158	0.238876	-0.230824	-4.55	-7.07	0	0.4581	-0.0752	-0.1894	
-0.949526	0.239608	-0.23302	-4.76	-6.16	-0.21	0.4598	-0.0753	-0.1985	
-0.947208	0.24217	-0.223504	-4.97	-5.39	-0.14	0.4524	-0.0611	-0.192	
-0.950868	0.24339	-0.225822	-5.53	-1.19	-0.21	0.4523	-0.0673	-0.1876	
-0.956724	0.24339	-0.218746	-4.55	0.35	-0.49	0.457	-0.055	-0.2027	
-0.962824	0.23546	-0.217526	-2.66	2.66	-0.98	0.4627	-0.0645	-0.203	
-0.966972	0.224724	-0.220698	2.66	4.34	-1.68	0.4571	-0.0738	-0.203	
-0.961482	0.217892	-0.233142	6.79	4.13	-1.75	0.4558	-0.0739	-0.2075	
-0.958188	0.21472	-0.237168	1.05	3.08	-1.61	0.4571	-0.0785	-0.203	
-0.968436	0.221186	-0.21838	1.33	0.28	-1.33	0.4586	-0.0598	-0.2073	
-0.961604	0.219478	-0.225822	-0.63	1.19	-1.54	0.4499	-0.0691	-0.2042	
-0.965386	0.22631	-0.220332	0.35	-0.91	-1.05	0.451	-0.0564	-0.1919	
-0.96685	0.22753	-0.21777	0.07	-1.75	-0.63	0.4541	-0.0565	-0.1996	
-0.9638	0.227408	-0.227896	-1.05	-2.1	-0.42	0.4669	-0.0675	-0.1971	
-0.95953	0.22997	-0.223382	0	-3.15	-0.07	0.4565	-0.0579	-0.1861	
-0.95892	0.233508	-0.22509	-1.19	-2.31	0.49	0.4583	-0.0596	-0.1967	
-0.956968	0.235582	-0.224846	-1.26	-2.1	0.7	0.4644	-0.0661	-0.2091	
-0.95831	0.23668	-0.219844	0.35	-1.61	0.56	0.46	-0.0707	-0.2045	
-0.955016	0.23302	-0.227896	-0.77	-0.49	0	0.4615	-0.0677	-0.2076	
-0.960872	0.231434	-0.219966	-0.35	-0.42	-0.49	0.4558	-0.0646	-0.2104	
-0.959896	0.230092	-0.221796	-2.59	0.28	-0.91	0.4612	-0.06439999	-0.1999	
-0.962336	0.234606	-0.220698	-2.52	0.35	-1.4	0.463	-0.0677	-0.2106	
-0.962702	0.230824	-0.217404	-1.33	-0.07	-1.68	0.4557	-0.0614	-0.2073	
-0.960628	0.225456	-0.222528	-0.98	0.35	-1.26	0.4569	-0.0738	-0.1984	
-0.96075	0.223992	-0.224846	0.7	0.14	-0.63	0.4486	-0.0613	-0.207	
-0.9638	0.223748	-0.221186	-0.42	0.63	-0.07	0.4598	-0.0613	-0.2014	
-0.967216	0.225456	-0.218746	0.7	1.12	0.84	0.4596	-0.0612	-0.1938	
-0.969168	0.218014	-0.212768	0.98	1.19	1.19	0.4598	-0.0582	-0.2013	
-0.970876	0.212402	-0.21472	0.42	1.12	1.82	0.4557	-0.0614	-0.2073	
-0.970754	0.207644	-0.219478	-0.56	-0.77	2.52	0.4642	-0.0504	-0.2059	
-0.969778	0.20862	-0.213378	-0.49	-1.68	2.52	0.4583	-0.0597	-0.1983	
-0.964898	0.214598	-0.220454	-0.28	-1.82	3.15	0.4514	-0.0785	-0.2044	
-0.974902	0.212402	-0.200934	1.68	-1.19	3.64	0.4684	-0.06439999	-0.2017	
-0.962336	0.213256	-0.215208	4.2	0.63	4.06	0.4582	-0.0659	-0.1938	
-0.963556	0.217404	-0.215086	2.45	0.49	3.99	0.4556	-0.0707	-0.2029	
-0.959286	0.22692	-0.217404	1.96	0.7	3.36	0.4583	-0.0534	-0.1982	
-0.960384	0.221796	-0.216428	2.03	2.66	2.03	0.4527	-0.066	-0.2012	
-0.958188	0.227042	-0.228872	1.05	2.03	0.91	0.4527	-0.0675	-0.1997	
-0.965996	0.235826	-0.215818	1.4	1.4	-0.49	0.4513	-0.0628	-0.2011	
-0.961848	0.24034	-0.221064	1.54	3.15	-2.66	0.4645	-0.0631	-0.2136	
-0.961726	0.245952	-0.223138	1.19	3.22	-4.48	0.4513	-0.0785	-0.2013	
-0.969046	0.246806	-0.218868	1.82	2.31	-5.74	0.4585	-0.0707	-0.2045	
-0.960872	0.244122	-0.213134	5.46	1.33	-7.28	0.4571	-0.0738	-0.203	
-0.966606	0.242658	-0.217038	4.27	3.08	-9.59	0.4599	-0.06439999	-0.2029	
-0.96197	0.246318	-0.221674	5.46	2.1	-12.32	0.4583	-0.0581	-0.1967	
-0.963678	0.249856	-0.2135	4.97	1.96	-15.68	0.4511	-0.0674	-0.1951	
-0.949038	0.240218	-0.229482	3.15	3.99	-17.71	0.464	-0.0581	-0.1969	
-0.957212	0.217648	-0.229116	0	4.34	-18.34	0.4543	-0.0535	-0.2071	
-0.952698	0.212402	-0.240462	-1.75	4.41	-17.36	0.4568	-0.0565	-0.1951	
-0.96746	0.203984	-0.227164	-0.7	3.43	-16.87	0.4597	-0.0424	-0.198	
-0.977098	0.200934	-0.217282	0.42	5.88	-17.01	0.4628	-0.0395	-0.2072	
-0.975024	0.188246	-0.225334	-3.64	7.07	-18.06	0.4568	-0.0393	-0.1979	
-0.970022	0.173362	-0.238388	-4.69	6.02	-19.18	0.4609	-0.0392	-0.192	
-0.966728	0.160796	-0.241072	-3.15	3.64	-20.72	0.4594	-0.0251	-0.1902	
-0.958676	0.152256	-0.238998	-4.48	1.82	-21.84	0.4608	-0.0126	-0.19	
-0.966606	0.159576	-0.25132	-6.93	3.78	-22.05	0.4694	-0.0235	-0.189	
-0.96685	0.157014	-0.242048	1.89	2.52	-22.75	0.4692	-0.0141	-0.1858	
-0.963922	0.159454	-0.253272	2.03	4.69	-22.19	0.4751	-0.0188	-0.1891	
-0.966118	0.143594	-0.252662	5.81	5.81	-21.91	0.4651	-0.0095	-0.1916	
-0.967094	0.140544	-0.25925	8.96	7.14	-20.51	0.4621	-0.0141	-0.1871	
-0.987224	0.13237	-0.249002	14.77	3.57	-19.88	0.4791	-0.0109	-0.183	
-0.97478	0.123708	-0.235582	14.7	3.78	-20.37	0.4635	-0.0094	-0.1855	
-0.971242	0.12444	-0.246806	5.95	8.33	-19.95	0.4724	-0.0048	-0.1948	
-0.991006	0.11041	-0.247904	2.24	7.21	-21.49	0.475	0.0014	-0.1888	
-0.974902	0.094428	-0.26108	1.96	5.46	-23.87	0.4746	0.0032	-0.1766	
-0.98881	0.071736	-0.256444	2.1	4.2	-27.09	0.4705	0.0031	-0.181	
-0.994788	0.078446	-0.235094	8.89	-0.91	-32.48	0.4662	0.0188	-0.1822	
-0.975878	0.061854	-0.26657	1.96	0.28	-36.54	0.4747	0.0141	-0.181	
-1.000156	0.063928	-0.28548	3.57	-5.25	-40.25	0.4719	0.0344	-0.1821	
-0.995032	0.049044	-0.254004	8.33	-8.54	-39.48	0.4719	0.0391	-0.1836	
-0.996252	0.044408	-0.239242	4.41	-6.3	-40.39	0.4751	0.0358	-0.1943	
-1.0065	0.010004	-0.230458	-2.45	-3.92	-42.84	0.4693	0.0483	-0.1939	
-0.996618	-0.028182	-0.227774	-4.41	-1.12	-46.62	0.4737	0.0546	-0.1955	
-0.96746	-0.04819	-0.236802	-17.99	-2.1	-50.4	0.4737	0.0623	-0.1984	
-0.96929	-0.079666	-0.250344	-27.16	3.78	-53.48	0.4722	0.0718	-0.1967	
-0.937814	-0.048922	-0.304268	-27.65	2.45	-54.53	0.4721	0.0812	-0.192	
-0.987712	-0.055388	-0.350384	-33.39	6.3	-47.25	0.4691	0.0891	-0.1903	
-1.014674	-0.072834	-0.307562	-3.36	-3.71	-40.39	0.4633	0.0923	-0.1855	
-1.014674	-0.074176	-0.235094	22.19	-2.52	-36.05	0.4676	0.1127	-0.1868	
-0.965264	-0.117364	-0.303292	-1.47	3.43	-36.89	0.4677	0.1094	-0.1914	
-0.964166	-0.14701	-0.302072	9.94	0.77	-34.3	0.4749	0.1094	-0.1947	
-0.955504	-0.186294	-0.252052	15.12	-11.62	-33.6	0.4704	0.1236	-0.1883	
-0.962092	-0.18727	-0.22875	-2.31	-12.39	-32.06	0.4702	0.1237	-0.1822	
-0.973926	-0.18239	-0.252296	-8.4	-12.6	-30.38	0.4592	0.1282	-0.1939	
-0.989176	-0.189954	-0.223382	1.75	-14	-29.12	0.4566	0.1328	-0.2028	
-0.970876	-0.20679	-0.209352	0	-15.19	-28.91	0.4621	0.1313	-0.1954	
-0.968924	-0.230214	-0.19459	-3.36	-12.88	-30.38	0.4651	0.1422	-0.2029	
-0.9272	-0.228994	-0.288164	-11.2	-9.45	-29.89	0.4539	0.1515	-0.2085	
-0.977464	-0.232044	-0.189344	10.57	-18.9	-31.78	0.4637	0.15	-0.2043	
-0.960506	-0.235216	-0.202398	1.33	-12.46	-30.73	0.4558	0.1497	-0.2252	
-0.946598	-0.268034	-0.216062	-3.22	-12.53	-30.59	0.4484	0.1686	-0.2171	
-0.951966	-0.26901	-0.204472	2.45	-15.19	-30.8	0.4471	0.1685	-0.2216	
-0.93391	-0.26169	-0.204838	0.35	-15.26	-31.15	0.4471	0.1764	-0.2215	
-0.953796	-0.260836	-0.191418	0.28	-11.76	-30.1	0.4414	0.1779	-0.2228	
-0.965996	-0.25559	-0.181536	-1.89	-10.08	-28.7	0.4457	0.1904	-0.2243	
-0.95221	-0.271938	-0.190198	-7.91	-6.93	-27.3	0.4426	0.1858	-0.2167	
-0.945256	-0.295972	-0.193736	-9.66	-5.39	-25.27	0.4369	0.1999	-0.2178	
-0.943548	-0.299632	-0.211304	-9.38	-4.9	-22.47	0.4384	0.1983	-0.2194	
-0.964532	-0.283406	-0.185684	-8.75	-7.49	-20.02	0.4367	0.2047	-0.2132	
-0.960262	-0.308782	-0.189466	-7.91	-3.92	-14.98	0.4398	0.1999	-0.2194	
-0.943792	-0.327936	-0.17873	-4.62	-1.75	-10.5	0.4354	0.2047	-0.2162	
-0.935374	-0.348798	-0.18605	-7.56	-0.21	-8.33	0.4327	0.1984	-0.2192	
-0.93574	-0.346602	-0.186904	-6.72	-0.21	-6.65	0.4312	0.1999	-0.2191	
-0.940986	-0.35258	-0.18971	-8.96	-0.07	-4.9	0.4356	0.2124	-0.2236	
-0.936838	-0.348432	-0.198494	-8.61	0.14	-2.94	0.4283	0.2125	-0.2188	
-0.936716	-0.357216	-0.192638	-4.97	0	-1.12	0.4313	0.2124	-0.222	
-0.923662	-0.372344	-0.191418	-4.34	0.28	-0.49	0.4341	0.214	-0.222	
-0.921344	-0.389058	-0.195078	-8.89	0.63	-0.42	0.4398	0.2234	-0.2205	
-0.92903	-0.372466	-0.197884	-4.69	0.56	0.98	0.4254	0.2141	-0.2157	
-0.945988	-0.36905	-0.182146	-3.57	0.07	2.1	0.4326	0.2172	-0.2174	
-0.931348	-0.36173	-0.173362	-9.66	0	2.94	0.4367	0.211	-0.2131	
-0.938912	-0.36173	-0.193248	-12.04	2.38	6.23	0.437	0.2124	-0.2221	
-0.926956	-0.345138	-0.202032	-12.46	-0.84	9.1	0.4328	0.2108	-0.2235	
-0.941718	-0.34343	-0.19703	-15.26	-1.19	11.69	0.4356	0.2186	-0.2235	
-0.939888	-0.335378	-0.216062	-13.09	0.7	15.47	0.4355	0.2062	-0.2192	
-0.956968	-0.308782	-0.202642	-9.87	-2.45	17.64	0.4352	0.2001	-0.2102	
-0.950746	-0.298046	-0.20191	-1.33	-2.8	20.93	0.4424	0.2141	-0.2132	
-0.94672	-0.283894	-0.194346	0.63	-4.55	24.15	0.4384	0.2108	-0.2207	
-0.94672	-0.27084	-0.192028	4.69	-3.71	27.09	0.441	0.2047	-0.2118	
-0.936228	-0.272548	-0.209596	0.98	0.42	30.59	0.4411	0.1968	-0.2165	
-0.948794	-0.270718	-0.216062	-0.07	1.33	31.78	0.4371	0.1905	-0.2225	
-0.962214	-0.264008	-0.204594	3.85	1.05	33.39	0.4441	0.1795	-0.2198	
-0.964776	-0.244488	-0.19459	6.44	0.49	34.65	0.4468	0.1843	-0.2138	
-0.950258	-0.238266	-0.20984	2.52	2.94	35.35	0.4601	0.1825	-0.2279	
-0.953552	-0.246806	-0.178486	-2.1	1.75	36.33	0.4443	0.1669	-0.2231	
-0.956846	-0.23424	-0.223626	-2.1	7.7	38.78	0.4486	0.1607	-0.2233	
-0.960628	-0.209718	-0.215574	4.55	0.42	40.39	0.4555	0.1467	-0.2147	
-0.96746	-0.209352	-0.196542	7.49	2.94	42.14	0.4429	0.1529	-0.2232	
-0.960628	-0.19703	-0.203374	6.79	5.46	43.68	0.457	0.1404	-0.2163	
-0.965508	-0.167872	-0.203862	12.6	8.33	44.52	0.4542	0.131	-0.2179	
-0.961604	-0.14274	-0.221308	13.02	11.13	44.59	0.4555	0.1232	-0.2135	
-0.963556	-0.131638	-0.203496	15.4	10.71	46.48	0.4585	0.109	-0.2184	
-0.987224	-0.105896	-0.211792	8.96	13.44	44.17	0.4615	0.1121	-0.223	
-0.989054	-0.099796	-0.212524	7.42	13.51	43.26	0.4567	0.1046	-0.2048	
-0.986004	-0.064294	-0.229238	6.65	13.23	42.98	0.4653	0.0826	-0.2054	
-0.996618	-0.046604	-0.24217	5.04	14	42.77	0.4697	0.0888	-0.21	
-0.987712	-0.039284	-0.256322	10.36	7.28	41.09	0.464	0.081	-0.2069	
-1.001986	-0.022204	-0.217526	15.47	12.53	42.56	0.4723	0.0717	-0.1982	
-0.992958	-0.003416	-0.239242	4.41	8.96	43.89	0.4722	0.0702	-0.1967	
-0.973072	0.030744	-0.24034	7	5.04	43.96	0.4639	0.056	-0.2027	
-0.96136	0.047336	-0.254492	1.12	4.13	44.31	0.4608	0.0499	-0.1951	
-0.976488	0.058804	-0.25742	1.33	6.65	44.52	0.4638	0.042	-0.1999	
-1.002718	0.06405	-0.2257	4.62	3.71	45.22	0.4594	0.0374	-0.1938	
-0.995032	0.07991	-0.22326	4.62	6.44	44.31	0.4695	0.0389	-0.1986	
-0.984784	0.09394	-0.238388	4.9	10.36	43.19	0.4665	0.028	-0.1941	
-0.972706	0.132126	-0.272792	6.72	8.89	41.16	0.4763	0.0187	-0.187	
-0.977952	0.1464	-0.268278	9.52	6.65	37.66	0.4677	0.0125	-0.1853	
-0.994788	0.14945	-0.238754	3.78	2.52	34.3	0.4676	0.0047	-0.1809	
-1.003084	0.162992	-0.231434	-1.05	0.42	32.55	0.4719	0.0031	-0.1811	
-0.963678	0.149084	-0.25376	-5.18	0.49	32.76	0.4663	-0.0078	-0.1826	
-0.960262	0.164334	-0.269132	-2.31	-1.4	35.49	0.4621	-0.0156	-0.1856	
-0.960262	0.182146	-0.259982	5.25	-3.43	38.92	0.4663	-0.0266	-0.1829	
-0.980636	0.189344	-0.247416	4.13	-1.89	41.16	0.4682	-0.0252	-0.1965	
-0.971608	0.19093	-0.251076	-1.12	-1.61	42.42	0.4638	-0.033	-0.192	
-0.970998	0.189954	-0.238266	-1.47	-0.49	41.44	0.4696	-0.0377	-0.1968	
-0.94977	0.216916	-0.264008	-8.05	1.19	39.48	0.4566	-0.0595	-0.1876	
-0.977098	0.23302	-0.25498	-6.37	-1.96	38.22	0.4627	-0.0503	-0.2013	
-0.960506	0.244244	-0.253638	-4.62	-3.99	37.1	0.4623	-0.0642	-0.1894	
-0.948794	0.240096	-0.258152	-3.71	-3.99	37.87	0.4571	-0.077	-0.203	
-0.949282	0.23546	-0.24461	0.98	-6.58	36.54	0.4611	-0.0753	-0.1956	
-0.953918	0.244732	-0.237534	2.52	-5.32	33.6	0.4482	-0.0815	-0.1922	
-0.950624	0.26718	-0.236924	5.39	-4.97	31.15	0.4527	-0.1004	-0.1987	
-0.946476	0.296216	-0.23912	2.94	-5.18	28.77	0.451	-0.1002	-0.1896	
-0.920368	0.304268	-0.247416	-1.82	-4.76	25.83	0.4512	-0.105	-0.1942	
-0.897432	0.2806	-0.271816	6.44	-2.24	22.89	0.4444	-0.0973	-0.2059	
-0.931836	0.296826	-0.287676	17.08	-1.12	25.69	0.4471	-0.1082	-0.2001	
-0.926468	0.336354	-0.267424	13.16	-3.64	24.99	0.4428	-0.1114	-0.2016	
-0.911706	0.361242	-0.25864	12.04	-1.19	25.13	0.457	-0.1098	-0.1975	
-0.902556	0.36112	-0.262422	4.69	3.99	23.59	0.4454	-0.1159	-0.1926	
-0.904142	0.36417	-0.25193	1.96	6.23	24.22	0.4451	-0.1267	-0.1822	
-0.90341	0.364048	-0.246562	3.85	6.3	26.11	0.4454	-0.1316	-0.1914	
-0.895724	0.36356	-0.25193	1.19	8.33	28.21	0.4381	-0.122	-0.1849	
-0.903166	0.386496	-0.245586	1.89	8.82	31.36	0.4355	-0.13	-0.1941	
-0.906948	0.393328	-0.244976	-4.41	9.73	30.73	0.4336	-0.1376	-0.1775	
-0.91073	0.394914	-0.24705	-6.72	10.01	29.05	0.4366	-0.1424	-0.1822	
-0.911462	0.435052	-0.245952	-8.61	5.53	28.14	0.4265	-0.1485	-0.1774	
-0.891698	0.462746	-0.24644	-14	6.3	24.85	0.4357	-0.1551	-0.199	
-0.870714	0.471652	-0.24766	-21.42	4.41	22.96	0.4382	-0.1628	-0.1856	
-0.843752	0.43127	-0.245952	-33.88	3.36	19.6	0.4377	-0.1547	-0.1718	
-0.906582	0.427732	-0.256688	-19.67	5.39	17.99	0.4335	-0.1688	-0.1734	
-0.893894	0.44835	-0.278404	-24.36	-0.42	20.79	0.4297	-0.1737	-0.187	
-0.89121	0.48312	-0.246684	-31.22	-5.53	18.97	0.4211	-0.18	-0.1868	
-0.903044	0.465552	-0.253882	-35.91	-6.51	22.68	0.4243	-0.1708	-0.1989	
-0.837408	0.400038	-0.21594	-42.21	-8.82	27.16	0.4198	-0.1691	-0.1896	
-0.881328	0.45872	-0.235582	-12.39	-6.44	28.07	0.4157	-0.1707	-0.1971	
-0.853756	0.485804	-0.233264	-15.47	-3.22	29.05	0.4173	-0.1802	-0.2018	
-0.84546	0.496052	-0.198738	-17.43	-3.57	28.98	0.4202	-0.1834	-0.2035	
-0.818864	0.520574	-0.244	-23.03	0.21	30.24	0.4158	-0.1786	-0.1987	
-0.819596	0.497516	-0.250588	-18.69	-4.27	27.86	0.4071	-0.1832	-0.194	
-0.845216	0.52338	-0.215818	-15.47	-8.89	29.96	0.4044	-0.1911	-0.2	
-0.837774	0.520696	-0.22021	-16.17	-6.65	29.19	0.3975	-0.1943	-0.2074	
-0.831064	0.53497	-0.21106	-17.99	-8.96	26.04	0.3921	-0.2039	-0.2165	
-0.81557	0.543632	-0.218014	-8.19	-8.75	22.54	0.3935	-0.1991	-0.215	
-0.836676	0.562908	-0.206912	0.21	-10.08	20.58	0.402	-0.2038	-0.2123	
-0.813252	0.58194	-0.204106	4.55	-9.17	17.85	0.3961	-0.2084	-0.2061	
-0.79666	0.56364	-0.201178	1.61	-7.7	16.8	0.4004	-0.2163	-0.2064	
-0.779214	0.567544	-0.21228	4.2	-10.99	16.94	0.3863	-0.221	-0.2135	
-0.776774	0.5856	-0.226554	9.94	-10.43	19.88	0.3962	-0.2132	-0.2092	
-0.794586	0.594384	-0.207156	9.94	-8.47	20.79	0.3875	-0.2193	-0.206	
-0.79361	0.583892	-0.188856	10.57	-7.21	20.72	0.3849	-0.2179	-0.215	
-0.790682	0.58865	-0.198982	7.56	-4.9	20.72	0.3849	-0.2351	-0.2107	
-0.773236	0.608658	-0.182756	10.5	-6.58	21.91	0.3806	-0.2241	-0.2134	
-0.758352	0.602436	-0.191052	9.1	-4.27	22.05	0.3823	-0.2336	-0.2197	
-0.753106	0.619028	-0.172508	10.08	-5.95	22.54	0.3735	-0.2398	-0.2134	
-0.76738	0.631106	-0.168604	11.13	-7.14	20.72	0.3707	-0.2461	-0.2149	
-0.765916	0.633668	-0.177022	4.48	-6.09	18.2	0.3794	-0.2446	-0.2182	
-0.756766	0.656604	-0.178608	3.15	-6.37	16.38	0.3764	-0.2367	-0.2135	
-0.754082	0.672708	-0.166896	-0.98	-8.96	15.75	0.3653	-0.2619	-0.2241	
-0.759694	0.654286	-0.144814	-1.05	-9.17	13.23	0.3739	-0.2572	-0.2228	
-0.77165	0.65636	-0.16409	7.42	-9.59	11.13	0.3651	-0.2492	-0.2163	
-0.751032	0.664656	-0.158966	4.41	-8.54	7.14	0.3651	-0.243	-0.2177	
-0.740052	0.655994	-0.170922	7.28	-7.14	5.53	0.3695	-0.2509	-0.221	
-0.740052	0.65819	-0.179462	6.16	-6.93	4.41	0.3624	-0.2633	-0.2195	
-0.746518	0.659166	-0.165554	4.13	-6.72	2.59	0.3622	-0.2617	-0.2149	
-0.743468	0.662704	-0.176046	1.61	-5.39	0.91	0.3628	-0.2432	-0.2343	
-0.740418	0.66978	-0.175192	-1.05	-5.6	-0.21	0.3624	-0.2571	-0.2224	
-0.737246	0.667584	-0.166164	-2.1	-5.6	-1.4	0.3567	-0.2618	-0.2223	
-0.740052	0.667218	-0.167384	-0.07	-4.97	-2.66	0.3695	-0.2477	-0.2225	
-0.742614	0.66795	-0.165188	-0.91	-5.11	-3.43	0.3597	-0.2603	-0.2254	
-0.742248	0.662216	-0.165188	-1.82	-3.78	-5.04	0.3568	-0.2509	-0.2267	
-0.751032	0.659044	-0.15982	-1.26	-2.94	-7.21	0.3622	-0.2554	-0.2148	
-0.750178	0.657946	-0.15433	-3.36	-2.03	-9.24	0.3708	-0.2555	-0.2151	
-0.739442	0.641354	-0.15372	-2.87	-0.14	-10.85	0.3567	-0.243	-0.222	
-0.741028	0.633546	-0.15372	-1.61	0.7	-12.74	0.3696	-0.2431	-0.2255	
-0.750178	0.625982	-0.152866	1.96	2.24	-15.12	0.3736	-0.2508	-0.2151	
-0.764574	0.61976	-0.142984	2.94	2.52	-17.78	0.3796	-0.2478	-0.2243	
-0.771528	0.607926	-0.142618	5.88	5.18	-20.3	0.3679	-0.2445	-0.2163	
-0.759328	0.605486	-0.159576	7.42	10.99	-22.33	0.3765	-0.2477	-0.2151	
-0.774212	0.609634	-0.157502	0.42	12.88	-22.4	0.3695	-0.2336	-0.2208	
-0.78812	0.602436	-0.158722	0.63	12.88	-24.01	0.3737	-0.2383	-0.2195	
-0.796904	0.59109	-0.162382	8.19	11.41	-25.2	0.3851	-0.2321	-0.2182	
-0.813618	0.577426	-0.174338	8.75	9.8	-25.83	0.3851	-0.2399	-0.2168	
-0.83204	0.57584	-0.183976	9.1	7	-26.39	0.3978	-0.2179	-0.2139	
-0.814716	0.556564	-0.184342	13.51	6.09	-28	0.3892	-0.2132	-0.2135	
-0.8235	0.5551	-0.195688	17.92	4.13	-28.28	0.3964	-0.2133	-0.2168	
-0.821792	0.546926	-0.198616	17.08	3.57	-28.91	0.3932	-0.2131	-0.2061	
-0.817766	0.55693	-0.205814	18.34	3.29	-27.02	0.4077	-0.2132	-0.2111	
-0.816546	0.549122	-0.204838	13.09	3.08	-24.01	0.3987	-0.2083	-0.1986	
-0.81923	0.542778	-0.206058	11.9	4.48	-22.12	0.4002	-0.1974	-0.2	
-0.811666	0.532896	-0.22021	8.68	7.56	-20.72	0.4044	-0.1911	-0.1985	
-0.834968	0.537776	-0.227652	6.51	9.73	-19.67	0.4031	-0.1974	-0.2046	
-0.839482	0.529602	-0.207888	0.84	7.77	-18.41	0.4132	-0.2006	-0.2065	
-0.846436	0.52399	-0.222772	-2.31	10.36	-19.32	0.4047	-0.1991	-0.2077	
-0.838384	0.514962	-0.225822	-5.39	11.2	-20.58	0.4174	-0.1912	-0.2035	
-0.837164	0.495808	-0.227408	-5.81	8.68	-22.19	0.4129	-0.1895	-0.1958	
-0.85888	0.478728	-0.226188	6.09	8.82	-24.29	0.4173	-0.1849	-0.2004	
-0.860344	0.47153	-0.214232	9.45	6.51	-27.16	0.4201	-0.188	-0.2005	
-0.862662	0.460184	-0.211304	10.15	7.77	-30.8	0.4214	-0.1707	-0.1957	
-0.867542	0.457988	-0.22143	12.6	9.52	-32.55	0.4272	-0.1614	-0.2003	
-0.86986	0.45262	-0.225578	13.23	8.19	-32.9	0.4214	-0.1676	-0.1957	
-0.88206	0.440664	-0.22936	17.15	6.58	-32.34	0.4286	-0.1677	-0.2005	
-0.872788	0.431514	-0.244732	22.26	3.15	-29.75	0.4283	-0.1597	-0.1913	
-0.880718	0.423096	-0.241194	20.86	1.05	-28.14	0.4299	-0.1566	-0.1943	
-0.889868	0.41114	-0.244854	19.25	3.92	-27.93	0.4409	-0.1487	-0.1839	
-0.89548	0.39894	-0.255956	17.64	5.81	-27.58	0.4379	-0.1423	-0.1792	
-0.903654	0.384422	-0.253028	13.79	6.3	-28.42	0.4452	-0.1408	-0.1824	
-0.906704	0.352214	-0.275964	6.44	9.87	-30.38	0.4465	-0.1283	-0.1808	
-0.9333	0.331596	-0.273158	4.62	11.48	-31.57	0.4418	-0.1264	-0.1655	
-0.937936	0.330742	-0.278404	3.43	11.27	-32.9	0.4488	-0.1217	-0.1641	
-0.947086	0.299388	-0.282552	-2.66	11.48	-33.74	0.4523	-0.1174	-0.1838	
-0.942572	0.264984	-0.28609	-3.5	10.71	-33.88	0.4446	-0.1092	-0.1668	
-0.927932	0.250832	-0.296338	-2.45	11.76	-36.05	0.4521	-0.1142	-0.1792	
-0.946964	0.255468	-0.29646	-3.36	10.15	-37.66	0.4578	-0.1016	-0.1792	
-0.948672	0.245952	-0.285114	-2.17	6.86	-39.27	0.4503	-0.0968	-0.1683	
-0.94306	0.243512	-0.289628	1.4	7	-40.6	0.4547	-0.0953	-0.1714	
-0.948916	0.328302	-0.274622	4.55	6.44	-39.83	0.4618	-0.0671	-0.1712	
-0.928054	0.20496	-0.270352	-22.19	13.79	-42.49	0.4602	-0.0763	-0.1638	
-0.944036	0.254858	-0.28487	2.31	18.97	-41.65	0.466	-0.067	-0.1683	
-0.932446	0.280478	-0.324642	-1.82	16.52	-44.03	0.462	-0.0765	-0.1759	
-0.931836	0.264618	-0.31415	-7.91	11.97	-45.43	0.4687	-0.056	-0.1637	
-0.937326	0.255956	-0.305	-4.62	10.08	-44.94	0.47	-0.0497	-0.1606	
-0.941596	0.23302	-0.303414	-4.83	11.48	-43.26	0.4713	-0.0418	-0.156	
-0.955016	0.212524	-0.315492	-7.63	12.95	-41.44	0.4671	-0.0356	-0.1619	
-0.9699	0.180804	-0.314028	-1.61	11.27	-40.88	0.4716	-0.0295	-0.1695	
-0.947086	0.16714	-0.331596	-3.01	6.23	-41.58	0.4683	-0.0214	-0.1556	
-0.938546	0.155428	-0.341478	-3.15	3.99	-42.98	0.4757	-0.0184	-0.1619	
-0.930494	0.149816	-0.3477	3.5	-0.42	-42.91	0.4712	-0.0058	-0.1555	
-0.94062	0.159332	-0.355752	5.95	-4.97	-43.05	0.4842	-0.0044	-0.1634	
-0.95465	0.140422	-0.340258	7.14	-12.25	-45.85	0.4727	0.005	-0.1599	
-0.960506	0.110898	-0.327204	5.95	-11.9	-48.86	0.4714	0.0128	-0.1658	
-0.969412	0.06771	-0.33367	2.66	-9.24	-51.8	0.48	0.0331	-0.1673	
-0.960018	0.05612	-0.334158	-3.08	-16.8	-56.77	0.4785	0.0331	-0.1657	
-0.984784	0.027572	-0.334768	-2.59	-7.56	-55.65	0.4772	0.0487	-0.1715	
-0.965752	0.021228	-0.330864	0.21	-15.26	-55.02	0.4786	0.0534	-0.1714	
-0.958066	0.024766	-0.340624	4.97	-18.06	-51.94	0.4631	0.0736	-0.1782	
-0.993568	-0.014884	-0.334646	-0.56	-18.62	-50.05	0.4743	0.0768	-0.1725	
-0.996374	-0.050142	-0.293532	5.6	-25.34	-47.95	0.4716	0.0831	-0.1753	
-0.974536	-0.08174	-0.296704	9.59	-24.64	-46.2	0.4674	0.0862	-0.1781	
-0.98637	-0.109068	-0.276818	6.02	-23.52	-40.95	0.4704	0.0923	-0.1842	
-1.002474	-0.112484	-0.26413	13.65	-24.43	-38.92	0.4605	0.0939	-0.1884	
-0.994666	-0.134932	-0.238632	14.49	-27.51	-37.03	0.4662	0.1032	-0.19	
-0.965752	-0.150426	-0.204228	13.51	-31.99	-35.28	0.4579	0.1094	-0.1987	
-0.971486	-0.158112	-0.190442	4.62	-30.66	-33.6	0.468	0.1249	-0.2033	
-0.956236	-0.173728	-0.222406	-3.29	-26.46	-33.25	0.4627	0.1279	-0.2152	
-0.975634	-0.215208	-0.221064	-6.37	-20.09	-31.08	0.4612	0.1232	-0.2137	
-1.000644	-0.21411	-0.144448	8.96	-26.67	-28.21	0.4524	0.1327	-0.2072	
-0.97783	-0.221918	-0.147742	1.82	-23.45	-28.56	0.4556	0.1404	-0.2178	
-0.98149	-0.218502	-0.188856	-0.28	-18.76	-27.65	0.4515	0.1418	-0.2252	
-0.952698	-0.247416	-0.205692	5.04	-24.08	-28.49	0.4515	0.1434	-0.2252	
-0.968436	-0.244488	-0.160308	18.41	-23.03	-25.83	0.4431	0.1605	-0.2322	
-0.978318	-0.23546	-0.163724	10.29	-21.28	-25.62	0.4475	0.1636	-0.2338	
-0.950258	-0.22021	-0.171044	12.25	-18.62	-25.62	0.4475	0.1714	-0.2352	
-0.946598	-0.248758	-0.166774	8.82	-16.31	-24.36	0.4303	0.1731	-0.2331	
-0.9455	-0.254004	-0.146522	7.84	-14.35	-23.52	0.439	0.1698	-0.2395	
-0.956724	-0.249856	-0.136274	4.69	-11.62	-22.26	0.4365	0.179	-0.2514	
-0.967582	-0.255468	-0.130418	2.03	-8.75	-21.63	0.4321	0.1698	-0.2453	
-0.963678	-0.269132	-0.13908	-0.56	-6.79	-21.42	0.4279	0.1728	-0.2497	
-0.972584	-0.291824	-0.12444	0.07	-7.49	-20.3	0.428	0.1837	-0.2541	
-0.967704	-0.300242	-0.122854	-2.87	-8.68	-19.18	0.4292	0.1901	-0.2464	
-0.967948	-0.30073	-0.122366	-2.59	-8.89	-18.41	0.4235	0.1917	-0.2477	
-0.9699	-0.307562	-0.108336	-1.89	-9.03	-17.01	0.4225	0.1868	-0.2584	
-0.955382	-0.317932	-0.105042	-0.98	-7.49	-15.4	0.4225	0.1852	-0.2584	
-0.927566	-0.290726	-0.13298	-18.62	-0.84	-15.26	0.4222	0.1932	-0.2492	
-0.94123	-0.29951	-0.14884	-28.77	7.91	-15.54	0.4278	0.1964	-0.2463	
-0.9638	-0.316712	-0.11895	-1.12	6.93	-12.04	0.4181	0.1962	-0.2566	
-0.958554	-0.30988	-0.10919	-14.98	11.83	-10.64	0.4279	0.2041	-0.2522	
-0.945866	-0.324032	-0.150426	-17.08	10.64	-10.43	0.4164	0.1979	-0.2474	
-0.943426	-0.324886	-0.118096	-7.91	6.93	-7.21	0.4274	0.2075	-0.2355	
-0.949892	-0.331474	-0.124562	-12.81	5.74	-3.99	0.429	0.2121	-0.24	
-0.954772	-0.343796	-0.11834	-13.93	4.62	-1.19	0.4276	0.2074	-0.2416	
-0.945988	-0.362584	-0.116022	-17.85	4.9	1.33	0.4245	0.2154	-0.2338	
-0.940986	-0.367708	-0.128832	-17.92	3.57	3.57	0.4345	0.2138	-0.2326	
-0.945378	-0.370392	-0.136274	-11.76	2.38	6.44	0.4298	0.214	-0.2219	
-0.937204	-0.375028	-0.1281	-8.96	1.75	8.19	0.4261	0.2231	-0.2398	
-0.939034	-0.36417	-0.134688	-8.75	2.52	9.73	0.4315	0.2139	-0.228	
-0.94733	-0.351116	-0.143594	-7.07	4.2	11.41	0.4329	0.2076	-0.2281	
-0.918538	-0.370636	-0.151768	-7.42	3.92	13.09	0.4344	0.2123	-0.2311	
-0.932568	-0.353922	-0.156892	-0.21	6.3	16.73	0.4347	0.209	-0.2418	
-0.92476	-0.346968	-0.167384	-1.75	4.27	20.86	0.4288	0.206	-0.2341	
-0.94123	-0.33855	-0.167994	0.56	5.74	24.5	0.433	0.1997	-0.2313	
-0.947086	-0.32086	-0.194834	-1.33	6.23	29.54	0.4272	0.1951	-0.2281	
-0.965996	-0.29768	-0.190076	5.25	4.97	34.02	0.4331	0.1872	-0.2315	
-0.963556	-0.282796	-0.19032	2.45	6.72	36.05	0.4329	0.1842	-0.2255	
-0.964532	-0.266448	-0.192272	4.48	6.86	36.89	0.4414	0.1904	-0.2241	
-0.96441	-0.262788	-0.185562	2.73	7.42	36.82	0.4342	0.1732	-0.2226	
-0.954894	-0.244854	-0.199104	1.68	6.09	37.59	0.4484	0.1717	-0.2201	
-0.956236	-0.232288	-0.192638	0.91	5.67	40.39	0.4459	0.1574	-0.2293	
-0.96563	-0.21228	-0.198738	1.89	8.54	44.31	0.457	0.156	-0.2176	
-0.970876	-0.198616	-0.196176	5.81	8.54	47.81	0.4501	0.145	-0.2251	
-0.960506	-0.180804	-0.195078	6.44	8.19	49.98	0.453	0.1418	-0.2283	
-0.969168	-0.164212	-0.203984	8.26	10.57	52.71	0.4544	0.1325	-0.2239	
-0.9699	-0.16287	-0.199836	9.17	10.29	54.67	0.4655	0.1263	-0.2153	
-0.967094	-0.150548	-0.193614	10.92	11.41	57.33	0.4511	0.1154	-0.2105	
-0.954284	-0.126392	-0.231434	8.33	15.33	59.15	0.4584	0.095	-0.2125	
-0.971486	-0.108702	-0.228872	12.11	14.77	58.17	0.4612	0.095	-0.2126	
-0.97295	-0.076982	-0.213256	16.73	10.01	56.77	0.4598	0.0935	-0.2126	
-0.983442	-0.024156	-0.219722	15.96	14.28	54.81	0.4597	0.0841	-0.2082	
-0.999546	0.00915	-0.235948	13.09	17.08	51.73	0.464	0.0716	-0.207	
-1.00162	0.055876	-0.2379	19.11	18.13	49.7	0.4751	0.0639	-0.1969	
-0.999912	0.089182	-0.269254	17.71	15.4	46.62	0.4721	0.0421	-0.1911	
-1.001254	0.111386	-0.279136	22.26	13.79	44.24	0.4666	0.0373	-0.197	
-1.00894	0.132126	-0.260104	21.7	5.88	41.93	0.4678	0.0359	-0.188	
-0.989298	0.144204	-0.233996	16.73	1.26	39.27	0.4705	0.0328	-0.1851	
-0.99369	0.15982	-0.22509	15.89	9.38	36.68	0.4681	0.0326	-0.1987	
-0.96319	0.152134	-0.273158	3.99	12.6	36.89	0.4677	0.0125	-0.1823	
-0.973926	0.157624	-0.246684	4.83	11.55	39.62	0.4735	0.0108	-0.1871	
-0.981002	0.167628	-0.215818	-2.59	7.28	38.57	0.4663	-0.0046	-0.1825	
-0.972828	0.18605	-0.238022	-9.87	5.18	35.63	0.4663	-0.0109	-0.1826	
-0.953796	0.19337	-0.267424	-0.84	9.8	38.01	0.475	-0.0172	-0.186	
-0.9394	0.190686	-0.28426	-10.29	9.94	38.78	0.4679	-0.0204	-0.1874	
-0.982344	0.176656	-0.246074	-12.39	7.56	37.38	0.4692	-0.025	-0.1829	
-0.985394	0.160674	-0.237046	-10.22	4.76	37.03	0.4633	-0.0311	-0.1753	
-0.99674	0.15616	-0.243024	-12.04	4.9	36.96	0.465	-0.0375	-0.1845	
-0.976976	0.16958	-0.251564	-16.52	3.22	35.49	0.4633	-0.039	-0.1769	
-0.97173	0.181048	-0.25498	-13.23	1.54	33.53	0.4634	-0.0437	-0.18	
-0.968558	0.210206	-0.24949	-9.24	-1.33	33.25	0.4621	-0.0563	-0.1817	
-0.965142	0.223138	-0.247782	-9.66	-3.99	35.21	0.4605	-0.0531	-0.177	
-0.970754	0.233752	-0.244122	-7.98	-7.21	38.92	0.4537	-0.0658	-0.1876	
-0.953796	0.238144	-0.243512	-5.81	-9.59	42.49	0.4561	-0.0608	-0.174	
-0.970388	0.264618	-0.238632	-1.89	-14.35	47.11	0.4551	-0.0673	-0.1862	
-0.947818	0.2684	-0.23119	-4.97	-15.4	49.7	0.4565	-0.07669999	-0.1833	
-0.945622	0.223138	-0.231434	5.81	-2.03	45.22	0.4551	-0.0939	-0.1835	
-0.948428	0.235094	-0.27511	16.8	-3.43	46.97	0.4466	-0.0986	-0.1849	
-0.958798	0.350994	-0.25254	-0.84	-8.19	37.17	0.4496	-0.1081	-0.1896	
-0.911096	0.363438	-0.254248	0.49	-5.81	32.41	0.4395	-0.1158	-0.1849	
-0.895724	0.370392	-0.263642	-6.93	-1.33	25.27	0.4466	-0.1205	-0.1852	
-0.897676	0.38918	-0.234484	-0.7	-7	23.31	0.441	-0.1284	-0.1882	
-0.884622	0.38552	-0.2379	1.26	-4.83	21.63	0.4439	-0.1315	-0.1883	
-0.891698	0.391742	-0.23729	1.96	-3.43	23.59	0.4439	-0.1346	-0.1883	
-0.89914	0.410774	-0.230092	2.94	-3.29	24.15	0.4396	-0.1284	-0.1881	
-0.88816	0.423218	-0.229482	-0.35	-2.94	24.08	0.4368	-0.1409	-0.1882	
-0.908168	0.429684	-0.218502	-4.62	-2.73	21.42	0.4227	-0.1503	-0.194	
-0.911584	0.44957	-0.213256	-7.98	-2.24	20.23	0.434	-0.144	-0.1897	
-0.891088	0.467138	-0.21289	-13.44	-3.01	20.93	0.4312	-0.1597	-0.1898	
-0.861686	0.480558	-0.256078	-24.5	0	21.35	0.4298	-0.1519	-0.1942	
-0.868884	0.40931	-0.221552	-25.76	-1.4	23.31	0.4331	-0.16	-0.2081	
-0.894138	0.421144	-0.218014	-7.49	-1.75	27.3	0.4215	-0.1676	-0.1987	
-0.893528	0.440786	-0.20191	-9.45	-1.82	25.97	0.4228	-0.166	-0.1957	
-0.890112	0.44469	-0.196176	-11.62	-3.15	23.24	0.4191	-0.1664	-0.2168	
-0.87291	0.400892	-0.204106	-22.54	-5.46	20.65	0.426	-0.1693	-0.2065	
-0.900482	0.440908	-0.202398	-10.57	-8.33	22.96	0.4272	-0.1755	-0.2005	
-0.870958	0.456158	-0.215452	-14.7	-8.89	24.15	0.4217	-0.1725	-0.2064	
-0.88938	0.478972	-0.214598	-11.9	-7.63	23.8	0.4174	-0.1787	-0.2048	
-0.875716	0.542046	-0.197518	-9.59	-8.61	27.16	0.4136	-0.1852	-0.2199	
-0.835578	0.503006	-0.19764	-25.69	-11.62	25.9	0.4165	-0.1836	-0.2215	
-0.852048	0.526064	-0.195322	-8.12	-12.39	26.6	0.4208	-0.1915	-0.2233	
-0.855952	0.534482	-0.193858	-8.4	-14.07	26.25	0.4067	-0.19	-0.2273	
-0.83692	0.543998	-0.167018	-6.37	-14	24.85	0.4027	-0.1886	-0.2393	
-0.834724	0.539972	-0.177266	-4.62	-12.67	23.94	0.3953	-0.2009	-0.2271	
-0.823744	0.569984	-0.169336	0.84	-15.96	24.43	0.4039	-0.1916	-0.2303	
-0.808616	0.557784	-0.162016	-1.75	-13.86	24.78	0.3981	-0.2072	-0.2258	
-0.826428	0.572912	-0.173972	6.23	-11.62	24.36	0.3924	-0.2149	-0.2242	
-0.800076	0.575718	-0.152134	3.43	-14.42	23.52	0.3857	-0.2105	-0.2406	
-0.795562	0.577548	-0.149084	3.43	-12.25	22.75	0.3869	-0.2088	-0.2315	
-0.795196	0.588528	-0.156526	9.38	-11.76	23.94	0.3869	-0.2151	-0.2331	
-0.795196	0.584136	-0.147132	3.92	-9.59	23.66	0.3857	-0.2261	-0.2393	
-0.792146	0.59963	-0.144936	4.2	-9.45	23.73	0.3756	-0.2292	-0.2345	
-0.777506	0.60207	-0.144082	2.59	-10.71	24.36	0.384	-0.2291	-0.2302	
-0.79666	0.59231	-0.149328	9.17	-8.19	22.82	0.3726	-0.2291	-0.2314	
-0.796172	0.612684	-0.138226	10.99	-9.45	21.63	0.3685	-0.2464	-0.2345	
-0.780556	0.619272	-0.131638	8.4	-7.84	19.32	0.3715	-0.2402	-0.2406	
-0.769332	0.608658	-0.14152	10.29	-7.7	18.97	0.3668	-0.24	-0.2253	
-0.77348	0.60878	-0.141154	11.97	-8.26	18.62	0.3741	-0.2338	-0.2315	
-0.78385	0.626348	-0.131028	13.09	-11.06	18.97	0.3608	-0.2508	-0.2177	
-0.771162	0.621102	-0.150426	9.1	-9.73	17.5	0.3687	-0.2465	-0.2421	
-0.772138	0.649162	-0.150304	9.17	-10.15	17.08	0.3611	-0.2431	-0.2267	
-0.775676	0.657946	-0.122732	3.22	-9.73	15.96	0.3554	-0.2509	-0.2251	
-0.75884	0.660508	-0.12688	4.06	-7.14	13.72	0.3529	-0.2464	-0.2401	
-0.750666	0.664534	-0.146522	1.54	-4.69	12.18	0.357	-0.2541	-0.2328	
-0.741028	0.666242	-0.140056	0.14	-4.13	11.55	0.3571	-0.2589	-0.2344	
-0.743224	0.666608	-0.12749	1.12	-2.66	9.38	0.3516	-0.2684	-0.2419	
-0.742736	0.65392	-0.127612	1.75	-2.59	6.72	0.3514	-0.2636	-0.2358	
-0.7442	0.653188	-0.128222	0.07	-0.28	4.76	0.3595	-0.2712	-0.2195	
-0.734196	0.649284	-0.139934	-0.7	0.07	3.71	0.3457	-0.2604	-0.2371	
-0.739564	0.662338	-0.12627	1.75	-1.33	3.5	0.3586	-0.2715	-0.2376	
-0.745542	0.673684	-0.122488	1.05	-1.96	2.8	0.353	-0.2621	-0.2419	
-0.748348	0.685518	-0.122732	0.98	-1.33	1.26	0.3343	-0.2776	-0.2354	
-0.745176	0.673074	-0.125416	1.89	-1.75	-0.07	0.3557	-0.2651	-0.2344	
-0.744566	0.675392	-0.13298	5.74	-3.71	-0.49	0.3386	-0.2667	-0.2369	
-0.747006	0.674538	-0.13176	5.88	-4.27	-1.96	0.3485	-0.262	-0.2341	
-0.747616	0.672708	-0.1342	5.67	-3.71	-4.13	0.3486	-0.2698	-0.2358	
-0.737002	0.672586	-0.139324	3.78	-2.38	-6.44	0.3389	-0.2653	-0.246	
-0.734928	0.676246	-0.139202	3.92	-0.98	-8.4	0.3396	-0.2712	-0.2234	
-0.732488	0.67893	-0.133346	2.24	-0.35	-10.43	0.3426	-0.2603	-0.2264	
-0.732854	0.677832	-0.13054	0.7	0.35	-12.6	0.3516	-0.2637	-0.2418	
-0.73383	0.67283	-0.131516	1.12	2.66	-15.19	0.3484	-0.2603	-0.2296	
-0.735904	0.66856	-0.13298	2.03	3.15	-17.22	0.3599	-0.2604	-0.2345	
-0.739686	0.655872	-0.126392	3.43	3.64	-19.39	0.3511	-0.2572	-0.2266	
-0.748348	0.65758	-0.125904	4.9	4.41	-21.07	0.3598	-0.2525	-0.2298	
-0.751764	0.648918	-0.12932	4.48	4.83	-22.47	0.3501	-0.248	-0.2415	
-0.752618	0.641598	-0.122976	1.61	5.88	-23.94	0.3643	-0.2526	-0.236	
-0.75335	0.6283	-0.121024	2.17	6.58	-25.76	0.3702	-0.2528	-0.2438	
-0.753106	0.621346	-0.115534	2.59	7.63	-27.44	0.3709	-0.2415	-0.2209	
-0.76799	0.608048	-0.12017	3.99	7.63	-28.84	0.3725	-0.2415	-0.2255	
-0.784094	0.596946	-0.13542	6.58	8.4	-29.26	0.3795	-0.2368	-0.2211	
-0.798856	0.58194	-0.132004	8.19	7.77	-30.17	0.3867	-0.2259	-0.2242	
-0.81191	0.566446	-0.155184	10.5	9.24	-30.52	0.3709	-0.2305	-0.2223	
-0.818254	0.560468	-0.152622	11.48	8.4	-31.22	0.3808	-0.2164	-0.2193	
-0.828746	0.543144	-0.153842	12.18	7.84	-31.85	0.3966	-0.2227	-0.2215	
-0.84058	0.518378	-0.155794	13.72	6.79	-32.76	0.3952	-0.2103	-0.2243	
-0.840214	0.505812	-0.179828	18.06	7.42	-33.74	0.3938	-0.2118	-0.2242	
-0.85034	0.505568	-0.19825	19.18	6.09	-33.88	0.3978	-0.2117	-0.2153	
-0.85339	0.505202	-0.2013	16.59	6.09	-34.44	0.3962	-0.2007	-0.212	
-0.85278	0.492514	-0.195932	14.49	6.16	-35.35	0.3992	-0.196	-0.2151	
-0.848388	0.473604	-0.217526	12.81	8.61	-36.54	0.4005	-0.1913	-0.2135	
-0.873398	0.47214	-0.211548	12.53	11.62	-36.96	0.4089	-0.1802	-0.2061	
-0.875106	0.453962	-0.20862	9.1	12.25	-36.4	0.4116	-0.1818	-0.2032	
-0.895358	0.452254	-0.218624	10.01	13.09	-34.58	0.4044	-0.1802	-0.2014	
-0.903654	0.431514	-0.228384	8.75	11.76	-29.82	0.4115	-0.1786	-0.2001	
-0.910364	0.412238	-0.228384	8.26	9.38	-27.37	0.4228	-0.1707	-0.1958	
-0.913414	0.394792	-0.244976	4.69	11.27	-27.02	0.4229	-0.1536	-0.2016	
-0.921466	0.377956	-0.259128	3.5	8.47	-25.97	0.4244	-0.1755	-0.202	
-0.93147	0.365268	-0.259006	-1.96	8.47	-27.72	0.4258	-0.1552	-0.2032	
-0.918294	0.346358	-0.252784	-6.44	9.38	-29.33	0.4313	-0.1535	-0.1958	
-0.920612	0.35319	-0.234118	-2.24	8.89	-31.22	0.4315	-0.1505	-0.2003	
-0.930006	0.364536	-0.224114	1.89	10.99	-33.11	0.4356	-0.1426	-0.1973	
-0.924028	0.3538	-0.22631	0	12.46	-34.93	0.4412	-0.1441	-0.1929	
-0.929274	0.33062	-0.2257	-0.84	9.24	-35.14	0.4313	-0.1316	-0.197	
-0.94062	0.30622	-0.250588	-2.38	7.14	-34.09	0.4384	-0.13	-0.1942	
-0.94184	0.301828	-0.267424	3.71	9.17	-32.76	0.4413	-0.1097	-0.1985	
-0.92598	0.304268	-0.279014	0.42	4.62	-31.15	0.4424	-0.1236	-0.1866	
-0.934398	0.317566	-0.259128	3.71	1.26	-29.89	0.4468	-0.1128	-0.1926	
-0.936594	0.313296	-0.248148	0.84	2.87	-29.33	0.4526	-0.1097	-0.1943	
-0.947086	0.303414	-0.245342	-0.49	5.46	-27.93	0.4523	-0.097	-0.1865	
-0.939522	0.281088	-0.248392	-4.76	5.46	-26.88	0.451	-0.1065	-0.1881	
-0.958676	0.276696	-0.250466	-4.69	8.61	-26.67	0.4624	-0.09869999	-0.1884	
-0.9455	0.23058	-0.249856	-13.72	6.23	-24.92	0.4479	-0.0954	-0.1818	
-0.941352	0.255102	-0.27206	-5.25	6.3	-24.01	0.4566	-0.0924	-0.1866	
-0.940254	0.243512	-0.270474	-7.7	8.05	-28.21	0.4498	-0.0894	-0.1969	
-0.969778	0.265106	-0.232532	-7.91	3.71	-32.9	0.4565	-0.0814	-0.1834	
-0.941108	0.24827	-0.239974	-16.24	8.05	-35	0.4667	-0.0674	-0.1926	
-0.958432	0.232898	-0.244244	-14.28	7.14	-37.1	0.4709	-0.0611	-0.1881	
-0.965874	0.223992	-0.236802	-4.48	6.09	-39.41	0.455	-0.0453	-0.1843	
-0.956602	0.24278	-0.259006	-4.2	8.96	-41.65	0.4665	-0.0392	-0.1891	
-0.973804	0.224114	-0.259738	-6.86	8.47	-45.71	0.4619	-0.0405	-0.1754	
-0.959286	0.218136	-0.255102	-3.08	3.01	-47.74	0.4652	-0.022	-0.1934	
-0.962946	0.20801	-0.256932	-8.12	0.35	-49	0.4692	-0.0282	-0.1845	
-0.97234	0.16897	-0.269132	-17.5	3.85	-48.51	0.4678	-0.0235	-0.1844	
-0.976488	0.162138	-0.29646	-15.89	3.64	-48.37	0.4763	-0.0047	-0.1829	
-0.99491	0.16592	-0.27328	-7.35	-8.61	-51.87	0.4735	0.0077	-0.1856	
-0.9943	0.138348	-0.245098	-10.43	-10.08	-55.93	0.466	0.0126	-0.1762	
-0.995764	0.096624	-0.253516	-24.78	-4.83	-60.27	0.481	0.0169	-0.1993	
-0.967582	0.050996	-0.287066	-34.23	-4.69	-64.19	0.468	0.0358	-0.1956	
-0.962702	0.016592	-0.31598	-31.85	-3.85	-60.2	0.4607	0.0452	-0.1922	
-0.996374	-0.010736	-0.305854	-19.53	-10.08	-59.29	0.468	0.0514	-0.1953	
-0.993446	0.01952	-0.274012	-12.81	-15.68	-56.56	0.4765	0.0577	-0.194	
-0.990884	0.02196	-0.264496	-8.12	-12.04	-47.67	0.4752	0.0654	-0.1999	
-0.994178	-0.00305	-0.282308	-4.83	-12.11	-45.36	0.4609	0.08109999	-0.2007	
-1.019554	-0.04209	-0.203618	15.96	-35.35	-43.05	0.4681	0.09519999	-0.2038	
-0.973438	-0.076616	-0.20069	10.92	-36.05	-45.08	0.4582	0.09519999	-0.2049	
-0.957212	-0.132248	-0.226188	3.92	-28.91	-44.73	0.464	0.0997	-0.2111	
-0.999302	-0.124806	-0.208864	9.24	-40.18	-45.08	0.4585	0.1075	-0.2184	
-0.986858	-0.121146	-0.171166	20.44	-47.81	-48.37	0.4487	0.1215	-0.2239	
-0.981734	-0.138348	-0.144204	17.15	-44.66	-50.26	0.4516	0.1246	-0.2255	
-0.989176	-0.171044	-0.120292	14.07	-35.28	-49	0.4463	0.1338	-0.2418	
-0.99857	-0.211792	-0.095648	2.66	-32.55	-52.22	0.4506	0.14	-0.2403	
-0.962946	-0.22997	-0.104798	-1.54	-31.78	-55.09	0.4452	0.1524	-0.2521	
-0.989908	-0.244122	-0.122366	-4.83	-31.99	-53.34	0.4379	0.1556	-0.2472	
-0.996496	-0.252662	-0.11468	2.03	-35.49	-51.87	0.4326	0.171	-0.2635	
-0.95282	-0.222162	-0.122122	13.44	-41.3	-47.32	0.4356	0.1631	-0.2667	
-0.980514	-0.233386	-0.12505	9.94	-33.11	-38.5	0.4256	0.1851	-0.2691	
-1.00589	-0.252784	-0.080154	21.91	-37.52	-33.81	0.4214	0.1803	-0.2705	
-0.970754	-0.268522	-0.056852	17.5	-34.09	-32.41	0.422	0.1894	-0.2916	
-0.960018	-0.281088	-0.04575	12.25	-28.84	-30.03	0.4047	0.2005	-0.2848	
-0.924272	-0.276086	-0.054778	7.77	-25.76	-31.01	0.4061	0.1864	-0.2851	
-0.933056	-0.28609	-0.016592	6.51	-21.63	-32.06	0.4065	0.2019	-0.297	
-0.931592	-0.296704	0.00366	-9.8	-15.19	-33.95	0.3934	0.2036	-0.2905	
-0.956724	-0.33123	0.01586	-17.64	-13.23	-34.3	0.3877	0.2177	-0.2916	
-0.940498	-0.363072	0.01037	-18.83	-10.57	-32.83	0.3951	0.2144	-0.301	
-0.929884	-0.388326	0.008052	-16.73	-11.69	-31.92	0.3907	0.2176	-0.2977	
-0.931592	-0.407236	0.015372	-16.38	-12.88	-30.17	0.3867	0.2206	-0.3051	
-0.934032	-0.414434	0.025254	-9.1	-10.85	-26.74	0.3836	0.2317	-0.2988	
-0.925004	-0.428952	0.038674	-10.99	-13.02	-23.45	0.3794	0.2473	-0.3015	
-0.917928	-0.436394	0.035136	-7.42	-10.36	-19.53	0.3751	0.241	-0.3014	
-0.909022	-0.43798	0.025864	-5.46	-11.69	-15.82	0.3723	0.2473	-0.3027	
-0.920856	-0.45079	0.052826	-5.67	-12.81	-13.72	0.3808	0.2442	-0.3	
-0.914146	-0.44103	0.038552	-7.7	-10.29	-11.62	0.3738	0.2441	-0.3059	
-0.912682	-0.4453	0.044652	-4.41	-9.24	-9.24	0.3781	0.2441	-0.3075	
-0.8906	-0.443714	0.04209	-2.59	-7.98	-7.28	0.3795	0.2488	-0.3075	
-0.889746	-0.45079	0.03721	-3.43	-6.72	-6.16	0.3725	0.2456	-0.3088	
-0.895358	-0.462624	0.051118	-4.76	-5.46	-5.25	0.3693	0.2552	-0.2995	
-0.905606	-0.454938	0.053924	-6.23	-3.64	-3.78	0.3734	0.2521	-0.2936	
-0.906582	-0.453962	0.0549	-4.41	-1.96	-2.45	0.3692	0.2568	-0.2964	
-0.894626	-0.466772	0.045506	-8.4	0.56	-1.68	0.3751	0.2504	-0.3013	
-0.906826	-0.45994	0.047092	-9.66	2.31	0.56	0.3666	0.2598	-0.3039	
-0.905118	-0.454084	0.042334	-10.99	3.22	1.68	0.3648	0.2678	-0.2946	
-0.896578	-0.470432	0.052826	-12.11	4.41	3.99	0.365	0.2661	-0.3007	
-0.889624	-0.463844	0.03111	-13.44	6.65	6.3	0.3664	0.2552	-0.2979	
-0.900848	-0.44469	0.034648	-9.94	8.26	9.24	0.3708	0.2504	-0.3026	
-0.898042	-0.432856	0.041846	-10.5	10.5	11.06	0.3751	0.252	-0.3012	
-0.91195	-0.41663	0.026108	-14.35	15.61	13.23	0.3704	0.2522	-0.289	
-0.920368	-0.414068	0.007198	-14.35	17.99	16.66	0.3763	0.2537	-0.2937	
-0.913658	-0.421266	-0.008052	-14.35	18.34	20.79	0.3705	0.2538	-0.2905	
-0.912438	-0.413214	-0.018788	-14.42	18.34	25.06	0.3743	0.2493	-0.2771	
-0.932324	-0.411628	-0.019154	-15.54	18.48	29.82	0.3903	0.2413	-0.2853	
-0.920246	-0.399306	-0.041236	-15.89	18.97	35.63	0.3888	0.2397	-0.2822	
-0.92476	-0.38491	-0.059536	-13.51	18.69	41.09	0.3929	0.2367	-0.2748	
-0.930372	-0.377712	-0.050996	-8.33	17.78	46.13	0.3971	0.2336	-0.272	
-0.935374	-0.366244	-0.056364	-4.13	19.25	52.01	0.3971	0.2367	-0.2734	
-0.934764	-0.350018	-0.065636	-1.68	19.46	57.12	0.4041	0.2321	-0.2677	
-0.93208	-0.33306	-0.062098	1.82	19.11	61.88	0.4041	0.2086	-0.268	
-0.935008	-0.323666	-0.091378	7.77	25.06	68.88	0.4111	0.2087	-0.2622	
-0.923784	-0.323666	-0.05673	21.63	26.32	76.93	0.4152	0.1947	-0.255	
-0.93513	-0.277306	-0.082228	25.34	30.59	79.45	0.4151	0.1822	-0.2506	
-0.95709	-0.238022	-0.06771	38.15	25.41	81.83	0.4308	0.1697	-0.2513	
-0.984296	-0.195566	-0.0732	43.05	26.39	86.8	0.4294	0.1494	-0.2486	
-1.011136	-0.147986	-0.09857599	39.48	25.27	90.16	0.4349	0.151	-0.2427	
-1.00894	-0.117364	-0.127856	33.95	25.06	91	0.4493	0.1337	-0.2449	
-0.99369	-0.104554	-0.161162	32.2	26.81	89.18	0.4379	0.1071	-0.2435	
-0.989786	-0.055266	-0.174704	35.07	25.9	86.66	0.445	0.0946	-0.2408	
-1.016016	0.018544	-0.178852	39.55	24.01	81.62	0.452	0.0618	-0.234	
-1.000766	0.09821	-0.202276	36.26	24.78	78.54	0.4532	0.0494	-0.2252	
-1.002474	0.1464	-0.210084	33.11	25.97	77.35	0.4575	0.0353	-0.227	
-1.01626	0.175436	-0.21167	27.72	25.06	76.16	0.4588	0.0307	-0.2226	
-0.998204	0.170434	-0.218258	18.76	28.28	73.01	0.4616	0.0151	-0.2184	
-0.9821	0.18727	-0.221796	19.74	24.71	69.72	0.4558	0.0073	-0.2138	
-0.97051	0.2013	-0.229116	17.08	23.45	66.36	0.4598	0.0059	-0.2049	
-0.940498	0.206546	-0.262666	16.94	23.66	64.47	0.4555	-0.0253	-0.2022	
-0.95343	0.228384	-0.265594	13.79	21.49	60.97	0.4696	-0.0315	-0.1967	
-0.94794	0.244488	-0.28731	10.92	20.58	56.77	0.4654	-0.044	-0.1967	
-0.939888	0.262788	-0.302682	9.94	21.63	49	0.4607	-0.0391	-0.1844	
-0.935862	0.284992	-0.30927	6.16	21.49	43.54	0.4552	-0.0517	-0.1889	
-0.933544	0.283406	-0.307684	-1.47	24.15	39.48	0.4604	-0.0577	-0.1741	
-0.944524	0.293532	-0.313662	-1.4	26.32	35.7	0.4592	-0.0703	-0.1788	
-0.94794	0.30805	-0.32086	-5.81	24.15	32.55	0.4635	-0.0782	-0.179	
-0.94855	0.315614	-0.326716	-9.24	21.21	31.22	0.4591	-0.0859	-0.1745	
-0.936106	0.279258	-0.332328	-12.53	16.8	33.25	0.4521	-0.0891	-0.1803	
-0.94733	0.297436	-0.331108	-15.19	10.01	33.95	0.4647	-0.0953	-0.1718	
-0.941596	0.306708	-0.323666	-29.61	4.06	34.3	0.4506	-0.0906	-0.1773	
-0.94855	0.30012	-0.292434	-25.34	-0.84	36.05	0.4562	-0.0953	-0.173	
-0.947208	0.31903	-0.293288	-18.76	-0.56	36.26	0.4519	-0.1062	-0.1715	
-0.939888	0.349164	-0.290482	-19.04	-3.36	37.24	0.4461	-0.1108	-0.1669	
-0.91988	0.341844	-0.280844	-20.02	-7.49	40.11	0.4478	-0.1235	-0.1762	
-0.891454	0.360022	-0.285114	-16.03	-9.59	44.94	0.4462	-0.1219	-0.1716	
-0.915122	0.344406	-0.280844	-12.39	-16.31	48.86	0.4366	-0.133	-0.182	
-0.881206	0.349042	-0.253516	-6.44	-17.78	48.37	0.4396	-0.144	-0.1884	
-0.918172	0.366976	-0.269864	1.26	-12.04	44.87	0.4383	-0.1487	-0.1899	
-0.915366	0.391254	-0.264008	-0.42	-13.23	42.7	0.4269	-0.1534	-0.1911	
-0.897066	0.431148	-0.251808	-5.53	-14.91	36.96	0.4213	-0.1707	-0.1942	
-0.878644	0.464454	-0.245952	-1.54	-17.01	33.67	0.4258	-0.1708	-0.1989	
-0.864492	0.473604	-0.247416	-1.19	-16.52	30.38	0.4202	-0.1724	-0.2033	
-0.848632	0.495442	-0.239852	-4.06	-17.15	28.77	0.4213	-0.1738	-0.1943	
-0.837164	0.533628	-0.22082	-4.27	-18.48	26.04	0.423	-0.1865	-0.2021	
-0.817522	0.565958	-0.207156	-8.33	-19.95	22.54	0.4197	-0.1894	-0.1869	
-0.806176	0.581696	-0.18727	-17.57	-20.3	17.78	0.4217	-0.1834	-0.2065	
-0.800442	0.607438	-0.182634	-21.49	-16.24	15.82	0.4076	-0.1913	-0.2092	
-0.791536	0.561932	-0.160796	-27.65	-13.79	13.51	0.4176	-0.1929	-0.2096	
-0.804224	0.56486	-0.172142	-13.65	-8.33	11.55	0.409	-0.1882	-0.2107	
-0.813008	0.545218	-0.173484	-11.06	-4.27	10.43	0.4021	-0.1851	-0.218	
-0.814838	0.54229	-0.160308	-6.16	-3.99	11.9	0.4036	-0.1867	-0.2211	
-0.812276	0.498004	-0.184464	-17.99	1.47	13.37	0.3995	-0.1993	-0.2242	
-0.848388	0.540582	-0.18239	-10.5	-0.84	16.8	0.4078	-0.1945	-0.2184	
-0.840946	0.524844	-0.182024	-17.22	-2.24	18.48	0.3983	-0.2041	-0.2318	
-0.842776	0.541924	-0.177998	-15.4	-2.45	20.16	0.3964	-0.1976	-0.218	
-0.842898	0.526674	-0.163846	-18.27	-3.22	21.07	0.3925	-0.2041	-0.2301	
-0.832162	0.525332	-0.16592	-15.68	-6.44	24.29	0.3895	-0.2055	-0.224	
-0.818254	0.5368	-0.1586	-7.35	-10.29	24.36	0.3951	-0.1946	-0.2225	
-0.831674	0.562176	-0.16226	-3.01	-10.22	23.03	0.3954	-0.2041	-0.2317	
-0.82777	0.577426	-0.15677	-1.96	-14.21	22.68	0.3853	-0.2181	-0.2256	
-0.828746	0.597678	-0.130418	5.18	-17.92	20.65	0.3798	-0.2166	-0.2329	
-0.8174	0.613782	-0.122	8.82	-21	18.83	0.3842	-0.2214	-0.2362	
-0.820328	0.612318	-0.113216	6.58	-21.07	16.45	0.3828	-0.2261	-0.2377	
-0.808616	0.622078	-0.127978	14.21	-22.19	15.96	0.3741	-0.2166	-0.2328	
-0.788364	0.629886	-0.114314	12.04	-22.75	15.75	0.3773	-0.2371	-0.2438	
-0.78019	0.623054	-0.125172	11.48	-18.41	15.12	0.3715	-0.2245	-0.2404	
-0.762134	0.619516	-0.1281	8.68	-16.8	16.31	0.3686	-0.2355	-0.2389	
-0.75579	0.608536	-0.128954	11.13	-13.72	13.79	0.3731	-0.2356	-0.2451	
-0.760304	0.625494	-0.120292	10.92	-13.02	12.46	0.3672	-0.2339	-0.2404	
-0.759206	0.620004	-0.118096	7.14	-9.59	10.43	0.3705	-0.2373	-0.2541	
-0.764574	0.61427	-0.134932	1.33	-5.6	9.38	0.3644	-0.2465	-0.242	
-0.768478	0.630618	-0.108092	1.96	-6.72	9.94	0.3631	-0.2481	-0.2465	
-0.76921	0.627568	-0.101504	1.05	-6.65	10.01	0.3661	-0.2419	-0.2495	
-0.777628	0.632448	-0.104554	0.7	-4.76	9.03	0.3647	-0.2404	-0.251	
-0.773236	0.637572	-0.093208	0.49	-5.04	7.63	0.3631	-0.2497	-0.2465	
-0.769698	0.640988	-0.104432	1.4	-4.55	5.95	0.3674	-0.2481	-0.2466	
-0.757986	0.644404	-0.087108	2.8	-5.74	4.13	0.3544	-0.2558	-0.2418	
-0.764818	0.643916	-0.092964	4.55	-4.97	2.52	0.3631	-0.245	-0.2449	
-0.76494	0.653432	-0.090524	1.89	-4.27	0.28	0.3658	-0.2496	-0.2406	
-0.758962	0.656848	-0.08479	1.05	-2.59	-2.24	0.3519	-0.2513	-0.2538	
-0.76006	0.653554	-0.086742	2.59	-1.75	-4.48	0.3561	-0.2607	-0.2495	
-0.75884	0.655384	-0.08357	4.34	-1.89	-6.79	0.362	-0.2483	-0.2555	
-0.75884	0.647698	-0.085888	4.48	-0.14	-9.45	0.3503	-0.2496	-0.2461	
-0.766526	0.637938	-0.09357399	4.9	1.82	-12.18	0.3601	-0.2512	-0.2419	
-0.767136	0.633424	-0.09455	3.5	4.13	-15.26	0.3586	-0.2417	-0.2402	
-0.764574	0.630984	-0.094916	4.34	6.16	-17.99	0.366	-0.2434	-0.2465	
-0.761036	0.628666	-0.100284	5.88	7.42	-20.44	0.3616	-0.2418	-0.2433	
-0.76311	0.62342	-0.106506	7.56	8.61	-23.17	0.3633	-0.2435	-0.251	
-0.76555	0.624884	-0.114558	8.54	9.45	-24.78	0.3632	-0.2341	-0.2493	
-0.771284	0.620126	-0.117242	6.58	9.8	-26.67	0.3698	-0.226	-0.2328	
-0.777262	0.610976	-0.13115	5.74	11.9	-28.28	0.3742	-0.2276	-0.236	
-0.783728	0.604876	-0.133956	5.25	11.97	-29.4	0.3817	-0.2247	-0.2498	
-0.78934	0.602802	-0.12932	3.78	11.55	-30.45	0.3757	-0.2261	-0.239	
-0.799466	0.579378	-0.131028	1.12	15.05	-33.32	0.3843	-0.2121	-0.2406	
-0.81252	0.563762	-0.139324	0.63	15.82	-34.3	0.3914	-0.2152	-0.2409	
-0.81557	0.551684	-0.154086	1.19	16.8	-35.14	0.3985	-0.2074	-0.2379	
-0.82716	0.547658	-0.162016	1.47	16.87	-34.37	0.394	-0.2026	-0.2332	
-0.834114	0.542656	-0.159454	0.7	16.45	-33.81	0.3953	-0.1931	-0.2301	
-0.848144	0.527894	-0.1586	3.92	15.47	-32.83	0.401	-0.1947	-0.2272	
-0.846558	0.4941	-0.170068	6.09	15.47	-33.32	0.4053	-0.1884	-0.2288	
-0.864736	0.479704	-0.188856	11.06	15.61	-33.67	0.4023	-0.1884	-0.2241	
-0.868518	0.476166	-0.19398	11.55	12.67	-33.25	0.4134	-0.1835	-0.2138	
-0.873154	0.469334	-0.198982	8.68	14.42	-33.53	0.4092	-0.1742	-0.2181	
-0.878644	0.466528	-0.22387	4.13	15.68	-33.11	0.4119	-0.1631	-0.212	
-0.881084	0.452864	-0.220332	0.91	13.79	-31.01	0.4233	-0.1679	-0.2124	
-0.882548	0.428952	-0.224358	4.97	12.6	-28.98	0.4275	-0.16	-0.2109	
-0.88694	0.412604	-0.227774	11.2	12.95	-28.28	0.4213	-0.1551	-0.1955	
-0.903166	0.387716	-0.232776	15.89	14.63	-29.54	0.423	-0.1427	-0.2029	
-0.93513	0.372588	-0.235826	20.79	14.7	-30.87	0.4273	-0.1489	-0.2032	
-0.936106	0.347334	-0.25925	15.54	15.47	-32.34	0.4271	-0.1395	-0.2	
-0.950868	0.339282	-0.264496	12.95	12.39	-31.71	0.4399	-0.1426	-0.1959	
-0.940986	0.335134	-0.263032	15.26	6.02	-29.82	0.4411	-0.1394	-0.1898	
-0.93879	0.346114	-0.248026	11.97	4.27	-28.21	0.437	-0.13	-0.1956	
-0.923662	0.345992	-0.238266	8.26	3.57	-30.52	0.4455	-0.1253	-0.1943	
-0.91561	0.35014	-0.230458	0.49	3.99	-33.32	0.4399	-0.1082	-0.1999	
-0.91317	0.350262	-0.220332	-10.15	8.96	-37.87	0.4427	-0.116	-0.1971	
-0.941962	0.325618	-0.22631	-17.99	12.74	-39.55	0.4541	-0.1129	-0.1959	
-0.951234	0.305	-0.237168	-17.78	10.5	-38.99	0.4524	-0.1049	-0.1882	
-0.946842	0.297192	-0.249978	-20.65	12.32	-39.41	0.4511	-0.094	-0.1925	
-0.953796	0.275232	-0.233508	-22.47	10.08	-38.15	0.4538	-0.083	-0.1879	
-0.956724	0.24827	-0.234362	-16.66	9.31	-34.86	0.4569	-0.0862	-0.1956	
-0.95831	0.21045	-0.24522	-12.25	7.56	-31.92	0.4523	-0.07669999	-0.1877	
-0.9577	0.189832	-0.227896	-8.33	6.79	-28.07	0.4624	-0.0643	-0.1909	
-0.968192	0.18727	-0.237046	-11.41	7.7	-24.71	0.4638	-0.069	-0.191	
-0.948062	0.19154	-0.25681	-10.64	6.93	-20.65	0.4524	-0.058	-0.192	
-0.944646	0.190442	-0.282674	-7.7	7.28	-14.91	0.4622	-0.0642	-0.1863	
-0.949038	0.189954	-0.299998	2.38	5.04	-9.8	0.4607	-0.0547	-0.1831	
-0.964166	0.208132	-0.277062	14.28	0.56	-4.83	0.4705	-0.05	-0.1788	
-0.956236	0.221064	-0.277062	17.15	1.19	-1.54	0.4593	-0.0469	-0.186	
-0.962336	0.227774	-0.271816	20.09	1.54	1.4	0.4664	-0.0532	-0.1818	
-0.959286	0.231068	-0.26413	19.88	-0.49	3.71	0.4652	-0.0564	-0.1893	
-0.947696	0.227286	-0.278648	15.19	-1.47	5.81	0.4595	-0.058	-0.1892	
-0.945622	0.232654	-0.277794	20.02	-6.16	7.42	0.4692	-0.0532	-0.1819	
-0.943548	0.24949	-0.26657	22.47	-6.09	7.35	0.4565	-0.0532	-0.1875	
-0.944768	0.261324	-0.268278	18.83	-4.62	6.37	0.4552	-0.0611	-0.1891	
-0.957334	0.279502	-0.254492	15.05	-6.72	5.53	0.4578	-0.0563	-0.1815	
-0.959286	0.282308	-0.23912	8.12	-6.72	3.57	0.4665	-0.0626	-0.1849	
-0.96502	0.269742	-0.235582	1.12	-4.69	1.75	0.4592	-0.0547	-0.1816	
-0.96258	0.257054	-0.250832	-2.45	-4.83	1.33	0.4578	-0.0578	-0.18	
-0.9516	0.246318	-0.266814	-7.84	-4.97	1.54	0.4609	-0.0642	-0.1893	
-0.94123	0.229848	-0.280356	-11.55	-7.49	2.73	0.4664	-0.0532	-0.1833	
-0.950746	0.197152	-0.253394	-11.97	-9.38	4.9	0.4586	-0.0661	-0.2059	
-0.961848	0.187148	-0.233508	1.12	-12.04	9.59	0.4536	-0.0563	-0.1859	
-0.948794	0.18361	-0.281942	7.35	-7.63	14.28	0.4524	-0.058	-0.192	
-0.957944	0.168848	-0.270352	19.11	-9.94	21.77	0.4583	-0.0737	-0.197	
-0.961116	0.193248	-0.257054	27.79	-12.74	30.73	0.4552	-0.0752	-0.1878	
-0.976732	0.214354	-0.238144	27.79	-13.37	35.7	0.4597	-0.08	-0.1941	
-0.963922	0.211304	-0.275964	26.39	-15.89	41.51	0.4509	-0.0892	-0.1864	
-0.977342	0.209352	-0.256566	27.16	-1.33	45.08	0.447	-0.1035	-0.1986	
-0.940864	0.26413	-0.24522	37.52	-0.63	43.96	0.46	-0.1052	-0.2051	
-0.946598	0.268766	-0.304634	40.95	-14.91	46.97	0.454	-0.1128	-0.1929	
-1.062498	0.179584	-0.162382	29.26	-32.13	22.96	0.4541	-0.1192	-0.1975	
-0.92171	0.296216	-0.319518	48.86	-29.82	42.21	0.4399	-0.1301	-0.1987	
-0.938058	0.353678	-0.244732	23.17	-31.22	35.98	0.4328	-0.1395	-0.1987	
-0.947574	0.3416	-0.229482	20.93	-27.23	34.72	0.4258	-0.1395	-0.203	
-0.865712	0.356972	-0.232166	36.4	-13.02	35.84	0.4185	-0.1457	-0.1983	
-0.910364	0.379664	-0.277916	43.61	-16.94	33.88	0.4229	-0.1567	-0.2016	
-0.91439	0.397354	-0.241316	41.58	-24.85	39.41	0.4201	-0.1598	-0.2016	
-0.868274	0.37393	-0.257664	32.34	-29.47	39.55	0.4158	-0.1645	-0.2	
-0.869982	0.38369	-0.24339	39.41	-27.09	36.12	0.4218	-0.1819	-0.2095	
-0.868274	0.425536	-0.240584	49.91	-17.43	31.08	0.4116	-0.1849	-0.2032	
-1.031266	0.430782	-0.293166	37.73	-19.04	17.5	0.4087	-0.1958	-0.1987	
-0.870958	0.414312	-0.192272	40.95	-32.69	29.47	0.4145	-0.1959	-0.202	
-0.891576	0.440664	-0.226432	30.31	-21.35	26.39	0.4002	-0.1974	-0.2	
-0.878766	0.458964	-0.19947	24.43	-22.54	23.03	0.4046	-0.2022	-0.2063	
-0.859246	0.489708	-0.213012	27.58	-21.21	22.54	0.4058	-0.2192	-0.196	
-0.85705	0.47153	-0.171898	17.15	-18.62	19.32	0.4002	-0.2146	-0.2018	
-0.8601	0.485804	-0.187636	17.78	-14.21	15.96	0.4005	-0.2132	-0.2093	
-0.867542	0.504348	-0.168238	7.28	-13.65	11.9	0.3975	-0.224	-0.2049	
-0.868518	0.511058	-0.163602	0.14	-9.66	8.68	0.389	-0.2209	-0.2076	
-0.85949	0.488244	-0.164578	-0.21	-6.44	5.95	0.4019	-0.2257	-0.2096	
-0.8479	0.465674	-0.162748	5.67	-5.11	6.79	0.3921	-0.2242	-0.2138	
-0.852414	0.461038	-0.16714	5.32	-1.68	8.4	0.399	-0.2209	-0.2064	
-0.869128	0.447862	-0.172386	0.91	0	7.77	0.3919	-0.2256	-0.2077	
-0.881938	0.440542	-0.186782	2.24	0.98	7.49	0.392	-0.2289	-0.2123	
-0.881816	0.430782	-0.177998	1.4	1.26	8.05	0.3904	-0.2225	-0.2061	
-0.876814	0.438956	-0.180072	-0.49	2.45	8.26	0.3932	-0.2146	-0.2046	
-0.876936	0.446764	-0.17446	-1.68	2.73	8.19	0.3843	-0.2254	-0.1939	
-0.881938	0.442494	-0.172142	-2.17	3.92	7.77	0.3819	-0.2272	-0.209	
-0.877912	0.45384	-0.177388	-1.05	3.85	6.86	0.3844	-0.2208	-0.1968	
-0.882304	0.461526	-0.187392	0	4.13	6.16	0.3846	-0.2302	-0.2015	
-0.880352	0.466406	-0.184464	-0.49	3.78	5.81	0.3887	-0.227	-0.1971	
-0.871812	0.473482	-0.192516	-0.14	4.27	5.25	0.3875	-0.224	-0.203	
-0.859978	0.487512	-0.192394	-0.91	4.27	4.69	0.3846	-0.2349	-0.2016	
-0.859368	0.496662	-0.189344	-4.06	4.48	3.78	0.3743	-0.2316	-0.1921	
-0.862418	0.488122	-0.186782	-5.67	5.74	3.08	0.3816	-0.2333	-0.1969	
-0.859368	0.48922	-0.189588	-6.09	6.44	1.96	0.3831	-0.2396	-0.1986	
-0.854122	0.499468	-0.178608	-8.89	6.86	0.42	0.3873	-0.2255	-0.197	
-0.852048	0.499956	-0.17202	-11.34	7.91	-1.26	0.3817	-0.2302	-0.2014	
-0.843264	0.505202	-0.17812	-10.99	8.61	-3.22	0.3849	-0.232	-0.2122	
-0.834968	0.502396	-0.166042	-14.56	9.94	-5.67	0.3876	-0.2256	-0.2061	
-0.842044	0.505324	-0.164212	-13.93	13.23	-8.19	0.3846	-0.2271	-0.203	
-0.843508	0.518134	-0.161284	-18.41	14.63	-10.43	0.3818	-0.2318	-0.2045	
-0.842776	0.503494	-0.16409	-25.27	17.99	-11.55	0.3919	-0.2241	-0.2092	
-0.832406	0.499712	-0.186416	-25.2	23.73	-12.6	0.396	-0.2146	-0.2047	
-0.83875	0.499956	-0.17995	-25.62	26.04	-13.79	0.3932	-0.2319	-0.2049	
-0.838506	0.50813	-0.174216	-26.74	29.26	-16.31	0.3946	-0.2131	-0.2031	
-0.847168	0.49349	-0.179096	-35.84	32.48	-19.95	0.3989	-0.2241	-0.2049	
-0.870226	0.509106	-0.194834	-32.62	34.79	-23.52	0.3947	-0.2178	-0.2062	
-0.872056	0.493002	-0.207278	-34.79	34.58	-25.69	0.4	-0.2067	-0.1941	
-0.867542	0.476776	-0.21777	-37.31	35.56	-28.35	0.414	-0.1878	-0.1882	
-0.86254	0.456524	-0.21289	-35.14	34.93	-32.2	0.4184	-0.1863	-0.1898	
-0.863272	0.42883	-0.219234	-28	36.05	-33.95	0.4155	-0.1878	-0.1898	
-0.904386	0.438102	-0.224236	-24.92	37.31	-34.93	0.4182	-0.1768	-0.1836	
-0.919392	0.430904	-0.218868	-37.03	34.58	-35.28	0.4228	-0.1848	-0.1945	
-0.887062	0.426268	-0.277672	-43.05	35.98	-38.22	0.4282	-0.1722	-0.1869	
-0.90402	0.417484	-0.314272	-54.67	36.82	-41.86	0.4368	-0.1628	-0.187	
-0.906094	0.397476	-0.336476	-53.69	34.44	-42.35	0.431	-0.1549	-0.1837	
-0.912072	0.376004	-0.336354	-34.3	32.55	-37.94	0.428	-0.1517	-0.1805	
-0.919514	0.354044	-0.354776	-24.5	29.05	-31.85	0.4452	-0.1408	-0.1824	
-0.92232	0.333304	-0.37637	-31.85	18.41	-26.74	0.4479	-0.1314	-0.1793	
-0.909022	0.36295	-0.329766	-35.14	10.15	-24.15	0.4479	-0.1376	-0.1779	
-0.928542	0.307196	-0.335866	-30.8	12.11	-32.41	0.4533	-0.1265	-0.1689	
-0.927566	0.315736	-0.309392	-16.03	10.85	-42.28	0.455	-0.1157	-0.1778	
-0.939156	0.268156	-0.345016	-5.95	19.04	-44.52	0.4518	-0.103	-0.17	
-0.916464	0.297192	-0.314882	-9.31	4.97	-44.38	0.4546	-0.1108	-0.1656	
-0.89609	0.294874	-0.322446	-8.05	11.9	-44.24	0.462	-0.1032	-0.1763	
-0.897798	0.355142	-0.321348	-16.8	18.34	-57.19	0.4675	-0.08899999	-0.1702	
-0.88206	0.335256	-0.330254	-25.97	19.25	-55.58	0.4674	-0.09519999	-0.1673	
-0.970388	0.304268	-0.305732	-23.31	9.73	-67.41	0.4661	-0.078	-0.17	
-0.863028	0.332206	-0.41236	-15.96	21.84	-36.12	0.4687	-0.0576	-0.1653	
-0.946842	0.321226	-0.296094	-24.43	6.09	-57.33	0.4703	-0.0452	-0.1727	
-0.940864	0.244488	-0.349408	-56.28	16.31	-53.55	0.4743	-0.0294	-0.162	
-1.088728	0.409676	-0.365024	-26.32	19.04	-57.12	0.4715	-0.0279	-0.1649	
-0.914146	0.178608	-0.33245	-77.35	5.25	-73.01	0.4786	-0.0169	-0.165	
-0.935374	0.132736	-0.29097	-50.89	-5.32	-73.99	0.4787	0.0048	-0.1707	
-0.953796	0.151646	-0.280356	-49.07	-2.17	-66.78	0.4715	0.0034	-0.1659	
-0.921466	0.103456	-0.30317	-69.86	7.63	-67.2	0.4686	0.0159	-0.1672	
-0.99308	0.139812	-0.338794	-53.27	9.66	-74.13	0.4727	0.0316	-0.1625	
-0.966118	0.12322	-0.322202	-57.54	-5.04	-76.86	0.4783	0.0489	-0.1594	
-0.975146	0.092964	-0.265228	-53.9	-9.38	-75.95	0.4728	0.0534	-0.1682	
-0.996496	0.08967	-0.26413	-56.28	-10.85	-70.91	0.4672	0.0753	-0.1707	
-0.94672	0.000488	-0.293898	-52.22	-22.82	-66.29	0.4626	0.0896	-0.1628	
-0.97783	0.06344	-0.204716	-30.66	-21.77	-65.45	0.4642	0.0988	-0.1703	
-0.91927	-0.040992	-0.199592	-57.4	-10.92	-57.12	0.4674	0.1049	-0.1794	
-0.94367	0.086986	-0.20557	-85.4	38.99	-25.97	0.4646	0.119	-0.1836	
-1.004426	-0.020008	-0.43554	-74.27	3.43	-47.04	0.4682	0.1318	-0.1639	
-0.953064	-0.02928	-0.23607	-26.53	-34.09	-44.52	0.4624	0.135	-0.1591	
-0.991128	-0.063318	-0.226188	-44.03	-11.76	-37.87	0.4545	0.1347	-0.18	
-0.980148	-0.057828	-0.275842	-41.02	-13.3	-33.46	0.4615	0.1582	-0.1784	
-0.98454	-0.05978	-0.273402	-34.09	-19.25	-27.72	0.4485	0.1755	-0.1747	
-0.97051	-0.070272	-0.265594	-32.2	-21.84	-23.52	0.4602	0.1628	-0.1843	
-0.98332	-0.06649	-0.233874	-26.53	-18.83	-22.05	0.4547	0.1721	-0.19	
-0.953674	-0.035624	-0.226798	-24.36	-15.19	-23.87	0.4546	0.1769	-0.1884	
-1.009916	-0.080398	-0.233996	-20.72	-11.2	-20.58	0.4485	0.1646	-0.1733	
-0.98149	-0.094794	-0.230702	-17.85	-13.23	-18.06	0.4487	0.1817	-0.1836	
-0.972096	-0.109434	-0.234606	-20.58	-10.78	-15.61	0.4444	0.1864	-0.1819	
-0.990396	-0.115412	-0.1891	-15.75	-12.39	-13.93	0.4416	0.1895	-0.1833	
-1.005036	-0.12627	-0.169946	-11.55	-7.21	-12.81	0.4525	0.1898	-0.1655	
-0.973804	-0.134932	-0.175924	-10.15	-8.82	-9.45	0.4501	0.1942	-0.182	
-0.945134	-0.127368	-0.193736	0.21	-6.51	-3.15	0.4415	0.2068	-0.1815	
-0.949892	-0.129442	-0.194834	3.22	-5.46	1.26	0.4486	0.1958	-0.1804	
-0.974414	-0.114558	-0.173606	3.85	-6.16	1.4	0.4371	0.1928	-0.1755	
-0.985028	-0.110776	-0.167628	0.84	-2.31	0.28	0.4476	0.1925	-0.1925	
-0.984296	-0.096746	-0.173118	4.41	-0.98	1.19	0.4415	0.1958	-0.1817	
-0.98576	-0.134688	-0.167018	4.48	-0.63	2.24	0.4403	0.1894	-0.1893	
-0.989542	-0.124928	-0.178852	5.74	-1.33	1.19	0.4416	0.1942	-0.1832	
-0.99369	-0.082228	-0.174948	9.94	-3.29	1.12	0.4475	0.191	-0.1895	
-0.992714	-0.06649	-0.19703	10.64	-1.26	2.31	0.4475	0.1894	-0.1895	
-0.994544	-0.068686	-0.176778	10.71	-1.96	2.66	0.4446	0.1988	-0.1893	
-1.000888	-0.065392	-0.160552	5.95	-2.17	1.96	0.4487	0.1926	-0.182	
-0.999668	-0.05612	-0.170434	2.66	-0.56	2.38	0.4431	0.191	-0.1848	
-0.988444	-0.06039	-0.184342	4.48	0.77	3.71	0.4388	0.1942	-0.1846	
-0.980026	-0.073932	-0.181536	5.6	0.28	5.67	0.4417	0.1863	-0.1879	
-0.991128	-0.081618	-0.176412	4.13	-0.84	5.32	0.4477	0.194	-0.1955	
-1.003206	-0.078446	-0.176412	4.76	-0.7	4.27	0.4389	0.191	-0.1908	
-0.986248	-0.078446	-0.165188	6.16	0.07	3.85	0.4504	0.2003	-0.1925	
-0.98881	-0.08052	-0.162992	5.18	0.42	5.95	0.4491	0.183	-0.1957	
-0.985638	-0.083936	-0.172386	10.08	1.4	8.82	0.4392	0.183	-0.1984	
-0.98637	-0.080764	-0.17873	13.16	2.1	10.01	0.4472	0.1817	-0.1806	
-1.001986	-0.0854	-0.17934	12.95	3.08	11.9	0.4459	0.1895	-0.1834	
-0.981368	-0.093452	-0.183366	12.74	4.27	12.32	0.4458	0.1817	-0.182	
-0.981978	-0.111874	-0.161528	14.7	1.89	15.54	0.4489	0.1769	-0.1883	
-0.989908	-0.092354	-0.17263	20.16	2.1	18.97	0.4546	0.1785	-0.1869	
-0.998082	-0.077226	-0.19764	34.79	4.62	24.29	0.4459	0.166	-0.1838	
-1.001986	-0.0915	-0.187758	32.27	4.55	24.08	0.4505	0.1517	-0.1932	
-0.969046	-0.085522	-0.186904	33.39	5.81	27.93	0.4524	0.1546	-0.2084	
-0.976488	-0.059658	-0.221796	29.33	8.47	33.11	0.4493	0.1516	-0.1993	
-0.976	-0.06588	-0.209596	33.18	8.4	38.85	0.4593	0.1391	-0.1998	
-1.006256	-0.060146	-0.193248	42.49	3.78	43.82	0.456	0.13	-0.1832	
-0.960872	-0.025498	-0.234606	43.47	12.11	49.84	0.4678	0.1313	-0.1956	
-0.987102	-0.034404	-0.27389	49.7	14.42	58.03	0.4679	0.1203	-0.1988	
-0.962214	0.036722	-0.317688	53.13	15.05	55.09	0.4647	0.1064	-0.1853	
-1.006012	-0.023424	-0.234118	47.25	9.1	64.82	0.4638	0.0858	-0.2022	
-0.975634	0.059658	-0.225334	66.22	5.74	68.18	0.4635	0.0797	-0.1902	
-0.983686	0.10065	-0.281698	58.94	23.17	69.23	0.4733	0.06879999	-0.1862	
-1.007354	0.109068	-0.284382	64.05	11.76	83.44	0.4732	0.0595	-0.1818	
-0.93635	0.124196	-0.290848	78.68	1.33	85.05	0.4733	0.036	-0.1806	
-0.998204	0.096136	-0.341112	69.93	0.84	77.07	0.4633	0.025	-0.182	
-0.95099	0.167872	-0.319762	71.33	-16.45	76.93	0.4676	0.0204	-0.1807	
-0.9516	0.26779	-0.331718	87.85	0.91	83.72	0.4722	-0.0094	-0.1888	
-1.024922	0.356484	-0.346114	104.51	-7.56	98.28	0.4649	-0.0172	-0.1842	
-0.96929	0.433954	-0.281454	103.81	-24.99	54.39	0.4705	-0.0327	-0.177	
-0.945378	0.376248	-0.265838	66.15	-30.8	30.45	0.4621	-0.0484	-0.1816	
-0.877546	0.341478	-0.292434	33.39	-24.29	26.25	0.4653	-0.0549	-0.1954	
-0.92903	0.33428	-0.247904	20.93	-16.87	26.39	0.4553	-0.0674	-0.1937	
-0.925126	0.361852	-0.224236	30.66	-14.42	26.04	0.4598	-0.0738	-0.2	
-0.923296	0.349896	-0.244	19.18	-12.88	20.44	0.4627	-0.0769	-0.2002	
-0.916342	0.287432	-0.232044	25.76	-12.53	28.42	0.453	-0.0818	-0.2105	
-0.932812	0.296094	-0.24522	36.4	-13.37	31.22	0.4513	-0.0894	-0.2	
-0.930982	0.292312	-0.264984	35.84	-16.1	29.4	0.4455	-0.09559999	-0.1969	
-0.936716	0.23363	-0.217892	30.38	-14.42	30.17	0.4486	-0.0989	-0.2046	
-0.951356	0.262056	-0.248636	44.73	-9.59	35.77	0.4413	-0.1019	-0.1999	
-0.944646	0.259128	-0.22997	41.93	-11.34	36.05	0.4415	-0.1098	-0.2045	
-0.951844	0.269254	-0.223016	39.34	-14.56	34.65	0.4459	-0.124	-0.2064	
-0.93513	0.313784	-0.223992	34.51	-16.38	36.26	0.4385	-0.1176	-0.1985	
-0.944524	0.310124	-0.227652	20.58	-11.41	28.98	0.4383	-0.1159	-0.1924	
-0.931836	0.330742	-0.238632	17.36	-10.57	26.39	0.4346	-0.1287	-0.2107	
-0.948916	0.318298	-0.211792	24.22	-15.47	26.95	0.4346	-0.1318	-0.2107	
-0.942084	0.341966	-0.217038	21.77	-11.9	28.49	0.4342	-0.1348	-0.1986	
-0.907558	0.364048	-0.23973	7.21	-12.18	27.58	0.4344	-0.1474	-0.2019	
-0.941962	0.36539	-0.211426	3.36	-7.07	17.57	0.4302	-0.1568	-0.2049	
-0.931958	0.340502	-0.210816	4.2	-9.87	16.45	0.423	-0.1474	-0.2045	
-0.926102	0.35136	-0.212646	11.48	-9.73	18.9	0.4331	-0.1553	-0.2065	
-0.9333	0.359656	-0.205448	8.75	-9.94	19.95	0.4204	-0.1553	-0.2106	
-0.920246	0.355874	-0.212036	11.83	-11.13	22.33	0.4216	-0.1677	-0.2048	
-0.925614	0.358314	-0.215086	14.42	-9.8	23.94	0.4285	-0.1613	-0.1958	
-0.925858	0.394914	-0.204472	12.95	-10.01	26.11	0.4143	-0.166	-0.1985	
-0.905606	0.397842	-0.216916	8.89	-12.46	23.03	0.4246	-0.1772	-0.2065	
-0.912194	0.386252	-0.204228	7.7	-17.36	17.92	0.4119	-0.1866	-0.2123	
-0.902434	0.401136	-0.170068	18.55	-11.69	21.42	0.4114	-0.1801	-0.1956	
-0.974414	0.347578	-0.271694	21.98	-5.53	14.7	0.4175	-0.1803	-0.2094	
-0.90829	0.382714	-0.177876	33.81	-27.93	21.14	0.4102	-0.1849	-0.2017	
-0.919392	0.393084	-0.203496	35.28	-23.38	19.25	0.4043	-0.1863	-0.1954	
-0.895358	0.424316	-0.194712	32.06	-22.33	17.43	0.4115	-0.1927	-0.1988	
-0.930616	0.364414	-0.260958	36.82	-19.32	9.66	0.4073	-0.2005	-0.2003	
-0.915976	0.408456	-0.232776	27.44	-24.43	14.7	0.3976	-0.2085	-0.2107	
-0.914024	0.412848	-0.218258	22.96	-28.7	15.54	0.4004	-0.2084	-0.2062	
-0.943426	0.40931	-0.19032	11.76	-40.39	13.72	0.3975	-0.2006	-0.2075	
-0.879254	0.422608	-0.17873	16.03	-31.57	16.66	0.4008	-0.1992	-0.2197	
-0.8906	0.447374	-0.207766	19.67	-23.73	13.65	0.3976	-0.2194	-0.2078	
-0.881084	0.414678	-0.16592	18.34	-36.96	10.29	0.3948	-0.221	-0.2108	
-0.774822	0.517158	-0.10614	15.82	-25.62	9.31	0.3895	-0.2149	-0.2241	
-0.861564	0.45384	-0.193126	7.42	-53.06	6.3	0.3853	-0.2197	-0.2256	
-0.804468	0.492636	-0.098088	5.67	-34.02	10.92	0.3869	-0.2245	-0.2318	
-0.82411	0.53131	-0.133956	14.42	-27.65	10.22	0.3826	-0.215	-0.2315	
-0.811666	0.548024	-0.092476	7.77	-25.55	7.7	0.3827	-0.2245	-0.2347	
-0.818132	0.531188	-0.10675	4.9	-17.15	5.74	0.3886	-0.2231	-0.2424	
-0.829844	0.51728	-0.098332	6.23	-8.96	4.34	0.3801	-0.2262	-0.2437	
-0.836554	0.512522	-0.084546	10.85	-0.84	3.43	0.3759	-0.2247	-0.2466	
-0.875228	0.464576	-0.106994	0.84	-6.23	3.92	0.3686	-0.2308	-0.2388	
-0.884256	0.481168	-0.139812	5.67	10.29	5.11	0.3743	-0.2355	-0.2406	
-0.885964	0.460794	-0.115168	0.98	7.35	4.83	0.366	-0.2294	-0.2478	
-0.894626	0.462868	-0.126636	0.91	10.08	4.34	0.3742	-0.2292	-0.236	
-0.897066	0.457134	-0.125416	-0.07	10.01	3.15	0.3713	-0.2339	-0.236	
-0.89365	0.446398	-0.119804	-1.61	9.66	2.45	0.3625	-0.2322	-0.2281	
-0.898774	0.439688	-0.120902	0.21	9.03	1.54	0.3798	-0.2292	-0.2331	
-0.901458	0.439932	-0.125172	3.22	7.91	1.68	0.3783	-0.2322	-0.2286	
-0.890478	0.44591	-0.120658	6.79	6.37	1.96	0.3726	-0.2385	-0.23	
-0.876936	0.466528	-0.109556	10.22	4.69	1.4	0.3797	-0.2307	-0.2301	
-0.871324	0.495564	-0.107116	9.03	5.67	0.49	0.3651	-0.2289	-0.219	
-0.869616	0.495808	-0.090646	0	6.72	-0.84	0.3711	-0.2384	-0.2269	
-0.872422	0.478118	-0.116388	-0.63	10.78	-1.75	0.3708	-0.2305	-0.2192	
-0.881694	0.48922	-0.131394	-0.56	12.39	-2.1	0.3809	-0.2337	-0.2211	
