Sensor string: E
Serial number: 1970-01-0000
Firmware version: 2,015
Hardware version: 2,2
Calibration quality: 5
ax	ay	az	gx	gy	gz	mx	my	mz

-1.019188	0.085278	0.023668	0.84	-0.63	-0.14	0.4255	-0.0455	-0.2876	Reference
-1.013942	0.099796	0.020374	0.56	0.28	-0.28	0.4226	-0.0453	-0.2798	
-1.016016	0.0915	0.012566	-0.56	-0.77	-0.63	0.4311	-0.0454	-0.2861	
-1.014308	0.085034	0.005856	-0.49	0.07	-0.49	0.4311	-0.0484	-0.283	
-1.008696	0.082594	0.013908	-0.42	0.98	0.49	0.4198	-0.0406	-0.2781	
-0.994056	0.084546	0.013298	-0.77	-2.45	0.14	0.4241	-0.0455	-0.2876	
-1.00223	0.086376	0.012932	-0.98	-0.49	-0.84	0.4254	-0.0575	-0.2739	
-1.00284	0.086376	0.028426	-1.05	-1.47	-1.19	0.4283	-0.05	-0.2846	
-0.996374	0.075884	0.02135	-0.42	-2.38	-1.89	0.424	-0.0424	-0.2859	
-1.013088	0.072224	0.030988	-1.26	-0.35	-2.24	0.4183	-0.0483	-0.2751	
-1.027362	0.062708	0.03599	0.21	1.4	-0.98	0.4296	-0.0484	-0.2799	
-0.996862	0.084668	0.023302	1.61	-0.7	2.24	0.4282	-0.0467	-0.2767	
-1.033096	0.124318	0.032208	2.73	4.76	3.01	0.4184	-0.0486	-0.2892	
-1.018456	0.095282	-0.002928	1.89	4.48	-1.05	0.4254	-0.0469	-0.2814	
-0.989176	0.09942999	-0.000976	-0.84	2.24	-2.31	0.4241	-0.044	-0.2907	
-0.99857	0.085034	0.006832	1.26	2.45	-1.33	0.4254	-0.0467	-0.2767	
-1.006988	0.085888	0.007076	2.03	-1.61	0.14	0.4311	-0.0422	-0.2797	
-1.015894	0.088816	0.020008	-4.55	-1.19	1.26	0.4311	-0.0547	-0.2879	
-1.019554	0.085156	0.015982	-4.13	-0.49	1.12	0.4268	-0.0468	-0.2798	
-1.011868	0.07991	0.019764	-2.45	-0.07	-0.07	0.4254	-0.0483	-0.2783	
-0.998326	0.07515199	0.026108	-1.89	0.49	-0.91	0.4325	-0.0484	-0.2815	
-0.989298	0.072346	0.009881999	-0.35	-0.14	-0.42	0.424	-0.0424	-0.2859	
-1.0126	0.08479	0.020984	-1.4	-0.56	0.56	0.4226	-0.0422	-0.2781	
-1.009672	0.080276	0.050142	-1.89	3.43	1.12	0.424	-0.0528	-0.2737	
-1.00345	0.088328	0.033428	0.7	2.45	0.7	0.424	-0.0516	-0.2877	
-1.0004	0.08295999	0.011712	0.42	3.99	-0.21	0.4254	-0.0484	-0.2799	
-1.006012	0.075884	0.011712	2.38	6.79	-0.98	0.4339	-0.0517	-0.2894	
-1.019188	0.075884	-0.011468	3.29	5.32	-0.91	0.4296	-0.0482	-0.2752	
-1.036268	0.07869	-0.031232	4.13	5.46	-0.98	0.4198	-0.0499	-0.2799	
-1.044808	0.084058	-0.022326	3.99	2.8	-0.63	0.4353	-0.0468	-0.2799	
-1.029558	0.08906	-0.009272	3.22	0.63	-0.49	0.4296	-0.053	-0.2816	
-1.01626	0.091988	-0.011468	2.17	1.33	-1.05	0.4226	-0.0391	-0.2796	
-1.016504	0.091012	-0.004392	1.4	0.42	-1.26	0.4282	-0.0422	-0.2813	
-1.01748	0.0915	-0.000488	-0.35	-0.91	-0.56	0.4268	-0.0527	-0.2691	
-1.008086	0.09333	0.008784	-0.21	-2.73	0.35	0.4352	-0.0419	-0.2689	
-1.003206	0.09552599	0.015982	-0.35	-0.63	0.63	0.431	-0.0358	-0.2718	
-0.996374	0.09552599	0.013908	-0.91	-0.14	0.42	0.4141	-0.0498	-0.2736	
-0.994056	0.0915	0.012078	-0.63	0.28	-0.28	0.4338	-0.0466	-0.2705	
-1.0004	0.085644	0.011834	-1.12	0	-0.7	0.431	-0.039	-0.2734	
-1.010282	0.078934	0.006832	-1.33	0.49	-0.77	0.431	-0.045	-0.2705	
-1.012722	0.074786	0.005246	-1.54	0.14	-0.49	0.4296	-0.042	-0.2735	
-1.012844	0.074908	0.003782	-0.98	1.19	-0.21	0.4282	-0.0512	-0.269	
-1.011746	0.07905599	-0.002562	-0.98	1.26	-0.14	0.4324	-0.0497	-0.2722	
-1.014796	0.079422	-0.00061	-0.56	0.84	-0.35	0.4254	-0.0404	-0.2703	
-1.013942	0.080032	-0.00244	-0.56	0.63	-0.56	0.4226	-0.0405	-0.2734	
-1.014308	0.0793	-0.000488	-0.56	0.56	-0.49	0.4282	-0.0437	-0.2782	
-1.01748	0.08052	-0.000122	0.07	0.28	-0.28	0.4324	-0.0497	-0.2737	
-1.017358	0.084424	-0.000488	0.28	0.35	0	0.4212	-0.0577	-0.2832	
-1.01809	0.084546	-0.000732	0.21	0.63	-0.07	0.4254	-0.0497	-0.2721	
-1.01199	0.08174	-0.001098	0.28	0.07	-0.14	0.4268	-0.0499	-0.2815	
-1.00833	0.08418	-0.00061	0	0.21	-0.14	0.4226	-0.0484	-0.283	
-1.011258	0.0854	0.000488	0.07	0	0	0.4169	-0.0452	-0.2766	
-1.010404	0.085034	0.002562	0.14	0	-0.21	0.4296	-0.0327	-0.2686	
-1.010648	0.082594	0.00244	-0.07	0.28	-0.14	0.4212	-0.0345	-0.2779	
-1.012356	0.085156	0.00488	-0.07	0.21	-0.14	0.4268	-0.0621	-0.274	
-1.007354	0.08662	0.00549	-0.07	0.21	-0.14	0.4169	-0.0421	-0.2734	
-1.010892	0.08784	-0.003172	-0.21	1.05	-0.21	0.4226	-0.0515	-0.2799	
-1.018456	0.08723	-0.004026	-0.42	0.49	-0.21	0.4212	-0.0437	-0.2782	
-1.019188	0.085034	-0.00671	-0.49	-0.14	-0.28	0.4254	-0.0481	-0.2689	
-1.015894	0.082594	-0.006466	-0.21	-0.42	-0.28	0.431	-0.039	-0.2734	
-1.009916	0.081374	0	0.07	-0.63	-0.35	0.4197	-0.0405	-0.2734	
-1.00894	0.08052	0.003172	0.14	-0.21	-0.49	0.4253	-0.0325	-0.2623	
-1.00833	0.079178	0.004636	0.49	-0.35	-0.49	0.4226	-0.0467	-0.2736	
-1.011136	0.07905599	0.002196	0.35	0.07	-0.49	0.424	-0.0344	-0.2748	
-1.015162	0.079422	0.002928	0.49	0.07	-0.42	0.4395	-0.0514	-0.28	
-1.011746	0.080032	-0.000366	0.42	0	-0.28	0.4339	-0.0467	-0.2752	
-1.01138	0.080764	0.000122	0.35	0.21	-0.14	0.4325	-0.0345	-0.2811	
-1.012844	0.083204	-0.001586	0.14	0.14	0	0.4282	-0.0449	-0.2658	
-1.01138	0.084302	0	-0.14	0.14	-0.07	0.4198	-0.0422	-0.2812	
-1.00894	0.0854	0.002562	-0.42	0	-0.14	0.4338	-0.0389	-0.2719	
-1.011258	0.081008	0.005246	-0.49	0.14	0.07	0.4296	-0.0468	-0.2799	
-1.012478	0.081496	0.004392	-0.63	-0.07	0.35	0.4268	-0.0451	-0.272	
-1.007354	0.081008	0.00122	-0.77	-0.21	0.42	0.4296	-0.0434	-0.2673	
-1.01382	0.079422	0.00183	-0.42	0.42	0.28	0.4338	-0.0482	-0.2721	
-1.016626	0.085034	-0.00305	0	0.56	0.42	0.431	-0.0419	-0.2673	
-1.013942	0.085766	-0.009393999	-0.35	0.49	0.35	0.4296	-0.0468	-0.2783	
-1.016992	0.08845	-0.01037	-0.28	-0.56	0.07	0.431	-0.0451	-0.2736	
-1.01504	0.085888	-0.008296	-0.56	-0.91	-0.07	0.4254	-0.0406	-0.2766	
-1.009672	0.083936	-0.006466	-0.77	-1.89	-0.14	0.4324	-0.0498	-0.2753	
-1.0187	0.081984	0.00305	-0.63	-2.17	-0.14	0.4311	-0.0345	-0.2796	
-1.0187	0.08052	0.011346	-0.28	-1.89	-0.35	0.4338	-0.0327	-0.2717	
-1.010526	0.080886	0.008905999	-0.42	-1.19	-0.21	0.4282	-0.0469	-0.2814	
-1.007598	0.08052	0.007198	0	-0.42	-0.28	0.424	-0.0499	-0.2799	
-1.013332	0.07869	0.004514	0.28	0.14	-0.42	0.4268	-0.0498	-0.2768	
-1.01321	0.081984	-0.002074	0.56	0.07	-0.49	0.431	-0.0452	-0.2767	
-1.021994	0.0854	-0.00366	0.77	0.07	-0.35	0.4339	-0.0406	-0.2782	
-1.03273	0.08784	-0.003904	0.7	-0.49	-0.14	0.4226	-0.0529	-0.2768	
-1.035414	0.085766	-0.002684	0.77	-0.91	-0.07	0.4268	-0.0483	-0.2783	
-1.028094	0.079788	-0.009881999	1.4	-0.98	0.28	0.4324	-0.0483	-0.2768	
-1.021506	0.0793	-0.00854	1.96	-0.91	0.7	0.4254	-0.0407	-0.2812	
-1.011868	0.080764	-0.021838	2.59	-2.31	0.49	0.424	-0.0484	-0.283	
-1.007842	0.081618	0.000732	1.82	-3.64	0.35	0.4268	-0.0375	-0.2765	
-1.011624	0.082716	0.001952	1.05	-4.97	0.28	0.4226	-0.0438	-0.2829	
-1.017846	0.084668	0.01159	0.35	-5.18	0.63	0.4283	-0.0455	-0.2892	
-1.003938	0.08686399	0.027084	0.42	-7.07	1.19	0.4254	-0.0501	-0.2861	
-0.979538	0.084424	0.03111	-0.63	-6.23	1.68	0.4226	-0.0439	-0.2844	
-1.002596	0.083692	0.013664	-1.26	-5.39	1.89	0.4212	-0.0424	-0.2859	
-1.034804	0.08601	0.027572	-0.7	-5.81	1.61	0.4283	-0.0455	-0.2907	
-1.029802	0.088572	0.02318	-0.28	-6.16	1.61	0.4198	-0.0392	-0.2827	
-1.003938	0.091988	0.023912	0.7	-5.53	1.82	0.4268	-0.0485	-0.2846	
-0.980758	0.0915	0.030256	0.21	-4.06	1.47	0.4268	-0.0483	-0.2768	
-0.988444	0.089182	0.020618	-0.42	-2.66	0.63	0.424	-0.0531	-0.2862	
-1.059936	0.09028	-0.006588	-0.14	-3.15	0.07	0.4155	-0.05	-0.2814	
-1.122888	0.098088	0.028182	0.77	-9.38	0.28	0.424	-0.0532	-0.2893	
-1.088362	0.090524	0.013664	1.61	-12.32	2.38	0.4184	-0.047	-0.2876	
-1.019554	0.088572	0.020252	1.75	-10.36	3.85	0.4227	-0.0409	-0.289	
-0.981734	0.088328	0.023912	2.38	-8.4	2.66	0.4269	-0.0518	-0.2924	
-0.9882	0.08723	0.019154	2.59	-8.26	0.56	0.4141	-0.0515	-0.2814	
-1.056032	0.092842	0.005368	2.59	-9.94	-1.4	0.4156	-0.0535	-0.3002	
-1.122522	0.09699	0.027694	3.15	-17.64	-0.49	0.4255	-0.0457	-0.2985	
-1.060424	0.105652	0.036112	3.99	-23.03	3.57	0.4142	-0.0551	-0.3018	
-1.0065	0.111508	0.04453	3.5	-23.94	4.76	0.4001	-0.052	-0.3001	
-0.998326	0.110044	0.049532	3.15	-22.89	4.41	0.4001	-0.052	-0.3001	
-0.99918	0.09516	0.071004	2.45	-23.73	2.31	0.4101	-0.0601	-0.3159	
-1.014918	0.089182	0.084546	2.38	-25.9	1.26	0.3988	-0.0598	-0.3065	
-1.013942	0.09272	0.104432	2.59	-26.81	1.4	0.3932	-0.0541	-0.3234	
-0.999058	0.095648	0.120048	2.87	-25.83	2.52	0.3932	-0.0588	-0.3251	
-0.982466	0.09747799	0.134322	2.31	-24.64	3.57	0.4031	-0.0496	-0.3265	
-0.965874	0.095038	0.140178	1.33	-25.83	3.71	0.3847	-0.0556	-0.3188	
-0.975756	0.094062	0.153598	0.28	-26.88	4.27	0.3919	-0.0543	-0.3328	
-0.98942	0.101016	0.146278	0.42	-31.01	4.69	0.3863	-0.0623	-0.3408	
-0.989908	0.10004	0.152744	1.05	-31.64	4.13	0.3863	-0.0576	-0.3406	
-0.978318	0.098698	0.159088	1.33	-27.86	2.87	0.3863	-0.0593	-0.3438	
-0.972462	0.099552	0.170434	1.26	-25.69	1.96	0.3821	-0.0609	-0.3469	
-0.975146	0.09882	0.179828	0.35	-23.24	2.31	0.3764	-0.0625	-0.3485	
-0.969168	0.106018	0.200324	-0.98	-22.33	2.94	0.3807	-0.0626	-0.3532	
-0.9577	0.109922	0.218258	-1.82	-20.72	3.78	0.3765	-0.0626	-0.3547	
-0.93696	0.109678	0.235338	-2.66	-19.95	4.27	0.3807	-0.0503	-0.356	
-0.921832	0.10248	0.246196	-2.31	-16.8	3.71	0.3694	-0.0687	-0.3502	
-0.919758	0.100284	0.2501	-3.01	-14.91	3.36	0.3737	-0.0629	-0.3641	
-0.911828	0.1037	0.254004	-2.73	-13.02	3.08	0.3709	-0.0721	-0.3643	
-0.909632	0.110654	0.259738	-1.68	-10.29	2.24	0.3737	-0.0583	-0.3686	
-0.915	0.115656	0.26535	-0.91	-6.93	1.33	0.3708	-0.0656	-0.3517	
-0.923296	0.117852	0.266204	-0.49	-4.34	0.91	0.3723	-0.0674	-0.3611	
-0.935008	0.116998	0.263764	-0.7	-1.82	0.7	0.3581	-0.0596	-0.3577	
-0.933788	0.11773	0.254126	-0.49	0.91	0.28	0.3624	-0.0674	-0.3594	
-0.938912	0.11895	0.249246	-0.14	3.92	-0.07	0.3751	-0.0645	-0.3672	
-0.942572	0.118096	0.242658	0.14	5.46	-0.56	0.361	-0.0629	-0.3655	
-0.947696	0.11529	0.241194	0.63	8.26	-1.75	0.3694	-0.0659	-0.361	
-0.944524	0.116022	0.241926	1.33	9.59	-2.87	0.3765	-0.0642	-0.3579	
-0.952454	0.116754	0.2379	1.75	11.06	-3.92	0.368	-0.0674	-0.3626	
-0.95404	0.113704	0.233142	1.89	12.95	-4.2	0.3694	-0.0721	-0.3643	
-0.955138	0.113094	0.2257	1.61	15.47	-4.41	0.3708	-0.0689	-0.3595	
-0.954406	0.108336	0.221552	1.75	17.22	-4.83	0.3807	-0.0642	-0.3564	
-0.949648	0.10675	0.213866	2.31	19.88	-5.46	0.3694	-0.0533	-0.3513	
-0.940864	0.104432	0.207888	2.59	22.26	-6.16	0.3666	-0.0564	-0.3514	
-0.94672	0.102602	0.203984	2.24	24.43	-7	0.3722	-0.0577	-0.3437	
-0.95526	0.101504	0.197518	2.03	26.25	-7.28	0.3849	-0.0546	-0.3406	
-0.961726	0.09882	0.185806	1.82	28.14	-7.56	0.3792	-0.0545	-0.3374	
-0.967094	0.09211	0.177388	1.19	29.89	-7.7	0.3834	-0.053	-0.3389	
-0.964898	0.090158	0.165554	0.77	31.57	-7.84	0.3933	-0.0528	-0.3343	
-0.967216	0.09089	0.149328	0.7	33.67	-8.33	0.4045	-0.0528	-0.3313	
-0.96929	0.088938	0.13847	0.7	34.93	-9.03	0.4031	-0.0509	-0.3203	
-0.971242	0.082716	0.117608	0.28	35.56	-9.24	0.3932	-0.0632	-0.3159	
-0.969046	0.080642	0.10248	-0.35	36.54	-8.75	0.4045	-0.0524	-0.3188	
-0.970632	0.077714	0.088816	-0.7	37.24	-7.84	0.4059	-0.0541	-0.322	
-0.977586	0.074542	0.080764	-0.77	37.03	-6.3	0.4115	-0.0552	-0.308	
-0.988444	0.070516	0.07124799	-0.84	36.47	-5.74	0.4072	-0.0472	-0.2953	
-0.9943	0.07015	0.057462	-0.28	35.56	-5.25	0.4128	-0.0503	-0.2939	
-1.005524	0.06893	0.038674	-0.56	35.84	-4.76	0.417	-0.0624	-0.2848	
-1.010526	0.071126	0.021106	-1.47	33.18	-4.48	0.4184	-0.0422	-0.2797	
-1.010282	0.063318	0.009881999	-2.1	29.4	-4.34	0.4254	-0.0376	-0.2812	
-1.019676	0.056486	0.002562	-3.64	28.35	-3.43	0.4268	-0.0575	-0.277	
-1.012478	0.05795	-0.010126	-4.83	23.03	-2.38	0.4225	-0.0481	-0.2705	
-1.025776	0.052948	-0.016714	-5.18	25.9	-0.98	0.4366	-0.0387	-0.2641	
-1.031876	0.04697	-0.018422	-6.23	22.82	0.56	0.4338	-0.0467	-0.2736	
-1.016504	0.051972	-0.026718	-6.37	19.53	1.4	0.4338	-0.0343	-0.2702	
-1.014796	0.061976	-0.053802	-5.18	18.34	1.89	0.4436	-0.0337	-0.25	
-1.025776	0.056608	-0.050508	-5.95	18.55	1.75	0.438	-0.0385	-0.2563	
-1.027728	0.064538	-0.052094	-3.22	18.41	1.05	0.4366	-0.0387	-0.2641	
-1.005768	0.066368	-0.038918	-3.57	14.63	1.26	0.4422	-0.0431	-0.2533	
-1.019676	0.076738	-0.062464	-0.49	15.19	1.05	0.445	-0.0384	-0.2501	
-1.048834	0.091866	-0.06893	-0.7	16.8	0.35	0.438	-0.0368	-0.25	
-1.051518	0.100162	-0.092964	2.24	20.51	-1.26	0.4393	-0.0443	-0.2424	
-1.02541	0.10919	-0.096258	1.19	17.85	-1.61	0.4436	-0.0506	-0.2473	
-0.998814	0.09211	-0.09357399	2.52	18.48	-2.52	0.4379	-0.0395	-0.2345	
-0.971974	0.08601	-0.092598	3.15	15.4	-3.22	0.4491	-0.041	-0.2315	
-0.97905	0.081374	-0.100284	1.54	9.87	-4.34	0.4492	-0.0318	-0.236	
-1.020042	0.06734399	-0.110532	1.89	8.12	-5.81	0.4562	-0.044	-0.2316	
-1.064572	0.054168	-0.137128	2.17	9.24	-5.95	0.4477	-0.0394	-0.2299	
-1.083116	0.049532	-0.148108	1.75	14.07	-6.02	0.452	-0.0441	-0.2347	
-1.104466	0.073078	-0.110776	0.84	21.28	-2.59	0.4491	-0.0409	-0.23	
-0.97722	0.064294	-0.199836	-2.52	-5.6	2.87	0.4477	-0.0378	-0.2283	
-1.002474	0.069418	-0.137006	-3.78	20.51	1.26	0.4505	-0.0268	-0.2203	
-0.997594	0.088572	-0.108092	-6.37	7.77	1.47	0.4462	-0.033	-0.2188	
-1.036878	0.092354	-0.143838	-5.18	7.7	-0.35	0.4463	-0.0392	-0.2221	
-1.035536	0.083936	-0.161894	-4.2	12.95	-2.24	0.4491	-0.0347	-0.2282	
-1.047858	0.066124	-0.155062	-3.08	20.09	-2.94	0.4449	-0.0317	-0.2281	
-1.037366	0.055876	-0.169824	-1.68	21	-2.59	0.4476	-0.0314	-0.2172	
-1.027362	0.05429	-0.167384	-0.7	19.74	-2.03	0.4561	-0.0282	-0.2157	
-1.017846	0.042212	-0.185196	-0.91	15.19	-1.05	0.4589	-0.0328	-0.2127	
-1.020896	0.036112	-0.1891	-0.63	16.31	-0.63	0.4589	-0.0312	-0.2095	
-1.006866	0.043432	-0.191052	-0.84	14.35	-0.07	0.4688	-0.0204	-0.2109	
-1.007842	0.044652	-0.186538	-1.05	14.84	-0.35	0.449	-0.0356	-0.2018	
-0.99918	0.050508	-0.185196	-1.19	11.62	-0.21	0.4532	-0.0293	-0.1954	
-0.984418	0.052338	-0.18117	-1.4	11.83	-0.63	0.4532	-0.0281	-0.2094	
-1.005646	0.054656	-0.188124	-2.31	12.32	-0.56	0.4588	-0.0324	-0.1971	
-1.00711	0.059536	-0.183	-4.06	10.57	0	0.4616	-0.0323	-0.194	
-1.01809	0.066612	-0.195078	-1.54	9.8	-0.07	0.463	-0.0337	-0.1878	
-1.010038	0.062342	-0.202154	-0.14	13.58	0.28	0.4588	-0.0339	-0.1971	
-1.0126	0.062708	-0.20313	0.56	13.09	0.49	0.4644	-0.0305	-0.1846	
-1.000522	0.062464	-0.216794	2.24	13.51	0.21	0.4644	-0.0337	-0.1878	
-0.992348	0.062098	-0.211426	2.03	11.83	-0.28	0.47	-0.0305	-0.1815	
-1.010892	0.057096	-0.23424	2.59	11.06	-0.91	0.47	-0.029	-0.183	
-1.019188	0.055388	-0.246074	1.54	9.1	-1.19	0.463	-0.029	-0.1845	
-1.006134	0.058316	-0.227896	1.4	9.94	-1.19	0.4672	-0.0335	-0.1784	
-0.994422	0.060634	-0.22326	1.68	11.06	-0.63	0.4728	-0.0321	-0.1847	
-0.989786	0.06039	-0.234362	1.68	10.01	0.07	0.4728	-0.0288	-0.1768	
-1.00162	0.060146	-0.244366	1.19	7.49	0.07	0.4685	-0.0364	-0.1723	
-1.013698	0.062708	-0.261812	0.42	4.27	-0.28	0.4658	-0.035	-0.1785	
-1.00772	0.062952	-0.26535	1.4	2.17	-0.77	0.4685	-0.0317	-0.1691	
-0.994666	0.057584	-0.258274	1.12	3.64	-0.49	0.4657	-0.0255	-0.1689	
-0.989908	0.0549	-0.258152	1.05	2.59	-0.21	0.4643	-0.0396	-0.1786	
-0.990884	0.056852	-0.230336	0.14	-0.56	0.35	0.4713	-0.044	-0.1694	
-0.99674	0.053558	-0.239608	0.42	0.28	0.28	0.4587	-0.0241	-0.1735	
-1.002596	0.054168	-0.238632	-0.28	-1.12	0.14	0.4671	-0.0303	-0.1737	
-0.99979	0.052826	-0.232288	-0.7	-2.52	0.07	0.4601	-0.0348	-0.1706	
-0.989664	0.052216	-0.234118	-1.4	-2.52	0.21	0.4672	-0.0335	-0.1784	
-0.988932	0.053802	-0.23302	-0.98	-2.17	0.35	0.4672	-0.0335	-0.1784	
-0.994422	0.060024	-0.237534	0.21	-1.47	0.21	0.4671	-0.027	-0.1674	
-1.000522	0.06344	-0.239608	0.84	-2.03	0.14	0.4686	-0.0367	-0.1848	
-1.003328	0.062464	-0.242292	1.26	-2.03	-0.21	0.47	-0.0305	-0.1815	
-1.00284	0.062464	-0.2379	1.96	-2.24	-0.56	0.4714	-0.0226	-0.1751	
-1.009672	0.062464	-0.251808	1.75	-2.94	-0.77	0.4672	-0.032	-0.18	
-1.016992	0.060268	-0.254858	2.03	-4.06	-1.12	0.4615	-0.0443	-0.1787	
-1.021262	0.057584	-0.261202	1.26	-6.3	-1.26	0.4643	-0.0318	-0.1722	
-1.03456	0.060512	-0.258396	1.12	-7.77	-0.98	0.4671	-0.0271	-0.1689	
-1.031876	0.062464	-0.259128	1.54	-9.03	-0.7	0.47	-0.035	-0.1801	
-1.031388	0.060512	-0.266692	1.61	-11.55	-0.42	0.4616	-0.0337	-0.1862	
-1.031632	0.050264	-0.262056	-0.77	-16.59	0.35	0.4757	-0.0245	-0.1892	
-1.030168	0.050386	-0.260226	-1.61	-23.87	0.77	0.4616	-0.0277	-0.1923	
-1.026142	0.052948	-0.24827	-0.77	-26.95	0.42	0.4616	-0.0307	-0.1924	
-1.02419	0.05368	-0.235338	-2.24	-29.75	0.42	0.4631	-0.0247	-0.1969	
-1.025776	0.051728	-0.221552	-0.49	-28.98	-0.07	0.4546	-0.0233	-0.2031	
-1.02846	0.0549	-0.218868	0.07	-25.13	-0.07	0.4518	-0.0341	-0.2017	
-1.032852	0.051972	-0.197274	0.56	-26.95	-0.42	0.4645	-0.0357	-0.2081	
-1.03212	0.061488	-0.177754	2.59	-24.92	-0.98	0.4575	-0.0346	-0.2236	
-1.037488	0.056486	-0.170922	0.7	-22.4	-0.77	0.4505	-0.0362	-0.2267	
-1.050298	0.06527	-0.145302	-2.59	-28.14	1.68	0.4505	-0.0268	-0.2171	
-1.016748	0.067832	-0.129442	-4.69	-41.79	3.78	0.4477	-0.0284	-0.2203	
-0.992226	0.071004	-0.08418	-2.45	-29.68	3.43	0.4506	-0.0274	-0.2437	
-0.994056	0.064172	-0.07808	-2.8	-22.89	3.36	0.452	-0.032	-0.2422	
-1.001986	0.058438	-0.075274	-2.87	-22.4	3.43	0.4478	-0.0335	-0.2422	
-1.005402	0.056608	-0.061732	-1.75	-17.01	3.43	0.4506	-0.032	-0.2422	
-1.01565	0.05246	-0.05673	-0.07	-9.94	3.29	0.445	-0.0244	-0.2467	
-1.019432	0.055876	-0.064416	-0.07	1.54	3.08	0.4379	-0.0305	-0.2452	
-1.024556	0.066246	-0.079544	1.89	3.01	3.29	0.4366	-0.0446	-0.2533	
-1.021872	0.06893	-0.073444	1.26	1.12	3.43	0.4479	-0.0278	-0.2592	
-1.01504	0.066368	-0.088938	2.17	-0.28	3.15	0.4436	-0.0383	-0.247	
-1.01748	0.065392	-0.111996	1.26	-4.9	3.71	0.4535	-0.0414	-0.2503	
-1.022116	0.066124	-0.116998	3.08	-9.24	4.34	0.4421	-0.0319	-0.239	
-1.029924	0.06734399	-0.103944	4.55	-15.26	5.25	0.4394	-0.0353	-0.25	
-1.028094	0.072712	-0.089426	3.5	-17.99	5.67	0.4492	-0.0368	-0.2486	
-1.020774	0.077226	-0.100406	2.45	-25.06	5.32	0.4492	-0.0337	-0.25	
-1.017724	0.071858	-0.07747	0.42	-31.22	4.76	0.4408	-0.0415	-0.2517	
-1.012966	0.055754	-0.037698	2.03	-31.71	3.85	0.4423	-0.0372	-0.2641	
-1.028704	0.059536	-0.032574	3.43	-31.22	5.11	0.431	-0.0356	-0.264	
-1.03334	0.090524	-0.012566	4.13	-33.67	6.3	0.4324	-0.0418	-0.2626	
-1.014796	0.115168	0.00183	3.15	-42.28	6.86	0.4282	-0.0482	-0.2736	
-0.986248	0.134444	0.036722	3.85	-38.08	5.46	0.4183	-0.056	-0.2785	
-0.94794	0.113582	0.111752	1.19	-39.97	4.69	0.4212	-0.0607	-0.2817	
-0.972706	0.12017	0.041846	-1.05	-35.91	3.85	0.417	-0.0517	-0.2892	
-0.961726	0.116022	0.089426	-1.05	-36.47	3.36	0.4198	-0.0518	-0.2939	
-0.951966	0.0976	0.085156	-0.07	-30.8	2.52	0.4142	-0.055	-0.3002	
-0.95709	0.09211	0.0976	2.17	-29.26	0.21	0.41	-0.052	-0.3001	
-0.966362	0.088328	0.097234	3.5	-30.45	-1.05	0.4057	-0.0564	-0.294	
-0.967338	0.084058	0.113704	2.94	-30.66	-1.19	0.4087	-0.06	-0.3143	
-0.954284	0.08967	0.125904	0.28	-31.08	-0.21	0.3988	-0.0494	-0.3202	
-0.957822	0.092964	0.142862	-1.68	-28.14	-0.35	0.3946	-0.0525	-0.3203	
-0.95709	0.079544	0.154208	-2.94	-30.17	-0.07	0.3904	-0.0558	-0.3297	
-0.958188	0.070882	0.178852	-2.17	-25.13	-1.19	0.4003	-0.0514	-0.3375	
-0.944524	0.069052	0.186904	-0.21	-23.24	-1.89	0.3961	-0.0668	-0.3394	
-0.957578	0.06734399	0.18056	1.89	-18.2	-3.01	0.3919	-0.056	-0.3391	
-0.965752	0.072834	0.186416	3.36	-17.92	-2.73	0.3876	-0.0652	-0.3362	
-0.995032	0.080276	0.182756	2.66	-17.5	-1.26	0.3877	-0.0499	-0.3405	
-1.001864	0.092476	0.181536	1.19	-18.2	0.63	0.3806	-0.0577	-0.3437	
-0.976732	0.092842	0.1769	0.7	-19.46	2.03	0.3863	-0.0578	-0.3469	
-0.970144	0.087718	0.178486	-0.21	-14.77	1.26	0.3806	-0.0605	-0.3313	
-0.967948	0.080398	0.183122	-0.07	-11.62	-0.21	0.3764	-0.0625	-0.35	
-0.967338	0.076372	0.192882	0.21	-9.17	-1.19	0.3835	-0.0517	-0.3483	
-0.963312	0.077226	0.206668	0.91	-6.16	-0.98	0.3821	-0.0472	-0.3528	
-0.94489	0.083692	0.222406	0.42	-3.71	-0.21	0.3891	-0.0608	-0.3454	
-0.93208	0.090036	0.230336	0.42	-1.33	0.21	0.3765	-0.061	-0.3531	
-0.934642	0.095648	0.234362	0.07	0.28	-0.28	0.3765	-0.0489	-0.3591	
-0.940986	0.09552599	0.230214	0.35	1.4	-1.33	0.3793	-0.0519	-0.356	
-0.948184	0.093818	0.221308	0.49	3.78	-1.82	0.3765	-0.0472	-0.3528	
-0.957334	0.086132	0.213256	0.63	6.72	-1.68	0.3722	-0.0562	-0.3436	
-0.957822	0.083448	0.204472	0.63	9.17	-0.77	0.3765	-0.0581	-0.3577	
-0.956358	0.083936	0.19947	0.84	11.62	-0.49	0.3863	-0.0515	-0.3436	
-0.95343	0.085278	0.195322	0.63	13.86	-1.12	0.3807	-0.0518	-0.3529	
-0.958066	0.081862	0.191662	0.77	15.54	-2.31	0.3835	-0.0502	-0.3498	
-0.977342	0.078202	0.185318	0.98	17.5	-3.01	0.3863	-0.0502	-0.3514	
-0.981978	0.076372	0.179706	0.42	18.27	-2.59	0.3891	-0.0485	-0.3467	
-0.976122	0.078324	0.173118	-0.14	20.65	-1.96	0.3862	-0.0529	-0.3343	
-0.960628	0.081862	0.166774	-0.35	23.31	-1.82	0.4046	-0.0606	-0.3361	
-0.951356	0.08174	0.158478	-0.77	24.64	-2.24	0.3919	-0.0575	-0.3344	
-0.94855	0.078568	0.15006	-1.19	26.39	-3.43	0.3947	-0.048	-0.3264	
-0.958188	0.077836	0.1464	-2.45	27.86	-4.34	0.3975	-0.0573	-0.3282	
-0.967094	0.077348	0.135908	-3.29	29.4	-4.62	0.4073	-0.051	-0.3219	
-0.969656	0.075762	0.127612	-3.71	29.82	-4.06	0.4058	-0.0414	-0.3092	
-0.965996	0.070516	0.116998	-3.78	31.29	-3.5	0.4058	-0.0537	-0.3064	
-0.962214	0.073078	0.108946	-3.78	32.34	-3.08	0.403	-0.043	-0.3108	
-0.956846	0.069052	0.095892	-3.99	32.55	-2.1	0.4128	-0.0474	-0.3016	
-0.95404	0.067466	0.08295999	-3.78	33.6	-1.61	0.4157	-0.0507	-0.3095	
-0.958676	0.069174	0.075396	-2.73	33.88	-1.54	0.4184	-0.0393	-0.2874	
-0.972706	0.066124	0.055876	-3.15	32.9	-1.82	0.4353	-0.0485	-0.2846	
-0.972218	0.063806	0.045872	-3.78	31.85	-1.75	0.4297	-0.044	-0.2923	
-0.988322	0.06039	0.03233	-3.99	31.71	-1.68	0.4226	-0.0514	-0.2784	
-1.00589	0.06283	0.022204	-3.08	30.73	-1.89	0.4254	-0.0436	-0.2751	
-1.020164	0.060756	-0.005612	-4.41	27.86	-0.21	0.4282	-0.0436	-0.2751	
-1.045296	0.064294	-0.02074	-3.85	28.14	1.05	0.431	-0.0497	-0.2737	
-1.042124	0.062586	-0.030622	-2.73	27.3	1.61	0.431	-0.0527	-0.2691	
-1.04066	0.068442	-0.051606	-1.68	26.88	1.4	0.4381	-0.0374	-0.2734	
-1.025776	0.076738	-0.067222	-1.05	24.92	0.49	0.4408	-0.051	-0.2613	
-1.0126	0.076982	-0.06832	-0.49	24.15	-0.21	0.4338	-0.0401	-0.2595	
-0.99003	0.087352	-0.062952	1.75	19.18	-0.63	0.4421	-0.0475	-0.2457	
-1.008574	0.086254	-0.0732	1.05	12.74	-1.12	0.4408	-0.0369	-0.2516	
-1.014308	0.09272	-0.073688	2.8	13.37	-3.29	0.4464	-0.0461	-0.2519	
-1.035536	0.091134	-0.083082	2.73	12.18	-4.27	0.4365	-0.0337	-0.2468	
-1.074698	0.091256	-0.097844	4.48	14.35	-4.76	0.4408	-0.0369	-0.2532	
-1.046638	0.080154	-0.10736	4.69	17.78	-4.27	0.445	-0.0413	-0.244	
-1.001254	0.06588	-0.104188	3.57	21.14	-3.85	0.4422	-0.0351	-0.2438	
-0.97112	0.049044	-0.106262	3.01	22.33	-3.92	0.4393	-0.041	-0.233	
-0.991006	0.038186	-0.091256	-1.19	11.27	-3.01	0.452	-0.041	-0.2347	
-1.043466	0.057584	-0.124196	2.66	17.22	-4.83	0.4534	-0.0332	-0.2298	
-1.106052	0.085644	-0.09882	-4.9	22.68	0.63	0.4463	-0.0411	-0.2346	
-1.07055	0.07991	-0.226554	3.22	25.97	1.61	0.4576	-0.0362	-0.2252	
-0.99918	0.068198	-0.156282	-1.47	35.28	1.82	0.4519	-0.0407	-0.2206	
-0.974292	0.06039	-0.146766	0.07	33.81	0.77	0.4448	-0.0375	-0.2143	
-0.972828	0.060512	-0.146034	-1.19	28.77	0.49	0.4575	-0.0359	-0.2143	
-1.002718	0.06222	-0.188368	-3.64	25.06	0.63	0.4462	-0.0481	-0.2099	
-1.023946	0.060024	-0.20801	-1.82	31.01	-0.49	0.4574	-0.0386	-0.1972	
-1.011502	0.06649	-0.207522	-0.77	35.77	-0.91	0.4574	-0.0356	-0.2003	
-1.006012	0.072224	-0.213744	0.56	38.36	-0.56	0.4588	-0.0368	-0.1878	
-1.014308	0.058804	-0.239852	-4.41	33.81	1.05	0.4616	-0.0413	-0.1848	
-1.011868	0.06283	-0.236802	-0.49	27.23	-0.14	0.4686	-0.0336	-0.1847	
-1.005158	0.047824	-0.279624	3.08	40.18	-1.19	0.4658	-0.0431	-0.1943	
-0.980148	0.069052	-0.238022	-0.07	37.45	-0.14	0.4643	-0.0379	-0.1707	
-0.995154	0.057828	-0.256566	0.28	34.09	0.14	0.4699	-0.0299	-0.1597	
-0.998082	0.058194	-0.293654	2.24	40.74	-0.14	0.467	-0.039	-0.1537	
-0.985394	0.051362	-0.313784	4.13	49.07	-0.14	0.474	-0.0309	-0.1379	
-0.978806	0.04148	-0.357216	15.47	79.66	-3.71	0.4726	-0.0402	-0.1381	
-0.930372	0.053314	-0.33428	22.26	106.26	-8.4	0.4823	-0.0363	-0.1054	
-0.93818	0.045994	-0.364902	19.39	112.42	-9.1	0.4822	-0.0361	-0.1007	
-0.964532	0.04392	-0.422364	17.92	116.69	-8.33	0.4863	-0.0324	-0.0726	
-0.915	0.039406	-0.483486	15.89	116.06	-7.49	0.4891	-0.029	-0.0631	
-0.872788	0.04575	-0.526674	15.96	111.3	-6.58	0.4904	-0.0347	-0.0415	
-0.8601	0.042212	-0.575474	16.24	106.89	-7.77	0.4889	-0.0187	-0.0192	
-0.866688	0.025498	-0.620858	15.68	96.81	-7.56	0.4803	-0.0246	-0.0084	
-0.846924	0.018666	-0.652822	14.42	83.37	-6.02	0.4901	-0.0132	0.0151	
-0.822158	0.011224	-0.67344	12.81	66.92	-4.97	0.4886	-0.027	0.021	
-0.804224	0.00915	-0.670634	10.43	50.89	-3.57	0.4872	-0.0238	0.0242	
-0.790316	0.013298	-0.688568	7.63	39.34	-2.59	0.4928	-0.0173	0.0383	
-0.792756	0.011834	-0.706258	5.32	26.39	-2.24	0.4814	-0.017	0.0493	
-0.793976	0.007442	-0.711016	2.52	11.62	-1.4	0.473	-0.0188	0.0415	
-0.786168	0.005978	-0.691008	-0.28	-1.68	-0.21	0.4716	-0.0095	0.0418	
-0.7869	0.005124	-0.673074	-2.38	-9.38	0.63	0.487	-0.0169	0.0524	
-0.798856	0.003782	-0.681248	-3.92	-14.21	1.26	0.48	-0.02	0.0555	
-0.80398	0.004148	-0.668682	-5.04	-22.12	2.1	0.4786	-0.0154	0.0525	
-0.802516	0.016592	-0.649162	-4.9	-25.48	2.73	0.4744	-0.022	0.0368	
-0.805078	0.022692	-0.632082	-4.06	-26.11	2.87	0.4942	-0.007999999	0.0417	
-0.80276	0.018422	-0.623176	-3.36	-23.38	2.59	0.4872	-0.0174	0.0321	
-0.810934	0.013908	-0.616832	-3.57	-21.49	2.45	0.4843	-0.0344	0.0302	
-0.824232	0.016592	-0.622444	-4.27	-21.07	2.94	0.4844	-0.0208	0.0212	
-0.833016	0.023668	-0.628544	-4.41	-23.52	3.5	0.4886	-0.0177	0.0228	
-0.842898	0.026352	-0.629154	-3.99	-28.77	4.13	0.4816	-0.0223	0.0211	
-0.845826	0.028182	-0.615978	-4.34	-35.42	4.48	0.4816	-0.021	0.0118	
-0.846558	0.032208	-0.604754	-4.34	-41.72	4.76	0.4915	-0.0179	0.0118	
-0.855708	0.030744	-0.586454	-4.41	-47.18	4.69	0.4888	-0.0246	-0.0069	
-0.87291	0.026962	-0.57401	-4.62	-52.92	4.76	0.4902	-0.0244	-0.0023	
-0.887184	0.028426	-0.559614	-5.18	-58.1	5.04	0.4874	-0.0307	-0.0071	
-0.897432	0.039772	-0.540948	-5.81	-64.61	5.74	0.4832	-0.031	-0.018	
-0.914756	0.047702	-0.526064	-6.37	-71.33	6.3	0.4903	-0.0313	-0.032	
-0.925858	0.053558	-0.511912	-5.04	-78.12	6.65	0.489	-0.0316	-0.0414	
-0.947696	0.035624	-0.484828	-3.22	-83.93	5.88	0.4862	-0.0304	-0.0569	
-0.969534	0.049288	-0.517646	10.85	-59.71	1.82	0.4807	-0.031	-0.0787	
-0.965386	0.044408	-0.46909	-4.13	-29.33	3.92	0.4864	-0.039	-0.0914	
-0.960384	0.042822	-0.475434	-4.48	-46.97	5.53	0.4836	-0.0469	-0.0994	
-0.961604	0.031964	-0.421754	-3.64	-60.06	5.53	0.4865	-0.0347	-0.1053	
-0.961604	0.029402	-0.386496	-11.55	-54.74	6.79	0.4851	-0.0411	-0.1133	
-0.9821	0.049288	-0.418338	-9.31	-49.91	6.79	0.4823	-0.0442	-0.1165	
-0.985272	0.053192	-0.39833	-14.84	-50.82	6.58	0.4824	-0.043	-0.1274	
-0.925614	0.058438	-0.39101	-20.16	-65.03	7.28	0.4782	-0.0463	-0.1383	
-1.01565	0.021228	-0.310002	-9.31	-70.84	2.73	0.4713	-0.0408	-0.1631	
-1.027118	-0.004514	-0.339404	-6.79	-59.64	-0.14	0.4699	-0.0331	-0.1629	
-1.025654	0.030378	-0.308782	-4.34	-52.71	-2.03	0.4714	-0.0333	-0.1707	
-1.02968	0.064416	-0.254492	2.1	-60.83	0.14	0.4686	-0.0458	-0.1772	
-1.027362	0.083692	-0.25498	-1.47	-61.32	3.57	0.4644	-0.0323	-0.194	
-1.009428	0.093818	-0.213988	0.07	-53.55	4.13	0.4588	-0.0402	-0.2019	
-1.001376	0.115778	-0.181292	-3.99	-52.01	4.97	0.4546	-0.0404	-0.2082	
-0.98271	0.122488	-0.148352	-4.41	-51.31	3.5	0.4603	-0.0499	-0.2209	
-0.974414	0.119194	-0.110532	-6.51	-49.77	2.03	0.4505	-0.0392	-0.2206	
-0.986248	0.111752	-0.088084	-7.35	-45.15	1.26	0.4575	-0.0592	-0.2227	
-0.996862	0.102236	-0.081496	-8.19	-42.91	0.77	0.4491	-0.0532	-0.2287	
-1.004426	0.087352	-0.05978	-7.56	-35.7	0.84	0.4421	-0.0458	-0.2394	
-1.007842	0.079178	-0.050142	-5.25	-27.72	1.89	0.4407	-0.0553	-0.249	
-0.986004	0.07015	-0.04636	-7.21	-30.17	4.2	0.4408	-0.0446	-0.2549	
-0.965508	0.069784	-0.031476	-8.26	-28.49	4.9	0.4408	-0.0476	-0.2519	
-0.959896	0.066734	-0.025742	-9.73	-30.52	5.18	0.4436	-0.0477	-0.255	
-0.978806	0.073444	-0.011956	-10.08	-30.31	4.48	0.4366	-0.051	-0.2613	
-0.999912	0.068442	-0.027816	-9.1	-33.18	4.06	0.4253	-0.0495	-0.2643	
-1.018944	0.062708	-0.013542	-9.03	-33.81	4.41	0.4281	-0.0432	-0.2564	
-1.038952	0.068686	0.016348	-4.2	-29.54	3.99	0.4268	-0.0529	-0.2769	
-1.03639	0.058804	0.013542	-4.34	-33.88	4.83	0.4226	-0.0485	-0.2861	
-1.000034	0.067954	0.03294	-2.24	-25.48	5.74	0.4183	-0.0575	-0.2769	
-0.96563	0.074298	0.069052	-3.57	-38.29	3.78	0.4184	-0.0501	-0.2892	
-0.973316	0.091256	0.080398	-2.66	-27.79	3.5	0.4142	-0.0518	-0.2939	
-0.98393	0.08845	0.082594	-2.1	-26.88	3.5	0.4142	-0.0549	-0.2955	
-0.975146	0.079422	0.091256	-0.56	-24.57	4.2	0.4171	-0.0522	-0.308	
-0.971486	0.072712	0.093086	-1.82	-26.67	5.39	0.4101	-0.0537	-0.3095	
-0.974048	0.091012	0.09747799	0.98	-25.41	3.99	0.4128	-0.0505	-0.3032	
-0.977708	0.092964	0.091988	1.61	-25.62	3.36	0.4157	-0.0491	-0.3079	
-0.979294	0.102358	0.102846	1.26	-26.39	2.73	0.4045	-0.0539	-0.3173	
-0.975634	0.113338	0.114924	0.35	-25.97	2.45	0.4073	-0.0556	-0.3205	
-0.964044	0.11163	0.1281	-0.42	-24.29	2.52	0.3932	-0.0496	-0.3265	
-0.956602	0.110776	0.143228	-0.84	-23.03	2.52	0.3989	-0.062	-0.3299	
-0.953308	0.1037	0.160064	-0.84	-18.69	2.17	0.3946	-0.0647	-0.3175	
-0.96136	0.106506	0.167994	-0.7	-17.99	1.89	0.3918	-0.054	-0.3203	
-0.97112	0.110776	0.173728	-0.63	-16.87	1.89	0.4003	-0.051	-0.3234	
-0.973072	0.10431	0.173728	-1.75	-15.33	2.24	0.389	-0.0605	-0.3329	
-0.950624	0.097966	0.17446	-2.03	-13.86	2.87	0.382	-0.0544	-0.3327	
-0.930982	0.097844	0.176656	-1.61	-10.29	1.96	0.3919	-0.0559	-0.3344	
-0.93208	0.098088	0.178242	-1.33	-6.09	0.21	0.3989	-0.0559	-0.3344	
-0.942572	0.101504	0.187392	-0.56	-2.52	-1.33	0.3876	-0.056	-0.3359	
-0.943914	0.095892	0.195566	-0.28	-0.07	-1.19	0.3848	-0.0713	-0.3332	
-0.944768	0.096014	0.20008	0	2.8	-0.91	0.382	-0.0622	-0.3376	
-0.94977	0.096868	0.201788	0.98	5.25	-0.63	0.3834	-0.0543	-0.3296	
-0.944402	0.09747799	0.193126	1.33	8.26	-0.84	0.3905	-0.0607	-0.3392	
-0.943426	0.097966	0.183122	1.61	11.2	-1.96	0.3891	-0.0562	-0.3453	
-0.941108	0.095038	0.174216	1.89	13.72	-2.87	0.4017	-0.056	-0.336	
-0.94245	0.092842	0.163846	1.61	15.89	-2.94	0.3989	-0.0559	-0.3344	
-0.952698	0.094062	0.156038	1.54	17.99	-2.73	0.3933	-0.0544	-0.3344	
-0.968192	0.09699	0.14579	1.75	20.09	-2.66	0.3946	-0.048	-0.3249	
-0.981124	0.101504	0.138958	1.47	21.56	-3.08	0.3932	-0.0589	-0.3298	
-0.984662	0.10004	0.130418	1.26	23.1	-3.85	0.4002	-0.0478	-0.3171	
-0.982588	0.09638	0.12261	0.91	23.87	-4.34	0.4087	-0.0509	-0.3188	
-0.972462	0.0976	0.11224	0.84	24.71	-4.27	0.4087	-0.0493	-0.3172	
-0.962946	0.09394	0.104188	0.56	25.97	-4.06	0.4073	-0.0587	-0.3221	
-0.966606	0.094184	0.098698	0.21	28.21	-4.13	0.4115	-0.0492	-0.311	
-0.979416	0.091012	0.08967	-0.07	29.54	-4.41	0.4171	-0.046	-0.3078	
-0.981978	0.09089	0.0793	-0.56	28.42	-4.62	0.4171	-0.0504	-0.2986	
-0.98149	0.08723	0.075274	-0.35	28.63	-4.97	0.4156	-0.0549	-0.294	
-0.988688	0.0793	0.054534	0.14	27.93	-4.27	0.4226	-0.0517	-0.2908	
-0.992836	0.081008	0.04392	0.56	29.68	-4.13	0.4212	-0.0408	-0.2843	
-0.995764	0.085278	0.039406	-0.35	26.11	-3.5	0.4296	-0.0419	-0.2688	
-1.002352	0.078812	0.007929999	-0.35	25.06	-3.78	0.4269	-0.0471	-0.2892	
-1.018456	0.078202	0.003782	0	24.78	-3.99	0.4212	-0.0374	-0.2718	
-1.023824	0.075884	0	-1.33	22.82	-3.29	0.4296	-0.0343	-0.2733	
-1.034072	0.07686	-0.020984	-0.84	21.77	-3.36	0.4282	-0.0387	-0.2641	
-1.016626	0.075884	-0.023668	-0.77	21.07	-4.34	0.4338	-0.0465	-0.2658	
-1.017846	0.076738	-0.029646	-1.19	19.11	-4.34	0.4324	-0.0356	-0.264	
-1.004914	0.081862	-0.034404	-0.35	16.8	-4.62	0.4281	-0.04	-0.2547	
-1.011258	0.079422	-0.034892	-0.28	18.34	-4.48	0.4409	-0.0325	-0.264	
-1.006256	0.076006	-0.047336	0.14	17.78	-4.41	0.4408	-0.0414	-0.2471	
-1.010282	0.077226	-0.04392	0.56	15.19	-3.43	0.4338	-0.0339	-0.2577	
-1.001132	0.077348	-0.047214	1.68	11.34	-3.01	0.4421	-0.0444	-0.2456	
-1.00833	0.072712	-0.0549	2.59	14.49	-3.64	0.4408	-0.0398	-0.247	
-1.004914	0.062464	-0.060512	1.75	12.67	-3.85	0.4436	-0.0307	-0.2499	
-1.01992	0.055266	-0.070516	2.31	12.18	-4.41	0.4464	-0.0412	-0.2409	
-1.023946	0.057828	-0.083448	3.08	11.13	-4.06	0.4408	-0.0461	-0.2503	
-1.0309	0.054168	-0.096014	2.8	10.78	-4.06	0.4506	-0.0381	-0.2392	
-1.033584	0.059658	-0.092842	2.1	12.53	-3.85	0.4492	-0.0368	-0.2501	
-1.040538	0.05795	-0.103944	2.1	15.33	-3.08	0.4478	-0.0365	-0.2392	
-1.039074	0.068198	-0.120414	2.94	17.43	-2.8	0.4492	-0.0213	-0.245	
-1.046272	0.061854	-0.1159	3.01	20.44	-2.73	0.452	-0.0287	-0.2328	
-1.040538	0.060268	-0.133956	3.08	21.84	-1.68	0.4576	-0.041	-0.2316	
-1.035414	0.06161	-0.133102	2.17	22.75	-2.24	0.4548	-0.0301	-0.2282	
-1.054324	0.059414	-0.14457	1.89	21.98	-2.94	0.4519	-0.0283	-0.2187	
-1.044564	0.065026	-0.150792	-5.6	16.73	0.49	0.4548	-0.0347	-0.2283	
-1.012844	0.067954	-0.167872	-1.4	22.68	-0.49	0.4547	-0.0393	-0.2268	
-1.00345	0.059414	-0.157502	-5.81	18.2	-0.07	0.4562	-0.0316	-0.2251	
-1.000522	0.059292	-0.160796	-6.3	12.67	-0.14	0.4519	-0.0236	-0.2124	
-1.027362	0.04819	-0.15677	-5.39	15.89	-0.56	0.4589	-0.0436	-0.2145	
-1.026752	0.041968	-0.186416	-3.43	16.24	1.05	0.4645	-0.031	-0.2049	
-1.009428	0.048678	-0.183732	-2.8	20.3	1.19	0.4575	-0.0358	-0.2081	
-0.99674	0.054534	-0.17995	-1.89	18.06	0.98	0.4574	-0.0279	-0.2032	
-1.006012	0.06283	-0.195932	-1.33	16.87	0.77	0.4603	-0.0388	-0.205	
-0.997106	0.060878	-0.190442	-2.1	18.27	0.63	0.456	-0.0247	-0.1969	
-0.997472	0.074542	-0.182268	-1.75	18.62	0.56	0.4588	-0.0232	-0.1968	
-0.995642	0.077592	-0.185074	-2.45	19.88	0.7	0.4574	-0.0198	-0.1858	
-0.989664	0.063806	-0.192028	-1.54	16.8	1.12	0.4644	-0.0277	-0.1939	
-0.999912	0.059048	-0.187148	-1.68	21.42	1.05	0.4645	-0.0324	-0.1971	
-1.00406	0.056364	-0.207034	-1.05	23.66	1.05	0.4673	-0.0261	-0.1923	
-1.00589	0.05673	-0.209718	-0.98	26.04	0.77	0.4601	-0.0317	-0.1706	
-0.996618	0.061122	-0.230092	1.26	28.28	0.28	0.4713	-0.0347	-0.1676	
-1.033096	0.03843	-0.320738	2.87	33.74	-0.07	0.4742	-0.0304	-0.18	
-0.99369	0.063196	-0.253272	-1.82	32.48	2.17	0.4741	-0.0252	-0.1565	
-0.986004	0.067588	-0.245464	3.5	42.98	0.84	0.4671	-0.027	-0.1643	
-0.988322	0.067832	-0.30134	1.4	41.23	1.54	0.4684	-0.0282	-0.1534	
-0.984662	0.066612	-0.330254	0.7	38.01	1.96	0.4741	-0.0358	-0.1505	
-0.98027	0.064538	-0.343796	3.22	39.27	1.33	0.4783	-0.031	-0.1426	
-0.968314	0.069052	-0.349286	4.69	39.41	0.56	0.4782	-0.0355	-0.138	
-0.986248	0.052338	-0.39284	7	39.69	-1.12	0.481	-0.0291	-0.1286	
-0.961604	0.064172	-0.376858	14.07	48.37	-3.64	0.4851	-0.0287	-0.113	
-0.956724	0.05856	-0.391376	10.99	41.02	-2.94	0.4781	-0.0319	-0.1146	
-0.954406	0.049166	-0.394182	8.82	34.93	-2.52	0.4823	-0.0286	-0.1067	
-0.94733	0.049776	-0.407724	5.74	29.26	-1.68	0.4752	-0.0377	-0.0991	
-0.941474	0.051606	-0.415044	5.04	23.8	-1.05	0.4921	-0.022	-0.0895	
-0.94611	0.050752	-0.427122	3.71	17.85	-0.63	0.4864	-0.0295	-0.0818	
-0.950014	0.055266	-0.42944	2.17	10.92	-0.35	0.4864	-0.0342	-0.0835	
-0.942572	0.055754	-0.431392	0.7	4.48	0.07	0.4794	-0.0281	-0.08639999	
-0.935618	0.055876	-0.42151	-0.63	-0.98	0.56	0.4836	-0.0311	-0.085	
-0.935008	0.052338	-0.421754	-1.89	-4.27	1.12	0.4793	-0.025	-0.0848	
-0.948306	0.055266	-0.419558	-3.99	-11.27	1.61	0.4836	-0.0297	-0.0896	
-0.947452	0.056242	-0.41541	-4.48	-13.37	1.61	0.4878	-0.0297	-0.0896	
-0.9455	0.063196	-0.40138	-5.04	-17.36	1.47	0.485	-0.0343	-0.0882	
-0.94001	0.061488	-0.395036	-5.11	-17.99	1.33	0.4892	-0.0344	-0.0913	
-0.949282	0.061	-0.390888	-5.46	-19.88	1.26	0.4794	-0.0283	-0.0958	
-0.960384	0.061366	-0.388936	-5.81	-22.05	1.4	0.4823	-0.0331	-0.1022	
-0.966728	0.068198	-0.382104	-5.6	-24.22	1.33	0.4781	-0.0271	-0.1067	
-0.967704	0.068686	-0.372344	-5.74	-26.95	1.4	0.4809	-0.0194	-0.108	
-0.969046	0.070272	-0.365878	-5.6	-29.26	1.47	0.4838	-0.032	-0.1209	
-0.972218	0.064416	-0.358314	-6.23	-33.95	1.33	0.4838	-0.0366	-0.121	
-0.977464	0.066856	-0.34709	10.15	-13.02	-3.01	0.4852	-0.026	-0.1269	
-1.007476	0.06734399	-0.371856	6.65	-8.19	-2.38	0.481	-0.0275	-0.1254	
-1.005768	0.06161	-0.396622	-1.47	-18.9	-0.14	0.4753	-0.0352	-0.124	
-1.00467	0.058926	-0.365512	-1.4	-29.4	-0.56	0.4725	-0.026	-0.1269	
-0.993934	0.058316	-0.348066	-1.33	-31.78	-0.56	0.4712	-0.0342	-0.1442	
-0.994178	0.057584	-0.330254	0	-33.46	-0.63	0.481	-0.0371	-0.1381	
-0.991982	0.054778	-0.31842	-0.21	-35.7	-0.07	0.4684	-0.0312	-0.1488	
-0.990884	0.057706	-0.294508	2.03	-34.51	0.07	0.4783	-0.0312	-0.1504	
-0.999058	0.05063	-0.28548	3.15	-36.61	0.21	0.4741	-0.0297	-0.1519	
-1.003816	0.038552	-0.279258	2.94	-33.88	0.56	0.4741	-0.0283	-0.1581	
-0.999424	0.037942	-0.263642	5.32	-29.54	0.35	0.4756	-0.0379	-0.1724	
-0.991738	0.03965	-0.25315	7.63	-24.22	-0.35	0.4672	-0.0366	-0.1801	
-0.986858	0.04575	-0.244244	12.39	-18.9	-1.26	0.4643	-0.041	-0.1724	
-0.996984	0.047702	-0.233386	14	-18.97	-1.54	0.4643	-0.0364	-0.1738	
-1.016382	0.068442	-0.227896	18.13	-17.85	-2.03	0.4686	-0.0368	-0.1895	
-1.029192	0.075518	-0.222528	16.59	-19.25	-1.4	0.4644	-0.0323	-0.1924	
-1.025654	0.077104	-0.218746	10.99	-24.15	-0.07	0.4602	-0.04	-0.1926	
-1.01199	0.089182	-0.220332	5.88	-28.84	0.7	0.4588	-0.0339	-0.1956	
-1.012234	0.089426	-0.191296	-0.21	-33.74	1.33	0.4518	-0.0309	-0.1985	
-0.99552	0.082594	-0.158356	-1.4	-35.77	1.61	0.456	-0.0448	-0.2005	
-0.984662	0.078202	-0.149694	-0.77	-30.94	0.98	0.4533	-0.0405	-0.2128	
-0.987224	0.08357	-0.127856	-2.31	-28.91	0.7	0.4546	-0.028	-0.2047	
-0.993202	0.083814	-0.101626	-4.13	-30.87	1.33	0.4533	-0.0467	-0.2161	
-0.986126	0.066124	-0.080398	-5.81	-28.84	2.03	0.4519	-0.0301	-0.2266	
-0.965142	0.050142	-0.065392	-7.14	-24.92	2.31	0.4548	-0.0347	-0.2283	
-0.955992	0.048068	-0.046848	-7.07	-22.54	1.89	0.4492	-0.0395	-0.2362	
-0.958676	0.049044	-0.034648	-4.83	-17.64	1.68	0.4492	-0.0429	-0.2456	
-0.957822	0.048312	-0.035014	-3.78	-13.23	1.96	0.4435	-0.0458	-0.241	
-0.964044	0.038918	-0.037454	-4.34	-10.08	3.01	0.445	-0.0305	-0.2421	
-0.977708	0.038796	-0.043554	-5.25	-11.27	4.76	0.4464	-0.0397	-0.2439	
-0.985028	0.04575	-0.045018	-5.11	-6.23	5.39	0.4492	-0.0319	-0.2375	
-0.99552	0.06649	-0.05673	-4.06	-1.89	5.04	0.4493	-0.0323	-0.2531	
-0.99857	0.077226	-0.06832	-3.64	-2.24	3.85	0.4478	-0.0429	-0.2471	
-0.998692	0.074176	-0.071126	-2.17	-0.77	1.4	0.4365	-0.0505	-0.2441	
-0.99247	0.075884	-0.071492	-2.17	0.7	-0.35	0.4478	-0.0431	-0.2534	
-0.987346	0.077958	-0.078446	-2.73	-1.12	-1.4	0.4337	-0.0367	-0.2438	
-0.995276	0.070516	-0.071126	-1.19	-2.38	-2.1	0.4449	-0.0397	-0.2408	
-1.002108	0.07015	-0.077714	-1.82	-4.69	-2.1	0.4379	-0.0367	-0.2469	
-1.011014	0.077348	-0.072224	-3.15	-3.64	-1.96	0.4394	-0.0323	-0.2546	
-1.014552	0.074298	-0.064416	-4.34	-3.29	-2.17	0.4408	-0.0291	-0.2483	
-1.012234	0.065636	-0.067588	-3.85	-3.36	-2.52	0.4464	-0.0337	-0.25	
-1.009306	0.058682	-0.062342	-4.06	-3.92	-2.8	0.4365	-0.0381	-0.2376	
-1.005402	0.043554	-0.06283	-2.73	-2.94	-3.15	0.4393	-0.0383	-0.247	
-1.018822	0.058926	-0.065148	-1.47	5.53	-4.13	0.445	-0.0291	-0.2483	
-1.010038	0.061244	-0.072956	-0.42	2.31	-4.48	0.4366	-0.0356	-0.2609	
-1.009916	0.074542	-0.070882	0.28	3.71	-5.53	0.4408	-0.0352	-0.2485	
-1.014674	0.078324	-0.0732	0	3.01	-6.51	0.4407	-0.032	-0.2421	
-1.007964	0.063684	-0.07076	-0.91	1.89	-6.02	0.4464	-0.0258	-0.2389	
-0.989664	0.04514	-0.064172	-2.1	1.26	-4.69	0.4506	-0.0272	-0.2359	
-0.9821	0.038186	-0.062708	-2.45	0.63	-3.78	0.452	-0.0368	-0.2486	
-0.974414	0.030256	-0.059292	-0.98	-2.17	-2.73	0.445	-0.029	-0.2437	
-0.99125	0.034404	-0.064904	-0.63	0.35	-1.12	0.4435	-0.0304	-0.2406	
-1.011868	0.034038	-0.06734399	-0.49	0	0.28	0.4464	-0.0259	-0.2451	
-1.012234	0.034038	-0.072102	-0.77	-0.84	0.49	0.4464	-0.0274	-0.2421	
-1.012112	0.033672	-0.075274	-0.49	0.07	0.35	0.4408	-0.029	-0.2467	
-1.01443	0.03538	-0.073322	0.21	1.89	0.14	0.4393	-0.0272	-0.2358	
-1.014064	0.032452	-0.076494	0.56	2.45	0.28	0.4507	-0.0244	-0.2483	
-1.007476	0.036478	-0.076616	1.33	2.45	1.26	0.4479	-0.0232	-0.2591	
-0.993568	0.044042	-0.07381	2.03	1.68	2.03	0.4407	-0.0289	-0.2421	
-0.984906	0.049288	-0.073566	2.17	0.84	2.59	0.4421	-0.0304	-0.2406	
-0.998082	0.048434	-0.073566	2.17	0.77	3.08	0.445	-0.029	-0.2452	
-1.02236	0.050386	-0.07991	2.24	0.91	3.57	0.445	-0.0276	-0.2499	
-1.035414	0.05795	-0.085034	2.31	0.84	3.5	0.4506	-0.0227	-0.2389	
-1.025532	0.066246	-0.084546	3.15	0.98	2.87	0.4379	-0.0289	-0.2421	
-1.007598	0.06344	-0.087108	3.85	1.61	2.24	0.445	-0.0242	-0.2389	
-1.008818	0.060756	-0.09162199	2.73	1.05	2.59	0.4464	-0.0382	-0.2455	
-1.022604	0.063196	-0.096258	1.68	-1.12	3.36	0.4407	-0.0335	-0.2422	
-1.027728	0.070272	-0.090158	1.4	-1.89	3.22	0.445	-0.0398	-0.2455	
-1.013576	0.066368	-0.086254	3.78	-1.89	1.4	0.4492	-0.0337	-0.2469	
-1.007598	0.055632	-0.080276	3.29	-2.45	0.7	0.4464	-0.0351	-0.2438	
-1.007232	0.046604	-0.078568	2.45	-4.41	1.19	0.445	-0.0242	-0.2389	
-1.009428	0.038796	-0.079544	1.68	-3.92	2.45	0.445	-0.0351	-0.2438	
-1.019066	0.044652	-0.083814	2.59	-2.87	3.43	0.4422	-0.0414	-0.2486	
-1.02419	0.048556	-0.082594	3.78	-2.24	3.01	0.4464	-0.0367	-0.2439	
-1.04066	0.062586	-0.086254	4.48	-0.84	2.1	0.4492	-0.0382	-0.2439	
-1.035902	0.069296	-0.087596	3.92	-2.73	0.63	0.4351	-0.0475	-0.2456	
-1.027728	0.082106	-0.085034	3.71	1.47	-0.77	0.4422	-0.046	-0.2472	
-1.014918	0.086254	-0.084058	3.5	-0.21	-0.98	0.452	-0.0412	-0.2424	
-1.007354	0.089548	-0.076616	1.19	-3.29	0.07	0.4478	-0.0397	-0.2424	
-1.008696	0.092598	-0.079422	0.42	-3.57	0.42	0.4379	-0.0397	-0.2408	
-1.008086	0.097966	-0.075274	-1.26	-5.81	0	0.4407	-0.0352	-0.2453	
-1.009916	0.09638	-0.067466	-1.96	-6.09	-1.33	0.4492	-0.0306	-0.25	
-1.011014	0.085644	-0.069662	-1.89	-4.48	-2.52	0.4436	-0.0367	-0.2438	
-1.011868	0.068564	-0.063196	-3.36	-6.51	-2.66	0.4407	-0.0398	-0.2455	
-1.014674	0.057584	-0.057096	-4.27	-7.63	-2.1	0.4365	-0.0399	-0.2501	
-1.008086	0.049288	-0.054412	-4.97	-7.07	-1.12	0.4422	-0.0354	-0.2547	
-1.000888	0.050508	-0.049776	-5.81	-6.93	-0.77	0.4408	-0.0337	-0.2484	
-0.992714	0.047092	-0.039406	-5.95	-5.74	-0.7	0.4337	-0.0462	-0.2534	
-0.995276	0.044408	-0.039528	-5.18	-4.13	-0.63	0.4323	-0.0384	-0.25	
-1.000278	0.051118	-0.03538	-4.34	-2.94	-0.7	0.4422	-0.0369	-0.2516	
-1.004792	0.050264	-0.030256	-4.06	-0.49	-0.91	0.4465	-0.0355	-0.261	
-1.006866	0.045994	-0.032574	-2.73	-1.05	0	0.4422	-0.04	-0.2548	
-1.000278	0.041724	-0.029158	-1.82	0.35	0.77	0.4407	-0.0258	-0.242	
-1.006866	0.048556	-0.033184	-0.14	3.43	0.63	0.4338	-0.0371	-0.2625	
-0.996008	0.052338	-0.031476	0.28	3.57	0.98	0.431	-0.0201	-0.2589	
-0.991006	0.05063	-0.037454	1.12	4.34	1.82	0.438	-0.0293	-0.2576	
-0.99125	0.067588	-0.041114	2.1	5.67	1.54	0.438	-0.0371	-0.2625	
-0.992226	0.082472	-0.051606	3.64	5.46	0.63	0.4281	-0.0338	-0.253	
-1.01077	0.079544	-0.06344	4.9	4.62	-0.28	0.4408	-0.0356	-0.2609	
-1.046272	0.078324	-0.076494	4.97	3.64	-0.28	0.438	-0.037	-0.2563	
-1.047736	0.068442	-0.078446	4.69	4.83	2.31	0.4449	-0.0365	-0.2392	
-1.025166	0.06649	-0.069296	3.29	1.82	5.39	0.445	-0.0367	-0.2438	
-1.01626	0.066368	-0.072712	2.1	0.98	5.25	0.438	-0.0355	-0.2578	
-1.015772	0.072712	-0.077348	1.68	1.26	4.06	0.4464	-0.0415	-0.2533	
-1.006988	0.061366	-0.077714	1.96	-1.82	4.2	0.4407	-0.0397	-0.2408	
-1.031144	0.05063	-0.07503	1.96	1.68	5.32	0.4394	-0.0493	-0.255	
-1.044808	0.04941	-0.07442	3.5	0.77	7	0.4393	-0.0413	-0.2439	
-1.02907	0.057096	-0.073444	4.69	1.19	7.98	0.4421	-0.0506	-0.2473	
-1.006744	0.078934	-0.066246	5.95	3.43	7.42	0.4337	-0.0506	-0.2472	
-0.997228	0.089548	-0.06344	5.95	2.1	6.44	0.4295	-0.043	-0.2486	
-0.998936	0.092354	-0.070028	5.74	3.57	5.32	0.4421	-0.0614	-0.246	
-1.007842	0.097722	-0.06771	4.76	4.55	5.11	0.4421	-0.0506	-0.2473	
-1.017846	0.096868	-0.067832	2.73	3.22	5.39	0.445	-0.0552	-0.2459	
-1.020652	0.106018	-0.071736	1.96	1.96	5.74	0.4407	-0.0507	-0.2488	
-1.007842	0.109434	-0.073566	1.75	1.54	5.74	0.4436	-0.0523	-0.2536	
-0.995398	0.113704	-0.075762	0.77	0.28	5.6	0.4407	-0.046	-0.2472	
-0.997106	0.118584	-0.074908	0.28	-0.21	4.76	0.4407	-0.0582	-0.2412	
-1.00589	0.111752	-0.080398	0.49	-1.4	4.2	0.4408	-0.0539	-0.2552	
-1.014918	0.09857599	-0.077836	-0.35	-2.17	3.71	0.4421	-0.055	-0.2396	
-1.012234	0.087108	-0.070272	-1.4	-3.64	3.29	0.4393	-0.0583	-0.2475	
-1.005646	0.090158	-0.067588	-0.77	-2.8	2.03	0.4464	-0.0567	-0.2459	
-0.994666	0.089792	-0.0671	0.14	-2.17	0.35	0.4379	-0.0476	-0.2488	
-0.995642	0.093208	-0.06734399	1.05	-1.61	-1.12	0.4408	-0.06	-0.2538	
-1.000156	0.0915	-0.065514	0.7	-1.12	-1.82	0.4309	-0.0601	-0.2584	
-1.007354	0.095038	-0.065636	-0.7	-1.61	-1.82	0.4435	-0.0474	-0.2426	
-1.015284	0.096258	-0.062952	-0.21	-1.12	-2.24	0.4309	-0.0508	-0.2535	
-1.01565	0.099796	-0.06039	0.7	0	-3.01	0.4336	-0.0596	-0.2366	
-0.999912	0.091012	-0.057706	0.7	0.63	-3.08	0.4422	-0.0661	-0.2524	
-0.986248	0.08686399	-0.052582	0.14	0.42	-2.66	0.4393	-0.0475	-0.2441	
-0.990518	0.082838	-0.054046	-0.42	2.66	-2.38	0.4365	-0.0538	-0.252	
-1.006988	0.084912	-0.063684	-0.42	3.01	-2.24	0.4351	-0.0568	-0.2474	
-1.027728	0.092842	-0.078812	-0.14	4.2	-2.52	0.4379	-0.0553	-0.2505	
-1.04493	0.09394	-0.084668	0.28	4.34	-3.01	0.4407	-0.0599	-0.2475	
-1.035414	0.091256	-0.08845	0.7	3.99	-2.73	0.4365	-0.0552	-0.2474	
-1.009794	0.0793	-0.088206	-0.77	2.45	-1.61	0.4393	-0.0443	-0.2424	
-0.996984	0.082472	-0.08295999	-2.38	0.56	-1.12	0.4421	-0.0564	-0.2334	
-0.995642	0.094916	-0.07869	-2.52	-1.19	-1.4	0.4436	-0.0506	-0.2473	
-1.00528	0.106506	-0.085034	-2.1	-1.75	-2.87	0.4351	-0.0444	-0.244	
-1.013942	0.113582	-0.079788	-1.96	-2.8	-4.34	0.4393	-0.0582	-0.2428	
-1.028216	0.10736	-0.074542	-2.17	-4.83	-5.04	0.4463	-0.0536	-0.2427	
-1.024312	0.101382	-0.06954	-1.96	-7.28	-5.46	0.4323	-0.043	-0.2502	
-1.008818	0.094916	-0.07124799	-1.19	-7.21	-5.46	0.4393	-0.0507	-0.2504	
-0.996374	0.094428	-0.068686	-1.33	-5.88	-5.25	0.4365	-0.0508	-0.2535	
-1.003206	0.097966	-0.061488	-0.7	-5.74	-5.11	0.4352	-0.0416	-0.2564	
-1.021994	0.08845	-0.070394	-1.33	-7	-4.76	0.4394	-0.0461	-0.2534	
-1.036024	0.083448	-0.065636	-2.94	-6.79	-4.97	0.4365	-0.0397	-0.2408	
-1.036634	0.070272	-0.060268	-3.5	-7.98	-4.34	0.4478	-0.0416	-0.2549	
-1.040904	0.053558	-0.061488	-3.64	-7.14	-2.59	0.438	-0.0432	-0.2596	
-1.038098	0.04148	-0.059414	-3.15	-6.09	-1.12	0.4337	-0.043	-0.2502	
-1.017846	0.035746	-0.049898	-2.03	-5.67	0.42	0.4324	-0.0386	-0.2594	
-1.013698	0.04392	-0.05185	-0.56	-3.5	0.35	0.4408	-0.0433	-0.2611	
-1.002962	0.053192	-0.0488	0.07	-4.06	0.35	0.4394	-0.0462	-0.255	
-0.992836	0.055388	-0.042212	-0.35	-3.57	0.91	0.4366	-0.0403	-0.2657	
-0.999058	0.067954	-0.039406	-1.12	-2.66	1.47	0.438	-0.0371	-0.261	
-1.013576	0.074908	-0.040626	-1.4	-3.85	2.17	0.4409	-0.0403	-0.2657	
-1.025166	0.075884	-0.03294	-1.96	-3.92	2.73	0.4338	-0.0356	-0.264	
-1.024312	0.07747	-0.033062	-1.19	-3.29	3.15	0.431	-0.0372	-0.2656	
-1.018822	0.0854	-0.033062	-1.12	-2.52	2.94	0.4394	-0.0446	-0.2549	
-1.009428	0.09394	-0.03782	-0.07	-2.1	1.47	0.4394	-0.0495	-0.2628	
-1.007842	0.099674	-0.034648	-0.35	-0.14	0.56	0.4366	-0.0494	-0.2613	
-1.005768	0.101382	-0.036966	-2.38	-3.5	1.12	0.4296	-0.0496	-0.269	
-1.005036	0.104066	-0.033916	-2.87	-2.38	1.05	0.4337	-0.0539	-0.2567	
-0.996008	0.114314	-0.024156	-4.48	-5.11	0.35	0.4408	-0.0418	-0.2627	
-0.986492	0.106506	-0.010736	-3.99	-6.16	0	0.4324	-0.048	-0.2643	
-0.982954	0.086986	-0.007564	-3.57	-4.69	-0.56	0.4296	-0.0435	-0.2704	
-0.981246	0.062952	-0.006832	-3.15	-4.62	-1.54	0.4281	-0.0432	-0.2595	
-0.991616	0.045872	-0.005612	-1.82	-2.59	-1.96	0.4338	-0.0526	-0.2644	
-1.000278	0.03172	-0.005978	-2.17	-2.31	-1.47	0.431	-0.0388	-0.2656	
-1.011136	0.043676	-0.01464	0.56	1.19	-0.91	0.438	-0.045	-0.269	
-1.013088	0.052948	-0.014762	2.1	4.62	-0.56	0.4394	-0.0418	-0.2642	
-1.010526	0.054656	-0.025498	2.66	5.32	-0.28	0.4267	-0.0449	-0.2626	
-1.014064	0.05551	-0.033794	1.75	6.02	0.14	0.4254	-0.0481	-0.2705	
-1.026142	0.066978	-0.045872	1.68	5.81	0.42	0.4352	-0.0432	-0.258	
-1.046272	0.083936	-0.056364	2.31	6.86	1.47	0.4408	-0.0478	-0.2581	
-1.040538	0.103212	-0.055632	3.01	6.79	1.68	0.4337	-0.0447	-0.2564	
-1.025044	0.110654	-0.053436	1.96	3.78	0.77	0.4324	-0.0464	-0.2643	
-1.0004	0.112606	-0.047092	1.26	3.36	-1.19	0.4295	-0.0495	-0.2628	
-0.994056	0.099186	-0.040992	-0.98	0.42	-2.1	0.4351	-0.0477	-0.2519	
-1.009916	0.092476	-0.03538	-1.33	1.54	-2.24	0.4338	-0.0433	-0.2611	
-1.023824	0.087352	-0.046848	-2.24	-1.05	-1.26	0.4395	-0.0404	-0.2704	
-1.027728	0.080764	-0.036356	-2.94	-1.19	-0.07	0.438	-0.0402	-0.2626	
-1.01016	0.079788	-0.03294	-3.22	-1.61	0.7	0.4324	-0.0496	-0.2659	
-0.996496	0.079666	-0.042212	-3.29	-1.19	0	0.4338	-0.0417	-0.2595	
-0.993446	0.069174	-0.031476	-3.01	-1.12	-1.89	0.4254	-0.0375	-0.2749	
-1.00528	0.066368	-0.036478	-1.89	-0.07	-3.15	0.4366	-0.0388	-0.2672	
-1.0126	0.057462	-0.030988	-2.52	-0.77	-2.52	0.4366	-0.0357	-0.2656	
-1.005402	0.058926	-0.027084	-1.61	-0.77	-1.82	0.4394	-0.0401	-0.2564	
-0.99735	0.071858	-0.02806	-0.91	0.49	-1.61	0.4324	-0.0479	-0.2596	
-1.004792	0.07076	-0.030012	-0.56	0.98	-2.03	0.4352	-0.0466	-0.2721	
-1.017358	0.070882	-0.032452	-0.35	1.89	-2.59	0.4394	-0.0433	-0.2627	
-1.020896	0.070272	-0.04331	-0.21	2.31	-3.22	0.4394	-0.0418	-0.2626	
-1.022604	0.075518	-0.047946	-0.84	2.52	-3.71	0.4338	-0.0372	-0.2656	
-1.022604	0.07905599	-0.045384	-0.63	3.85	-4.48	0.4423	-0.0404	-0.272	
-1.020652	0.085034	-0.048556	-1.33	0.84	-4.41	0.4366	-0.0339	-0.2546	
-1.023214	0.081862	-0.048922	-0.14	2.1	-4.41	0.4394	-0.0369	-0.2532	
-1.021018	0.072834	-0.048312	-0.77	1.33	-4.27	0.4323	-0.0338	-0.2515	
-1.021628	0.070638	-0.047946	-0.14	0.77	-4.41	0.4338	-0.0401	-0.2579	
-1.012234	0.066978	-0.046726	0.07	0.42	-4.76	0.4408	-0.0307	-0.253	
-1.003084	0.066734	-0.041358	0.21	-0.07	-4.9	0.4394	-0.0307	-0.2515	
-1.006134	0.064782	-0.036844	-0.28	-0.21	-4.62	0.4394	-0.0293	-0.2592	
-1.008696	0.054412	-0.038674	0.49	1.4	-4.48	0.438	-0.0291	-0.2499	
-1.012112	0.04331	-0.038918	0.14	-0.21	-3.29	0.4409	-0.0295	-0.2639	
-1.01077	0.0427	-0.038308	0.7	0.07	-2.52	0.4366	-0.0323	-0.2546	
-1.009184	0.038796	-0.040748	1.33	0.84	-2.31	0.4408	-0.0231	-0.256	
-1.01138	0.042212	-0.041968	1.96	1.96	-2.1	0.4351	-0.0383	-0.2454	
-1.018578	0.04331	-0.048678	1.68	1.68	-1.33	0.4394	-0.0338	-0.2515	
-1.027606	0.049898	-0.057096	1.61	1.61	-0.63	0.4394	-0.0446	-0.2518	
-1.022604	0.0549	-0.052826	1.26	0.14	-0.07	0.4408	-0.0275	-0.2483	
-1.010526	0.05246	-0.050264	0.77	-0.07	0.49	0.4267	-0.0432	-0.2595	
-1.00711	0.042944	-0.051362	0.42	-0.7	1.75	0.4394	-0.0292	-0.2545	
-1.014796	0.041114	-0.052094	-0.35	-0.98	3.22	0.4436	-0.0275	-0.2483	
-1.02602	0.050142	-0.053314	-0.28	-2.03	3.85	0.445	-0.0307	-0.2515	
-1.025654	0.061366	-0.049654	0.35	-2.59	3.5	0.4324	-0.0309	-0.2608	
-1.01443	0.06161	-0.043676	0.98	-2.38	2.73	0.4423	-0.0371	-0.2625	
-1.002962	0.053802	-0.036234	0.84	-2.73	2.31	0.4423	-0.031	-0.2624	
-0.989908	0.050142	-0.033428	0.21	-3.57	2.8	0.4324	-0.0371	-0.2625	
-0.98271	0.054412	-0.031354	0.21	-2.66	3.43	0.4309	-0.04	-0.2516	
-0.995032	0.057218	-0.027694	0.42	-2.17	3.71	0.4338	-0.0341	-0.2624	
-1.004548	0.059292	-0.031354	0.28	-3.85	3.92	0.4422	-0.0339	-0.2562	
-1.003694	0.050386	-0.030012	-0.28	-3.92	4.13	0.4395	-0.0405	-0.2751	
-1.004914	0.05124	-0.028548	-0.42	-3.5	4.41	0.4451	-0.0357	-0.2688	
-1.00467	0.055998	-0.034404	-0.7	-2.87	4.83	0.4451	-0.0325	-0.2624	
-1.006866	0.060878	-0.027694	0.21	-2.8	4.97	0.4394	-0.0526	-0.2645	
-1.0004	0.064538	-0.02806	0.07	-1.82	5.46	0.431	-0.0496	-0.2675	
-1.00589	0.063928	-0.032208	-1.26	-3.36	6.37	0.4324	-0.0341	-0.2624	
-1.016626	0.064294	-0.034892	-2.59	-2.66	7.21	0.4465	-0.0404	-0.2689	
-1.027118	0.07076	-0.037088	-2.1	-0.84	6.23	0.4451	-0.0417	-0.2596	
-1.029924	0.073566	-0.031476	-1.19	-0.77	4.97	0.4352	-0.0526	-0.2644	
-1.023946	0.07747	-0.035136	0.84	2.94	2.94	0.431	-0.0358	-0.2687	
-1.012844	0.09272	-0.03538	1.75	4.06	1.05	0.4324	-0.0496	-0.269	
-1.015162	0.094062	-0.035502	2.52	6.09	-0.49	0.438	-0.0465	-0.269	
-1.024556	0.1037	-0.03599	2.52	5.32	-1.26	0.4479	-0.0417	-0.2611	
-1.023702	0.105286	-0.04026	2.03	3.15	-0.63	0.4295	-0.0398	-0.2469	
-1.029314	0.112728	-0.040138	1.96	2.24	-0.07	0.4323	-0.0476	-0.2503	
-1.017724	0.11285	-0.041724	1.75	1.12	0.28	0.4407	-0.0506	-0.2473	
-1.008696	0.109068	-0.045262	0.91	-1.26	-0.63	0.4379	-0.0399	-0.2486	
-1.01016	0.103456	-0.04453	1.19	-1.68	-1.96	0.4451	-0.0324	-0.2578	
-1.014186	0.094184	-0.047702	0.49	-5.46	-2.1	0.4281	-0.0479	-0.2596	
-1.024556	0.08845	-0.0427	1.26	-5.18	-2.31	0.431	-0.0434	-0.2673	
-1.027118	0.08357	-0.041846	0.14	-6.79	-1.61	0.4394	-0.0431	-0.2564	
-1.011258	0.084302	-0.028304	-0.98	-7.21	-0.77	0.4394	-0.0386	-0.2579	
-0.99674	0.089304	-0.017202	-1.33	-6.86	-0.42	0.4366	-0.0465	-0.269	
-0.999058	0.08906	-0.012932	-1.12	-5.88	-1.05	0.4423	-0.0435	-0.2705	
-1.010038	0.076372	-0.014152	-0.91	-5.39	-1.12	0.431	-0.0342	-0.2686	
-1.008574	0.056852	-0.007076	-1.33	-4.97	0.21	0.4254	-0.0452	-0.2767	
-1.009794	0.044774	-0.002806	-0.77	-3.78	2.03	0.4324	-0.0389	-0.2703	
-1.008696	0.04697	-0.003782	0.7	-1.54	2.87	0.438	-0.0388	-0.2672	
-1.002108	0.05124	-0.008174	2.59	0.7	2.1	0.4338	-0.0512	-0.2706	
-1.002352	0.046848	-0.013664	2.8	2.59	1.33	0.4282	-0.0497	-0.2737	
-1.006012	0.057462	-0.020374	2.73	3.71	1.61	0.4367	-0.042	-0.272	
-1.011502	0.06734399	-0.01647	2.94	4.27	2.52	0.4324	-0.0498	-0.2753	
-1.014674	0.082106	-0.02196	4.13	4.55	3.64	0.4282	-0.0481	-0.2705	
-1.008818	0.10187	-0.02074	3.85	5.04	4.55	0.4324	-0.0512	-0.2706	
-0.996496	0.115656	-0.019642	3.01	4.83	4.2	0.4338	-0.0402	-0.261	
-0.995642	0.127002	-0.026474	1.61	4.62	3.64	0.4281	-0.0542	-0.266	
-1.016992	0.130052	-0.031842	0.35	3.99	2.03	0.4281	-0.0464	-0.2627	
-1.01931	0.115778	-0.037576	-0.28	2.1	0.91	0.4296	-0.0557	-0.266	
-1.01504	0.094916	-0.03843	-0.63	1.33	2.03	0.4352	-0.0558	-0.2692	
-1.01626	0.080886	-0.036844	-0.28	0.7	3.85	0.431	-0.0418	-0.2642	
-1.014918	0.078934	-0.039406	0.49	0.98	4.9	0.4437	-0.0527	-0.2707	
-1.013698	0.088816	-0.036966	1.26	1.05	4.13	0.4408	-0.0463	-0.2581	
-1.009306	0.092232	-0.035014	2.38	2.03	2.59	0.4296	-0.0497	-0.2706	
-1.01321	0.084424	-0.035868	2.17	2.45	2.1	0.4352	-0.0497	-0.2722	
-1.018456	0.089426	-0.02989	2.52	2.24	2.59	0.438	-0.0602	-0.26	
-1.018944	0.093818	-0.039528	2.87	3.29	2.73	0.445	-0.0523	-0.252	
-1.023092	0.097966	-0.04514	3.5	3.08	2.94	0.438	-0.0512	-0.2691	
-1.025288	0.10065	-0.048556	4.41	3.15	3.29	0.4409	-0.045	-0.2705	
-1.02907	0.100284	-0.055388	4.55	4.76	4.34	0.438	-0.0494	-0.2613	
-1.033584	0.095038	-0.054656	3.43	4.2	6.02	0.4253	-0.0572	-0.2629	
-1.033584	0.093208	-0.052948	2.59	3.36	7.35	0.4408	-0.0539	-0.2552	
-1.022238	0.0915	-0.051728	1.4	3.5	8.26	0.4351	-0.06	-0.2537	
-1.000644	0.093452	-0.047214	0.91	1.82	8.12	0.4408	-0.0649	-0.2648	
-0.983564	0.100528	-0.038674	1.61	1.96	6.58	0.4266	-0.0661	-0.2491	
-0.97844	0.105774	-0.036112	2.31	3.36	4.48	0.4366	-0.0648	-0.2601	
-0.977464	0.10919	-0.035502	2.8	3.5	2.59	0.4421	-0.0628	-0.2429	
-0.977708	0.116388	-0.032818	2.52	3.5	1.68	0.4309	-0.0694	-0.257	
-0.991128	0.133102	-0.038918	2.17	4.62	0.91	0.438	-0.0664	-0.2617	
-1.00467	0.142252	-0.047824	0.77	5.39	1.05	0.4295	-0.0555	-0.2567	
-1.010648	0.14396	-0.05368	-1.47	4.27	1.47	0.4322	-0.0691	-0.2461	
-1.01809	0.147132	-0.057706	-2.66	3.92	1.05	0.4365	-0.0706	-0.2462	
-1.02053	0.141398	-0.063074	-2.38	5.18	0.07	0.4379	-0.0584	-0.2506	
-1.015528	0.12993	-0.071736	-2.87	3.64	-0.49	0.4323	-0.06	-0.2521	
-1.003328	0.122976	-0.066368	-3.5	1.89	-0.91	0.4309	-0.0615	-0.2491	
-0.992226	0.121878	-0.068686	-2.94	1.12	-1.89	0.4365	-0.0755	-0.2557	
-0.99125	0.11834	-0.0671	-2.45	0.63	-3.08	0.4407	-0.0673	-0.2384	
-0.998814	0.116388	-0.061	-1.12	-0.21	-4.41	0.4379	-0.063	-0.2491	
-1.009916	0.111996	-0.066978	-0.28	-1.05	-5.32	0.4407	-0.063	-0.2492	
-1.022604	0.112972	-0.0671	0.14	-2.45	-5.81	0.4295	-0.0585	-0.2521	
-1.021384	0.11163	-0.06039	0.49	-2.66	-6.02	0.4351	-0.0553	-0.2505	
-1.010892	0.107238	-0.058926	0.07	-3.57	-5.81	0.4351	-0.0584	-0.2506	
-1.00162	0.102724	-0.058438	-0.84	-3.64	-5.67	0.4365	-0.0537	-0.2489	
-0.99125	0.104798	-0.048922	-1.47	-3.64	-6.16	0.4422	-0.0584	-0.2522	
-0.991494	0.101504	-0.047824	-1.96	-3.71	-6.58	0.4337	-0.0631	-0.2554	
-0.992592	0.099064	-0.044042	-2.31	-5.25	-6.79	0.4337	-0.0555	-0.2583	
-1.000766	0.111264	-0.042944	-1.82	-5.67	-7.84	0.4393	-0.0615	-0.2522	
-1.00711	0.108458	-0.046604	-1.54	-5.67	-8.68	0.4422	-0.0553	-0.249	
-1.00406	0.106262	-0.040992	-0.7	-5.95	-9.24	0.4408	-0.0508	-0.2566	
-1.01687	0.104554	-0.05002	-0.63	-6.65	-9.66	0.4365	-0.0461	-0.2518	
-1.028826	0.104066	-0.056486	-1.33	-6.37	-9.73	0.4366	-0.0556	-0.263	
-1.037732	0.094428	-0.057462	-2.03	-5.11	-8.82	0.4366	-0.0495	-0.2628	
-1.04066	0.0793	-0.04453	-5.11	-6.86	-6.23	0.438	-0.0478	-0.2597	
-1.032242	0.073444	-0.046604	-5.53	-7.91	-3.92	0.4408	-0.0416	-0.2564	
-1.03761	0.06832	-0.032574	-3.71	-5.04	-2.17	0.4323	-0.0417	-0.2579	
-1.026752	0.054412	-0.029158	-1.89	-4.62	-1.4	0.431	-0.0497	-0.2706	
-1.006988	0.052582	-0.030134	-2.52	-5.53	-0.91	0.4338	-0.0416	-0.2579	
-1.007842	0.056486	-0.027084	-1.47	-2.52	-0.84	0.4295	-0.0399	-0.2485	
-1.020896	0.060634	-0.030256	-0.63	-0.91	0.14	0.431	-0.0387	-0.2641	
-1.018578	0.062708	-0.02928	-1.05	-2.73	1.05	0.4296	-0.0419	-0.2688	
-1.017358	0.062464	-0.033428	-1.61	-3.64	1.26	0.4366	-0.0371	-0.2594	
-1.02358	0.069784	-0.025742	-1.96	-2.52	0.49	0.4296	-0.0342	-0.2671	
-1.027484	0.07124799	-0.023424	-1.33	-3.08	-0.35	0.4282	-0.0435	-0.2704	
-1.016504	0.068686	-0.016226	-0.28	-3.22	-0.7	0.4282	-0.0435	-0.2704	
-1.001376	0.066612	-0.014396	0.14	-0.84	0.28	0.4239	-0.0372	-0.2656	
-0.99552	0.0671	-0.014152	0.77	-0.35	1.68	0.4409	-0.0434	-0.2674	
-0.998692	0.080032	-0.018056	1.19	0.35	1.61	0.4281	-0.0448	-0.2611	
-1.001986	0.094184	-0.01159	1.33	0.84	0.63	0.4282	-0.0419	-0.2673	
-1.000644	0.106262	-0.01037	1.19	1.19	-0.98	0.4338	-0.048	-0.2643	
-1.003084	0.10309	-0.008417999	-0.77	0.91	-1.96	0.4353	-0.0327	-0.2702	
-1.013088	0.08174	-0.013664	-2.31	0.42	-0.91	0.431	-0.0433	-0.2626	
-1.006134	0.064904	-0.009638	-3.01	-0.7	1.4	0.4352	-0.0464	-0.2643	
-0.996984	0.057218	-0.01037	-2.59	-1.61	3.01	0.4268	-0.0496	-0.2674	
-0.996496	0.070028	-0.016104	-0.07	1.89	2.03	0.4281	-0.0495	-0.2628	
-1.015528	0.078202	-0.025498	0.63	3.57	-0.14	0.4353	-0.0405	-0.2735	
-1.028094	0.085034	-0.024766	-0.07	4.06	-1.75	0.4296	-0.0403	-0.2657	
-1.022238	0.089914	-0.028914	-0.91	4.83	-2.59	0.4324	-0.0388	-0.2656	
-1.019798	0.092232	-0.030866	-1.61	3.71	-3.71	0.4267	-0.0355	-0.2593	
-1.021018	0.089304	-0.031598	-2.38	3.01	-4.34	0.4352	-0.0402	-0.2626	
-1.015406	0.080886	-0.031964	-1.47	2.8	-4.48	0.4423	-0.0435	-0.2705	
-1.010648	0.080398	-0.038064	-0.07	3.57	-4.48	0.4225	-0.0401	-0.2578	
-1.00589	0.090524	-0.041724	0.35	2.45	-5.39	0.4366	-0.0355	-0.2578	
-1.002962	0.092232	-0.032086	-0.28	0.28	-7.63	0.438	-0.0417	-0.2595	
-1.015406	0.069662	-0.027816	-1.4	1.4	-9.31	0.4395	-0.0326	-0.2655	
-1.029192	0.055022	-0.033062	-2.03	0.77	-9.52	0.4352	-0.0339	-0.2562	
-1.023458	0.045018	-0.026596	-2.38	-0.56	-8.19	0.4338	-0.0263	-0.2591	
-1.007842	0.04636	-0.02501	-1.89	0.7	-6.65	0.4366	-0.0279	-0.2623	
-0.997472	0.045262	-0.030378	-1.61	1.75	-6.86	0.4395	-0.0389	-0.2719	
-0.995764	0.050264	-0.022936	-0.63	1.19	-8.19	0.4338	-0.0278	-0.2591	
-1.005036	0.05002	-0.027694	0.35	3.08	-9.52	0.4282	-0.0342	-0.2671	
-1.021628	0.045262	-0.03294	0.42	4.27	-9.87	0.4367	-0.0265	-0.2669	
-1.020652	0.044164	-0.034038	1.12	2.8	-9.8	0.4367	-0.0234	-0.2684	
-1.00833	0.043432	-0.036234	1.68	2.8	-8.96	0.4267	-0.017	-0.2557	
-1.007598	0.037454	-0.034038	0.7	2.73	-6.93	0.4381	-0.0202	-0.2637	
-1.012722	0.02867	-0.042334	0.42	1.82	-4.76	0.4366	-0.0186	-0.2605	
-1.015406	0.024156	-0.043432	0	0.14	-3.5	0.4451	-0.0184	-0.2543	
-1.020774	0.026474	-0.040626	0.49	2.45	-3.57	0.4381	-0.0188	-0.2699	
-1.017358	0.02623	-0.03965	0.84	1.05	-3.92	0.4352	-0.0154	-0.2573	
-1.017358	0.023424	-0.0427	0.7	1.4	-4.06	0.4366	-0.0139	-0.2588	
-1.01443	0.022082	-0.0427	0.98	0.28	-3.71	0.4409	-0.0217	-0.2622	
-1.016626	0.024156	-0.039162	0.91	0.35	-3.01	0.4352	-0.0216	-0.2559	
-1.011136	0.022204	-0.040016	0.7	-0.21	-1.82	0.4366	-0.0156	-0.262	
-1.006134	0.022082	-0.03599	0.63	-0.21	-0.84	0.4324	-0.0124	-0.2603	
-1.013698	0.021838	-0.040504	0.42	0.14	-0.14	0.4409	-0.0203	-0.2668	
-1.017846	0.02257	-0.04087	0.07	-0.21	0.49	0.4338	-0.0233	-0.2621	
-1.023458	0.023668	-0.042456	0.21	0.77	0.84	0.4493	-0.0246	-0.256	
-1.023092	0.020008	-0.045262	0.91	-0.56	1.05	0.4381	-0.0156	-0.2651	
-1.020286	0.02501	-0.043066	0.49	-0.77	1.4	0.4338	-0.0187	-0.2651	
-1.01199	0.027328	-0.04026	0.63	-1.19	1.54	0.4423	-0.011	-0.2634	
-1.005646	0.02867	-0.039284	0.7	-0.77	2.03	0.4408	-0.023	-0.2528	
-1.009428	0.032574	-0.038552	0.77	-1.12	2.59	0.431	-0.0111	-0.2665	
-1.021262	0.030378	-0.044652	0.42	-0.7	2.94	0.4324	-0.0172	-0.2667	
-1.025044	0.033794	-0.044042	0.91	-1.54	3.29	0.4408	-0.0201	-0.259	
-1.026996	0.037332	-0.045384	1.26	-2.17	3.5	0.431	-0.0202	-0.2621	
-1.018822	0.041968	-0.043676	1.75	-2.66	3.64	0.4437	-0.0155	-0.2605	
-1.013454	0.043676	-0.037332	1.47	-2.87	3.78	0.4423	-0.028	-0.2686	
-1.007354	0.041114	-0.034648	2.17	-3.92	3.36	0.4437	-0.028	-0.267	
-0.996862	0.032208	-0.030256	1.4	-3.08	3.22	0.4338	-0.0202	-0.2636	
-0.995154	0.021838	-0.027938	1.61	-3.36	3.64	0.4296	-0.0217	-0.2621	
-1.006012	0.023302	-0.030622	1.61	-2.38	4.13	0.4366	-0.0248	-0.2606	
-1.012112	0.027938	-0.02501	1.96	-3.22	4.55	0.4367	-0.0265	-0.2685	
-1.012234	0.025742	-0.035258	0.91	-3.92	5.46	0.4409	-0.031	-0.2655	
-1.007232	0.029646	-0.029158	-0.21	-5.11	6.51	0.4296	-0.0359	-0.2749	
-1.006744	0.020252	-0.03782	-1.33	-7.14	7.7	0.4352	-0.0327	-0.2686	
-1.010648	0.027938	-0.031842	-2.17	-5.6	9.03	0.4353	-0.0328	-0.2733	
-1.01016	0.036844	-0.019032	-2.66	-7.42	10.5	0.4296	-0.0311	-0.2686	
-1.013942	0.044408	-0.016348	-2.38	-7.07	11.41	0.4366	-0.0404	-0.2688	
-1.012722	0.048434	-0.00854	-3.57	-6.58	11.83	0.4338	-0.0358	-0.2718	
-1.005402	0.059414	-0.003294	-4.06	-6.23	11.62	0.4395	-0.0389	-0.2719	
-1.00589	0.069906	-0.000976	-2.59	-1.89	10.5	0.4338	-0.0434	-0.2658	
-1.01138	0.07991	-0.004026	-2.31	-2.59	8.75	0.4353	-0.036	-0.2781	
-1.016504	0.089914	-0.002196	0.21	-0.07	6.23	0.4268	-0.0376	-0.2812	
-1.015772	0.098454	-0.003782	1.82	1.75	3.92	0.431	-0.0436	-0.2735	
-1.010648	0.102602	0.000976	3.08	2.38	1.96	0.4423	-0.0451	-0.2737	
-1.014308	0.109068	-0.006222	4.97	5.25	0.21	0.4311	-0.0423	-0.2829	
-1.01138	0.101992	-0.014152	4.13	3.57	0.28	0.4353	-0.0498	-0.2768	
-1.010038	0.103578	-0.019764	3.71	3.71	0.77	0.4324	-0.0452	-0.2752	
-1.015406	0.0976	-0.020252	2.45	1.82	1.54	0.431	-0.056	-0.2785	
-1.022238	0.09272	-0.028304	3.15	0.77	0.77	0.4296	-0.0481	-0.2705	
-1.023458	0.08479	-0.028426	2.45	0.21	0.21	0.4395	-0.0421	-0.2751	
-1.012966	0.086254	-0.022814	2.1	-0.42	0.56	0.431	-0.0358	-0.2702	
-0.99491	0.09577	-0.008905999	1.33	-1.54	1.12	0.4395	-0.0374	-0.2719	
-0.99674	0.092842	-0.019886	0.63	-0.63	0.14	0.4338	-0.0451	-0.272	
-1.028948	0.084424	-0.035868	1.05	0.63	-0.98	0.4339	-0.0467	-0.2752	
-1.062498	0.064782	-0.027328	1.68	1.12	-0.28	0.4352	-0.0435	-0.272	
-1.063474	0.055388	-0.0305	3.36	1.33	3.92	0.431	-0.0436	-0.2751	
-1.035048	0.064538	-0.025498	4.06	1.96	7.49	0.4296	-0.048	-0.2659	
-0.998692	0.076738	-0.030134	2.66	0.49	7.42	0.431	-0.0512	-0.2691	
-0.969412	0.081252	-0.02257	1.4	-0.77	4.06	0.4296	-0.0574	-0.2708	
-0.969656	0.067954	-0.010858	0.28	0.77	1.33	0.4338	-0.0497	-0.2722	
-0.983686	0.057584	0.001708	0.28	2.1	2.59	0.4352	-0.042	-0.272	
-0.995398	0.071004	0.011956	2.73	2.87	5.25	0.4395	-0.0529	-0.2754	
-0.99735	0.10004	0.009516	5.04	4.9	7.14	0.4324	-0.0588	-0.2661	
-0.991616	0.127246	0.005856	6.09	8.12	7	0.4338	-0.0558	-0.2708	
-0.985882	0.12993	-0.012932	5.6	8.54	5.74	0.4324	-0.0635	-0.2694	
-1.00467	0.115778	-0.027816	4.55	9.87	5.18	0.438	-0.0574	-0.2708	
-1.032486	0.098332	-0.040138	4.83	10.92	5.39	0.4408	-0.0602	-0.26	
-1.059204	0.087962	-0.068564	5.67	15.26	5.95	0.4351	-0.0601	-0.2553	
-1.052616	0.089182	-0.07076	4.76	12.46	8.12	0.4337	-0.0616	-0.2538	
-1.02297	0.102968	-0.077226	3.36	7.7	9.17	0.4323	-0.0679	-0.2586	
-1.00162	0.113094	-0.081374	1.75	7.98	8.61	0.4253	-0.0556	-0.2629	
-0.99064	0.116632	-0.07442	0.28	3.08	7.07	0.4295	-0.0632	-0.2569	
-0.991006	0.116754	-0.06405	-0.07	3.29	4.83	0.4365	-0.0632	-0.2569	
-0.99796	0.122366	-0.058682	-1.12	0.84	3.22	0.4337	-0.0616	-0.2538	
-0.999912	0.133102	-0.04819	-0.84	0.21	2.1	0.4323	-0.0569	-0.2536	
-0.999546	0.140788	-0.044652	-0.63	0.98	0.84	0.4365	-0.0616	-0.2569	
-0.991006	0.138226	-0.0427	-1.47	0.07	0.35	0.4365	-0.0659	-0.2414	
-0.983442	0.135542	-0.041358	-1.75	0.35	-0.28	0.4393	-0.0675	-0.2461	
-0.992226	0.143472	-0.045994	-1.47	1.89	-1.26	0.4337	-0.0707	-0.2477	
-1.007232	0.145058	-0.055388	-1.12	1.61	-2.52	0.4365	-0.0663	-0.2586	
-1.01077	0.138104	-0.061366	-1.05	0.56	-3.92	0.4436	-0.0692	-0.2509	
-1.005036	0.130906	-0.064416	-0.7	-0.91	-5.46	0.4351	-0.0631	-0.2522	
-1.01077	0.127002	-0.078568	0.42	-1.12	-7	0.4294	-0.0567	-0.2427	
-1.03273	0.121878	-0.093208	1.33	-2.31	-8.47	0.4478	-0.0631	-0.2539	
-1.046882	0.109312	-0.085034	1.96	-5.25	-9.52	0.4408	-0.0616	-0.2554	
-1.036268	0.091866	-0.079666	1.68	-6.37	-9.87	0.4351	-0.0631	-0.2522	
-1.010526	0.081984	-0.06527	-0.84	-6.93	-9.31	0.4393	-0.0631	-0.2538	
-0.994178	0.091378	-0.047702	0.77	-9.17	-9.31	0.4337	-0.0569	-0.2536	
-0.996252	0.09028	-0.041236	1.82	-6.51	-9.94	0.4422	-0.0523	-0.2551	
-1.007964	0.078568	-0.029158	1.54	-6.72	-9.73	0.4408	-0.0432	-0.2596	
-1.00467	0.074542	-0.021716	0.7	-5.39	-8.68	0.4422	-0.0494	-0.2597	
-1.006134	0.084912	-0.020984	-0.35	-4.55	-6.93	0.4408	-0.0476	-0.2519	
-1.022116	0.09638	-0.031598	0.07	-1.54	-5.6	0.4379	-0.0554	-0.2536	
-1.031388	0.081374	-0.046238	-0.77	-1.33	-4.62	0.4337	-0.0538	-0.252	
-1.026386	0.061976	-0.046604	-2.17	-3.29	-3.36	0.4337	-0.054	-0.2582	
-1.024678	0.058072	-0.049532	-2.1	-3.57	-2.1	0.4253	-0.0572	-0.2614	
-1.029558	0.067832	-0.049044	-0.77	-3.15	-1.96	0.4295	-0.0524	-0.2566	
-1.01992	0.077348	-0.04392	-0.49	-3.71	-2.31	0.4323	-0.0586	-0.2583	
-1.006622	0.076128	-0.040626	-1.75	-4.41	-1.47	0.4267	-0.0619	-0.2662	
-1.022116	0.073444	-0.039284	-2.52	-3.5	-0.28	0.4324	-0.0496	-0.2659	
-1.029924	0.08113	-0.041114	-2.17	-4.69	0.98	0.4324	-0.0512	-0.2691	
-1.020652	0.093086	-0.02562	-4.48	-6.44	1.96	0.4281	-0.0526	-0.266	
-1.009306	0.10004	-0.022326	-5.88	-8.12	2.52	0.4422	-0.048	-0.2644	
-1.000888	0.109068	-0.02257	-7.84	-7.84	2.45	0.431	-0.0436	-0.2751	
-1.001742	0.111264	-0.012566	-10.64	-9.87	2.24	0.4282	-0.0466	-0.272	
-1.000034	0.108092	-0.020618	-8.89	-7.56	0.98	0.4254	-0.0451	-0.272	
-1.02175	0.103334	-0.02379	-10.78	-9.1	1.05	0.424	-0.0575	-0.277	
-1.03517	0.09577	-0.019886	-9.66	-9.73	0.77	0.4197	-0.059	-0.2723	
-1.031754	0.074908	-0.014762	-8.89	-11.13	1.12	0.4226	-0.0436	-0.2751	
-1.017602	0.055022	-0.006222	-6.79	-9.52	0.49	0.424	-0.0454	-0.286	
-1.00284	0.04514	0.008052	-3.43	-7.56	-1.05	0.4311	-0.0469	-0.2814	
-0.990518	0.048068	0.018178	-0.42	-7	-2.31	0.4254	-0.0485	-0.2861	
-0.993568	0.055388	0.018544	1.47	-4.06	-3.01	0.4226	-0.0483	-0.2767	
-1.009794	0.061244	0.021228	2.24	-1.68	-3.43	0.4268	-0.0453	-0.2814	
-1.015284	0.062952	0.024644	2.87	-0.56	-3.36	0.4297	-0.0531	-0.2847	
-1.01016	0.066734	0.017324	3.64	0.77	-2.38	0.4254	-0.0561	-0.2832	
-0.999302	0.081374	0.012566	6.58	0.98	-1.75	0.4225	-0.0542	-0.266	
-1.006012	0.08906	0.011346	5.11	2.45	-1.4	0.4283	-0.0516	-0.2846	
-1.008208	0.089548	-0.003416	8.19	2.59	-3.36	0.4241	-0.0426	-0.2953	
-1.008452	0.074542	0.002928	8.26	0.98	-4.27	0.4296	-0.0483	-0.2768	
-1.004792	0.06405	0.001464	8.33	1.12	-4.41	0.424	-0.053	-0.2815	
-1.023214	0.086376	-0.00488	11.9	7.21	-5.32	0.4268	-0.0574	-0.2707	
-1.034682	0.081008	-0.009393999	9.87	2.24	-4.2	0.4283	-0.0454	-0.2845	
-1.031998	0.08052	0.000244	6.16	-0.91	-2.52	0.4338	-0.0497	-0.2706	
-1.00467	0.071126	0.00671	6.65	-2.66	-2.03	0.4268	-0.0406	-0.2766	
-0.986736	0.051606	0.007686	7.91	-2.38	-2.24	0.4211	-0.0634	-0.2662	
-0.982344	0.04819	0.015128	10.71	-1.4	-3.64	0.431	-0.0541	-0.2645	
-1.00833	0.053314	-0.004758	15.12	1.4	-5.46	0.424	-0.0467	-0.2751	
-1.011624	0.061976	0.008417999	16.45	0.35	-6.37	0.4296	-0.0467	-0.2752	
-1.022482	0.070516	-0.003782	17.08	5.04	-5.6	0.4226	-0.0529	-0.2768	
-1.01931	0.055388	0.005978	15.68	0.7	-4.48	0.424	-0.0605	-0.2739	
-1.01016	0.04331	0.00366	16.73	3.64	-3.78	0.4324	-0.0529	-0.2753	
-0.998326	0.053436	-0.000244	17.29	0.42	-3.08	0.4282	-0.0497	-0.2721	
-1.001254	0.062708	0.002562	20.23	1.61	-3.85	0.4324	-0.0557	-0.2645	
-1.00711	0.047336	0.001342	21.56	1.68	-4.55	0.4183	-0.0498	-0.2736	
-1.007842	0.031842	-0.005368	23.1	2.66	-5.81	0.4253	-0.0619	-0.2677	
-1.004426	0.039284	0.003416	25.76	5.46	-5.25	0.4296	-0.0603	-0.2662	
-1.021018	0.055632	-0.012444	24.15	6.02	-6.16	0.4381	-0.0515	-0.2816	
-1.005036	0.056852	-0.005612	21.7	7.35	-5.67	0.4324	-0.068	-0.2664	
-1.01443	0.071004	-0.010614	18.13	3.64	-3.78	0.4211	-0.0664	-0.2631	
-1.029192	0.066124	-0.017202	15.33	3.78	-1.96	0.4224	-0.0508	-0.2534	
-1.025288	0.065392	-0.023668	13.51	0.98	-1.19	0.4324	-0.0619	-0.2662	
-1.01809	0.064904	-0.019764	11.9	0.63	-1.12	0.4282	-0.0635	-0.2709	
-1.009428	0.06039	-0.026352	10.15	1.05	-1.68	0.4323	-0.0679	-0.2601	
-1.00772	0.053558	-0.01952	9.87	-0.14	-1.61	0.4295	-0.0647	-0.2554	
-1.026142	0.048434	-0.018178	11.2	0.21	-2.38	0.4281	-0.0617	-0.2568	
-1.026508	0.03355	-0.025254	11.83	-0.7	-3.71	0.431	-0.0604	-0.2677	
-1.00955	0.03355	-0.033794	9.66	-3.78	-3.71	0.4295	-0.0588	-0.2646	
-1.001254	0.042212	-0.004026	11.76	0.35	-3.15	0.4281	-0.0603	-0.2646	
-1.004304	0.035014	-0.014396	11.06	2.38	-2.8	0.438	-0.0605	-0.2725	
-1.007232	0.033062	-0.006344	10.5	2.87	-1.89	0.4239	-0.0651	-0.2694	
-1.016016	0.030256	-0.011224	9.03	3.08	-1.47	0.4295	-0.0634	-0.2662	
-1.013088	0.02684	-0.012078	8.89	3.85	-2.03	0.4338	-0.0711	-0.2665	
-1.013942	0.026718	-0.021106	7.98	3.71	-2.24	0.4309	-0.0649	-0.2647	
-1.021994	0.026474	-0.025254	5.95	4.62	-1.19	0.431	-0.0665	-0.2679	
-1.018578	0.025864	-0.03416	4.48	3.64	0	0.4309	-0.0696	-0.2664	
-1.00894	0.029768	-0.032696	2.8	2.94	0.56	0.4225	-0.0665	-0.2663	
-1.002718	0.033428	-0.032208	0.7	3.36	0.84	0.4338	-0.0649	-0.2647	
-1.001742	0.034404	-0.031964	-1.89	2.45	1.82	0.4379	-0.0678	-0.2555	
-1.00589	0.038552	-0.03111	-5.11	0.84	3.5	0.4407	-0.0614	-0.2491	
-1.012844	0.047092	-0.035502	-6.65	0.91	3.64	0.4351	-0.0662	-0.2554	
-1.025288	0.051972	-0.0366	-6.72	1.4	2.73	0.4365	-0.06439999	-0.2445	
-1.029314	0.057828	-0.036112	-6.51	0.28	2.1	0.4435	-0.0628	-0.2429	
-1.022726	0.061	-0.035502	-7.49	-0.63	1.89	0.4366	-0.0617	-0.26	
-1.014796	0.064416	-0.038918	-8.4	-0.35	1.61	0.4338	-0.0588	-0.2646	
-1.014064	0.060634	-0.038308	-10.99	-1.05	0.91	0.4295	-0.0616	-0.2553	
-1.014796	0.058682	-0.04209	-13.72	-3.15	0.56	0.4295	-0.0725	-0.2587	
-1.017724	0.054168	-0.04148	-17.85	-6.16	1.89	0.4351	-0.0632	-0.2569	
-1.025654	0.051484	-0.04148	-14.14	-7.42	2.59	0.4351	-0.0461	-0.2518	
-1.04188	0.039162	-0.028914	-12.32	-3.99	1.89	0.4366	-0.0648	-0.2601	
-1.019432	0.03172	-0.02257	-11.48	-7.14	1.96	0.4366	-0.0571	-0.2599	
-1.006744	0.031964	-0.017324	-11.48	-5.25	1.96	0.4309	-0.0524	-0.2551	
-1.005646	0.032208	-0.015006	-10.78	-4.76	2.24	0.4295	-0.0696	-0.2648	
-1.01443	0.032696	-0.015738	-11.76	-5.18	4.13	0.431	-0.065	-0.2663	
-1.025898	0.050264	-0.010004	-14	-6.58	7.42	0.4267	-0.0649	-0.2647	
-1.027972	0.0671	-0.008784	-15.33	-7.14	8.4	0.4338	-0.0665	-0.2679	
-1.017968	0.060756	-0.006344	-16.52	-7	6.86	0.4338	-0.0697	-0.2727	
-0.99857	0.036478	0.006466	-18.34	-12.88	5.6	0.4225	-0.0621	-0.2755	
-0.99796	0.028426	0.006222	-12.46	-5.6	2.87	0.4296	-0.0574	-0.2708	
-1.00406	0.038674	0.006832	-7	-2.59	3.22	0.4296	-0.0682	-0.2726	
-1.016138	0.056974	0.005612	-7.84	-3.64	5.6	0.4324	-0.0526	-0.2629	
-1.00772	0.06527	-0.008296	-14.21	-16.03	9.52	0.4324	-0.0652	-0.2757	
-1.020652	0.106628	0.005002	-10.01	1.61	7.49	0.4366	-0.0604	-0.2693	
-1.009184	0.113338	0.010248	-15.68	-2.66	7.35	0.4268	-0.0607	-0.2802	
-1.011624	0.097112	0.003782	-17.5	-5.67	5.32	0.4268	-0.0452	-0.2782	
-1.010404	0.06832	0.00061	-15.75	-7.14	3.22	0.4268	-0.0639	-0.2849	
-1.017358	0.073078	0.010858	-14.7	-7	2.8	0.4268	-0.0622	-0.2771	
-1.017114	0.069784	0.011956	-10.64	-5.32	3.85	0.4169	-0.056	-0.2769	
-1.028094	0.092964	0.015006	-12.53	-6.37	5.11	0.4212	-0.0625	-0.2895	
-1.014918	0.09076799	0.020374	-13.86	-4.34	4.97	0.4155	-0.0591	-0.2754	
-1.019554	0.07503	0.020374	-16.8	-4.27	5.67	0.417	-0.0562	-0.2862	
-1.018456	0.074664	0.024278	-15.33	-3.36	5.39	0.424	-0.0592	-0.2817	
-1.010282	0.082472	0.030012	-15.05	-3.57	4.62	0.4184	-0.0517	-0.2893	
-1.007354	0.07564	0.031964	-14.14	-0.63	3.92	0.4114	-0.0517	-0.2877	
-1.004182	0.08052	0.031476	-13.02	-3.71	3.5	0.4169	-0.0685	-0.2819	
-1.005158	0.079178	0.03965	-12.67	-4.13	4.34	0.4226	-0.0672	-0.2943	
-1.016748	0.09089	0.03782	-13.09	1.12	5.32	0.4283	-0.0578	-0.2864	
-1.010526	0.108946	0.036966	-12.88	-1.75	6.3	0.4071	-0.0471	-0.2906	
-1.00589	0.108092	0.041358	-14.63	-3.01	7.28	0.424	-0.0501	-0.2877	
-0.999424	0.110044	0.029646	-17.29	-0.98	7.49	0.417	-0.0518	-0.2955	
-0.993446	0.116876	0.03233	-18.48	0.35	7.42	0.4213	-0.055	-0.2971	
-1.018822	0.093086	0.040626	-20.23	0.7	8.19	0.4199	-0.0519	-0.2971	
-1.005768	0.102724	0.045018	-20.51	-1.82	8.75	0.4241	-0.0501	-0.2893	
-0.998692	0.101504	0.036966	-19.67	-0.91	8.26	0.4213	-0.0549	-0.294	
-0.997838	0.10126	0.048312	-19.6	-1.05	7	0.4226	-0.0532	-0.2893	
-1.007964	0.104432	0.034648	-17.01	-0.56	7.42	0.4156	-0.0517	-0.2892	
-1.007964	0.120658	0.043798	-16.59	-2.87	7.49	0.4241	-0.0565	-0.2972	
-1.015162	0.11285	0.03965	-17.43	0.07	6.23	0.4114	-0.0427	-0.2983	
-1.001864	0.110288	0.043188	-17.64	0.49	5.88	0.4227	-0.0394	-0.2921	
-1.007598	0.100162	0.045994	-15.82	-0.21	5.67	0.4128	-0.0409	-0.2874	
-1.0126	0.098454	0.041968	-14.91	-0.91	5.81	0.4129	-0.0476	-0.3094	
-1.016138	0.110288	0.046604	-13.93	-0.28	4.69	0.41	-0.0472	-0.2938	
-1.014552	0.112606	0.04392	-12.81	0.21	3.29	0.41	-0.0564	-0.2909	
-1.005524	0.110044	0.045384	-11.48	0.49	3.36	0.4086	-0.0503	-0.2938	
-1.005036	0.11102	0.046604	-11.13	0.07	3.99	0.4227	-0.0364	-0.2936	
-1.013942	0.128588	0.049288	-9.66	-0.7	3.92	0.4227	-0.0379	-0.2905	
-1.011258	0.135054	0.048434	-7.21	-1.4	2.66	0.4156	-0.0503	-0.297	
-0.99918	0.13542	0.057706	-5.32	-2.1	1.47	0.4199	-0.0473	-0.2985	
-0.988688	0.133468	0.059414	-3.43	-1.68	0.42	0.4199	-0.0441	-0.2953	
-0.988688	0.128466	0.063074	-2.1	-1.96	-0.14	0.4198	-0.0439	-0.2844	
-0.996496	0.131028	0.065392	-1.26	-0.56	-0.77	0.4184	-0.0503	-0.2939	
-0.989786	0.137616	0.06527	0.91	-1.47	-1.61	0.4072	-0.035	-0.2981	
-0.986004	0.133834	0.06954	2.24	-1.19	-2.31	0.4241	-0.0411	-0.2984	
-0.99308	0.12932	0.068076	3.85	-1.05	-3.22	0.4129	-0.049	-0.3063	
-0.997228	0.127368	0.066612	6.02	-1.12	-4.06	0.4142	-0.0471	-0.2922	
-0.995886	0.117486	0.067954	7.7	-1.12	-4.55	0.4227	-0.0458	-0.3	
-0.99491	0.117486	0.059048	8.75	-1.4	-5.11	0.4212	-0.0517	-0.2908	
-0.993202	0.11956	0.048434	8.54	-1.4	-6.09	0.4156	-0.0471	-0.2907	
-1.013942	0.10858	0.045384	6.51	-0.28	-7.14	0.4156	-0.0426	-0.2937	
-1.023824	0.100894	0.046726	5.11	2.03	-6.09	0.4227	-0.0505	-0.3033	
-1.024678	0.095648	0.047336	5.46	1.82	-5.39	0.4241	-0.0457	-0.2969	
-1.01199	0.0976	0.043676	5.67	-1.4	-4.62	0.41	-0.0473	-0.3	
-1.00223	0.102846	0.043188	6.37	-0.7	-4.83	0.4157	-0.0442	-0.2984	
-1.001498	0.101504	0.042578	6.79	-0.84	-5.81	0.4199	-0.0472	-0.2954	
-1.011624	0.111508	0.042212	7.35	-0.49	-7.21	0.4086	-0.0348	-0.2919	
-1.01504	0.109068	0.043676	7.28	-1.47	-8.26	0.4128	-0.0331	-0.2856	
-1.016626	0.100772	0.050996	7.28	-1.89	-8.68	0.4184	-0.0317	-0.2888	
-1.001498	0.097844	0.055754	7.56	-2.8	-8.19	0.4142	-0.041	-0.2936	
-1.003938	0.105774	0.055266	7.91	-4.34	-6.3	0.4185	-0.0304	-0.3012	
-1.028094	0.104798	0.047824	9.59	-3.01	-5.88	0.4212	-0.044	-0.2891	
-1.032852	0.094794	0.039406	11.97	-2.45	-6.58	0.4199	-0.0379	-0.2936	
-1.015772	0.09747799	0.06222	11.69	-3.78	-7.21	0.4171	-0.0459	-0.3047	
-0.990152	0.080886	0.066368	11.27	-5.32	-8.05	0.4255	-0.0412	-0.3015	
-0.983076	0.073688	0.074908	10.57	-3.92	-8.82	0.4156	-0.0396	-0.2967	
-0.984662	0.08052	0.079788	9.17	-2.8	-7.7	0.4199	-0.0411	-0.2968	
-1.001498	0.083204	0.06222	10.08	2.59	-6.16	0.4227	-0.0458	-0.3	
-1.026508	0.082594	0.069052	11.76	4.69	-5.53	0.4142	-0.0394	-0.292	
-1.009306	0.068442	0.06893	11.62	-0.84	-6.09	0.4199	-0.035	-0.2982	
-1.009184	0.064782	0.06039	11.27	3.78	-7.56	0.4086	-0.035	-0.2981	
-1.01199	0.0732	0.063318	10.64	7.42	-7.56	0.4114	-0.0365	-0.2982	
-0.992104	0.08479	0.041358	12.04	4.27	-6.37	0.4185	-0.0349	-0.2966	
-1.017114	0.079422	0.033184	10.15	9.66	-5.74	0.4213	-0.0411	-0.2952	
-1.020164	0.068076	0.023912	13.58	1.75	-6.09	0.4213	-0.0474	-0.3016	
-1.033096	0.063074	0.040138	14.7	3.71	-6.23	0.4213	-0.0303	-0.2965	
-1.021384	0.056852	0.036844	12.95	3.36	-6.51	0.4213	-0.0348	-0.2904	
-1.020042	0.062342	0.034038	14.14	9.38	-7.49	0.4184	-0.0348	-0.2904	
-1.010526	0.057706	0.033184	13.65	2.17	-4.97	0.4269	-0.0427	-0.2984	
-1.014552	0.053436	0.026352	14.21	4.55	-3.36	0.41	-0.0409	-0.2889	
-1.021628	0.058438	0.02745	14.07	2.45	-3.57	0.4212	-0.0392	-0.2827	
-1.028094	0.06588	0.026108	15.26	2.1	-5.25	0.4212	-0.0424	-0.2875	
-1.028948	0.08174	0.030622	13.44	4.41	-6.44	0.4254	-0.047	-0.2861	
-1.003328	0.068442	0.043798	10.36	0.77	-5.25	0.4283	-0.0424	-0.2891	
-1.002596	0.042212	0.030988	11.83	3.22	-3.5	0.4227	-0.038	-0.2983	
-1.00345	0.0244	0.03965	11.2	-0.91	-1.61	0.4241	-0.0409	-0.289	
-1.007476	0.03294	0.038186	14.14	3.36	-2.03	0.4268	-0.0361	-0.2811	
-1.003572	0.034648	0.031964	15.47	3.64	-3.64	0.4254	-0.0406	-0.2766	
-1.008208	0.038552	0.041114	19.32	8.05	-4.83	0.4198	-0.0453	-0.2813	
-1.011746	0.034892	0.02318	15.61	3.85	-3.64	0.4254	-0.0483	-0.2767	
-1.018334	0.034282	0.028914	17.08	8.68	-2.66	0.4269	-0.0393	-0.2874	
-1.007964	0.032818	0.025986	17.22	1.96	-0.91	0.4254	-0.0546	-0.2816	
-1.012112	0.036234	0.017934	21.91	12.25	-1.33	0.4325	-0.0484	-0.2799	
-1.021994	0.044164	0.021106	22.33	10.43	-2.03	0.4311	-0.0515	-0.2815	
-1.021262	0.05246	0.020618	22.89	4.83	-1.54	0.4254	-0.0513	-0.2721	
-1.011014	0.06283	0.015128	23.38	9.59	-1.82	0.4297	-0.0531	-0.2862	
-1.009916	0.061	0.007808	21.49	7.7	-1.82	0.4296	-0.0575	-0.277	
-1.01748	0.064172	-0.002196	20.3	5.18	-0.7	0.4339	-0.0514	-0.2769	
-1.020042	0.055022	-0.00488	18.13	4.55	0.21	0.438	-0.0589	-0.2724	
-1.013454	0.055998	-0.006954	17.22	4.34	-0.56	0.4366	-0.0542	-0.2676	
-1.008086	0.057584	-0.011346	16.66	3.64	-1.12	0.4353	-0.0591	-0.2802	
-0.997472	0.055388	-0.013298	15.54	3.01	-3.64	0.4408	-0.0634	-0.2648	
-1.015284	0.05307	-0.011102	13.72	3.43	-4.13	0.4338	-0.0714	-0.2758	
-1.022726	0.049532	-0.012444	12.6	1.82	-3.99	0.4352	-0.0542	-0.266	
-1.019066	0.041114	-0.009638	10.15	1.82	-3.22	0.4366	-0.062	-0.2725	
-1.015162	0.039772	-0.012322	8.33	1.12	-2.73	0.4239	-0.0589	-0.2708	
-1.012356	0.036112	-0.005124	5.11	0.42	-2.45	0.4267	-0.0604	-0.2677	
-1.014552	0.028914	-0.006954	3.85	2.17	-1.33	0.4381	-0.0653	-0.2819	
-1.010038	0.034038	-0.002318	2.52	-0.07	-0.56	0.4366	-0.0587	-0.2615	
-1.006744	0.02989	-0.006344	2.87	2.73	0.07	0.4337	-0.0648	-0.2616	
-0.997106	0.02806	-0.005124	1.75	1.96	-0.21	0.431	-0.065	-0.2694	
-1.00467	0.03233	-0.00061	2.52	3.01	-0.28	0.4281	-0.0663	-0.257	
-1.018456	0.02745	-0.00488	0.91	2.45	0.35	0.4366	-0.0682	-0.2711	
-1.023824	0.029524	-0.014152	1.75	1.68	0.56	0.4338	-0.06659999	-0.2695	
-1.02175	0.035258	-0.011834	3.15	3.43	1.12	0.4296	-0.0759	-0.2743	
-1.025532	0.033672	-0.021472	4.27	3.64	1.68	0.4352	-0.07099999	-0.2634	
-1.01687	0.038308	-0.029402	3.08	2.45	1.96	0.4352	-0.0664	-0.2617	
-1.01382	0.04209	-0.02928	3.08	2.24	1.61	0.438	-0.068	-0.2664	
-1.023214	0.04575	-0.033428	3.29	2.17	0.91	0.4323	-0.0649	-0.2632	
-1.024434	0.044042	-0.034282	3.5	1.47	0.49	0.4253	-0.0633	-0.2615	
-1.011136	0.045628	-0.024888	2.52	-0.28	0.77	0.4366	-0.0726	-0.265	
-1.006622	0.04392	-0.021106	2.45	0.49	0.49	0.4366	-0.0587	-0.2615	
-1.010892	0.044164	-0.021594	2.03	0.63	0	0.4366	-0.0634	-0.2663	
-1.016382	0.04209	-0.019764	0.84	0.35	0	0.4295	-0.0649	-0.2647	
-1.015162	0.049532	-0.019276	-0.63	-0.07	0.49	0.4366	-0.0726	-0.2634	
-1.008574	0.054412	-0.019032	-1.75	-0.77	0.91	0.4323	-0.0726	-0.2649	
-1.011624	0.043188	-0.024644	-2.1	0	0.28	0.4281	-0.0696	-0.2679	
-1.014552	0.045506	-0.026108	-2.8	-0.14	-0.21	0.4422	-0.0665	-0.268	
-1.014796	0.052826	-0.022082	-3.36	-0.42	-0.21	0.4211	-0.062	-0.2693	
-1.009916	0.05124	-0.020008	-4.69	-1.33	-0.07	0.4281	-0.0695	-0.2617	
-1.0065	0.047946	-0.01952	-6.37	-1.96	-0.07	0.4338	-0.068	-0.2633	
-1.006134	0.04575	-0.018788	-8.47	-2.59	-0.14	0.4324	-0.0712	-0.268	
-1.025044	0.033184	-0.018056	-10.08	-2.94	-0.07	0.4366	-0.0697	-0.2696	
-1.030534	0.043066	-0.020008	-11.27	-4.41	1.4	0.4225	-0.0617	-0.2584	
-1.024312	0.049166	-0.012688	-10.78	-3.78	2.24	0.4281	-0.06659999	-0.2694	
-1.01321	0.046238	-0.021228	-10.92	-4.41	2.45	0.4352	-0.0648	-0.2616	
-1.001742	0.040382	-0.016958	-9.38	-4.2	1.75	0.4295	-0.068	-0.2664	
-1.010404	0.03355	-0.015006	-9.38	-2.17	0.28	0.4423	-0.06659999	-0.2695	
-1.036146	0.034648	-0.018788	-10.78	-3.5	0.77	0.4366	-0.0589	-0.2693	
-1.036146	0.042822	-0.008784	-13.16	-6.3	3.85	0.4212	-0.0576	-0.2785	
-1.022238	0.039528	-0.001586	-14	-6.44	6.37	0.4367	-0.0576	-0.2802	
-1.00894	0.033428	-0.004514	-14.07	-5.81	6.79	0.431	-0.0651	-0.2725	
-1.006866	0.04087	-0.004514	-13.51	-6.93	5.67	0.4324	-0.0622	-0.2787	
-1.014064	0.055876	-0.00549	-11.69	-6.16	4.2	0.4282	-0.059	-0.2724	
-1.017846	0.082594	0.009028	-12.46	-5.88	3.99	0.4282	-0.062	-0.2709	
-1.006744	0.088938	0.010248	-14.35	-8.33	4.06	0.4239	-0.0543	-0.2707	
-1.007354	0.071736	0.011834	-15.54	-6.58	4.76	0.4268	-0.0744	-0.2743	
-1.008452	0.06466	0.020252	-15.61	-7.77	5.53	0.4283	-0.0516	-0.2846	
-1.004548	0.065514	0.023058	-14.84	-8.19	5.39	0.4282	-0.0531	-0.2831	
-1.006988	0.05978	0.029402	-13.72	-5.6	5.04	0.4239	-0.0559	-0.2723	
-1.00345	0.060634	0.024522	-13.86	-6.37	4.83	0.4212	-0.0608	-0.2833	
-1.00528	0.057706	0.026962	-13.02	-5.32	4.27	0.4198	-0.0564	-0.2909	
-1.01321	0.056486	0.031354	-13.44	-3.5	4.55	0.4311	-0.0579	-0.291	
-1.00589	0.052216	0.027206	-14.14	-3.78	5.67	0.4269	-0.0656	-0.2912	
-1.015528	0.06954	0.027572	-12.25	0.14	5.74	0.4199	-0.0535	-0.3018	
-1.01748	0.081252	0.031964	-14	-0.21	5.67	0.4226	-0.0578	-0.2863	
-1.012112	0.091134	0.027816	-13.09	-1.75	6.58	0.4241	-0.0627	-0.2974	
-1.002352	0.089914	0.027694	-17.36	-1.96	6.16	0.4169	-0.0592	-0.2816	
-1.002962	0.085156	0.028426	-16.87	1.47	5.88	0.4241	-0.0518	-0.294	
-1.012112	0.082106	0.024766	-16.45	0.07	5.6	0.4156	-0.0578	-0.2863	
-1.015772	0.082106	0.026352	-14.84	-2.24	5.46	0.4156	-0.041	-0.2936	
-1.026752	0.087474	0.0244	-15.4	1.33	3.71	0.4282	-0.0561	-0.2816	
-1.030168	0.103334	0.022448	-15.47	-0.91	3.57	0.4184	-0.0594	-0.2895	
-1.019432	0.105408	0.025864	-17.64	-2.17	4.13	0.4212	-0.0561	-0.2816	
-1.00162	0.102968	0.030988	-20.09	-3.78	3.92	0.4269	-0.0578	-0.2895	
-1.00711	0.09821	0.031964	-19.6	-3.71	4.2	0.4212	-0.0578	-0.2863	
-1.007598	0.094184	0.033794	-20.93	-7.7	4.48	0.4212	-0.0484	-0.283	
-1.0126	0.091134	0.04209	-19.18	-5.67	5.04	0.4156	-0.0423	-0.2828	
-1.01138	0.084668	0.044652	-16.87	-3.5	3.92	0.4268	-0.0562	-0.2863	
-1.006622	0.084424	0.0488	-16.38	-2.59	3.22	0.417	-0.0485	-0.2829	
-1.001132	0.066124	0.052948	-14.14	-1.54	4.41	0.4227	-0.0564	-0.2941	
-1.007476	0.079788	0.05124	-13.79	0	4.9	0.4241	-0.0411	-0.2984	
-1.003694	0.084302	0.05368	-14.21	0.28	6.16	0.417	-0.0562	-0.2862	
-1.003206	0.10065	0.049166	-13.16	2.24	5.67	0.4198	-0.0441	-0.2922	
-1.003084	0.105774	0.050142	-13.93	0.21	4.55	0.4128	-0.0441	-0.2921	
-1.001742	0.090158	0.055998	-13.09	-0.42	3.78	0.4185	-0.0488	-0.297	
-1.010892	0.085888	0.051728	-12.25	1.54	4.48	0.4199	-0.0428	-0.3031	
-1.005524	0.093208	0.054534	-11.48	4.06	5.81	0.4157	-0.0442	-0.2984	
-1.004914	0.094794	0.04636	-9.87	1.75	7	0.4226	-0.0548	-0.2909	
-1.002596	0.112362	0.046238	-10.22	1.19	6.65	0.4128	-0.0395	-0.2936	
-1.008208	0.118706	0.04026	-9.59	1.54	5.11	0.4199	-0.0442	-0.2984	
-1.007476	0.118462	0.042456	-9.1	1.54	4.55	0.4199	-0.0442	-0.2984	
-1.012844	0.110654	0.04758	-7.7	1.54	3.15	0.4171	-0.0411	-0.2968	
-1.013942	0.110532	0.05002	-7.84	2.24	3.71	0.4156	-0.0426	-0.2937	
-1.001986	0.114314	0.046116	-6.86	0.7	4.55	0.4143	-0.0366	-0.2998	
-1.001742	0.122244	0.044774	-6.23	0.14	4.48	0.417	-0.0441	-0.2937	
-0.99674	0.120536	0.045628	-6.09	0.77	3.92	0.4128	-0.0409	-0.2905	
-0.999668	0.124928	0.04575	-6.16	2.59	2.66	0.4241	-0.0425	-0.2922	
-1.005646	0.115534	0.0488	-5.32	1.75	1.75	0.4213	-0.035	-0.3013	
-1.01382	0.10919	0.05673	-5.18	5.81	0.98	0.4198	-0.0424	-0.289	
-1.011136	0.10614	0.041724	-5.53	4.76	1.33	0.4128	-0.0395	-0.2952	
-1.03395	0.121512	0.095404	-1.12	19.46	-1.19	0.4156	-0.0534	-0.2971	
-0.996984	0.12932	0.04087	1.05	5.88	-0.7	0.4185	-0.0365	-0.2982	
-0.998448	0.12871	0.027938	1.68	3.57	-1.19	0.4199	-0.0488	-0.2954	
-0.991738	0.131394	0.035258	3.5	6.58	-2.52	0.4198	-0.0516	-0.2861	
-1.019188	0.119316	0.0305	8.82	18.97	-4.55	0.4184	-0.0406	-0.2781	
-1.006622	0.132614	0.020374	0.56	11.27	-8.4	0.4268	-0.0405	-0.275	
-1.043832	0.18849	0.069174	4.9	16.45	-5.67	0.4268	-0.0436	-0.2735	
-0.943182	0.14274	-0.077348	2.17	-27.79	-1.05	0.4227	-0.0332	-0.2888	
-1.13643	0.09333	0.20862	-31.08	-24.15	4.27	0.4255	-0.0332	-0.2888	
-0.967704	0.126636	0.06954	7	49.49	-6.02	0.417	-0.0379	-0.2905	
-1.031876	0.114192	0.001586	3.08	9.66	-4.27	0.4339	-0.0363	-0.289	
-1.025288	0.088816	0.02928	7.84	4.2	-4.83	0.4297	-0.0345	-0.2795	
-1.025532	0.103212	0.045994	6.65	6.93	-5.04	0.4198	-0.0377	-0.2827	
-0.991494	0.104676	0.013908	5.88	-7.7	-3.01	0.4198	-0.0344	-0.2764	
-1.010404	0.094184	0.016348	1.96	5.46	-3.15	0.424	-0.039	-0.2765	
-1.008818	0.09516	-0.002196	6.23	4.13	-4.48	0.4311	-0.0377	-0.2843	
-0.989054	0.098088	0.015616	6.72	-14.98	-3.92	0.4268	-0.0438	-0.2829	
-0.994788	0.099674	0.036112	8.75	9.59	-6.37	0.4212	-0.0394	-0.289	
-1.001376	0.107726	0.02806	10.15	5.88	-5.74	0.4212	-0.0409	-0.2874	
-1.011868	0.109434	0.024522	10.99	1.05	-5.18	0.4268	-0.0344	-0.2764	
-1.013332	0.101016	0.022082	10.22	4.27	-5.88	0.4367	-0.0393	-0.2859	
-1.015528	0.092354	0.018422	8.75	4.2	-6.37	0.4353	-0.0329	-0.278	
-0.997472	0.100406	0.017446	9.03	-2.59	-6.44	0.4184	-0.0407	-0.2812	
-0.99613	0.112118	0.011468	10.01	-3.85	-5.67	0.4254	-0.0343	-0.2717	
-1.02968	0.106506	0.008417999	12.25	4.2	-5.67	0.4282	-0.0436	-0.2735	
-1.045418	0.081496	0.000488	13.37	4.9	-6.23	0.4268	-0.0376	-0.2796	
-1.037122	0.061732	0.006344	13.79	0	-7.14	0.4282	-0.0421	-0.2751	
-1.015284	0.055266	0.007686	13.51	-3.15	-8.82	0.4339	-0.0344	-0.2765	
-1.004304	0.071126	-0.002928	13.65	-1.68	-9.38	0.4324	-0.0343	-0.2733	
-1.011014	0.089182	0.004026	13.16	0.77	-8.82	0.4254	-0.0298	-0.2763	
-1.015162	0.093208	0.00549	13.86	0.07	-7.28	0.4297	-0.0332	-0.2889	
-1.027972	0.081374	-0.001098	14.42	-0.35	-6.58	0.4283	-0.0392	-0.2828	
-1.02602	0.053802	0.007442	14.42	-0.77	-6.44	0.4226	-0.0376	-0.2811	
-1.01382	0.043066	0.009028	16.31	0.63	-7.7	0.4311	-0.0453	-0.2814	
-1.00101	0.056486	0.015616	19.18	4.62	-8.68	0.4269	-0.0392	-0.2843	
-1.006866	0.066978	0.016714	20.93	7.35	-9.1	0.4268	-0.0391	-0.2796	
-1.025288	0.078324	0.002318	23.17	8.75	-9.03	0.4226	-0.0484	-0.283	
-1.020652	0.06466	-0.005978	24.64	9.59	-8.12	0.4324	-0.0343	-0.2718	
-1.01077	0.058804	0.002196	25.34	11.97	-7.14	0.4338	-0.0358	-0.2718	
-1.007598	0.056608	-0.005978	21.98	7.7	-5.67	0.4325	-0.036	-0.278	
-1.014064	0.076738	-0.024034	26.95	17.15	-7.35	0.4282	-0.0282	-0.2747	
-1.015894	0.06588	-0.021716	24.15	16.38	-7.21	0.4324	-0.0433	-0.2642	
-1.013576	0.058926	-0.034282	27.58	18.2	-7.63	0.4295	-0.0477	-0.2549	
-1.01931	0.045018	-0.04331	24.15	18.83	-7.49	0.4253	-0.0418	-0.2641	
-1.01321	0.044042	-0.038064	22.26	9.38	-7	0.4338	-0.0465	-0.2658	
-1.01443	0.035502	-0.032818	23.17	15.12	-7.28	0.4352	-0.0371	-0.2609	
-1.01016	0.027572	-0.052094	24.08	16.38	-7.35	0.4507	-0.0416	-0.2565	
-1.017114	0.008662	-0.043798	24.22	18.83	-6.79	0.4422	-0.0478	-0.2566	
-1.017602	0.00244	-0.038064	22.19	12.18	-4.76	0.4393	-0.0505	-0.2426	
-1.003084	0.009516	-0.048068	34.86	18.62	-7.14	0.4435	-0.049	-0.2426	
-1.009916	-0.001098	-0.057462	40.25	29.54	-7.56	0.4378	-0.0379	-0.2298	
-0.991616	-0.009881999	-0.071614	45.85	31.29	-8.12	0.4421	-0.0441	-0.2315	
-0.993446	-0.016226	-0.109312	40.74	4.2	-2.87	0.4448	-0.0516	-0.2255	
-1.019066	0.016348	-0.09357399	44.66	15.33	-3.36	0.4491	-0.0456	-0.2332	
-1.036024	0.037698	-0.104676	39.97	15.89	-1.12	0.4533	-0.0486	-0.2271	
-1.038098	0.052094	-0.135176	34.58	13.3	0.35	0.4533	-0.0532	-0.2287	
-1.010526	0.05185	-0.115656	24.15	2.52	2.38	0.4533	-0.0529	-0.2178	
-0.994178	0.039528	-0.11102	23.31	6.09	1.89	0.4547	-0.0529	-0.2178	
-1.00101	0.016226	-0.124806	23.03	9.38	0.7	0.4561	-0.0591	-0.2164	
-0.998814	0.020496	-0.124806	18.48	1.19	0.84	0.4476	-0.0622	-0.2165	
-1.006256	0.01891	-0.123342	16.1	-2.59	0.56	0.4476	-0.0623	-0.2211	
-1.001254	0.017446	-0.117974	13.93	-2.24	-0.35	0.4462	-0.0668	-0.2166	
-1.010648	0.013786	-0.112972	10.92	-2.66	-0.7	0.4546	-0.0652	-0.215	
-1.011258	0.008417999	-0.11041	9.31	-3.08	-0.42	0.4391	-0.0606	-0.2164	
-1.00711	0.010736	-0.108702	7.42	-2.87	-0.28	0.449	-0.0575	-0.2163	
-1.006988	0.017934	-0.111142	5.95	-1.47	-1.26	0.4533	-0.0609	-0.2289	
-1.006256	0.01342	-0.10858	2.17	-2.03	-1.05	0.4547	-0.0669	-0.2228	
-1.000766	0.006832	-0.106872	-0.28	-1.4	-0.14	0.449	-0.0653	-0.2181	
-1.004426	0.000366	-0.104676	-1.26	-0.63	0.63	0.4476	-0.07009999	-0.226	
-1.001254	0.000122	-0.097844	-0.91	0	0.35	0.4462	-0.0747	-0.223	
-0.99918	-0.002562	-0.09577	0.14	1.82	-0.21	0.4546	-0.0681	-0.2073	
-1.000034	0.002318	-0.097356	0.77	3.22	-0.21	0.4505	-0.0592	-0.2226	
-1.002718	0.011712	-0.1037	-0.42	3.43	0.56	0.4476	-0.0683	-0.2135	
-1.00894	0.012078	-0.10919	-1.96	3.15	1.19	0.4448	-0.0622	-0.218	
-1.007476	0.014396	-0.116876	-2.17	3.36	1.12	0.4504	-0.0667	-0.215	
-1.018944	0.01769	-0.120902	-1.61	3.15	0.84	0.4532	-0.0591	-0.2164	
-1.012966	0.009881999	-0.128466	-0.77	1.61	0.84	0.449	-0.0575	-0.2148	
-1.0187	0.012688	-0.131272	-0.35	1.26	0.56	0.4491	-0.0609	-0.2258	
-1.013576	0.018666	-0.127978	-0.14	1.05	0.28	0.4504	-0.065	-0.2072	
-1.00772	0.017446	-0.122122	-0.49	2.1	-0.35	0.449	-0.0622	-0.2196	
-1.02114	0.012322	-0.131638	-1.47	2.1	-0.42	0.4476	-0.0604	-0.2086	
-1.006988	0.011468	-0.125294	-4.06	-1.96	0.28	0.4575	-0.0606	-0.2149	
-1.00772	0.010858	-0.124074	-4.27	-0.14	0.28	0.4476	-0.07319999	-0.2276	
-1.014064	0.011712	-0.122366	-4.13	-1.26	0.21	0.4461	-0.0635	-0.2071	
-1.015772	0.015982	-0.120048	-3.85	-0.91	-0.07	0.4476	-0.0576	-0.2195	
-1.012356	0.016348	-0.119194	-3.85	-0.98	-0.21	0.456	-0.0683	-0.2151	
-0.99979	0.021228	-0.115778	-4.69	-1.33	-0.49	0.4518	-0.0589	-0.2086	
-0.998082	0.025254	-0.115046	-5.67	-1.33	-0.84	0.4547	-0.067	-0.2244	
-1.007964	0.019032	-0.119072	-6.37	-1.47	-1.47	0.4575	-0.0621	-0.215	
-1.02602	0.009393999	-0.122488	-7.49	-1.82	-1.75	0.4476	-0.0653	-0.2181	
-1.023824	0.010248	-0.12078	-10.08	-3.15	-0.98	0.4561	-0.0561	-0.2226	
-1.012966	0.0061	-0.11651	-12.53	-4.06	0.42	0.4476	-0.0577	-0.221	
-1.008818	0.001586	-0.117974	-14.56	-4.55	1.68	0.4519	-0.0561	-0.221	
-1.006012	0.004514	-0.118828	-15.89	-5.04	2.45	0.449	-0.0591	-0.2179	
-1.019188	0.006344	-0.115412	-14.14	-4.48	1.82	0.4533	-0.0452	-0.2161	
-1.022848	0.01037	-0.11346	-13.72	-4.9	1.05	0.4462	-0.0561	-0.221	
-1.011014	0.02135	-0.103456	-14.56	-5.74	1.33	0.4476	-0.0683	-0.215	
-1.000278	0.026352	-0.08784	-16.73	-5.46	2.17	0.4434	-0.0578	-0.2257	
-1.002596	0.02196	-0.095648	-18.76	-3.92	3.29	0.4519	-0.0716	-0.2245	
-1.010404	0.022936	-0.096868	-20.79	-3.15	4.97	0.4547	-0.0561	-0.2226	
-1.003206	0.032818	-0.086498	-21.14	-3.57	5.81	0.4533	-0.0532	-0.2272	
-1.008208	0.041236	-0.087596	-19.18	-0.98	4.62	0.4476	-0.053	-0.2209	
-1.01687	0.035136	-0.098454	-18.62	0.77	2.17	0.4434	-0.0622	-0.218	
-1.010526	0.031476	-0.102602	-19.81	0.07	1.4	0.4462	-0.0639	-0.2227	
-1.001132	0.037332	-0.100406	-19.53	-1.05	2.24	0.4434	-0.0546	-0.2225	
-1.005036	0.035136	-0.09821	-19.53	-0.49	3.01	0.4407	-0.058	-0.235	
-1.011502	0.026352	-0.104066	-19.88	-0.7	3.57	0.4462	-0.0576	-0.2179	
-1.022848	0.037332	-0.0976	-22.05	-1.4	3.22	0.4449	-0.0424	-0.2253	
-1.025776	0.038064	-0.09333	-22.89	0.07	1.96	0.4421	-0.0549	-0.2334	
-1.011746	0.040016	-0.091134	-24.5	-0.63	1.61	0.4463	-0.0516	-0.2255	
-1.008086	0.045872	-0.10004	-24.92	2.03	2.45	0.4406	-0.0517	-0.2302	
-1.006622	0.057584	-0.097112	-26.67	0.63	3.43	0.4463	-0.0424	-0.2253	
-1.01321	0.054412	-0.100528	-27.3	1.47	3.85	0.4449	-0.058	-0.235	
-1.00772	0.051362	-0.09516	-28.21	-0.28	4.06	0.4435	-0.0426	-0.2362	
-0.996618	0.048434	-0.086742	-24.22	-0.56	3.71	0.4449	-0.038	-0.2376	
-1.009428	0.05612	-0.083082	-20.09	-0.7	2.31	0.4421	-0.0456	-0.23	
-1.0126	0.052704	-0.09162199	-18.34	-0.56	0.91	0.4421	-0.0471	-0.2301	
-1.019432	0.05124	-0.089548	-18.62	-0.14	-0.07	0.4562	-0.0395	-0.2346	
-1.014674	0.056608	-0.09699	-20.93	-0.7	0.91	0.4463	-0.0471	-0.2285	
-1.011136	0.069052	-0.086742	-22.82	-3.5	3.08	0.4477	-0.0348	-0.2314	
-1.009428	0.068442	-0.085766	-23.94	-5.53	4.69	0.4478	-0.0335	-0.2422	
-1.008818	0.059902	-0.086254	-23.03	-6.09	4.76	0.4407	-0.0349	-0.236	
-1.006378	0.065758	-0.083204	-22.82	-5.6	4.55	0.4365	-0.0382	-0.2438	
-1.001498	0.068076	-0.07905599	-22.05	-4.9	3.64	0.4351	-0.0352	-0.2469	
-1.007598	0.064294	-0.077592	-19.67	-4.2	1.96	0.4407	-0.0428	-0.2424	
-1.01565	0.05978	-0.071492	-19.53	-3.64	1.89	0.4323	-0.0335	-0.2406	
-1.012722	0.053802	-0.072712	-17.36	-3.64	2.59	0.4393	-0.0288	-0.2374	
-1.00955	0.057828	-0.0732	-15.68	-1.89	2.1	0.4393	-0.032	-0.2437	
-1.005524	0.055144	-0.067832	-14.56	0.84	1.54	0.4436	-0.0305	-0.2437	
-1.006012	0.05368	-0.061244	-13.65	0.28	1.61	0.4407	-0.0319	-0.2375	
-1.01565	0.050996	-0.067954	-11.97	0.91	1.96	0.4449	-0.0303	-0.2359	
-1.016138	0.059414	-0.073078	-9.66	0.42	2.24	0.4393	-0.0274	-0.2436	
-1.006744	0.065758	-0.075274	-8.12	-0.42	2.17	0.4478	-0.0366	-0.2407	
-1.005524	0.072102	-0.074908	-6.58	0.7	1.82	0.445	-0.026	-0.2467	
-1.017846	0.076128	-0.07442	-5.74	1.19	1.4	0.4407	-0.032	-0.2437	
-1.009306	0.077592	-0.074786	-3.99	-0.07	1.19	0.4478	-0.0305	-0.2422	
-1.005036	0.077348	-0.072102	-2.1	0	0.77	0.4549	-0.0321	-0.2485	
-1.010282	0.079178	-0.07137	0.42	0.35	0.77	0.4436	-0.0337	-0.25	
-1.011014	0.07905599	-0.071614	3.01	-0.07	0.35	0.4294	-0.0287	-0.2326	
-1.013088	0.081252	-0.071614	4.83	-0.49	-0.35	0.4407	-0.0335	-0.2406	
-1.008452	0.08052	-0.075518	5.74	-0.56	-1.12	0.4337	-0.0383	-0.2469	
-1.007842	0.080886	-0.072834	5.81	-0.28	-1.47	0.4435	-0.0304	-0.239	
-1.005158	0.079788	-0.067588	6.65	-0.42	-1.47	0.4394	-0.0291	-0.2483	
-1.003328	0.07869	-0.068564	7.98	0.14	-1.82	0.4365	-0.0272	-0.2326	
-1.00894	0.076372	-0.069784	9.45	0.35	-2.52	0.4379	-0.0334	-0.2375	
-1.007354	0.077104	-0.067832	11.55	0.35	-3.92	0.4435	-0.0347	-0.2282	
-1.003328	0.079788	-0.07198	12.67	1.12	-4.9	0.4379	-0.035	-0.2375	
-1.005646	0.075396	-0.07381	13.02	1.4	-5.11	0.4379	-0.035	-0.2375	
-1.016992	0.056608	-0.083692	13.58	1.54	-5.32	0.4436	-0.0228	-0.2451	
-1.015528	0.051606	-0.081374	13.51	0.49	-5.32	0.4478	-0.0148	-0.2324	
-1.01748	0.059048	-0.08357	13.37	0.56	-5.46	0.4436	-0.0351	-0.2422	
-1.01992	0.06405	-0.0915	12.39	0.42	-4.97	0.4435	-0.0364	-0.2345	
-1.024556	0.064782	-0.088572	10.5	-1.61	-3.57	0.4407	-0.029	-0.2436	
-1.019676	0.063074	-0.081984	9.8	-3.15	-2.1	0.4422	-0.0353	-0.25	
-1.007598	0.055876	-0.07564	11.62	-3.08	-2.31	0.4464	-0.0322	-0.2484	
-1.00406	0.040626	-0.07515199	14.91	-2.52	-3.85	0.4309	-0.0322	-0.2499	
-1.008574	0.032086	-0.075396	18.13	-2.52	-6.02	0.4463	-0.0334	-0.236	
-1.00223	0.034648	-0.066002	19.04	-2.17	-7.35	0.435	-0.0256	-0.231	
-0.997106	0.053436	-0.061244	20.3	-0.84	-7.63	0.4464	-0.0304	-0.239	
-0.990884	0.054656	-0.05673	21.21	0.98	-6.79	0.4435	-0.032	-0.2406	
-1.000644	0.026352	-0.061854	20.58	2.38	-6.58	0.4421	-0.0319	-0.239	
-1.002596	0.027694	-0.060878	19.46	3.5	-5.39	0.4435	-0.0381	-0.2376	
-1.009794	0.032208	-0.058682	18.83	6.16	-4.69	0.4407	-0.0366	-0.2407	
-0.989176	0.039894	-0.061854	17.85	5.46	-3.99	0.4421	-0.0412	-0.2408	
-0.99735	0.042456	-0.069418	15.96	7.98	-3.78	0.4421	-0.0335	-0.2406	
-1.00406	0.038674	-0.075762	13.65	8.12	-2.73	0.4449	-0.0364	-0.2314	
-1.010892	0.036356	-0.094184	10.08	7.21	-0.98	0.4463	-0.0379	-0.233	
-1.017602	0.034404	-0.103822	7.28	7.84	-0.07	0.4393	-0.0379	-0.2314	
-1.030168	0.040626	-0.11407	7.7	8.75	-0.49	0.4548	-0.0428	-0.2425	
-1.030656	0.041968	-0.117242	7.56	7.35	-1.47	0.4422	-0.0444	-0.2471	
-1.021018	0.041358	-0.128466	6.09	6.72	-1.89	0.4392	-0.0456	-0.2316	
-1.027728	0.04148	-0.132858	3.43	5.25	-1.4	0.4463	-0.0535	-0.2396	
-1.03151	0.03965	-0.12688	1.4	0.98	-0.21	0.4434	-0.0408	-0.2252	
-1.025776	0.03843	-0.121878	-1.68	-0.98	0.63	0.4491	-0.0393	-0.2268	
-1.020896	0.039162	-0.116632	-4.13	-2.31	0.7	0.4533	-0.0408	-0.2253	
-1.02175	0.038186	-0.100894	-3.99	-3.85	0.84	0.4533	-0.0424	-0.2253	
-1.010038	0.03599	-0.092232	-4.41	-4.2	0.98	0.4505	-0.0471	-0.2286	
-1.002596	0.034282	-0.087718	-5.11	-3.08	0.84	0.4505	-0.0517	-0.2287	
-0.995764	0.030012	-0.081496	-5.25	-2.45	0.91	0.4392	-0.0393	-0.2252	
-0.992714	0.024644	-0.077714	-5.11	-1.54	0.91	0.4406	-0.0392	-0.2221	
-0.996496	0.023668	-0.080154	-3.64	0.28	0.35	0.4505	-0.0392	-0.2206	
-1.003328	0.026352	-0.083448	-2.73	1.54	0.14	0.4407	-0.0503	-0.2364	
-1.011014	0.027206	-0.093086	-2.03	2.45	0.14	0.4434	-0.0485	-0.2223	
-1.015772	0.028548	-0.102846	-2.24	2.52	0	0.4449	-0.0379	-0.2314	
-1.014308	0.024888	-0.104676	-2.73	2.24	-0.14	0.4434	-0.0454	-0.2254	
-1.010648	0.025132	-0.105652	-3.43	-0.21	0	0.4407	-0.0441	-0.2347	
-1.009428	0.030256	-0.10614	-2.24	1.61	-0.35	0.4449	-0.0273	-0.2374	
-1.011502	0.036478	-0.107482	-1.75	1.68	-0.56	0.4491	-0.0332	-0.2282	
-1.015162	0.039406	-0.107116	-1.54	0.07	-0.42	0.4435	-0.0455	-0.2285	
-1.012478	0.038308	-0.10492	-1.33	0.42	-0.56	0.4547	-0.0439	-0.2238	
-1.013698	0.03721	-0.103578	-1.68	1.47	-0.77	0.4393	-0.0394	-0.2314	
-1.012478	0.035868	-0.103822	-1.54	0.14	-0.63	0.4392	-0.0316	-0.225	
-1.008696	0.036966	-0.100772	-1.33	0.77	-0.91	0.452	-0.0427	-0.2409	
-1.006134	0.035746	-0.10492	-0.42	0.63	-1.12	0.4434	-0.0408	-0.2237	
-1.009916	0.033794	-0.102602	0.14	0.77	-1.4	0.4462	-0.0268	-0.2171	
-1.013698	0.02989	-0.105774	0.07	0.63	-1.4	0.4463	-0.0456	-0.2332	
-1.01687	0.026108	-0.106018	-0.07	0.56	-1.33	0.4379	-0.0396	-0.2361	
-1.01504	0.024034	-0.103578	0.28	0.42	-1.19	0.4364	-0.0347	-0.225	
-1.010282	0.025376	-0.10431	0.84	0.49	-1.05	0.4505	-0.0394	-0.2299	
-1.00833	0.027206	-0.108092	1.19	0.56	-0.91	0.4477	-0.0409	-0.2268	
-1.008452	0.029646	-0.107726	1.19	0.28	-0.77	0.4491	-0.0361	-0.222	
-1.014064	0.030866	-0.10675	0.84	0.14	-0.77	0.4519	-0.0468	-0.2177	
-1.014186	0.03172	-0.105164	0.21	0.14	-0.56	0.4533	-0.0391	-0.2175	
-1.011868	0.030134	-0.103822	-0.35	0.14	-0.28	0.4448	-0.0407	-0.2206	
-1.008452	0.031598	-0.102846	-0.63	0.28	-0.07	0.4435	-0.0441	-0.2316	
-1.006744	0.030988	-0.104432	-0.91	0.28	0.14	0.4477	-0.0533	-0.2303	
-1.007476	0.03172	-0.105164	-1.26	0.28	0.21	0.4491	-0.0395	-0.2346	
-1.010038	0.030012	-0.106018	-1.54	0.21	0.21	0.4449	-0.0348	-0.2313	
-1.014918	0.029646	-0.10675	-1.4	0.21	0.14	0.4491	-0.0377	-0.2221	
-1.016748	0.030012	-0.10797	-1.33	0.07	0.07	0.4492	-0.0412	-0.2409	
-1.012478	0.02745	-0.111874	-1.54	0.28	0.07	0.4448	-0.039	-0.2159	
-1.009794	0.029158	-0.10919	-1.68	-0.21	0.42	0.4519	-0.0393	-0.2253	
-1.014674	0.03477	-0.109922	-2.17	-0.49	0.56	0.442	-0.0329	-0.2172	
-1.015284	0.03721	-0.11041	-2.38	-1.47	0.84	0.4449	-0.0347	-0.2267	
-1.009306	0.036356	-0.106506	-3.5	-1.68	0.98	0.4421	-0.0455	-0.2285	
-1.011746	0.038308	-0.107726	-4.13	-1.33	1.05	0.4449	-0.0364	-0.2329	
-1.011868	0.039528	-0.103456	-4.06	-2.31	1.05	0.4393	-0.0287	-0.2311	
-1.004426	0.03965	-0.104432	-4.13	-1.54	0.84	0.4534	-0.0442	-0.2379	
-1.00894	0.034648	-0.102724	-3.85	-1.82	0.77	0.4378	-0.0439	-0.2237	
-1.00833	0.036966	-0.0976	-3.43	-1.47	0.49	0.452	-0.0365	-0.2361	
-1.00711	0.035258	-0.094184	-3.71	-0.7	0.42	0.4477	-0.0471	-0.2301	
-1.006622	0.034526	-0.099064	-3.29	-0.63	0.7	0.4491	-0.0441	-0.2347	
-1.00833	0.037332	-0.096014	-2.8	-1.54	1.19	0.4435	-0.0394	-0.2283	
-1.009428	0.03721	-0.09211	-3.64	-0.91	1.47	0.4492	-0.0381	-0.2408	
-1.01565	0.03477	-0.098332	-4.2	0.14	1.89	0.4477	-0.0301	-0.2281	
-1.030412	0.038186	-0.099186	-4.48	-0.14	3.01	0.4505	-0.041	-0.2315	
-1.036024	0.03721	-0.100772	-5.25	0.28	3.78	0.4505	-0.0379	-0.233	
-1.00528	0.045628	-0.1098	-8.19	-1.33	6.16	0.4435	-0.0457	-0.2363	
-1.02358	0.050142	-0.104432	-7.07	1.19	6.23	0.4393	-0.0441	-0.2346	
-1.041758	0.053314	-0.10858	-7.35	0.56	8.26	0.4533	-0.044	-0.2285	
-1.019798	0.046726	-0.111752	-8.19	-3.92	9.94	0.4407	-0.0363	-0.2298	
-0.996252	0.046726	-0.102236	-6.44	-2.94	9.38	0.4477	-0.0516	-0.224	
-0.993446	0.049654	-0.097844	-5.67	2.38	8.82	0.4477	-0.0395	-0.2361	
-0.979294	0.055144	-0.079422	-6.93	0.56	7.63	0.4463	-0.0333	-0.2329	
-0.986248	0.05673	-0.09821	-5.74	2.59	5.25	0.4421	-0.0411	-0.2346	
-0.987956	0.066368	-0.080032	-5.11	3.57	3.22	0.4505	-0.0393	-0.2268	