Sensor string: E
Serial number: 1970-01-0000
Firmware version: 2,015
Hardware version: 2,2
Calibration quality: 5
ax	ay	az	gx	gy	gz	mx	my	mz

-1.012356	0.074176	0.025742	-4.06	0.21	0.28	0.3998	0.0014	-0.2696	Reference
-1.010038	0.080154	0.026108	-2.66	0.35	0.07	0.4041	0.0014	-0.2556	
-1.01016	0.08113	0.02806	-2.8	0.63	-0.07	0.4	-0.0092	-0.2558	
-1.004914	0.077836	0.02745	-2.94	0.07	0.07	0.397	0.0031	-0.2587	
-1.006866	0.077348	0.029158	-2.94	0.56	-0.28	0.3955	0.0015	-0.2634	
-1.009672	0.074054	0.027572	-2.52	1.68	-0.42	0.3985	-0.0061	-0.2635	
-1.010526	0.073322	0.02501	-2.94	0.98	-0.63	0.4026	0.0044	-0.2664	
-1.015162	0.078934	0.027938	-2.52	1.26	-0.63	0.3969	0.0061	-0.2587	
-1.017114	0.081862	0.025498	-0.98	1.12	-0.42	0.3998	0.0014	-0.2665	
-1.01321	0.085522	0.022448	0.42	0.28	-0.28	0.3969	0.003	-0.2603	
-1.01321	0.088938	0.022326	0.56	0.14	-0.07	0.3998	0.003	-0.2618	
-1.012112	0.091134	0.024156	1.47	0.28	0.07	0.3969	0.0092	-0.2571	
-1.009306	0.090402	0.025498	1.26	0.63	0.21	0.3983	0.006	-0.2664	
-1.01077	0.091256	0.023424	1.12	0.7	0.28	0.4027	-0.0016	-0.265	
-1.011014	0.088938	0.022814	0.35	0	0.35	0.4055	0.0044	-0.2603	
-1.01016	0.085766	0.019276	-0.21	-0.35	0.42	0.397	0	-0.2588	
-1.011014	0.087108	0.018544	-0.21	0	0.14	0.3927	0.0001	-0.2588	
-1.011868	0.089792	0.022204	-0.35	0.07	-0.07	0.4012	0.0028	-0.2788	
-1.01382	0.09076799	0.02257	-0.42	-0.21	-0.14	0.4055	0.006	-0.2571	
-1.00833	0.089304	0.021228	-0.63	-0.28	-0.07	0.4071	-0.0047	-0.2634	
-1.0126	0.086132	0.027328	-2.17	0.07	-0.14	0.3998	0.0061	-0.2556	
-1.011868	0.085522	0.024888	-2.1	0.28	-0.14	0.3997	0.0076	-0.2602	
-1.010404	0.081862	0.026108	-2.66	-0.07	-0.14	0.4038	0.0213	-0.2586	
-1.0126	0.077592	0.026962	-2.17	0	-0.21	0.3969	0.0061	-0.2587	
-1.013088	0.076128	0.026718	-1.61	0	-0.21	0.3956	-0.0015	-0.2619	
-1.011258	0.076616	0.025254	-0.42	-0.21	-0.14	0.4126	0.0028	-0.2602	
-1.014918	0.078202	0.023424	-0.56	-0.07	-0.14	0.4013	-0.0001	-0.2696	
-1.012722	0.077348	0.02501	-0.84	-0.56	-0.21	0.404	0.006	-0.2602	
-1.007964	0.081496	0.021716	0.84	-0.42	-0.35	0.3969	0.0061	-0.2572	
-1.014186	0.086132	0.022204	0.49	0.42	-0.28	0.4012	0.0014	-0.268	
-1.015772	0.083936	0.020008	-1.19	-0.35	-0.28	0.4096	0.0119	-0.2725	
-1.011868	0.075762	0.020252	-1.19	-0.98	-0.07	0.3983	0.0045	-0.2618	
-1.012356	0.078934	0.020252	1.19	-0.84	0.14	0.3983	0.0092	-0.2571	
-1.01504	0.084302	0.01891	1.61	-0.35	0.21	0.4039	0.0105	-0.2679	
-1.014064	0.084546	0.01891	0.42	-0.56	0.21	0.3982	0.0121	-0.2726	
-1.010038	0.0854	0.020984	1.26	-0.84	0.07	0.3955	0.0031	-0.2618	
-1.01077	0.090036	0.023058	2.38	0.07	0.07	0.397	-0.0015	-0.2665	
-1.011136	0.088694	0.026474	1.54	0.07	0	0.3968	0.0107	-0.2618	
-1.009916	0.08479	0.02623	0.91	-0.28	-0.28	0.4039	0.0105	-0.2679	
-1.01199	0.080886	0.02562	0.14	0	-0.56	0.4011	0.009	-0.2695	
-1.0126	0.080398	0.02623	-0.14	-0.35	-0.7	0.3941	0.0046	-0.2618	
-1.007232	0.084302	0.026474	0.91	-0.84	-0.49	0.4039	0.0121	-0.2633	
-1.01016	0.081984	0.026474	0.84	0	-0.28	0.4055	0.0043	-0.268	
-1.013698	0.084424	0.028304	0.21	-0.49	-0.28	0.394	0.0076	-0.268	
-1.009672	0.082716	0.025864	-1.68	-2.24	-0.21	0.394	0.0077	-0.2618	
-1.011502	0.078202	0.027694	-2.38	-2.24	-0.28	0.3984	0.0029	-0.268	
-1.00711	0.07747	0.030744	1.68	-1.47	-0.21	0.4095	0.0182	-0.2555	
-1.012478	0.076616	0.026474	1.82	-0.7	-0.56	0.3983	0.0044	-0.2742	
-1.01016	0.081008	0.024766	2.1	-1.05	-0.63	0.4013	-0.0031	-0.2665	
-1.010892	0.08235	0.022814	0.49	-0.91	-0.7	0.4068	0.0105	-0.2586	
-1.011624	0.080032	0.028426	0.42	-0.56	-0.42	0.3983	0.0061	-0.2541	
-1.010282	0.078934	0.031476	0.35	-0.84	-0.14	0.3998	0.0015	-0.2603	
-1.010282	0.07686	0.034404	0.49	-0.98	0	0.3912	0.0077	-0.2618	
-1.009794	0.076738	0.032086	0.14	-0.84	0.07	0.3955	0.0045	-0.2696	
-1.013942	0.078202	0.03172	-0.21	-0.63	0.14	0.4053	0.012	-0.2695	
-1.014064	0.07869	0.030866	-0.07	-1.12	0.14	0.4055	0.0044	-0.2587	
-1.011746	0.07905599	0.035014	0.49	-1.12	0.28	0.4041	0.0029	-0.2634	
-1.010892	0.079666	0.036966	1.47	-0.84	0.35	0.397	0	-0.2727	
-1.009306	0.079666	0.039162	2.1	-0.42	0.7	0.3996	0.0152	-0.2633	
-1.0126	0.080276	0.031842	1.26	-0.21	0.77	0.3926	0.0092	-0.2649	
-1.014308	0.083204	0.025986	0.49	-0.49	0.42	0.3996	0.0106	-0.2679	
-1.010038	0.083204	0.022692	0.49	-0.77	0.14	0.3926	0.0046	-0.2649	
-1.01077	0.082838	0.028182	0	-1.05	0.14	0.3926	0.0092	-0.2633	
-1.006866	0.080276	0.036478	0.77	-0.21	0.56	0.4027	-0.0001	-0.2711	
-1.007354	0.07905599	0.038064	0.14	0.28	1.05	0.4012	0.0045	-0.2587	
-1.01626	0.080276	0.034526	-0.77	0.14	1.4	0.4055	0.0028	-0.2695	
-1.010892	0.081862	0.033184	-2.38	-0.98	1.19	0.3983	0.0045	-0.2695	
-1.011868	0.07869	0.033916	-1.75	-0.28	0.98	0.3969	0.0014	-0.2727	
-1.011746	0.0793	0.03599	0.98	0.77	0.7	0.3969	0.0045	-0.2665	
-1.012478	0.080154	0.031842	1.89	0.77	0.21	0.3984	0.0015	-0.2618	
-1.012234	0.084912	0.032696	1.54	0.14	-0.07	0.4054	0.0106	-0.2571	
-1.014308	0.085034	0.032086	1.75	-0.07	-0.35	0.3969	0.003	-0.268	
-1.01443	0.084302	0.028914	1.26	-0.14	-0.35	0.3997	0.0106	-0.2664	
-1.013332	0.084912	0.02989	0.77	-0.42	-0.42	0.3925	0.0123	-0.268	
-1.009794	0.085888	0.029036	0.7	-0.63	-0.42	0.3983	0.0059	-0.2757	
-1.00894	0.084668	0.029158	0.35	-0.49	-0.42	0.3983	0.0075	-0.2711	
-1.011258	0.083326	0.033428	0.07	-0.35	-0.28	0.3956	-0.0015	-0.2681	
-1.00955	0.08723	0.034648	0.28	-0.91	-0.28	0.401	0.0137	-0.2664	
-1.01138	0.08784	0.03477	0.49	-0.21	-0.28	0.4012	0.0029	-0.2634	
-1.013088	0.084546	0.033428	-0.21	-0.84	-0.35	0.3898	0	-0.2696	
-1.014186	0.077592	0.03355	-0.63	-0.91	-0.35	0.404	0.0043	-0.2757	
-1.007842	0.073322	0.033672	0.7	-0.7	-0.07	0.3897	0.0077	-0.268	
-1.01077	0.08052	0.035624	1.19	-0.07	0	0.3997	0.0075	-0.2664	
-1.011624	0.081008	0.03965	0.28	0.14	0.14	0.4011	0.009099999	-0.2556	
-1.00711	0.07905599	0.037454	-0.49	-0.07	0.14	0.3941	0.0031	-0.2603	
-1.00833	0.077836	0.037332	-0.84	-0.28	-0.07	0.3926	0.0061	-0.268	
-1.01016	0.078812	0.034282	-0.21	-0.07	-0.42	0.3955	0.003	-0.2665	
-1.010648	0.077226	0.033916	-0.56	0.21	-0.56	0.3996	0.009	-0.2788	
-1.012234	0.076006	0.037698	-0.07	-0.07	-0.42	0.4095	0.0166	-0.2632	
-1.013454	0.077348	0.038918	0.91	-0.21	-0.21	0.3926	0.0046	-0.2696	
-1.011136	0.07869	0.034038	0.77	0	0.21	0.3955	0.0015	-0.2665	
-1.009916	0.078934	0.03294	0.77	0.14	0.42	0.3955	0.0015	-0.2634	
-1.01138	0.075884	0.030012	0.35	0.28	0.42	0.3983	0.0013	-0.2773	
-1.01321	0.082472	0.034282	0	0.49	0.35	0.3968	0.0138	-0.2602	
-1.00955	0.079788	0.034038	0.28	0.07	0.35	0.3996	0.0106	-0.271	
-1.013576	0.081374	0.033428	0.21	-0.07	0.35	0.391	0.0185	-0.2571	
-1.011624	0.08235	0.031232	0.49	-0.28	0.21	0.3927	0.0031	-0.2634	
-1.012966	0.08113	0.032818	0.35	-0.14	0.21	0.3955	0.0014	-0.2742	
-1.011258	0.082472	0.032452	0.98	-0.14	0.21	0.394	0.0045	-0.2711	
-1.010892	0.08052	0.035014	1.19	0	0.14	0.3968	0.009099999	-0.2741	
-1.009306	0.079666	0.03599	1.33	-0.21	0.14	0.4039	0.0105	-0.2664	
-1.01016	0.077958	0.034038	1.05	-0.14	0.21	0.3954	0.0092	-0.2664	
-1.011502	0.07905599	0.033672	1.26	-0.14	0.28	0.3984	0.0014	-0.268	
-1.012234	0.080032	0.034404	1.54	-0.07	0.35	0.3984	0.0014	-0.2634	
-1.012356	0.08113	0.034282	1.68	-0.07	0.28	0.3969	0.006	-0.2726	
-1.011258	0.08295999	0.029524	2.17	-0.14	0.21	0.3898	0.0015	-0.2758	
-1.008574	0.088572	0.031232	1.89	-0.21	0.28	0.404	0.0028	-0.2742	
-1.011502	0.08723	0.033916	0.98	-0.07	0.21	0.3927	0.0031	-0.2649	
-1.012234	0.087962	0.03599	0.14	-0.07	0.28	0.3911	0.0061	-0.2757	
-1.01321	0.081984	0.034526	0.77	0.07	0.28	0.3968	0.0075	-0.2773	
-1.01443	0.081252	0.027206	0.28	-0.35	0.49	0.3997	0.0106	-0.2633	
-1.013698	0.079788	0.024278	0.21	-0.84	0.63	0.4054	0.0059	-0.2711	
-1.016992	0.08052	0.031842	1.96	-0.7	0.84	0.3998	0.0014	-0.2649	
-1.0065	0.08479	0.033916	0.77	-1.61	0.7	0.3998	0.0029	-0.2649	
-1.006378	0.087352	0.044408	0.42	-0.98	0.21	0.3954	0.0045	-0.2757	
-1.004426	0.080032	0.048434	-0.7	0.35	0	0.3998	0.0029	-0.2711	
-1.007964	0.07686	0.047214	-1.12	1.47	-0.14	0.3983	0.006	-0.2649	
-1.013698	0.08113	0.044164	-1.82	1.54	-0.28	0.4013	-0.0016	-0.2681	
-1.008208	0.085156	0.035868	-1.75	0.42	-0.49	0.394	0.0076	-0.2695	
-1.013942	0.084668	0.031476	-0.7	0.49	-0.63	0.3999	-0.0015	-0.2634	
-1.017724	0.08174	0.034038	0.84	0.07	-0.77	0.3941	0.0046	-0.2587	
-1.014674	0.082716	0.034526	2.66	0.21	-0.63	0.3869	0.0061	-0.2758	
-1.011868	0.084546	0.0305	1.26	-0.63	-0.42	0.4068	0.0074	-0.2726	
-1.010648	0.08479	0.033672	0.28	-1.05	-0.35	0.3955	0.0045	-0.268	
-1.008696	0.08113	0.033672	0.07	-0.7	-0.21	0.404	0.0043	-0.2742	
-1.010648	0.080276	0.034526	-0.91	0.21	0	0.3954	0.0092	-0.2618	
-1.011868	0.081618	0.036356	-0.77	0	0.28	0.4011	0.0105	-0.2726	
-1.010038	0.084912	0.0366	-0.77	-0.21	0.35	0.3941	0.0047	-0.2541	
-1.008452	0.081496	0.039284	0.42	0.21	0.42	0.3939	0.0107	-0.268	
-1.00955	0.076982	0.037332	-0.42	-0.35	0.63	0.4012	0.0044	-0.268	
-1.016748	0.071126	0.034282	-2.17	-0.63	0.56	0.3983	0.0061	-0.2634	
-1.012966	0.065636	0.039894	0.07	-0.63	0.98	0.3927	0	-0.2681	
-1.012478	0.07686	0.031476	1.4	-0.77	0.98	0.3967	0.0137	-0.271	
-1.011014	0.076616	0.03477	0.21	-1.19	0.91	0.3954	0.0106	-0.2726	
-1.0065	0.07686	0.037698	0.91	-0.91	0.77	0.3985	-0.0046	-0.2681	
-1.007598	0.079178	0.037332	0.98	-0.28	0.63	0.3868	0.0123	-0.2695	
-1.009306	0.081496	0.037576	1.12	-0.07	0.49	0.3969	0.006	-0.2711	
-1.010038	0.080032	0.037576	0.7	0.35	0.28	0.3982	0.0106	-0.2741	
-1.010648	0.07503	0.03965	0.7	0.98	0.35	0.4013	0.0015	-0.2541	
-1.009428	0.07869	0.035746	1.61	1.12	0.42	0.4026	0.0028	-0.2788	
-1.010282	0.083326	0.032086	1.82	0.84	0.56	0.4014	-0.0108	-0.2697	
-1.01016	0.086132	0.03294	2.66	0.77	0.7	0.4027	-0.0032	-0.2712	
-1.010282	0.09272	0.037698	2.59	0.91	0.7	0.3997	0.006	-0.2664	
-1.011014	0.089182	0.037088	1.54	0.84	0.77	0.3997	0.0044	-0.2773	
-1.013942	0.087352	0.033672	1.12	0.63	0.84	0.3956	0	-0.2634	
-1.011258	0.088694	0.03172	0.91	0.21	0.7	0.3911	0.0061	-0.2742	
-1.011502	0.08479	0.03233	0.63	0.35	0.7	0.4054	0.0043	-0.2726	
-1.012478	0.08601	0.031598	0.84	0.21	0.56	0.3983	0.0029	-0.2742	
-1.009916	0.087596	0.033428	0.98	-0.07	0.28	0.3911	0.0076	-0.2726	
-1.012356	0.087596	0.033062	0.21	-0.07	0.14	0.3998	0	-0.265	
-1.012844	0.088328	0.030134	-0.14	-0.21	0.21	0.3998	0.0013	-0.2773	
-1.012356	0.091134	0.030378	0.77	-0.07	0.28	0.3982	0.0122	-0.2664	
-1.012966	0.090402	0.030378	0.63	-0.21	0.28	0.404	0.0075	-0.2664	
-1.013942	0.087596	0.031598	0.63	-0.35	0.35	0.3955	0.0029	-0.2758	
-1.011136	0.088084	0.031476	0.91	-0.42	0.21	0.3969	0.0076	-0.2664	
-1.01016	0.086376	0.031598	0.42	-0.42	0.07	0.4041	-0.0001	-0.2696	
-1.010892	0.084424	0.033428	0	-0.35	0	0.4013	-0.0063	-0.2727	
-1.011746	0.0854	0.033672	0	-0.56	-0.21	0.3941	0	-0.265	
-1.011014	0.085766	0.036234	0	-0.84	-0.49	0.4055	-0.0002	-0.268	
-1.008452	0.08174	0.035868	-0.35	-0.91	-0.7	0.3954	0.009099999	-0.2695	
-1.009672	0.079422	0.0366	-0.7	-0.91	-1.05	0.3968	0.0092	-0.2618	
-1.009916	0.080886	0.040748	-0.07	-0.7	-1.19	0.3941	0.003	-0.2696	
-1.010404	0.083326	0.039528	0	-0.49	-0.98	0.3926	0.0078	-0.2556	
-1.012478	0.08113	0.03843	0.21	-0.28	-0.77	0.3942	0	-0.2588	
-1.012112	0.078568	0.03965	0.42	-0.35	-0.63	0.3939	0.0107	-0.2664	
-1.009794	0.0793	0.038308	0.98	-0.42	-0.49	0.3983	0.0044	-0.2742	
-1.007232	0.080642	0.03721	0.56	-0.7	-0.42	0.3912	0.0045	-0.2758	
-1.010404	0.08174	0.037576	0.21	-0.35	-0.28	0.3997	0.0044	-0.2711	
-1.01199	0.08113	0.037088	0.35	-0.14	-0.21	0.3984	0	-0.2619	
-1.012112	0.081008	0.036478	0.21	-0.14	-0.14	0.394	0.0092	-0.2633	
-1.009794	0.078568	0.037576	0	0.14	-0.14	0.3928	-0.0061	-0.2681	
-1.009428	0.079788	0.038796	0.07	0.49	-0.07	0.3985	-0.0077	-0.2666	
-1.011502	0.080642	0.04026	0.21	0.56	0	0.4012	0.006	-0.2664	
-1.009794	0.079544	0.040504	-0.35	0.63	0	0.3912	0.0061	-0.268	
-1.01382	0.07808	0.037698	-0.56	0.35	0.28	0.3969	0.003	-0.2696	
-1.010526	0.085278	0.0366	0.56	0.42	0.49	0.3941	0.0046	-0.2587	
-1.010404	0.086498	0.037698	0.98	0.35	0.56	0.3955	0.003	-0.2727	
-1.014796	0.082106	0.03355	-0.63	0.21	0.49	0.3983	0.0045	-0.2665	
-1.014186	0.07515199	0.031354	-0.77	0	0.63	0.3955	0.0045	-0.2665	
-1.009794	0.07747	0.03294	0.7	-0.21	0.77	0.4027	-0.0001	-0.2696	
-1.012478	0.090158	0.035746	0.91	0.42	0.42	0.3953	0.0137	-0.2679	
-1.009306	0.090036	0.037576	0.07	0.21	0.21	0.4012	0.0014	-0.2665	
-1.007354	0.086742	0.038796	-0.63	0.49	0.35	0.4098	0.0028	-0.2556	
-1.009062	0.084546	0.039528	-0.49	0.7	0.28	0.3967	0.0137	-0.2741	
-1.012234	0.081374	0.036234	-0.56	0.49	0.14	0.3998	0.0029	-0.2665	
-1.0126	0.07991	0.035502	-0.28	0.07	0.07	0.411	0.0103	-0.2772	
-1.009306	0.081496	0.0366	0.42	0.14	0.07	0.3956	-0.003	-0.2619	
-1.010648	0.08418	0.034282	0.49	0.07	0.21	0.3954	0.0076	-0.2664	
-1.0126	0.084058	0.032574	0.7	0	0.21	0.3912	0.0062	-0.2649	
-1.00955	0.086132	0.032452	0.84	0.49	0.07	0.3969	0.0076	-0.2603	
-1.011624	0.07905599	0.03233	0.14	0.56	-0.07	0.3954	0.0076	-0.2695	
-1.012966	0.077226	0.029402	0.42	0.49	-0.21	0.3941	0.003	-0.2742	
-1.011868	0.081984	0.03416	0.35	0.63	-0.35	0.3897	0.0077	-0.2726	
-1.010892	0.088328	0.033428	-0.42	0.35	-0.63	0.3999	-0.0031	-0.2696	
-1.012722	0.08845	0.032086	-1.26	-0.07	-0.98	0.3997	0.006	-0.2618	
-1.01443	0.091134	0.034282	0.7	-0.91	-1.33	0.4055	0.006	-0.2556	
-1.014186	0.08113	0.03233	0.49	-0.42	-1.26	0.404	0.0074	-0.2726	
-1.012356	0.072956	0.033794	-0.7	-0.91	-1.33	0.3926	0.0061	-0.2726	
-1.008818	0.075884	0.036966	1.68	-0.98	-1.12	0.3926	0.0076	-0.2711	
-1.008818	0.081008	0.037088	1.96	-0.84	-0.7	0.3984	0.0014	-0.2665	
-1.011624	0.081496	0.038918	1.12	-0.42	-0.35	0.4011	0.0105	-0.2726	
-1.011624	0.078568	0.038674	0.7	-0.14	0	0.3999	-0.0016	-0.265	
-1.012112	0.078446	0.037332	0.91	-0.56	0.14	0.3985	-0.0046	-0.2696	
-1.011014	0.077836	0.034526	1.05	-0.49	0.21	0.3869	0.0031	-0.2727	
-1.012234	0.076616	0.0366	1.19	-0.14	0.07	0.394	0.0061	-0.2649	
-1.011746	0.077348	0.036966	1.12	-0.28	-0.07	0.3996	0.0122	-0.2633	
-1.011258	0.077104	0.038796	0.63	-0.35	-0.28	0.4011	0.0074	-0.2772	
-1.010892	0.076738	0.036234	0.42	-0.42	-0.35	0.3955	0.0061	-0.2618	
-1.011258	0.077714	0.038308	0.98	-0.49	-0.35	0.4012	0.0013	-0.2773	
-1.010526	0.081496	0.036478	1.33	-0.49	-0.21	0.3883	0.0045	-0.2804	
-1.011014	0.0854	0.037942	1.05	-0.49	-0.21	0.4011	0.0075	-0.2726	
-1.01138	0.085644	0.037332	0.07	-0.35	-0.14	0.4024	0.0151	-0.2694	
-1.011746	0.082106	0.03721	-1.4	-0.35	-0.42	0.3883	0.0093	-0.268	
-1.01077	0.079422	0.03721	-1.61	-0.42	-0.7	0.3927	0	-0.2634	
-1.01077	0.080398	0.0366	-1.26	-0.56	-0.91	0.3898	0.0031	-0.2696	
-1.011136	0.07503	0.039406	-1.61	-0.49	-0.98	0.3969	0.006	-0.2695	
-1.0126	0.076006	0.038918	-0.91	-0.7	-0.84	0.3912	0.0047	-0.2603	
-1.012112	0.07905599	0.037332	-0.7	-0.56	-0.42	0.3983	0.006	-0.2664	
-1.011258	0.078324	0.041358	-0.14	-0.21	-0.07	0.404	0.0028	-0.2726	
-1.00955	0.07625	0.039406	-0.21	-0.49	0.28	0.3925	0.009099999	-0.2757	
-1.010892	0.075274	0.039528	0.42	-0.42	0.35	0.3954	0.0061	-0.2695	
-1.014308	0.074054	0.037576	0.56	-0.14	0.28	0.4041	0.0013	-0.2696	
-1.01138	0.078446	0.03721	1.19	-0.42	-0.14	0.3984	-0.0032	-0.2758	
-1.01016	0.078446	0.039162	1.68	-0.42	-0.28	0.4024	0.0136	-0.2741	
-1.009062	0.076738	0.033306	-0.21	-1.26	-0.14	0.3924	0.0153	-0.2726	
-1.01504	0.073078	0.036478	-1.26	-1.4	-0.28	0.3855	0.0063	-0.2665	
-1.007964	0.076006	0.047702	2.38	-0.56	-0.07	0.3955	0.0029	-0.2742	
-1.008818	0.08052	0.044896	0.91	0.07	0	0.4039	0.0089	-0.2788	
-1.01504	0.085034	0.040382	-1.05	-0.28	-0.14	0.3998	0.0045	-0.268	
-1.007964	0.084424	0.042212	-4.76	-0.14	0.14	0.4026	0.0043	-0.2834	
-1.005524	0.077226	0.043554	-4.2	0.21	0.42	0.4025	0.009099999	-0.2602	
-1.01016	0.072712	0.035868	-4.9	1.4	0.42	0.3982	0.009	-0.2757	
-1.014552	0.069296	0.036478	-3.15	0.98	0	0.3926	0.0062	-0.2572	
-1.012356	0.070028	0.040626	-2.66	-1.4	-0.14	0.3982	0.0107	-0.2587	
-1.017602	0.077104	0.041114	-0.91	-1.82	-0.7	0.3968	0.009099999	-0.2726	
-1.009184	0.077958	0.045506	3.01	-1.82	-0.63	0.3925	0.0123	-0.2664	
-0.99552	0.076982	0.044652	2.45	-1.75	-0.63	0.3968	0.0075	-0.2711	
-1.006378	0.076738	0.046116	2.8	0.35	-0.35	0.4026	-0.0002	-0.2804	
-1.01016	0.070638	0.054046	0.91	0.14	-0.14	0.3984	-0.0016	-0.2742	
-1.0065	0.077348	0.052094	0	0.98	0.14	0.401	0.0121	-0.271	
-1.005646	0.08479	0.047336	-1.54	1.61	0.35	0.3926	0.0077	-0.268	
-1.004914	0.07747	0.04514	-1.61	2.17	0.63	0.3997	0.0106	-0.2664	
-1.010648	0.069052	0.0427	-2.03	2.66	0.77	0.3969	0.006	-0.2726	
-1.01626	0.064416	0.040748	-1.26	2.17	0.84	0.3967	0.0184	-0.2632	
-1.01321	0.063806	0.04209	-0.7	1.12	0.63	0.4054	0.009	-0.2664	
-1.01138	0.06832	0.044896	-0.28	1.19	0.42	0.3952	0.0183	-0.2725	
-1.009794	0.07137	0.040626	0.56	1.33	0.42	0.3983	0.0044	-0.2726	
-1.010892	0.072102	0.041236	0.91	0.98	0.42	0.4027	-0.0017	-0.2742	
-1.01748	0.073688	0.0366	0.98	0.63	0.42	0.4009	0.0199	-0.2586	
-1.012966	0.077592	0.030744	2.03	-0.49	0.28	0.3995	0.0197	-0.2787	
-1.007598	0.081862	0.029768	3.57	0.63	0.42	0.3982	0.0106	-0.2679	
-1.014186	0.08418	0.028914	3.99	3.15	0.7	0.4024	0.0136	-0.2695	
-1.012844	0.082594	0.027206	0.63	2.59	0.77	0.3996	0.0136	-0.2756	
-1.014308	0.07625	0.032696	-0.49	1.89	0.91	0.404	0.0058	-0.2757	
-1.01443	0.079544	0.03233	-0.14	2.38	1.05	0.3969	0.0046	-0.2603	
-1.011258	0.083936	0.032696	1.54	2.31	1.19	0.4011	0.0106	-0.2679	
-1.011258	0.082106	0.035746	1.54	1.54	1.26	0.394	0.0076	-0.2742	
-1.014552	0.082594	0.026108	-0.77	-0.21	0.84	0.4013	-0.0032	-0.2696	
-1.018212	0.083936	0.02562	-0.7	-0.98	0.56	0.4011	0.0138	-0.2509	
-1.01748	0.082838	0.028304	-0.7	-1.54	0.07	0.404	0.0059	-0.268	
-1.01565	0.080642	0.026474	-0.77	-2.17	-0.21	0.3999	0	-0.2588	
-1.011014	0.082838	0.027084	-0.63	-3.36	-0.63	0.3911	0.0109	-0.2556	
-1.012478	0.082838	0.027572	-0.91	-3.01	-0.91	0.3926	0.006	-0.2757	
-1.01443	0.083448	0.02867	-1.47	-3.22	-0.98	0.4054	0.0059	-0.268	
-1.012112	0.081008	0.030378	-2.8	-3.29	-0.63	0.3984	0.0014	-0.2665	
-1.006256	0.070028	0.03965	-1.12	-2.59	-0.21	0.4024	0.0136	-0.2679	
-1.001864	0.065758	0.043676	0.14	-1.05	0.07	0.4054	0.009	-0.2664	
-1.007964	0.068564	0.043554	1.4	-0.07	0.21	0.3926	0.0062	-0.2572	
-1.00833	0.071614	0.050874	0	0.49	0	0.3968	0.0106	-0.2695	
-1.006866	0.07747	0.050874	1.05	0.42	-0.28	0.3996	0.0105	-0.2803	
-1.009672	0.084546	0.044286	-0.42	0.63	-0.7	0.3954	0.0123	-0.2618	
-1.017236	0.082472	0.038918	-2.8	1.61	-0.91	0.3967	0.0152	-0.2725	
-1.01565	0.080276	0.038552	-3.15	0.28	-0.77	0.3968	0.0107	-0.2664	
-1.009428	0.0854	0.03477	-1.05	-0.35	-0.49	0.4009	0.0197	-0.2756	
-1.009794	0.087962	0.030622	-1.05	0.63	0.07	0.3955	0.0045	-0.2726	
-1.012478	0.08418	0.023912	-3.08	0.77	0.77	0.3953	0.0106	-0.2772	
-1.017114	0.08235	0.02501	-3.15	-0.56	0.77	0.4053	0.0152	-0.2586	
-1.017236	0.078812	0.02806	-2.8	0.42	0.7	0.4038	0.015	-0.2772	
-1.014064	0.07564	0.032452	-3.15	0.84	0.42	0.4025	0.009	-0.2679	
-1.012234	0.070516	0.041968	-1.54	0.21	0.21	0.3996	0.0137	-0.2695	
-1.009184	0.07198	0.047092	1.19	-0.49	0.21	0.3983	0.0029	-0.2727	
-1.011502	0.067954	0.050386	3.43	-0.49	0.28	0.3926	0.0076	-0.2695	
-1.019798	0.06588	0.05002	2.45	-1.19	-0.07	0.3983	0.0059	-0.2757	
-1.014796	0.070028	0.046482	2.66	-3.92	-0.28	0.3968	0.0106	-0.2772	
-1.00772	0.074542	0.044774	2.59	-5.67	-0.14	0.3955	0.0014	-0.2696	
-1.006866	0.078324	0.047214	3.29	-4.69	0.14	0.3982	0.0106	-0.2741	
-1.00833	0.0732	0.047092	3.85	-3.01	0.28	0.401	0.0136	-0.2695	
-1.003572	0.07076	0.049166	1.68	-1.96	0.21	0.3911	0.0076	-0.2726	
-1.002474	0.065392	0.048556	-1.12	-0.84	0.28	0.3953	0.0168	-0.2725	
-1.005646	0.062464	0.04941	-1.61	-0.07	0.35	0.3953	0.0122	-0.2726	
-1.008086	0.06893	0.049898	-0.77	0.42	0.28	0.3953	0.0136	-0.2787	
-1.010526	0.080398	0.052338	0.14	-0.28	0.28	0.404	0.0058	-0.2772	
-1.010648	0.087718	0.053558	0.49	-0.49	0.28	0.3983	0.006	-0.2711	
-1.012966	0.092964	0.05673	0.91	-0.56	0.35	0.4054	0.0073	-0.2772	
-1.011502	0.087474	0.057218	0.21	-0.28	0.42	0.3954	0.0044	-0.2788	
-1.006134	0.079544	0.049898	0.07	0.21	0.56	0.3968	0.009099999	-0.2664	
-1.006012	0.075518	0.043066	-0.07	1.12	0.7	0.3911	0.0092	-0.2664	
-1.005402	0.076494	0.042822	0	2.17	0.77	0.3953	0.0137	-0.2726	
-1.009062	0.077714	0.044286	-0.63	2.52	0.63	0.3939	0.0106	-0.2803	
-1.00589	0.080398	0.042944	-0.91	2.17	0.49	0.3998	0.0029	-0.2696	
-1.010038	0.079178	0.044286	-2.17	2.1	0.42	0.3953	0.0168	-0.271	
-1.012844	0.07869	0.044774	-1.47	2.59	0.35	0.3982	0.009099999	-0.2695	
-1.013454	0.079788	0.040504	-1.47	2.38	0.28	0.3939	0.0106	-0.2741	
-1.017846	0.082472	0.035868	-1.33	1.89	0.14	0.3897	0.0076	-0.2804	
-1.019188	0.079788	0.041968	-1.61	1.4	-0.07	0.3954	0.0077	-0.2603	
-1.010892	0.076616	0.046848	0.77	1.4	-0.07	0.3941	0.003	-0.2696	
-1.005524	0.074786	0.048678	2.17	1.68	-0.14	0.4009	0.0198	-0.2694	
-1.004182	0.072956	0.045628	0.7	0.56	-0.35	0.3954	0.0076	-0.268	
-1.010892	0.077836	0.041358	0.7	-0.7	-0.63	0.4011	0.0106	-0.2695	
-1.01443	0.076494	0.038918	1.19	-0.84	-0.63	0.3926	0.0092	-0.2649	
-1.011746	0.077104	0.04026	2.38	-0.07	-0.42	0.3968	0.0075	-0.2773	
-1.012478	0.07503	0.040382	1.82	0.56	-0.28	0.391	0.0138	-0.271	
-1.007964	0.080032	0.03782	1.12	0.14	-0.21	0.3896	0.0139	-0.2618	
-1.008696	0.08052	0.033184	-0.21	0.42	-0.14	0.3969	0.0045	-0.2726	
-1.013698	0.078324	0.032696	-0.77	0.91	-0.07	0.3925	0.0122	-0.2772	
-1.014918	0.076616	0.036356	-1.33	0.77	0.07	0.3997	0.0106	-0.2664	
-1.007354	0.081618	0.039284	-1.4	0.49	0.21	0.3924	0.0183	-0.2772	
-1.011136	0.083692	0.034404	-3.15	0.21	0.42	0.401	0.0137	-0.2664	
-1.017236	0.076616	0.031842	-3.85	0.35	0.7	0.3909	0.0198	-0.2849	
-1.015894	0.074298	0.033672	-2.03	0.77	0.84	0.4011	0.009	-0.268	
-1.0126	0.075884	0.030622	-0.56	0.98	0.84	0.3996	0.0121	-0.2741	
-1.01382	0.076982	0.02867	-0.07	0.56	0.7	0.3969	0.0076	-0.2633	
-1.013332	0.076982	0.033794	-0.21	-0.49	0.56	0.401	0.0136	-0.2756	
-1.010648	0.07808	0.037088	1.4	0.07	0.56	0.3981	0.0167	-0.2741	
-1.00894	0.076128	0.036478	0.63	0	0.56	0.3996	0.0152	-0.2664	
-1.013942	0.076006	0.034038	-0.42	0	0.42	0.3969	0.003	-0.2618	
-1.01687	0.0793	0.034648	-0.28	-0.42	0.21	0.3939	0.0153	-0.2679	
-1.013698	0.079788	0.033672	0.35	-0.84	0.35	0.3881	0.0232	-0.257	
-1.011746	0.083814	0.037088	1.4	-0.84	0.56	0.3967	0.0137	-0.271	
-1.010892	0.080764	0.037332	0.84	-1.05	0.91	0.3982	0.0121	-0.271	
-1.010892	0.080398	0.035868	0.07	-1.33	0.91	0.4067	0.0134	-0.2787	
-1.011258	0.08113	0.035502	0.56	-1.19	0.91	0.3896	0.0123	-0.2726	
-1.012234	0.080154	0.037088	0.35	-0.42	0.98	0.4011	0.0105	-0.2741	
-1.009184	0.079666	0.038064	-0.35	-0.42	0.91	0.3939	0.0107	-0.2695	
-1.013698	0.085034	0.039894	-0.28	-0.63	0.77	0.3939	0.0122	-0.2695	
-1.013454	0.086376	0.040748	0.56	-1.12	0.63	0.4025	0.0105	-0.2772	
-1.011746	0.085278	0.039406	0.42	-0.84	0.49	0.391	0.0154	-0.2648	
-1.010038	0.087352	0.04087	1.12	-0.63	0.28	0.3939	0.0123	-0.2602	
-1.010404	0.085278	0.044408	1.19	-0.56	0.14	0.3981	0.0183	-0.2648	
-1.005036	0.079666	0.045262	1.47	-0.35	-0.14	0.3968	0.009099999	-0.2695	
-1.0065	0.077958	0.045994	1.33	0.49	-0.35	0.387	-0.0014	-0.2696	
-1.01199	0.080276	0.04392	1.54	0.07	-0.7	0.3996	0.0105	-0.2772	
-1.013332	0.083448	0.046848	2.1	-0.49	-1.05	0.411	0.0135	-0.2617	
-1.010526	0.085766	0.046482	1.96	-0.63	-1.05	0.3953	0.0184	-0.2602	
-1.006988	0.085522	0.046482	2.24	-0.91	-0.91	0.3967	0.0183	-0.2679	
-1.00406	0.084424	0.042944	3.08	-0.7	-0.77	0.4011	0.0089	-0.2772	
-1.009062	0.084424	0.043188	3.01	0.21	-0.77	0.3969	0.006	-0.2742	
-1.010526	0.083326	0.045384	3.43	0.28	-0.77	0.3968	0.0107	-0.2602	
-1.011502	0.077226	0.042944	2.38	-0.28	-0.91	0.3955	0.0045	-0.2696	
-1.01138	0.074908	0.04209	2.73	-0.28	-0.98	0.3897	0.0076	-0.2742	
-1.01199	0.077958	0.043798	3.36	-0.14	-1.05	0.3996	0.0121	-0.2679	
-1.010648	0.08113	0.041724	3.99	-0.49	-1.05	0.401	0.0152	-0.2633	
-1.011014	0.082716	0.045506	3.85	-0.21	-0.98	0.3969	0.003	-0.268	
-1.01199	0.079544	0.04453	2.59	-0.35	-0.91	0.4012	0.0029	-0.2711	
-1.006622	0.077104	0.045384	1.61	-0.91	-1.12	0.3968	0.0106	-0.2726	
-1.00711	0.074054	0.044286	1.54	-0.63	-1.33	0.4024	0.0182	-0.271	
-1.01077	0.07564	0.04331	1.54	-0.49	-1.4	0.3983	0.0059	-0.2757	
-1.01565	0.070028	0.039894	0.49	-0.07	-1.4	0.3911	0.0077	-0.2711	
-1.014186	0.066002	0.039528	1.12	-0.14	-1.26	0.404	0.009	-0.2664	
-1.013332	0.071858	0.044286	2.52	0.21	-1.19	0.4012	-0.0002	-0.2804	
-1.007354	0.07137	0.04148	1.26	0.21	-0.98	0.3911	0.0107	-0.2772	
-1.008696	0.071004	0.037088	0.84	0.28	-0.56	0.3925	0.0122	-0.2695	
-1.012478	0.067832	0.040382	0.7	0.77	-0.42	0.3967	0.0199	-0.2617	
-1.008208	0.070028	0.046482	2.45	0.91	-0.28	0.3997	0.0075	-0.2757	
-1.012478	0.070638	0.041968	1.26	0.91	-0.21	0.3897	0.0077	-0.2726	
-1.013332	0.071126	0.0427	1.33	0	-0.07	0.3938	0.0168	-0.271	
-1.012112	0.070882	0.037576	2.03	0.98	0.28	0.3997	0.006	-0.2633	
-1.011868	0.074786	0.039528	2.38	0.91	0.42	0.3997	0.0075	-0.2695	
-1.010038	0.07442	0.03904	2.03	1.33	0.42	0.3981	0.0168	-0.2602	
-1.011624	0.07015	0.036966	1.19	1.33	0.42	0.4067	0.0135	-0.2694	
-1.012722	0.072468	0.036234	1.47	1.26	0.56	0.3954	0.006	-0.2757	
-1.012722	0.073688	0.03538	1.05	1.12	0.49	0.3969	0.0014	-0.2696	
-1.014064	0.073932	0.03294	0.28	0.42	0.42	0.4097	0.0058	-0.2649	
-1.013698	0.072712	0.033428	0.56	0.21	0.28	0.3981	0.0168	-0.2679	
-1.013942	0.072468	0.03538	1.12	0.14	0.21	0.3982	0.0153	-0.2633	
-1.009672	0.071492	0.0366	1.54	-0.14	0.21	0.4026	0.0075	-0.268	
-1.013088	0.074786	0.033184	1.47	0.28	0.28	0.3925	0.0107	-0.2741	
-1.01626	0.074908	0.03294	0.98	0.42	0.28	0.3941	0.003	-0.268	
-1.01443	0.076616	0.033184	1.33	0	0.21	0.3968	0.0059	-0.2788	
-1.018334	0.077958	0.0305	0.84	-0.49	0.35	0.3997	0.006	-0.2695	
-1.015528	0.076738	0.029402	-1.05	-2.31	0.28	0.3968	0.0122	-0.2679	
-1.013576	0.07625	0.030866	0.28	-1.82	0.28	0.3984	0.0014	-0.2665	
-1.015406	0.076006	0.03172	0.28	-2.03	0.07	0.3953	0.0168	-0.2664	
-1.014552	0.077592	0.033916	0.49	-2.52	-0.07	0.3911	0.0061	-0.2773	
-1.01199	0.075884	0.037332	0.28	-3.08	-0.21	0.4009	0.0166	-0.2787	
-1.01077	0.076616	0.037454	0.63	-2.8	-0.42	0.4011	0.009	-0.2757	
-1.013088	0.07515199	0.040504	0.49	-2.87	-0.56	0.3911	0.0122	-0.2726	
-1.01504	0.072712	0.04026	0.35	-3.29	-0.7	0.3925	0.0123	-0.268	
-1.016992	0.073322	0.035014	0.14	-3.71	-0.91	0.3883	0.0093	-0.2664	
-1.016138	0.08052	0.039894	1.26	-4.55	-1.19	0.3941	0.003	-0.2742	
-1.012478	0.079666	0.039284	0.98	-4.9	-1.4	0.4024	0.0136	-0.2725	
-1.01199	0.077104	0.042944	1.19	-5.04	-1.33	0.3853	0.0139	-0.2695	
-1.009916	0.074298	0.049776	0.84	-5.18	-1.33	0.3938	0.0152	-0.2756	
-1.008452	0.07124799	0.057462	0.7	-4.62	-1.12	0.3939	0.0153	-0.2664	
-1.009794	0.0732	0.060878	0.77	-4.62	-0.98	0.3924	0.0152	-0.2803	
-1.0065	0.071126	0.062464	0.07	-3.99	-1.12	0.3897	0.0045	-0.2866	
-1.003206	0.068808	0.070272	0.98	-3.85	-1.12	0.3884	0.0015	-0.2789	
-1.007232	0.065026	0.074176	-0.35	-3.29	-1.05	0.3968	0.0075	-0.2788	
-1.00406	0.061854	0.076494	1.05	-2.94	-0.84	0.3925	0.0075	-0.2804	
-1.004548	0.062952	0.077958	1.54	-1.54	-0.56	0.3981	0.0182	-0.2787	
-1.008574	0.069906	0.072834	1.19	-0.28	-0.49	0.394	0.0075	-0.2788	
-1.005158	0.06893	0.074908	0.56	0.07	-0.56	0.3925	0.006	-0.2835	
-1.006256	0.065026	0.07198	0.56	0.7	-0.35	0.3897	0.0092	-0.2773	
-1.00345	0.066368	0.070394	1.05	0.7	-0.28	0.3897	0.0076	-0.2835	
-1.006744	0.069906	0.068808	0.42	0.7	-0.28	0.3883	0.0046	-0.2696	
-1.006988	0.068686	0.06893	-0.7	-0.35	-0.21	0.394	0.0044	-0.2835	
-1.008574	0.069662	0.072468	-1.33	0.14	-0.14	0.391	0.0106	-0.2819	
-1.008452	0.071492	0.070516	0.14	0.77	-0.07	0.3883	0.0061	-0.2788	
-1.01138	0.07991	0.071858	1.12	0.84	-0.07	0.391	0.0137	-0.2772	
-1.00711	0.086986	0.068198	2.8	0.77	0.21	0.3952	0.0182	-0.2818	
-1.014308	0.086254	0.064904	-0.21	0.84	0.49	0.3868	0.0123	-0.2726	
-1.006866	0.085888	0.06344	0.35	0	1.12	0.3925	0.0105	-0.2896	
-1.000156	0.070516	0.054656	-3.57	0.49	1.19	0.4026	0.0043	-0.2742	
-1.015406	0.06039	0.048922	-3.15	2.52	1.12	0.381	0.0123	-0.285	
-1.020652	0.061854	0.045384	-3.15	1.61	0.77	0.3938	0.0168	-0.2772	
-1.013332	0.06771	0.0488	-1.89	0.14	0.28	0.3969	0.006	-0.2757	
-1.013332	0.06588	0.056486	-2.66	0.21	0.14	0.3982	0.0136	-0.2741	
-1.01382	0.05673	0.05673	-3.64	0.63	0.14	0.3883	0.0045	-0.285	
-1.015528	0.052948	0.055998	-1.54	0.49	0.21	0.3882	0.0107	-0.2819	
-1.017846	0.052704	0.051972	-0.49	0.28	-0.07	0.3996	0.0089	-0.2834	
-1.010526	0.055632	0.049044	2.38	-0.21	-0.35	0.3981	0.0151	-0.2772	
-1.00833	0.061	0.048922	3.15	-0.21	-0.56	0.3867	0.0184	-0.2772	
-1.015284	0.065026	0.046238	1.4	-0.35	-0.77	0.3824	0.0155	-0.2726	
-1.014064	0.062586	0.048556	0.98	-0.77	-0.98	0.3924	0.0199	-0.271	
-1.009794	0.058682	0.050996	2.03	-0.98	-1.05	0.3897	0.0076	-0.2773	
-1.012478	0.061976	0.051728	2.73	-0.91	-1.12	0.3883	0.0062	-0.268	
-1.013332	0.067832	0.053314	2.31	-1.68	-1.12	0.3952	0.0198	-0.2802	
-1.014552	0.069296	0.059414	2.17	-1.68	-0.98	0.3867	0.0138	-0.2772	
-1.012966	0.073322	0.06161	2.73	-1.54	-0.56	0.388	0.023	-0.2818	
-1.009306	0.077592	0.06344	2.66	-2.17	-0.07	0.3882	0.0092	-0.2773	
-1.009428	0.075884	0.063318	1.33	-2.24	0.35	0.3924	0.0168	-0.271	
-1.008452	0.067832	0.059658	0.21	-2.31	0.56	0.3912	0.0046	-0.2742	
-1.010526	0.066368	0.065026	-0.14	-1.54	0.56	0.3953	0.0121	-0.2803	
-1.009672	0.06734399	0.06832	0.21	-0.77	0.49	0.3909	0.0199	-0.2772	
-1.009306	0.068442	0.068564	0.21	-0.49	0.21	0.3839	0.0139	-0.2741	
-1.007476	0.067588	0.064782	-0.56	0	0	0.3996	0.009	-0.2788	
-1.006866	0.06283	0.06283	-1.12	-0.14	-0.21	0.3853	0.017	-0.2726	
-1.016748	0.0549	0.061122	-4.13	0.07	-0.28	0.3884	-0.0014	-0.2727	
-1.011502	0.062342	0.064538	0.49	-0.98	0.07	0.3954	0.0107	-0.2695	
-1.012478	0.073078	0.065148	1.75	-0.28	0.28	0.3938	0.0183	-0.2787	
-1.009916	0.07503	0.063196	0	-0.49	0.21	0.3954	0.0074	-0.2865	
-1.00345	0.071126	0.067466	-1.05	-0.49	0.28	0.3939	0.0123	-0.2649	
-0.99796	0.065392	0.067588	-1.54	0.28	0.14	0.3939	0.009	-0.2834	
-1.01077	0.063074	0.070272	-3.64	1.82	-0.28	0.3939	0.0136	-0.2818	
-1.011746	0.06222	0.076494	-3.29	1.05	-0.63	0.3967	0.0152	-0.2772	
-1.007842	0.06466	0.079788	-0.77	1.4	-0.42	0.3911	0.006	-0.285	
-1.00467	0.06649	0.07503	0.84	1.75	-0.14	0.3911	0.0075	-0.285	
-1.002596	0.066124	0.061854	1.47	2.24	0	0.3925	0.0106	-0.2803	
-1.012234	0.069662	0.060756	-0.14	2.17	-0.21	0.394	0.0075	-0.2804	
-1.00894	0.069174	0.0671	-1.12	1.54	-0.63	0.3895	0.0201	-0.2602	
-1.00955	0.066368	0.071858	0.14	2.66	-0.63	0.3924	0.0183	-0.2803	
-1.006744	0.064294	0.066978	0.35	3.08	-0.35	0.3881	0.0153	-0.2849	
-1.009794	0.065026	0.061732	0.28	3.15	-0.28	0.3954	0.006	-0.2773	
-1.00772	0.067954	0.057828	0.28	3.29	-0.14	0.3866	0.02	-0.2756	
-1.00772	0.069052	0.05917	0	3.43	-0.21	0.3868	0.0139	-0.2649	
-1.006012	0.065148	0.059658	-0.84	3.64	0	0.3953	0.0122	-0.2664	
-1.010282	0.059292	0.05795	-1.75	3.15	0.49	0.3925	0.0122	-0.2757	
-1.01443	0.04941	0.05551	-2.59	3.5	0.7	0.3938	0.0152	-0.2772	
-1.016138	0.047946	0.054656	-0.91	3.36	1.12	0.3951	0.0229	-0.2771	
-1.01748	0.051118	0.056364	0.77	3.36	1.47	0.3898	0.003	-0.2758	
-1.017968	0.053558	0.05185	1.4	2.24	1.47	0.3967	0.0151	-0.2834	
-1.011258	0.058194	0.041114	2.38	0.84	1.54	0.3895	0.0168	-0.2787	
-1.0187	0.061732	0.039284	2.03	0.49	1.61	0.3939	0.0122	-0.2664	
-1.015406	0.070638	0.039528	2.31	-0.84	1.19	0.3896	0.0138	-0.2679	
-1.009672	0.080276	0.048312	3.22	-1.12	0.49	0.3955	0.003	-0.2711	
-1.007964	0.084912	0.049288	2.73	-0.28	-0.49	0.3984	-0.0001	-0.2727	
-1.01748	0.073322	0.041236	-0.42	2.8	-1.68	0.3983	0.006	-0.2695	
-1.012234	0.061488	0.03233	-1.4	3.22	-2.1	0.3954	0.0107	-0.2664	
-1.012844	0.056364	0.03538	-2.24	1.26	-1.96	0.3939	0.0106	-0.2834	
-1.011868	0.055876	0.048312	0.84	1.05	-1.68	0.3969	0.0029	-0.2727	
-1.007964	0.061976	0.049776	4.13	1.54	-1.12	0.3968	0.009099999	-0.2695	
-1.017846	0.065636	0.037942	3.92	1.19	-0.07	0.3981	0.0199	-0.2601	
-1.020774	0.063318	0.037698	3.15	-0.07	0.98	0.4069	0.0012	-0.2742	
-1.021872	0.068686	0.039528	3.22	-0.28	1.61	0.3895	0.02	-0.2679	
-1.012966	0.069174	0.036112	2.87	-1.75	1.68	0.384	0.0109	-0.2695	
-1.010648	0.068808	0.041968	2.66	-1.75	1.61	0.3939	0.0122	-0.2757	
-1.011624	0.067954	0.043554	1.05	-1.12	1.47	0.3954	0.0106	-0.2741	
-1.008208	0.066246	0.036966	0.84	-1.05	1.19	0.3968	0.0106	-0.2695	
-1.014674	0.073688	0.038552	0.07	-0.42	1.12	0.3868	0.0092	-0.2757	
-1.016626	0.077836	0.040626	-0.63	-0.28	0.77	0.4054	0.0043	-0.2742	
-1.00955	0.080032	0.042578	-0.28	-0.56	0.56	0.3939	0.0153	-0.2633	
-1.010648	0.076982	0.04575	-0.91	-0.14	0.35	0.4053	0.0104	-0.2772	
-1.010282	0.074542	0.04392	-1.26	-0.14	0.14	0.3882	0.0123	-0.2711	
-1.013698	0.067466	0.044774	-2.73	-0.21	-0.21	0.3939	0.0107	-0.2726	
-1.012234	0.064172	0.048678	-2.45	-0.63	-0.21	0.3911	0.0107	-0.2788	
-1.011502	0.068198	0.052582	-0.7	-0.84	-0.07	0.3953	0.0137	-0.271	
-1.010648	0.067466	0.051728	-0.21	-0.98	0	0.3967	0.0136	-0.2787	
-1.011746	0.071614	0.050874	0.56	-0.98	0.07	0.3883	0.0062	-0.2727	
-1.008086	0.068442	0.050752	0.07	-0.98	-0.07	0.3925	0.0122	-0.271	
-1.009672	0.061488	0.04941	-0.42	-0.98	0	0.387	-0.0014	-0.2758	
-1.012966	0.06161	0.049532	0.14	-0.77	0.21	0.3912	0.003	-0.2773	
-1.014308	0.06466	0.05002	1.05	-0.98	0.28	0.3882	0.0122	-0.2819	
-1.011014	0.07259	0.049898	2.03	-1.05	0.14	0.3895	0.0169	-0.2741	
-1.009672	0.073932	0.047336	1.61	-1.05	0.21	0.3911	0.0108	-0.2633	
-1.01199	0.07076	0.048434	1.47	-0.84	0.35	0.3982	0.0074	-0.2788	
-1.008696	0.06954	0.048922	1.54	-0.91	0.35	0.3968	0.0074	-0.2865	
-1.010282	0.067222	0.048922	0.77	-0.63	0.14	0.3996	0.0106	-0.2695	
-1.012844	0.066734	0.049044	0.35	-0.49	0	0.3924	0.0137	-0.2788	
-1.0126	0.066368	0.052094	0.56	-0.35	0.14	0.3968	0.0122	-0.2695	
-1.012722	0.06893	0.053436	0.98	-0.42	0.28	0.3939	0.0137	-0.2757	
-1.012722	0.069174	0.053924	0.63	-0.7	0.21	0.384	0.0046	-0.2804	
-1.012356	0.065148	0.053314	0.07	-0.63	0.21	0.3883	0.0076	-0.2804	
-1.007964	0.062098	0.05246	-0.42	-0.63	0.35	0.3884	0	-0.282	
-1.011136	0.062952	0.05368	-0.49	-0.49	0.21	0.4066	0.0196	-0.2756	
-1.011258	0.066856	0.055388	0.21	-0.56	0.14	0.3896	0.0138	-0.2741	
-1.01138	0.067832	0.054656	-0.07	-0.7	0.14	0.3882	0.0138	-0.2788	
-1.01077	0.065392	0.055388	-0.14	-0.63	0.21	0.3997	0.0075	-0.2742	
-1.010648	0.06649	0.054168	0	-0.7	0.42	0.3926	0.0045	-0.2819	
-1.009672	0.065514	0.057096	0.56	-0.63	0.49	0.3984	0.0014	-0.2727	
-1.00955	0.066612	0.057584	0.7	-0.21	0.49	0.3926	0.0061	-0.2726	
-1.009184	0.067466	0.05429	0.84	-0.07	0.42	0.3996	0.0089	-0.2865	
-1.012356	0.068442	0.05551	0.56	0.28	0.21	0.3967	0.0121	-0.2803	
-1.014796	0.068808	0.053314	1.05	-0.14	0.21	0.3982	0.0105	-0.2803	
-1.010038	0.069174	0.052704	0.7	-0.56	-0.07	0.3995	0.0167	-0.2725	
-1.01016	0.071736	0.053192	1.68	-0.56	-0.07	0.3911	0.0076	-0.2804	
-1.01321	0.070638	0.051484	0.56	-0.49	-0.07	0.3967	0.0152	-0.2772	
-1.01504	0.067832	0.049166	-0.07	-0.91	-0.07	0.3882	0.0092	-0.2773	
-1.013942	0.068686	0.049654	0.49	-1.75	0.07	0.3955	0.0014	-0.2711	
-1.013698	0.075396	0.052216	1.26	-1.12	0.14	0.3954	0.0122	-0.2649	
-1.007598	0.075274	0.054534	0.7	-1.4	0	0.3926	0.0076	-0.2726	
-1.007476	0.071004	0.05856	0.07	-0.84	-0.21	0.3926	0.0014	-0.2835	
-1.007232	0.069784	0.061244	0.35	-0.56	-0.42	0.3952	0.0166	-0.2864	
-1.005158	0.068564	0.062098	0.28	0.14	-0.42	0.3981	0.0151	-0.2818	
-1.010648	0.066246	0.061366	-0.77	0.56	-0.56	0.3983	0.0075	-0.2742	
-1.012112	0.067588	0.061	0.14	0.63	-0.42	0.3981	0.0167	-0.2787	
-1.011258	0.070028	0.062098	0.63	0.56	-0.28	0.3882	0.0107	-0.2803	
-1.01077	0.066002	0.055022	0.49	0.35	0.07	0.3968	0.0106	-0.2772	
-1.009672	0.068198	0.055144	0.21	0.21	0.07	0.3938	0.0152	-0.2741	
-1.01138	0.060146	0.055998	-0.42	0.14	0.07	0.394	0.0044	-0.2835	
-1.01199	0.061976	0.057096	0.07	-0.07	0.28	0.4025	0.0089	-0.2772	
-1.011014	0.066246	0.055754	0.35	-0.07	0.28	0.3854	0.0092	-0.2773	
-1.011014	0.066734	0.053192	0.28	0	0.21	0.3925	0.0106	-0.2803	
-1.011746	0.066124	0.054534	0.07	0.14	0.14	0.3996	0.0136	-0.2726	
-1.009916	0.068442	0.0549	0.91	0	0.07	0.394	0.0076	-0.2757	
-1.011868	0.065514	0.054778	0.77	0.14	0.14	0.3866	0.0216	-0.2648	
-1.011136	0.065026	0.054412	0.91	0.14	0.14	0.3938	0.0151	-0.2865	
-1.011014	0.067588	0.054656	1.12	0	0	0.394	0.006	-0.2788	
-1.011746	0.068442	0.0549	1.05	-0.28	-0.14	0.3896	0.009099999	-0.2819	
-1.0126	0.069296	0.054778	1.05	-0.28	0.07	0.3938	0.0183	-0.2741	
-1.01382	0.068808	0.055876	1.47	-0.63	0.42	0.3826	0.0031	-0.2773	
-1.009428	0.067588	0.058194	2.31	-1.12	0.56	0.3925	0.0075	-0.2881	
-1.01321	0.066246	0.062464	2.94	-0.84	0.35	0.3897	0.0078	-0.2618	
-1.011624	0.065026	0.061366	3.5	-0.63	0.42	0.3882	0.0108	-0.2726	
-1.008086	0.065636	0.056852	2.31	-1.26	0.28	0.391	0.0106	-0.2834	
-1.005036	0.068198	0.05612	0.07	-0.63	0.21	0.3955	0	-0.2758	
-1.01687	0.070272	0.050508	-0.63	1.54	0.14	0.401	0.0136	-0.2741	
-1.007964	0.070516	0.047214	-2.24	0.49	0.28	0.3855	0.0031	-0.2804	
-1.011746	0.0671	0.047824	-3.22	1.12	0.28	0.3869	0.0031	-0.2711	
-1.014308	0.067954	0.044408	-3.36	0.84	0.28	0.3912	0.0061	-0.2726	
-1.012966	0.063318	0.05002	-1.96	-0.42	0.42	0.3967	0.0121	-0.2803	
-1.011136	0.064416	0.054656	-0.49	-1.26	0.56	0.3925	0.0107	-0.2711	
-1.012966	0.070516	0.056486	0.56	-1.26	0.56	0.3938	0.0214	-0.271	
-1.016626	0.067954	0.058438	-0.42	-1.96	0.49	0.388	0.0247	-0.2632	
-1.012234	0.072712	0.05917	1.89	-2.52	0.35	0.3954	0.006	-0.2773	
-1.008574	0.066002	0.06405	2.45	-2.66	0.28	0.3882	0.0107	-0.2803	
-1.004792	0.066002	0.063928	3.43	-2.31	0.42	0.3969	0.0044	-0.2835	
-1.009916	0.06161	0.065392	1.68	-1.54	0.7	0.3896	0.0138	-0.271	
-1.008452	0.058316	0.065392	2.17	-0.98	0.98	0.3868	0.0107	-0.2773	
-1.008086	0.067466	0.065148	2.73	-0.84	1.33	0.3953	0.0106	-0.2803	
-1.00284	0.074176	0.064294	2.03	-0.7	1.12	0.391	0.0153	-0.2772	
-1.010038	0.07259	0.063318	1.75	0.63	0.98	0.3883	0.0061	-0.2742	
-1.005402	0.074664	0.060634	0.77	-0.35	0.77	0.3926	0.0076	-0.2742	
-1.009672	0.080154	0.062342	1.4	-0.21	0.49	0.3867	0.0153	-0.2772	
-1.010526	0.081862	0.063562	1.61	-0.49	0.28	0.3968	0.0074	-0.2912	
-1.011624	0.085766	0.055388	1.19	-0.63	-0.21	0.3924	0.0167	-0.2849	
-1.011624	0.084546	0.05673	1.33	-0.63	-0.49	0.3854	0.009099999	-0.2881	
-1.00955	0.07686	0.054778	1.05	-0.07	-0.7	0.3924	0.0137	-0.2772	
-1.013454	0.080154	0.053558	0.07	0	-0.84	0.391	0.0122	-0.2757	
-1.010648	0.074542	0.055632	-1.12	-0.28	-0.98	0.3969	0.0028	-0.2835	
-1.01321	0.068808	0.05734	-1.4	-0.21	-0.77	0.3912	0.0046	-0.2742	
-1.009794	0.070638	0.057218	-1.4	-0.77	-0.49	0.3926	0.006	-0.2757	
-1.013088	0.068686	0.059292	-1.4	-0.56	-0.35	0.3895	0.0199	-0.2741	
-1.01077	0.066612	0.059414	-0.98	-0.84	-0.14	0.3882	0.009099999	-0.285	
-1.01138	0.068564	0.064172	0.42	-0.98	-0.14	0.3911	0.0076	-0.2788	
-1.008574	0.070394	0.066368	1.33	-1.19	-0.21	0.3897	0.0076	-0.2773	
-1.00955	0.067222	0.066246	0.91	-0.98	-0.28	0.3855	0.0062	-0.2711	
-1.01138	0.063074	0.062952	0.84	-0.42	-0.63	0.3968	0.0043	-0.2881	
-1.008574	0.057828	0.066612	0.7	-0.42	-0.91	0.3924	0.0137	-0.2788	
-1.010282	0.061976	0.069906	1.33	-0.63	-0.91	0.3854	0.0061	-0.285	
-1.006866	0.063684	0.069052	1.12	-0.7	-0.84	0.3953	0.0106	-0.2788	
-1.006988	0.066856	0.068198	2.24	-0.35	-0.63	0.3925	0.0107	-0.2757	
-1.008452	0.068076	0.068686	1.89	0.07	-0.7	0.3925	0.0075	-0.2834	
-1.008452	0.07015	0.067222	1.54	0.07	-0.7	0.3967	0.0104	-0.2958	
-1.009916	0.06954	0.066734	1.19	0.21	-0.7	0.3952	0.0182	-0.2849	
-1.010648	0.066368	0.06405	0.21	0.63	-0.56	0.3883	0.0062	-0.2696	
-1.012478	0.063318	0.062464	-0.56	0.49	-0.42	0.3812	0.0047	-0.2773	
-1.01077	0.062586	0.062098	-0.42	0.14	-0.35	0.3896	0.0107	-0.2772	
-1.011502	0.062098	0.062586	0.28	0.14	-0.21	0.3911	0.0076	-0.2757	
-1.011746	0.061854	0.06466	0.42	0.35	-0.07	0.3839	0.0107	-0.2834	
-1.0126	0.06405	0.061976	-0.14	0.56	0.07	0.3868	0.009099999	-0.285	
-1.014186	0.064538	0.060634	-0.63	0.42	0.07	0.3881	0.02	-0.2694	
-1.010404	0.060024	0.059902	-0.91	0.35	0.07	0.3896	0.0122	-0.2757	
-1.011136	0.060512	0.062098	-0.84	1.05	-0.07	0.3882	0.0138	-0.2741	
-1.01138	0.063562	0.062342	-1.4	1.4	0	0.3983	0.0044	-0.2819	
-1.009672	0.069296	0.065636	-0.77	0.14	0.07	0.3922	0.0276	-0.2647	
-1.008818	0.062952	0.06954	-0.7	0.28	0.07	0.3955	0.0029	-0.2773	
-1.011746	0.064294	0.066978	-0.7	0.98	0.07	0.3923	0.0199	-0.2741	
-1.01748	0.063684	0.061366	-2.1	1.05	0.07	0.3882	0.009099999	-0.2819	
-1.012844	0.06649	0.05917	-0.42	-0.21	0	0.3882	0.0122	-0.2865	
-1.011868	0.07076	0.060512	0.84	-0.56	0.07	0.3995	0.0151	-0.2818	
-1.01199	0.072224	0.06588	2.31	-0.84	0.14	0.3939	0.0137	-0.2757	
-1.006988	0.073322	0.059048	1.75	-0.7	0	0.3952	0.0183	-0.271	
-1.009428	0.07198	0.05612	0.77	0	-0.35	0.3912	0.0045	-0.2804	
-1.008086	0.074054	0.056364	0.49	0	-0.42	0.3911	0.006	-0.285	
-1.005646	0.068442	0.059048	-0.77	-0.35	-0.35	0.3896	0.0123	-0.2726	
-1.00955	0.072834	0.057706	-0.98	0.14	-0.21	0.3867	0.0153	-0.2772	
-1.013454	0.06832	0.060024	-2.94	0.77	0	0.391	0.0121	-0.285	
-1.009062	0.058804	0.060024	-2.8	0.56	0.42	0.3867	0.0185	-0.2725	
-1.009184	0.061244	0.064904	-1.4	0.07	0.49	0.3954	0.0075	-0.2757	
-1.008574	0.061366	0.063074	-0.63	0.07	0.49	0.391	0.0137	-0.2803	
-1.011136	0.062098	0.06527	-0.21	0.28	0.56	0.391	0.0152	-0.2849	
-1.014674	0.063562	0.06734399	-0.21	0.42	0.56	0.3938	0.0184	-0.2679	
-1.00955	0.065514	0.065758	0.42	-0.07	0.56	0.3938	0.0167	-0.2803	
-1.012478	0.063562	0.061488	-0.7	0.35	0.49	0.388	0.0245	-0.2802	
-1.0126	0.058072	0.062464	-0.63	-0.07	0.21	0.3938	0.0183	-0.2787	
-1.010526	0.054168	0.062464	-0.56	-0.28	-0.14	0.391	0.0137	-0.2757	
-1.00894	0.056486	0.061732	-1.75	-0.98	-0.42	0.3967	0.0151	-0.2818	
-1.010404	0.063318	0.05978	-0.7	-0.42	-0.42	0.3838	0.017	-0.2741	
-1.01321	0.064294	0.05978	-1.89	-0.28	-0.21	0.3882	0.0122	-0.285	
-1.009306	0.061	0.063684	-1.4	-0.14	-0.14	0.3912	0.0045	-0.2819	
-1.011258	0.060878	0.06527	0.42	0.63	0	0.3937	0.0229	-0.2787	
-1.011868	0.06734399	0.060756	1.4	0.7	0.14	0.3924	0.0136	-0.2896	
-1.01016	0.06893	0.061122	1.61	0.35	0.28	0.3953	0.0152	-0.2756	
-1.013332	0.063318	0.062464	0.63	0.49	0.28	0.3953	0.0105	-0.2865	
-1.01138	0.06161	0.063928	0.91	0.14	0.28	0.401	0.0136	-0.2772	
-1.007964	0.06344	0.06405	1.4	-0.35	0.28	0.3881	0.0169	-0.271	
-1.010282	0.0671	0.06344	1.68	-0.42	0.35	0.3924	0.0136	-0.2896	
-1.010648	0.067466	0.06161	1.75	0	0.42	0.3797	0.0078	-0.2789	
-1.011502	0.067222	0.062952	1.4	-0.14	0.49	0.3968	0.0105	-0.2788	
-1.01199	0.067588	0.062342	0.98	-0.21	0.56	0.384	0.0093	-0.2711	
-1.010648	0.066246	0.061732	0.7	-0.21	0.63	0.3911	0.0075	-0.2865	
-1.010282	0.06527	0.062952	0.35	-0.14	0.49	0.3896	0.0107	-0.2772	
-1.007964	0.062708	0.06039	0.56	-0.21	0.49	0.3839	0.0108	-0.2726	
-1.010526	0.067222	0.061854	0.7	0.14	0.42	0.3939	0.009099999	-0.2757	
-1.011624	0.0671	0.062464	-0.07	0.42	0.49	0.401	0.0121	-0.271	
-1.013698	0.06527	0.06405	-0.42	0.21	0.56	0.3882	0.009099999	-0.2834	
-1.010404	0.066368	0.062586	0.07	-0.14	0.21	0.3854	0.0108	-0.2788	
-1.009672	0.06893	0.059048	0.42	-0.07	0.14	0.3882	0.0092	-0.2757	
-1.01504	0.06588	0.057218	0	0.14	0.21	0.3981	0.012	-0.2849	
-1.01443	0.066246	0.058804	1.33	-0.42	0.35	0.3895	0.0184	-0.2787	
-1.0126	0.07137	0.059902	1.4	-0.49	0.28	0.3926	0.0045	-0.2804	
-1.010282	0.069662	0.062708	-0.07	-0.49	0.14	0.3838	0.0168	-0.288	
-1.006744	0.063318	0.064294	-0.35	-0.35	0.07	0.3966	0.0182	-0.2818	
-1.007476	0.066002	0.066124	0.42	-0.21	0	0.3867	0.0201	-0.2664	
-1.00833	0.0732	0.063562	1.05	-0.14	-0.14	0.3882	0.0107	-0.2757	
-1.010282	0.071004	0.06405	-0.07	0.07	-0.28	0.3883	0.006	-0.285	
-1.01199	0.068686	0.064172	0.56	0.28	-0.35	0.3924	0.0153	-0.2741	
-1.012478	0.068198	0.063684	0.7	0.21	-0.14	0.3825	0.0123	-0.2819	
-1.00894	0.066124	0.063196	0.7	-0.14	0	0.3909	0.0167	-0.2896	
-1.009916	0.066368	0.06161	0.56	-0.07	0.07	0.3925	0.0106	-0.285	
-1.00833	0.063928	0.061854	-0.42	0.14	0	0.3882	0.0138	-0.2803	
-1.009672	0.058072	0.063562	-0.7	0.14	0	0.3925	0.0107	-0.2711	
-1.012844	0.063684	0.06161	0	-0.07	0.28	0.391	0.0152	-0.2803	
-1.011136	0.066612	0.06161	-0.07	-0.28	0.21	0.3926	0.0029	-0.2819	
-1.011746	0.065392	0.063196	0	0.28	0.14	0.3882	0.0123	-0.2757	
-1.011014	0.063562	0.06161	0.56	0.21	0	0.3911	0.009099999	-0.2819	
-1.006988	0.067954	0.061366	1.47	0.49	0	0.3923	0.0213	-0.2818	
-1.011014	0.066124	0.059536	0.84	0.7	0.14	0.3926	0.0014	-0.2789	
-1.0126	0.066734	0.061	1.19	0.77	0.28	0.3839	0.0108	-0.2819	
-1.01138	0.066368	0.061854	0.84	0.14	0.28	0.384	0.0093	-0.2773	
-1.011502	0.066978	0.062098	0.91	0	0.42	0.3839	0.0108	-0.2757	
-1.010526	0.067222	0.061976	0.49	0	0.42	0.3868	0.0076	-0.2819	
-1.009428	0.066246	0.063074	0.7	0.21	0.49	0.3911	0.0077	-0.268	
-1.011624	0.06527	0.060756	0.42	0.21	0.56	0.3854	0.0108	-0.2757	
-1.00955	0.063928	0.062586	0.35	0.35	0.49	0.3912	0.003	-0.2789	
-1.012112	0.062952	0.064538	0.35	0.7	0.49	0.3894	0.023	-0.274	
-1.009916	0.0671	0.063318	0.98	0.21	0.49	0.3853	0.0153	-0.2834	
-1.010282	0.070272	0.062952	1.12	0	0.49	0.3839	0.0123	-0.2788	
-1.009916	0.072834	0.061122	1.26	0	0.56	0.3909	0.0215	-0.271	
-1.010526	0.068442	0.060146	0.56	0.21	0.49	0.3867	0.0138	-0.2788	
-1.00955	0.064294	0.061244	0.42	0.21	0.42	0.3911	0.0061	-0.2742	
-1.01199	0.06344	0.059292	-0.28	0.42	0.28	0.3939	0.0136	-0.2818	
-1.010648	0.06588	0.060634	0.07	0.42	0.07	0.3924	0.0153	-0.2695	
-1.010404	0.06832	0.060024	0.28	0.28	0	0.3911	0.0123	-0.2664	
-1.009672	0.07015	0.05856	0.77	0.14	0.07	0.3923	0.0245	-0.2709	
-1.011624	0.069906	0.059658	0.28	0.21	0.07	0.3911	0.0123	-0.2695	
-1.012722	0.070394	0.05917	-0.14	-0.07	0.07	0.3911	0.0107	-0.2772	
-1.009062	0.070394	0.059414	0.42	-0.14	-0.07	0.3911	0.0076	-0.2788	
-1.010282	0.06734399	0.060756	-0.07	-0.21	0	0.3895	0.0168	-0.2787	
-1.012234	0.066246	0.05856	-0.35	0	0	0.3924	0.0137	-0.2788	
-1.012722	0.064904	0.060512	0.56	-0.14	0.14	0.3939	0.0121	-0.2772	
-1.010404	0.06954	0.05978	1.33	-0.21	0.35	0.3982	0.0121	-0.2741	
-1.012234	0.074298	0.061122	1.26	0.14	0.35	0.3897	0.0046	-0.2758	
-1.009062	0.070516	0.060634	0.21	0.14	0.28	0.3955	0.0013	-0.2804	
-1.007354	0.06734399	0.062952	-0.14	0.35	0.21	0.3866	0.0231	-0.2741	
-1.009428	0.068076	0.062098	0.07	0.42	0	0.3968	0.009099999	-0.2695	
-1.011136	0.064538	0.06283	-0.7	0.07	-0.14	0.3996	0.012	-0.2834	
-1.012112	0.066368	0.062708	-0.14	0	-0.21	0.3967	0.0121	-0.2772	
-1.011258	0.068076	0.06222	0.7	-0.21	-0.28	0.3996	0.0106	-0.2695	
-1.009916	0.07076	0.061366	1.05	-0.14	-0.21	0.3853	0.0169	-0.2772	
-1.009794	0.06771	0.058072	0.7	-0.07	-0.07	0.3939	0.0106	-0.2819	
-1.010648	0.069906	0.06039	0.28	0.35	-0.14	0.3867	0.0122	-0.2803	
-1.011624	0.06344	0.059292	-0.7	0.07	-0.14	0.391	0.0122	-0.2772	
-1.012234	0.06466	0.055876	-0.14	-0.07	0	0.3983	0.0044	-0.2711	
-1.011502	0.069906	0.056242	0.7	-0.28	-0.14	0.3883	0.0077	-0.2696	
-1.01138	0.070272	0.0549	0.63	-0.21	-0.14	0.3982	0.0121	-0.2741	
-1.012844	0.069052	0.058194	0.42	0.07	-0.21	0.3855	0.0062	-0.2696	
-1.011258	0.066734	0.060878	0.91	0.07	-0.14	0.3895	0.0185	-0.2664	
-1.011136	0.064782	0.060634	0.49	0.07	-0.14	0.3982	0.0121	-0.2788	
-1.01138	0.065758	0.059658	0.77	-0.21	-0.14	0.3911	0.0092	-0.2711	
-1.011868	0.066368	0.060024	0.98	-0.14	-0.14	0.3938	0.0152	-0.2756	
-1.011502	0.067954	0.060878	1.33	-0.49	-0.07	0.3995	0.0198	-0.2725	
-1.010038	0.069662	0.061366	1.54	-0.56	0	0.3896	0.0122	-0.2788	
-1.007964	0.067222	0.06039	0.84	-0.63	0	0.3882	0.0107	-0.2834	
-1.011014	0.06527	0.061732	0.21	-0.28	-0.14	0.391	0.0169	-0.2695	
-1.009794	0.065758	0.062464	0.21	-0.21	-0.14	0.3898	0.003	-0.2758	
-1.010038	0.064904	0.063562	0.14	0.14	0	0.3938	0.0198	-0.2771	
-1.010648	0.064294	0.062586	0.14	0	0	0.3909	0.0215	-0.2725	
-1.009794	0.062586	0.063074	0.49	-0.07	0	0.3882	0.0107	-0.2742	
-1.0126	0.064294	0.061366	0.35	-0.14	-0.07	0.3997	0.0074	-0.2803	
-1.011502	0.066368	0.06161	0.7	-0.28	-0.07	0.391	0.0168	-0.2756	
-1.009794	0.067222	0.062342	0.56	-0.28	-0.07	0.3926	0.0029	-0.2866	
-1.009916	0.066246	0.060634	0.56	-0.07	0	0.3925	0.009099999	-0.2803	
-1.011258	0.066612	0.060512	0.21	-0.07	0	0.3882	0.0122	-0.2834	
-1.010282	0.068076	0.061	0.49	0	0.07	0.3924	0.0168	-0.2787	
-1.011136	0.066246	0.060146	0.14	0.35	0.14	0.3967	0.0136	-0.2818	
-1.01138	0.063318	0.060756	0.21	0.28	0	0.3868	0.0093	-0.2711	
-1.012722	0.066246	0.06222	0.49	0.21	0	0.388	0.0199	-0.2803	
-1.011746	0.067222	0.062708	0.35	0.28	0.14	0.3896	0.0106	-0.285	
-1.011868	0.06954	0.062708	0.07	-0.07	0.21	0.3953	0.0137	-0.2741	
-1.007476	0.06649	0.061976	0	-0.07	0.07	0.3853	0.0169	-0.2741	
-1.011014	0.06405	0.062342	-0.7	0.21	-0.14	0.3925	0.0075	-0.2804	
-1.012478	0.061732	0.060878	-0.84	0.28	-0.28	0.3995	0.0183	-0.2694	
-1.013088	0.060268	0.061122	0.21	-0.07	-0.07	0.3995	0.0151	-0.2818	
-1.010892	0.066978	0.060878	1.4	-0.14	0.14	0.3852	0.0184	-0.2849	
-1.012722	0.069052	0.060512	0.42	0.14	0.14	0.3882	0.0107	-0.2742	
-1.007354	0.066002	0.061122	-0.14	0.21	0	0.3896	0.0123	-0.2726	
-1.009184	0.067222	0.061854	0.42	0.7	-0.28	0.3868	0.0123	-0.2757	
-1.01199	0.065758	0.059902	-0.21	0.49	-0.42	0.3954	0.009099999	-0.2757	
-1.011746	0.06405	0.062342	-0.07	0.42	-0.42	0.3925	0.0107	-0.2664	
-1.010892	0.065026	0.060878	0.21	0.35	-0.42	0.3938	0.0168	-0.2741	
-1.011868	0.069296	0.058072	0.56	0.28	-0.63	0.3868	0.0077	-0.2742	
-1.013088	0.067466	0.056608	0.56	0.21	-0.49	0.3966	0.023	-0.2632	
-1.014186	0.066002	0.055632	1.05	0.14	-0.35	0.3924	0.0168	-0.2772	
-1.011136	0.069174	0.056364	0.98	0.07	-0.35	0.3897	0.0092	-0.2773	
-1.009672	0.06527	0.056608	0.21	0	-0.28	0.3968	0.0122	-0.271	
-1.011624	0.06222	0.056852	-0.14	0.07	-0.07	0.3852	0.0185	-0.2756	
-1.012722	0.065026	0.05795	0.07	-0.14	-0.07	0.3982	0.0137	-0.2695	
-1.012844	0.063074	0.057828	0.28	-0.56	-0.14	0.391	0.0122	-0.2803	
-1.012478	0.061854	0.057096	0.35	-0.49	-0.14	0.3911	0.0092	-0.2726	
-1.01138	0.063928	0.060512	1.19	-0.56	-0.21	0.3924	0.0168	-0.2741	
-1.010404	0.063318	0.061244	1.05	-0.7	-0.14	0.3853	0.0139	-0.2757	
-1.01016	0.05978	0.061732	0.56	-0.63	0.14	0.3911	0.0044	-0.2897	
-1.01016	0.056852	0.058926	0.07	-0.28	0.35	0.3996	0.0136	-0.2803	
-1.012112	0.061244	0.06039	0.56	-0.28	0.42	0.3895	0.0153	-0.2818	
-1.011502	0.061122	0.060268	0.7	-0.14	0.21	0.3967	0.0183	-0.2663	
-1.010648	0.060146	0.060634	0.91	-0.14	0	0.3912	0.0046	-0.2727	
-1.011258	0.062098	0.059536	1.26	-0.28	0	0.3868	0.0107	-0.2773	
-1.01138	0.063562	0.06161	1.4	-0.21	0.07	0.3923	0.0199	-0.2741	
-1.009916	0.064904	0.061366	1.47	-0.28	0.35	0.388	0.0215	-0.2787	
-1.011014	0.064416	0.062464	1.47	-0.21	0.49	0.3939	0.0122	-0.2757	
-1.011624	0.065148	0.060634	1.26	-0.14	0.56	0.3881	0.0215	-0.2679	
-1.01138	0.067588	0.061854	1.05	-0.21	0.49	0.3954	0.0075	-0.2788	
-1.010038	0.066978	0.061488	1.12	-0.35	0.42	0.3967	0.0167	-0.2787	
-1.010282	0.066246	0.059048	1.26	-0.21	0.42	0.3982	0.0121	-0.2757	
-1.011136	0.066246	0.059658	1.05	-0.07	0.35	0.3925	0.009099999	-0.2788	
-1.012112	0.068198	0.061976	1.05	-0.14	0.35	0.3954	0.0044	-0.285	
-1.009916	0.06649	0.061122	0.7	-0.35	0.42	0.3911	0.0123	-0.268	
-1.010038	0.068198	0.061854	0.56	-0.14	0.42	0.3853	0.0139	-0.2695	
-1.009794	0.066612	0.060512	0.84	-0.07	0.49	0.3882	0.0154	-0.2648	
-1.008696	0.06466	0.062952	0.35	0.14	0.56	0.3911	0.0092	-0.2711	
-1.011746	0.060512	0.060878	0.21	0.07	0.56	0.3839	0.014	-0.2649	
-1.011014	0.065636	0.061366	0.28	-0.07	0.28	0.3881	0.0154	-0.2726	
-1.009672	0.065392	0.062464	1.05	-0.14	0.28	0.3896	0.0138	-0.2741	
-1.014674	0.061732	0.061732	-0.07	-0.07	0.42	0.3896	0.0122	-0.285	
-1.009794	0.059902	0.061244	0.98	-0.42	0.63	0.3954	0.0076	-0.2664	
-1.011014	0.064904	0.063074	1.19	-0.35	0.77	0.3895	0.0168	-0.2834	
-1.012844	0.072834	0.062464	1.26	0.21	0.7	0.391	0.0122	-0.2788	
-1.008696	0.067954	0.062342	0.63	-0.07	0.63	0.3925	0.0122	-0.2695	
-1.00833	0.066246	0.06466	0.14	0.28	0.42	0.3981	0.0167	-0.2772	
-1.00955	0.070028	0.06405	0.91	0.42	0.28	0.3925	0.0076	-0.2788	
-1.009062	0.069662	0.06283	0.84	0.14	0.21	0.3896	0.0123	-0.2726	
-1.01077	0.065148	0.064416	0.49	0.28	0.14	0.3881	0.0184	-0.2741	
-1.012112	0.066002	0.06405	1.26	0.56	0.14	0.3911	0.0077	-0.2711	
-1.009306	0.07137	0.060756	1.68	0.35	0.21	0.3925	0.0122	-0.2757	
-1.010648	0.07137	0.057462	1.12	0.42	0.35	0.3981	0.0152	-0.2725	
-1.010526	0.075396	0.057828	1.12	0.77	0.14	0.3953	0.0105	-0.285	
-1.01016	0.069784	0.059414	-0.07	0.63	0	0.3925	0.0122	-0.271	
-1.012722	0.063928	0.059536	-0.49	0.42	0.21	0.3925	0.0122	-0.271	
-1.012356	0.064904	0.058682	-0.21	0.21	0.28	0.384	0.0046	-0.2835	
-1.012112	0.065636	0.058072	-0.28	0.07	0.07	0.3896	0.0123	-0.2741	
-1.011868	0.066124	0.059292	-0.14	0.14	0.07	0.3953	0.0106	-0.2757	
-1.010892	0.06771	0.059536	0.91	0.21	0	0.388	0.0246	-0.2679	
-1.008086	0.068564	0.060268	0.42	0.35	-0.14	0.3896	0.0137	-0.2803	
-1.011868	0.064538	0.059414	0.21	1.26	0	0.3911	0.009099999	-0.2834	
-1.012234	0.06734399	0.05673	-2.24	-0.77	0	0.4025	0.0105	-0.2695	
-1.014186	0.065514	0.061122	-1.82	-0.84	0.14	0.394	0.0044	-0.2804	
-1.010404	0.060512	0.062098	0.35	0.14	0.49	0.3826	0.0062	-0.2758	
-1.009184	0.060756	0.057828	0.56	0.14	0.56	0.3881	0.0154	-0.2741	
-1.009794	0.066002	0.061122	0.07	-0.28	0.42	0.3909	0.0167	-0.2865	
-1.010648	0.069662	0.064172	0.49	-0.49	0.14	0.3852	0.0184	-0.2803	
-1.01138	0.07076	0.060146	0.77	0.07	0.14	0.3909	0.0214	-0.2741	
-1.011502	0.06954	0.058926	0.42	-0.14	0	0.3953	0.0152	-0.2741	
-1.011624	0.066978	0.057584	0	0.07	-0.07	0.3853	0.0107	-0.2804	
-1.011014	0.06466	0.05856	-0.49	0	-0.07	0.3926	0.006	-0.2819	
-1.009794	0.065514	0.061244	-0.14	-0.21	-0.21	0.3811	0.0077	-0.2819	
-1.01016	0.070516	0.061122	0.07	-0.21	-0.21	0.3882	0.0139	-0.2664	
-1.010038	0.073444	0.059292	0.28	0.07	-0.21	0.3911	0.0122	-0.2726	
-1.011624	0.071858	0.059536	-0.07	0.07	-0.21	0.3925	0.0122	-0.2772	
-1.010526	0.070028	0.060268	-0.49	-0.07	-0.21	0.3968	0.009	-0.2772	
-1.009184	0.06649	0.059902	-0.56	0.07	-0.07	0.3939	0.0137	-0.2741	
-1.011746	0.062098	0.059048	-0.56	0.21	-0.07	0.3867	0.0122	-0.2803	
-1.012356	0.063562	0.06039	-0.14	0.14	0.07	0.391	0.0137	-0.2788	
-1.014186	0.064172	0.059536	-0.14	-0.21	0.21	0.3881	0.0121	-0.2911	
-1.011258	0.068564	0.060146	0.07	-0.49	0.21	0.3926	0.0047	-0.2603	
-1.009062	0.066612	0.060512	0.56	-0.35	0.21	0.3881	0.0153	-0.2757	
-1.011624	0.06771	0.061732	0.14	-0.35	0.21	0.3882	0.0138	-0.2788	
-1.011014	0.06222	0.059658	-0.63	-0.14	0.35	0.3952	0.0215	-0.2632	
-1.009916	0.060146	0.057706	-0.21	-0.07	0.56	0.3896	0.0153	-0.2741	
-1.013332	0.066368	0.059536	0.56	0.28	0.56	0.3867	0.0154	-0.2757	
-1.011868	0.06832	0.062952	0.14	0.21	0.49	0.391	0.0169	-0.271	
-1.008452	0.064904	0.062342	-0.21	0.07	0.49	0.3924	0.0183	-0.2787	
-1.008696	0.066612	0.065514	0.42	0.28	0.42	0.3925	0.0075	-0.2834	
-1.009672	0.069784	0.06405	0.7	0.28	0.28	0.3966	0.0198	-0.274	
-1.010038	0.067832	0.062098	0.21	0.28	0.14	0.3926	0.0029	-0.2804	
-1.011136	0.066734	0.064904	-0.07	0.28	0.07	0.401	0.012	-0.2757	
-1.00955	0.068686	0.062098	0	0.21	0.07	0.3939	0.0106	-0.2803	
-1.009794	0.068564	0.061122	0.14	0.21	0.35	0.3923	0.0245	-0.2725	
-1.01077	0.071736	0.058194	0.63	0.28	0.21	0.3882	0.0123	-0.2711	
-1.008696	0.0732	0.060146	0.63	0.35	0.14	0.3895	0.0183	-0.2834	
-1.010526	0.068808	0.060268	-0.14	0.49	0.21	0.3926	0.006	-0.2788	
-1.011014	0.069662	0.057462	-0.21	0.56	0.21	0.3895	0.0169	-0.2726	
-1.010038	0.06893	0.055998	-0.77	0.49	0.07	0.3925	0.0076	-0.2773	
-1.012234	0.066978	0.055022	-1.19	0.7	0	0.3939	0.0122	-0.2726	
-1.013698	0.06466	0.05673	-0.84	0.56	-0.07	0.3982	0.0137	-0.2679	
-1.01199	0.068564	0.057584	0.49	0.28	-0.07	0.3868	0.0123	-0.2711	
-1.01016	0.068686	0.05856	0.35	-0.07	-0.07	0.3882	0.0092	-0.2757	
-1.008574	0.069906	0.05917	0.35	-0.07	0	0.3938	0.0182	-0.2818	
-1.01077	0.068808	0.059658	-0.21	0.14	-0.07	0.391	0.0168	-0.2772	
-1.010404	0.066612	0.059048	-0.14	0	-0.07	0.3982	0.009	-0.2772	
-1.010648	0.065026	0.060512	-0.63	0.35	-0.21	0.3911	0.0107	-0.2726	
-1.01138	0.064416	0.060634	-0.56	0.63	-0.56	0.3968	0.0075	-0.2757	
-1.011136	0.06466	0.060512	-0.84	0.63	-0.77	0.3907	0.0322	-0.274	
-1.012356	0.067222	0.058682	-0.42	0.49	-0.77	0.3924	0.0152	-0.2772	
-1.012478	0.064538	0.056852	-0.49	0.28	-0.63	0.388	0.0214	-0.288	
-1.011746	0.064294	0.057218	-0.07	-0.07	-0.28	0.3924	0.0168	-0.2787	
-1.009916	0.063928	0.056486	-0.21	-0.14	-0.07	0.398	0.0229	-0.2632	
-1.009916	0.063928	0.058438	-0.7	0.07	0.07	0.3953	0.0136	-0.2787	
-1.010648	0.06405	0.058804	-0.28	0.21	0.14	0.3867	0.0138	-0.2772	
-1.011502	0.06527	0.05795	0.28	0.28	0.21	0.3825	0.0139	-0.2772	
-1.01199	0.065514	0.05734	0.7	0	0.07	0.3952	0.0198	-0.2725	
-1.013698	0.066002	0.056364	0.98	-0.07	0.14	0.381	0.0169	-0.2819	
-1.013088	0.066002	0.05734	1.12	-0.35	0.14	0.3825	0.0139	-0.2742	
-1.010038	0.067222	0.05734	1.05	-0.35	0.21	0.3925	0.0107	-0.2711	
-1.010526	0.06527	0.056242	0.63	-0.28	0.28	0.3896	0.0107	-0.2757	
-1.009916	0.06466	0.059414	0.35	0.07	0.35	0.3854	0.0093	-0.2665	
-1.012234	0.063562	0.058316	0.49	-0.07	0.28	0.3854	0.0124	-0.2711	
-1.011258	0.069296	0.06039	0.63	-0.35	0.14	0.3838	0.0184	-0.2803	
-1.010038	0.06649	0.060024	1.26	-0.14	0.07	0.3923	0.023	-0.2679	
-1.011136	0.07198	0.059536	0.49	-0.56	-0.07	0.3909	0.0199	-0.2772	
-1.013576	0.07076	0.059658	-0.07	-0.56	0.28	0.3924	0.0183	-0.2756	
-1.009306	0.064538	0.059292	0.49	-0.98	0.63	0.3853	0.0154	-0.2757	
-1.011624	0.066856	0.05795	0.84	-0.42	0.84	0.3925	0.0122	-0.2757	
-1.009184	0.069052	0.05978	0.21	-0.14	0.56	0.3853	0.0155	-0.2679	
-1.00772	0.069906	0.05917	0.21	0.28	0.35	0.3939	0.0153	-0.2664	
-1.011868	0.070516	0.05856	0.42	0.7	0.21	0.3867	0.017	-0.2695	
-1.012844	0.066368	0.055998	-0.42	0.49	-0.07	0.3954	0.009099999	-0.2772	
-1.012722	0.063196	0.058072	-0.98	0.14	-0.07	0.3909	0.023	-0.274	
-1.010404	0.062098	0.058438	-1.47	0.14	-0.14	0.3923	0.0198	-0.2849	
-1.009916	0.059658	0.059902	-2.17	0	-0.28	0.391	0.0137	-0.2772	
-1.010038	0.055754	0.060268	-1.47	0.21	-0.21	0.3896	0.0153	-0.2788	
-1.012112	0.060756	0.061122	0.07	0.28	-0.42	0.391	0.0185	-0.2617	
-1.01138	0.068808	0.061	0.98	-0.07	-0.56	0.391	0.0154	-0.2602	
-1.00955	0.065514	0.061366	1.05	-0.14	-0.35	0.3867	0.0154	-0.2757	
-1.010282	0.066246	0.059292	1.33	0.07	-0.14	0.3881	0.0169	-0.2756	
-1.010282	0.06734399	0.057828	1.12	0.14	0	0.391	0.0122	-0.2819	
-1.01016	0.066978	0.056242	0.98	0.21	0.14	0.3895	0.023	-0.2694	
-1.01077	0.067466	0.055754	0.98	0.14	0.21	0.3853	0.0138	-0.2772	
-1.011624	0.069296	0.057096	1.75	0.21	0.21	0.3867	0.0137	-0.2911	
-1.012112	0.068076	0.05917	1.4	0	0.14	0.3896	0.0123	-0.268	
-1.009672	0.066246	0.059902	1.26	-0.14	0.07	0.3853	0.0153	-0.2865	
-1.01138	0.068808	0.061366	1.89	-0.14	-0.07	0.3952	0.0183	-0.2679	
-1.009916	0.070272	0.060756	2.66	-0.14	-0.07	0.3981	0.0183	-0.2694	
-1.011868	0.069906	0.05917	2.8	0.14	0.07	0.3868	0.0123	-0.2772	
-1.011014	0.066612	0.058072	2.17	0.21	0.14	0.391	0.0168	-0.2756	
-1.011502	0.062098	0.058438	1.54	0.63	0.07	0.3939	0.0122	-0.2726	
-1.008696	0.063196	0.05734	1.33	0.28	-0.07	0.391	0.0137	-0.2788	
-1.011014	0.06283	0.055388	0.91	0.35	-0.21	0.3911	0.0107	-0.2788	
-1.01199	0.069296	0.05734	1.75	-0.14	-0.07	0.3911	0.0092	-0.2742	
-1.012478	0.069296	0.054168	0.91	-0.28	0.07	0.3982	0.0137	-0.2679	
-1.012722	0.066978	0.055998	0.35	-0.35	0.14	0.394	0.0076	-0.2711	
-1.013698	0.064782	0.055754	0.14	-0.42	0.07	0.3938	0.0152	-0.2741	
-1.01321	0.063806	0.058072	0.14	-0.63	-0.07	0.3895	0.0168	-0.2787	
-1.01016	0.062952	0.05978	0.77	-0.7	-0.14	0.3867	0.0168	-0.2849	
-1.011014	0.064294	0.059536	0.77	-0.98	-0.21	0.3867	0.0138	-0.2772	
-1.011624	0.063318	0.061366	1.26	-0.7	-0.28	0.3882	0.0108	-0.2695	
-1.010038	0.06283	0.05978	1.26	-0.91	-0.35	0.3924	0.0154	-0.2648	
-1.009428	0.064782	0.061488	1.4	-0.56	-0.14	0.3897	0.0092	-0.2695	
-1.01443	0.066246	0.060268	0.84	-0.63	-0.07	0.3981	0.0167	-0.2787	
-1.00833	0.069174	0.064294	0.91	-0.7	-0.07	0.3898	0.0015	-0.2773	
-1.010526	0.066368	0.063684	-0.91	-0.77	0	0.3881	0.0185	-0.2679	
-1.015528	0.06161	0.054412	-2.03	-0.42	0	0.3837	0.0214	-0.288	
-1.01687	0.063074	0.048312	-0.98	-0.77	0.21	0.3825	0.0108	-0.2835	

-1.010648	0.069296	0.058682	-0.91	-2.17	0.49	0.3854	0.0108	-0.2711	
-1.004792	0.066734	0.06283	-2.38	-1.89	0.14	0.3895	0.0199	-0.2741	
-1.00711	0.063806	0.060512	-3.15	-0.84	0.14	0.3923	0.0229	-0.2756	
-1.013088	0.061976	0.05856	-3.29	-0.14	0.28	0.394	0.0045	-0.2773	
-1.013942	0.059658	0.059536	-2.17	-0.98	0.56	0.3924	0.0152	-0.2849	
-1.011258	0.055632	0.064416	-1.75	-2.31	0.98	0.3853	0.0138	-0.2772	
-1.013088	0.05368	0.066734	-0.56	-2.45	1.54	0.3982	0.0106	-0.2741	
-1.013332	0.05978	0.070882	0.49	-3.43	1.54	0.3866	0.0215	-0.2802	
-1.00711	0.055876	0.085278	2.52	-3.01	1.47	0.3839	0.0123	-0.2834	
-1.01382	0.071492	0.083936	8.4	-0.42	1.61	0.3882	0.0138	-0.2741	
-1.003084	0.071858	0.077592	5.6	-1.47	0.98	0.3967	0.0183	-0.271	
-0.997472	0.063806	0.077592	2.31	-0.56	0.91	0.3939	0.0121	-0.2865	
-1.004914	0.060268	0.079422	1.61	-0.98	1.05	0.3924	0.0105	-0.2927	
-1.007842	0.075396	0.076616	4.06	-0.63	0.84	0.3868	0.0092	-0.2773	
-1.006256	0.084912	0.073566	3.5	-2.17	0.91	0.3896	0.0153	-0.2757	
-1.009306	0.084912	0.068564	2.1	-2.31	1.4	0.3926	-0.0001	-0.2897	
-1.00894	0.076738	0.067832	1.68	-1.89	1.89	0.3839	0.0124	-0.2711	
-1.012356	0.07564	0.070516	1.75	-1.19	2.24	0.3796	0.0124	-0.2804	
-1.009916	0.080276	0.067832	0.56	-0.77	2.31	0.3827	0.0016	-0.2804	
-1.009306	0.079422	0.064782	-1.96	-0.7	2.24	0.3882	0.0092	-0.2804	
-1.007964	0.075518	0.061	-3.22	0.21	1.89	0.3813	-0.0014	-0.2805	
-1.009672	0.074908	0.062342	-2.8	1.4	1.54	0.3896	0.0106	-0.2819	
-1.009062	0.071492	0.063684	-2.87	1.89	0.98	0.3939	0.0121	-0.2788	
-1.00772	0.066612	0.065758	-2.45	2.45	0.42	0.3896	0.0122	-0.2803	
-1.014552	0.06588	0.06649	-1.33	3.29	-0.35	0.3897	0.0108	-0.2695	
-1.012966	0.069052	0.061976	-1.68	2.52	-1.33	0.3896	0.0123	-0.2741	
-1.011258	0.072956	0.064294	0	1.82	-2.1	0.387	-0.0015	-0.2789	
-1.010404	0.0732	0.0671	0.35	1.68	-2.45	0.3954	0.006	-0.2757	
-1.011624	0.07442	0.063318	0.77	1.68	-2.45	0.3824	0.0123	-0.2881	
-1.012356	0.074786	0.060268	0.42	1.4	-2.17	0.3897	0.009099999	-0.2804	
-1.014796	0.069662	0.060146	0	0.7	-1.68	0.3897	0.0076	-0.2788	
-1.011624	0.06405	0.06161	-0.28	-0.14	-0.77	0.384	0.0046	-0.2804	
-1.010526	0.065758	0.068808	2.24	0.35	-0.28	0.3924	0.0168	-0.2787	
-1.00772	0.069418	0.06283	1.96	0	0.07	0.3926	0.006	-0.2757	
-1.010038	0.071492	0.061	1.05	0	0.07	0.3895	0.0184	-0.2694	
-1.011502	0.06771	0.071492	0.07	0.14	0.21	0.3897	0.0092	-0.2773	
-1.00467	0.067466	0.07442	1.05	1.05	0.07	0.3911	0.0107	-0.2788	
-1.009184	0.066368	0.06832	-0.28	1.26	0	0.3983	0.0075	-0.268	
-1.01199	0.068442	0.07015	-1.47	0.42	-0.14	0.394	0.0075	-0.2804	
-1.011624	0.063684	0.066856	-1.75	0.91	-0.21	0.3939	0.009	-0.2865	
-1.010038	0.061976	0.065514	-0.28	0.98	-0.14	0.391	0.0122	-0.2757	
-1.010526	0.068442	0.065392	0.98	0.7	0.07	0.3839	0.0139	-0.2695	
-1.013576	0.066246	0.063196	-0.63	0.42	0.28	0.3853	0.0123	-0.2788	
-1.009916	0.06344	0.06222	-0.98	0.35	0.28	0.3896	0.0138	-0.271	
-1.006134	0.063928	0.063928	-0.42	0.77	0.14	0.3938	0.0199	-0.2694	
-1.007354	0.063562	0.064904	-0.21	1.19	0	0.3866	0.0215	-0.271	
-1.00894	0.066246	0.066124	-0.14	1.05	-0.07	0.3838	0.0169	-0.2803	
-1.010038	0.066856	0.065758	-0.28	1.26	0.21	0.3938	0.0167	-0.2803	
-1.010038	0.06832	0.065758	0	1.12	0.56	0.3882	0.0108	-0.2711	
-1.011502	0.066856	0.061122	0.7	1.19	1.05	0.3911	0.0076	-0.2773	
-1.007964	0.075274	0.061366	1.54	0.91	1.19	0.3895	0.0168	-0.2756	
-1.011136	0.07503	0.061122	1.54	0.98	0.98	0.3883	0.0077	-0.2757	
-1.013454	0.069906	0.059414	0.84	0.84	0.91	0.3869	0.0015	-0.2773	
-1.015406	0.072712	0.059658	1.33	0.42	0.7	0.3898	0.003	-0.2758	
-1.012234	0.075274	0.060634	0.98	-0.35	0.35	0.391	0.0122	-0.2772	
-1.010038	0.08052	0.054168	-0.56	-0.98	-0.07	0.3939	0.0153	-0.2726	
-1.010038	0.082472	0.051118	-2.24	-1.4	-0.35	0.388	0.0214	-0.2864	
-1.01016	0.076738	0.054656	-2.31	-1.05	-0.42	0.3939	0.0138	-0.2695	
-1.008086	0.067832	0.053192	-0.35	-0.91	-0.49	0.3882	0.0138	-0.2726	
-1.01382	0.060634	0.052094	0.84	-0.14	-0.49	0.3981	0.0152	-0.2741	
-1.01626	0.066856	0.054168	3.57	-0.07	-0.21	0.3882	0.009099999	-0.2865	
-1.013698	0.07015	0.055998	5.11	0	0.07	0.3952	0.0183	-0.2756	
-1.01016	0.06771	0.055754	5.32	0.21	0.14	0.3852	0.0169	-0.2818	
-1.01199	0.069052	0.061366	5.18	0.07	0.07	0.3854	0.009099999	-0.2865	
-1.011136	0.071858	0.06039	5.74	-0.42	-0.14	0.3996	0.0105	-0.2834	
-1.013576	0.072834	0.061122	5.81	-0.98	-0.21	0.3868	0.006	-0.2881	
-1.009184	0.070516	0.062098	6.72	-1.26	-0.14	0.3897	0.0076	-0.2788	
-1.008818	0.071492	0.063684	8.4	-0.84	0	0.3939	0.0121	-0.2849	
-1.011746	0.074908	0.063318	7.91	-0.49	0	0.3883	0.0076	-0.2788	
-1.012112	0.07124799	0.060268	5.04	-0.42	-0.28	0.3853	0.0153	-0.2803	
-1.009184	0.07124799	0.06161	4.2	-0.21	-0.42	0.3898	0.0031	-0.2727	
-1.009794	0.070638	0.065636	3.64	0.21	-0.49	0.3869	0.0046	-0.2742	
-1.006622	0.067832	0.066856	2.73	-0.14	-0.49	0.3854	0.0077	-0.2773	
-1.007598	0.06344	0.062708	2.17	-0.14	-0.56	0.3896	0.0106	-0.2819	
-1.012356	0.0671	0.062464	2.31	1.05	-0.28	0.3979	0.0259	-0.2786	
-1.014674	0.065026	0.061976	1.61	0.56	-0.42	0.3939	0.0122	-0.2757	
-1.009062	0.068198	0.065392	1.47	0.21	-0.56	0.3813	0.0001	-0.2789	
-1.00894	0.064416	0.06466	2.59	0.63	-0.28	0.3855	0.0046	-0.2773	
-1.009672	0.065392	0.067588	2.52	0.7	-0.07	0.3997	0.0074	-0.2788	
-1.006988	0.066246	0.06405	1.75	0.49	0.42	0.3867	0.0154	-0.2741	
-1.005768	0.060756	0.062708	1.26	0.77	0.63	0.3897	0.0076	-0.2819	
-1.00955	0.068076	0.062586	1.19	1.61	0.7	0.3855	0.0046	-0.2789	
-1.01138	0.073566	0.063318	0.91	1.82	0.63	0.3955	0.003	-0.2727	
-1.007232	0.072102	0.062098	0.84	1.54	0.56	0.3826	0.0046	-0.2835	
-1.008574	0.071126	0.062952	0.77	2.03	0.49	0.3969	0.0014	-0.2727	
-1.008208	0.072712	0.06222	0.77	2.03	0.35	0.3956	-0.0031	-0.2696	
-1.00772	0.07124799	0.056364	0.28	2.03	0.07	0.3967	0.0184	-0.2586	
-1.012234	0.071004	0.055632	0.14	2.52	-0.07	0.3827	-0.0014	-0.2774	
-1.01199	0.070638	0.054656	0.21	2.1	0	0.394	0.006	-0.2742	
-1.010892	0.070516	0.051362	0.21	2.03	-0.07	0.3997	0.006	-0.2664	
-1.009916	0.075274	0.05246	-0.14	2.1	-0.21	0.3883	0.0093	-0.2618	
-1.013332	0.071492	0.047702	-0.84	2.17	-0.07	0.384	0.0062	-0.2773	
-1.015162	0.067588	0.04758	-1.54	1.4	0.14	0.3912	0.0046	-0.2727	
-1.01138	0.06954	0.048434	-0.98	1.19	0.14	0.3897	0.0092	-0.2757	
-1.011258	0.069296	0.045384	-1.89	1.47	0	0.3938	0.0168	-0.2772	
-1.012356	0.068564	0.045994	-2.59	1.26	-0.07	0.3996	0.0137	-0.2695	
-1.01199	0.068808	0.048922	-1.96	1.12	-0.07	0.391	0.0122	-0.2741	
-1.012478	0.068198	0.049898	-1.12	1.54	0	0.3939	0.0105	-0.2881	
-1.012356	0.066612	0.04697	-1.82	1.19	-0.07	0.3969	0.0045	-0.2711	
-1.012844	0.068442	0.049776	-2.17	0.7	-0.14	0.3925	0.009099999	-0.2788	
-1.011258	0.068442	0.049288	-1.89	0.77	-0.07	0.3983	0.0044	-0.2757	
-1.011014	0.070516	0.0488	-1.54	0.91	-0.07	0.3968	0.0122	-0.2664	
-1.011502	0.070394	0.049898	-1.89	0.98	0.07	0.3855	0.0047	-0.2742	
-1.009794	0.067588	0.048922	-2.17	0.98	0.14	0.3882	0.0154	-0.2664	
-1.011258	0.066734	0.049166	-2.8	1.05	0.14	0.394	0.009099999	-0.2726	
-1.012478	0.069296	0.048922	-2.38	1.12	0.21	0.3868	0.0108	-0.2726	
-1.009916	0.07076	0.048068	-1.61	1.12	0.21	0.3912	0.0045	-0.2758	
-1.012234	0.069784	0.04514	-1.82	1.26	0.21	0.3839	0.0092	-0.2804	
-1.013454	0.070638	0.04514	-2.03	0.77	0.35	0.3984	-0.0016	-0.2742	
-1.011746	0.069784	0.046604	-2.17	0.7	0.35	0.3897	0.0077	-0.2634	
-1.01077	0.07259	0.047458	-1.54	0.7	0.42	0.3912	0.0061	-0.2726	
-1.012722	0.071004	0.044164	-1.75	0.84	0.49	0.3924	0.0153	-0.2695	
-1.01138	0.067954	0.045506	-2.45	0.49	0.49	0.3867	0.017	-0.2695	
-1.014674	0.06954	0.04636	-2.59	0.42	0.35	0.3969	0.003	-0.2634	
-1.008818	0.073444	0.045262	-1.47	0	0.21	0.3869	0.0031	-0.2711	
-1.008696	0.067466	0.04331	-2.1	0.63	0.21	0.3954	0.0092	-0.2572	
-1.013332	0.065636	0.044286	-2.66	1.05	0.14	0.3881	0.02	-0.2725	
-1.013942	0.064294	0.044774	-3.08	0.91	0.07	0.3925	0.0138	-0.2664	
-1.011746	0.063928	0.04514	-2.17	0.63	0.28	0.3883	0.0093	-0.268	
-1.011624	0.07076	0.044286	-1.33	0.77	0.35	0.3939	0.0153	-0.2726	
-1.011502	0.07515199	0.04636	-1.19	0.84	0.42	0.3954	0.0108	-0.2571	
-1.009306	0.06893	0.045872	-1.89	0.98	0.49	0.3924	0.0153	-0.271	
-1.009672	0.068686	0.045262	-1.33	1.19	0.35	0.3983	0.0075	-0.2742	
-1.014552	0.069296	0.044286	-1.12	1.05	0.14	0.3997	0.009099999	-0.2633	
-1.012722	0.07015	0.042944	-0.7	0.42	0.14	0.3896	0.0154	-0.2679	
-1.013698	0.070028	0.042334	-0.77	0.35	0.14	0.3953	0.0153	-0.2679	
-1.012112	0.070272	0.040992	-0.49	0.14	0.21	0.3926	0.0093	-0.2587	
-1.010526	0.068808	0.037698	-0.21	0.14	0.42	0.3982	0.0121	-0.2757	
-1.013454	0.072224	0.040138	-0.28	0.42	0.28	0.3967	0.0168	-0.2633	
-1.011624	0.069784	0.040504	-0.35	0.35	0.14	0.3997	0.0075	-0.2664	
-1.01321	0.06588	0.041724	-0.63	0.28	0.28	0.3895	0.0184	-0.271	
-1.011868	0.070638	0.041846	0.21	0.07	0.21	0.3954	0.006	-0.2726	
-1.011014	0.072712	0.041846	0.14	0.07	0.14	0.3911	0.0123	-0.268	
-1.011502	0.07198	0.042456	0.14	0.07	0.21	0.3995	0.0151	-0.2756	
-1.012356	0.070882	0.04331	0.28	0.14	0.14	0.3896	0.0169	-0.2695	
-1.011624	0.070394	0.04392	0.56	0	0.14	0.394	0.0076	-0.2711	
-1.011014	0.069662	0.042944	0.49	-0.07	0.21	0.4025	0.012	-0.2726	
-1.012234	0.071492	0.042578	0.28	-0.14	0.21	0.3995	0.0199	-0.2617	
-1.011136	0.069784	0.043188	0.21	-0.07	0.21	0.3982	0.012	-0.2803	
-1.01077	0.068808	0.042456	0.14	0.07	0.21	0.3939	0.0138	-0.2695	
-1.012234	0.06954	0.040992	-0.28	0.42	0.35	0.3925	0.0107	-0.2695	
-1.012112	0.070394	0.040626	-0.7	0.49	0.28	0.3953	0.0152	-0.2772	
-1.012722	0.070028	0.04148	-0.56	0.42	0.28	0.3954	0.006	-0.2788	
-1.012966	0.06893	0.042456	-0.63	0.42	0.21	0.3854	0.0094	-0.2618	
-1.013088	0.067832	0.041358	-0.42	0.14	0.14	0.391	0.0154	-0.2679	
-1.012722	0.069662	0.040138	-0.07	-0.28	0.14	0.3867	0.0185	-0.271	
-1.011746	0.069662	0.041358	0.07	-0.49	0.07	0.3939	0.0122	-0.2679	
-1.012966	0.072712	0.0427	0.21	-0.49	0.28	0.3952	0.0199	-0.2679	
-1.01138	0.07124799	0.043798	0.49	-0.35	0.28	0.3982	0.0107	-0.2602	
-1.010526	0.069418	0.041846	0.49	-0.28	0.28	0.3896	0.0139	-0.2633	
-1.008818	0.068442	0.041968	0.35	-0.07	0.14	0.3939	0.0106	-0.2772	
-1.01321	0.068442	0.04514	0.14	0.42	0.14	0.394	0.009099999	-0.2726	
-1.012722	0.0732	0.046848	0.91	0.14	0	0.3953	0.0168	-0.2648	
-1.009306	0.073078	0.044896	1.26	0.07	-0.35	0.394	0.0092	-0.2649	
-1.010648	0.074054	0.046116	1.05	-0.21	-0.42	0.401	0.0135	-0.2787	
-1.0126	0.074176	0.044042	0.07	-0.35	-0.42	0.3882	0.0092	-0.2742	
-1.014308	0.069052	0.040992	0	-0.49	-0.14	0.3953	0.0137	-0.2679	
-1.013088	0.0732	0.041358	0.7	-0.21	0	0.3854	0.0078	-0.268	
-1.011258	0.07259	0.041114	-0.07	-0.14	0.07	0.3923	0.0215	-0.2663	
-1.006866	0.070028	0.040748	-0.35	-0.21	0.14	0.3924	0.0153	-0.2741	
-1.009672	0.072346	0.044408	0	0.42	0.14	0.3924	0.0168	-0.271	
-1.01016	0.07076	0.04514	-0.21	0.21	0	0.3939	0.0153	-0.2679	
-1.011502	0.069052	0.046238	-0.91	0.14	0.07	0.3911	0.0123	-0.271	
-1.012966	0.069784	0.045628	-0.7	0.07	0.07	0.3895	0.0199	-0.2787	
-1.012722	0.069052	0.047092	-0.28	0.14	0	0.3982	0.0122	-0.2633	
-1.009794	0.069296	0.044896	-0.07	0.14	0.07	0.3953	0.0153	-0.2695	
-1.01199	0.068198	0.040626	-0.14	0.28	0.07	0.4022	0.0243	-0.2755	
-1.011258	0.071858	0.042822	-0.14	0.42	-0.07	0.3996	0.0153	-0.2571	
-1.011258	0.066246	0.042212	-0.49	0.42	-0.14	0.3882	0.0123	-0.2695	
-1.01321	0.066246	0.04026	-0.42	0.35	0.07	0.3925	0.0122	-0.2788	
-1.011258	0.070028	0.04087	-0.07	0.28	-0.07	0.391	0.0138	-0.2664	
-1.012112	0.067466	0.040016	-0.7	0.35	-0.07	0.3953	0.0168	-0.2725	
-1.011868	0.070028	0.039894	-0.49	0.07	0	0.3881	0.0169	-0.2695	
-1.012112	0.06954	0.040138	0.07	-0.14	0	0.3911	0.0123	-0.268	
-1.01321	0.069418	0.040138	0.28	-0.21	-0.07	0.3953	0.0168	-0.271	
-1.013942	0.069662	0.040138	0.49	-0.35	-0.07	0.3968	0.0122	-0.2679	
-1.011868	0.068442	0.04331	0.7	-0.7	0	0.3969	0.0076	-0.2664	
-1.011502	0.070516	0.043676	0.84	-0.77	0.07	0.3939	0.0169	-0.2586	
-1.011258	0.071858	0.043676	0.77	-0.56	0.14	0.3926	0.0076	-0.2695	
-1.01077	0.071004	0.045628	0.35	-0.35	0.14	0.3967	0.0183	-0.2679	
-1.010282	0.070882	0.044652	0.07	-0.28	0.14	0.3954	0.0092	-0.2618	
-1.010648	0.068564	0.045018	-0.28	-0.35	0.07	0.3952	0.0199	-0.2694	
-1.011014	0.067588	0.044896	-0.42	-0.14	0.07	0.391	0.0138	-0.2679	
-1.012966	0.065148	0.04392	-0.56	0.07	0.14	0.3938	0.0183	-0.2741	
-1.011868	0.067466	0.04453	0	-0.14	0.07	0.3953	0.0137	-0.271	
-1.012844	0.068442	0.04453	0.07	-0.28	0.14	0.4025	0.0121	-0.2664	
-1.011258	0.070882	0.0427	0.49	-0.49	0.21	0.3981	0.0183	-0.2663	
-1.01138	0.07076	0.043188	0	-0.28	0.35	0.3896	0.0153	-0.2788	
-1.01077	0.068564	0.042822	-0.21	-0.28	0.35	0.3939	0.0138	-0.2679	
-1.009916	0.069784	0.044652	-0.35	-0.28	0.35	0.4038	0.0197	-0.2709	
-1.01443	0.068808	0.042944	-0.7	0	0.28	0.3967	0.0168	-0.2663	
-1.012112	0.07515199	0.04514	-0.56	-0.63	0.28	0.4041	-0.0002	-0.2727	
-1.007964	0.07198	0.04453	0.35	-0.28	0.21	0.4009	0.0182	-0.2725	
-1.011502	0.068076	0.045018	-0.21	-0.28	0	0.3926	0.006	-0.2788	
-1.013332	0.064416	0.045384	-0.21	-0.49	0.07	0.391	0.0138	-0.2726	
-1.011746	0.06466	0.045994	0.77	-0.77	0.21	0.3911	0.0092	-0.2649	
-1.011502	0.072224	0.045872	1.47	-0.56	0.21	0.4039	0.0135	-0.2756	
-1.012478	0.072468	0.04514	0.63	-0.56	0.07	0.4011	0.0075	-0.2664	
-1.008818	0.069418	0.045384	0.42	-0.56	0.14	0.3954	0.0122	-0.2649	
-1.00955	0.070638	0.04758	0.7	-0.28	0.07	0.3968	0.0106	-0.268	
-1.010526	0.071736	0.047824	0.84	-0.42	0	0.3981	0.0167	-0.2694	
-1.01138	0.072102	0.048068	0.77	-0.63	0	0.3982	0.0121	-0.2695	
-1.011624	0.069784	0.049044	0.56	-0.49	0.07	0.3968	0.009099999	-0.2726	
-1.010892	0.07137	0.048678	0.7	-0.21	0.21	0.3953	0.0122	-0.2695	
-1.009672	0.07137	0.047092	0.91	-0.07	0.21	0.3953	0.0169	-0.2586	
-1.011868	0.07015	0.045994	0.98	0.21	0.28	0.3911	0.0076	-0.2726	
-1.011014	0.073078	0.0488	1.12	0.14	0.14	0.3881	0.017	-0.2664	
-1.01138	0.066856	0.048068	0.63	0.07	0.14	0.3969	0.0076	-0.2664	
-1.013332	0.067588	0.045018	1.12	-0.21	0.35	0.3981	0.0152	-0.2664	
-1.013454	0.07076	0.044652	1.54	-0.21	0.14	0.3925	0.009099999	-0.2757	
-1.012722	0.06832	0.04453	1.26	-0.49	0	0.391	0.0153	-0.2757	
-1.01138	0.069784	0.045262	1.89	-0.49	0.07	0.3924	0.02	-0.2571	
-1.010404	0.070028	0.045994	2.52	-0.35	0	0.401	0.0136	-0.2741	
-1.011746	0.066002	0.047458	1.89	-0.21	0.07	0.3896	0.0139	-0.2618	
-1.012722	0.06527	0.045872	1.96	-0.14	0.07	0.391	0.0152	-0.2803	
-1.009672	0.06771	0.04697	3.01	-0.42	0.07	0.3954	0.0106	-0.271	
-1.011502	0.071736	0.048312	3.78	-0.42	0.07	0.3955	0.0045	-0.2711	
-1.012112	0.072834	0.046604	3.92	-0.28	0.14	0.3881	0.0216	-0.2648	
-1.011746	0.070638	0.047824	3.92	-0.35	0.14	0.3967	0.0152	-0.2741	
-1.01016	0.069418	0.04697	3.85	-0.21	0.07	0.4025	0.0121	-0.2679	
-1.010648	0.07076	0.04758	5.67	0.84	0.21	0.3882	0.0108	-0.2664	
-1.01138	0.071736	0.044896	4.41	0.49	0.21	0.4052	0.0165	-0.2818	
-1.012478	0.071858	0.044774	4.55	0	0.28	0.4025	0.0121	-0.2617	
-1.01199	0.068198	0.046848	4.27	-0.21	0.21	0.3939	0.0122	-0.2726	
-1.01077	0.07015	0.045506	4.2	-0.14	0.35	0.3996	0.0136	-0.2756	
-1.006744	0.075884	0.043798	3.78	0	0.14	0.3882	0.0107	-0.2742	
-1.011014	0.072468	0.045506	2.1	0.14	0.28	0.3955	0.0045	-0.2711	
-1.011136	0.074298	0.041846	1.68	-0.14	0.28	0.3911	0.0092	-0.2695	
-1.011868	0.070516	0.04575	1.54	-0.14	0.28	0.4027	0	-0.2619	
-1.01199	0.068442	0.049166	2.45	0.35	0.28	0.3955	0.0045	-0.2696	
-1.014796	0.070394	0.041358	1.96	-0.21	0.28	0.3911	0.0076	-0.2726	
-1.011624	0.07515199	0.050386	3.43	-0.14	0.21	0.3925	0.0138	-0.271	
-1.007964	0.069296	0.046726	3.99	0.7	0.14	0.3999	0	-0.2572	
-1.012478	0.067954	0.041846	2.1	0.42	0.14	0.3912	0.0031	-0.2696	
-1.016504	0.066978	0.043676	0.77	-0.42	0.21	0.3941	0.0015	-0.2711	
-1.012966	0.066368	0.043676	1.33	-0.84	0.35	0.3969	0.006	-0.268	
-1.012844	0.071614	0.04758	2.66	-0.42	0.42	0.3898	0.0078	-0.2541	
-1.011868	0.074664	0.046726	2.94	-0.07	0.35	0.3983	0.0045	-0.2603	
-1.006378	0.07442	0.04514	2.24	-0.77	0.21	0.3912	0.0077	-0.2618	
-1.006012	0.073322	0.050386	2.52	-0.42	0.14	0.3883	0.0077	-0.2665	
-1.01199	0.070638	0.050264	2.52	0	0.07	0.3898	0.0062	-0.2618	
-1.011868	0.070272	0.0488	3.29	-0.35	0	0.4011	0.009099999	-0.2602	
-1.011136	0.07503	0.045872	3.78	-0.21	0.07	0.3954	0.0077	-0.2618	
-1.0126	0.076982	0.046116	3.43	0.35	0.07	0.3898	0.0031	-0.2696	
-1.01077	0.07124799	0.04392	3.36	-0.07	0.14	0.3982	0.0105	-0.2772	
-1.011258	0.071736	0.042944	3.15	-0.28	0.14	0.4041	0.0013	-0.2649	
-1.006988	0.077104	0.047946	3.43	-0.35	-0.21	0.3827	-0.0013	-0.2727	
-1.014186	0.070882	0.044408	2.31	0.49	-0.14	0.3968	0.0107	-0.2602	
-1.014308	0.071858	0.043676	1.61	0.07	-0.21	0.3856	0.0001	-0.2727	
-1.015406	0.070638	0.043676	1.26	0.21	-0.49	0.3984	0	-0.2665	
-1.011624	0.07076	0.040504	1.26	-0.28	-0.42	0.4011	0.0106	-0.2695	
-1.009916	0.071736	0.043188	1.4	-0.28	-0.28	0.3941	0.0046	-0.2665	
-1.010648	0.07124799	0.045384	1.4	-0.21	-0.21	0.3969	0.0045	-0.268	
-1.011258	0.069174	0.04575	1.12	-0.28	-0.07	0.4027	-0.0017	-0.2696	
-1.012356	0.067832	0.046482	0.84	-0.28	-0.07	0.3983	0.0045	-0.2665	
-1.01077	0.069174	0.044774	0.7	-0.63	-0.21	0.3898	0.0046	-0.268	
-1.010892	0.073444	0.046604	1.19	-0.21	-0.14	0.3969	0.0061	-0.2634	
-1.010038	0.070638	0.046482	0.56	0	-0.07	0.3941	0.0031	-0.2634	
-1.010282	0.069296	0.048068	0.42	-0.07	-0.07	0.3855	0.0032	-0.2696	
-1.01077	0.070516	0.047092	0.42	-0.07	0	0.3956	-0.0015	-0.2634	
-1.011258	0.071492	0.048556	0.42	0.07	0.07	0.3971	-0.0077	-0.2681	
-1.010892	0.071858	0.046726	0.35	-0.14	0.14	0.3968	0.009	-0.2757	
-1.012722	0.073566	0.045628	0.56	0	0.14	0.3998	0.0028	-0.2757	
-1.011258	0.072956	0.046604	0.07	-0.28	0.14	0.3955	0.0029	-0.2742	
-1.011624	0.072224	0.045384	-0.14	-0.28	0.07	0.3882	0.0138	-0.271	
-1.010526	0.072834	0.04575	-0.28	-0.28	0	0.3856	-0.0013	-0.2619	
-1.01138	0.071004	0.045262	-0.28	0	0.07	0.3899	-0.0014	-0.265	
-1.011136	0.071004	0.04636	-0.49	0	-0.07	0.3985	-0.0046	-0.2665	
-1.011502	0.071126	0.046238	-0.98	0.35	-0.14	0.3869	0.0077	-0.2696	
-1.011502	0.076738	0.048312	-1.19	0.07	-0.21	0.3969	-0.0001	-0.2773	
-1.007476	0.076982	0.046604	-0.91	0.28	-0.07	0.3912	0.0061	-0.2711	
-1.013576	0.064782	0.042944	-2.87	0.21	0.07	0.3913	0	-0.2727	
-1.012112	0.06893	0.047092	-2.8	-0.42	-0.07	0.3926	0.0061	-0.2696	
-1.01199	0.066368	0.049654	-2.38	0.14	0.14	0.3941	0.0031	-0.2634	
-1.010404	0.067222	0.047214	-1.89	0.07	0.35	0.3926	0.003	-0.2742	
-1.011014	0.071858	0.047336	-1.75	0.63	0.35	0.3968	0.0105	-0.2788	
-1.009916	0.072224	0.05002	-2.59	0.56	0.21	0.394	0.006	-0.2726	
-1.007842	0.070028	0.049898	-2.38	0.7	0.14	0.3898	0.0031	-0.2696	
-1.00894	0.069662	0.050386	-2.52	0.84	0.07	0.3998	0.003	-0.2634	
-1.012234	0.068686	0.048922	-2.52	0.77	-0.07	0.3911	0.0139	-0.2587	
-1.010038	0.067222	0.04941	-2.8	0.49	-0.07	0.3883	0.0061	-0.2773	
-1.010892	0.069784	0.047702	-1.75	1.05	0	0.4011	0.0106	-0.2664	
-1.011868	0.07076	0.045262	-1.61	1.33	0.14	0.3884	0	-0.2758	
-1.012966	0.066002	0.041968	-2.03	1.19	0.21	0.3912	0.0093	-0.2556	
-1.01077	0.074664	0.045384	-1.82	0.7	0.07	0.3912	0.0062	-0.2618	
-1.009916	0.068198	0.041358	-2.24	1.19	0.28	0.3997	0.0075	-0.2695	
-1.013332	0.068076	0.042822	-3.01	1.12	0.42	0.4039	0.012	-0.2695	
-1.013332	0.068564	0.040382	-3.01	0.84	0.28	0.3911	0.0124	-0.2571	
-1.013576	0.070272	0.03965	-2.66	0.49	0.28	0.3927	-0.0015	-0.2696	
-1.011624	0.07259	0.040626	-1.54	0.35	0.28	0.3953	0.0122	-0.2664	
-1.010282	0.07076	0.04148	-1.54	0.42	0.28	0.3941	0.0015	-0.268	
-1.011624	0.068808	0.042822	-1.61	0.49	0.28	0.3969	0.0045	-0.2711	
-1.013576	0.069296	0.04209	-1.82	0.35	0.21	0.3982	0.0107	-0.2633	
-1.011136	0.071126	0.042578	-0.98	0.07	0.14	0.3968	0.0122	-0.2648	
-1.010526	0.070394	0.041114	-1.12	0.42	0.07	0.3897	0.0061	-0.2711	
-1.010282	0.070516	0.04026	-1.68	0.63	0	0.3982	0.0137	-0.2664	
-1.013454	0.06954	0.041358	-1.33	0.63	0	0.3954	0.0076	-0.2726	
-1.013454	0.07015	0.041846	-1.12	0.35	-0.07	0.3939	0.0138	-0.2679	
-1.012722	0.069784	0.041968	-0.91	0.07	-0.07	0.3983	0.0076	-0.2587	
-1.013088	0.069418	0.04026	-0.91	-0.14	-0.07	0.3923	0.0215	-0.2663	
-1.011136	0.069418	0.037454	-0.21	-0.21	-0.07	0.3926	0.0076	-0.2726	
-1.014796	0.070882	0.038674	-0.21	-0.14	-0.07	0.3912	0.0047	-0.2588	
-1.012844	0.070028	0.038674	0.49	-0.7	0	0.3896	0.017	-0.2556	
-1.012234	0.07124799	0.039894	0.63	-0.7	0.14	0.3968	0.0106	-0.2726	
-1.011502	0.071492	0.040992	0.42	-0.63	0.28	0.3982	0.009	-0.2726	
-1.012112	0.069662	0.03965	-0.42	-0.7	0.21	0.3867	0.017	-0.2664	
-1.00955	0.070028	0.039284	-0.28	-0.98	0.28	0.4011	0.0076	-0.2618	
-1.017846	0.06893	0.03721	-0.77	-0.77	0.14	0.3939	0.0107	-0.2695	
-1.015894	0.07015	0.039284	-0.35	-1.47	0	0.3925	0.0123	-0.2664	
-1.014186	0.07137	0.035624	0.63	-1.19	-0.07	0.3982	0.0106	-0.2679	
-1.02175	0.070028	0.03904	-0.21	-1.12	-0.28	0.3881	0.0169	-0.2679	
-1.011746	0.06771	0.03965	-0.07	-1.96	-0.21	0.3897	0.0077	-0.2695	
-1.01016	0.062464	0.038918	-0.63	-1.4	0.14	0.4039	0.0121	-0.2664	
-1.01504	0.07076	0.037942	0.07	-2.1	0.21	0.3909	0.02	-0.2663	
-1.015894	0.07198	0.041846	-0.63	-2.17	0.28	0.3996	0.0152	-0.2725	
-1.014186	0.069418	0.046116	-0.84	-2.31	0.42	0.3981	0.0136	-0.2772	
-1.009062	0.07076	0.049532	0.28	-3.01	0.35	0.3925	0.0107	-0.2741	
-1.007232	0.069784	0.045628	0.42	-3.15	0.21	0.3955	0.0061	-0.2603	
-1.006378	0.071858	0.037942	0.49	-3.22	0.07	0.3896	0.0138	-0.2741	
-1.023092	0.077592	0.040504	-0.63	-2.24	-0.14	0.4023	0.0228	-0.2725	
-1.019066	0.073078	0.04758	-0.77	-3.36	-0.42	0.3983	0.006	-0.268	
-1.010526	0.069418	0.04636	-1.4	-4.2	-0.42	0.3982	0.0122	-0.2679	
-1.007842	0.071614	0.045262	0.63	-4.27	-0.49	0.3938	0.0168	-0.2741	
-1.009062	0.07198	0.05002	0.07	-3.71	-0.63	0.3925	0.0107	-0.2695	
-1.00772	0.062708	0.046238	-1.47	-3.92	-0.56	0.3925	0.0123	-0.2618	
-1.01931	0.066978	0.043066	-1.26	-3.85	-0.42	0.3896	0.0107	-0.2772	
-1.028826	0.069052	0.043676	-2.1	-4.62	-0.35	0.3884	0.0031	-0.2696	
-1.022238	0.073444	0.045872	-0.56	-6.44	-0.07	0.3952	0.0183	-0.271	
-1.022238	0.071004	0.050874	-0.14	-7.35	0	0.3924	0.0168	-0.2725	
-1.015772	0.071614	0.052948	1.68	-8.33	-0.21	0.3882	0.0138	-0.2788	
-1.01321	0.070638	0.059048	1.47	-8.75	-0.28	0.3953	0.0137	-0.2772	
-0.99979	0.064416	0.061488	1.26	-9.8	-0.49	0.3853	0.0154	-0.2741	
-1.0065	0.060756	0.059902	0.21	-9.1	-0.7	0.3781	0.0155	-0.2772	
-1.023702	0.064538	0.057218	-0.35	-9.03	-0.77	0.3953	0.0168	-0.2664	
-1.031388	0.06893	0.055998	0.7	-9.03	-1.12	0.3839	0.0122	-0.2865	
-1.03029	0.070516	0.062342	1.4	-10.64	-1.26	0.388	0.0199	-0.2833	
-1.019798	0.068564	0.069662	1.47	-11.55	-1.12	0.3769	0.0047	-0.282	
-0.99979	0.06893	0.068076	3.08	-12.88	-1.05	0.3796	0.009099999	-0.2989	
-1.004914	0.067222	0.07869	1.12	-11.34	-0.98	0.3853	0.0137	-0.2927	
-1.016138	0.063806	0.081618	-1.05	-11.62	-1.12	0.381	0.0154	-0.2865	
-1.0126	0.065636	0.081496	-1.26	-12.95	-1.19	0.3766	0.0169	-0.2973	
-1.01809	0.06527	0.087962	-1.47	-14	-1.05	0.3796	0.0107	-0.3005	
-1.015406	0.061854	0.084546	-0.98	-16.24	-0.84	0.3753	0.009099999	-0.3098	
-1.015528	0.063196	0.080276	0.98	-16.31	-0.77	0.3739	0.0123	-0.2958	
-1.020774	0.071492	0.077958	1.47	-16.52	-0.7	0.3765	0.0261	-0.2941	
-1.026874	0.07259	0.077836	0.35	-17.71	-0.56	0.3666	0.0185	-0.3082	
-1.024312	0.076738	0.07442	-2.31	-20.58	-0.77	0.3796	0.0074	-0.3159	
-1.02541	0.070638	0.10187	-2.1	-23.03	-0.84	0.3766	0.0183	-0.3081	
-1.024068	0.071492	0.110898	-2.59	-24.29	-1.33	0.3738	0.0121	-0.3175	
-1.013332	0.065514	0.115534	-3.43	-27.16	-2.1	0.3666	0.0153	-0.3252	
-0.99918	0.06466	0.128222	-3.78	-30.59	-2.66	0.3652	0.017	-0.3113	
-0.993202	0.05856	0.135542	-4.69	-31.99	-2.94	0.3622	0.023	-0.3282	
-0.992104	0.052582	0.138348	-2.73	-32.34	-3.01	0.3522	0.0263	-0.3236	
-1.013698	0.062098	0.157624	-2.45	-32.27	-3.5	0.355	0.0246	-0.3344	
-1.024312	0.071614	0.174216	-3.92	-34.09	-4.83	0.3466	0.0156	-0.333	
-1.013332	0.072346	0.177998	-5.74	-36.54	-5.74	0.3523	0.0169	-0.3407	
-0.996618	0.05978	0.206424	-4.34	-39.69	-5.74	0.3407	0.0232	-0.3468	
-0.976976	0.048434	0.223016	-3.57	-40.25	-5.39	0.335	0.028	-0.3344	
-0.963434	0.038552	0.241926	-2.03	-40.74	-5.25	0.3221	0.0297	-0.3437	
-0.95709	0.029768	0.269498	-2.52	-41.44	-5.32	0.3278	0.0248	-0.3623	
-0.958188	0.037454	0.263276	-6.16	-40.74	-5.74	0.325	0.0265	-0.3577	
-0.959286	0.03782	0.288042	-5.39	-45.43	-6.09	0.3176	0.0356	-0.3777	
-0.94855	0.032452	0.299022	-6.51	-47.6	-6.02	0.3192	0.0249	-0.3732	
-0.937814	0.044286	0.316834	-2.59	-49.98	-5.88	0.3077	0.0311	-0.3871	
-0.92598	0.040626	0.333426	-2.52	-52.57	-5.88	0.2961	0.0421	-0.3808	
-0.92537	0.04148	0.340014	-4.9	-53.2	-6.37	0.2962	0.0343	-0.3979	
-0.915366	0.026962	0.339404	-7.63	-52.57	-6.58	0.2791	0.0378	-0.3886	
-0.900482	0.019276	0.364414	-6.3	-56.98	-6.93	0.2747	0.0424	-0.3994	
-0.898286	0.007808	0.405894	-4.34	-56.49	-7.14	0.2705	0.0362	-0.4088	
-0.903654	0.005246	0.425658	-6.93	-58.38	-7.35	0.259	0.0364	-0.415	
-0.894138	-0.008784	0.421998	-11.69	-59.71	-7.42	0.2576	0.0348	-0.4227	
-0.873276	-0.021716	0.436394	-11.83	-60.41	-7.77	0.2474	0.0456	-0.4335	
-0.861442	-0.02074	0.462014	-6.02	-57.89	-7.91	0.2474	0.0473	-0.4165	
-0.850706	-0.016226	0.477508	-4.76	-57.05	-8.47	0.2304	0.0399	-0.4243	
-0.832772	-0.01769	0.52277	-2.66	-56.49	-7.7	0.2173	0.0522	-0.4474	
-0.823622	-0.010736	0.525088	-0.56	-56.77	-6.79	0.2146	0.0445	-0.4475	
-0.811422	-0.020496	0.556076	-0.49	-58.03	-6.44	0.2116	0.0538	-0.4459	
-0.798368	-0.023546	0.576572	-0.35	-57.61	-6.51	0.196	0.0478	-0.463	
-0.778604	-0.01586	0.58438	-0.42	-58.24	-6.93	0.1887	0.0572	-0.4552	
-0.745298	-0.019276	0.621102	-2.38	-60.2	-6.79	0.186	0.0449	-0.46	
-0.716994	-0.043432	0.642696	-1.68	-58.8	-6.79	0.1672	0.0636	-0.4676	
-0.70699	-0.042456	0.66124	1.54	-56.21	-7.49	0.1631	0.0483	-0.4786	
-0.707112	-0.03233	0.685152	1.61	-54.53	-7.14	0.1532	0.0485	-0.4709	
-0.692594	-0.031354	0.701744	2.31	-54.53	-6.51	0.1502	0.0516	-0.4801	
-0.673562	-0.052704	0.72529	1.82	-54.04	-6.3	0.1301	0.0596	-0.4816	
-0.659288	-0.059414	0.747982	4.27	-52.43	-6.51	0.136	0.0486	-0.491	
-0.654652	-0.046116	0.75579	4.34	-50.61	-6.37	0.1231	0.0551	-0.4817	
-0.636474	-0.036844	0.753594	3.15	-49.35	-5.81	0.1075	0.0461	-0.4896	
-0.621224	-0.030744	0.77958	-0.35	-51.45	-5.11	0.1046	0.0507	-0.4926	
-0.595726	-0.029646	0.796538	2.1	-50.19	-4.27	0.1045	0.0569	-0.4879	
-0.579744	-0.02562	0.791048	1.12	-46.9	-3.64	0.0903	0.0494	-0.5004	
-0.569252	-0.033184	0.805322	-0.56	-45.01	-3.71	0.079	0.0466	-0.4928	
-0.554856	-0.05978	0.821914	-2.38	-41.58	-3.64	0.0746	0.0544	-0.4896	
-0.548268	-0.073444	0.849242	-2.31	-40.46	-3.36	0.0704	0.0484	-0.4835	
-0.540338	-0.064294	0.860832	-0.63	-37.66	-3.15	0.0576	0.0485	-0.4974	
-0.530212	-0.045506	0.87291	-0.35	-35.28	-2.8	0.0519	0.047	-0.5006	
-0.518866	-0.053802	0.870348	-0.07	-31.71	-2.24	0.0405	0.0472	-0.4975	
-0.510936	-0.07137	0.884988	0.49	-28.84	-1.61	0.0374	0.0581	-0.4959	
-0.504592	-0.07076	0.891576	2.31	-24.92	-0.98	0.0174	0.0615	-0.4913	
-0.497516	-0.066002	0.89792	1.82	-22.47	-1.12	0.0361	0.0534	-0.5083	
-0.495198	-0.058926	0.895968	2.1	-19.46	-0.91	0.0319	0.0489	-0.5037	
-0.493978	-0.059658	0.899262	1.47	-16.94	-0.49	0.029	0.0489	-0.5037	
-0.489952	-0.05856	0.909388	2.03	-14.7	0.21	0.0247	0.0506	-0.4975	
-0.480802	-0.055876	0.910486	2.31	-12.74	0.7	0.0189	0.0537	-0.5068	
-0.470676	-0.056974	0.91744	1.61	-9.94	1.19	0.0203	0.0568	-0.4975	
-0.466894	-0.052338	0.931104	3.01	-6.86	1.47	0.0147	0.0554	-0.5022	
-0.468724	-0.052704	0.917074	3.15	-3.15	1.75	0.0148	0.043	-0.5085	
-0.466772	-0.056486	0.933178	1.05	-1.89	2.03	0.0191	0.0429	-0.5069	
-0.462502	-0.053802	0.937448	2.24	1.54	2.17	0.0134	0.0493	-0.4945	
-0.462258	-0.04941	0.938668	2.66	4.48	2.31	0.0205	0.0475	-0.5084	
-0.464698	-0.050752	0.942328	1.89	8.96	2.59	0.0205	0.0444	-0.51	
-0.46299	-0.047092	0.951844	2.66	11.69	2.52	0.0274	0.0597	-0.5052	
-0.465796	-0.047336	0.95892	1.96	14.21	2.31	0.0162	0.0493	-0.4945	
-0.46665	-0.056242	0.954162	1.75	17.57	2.24	0.0334	0.0443	-0.5007	
-0.462868	-0.045384	0.937326	4.69	23.31	2.31	0.0305	0.0458	-0.5068	
-0.457622	-0.041114	0.925492	4.41	27.23	2.38	0.0405	0.0488	-0.4944	
-0.45567	-0.039284	0.91988	0.63	30.38	2.17	0.0419	0.0488	-0.4959	
-0.463234	-0.034892	0.904142	1.96	35.49	2.03	0.0376	0.0457	-0.5006	
-0.473604	-0.040626	0.89731	1.26	39.62	1.82	0.049	0.0454	-0.513	
-0.49349	-0.0427	0.890966	1.68	43.19	1.61	0.0562	0.0455	-0.4944	
-0.498858	-0.051362	0.890356	1.75	45.85	1.82	0.0591	0.0439	-0.4882	
-0.521184	-0.031476	0.86132	2.03	49.77	1.96	0.0704	0.0483	-0.4897	
-0.530212	-0.032818	0.846436	2.03	53.27	2.52	0.0764	0.0298	-0.4929	
-0.540338	-0.036112	0.823866	0.21	56.07	2.94	0.0862	0.045	-0.4897	
-0.5551	-0.024888	0.808006	-0.35	58.87	3.08	0.0975	0.0526	-0.4756	
-0.5673	-0.022692	0.804224	-0.77	61.53	2.94	0.0961	0.0463	-0.4881	
-0.602192	-0.016836	0.765916	3.99	67.9	2.73	0.1146	0.0507	-0.4802	
-0.607804	-0.013908	0.71553	-2.31	69.23	2.66	0.1233	0.0428	-0.4849	
-0.645258	-0.023302	0.71919	-1.4	72.38	2.66	0.1432	0.0503	-0.4631	
-0.664534	-0.019154	0.681736	1.33	76.02	2.66	0.1546	0.0501	-0.4677	
-0.690276	-0.042212	0.672342	-3.36	77.28	2.94	0.1718	0.0421	-0.4662	
-0.698816	-0.051606	0.630008	-4.69	79.8	3.64	0.1819	0.0357	-0.4693	
-0.71187	-0.045994	0.60512	-3.78	80.71	4.13	0.1918	0.0433	-0.4553	
-0.743224	-0.039284	0.584136	-2.24	83.23	4.76	0.1988	0.054	-0.4506	
-0.76616	-0.031964	0.531432	-4.27	84.14	5.74	0.2189	0.0476	-0.4397	
-0.78568	-0.03416	0.492758	-7.84	83.16	6.93	0.2346	0.0427	-0.4428	
-0.790194	-0.023668	0.472872	3.92	84.56	6.93	0.2431	0.0503	-0.4288	
-0.788974	-0.01708	0.432734	4.97	86.1	6.23	0.2446	0.0426	-0.4289	
-0.816424	-0.005612	0.390766	3.71	88.2	6.86	0.2546	0.0441	-0.4211	
-0.886452	0.008784	0.375638	-0.49	82.88	8.05	0.2703	0.0455	-0.404	
-0.89365	0.004758	0.367586	2.38	80.15	9.45	0.2817	0.0484	-0.3932	
-0.88633	0.01769	0.332572	9.52	83.09	10.15	0.2847	0.0391	-0.3994	
-0.890844	0.022326	0.285724	5.74	85.89	10.5	0.2961	0.0421	-0.3854	
-0.919636	0.02867	0.269742	0.7	83.93	10.92	0.309	0.0389	-0.37	
-0.945744	0.034648	0.252418	2.52	81.48	10.92	0.3147	0.0434	-0.3684	
-0.947086	0.03843	0.222772	5.53	81.62	10.22	0.3306	0.031	-0.3592	
-0.935984	0.060146	0.156526	3.99	83.93	10.08	0.3461	0.0415	-0.3497	
-0.939888	0.060024	0.110898	3.92	84.49	10.57	0.3407	0.0295	-0.3282	
-0.966118	0.06039	0.084668	5.32	85.4	10.92	0.365	0.0262	-0.3127	
-1.006134	0.068686	0.075518	13.79	85.47	10.92	0.375	0.0323	-0.2895	
-1.02602	0.078202	0.024644	11.69	82.25	9.87	0.3752	0.0169	-0.2973	
-1.02419	0.074664	-0.0061	10.78	76.79	7.63	0.3837	0.0245	-0.288	
-0.97661	0.063806	-0.024034	9.24	68.53	6.09	0.3882	0.0123	-0.2726	
-0.972706	0.052826	-0.046604	14.42	71.05	5.88	0.4038	0.0166	-0.2725	
-1.002474	0.060268	-0.076006	15.82	69.65	5.74	0.4052	0.0214	-0.2539	
-1.037854	0.066002	-0.111264	8.61	59.78	5.04	0.3996	0.0169	-0.2447	
-1.049322	0.059536	-0.117852	6.58	53.06	4.34	0.4097	0.0122	-0.2447	
-1.01565	0.036966	-0.116632	9.1	47.67	3.99	0.4111	0.0154	-0.2277	
-0.99247	0.02074	-0.114436	7.77	41.72	3.22	0.411	0.0199	-0.2307	
-1.005402	0.03477	-0.135786	13.37	46.13	2.94	0.4155	0.0061	-0.2216	
-1.027484	0.051118	-0.147986	13.37	42.28	2.45	0.4297	0.0152	-0.2106	
-1.019676	0.073444	-0.151158	10.22	37.38	1.96	0.4271	0.003	-0.203	
-0.98637	0.079422	-0.154574	10.22	36.68	1.54	0.4326	0.0122	-0.1983	
-0.968314	0.048434	-0.171044	4.9	29.54	1.05	0.4383	0.0105	-0.206	
-1.002352	0.034648	-0.16958	5.6	35.21	0.21	0.4329	-0.0031	-0.1969	
-1.024068	0.064172	-0.199958	7.77	35.56	0.21	0.4398	0.009099999	-0.189	
-1.006378	0.072224	-0.224968	9.31	33.88	0.14	0.4271	0.0047	-0.1906	
-0.99857	0.055144	-0.243024	-1.47	28.84	-0.14	0.4414	0.0014	-0.1813	
-0.983198	0.065026	-0.200446	13.44	35.63	0.7	0.4315	-0.0013	-0.1752	
-0.992226	0.068198	-0.229482	11.27	40.18	2.17	0.4415	-0.0014	-0.1675	
-1.008208	0.066612	-0.275842	4.76	31.5	1.47	0.4373	-0.0027	-0.152	
-1.019676	0.079178	-0.291458	0.07	32.62	1.68	0.4415	0.0016	-0.1628	
-0.985028	0.091378	-0.274988	-1.4	25.62	2.03	0.4486	0.0047	-0.1473	
-0.99735	0.101992	-0.29158	1.75	27.02	3.22	0.4443	0.0063	-0.1442	
-1.035048	0.061488	-0.297802	-13.02	20.65	4.06	0.4402	-0.0028	-0.1505	
-1.060424	0.068564	-0.323422	0.56	28.28	5.18	0.4587	-0.003	-0.1381	
-1.046638	0.0549	-0.340502	4.97	19.6	4.97	0.4516	-0.0028	-0.1319	
-1.030168	0.076982	-0.350994	5.88	18.9	5.18	0.4459	-0.0012	-0.1365	
-1.02297	0.066734	-0.336476	-2.45	12.53	4.55	0.4502	-0.0043	-0.1335	
-1.016382	0.068076	-0.329278	-2.94	5.88	4.55	0.446	-0.0042	-0.1273	
-1.007842	0.080032	-0.322446	1.26	3.5	4.62	0.4488	-0.0043	-0.1304	
-0.987346	0.0793	-0.363682	1.61	5.74	4.48	0.4531	-0.0027	-0.118	
-0.954162	0.073078	-0.340136	8.19	5.46	3.08	0.4502	-0.0043	-0.1242	
-0.983076	0.084668	-0.345626	8.68	8.61	2.38	0.4504	-0.0166	-0.1351	
-1.010038	0.099064	-0.377346	2.87	0.49	2.1	0.4475	-0.0072	-0.118	
-1.01992	0.121146	-0.382714	-0.98	-8.4	1.82	0.4418	-0.0102	-0.1243	
-1.012966	0.117486	-0.37942	5.39	-3.85	2.31	0.4533	-0.0135	-0.1212	
-0.99186	0.105774	-0.350506	6.79	0.42	2.45	0.4573	-0.0029	-0.1272	
-0.967704	0.09357399	-0.347578	2.8	-1.26	1.54	0.4474	-0.0058	-0.1258	
-0.976488	0.09211	-0.33977	1.82	1.47	0.14	0.446	-0.0042	-0.1273	
-1.003816	0.089304	-0.349774	0.63	-2.03	0.21	0.4432	-0.0118	-0.1274	
-1.000156	0.102724	-0.378566	2.1	-8.75	0.98	0.4561	-0.0167	-0.1305	
-0.985882	0.122732	-0.359168	2.45	-13.02	1.54	0.4532	-0.0104	-0.1242	
-0.980392	0.116876	-0.340258	3.01	-11.13	1.05	0.4432	-0.0134	-0.132	
-1.038098	0.113094	-0.34709	-0.21	-7.91	0.42	0.4474	-0.0105	-0.1413	
-1.057862	0.10248	-0.388448	-1.33	-12.88	-0.35	0.4474	-0.0089	-0.1397	
-1.022116	0.091134	-0.386984	-4.27	-23.87	-1.82	0.4403	-0.0104	-0.1444	
-0.97478	0.09821	-0.318664	0	-24.22	-2.52	0.4488	-0.006	-0.1458	
-0.934764	0.061122	-0.271694	-4.62	-24.85	-2.17	0.4475	-0.0136	-0.1444	
-0.962336	0.062952	-0.260226	-3.22	-19.32	-2.59	0.4417	-0.0105	-0.1521	
-1.03761	0.105286	-0.31659	-2.38	-17.15	-2.8	0.4501	0.0016	-0.1473	
-1.03334	0.087108	-0.308904	-5.18	-21.98	-2.8	0.4487	-0.0061	-0.1628	
-1.033706	0.065026	-0.283284	-3.5	-23.45	-3.01	0.4387	-0.0059	-0.1629	
-1.013942	0.056486	-0.29707	-9.03	-27.58	-3.64	0.4486	-0.0031	-0.1736	
-1.03151	0.07686	-0.257054	-1.33	-30.17	-3.64	0.44	0.0046	-0.1705	
-1.048468	0.07198	-0.259128	-8.19	-34.51	-4.2	0.4414	0.0046	-0.172	
-1.041514	0.084424	-0.251076	-0.77	-29.68	-3.92	0.43	0.0001	-0.1799	
-1.0431	0.085766	-0.238022	-0.84	-38.01	-3.64	0.4399	0.0076	-0.1751	
-1.025532	0.07747	-0.233142	-0.7	-36.75	-2.8	0.4272	-0.0013	-0.1876	
-1.032364	0.075396	-0.226066	-4.34	-39.2	-2.87	0.4371	0	-0.1876	
-1.020774	0.059658	-0.203984	-11.48	-44.52	-2.59	0.427	0.0061	-0.2061	
-1.028948	0.063318	-0.198982	-9.24	-42.98	-2.52	0.4285	0.0014	-0.2108	
-1.03822	0.060756	-0.196298	-12.67	-48.86	-3.22	0.4297	0.0137	-0.2029	
-1.020164	0.051972	-0.178364	-12.53	-54.32	-3.08	0.4227	0.006	-0.2169	
-1.021994	0.060634	-0.16104	-10.85	-56.35	-3.43	0.4184	0.0029	-0.2293	
-1.016138	0.07442	-0.139324	-8.96	-59.71	-3.36	0.4155	0.0076	-0.2277	
-1.012478	0.052338	-0.10553	-1.61	-55.58	-2.66	0.3997	0.0123	-0.2447	
-1.002596	0.052216	-0.082594	3.92	-53.27	-3.01	0.4054	0.0075	-0.2602	
-0.98515	0.058316	-0.07015	-0.56	-56.42	-3.71	0.3938	0.0216	-0.2555	
-0.984052	0.071004	-0.04697	-8.26	-62.79	-3.92	0.3882	0.0108	-0.2711	
-0.99857	0.047946	-0.02013	-13.65	-66.64	-3.5	0.3895	0.0168	-0.2803	
-0.982832	0.02806	0.033672	-7.77	-71.33	-2.8	0.378	0.0231	-0.2849	
-0.974414	0.016348	0.051606	-4.34	-69.93	-3.08	0.3723	0.0169	-0.3035	
-0.980392	0.019886	0.074786	-7.63	-73.08	-4.2	0.3681	0.0139	-0.3097	
-0.976122	0.030256	0.107482	-11.69	-78.82	-4.62	0.3609	0.0201	-0.3097	
-0.967338	0.032574	0.127978	-9.59	-81.34	-4.27	0.3579	0.0215	-0.336	
-0.98576	0.03233	0.153842	-5.81	-79.8	-3.99	0.3436	0.0217	-0.3407	
-0.98332	0.0305	0.15921	-6.58	-81.69	-4.62	0.3508	0.0184	-0.3484	
-0.97783	0.031964	0.224358	-4.41	-87.64	-6.16	0.3279	0.025	-0.35	
-0.973804	0.052094	0.288286	-0.28	-91.14	-5.81	0.3135	0.0281	-0.367	
-0.932324	0.049044	0.30073	4.62	-87.85	-4.48	0.3122	0.0188	-0.3825	
-0.86742	0.040626	0.319274	3.15	-87.43	-4.83	0.3078	0.0265	-0.3886	
-0.826916	0.030744	0.362462	1.47	-84.84	-5.88	0.2949	0.0252	-0.3902	
-0.80764	0.03233	0.40199	1.33	-82.53	-6.93	0.2748	0.0316	-0.4042	
-0.808494	0.046726	0.438102	-0.49	-81.41	-6.79	0.2704	0.0377	-0.4149	
-0.7991	0.043066	0.467382	-0.49	-78.61	-6.93	0.2621	0.0256	-0.4135	
-0.793976	0.02867	0.503494	1.47	-74.13	-7.35	0.2435	0.0243	-0.4244	
-0.787388	0.043554	0.5246	-1.54	-76.51	-7	0.2292	0.0243	-0.4446	
-0.770918	0.047702	0.536678	-4.41	-77.56	-6.44	0.2191	0.0307	-0.4399	
-0.735538	0.03599	0.586088	-6.09	-80.71	-6.79	0.2019	0.034	-0.4507	
-0.716018	0.021594	0.620736	-4.48	-79.59	-7.28	0.2007	0.0248	-0.457	
-0.690642	0.009516	0.61915	-10.92	-82.88	-7.21	0.1834	0.0312	-0.457	
-0.65575	-0.003172	0.635864	-5.32	-75.74	-7.07	0.1746	0.0436	-0.4662	
-0.639768	-0.005734	0.684176	1.54	-71.12	-6.37	0.1633	0.036	-0.4725	
-0.616832	-0.020984	0.710162	-2.24	-70.63	-5.67	0.1577	0.0331	-0.4694	
-0.60695	-0.025254	0.715652	-7.21	-70.63	-5.81	0.152	0.0331	-0.4787	
-0.604388	-0.025254	0.74298	-7.63	-70.91	-6.16	0.1348	0.0349	-0.4896	
-0.605974	-0.028548	0.770308	-10.29	-70.28	-6.37	0.1161	0.046	-0.4818	
-0.587308	-0.03904	0.79361	-11.62	-69.09	-6.44	0.1103	0.0492	-0.4803	
-0.564982	-0.059902	0.832284	-11.06	-65.8	-6.65	0.1046	0.0477	-0.4896	
-0.553026	-0.06283	0.8601	-8.12	-59.57	-6.51	0.0889	0.0542	-0.4803	
-0.535092	-0.061976	0.869372	-4.55	-52.99	-5.88	0.0792	0.0374	-0.4897	
-0.523502	-0.06649	0.864126	-0.77	-46.27	-4.97	0.07319999	0.0466	-0.5082	
-0.505324	-0.06734399	0.883768	0.56	-41.86	-4.27	0.0576	0.0454	-0.4959	
-0.491416	-0.063928	0.90524	3.64	-35.28	-3.78	0.0604	0.0484	-0.499	
-0.489952	-0.070028	0.914024	1.47	-31.71	-3.85	0.0476	0.047	-0.5052	
-0.485682	-0.060878	0.904386	2.1	-26.88	-3.71	0.0447	0.0503	-0.4959	
-0.472506	-0.05368	0.90097	2.24	-22.54	-3.29	0.0318	0.0535	-0.4975	
-0.46665	-0.055266	0.91195	-1.19	-20.65	-2.87	0.0347	0.0473	-0.5053	
-0.462746	-0.05978	0.93696	-0.56	-18.34	-2.31	0.0318	0.0536	-0.4913	
-0.462868	-0.048922	0.929762	2.1	-14.07	-1.68	0.0333	0.0458	-0.5053	
-0.46116	-0.055876	0.94672	1.05	-12.18	-1.96	0.0319	0.0442	-0.5068	
-0.458476	-0.073322	0.975512	3.01	-9.24	-1.96	0.0247	0.049	-0.5037	
-0.449082	-0.053192	0.971486	5.04	-5.74	-0.77	0.022	0.0429	-0.5038	
-0.434564	-0.042822	0.978318	1.4	-3.01	0.14	0.029	0.052	-0.5068	
-0.430538	-0.044286	0.987834	0.35	2.17	0.63	0.022	0.046	-0.4991	
-0.422364	-0.049044	0.976488	0.91	8.47	0.84	0.026	0.0567	-0.5021	
-0.425902	-0.055266	0.970876	-1.4	12.95	0.77	0.0305	0.0458	-0.5053	
-0.43066	-0.055266	0.960384	-1.68	17.71	1.47	0.0305	0.0489	-0.5006	
-0.432002	-0.057584	0.942572	-0.14	22.54	2.59	0.0305	0.0443	-0.5007	
-0.431636	-0.056364	0.935496	0.28	27.09	3.43	0.0375	0.0501	-0.5222	
-0.440542	-0.056242	0.930738	-0.35	31.5	3.57	0.0432	0.0548	-0.5005	
-0.456158	-0.04636	0.92049	0.07	38.22	3.15	0.059	0.0483	-0.5083	
-0.473238	-0.042212	0.900482	-0.42	42.7	3.01	0.0562	0.0439	-0.4929	
-0.48617	-0.043676	0.898774	-0.91	46.55	3.29	0.0589	0.0546	-0.4989	
-0.508252	-0.042334	0.884744	-0.49	51.66	3.71	0.0718	0.0483	-0.4881	
-0.52399	-0.040382	0.860344	-2.38	55.72	3.78	0.07759999	0.0435	-0.5021	
-0.53863	-0.052338	0.8479	-3.29	59.29	4.06	0.0876	0.0418	-0.4959	
-0.555344	-0.048068	0.814838	-2.59	64.61	3.85	0.0932	0.051	-0.4834	
-0.577792	-0.038064	0.80154	-1.61	67.48	3.99	0.1089	0.0523	-0.4802	
-0.598532	-0.03782	0.773724	-5.11	71.19	4.62	0.1217	0.052	-0.4833	
-0.61244	-0.039284	0.756034	-1.96	74.48	4.69	0.1302	0.0534	-0.4894	
-0.625982	-0.05429	0.72346	-4.27	77.91	4.97	0.1445	0.0532	-0.4739	
-0.649406	-0.057462	0.6893	-4.55	81.76	5.46	0.1558	0.0592	-0.4692	
-0.670024	-0.035868	0.641598	-5.53	84.07	5.81	0.1559	0.0546	-0.4708	
-0.69967	-0.038552	0.61366	-13.16	85.05	6.58	0.1744	0.0589	-0.463	
-0.71553	-0.030378	0.58804	-6.09	88.48	6.37	0.1844	0.0557	-0.4568	
-0.722972	-0.03782	0.560712	-3.5	89.53	6.93	0.1944	0.0571	-0.4552	
-0.745786	-0.056486	0.521306	-8.47	90.72	8.54	0.2073	0.0523	-0.4536	
-0.769698	-0.049532	0.47031	-7.56	90.65	9.73	0.2203	0.0445	-0.4429	
-0.816912	-0.033916	0.432124	-5.25	90.02	11.27	0.2545	0.0549	-0.4133	
-0.84363	-0.02074	0.413824	-4.34	87.64	11.97	0.2729	0.0608	-0.4054	
-0.866566	-0.021106	0.391132	1.96	88.34	12.6	0.2774	0.0499	-0.404	
-0.887916	-0.023302	0.350872	5.46	88.9	13.3	0.2914	0.062	-0.4038	
-0.913048	-0.024644	0.31232	9.59	88.97	14.42	0.2902	0.0545	-0.3838	
-0.920612	-0.005124	0.283772	10.22	85.61	15.12	0.3075	0.0451	-0.3699	
-0.923662	0.005978	0.23729	15.47	85.12	15.12	0.3132	0.0466	-0.3622	
-0.93879	0.044286	0.193004	18.69	86.59	15.05	0.3347	0.0401	-0.3637	
-0.970876	0.071858	0.157746	18.2	87.71	14.49	0.339	0.0432	-0.3436	
-1.004182	0.097356	0.128222	12.39	84.84	12.95	0.3435	0.0293	-0.3437	
-1.006378	0.08662	0.083936	8.19	82.18	11.2	0.3534	0.0339	-0.3282	
-1.009428	0.068808	0.079178	10.92	80.15	8.89	0.3637	0.0169	-0.3175	
-0.99735	0.064172	0.032818	12.18	77.7	7.77	0.3638	0.0154	-0.3159	
-0.991616	0.065026	-0.002806	12.04	74.06	6.86	0.3794	0.0214	-0.3065	
-0.991616	0.052826	0.003782	10.64	66.71	6.44	0.3836	0.0292	-0.2833	
-0.984906	0.06649	-0.014152	15.19	65.94	6.16	0.3851	0.0214	-0.2911	
-0.98759	0.058072	-0.02989	8.96	58.52	5.04	0.3924	0.0169	-0.2695	
-1.00406	0.060512	-0.041236	1.89	48.02	4.13	0.3939	0.0154	-0.2617	
-1.01992	0.042822	-0.069418	2.24	41.72	3.22	0.4081	0.0167	-0.2601	
-1.017846	0.048434	-0.070638	5.53	39.76	2.8	0.411	0.0167	-0.2478	
-1.020286	0.057706	-0.093452	7.07	39.48	2.66	0.3995	0.0216	-0.2447	
-1.037122	0.054534	-0.107604	8.26	38.36	2.03	0.4069	0.0077	-0.2339	
-1.021506	0.055266	-0.127124	12.95	39.83	1.19	0.4226	0.0121	-0.2292	
-1.012722	0.069784	-0.13908	13.58	35.07	0.42	0.4183	0.009	-0.2324	
-0.999546	0.061366	-0.125782	13.09	34.58	0.91	0.4227	0.0076	-0.2169	
-1.010038	0.056242	-0.152866	8.4	38.78	0.91	0.4284	0.009099999	-0.2107	
-0.994178	0.060268	-0.159576	8.05	32.62	0.84	0.4298	0.0044	-0.2169	
-0.988566	0.052216	-0.157014	4.62	32.69	1.12	0.4312	0.0075	-0.2122	
-0.996984	0.053558	-0.169824	3.57	34.37	1.54	0.4228	0.0031	-0.1999	
-1.010282	0.06039	-0.190442	1.96	34.72	2.17	0.4328	0.0045	-0.1983	
-1.026508	0.066002	-0.213866	2.24	34.37	2.8	0.4329	-0.0015	-0.1984	
-1.026996	0.065148	-0.222284	0.28	34.58	2.59	0.4442	0.0059	-0.189	
-1.025898	0.058194	-0.243024	-11.2	29.33	2.73	0.4357	0.0062	-0.169	
-1.026264	0.073932	-0.204594	14.28	30.45	3.29	0.434	0.0169	-0.1843	
-1.045906	0.055632	-0.257298	8.4	32.2	3.64	0.43	0.0048	-0.169	
-1.06079	0.072224	-0.294386	11.76	33.95	3.43	0.4414	0.0015	-0.1736	
-1.071404	0.09467199	-0.283406	-0.28	16.52	2.59	0.4429	0.0001	-0.1535	
-1.05042	0.08601	-0.274744	0.35	14.7	3.01	0.4401	-0.0014	-0.1675	
-1.039928	0.07625	-0.301096	3.99	15.61	2.94	0.4472	0	-0.1628	
-1.051518	0.07015	-0.312442	3.43	12.39	2.45	0.4342	0.0095	-0.1488	
-1.021994	0.070882	-0.290604	3.85	8.4	2.1	0.4428	0.0047	-0.1597	
-0.990152	0.080886	-0.289994	3.57	6.02	2.94	0.4374	-0.0074	-0.1598	
-0.961726	0.101504	-0.288042	4.62	6.37	3.15	0.4386	0.0033	-0.1504	
-0.971608	0.084058	-0.286212	1.96	6.65	2.94	0.4473	-0.0014	-0.1489	
-0.98515	0.072956	-0.299632	0.35	7.84	2.03	0.4387	0.0003	-0.1458	
-0.997838	0.063562	-0.309758	1.82	9.45	1.12	0.4487	-0.003	-0.1597	
-1.028338	0.085522	-0.325618	3.29	9.52	0.77	0.4529	0	-0.1473	
-1.033096	0.12566	-0.31781	4.97	4.06	0.84	0.4445	-0.0044	-0.1489	
-1.037366	0.131638	-0.314882	3.71	2.24	1.47	0.4501	0	-0.152	
-1.037122	0.09272	-0.332328	0.07	-1.19	1.26	0.4473	-0.0029	-0.1443	
-1.057496	0.052582	-0.324398	-1.68	-3.99	0.28	0.4459	-0.0044	-0.1474	
-1.0553	0.05917	-0.325008	-1.19	-12.53	0.42	0.4488	-0.0076	-0.1536	
-1.041148	0.085034	-0.315614	0.91	-15.96	0.35	0.4431	-0.0075	-0.1552	
-1.020774	0.101138	-0.303536	3.15	-18.41	-0.07	0.4445	-0.0075	-0.1551	
-0.991494	0.088206	-0.285724	0.7	-20.16	0.14	0.4429	0.0032	-0.1489	
-0.996008	0.064904	-0.277916	-1.19	-19.11	-0.42	0.4428	0.0093	-0.1565	
-1.018212	0.072956	-0.27694	-0.91	-18.97	-1.05	0.4344	-0.006	-0.1737	
-1.02541	0.092354	-0.282918	-0.7	-19.88	-1.26	0.4415	-0.0014	-0.1675	
-1.042124	0.103944	-0.281942	-0.14	-22.75	-0.84	0.4472	0.0031	-0.1597	
-1.039074	0.076738	-0.27328	-1.05	-24.5	-0.77	0.4445	-0.0076	-0.1691	
-1.043466	0.047092	-0.263398	-0.21	-24.43	-1.4	0.4344	-0.0044	-0.1752	
-1.028948	0.04819	-0.259128	-1.61	-27.86	-1.75	0.4344	-0.0029	-0.1799	
-1.029436	0.07503	-0.24156	-2.38	-35.77	-1.96	0.4357	-0.0001	-0.1968	
-1.042734	0.088084	-0.203252	-1.61	-37.94	-1.89	0.44	0	-0.186	
-1.044808	0.088938	-0.210328	-0.35	-35.14	-1.05	0.4314	-0.0001	-0.2061	
-1.062864	0.07869	-0.224602	-4.34	-39.27	-1.54	0.4301	-0.0062	-0.2077	
-1.059326	0.068076	-0.182268	-7.77	-45.71	-2.38	0.4242	0.0061	-0.2045	
-1.050786	0.080276	-0.17751	-3.64	-46.13	-2.66	0.4169	0.0092	-0.2215	
-1.046028	0.085522	-0.16226	-1.54	-47.18	-2.03	0.4242	-0.0001	-0.2278	
-1.034194	0.074176	-0.153842	-1.4	-46.34	-2.1	0.4227	0.0013	-0.2309	
-1.022116	0.063562	-0.14396	-2.87	-49.84	-2.59	0.4099	-0.0015	-0.2371	
-1.01565	0.056974	-0.12993	-7.56	-55.65	-2.73	0.4156	0.0013	-0.2463	
-1.02236	0.066612	-0.105652	-8.33	-58.24	-1.96	0.4141	-0.0002	-0.2572	
-1.008452	0.073444	-0.084058	-1.96	-56.49	-0.84	0.3927	0.0031	-0.2572	
-1.000888	0.076494	-0.074664	-1.82	-54.11	0.28	0.4011	0.0059	-0.2742	
-1.001742	0.07381	-0.060146	-3.64	-51.66	1.26	0.3983	0.0044	-0.2773	
-1.0004	0.066246	-0.038064	-9.66	-57.33	0.98	0.3826	0.0031	-0.2789	
-0.987956	0.060024	0.0061	-10.5	-59.85	0	0.3781	0.0154	-0.285	
-0.965142	0.060268	0.03111	-7.63	-61.88	-0.7	0.3781	0.0153	-0.2942	
-0.954894	0.049776	0.045994	-8.19	-65.38	-1.54	0.3767	0.0138	-0.3035	
-0.956968	0.02318	0.079178	-13.51	-68.46	-3.01	0.3754	0.0061	-0.3036	
-0.962702	0.019764	0.127734	-14.84	-71.33	-4.2	0.3609	0.0154	-0.3206	
-0.971974	0.035624	0.18117	-7.98	-74.48	-5.04	0.361	0.0062	-0.3268	
-0.977342	0.05307	0.227164	-4.76	-76.16	-6.02	0.3352	0.0141	-0.3469	
-0.962336	0.057828	0.257054	-5.81	-77.42	-6.44	0.3379	0.0185	-0.3623	
-0.930616	0.059048	0.294508	-5.53	-80.5	-5.6	0.3164	0.0235	-0.3686	
-0.890356	0.049532	0.315736	-4.06	-80.29	-3.64	0.3164	0.0234	-0.3732	
-0.859734	0.037576	0.335134	-2.94	-78.26	-2.52	0.3079	0.0173	-0.3918	
-0.840946	0.031476	0.354166	-2.1	-75.53	-2.59	0.2935	0.0236	-0.3995	
-0.852536	0.025498	0.376492	-2.1	-74.27	-3.36	0.2864	0.0206	-0.4011	
-0.85461	0.014762	0.397842	-3.64	-75.95	-4.97	0.2735	0.0269	-0.4104	
-0.844972	0.014396	0.423706	-3.15	-78.75	-6.37	0.2621	0.0255	-0.4228	
-0.83387	0.023546	0.472628	-1.68	-81.83	-7.63	0.2635	0.0255	-0.4197	
-0.809592	0.035258	0.510082	-2.17	-83.72	-7.91	0.2334	0.0336	-0.4321	
-0.790316	0.041602	0.525332	-4.13	-84.14	-6.58	0.2391	0.0288	-0.4414	
-0.756522	0.039162	0.557174	-4.55	-82.88	-5.46	0.2191	0.0323	-0.4399	
-0.749568	0.029036	0.576572	-7.21	-81.34	-5.53	0.2121	0.0215	-0.4539	
-0.723704	0.022082	0.609268	-9.1	-79.94	-6.51	0.1949	0.0249	-0.457	
-0.709918	-0.009028	0.61061	-9.38	-75.18	-7	0.1878	0.0264	-0.4663	
-0.704306	-0.021594	0.651724	-2.38	-68.04	-7.21	0.1819	0.0389	-0.4616	
-0.689056	-0.016714	0.674294	-2.59	-68.18	-6.93	0.1719	0.036	-0.4601	
-0.67222	-0.016836	0.6954	-8.61	-71.89	-7.07	0.1562	0.0392	-0.4771	
-0.64599	-0.007686	0.715286	-4.13	-68.88	-6.65	0.1519	0.0362	-0.4741	
-0.632936	-0.013664	0.72529	-3.92	-66.57	-5.74	0.1449	0.0301	-0.4819	
-0.61854	-0.020008	0.740418	-4.69	-65.31	-5.25	0.1148	0.0383	-0.4927	
-0.599508	-0.019276	0.761524	-4.27	-64.12	-5.25	0.1034	0.037	-0.485	
-0.573522	-0.019154	0.775798	-2.24	-60.34	-4.9	0.092	0.034	-0.499	
-0.561322	-0.01769	0.815448	-2.31	-57.96	-4.55	0.0891	0.0387	-0.4928	
-0.531066	-0.020984	0.832894	10.36	-49.42	-3.85	0.08199999	0.0389	-0.4866	
-0.521672	-0.02745	0.854488	3.15	-49.21	-3.71	0.0749	0.0359	-0.499	
-0.505446	-0.010126	0.86376	1.82	-45.22	-3.57	0.0691	0.0406	-0.4944	
-0.501054	-0.015494	0.891088	2.45	-41.93	-3.57	0.0619	0.0406	-0.5068	
-0.484218	-0.036234	0.913292	-1.19	-39.48	-3.64	0.0548	0.0439	-0.5021	
-0.47031	-0.044164	0.917928	-0.77	-35.42	-2.94	0.0463	0.041	-0.4945	
-0.452376	-0.045262	0.930494	1.4	-30.8	-2.1	0.0407	0.0303	-0.5054	
-0.447252	-0.051728	0.942206	2.03	-26.25	-1.47	0.0319	0.0459	-0.4945	
-0.449936	-0.043676	0.937082	0.35	-22.54	-0.77	0.0377	0.0396	-0.4976	
-0.4331	-0.054656	0.968558	-0.91	-20.37	-0.84	0.0264	0.0383	-0.493	
-0.426024	-0.047214	0.969656	2.1	-14.63	-0.35	0.032	0.0443	-0.496	
-0.423462	-0.042822	0.970022	2.94	-9.31	-0.14	0.0192	0.0399	-0.5069	
-0.43249	-0.036966	0.9699	3.01	-4.9	0.21	0.0191	0.0445	-0.5038	
-0.431636	-0.034648	0.964776	2.59	-0.63	0.56	0.0265	0.0305	-0.5101	
-0.42395	-0.031476	0.963922	1.61	3.22	0.84	0.0277	0.0412	-0.5084	
-0.426878	-0.031964	0.966606	0.35	7.7	1.05	0.0206	0.0398	-0.5085	
-0.433832	-0.031964	0.967216	0.21	12.04	1.26	0.0221	0.0352	-0.51	
-0.438956	-0.031476	0.961726	0	16.66	1.61	0.0321	0.0366	-0.4992	
-0.446276	-0.033428	0.950014	-0.56	23.1	1.89	0.0307	0.0367	-0.5007	
-0.456036	-0.0366	0.947696	-1.68	27.09	1.96	0.0405	0.0426	-0.4991	
-0.459574	-0.037942	0.941596	-1.4	31.36	2.17	0.042	0.0412	-0.4898	
-0.460428	-0.03782	0.933544	-0.63	35.84	2.66	0.0306	0.0382	-0.5038	
-0.476166	-0.034892	0.923174	0.35	40.95	3.01	0.0434	0.041	-0.5007	
-0.482022	-0.028914	0.90097	0.84	45.5	3.43	0.0535	0.0347	-0.496	
-0.490684	-0.023668	0.88145	0.42	49.7	3.64	0.0679	0.0283	-0.4991	
-0.510326	-0.018788	0.871568	1.82	54.04	3.29	0.0778	0.0327	-0.5037	
-0.522038	-0.022692	0.86254	1.12	57.68	3.22	0.08329999	0.0481	-0.485	
-0.53192	-0.02501	0.825208	0.63	62.51	3.43	0.0919	0.0418	-0.4881	
-0.549732	-0.018788	0.807518	-0.63	65.52	3.71	0.1006	0.0339	-0.4959	
-0.569984	-0.021472	0.802638	-2.24	68.04	3.92	0.1035	0.0339	-0.4851	
-0.58804	-0.010736	0.773114	0.98	73.22	4.2	0.1304	0.0411	-0.4834	
-0.607316	-0.011712	0.735294	0.42	76.65	4.34	0.1321	0.0273	-0.4773	
-0.63196	-0.00915	0.69479	-0.56	80.43	5.04	0.1505	0.0394	-0.4679	
-0.653066	-0.003538	0.671976	-1.33	81.76	5.53	0.1634	0.0298	-0.4864	
-0.66917	-0.005734	0.660996	-0.7	84	5.39	0.1678	0.0268	-0.4695	
-0.688446	0.00122	0.629032	0.7	87.92	5.6	0.1747	0.0405	-0.4616	
-0.71004	0.01098	0.583526	2.52	90.44	6.3	0.2019	0.037	-0.4615	
-0.733586	0.004514	0.543876	-2.8	93.8	6.58	0.2148	0.0323	-0.4461	
-0.772504	-0.019398	0.503982	-3.92	96.25	7.42	0.2277	0.0291	-0.4337	
-0.795196	-0.02928	0.470066	-0.98	96.11	7.63	0.2433	0.0349	-0.4382	
-0.819596	-0.019154	0.43188	4.2	95.97	7.56	0.2575	0.0425	-0.4149	
-0.838994	-0.005246	0.388814	4.97	95.27	7.84	0.269	0.0378	-0.4041	
-0.859612	0.009393999	0.363316	4.34	93.17	7.63	0.2848	0.036	-0.401	
-0.872422	0.004392	0.341966	4.34	91.7	7.07	0.2906	0.0314	-0.3917	
-0.87901	-0.001098	0.301218	2.59	91.42	7.21	0.3078	0.025	-0.3825	
-0.883646	0.012444	0.235582	3.57	93.1	7.49	0.3105	0.0343	-0.3747	
-0.911706	0.040382	0.190442	4.34	93.52	7.84	0.3176	0.0388	-0.3638	
-0.9699	0.049532	0.168116	0.98	91.63	7.14	0.3335	0.028	-0.3453	
-1.026508	0.058926	0.150182	0	85.33	6.16	0.3422	0.0233	-0.3391	
-1.025166	0.061488	0.111264	9.03	82.95	6.3	0.355	0.0261	-0.3344	
-0.976122	0.061122	0.07747	19.81	85.12	5.46	0.3608	0.02	-0.3205	
-0.987224	0.07625	0.03599	27.37	86.31	5.11	0.3651	0.02	-0.3112	
-0.995764	0.062098	-0.016836	16.73	82.04	3.78	0.3809	0.0183	-0.3066	
-0.984906	0.053314	-0.041602	15.61	73.92	2.94	0.3852	0.0183	-0.2957	
-0.983564	0.06527	-0.059536	12.18	69.51	2.66	0.3894	0.0229	-0.2833	
-1.00345	0.073444	-0.100772	10.85	58.38	2.66	0.4052	0.0165	-0.2771	
-1.027484	0.062098	-0.118462	10.5	58.17	2.24	0.3999	0.0015	-0.251	
-1.018822	0.064538	-0.134566	7.49	52.78	1.26	0.4026	0.0107	-0.2463	
-1.010282	0.072834	-0.130418	-3.36	43.54	1.12	0.4067	0.0215	-0.24	
-0.99857	0.078446	-0.108092	0.63	42.7	2.38	0.414	0.0121	-0.2432	
-1.0248	0.062586	-0.130052	-3.22	43.4	3.36	0.414	0.0106	-0.2416	
-1.040294	0.0366	-0.161772	-1.82	36.89	2.94	0.4182	0.0184	-0.2199	
-1.015284	0.03416	-0.168848	-1.05	35.56	2.31	0.4198	0.0108	-0.2107	
-0.996496	0.048678	-0.163968	5.04	33.53	1.75	0.4241	0.006	-0.2154	
-1.030534	0.055144	-0.171898	3.08	36.19	2.31	0.4298	0.009099999	-0.2029	
-1.02968	0.055022	-0.208498	6.86	38.15	2.24	0.4271	0.0015	-0.203	
-1.049932	0.059414	-0.207034	9.52	35.91	1.68	0.4398	0.0089	-0.2014	
-1.044076	0.053192	-0.229726	4.83	31.71	0.91	0.4327	0.0092	-0.1875	
-1.049322	0.085522	-0.245342	5.74	24.85	1.68	0.4383	0.0136	-0.1952	
-1.04249	0.054412	-0.227408	-1.4	19.67	1.47	0.4372	-0.0014	-0.1768	
-1.059326	0.050508	-0.247172	5.25	26.67	2.03	0.4356	0.0076	-0.189	
-1.049688	0.03965	-0.26779	8.96	24.08	1.68	0.4398	0.0138	-0.1735	
-1.033218	0.070638	-0.299754	0	19.67	1.96	0.4342	0.0078	-0.1736	
-1.03151	0.076616	-0.25498	0.14	15.82	2.73	0.4355	0.0139	-0.1673	
-1.031266	0.066002	-0.269742	6.86	14.98	2.8	0.4441	0.0138	-0.1689	
-1.02724	0.062952	-0.280112	5.25	14.84	3.01	0.4458	-0.0045	-0.1628	
-1.020042	0.074786	-0.270108	4.27	14.42	3.29	0.4357	0.0032	-0.1705	
-0.997472	0.084668	-0.273524	7.14	12.11	3.43	0.4385	0.0063	-0.1612	
-1.004548	0.07869	-0.284626	4.41	12.81	3.01	0.443	-0.006	-0.1598	
-1.021872	0.080032	-0.29158	4.76	15.19	2.66	0.4458	0	-0.1643	
-1.027362	0.078202	-0.305854	2.87	12.6	2.31	0.443	-0.0013	-0.1566	
-1.028338	0.084546	-0.305	3.01	11.06	2.1	0.4558	-0.0031	-0.1551	
-1.020896	0.085644	-0.31415	0.84	7.7	1.54	0.4457	0.0078	-0.1488	
-1.019798	0.080154	-0.305976	-0.98	5.18	1.26	0.4417	-0.009	-0.1521	
-1.026264	0.067466	-0.30805	-2.38	1.19	0.7	0.4429	0.0016	-0.1597	
-1.033706	0.06771	-0.303902	0.07	-1.12	0.49	0.4458	0.0032	-0.1504	
-1.020286	0.074542	-0.297192	1.61	-4.97	0.49	0.4501	0	-0.1473	
-1.017968	0.089792	-0.293654	2.52	-6.51	0.63	0.4444	-0.0013	-0.152	
-1.0187	0.086376	-0.288042	1.54	-7.21	0.56	0.4501	-0.003	-0.152	
-1.014796	0.074176	-0.28975	0.49	-8.82	0.07	0.4415	-0.0014	-0.1597	
-1.016382	0.073688	-0.280356	-2.94	-13.02	-0.7	0.4445	-0.009099999	-0.1598	
-1.017114	0.080764	-0.271328	-2.73	-13.09	-1.12	0.4502	-0.0061	-0.1567	
-1.014674	0.082594	-0.26535	-1.05	-14.14	-1.54	0.4427	0.0124	-0.1503	
-1.013942	0.077592	-0.257664	-1.96	-15.82	-1.89	0.4415	-0.0014	-0.1597	
-1.01748	0.063684	-0.247172	-0.63	-17.71	-2.31	0.4273	-0.0042	-0.1644	
-1.02846	0.058926	-0.250954	-0.7	-20.09	-2.52	0.4416	-0.006	-0.1675	
-1.022726	0.072346	-0.241072	-0.21	-22.68	-2.59	0.4457	0	-0.1705	
-1.03151	0.077714	-0.227896	-2.03	-25.41	-2.52	0.4442	0.0044	-0.1813	
-1.04249	0.087474	-0.223138	-1.61	-25.41	-2.66	0.4414	0	-0.1829	
-1.023702	0.079666	-0.215208	-4.41	-29.68	-3.29	0.44	0	-0.1845	
-1.020408	0.066978	-0.182024	-3.15	-28.63	-3.71	0.43	0.0031	-0.186	
-1.01992	0.059048	-0.16836	2.8	-23.59	-3.85	0.4241	0.0093	-0.1906	
-1.017846	0.058194	-0.198494	0.7	-24.92	-3.5	0.427	0.0045	-0.2061	
-1.03151	0.061732	-0.183976	-6.02	-25.62	-2.87	0.4285	0.0029	-0.2092	
-1.045784	0.06734399	-0.154696	-5.88	-29.4	-3.22	0.4299	0.0061	-0.1968	
-1.02114	0.058194	-0.15189	-2.03	-27.3	-3.5	0.434	0.0136	-0.2029	
-1.011014	0.057706	-0.144082	1.4	-28.84	-3.99	0.4227	0.006	-0.2169	
-1.013698	0.054534	-0.1342	-1.26	-30.31	-4.83	0.4226	0.0122	-0.2184	
-1.009306	0.06649	-0.141398	1.47	-29.68	-5.46	0.4184	0.006	-0.2262	
-1.01321	0.076494	-0.098088	4.34	-27.51	-4.83	0.4283	0.012	-0.2199	
-1.010526	0.068808	-0.080276	4.48	-27.23	-4.2	0.4228	-0.0001	-0.2262	
-0.988566	0.057096	-0.070516	6.51	-25.97	-2.45	0.4183	0.0089	-0.2447	
-0.980514	0.061854	-0.06466	5.67	-25.2	-1.12	0.4226	0.0089	-0.2432	
-1.006134	0.052094	-0.072468	-0.21	-21.7	-0.21	0.4097	0.0107	-0.2339	
-1.007842	0.032574	-0.067954	-3.78	-22.82	-0.63	0.4068	0.0137	-0.2524	
-0.990274	0.033794	-0.047824	-1.89	-25.06	-1.33	0.4125	0.0121	-0.2463	
-0.992226	0.049532	-0.010126	-0.42	-23.38	-2.03	0.3983	0.009099999	-0.2633	
-0.989908	0.059536	0.00976	2.87	-22.75	-1.96	0.3998	0.0045	-0.2603	
-0.977098	0.059536	0.029646	6.65	-20.09	-1.47	0.4011	0.0138	-0.2555	
-0.977098	0.048068	0.048678	2.52	-18.9	-1.47	0.3939	0.0154	-0.254	
-0.991982	0.034282	0.05429	1.4	-19.74	-2.03	0.397	-0.0015	-0.2681	
-1.001254	0.027938	0.057462	3.92	-19.25	-3.01	0.4011	0.009	-0.271	
-1.000644	0.022448	0.067466	5.67	-18.83	-2.94	0.3982	0.0153	-0.2617	
-0.995886	0.020618	0.078446	9.52	-18.62	-2.52	0.3967	0.0153	-0.2617	
-0.984662	0.036356	0.094794	11.27	-19.32	-1.75	0.3895	0.0153	-0.2818	
-0.992226	0.042578	0.073932	6.44	-19.81	-1.54	0.3882	0.0123	-0.2711	
-0.994422	0.02806	0.07442	3.71	-18.62	-2.66	0.3854	0.0108	-0.2757	
-0.998936	0.034648	0.099918	3.92	-20.16	-4.13	0.3838	0.0169	-0.2834	
-0.997838	0.04636	0.120048	5.11	-18.69	-4.48	0.3712	0.0048	-0.2882	
-0.995032	0.050264	0.128954	8.47	-17.29	-4.34	0.3837	0.0199	-0.288	
-0.97417	0.02013	0.115168	3.5	-18.97	-4.55	0.3868	0.0092	-0.2804	
-0.965874	0.004514	0.125416	5.67	-17.78	-4.34	0.3795	0.0138	-0.2958	
-0.970022	0.003294	0.158356	6.86	-15.68	-4.06	0.3809	0.0152	-0.302	
-0.984662	0.017812	0.170068	3.29	-15.82	-4.2	0.3754	0.0062	-0.2974	
-0.99735	0.030622	0.17812	-1.4	-16.73	-4.13	0.3796	0.0107	-0.2943	
-0.978684	0.025376	0.17568	-2.52	-22.54	-3.36	0.3653	0.0093	-0.3098	
-0.967582	-0.000732	0.176656	-2.31	-18.34	-1.82	0.3709	0.02	-0.3004	
-0.96868	-0.02135	0.18422	-4.2	-16.03	-1.12	0.3665	0.0246	-0.3081	
-0.981246	-0.024522	0.20191	-3.43	-16.1	-0.84	0.365	0.0277	-0.3174	
-0.988444	-0.021472	0.224846	1.05	-14.07	-0.91	0.368	0.0184	-0.3143	
-0.996008	-0.011834	0.218746	2.8	-15.12	-0.56	0.3724	0.0138	-0.3113	
-0.981856	-0.020984	0.22082	2.66	-16.31	-0.49	0.3652	0.0138	-0.3206	
-0.974658	-0.024156	0.22204	6.37	-15.61	-0.7	0.3681	0.0122	-0.3206	
-0.96319	-0.01403	0.229116	9.87	-14.77	-1.05	0.3609	0.017	-0.3159	
-0.953308	-0.000732	0.232532	10.22	-14	-0.77	0.3552	0.0155	-0.3237	
-0.966606	0.008784	0.238998	5.46	-11.41	0.91	0.3596	0.0077	-0.3253	
-0.970144	0.017934	0.249978	4.2	-10.57	2.03	0.3567	0.0108	-0.3284	
-0.973682	0.010736	0.244854	-1.47	-7.98	2.87	0.3582	0.0062	-0.3284	
-0.974048	0.00671	0.240218	-3.57	-8.33	3.85	0.3595	0.0124	-0.3221	
-0.973926	-0.007929999	0.24827	-5.32	-7.21	5.32	0.3609	0.0123	-0.3283	
-0.97295	-0.015006	0.236436	-7.35	-7.21	7.28	0.3496	0.0126	-0.316	
-0.965386	-0.007686	0.247538	-4.62	-5.39	8.96	0.3524	0.014	-0.3222	
-0.970998	0.004758	0.24644	-4.34	-3.08	10.5	0.3481	0.011	-0.3299	
-0.974414	-0.005734	0.245708	-8.47	-1.19	11.69	0.3553	0.0077	-0.3315	
-0.970144	-0.010858	0.24095	-9.31	-0.21	13.3	0.3496	0.0094	-0.333	
-0.969534	-0.014274	0.240462	-8.47	2.1	15.19	0.3537	0.0169	-0.3376	
-0.973682	-0.017446	0.237534	-8.96	4.27	17.22	0.3483	-0.0012	-0.3285	
-0.975024	-0.022692	0.222528	-11.69	5.18	18.55	0.3437	0.0218	-0.3237	
-0.970632	-0.01281	0.22875	-8.26	5.32	20.16	0.3496	0.011	-0.3206	
-0.967704	-0.00854	0.229604	-9.1	6.72	21.98	0.3583	0	-0.3331	
-0.968314	-0.00061	0.217282	-9.45	7.28	23.38	0.3581	0.0155	-0.3175	
-0.963434	0.010126	0.217038	-6.86	7.63	25.41	0.3642	-0.009099999	-0.3223	
-0.968558	0.036966	0.215696	-3.57	10.22	27.23	0.3556	-0.0074	-0.3223	
-0.977464	0.057584	0.207644	-4.62	12.11	30.03	0.3613	-0.009	-0.3131	
-0.976244	0.057462	0.200568	-4.69	12.39	31.92	0.36	-0.0121	-0.3193	
-0.97905	0.068686	0.186904	-2.8	13.23	34.16	0.3472	-0.0165	-0.3271	
-0.981978	0.090524	0.183854	0.35	13.86	35.49	0.3687	-0.0244	-0.3101	
-0.984662	0.116022	0.166286	-1.4	14.84	35.21	0.3672	-0.0168	-0.3131	
-0.98576	0.124684	0.152256	-4.97	13.3	35	0.3687	-0.0245	-0.3147	
-0.986126	0.138592	0.163236	-2.17	12.81	35.28	0.3632	-0.0335	-0.3071	
-0.982832	0.14823	0.15616	1.33	14.21	35.91	0.3603	-0.0351	-0.3179	
-0.985394	0.16409	0.13603	3.5	14.35	35.84	0.3719	-0.0429	-0.3087	
-0.977098	0.17812	0.126392	4.27	12.88	35.56	0.3718	-0.0383	-0.3056	
-0.97661	0.195688	0.120048	6.37	12.25	34.86	0.365	-0.0566	-0.3089	
-0.963068	0.242902	0.11712	12.53	12.25	34.44	0.3765	-0.0613	-0.2965	
-1.003694	0.282674	0.104432	11.48	13.79	34.3	0.3696	-0.0719	-0.3013	
-1.003328	0.289506	0.082228	11.34	13.93	34.23	0.3694	-0.0628	-0.3058	
-0.987102	0.279502	0.081252	11.13	10.78	34.3	0.3656	-0.08549999	-0.2813	
-0.959042	0.276574	0.07442	11.69	8.33	34.51	0.3756	-0.092	-0.303	
-0.95404	0.298778	0.05795	16.24	10.36	34.3	0.3684	-0.0856	-0.2875	
-0.95953	0.319274	0.047702	18.06	11.83	33.88	0.3787	-0.1027	-0.2938	
-0.960262	0.3233	0.03538	13.65	8.89	33.32	0.373	-0.1057	-0.2954	
-0.983808	0.34892	0.053924	11.9	3.5	32.55	0.3688	-0.107	-0.28	
-0.968436	0.352092	0.052704	7.84	1.89	31.22	0.3718	-0.1148	-0.2862	
-0.9455	0.357338	0.058194	10.64	1.05	30.24	0.3761	-0.1195	-0.28	
-0.925736	0.366976	0.050508	16.73	1.61	28.98	0.3677	-0.1271	-0.2894	
-0.922198	0.393328	0.03477	18.41	3.36	28.21	0.3705	-0.1225	-0.2878	
-0.919758	0.411994	0.035502	15.05	0.49	27.37	0.3705	-0.1224	-0.2739	
-0.933666	0.427976	0.052826	15.26	1.47	26.11	0.3693	-0.1315	-0.2694	
-0.9455	0.437126	0.045262	15.68	0.49	25.2	0.3666	-0.1439	-0.2865	
-0.934032	0.452498	0.043676	14.84	-2.1	24.64	0.3693	-0.1377	-0.2756	
-0.922076	0.443104	0.037454	13.51	-5.67	24.85	0.361	-0.1498	-0.2773	
-0.90829	0.449692	0.03721	11.41	-6.23	23.03	0.3625	-0.1546	-0.2866	
-0.907192	0.474946	0.058072	14.49	-3.71	20.93	0.361	-0.1513	-0.2665	
-0.91012	0.496174	0.056852	15.68	-2.45	18.76	0.3569	-0.162	-0.2759	
-0.898042	0.5063	0.045628	15.19	-3.15	17.29	0.3654	-0.1607	-0.282	
-0.884866	0.503372	0.051484	13.16	-3.64	16.31	0.357	-0.1697	-0.2759	
-0.889502	0.51301	0.05734	13.44	-2.52	15.19	0.36	-0.1774	-0.2745	
-0.886818	0.51545	0.051606	11.62	-2.59	14.14	0.357	-0.1666	-0.2759	
-0.87535	0.528748	0.061244	7.35	-4.48	12.11	0.3501	-0.1772	-0.2652	
-0.89426	0.53497	0.079666	6.16	-3.57	10.15	0.3573	-0.1882	-0.2854	
-0.89975	0.54961	0.06954	4.83	-2.38	7.77	0.3544	-0.1804	-0.2791	
-0.902068	0.561566	0.061244	1.89	-2.24	5.46	0.3528	-0.1728	-0.2822	
-0.893528	0.547048	0.06649	1.4	-2.03	3.08	0.343	-0.1802	-0.2745	
-0.892796	0.529846	0.066124	1.26	-1.61	0.35	0.3517	-0.188	-0.2715	
-0.880352	0.523502	0.064538	0.84	-2.1	-2.87	0.3442	-0.1695	-0.2806	
-0.88084	0.533872	0.066002	1.61	-2.45	-5.81	0.3374	-0.1909	-0.2793	
-0.891576	0.522404	0.080032	-0.42	-1.33	-8.4	0.3445	-0.1848	-0.2761	
