Sensor string: B
Serial number: 1970-01-0000
Firmware version: 2,015
Hardware version: 2,2
Calibration quality: 5
ax	ay	az	gx	gy	gz	mx	my	mz

0.188246	-0.940864	0.280478	0.49	0.63	1.12	-0.1355	0.3017	-0.4336	Reference
0.186294	-0.945378	0.271206	0.28	0.56	1.05	-0.1355	0.308	-0.4226	
0.186172	-0.95282	0.270596	1.19	0.42	0.84	-0.137	0.3064	-0.4289	
0.18361	-0.94794	0.272182	2.03	0.07	0.77	-0.1325	0.2943	-0.4228	
0.176046	-0.948794	0.268034	2.38	0.49	1.12	-0.1312	0.3034	-0.4242	
0.172508	-0.955016	0.273158	2.17	0.21	1.47	-0.1412	0.3064	-0.4336	
0.173118	-0.943792	0.278892	2.87	-0.42	1.96	-0.1354	0.2942	-0.4291	
0.17751	-0.937448	0.284016	2.38	-1.68	2.38	-0.1298	0.3018	-0.4258	
0.177388	-0.941352	0.287066	1.96	-2.38	2.59	-0.1312	0.3018	-0.4274	
0.174948	-0.945866	0.282674	2.31	-2.59	3.01	-0.1339	0.2913	-0.4213	
0.17263	-0.946964	0.281576	2.94	-2.8	3.22	-0.1339	0.2897	-0.4244	
0.175436	-0.942206	0.283406	3.36	-2.66	3.36	-0.1326	0.2972	-0.4321	
0.18361	-0.945012	0.290116	2.94	-2.94	3.29	-0.1382	0.2913	-0.4213	
0.187514	-0.95343	0.283162	3.29	-2.17	3.08	-0.1311	0.2958	-0.4228	
0.180316	-0.95953	0.278892	4.13	-0.91	3.15	-0.1397	0.2973	-0.4306	
0.171044	-0.962702	0.276086	5.11	0.42	3.71	-0.1396	0.2805	-0.4324	
0.168604	-0.95831	0.277062	6.65	1.19	3.92	-0.1383	0.2989	-0.4228	
0.171288	-0.954162	0.28182	8.61	1.19	3.64	-0.1296	0.285	-0.4292	
0.173606	-0.956724	0.284626	10.5	1.05	3.08	-0.1368	0.2942	-0.4338	
0.163846	-0.951478	0.287066	12.74	1.4	2.45	-0.1283	0.2955	-0.4384	
0.165798	-0.952332	0.286456	13.3	1.19	2.17	-0.1341	0.3018	-0.4289	
0.16897	-0.951844	0.28731	15.26	1.26	1.68	-0.1355	0.3002	-0.4321	
0.171044	-0.949892	0.291336	17.5	0.98	1.75	-0.134	0.2879	-0.4417	
0.161162	-0.937692	0.292312	19.6	0.91	1.89	-0.1268	0.285	-0.4307	
0.163602	-0.9455	0.298656	19.39	0	1.96	-0.131	0.2787	-0.4465	
0.16348	-0.950014	0.300242	20.51	0.56	1.47	-0.1254	0.2831	-0.4511	
0.162504	-0.95221	0.302072	22.05	1.47	1.47	-0.1295	0.2727	-0.4403	
0.157014	-0.949892	0.305	24.36	2.8	0.98	-0.1339	0.2757	-0.4481	
0.154208	-0.940864	0.30988	25.76	3.15	0.91	-0.1211	0.2784	-0.459	
0.16043	-0.942938	0.319518	27.37	3.01	1.12	-0.1281	0.2694	-0.456	
0.156648	-0.938546	0.320494	29.96	2.24	1.12	-0.131	0.271	-0.4497	
0.15799	-0.9394	0.32574	31.29	2.66	1.75	-0.1336	0.2497	-0.4563	
0.156404	-0.94001	0.332206	33.46	2.87	0	-0.1323	0.2556	-0.4656	
0.151768	-0.929274	0.338306	35.49	3.36	1.12	-0.1323	0.2587	-0.4624	
0.154452	-0.925004	0.342942	37.17	3.5	1.05	-0.1208	0.2418	-0.4689	
0.155306	-0.926346	0.350994	39.97	4.34	0.77	-0.1193	0.231	-0.4785	
0.144204	-0.910608	0.36295	43.61	5.04	0.14	-0.1293	0.2356	-0.4816	
0.146644	-0.901946	0.374662	48.3	2.73	-0.63	-0.1222	0.2339	-0.4862	
0.154574	-0.903776	0.388692	53.2	-0.07	-1.75	-0.1249	0.2264	-0.4801	
0.153476	-0.902922	0.404796	58.73	0.77	-2.1	-0.1176	0.2097	-0.4788	
0.13481	-0.884134	0.41297	63.49	0.42	-3.36	-0.1333	0.2051	-0.4914	
0.132614	-0.868274	0.421144	67.97	-2.1	-4.83	-0.1276	0.2003	-0.5009	
0.14762	-0.842166	0.433344	72.03	-2.8	-3.99	-0.1276	0.2003	-0.5009	
0.148474	-0.804956	0.464332	77	-5.6	-4.55	-0.1273	0.1713	-0.5107	
0.148352	-0.821426	0.49288	80.43	-7.07	-5.67	-0.1245	0.1711	-0.5185	
0.149328	-0.777262	0.526552	84.14	-8.75	-6.02	-0.1258	0.1528	-0.5219	
0.19337	-0.723948	0.55388	85.68	-9.03	-4.9	-0.1314	0.1423	-0.5221	
0.197518	-0.680882	0.593652	83.93	-7.84	-4.97	-0.1356	0.13	-0.5348	
0.19337	-0.660264	0.621102	82.46	-7.56	-4.41	-0.1411	0.1163	-0.5382	
0.198372	-0.640012	0.65209	81.27	-7.56	-4.27	-0.1467	0.1026	-0.5416	
0.211182	-0.60817	0.673562	83.23	-5.88	-5.6	-0.138	0.0888	-0.5433	
0.220454	-0.59414	0.691496	81.48	-4.76	-5.53	-0.135	0.0737	-0.5373	
0.208864	-0.582672	0.695034	80.99	-3.01	-6.37	-0.135	0.0721	-0.5436	
0.20008	-0.566202	0.706136	79.52	-2.8	-7.63	-0.1405	0.0554	-0.5454	
0.19276	-0.54534	0.731756	80.22	-2.17	-8.47	-0.1418	0.034	-0.5504	
0.198616	-0.528382	0.745664	80.5	-1.54	-9.31	-0.1402	0.0219	-0.5459	
0.209718	-0.493124	0.759206	82.32	-0.91	-9.8	-0.1487	0.0173	-0.5539	
0.203374	-0.457988	0.76311	82.88	-0.7	-9.87	-0.1414	-0.0008	-0.551	
0.196054	-0.429806	0.78629	83.02	-1.96	-10.08	-0.1426	-0.0175	-0.5481	
0.20801	-0.393694	0.81313	84.14	-3.92	-10.92	-0.1496	-0.0311	-0.5515	
0.226798	-0.362462	0.837164	83.51	-2.87	-9.8	-0.1438	-0.0449	-0.5501	
0.250954	-0.325008	0.859734	82.32	-0.28	-9.1	-0.1308	-0.0587	-0.5503	
0.266326	-0.28548	0.879742	81.06	2.45	-10.22	-0.1423	-0.0557	-0.5597	
0.260836	-0.258396	0.889136	78.96	4.69	-11.97	-0.1505	-0.0828	-0.5508	
0.244732	-0.232166	0.901824	77.28	7.49	-12.67	-0.1361	-0.09649999	-0.5431	
0.228384	-0.20435	0.903166	76.37	10.22	-13.44	-0.1375	-0.1028	-0.5557	
0.221308	-0.16958	0.905972	76.02	10.29	-15.61	-0.1303	-0.1133	-0.5449	
0.203496	-0.154208	0.912438	73.22	12.53	-15.4	-0.1373	-0.1223	-0.5419	
0.186538	-0.120048	0.94123	70.7	12.18	-14	-0.1285	-0.1453	-0.547	
0.179706	-0.09699	0.950624	68.53	11.41	-12.18	-0.1198	-0.1543	-0.5346	
0.179218	-0.07503	0.967582	67.62	11.48	-12.6	-0.1254	-0.1633	-0.53	
0.181902	-0.02562	0.988444	67.34	11.41	-14.14	-0.1139	-0.1695	-0.5254	
0.174826	0.013542	1.011624	64.96	12.11	-14.35	-0.1209	-0.1831	-0.5303	
0.179584	0.028914	1.006378	60.41	11.06	-16.45	-0.1136	-0.1968	-0.5227	
0.175192	0.021228	0.993812	54.67	11.27	-15.33	-0.1108	-0.1969	-0.5274	
0.162016	0.009638	0.960506	51.1	12.25	-12.46	-0.1121	-0.2119	-0.5198	
0.152866	0.01403	0.950746	52.01	12.53	-10.36	-0.1077	-0.218	-0.5152	
0.132126	0.031964	0.949404	53.69	12.6	-10.08	-0.1062	-0.2224	-0.5043	
0.118828	0.087718	0.978684	55.3	8.61	-13.02	-0.1033	-0.2316	-0.5076	
0.132004	0.145546	0.990274	54.74	9.03	-10.92	-0.0932	-0.2423	-0.5046	
0.145058	0.16531	0.997472	51.8	9.52	-8.89	-0.096	-0.2452	-0.4984	
0.14396	0.171532	0.998082	48.72	9.59	-10.01	-0.103	-0.2512	-0.4969	
0.1342	0.188734	0.99125	46.55	10.99	-10.08	-0.0958	-0.2602	-0.4861	
0.128344	0.201422	0.99918	44.45	12.18	-8.05	-0.09	-0.2665	-0.4956	
0.126026	0.207766	1.007232	42.07	11.27	-7.42	-0.0829	-0.2618	-0.4767	
0.128466	0.216306	1.012844	39.9	11.13	-6.93	-0.0871	-0.2678	-0.4768	
0.124318	0.228506	1.002474	38.01	10.78	-6.93	-0.0784	-0.2785	-0.4722	
0.107604	0.22082	0.980392	36.19	10.08	-6.37	-0.07979999	-0.2846	-0.4786	
0.079544	0.211182	0.964288	34.93	8.75	-4.41	-0.084	-0.289	-0.4693	
0.07747	0.224114	0.973072	34.16	6.02	-0.77	-0.0867	-0.304	-0.4617	
0.109556	0.26596	1.003328	33.04	4.06	2.59	-0.0796	-0.2996	-0.4663	
0.12444	0.28426	1.01687	29.4	1.82	1.68	-0.0695	-0.3133	-0.4603	
0.117974	0.29524	1.02358	26.04	2.24	2.66	-0.0795	-0.3117	-0.4603	
0.115778	0.3111	1.02541	24.22	3.22	3.01	-0.078	-0.3178	-0.4619	
0.11712	0.328302	1.020164	19.67	2.66	0.07	-0.0722	-0.3238	-0.4542	
0.126392	0.340136	1.017236	16.59	2.31	-1.05	-0.0779	-0.3207	-0.4526	
0.131516	0.351848	1.018212	12.53	2.73	-2.03	-0.0751	-0.3161	-0.4478	
0.121268	0.353068	1.013332	8.12	1.61	-3.5	-0.0635	-0.3313	-0.4386	
0.111386	0.344894	1.00833	4.69	2.8	-2.59	-0.0722	-0.3237	-0.4479	
0.104554	0.343064	0.996008	2.73	2.73	-1.89	-0.0664	-0.3268	-0.4448	
0.106262	0.345504	0.995886	-0.07	1.96	-1.05	-0.0664	-0.33	-0.4527	
0.106628	0.362462	1.003938	-2.45	0.98	-0.21	-0.0679	-0.33	-0.4558	
0.11895	0.382104	1.018822	-6.37	0.28	-0.42	-0.0678	-0.3314	-0.448	
0.119194	0.371612	1.024312	-11.13	0.21	-1.12	-0.075	-0.3222	-0.451	
0.121878	0.360876	1.02175	-14.91	0.49	-2.87	-0.065	-0.3254	-0.451	
0.119926	0.355874	1.013332	-18.06	1.47	-3.85	-0.0694	-0.3192	-0.4463	
0.09467199	0.334646	1.001498	-21.77	0.49	-3.64	-0.0665	-0.3225	-0.462	
0.099186	0.314882	1.022726	-24.01	-0.84	-3.43	-0.0694	-0.3179	-0.4603	
0.105164	0.32025	1.03334	-25.34	-1.47	-2.94	-0.0652	-0.3103	-0.4586	
0.108824	0.32757	1.038098	-28.21	-1.12	-2.03	-0.0667	-0.3011	-0.4538	
0.108824	0.325374	1.040782	-32.13	-1.12	-1.4	-0.0739	-0.2998	-0.471	
0.107238	0.32025	1.04127	-36.4	-1.33	-0.98	-0.0697	-0.2983	-0.471	
0.104798	0.31537	1.037732	-40.18	0.28	1.12	-0.064	-0.2983	-0.4694	
0.10126	0.293898	1.033218	-44.94	-1.68	0.77	-0.0697	-0.2954	-0.4803	
0.089304	0.269132	1.022482	-48.44	-2.31	1.82	-0.0684	-0.2893	-0.4786	
0.0915	0.257664	1.031022	-51.24	-3.36	2.73	-0.0713	-0.2864	-0.4895	
0.093818	0.248392	1.027362	-54.88	-4.48	3.71	-0.0657	-0.2712	-0.483	
0.092964	0.224968	1.016016	-58.87	-5.95	4.34	-0.0715	-0.2713	-0.4956	
0.091744	0.19276	1.007354	-62.51	-6.79	5.74	-0.0802	-0.2591	-0.5016	
0.107482	0.156404	1.010526	-66.85	-8.26	6.65	-0.07889999	-0.2424	-0.4983	
0.114192	0.14396	1.010648	-69.72	-8.89	7.21	-0.0718	-0.2457	-0.5123	
0.119682	0.120536	1.007354	-73.22	-8.82	7.42	-0.0862	-0.2288	-0.5121	
0.11956	0.088206	0.992348	-77.07	-8.4	7.35	-0.0778	-0.2201	-0.5307	
0.1098	0.055144	0.975268	-80.78	-8.4	6.65	-0.0879	-0.2062	-0.5274	
0.109922	0.02196	0.96563	-84.77	-9.31	6.79	-0.0894	-0.1971	-0.5242	
0.113094	-0.012444	0.961116	-88.48	-10.99	7	-0.0938	-0.1895	-0.5303	
0.117608	-0.041846	0.954894	-92.61	-12.18	7.28	-0.0926	-0.173	-0.5457	
0.131272	-0.07808	0.955626	-97.02	-12.18	7.98	-0.0984	-0.1638	-0.5409	
0.14396	-0.123586	0.939034	-102.2	-13.09	9.1	-0.09	-0.1502	-0.539	
0.147132	-0.167994	0.905972	-106.47	-12.81	10.43	-0.0916	-0.1367	-0.556	
0.149206	-0.214476	0.868396	-111.44	-11.62	10.92	-0.1004	-0.1106	-0.5463	
0.155672	-0.255712	0.817034	-115.5	-12.04	10.64	-0.102	-0.0971	-0.5555	
0.154452	-0.29646	0.771528	-118.23	-9.31	11.34	-0.1093	-0.0804	-0.563	
0.151768	-0.34099	0.736636	-120.19	-9.1	9.73	-0.1095	-0.0591	-0.5611	
0.158356	-0.383202	0.71309	-119.56	-7.77	7.7	-0.1082	-0.0423	-0.5562	
0.14579	-0.433954	0.685152	-117.53	-7.56	6.3	-0.1114	-0.0167	-0.5699	
0.137738	-0.48434	0.659532	-114.1	-6.58	5.39	-0.1172	-0.0011	-0.5524	
0.13481	-0.539972	0.638426	-109.76	-7.42	5.04	-0.1188	0.0186	-0.5521	
0.13847	-0.584502	0.63745	-104.93	-8.54	6.02	-0.1176	0.0429	-0.5518	
0.146034	-0.604266	0.634034	-100.87	-10.36	7.77	-0.1192	0.0504	-0.5579	
0.162504	-0.625616	0.637206	-97.93	-10.92	8.68	-0.1251	0.0702	-0.5592	
0.15555	-0.629032	0.630862	-95.97	-9.87	8.47	-0.1223	0.0856	-0.5464	
0.178608	-0.648918	0.610976	-97.86	-10.5	7.63	-0.121	0.0917	-0.5401	
0.198372	-0.69296	0.584136	-99.12	-9.17	7.14	-0.1226	0.1115	-0.5382	
0.191174	-0.749202	0.535214	-99.82	-6.79	5.18	-0.1141	0.1207	-0.5255	
0.176534	-0.7991	0.493368	-97.44	-4.06	2.31	-0.1257	0.1467	-0.5251	
0.166042	-0.83326	0.435662	-90.86	-2.03	1.61	-0.1261	0.1864	-0.512	
0.16348	-0.862052	0.409066	-84.98	-1.96	1.54	-0.1204	0.1817	-0.5167	
0.141398	-0.877668	0.395768	-77.42	-3.92	2.31	-0.1246	0.1881	-0.4995	
0.152012	-0.881572	0.394182	-71.47	-5.39	4.13	-0.1162	0.1956	-0.5009	
0.167384	-0.891942	0.391742	-66.85	-7.35	2.87	-0.1262	0.2111	-0.4882	
0.173362	-0.907924	0.377956	-62.44	-7.42	2.03	-0.1278	0.2249	-0.4817	
0.178852	-0.922442	0.362218	-57.19	-8.12	0.07	-0.125	0.2263	-0.4864	
0.183976	-0.92293	0.352946	-52.15	-8.82	-0.21	-0.1337	0.2463	-0.4814	
0.183854	-0.922198	0.343552	-48.65	-9.24	-0.14	-0.128	0.251	-0.4688	
0.178608	-0.920856	0.329156	-47.04	-9.17	-0.42	-0.1223	0.2479	-0.4657	
0.185318	-0.933666	0.31842	-45.57	-9.52	-0.21	-0.1338	0.2571	-0.4672	
0.18544	-0.947208	0.307928	-43.12	-8.82	0.63	-0.1267	0.2709	-0.456	
0.181902	-0.942816	0.298168	-41.02	-6.93	1.47	-0.1366	0.2604	-0.4531	
0.187636	-0.938668	0.294996	-40.32	-5.46	1.89	-0.131	0.2725	-0.4528	
0.198128	-0.93635	0.293166	-39.83	-4.27	1.96	-0.1397	0.2848	-0.4527	
0.1952	-0.933178	0.274378	-38.78	-3.22	1.89	-0.1282	0.2833	-0.4417	
0.191906	-0.95282	0.2623	-38.01	-3.92	2.1	-0.1382	0.2849	-0.4417	
0.182756	-0.962824	0.247538	-36.12	-2.94	2.73	-0.1397	0.2943	-0.4244	
0.180438	-0.971974	0.241072	-35.21	-2.66	2.31	-0.1368	0.2881	-0.4292	
0.173362	-0.95892	0.233508	-34.16	-1.4	1.96	-0.1383	0.3004	-0.4259	
0.172508	-0.957456	0.222528	-34.65	-2.03	1.4	-0.1312	0.302	-0.4133	
0.153964	-0.949526	0.215208	-33.95	-2.87	1.96	-0.1241	0.3064	-0.4195	
0.152622	-0.949038	0.208132	-35.91	-6.02	2.24	-0.1285	0.3203	-0.4052	
0.15982	-0.974658	0.187758	-38.08	-9.59	2.8	-0.1384	0.3189	-0.4068	
0.162138	-1.005768	0.18666	-37.87	-10.92	2.66	-0.1299	0.3249	-0.4036	
0.162016	-0.970022	0.188978	-34.86	-10.92	4.76	-0.1342	0.3235	-0.4036	
0.158112	-0.95221	0.162504	-35.98	-10.15	6.09	-0.1384	0.3236	-0.3958	
0.15433	-0.959774	0.153354	-36.47	-12.39	5.88	-0.1385	0.3312	-0.3972	
0.16287	-0.972462	0.157136	-34.65	-16.1	5.04	-0.1356	0.3298	-0.3894	
0.17934	-0.973072	0.14457	-30.66	-17.57	4.41	-0.1371	0.342	-0.3846	
0.179218	-0.970144	0.147254	-28.77	-17.92	1.54	-0.1399	0.3376	-0.4056	
0.177632	-0.975146	0.140422	-27.58	-18.34	0.7	-0.1485	0.3485	-0.3704	
0.174826	-0.984174	0.135664	-27.79	-16.73	1.68	-0.1386	0.3513	-0.3782	
0.184952	-0.978806	0.12688	-27.86	-14.77	3.22	-0.14	0.3545	-0.3656	
0.187758	-0.967216	0.121878	-29.33	-12.04	3.71	-0.1485	0.3487	-0.3788	
0.184586	-0.960994	0.111996	-31.08	-9.66	3.78	-0.15	0.3593	-0.3562	
0.189344	-0.955504	0.104798	-32.69	-8.75	3.01	-0.1499	0.3565	-0.3406	
0.195444	-0.964776	0.097966	-34.3	-7.63	2.24	-0.1402	0.373	-0.3466	
0.1952	-0.980026	0.088328	-35.56	-6.23	2.03	-0.1545	0.3761	-0.3528	
0.192272	-0.977952	0.080398	-35.42	-4.62	2.45	-0.1415	0.3718	-0.3294	
0.195444	-0.975024	0.061366	-37.24	-3.64	3.71	-0.1429	0.3703	-0.3279	
0.195444	-0.991006	0.015128	-38.64	-2.73	5.32	-0.1387	0.3763	-0.3293	
0.200324	-1.025044	-0.01342	-37.1	-1.75	7.7	-0.1487	0.3812	-0.3137	
0.209962	-1.031144	-0.037698	-33.88	0.56	9.66	-0.1387	0.3857	-0.3135	
0.200812	-1.009794	-0.053314	-30.03	3.43	7.98	-0.1416	0.3826	-0.3167	
0.16653	-0.980636	-0.06954	-29.26	5.04	4.83	-0.1373	0.3857	-0.3104	
0.143716	-0.980026	-0.079788	-29.47	3.99	2.59	-0.1386	0.3813	-0.2995	
0.14091	-1.002962	-0.080154	-27.37	3.29	1.96	-0.1358	0.389	-0.2932	
0.14457	-1.005524	-0.081984	-23.87	2.03	1.47	-0.1316	0.3919	-0.2978	
0.138714	-0.98515	-0.079666	-21.7	-0.42	0.84	-0.1287	0.3935	-0.2899	
0.138592	-0.96929	-0.077836	-23.87	0.35	0.56	-0.143	0.3968	-0.2853	
0.14274	-0.964776	-0.09089	-30.03	0.77	0.63	-0.1259	0.4012	-0.282	
0.151768	-0.972218	-0.098454	-33.32	2.94	2.03	-0.1331	0.4075	-0.2725	
0.157868	-0.995398	-0.112118	-34.3	1.47	3.36	-0.133	0.4047	-0.2585	
0.14335	-0.993568	-0.138714	-30.52	2.38	4.97	-0.1288	0.4106	-0.2662	
0.117242	-1.002352	-0.162992	-29.89	1.19	6.44	-0.1317	0.4107	-0.2647	
0.122854	-1.034926	-0.185196	-28.84	0.84	8.12	-0.1217	0.4152	-0.2614	
0.154696	-1.042368	-0.18666	-25.48	4.48	8.89	-0.1288	0.4123	-0.2568	
0.167262	-1.012234	-0.176656	-25.76	5.81	8.4	-0.1303	0.42	-0.2504	
0.142984	-0.988322	-0.184342	-25.2	4.27	7.63	-0.1274	0.4185	-0.2442	
0.104188	-1.013698	-0.21045	-27.79	2.45	7.77	-0.1189	0.4262	-0.2347	
0.11529	-1.04432	-0.224968	-22.26	3.22	9.03	-0.1259	0.4125	-0.2427	
0.144082	-1.025166	-0.208986	-9.03	7.21	10.71	-0.1245	0.4171	-0.2348	
0.119682	-0.961238	-0.203252	-5.18	3.71	5.18	-0.1202	0.417	-0.2379	
0.094306	-0.955138	-0.207156	-8.12	-0.49	1.75	-0.1146	0.423	-0.2425	
0.081374	-0.98576	-0.225334	-10.43	-0.42	0.91	-0.1203	0.4279	-0.2509	
0.115168	-1.006012	-0.22448	-7.98	0.63	0.7	-0.1161	0.4322	-0.2408	
0.14701	-1.006012	-0.216306	-5.18	1.4	2.38	-0.1175	0.4262	-0.2362	
0.122488	-1.01138	-0.230214	-5.95	0.14	1.89	-0.1203	0.4277	-0.2362	
0.08174	-1.038708	-0.269498	-4.97	1.33	-0.14	-0.1217	0.4248	-0.23	
0.085034	-1.063962	-0.286456	4.9	5.67	-2.17	-0.1204	0.4292	-0.2393	
0.11956	-1.033828	-0.243512	16.31	10.08	-3.57	-0.1174	0.4247	-0.2331	
0.1342	-0.99674	-0.195078	16.24	6.44	-5.53	-0.1159	0.4124	-0.2411	
0.146522	-0.980514	-0.181658	14.07	0.56	-6.93	-0.1231	0.4216	-0.2379	
0.16287	-0.969534	-0.185684	12.81	-1.89	-5.25	-0.1246	0.4201	-0.241	
0.174582	-0.973438	-0.188002	12.6	-1.82	-1.47	-0.126	0.4216	-0.2426	
0.182146	-0.956114	-0.183366	12.53	1.12	1.68	-0.1288	0.4185	-0.2458	
0.148962	-0.954406	-0.169946	3.92	-0.21	0.14	-0.1217	0.4154	-0.2458	
0.131272	-0.976244	-0.213866	1.47	1.4	-0.07	-0.1189	0.4182	-0.2598	
0.123342	-1.020896	-0.228018	3.5	4.9	0.42	-0.1274	0.4154	-0.2505	
0.132614	-1.030534	-0.22326	8.82	6.44	0	-0.1189	0.4199	-0.2488	
0.132004	-1.0248	-0.218014	10.78	4.13	-0.28	-0.1317	0.4169	-0.2536	
0.126392	-1.016016	-0.213988	11.48	2.73	0.07	-0.1146	0.4168	-0.2504	
0.133956	-1.019432	-0.20862	11.55	4.13	0.63	-0.1203	0.4152	-0.2583	
0.142008	-1.042978	-0.207766	14.56	3.36	3.08	-0.1175	0.4259	-0.2534	
0.132126	-1.05408	-0.20618	19.46	-0.07	5.25	-0.1204	0.4212	-0.266	
0.13359	-1.047492	-0.20008	25.34	-1.26	6.3	-0.1203	0.4152	-0.2614	
0.15555	-1.050664	-0.180804	27.3	-0.14	8.47	-0.1274	0.4075	-0.2694	
0.18544	-1.032364	-0.168116	31.08	4.06	10.08	-0.1204	0.4181	-0.2676	
0.17934	-1.005646	-0.153964	32.76	5.88	10.78	-0.1119	0.4209	-0.2769	
0.1586	-0.982344	-0.137982	35.42	5.18	9.24	-0.1132	0.4102	-0.2802	
0.146766	-0.98454	-0.11956	37.52	5.88	7.98	-0.1104	0.4086	-0.2865	
0.134322	-1.002108	-0.09211	39.97	4.83	6.23	-0.1118	0.407	-0.2912	
0.116876	-1.016626	-0.060268	43.19	5.18	5.25	-0.1175	0.3993	-0.3007	
0.108092	-1.020408	-0.029524	47.11	3.43	5.11	-0.1089	0.3931	-0.307	
0.100528	-0.996008	-0.017568	52.71	2.59	5.18	-0.1047	0.4021	-0.3116	
0.104188	-0.98088	0.0122	58.73	4.97	5.32	-0.1145	0.3792	-0.3229	
0.09577	-0.959286	0.032086	56.35	8.75	4.97	-0.1046	0.3821	-0.3244	
0.07905599	-0.952088	0.03904	49.98	5.6	3.36	-0.1032	0.3849	-0.3384	
0.095648	-1.008818	0.052094	45.36	2.73	2.1	-0.1089	0.3819	-0.3416	
0.094916	-1.031876	0.068686	44.66	2.24	1.96	-0.1031	0.3681	-0.3418	
0.060634	-0.994178	0.06771	47.88	1.54	3.71	-0.1031	0.3664	-0.3575	
0.048312	-0.955748	0.076006	47.32	1.12	4.48	-0.1089	0.3709	-0.3621	
0.074664	-0.970632	0.11102	44.17	1.54	3.22	-0.1045	0.3586	-0.3717	
0.058926	-0.97783	0.138226	44.59	0.42	1.61	-0.0973	0.3524	-0.3733	
0.038064	-0.954772	0.157258	45.22	-2.45	-0.14	-0.1073	0.3509	-0.3812	
0.058072	-0.949038	0.18788	43.19	-6.02	-0.84	-0.1017	0.3584	-0.3795	
0.068076	-0.932568	0.21899	40.88	-5.18	0.35	-0.1129	0.3433	-0.3829	
0.068076	-0.890844	0.239364	37.03	-3.57	0.91	-0.103	0.3416	-0.3907	
0.081008	-0.8784	0.253394	29.68	-3.85	-0.21	-0.1114	0.331	-0.3909	
0.098088	-0.89609	0.262056	21.98	-4.2	-2.45	-0.1073	0.3384	-0.3986	
0.102236	-0.909632	0.27084	20.86	-4.55	-6.44	-0.1086	0.3323	-0.4033	
0.087718	-0.941718	0.274256	18.83	-8.54	-9.8	-0.1043	0.3216	-0.4019	
0.105408	-0.978928	0.268034	18.97	-9.31	-10.22	-0.1001	0.3322	-0.4049	
0.130662	-0.965874	0.266814	22.19	-6.79	-7.63	-0.1099	0.3186	-0.4083	
0.124928	-0.93086	0.277184	21.77	-5.74	-5.95	-0.1129	0.323	-0.416	
0.134078	-0.927322	0.273158	20.86	-4.9	-7.98	-0.1185	0.317	-0.4161	
0.13969	-0.945134	0.277794	18.13	-5.46	-9.73	-0.1128	0.3139	-0.4146	
0.13847	-0.96075	0.277306	18.97	-4.76	-11.55	-0.1127	0.3109	-0.4115	
0.142008	-0.96807	0.27694	20.23	-4.34	-11.41	-0.1226	0.3017	-0.4242	
0.158112	-0.968192	0.268888	23.1	-2.24	-9.87	-0.1298	0.3017	-0.4289	
0.167384	-0.969412	0.26474	25.34	-1.61	-9.03	-0.1241	0.3095	-0.4132	
0.16287	-0.970876	0.262422	28.21	0.56	-9.73	-0.1197	0.2957	-0.4227	
0.16653	-0.954772	0.271572	31.5	3.15	-9.87	-0.1268	0.2927	-0.4228	
0.164578	-0.941596	0.267546	34.37	6.02	-10.29	-0.124	0.2941	-0.4306	
0.170556	-0.954406	0.266326	37.31	6.51	-9.52	-0.1254	0.2817	-0.4433	
0.172264	-0.985028	0.278038	40.53	7.21	-7.49	-0.124	0.2863	-0.4417	
0.176534	-1.007476	0.302926	44.59	7.77	-5.39	-0.1253	0.2757	-0.4418	
0.19764	-0.95709	0.29646	49.56	15.12	2.24	-0.1153	0.2662	-0.4576	
0.191662	-0.976366	0.272426	52.64	18.34	7	-0.1309	0.2617	-0.4624	
0.131882	-0.963068	0.295118	60.06	20.23	7.77	-0.1266	0.2508	-0.4766	
0.097722	-0.894382	0.347578	64.19	20.65	7.49	-0.1194	0.2433	-0.4689	
0.129442	-0.833992	0.390766	63.7	17.01	4.83	-0.118	0.2384	-0.4861	
0.147254	-0.834602	0.423218	60.41	11.9	1.68	-0.1179	0.2277	-0.4894	
0.135908	-0.852292	0.435906	61.18	5.88	0.21	-0.1121	0.2155	-0.488	
0.13115	-0.858026	0.439688	61.81	5.39	-0.28	-0.1077	0.2063	-0.4929	
0.125294	-0.831308	0.421388	62.79	4.69	-1.4	-0.1105	0.1986	-0.4992	
0.1098	-0.837286	0.415898	63.98	3.78	-1.89	-0.1077	0.1984	-0.5102	
0.090402	-0.850218	0.474092	69.72	0.98	-0.42	-0.1133	0.1879	-0.5057	
0.11651	-0.821304	0.51423	76.72	-0.84	3.01	-0.1118	0.1771	-0.5137	
0.125782	-0.777262	0.547536	80.57	-3.85	4.9	-0.1116	0.1588	-0.5218	
0.140788	-0.773968	0.550098	82.6	-5.6	5.95	-0.1058	0.148	-0.5297	
0.122122	-0.749324	0.575352	86.17	-4.62	3.99	-0.1172	0.1464	-0.5392	
0.131638	-0.706502	0.598776	87.85	-4.69	4.69	-0.1142	0.1314	-0.5253	
0.144814	-0.693814	0.629154	88.2	-5.11	7.14	-0.107	0.1174	-0.538	
0.143838	-0.65392	0.64111	92.33	-4.69	8.05	-0.1126	0.1052	-0.5461	
0.141642	-0.607438	0.66063	94.29	-5.53	6.58	-0.108	0.084	-0.537	
0.132858	-0.558882	0.691618	94.85	-4.83	5.53	-0.105	0.0672	-0.5419	
0.130174	-0.520208	0.726998	92.89	-4.41	5.25	-0.1135	0.058	-0.5515	
0.138714	-0.498736	0.744566	91.42	-2.73	5.18	-0.1133	0.0384	-0.5456	
0.143838	-0.480436	0.757498	91.21	-0.7	1.61	-0.1104	0.026	-0.5535	
0.138104	-0.457744	0.763476	92.82	0.77	-2.87	-0.1116	0.0141	-0.5397	
0.129076	-0.463722	0.802516	93.17	0.7	-4.83	-0.1058	-0.0013	-0.554	
0.108702	-0.43859	0.826794	94.92	0.56	-3.36	-0.1185	-0.0163	-0.5543	
0.116144	-0.330498	0.867786	93.87	-1.47	-2.24	-0.1226	-0.0361	-0.5608	
0.156038	-0.268766	0.889746	88.97	-3.15	-4.48	-0.1139	-0.0422	-0.5546	
0.161528	-0.266692	0.87962	84.21	-2.73	-9.59	-0.1108	-0.0681	-0.5519	
0.122	-0.2867	0.8845	82.11	-2.59	-15.54	-0.1108	-0.0712	-0.5613	
0.11346	-0.25803	0.879986	83.58	-4.34	-17.36	-0.1106	-0.0893	-0.5507	
0.130174	-0.24583	0.901092	84.07	-2.8	-15.68	-0.1176	-0.0937	-0.5414	
0.130174	-0.201544	0.92476	86.8	-4.06	-16.31	-0.1061	-0.1105	-0.5416	
0.134078	-0.137738	0.920856	87.5	-3.22	-14.49	-0.1102	-0.1272	-0.545	
0.119072	-0.09699	0.918294	82.39	-5.67	-13.09	-0.1115	-0.1331	-0.5326	
0.14213	-0.097112	0.933788	76.93	-4.48	-12.32	-0.1113	-0.1514	-0.5376	
0.138104	-0.080642	0.940742	74.27	-4.48	-10.36	-0.1154	-0.1679	-0.5269	
0.1586	-0.027206	0.943548	72.8	-4.9	-10.22	-0.1096	-0.1786	-0.524	
0.186172	0.007198	0.966972	70.07	-2.24	-9.87	-0.1081	-0.1848	-0.5303	
0.170068	0.018178	0.966118	68.46	0.91	-7.84	-0.1107	-0.2044	-0.5244	
0.145912	0.018788	0.981368	66.29	2.66	-9.17	-0.1064	-0.2059	-0.5212	
0.138348	0.053314	0.989786	66.71	3.71	-7.98	-0.1091	-0.2195	-0.5121	
0.165676	0.099796	1.021628	64.89	4.2	-6.93	-0.106	-0.2392	-0.5061	
0.175558	0.130174	1.02907	61.46	5.25	-8.54	-0.1104	-0.2299	-0.4982	
0.165798	0.143106	1.01504	57.19	8.82	-8.82	-0.1002	-0.2514	-0.5047	
0.146156	0.15128	1.013088	53.62	10.92	-9.38	-0.0958	-0.2588	-0.4892	
0.121146	0.163968	1.021628	50.54	10.43	-11.62	-0.0972	-0.2572	-0.4876	
0.117242	0.199104	1.016016	48.86	10.36	-13.58	-0.0957	-0.2664	-0.4893	
0.12261	0.221064	1.00833	46.9	10.43	-10.92	-0.0913	-0.2848	-0.4959	
0.111386	0.221674	1.011258	44.87	9.73	-9.87	-0.08549999	-0.2847	-0.4849	
0.108824	0.255834	1.018944	42.84	7.98	-11.41	-0.0869	-0.2846	-0.4818	
0.1098	0.285236	1.009062	37.87	7.07	-8.61	-0.0853	-0.2996	-0.4679	
0.10858	0.287432	0.996374	35.63	6.58	-8.68	-0.081	-0.3012	-0.4711	
0.109556	0.290726	1.010892	33.88	6.37	-5.88	-0.0753	-0.3073	-0.468	
0.097234	0.310246	1.033096	31.78	4.41	-5.04	-0.0681	-0.3057	-0.4554	
0.107604	0.355996	1.03883	29.05	3.71	-4.2	-0.07229999	-0.3131	-0.4478	
0.121878	0.390156	1.02724	23.31	4.41	-5.18	-0.0679	-0.3224	-0.4557	
0.097356	0.363316	1.01443	16.8	3.85	-6.02	-0.0665	-0.3208	-0.4525	
0.089182	0.356972	1.017846	12.39	3.15	-5.81	-0.0722	-0.3223	-0.4526	
0.110776	0.364902	1.026874	10.08	0.56	-5.67	-0.0793	-0.3252	-0.4495	
0.125172	0.3782	1.045784	6.23	0.91	-4.2	-0.0735	-0.3283	-0.4496	
0.10492	0.379908	1.05103	1.47	2.24	-1.26	-0.065	-0.33	-0.4511	
0.096502	0.390644	1.06079	-2.87	1.12	-1.68	-0.0721	-0.3312	-0.4402	
0.096868	0.38857	1.0553	-7.98	1.12	-2.59	-0.075	-0.3298	-0.4512	
0.088938	0.385154	1.059448	-12.6	-0.28	-3.5	-0.065	-0.3222	-0.4416	
0.091744	0.385886	1.069574	-17.08	-0.7	-3.01	-0.0623	-0.3163	-0.4525	
0.095648	0.390278	1.080188	-21.91	-1.4	-2.52	-0.0707	-0.3238	-0.4479	
0.111996	0.394548	1.084214	-27.58	-0.35	-1.89	-0.0665	-0.3193	-0.4494	
0.110654	0.407114	1.076162	-33.18	0.56	-6.23	-0.0724	-0.3087	-0.4602	
0.108824	0.406504	1.064572	-39.48	2.38	-9.03	-0.0652	-0.315	-0.4681	
0.099552	0.383568	1.065426	-46.83	1.54	-10.57	-0.0568	-0.3028	-0.4616	
0.103456	0.365634	1.078236	-50.61	1.68	-13.16	-0.0654	-0.2968	-0.4694	
0.106262	0.335378	1.072258	-54.53	3.01	-15.47	-0.0626	-0.2923	-0.4693	
0.108214	0.310002	1.051762	-57.33	6.09	-14.98	-0.0657	-0.2757	-0.4831	
0.09028	0.271328	1.019554	-61.53	8.05	-15.05	-0.0586	-0.2713	-0.4892	
0.05856	0.234362	1.011014	-64.68	6.51	-12.46	-0.0587	-0.2714	-0.4955	
0.052948	0.2257	0.998814	-67.41	4.2	-9.31	-0.0574	-0.2577	-0.4937	
0.04209	0.1952	0.98942	-74.34	0.91	-6.44	-0.059	-0.2428	-0.5107	
0.034526	0.162992	0.978318	-78.68	-1.4	-4.48	-0.049	-0.2459	-0.5091	
0.028548	0.130174	0.9821	-82.74	-5.04	-1.75	-0.052	-0.2368	-0.5152	
0.027206	0.089792	0.96929	-87.36	-8.26	0.7	-0.0593	-0.2171	-0.5228	
0.02806	0.047336	0.960018	-91.14	-11.83	2.17	-0.0523	-0.2049	-0.5163	
0.046116	0.00671	0.951356	-93.94	-15.12	3.71	-0.0625	-0.1899	-0.5333	
0.06527	-0.026596	0.933666	-96.6	-17.78	4.62	-0.057	-0.1703	-0.5423	
0.06954	-0.062342	0.919758	-98.98	-19.67	5.25	-0.0713	-0.1656	-0.5408	
0.086498	-0.093086	0.906826	-101.85	-20.3	5.95	-0.0672	-0.1521	-0.5468	
0.099552	-0.1342	0.882182	-105.14	-20.37	5.67	-0.0774	-0.1292	-0.548	
0.105896	-0.18971	0.850706	-108.01	-19.88	5.74	-0.0818	-0.1201	-0.5573	
0.11773	-0.240828	0.824232	-109.2	-19.39	6.3	-0.0806	-0.1002	-0.5476	
0.118584	-0.285114	0.784826	-109.06	-17.85	6.79	-0.0808	-0.0791	-0.5582	
0.12688	-0.33794	0.76311	-109.06	-17.29	6.65	-0.0881	-0.0669	-0.5612	
0.149084	-0.39711	0.75457	-109.2	-17.5	6.58	-0.0926	-0.0427	-0.5686	
0.158112	-0.441884	0.726632	-107.52	-15.05	8.12	-0.0997	-0.0394	-0.5592	
0.14945	-0.482754	0.690398	-105.84	-13.23	8.75	-0.1071	-0.0135	-0.5588	
0.144692	-0.520818	0.66673	-104.65	-13.09	7.21	-0.1017	0.006	-0.5632	
0.142618	-0.565958	0.639524	-103.74	-13.44	5.67	-0.1046	0.0213	-0.5583	
0.153842	-0.615856	0.623664	-101.78	-14.28	4.97	-0.1047	0.0244	-0.5551	
0.158478	-0.652334	0.601582	-98.35	-13.51	4.9	-0.1134	0.0475	-0.5454	
0.15494	-0.684176	0.575718	-94.01	-12.46	5.11	-0.1064	0.0611	-0.542	
0.161894	-0.706014	0.564372	-89.04	-11.83	4.83	-0.1081	0.0884	-0.5463	
0.17263	-0.723826	0.547536	-84.98	-11.55	3.57	-0.1167	0.0947	-0.5384	
0.172264	-0.751642	0.52887	-81.27	-11.27	1.75	-0.1211	0.1085	-0.5367	
0.173728	-0.788364	0.522648	-77.98	-11.48	0.63	-0.1141	0.119	-0.5412	
0.165554	-0.81313	0.512888	-72.17	-11.76	1.75	-0.1243	0.1421	-0.5252	
0.161406	-0.816058	0.504348	-68.74	-11.41	1.68	-0.1187	0.1588	-0.5234	
0.183488	-0.823866	0.505324	-67.69	-13.23	2.1	-0.1273	0.1666	-0.5201	
0.19154	-0.828258	0.492758	-65.94	-13.72	1.75	-0.1174	0.1695	-0.5201	
0.198982	-0.846802	0.480924	-64.4	-12.04	2.1	-0.1247	0.1849	-0.5152	
0.195932	-0.864248	0.456036	-62.16	-9.66	2.87	-0.1304	0.1926	-0.5088	
0.19215	-0.873642	0.42334	-59.92	-8.61	1.61	-0.1347	0.1943	-0.4994	
0.186294	-0.856806	0.41541	-57.82	-8.12	1.33	-0.1305	0.2142	-0.4866	
0.211182	-0.869006	0.413824	-58.8	-8.89	0.28	-0.1348	0.2081	-0.493	
0.213378	-0.89731	0.38735	-57.75	-7.21	-0.42	-0.1234	0.2173	-0.4787	
0.191296	-0.926224	0.363438	-53.48	-5.18	0.07	-0.1235	0.2264	-0.4801	
0.200568	-0.922686	0.349652	-49.42	-5.81	0.7	-0.1336	0.2419	-0.4705	
0.19947	-0.91378	0.347334	-46.62	-4.9	0.63	-0.1265	0.2464	-0.4673	
0.193736	-0.906094	0.34526	-45.71	-5.39	-0.42	-0.1251	0.2464	-0.4657	
0.205448	-0.923174	0.33306	-45.78	-7.91	-1.89	-0.1364	0.2483	-0.4486	
0.201544	-0.938546	0.313052	-43.12	-8.33	-2.8	-0.1452	0.2712	-0.4498	
0.2013	-0.935252	0.30744	-39.34	-9.38	-3.01	-0.1379	0.2559	-0.45	
0.205326	-0.9272	0.308904	-36.54	-9.59	-2.66	-0.1438	0.2711	-0.4529	
0.224724	-0.930006	0.311222	-35.98	-9.59	-2.59	-0.1438	0.2712	-0.4467	
0.220332	-0.936838	0.304512	-34.86	-6.79	-1.54	-0.1396	0.2804	-0.4434	
0.209352	-0.929274	0.267058	-33.32	-5.32	-0.63	-0.1439	0.2928	-0.426	
0.216184	-0.943914	0.293776	-33.53	-3.85	1.19	-0.151	0.2897	-0.4355	
0.207278	-0.964044	0.279136	-31.92	-4.13	0.84	-0.1482	0.2944	-0.426	
0.20496	-0.955016	0.265106	-29.68	-3.22	1.12	-0.1425	0.2944	-0.4229	
0.210938	-0.955138	0.264618	-29.19	-3.99	0.84	-0.1482	0.2944	-0.426	
0.201544	-0.949892	0.263642	-28.7	-1.54	1.12	-0.1581	0.2899	-0.4292	
0.18239	-0.95221	0.250588	-27.44	0.63	2.1	-0.1356	0.3141	-0.4194	
0.170556	-0.94245	0.246318	-25.2	1.33	2.38	-0.1512	0.3114	-0.4117	
0.17324	-0.942572	0.248026	-24.85	0.49	2.94	-0.147	0.3205	-0.41	
0.167018	-0.926712	0.24949	-24.57	0.07	4.55	-0.1398	0.3173	-0.4115	
0.194712	-0.917562	0.258884	-27.65	-0.28	5.67	-0.1455	0.3129	-0.4038	
0.198616	-0.93086	0.274012	-30.31	-3.08	4.9	-0.1371	0.3265	-0.4036	
0.200568	-0.9333	0.282308	-33.67	-5.74	5.18	-0.1342	0.3282	-0.3941	
0.195566	-0.921832	0.256566	-36.47	-8.4	5.95	-0.1328	0.3297	-0.3941	
0.187514	-0.920368	0.201666	-38.43	-12.67	3.5	-0.1427	0.3299	-0.3848	
0.196908	-0.928298	0.15982	-37.31	-16.24	-0.07	-0.1343	0.3405	-0.3814	
0.21228	-0.940742	0.135664	-36.19	-16.66	-1.54	-0.14	0.3437	-0.3767	
0.19642	-0.974536	0.109678	-36.68	-16.38	-2.87	-0.1428	0.3438	-0.3705	
0.198372	-1.010892	0.100406	-36.96	-16.94	-1.68	-0.1528	0.3455	-0.3674	
0.209718	-0.989298	0.09211	-35	-14.35	2.24	-0.1442	0.344	-0.3611	
0.22753	-0.951966	0.09333	-36.89	-10.64	6.23	-0.1485	0.3472	-0.3548	
0.229726	-0.97844	0.082228	-39.27	-7.84	7.56	-0.1486	0.3547	-0.3578	
0.198372	-0.997716	0.0854	-37.31	-5.32	8.19	-0.1485	0.3565	-0.3437	
0.175192	-0.974658	0.068198	-33.74	-5.25	8.96	-0.1543	0.3703	-0.3373	
0.173972	-0.956358	0.056364	-34.16	-7.77	7.84	-0.1429	0.3687	-0.3357	
0.172264	-0.96075	0.044042	-34.65	-9.94	5.39	-0.1431	0.3855	-0.3308	
0.159088	-0.968924	0.035624	-35.21	-12.11	4.55	-0.1401	0.3733	-0.3294	
0.131516	-0.973682	0.02989	-37.87	-15.68	5.32	-0.1487	0.3904	-0.312	
0.113338	-0.989054	0.025986	-40.6	-22.47	7.21	-0.1458	0.3812	-0.3136	
0.119316	-0.996374	0.01525	-39.9	-27.23	9.31	-0.1444	0.3858	-0.312	
0.166896	-0.993446	0.011468	-40.53	-32.76	11.34	-0.1416	0.3934	-0.3072	
0.21106	-0.973804	-0.012688	-38.71	-33.25	12.67	-0.1487	0.3937	-0.2931	
0.205692	-0.970266	-0.044408	-36.4	-28.21	13.09	-0.1459	0.3968	-0.29	
0.18361	-0.98454	-0.08686399	-41.16	-17.22	13.58	-0.1502	0.403	-0.2852	
0.164578	-0.975634	-0.1281	-38.85	-8.61	7.35	-0.1416	0.4076	-0.2741	
0.17629	-0.93025	-0.14579	-37.17	-3.99	7	-0.1502	0.4061	-0.2789	
0.173606	-0.923052	-0.167628	-36.82	-0.63	5.95	-0.1401	0.4033	-0.257	
0.16897	-0.95526	-0.218502	-33.53	4.34	4.06	-0.1458	0.4034	-0.2523	
0.210572	-0.945134	-0.234728	-24.08	22.19	5.32	-0.143	0.4142	-0.2443	
0.165188	-0.974658	-0.194102	-34.16	26.53	2.52	-0.1316	0.4171	-0.2396	
0.111264	-1.065304	-0.246196	-42.7	21.49	-1.54	-0.1373	0.4203	-0.2348	
0.12749	-1.095316	-0.255102	-30.03	21.35	-3.71	-0.1331	0.417	-0.2505	
0.149572	-1.048102	-0.26901	-21.49	14.63	-7.28	-0.1331	0.417	-0.2505	
0.163724	-0.995032	-0.250222	-17.71	16.24	-2.94	-0.1388	0.4204	-0.2333	
0.14457	-1.01077	-0.250344	-24.29	13.44	0.63	-0.136	0.428	-0.2269	
0.14396	-1.021872	-0.273158	-20.09	13.79	2.87	-0.136	0.428	-0.2269	
0.13542	-1.01443	-0.26596	-11.76	9.94	1.12	-0.1345	0.4234	-0.2285	
0.120414	-1.015894	-0.259128	-7.21	4.34	-1.75	-0.1246	0.4248	-0.2332	
0.134566	-1.041758	-0.25193	-2.66	-0.49	-2.73	-0.1303	0.428	-0.2253	
0.16653	-1.022238	-0.245342	2.59	-5.18	-2.66	-0.1316	0.4203	-0.2301	
0.179706	-0.991616	-0.256322	3.64	-7	-1.12	-0.143	0.416	-0.224	
0.172996	-1.011868	-0.267058	5.04	-4.55	0.28	-0.1374	0.4295	-0.23	
0.155794	-1.036634	-0.277672	5.74	-1.61	2.17	-0.1402	0.425	-0.2317	
0.146644	-1.05347	-0.271938	7.56	-1.89	3.57	-0.1387	0.4159	-0.2255	
0.154696	-1.053226	-0.269132	9.87	-2.94	3.78	-0.1317	0.4294	-0.2331	
0.16287	-1.034316	-0.260714	12.67	-2.59	5.11	-0.133	0.4157	-0.238	
0.15555	-0.98515	-0.255834	16.1	0.21	5.53	-0.1374	0.4248	-0.2379	
0.155306	-0.98332	-0.2379	15.12	0.07	5.25	-0.1345	0.4187	-0.2395	
0.155062	-1.011258	-0.245586	17.08	0.49	6.79	-0.1345	0.4187	-0.2411	
0.141764	-1.024312	-0.244244	20.02	0.7	6.16	-0.1289	0.4199	-0.2551	
0.14152	-1.032364	-0.2379	24.01	0.14	5.18	-0.1246	0.4199	-0.252	
0.135664	-1.02541	-0.234728	27.86	1.89	4.41	-0.1274	0.417	-0.2489	
0.12505	-1.026508	-0.236802	30.59	2.1	2.45	-0.1203	0.4137	-0.2552	
0.12444	-1.027484	-0.224358	35.49	2.24	1.75	-0.1331	0.4138	-0.2599	
0.126148	-1.007598	-0.213012	38.43	1.4	2.03	-0.1316	0.4108	-0.2584	
0.111874	-1.000644	-0.203252	40.6	1.4	0.63	-0.1302	0.406	-0.271	
0.102724	-1.02785	-0.183976	41.65	-0.63	-3.01	-0.1331	0.4058	-0.2851	
0.122854	-1.05957	-0.147742	46.83	-2.31	-4.76	-0.1345	0.3998	-0.2836	
0.13298	-1.049932	-0.133956	54.32	-1.26	-4.9	-0.1274	0.4026	-0.296	
0.14152	-1.024068	-0.097844	58.59	-3.01	-6.16	-0.1288	0.398	-0.2961	
0.137494	-1.00772	-0.038918	60.06	-2.52	-8.05	-0.1344	0.3842	-0.3089	
0.138958	-0.972706	0.003172	60.9	-1.96	-8.12	-0.1316	0.3871	-0.3182	
0.146034	-0.947086	0.006344	56.63	-5.04	-7.84	-0.1429	0.375	-0.3169	
0.155306	-0.932934	0.0549	59.15	-2.87	-7.77	-0.143	0.381	-0.3277	
0.167872	-0.960018	0.068686	57.19	-7.49	-10.08	-0.1373	0.3731	-0.3403	
0.17507	-0.991006	0.084912	61.11	-3.29	-13.09	-0.1501	0.3716	-0.3498	
0.1525	-0.986614	0.106628	62.51	3.36	-17.5	-0.1528	0.3549	-0.3485	
0.149938	-0.956724	0.12078	59.43	9.45	-19.88	-0.1485	0.347	-0.3673	
0.15006	-0.932568	0.140788	55.09	10.99	-20.02	-0.1528	0.3484	-0.3783	
0.171654	-0.92903	0.164822	55.79	3.01	-16.24	-0.1513	0.3424	-0.3706	
0.17629	-0.919636	0.18361	56.77	1.61	-13.58	-0.1541	0.3285	-0.3849	
0.183244	-0.929762	0.199348	55.44	2.38	-13.79	-0.1569	0.3254	-0.3912	
0.17385	-0.935496	0.235216	54.95	0.63	-16.1	-0.164	0.3193	-0.4022	
0.190686	-0.853268	0.29158	51.8	1.47	-12.67	-0.1582	0.3069	-0.4102	
0.219478	-0.824354	0.32147	45.92	1.47	-11.41	-0.171	0.3055	-0.4103	
0.2257	-0.82472	0.33062	38.43	1.96	-10.15	-0.1582	0.3023	-0.4119	
0.232166	-0.85217	0.330498	31.71	-0.14	-10.15	-0.1567	0.2977	-0.4119	
0.233508	-0.88145	0.324032	26.46	0.42	-13.93	-0.1624	0.2916	-0.4199	
0.238754	-0.895236	0.316346	23.87	1.75	-14.07	-0.1724	0.2932	-0.423	
0.231312	-0.90219	0.308416	23.31	1.82	-13.37	-0.1623	0.2855	-0.42	
0.230946	-0.91073	0.306586	23.03	1.82	-11.62	-0.1609	0.2778	-0.4248	
0.224602	-0.917196	0.306098	23.59	1.33	-9.87	-0.1708	0.2748	-0.4295	
0.233386	-0.923906	0.30683	24.5	0.21	-9.1	-0.1665	0.2702	-0.4343	
0.254492	-0.924028	0.31842	26.32	-1.33	-8.89	-0.1608	0.2763	-0.4263	
0.267546	-0.922686	0.330376	27.44	-2.66	-6.79	-0.1594	0.2638	-0.4197	
0.289018	-0.919392	0.340624	28.07	-4.06	-4.27	-0.1707	0.2672	-0.4297	
0.310856	-0.906216	0.359778	28.7	-3.92	-0.28	-0.1692	0.2611	-0.4313	
0.320982	-0.883036	0.369294	27.93	-1.96	3.43	-0.1707	0.261	-0.4391	
0.311344	-0.884622	0.364048	26.46	0.42	4.55	-0.1721	0.2533	-0.4455	
0.283894	-0.888282	0.35258	26.74	1.33	4.06	-0.1764	0.2532	-0.4549	
0.27267	-0.88816	0.340868	28.35	0.98	2.66	-0.172	0.2503	-0.4471	
0.26352	-0.910242	0.33733	32.41	0.77	1.89	-0.1819	0.2366	-0.4521	
0.251442	-0.920246	0.34282	37.94	1.75	0.7	-0.1678	0.2408	-0.4676	
0.252662	-0.91073	0.350506	43.47	1.82	0.14	-0.1706	0.2455	-0.4581	
0.258762	-0.90707	0.349652	47.53	2.1	0.07	-0.1706	0.2377	-0.4708	
0.267302	-0.91866	0.34099	51.52	2.38	0.63	-0.1718	0.218	-0.4664	
0.263886	-0.923052	0.346846	56.28	6.09	1.26	-0.1746	0.2165	-0.4695	
0.23241	-0.89975	0.370758	60.62	10.5	2.8	-0.1732	0.2056	-0.4838	
0.235094	-0.84973	0.399672	64.89	14.56	6.86	-0.1658	0.1795	-0.4695	
0.23302	-0.842654	0.423218	69.51	13.3	4.83	-0.1601	0.1779	-0.4967	
0.213744	-0.82167	0.454816	73.15	14.14	2.24	-0.1616	0.1825	-0.4966	
0.224114	-0.797636	0.485438	74.55	12.81	-0.07	-0.1657	0.1642	-0.5032	
0.233386	-0.775554	0.482876	75.39	12.6	-3.5	-0.1685	0.155	-0.5096	
0.199104	-0.77836	0.481778	76.09	12.67	-5.11	-0.1541	0.1458	-0.5081	
0.178364	-0.758962	0.476898	79.24	12.32	-4.27	-0.1583	0.1305	-0.489	
0.184586	-0.729316	0.487512	83.16	10.08	-4.48	-0.1539	0.1197	-0.5226	
0.175558	-0.707356	0.515206	87.01	6.37	-3.29	-0.1481	0.1013	-0.5306	
0.183488	-0.68076	0.569862	89.88	2.59	-0.7	-0.1523	0.1014	-0.5275	
0.184342	-0.657824	0.641232	92.26	0.14	-2.17	-0.1579	0.08	-0.5132	
0.206668	-0.617076	0.677344	93.38	-1.54	-3.99	-0.1476	0.0602	-0.5313	
0.224846	-0.576206	0.70577	93.38	-0.07	-4.69	-0.1475	0.0465	-0.5362	
0.23485	-0.530456	0.715286	92.4	2.66	-4.97	-0.1475	0.0373	-0.5154	
0.237412	-0.503372	0.742492	90.86	4.2	-6.72	-0.1558	0.0176	-0.5445	
0.218502	-0.483852	0.769454	91.84	4.06	-8.47	-0.1558	0.0144	-0.5555	
0.213866	-0.448106	0.80398	94.22	2.94	-8.68	-0.1498	-0.0129	-0.5496	
0.215818	-0.390034	0.820816	98.07	4.76	-6.51	-0.1582	-0.0265	-0.5499	
0.216794	-0.323788	0.826062	98.98	7.84	-5.11	-0.1453	-0.0373	-0.5516	
0.22143	-0.257664	0.832406	96.74	10.22	-4.34	-0.1365	-0.0601	-0.5456	
0.22082	-0.210816	0.852414	92.61	12.95	-3.71	-0.1407	-0.0691	-0.5411	
0.209596	-0.184464	0.847534	90.37	13.3	-5.46	-0.1434	-0.0827	-0.5413	
0.20984	-0.166408	0.87657	87.64	14.7	-7.14	-0.1402	-0.107	-0.5339	
0.205204	-0.16409	0.88755	85.05	15.54	-7.91	-0.1274	-0.1134	-0.5449	
0.19337	-0.153232	0.906216	84.77	13.86	-9.31	-0.1387	-0.1239	-0.5435	
0.18727	-0.135786	0.921832	84.21	14.07	-8.61	-0.1286	-0.1361	-0.539	
0.180072	-0.096868	0.92476	84.77	12.25	-6.37	-0.1256	-0.1421	-0.5313	
0.175192	-0.062586	0.94001	84.21	11.69	-5.18	-0.1339	-0.1663	-0.5301	
0.170922	-0.022082	0.96441	83.16	10.64	-5.46	-0.1282	-0.1709	-0.5333	
0.17385	0.005734	0.999058	81.34	9.31	-6.86	-0.1293	-0.192	-0.5196	
0.165066	0.037942	0.995154	79.31	8.75	-7.77	-0.1165	-0.1982	-0.5196	
0.164212	0.07076	1.004792	76.58	9.45	-7.7	-0.1177	-0.2164	-0.5183	
0.174094	0.104798	0.998448	73.01	9.73	-8.61	-0.1077	-0.2226	-0.5153	
0.162138	0.128832	0.985516	69.93	10.78	-10.01	-0.1118	-0.2269	-0.5013	
0.134444	0.15494	0.97478	65.8	9.94	-10.71	-0.1089	-0.2359	-0.4967	
0.113094	0.186782	0.95831	62.72	8.68	-10.92	-0.0988	-0.2482	-0.4937	
0.114192	0.21045	0.963922	59.64	4.83	-11.83	-0.1072	-0.2525	-0.5116	
0.123342	0.223626	1.032364	56.14	-0.91	-11.76	-0.1014	-0.2663	-0.4909	
0.15494	0.267302	1.079822	53.41	-3.92	-10.85	-0.1013	-0.2755	-0.4942	
0.186904	0.324642	1.109712	47.46	-4.41	-8.82	-0.0926	-0.2844	-0.4724	
0.196786	0.35014	1.113616	38.08	-3.5	-8.26	-0.094	-0.2876	-0.4818	
0.190076	0.332938	1.104954	30.31	-1.19	-9.52	-0.0883	-0.2859	-0.4677	
0.165432	0.319274	1.090558	25.34	-0.77	-12.6	-0.0954	-0.2888	-0.4678	
0.163358	0.33245	1.07604	22.4	-0.42	-13.09	-0.1025	-0.2965	-0.4758	
0.169824	0.352824	1.07238	18.48	-0.28	-10.92	-0.0909	-0.3039	-0.4571	
0.170922	0.367342	1.068354	13.51	-1.96	-10.08	-0.0924	-0.301	-0.4664	
0.181902	0.380274	1.059692	8.05	-1.82	-9.17	-0.0937	-0.3146	-0.4635	
0.171654	0.37576	1.051274	1.82	0.14	-5.81	-0.0937	-0.3116	-0.465	
0.161162	0.368074	1.058716	-3.78	-0.63	-3.64	-0.0853	-0.298	-0.4632	
0.160552	0.372466	1.06018	-9.52	-1.54	-1.75	-0.088	-0.3086	-0.4618	
0.147254	0.384178	1.059326	-14.63	-2.03	-0.21	-0.098	-0.3038	-0.4571	
0.126392	0.387594	1.056398	-22.19	-4.76	0.7	-0.09519999	-0.3071	-0.4681	
0.123342	0.358314	1.051274	-31.43	-11.34	1.89	-0.0953	-0.2964	-0.4664	
0.160064	0.338794	1.086044	-35.28	-12.74	0.14	-0.0926	-0.2874	-0.4678	
0.189832	0.345748	1.09434	-40.11	-14.21	-2.17	-0.0969	-0.2874	-0.4772	
0.20496	0.33733	1.090558	-45.78	-11.69	0.28	-0.1055	-0.2797	-0.4724	
0.208132	0.317078	1.08458	-51.17	-8.4	3.29	-0.09559999	-0.2723	-0.4785	
0.210816	0.300242	1.080066	-56.7	-6.09	3.71	-0.1056	-0.2645	-0.4768	
0.214964	0.283772	1.076284	-62.37	-4.62	5.39	-0.1029	-0.2648	-0.494	
0.224358	0.268156	1.072868	-68.25	-3.15	7.56	-0.1044	-0.2525	-0.486	
0.221308	0.248636	1.058106	-75.39	-0.21	10.22	-0.1074	-0.2405	-0.4968	
0.211182	0.224114	1.040904	-82.95	0.98	11.55	-0.0962	-0.2288	-0.5153	
0.202398	0.189344	1.02053	-91.28	2.59	13.65	-0.1048	-0.2256	-0.5122	
0.188978	0.146644	0.981734	-98.63	4.06	14.49	-0.1092	-0.2074	-0.5182	
0.178242	0.096136	0.948062	-104.58	5.04	15.47	-0.1051	-0.1969	-0.5242	
0.168604	0.045628	0.915366	-108.01	4.27	16.24	-0.1081	-0.1832	-0.524	
0.15189	-0.008905999	0.867786	-110.67	3.36	16.24	-0.114	-0.1666	-0.5363	
0.145302	-0.073444	0.840458	-112.84	2.52	15.82	-0.1072	-0.144	-0.5468	
0.150182	-0.130662	0.8113	-111.93	3.22	17.15	-0.1144	-0.1302	-0.542	
0.150914	-0.191418	0.777872	-110.67	4.76	16.52	-0.1104	-0.1077	-0.5572	
0.149328	-0.236802	0.751642	-109.55	4.48	15.33	-0.1163	-0.0878	-0.5538	
0.161894	-0.293654	0.727364	-109.97	4.2	14.21	-0.1121	-0.0801	-0.5459	
0.151402	-0.374296	0.712602	-109.06	3.29	12.11	-0.1054	-0.0485	-0.5625	
0.13603	-0.460794	0.698816	-106.05	1.12	10.29	-0.1139	-0.0453	-0.5594	
0.12871	-0.535702	0.696498	-101.57	-1.68	9.03	-0.1185	-0.0134	-0.5636	
0.12261	-0.586698	0.68564	-95.97	-3.71	9.66	-0.1187	0.0033	-0.5586	
0.10431	-0.595848	0.665388	-89.95	-5.67	10.71	-0.1161	0.0229	-0.5614	
0.094916	-0.599386	0.646722	-84.91	-8.61	11.13	-0.1174	0.0187	-0.5412	
0.123464	-0.60878	0.6283	-83.3	-14.77	8.54	-0.1133	0.0367	-0.5565	
0.136518	-0.639036	0.627934	-82.32	-17.99	7	-0.1206	0.0551	-0.5516	
0.137006	-0.66673	0.614026	-80.85	-19.81	5.18	-0.1279	0.0704	-0.5482	
0.149694	-0.700768	0.600118	-78.19	-19.95	5.53	-0.1151	0.07319999	-0.556	
0.161406	-0.728096	0.59597	-74.55	-20.37	4.55	-0.1323	0.0856	-0.5511	
0.17385	-0.741516	0.598654	-70.49	-20.86	2.1	-0.1323	0.09339999	-0.5354	
0.198616	-0.752618	0.58865	-67.55	-21.07	0	-0.1254	0.107	-0.5351	
0.210938	-0.767502	0.574742	-64.47	-17.5	0.35	-0.1354	0.1133	-0.532	
0.20191	-0.78202	0.55388	-60.97	-13.72	0.42	-0.1484	0.1302	-0.5302	
0.194224	-0.798612	0.528504	-57.4	-10.29	-0.14	-0.1342	0.1347	-0.5254	
0.208986	-0.813496	0.53009	-53.69	-7.98	-2.24	-0.1471	0.147	-0.5205	
0.202154	-0.807274	0.52399	-50.12	-6.02	-3.22	-0.1499	0.1471	-0.5174	
0.20679	-0.803492	0.504104	-48.51	-6.44	-6.44	-0.1414	0.1593	-0.5063	
0.216062	-0.830088	0.494954	-47.25	-5.11	-6.65	-0.1502	0.1746	-0.5107	
0.212768	-0.839116	0.482266	-44.1	-2.17	-4.27	-0.1516	0.1761	-0.5092	
0.209962	-0.832528	0.486536	-41.58	-1.54	-3.36	-0.1473	0.1747	-0.4982	
0.209474	-0.824476	0.487634	-40.46	-1.82	-2.73	-0.153	0.1748	-0.4951	
0.230092	-0.840336	0.491294	-42.7	-3.29	-2.87	-0.139	0.1974	-0.5025	
0.22814	-0.863516	0.475678	-43.12	-2.17	-0.98	-0.1561	0.2099	-0.4915	
0.22326	-0.87108	0.456158	-42.98	-0.98	0.84	-0.1446	0.1915	-0.4917	
0.227286	-0.862296	0.453596	-42.49	-0.42	2.1	-0.1575	0.2069	-0.4884	
0.223504	-0.853878	0.451156	-42.63	-0.98	2.24	-0.1604	0.2085	-0.4852	
0.213744	-0.85034	0.438102	-44.38	-0.98	3.15	-0.1447	0.2084	-0.4789	
0.213988	-0.872788	0.419314	-45.5	-0.28	4.27	-0.1562	0.2253	-0.4771	
0.206546	-0.8906	0.402356	-44.24	0.14	4.9	-0.1505	0.2208	-0.4725	
0.199958	-0.895602	0.388326	-41.72	1.12	5.6	-0.1521	0.2469	-0.4565	
0.205936	-0.901702	0.380518	-39.83	1.12	6.65	-0.1407	0.2421	-0.4643	
0.208498	-0.908046	0.367464	-38.36	1.68	6.3	-0.1493	0.2528	-0.461	
0.200568	-0.912926	0.357582	-36.82	1.96	5.88	-0.1522	0.2574	-0.4626	
0.19703	-0.910852	0.346846	-35.14	2.45	5.6	-0.1508	0.2591	-0.4531	
0.191662	-0.906948	0.340868	-33.88	2.45	5.32	-0.1424	0.2711	-0.4514	
0.194468	-0.910974	0.338794	-33.46	2.73	5.95	-0.1452	0.2744	-0.4372	
0.192272	-0.909266	0.334036	-33.25	2.73	5.88	-0.1424	0.2804	-0.445	
0.18544	-0.906216	0.318786	-34.23	2.24	4.9	-0.148	0.2746	-0.431	
0.186782	-0.90646	0.304268	-35.14	2.17	3.92	-0.1382	0.2866	-0.4323	
0.187392	-0.910608	0.30012	-35.84	1.96	3.64	-0.1382	0.2866	-0.4323	
0.1769	-0.915488	0.289262	-36.75	2.31	4.06	-0.1382	0.2882	-0.4245	
0.17141	-0.915854	0.286212	-38.64	1.33	4.2	-0.144	0.3005	-0.4228	
0.163358	-0.913414	0.2806	-40.67	0.14	5.18	-0.1525	0.2977	-0.415	
0.162382	-0.910486	0.282186	-44.1	-1.89	6.72	-0.1469	0.3097	-0.4179	
0.171166	-0.91317	0.266326	-46.2	-4.55	7.28	-0.1427	0.3189	-0.4115	
0.182512	-0.931348	0.251564	-47.95	-5.74	5.81	-0.1412	0.3143	-0.4085	
0.19276	-0.94672	0.233508	-47.67	-6.02	5.6	-0.1412	0.3146	-0.3928	
0.191418	-0.967216	0.21472	-47.53	-4.62	7	-0.1357	0.3295	-0.4051	
0.172142	-0.985028	0.194102	-45.57	-2.94	7.84	-0.1343	0.3405	-0.3861	
0.1525	-0.996374	0.177998	-42.42	-1.12	8.19	-0.1271	0.3374	-0.3846	
0.14945	-0.979416	0.174582	-37.87	-1.26	7.35	-0.1385	0.3438	-0.3689	
0.157624	-0.950746	0.164456	-34.09	-3.08	6.16	-0.1342	0.3422	-0.372	
0.161528	-0.938302	0.156526	-33.46	-5.81	4.48	-0.1258	0.3482	-0.3719	
0.157502	-0.937082	0.15372	-33.88	-7.7	5.04	-0.1373	0.3589	-0.3718	
0.165066	-0.941474	0.141642	-35.14	-9.66	5.95	-0.1287	0.3575	-0.3624	
0.172752	-0.953186	0.089182	-38.43	-10.01	7.42	-0.1259	0.3636	-0.356	
0.162138	-0.968314	0.039894	-40.53	-8.47	7.63	-0.133	0.3654	-0.3467	
0.154452	-0.998936	-0.00244	-41.72	-9.17	6.3	-0.1288	0.373	-0.3434	
0.149938	-1.037122	-0.024766	-40.95	-11.55	3.78	-0.126	0.3806	-0.3386	
0.16104	-1.05103	-0.025864	-40.53	-13.58	0.07	-0.1387	0.3809	-0.3308	
0.168604	-1.045906	-0.041358	-40.39	-17.43	-4.41	-0.1345	0.3822	-0.337	
0.174826	-1.028094	-0.08845	-36.19	-16.03	-6.58	-0.1316	0.3841	-0.3151	
0.188246	-1.029558	-0.099674	-32.13	-14.49	-5.95	-0.1402	0.3857	-0.3136	
0.178486	-1.031998	-0.093696	-30.03	-12.32	-3.43	-0.1331	0.3934	-0.3296	
0.145546	-1.025898	-0.092476	-27.93	-5.04	-1.19	-0.1416	0.3874	-0.3057	
0.130052	-1.012722	-0.081862	-28.63	-1.89	0.21	-0.1329	0.3828	-0.2979	
0.142496	-0.987468	-0.09272	-26.18	2.38	2.17	-0.1401	0.3921	-0.2931	
0.150426	-0.98454	-0.09394	-25.76	1.19	3.71	-0.1416	0.3936	-0.2978	
0.154452	-1.004792	-0.09211	-22.89	-1.05	4.34	-0.1373	0.3982	-0.2883	
0.15494	-1.012112	-0.091012	-19.25	-0.35	4.9	-0.1345	0.4043	-0.2882	
0.155916	-1.003206	-0.108824	-16.94	1.47	4.13	-0.1274	0.4044	-0.2757	
0.146644	-1.015162	-0.127734	-16.87	1.61	3.5	-0.1374	0.409	-0.2819	
0.1403	-1.065426	-0.141276	-15.12	1.26	4.55	-0.1416	0.403	-0.2773	
0.135176	-1.089704	-0.133956	-8.61	1.19	5.53	-0.1359	0.4045	-0.2757	
0.127002	-1.046272	-0.127368	-3.43	0.84	5.6	-0.1232	0.4073	-0.2834	
0.12932	-1.020408	-0.131028	-1.33	0.35	5.39	-0.1259	0.4029	-0.2757	
0.130784	-1.03517	-0.138226	-0.28	1.33	5.53	-0.1289	0.4165	-0.2802	
0.121146	-1.04188	-0.142496	0.56	0.91	6.37	-0.1273	0.3999	-0.2679	
0.127124	-1.020286	-0.142984	4.83	-0.42	5.81	-0.1302	0.4059	-0.2757	
0.130418	-1.002718	-0.145912	7.14	-2.1	4.27	-0.1274	0.4044	-0.2773	
0.128222	-1.011136	-0.14457	8.33	-0.98	3.99	-0.1217	0.4043	-0.2804	
0.12993	-1.00894	-0.143594	8.82	2.8	3.71	-0.1174	0.4089	-0.2724	
0.120292	-1.010648	-0.15067	10.08	3.57	1.68	-0.1288	0.3967	-0.2836	
0.11895	-1.016626	-0.144692	10.01	5.88	1.05	-0.1246	0.4011	-0.2914	
0.118462	-1.01809	-0.140422	9.8	9.38	1.12	-0.126	0.4088	-0.2819	
0.121756	-1.014796	-0.13847	11.62	11.06	0.35	-0.1203	0.4089	-0.274	
0.12383	-1.029436	-0.137494	13.86	12.95	-0.56	-0.1203	0.4088	-0.2787	
0.135298	-1.047858	-0.125294	14.91	13.79	-0.98	-0.1274	0.3996	-0.2898	
0.14457	-1.048834	-0.121634	17.92	15.33	-0.63	-0.1259	0.395	-0.2915	
0.13603	-1.041758	-0.11529	22.96	17.71	-0.56	-0.1246	0.3979	-0.2992	
0.119926	-1.040904	-0.094306	25.97	15.61	-1.26	-0.1189	0.4024	-0.3023	
0.12261	-1.039074	-0.077104	30.73	13.93	-1.47	-0.1132	0.4008	-0.3007	
0.112484	-1.020896	-0.06405	34.23	12.11	-1.33	-0.1202	0.3917	-0.3024	
0.115778	-1.007232	-0.046726	34.79	10.08	-0.49	-0.1275	0.3992	-0.318	
0.121268	-1.006134	-0.032818	34.23	8.33	-0.28	-0.1231	0.3869	-0.3228	
0.12383	-1.001864	-0.025864	34.23	5.88	-0.28	-0.1202	0.3869	-0.3181	
0.129808	-1.000034	-0.011102	35.49	5.18	0.21	-0.1203	0.3852	-0.3322	
0.132614	-1.00528	0.005002	35.84	3.08	-0.49	-0.1231	0.3761	-0.3355	
0.13298	-1.012844	0.02928	37.52	0.49	-1.05	-0.1145	0.3806	-0.3323	
0.123098	-0.989786	0.051606	38.36	-3.22	-1.75	-0.1244	0.3668	-0.3435	
0.123342	-0.959286	0.061854	36.89	-5.39	-2.17	-0.1174	0.3789	-0.3417	
0.144814	-0.950014	0.082472	34.86	-5.88	-1.75	-0.1202	0.3712	-0.3512	
0.160308	-0.971974	0.085156	34.23	-6.44	-2.66	-0.1301	0.3592	-0.3514	
0.157624	-1.02968	0.10614	38.99	-6.23	-6.65	-0.1287	0.3605	-0.3608	
0.117974	-1.016626	0.12017	44.59	-3.71	-10.99	-0.1301	0.3621	-0.3592	
0.152622	-1.046028	0.159332	46.83	1.82	-15.12	-0.1257	0.3451	-0.3735	
0.05856	-0.941718	0.202642	48.51	9.87	-16.59	-0.1386	0.3482	-0.3767	
0.120658	-0.84485	0.22936	38.22	7.56	-9.73	-0.1257	0.3328	-0.3862	
0.170068	-0.853634	0.252662	34.16	1.89	-12.04	-0.1414	0.3328	-0.3941	
0.156648	-0.861198	0.261568	34.16	0.21	-11.27	-0.1313	0.325	-0.4004	
0.182878	-0.920246	0.259616	30.24	-2.52	-10.29	-0.1384	0.3175	-0.4006	
0.170434	-0.933788	0.273768	29.61	-1.33	-10.85	-0.1356	0.325	-0.4051	
0.172508	-0.91866	0.286334	28	-1.05	-9.87	-0.1313	0.3188	-0.4099	
0.191296	-0.899262	0.300608	24.29	-1.19	-7.63	-0.1427	0.3128	-0.4132	
0.20923	-0.897554	0.317688	21.63	-1.47	-6.51	-0.1441	0.3143	-0.4147	
0.203252	-0.896212	0.32574	19.81	-2.8	-6.37	-0.1427	0.3143	-0.4116	
0.214354	-0.895968	0.32879	17.5	-4.69	-4.62	-0.1383	0.302	-0.4211	
0.231068	-0.911584	0.333182	15.19	-4.69	-2.1	-0.154	0.3022	-0.4197	
0.220454	-0.911828	0.3355	14.56	-2.66	-0.14	-0.1467	0.2869	-0.4199	
0.225212	-0.905484	0.340014	12.88	-2.52	0.84	-0.144	0.3051	-0.4196	
0.222406	-0.895114	0.33672	11.13	-2.31	0.84	-0.1483	0.3005	-0.4275	
0.22448	-0.901824	0.335256	8.96	-2.1	0.56	-0.1469	0.305	-0.4258	
0.225456	-0.915976	0.334402	7.98	-1.96	1.19	-0.1369	0.3003	-0.4305	
0.22265	-0.915244	0.330132	9.03	-1.89	1.47	-0.144	0.2943	-0.4307	
0.222528	-0.91378	0.333914	8.4	-2.45	1.19	-0.1482	0.2959	-0.4275	
0.220454	-0.917562	0.331108	7.84	-1.47	0.84	-0.148	0.2761	-0.4325	
0.218014	-0.921222	0.333914	7.56	-0.84	1.12	-0.1298	0.3002	-0.4321	
0.218624	-0.91866	0.333792	7.91	-0.84	1.12	-0.1425	0.2929	-0.4213	
0.221308	-0.915854	0.333426	8.05	-0.98	1.33	-0.1567	0.2822	-0.4325	
0.223138	-0.918904	0.337574	7.56	-0.91	1.82	-0.151	0.2899	-0.423	
0.21899	-0.923662	0.34221	6.72	-0.42	2.45	-0.1453	0.2897	-0.4323	
0.217404	-0.916708	0.343918	5.95	0.21	2.8	-0.1424	0.2806	-0.4293	
0.205814	-0.909388	0.342942	4.48	2.03	3.71	-0.1424	0.2806	-0.4324	
0.191784	-0.910364	0.340502	2.45	3.01	3.57	-0.1311	0.2911	-0.4322	
0.184342	-0.90585	0.338428	1.68	2.94	3.29	-0.1454	0.2943	-0.4276	
0.177876	-0.91073	0.33794	0.77	2.66	2.94	-0.1369	0.2926	-0.4385	
0.172874	-0.90951	0.332084	0.28	2.52	2.24	-0.1354	0.2864	-0.4401	
0.171654	-0.915366	0.331596	-0.49	2.52	1.4	-0.1466	0.2792	-0.4247	
0.169458	-0.919148	0.33123	-1.19	2.38	0.63	-0.1453	0.2836	-0.434	
0.171898	-0.925126	0.330254	-1.33	2.45	0	-0.1396	0.2851	-0.4292	
0.166774	-0.92537	0.330864	-1.12	2.31	-0.35	-0.1339	0.2849	-0.4386	
0.167994	-0.926468	0.327326	-1.26	1.89	-0.21	-0.1383	0.2957	-0.4353	
0.167994	-0.929396	0.326716	-1.33	1.47	-0.07	-0.1382	0.2836	-0.4308	
0.167384	-0.932324	0.32757	-1.4	1.12	0.07	-0.1382	0.2864	-0.4192	
0.17446	-0.931348	0.329522	-1.26	0.7	0.28	-0.131	0.2803	-0.4418	
0.181902	-0.924028	0.329766	-1.61	0.63	1.19	-0.1468	0.2897	-0.4339	
0.181902	-0.924882	0.325984	-2.38	0.91	1.89	-0.1467	0.282	-0.4387	
0.175314	-0.930128	0.32086	-2.52	1.75	2.24	-0.1368	0.2942	-0.4275	
0.170434	-0.928786	0.31354	-2.03	1.82	1.54	-0.1339	0.2835	-0.4324	
0.168726	-0.925126	0.311344	-1.61	1.26	0.56	-0.144	0.2957	-0.44	
0.168482	-0.925126	0.311954	-1.26	1.19	-0.63	-0.1439	0.285	-0.4433	
0.16897	-0.923662	0.317566	-1.12	1.12	-1.75	-0.1354	0.2942	-0.4306	
0.176656	-0.92598	0.31964	-1.19	0.28	-2.45	-0.1283	0.2956	-0.4337	
0.182512	-0.92537	0.325252	-1.19	0	-2.66	-0.1369	0.3033	-0.4321	
0.180438	-0.929762	0.321348	-1.82	0.21	-2.8	-0.1424	0.2836	-0.434	
0.181414	-0.928664	0.31903	-2.52	0.49	-2.1	-0.1397	0.2957	-0.4322	
0.183854	-0.929884	0.309758	-2.59	1.26	-1.82	-0.1355	0.3003	-0.429	
0.182512	-0.932934	0.305	-2.52	0.91	-2.24	-0.1354	0.2927	-0.4275	
0.184098	-0.940132	0.304634	-1.61	0.63	-2.31	-0.1339	0.2851	-0.4292	
0.184342	-0.934764	0.307318	-0.56	0.35	-2.52	-0.1355	0.2987	-0.4337	
0.18544	-0.935008	0.30866	-0.14	-0.21	-2.38	-0.1439	0.2929	-0.4244	
0.195688	-0.93147	0.30744	0.28	-0.98	-1.96	-0.144	0.2958	-0.4291	
0.19703	-0.94001	0.312076	0.28	-0.91	-1.19	-0.1454	0.2974	-0.4259	
0.198616	-0.93269	0.310978	0.77	-0.35	-0.28	-0.1425	0.2912	-0.4338	
0.200812	-0.92903	0.31232	0.21	-0.14	0.14	-0.1326	0.2973	-0.4259	
0.197884	-0.926224	0.31171	0	-0.07	0.14	-0.1354	0.2834	-0.4433	
0.198494	-0.924638	0.315736	-0.07	0	0.07	-0.1367	0.2774	-0.4372	
0.19825	-0.920368	0.319274	-0.14	-0.21	-0.35	-0.1411	0.285	-0.4402	
0.198982	-0.92232	0.319518	-0.56	-0.56	-0.56	-0.1397	0.2972	-0.4337	
0.200446	-0.925248	0.318054	-1.05	-0.49	-0.63	-0.141	0.2882	-0.4308	
0.198616	-0.927566	0.316468	-1.33	0	-0.49	-0.1381	0.2852	-0.4261	
0.198372	-0.93086	0.315492	-1.61	0.14	-0.21	-0.1496	0.2928	-0.4338	
0.198616	-0.930982	0.315614	-1.54	0.14	0	-0.1425	0.2912	-0.4338	
0.200202	-0.92964	0.314516	-1.47	0.56	0.21	-0.1397	0.2911	-0.4385	
0.19581	-0.932324	0.31232	-1.47	0.77	0.56	-0.134	0.2957	-0.429	
0.19276	-0.930616	0.311954	-1.54	0.84	0.98	-0.1383	0.3003	-0.4337	
0.183854	-0.926956	0.308172	-1.75	1.12	1.47	-0.134	0.2971	-0.4353	
0.177998	-0.933544	0.307562	-1.96	0.91	1.47	-0.1411	0.2958	-0.4306	
0.173606	-0.93635	0.307196	-1.47	0.35	1.05	-0.1426	0.3005	-0.4212	
0.173484	-0.935252	0.306464	-0.91	-0.77	0.49	-0.1426	0.2957	-0.4338	
0.171044	-0.929884	0.305488	-0.77	-1.12	0.28	-0.1396	0.2865	-0.437	
0.16592	-0.932812	0.302804	-1.12	-1.33	0.35	-0.1396	0.2913	-0.4244	
0.165188	-0.927566	0.304634	-1.19	-1.75	0.07	-0.1483	0.2973	-0.4338	
0.162748	-0.925858	0.304512	-1.47	-2.1	-0.77	-0.1412	0.3019	-0.4305	
0.16043	-0.926102	0.304024	-1.47	-3.15	-2.94	-0.1425	0.2913	-0.426	
0.166286	-0.928664	0.301584	-1.54	-4.48	-3.92	-0.1368	0.2881	-0.4323	
0.17141	-0.933178	0.29951	-1.26	-5.11	-4.62	-0.1326	0.2989	-0.4212	
0.173118	-0.933178	0.29951	-1.19	-4.76	-4.97	-0.1482	0.2944	-0.426	
0.17629	-0.930616	0.299022	-1.19	-4.62	-5.81	-0.1368	0.2944	-0.4181	
0.17873	-0.931836	0.297436	-1.05	-5.11	-6.93	-0.1454	0.2943	-0.4291	
0.18422	-0.927932	0.301096	-0.7	-5.53	-7.35	-0.1453	0.2882	-0.4308	
0.1952	-0.923296	0.300974	-0.35	-6.02	-7.77	-0.1495	0.2854	-0.4183	
0.208132	-0.911828	0.294142	-0.56	-5.74	-8.33	-0.1439	0.2959	-0.4213	
0.218014	-0.931348	0.288408	-1.82	-6.58	-9.03	-0.1511	0.2897	-0.437	
0.212646	-0.952332	0.296338	-1.26	-7.07	-8.82	-0.1495	0.2869	-0.4183	
0.228506	-0.93086	0.300242	0.28	-7.21	-7.21	-0.1553	0.2944	-0.4292	
0.241316	-0.913658	0.297314	-0.7	-6.3	-6.37	-0.161	0.3008	-0.4135	
0.233996	-0.924516	0.291702	-1.75	-6.23	-7.14	-0.1582	0.2945	-0.426	
0.254492	-0.913536	0.291458	-0.63	-6.93	-7.21	-0.1653	0.296	-0.4307	
0.263398	-0.917196	0.294142	-0.7	-6.72	-7.49	-0.1652	0.287	-0.4246	
0.251686	-0.918416	0.288286	-0.91	-5.6	-7.77	-0.1682	0.3008	-0.4213	
0.254858	-0.92293	0.295606	-1.68	-5.11	-6.79	-0.1566	0.2824	-0.4231	
0.246928	-0.92659	0.303292	-2.03	-4.34	-6.72	-0.1711	0.3052	-0.4306	
0.233874	-0.904508	0.295972	-1.75	-3.85	-6.44	-0.1595	0.287	-0.4184	
0.216916	-0.890356	0.280722	-2.73	-3.01	-6.72	-0.1582	0.2914	-0.4308	
0.199348	-0.909144	0.281454	-4.41	-3.85	-8.47	-0.1694	0.2841	-0.42	
0.20313	-0.928786	0.294142	-2.73	-6.79	-12.39	-0.1724	0.2917	-0.4215	
0.207034	-0.923784	0.298412	-0.98	-8.26	-15.05	-0.1724	0.2948	-0.4199	
0.20801	-0.90707	0.286822	-0.21	-8.68	-18.55	-0.1753	0.2979	-0.4183	
0.21045	-0.911584	0.285968	-0.35	-8.89	-21.28	-0.178	0.2903	-0.4184	
0.21899	-0.906216	0.28975	0.49	-9.1	-24.99	-0.1937	0.2859	-0.4185	
0.225578	-0.903044	0.293288	0.91	-10.01	-27.58	-0.1908	0.2858	-0.4232	
0.23973	-0.889014	0.305732	1.19	-10.5	-28.91	-0.1906	0.2692	-0.4172	
0.267058	-0.881572	0.315004	-0.63	-11.41	-30.17	-0.202	0.2648	-0.4142	
0.288652	-0.90097	0.315004	-2.66	-12.04	-30.94	-0.1992	0.2723	-0.4188	
0.304268	-0.89975	0.30744	-3.78	-10.71	-30.17	-0.205	0.2785	-0.4156	
0.329888	-0.888404	0.292556	-6.16	-9.31	-29.82	-0.212	0.271	-0.4141	
0.345504	-0.89243	0.274256	-8.89	-7.49	-29.96	-0.2035	0.2739	-0.4156	
0.366976	-0.898896	0.25864	-9.52	-6.58	-29.89	-0.2106	0.2694	-0.4157	
0.37881	-0.901458	0.24705	-7.91	-6.3	-29.19	-0.2262	0.2666	-0.4096	
0.400038	-0.884744	0.238266	-6.72	-5.74	-27.58	-0.2276	0.2637	-0.405	
0.413824	-0.888526	0.240584	-6.58	-4.69	-27.44	-0.2263	0.2757	-0.4126	
0.412604	-0.888038	0.24217	-4.41	-2.73	-27.58	-0.2261	0.2544	-0.416	
0.42456	-0.868274	0.24766	-2.03	-2.24	-27.44	-0.2332	0.2592	-0.4275	
0.439444	-0.861198	0.252052	-1.47	-2.1	-27.72	-0.2347	0.2653	-0.4018	
0.427488	-0.861442	0.239852	-1.19	-2.45	-28.77	-0.2275	0.2559	-0.4145	
0.419436	-0.865224	0.234606	-0.28	-2.66	-29.05	-0.2504	0.2654	-0.405	
0.411994	-0.853024	0.22875	1.47	-2.03	-30.03	-0.2346	0.2546	-0.4067	
0.441762	-0.838994	0.24217	1.4	-4.13	-30.45	-0.2389	0.2607	-0.4097	
0.46604	-0.840214	0.243512	1.61	-5.81	-31.78	-0.253	0.2488	-0.4037	
0.455914	-0.848388	0.236558	2.66	-5.74	-31.78	-0.2572	0.2411	-0.4101	
0.456768	-0.837652	0.23485	4.34	-6.58	-31.29	-0.2573	0.2426	-0.4148	
0.460184	-0.813984	0.234606	6.72	-7.49	-31.01	-0.2701	0.2505	-0.4038	
0.468236	-0.798002	0.234118	7.28	-7.84	-32.34	-0.2671	0.2383	-0.4008	
0.480436	-0.800198	0.231922	7.28	-8.54	-35	-0.2729	0.2429	-0.4039	
0.49044	-0.803614	0.234972	10.36	-9.24	-39.83	-0.2756	0.2308	-0.4041	
0.51301	-0.7869	0.266326	11.41	-12.04	-41.16	-0.2756	0.2307	-0.4088	
0.53253	-0.773114	0.266936	12.18	-14.49	-42.35	-0.2898	0.2263	-0.4105	
0.539118	-0.752252	0.254492	11.13	-15.75	-41.72	-0.2911	0.2126	-0.4139	
0.542168	-0.746396	0.25254	8.19	-17.43	-41.51	-0.2953	0.2067	-0.403	
0.568398	-0.754692	0.263886	4.2	-20.16	-40.67	-0.2925	0.2113	-0.3983	
0.620858	-0.762988	0.282064	0.7	-24.85	-38.92	-0.3066	0.2039	-0.3953	
0.621712	-0.753716	0.277916	1.75	-23.31	-34.3	-0.3079	0.1872	-0.3924	
0.619516	-0.73566	0.246806	-0.28	-23.87	-28.49	-0.3121	0.1826	-0.3988	
0.62159	-0.75335	0.228994	-3.36	-24.15	-26.25	-0.3264	0.189	-0.3909	
0.636108	-0.74908	0.214598	-3.08	-27.02	-22.96	-0.3249	0.1844	-0.3894	
0.638792	-0.728706	0.205936	-0.49	-28.84	-23.1	-0.325	0.1921	-0.3846	
0.658312	-0.711382	0.19032	1.47	-30.8	-23.24	-0.3334	0.1846	-0.3817	
0.682468	-0.687714	0.179218	3.22	-31.57	-25.13	-0.3405	0.1755	-0.3912	
0.707844	-0.67344	0.162992	6.23	-31.92	-26.74	-0.3376	0.1787	-0.3786	
0.719068	-0.665388	0.162382	9.94	-31.71	-28.84	-0.3503	0.1698	-0.3726	
0.729926	-0.66551	0.158112	12.88	-30.45	-32.2	-0.3518	0.1743	-0.3725	
0.732488	-0.64477	0.161406	15.12	-28.98	-34.44	-0.3517	0.1668	-0.3664	
0.746762	-0.61	0.148596	17.57	-26.81	-37.31	-0.3503	0.1668	-0.368	
0.764574	-0.590846	0.159088	17.64	-28.21	-41.72	-0.3672	0.1534	-0.362	
0.768356	-0.573766	0.15799	18.2	-26.11	-47.25	-0.3728	0.149	-0.3814	
0.772992	-0.565958	0.144204	11.62	-27.09	-52.78	-0.3756	0.1383	-0.3351	
0.773724	-0.579622	0.124928	7.91	-33.11	-58.24	-0.3884	0.1401	-0.3513	
0.798246	-0.629276	0.100406	6.86	-29.33	-57.89	-0.3797	0.1278	-0.3562	
0.760792	-0.676612	0.04453	13.51	-23.1	-50.89	-0.3882	0.1188	-0.3564	
0.72224	-0.676124	0.051118	21.21	-23.87	-41.65	-0.4009	0.1099	-0.3472	
0.759938	-0.6222	0.10919	19.74	-31.5	-34.02	-0.4021	0.0948	-0.3459	
0.876692	-0.564006	0.159454	15.33	-35.42	-30.17	-0.4078	0.0948	-0.3459	
0.92781	-0.538508	0.142862	24.01	-33.11	-28.49	-0.412	0.0844	-0.3351	
0.923906	-0.543876	0.154696	26.25	-28.28	-24.29	-0.4119	0.0799	-0.3321	
0.956236	-0.50996	0.14762	23.1	-28.07	-21.91	-0.4233	0.0846	-0.3305	
0.974048	-0.506666	0.154818	22.61	-21.35	-20.79	-0.4346	0.0726	-0.3276	
0.985394	-0.51362	0.149572	21.35	-16.38	-15.89	-0.4246	0.068	-0.3198	
0.982588	-0.512522	0.165554	20.93	-11.83	-10.36	-0.4315	0.056	-0.32	
0.973072	-0.493368	0.165432	16.38	-6.86	-9.17	-0.4344	0.0528	-0.3295	
0.983198	-0.467138	0.151036	17.22	-5.11	-6.65	-0.4315	0.056	-0.3185	
0.975878	-0.468602	0.139812	17.71	0.7	-1.19	-0.4358	0.0544	-0.3232	
0.934764	-0.492758	0.146278	16.59	10.01	5.18	-0.4358	0.0544	-0.3232	
0.909266	-0.487634	0.155062	16.45	15.19	9.87	-0.4287	0.0528	-0.3248	
0.915122	-0.434564	0.163602	14.14	13.58	10.29	-0.4301	0.0467	-0.3264	
0.932324	-0.400404	0.16226	10.01	11.13	7.98	-0.4301	0.0467	-0.3264	
0.946232	-0.423706	0.154574	6.23	10.15	7.07	-0.4359	0.0605	-0.3262	
0.940864	-0.485438	0.145058	4.55	13.58	10.64	-0.4274	0.0603	-0.334	
0.916708	-0.513498	0.152866	5.39	14.77	18.06	-0.4274	0.0603	-0.334	
0.916586	-0.497882	0.161894	7	12.46	24.22	-0.4202	0.0509	-0.342	
0.935008	-0.475068	0.17751	5.81	11.41	27.58	-0.4217	0.0602	-0.3324	
0.94367	-0.479338	0.19947	3.78	11.62	30.45	-0.4176	0.0722	-0.3432	
0.94184	-0.48434	0.206424	-0.21	14.21	34.37	-0.4161	0.0676	-0.3417	
0.940376	-0.50081	0.200324	-2.03	17.57	38.29	-0.4174	0.0601	-0.3371	
0.919758	-0.52887	0.213988	-2.52	20.51	43.54	-0.4034	0.0796	-0.343	
0.91134	-0.541192	0.23851	-3.36	22.82	48.02	-0.4048	0.078	-0.3493	
0.911096	-0.53619	0.267546	-4.76	24.22	54.67	-0.4063	0.0856	-0.3492	
0.9211	-0.517158	0.276208	-9.87	29.68	61.46	-0.3839	0.1171	-0.3626	
0.882914	-0.50508	0.280112	-13.58	41.72	67.69	-0.3883	0.1231	-0.3704	
0.810324	-0.5002	0.208498	-21.07	47.81	72.03	-0.3826	0.1308	-0.3593	
0.772138	-0.587552	0.189832	-25.62	45.78	67.97	-0.3685	0.1364	-0.3779	
0.747128	-0.69662	0.192028	-24.57	45.43	69.65	-0.3686	0.1487	-0.373	
0.71614	-0.726754	0.185074	-19.11	44.87	76.3	-0.3588	0.156	-0.3854	
0.69723	-0.705038	0.188734	-13.16	46.55	77.98	-0.339	0.1709	-0.3866	
0.664046	-0.689056	0.18544	-9.87	45.57	76.3	-0.3405	0.1755	-0.385	
0.623542	-0.701378	0.188002	-8.4	45.57	76.79	-0.3249	0.1844	-0.391	
0.582184	-0.731756	0.198372	-9.31	45.85	76.65	-0.318	0.1992	-0.4095	
0.545828	-0.75762	0.21655	-8.68	43.82	74.41	-0.308	0.1962	-0.4048	
0.48922	-0.772504	0.222162	-0.28	34.93	71.89	-0.2968	0.2143	-0.406	
0.472994	-0.774456	0.246318	1.05	28.56	74.55	-0.284	0.2141	-0.4075	
0.41907	-0.803004	0.26108	-3.43	32.34	70.35	-0.2756	0.223	-0.4152	
0.386618	-0.831552	0.27023	-3.22	26.18	69.3	-0.2615	0.2365	-0.4149	
0.32269	-0.864248	0.274744	-2.31	22.26	68.11	-0.2687	0.2426	-0.4195	
0.281576	-0.85156	0.301828	-0.42	17.01	62.58	-0.2573	0.2455	-0.421	
0.276208	-0.807152	0.312564	-4.2	13.86	57.96	-0.236	0.2422	-0.4257	
0.282918	-0.84546	0.31659	-5.74	9.1	55.58	-0.2317	0.2453	-0.4178	
0.260714	-0.894382	0.307196	-3.57	9.8	50.54	-0.2304	0.259	-0.416	
0.264496	-0.905606	0.289628	-0.7	12.67	47.88	-0.2148	0.2632	-0.4268	
0.271328	-0.911096	0.297192	4.55	12.46	44.59	-0.2247	0.2604	-0.4175	
0.289872	-0.934032	0.326594	11.55	12.11	44.66	-0.2133	0.2588	-0.4175	
0.28304	-0.948794	0.33184	16.1	16.66	47.53	-0.2106	0.2662	-0.4252	
0.267668	-0.927932	0.323056	20.02	23.45	50.82	-0.1948	0.2584	-0.4299	
0.266936	-0.897188	0.327936	17.57	25.9	52.78	-0.185	0.2689	-0.4313	
0.250222	-0.914878	0.330254	16.03	30.59	53.2	-0.1864	0.2628	-0.4314	
0.23424	-0.954162	0.345382	15.54	31.29	52.57	-0.1721	0.2625	-0.4407	
0.231556	-0.902434	0.354044	17.99	31.43	51.87	-0.1636	0.2592	-0.4548	
0.236924	-0.86315	0.355264	18.83	34.37	54.39	-0.1636	0.2638	-0.4469	
0.210572	-0.858148	0.345504	18.13	42.42	60.76	-0.1409	0.2651	-0.4499	
0.154574	-0.83631	0.352702	16.31	50.19	70	-0.1452	0.2665	-0.4608	
0.118218	-0.82228	0.374174	9.52	51.1	74.41	-0.1239	0.2739	-0.4575	
0.113582	-0.854854	0.395524	0.35	49.91	74.69	-0.1097	0.2675	-0.47	
0.081862	-0.881572	0.39955	-7.91	51.94	74.76	-0.0983	0.2736	-0.4589	
0.004514	-0.885964	0.366976	-14.56	54.32	75.32	-0.0841	0.278	-0.4604	
-0.05978	-0.87596	0.312808	-18.2	56.35	74.83	-0.0656	0.2791	-0.4696	
-0.102846	-0.86742	0.284626	-18.97	59.08	75.18	-0.0442	0.2791	-0.4602	
-0.15311	-0.94977	0.348188	-26.39	53.97	72.73	-0.0314	0.2804	-0.4601	
-0.186416	-0.972096	0.357826	-25.83	48.09	66.71	-0.0202	0.2955	-0.4629	
-0.180316	-0.956846	0.323788	-15.54	46.97	65.66	-0.0159	0.2955	-0.4567	
-0.203984	-0.937814	0.31903	-8.33	46.69	60.48	0.0168	0.2921	-0.455	
-0.21716	-0.908656	0.33306	-3.92	45.57	55.72	0.009699999	0.2877	-0.4535	
-0.23973	-0.89609	0.312686	-1.61	41.23	54.18	0.0281	0.2996	-0.4533	
-0.265594	-0.914024	0.319884	2.03	36.89	49.77	0.0381	0.2995	-0.4548	
-0.272426	-0.91866	0.31537	10.5	33.6	47.46	0.0495	0.2918	-0.4533	
-0.272182	-0.87535	0.321958	15.89	31.78	48.37	0.0566	0.2885	-0.4674	
-0.281698	-0.78385	0.372466	15.54	29.54	51.45	0.0609	0.2933	-0.4485	
-0.27694	-0.75518	0.3904	8.54	29.68	47.32	0.081	0.2794	-0.4455	
-0.314516	-0.760548	0.390034	1.61	30.17	40.95	0.0838	0.2854	-0.447	
-0.36234	-0.765062	0.356484	-5.32	28.77	34.3	0.0981	0.2714	-0.4597	
-0.352458	-0.798856	0.337208	-10.22	32.83	26.88	0.1038	0.2791	-0.4533	
-0.387594	-0.838384	0.302682	-10.85	35.07	20.58	0.1181	0.2775	-0.4438	
-0.429196	-0.88145	0.279136	-10.08	35.56	15.96	0.1237	0.2835	-0.4437	
-0.434808	-0.89853	0.267668	-5.74	37.73	16.87	0.1181	0.273	-0.4439	
-0.4392	-0.889136	0.262056	-1.75	37.94	18.06	0.1351	0.2801	-0.4594	
-0.45079	-0.864004	0.245586	1.05	35.98	18.27	0.1395	0.279	-0.4344	
-0.462624	-0.888648	0.23302	0.91	34.23	18.06	0.1437	0.2757	-0.4453	
-0.48678	-0.906216	0.228018	0.7	33.04	19.88	0.1409	0.2744	-0.4329	
-0.505446	-0.912316	0.214354	4.13	31.08	25.27	0.158	0.2741	-0.4375	
-0.518744	-0.876936	0.196664	7.7	30.52	29.26	0.1737	0.2755	-0.4374	
-0.532286	-0.867664	0.204838	9.59	28.56	33.74	0.1695	0.265	-0.4298	
-0.537288	-0.859124	0.215818	11.76	25.13	39.69	0.1738	0.2633	-0.4376	
-0.546194	-0.828014	0.211914	13.93	21.63	43.89	0.1809	0.2587	-0.4361	
-0.557906	-0.805932	0.226554	14.7	16.38	46.41	0.1795	0.2571	-0.4439	
-0.58377	-0.778482	0.23424	16.8	10.64	45.71	0.1895	0.2586	-0.4376	
-0.58865	-0.764208	0.243756	18.76	7.07	42.14	0.191	0.2526	-0.4314	
-0.584502	-0.762866	0.259006	20.72	4.41	37.94	0.2011	0.2465	-0.4237	
-0.600118	-0.735538	0.259006	22.47	2.17	35.21	0.2069	0.2326	-0.4348	
-0.591456	-0.7137	0.27694	21.56	2.31	32.83	0.2054	0.2402	-0.4331	
-0.603412	-0.729194	0.299754	18.69	1.12	31.01	0.1998	0.2221	-0.4334	
-0.623176	-0.726022	0.303536	18.06	1.54	27.86	0.2198	0.2233	-0.4349	
-0.6039	-0.721264	0.321592	17.36	1.89	25.13	0.2184	0.2126	-0.4413	
-0.59414	-0.715896	0.32757	14.14	5.6	22.68	0.2226	0.2186	-0.4428	
-0.613782	-0.710284	0.324032	11.06	7.14	19.67	0.2256	0.2126	-0.4397	
-0.645136	-0.712358	0.328058	9.66	8.4	16.03	0.2298	0.2187	-0.4349	
-0.652334	-0.70638	0.318176	8.68	10.01	14.28	0.2285	0.2033	-0.4461	
-0.67771	-0.701622	0.312198	6.51	9.8	10.36	0.2269	0.2185	-0.4459	
-0.67832	-0.701134	0.3111	5.74	8.33	8.54	0.2313	0.2002	-0.4461	
-0.704062	-0.702232	0.29768	6.09	6.86	5.88	0.2327	0.2079	-0.4413	
-0.724314	-0.695034	0.300852	6.93	4.83	3.64	0.2399	0.1972	-0.4415	
-0.716018	-0.679052	0.31537	7.42	2.31	1.68	0.2286	0.1973	-0.4399	
-0.708942	-0.66978	0.31964	5.67	-0.56	0.14	0.2313	0.2018	-0.4461	
-0.712114	-0.67466	0.312808	3.99	-2.94	-2.73	0.2342	0.2048	-0.4445	
-0.709064	-0.675148	0.322812	3.43	-3.08	-5.25	0.2356	0.2016	-0.4523	
-0.70638	-0.664778	0.32147	2.66	-3.43	-7	0.2243	0.1957	-0.4494	
-0.681492	-0.654652	0.321348	0.77	-3.85	-7.56	0.2327	0.2047	-0.4492	
-0.685396	-0.654042	0.320372	-1.89	-4.9	-10.36	0.2299	0.2033	-0.4461	
-0.702354	-0.67405	0.32757	-3.78	-5.74	-14.42	0.2271	0.1973	-0.4399	
-0.69052	-0.66673	0.335012	-4.97	-4.27	-17.57	0.2313	0.2033	-0.4461	
-0.666974	-0.667706	0.335012	-7.14	-3.22	-19.67	0.2284	0.2064	-0.446	
-0.673318	-0.683078	0.326106	-8.61	-3.71	-23.94	0.2271	0.2034	-0.443	
-0.681126	-0.682468	0.31842	-8.68	-5.46	-27.72	0.2255	0.2171	-0.4396	
-0.669536	-0.670878	0.324886	-10.36	-5.95	-31.64	0.217	0.2127	-0.4382	
-0.626958	-0.653188	0.338672	-13.65	-4.13	-34.51	0.214	0.2233	-0.4412	
-0.630984	-0.686982	0.326594	-17.71	-4.62	-39.13	0.2125	0.2385	-0.4425	
-0.634522	-0.743102	0.312076	-18.06	-5.74	-43.33	0.2139	0.2308	-0.4473	
-0.617686	-0.75945	0.305122	-15.47	-7.07	-45.64	0.1997	0.2371	-0.4426	
-0.61244	-0.764696	0.294142	-12.67	-8.4	-47.67	0.1968	0.2356	-0.4442	
-0.598654	-0.762378	0.288286	-10.29	-11.34	-51.31	0.1982	0.2387	-0.4394	
-0.573644	-0.767868	0.288652	-8.19	-16.52	-55.09	0.1867	0.2525	-0.4377	
-0.542412	-0.77104	0.281698	-5.74	-22.82	-56.7	0.181	0.2526	-0.4408	
-0.508496	-0.82106	0.270962	-3.71	-27.72	-57.89	0.174	0.2451	-0.4394	
-0.477752	-0.853146	0.28121	1.68	-29.33	-59.5	0.1481	0.2665	-0.4455	
-0.45689	-0.843386	0.277794	3.36	-32.55	-59.99	0.1353	0.2606	-0.4425	
-0.420412	-0.838018	0.284626	2.03	-35.21	-61.18	0.1338	0.2711	-0.4517	
-0.363926	-0.861686	0.283162	-0.35	-37.66	-61.46	0.1209	0.2743	-0.4517	
-0.304512	-0.878644	0.289506	-0.56	-36.89	-59.57	0.1067	0.2744	-0.4565	
-0.275598	-0.886208	0.298046	-1.19	-36.05	-58.59	0.09959999	0.27	-0.4519	
-0.262666	-0.903654	0.295484	-2.59	-35.63	-57.54	0.1037	0.282	-0.4579	
-0.232654	-0.901702	0.306464	-3.64	-35.56	-56.28	0.0852	0.2823	-0.4533	
-0.200568	-0.892796	0.313906	-5.11	-35.77	-56.63	0.0724	0.2824	-0.458	
-0.167994	-0.897676	0.32452	-5.88	-35.56	-55.44	0.0537	0.2962	-0.4595	
-0.14701	-0.892308	0.319884	-6.79	-34.93	-54.95	0.0582	0.2842	-0.4456	
-0.12017	-0.898774	0.326838	-7.49	-34.37	-55.09	0.0424	0.2951	-0.4423	
-0.092842	-0.913048	0.325618	-8.19	-33.81	-53.62	0.0338	0.2934	-0.4596	
-0.082106	-0.932568	0.309148	-8.05	-33.46	-52.36	0.0139	0.2952	-0.4581	
-0.067588	-0.949404	0.304024	-6.72	-32.48	-51.52	0.0167	0.2966	-0.4612	
-0.05246	-0.957456	0.29646	-5.46	-30.8	-49.91	0.0054	0.2877	-0.4583	
-0.032696	-0.954528	0.29768	-3.43	-30.17	-48.3	-0.0074	0.3016	-0.4534	
-0.018056	-0.959164	0.309514	-1.96	-29.68	-47.04	-0.0145	0.294	-0.4567	
0.005368	-0.960872	0.332206	-0.35	-28.63	-44.17	-0.0188	0.2956	-0.4535	
0.020252	-0.962458	0.336842	0.14	-27.72	-39.9	-0.0316	0.3018	-0.4535	
0.037332	-0.95038	0.327326	-0.77	-25.13	-35.84	-0.0346	0.3063	-0.4597	
0.062464	-0.940864	0.326472	-1.96	-22.61	-34.3	-0.0429	0.2944	-0.449	
0.086498	-0.938058	0.327692	-2.52	-22.05	-34.37	-0.0586	0.3007	-0.4458	
0.096502	-0.932324	0.33062	-2.52	-21	-34.23	-0.0558	0.2961	-0.4474	
0.11224	-0.937082	0.335012	-2.45	-20.16	-34.93	-0.0586	0.2931	-0.4459	
0.110776	-0.926834	0.333304	-1.54	-19.11	-34.58	-0.0686	0.3023	-0.4474	
0.112118	-0.933178	0.327326	-1.05	-19.04	-34.51	-0.0829	0.304	-0.449	
0.123708	-0.946476	0.325008	-0.91	-15.68	-33.39	-0.0756	0.2842	-0.4462	
0.14213	-0.934398	0.322812	-1.4	-13.79	-31.92	-0.0841	0.2844	-0.4384	
0.15738	-0.914024	0.32147	-3.01	-12.39	-30.52	-0.1013	0.2921	-0.443	
0.152866	-0.931836	0.318542	-5.04	-10.99	-29.19	-0.0955	0.289	-0.443	
0.141276	-0.954162	0.318664	-6.23	-10.71	-27.58	-0.1114	0.3043	-0.4444	
0.151158	-0.954528	0.313662	-6.23	-10.22	-25.9	-0.1098	0.289	-0.4541	
0.155794	-0.958188	0.30317	-4.76	-11.06	-24.01	-0.1056	0.2921	-0.4493	
0.138958	-0.932324	0.29219	-3.01	-11.48	-21.35	-0.1098	0.2937	-0.4462	
0.101016	-0.941596	0.277184	-3.43	-15.05	-19.81	-0.1269	0.2986	-0.4352	
0.06771	-0.97295	0.269376	-3.08	-19.88	-20.51	-0.1183	0.2848	-0.4385	
0.058072	-0.936106	0.27084	0.28	-22.19	-21.21	-0.1297	0.2864	-0.4401	
0.072834	-0.898896	0.266448	0.91	-25.76	-24.29	-0.1326	0.2909	-0.4447	
0.07991	-0.891576	0.263764	2.38	-28.84	-28.21	-0.1424	0.2806	-0.4324	
0.09638	-0.888038	0.26779	4.62	-31.64	-32.9	-0.1254	0.2895	-0.4322	
0.138226	-0.874008	0.282552	7.21	-32.2	-37.52	-0.1567	0.2914	-0.4292	
0.167994	-0.85888	0.288042	9.59	-33.67	-43.82	-0.1681	0.2916	-0.4261	
0.187148	-0.858514	0.29463	11.76	-34.16	-49.14	-0.1694	0.2793	-0.4326	
0.211792	-0.877546	0.29341	14.42	-35.63	-54.88	-0.1779	0.2718	-0.4343	
0.232654	-0.858758	0.292312	19.25	-34.86	-57.68	-0.1807	0.2611	-0.4376	
0.271938	-0.81984	0.306586	20.65	-35.63	-59.5	-0.1921	0.2658	-0.4392	
0.33855	-0.817644	0.32696	19.11	-36.26	-60.55	-0.2033	0.2555	-0.4253	
0.389546	-0.844362	0.331474	17.43	-36.54	-61.74	-0.2175	0.248	-0.4302	
0.441274	-0.877668	0.314516	15.4	-36.19	-61.88	-0.2317	0.2405	-0.4303	
0.477142	-0.88877	0.28243	13.51	-34.37	-58.45	-0.2387	0.2377	-0.4226	
0.502152	-0.899628	0.273402	9.38	-25.76	-51.38	-0.2529	0.2257	-0.4229	
0.478728	-0.843752	0.267058	9.73	-20.3	-49.14	-0.2542	0.2181	-0.4214	
0.516548	-0.810202	0.266692	8.82	-18.27	-48.72	-0.2627	0.2167	-0.4184	
0.53375	-0.769454	0.248148	11.48	-22.26	-49.07	-0.2613	0.2152	-0.4215	
0.56852	-0.738344	0.24461	14.77	-27.37	-49.35	-0.2796	0.2018	-0.4155	
0.607072	-0.741882	0.244976	17.36	-31.78	-48.72	-0.2839	0.1956	-0.425	
0.620004	-0.747616	0.24522	22.05	-30.94	-47.88	-0.2852	0.1881	-0.4173	
0.586332	-0.740418	0.258274	26.39	-32.06	-47.32	-0.2966	0.1929	-0.4126	
0.558028	-0.694424	0.26657	27.44	-35.91	-49.84	-0.3107	0.1762	-0.4223	
0.552538	-0.652456	0.280112	21	-36.33	-58.66	-0.3164	0.1794	-0.4114	
0.58682	-0.643184	0.264984	24.78	-41.37	-55.65	-0.3234	0.1673	-0.4132	
0.64233	-0.686006	0.284504	24.92	-49.14	-54.46	-0.3289	0.1508	-0.4072	
0.697596	-0.691252	0.283406	25.27	-49.35	-47.95	-0.3303	0.1478	-0.4025	
0.71919	-0.657458	0.280722	23.87	-44.73	-50.54	-0.3486	0.1299	-0.3935	
0.75945	-0.65209	0.307562	22.12	-47.67	-52.92	-0.3629	0.1331	-0.3935	
0.770308	-0.612074	0.297924	23.1	-43.75	-52.5	-0.3627	0.1195	-0.3859	
0.78873	-0.568154	0.27633	22.68	-43.19	-51.8	-0.364	0.1106	-0.3767	
0.81374	-0.56852	0.249978	20.44	-42.21	-50.54	-0.381	0.1031	-0.3816	
0.786168	-0.594506	0.225944	17.57	-36.89	-46.62	-0.3753	0.0969	-0.3879	
0.789218	-0.607072	0.22326	17.99	-32.9	-47.39	-0.3809	0.0955	-0.3817	
0.79239	-0.614392	0.230702	24.64	-36.12	-42.84	-0.3964	0.0837	-0.3695	
0.818498	-0.631106	0.24278	25.76	-34.02	-37.94	-0.4021	0.0777	-0.368	
0.821426	-0.587308	0.236558	30.17	-33.39	-31.22	-0.3991	0.064	-0.3635	
0.84119	-0.529602	0.234728	28.28	-35.07	-29.96	-0.4062	0.0672	-0.362	
0.886452	-0.501664	0.233386	23.03	-39.69	-32.27	-0.4104	0.0598	-0.3511	
0.932568	-0.503616	0.233386	19.81	-41.09	-33.67	-0.4102	0.0492	-0.3498	
0.920368	-0.513742	0.23363	21.42	-40.67	-29.19	-0.4173	0.0464	-0.3404	
0.908778	-0.517158	0.238022	19.53	-41.72	-24.64	-0.4144	0.0418	-0.3389	
0.894504	-0.490318	0.230702	21.21	-39.2	-17.08	-0.4229	0.0374	-0.3312	
0.915976	-0.44835	0.210084	21.56	-38.36	-8.89	-0.4313	0.0316	-0.322	
0.924394	-0.435418	0.204594	20.44	-32.69	-4.76	-0.4299	0.0332	-0.3141	
0.905362	-0.43127	0.194346	21.28	-27.72	-0.84	-0.4398	0.0256	-0.3237	
0.877424	-0.417606	0.166164	22.96	-24.64	0.42	-0.444	0.0241	-0.3222	
0.904996	-0.441396	0.190564	19.04	-26.25	-1.54	-0.434	0.0226	-0.3143	
0.92964	-0.438956	0.211304	15.96	-27.37	-0.28	-0.4497	0.0259	-0.3112	
0.974414	-0.402722	0.207522	14.49	-25.83	0.07	-0.4395	0.0092	-0.3036	
1.000034	-0.388814	0.212036	12.74	-19.81	0.77	-0.4526	0.0322	-0.2955	
0.996374	-0.407114	0.192394	7.56	-10.08	1.33	-0.4511	0.0246	-0.2941	
0.97295	-0.414922	0.175314	3.15	-2.45	1.61	-0.4497	0.0229	-0.3066	
0.97539	-0.425048	0.170068	-0.49	3.08	3.22	-0.4496	0.02	-0.3004	
0.97966	-0.43798	0.176046	-3.01	8.12	3.78	-0.4454	0.023	-0.2972	
0.986736	-0.43981	0.180804	-4.9	12.67	6.79	-0.4482	0.0216	-0.2957	
0.999302	-0.439444	0.180926	-6.72	18.41	9.38	-0.451	0.0121	-0.3177	
0.977342	-0.450912	0.17873	-8.05	24.43	12.81	-0.4382	0.0198	-0.3019	
0.973438	-0.463234	0.17995	-11.06	28.35	16.87	-0.444	0.0226	-0.3222	
0.981246	-0.464332	0.186538	-12.88	31.99	22.75	-0.4327	0.0303	-0.3079	
0.987224	-0.463478	0.211426	-14.28	34.65	27.3	-0.4327	0.0333	-0.3142	
0.995886	-0.465674	0.238754	-16.24	37.73	31.85	-0.4356	0.0347	-0.3235	
0.962458	-0.42822	0.213866	-17.29	44.94	38.22	-0.4216	0.0543	-0.3247	
0.933178	-0.44713	0.184586	-21.56	51.94	41.93	-0.4287	0.0496	-0.3389	
0.895724	-0.511912	0.188124	-24.36	55.58	45.5	-0.4203	0.0662	-0.337	
0.848998	-0.537654	0.205692	-17.78	53.62	50.33	-0.4147	0.06439999	-0.3511	
0.827526	-0.528748	0.219966	-14.56	49.63	49.98	-0.4077	0.0718	-0.3572	
0.800198	-0.520696	0.225944	-15.12	47.74	50.61	-0.3965	0.09299999	-0.3584	
0.787266	-0.556564	0.23607	-17.15	43.68	49.63	-0.3894	0.0881	-0.3741	
0.777018	-0.589016	0.248514	-16.24	38.78	52.99	-0.3794	0.091	-0.3771	
0.767258	-0.595116	0.25803	-16.1	40.67	60.13	-0.374	0.1105	-0.3893	
0.742736	-0.614148	0.270352	-20.79	46.62	58.52	-0.3768	0.1153	-0.3751	
0.738344	-0.623908	0.279502	-22.4	49.49	61.39	-0.3641	0.1195	-0.3906	
0.721996	-0.642208	0.283894	-19.39	43.61	62.44	-0.353	0.1359	-0.4028	
0.715164	-0.65392	0.283528	-17.15	41.23	61.88	-0.3459	0.1436	-0.3886	
0.703574	-0.671488	0.29829	-17.29	44.87	63.91	-0.3374	0.1464	-0.4026	
0.665754	-0.721264	0.304024	-17.64	49.84	61.04	-0.3218	0.1539	-0.3962	
0.631838	-0.752618	0.315736	-8.19	49	54.46	-0.3178	0.1735	-0.4037	
0.522282	-0.701012	0.343674	-3.15	51.94	54.39	-0.3164	0.1734	-0.4099	
0.45323	-0.626348	0.32818	-14.42	40.11	49.35	-0.2964	0.1731	-0.4114	
0.49288	-0.747982	0.330498	-25.48	31.08	45.78	-0.3022	0.1837	-0.4175	
0.402478	-0.85888	0.331718	-24.36	37.17	49.7	-0.2881	0.1866	-0.4221	
0.344528	-0.830942	0.304756	-23.52	38.71	55.65	-0.2797	0.2047	-0.4217	
0.35624	-0.822524	0.281698	-28.63	35.07	55.65	-0.2712	0.2093	-0.4169	
0.333792	-0.8357	0.279502	-28.14	33.74	60.83	-0.2528	0.215	-0.4246	
0.30073	-0.855098	0.279746	-29.68	37.1	61.11	-0.2557	0.2242	-0.4213	
0.286822	-0.864492	0.286334	-27.51	31.57	57.96	-0.2515	0.2332	-0.4274	
0.28304	-0.864858	0.274866	-24.15	26.53	56	-0.2474	0.2469	-0.4209	
0.27755	-0.86742	0.260592	-22.26	24.5	58.94	-0.2289	0.2372	-0.4445	
0.236558	-0.884378	0.249734	-19.95	24.08	61.18	-0.2261	0.248	-0.4318	
0.209108	-0.882426	0.229726	-17.36	21.98	61.32	-0.2119	0.254	-0.4332	
0.210206	-0.902922	0.259738	-14.49	17.43	60.34	-0.1978	0.2689	-0.4407	
0.199592	-0.909144	0.274012	-10.71	14.91	60.48	-0.1865	0.278	-0.4311	
0.17995	-0.904996	0.29341	-6.86	11.55	58.24	-0.1723	0.281	-0.4248	
0.17446	-0.89731	0.296338	-6.65	11.13	55.23	-0.1709	0.2855	-0.4262	
0.16104	-0.900116	0.308538	-5.04	9.8	49.14	-0.1694	0.2763	-0.4326	
0.179584	-0.917684	0.305732	-2.59	9.38	44.1	-0.158	0.2824	-0.4231	
0.17873	-0.932812	0.31171	0.49	12.11	41.09	-0.1539	0.2929	-0.4307	
0.182146	-0.937936	0.301828	2.94	15.47	40.88	-0.1525	0.296	-0.4229	
0.172264	-0.9516	0.299388	3.92	17.71	40.6	-0.144	0.302	-0.4243	
0.161772	-0.955016	0.30134	4.62	20.65	41.02	-0.1255	0.294	-0.4353	
0.147864	-0.95038	0.305366	3.71	24.01	40.74	-0.1355	0.3002	-0.4321	
0.131638	-0.959774	0.296338	2.66	25.97	40.11	-0.1169	0.297	-0.4336	
0.110776	-0.976244	0.29646	4.27	27.37	38.71	-0.1228	0.3076	-0.4366	
0.086132	-0.970876	0.30439	7.7	28.7	35.77	-0.1199	0.2983	-0.4493	
0.057462	-0.969778	0.311588	8.89	28.56	31.78	-0.0972	0.3103	-0.4427	
0.041968	-0.966484	0.298656	10.5	26.39	27.3	-0.09	0.3025	-0.4491	
0.023302	-0.948062	0.291946	13.02	26.25	23.45	-0.0955	0.2876	-0.4353	
0.014762	-0.939034	0.295484	13.37	27.51	22.68	-0.0828	0.2933	-0.4492	
-0.005246	-0.937204	0.318664	13.93	28.49	22.82	-0.0813	0.2902	-0.4523	
0.008784	-0.923784	0.334646	12.6	30.03	25.83	-0.0728	0.2886	-0.4555	
-0.00122	-0.940742	0.336354	9.87	32.41	29.26	-0.06	0.2946	-0.4475	
-0.012688	-0.961604	0.322446	7.07	33.6	31.85	-0.06	0.2929	-0.46	
-0.007442	-0.96319	0.32513	7.28	34.44	34.37	-0.0543	0.2852	-0.4601	
-0.002562	-0.965752	0.321226	8.26	35.84	37.94	-0.0415	0.2866	-0.4585	
0.003172	-0.955626	0.323544	9.66	37.94	42.49	-0.0272	0.2881	-0.4506	
-0.00183	-0.923418	0.338916	11.97	44.38	50.26	-0.0229	0.2805	-0.4491	
-0.047092	-0.903654	0.349042	12.04	50.68	61.74	-0.0073	0.2863	-0.4599	
-0.074786	-0.875716	0.338794	11.55	54.67	68.53	0.0067	0.2967	-0.4597	
-0.12749	-0.889868	0.345138	9.31	55.37	68.67	0.0154	0.2813	-0.4677	
-0.154574	-0.876448	0.357948	8.75	57.19	67.83	0.0467	0.2825	-0.4691	
-0.17324	-0.843142	0.356606	8.68	59.57	67.27	0.0453	0.2825	-0.466	
-0.213378	-0.833382	0.322324	6.37	61.18	65.45	0.0709	0.2822	-0.4674	
-0.2806	-0.858636	0.31659	3.85	62.58	63.7	0.07099999	0.2731	-0.4707	
-0.34343	-0.845582	0.299388	6.16	63.84	61.95	0.08679999	0.2732	-0.4519	
-0.377102	-0.825574	0.299998	7.07	63.7	59.29	0.1067	0.2605	-0.4707	
-0.399306	-0.812642	0.291214	7.7	64.47	57.12	0.1195	0.2666	-0.4596	
-0.452498	-0.810202	0.274866	6.93	62.37	54.39	0.1382	0.2589	-0.455	
-0.497028	-0.815082	0.266936	7.56	57.82	50.33	0.1438	0.2619	-0.4502	
-0.526064	-0.818254	0.259128	7.7	54.39	42.7	0.1609	0.2664	-0.4423	
-0.533628	-0.819596	0.26291	12.04	49.28	36.96	0.1625	0.2543	-0.4393	
-0.542534	-0.802638	0.272914	14.7	43.75	34.09	0.1739	0.2434	-0.4473	
-0.557052	-0.789218	0.27633	14.28	38.85	30.03	0.1825	0.245	-0.4378	
-0.590114	-0.781654	0.275354	12.95	32.48	26.67	0.1854	0.2434	-0.4378	
-0.61671	-0.785436	0.268278	13.3	25.06	24.01	0.1982	0.2448	-0.4409	
-0.627934	-0.793854	0.272548	14.77	20.23	20.58	0.204	0.2387	-0.4331	
-0.609878	-0.78995	0.292434	15.47	17.36	22.26	0.1954	0.2386	-0.4457	
-0.61427	-0.773602	0.274866	17.22	13.02	23.59	0.1996	0.237	-0.4488	
-0.608902	-0.763964	0.29158	17.08	8.68	23.1	0.2154	0.231	-0.4348	
-0.59536	-0.756034	0.318908	16.73	7.56	23.73	0.224	0.2202	-0.4412	
-0.592554	-0.730292	0.325374	15.82	10.36	24.29	0.2226	0.2249	-0.4317	
-0.584624	-0.729072	0.32391	14.98	10.36	25.48	0.2213	0.2125	-0.4444	
-0.611708	-0.720044	0.31781	15.05	9.31	24.36	0.2227	0.2156	-0.4428	
-0.626836	-0.718946	0.33916	14.21	11.83	24.71	0.2356	0.2049	-0.4367	
-0.620126	-0.715774	0.337696	15.05	13.79	26.04	0.2356	0.2032	-0.4476	
-0.640134	-0.694058	0.3294	15.05	14.56	25.06	0.2357	0.1911	-0.4447	
-0.64843	-0.66795	0.328912	13.3	14	22.75	0.2442	0.1941	-0.4415	
-0.661606	-0.65941	0.340624	10.43	11.83	19.81	0.2486	0.188	-0.44	
-0.686006	-0.65453	0.33611	7.49	11.13	17.99	0.253	0.1773	-0.4401	
-0.70516	-0.659044	0.325984	5.25	10.71	15.4	0.2573	0.1742	-0.4402	
-0.716506	-0.677344	0.323666	4.2	8.47	12.81	0.2501	0.1804	-0.4401	
-0.72468	-0.675758	0.33123	4.06	6.3	9.73	0.26	0.1925	-0.4336	
-0.731878	-0.673318	0.335012	3.29	3.01	6.44	0.2501	0.185	-0.4369	
-0.729316	-0.667828	0.3355	2.52	0.77	3.5	0.2515	0.1788	-0.4448	
-0.716018	-0.675026	0.33245	1.4	-0.28	1.19	0.2572	0.1864	-0.4384	
-0.709552	-0.66856	0.338184	1.61	-1.33	-1.61	0.2515	0.1772	-0.4464	
-0.700036	-0.66124	0.34587	0.77	-2.59	-4.06	0.2572	0.1803	-0.4401	
-0.692106	-0.656604	0.337208	-0.98	-2.59	-6.16	0.26	0.1834	-0.4369	
-0.712236	-0.65453	0.335988	-3.15	-3.85	-8.68	0.2544	0.1787	-0.4448	
-0.727608	-0.660996	0.328668	-4.2	-6.65	-12.46	0.2472	0.1865	-0.4416	
-0.712236	-0.662216	0.33489	-4.97	-8.54	-14.49	0.2472	0.1865	-0.4385	
-0.704428	-0.66185	0.336842	-5.11	-9.45	-15.61	0.243	0.1774	-0.4402	
-0.7198	-0.662216	0.333914	-6.37	-10.29	-18.34	0.2386	0.1881	-0.4369	
-0.731268	-0.671976	0.32696	-7.91	-12.04	-21.84	0.24	0.1957	-0.4368	
-0.733342	-0.679052	0.323788	-8.12	-14.42	-24.85	0.2329	0.1943	-0.4337	
-0.720166	-0.67954	0.321958	-8.4	-16.94	-28.21	0.2328	0.1957	-0.4415	
-0.695522	-0.683932	0.327936	-9.03	-19.53	-31.36	0.2285	0.205	-0.4367	
-0.671488	-0.688812	0.335012	-9.1	-20.16	-33.46	0.2271	0.1957	-0.4462	
-0.653798	-0.684664	0.332328	-9.52	-21.77	-35.7	0.2156	0.2065	-0.4445	
-0.630618	-0.701134	0.32513	-11.76	-23.94	-37.94	0.2183	0.2263	-0.4427	
-0.623542	-0.714798	0.322934	-12.46	-25.9	-40.04	0.2184	0.2172	-0.4397	
-0.59475	-0.726266	0.322934	-12.46	-26.81	-41.93	0.1899	0.2205	-0.4429	
-0.573156	-0.732122	0.32513	-12.6	-28.91	-43.61	0.1998	0.2219	-0.4459	
-0.547658	-0.742492	0.327692	-13.16	-30.17	-45.43	0.1968	0.231	-0.4489	
-0.52704	-0.758596	0.329766	-13.44	-32.62	-46.83	0.1868	0.2385	-0.4582	
-0.514718	-0.760792	0.324764	-13.37	-32.55	-49.56	0.181	0.2433	-0.4519	
-0.490684	-0.76677	0.316956	-13.51	-33.53	-51.52	0.1625	0.2433	-0.4629	
-0.484706	-0.778238	0.300852	-14	-36.05	-53.55	0.1567	0.2526	-0.4581	
-0.46116	-0.80215	0.293532	-14.56	-39.62	-55.44	0.1425	0.245	-0.4646	
-0.430782	-0.829844	0.294264	-12.6	-42.56	-56.42	0.1439	0.2528	-0.4535	
-0.392108	-0.857904	0.297924	-10.57	-46.9	-56.91	0.121	0.262	-0.4644	
-0.347212	-0.879742	0.303048	-9.24	-51.1	-56.07	0.1139	0.2637	-0.455	
-0.30012	-0.8967	0.306952	-9.59	-53.55	-55.65	0.0997	0.2623	-0.4567	
-0.24583	-0.912438	0.314394	-10.22	-53.83	-56.14	0.0924	0.2698	-0.4675	
-0.196176	-0.91317	0.331474	-12.11	-52.01	-55.51	0.0753	0.2715	-0.4676	
-0.129564	-0.927322	0.324398	-14.49	-50.82	-57.89	0.0625	0.281	-0.4534	
-0.082228	-0.957822	0.310612	-14.21	-48.44	-57.68	0.0467	0.2934	-0.4517	
-0.030134	-0.960262	0.30073	-12.88	-45.01	-57.12	0.0382	0.2859	-0.4519	
0.016958	-0.94123	0.298534	-10.64	-42.35	-56.42	0.0254	0.2829	-0.4567	
0.025254	-0.92049	0.311222	-7.63	-40.74	-52.43	0.0168	0.2829	-0.4598	
0.034404	-0.910974	0.314272	-6.86	-38.01	-50.05	0.0054	0.2892	-0.4567	
0.045994	-0.9089	0.321348	-6.23	-35.91	-50.82	-0.0002	0.2892	-0.4614	
0.070516	-0.90158	0.328058	-6.23	-31.22	-51.94	-0.0201	0.2926	-0.4536	
0.097844	-0.896334	0.333914	-5.53	-28.28	-53.55	-0.0272	0.2865	-0.46	
0.100284	-0.919392	0.330376	-3.71	-23.73	-55.44	-0.0402	0.2988	-0.4598	
0.096502	-0.928176	0.319884	-2.94	-21.91	-55.51	-0.0542	0.2854	-0.4507	
0.09638	-0.926956	0.329156	-3.22	-21.98	-54.25	-0.0528	0.2823	-0.4523	
0.102968	-0.926834	0.32696	-5.18	-22.33	-52.01	-0.0729	0.2961	-0.4569	
0.11285	-0.939766	0.328302	-7.77	-22.75	-50.12	-0.077	0.2843	-0.4399	
0.116022	-0.963068	0.318054	-8.33	-22.4	-46.97	-0.0813	0.281	-0.4556	
0.122488	-0.964776	0.312198	-7.28	-23.87	-42.98	-0.0913	0.2935	-0.4461	
0.134566	-0.941352	0.321226	-4.9	-23.31	-38.99	-0.0998	0.2905	-0.4493	
0.14518	-0.91805	0.316346	-4.62	-23.03	-37.31	-0.1012	0.2829	-0.4494	
0.133834	-0.914268	0.319152	-4.97	-23.59	-36.96	-0.1055	0.2845	-0.4479	
0.136884	-0.936472	0.32391	-4.9	-26.11	-37.45	-0.1112	0.2861	-0.4432	
0.140422	-0.94794	0.317444	-2.87	-26.46	-37.17	-0.124	0.2863	-0.4401	
0.146156	-0.945378	0.315126	-1.12	-27.65	-35.84	-0.1254	0.2834	-0.4355	
0.166164	-0.931958	0.311588	0.21	-28.14	-34.79	-0.1354	0.291	-0.4369	
0.188246	-0.914024	0.301096	0.42	-27.86	-33.25	-0.1424	0.2821	-0.4293	
0.189954	-0.9089	0.295484	0.56	-26.6	-33.04	-0.1539	0.2867	-0.4371	
0.19764	-0.916098	0.294508	0.56	-25.9	-34.23	-0.1651	0.2763	-0.4311	
0.216794	-0.906216	0.294874	2.94	-26.67	-35.77	-0.1623	0.2793	-0.4263	
0.233508	-0.895602	0.290604	5.25	-27.02	-37.87	-0.1694	0.2718	-0.4296	
0.24156	-0.887184	0.280966	6.79	-26.32	-40.6	-0.1821	0.269	-0.4219	
0.255712	-0.88755	0.268034	8.4	-26.18	-42.49	-0.1892	0.2627	-0.4392	
0.268644	-0.882792	0.256688	11.76	-26.18	-45.57	-0.1965	0.2735	-0.4375	
0.275476	-0.884866	0.245464	15.54	-26.53	-48.37	-0.2033	0.2555	-0.4253	
0.287188	-0.898408	0.260104	20.65	-29.33	-51.87	-0.2034	0.2585	-0.4252	
0.310124	-0.880108	0.270962	25.9	-33.6	-57.12	-0.209	0.2494	-0.4301	
0.37698	-0.84729	0.277794	30.03	-35.28	-57.54	-0.2316	0.236	-0.4273	
0.42822	-0.83143	0.280478	32.97	-36.12	-55.79	-0.2387	0.2299	-0.4337	
0.447496	-0.811788	0.286212	35	-37.45	-54.95	-0.2429	0.2224	-0.4322	
0.466772	-0.7869	0.28609	36.47	-38.36	-55.37	-0.2499	0.2148	-0.434	
0.481412	-0.784094	0.277916	34.23	-40.32	-56.84	-0.2627	0.2166	-0.4246	
0.481778	-0.787388	0.26779	35.63	-39.2	-58.31	-0.2697	0.1999	-0.4343	
0.505324	-0.78263	0.27206	35.49	-40.04	-58.38	-0.2881	0.1911	-0.4236	
0.504226	-0.769454	0.280234	38.64	-40.6	-57.82	-0.2909	0.182	-0.4222	
0.515206	-0.733464	0.266692	40.95	-43.47	-59.22	-0.295	0.1668	-0.4255	
0.542778	-0.720044	0.302316	38.64	-50.33	-59.99	-0.3106	0.1639	-0.4319	
0.584502	-0.685518	0.281454	44.17	-50.4	-59.01	-0.3162	0.1504	-0.4228	
0.636108	-0.65453	0.291946	42.91	-54.88	-58.94	-0.3316	0.1295	-0.4075	
0.687836	-0.635864	0.292556	40.11	-60.27	-61.11	-0.3358	0.1266	-0.4013	
0.719922	-0.62403	0.280112	40.04	-59.5	-59.36	-0.3414	0.1175	-0.4062	
0.763476	-0.651236	0.277916	38.01	-59.85	-57.19	-0.3541	0.11	-0.4095	
0.793488	-0.649162	0.293166	37.52	-60.76	-52.92	-0.3554	0.0966	-0.3925	
0.834236	-0.632692	0.298046	37.66	-58.8	-45.64	-0.3751	0.0816	-0.3913	
0.848144	-0.590236	0.297802	37.45	-55.72	-38.15	-0.3851	0.0802	-0.3898	
0.910974	-0.566812	0.336842	32.27	-58.17	-34.3	-0.382	0.0635	-0.3854	
0.849364	-0.488244	0.401014	24.99	-58.24	-28.35	-0.402	0.067	-0.3713	
0.898652	-0.52155	0.324764	16.8	-43.26	-32.83	-0.3918	0.0533	-0.3637	
0.864614	-0.5246	0.280356	27.79	-31.22	-14.07	-0.4075	0.0551	-0.3606	
0.8113	-0.548146	0.259616	35.21	-33.04	-4.27	-0.406	0.0475	-0.3591	
0.803492	-0.539972	0.255834	38.01	-44.24	-3.78	-0.4159	0.0432	-0.3467	
0.845948	-0.48739	0.276696	34.16	-43.26	-1.4	-0.4129	0.0341	-0.3469	
0.857416	-0.421266	0.292312	31.29	-45.15	-2.31	-0.413	0.0386	-0.3452	
0.902434	-0.383568	0.292068	22.47	-45.08	-1.54	-0.4199	0.0283	-0.3329	
0.934398	-0.395402	0.264496	18.48	-38.36	-7.63	-0.4242	0.0298	-0.3361	
0.916342	-0.462014	0.263398	17.5	-27.51	-14.77	-0.4355	0.021	-0.3253	
0.902434	-0.468358	0.268156	18.41	-24.78	-14.07	-0.4384	0.024	-0.3284	
0.905362	-0.440054	0.25742	18.62	-24.85	-11.06	-0.4312	0.021	-0.3222	
0.935252	-0.420046	0.224602	14.84	-19.74	-8.68	-0.4383	0.0165	-0.3176	
0.934032	-0.442738	0.199226	14.21	-11.34	-8.12	-0.4366	0.0046	-0.3006	
0.892674	-0.486536	0.231678	14.28	-5.88	-7.14	-0.4353	0.0105	-0.3145	
0.91927	-0.48617	0.2684	9.17	-6.72	-3.5	-0.4367	0.0076	-0.3083	
0.952454	-0.431148	0.263032	7.07	-7.07	-0.35	-0.4424	0.0107	-0.3052	
0.9699	-0.410042	0.249978	6.65	-3.85	0.14	-0.441	0.0137	-0.3082	
0.961238	-0.436516	0.239608	3.71	2.45	3.92	-0.4396	0.0121	-0.3114	
0.96441	-0.4636	0.249368	1.33	3.92	7.35	-0.4396	0.0151	-0.3113	
0.966606	-0.457622	0.24461	0.56	5.04	10.99	-0.4383	0.0212	-0.3128	
0.980636	-0.447374	0.248636	-0.91	5.32	15.68	-0.4396	0.0168	-0.3004	
0.96746	-0.43798	0.241072	-2.31	10.22	19.81	-0.4354	0.0165	-0.316	
0.972706	-0.44591	0.231434	-4.76	14.28	24.22	-0.4312	0.0211	-0.3143	
0.97295	-0.465918	0.247294	-6.23	17.99	27.16	-0.4313	0.0271	-0.3205	
0.945622	-0.471286	0.25498	-4.9	20.86	30.8	-0.4398	0.0286	-0.3236	
0.956114	-0.463112	0.268278	-7.63	23.52	37.03	-0.4271	0.0406	-0.325	
0.962458	-0.453596	0.267668	-8.26	26.53	40.39	-0.4215	0.0404	-0.3343	
0.958188	-0.445056	0.268644	-10.64	31.5	43.75	-0.4301	0.0496	-0.3373	
0.937326	-0.47397	0.269376	-15.05	38.78	44.17	-0.4216	0.0524	-0.3466	
0.896944	-0.51606	0.285236	-17.08	42.7	45.71	-0.4133	0.0736	-0.3478	
0.875106	-0.51789	0.301706	-17.29	45.57	52.08	-0.4061	0.0675	-0.3448	
0.858758	-0.495808	0.307074	-18.9	52.64	58.45	-0.3964	0.0824	-0.357	
0.810812	-0.495564	0.27999	-22.89	60.97	59.15	-0.3935	0.0822	-0.3648	
0.770796	-0.567544	0.27023	-29.4	63.7	54.67	-0.3795	0.1017	-0.3691	
0.747006	-0.627934	0.268888	-28.42	64.54	55.37	-0.3782	0.1061	-0.3847	
0.704794	-0.65331	0.264496	-25.62	67.27	59.71	-0.3612	0.1104	-0.3892	
0.666608	-0.662338	0.26535	-23.03	68.18	61.11	-0.3641	0.1179	-0.3922	
0.612196	-0.68686	0.267302	-22.89	68.46	57.12	-0.3558	0.1345	-0.3966	
0.564982	-0.724192	0.278404	-20.23	64.89	53.34	-0.3345	0.134	-0.4153	
0.536922	-0.759084	0.311832	-17.08	60.2	48.72	-0.3333	0.1537	-0.415	
0.511912	-0.765672	0.33672	-10.99	57.96	41.44	-0.3206	0.1687	-0.4194	
0.464942	-0.754326	0.367586	-6.58	56.35	35.07	-0.3205	0.1566	-0.4196	
0.44042	-0.748958	0.387594	-7.98	52.36	33.04	-0.2979	0.1683	-0.4302	
0.436272	-0.76555	0.365756	-11.48	56.28	35.91	-0.2993	0.1713	-0.4317	
0.391742	-0.801906	0.351238	-17.5	60.76	41.58	-0.2837	0.1726	-0.4348	
0.359656	-0.824842	0.33977	-21.42	58.66	47.25	-0.2696	0.186	-0.4486	
0.352946	-0.839604	0.340136	-21.98	53.62	49.56	-0.2569	0.1903	-0.4531	
0.33489	-0.837408	0.345748	-20.86	50.54	50.75	-0.2597	0.192	-0.4437	
0.312198	-0.83326	0.340868	-20.72	49.91	53.27	-0.2456	0.2008	-0.4529	
0.2623	-0.8296	0.328668	-21.14	49	55.79	-0.2385	0.2022	-0.4576	
0.215086	-0.85217	0.319396	-21.21	45.92	57.26	-0.2288	0.2233	-0.4587	
0.15738	-0.885232	0.318908	-21.07	38.99	57.54	-0.2131	0.2202	-0.454	
0.13176	-0.913902	0.329522	-17.5	30.17	59.22	-0.2088	0.217	-0.4378	
0.134444	-0.912682	0.344772	-12.46	22.26	62.44	-0.196	0.2246	-0.4539	
0.149816	-0.910608	0.350262	-9.94	15.19	64.89	-0.1948	0.2428	-0.4552	
0.161284	-0.944524	0.373198	-6.09	7.56	59.5	-0.1834	0.2396	-0.4583	
0.17629	-0.929518	0.3965	-2.59	6.3	62.58	-0.1762	0.2364	-0.4646	
0.190442	-0.899384	0.427854	0.98	5.88	64.54	-0.1607	0.2499	-0.4611	
0.183244	-0.88084	0.435174	3.29	13.79	64.75	-0.1693	0.2546	-0.458	
0.156038	-0.887794	0.419314	3.57	22.54	62.44	-0.158	0.2574	-0.4673	
0.139324	-0.876814	0.388936	6.72	30.73	58.45	-0.1465	0.2495	-0.4783	
0.131028	-0.888038	0.40077	8.33	37.17	57.12	-0.1381	0.2602	-0.4687	
0.116754	-0.875472	0.41785	13.23	44.03	54.46	-0.1224	0.2616	-0.467	
0.119316	-0.873764	0.42273	15.4	51.52	54.53	-0.1153	0.2584	-0.4671	
0.081008	-0.867908	0.394792	17.57	58.31	55.79	-0.1054	0.2612	-0.4764	
0.077104	-0.89365	0.39406	17.99	61.11	56.42	-0.1024	0.249	-0.4797	
0.02745	-0.884256	0.407724	22.82	64.89	56.42	-0.0712	0.2607	-0.4872	
-0.047702	-0.894626	0.40931	25.13	65.38	51.59	-0.0655	0.2528	-0.4998	
-0.092842	-0.848388	0.408334	27.58	64.33	44.87	-0.0441	0.2513	-0.4841	
-0.109434	-0.849852	0.41114	26.81	63.91	41.65	-0.0469	0.2481	-0.4951	
-0.097844	-0.858148	0.461892	26.6	61.18	40.18	-0.0256	0.251	-0.4949	
-0.114924	-0.8845	0.483974	22.82	61.11	38.5	-0.0141	0.2433	-0.4934	
-0.138348	-0.88572	0.500078	18.9	62.09	41.02	-0.0012	0.2354	-0.4982	
-0.146522	-0.8052	0.493246	13.44	65.8	45.71	0.0158	0.2307	-0.4982	
-0.17934	-0.775432	0.443348	7.21	68.81	49	0.0285	0.2397	-0.4964	
-0.225944	-0.76494	0.405406	5.88	67.27	47.25	0.04	0.2381	-0.4917	
-0.250832	-0.804346	0.432002	3.57	64.47	42.28	0.0529	0.2259	-0.4887	
-0.3111	-0.801296	0.43676	3.15	60.34	36.82	0.067	0.2363	-0.4932	
-0.31781	-0.821548	0.440664	5.95	57.96	35.91	0.0741	0.2423	-0.4915	
-0.344772	-0.772992	0.423828	9.17	56.63	34.51	0.0928	0.2254	-0.4932	
-0.352336	-0.776286	0.424072	9.38	53.2	33.25	0.0957	0.2239	-0.4901	
-0.374906	-0.784948	0.427976	9.03	50.26	28.56	0.1072	0.2147	-0.4871	
-0.40687	-0.78995	0.427244	7.91	47.6	26.53	0.12	0.2145	-0.4886	
-0.401258	-0.773968	0.404064	7.21	43.54	24.71	0.1313	0.2173	-0.4932	
-0.426512	-0.84302	0.35075	7.14	38.08	18.48	0.1384	0.2188	-0.49	
-0.519476	-0.893772	0.347944	13.58	36.33	10.15	0.1413	0.2143	-0.4838	
-0.554246	-0.8784	0.381616	21.35	33.53	7.07	0.1528	0.2096	-0.4885	
-0.471164	-0.838872	0.407236	23.45	31.5	8.54	0.1499	0.2143	-0.4775	
-0.420656	-0.82838	0.423462	20.3	32.83	9.8	0.1571	0.2034	-0.4917	
-0.457134	-0.79727	0.405894	17.5	37.45	15.12	0.1643	0.1974	-0.4824	
-0.456402	-0.773846	0.41541	14.77	39.13	21	0.1657	0.2005	-0.4792	
-0.486048	-0.724558	0.395158	12.04	42	23.52	0.1814	0.1987	-0.4823	
-0.518622	-0.744688	0.416264	8.75	39.76	23.03	0.1872	0.1835	-0.4825	
-0.537776	-0.726754	0.396622	9.52	39.27	26.32	0.1914	0.1941	-0.4777	
-0.560224	-0.717604	0.403332	10.71	38.01	26.81	0.1929	0.1865	-0.4778	
-0.569008	-0.699548	0.407724	8.12	38.85	27.72	0.2045	0.1774	-0.4654	
-0.581574	-0.665388	0.371734	5.18	40.04	28.21	0.22	0.1832	-0.473	
-0.632204	-0.648064	0.344528	3.43	36.75	26.46	0.2201	0.1789	-0.459	
-0.659288	-0.668438	0.3416	2.94	32.76	24.08	0.2173	0.1742	-0.47	
-0.63928	-0.726876	0.36661	3.57	31.01	21.56	0.2386	0.1816	-0.4683	
-0.638792	-0.737856	0.36905	9.38	33.11	19.95	0.2373	0.1697	-0.4544	
-0.672464	-0.63867	0.34221	11.69	35.98	19.6	0.2403	0.162	-0.4545	
-0.726144	-0.610244	0.354898	7.77	29.61	16.59	0.2459	0.1696	-0.4497	
-0.723704	-0.633546	0.34831	5.39	21.98	10.22	0.2474	0.1635	-0.4545	
-0.677954	-0.678442	0.360022	5.11	19.81	5.95	0.2574	0.1635	-0.4466	
-0.681126	-0.677344	0.367098	5.6	18.06	4.69	0.2603	0.1606	-0.4357	
-0.692716	-0.660386	0.37637	5.81	17.5	4.27	0.2588	0.165	-0.445	
-0.70943	-0.64904	0.381006	3.92	14.98	2.94	0.2574	0.1635	-0.4466	
-0.724192	-0.6405	0.363926	0.98	10.71	0.84	0.2745	0.1573	-0.4435	
-0.74054	-0.667218	0.35441	0.56	5.81	-2.24	0.256	0.159	-0.4389	
-0.72651	-0.651236	0.366488	2.38	4.41	-5.32	0.2575	0.1591	-0.4342	
-0.712968	-0.655994	0.377224	0.63	1.61	-8.68	0.2617	0.1589	-0.442	
-0.699792	-0.653554	0.36722	-0.42	1.26	-10.5	0.2674	0.1589	-0.4404	
-0.708088	-0.652822	0.363316	-1.89	-0.84	-13.02	0.2574	0.1605	-0.4404	
-0.718824	-0.653432	0.349042	-2.52	-3.15	-15.96	0.2603	0.1605	-0.4404	
-0.72712	-0.66002	0.33489	-2.45	-6.58	-18.76	0.2588	0.1697	-0.434	
-0.733098	-0.663802	0.339648	-1.33	-9.1	-21.98	0.2602	0.1634	-0.4466	
-0.722484	-0.686494	0.35502	-0.28	-12.04	-23.94	0.2616	0.1635	-0.4435	
-0.695278	-0.67649	0.361364	0.63	-13.58	-24.71	0.2531	0.1683	-0.434	
-0.67893	-0.666242	0.350506	0.63	-16.24	-27.79	0.2472	0.1787	-0.4495	
-0.69235	-0.678686	0.356362	-0.28	-19.67	-30.66	0.2514	0.1878	-0.4478	
-0.688446	-0.68259	0.363316	-1.26	-23.87	-33.39	0.2459	0.1774	-0.4386	
-0.660874	-0.682346	0.3721	-1.4	-27.16	-35.98	0.2372	0.1865	-0.4448	
-0.6283	-0.67588	0.375882	-1.05	-28.77	-39.06	0.2329	0.185	-0.4495	
-0.60329	-0.667462	0.36966	-2.45	-30.73	-41.51	0.23	0.1864	-0.4589	
-0.585478	-0.698938	0.372588	-4.06	-33.25	-43.75	0.2157	0.1956	-0.4635	
-0.556442	-0.72041	0.383568	-3.92	-32.69	-43.26	0.21	0.2005	-0.4478	
-0.537288	-0.719922	0.378932	-4.69	-33.18	-44.38	0.2028	0.1957	-0.4635	
-0.518744	-0.728828	0.368806	-6.16	-34.3	-45.85	0.1914	0.199	-0.4588	
-0.497394	-0.756156	0.362096	-7.07	-37.24	-46.9	0.1899	0.2127	-0.4571	
-0.468236	-0.790804	0.370026	-7	-38.29	-47.67	0.1813	0.2157	-0.468	
-0.432734	-0.810812	0.380518	-5.74	-41.23	-46.76	0.1686	0.2006	-0.4698	
-0.392596	-0.809348	0.386618	-5.46	-42.84	-45.64	0.1627	0.2204	-0.4664	
-0.367586	-0.829966	0.391864	-5.6	-45.78	-45.99	0.157	0.2205	-0.4665	
-0.338916	-0.833504	0.394548	-4.83	-47.04	-46.2	0.1456	0.2236	-0.4696	
-0.279868	-0.87047	0.40199	-2.94	-52.15	-48.02	0.1199	0.2238	-0.4791	
-0.243756	-0.895114	0.410042	-0.49	-53.27	-48.93	0.1084	0.2346	-0.4743	
-0.19215	-0.898774	0.418948	2.66	-53.9	-48.51	0.09999999	0.2224	-0.4839	
-0.147986	-0.88938	0.406992	5.88	-54.39	-48.93	0.0814	0.2287	-0.4807	
-0.10675	-0.88023	0.40199	8.19	-52.92	-49.91	0.08419999	0.2317	-0.4822	
-0.08479	-0.871812	0.40992	9.73	-50.68	-50.54	0.06	0.2334	-0.4854	
-0.076616	-0.856684	0.41175	9.45	-50.33	-50.82	0.0557	0.2351	-0.4823	
-0.042944	-0.85278	0.427122	7.98	-51.31	-52.29	0.0415	0.232	-0.4918	
-0.006954	-0.840336	0.441884	6.86	-52.57	-52.85	0.0386	0.2306	-0.4903	
0.038918	-0.81313	0.45323	4.97	-52.85	-52.15	0.0187	0.2354	-0.4872	
0.072346	-0.814838	0.4575	1.12	-54.74	-52.08	0.0074	0.2234	-0.4858	
0.094306	-0.83204	0.469334	-2.03	-58.31	-50.61	-0.0084	0.2448	-0.4903	
0.094184	-0.838262	0.462258	-6.16	-59.64	-49.42	-0.0183	0.2358	-0.4889	
0.102236	-0.840946	0.44957	-12.67	-59.78	-46.83	-0.0368	0.2344	-0.4921	
0.102968	-0.85705	0.441274	-17.85	-60.97	-44.73	-0.0383	0.2405	-0.4889	
0.104432	-0.869738	0.414068	-21.63	-61.88	-38.92	-0.0468	0.2468	-0.4826	
0.091988	-0.89426	0.388814	-25.34	-63.35	-32.83	-0.0682	0.2486	-0.4811	
0.106872	-0.9333	0.382958	-25.2	-67.34	-26.46	-0.07669999	0.2411	-0.4797	
0.124806	-0.948794	0.36844	-21.98	-67.55	-17.64	-0.0911	0.258	-0.4779	
0.148718	-0.945744	0.364902	-19.18	-68.88	-11.13	-0.1024	0.2567	-0.4717	
0.19032	-0.956236	0.368074	-16.45	-69.23	-5.25	-0.1024	0.2538	-0.4655	
0.214964	-0.960994	0.374174	-14.35	-67.13	-1.54	-0.1238	0.2615	-0.4702	
0.226554	-0.969534	0.385154	-14.14	-61.46	2.03	-0.1224	0.2616	-0.4655	
0.244854	-0.947208	0.38918	-13.65	-53.48	4.55	-0.1323	0.2572	-0.464	
0.267058	-0.923906	0.391864	-13.65	-45.64	5.32	-0.1452	0.265	-0.4608	
0.265838	-0.922076	0.396012	-14.07	-36.68	3.22	-0.138	0.2588	-0.4593	
0.249612	-0.914512	0.398452	-9.87	-25.97	0.42	-0.1451	0.2605	-0.4515	
0.2623	-0.914268	0.412848	-6.23	-22.4	-2.24	-0.1453	0.2741	-0.4607	
0.26901	-0.90768	0.410896	-2.94	-16.38	-4.83	-0.1494	0.2638	-0.439	
0.272548	-0.889258	0.407724	-0.7	-10.01	-6.16	-0.1507	0.2577	-0.4391	
0.278038	-0.882182	0.411384	0.21	-6.58	-7.35	-0.1523	0.2635	-0.4609	
0.287676	-0.885598	0.41846	-0.07	-2.52	-7.14	-0.1608	0.2655	-0.439	
0.291336	-0.880718	0.418704	-1.19	2.38	-8.4	-0.1551	0.2608	-0.4438	
0.281088	-0.883402	0.408334	-2.38	8.96	-8.12	-0.1651	0.267	-0.4406	
0.264862	-0.892674	0.40626	-2.66	13.02	-8.54	-0.1594	0.2622	-0.45	
0.237168	-0.87169	0.394426	-2.8	15.26	-7.49	-0.1494	0.2621	-0.4547	
0.245952	-0.873642	0.38796	-6.3	13.44	-8.12	-0.1608	0.2622	-0.4516	
0.23241	-0.906704	0.380762	-7.42	15.05	-6.72	-0.1622	0.2578	-0.447	
0.206058	-0.910364	0.368806	-6.09	14.49	-5.32	-0.1451	0.2621	-0.4499	
0.20618	-0.912804	0.360632	-5.11	13.44	-4.9	-0.1522	0.2653	-0.4405	
0.205936	-0.915366	0.35807	-3.99	12.04	-4.62	-0.1523	0.2729	-0.4436	
0.202764	-0.916708	0.357094	-3.22	10.29	-4.34	-0.1551	0.2685	-0.4343	
0.199592	-0.920368	0.366366	-2.31	8.4	-2.87	-0.1508	0.2561	-0.4485	
0.199104	-0.91683	0.359656	-1.61	7.56	-1.47	-0.1423	0.2652	-0.4436	
0.194834	-0.917196	0.357338	-1.75	7	-0.35	-0.1509	0.2651	-0.4562	
0.18666	-0.917196	0.352214	-0.91	6.02	0.56	-0.1423	0.2621	-0.4452	
0.174094	-0.920734	0.346968	-0.14	4.76	1.75	-0.1438	0.2664	-0.4639	
0.159576	-0.919758	0.345138	-0.56	1.96	2.66	-0.1508	0.2622	-0.4453	
0.166042	-0.928054	0.351604	-0.7	-0.56	3.01	-0.1339	0.2694	-0.4623	
0.176778	-0.923418	0.35258	0.42	-2.03	3.92	-0.1367	0.2773	-0.445	
0.179462	-0.91317	0.35685	0.77	-3.22	4.41	-0.1538	0.2713	-0.4514	
0.18544	-0.90341	0.360876	0.35	-4.62	3.78	-0.1423	0.2681	-0.4498	
0.194468	-0.908168	0.360388	-0.7	-3.92	3.15	-0.1466	0.2651	-0.453	
0.191906	-0.904508	0.356362	-1.19	-3.85	2.45	-0.1452	0.2728	-0.4451	
0.194224	-0.907192	0.353312	-1.82	-4.2	1.82	-0.1437	0.2683	-0.442	
0.194468	-0.91988	0.356728	-1.89	-3.92	1.61	-0.1438	0.2728	-0.4451	
0.193126	-0.924272	0.359046	-1.33	-2.66	2.17	-0.1494	0.2652	-0.4452	
0.19154	-0.913536	0.357216	-0.84	-2.1	2.31	-0.1395	0.2727	-0.4451	
0.20801	-0.918904	0.359046	-1.26	-1.89	0.84	-0.1438	0.2774	-0.4403	
0.206546	-0.907314	0.36356	-2.45	-1.89	-0.42	-0.1524	0.2743	-0.4482	
0.22082	-0.929396	0.376858	-3.5	1.47	0.21	-0.1381	0.2681	-0.4483	
0.224114	-0.930372	0.377834	-1.68	6.86	2.31	-0.1423	0.2682	-0.4467	
0.227896	-0.89914	0.379908	0.28	10.92	3.85	-0.1424	0.2712	-0.4451	
0.21411	-0.882548	0.37698	-0.49	13.79	2.1	-0.1438	0.2728	-0.442	
0.213256	-0.892308	0.367586	-2.31	15.05	-1.05	-0.1423	0.2606	-0.4468	
0.22326	-0.916098	0.37759	-2.1	17.08	-2.94	-0.1423	0.2667	-0.442	
0.245952	-0.908778	0.402234	0.14	21.42	-2.17	-0.131	0.2694	-0.456	
0.274866	-0.87535	0.418338	1.19	27.37	-1.26	-0.131	0.2725	-0.4513	
0.286578	-0.859734	0.424194	-0.84	33.95	-2.73	-0.1338	0.265	-0.4514	
0.286334	-0.851194	0.43798	-2.59	42.07	-5.95	-0.1267	0.2633	-0.4561	
0.280112	-0.866322	0.446276	-4.83	50.26	-9.03	-0.121	0.2695	-0.445	
0.27511	-0.85766	0.440664	-5.95	58.38	-10.08	-0.1139	0.2661	-0.4622	
0.27816	-0.845948	0.423462	-8.47	67.34	-12.67	-0.1096	0.2677	-0.4575	
0.261812	-0.869372	0.397354	-11.13	76.44	-18.55	-0.104	0.2767	-0.4605	
0.230702	-0.889258	0.382348	-11.48	84	-24.57	-0.0927	0.2841	-0.4619	
0.225944	-0.9028	0.391376	-11.9	89.95	-29.4	-0.0756	0.2824	-0.4634	
0.247172	-0.88267	0.394914	-11.9	96.81	-31.85	-0.077	0.2792	-0.4713	
0.244	-0.876814	0.371002	-14.21	104.16	-34.3	-0.0557	0.2806	-0.4664	
0.201666	-0.901336	0.332328	-17.78	115.43	-41.93	-0.0586	0.2836	-0.4727	
0.199104	-0.896212	0.350506	-20.23	120.89	-48.23	-0.0456	0.2745	-0.4587	
0.225578	-0.851682	0.435906	-25.27	123.41	-49.28	-0.0357	0.279	-0.4554	
0.23668	-0.861564	0.410042	-28.49	130.55	-45.85	-0.023	0.2896	-0.4537	
0.195932	-0.93635	0.299144	-30.31	135.59	-44.52	-0.0187	0.2896	-0.449	
0.115046	-0.984296	0.260226	-28.21	135.59	-46.34	-0.0101	0.2833	-0.4553	
0.095038	-0.966972	0.283162	-27.72	130.06	-47.74	0.0011	0.2923	-0.4566	
0.1037	-0.95892	0.27389	-26.74	123.2	-47.18	0.0196	0.2999	-0.4439	
0.071492	-0.972706	0.248636	-26.11	118.51	-43.54	0.0295	0.3058	-0.4454	
0.062098	-0.985394	0.25315	-25.13	108.15	-40.6	0.0309	0.3119	-0.4421	
0.036234	-0.973194	0.24827	-20.3	101.78	-35.84	0.0409	0.312	-0.4311	
0.074908	-0.959042	0.28426	-21.42	89.53	-33.74	0.058	0.3134	-0.4264	
0.089548	-0.944402	0.302194	-20.51	82.81	-31.29	0.0494	0.3166	-0.4201	
0.098088	-0.931836	0.308782	-20.93	77.63	-27.02	0.058	0.3166	-0.4185	
0.09882	-0.938546	0.308782	-21.21	73.64	-23.17	0.0551	0.3259	-0.409	
0.0854	-0.933788	0.297924	-21.14	69.65	-20.3	0.0708	0.3211	-0.4105	
0.103822	-0.945622	0.304268	-22.75	64.19	-19.25	0.0779	0.3257	-0.4058	
0.110532	-0.945378	0.30378	-23.31	61.39	-15.61	0.0835	0.3348	-0.4009	
0.116632	-0.96136	0.297558	-21.49	59.29	-12.39	0.0862	0.3455	-0.3976	
0.123708	-0.945744	0.297924	-20.65	58.17	-8.26	0.0834	0.3473	-0.3804	
0.13054	-0.921588	0.269376	-14.49	52.08	-5.11	0.0906	0.3425	-0.3882	
0.10492	-0.942816	0.265716	-16.31	55.65	-5.67	0.0977	0.3456	-0.3788	
0.092354	-0.92232	0.256444	-13.72	54.67	-5.39	0.1062	0.3501	-0.3771	
0.061488	-0.93818	0.285358	-16.45	49.56	-8.12	0.1077	0.3456	-0.3709	
0.059902	-0.950624	0.24522	-15.75	44.1	-9.45	0.1133	0.3548	-0.3645	
-0.025864	-0.969412	0.253516	-21.84	30.45	-14.07	0.1176	0.3517	-0.3614	
0.04087	-0.988322	0.238754	-13.65	25.62	-14.07	0.1134	0.3533	-0.3614	
0.049044	-0.984052	0.250222	-11.55	18.34	-10.78	0.1146	0.3716	-0.3564	
0.040992	-0.98454	0.250344	-11.62	12.67	-8.47	0.1204	0.3594	-0.3581	
0.025742	-1.0126	0.244976	-12.39	7.42	-4.76	0.1076	0.3626	-0.3519	
0.007564	-1.016992	0.22387	-11.2	1.26	-1.89	0.1047	0.3673	-0.3471	
0.05002	-0.99613	0.246318	-10.78	-5.32	1.47	0.1162	0.3626	-0.3487	
0.106506	-0.979172	0.241682	-9.17	-7.21	3.01	0.1119	0.3627	-0.3472	
0.092842	-0.984052	0.242292	-8.26	-7.63	4.34	0.1133	0.3688	-0.3455	
0.08723	-0.98576	0.24583	-7.14	-7.56	5.74	0.1103	0.3717	-0.3533	
0.075518	-0.968314	0.227774	-5.18	-7.84	6.51	0.1146	0.3795	-0.3407	
0.068808	-0.969534	0.233874	-5.04	-9.38	5.6	0.1119	0.3628	-0.3378	
0.062464	-0.967582	0.228628	-4.13	-10.99	5.25	0.1146	0.3779	-0.3438	
0.059902	-0.977708	0.224358	-3.92	-12.95	4.48	0.1204	0.3702	-0.3423	
0.055144	-0.981246	0.223138	-2.94	-15.4	4.27	0.1175	0.3671	-0.3502	
0.049654	-0.970022	0.22082	-1.61	-17.15	5.6	0.1146	0.381	-0.3375	
0.051118	-0.962092	0.213622	-1.61	-20.02	6.51	0.1175	0.3749	-0.3407	
0.042212	-0.97539	0.203618	-1.96	-22.47	6.09	0.1147	0.3657	-0.3456	
0.025132	-0.988078	0.20069	-0.35	-25.27	6.3	0.1076	0.3688	-0.3471	
0.018544	-0.99491	0.192028	1.4	-29.33	7.56	0.1076	0.3627	-0.3456	
0.025742	-1.006744	0.194224	1.61	-34.44	8.61	0.1132	0.3685	-0.3612	
0.016592	-1.011868	0.191052	3.5	-40.32	4.34	0.1074	0.3792	-0.3594	
0.01891	-1.032364	0.18422	3.85	-44.52	10.43	0.1004	0.3687	-0.3612	
-0.004148	-1.05164	0.17263	7.63	-51.8	12.74	0.0976	0.3657	-0.3837	
-0.00976	-1.029436	0.156404	14.7	-59.5	16.45	0.0975	0.3655	-0.3691	
0.016836	-1.004182	0.151768	21.35	-70	20.09	0.0906	0.3521	-0.384	
0.050752	-0.986736	0.205936	23.03	-81.34	28.84	0.0933	0.3626	-0.366	
0.039406	-1.000888	0.183488	24.01	-86.52	30.8	0.0848	0.3472	-0.3835	
0.066368	-0.930006	0.186416	27.16	-92.82	31.08	0.0806	0.3487	-0.3851	
0.10309	-0.90951	0.221186	26.74	-97.58	29.68	0.0735	0.3365	-0.3931	
0.101138	-0.959408	0.25315	24.64	-100.45	30.87	0.0621	0.3396	-0.4009	
0.078324	-0.9577	0.275964	23.94	-98.42	31.99	0.0579	0.3259	-0.4074	
0.081984	-0.948184	0.252662	23.31	-100.59	29.05	0.0521	0.3335	-0.4057	
0.076616	-0.94672	0.233508	23.59	-103.53	25.62	0.0379	0.3306	-0.409	
0.06954	-0.929396	0.23668	24.5	-107.52	22.89	0.045	0.3319	-0.4183	
0.08906	-0.933544	0.274988	23.59	-111.44	20.93	0.0337	0.3213	-0.4216	
0.094184	-0.920734	0.330498	24.57	-113.82	16.73	0.0265	0.3273	-0.4372	
0.101382	-0.918172	0.383324	22.75	-112.7	15.26	0.007999999	0.3245	-0.4327	
0.18361	-0.934276	0.387106	17.08	-113.82	10.64	0.0009	0.32	-0.4343	
0.282796	-0.92781	0.374906	18.55	-107.45	7.56	-0.0303	0.3187	-0.4392	
0.310246	-0.842654	0.3233	23.66	-93.24	6.3	-0.0331	0.3111	-0.4455	
0.288652	-0.808982	0.28243	18.97	-84.91	-0.84	-0.0359	0.3082	-0.4378	
0.309636	-0.894748	0.237046	11.9	-78.26	-5.74	-0.0431	0.3142	-0.444	
0.272792	-0.98332	0.282308	12.53	-68.39	-3.22	-0.0543	0.2992	-0.4427	
0.26413	-0.987346	0.286578	15.4	-64.75	-1.68	-0.07009999	0.3068	-0.4505	
0.272548	-0.976	0.287676	17.57	-60.62	1.75	-0.0713	0.2903	-0.4429	
0.245708	-0.984296	0.285358	20.02	-55.93	4.41	-0.0786	0.2962	-0.4538	
0.209962	-0.983442	0.273036	23.73	-52.43	8.89	-0.0913	0.2858	-0.4478	
0.186294	-0.943304	0.271572	24.57	-57.54	11.69	-0.0884	0.2828	-0.4462	
0.207888	-0.967826	0.26352	25.97	-58.66	14.42	-0.0998	0.2874	-0.4493	
0.155916	-0.97966	0.25132	28.42	-58.94	16.52	-0.0982	0.2738	-0.448	
0.129808	-0.979904	0.240828	31.01	-64.68	18.27	-0.1111	0.2783	-0.4558	
0.127246	-0.968924	0.242292	33.04	-71.75	20.23	-0.1211	0.2786	-0.4465	
0.170068	-0.96563	0.251076	33.81	-77.56	22.75	-0.1224	0.2664	-0.4513	
0.207156	-0.980026	0.289018	33.88	-80.92	26.18	-0.131	0.2724	-0.4638	
0.265472	-1.0004	0.259006	37.45	-86.1	31.99	-0.1453	0.2725	-0.4623	
0.227164	-0.992104	0.278404	38.92	-90.16	36.05	-0.1508	0.2605	-0.4562	
0.228018	-0.983076	0.27633	38.92	-94.5	43.68	-0.1521	0.2499	-0.4533	
0.263886	-0.963922	0.304268	39.76	-98.84	52.29	-0.1521	0.2499	-0.4533	
0.259738	-0.949282	0.30317	38.99	-100.73	61.25	-0.162	0.244	-0.4534	
0.242292	-0.955504	0.317566	38.99	-105.56	66.08	-0.1849	0.2504	-0.4487	
0.232532	-0.94367	0.326106	40.74	-110.6	65.03	-0.1849	0.2504	-0.4487	
0.236558	-0.94977	0.33794	41.23	-118.65	62.93	-0.1892	0.2504	-0.4503	
0.244488	-0.93574	0.356484	42.56	-126.7	61.74	-0.1892	0.2504	-0.4503	
0.262666	-0.85095	0.3355	43.89	-124.95	61.04	-0.2061	0.2432	-0.4364	
0.324886	-0.848876	0.368684	38.22	-127.4	62.93	-0.2061	0.2432	-0.4364	
0.326228	-0.875716	0.361608	36.05	-123.97	61.88	-0.2175	0.248	-0.4302	
0.318908	-0.851194	0.366854	37.8	-121.8	58.59	-0.2275	0.2543	-0.4207	
0.32696	-0.837042	0.397598	37.73	-119.07	59.36	-0.2389	0.2483	-0.4271	
0.3233	-0.84668	0.419192	35.49	-116.06	56.84	-0.2403	0.2484	-0.4178	
0.329766	-0.878766	0.43127	35.56	-108.22	51.73	-0.253	0.241	-0.4179	
0.338184	-0.883036	0.460916	37.17	-101.36	49.21	-0.2572	0.2396	-0.4117	
0.329278	-0.84973	0.481534	39.62	-91.63	46.97	-0.2544	0.2442	-0.4038	
0.309758	-0.829356	0.489586	37.87	-81.62	47.25	-0.2615	0.2429	-0.3976	
0.291336	-0.805444	0.498614	33.53	-71.47	46.06	-0.2715	0.246	-0.3992	
0.293776	-0.781288	0.534604	25.55	-60.9	42.98	-0.2786	0.2492	-0.396	
0.25681	-0.7625	0.542168	14.91	-52.22	36.54	-0.2786	0.2477	-0.3929	
0.21594	-0.730048	0.536556	3.22	-46.83	30.45	-0.2801	0.257	-0.3818	
0.264374	-0.76494	0.491172	-9.59	-39.27	28.63	-0.2772	0.2555	-0.3787	
0.213988	-0.841922	0.499224	-17.92	-34.58	22.61	-0.2814	0.2542	-0.3678	
0.220332	-0.84424	0.45994	-13.37	-27.37	21.84	-0.2801	0.2586	-0.3771	
0.239486	-0.80825	0.427244	-10.71	-22.19	19.67	-0.2758	0.2634	-0.3614	
0.242536	-0.80459	0.41114	-10.43	-17.71	14.07	-0.2816	0.2725	-0.366	
0.236314	-0.829722	0.430416	-9.66	-14.98	11.97	-0.2745	0.2725	-0.3613	
0.210938	-0.86498	0.426878	-5.32	-8.61	8.26	-0.2887	0.2728	-0.3519	
0.218746	-0.8479	0.434076	-4.69	-6.09	2.31	-0.283	0.2772	-0.3565	
0.197396	-0.829478	0.411262	-4.27	-1.47	-1.26	-0.273	0.2724	-0.3613	
0.179218	-0.859124	0.3965	-5.25	0.42	-3.64	-0.2916	0.2771	-0.3675	
0.185074	-0.923052	0.422486	-5.18	-2.1	-7.7	-0.2788	0.2787	-0.3565	
0.19947	-0.890356	0.421876	1.82	2.24	-9.87	-0.2815	0.2696	-0.3566	
0.198372	-0.873642	0.415288	0.35	2.31	-11.06	-0.2845	0.2772	-0.3597	
0.189832	-0.88267	0.41663	-0.49	2.52	-11.9	-0.2843	0.2605	-0.3552	
0.210206	-0.8845	0.416996	-1.26	4.69	-12.46	-0.2899	0.256	-0.3569	
0.235094	-0.868274	0.433466	-1.82	8.96	-13.09	-0.2858	0.2728	-0.3457	
0.233508	-0.872056	0.43188	-3.85	10.64	-13.79	-0.2787	0.2695	-0.3566	
0.237778	-0.88633	0.423706	-4.41	12.53	-13.3	-0.2858	0.2634	-0.3677	
0.220698	-0.899506	0.417118	-4.27	15.33	-12.39	-0.2858	0.268	-0.3645	
0.214598	-0.882548	0.415776	-3.5	18.62	-12.11	-0.2858	0.2696	-0.3598	
0.225334	-0.860954	0.42334	-5.39	19.95	-13.23	-0.2786	0.2557	-0.3647	
0.245342	-0.853024	0.439566	-7.49	21.77	-14.42	-0.2958	0.2649	-0.3708	
0.252418	-0.852414	0.428952	-8.68	23.45	-14.7	-0.2901	0.2711	-0.3629	
0.24766	-0.873154	0.41907	-9.1	26.67	-14.98	-0.2901	0.265	-0.3646	
0.240706	-0.890966	0.406016	-8.26	30.38	-16.66	-0.2644	0.2601	-0.3677	
0.229116	-0.88084	0.406748	-6.58	32.48	-18.69	-0.2857	0.2588	-0.3662	
0.249612	-0.85827	0.41358	-7.91	37.1	-20.16	-0.2943	0.2589	-0.3694	
0.256566	-0.865956	0.415898	-8.61	38.92	-21.77	-0.2757	0.2572	-0.3662	
0.24827	-0.885476	0.413214	-8.19	39.06	-22.54	-0.2886	0.257	-0.3881	
0.230092	-0.884134	0.410164	-7.21	40.95	-22.54	-0.2828	0.2449	-0.3836	
0.247172	-0.86498	0.403576	-7.21	44.03	-22.19	-0.2757	0.2478	-0.3851	
0.275842	-0.84912	0.422364	-8.75	46.62	-22.96	-0.2729	0.2478	-0.3804	
0.283162	-0.82472	0.436394	-9.24	45.36	-24.64	-0.273	0.2522	-0.3928	
0.28426	-0.810934	0.43981	-11.9	47.88	-25.9	-0.2729	0.2429	-0.4039	
0.297924	-0.802882	0.439566	-15.05	50.12	-27.3	-0.2658	0.2491	-0.3928	
0.291336	-0.794952	0.423584	-16.87	52.22	-31.99	-0.2672	0.2491	-0.3944	
0.307928	-0.786168	0.41236	-18.34	53.76	-37.31	-0.2658	0.2444	-0.4007	
0.344894	-0.803614	0.395524	-17.71	58.31	-39.76	-0.2573	0.2518	-0.4053	
0.329034	-0.831186	0.406138	-14.98	63.35	-40.11	-0.2587	0.2441	-0.4132	
0.286578	-0.881694	0.417362	-9.59	67.9	-39.9	-0.2473	0.2471	-0.4084	
0.268522	-0.923052	0.422852	-4.97	67.76	-39.76	-0.253	0.2456	-0.4132	
0.279502	-0.922442	0.41907	-4.83	65.17	-41.02	-0.2559	0.2425	-0.4195	
0.302682	-0.900116	0.418704	-4.69	66.15	-41.51	-0.2444	0.2393	-0.4195	
0.263642	-0.878278	0.41968	-11.97	64.05	-43.68	-0.2416	0.2346	-0.4274	
0.364536	-0.916952	0.37027	-18.55	57.33	-44.31	-0.2415	0.2271	-0.4244	
0.382836	-0.893284	0.434198	-20.79	62.44	-38.78	-0.2345	0.2343	-0.4414	
0.353434	-0.925004	0.403576	-28.7	72.17	-29.54	-0.233	0.2268	-0.4368	
0.260104	-0.953064	0.355996	-32.48	74.2	-25.48	-0.2302	0.2282	-0.4383	
0.21533	-0.935008	0.341234	-32.06	72.31	-23.73	-0.2202	0.225	-0.443	
0.196298	-0.923052	0.333426	-31.92	69.65	-22.96	-0.2103	0.2355	-0.446	
0.168482	-0.91683	0.334646	-30.52	66.64	-23.24	-0.209	0.243	-0.4505	
0.149572	-0.895846	0.323666	-23.52	61.04	-20.93	-0.1905	0.2428	-0.4504	
0.159942	-0.881206	0.341234	-19.67	56.35	-18.62	-0.189	0.2383	-0.4458	
0.174338	-0.890356	0.357704	-18.41	53.41	-18.83	-0.1934	0.2444	-0.4489	
0.1708	-0.909388	0.370514	-16.87	51.24	-19.04	-0.1792	0.2472	-0.4519	
0.14823	-0.924638	0.36966	-16.17	49.21	-19.95	-0.172	0.2456	-0.4503	
0.136396	-0.937814	0.356606	-15.12	47.74	-19.74	-0.1792	0.2472	-0.455	
0.12505	-0.948062	0.346602	-14	45.01	-19.18	-0.1693	0.25	-0.4612	
0.1342	-0.950502	0.354044	-12.46	43.05	-17.78	-0.1691	0.2426	-0.4488	
0.153964	-0.93635	0.383324	-12.39	40.6	-16.59	-0.1607	0.2514	-0.4658	
0.163968	-0.923174	0.40199	-12.74	38.01	-16.1	-0.1564	0.2422	-0.4628	
0.170434	-0.918538	0.394792	-12.39	35.91	-13.72	-0.1607	0.2453	-0.4628	
0.183	-0.922198	0.371246	-10.43	34.02	-12.53	-0.1564	0.2499	-0.4596	
0.199104	-0.926468	0.380884	-5.67	37.59	-14.07	-0.1551	0.2528	-0.4673	
0.171898	-0.886208	0.39467	-5.25	39.97	-14.49	-0.1551	0.2558	-0.4688	
0.19886	-0.890478	0.400648	-8.26	34.72	-11.27	-0.1451	0.2497	-0.4642	
0.216062	-0.890356	0.40809	-9.59	31.15	-10.5	-0.1422	0.2497	-0.4642	
0.256932	-0.890722	0.40565	-9.8	34.02	-6.79	-0.1408	0.2527	-0.4626	
0.278892	-0.856074	0.429562	-11.97	42.63	-5.53	-0.1365	0.2528	-0.4532	
0.28914	-0.836554	0.450424	-17.29	54.39	-4.27	-0.1252	0.2616	-0.4655	
0.29646	-0.828502	0.457134	-24.43	61.81	-5.32	-0.1139	0.263	-0.4654	
0.303414	-0.818986	0.455182	-29.89	68.88	-6.3	-0.1196	0.2659	-0.4779	
0.295484	-0.795928	0.44042	-37.45	80.36	-6.58	-0.0968	0.2644	-0.4591	
0.305976	-0.795928	0.487024	-40.88	78.4	-8.26	-0.0954	0.2705	-0.4574	
0.310368	-0.88633	0.432612	-43.89	91.14	-9.52	-0.0813	0.2779	-0.4604	
0.299876	-0.894016	0.406748	-41.16	99.89	-10.15	-0.0784	0.2795	-0.4572	
0.279624	-0.90524	0.36722	-37.52	109.2	-9.52	-0.0557	0.2884	-0.4554	
0.190808	-0.94428	0.261934	-28.63	119.63	-9.31	-0.0529	0.2914	-0.4538	
0.160186	-0.978684	0.250588	-28.07	119.14	-11.55	-0.0401	0.299	-0.4426	
0.123342	-1.016382	0.244976	-23.45	118.02	-14.42	-0.0244	0.2958	-0.4411	
0.08967	-1.006012	0.247904	-18.13	111.79	-16.66	-0.0117	0.3017	-0.4472	
0.089304	-0.985394	0.281942	-15.89	103.95	-18.13	0.0025	0.3048	-0.4345	
0.100772	-0.976122	0.27023	-12.32	102.83	-17.43	0.0167	0.303	-0.4376	
0.101138	-0.965142	0.155672	-10.29	101.15	-18.06	0.0181	0.3075	-0.4438	
0.043188	-0.988566	0.316956	-5.53	100.03	-17.64	0.0337	0.3104	-0.439	
0.104676	-0.994178	0.301828	-9.24	94.64	-19.88	0.0366	0.3151	-0.4311	
0.085156	-0.973926	0.323788	-6.72	98.42	-18.62	0.0423	0.315	-0.4342	
0.10126	-0.956358	0.338184	-6.72	98.42	-16.24	0.0537	0.3149	-0.431	
0.13176	-0.950868	0.357338	-9.59	102.13	-14.35	0.058	0.315	-0.4232	
0.105652	-0.937814	0.296582	-10.71	112.21	-11.48	0.0778	0.327	-0.4182	
0.023058	-0.93147	0.239364	-13.58	116.62	-9.59	0.0891	0.3345	-0.4165	
-0.012932	-0.938302	0.224602	-18.13	112.21	-12.32	0.0992	0.327	-0.4025	
-0.013176	-0.974536	0.209352	-18.69	106.33	-13.86	0.1178	0.3177	-0.401	
-0.041968	-0.991372	0.21106	-14.77	100.17	-13.72	0.1177	0.3316	-0.3883	
-0.081496	-0.999668	0.202154	-10.85	93.8	-11.83	0.1248	0.3391	-0.385	
-0.114314	-0.99003	0.18483	-6.44	83.09	-12.6	0.132	0.3345	-0.3835	
-0.11651	-0.969412	0.182878	-0.49	71.61	-13.16	0.1476	0.3374	-0.3803	
-0.117486	-0.952454	0.210328	2.31	58.8	-14.91	0.1434	0.3345	-0.3756	
-0.098088	-0.944158	0.258274	3.43	47.6	-14.42	0.1491	0.336	-0.374	
-0.097234	-0.937326	0.26108	2.8	37.38	-14.91	0.1505	0.3345	-0.3725	
-0.088938	-0.951722	0.275232	0.07	26.25	-15.61	0.1491	0.3392	-0.363	
-0.032086	-0.941108	0.295362	3.5	24.71	-12.6	0.1491	0.3423	-0.3583	
-0.030744	-0.951234	0.339648	-0.91	20.3	-9.73	0.1548	0.3423	-0.3551	
0.017934	-0.921588	0.350506	-1.96	21.98	-6.23	0.1633	0.3451	-0.3629	
0.01403	-0.908778	0.344528	-8.82	22.47	-5.74	0.1533	0.3437	-0.3629	
-0.00488	-0.90341	0.34465	-14.42	21.28	-6.37	0.1605	0.3438	-0.3551	
-0.029524	-0.91622	0.323178	-19.81	18.34	-4.55	0.1561	0.3499	-0.3519	
-0.017202	-0.91988	0.314638	-22.75	16.45	-4.06	0.1619	0.3468	-0.3566	
-0.002196	-0.932934	0.284748	-24.29	14.56	-4.27	0.1733	0.3439	-0.3394	
-0.022448	-0.964166	0.265472	-27.16	13.3	-3.99	0.1634	0.344	-0.341	
-0.057462	-0.981246	0.238388	-26.11	10.64	-2.8	0.1547	0.3593	-0.3345	
-0.07747	-0.965752	0.219966	-24.29	6.3	-1.82	0.1619	0.3532	-0.333	
-0.05124	-0.959774	0.208254	-20.72	1.96	-1.89	0.1675	0.3624	-0.3251	
-0.038308	-0.975146	0.203618	-17.36	-1.96	-3.85	0.1648	0.3518	-0.3268	
-0.077836	-1.009306	0.203984	-15.19	-6.65	-3.57	0.1518	0.3657	-0.322	
-0.063806	-1.034804	0.20252	-10.64	-10.57	-3.22	0.1546	0.3685	-0.3313	
-0.036966	-1.029558	0.220576	-7.42	-15.19	1.33	0.1519	0.3581	-0.3221	
-0.0488	-1.023092	0.216428	-5.18	-17.5	6.09	0.1575	0.3655	-0.3251	
-0.040504	-0.99308	0.210328	-2.45	-19.53	8.26	0.1518	0.3655	-0.3313	
-0.03477	-0.97966	0.196298	-1.68	-21.49	7.84	0.1519	0.3626	-0.322	
-0.051972	-0.986492	0.188246	-1.61	-24.01	7.49	0.1562	0.358	-0.3236	
-0.049654	-0.986614	0.19703	-0.98	-27.93	7.35	0.1547	0.3579	-0.3314	
-0.04575	-0.993812	0.19154	2.1	-30.73	8.89	0.1618	0.3655	-0.325	
-0.03538	-0.98942	0.203618	1.68	-34.72	9.38	0.1562	0.3547	-0.3362	
-0.040016	-0.989298	0.19642	3.92	-35.98	11.06	0.1476	0.3579	-0.3346	
-0.06771	-0.97661	0.177144	5.04	-38.64	11.97	0.1518	0.3624	-0.3329	
-0.09516	-0.981368	0.162382	4.34	-43.96	12.67	0.1505	0.3502	-0.3378	
-0.104676	-0.98576	0.166408	7.14	-48.02	15.96	0.1504	0.3607	-0.3455	
-0.113338	-0.97966	0.148718	9.52	-55.79	22.61	0.1391	0.3486	-0.3551	
-0.123098	-0.979904	0.13481	8.61	-63.42	29.12	0.1419	0.3455	-0.3567	
-0.11102	-0.97905	0.16958	6.65	-70.91	35.49	0.1391	0.3455	-0.3567	
-0.127246	-1.0187	0.171532	5.95	-83.65	26.6	0.1376	0.3515	-0.3629	
-0.112484	-1.014674	0.167628	6.65	-92.05	27.44	0.1376	0.3423	-0.3693	
-0.035502	-0.904386	0.182146	10.71	-101.29	27.51	0.1262	0.3423	-0.3787	
-0.034648	-0.851926	0.172752	3.99	-109.41	29.05	0.1262	0.3406	-0.3594	
-0.074298	-0.982344	0.214964	-2.38	-107.66	28	0.1177	0.33	-0.3899	
-0.033062	-1.041636	0.23302	1.54	-99.75	28.63	0.1048	0.3377	-0.3914	
0.00305	-1.013576	0.258274	5.53	-101.01	30.17	0.09779999	0.3333	-0.3899	
0.064416	-0.984906	0.263032	4.83	-98	34.09	0.0964	0.3226	-0.3948	
0.07625	-0.943182	0.258884	4.83	-93.59	30.52	0.092	0.3316	-0.4056	
0.019032	-0.967094	0.252418	-0.77	-91.98	24.78	0.0822	0.3195	-0.4105	
0.00732	-0.988932	0.2562	0.28	-90.16	23.73	0.0735	0.3287	-0.4089	
0.057218	-0.978318	0.260348	1.75	-90.16	22.89	0.0722	0.3226	-0.4121	
0.080154	-0.954772	0.272792	2.1	-86.38	21.42	0.0594	0.3181	-0.4138	
0.010736	-0.952332	0.260958	-0.28	-83.16	17.71	0.0508	0.3228	-0.4153	
-0.012932	-0.965264	0.25254	-0.84	-80.36	11.55	0.0494	0.3243	-0.4153	
-0.00061	-0.95892	0.246196	0.56	-81.34	5.18	0.0423	0.3167	-0.4217	
0.005856	-0.913536	0.258884	2.38	-82.32	0.84	0.0367	0.3123	-0.4171	
-0.01464	-0.937692	0.263764	-1.54	-80.64	-2.38	0.0294	0.3213	-0.4248	
-0.006588	-1.000522	0.274012	-2.17	-77.98	-3.92	0.0166	0.3261	-0.4185	
0.024644	-1.005402	0.27084	7.07	-72.1	-3.36	0.0081	0.3216	-0.4233	
0.040992	-1.009062	0.247782	12.18	-67.76	-3.15	0.0039	0.3124	-0.4297	
0.050874	-1.0248	0.23241	12.32	-63	-3.85	-0.0088	0.3143	-0.4173	
-0.002562	-1.040782	0.213744	13.65	-60.76	-7.98	-0.0218	0.3279	-0.4296	
0.016226	-1.009794	0.192516	13.65	-62.58	-14.21	-0.0331	0.3111	-0.4409	
0.083082	-0.985394	0.239608	17.85	-63.98	-10.5	-0.0474	0.3175	-0.4299	
0.113582	-1.001742	0.236192	18.13	-65.66	-3.99	-0.0543	0.2993	-0.4365	
0.106384	-0.992592	0.232532	21.7	-64.47	0.28	-0.0573	0.3084	-0.4363	
0.081984	-0.97783	0.222406	26.67	-67.97	3.29	-0.0629	0.2994	-0.4334	
0.08479	-0.94855	0.237778	24.99	-70.35	1.4	-0.0686	0.304	-0.4396	
0.104676	-0.937326	0.23241	26.25	-70.91	1.82	-0.0785	0.2934	-0.4398	
0.097844	-0.933544	0.23729	25.2	-75.25	5.39	-0.0913	0.2982	-0.4366	
0.104554	-0.973682	0.211914	26.25	-80.15	11.34	-0.1084	0.2968	-0.4383	
0.09942999	-1.0187	0.245952	30.66	-78.54	16.87	-0.1155	0.2845	-0.4557	
0.1159	-0.989786	0.232532	40.46	-82.95	23.66	-0.1169	0.2907	-0.4478	
0.162992	-0.99247	0.23058	39.69	-91.49	29.68	-0.1226	0.2831	-0.4511	
0.200446	-1.027362	0.252906	39.62	-94.78	33.32	-0.131	0.2711	-0.4482	
0.207644	-1.013698	0.273158	40.53	-94.57	39.83	-0.1352	0.2712	-0.4404	
0.210938	-0.966606	0.27877	40.11	-96.18	45.22	-0.1438	0.2727	-0.4498	
0.265594	-0.928542	0.310368	39.9	-95.34	49	-0.1552	0.2698	-0.4499	
0.285724	-0.873398	0.358436	38.15	-95.13	54.18	-0.1679	0.2685	-0.4421	
0.25986	-0.841678	0.403942	36.61	-105.49	58.45	-0.1664	0.2562	-0.4517	
0.235948	-0.831796	0.424438	31.43	-106.12	56.7	-0.1806	0.2566	-0.4377	
0.237534	-0.874496	0.461038	22.82	-107.03	55.37	-0.1836	0.2626	-0.4439	
0.248392	-0.862662	0.473604	27.37	-98.98	57.75	-0.1893	0.2657	-0.4438	
