Sensor string: E
Serial number: 1970-01-0000
Firmware version: 2.015
Hardware version: 2.2
Calibration quality: 5
ax	ay	az	gx	gy	gz	mx	my	mz

-0.985028	-0.21167	0.008174	-0.84	0.56	0.14	0.3733	0.1131	-0.3131	Reference
-0.986614	-0.21472	0.013908	-0.56	-0.35	0	0.3776	0.1128	-0.3193	
-0.98881	-0.216672	0.011346	-0.21	-0.07	-0.42	0.3732	0.1171	-0.3268	
-0.98759	-0.217526	0.013908	-0.28	0.07	-0.56	0.3805	0.1141	-0.3238	
-0.987468	-0.21777	0.010736	0.21	-0.21	-0.28	0.3805	0.1143	-0.3192	
-0.98881	-0.217892	0.0061	0.63	0.21	0.28	0.3674	0.1208	-0.3144	
-0.986492	-0.215574	0.005978	0.7	0.07	0.42	0.3791	0.1098	-0.3178	
-0.986736	-0.217526	0.006466	0.28	0.42	0.42	0.3745	0.1249	-0.3219	
-0.989054	-0.214354	0.00244	0.49	0.56	0.49	0.376	0.1217	-0.325	
-0.991128	-0.21533	0.006588	0.84	0.7	0.21	0.3747	0.1112	-0.3224	
-0.990396	-0.215086	0.006344	0.77	0.21	-0.14	0.379	0.1142	-0.3207	
-0.995642	-0.2135	0.004148	1.12	0	-0.07	0.382	0.1114	-0.3132	
-0.991738	-0.21716	0.003904	1.12	-0.49	-0.35	0.3763	0.1068	-0.318	
-0.993202	-0.211182	0.00305	1.26	-0.84	-0.77	0.3805	0.1158	-0.3191	
-0.994544	-0.210206	0.000244	2.1	-0.56	-1.33	0.3747	0.1161	-0.313	
-0.992226	-0.214598	-0.005002	1.89	-0.35	-1.54	0.3747	0.1157	-0.3253	
-0.990762	-0.216306	0.008417999	1.75	-0.28	-1.54	0.379	0.1174	-0.3191	
-0.981612	-0.213622	0.007442	2.45	-0.77	-1.33	0.3732	0.1158	-0.3222	
-0.986248	-0.221674	0.012078	2.1	-0.35	-0.49	0.3746	0.1206	-0.3159	
-0.989054	-0.225578	0.011468	2.03	-0.7	-0.84	0.3705	0.1068	-0.3195	
-0.98942	-0.216672	0.011468	1.33	-1.12	-0.98	0.3674	0.1192	-0.3145	
-0.991128	-0.210572	0.010614	0.91	-1.05	-0.84	0.3719	0.1114	-0.3194	
-0.98088	-0.213988	0.014518	0.77	-0.14	-0.42	0.3745	0.1232	-0.3265	
-0.981002	-0.218502	0.01037	0.77	0.21	0.98	0.3746	0.1171	-0.3268	
-0.985638	-0.21594	0.011834	0.77	0.49	2.1	0.3747	0.1175	-0.3176	
-0.983686	-0.217526	0.011102	1.19	0.42	2.59	0.3805	0.111	-0.3239	
-0.990396	-0.212768	0.017934	1.19	1.19	2.03	0.3703	0.1185	-0.3313	
-0.989542	-0.213744	0.007686	1.96	1.19	0.77	0.3861	0.1217	-0.3219	
-1.000522	-0.20801	0.00854	0.98	-0.07	-1.26	0.3746	0.1223	-0.3112	
-0.985272	-0.205448	0.013298	0.14	-1.26	-3.01	0.3762	0.1114	-0.3178	
-0.996862	-0.211792	-0.000976	-0.28	-0.42	-3.64	0.3819	0.1124	-0.3285	
-0.986736	-0.212524	0.005368	-1.26	-0.7	-3.29	0.3748	0.1114	-0.3178	
-0.988566	-0.217892	0.004758	-1.47	-0.7	-1.26	0.3745	0.125	-0.3203	
-0.988566	-0.223504	0.006466	-0.98	-0.49	0.28	0.3747	0.1127	-0.3239	
-0.985028	-0.230336	0.015982	0.07	0.07	1.47	0.3762	0.1145	-0.3161	
-0.98576	-0.233386	0.014152	1.26	-0.14	1.47	0.3716	0.1281	-0.3202	
-0.984662	-0.228994	0.014518	2.24	-0.21	1.05	0.3834	0.1144	-0.3161	
-0.987346	-0.2257	0.014518	2.17	-0.14	0.35	0.3775	0.1173	-0.3222	
-0.985028	-0.218624	0.012932	2.03	0.14	-0.14	0.3791	0.113	-0.3131	
-0.987346	-0.210816	0.009272	1.68	0.63	-0.35	0.3806	0.1082	-0.3179	
-0.990762	-0.203496	0.007929999	0.77	0.14	-0.42	0.3791	0.1082	-0.3194	
-0.99796	-0.202764	0.006832	0.28	0	-0.7	0.3747	0.113	-0.3162	
-0.997472	-0.206058	0.001098	0.28	-0.84	-0.7	0.3736	0.0917	-0.3155	
-0.991494	-0.213012	0.01159	-0.21	-1.47	-0.49	0.379	0.1156	-0.3253	
-0.98515	-0.220576	0.011834	0	-1.68	-0.49	0.3791	0.1096	-0.3225	
-0.992958	-0.228262	0.007929999	0.7	-2.1	-0.28	0.376	0.1252	-0.3157	
-0.992714	-0.226676	0.00915	0.84	-2.87	-0.84	0.3776	0.1093	-0.3301	
-0.989664	-0.217648	0.003904	0.84	-3.5	-1.19	0.3777	0.1066	-0.3226	
-0.979782	-0.216794	0.01098	-0.35	-2.45	-1.19	0.3748	0.1067	-0.3195	
-0.976122	-0.213866	0.018666	-0.91	-1.05	-1.33	0.3776	0.1157	-0.3222	
-0.973438	-0.20618	0.024522	-1.05	-0.07	-0.56	0.3717	0.1172	-0.3253	
-0.983686	-0.21411	0.024522	-1.12	1.75	0.91	0.3762	0.1131	-0.3116	
-0.987956	-0.213866	0.031232	0.07	2.94	1.19	0.3804	0.1139	-0.3299	
-0.981002	-0.215208	0.03965	0.49	2.73	1.82	0.3703	0.116	-0.3192	
-0.980026	-0.22021	0.038918	0.14	2.8	0.63	0.3819	0.1108	-0.3301	
-0.983442	-0.224968	0.031354	1.12	2.59	0.56	0.3689	0.1129	-0.3208	
-0.989298	-0.222406	0.019276	1.05	1.26	0.35	0.3747	0.1126	-0.3254	
-0.994544	-0.222162	0.008052	1.54	0.35	-0.07	0.3776	0.1141	-0.3253	
-0.99369	-0.218258	-0.000732	2.03	0.14	-0.35	0.3819	0.1157	-0.3222	
-0.996862	-0.211914	-0.009516	2.31	-0.42	-0.84	0.3792	0.1053	-0.3165	
-0.99674	-0.209718	-0.014274	1.54	-0.7	-1.26	0.3762	0.1129	-0.3162	
-0.995886	-0.209108	-0.010614	0.98	-0.28	-0.49	0.382	0.1144	-0.3146	
-0.990884	-0.208498	-0.003782	0.28	0.42	-0.21	0.3818	0.1234	-0.3188	
-0.987956	-0.210328	0.011346	-0.42	1.54	0.21	0.3848	0.1205	-0.3143	
-0.986858	-0.21472	0.013176	-0.56	1.75	0.42	0.3732	0.1154	-0.333	
-0.98637	-0.218136	0.025864	-0.42	1.68	0.14	0.3747	0.1111	-0.3239	
-0.98698	-0.221186	0.029158	0.07	0.98	-0.07	0.3732	0.1158	-0.3222	
-0.983442	-0.22692	0.027572	-0.14	-0.07	-0.56	0.363	0.1223	-0.3159	
-0.988078	-0.224724	0.020618	0.28	-0.77	-1.26	0.3776	0.1174	-0.3191	
-0.991006	-0.218624	0.010736	0.42	-1.26	-1.47	0.3789	0.1201	-0.3266	
-0.984174	-0.216306	0.006344	0.21	-0.56	-1.33	0.3804	0.1156	-0.3237	
-0.985272	-0.213012	0.004636	-0.21	-0.14	-1.05	0.3819	0.1189	-0.3175	
-0.99064	-0.219722	0.003782	-0.7	0.35	-0.42	0.3819	0.1174	-0.316	
-0.984662	-0.220332	0.00671	-0.35	0.7	-0.07	0.3789	0.1233	-0.3234	
-0.993568	-0.219356	0.01281	0.07	1.19	-0.07	0.3891	0.117	-0.3236	
-0.991616	-0.222162	0.015372	0.35	1.05	-0.42	0.379	0.1142	-0.3223	
-0.98454	-0.229604	0.013786	1.05	0.56	-0.14	0.3733	0.1114	-0.3178	
-0.995886	-0.225578	0.010004	1.54	-0.7	0.21	0.3734	0.1069	-0.3149	
-0.99979	-0.219966	0.000854	1.54	-2.52	-0.07	0.3805	0.1159	-0.3161	
-0.990518	-0.21411	-0.002684	1.05	-2.73	-0.28	0.3819	0.1144	-0.3161	
-0.98393	-0.205814	0.003904	0.28	-1.19	-0.49	0.3791	0.1161	-0.3115	
-0.981368	-0.209718	0.008052	-0.7	0.14	-0.21	0.3821	0.1023	-0.312	
-0.980392	-0.213012	0.014274	-1.19	1.54	0.21	0.369	0.1098	-0.321	
-0.98576	-0.21411	0.026352	-1.05	2.52	0.56	0.3761	0.1173	-0.3222	
-0.981246	-0.22021	0.034282	0.63	2.17	1.82	0.3776	0.1111	-0.3224	
-0.983686	-0.227286	0.038186	0.7	0.98	0.63	0.3819	0.1141	-0.3223	
-0.99491	-0.223992	0.030988	1.54	-0.21	0	0.3804	0.122	-0.3158	
-0.998936	-0.22753	0.01159	1.96	-1.47	-0.63	0.3734	0.1037	-0.3197	
-0.990884	-0.219722	0.000244	1.33	-2.73	-1.75	0.3762	0.1132	-0.3085	
-0.98942	-0.21838	-0.00671	0.63	-1.54	-1.33	0.3791	0.1117	-0.3086	
-0.979782	-0.21167	-0.004514	-0.28	-0.07	-0.35	0.3747	0.1111	-0.3255	
-0.980758	-0.210938	-0.00061	-0.84	1.05	0	0.3776	0.1141	-0.3238	
-0.98271	-0.213012	0.010004	-1.05	1.82	0.42	0.3718	0.1161	-0.3146	
-0.996252	-0.219112	0.01586	-0.63	2.59	0.56	0.379	0.1141	-0.3238	
-0.992348	-0.219966	0.02623	-0.42	1.4	0.21	0.3777	0.1053	-0.3165	
-0.993202	-0.227164	0.019154	0.49	0.42	0.35	0.3848	0.1161	-0.3114	
-0.995032	-0.22021	0.019276	0.77	-1.68	-0.14	0.3806	0.1052	-0.318	
-0.98637	-0.218502	0.00671	0.91	-2.52	-0.35	0.3819	0.1159	-0.3161	
-0.98576	-0.21655	0.003416	0.07	-1.47	-0.56	0.3689	0.1112	-0.3255	
-0.983808	-0.215208	0.001708	-0.28	-0.84	-0.98	0.3819	0.1191	-0.3129	
-0.981002	-0.212402	0.010614	-0.98	1.19	-0.42	0.3719	0.1148	-0.31	
-0.981734	-0.211304	0.013054	-1.26	2.31	0.49	0.3775	0.1156	-0.3253	
-0.989908	-0.219356	0.023424	-0.91	2.59	0.49	0.3718	0.1129	-0.3178	
-0.992592	-0.224602	0.02379	0.56	1.05	0.7	0.3775	0.1187	-0.3236	
-0.99491	-0.221064	0.020862	1.75	-0.35	0.56	0.3834	0.1158	-0.3176	
-0.996862	-0.217282	0.013786	1.61	-1.75	-0.56	0.3745	0.1283	-0.3141	
-0.98271	-0.214354	0.002928	0.91	-2.17	-1.26	0.382	0.1111	-0.3224	
-0.993812	-0.213378	-0.007929999	0.63	-1.05	-1.12	0.3821	0.1022	-0.3151	
-0.990396	-0.214598	-0.002928	-0.28	-0.49	-0.42	0.382	0.1081	-0.321	
-0.981246	-0.218502	0.003782	-1.05	0.63	0.07	0.3834	0.1128	-0.3162	
-0.97966	-0.217648	0.01464	-1.54	1.47	0.77	0.3717	0.1222	-0.3143	
-0.98271	-0.223504	0.0244	-0.84	1.75	1.19	0.3777	0.1117	-0.3086	
-0.987956	-0.22143	0.029036	-1.4	0.49	0.35	0.3805	0.1147	-0.3084	
-0.997472	-0.224846	0.021838	-1.05	-0.07	-0.77	0.3791	0.1129	-0.3162	
-0.996618	-0.222772	0.016104	-0.63	-0.84	-1.47	0.3832	0.1217	-0.3235	
-0.991738	-0.215574	0.01037	-0.28	-1.4	-1.47	0.3848	0.1189	-0.3175	
-0.98515	-0.211792	0.001342	-0.77	-1.75	-0.91	0.3805	0.1095	-0.324	
-0.982588	-0.214476	0.003904	-1.19	-0.84	-0.28	0.3718	0.1192	-0.3129	
-0.982222	-0.216184	0.004148	-0.91	0.21	0.63	0.3848	0.1127	-0.3192	
-0.98576	-0.219478	0.009881999	-0.7	0.77	1.26	0.3775	0.1201	-0.3282	
-0.986736	-0.220576	0.01647	-0.63	0.63	1.33	0.3819	0.1157	-0.3222	
-0.99247	-0.226188	0.020862	0.28	0.49	1.12	0.3762	0.1112	-0.3224	
-0.994178	-0.219844	0.022204	0.77	0.14	0.77	0.3805	0.1079	-0.3256	
-0.99308	-0.217038	0.018056	0.91	-0.42	0.49	0.3805	0.1124	-0.3269	
-0.986004	-0.213378	0.016226	0.14	-1.12	-0.14	0.3776	0.1158	-0.3207	
-0.981856	-0.209718	0.012322	-0.35	-0.63	-0.14	0.3761	0.1142	-0.3223	
-0.982832	-0.206424	0.0061	-0.21	-0.07	0.49	0.3748	0.1067	-0.3195	
-0.986736	-0.212036	0.004392	-0.35	0.77	1.12	0.3849	0.1095	-0.3224	
-0.989664	-0.214598	0.005124	-0.14	1.05	1.05	0.3761	0.1159	-0.3176	
-0.993568	-0.218014	0.012566	0	1.19	0.7	0.3732	0.1173	-0.3222	
-0.991494	-0.223504	0.013664	-0.21	0.28	0.07	0.3761	0.1126	-0.3254	
-0.99064	-0.224846	0.014762	-0.42	-0.14	-0.28	0.3734	0.1019	-0.3274	
-0.989908	-0.223382	0.013908	-0.21	-0.84	-0.28	0.3819	0.1125	-0.3239	
-0.986736	-0.215574	0.013054	-0.35	-0.91	-0.21	0.3762	0.1128	-0.3193	
-0.982954	-0.212768	0.010248	-0.28	-0.28	-0.21	0.379	0.1141	-0.3238	
-0.985882	-0.210084	0.008052	0.14	0.21	-0.42	0.3805	0.1157	-0.3207	
-0.989176	-0.20923	0.006954	-0.07	0.28	-0.49	0.3718	0.1158	-0.3238	
-0.987468	-0.21045	0.007808	-0.28	0.21	-0.14	0.3762	0.1129	-0.3162	
-0.989786	-0.214476	0.012932	-0.63	0.49	0.21	0.3806	0.108	-0.3225	
-0.993568	-0.213622	0.01464	-0.77	0.42	0.21	0.3747	0.116	-0.3176	
-0.989664	-0.217282	0.016592	-0.63	0.42	0.07	0.385	0.1069	-0.3118	
-0.98576	-0.2196	0.020008	-0.42	0	-0.28	0.3791	0.1112	-0.3209	
-0.98637	-0.220332	0.015616	0.07	-0.14	-0.28	0.3819	0.1189	-0.3175	
-0.986248	-0.218868	0.009881999	0.56	0.28	-0.21	0.379	0.1123	-0.3315	
-0.987102	-0.212768	0.00854	0.21	0.28	-0.07	0.3761	0.1206	-0.3144	
-0.98698	-0.210328	0.007686	-0.14	0.7	0.14	0.3864	0.1098	-0.3147	
-0.98942	-0.210572	0.01098	-0.91	1.26	0.63	0.3747	0.1111	-0.3255	
-0.988078	-0.213744	0.011468	-1.33	1.26	0.84	0.3776	0.1191	-0.3144	
-0.991128	-0.21289	0.005734	-1.61	1.33	1.05	0.382	0.1116	-0.3101	
-0.99552	-0.210328	0.007808	-2.59	0.56	0.7	0.3804	0.122	-0.3173	
-0.99186	-0.2196	0.005734	-2.73	0	0.35	0.3849	0.1129	-0.3146	
-0.984296	-0.217404	0.012932	-2.1	0.35	-0.14	0.3747	0.1177	-0.313	
-0.981856	-0.215452	-0.002806	-0.35	0.91	-0.14	0.3778	0.1006	-0.3198	
-0.993934	-0.221064	0.005002	-1.96	0.84	0.35	0.3791	0.1081	-0.3225	
-0.995764	-0.219356	0.005246	-0.21	0.35	-0.56	0.3805	0.1192	-0.3113	
-0.994666	-0.214598	0.01098	0.49	-1.19	-0.91	0.3804	0.1221	-0.3143	
-0.98881	-0.210816	0.009272	0.91	-2.03	-1.19	0.3849	0.1111	-0.3208	
-0.990518	-0.208742	0.01281	0.42	-1.89	-1.4	0.3806	0.1114	-0.3147	
-0.987102	-0.215452	0.009881999	0.07	-1.4	-0.98	0.3834	0.1125	-0.3238	
-0.983686	-0.218014	0.003416	-0.28	-0.35	-0.28	0.3774	0.13	-0.3078	
-0.987834	-0.214842	0.006832	-0.42	0.07	-0.21	0.3774	0.13	-0.3078	
-0.985516	-0.218502	0.011224	0.42	0.49	0.7	0.3718	0.1173	-0.3222	
-0.992958	-0.21716	0.017812	0.63	0.35	0.7	0.3804	0.1172	-0.3221	
-0.992714	-0.214598	0.01586	1.05	-0.28	0.56	0.3733	0.1113	-0.3193	
-0.992348	-0.216184	0.016592	0.63	-0.91	-0.07	0.3791	0.1095	-0.3255	
-0.988566	-0.217526	0.011956	0.49	-1.4	-0.35	0.3719	0.1101	-0.3117	
-0.985028	-0.213622	0.005612	0.28	-1.05	-0.14	0.3804	0.1184	-0.3298	
-0.984906	-0.211792	0.005978	0.07	-0.28	0.14	0.3746	0.1235	-0.3204	
-0.981978	-0.215208	0.007686	0.28	0.42	0.42	0.3776	0.1143	-0.3192	
-0.988688	-0.213134	0.0122	0.49	0.91	0.42	0.3803	0.1247	-0.3264	
-0.99186	-0.212036	0.013786	0.56	0.56	0.21	0.382	0.1145	-0.313	
-0.992714	-0.213744	0.015128	0.21	-0.07	-0.07	0.3731	0.1282	-0.3171	
-0.990762	-0.2135	0.016714	0.07	-0.35	-0.28	0.3747	0.1192	-0.3129	
-0.990152	-0.21594	0.014762	0.07	-0.7	-0.42	0.3847	0.1203	-0.3189	
-0.989054	-0.216428	0.009028	-0.07	-0.49	-0.28	0.3689	0.1145	-0.3177	
-0.984906	-0.212158	0.009516	-0.07	0.07	0	0.3819	0.1187	-0.3221	
-0.986858	-0.212768	0.010736	-0.35	0.35	0.07	0.3761	0.1192	-0.3129	
-0.986858	-0.215086	0.006588	-0.14	0.49	0.07	0.3761	0.1157	-0.3238	
-0.99064	-0.216916	0.01281	0	0.91	0.28	0.379	0.1144	-0.3177	
-0.98881	-0.211914	0.015738	0.14	0.63	0.28	0.3819	0.1126	-0.3223	
-0.988688	-0.216184	0.016958	0	0.7	0.35	0.3704	0.1113	-0.3209	
-0.992592	-0.216306	0.008417999	0.42	0.42	-0.07	0.3733	0.1143	-0.3208	
-0.995886	-0.2135	0.009638	0.7	0.14	-0.28	0.3776	0.1078	-0.3302	
-0.987346	-0.20984	0.0061	0.56	0.14	-0.49	0.3792	0.1067	-0.3195	
-0.9882	-0.20923	0.007686	0.07	0.21	-0.21	0.3775	0.1218	-0.322	
-0.98515	-0.214598	0.00549	-0.21	0.35	0.21	0.3833	0.1235	-0.3173	
-0.984662	-0.21533	0.011712	-0.28	0.91	0.56	0.3891	0.1157	-0.3176	
-0.990884	-0.216916	0.01159	0.07	1.26	0.7	0.379	0.1221	-0.3143	
-0.990884	-0.218014	0.01281	0.7	1.33	0.14	0.3718	0.1126	-0.3254	
-0.989664	-0.219966	0.016104	0.91	0.77	-0.28	0.379	0.1142	-0.3223	
-0.98698	-0.21533	0.013298	1.05	0.42	-0.35	0.3747	0.1095	-0.3255	
-0.988688	-0.208986	0.01037	0.7	0.7	-0.14	0.379	0.1153	-0.3314	
-0.988444	-0.205448	0.010126	0.28	0.77	-0.14	0.3833	0.1157	-0.3207	
-0.987956	-0.20557	0.007808	0.21	0.14	-0.42	0.3833	0.1153	-0.3314	
-0.988688	-0.208986	0.005368	0	0.91	-0.07	0.3719	0.1131	-0.3147	
-0.99186	-0.21167	0.004514	0.07	1.26	0.21	0.3834	0.1145	-0.313	
-0.991982	-0.216184	0.005978	0.42	0.98	0	0.3774	0.1295	-0.3201	
-0.99369	-0.215452	0.00549	0.49	0.63	-0.35	0.3734	0.1053	-0.3181	
-0.990396	-0.216794	0.009272	0.28	0.84	-0.84	0.3732	0.1188	-0.3236	
-0.98759	-0.217404	0.00671	0.07	0.56	-0.98	0.3748	0.1097	-0.3225	
-0.98881	-0.21838	0.005612	0.07	0.49	-0.35	0.3718	0.1141	-0.3269	
-0.990762	-0.213378	0.004148	0.14	0.42	0.21	0.3934	0.12	-0.3235	
-0.987956	-0.211182	0.003294	0.14	0.21	0.42	0.3819	0.1141	-0.3238	
-0.989786	-0.209596	0.003172	0.28	0.14	0.14	0.3718	0.1145	-0.3177	
-0.992348	-0.213256	0.005368	0.21	-0.49	-0.56	0.3675	0.1129	-0.3208	
-0.991494	-0.21838	0.005002	0.14	-0.35	-0.42	0.3746	0.1204	-0.322	
-0.988444	-0.216306	0.008662	0.35	0.14	-0.21	0.3791	0.113	-0.3147	
-0.987346	-0.214598	0.008052	0.14	-0.21	-0.28	0.3718	0.1129	-0.3193	
-0.986858	-0.216184	0.010736	0.49	-0.21	-0.21	0.379	0.1204	-0.319	
-0.986736	-0.214232	0.012444	0.63	-0.07	-0.21	0.3818	0.1218	-0.3204	
-0.987102	-0.211426	0.009516	0.7	-0.28	-0.14	0.3747	0.1158	-0.3222	
-0.990396	-0.211182	0.008174	0.42	-0.35	0.07	0.3732	0.1174	-0.3206	
-0.990884	-0.2135	0.007198	0.42	-0.35	0.07	0.3877	0.1142	-0.3192	
-0.989542	-0.21228	0.006344	0.14	-0.14	0.14	0.3761	0.1189	-0.319	
-0.988322	-0.212768	0.009881999	0	-0.07	-0.07	0.3806	0.1114	-0.3147	
-0.98942	-0.215086	0.00915	0.21	0	-0.07	0.3747	0.1161	-0.3145	
-0.989786	-0.211426	0.00976	0.07	-0.07	-0.35	0.3763	0.1052	-0.318	
-0.988566	-0.213256	0.010126	0.14	-0.21	-0.42	0.3734	0.1119	-0.3055	
-0.989786	-0.211304	0.008052	0.07	-0.14	-0.56	0.3791	0.1083	-0.3164	
-0.987468	-0.21228	0.005856	0.21	0.07	-0.49	0.3819	0.1205	-0.3159	
-0.991128	-0.211426	0.006954	0	0.07	-0.21	0.382	0.1112	-0.3193	
-0.991006	-0.213256	0.006832	-0.28	-0.07	-0.35	0.382	0.1114	-0.3132	
-0.988688	-0.216794	0.00671	-0.28	-0.21	-0.42	0.379	0.1153	-0.3314	
-0.988078	-0.217648	0.008662	-0.21	-0.14	-0.42	0.3718	0.116	-0.3176	
-0.987834	-0.21533	0.008417999	0	-0.07	-0.42	0.3861	0.1215	-0.3281	
-0.988566	-0.218136	0.008174	0.07	-0.28	-0.42	0.3747	0.1175	-0.316	
-0.99003	-0.21716	0.006588	0.7	-0.07	-0.21	0.3862	0.1204	-0.3158	
-0.991006	-0.214232	0.008662	0.63	-0.14	0.28	0.3819	0.1109	-0.327	
-0.99003	-0.216306	0.005734	0.63	-0.42	0.21	0.3878	0.1128	-0.3146	
-0.9882	-0.216794	0.00976	0.28	-0.28	0.21	0.382	0.1096	-0.3209	
-0.988688	-0.21228	0.007686	0.35	-0.07	0.35	0.3877	0.1175	-0.3129	
-0.986858	-0.21289	0.007686	0.21	0.21	0.21	0.3718	0.1157	-0.3253	
-0.990152	-0.213866	0.008296	0	0.07	-0.14	0.3747	0.116	-0.3161	
-0.991982	-0.21716	0.006832	0.35	-0.42	-0.07	0.3862	0.1189	-0.3159	
-0.991494	-0.216794	0.013786	0.42	-0.49	0.14	0.3718	0.1177	-0.313	
-0.98881	-0.211548	0.010126	0.49	-0.7	-0.07	0.3732	0.1174	-0.3191	
-0.98576	-0.21411	0.010736	0.49	-0.35	-0.49	0.3775	0.1187	-0.3236	
-0.985882	-0.211426	0.007808	0.28	-0.28	-0.7	0.3748	0.1115	-0.3147	
-0.987956	-0.21106	0.008296	-0.07	-0.42	-0.42	0.3747	0.1128	-0.3208	
-0.989298	-0.214232	0.01098	0.14	0.28	0.07	0.3717	0.1223	-0.3128	
-0.9882	-0.21411	0.01281	0.35	0.49	0	0.3776	0.1144	-0.3177	
-0.98881	-0.21289	0.016226	0.07	0.35	-0.56	0.3733	0.1114	-0.3178	
-0.989054	-0.215452	0.011956	0.14	-0.07	-0.56	0.3776	0.114	-0.3284	
-0.98942	-0.216306	0.013054	0.07	-0.14	-0.49	0.3761	0.1161	-0.3145	
-0.987956	-0.21411	0.008905999	0.42	-0.28	-0.21	0.3687	0.1266	-0.3203	
-0.986248	-0.213012	0.007076	0.28	0.21	0	0.3806	0.1098	-0.3163	
-0.986126	-0.210694	0.007808	0	0.42	0	0.3762	0.1129	-0.3162	
-0.988932	-0.210084	0.005856	-0.28	0.56	0.14	0.382	0.113	-0.3131	
-0.992104	-0.214598	0.009638	-0.35	0.91	0.35	0.3776	0.1159	-0.3176	
-0.99064	-0.215696	0.011224	-0.21	0.42	0.21	0.3762	0.1116	-0.3117	
-0.989542	-0.217282	0.011834	-0.28	0.28	0.28	0.392	0.1192	-0.3051	
-0.989664	-0.216428	0.011468	-0.07	0	0.35	0.3745	0.1232	-0.3265	
-0.988688	-0.215696	0.007442	-0.21	-0.21	0.28	0.3631	0.1194	-0.3114	
-0.98759	-0.216062	0.005002	0.28	0	0.21	0.3834	0.1142	-0.3207	
-0.988322	-0.213256	0.004026	0.21	0.21	0.35	0.3717	0.1233	-0.325	
-0.992348	-0.211548	0.008784	-0.07	0.14	0.49	0.3775	0.1173	-0.3206	
-0.990152	-0.211426	0.008052	-0.07	0.07	0.35	0.3746	0.1188	-0.3221	
-0.990274	-0.211426	0.011346	-0.35	-0.21	0.21	0.379	0.1156	-0.3237	
-0.991494	-0.21045	0.008052	-0.28	-0.28	0.21	0.379	0.1172	-0.3237	
-0.98942	-0.213256	0.009881999	-0.28	-0.42	0.28	0.3674	0.1187	-0.3283	
-0.98881	-0.21106	0.011224	-0.35	-0.7	0.28	0.3805	0.114	-0.3269	
-0.987834	-0.21228	0.01037	-0.49	-0.77	0.35	0.3818	0.1169	-0.3298	
-0.988444	-0.212768	0.010126	-0.63	-0.84	0.21	0.3791	0.1097	-0.3209	
-0.99003	-0.212036	0.013542	-0.77	-0.91	0.42	0.3761	0.1159	-0.3191	
-0.989176	-0.212646	0.01342	-0.77	-0.56	0.7	0.3806	0.1063	-0.3272	
-0.988322	-0.211914	0.014884	-0.77	-0.42	0.98	0.3804	0.1201	-0.3266	
-0.986126	-0.212402	0.015372	-2.03	0.7	-1.19	0.3762	0.1127	-0.3223	
-0.9943	-0.212036	0.001952	-0.98	-0.14	0.07	0.3861	0.1232	-0.3234	
-0.994544	-0.21716	0.003538	-1.61	-0.21	-1.12	0.379	0.1187	-0.3236	
-0.996496	-0.214476	0.001098	0.07	-0.98	-0.21	0.379	0.1156	-0.3237	
-0.987712	-0.212158	0.002928	-0.21	-0.77	-0.07	0.379	0.1171	-0.3252	
-0.988444	-0.209962	0.002806	-0.63	-0.84	0.21	0.3674	0.1237	-0.3173	
-0.990274	-0.21106	0.006344	-0.84	-0.91	0.35	0.3774	0.1233	-0.3234	
-0.990518	-0.213134	0.012688	-0.56	-0.84	0.63	0.3761	0.1124	-0.33	
-0.98942	-0.213134	0.01464	-0.07	-0.98	0.56	0.3777	0.1086	-0.3087	
-0.99064	-0.213134	0.017446	0.49	-1.4	0.14	0.3819	0.1139	-0.3284	
-0.993324	-0.21411	0.015372	0.28	-1.96	-0.28	0.3775	0.1204	-0.3205	
-0.992836	-0.207156	0.016348	0.14	-1.54	-1.05	0.3719	0.1066	-0.3241	
-0.98637	-0.210694	0.0122	0.28	-1.54	-0.63	0.3703	0.1204	-0.3221	
-0.984662	-0.212646	0.012322	0.49	-0.98	-0.35	0.3719	0.1096	-0.3256	
-0.986858	-0.212036	0.010858	0.14	-0.98	-0.42	0.3732	0.1137	-0.3361	
-0.98759	-0.211182	0.01769	0.28	-0.63	0.21	0.3833	0.1172	-0.3206	
-0.986736	-0.206058	0.017324	0.14	-0.49	0.14	0.3806	0.1064	-0.3256	
-0.986248	-0.212524	0.022204	-0.21	-0.28	0	0.3763	0.09999999	-0.3336	
-0.986492	-0.212036	0.021228	0.21	-0.14	-0.07	0.3747	0.1109	-0.3301	
-0.987712	-0.213866	0.021838	0.14	-0.14	0.07	0.3819	0.1125	-0.3254	
-0.987956	-0.212402	0.02013	0.35	-0.07	0	0.379	0.1125	-0.3254	
-0.991982	-0.210816	0.017202	0.63	-0.14	-0.21	0.3762	0.1094	-0.3286	
-0.98881	-0.209718	0.016226	0.35	-0.35	-0.21	0.3791	0.1045	-0.3349	
-0.988078	-0.208498	0.013542	-0.07	-0.7	-0.35	0.3833	0.1188	-0.3205	
-0.983686	-0.21167	0.012688	-0.42	0.21	-0.84	0.3718	0.1126	-0.327	
-0.988688	-0.2135	0.015616	-0.14	0.35	0.07	0.382	0.1111	-0.3208	
-0.9943	-0.212036	0.012322	0	0.28	0	0.3732	0.1141	-0.3254	
-0.996252	-0.209474	0.018178	-0.28	-0.07	-0.28	0.3775	0.1199	-0.3328	
-0.991982	-0.210572	0.02013	-0.56	-0.7	-0.56	0.3762	0.1098	-0.3179	
-0.989664	-0.212158	0.019398	-0.28	-0.49	-0.56	0.3762	0.1113	-0.3193	
-0.99003	-0.21533	0.022204	-0.35	-0.07	-0.63	0.3762	0.1083	-0.3179	
-0.986248	-0.220698	0.028304	-0.77	0.14	-0.42	0.3733	0.113	-0.3162	
-0.98149	-0.21777	0.03782	-1.19	0.91	-0.35	0.3805	0.116	-0.3145	
-0.978684	-0.2135	0.047214	-2.1	2.52	-0.28	0.3675	0.1114	-0.3209	
-0.978562	-0.20374	0.037332	-3.15	3.85	-1.4	0.379	0.1157	-0.3222	
-0.985882	-0.204106	0.026108	-5.53	3.92	-1.33	0.3792	0.1034	-0.3258	
-0.992836	-0.221918	0.025132	-5.11	5.11	-1.19	0.3747	0.1109	-0.3286	
-1.012234	-0.216062	0.005124	-5.32	3.85	-3.01	0.3703	0.1189	-0.3221	
-1.01321	-0.216794	-0.009393999	-5.53	1.68	-2.94	0.3803	0.1266	-0.3172	
-1.013698	-0.224114	-0.007564	-4.62	3.29	-3.85	0.3819	0.1174	-0.3175	
-1.015162	-0.218502	-0.01952	-4.83	1.26	-5.25	0.3748	0.1116	-0.3117	
-1.00833	-0.219112	-0.032696	-5.04	2.1	-4.13	0.3818	0.1204	-0.3189	
-1.008086	-0.234606	-0.0427	-0.98	0.28	-3.99	0.3732	0.1176	-0.3145	
-1.017236	-0.231434	-0.057218	-0.91	-0.77	-2.31	0.3833	0.1204	-0.3174	
-1.00955	-0.241194	-0.037332	-1.47	-2.8	-3.08	0.3746	0.1238	-0.3127	
-1.023214	-0.246806	-0.030134	-1.89	-6.72	-2.03	0.3688	0.1237	-0.3158	
-0.788974	0.049166	-0.084302	41.37	-40.95	22.75	0.3805	0.1128	-0.3177	
-1.003206	-0.259738	0.008662	-0.77	-1.47	-1.26	0.3778	0.1036	-0.3196	
-1.027484	-0.24278	0.01159	-1.33	-20.79	-3.15	0.3704	0.113	-0.3162	
-0.993202	-0.211792	-0.012688	3.36	-14.91	0.56	0.3689	0.1157	-0.3253	
-1.01992	-0.250588	0.015616	6.3	-17.71	-1.12	0.3804	0.12	-0.3282	
-1.006134	-0.236558	-0.0183	8.61	-20.16	0.84	0.3776	0.1139	-0.33	
-1.028338	-0.23607	0.037332	4.76	-22.82	2.1	0.3673	0.1214	-0.3374	
-1.00284	-0.229482	0.034892	2.17	-26.67	-0.63	0.3687	0.1214	-0.3374	
-1.00711	-0.22143	0.029158	3.15	-28.84	1.75	0.3544	0.1123	-0.3409	
-0.986004	-0.22692	0.024644	4.13	-30.52	0.98	0.3528	0.1196	-0.3498	
-0.996008	-0.227774	0.04514	5.53	-32.48	0.21	0.3543	0.1117	-0.3547	
-0.993568	-0.230336	0.077958	6.02	-33.6	0.7	0.3527	0.119	-0.3651	
-0.982222	-0.226188	0.08479	6.44	-35.49	-0.14	0.3455	0.1209	-0.3574	
-0.984296	-0.217404	0.104066	6.51	-34.44	-0.56	0.3384	0.1083	-0.3702	
-0.97966	-0.217892	0.108336	6.16	-35.21	0.28	0.3413	0.1129	-0.3685	
-0.987712	-0.205692	0.129442	4.2	-34.72	-0.7	0.3326	0.1082	-0.3749	
-0.98515	-0.212158	0.144936	3.15	-36.33	0.07	0.3339	0.1168	-0.3883	
-0.989176	-0.215452	0.17507	3.57	-38.99	1.4	0.3283	0.1063	-0.3857	
-0.982954	-0.210206	0.185562	3.29	-40.6	1.75	0.3238	0.1152	-0.393	
-0.9699	-0.199226	0.20252	1.82	-40.74	1.05	0.3226	0.0984	-0.3953	
-0.951722	-0.205082	0.218258	2.31	-40.25	1.82	0.3137	0.1086	-0.4102	
-0.93574	-0.211548	0.218502	3.64	-42	2.8	0.3107	0.1165	-0.4053	
-0.932202	-0.220332	0.249612	3.36	-45.5	2.8	0.3051	0.0979	-0.4153	
-0.926346	-0.20801	0.264374	2.94	-43.75	0.49	0.2992	0.1071	-0.4165	
-0.926834	-0.19398	0.277916	3.36	-44.1	-0.07	0.2904	0.1114	-0.4256	
-0.922076	-0.193004	0.30439	1.89	-41.79	0.21	0.2846	0.1128	-0.4301	
-0.91134	-0.20801	0.32391	2.45	-41.02	0.63	0.2891	0.1005	-0.4321	
-0.908534	-0.200812	0.339038	3.36	-40.18	-0.35	0.2759	0.1094	-0.4426	
-0.900726	-0.199104	0.350384	3.71	-39.2	-0.77	0.2717	0.1049	-0.4428	
-0.882548	-0.19764	0.347212	2.31	-38.92	-0.63	0.2746	0.0985	-0.4492	
-0.885232	-0.198128	0.382592	0.14	-40.46	0.42	0.2631	0.1023	-0.4353	
-0.873764	-0.22753	0.41236	-2.17	-35.28	-1.47	0.2674	0.1001	-0.4491	
-0.862296	-0.199958	0.413702	-2.66	-34.72	-2.87	0.2615	0.103	-0.4552	
-0.856074	-0.195932	0.425658	-1.4	-31.85	-2.73	0.2485	0.1045	-0.4613	
-0.844728	-0.213988	0.429928	0	-30.1	-2.17	0.2471	0.1019	-0.4522	
-0.843508	-0.216428	0.446154	0.49	-28.77	-1.61	0.2396	0.1133	-0.4748	
-0.842166	-0.21655	0.465796	0.21	-26.11	-1.68	0.2252	0.1173	-0.4563	
-0.840702	-0.205326	0.469456	-0.98	-23.87	-2.52	0.234	0.1011	-0.4769	
-0.83875	-0.207888	0.470676	-0.98	-22.05	-2.31	0.2326	0.09959999	-0.4754	
-0.830088	-0.204228	0.481412	-1.12	-19.53	-2.31	0.2267	0.104	-0.4829	
-0.818986	-0.213012	0.490074	-1.33	-17.22	-2.73	0.2181	0.1028	-0.4769	
-0.81923	-0.217282	0.496784	-1.89	-15.33	-3.64	0.218	0.1041	-0.4845	
-0.833504	-0.21716	0.500566	-2.17	-13.23	-2.8	0.2165	0.1104	-0.4781	
-0.831552	-0.210084	0.508374	-2.59	-10.57	-2.03	0.218	0.1044	-0.4768	
-0.822036	-0.213012	0.505934	-2.59	-7.98	-1.82	0.2181	0.1011	-0.4815	
-0.819596	-0.211548	0.499834	-2.52	-6.51	-1.33	0.2239	0.0982	-0.4755	
-0.821426	-0.205692	0.498248	-3.29	-5.11	-1.12	0.2108	0.1044	-0.4799	
-0.817888	-0.220698	0.49959	-3.85	-3.57	-0.91	0.2208	0.1118	-0.4811	
-0.823988	-0.22753	0.494588	-3.43	-2.94	-1.68	0.2108	0.1059	-0.4798	
-0.84058	-0.229238	0.49227	-3.29	-2.1	-2.17	0.202	0.1105	-0.4828	
-0.84973	-0.224968	0.485926	-4.06	-1.26	-2.94	0.2108	0.1042	-0.483	
-0.847168	-0.227164	0.473604	-4.27	-0.56	-3.36	0.2049	0.1104	-0.4828	
-0.831796	-0.24156	0.471286	-4.62	0.07	-1.96	0.2107	0.1103	-0.4843	
-0.848998	-0.228506	0.470066	-4.41	0.63	-2.38	0.2094	0.0997	-0.4816	
-0.859612	-0.218502	0.466894	-3.43	1.05	-2.31	0.2149	0.1195	-0.4808	
-0.86376	-0.219356	0.46848	-2.66	1.61	-1.05	0.2122	0.1091	-0.4751	
-0.859856	-0.221674	0.463478	-1.96	2.17	-0.56	0.2049	0.1085	-0.492	
-0.861076	-0.219844	0.45933	-1.61	2.66	0	0.2063	0.115	-0.4826	
-0.858148	-0.228872	0.458232	-0.77	2.94	0.77	0.2136	0.1119	-0.4811	
-0.86315	-0.215452	0.448594	-0.7	3.01	0.77	0.2092	0.1132	-0.4872	
-0.860954	-0.224358	0.45567	-1.54	2.38	0.14	0.215	0.1149	-0.481	
-0.859612	-0.226676	0.453108	-3.22	1.47	-1.26	0.2092	0.115	-0.481	
-0.858636	-0.227652	0.4453	-5.39	0	-2.31	0.2063	0.1135	-0.4826	
-0.86498	-0.239608	0.459086	-5.18	-0.21	-2.52	0.2049	0.1167	-0.4794	
-0.866566	-0.240218	0.459818	-4.2	0.07	-2.1	0.2035	0.1089	-0.4844	
-0.86254	-0.237412	0.45506	-3.01	0.42	-0.77	0.2106	0.1164	-0.484	
-0.858026	-0.233996	0.45567	-1.4	0.7	0.63	0.202	0.1134	-0.4857	
-0.860344	-0.235582	0.460794	0	0.7	1.47	0.2164	0.1163	-0.484	
-0.856928	-0.233142	0.464088	0.14	0.77	1.61	0.2106	0.1212	-0.4792	
-0.851926	-0.234484	0.46299	0.35	1.12	1.47	0.2121	0.115	-0.4795	
-0.845216	-0.235216	0.464088	0.21	1.26	1.54	0.2121	0.1131	-0.4888	
-0.847168	-0.236924	0.46421	0.63	1.4	1.82	0.2078	0.1133	-0.4857	
-0.850218	-0.229848	0.4636	0.07	1.54	1.4	0.2077	0.1196	-0.4808	
-0.853878	-0.232654	0.464088	-1.96	1.4	0.56	0.2107	0.1104	-0.4812	
-0.85217	-0.23668	0.4575	-3.01	1.68	-0.14	0.2107	0.1086	-0.4874	
-0.853878	-0.23729	0.459696	-5.04	1.82	-0.21	0.2106	0.115	-0.481	
-0.855952	-0.238632	0.454816	-6.02	2.31	0.35	0.2222	0.1131	-0.4856	
-0.857416	-0.239974	0.463356	-4.55	3.99	1.26	0.2193	0.1116	-0.4857	
-0.856806	-0.234606	0.463112	-2.73	5.6	2.87	0.2135	0.1145	-0.4918	
-0.828868	-0.244732	0.472018	-1.68	7.21	4.13	0.2177	0.1239	-0.4852	
-0.837286	-0.228628	0.467138	-0.21	8.89	5.46	0.2222	0.1179	-0.4793	
-0.833504	-0.227164	0.466162	-0.28	11.06	5.46	0.2252	0.1135	-0.4733	
-0.831552	-0.221674	0.47153	-0.56	13.3	6.09	0.2151	0.1122	-0.4734	
-0.830332	-0.224114	0.473238	-0.14	16.1	6.37	0.2193	0.12	-0.467	
-0.831918	-0.219356	0.466406	-1.68	18.48	6.23	0.228	0.1151	-0.4717	
-0.840214	-0.208864	0.462502	-2.03	22.54	6.51	0.2382	0.1104	-0.4703	
-0.839238	-0.20313	0.460428	-1.75	24.08	7.14	0.2382	0.1104	-0.4703	
-0.8357	-0.202276	0.45079	-0.98	26.88	8.33	0.2384	0.1031	-0.463	
-0.83997	-0.201666	0.41724	-2.73	30.38	8.12	0.2527	0.1122	-0.4579	
-0.854244	-0.201788	0.408822	-3.43	32.9	9.03	0.2455	0.111	-0.4519	
-0.866078	-0.199592	0.39955	-3.64	35	8.54	0.263	0.0999	-0.4568	
-0.883768	-0.19398	0.386618	-5.04	36.96	8.47	0.2671	0.1185	-0.4469	
-0.90524	-0.203496	0.37271	-2.38	40.32	2.94	0.2702	0.1063	-0.4458	
-0.904386	-0.198982	0.361608	-1.26	41.86	1.33	0.2658	0.1128	-0.4379	
-0.90036	-0.198616	0.332206	0.91	43.96	1.47	0.2745	0.1127	-0.4379	
-0.895358	-0.203618	0.316712	0.84	43.19	0.07	0.2876	0.1067	-0.4288	
-0.88877	-0.197396	0.305854	0.35	45.57	-0.84	0.2847	0.1132	-0.4209	
-0.8906	-0.2074	0.289994	0.21	42.84	-1.75	0.2919	0.1099	-0.4256	
-0.934764	-0.196786	0.287554	-1.33	43.26	-3.08	0.3064	0.1131	-0.4147	
-0.95465	-0.194712	0.271938	0.63	41.58	-3.71	0.302	0.1178	-0.4145	
-0.960506	-0.201178	0.234728	1.75	37.24	-2.38	0.3064	0.1133	-0.4101	
-0.946354	-0.20313	0.230214	2.38	36.47	-1.05	0.308	0.1076	-0.3996	
-0.938668	-0.197152	0.205326	1.47	27.72	0.42	0.3196	0.1078	-0.3903	
-0.954406	-0.202398	0.192638	-0.07	29.33	0.91	0.3136	0.115	-0.4038	
-0.969534	-0.201666	0.181292	-2.8	24.92	2.31	0.3151	0.1105	-0.4009	
-0.977586	-0.20923	0.171776	-4.62	30.59	0.42	0.3295	0.1181	-0.396	
-0.976732	-0.21594	0.153598	-5.11	34.37	0.84	0.3282	0.114	-0.3854	
-0.977952	-0.218624	0.144814	-4.62	37.52	1.33	0.334	0.1126	-0.3793	
-0.976366	-0.234728	0.130662	-2.66	40.88	1.75	0.3341	0.1052	-0.3735	
-0.976122	-0.223748	0.103334	-2.03	42.07	2.03	0.347	0.1142	-0.3715	
-0.996374	-0.234118	0.09942999	-0.63	43.82	1.82	0.3426	0.1207	-0.3651	
-1.0004	-0.222894	0.061976	0	43.82	0.84	0.3529	0.1084	-0.3625	
-0.990396	-0.220088	0.061366	0.7	42.28	-0.49	0.3442	0.1183	-0.3468	
-1.018456	-0.232532	0.07747	1.61	30.38	-0.28	0.3644	0.1166	-0.3437	
-1.010282	-0.249734	0.04819	5.11	29.75	1.89	0.3543	0.1151	-0.3469	
-1.014918	-0.227896	0.02501	4.2	28.98	2.17	0.3587	0.1167	-0.3422	
-0.996984	-0.21899	0.010736	2.24	28.77	1.47	0.3688	0.1119	-0.3454	
-1.01138	-0.220942	0.005612	3.29	28.56	2.59	0.363	0.1185	-0.3344	
-0.983442	-0.21655	-0.010492	2.66	28.14	3.01	0.3774	0.1231	-0.3281	
-0.971852	-0.215818	-0.04514	6.16	26.6	5.46	0.3864	0.102	-0.3197	
-1.023946	-0.229238	-0.035258	5.39	27.02	3.43	0.3762	0.1115	-0.3147	
-1.047736	-0.232288	-0.05917	9.17	22.96	5.11	0.3718	0.1129	-0.3178	
-1.021506	-0.217526	-0.041114	10.99	17.78	6.93	0.3849	0.11	-0.3101	
-1.020774	-0.204594	-0.031842	12.11	15.89	7.21	0.3893	0.1068	-0.3133	
-1.025166	-0.196298	-0.05856	14.28	12.04	9.17	0.3835	0.1053	-0.3134	
-1.009062	-0.197762	-0.055022	11.76	8.89	7.63	0.3806	0.1052	-0.318	
-1.007842	-0.200446	-0.017446	13.02	12.67	8.26	0.3879	0.107	-0.3072	
-1.000766	-0.165188	-0.004148	11.34	9.03	11.83	0.3837	0.0949	-0.3077	
-0.978684	-0.156526	0.001708	9.66	10.99	11.83	0.3923	0.1041	-0.3027	
-0.945988	-0.167384	-0.017324	8.12	13.37	8.54	0.3822	0.098	-0.306	
-0.966484	-0.175436	-0.022082	5.88	15.26	3.64	0.3895	0.0969	-0.2922	
-1.026264	-0.164578	-0.025986	5.88	10.36	2.38	0.3995	0.1043	-0.2934	
-1.017602	-0.178974	-0.028548	8.33	9.94	1.54	0.3984	0.0863	-0.288	
-0.999668	-0.177388	0.006588	4.48	12.46	3.29	0.3954	0.0891	-0.2941	
-0.978196	-0.177144	-0.006954	1.82	14.35	3.29	0.3969	0.0873	-0.3003	
-0.954406	-0.181414	-0.022814	-4.41	16.38	0.14	0.3969	0.0859	-0.2988	
-0.984906	-0.188368	-0.079178	4.55	17.08	1.47	0.3925	0.0909	-0.2879	
-1.01504	-0.16409	-0.06344	4.97	16.31	-1.75	0.3969	0.0892	-0.2925	
-1.029192	-0.179828	-0.069906	7.7	15.12	-2.24	0.4027	0.0861	-0.2895	
-1.017968	-0.181902	-0.061	10.22	15.19	-0.21	0.4039	0.1013	-0.292	
-0.99003	-0.167628	-0.096624	13.44	12.39	0.07	0.4055	0.094	-0.2831	
-1.023458	-0.169336	-0.132614	16.59	10.85	1.26	0.4057	0.085	-0.2788	
-1.033462	-0.16653	-0.118218	9.17	11.69	-0.28	0.4115	0.0835	-0.2758	
-1.037976	-0.16287	-0.115534	7	10.43	0.49	0.3998	0.0926	-0.2816	
-1.037	-0.152012	-0.15128	2.52	7.7	0.35	0.4085	0.08639999	-0.2803	
-1.00955	-0.167384	-0.119926	8.33	1.33	3.5	0.4144	0.0788	-0.2791	
-1.009672	-0.184464	-0.13847	0.56	0.56	-2.87	0.4113	0.0971	-0.2783	
-1.016138	-0.173118	-0.129808	-1.47	0.49	2.1	0.397	0.0916	-0.2694	
-1.005768	-0.173972	-0.11468	-3.01	4.48	4.55	0.4027	0.0915	-0.2709	
-0.967582	-0.177632	-0.083692	-3.01	3.92	7.07	0.4101	0.0819	-0.2774	
-0.972706	-0.180804	-0.08906	-1.89	6.65	5.6	0.4057	0.0805	-0.276	
-0.979172	-0.188612	-0.082838	0.42	5.18	6.3	0.4029	0.0808	-0.2714	
-1.009794	-0.165188	-0.06734399	-1.19	5.6	1.26	0.4174	0.0743	-0.2746	
-1.001254	-0.148718	-0.07686	-1.89	3.22	-0.35	0.4158	0.0834	-0.2758	
-1.001254	-0.130174	-0.061366	-1.47	5.88	-2.1	0.4201	0.08639999	-0.2756	
-0.992226	-0.123464	-0.071004	1.61	7.84	-0.98	0.4085	0.0863	-0.2834	
-0.994666	-0.11346	-0.071492	2.03	5.04	-1.33	0.4128	0.0913	-0.2724	
-0.97966	-0.140422	-0.074786	0.84	5.04	-1.54	0.4042	0.0865	-0.2803	
-0.988444	-0.160674	-0.095648	4.13	7.42	-0.63	0.4158	0.0867	-0.2695	
-1.008208	-0.15982	-0.106018	5.81	8.12	-1.26	0.4073	0.0764	-0.2654	
-1.012966	-0.166286	-0.127856	5.18	3.64	-0.63	0.4158	0.0869	-0.2665	
-1.004914	-0.175436	-0.12078	2.03	2.59	-0.42	0.4116	0.079	-0.2745	
-0.994788	-0.18727	-0.14579	3.22	2.45	-0.63	0.4174	0.0777	-0.2668	
-1.012356	-0.174216	-0.146278	2.87	1.89	-1.4	0.4072	0.0791	-0.2745	
-1.002962	-0.173972	-0.150548	1.89	0.49	-0.21	0.4057	0.0885	-0.268	
-1.005524	-0.177022	-0.135908	2.66	0.07	-0.63	0.4044	0.0777	-0.2715	
-1.000522	-0.161284	-0.118096	2.03	-2.94	-0.28	0.4071	0.0902	-0.2633	
-0.993812	-0.160064	-0.112728	2.03	-3.78	-0.35	0.4117	0.0765	-0.2592	
-0.995032	-0.161772	-0.127124	1.89	-4.55	-0.07	0.4187	0.0885	-0.2633	
-1.002474	-0.166652	-0.100406	0.28	-3.78	0.49	0.41	0.0883	-0.271	
-0.999424	-0.169092	-0.11773	-0.42	-4.34	0.14	0.4071	0.0902	-0.2618	
-1.00955	-0.172752	-0.13725	3.64	-6.65	0.14	0.4143	0.0882	-0.271	
-1.013332	-0.172752	-0.152378	4.83	-8.75	-0.21	0.4071	0.08679999	-0.2726	
-1.006866	-0.182634	-0.129808	3.92	-7.98	0.28	0.4101	0.0854	-0.2681	
-0.997716	-0.16836	-0.11041	-1.4	-8.96	0.14	0.3941	0.087	-0.2727	
-0.97417	-0.155306	-0.057828	-1.82	-3.71	-0.84	0.4113	0.0924	-0.2831	
-0.97722	-0.160064	-0.058804	-2.38	-4.34	0.14	0.4086	0.0867	-0.2742	
-0.97905	-0.157746	-0.051118	-2.45	-2.87	-0.42	0.4101	0.079	-0.2745	
-0.97844	-0.149816	-0.03843	-4.27	-3.15	-0.84	0.4144	0.0806	-0.2713	
-0.979172	-0.156892	-0.050752	-3.29	0.56	-0.28	0.4131	0.0699	-0.2733	
-0.99064	-0.170068	-0.066856	-2.59	1.75	0.63	0.3984	0.09	-0.271	
-1.00101	-0.17019	-0.07747	-0.49	1.68	-0.49	0.41	0.0851	-0.2742	
-1.001132	-0.163358	-0.081008	-0.84	0.35	-0.98	0.4144	0.0832	-0.2819	
-0.99308	-0.166774	-0.09577	-0.07	-0.84	-1.54	0.4158	0.0867	-0.2711	
-0.994544	-0.162748	-0.088816	0.35	0.42	-1.61	0.41	0.0866	-0.2757	
-0.997716	-0.163236	-0.094062	0.91	-0.42	-0.63	0.4144	0.0885	-0.2649	
-0.992836	-0.165798	-0.094916	1.05	-1.26	-0.42	0.3939	0.094	-0.2862	
-0.995032	-0.174948	-0.098698	0.98	-1.19	-0.14	0.4029	0.0793	-0.2699	
-0.999302	-0.174338	-0.07686	0.42	0.28	0.21	0.4045	0.0699	-0.2764	
-0.993812	-0.174826	-0.10553	1.54	-0.98	-0.21	0.4072	0.07889999	-0.2775	
-0.997594	-0.170556	-0.103456	1.33	0.56	0.07	0.4129	0.085	-0.2773	
-1.005646	-0.166652	-0.094916	1.96	0.07	-0.28	0.4013	0.0879	-0.2833	
-1.007598	-0.161894	-0.102114	2.45	-0.77	-0.98	0.3986	0.0761	-0.2762	
-1.00162	-0.160796	-0.075518	1.47	-0.98	-0.63	0.413	0.0803	-0.2805	
-0.992226	-0.16836	-0.09028	3.22	-3.36	-1.05	0.4071	0.0866	-0.2772	
-1.00101	-0.16104	-0.08601	2.94	-3.08	-1.47	0.4072	0.0807	-0.2713	
-0.993202	-0.169214	-0.081008	-0.21	-3.43	-0.56	0.4028	0.0819	-0.2821	
-0.995642	-0.171898	-0.080642	-0.21	-1.47	-0.35	0.4028	0.0867	-0.2757	
-0.993446	-0.181536	-0.10004	0.49	-1.12	-0.21	0.4071	0.085	-0.2773	
-0.999058	-0.169092	-0.08686399	0.42	-0.42	-0.49	0.4099	0.091	-0.2801	
-0.995764	-0.170678	-0.080276	0.21	-0.98	-0.7	0.4043	0.0771	-0.2853	
-1.000644	-0.167384	-0.08784	1.47	-1.19	-0.42	0.4086	0.0836	-0.2743	
-0.99674	-0.164334	-0.089914	2.1	-2.24	-0.35	0.4013	0.0896	-0.2802	
-1.002596	-0.166408	-0.076006	2.24	-2.03	-0.21	0.407	0.08769999	-0.2864	
-0.996374	-0.171776	-0.070394	1.4	-2.45	0	0.3969	0.0911	-0.2832	
-0.991494	-0.176656	-0.077104	1.26	-2.17	-0.07	0.3998	0.0925	-0.2847	
-0.99308	-0.169702	-0.084058	1.47	-2.52	-0.7	0.3984	0.0882	-0.2772	
-0.995642	-0.168482	-0.081008	1.68	-2.73	-0.7	0.4056	0.0911	-0.2786	
-0.994666	-0.171532	-0.078812	1.96	-1.75	-0.35	0.3998	0.0911	-0.2802	
-0.993812	-0.169214	-0.075884	2.31	-1.89	-0.56	0.4013	0.08	-0.2913	
-1.004792	-0.167506	-0.068198	1.68	-1.68	-0.14	0.4043	0.0784	-0.2914	
-0.998082	-0.167384	-0.076982	1.26	-2.73	-0.63	0.4086	0.0801	-0.2852	
-1.002474	-0.169336	-0.074176	1.54	-3.64	-0.35	0.4028	0.077	-0.2899	
-0.999424	-0.172996	-0.08295999	2.31	-4.41	-0.49	0.4028	0.0816	-0.2882	
-1.001498	-0.173118	-0.07625	2.38	-4.2	-0.49	0.4028	0.0787	-0.2852	
-0.99857	-0.169458	-0.078202	1.61	-5.46	-1.19	0.3939	0.0954	-0.2892	
-0.992714	-0.174948	-0.072224	1.19	-4.13	-0.14	0.4055	0.0907	-0.2893	
-0.991738	-0.17019	-0.066978	1.68	-4.2	-0.77	0.3985	0.0773	-0.2838	
-0.997228	-0.173362	-0.070394	1.4	-3.78	-0.56	0.3956	0.0802	-0.2883	
-0.99735	-0.170434	-0.061244	1.26	-3.57	-0.21	0.4071	0.0828	-0.2943	
-0.998082	-0.167872	-0.059048	1.26	-3.5	-0.35	0.3999	0.08329999	-0.2866	
-1.00223	-0.173362	-0.06039	1.4	-4.06	0.14	0.4042	0.0846	-0.2896	
-1.001864	-0.177754	-0.04209	1.26	-5.39	-0.42	0.3955	0.0816	-0.2913	
-0.996618	-0.185074	-0.06649	2.73	-5.95	-0.84	0.397	0.0752	-0.2992	
-1.004792	-0.181658	-0.044164	3.71	-5.39	-0.77	0.4013	0.0843	-0.2988	
-0.986248	-0.159088	-0.0305	3.99	-4.69	-1.33	0.3984	0.0799	-0.2944	
-0.983808	-0.168604	-0.052826	2.94	-5.81	-1.33	0.3969	0.0872	-0.3033	
-0.988688	-0.160918	-0.038552	2.31	-4.76	-0.98	0.3955	0.0781	-0.3037	
-0.988688	-0.171288	-0.032818	1.33	-4.41	-0.35	0.3985	0.0766	-0.3007	
-0.98942	-0.178364	-0.040748	1.26	-3.43	0.14	0.3969	0.0828	-0.3004	
-0.995764	-0.17934	-0.024766	1.26	-2.31	0.56	0.4028	0.0797	-0.299	
-0.990884	-0.16287	-0.014152	-0.14	-2.31	-0.42	0.4041	0.0906	-0.2909	
-0.979294	-0.16653	-0.012688	-0.98	-1.68	0.07	0.3883	0.0785	-0.2961	
-0.975268	-0.159454	-0.00488	-1.82	0.56	-0.28	0.3969	0.08109999	-0.3036	
-0.965386	-0.16287	0.001586	-1.96	1.47	-0.49	0.397	0.0813	-0.299	
-0.970876	-0.162504	0.026596	-2.66	3.71	0.49	0.3869	0.07979999	-0.3021	
-0.974902	-0.162504	-0.007076	-3.08	4.48	0.77	0.3926	0.07979999	-0.2991	
-0.996984	-0.142618	0.01952	-4.9	5.74	-0.63	0.3896	0.0857	-0.305	
-0.970632	-0.167262	-0.054046	-4.41	4.69	0.35	0.3954	0.0874	-0.2987	
-0.99552	-0.165554	-0.033184	-6.65	8.19	-4.27	0.3954	0.0874	-0.2987	
-0.987102	-0.156648	-0.059658	-6.3	11.2	-3.29	0.3996	0.0949	-0.3015	
-1.003084	-0.16836	-0.040748	-5.81	15.33	-1.61	0.3982	0.0936	-0.2954	
-0.98576	-0.18117	-0.036722	-9.03	17.15	-2.73	0.3955	0.0878	-0.2895	
-0.977098	-0.18788	-0.080398	-9.52	20.79	-3.92	0.3956	0.0805	-0.2806	
-0.99491	-0.183488	-0.119804	-4.41	18.41	-5.95	0.41	0.0863	-0.2834	
-1.036634	-0.194346	-0.105042	-12.18	14.56	-14.7	0.4054	0.1065	-0.2764	
-1.018578	-0.202032	-0.103334	-11.55	10.71	-12.18	0.4041	0.091	-0.2817	
-1.019188	-0.188124	-0.07515199	-16.66	15.47	-17.08	0.3938	0.1069	-0.2688	
-0.977708	-0.21716	-0.125782	-11.9	15.05	-9.24	0.4097	0.108	-0.2733	
-0.98942	-0.234118	-0.1769	-10.85	16.24	-13.44	0.3983	0.0961	-0.2708	
-1.001254	-0.224846	-0.178974	-9.03	10.78	-12.67	0.3982	0.1086	-0.2641	
-1.02785	-0.22387	-0.12627	-8.33	8.61	-10.36	0.4068	0.1101	-0.261	
-1.009428	-0.197884	-0.143228	-9.1	5.53	-7	0.4026	0.1058	-0.255	
-0.997594	-0.195932	-0.119926	-16.52	10.99	-10.99	0.4068	0.1118	-0.2563	
-0.967582	-0.210572	-0.176412	-14.35	10.57	-12.53	0.4024	0.1161	-0.2653	
-0.981978	-0.209108	-0.18361	-14.84	8.4	-12.67	0.4082	0.1176	-0.2637	
-1.021262	-0.255224	-0.175436	-17.36	4.2	-11.2	0.4125	0.1193	-0.2575	
-1.01992	-0.277794	-0.189588	-10.01	0.63	-7.21	0.4023	0.1207	-0.2636	
-1.008086	-0.255834	-0.168726	-7.98	0.63	-8.19	0.4081	0.1288	-0.251	
-0.989908	-0.234118	-0.184342	-5.6	-1.47	-5.81	0.4095	0.1318	-0.2509	
-1.214388	-0.414556	-0.10248	0.98	-3.57	-0.21	0.4052	0.1272	-0.2526	
-0.828014	-0.170556	-0.208254	8.47	-24.15	13.16	0.411	0.124	-0.2542	
-0.96441	-0.24583	-0.159454	-7.56	-5.67	2.17	0.4082	0.1212	-0.2498	
-1.021872	-0.245342	-0.153476	-1.4	-6.37	1.4	0.4037	0.1274	-0.2496	
-0.988566	-0.196054	-0.24217	8.47	-17.71	-1.89	0.4066	0.1286	-0.2572	
-1.02785	-0.212524	-0.158722	-0.77	-12.04	-2.17	0.4038	0.1191	-0.2652	
-1.038098	-0.215452	-0.160552	-2.24	-24.01	-10.36	0.4067	0.1207	-0.2636	
-1.009428	-0.24034	-0.14701	-0.28	-14.63	-4.55	0.4094	0.1264	-0.271	
-0.994544	-0.242048	-0.174094	0.56	-22.05	-2.17	0.4095	0.1269	-0.2587	
-0.995642	-0.248148	-0.148718	1.68	-24.43	1.54	0.3993	0.1312	-0.2709	
-1.02053	-0.242658	-0.122732	0.63	-25.9	2.45	0.4065	0.1279	-0.274	
-1.0065	-0.241926	-0.132736	0.56	-29.05	2.03	0.3949	0.1292	-0.2833	
-0.986492	-0.23485	-0.108702	-2.03	-29.19	1.89	0.3948	0.1303	-0.2955	
-0.99735	-0.238998	-0.092964	-3.71	-29.96	2.87	0.4022	0.1196	-0.2913	
-0.994422	-0.244122	-0.068076	-5.32	-34.44	1.75	0.3804	0.1243	-0.2973	
-0.984296	-0.241682	-0.065148	-3.08	-37.24	0.14	0.3861	0.1364	-0.2968	
-0.983808	-0.255468	-0.065636	5.11	-37.24	3.08	0.3906	0.1224	-0.3019	
-1.000888	-0.2379	-0.050874	5.39	-41.44	2.31	0.389	0.1316	-0.3031	
-0.995032	-0.251564	-0.03538	4.9	-39.69	3.43	0.3788	0.1278	-0.3248	
-0.975146	-0.259616	-0.046604	6.58	-42.56	4.48	0.3774	0.1277	-0.3279	
-0.988688	-0.256566	0.002562	5.25	-42.21	4.2	0.3761	0.1187	-0.3236	
-0.992958	-0.230946	0.016836	5.46	-44.1	5.39	0.3745	0.1214	-0.3343	
-0.987346	-0.216428	0.034892	5.74	-42.98	6.23	0.3645	0.117	-0.3345	
-0.977708	-0.210328	0.054168	5.18	-43.96	7.21	0.3585	0.1243	-0.345	
-0.974658	-0.213744	0.0793	6.23	-45.08	6.37	0.3472	0.109	-0.3502	
-0.968436	-0.206668	0.097112	7	-45.29	5.32	0.3644	0.1113	-0.3623	
-0.96807	-0.205936	0.116632	6.79	-45.08	6.79	0.3529	0.1132	-0.3562	
-0.976	-0.208498	0.133224	6.93	-43.96	7.28	0.3442	0.105	-0.3749	
-0.967704	-0.211182	0.16287	6.51	-43.4	7.07	0.3454	0.1218	-0.3743	
-0.963068	-0.183122	0.185318	5.32	-44.31	6.23	0.334	0.1111	-0.3778	
-0.951478	-0.181658	0.204594	2.87	-45.08	5.6	0.3297	0.1061	-0.3903	
-0.939278	-0.164822	0.21777	3.01	-43.26	6.16	0.3268	0.103	-0.392	
-0.932812	-0.169702	0.244976	3.57	-40.74	6.93	0.3253	0.1043	-0.3996	
-0.915	-0.18727	0.25437	5.11	-38.85	7.7	0.3139	0.1001	-0.3937	
-0.90829	-0.18727	0.262788	5.67	-36.61	7.21	0.3166	0.1042	-0.4058	
-0.906826	-0.163846	0.291458	4.97	-35.21	6.51	0.308	0.09779999	-0.4153	
-0.91012	-0.14152	0.30927	2.59	-34.23	6.23	0.3124	0.0949	-0.4092	
-0.913658	-0.149328	0.335866	0.98	-33.04	5.04	0.2922	0.0871	-0.4235	
-0.899994	-0.169092	0.339526	0.21	-32.2	3.22	0.2892	0.0929	-0.4309	
-0.890478	-0.169946	0.357948	-0.42	-30.73	1.54	0.2891	0.1055	-0.4212	
-0.892796	-0.172996	0.378444	-1.12	-27.65	0	0.2865	0.0836	-0.4359	
-0.881694	-0.168238	0.374906	-0.49	-24.85	-0.28	0.2965	0.0896	-0.4341	
-0.87718	-0.166042	0.37881	-0.49	-21	-0.42	0.2778	0.0835	-0.4405	
-0.876814	-0.165066	0.38735	-0.91	-16.17	-1.05	0.285	0.0883	-0.4342	
-0.87596	-0.161162	0.390644	-0.91	-14.28	-0.56	0.2791	0.08769999	-0.4511	
-0.876326	-0.166896	0.392108	0.42	-12.32	-0.21	0.2806	0.0895	-0.4434	
-0.883646	-0.167506	0.396622	0.49	-9.87	-0.21	0.2777	0.0894	-0.4464	
-0.894992	-0.165432	0.394182	-0.84	-8.4	-0.07	0.2718	0.099	-0.4384	
-0.895602	-0.169458	0.388936	-1.61	-6.93	0.28	0.2705	0.0867	-0.4405	
-0.895114	-0.173362	0.373808	-2.17	-5.67	-0.91	0.2703	0.094	-0.4494	
-0.901458	-0.176046	0.368074	-1.68	-4.27	-1.54	0.2747	0.0909	-0.4495	
-0.91195	-0.181292	0.36295	-0.21	-3.15	-1.26	0.2618	0.0866	-0.4466	
-0.919392	-0.177388	0.361974	-0.56	-2.59	-1.54	0.2674	0.0938	-0.4555	
-0.925126	-0.180194	0.35685	-1.05	-2.17	-1.68	0.2705	0.0881	-0.4435	
-0.92415	-0.180682	0.350628	-1.89	-2.03	-2.17	0.2588	0.0975	-0.4431	
-0.927444	-0.182878	0.3477	-2.1	-2.03	-2.66	0.2602	0.0971	-0.4524	
-0.929274	-0.185074	0.342698	-2.38	-2.03	-3.22	0.2718	0.091	-0.4479	
-0.92964	-0.185684	0.338916	-2.24	-2.03	-3.15	0.2704	0.0914	-0.4387	
-0.927688	-0.193614	0.345504	-1.89	-2.59	-2.87	0.2789	0.1012	-0.4567	
-0.926346	-0.188612	0.347212	-1.96	-2.87	-2.94	0.2717	0.0985	-0.4492	
-0.927566	-0.190686	0.340746	-2.1	-3.57	-3.64	0.2673	0.1045	-0.4551	
-0.92903	-0.193248	0.352458	-2.1	-3.99	-3.22	0.266	0.09559999	-0.4478	
-0.928786	-0.191662	0.357094	-1.19	-3.85	-2.52	0.2543	0.1019	-0.4491	
-0.920368	-0.197152	0.355874	-0.07	-3.64	-1.96	0.253	0.09429999	-0.4479	
-0.912316	-0.191662	0.365512	-0.21	-3.08	-1.05	0.2616	0.097	-0.4539	
-0.909754	-0.20008	0.36539	0.28	-3.01	-0.77	0.2616	0.1002	-0.4492	
-0.912194	-0.20191	0.374296	0.21	-3.15	-0.7	0.256	0.0881	-0.4497	
-0.90829	-0.198982	0.37454	1.05	-2.94	0	0.2661	0.0893	-0.4526	
-0.90951	-0.186782	0.381372	1.4	-2.59	0.21	0.2572	0.1002	-0.4522	
-0.903776	-0.189832	0.38125	1.47	-2.31	0.21	0.2631	0.09429999	-0.4432	
-0.896578	-0.193614	0.376736	0.63	-1.96	-0.21	0.2673	0.103	-0.4551	
-0.899018	-0.18727	0.379908	-0.63	-1.82	-0.7	0.2674	0.0954	-0.4524	
-0.903044	-0.18422	0.381128	-0.98	-1.54	-0.98	0.2529	0.0971	-0.4555	
-0.904874	-0.195688	0.380152	-0.7	-1.12	-0.7	0.2531	0.0883	-0.4466	
-0.905972	-0.199836	0.377468	-0.84	-0.84	-0.7	0.2529	0.1017	-0.4537	
-0.909632	-0.196542	0.376126	-1.4	-0.56	-0.91	0.2688	0.0998	-0.4583	
-0.906704	-0.191052	0.374052	-1.96	-0.21	-1.19	0.2674	0.094	-0.4509	
-0.900604	-0.202154	0.376492	-1.82	0	-1.47	0.2617	0.0923	-0.4556	
-0.903044	-0.203252	0.375638	-2.31	0.21	-1.47	0.2429	0.0923	-0.4634	
-0.90707	-0.199104	0.374662	-2.1	0.42	-1.19	0.2615	0.1061	-0.4551	
-0.906948	-0.203252	0.37149	-1.26	0.56	-0.63	0.2514	0.0998	-0.4646	
-0.912194	-0.20313	0.376248	-0.91	0.49	0	0.2688	0.0984	-0.4538	
-0.911218	-0.19764	0.37759	-0.84	0.7	0.21	0.2602	0.0954	-0.457	
-0.906948	-0.203496	0.370514	-0.35	0.91	0.21	0.2526	0.1184	-0.4561	
-0.908168	-0.198494	0.372832	-0.28	0.98	0.63	0.2542	0.1061	-0.4582	
-0.907558	-0.197762	0.371124	-0.28	1.47	0.91	0.2559	0.0938	-0.4586	
-0.91134	-0.197152	0.375516	-0.35	1.82	0.91	0.2501	0.09739999	-0.4493	
-0.910364	-0.194224	0.371368	-0.7	1.82	0.49	0.2674	0.0983	-0.4569	
-0.905484	-0.195688	0.36966	-1.4	1.54	-0.07	0.2616	0.0967	-0.4616	
-0.90585	-0.196664	0.36905	-1.75	1.61	-0.35	0.2689	0.0939	-0.4524	
-0.908168	-0.200324	0.371002	-2.17	1.75	-0.77	0.2601	0.1003	-0.4492	
-0.912072	-0.191052	0.36295	-1.96	2.38	-0.84	0.2601	0.1018	-0.4476	
-0.909022	-0.201544	0.369904	-2.31	2.52	-0.56	0.2717	0.1031	-0.4505	
-0.912682	-0.197274	0.364048	-3.78	2.59	-0.49	0.2658	0.1044	-0.4582	
-0.912316	-0.199958	0.369172	-4.2	2.87	-0.28	0.2658	0.1046	-0.452	
-0.910608	-0.196054	0.367708	-4.06	3.71	-0.21	0.263	0.0986	-0.4523	
-0.903288	-0.19703	0.366122	-3.71	4.62	-0.07	0.2803	0.1025	-0.4612	
-0.91256	-0.192638	0.362828	-4.2	6.09	0.35	0.2631	0.0954	-0.4555	
-0.90158	-0.193492	0.360388	-4.69	6.72	0.56	0.2703	0.09999999	-0.4507	
-0.89731	-0.198128	0.367464	-5.04	7.28	0.63	0.2703	0.097	-0.4492	
-0.901336	-0.19337	0.367464	-4.97	8.82	0.49	0.2675	0.0927	-0.4433	
-0.896212	-0.192028	0.352702	-7.56	9.1	0.21	0.2617	0.0944	-0.4433	
-0.899262	-0.196054	0.361608	-7.42	10.43	1.4	0.2731	0.1035	-0.4398	
-0.906582	-0.193858	0.35136	-7.28	12.39	2.03	0.2658	0.108	-0.4442	
-0.902312	-0.197518	0.336842	-7.35	14.28	3.78	0.2788	0.1108	-0.444	
-0.903288	-0.2013	0.349896	-5.67	16.24	4.69	0.2774	0.1065	-0.4396	
-0.906582	-0.194712	0.342576	-5.53	17.57	5.32	0.2788	0.114	-0.4424	
-0.910608	-0.197152	0.341844	-3.36	19.81	5.74	0.2833	0.1033	-0.4397	
-0.915122	-0.202764	0.330742	-1.33	20.93	4.41	0.2831	0.1125	-0.4394	
-0.903776	-0.186294	0.320372	0.14	23.94	1.82	0.2833	0.105	-0.4351	
-0.91256	-0.197274	0.315736	0.07	24.99	0.63	0.2962	0.1112	-0.4286	
-0.914146	-0.190564	0.31476	1.05	25.27	0.28	0.2961	0.1174	-0.4253	
-0.920856	-0.188002	0.297924	2.31	25.69	-0.28	0.2962	0.1161	-0.4192	
-0.924882	-0.196786	0.300974	2.17	26.11	-0.91	0.3064	0.1085	-0.4149	
-0.9333	-0.190198	0.293288	1.82	26.18	-1.4	0.2992	0.1038	-0.4212	
-0.923174	-0.19886	0.281698	2.45	26.39	-2.66	0.3123	0.1009	-0.4121	
-0.930982	-0.196054	0.272426	1.82	27.44	-2.8	0.3093	0.1054	-0.4165	
-0.940498	-0.195444	0.252296	0.49	23.17	-4.34	0.3036	0.1043	-0.4074	
-0.949404	-0.197396	0.244732	0.42	24.08	-4.48	0.3166	0.1086	-0.4102	
-0.949282	-0.19825	0.226188	-0.56	21.35	-3.64	0.3167	0.0998	-0.4014	
-0.96746	-0.185562	0.21655	-3.01	21.21	-2.87	0.3137	0.1123	-0.3947	
-0.969046	-0.197396	0.20557	-2.52	19.88	-1.26	0.3253	0.1106	-0.3947	
-0.95892	-0.200934	0.185562	-1.89	13.93	1.68	0.3136	0.115	-0.4023	
-0.966118	-0.205082	0.19276	-1.54	20.09	3.15	0.3166	0.1108	-0.3933	
-0.948916	-0.208986	0.181292	0.07	18.06	6.09	0.3312	0.1013	-0.3951	
-0.972462	-0.218624	0.190198	0.63	23.03	6.09	0.3166	0.1108	-0.3933	
-0.974048	-0.205448	0.16897	1.75	25.62	5.53	0.331	0.1121	-0.3916	
-0.978318	-0.201056	0.152378	2.1	26.95	5.18	0.344	0.1167	-0.3867	
-0.968436	-0.20008	0.148718	3.08	32.13	1.61	0.3355	0.1063	-0.3841	
-0.977342	-0.186538	0.129076	3.22	33.11	0.63	0.3428	0.1065	-0.3749	
-0.982222	-0.19337	0.108458	5.11	33.32	0.28	0.3442	0.1069	-0.3657	
-0.994422	-0.18666	0.112118	5.18	33.11	-2.59	0.3529	0.1113	-0.3654	
-1.007476	-0.196908	0.105652	3.92	35.21	-2.66	0.3543	0.1081	-0.3686	
-1.008696	-0.207644	0.083448	5.67	22.54	2.38	0.3587	0.1115	-0.3577	
-0.9821	-0.198128	0.048068	6.44	21.56	1.05	0.3515	0.1088	-0.3533	
-0.999546	-0.183854	0.061122	6.16	22.75	0.91	0.3676	0.098	-0.349	
-1.02053	-0.208986	0.05124	7.35	21.42	-1.75	0.3489	0.0955	-0.3431	
-1.015894	-0.22021	0.04087	9.66	19.81	0.98	0.3501	0.1074	-0.3503	
-1.012234	-0.22082	0.041724	11.48	16.03	1.75	0.3532	0.097	-0.3415	
-1.01138	-0.232654	0.036112	12.46	12.18	1.47	0.3618	0.0964	-0.3537	
-1.025288	-0.224358	0.037454	13.37	10.92	4.62	0.3691	0.0983	-0.3414	
-1.007476	-0.208376	0.002318	15.19	8.75	3.85	0.3675	0.1061	-0.338	
-1.02053	-0.202154	0.02013	14.77	8.26	1.26	0.3648	0.09079999	-0.3401	
-1.014674	-0.180072	0.041846	15.54	4.06	1.33	0.3705	0.1032	-0.3335	
-0.987712	-0.196908	0.047946	15.19	4.97	7.14	0.3706	0.0924	-0.3355	
-0.98698	-0.197518	0.040748	14.91	6.23	9.1	0.3691	0.0983	-0.3414	
-0.990762	-0.200446	0.038308	16.1	6.16	7.91	0.3678	0.0895	-0.3341	
-1.009428	-0.167384	0.081374	15.96	2.24	10.64	0.378	0.0847	-0.3342	
-1.00894	-0.170678	0.049166	15.82	1.12	8.19	0.3635	0.0831	-0.342	
-1.014186	-0.16836	0.025376	18.48	1.54	8.82	0.3637	0.07099999	-0.341	
-1.010892	-0.169336	0.057584	13.65	0.28	4.48	0.3679	0.0786	-0.3391	
-1.005402	-0.160552	0.067832	16.24	2.59	5.46	0.3708	0.0773	-0.333	
-0.981612	-0.156404	0.061976	11.9	3.43	5.46	0.3809	0.08	-0.3374	
-0.981734	-0.152988	0.044286	10.15	5.39	4.9	0.3824	0.077	-0.336	
-0.9943	-0.15555	0.044286	9.31	5.53	5.18	0.3754	0.065	-0.3335	
-1.008574	-0.154574	0.03233	8.68	5.67	3.78	0.3796	0.0694	-0.3348	
-1.01077	-0.162138	0.056364	6.93	6.02	4.69	0.3768	0.0618	-0.3351	
-0.99003	-0.15921	0.038186	10.08	3.99	6.09	0.3725	0.0618	-0.3367	
-1.006744	-0.149572	0.054656	6.37	7	4.55	0.3885	0.0587	-0.3321	
-1.00223	-0.148596	0.044896	6.02	5.6	5.81	0.3811	0.0667	-0.3257	
-1.00223	-0.156526	0.02745	5.6	5.67	1.33	0.384	0.0667	-0.3257	
-1.020774	-0.14213	0.028548	7.98	3.71	1.61	0.3754	0.0635	-0.332	
-1.013942	-0.149938	0.0122	7.35	0.21	2.8	0.3738	0.0712	-0.3317	
-1.0065	-0.133712	0.045506	4.2	4.13	2.94	0.3797	0.0637	-0.3258	
-0.99369	-0.133956	0.037576	3.64	5.53	2.87	0.3756	0.0515	-0.3263	
-0.995764	-0.121146	0.031598	2.52	5.88	2.03	0.3782	0.0681	-0.3303	
-1.000156	-0.12566	0.036356	-1.19	5.95	1.4	0.3811	0.07	-0.321	
-1.009916	-0.13664	0.026108	3.08	4.06	0.98	0.3827	0.0605	-0.3275	
-1.017602	-0.142984	0.015128	3.22	2.24	1.19	0.3913	0.0636	-0.3227	
-1.011624	-0.163236	0.01769	4.41	2.87	1.12	0.3755	0.0611	-0.3168	
-1.010282	-0.135908	0.01525	1.26	1.54	-0.42	0.3799	0.0545	-0.3262	
-1.018944	-0.12505	0.02928	0.84	1.68	-0.7	0.3884	0.0635	-0.3273	
-0.997594	-0.126148	0.009272	0.07	-0.07	0	0.3856	0.0606	-0.3244	
-0.987834	-0.132004	0.026108	-1.54	2.1	-1.05	0.387	0.0589	-0.3275	
-1.001498	-0.135908	0.026962	-3.57	3.43	0.84	0.3856	0.0606	-0.3244	
-0.989786	-0.129198	0.035502	-6.72	5.18	2.03	0.3798	0.061	-0.3167	
-0.983442	-0.131272	0.025498	-6.44	7.07	2.8	0.3841	0.0606	-0.3259	
-0.996374	-0.123464	0.046848	-6.93	9.1	2.94	0.3812	0.0621	-0.3274	
-0.990274	-0.119926	0.046116	-4.41	9.1	2.59	0.3841	0.0636	-0.3273	
-0.99369	-0.120902	0.032574	-3.29	7.84	1.61	0.3798	0.0639	-0.3197	
-0.998692	-0.132858	0.04758	-1.89	7.28	0.28	0.3811	0.0684	-0.321	
-1.000156	-0.132736	0.041114	0.07	6.23	-1.68	0.3842	0.0625	-0.3151	
-1.020408	-0.13603	0.004514	1.68	4.69	-2.73	0.3885	0.0578	-0.3168	
-1.018944	-0.140056	0.011346	2.03	3.71	-0.91	0.3899	0.0686	-0.3133	
-1.013454	-0.158722	-0.02623	4.13	1.89	-0.7	0.3928	0.0592	-0.3198	
-1.015528	-0.168604	-0.048068	5.04	2.94	-0.7	0.3871	0.0597	-0.3076	
-1.00528	-0.150792	-0.023668	1.89	3.01	-0.49	0.3855	0.0668	-0.3226	
-0.993324	-0.139324	-0.005002	-0.14	5.04	-0.21	0.3855	0.0655	-0.3165	
-0.995032	-0.128466	0.002806	-0.14	3.92	-0.14	0.387	0.0622	-0.3213	
-0.997838	-0.122122	0.036234	-0.28	5.6	0.21	0.387	0.0657	-0.3104	
-0.98698	-0.125538	0.02135	0.28	6.3	0.77	0.3898	0.0716	-0.3147	
-0.998204	-0.118584	0.025498	0.7	6.44	-0.7	0.3943	0.0611	-0.309	
-1.01077	-0.118218	0.02745	0.77	5.67	-1.4	0.3884	0.0685	-0.3164	
-1.003816	-0.148108	0.01159	1.82	4.62	-1.61	0.3928	0.0626	-0.3089	
-1.01138	-0.136396	-0.006588	2.31	2.66	-2.38	0.3971	0.0639	-0.3135	
-1.003816	-0.140422	-0.017934	2.17	1.89	-2.8	0.3943	0.0612	-0.3075	
-1.009672	-0.142862	-0.032452	1.26	0.28	-2.52	0.3857	0.0583	-0.3061	
-1.008208	-0.143594	-0.024278	1.68	0.7	-2.73	0.3914	0.0657	-0.3104	
-1.006256	-0.143472	-0.03599	0.56	0.63	-2.17	0.3971	0.0702	-0.3086	
-1.007232	-0.137006	-0.013176	-0.77	1.4	-1.4	0.3898	0.072	-0.3055	
-0.990274	-0.139202	-0.025498	-0.63	2.45	-0.84	0.3887	0.054	-0.2986	
-1.009184	-0.147864	-0.022204	-2.52	2.59	-0.21	0.3928	0.0661	-0.2996	
-1.005524	-0.151646	-0.010736	-2.03	2.66	0.21	0.403	0.0643	-0.3012	
-0.99857	-0.155916	-0.009516	-1.54	3.36	0.42	0.3929	0.0611	-0.3105	
-1.001986	-0.15189	-0.005734	-1.54	2.52	0.14	0.3986	0.0672	-0.3072	
-1.000888	-0.14884	-0.010736	-0.63	2.17	-0.28	0.3943	0.0628	-0.3043	
-1.00284	-0.14457	-0.011834	0.63	0.84	-0.56	0.4044	0.0658	-0.3026	
-1.008086	-0.140056	-0.012932	0.98	0.28	-1.12	0.3957	0.0626	-0.3089	
-1.002962	-0.142008	-0.014518	1.12	-0.35	-1.82	0.3913	0.069	-0.3041	
-1.005158	-0.136152	-0.014152	0.91	-0.56	-1.61	0.3958	0.058	-0.3106	
-1.000888	-0.128344	-0.0122	-0.91	-0.7	-1.05	0.3927	0.0702	-0.3117	
-1.000644	-0.138348	-0.020496	-1.26	-0.7	0.07	0.3899	0.0625	-0.3136	
-1.012356	-0.145668	-0.028548	-0.49	0.7	0.35	0.3914	0.0657	-0.3104	
-1.004548	-0.141032	-0.023424	-0.07	0.84	0.77	0.3928	0.07229999	-0.2963	
-1.006012	-0.155428	-0.016836	0.21	0.56	0.84	0.3885	0.0693	-0.298	
-1.001742	-0.144204	-0.013786	0	0.63	0.28	0.3957	0.0627	-0.3074	
-1.008208	-0.147864	-0.01525	0.98	0.56	0.35	0.3956	0.07009999	-0.3117	
-1.004304	-0.138958	-0.021472	1.75	-1.33	-0.14	0.397	0.0716	-0.3116	
-1.004182	-0.141154	-0.020496	1.96	-3.08	-0.56	0.3973	0.0565	-0.3076	
-1.004792	-0.141154	-0.000244	2.1	-2.1	-0.98	0.4058	0.0668	-0.3133	
-0.994056	-0.132858	-0.011712	1.47	-2.94	-1.12	0.3986	0.0641	-0.3089	
-0.992836	-0.134932	-0.013908	1.47	-1.68	-0.63	0.4015	0.0639	-0.3134	
-0.998936	-0.142862	-0.004514	0.91	0.14	0.07	0.39	0.0613	-0.3044	
-1.003816	-0.142496	-0.004758	0.98	0	-0.56	0.3899	0.0654	-0.318	
-1.007964	-0.141276	-0.002562	1.26	-0.42	-1.12	0.387	0.0675	-0.3042	
-0.99857	-0.137982	-0.011102	1.54	-0.35	-1.61	0.4001	0.063	-0.2982	
-1.004548	-0.141642	-0.002928	1.68	-1.33	-1.89	0.3899	0.0669	-0.318	
-0.9943	-0.147986	-0.005856	2.24	-1.68	-2.1	0.3929	0.0614	-0.3029	
-1.00223	-0.147864	-0.009881999	2.94	-1.89	-2.31	0.3929	0.0579	-0.3122	
-1.008696	-0.148962	-0.005734	2.94	-1.96	-2.24	0.3857	0.0614	-0.3044	
-1.004182	-0.149694	-0.013908	2.17	-3.43	-2.24	0.3944	0.0581	-0.3076	
-1.000888	-0.153842	-0.015738	1.89	-3.85	-1.82	0.3871	0.0627	-0.309	
-1.003938	-0.153598	-0.009393999	2.17	-2.66	-1.33	0.3913	0.0638	-0.3181	
-1.000522	-0.14335	0.000244	1.89	-2.45	-0.91	0.3841	0.0653	-0.3211	
-0.992958	-0.151402	0.011834	1.12	-2.59	0.14	0.3886	0.0563	-0.3169	
-0.995886	-0.1464	0.016104	0.84	-1.68	-1.12	0.3842	0.0615	-0.3029	
-0.996008	-0.147864	0.000976	1.33	-2.03	-0.77	0.3958	0.0577	-0.3168	
-0.999912	-0.142374	0.018422	0.91	-2.03	-0.91	0.3914	0.0595	-0.3121	
-0.988566	-0.146522	0.034282	-0.63	-1.33	-1.26	0.3885	0.0641	-0.312	
-0.978928	-0.14518	0.019764	-0.28	-1.61	-1.75	0.3841	0.0608	-0.3213	
-0.99003	-0.15189	0.02806	0.07	-0.35	-1.61	0.3986	0.0655	-0.3119	
-0.99979	-0.160552	0.011224	1.68	0.49	-1.54	0.3898	0.06659999	-0.3257	
-1.007354	-0.149084	0.012322	2.24	0.56	-1.26	0.3856	0.0607	-0.3229	
-0.995642	-0.137006	0.02379	0.07	0.77	-1.82	0.387	0.0671	-0.3149	
-0.984174	-0.13359	0.010126	0.56	-1.26	-2.38	0.3957	0.0592	-0.3183	
-1.000034	-0.128466	0.035014	-0.35	-3.15	-1.12	0.3898	0.0667	-0.3226	
-0.973926	-0.157258	0.010126	-2.03	-2.59	-0.91	0.3856	0.0609	-0.3167	
-0.993446	-0.172142	0.022448	-4.13	2.31	-1.82	0.3855	0.0636	-0.3258	
-1.005768	-0.166286	-0.020984	-3.15	2.1	-2.8	0.3899	0.0623	-0.3197	
-1.037732	-0.163724	-0.027328	-3.29	0.21	-3.22	0.4	0.0636	-0.3211	
-1.027728	-0.171532	-0.019886	-5.04	-0.77	-6.79	0.4014	0.0667	-0.3179	
-1.011136	-0.164334	-0.00061	-7.84	-1.68	-9.59	0.3913	0.0652	-0.3226	
-0.997228	-0.173118	-0.013664	-8.4	-2.87	-7.84	0.3825	0.0762	-0.3176	
-0.99796	-0.168604	-0.055144	-9.73	-3.5	-12.46	0.3855	0.0716	-0.3178	
-1.039806	-0.173606	-0.036356	-13.16	-2.38	-14.14	0.3896	0.0838	-0.3158	
-1.04737	-0.184098	-0.060146	-12.11	-8.47	-12.53	0.3868	0.0773	-0.3252	
-1.03517	-0.178608	-0.006832	-12.32	-7.56	-12.32	0.3867	0.0837	-0.3189	
-0.993934	-0.191662	-0.01037	-11.2	-6.44	-8.61	0.3852	0.0881	-0.3248	
-0.965386	-0.18605	-0.012444	-11.13	-2.31	-8.96	0.3839	0.0806	-0.3221	
-0.995764	-0.188978	-0.013542	-12.46	-1.4	-6.16	0.3852	0.08859999	-0.311	
-1.01138	-0.219478	0.012078	-9.94	-0.49	-4.76	0.3751	0.0871	-0.3142	
-1.011868	-0.219966	-0.00427	-4.62	-2.38	-4.13	0.3751	0.087	-0.3173	
-1.012478	-0.214598	0.021838	-9.24	-5.74	-6.23	0.3938	0.0894	-0.3263	
-0.997594	-0.204594	-0.004636	-7.63	-9.03	-7.07	0.381	0.084	-0.3143	
-0.99674	-0.217404	0.002196	-11.34	-4.62	-5.95	0.3792	0.102	-0.3212	
-0.993934	-0.223382	-0.025864	-10.99	-4.83	-3.57	0.3749	0.0973	-0.3276	
-0.99308	-0.217038	0.002196	-9.66	-2.03	-1.54	0.385	0.1035	-0.3211	
-0.993812	-0.22875	0.016226	-4.34	0.28	1.12	0.3792	0.1005	-0.3213	
-0.989298	-0.203252	0.01281	-1.12	1.26	1.12	0.3778	0.0959	-0.323	
-0.992348	-0.191296	-0.020618	-0.77	-2.66	-3.36	0.3792	0.1004	-0.3228	
-1.009062	-0.21655	0.007686	-9.1	-4.76	-7.14	0.3805	0.1112	-0.3193	
-0.984174	-0.235338	0.017812	-7.14	-5.32	-0.56	0.3763	0.1037	-0.3196	
-1.015162	-0.213744	0.000854	-5.04	-14.98	-4.83	0.3821	0.1003	-0.3243	
-1.015162	-0.19154	0.030012	-6.37	-14.42	-5.18	0.3748	0.105	-0.3242	
-1.236958	-0.364658	0.124074	-1.12	-15.26	-4.76	0.3791	0.1076	-0.3333	
-0.84241	-0.145302	-0.035868	-1.12	-31.01	3.01	0.3748	0.0999	-0.3367	
-0.967948	-0.188368	0.014152	-2.31	-4.83	-1.12	0.3777	0.1014	-0.3381	
-1.016748	-0.232654	0.015128	0.7	-19.39	0.42	0.3762	0.1046	-0.3334	
-0.985028	-0.216672	0.030988	0.07	-13.65	2.94	0.3618	0.1047	-0.3365	
-1.012966	-0.233508	0.05429	1.05	-24.08	-2.8	0.3689	0.1105	-0.3424	
-1.006012	-0.213622	0.0549	-0.63	-23.59	-1.19	0.3674	0.1119	-0.3454	
-1.014918	-0.212036	0.087352	-4.34	-27.65	0.7	0.3588	0.1061	-0.3411	
-0.9699	-0.21167	0.053314	-2.94	-28.98	2.38	0.363	0.1115	-0.3562	
-0.979172	-0.205936	0.030256	1.54	-29.05	3.08	0.3631	0.1038	-0.358	
-1.010526	-0.208132	0.07076	0.28	-32.41	1.68	0.3545	0.096	-0.3676	
-1.01321	-0.217282	0.088694	0.49	-34.51	2.94	0.3531	0.0945	-0.3661	
-0.996496	-0.232898	0.099674	1.05	-34.23	4.27	0.3458	0.1007	-0.3674	
-0.986248	-0.209108	0.094428	0.84	-34.58	0	0.3457	0.1021	-0.3689	
-0.9821	-0.197396	0.11407	0.49	-35.49	-0.07	0.337	0.1034	-0.3796	
-0.981734	-0.207278	0.13237	0.7	-35.56	0.35	0.3399	0.1033	-0.3812	
-0.972828	-0.213866	0.133224	0.14	-36.12	0.7	0.3456	0.1046	-0.3842	
-0.964532	-0.206058	0.169092	0.42	-36.68	0.63	0.324	0.09999999	-0.3936	
-0.964776	-0.206546	0.200812	1.19	-35.56	0.56	0.3239	0.103	-0.3935	
-0.961238	-0.221918	0.211548	2.17	-36.05	0.49	0.3298	0.0982	-0.3968	
-0.959896	-0.206546	0.232532	1.82	-33.88	-1.4	0.3109	0.103	-0.3997	
-0.94794	-0.200324	0.223504	0.91	-31.78	-1.96	0.3064	0.112	-0.4055	
-0.93818	-0.197762	0.232776	0.14	-32.62	-1.68	0.3138	0.1059	-0.4011	
-0.942694	-0.19703	0.250466	0.07	-30.94	-1.68	0.3167	0.101	-0.409	
-0.944524	-0.19825	0.2623	0.56	-31.85	-0.84	0.3037	0.0948	-0.4154	
-0.924516	-0.21411	0.276452	0.56	-29.05	-0.84	0.3051	0.0979	-0.4153	
-0.91988	-0.215208	0.28914	0.28	-28.56	0.84	0.2993	0.0992	-0.4214	
-0.923296	-0.201666	0.307196	-0.28	-29.47	1.54	0.2908	0.0902	-0.4218	
-0.907924	-0.190442	0.296338	-0.98	-28.7	2.52	0.2935	0.0977	-0.423	
-0.913048	-0.177266	0.33062	-1.26	-28.77	3.57	0.2805	0.0973	-0.44	
-0.900482	-0.21106	0.350628	-1.47	-27.16	4.13	0.2936	0.0881	-0.4357	
-0.901092	-0.194468	0.364536	-0.56	-29.19	3.36	0.2775	0.0984	-0.4507	
-0.893528	-0.193248	0.38308	0	-28	2.87	0.2688	0.1018	-0.446	
-0.881328	-0.19215	0.388936	-0.42	-26.39	2.59	0.2675	0.0924	-0.4525	
-0.876448	-0.189954	0.398818	-0.63	-23.94	2.59	0.266	0.0954	-0.4539	
-0.869982	-0.19459	0.399306	-1.19	-22.05	2.38	0.2631	0.0938	-0.4571	
-0.874252	-0.193248	0.414312	-1.26	-20.93	1.96	0.2674	0.0938	-0.4555	
-0.871934	-0.187636	0.424194	-0.84	-18.9	0.84	0.2544	0.09209999	-0.4633	
-0.854854	-0.191784	0.426146	-1.05	-16.52	0	0.2543	0.0998	-0.4615	
-0.878156	-0.182024	0.43127	-0.28	-17.08	0.14	0.2501	0.0925	-0.4572	
-0.869982	-0.204594	0.433832	1.54	-15.82	1.19	0.2544	0.0937	-0.4617	
-0.875106	-0.205448	0.436638	0.7	-14.14	1.33	0.2515	0.0973	-0.4509	
-0.873398	-0.19154	0.424316	0.21	-12.88	0.56	0.2457	0.095	-0.4709	
-0.876692	-0.1891	0.42273	-0.21	-11.83	0.14	0.2443	0.0936	-0.4679	
-0.87108	-0.195566	0.425414	0.14	-10.15	0.42	0.2458	0.0895	-0.4573	
-0.877546	-0.202398	0.424438	0	-8.96	0.35	0.2486	0.09519999	-0.4663	
-0.883524	-0.188246	0.418338	0.42	-8.4	0.14	0.2471	0.0949	-0.4724	
-0.884744	-0.187026	0.428708	1.12	-7.77	0.49	0.2384	0.09339999	-0.4771	
-0.875472	-0.197762	0.432734	2.1	-6.79	0.77	0.2399	0.0935	-0.4725	
-0.876936	-0.190198	0.430782	0.84	-6.51	0.07	0.2282	0.0998	-0.4723	
-0.879742	-0.183244	0.434198	-0.49	-5.95	-0.14	0.2385	0.0923	-0.4665	
-0.872422	-0.18605	0.433832	-0.91	-5.67	-0.98	0.237	0.0938	-0.4679	
-0.871202	-0.185318	0.433832	-1.47	-5.25	-1.26	0.2268	0.1001	-0.4662	
-0.868518	-0.195444	0.435418	-1.47	-5.11	-1.05	0.2399	0.0903	-0.4757	
-0.871324	-0.196664	0.443348	-2.38	-5.25	-1.54	0.2414	0.08899999	-0.4712	
-0.875716	-0.193614	0.44225	-2.73	-4.97	-1.33	0.2211	0.0906	-0.4773	
-0.87596	-0.193126	0.447984	-2.66	-4.62	-0.7	0.2383	0.1076	-0.4643	
-0.871934	-0.199714	0.442982	-2.03	-4.34	0.21	0.2312	0.0935	-0.4756	
-0.868884	-0.207522	0.442006	-1.82	-3.99	-0.14	0.2342	0.08769999	-0.4682	
-0.87596	-0.209962	0.444812	-1.47	-3.64	-0.21	0.2312	0.0935	-0.4756	
-0.871324	-0.210084	0.44469	-1.54	-3.22	-0.63	0.224	0.0907	-0.4727	
-0.87169	-0.206302	0.444934	-0.98	-3.22	-0.56	0.2312	0.0937	-0.4726	
-0.874252	-0.199104	0.441884	-0.63	-3.08	-1.19	0.234	0.0997	-0.4723	
-0.871446	-0.201788	0.446398	-0.21	-3.08	-1.26	0.2269	0.0885	-0.4881	
-0.865468	-0.205082	0.448838	-0.56	-2.66	-1.47	0.2312	0.0919	-0.4788	
-0.866566	-0.201056	0.44652	-1.4	-2.8	-1.4	0.2312	0.0982	-0.4739	
-0.872666	-0.198372	0.454206	-1.68	-2.52	-1.89	0.2283	0.0937	-0.4726	
-0.870226	-0.202398	0.450424	-1.33	-2.03	-2.1	0.2297	0.0997	-0.4739	
-0.86742	-0.20313	0.450058	-1.12	-1.96	-1.82	0.2254	0.0999	-0.4708	
-0.866688	-0.207156	0.446642	-1.12	-2.17	-1.68	0.221	0.1045	-0.4722	
-0.870958	-0.201422	0.449326	-1.54	-2.59	-1.82	0.2225	0.0998	-0.4739	
-0.868518	-0.206912	0.452498	-1.68	-2.38	-1.68	0.218	0.1055	-0.486	
-0.868152	-0.204106	0.449936	-1.47	-1.96	-1.47	0.2181	0.1027	-0.4799	
-0.869128	-0.205692	0.453596	-1.19	-1.4	-1.05	0.218	0.1026	-0.483	
-0.865956	-0.203008	0.453474	-0.84	-0.91	-1.12	0.2224	0.1041	-0.4814	
-0.865956	-0.204472	0.455182	-0.63	-0.56	-1.05	0.2223	0.1074	-0.4767	
-0.863394	-0.20557	0.454938	-0.7	-0.35	-0.98	0.224	0.0937	-0.4741	
-0.86193	-0.209474	0.458476	-0.56	-0.35	-0.98	0.2239	0.0982	-0.4755	
-0.857538	-0.213012	0.455792	-0.63	-0.56	-1.05	0.2254	0.0964	-0.4832	
-0.865224	-0.214476	0.454084	-1.12	-0.35	-1.68	0.224	0.09209999	-0.4757	
-0.868152	-0.2196	0.454816	-1.12	-0.21	-2.17	0.2282	0.1025	-0.4814	
-0.865468	-0.21716	0.452498	-1.19	-0.14	-2.03	0.2209	0.1026	-0.483	
-0.866932	-0.21716	0.451888	-1.19	0.28	-2.1	0.2167	0.1014	-0.4754	
-0.862296	-0.219356	0.450058	-1.12	0.14	-1.82	0.2298	0.092	-0.4772	
-0.876326	-0.208498	0.448838	-1.4	-0.21	-2.1	0.2282	0.1008	-0.4861	
-0.869494	-0.221308	0.447252	-1.33	-0.49	-2.31	0.2136	0.1086	-0.4859	
-0.869006	-0.2135	0.447374	-1.61	-0.63	-1.82	0.2181	0.0998	-0.477	
-0.869128	-0.217404	0.450302	-1.47	-0.35	-1.68	0.2166	0.1057	-0.4829	
-0.870104	-0.221186	0.449082	-1.54	-0.35	-1.47	0.2166	0.0994	-0.4862	
-0.868884	-0.22082	0.450058	-1.26	-0.42	-1.05	0.2179	0.1086	-0.4843	
-0.863882	-0.220088	0.44835	-1.05	-0.35	-0.91	0.2238	0.104	-0.4845	
-0.86437	-0.218502	0.451644	-0.98	-0.42	-1.05	0.2137	0.1042	-0.483	
-0.861564	-0.221552	0.453352	-0.77	-0.21	-0.91	0.2195	0.1078	-0.4659	
-0.86376	-0.22692	0.453596	-0.14	-0.21	-0.7	0.2195	0.1025	-0.4845	
-0.867542	-0.222894	0.457622	-0.49	-0.21	-0.56	0.2209	0.1057	-0.4813	
-0.864858	-0.21655	0.452986	-0.56	-0.14	-0.7	0.2224	0.1011	-0.48	
-0.864126	-0.22143	0.451522	-0.42	0.07	-0.84	0.2137	0.1058	-0.4798	
-0.86254	-0.226432	0.453962	-0.42	0.21	-0.98	0.2167	0.0949	-0.4849	
-0.862418	-0.227164	0.453596	-0.63	0.21	-1.05	0.2138	0.09959999	-0.4832	
-0.859734	-0.228872	0.453108	-0.21	0.28	-0.77	0.2281	0.1054	-0.4844	
-0.862784	-0.230824	0.45506	-0.07	0.21	-0.63	0.2267	0.1008	-0.4876	
-0.863516	-0.225456	0.450058	0	0.21	-0.49	0.2122	0.1073	-0.4813	
-0.863882	-0.223016	0.449204	-0.56	0.07	-0.49	0.2164	0.1132	-0.4857	
-0.860466	-0.231678	0.44713	-1.75	-0.07	-0.49	0.221	0.0992	-0.4893	
-0.86376	-0.224358	0.449326	-2.24	-0.14	-0.21	0.2195	0.1011	-0.4815	
-0.869738	-0.21899	0.456158	-2.17	0.21	0.35	0.2165	0.1134	-0.4795	
-0.866932	-0.21899	0.448472	-3.99	0.42	0.84	0.2238	0.1072	-0.4813	
-0.861198	-0.22204	0.456646	-4.48	0.84	1.47	0.218	0.1091	-0.472	
-0.855586	-0.219722	0.45933	-3.99	1.61	1.33	0.221	0.09999999	-0.4708	
-0.853512	-0.218014	0.456768	-3.5	2.66	0.98	0.2195	0.1014	-0.4754	
-0.854732	-0.218624	0.460062	-3.29	3.78	0.49	0.2281	0.1039	-0.4844	
-0.852902	-0.219966	0.461648	-4.41	5.25	0.21	0.2195	0.1042	-0.4799	
-0.850218	-0.220454	0.45689	-5.32	6.72	0.84	0.218	0.1105	-0.4766	
-0.84485	-0.225456	0.462014	-7.7	8.12	1.96	0.2266	0.1086	-0.4812	
-0.839604	-0.220454	0.459208	-6.86	10.43	2.87	0.2252	0.1054	-0.4859	
-0.833992	-0.21289	0.450668	-5.88	12.81	3.22	0.2354	0.1091	-0.4658	
-0.842654	-0.208254	0.45262	-5.74	14.28	3.64	0.2353	0.1121	-0.4672	
-0.838628	-0.231068	0.44469	-4.27	15.82	3.92	0.2324	0.1106	-0.4688	
-0.856074	-0.221918	0.432856	-5.04	18.55	5.04	0.2353	0.1184	-0.4624	
-0.866322	-0.215086	0.425536	-7.77	20.09	4.41	0.2297	0.1013	-0.4723	
-0.856196	-0.220576	0.421266	-7.42	21.63	4.41	0.2339	0.1137	-0.4656	
-0.860832	-0.228994	0.425536	-7.49	22.47	5.6	0.2468	0.1198	-0.4607	
-0.864004	-0.221674	0.400648	-5.67	24.43	6.51	0.2469	0.114	-0.4533	
-0.87779	-0.222162	0.390888	-3.71	26.67	6.79	0.2484	0.1157	-0.4486	
-0.898896	-0.214842	0.387228	-4.83	27.58	7.49	0.2527	0.1188	-0.4469	
-0.89487	-0.223382	0.371856	-1.61	31.29	2.1	0.2528	0.1065	-0.4474	
-0.892796	-0.213744	0.37271	-2.17	30.03	0.77	0.2672	0.1174	-0.4362	
-0.8906	-0.203984	0.358436	-1.05	32.62	1.47	0.2586	0.1067	-0.4412	
-0.892796	-0.204838	0.33428	-0.56	32.2	0	0.2672	0.1155	-0.4454	
-0.90951	-0.204716	0.327326	-0.77	33.6	-0.14	0.2802	0.1139	-0.4439	
-0.922564	-0.20496	0.324154	-1.96	33.88	0.35	0.2845	0.1205	-0.4298	
-0.921588	-0.217282	0.310612	-1.68	32.27	-1.05	0.2961	0.1189	-0.4268	
-0.932324	-0.21411	0.30927	-0.7	34.79	-0.35	0.2904	0.1146	-0.4224	
-0.915732	-0.216062	0.290238	0.07	34.79	-1.33	0.3019	0.114	-0.4331	
-0.940742	-0.213622	0.276574	-0.21	34.51	-1.05	0.289	0.1149	-0.4147	
-0.913292	-0.220454	0.26474	0.77	31.92	-2.1	0.3021	0.1103	-0.4117	
-0.933544	-0.209962	0.25742	-0.77	33.32	-1.26	0.3049	0.1166	-0.4053	
-0.935252	-0.208498	0.244732	-0.91	34.51	-1.61	0.3135	0.1194	-0.4067	
-0.959042	-0.206302	0.229238	-3.92	18.83	-4.06	0.3034	0.1178	-0.413	
-0.960628	-0.215574	0.211182	-3.78	20.93	-3.92	0.3121	0.121	-0.4067	
-0.949282	-0.232776	0.197518	-4.13	18.9	-3.08	0.3193	0.1242	-0.3988	
-0.962702	-0.217282	0.203984	-4.62	12.11	1.19	0.3149	0.1271	-0.4064	
-0.964288	-0.220454	0.18605	-4.83	16.38	3.08	0.3251	0.1211	-0.3989	
-0.966118	-0.232532	0.183	-3.43	19.74	6.93	0.3207	0.1243	-0.3958	
-0.95282	-0.228506	0.168604	-2.45	25.97	6.09	0.3251	0.1229	-0.3912	
-0.959408	-0.231678	0.147498	-0.49	30.17	4.9	0.3251	0.1232	-0.3835	
-0.971852	-0.228872	0.146278	-0.63	32.2	4.34	0.3296	0.1106	-0.3932	
-0.980514	-0.221674	0.143106	-0.63	33.39	1.82	0.3295	0.1216	-0.3851	
-0.992836	-0.231556	0.121146	1.61	34.51	1.61	0.3369	0.1129	-0.3701	
-0.990884	-0.235094	0.104066	2.8	35.07	-0.42	0.3396	0.1267	-0.3664	
-1.001132	-0.219234	0.081374	3.15	34.09	-2.1	0.347	0.1192	-0.3606	
-0.993934	-0.229604	0.09577	1.12	33.18	-0.77	0.3543	0.1116	-0.3578	
-0.998082	-0.243268	0.074054	0.07	24.43	2.52	0.3512	0.1268	-0.3618	
-1.019554	-0.23241	0.077104	3.01	24.85	3.78	0.3513	0.1209	-0.3543	
-0.98942	-0.210084	0.053436	6.86	22.4	6.16	0.3514	0.1114	-0.3639	
-1.004914	-0.22387	0.049044	8.47	21.91	8.82	0.3527	0.1288	-0.3479	
-0.996618	-0.215574	0.036844	12.11	17.64	11.62	0.363	0.1153	-0.3392	
-1.027118	-0.21167	0.037454	9.24	14.77	9.59	0.3689	0.1105	-0.3409	
-1.022604	-0.220576	0.044286	8.61	12.32	5.32	0.3689	0.1059	-0.3426	
-1.019432	-0.213378	0.051118	14.28	11.13	5.81	0.363	0.117	-0.3345	
-0.99003	-0.218502	0.0488	15.33	15.05	10.57	0.3616	0.1136	-0.3438	
-0.995276	-0.234484	0.015128	9.94	8.82	0.7	0.3691	0.1001	-0.3352	
-1.000888	-0.214232	0.013298	8.33	10.01	4.48	0.3646	0.1061	-0.3395	
-1.002962	-0.206424	0.010126	11.06	7.42	4.97	0.3704	0.1045	-0.338	
-0.996008	-0.18605	0.008296	12.67	4.76	6.3	0.3807	0.0969	-0.3352	
-0.996496	-0.19703	0.023546	13.09	9.31	8.89	0.3706	0.0889	-0.3479	
-1.011014	-0.204472	0.015128	15.47	4.55	10.85	0.3735	0.0971	-0.3322	
-1.008818	-0.182878	0.05124	14.42	7	10.22	0.3764	0.0904	-0.3462	
-1.010038	-0.173606	0.05185	14.49	5.88	12.18	0.3763	0.0936	-0.3415	
-0.988566	-0.158844	0.05185	12.39	7.49	10.29	0.3749	0.097	-0.3337	
-0.992836	-0.1525	0.048312	8.89	7.98	8.12	0.3765	0.0861	-0.3387	
-0.998326	-0.165188	0.041846	8.05	7.35	8.26	0.3763	0.0967	-0.3399	
-0.997838	-0.154452	0.038674	8.19	7.77	6.37	0.3794	0.0848	-0.3311	
-1.0065	-0.158112	0.023668	9.38	7.14	6.79	0.3809	0.0853	-0.3204	
-1.001376	-0.157258	0.022326	8.26	7.42	4.69	0.3767	0.0741	-0.3331	
-1.009794	-0.154696	0.021228	9.31	6.3	5.46	0.3796	0.0759	-0.3253	
-1.007354	-0.15555	0.007929999	10.85	4.9	5.95	0.3752	0.0771	-0.3345	
-1.02053	-0.154086	0.005124	8.82	7.49	3.78	0.3852	0.083	-0.3373	
-1.012478	-0.130906	0.001586	8.19	4.76	2.03	0.384	0.0696	-0.3302	
-1.007598	-0.13054	0.003904	7.84	4.06	1.05	0.381	0.07889999	-0.3267	
-1.014552	-0.143228	0.003538	4.83	1.82	2.38	0.3896	0.0786	-0.3313	
-1.009062	-0.137982	0.009028	1.89	5.32	0.49	0.3853	0.0757	-0.3284	
-1.000278	-0.148352	0.009638	3.64	3.85	1.19	0.381	0.074	-0.3346	
-1.000888	-0.163846	0.01647	4.55	6.72	1.05	0.3825	0.0711	-0.3301	
-0.98332	-0.158234	-0.000366	1.75	5.74	1.89	0.3783	0.0685	-0.3195	
-1.006866	-0.152622	0.00671	3.78	9.24	2.94	0.3825	0.0747	-0.3177	
-1.027362	-0.14274	-0.007442	11.13	5.95	3.15	0.3941	0.0731	-0.3131	
-0.996496	-0.138836	-0.005124	4.41	2.59	2.03	0.3869	0.0731	-0.3178	
-1.015162	-0.142618	0.001342	3.22	4.9	1.54	0.3898	0.0716	-0.3147	
-1.002474	-0.132492	0.008662	2.31	7.21	0.14	0.3956	0.0667	-0.321	
-0.999302	-0.134566	0.004026	0.35	3.36	0.98	0.3928	0.0606	-0.3228	
-1.003328	-0.14091	0.027206	-0.49	3.99	0.98	0.3813	0.0625	-0.3167	
-0.98637	-0.136518	0.014396	-1.96	3.99	0.14	0.3855	0.0687	-0.3133	
-0.992348	-0.140788	-0.003904	0.42	7.56	1.47	0.3868	0.0761	-0.3192	
-1.000766	-0.133346	-0.004636	-0.21	8.19	2.03	0.3885	0.0611	-0.3106	
-0.995886	-0.139446	0.011224	-1.89	10.57	3.71	0.3942	0.0685	-0.3148	
-0.999424	-0.133468	0.013542	-0.42	11.13	3.36	0.3883	0.0763	-0.313	
-0.983564	-0.122122	-0.009638	-0.77	10.57	2.59	0.3856	0.0657	-0.3119	
-1.004792	-0.126636	0.000122	-0.21	10.85	1.26	0.3914	0.0613	-0.3044	
-1.007354	-0.133224	-0.011468	2.17	10.57	1.19	0.3912	0.0733	-0.3101	
-1.001742	-0.132492	-0.000854	5.25	13.3	0.42	0.3972	0.0562	-0.3153	
-1.007232	-0.133712	-0.038186	7.21	9.17	0.14	0.3986	0.0674	-0.3026	
-1.003938	-0.119194	-0.025132	7.35	8.47	-1.47	0.3957	0.0676	-0.298	
-1.00284	-0.126758	-0.036844	5.95	7	-2.87	0.3971	0.0721	-0.2993	
-1.002718	-0.12932	-0.037454	7.91	6.02	-2.1	0.3986	0.0706	-0.2994	
-0.990152	-0.139446	-0.03599	3.78	8.82	-2.52	0.4058	0.0692	-0.2917	
-1.002108	-0.139324	-0.042944	5.04	9.8	-2.52	0.3973	0.0537	-0.3031	
-1.007232	-0.137494	-0.04636	4.97	8.82	-1.4	0.4045	0.0603	-0.2875	
-1.009794	-0.137738	-0.066124	4.41	6.37	-1.4	0.3941	0.0782	-0.3006	
-1.01199	-0.128954	-0.06222	5.11	6.93	-2.66	0.3972	0.0663	-0.2919	
-1.009916	-0.13664	-0.051606	4.55	4.41	-3.43	0.4059	0.0678	-0.2887	
-1.006134	-0.14091	-0.053802	4.27	3.08	-3.85	0.3972	0.0661	-0.2965	
-1.005036	-0.147742	-0.03782	3.71	4.27	-3.36	0.4016	0.0663	-0.2904	
-0.99918	-0.157258	-0.064538	2.66	3.5	-2.94	0.4045	0.0568	-0.2984	
-1.006378	-0.149816	-0.054778	1.89	3.71	-2.31	0.4058	0.0676	-0.2949	
-1.005402	-0.146278	-0.069052	0.42	3.22	-1.4	0.4015	0.0676	-0.2964	
-1.000522	-0.15555	-0.072468	-0.28	2.31	-1.54	0.3986	0.069	-0.301	
-0.999302	-0.157258	-0.066734	-0.14	3.15	-1.19	0.3973	0.0615	-0.2982	
-0.99857	-0.152744	-0.061488	0.07	3.01	-1.54	0.4087	0.0708	-0.2886	
-0.997594	-0.145668	-0.044042	0.14	4.13	-0.98	0.4044	0.066	-0.2965	
-0.99796	-0.144326	-0.06161	0.42	3.78	-0.7	0.4	0.0737	-0.2962	
-1.0004	-0.14152	-0.067588	0.84	4.27	-0.35	0.3957	0.0707	-0.2979	
-1.009184	-0.149938	-0.059414	1.33	3.85	0.14	0.4016	0.0631	-0.2935	
-1.011258	-0.154696	-0.064172	1.12	2.31	-0.7	0.4029	0.0773	-0.2822	
-1.005036	-0.154086	-0.069662	1.33	1.19	-1.26	0.4058	0.0708	-0.2901	
-1.008696	-0.153232	-0.064172	1.12	-0.42	-1.82	0.4058	0.07539999	-0.29	
-1.004426	-0.144082	-0.069418	0.7	-2.38	-2.38	0.3927	0.07539999	-0.2946	
-0.99735	-0.152012	-0.07137	-0.49	-1.54	-1.33	0.3985	0.0755	-0.29	
-0.983442	-0.158722	-0.07076	0.63	0.07	-0.98	0.4088	0.0646	-0.2919	
-1.003206	-0.156892	-0.07137	0.35	1.05	-0.21	0.4044	0.0679	-0.2872	
-0.994422	-0.14213	-0.07015	-0.14	1.61	0.14	0.4001	0.0693	-0.2918	
-1.003938	-0.15006	-0.063806	-0.42	2.38	0.28	0.3973	0.0633	-0.292	
-1.00467	-0.153842	-0.065636	0	1.26	0.84	0.4015	0.0744	-0.2793	
-0.999668	-0.149938	-0.05795	-0.7	0.77	0.63	0.4016	0.0619	-0.2859	
-1.002474	-0.15189	-0.066856	0.77	0.77	0.35	0.416	0.0693	-0.2871	
-1.00162	-0.143594	-0.062464	0.28	-0.56	0.07	0.4014	0.0784	-0.2929	
-0.999058	-0.15311	-0.060268	0.28	-0.07	0.35	0.3985	0.0774	-0.2807	
-0.996374	-0.155672	-0.057828	0.21	0.14	-0.42	0.3973	0.0636	-0.2844	
-0.998204	-0.153964	-0.064294	0.42	-1.19	-0.84	0.4001	0.065	-0.2858	
-0.998692	-0.15067	-0.062586	0.49	-0.14	-0.63	0.4117	0.0663	-0.2872	
-1.005524	-0.151158	-0.064416	0.14	-0.49	-0.14	0.4074	0.063	-0.2951	
-1.000644	-0.152378	-0.072712	0.98	-1.26	0.14	0.4	0.0756	-0.2869	
-1.003694	-0.153232	-0.065148	1.33	-1.19	-0.07	0.4002	0.057	-0.2953	
-0.997716	-0.155916	-0.07015	0.63	-1.89	-0.07	0.4014	0.0738	-0.2947	
-0.998936	-0.146034	-0.064416	0.77	-2.1	-0.28	0.4015	0.0708	-0.2917	
-1.006744	-0.14945	-0.069662	1.05	-2.31	-0.7	0.4044	0.0742	-0.2824	
-1.005524	-0.149206	-0.05673	0.91	-2.45	-0.49	0.3987	0.0636	-0.2828	
-0.99735	-0.1525	-0.05856	1.47	-2.66	-0.49	0.4016	0.0631	-0.2935	
-1.002596	-0.146278	-0.048434	0.84	-3.43	-0.42	0.4074	0.0648	-0.2889	
-1.000034	-0.155306	-0.056974	0.77	-3.43	-0.28	0.403	0.0678	-0.2903	
-1.003694	-0.153232	-0.05795	2.17	-4.41	-0.84	0.39	0.0598	-0.3045	
-1.006256	-0.152134	-0.048922	2.17	-5.74	-1.61	0.3915	0.0668	-0.2827	
-0.999668	-0.149328	-0.049654	1.68	-5.6	-2.03	0.4002	0.0668	-0.2781	
-0.98881	-0.146034	-0.03782	0.7	-4.69	-1.12	0.4001	0.0664	-0.2888	
-0.994788	-0.15067	-0.046726	0.7	-4.55	-0.91	0.3959	0.0569	-0.2984	
-1.003572	-0.15189	-0.049288	0	-3.92	-0.84	0.3986	0.0691	-0.2979	
-1.007598	-0.157136	-0.048556	-0.14	-3.71	-0.21	0.3971	0.074	-0.2901	
-1.005768	-0.154696	-0.042578	-0.28	-3.43	-0.42	0.4087	0.0691	-0.2933	
-1.001864	-0.149816	-0.0427	-0.28	-4.9	-1.12	0.4015	0.0708	-0.2932	
-0.995398	-0.161284	-0.036478	-0.84	-4.83	-0.77	0.4015	0.0694	-0.2902	
-0.994666	-0.151646	-0.022692	-1.4	-5.6	-0.98	0.3928	0.0724	-0.2932	
-1.001864	-0.165066	-0.0366	-1.61	-7.91	-0.84	0.4	0.0709	-0.2902	
-1.013454	-0.154574	-0.0305	-1.61	-8.12	-2.87	0.3913	0.0738	-0.2978	
-1.007598	-0.157136	-0.033184	-1.75	-9.24	-3.15	0.3883	0.0801	-0.2929	
-1.000644	-0.163724	-0.039162	-3.01	-9.1	-4.55	0.3957	0.069	-0.301	
-1.002474	-0.153354	-0.017934	-3.64	-6.65	-1.4	0.3999	0.0716	-0.3101	
-0.98149	-0.161528	-0.017202	-4.62	-7	0.49	0.3911	0.08109999	-0.3067	
-0.978196	-0.152256	0.023546	-8.47	-5.04	-0.35	0.3913	0.0707	-0.2979	
-1.009794	-0.161406	-0.008417999	-7.07	-2.38	-2.38	0.3911	0.0808	-0.3128	
-1.029436	-0.147254	-0.022204	-11.2	-6.09	-8.26	0.3928	0.0674	-0.3042	
-1.023702	-0.146766	-0.014762	-14.98	-7.77	-11.41	0.3928	0.0674	-0.3042	
-1.002352	-0.183244	0.022204	-17.01	0.35	-9.1	0.3997	0.0837	-0.3142	
-0.973682	-0.19154	0.000976	-18.48	4.13	-5.46	0.3955	0.0791	-0.3159	
-0.95648	-0.18727	-0.029524	-11.83	8.12	-3.71	0.3983	0.0871	-0.3064	
-0.98027	-0.195688	-0.066246	-9.03	10.01	-4.06	0.391	0.0869	-0.3126	
-1.045296	-0.180438	-0.116998	-5.18	4.62	-4.27	0.3925	0.0903	-0.3048	
-1.05469	-0.194956	-0.083326	-7.28	2.38	-8.26	0.394	0.086	-0.2957	
-1.052128	-0.221674	-0.137006	2.24	0.91	-5.11	0.3954	0.0919	-0.3001	
-1.005158	-0.215452	-0.102114	-4.62	-8.4	-3.08	0.3839	0.0826	-0.3082	
-1.014552	-0.216184	-0.099918	0.49	-5.25	1.26	0.3838	0.0919	-0.3063	
-0.992836	-0.194468	-0.068564	-0.14	-8.05	8.12	0.388	0.0947	-0.3107	
-0.968314	-0.17202	-0.04392	-2.1	-6.86	8.26	0.3911	0.08109999	-0.3067	
-0.975146	-0.150792	-0.02562	-2.24	-8.68	8.26	0.3882	0.0839	-0.3142	
-0.992104	-0.14579	0.00122	-2.03	-9.45	5.46	0.3866	0.0948	-0.3077	
-1.011502	-0.138714	0.00488	-1.82	-11.27	2.03	0.3795	0.0872	-0.3096	
-1.012356	-0.14518	0.004514	-2.52	-13.09	-1.05	0.3896	0.0918	-0.3047	
-1.022482	-0.153598	0.005978	-2.94	-14.21	-3.64	0.3911	0.0826	-0.3066	
-1.013576	-0.170312	0.016226	-6.16	-14.35	-4.97	0.381	0.086	-0.3019	
-0.990762	-0.174826	0.01952	-6.16	-12.95	-3.43	0.381	0.08109999	-0.3098	
-0.97051	-0.170678	0.00854	-5.74	-11.41	-1.89	0.3781	0.0823	-0.319	
-0.956724	-0.179706	0.022936	-5.6	-10.5	-1.33	0.3779	0.0947	-0.3139	
-0.961116	-0.172508	0.0183	-4.62	-10.5	0	0.3867	0.0839	-0.3143	
-0.971852	-0.17324	0.027328	-4.06	-7.98	0.21	0.3839	0.0824	-0.3143	
-0.984784	-0.170922	0.032208	-3.99	-8.47	-0.91	0.3865	0.1004	-0.3197	
-0.993934	-0.178486	0.049654	-4.34	-6.86	-1.68	0.3779	0.0929	-0.3201	
-0.991738	-0.183854	0.061976	-3.99	-6.44	-1.54	0.3793	0.09429999	-0.3231	
-0.98637	-0.167872	0.062098	-2.94	-6.23	-1.89	0.3765	0.0894	-0.3325	
-0.98515	-0.156526	0.050264	-3.71	-5.18	-3.36	0.3794	0.0895	-0.3294	
-0.976122	-0.167018	0.048312	-3.36	-2.73	-2.59	0.3735	0.0954	-0.3353	
-0.98881	-0.16531	0.038674	-1.82	-2.8	-1.47	0.3693	0.0852	-0.3266	
-0.988078	-0.160796	0.02745	-0.84	-1.68	-2.31	0.3692	0.0928	-0.3278	
-0.986858	-0.169946	0.035136	-0.7	0.63	-1.96	0.3792	0.1032	-0.3304	
-0.986492	-0.177876	0.035746	0.84	3.15	-0.42	0.375	0.0927	-0.3278	
-0.989664	-0.170556	0.039894	0.91	2.8	-0.07	0.3821	0.1003	-0.3243	
-0.98515	-0.167872	0.040748	0.42	3.85	0.21	0.3765	0.0865	-0.328	
-0.979294	-0.170922	0.03477	-0.98	4.34	0.7	0.3835	0.1016	-0.3289	
-0.987468	-0.18239	0.042456	-3.5	5.88	1.05	0.3778	0.0957	-0.3276	
-0.98881	-0.197518	0.033428	-3.92	6.3	1.26	0.3751	0.0882	-0.3249	
-0.981734	-0.198738	0.040992	-5.04	7.63	0.56	0.3821	0.1007	-0.3151	
-0.98393	-0.199958	0.038796	-3.64	9.31	0.07	0.3809	0.0837	-0.322	
-0.989054	-0.213256	0.03111	-3.15	9.87	-1.68	0.3778	0.0989	-0.3244	
-0.988078	-0.20923	0.01525	-2.87	8.05	-4.62	0.3938	0.0962	-0.3091	
-0.987834	-0.194346	0.009028	-1.61	6.51	-6.3	0.3823	0.0931	-0.3139	
-1.00284	-0.182146	-0.02135	-1.47	5.04	-7.35	0.3837	0.0932	-0.3108	
-1.003572	-0.175192	-0.023058	0.14	4.41	-8.61	0.3865	0.1007	-0.312	
-1.008086	-0.167872	-0.024034	2.24	5.25	-8.75	0.3837	0.0945	-0.3169	
-1.006988	-0.166042	-0.010126	3.08	5.74	-8.82	0.3749	0.1021	-0.3212	
-0.99918	-0.161406	-0.008662	3.57	6.58	-8.96	0.3821	0.1071	-0.3087	
-0.987102	-0.164578	-0.030622	3.43	6.09	-9.45	0.3793	0.1024	-0.312	
-1.003328	-0.169458	-0.026474	2.1	5.81	-8.96	0.3792	0.1056	-0.3073	
-1.008696	-0.171044	-0.045506	4.2	4.27	-8.47	0.3836	0.1021	-0.3181	
-1.023092	-0.176534	-0.03904	4.62	3.08	-8.96	0.379	0.1141	-0.3238	
-1.02175	-0.199836	-0.029402	5.74	1.4	-9.52	0.3821	0.1056	-0.3073	
-1.023824	-0.21594	-0.005368	4.76	3.01	-8.61	0.3761	0.1143	-0.3207	
-0.986126	-0.240096	-0.036478	4.06	2.38	-9.94	0.3879	0.1069	-0.3103	
-0.984174	-0.272914	-0.026352	6.23	2.94	-11.83	0.3907	0.1067	-0.3148	
-0.983686	-0.279746	-0.010492	6.72	4.27	-10.92	0.3819	0.1207	-0.3097	
-0.968436	-0.283772	-0.022204	4.13	2.73	-9.24	0.3864	0.1116	-0.3085	
-0.945012	-0.279746	-0.039162	6.51	2.66	-10.71	0.3834	0.1178	-0.3068	
-0.950624	-0.271084	0.011224	8.61	-2.17	-11.55	0.3849	0.1133	-0.3039	
-0.981246	-0.27877	-0.019276	11.9	-2.94	-9.87	0.3833	0.1207	-0.3113	
-0.989176	-0.263398	-0.008052	8.89	-0.14	-12.67	0.3819	0.1177	-0.3083	
-0.99247	-0.22082	-0.005734	9.38	-3.92	-13.37	0.3848	0.119	-0.3144	
-1.014186	-0.20435	-0.000366	6.93	-4.83	-15.68	0.3761	0.1173	-0.3206	
-1.008086	-0.240218	-0.020008	7.91	-4.9	-16.24	0.3761	0.1224	-0.3082	
-0.999424	-0.252662	-0.00976	6.44	-5.6	-18.41	0.376	0.1217	-0.325	
-0.976976	-0.247538	0.000854	6.16	-7	-19.95	0.3746	0.1236	-0.3173	
-0.972218	-0.191052	-0.032818	7.98	-5.39	-20.58	0.3831	0.1358	-0.3137	
-0.989542	-0.217038	-0.011224	4.13	-5.11	-19.04	0.3687	0.1315	-0.3124	
-0.994056	-0.246318	-0.007808	5.32	-3.57	-15.12	0.3788	0.1327	-0.3169	
-0.97417	-0.299388	0.024278	8.19	-3.99	-11.76	0.3685	0.1421	-0.3135	
-0.97539	-0.30988	0.007808	10.01	-1.19	-9.1	0.3629	0.1314	-0.3171	
-0.975268	-0.31964	0.011712	10.08	0.42	-7.7	0.3701	0.1293	-0.3294	
-0.963922	-0.32696	0.026596	5.04	1.96	-10.5	0.3615	0.1266	-0.3234	
-0.943182	-0.346724	0.025742	6.09	3.36	-11.13	0.3685	0.1432	-0.3242	
-0.930006	-0.363072	0.033672	6.44	3.71	-11.27	0.3716	0.1296	-0.3202	
-0.92171	-0.34099	0.0427	4.62	0.28	-12.6	0.3701	0.1323	-0.3308	
-0.937204	-0.3233	-0.002562	6.23	-1.96	-12.39	0.3743	0.1383	-0.3305	
-0.953796	-0.363438	0.011102	5.18	-3.78	-10.5	0.3641	0.1467	-0.3164	
-0.941718	-0.366488	0.018788	5.25	-4.2	-9.59	0.3684	0.1477	-0.3271	
-0.954284	-0.33733	0.017812	4.69	-3.57	-10.43	0.3613	0.1402	-0.3259	
-0.954894	-0.328912	0.009272	2.73	-2.24	-11.69	0.3714	0.1386	-0.3259	
-0.964898	-0.314516	0.02135	2.45	-3.99	-12.81	0.3741	0.1505	-0.3316	
-0.965996	-0.31476	0.022204	2.52	-2.31	-12.39	0.3583	0.151	-0.324	
-0.9516	-0.331474	0.029646	2.45	-1.61	-11.83	0.3669	0.1509	-0.3239	
-0.93696	-0.343064	0.015006	1.75	-1.82	-10.99	0.3684	0.1463	-0.3241	
-0.943426	-0.336598	0.02745	-0.14	-0.91	-11.97	0.3669	0.1508	-0.327	
-0.960018	-0.337818	0.021228	0.84	-2.52	-11.55	0.3698	0.1572	-0.3175	
-0.954406	-0.342332	0.01891	1.33	-2.45	-11.34	0.3683	0.1537	-0.3299	
-0.945378	-0.351726	0.019642	-0.35	-3.22	-10.57	0.3538	0.16	-0.3298	
-0.950624	-0.34221	0.02989	0	-2.94	-8.12	0.3508	0.1648	-0.3265	
-0.938546	-0.373564	0.022326	-4.76	0.14	-7.28	0.3567	0.1618	-0.3235	
-0.936594	-0.375394	0.030744	-0.77	0.63	-7	0.3625	0.1588	-0.319	
-0.936716	-0.3965	0.023668	-0.35	0.07	-4.76	0.3494	0.1634	-0.3235	
-0.931592	-0.407114	0.021106	3.01	0	-5.46	0.3596	0.1622	-0.3112	
-0.935374	-0.398086	0.025498	3.92	-2.31	-4.27	0.3538	0.1638	-0.3112	
-0.94306	-0.389668	0.034892	3.78	-1.96	-4.13	0.3624	0.1666	-0.3156	
-0.930372	-0.390522	0.041846	3.78	-0.91	-2.66	0.3595	0.1665	-0.3172	
-0.919148	-0.398452	0.043188	3.5	-0.28	-2.1	0.3637	0.172	-0.3308	
-0.91561	-0.387838	0.034526	3.57	-0.63	-1.96	0.3565	0.1676	-0.331	
-0.931348	-0.38674	0.023546	2.59	-2.03	-2.17	0.3595	0.165	-0.3188	
-0.927688	-0.396134	0.020862	2.66	-3.36	-2.1	0.345	0.1629	-0.3373	
-0.933056	-0.41053	0.037332	5.95	-5.18	0.07	0.3639	0.1615	-0.3266	
-0.920734	-0.398452	0.03965	6.23	-5.74	4.2	0.3551	0.1678	-0.3248	
-0.907314	-0.383934	0.059658	4.27	-2.38	3.92	0.3581	0.1595	-0.3405	
-0.908534	-0.371978	0.06832	1.82	-2.24	3.57	0.3596	0.1583	-0.3329	
-0.902556	-0.397232	0.072468	-0.28	-1.26	2.45	0.3523	0.1613	-0.3374	
-0.90829	-0.407358	0.075274	0.91	-2.31	3.15	0.3494	0.1597	-0.339	
-0.93025	-0.422852	0.07625	0.07	-1.19	3.85	0.348	0.1537	-0.3377	
-0.919392	-0.418704	0.065514	0.14	-1.05	3.5	0.3536	0.1673	-0.3387	
-0.913414	-0.391254	0.072956	-0.49	-0.21	2.24	0.3479	0.1611	-0.342	
-0.92903	-0.37027	0.06734399	-2.17	0.07	0.84	0.3466	0.1552	-0.3376	
-0.93025	-0.358558	0.055022	-1.68	0.21	1.89	0.3596	0.1567	-0.3345	
-0.939888	-0.368318	0.05185	0.21	1.47	3.57	0.3567	0.152	-0.3377	
-0.936228	-0.365024	0.053924	0.56	2.1	2.59	0.3626	0.1507	-0.3316	
-0.932202	-0.364658	0.048678	1.82	3.5	3.78	0.355	0.1723	-0.3262	
-0.946232	-0.359168	0.050142	0.35	3.64	2.94	0.3712	0.1521	-0.33	
-0.961482	-0.354776	0.038674	0.49	1.75	3.22	0.3554	0.1475	-0.3379	
-0.961848	-0.35624	0.018056	0.49	-0.35	1.75	0.3583	0.1458	-0.3395	
-0.979294	-0.35014	0.019764	-2.73	1.68	-1.05	0.3597	0.1458	-0.341	
-0.956724	-0.350506	0.011956	-1.4	0.7	2.1	0.3597	0.1475	-0.3348	
-0.944646	-0.349774	0.022204	0.35	2.03	1.05	0.3539	0.1522	-0.3347	
-0.93635	-0.34953	0.024156	-0.56	1.89	1.33	0.3541	0.1356	-0.3292	
-0.941962	-0.357094	0.0305	0.07	3.08	0.84	0.3625	0.1554	-0.3284	
-0.931836	-0.367342	0.039894	0.14	2.94	1.26	0.3669	0.1504	-0.3362	
-0.927932	-0.377468	0.051362	0.63	1.89	2.17	0.3641	0.1459	-0.3349	
-0.939644	-0.384056	0.046482	0.98	1.33	2.24	0.3537	0.1627	-0.3404	
-0.950624	-0.379664	0.034038	1.12	1.19	1.54	0.3611	0.1488	-0.3409	
-0.965142	-0.362828	0.025376	0.77	0.84	0.7	0.3699	0.1462	-0.3272	
-0.960384	-0.351238	0.026962	-0.49	-0.07	0.42	0.3625	0.1521	-0.3331	
-0.939766	-0.35075	0.027816	-0.56	1.12	-0.35	0.3597	0.1524	-0.3285	
-0.928786	-0.360388	0.02806	-0.7	1.47	-0.63	0.3625	0.154	-0.3254	
-0.930494	-0.36356	0.022082	-0.91	0.21	-1.61	0.3697	0.1551	-0.3329	
-0.94245	-0.36661	0.036112	0.07	0.7	-1.68	0.3509	0.157	-0.3314	
-0.951356	-0.351482	0.047214	3.15	-0.84	2.45	0.3539	0.1478	-0.3302	
-0.946964	-0.359656	0.038186	1.47	0	-0.21	0.3554	0.1432	-0.3304	
-0.942206	-0.368928	0.054534	1.68	1.89	-0.35	0.3626	0.149	-0.3347	
-0.949404	-0.364048	0.04148	0.42	1.05	-2.17	0.3539	0.1509	-0.3286	
-0.94672	-0.360876	0.031476	0.49	0.56	-3.08	0.3683	0.1506	-0.3301	
-0.946354	-0.366732	0.029768	1.61	-1.05	-3.36	0.364	0.1525	-0.3223	
-0.947696	-0.36478	0.02318	2.03	-1.19	-3.43	0.3598	0.148	-0.3225	
-0.94245	-0.363804	0.02196	1.82	-0.91	-2.87	0.3625	0.1523	-0.3285	
-0.938302	-0.373686	0.024522	1.12	-0.91	-3.01	0.3625	0.154	-0.3254	
-0.943426	-0.368318	0.028548	0.42	0.7	-2.24	0.3684	0.1461	-0.3287	
-0.939766	-0.374784	0.034892	0.42	0.91	-1.47	0.3668	0.1552	-0.3314	
-0.941596	-0.368684	0.043676	1.75	0.98	0.14	0.3626	0.1506	-0.3332	
-0.942328	-0.358924	0.038308	0.49	0.49	-1.19	0.3581	0.1569	-0.3299	
-0.936716	-0.374174	0.041724	0.84	0.77	-1.89	0.3582	0.1555	-0.3268	
-0.94001	-0.373808	0.04453	0.63	-0.91	-2.45	0.3669	0.1489	-0.3363	
-0.934398	-0.375638	0.047214	1.12	-1.05	-1.89	0.3626	0.1495	-0.3225	
-0.930494	-0.37149	0.043432	1.05	-0.42	-1.54	0.3524	0.1554	-0.3315	
-0.929274	-0.378322	0.043066	0.49	0.42	-1.47	0.354	0.148	-0.3241	
-0.93147	-0.383202	0.032696	0.28	1.33	-1.33	0.3508	0.1633	-0.325	
-0.940498	-0.387716	0.040504	0.28	1.47	-0.98	0.3497	0.1466	-0.3226	
-0.938058	-0.383324	0.040748	0.98	1.47	-0.07	0.3596	0.1571	-0.3252	
-0.929152	-0.380518	0.042456	0.91	1.47	0.14	0.364	0.1555	-0.3253	
-0.938302	-0.376004	0.044164	0.56	1.54	0.21	0.3596	0.1553	-0.3314	
-0.935618	-0.378932	0.036966	1.19	1.33	0.77	0.3567	0.1569	-0.3299	
-0.9394	-0.36783	0.03477	0.77	2.17	2.03	0.3553	0.1569	-0.3299	
-0.94062	-0.36234	0.034282	0.21	2.31	2.45	0.3638	0.163	-0.328	
-0.942816	-0.370636	0.030622	0.77	3.43	2.66	0.3597	0.1523	-0.33	
-0.941718	-0.361364	0.033672	0.49	3.29	3.15	0.3539	0.1477	-0.3318	
-0.939034	-0.35197	0.030988	0.28	3.92	2.59	0.364	0.1526	-0.3208	
-0.950624	-0.366122	0.034892	0.07	4.48	4.13	0.3583	0.1465	-0.3226	
-0.939156	-0.357094	0.035868	0.63	4.34	3.5	0.3628	0.1389	-0.3198	
-0.936228	-0.357338	0.027938	4.13	4.69	4.34	0.3683	0.1506	-0.3301	
-0.947574	-0.365878	0.03477	7.28	3.78	4.2	0.354	0.1416	-0.3336	
-0.950502	-0.36173	0.036478	9.87	5.67	3.85	0.3669	0.1494	-0.324	
-0.937448	-0.365268	0.035258	10.57	7	3.57	0.3641	0.1479	-0.3241	
-0.94184	-0.348798	0.015006	9.59	6.72	3.5	0.3597	0.1462	-0.3303	
-0.943426	-0.335256	0.025254	7.91	5.6	3.99	0.3741	0.1554	-0.3237	
-0.940498	-0.339404	0.014152	7.42	5.6	5.32	0.3786	0.1383	-0.329	
-0.948306	-0.342454	0.000732	6.37	5.6	6.79	0.3757	0.14	-0.3258	
-0.944402	-0.368684	0.015738	3.64	7.14	7.63	0.3699	0.1466	-0.3149	
-0.946354	-0.376004	0.003782	3.71	7.07	8.61	0.3715	0.1309	-0.3262	
-0.945012	-0.387472	0.014762	2.45	6.65	9.17	0.3671	0.1434	-0.3196	
-0.935374	-0.38674	0.004392	1.4	5.88	7.7	0.3684	0.1496	-0.3178	
-0.945622	-0.360022	0.00427	0.98	4.55	7.91	0.3729	0.1405	-0.3151	
-0.955504	-0.351116	-0.008174	-0.77	-0.7	8.4	0.3686	0.1376	-0.3137	
-0.94977	-0.344528	0.021716	-6.23	-0.98	7.42	0.3687	0.1281	-0.3218	
-0.930372	-0.350872	0.025132	-7.91	-0.14	9.66	0.3817	0.1343	-0.3138	
-0.930006	-0.352336	0.02989	-8.47	1.33	10.78	0.3758	0.1357	-0.3184	
-0.942206	-0.351604	0.012444	-7.28	2.17	10.71	0.376	0.1282	-0.3156	
-0.956846	-0.348676	0.01586	-9.03	-0.56	10.92	0.3745	0.1347	-0.3061	
-0.968558	-0.341478	0.008052	-9.73	-1.47	10.85	0.3804	0.1225	-0.3051	
-0.9699	-0.327082	0.006222	-10.22	-1.82	10.36	0.3788	0.1298	-0.314	
-0.958432	-0.318176	0.00976	-10.92	-2.31	9.73	0.3715	0.1375	-0.3137	
-0.953918	-0.317322	-0.009516	-8.19	-2.45	8.89	0.3804	0.1207	-0.3113	
-0.955382	-0.313662	-0.003904	-9.45	-3.85	8.54	0.3817	0.1296	-0.317	
-0.967094	-0.30134	0.002318	-8.61	-3.15	9.31	0.3674	0.1159	-0.3223	
-0.973926	-0.28609	-0.002562	-8.96	-3.43	10.15	0.3804	0.1252	-0.3142	
-0.968558	-0.284382	0.008296	-10.08	-3.36	9.45	0.386	0.1342	-0.3138	
-0.96258	-0.285358	-0.008052	-8.19	-6.02	9.38	0.3803	0.1277	-0.3263	
-0.97112	-0.279502	0.004148	-9.45	-2.59	10.92	0.3775	0.122	-0.3189	
-0.97478	-0.284748	0.01342	-11.13	-3.64	9.87	0.3731	0.1266	-0.3187	
-0.984906	-0.265472	0.0183	-11.9	-5.04	10.71	0.3775	0.1219	-0.3204	
-0.977098	-0.262666	0.014762	-14.56	-7.42	8.4	0.3775	0.1206	-0.3144	
-0.976122	-0.271328	0.018544	-13.09	-7.07	9.1	0.3832	0.1232	-0.325	
-0.976488	-0.278282	0.019886	-12.39	-7.07	7.63	0.3848	0.1175	-0.3144	
-0.98149	-0.298168	0.025132	-11.48	-4.9	8.05	0.3847	0.1204	-0.3174	
-0.98454	-0.292922	0.01952	-9.03	-0.49	11.13	0.3833	0.1219	-0.3173	
-0.974902	-0.274256	-0.010248	-5.6	0.07	13.09	0.3819	0.1157	-0.3207	
-0.98881	-0.251442	-0.003294	-9.66	1.19	11.69	0.3745	0.1296	-0.3186	
-0.973804	-0.268766	0.019642	-13.65	1.82	13.09	0.382	0.1114	-0.3132	
-0.953552	-0.293532	0.00549	-7.63	2.31	17.43	0.3833	0.1203	-0.3205	
-0.972218	-0.282552	0.007442	-2.38	6.3	19.32	0.3832	0.1266	-0.3141	
-0.982832	-0.24156	0.006222	-4.55	2.45	22.75	0.3791	0.1083	-0.3179	
-0.993202	-0.222284	0.010248	-2.24	6.51	18.69	0.3876	0.1187	-0.3205	
-0.988566	-0.213012	0.0061	-4.41	6.58	19.39	0.382	0.1082	-0.3179	
-0.985028	-0.215452	0.00061	-6.23	5.04	17.85	0.3762	0.1161	-0.313	
-0.993202	-0.202764	-0.00488	-4.27	4.48	16.03	0.3806	0.1085	-0.3118	
-1.006622	-0.19764	-0.008417999	-4.2	5.18	16.17	0.3878	0.1067	-0.3164	
-1.009794	-0.184708	-0.010004	-6.44	3.5	15.68	0.3851	0.0944	-0.32	
-1.000644	-0.191662	-0.005978	-7.21	6.79	15.89	0.3895	0.0929	-0.3169	
-0.989908	-0.190808	-0.008905999	-5.53	6.93	17.15	0.3893	0.1037	-0.3134	
-0.985394	-0.183488	-0.021838	-5.11	5.81	16.03	0.3896	0.0888	-0.3048	
-1.000766	-0.17751	-0.016226	-4.27	5.95	16.03	0.3867	0.08859999	-0.3095	
-0.99674	-0.165432	-0.016226	-6.86	6.58	14.28	0.3925	0.0821	-0.3174	
-1.002962	-0.175558	-0.03904	-7.63	6.44	15.82	0.3955	0.0809	-0.3082	
-1.004182	-0.169702	-0.031476	-8.75	6.37	15.05	0.3955	0.08419999	-0.3035	
-1.002108	-0.181292	-0.010004	-7.77	6.37	19.39	0.4028	0.0781	-0.2991	
-1.012356	-0.166408	-0.036356	-6.65	8.82	18.55	0.3941	0.07979999	-0.299	
-1.00833	-0.112362	-0.041724	-8.26	8.75	18.55	0.4029	0.0718	-0.3039	
-0.997838	-0.12505	-0.043554	-8.82	10.15	20.16	0.3984	0.0795	-0.3052	
-0.99674	-0.122366	-0.040992	-8.33	9.66	17.99	0.4056	0.0793	-0.3082	
-1.00528	-0.12139	-0.045506	-7.21	8.61	17.01	0.3943	0.0709	-0.2917	
-1.001498	-0.116266	-0.038308	-3.57	9.45	18.9	0.4072	0.0703	-0.304	
-1.000888	-0.109922	-0.045018	-5.81	10.08	16.66	0.3971	0.0743	-0.2839	
-1.010526	-0.121512	-0.059536	-4.27	7.35	19.11	0.4044	0.0661	-0.2934	
-1.01992	-0.125416	-0.069906	-4.55	8.33	16.38	0.4031	0.0619	-0.2859	
-1.016626	-0.143106	-0.061366	-0.49	6.37	19.18	0.4044	0.0695	-0.2856	
-1.035536	-0.100162	-0.058682	-1.68	5.6	17.36	0.4131	0.0662	-0.2888	
-1.007232	-0.095282	-0.065026	-1.12	3.5	20.23	0.3974	0.0541	-0.2924	
-1.00162	-0.079666	-0.066734	-1.4	4.41	16.73	0.4062	0.0515	-0.2771	
-1.00345	-0.0671	-0.071736	-0.7	3.08	15.96	0.4075	0.0544	-0.2816	
-1.001864	-0.052948	-0.07991	-2.24	2.1	12.6	0.4062	0.0532	-0.2725	
-1.000156	-0.048678	-0.06832	-2.38	2.8	12.25	0.4063	0.0408	-0.2776	
-1.0065	-0.029402	-0.085034	-3.01	2.66	9.24	0.409	0.0574	-0.2815	
-1.009428	-0.023546	-0.087474	-2.59	2.03	9.66	0.4091	0.0451	-0.2835	
-1.013698	-0.023546	-0.080398	-2.1	2.03	9.8	0.4134	0.0482	-0.2818	
-1.007964	-0.0244	-0.077348	-0.91	1.47	10.92	0.4093	0.0346	-0.2793	
-1.006988	-0.023912	-0.0732	-0.63	1.33	11.06	0.4135	0.042	-0.2836	
-1.010282	-0.03294	-0.073322	0.07	1.4	11.48	0.4106	0.0423	-0.2775	
-1.015894	-0.029036	-0.083204	1.05	2.1	11.83	0.4064	0.0365	-0.2716	
-1.017236	-0.008052	-0.077226	-0.28	1.4	10.43	0.4035	0.0313	-0.2872	
-1.013088	-0.015616	-0.084058	-2.03	0.14	9.52	0.4123	0.0236	-0.2859	
-1.004304	-0.012322	-0.083082	-1.82	0.14	9.17	0.4181	0.0219	-0.289	
-1.007476	-0.02196	-0.072346	-1.82	0.28	7.35	0.408	0.0253	-0.2843	
-1.008086	-0.01281	-0.072468	-1.54	-0.35	7	0.4049	0.0345	-0.2839	
-1.034194	-0.018666	-0.06527	-0.98	0.28	7.14	0.4109	0.0254	-0.2797	
-0.866688	0.04697	-0.084546	8.61	-6.51	18.69	0.4066	0.0239	-0.2798	
-0.97417	0.008905999	-0.098332	0.07	0.91	6.37	0.405	0.0284	-0.2842	
-1.048468	0.011712	-0.073322	0.28	-0.28	1.05	0.4081	0.0096	-0.2957	
-0.984052	0.03721	-0.07869	-2.45	0	4.55	0.4154	0.0117	-0.2787	
-1.012234	0.018544	-0.065636	-2.87	3.57	4.62	0.3979	0.0242	-0.2767	
-1.006744	0.01586	-0.057218	-1.68	3.08	2.59	0.4094	0.0239	-0.2798	
-1.021384	0.028548	-0.081618	-2.17	1.12	1.4	0.411	0.0192	-0.2815	
-1.016382	0.001952	-0.066856	-4.34	3.78	3.85	0.4094	0.0266	-0.2888	
-1.010038	-0.014396	-0.068442	0.56	3.99	3.99	0.4139	0.0164	-0.2754	
-1.011258	-0.013664	-0.078324	2.59	3.43	4.2	0.4022	0.0224	-0.2829	
-1.01443	-0.00488	-0.086986	2.66	2.45	5.04	0.4108	0.0283	-0.2842	
-1.00955	-0.008417999	-0.098454	2.94	2.24	5.53	0.4096	0.0114	-0.2864	
-1.01809	0.002074	-0.098942	2.52	1.4	3.71	0.4211	0.016	-0.2831	
-1.017114	0.015128	-0.095282	1.19	0.28	0.42	0.4037	0.0195	-0.2784	
-1.001254	-0.001586	-0.09577	-0.63	1.47	-0.07	0.4124	0.0192	-0.2815	
-0.995154	0	-0.08967	-2.52	1.4	-0.21	0.4139	0.0161	-0.2816	
-1.010648	0.008417999	-0.076006	-2.31	1.12	-1.26	0.4095	0.0177	-0.2815	
-1.005646	0.01891	-0.082106	-2.38	0.7	-1.54	0.4139	0.009699999	-0.291	
-1.00833	0.02135	-0.077714	-1.54	2.17	0.07	0.4109	0.0175	-0.2877	
-1.009672	0.021228	-0.0854	-0.91	1.68	0.7	0.4125	0.0149	-0.274	
-1.005646	0.020008	-0.086986	0.28	1.26	0.42	0.4038	0.0146	-0.2863	
-1.008086	0.016836	-0.080154	0.07	1.4	-0.56	0.4123	0.0221	-0.2844	
-1.005768	0.029402	-0.080764	-0.49	1.26	-1.68	0.408	0.0254	-0.2812	
-1.007964	0.0305	-0.083936	-0.77	2.38	-1.82	0.4038	0.0179	-0.2785	
-1.003328	0.026718	-0.085278	0.07	3.01	-0.42	0.4051	0.0224	-0.2814	
-1.003084	0.012688	-0.082716	0.14	3.85	0.91	0.4211	0.016	-0.2815	
-1.01931	0.014884	-0.086376	0.28	3.5	0.56	0.4137	0.0252	-0.2827	
-1.012478	0.0122	-0.092842	-0.21	2.73	-0.84	0.4095	0.0209	-0.2799	
-1.015406	0.001098	-0.092476	0.28	3.01	-0.28	0.4124	0.0207	-0.2829	
-1.012112	0.000976	-0.090524	0.14	2.73	-0.28	0.4124	0.0195	-0.2738	
-1.005768	0.00305	-0.10065	-0.42	2.38	-1.4	0.4137	0.0284	-0.2795	
-1.009794	-0.002318	-0.097356	0	2.38	-1.47	0.4138	0.0191	-0.283	
-1.012112	0.002562	-0.096868	1.47	2.45	-1.33	0.4109	0.0222	-0.2829	
-1.004548	0.000488	-0.10309	0.77	2.24	-1.96	0.408	0.0269	-0.2812	
-1.009672	-0.00244	-0.109068	2.66	1.89	-1.4	0.4196	0.0241	-0.272	
-1.012478	0.002318	-0.111752	2.1	1.61	-2.03	0.4168	0.0228	-0.266	
-1.012112	0.008784	-0.1037	0.98	1.33	-2.38	0.4096	0.018	-0.2739	
-1.012356	0.002318	-0.102968	0.14	1.47	-1.82	0.4124	0.0178	-0.28	
-1.0126	0.008784	-0.09821	-0.14	1.54	-1.61	0.4109	0.021	-0.2768	
-1.015772	-0.000732	-0.09747799	1.12	1.61	-0.63	0.4181	0.0221	-0.2844	
-1.009184	-0.00366	-0.101504	2.59	1.75	-1.12	0.4109	0.0208	-0.2799	
-1.01626	0.006588	-0.105652	2.24	1.54	-1.4	0.4109	0.0191	-0.2845	
-1.008452	0.004636	-0.103212	1.89	0.42	-1.89	0.4138	0.0274	-0.2658	
-1.010526	0.000366	-0.107238	2.59	0.28	-1.68	0.408	0.0271	-0.2766	
-1.001742	-0.007442	-0.100528	2.31	0.63	-2.1	0.4109	0.029	-0.2673	
-1.009184	0	-0.105164	2.1	0.56	-2.38	0.4023	0.0211	-0.2753	
-1.00284	0.005246	-0.108702	1.89	-0.35	-3.08	0.411	0.0195	-0.2738	
-1.004426	-0.003172	-0.109068	1.33	0.84	-3.64	0.411	0.0197	-0.2707	
-1.020774	-0.003294	-0.095648	0.42	2.59	-4.48	0.4211	0.0162	-0.2785	
-1.012112	-0.005734	-0.100772	-1.75	0.49	-4.62	0.4079	0.03	-0.2795	
-1.017114	-0.008784	-0.096624	-2.03	0.91	-5.25	0.4051	0.024	-0.2798	
-1.01626	-0.011102	-0.097722	-2.17	-0.63	-6.16	0.4167	0.021	-0.2737	
-1.006012	-0.024644	-0.101016	2.03	0.91	-7.28	0.4108	0.0267	-0.2858	
-1.007476	-0.026596	-0.105896	2.24	0	-9.66	0.4139	0.018	-0.2738	
-1.010038	-0.030256	-0.12383	2.31	-1.12	-11.2	0.4108	0.0317	-0.2748	
-1.018822	-0.020984	-0.120536	-0.56	-2.73	-11.97	0.398	0.0216	-0.2646	
-1.00284	-0.014152	-0.121024	-2.8	-4.27	-13.02	0.4037	0.0276	-0.2658	
-1.007354	-0.023546	-0.116266	-2.66	-4.97	-13.72	0.4251	0.0373	-0.2822	
-1.003572	-0.028914	-0.11529	-3.36	-5.81	-14.35	0.4137	0.0298	-0.2826	
-1.010038	-0.030988	-0.103944	-3.36	-5.11	-15.89	0.412	0.05	-0.2741	
-1.007354	-0.035136	-0.115412	-2.38	-5.81	-13.93	0.4092	0.0427	-0.2683	
-1.00833	-0.025254	-0.104066	-2.24	-5.67	-13.44	0.4105	0.0528	-0.2817	
-1.009672	-0.02745	-0.09516	-3.29	-4.55	-14	0.4078	0.0378	-0.2761	
-1.010404	-0.030622	-0.090646	-4.27	-6.16	-14.63	0.4062	0.0531	-0.2755	
-0.999668	-0.0366	-0.082594	-3.85	-6.86	-15.54	0.4134	0.0515	-0.2756	
-1.001254	-0.04575	-0.076616	-4.62	-6.93	-16.17	0.4104	0.056	-0.2785	
-0.996862	-0.05551	-0.083082	-4.06	-6.44	-17.85	0.4046	0.0543	-0.2847	
-1.006744	-0.078812	-0.083814	-2.31	-7.28	-18.62	0.4089	0.0638	-0.2735	
-1.01199	-0.091256	-0.089792	-1.61	-7.14	-17.99	0.4089	0.0638	-0.2735	
-1.004304	-0.096624	-0.07905599	0.14	-9.1	-15.82	0.4132	0.0586	-0.2891	
-0.995642	-0.095282	-0.070516	0.56	-8.12	-14	0.4073	0.0679	-0.2872	
-0.985394	-0.088938	-0.068686	0.49	-8.54	-13.93	0.3988	0.0639	-0.2751	
-0.994666	-0.08686399	-0.068198	0.49	-7.98	-17.08	0.3957	0.0692	-0.2964	
-1.016016	-0.104798	-0.068442	1.4	-7.98	-19.25	0.4071	0.0797	-0.2975	
-1.009184	-0.113948	-0.0793	2.17	-9.8	-19.67	0.4085	0.0828	-0.2943	
-1.020042	-0.127856	-0.05673	3.43	-10.01	-19.53	0.3985	0.0786	-0.2899	
-1.024434	-0.150182	-0.050752	5.11	-10.64	-17.5	0.4013	0.0847	-0.2881	
-1.004182	-0.144082	-0.036722	3.57	-9.8	-18.27	0.3955	0.0813	-0.299	
-0.999668	-0.140666	-0.037942	2.17	-7.56	-15.4	0.391	0.0922	-0.2955	
-0.983442	-0.14396	-0.055388	-2.1	-8.4	-15.68	0.4012	0.0903	-0.3001	
-0.999302	-0.152866	-0.05978	-4.48	-9.1	-17.01	0.388	0.0998	-0.2967	
-1.006988	-0.186904	-0.042212	-2.1	-8.4	-16.03	0.4024	0.1039	-0.3026	
-0.995764	-0.21167	-0.02684	1.75	-7.07	-14.21	0.388	0.1043	-0.2996	
-0.986492	-0.225334	-0.003416	2.24	-5.74	-13.09	0.3923	0.1023	-0.3104	
-0.993202	-0.225334	-0.012078	4.9	-7.14	-12.18	0.3836	0.1012	-0.3028	
-1.001742	-0.229116	-0.024766	3.85	-6.09	-16.8	0.3966	0.1024	-0.3043	
-1.021384	-0.208498	-0.022692	2.45	-6.72	-17.36	0.3763	0.1071	-0.3088	
-0.996984	-0.224236	-0.004148	4.2	-4.2	-17.43	0.3891	0.1175	-0.3129	
-0.988078	-0.197762	-0.008052	0.98	-6.16	-14.42	0.3892	0.1114	-0.3116	
-0.975146	-0.19825	-0.008417999	0.77	-5.6	-16.31	0.3878	0.1129	-0.3131	
-0.989542	-0.21167	-0.010614	4.69	-2.94	-16.52	0.3819	0.1176	-0.3129	
-0.998814	-0.221186	0.00305	6.02	-3.08	-12.95	0.3863	0.1158	-0.3176	
-0.99308	-0.229238	-0.003294	10.85	-0.42	-7.14	0.3892	0.1142	-0.3192	
-0.967216	-0.215818	-0.002928	4.97	2.59	-10.01	0.392	0.1192	-0.3067	
-0.96868	-0.20862	-0.042456	4.48	0.63	-9.1	0.3775	0.1206	-0.3144	
-0.981978	-0.240096	-0.017934	-0.42	1.26	-13.79	0.3746	0.1239	-0.3096	
-0.988322	-0.265106	-0.004148	4.9	1.33	-13.37	0.3862	0.1206	-0.3112	
-0.974536	-0.28304	-0.01342	3.85	2.1	-13.86	0.389	0.1251	-0.3126	
-0.960872	-0.274866	0.007929999	9.87	4.69	-13.65	0.3819	0.1224	-0.3066	
-0.973926	-0.263642	-0.000976	10.78	0.56	-14.84	0.3775	0.1286	-0.3064	
-0.986736	-0.24827	0.001342	8.61	0.56	-14.7	0.3789	0.1269	-0.3095	
-0.984662	-0.249368	-0.000732	9.73	1.19	-17.22	0.3819	0.1225	-0.3051	
-0.995154	-0.232166	-0.006588	10.15	1.54	-17.22	0.3788	0.136	-0.3107	
-0.983442	-0.240096	-0.026596	11.48	-0.91	-16.94	0.3747	0.121	-0.3067	
-0.988322	-0.282308	-0.008296	10.57	0.63	-15.54	0.3818	0.1238	-0.3096	
-0.957822	-0.251808	-0.00061	17.85	3.22	-15.89	0.3774	0.1268	-0.3126	
-0.96929	-0.276696	-0.010614	10.08	-3.15	-9.24	0.3788	0.1281	-0.3186	
-0.97661	-0.276696	-0.018056	11.13	-2.24	-12.53	0.3802	0.1376	-0.3091	
-0.980392	-0.282918	-0.002806	6.02	0	-13.93	0.3745	0.1281	-0.3202	
-0.972096	-0.313784	-0.023058	8.96	1.26	-12.46	0.3644	0.1316	-0.3109	
-0.965142	-0.300852	-0.010492	7.14	3.64	-16.38	0.3787	0.1374	-0.3137	
-0.956724	-0.33672	-0.009638	9.87	0.91	-11.34	0.3787	0.1406	-0.3089	
-0.959408	-0.322568	0.003904	6.44	2.24	-14.98	0.3799	0.1538	-0.3237	
-0.960994	-0.314882	-0.026718	7.77	-0.28	-11.97	0.38	0.148	-0.3148	
-0.961116	-0.319152	0.001586	4.06	-1.68	-12.46	0.3756	0.1544	-0.3099	
-0.96624	-0.319152	-0.016958	6.51	-4.13	-12.39	0.3627	0.1466	-0.3195	
-0.965386	-0.339282	-0.009272	4.27	-4.76	-12.95	0.3626	0.1513	-0.3147	
-0.951966	-0.338184	0.001342	5.46	-3.64	-12.32	0.3741	0.1586	-0.319	
-0.958554	-0.336354	0.023302	3.22	-5.81	-10.99	0.3686	0.1423	-0.3105	
-0.940864	-0.374784	0.026352	4.69	-2.38	-11.55	0.3668	0.1604	-0.3143	
-0.926834	-0.366976	-0.015372	8.4	-1.54	-11.2	0.3683	0.1524	-0.3239	
-0.95648	-0.349408	0.022204	6.51	-3.92	-12.67	0.3684	0.1513	-0.3147	
-0.963068	-0.354288	0.00732	5.11	-4.13	-12.39	0.3684	0.151	-0.3208	
-0.946232	-0.36783	0.01342	6.51	-3.71	-12.32	0.3698	0.1528	-0.3146	
-0.92049	-0.359778	0.033184	7.91	-2.52	-15.19	0.3553	0.1589	-0.3191	
-0.95099	-0.35563	0.014152	6.3	-7.49	-11.69	0.3639	0.1603	-0.319	
-0.953674	-0.35197	0.01159	5.88	-4.9	-13.09	0.3596	0.1621	-0.3128	
-0.936106	-0.375272	0.027328	4.2	-4.34	-12.46	0.361	0.1617	-0.3235	
-0.955626	-0.36112	0.014762	3.92	-4.48	-11.34	0.364	0.1543	-0.3177	
-0.935984	-0.356972	0.018178	4.34	-1.82	-12.39	0.3595	0.1663	-0.3233	
-0.942694	-0.36844	0.029036	5.25	-1.47	-10.99	0.3625	0.157	-0.3252	
-0.934154	-0.385398	0.031842	2.73	-4.34	-11.76	0.3609	0.1695	-0.3186	
-0.932812	-0.4087	0.015616	3.15	-2.87	-10.85	0.3594	0.1692	-0.3278	
-0.920978	-0.416508	0.030744	5.39	-1.12	-10.57	0.3509	0.1634	-0.3235	
-0.922076	-0.399062	0.031598	5.32	-2.8	-10.5	0.3523	0.1682	-0.3172	
-0.936472	-0.390156	0.034404	3.85	-3.08	-11.27	0.3566	0.1615	-0.3297	
-0.932324	-0.412238	0.042212	2.94	-2.45	-9.38	0.3551	0.1675	-0.3325	
-0.928298	-0.40931	0.04331	3.57	-2.52	-8.26	0.3595	0.1614	-0.3312	
-0.924638	-0.421998	0.031232	3.08	-2.52	-8.54	0.3507	0.1705	-0.3355	
-0.92842	-0.405406	0.029524	1.26	-3.64	-7.98	0.3448	0.1797	-0.3367	
-0.921466	-0.413946	0.048556	2.17	-3.64	-9.03	0.3462	0.1845	-0.3319	
-0.903044	-0.419558	0.05124	4.76	-1.19	-5.95	0.3478	0.1755	-0.3261	
-0.889868	-0.432246	0.048068	5.25	-0.07	-5.6	0.352	0.1795	-0.3382	
-0.89121	-0.436028	0.05429	4.83	3.01	-5.39	0.355	0.1689	-0.3371	
-0.907558	-0.438834	0.056852	4.9	2.66	-5.67	0.3462	0.1862	-0.3272	
-0.919514	-0.442982	0.046116	4.97	0.56	-5.95	0.3476	0.1811	-0.3381	
-0.908168	-0.443592	0.057096	3.78	-2.1	-5.88	0.3492	0.1751	-0.3353	
-0.890478	-0.435906	0.059658	3.36	-4.55	-4.97	0.349	0.1791	-0.3505	
-0.886574	-0.432612	0.05917	1.05	-4.9	-5.25	0.3504	0.1886	-0.3409	
-0.890844	-0.43493	0.065026	0.35	-4.2	-5.25	0.3433	0.1811	-0.3412	
-0.901214	-0.436028	0.059414	-1.26	-3.15	-6.44	0.3446	0.1886	-0.3424	
-0.903532	-0.447984	0.045262	0.77	-2.59	-4.48	0.3405	0.1751	-0.3399	
-0.90829	-0.460428	0.042212	1.19	-2.87	-5.6	0.3405	0.1783	-0.3368	
-0.912072	-0.45201	0.066612	1.12	-1.54	-6.37	0.3446	0.1855	-0.3456	
-0.901214	-0.43676	0.063806	1.61	-2.8	-5.88	0.352	0.1828	-0.3319	
-0.911706	-0.439566	0.063074	1.4	-1.54	-5.11	0.3417	0.1889	-0.3379	
-0.92659	-0.43005	0.054778	0.49	-0.84	-4.41	0.339	0.1812	-0.3397	
-0.91195	-0.4392	0.059536	0.07	-0.77	-3.85	0.3405	0.1766	-0.3399	
-0.90585	-0.438102	0.050508	-0.35	-0.84	-3.71	0.3462	0.181	-0.3427	
-0.904996	-0.454694	0.058072	-0.42	-0.84	-3.01	0.339	0.1783	-0.3368	
-0.9028	-0.458232	0.047824	0.56	0	-2.52	0.3461	0.184	-0.3442	
-0.907436	-0.459452	0.046726	1.33	1.75	-1.96	0.3403	0.1904	-0.3393	
-0.896578	-0.45445	0.050386	1.61	0.35	-1.61	0.3317	0.1858	-0.3426	
-0.899384	-0.45689	0.059536	2.1	-0.42	-1.75	0.3374	0.1858	-0.3411	
-0.891454	-0.462014	0.062098	2.59	0.07	-2.8	0.3433	0.1811	-0.3397	
-0.881694	-0.461892	0.060878	0.42	0.35	-4.34	0.3446	0.1885	-0.3455	
-0.900726	-0.461282	0.063928	1.82	0.14	-0.91	0.349	0.1858	-0.3349	
-0.890722	-0.474092	0.067954	0.91	-0.98	-3.43	0.3374	0.1888	-0.3409	
-0.90036	-0.459696	0.066612	0.84	0	-3.36	0.3417	0.1903	-0.3393	
-0.897432	-0.453596	0.065148	1.47	-1.61	-2.17	0.3475	0.1903	-0.3378	
-0.895846	-0.455914	0.07198	3.22	-3.36	-0.21	0.336	0.1924	-0.3285	
-0.876814	-0.460428	0.061366	0.28	-3.01	-1.26	0.346	0.1916	-0.3439	
-0.88694	-0.460428	0.074908	1.33	-1.05	-0.21	0.3404	0.1827	-0.3412	
-0.898896	-0.462136	0.068686	0.63	0.14	-0.42	0.339	0.1794	-0.3459	
-0.90036	-0.45506	0.073322	-0.21	0.77	-0.07	0.3477	0.1813	-0.3335	
-0.902922	-0.453352	0.066246	-0.14	0.49	-0.14	0.3388	0.1951	-0.3361	
-0.892186	-0.457744	0.06344	-0.42	0.28	-0.49	0.3373	0.1901	-0.347	
-0.889258	-0.462258	0.068564	0.21	1.19	0.77	0.3375	0.1843	-0.3396	
-0.897188	-0.445422	0.05978	0.35	0.49	1.19	0.3475	0.1871	-0.3425	
-0.895358	-0.460428	0.05917	-0.56	1.19	1.54	0.3302	0.1841	-0.3458	
-0.90341	-0.467626	0.055998	-1.05	1.26	2.31	0.3402	0.1934	-0.3392	
-0.90219	-0.467504	0.053314	-0.21	2.03	2.31	0.3401	0.1996	-0.3374	
-0.89365	-0.462258	0.056486	1.12	1.54	2.66	0.3448	0.1812	-0.3366	
-0.891332	-0.45933	0.059414	0.56	0.98	1.96	0.3432	0.1853	-0.3503	
-0.902434	-0.456646	0.065758	0.35	1.4	1.4	0.3489	0.1884	-0.3455	
-0.90158	-0.457744	0.063928	0.21	2.59	1.4	0.3476	0.184	-0.3426	
-0.897676	-0.447496	0.061976	0	2.38	0.84	0.3374	0.1837	-0.3534	
-0.901092	-0.444446	0.057828	-0.49	1.19	0.21	0.3519	0.184	-0.3411	
-0.902678	-0.434564	0.055754	-1.05	0.63	-0.21	0.3447	0.1855	-0.3441	
-0.903166	-0.441396	0.05673	-2.24	0.49	-0.42	0.3504	0.1871	-0.3394	
-0.90524	-0.455304	0.060512	-2.52	1.05	-0.07	0.3432	0.1857	-0.3395	
-0.903776	-0.45384	0.051118	-1.96	0.91	-0.35	0.3375	0.1859	-0.3365	
-0.90951	-0.450546	0.050386	-1.33	1.33	-0.28	0.3476	0.1844	-0.3334	
-0.911218	-0.442738	0.04941	-0.91	0.21	-0.28	0.3404	0.1828	-0.3366	
-0.9089	-0.450058	0.047092	-0.77	0.35	0.14	0.3433	0.1825	-0.3427	
-0.913658	-0.444324	0.049898	-0.63	0.49	0.42	0.3417	0.1889	-0.3379	
-0.91012	-0.440908	0.044408	-0.21	0.7	1.12	0.3403	0.1886	-0.344	
-0.902556	-0.45018	0.04453	0.14	0.63	1.26	0.3345	0.1857	-0.3426	
-0.90646	-0.448472	0.048678	-0.07	0.91	1.68	0.3375	0.1798	-0.3382	
-0.901092	-0.442616	0.046726	-0.21	0.98	1.75	0.3404	0.1828	-0.3381	
-0.898896	-0.45933	0.050752	-0.77	0.91	2.1	0.3448	0.1796	-0.3397	
-0.901946	-0.461038	0.052826	-0.7	1.12	1.89	0.3417	0.1889	-0.3379	
-0.889868	-0.46421	0.057828	-0.14	1.4	2.03	0.3389	0.1891	-0.3333	
-0.891454	-0.4575	0.058804	-0.42	1.47	1.89	0.3504	0.1884	-0.3455	
-0.893162	-0.45872	0.05917	-0.14	1.61	1.89	0.349	0.1907	-0.3285	
-0.904874	-0.448228	0.058804	-0.56	0.91	2.17	0.3432	0.1841	-0.3426	
-0.902068	-0.445178	0.054778	-0.49	1.05	2.17	0.3447	0.188	-0.321	
-0.90768	-0.453718	0.061244	-0.07	0.84	2.66	0.3388	0.1884	-0.3517	
-0.904752	-0.445666	0.05856	0.63	1.61	2.31	0.3433	0.1764	-0.3429	
-0.899872	-0.440176	0.05307	1.47	2.1	3.08	0.3462	0.1779	-0.3429	
-0.906948	-0.423462	0.044408	0.77	2.45	3.15	0.3404	0.1776	-0.3521	
-0.912682	-0.435296	0.04636	0.63	2.66	3.85	0.3417	0.1854	-0.3472	
-0.91012	-0.426634	0.04636	0.49	1.68	3.85	0.3447	0.1826	-0.3412	
-0.912316	-0.425902	0.04026	-0.63	3.08	5.25	0.3449	0.1738	-0.3323	
-0.904996	-0.4392	0.04087	-0.56	4.55	6.44	0.3463	0.1767	-0.3353	
-0.923052	-0.43432	0.04331	-3.71	3.08	2.94	0.3477	0.1752	-0.3338	
-0.907802	-0.431636	0.045262	-0.98	6.44	5.46	0.3477	0.1796	-0.3382	
-0.918172	-0.432246	0.043676	1.54	3.01	8.12	0.3446	0.1924	-0.3239	
-0.911584	-0.425536	0.039772	3.92	5.39	8.19	0.3537	0.1677	-0.3279	
-0.910364	-0.440786	0.052582	6.23	5.46	8.47	0.3492	0.1735	-0.3384	
-0.910974	-0.44164	0.04392	8.54	5.46	7.7	0.3536	0.1656	-0.3433	
-0.913048	-0.433832	0.04148	8.61	4.34	7.91	0.3449	0.1736	-0.3369	
-0.914634	-0.416996	0.037942	7.56	3.08	7.14	0.3579	0.1706	-0.3308	
-0.913536	-0.410164	0.035746	7	3.29	8.4	0.3608	0.1707	-0.3278	
-0.91134	-0.408456	0.048678	5.46	4.2	10.08	0.3565	0.1691	-0.3309	
-0.910242	-0.416874	0.022692	6.72	6.51	11.55	0.3623	0.1708	-0.3247	
-0.926102	-0.434564	0.02379	2.73	6.93	11.62	0.3551	0.1711	-0.3201	
-0.92781	-0.431514	0.017812	0.63	4.41	12.67	0.3639	0.1614	-0.3296	
-0.91195	-0.41236	0.02379	-2.8	4.06	14.56	0.3727	0.1473	-0.3348	
-0.907924	-0.39406	0.03965	-2.94	2.66	14.07	0.361	0.1617	-0.3235	
-0.920002	-0.387228	0.01647	-1.61	5.6	16.24	0.3625	0.1585	-0.3252	
-0.934032	-0.391498	0.02135	-3.36	5.25	13.23	0.3714	0.1435	-0.3165	
-0.938058	-0.375028	0.025742	-5.6	3.5	14.35	0.3626	0.151	-0.3239	
-0.93452	-0.374418	0.025864	-7.63	1.12	16.31	0.3611	0.1493	-0.3286	
-0.932934	-0.390156	0.027572	-10.22	0.84	14.98	0.3743	0.1418	-0.3212	
-0.935862	-0.3782	0.030134	-10.29	2.87	15.4	0.3713	0.1461	-0.3272	
-0.933056	-0.371124	0.023912	-10.22	0.91	15.82	0.357	0.1405	-0.3198	
-0.927566	-0.36783	0.04575	-11.06	1.33	16.8	0.367	0.1433	-0.3242	
-0.927078	-0.37271	0.014152	-10.43	-0.42	17.01	0.3742	0.148	-0.3179	
-0.94062	-0.380152	0.027572	-10.92	1.54	15.19	0.3743	0.1418	-0.3196	
-0.967948	-0.359046	0.00427	-9.1	-0.42	16.8	0.3641	0.1414	-0.3335	
-0.960872	-0.361608	0.02379	-10.92	-0.21	16.24	0.3786	0.14	-0.3258	
-0.946476	-0.324886	0.010126	-12.74	-4.34	11.83	0.3758	0.1403	-0.3197	
-0.963434	-0.31537	0.007686	-15.19	-4.76	11.34	0.3787	0.1386	-0.3213	
-0.964898	-0.30317	-0.001586	-15.96	-5.18	11.76	0.3803	0.1279	-0.3217	
-0.96197	-0.300486	0.007929999	-15.75	-1.82	11.06	0.3672	0.1375	-0.3168	
-0.962336	-0.279624	-0.008052	-14.21	-1.33	13.09	0.3787	0.1339	-0.3245	
-0.967094	-0.299266	-0.008784	-13.02	-0.49	18.13	0.3729	0.1388	-0.3198	
-0.96441	-0.309636	-0.011712	-10.92	1.05	18.9	0.3731	0.1269	-0.3111	
-0.984906	-0.303292	-0.01037	-11.83	-4.69	19.6	0.386	0.1292	-0.3262	
-0.99186	-0.291702	0.020252	-15.26	-4.9	14.56	0.3773	0.1292	-0.3278	
-0.996008	-0.274134	0.013176	-14.7	-3.15	15.12	0.3745	0.1278	-0.3263	
-0.987712	-0.258518	0.02135	-14.98	-0.98	14.14	0.3761	0.1174	-0.3191	
-0.976488	-0.251442	0.015494	-16.59	1.12	12.67	0.3774	0.1263	-0.3249	
-0.96258	-0.252296	-0.01464	-16.94	0.28	14.84	0.3744	0.1357	-0.3199	
-0.96014	-0.24461	-0.00061	-13.44	6.79	16.66	0.3833	0.1205	-0.3159	
-0.976854	-0.258274	-0.0793	-7.98	3.5	19.74	0.3845	0.1324	-0.3215	
-0.986858	-0.26779	0.012566	-11.48	5.6	20.72	0.3862	0.1207	-0.3082	
-1.01138	-0.258396	-0.031476	-2.24	5.11	30.45	0.3846	0.1282	-0.314	
-1.010526	-0.19215	-0.014518	-6.44	5.04	22.61	0.3819	0.1191	-0.3129	
-0.998692	-0.201544	-0.019886	-1.82	5.11	25.9	0.382	0.1113	-0.3162	
-0.99064	-0.205204	0.001342	-2.66	9.1	21.42	0.3763	0.1058	-0.3042	
-0.986492	-0.188124	-0.007442	-3.64	7.35	18.55	0.3953	0.0946	-0.3107	
-0.992348	-0.153232	0.003538	-6.79	6.58	14.56	0.3806	0.1087	-0.3072	
-0.98637	-0.203374	0.007686	-7.07	7.14	15.12	0.3865	0.1027	-0.3012	
-0.98454	-0.191784	-0.003416	-9.03	6.93	12.88	0.3895	0.0932	-0.3077	
-0.98637	-0.174948	-0.025254	-6.37	7.49	12.95	0.3823	0.092	-0.3047	
-1.003572	-0.173606	-0.02745	-4.2	7.35	11.76	0.3838	0.0953	-0.2969	
-0.987834	-0.21655	-0.029402	-4.13	9.31	13.37	0.3981	0.09779999	-0.3044	
-0.99186	-0.180682	-0.03477	-2.66	11.69	11.48	0.3924	0.0931	-0.3092	
-0.998326	-0.167018	-0.04636	-3.43	8.82	12.46	0.3809	0.09339999	-0.3062	
-1.00345	-0.151768	-0.068076	-2.59	9.59	11.97	0.3968	0.0889	-0.2987	
-1.002352	-0.161772	-0.068686	-2.52	8.89	13.79	0.3954	0.08549999	-0.308	
-1.007354	-0.15372	-0.052338	-3.36	11.27	13.72	0.3985	0.0753	-0.2946	
-1.005402	-0.137494	-0.056242	-4.69	7.49	14.63	0.3969	0.0859	-0.2973	
-0.99735	-0.133712	-0.055998	-6.86	9.38	14.28	0.3982	0.0951	-0.2969	
-1.007232	-0.112362	-0.077714	-6.37	9.17	15.47	0.3985	0.08	-0.2929	
-1.00772	-0.134566	-0.082106	-3.99	11.48	15.33	0.4042	0.08	-0.2898	
-1.010892	-0.1403	-0.076738	-2.24	10.92	14.35	0.4042	0.0817	-0.2867	
-1.00467	-0.153354	-0.072956	0.35	8.96	15.75	0.3999	0.0801	-0.2883	
-1.012844	-0.139568	-0.080276	-1.4	8.12	13.02	0.397	0.0818	-0.2867	
-1.012966	-0.131272	-0.088084	-3.22	8.26	14.63	0.4101	0.0741	-0.2823	
-0.99064	-0.138714	-0.093818	-5.6	7.84	13.86	0.4116	0.0708	-0.2886	
-1.003694	-0.147986	-0.090524	-2.87	8.68	14.91	0.4132	0.0637	-0.2751	
-1.0065	-0.13908	-0.089426	-2.45	7	15.68	0.4029	0.0759	-0.2777	
-1.011746	-0.123098	-0.1037	-0.91	6.51	15.96	0.4131	0.0662	-0.2888	
-1.015406	-0.091012	-0.098942	-0.84	5.81	15.12	0.4087	0.0711	-0.2825	
-1.01687	-0.096624	-0.114802	-1.33	3.64	15.61	0.4103	0.067	-0.2703	
-1.017114	-0.075762	-0.117974	-3.43	3.64	12.95	0.4118	0.0637	-0.2751	
-1.175836	0.024522	-0.024156	24.22	-9.87	32.27	0.409	0.0609	-0.2706	
-0.707234	-0.052582	-0.199958	-2.59	-20.51	22.4	0.4062	0.0502	-0.271	
-1.146556	-0.060268	-0.055022	2.17	11.27	6.37	0.4178	0.0468	-0.2757	
-0.97539	-0.037088	-0.10858	0.14	-4.55	10.64	0.4018	0.053	-0.2786	
-1.007354	-0.022326	-0.107726	0.42	1.75	17.22	0.4106	0.0437	-0.2789	
-1.010526	-0.044652	-0.101138	-0.91	5.25	12.46	0.4076	0.0512	-0.2848	
-1.02358	-0.029402	-0.105164	1.47	3.5	12.95	0.4091	0.0469	-0.2758	
-1.017236	-0.03111	-0.10065	-1.05	4.27	15.33	0.418	0.0347	-0.2731	
-1.019676	-0.042334	-0.100528	-0.63	4.9	16.31	0.4121	0.0394	-0.2714	
-1.009672	-0.029036	-0.101504	0.56	1.33	13.16	0.4063	0.039	-0.2838	
-1.01687	-0.01952	-0.11163	2.17	-0.91	10.57	0.4223	0.0331	-0.2747	
-1.01138	-0.02745	-0.113338	0.28	-1.96	10.22	0.415	0.0359	-0.2823	
-1.005646	-0.017446	-0.108336	0.21	-1.54	8.68	0.4094	0.0255	-0.2782	
-1.006988	-0.008784	-0.10004	0.63	-1.61	8.47	0.4152	0.0222	-0.2813	
-1.00589	-0.005856	-0.101504	-1.54	-1.75	8.33	0.4023	0.0145	-0.2878	
-1.000888	0.004758	-0.108336	-2.87	-1.61	7.77	0.4108	0.0302	-0.2734	
-0.99613	0.00976	-0.104676	-1.33	-0.35	8.26	0.4123	0.0255	-0.2781	
-1.002108	0.00732	-0.078202	-0.28	0.7	8.26	0.4037	0.0208	-0.2845	
-1.00833	0.024278	-0.08113	1.68	0.07	8.26	0.4181	0.0238	-0.2782	
-1.006988	0.030744	-0.08357	0.84	-0.49	7.07	0.4123	0.0269	-0.2812	
-1.011746	0.020374	-0.08174	-0.28	-0.56	7.42	0.4109	0.0227	-0.2721	
-1.012844	0.0122	-0.081252	1.68	0.91	7.98	0.4154	0.0131	-0.2817	
-1.009306	0.009638	-0.091134	2.87	-0.21	7.98	0.414	0.0116	-0.2818	
-1.010892	0.020008	-0.084424	2.73	-0.21	6.72	0.4067	0.0115	-0.2849	
-1.001742	0.012932	-0.086986	2.66	-0.21	7.07	0.414	0.01	-0.2834	
-0.997472	0.014152	-0.091378	2.38	0.14	6.65	0.4139	0.0146	-0.2816	
-1.00772	0.028792	-0.099918	2.87	0.21	5.39	0.4025	-0.0006	-0.2869	
-1.004304	0.039406	-0.098332	3.15	-0.14	4.2	0.4111	0.0054	-0.2836	
-1.005158	0.035502	-0.095648	1.26	0.07	2.66	0.4097	0.0105	-0.2726	
-1.008086	0.033672	-0.09516	0.63	0.77	2.87	0.4198	0.0055	-0.2774	
-1.008086	0.043432	-0.094184	-1.12	0.84	2.17	0.4111	0.008599999	-0.2804	
-1.004792	0.037698	-0.096868	-1.89	1.05	1.61	0.4097	0.0104	-0.2742	
-1.006622	0.030134	-0.09821	-2.45	1.54	2.66	0.4067	0.0148	-0.2801	
-1.004426	0.044408	-0.098088	-2.24	1.89	2.8	0.4141	0.0009999999	-0.2776	
-1.004792	0.042944	-0.10004	-2.38	1.75	2.8	0.4213	0.0056	-0.2743	
-1.00406	0.050142	-0.09394	-2.24	2.24	2.31	0.4083	0.0025	-0.2822	
-1.004304	0.04148	-0.09394	-2.38	2.1	1.75	0.4126	0.0105	-0.2711	
-1.00589	0.036722	-0.089914	-2.1	3.22	2.31	0.4126	0.008599999	-0.2804	
-1.006378	0.0244	-0.095648	-2.38	3.01	2.03	0.4154	0.0149	-0.274	
-1.00894	0.030012	-0.10309	-1.82	3.29	2.87	0.3997	-0.0014	-0.2701	
-1.006988	0.040504	-0.097234	-3.08	4.06	2.38	0.411	0.0131	-0.2817	
-1.003572	0.031232	-0.093818	-2.52	3.99	2.38	0.4127	0.0062	-0.2636	
-1.006988	0.031598	-0.100162	-0.49	3.78	2.1	0.4083	0.0072	-0.2774	
-1.009306	0.040138	-0.101748	0.91	3.43	1.26	0.4068	0.0089	-0.2758	
-1.01748	0.02867	-0.102236	0.91	3.92	1.61	0.4112	0.0042	-0.2759	
-1.013576	0.036112	-0.113948	0.7	3.85	1.89	0.4214	-0.0069	-0.2855	
-1.01199	0.042334	-0.116754	1.26	2.73	1.82	0.4198	0.0102	-0.2741	
-1.00528	0.024522	-0.116144	0.98	2.94	2.24	0.4114	-0.0074	-0.2626	
-1.0004	0.035868	-0.12139	0.98	2.52	1.33	0.4098	0.0061	-0.2667	
-1.005524	0.031842	-0.12139	0.07	2.66	1.05	0.4198	0.0102	-0.2741	
-1.004914	0.040504	-0.120414	-0.91	2.38	0.56	0.4214	0.0028	-0.2683	
-1.007476	0.04636	-0.124074	-1.26	2.1	0.14	0.4112	0.0027	-0.276	
-1.00406	0.045872	-0.116632	0.14	2.1	0.35	0.4214	0.0027	-0.2713	
-1.006378	0.049288	-0.116632	-0.56	2.17	-0.91	0.4141	0.0045	-0.2682	
-1.003694	0.052216	-0.110654	-1.12	2.59	-0.7	0.4126	0.0089	-0.2727	
-1.004182	0.050874	-0.108702	-1.12	3.01	-0.7	0.4127	-0.0007	-0.2853	
-1.000766	0.058072	-0.106994	-1.05	3.71	-0.35	0.417	0.003	-0.2668	
-1.003816	0.059048	-0.10797	-0.7	3.29	-0.42	0.417	0.0108	-0.2603	
-1.007354	0.052094	-0.120536	-0.98	2.87	-0.07	0.4197	0.0228	-0.2644	
-1.005158	0.056242	-0.121634	-1.61	3.22	-0.49	0.4143	-0.0061	-0.2671	
-1.00711	0.048068	-0.118706	-1.4	3.29	-0.07	0.4142	0	-0.2684	
-1.003694	0.046848	-0.119804	-1.12	3.22	-0.42	0.4228	0.0059	-0.2681	
-1.00833	0.044408	-0.131028	0.49	3.36	-0.49	0.4142	0.0015	-0.2668	
-1.009062	0.047092	-0.123464	0.21	3.29	-0.63	0.4126	0.0123	-0.2649	
-1.014674	0.044408	-0.131394	0.56	2.73	-1.33	0.4171	0.0033	-0.2575	
-1.006866	0.03782	-0.131394	0.42	2.31	-1.26	0.4213	0.0061	-0.2635	
-1.010282	0.030744	-0.133468	0.77	2.59	-1.54	0.3996	0.0096	-0.2589	
-1.006256	0.038308	-0.141276	0.77	2.17	-1.47	0.4171	0.005	-0.2544	
-1.007476	0.034526	-0.135786	2.03	1.89	-1.26	0.4184	0.0094	-0.2588	
-1.006012	0.028304	-0.144082	3.08	2.1	-1.33	0.4156	0.0066	-0.2528	
-1.009672	0.049288	-0.13908	2.38	1.54	-2.38	0.4227	0.0107	-0.2618	
-1.007598	0.045018	-0.136518	1.75	0.7	-2.59	0.4169	0.0124	-0.2587	
-1.008208	0.040138	-0.134932	1.96	0.7	-2.45	0.4183	0.0169	-0.2616	
-1.006744	0.042212	-0.131394	1.89	0.49	-2.59	0.417	0.0093	-0.2604	
-1.006012	0.04087	-0.131272	0.56	0.35	-2.59	0.4098	0.005	-0.2575	
-1.002962	0.036112	-0.13847	-0.07	0.91	-2.45	0.4125	0.0186	-0.2585	
-0.999668	0.038796	-0.13481	-0.49	1.26	-3.08	0.4069	0.0112	-0.2542	
-1.002474	0.031964	-0.136884	1.4	0.91	-3.64	0.4227	0.012	-0.2664	
-1.014918	0.030988	-0.127856	1.61	0.49	-4.41	0.4185	0.0047	-0.2605	
-1.010282	0.027572	-0.13664	0.7	0	-5.11	0.4111	0.0156	-0.2571	
-1.008452	0.02318	-0.12932	0.63	1.4	-5.46	0.4184	0.0122	-0.2648	
-1.0126	0.028304	-0.133468	0.28	0.56	-5.88	0.4184	0.011	-0.2557	
-1.007354	0.013786	-0.135664	-0.49	0.07	-5.32	0.4212	0.0137	-0.2632	
-1.006988	0.012932	-0.13603	-0.42	0	-5.88	0.4198	0.0089	-0.2696	
-1.003572	0.002074	-0.14152	0.42	0.91	-7.84	0.4154	0.02	-0.2599	
-1.015406	0.007808	-0.146888	0.7	0.84	-8.19	0.4226	0.0214	-0.2614	
-1.010282	0.01098	-0.13725	-0.14	0.21	-8.26	0.4199	0.0093	-0.2588	
-1.017114	0.006222	-0.146522	-0.28	-0.7	-8.68	0.4169	0.0151	-0.2678	
-1.010648	0.004026	-0.127246	-2.24	-2.1	-8.89	0.43	0.0042	-0.2682	
-1.000034	-0.001464	-0.149084	-2.87	-2.8	-8.54	0.4198	0.017	-0.2585	
-1.009916	0.00549	-0.145302	-3.08	-4.06	-10.43	0.4138	0.0291	-0.2627	
-1.00894	-0.00305	-0.14274	-3.85	-5.25	-11.62	0.4066	0.023	-0.266	
-1.009428	-0.007198	-0.140544	-5.11	-5.53	-11.2	0.4226	0.0181	-0.2677	
-1.013454	-0.012322	-0.143228	-3.64	-4.62	-10.57	0.4137	0.0303	-0.2703	
-1.015406	-0.008174	-0.1342	-4.62	-6.16	-11.13	0.4152	0.0292	-0.2596	
-0.999058	-0.009881999	-0.125294	-6.44	-6.58	-12.04	0.4123	0.0319	-0.2702	
-1.002596	-0.020862	-0.126392	-6.72	-7.91	-11.69	0.4121	0.0421	-0.2805	
-1.004182	-0.01891	-0.124318	-5.11	-7	-13.02	0.4107	0.0414	-0.2622	
-1.008086	-0.02867	-0.132492	-4.9	-7.07	-14.77	0.4136	0.0392	-0.276	
-1.006988	-0.027328	-0.120658	-3.57	-8.4	-14.28	0.4194	0.0411	-0.2652	
-0.996984	-0.027694	-0.096258	-2.94	-8.47	-13.3	0.4091	0.0485	-0.2742	
-1.00101	-0.014762	-0.111508	-1.54	-9.38	-15.82	0.4163	0.0484	-0.2741	
-1.010282	-0.016348	-0.096014	-1.89	-9.52	-17.43	0.4048	0.0501	-0.2757	
-1.00467	-0.042334	-0.107482	-1.68	-9.52	-17.22	0.4133	0.0559	-0.28	
-1.0126	-0.043676	-0.08906	0.35	-8.05	-17.29	0.4147	0.0572	-0.2845	
-0.999058	-0.046604	-0.102114	1.12	-11.13	-15.82	0.4162	0.0556	-0.2846	
-0.98637	-0.041724	-0.090524	2.52	-11.76	-15.82	0.4103	0.0587	-0.2875	
-1.000766	-0.053314	-0.089426	4.06	-11.27	-17.64	0.409	0.0542	-0.2862	
