Sensor string: E
Serial number: 1970-01-0000
Firmware version: 2,015
Hardware version: 2,2
Calibration quality: 5
ax	ay	az	gx	gy	gz	mx	my	mz

-0.900848	0.087718	0.4453	-0.7	-0.28	-0.35	0.2731	0.016	-0.4647	Reference
-0.89792	0.08686399	0.445544	-0.56	-0.42	-0.35	0.2789	0.0073	-0.4661	
-0.896578	0.086986	0.446154	0	-0.42	-0.35	0.2672	0.016	-0.4709	
-0.8967	0.08723	0.445422	0.07	-0.56	-0.14	0.2761	0.0175	-0.4663	
-0.896578	0.085278	0.447374	-0.35	-0.56	-0.14	0.2671	0.0143	-0.46	
-0.896578	0.087962	0.449082	-0.07	-0.7	-0.14	0.2701	0.0159	-0.4647	
-0.895236	0.08723	0.449326	-0.21	-0.77	-0.28	0.2688	0.0217	-0.4601	
-0.895846	0.088694	0.45018	-0.07	-0.35	-0.28	0.2687	0.0172	-0.4585	
-0.89426	0.087962	0.45018	0.07	-0.42	-0.14	0.2626	0.0115	-0.4708	
-0.894504	0.084912	0.449692	-0.07	-0.21	-0.14	0.276	0.0117	-0.4662	
-0.8967	0.086742	0.44896	0.14	-0.14	-0.14	0.2718	0.0233	-0.4633	
-0.897066	0.086254	0.449448	0.35	-0.35	-0.14	0.2657	0.0145	-0.4693	
-0.897432	0.090158	0.448228	0.63	-0.28	0	0.276	0.0104	-0.4739	
-0.896578	0.090402	0.447984	0.49	-0.49	0	0.2759	0.0058	-0.4629	
-0.895724	0.09162199	0.449448	0.28	-0.49	0.07	0.2654	0.0028	-0.469	
-0.896212	0.09076799	0.448716	0	-0.35	-0.07	0.2804	0.0073	-0.4645	
-0.895358	0.088694	0.448716	0.07	-0.28	0	0.2715	0.0115	-0.463	
-0.896212	0.091012	0.448106	0.14	-0.21	-0.07	0.2672	0.0174	-0.4678	
-0.895846	0.09028	0.44896	-0.35	-0.14	-0.07	0.279	0.0117	-0.4631	
-0.895358	0.08662	0.448716	-0.7	0	-0.07	0.27	0.0088	-0.4738	
-0.89609	0.095648	0.449814	0.42	0	-0.14	0.2684	0.0013	-0.4644	
-0.893162	0.0915	0.447374	-1.19	0	0.14	0.2761	0.019	-0.4648	
-0.896334	0.08418	0.450058	-1.12	0	0.28	0.2673	0.0191	-0.4772	
-0.901214	0.083814	0.446398	-1.33	0.35	0.07	0.2656	0.01	-0.4645	
-0.896334	0.081496	0.450668	-0.77	0.14	0.14	0.2716	0.0131	-0.4662	
-0.893162	0.086254	0.451644	0.21	0.07	0.21	0.2835	0.0148	-0.4678	
-0.895602	0.09162199	0.452376	-0.56	0.21	0.28	0.273	0.0116	-0.4662	
-0.892918	0.08845	0.451644	-0.84	0.14	0.28	0.2761	0.0177	-0.4725	
-0.89121	0.08906	0.452254	-0.42	0.07	0.28	0.2595	0.0054	-0.4613	
-0.894016	0.088938	0.45018	-0.77	0.56	0.14	0.2702	0.0174	-0.4647	
-0.896334	0.086254	0.451766	-0.7	0.42	0	0.2748	0.0247	-0.4602	
-0.896578	0.084058	0.44835	-1.33	0.49	-0.07	0.2762	0.0206	-0.471	
-0.896456	0.085644	0.450058	-0.14	0.07	0	0.2702	0.0203	-0.4617	
-0.897066	0.085034	0.448228	-0.35	0.56	0.21	0.2732	0.0192	-0.4772	
-0.896578	0.088816	0.447984	0.07	0.49	0.21	0.2819	0.0117	-0.4631	
-0.898286	0.088206	0.44713	-0.56	0.56	0	0.2806	0.019	-0.4632	
-0.897554	0.08357	0.443226	-0.7	0.7	0.35	0.273	0.008599999	-0.4599	
-0.900604	0.087352	0.44408	-0.07	0.56	0.28	0.2791	0.0175	-0.4616	
-0.901458	0.086742	0.442982	-1.26	0.7	0.14	0.2685	0.0126	-0.4444	
-0.900482	0.086132	0.443836	-0.28	0.14	0.14	0.2835	0.0147	-0.4631	
-0.899384	0.089792	0.443348	0.07	0.21	0.21	0.273	0.0116	-0.4662	
-0.89792	0.087718	0.44347	-0.49	0.35	0.28	0.2671	0.0128	-0.4584	
-0.90036	0.08601	0.44286	-0.56	0.42	0.28	0.2775	0.0116	-0.4599	
-0.90036	0.086742	0.445544	-0.14	0.14	0.07	0.2792	0.0234	-0.4633	
-0.89792	0.089914	0.443836	-0.07	0	0	0.2642	0.0159	-0.4678	
-0.898408	0.088694	0.44469	-0.56	0.21	-0.14	0.2747	0.0218	-0.4617	
-0.899628	0.086986	0.443348	-0.49	0.28	-0.21	0.2746	0.0189	-0.4617	
-0.900604	0.086986	0.443226	-0.07	0.21	-0.21	0.2761	0.0161	-0.4663	
-0.900726	0.086742	0.44103	0	0.14	-0.21	0.2747	0.0233	-0.4649	
-0.901336	0.08723	0.440664	0.07	-0.07	-0.21	0.2672	0.0176	-0.4787	
-0.900726	0.086498	0.440176	-0.21	-0.21	-0.28	0.2759	0.0071	-0.4583	
-0.90158	0.086498	0.440298	-0.07	-0.28	-0.35	0.2688	0.0217	-0.4633	
-0.903288	0.085888	0.442494	0.35	-0.42	-0.28	0.2659	0.026	-0.4602	
-0.901824	0.086742	0.441152	0.28	-0.56	-0.14	0.2718	0.0234	-0.468	
-0.902678	0.085522	0.441518	0.21	-0.56	-0.14	0.2834	0.0132	-0.4615	
-0.900848	0.087596	0.440908	0.49	-0.7	0.07	0.2716	0.0146	-0.4693	
-0.90158	0.087596	0.440298	0.14	-0.7	0.07	0.2777	0.0234	-0.4633	
-0.89975	0.086132	0.440176	-0.21	-0.91	0.07	0.2687	0.0163	-0.4864	
-0.909144	0.086742	0.439444	0.14	-0.77	0.07	0.2702	0.0189	-0.4663	
-0.903654	0.09162199	0.438834	0.35	-1.4	-0.07	0.2778	0.0277	-0.4603	
-0.905118	0.087962	0.437614	-0.14	-1.4	-0.14	0.276	0.0117	-0.4677	
-0.909266	0.088572	0.437614	-0.7	-1.75	-0.14	0.2822	0.0247	-0.4525	
-0.900482	0.080154	0.440908	-0.35	-1.75	-0.28	0.2759	0.0098	-0.4475	
-0.899994	0.080398	0.4392	-0.35	-1.89	-0.21	0.2701	0.0145	-0.4662	
-0.906216	0.085156	0.438224	-0.21	-1.82	-0.14	0.2718	0.0247	-0.4618	
-0.903654	0.08662	0.44042	0.07	-2.24	0.28	0.276	0.0118	-0.4708	
-0.899506	0.08662	0.442494	0.14	-2.52	0.35	0.2733	0.0248	-0.4633	
-0.89548	0.087718	0.444568	0.14	-2.87	0.28	0.2762	0.0235	-0.4726	
-0.892796	0.090036	0.44591	0.28	-3.08	0.07	0.276	0.0117	-0.4646	
-0.902312	0.091988	0.441396	-0.14	-2.31	-0.28	0.2626	0.0085	-0.4645	
-0.913414	0.094428	0.440054	-0.35	-2.59	-0.21	0.2745	0.0101	-0.463	
-0.904874	0.092964	0.443104	-0.56	-3.36	-0.14	0.2627	0.0173	-0.4678	
-0.899506	0.086742	0.446032	-1.33	-3.5	-0.21	0.2671	0.0143	-0.4584	
-0.894992	0.089304	0.446032	-0.42	-3.99	-0.35	0.2732	0.0204	-0.4632	
-0.894504	0.08906	0.4453	-1.19	-4.27	-0.35	0.2701	0.0116	-0.4677	
-0.89548	0.07686	0.442494	-2.1	-3.92	-0.28	0.2746	0.016	-0.4647	
-0.908046	0.082838	0.437248	-0.14	-4.27	-0.35	0.267	0.01	-0.4646	
-0.917562	0.081252	0.435662	-1.4	-4.48	-0.28	0.2673	0.0207	-0.4881	
-0.910242	0.0854	0.43981	0.35	-5.74	-0.07	0.2658	0.0232	-0.4679	
-0.908168	0.092232	0.438468	-0.14	-6.86	0	0.261	0.0041	-0.4691	
-0.901458	0.089182	0.44652	-0.28	-7.98	-0.14	0.2659	0.0263	-0.4727	
-0.89426	0.08845	0.4514	-0.56	-8.47	-0.21	0.2627	0.0173	-0.4694	
-0.879864	0.084058	0.455304	-0.63	-9.03	-0.35	0.2554	0.0203	-0.4756	
-0.8906	0.082106	0.453596	-1.26	-8.68	-0.63	0.2657	0.0176	-0.4787	
-0.909754	0.08235	0.445422	-0.56	-8.75	-0.98	0.2643	0.0176	-0.4787	
-0.912926	0.088694	0.453108	0.35	-9.38	-1.19	0.2672	0.0173	-0.4632	
-0.912072	0.084546	0.454206	-1.12	-11.34	-1.12	0.2523	0.0129	-0.477	
-0.889868	0.084912	0.46421	0	-12.74	-0.98	0.2538	0.0131	-0.4832	
-0.876692	0.084668	0.465674	-0.84	-12.53	-1.05	0.2553	0.0145	-0.4786	
-0.879376	0.0854	0.465796	-1.61	-11.9	-0.98	0.257	0.0276	-0.4773	
-0.88816	0.08295999	0.464454	-2.59	-12.18	-0.84	0.2434	0.0157	-0.477	
-0.889014	0.077348	0.463844	-2.94	-13.16	-0.84	0.2553	0.0144	-0.4755	
-0.885842	0.080032	0.468236	-1.54	-14	-0.7	0.2553	0.0145	-0.4817	
-0.88633	0.077104	0.474336	-1.33	-14.63	-0.77	0.2538	0.016	-0.4848	
-0.891576	0.0793	0.462258	-2.24	-15.4	-0.91	0.2422	0.0261	-0.4866	
-0.894504	0.08113	0.459086	-0.28	-17.57	-0.7	0.2375	0.0169	-0.474	
-0.906704	0.09028	0.452132	-1.19	-17.78	-0.28	0.245	0.0218	-0.488	
-0.898408	0.09211	0.457256	-2.24	-18.76	0	0.233	0.0144	-0.4956	
-0.893528	0.093452	0.468968	-2.52	-22.12	-0.07	0.2362	0.0231	-0.4896	
-0.884134	0.09455	0.474214	-3.43	-25.41	-0.35	0.2288	0.0273	-0.4866	
-0.870592	0.08418	0.477752	-5.46	-27.3	-0.84	0.2214	0.0272	-0.4897	
-0.852414	0.083936	0.494832	-4.83	-29.68	-1.4	0.2257	0.0201	-0.4957	
-0.841922	0.076372	0.510204	-6.09	-30.24	-1.54	0.2121	0.0109	-0.4909	
-0.837164	0.073078	0.52094	-5.32	-31.08	-2.17	0.214	0.0286	-0.4943	
-0.857538	0.105896	0.513132	-5.11	-31.57	-3.36	0.199	0.0195	-0.4957	
-0.855464	0.090402	0.523624	-8.82	-35.28	-4.2	0.1974	0.0169	-0.5111	
-0.840336	0.076738	0.542168	-10.36	-36.54	-3.71	0.2035	0.0229	-0.5144	
-0.815814	0.073078	0.56486	-9.17	-38.71	-3.15	0.19	0.0167	-0.5096	
-0.784704	0.063074	0.58804	-9.17	-39.55	-3.01	0.18	0.0343	-0.5192	
-0.77104	0.052948	0.59536	-10.43	-39.48	-2.87	0.1739	0.0267	-0.5113	
-0.755302	0.04941	0.601704	-8.4	-40.88	-3.29	0.1723	0.0238	-0.5159	
-0.748592	0.048068	0.602802	-9.59	-39.76	-3.99	0.1752	0.0197	-0.5251	
-0.750666	0.04514	0.60573	-8.33	-42.35	-4.48	0.1504	0.0395	-0.5177	
-0.735294	0.043798	0.617442	-5.95	-42.7	-4.62	0.1532	0.0338	-0.5223	
-0.722118	0.045262	0.621834	-4.69	-46.13	-4.34	0.1369	0.0352	-0.5331	
-0.705404	0.05856	0.635132	-3.92	-48.86	-4.13	0.137	0.0396	-0.5332	
-0.697718	0.053558	0.639768	-6.65	-50.82	-4.13	0.1339	0.0336	-0.53	
-0.675636	0.042212	0.658556	-7	-52.43	-3.85	0.1265	0.0336	-0.5362	
-0.652456	0.032574	0.69052	-8.68	-52.57	-3.78	0.11	0.0244	-0.5344	
-0.642086	0.025986	0.689788	-9.17	-52.22	-3.92	0.1087	0.0346	-0.5331	
-0.640256	0.020984	0.714188	-7.7	-55.3	-4.2	0.0895	0.039	-0.5486	
-0.628178	0.00915	0.723704	-9.73	-55.02	-4.55	0.0866	0.0433	-0.5503	
-0.603046	-0.00305	0.74603	-10.92	-56.42	-5.25	0.0777	0.0459	-0.5426	
-0.580476	-0.000488	0.761158	-7.77	-56.84	-5.88	0.0747	0.0415	-0.544	
-0.556808	-0.001342	0.77592	-6.58	-54.88	-6.44	0.0613	0.0414	-0.5517	
-0.540704	-0.00732	0.781044	-6.65	-53.69	-6.65	0.0376	0.0424	-0.5502	
-0.533018	-0.013542	0.798612	-6.3	-52.08	-6.23	0.0391	0.0467	-0.5456	
-0.51057	-0.00671	0.81496	-3.5	-52.85	-5.53	0.0289	0.0511	-0.5581	
-0.485072	0.000488	0.812886	-2.94	-52.92	-5.6	0.0199	0.0494	-0.5549	
-0.473482	-0.001952	0.826672	-4.83	-53.41	-6.3	0.0184	0.0491	-0.541	
-0.43188	-0.003416	0.854366	-3.29	-55.44	-6.37	0.0127	0.0623	-0.5474	
-0.384178	-0.013908	0.87779	-1.89	-54.88	-6.16	0.0006	0.0519	-0.5487	
-0.371124	-0.019276	0.882426	-0.56	-51.59	-7.28	-0.0173	0.043	-0.5625	
-0.3721	-0.023424	0.88938	-2.24	-48.51	-7.84	-0.0157	0.0457	-0.5517	
-0.353678	-0.020252	0.91561	-1.26	-48.44	-7.42	-0.029	0.05	-0.558	
-0.321226	-0.026962	0.936716	-0.49	-47.81	-6.72	-0.0471	0.0379	-0.5577	
-0.306464	-0.036844	0.938424	0.84	-46.69	-7.14	-0.0425	0.0467	-0.5532	
-0.29463	-0.038918	0.927566	-0.35	-46.27	-7.63	-0.0559	0.0449	-0.5485	
-0.286578	-0.031476	0.939034	0.35	-46.06	-7.07	-0.0738	0.0415	-0.5437	
-0.260958	-0.025986	0.962946	1.61	-45.57	-5.95	-0.0707	0.0447	-0.5531	
-0.234728	-0.019764	0.964288	0.35	-43.89	-4.76	-0.0782	0.043	-0.5499	
-0.21167	-0.016592	0.962824	-0.63	-42.35	-3.71	-0.0946	0.0382	-0.5451	
-0.207644	-0.01952	0.970388	0.07	-40.81	-2.73	-0.0915	0.0455	-0.5437	
-0.19398	-0.03904	0.986736	-1.82	-38.08	-2.17	-0.0976	0.0398	-0.556	
-0.18178	-0.049532	1.003206	0.07	-35.7	-2.24	-0.105	0.0394	-0.542	
-0.165066	-0.04148	1.013454	-0.35	-32.34	-2.94	-0.1124	0.0422	-0.5452	
-0.160918	-0.03843	1.017602	-0.7	-34.86	-3.29	-0.1154	0.0434	-0.5343	
-0.148596	-0.0366	1.029802	-2.94	-29.61	-1.96	-0.1096	0.032	-0.5419	
-0.138958	-0.049166	1.035414	-2.17	-26.67	-1.4	-0.1302	0.0447	-0.5374	
-0.127856	-0.052094	1.040782	-1.89	-23.73	-1.82	-0.1316	0.0475	-0.5344	
-0.123098	-0.045018	1.039562	-0.84	-21.35	-2.17	-0.1392	0.0414	-0.5296	
-0.120048	-0.04636	1.036268	0.42	-19.39	-2.03	-0.1408	0.0327	-0.5356	
-0.121268	-0.049166	1.036634	1.05	-17.29	-1.26	-0.1454	0.0295	-0.5293	
-0.110532	-0.049044	1.040416	0.91	-14.77	-0.42	-0.1349	0.0329	-0.5387	
-0.101992	-0.044042	1.048956	1.89	-13.23	0	-0.1528	0.0298	-0.5495	
-0.089182	-0.038796	1.055178	2.17	-10.36	0.21	-0.1526	0.0369	-0.5372	
-0.081862	-0.039162	1.060302	1.12	-6.44	0.49	-0.1467	0.0369	-0.5341	
-0.086498	-0.044408	1.060424	2.24	-3.92	0.91	-0.1483	0.0326	-0.5387	
-0.083326	-0.038918	1.064938	2.8	-1.4	1.33	-0.1616	0.0322	-0.534	
-0.072468	-0.03477	1.068232	2.73	1.47	1.33	-0.151	0.0414	-0.542	
-0.07442	-0.037332	1.06811	3.36	4.27	1.61	-0.1437	0.04	-0.5373	
-0.074542	-0.03294	1.071282	3.92	6.51	1.96	-0.1469	0.0281	-0.5293	
-0.071492	-0.024278	1.076406	3.71	9.59	2.03	-0.1452	0.0355	-0.5357	
-0.065148	-0.021716	1.089094	2.8	12.6	1.68	-0.1347	0.0401	-0.5342	
-0.070272	-0.033062	1.095438	2.94	15.54	1.96	-0.1408	0.037	-0.531	
-0.066246	-0.035014	1.093974	3.22	18.2	1.82	-0.141	0.0253	-0.5339	
-0.061	-0.025986	1.077504	4.13	21.91	1.75	-0.1318	0.0374	-0.5419	
-0.063806	-0.017324	1.070184	4.34	27.3	1.68	-0.1349	0.0343	-0.5357	
-0.066734	-0.012566	1.056398	3.64	31.92	1.75	-0.1261	0.0257	-0.5355	
-0.081618	-0.01708	1.045662	3.85	36.61	1.89	-0.1274	0.0387	-0.5311	
-0.10126	-0.019276	1.043344	5.11	40.67	1.96	-0.1217	0.0231	-0.5479	
-0.118828	-0.015616	1.037122	5.53	44.17	1.47	-0.0993	0.0294	-0.548	
-0.129198	-0.010736	1.024312	5.81	47.46	1.19	-0.1035	0.041	-0.5498	
-0.152378	-0.019154	1.006866	5.81	50.05	1.4	-0.09779999	0.0295	-0.5527	
-0.171654	-0.009272	0.992714	7.21	52.64	2.03	-0.0888	0.034	-0.5513	
-0.179706	0.004026	0.988932	6.02	56.14	1.89	-0.0695	0.0315	-0.5513	
-0.194956	0.010736	0.97844	4.97	60.06	1.61	-0.0636	0.0301	-0.5481	
-0.235948	0.003172	0.950136	3.71	62.09	1.75	-0.0517	0.0318	-0.5513	
-0.25742	0.01281	0.929518	4.41	64.33	2.24	-0.0517	0.032	-0.5591	
-0.281576	0.01342	0.92293	2.8	68.32	2.03	-0.0442	0.0321	-0.556	
-0.310124	0.004392	0.911462	2.31	70.63	2.17	-0.0204	0.0339	-0.5483	
-0.33794	-0.005368	0.888404	2.24	71.75	3.08	-0.0101	0.0299	-0.5607	
-0.363804	-0.015982	0.870714	3.5	73.92	3.01	0.0045	0.0256	-0.5482	
-0.384056	-0.004148	0.845948	4.41	76.09	2.8	0.0092	0.0344	-0.5468	
-0.406992	-0.00671	0.813496	2.52	78.61	2.8	0.0255	0.0307	-0.5639	
-0.46421	-0.00915	0.778726	4.13	79.59	3.22	0.0357	0.0232	-0.5482	
-0.492392	0.007808	0.759084	7	80.57	3.78	0.0418	0.0279	-0.5561	
-0.51179	0.020008	0.730048	6.58	81.62	2.66	0.0582	0.0325	-0.5516	
-0.521062	0.023302	0.685518	4.48	78.96	2.87	0.07889999	0.03	-0.55	
-0.557174	0.016592	0.66063	5.53	80.43	3.5	0.0876	0.0197	-0.5374	
-0.637694	0.011102	0.65636	2.24	86.66	4.41	0.1087	0.0348	-0.5393	
-0.661484	0.05551	0.651846	9.17	80.92	5.25	0.1203	0.0203	-0.5374	
-0.657214	0.04819	0.627934	3.29	76.58	5.11	0.1251	0.0392	-0.527	
-0.671488	0.036234	0.609268	6.37	77.42	5.53	0.1488	0.0354	-0.5316	
-0.707478	0.04331	0.58621	8.54	79.59	6.37	0.1544	0.0164	-0.5297	
-0.739686	0.083204	0.554124	13.58	77.07	6.51	0.1694	0.0239	-0.5205	
-0.752374	0.09516	0.528748	9.45	73.71	5.74	0.1753	0.0239	-0.519	
-0.760914	0.079666	0.515938	6.65	71.96	5.46	0.1886	0.0182	-0.5127	
-0.772016	0.072224	0.490684	6.79	72.8	6.23	0.1931	0.0226	-0.5066	
-0.798002	0.086498	0.46665	10.99	71.47	6.58	0.2169	0.0244	-0.502	
-0.847412	0.098942	0.4392	10.5	73.08	6.65	0.2198	0.0187	-0.5035	
-0.889502	0.109312	0.388082	7.28	73.99	6.58	0.236	0.0145	-0.4972	
-0.906704	0.128466	0.366366	11.48	68.39	5.6	0.2462	0.007	-0.48	
-0.881938	0.119804	0.350628	5.67	65.1	3.71	0.2597	0.0131	-0.4817	
-0.874984	0.093452	0.320738	2.52	64.19	2.38	0.2598	0.0203	-0.4725	
-0.911584	0.080886	0.298046	0.7	64.61	1.75	0.2744	0.0058	-0.466	
-0.967826	0.087474	0.278038	3.36	63.35	1.26	0.2909	0.0147	-0.4538	
-0.993324	0.09028	0.264618	6.23	60.9	1.05	0.2937	0.0045	-0.4567	
-0.96624	0.0732	0.252784	2.52	57.47	0.28	0.3029	0.0221	-0.4494	
-0.951356	0.06588	0.243512	3.71	51.66	-0.91	0.2996	0.0058	-0.4428	
-0.965508	0.05002	0.23363	2.31	48.93	-1.96	0.3235	0.0149	-0.4322	
-0.992958	0.07076	0.218258	11.69	44.94	-2.45	0.3192	0.0191	-0.4307	
-0.993812	0.092476	0.211548	12.46	40.67	-2.8	0.3281	0.0235	-0.4215	
-0.962702	0.09467199	0.212158	9.1	37.03	-2.03	0.3354	0.0176	-0.4105	
-0.947574	0.069052	0.23912	2.31	34.58	-0.84	0.3367	0.0058	-0.4056	
-0.970022	0.055998	0.230336	-0.28	35.49	-0.91	0.3457	0.0118	-0.4026	
-1.003938	0.066612	0.202154	1.61	36.47	-1.68	0.3456	0.0088	-0.4026	
-1.014918	0.093086	0.179218	4.34	35.35	-1.54	0.3514	0.0003	-0.4102	
-0.99125	0.078202	0.18056	-3.01	33.67	-0.35	0.3603	-0.0013	-0.3884	
-0.989786	0.053436	0.179218	-6.3	34.51	0.56	0.362	0.0104	-0.3902	
-1.002108	0.0793	0.159332	1.05	33.88	1.96	0.365	0.0147	-0.3841	
-1.019188	0.091866	0.128588	0	32.06	2.87	0.3784	0.0164	-0.3842	
-1.04981	0.08113	0.098454	-7.21	31.92	3.22	0.3664	0.0117	-0.3763	
-1.02236	0.089182	0.111508	-3.22	27.93	4.2	0.3694	0.0131	-0.3701	
-1.01992	0.113216	0.10797	-2.1	25.41	5.6	0.3799	0.0162	-0.3702	
-1.05652	0.106994	0.07747	-12.81	26.18	6.93	0.3783	0.009	-0.3763	
-1.107638	0.086986	0.049654	-12.81	23.45	7.91	0.3707	0.0055	-0.3575	
-1.103978	0.088816	0.059536	-6.02	20.51	7.49	0.3801	0.0263	-0.3611	
-1.092022	0.102236	0.06649	-1.4	15.12	6.3	0.3901	0.0073	-0.3545	
-1.081286	0.092232	0.069418	-4.34	10.43	5.88	0.3857	0.0101	-0.3514	
-1.064206	0.110532	0.051118	4.13	4.76	4.76	0.3946	0.0088	-0.353	
-1.069574	0.117242	0.039406	0.42	4.48	3.5	0.3828	0.0145	-0.3546	
-1.040172	0.109922	0.062098	-1.05	4.55	3.29	0.393	0.006	-0.3591	
-1.014308	0.11102	0.062952	3.85	2.03	2.59	0.3961	0.0104	-0.3561	
-1.021384	0.116022	0.052338	2.1	4.97	1.89	0.3945	0.0029	-0.3529	
-1.06201	0.118584	0.022692	2.1	4.97	1.75	0.3932	0.0132	-0.3562	
-1.095804	0.135664	0.012444	4.06	1.75	1.54	0.4065	0.012	-0.3562	
-1.09007	0.145912	0.061244	3.29	-0.42	2.24	0.381	-0.003	-0.3589	
-1.05408	0.14274	0.074542	2.52	-4.48	2.59	0.3917	0.0117	-0.3546	
-1.028094	0.145546	0.071492	0.77	-3.36	2.24	0.3899	-0.0028	-0.3589	
-1.028704	0.135054	0.038186	-3.5	-2.59	1.47	0.3887	0.0118	-0.3624	
-1.066646	0.11285	0.007808	-9.8	-2.52	0.63	0.3856	0.0058	-0.3576	
-1.056642	0.126636	0.061976	3.43	-7.77	0.35	0.3947	0.0132	-0.3531	
-1.035902	0.15677	0.08052	6.72	-11.2	0.28	0.3962	0.0134	-0.3624	
-1.031022	0.16287	0.06893	5.46	-12.67	0.49	0.3871	0.0059	-0.3591	
-1.09129	0.155916	0.019032	-1.19	-13.51	1.19	0.3828	0.0131	-0.3608	
-1.134722	0.146766	-0.001464	-7.7	-11.41	0.91	0.3766	0.0013	-0.359	
-1.089948	0.138836	0.05063	-7.98	-14.7	-0.49	0.3857	0.0089	-0.3638	
-0.994178	0.109556	0.12627	-9.59	-20.44	-1.68	0.3737	0.0058	-0.3684	
-0.961116	0.0793	0.137982	-5.81	-21.91	-1.61	0.3769	0.0148	-0.3748	
-1.02236	0.111752	0.100528	-0.35	-19.46	-3.43	0.3677	0	-0.3714	
-1.080676	0.132614	0.085034	-4.06	-17.43	-3.29	0.3725	0.0178	-0.3842	
-1.07055	0.120536	0.088938	-6.37	-20.72	-2.66	0.3694	0.0089	-0.3809	
-1.0614	0.104798	0.119682	-8.4	-21.91	-3.01	0.3708	0.0063	-0.3948	
-1.033462	0.094306	0.137128	-5.81	-24.64	-4.2	0.368	0.0149	-0.3903	
-1.052616	0.099674	0.133834	-1.54	-27.09	-4.9	0.362	0.0104	-0.3933	
-1.062864	0.106506	0.13237	-0.35	-28.7	-5.25	0.3561	0.0148	-0.395	
-1.06079	0.108092	0.127002	-2.87	-31.43	-5.04	0.3636	0.0147	-0.3857	
-1.051762	0.09394	0.15067	-5.74	-32.48	-4.41	0.3471	0.0059	-0.401	
-1.023214	0.092598	0.173728	-1.19	-36.4	-3.92	0.3501	0.0117	-0.3949	
-1.014796	0.090158	0.187392	-0.77	-37.59	-3.99	0.3516	0.009099999	-0.4073	
-1.014918	0.087474	0.1769	-0.21	-38.71	-3.64	0.3444	0.0192	-0.409	
-1.034438	0.090646	0.166408	-6.09	-35.98	-3.99	0.3444	0.0166	-0.4229	
-1.026264	0.079544	0.159332	-2.94	-44.24	-3.99	0.3295	0.0162	-0.4198	
-1.002718	0.079178	0.186172	0.07	-48.3	-4.13	0.3267	0.0224	-0.4401	
-0.996984	0.09455	0.214232	3.29	-51.03	-5.11	0.3192	0.0221	-0.4308	
-0.973194	0.080276	0.255834	-0.77	-51.38	-4.9	0.3189	0.0062	-0.4413	
-0.95404	0.08113	0.2684	0.56	-52.78	-4.62	0.3042	0.0159	-0.4306	
-0.935496	0.079666	0.26718	-1.05	-52.92	-5.6	0.291	0.019	-0.4508	
-0.909754	0.079788	0.26779	-0.91	-54.95	-6.3	0.2924	0.0162	-0.4554	
-0.922198	0.07259	0.281088	-2.73	-56.84	-6.3	0.2776	0.0204	-0.4586	
-0.920002	0.0427	0.319518	-5.04	-57.19	-4.83	0.2762	0.0233	-0.4617	
-0.888648	0.046482	0.342088	0.56	-60.97	-4.13	0.2704	0.0279	-0.4774	
-0.86132	0.054534	0.359534	2.38	-65.24	-4.41	0.2497	0.0318	-0.4727	
-0.862052	0.045384	0.380884	-0.77	-66.29	-5.81	0.2524	0.0216	-0.4741	
-0.84607	0.034526	0.410408	0.49	-68.95	-5.81	0.2302	0.0213	-0.4818	
-0.832162	0.047946	0.42578	2.31	-73.29	-5.18	0.2258	0.0272	-0.4881	
-0.843142	0.065392	0.42944	1.26	-77.07	-5.39	0.2183	0.0228	-0.4911	
-0.815448	0.061854	0.468846	2.52	-77.98	-6.02	0.2079	0.0185	-0.5065	
-0.79727	0.051118	0.549	-0.84	-74.83	-6.16	0.208	0.023	-0.5113	
-0.769454	0.060634	0.57889	4.69	-78.54	-5.04	0.1931	0.0213	-0.5143	
-0.70943	0.078446	0.592432	4.69	-83.3	-4.62	0.1679	0.0236	-0.5112	
-0.632448	0.08418	0.631716	3.78	-84.84	-5.25	0.1575	0.0209	-0.5329	
-0.58194	0.069662	0.655384	0.49	-81.62	-5.81	0.1516	0.0252	-0.5298	
-0.566812	0.072468	0.679784	2.87	-80.22	-7.42	0.1321	0.0145	-0.5265	
-0.560468	0.07259	0.709674	1.54	-76.44	-7.77	0.1143	0.0186	-0.5296	
-0.549732	0.079544	0.718946	2.1	-71.47	-6.86	0.1054	0.0144	-0.5482	
-0.518866	0.062708	0.725656	-0.28	-70.91	-6.72	0.1025	0.0215	-0.5421	
-0.528748	0.063318	0.736148	-4.34	-65.45	-7.28	0.0771	0.0153	-0.5497	
-0.515572	0.063196	0.744078	-7.7	-66.99	-5.95	0.0684	0.0252	-0.5405	
-0.472628	0.06039	0.776042	-6.79	-71.47	-4.2	0.061	0.0255	-0.5607	
-0.427976	0.050508	0.792634	-4.76	-72.66	-2.52	0.0462	0.0251	-0.556	
-0.407114	0.044774	0.799588	-3.57	-74.13	-1.61	0.0356	0.016	-0.5511	
-0.377468	0.022936	0.833992	-7.21	-72.45	-0.84	0.0267	0.0173	-0.5543	
-0.332084	0.02013	0.861686	-8.33	-70.84	-0.07	0.0178	0.0186	-0.5512	
-0.305	0.019642	0.884134	-9.38	-69.09	-0.56	-0.0058	0.0211	-0.5558	
-0.288286	0.018788	0.89731	-4.55	-67.62	-1.4	-0.0088	0.0182	-0.5589	
-0.29097	0.012322	0.933178	-5.46	-64.68	-2.59	-0.0164	0.0109	-0.568	
-0.284748	0.01098	0.957334	-4.83	-61.74	-2.31	-0.0221	0.025	-0.5481	
-0.266814	-0.001098	0.990884	-4.48	-59.64	-1.96	-0.0325	0.0221	-0.5573	
-0.232166	-0.003416	1.022116	-2.94	-55.58	-2.17	-0.0535	0.0172	-0.551	
-0.209718	-0.00732	1.026386	-3.36	-52.08	-3.08	-0.0579	0.0159	-0.5665	
-0.204716	-0.014274	1.046882	-1.47	-48.58	-2.87	-0.0756	0.0226	-0.5511	
-0.199958	-0.023668	1.048468	-1.05	-46.9	-2.31	-0.0772	0.0194	-0.5401	
-0.156282	-0.008784	1.066036	0.28	-42.84	-1.96	-0.0785	0.027	-0.5542	
-0.155916	-0.00427	1.073966	-1.68	-32.62	-2.24	-0.092	0.0223	-0.5541	
-0.145912	-0.007686	1.06689	-1.19	-28.56	-2.66	-0.0935	0.0222	-0.551	
-0.149938	-0.005124	1.053348	-0.77	-24.85	-3.36	-0.1009	0.022	-0.5463	
-0.153354	-0.003538	1.044076	0.42	-22.61	-3.43	-0.1054	0.0203	-0.5385	
-0.141154	-0.008905999	1.048468	1.89	-19.88	-2.73	-0.1114	0.0174	-0.5478	
-0.128222	-0.003904	1.050908	1.82	-16.87	-2.24	-0.1174	0.0144	-0.5492	
-0.124684	0.009028	1.047858	0.56	-14.77	-1.96	-0.1173	0.0202	-0.5447	
-0.1281	0.010126	1.065548	-0.28	-11.9	-1.26	-0.1214	0.0362	-0.545	
-0.11712	-0.016714	1.090924	-0.28	-9.59	-1.05	-0.1232	0.02	-0.5431	
-0.099552	-0.010004	1.113616	0.35	-7.14	-1.33	-0.1189	0.0157	-0.5446	
-0.085156	0.006344	1.125328	0.77	-3.29	-0.35	-0.1203	0.0201	-0.5463	
-0.079666	0.01342	1.13338	-0.35	1.89	0.49	-0.119	0.0114	-0.5461	
-0.069174	0.001952	1.11935	-1.47	6.23	1.12	-0.1233	0.0172	-0.5493	
-0.072102	-0.00366	1.109834	-0.42	11.27	1.47	-0.1219	0.0113	-0.5445	
-0.080642	-0.010126	1.099586	0.49	16.17	1.68	-0.1262	0.0185	-0.5447	
-0.08479	-0.011468	1.091046	0.91	20.86	2.38	-0.1025	0.0177	-0.5524	
-0.08601	-0.001342	1.077504	1.82	26.18	2.94	-0.1115	0.0116	-0.5507	
-0.094062	0.013542	1.06994	2.38	31.71	2.45	-0.1084	0.0176	-0.5524	
-0.106628	0.018422	1.068476	2.94	36.12	1.68	-0.098	0.0164	-0.5586	
-0.125172	0.011956	1.063352	2.03	40.67	1.4	-0.0846	0.0194	-0.5463	
-0.1403	0.011102	1.053714	1.96	45.08	1.54	-0.0891	0.0164	-0.5509	
-0.161528	0.017202	1.038708	2.45	49.35	1.75	-0.0832	0.0179	-0.5463	
-0.190198	0.017202	1.025654	2.24	52.78	2.03	-0.0654	0.0169	-0.5478	
-0.207522	0.016592	1.011258	3.43	56.49	2.1	-0.0594	0.0199	-0.5479	
-0.218868	0.01891	0.994178	3.22	60.48	1.82	-0.0491	0.0128	-0.5509	
-0.249246	0.015128	0.968558	2.1	63.63	1.54	-0.046	0.0173	-0.5526	
-0.281942	0.022448	0.952698	2.1	67.27	1.96	-0.0238	0.0149	-0.5541	
-0.298168	0.025376	0.935008	2.17	70.7	2.45	-0.0176	0.0267	-0.5528	
-0.311222	0.014884	0.921466	3.08	74.06	2.87	-0.006	0.0138	-0.5557	
-0.339038	0.015982	0.87169	3.64	77.84	1.96	0.0061	0.0259	-0.5653	
-0.391864	0.013542	0.837774	4.06	79.1	1.82	0.0179	0.026	-0.556	
-0.43066	0.029768	0.823012	3.64	83.37	2.59	0.0252	0.0172	-0.5465	
-0.436882	0.0366	0.80154	3.85	84.14	3.5	0.0461	0.0221	-0.556	
-0.44957	0.01525	0.766526	0.77	86.31	4.27	0.0625	0.0267	-0.5499	
-0.495808	0.002684	0.719556	2.31	87.85	3.64	0.0906	0.0214	-0.5483	
-0.528748	0.003538	0.68442	2.8	87.78	3.71	0.098	0.0199	-0.5389	
-0.573644	0.013664	0.657458	3.43	87.5	4.41	0.1099	0.0188	-0.5467	
-0.61183	0.034282	0.644892	3.57	87.71	5.04	0.1173	0.0188	-0.539	
-0.645746	0.041236	0.62769	4.2	85.33	5.88	0.1275	0.0115	-0.5295	
-0.68137	0.029768	0.592554	4.83	83.3	6.37	0.15	0.0178	-0.5281	
-0.720776	0.016592	0.563884	5.46	81.34	5.88	0.1559	0.0179	-0.5266	
-0.74298	0.027816	0.536312	10.01	78.82	5.67	0.1782	0.0168	-0.5235	
-0.752618	0.062952	0.511912	10.85	75.11	5.6	0.1828	0.0271	-0.5206	
-0.776652	0.086376	0.485438	12.46	73.71	5.11	0.2004	0.0184	-0.5112	
-0.823744	0.115168	0.455426	10.71	76.16	5.04	0.22	0.0304	-0.5068	
-0.86559	0.13237	0.424316	8.05	74.62	5.39	0.2166	0.0124	-0.4893	
-0.883036	0.140056	0.38735	3.57	71.47	5.81	0.2283	0.0009999999	-0.4907	
-0.887794	0.119316	0.365634	-0.49	66.36	5.67	0.2449	0.0131	-0.4941	
-0.900116	0.093818	0.342698	-4.2	66.5	5.04	0.2479	0.0159	-0.4864	
-0.895236	0.088938	0.323178	-4.2	61.53	5.25	0.2625	0.0058	-0.4769	
-0.908168	0.085888	0.308904	-4.06	57.61	4.83	0.2657	0.0174	-0.4709	
-0.905362	0.099186	0.289628	1.12	52.29	4.2	0.2835	0.0163	-0.4678	
-0.912804	0.089548	0.28548	-2.38	50.26	3.85	0.2878	0.0101	-0.4506	
-0.930738	0.083814	0.268766	-0.84	49.56	3.85	0.2851	0.0206	-0.4633	
-0.960628	0.083082	0.259372	1.47	46.62	3.5	0.3029	0.0207	-0.4524	
-0.971974	0.082228	0.254004	3.08	42	2.52	0.3116	0.0105	-0.4476	
-0.969046	0.08723	0.23912	5.88	39.62	1.75	0.3087	0.0164	-0.4477	
-0.989664	0.090646	0.253394	1.68	36.89	1.19	0.3132	0.0163	-0.4399	
-0.997228	0.092598	0.234972	1.96	36.89	0.28	0.322	0.0105	-0.4352	
-0.982344	0.097356	0.239364	5.39	31.5	-0.56	0.3205	0.012	-0.4383	
-0.972462	0.08174	0.234118	1.12	30.45	0	0.3281	0.0207	-0.4261	
-0.991616	0.07991	0.233386	1.68	32.76	0.49	0.3308	0.0089	-0.4212	
-0.97356	0.077226	0.22509	3.92	30.87	0.7	0.3277	0.003	-0.4195	
-0.969656	0.078934	0.222162	1.61	31.92	1.33	0.3293	0.0101	-0.4088	
-0.974292	0.071004	0.22997	3.22	31.43	1.89	0.3397	0.0075	-0.4165	
-1.000888	0.076494	0.195444	2.24	33.39	2.31	0.3488	0.015	-0.4151	
-1.024434	0.096746	0.168726	3.78	32.41	2.8	0.353	0.0019	-0.4133	
-1.03517	0.091256	0.14823	-0.56	31.36	3.22	0.356	0.0089	-0.3964	
-1.035658	0.082716	0.152866	0.7	25.41	3.57	0.3515	0.0045	-0.4009	
-1.038952	0.094184	0.147132	3.78	23.59	4.06	0.3604	0.0045	-0.3916	
-1.062864	0.10614	0.131882	2.45	24.08	4.06	0.365	0.0119	-0.3887	
-1.091412	0.099674	0.1037	-4.34	24.08	3.64	0.3589	0.0059	-0.387	
-1.105442	0.10919	0.087108	-2.66	23.59	3.15	0.3663	0.0031	-0.387	
-1.082384	0.113216	0.107238	-0.28	18.9	3.43	0.3707	0.003	-0.3808	
-1.074698	0.114802	0.099186	-0.21	14.84	3.64	0.3708	0.0059	-0.3777	
-1.092022	0.116022	0.09162199	-0.77	12.32	3.08	0.3724	0.0116	-0.3685	
-1.066646	0.106872	0.086986	0.84	7.7	2.38	0.3739	0.0147	-0.3764	
-1.02907	0.105164	0.091866	1.12	7	1.61	0.3781	0.0017	-0.3792	
-1.003816	0.126392	0.09857599	3.85	6.44	1.54	0.3825	-0.0011	-0.3745	
-1.00467	0.13237	0.09699	2.1	5.67	2.17	0.3752	0.0028	-0.3668	
-1.019066	0.121024	0.090646	-0.14	5.88	1.82	0.3678	0.0059	-0.3793	
-1.040904	0.105042	0.077592	-2.66	8.19	1.05	0.3737	0.0042	-0.3622	
-1.069574	0.12017	0.069906	1.33	8.61	-0.07	0.3736	-0.0014	-0.3698	
-1.086532	0.145912	0.056364	0.84	6.51	-0.42	0.3826	0.0058	-0.3607	
-1.083726	0.157502	0.049898	-1.89	-1.75	0.49	0.381	-0.0015	-0.359	
-1.090558	0.13359	0.051606	-7.35	-5.04	2.17	0.3841	0.0017	-0.3714	
-1.10471	0.094794	0.049288	-9.38	-5.25	1.96	0.3856	0.003	-0.3637	
-1.102636	0.101138	0.06039	-3.85	-6.79	-0.42	0.3722	0.0029	-0.3715	
-1.083848	0.127856	0.066978	1.33	-13.44	-1.82	0.3827	0.0059	-0.3669	
-1.055422	0.12505	0.088938	0.84	-19.6	-1.68	0.3767	0.0073	-0.37	
-1.02785	0.120658	0.098332	0.21	-22.47	-0.77	0.3841	0.0033	-0.3808	
-1.021506	0.111142	0.10736	-0.56	-20.02	0	0.3783	0.0119	-0.3763	
-1.037732	0.115168	0.112118	-0.56	-16.87	-0.91	0.3737	0.0032	-0.3854	
-1.054568	0.110166	0.112118	-3.01	-16.8	-1.47	0.3722	0.0018	-0.3901	
-1.067866	0.129808	0.108946	1.75	-21	-1.26	0.3592	0.0204	-0.3796	
-1.062986	0.124806	0.11224	-0.35	-26.18	-0.49	0.3618	0.0003	-0.3962	
-1.060546	0.09162199	0.127978	-5.32	-26.6	-0.7	0.3648	0.0002	-0.39	
-1.040538	0.085278	0.136518	-2.52	-26.67	-2.24	0.365	0.009099999	-0.398	
-1.04493	0.1037	0.14518	0	-27.3	-3.5	0.3618	-0.0011	-0.3962	
-1.02358	0.105164	0.132248	1.75	-28.63	-3.78	0.353	0.006	-0.3979	
-1.05225	0.121268	0.187636	-4.9	-17.15	-3.01	0.3486	0.009	-0.4057	
-1.05408	0.11651	0.140788	-3.43	-31.29	-2.17	0.3456	0.0062	-0.4149	
-1.048712	0.100528	0.166774	0.28	-36.82	-2.73	0.3575	0.0049	-0.4149	
-1.036878	0.108336	0.188002	-2.1	-37.45	-3.22	0.3381	0.0045	-0.4133	
-1.017236	0.113948	0.186172	0.35	-46.76	-2.94	0.3383	0.0108	-0.4321	
-1.005402	0.103944	0.216672	-6.72	-48.02	-2.1	0.3353	0.0077	-0.4289	
-0.981124	0.093452	0.217892	-0.35	-54.67	-2.38	0.3249	0.0076	-0.4336	
-0.981612	0.087352	0.225334	-5.67	-51.87	-2.66	0.3189	0.0075	-0.4367	
-0.983442	0.07686	0.22753	-5.81	-48.79	-2.94	0.3072	0.016	-0.4337	
-0.967948	0.086132	0.265716	-0.21	-51.38	-2.38	0.2938	0.0117	-0.4476	
-0.948794	0.088328	0.27816	-1.75	-54.18	-1.68	0.3026	0.0063	-0.4645	
-0.938058	0.085766	0.294508	-2.24	-54.11	-0.77	0.2804	0.0116	-0.4584	
-0.93818	0.098332	0.29768	-2.94	-51.45	-0.28	0.2849	0.0145	-0.4523	
-0.911462	0.100894	0.313662	0.63	-56.98	-0.21	0.2745	0.0118	-0.4708	
-0.87596	0.09552599	0.331718	-2.24	-59.92	-0.91	0.2643	0.0203	-0.4679	
-0.852292	0.090158	0.337818	-2.03	-62.51	-1.68	0.257	0.0249	-0.4866	
-0.842776	0.066002	0.389424	-4.48	-62.58	-2.45	0.2491	0	-0.4876	
-0.830942	0.050142	0.442738	-2.1	-62.37	-3.99	0.2345	0.0144	-0.4956	
-0.820572	0.078202	0.460672	1.05	-65.59	-5.11	0.2344	0.0071	-0.497	
-0.808982	0.09552599	0.506666	1.89	-71.4	-5.39	0.215	0.0066	-0.4908	
-0.788852	0.070272	0.530944	-3.92	-72.73	-5.32	0.2183	0.0187	-0.5066	
-0.732	0.06222	0.579744	1.61	-75.67	-2.8	0.208	0.0245	-0.5129	
-0.691008	0.062708	0.588894	-1.12	-72.38	-1.26	0.1735	0.0076	-0.5109	
-0.653798	0.073688	0.60329	0.91	-75.39	-0.49	0.172	0.0076	-0.5109	
-0.632936	0.08052	0.625738	-1.12	-73.5	-0.14	0.1662	0.0107	-0.5265	
-0.628544	0.08052	0.637694	-4.2	-68.6	-1.19	0.1439	0.0103	-0.5249	
-0.637938	0.07198	0.637328	-5.32	-66.15	-2.38	0.1395	0.0132	-0.5296	
-0.623786	0.074176	0.655628	-3.92	-68.11	-3.78	0.1335	0.0103	-0.5373	
-0.598044	0.074176	0.684786	-4.48	-69.16	-5.6	0.1141	0.0069	-0.534	
-0.570106	0.065392	0.708332	-5.25	-72.38	-6.23	0.0963	0.0068	-0.5433	
-0.542168	0.052216	0.70638	-6.51	-75.04	-5.39	0.0949	0.0126	-0.5434	
-0.510814	0.058438	0.761646	-6.23	-77.28	-3.99	0.0787	0.0197	-0.5498	
-0.483364	0.077592	0.778726	-7.07	-76.79	-2.45	0.0712	0.0138	-0.5543	
-0.452864	0.072102	0.806664	-10.15	-74.97	-2.03	0.0609	0.022	-0.5342	
-0.426512	0.045872	0.824476	-9.87	-74.13	-1.82	0.0459	0.0133	-0.5511	
-0.411384	0.021472	0.858514	-9.17	-71.54	-2.45	0.0297	0.0205	-0.5621	
-0.398574	0.017568	0.871568	-4.41	-70.98	-3.5	0.0089	0.0185	-0.5589	
-0.369416	0.032818	0.894382	-4.69	-69.02	-4.48	-0.0029	0.0183	-0.5573	
-0.343064	0.02074	0.903776	-5.46	-65.94	-4.69	-0.0162	0.0238	-0.5543	
-0.329156	0.021472	0.909144	-3.36	-63.42	-3.85	-0.0206	0.0268	-0.5606	
-0.309636	0.025742	0.919026	-1.61	-61.46	-3.43	-0.0382	0.0367	-0.5639	
-0.290482	0.032696	0.928664	-0.21	-59.08	-3.29	-0.0355	0.0219	-0.5496	
-0.259494	0.036112	0.941108	0	-56.7	-3.85	-0.0563	0.0216	-0.5573	
-0.238388	0.0305	0.969656	-0.56	-53.9	-3.92	-0.0668	0.0183	-0.5494	
-0.207888	0.020862	0.988566	0.42	-51.17	-2.87	-0.0757	0.0181	-0.5494	
-0.201666	0.02379	0.9943	1.82	-52.78	-2.45	-0.0744	0.0109	-0.5508	
-0.188002	0.03233	1.007232	-2.52	-45.99	-2.73	-0.0847	0.0152	-0.5586	
-0.15799	0.035258	1.029192	-2.94	-42.7	-1.68	-0.0936	0.015	-0.5571	
-0.147864	0.01525	1.051518	-1.82	-39.27	-0.21	-0.0862	0.015	-0.5493	
-0.133468	0.004148	1.067256	-0.49	-35.28	0.14	-0.1071	0.008599999	-0.5414	
-0.114558	0.008905999	1.077138	0.14	-31.92	-0.42	-0.11	0.0115	-0.5461	
-0.09455	-0.000244	1.080066	0.42	-27.02	-0.28	-0.1189	0.0142	-0.543	
-0.093086	-0.000976	1.087508	0.7	-22.54	-0.42	-0.1191	0.0025	-0.5428	
-0.092354	0.006344	1.094218	1.89	-19.04	-0.35	-0.1338	0.0139	-0.5414	
-0.076128	0.014396	1.107516	2.17	-14.84	-0.7	-0.1307	0.0213	-0.54	
-0.071492	0.01037	1.106906	2.94	-10.08	-0.91	-0.1339	0.0052	-0.5475	
-0.082228	0.01342	1.095438	2.87	-5.67	-0.28	-0.1205	0.0098	-0.5445	
-0.083692	0.017446	1.097146	2.52	-1.61	0.42	-0.1265	0.0069	-0.5475	
-0.077958	0.020618	1.09861	0.98	2.73	0.7	-0.1308	0.0154	-0.5415	
-0.072712	0.027694	1.101904	0.42	7.07	0.91	-0.125	0.0069	-0.546	
-0.077226	0.024034	1.101782	-0.56	11.2	1.19	-0.131	0.0065	-0.5351	
-0.091378	0.022204	1.09861	-0.91	15.26	1.47	-0.128	0.0051	-0.5335	
-0.091988	0.023302	1.093486	-0.98	20.16	1.61	-0.1175	0.009699999	-0.5367	
-0.099186	0.01952	1.092632	-0.77	24.01	1.54	-0.1114	0.0159	-0.5431	
-0.109434	0.016104	1.093852	-0.07	28	1.75	-0.1131	0.008599999	-0.5491	
-0.1098	0.016104	1.090314	0.49	33.53	1.89	-0.1056	0.0115	-0.5383	
-0.118462	0.02196	1.07848	2.59	38.08	1.82	-0.1056	0.0116	-0.543	
-0.135176	0.025254	1.062254	3.71	41.65	1.61	-0.0893	0.0061	-0.5476	
-0.142374	0.035258	1.043466	4.13	46.27	1.68	-0.0893	0.0077	-0.5538	
-0.158722	0.04026	1.034194	3.71	56	1.12	-0.0802	0.0181	-0.5525	
-0.186294	0.044042	1.020042	4.97	53.9	0.84	-0.0742	0.0197	-0.5541	
-0.196786	0.02989	0.99247	1.75	61.39	0.98	-0.055	0.0114	-0.5555	
-0.223626	0.030012	0.987102	4.62	61.81	1.12	-0.0684	0.0139	-0.5509	
-0.243878	0.044896	0.973926	5.53	66.08	1.05	-0.0387	0.0088	-0.5602	
-0.25681	0.05307	0.950746	5.25	69.23	0.56	-0.0179	0.0135	-0.5541	
-0.29219	0.0427	0.919392	4.97	70.07	0.77	-0.015	0.0064	-0.5602	
-0.331108	0.046726	0.889258	4.41	72.59	1.47	0	0.0168	-0.5526	
-0.344772	0.049898	0.877424	2.73	77.91	1.05	0.008599999	0.0037	-0.5493	
-0.369782	0.05795	0.864248	3.29	82.25	1.19	0.0204	0.0025	-0.5524	
-0.392962	0.053558	0.83021	2.94	84.35	1.68	0.0251	0.0157	-0.5449	
-0.412848	0.063196	0.807884	2.8	85.19	2.03	0.034	0.013	-0.548	
-0.44225	0.060756	0.774822	1.47	90.72	2.73	0.0622	0.0094	-0.5635	
-0.492026	0.04819	0.735416	3.01	91.7	3.57	0.0697	0.0164	-0.5373	
-0.53985	0.037698	0.703086	3.64	92.12	3.36	0.086	0.0125	-0.5465	
-0.571448	0.0305	0.667706	1.89	92.05	2.1	0.1081	0.0055	-0.5433	
-0.601338	0.038064	0.628666	3.92	90.09	1.54	0.1097	0.0111	-0.5279	
-0.62464	0.055388	0.61305	5.46	88.83	1.75	0.1364	0.0088	-0.5326	
-0.64843	0.06222	0.590724	5.11	87.08	1.68	0.141	0.0146	-0.5249	
-0.681004	0.05185	0.561688	5.6	87.22	1.05	0.1603	0.015	-0.5265	
-0.701744	0.046726	0.525454	6.79	84	0.07	0.1722	0.0165	-0.5142	
-0.728096	0.067832	0.486048	10.29	84.7	-0.35	0.1854	0.0094	-0.5156	
-0.80093	0.092354	0.428464	7	87.57	-0.49	0.1958	0.0109	-0.5048	
-0.883646	0.091988	0.40992	5.11	85.96	-0.42	0.215	0.0067	-0.4954	
-0.913536	0.09467199	0.386496	4.2	79.59	0.28	0.2255	0.0114	-0.5002	
-0.865346	0.103456	0.360144	3.71	70.07	0.84	0.2463	0.0116	-0.4925	
-0.875716	0.108458	0.324154	3.64	66.71	0.49	0.2521	0.0044	-0.4923	
-0.90646	0.093452	0.299266	-1.47	67.48	0.35	0.2553	0.0132	-0.4879	
-0.914756	0.078324	0.274134	0.42	61.95	0.56	0.2701	0.016	-0.4678	
-0.923052	0.08662	0.264496	2.87	63.42	-0.07	0.2774	0.0073	-0.4645	
-0.949404	0.087352	0.236924	1.54	57.33	0.49	0.2862	0.0028	-0.4505	
-0.96441	0.108092	0.203984	8.89	41.51	0.91	0.3042	0.0117	-0.4414	
-0.981124	0.075396	0.20374	-8.33	56.07	1.05	0.3025	0.0043	-0.4366	
-0.97417	0.0793	0.196542	0	48.44	1.61	0.313	0.0075	-0.4382	
-0.976366	0.090036	0.2013	-1.82	45.71	2.38	0.3191	0.0176	-0.4291	
-0.999424	0.083814	0.203008	-1.75	42.49	3.43	0.3262	-0.0013	-0.4225	
-1.020164	0.07625	0.181536	-1.68	37.45	3.57	0.3351	0.0016	-0.4179	
-0.99552	0.058682	0.176778	-3.71	34.37	2.66	0.3336	-0.0001	-0.3993	
-0.994666	0.077714	0.188368	1.33	32.76	1.82	0.3442	0.0093	-0.4243	
-1.026386	0.084546	0.179584	-1.68	33.39	1.75	0.3368	0.0089	-0.4134	
-1.022848	0.078446	0.154574	-1.68	32.55	1.54	0.3472	0.0148	-0.4043	
-1.054202	0.086742	0.13359	-0.07	31.29	1.33	0.3529	0.0016	-0.3978	
-1.060546	0.082472	0.132858	0.98	27.93	1.26	0.3559	0.003	-0.3916	
-1.07299	0.091988	0.13969	0.35	22.05	1.33	0.3606	0.0162	-0.3888	
-1.065914	0.099186	0.122854	9.45	9.59	2.38	0.3575	0.0062	-0.4041	
-1.073112	0.08601	0.129808	0.42	17.36	2.38	0.3694	0.0076	-0.3886	
-1.06323	0.073688	0.121024	-0.07	17.15	1.33	0.3665	0.0106	-0.3964	
-1.050176	0.090158	0.110776	1.61	18.62	0.91	0.3633	0.0016	-0.3885	
-1.062254	0.099796	0.11773	0.42	19.46	1.33	0.3588	0.0014	-0.3854	
-1.061034	0.098454	0.110166	2.87	13.65	1.75	0.3634	0.0075	-0.3902	
-1.054202	0.091378	0.108458	1.05	12.67	1.61	0.3812	0.0077	-0.384	
-1.049566	0.100772	0.105164	2.45	12.04	1.54	0.3709	0.009	-0.3856	
-1.028094	0.111752	0.101992	3.92	8.47	1.61	0.3663	0.003	-0.3839	
-1.040416	0.115412	0.095038	0.63	9.52	1.68	0.3738	0.0074	-0.3778	
-1.060302	0.106628	0.092232	-1.68	10.29	1.68	0.371	0.0147	-0.3764	
-1.06323	0.114314	0.079788	-0.42	8.96	1.54	0.3813	0.009099999	-0.3809	
-1.07238	0.117242	0.076372	-0.42	7.07	1.26	0.378	-0.0043	-0.3698	
-1.058716	0.116388	0.082716	-1.33	4.97	1.26	0.378	-0.0026	-0.3776	
-1.062864	0.112118	0.072346	-2.59	2.94	0.84	0.3752	0.0045	-0.3746	
-1.072624	0.103822	0.065758	-4.27	1.19	0.21	0.3795	-0.0042	-0.3713	
-1.074698	0.090524	0.072468	-4.27	0.28	-0.42	0.3797	0.006	-0.3715	
-1.058594	0.1037	0.08784	2.66	-3.5	-0.98	0.3784	0.0147	-0.3702	
-1.05347	0.114192	0.091988	3.08	-6.86	-0.84	0.3782	0.0043	-0.3653	
-1.049932	0.118706	0.093208	4.06	-9.8	-0.49	0.3797	0.0074	-0.37	
-1.049444	0.108214	0.09857599	-0.63	-10.64	-1.12	0.3752	0.0016	-0.3792	
-1.053714	0.09857599	0.108824	-2.03	-8.89	-1.68	0.3739	0.0118	-0.3779	
-1.043954	0.113216	0.11895	1.4	-9.94	-1.96	0.3767	0.003	-0.3746	
-1.040294	0.112972	0.112484	-0.84	-13.37	-2.31	0.3797	0.0062	-0.384	
-1.038342	0.10736	0.10675	-0.56	-17.85	-2.94	0.3678	0.0046	-0.3901	
-1.03944	0.089914	0.114924	-2.38	-18.48	-3.08	0.3737	0.0005	-0.3978	
-1.043222	0.080032	0.1403	-2.03	-16.87	-3.29	0.3588	-0.0012	-0.3931	
-1.033462	0.092964	0.155062	1.82	-18.9	-3.92	0.3693	0.0075	-0.384	
-1.031876	0.103334	0.17263	3.43	-20.72	-4.06	0.3709	0.009099999	-0.3918	
-1.035292	0.105652	0.16897	2.66	-23.73	-4.13	0.3617	-0.0039	-0.4023	
-1.023214	0.10187	0.173118	-0.42	-24.71	-4.41	0.3618	0.0017	-0.3931	
-1.01504	0.094916	0.187392	-1.54	-22.96	-4.69	0.3649	0.009	-0.3933	
-1.00406	0.072834	0.189832	-5.46	-22.89	-4.97	0.3517	0.0135	-0.412	
-1.016626	0.063806	0.223626	-2.8	-20.37	-4.76	0.3458	0.0162	-0.4043	
-1.018212	0.078568	0.20984	3.64	-21.84	-4.9	0.3488	0.0151	-0.4167	
-1.014674	0.08967	0.228994	3.36	-21.84	-4.83	0.3486	0.009	-0.4088	
-0.997228	0.088694	0.218258	3.36	-24.92	-5.25	0.3412	0.009099999	-0.4197	
-0.984174	0.084302	0.222406	2.17	-28.91	-5.81	0.3414	0.0176	-0.4074	
-0.981978	0.082106	0.230336	6.72	-33.95	-6.72	0.3353	0.0102	-0.4088	
-0.985394	0.076006	0.257664	5.67	-28.63	-7	0.3309	0.012	-0.4275	
-0.975268	0.082716	0.28548	5.18	-25.55	-5.88	0.3265	0.0132	-0.4213	
-0.957212	0.074054	0.290482	2.87	-24.15	-4.69	0.3237	0.0235	-0.423	
-0.941352	0.053314	0.2867	0.35	-23.1	-3.29	0.325	0.0134	-0.429	
-0.930128	0.063318	0.282552	5.25	-25.06	-2.31	0.3279	0.0077	-0.4351	
-0.957212	0.069052	0.28975	3.99	-25.69	-1.4	0.3158	-0.0012	-0.438	
-0.950746	0.060146	0.316468	5.74	-25.69	-0.84	0.319	0.0105	-0.4398	
-0.923662	0.062098	0.34221	4.41	-23.52	-1.61	0.3086	0.0088	-0.4367	
-0.913414	0.075762	0.365756	4.9	-20.79	-1.96	0.3116	0.0102	-0.432	
-0.90829	0.078934	0.362828	2.03	-21.35	-1.96	0.3145	0.009	-0.4382	
-0.896334	0.07686	0.356972	1.12	-23.59	-1.33	0.3041	0.0073	-0.4366	
-0.887428	0.071736	0.379664	0.21	-23.94	-0.91	0.2878	0.0102	-0.4537	
-0.895114	0.06771	0.384178	-1.68	-26.18	-1.05	0.3041	0.0076	-0.4553	
-0.903654	0.056364	0.411506	-0.14	-28.91	-1.4	0.2923	0.0132	-0.4538	
-0.89182	0.046482	0.462868	-0.98	-27.58	-1.33	0.2908	0.0104	-0.4615	
-0.869006	0.050996	0.453596	1.26	-32.27	-1.82	0.2877	0.0002	-0.4675	
-0.859612	0.067832	0.467016	4.27	-29.05	-2.73	0.2743	0.0028	-0.4613	
-0.876936	0.073932	0.45445	2.52	-25.41	-2.73	0.288	0.0163	-0.4663	
-0.86742	0.06649	0.472018	2.17	-22.05	-3.36	0.2638	-0.0029	-0.4751	
-0.870836	0.075274	0.470188	-0.84	-18.34	-4.48	0.2775	0.0118	-0.4724	
-0.870958	0.075884	0.46543	-1.96	-19.88	-5.04	0.2742	-0.0059	-0.4627	
-0.86376	0.071004	0.462624	-1.26	-23.73	-4.55	0.264	0.0043	-0.4737	
-0.845948	0.046604	0.485316	-5.11	-24.43	-3.5	0.2612	0.0118	-0.4863	
-0.817888	0.025864	0.52582	-2.1	-26.67	-3.36	0.2521	0.0055	-0.4737	
-0.8113	0.02745	0.537044	0.07	-27.02	-3.43	0.2597	0.0102	-0.4832	
-0.821304	0.04575	0.538752	2.87	-26.74	-3.22	0.2388	0.007	-0.4862	
-0.83082	0.051606	0.54778	-0.56	-22.75	-2.94	0.2507	0.0074	-0.4971	
-0.80886	0.030256	0.569374	-3.08	-22.33	-1.61	0.2404	0.0128	-0.4847	
-0.79483	0.01159	0.58438	-2.66	-18.55	-0.42	0.2478	0.0113	-0.4739	
-0.795196	0.012322	0.583038	0.7	-16.17	-0.35	0.239	0.016	-0.4972	
-0.803126	0.020374	0.584258	2.87	-15.47	-0.98	0.2359	0.0085	-0.4924	
-0.806298	0.021228	0.583892	2.17	-13.44	-1.96	0.2404	0.0128	-0.4832	
-0.805688	0.015006	0.578768	2.52	-14	-2.52	0.2287	0.023	-0.4927	
-0.802638	0.016836	0.59292	2.66	-12.81	-2.8	0.2271	0.0157	-0.4972	
-0.787632	0.019032	0.597922	5.81	-16.66	-3.36	0.2225	0.0082	-0.4893	
-0.769332	0.019154	0.606706	4.27	-16.03	-3.64	0.2195	0.007	-0.5048	
-0.76494	0.009028	0.611098	3.99	-14.49	-3.29	0.2242	0.0187	-0.5004	
-0.77165	0.016104	0.620126	5.11	-12.39	-1.47	0.2241	0.0128	-0.4971	
-0.77226	0.030378	0.625738	4.62	-10.57	-0.07	0.2179	0.0025	-0.5031	
-0.777872	0.024034	0.62586	1.33	-7.77	1.96	0.2223	-0.0018	-0.4984	
-0.784216	0.012078	0.61671	0.91	-6.65	3.85	0.2135	0.0009	-0.5031	
-0.783606	0.00549	0.62037	-1.4	-5.46	5.53	0.2151	0.0068	-0.5032	
-0.78141	-0.007442	0.618296	-1.05	-4.9	6.72	0.2091	0.0081	-0.5001	
-0.772016	0.005246	0.625616	2.45	-5.81	7.84	0.2106	0.0054	-0.5078	
-0.77836	0.013908	0.631594	1.05	-2.87	9.17	0.215	0.0054	-0.5032	
-0.778116	0.004392	0.631106	0.91	-3.78	11.06	0.2075	0.0009999999	-0.5093	
-0.7747	-0.006466	0.631716	-1.96	0.98	12.67	0.2136	0.0111	-0.4971	
-0.77897	-0.008296	0.618296	0.49	1.82	14.42	0.2092	0.0083	-0.5063	
-0.788608	-0.00305	0.618784	0.91	4.27	15.89	0.206	0.002	-0.4922	
-0.784582	-0.013786	0.611952	0.7	5.39	16.87	0.2059	-0.0035	-0.503	
-0.776408	-0.006588	0.607194	3.15	4.48	18.06	0.2077	0.0082	-0.5032	
-0.782386	-0.00305	0.605486	3.22	6.72	19.46	0.2148	-0.0064	-0.4936	
-0.781654	0.004636	0.59719	4.62	8.19	20.93	0.2193	-0.0017	-0.5046	
-0.781044	0.020984	0.597434	6.51	8.96	21.84	0.2147	-0.0094	-0.4935	
-0.784582	0.038186	0.590724	8.61	9.03	23.03	0.2176	-0.0123	-0.4904	
-0.787998	0.048312	0.585966	8.26	11.48	25.55	0.2325	-0.0104	-0.4998	
-0.798368	0.055998	0.579622	8.54	14	27.65	0.2235	-0.0166	-0.4872	
-0.807152	0.060268	0.560346	9.66	15.19	29.05	0.228	-0.0132	-0.5059	
-0.81557	0.097234	0.54595	12.04	15.05	29.75	0.2218	-0.0255	-0.4839	
-0.81862	0.134688	0.535946	11.06	13.37	29.68	0.2292	-0.0282	-0.4885	
-0.819596	0.14091	0.533506	6.79	14.42	29.82	0.241	-0.0295	-0.4869	
-0.829356	0.145546	0.52338	6.58	13.86	30.31	0.2336	-0.0297	-0.4838	
-0.82655	0.156038	0.519232	7.28	12.53	29.96	0.232	-0.0383	-0.4945	
-0.8296	0.176656	0.50813	9.8	12.53	29.26	0.2394	-0.037	-0.479	
-0.83021	0.193614	0.499468	11.34	12.18	28.42	0.2349	-0.0413	-0.4882	
-0.82411	0.213012	0.485316	13.86	11.83	27.16	0.2362	-0.0501	-0.4834	
-0.829478	0.247416	0.481168	12.25	12.04	26.18	0.239	-0.0559	-0.4848	
-0.875594	0.282796	0.45079	13.23	13.93	26.88	0.236	-0.056	-0.4848	
-0.878888	0.282552	0.457134	9.8	12.46	28.21	0.2432	-0.0663	-0.4737	
-0.86071	0.271694	0.449814	12.18	10.15	28.98	0.2387	-0.0706	-0.4814	
-0.840458	0.281698	0.439444	18.13	4.69	28.35	0.2327	-0.07229999	-0.4798	
-0.848876	0.301462	0.428342	19.81	4.2	27.09	0.2416	-0.0766	-0.4751	
-0.849974	0.315736	0.42944	19.18	4.06	26.39	0.2384	-0.0839	-0.478	
-0.847168	0.329034	0.42639	20.86	3.78	25.97	0.2384	-0.0883	-0.4779	
-0.856196	0.352336	0.426146	20.3	3.71	24.64	0.2369	-0.0884	-0.4748	
-0.863638	0.368074	0.412848	20.37	2.8	23.45	0.2293	-0.0959	-0.47	
-0.843508	0.359412	0.420778	18.69	0.07	22.33	0.2339	-0.08859999	-0.4686	
-0.81923	0.371612	0.422608	24.15	-2.45	21	0.2381	-0.1003	-0.4652	
-0.818986	0.396866	0.410042	24.99	-1.4	19.74	0.2379	-0.1093	-0.4542	
-0.818864	0.415654	0.420656	24.15	-3.08	18.9	0.2394	-0.1104	-0.4697	
-0.831064	0.4331	0.415654	24.64	-1.61	18.48	0.2377	-0.1223	-0.4632	
-0.842044	0.446276	0.403576	27.09	-3.29	17.78	0.2406	-0.1236	-0.4663	
-0.835212	0.445788	0.404796	21.63	-4.97	17.15	0.2302	-0.1224	-0.4647	
-0.81984	0.448838	0.41846	21.14	-6.02	16.66	0.2449	-0.1323	-0.4677	
-0.799466	0.471042	0.442128	19.53	-6.37	15.26	0.2255	-0.1373	-0.4582	
-0.791658	0.49959	0.44347	22.68	-6.23	13.23	0.221	-0.1359	-0.4598	
-0.803126	0.515572	0.431026	23.1	-5.81	11.62	0.2165	-0.1388	-0.4628	
-0.78812	0.516792	0.420778	18.9	-6.3	10.99	0.2179	-0.1446	-0.4658	
-0.772748	0.507398	0.432734	10.36	-5.11	10.29	0.2194	-0.1417	-0.4628	
-0.7808	0.515816	0.430538	13.72	-4.48	9.59	0.2221	-0.1548	-0.4609	
-0.77775	0.522282	0.43066	12.32	-4.55	9.03	0.2103	-0.1535	-0.4671	
-0.76616	0.528504	0.438468	11.55	-5.32	8.61	0.2148	-0.1507	-0.4532	
-0.771284	0.55022	0.45811	8.96	-3.5	7.91	0.2056	-0.1654	-0.4622	
-0.778482	0.56425	0.455304	8.47	-3.36	6.86	0.2133	-0.1493	-0.4564	
-0.778726	0.577548	0.458232	4.48	-2.73	5.88	0.2191	-0.1564	-0.4593	
-0.77531	0.580232	0.455182	1.19	-2.17	4.97	0.2087	-0.1554	-0.4469	
-0.772992	0.56608	0.449204	-0.56	-1.19	3.08	0.2206	-0.1565	-0.4547	
-0.768112	0.566324	0.447252	-0.63	-1.05	-0.28	0.2175	-0.1652	-0.4607	
-0.760426	0.568398	0.44469	-2.59	-1.47	-3.64	0.2115	-0.1639	-0.4576	
-0.768234	0.56059	0.4514	-6.86	-1.33	-6.02	0.2191	-0.1594	-0.4562	
-0.757986	0.550098	0.446764	-4.9	-1.68	-8.96	0.2252	-0.1519	-0.4563	
-0.748226	0.536312	0.46055	-9.8	-1.47	-12.46	0.2192	-0.1521	-0.4563	
-0.743346	0.540338	0.468724	-8.54	-0.07	-15.54	0.2237	-0.1505	-0.4579	
-0.751154	0.559736	0.458598	-8.12	0.42	-18.69	0.2222	-0.149	-0.4579	
-0.757864	0.54534	0.458842	-16.24	1.61	-21.49	0.2163	-0.152	-0.461	
-0.761646	0.516426	0.462746	-17.5	2.45	-23.45	0.2179	-0.1461	-0.4627	
-0.76921	0.510692	0.449326	-15.05	1.89	-25.34	0.218	-0.1372	-0.4675	
-0.77104	0.49532	0.446398	-19.04	1.19	-27.51	0.2251	-0.1547	-0.4656	
-0.788242	0.488366	0.447618	-20.93	1.47	-29.96	0.2211	-0.13	-0.4583	
-0.782264	0.469944	0.45201	-22.68	0.91	-31.71	0.2286	-0.1282	-0.4677	
-0.783728	0.449814	0.44835	-21.84	1.75	-32.97	0.2168	-0.1242	-0.4585	
-0.795074	0.42334	0.44286	-24.22	3.36	-34.58	0.2362	-0.121	-0.457	
-0.79788	0.398696	0.446398	-27.58	3.36	-36.05	0.2317	-0.1209	-0.4648	
-0.807396	0.390766	0.451034	-27.09	1.82	-37.94	0.2308	-0.09429999	-0.4778	
-0.817156	0.379176	0.456402	-29.05	3.5	-39.76	0.2397	-0.09429999	-0.47	
-0.814716	0.35563	0.447374	-24.92	2.73	-41.3	0.2294	-0.0901	-0.4716	
-0.811422	0.315858	0.448716	-29.12	1.12	-42.77	0.2402	-0.0722	-0.4752	
-0.813008	0.273402	0.463234	-30.24	1.89	-43.75	0.2432	-0.0679	-0.4675	
-0.815814	0.267058	0.463722	-25.34	2.17	-44.31	0.2446	-0.0737	-0.4705	
-0.831674	0.265716	0.468602	-25.2	2.1	-44.59	0.2435	-0.0561	-0.474	
-0.842288	0.252052	0.471164	-24.29	2.94	-44.52	0.2435	-0.0529	-0.4849	
-0.853878	0.211792	0.469578	-26.25	3.43	-44.66	0.2497	-0.044	-0.4851	
-0.843142	0.182024	0.48495	-23.31	-0.21	-45.15	0.2454	-0.0324	-0.4822	
-0.847778	0.176046	0.478606	-18.34	-0.91	-45.64	0.2498	-0.0339	-0.476	
-0.856196	0.162016	0.478972	-25.48	0.07	-45.71	0.2425	-0.0281	-0.4808	
-0.862174	0.12749	0.495442	-24.15	-0.21	-44.1	0.2472	-0.0165	-0.4701	
-0.858392	0.101992	0.477996	-19.32	-0.98	-41.58	0.2548	-0.0074	-0.4812	
-0.84912	0.071614	0.492636	-21.28	-3.71	-39.97	0.237	-0.009	-0.4889	
-0.838994	0.04392	0.496296	-17.71	-3.5	-39.76	0.2582	0.0132	-0.4879	
-0.808616	0.012566	0.492636	-14.7	-4.34	-40.25	0.2522	0.01	-0.4769	
-0.81801	-0.015006	0.485438	-12.88	-3.01	-42.63	0.2494	0.016	-0.4895	
-0.847046	-0.048922	0.486292	-13.44	1.12	-44.73	0.2555	0.0276	-0.4758	
-0.862784	-0.033428	0.472872	-5.46	-0.49	-46.2	0.2601	0.0338	-0.4914	
-0.856684	-0.03965	0.480192	-7.07	-1.89	-46.06	0.2435	0.0203	-0.4896	
-0.82899	-0.047458	0.480924	-5.95	-5.67	-44.66	0.2483	0.0379	-0.4884	
-0.80642	-0.071736	0.493246	-9.31	-5.88	-43.12	0.244	0.0437	-0.487	
-0.83204	-0.117608	0.489586	-12.25	-1.96	-42.35	0.2515	0.0495	-0.4778	
-0.849852	-0.13725	0.482632	-11.34	0.28	-43.54	0.25	0.0483	-0.4917	
-0.839482	-0.111264	0.478606	-8.68	-2.03	-44.87	0.2455	0.0423	-0.4885	
-0.827892	-0.119926	0.489098	-17.01	2.24	-44.59	0.2456	0.0481	-0.4886	
-0.86315	-0.176412	0.499224	-18.06	0.07	-42.28	0.2503	0.0641	-0.475	
-0.855098	-0.208864	0.497516	-16.17	-1.96	-38.92	0.2355	0.0669	-0.4843	
-0.828746	-0.184708	0.490562	-12.81	-2.31	-36.89	0.2505	0.0716	-0.4845	
-0.812154	-0.19154	0.477264	-15.82	0.56	-35.14	0.2401	0.0743	-0.4861	
-0.819474	-0.215208	0.471042	-19.04	2.94	-34.72	0.2328	0.0787	-0.4892	
-0.836432	-0.243512	0.476776	-20.02	4.55	-34.44	0.2389	0.086	-0.4863	
-0.849974	-0.242658	0.457744	-20.3	3.92	-32.97	0.2374	0.0845	-0.4832	
-0.837652	-0.239974	0.453718	-19.6	0.35	-32.06	0.242	0.0933	-0.4803	
-0.82289	-0.250954	0.459452	-23.59	0.91	-30.8	0.2407	0.1023	-0.4898	
-0.817522	-0.263642	0.476166	-24.36	-0.07	-30.52	0.2392	0.1006	-0.4804	
-0.834846	-0.318786	0.493734	-26.6	-0.42	-29.82	0.232	0.1121	-0.476	
-0.850584	-0.34587	0.482754	-24.64	0.42	-29.4	0.2279	0.1311	-0.4826	
-0.833748	-0.346968	0.465674	-20.3	-0.28	-30.59	0.2396	0.1253	-0.4701	
-0.832772	-0.348432	0.450546	-22.75	3.29	-30.8	0.2368	0.1297	-0.4764	
-0.840946	-0.358558	0.435662	-25.41	5.74	-29.75	0.2191	0.1352	-0.4764	
-0.831552	-0.367586	0.4209	-24.57	2.59	-28.91	0.237	0.1373	-0.489	
-0.816668	-0.37576	0.435906	-21.91	0.49	-27.86	0.2342	0.1487	-0.4768	
-0.828502	-0.406626	0.42578	-21	0.28	-26.46	0.2251	0.1397	-0.4766	
-0.823988	-0.427244	0.434564	-20.3	1.82	-25.83	0.2241	0.1617	-0.4786	
-0.827404	-0.43005	0.424926	-17.43	1.26	-24.71	0.2226	0.163	-0.4708	
-0.823378	-0.426878	0.428464	-14.7	-0.28	-23.24	0.2226	0.1646	-0.4786	
-0.821426	-0.441884	0.434076	-15.82	0.42	-20.93	0.2196	0.163	-0.4755	
-0.820816	-0.44469	0.43127	-10.78	-2.1	-18.97	0.2316	0.169	-0.4694	
-0.809592	-0.434686	0.433344	-9.24	-1.47	-17.08	0.2228	0.1749	-0.4789	
-0.806664	-0.464698	0.427976	-13.3	0	-14.56	0.2154	0.1733	-0.4804	
-0.811422	-0.472384	0.436882	-9.24	-1.12	-12.53	0.2363	0.1796	-0.479	
-0.804102	-0.467138	0.432856	-5.88	-2.31	-11.2	0.2171	0.1848	-0.4682	
-0.80459	-0.472628	0.434808	-4.97	-2.52	-8.75	0.2334	0.1867	-0.4714	
-0.794098	-0.46848	0.440176	-2.66	-4.34	-5.74	0.214	0.1791	-0.4789	
-0.796538	-0.491294	0.447008	-9.38	-3.22	-2.66	0.229	0.1851	-0.4713	
-0.801906	-0.504714	0.464088	-5.32	-2.66	-0.56	0.2185	0.1804	-0.4665	
-0.795318	-0.518134	0.468114	-4.97	-3.5	1.12	0.2127	0.1878	-0.4729	
-0.784948	-0.507764	0.459452	0.14	-3.64	3.85	0.2216	0.1895	-0.4761	
-0.778238	-0.497028	0.463234	2.73	-3.36	7.21	0.2141	0.1834	-0.4744	
-0.775676	-0.503494	0.463966	3.29	-1.61	11.2	0.2199	0.1776	-0.4727	
-0.778238	-0.502762	0.461404	4.48	-0.07	14.84	0.2171	0.1878	-0.4729	
-0.783484	-0.49898	0.452864	7.21	1.05	18.48	0.2139	0.1774	-0.4665	
-0.786046	-0.497516	0.458354	9.31	1.12	21.84	0.2287	0.1733	-0.4664	
-0.784216	-0.49837	0.46177	11.27	0.07	25.27	0.2227	0.1689	-0.4741	
-0.768234	-0.48129	0.46177	14.77	-0.77	28.49	0.2198	0.1748	-0.4757	
-0.77836	-0.469822	0.455914	14.35	0.49	32.06	0.2256	0.1632	-0.4786	
-0.788852	-0.47214	0.449448	16.03	1.47	35.98	0.2225	0.1602	-0.477	
-0.787998	-0.445178	0.451644	19.81	2.17	39.55	0.2287	0.1692	-0.4803	
-0.797758	-0.425658	0.456036	17.57	3.5	42.84	0.2225	0.1589	-0.4847	
-0.781532	-0.399062	0.462258	18.97	2.24	45.78	0.2299	0.1589	-0.4785	
-0.783362	-0.385276	0.447374	16.73	2.73	48.72	0.234	0.137	-0.4765	
-0.819596	-0.379054	0.43249	14.84	3.92	51.17	0.2445	0.1417	-0.4797	
-0.82716	-0.359534	0.434198	18.2	3.36	53.69	0.2354	0.1341	-0.4765	
-0.812032	-0.322812	0.442738	19.74	2.38	55.65	0.25	0.1241	-0.4732	
-0.795074	-0.308294	0.44103	19.25	2.1	57.89	0.2425	0.1181	-0.473	
-0.80703	-0.276696	0.427732	20.58	2.59	58.94	0.2482	0.1049	-0.4696	
-0.824476	-0.268278	0.427366	15.61	2.45	59.5	0.2466	0.1022	-0.482	
-0.852292	-0.246562	0.431148	20.02	5.18	60.48	0.2568	0.0891	-0.4771	
-0.867786	-0.22082	0.435906	21.84	6.02	61.11	0.2597	0.08639999	-0.4833	
-0.845338	-0.177632	0.429806	26.18	3.99	61.81	0.2593	0.0657	-0.4735	
-0.853024	-0.128466	0.418704	26.81	3.64	61.18	0.2653	0.0689	-0.4798	
-0.890356	-0.080642	0.425658	27.51	2.94	60.06	0.265	0.057	-0.4718	
-0.90463	-0.02806	0.43371	27.79	3.85	59.43	0.2649	0.0511	-0.4701	
-0.903044	-0.003538	0.435174	23.24	4.13	59.78	0.2724	0.0514	-0.4779	
-0.899628	0.013664	0.423584	22.54	2.8	59.22	0.263	0.032	-0.4681	
-0.880962	0.027084	0.415898	23.03	0.84	57.61	0.2673	0.0191	-0.4772	
-0.871446	0.046726	0.417606	24.85	0.56	56	0.2642	0.0174	-0.4709	
-0.865346	0.068564	0.41358	27.23	1.19	54.6	0.2656	0.0131	-0.4724	
-0.843874	0.107604	0.407602	29.4	0.91	53.27	0.2579	-0.0002	-0.469	
-0.84912	0.142984	0.406626	29.82	2.73	53.76	0.2682	-0.0059	-0.4658	
-0.85278	0.1769	0.39711	31.01	2.03	54.6	0.2695	-0.0177	-0.4624	
-0.85461	0.215086	0.407724	32.76	0.21	55.51	0.2737	-0.0279	-0.4591	
-0.823012	0.25193	0.429074	35.21	-4.55	55.58	0.2692	-0.0305	-0.4792	
-0.818376	0.270108	0.42395	36.4	-6.02	55.09	0.2631	-0.0412	-0.4665	
-0.820694	0.30744	0.412726	29.82	4.27	53.69	0.2583	-0.0574	-0.4646	
-0.83997	0.312198	0.42761	23.52	-0.21	52.22	0.2641	-0.0603	-0.4599	


-0.846802	0.362462	0.41297	28.21	-6.51	47.18	0.2519	-0.0781	-0.4611	
-0.812154	0.36905	0.405772	31.22	-10.43	44.31	0.2485	-0.1016	-0.4621	

-0.797636	0.42029	0.44591	30.31	-8.26	43.05	0.2468	-0.1091	-0.4557	
-0.826672	0.472506	0.41541	34.3	-5.11	42.84	0.2391	-0.1239	-0.4523	
-0.824842	0.482266	0.403942	27.86	-7.84	41.02	0.2346	-0.1267	-0.4647	

-0.76189	0.478728	0.41419	30.87	-11.2	37.1	0.2282	-0.1489	-0.4595	
-0.760304	0.504958	0.410896	29.96	-10.57	35.49	0.2223	-0.1477	-0.4502	
-0.778482	0.522404	0.400892	28.7	-8.82	34.02	0.2234	-0.1637	-0.4576	
-0.768844	0.533994	0.42334	22.26	-10.71	32.06	0.2325	-0.1578	-0.4516	
-0.745786	0.55388	0.420534	28.63	-13.02	30.1	0.2116	-0.1595	-0.4561	
-0.733586	0.575352	0.405528	26.39	-13.23	28.35	0.2218	-0.1725	-0.4559	
-0.745176	0.593042	0.43798	19.81	-11.13	26.53	0.2083	-0.1758	-0.4496	
-0.743834	0.608414	0.423218	21.49	-8.47	25.48	0.2097	-0.1803	-0.4448	
-0.743712	0.610976	0.417118	17.71	-8.26	23.66	0.211	-0.1891	-0.4446	
-0.740174	0.623054	0.408822	16.38	-7.77	21.14	0.2035	-0.195	-0.446	
-0.730048	0.63196	0.419802	14	-8.19	18.76	0.205	-0.1907	-0.443	
-0.72407	0.652456	0.412726	14.56	-8.26	17.08	0.193	-0.1982	-0.4428	
-0.735294	0.660386	0.425902	10.57	-9.17	14.98	0.2034	-0.1995	-0.4444	
-0.733708	0.662582	0.417972	7.21	-7.35	13.16	0.1974	-0.2039	-0.4474	
-0.729194	0.650748	0.429562	3.22	-7.56	10.71	0.193	-0.1999	-0.4335	
-0.722484	0.658434	0.42456	4.69	-7.35	8.82	0.1792	-0.2189	-0.4501	
-0.708454	0.656726	0.420412	1.54	-7.28	6.86	0.1854	-0.2071	-0.4489	
-0.703574	0.643184	0.429074	-1.82	-5.74	4.27	0.187	-0.2013	-0.4443	
-0.704672	0.637816	0.42456	-0.14	-5.53	0.77	0.1854	-0.2072	-0.4442	
-0.6954	0.642086	0.419558	0.84	-5.53	-2.52	0.1797	-0.197	-0.4428	
-0.691618	0.640744	0.433832	-3.22	-4.55	-5.32	0.1898	-0.2099	-0.4488	
-0.694912	0.64172	0.43859	-1.26	-4.48	-7.14	0.1883	-0.2116	-0.441	
-0.696254	0.64355	0.441396	-3.01	-3.57	-9.52	0.1928	-0.2084	-0.4473	
-0.69845	0.647942	0.432734	-3.01	-4.13	-12.53	0.19	-0.1997	-0.4475	
-0.690398	0.639524	0.437614	-6.44	-3.71	-15.19	0.1901	-0.1968	-0.4429	
-0.70028	0.627202	0.43859	-8.12	-2.17	-17.64	0.1767	-0.197	-0.4491	
-0.70516	0.637694	0.44713	-7.98	0	-20.16	0.1903	-0.1865	-0.4446	
-0.723704	0.668926	0.437248	-4.9	-0.84	-24.29	0.184	-0.2012	-0.449	
-0.729316	0.688324	0.436028	-13.51	-0.42	-28.14	0.2006	-0.1921	-0.4477	
-0.722362	0.640622	0.457378	-28.21	1.75	-31.08	0.1947	-0.1892	-0.4555	
-0.719922	0.615124	0.448106	-24.99	2.17	-33.25	0.1917	-0.1908	-0.4492	
-0.721874	0.60146	0.4392	-25.55	1.54	-35.77	0.2082	-0.1816	-0.4557	
-0.734562	0.589016	0.441884	-30.03	3.43	-38.29	0.201	-0.173	-0.4543	
-0.738222	0.572424	0.449082	-31.85	3.99	-40.39	0.2129	-0.1698	-0.4544	
-0.733952	0.532042	0.447984	-34.44	5.67	-42.84	0.2118	-0.1507	-0.461	
-0.735172	0.504958	0.444446	-30.73	5.25	-45.78	0.2075	-0.1448	-0.4673	
-0.740174	0.496418	0.440542	-31.29	5.81	-49.21	0.2194	-0.1428	-0.4783	
-0.74786	0.473482	0.44347	-33.25	6.86	-51.87	0.2197	-0.1297	-0.4739	
-0.761402	0.438346	0.440298	-37.94	7.28	-52.92	0.2184	-0.1195	-0.4756	
-0.773968	0.409676	0.44347	-36.33	7.77	-53.55	0.2275	-0.1105	-0.4759	
-0.77653	0.381372	0.439322	-35.91	9.31	-53.27	0.2246	-0.1061	-0.4775	
-0.792878	0.343186	0.433588	-36.19	6.37	-54.04	0.2262	-0.1019	-0.4698	
-0.79178	0.330132	0.441884	-30.17	5.39	-56	0.2324	-0.0871	-0.4717	
-0.805078	0.309148	0.439078	-33.81	9.03	-57.61	0.2356	-0.0796	-0.4781	
-0.826062	0.270962	0.454938	-37.31	4.9	-57.4	0.2386	-0.07669999	-0.4704	
-0.839116	0.262666	0.459086	-27.79	5.32	-56.35	0.2418	-0.062	-0.4723	
-0.848022	0.242048	0.469334	-34.3	4.69	-55.79	0.2375	-0.0576	-0.4755	
-0.852048	0.205692	0.483608	-33.95	2.31	-55.44	0.2526	-0.0442	-0.4727	
-0.845826	0.180804	0.457134	-27.09	0.7	-56.35	0.2465	-0.053	-0.4787	
-0.852048	0.140666	0.441396	-38.01	-3.01	-58.1	0.262	-0.0233	-0.4825	
-0.845094	0.086742	0.488854	-44.94	-2.52	-59.29	0.2502	-0.0176	-0.4872	
-0.842166	0.055876	0.463234	-34.3	-1.96	-60.34	0.2578	-0.0076	-0.4688	
-0.8357	0.010736	0.49105	-40.81	-5.18	-62.72	0.2462	0.0055	-0.4784	
-0.817034	-0.01769	0.500322	-33.04	-3.64	-62.79	0.2626	0.0116	-0.477	
-0.80398	-0.058438	0.488	-30.17	-6.23	-61.67	0.2407	0.0301	-0.4711	
-0.808128	-0.091988	0.488488	-30.1	-3.57	-59.29	0.2352	0.0493	-0.484	
-0.814594	-0.087108	0.466162	-27.37	1.68	-58.1	0.2503	0.0599	-0.4873	
-0.808494	-0.099064	0.465186	-31.71	1.89	-57.61	0.2369	0.0611	-0.4873	
-0.839116	-0.179584	0.46543	-34.72	5.25	-56.56	0.249	0.07	-0.4782	
-0.853878	-0.22387	0.456402	-28.21	5.74	-55.37	0.2433	0.0845	-0.4801	
-0.839482	-0.243024	0.453474	-26.88	2.17	-54.88	0.2434	0.0889	-0.4771	
-0.820328	-0.240584	0.450668	-25.06	-0.21	-54.32	0.2434	0.0904	-0.4802	
-0.783118	-0.229604	0.455792	-24.71	-2.45	-52.78	0.2466	0.1007	-0.4789	
-0.765062	-0.243512	0.45811	-28.49	-1.89	-50.89	0.2363	0.1063	-0.479	
-0.777872	-0.279746	0.46177	-32.34	2.73	-49.98	0.2394	0.1138	-0.4838	
-0.829356	-0.33184	0.44957	-31.71	7.56	-49.77	0.2427	0.1257	-0.4872	
-0.82228	-0.314272	0.433466	-28.56	3.92	-50.54	0.2385	0.1399	-0.4735	
-0.798612	-0.318054	0.427	-31.01	4.62	-50.05	0.2517	0.1328	-0.4703	
-0.798734	-0.344894	0.429562	-34.93	4.55	-48.37	0.2253	0.1499	-0.4737	
-0.816546	-0.398696	0.427732	-38.08	4.2	-46.41	0.2357	0.1516	-0.4706	
-0.794952	-0.401136	0.408822	-32.27	-0.49	-44.66	0.224	0.1573	-0.4785	
-0.78812	-0.422242	0.416996	-34.51	1.68	-44.38	0.2257	0.1688	-0.4648	
-0.81679	-0.467992	0.411384	-36.33	4.48	-43.75	0.2272	0.172	-0.4741	
-0.806542	-0.4941	0.409676	-32.41	2.94	-43.47	0.2333	0.1821	-0.4635	
-0.80398	-0.502274	0.398696	-30.59	3.29	-43.54	0.2261	0.1906	-0.4575	
-0.801784	-0.512644	0.398086	-28.7	1.47	-42.28	0.2291	0.1908	-0.4621	
-0.78934	-0.530456	0.405528	-25.55	-0.42	-40.53	0.2234	0.2038	-0.4608	
-0.7991	-0.551074	0.399672	-26.11	1.33	-36.54	0.2144	0.2036	-0.4577	
-0.78324	-0.562542	0.403332	-21.7	2.38	-32.34	0.2055	0.1991	-0.4638	
-0.769576	-0.55205	0.39833	-16.31	0.07	-28.84	0.2073	0.2196	-0.458	
-0.77653	-0.566446	0.385886	-15.68	1.19	-25.13	0.2076	0.2343	-0.4646	
-0.77165	-0.572668	0.383812	-12.74	-0.42	-21.91	0.2044	0.2194	-0.4534	
-0.773114	-0.58377	0.387106	-10.92	0.49	-17.99	0.203	0.2238	-0.455	
-0.786534	-0.588284	0.376492	-7.98	0.14	-14.42	0.2045	0.2266	-0.4458	
-0.776774	-0.588162	0.383324	-5.25	-2.24	-11.48	0.2001	0.2295	-0.4505	
-0.760792	-0.588284	0.38552	-2.8	-3.5	-8.82	0.1955	0.2222	-0.4565	
-0.756278	-0.585478	0.387106	-0.91	-3.43	-6.93	0.2091	0.2327	-0.4552	
-0.749934	-0.575474	0.39101	-0.28	-3.85	-5.39	0.1927	0.231	-0.4598	
-0.746274	-0.57645	0.39345	-0.07	-3.57	-2.94	0.1973	0.237	-0.4631	
-0.746396	-0.582916	0.38186	-1.12	-3.85	-0.21	0.1973	0.237	-0.4615	
-0.751032	-0.595848	0.39772	-4.62	-3.71	2.45	0.1929	0.2398	-0.46	
-0.73078	-0.599508	0.404796	-1.47	-4.27	4.9	0.1885	0.2441	-0.4585	
-0.724924	-0.616466	0.407968	1.33	-4.48	7.14	0.2017	0.237	-0.4569	
-0.725168	-0.611098	0.419558	5.53	-4.62	9.17	0.1973	0.2399	-0.4585	
-0.727364	-0.614026	0.43066	6.65	-2.59	11.55	0.2003	0.2385	-0.4584	
-0.73383	-0.61427	0.420168	8.68	-1.19	15.12	0.2075	0.2282	-0.4505	
-0.734196	-0.595848	0.40931	11.06	-0.91	18.62	0.2002	0.2327	-0.4614	
-0.736514	-0.584014	0.41419	12.39	-0.77	21.84	0.2075	0.2269	-0.4598	
-0.735782	-0.588406	0.42273	13.58	-0.35	24.85	0.2118	0.2182	-0.4611	
-0.746152	-0.590602	0.41968	15.12	0.35	28.35	0.206	0.2241	-0.469	
-0.763476	-0.601826	0.415654	17.36	-0.07	32.62	0.2056	0.2079	-0.464	
-0.759938	-0.582062	0.425414	22.54	-1.05	36.19	0.2072	0.2151	-0.4548	
-0.74725	-0.553148	0.428586	25.13	-1.12	39.62	0.2175	0.2068	-0.4687	
-0.75091	-0.528626	0.426512	26.53	-0.07	43.89	0.204	0.2006	-0.4654	
-0.758718	-0.50386	0.419802	27.09	0.77	48.16	0.2231	0.1908	-0.4668	
-0.74786	-0.483242	0.438468	25.9	2.1	52.5	0.2198	0.1734	-0.4819	
-0.745298	-0.467992	0.436638	26.88	3.29	56.84	0.2245	0.1834	-0.462	
-0.768966	-0.449448	0.418948	28.14	5.18	60.41	0.2287	0.1734	-0.4695	
-0.785436	-0.429074	0.40748	26.88	5.46	62.72	0.2302	0.1722	-0.485	
-0.785436	-0.398208	0.409798	30.03	4.55	64.12	0.236	0.1661	-0.4678	
-0.794342	-0.361974	0.41358	30.52	4.69	65.66	0.2373	0.1576	-0.4785	
-0.813618	-0.331962	0.412482	30.87	5.6	67.69	0.2355	0.1399	-0.4719	
-0.811422	-0.29402	0.417362	31.15	3.78	69.23	0.2457	0.1299	-0.4764	
-0.7869	-0.273402	0.427732	30.17	2.87	70.49	0.2501	0.1282	-0.4624	
-0.802394	-0.25925	0.430172	28.84	6.51	71.54	0.2543	0.114	-0.4792	
-0.85339	-0.236558	0.400282	32.55	9.03	71.61	0.2572	0.1082	-0.4791	
-0.88267	-0.19459	0.399306	33.74	8.68	69.72	0.2552	0.0847	-0.477	
-0.8845	-0.150914	0.41053	35.42	6.37	68.11	0.2612	0.0906	-0.4709	
-0.868762	-0.088084	0.422852	38.22	3.29	67.9	0.2709	0.0556	-0.4686	
-0.854488	-0.032696	0.429074	36.89	2.17	68.95	0.2664	0.0511	-0.4701	
-0.86315	-0.00549	0.426634	33.39	3.78	70.07	0.275	0.034	-0.4868	
-0.879254	0.0183	0.429318	36.75	6.09	69.58	0.272	0.0321	-0.4681	
-0.892796	0.044652	0.415166	36.89	6.93	67.2	0.2748	0.0264	-0.4711	
-0.892552	0.075274	0.394182	38.36	7.7	65.31	0.2729	0.0057	-0.4629	
-0.859734	0.12261	0.380152	39.9	5.11	64.47	0.2743	0.0001	-0.4721	
-0.843142	0.176412	0.375516	39.76	4.34	63.98	0.2651	-0.0135	-0.4563	
-0.862174	0.198494	0.366732	35.14	5.46	63.7	0.2678	-0.028	-0.4622	
-0.857294	0.225944	0.369782	34.79	3.08	63.14	0.272	-0.0381	-0.4635	
-0.861198	0.260958	0.383812	34.02	1.54	62.09	0.2806	-0.0514	-0.4524	
-0.847168	0.287432	0.377956	34.51	-1.54	60.34	0.2775	-0.0599	-0.4662	
-0.821426	0.307074	0.388692	36.96	-6.93	58.87	0.2759	-0.0645	-0.4614	
-0.836188	0.36966	0.381738	37.03	-7.14	57.89	0.2758	-0.0717	-0.4644	
-0.851926	0.395402	0.402112	24.29	1.26	57.54	0.2577	-0.0869	-0.4531	
-0.843752	0.40504	0.401014	28.98	-1.12	57.89	0.2648	-0.09869999	-0.4436	
-0.821182	0.405772	0.38857	27.09	-2.17	56.84	0.2663	-0.09869999	-0.442	
-0.799466	0.42883	0.371368	31.36	-7	54.11	0.2542	-0.109	-0.4495	
-0.7869	0.423828	0.380152	30.17	-7.63	51.94	0.2616	-0.1118	-0.4495	
-0.783362	0.446276	0.395524	34.58	-7.84	50.4	0.2464	-0.1311	-0.4522	
-0.801662	0.49227	0.36905	36.19	-4.83	48.58	0.2525	-0.122	-0.4601	
-0.788608	0.508008	0.374296	31.57	-7.77	47.32	0.2479	-0.1296	-0.4538	
-0.77348	0.520818	0.375394	31.71	-7.63	46.69	0.2461	-0.1471	-0.4565	
-0.756766	0.549976	0.40565	30.24	-10.64	45.08	0.2339	-0.1608	-0.4453	
-0.772748	0.588772	0.399794	32.83	-7.84	41.3	0.2278	-0.1682	-0.4451	
-0.762256	0.613538	0.383568	28.84	-9.38	38.36	0.2262	-0.1713	-0.4404	
-0.755424	0.597312	0.37271	26.04	-9.59	35.63	0.229	-0.1829	-0.4417	
-0.745176	0.599874	0.370148	23.66	-8.96	32.9	0.2244	-0.1873	-0.4478	
-0.752252	0.615856	0.379542	21.7	-7.98	29.96	0.2142	-0.1803	-0.4402	
-0.742492	0.629398	0.372466	21.77	-9.73	27.51	0.2152	-0.2007	-0.4428	
-0.738832	0.62037	0.365146	18.76	-11.2	25.48	0.2078	-0.1997	-0.4304	

-0.720654	0.655018	0.373442	19.18	-11.13	19.6	0.2031	-0.2129	-0.4332	
-0.723948	0.646478	0.388936	18.62	-12.18	17.99	0.2016	-0.2142	-0.4425	
-0.726022	0.689422	0.40016	21.91	-11.69	16.94	0.1942	-0.2117	-0.4301	
-0.716628	0.707356	0.401868	17.78	-11.76	14.63	0.2074	-0.2185	-0.4393	
-0.704062	0.702598	0.38125	17.22	-11.41	13.23	0.1954	-0.2248	-0.4299	
-0.70516	0.68259	0.38979	8.61	-8.82	10.08	0.1849	-0.2283	-0.4127	
-0.701378	0.682834	0.378078	13.65	-9.24	5.81	0.1879	-0.2266	-0.4236	
-0.691374	0.697352	0.375882	9.59	-7.91	2.94	0.1896	-0.219	-0.4315	
-0.698328	0.701622	0.379542	6.3	-9.03	0.77	0.1834	-0.2296	-0.4204	
-0.691252	0.705892	0.384178	3.29	-8.19	-0.56	0.1911	-0.2148	-0.4223	
-0.686372	0.698084	0.396378	-3.08	-6.86	-3.01	0.182	-0.2266	-0.4251	
-0.690032	0.693326	0.38796	-2.03	-6.09	-5.04	0.1833	-0.2355	-0.4187	
-0.68198	0.681248	0.400404	-6.58	-5.11	-7.42	0.185	-0.2235	-0.4314	
-0.697962	0.693448	0.396378	-4.48	-4.41	-10.15	0.1791	-0.2236	-0.4314	
-0.698694	0.682102	0.411262	-9.31	-2.87	-12.53	0.1836	-0.2207	-0.4268	
-0.705404	0.693692	0.40321	-5.88	-2.94	-15.68	0.1866	-0.2191	-0.43	
-0.710406	0.69235	0.39101	-10.29	-3.71	-19.04	0.1808	-0.2148	-0.4347	
-0.703574	0.692838	0.40931	-15.82	-3.85	-22.19	0.1926	-0.2147	-0.4239	
-0.707356	0.690642	0.414312	-17.36	-3.22	-24.85	0.1927	-0.2115	-0.4395	
-0.702964	0.661606	0.414068	-20.93	-2.24	-27.02	0.1969	-0.2274	-0.4453	
-0.701622	0.647332	0.411384	-20.72	-0.63	-29.96	0.1913	-0.2072	-0.438	
-0.707966	0.635498	0.414068	-22.89	0.7	-33.53	0.1915	-0.2012	-0.4443	
-0.706014	0.63989	0.417362	-22.05	1.19	-37.45	0.1959	-0.201	-0.4506	
-0.709064	0.616954	0.423218	-28.63	3.5	-41.02	0.1976	-0.1936	-0.4492	
-0.704184	0.581452	0.426146	-28	3.57	-43.4	0.208	-0.1933	-0.4554	
-0.710772	0.54595	0.415166	-31.71	7.14	-45.15	0.2067	-0.1832	-0.451	
-0.727974	0.54168	0.414312	-30.73	6.93	-46.34	0.2039	-0.1745	-0.4465	
-0.748104	0.53497	0.410774	-32.27	5.95	-47.53	0.213	-0.1626	-0.4483	
-0.742858	0.492148	0.42273	-36.61	4.9	-47.74	0.2177	-0.155	-0.4578	
-0.747372	0.462258	0.41724	-32.27	3.78	-47.25	0.2149	-0.1448	-0.4596	
-0.773114	0.454938	0.43005	-35.07	9.03	-48.51	0.2227	-0.1298	-0.4692	
-0.785436	0.427488	0.426512	-33.6	7.7	-49.84	0.2256	-0.1315	-0.4552	
-0.789462	0.38552	0.422486	-36.82	10.29	-50.75	0.2422	-0.1163	-0.4633	
-0.799588	0.36844	0.427854	-29.47	7.56	-51.1	0.2393	-0.1134	-0.465	
-0.810812	0.360754	0.433588	-32.62	7.28	-51.59	0.2441	-0.0957	-0.4684	
-0.81984	0.354288	0.441396	-32.76	10.36	-52.71	0.2426	-0.0971	-0.47	
-0.826794	0.3294	0.42517	-33.46	9.17	-53.83	0.2473	-0.0839	-0.4687	
-0.854732	0.279136	0.411018	-35.28	7.49	-54.88	0.2522	-0.0647	-0.4722	
-0.863516	0.236924	0.428586	-39.27	4.2	-55.37	0.2612	-0.0573	-0.4678	
-0.862784	0.212158	0.461038	-32.2	0.14	-56.28	0.2598	-0.0586	-0.477	
-0.838628	0.198494	0.461404	-27.16	-2.38	-56.56	0.2526	-0.0443	-0.468	
-0.839482	0.1708	0.462502	-30.52	-1.33	-57.12	0.2497	-0.0401	-0.4619	
-0.846558	0.119316	0.458964	-32.97	-2.03	-56.56	0.2529	-0.0268	-0.4653	
-0.851682	0.101016	0.442128	-31.08	-2.94	-56.14	0.265	-0.0191	-0.4701	
-0.848998	0.069418	0.433344	-38.5	-3.01	-55.93	0.2594	-0.003	-0.4751	
-0.831674	0.027084	0.45445	-45.36	-0.56	-55.3	0.2609	-0.0016	-0.4721	
-0.84607	-0.029036	0.459818	-37.94	-3.71	-54.74	0.2639	0	-0.4799	
-0.865712	-0.055022	0.447496	-33.74	2.31	-54.04	0.2643	0.0189	-0.4741	
-0.854244	-0.06588	0.449936	-30.1	-0.28	-54.25	0.2557	0.035	-0.4821	
-0.819718	-0.059414	0.455426	-30.66	2.24	-53.2	0.2586	0.0349	-0.4728	
-0.822036	-0.118462	0.46299	-34.86	1.47	-51.8	0.2544	0.0449	-0.4653	
-0.84302	-0.166774	0.459818	-29.33	-0.21	-49.84	0.256	0.0525	-0.4779	
-0.867298	-0.18666	0.452864	-25.83	2.1	-48.44	0.2503	0.0639	-0.4688	
-0.873154	-0.193614	0.438468	-24.29	3.01	-47.95	0.2609	0.073	-0.4705	
-0.8601	-0.198494	0.438712	-23.38	3.92	-47.81	0.2537	0.0831	-0.4692	
-0.844606	-0.204472	0.438468	-22.89	0.84	-46.41	0.2597	0.0892	-0.4787	
-0.83997	-0.217282	0.445056	-24.71	1.82	-43.82	0.2553	0.0918	-0.4647	
-0.844118	-0.238632	0.445666	-26.74	1.89	-40.88	0.254	0.1008	-0.4758	
-0.828868	-0.239852	0.448594	-23.03	-3.08	-39.76	0.2603	0.1142	-0.4838	
-0.853268	-0.28548	0.449204	-25.41	0.98	-38.78	0.2589	0.1198	-0.4731	
-0.86864	-0.308538	0.443104	-22.89	4.06	-37.52	0.2501	0.1271	-0.4763	
-0.847656	-0.29097	0.435052	-19.74	0.77	-37.45	0.2513	0.1153	-0.473	
-0.843752	-0.2928	0.426512	-23.24	3.64	-36.33	0.2529	0.1209	-0.4576	
-0.81435	-0.295728	0.421998	-22.61	-2.66	-35.42	0.2472	0.1311	-0.464	
-0.808494	-0.312442	0.43798	-23.1	-2.59	-33.81	0.2381	0.1223	-0.47	
-0.8418	-0.356362	0.44347	-23.94	2.03	-31.71	0.2429	0.1399	-0.4688	
-0.85339	-0.364902	0.427244	-20.86	4.06	-30.1	0.2446	0.1502	-0.4691	
-0.836066	-0.349652	0.42273	-22.47	5.88	-29.33	0.2343	0.1545	-0.4722	
-0.819108	-0.347334	0.405284	-24.43	3.43	-28.14	0.2434	0.1647	-0.4616	
-0.805322	-0.366732	0.402478	-28.7	3.64	-26.88	0.2375	0.1689	-0.4586	
-0.8235	-0.408822	0.39467	-29.12	1.82	-26.25	0.2479	0.1691	-0.457	
-0.83875	-0.42944	0.396012	-25.76	4.55	-25.06	0.2407	0.1808	-0.4635	
-0.834358	-0.430538	0.379176	-24.08	3.08	-24.36	0.229	0.1863	-0.4589	
-0.838994	-0.433588	0.374296	-24.22	3.64	-23.17	0.2407	0.1764	-0.4634	
-0.831064	-0.461648	0.388204	-25.55	0.49	-22.68	0.2439	0.1935	-0.4389	