Sensor string: E
Serial number: 1970-01-0000
Firmware version: 2,015
Hardware version: 2,2
Calibration quality: 5
ax	ay	az	gx	gy	gz	mx	my	mz

-1.006378	0.111874	0.000488	-0.56	0.07	0.14	0.4061	0.0028	-0.2432	Reference
-1.005402	0.11285	0.001342	-0.21	-0.14	0.07	0.4062	-0.0016	-0.2417	
-1.005402	0.111874	0.001708	-0.14	-0.35	0.14	0.4105	-0.0017	-0.2417	
-1.007354	0.112972	-0.00122	0.21	-0.42	0.21	0.4032	-0.003	-0.2326	
-1.009428	0.113582	-0.000488	0.21	-0.14	0.21	0.4047	-0.0046	-0.2372	
-1.005646	0.114558	0.001464	-0.07	0.07	0.14	0.3974	0	-0.234	
-1.006988	0.114314	0.001952	-0.42	-0.21	0.14	0.4032	0.0014	-0.2417	
-1.008086	0.113216	0.002318	-0.7	-0.35	0.14	0.4004	-0.0001	-0.2447	
-1.005524	0.113094	0.00061	-0.14	-0.63	0	0.4061	0.0013	-0.2432	
-1.007842	0.114314	0.000732	-0.21	-0.63	0.07	0.4062	-0.0002	-0.2478	
-1.006988	0.113948	0.002318	-0.07	-0.49	-0.07	0.4047	0.0014	-0.2371	
-1.0065	0.11407	0.002806	-0.35	-0.49	-0.07	0.4003	0.0045	-0.234	
-1.00833	0.11346	0.002562	-0.56	-0.35	-0.07	0.4017	0.0075	-0.237	
-1.005158	0.113216	0.003782	-0.07	-0.35	-0.21	0.406	0.0105	-0.2401	
-1.005646	0.11224	0.004636	-0.07	-0.63	-0.14	0.396	-0.0015	-0.2417	
-1.0065	0.112118	0.002806	0.35	-0.63	-0.21	0.3931	0	-0.2416	
-1.007476	0.11285	0.003782	0.49	-0.42	-0.14	0.4119	0.0012	-0.2448	
-1.005768	0.114192	0.005246	0.56	-0.35	-0.07	0.409	0.0058	-0.2462	
-1.007842	0.110898	0.00549	-0.14	-0.28	0	0.4018	-0.0016	-0.2447	
-1.00711	0.110288	0.003172	-0.14	-0.91	0.07	0.4048	-0.0093	-0.2433	
-1.00406	0.109312	0.00427	0.7	-0.77	0.21	0.4075	0.0044	-0.2401	
-1.00711	0.114314	0.005734	1.75	-0.21	0.07	0.3973	0.0122	-0.2324	
-1.010892	0.1159	0.003904	0.14	-0.91	-0.07	0.3989	-0.0046	-0.2402	
-1.005646	0.113948	0.001464	-0.56	-1.54	0	0.412	-0.0064	-0.2509	
-1.006256	0.111264	0.00366	-0.98	-0.63	0.21	0.4032	0.0045	-0.2355	
-1.007598	0.112118	0.004392	-1.33	-0.35	0.14	0.4133	0.0043	-0.2432	
-1.00589	0.112362	0.004514	-1.47	-0.14	0	0.3975	-0.0016	-0.2462	
-1.004914	0.112728	0.005368	-0.63	0.28	-0.28	0.4047	-0.0032	-0.2463	
-1.007354	0.11346	0.006344	0.07	0.07	-0.28	0.4091	-0.0017	-0.2417	
-1.005646	0.113216	0.006222	0.77	-0.35	-0.07	0.4046	0.0044	-0.2416	
-1.007232	0.111996	0.008417999	0.7	-0.49	0.14	0.4046	0.0029	-0.2356	
-1.006622	0.112118	0.009028	0.98	-0.7	0.14	0.4033	-0.0062	-0.2433	
-1.006134	0.110166	0.008662	-0.14	-1.12	0.07	0.4018	0	-0.2417	
-1.008086	0.110166	0.00854	-0.42	-1.19	0.07	0.4046	0.009	-0.2447	
-1.007842	0.111508	0.005856	0.28	-0.91	0.07	0.3989	-0.0015	-0.2417	
-1.007598	0.114192	0.00549	1.54	-1.4	0.07	0.3945	0.0001	-0.2294	
-1.005646	0.113826	0.008174	2.38	-1.47	-0.07	0.4018	0.0014	-0.2447	
-1.008208	0.113338	0.008296	1.96	-0.98	0.07	0.4002	0.0137	-0.237	
-1.004182	0.113094	0.008662	1.33	-0.84	0.07	0.4032	0.0014	-0.2356	
-1.005768	0.112362	0.00976	0.84	-0.63	0	0.4134	-0.0001	-0.2356	
-1.006866	0.111508	0.009393999	1.12	-0.56	-0.14	0.406	0.006	-0.2371	
-1.007964	0.111508	0.009516	1.4	-0.91	0	0.4076	0.0028	-0.2432	
-1.010038	0.111508	0.008174	2.1	-1.33	0.07	0.4076	-0.0001	-0.2417	
-1.010282	0.112118	0.009638	2.52	-1.47	0.14	0.4075	0.0059	-0.2432	
-1.006988	0.114924	0.008174	3.43	-1.61	0.07	0.3975	-0.0015	-0.2401	
-1.009184	0.11285	0.00854	0.63	-2.24	0.14	0.4018	0.0013	-0.2478	
-1.008696	0.111752	0.008174	2.03	-1.68	0	0.3989	-0.0001	-0.2478	
-1.003694	0.110776	0.008905999	2.66	-1.75	-0.14	0.399	-0.0062	-0.2463	
-1.003206	0.112972	0.010492	2.87	-1.61	-0.14	0.396	0	-0.2447	
-1.007964	0.111752	0.010858	2.59	-1.47	-0.07	0.4047	-0.0001	-0.2417	
-1.009184	0.114558	0.008174	1.82	-2.38	-0.07	0.4031	0.009	-0.2431	
-1.015894	0.11285	0.006466	1.26	-2.52	0	0.4018	-0.0061	-0.2372	
-1.010282	0.112728	0.010004	1.61	-2.52	-0.07	0.4046	0.0105	-0.2446	
-1.011502	0.111874	0.009881999	2.1	-3.36	0.07	0.4077	-0.0032	-0.2494	
-1.007842	0.109678	0.013054	2.73	-4.48	-0.07	0.4047	-0.0016	-0.2448	
-1.00955	0.117486	0.010248	3.43	-5.74	-0.21	0.3945	0.009	-0.2522	
-1.01077	0.114924	0.008174	2.31	-6.09	0	0.4017	0.0135	-0.2538	
-1.021384	0.11773	0.001342	-0.63	-6.58	-0.21	0.399	-0.0047	-0.257	
-1.02358	0.115656	-0.003538	-0.98	-6.72	-0.56	0.4004	0.0044	-0.2538	
-1.028094	0.116022	0.001464	-0.63	-6.86	-0.49	0.412	-0.0034	-0.2555	
-1.028094	0.114314	0.009028	1.61	-7.84	-0.49	0.3932	-0.0061	-0.2493	
-1.019554	0.114436	0.018544	3.43	-9.59	-0.49	0.4005	-0.0047	-0.2524	
-1.019432	0.1159	0.01586	3.99	-12.25	-0.7	0.3989	0.0059	-0.2492	
-1.018334	0.112118	0.015982	-0.28	-14	-0.98	0.4019	-0.0032	-0.2539	
-1.023214	0.112118	0.017568	1.47	-16.03	-0.63	0.402	-0.0109	-0.2631	
-1.027362	0.119438	0.019398	3.92	-15.54	-0.91	0.3989	0.0089	-0.2568	
-1.030168	0.116266	0.030378	3.15	-15.61	-1.19	0.399	0.0043	-0.2645	
-1.04249	0.116876	0.035746	0.28	-17.29	-1.54	0.389	-0.0107	-0.2585	
-1.036024	0.116632	0.033428	1.75	-20.86	-1.82	0.3817	-0.0046	-0.2675	
-1.033584	0.116876	0.049898	4.27	-22.96	-2.45	0.3874	0.0058	-0.2797	
-1.03334	0.116022	0.050386	-1.19	-29.54	-1.82	0.3831	0.0059	-0.2766	
-1.023702	0.106994	0.035502	4.9	-27.16	-2.94	0.3861	-0.0032	-0.2737	
-0.952088	0.083814	0.0671	-7.42	-26.18	-1.68	0.3774	-0.0032	-0.2828	
-1.058228	0.125538	0.06893	7.56	-23.87	-3.15	0.376	-0.0002	-0.2965	
-1.016138	0.113704	0.099796	1.47	-34.09	-2.66	0.3716	0.0043	-0.2933	
-1.020286	0.097112	0.104432	-6.72	-36.05	-0.91	0.3731	-0.0032	-0.2888	
-1.01382	0.106628	0.082838	-1.05	-33.6	-1.75	0.3701	0.0044	-0.2888	
-1.0248	0.100406	0.101138	-5.95	-33.6	-0.84	0.3629	0.0044	-0.3009	
-1.017114	0.111264	0.131638	0.21	-35.63	0.63	0.3645	-0.0002	-0.3086	
-0.986736	0.116754	0.155184	3.5	-36.4	0.63	0.3689	-0.0049	-0.3163	
-1.099098	0.066612	0.173606	-1.4	-39.83	1.54	0.3499	0.009099999	-0.3054	
-0.881206	0.15555	0.280844	50.12	-51.87	-7.28	0.3529	-0.0001	-0.3162	
-0.92171	-0.030378	0.165432	-57.68	-60.83	7.28	0.3486	-0.0002	-0.3283	
-1.03151	0.239364	-0.006588	42.91	-36.47	-10.22	0.3444	-0.0018	-0.3405	
-0.997716	0.0488	0.358558	1.96	-31.99	0.98	0.3371	-0.0001	-0.3359	
-0.869982	0.162504	0.307562	7.91	-55.79	-3.43	0.3254	0.0121	-0.3418	
-0.976854	0.100894	0.133102	-9.03	-46.9	-2.66	0.3255	0.0029	-0.345	
-1.007964	0.103578	0.33123	-5.88	-35.77	-0.91	0.3227	-0.0062	-0.3527	
-1.077016	0.072102	0.341844	-0.63	-47.67	-6.3	0.3184	0.0043	-0.3678	
-0.932568	0.111386	0.356972	4.2	-61.6	-9.24	0.3024	0.0015	-0.3632	
-0.950014	0.048678	0.203618	-4.9	-52.22	-5.53	0.3039	0.003	-0.3678	
-0.891698	0.10614	0.473238	19.88	-37.87	-11.69	0.2938	0.006	-0.3814	
-0.921344	0.04453	0.388692	-14.07	-70	-3.64	0.2938	-0.0015	-0.3769	
-0.942816	0.026718	0.295972	16.8	-57.68	-12.88	0.2794	0.0016	-0.3875	
-0.82716	0.197396	0.491904	-18.34	-73.43	3.57	0.2649	0.0048	-0.3904	
-0.908656	0.068686	0.133224	44.87	-45.78	-12.46	0.2547	0.0079	-0.3964	
-0.878644	-0.003538	0.626226	-59.71	5.32	12.32	0.2606	0.0032	-0.3965	
-0.964532	0.063684	0.794464	-1.47	-88.13	-3.57	0.2562	0.0093	-0.4041	
-0.853024	0.12627	-0.193858	14.14	-75.95	-5.81	0.2417	0.014	-0.4131	
-0.809958	0.076128	0.870714	-5.53	2.17	1.19	0.2316	0.0125	-0.4222	
-0.932202	0.000122	0.64538	-0.07	-71.4	-7.63	0.2302	0.005	-0.4162	
-0.754204	0.108458	0.351116	4.48	-80.78	-8.75	0.2229	0.0127	-0.4206	
-0.776896	0.021106	0.490684	-6.86	-26.95	-0.98	0.207	0.0158	-0.4312	
-0.81618	0.032452	0.816302	-3.43	-38.78	-2.52	0.2115	0.0111	-0.442	
-0.753838	0.093086	0.426512	0.84	-72.1	-2.17	0.2042	0.0127	-0.4404	
-0.759084	0.056364	0.557906	4.27	-29.33	0	0.2013	0.0142	-0.4464	
-0.8052	0.059414	0.748714	-8.61	-35.77	0.14	0.197	0.009699999	-0.4434	
-0.718336	0.052948	0.537044	-6.44	-51.87	2.31	0.1839	0.0145	-0.4418	
-0.775432	0.03599	0.771406	-11.62	-30.8	1.82	0.1753	0.0129	-0.4585	
-0.751764	0.050508	0.657946	6.02	-51.73	-2.03	0.1679	0.0222	-0.4508	
-0.732732	0.040016	0.604022	-1.54	-40.88	-0.42	0.1608	0.0132	-0.4463	
-0.704428	0.036966	0.749934	-6.58	-32.62	-0.21	0.1491	0.0255	-0.4537	
-0.677466	0.061976	0.706136	2.31	-43.89	-4.27	0.1492	0.0178	-0.4614	
-0.686982	0.043188	0.640134	-2.87	-34.58	-2.31	0.1434	0.0224	-0.4613	
-0.671854	0.035624	0.772992	-3.71	-31.08	-2.45	0.1377	0.0118	-0.466	
-0.676978	0.033184	0.663558	-3.92	-35.77	-0.84	0.1318	0.021	-0.4628	
-0.670756	0.040016	0.779458	-0.56	-25.48	-1.89	0.1289	0.018	-0.4644	
-0.65758	0.043066	0.733098	-0.49	-32.27	-0.98	0.1246	0.0165	-0.4704	
-0.6405	0.032208	0.74237	-1.75	-24.01	-1.12	0.1131	0.0136	-0.4658	
-0.667218	0.022448	0.793	-2.24	-21.28	-1.4	0.1087	0.0151	-0.4688	
-0.618906	0.030378	0.765916	0.28	-23.17	-2.59	0.1072	0.0197	-0.4688	
-0.614514	0.034526	0.773602	-3.29	-14.7	-1.82	0.1086	0.0228	-0.4642	
-0.622688	0.045262	0.801052	-2.8	-11.76	-2.17	0.0985	0.0199	-0.4672	
-0.612562	0.051606	0.78202	-2.59	-11.62	-3.08	0.1044	0.0152	-0.4658	
-0.614636	0.04331	0.803248	-4.97	-4.55	-3.36	0.1028	0.0275	-0.4657	
-0.609512	0.039162	0.813374	-3.92	-4.06	-3.92	0.1029	0.0198	-0.4688	
-0.605364	0.025132	0.822524	-1.54	2.45	-4.9	0.0883	0.0262	-0.461	
-0.602558	0.02196	0.823866	0.56	5.39	-4.62	0.1115	0.0273	-0.4688	
-0.596214	0.018788	0.81923	2.59	9.52	-4.55	0.0985	0.0275	-0.4717	
-0.593652	0.018544	0.818254	3.92	13.86	-4.55	0.1059	0.0136	-0.4765	
-0.58011	0.01708	0.814228	4.27	18.2	-3.85	0.1114	0.0304	-0.4703	
-0.59658	0.016714	0.802028	3.71	25.06	-2.59	0.113	0.0197	-0.4643	
-0.584258	0.01708	0.814594	3.78	31.22	-2.03	0.1202	0.0242	-0.4612	
-0.593896	0.01403	0.772748	4.69	36.4	-1.33	0.1217	0.0211	-0.4719	
-0.589016	0.020008	0.781288	6.02	42.77	-1.05	0.1244	0.0318	-0.4627	
-0.614514	0.024278	0.743102	4.41	47.32	-0.84	0.1318	0.0225	-0.4674	
-0.612806	0.02562	0.72468	3.43	53.9	-0.28	0.1376	0.0194	-0.4659	
-0.693936	0.026962	0.712358	2.73	58.24	-1.4	0.1448	0.0194	-0.4568	
-0.638304	0.024766	0.685518	7.91	59.99	-1.26	0.1506	0.0269	-0.4629	
-0.695156	0.03416	0.651602	7.14	64.75	-0.07	0.1636	0.0223	-0.4523	
-0.719678	0.039162	0.63074	1.68	68.95	-0.56	0.1723	0.0206	-0.4508	
-0.726876	0.035014	0.587064	1.89	71.75	0.07	0.1838	0.0206	-0.4417	
-0.774822	0.031842	0.558638	1.75	77.56	0.56	0.1955	0.0113	-0.4388	
-0.77653	0.02379	0.553636	-2.59	79.66	1.19	0.1998	0.0113	-0.4312	
-0.81923	0.03477	0.489586	1.12	77.91	2.03	0.2345	0.0156	-0.4191	
-0.828868	0.030988	0.46909	2.73	81.27	2.1	0.2344	0.0217	-0.416	
-0.844728	0.035258	0.456646	-2.94	80.57	1.82	0.243	0.0232	-0.4084	
-0.876814	0.047092	0.415776	0.49	78.96	1.89	0.2619	0.0169	-0.401	
-0.895114	0.041602	0.388692	-1.61	79.17	3.01	0.2734	0.0184	-0.3964	
-0.920002	0.058072	0.353434	0.49	78.33	3.64	0.282	0.0214	-0.3858	
-0.883036	0.08235	0.350628	-0.42	76.51	5.39	0.2864	0.0184	-0.3782	
-0.96258	0.126392	0.227164	-48.23	73.15	14.49	0.2951	0.0138	-0.3676	
-0.957822	0.02867	0.185196	58.24	92.26	-6.3	0.3109	0.0182	-0.3631	
-0.946598	0.083448	0.200324	-22.54	109.48	4.34	0.3225	0.0136	-0.3479	
-0.94367	0.092232	0.228628	-13.37	94.29	11.83	0.3297	0.0122	-0.3312	
-0.989908	0.047336	0.248392	-29.68	79.03	12.6	0.3426	0.0166	-0.3251	
-0.966118	0.088206	0.12749	-9.38	66.43	10.43	0.3499	0.015	-0.3252	
-0.969778	0.076128	0.058438	0.77	73.85	10.15	0.3513	0.012	-0.3176	
-1.007842	0.095282	0.042822	13.44	88.83	9.17	0.3569	0.0198	-0.2962	
-1.0126	0.094306	0.054046	10.29	96.81	11.06	0.3758	0.0089	-0.2872	
-1.00467	0.099674	0.043066	-9.66	90.09	14.77	0.3817	0.0043	-0.2842	
-1.00711	0.086498	0.010858	-9.31	92.68	16.38	0.3916	0.0135	-0.269	
-0.95953	0.088816	-0.021106	3.78	92.75	14.07	0.3974	0.0121	-0.2507	
-0.970876	0.101016	0.014518	14	83.16	13.23	0.4118	0.0044	-0.2325	
-1.047736	0.085644	-0.007929999	24.15	77.14	12.46	0.4119	-0.0016	-0.2295	
-1.011136	0.129686	-0.081008	22.12	57.19	11.48	0.422	-0.0031	-0.2143	
-0.859368	0.118218	-0.144448	7.49	30.31	11.69	0.4162	-0.0076	-0.2083	
-1.014796	0.172874	-0.16897	-1.26	1.4	10.85	0.4162	-0.009	-0.1991	
-1.10105	0.09638	-0.122976	-17.71	13.44	12.39	0.4249	-0.009099999	-0.2007	
-1.004792	0.12017	-0.064538	31.64	56.35	14.77	0.4235	-0.0107	-0.2022	
-0.980758	0.11773	-0.06954	4.06	60.48	14.14	0.4205	-0.0151	-0.1885	
-0.998936	0.127612	-0.149816	3.85	42.77	12.11	0.4336	-0.0198	-0.1871	
-1.03273	0.145546	-0.241194	16.66	52.15	12.11	0.4306	-0.009	-0.1824	
-1.042002	0.158966	-0.288774	22.96	66.43	11.2	0.4378	-0.0166	-0.1627	
-1.036756	0.150182	-0.285114	8.54	67.41	10.85	0.4378	-0.0196	-0.1551	
-1.00955	0.147376	-0.254126	3.5	66.78	10.71	0.4407	-0.0225	-0.1399	
-1.011136	0.153232	-0.273768	5.88	59.36	10.5	0.4422	-0.0302	-0.1354	
-1.061644	0.160796	-0.347456	7.56	48.93	8.19	0.4436	-0.0362	-0.1232	
-0.97539	0.135908	-0.333914	-0.42	49.63	7.35	0.4551	-0.0241	-0.1186	
-1.001376	0.163602	-0.366488	34.72	49.14	11.41	0.4421	-0.0331	-0.1186	
-0.9577	0.167872	-0.323666	8.47	33.46	7.07	0.4566	-0.0361	-0.0989	
-0.97173	0.179706	-0.316956	5.95	29.12	5.53	0.4522	-0.033	-0.0988	
-0.977098	0.177266	-0.34526	0.28	23.45	6.02	0.4536	-0.03	-0.1004	
-0.956724	0.175314	-0.400282	1.82	20.51	6.51	0.4595	-0.0468	-0.08679999	
-0.932446	0.171044	-0.422364	5.46	23.73	5.39	0.445	-0.045	-0.0837	
-0.932446	0.172752	-0.416264	2.03	24.29	3.22	0.4551	-0.0436	-0.0837	
-0.953186	0.18178	-0.427976	5.6	23.52	0.77	0.4509	-0.0497	-0.08679999	
-0.960994	0.179096	-0.432246	2.8	21.42	-0.35	0.4493	-0.048	-0.0654	
-0.957212	0.165432	-0.419192	0.91	20.3	0.35	0.4652	-0.0406	-0.0715	
-0.96075	0.164334	-0.42883	3.36	19.6	0.42	0.4593	-0.0374	-0.0715	
-0.931958	0.185074	-0.433344	7.14	21.56	0.28	0.455	-0.045	-0.0654	
-0.90829	0.183366	-0.434076	-0.21	16.8	0.7	0.4521	-0.0464	-0.0532	
-0.885232	0.170434	-0.414678	-1.05	14.42	3.01	0.468	-0.0374	-0.0563	
-0.903044	0.172874	-0.42578	0.7	12.67	4.55	0.4565	-0.0449	-0.0578	
-0.935374	0.167384	-0.440054	0.98	12.04	4.62	0.4608	-0.0434	-0.0547	
-0.945744	0.176534	-0.435418	5.6	14.35	3.29	0.4536	-0.0494	-0.0471	
-0.92171	0.179462	-0.400892	1.68	10.64	3.01	0.4564	-0.0433	-0.044	
-0.899628	0.179096	-0.415166	-3.5	2.66	2.87	0.4565	-0.051	-0.0472	
-0.91805	0.176412	-0.441152	-0.42	4.69	3.5	0.4549	-0.0448	-0.0441	
-0.91866	0.172996	-0.450912	0.77	4.13	2.66	0.458	-0.0541	-0.0518	
-0.903166	0.185806	-0.45689	3.43	4.27	0.91	0.4579	-0.0464	-0.0441	
-0.89609	0.187026	-0.442128	0.98	4.2	0.42	0.4637	-0.0465	-0.0502	
-0.91439	0.187758	-0.43371	-3.43	0.56	0.49	0.4579	-0.0525	-0.0441	
-0.918782	0.189344	-0.432368	-4.34	-1.82	1.47	0.4608	-0.051	-0.0441	
-0.909632	0.18971	-0.438468	-3.08	-4.48	1.68	0.4506	-0.0417	-0.0425	
-0.908412	0.18666	-0.44774	-2.31	-5.81	2.03	0.4505	-0.0416	-0.0394	
-0.913292	0.185684	-0.438346	0.77	-3.36	1.89	0.4551	-0.0571	-0.0533	
-0.909876	0.182268	-0.417484	-1.4	-3.78	0.98	0.4581	-0.0602	-0.0534	
-0.909876	0.194224	-0.415288	-3.85	-7.42	0	0.4564	-0.0448	-0.0471	
-0.915976	0.191052	-0.40443	-6.09	-7.84	-0.14	0.4608	-0.0434	-0.0547	
-0.93391	0.193492	-0.40504	-6.09	-9.87	0	0.4637	-0.0511	-0.0533	
-0.928786	0.187392	-0.423218	-6.23	-12.74	0.14	0.4535	-0.0494	-0.0441	
-0.935008	0.182756	-0.427	-5.04	-12.32	0.84	0.4551	-0.0556	-0.0564	
-0.928908	0.185806	-0.40626	-2.38	-11.41	-0.21	0.4522	-0.054	-0.0502	
-0.927688	0.190076	-0.39284	-4.13	-12.74	-1.12	0.4536	-0.054	-0.0518	
-0.93391	0.1952	-0.397354	-5.11	-12.46	-1.54	0.4637	-0.045	-0.0594	
-0.922198	0.198372	-0.402722	-6.09	-14.56	-1.96	0.4464	-0.0525	-0.0609	
-0.93574	0.19581	-0.406992	-1.61	-14.49	-2.1	0.4507	-0.048	-0.0624	
-0.935618	0.189344	-0.403576	-1.26	-16.31	-1.82	0.4507	-0.0419	-0.0715	
-0.925004	0.193126	-0.389912	-2.52	-19.53	-2.45	0.4579	-0.0329	-0.0775	
-0.938546	0.191052	-0.377712	-3.22	-21.98	-3.43	0.458	-0.0482	-0.0746	
-0.944402	0.193614	-0.370514	-4.41	-23.1	-4.41	0.4536	-0.0421	-0.0822	
-0.955016	0.187758	-0.366244	-6.79	-24.57	-4.76	0.4508	-0.0451	-0.0837	
-0.960994	0.188978	-0.358558	-5.95	-25.69	-4.62	0.458	-0.0406	-0.0867	
-0.957334	0.187758	-0.338916	-2.17	-22.33	-4.48	0.4537	-0.0407	-0.09739999	
-0.951478	0.193248	-0.346236	-4.13	-28.21	-4.48	0.4582	-0.05	-0.1036	
-0.97234	0.19154	-0.34892	-7.84	-34.86	-5.18	0.4522	-0.0391	-0.0989	
-0.975756	0.184464	-0.326838	-9.45	-36.96	-5.46	0.4523	-0.0422	-0.1035	
-0.96685	0.174948	-0.304878	-9.17	-35.21	-6.51	0.4552	-0.0394	-0.1187	
-0.969778	0.17263	-0.305976	-7.28	-36.05	-6.93	0.4452	-0.0408	-0.1279	
-0.977586	0.1769	-0.29829	-3.36	-35.49	-7.14	0.4466	-0.0409	-0.1279	
-0.97722	0.187148	-0.273646	-1.75	-38.08	-8.26	0.4408	-0.0393	-0.1324	
-0.962702	0.184098	-0.26047	-4.69	-41.09	-8.96	0.4393	-0.0271	-0.1369	
-0.995398	0.167994	-0.265106	-12.81	-46.62	-9.17	0.4393	-0.0286	-0.1369	
-0.99552	0.163846	-0.246562	-3.71	-46.2	-10.29	0.4393	-0.0242	-0.1521	
-1.011014	0.152988	-0.220576	-4.06	-49.21	-9.73	0.4409	-0.0334	-0.1568	
-1.0065	0.152988	-0.207156	-2.31	-53.27	-9.45	0.435	-0.0242	-0.1597	
-1.003572	0.150304	-0.205692	-1.68	-55.58	-10.01	0.4321	-0.0166	-0.1703	
-1.022238	0.152256	-0.194956	-4.48	-53.83	-9.73	0.4278	-0.0183	-0.1947	
-1.01382	0.143472	-0.174704	0	-50.19	-10.29	0.4307	-0.0198	-0.184	
-1.012966	0.138836	-0.143716	2.24	-50.19	-9.38	0.4308	-0.0215	-0.2054	
-1.023214	0.128588	-0.130784	2.03	-53.27	-8.89	0.4191	-0.009099999	-0.2037	
-1.006134	0.127856	-0.11529	4.76	-50.54	-9.59	0.4207	-0.0214	-0.2145	
-1.018456	0.12993	-0.09882	5.46	-44.66	-8.61	0.4077	-0.0183	-0.2205	
-0.993202	0.134688	-0.064904	3.71	-46.83	-9.1	0.4149	-0.0139	-0.2297	
-0.99735	0.12688	-0.073688	-3.92	-50.61	-9.66	0.399	-0.0122	-0.2402	
-1.010282	0.13115	-0.0549	5.25	-47.32	-9.59	0.4019	-0.0108	-0.2418	
-1.007598	0.11895	-0.01098	2.52	-47.32	-8.54	0.4004	-0.0062	-0.2432	
-0.99979	0.10797	0.008174	0	-42.28	-6.65	0.3932	-0.0077	-0.2524	
-0.99796	0.122366	0.009516	-0.7	-39.34	-5.53	0.3948	-0.0093	-0.2616	
-0.981124	0.128832	0.064172	-1.4	-44.66	-4.69	0.3889	0.0028	-0.2751	
-1.034438	0.098942	0.12383	-13.02	-58.45	-4.62	0.3889	-0.0032	-0.266	
-0.98698	0.100162	0.10492	1.33	-54.39	-6.58	0.3759	0.0014	-0.2797	
-0.942938	0.103944	0.14213	6.3	-54.32	-9.38	0.3716	-0.0016	-0.2827	
-0.958798	0.09942999	0.167384	0.49	-58.66	-7.91	0.3687	0.0044	-0.2903	
-0.969778	0.08113	0.165432	-5.95	-65.31	-8.75	0.3687	0.0028	-0.3025	
-0.958676	0.06283	0.194224	-1.19	-56.21	-8.05	0.363	0.0028	-0.307	
-0.953552	0.074908	0.253516	9.52	-53.69	-8.61	0.3471	0.0029	-0.3192	
-0.964288	0.08235	0.261324	3.08	-56.42	-8.47	0.3369	0.0106	-0.3282	
-0.956236	0.09211	0.23973	-2.66	-62.37	-9.31	0.3399	0.0043	-0.3389	
-0.929518	0.071736	0.244732	-2.59	-55.86	-8.82	0.3284	0.0059	-0.3465	
-0.953918	0.065026	0.291702	2.24	-52.15	-7.21	0.3212	0.0014	-0.345	
-0.947696	0.046848	0.327204	2.52	-53.06	-6.65	0.3139	0.0076	-0.354	
-0.93086	0.04514	0.33306	-1.96	-54.25	-6.51	0.3154	0.0074	-0.3678	
-0.927932	0.039772	0.32452	1.75	-57.96	-5.39	0.2995	0.0121	-0.3737	
-0.92903	0.070394	0.325862	2.45	-60.2	-3.71	0.2965	0.0153	-0.3676	
-0.90829	0.064416	0.327692	6.16	-53.69	-3.92	0.2865	0.0092	-0.3829	
-0.916952	0.039528	0.395402	-2.38	-52.43	-1.47	0.2821	0.0138	-0.3843	
-0.91866	0.05795	0.415166	4.06	-57.33	-3.5	0.2807	0.0092	-0.3859	
-0.91134	0.05368	0.398574	0.84	-61.39	-2.8	0.265	0.0031	-0.4103	
-0.929884	0.066734	0.434198	5.04	-54.95	-2.31	0.2677	0.0123	-0.3995	
-0.879376	0.053436	0.480924	5.95	-55.79	-2.38	0.2561	0.0124	-0.401	
-0.873032	0.050142	0.471286	-3.15	-56.84	-1.19	0.249	0.0078	-0.4117	
-0.832528	0.075518	0.48922	5.11	-54.39	-4.27	0.2361	0.0018	-0.4193	
-0.849608	0.070272	0.489952	-8.96	-57.47	-0.49	0.2418	0.0034	-0.4056	
-0.816424	0.060268	0.48678	2.31	-50.82	-3.15	0.2216	0.0065	-0.4237	
-0.797392	0.04941	0.554124	-4.34	-39.97	-3.5	0.2172	0.0051	-0.4207	
-0.805688	0.054778	0.61366	-12.18	-45.71	-0.14	0.2128	0.0203	-0.4358	
-0.760182	0.043676	0.581818	-5.74	-45.22	-0.63	0.21	0.0112	-0.4313	
-0.82533	0.01769	0.591212	-4.2	-40.11	-2.03	0.1939	0.019	-0.4326	
-0.76555	0.049044	0.634766	0.35	-46.83	-2.8	0.1911	0.016	-0.4357	
-0.682712	0.089426	0.594384	2.1	-50.47	-1.4	0.1797	0.0084	-0.4464	
-0.6954	0.073688	0.5917	9.45	-24.5	-2.94	0.1825	0.0144	-0.4494	
-0.72468	0.012932	0.7564	-19.95	-21.77	1.19	0.1752	0.0146	-0.4417	
-0.728584	-0.003416	0.653676	-15.96	-38.43	0.98	0.1708	0.0162	-0.4386	
-0.707722	0.043432	0.683444	6.93	-29.33	-4.34	0.1723	0.0252	-0.4569	
-0.714188	0.00488	0.712968	-2.8	-28.77	-3.15	0.1592	0.0285	-0.4492	
-0.709308	-0.011712	0.658068	-15.26	-26.46	1.12	0.1519	0.0301	-0.4476	
-0.685762	-0.004148	0.768478	-7.14	-18.13	1.12	0.1549	0.0254	-0.4583	
-0.670512	0.012932	0.7198	-0.7	-20.65	0.21	0.1563	0.0285	-0.4522	
-0.669292	0.020862	0.725412	0.49	-10.85	0.49	0.152	0.0193	-0.4523	
-0.670268	0.016226	0.778726	-0.28	-6.09	0.91	0.1433	0.0225	-0.4583	
-0.667706	0.025742	0.756034	1.96	-6.51	0.35	0.1491	0.0224	-0.4553	
-0.662704	0.028914	0.763842	3.08	-0.56	0	0.1463	0.0163	-0.4584	
-0.656604	0.029402	0.76799	2.03	2.73	-0.28	0.1492	0.0193	-0.4583	
-0.652578	0.027328	0.765794	3.29	6.79	-1.26	0.1418	0.0286	-0.4597	
-0.64355	0.029646	0.757864	3.08	11.27	-1.96	0.1433	0.024	-0.4598	
-0.615368	0.02562	0.754936	1.89	16.94	-2.59	0.1419	0.0255	-0.4582	
-0.631716	0.02257	0.771406	-1.4	22.54	-2.1	0.1521	0.0178	-0.4553	
-0.64538	0.020618	0.723948	2.31	28.77	-1.61	0.1608	0.0207	-0.4614	
-0.658312	0.0244	0.72529	0.28	40.46	-0.91	0.1709	0.0161	-0.4509	
-0.665754	0.02989	0.737734	-5.04	44.73	-0.14	0.1709	0.0161	-0.4463	
-0.673806	0	0.675636	2.17	47.04	-0.49	0.1752	0.0206	-0.4493	
-0.682102	0.012566	0.685396	-3.85	53.76	0.98	0.178	0.0313	-0.4523	
-0.703696	0.030012	0.63135	7.42	59.01	-1.19	0.1983	0.022	-0.4387	
-0.702232	0.018666	0.623908	1.54	64.61	-0.28	0.1997	0.0251	-0.4326	
-0.77104	0.022204	0.588528	-3.57	70.21	1.19	0.2113	0.0219	-0.4251	
-0.746518	0.006954	0.542412	-13.86	71.54	3.01	0.2155	0.0311	-0.425	
-0.764208	0.023302	0.492392	3.43	78.68	0.35	0.2315	0.0263	-0.419	
-0.802638	0.013786	0.49776	-6.79	85.61	1.19	0.2386	0.0279	-0.4069	
-0.817034	0.033794	0.467626	-6.3	82.95	0.49	0.2504	0.0125	-0.4055	
-0.830576	0.01281	0.409432	-14.49	81.62	1.19	0.2647	0.0276	-0.3994	
-0.869616	0.025376	0.366366	-8.82	83.37	1.96	0.2703	0.0337	-0.3932	
-0.881572	0.021106	0.352946	-8.82	89.67	2.73	0.2863	0.0305	-0.3872	
-0.933178	0.042822	0.33977	-6.37	89.11	2.94	0.2934	0.0352	-0.3735	
-0.946598	0.03965	0.316224	-7.42	84.98	4.41	0.3137	0.0304	-0.3645	
-0.999424	0.018788	0.262178	-15.33	74.41	8.4	0.3179	0.0381	-0.3538	
-0.956846	0.073322	0.233142	4.55	75.39	6.65	0.3194	0.0336	-0.3462	
-1.005158	0.04087	0.203496	-18.27	79.66	10.29	0.3295	0.0335	-0.3386	
-0.9638	0.049532	0.162382	-2.66	77.91	8.12	0.3483	0.0272	-0.3327	
-0.962458	0.057706	0.116388	-6.23	79.8	9.66	0.3482	0.0334	-0.3235	
-0.973926	0.04575	0.083082	-3.71	79.94	11.2	0.3626	0.032	-0.293	
-0.96746	0.049532	0.055266	-6.09	80.92	11.76	0.377	0.0333	-0.2946	
-0.980392	0.051484	0.034038	-1.33	83.72	13.79	0.3785	0.0318	-0.287	
-1.010404	0.080886	-0.001952	-2.59	93.1	14.63	0.3915	0.0272	-0.2704	
-0.982954	0.079178	-0.00671	0.7	82.53	16.31	0.3971	0.0334	-0.2581	
-1.0187	0.09333	-0.016226	11.55	75.74	13.02	0.4029	0.0273	-0.246	
-1.058838	0.103944	-0.049166	-2.94	64.12	11.34	0.4146	0.0181	-0.2416	
-1.064816	0.07515199	-0.091012	-10.15	56.42	9.59	0.4175	0.0105	-0.2249	
-1.073722	0.081984	-0.121756	2.03	55.3	7.28	0.4219	0.0044	-0.2204	
-1.067988	0.083692	-0.129564	7.77	55.37	6.44	0.4174	0.0122	-0.2096	
-1.046882	0.10126	-0.135298	14.84	54.18	6.58	0.4217	0.0168	-0.1989	
-1.02297	0.091866	-0.151402	12.67	47.53	7.7	0.4261	0.0152	-0.2051	
-1.000156	0.091378	-0.183854	16.1	42.35	7.91	0.4334	0.0044	-0.1991	
-0.984052	0.093696	-0.207766	19.67	43.75	9.94	0.4333	0.0062	-0.1777	
-0.967826	0.09857599	-0.214476	25.34	42.91	11.41	0.4362	0.0016	-0.1762	
-0.96868	0.10553	-0.226554	14.98	38.01	10.99	0.4376	0.0061	-0.1762	
-0.975634	0.114802	-0.243878	16.94	37.45	10.99	0.4392	-0.009099999	-0.1733	
-0.996008	0.130418	-0.253028	15.19	40.95	10.22	0.4464	-0.0075	-0.1566	
-1.00772	0.144936	-0.257786	12.74	40.39	10.43	0.4406	-0.0135	-0.1581	
-1.011136	0.13969	-0.283162	11.41	46.06	12.95	0.4478	-0.0074	-0.1459	
-1.024312	0.108214	-0.288408	4.97	37.38	12.81	0.4521	-0.009	-0.1444	
-1.046516	0.109922	-0.298778	20.23	46.41	15.82	0.4434	-0.0163	-0.117	
-0.957944	0.122854	-0.325374	11.13	43.33	12.74	0.4536	-0.0256	-0.1171	
-0.981612	0.142252	-0.338794	10.57	32.76	9.8	0.4535	-0.0209	-0.1109	
-0.996252	0.137128	-0.339282	0.91	23.8	6.86	0.4549	-0.0178	-0.1048	
-0.971242	0.144692	-0.324398	5.46	25.27	6.44	0.4493	-0.03	-0.108	
-0.947208	0.14152	-0.321836	7.84	28.42	7.91	0.4551	-0.0362	-0.1035	
-0.961726	0.136152	-0.33794	8.61	29.12	7.7	0.452	-0.0208	-0.09869999	
-0.960384	0.146278	-0.358924	9.24	24.43	6.44	0.4535	-0.0223	-0.0927	
-0.959652	0.153598	-0.379054	8.05	22.75	5.25	0.4608	-0.0285	-0.0958	
-0.978562	0.162626	-0.378322	6.93	24.57	5.39	0.4622	-0.0314	-0.0806	
-0.976488	0.162138	-0.367586	5.04	27.86	6.86	0.4608	-0.03	-0.0882	
-0.969412	0.157746	-0.3782	-1.47	22.19	6.09	0.4565	-0.0405	-0.07449999	
-0.964044	0.15006	-0.4026	-5.95	15.47	4.55	0.4593	-0.0374	-0.0715	
-0.958554	0.150426	-0.414434	-4.97	12.74	3.57	0.4506	-0.0327	-0.0699	
-0.951966	0.14701	-0.418094	-3.5	12.46	2.8	0.4477	-0.0326	-0.0637	
-0.939888	0.149328	-0.412848	-2.31	10.85	2.03	0.4449	-0.0418	-0.0638	
-0.932812	0.154818	-0.403088	-2.24	7.49	2.1	0.4565	-0.042	-0.0669	
-0.933788	0.158844	-0.404796	-1.61	5.74	3.5	0.4534	-0.0281	-0.0607	
-0.922808	0.152744	-0.408212	-4.34	5.95	4.2	0.4593	-0.0419	-0.0608	
-0.920368	0.151646	-0.417362	-5.11	4.2	3.78	0.4551	-0.0481	-0.07	
-0.920124	0.15982	-0.425048	-2.31	3.92	3.01	0.4564	-0.0373	-0.0638	
-0.914512	0.173362	-0.410652	0.91	4.48	2.66	0.4651	-0.0404	-0.0532	
-0.941108	0.181902	-0.411872	-0.42	2.52	3.29	0.4622	-0.0358	-0.0593	
-0.930616	0.185562	-0.40504	-0.42	2.66	3.99	0.4506	-0.0358	-0.0699	
-0.935374	0.180926	-0.404552	-5.53	-1.68	3.71	0.4579	-0.0419	-0.0578	
-0.93452	0.182268	-0.409798	-6.51	-3.57	3.01	0.4565	-0.045	-0.0624	
-0.937448	0.185806	-0.416264	-4.76	-4.62	2.17	0.4623	-0.0481	-0.0655	
-0.947818	0.19093	-0.418094	-4.27	-5.46	1.12	0.4579	-0.0434	-0.0563	
-0.940498	0.193492	-0.40687	-4.76	-6.02	0.98	0.4651	-0.0435	-0.0578	
-0.926346	0.184098	-0.403942	-6.51	-7.77	1.4	0.4638	-0.0481	-0.0609	
-0.939644	0.188978	-0.406504	-6.02	-10.15	0.42	0.4595	-0.0526	-0.0594	
-0.927932	0.186904	-0.409188	-7.07	-10.64	-0.28	0.455	-0.0435	-0.0654	
-0.930616	0.182634	-0.412238	-9.66	-12.46	-0.63	0.455	-0.045	-0.0654	
-0.935984	0.18422	-0.401502	-9.38	-14.35	-1.05	0.4507	-0.0464	-0.0608	
-0.942938	0.181414	-0.39162	-4.76	-9.59	-0.42	0.4679	-0.0314	-0.0669	
-0.93513	0.187514	-0.376492	-5.74	-12.25	-0.84	0.4522	-0.045	-0.073	
-0.940132	0.18117	-0.369416	-6.79	-18.69	-1.82	0.4523	-0.0452	-0.0898	
-0.953308	0.182878	-0.37271	-4.06	-18.83	-1.96	0.4508	-0.0466	-0.0761	
-0.96014	0.179584	-0.375516	-2.87	-17.85	-2.66	0.4594	-0.0391	-0.0883	
-0.972584	0.186294	-0.370026	-2.17	-18.41	-3.78	0.4537	-0.0421	-0.0898	
-0.969168	0.191662	-0.350506	-2.17	-20.3	-4.48	0.4493	-0.0391	-0.09429999	
-0.956602	0.197518	-0.333792	-2.31	-25.13	-4.41	0.4537	-0.0437	-0.0944	
-0.961482	0.193736	-0.33184	-4.27	-31.57	-4.55	0.4566	-0.0422	-0.0959	
-0.957822	0.1769	-0.334158	-5.67	-31.15	-4.41	0.455	-0.0285	-0.1019	
-0.97478	0.172264	-0.335134	-4.62	-31.43	-5.88	0.4581	-0.0424	-0.1096	
-0.983808	0.178242	-0.320616	-8.33	-36.4	-7.84	0.4523	-0.0317	-0.1202	
-0.982588	0.172386	-0.2989	-6.93	-34.93	-8.61	0.445	-0.0316	-0.1247	
-0.985638	0.174582	-0.281454	-5.67	-34.58	-8.75	0.4464	-0.0225	-0.1262	
-0.988078	0.17202	-0.268278	-3.78	-32.97	-8.54	0.4436	-0.0271	-0.1323	
-0.996008	0.171776	-0.267912	-4.48	-32.76	-9.17	0.4523	-0.0303	-0.1339	
-0.9943	0.169336	-0.269986	-3.36	-41.16	-9.24	0.4393	-0.0302	-0.1415	
-0.991616	0.171532	-0.264252	-4.34	-47.11	-10.08	0.4479	-0.0182	-0.1521	
-1.00223	0.17385	-0.253882	-3.01	-46.9	-9.31	0.445	-0.0166	-0.1505	
-0.99369	0.161406	-0.232898	-6.16	-45.36	-8.82	0.4364	-0.0182	-0.1688	
-1.006622	0.141154	-0.198128	3.43	-44.73	-10.36	0.4322	-0.0274	-0.1841	
-1.011502	0.144692	-0.17629	5.46	-48.93	-11.83	0.4394	-0.0199	-0.1856	
-1.015528	0.134688	-0.163236	2.66	-50.26	-11.76	0.4263	-0.0182	-0.1825	
-1.01687	0.12505	-0.151158	2.38	-50.75	-11.62	0.4336	-0.0107	-0.1946	
-1.012844	0.127368	-0.130784	1.12	-51.17	-12.74	0.4279	-0.0168	-0.2038	
-1.016992	0.11224	-0.122122	3.99	-50.12	-12.32	0.4206	-0.0092	-0.2098	
-1.00955	0.118218	-0.114436	-0.14	-50.68	-11.48	0.4221	-0.0092	-0.2159	
-1.049566	0.111508	-0.087962	16.94	-52.92	-13.02	0.4148	-0.0062	-0.2265	
-1.02053	0.131882	-0.04941	7.35	-59.36	-10.36	0.412	-0.0047	-0.2372	
-1.020286	0.09211	-0.056486	-10.15	-71.47	-10.71	0.4134	-0.0047	-0.2372	
-1.028582	0.098454	-0.110166	0.35	-61.18	-8.75	0.3961	-0.0047	-0.2539	
-1.002962	0.096624	-0.04697	19.81	-57.47	-11.13	0.3845	0.0014	-0.2599	
-1.006256	0.101748	0.058072	25.9	-63.42	-8.4	0.3816	0	-0.2675	
-1.01809	0.098942	0.092476	12.46	-71.12	-6.02	0.3931	0.0104	-0.2751	
-1.009184	0.09857599	0.056974	-0.35	-77.35	-3.99	0.3802	0.0089	-0.2811	
-0.997594	0.06466	0.045262	-0.7	-66.85	-3.36	0.3731	-0.0032	-0.2919	
-0.982832	0.080642	0.101992	5.6	-62.02	-2.73	0.3658	0.0044	-0.2918	
-0.98454	0.06649	0.169702	3.85	-59.36	-4.55	0.3514	0.0013	-0.3161	
-0.981734	0.066246	0.196176	1.96	-61.46	-4.69	0.3486	0.0013	-0.3177	
-0.964898	0.066002	0.230824	6.58	-62.23	-6.23	0.3355	0.0075	-0.3313	
-0.956236	0.070882	0.265472	5.67	-64.82	-5.53	0.3401	-0.0079	-0.3452	
-0.947086	0.064782	0.275232	5.6	-71.89	-4.06	0.3141	-0.0122	-0.3557	
-0.956358	0.067832	0.274012	-2.03	-72.59	-2.94	0.3256	0.0043	-0.3633	
-0.93818	0.053558	0.27938	2.94	-69.79	-2.52	0.3183	0.0044	-0.3587	
-0.928664	0.068564	0.327326	-2.66	-68.32	-1.96	0.3024	0.0106	-0.3707	
-0.914512	0.056608	0.36234	-0.77	-73.92	-2.73	0.285	0.0093	-0.3722	
-0.88206	0.064172	0.380152	2.03	-77	-2.94	0.2836	0.0092	-0.3798	
-0.895114	0.061	0.395158	-0.14	-74.76	-3.29	0.2634	0.0048	-0.3874	
-0.871202	0.066978	0.410408	1.68	-75.46	-2.1	0.2605	0.0139	-0.4025	
-0.854122	0.07747	0.438712	4.34	-76.51	-1.47	0.2577	0.0032	-0.4041	
-0.831186	0.04941	0.469212	-6.51	-74.83	0.7	0.2462	0.0017	-0.4193	
-0.815936	0.048922	0.472628	-3.78	-69.86	-0.14	0.2404	0.0033	-0.4147	
-0.84607	0.065392	0.526186	-0.21	-62.65	-0.91	0.2202	-0.0025	-0.4238	
-0.762378	0.053558	0.551074	0.14	-63	-0.49	0.2186	0.0112	-0.4222	
-0.755546	0.042822	0.55022	-12.32	-63.49	2.66	0.2014	-0.0009	-0.4329	
-0.773846	0.029036	0.627812	-4.97	-53.69	0.91	0.1999	0.0067	-0.4358	
-0.736392	0.077836	0.635376	-8.26	-62.93	3.57	0.1825	0.0129	-0.4479	
-0.633058	0.113826	0.616466	11.76	-57.12	-2.1	0.1724	0.01	-0.4479	
-0.632936	0.019764	0.585478	-15.4	-44.38	2.87	0.168	0.0145	-0.4554	
-0.670268	0.052582	0.696986	-19.95	-36.12	5.6	0.1636	0.0192	-0.4493	
-0.709918	0.045872	0.730292	-9.31	-44.73	4.69	0.1507	0.0087	-0.4523	
-0.706624	0.047214	0.729926	6.79	-55.02	-1.61	0.1377	0.0057	-0.4599	
-0.610732	0.031354	0.633668	-6.02	-49.28	0.21	0.145	0.0117	-0.4675	
-0.655018	0.039162	0.759206	-12.67	-29.75	3.78	0.1391	0.0118	-0.4629	
-0.691984	0.01525	0.78751	-5.88	-40.67	3.29	0.1391	0.0133	-0.4629	
-0.60878	0.078324	0.677466	7.56	-48.72	1.33	0.1232	0.0149	-0.4705	
-0.587552	0.083082	0.801662	10.08	-32.34	0.49	0.1204	0.0074	-0.4659	
-0.633546	0.019886	0.748592	-12.32	-35.21	6.37	0.1102	0.0136	-0.4689	
-0.614392	0.044042	0.849242	-2.38	-26.74	2.73	0.1087	0.0151	-0.4688	
-0.584502	0.068076	0.761036	-0.91	-38.5	2.31	0.1088	0.0075	-0.4674	
-0.587674	0.051484	0.829234	4.27	-22.89	-0.91	0.0914	0.0062	-0.4704	
-0.594018	0.029402	0.803004	-13.44	-20.3	3.15	0.0784	0.0094	-0.4703	
-0.638426	0.054168	0.845582	-4.2	-12.95	0.7	0.0958	0.0076	-0.4719	
-0.57767	0.025254	0.828868	-3.85	-14.42	0.28	0.0856	0.0123	-0.4718	
-0.571326	0.038796	0.81862	-2.87	-11.62	-0.63	0.0957	0.0198	-0.4733	
-0.55815	0.039162	0.849974	-2.87	-4.41	-1.54	0.07979999	0.0124	-0.4748	
-0.554856	0.034892	0.84241	-0.7	-0.28	-2.87	0.0827	0.0124	-0.4687	
-0.556564	0.036356	0.843752	0.56	3.5	-4.13	0.0827	0.0169	-0.4809	
-0.560346	0.03172	0.836188	1.68	7.14	-3.99	0.07539999	0.0201	-0.4732	
-0.56608	0.027816	0.848632	3.43	11.41	-3.85	0.087	0.0154	-0.4687	
-0.567178	0.035868	0.83875	4.62	14.63	-3.78	0.0871	0.0093	-0.4703	
-0.570594	0.04331	0.828258	7.63	18.69	-4.13	0.0913	0.0169	-0.4718	
-0.574742	0.038308	0.827282	4.13	23.03	-3.78	0.09429999	0.0138	-0.4703	
-0.581818	0.03233	0.813984	3.29	27.79	-3.5	0.08989999	0.0183	-0.4794	
-0.573156	0.041968	0.803614	5.11	35.21	-3.64	0.1016	0.0076	-0.4719	
-0.586698	0.055754	0.804956	2.24	41.37	-2.8	0.1059	0.0106	-0.4704	
-0.602802	0.041602	0.757498	-1.05	47.74	-1.89	0.1247	0.0058	-0.466	
-0.622932	0.04575	0.767746	-1.75	53.55	-1.47	0.1247	0.0104	-0.4659	
-0.629154	0.05551	0.750056	2.17	56.42	-2.24	0.1289	0.0196	-0.4521	
-0.664046	0.052216	0.719312	-0.98	59.99	-3.08	0.1521	0.0117	-0.4508	
-0.62037	0.041114	0.695522	-0.14	64.54	-2.8	0.1434	0.0209	-0.4568	
-0.69784	0.03355	0.661362	-7.07	71.75	-2.94	0.155	0.0163	-0.4492	
-0.714188	0.01952	0.637328	-9.8	75.6	0.21	0.168	0.0146	-0.4447	
-0.72834	0.028914	0.620858	0.63	76.58	-1.19	0.1839	0.016	-0.4418	
-0.710284	0.037698	0.569496	-10.78	78.4	-0.77	0.2026	0.022	-0.4311	
-0.770918	0.04392	0.543876	-0.28	83.65	-1.33	0.2229	0.0217	-0.4328	
-0.768966	0.038918	0.5307	-9.24	84.91	-0.98	0.2199	0.0234	-0.4221	
-0.782996	0.046726	0.493612	-9.66	83.65	-1.12	0.2403	0.014	-0.4177	
-0.815692	0.03782	0.449448	-12.39	83.3	0.21	0.2401	0.0278	-0.4099	
-0.824598	0.027938	0.422852	-16.52	88.2	0.7	0.2561	0.0246	-0.4116	
-0.84424	0.035136	0.389424	-13.79	90.93	0	0.2632	0.0307	-0.3978	
-0.883158	0.019398	0.365024	-12.88	88.2	1.19	0.2848	0.0322	-0.3796	
-0.864004	0.054534	0.33123	-6.86	89.11	2.24	0.2964	0.0305	-0.3812	
-0.921466	0.02013	0.29707	-17.43	91.28	3.36	0.3037	0.0152	-0.3676	
-0.922808	0.04148	0.254126	-8.33	89.6	3.99	0.3094	0.0259	-0.3569	
-0.934032	0.018788	0.217282	-10.15	83.86	5.46	0.3193	0.0366	-0.3492	
-0.935862	0.034038	0.181292	-6.37	88.41	7.35	0.3339	0.0213	-0.3342	
-0.969168	0.024766	0.16592	-0.42	93.8	9.59	0.3339	0.0199	-0.3174	
-0.968802	0.016348	0.141642	-5.6	90.16	12.67	0.3483	0.0243	-0.322	
-0.98088	0.03111	0.095892	1.12	87.57	14.63	0.3627	0.0243	-0.2992	
-1.000522	0.057584	0.022814	0.91	82.6	16.03	0.3785	0.0318	-0.2947	
-1.0065	0.07808	-0.017446	5.74	86.24	18.62	0.38	0.0197	-0.2795	
-1.035658	0.07905599	-0.009393999	8.05	86.31	18.13	0.3873	0.0181	-0.2765	
-1.033584	0.113704	-0.031354	23.1	83.79	19.04	0.3945	0.015	-0.2629	
-1.039562	0.13786	-0.044164	6.3	68.25	17.29	0.403	0.0213	-0.24	
-1.07116	0.094062	-0.062708	5.67	68.74	15.4	0.403	0.0213	-0.24	
-1.085312	0.101992	-0.08113	11.76	64.89	10.78	0.4162	0.0029	-0.2265	
-1.058228	0.105286	-0.110654	2.24	54.67	9.1	0.4116	0.0122	-0.2126	
-1.025776	0.104188	-0.162626	8.47	47.74	5.46	0.4204	0.0015	-0.2006	
-1.059326	0.113826	-0.20252	8.05	42.49	3.57	0.4232	0.0092	-0.1959	
-1.040416	0.093696	-0.218868	10.85	46.41	6.02	0.432	0.0044	-0.2006	
-1.016138	0.099918	-0.223382	15.26	52.08	5.32	0.4277	-0.009	-0.1793	
-0.981734	0.105042	-0.198372	10.22	53.62	5.53	0.432	-0.0136	-0.1733	
-0.99064	0.101626	-0.187026	8.33	50.26	7.63	0.442	-0.0044	-0.1641	
-0.979782	0.110532	-0.20557	10.57	45.43	7.56	0.4391	-0.0058	-0.155	
-0.981734	0.12383	-0.24705	12.88	44.73	8.4	0.4233	-0.0118	-0.1641	
-0.989298	0.128588	-0.284382	13.86	43.68	9.38	0.442	-0.0104	-0.1474	
-0.983686	0.12017	-0.274012	4.48	38.64	12.53	0.4507	-0.009	-0.1535	
-1.039074	0.134078	-0.288164	20.79	47.95	14.7	0.4522	-0.0197	-0.1445	
-0.975756	0.139202	-0.311344	19.74	48.37	15.82	0.4522	-0.0211	-0.1308	
-0.969534	0.14152	-0.349652	13.44	44.17	11.41	0.4477	-0.0118	-0.1261	
-0.993202	0.148108	-0.366244	6.58	38.92	7.49	0.458	-0.0286	-0.108	
-0.979782	0.149572	-0.357094	-1.19	35.63	5.25	0.4435	-0.033	-0.1049	
-0.97783	0.139934	-0.340746	-2.1	31.29	5.11	0.4492	-0.0239	-0.111	
-0.976488	0.119682	-0.34648	-4.55	27.72	6.16	0.4507	-0.0239	-0.1094	
-0.98027	0.127856	-0.361852	3.43	28.98	5.32	0.455	-0.0255	-0.1049	
-0.96746	0.138714	-0.368806	2.38	30.59	5.18	0.452	-0.0222	-0.0896	
-0.953918	0.14823	-0.388692	4.27	24.99	5.25	0.4536	-0.0359	-0.0806	
-0.97051	0.157014	-0.411872	6.72	22.82	5.67	0.455	-0.0298	-0.0821	
-0.96075	0.15921	-0.408456	6.37	21.28	6.51	0.4636	-0.0315	-0.0791	
-0.939766	0.15311	-0.396622	2.03	16.38	6.79	0.4622	-0.036	-0.07449999	
-0.942572	0.14945	-0.411628	2.38	12.32	6.3	0.4564	-0.0374	-0.0715	
-0.948794	0.15128	-0.426268	4.2	11.13	6.44	0.4551	-0.045	-0.07	
-0.941596	0.152866	-0.420534	3.08	10.15	7.14	0.4521	-0.0434	-0.0639	
-0.921466	0.155062	-0.397842	0.28	7.63	7.21	0.4551	-0.0465	-0.0654	
-0.926102	0.162504	-0.400892	-3.22	-0.56	5.88	0.4565	-0.0435	-0.0654	
-0.93696	0.159576	-0.42334	2.66	0.49	6.23	0.4594	-0.0496	-0.0655	
-0.94062	0.171898	-0.42883	8.54	3.08	6.44	0.455	-0.0434	-0.0639	
-0.943914	0.175436	-0.412726	7.84	3.36	7.28	0.4623	-0.0496	-0.0609	
-0.945988	0.179584	-0.400038	3.71	-0.56	7.14	0.4609	-0.0511	-0.0579	
-0.940742	0.194346	-0.401014	5.81	-1.61	7.84	0.4507	-0.0465	-0.0685	
-0.937204	0.20496	-0.395768	2.1	-5.53	7.91	0.4552	-0.0512	-0.0731	
-0.947818	0.188978	-0.409432	2.03	-9.24	10.08	0.4566	-0.0541	-0.0594	
-0.942816	0.19032	-0.413824	4.62	-11.41	9.8	0.4595	-0.0542	-0.064	
-0.937326	0.185318	-0.400892	-1.12	-12.25	9.52	0.4522	-0.0465	-0.07	
-0.936106	0.189222	-0.38796	-1.82	-11.9	8.82	0.445	-0.0526	-0.07	
-0.92415	0.19093	-0.382958	-0.56	-11.27	9.87	0.448	-0.0602	-0.07009999	
-0.929274	0.18666	-0.385642	-1.89	-11.06	11.69	0.4553	-0.0649	-0.0717	
-0.908046	0.178364	-0.379054	-6.72	-10.85	13.09	0.4612	-0.0696	-0.0763	
-0.929396	0.17934	-0.37393	-10.5	-12.53	13.16	0.4509	-0.0573	-0.0762	
-0.932934	0.187514	-0.36722	-13.23	-12.6	13.3	0.4495	-0.0604	-0.0884	
-0.952088	0.201544	-0.365512	-10.78	-12.32	14.56	0.4525	-0.0665	-0.0839	
-0.957578	0.209474	-0.354288	-11.83	-10.15	16.17	0.4527	-0.0834	-0.0917	
-0.945744	0.204472	-0.341966	-17.78	-14.84	16.1	0.4467	-0.062	-0.096	
-0.939522	0.199226	-0.346602	-20.72	-18.41	15.4	0.4439	-0.0727	-0.0961	
-0.93818	0.20496	-0.348188	-20.93	-20.09	14.07	0.4511	-0.0711	-0.087	
-0.946354	0.218258	-0.336842	-24.78	-18.62	13.93	0.4513	-0.0819	-0.0932	
-0.950502	0.242902	-0.321958	-19.46	-12.32	15.26	0.447	-0.0865	-0.1008	
-0.947696	0.258396	-0.313662	-23.03	-14.28	15.68	0.4456	-0.0835	-0.1115	
-0.946232	0.26962	-0.30744	-29.26	-18.9	15.75	0.4399	-0.0972	-0.107	
-0.953674	0.278526	-0.303292	-30.73	-20.23	16.59	0.4441	-0.0804	-0.1069	
-0.954162	0.279136	-0.29829	-33.32	-21.63	17.99	0.4341	-0.0895	-0.1115	
-0.96441	0.284504	-0.300608	-33.11	-22.89	18.55	0.4443	-0.0927	-0.1161	
-0.966118	0.279746	-0.291336	-35.21	-21.77	18.76	0.4384	-0.0866	-0.1206	
-0.957334	0.281698	-0.288652	-28.35	-22.12	19.74	0.4386	-0.0973	-0.1268	
-0.946598	0.279136	-0.244854	-31.99	-24.43	19.39	0.4356	-0.0897	-0.1283	
-0.95099	0.29097	-0.227774	-25.9	-27.79	21.14	0.44	-0.0929	-0.142	
-0.935252	0.27938	-0.228506	-30.38	-28.42	23.94	0.4314	-0.0958	-0.1405	
-0.957822	0.285846	-0.236314	-23.59	-24.64	24.85	0.4286	-0.1036	-0.1558	
-0.94794	0.302804	-0.219722	-16.66	-22.26	25.69	0.4258	-0.1066	-0.1528	
-0.921954	0.320616	-0.20984	-16.24	-25.27	26.25	0.4287	-0.1037	-0.1695	
-0.94428	0.345382	-0.194224	-10.71	-25.97	26.18	0.4187	-0.1158	-0.1681	
-0.93879	0.364658	-0.179584	-6.44	-27.37	24.71	0.4202	-0.1234	-0.159	
-0.922198	0.37698	-0.162748	-14.49	-30.1	22.96	0.426	-0.122	-0.1712	
-0.927444	0.409554	-0.141032	-8.89	-29.82	21.7	0.4086	-0.1203	-0.1665	
-0.894748	0.41053	-0.121146	-10.15	-30.03	22.26	0.4146	-0.1281	-0.1819	
-0.906582	0.425292	-0.088328	-3.92	-30.45	23.38	0.4102	-0.1281	-0.1864	
-0.90463	0.428342	-0.071004	-1.68	-30.8	23.94	0.4088	-0.1266	-0.1879	
-0.896456	0.427976	-0.062098	-6.09	-32.55	23.66	0.4103	-0.1328	-0.1956	
-0.890478	0.441884	-0.054778	-2.52	-32.13	21.56	0.4003	-0.1358	-0.2048	
-0.842166	0.44469	-0.050264	-6.16	-28.07	21	0.396	-0.1403	-0.1971	
-0.875106	0.443104	-0.049288	-3.08	-26.04	18.9	0.3959	-0.1327	-0.2047	
-0.872788	0.456768	-0.015738	-7.77	-26.46	19.18	0.3932	-0.1449	-0.2094	
-0.882548	0.461526	-0.010004	0.49	-19.74	20.02	0.3903	-0.145	-0.22	
-0.86315	0.475922	-0.01525	-6.44	-22.96	19.18	0.3917	-0.1449	-0.2124	
-0.85827	0.484828	-0.0122	-2.31	-19.53	18.41	0.3846	-0.1525	-0.2155	
-0.851072	0.47336	-0.004026	-4.55	-16.38	18.27	0.3877	-0.1634	-0.2263	
-0.856196	0.484584	0.00366	-1.61	-18.27	16.73	0.3904	-0.1527	-0.2232	
-0.865468	0.476776	0.013786	0.49	-15.75	17.15	0.3746	-0.1587	-0.2353	
-0.857538	0.493856	0.009393999	-0.14	-20.37	17.36	0.3776	-0.1679	-0.2309	
-0.85583	0.50752	0.025498	3.29	-16.31	16.59	0.3733	-0.1725	-0.237	
-0.848144	0.518378	0.026596	2.31	-15.19	15.19	0.379	-0.1664	-0.2308	
-0.836066	0.51423	0.028426	1.75	-14.98	14.49	0.3689	-0.1632	-0.2323	
-0.835456	0.515206	0.029768	-0.42	-14	13.3	0.3776	-0.1603	-0.2415	
-0.840214	0.51972	0.034404	2.8	-11.48	11.69	0.3706	-0.1771	-0.2507	
-0.849364	0.5246	0.031964	4.55	-9.31	9.59	0.3676	-0.1755	-0.24	
-0.840824	0.527284	0.040504	4.62	-7.56	7.77	0.3675	-0.1724	-0.2354	
-0.840946	0.53314	0.0427	4.48	-7.63	6.23	0.3691	-0.1846	-0.2355	
-0.825086	0.53985	0.037576	6.09	-6.72	4.27	0.356	-0.1708	-0.2414	
-0.829478	0.54717	0.037698	1.68	-7.42	1.89	0.3648	-0.1847	-0.2447	
-0.833016	0.552782	0.031232	5.39	-3.36	-0.42	0.3676	-0.1786	-0.2416	
-0.840214	0.548512	0.02745	1.61	-2.52	-1.26	0.3676	-0.1755	-0.2446	
-0.847412	0.535702	0.037576	2.1	-0.21	-2.03	0.3589	-0.1754	-0.2446	
-0.844606	0.538874	0.033672	1.75	-0.35	-3.08	0.3489	-0.186	-0.24	
-0.845338	0.540338	0.027938	5.25	0.49	-4.06	0.3633	-0.177	-0.24	
-0.855708	0.537166	0.03538	0.21	-0.98	-5.74	0.3621	-0.1923	-0.2523	
-0.854	0.542656	0.036356	4.41	0.14	-8.47	0.3662	-0.1831	-0.2416	
-0.861808	0.531432	0.0305	0.28	0.07	-10.57	0.3589	-0.1739	-0.243	
-0.862174	0.534482	0.025254	1.75	0.91	-12.81	0.3633	-0.177	-0.2476	
-0.876204	0.533872	0.037088	-4.2	4.13	-18.83	0.3633	-0.1816	-0.2446	
-0.86986	0.513742	0.022326	1.61	1.96	-18.9	0.3647	-0.1694	-0.2445	
-0.869982	0.51789	0.014396	-7.42	-3.29	-21.91	0.369	-0.1724	-0.2354	
-0.864736	0.50203	0.008296	-2.73	2.59	-24.78	0.3733	-0.1619	-0.2506	
-0.869372	0.510936	0.003416	0.7	7.14	-26.25	0.3661	-0.1618	-0.2536	
-0.885598	0.504104	0.00366	-2.66	5.6	-28.14	0.3645	-0.1541	-0.2444	
-0.881938	0.49593	0.013298	0.7	8.12	-29.75	0.3659	-0.1541	-0.2459	
-0.894748	0.487024	0.013786	-2.03	9.38	-32.9	0.3819	-0.1574	-0.2476	
-0.897066	0.467382	0.014152	2.66	8.75	-34.51	0.376	-0.1481	-0.2413	
-0.882914	0.458476	0.009272	-3.5	8.26	-35.42	0.3832	-0.1451	-0.2444	
-0.891454	0.45506	0.005856	2.8	8.61	-36.68	0.3816	-0.1328	-0.2382	
-0.893528	0.449936	0.005734	3.78	9.38	-38.01	0.3802	-0.1404	-0.2367	
-0.893406	0.446276	0.007076	6.58	9.03	-40.04	0.3873	-0.1283	-0.2351	
-0.908046	0.426756	0.009638	4.27	11.9	-40.53	0.3872	-0.1191	-0.2381	
-0.906216	0.40992	0.001464	4.69	10.22	-41.16	0.4001	-0.1071	-0.2411	
-0.91805	0.388204	-0.00305	3.01	9.38	-41.51	0.3929	-0.1099	-0.2304	
-0.932934	0.37027	-0.02074	9.94	9.59	-40.74	0.4	-0.0993	-0.2288	
-0.937814	0.37027	-0.027694	13.23	10.22	-41.16	0.3999	-0.0901	-0.2287	
-0.940742	0.348676	-0.015982	6.3	11.34	-41.09	0.4042	-0.0871	-0.2226	
-0.944524	0.340258	-0.029402	10.5	8.75	-42.28	0.4012	-0.084	-0.2241	
-0.955138	0.325618	-0.037942	8.26	5.81	-44.1	0.4098	-0.0764	-0.2241	
-0.951234	0.303902	-0.052704	9.38	5.11	-44.8	0.4099	-0.084	-0.2181	
-0.97356	0.283284	-0.064782	10.43	5.88	-45.64	0.4068	-0.0612	-0.2285	
-0.972462	0.263276	-0.056608	9.45	5.6	-45.99	0.4124	-0.052	-0.2239	
-1.01199	0.249978	-0.060634	7.28	4.97	-45.99	0.4096	-0.0565	-0.2209	
-1.031144	0.231922	-0.079788	5.11	2.52	-46.06	0.408	-0.0458	-0.2208	
-1.031144	0.213866	-0.083326	9.8	1.89	-48.3	0.4152	-0.0414	-0.2253	
-1.030778	0.177632	-0.073688	-5.74	2.24	-48.72	0.405	-0.0336	-0.2222	
-1.017114	0.143472	-0.074786	1.4	1.89	-51.24	0.4092	-0.0229	-0.2236	
-1.012478	0.126392	-0.07515199	-2.66	-0.98	-53.62	0.4179	-0.0229	-0.216	
-1.006988	0.086132	-0.068564	-1.12	-1.82	-55.09	0.4134	-0.0107	-0.2205	
-1.0187	0.06039	-0.06466	1.96	-0.35	-55.37	0.4132	0.0076	-0.2142	
-1.022482	0.0366	-0.073688	5.11	-4.69	-56.7	0.4189	0.0151	-0.2218	
-1.019066	0.014274	-0.068686	6.44	-5.18	-58.73	0.4146	0.0152	-0.2218	
-1.014186	-0.017568	-0.049044	14.84	-0.98	-59.22	0.4145	0.0273	-0.2293	
-1.013454	-0.023912	-0.036966	19.18	-4.13	-58.87	0.4056	0.0366	-0.2261	
-1.014186	-0.042212	-0.0366	17.71	-11.27	-58.1	0.407	0.0473	-0.2291	
-1.019676	-0.038064	-0.034282	20.79	-15.26	-56.98	0.4069	0.0519	-0.2321	
-1.014186	-0.04331	-0.031232	21.49	-14.63	-53.83	0.4068	0.0627	-0.2228	
-1.015162	-0.068442	-0.034038	19.18	-13.23	-50.89	0.4213	0.067	-0.232	
-1.030778	-0.095648	-0.03233	17.64	-13.65	-47.74	0.4082	0.0626	-0.2274	
-1.017236	-0.12749	-0.027938	16.24	-10.08	-45.85	0.4067	0.0763	-0.2395	
-1.021506	-0.128466	-0.01159	18.83	-6.44	-43.89	0.4009	0.0794	-0.2394	
-1.032974	-0.137982	0.005002	18.83	-6.09	-41.65	0.3936	0.08109999	-0.2348	
-0.996008	-0.156526	0.01708	17.99	-8.05	-39.27	0.4007	0.0962	-0.2408	
-0.992592	-0.17934	0.013298	12.88	-7.84	-37.38	0.3993	0.0947	-0.2439	
-0.980758	-0.184952	0.013786	16.73	-5.25	-36.54	0.3963	0.1039	-0.2468	
-0.973194	-0.200934	0.02562	12.32	-3.71	-34.09	0.3977	0.1039	-0.2422	
-0.962824	-0.217648	0.026474	7.49	-4.27	-32.97	0.3948	0.1084	-0.2544	
-0.959042	-0.238754	0.047214	6.79	-1.89	-30.52	0.3905	0.11	-0.2574	
-0.94977	-0.230458	0.049288	10.57	-1.47	-30.1	0.386	0.1132	-0.2467	
-0.973682	-0.239852	0.037332	7.98	-3.5	-27.65	0.3801	0.1209	-0.2435	
-0.972828	-0.269498	0.0305	2.52	-2.38	-25.06	0.3859	0.1238	-0.2512	
-0.966118	-0.278404	0.03721	5.11	0.21	-24.15	0.3829	0.1346	-0.2495	
-0.961238	-0.274256	0.049654	5.81	2.31	-23.24	0.3858	0.1345	-0.2511	
-0.971608	-0.286944	0.046604	-1.33	1.12	-21.98	0.38	0.1377	-0.251	
-0.967094	-0.301828	0.036966	0.28	-1.47	-18.9	0.3843	0.1392	-0.2403	
-0.95709	-0.314272	0.03172	-0.77	-0.84	-18.2	0.3772	0.1331	-0.2556	
-0.957456	-0.317444	0.019764	1.47	-1.05	-17.36	0.3799	0.1499	-0.257	
-0.942694	-0.33062	0.030744	2.52	0.35	-14.77	0.3683	0.1454	-0.2539	
-0.941474	-0.326106	0.02928	1.96	-2.31	-12.32	0.3696	0.1592	-0.2462	
-0.946232	-0.30622	0.021838	3.92	0.49	-11.27	0.3814	0.1437	-0.254	
-0.958066	-0.3172	0.014518	-0.07	2.38	-8.54	0.3696	0.1532	-0.2417	
-0.956968	-0.325862	0.01586	-1.33	2.24	-6.16	0.3813	0.1498	-0.2601	
-0.96197	-0.339404	0.009393999	-4.13	1.54	-4.41	0.3754	0.1576	-0.2539	
-0.962092	-0.324398	0.001464	2.59	3.43	-1.82	0.3741	0.1484	-0.2524	
-0.969534	-0.329278	0.002928	0.56	2.38	2.45	0.3841	0.1515	-0.2418	
-0.973316	-0.328912	-0.001342	-0.35	2.66	6.16	0.3754	0.1546	-0.2447	
-0.976122	-0.337452	0	-1.68	3.5	9.24	0.3811	0.1606	-0.2478	
-0.967826	-0.33001	0.002806	0.07	3.64	12.6	0.384	0.1591	-0.2447	
-0.968558	-0.321226	-0.00183	-1.75	2.17	15.61	0.3726	0.1456	-0.2341	
-0.967094	-0.311832	-0.003416	-2.45	1.89	21	0.3813	0.1453	-0.2464	
-0.96441	-0.312076	-0.005612	-4.27	1.47	23.87	0.3726	0.1455	-0.2433	
-0.969656	-0.304512	-0.002196	-3.99	2.17	26.18	0.3859	0.1238	-0.2527	
-0.970876	-0.295484	-0.003294	-3.43	2.52	28.14	0.3872	0.1361	-0.2434	
-0.968924	-0.29768	0.001464	-2.24	3.92	31.57	0.3916	0.13	-0.242	
-0.957212	-0.274378	0.011224	0.77	5.04	33.81	0.386	0.1163	-0.2436	
-0.969778	-0.256444	0.01098	-1.68	2.52	35.98	0.3932	0.1207	-0.2497	
-0.977464	-0.257908	-0.002318	-4.48	0.77	39.06	0.3946	0.1177	-0.2406	
-0.986004	-0.24156	-0.015006	-2.87	0.35	40.95	0.3948	0.1054	-0.2529	
-0.98759	-0.22875	-0.018178	-1.47	1.89	42.7	0.3919	0.1024	-0.2468	
-0.979172	-0.208864	-0.009028	-0.7	4.97	44.31	0.3919	0.1009	-0.2377	
-0.986004	-0.186904	-0.000854	-1.4	5.04	45.78	0.4021	0.0962	-0.2439	
-0.989664	-0.169824	0.00061	-4.55	4.06	47.39	0.4065	0.0871	-0.2302	
-0.9821	-0.147986	-0.0061	-3.57	0.63	49.42	0.3979	0.0795	-0.2318	
-0.98332	-0.134444	-0.016836	-4.9	0.07	52.5	0.4111	0.0746	-0.2456	
-0.994422	-0.116876	-0.02379	-3.22	2.87	53.55	0.4053	0.0748	-0.2364	
-0.991616	-0.088084	-0.009638	-5.04	2.73	54.32	0.3997	0.0565	-0.2381	
-0.998448	-0.065026	-0.008905999	-9.66	0.49	54.95	0.4027	0.0442	-0.2382	
-1.010282	-0.037088	-0.011468	-9.8	-1.75	54.6	0.4071	0.0457	-0.2428	
-1.01992	-0.011102	-0.02684	-10.29	-4.83	54.67	0.4188	0.0318	-0.2384	
-1.037854	0.013176	-0.021472	-12.25	-5.11	52.78	0.4117	0.0242	-0.2461	
-1.04005	0.033794	-0.032208	-15.75	-5.18	51.1	0.4102	0.0288	-0.2445	
-1.039562	0.066734	-0.032574	-10.92	-3.71	49.42	0.4104	0.0044	-0.2402	
-1.028582	0.114924	-0.020008	-5.81	-2.66	49.28	0.4161	0.0104	-0.2371	
-1.027484	0.164456	-0.014274	-4.48	-5.25	48.93	0.4033	-0.0031	-0.2432	
-1.02297	0.185562	-0.027206	-7.77	-7.77	50.89	0.4062	-0.0032	-0.2448	
-1.018578	0.196298	-0.033062	-14.49	-6.93	51.94	0.4005	-0.0154	-0.2464	
-1.025044	0.207766	-0.02562	-11.06	-5.04	53.48	0.4035	-0.0215	-0.2419	
-0.995032	0.215818	-0.002684	-10.36	-2.17	55.02	0.408	-0.0338	-0.2451	
-1.017846	0.228994	0.006466	-11.69	-3.64	55.79	0.4022	-0.0352	-0.242	
-0.993934	0.221674	0.013298	-21	-6.51	56	0.4052	-0.0429	-0.2406	
-1.004792	0.24827	0.005734	-16.17	-9.59	53.13	0.3952	-0.0566	-0.2483	
-0.98454	0.2745	-0.004758	-17.15	-12.95	51.52	0.3923	-0.0535	-0.2513	
-0.980758	0.305	-0.004636	-7.98	-12.11	49	0.3924	-0.0597	-0.2559	
-0.94367	0.293288	0.007929999	-3.5	-6.3	46.41	0.3924	-0.0643	-0.2529	
-0.938302	0.268766	0.052948	-9.24	-4.69	43.61	0.3968	-0.0658	-0.2529	
-0.963922	0.307562	0.058926	-5.53	-6.79	40.39	0.3969	-0.0766	-0.2545	
-0.934886	0.329888	0.057462	-3.22	-9.73	36.96	0.3856	-0.0949	-0.2684	
-0.957334	0.355874	0.05917	-0.98	-11.06	34.51	0.3841	-0.0917	-0.2531	
-0.942938	0.35563	0.077226	1.75	-11.69	32.55	0.3828	-0.1039	-0.2547	
-0.95221	0.349896	0.0854	1.47	-12.95	30.66	0.3814	-0.1071	-0.2654	
-0.928054	0.367586	0.075396	-0.84	-16.87	29.54	0.3742	-0.1116	-0.2669	
-0.922808	0.381738	0.054778	-1.19	-14.14	27.93	0.3801	-0.1192	-0.2564	
-0.869494	0.367342	0.061	2.87	-12.6	31.5	0.3786	-0.1177	-0.2594	
-0.923052	0.41175	0.080764	5.25	-8.75	30.17	0.3685	-0.1237	-0.2594	
-0.899262	0.404186	0.090524	5.53	-11.83	30.73	0.3671	-0.1221	-0.2594	
-0.895236	0.396378	0.070028	1.4	-11.83	31.08	0.3716	-0.1375	-0.258	
-0.899262	0.398818	0.068198	4.2	-8.54	29.96	0.3629	-0.1313	-0.2701	
-0.892796	0.416752	0.078812	6.93	-6.37	27.44	0.3571	-0.1374	-0.2656	
-0.899384	0.436882	0.075274	8.82	-6.09	26.11	0.3644	-0.1345	-0.2732	
-0.904386	0.44957	0.07124799	11.27	-5.04	25.06	0.3617	-0.1543	-0.2718	
-0.950868	0.444934	0.07869	8.4	-3.78	24.29	0.3515	-0.1495	-0.2626	
-0.862418	0.45323	0.07991	15.89	-6.79	23.45	0.3574	-0.1573	-0.2764	
-0.912682	0.466406	0.096014	8.19	-4.69	19.67	0.3575	-0.1649	-0.2658	
-0.899506	0.47946	0.074176	5.25	-7.21	17.22	0.3575	-0.1665	-0.2704	
-0.896212	0.48068	0.064294	6.51	-6.58	15.05	0.3561	-0.168	-0.275	
-0.893772	0.475434	0.070638	6.3	-4.27	13.09	0.3545	-0.1603	-0.2673	
-0.876082	0.482388	0.070516	6.65	-3.5	10.99	0.3474	-0.1679	-0.2765	
-0.854366	0.481412	0.075884	9.87	-4.69	9.52	0.343	-0.1662	-0.2627	
-0.87474	0.499346	0.073932	8.96	-2.8	7.7	0.3372	-0.1677	-0.2657	
-0.868396	0.500932	0.061	8.96	-3.92	6.23	0.3474	-0.1724	-0.2673	
-0.864004	0.51179	0.059414	7.35	-1.4	3.64	0.3503	-0.177	-0.2598	
-0.864004	0.524844	0.072834	6.72	0	1.19	0.3575	-0.171	-0.2674	
-0.868396	0.530334	0.068686	5.53	-0.21	-0.49	0.3518	-0.1695	-0.2719	
-0.86864	0.52948	0.071858	3.01	-0.56	-1.61	0.3475	-0.1755	-0.2735	
-0.872178	0.529968	0.073078	-0.35	-1.68	-3.78	0.3533	-0.1832	-0.2675	
-0.879132	0.536678	0.073566	-1.19	-0.84	-6.65	0.3561	-0.1741	-0.2689	
-0.87413	0.53985	0.08418	-5.95	-0.42	-10.15	0.3474	-0.1724	-0.2643	
-0.870104	0.539972	0.08418	-9.31	-0.21	-13.86	0.3504	-0.1756	-0.272	
-0.875106	0.526552	0.074176	-13.51	-0.42	-16.94	0.3517	-0.1649	-0.2704	
-0.850218	0.52521	0.060146	-10.71	1.68	-21	0.3517	-0.1664	-0.2704	
-0.849852	0.506056	0.09394	-11.13	9.24	-25.83	0.3472	-0.1541	-0.2702	
-0.876448	0.48983	0.099064	-13.51	7.28	-28.42	0.3531	-0.1618	-0.2703	
-0.880108	0.474458	0.079788	-15.19	6.44	-32.69	0.3502	-0.1602	-0.2688	
-0.881816	0.46543	0.079544	-12.74	10.71	-36.05	0.3616	-0.1451	-0.2687	
-0.870104	0.46665	0.090158	-8.33	12.39	-38.92	0.3629	-0.1374	-0.2656	
-0.870104	0.442738	0.099186	-9.1	12.04	-40.11	0.3659	-0.142	-0.2656	
-0.871202	0.426268	0.099674	-15.68	12.25	-42.21	0.3673	-0.139	-0.2641	
-0.912194	0.416142	0.077836	-9.87	11.13	-43.05	0.37	-0.1237	-0.2655	
-0.889502	0.407602	0.078446	-11.83	15.26	-44.17	0.37	-0.1192	-0.27	
-0.88511	0.409798	0.080276	-3.85	14.56	-45.57	0.38	-0.11	-0.2578	
-0.885964	0.387594	0.088084	-6.86	15.26	-46.27	0.377	-0.1069	-0.2578	
-0.917074	0.371002	0.077714	-4.62	12.53	-47.46	0.3782	-0.087	-0.2545	
-0.926834	0.360754	0.05246	-4.2	10.99	-49.14	0.3897	-0.072	-0.2667	
-0.949282	0.330132	0.039406	-5.11	11.2	-50.12	0.3897	-0.0719	-0.2606	
-0.94855	0.327448	0.035502	-2.24	12.46	-52.36	0.3925	-0.0673	-0.256	
-0.940864	0.306952	0.044652	1.19	12.88	-53.41	0.4011	-0.0598	-0.2544	
-0.965508	0.294264	0.038674	0.56	11.27	-53.83	0.3879	-0.0504	-0.2512	
-0.974048	0.273768	0.016592	-0.28	8.26	-53.76	0.4037	-0.0384	-0.2497	
-0.991738	0.22631	0.007808	0.21	9.66	-54.39	0.4009	-0.0369	-0.2603	
-0.99552	0.202398	0.013908	-0.56	12.6	-56.21	0.3993	-0.0292	-0.2511	
-1.005646	0.16287	0.016226	-0.56	9.45	-55.93	0.3962	-0.0153	-0.2464	
-1.02968	0.133834	0.005368	-2.38	9.52	-55.51	0.4078	-0.0155	-0.251	
-1.036268	0.10675	-0.01403	0.42	10.5	-54.67	0.4121	-0.0109	-0.2449	
-1.025532	0.083326	-0.011468	-2.38	8.4	-53.55	0.3989	-0.0016	-0.2432	
-1.026874	0.052094	-0.004636	1.61	7.14	-52.92	0.3975	0.0044	-0.2553	
-1.027118	0.02013	-0.003538	1.26	6.02	-53.13	0.406	0.0166	-0.2461	
-1.031022	-0.001586	-0.010004	3.99	4.27	-54.11	0.3943	0.0244	-0.246	
-1.025898	-0.027206	-0.016592	5.53	3.29	-54.95	0.4043	0.0395	-0.2551	
-1.027484	-0.055998	-0.017324	8.54	4.34	-56.56	0.3971	0.0305	-0.2414	
-1.003206	-0.057706	-0.00854	11.41	5.04	-59.08	0.3998	0.0472	-0.2473	
-1.013088	-0.088206	-0.00854	8.47	4.76	-58.03	0.3997	0.0564	-0.2442	
-1.016748	-0.076372	-0.01403	16.87	1.19	-56.77	0.3924	0.0627	-0.2426	
-1.010648	-0.11712	-0.016104	11.27	2.45	-53.06	0.4009	0.0779	-0.2425	
-1.010282	-0.13664	-0.013908	10.22	4.62	-53.76	0.4052	0.0839	-0.2394	
-0.999912	-0.196786	-0.00305	5.18	3.85	-50.4	0.3936	0.0826	-0.2394	
-0.999058	-0.184098	-0.002196	9.87	3.22	-48.23	0.3992	0.09779999	-0.2423	
-0.996374	-0.190564	0.0183	10.85	3.57	-44.59	0.3891	0.1024	-0.2483	
-0.996984	-0.198738	0.020862	11.83	0.56	-40.81	0.3903	0.1132	-0.233	
-0.990762	-0.221064	0.010004	8.89	-1.89	-37.52	0.3933	0.107	-0.2437	
-0.992226	-0.237534	0.001464	11.27	-0.56	-36.47	0.3844	0.1254	-0.2481	
-1.004914	-0.2623	-0.000122	9.73	1.26	-36.68	0.3802	0.1117	-0.2451	
-0.981856	-0.271206	0.01891	12.81	2.8	-34.23	0.3917	0.1193	-0.239	
-0.983808	-0.260226	0.025498	12.88	0.84	-32.97	0.3815	0.1271	-0.2374	
-0.984296	-0.264618	0.01098	11.69	-2.24	-30.8	0.3786	0.127	-0.2496	
-0.966362	-0.266326	0.008662	13.16	-1.47	-28.91	0.3799	0.1378	-0.2403	
-0.946842	-0.274622	0.017568	12.46	0.7	-27.44	0.3815	0.1346	-0.251	
-0.953186	-0.2806	0.022204	7.63	2.94	-25.97	0.3741	0.144	-0.2387	
-0.957456	-0.276086	0.01952	8.26	0.7	-23.94	0.3872	0.1377	-0.2404	
-0.963678	-0.290726	0.020008	5.53	0.49	-22.12	0.3799	0.1408	-0.2434	
-0.953552	-0.300974	0.019154	4.62	1.54	-21	0.374	0.147	-0.2448	
-0.96319	-0.309026	0.015494	2.59	1.96	-18.41	0.3696	0.1532	-0.2432	
-0.971364	-0.309758	0.010492	0.63	1.4	-17.22	0.3726	0.1516	-0.2478	
-0.971364	-0.313906	0.010126	1.89	2.31	-14.07	0.3769	0.1516	-0.2417	
-0.966484	-0.324032	0.013542	-0.14	2.45	-11.76	0.3753	0.1683	-0.2507	
-0.952698	-0.337696	0.010614	-3.15	2.17	-7.56	0.3783	0.1591	-0.2478	
-0.94855	-0.340014	0.007442	-3.36	2.31	-5.18	0.3709	0.1669	-0.2431	
-0.954528	-0.333182	0.004148	-4.41	2.52	-4.06	0.3753	0.1637	-0.2523	
-0.971242	-0.340258	-0.004758	-5.25	2.38	-2.94	0.3767	0.1638	-0.2355	
-0.97173	-0.343552	-0.010614	-2.59	2.66	-1.19	0.3768	0.1638	-0.2447	
-0.967338	-0.349164	-0.011346	-1.68	2.73	1.61	0.3753	0.1607	-0.2462	
-0.96258	-0.366122	-0.0122	-4.55	2.73	5.6	0.3724	0.1684	-0.2446	
-0.964898	-0.372222	-0.012444	-3.99	3.22	8.89	0.3711	0.1547	-0.2432	
-0.96258	-0.367464	-0.013176	-3.43	2.17	12.25	0.3738	0.1654	-0.2339	
-0.966484	-0.35868	-0.025254	-1.05	0.49	16.03	0.3768	0.1577	-0.2417	
-0.96441	-0.35746	-0.028792	0.84	1.26	19.6	0.3782	0.1637	-0.2447	
-0.950136	-0.346358	-0.01769	3.22	1.82	22.68	0.3826	0.1561	-0.2387	
-0.981124	-0.33916	-0.01586	1.33	2.17	25.83	0.3812	0.15	-0.2418	
-0.967704	-0.325496	-0.022814	2.8	0.28	28.98	0.3813	0.1469	-0.2387	
-0.94672	-0.30195	-0.009272	3.01	1.12	30.66	0.3769	0.147	-0.2402	
-0.95953	-0.298534	-0.002196	0.14	1.47	32.9	0.3914	0.1452	-0.2434	
-0.954406	-0.307806	-0.006466	-1.12	-0.49	37.45	0.3901	0.1346	-0.2343	
-0.966118	-0.302316	-0.014396	-0.49	-1.54	41.02	0.3814	0.1347	-0.2434	
-0.97051	-0.253394	-0.009272	7.35	0.7	42.21	0.3873	0.1224	-0.2405	
-0.980026	-0.228384	-0.004392	4.48	-0.98	44.1	0.3859	0.1178	-0.239	
-0.97295	-0.220454	-0.01586	-3.22	-1.47	45.78	0.3933	0.1055	-0.2376	
-0.986736	-0.215696	-0.016226	-3.92	0.56	46.55	0.3906	0.0948	-0.2469	
-0.984784	-0.194712	-0.006222	0.56	1.96	47.6	0.3949	0.09779999	-0.2453	
-0.997716	-0.163358	-0.01098	1.68	-0.77	49.42	0.4037	0.0885	-0.2394	
-0.991616	-0.1403	-0.021228	0.49	-2.87	50.68	0.3965	0.08109999	-0.2318	
-0.99735	-0.11895	-0.024034	0.14	-2.45	51.45	0.3995	0.0747	-0.2501	
-0.996496	-0.104188	-0.016714	-1.89	-1.4	52.29	0.4097	0.061	-0.2335	
-1.00894	-0.081496	-0.002562	-2.03	-0.14	53.13	0.3968	0.055	-0.2412	
-1.016382	-0.072224	-0.006466	-5.25	-3.78	55.51	0.3897	0.0458	-0.2473	
-1.019066	-0.04575	-0.016714	-2.66	-6.86	57.61	0.3998	0.0458	-0.2367	
-1.01626	-0.022692	-0.023302	0.07	-7.35	59.5	0.4014	0.0319	-0.246	
-1.014918	0.000366	-0.016226	-1.75	-6.58	60.62	0.4042	0.0411	-0.2474	
-1.022726	0.030134	-0.005734	-4.69	-7.77	60.62	0.406	0.0151	-0.2461	
-1.021018	0.071004	-0.007442	-3.71	-7.91	59.01	0.4002	0.0135	-0.2522	
-1.011502	0.113948	-0.013298	-7.35	-7.91	57.19	0.399	-0.0016	-0.2508	
-0.998692	0.165188	-0.020862	2.87	-5.39	56.98	0.4047	-0.0047	-0.2417	
-1.006988	0.208254	0.001952	-2.87	-2.66	59.43	0.3992	-0.0261	-0.2465	
-1.022238	0.226066	0.005002	-6.93	-3.43	59.85	0.4036	-0.0277	-0.2526	
-1.018578	0.230946	0.017324	-12.6	-6.23	58.38	0.4037	-0.0414	-0.2436	
-0.99552	0.249124	0.015128	-12.04	-8.47	56.56	0.3951	-0.0413	-0.2466	
-0.984662	0.251686	0.011346	-13.44	-7.77	53.97	0.3981	-0.0552	-0.2544	
-0.983442	0.270962	0.023058	-9.38	-8.19	53.41	0.3895	-0.0581	-0.2574	
-0.98149	0.277916	0.028914	-12.6	-8.33	53.55	0.3953	-0.0596	-0.2452	
-0.990152	0.321714	0.03172	0.07	-6.72	50.26	0.3911	-0.0734	-0.2484	
-0.95404	0.329888	0.044408	-5.74	-7	48.86	0.3839	-0.0764	-0.2575	
-0.94733	0.333304	0.049044	-15.68	-6.93	49.21	0.3941	-0.0826	-0.2531	
-0.929274	0.329888	0.059902	-15.96	-8.47	48.02	0.397	-0.0812	-0.2592	
-0.907802	0.336842	0.051118	-9.94	-7.14	46.34	0.3899	-0.0979	-0.2547	
-0.918904	0.336476	0.061	-6.23	-6.23	42.77	0.3799	-0.1024	-0.2608	
-0.941962	0.356606	0.077958	-0.91	-5.88	38.78	0.3828	-0.107	-0.2593	
-0.928542	0.365634	0.088816	-4.69	-7.56	38.01	0.3887	-0.1147	-0.2594	
-0.948306	0.380762	0.073078	-4.2	-10.15	35.49	0.3772	-0.1162	-0.2685	
-0.924272	0.393938	0.055144	-1.89	-10.78	33.67	0.3742	-0.1146	-0.2624	
-0.927932	0.407358	0.06954	-2.17	-5.88	32.55	0.3729	-0.1207	-0.2609	
-0.908656	0.416508	0.091256	-2.03	-8.4	31.22	0.3701	-0.1374	-0.258	
-0.939156	0.435052	0.083692	-4.34	-14.49	30.94	0.3745	-0.136	-0.2656	
-0.911218	0.420046	0.06405	-3.08	-12.88	29.33	0.3616	-0.1405	-0.2748	
-0.905728	0.440664	0.065758	0.91	-3.99	26.6	0.3573	-0.1466	-0.2702	
-0.886208	0.44713	0.097844	3.01	-1.82	24.43	0.366	-0.1497	-0.2642	
-0.894138	0.439566	0.091988	-2.73	-5.67	24.5	0.3558	-0.1435	-0.2671	
-0.892064	0.451156	0.066978	0.7	-7	23.31	0.3588	-0.1543	-0.2718	
-0.888038	0.455792	0.05978	4.55	-4.34	22.26	0.35	-0.145	-0.2732	
-0.886818	0.461648	0.087962	6.51	-2.03	20.16	0.3545	-0.1587	-0.2673	
-0.878156	0.478728	0.098454	6.02	-3.85	18.13	0.3444	-0.1632	-0.2627	
-0.880718	0.487756	0.080398	4.76	-5.39	16.38	0.3458	-0.1556	-0.2748	
-0.876692	0.49349	0.07259	4.97	-4.76	13.86	0.343	-0.1617	-0.2733	
-0.872544	0.500932	0.080154	8.12	-2.66	11.34	0.3473	-0.1618	-0.2749	
-0.873398	0.512034	0.090524	6.23	-2.59	8.68	0.3445	-0.1693	-0.2673	
-0.863516	0.521306	0.088938	4.97	-3.78	6.23	0.3474	-0.1633	-0.2779	
-0.859856	0.521184	0.077104	5.04	-4.34	3.99	0.3417	-0.177	-0.2719	
-0.855464	0.522038	0.082228	5.18	-2.1	1.82	0.3418	-0.1816	-0.2735	
-0.859856	0.52948	0.090402	3.57	-1.75	-0.77	0.3402	-0.1784	-0.2643	
-0.856928	0.53314	0.078324	2.45	-1.47	-5.11	0.3535	-0.1909	-0.2752	
-0.860954	0.531798	0.087108	1.47	-0.21	-6.86	0.3503	-0.1755	-0.2659	
-0.859734	0.532896	0.0854	0.14	-0.7	-9.03	0.3402	-0.1724	-0.2719	
-0.859734	0.534604	0.083814	-1.26	0.7	-11.48	0.3446	-0.1769	-0.2628	
-0.858392	0.530822	0.09552599	-4.2	2.17	-13.79	0.3473	-0.1663	-0.2658	
-0.863638	0.534482	0.092842	-6.02	0.49	-17.22	0.3533	-0.1787	-0.2751	
-0.854366	0.539118	0.085522	-4.83	0.98	-20.79	0.3487	-0.1572	-0.2718	
-0.853878	0.528748	0.083448	-11.27	5.67	-23.03	0.3473	-0.1618	-0.2764	
-0.859612	0.517768	0.082594	-1.05	4.62	-25.69	0.3458	-0.1511	-0.2748	
-0.880474	0.491294	0.095892	-9.45	5.81	-28.35	0.3646	-0.1543	-0.2673	
-0.887062	0.484462	0.091744	-9.24	8.12	-33.25	0.3572	-0.1435	-0.2702	
-0.883036	0.479826	0.0854	-7.42	8.82	-36.19	0.3572	-0.1405	-0.2702	
-0.884134	0.47885	0.083692	-5.25	9.45	-38.15	0.3644	-0.136	-0.2732	
-0.932202	0.454938	0.0854	-6.58	9.38	-39.55	0.3658	-0.1329	-0.2686	
-0.883768	0.438956	0.088206	-11.69	10.43	-41.72	0.3614	-0.1313	-0.2686	
-0.880352	0.424194	0.077958	-5.32	10.36	-43.89	0.3744	-0.1239	-0.2762	
-0.887306	0.40443	0.083814	-7.42	11.97	-44.31	0.3756	-0.1009	-0.2653	
-0.893284	0.394548	0.081618	-4.9	12.11	-46.06	0.38	-0.1086	-0.2685	
-0.924516	0.364292	0.07137	-3.22	12.18	-48.09	0.3813	-0.0964	-0.2653	
-0.930494	0.360144	0.066856	-2.52	11.97	-48.72	0.3884	-0.0903	-0.2622	
-0.933178	0.333548	0.06527	-3.57	11.41	-48.3	0.384	-0.0826	-0.2622	
-0.959164	0.314882	0.055998	-5.39	8.26	-48.58	0.3796	-0.0704	-0.2681	
-0.960872	0.305122	0.034038	1.96	7.28	-50.19	0.3853	-0.06879999	-0.2559	
-0.966362	0.297436	0.029036	2.66	9.87	-51.38	0.3808	-0.0611	-0.2528	
-0.968924	0.280356	0.032574	1.82	10.64	-52.99	0.388	-0.0505	-0.2619	
-0.976488	0.25803	0.040382	-0.35	11.06	-54.32	0.3923	-0.0535	-0.2513	
-0.996862	0.230336	0.03477	-0.77	9.52	-55.65	0.3965	-0.0353	-0.2572	
-1.014552	0.199226	0.02562	2.1	8.26	-56.7	0.3935	-0.023	-0.2586	
-1.001132	0.163846	0.024888	-4.34	7	-56.91	0.4036	-0.0231	-0.2556	
-1.031632	0.136518	0.011956	1.75	8.26	-57.82	0.3961	-0.0092	-0.2478	
-1.026752	0.110776	0.022936	0.77	6.79	-57.75	0.399	-0.0062	-0.2463	
-1.038098	0.057584	0.007198	-3.5	3.85	-56.98	0.4003	0.0089	-0.2568	
-1.032608	0.042822	-0.008417999	5.53	0.35	-58.66	0.4018	0.0028	-0.2523	
-1.024312	0.008174	0.001098	0	2.31	-59.92	0.3958	0.0182	-0.2506	
-1.032852	-0.008174	-0.004636	11.34	5.53	-62.16	0.4029	0.0319	-0.2429	
-1.032608	-0.038552	0.011224	13.44	4.41	-62.72	0.3985	0.032	-0.2459	
-1.021872	-0.061488	0.01525	15.54	0	-64.19	0.3911	0.0519	-0.2549	
-1.018456	-0.08235	0.007808	14.84	-1.96	-62.79	0.3939	0.0641	-0.2517	
-1.00528	-0.096502	-0.002074	14.77	-1.75	-60.9	0.3995	0.0747	-0.2532	
-1.017602	-0.142496	-0.011346	12.46	-2.1	-57.26	0.4011	0.0685	-0.2594	
-0.98576	-0.150304	-0.006466	15.82	-0.35	-54.88	0.3864	0.0871	-0.2561	
-0.991372	-0.164212	0.018544	9.45	3.22	-51.94	0.385	0.0841	-0.2546	
-0.97966	-0.170678	0.036356	6.79	3.71	-49.07	0.395	0.09299999	-0.2622	
-0.984296	-0.175192	0.041358	5.67	3.36	-46.48	0.392	0.0963	-0.2423	
-0.982466	-0.175558	0.042944	6.51	2.45	-46.13	0.3862	0.1055	-0.2529	
-0.9943	-0.188978	0.030134	3.71	0.14	-45.5	0.389	0.1099	-0.2605	
-0.995764	-0.221796	0.023424	2.03	0	-44.31	0.3889	0.1207	-0.2558	
-0.986126	-0.246806	0.03172	2.1	3.5	-43.82	0.3845	0.1269	-0.2527	
-0.978196	-0.251442	0.03538	-0.84	4.41	-44.38	0.3786	0.1316	-0.2526	
-1.001132	-0.254614	0.031598	-0.63	1.61	-43.05	0.3814	0.1376	-0.2556	
-0.966728	-0.272548	0.042822	-4.62	-1.75	-40.53	0.38	0.1361	-0.2602	
-0.971242	-0.28304	0.031842	-3.78	-3.36	-37.31	0.3812	0.156	-0.2554	
-0.980514	-0.296094	0.020374	-4.06	-2.59	-34.79	0.3712	0.1424	-0.2509	
-0.970022	-0.304268	0.027084	-1.89	-0.7	-32.06	0.3741	0.1469	-0.2494	
-0.962336	-0.318786	0.032452	-3.71	-2.8	-27.37	0.3695	0.1699	-0.2507	
-0.956358	-0.327448	0.02928	-5.04	-3.64	-25.69	0.3666	0.1669	-0.2537	
-0.948306	-0.3416	0.02379	-4.41	-2.66	-22.26	0.3636	0.1821	-0.2612	
-0.949038	-0.347334	0.02562	-4.27	-1.68	-20.86	0.3521	0.1701	-0.2567	
-0.945622	-0.352092	0.029646	-3.43	0.35	-20.23	0.3592	0.1822	-0.2627	
-0.95282	-0.365024	0.02989	-6.72	-0.77	-18.69	0.3637	0.1759	-0.2689	
-0.945988	-0.375028	0.032818	-4.83	-0.56	-17.29	0.3592	0.1838	-0.2566	
-0.93757	-0.394182	0.029768	-5.81	-0.56	-14.77	0.3636	0.1792	-0.2475	
-0.932446	-0.410164	0.022326	-5.18	-0.14	-12.88	0.3505	0.1869	-0.2535	
-0.924394	-0.402844	0.027084	-1.4	0.63	-10.15	0.3576	0.193	-0.2489	
-0.934032	-0.411018	0.031598	-1.12	1.47	-6.16	0.362	0.1868	-0.252	
-0.924028	-0.420412	0.026352	0.35	0.77	-3.5	0.3519	0.1884	-0.255	
-0.918904	-0.41175	0.026718	2.94	0.98	-0.98	0.3534	0.1854	-0.2565	
-0.93574	-0.407602	0.032818	4.34	2.1	1.12	0.359	0.196	-0.2534	
-0.926102	-0.409188	0.030744	8.61	-0.7	3.5	0.3635	0.1868	-0.249	
-0.912926	-0.410774	0.032208	0.49	1.89	5.67	0.3606	0.1884	-0.2489	
-0.92537	-0.409188	0.026474	2.24	2.87	6.79	0.3518	0.19	-0.2473	
-0.90768	-0.39589	0.029402	4.9	3.57	8.33	0.3563	0.1808	-0.249	
-0.945744	-0.385642	0.023302	5.18	4.41	10.43	0.3591	0.1915	-0.2443	
-0.93757	-0.383446	0.025986	5.88	1.68	13.65	0.3577	0.1869	-0.2505	
-0.917928	-0.373198	0.0244	8.61	2.52	14.35	0.3592	0.1822	-0.2536	
-0.94428	-0.35075	0.01769	6.93	4.9	16.03	0.3592	0.1853	-0.2581	
-0.931836	-0.355508	0.024522	6.58	4.27	18.06	0.3723	0.1729	-0.2537	
-0.940132	-0.340136	0.024766	5.95	5.11	19.74	0.3753	0.1698	-0.2568	
-0.952332	-0.3172	0.021106	6.72	5.39	19.18	0.3652	0.1624	-0.2461	
-0.933422	-0.31781	0.022204	2.1	5.32	20.16	0.3724	0.1637	-0.2538	
-0.96075	-0.290604	0.002562	3.64	7.35	20.93	0.371	0.1622	-0.2553	
-0.962092	-0.285114	0.004514	-1.26	6.23	21.98	0.3724	0.1623	-0.2431	
-0.951844	-0.258396	0.013786	-2.1	8.19	21.56	0.3725	0.1622	-0.2584	
-0.955016	-0.264496	0.01708	-9.38	8.75	20.65	0.3741	0.1439	-0.2479	
-0.951356	-0.2623	0.011102	-7.91	7	20.16	0.3768	0.1607	-0.2477	
-0.970876	-0.249368	-0.007198	-12.04	5.95	19.95	0.3799	0.1408	-0.2434	
-0.973804	-0.239242	-0.008784	-10.5	9.59	19.53	0.3798	0.15	-0.2417	
-0.988444	-0.243268	0.001098	-14.77	11.34	19.11	0.3797	0.1516	-0.2356	
-1.000034	-0.229726	-0.00488	-17.01	9.03	18.34	0.3885	0.1438	-0.2327	
-0.994056	-0.22753	-0.0183	-20.79	4.27	18.13	0.3842	0.1469	-0.2433	
-0.995154	-0.246684	-0.037332	-24.78	4.62	18.41	0.3843	0.1377	-0.2388	
-0.977586	-0.228506	-0.02928	-15.26	6.93	17.15	0.3797	0.1546	-0.2371	
-1.001742	-0.213134	-0.02989	-21.07	6.44	16.8	0.3827	0.1439	-0.2296	
-1.008086	-0.221064	-0.038186	-20.3	4.06	16.31	0.3886	0.1347	-0.2312	
-1.01809	-0.203374	-0.04453	-18.27	1.82	15.19	0.3913	0.1454	-0.222	
-1.01138	-0.185074	-0.061	-16.45	3.78	14.98	0.3928	0.1423	-0.2236	
-0.999058	-0.191662	-0.053802	-22.47	4.76	16.38	0.3959	0.1331	-0.2282	
-1.01748	-0.19764	-0.056852	-22.82	2.45	16.66	0.3942	0.1469	-0.222	
-1.016382	-0.176412	-0.060146	-16.59	0.35	16.52	0.3943	0.1393	-0.2221	
-1.011624	-0.170434	-0.05917	-17.08	1.26	17.15	0.3944	0.1361	-0.2358	
-1.010648	-0.15921	-0.055388	-14.56	0.91	16.52	0.4001	0.1438	-0.2236	
-1.010892	-0.150548	-0.058804	-18.69	1.05	16.24	0.3959	0.124	-0.2238	
-1.022726	-0.155306	-0.060756	-23.03	-0.21	16.66	0.4032	0.1284	-0.2299	
-1.029436	-0.155916	-0.065636	-19.88	-2.1	16.94	0.3987	0.1331	-0.2237	
-1.009306	-0.13542	-0.062708	-14.14	-1.54	18.2	0.4031	0.1284	-0.2253	
-1.007476	-0.132004	-0.054656	-12.81	1.82	21.14	0.4002	0.1331	-0.2206	
-0.992592	-0.130052	-0.03172	-8.05	1.82	21.28	0.3959	0.1256	-0.2131	
-1.00406	-0.122244	-0.030866	-18.69	1.12	21.91	0.4061	0.1208	-0.2162	
-1.002718	-0.118828	-0.051362	-20.37	1.75	21.35	0.4076	0.1147	-0.2163	
-1.019188	-0.099918	-0.080886	-24.15	3.5	18.48	0.4075	0.1239	-0.2147	
-1.02175	-0.067466	-0.085766	-21	3.99	15.68	0.4047	0.1178	-0.2162	
-1.027606	-0.040626	-0.091866	-21.35	7.56	12.74	0.4061	0.1209	-0.2147	
-1.039562	-0.033184	-0.083448	-28.91	10.15	11.69	0.3944	0.1271	-0.2115	
-1.042124	-0.030866	-0.088206	-30.45	9.45	8.12	0.4105	0.1101	-0.2133	
-1.03212	-0.014396	-0.102358	-32.41	5.81	3.78	0.4118	0.1194	-0.2025	
-1.034316	-0.001708	-0.122732	-32.27	4.55	-0.07	0.4089	0.1209	-0.2086	
-1.038464	0.00732	-0.122366	-32.13	1.68	-4.2	0.409	0.1178	-0.2056	
-1.019066	-0.014884	-0.102602	-33.6	4.97	-7.42	0.4175	0.1239	-0.1979	
-1.022848	-0.013908	-0.090402	-29.96	6.44	-10.08	0.4131	0.1317	-0.1948	
-1.027606	-0.042578	-0.086498	-41.72	3.01	-11.69	0.4074	0.1256	-0.1994	
-1.03639	-0.026718	-0.104798	-40.95	-1.75	-14.42	0.4058	0.1378	-0.1978	
-1.003938	-0.030988	-0.11102	-43.89	-3.57	-14.14	0.4114	0.1486	-0.1885	
-0.998448	-0.065026	-0.09857599	-47.04	1.54	-16.03	0.4012	0.1533	-0.1823	
-0.993812	-0.094062	-0.068564	-41.93	4.48	-17.5	0.4027	0.1471	-0.187	
-1.017724	-0.103944	-0.088328	-48.58	-1.26	-17.29	0.4057	0.1425	-0.1916	
-1.003938	-0.103456	-0.099308	-47.18	0.14	-18.41	0.4084	0.1548	-0.1778	
-1.006988	-0.13359	-0.09272	-39.06	0.7	-19.04	0.4169	0.1669	-0.1762	
-1.019798	-0.134688	-0.071492	-40.6	3.22	-20.51	0.4009	0.1779	-0.1714	
-0.994788	-0.137616	-0.087474	-41.02	-3.29	-18.69	0.4008	0.1825	-0.1744	
-0.986126	-0.14823	-0.103456	-37.73	-1.33	-19.53	0.3981	0.1702	-0.1806	
-0.987956	-0.166408	-0.102114	-40.11	-2.94	-19.81	0.4023	0.1778	-0.176	
-0.99491	-0.188612	-0.096136	-30.45	-1.33	-18.62	0.4021	0.1932	-0.1698	
-0.976	-0.194834	-0.083082	-24.36	-3.92	-19.18	0.3949	0.1902	-0.1713	
-0.976854	-0.190442	-0.07442	-26.18	-4.41	-19.25	0.392	0.1918	-0.1682	
-0.980026	-0.21289	-0.085156	-24.78	-6.16	-18.06	0.3919	0.1994	-0.1697	
-0.973682	-0.239608	-0.087962	-24.01	-5.81	-16.73	0.3919	0.1994	-0.1758	
-0.959408	-0.247172	-0.073566	-14.28	-6.09	-15.89	0.3874	0.2103	-0.1574	
-0.98027	-0.242902	-0.068564	-15.33	-3.85	-16.17	0.383	0.215	-0.1542	
-0.975024	-0.24095	-0.09577	-17.22	-6.37	-14.98	0.3873	0.2149	-0.1604	
-0.964898	-0.240584	-0.087474	-11.2	-4.76	-13.09	0.4003	0.2193	-0.1634	
-0.955138	-0.233752	-0.086986	-7.49	-4.48	-11.13	0.3875	0.2072	-0.1665	
-0.96929	-0.23241	-0.087718	-10.57	-4.83	-8.75	0.38	0.2241	-0.1663	
-0.975268	-0.244488	-0.085888	-6.79	-5.6	-7.56	0.3784	0.2333	-0.1601	
-0.955138	-0.245342	-0.101504	5.95	-10.08	-4.83	0.3786	0.2241	-0.1633	
-0.981978	-0.23912	-0.050264	3.36	-2.24	-5.74	0.3916	0.2209	-0.1664	
-0.984174	-0.227896	-0.076982	-3.22	-5.88	-6.02	0.3815	0.2255	-0.1724	
-0.965752	-0.233264	-0.066978	1.12	-4.06	-4.55	0.38	0.2347	-0.1769	
-0.962946	-0.241804	-0.054656	-2.38	-2.31	-2.87	0.3816	0.2193	-0.1847	
-0.966606	-0.245708	-0.059048	-2.52	-3.92	-2.52	0.38	0.2285	-0.1785	
-0.966484	-0.246684	-0.07381	-1.4	-2.87	-1.47	0.3771	0.2286	-0.1815	
-0.971608	-0.241194	-0.059292	0.63	-1.75	-0.42	0.38	0.2271	-0.1739	
-0.96563	-0.242414	-0.03965	1.19	-1.68	-0.21	0.3857	0.2362	-0.1739	
-0.967094	-0.247904	-0.051484	0.84	-1.82	1.33	0.3785	0.2346	-0.1845	
-0.979172	-0.246074	-0.07625	3.71	-0.28	3.85	0.3786	0.227	-0.18	
-0.972828	-0.254736	-0.069906	7.42	1.54	6.86	0.377	0.2394	-0.1677	
-0.962214	-0.252174	-0.05612	7.91	3.43	9.17	0.3786	0.2226	-0.1633	
-0.96746	-0.244976	-0.06771	7.77	3.99	12.53	0.3771	0.2241	-0.1679	
-0.968192	-0.243146	-0.083082	5.25	6.86	17.08	0.3886	0.2286	-0.1618	
-0.98149	-0.257054	-0.065636	9.59	8.47	22.96	0.3843	0.2256	-0.1648	
-0.98515	-0.260592	-0.075274	13.93	10.57	28.77	0.3816	0.2149	-0.168	
-0.977952	-0.268156	-0.087108	12.39	10.71	33.18	0.3816	0.2118	-0.1726	
-0.917806	-0.23851	-0.079666	20.51	12.53	37.52	0.389	0.2009	-0.1773	
-0.976732	-0.227286	-0.123342	-15.61	9.73	42.14	0.4007	0.1932	-0.1667	
-0.946476	-0.206058	-0.116144	13.58	14.28	46.41	0.4036	0.1947	-0.1698	
-0.98332	-0.193004	-0.088816	18.48	15.4	51.03	0.3995	0.1718	-0.1684	
-0.97722	-0.168482	-0.101016	23.1	12.81	55.37	0.4111	0.1671	-0.1655	
-0.990274	-0.145912	-0.150548	32.76	16.1	56.21	0.414	0.161	-0.164	
-1.008818	-0.128954	-0.159332	38.85	8.4	54.25	0.4126	0.155	-0.1534	
-1.01931	-0.105408	-0.13786	46.27	6.65	54.32	0.4301	0.1486	-0.1612	
-0.999912	-0.082594	-0.122366	57.75	12.46	50.33	0.4244	0.1395	-0.1597	
-1.004914	-0.054656	-0.116144	58.8	6.79	49.56	0.4246	0.1257	-0.1568	
-0.993446	-0.011834	-0.117608	63.84	-7.28	53.13	0.4261	0.1241	-0.1675	
-1.004548	-0.013786	-0.148352	22.33	-20.23	56.49	0.4278	0.1057	-0.1737	
-1.014186	-0.01708	-0.183854	56.98	-24.99	60.13	0.4178	0.08899999	-0.1738	
-1.026752	0.030012	-0.191052	63.56	-23.66	58.17	0.4236	0.0904	-0.1739	
-1.021994	0.026108	-0.162382	61.39	-15.68	58.31	0.4224	0.0751	-0.1801	
-1.010282	0.025498	-0.090646	59.85	-20.86	49.63	0.4311	0.0673	-0.1833	
-1.07421	0.046604	-0.105896	107.1	-49.84	56.07	0.4357	0.0504	-0.1895	
-1.057008	0.074664	-0.141764	86.66	-69.93	56.35	0.4199	0.0429	-0.1941	
-1.025654	0.094916	-0.18849	108.85	-63.07	61.32	0.429	0.0181	-0.2127	
-0.985638	0.207766	-0.19581	121.8	-45.15	52.08	0.4104	-0.0015	-0.225	
-1.014918	0.141032	-0.200934	102.55	-19.6	53.83	0.4106	-0.0153	-0.2266	
-0.989054	0.159698	-0.158966	133.28	-6.93	57.12	0.4152	-0.0383	-0.2268	
-1.016626	0.19154	-0.174582	104.44	-3.36	55.44	0.4126	-0.0673	-0.224	
-0.992104	0.226676	-0.169458	120.19	11.27	51.38	0.4127	-0.0734	-0.2241	
-1.00345	0.291092	-0.114558	139.16	18.48	54.88	0.4156	-0.081	-0.2104	
-0.972096	0.30866	-0.07991	117.39	3.99	53.34	0.4188	-0.1085	-0.2061	
-0.962946	0.310978	-0.093086	93.1	-15.33	53.13	0.4131	-0.1191	-0.197	
-0.940254	0.35746	-0.108092	94.92	-29.89	45.43	0.4031	-0.1343	-0.1987	
-0.94977	0.387228	-0.167872	100.45	-40.25	42.84	0.4075	-0.1404	-0.1957	
-0.949892	0.3965	-0.181048	76.51	-39.62	36.75	0.3903	-0.1494	-0.1972	
-0.934032	0.454084	-0.159332	82.67	-29.68	34.09	0.3875	-0.1631	-0.1988	
-0.905362	0.453108	-0.098942	55.86	-17.08	35	0.3863	-0.1769	-0.2035	
-0.908778	0.444568	-0.092476	47.67	-13.79	36.47	0.3862	-0.1753	-0.1974	
-0.952454	0.466772	-0.088938	41.44	-12.67	27.86	0.3777	-0.189	-0.2036	
-0.935618	0.433588	-0.05612	37.31	-17.5	24.99	0.379	-0.1828	-0.1913	
-0.913536	0.422974	-0.04026	24.99	-27.02	23.03	0.3835	-0.1951	-0.1869	
-0.898774	0.417728	-0.07808	38.71	-21.07	18.55	0.3734	-0.192	-0.1975	
-0.937448	0.433832	-0.124196	52.85	-5.32	11.97	0.3736	-0.2134	-0.1916	
-0.902434	0.437614	-0.042578	39.48	-6.3	12.11	0.3721	-0.2073	-0.1961	
-0.898042	0.399306	0.00122	-1.33	-17.57	16.1	0.3722	-0.2179	-0.1916	
-0.880718	0.411506	-0.095282	26.81	-11.76	5.67	0.3606	-0.2178	-0.1946	
-0.893894	0.43005	-0.096746	18.62	-0.35	4.13	0.368	-0.227	-0.1917	
-0.903532	0.433222	-0.042456	19.81	1.05	3.36	0.3592	-0.2239	-0.1886	
-0.901336	0.43066	-0.027206	1.19	-8.68	4.9	0.3694	-0.2241	-0.1978	
-0.899994	0.429196	-0.088084	-4.2	-8.82	4.97	0.3664	-0.2224	-0.1871	
-0.899628	0.418094	-0.092354	-9.31	-1.82	5.04	0.3622	-0.227	-0.1932	
-0.893894	0.424682	-0.058682	-8.82	3.43	3.57	0.3622	-0.2256	-0.2038	
-0.904264	0.421632	-0.045994	-13.79	1.54	1.75	0.3651	-0.23	-0.1871	
-0.919758	0.430416	-0.059536	-11.41	0.14	-1.26	0.3563	-0.2193	-0.1931	
-0.918294	0.433222	-0.075396	-14.63	-0.21	-4.06	0.3564	-0.2284	-0.1932	
-0.9028	0.408944	-0.077348	-21.42	1.33	-5.67	0.365	-0.2178	-0.1916	
-0.904386	0.416752	-0.077348	-19.81	8.12	-9.73	0.3577	-0.2147	-0.1961	
-0.921588	0.428952	-0.059292	-21.49	12.67	-14.21	0.3591	-0.2117	-0.1976	
-0.903654	0.41785	-0.044652	-24.22	12.46	-17.92	0.3664	-0.2179	-0.1992	
-0.903654	0.429806	-0.03355	-19.32	8.12	-22.33	0.362	-0.2133	-0.1976	
-0.941352	0.4636	-0.054046	-37.24	6.16	-26.95	0.3764	-0.2012	-0.2022	
-0.940132	0.455548	-0.091134	-35.49	5.25	-33.6	0.3763	-0.1966	-0.196	
-0.921954	0.445056	-0.089792	-58.24	5.6	-34.37	0.3777	-0.1844	-0.202	
-0.92598	0.40748	-0.074664	-61.67	9.38	-34.37	0.3834	-0.1799	-0.1944	
-0.921588	0.401868	-0.081862	-51.52	14.84	-34.72	0.3891	-0.1693	-0.2065	
-0.939644	0.39467	-0.07686	-53.83	17.99	-35.77	0.3904	-0.1541	-0.2094	
-0.959164	0.374906	-0.071858	-60.97	20.65	-37.24	0.3874	-0.1479	-0.2109	
-0.96075	0.351604	-0.075396	-49.91	22.19	-42	0.3801	-0.1417	-0.2093	
-0.942084	0.36112	-0.063318	-73.01	15.54	-43.47	0.3945	-0.1358	-0.2169	
-0.956236	0.3233	-0.060756	-88.06	4.55	-45.01	0.4001	-0.1206	-0.2122	
-0.989054	0.30317	-0.075396	-82.32	-1.61	-44.8	0.3986	-0.1129	-0.2152	
-1.001498	0.28365	-0.09272	-90.44	-5.53	-46.55	0.4014	-0.0977	-0.2227	
-0.985882	0.283162	-0.08845	-91.35	-6.09	-48.37	0.4042	-0.0917	-0.2303	
-0.972706	0.1769	-0.11407	-90.37	-1.19	-41.3	0.4056	-0.0796	-0.2363	
-0.994056	0.177876	-0.115656	-112.28	3.92	-54.88	0.4039	-0.0642	-0.2331	
-1.009794	0.232166	-0.126514	-79.59	23.59	-50.61	0.4096	-0.0491	-0.2391	
-0.993812	0.107604	-0.146034	-92.05	38.08	-39.9	0.3977	-0.0304	-0.2267	
-0.998814	0.098454	-0.119194	-99.75	47.81	-47.67	0.4078	-0.02	-0.2404	
-1.051396	0.080032	-0.024156	-101.99	42.35	-46.55	0.4032	-0.0014	-0.2249	
-1.052128	0.078324	-0.073322	-95.76	25.55	-48.09	0.4216	0.0243	-0.2126	
-1.0187	0.05734	-0.128344	-92.47	20.72	-51.03	0.4171	0.0367	-0.2094	
-1.031998	0.061854	-0.183732	-87.01	30.94	-51.94	0.4213	0.0474	-0.2032	
-1.014918	0.044164	-0.190076	-90.09	39.34	-52.36	0.4226	0.0581	-0.194	
-1.02114	0.018666	-0.141276	-85.68	40.46	-54.18	0.4266	0.0826	-0.1861	
-0.993812	-0.011468	-0.124196	-80.99	40.32	-54.32	0.4266	0.0872	-0.1876	
-1.000034	-0.022814	-0.111752	-84.21	22.89	-48.37	0.4192	0.09649999	-0.1799	
-0.981246	-0.044774	-0.171654	-64.68	13.37	-46.27	0.4277	0.1103	-0.1737	
-0.992226	-0.062952	-0.17568	-67.55	7.35	-42.14	0.4118	0.1104	-0.1782	
-1.003084	-0.104188	-0.163114	-55.65	4.48	-39.27	0.4203	0.1226	-0.1766	
-0.98332	-0.074054	-0.1403	-40.46	4.55	-40.53	0.4172	0.1365	-0.1612	
-0.997106	-0.081496	-0.13664	-50.96	0.14	-37.31	0.4187	0.1304	-0.1567	
-0.990884	-0.108824	-0.150182	-57.96	-3.92	-35.42	0.417	0.1564	-0.158	
-0.98515	-0.13908	-0.144326	-48.16	-2.24	-32.69	0.4126	0.1534	-0.1549	
-1.000278	-0.165676	-0.126026	-45.15	-3.08	-30.52	0.4068	0.1565	-0.161	
-0.976854	-0.16897	-0.124318	-38.15	-5.25	-28.49	0.4169	0.1625	-0.1579	
-0.979294	-0.169092	-0.113826	-31.78	-2.52	-29.19	0.4139	0.1732	-0.1654	
-0.994422	-0.176168	-0.109678	-22.05	-3.29	-27.51	0.4052	0.1764	-0.1638	
-0.992714	-0.172874	-0.097356	-21.21	-2.87	-24.85	0.4078	0.1887	-0.1454	
-0.994056	-0.183244	-0.115778	-19.6	-6.09	-20.02	0.4021	0.1918	-0.1576	
-0.984174	-0.20801	-0.0915	-11.9	-4.69	-16.73	0.3962	0.1995	-0.156	
-0.959408	-0.185562	-0.088938	-5.88	-4.76	-15.33	0.3977	0.1949	-0.1545	
-0.9821	-0.196664	-0.096868	-11.27	-4.48	-12.6	0.4006	0.1964	-0.1545	
-0.972584	-0.196298	-0.09699	-5.53	-4.34	-9.17	0.399	0.2026	-0.1483	
-0.97661	-0.200446	-0.09747799	-7.07	-3.78	-7.49	0.4006	0.1964	-0.153	
-0.953552	-0.188612	-0.09552599	-3.01	-2.66	-6.37	0.3962	0.1995	-0.1544	
-0.966972	-0.191784	-0.088572	-8.33	0.07	-5.11	0.3859	0.2119	-0.1558	
-0.984784	-0.192516	-0.104066	-7.91	-0.28	-2.87	0.3961	0.2102	-0.1543	
-0.97905	-0.196176	-0.108458	-4.76	1.12	-1.19	0.4004	0.2086	-0.1559	
-0.979172	-0.190076	-0.100162	-1.54	1.96	-0.56	0.3903	0.2103	-0.1574	
-0.983686	-0.167384	-0.113582	0.77	1.47	-0.07	0.4019	0.2101	-0.1574	
-0.981978	-0.157868	-0.137494	1.68	2.03	1.26	0.4076	0.2161	-0.162	
-0.987712	-0.15982	-0.123952	4.97	4.2	2.87	0.3917	0.2133	-0.1528	
-0.988078	-0.156038	-0.114314	2.8	3.5	3.29	0.399	0.2056	-0.1513	
-0.992348	-0.160918	-0.124684	1.54	4.34	3.85	0.4018	0.2117	-0.1513	
-0.983442	-0.160064	-0.117974	1.96	5.04	5.04	0.3975	0.2072	-0.1498	
-0.984296	-0.165188	-0.12993	0.49	4.62	8.54	0.3918	0.2011	-0.1514	
-0.992104	-0.182024	-0.122732	4.48	5.95	11.97	0.3976	0.198	-0.1468	
-0.995032	-0.182024	-0.11102	17.43	5.81	15.47	0.4078	0.1948	-0.1484	
-0.990274	-0.195444	-0.127734	17.78	3.78	19.95	0.4063	0.1964	-0.1484	
-0.899994	-0.178974	-0.163968	12.95	7.07	26.46	0.4035	0.1888	-0.1454	
-1.017968	-0.20496	-0.126148	3.08	20.58	29.89	0.4093	0.1903	-0.1424	
-0.96319	-0.196664	-0.158478	11.76	12.67	36.33	0.4121	0.1918	-0.1424	
-0.977952	-0.165798	-0.15799	13.65	16.31	39.83	0.4166	0.1795	-0.1364	
-0.967826	-0.159576	-0.130662	17.92	9.1	45.43	0.4153	0.1704	-0.1365	
-0.981246	-0.15128	-0.153232	26.46	2.38	50.47	0.408	0.1704	-0.1426	
-1.00162	-0.152622	-0.158966	37.1	-0.77	54.39	0.4198	0.1535	-0.1397	
-0.997472	-0.141764	-0.154818	48.23	-2.8	56.91	0.42	0.1442	-0.1474	
-0.981734	-0.095892	-0.159576	54.67	-8.89	56.49	0.4289	0.1287	-0.1583	
-0.97783	-0.071004	-0.166896	60.13	-12.95	56.49	0.4304	0.1227	-0.1507	
-0.990884	-0.022082	-0.166042	66.01	-17.92	53.9	0.4479	0.1132	-0.1646	
-1.040416	-0.003782	-0.174582	80.85	-22.68	55.3	0.4306	0.1042	-0.1631	
-1.095926	-0.033428	-0.17324	68.74	-34.16	58.94	0.4308	0.09339999	-0.1708	
-1.054568	0.015494	-0.163846	91.21	-40.67	58.38	0.431	0.0751	-0.171	
-0.97356	0.013908	-0.09089	96.04	-43.82	54.95	0.4239	0.072	-0.1847	
-1.011868	0.11956	-0.123342	137.76	-57.19	39.27	0.4272	0.0398	-0.1896	
-1.05835	0.129076	-0.205814	126.21	-50.12	50.89	0.4289	0.0213	-0.205	
-0.99491	0.116876	-0.197396	124.25	-37.8	51.17	0.4146	0.0076	-0.2112	
-0.978074	0.181658	-0.217892	137.2	-25.34	50.54	0.4119	-0.009099999	-0.2174	
-0.98942	0.177754	-0.201666	133.07	-5.67	54.67	0.4193	-0.026	-0.213	
-1.001864	0.137738	-0.157136	129.92	8.33	53.06	0.4123	-0.0397	-0.2131	
-1.00284	0.275232	-0.15189	151.69	13.93	53.06	0.4211	-0.052	-0.2072	
-0.94672	0.297924	-0.025742	39.97	0.07	47.74	0.4112	-0.0793	-0.2028	
-1.02053	0.22631	-0.150426	119.14	-22.54	59.01	0.4142	-0.08549999	-0.2059	
-0.960628	0.245586	-0.129442	44.03	-25.34	50.89	0.4156	-0.087	-0.1968	
-0.969778	0.228018	-0.173118	92.61	-18.41	45.15	0.4114	-0.0992	-0.1984	
-0.976732	0.313174	-0.143228	121.31	-18.41	34.93	0.4029	-0.1128	-0.1954	
-0.966606	0.332084	-0.126636	87.57	-31.01	36.61	0.3987	-0.1296	-0.1986	
-0.922442	0.329156	-0.150426	75.18	-34.44	30.17	0.4003	-0.1388	-0.1987	
-0.93025	0.392108	-0.1708	80.43	-21.14	30.52	0.3975	-0.151	-0.1972	
-0.961848	0.38796	-0.16226	72.31	-3.29	32.27	0.3918	-0.1616	-0.1943	
-0.946476	0.442738	-0.095648	64.96	-7.28	30.87	0.3861	-0.1661	-0.1866	
-0.953918	0.418826	-0.049776	36.89	-13.51	31.01	0.3905	-0.1738	-0.1883	
-0.951356	0.43615	-0.055022	37.73	-19.88	28.63	0.3876	-0.1768	-0.1883	
-0.920978	0.430294	-0.077348	33.04	-22.68	25.62	0.3833	-0.1767	-0.1867	
-0.90707	0.423828	-0.090402	16.24	-24.15	23.03	0.3849	-0.1936	-0.1854	
-0.917196	0.395524	-0.091378	9.52	-15.26	19.81	0.3849	-0.1905	-0.1884	
-0.919392	0.420656	-0.091378	18.13	-2.8	13.86	0.3807	-0.1966	-0.193	
-0.90768	0.415898	-0.057706	18.55	2.66	9.1	0.385	-0.2012	-0.19	
-0.9394	0.4392	-0.022326	-8.82	-7.42	13.72	0.3749	-0.2012	-0.1961	
-0.901702	0.384544	-0.106018	4.76	-10.78	7.84	0.3779	-0.2103	-0.1916	
-0.911706	0.406138	-0.11773	7.28	-2.66	4.76	0.3664	-0.2133	-0.1946	
-0.913048	0.387594	-0.076372	2.8	3.22	5.53	0.3706	-0.2042	-0.1961	
-0.913292	0.381128	-0.062342	-3.5	3.5	5.18	0.3779	-0.2073	-0.1915	
-0.902312	0.368928	-0.080886	-5.67	-0.49	4.2	0.3721	-0.2057	-0.1946	
-0.88816	0.364902	-0.08052	-3.08	-0.84	3.15	0.3737	-0.2165	-0.1962	
-0.915244	0.386496	-0.07564	-0.14	1.33	2.24	0.375	-0.2117	-0.1809	
-0.927688	0.391498	-0.073688	-2.24	2.03	1.68	0.3692	-0.2072	-0.19	
-0.927078	0.39162	-0.083448	-6.44	0.63	0.28	0.372	-0.2026	-0.1869	
-0.922076	0.397598	-0.100284	-7.84	4.48	-1.61	0.3706	-0.2026	-0.193	
-0.90768	0.402722	-0.08662	-7.63	7.35	-2.94	0.3779	-0.2073	-0.1931	
-0.912316	0.408944	-0.071736	-10.15	12.95	-6.23	0.3808	-0.2059	-0.2007	
-0.920856	0.432246	-0.0732	-9.17	12.88	-10.92	0.3677	-0.2041	-0.1884	
-0.92842	0.428586	-0.085522	-11.34	14.42	-14.7	0.3647	-0.1994	-0.1853	
-0.930128	0.44652	-0.098088	-19.32	11.83	-20.37	0.3791	-0.1935	-0.1869	
-0.932934	0.45872	-0.099552	-33.32	9.17	-24.29	0.3763	-0.1966	-0.193	
-0.94489	0.45994	-0.113704	-56.7	3.99	-23.87	0.3777	-0.195	-0.1899	
-0.96014	0.457134	-0.132858	-42.42	10.85	-32.34	0.3892	-0.1784	-0.2005	
-0.952088	0.459696	-0.125294	-67.06	13.79	-29.82	0.389	-0.1646	-0.1927	
-0.928054	0.426756	-0.158478	-66.15	14.49	-26.18	0.3876	-0.1647	-0.2019	
-0.93635	0.40138	-0.122854	-77.07	21	-32.76	0.3932	-0.1555	-0.1942	
-0.922808	0.412726	-0.119926	-56.91	21.91	-34.93	0.3945	-0.1432	-0.1865	
-0.947574	0.377468	-0.127246	-60.76	19.67	-38.43	0.4018	-0.1389	-0.2078	
-0.974414	0.330742	-0.097844	-93.52	13.3	-43.05	0.3915	-0.1296	-0.2077	
-0.98942	0.316468	-0.0732	-109.55	4.13	-47.46	0.4029	-0.1144	-0.2061	
-0.984418	0.321592	-0.092476	-114.24	-4.55	-45.78	0.3985	-0.0977	-0.2197	
-0.99064	0.322324	-0.111386	-104.86	-8.12	-46.9	0.3997	-0.0778	-0.2195	
-0.99918	0.264984	-0.167018	-113.89	-3.22	-38.57	0.4054	-0.0717	-0.2164	
-0.99979	0.25742	-0.124928	-125.3	5.95	-47.46	0.4126	-0.0627	-0.224	
-0.98454	0.145302	-0.188978	-96.53	24.5	-43.96	0.4023	-0.0474	-0.2345	
-1.014552	0.189344	-0.12749	-89.95	43.96	-48.51	0.4079	-0.0291	-0.2282	
-1.02053	0.143228	-0.118584	-101.15	50.61	-48.09	0.4135	-0.0199	-0.2175	
-1.032608	0.115656	-0.130174	-100.94	46.55	-50.89	0.4147	-0.006	-0.2037	
-1.039562	0.14152	-0.167872	-99.82	52.08	-53.06	0.4218	0.009	-0.2142	
-1.004426	0.073322	-0.157136	-99.96	65.38	-51.03	0.4143	0.0246	-0.1988	
-1.049322	0.03294	-0.113948	-114.17	58.52	-59.15	0.4274	0.0198	-0.1974	
-0.998814	0.04575	-0.065514	-89.95	35	-69.86	0.424	0.0552	-0.1803	
-1.00223	0.051484	-0.12139	-85.61	12.88	-72.03	0.4325	0.0734	-0.1817	
-0.948306	0.015372	-0.194102	-77.63	7.21	-60.83	0.4381	0.0857	-0.174	
-0.98576	0.004514	-0.202886	-70.28	6.44	-57.19	0.4192	0.0936	-0.1662	
-0.97539	-0.019642	-0.208132	-59.92	6.3	-51.1	0.4306	0.1118	-0.1661	
-0.96746	-0.04819	-0.146034	-53.83	4.2	-45.57	0.4217	0.1257	-0.1598	
-0.975878	-0.057706	-0.112972	-49.07	-0.56	-43.33	0.4217	0.1287	-0.1674	
-0.985028	-0.093208	-0.132248	-56.07	-5.53	-39.76	0.4186	0.1411	-0.1581	
-0.990518	-0.123098	-0.16836	-56.56	-7.63	-34.37	0.4141	0.1488	-0.155	
-0.99003	-0.160186	-0.124928	-35.77	-6.44	-32.97	0.4213	0.1593	-0.1656	
-0.987712	-0.188002	-0.09882	-40.81	-7.14	-31.64	0.4154	0.1686	-0.1594	
-0.982588	-0.221186	-0.095648	-39.34	-5.46	-30.94	0.4152	0.1764	-0.1486	
-0.978684	-0.228262	-0.106262	-27.93	-5.53	-28.63	0.4195	0.187	-0.1577	
-0.965264	-0.231068	-0.085766	-21.07	-6.02	-26.74	0.4109	0.1794	-0.1562	
-0.976732	-0.222406	-0.080642	-16.94	-3.29	-22.61	0.4094	0.1871	-0.1561	
-0.969412	-0.210328	-0.083326	-13.3	-3.29	-16.52	0.4064	0.1887	-0.1485	
-0.97234	-0.200202	-0.072468	-6.58	-1.05	-12.39	0.402	0.1918	-0.1515	
-0.971364	-0.185928	-0.08113	-0.49	-1.96	-8.89	0.4064	0.1887	-0.1546	
-0.988932	-0.176046	-0.06771	3.85	-1.19	-7	0.3976	0.198	-0.1499	
-0.974048	-0.15494	-0.077348	6.86	-3.43	-5.18	0.4034	0.1979	-0.153	
-0.987224	-0.14335	-0.078202	3.64	-0.7	-4.2	0.402	0.1994	-0.1545	
-0.98881	-0.136396	-0.094916	3.5	-0.7	-2.24	0.3933	0.195	-0.1529	
-0.986492	-0.120658	-0.10309	6.51	0	0.49	0.4108	0.1901	-0.1638	
-0.99064	-0.114802	-0.098332	3.71	0.84	2.66	0.3919	0.195	-0.1529	
-0.995886	-0.119072	-0.093086	3.15	2.38	3.01	0.3962	0.1949	-0.1514	
-1.002718	-0.122854	-0.09455	1.05	2.52	3.78	0.3947	0.1996	-0.1514	
-1.007232	-0.11773	-0.11102	1.54	2.24	4.76	0.4006	0.1934	-0.1515	
-0.997472	-0.12444	-0.114924	-3.08	2.66	5.32	0.4006	0.1903	-0.1515	
-0.984296	-0.117486	-0.08845	2.03	5.25	5.88	0.3962	0.195	-0.1499	
-0.986858	-0.135542	-0.088938	-2.1	4.97	7.56	0.4035	0.1887	-0.153	
-0.987712	-0.149084	-0.093208	4.27	4.2	8.89	0.4034	0.201	-0.1484	
-0.988932	-0.184342	-0.089792	7.7	1.33	11.2	0.4051	0.1749	-0.1532	
-0.990518	-0.176656	-0.135176	11.55	0.56	13.23	0.4036	0.1872	-0.1561	
-0.967948	-0.158722	-0.154086	13.86	7.28	19.32	0.4065	0.1841	-0.1577	
-0.982954	-0.183	-0.102968	24.29	13.93	26.39	0.4006	0.1903	-0.1545	
-0.884378	-0.127856	-0.0854	13.37	18.48	29.33	0.4108	0.1886	-0.1561	
-1.003206	-0.198494	-0.153476	-15.47	20.02	39.62	0.4153	0.1733	-0.1487	
-0.964044	-0.16531	-0.175558	19.53	16.1	47.18	0.4124	0.1764	-0.1563	
-0.956114	-0.147864	-0.146766	30.87	23.66	52.43	0.4112	0.1535	-0.1458	
-0.945622	-0.136762	-0.146034	26.04	17.29	59.01	0.4198	0.1489	-0.1367	
-0.966484	-0.097112	-0.169702	31.57	8.89	60.48	0.4214	0.1412	-0.1429	
-0.992104	-0.094794	-0.177388	42.91	-1.19	62.02	0.4289	0.1257	-0.1507	
-1.012844	-0.054412	-0.17446	72.94	-6.44	60.69	0.4389	0.1318	-0.1492	
-1.01077	-0.009272	-0.1769	82.04	-9.87	59.36	0.442	0.1134	-0.1493	
-1.014186	0.019886	-0.187026	83.09	-19.53	57.61	0.4351	0.09649999	-0.1632	
-1.033218	0.077836	-0.183122	97.93	-28.28	51.87	0.4368	0.0659	-0.1574	
-1.058594	0.105164	-0.162626	94.92	-40.32	51.38	0.4312	0.0598	-0.1665	
-1.064206	0.104188	-0.141154	97.72	-52.01	53.41	0.4415	0.0473	-0.182	
-1.019432	0.127978	-0.132736	108.01	-62.51	52.22	0.4344	0.0382	-0.182	
-1.008452	0.132492	-0.170922	110.46	-69.65	51.66	0.4202	0.0199	-0.2004	
-0.99247	0.148474	-0.187636	111.44	-63.14	47.95	0.4232	0.0122	-0.2005	
-0.976854	0.185806	-0.255956	127.82	-39.9	37.59	0.4278	-0.0077	-0.2114	
-0.975512	0.28426	-0.207034	116.06	-10.78	40.25	0.4034	-0.0258	-0.2145	
-0.982344	0.16775	-0.220088	132.44	7.07	55.23	0.4137	-0.0366	-0.2131	
-0.996618	0.216062	-0.146034	113.89	17.01	48.79	0.4124	-0.0535	-0.2148	
-0.97051	0.250954	-0.146644	114.52	19.46	55.65	0.4124	-0.0595	-0.2041	
-0.969046	0.197884	-0.10126	69.3	11.2	55.72	0.4242	-0.0764	-0.1967	
-0.985516	0.209718	-0.104554	78.12	-4.2	53.06	0.4126	-0.0853	-0.1861	
-0.975024	0.228262	-0.10431	73.22	-15.12	42.28	0.423	-0.0993	-0.1923	
-1.00223	0.27084	-0.122732	118.58	-31.08	40.53	0.4114	-0.1052	-0.1893	
-0.983564	0.321348	-0.170556	94.36	-48.65	31.92	0.403	-0.1265	-0.1894	
-0.960262	0.350384	-0.275232	100.03	-40.74	31.57	0.4088	-0.1326	-0.1819	
-0.954894	0.398696	-0.273402	98.84	-15.54	31.29	0.4003	-0.1403	-0.1941	
-0.941474	0.423462	-0.143716	91.35	7.21	33.67	0.3874	-0.1568	-0.1789	
-0.945378	0.43981	-0.108824	69.51	2.17	32.9	0.3989	-0.1584	-0.1714	
-0.922442	0.438468	-0.09089	49.28	-12.18	33.04	0.4022	-0.1922	-0.1778	
-0.919392	0.449204	-0.091378	28.63	-29.05	31.92	0.392	-0.1874	-0.1731	
-0.919392	0.409188	-0.11529	29.54	-30.59	27.02	0.3994	-0.1982	-0.1748	
-0.92598	0.423218	-0.14152	45.29	-15.19	21.07	0.3893	-0.1981	-0.1747	
-0.917196	0.512034	-0.082838	40.67	-9.45	19.74	0.3806	-0.198	-0.1701	
-0.911096	0.40626	-0.090646	3.85	-13.72	18.2	0.3806	-0.2026	-0.1717	
-0.89426	0.452864	-0.145546	28.42	-8.26	10.15	0.3764	-0.2117	-0.1733	
-0.917196	0.42212	-0.13603	1.4	-1.54	10.71	0.3807	-0.2131	-0.1596	
-0.903898	0.421632	-0.134932	12.53	0.56	8.19	0.3806	-0.2041	-0.1687	
-0.902434	0.409798	-0.134078	3.08	2.73	8.68	0.3736	-0.2254	-0.1673	
-0.91195	0.407846	-0.127734	2.38	3.5	7.14	0.3792	-0.2102	-0.1702	
-0.910364	0.406138	-0.12566	-3.29	1.54	7.7	0.3807	-0.2132	-0.1642	
-0.90219	0.388936	-0.133712	-6.44	0.42	6.86	0.3764	-0.2132	-0.1687	
-0.914268	0.417606	-0.13542	-0.7	3.22	3.92	0.375	-0.2208	-0.1657	
-0.90036	0.422852	-0.137372	-5.32	3.01	1.75	0.3663	-0.2207	-0.1657	
-0.900116	0.420778	-0.135908	-7	1.68	0.63	0.3692	-0.2163	-0.184	
-0.907924	0.418582	-0.138592	-12.18	2.45	-0.56	0.3735	-0.2163	-0.1748	
-0.925004	0.410042	-0.141886	-16.59	3.22	-0.7	0.3765	-0.2193	-0.1733	
-0.932812	0.404186	-0.134688	-17.64	5.88	-1.33	0.3764	-0.2163	-0.1718	
-0.921832	0.392352	-0.141886	-19.46	4.62	-2.24	0.3705	-0.2054	-0.1671	
-0.914268	0.380152	-0.155184	-20.37	5.81	-2.87	0.3749	-0.2101	-0.1656	
-0.923418	0.382104	-0.143716	-13.79	8.68	-3.99	0.3777	-0.1995	-0.1762	
-0.92476	0.38369	-0.140666	-14.28	7.91	-4.34	0.3764	-0.2071	-0.1778	
-0.92781	0.36417	-0.151646	-16.38	5.25	-4.13	0.3735	-0.2087	-0.1824	
-0.914024	0.365878	-0.140056	-13.51	7	-5.39	0.3764	-0.2071	-0.1778	
-0.918904	0.384422	-0.116754	-7.56	8.54	-7.91	0.3822	-0.2088	-0.1794	
-0.911462	0.378078	-0.129442	-8.19	2.52	-10.5	0.3763	-0.1995	-0.1777	
-0.933422	0.412238	-0.146278	-6.79	1.75	-14.07	0.3676	-0.2024	-0.1732	
-0.921832	0.444202	-0.133712	-11.48	5.95	-15.96	0.3791	-0.2025	-0.1671	
-0.888892	0.466772	-0.113582	-8.33	9.17	-18.55	0.3921	-0.1981	-0.1702	
-0.93208	0.442738	-0.135664	-31.71	6.51	-17.85	0.3835	-0.1965	-0.1793	
-0.958066	0.48007	-0.15067	-20.02	9.17	-21.14	0.3876	-0.1843	-0.1716	
-0.950136	0.44164	-0.136884	-58.31	6.16	-21.56	0.3876	-0.1858	-0.1685	
-0.92476	0.402722	-0.12749	-63.77	5.04	-23.94	0.3892	-0.1859	-0.1792	
-0.887428	0.410774	-0.145302	-49.91	6.58	-25.83	0.3963	-0.1753	-0.1807	
-0.911828	0.359778	-0.175314	-53.41	4.06	-21.28	0.3904	-0.1646	-0.1912	
-0.979294	0.367098	-0.117608	-61.67	7.14	-25.34	0.3889	-0.157	-0.1957	
-0.964166	0.35441	-0.11102	-62.3	9.24	-28.21	0.4019	-0.1525	-0.1927	
-0.93635	0.33977	-0.10492	-82.46	-1.47	-31.08	0.4004	-0.1495	-0.1972	
-0.935374	0.319396	-0.095892	-91.07	-7.91	-30.94	0.3972	-0.1204	-0.1939	
-0.940864	0.315614	-0.093086	-88.48	-6.3	-30.31	0.3972	-0.116	-0.2137	
-0.961238	0.31903	-0.091988	-83.51	-4.76	-34.23	0.4029	-0.1098	-0.2061	
-0.972828	0.320372	-0.097844	-80.78	-4.2	-32.97	0.4029	-0.1038	-0.2182	
-0.988566	0.321836	-0.092842	-63.7	-2.73	-33.39	0.3984	-0.0901	-0.2287	
-0.992714	0.244976	-0.068442	-101.92	-1.26	-23.94	0.3983	-0.08549999	-0.2241	
-0.95099	0.216794	-0.081862	-78.75	-2.45	-22.68	0.404	-0.0703	-0.2301	
-0.9516	0.174094	-0.074786	-65.1	10.92	-23.59	0.4011	-0.0748	-0.2271	
-0.948672	0.20069	-0.047824	-57.54	19.53	-31.08	0.3952	-0.0595	-0.23	
-0.983808	0.201178	-0.007929999	-62.65	18.48	-25.97	0.411	-0.0489	-0.2223	
-1.033096	0.163968	0.019886	-66.99	18.97	-20.37	0.4094	-0.0367	-0.2314	
-1.012478	0.137494	0.005856	-67.9	14.56	-17.43	0.4123	-0.0398	-0.2223	
-1.005036	0.106872	-0.012688	-58.38	9.03	-19.6	0.4094	-0.0383	-0.2314	
-1.035292	0.133346	-0.059658	-36.47	15.33	-33.32	0.4134	-0.0138	-0.222	
-1.02419	0.129198	-0.073078	-29.47	19.18	-35.63	0.409	-0.0046	-0.225	
-1.007354	0.101748	-0.060024	-33.39	16.38	-31.92	0.4089	0	-0.2219	
-0.997838	0.053192	-0.047214	-38.64	12.39	-24.78	0.4117	0.009099999	-0.2203	
-1.006256	-0.002318	-0.059048	-33.39	10.01	-18.76	0.4146	0.0076	-0.2142	
-1.006012	-0.022814	-0.065026	-18.55	5.6	-17.92	0.4204	0.0151	-0.2218	
-1.010892	-0.01586	-0.061244	-6.02	-0.14	-18.13	0.4202	0.0213	-0.2156	
-0.997594	-0.001952	-0.054412	6.86	-6.02	-17.36	0.4173	0.0259	-0.2141	
-1.025166	0.023302	-0.063196	19.88	-10.43	-17.57	0.4143	0.0306	-0.211	
-1.005158	0.023668	-0.066734	25.13	-10.22	-17.08	0.4101	0.029	-0.2247	
-1.008574	0.02867	-0.075518	29.12	-12.53	-15.68	0.4173	0.0304	-0.2247	
-0.99186	0.025376	-0.074908	29.47	-12.88	-11.69	0.4042	0.0336	-0.2216	
-1.004182	0.049288	-0.067466	33.74	-9.1	-9.66	0.4173	0.0273	-0.2263	
-1.020408	0.0793	-0.054046	34.79	-8.54	-6.58	0.4115	0.0321	-0.2186	
-1.02785	0.10187	-0.047946	31.43	-8.68	-4.97	0.4073	0.0198	-0.2293	
-1.030778	0.112118	-0.044286	24.99	-9.31	-3.57	0.413	0.0319	-0.2308	
-1.021018	0.10187	-0.035502	20.23	-8.54	-1.33	0.4159	0.0288	-0.2323	
-1.007964	0.094428	-0.026718	21.84	-8.75	-0.35	0.4102	0.0198	-0.2263	
-1.0126	0.089548	-0.016836	23.52	-7.91	1.05	0.4101	0.0243	-0.2293	
-1.015284	0.090036	-0.010492	22.89	-7.07	1.47	0.4131	0.0197	-0.2324	
-1.009672	0.092842	-0.008662	21.35	-7.42	1.4	0.4175	0.0181	-0.237	
-1.008696	0.099796	-0.019276	22.26	-7.77	2.66	0.4101	0.0229	-0.2232	
-1.00162	0.105652	-0.024888	22.82	-7.84	4.48	0.4103	0.0136	-0.237	
-1.00406	0.113948	-0.027694	21.98	-7.84	6.16	0.4133	0.0104	-0.2416	
-0.999546	0.115778	-0.030134	21.07	-7.42	8.05	0.4088	0.0151	-0.237	
-1.012478	0.128954	-0.026352	20.72	-6.51	8.4	0.409	0.0044	-0.2401	
-1.018334	0.133468	-0.017934	18.83	-5.81	8.61	0.4003	0.0015	-0.2356	
-1.015528	0.140422	-0.009516	18.06	-4.2	7.7	0.4003	-0.003	-0.228	
-1.014674	0.146278	-0.003538	14.49	-4.41	6.09	0.4105	0.0013	-0.2387	
-0.999546	0.144936	0.00183	13.3	-4.97	4.69	0.4076	-0.0062	-0.2387	
-1.001742	0.148108	-0.00061	11.9	-5.11	3.5	0.4105	0.0013	-0.2432	
-1.008208	0.140422	-0.003782	9.17	-6.58	2.66	0.4062	-0.0062	-0.2433	
-1.000644	0.141276	-0.004026	9.8	-6.37	1.33	0.4122	-0.0216	-0.2404	
-1.00589	0.141276	0.002196	9.59	-3.78	1.33	0.4091	-0.0048	-0.2494	
-1.00345	0.136396	0.006954	6.79	-1.96	1.89	0.4077	-0.0062	-0.2433	
-1.014186	0.126148	0.01159	4.41	-1.82	1.89	0.4062	-0.0077	-0.2418	
-1.009428	0.127002	0.012444	3.43	-3.15	1.4	0.4063	-0.0108	-0.2433	
-0.995642	0.135054	0.01159	5.25	-2.87	0.42	0.4092	-0.0139	-0.2464	
-0.99491	0.141154	0.009881999	6.3	-2.45	-0.77	0.4107	-0.0155	-0.248	
-1.007232	0.146156	0.011834	4.27	-1.82	-1.47	0.3992	-0.02	-0.2479	
-1.007232	0.137616	0.012078	-2.31	-2.24	-2.03	0.4064	-0.02	-0.248	
-1.01138	0.12993	0.008174	-5.81	-2.8	-2.94	0.4064	-0.017	-0.2525	
-1.001376	0.12017	0.009272	-6.09	-0.63	-3.22	0.4136	-0.0156	-0.2526	
-1.005524	0.120658	0.01281	-3.92	0.7	-3.29	0.4063	-0.0124	-0.2449	
-1.000522	0.12078	0.017324	-3.08	0.63	-3.01	0.4063	-0.0124	-0.2494	
-1.007598	0.129076	0.0183	-3.29	-0.21	-2.31	0.4121	-0.0155	-0.248	
-1.001498	0.127856	0.017324	-4.62	-0.84	-1.54	0.4106	-0.0049	-0.254	
-1.008696	0.122854	0.014518	-6.58	-1.61	-1.33	0.399	-0.0078	-0.2524	
-1.008574	0.119194	0.011834	-7.77	-2.59	-1.75	0.405	-0.0186	-0.2571	
-1.013942	0.1037	0.010736	-10.71	-2.17	-2.31	0.4033	-0.0001	-0.2508	
-1.001742	0.093696	0.00854	-10.71	-2.1	-3.15	0.4078	-0.0155	-0.2495	
-1.009184	0.091012	0.005368	-9.38	-1.75	-3.71	0.3976	-0.0032	-0.26	
-1.010404	0.094428	0.005368	-4.83	-1.19	-3.5	0.4018	-0.0031	-0.2402	
-1.017114	0.101626	0.010858	-2.8	-2.1	-2.8	0.3975	-0.0031	-0.2493	
-1.014186	0.108458	0.01281	-3.08	-3.92	-1.89	0.4004	0.0012	-0.2615	
-1.019188	0.116998	0.0122	-1.33	-3.22	-1.47	0.4019	-0.0078	-0.2524	
-1.005524	0.117974	0.01403	-0.91	-2.8	-0.91	0.4018	-0.0001	-0.2508	
-0.99918	0.111752	0.016958	-0.56	-3.5	-0.49	0.3961	-0.0077	-0.2509	
-0.99796	0.09638	0.020374	-1.82	-3.99	0.14	0.4032	0.0044	-0.2447	
-1.00955	0.096746	0.020618	1.4	-3.22	0	0.3974	0.0044	-0.2508	
-1.00406	0.103334	0.028548	2.59	-3.15	0.07	0.4018	0.0043	-0.2523	
-1.020408	0.11041	0.034282	3.99	-1.54	0.84	0.3976	-0.0077	-0.2448	
-1.006622	0.111874	0.036844	0.56	-2.45	1.33	0.3974	0.0044	-0.2508	
-1.011014	0.105164	0.03599	-1.05	-3.22	1.61	0.3931	0.0045	-0.2523	
-1.009306	0.091744	0.02989	-2.38	-2.8	1.47	0.4033	0.0028	-0.2554	
-0.99857	0.086986	0.027328	0.42	-2.38	0.42	0.3976	-0.0078	-0.257	
-1.006622	0.094428	0.034526	3.71	-1.4	-0.35	0.3902	0.003	-0.2523	
-1.000766	0.109434	0.042456	6.3	-0.14	-0.14	0.3917	0.0014	-0.2538	
-0.999546	0.111996	0.04819	1.33	-3.92	0.77	0.3873	0.0076	-0.2492	
-0.991982	0.115656	0.048678	2.59	-4.97	1.4	0.4048	-0.0094	-0.2525	
-1.003328	0.126148	0.043676	5.04	-5.67	1.4	0.3902	0.0014	-0.2508	
-1.00528	0.130418	0.040992	2.87	-6.58	1.26	0.399	-0.0032	-0.2615	
-1.006256	0.12749	0.036478	0.49	-5.74	0	0.3945	0.006	-0.2538	
-1.006012	0.120902	0.036112	-2.87	-4.2	-0.77	0.3975	0.0012	-0.263	
-1.010892	0.115046	0.035502	-5.11	-2.38	-1.19	0.3888	0.0029	-0.2553	
-1.008574	0.111264	0.037576	-5.67	-0.49	-1.05	0.4019	-0.0033	-0.2585	
-1.005646	0.10858	0.04575	-4.69	0.98	-0.56	0.4018	0.0058	-0.2553	
-1.000522	0.115778	0.051728	-2.8	0.49	-0.56	0.3932	-0.0016	-0.2615	
-1.01016	0.115412	0.055876	-3.29	-0.63	0.21	0.4033	-0.0002	-0.2615	
-1.008086	0.111752	0.051362	-2.59	-1.96	0.42	0.3932	0.0074	-0.269	
-1.006988	0.105652	0.04636	-4.76	-5.11	0.14	0.3991	-0.0109	-0.2585	





-1.009306	0.095282	0.049044	-0.84	-1.82	0.28	0.4032	0.0088	-0.2599	
-1.022726	0.106872	0.06161	-5.04	0.21	-0.84	0.3874	0.0029	-0.2629	
-0.998936	0.106262	0.048678	-8.68	-3.29	-1.26	0.4018	0.0028	-0.2554	
-1.005524	0.105896	0.052094	-2.66	0.07	-1.54	0.3946	0.0074	-0.2629	
-1.000522	0.112362	0.057462	-1.61	2.38	-1.75	0.3917	0.0013	-0.2645	
-1.007842	0.111752	0.064904	-1.26	3.08	-1.47	0.3946	0.0043	-0.2675	
-1.00711	0.105774	0.062586	-3.22	1.19	-0.77	0.396	0.012	-0.2644	
-1.00833	0.099796	0.058926	-3.99	0.56	0.07	0.3903	0.0044	-0.266	
-1.004304	0.099552	0.051362	-3.43	0.42	0.42	0.3961	0.0073	-0.2706	
-1.000522	0.09942999	0.051484	-2.94	1.96	0.35	0.3888	0.0058	-0.2736	
-1.004792	0.1037	0.057584	0.7	4.27	0.35	0.3859	0.0105	-0.2674	
-1.004304	0.103944	0.060268	0.28	4.06	0.35	0.396	0.0059	-0.2614	
-1.009306	0.103578	0.061244	-1.89	5.04	-0.49	0.3873	0.0074	-0.2675	
-1.005158	0.098698	0.05978	-1.89	3.92	-0.07	0.3916	0.0075	-0.2553	
-0.997106	0.106018	0.0549	1.47	3.36	-0.07	0.3874	-0.0001	-0.263	
-0.994666	0.10126	0.057584	0.56	3.57	0.14	0.3902	0.0075	-0.2599	
-1.00345	0.102846	0.058926	1.26	4.9	0.7	0.3899	0.0259	-0.2475	
-1.008086	0.10309	0.05734	0.91	4.83	0.7	0.3974	0.0074	-0.2568	
-1.010526	0.099308	0.054778	-1.05	2.94	0.49	0.3946	0.0059	-0.2614	
-0.997716	0.101504	0.055754	-1.19	1.33	0.14	0.4048	0.0012	-0.2585	
-1.017968	0.098698	0.056364	-1.47	0.07	0.14	0.3945	0.015	-0.2674	
-1.002962	0.101626	0.051606	4.2	0.91	0.14	0.3974	0.009	-0.2553	
-0.996984	0.106506	0.052826	3.71	-0.63	-0.35	0.3932	0.0043	-0.269	
-1.011746	0.107848	0.052338	3.36	-0.7	0.07	0.3947	-0.0016	-0.2584	
-0.99247	0.113338	0.044896	3.92	-2.38	0.07	0.3888	0.0075	-0.2583	
-1.010526	0.107482	0.04514	3.5	-2.38	0.28	0.3903	0.0029	-0.2584	
-0.988078	0.107604	0.047092	6.58	-2.17	0.28	0.3917	0.0074	-0.2675	
-1.03029	0.099674	0.049898	14.42	1.47	1.05	0.3845	0.003	-0.2568	
-1.031632	0.103578	0.023424	17.78	-5.88	0.98	0.399	-0.0018	-0.2676	
-1.024556	0.10675	-0.004758	24.01	-10.36	2.59	0.3961	-0.0017	-0.2615	
-1.006866	0.09882	-0.00427	25.55	-1.33	4.76	0.3976	-0.0002	-0.2676	
-1.022848	0.097966	0.038308	22.68	7.14	4.62	0.3963	-0.0154	-0.2601	
-0.99308	0.12078	0.078812	13.93	7.14	2.45	0.3962	-0.0093	-0.2585	
-0.989664	0.13115	0.08052	0.49	1.19	2.52	0.3918	-0.0032	-0.2645	
-0.984418	0.112118	0.053436	-10.01	-3.92	1.96	0.3933	-0.0093	-0.26	
-0.991616	0.108824	0.023058	-1.75	-4.13	0	0.3904	-0.0077	-0.2554	
-1.011746	0.113216	0.030256	4.06	-2.03	-1.47	0.399	0.0013	-0.2584	
-1.015284	0.119194	0.053192	5.88	0.42	-1.33	0.3947	-0.0032	-0.26	
-1.019066	0.120292	0.059902	1.61	-1.54	-0.56	0.3976	-0.0063	-0.2661	
-1.016504	0.11834	0.048922	1.12	-4.06	0	0.3947	-0.0078	-0.2585	
-1.015406	0.116998	0.04392	2.03	-4.27	0.14	0.3904	-0.0032	-0.2691	
-1.012234	0.120048	0.041724	4.13	-4.62	-0.21	0.3962	-0.0093	-0.2585	
-0.976732	0.11407	0.048556	0.63	-5.67	0.77	0.3845	0.0014	-0.2629	
-1.046272	0.113582	0.04636	1.68	-1.26	1.19	0.3948	-0.0109	-0.2707	
-0.99247	0.114192	0.030134	2.17	-4.55	0.84	0.4005	-0.0064	-0.2646	
-1.015528	0.116998	0.04758	5.88	-1.96	1.12	0.3948	-0.0108	-0.2616	
-1.002962	0.117486	0.051118	0.84	-2.45	0.84	0.3948	-0.0109	-0.2631	
-1.012112	0.115168	0.052704	1.47	-2.87	0.91	0.3933	-0.0108	-0.2631	
-0.975634	0.11468	0.061732	3.71	-2.52	0.42	0.3948	-0.0155	-0.2662	
-1.024312	0.115534	0.060512	3.43	0.28	0.42	0.3934	-0.0124	-0.2646	
-0.9882	0.116632	0.052582	4.06	-1.54	0.7	0.3963	-0.0094	-0.2738	
-1.001986	0.11041	0.061854	4.55	0.42	1.4	0.3904	-0.0078	-0.2691	
-0.998326	0.119438	0.069052	6.16	1.33	1.54	0.3963	-0.0124	-0.2677	
-0.99918	0.114802	0.075762	4.97	1.33	1.54	0.3976	-0.0063	-0.2615	
-1.002108	0.12261	0.071126	4.62	0	1.26	0.3992	-0.017	-0.2632	
-1.00345	0.124318	0.066734	3.15	-1.33	0.7	0.3861	-0.0124	-0.2707	
-1.009306	0.12871	0.06039	3.36	-1.82	-0.35	0.3963	-0.017	-0.2616	
-1.005036	0.132126	0.056486	1.82	-2.66	-0.98	0.3876	-0.0184	-0.2631	
-1.002352	0.130052	0.061732	2.87	-1.82	-1.54	0.3905	-0.0155	-0.2707	
-0.999302	0.130906	0.061488	1.47	-1.4	-2.31	0.3933	-0.0063	-0.2737	
-0.999668	0.126148	0.064904	0.21	-0.56	-2.94	0.3977	-0.0109	-0.2692	
-1.00101	0.12139	0.06283	1.19	0.56	-2.73	0.3803	-0.0077	-0.2706	
-0.965142	0.109556	0.068442	-1.54	1.26	-3.36	0.3803	-0.0122	-0.2585	
-1.009794	0.10797	0.053924	1.12	4.76	-3.29	0.392	-0.017	-0.2723	
-1.010526	0.099552	0.059658	1.26	1.05	-2.73	0.3934	-0.017	-0.2631	
-1.008086	0.109068	0.050264	2.31	0.63	-2.94	0.3991	-0.0109	-0.2601	
-1.009672	0.110898	0.048678	0.21	-1.54	-2.59	0.3832	-0.0077	-0.263	
-1.006988	0.109678	0.046482	0.49	-4.06	-2.31	0.3962	-0.0078	-0.2661	
-1.001132	0.110898	0.05673	3.22	-3.43	-2.52	0.3905	-0.0155	-0.2707	
-0.999058	0.111996	0.060756	3.22	-2.17	-1.96	0.3904	-0.0048	-0.2737	
-0.9943	0.115046	0.06527	3.01	-1.26	-1.54	0.3918	-0.0032	-0.263	
-0.995154	0.116022	0.06405	1.82	0.07	-0.98	0.3933	-0.0048	-0.2676	
-0.996984	0.113094	0.060634	-0.63	1.54	-0.21	0.3875	-0.0016	-0.2691	
-1.000522	0.105408	0.061488	-2.24	2.17	0.14	0.3846	-0.0077	-0.2691	
-1.003694	0.099064	0.06405	-2.45	3.5	-0.07	0.389	-0.0048	-0.2722	
-1.006012	0.095404	0.06771	-2.59	3.57	-0.42	0.3876	-0.0169	-0.2601	
-1.010282	0.09333	0.066124	-1.61	2.52	-0.28	0.3918	-0.0092	-0.2554	
-1.013698	0.100162	0.060146	-0.84	0.42	-0.21	0.3947	-0.0033	-0.2691	
-1.0126	0.10736	0.055632	-1.61	-2.24	0.21	0.3833	-0.0124	-0.2752	
-1.01504	0.102358	0.056242	-3.5	-3.85	0.28	0.3919	-0.0108	-0.257	
-1.011746	0.104554	0.055388	-3.5	-4.48	0	0.3846	-0.0002	-0.2782	
-1.00406	0.107726	0.056852	-2.8	-3.5	0	0.3903	0.0013	-0.266	
-0.999424	0.103578	0.062464	-3.64	-2.52	0.07	0.3905	-0.0155	-0.2707	
-1.004426	0.101138	0.054046	-5.39	-2.24	0.07	0.3816	0	-0.2568	
-1.004792	0.097356	0.051118	-4.9	-0.63	0.28	0.389	-0.0079	-0.2798	
-1.00589	0.094428	0.055388	-2.38	1.26	0.07	0.3991	-0.0048	-0.2661	
-1.008574	0.092476	0.062708	-1.54	1.68	0.07	0.386	-0.0016	-0.2645	
-1.005524	0.092354	0.063806	-1.47	1.33	0.14	0.3903	-0.0001	-0.263	
-1.004548	0.09552599	0.063196	-1.47	0.91	0	0.3933	-0.0048	-0.2722	
-1.004426	0.101748	0.062952	-1.19	1.05	-0.35	0.3946	0.0074	-0.266	
-1.00589	0.106506	0.063562	-2.45	0.63	-0.49	0.3917	0.0028	-0.263	
-1.007598	0.112728	0.065758	-2.24	-0.07	-0.63	0.3831	-0.0001	-0.269	
-1.002352	0.113216	0.066734	-3.5	-0.98	-0.77	0.3845	0.0029	-0.2644	
-1.003206	0.109068	0.065636	-3.99	-1.33	-0.56	0.3917	0.0089	-0.2659	
-1.003938	0.10614	0.063806	-4.2	-1.12	-0.42	0.3874	0.0013	-0.2706	
-1.003084	0.103456	0.063806	-3.78	-0.42	-0.21	0.3918	-0.0017	-0.2691	
-1.00467	0.1037	0.062098	-3.43	-0.35	0	0.3903	0.0028	-0.269	
-1.010526	0.106628	0.060512	-2.31	-0.56	0.56	0.383	0.006	-0.2614	
-1.005646	0.107848	0.060878	-1.96	-0.56	0.91	0.3846	-0.0031	-0.2675	
-1.007598	0.110044	0.061976	-1.89	0.21	1.26	0.3888	0.0029	-0.2645	
-1.00894	0.099674	0.065636	-3.92	-0.21	1.47	0.3832	-0.0047	-0.2798	
-1.005158	0.095892	0.062586	-3.85	-0.42	1.4	0.4005	0.0011	-0.2706	
-1.00467	0.096136	0.059048	-2.66	-0.07	1.47	0.3947	-0.0032	-0.2615	
-1.00467	0.098332	0.061122	-0.77	1.12	1.05	0.3918	-0.0032	-0.2676	
-1.003328	0.102602	0.066612	0.14	1.82	0.7	0.3918	-0.0032	-0.2691	
-1.004304	0.104066	0.069906	0.14	1.96	0.77	0.3861	-0.0092	-0.2615	
-1.0065	0.106506	0.069296	0	1.54	0.91	0.3874	0.0013	-0.269	
-1.006012	0.10797	0.064538	-0.49	0.63	0.7	0.3961	-0.0017	-0.2645	
-1.00467	0.108214	0.063318	-1.75	0	0.49	0.3933	-0.0063	-0.2707	
-1.001254	0.106506	0.066368	-1.61	0.28	0.28	0.3889	-0.0001	-0.2675	
-1.002718	0.111996	0.069174	-1.12	0.56	0.07	0.3845	0.0014	-0.2675	
-1.003328	0.111386	0.071126	-1.89	-0.21	0.07	0.3961	-0.0017	-0.2676	
-1.004914	0.11163	0.064416	0.91	-0.14	0.21	0.3889	-0.0032	-0.2676	
-1.005158	0.110654	0.06161	-0.7	-0.63	0.21	0.3904	-0.0078	-0.2707	
-1.006378	0.11041	0.061	-0.21	0.49	0.21	0.3903	0.0013	-0.2706	
-1.002596	0.104554	0.065636	-0.91	0.77	0.14	0.3918	-0.0031	-0.2554	
-1.005036	0.105408	0.066734	-0.84	0.56	-0.07	0.389	-0.0109	-0.2737	
-1.066158	0.108214	0.051972	-0.63	-0.56	0.07	0.3932	0.0058	-0.269	
-0.949404	0.101626	0.05917	-2.45	-5.67	-0.49	0.3875	-0.0016	-0.2675	
-1.002474	0.10065	0.068076	-1.33	2.87	0.14	0.3975	0.0073	-0.2706	
-1.00528	0.113704	0.066124	1.05	-1.19	-0.07	0.3875	-0.0047	-0.2722	
-1.005646	0.103456	0.066612	1.54	-0.63	0.21	0.3945	0.0104	-0.2644	
-1.006744	0.10187	0.06734399	-2.38	-1.47	0.35	0.3932	0.0013	-0.2675	
-1.00101	0.106994	0.063928	0.77	-0.42	0.35	0.3874	0.0044	-0.266	
-1.007842	0.101626	0.064172	-1.54	-0.77	0.49	0.3904	-0.0063	-0.2768	
-1.004914	0.10492	0.063196	0.14	-0.63	0.42	0.3932	-0.0001	-0.2615	
-1.007476	0.105164	0.063684	1.26	-0.63	0.56	0.3947	-0.0016	-0.2584	
-1.003572	0.102602	0.064904	0.7	-0.56	0.7	0.4004	0.0042	-0.2706	
-1.00894	0.104554	0.065514	0.56	-0.49	0.77	0.386	-0.0017	-0.2736	
-0.999546	0.10126	0.066612	-0.91	-0.07	0.77	0.3918	-0.0032	-0.2676	
-1.006744	0.10431	0.06466	0.28	-0.14	0.63	0.3947	0.0012	-0.2676	
-1.006622	0.108824	0.06649	0.84	-1.12	0.63	0.389	-0.0063	-0.2722	
-1.006866	0.113094	0.067588	1.47	-1.61	0.42	0.3976	0.0027	-0.2721	
-1.005036	0.112972	0.06771	-0.28	-1.68	0.14	0.3861	-0.0077	-0.2691	
-1.004426	0.10675	0.067588	-2.94	-1.47	0.35	0.3875	-0.0031	-0.2645	
-1.003328	0.103944	0.069662	-0.84	-0.07	0.42	0.3902	0.0119	-0.2751	
-1.004304	0.105896	0.073566	0.14	0.35	0.28	0.3846	-0.0107	-0.2569	
-1.00345	0.113582	0.073932	1.19	0.14	-0.07	0.3905	-0.0079	-0.2752	
-1.001986	0.118462	0.07198	1.89	0.07	-0.35	0.3816	0.0015	-0.2538	
-1.002108	0.116998	0.073322	1.96	0.49	-0.35	0.3874	0	-0.2599	
-1.003206	0.112972	0.072712	1.26	0.49	-0.21	0.3831	0.0029	-0.2705	
-1.005524	0.110166	0.070882	-0.07	0.28	-0.21	0.3947	-0.0017	-0.2706	
-1.001742	0.105408	0.068076	-1.68	0.42	-0.21	0.3946	0.0028	-0.263	
-1.003816	0.102358	0.069052	-1.12	0.91	-0.21	0.3933	-0.0063	-0.2691	
-1.000034	0.102846	0.071126	0.7	0.98	-0.07	0.3977	-0.0095	-0.2768	
-1.004548	0.106262	0.071858	1.96	0.63	0.21	0.3933	-0.0017	-0.2722	
-1.004548	0.10614	0.06954	1.4	0.35	0.35	0.3889	-0.0032	-0.2691	
-1.004548	0.105286	0.068076	0.56	0.42	0.42	0.3917	0.0059	-0.266	
-1.004548	0.10431	0.067222	-0.14	0.7	0.21	0.3875	-0.0048	-0.2767	
-1.003084	0.105286	0.068808	-0.07	0.84	-0.07	0.3874	-0.0001	-0.2691	
-1.003572	0.10675	0.066856	0.28	0.7	-0.14	0.3904	-0.0078	-0.2661	
-1.00345	0.106506	0.066246	1.47	0.91	0.14	0.3889	-0.0001	-0.2645	
-1.006744	0.105774	0.066368	1.61	0.84	0.56	0.3947	0.0027	-0.2736	
-1.004426	0.10492	0.065392	1.61	0.56	0.91	0.3889	-0.0047	-0.2691	
-1.00467	0.10553	0.066246	1.96	0.84	0.77	0.386	-0.0017	-0.2721	
-1.004914	0.108824	0.065636	2.17	0.98	0.77	0.386	-0.0062	-0.263	
-1.005158	0.108458	0.065392	1.19	0.84	0.7	0.3904	-0.0017	-0.2676	
-1.004304	0.108946	0.061854	1.89	1.05	0.77	0.3904	-0.0047	-0.2615	
-1.006256	0.109678	0.060634	2.03	1.19	0.77	0.3875	-0.0016	-0.2691	
-1.006012	0.110898	0.060268	2.17	1.82	0.84	0.3875	-0.0063	-0.2737	
-1.001864	0.111508	0.06344	1.61	2.52	0.91	0.3947	-0.0002	-0.263	
-0.999546	0.11041	0.069906	1.68	3.15	0.98	0.3918	-0.0032	-0.2676	
-1.013576	0.112118	0.069052	2.24	3.64	0.98	0.3904	-0.0093	-0.2631	
-1.01321	0.12017	0.066124	1.05	5.18	0.91	0.3874	0.0013	-0.2675	
-1.031998	0.121268	0.056242	7.14	12.67	0.14	0.3932	0.0012	-0.2706	
-1.06262	0.127246	0.026474	5.25	15.19	0.35	0.3948	-0.0138	-0.254	
-1.053226	0.124806	0.027694	-8.54	8.47	0.28	0.3934	-0.017	-0.2662	
-1.020042	0.119926	0.028426	-18.62	0.49	0.35	0.3932	-0.0017	-0.263	
-0.972828	0.113948	0.010736	-15.05	-1.75	0.42	0.3845	0.0014	-0.2584	
-0.948672	0.105164	0.004758	-10.08	1.82	-0.28	0.4004	-0.0032	-0.2554	
-0.944524	0.10614	0.008905999	2.03	7.84	-0.28	0.3961	-0.0047	-0.2569	
-0.954284	0.126026	0.049532	12.32	16.24	0.84	0.3961	0.0013	-0.2599	
-1.018212	0.118218	0.073688	9.87	21.28	0.84	0.4019	-0.0063	-0.2539	
-1.064084	0.098332	0.09162199	-2.45	19.53	0.28	0.3918	-0.0061	-0.2493	
-1.058716	0.101138	0.068076	-19.81	4.76	-2.17	0.4003	0.0044	-0.2508	
-1.004304	0.111264	0.042822	-26.39	-10.71	-2.87	0.4031	0.0151	-0.2492	
-0.92903	0.116266	0.017568	-8.54	-11.69	-2.1	0.4003	0.0074	-0.2553	
-1.014064	0.11712	0.02013	-13.44	-5.39	-1.68	0.4003	0.0059	-0.2553	
-0.989176	0.101138	-0.001098	4.9	1.61	0.14	0.3974	0.0075	-0.2507	
-1.045906	0.111264	0.0122	3.15	11.06	0.35	0.3973	0.0121	-0.2431	
-1.051396	0.110288	0.051728	11.48	20.65	-1.61	0.3961	-0.0016	-0.2523	
-1.052372	0.100528	0.074542	-3.43	16.1	-1.75	0.4033	-0.0001	-0.2463	
-1.019554	0.094306	0.064538	-20.72	1.61	-2.45	0.4032	0.0029	-0.2462	
-0.970754	0.09211	0.027328	-17.08	-5.6	-3.22	0.4047	0.0043	-0.2508	
-0.945378	0.102724	-0.00427	-7.77	-8.4	-2.45	0.3959	0.0106	-0.2431	
-0.962214	0.108336	-0.019154	-3.99	-8.12	-1.05	0.4046	0.0059	-0.2462	
-0.976	0.110898	-0.023424	9.87	1.54	0.84	0.4046	0.0119	-0.2538	
-1.040294	0.112484	0.000732	13.86	11.2	1.82	0.4047	0.0013	-0.2447	
-1.077748	0.108824	0.04148	12.81	20.3	2.03	0.4046	0.0119	-0.2599	
-1.04127	0.09882	0.071858	-11.55	2.31	0.28	0.4002	0.0121	-0.2477	
-1.010404	0.094428	0.029402	-21.49	-10.99	-0.84	0.4018	0.0028	-0.2539	
-0.950258	0.10126	-0.011468	-13.58	-14.56	-1.33	0.3974	0.0059	-0.2523	
-0.92171	0.126636	-0.029036	-2.66	-15.96	-1.68	0.4046	0.012	-0.2462	
-0.98881	0.11468	-0.043676	5.39	-7.14	1.26	0.3915	0.0167	-0.2537	
-1.02114	0.115656	-0.033916	15.82	5.18	1.68	0.3959	0.0136	-0.2461	
-1.081408	0.095038	0.009638	10.29	17.64	0.84	0.4017	0.0105	-0.2507	
-1.060058	0.099918	0.05307	3.92	17.78	-1.26	0.4075	0.012	-0.2462	
-1.027484	0.08418	0.08052	-12.53	3.92	-3.08	0.4018	0.0044	-0.2477	
-0.979294	0.104188	0.042334	-14.91	-7.63	-4.2	0.4017	0.0075	-0.2462	
-0.943304	0.109434	0.012444	-9.94	-16.52	-3.08	0.4018	-0.0016	-0.2493	
-0.951112	0.113216	-0.02806	-0.42	-16.52	-1.4	0.3989	0.0044	-0.2508	
-0.965752	0.115412	-0.049898	9.59	-7.7	-0.49	0.4076	0.0043	-0.2462	
-0.995154	0.12078	-0.027572	18.48	7.84	0.63	0.3931	0.006	-0.2553	
-1.026142	0.116632	0.008784	11.27	16.52	0.84	0.4076	0.0028	-0.2493	
-1.05774	0.096746	0.064538	-9.45	21.84	0.91	0.3944	0.0152	-0.2507	
-1.068232	0.091378	0.090158	-10.99	13.44	-0.77	0.3974	0.009099999	-0.2446	
-1.051518	0.092476	0.054412	-19.04	-7.7	-2.31	0.4033	0.0028	-0.2569	
-0.97417	0.110288	0.002074	-9.73	-19.95	-2.52	0.4046	0.012	-0.2462	
-1.006378	0.09747799	-0.024888	-1.4	-9.17	-0.91	0.3989	0.0074	-0.2523	
-0.95404	0.109434	-0.026596	10.99	-5.18	0.63	0.3901	0.0152	-0.2522	
-0.987346	0.101504	0.010126	9.52	-1.68	1.75	0.4032	0.0104	-0.2568	
-0.968436	0.107482	0.0305	8.47	2.87	1.4	0.4017	0.0135	-0.2568	
-0.99796	0.103334	0.058926	4.48	6.23	2.31	0.4033	-0.0032	-0.2509	
-1.009916	0.098332	0.064172	4.69	4.62	2.17	0.396	0	-0.2401	
-1.020042	0.084424	0.074664	2.1	-3.36	3.5	0.4002	0.0166	-0.2476	
-1.060058	0.09394	0.034038	1.68	-12.6	1.89	0.4104	0.0134	-0.2553	
-1.048712	0.102724	0.008296	0	-12.74	0.35	0.3988	0.0135	-0.2614	
-1.024312	0.100772	0.00427	2.38	-7.7	-0.14	0.4031	0.0196	-0.2522	
-1.01504	0.09821	0.027694	6.93	2.59	0.21	0.4017	0.012	-0.2477	
-1.01748	0.104066	0.04331	8.19	8.68	1.54	0.4062	0.0012	-0.2524	
-1.009916	0.096868	0.055266	-4.48	4.27	1.47	0.4003	0.0059	-0.2538	
-1.002108	0.095038	0.055266	-8.82	-2.66	-0.49	0.4019	-0.0002	-0.2569	
-0.997228	0.107238	0.039284	-1.47	-2.8	-1.19	0.4016	0.0181	-0.2507	
-0.990762	0.124318	0.020496	3.29	-5.18	-0.98	0.4089	0.0149	-0.2568	
-0.985516	0.126758	0.012932	1.68	-6.58	0.21	0.4003	0.0044	-0.2477	
-1.0004	0.111752	0.039406	1.89	-0.35	1.47	0.3931	0.009	-0.2599	
-1.018944	0.098332	0.065148	0.28	0.56	1.26	0.4105	0.0012	-0.2554	
-1.013088	0.09699	0.072346	-3.01	-1.68	0.56	0.4002	0.0151	-0.2522	
-1.01138	0.105164	0.052216	-1.33	-3.99	-0.28	0.4003	0.009	-0.2462	
-1.011136	0.110898	0.027206	-1.47	-4.83	-0.56	0.3944	0.0121	-0.2492	
-1.016382	0.104432	0.014152	-2.24	-2.73	-0.07	0.3915	0.0152	-0.2445	
-1.016504	0.101138	0.015738	-1.68	1.05	0	0.3989	0.0043	-0.2584	
-1.017602	0.101748	0.028548	-2.45	2.31	-0.28	0.4047	0.0044	-0.2478	
-1.008574	0.102968	0.03721	-3.29	0.14	-0.98	0.3916	0.0075	-0.2522	
-1.000888	0.108336	0.038552	-2.52	-2.73	-1.61	0.406	0.015	-0.2553	
-0.999668	0.106018	0.036722	-0.98	-3.78	-1.54	0.4031	0.0165	-0.2583	
-0.997106	0.103456	0.03721	1.05	-2.8	-1.33	0.3988	0.0166	-0.2583	
-1.00101	0.103822	0.043432	3.08	-2.24	-1.12	0.3958	0.0212	-0.2537	
-1.004182	0.101382	0.05246	5.25	-0.91	-1.12	0.3931	0.009	-0.2553	
-1.01382	0.105408	0.056974	7.28	-0.07	-1.05	0.3988	0.0165	-0.2629	
-1.010892	0.103334	0.059902	2.73	-0.7	-0.63	0.4003	0.0149	-0.2659	
-1.012112	0.10614	0.05612	-1.89	-2.52	-0.98	0.3988	0.012	-0.2583	
-1.00955	0.104432	0.045628	-6.51	-3.64	-1.33	0.3959	0.0151	-0.2598	
-1.009306	0.099796	0.031354	-9.1	-5.04	-1.82	0.3916	0.0166	-0.2628	
-0.99613	0.099308	0.030012	-6.58	-3.78	-1.89	0.3959	0.0151	-0.2552	
-1.00101	0.09882	0.040626	-3.29	-2.59	-1.26	0.3989	0.0089	-0.2629	
-1.00101	0.096746	0.053436	0.42	-0.63	-0.77	0.3916	0.0136	-0.2629	
-1.007476	0.09467199	0.05612	-2.66	-1.26	-0.77	0.3858	0.0182	-0.2643	
-1.015162	0.086376	0.058926	-4.55	-1.19	-0.63	0.3858	0.0152	-0.2613	
-1.017846	0.088938	0.058804	-1.89	-1.05	-0.91	0.3946	0.0074	-0.2629	
-1.018334	0.09821	0.04758	1.54	-2.24	-1.19	0.3944	0.0227	-0.2582	
-1.01382	0.097234	0.038552	-1.68	-4.34	-1.19	0.3944	0.0227	-0.2567	
-1.006256	0.095404	0.038064	-2.45	-4.06	-1.82	0.393	0.0166	-0.2613	
-1.00162	0.09857599	0.039528	-2.87	-2.94	-2.45	0.3756	0.0214	-0.2673	
-1.001864	0.099674	0.045628	-2.1	-1.33	-2.38	0.3858	0.0152	-0.2598	
-0.99186	0.097722	0.051606	0	0.14	-2.03	0.3916	0.0121	-0.2568	
-1.001864	0.094794	0.061976	0.35	-0.14	-1.4	0.3916	0.012	-0.2598	
-1.002718	0.096624	0.068076	1.33	0.63	-1.12	0.396	0.012	-0.2629	
-1.00589	0.09467199	0.074176	1.61	-0.14	-0.91	0.3945	0.012	-0.2644	
-1.007476	0.089426	0.075884	-0.49	-1.89	-0.7	0.3973	0.0227	-0.2613	
-1.010526	0.08601	0.070394	-0.98	-2.73	-0.63	0.3917	0.0074	-0.2644	
-1.00894	0.085278	0.062098	3.71	-1.75	0	0.3915	0.0197	-0.2643	
-1.008208	0.081862	0.057096	2.17	-1.96	0.49	0.3873	0.0135	-0.2735	
-1.003206	0.082106	0.054168	0.49	-1.05	0.42	0.393	0.0196	-0.2689	
-1.002718	0.08479	0.054168	-0.56	-0.21	0.35	0.3973	0.0242	-0.2643	
-1.00528	0.087962	0.058682	-1.33	0.91	-0.07	0.3887	0.0121	-0.2629	
-1.001742	0.09076799	0.064538	0.35	0.7	-0.14	0.3843	0.0197	-0.2673	
-0.997472	0.092842	0.06954	3.22	0.77	-0.07	0.3973	0.0211	-0.2613	
-1.004182	0.087474	0.073688	2.73	-0.42	0.21	0.3974	0.0135	-0.2614	
-1.008696	0.08784	0.071004	1.89	-1.19	0.28	0.3857	0.0213	-0.2612	
-1.038708	0.089792	0.06466	2.94	-0.14	1.05	0.3858	0.0166	-0.275	
-1.01077	0.090402	0.052094	-1.54	-2.8	0.14	0.3917	0.0089	-0.2644	
-1.02236	0.099796	0.042212	0.56	-3.29	-0.49	0.3843	0.0213	-0.2627	
-1.003206	0.103944	0.045506	-0.98	-4.06	-1.26	0.3871	0.0244	-0.2582	
-0.999302	0.094916	0.045384	-4.97	-0.77	-0.77	0.3843	0.0152	-0.2613	
-0.996862	0.085278	0.05917	-2.38	1.61	-0.28	0.3959	0.0136	-0.2568	
-0.996252	0.090646	0.065636	3.08	3.15	-0.07	0.393	0.0181	-0.2689	
-1.000156	0.083326	0.07808	1.12	1.89	0.42	0.3945	0.0135	-0.269	
-1.00467	0.08174	0.084668	3.43	1.4	0.63	0.3858	0.0197	-0.2658	
-1.013088	0.084912	0.07869	1.61	-0.84	0.56	0.3916	0.0166	-0.2628	
-1.017358	0.089304	0.067832	1.05	-0.63	0.84	0.4046	0.0225	-0.2705	
-1.014064	0.0915	0.060512	2.73	-1.54	0.35	0.393	0.0226	-0.2719	
-1.0309	0.095038	0.059902	-0.84	-0.7	0.49	0.3858	0.0167	-0.2628	
-1.006256	0.096868	0.05063	-9.1	-2.52	-0.49	0.3845	0.0089	-0.2751	
-1.000766	0.097356	0.052338	-6.09	-1.4	-1.26	0.3886	0.0273	-0.2688	
-0.99247	0.099064	0.061122	1.05	0.91	-1.96	0.3829	0.0167	-0.2689	
-0.986614	0.096014	0.068564	1.26	0.84	-1.68	0.3829	0.0182	-0.2643	
-0.994788	0.093208	0.072346	2.31	0.07	-1.26	0.3886	0.0227	-0.2658	
-1.001254	0.087108	0.078324	1.47	-1.54	-1.26	0.3843	0.0167	-0.2582	
-0.993568	0.085156	0.072712	1.54	-1.54	-0.98	0.3944	0.0257	-0.2643	
-1.021262	0.085522	0.06039	-0.7	-2.24	-0.42	0.3973	0.0211	-0.2643	
-1.020774	0.080398	0.05673	-3.99	-3.08	-0.14	0.393	0.0226	-0.2704	
-1.01748	0.083204	0.053436	0.28	0.56	-0.07	0.3858	0.0152	-0.2628	
-1.01504	0.087962	0.058316	1.12	1.26	0.21	0.393	0.0212	-0.2658	
-1.00894	0.087352	0.063806	-2.24	0.63	0.28	0.3901	0.0182	-0.2628	
-0.999424	0.082106	0.063806	-6.16	0.07	-0.14	0.3959	0.0166	-0.2629	
-1.002718	0.08418	0.062464	-5.46	0.28	-0.49	0.3842	0.0274	-0.2596	
-0.99552	0.08601	0.066368	-0.21	-1.12	-0.49	0.3929	0.0258	-0.2643	
-1.000156	0.0854	0.071492	2.66	-1.61	-0.49	0.39	0.0334	-0.2703	
-1.00528	0.089426	0.074664	5.25	-1.19	-0.63	0.3916	0.015	-0.2705	
-1.01016	0.090158	0.074908	4.76	-1.19	-0.35	0.39	0.0243	-0.2643	
-1.011502	0.083692	0.0732	3.43	-0.63	-0.07	0.3959	0.0241	-0.2735	
-1.012722	0.082594	0.072102	2.45	0.28	-0.07	0.3886	0.0288	-0.2734	
-1.009306	0.087352	0.067954	3.71	1.26	0.07	0.3916	0.0181	-0.2659	
-1.009184	0.086376	0.065026	2.38	0	0.91	0.3858	0.0182	-0.2643	
-0.99918	0.078812	0.066368	0.35	0.35	1.26	0.3944	0.0196	-0.2659	
-1.00589	0.083082	0.069418	2.31	1.68	0.91	0.3901	0.0197	-0.2643	
-0.997594	0.086498	0.077836	-0.07	0.14	0.35	0.3987	0.0256	-0.2719	
-1.004304	0.096014	0.076494	-0.7	-1.75	-0.56	0.3959	0.018	-0.2689	
-1.006256	0.09942999	0.069418	-2.45	-4.06	-1.96	0.393	0.0181	-0.2689	
-1.013454	0.102968	0.066734	-3.08	-3.15	-2.87	0.3858	0.0181	-0.2765	
-1.006866	0.097112	0.069174	-3.08	-1.4	-3.99	0.3959	0.0241	-0.2796	
-1.004426	0.07259	0.068564	-6.58	-0.7	-3.5	0.3887	0.0196	-0.2719	
-1.004792	0.058316	0.06734399	-3.64	2.94	-1.54	0.3957	0.0318	-0.2642	
-1.013576	0.05551	0.061366	-0.56	3.85	0.28	0.393	0.015	-0.2659	
-1.001498	0.06527	0.055876	-3.15	0.21	1.54	0.3916	0.015	-0.2735	
-0.997472	0.075274	0.061732	-1.96	0.84	0.63	0.3886	0.0212	-0.2658	
-0.990518	0.09076799	0.067222	1.54	4.2	0.28	0.3959	0.0196	-0.2643	
-1.000522	0.09455	0.077348	0.84	3.5	0.77	0.3958	0.0303	-0.2688	
-0.997838	0.092232	0.084302	2.1	1.68	0.91	0.3901	0.0212	-0.2613	
-1.000888	0.088206	0.086132	5.04	1.33	1.19	0.3945	0.0196	-0.2704	
-1.006988	0.094062	0.079178	5.81	1.89	1.54	0.3901	0.0166	-0.2659	
-1.009916	0.09394	0.07503	2.73	1.19	1.75	0.393	0.0166	-0.2659	
-1.007232	0.10004	0.073688	5.67	3.57	1.75	0.3959	0.0197	-0.2582	
-1.009428	0.111142	0.06039	1.96	5.32	1.47	0.3915	0.0212	-0.2628	
-1.00589	0.115534	0.048068	-7	4.9	0.42	0.3958	0.0242	-0.2597	
-1.00955	0.10065	0.044408	-10.92	4.13	-0.49	0.3885	0.0274	-0.2612	
-1.008574	0.085522	0.038796	-6.23	6.09	-1.12	0.3929	0.0258	-0.2582	
-1.001498	0.071736	0.048068	-2.1	5.25	-1.75	0.4003	0.0135	-0.2598	
-0.996252	0.069906	0.060024	6.02	3.92	-2.17	0.4001	0.0272	-0.2597	
-1.010648	0.070028	0.055998	6.09	2.66	-2.66	0.4059	0.0302	-0.2613	
-1.009184	0.074664	0.058316	8.19	0.91	-3.08	0.3915	0.0258	-0.2612	
-1.01077	0.072102	0.046238	4.83	-0.98	-3.29	0.3988	0.0166	-0.2568	
-1.014552	0.07515199	0.039772	3.92	-0.07	-3.15	0.3901	0.0227	-0.2719	
-1.025532	0.077592	0.037698	0.63	1.19	-2.94	0.4016	0.0211	-0.2552	
