Sensor string: E
Serial number: 2106-01--26538169
Firmware version: 2,769288E-40
Hardware version: 1,092478E-36
Calibration quality: 204
ax	ay	az	gx	gy	gz	mx	my	mz

-0.9943	0.115168	0.140422	-0.21	-0.07	-0.07	0.384	-0.0297	-0.3052	Reference
-0.994544	0.115778	0.14091	-0.21	0	-0.14	0.3883	-0.0419	-0.296	
-0.9943	0.1159	0.140666	-0.07	0	-0.14	0.3897	-0.0298	-0.3007	
-0.994788	0.116998	0.139934	-0.07	0.14	-0.14	0.3782	-0.0373	-0.2974	
-0.997228	0.116632	0.137494	-0.14	0.07	-0.14	0.3753	-0.0464	-0.2927	
-0.997106	0.115534	0.13908	0	-0.07	-0.21	0.3854	-0.0434	-0.2959	
-0.994666	0.114924	0.137494	-0.07	0.14	-0.14	0.3869	-0.0373	-0.2975	
-0.995642	0.115778	0.136762	-0.07	0.07	-0.21	0.3825	-0.0282	-0.2991	
-0.995032	0.116388	0.141276	0.07	-0.35	-0.07	0.3826	-0.0373	-0.3021	
-0.994056	0.116388	0.141642	0	-0.21	-0.07	0.3797	-0.0403	-0.3005	
-0.995398	0.116022	0.141642	-0.42	0	-0.07	0.3869	-0.0358	-0.3068	
-0.994666	0.114802	0.140788	-0.42	0.07	-0.14	0.3884	-0.0388	-0.3099	
-0.994666	0.115168	0.1403	-0.07	0.07	-0.14	0.3854	-0.0374	-0.2913	
-0.992836	0.116388	0.139324	0.14	0.07	-0.21	0.3724	-0.0372	-0.2974	
-0.993324	0.11712	0.140666	0.14	0.07	-0.21	0.3868	-0.0313	-0.2945	
-0.995642	0.116876	0.139812	-0.14	0	-0.14	0.384	-0.0495	-0.2928	
-0.99491	0.116144	0.140422	-0.28	-0.07	-0.07	0.3811	-0.0419	-0.2913	
-0.995642	0.114558	0.140422	-0.35	0	-0.07	0.3782	-0.0327	-0.2975	
-0.994666	0.115168	0.139446	-0.21	0.14	-0.07	0.3869	-0.0434	-0.3006	
-0.99552	0.114924	0.138592	0	0.07	-0.14	0.3812	-0.0403	-0.3036	
-0.995032	0.117486	0.137616	0.21	0	-0.14	0.3926	-0.0313	-0.3007	
-0.996008	0.116632	0.138836	0.14	0	-0.14	0.384	-0.0388	-0.2959	
-0.996008	0.115046	0.138226	-0.07	0	-0.14	0.3884	-0.0343	-0.3037	
-0.996496	0.115168	0.138958	-0.14	0.07	-0.07	0.3869	-0.0404	-0.3021	
-0.994544	0.116266	0.138592	-0.07	0	0	0.3839	-0.0358	-0.2929	
-0.994544	0.11529	0.140422	0.07	0	-0.07	0.384	-0.0419	-0.2975	
-0.994666	0.115656	0.14091	0.14	0	-0.07	0.3898	-0.0343	-0.3022	
-0.994666	0.115656	0.140422	0.14	0.07	-0.07	0.3841	-0.0418	-0.3083	
-0.994422	0.115778	0.139446	0.07	0.14	0	0.387	-0.0388	-0.3083	
-0.995764	0.116388	0.138348	0.07	0.07	0.07	0.3884	-0.0449	-0.3037	
-0.99613	0.116876	0.138592	0	0.07	0	0.3869	-0.0419	-0.3021	
-0.996008	0.116754	0.137494	0.07	0	0	0.3855	-0.0419	-0.299	
-0.995276	0.116388	0.138714	0.14	-0.07	-0.07	0.3826	-0.0464	-0.3005	
-0.994666	0.116998	0.139202	0.14	-0.07	0	0.3869	-0.0373	-0.2991	
-0.995154	0.117242	0.139812	0.07	-0.07	0	0.3942	-0.0419	-0.3037	
-0.995398	0.11773	0.140178	-0.07	-0.07	-0.07	0.3769	-0.0357	-0.3144	
-0.995154	0.11712	0.139568	-0.07	0	-0.14	0.3753	-0.0357	-0.299	
-0.993812	0.117242	0.139934	0.07	0	-0.14	0.3911	-0.0435	-0.2852	
-0.994422	0.116388	0.138714	0.14	0	-0.14	0.3883	-0.0358	-0.3006	
-0.99491	0.116754	0.137738	0.07	0	-0.14	0.3897	-0.0389	-0.2945	
-0.996252	0.116144	0.1403	0.07	-0.07	-0.21	0.3869	-0.0434	-0.299	
-0.995398	0.115168	0.139324	0.35	0	-0.28	0.3826	-0.0373	-0.3021	
-0.994422	0.115534	0.138104	0.42	0.21	-0.21	0.3841	-0.0434	-0.3052	
-0.99491	0.11651	0.138348	0.42	-0.07	-0.14	0.3782	-0.0403	-0.2943	
-0.993568	0.116144	0.141154	0.35	-0.21	-0.14	0.3811	-0.0373	-0.2944	
-0.993324	0.11651	0.141764	0.14	0	-0.14	0.3898	-0.0419	-0.3006	
-0.993446	0.115778	0.1403	0	0.07	-0.14	0.3869	-0.0419	-0.2944	
-0.99369	0.11651	0.139202	0.14	0.14	-0.21	0.384	-0.0373	-0.3006	
-0.993324	0.115412	0.139568	0.42	0.07	-0.28	0.3825	-0.0328	-0.296	
-0.993446	0.115534	0.140788	0.49	0.07	-0.28	0.384	-0.0328	-0.3021	
-0.994666	0.115412	0.140544	0.28	0.14	-0.14	0.3739	-0.0387	-0.3035	
-0.995032	0.116754	0.138714	0.14	0.14	-0.14	0.3811	-0.0403	-0.3021	
-0.99613	0.116144	0.13969	0.07	0.07	0	0.3897	-0.0374	-0.2945	
-0.995276	0.115778	0.138836	0.21	0.14	0	0.3766	-0.0267	-0.2898	
-0.995032	0.114436	0.138348	0.35	0.07	0	0.3839	-0.0389	-0.2913	
-0.995154	0.117242	0.137616	0.35	0	0	0.3811	-0.0373	-0.2944	
-0.994422	0.117486	0.13969	0.35	-0.07	-0.14	0.3855	-0.0358	-0.3037	
-0.99552	0.117364	0.139812	0.28	0.14	-0.14	0.384	-0.0404	-0.2944	
-0.995886	0.115656	0.138104	0	0.07	-0.07	0.3839	-0.0358	-0.2898	
-0.996008	0.1159	0.137616	0	0	0	0.3811	-0.0449	-0.2959	
-0.994422	0.116144	0.138348	0.07	-0.07	0	0.3798	-0.0463	-0.3067	
-0.995276	0.116388	0.13847	0.28	0	-0.07	0.3839	-0.0404	-0.2867	
-0.995154	0.116632	0.139446	0.35	-0.07	-0.14	0.3841	-0.0388	-0.3052	
-0.99552	0.116632	0.138836	0.35	-0.07	-0.07	0.3811	-0.0343	-0.3021	
-0.996008	0.115656	0.138226	0.35	-0.07	-0.14	0.3811	-0.0403	-0.2959	
-0.995032	0.116388	0.139324	0.35	0	-0.14	0.3854	-0.0358	-0.2944	
-0.99552	0.116876	0.13908	0.28	-0.07	-0.14	0.3926	-0.0298	-0.3007	
-0.994788	0.117486	0.13847	0.28	0	-0.14	0.3781	-0.0373	-0.2928	
-0.995032	0.118096	0.13786	0.35	0	-0.14	0.3912	-0.0404	-0.2991	
-0.993446	0.118096	0.13664	0.28	0	-0.21	0.3738	-0.0373	-0.2912	
-0.996618	0.11773	0.139812	0.14	0.14	-0.28	0.3768	-0.0342	-0.3005	
-0.99491	0.11712	0.138226	-0.07	-0.07	-0.21	0.3869	-0.0419	-0.296	
-0.99613	0.116144	0.139202	-0.42	-0.14	-0.14	0.3883	-0.0359	-0.2929	
-0.995764	0.1159	0.139324	-0.35	-0.07	-0.14	0.381	-0.0343	-0.2913	
-0.994788	0.116754	0.140056	-0.07	-0.07	-0.14	0.3941	-0.0359	-0.2961	
-0.996984	0.11651	0.138958	0.07	0	-0.07	0.3854	-0.0449	-0.2944	
-0.995398	0.115168	0.13725	0.07	0	-0.14	0.3825	-0.0373	-0.2898	
-0.994422	0.11468	0.138958	0.14	-0.07	-0.07	0.3825	-0.0358	-0.2975	
-0.994544	0.113948	0.137006	0.07	0.14	-0.14	0.3868	-0.0343	-0.2929	
-0.995276	0.116388	0.138226	0.14	-0.14	-0.07	0.3855	-0.0373	-0.3006	
-0.99491	0.11834	0.1403	0.21	-0.28	0	0.3897	-0.0389	-0.2868	
-0.995154	0.117974	0.14152	0.14	-0.07	-0.07	0.3898	-0.0404	-0.3006	
-0.993324	0.116632	0.140788	0	0.14	-0.07	0.3941	-0.0405	-0.2914	
-0.993568	0.117608	0.13847	-0.14	0.07	-0.07	0.3825	-0.0373	-0.2959	
-0.995276	0.116754	0.138958	-0.14	0.07	-0.07	0.3839	-0.0313	-0.2944	
-0.995032	0.116266	0.138348	0.07	0.07	-0.14	0.3825	-0.0358	-0.299	
-0.99552	0.11651	0.138714	0.14	0.14	-0.14	0.3754	-0.0433	-0.3035	
-0.996008	0.117242	0.137738	0.14	0.07	-0.14	0.3898	-0.0328	-0.3053	
-0.995154	0.117608	0.138226	0.07	-0.14	-0.14	0.3754	-0.0448	-0.2989	
-0.995032	0.11712	0.139568	-0.07	-0.07	-0.14	0.381	-0.0374	-0.2851	
-0.995642	0.116632	0.138348	-0.14	0	-0.14	0.3811	-0.0328	-0.2975	
-0.994422	0.115656	0.138958	-0.07	0.07	-0.14	0.3781	-0.0343	-0.2944	
-0.995154	0.117242	0.13847	0	0.07	-0.14	0.3868	-0.0435	-0.2867	
-0.995886	0.116388	0.138592	0	-0.07	-0.21	0.3911	-0.0298	-0.2961	
-0.99552	0.116876	0.137982	0.07	-0.07	-0.21	0.3927	-0.0374	-0.2976	
-0.995276	0.116266	0.139446	0	-0.14	-0.14	0.3854	-0.0434	-0.2944	
-0.9943	0.11651	0.13969	0	-0.14	-0.14	0.3783	-0.0342	-0.3129	
-0.993812	0.117364	0.140178	0.07	-0.07	-0.14	0.3898	-0.0465	-0.2929	
-0.994056	0.11651	0.140788	0.14	0	-0.14	0.3926	-0.0359	-0.296	
-0.994056	0.117364	0.139934	0.07	0	-0.14	0.3868	-0.0404	-0.2898	
-0.993202	0.118828	0.138958	0.07	-0.07	-0.21	0.3854	-0.0343	-0.2975	
-0.99369	0.117608	0.139812	0	0	-0.14	0.3883	-0.0374	-0.2945	
-0.994544	0.116632	0.139324	-0.14	0	-0.14	0.3869	-0.0282	-0.3068	
-0.995276	0.114924	0.140178	-0.07	0	-0.14	0.3869	-0.0404	-0.3037	
-0.995154	0.11529	0.139202	0.07	0.07	-0.14	0.3854	-0.0434	-0.2913	
-0.99552	0.116998	0.139202	0.28	0	-0.21	0.3897	-0.0419	-0.2914	
-0.99491	0.117242	0.138104	0.28	-0.07	-0.28	0.3826	-0.0419	-0.299	
-0.995642	0.117486	0.138714	0.07	-0.07	-0.21	0.3782	-0.0403	-0.299	
-0.99613	0.116998	0.138348	-0.28	-0.07	-0.14	0.3941	-0.0374	-0.3007	
-0.994788	0.116632	0.139202	-0.35	-0.07	-0.14	0.3811	-0.0373	-0.2944	
-0.99369	0.116876	0.141154	-0.21	0	-0.14	0.3825	-0.0358	-0.2975	
-0.996618	0.118096	0.139812	0.07	0.07	-0.21	0.3882	-0.0328	-0.2899	
-0.99552	0.116022	0.140056	0.14	-0.07	-0.28	0.384	-0.0434	-0.3005	
-0.994666	0.114558	0.139812	0.21	0.07	-0.21	0.3781	-0.0297	-0.2975	
-0.996496	0.11407	0.137128	0.14	0.35	-0.21	0.3927	-0.042	-0.2945	
-0.996252	0.115778	0.135298	0.14	-0.07	-0.14	0.3841	-0.0357	-0.3114	
-0.994666	0.116754	0.139812	0.35	-0.28	-0.14	0.3782	-0.0388	-0.299	
-0.994178	0.11773	0.140666	0.28	-0.07	-0.14	0.3869	-0.0434	-0.2975	
-0.994056	0.117974	0.141032	0	0	-0.14	0.3768	-0.0464	-0.2943	
-0.993446	0.116632	0.141154	-0.14	0	-0.07	0.3869	-0.0449	-0.2929	
-0.994422	0.116144	0.13969	-0.07	0.14	-0.07	0.3796	-0.0388	-0.2928	
-0.995154	0.116754	0.138226	0.14	0.14	-0.14	0.384	-0.0373	-0.299	
-0.995764	0.117486	0.138592	0.14	0.14	-0.14	0.3884	-0.0373	-0.3099	
-0.996862	0.11773	0.13725	0	0.07	-0.14	0.3825	-0.0343	-0.2975	
-0.994666	0.117486	0.138836	-0.14	-0.21	-0.07	0.3826	-0.0434	-0.3021	
-0.995642	0.116022	0.139934	-0.35	-0.14	-0.07	0.3899	-0.0419	-0.3083	
-0.995154	0.116266	0.139324	-0.28	0.07	-0.14	0.3768	-0.0373	-0.299	
-0.995398	0.116266	0.138958	-0.07	0.14	-0.07	0.3898	-0.0419	-0.3006	
-0.995398	0.115412	0.13725	0.07	0.07	-0.14	0.3913	-0.0419	-0.3053	
-0.996008	0.115656	0.13908	0	0	-0.14	0.3826	-0.0434	-0.3005	
-0.995642	0.115656	0.138958	0	-0.07	-0.14	0.3781	-0.0419	-0.2851	
-0.99552	0.11651	0.139568	-0.07	-0.07	-0.07	0.3839	-0.0282	-0.2991	
-0.994788	0.116632	0.140544	0	0	-0.07	0.3811	-0.0373	-0.2959	
-0.9943	0.116876	0.139202	0.07	0.07	-0.07	0.3839	-0.0358	-0.2929	
-0.995032	0.117364	0.13847	0	0.07	-0.14	0.3883	-0.0343	-0.2945	
-0.995032	0.117608	0.138714	0	0.07	-0.21	0.3855	-0.0343	-0.3052	
-0.99491	0.116876	0.138958	0	0.07	-0.14	0.3825	-0.0388	-0.2975	
-0.993934	0.116632	0.139446	0	-0.07	-0.14	0.384	-0.0327	-0.3052	
-0.994178	0.116388	0.140666	0	0	-0.14	0.3854	-0.0389	-0.2975	
-0.995276	0.115656	0.139446	0	0.07	-0.14	0.3883	-0.0343	-0.296	
-0.996374	0.116632	0.13847	0	0.07	-0.14	0.3927	-0.0419	-0.2976	
-0.995398	0.117486	0.138104	0.07	0.07	-0.14	0.3811	-0.0419	-0.2974	
-0.996496	0.11834	0.13725	0	0.14	-0.07	0.3883	-0.0419	-0.296	
-0.997594	0.117974	0.136396	-0.21	0.07	-0.07	0.3884	-0.0449	-0.3037	
-0.997838	0.116632	0.135054	-0.42	-0.07	-0.07	0.387	-0.0525	-0.299	
-0.996008	0.116144	0.138714	-0.49	-0.07	-0.07	0.3767	-0.0312	-0.2959	
-0.99552	0.1159	0.13969	-0.42	0	-0.14	0.3897	-0.0404	-0.2898	
-0.994056	0.116754	0.139934	-0.21	-0.07	-0.14	0.384	-0.0419	-0.299	
-0.99552	0.116998	0.1403	-0.07	0	-0.07	0.3839	-0.0343	-0.2929	
-0.995642	0.1159	0.138836	0	-0.07	0	0.3897	-0.0359	-0.2976	
-0.995642	0.115046	0.140544	0.14	0.14	-0.07	0.3898	-0.0434	-0.2944	
-0.99552	0.11529	0.136396	-0.07	0.35	-0.07	0.3854	-0.0343	-0.3006	
-0.997594	0.116876	0.136274	-0.07	-0.07	-0.07	0.3854	-0.0343	-0.3006	
-0.994178	0.116876	0.139568	0	-0.35	0	0.3827	-0.0494	-0.302	
-0.993324	0.118462	0.142618	-0.21	-0.14	0	0.3914	-0.0418	-0.316	
-0.993812	0.117242	0.141764	-0.42	0	0	0.3841	-0.0449	-0.3067	
-0.994178	0.116998	0.141642	-0.49	0.07	0	0.3912	-0.0343	-0.2991	
-0.994422	0.11651	0.139568	-0.28	0.21	-0.07	0.3811	-0.0358	-0.2975	
-0.993202	0.117486	0.138958	0	0.14	-0.14	0.387	-0.0494	-0.3067	
-0.994666	0.118096	0.13908	0	0.07	-0.14	0.3869	-0.0419	-0.3006	
-0.99491	0.11834	0.139202	-0.28	0	-0.14	0.3883	-0.0389	-0.2975	
-0.995276	0.117852	0.138836	-0.35	-0.07	-0.07	0.3882	-0.0359	-0.2898	
-0.99552	0.117608	0.139812	-0.35	0	-0.07	0.3841	-0.0403	-0.3036	
-0.995154	0.117242	0.13969	-0.21	0.07	-0.14	0.384	-0.0267	-0.3083	
-0.993934	0.117364	0.139446	-0.07	0.07	-0.21	0.3825	-0.0419	-0.2944	
-0.994544	0.11712	0.138714	0.07	0	-0.28	0.3913	-0.0374	-0.3022	
-0.995398	0.117486	0.13908	0	0	-0.21	0.3884	-0.0464	-0.3037	
-0.995154	0.116022	0.139568	-0.14	-0.07	-0.21	0.384	-0.0388	-0.3037	
-0.995398	0.115534	0.140178	-0.21	0	-0.21	0.3825	-0.0403	-0.2975	
-0.9943	0.116022	0.139324	-0.14	0	-0.21	0.3913	-0.045	-0.2991	
-0.994666	0.116388	0.138836	0.07	0	-0.21	0.3955	-0.0344	-0.2976	
-0.995276	0.117364	0.140544	0.14	0	-0.14	0.3797	-0.0433	-0.3005	
-0.995398	0.117486	0.139568	0.07	0.07	-0.14	0.3854	-0.0389	-0.2975	
-0.99369	0.116266	0.140056	-0.28	0	-0.14	0.3811	-0.0434	-0.2944	
-0.994056	0.115168	0.140788	-0.28	0	0	0.3883	-0.0465	-0.2929	
-0.996618	0.118096	0.13969	-0.07	0.14	0	0.3825	-0.0327	-0.3021	
-0.996984	0.119194	0.138348	0.14	0.21	-0.21	0.3768	-0.0433	-0.2989	
-0.995032	0.118462	0.136762	0	0.35	-0.35	0.3796	-0.0267	-0.3006	
-0.994544	0.115046	0.13725	-0.14	0.35	-0.35	0.3854	-0.0358	-0.3006	
-0.995398	0.11468	0.136762	-0.21	0.21	-0.14	0.3941	-0.0359	-0.2945	
-0.995642	0.116876	0.139202	-0.14	0.14	-0.07	0.384	-0.0404	-0.299	
-0.99674	0.117486	0.138958	0	0.35	-0.07	0.3868	-0.0374	-0.2944	
-0.996374	0.118218	0.138592	0.07	0.56	-0.07	0.3824	-0.0328	-0.2836	
-0.997472	0.116266	0.136274	-0.07	0.56	-0.14	0.3926	-0.0329	-0.2914	
-0.998326	0.114802	0.131272	-0.35	0.49	-0.14	0.3754	-0.0418	-0.3035	
-1.000034	0.11346	0.13359	-0.56	0.07	-0.07	0.3825	-0.0343	-0.2944	
-0.998814	0.113704	0.13359	-0.42	0.14	0.07	0.3926	-0.045	-0.2914	
-0.998814	0.1159	0.131394	-0.28	0	0.14	0.384	-0.0358	-0.299	
-0.998082	0.117852	0.135054	-0.14	-0.42	0.28	0.3897	-0.0389	-0.2883	
-0.997472	0.120658	0.139568	-0.42	-0.35	0.28	0.3913	-0.0465	-0.296	
-1.003084	0.119438	0.143716	-0.7	-1.47	0.35	0.3926	-0.0344	-0.2976	
-0.99491	0.11956	0.140666	-0.84	-0.35	0.28	0.3824	-0.0282	-0.2929	
-0.994178	0.119072	0.133224	-0.49	-2.24	0.42	0.3941	-0.0359	-0.2961	
-1.00101	0.119804	0.136762	-0.77	-1.12	0.28	0.3796	-0.0327	-0.3021	
-0.996374	0.119804	0.13847	-0.98	-2.1	0.28	0.384	-0.0343	-0.3021	
-0.990274	0.119926	0.136152	-1.26	-2.8	0.35	0.3911	-0.0481	-0.2836	
-0.99491	0.118828	0.143838	-1.4	-3.15	0.35	0.3796	-0.0388	-0.2928	
-0.996984	0.117974	0.14274	-1.54	-2.17	0.35	0.3826	-0.0373	-0.3052	
-0.997228	0.116754	0.149328	-1.33	-2.38	0.28	0.3811	-0.0403	-0.299	
-0.989298	0.117852	0.147864	-1.05	-2.59	0.14	0.3825	-0.0419	-0.2944	
-0.993202	0.118462	0.142374	-1.05	-2.66	0.07	0.3854	-0.0389	-0.2975	
-0.99674	0.118096	0.142008	-1.19	-2.87	-0.07	0.384	-0.0312	-0.3037	
-0.997228	0.118584	0.146156	-1.19	-3.43	-0.14	0.3928	-0.0465	-0.3022	
-1.00467	0.120292	0.143838	-1.12	-2.94	-0.28	0.3825	-0.0373	-0.2959	
-1.00101	0.119072	0.139812	-1.05	-4.06	-0.28	0.3854	-0.0343	-0.3021	
-1.006134	0.118218	0.143106	-1.33	-4.48	-0.14	0.3782	-0.0403	-0.299	
-1.002352	0.117608	0.145912	-1.47	-3.99	0.42	0.3812	-0.0418	-0.3067	
-0.996618	0.117242	0.149206	-1.47	-4.9	0.98	0.384	-0.0297	-0.3006	
-0.992836	0.118218	0.151646	-1.75	-4.2	1.4	0.384	-0.0388	-0.3037	
-0.992592	0.120658	0.155672	-2.03	-4.06	1.26	0.3885	-0.0434	-0.3083	
-0.994788	0.123342	0.156282	-2.24	-5.18	0.77	0.3753	-0.0296	-0.3082	
-0.998204	0.11895	0.155672	-2.45	-5.46	0.42	0.384	-0.0373	-0.3021	
-0.99796	0.113094	0.160552	-2.38	-6.02	0.07	0.3754	-0.0342	-0.3082	
-0.996374	0.113704	0.160918	-2.31	-6.02	0.14	0.384	-0.0312	-0.3052	
-0.995398	0.117852	0.162992	-1.75	-6.72	-0.07	0.374	-0.0417	-0.3097	
-1.001254	0.119926	0.163114	-1.82	-6.44	-0.21	0.3753	-0.0236	-0.3098	
-0.993324	0.121268	0.165554	-1.68	-8.33	-0.28	0.3783	-0.0387	-0.3113	
-1.000034	0.12017	0.166408	-1.89	-8.75	-0.35	0.371	-0.0372	-0.3066	
-0.998814	0.11895	0.17019	-2.38	-8.68	-0.28	0.3755	-0.0417	-0.3159	
-0.998326	0.117364	0.177632	-2.66	-8.61	-0.21	0.3682	-0.0341	-0.3158	
-0.994178	0.117974	0.18483	-2.45	-8.96	-0.07	0.3769	-0.0296	-0.3206	
-0.993202	0.119316	0.184098	-2.38	-9.73	0.07	0.3713	-0.0371	-0.3282	
-0.99491	0.117852	0.187148	-2.45	-10.64	0.14	0.3698	-0.0356	-0.3251	
-0.992348	0.118096	0.190442	-2.73	-10.99	0.21	0.3626	-0.0309	-0.3327	
-0.98942	0.118462	0.194956	-2.94	-11.69	0.28	0.3582	-0.0385	-0.3219	
-0.991006	0.116632	0.198982	-3.01	-11.76	-0.07	0.3756	-0.0341	-0.3313	
-0.987468	0.117364	0.20252	-2.87	-12.11	-0.28	0.3654	-0.031	-0.3297	
-0.990518	0.114436	0.20557	-2.8	-12.6	-0.14	0.3699	-0.0416	-0.3328	
-0.984052	0.110776	0.209474	-3.01	-13.86	0.07	0.3553	-0.0279	-0.3281	
-0.988444	0.112484	0.21838	-3.29	-13.79	0.28	0.3597	-0.0309	-0.3327	
-0.991372	0.116144	0.22021	-3.64	-14.21	0.42	0.3568	-0.0248	-0.3404	
-0.991494	0.11834	0.223748	-3.78	-16.17	0.49	0.3656	-0.04	-0.3404	
-0.990396	0.116388	0.231922	-3.85	-16.8	0.77	0.3525	-0.0309	-0.3326	
-0.988932	0.116144	0.230824	-3.78	-17.15	0.84	0.3555	-0.0278	-0.3466	
-0.99247	0.112484	0.23607	-4.62	-17.78	0.56	0.354	-0.0248	-0.3481	
-0.9943	0.109556	0.243756	-5.32	-18.34	0.42	0.3426	-0.0322	-0.3587	
-0.988078	0.11163	0.24644	-5.39	-19.18	0.63	0.3542	-0.0308	-0.3604	
-0.984174	0.113948	0.25498	-5.25	-20.23	0.77	0.354	-0.0232	-0.3497	
-0.986858	0.115534	0.262056	-5.6	-21.49	1.05	0.3469	-0.0292	-0.3557	
-0.983442	0.114558	0.268156	-5.88	-22.12	0.98	0.3396	-0.0246	-0.3526	
-0.980758	0.115046	0.276574	-6.3	-23.59	1.12	0.3382	-0.0291	-0.3603	
-0.97112	0.1159	0.285358	-6.3	-24.15	1.19	0.3395	-0.0246	-0.348	
-0.97722	0.11407	0.296582	-6.44	-24.78	1.26	0.3355	-0.0275	-0.3726	
-0.956724	0.11956	0.301706	-5.95	-26.32	0.56	0.3252	-0.026	-0.3632	
-0.95709	0.12505	0.308294	-6.37	-26.04	0.49	0.3238	-0.0169	-0.3679	
-0.950258	0.123708	0.31903	-7.63	-26.95	0.63	0.3036	-0.0273	-0.3661	
-0.946476	0.123464	0.33184	-7.91	-28	0.56	0.3225	-0.0274	-0.3801	
-0.950258	0.118584	0.340136	-8.26	-28.21	0.21	0.3268	-0.032	-0.3678	
-0.94977	0.11285	0.35075	-8.4	-28.84	0.42	0.3168	-0.0274	-0.3832	
-0.95038	0.110044	0.358558	-7.07	-29.19	0.42	0.3095	-0.0167	-0.3831	
-0.937326	0.10919	0.370026	-6.58	-31.57	0.63	0.3023	-0.0288	-0.3799	
-0.925614	0.110044	0.3904	-6.51	-32.48	0.49	0.3023	-0.0272	-0.3846	
-0.912072	0.10858	0.398574	-7.14	-31.22	0.7	0.2952	-0.0271	-0.3968	
-0.897188	0.105286	0.411506	-6.79	-31.43	1.05	0.298	-0.0181	-0.3923	
-0.876326	0.10431	0.420412	-5.95	-31.36	1.47	0.288	-0.0225	-0.406	
-0.863882	0.103334	0.421022	-5.32	-32.27	2.17	0.2807	-0.0118	-0.4091	
-0.863272	0.100528	0.436394	-5.04	-33.25	2.45	0.2735	-0.0224	-0.4012	
-0.857904	0.091012	0.461526	-4.55	-29.54	1.68	0.2721	-0.0117	-0.4151	
-0.869494	0.089304	0.463966	-2.03	-33.32	1.33	0.2707	-0.0147	-0.4151	
-0.836188	0.088816	0.481778	-0.84	-34.65	1.61	0.2722	-0.0163	-0.4182	
-0.849608	0.09516	0.484706	-0.42	-29.89	0.98	0.2694	-0.0238	-0.4212	
-0.854366	0.105774	0.494466	-0.84	-29.26	0.98	0.2578	-0.0146	-0.4242	
-0.836798	0.108946	0.497394	-0.35	-32.55	1.4	0.2578	-0.0146	-0.4242	
-0.833626	0.10675	0.516426	-1.05	-28	1.12	0.2492	-0.0175	-0.4318	
-0.828258	0.103822	0.52826	-1.19	-24.78	0.77	0.2434	-0.0099	-0.4395	
-0.801662	0.106628	0.543876	-0.28	-28.14	0.77	0.242	-0.019	-0.4379	
-0.814472	0.108336	0.540826	-0.77	-23.59	0.28	0.2363	-0.022	-0.4378	
-0.802028	0.11407	0.556076	-1.47	-23.73	0.14	0.2406	-0.0129	-0.441	
-0.797392	0.117486	0.559492	-2.31	-22.54	0.28	0.2245	-0.0037	-0.4316	
-0.787876	0.11102	0.57645	-3.08	-19.39	0.07	0.2291	-0.0249	-0.4424	
-0.79239	0.102236	0.56974	-3.92	-16.59	-0.28	0.2305	-0.0128	-0.444	
-0.793	0.093452	0.58194	-3.99	-17.08	-0.56	0.2174	-0.0082	-0.4377	
-0.781776	0.091134	0.58804	-3.29	-18.06	-0.7	0.2103	-0.0066	-0.4515	
-0.779702	0.090036	0.588894	-3.01	-14.14	-0.98	0.2218	-0.0142	-0.4485	
-0.777506	0.089548	0.601094	-2.1	-13.93	-1.12	0.2074	-0.0096	-0.453	
-0.774822	0.088084	0.598166	-1.54	-12.67	-1.12	0.2088	-0.0187	-0.4468	
-0.77287	0.087718	0.60085	-1.82	-10.29	-1.26	0.2089	-0.0172	-0.4515	
-0.776896	0.08686399	0.601216	-1.68	-7.42	-1.33	0.2102	-0.0111	-0.4422	
-0.777628	0.086498	0.603168	-1.61	-6.65	-1.12	0.2104	-0.0217	-0.4607	
-0.772626	0.091866	0.604022	-1.4	-7.14	-0.63	0.2031	-0.0232	-0.4498	
-0.777018	0.096624	0.610122	-1.47	-3.99	-0.42	0.1972	-0.005	-0.4498	
-0.772748	0.097112	0.611098	-1.47	-3.15	-0.07	0.2016	-0.0126	-0.4514	
-0.774822	0.093818	0.609878	-1.82	-1.61	0.28	0.2044	-0.0081	-0.4453	
-0.774212	0.092476	0.607194	-1.68	-0.42	0.63	0.2087	-0.0127	-0.4391	
-0.773358	0.089792	0.607804	-0.91	-0.14	0.91	0.2089	-0.0187	-0.4561	
-0.76433	0.091378	0.59902	0	-2.17	1.33	0.1973	-0.0156	-0.4467	
-0.773358	0.094428	0.607316	0.07	0.63	1.19	0.1987	-0.0126	-0.4437	
-0.779702	0.09455	0.611708	0.42	1.26	0.98	0.1988	-0.0095	-0.4576	
-0.781166	0.096014	0.607804	0.56	2.1	0.77	0.1944	-0.0094	-0.4575	
-0.78385	0.09552599	0.610732	0.91	2.59	0.77	0.2017	-0.0141	-0.456	
-0.783606	0.096624	0.605852	1.4	2.8	0.91	0.2075	-0.0141	-0.4622	
-0.780922	0.097112	0.601094	1.75	3.5	0.91	0.2104	-0.0126	-0.4592	
-0.782142	0.099064	0.600362	2.38	3.57	0.98	0.2089	-0.0263	-0.4499	
-0.785802	0.100894	0.5978	2.45	4.55	0.84	0.206	-0.0171	-0.453	
-0.787144	0.103822	0.59475	2.8	4.97	0.56	0.2031	-0.011	-0.4576	
-0.790194	0.105652	0.590846	2.8	5.6	0.21	0.2103	-0.0096	-0.4515	
-0.79666	0.10553	0.590114	2.8	5.95	0.14	0.2117	-0.0142	-0.45	
-0.796538	0.104676	0.589016	2.87	6.37	0.07	0.206	-0.0141	-0.4499	
-0.799832	0.103822	0.589748	2.8	7.77	0.14	0.2073	-0.0096	-0.4468	
-0.7991	0.105286	0.586698	2.87	8.47	0.28	0.2175	-0.0218	-0.4438	
-0.800076	0.104432	0.586332	2.94	9.31	0.42	0.2117	-0.0203	-0.4422	
-0.796904	0.106018	0.583892	3.5	10.22	0.28	0.2103	-0.0111	-0.4484	
-0.798002	0.10431	0.581696	4.27	9.45	0.21	0.2175	-0.0172	-0.4485	
-0.796904	0.101626	0.582184	4.13	11.48	-0.35	0.2219	-0.0203	-0.4485	
-0.793122	0.103212	0.572424	5.04	11.55	-0.35	0.2291	-0.0188	-0.4501	
-0.792268	0.104188	0.5673	5.25	13.51	-0.42	0.2277	-0.0188	-0.4486	
-0.798368	0.104066	0.563396	5.39	15.05	-0.28	0.2261	-0.0128	-0.4455	
-0.796294	0.107238	0.5612	5.95	15.75	-0.28	0.2204	-0.0157	-0.4516	
-0.801174	0.1098	0.55815	6.09	16.94	-0.28	0.2291	-0.0189	-0.4439	
-0.807884	0.110776	0.552538	5.67	18.34	-0.42	0.2248	-0.0264	-0.447	
-0.813496	0.110654	0.55327	5.6	20.02	-0.56	0.2334	-0.0189	-0.4424	
-0.814228	0.108824	0.542534	5.74	22.12	-0.42	0.2377	-0.0235	-0.4332	
-0.821548	0.10858	0.53314	6.37	23.73	-0.49	0.2335	-0.0234	-0.4471	
-0.824964	0.113948	0.5246	7	24.08	-0.21	0.2435	-0.0312	-0.4302	
-0.836798	0.116388	0.508374	6.93	25.41	0	0.2449	-0.019	-0.4318	
-0.841312	0.119438	0.504104	6.86	26.53	-0.14	0.2421	-0.0266	-0.4363	
-0.847046	0.12078	0.490196	7.07	26.95	0	0.2535	-0.0298	-0.4195	
-0.850584	0.122732	0.483486	6.79	29.19	-0.07	0.2579	-0.0313	-0.4241	
-0.853268	0.121146	0.47275	6.93	30.87	-0.28	0.2695	-0.0298	-0.4274	
-0.857172	0.120536	0.457622	6.65	32.76	-0.49	0.2708	-0.0329	-0.4135	
-0.86132	0.122366	0.446764	7	33.32	-0.7	0.268	-0.0314	-0.4181	
-0.866932	0.122488	0.44713	7.07	35.14	-1.12	0.2751	-0.0345	-0.4089	
-0.876326	0.122122	0.42578	7.56	35.07	-1.33	0.278	-0.0346	-0.4028	
-0.882182	0.124318	0.427854	7.35	37.94	-1.82	0.2881	-0.0285	-0.4091	
-0.874496	0.12871	0.400404	7.7	35.63	-1.75	0.294	-0.0407	-0.4106	
-0.878034	0.132492	0.384422	7	38.08	-1.75	0.2967	-0.0423	-0.3875	
-0.883036	0.131882	0.384788	6.23	37.73	-1.61	0.3009	-0.0318	-0.3861	
-0.90341	0.128832	0.368318	5.6	41.23	-1.47	0.3037	-0.0318	-0.3799	
-0.908534	0.12505	0.359534	5.81	40.32	-1.05	0.3096	-0.044	-0.3815	
-0.923784	0.124806	0.358192	5.81	42.21	-1.12	0.314	-0.0395	-0.3846	
-0.928054	0.125294	0.339648	6.58	43.54	-1.54	0.3298	-0.0396	-0.3724	
-0.925736	0.127978	0.317932	7.28	41.79	-2.24	0.3226	-0.0441	-0.377	
-0.935496	0.129564	0.308782	7.56	43.12	-3.43	0.3383	-0.0413	-0.3571	
-0.950258	0.133102	0.29402	7.77	42.98	-4.27	0.3369	-0.0503	-0.3586	
-0.957212	0.135786	0.273036	7.77	41.37	-4.06	0.3426	-0.0352	-0.3556	
-0.962702	0.132858	0.256444	7.56	40.53	-3.71	0.3513	-0.0444	-0.3557	
-0.977464	0.13542	0.245586	7.28	39.2	-2.8	0.3497	-0.0429	-0.3434	
-0.991372	0.140178	0.232044	8.26	30.1	-0.98	0.3512	-0.0445	-0.3418	
-0.980026	0.141398	0.21045	8.4	26.46	0.07	0.3525	-0.0384	-0.3372	
-0.977342	0.13908	0.201666	8.19	21	0.49	0.3627	-0.0431	-0.3358	
-0.971242	0.13237	0.190564	7.84	20.09	0	0.3771	-0.0447	-0.3282	
-0.988078	0.134322	0.182268	8.19	22.26	-0.14	0.3684	-0.0477	-0.3235	
-0.991982	0.134566	0.184952	8.05	21.56	-0.21	0.364	-0.0386	-0.3235	
-0.981856	0.13664	0.165554	7.98	19.25	-0.07	0.3741	-0.0432	-0.3174	
-1.001132	0.138958	0.157502	7.98	24.22	-0.21	0.3713	-0.0507	-0.3281	
-1.01382	0.139324	0.13908	7.77	24.01	-1.05	0.3641	-0.0522	-0.3265	
-1.033096	0.14579	0.133956	7.07	27.37	-1.89	0.3915	-0.0449	-0.3191	
-1.044442	0.149816	0.128222	6.93	26.53	-2.31	0.3814	-0.0585	-0.3112	
-1.020408	0.137372	0.116266	6.58	21.42	-1.82	0.3783	-0.0494	-0.3005	
-1.014918	0.12688	0.114924	6.65	26.95	-1.4	0.3783	-0.0403	-0.3036	
-1.017236	0.118828	0.106506	7.84	28.98	-0.42	0.3971	-0.0495	-0.3022	
-1.0126	0.11285	0.110898	9.8	29.61	0.28	0.3998	-0.0481	-0.2822	
-1.003938	0.119438	0.09333	12.39	29.26	0.28	0.3941	-0.0556	-0.2867	
-1.014796	0.127612	0.08601	13.58	31.15	-0.56	0.4027	-0.0451	-0.2869	
-1.009184	0.13298	0.068686	13.65	29.47	-1.89	0.3998	-0.0481	-0.2853	
-1.01809	0.13542	0.047214	12.53	32.97	-3.36	0.3926	-0.0557	-0.279	
-0.999424	0.142984	0.030256	10.57	32.2	-3.29	0.3998	-0.0557	-0.2791	
-0.995032	0.149694	0.026718	7.42	30.94	-2.17	0.404	-0.0543	-0.2668	
-1.000156	0.15433	0.018422	4.97	30.03	-1.19	0.4083	-0.0604	-0.256	
-1.010648	0.149938	-0.006832	4.2	30.03	-0.42	0.4125	-0.0499	-0.2515	
-1.02663	0.141642	-0.013176	4.2	30.31	-0.7	0.4227	-0.0515	-0.2516	
-1.031388	0.137372	-0.02135	4.34	26.95	-0.77	0.4213	-0.059	-0.25	
-1.026752	0.13481	-0.035258	4.62	25.13	-0.98	0.4183	-0.053	-0.2438	
-1.019554	0.133346	-0.04209	4.9	25.41	-1.47	0.4256	-0.0576	-0.25	
-1.014186	0.134444	-0.040992	4.34	24.08	-1.75	0.4123	-0.0637	-0.2191	
-1.007842	0.133346	-0.05368	4.34	21.91	-2.1	0.4268	-0.047	-0.2301	
-1.005646	0.136396	-0.052094	4.83	20.44	-2.66	0.4197	-0.0515	-0.2377	
-0.997228	0.13237	-0.05673	4.9	19.25	-3.15	0.4239	-0.0622	-0.2238	
-1.010648	0.130784	-0.074786	5.46	18.41	-3.71	0.4296	-0.0532	-0.2224	
-1.013454	0.125782	-0.072224	5.53	18.76	-3.43	0.4223	-0.0516	-0.2161	
-1.012356	0.126636	-0.066002	4.83	19.11	-2.45	0.4325	-0.0623	-0.2147	
-1.020774	0.128222	-0.079178	4.41	18.27	-1.89	0.4382	-0.0533	-0.2117	
-1.013942	0.120536	-0.098332	3.85	17.78	-1.54	0.4295	-0.0532	-0.2054	
-1.018456	0.1159	-0.10492	3.78	16.52	-1.19	0.4251	-0.0517	-0.2054	
-1.013942	0.114802	-0.109922	4.69	16.24	-1.05	0.4352	-0.0563	-0.2008	
-1.014186	0.11529	-0.116998	5.11	14.7	-0.98	0.4367	-0.0533	-0.2024	
-1.015406	0.117486	-0.123342	4.76	12.46	-0.63	0.438	-0.0488	-0.1917	
-1.009672	0.116754	-0.124562	3.29	12.53	0.07	0.4394	-0.0504	-0.1886	
-1.001498	0.116632	-0.119072	3.29	11.97	0.7	0.4395	-0.0594	-0.1947	
-0.998082	0.116632	-0.122122	4.06	12.95	0.91	0.4322	-0.0518	-0.1931	
-0.997228	0.121756	-0.118584	4.9	13.51	0.7	0.4394	-0.058	-0.1824	
-1.001986	0.128344	-0.121512	4.55	12.6	0.56	0.4382	-0.0639	-0.1993	
-1.009184	0.133346	-0.117364	3.36	12.74	0.28	0.451	-0.0626	-0.184	
-1.004914	0.12871	-0.117852	3.43	13.65	0	0.4452	-0.0656	-0.1809	
-1.001376	0.126026	-0.12444	3.64	15.12	0	0.445	-0.055	-0.1655	
-0.992714	0.127856	-0.135054	3.57	15.96	0.21	0.4436	-0.055	-0.1732	
-0.992104	0.127246	-0.137982	3.92	15.05	0.35	0.4394	-0.058	-0.1793	
-1.008208	0.123586	-0.148962	4.62	14.7	0.14	0.4422	-0.055	-0.1763	
-1.014064	0.127246	-0.17019	5.11	14.77	0.07	0.445	-0.055	-0.167	
-1.007964	0.132004	-0.19154	4.83	14.91	0.14	0.4349	-0.0626	-0.1638	
-1.00345	0.134932	-0.199348	4.27	13.65	0.21	0.445	-0.0627	-0.1562	
-0.998692	0.132492	-0.207522	3.01	11.97	0.35	0.4407	-0.0611	-0.1685	
-0.99247	0.12993	-0.209596	1.61	9.59	0.98	0.458	-0.0537	-0.1595	
-0.998692	0.134688	-0.20435	0.49	7.7	1.4	0.4436	-0.0702	-0.1577	
-1.00406	0.137128	-0.205936	-0.63	6.86	1.05	0.4523	-0.0672	-0.1671	
-1.00223	0.13603	-0.211426	-0.98	6.37	0.49	0.458	-0.0673	-0.1563	
-0.997716	0.134688	-0.205692	-1.05	5.53	0.21	0.445	-0.0611	-0.1593	
-0.99491	0.133468	-0.208742	-0.84	4.55	0.21	0.4449	-0.0566	-0.1532	
-0.99491	0.13725	-0.204106	-0.56	3.57	0	0.455	-0.0597	-0.1486	
-0.99918	0.143106	-0.212036	-0.91	2.45	-0.28	0.4594	-0.0628	-0.1533	
-1.002718	0.144082	-0.207522	-1.75	1.4	-0.56	0.4564	-0.0598	-0.1425	
-0.998814	0.13969	-0.215086	-2.1	1.47	-0.84	0.4478	-0.0597	-0.1547	
-0.992226	0.132248	-0.207156	-1.96	0.63	-0.77	0.4407	-0.0611	-0.1593	
-0.991616	0.12505	-0.202886	-1.61	0.56	-0.63	0.4508	-0.0627	-0.1609	
-0.987346	0.127124	-0.200812	-0.7	0.35	-1.05	0.4478	-0.0566	-0.1501	
-0.985638	0.124928	-0.19764	-0.84	-0.14	-1.12	0.4581	-0.0673	-0.164	
-0.994056	0.126758	-0.189466	-1.75	-0.63	-0.91	0.4579	-0.0582	-0.1517	
-1.001498	0.123708	-0.192394	-1.26	-0.07	-0.91	0.4449	-0.0566	-0.1532	
-1.000644	0.120048	-0.196176	-0.98	0.77	-0.98	0.4479	-0.0642	-0.1562	
-0.995154	0.116998	-0.198738	-0.63	1.82	-0.91	0.4449	-0.0597	-0.1454	
-0.989664	0.118096	-0.197152	0.35	2.1	-0.63	0.445	-0.0718	-0.1469	
-0.98942	0.11834	-0.196908	1.05	2.17	-0.49	0.4537	-0.0673	-0.1578	
-0.99308	0.122854	-0.194224	0.63	2.52	-0.56	0.4494	-0.0672	-0.1562	
-0.995398	0.122854	-0.203008	-0.07	3.43	-0.49	0.4566	-0.0612	-0.1579	
-0.99491	0.1281	-0.209474	-0.14	3.99	-0.49	0.4464	-0.0657	-0.1485	
-0.998204	0.130784	-0.213744	-0.14	3.85	-0.49	0.4477	-0.0582	-0.1439	
-0.998082	0.125904	-0.216184	-0.42	3.99	-0.35	0.452	-0.0507	-0.1409	
-0.99552	0.123098	-0.2196	-0.7	3.43	-0.07	0.4464	-0.0657	-0.1516	
-0.995032	0.12261	-0.215818	-0.77	1.96	0	0.4506	-0.0582	-0.147	
-1.001132	0.124562	-0.21167	-0.49	1.54	-0.14	0.4507	-0.0582	-0.1532	
-1.00223	0.129076	-0.219234	0.07	-0.35	-0.42	0.448	-0.0687	-0.1639	
-0.997106	0.130662	-0.213988	0	-0.98	-0.56	0.4506	-0.0567	-0.1424	
-0.991616	0.131882	-0.216916	-0.56	-3.15	-0.49	0.4521	-0.0628	-0.1393	
-0.996252	0.132248	-0.210816	-0.91	-3.85	-0.28	0.4506	-0.0552	-0.144	
-0.994056	0.126758	-0.216428	-1.26	-4.48	0.07	0.4463	-0.0551	-0.147	
-1.000644	0.125294	-0.219112	-1.19	-5.18	0.14	0.455	-0.0582	-0.1471	
-1.00833	0.126758	-0.219722	-0.84	-5.53	0.07	0.4521	-0.0567	-0.1517	
-1.004792	0.128466	-0.22082	-0.98	-7.98	0.35	0.4407	-0.0672	-0.1592	
-0.99979	0.12993	-0.222284	-1.61	-10.85	0.77	0.445	-0.0596	-0.1608	
-1.001986	0.132126	-0.212768	-1.82	-11.2	0.84	0.4493	-0.0566	-0.1547	
-1.003694	0.131638	-0.201178	-3.01	-12.53	0.84	0.4536	-0.0567	-0.1563	
-1.001254	0.135176	-0.193736	-3.78	-13.65	0.77	0.4479	-0.0566	-0.1594	
-1.007476	0.13298	-0.184708	-4.34	-14.14	0.56	0.4407	-0.0611	-0.1654	
-1.006256	0.124562	-0.176046	-4.06	-14.84	0.49	0.4566	-0.0643	-0.1594	
-1.012234	0.125294	-0.175314	-3.01	-15.4	0.42	0.4466	-0.058	-0.1747	
-1.011502	0.128466	-0.17995	-2.8	-15.26	0.35	0.4422	-0.0595	-0.1747	
-1.00589	0.127978	-0.171044	-3.01	-16.94	0.49	0.454	-0.0778	-0.1763	
-1.014308	0.130784	-0.160796	-3.01	-17.36	0.21	0.4394	-0.061	-0.1824	
-1.000888	0.134322	-0.15616	-2.73	-19.95	0	0.4409	-0.061	-0.1793	
-1.016382	0.132004	-0.154452	-3.29	-15.68	-0.28	0.4438	-0.0595	-0.184	
-1.017846	0.130296	-0.14518	-3.99	-17.15	-0.42	0.4395	-0.0655	-0.1823	
-1.019066	0.124928	-0.159698	-3.92	-14.63	-0.77	0.4337	-0.0579	-0.1885	
-1.0065	0.13298	-0.131882	-4.41	-15.54	-1.05	0.4438	-0.0565	-0.184	
-1.010648	0.135664	-0.147498	-5.39	-16.45	-1.61	0.4424	-0.0594	-0.1947	
-1.021018	0.137738	-0.135908	-6.72	-14.77	-1.75	0.4381	-0.0655	-0.1931	
-1.031632	0.14457	-0.154086	-8.19	-19.67	-1.33	0.4468	-0.0564	-0.1979	
-1.031754	0.143228	-0.133834	-10.01	-22.33	-0.98	0.4352	-0.0533	-0.2039	
-1.03334	0.133956	-0.120658	-12.11	-27.02	-0.42	0.4396	-0.0503	-0.2024	
-1.037488	0.130906	-0.117974	-13.44	-29.61	0.49	0.431	-0.0563	-0.21	
-1.031998	0.122	-0.117364	-13.86	-34.3	1.47	0.4267	-0.0532	-0.2177	
-1.02907	0.121756	-0.097112	-14.07	-36.82	1.89	0.4267	-0.0486	-0.2193	
-1.036512	0.120048	-0.067222	-13.23	-40.74	2.17	0.4252	-0.0592	-0.21	
-1.037366	0.121756	-0.047458	-11.76	-40.74	1.68	0.4252	-0.0532	-0.2162	
-1.029558	0.120536	-0.021106	-10.43	-42.7	1.75	0.4168	-0.0576	-0.233	
-1.02358	0.11346	-0.007198	-9.94	-44.52	2.17	0.4169	-0.059	-0.2515	
-1.029192	0.111264	0.014396	-10.01	-46.76	2.73	0.4126	-0.0499	-0.253	
-1.044076	0.11956	0.059902	-10.92	-46.62	2.94	0.4169	-0.0484	-0.2546	
-1.04005	0.130052	0.070394	-10.36	-46.9	2.73	0.4026	-0.0527	-0.273	
-1.022604	0.12993	0.086498	-10.99	-46.13	2.87	0.3983	-0.0527	-0.2745	
-1.003206	0.132492	0.094794	-11.41	-45.29	2.66	0.41	-0.0527	-0.2823	
-0.998204	0.128954	0.117486	-11.83	-45.36	2.94	0.3912	-0.0496	-0.2852	
-0.991128	0.13237	0.130418	-10.85	-47.6	3.99	0.3911	-0.0435	-0.2867	
-0.975878	0.142618	0.148962	-9.94	-50.75	4.76	0.3856	-0.0509	-0.3067	
-0.958798	0.145546	0.160064	-10.08	-50.19	5.25	0.3755	-0.0463	-0.3112	
-0.958188	0.139324	0.179218	-10.85	-47.95	4.76	0.3769	-0.0448	-0.3082	
-0.962702	0.133468	0.200934	-11.55	-45.71	4.76	0.3727	-0.0462	-0.3251	
-0.948184	0.131028	0.213378	-11.41	-46.83	4.27	0.364	-0.0477	-0.3204	
-0.947208	0.132858	0.22997	-10.57	-46.83	4.48	0.3628	-0.0537	-0.3373	
-0.9394	0.135542	0.250954	-10.5	-45.15	4.34	0.3541	-0.0399	-0.3434	
-0.932812	0.142008	0.264008	-10.15	-43.61	4.13	0.3511	-0.043	-0.3387	
-0.92781	0.145424	0.27572	-10.5	-42.35	3.22	0.3526	-0.0445	-0.3418	
-0.926346	0.143838	0.29402	-11.62	-42.28	2.45	0.3355	-0.0503	-0.357	
-0.91988	0.14274	0.311222	-12.6	-41.44	1.47	0.3368	-0.0413	-0.3525	
-0.913658	0.142008	0.324642	-12.95	-39.2	0.98	0.3339	-0.0397	-0.354	
-0.901092	0.145424	0.333792	-12.18	-38.99	1.47	0.3182	-0.0532	-0.363	
-0.894992	0.141764	0.343552	-12.67	-36.89	1.12	0.3268	-0.0351	-0.3694	
-0.903532	0.144204	0.352702	-12.74	-36.4	0.91	0.3211	-0.038	-0.3801	
-0.917074	0.140178	0.36844	-12.46	-37.03	0.21	0.3081	-0.0394	-0.3799	
-0.914024	0.136884	0.382958	-12.46	-36.4	-0.63	0.3037	-0.0318	-0.3799	
-0.909022	0.133834	0.39406	-12.32	-35.56	-1.12	0.2952	-0.0271	-0.3937	
-0.90463	0.13786	0.394182	-11.41	-36.54	-1.19	0.2894	-0.0362	-0.3875	
-0.892918	0.134078	0.416264	-11.27	-35.63	-1.47	0.2938	-0.0241	-0.403	
-0.882426	0.129076	0.423096	-10.92	-34.23	-1.61	0.2852	-0.0255	-0.4075	
-0.874496	0.12383	0.443592	-10.71	-33.46	-1.82	0.2779	-0.027	-0.4028	
-0.872544	0.124684	0.455548	-10.36	-31.78	-1.54	0.2925	-0.027	-0.4122	
-0.864126	0.122366	0.469822	-9.38	-30.8	-1.26	0.2809	-0.0239	-0.4152	
-0.851438	0.119438	0.48312	-8.54	-29.89	-0.98	0.2649	-0.0253	-0.4073	
-0.842776	0.118462	0.489586	-7.56	-28.14	-0.77	0.262	-0.0177	-0.4073	
-0.831918	0.114192	0.50081	-6.72	-27.72	-1.05	0.2593	-0.0237	-0.4211	
-0.825208	0.108824	0.505812	-6.09	-26.6	-1.05	0.2491	-0.0176	-0.4257	
-0.822158	0.099308	0.523746	-5.11	-25.9	-1.47	0.2592	-0.0192	-0.4196	
-0.832284	0.099186	0.527894	-3.64	-25.06	-2.03	0.2448	-0.016	-0.4225	
-0.800686	0.105286	0.531676	-2.1	-26.6	-2.24	0.252	-0.0115	-0.4242	
-0.811788	0.107604	0.533018	-2.31	-21.77	-2.52	0.239	-0.019	-0.4271	
-0.808006	0.107482	0.544364	-2.03	-22.75	-2.31	0.2333	-0.0189	-0.4363	
-0.79666	0.098698	0.55022	-1.96	-17.43	-2.1	0.2347	-0.0114	-0.4348	
-0.79788	0.096624	0.554368	-1.89	-15.54	-2.1	0.2349	-0.0219	-0.4425	
-0.789462	0.099552	0.544608	-1.54	-12.32	-1.89	0.229	-0.0128	-0.4378	
-0.790926	0.100528	0.55754	-1.54	-10.08	-1.89	0.2348	-0.0189	-0.4363	
-0.789584	0.099674	0.574742	-1.26	-9.52	-1.82	0.2203	-0.0112	-0.4393	
-0.79361	0.099796	0.57584	-1.19	-7.7	-1.75	0.2305	-0.0128	-0.4424	
-0.798124	0.09857599	0.575962	-1.05	-6.23	-1.54	0.2247	-0.0158	-0.4424	
-0.800442	0.094428	0.575962	-0.98	-5.46	-1.33	0.2217	-0.009699999	-0.4393	
-0.80276	0.09455	0.57889	-0.42	-4.48	-1.19	0.2263	-0.0234	-0.4485	
-0.803492	0.095404	0.576328	0.14	-2.66	-0.98	0.2247	-0.0127	-0.447	
-0.803492	0.096502	0.578036	0.77	-1.75	-0.91	0.2304	-0.0098	-0.4425	
-0.807274	0.096014	0.57462	1.26	-0.56	-0.98	0.226	-0.0052	-0.4347	
-0.808128	0.096868	0.575108	1.47	-0.14	-1.05	0.2174	-0.0112	-0.4439	
-0.80703	0.102114	0.5734	2.1	0.98	-1.05	0.2174	-0.0051	-0.447	
-0.806786	0.101992	0.57523	2.31	1.75	-1.05	0.2246	-0.0098	-0.4378	
-0.804224	0.100406	0.5734	2.31	2.66	-0.91	0.2073	-0.0081	-0.4438	
-0.804224	0.099064	0.573888	2.59	3.29	-0.77	0.2276	-0.0173	-0.4439	
-0.805078	0.101138	0.575596	2.87	4.27	-0.56	0.2146	-0.0111	-0.45	
-0.806054	0.101992	0.573034	3.22	5.18	-0.42	0.2174	-0.0142	-0.4392	
-0.80459	0.102846	0.572668	3.22	5.74	-0.28	0.2261	-0.0158	-0.4393	
-0.801174	0.102358	0.568276	3.64	6.65	-0.28	0.2289	-0.0113	-0.4332	
-0.799466	0.099552	0.5673	4.06	7.63	-0.35	0.2319	-0.0174	-0.4394	
-0.80154	0.10309	0.568764	4.48	8.96	-0.42	0.2262	-0.0143	-0.4455	
-0.802028	0.10675	0.564494	4.9	9.31	-0.49	0.2377	-0.0159	-0.4379	
-0.80276	0.102114	0.560956	4.69	10.71	-0.49	0.2291	-0.0249	-0.4408	
-0.804468	0.098454	0.55693	5.11	11.83	-0.35	0.2305	-0.028	-0.4378	
-0.79849	0.09821	0.552538	6.02	13.16	-0.14	0.2391	-0.0205	-0.4286	
-0.798978	0.100894	0.549732	7.21	15.33	0	0.2449	-0.0296	-0.4333	
-0.804102	0.102602	0.542656	7.77	16.73	0	0.2478	-0.0251	-0.4349	
-0.80947	0.10675	0.537654	8.05	18.13	0	0.2419	-0.0221	-0.4271	
-0.810934	0.10919	0.535214	8.4	19.18	-0.28	0.2434	-0.0251	-0.4256	
-0.813252	0.111508	0.529236	9.03	20.86	-0.49	0.2434	-0.0312	-0.424	
-0.813374	0.112362	0.511546	9.03	23.17	-0.7	0.255	-0.0282	-0.4257	
-0.813008	0.113582	0.500444	9.1	27.44	-0.7	0.2434	-0.0327	-0.424	
-0.817278	0.115046	0.497516	8.68	29.82	-0.7	0.2564	-0.0313	-0.4226	
-0.830698	0.116876	0.483974	8.4	33.6	-0.63	0.2622	-0.0298	-0.4242	
-0.837408	0.117974	0.476166	8.26	36.26	-0.77	0.2794	-0.0269	-0.4136	
-0.83814	0.116266	0.46543	8.05	39.06	-0.91	0.2722	-0.0269	-0.4166	
-0.84424	0.119316	0.44896	8.05	41.23	-0.98	0.2824	-0.0285	-0.4167	
-0.8662	0.123464	0.42944	8.05	45.08	-1.33	0.2809	-0.0437	-0.4028	
-0.867908	0.122854	0.410896	7.84	46.41	-1.4	0.2824	-0.0437	-0.4028	
-0.88328	0.118828	0.394426	7.07	49.07	-1.54	0.2982	-0.0393	-0.3999	
-0.888282	0.121512	0.377834	6.65	48.93	-1.68	0.3053	-0.0333	-0.3876	
-0.897432	0.128222	0.363072	7.14	51.8	-1.96	0.3126	-0.0501	-0.383	
-0.904996	0.131272	0.331108	7.07	52.99	-1.89	0.3211	-0.0304	-0.377	
-0.91927	0.127856	0.315248	6.65	51.94	-1.82	0.3153	-0.0395	-0.3692	
-0.935862	0.124318	0.305366	5.95	51.66	-1.96	0.3282	-0.0397	-0.357	
-0.943548	0.1281	0.284016	5.74	49.77	-2.38	0.3339	-0.0443	-0.3524	
-0.942328	0.133468	0.272304	5.67	47.39	-3.01	0.3411	-0.0398	-0.351	
-0.955016	0.132858	0.259128	6.3	45.22	-3.36	0.3468	-0.0399	-0.3387	
-0.969656	0.128588	0.24522	7.14	43.82	-3.15	0.3439	-0.0429	-0.3387	
-1.016626	0.123586	0.24522	8.89	38.71	-1.89	0.3511	-0.0354	-0.3403	
-0.993812	0.125538	0.213622	11.55	25.34	0.63	0.3626	-0.0385	-0.3296	
-1.016748	0.134688	0.202764	12.11	26.53	1.68	0.364	-0.0446	-0.3219	
-1.000034	0.142984	0.182878	12.6	27.16	1.47	0.3712	-0.0417	-0.3174	
-1.008818	0.140544	0.168604	12.04	30.52	0.91	0.3669	-0.0508	-0.3173	
-0.99674	0.136396	0.15067	11.2	28.35	0.7	0.3712	-0.0432	-0.3174	
-1.017236	0.136884	0.142862	10.71	35.14	0.91	0.38	-0.0584	-0.3236	
-0.99979	0.134322	0.129198	10.71	29.26	1.12	0.3827	-0.0448	-0.3113	
-0.997838	0.13359	0.112118	10.85	29.47	0.35	0.3812	-0.0433	-0.3021	
-1.007842	0.136518	0.118584	11.69	32.34	-0.91	0.3899	-0.048	-0.3006	
-1.023824	0.13969	0.117486	11.27	34.3	-1.33	0.3711	-0.0509	-0.3004	
-1.020896	0.142984	0.108092	9.8	32.97	-1.82	0.3811	-0.054	-0.2912	
-1.02297	0.146156	0.10004	9.59	36.12	-2.52	0.3869	-0.051	-0.2882	
-1.012844	0.14457	0.085278	11.06	32.27	-2.8	0.3983	-0.0496	-0.2791	
-1.006622	0.128466	0.08845	12.04	34.44	-3.43	0.3968	-0.0573	-0.2683	
-1.001986	0.117486	0.064416	13.37	36.68	-3.43	0.4012	-0.0512	-0.2699	
-0.97234	0.116998	0.048678	14.77	35.07	-3.92	0.3997	-0.0588	-0.2652	
-0.994422	0.127856	0.044774	15.26	35.28	-4.06	0.3968	-0.0603	-0.2574	
-1.007842	0.136762	0.019642	14.35	38.15	-3.78	0.4127	-0.0559	-0.2623	
-1.00162	0.138958	-0.006954	12.53	39.76	-3.5	0.4198	-0.0529	-0.2562	
-1.002352	0.142496	-0.030134	11.2	41.09	-2.8	0.4139	-0.0499	-0.2423	
-1.028948	0.143716	-0.046238	9.73	38.64	-2.24	0.4268	-0.0501	-0.2316	
-1.018578	0.13786	-0.060512	7.84	35.84	-1.89	0.4254	-0.0576	-0.23	
-1.032852	0.12993	-0.070272	7.21	35.77	-1.82	0.4268	-0.0531	-0.23	
-1.033462	0.12322	-0.102724	6.65	33.46	-1.82	0.4353	-0.0593	-0.207	
-1.046638	0.120414	-0.10797	6.86	30.1	-2.24	0.4281	-0.0502	-0.2131	
-1.038952	0.112118	-0.117486	7.35	27.72	-2.45	0.4353	-0.0654	-0.2039	
-1.02358	0.10614	-0.12566	9.1	25.13	-2.8	0.4266	-0.0532	-0.2038	
-1.020408	0.107848	-0.135664	9.59	24.64	-2.52	0.4295	-0.0472	-0.207	
-1.019554	0.124806	-0.134322	9.24	21	-1.75	0.4395	-0.0594	-0.1947	
-1.02785	0.127368	-0.149816	8.19	22.12	-1.89	0.4351	-0.0549	-0.1901	
-1.021872	0.12749	-0.16348	7.77	18.48	-1.89	0.4351	-0.0518	-0.1901	
-1.028094	0.130906	-0.15921	6.86	18.62	-1.68	0.4365	-0.0595	-0.1808	
-1.017236	0.133346	-0.15677	5.53	17.85	-1.05	0.4409	-0.0671	-0.1777	
-1.01626	0.139812	-0.152744	4.13	15.75	-0.77	0.4365	-0.0519	-0.1793	
-1.01138	0.13298	-0.152256	2.38	14.84	-0.84	0.448	-0.058	-0.1763	
-1.014186	0.12322	-0.163968	1.89	14.63	-1.05	0.4465	-0.0505	-0.1763	
-1.010282	0.112972	-0.171776	2.17	14.63	-0.84	0.4481	-0.0672	-0.1732	
-1.00162	0.110654	-0.175802	2.87	14	-0.42	0.4408	-0.0595	-0.1701	
-0.996374	0.118706	-0.174216	3.22	13.02	-0.07	0.4552	-0.06879999	-0.1609	
-0.993202	0.12078	-0.16836	2.8	12.81	-0.28	0.4392	-0.0596	-0.1608	
-0.99735	0.121146	-0.176412	2.73	12.95	-0.56	0.4494	-0.0642	-0.167	
-1.000888	0.116876	-0.179828	2.52	12.67	-0.28	0.4466	-0.0702	-0.1639	
-1.002718	0.115534	-0.18422	2.52	12.04	0.14	0.4494	-0.0627	-0.164	
-1.000644	0.121268	-0.2013	3.08	11.69	0.21	0.4566	-0.0582	-0.1641	
-0.999058	0.126636	-0.208986	2.87	10.22	0.42	0.4478	-0.0566	-0.1578	
-1.004426	0.13176	-0.219966	1.89	8.61	0.49	0.4477	-0.0612	-0.1439	
-1.006988	0.135542	-0.23058	1.4	7	0.21	0.452	-0.0491	-0.1471	
-1.000034	0.129808	-0.245098	0.63	5.04	-0.07	0.4449	-0.0612	-0.147	
-0.995032	0.11956	-0.232898	-1.33	3.85	0	0.455	-0.0613	-0.144	
-0.99186	0.10736	-0.21838	-1.82	3.71	0.35	0.4522	-0.0627	-0.1501	
-0.988932	0.106262	-0.208376	-0.98	4.06	0.84	0.4608	-0.0613	-0.1471	
-0.992958	0.115046	-0.204228	-0.21	4.97	1.12	0.4392	-0.0611	-0.1546	
-0.992836	0.120414	-0.211304	0	3.64	0.91	0.4506	-0.0476	-0.1456	
-1.003816	0.12627	-0.208376	0.14	3.01	0.21	0.4434	-0.0657	-0.1423	
-1.0004	0.126026	-0.19825	-0.07	2.59	-0.35	0.4506	-0.0597	-0.1455	
-0.993812	0.125416	-0.19947	-0.07	3.71	-0.63	0.4637	-0.0628	-0.1518	
-0.986614	0.124684	-0.207278	-0.21	3.29	-0.42	0.4607	-0.0537	-0.1456	
-0.987346	0.12505	-0.214964	-0.56	3.43	-0.28	0.4608	-0.0583	-0.1471	
-0.986736	0.12566	-0.216306	-0.7	3.08	-0.28	0.4563	-0.0461	-0.1425	
-0.991494	0.12139	-0.220576	-0.98	2.52	-0.35	0.4537	-0.0597	-0.164	
-0.992104	0.122	-0.223626	-0.77	2.52	-0.56	0.4566	-0.0658	-0.1548	
-0.990762	0.12139	-0.224968	-0.77	2.59	-0.77	0.4594	-0.0658	-0.1486	
-0.993812	0.121146	-0.227896	-0.63	2.03	-0.77	0.4593	-0.0507	-0.1502	
-0.995764	0.116998	-0.225944	-0.21	1.68	-0.7	0.4493	-0.06879999	-0.1501	
-0.993324	0.116266	-0.22997	0.14	2.1	-0.7	0.4491	-0.0643	-0.1331	
-0.990762	0.11956	-0.227286	0.63	1.68	-0.77	0.4477	-0.0612	-0.1424	
-0.992348	0.11712	-0.22631	0.42	1.05	-0.63	0.4491	-0.0552	-0.1378	
-0.993934	0.118096	-0.229848	0.21	0.7	-0.49	0.4506	-0.0567	-0.144	
-0.994788	0.11956	-0.225822	0	0.77	-0.28	0.4478	-0.06879999	-0.1408	
-0.993202	0.12017	-0.231068	-0.21	1.05	-0.28	0.4594	-0.0704	-0.1486	
-0.989176	0.119438	-0.226432	0.07	0.91	-0.35	0.4506	-0.0552	-0.1424	
-0.991982	0.119194	-0.22814	0.14	0.56	-0.28	0.4521	-0.0536	-0.1517	
-0.994544	0.121634	-0.228628	0.14	0.49	-0.35	0.455	-0.0643	-0.1394	
-0.997716	0.122488	-0.232898	-0.42	0.28	-0.28	0.4507	-0.0673	-0.147	
-0.9943	0.114558	-0.23485	-0.42	-0.14	-0.07	0.4608	-0.0674	-0.1486	
-0.99064	0.11895	-0.230214	-0.35	-1.89	0.21	0.4564	-0.0537	-0.1471	
-0.992714	0.119194	-0.227042	-1.12	-2.66	0.21	0.4565	-0.0613	-0.1486	
-0.996008	0.119926	-0.23363	-1.75	-3.01	0.28	0.4565	-0.0613	-0.1486	
-0.998448	0.120414	-0.231434	-1.54	-3.92	0.35	0.4565	-0.0613	-0.1502	
-0.997716	0.120536	-0.225944	-1.26	-4.97	0.42	0.465	-0.0583	-0.1395	
-0.998692	0.123586	-0.226798	-1.4	-6.51	0.28	0.4535	-0.0567	-0.1455	
-0.999424	0.127246	-0.224236	-1.89	-7.28	-0.07	0.455	-0.0598	-0.144	
-1.000278	0.126636	-0.223138	-2.31	-9.17	-0.07	0.4477	-0.0567	-0.1393	
-0.996862	0.125172	-0.215696	-2.87	-9.38	0.14	0.4419	-0.0597	-0.1423	
-0.99369	0.12383	-0.212646	-2.94	-10.5	0.49	0.4508	-0.0673	-0.1563	
-1.003816	0.132004	-0.209474	-3.01	-11.34	0.7	0.4507	-0.0521	-0.1579	
-1.002718	0.133956	-0.212036	-4.13	-13.65	0.77	0.4435	-0.0627	-0.1547	
-1.007232	0.12993	-0.210572	-5.25	-13.65	0.77	0.4639	-0.0628	-0.1641	
-1.00711	0.12261	-0.204472	-6.23	-14.63	0.98	0.4493	-0.0581	-0.1624	
-1.007842	0.121634	-0.198982	-6.16	-17.08	0.98	0.4435	-0.0581	-0.1547	
-1.009062	0.123586	-0.194224	-5.67	-17.85	0.91	0.4508	-0.0612	-0.1624	
-1.0126	0.128466	-0.196298	-4.83	-17.08	0.84	0.4408	-0.0626	-0.1716	
-1.01382	0.126636	-0.197152	-4.9	-19.53	0.56	0.4493	-0.049	-0.164	
-1.016748	0.126514	-0.185318	-5.95	-19.95	0.63	0.4438	-0.0717	-0.1747	
-1.024678	0.130662	-0.187392	-6.09	-19.88	0.35	0.4437	-0.0595	-0.1793	
-1.021384	0.132614	-0.180072	-7.21	-20.51	0.07	0.4379	-0.0565	-0.1747	
-1.01687	0.132248	-0.166652	-8.82	-21.56	-0.28	0.4466	-0.055	-0.1778	
-1.013698	0.128954	-0.162748	-9.52	-21.77	-0.7	0.4322	-0.0579	-0.1869	
-1.000766	0.12383	-0.15006	-9.38	-20.23	-0.63	0.4366	-0.0579	-0.1885	
-1.022238	0.13054	-0.156892	-9.03	-22.12	-0.56	0.4424	-0.061	-0.1947	
-1.042734	0.130418	-0.144082	-9.59	-23.66	-0.63	0.4309	-0.0518	-0.1993	
-1.042368	0.130052	-0.144082	-11.13	-28.56	-0.77	0.4294	-0.0578	-0.1977	
-1.046028	0.120292	-0.139324	-13.44	-34.93	-0.07	0.4267	-0.0562	-0.21	
-1.04493	0.12261	-0.10553	-12.11	-42.28	1.05	0.4397	-0.0609	-0.2116	
-1.023946	0.128222	-0.081984	-11.48	-44.66	2.03	0.4181	-0.0637	-0.2207	
-1.018822	0.127002	-0.060024	-13.86	-45.85	2.94	0.4225	-0.0515	-0.2377	
-1.028216	0.122732	-0.022448	-15.26	-47.04	3.15	0.4052	-0.0544	-0.236	
-1.0248	0.118218	-0.005856	-15.61	-47.74	2.94	0.4182	-0.05	-0.2392	
-1.02663	0.117242	0.019154	-14.28	-48.23	2.94	0.4111	-0.0575	-0.2468	
-1.01809	0.11773	0.037576	-12.53	-50.12	3.22	0.4169	-0.0499	-0.2515	
-1.023702	0.12139	0.067954	-12.04	-49.56	2.66	0.4041	-0.0543	-0.2683	
-1.021262	0.12688	0.08174	-11.76	-49.91	1.96	0.3996	-0.0543	-0.2606	
-1.002718	0.125294	0.10797	-13.86	-51.45	1.33	0.3983	-0.0436	-0.276	
-0.999912	0.127368	0.131516	-14.07	-50.75	1.12	0.3926	-0.0435	-0.2883	
-0.986736	0.129442	0.13115	-14.07	-53.13	1.4	0.3883	-0.0465	-0.2913	
-0.989664	0.134932	0.15555	-13.02	-56.21	2.59	0.3783	-0.0448	-0.3036	
-0.974536	0.138958	0.180072	-13.44	-55.3	3.92	0.3699	-0.0553	-0.3204	
-0.97295	0.136274	0.195688	-13.93	-52.92	4.41	0.3741	-0.0447	-0.322	
-0.957456	0.132736	0.21472	-13.51	-52.99	4.34	0.3656	-0.037	-0.3389	
-0.954162	0.127856	0.227042	-12.25	-52.92	4.27	0.3554	-0.0354	-0.3388	
-0.940986	0.124806	0.24644	-12.11	-53.48	3.71	0.3571	-0.046	-0.3542	
-0.929274	0.127856	0.263886	-11.76	-51.03	2.59	0.3513	-0.0459	-0.3495	
-0.925858	0.133224	0.289018	-10.99	-48.16	1.96	0.3382	-0.0352	-0.3494	
-0.917684	0.140666	0.30866	-10.08	-46.13	1.68	0.3311	-0.0397	-0.3586	
-0.920978	0.144936	0.325862	-10.43	-43.68	2.1	0.3282	-0.0442	-0.3601	
-0.919758	0.140056	0.338672	-11.55	-42	2.1	0.321	-0.0365	-0.3677	
-0.90463	0.138104	0.351482	-12.04	-41.93	1.75	0.3282	-0.0275	-0.374	
-0.902922	0.132492	0.369538	-12.88	-39.76	1.33	0.3153	-0.0334	-0.3816	
-0.88877	0.129808	0.38674	-12.81	-38.36	0.7	0.3109	-0.0274	-0.3723	
-0.877424	0.125416	0.401746	-12.46	-37.45	0.56	0.3023	-0.0318	-0.3814	
-0.868152	0.117974	0.412726	-11.9	-35	0.49	0.2997	-0.0377	-0.4076	
-0.866566	0.113338	0.430904	-11.27	-32.97	0.14	0.2952	-0.0317	-0.3952	
-0.860344	0.112118	0.439688	-9.87	-31.71	-0.21	0.2879	-0.0286	-0.3921	
-0.86071	0.111386	0.447008	-8.89	-30.24	-0.56	0.2967	-0.0332	-0.3968	
-0.856318	0.112972	0.45567	-7.7	-30.17	-0.91	0.2822	-0.024	-0.4044	
-0.85583	0.113338	0.466772	-7.14	-29.05	-1.05	0.2735	-0.027	-0.3935	
-0.84729	0.115168	0.473482	-6.93	-27.51	-1.19	0.2764	-0.0179	-0.4059	
-0.84241	0.116754	0.480802	-6.37	-27.16	-0.63	0.265	-0.0329	-0.4119	
-0.83448	0.11529	0.488732	-5.88	-26.04	-0.28	0.2736	-0.0193	-0.4136	
-0.834602	0.116754	0.49593	-5.46	-23.17	-0.42	0.2635	-0.0223	-0.4104	
-0.826184	0.116388	0.50264	-5.39	-21.91	-0.28	0.2621	-0.0131	-0.4243	
-0.833504	0.118706	0.505324	-5.18	-20.79	-0.28	0.2607	-0.0268	-0.4211	
-0.838506	0.112972	0.516548	-4.97	-19.04	-0.49	0.2549	-0.0252	-0.4226	
-0.82716	0.109922	0.523624	-4.62	-19.46	-0.49	0.2448	-0.0236	-0.4194	
-0.824842	0.106384	0.527162	-4.27	-17.29	-0.56	0.2477	-0.01	-0.4303	
-0.818864	0.103456	0.534848	-3.64	-15.75	-0.56	0.2463	-0.0266	-0.4302	
-0.81557	0.102968	0.537044	-2.59	-13.86	-0.42	0.2448	-0.016	-0.4272	
-0.817766	0.104066	0.532286	-1.89	-11.62	-0.56	0.2463	-0.0206	-0.4272	
-0.820084	0.100162	0.538874	-1.54	-9.66	-0.77	0.2376	-0.0144	-0.4317	
-0.820694	0.102724	0.545462	-0.98	-8.75	-0.91	0.2491	-0.01	-0.4319	
-0.824232	0.103456	0.550586	-0.77	-6.86	-0.98	0.2392	-0.0205	-0.441	
-0.82716	0.101748	0.545218	-0.63	-5.67	-0.91	0.2347	-0.0174	-0.4317	
-0.826062	0.101382	0.543144	-0.21	-6.16	-0.7	0.2419	-0.0114	-0.4349	
-0.826428	0.100894	0.547902	0.21	-4.27	-0.7	0.2319	-0.022	-0.4332	
-0.825086	0.10309	0.549976	0.84	-4.06	-0.77	0.2289	-0.0098	-0.4286	
-0.825086	0.103944	0.550586	1.19	-3.36	-0.84	0.2391	-0.0205	-0.4333	
-0.826306	0.105408	0.546194	0.98	-1.89	-1.05	0.2348	-0.0189	-0.4378	
-0.825696	0.108946	0.543876	1.05	-1.4	-0.98	0.2391	-0.0144	-0.4379	
-0.826062	0.10614	0.547048	1.05	-1.05	-0.84	0.2361	-0.0159	-0.4286	
-0.826306	0.10614	0.547902	1.05	-0.42	-0.7	0.2204	-0.0218	-0.4392	
-0.82716	0.106994	0.546438	0.84	0.28	-0.63	0.2304	-0.0204	-0.4316	
-0.827404	0.108092	0.543632	0.91	0.77	-0.63	0.2319	-0.0159	-0.4409	
-0.827282	0.106506	0.546316	0.7	0.91	-0.63	0.2334	-0.0189	-0.4409	
-0.825208	0.10492	0.545218	0.49	1.26	-0.63	0.2318	-0.0113	-0.4348	
-0.826306	0.104798	0.547658	0.91	1.12	-0.49	0.2319	-0.0113	-0.444	
-0.825696	0.104432	0.54656	1.05	2.52	-0.49	0.2334	-0.025	-0.4347	
-0.830088	0.104066	0.545096	1.19	3.01	-0.35	0.2261	-0.0113	-0.4362	
-0.829112	0.101504	0.543754	1.26	3.43	0.07	0.2261	-0.0295	-0.4285	
-0.825574	0.101626	0.545218	1.68	3.29	0.35	0.2289	-0.0159	-0.4301	
-0.823622	0.102358	0.54412	2.24	4.27	0.49	0.2419	-0.016	-0.4225	
-0.824232	0.102724	0.542412	2.66	5.39	0.49	0.2376	-0.0144	-0.4302	
-0.826184	0.106018	0.54107	2.94	6.09	0.49	0.2375	-0.0114	-0.4271	
-0.827038	0.108824	0.541314	3.15	6.51	0.56	0.2434	-0.0236	-0.4271	
-0.82655	0.10919	0.538508	3.43	7	0.42	0.2419	-0.019	-0.4256	
-0.826672	0.107726	0.539484	3.85	7.42	0.35	0.2375	-0.0145	-0.4256	
-0.823134	0.107116	0.543388	3.99	7.91	0.28	0.2347	-0.019	-0.424	
-0.819962	0.10919	0.535458	4.48	9.87	0.35	0.2362	-0.022	-0.4286	
-0.821914	0.109068	0.531676	4.55	11.48	0.42	0.2434	-0.0206	-0.4256	
-0.817522	0.110288	0.529846	5.25	12.18	0.7	0.242	-0.0205	-0.4333	
-0.81923	0.113582	0.519842	5.18	14.14	0.91	0.2434	-0.013	-0.4302	
-0.815326	0.11468	0.523624	5.46	14.35	1.05	0.2462	-0.0252	-0.4133	
-0.818986	0.114314	0.51484	5.74	16.8	1.19	0.2521	-0.0267	-0.4241	
-0.825208	0.113948	0.50813	6.09	19.67	1.05	0.2519	-0.0237	-0.4133	
-0.82533	0.114436	0.502884	6.58	20.72	0.84	0.249	-0.0191	-0.4133	
-0.82594	0.117364	0.49654	7	21.42	0.84	0.249	-0.0191	-0.4133	
-0.830454	0.119194	0.486658	7.14	25.69	0.77	0.2707	-0.0345	-0.4058	
-0.839238	0.120536	0.472384	7.21	28.98	0.84	0.2636	-0.0329	-0.4119	
-0.843874	0.11956	0.4636	7.42	30.45	0.77	0.2752	-0.0406	-0.4089	
-0.85461	0.12078	0.45323	7.28	34.37	0.7	0.2779	-0.03	-0.4012	
-0.864004	0.117974	0.440542	7.49	35.21	0.77	0.2851	-0.0346	-0.3967	
-0.866444	0.120902	0.421754	7.63	37.94	0.77	0.2967	-0.0332	-0.4014	
-0.876936	0.126026	0.406382	7.98	40.6	0.42	0.2937	-0.0363	-0.3844	
-0.874374	0.128954	0.390156	8.26	42.21	0.07	0.2909	-0.0377	-0.3906	
-0.883524	0.128466	0.370514	8.19	44.1	-0.28	0.3023	-0.0318	-0.3814	
-0.89121	0.130052	0.359656	8.33	46.41	-0.63	0.301	-0.0378	-0.3907	
-0.902312	0.132004	0.342576	8.68	47.67	-0.63	0.308	-0.041	-0.3676	
-0.913414	0.130906	0.323056	9.1	49.14	-0.77	0.3182	-0.038	-0.3723	
-0.913658	0.129076	0.30622	9.66	48.37	-0.77	0.3312	-0.0397	-0.3678	
-0.931714	0.130296	0.299388	10.15	50.12	-0.98	0.3267	-0.0351	-0.3632	
-0.934398	0.138958	0.27938	10.57	49.49	-1.4	0.3368	-0.0367	-0.3525	
-0.928786	0.144204	0.263276	10.85	47.32	-2.17	0.3469	-0.0429	-0.3479	
-0.94428	0.145424	0.25315	10.92	46.48	-2.73	0.3439	-0.0399	-0.3433	
-0.95099	0.148474	0.24888	11.34	44.17	-2.59	0.351	-0.0339	-0.3342	
-0.98149	0.150426	0.232532	12.81	35	-0.91	0.3568	-0.0461	-0.3203	
-0.966972	0.146034	0.21289	13.93	26.67	1.68	0.3597	-0.0385	-0.3311	
-0.976732	0.150914	0.197884	13.93	25.69	3.22	0.3625	-0.0477	-0.3157	
-0.982344	0.158478	0.180316	13.72	28.91	2.59	0.3684	-0.0584	-0.3157	
-0.99613	0.158844	0.182268	12.04	35.28	1.61	0.3755	-0.0493	-0.3143	
-0.985272	0.161162	0.150426	11.9	33.39	1.4	0.3653	-0.0493	-0.3019	
-0.977342	0.155672	0.148596	11.34	34.72	0.49	0.3827	-0.0494	-0.3098	
-0.980514	0.150792	0.122854	12.18	39.83	-0.56	0.3783	-0.0616	-0.2912	
-0.988444	0.152744	0.119438	13.44	39.62	-1.05	0.3841	-0.0555	-0.3005	
-0.995276	0.152012	0.092232	13.65	39.06	-1.61	0.3855	-0.0616	-0.2881	
-1.012234	0.151402	0.083082	15.33	38.64	-2.73	0.3926	-0.0587	-0.2805	
-1.021384	0.155672	0.071126	17.5	41.23	-3.99	0.394	-0.0618	-0.2713	
-1.0187	0.159576	0.051362	18.06	43.12	-4.13	0.4055	-0.0619	-0.2668	
-1.015406	0.170678	0.030012	16.73	44.17	-4.27	0.4098	-0.0634	-0.2622	
-1.019188	0.172752	0.015128	15.47	44.66	-4.62	0.4069	-0.0589	-0.2606	
-1.02175	0.163114	-0.027206	13.58	41.44	-4.13	0.4097	-0.0605	-0.2483	
-1.024922	0.156038	-0.035136	10.92	39.69	-3.92	0.4098	-0.0696	-0.2483	
-1.050664	0.152744	-0.068686	10.36	42.63	-3.64	0.4096	-0.0651	-0.2329	
-1.047126	0.150426	-0.082106	9.94	38.01	-3.22	0.427	-0.0713	-0.2346	
-1.034926	0.144204	-0.090524	8.75	36.61	-3.5	0.4195	-0.0561	-0.2207	
-1.040782	0.133468	-0.099552	8.26	34.44	-3.85	0.4153	-0.0652	-0.2252	
-1.028094	0.12017	-0.121146	7.63	32.97	-3.92	0.424	-0.0713	-0.2207	
-1.038098	0.115656	-0.11224	8.4	30.59	-3.64	0.4398	-0.0639	-0.2132	
-1.031022	0.114558	-0.112972	9.31	28.42	-3.36	0.4382	-0.0609	-0.2086	
-1.040172	0.117242	-0.12627	10.29	27.3	-3.71	0.441	-0.0594	-0.2009	
-1.03151	0.124928	-0.13908	10.5	27.86	-4.34	0.4353	-0.0715	-0.1977	
-1.01687	0.130052	-0.150304	10.71	25.69	-4.2	0.4337	-0.07	-0.1838	
-1.0126	0.136396	-0.15311	9.87	23.1	-3.92	0.4525	-0.0595	-0.1902	
-1.013576	0.143106	-0.156282	7.63	21.56	-3.5	0.4467	-0.0641	-0.1855	
-1.021262	0.147376	-0.161772	5.95	19.6	-3.15	0.4336	-0.061	-0.1761	
-1.016382	0.147376	-0.160796	5.18	20.79	-3.5	0.4451	-0.0672	-0.1654	
-1.007964	0.150304	-0.163114	4.9	19.67	-3.99	0.4323	-0.07759999	-0.176	
-0.998448	0.145058	-0.164334	4.76	18.83	-4.34	0.4481	-0.0656	-0.1809	
-1.004182	0.137738	-0.173118	3.99	18.69	-4.13	0.4464	-0.0672	-0.1547	
-0.996618	0.132614	-0.172264	3.99	18.34	-3.64	0.4407	-0.0672	-0.1577	
-0.998204	0.122854	-0.17263	3.71	17.08	-3.36	0.4449	-0.049	-0.1563	
-1.003206	0.122732	-0.178242	3.85	16.8	-3.36	0.4492	-0.0552	-0.147	
-1.007842	0.115534	-0.193004	4.06	17.01	-3.57	0.4492	-0.0582	-0.1517	
-1.011746	0.11102	-0.210084	4.97	15.05	-3.64	0.442	-0.0566	-0.147	
-1.009184	0.111142	-0.223504	4.69	14.35	-3.5	0.4405	-0.0627	-0.1438	
-1.003328	0.112728	-0.242536	3.99	13.16	-2.87	0.455	-0.0613	-0.1502	
-0.998448	0.109068	-0.244366	3.57	10.43	-2.52	0.4579	-0.0643	-0.1455	
-0.999546	0.101138	-0.252174	2.73	8.33	-1.96	0.4521	-0.0582	-0.1471	
-0.998692	0.10065	-0.248514	2.66	6.86	-1.33	0.4492	-0.0582	-0.1455	
-0.999912	0.10309	-0.241072	2.8	6.09	-1.33	0.4477	-0.0612	-0.1408	
-1.000766	0.108824	-0.242048	2.52	5.6	-1.4	0.4549	-0.0552	-0.144	
-0.992592	0.110288	-0.24095	2.87	5.74	-1.4	0.4521	-0.0643	-0.1409	
-0.986736	0.111142	-0.23729	2.94	4.27	-1.12	0.4636	-0.06439999	-0.1317	
-0.99003	0.113338	-0.228018	2.45	3.43	-0.91	0.455	-0.0598	-0.1425	
-0.99064	0.116632	-0.22021	1.75	2.8	-0.98	0.4534	-0.0583	-0.1332	
-0.992714	0.111508	-0.217404	1.19	3.92	-1.19	0.4549	-0.0583	-0.1425	
-0.99003	0.11285	-0.21289	1.47	4.69	-1.33	0.4593	-0.0613	-0.1456	
-0.988566	0.108336	-0.221064	1.82	5.11	-1.33	0.4534	-0.0522	-0.1348	
-0.989786	0.110776	-0.233874	1.96	4.9	-1.54	0.4564	-0.0689	-0.1316	
-0.987102	0.114314	-0.24156	1.96	4.27	-1.68	0.4592	-0.0492	-0.1395	
-0.985882	0.110166	-0.243024	1.26	3.85	-1.54	0.4535	-0.0674	-0.1378	
-0.986614	0.111996	-0.240462	0.91	3.29	-1.26	0.4535	-0.0628	-0.1378	
-0.984052	0.114314	-0.236924	0.63	3.29	-1.19	0.4605	-0.0462	-0.1256	
-0.98637	0.109678	-0.24644	0.42	1.96	-1.05	0.452	-0.0628	-0.1301	
-0.988444	0.108092	-0.241926	0.21	1.89	-1.05	0.4577	-0.0507	-0.1302	
-0.99369	0.102846	-0.250832	-0.35	2.17	-1.19	0.4606	-0.0523	-0.1364	
-0.99247	0.097234	-0.249124	0.21	1.68	-1.4	0.4519	-0.0568	-0.1301	
-0.98332	0.103456	-0.246074	1.68	0.91	-1.33	0.4635	-0.0584	-0.1287	
-0.983564	0.108946	-0.245098	1.61	0.49	-1.26	0.4636	-0.0583	-0.1364	
-0.987956	0.104188	-0.24705	0.77	-0.07	-1.19	0.465	-0.0553	-0.1395	
-0.988688	0.101138	-0.250466	0.21	0	-0.84	0.4505	-0.0522	-0.1347	
-0.98942	0.100528	-0.248636	-0.07	-0.14	-0.35	0.4592	-0.0629	-0.1332	
-0.988688	0.101748	-0.243878	-0.21	-0.21	-0.35	0.4592	-0.0629	-0.1302	
-0.988566	0.099918	-0.248026	-0.42	-0.28	-0.42	0.4505	-0.0583	-0.1316	
-0.990518	0.097844	-0.251564	-0.56	-0.77	-0.07	0.4476	-0.0628	-0.1285	
-0.989664	0.099186	-0.247782	-0.7	-1.05	0.14	0.4433	-0.0643	-0.1269	
-0.987834	0.096868	-0.244854	-1.26	-1.05	0.35	0.4492	-0.0567	-0.144	
-0.988688	0.09857599	-0.244854	-0.84	-0.91	0.56	0.4578	-0.0537	-0.1379	
-0.988078	0.0976	-0.24217	-0.91	-0.91	0.91	0.4534	-0.0522	-0.1348	
-0.989298	0.100772	-0.245464	-1.12	-0.7	1.12	0.4607	-0.0583	-0.141	
-0.987834	0.10004	-0.24156	-1.4	-0.98	1.33	0.455	-0.0567	-0.1486	
-0.988444	0.09882	-0.241926	-1.33	-1.19	1.33	0.4548	-0.0598	-0.1317	
-0.985028	0.10065	-0.235826	-1.4	-0.49	1.61	0.4564	-0.0552	-0.1456	
-0.984052	0.102724	-0.238876	-1.68	-0.49	2.03	0.4534	-0.0507	-0.1363	
-0.984174	0.104676	-0.23363	-1.61	-0.56	2.38	0.4636	-0.0568	-0.1379	
-0.987834	0.10614	-0.235704	-1.89	0	2.52	0.4577	-0.0568	-0.1348	
-0.988444	0.106628	-0.241682	-1.96	0.35	2.45	0.4636	-0.0583	-0.1379	
-0.987224	0.109556	-0.239974	-1.68	0.21	2.52	0.4635	-0.0568	-0.1349	
-0.986126	0.109434	-0.24156	-2.1	0.07	3.08	0.4549	-0.0659	-0.1332	
-0.984662	0.108458	-0.24522	-2.73	-0.42	3.64	0.452	-0.0659	-0.1285	
-0.98332	0.109556	-0.243024	-3.36	-0.91	4.06	0.4636	-0.0614	-0.1348	
-0.986004	0.110532	-0.233752	-3.64	-1.26	4.62	0.4535	-0.0704	-0.1362	
-0.98637	0.115778	-0.230824	-3.5	-0.77	4.97	0.4664	-0.0538	-0.1303	
-0.98759	0.117608	-0.23241	-3.85	-0.56	5.25	0.4621	-0.0629	-0.1364	
-0.989542	0.123098	-0.243512	-4.27	-0.98	5.53	0.4593	-0.0689	-0.1317	
-0.990152	0.126514	-0.237046	-4.62	-1.47	5.74	0.4622	-0.0705	-0.1379	
-0.995886	0.12505	-0.242902	-5.6	-1.89	6.3	0.4563	-0.0598	-0.1286	
-0.99918	0.125172	-0.254614	-6.58	-3.01	6.65	0.4548	-0.0598	-0.127	
-1.000644	0.123464	-0.24766	-6.93	-3.43	6.93	0.4492	-0.0643	-0.1393	
-0.995398	0.131394	-0.248392	-6.3	-4.69	6.86	0.4478	-0.0749	-0.1346	
-0.992836	0.143472	-0.246806	-6.51	-5.11	6.65	0.4506	-0.0734	-0.1362	
-0.992226	0.14335	-0.239608	-7.42	-6.51	6.44	0.4536	-0.0749	-0.1362	
-0.995642	0.142374	-0.242048	-7.63	-7.21	6.23	0.4522	-0.0749	-0.1424	
-0.995154	0.144326	-0.232532	-7.35	-8.05	6.16	0.4593	-0.0659	-0.1394	
-0.995398	0.149572	-0.224724	-7	-9.45	5.88	0.4623	-0.081	-0.144	
-0.991006	0.156892	-0.22509	-6.02	-10.57	5.67	0.4478	-0.0703	-0.1423	
-0.993324	0.16287	-0.219112	-5.04	-11.13	5.32	0.455	-0.0643	-0.1486	
-0.987468	0.160552	-0.218868	-5.25	-10.64	4.9	0.4464	-0.0673	-0.1485	
-0.98454	0.165432	-0.218746	-5.67	-11.9	4.76	0.448	-0.0824	-0.15	
-0.98942	0.171166	-0.202642	-6.02	-13.51	4.62	0.448	-0.0763	-0.1546	
-0.996374	0.171288	-0.198128	-6.02	-13.51	4.13	0.4537	-0.0809	-0.1501	
-0.998326	0.167994	-0.2013	-6.3	-14.35	3.64	0.4479	-0.0748	-0.1531	
-0.990518	0.15921	-0.192882	-6.86	-14.49	3.64	0.4465	-0.0718	-0.1562	
-0.992104	0.159332	-0.176534	-6.51	-15.33	3.85	0.448	-0.0611	-0.1747	
-0.993934	0.157258	-0.171654	-5.6	-13.79	3.36	0.4481	-0.0808	-0.1639	
-0.995398	0.159698	-0.176168	-4.9	-13.86	2.66	0.4437	-0.0702	-0.1639	
-0.99674	0.161772	-0.169702	-3.99	-13.93	2.1	0.4438	-0.07319999	-0.1716	
-0.995886	0.164456	-0.164822	-3.01	-13.3	1.82	0.4322	-0.0716	-0.1761	
-0.992714	0.179096	-0.155184	-2.17	-14.14	1.26	0.444	-0.08679999	-0.1823	
-0.988078	0.185684	-0.15738	-2.87	-13.3	0.28	0.4453	-0.0747	-0.1793	
-1.004182	0.217404	-0.158356	-4.55	-18.62	-1.05	0.4366	-0.07009999	-0.1854	
-0.985394	0.182512	-0.159576	-6.3	-15.4	-0.21	0.4337	-0.0822	-0.176	
-0.996374	0.20496	-0.172752	-3.99	-15.89	-0.42	0.4352	-0.07759999	-0.1807	
-1.000522	0.205936	-0.124806	-7.07	-17.71	0.07	0.4396	-0.0716	-0.19	
-1.010892	0.186782	-0.128222	-7.63	-17.15	-1.54	0.4338	-0.0715	-0.1869	
-0.99979	0.179706	-0.114802	-8.19	-15.82	-2.8	0.4324	-0.0715	-0.1992	
-0.991128	0.1769	-0.114558	-8.05	-16.38	-2.73	0.4353	-0.07	-0.1961	
-0.99064	0.173972	-0.09272	-7.77	-16.87	-2.45	0.4339	-0.0715	-0.2038	
-0.993568	0.16958	-0.096868	-7.49	-18.55	-2.52	0.4295	-0.0669	-0.1961	
-0.995886	0.161528	-0.08784	-8.19	-19.88	-2.94	0.4311	-0.07449999	-0.2038	
-0.997594	0.151768	-0.07076	-8.68	-21	-3.15	0.4309	-0.0608	-0.2023	
-0.994788	0.146034	-0.059292	-8.47	-22.19	-3.29	0.4382	-0.0624	-0.2039	
-0.988566	0.149694	-0.052216	-7.84	-22.61	-3.29	0.4355	-0.0744	-0.2192	
-0.984662	0.154086	-0.0366	-7.28	-21.49	-3.57	0.4297	-0.0698	-0.2208	
-0.986248	0.157624	-0.029768	-6.65	-21.42	-3.99	0.4181	-0.0607	-0.2222	
-0.986614	0.153964	-0.029646	-5.25	-21.98	-4.27	0.4197	-0.0652	-0.2299	
-1.000156	0.15006	-0.031598	-2.94	-23.94	-4.34	0.4224	-0.0562	-0.2192	
-1.010404	0.144204	-0.022936	-1.05	-25.69	-3.99	0.424	-0.0667	-0.23	
-1.011868	0.143716	-0.021472	0.63	-27.58	-3.57	0.4284	-0.0546	-0.2455	
-1.00711	0.145912	0.001586	1.82	-28.49	-3.08	0.414	-0.06659999	-0.2422	
-0.999912	0.14762	0.026718	1.54	-27.37	-2.52	0.4082	-0.0635	-0.2421	
-1.001498	0.15128	0.006222	-0.63	-26.39	-2.24	0.4096	-0.0636	-0.236	
-0.998814	0.163724	0.025864	-2.03	-22.26	-3.08	0.4141	-0.059	-0.2545	
-1.003084	0.165554	0.033306	-2.52	-23.59	-3.29	0.4126	-0.0575	-0.2499	
-0.995276	0.16165	0.047336	-4.27	-23.87	-3.22	0.4054	-0.065	-0.2513	
-0.988932	0.157624	0.072102	-4.55	-23.17	-3.08	0.4097	-0.0529	-0.2561	
-0.984662	0.154086	0.084668	-4.83	-21.91	-3.15	0.3998	-0.0649	-0.2652	
-0.97844	0.152256	0.096868	-3.99	-20.65	-3.43	0.4055	-0.0604	-0.2683	
-0.981734	0.147742	0.104432	-2.87	-18.62	-4.06	0.394	-0.0603	-0.2728	
-0.984418	0.149816	0.105408	-1.82	-16.8	-4.83	0.3883	-0.0571	-0.2805	
-0.994056	0.151524	0.103944	-1.4	-16.1	-4.97	0.3984	-0.0512	-0.2806	
-0.991982	0.15067	0.105286	-2.45	-14.84	-4.69	0.3897	-0.0556	-0.2805	
-0.993446	0.151158	0.11163	-4.13	-14.49	-4.06	0.3926	-0.0557	-0.2744	
-0.992836	0.147254	0.111996	-5.04	-14.49	-3.15	0.3941	-0.0496	-0.2852	
-0.987102	0.140666	0.122244	-5.88	-13.23	-2.31	0.3941	-0.0496	-0.2898	
-0.98271	0.135908	0.12749	-5.81	-12.74	-1.89	0.3969	-0.042	-0.2837	
-0.984662	0.132126	0.127124	-5.67	-11.34	-1.96	0.3841	-0.0525	-0.2943	
-0.987346	0.131882	0.127246	-5.46	-11.41	-2.1	0.3855	-0.0449	-0.2975	
-0.99003	0.12993	0.131516	-4.55	-12.18	-2.24	0.3883	-0.0419	-0.2975	
-0.994666	0.133224	0.137982	-3.85	-12.95	-2.31	0.3898	-0.0374	-0.2991	
-0.996496	0.13054	0.141642	-4.55	-12.6	-2.24	0.3811	-0.0388	-0.2975	
-0.993202	0.129442	0.151036	-5.74	-12.32	-1.82	0.3855	-0.051	-0.3005	
-0.986736	0.126392	0.151036	-6.79	-11.13	-1.33	0.3769	-0.0448	-0.3113	
-0.98759	0.125538	0.151036	-6.93	-10.36	-0.91	0.3841	-0.0418	-0.3067	
-0.983198	0.12322	0.15799	-6.23	-10.85	-0.56	0.3855	-0.0373	-0.3098	
-0.980392	0.119682	0.164578	-5.95	-11.2	-0.49	0.3783	-0.0418	-0.3067	
-0.981124	0.1159	0.174216	-5.11	-10.57	-0.84	0.3726	-0.0432	-0.3128	
-0.982222	0.11468	0.182146	-3.92	-9.59	-1.19	0.3755	-0.0448	-0.3143	
-0.977342	0.112484	0.186416	-2.66	-8.68	-1.4	0.3741	-0.0448	-0.3143	
-0.97173	0.11224	0.191052	-1.4	-8.19	-1.19	0.3725	-0.0433	-0.3081	
-0.970022	0.112362	0.195322	-0.56	-7.07	-0.7	0.3726	-0.0372	-0.3128	
-0.966606	0.11407	0.195688	-0.28	-6.23	0.14	0.3798	-0.0433	-0.3113	
-0.965142	0.114558	0.194956	-0.42	-5.25	1.05	0.3653	-0.028	-0.3158	
-0.96563	0.112972	0.196908	-0.56	-3.85	1.82	0.358	-0.0341	-0.3065	
-0.968314	0.106506	0.200812	-1.12	-2.38	2.59	0.3841	-0.0403	-0.3114	
-0.975512	0.10065	0.200934	-1.05	-0.28	3.5	0.3726	-0.0448	-0.3128	
-0.984174	0.100528	0.201788	0.28	1.89	4.27	0.3668	-0.0417	-0.3158	
-0.977952	0.100772	0.189466	1.26	1.54	5.11	0.3667	-0.0372	-0.305	
-0.971364	0.10126	0.190686	1.33	1.82	5.67	0.3682	-0.0402	-0.3127	
-0.97844	0.105164	0.193004	1.68	2.1	6.23	0.3784	-0.0479	-0.3066	
-0.97783	0.113216	0.192394	1.4	3.01	6.93	0.3755	-0.0372	-0.3205	
-0.979538	0.121268	0.184952	0.91	3.08	7.28	0.3769	-0.0448	-0.3082	
-0.986736	0.127612	0.186172	0.21	4.62	7.28	0.3769	-0.0463	-0.3112	
-0.985638	0.128222	0.182634	-0.07	5.25	7.35	0.3712	-0.0463	-0.3127	
-0.986858	0.138592	0.178608	0.28	5.25	7.77	0.3812	-0.0524	-0.302	
-0.982466	0.146888	0.17019	0.35	4.97	8.26	0.3726	-0.0599	-0.305	
-0.990152	0.154208	0.169092	-0.84	5.88	8.75	0.3726	-0.0554	-0.3065	
-0.990274	0.16348	0.167018	-0.7	4.9	9.17	0.3754	-0.0433	-0.3082	
-0.9943	0.169092	0.163114	-0.77	5.74	9.31	0.3784	-0.0509	-0.3097	
-0.988932	0.173728	0.157746	-0.77	5.6	9.31	0.3668	-0.0478	-0.3111	
-0.983198	0.18239	0.15311	-0.07	5.39	9.1	0.3755	-0.0539	-0.3081	
-0.974414	0.188734	0.160796	0.49	4.62	8.75	0.3669	-0.0645	-0.3034	
-0.97173	0.18971	0.160796	-0.42	4.9	8.68	0.3755	-0.0509	-0.3097	
-0.973316	0.188368	0.157746	-0.77	5.53	8.89	0.3771	-0.0675	-0.3127	
-0.975756	0.197152	0.157014	0	4.9	9.38	0.377	-0.063	-0.3066	
-0.97356	0.20435	0.16287	0.14	4.55	9.66	0.3813	-0.0585	-0.3082	
-0.970754	0.202154	0.162016	-0.28	4.62	9.73	0.3769	-0.06	-0.2989	
-0.969168	0.197518	0.15982	-0.21	5.39	9.87	0.377	-0.063	-0.3066	
-0.968436	0.20191	0.163358	0.42	5.81	10.01	0.3741	-0.0645	-0.305	
-0.973438	0.202642	0.158112	0.07	6.93	9.66	0.3785	-0.0752	-0.3019	
-0.979904	0.201544	0.154208	-0.07	7.56	9.17	0.3785	-0.0797	-0.3019	
-0.988444	0.20679	0.143106	0.14	7.84	8.26	0.3813	-0.0692	-0.2958	
-0.989542	0.21167	0.132248	-0.21	7.77	7.21	0.3799	-0.0752	-0.2988	
-0.987468	0.211914	0.122	-1.75	6.44	6.09	0.3829	-0.0797	-0.3065	
-0.992958	0.210084	0.116632	-2.66	6.02	5.11	0.3871	-0.0692	-0.2974	
-0.995642	0.208986	0.112972	-2.52	5.11	4.2	0.3756	-0.0751	-0.3034	
-0.990274	0.214354	0.112118	-2.52	3.71	3.57	0.3798	-0.0752	-0.2911	
-0.980392	0.216794	0.116998	-2.94	2.8	3.36	0.3958	-0.0784	-0.2913	
-0.977952	0.224968	0.115412	-2.87	1.75	3.85	0.3799	-0.0707	-0.2958	
-0.975268	0.22997	0.119926	-2.59	1.19	4.62	0.3871	-0.0753	-0.2927	
-0.97417	0.232898	0.128222	-2.66	1.19	5.25	0.3842	-0.0783	-0.2927	
-0.973194	0.23668	0.137982	-2.66	2.1	5.46	0.3798	-0.07979999	-0.288	
-0.969412	0.234484	0.142374	-2.66	3.64	4.9	0.3741	-0.0812	-0.2941	
-0.972096	0.227774	0.138348	-1.96	4.48	4.27	0.39	-0.0707	-0.2974	
-0.977098	0.220942	0.135298	-0.7	4.27	3.85	0.3856	-0.0738	-0.2896	
-0.98088	0.217892	0.13237	0	4.48	3.57	0.3843	-0.0813	-0.2958	
-0.978318	0.212402	0.12322	-0.07	3.92	3.57	0.3842	-0.07979999	-0.2896	
-0.978684	0.20923	0.12139	0.35	3.22	3.36	0.3827	-0.0829	-0.2834	
-0.980636	0.21228	0.119438	1.33	2.8	2.94	0.387	-0.0753	-0.2819	
-0.979416	0.21899	0.116754	2.03	2.38	2.31	0.3813	-0.0768	-0.2896	
-0.981734	0.224602	0.116022	1.96	1.96	1.68	0.3842	-0.0828	-0.2911	
-0.98515	0.227896	0.110166	2.31	2.17	1.33	0.3842	-0.0828	-0.2911	
-0.99308	0.228994	0.112728	2.94	1.12	0.7	0.3813	-0.0768	-0.288	
-0.98698	0.22936	0.102846	2.52	0.42	0.7	0.3771	-0.0828	-0.2972	
-0.978196	0.230458	0.109556	1.54	0	0.63	0.3785	-0.0828	-0.2957	
-0.973804	0.230214	0.11346	1.05	0.7	0.07	0.3856	-0.0783	-0.285	
-0.972584	0.231922	0.11468	1.12	-0.07	-0.07	0.3873	-0.0858	-0.305	
-0.973072	0.238022	0.117364	0.49	-0.7	-0.14	0.3828	-0.0828	-0.2911	
-0.972218	0.235948	0.123098	-0.07	-0.49	-0.42	0.3798	-0.07669999	-0.2896	
-0.972828	0.235216	0.120048	-0.07	-0.42	-0.84	0.3871	-0.0768	-0.2912	
-0.974292	0.236924	0.123708	0.49	-0.14	-1.12	0.3842	-0.07979999	-0.2911	
-0.970754	0.235216	0.12444	-0.14	-0.21	-1.12	0.3827	-0.0859	-0.2849	
-0.972828	0.233264	0.122854	-0.35	0.28	-1.05	0.3828	-0.07979999	-0.2942	
-0.978074	0.23058	0.120658	-0.14	0.7	-1.12	0.3884	-0.0769	-0.2804	
-0.980026	0.230214	0.11834	0.49	0.42	-1.19	0.3827	-0.0859	-0.2849	
-0.98027	0.223626	0.118462	0.77	0.49	-1.33	0.3827	-0.0844	-0.2849	
-0.978074	0.22387	0.113582	1.33	0.28	-1.54	0.3842	-0.0813	-0.2927	
-0.976732	0.227286	0.118828	1.54	0.35	-1.89	0.377	-0.0828	-0.2926	
-0.979172	0.227896	0.114802	1.47	0.49	-2.17	0.3856	-0.0707	-0.2912	
-0.981368	0.227042	0.115412	1.75	0.49	-2.31	0.3798	-0.0768	-0.2834	
-0.979782	0.22631	0.109434	1.68	0.56	-2.45	0.3856	-0.0783	-0.2881	
-0.981002	0.224968	0.108702	1.47	0.14	-2.52	0.3871	-0.0753	-0.2927	
-0.981124	0.22204	0.114924	1.12	0.35	-2.94	0.3798	-0.0813	-0.2849	
-0.976122	0.222162	0.110166	1.12	-0.14	-3.29	0.3785	-0.0782	-0.2957	
-0.978562	0.222162	0.115046	1.33	-0.35	-3.29	0.3871	-0.07979999	-0.2912	
-0.980514	0.221918	0.11651	0.91	-0.21	-3.43	0.3755	-0.07979999	-0.288	
-0.98271	0.222528	0.113582	1.05	0.28	-3.64	0.3785	-0.0813	-0.2942	
-0.982832	0.221918	0.115168	1.19	-0.35	-3.71	0.3929	-0.0784	-0.2912	
-0.987346	0.219722	0.113948	1.4	-0.28	-3.85	0.3784	-0.0722	-0.2911	
-0.978562	0.217282	0.113948	1.26	-1.05	-3.78	0.3914	-0.0814	-0.2835	
-0.979782	0.217526	0.11773	1.19	-0.28	-3.99	0.3841	-0.0722	-0.2865	
-0.978684	0.217648	0.116144	1.26	-0.56	-4.13	0.3885	-0.0738	-0.2897	
-0.97905	0.217038	0.111508	1.26	-0.56	-4.34	0.3871	-0.0738	-0.2912	
-0.9821	0.213256	0.111752	1.33	-2.03	-4.2	0.3798	-0.0783	-0.2849	
-0.99125	0.208864	0.114924	1.33	-0.91	-4.13	0.3871	-0.0844	-0.2927	
-0.979416	0.208864	0.111386	1.26	-1.96	-4.06	0.3841	-0.0753	-0.2881	
-0.983808	0.207156	0.118218	1.33	-1.19	-4.2	0.377	-0.0737	-0.2973	
-0.981612	0.203618	0.120658	1.4	-1.12	-4.13	0.387	-0.0707	-0.2866	
-0.987956	0.203374	0.124074	1.61	-0.35	-3.92	0.3827	-0.0692	-0.2896	
-0.987346	0.201788	0.12017	1.12	-0.21	-3.78	0.3856	-0.0707	-0.2927	
-0.990518	0.196786	0.117242	1.26	-1.19	-3.71	0.3784	-0.0813	-0.2895	
-0.98027	0.18971	0.110166	1.61	-0.84	-4.06	0.3855	-0.0708	-0.2789	
-0.977464	0.18605	0.113094	2.24	-2.59	-4.34	0.3898	-0.0617	-0.2836	
-0.978196	0.19093	0.119682	2.1	-1.82	-4.62	0.3842	-0.0737	-0.2927	
-0.97905	0.1952	0.121634	2.03	-2.1	-4.83	0.3855	-0.0677	-0.285	
-0.987224	0.198006	0.127124	1.75	-1.26	-4.83	0.3784	-0.07669999	-0.2942	
-0.98698	0.196298	0.121756	1.54	-1.54	-4.76	0.3813	-0.0661	-0.3004	
-0.983808	0.19825	0.116632	1.54	-2.31	-4.62	0.3826	-0.0631	-0.2912	
-0.986126	0.19703	0.11895	1.4	-1.26	-4.69	0.3899	-0.0632	-0.2913	
-0.984052	0.191296	0.119072	1.54	-2.31	-4.62	0.3799	-0.0691	-0.2988	
-0.995886	0.186172	0.118706	1.96	-0.84	-4.83	0.3899	-0.0616	-0.2928	
-0.998692	0.18666	0.118706	2.45	-1.26	-4.76	0.3812	-0.0753	-0.2834	
-0.99308	0.185684	0.115534	3.36	-2.03	-4.83	0.3769	-0.0646	-0.2973	
-0.984662	0.185562	0.115656	3.71	-3.01	-4.69	0.3813	-0.0722	-0.2942	
-0.98393	0.183	0.118828	3.36	-2.52	-4.9	0.3784	-0.0768	-0.2865	
-0.974658	0.177022	0.118828	3.08	-4.13	-4.9	0.3769	-0.0616	-0.2927	
-0.986736	0.179096	0.127002	3.15	-2.03	-5.25	0.39	-0.0616	-0.3021	
-0.988566	0.17812	0.133224	3.15	-2.1	-5.39	0.3898	-0.0647	-0.2851	
-0.986248	0.180072	0.132614	3.15	-2.38	-5.53	0.3842	-0.0707	-0.2973	
-0.982832	0.179096	0.133468	3.08	-2.87	-5.46	0.3812	-0.0631	-0.2912	
-0.986492	0.178608	0.130174	2.59	-3.01	-5.46	0.3783	-0.0676	-0.2896	
-0.994056	0.176656	0.134932	2.03	0.14	-5.6	0.3769	-0.0646	-0.2958	
-0.987956	0.175558	0.126758	1.47	-1.61	-5.46	0.3855	-0.0586	-0.2882	
-0.989298	0.172996	0.122976	1.75	-3.22	-5.32	0.3886	-0.0661	-0.302	
-0.990396	0.170556	0.12444	1.68	-3.22	-5.46	0.3956	-0.0663	-0.2836	
-1.003816	0.170312	0.134932	1.61	-0.91	-6.23	0.3856	-0.0631	-0.2943	
-0.990762	0.169702	0.135054	1.47	-2.73	-6.51	0.3855	-0.0571	-0.2913	
-0.98576	0.166896	0.13237	0.91	-2.8	-6.72	0.3855	-0.0601	-0.2943	
-0.975024	0.163236	0.12627	0.91	-3.43	-6.65	0.3796	-0.0571	-0.2819	
-0.983808	0.168116	0.138592	0.84	-4.34	-6.58	0.3856	-0.0616	-0.2959	
-0.998082	0.169092	0.150914	0	-0.84	-6.93	0.3812	-0.0601	-0.2958	
-0.994788	0.169336	0.142496	0.21	-2.45	-7.42	0.3899	-0.0556	-0.2975	
-0.997838	0.163968	0.132248	0	-1.89	-7.91	0.387	-0.0555	-0.299	
-0.997106	0.160064	0.134566	-0.49	-1.19	-8.75	0.3856	-0.057	-0.3036	
-0.9882	0.159088	0.137006	-1.33	-1.68	-9.8	0.3884	-0.054	-0.2944	
-0.981246	0.161894	0.136884	-2.38	-0.14	-10.57	0.3812	-0.0449	-0.3051	
-0.99369	0.164944	0.132248	-1.89	-1.05	-11.06	0.3812	-0.0586	-0.2927	
-0.99979	0.159576	0.134444	-1.96	-0.35	-11.27	0.3768	-0.0464	-0.2943	
-1.001132	0.14823	0.13664	-2.03	0.84	-11.41	0.384	-0.0419	-0.3006	
-1.004548	0.132614	0.127124	-2.31	2.94	-12.6	0.3826	-0.0419	-0.299	
-1.002474	0.119926	0.123098	-1.96	2.31	-13.86	0.3883	-0.0298	-0.2991	
-1.003206	0.10553	0.114314	-0.28	1.19	-14.42	0.3883	-0.0313	-0.296	
-0.998692	0.09747799	0.127978	2.38	-0.56	-14.56	0.3883	-0.0374	-0.2975	
-0.996008	0.09272	0.137128	3.99	-2.03	-14.35	0.3897	-0.0359	-0.2883	
-0.995398	0.09028	0.1464	4.62	-1.05	-14.07	0.3869	-0.0419	-0.3006	
-0.994178	0.081618	0.14823	3.85	0.91	-14.14	0.381	-0.0343	-0.2959	
-0.996984	0.069052	0.147132	3.92	1.96	-13.79	0.3926	-0.0222	-0.3007	
-0.996618	0.054412	0.143228	2.8	3.22	-13.79	0.3869	-0.0373	-0.3021	
-0.999668	0.053802	0.131516	4.2	3.15	-13.72	0.3869	-0.0328	-0.3022	
-1.000034	0.06039	0.132736	6.37	2.31	-14.42	0.3897	-0.0161	-0.3038	
-0.999302	0.060268	0.137616	6.65	-0.21	-15.47	0.3897	-0.0298	-0.2991	
-1.002352	0.053436	0.136274	6.3	0.07	-16.31	0.3881	-0.0192	-0.2915	
-1.005524	0.038308	0.138592	5.74	1.05	-16.17	0.378	-0.0176	-0.2914	
-0.999424	0.033184	0.1342	4.69	1.47	-15.26	0.394	-0.0223	-0.293	
-0.989664	0.037576	0.133102	4.27	2.17	-14.49	0.4013	-0.0253	-0.3008	
-0.986736	0.049898	0.140178	3.64	3.01	-13.79	0.3925	-0.0131	-0.2961	
-0.999424	0.043554	0.125904	3.5	4.76	-13.79	0.3838	-0.01	-0.2976	
-1.011624	0.031842	0.137738	2.03	4.55	-13.93	0.3911	-0.0116	-0.3008	
-1.015406	0.016348	0.13359	0.07	4.69	-14.21	0.3909	-0.0071	-0.2854	
-1.006866	0.003782	0.136152	0.21	4.2	-13.93	0.3882	-0.0207	-0.2961	
-0.999546	-0.002806	0.133712	1.96	4.76	-13.09	0.3868	-0.0161	-0.3038	
-0.997228	-0.003294	0.120292	3.85	5.67	-11.97	0.3952	-0.0011	-0.2885	
-1.002596	0.00488	0.10492	4.13	5.39	-10.78	0.3911	-0.0101	-0.3023	
-1.011136	0.01586	0.107238	3.78	4.2	-10.08	0.3951	0.0064	-0.2839	
-1.017724	0.020862	0.101504	1.89	4.34	-10.43	0.4011	0.0003	-0.2963	
-1.0126	0.01098	0.110654	0.98	5.39	-11.06	0.3967	-0.0102	-0.287	
-1.002108	-0.002806	0.109556	0.91	5.46	-11.48	0.3937	0.0034	-0.287	
-0.996862	-0.012444	0.114436	1.33	7.21	-11.76	0.3909	0.0034	-0.2916	
-0.994056	-0.014884	0.116388	1.26	7.28	-11.06	0.3924	-0.0025	-0.2916	
-1.000522	-0.03172	0.11346	0.28	6.86	-10.22	0.3967	-0.0011	-0.2901	
-1.002596	-0.0427	0.11468	-0.49	6.65	-9.38	0.4023	0.0094	-0.2856	
-1.001376	-0.047336	0.108458	-0.28	5.81	-8.68	0.3966	0.0049	-0.2886	
-1.003694	-0.047458	0.110654	0	4.76	-7.98	0.3965	0.017	-0.2855	
-1.002596	-0.047702	0.112118	1.05	4.48	-7.42	0.3879	0.014	-0.287	
-0.993202	-0.04087	0.097112	2.1	3.43	-7.14	0.3965	0.0094	-0.2793	
-1.000522	-0.02928	0.09747799	2.52	4.27	-7.63	0.3965	0.0109	-0.2793	
-1.015772	-0.030622	0.089304	1.82	3.08	-7.77	0.4037	0.0185	-0.2825	
-1.028094	-0.032574	0.088328	1.26	5.11	-8.26	0.4081	0.0124	-0.2872	
-1.019676	-0.031476	0.083082	1.68	3.99	-7.77	0.4022	0.0199	-0.2748	
-1.009916	-0.033062	0.072956	2.31	4.27	-7	0.4051	0.0124	-0.2779	
-1.006378	-0.033184	0.072712	2.45	3.08	-5.53	0.4051	0.0169	-0.2764	
-1.01382	-0.031964	0.071004	1.96	1.96	-3.99	0.408	0.0154	-0.2826	
-1.018334	-0.037698	0.07015	1.33	2.52	-3.22	0.3978	0.0291	-0.2779	
-1.020164	-0.037942	0.07625	1.61	1.61	-2.45	0.3992	0.0199	-0.2671	
-1.016626	-0.044896	0.070394	1.61	1.68	-2.45	0.4081	0.0154	-0.2872	
-1.0126	-0.049166	0.072956	2.31	1.33	-2.8	0.3993	0.0154	-0.2701	
-1.008696	-0.05185	0.072224	2.66	0.63	-2.8	0.4007	0.0215	-0.2764	
-0.998814	-0.049044	0.077958	2.87	0.35	-2.24	0.4022	0.0154	-0.2733	
-1.000156	-0.05124	0.082472	2.52	-0.49	-1.61	0.4021	0.0108	-0.2671	
-1.001742	-0.054046	0.086376	2.03	-0.91	-1.12	0.398	0.0109	-0.2855	
-1.003084	-0.060146	0.09516	0.98	-0.63	-0.7	0.4036	0.023	-0.2795	
-0.998936	-0.060756	0.09516	0.49	-1.61	-0.49	0.4008	0.0245	-0.2825	
-0.997106	-0.054778	0.088694	0.63	-1.19	-0.56	0.3965	0.02	-0.284	
-1.002474	-0.055754	0.090402	0.7	-1.75	-0.21	0.4094	0.0138	-0.2764	
-1.003816	-0.057096	0.091134	0.63	-0.63	0.21	0.3992	0.023	-0.2671	
-1.006378	-0.05551	0.092354	0.42	-1.47	0.77	0.3993	0.02	-0.2763	
-1.007232	-0.056974	0.096258	-0.14	-0.56	0.56	0.4023	0.0078	-0.2763	
-1.00589	-0.057218	0.09552599	0.14	-0.84	0.49	0.4008	0.0109	-0.2825	
-1.00589	-0.047458	0.09089	-0.21	0	0.7	0.3937	0.0064	-0.2839	
-1.005036	-0.04392	0.08113	-0.49	0.84	1.26	0.395	0.0109	-0.2778	
-1.008086	-0.04575	0.082106	-0.7	0.21	2.1	0.4022	0.023	-0.2856	
-1.005036	-0.047092	0.086742	-1.47	0.91	2.87	0.395	0.0079	-0.2747	
-1.00711	-0.049166	0.083204	-1.33	0.7	3.36	0.4008	0.0063	-0.2717	
-1.006378	-0.0488	0.084668	-1.33	1.05	3.5	0.3993	0.0215	-0.2779	
-1.007232	-0.051484	0.082716	-1.4	0.56	3.78	0.3994	0.017	-0.2825	
-1.006012	-0.055266	0.07991	-1.26	0.28	4.2	0.4008	0.0124	-0.2763	
-1.00711	-0.054778	0.087474	0	-0.21	4.76	0.4037	0.0078	-0.2809	
-1.007598	-0.050142	0.0854	0.63	-0.14	5.46	0.3994	0.0109	-0.2778	
-1.006134	-0.045384	0.082716	1.05	-0.56	6.02	0.4008	0.0154	-0.2794	
-1.00955	-0.042822	0.08418	0.84	-0.84	6.37	0.405	0.0138	-0.2702	
-1.004548	-0.040382	0.08357	0.14	-1.89	6.58	0.4007	0.0078	-0.2686	
-1.003572	-0.031354	0.088206	-0.56	-2.45	6.79	0.4023	0.0078	-0.2809	
-1.002596	-0.02257	0.08845	-1.19	-2.66	7.28	0.4052	0.017	-0.2903	
-1.00101	-0.024644	0.098942	-1.05	-2.87	7.84	0.4037	0.0017	-0.2763	
-1.001132	-0.025498	0.105652	-0.98	-2.87	8.33	0.3981	0.0003	-0.2901	
-1.007476	-0.023546	0.09357399	-1.89	-1.47	8.54	0.3995	-0.0026	-0.2809	
-1.002352	-0.010492	0.091988	-2.45	-2.24	9.31	0.3893	0.0064	-0.2777	
-0.999546	-0.008174	0.094428	-2.38	-2.17	9.73	0.4052	0.0048	-0.2825	
-1.000644	-0.009028	0.099918	-1.54	-0.98	10.29	0.4067	-0.0012	-0.2825	
-1.000156	-0.006588	0.086986	-1.68	-1.19	10.99	0.4024	-0.0118	-0.2793	
-1.004304	-0.005368	0.092232	-2.73	-2.24	11.55	0.3937	-0.0087	-0.2761	
-1.009794	-0.005978	0.090036	-3.92	-2.8	12.32	0.4009	-0.0027	-0.2732	
-1.011624	-0.005246	0.09821	-4.76	-3.29	12.74	0.4068	-0.0057	-0.2855	
-1.004426	-0.002196	0.101748	-4.2	-3.85	12.74	0.4038	-0.0088	-0.2762	
-0.999546	0.001098	0.101626	-3.43	-3.92	12.67	0.3995	-0.0042	-0.2809	
-0.995032	0.008662	0.113094	-2.59	-4.34	12.74	0.3939	-0.0192	-0.2884	
-0.996496	0.020252	0.11773	-1.61	-3.64	12.6	0.4039	-0.0194	-0.2808	
-1.000034	0.028182	0.120414	-0.91	-2.73	12.39	0.414	-0.0058	-0.2841	
-1.006256	0.0305	0.118096	-0.77	-1.19	12.04	0.3952	-0.0071	-0.2839	
-1.010892	0.031598	0.111386	-0.7	-0.56	11.97	0.3953	-0.0238	-0.2838	
-1.013332	0.040138	0.106872	-0.42	-0.7	12.18	0.3924	-0.0208	-0.2838	
-1.01565	0.050752	0.098942	-0.98	-0.84	12.46	0.3881	-0.0238	-0.2884	
-1.01382	0.056974	0.089426	-2.38	-1.05	12.67	0.4011	-0.0208	-0.2854	
-1.008208	0.061732	0.088206	-3.43	-2.38	12.88	0.4056	-0.0284	-0.2947	
-1.005524	0.068808	0.090524	-4.34	-2.73	12.46	0.3938	-0.008599999	-0.2885	
-1.008452	0.069052	0.094062	-5.04	-2.87	11.97	0.3837	-0.0116	-0.2899	
-1.010404	0.065026	0.105164	-5.6	-2.52	11.41	0.4025	-0.0148	-0.287	
-1.011746	0.05856	0.112362	-5.18	-1.68	11.06	0.3882	-0.0268	-0.2945	
-1.00955	0.054656	0.105408	-4.69	-1.26	11.06	0.4012	-0.0253	-0.2931	
-1.010648	0.057584	0.106994	-4.2	-2.38	11.2	0.3882	-0.0283	-0.293	
-1.01138	0.067954	0.109068	-4.34	-2.1	11.13	0.3983	-0.0253	-0.2962	
-1.011136	0.07564	0.104432	-5.32	-2.38	10.99	0.3881	-0.0222	-0.2884	
-1.004426	0.081862	0.106018	-5.46	-2.8	11.55	0.3868	-0.0359	-0.2883	
-1.00284	0.085034	0.115412	-4.97	-3.5	11.83	0.3896	-0.0329	-0.2883	
-1.004182	0.088084	0.123098	-4.13	-3.01	11.55	0.3896	-0.0237	-0.293	
-0.99979	0.08967	0.127734	-3.99	-2.38	11.2	0.3954	-0.0299	-0.2869	
-0.993568	0.10004	0.131882	-2.17	-1.68	10.99	0.3955	-0.039	-0.2868	
-0.996374	0.11956	0.12505	0.77	0.49	10.15	0.3911	-0.045	-0.2837	
-0.994666	0.137616	0.118828	1.96	1.96	9.24	0.394	-0.0329	-0.2853	
-0.9943	0.151158	0.116876	1.54	3.5	8.61	0.3897	-0.0404	-0.2914	
-0.99308	0.154208	0.112484	0.07	4.55	8.47	0.3925	-0.0451	-0.276	
-0.99003	0.146644	0.11407	-1.75	5.81	9.03	0.3897	-0.0435	-0.2914	
-0.998082	0.137006	0.106384	-4.13	5.74	9.73	0.394	-0.0451	-0.2806	
-1.001254	0.124318	0.102724	-5.95	5.04	10.5	0.3969	-0.042	-0.2806	
-1.001132	0.115534	0.11102	-6.44	3.64	11.2	0.3897	-0.048	-0.2867	
-1.004426	0.113216	0.110288	-5.95	4.13	11.69	0.3883	-0.0526	-0.2867	
-1.004182	0.11834	0.107848	-4.55	4.34	11.62	0.394	-0.0496	-0.2775	
-1.001498	0.122854	0.10248	-2.87	4.41	11.48	0.4099	-0.0497	-0.2823	
-0.997716	0.135054	0.110044	-2.17	3.71	11.41	0.3954	-0.0588	-0.2667	
-0.991006	0.143594	0.1098	-1.68	4.06	11.06	0.3968	-0.0481	-0.2714	
-0.990396	0.158112	0.110044	-1.61	4.06	11.06	0.3853	-0.0465	-0.2805	
-0.993934	0.165066	0.102846	-0.7	4.2	11.34	0.3955	-0.0511	-0.2837	
-0.991982	0.16653	0.09699	-1.4	4.55	11.48	0.3984	-0.0542	-0.2852	
-0.992958	0.166286	0.093086	-2.8	4.83	12.04	0.3925	-0.0496	-0.2744	
-0.994666	0.166652	0.102724	-3.43	3.99	13.16	0.3999	-0.0648	-0.2821	
-0.997106	0.169702	0.095282	-2.66	4.48	14.42	0.3885	-0.07229999	-0.2881	
-1.000034	0.174948	0.091134	-3.43	4.34	15.05	0.387	-0.0662	-0.2866	
-0.999058	0.178486	0.084302	-4.27	4.62	15.05	0.3941	-0.0693	-0.2774	
-1.00345	0.17568	0.088572	-5.32	4.69	14.91	0.3999	-0.0648	-0.2837	
-1.00162	0.17324	0.088938	-5.04	5.6	15.12	0.3912	-0.0648	-0.2789	
-0.998082	0.178608	0.089914	-4.2	6.23	15.68	0.3941	-0.077	-0.265	
-0.99613	0.191174	0.087718	-3.43	7.42	16.03	0.3956	-0.0633	-0.2805	
-0.991372	0.209596	0.089914	-2.66	7.63	15.82	0.3956	-0.0663	-0.2805	
-0.986858	0.224114	0.083692	-2.17	8.19	15.05	0.3883	-0.0784	-0.2696	
-0.986736	0.22997	0.071614	-3.01	8.4	14.42	0.3927	-0.0708	-0.2759	
-0.996008	0.232898	0.06344	-4.41	7.98	14	0.3941	-0.08	-0.2666	
-0.992104	0.236924	0.064904	-5.04	6.65	14.07	0.3928	-0.0829	-0.2804	
-0.991372	0.242536	0.07124799	-4.76	5.6	14	0.3984	-0.0739	-0.2682	
-0.979416	0.245952	0.065758	-3.85	4.9	13.86	0.3912	-0.0815	-0.2665	
-0.97966	0.257298	0.05795	-3.5	5.88	13.51	0.3911	-0.0724	-0.265	
-0.978562	0.264374	0.061366	-3.57	5.39	13.44	0.3942	-0.09209999	-0.265	
-0.979416	0.267668	0.065758	-3.5	5.25	13.51	0.3898	-0.08899999	-0.268	
-0.978074	0.27267	0.064294	-3.57	4.97	13.79	0.3913	-0.0967	-0.2634	
-0.990884	0.271816	0.047458	-2.87	5.25	14	0.3986	-0.0982	-0.2696	
-0.984662	0.26596	0.051972	-2.94	3.57	15.33	0.3913	-0.0997	-0.2603	
-0.995154	0.263764	0.053192	-1.61	2.94	16.66	0.3928	-0.1027	-0.2603	
-0.983442	0.280112	0.053802	-1.19	2.94	17.43	0.3826	-0.0981	-0.2618	
-0.969656	0.286212	0.049288	-1.61	2.87	16.87	0.3942	-0.1073	-0.2618	
-0.965508	0.286456	0.048922	-1.26	3.08	15.33	0.393	-0.1209	-0.2695	
-0.962214	0.293654	0.04636	-0.84	2.73	13.65	0.3942	-0.1028	-0.2572	
-0.958676	0.293044	0.058316	-0.7	1.75	12.67	0.3972	-0.1073	-0.2634	
-0.958066	0.299266	0.057828	-0.56	1.75	11.9	0.3885	-0.1148	-0.2602	
-0.963434	0.314028	0.065148	0.07	1.26	11.62	0.3943	-0.1073	-0.268	
-0.965508	0.321958	0.06283	0.07	2.8	11.2	0.3942	-0.1104	-0.2557	
-0.953918	0.327204	0.05978	-0.49	1.19	10.43	0.3885	-0.1118	-0.2633	
-0.948428	0.331474	0.05856	-0.7	1.33	10.01	0.3841	-0.1133	-0.2602	
-0.947208	0.3355	0.051972	-0.77	1.26	8.4	0.3884	-0.1103	-0.2556	
-0.94245	0.33184	0.049776	-0.98	-0.07	7.42	0.39	-0.1179	-0.2602	
-0.943304	0.328302	0.05124	-0.56	-0.07	6.58	0.3856	-0.1148	-0.2602	
-0.945866	0.32818	0.050386	-0.21	-1.12	5.6	0.3957	-0.1195	-0.2587	
-0.946232	0.3294	0.052094	-0.07	-1.19	4.83	0.3928	-0.1195	-0.2541	
-0.94611	0.338672	0.05612	0.56	-1.33	3.99	0.3871	-0.1224	-0.2632	
-0.950624	0.350506	0.054656	0.98	-0.84	3.08	0.3915	-0.1331	-0.2601	
-0.949282	0.348066	0.05612	0.35	-0.42	2.38	0.3871	-0.1209	-0.2632	
-0.94611	0.343552	0.05002	-0.35	-1.19	1.82	0.393	-0.1194	-0.2695	
-0.953674	0.345016	0.057828	-0.21	-1.05	1.54	0.39	-0.1194	-0.2664	
-0.948428	0.346846	0.05734	-0.28	-1.54	0.91	0.3856	-0.1118	-0.2586	
-0.945256	0.340868	0.061	-0.35	-2.17	0.35	0.39	-0.1194	-0.2648	
-0.945378	0.334158	0.058316	-0.14	-0.91	-0.42	0.3799	-0.1208	-0.2601	
-0.944036	0.336476	0.059536	0.28	-2.31	-1.05	0.3857	-0.1224	-0.2617	
-0.944036	0.337452	0.059902	0.42	-0.98	-1.61	0.3842	-0.1178	-0.2632	
-0.949526	0.339282	0.059536	0.63	-1.54	-1.54	0.3885	-0.1164	-0.2602	
-0.953308	0.338428	0.060268	0.21	-1.54	-1.68	0.3814	-0.1193	-0.2663	
-0.951844	0.333426	0.065148	0	-1.47	-1.96	0.3885	-0.1209	-0.2602	
-0.952698	0.332206	0.06405	0.14	-1.26	-2.24	0.3827	-0.1178	-0.2586	
-0.954162	0.32879	0.062464	0.35	-1.26	-2.8	0.3842	-0.1254	-0.2601	
-0.955382	0.329644	0.064294	0.42	-0.98	-3.15	0.3871	-0.127	-0.2586	
-0.954284	0.329766	0.063562	0.28	-0.98	-3.5	0.3857	-0.1194	-0.2648	
-0.954162	0.32818	0.063318	0.07	-0.91	-3.78	0.3826	-0.1057	-0.2586	
-0.952698	0.326228	0.062342	0.21	-1.19	-3.92	0.3914	-0.1164	-0.2571	
-0.956602	0.326228	0.06405	0.07	-0.77	-4.13	0.3828	-0.1163	-0.2648	
-0.95831	0.323422	0.061244	0.14	-0.7	-4.27	0.39	-0.1164	-0.2602	
-0.957944	0.321348	0.064172	0.21	-0.84	-4.48	0.3799	-0.1147	-0.2678	
-0.95282	0.324154	0.066978	0.35	-1.05	-4.76	0.3828	-0.1239	-0.2632	
-0.9516	0.327204	0.064294	0.63	-0.98	-4.9	0.3929	-0.1255	-0.2602	
-0.95404	0.323056	0.064416	0.49	-0.84	-4.97	0.3828	-0.1132	-0.2709	
-0.95648	0.314028	0.065758	0.56	-1.05	-5.11	0.3886	-0.1209	-0.2617	
-0.961116	0.313418	0.06734399	1.05	-1.19	-5.32	0.3842	-0.1087	-0.2663	
-0.960994	0.313052	0.063196	1.26	-0.98	-5.6	0.3959	-0.1179	-0.271	
-0.965386	0.308416	0.063684	0.98	-0.77	-5.81	0.3785	-0.1132	-0.2693	
-0.967094	0.308782	0.060024	1.61	-1.12	-5.74	0.39	-0.1103	-0.2695	
-0.967216	0.305976	0.06344	0.98	-1.4	-5.6	0.3828	-0.1041	-0.2741	
-0.96624	0.300364	0.064294	0.07	-1.33	-5.67	0.387	-0.0936	-0.268	
-0.96319	0.29585	0.06954	0.49	-1.61	-5.95	0.387	-0.1103	-0.2617	
-0.961848	0.294752	0.063806	0.7	-1.4	-6.3	0.3943	-0.1027	-0.2711	
-0.96258	0.291214	0.069784	1.26	-1.54	-6.72	0.3902	-0.1193	-0.2787	
-0.961726	0.289628	0.060512	1.96	-2.45	-7	0.3812	-0.1072	-0.2632	
-0.963312	0.284748	0.06588	2.59	-3.01	-7.63	0.3914	-0.1012	-0.268	
-0.960506	0.28609	0.06771	3.36	-4.13	-8.33	0.3884	-0.0997	-0.2649	
-0.961238	0.292678	0.077226	3.99	-3.5	-9.59	0.3928	-0.1043	-0.2603	
-0.961482	0.294996	0.076128	3.99	-3.29	-10.64	0.3971	-0.0982	-0.2665	
-0.960506	0.298046	0.065758	4.06	-3.71	-11.41	0.3899	-0.1027	-0.268	
-0.970266	0.299266	0.064538	4.48	-4.34	-11.69	0.4	-0.1013	-0.2604	
-0.973194	0.296582	0.06466	4.48	-4.69	-11.76	0.3957	-0.1103	-0.2634	
-0.973682	0.286822	0.069662	4.48	-5.39	-11.62	0.3899	-0.08899999	-0.2727	
-0.96929	0.279136	0.072956	4.13	-6.23	-11.48	0.3842	-0.095	-0.2787	
-0.96685	0.274134	0.08479	4.2	-4.41	-11.62	0.3913	-0.1027	-0.2618	
-0.96929	0.27572	0.089182	4.2	-4.06	-12.46	0.3855	-0.0981	-0.2602	
-0.965142	0.27267	0.071736	5.32	-3.99	-13.58	0.3987	-0.09209999	-0.2804	
-0.960262	0.267058	0.0732	6.16	-5.74	-14.42	0.3913	-0.0982	-0.2665	
-0.965508	0.259738	0.081984	6.09	-6.02	-15.26	0.387	-0.0905	-0.2695	
-0.971974	0.254858	0.091988	5.81	-6.16	-15.75	0.3841	-0.0951	-0.2649	
-0.977952	0.251686	0.091988	5.25	-5.88	-16.03	0.3812	-0.092	-0.271	
-0.983442	0.246318	0.091134	4.83	-4.83	-16.17	0.3884	-0.086	-0.2742	
-0.986248	0.239242	0.085034	4.48	-5.11	-16.24	0.3826	-0.0814	-0.2711	
-0.987834	0.228018	0.085278	3.92	-5.11	-16.52	0.387	-0.092	-0.2726	
-0.98149	0.218014	0.085644	3.64	-5.6	-17.08	0.3942	-0.0845	-0.2743	
-0.979538	0.210572	0.091378	3.57	-5.81	-17.78	0.3856	-0.08899999	-0.2803	
-0.982466	0.205692	0.100162	3.78	-6.09	-18.34	0.3812	-0.0768	-0.2803	
-0.99125	0.19703	0.102236	3.78	-6.09	-18.9	0.3855	-0.0799	-0.2773	
-0.99247	0.19093	0.1037	3.99	-5.67	-19.11	0.3899	-0.0829	-0.2819	
-0.99857	0.18605	0.101992	4.2	-5.25	-18.97	0.3927	-0.0632	-0.2821	
-1.000888	0.182268	0.098942	5.32	-4.83	-18.69	0.3883	-0.0708	-0.2758	
-1.002718	0.180438	0.10309	6.16	-3.57	-18.34	0.3869	-0.0677	-0.2804	
-0.99613	0.170434	0.101992	6.02	-3.29	-17.36	0.3883	-0.0617	-0.2805	
-0.99796	0.169336	0.096868	6.72	-3.22	-16.8	0.3956	-0.0678	-0.2836	
-0.99857	0.171166	0.102358	7	-3.36	-17.01	0.3927	-0.0632	-0.2836	
-0.999668	0.167628	0.099796	5.81	-2.66	-17.22	0.3955	-0.0663	-0.2728	
-1.003328	0.162382	0.093696	4.41	-2.17	-17.15	0.3941	-0.0587	-0.2805	
-1.008208	0.154452	0.095892	3.92	-2.52	-16.52	0.3912	-0.0602	-0.2805	
-1.010404	0.146034	0.096502	3.29	-1.75	-15.82	0.3927	-0.0556	-0.2867	
-1.009428	0.13664	0.090646	1.82	-1.12	-14.84	0.3926	-0.0557	-0.2821	
-1.010038	0.124684	0.090402	1.19	-1.05	-13.86	0.394	-0.0466	-0.2837	
-1.012234	0.10675	0.09699	-0.14	-0.07	-13.02	0.394	-0.0481	-0.2821	
-1.012112	0.08845	0.09467199	-1.4	-1.68	-12.39	0.3911	-0.0496	-0.2759	
-1.005036	0.068686	0.107848	-1.19	-2.66	-11.48	0.3824	-0.0359	-0.2852	
-0.999424	0.059658	0.11163	-0.42	-2.52	-11.06	0.3999	-0.0435	-0.2915	
-0.999302	0.058438	0.114802	0.77	-2.59	-10.92	0.4027	-0.0421	-0.2838	
-1.001376	0.062952	0.120048	1.05	-3.71	-11.13	0.3939	-0.0268	-0.2869	
-1.004548	0.066612	0.125538	1.82	-4.13	-11.06	0.3869	-0.0389	-0.2975	
-1.004182	0.072224	0.119926	3.15	-2.73	-10.78	0.4026	-0.039	-0.2823	
-0.99979	0.080764	0.125538	3.57	-2.73	-10.92	0.3868	-0.0404	-0.2929	
-0.992592	0.085888	0.119072	1.47	-2.87	-11.27	0.3954	-0.0344	-0.2822	
-0.987102	0.083692	0.132126	-0.35	-3.5	-11.69	0.3882	-0.0359	-0.2837	
-0.99064	0.084912	0.12993	-1.05	-2.8	-11.62	0.3897	-0.0268	-0.2961	
-0.992714	0.088206	0.121512	-1.54	-1.89	-12.25	0.3896	-0.0314	-0.2852	
-1.00101	0.09162199	0.122122	-0.98	-1.19	-12.53	0.3953	-0.0254	-0.2792	
-1.001742	0.086986	0.124806	-1.75	-0.42	-12.81	0.3967	-0.0269	-0.2792	
-1.002352	0.070638	0.125416	-2.17	1.47	-13.09	0.3867	-0.0237	-0.2883	
-0.998936	0.05856	0.128222	-1.12	2.52	-12.95	0.3924	-0.0147	-0.2838	
-0.998204	0.047946	0.122	-0.91	3.78	-12.67	0.3924	-0.0177	-0.29	
-0.999058	0.04209	0.117486	-0.35	3.5	-12.74	0.391	-0.0162	-0.29	
-1.001132	0.038308	0.11224	1.19	3.36	-13.09	0.3967	-0.0102	-0.2916	
-1.005768	0.032574	0.113094	2.38	2.52	-13.72	0.3924	-0.0116	-0.29	
-1.021262	0.026596	0.106262	1.19	2.94	-14.14	0.3954	-0.0238	-0.2884	
-1.025166	0.015128	0.100284	-0.21	3.5	-14.42	0.3909	-0.0101	-0.2854	
-1.021994	0.001586	0.10553	0.84	3.08	-14.28	0.3995	-0.0087	-0.2777	
-1.011746	-0.001464	0.098698	3.57	3.15	-13.79	0.3894	-0.0041	-0.2854	
-1.01199	0.002562	0.091988	4.48	4.41	-13.37	0.3981	0.0003	-0.2916	
-1.013454	0.001342	0.09394	4.27	3.85	-13.51	0.3895	-0.0056	-0.29	
-1.010038	-0.004758	0.097722	3.85	1.96	-13.72	0.4025	-0.0041	-0.2886	
-1.01077	-0.010248	0.094306	3.99	1.82	-14	0.3881	-0.0101	-0.29	
-1.008086	-0.013054	0.102724	4.13	1.68	-14.07	0.3908	0.0095	-0.2854	
-0.995154	-0.015006	0.105652	3.92	1.68	-13.86	0.3939	0.0065	-0.304	
-0.988932	-0.019154	0.106262	3.71	1.82	-13.16	0.3937	0.0018	-0.2808	
-0.99857	-0.025864	0.112606	3.78	3.99	-12.46	0.398	0.0018	-0.2855	
-1.006012	-0.033306	0.112484	3.64	4.55	-11.69	0.4024	0.0155	-0.2918	
-1.009306	-0.036844	0.102968	2.31	3.22	-11.2	0.4037	0.0154	-0.2841	
-1.007476	-0.03477	0.098698	1.54	3.5	-11.55	0.398	0.0109	-0.2855	
-1.007842	-0.031354	0.091256	1.68	3.22	-11.9	0.3964	0.017	-0.2763	
-1.013332	-0.038796	0.09162199	0.42	4.13	-12.18	0.4052	0.0124	-0.2856	
-1.009672	-0.05124	0.094428	-0.91	4.34	-11.76	0.3965	0.0124	-0.2809	
-1.01138	-0.062098	0.09394	-1.68	5.39	-10.99	0.3993	0.0185	-0.2779	
-1.005524	-0.070028	0.0915	-1.75	4.76	-9.8	0.3964	0.0155	-0.2794	
-1.001132	-0.07381	0.086376	-2.1	4.27	-9.1	0.4023	0.0094	-0.2794	
-1.001742	-0.070028	0.083082	-1.47	3.57	-8.68	0.3979	0.0215	-0.2871	
-1.001254	-0.06832	0.080764	-1.05	1.4	-8.05	0.3921	0.0231	-0.2794	
-1.006256	-0.072468	0.088694	-2.1	1.26	-7.77	0.3994	0.02	-0.2887	
-1.008818	-0.080154	0.088694	-2.1	2.1	-7.42	0.4093	0.0335	-0.2765	
-1.004792	-0.085644	0.091012	-1.19	2.73	-7.14	0.3964	0.0215	-0.2825	
-0.999424	-0.08686399	0.087718	-0.35	2.38	-6.86	0.3963	0.0276	-0.2717	
-0.998326	-0.087962	0.088084	0.7	2.03	-6.58	0.3993	0.0215	-0.2825	
-0.999912	-0.085156	0.083448	1.33	1.68	-6.72	0.4035	0.0321	-0.278	
-1.00833	-0.085034	0.0793	0.63	0.77	-7.07	0.405	0.026	-0.278	
-1.012478	-0.08784	0.088084	0.28	0.98	-7.14	0.4064	0.029	-0.2734	
-1.008818	-0.080154	0.082716	0.28	2.03	-6.86	0.3919	0.0336	-0.2686	
-0.99918	-0.072956	0.072468	0.14	1.26	-6.44	0.4035	0.0366	-0.2734	
-1.00101	-0.079178	0.08357	-0.14	1.75	-6.37	0.3978	0.0321	-0.2779	
-1.00345	-0.091378	0.08295999	-0.77	1.26	-5.53	0.4079	0.032	-0.278	
-1.002108	-0.094428	0.08479	-0.84	2.03	-4.69	0.3977	0.0352	-0.2779	
-0.999424	-0.091256	0.081862	0.21	1.61	-3.99	0.3949	0.0306	-0.2779	
-0.996618	-0.08967	0.083326	0.98	0.49	-3.71	0.402	0.0427	-0.2749	
-1.006012	-0.088572	0.081374	0.91	1.33	-3.92	0.4035	0.0351	-0.2703	
-1.011014	-0.086132	0.075884	0.84	1.12	-3.92	0.4079	0.0412	-0.2858	
-1.012234	-0.086742	0.075762	0.56	1.05	-3.71	0.4006	0.0397	-0.2811	
-1.010404	-0.09357399	0.070028	0.42	2.03	-3.43	0.4006	0.0427	-0.2749	
-1.013576	-0.0976	0.066368	0.14	2.17	-2.94	0.405	0.0412	-0.2827	
-1.013088	-0.096014	0.07198	0.28	1.19	-2.17	0.4034	0.0427	-0.2719	
-1.00345	-0.101992	0.062708	0.42	0.77	-1.68	0.402	0.0442	-0.2749	
-1.003084	-0.101138	0.069052	1.19	0.84	-1.4	0.4006	0.0336	-0.278	
-1.00467	-0.105774	0.070882	0.91	1.89	-1.05	0.3978	0.0352	-0.2841	
-1.000522	-0.111996	0.067832	0.7	0.42	-0.56	0.4004	0.0457	-0.2657	
-1.002596	-0.114558	0.0732	0.98	0.14	-0.35	0.389	0.0321	-0.2686	
-0.998204	-0.116876	0.077348	1.05	-0.84	0.42	0.4035	0.0382	-0.2811	
-1.004914	-0.116754	0.077348	0.98	-0.49	1.12	0.4005	0.0412	-0.2734	
-0.999424	-0.113338	0.087474	0.63	-1.19	1.26	0.4165	0.0395	-0.272	
-0.997472	-0.115168	0.0854	0.91	-0.84	1.61	0.4092	0.0457	-0.275	
-0.998814	-0.111142	0.080032	0.63	-0.35	1.89	0.4135	0.0517	-0.2751	
-1.000278	-0.110898	0.073444	-0.28	-0.07	2.1	0.4007	0.0291	-0.2764	
-0.999912	-0.10797	0.079788	-0.98	-0.56	2.52	0.3991	0.0458	-0.2795	
-0.999668	-0.099308	0.072956	-1.75	-1.4	3.64	0.3962	0.0397	-0.2718	
-0.99979	-0.10126	0.082106	-1.54	-1.89	3.99	0.405	0.0275	-0.2795	
-0.99674	-0.104188	0.087718	-1.33	-1.68	4.27	0.402	0.0351	-0.2703	
-1.003206	-0.101626	0.07442	-0.7	-0.21	4.83	0.4121	0.035	-0.2704	
-1.00528	-0.09516	0.073688	-0.63	-1.26	5.18	0.3947	0.0427	-0.2718	
-1.001864	-0.088572	0.077836	-0.21	-1.75	5.67	0.402	0.0412	-0.2734	
-1.002108	-0.08906	0.077958	-0.35	-1.89	6.37	0.4006	0.026	-0.2718	
-1.003206	-0.088938	0.080642	-0.49	-2.31	6.93	0.4006	0.0382	-0.2764	
-1.008818	-0.085644	0.09089	-0.91	0.07	7	0.3977	0.0382	-0.2795	
-1.00101	-0.076982	0.084546	-0.35	-1.82	7.98	0.3934	0.0367	-0.2779	
-1.001132	-0.074908	0.083692	-0.28	-1.82	8.4	0.4036	0.0321	-0.2795	
-1.00589	-0.070516	0.081252	-1.26	-0.07	9.24	0.3993	0.0245	-0.2794	
-1.00406	-0.07625	0.090524	-1.12	-1.89	10.08	0.405	0.0245	-0.278	
-1.00284	-0.074664	0.08479	-1.54	-1.68	10.71	0.405	0.0245	-0.2702	
-1.003206	-0.066734	0.079178	-2.45	-2.03	10.99	0.4007	0.026	-0.281	
-1.003328	-0.060878	0.085034	-2.45	-2.66	11.41	0.3964	0.023	-0.2809	
-1.004426	-0.060024	0.083936	-2.45	-2.73	11.9	0.4065	0.026	-0.2764	
-1.003694	-0.059902	0.08174	-2.87	-2.87	12.6	0.3994	0.0124	-0.2794	
-1.000278	-0.055876	0.091378	-3.36	-3.57	13.3	0.4007	0.0169	-0.2733	
-1.001254	-0.05246	0.086254	-3.64	-3.71	13.86	0.405	0.0214	-0.2687	
-1.004426	-0.049654	0.094184	-3.57	-4.55	14.42	0.4095	0.0184	-0.2841	
-1.004182	-0.04453	0.09577	-3.5	-4.13	14.56	0.3993	0.0154	-0.2732	
-1.006622	-0.043066	0.098332	-1.75	-3.43	14.84	0.4125	0.0063	-0.2872	
-1.007964	-0.040016	0.097844	-0.14	-2.45	15.05	0.3965	0.014	-0.2855	
-1.009184	-0.034892	0.089182	-0.21	-1.89	15.33	0.4024	0.0018	-0.2902	
-1.005524	-0.024644	0.094062	-0.42	-2.8	15.89	0.3893	0.0019	-0.2808	
-0.999546	-0.015128	0.096014	-0.42	-3.29	16.38	0.3935	0.0079	-0.2731	
-1.002474	-0.010492	0.102114	-0.7	-2.87	16.87	0.4053	-0.0042	-0.284	
-1.007598	-0.008174	0.102846	-0.35	-2.52	17.5	0.3995	0.0048	-0.284	
-1.012722	-0.00305	0.09516	-0.07	-2.45	18.34	0.401	0.0003	-0.2855	
-1.010282	0.006466	0.09272	-1.61	-3.64	19.39	0.3923	-0.0071	-0.2823	
-1.00162	0.017568	0.10004	-3.08	-5.67	20.3	0.3967	-0.0132	-0.2869	
-1.000522	0.025498	0.108824	-3.57	-4.97	20.72	0.4054	-0.0178	-0.287	
-0.998814	0.032696	0.116754	-3.5	-4.97	20.79	0.4039	-0.0148	-0.2808	
-1.001254	0.042212	0.120536	-3.22	-4.69	20.65	0.3923	-0.0132	-0.2777	
-1.00345	0.049654	0.118584	-2.87	-2.94	19.88	0.4054	-0.0118	-0.284	
-1.009062	0.058194	0.11102	-2.8	-2.66	18.97	0.4011	-0.0239	-0.2792	
-1.009672	0.069174	0.108702	-4.13	-2.52	18.34	0.3926	-0.0313	-0.2961	
-1.008086	0.073078	0.111752	-5.46	-2.1	18.06	0.3881	-0.0268	-0.2791	
-1.00101	0.07808	0.121634	-6.3	-3.01	17.99	0.3867	-0.0268	-0.2899	
-0.996374	0.085034	0.118828	-6.79	-2.8	17.57	0.3925	-0.0329	-0.2868	
-0.997594	0.0915	0.117608	-6.09	-2.59	17.15	0.3998	-0.036	-0.2884	
-1.004426	0.10187	0.126026	-4.62	-0.77	16.1	0.3882	-0.0329	-0.2852	
-1.007232	0.120658	0.11468	-4.06	1.4	15.12	0.3896	-0.0374	-0.2852	
-1.006622	0.135542	0.10065	-5.18	1.89	14.35	0.3883	-0.0435	-0.2883	
-1.001376	0.14335	0.09638	-6.02	2.87	13.65	0.3926	-0.042	-0.2852	
-0.998448	0.141764	0.093086	-6.79	2.24	13.44	0.3883	-0.0496	-0.2821	
-1.002962	0.131272	0.110776	-7.28	2.24	13.65	0.3926	-0.0465	-0.2837	
-1.004548	0.120902	0.113216	-5.88	3.99	14.07	0.394	-0.0466	-0.2806	
-1.005402	0.127368	0.104798	-3.36	5.81	14.14	0.3781	-0.051	-0.2789	
-1.002596	0.133102	0.107116	-0.98	6.44	13.37	0.3897	-0.0496	-0.2852	
-0.999668	0.133102	0.101138	0.56	6.58	13.23	0.3956	-0.0511	-0.2883	
-0.997716	0.135908	0.1037	1.12	6.09	13.37	0.3985	-0.0587	-0.2883	
-0.996008	0.138348	0.09821	1.33	5.11	14	0.3869	-0.0601	-0.2851	
-1.001132	0.139934	0.09272	0.63	4.41	15.47	0.3913	-0.0601	-0.2913	
-1.004548	0.135908	0.095038	-1.05	3.57	17.08	0.3899	-0.0647	-0.2882	
-1.006988	0.13237	0.093086	-1.89	3.57	18.55	0.3956	-0.0617	-0.2852	
-1.004182	0.14518	0.099918	-1.26	3.5	19.46	0.3985	-0.0633	-0.2806	
-1.001986	0.162016	0.105896	0.14	4.06	19.11	0.3855	-0.0677	-0.2789	
-1.000522	0.176412	0.101748	0.28	5.25	18.2	0.3911	-0.0618	-0.2713	
-0.996496	0.186416	0.094062	-0.21	5.95	17.29	0.3898	-0.0663	-0.2758	
-0.998082	0.202398	0.086498	-1.54	6.65	16.1	0.3971	-0.0769	-0.282	
-1.005036	0.2074	0.069784	-3.29	6.65	15.61	0.3898	-0.07539999	-0.2743	
-1.00894	0.210816	0.060756	-5.11	5.95	15.82	0.3913	-0.07229999	-0.282	
-0.99918	0.222894	0.065514	-5.88	5.32	15.96	0.3999	-0.07539999	-0.2744	
-0.986126	0.235704	0.072224	-5.81	5.81	15.54	0.4014	-0.0755	-0.2744	
-0.978074	0.242536	0.072468	-5.81	5.46	15.05	0.4	-0.083	-0.2743	
-0.979294	0.248758	0.074054	-5.6	5.11	14.49	0.3971	-0.0876	-0.2743	
-0.973072	0.254248	0.075396	-5.39	4.2	13.65	0.3928	-0.0951	-0.2696	
-0.960506	0.259616	0.083692	-5.6	2.52	12.39	0.4	-0.0967	-0.2619	
-0.9516	0.257786	0.08845	-5.88	2.17	11.2	0.3957	-0.0906	-0.2727	
-0.950136	0.251686	0.094916	-4.13	1.33	10.85	0.3985	-0.0891	-0.2697	
-0.955992	0.2562	0.09882	-1.61	2.45	11.2	0.3942	-0.0951	-0.2711	
-0.962946	0.270352	0.111142	0.84	3.43	11.83	0.3914	-0.1027	-0.2664	
-0.959042	0.278404	0.101504	1.4	5.25	11.83	0.3855	-0.092	-0.268	
-0.955748	0.276452	0.087596	0.91	6.72	11.48	0.3972	-0.1012	-0.2711	
-0.960506	0.2623	0.07905599	0.91	6.79	11.27	0.3898	-0.0982	-0.2603	
-0.973804	0.258274	0.069174	1.4	6.37	11.55	0.3913	-0.09209999	-0.2634	
-0.979904	0.255346	0.07381	2.59	6.72	12.11	0.397	-0.0937	-0.2604	
-0.980148	0.257786	0.067588	2.73	8.47	12.81	0.3913	-0.1042	-0.2618	
-0.974048	0.268034	0.059536	3.08	9.03	13.51	0.3971	-0.1058	-0.2588	
-0.979416	0.276208	0.041724	2.87	8.68	13.58	0.39	-0.1164	-0.2633	
-0.983808	0.282308	0.037332	2.17	8.05	13.37	0.3942	-0.1088	-0.2587	
-0.99064	0.284992	0.03416	1.26	7.28	12.53	0.3957	-0.1058	-0.2588	
-0.986858	0.289384	0.0366	0.91	7	11.34	0.4043	-0.1044	-0.2527	
-0.981734	0.298046	0.026596	0.14	7.21	9.8	0.3942	-0.1119	-0.2495	
-0.969412	0.311344	0.035136	-0.7	6.23	8.75	0.4029	-0.1195	-0.2511	
-0.95831	0.321104	0.02623	-1.61	6.16	7.98	0.3857	-0.1194	-0.2617	
-0.958066	0.325374	0.0244	-2.38	6.3	7.7	0.3885	-0.1057	-0.2649	
-0.965508	0.333914	0.02867	-2.38	5.81	7.56	0.403	-0.121	-0.2588	
-0.96685	0.340136	0.023546	-2.94	6.44	7.77	0.3914	-0.1194	-0.2571	
-0.965264	0.339404	0.027816	-4.55	6.44	9.1	0.3941	-0.1195	-0.2402	
-0.961238	0.342088	0.031232	-4.9	5.04	10.78	0.3928	-0.1118	-0.2587	
-0.96075	0.343918	0.031476	-4.55	5.11	11.9	0.3971	-0.121	-0.2464	
-0.960018	0.347822	0.02501	-3.64	4.83	12.46	0.3915	-0.124	-0.2617	
-0.959042	0.340258	0.024522	-3.64	5.25	12.53	0.3972	-0.1286	-0.2571	
-0.955382	0.332206	0.01769	-3.01	3.99	12.39	0.4043	-0.1256	-0.2464	
-0.950624	0.336232	0.020618	-2.52	3.85	11.34	0.3899	-0.1316	-0.2478	
-0.95099	0.336476	0.014152	-2.94	3.57	10.08	0.3885	-0.13	-0.2509	
-0.95099	0.338672	0.018788	-3.22	2.66	8.82	0.3943	-0.124	-0.254	
-0.955016	0.351482	0.020862	-3.22	2.17	7.7	0.3986	-0.1301	-0.2448	
-0.949526	0.355508	0.02196	-3.85	2.31	7.21	0.3813	-0.1239	-0.2539	
-0.951844	0.348554	0.0183	-4.06	2.03	6.72	0.3942	-0.1271	-0.2463	
-0.951356	0.353678	0.028304	-4.06	2.03	5.95	0.397	-0.1211	-0.2402	
-0.950868	0.364536	0.019276	-4.48	1.82	5.32	0.4029	-0.1363	-0.2417	
-0.943304	0.37332	0.024766	-4.97	0.91	4.97	0.3842	-0.1331	-0.2493	
-0.938546	0.365268	0.024522	-5.32	1.68	4.62	0.3843	-0.1406	-0.2523	
-0.937936	0.360266	0.020252	-5.11	1.54	4.13	0.3871	-0.1346	-0.2508	
-0.941108	0.359656	0.018422	-4.41	1.12	3.36	0.3856	-0.1361	-0.2462	
-0.94306	0.366	0.020618	-3.78	0	2.94	0.3885	-0.1331	-0.2447	
-0.939766	0.370026	0.028548	-3.92	0.42	2.52	0.4029	-0.1302	-0.2449	
-0.937448	0.365756	0.023302	-3.64	0.49	2.38	0.3928	-0.1346	-0.2463	
-0.940986	0.364414	0.026718	-2.73	0	2.03	0.3942	-0.1332	-0.2432	
-0.942328	0.37149	0.029768	-1.75	-0.14	1.47	0.3972	-0.1377	-0.2478	
-0.941108	0.380396	0.028792	-1.33	0.21	0.98	0.3899	-0.1301	-0.2478	
-0.94001	0.374784	0.025498	-1.05	0.56	0.49	0.3885	-0.1331	-0.2524	
-0.93879	0.371978	0.028304	-0.49	0.07	0.14	0.3929	-0.1362	-0.2463	
-0.93574	0.374906	0.026962	-0.35	-0.7	-0.14	0.39	-0.1361	-0.2462	
-0.938912	0.372344	0.028182	-0.56	0.84	-0.77	0.3941	-0.1286	-0.2355	
-0.93696	0.366366	0.025254	-0.42	0.42	-1.26	0.3942	-0.1301	-0.2432	
-0.939034	0.372344	0.024522	0	0.07	-1.61	0.387	-0.1331	-0.2401	
-0.942938	0.378932	0.025254	0.07	0.35	-2.17	0.3972	-0.1362	-0.2463	
-0.942816	0.37515	0.021228	-0.21	0.21	-2.59	0.3915	-0.1376	-0.2509	
-0.942816	0.368806	0.018422	0	-0.21	-2.87	0.3841	-0.1255	-0.2493	
-0.944768	0.37027	0.017568	0.28	-0.77	-3.01	0.3972	-0.1316	-0.251	
-0.945256	0.369904	0.024522	0.21	-1.05	-3.36	0.3914	-0.1286	-0.2478	
-0.946842	0.365146	0.020252	-0.14	-0.98	-3.85	0.39	-0.1422	-0.2493	
-0.94672	0.359656	0.022326	0.07	-1.33	-3.92	0.3871	-0.127	-0.254	
-0.948062	0.35746	0.027084	0.28	-1.61	-4.06	0.3885	-0.127	-0.2478	
-0.951234	0.35258	0.025254	0.28	-1.68	-4.27	0.3957	-0.1316	-0.2448	
-0.948428	0.351238	0.028304	0.07	-1.75	-4.55	0.3986	-0.1286	-0.251	
-0.946354	0.349042	0.032818	0.56	-1.82	-5.04	0.4001	-0.1362	-0.2479	
-0.942694	0.3477	0.035014	0.77	-1.47	-5.88	0.3901	-0.1406	-0.2601	
-0.94245	0.341966	0.03233	0.77	-1.68	-6.58	0.3943	-0.1301	-0.2494	
-0.945256	0.33672	0.03172	1.4	-2.03	-6.93	0.3784	-0.1269	-0.2492	
-0.949282	0.335378	0.029402	2.1	-2.31	-7.42	0.3914	-0.127	-0.2509	
-0.95099	0.341234	0.033062	3.08	-3.08	-8.05	0.3799	-0.1284	-0.2585	
-0.940986	0.346358	0.03721	3.43	-3.71	-8.61	0.3942	-0.1286	-0.2432	
-0.94977	0.343308	0.03111	3.08	-3.22	-9.31	0.3956	-0.1195	-0.2479	
-0.960628	0.33184	0.027084	3.5	-3.5	-10.01	0.3914	-0.1194	-0.2571	
-0.959408	0.329766	0.038796	4.27	-5.32	-10.36	0.3956	-0.1135	-0.2433	
-0.949526	0.334158	0.03721	4.48	-4.97	-10.78	0.3913	-0.1164	-0.2479	
-0.947696	0.340014	0.045994	4.55	-4.27	-11.13	0.4	-0.1226	-0.2433	
-0.954284	0.340258	0.031964	5.32	-3.64	-11.76	0.3971	-0.118	-0.2495	
-0.95648	0.330742	0.025986	6.79	-5.53	-12.18	0.3856	-0.1179	-0.2555	
-0.960262	0.323666	0.036356	6.72	-7.21	-12.32	0.3898	-0.1089	-0.2464	
-0.960872	0.323056	0.030988	6.09	-7.35	-12.81	0.3971	-0.1104	-0.2526	
-0.958188	0.32635	0.04575	5.32	-6.72	-13.37	0.3985	-0.115	-0.248	
-0.955992	0.327082	0.05063	4.48	-4.97	-13.79	0.3927	-0.1149	-0.2494	
-0.958188	0.319152	0.04148	3.78	-3.78	-14.14	0.3971	-0.1058	-0.2572	
-0.963678	0.308294	0.031964	4.06	-5.46	-14.42	0.4013	-0.0953	-0.2543	
-0.96868	0.299998	0.041236	3.78	-6.79	-14.84	0.3914	-0.1042	-0.2649	
-0.970998	0.292678	0.052826	3.36	-7	-15.75	0.3868	-0.0997	-0.2464	
-0.964532	0.288164	0.052948	3.36	-6.09	-16.66	0.397	-0.09519999	-0.2588	
-0.968436	0.284382	0.05368	4.27	-6.23	-17.5	0.3942	-0.0967	-0.2696	
-0.973926	0.27572	0.050264	5.39	-7	-18.27	0.4014	-0.09519999	-0.2635	
-0.978318	0.265228	0.046482	6.3	-8.19	-18.97	0.3956	-0.0906	-0.2665	
-0.977342	0.2562	0.063806	6.44	-8.68	-19.46	0.3841	-0.0981	-0.2618	
-0.983076	0.252906	0.073322	5.53	-6.79	-19.81	0.397	-0.0861	-0.2681	
-0.981002	0.24888	0.072346	5.39	-6.51	-19.95	0.3957	-0.0906	-0.2758	
-0.984784	0.242902	0.074664	5.81	-5.32	-20.3	0.3898	-0.083	-0.2727	
-0.981124	0.234118	0.070516	6.37	-5.04	-20.93	0.3999	-0.08	-0.2651	
-0.984418	0.221796	0.065148	6.58	-5.74	-21.84	0.397	-0.0769	-0.2728	
-0.99064	0.214842	0.0732	6.93	-6.51	-22.33	0.3984	-0.08	-0.2605	
-0.989054	0.209596	0.07808	7	-6.44	-22.75	0.3867	-0.0633	-0.2635	
-0.989664	0.204716	0.078812	6.37	-5.53	-22.89	0.3941	-0.0678	-0.2713	
-0.989542	0.194712	0.080764	5.53	-4.06	-22.47	0.4041	-0.0603	-0.2714	
-0.992226	0.181536	0.076982	5.67	-3.92	-21.63	0.4012	-0.0558	-0.2668	
-0.995398	0.173118	0.08686399	6.3	-2.94	-20.72	0.3998	-0.0694	-0.2605	
-0.997472	0.165066	0.067588	7.49	-3.5	-19.95	0.3985	-0.0663	-0.279	
-1.001986	0.164578	0.075762	10.01	-5.04	-20.16	0.3999	-0.0603	-0.2791	
-1.007476	0.155062	0.085644	10.57	-3.92	-20.58	0.3983	-0.0573	-0.2698	
-1.009428	0.144936	0.07442	10.15	-2.66	-20.58	0.4069	-0.0513	-0.2622	
-1.009306	0.1403	0.0732	10.57	-1.54	-20.02	0.4026	-0.0573	-0.2668	
-1.007476	0.132248	0.074298	10.5	-0.7	-18.76	0.3998	-0.0588	-0.2744	
-1.009916	0.115778	0.065514	8.19	-0.07	-17.08	0.3982	-0.0482	-0.2698	
-1.019798	0.096868	0.061122	4.34	-1.19	-15.26	0.3997	-0.0482	-0.2714	
-1.019432	0.074786	0.073932	2.24	-2.52	-14.28	0.3998	-0.0557	-0.2745	
-1.01626	0.064782	0.07198	3.36	-2.45	-14.28	0.3968	-0.0421	-0.2745	
-1.007842	0.06222	0.068198	6.16	-4.55	-14.35	0.3983	-0.0436	-0.2837	
-1.009306	0.066978	0.086742	9.24	-7.98	-14.49	0.3926	-0.0466	-0.2821	
-1.014552	0.07503	0.104676	10.5	-7.7	-14.77	0.4012	-0.0466	-0.2791	
-1.013088	0.084058	0.110898	9.94	-5.18	-15.82	0.3968	-0.0421	-0.2776	
-1.011136	0.092842	0.10126	9.52	-2.73	-16.73	0.3925	-0.0359	-0.2822	
-1.012478	0.091134	0.09357399	8.54	-0.28	-17.15	0.4012	-0.0466	-0.276	
-1.008818	0.095648	0.080764	6.3	0.49	-17.64	0.4069	-0.0361	-0.2808	
-1.000766	0.096258	0.084058	2.31	0.63	-17.29	0.3894	-0.0284	-0.2714	
-0.999302	0.088816	0.081496	-0.77	1.47	-16.87	0.3968	-0.0254	-0.2838	
-1.002108	0.06832	0.08052	-1.61	1.54	-16.52	0.4011	-0.0254	-0.2792	
-1.003084	0.06527	0.091134	-0.91	2.87	-16.73	0.4011	-0.0178	-0.2901	
-1.007354	0.06771	0.087474	-0.63	2.73	-17.43	0.391	-0.0268	-0.2853	
-1.01504	0.056242	0.084302	-1.89	3.99	-18.62	0.4025	-0.0224	-0.2823	
-1.020408	0.035868	0.078324	-2.66	4.62	-18.9	0.3952	-0.0178	-0.2777	
-1.015406	0.023302	0.077958	-2.73	3.71	-18.55	0.3965	-0.0133	-0.2669	
-1.012478	0.010248	0.078324	-2.73	3.71	-17.85	0.3952	-0.0147	-0.2823	
-1.003572	-0.001586	0.076128	-2.1	3.92	-17.01	0.414	-0.0118	-0.284	
-1.012966	-0.006832	0.072102	-1.12	4.2	-16.38	0.398	-0.0042	-0.2762	
-1.008086	-0.013908	0.075274	-0.63	3.29	-15.82	0.4051	0.0017	-0.2717	
-1.005158	-0.021716	0.07503	-0.07	2.73	-15.33	0.411	-0.0058	-0.2733	
-1.008452	-0.01952	0.06734399	1.4	1.89	-15.61	0.4053	-0.0027	-0.2825	
-1.017236	-0.017202	0.065514	1.05	0.98	-16.31	0.4052	-0.0027	-0.2748	
-1.024556	-0.025864	0.071126	0.7	0.77	-17.01	0.395	0.0079	-0.2747	
-1.010892	-0.03538	0.07869	0.77	1.47	-17.15	0.4067	0.0048	-0.281	
-1.002108	-0.044774	0.086742	1.4	3.43	-16.45	0.4009	-0.0012	-0.2778	
-0.99064	-0.053314	0.08357	0.84	3.64	-14.98	0.4109	0.0093	-0.2733	
-0.989542	-0.052094	0.073078	1.61	3.15	-14.28	0.3979	0.0078	-0.2732	
-1.003694	-0.050996	0.07625	1.89	0.91	-14.49	0.4006	0.0169	-0.2655	
-1.017968	-0.05551	0.079544	0.49	2.1	-15.19	0.4092	0.0274	-0.2611	
-1.014796	-0.05185	0.07503	0.42	3.08	-15.05	0.4064	0.0275	-0.2703	
-1.005524	-0.04331	0.076982	0.77	4.62	-14.63	0.4051	0.0169	-0.2733	
-0.992714	-0.052948	0.074786	0.98	4.62	-13.79	0.4094	0.0184	-0.2749	
-0.998204	-0.065392	0.07747	1.26	6.16	-13.37	0.4006	0.0275	-0.2733	
-0.996984	-0.0793	0.073932	0.28	7.14	-12.74	0.405	0.0305	-0.2749	
-1.00223	-0.079422	0.06954	-0.07	9.59	-11.97	0.415	0.0304	-0.2658	
-1.004548	-0.08113	0.056974	0.21	10.01	-10.99	0.4165	0.0243	-0.2627	
-1.002596	-0.094428	0.052216	-0.07	9.38	-10.08	0.4078	0.032	-0.2672	
-1.00833	-0.107116	0.040138	-0.21	10.08	-9.8	0.4107	0.0305	-0.2688	
-1.013576	-0.119682	0.03599	0.21	9.73	-9.24	0.4076	0.0411	-0.2596	
-1.016992	-0.112606	0.026718	1.54	9.59	-8.82	0.4092	0.0305	-0.2672	
-1.017236	-0.111142	0.01708	2.24	7.56	-8.4	0.4251	0.0364	-0.269	
-1.01565	-0.119072	0.017568	2.52	4.62	-8.4	0.4178	0.0334	-0.2612	
-1.015284	-0.123708	0.020252	2.31	4.06	-8.19	0.409	0.041	-0.2472	
-1.016992	-0.11712	0.01464	2.31	2.87	-7.77	0.4105	0.0319	-0.2534	
-1.010648	-0.114192	0.02318	2.66	-0.28	-6.3	0.4122	0.032	-0.2704	
-1.006988	-0.129198	0.029158	2.24	0.21	-5.46	0.4147	0.047	-0.2504	
-1.009794	-0.128222	0.021838	2.38	0.7	-4.76	0.4178	0.038	-0.2643	
-1.003328	-0.118828	0.02867	1.54	-0.84	-4.62	0.4163	0.0471	-0.2612	
-1.000522	-0.119804	0.037576	1.61	-1.33	-4.34	0.4148	0.0471	-0.2597	
-0.998936	-0.128588	0.039162	1.19	-0.84	-3.71	0.4135	0.041	-0.2627	
-0.995764	-0.127368	0.03721	0.35	-0.77	-2.66	0.4047	0.0411	-0.258	
-0.989054	-0.118096	0.044286	0.21	-1.12	-1.61	0.4164	0.0441	-0.2658	
-0.992104	-0.118706	0.046604	0	-2.31	-0.49	0.4092	0.0365	-0.2626	
-0.993446	-0.125172	0.057096	-0.49	-0.42	0.28	0.4019	0.0381	-0.2657	
-0.989786	-0.12505	0.058316	-0.42	-0.77	1.33	0.4106	0.0365	-0.2611	
-0.9943	-0.125172	0.05368	-0.49	-0.35	2.24	0.409	0.0517	-0.2612	
-0.995764	-0.128832	0.051118	0.07	-0.21	3.01	0.4121	0.0335	-0.2611	
-0.997838	-0.125172	0.049044	0.28	0.77	3.43	0.4135	0.0334	-0.258	
-1.002352	-0.123708	0.040504	0.98	0.7	4.06	0.4063	0.0381	-0.2626	
-1.003816	-0.121756	0.036722	1.61	1.12	4.34	0.412	0.0395	-0.2596	
-1.006256	-0.113826	0.024888	1.75	1.82	4.62	0.4091	0.0426	-0.2611	
-1.009672	-0.107848	0.029402	1.47	0	5.25	0.4105	0.0395	-0.2534	
-1.01138	-0.110044	0.030988	1.05	-0.98	5.88	0.4019	0.032	-0.2579	
-1.009916	-0.109312	0.02867	0.28	-0.63	6.3	0.415	0.0289	-0.2596	
-1.007598	-0.106994	0.027084	0.07	-1.19	6.72	0.4077	0.0365	-0.2611	
-1.010038	-0.103944	0.028792	0.07	-1.89	7.14	0.4063	0.035	-0.2626	
-1.009672	-0.09942999	0.034526	0	-2.24	7.77	0.4077	0.0426	-0.2673	
-1.004182	-0.10004	0.03477	-0.07	-2.59	8.26	0.4179	0.0289	-0.2689	
-1.002474	-0.097966	0.03965	-0.42	-2.1	8.75	0.4122	0.0168	-0.2657	
-1.002474	-0.09455	0.044042	-0.84	-1.82	9.31	0.415	0.0244	-0.2642	
-1.003816	-0.089182	0.045994	-1.26	-1.54	10.15	0.4122	0.0214	-0.2672	
-1.00589	-0.089914	0.045628	-2.03	-1.26	10.99	0.4093	0.0214	-0.2687	
-1.002474	-0.094916	0.046604	-1.82	-1.96	11.55	0.415	0.0274	-0.2673	
-1.003938	-0.090158	0.051728	-1.19	-1.68	11.97	0.4136	0.0198	-0.2642	
-1.010892	-0.085766	0.041602	-1.26	-2.03	12.25	0.4194	0.0167	-0.2657	
-1.015406	-0.080764	0.037088	-1.61	-2.8	12.25	0.4122	0.0153	-0.2657	
-1.01138	-0.073444	0.04209	-1.96	-3.29	12.32	0.4166	0.0183	-0.2673	
-1.006988	-0.067954	0.04514	-1.68	-3.71	12.67	0.4209	0.0137	-0.2596	
-1.008208	-0.060146	0.054168	-1.47	-3.85	12.88	0.4079	0.0199	-0.2656	
-1.014308	-0.05124	0.046848	-1.82	-2.87	13.3	0.4051	0.0062	-0.2671	
-1.012844	-0.049288	0.049166	-2.31	-2.52	13.79	0.4165	0.0152	-0.2642	
-1.012844	-0.04819	0.056486	-2.45	-2.87	14.35	0.4181	0.0092	-0.2672	
-1.010038	-0.042822	0.045506	-1.96	-2.87	14.49	0.4066	-0.0028	-0.2686	
-1.009306	-0.031354	0.052826	-1.33	-3.22	14.35	0.4095	0.0047	-0.2717	
-1.010404	-0.022692	0.05002	-0.84	-3.15	13.93	0.4051	0.0078	-0.2748	
-1.006988	-0.016714	0.053802	-0.98	-3.57	13.79	0.4022	0.0032	-0.264	
-1.00528	-0.011102	0.062098	-1.47	-3.29	13.72	0.4081	-0.0118	-0.2717	
-1.005158	-0.006832	0.064538	-1.82	-2.87	13.72	0.4138	-0.0059	-0.2625	
-1.007964	-0.002806	0.072224	-2.24	-1.96	13.72	0.4037	-0.0012	-0.2701	
-1.006134	0.00366	0.057096	-2.52	-1.05	13.93	0.4081	-0.0027	-0.2732	
-1.00955	0.005978	0.062952	-2.59	-0.56	14.07	0.4038	-0.0103	-0.2716	
-1.015528	0.0061	0.06771	-2.38	-0.77	14.21	0.4066	-0.0073	-0.264	
-1.009428	0.01037	0.066612	-1.96	-1.47	14.49	0.3979	-0.0118	-0.2592	
-1.006744	0.02013	0.061366	-1.82	-1.82	14.56	0.4124	-0.015	-0.2609	
-1.01138	0.029036	0.063562	-2.31	-2.31	14.49	0.411	-0.0164	-0.2701	
-1.0126	0.035136	0.063196	-3.5	-2.73	14.49	0.4182	-0.0165	-0.2625	
-1.01016	0.036966	0.063806	-3.36	-2.31	14.49	0.4024	-0.0209	-0.2685	
-1.011502	0.040504	0.06588	-3.36	-1.19	14.28	0.4109	-0.0165	-0.2593	
-1.010892	0.043432	0.06588	-3.71	-0.49	14.14	0.4067	-0.0255	-0.267	
-1.009794	0.045384	0.065758	-4.13	-0.42	14.35	0.4111	-0.027	-0.267	
-1.010404	0.047946	0.064416	-4.69	-0.98	14.7	0.414	-0.021	-0.2732	
-1.014552	0.052704	0.061732	-5.88	-0.28	14.84	0.4067	-0.027	-0.2623	
-1.012234	0.059048	0.06527	-5.95	-0.84	14.91	0.3996	-0.03	-0.2715	
-1.006256	0.061488	0.066978	-5.53	-1.26	14.77	0.4068	-0.0285	-0.27	
-1.005524	0.065758	0.07076	-4.9	-1.12	14.07	0.4055	-0.036	-0.2792	
-1.008208	0.073444	0.074176	-3.85	-1.05	13.65	0.4011	-0.0345	-0.2715	
-1.00894	0.081008	0.069784	-3.29	-0.77	13.23	0.4054	-0.0452	-0.2684	
-1.00833	0.087108	0.063684	-3.36	0.84	12.88	0.4011	-0.0406	-0.2668	
-1.008086	0.095038	0.066978	-4.83	0.28	13.02	0.4069	-0.0407	-0.2684	
-1.01138	0.099674	0.062464	-6.79	0.56	13.44	0.4083	-0.0422	-0.2623	
-1.01992	0.107604	0.05551	-7.77	1.26	13.51	0.4039	-0.0391	-0.2669	
-1.017724	0.113826	0.057584	-7.7	1.33	13.02	0.3997	-0.0466	-0.273	
-1.016016	0.122	0.051484	-5.81	2.38	12.04	0.4011	-0.0467	-0.2668	
-1.011868	0.127734	0.0488	-2.94	1.82	10.64	0.3968	-0.0451	-0.2683	
-1.003206	0.125782	0.05185	-0.56	0.91	9.38	0.3996	-0.0497	-0.2637	
-1.000034	0.122732	0.061	0.42	0.07	8.68	0.4011	-0.0497	-0.2683	
-1.002718	0.126636	0.068564	0.49	0	8.54	0.3996	-0.0376	-0.2653	
-1.005402	0.136762	0.068808	0.42	1.12	8.61	0.4011	-0.0528	-0.2637	
-1.006134	0.145546	0.06771	1.12	3.64	8.61	0.4099	-0.0589	-0.273	
-1.00467	0.146278	0.063074	0.56	5.18	8.89	0.4084	-0.0619	-0.2668	
-1.001742	0.146522	0.059414	-0.21	5.53	9.17	0.4143	-0.0558	-0.2746	
-0.99918	0.149206	0.056486	-0.63	5.6	8.82	0.4098	-0.0574	-0.2638	
-0.999302	0.14701	0.047702	-1.47	4.83	8.26	0.4054	-0.0513	-0.2607	
-1.003206	0.138836	0.047336	-2.52	3.08	8.12	0.4041	-0.0588	-0.2699	
-1.009428	0.130174	0.048678	-2.73	2.1	8.61	0.4041	-0.0649	-0.2621	
-1.012234	0.132492	0.04636	-2.45	1.96	9.8	0.4026	-0.0604	-0.2621	
-1.010648	0.142252	0.051362	-1.96	1.89	10.57	0.4128	-0.065	-0.2638	
-1.006134	0.155672	0.04758	-1.4	2.38	10.71	0.4025	-0.0574	-0.2575	
-1.001254	0.163724	0.04575	-2.1	2.94	10.29	0.407	-0.0725	-0.2575	
-1.00101	0.167018	0.05002	-2.73	2.31	9.94	0.4128	-0.0665	-0.2622	
-1.005402	0.166408	0.053802	-2.38	1.96	9.66	0.4041	-0.068	-0.2606	
-1.007964	0.165798	0.047214	-2.1	1.89	9.38	0.3998	-0.0755	-0.2574	
-1.004914	0.167872	0.040992	-1.54	1.05	8.89	0.4143	-0.0725	-0.2684	
-0.998448	0.177876	0.043066	-0.28	0.42	8.33	0.4027	-0.0755	-0.2621	
-0.997228	0.191174	0.043066	0.77	0	7.28	0.4013	-0.0725	-0.2651	
-0.994178	0.199226	0.042334	0.91	-0.84	6.37	0.4026	-0.068	-0.2575	
-0.986248	0.205082	0.05063	0	-2.24	5.67	0.41	-0.0847	-0.2667	
-0.981734	0.212402	0.05551	-0.98	-2.45	5.18	0.4114	-0.0847	-0.2621	
-0.981002	0.220454	0.058804	-2.31	-2.52	4.41	0.3969	-0.074	-0.262	
-0.982954	0.222406	0.063196	-3.43	-1.82	3.29	0.407	-0.0741	-0.259	
-0.986614	0.218258	0.063562	-4.2	-1.26	2.24	0.397	-0.083	-0.2651	
-0.985028	0.210328	0.05734	-4.41	-0.98	1.47	0.4071	-0.0786	-0.2636	
-0.98515	0.204106	0.051972	-3.78	-1.33	1.05	0.407	-0.0725	-0.2575	
-0.986614	0.204106	0.054656	-3.43	-2.03	0.84	0.3983	-0.0679	-0.2574	
-0.98637	0.20252	0.057828	-2.73	-2.45	0.56	0.4069	-0.0619	-0.2606	
-0.988566	0.197884	0.062098	-2.45	-2.94	0.21	0.4041	-0.0679	-0.2637	
-0.989908	0.18971	0.061732	-2.38	-2.59	-0.21	0.4056	-0.07099999	-0.2667	
-0.991494	0.183122	0.062342	-1.82	-2.52	-0.63	0.3999	-0.0816	-0.2651	
-0.993446	0.17934	0.06771	-1.12	-2.31	-0.7	0.3998	-0.0725	-0.2651	
-0.9943	0.178364	0.06893	-0.28	-2.03	-0.56	0.4071	-0.0664	-0.2699	
-0.992104	0.17995	0.069052	0.98	-1.54	-0.63	0.4012	-0.0694	-0.2636	
-0.991006	0.178608	0.070394	2.24	-1.82	-0.56	0.3912	-0.0785	-0.2635	
-0.99369	0.176534	0.06588	2.87	-0.35	-0.91	0.4072	-0.0785	-0.276	
-0.993934	0.17751	0.062708	3.85	-1.47	-1.05	0.3984	-0.0831	-0.2651	
-0.994422	0.18239	0.060268	4.41	-1.82	-1.12	0.4086	-0.077	-0.2698	
-0.99735	0.188612	0.062464	4.41	-1.82	-1.12	0.3955	-0.0785	-0.2604	
-0.994788	0.191174	0.065514	4.34	-1.89	-1.12	0.4014	-0.0846	-0.2666	
-0.993568	0.196176	0.062342	4.13	-1.68	-1.05	0.3969	-0.0739	-0.2666	
-0.99308	0.198616	0.062586	3.01	-1.47	-0.98	0.3969	-0.077	-0.2635	
-0.99186	0.197152	0.064416	1.75	-1.05	-0.91	0.4041	-0.074	-0.2605	
-0.99125	0.194102	0.066124	1.05	-1.19	-0.77	0.4027	-0.074	-0.2652	
-0.990518	0.191906	0.067832	0.63	-1.19	-0.7	0.3984	-0.0663	-0.2728	
-0.989908	0.192028	0.069906	0.35	-1.4	-0.91	0.4027	-0.0801	-0.259	
-0.989542	0.19032	0.071858	0.28	-1.68	-0.98	0.4056	-0.0801	-0.2574	
-0.98942	0.190564	0.072956	-0.07	-1.54	-0.98	0.4027	-0.0786	-0.262	
-0.99247	0.189832	0.07198	-0.28	-0.84	-0.77	0.397	-0.0785	-0.2728	
-0.99613	0.189832	0.066124	-0.35	-0.56	-0.77	0.3984	-0.0816	-0.2604	
-0.995886	0.190076	0.062708	-0.7	-0.49	-0.84	0.3971	-0.0845	-0.2697	
-0.99491	0.189466	0.063684	-0.98	-0.63	-0.77	0.4072	-0.0831	-0.2744	
-0.99613	0.189344	0.065026	-0.98	-0.7	-0.7	0.3956	-0.0769	-0.2728	
-0.99369	0.187392	0.069174	-0.7	-0.98	-0.7	0.394	-0.074	-0.2604	
-0.99125	0.185806	0.07137	-0.56	-0.98	-0.7	0.4084	-0.0786	-0.2559	
-0.991616	0.18422	0.070394	-0.56	-0.63	-0.84	0.3971	-0.07539999	-0.2774	
-0.993568	0.18544	0.070394	-0.07	-0.84	-0.91	0.3912	-0.08	-0.2681	
-0.99186	0.187148	0.07015	0.14	-0.98	-1.05	0.4012	-0.0679	-0.2667	
-0.993446	0.187148	0.072224	0	-0.84	-1.19	0.4027	-0.074	-0.259	
-0.995398	0.186782	0.070394	-0.14	-0.63	-1.19	0.3956	-0.08	-0.2743	
-0.995642	0.182756	0.07124799	-0.35	-0.7	-1.19	0.3999	-0.07539999	-0.2744	
-0.992104	0.18178	0.071492	-0.42	-0.56	-1.19	0.3868	-0.0769	-0.265	
-0.992226	0.183366	0.07124799	-0.35	-0.42	-1.26	0.4114	-0.0725	-0.2699	
-0.994178	0.182756	0.072956	-0.14	-0.49	-1.26	0.3912	-0.0739	-0.2712	
-0.994056	0.180804	0.07442	0.07	-0.49	-1.26	0.3912	-0.0724	-0.2697	
-0.99552	0.179218	0.073566	0.35	-0.28	-1.12	0.3998	-0.0755	-0.2651	
-0.996496	0.177022	0.070638	0.42	-0.07	-0.98	0.3969	-0.0709	-0.2682	
-0.996374	0.178242	0.06893	0.49	0	-0.98	0.3912	-0.0739	-0.2727	
-0.995764	0.181414	0.068564	0.7	-0.14	-0.91	0.3997	-0.0634	-0.2621	
-0.9943	0.184098	0.069906	0.49	-0.49	-0.91	0.3984	-0.0739	-0.2713	
-0.992714	0.184586	0.072468	0.28	-0.56	-0.91	0.3998	-0.0648	-0.2729	
-0.994422	0.182634	0.074542	0	-0.49	-0.98	0.397	-0.07539999	-0.2697	
-0.995764	0.182146	0.07442	-0.07	-0.14	-0.7	0.4042	-0.0801	-0.2667	
-0.99491	0.182268	0.072468	-0.14	-0.35	-0.7	0.4056	-0.0619	-0.2729	
-0.99674	0.179706	0.069662	-0.14	-0.14	-0.84	0.3941	-0.0724	-0.2682	
-0.996252	0.180072	0.07198	-0.35	-0.14	-0.77	0.4056	-0.0694	-0.2698	
-0.99308	0.180438	0.075274	-0.7	-0.28	-0.7	0.4012	-0.0694	-0.2652	
-0.991128	0.177632	0.076494	-0.42	0.14	-0.63	0.4056	-0.0679	-0.2683	
-0.9943	0.177632	0.07625	0.07	0.35	-0.7	0.3954	-0.0664	-0.2636	
-0.99613	0.179218	0.074664	0.35	0.42	-0.77	0.4041	-0.0664	-0.2652	
-0.995886	0.177754	0.072102	0.21	0.7	-0.7	0.3999	-0.077	-0.2666	
-0.99552	0.172752	0.0732	-0.14	1.12	-0.56	0.41	-0.0725	-0.2683	
-0.998082	0.173728	0.067222	0.28	1.33	-0.42	0.397	-0.07539999	-0.2713	
-1.000644	0.175924	0.065514	0.84	0.98	-0.49	0.3926	-0.0679	-0.2651	
-0.998692	0.174948	0.068198	1.33	0.7	-0.56	0.4014	-0.0694	-0.279	
-1.010038	0.174582	0.06893	1.61	-1.05	-0.49	0.407	-0.0725	-0.2637	
-0.996252	0.177022	0.066124	1.68	-1.12	-0.56	0.4013	-0.0801	-0.2605	
-0.995276	0.183366	0.06466	1.82	-2.17	-0.42	0.3955	-0.0694	-0.2743	
-0.994056	0.19032	0.073932	1.47	-1.75	-0.63	0.3998	-0.0725	-0.2636	
-0.988444	0.193736	0.077592	0.49	-1.61	-0.7	0.3956	-0.0769	-0.2728	
-0.992958	0.188612	0.077348	-0.7	-0.77	-0.63	0.3984	-0.0679	-0.2713	
-0.99308	0.183244	0.074298	-1.68	-0.91	-0.35	0.3998	-0.0618	-0.276	
-0.998082	0.181902	0.073322	-2.24	-1.47	-0.28	0.3898	-0.07229999	-0.2727	
-0.994788	0.182268	0.076006	-2.38	-1.19	-0.49	0.3941	-0.0724	-0.2682	
-0.997594	0.177632	0.07515199	-2.17	-1.26	-0.49	0.3912	-0.07539999	-0.2697	
-0.994178	0.168726	0.06954	-1.82	-2.03	-0.35	0.3984	-0.0694	-0.2713	
-0.99918	0.167872	0.07381	-1.19	-2.31	-0.28	0.3954	-0.0633	-0.2636	
-0.995276	0.169458	0.076128	-0.7	-2.73	-0.21	0.3984	-0.0679	-0.2698	
-0.998448	0.173606	0.081984	-0.14	-2.03	-0.07	0.3955	-0.0739	-0.2666	
-0.989908	0.17446	0.083692	-0.07	-2.87	0.21	0.3955	-0.0694	-0.2666	
-0.992592	0.1769	0.086498	-0.42	-1.26	0.28	0.4028	-0.0633	-0.2775	
-0.994178	0.177754	0.083936	-0.49	-1.19	0.28	0.3912	-0.0739	-0.2697	
-0.984174	0.176656	0.07625	-0.21	-3.57	0.35	0.3941	-0.0678	-0.2759	
-0.990884	0.17507	0.082838	-0.07	-0.98	0	0.3899	-0.0738	-0.2804	
-0.992226	0.175802	0.086742	0.28	-1.05	0	0.4014	-0.0846	-0.2682	
-0.992958	0.176168	0.087108	0.63	-1.4	0.14	0.3969	-0.0618	-0.2713	
-0.986492	0.17934	0.086986	0.91	-2.31	0.42	0.3941	-0.0678	-0.2728	
-0.987834	0.181658	0.091378	0.7	-0.7	0.28	0.3883	-0.0678	-0.2727	
-0.987346	0.182634	0.09028	0.28	-0.28	0.21	0.3984	-0.0648	-0.2698	
-0.988932	0.182512	0.089304	-0.07	-0.21	0.14	0.3984	-0.0739	-0.2697	
-0.992836	0.180316	0.08723	-0.35	0.14	0	0.3854	-0.0784	-0.265	
-0.994422	0.178852	0.085888	-0.35	0.21	0.07	0.3826	-0.07229999	-0.2773	
-0.99491	0.17995	0.083692	0	0.07	-0.07	0.3869	-0.0814	-0.2696	
