Sensor string: E
Serial number: 2106-01--25424199
Firmware version: 9,200505E-40
Hardware version: 1,409864E-36
Calibration quality: 204
ax	ay	az	gx	gy	gz	mx	my	mz

-0.988932	0.137494	0.173362	0.63	0	-0.42	0.3666	-0.0481	-0.3045	Reference
-0.989542	0.138104	0.172264	0.28	-0.14	-0.63	0.368	-0.0482	-0.3117	
-0.990152	0.137738	0.171898	0.77	-0.07	-0.56	0.3741	-0.056	-0.3016	
-0.990274	0.137738	0.169458	-0.07	-0.07	-0.28	0.3651	-0.0496	-0.3001	
-0.98942	0.137128	0.170312	0.49	0.07	0.28	0.3607	-0.0591	-0.3148	
-0.990274	0.136396	0.172874	0.14	0.07	0.21	0.3666	-0.0497	-0.3103	
-0.987468	0.136518	0.170922	0.63	0	-0.21	0.3635	-0.045	-0.3073	
-0.98698	0.138226	0.172996	0.49	0.07	-0.28	0.3666	-0.0497	-0.3059	
-0.988688	0.13847	0.172874	0.49	0.21	-0.07	0.3607	-0.0527	-0.3002	
-0.987956	0.137372	0.173362	0.56	0.35	0	0.3637	-0.0591	-0.309	
-0.989176	0.136152	0.172874	0.42	0.42	0.07	0.3621	-0.0481	-0.3117	
-0.989664	0.136518	0.172142	0.42	0.35	0	0.3577	-0.0559	-0.3089	
-0.988444	0.138592	0.172142	0.42	0.28	-0.07	0.3576	-0.0497	-0.3176	
-0.988932	0.138958	0.17263	0.42	0.14	-0.14	0.3592	-0.0574	-0.306	
-0.987956	0.13786	0.174216	0.14	0.21	-0.28	0.3667	-0.0576	-0.3162	
-0.989176	0.135908	0.171288	0.42	0.35	0.07	0.374	-0.053	-0.3132	
-0.989176	0.13603	0.172386	0.28	0.28	0.21	0.3547	-0.0496	-0.3103	
-0.989664	0.13725	0.170068	0.35	0.21	0.21	0.3697	-0.0575	-0.3046	
-0.989542	0.137372	0.170556	0.07	0.21	0	0.3636	-0.0529	-0.3132	
-0.989542	0.13847	0.17019	0.28	0.14	-0.07	0.3696	-0.056	-0.306	
-0.990152	0.137128	0.17202	-0.14	0.07	-0.07	0.3606	-0.0465	-0.3088	
-0.99003	0.136518	0.169946	0.14	0.21	0.07	0.3576	-0.048	-0.3074	
-0.990396	0.135054	0.169824	0.28	0.14	0	0.3637	-0.0544	-0.3074	
-0.989542	0.135664	0.17019	0.42	0.14	0.14	0.3621	-0.0466	-0.3117	
-0.99003	0.137372	0.16775	0.28	0	0.28	0.3592	-0.0543	-0.3089	
-0.990396	0.137738	0.169946	0.07	0.07	0.28	0.365	-0.045	-0.3073	
-0.98942	0.137372	0.169458	0	-0.07	0.35	0.3681	-0.056	-0.306	
-0.989786	0.137494	0.169092	0.07	-0.14	0.35	0.3608	-0.0605	-0.3017	
-0.989054	0.137494	0.169702	0.21	-0.14	0.42	0.3696	-0.0497	-0.3001	
-0.989786	0.13847	0.170678	0.14	-0.07	0.42	0.365	-0.0403	-0.3058	
-0.989176	0.139202	0.170068	0.28	0.07	0.42	0.3682	-0.059	-0.3002	
-0.988322	0.140788	0.170434	0.28	0	0.42	0.3681	-0.0512	-0.3001	
-0.987712	0.141764	0.170434	0.35	-0.21	0.35	0.3622	-0.0559	-0.306	
-0.988322	0.142374	0.169458	0	-0.07	0.28	0.3651	-0.0465	-0.3059	
-0.989054	0.142618	0.170556	-0.49	0.07	0.28	0.3682	-0.0623	-0.3104	
-0.988932	0.13969	0.169946	-0.42	0.07	0.28	0.3576	-0.048	-0.3074	
-0.988932	0.14091	0.173606	-0.42	0	0	0.3651	-0.0545	-0.3147	
-0.989908	0.139446	0.170678	-0.42	-0.14	-0.07	0.3651	-0.0496	-0.303	
-0.99186	0.13786	0.16836	0.14	-0.21	-0.14	0.3608	-0.059	-0.3031	
-0.989176	0.137982	0.168482	-0.7	-0.14	0.14	0.3621	-0.0466	-0.3103	
-0.989054	0.137494	0.172142	-0.14	-0.14	0.63	0.3652	-0.0622	-0.309	
-0.989298	0.137128	0.172508	-0.42	-0.14	0.35	0.3577	-0.0575	-0.3162	
-0.987834	0.140666	0.17141	0	-0.14	0.14	0.3607	-0.0543	-0.3104	
-0.987468	0.14152	0.172508	0.14	-0.14	0.35	0.3666	-0.0528	-0.3089	
-0.986614	0.139446	0.172874	0.07	-0.07	0.42	0.3593	-0.0604	-0.2988	
-0.988322	0.139568	0.17324	0.07	0.07	0.49	0.3606	-0.0496	-0.303	
-0.987956	0.139446	0.17263	0.21	0.07	0.42	0.3607	-0.0576	-0.3177	
-0.987712	0.140178	0.172996	-0.14	0.14	0.35	0.3652	-0.056	-0.3118	
-0.988932	0.140544	0.171654	-0.07	0.21	0.35	0.3651	-0.0513	-0.3147	
-0.987712	0.1403	0.17141	-0.14	0.14	0.28	0.3605	-0.0434	-0.3117	
-0.988078	0.1403	0.172508	-0.49	0.21	0	0.3651	-0.056	-0.3162	
-0.989176	0.140422	0.170312	-0.14	0.28	-0.07	0.3577	-0.0575	-0.3133	
-0.988932	0.137982	0.170556	-0.49	0.21	0.14	0.3637	-0.0607	-0.3133	
-0.989786	0.138714	0.169092	0.07	0.14	0.14	0.371	-0.0466	-0.3073	
-0.989786	0.140422	0.169824	-0.21	0.21	0.07	0.368	-0.0482	-0.3088	
-0.988078	0.141398	0.17141	-0.35	0.21	-0.07	0.3681	-0.0513	-0.3074	
-0.989298	0.141886	0.170312	-0.42	0.42	0	0.3636	-0.0513	-0.3161	
-0.988932	0.140056	0.16958	-0.21	0.35	0.14	0.3577	-0.0512	-0.3147	
-0.98881	0.13847	0.17019	-0.21	0.35	0.14	0.3622	-0.0559	-0.3104	
-0.988688	0.140544	0.169702	-0.14	0.35	0.14	0.3652	-0.0622	-0.3119	
-0.989908	0.139202	0.169214	-0.14	0.49	0.28	0.3562	-0.0542	-0.306	
-0.989664	0.140544	0.169214	-0.21	0.42	0.21	0.3607	-0.0544	-0.3118	
-0.989908	0.141398	0.168238	-0.28	0.42	0.21	0.3666	-0.0576	-0.3177	
-0.989664	0.14152	0.167872	-0.14	0.28	0.21	0.3578	-0.0606	-0.3177	
-0.989908	0.141154	0.169458	0	0.21	0.21	0.3592	-0.0528	-0.3147	
-0.989786	0.140178	0.168848	0	0.21	0.21	0.3607	-0.0511	-0.2972	
-0.989664	0.140544	0.167018	0.28	0.21	0.28	0.3622	-0.0543	-0.306	
-0.989298	0.141764	0.168238	0.21	0.07	0.28	0.3635	-0.0433	-0.3001	
-0.990274	0.143838	0.167628	0.35	0.07	0.21	0.3696	-0.0513	-0.3059	
-0.987712	0.144814	0.167506	0	0	0.21	0.3637	-0.0558	-0.3002	
-0.990152	0.14396	0.168848	-0.49	0.07	0.42	0.3577	-0.0496	-0.306	
-0.9882	0.141886	0.167384	-0.35	0.07	0.49	0.3667	-0.0607	-0.3104	
-0.988688	0.142862	0.169458	-0.63	-0.07	0.35	0.3577	-0.0574	-0.3104	
-0.990152	0.141764	0.170556	-0.56	0	0	0.3652	-0.0607	-0.3104	
-0.990396	0.140788	0.16775	-0.42	0	-0.14	0.3726	-0.0592	-0.3089	
-0.991128	0.139812	0.168848	-0.98	0	0.07	0.3697	-0.0622	-0.3031	
-0.98942	0.140178	0.168726	-0.35	-0.07	0.49	0.3608	-0.0606	-0.3075	
-0.989786	0.1403	0.16897	-0.56	-0.14	0.35	0.3683	-0.0638	-0.3046	
-0.987224	0.143228	0.169336	0	0	-0.07	0.3652	-0.0591	-0.3133	
-0.988444	0.142618	0.171044	-0.21	0.07	-0.07	0.3608	-0.0621	-0.309	
-0.98881	0.1403	0.168726	0	-0.07	0.07	0.3667	-0.0607	-0.3133	
-0.98942	0.140666	0.171532	-0.14	-0.14	0.21	0.3741	-0.0545	-0.3074	
-0.988322	0.143472	0.168726	-0.21	0	0.14	0.3727	-0.0591	-0.3017	
-0.989176	0.143228	0.170678	-0.21	-0.07	0.14	0.3695	-0.0482	-0.3103	
-0.988566	0.142374	0.1708	-0.07	0.07	0.21	0.3652	-0.0527	-0.2987	
-0.989298	0.141398	0.169336	0.28	-0.07	0.28	0.3682	-0.0591	-0.306	
-0.989054	0.142252	0.169946	0.21	-0.07	0.14	0.3608	-0.0622	-0.3104	
-0.989786	0.142862	0.168482	0.21	-0.07	0.14	0.3681	-0.0543	-0.3016	
-0.989054	0.142862	0.167628	-0.07	0	0.21	0.3606	-0.048	-0.2987	
-0.989786	0.143106	0.167506	-0.21	0	0.21	0.3652	-0.0591	-0.3075	
-0.987956	0.144814	0.16836	-0.14	-0.07	0.14	0.3593	-0.0621	-0.3061	
-0.987956	0.14457	0.170068	-0.07	-0.14	-0.07	0.3711	-0.0576	-0.306	
-0.987346	0.143106	0.170434	0.14	-0.07	-0.21	0.3712	-0.0624	-0.3162	
-0.989786	0.141276	0.170068	0.35	0.07	-0.21	0.3667	-0.0575	-0.3075	
-0.98881	0.143716	0.168848	0.28	0.14	-0.14	0.3607	-0.059	-0.309	
-0.9882	0.14335	0.169336	0.35	0.14	-0.14	0.3697	-0.0591	-0.306	
-0.988566	0.142252	0.17019	0.28	0	-0.07	0.3621	-0.0465	-0.3088	
-0.988078	0.144082	0.17019	0.21	0	-0.14	0.3623	-0.0621	-0.3003	
-0.988078	0.143716	0.16958	0.21	0	-0.21	0.3651	-0.0544	-0.3104	
-0.9882	0.144692	0.16958	-0.35	0.07	-0.21	0.3667	-0.0591	-0.3046	
-0.988078	0.143716	0.170556	-0.42	0.07	-0.14	0.3578	-0.0589	-0.3061	
-0.987956	0.14152	0.16958	-0.28	0	-0.14	0.3561	-0.0465	-0.3088	
-0.989054	0.140544	0.169336	-0.14	0	-0.21	0.3652	-0.059	-0.3046	
-0.988688	0.14274	0.169214	0.07	-0.14	-0.28	0.3682	-0.0606	-0.3002	
-0.987468	0.143228	0.168848	-0.14	-0.07	-0.35	0.3667	-0.0638	-0.3119	
-0.989542	0.144326	0.168238	-0.21	0.07	-0.21	0.3608	-0.0636	-0.3032	
-0.989908	0.14335	0.169214	-0.49	0.07	-0.14	0.3622	-0.056	-0.3147	
-0.988688	0.1403	0.168238	-0.56	0.07	-0.07	0.3607	-0.0574	-0.3046	
-0.989908	0.14091	0.168848	-0.28	0.07	-0.21	0.3638	-0.0606	-0.3031	
-0.989908	0.14213	0.168726	-0.35	0	-0.42	0.3637	-0.0559	-0.3089	
-0.990274	0.1403	0.169702	-0.14	-0.07	-0.42	0.3742	-0.064	-0.3148	
-0.991128	0.140422	0.167506	-0.28	0	-0.35	0.3576	-0.048	-0.3059	
-0.989542	0.138592	0.168116	-0.21	-0.14	0.14	0.3562	-0.0543	-0.3104	
-0.990152	0.140056	0.169458	-0.35	-0.21	0.28	0.3576	-0.0497	-0.3161	
-0.989664	0.140788	0.168116	-0.14	-0.21	0	0.3517	-0.0511	-0.3133	
-0.98698	0.141886	0.169336	-0.07	-0.14	-0.14	0.3636	-0.0512	-0.3045	
-0.987956	0.141032	0.16958	0.07	-0.07	-0.14	0.3635	-0.0433	-0.3001	
-0.989298	0.13969	0.1708	0.14	-0.21	0	0.3576	-0.0464	-0.303	
-0.988932	0.141886	0.169702	0.07	-0.21	0	0.3665	-0.0465	-0.3044	
-0.990396	0.141276	0.171044	0.07	-0.28	-0.07	0.3636	-0.0513	-0.3147	
-0.987956	0.142374	0.170556	0.14	-0.07	-0.07	0.3755	-0.0483	-0.3146	
-0.990518	0.14213	0.168482	0.21	-0.07	0.07	0.3622	-0.0607	-0.3162	
-0.987224	0.141032	0.169946	-0.07	-0.21	-0.07	0.3681	-0.0497	-0.3088	
-0.988688	0.142862	0.169092	0.21	-0.28	-0.07	0.3637	-0.0559	-0.306	
-0.98942	0.141642	0.168604	-0.14	-0.28	0	0.3621	-0.0513	-0.3132	
-0.989664	0.141764	0.168238	-0.14	-0.14	0.07	0.3637	-0.0591	-0.3104	
-0.989786	0.140422	0.168604	-0.49	-0.14	0.07	0.3563	-0.0605	-0.3104	
-0.98942	0.140422	0.169824	-0.28	-0.21	0.07	0.3561	-0.048	-0.3089	
-0.988688	0.139812	0.170922	-0.07	-0.28	-0.14	0.3576	-0.048	-0.3045	
-0.98942	0.141398	0.170068	0.21	-0.21	-0.28	0.368	-0.0482	-0.3132	
-0.98942	0.141764	0.169458	0.21	-0.28	-0.14	0.365	-0.045	-0.3117	
-0.989176	0.141276	0.171044	0.42	-0.21	0	0.3623	-0.0653	-0.3134	
-0.988932	0.142984	0.169092	0.35	-0.35	0.07	0.3666	-0.0513	-0.3089	
-0.98942	0.141764	0.170312	0.21	-0.35	0.07	0.359	-0.045	-0.319	
-0.988566	0.141398	0.169946	0	-0.35	0.07	0.3652	-0.0574	-0.3002	
-0.989176	0.142374	0.171654	0.07	-0.56	0.07	0.3695	-0.0434	-0.3029	
-0.989054	0.14335	0.171532	0.21	-0.7	0.07	0.3681	-0.0481	-0.2986	
-0.988932	0.142984	0.17202	0.21	-0.77	0.07	0.3547	-0.0511	-0.3103	
-0.989054	0.142984	0.171898	-0.14	-0.84	0	0.3725	-0.0497	-0.3016	
-0.990396	0.142496	0.170678	0	-0.91	-0.14	0.3635	-0.0418	-0.3044	
-0.988932	0.141764	0.171288	-0.7	-0.91	-0.14	0.3726	-0.0529	-0.3103	
-0.98759	0.141276	0.17141	-0.63	-0.91	0	0.3592	-0.0542	-0.2987	
-0.987712	0.141154	0.170312	-0.49	-0.77	0.21	0.368	-0.045	-0.3059	
-0.989176	0.139446	0.170556	0.07	-0.63	0.28	0.3592	-0.0591	-0.3133	
-0.989176	0.141032	0.1708	0.14	-0.56	0.21	0.3622	-0.0591	-0.3148	
-0.988444	0.142862	0.171532	0.14	-0.7	0.07	0.3666	-0.056	-0.3133	
-0.989298	0.1403	0.175924	0.14	-0.77	-0.07	0.3621	-0.0512	-0.3103	
-0.989054	0.1403	0.171654	0.35	-0.91	0	0.3622	-0.0575	-0.3089	
-0.988932	0.138592	0.171776	-0.07	-0.77	0.35	0.3578	-0.0604	-0.2988	
-0.987468	0.140788	0.174094	0.28	-0.77	0.63	0.3606	-0.0497	-0.3147	
-0.988444	0.138714	0.175924	0.21	-0.84	0.42	0.3562	-0.0559	-0.3104	
-0.987224	0.141032	0.17446	0.35	-0.77	0.07	0.368	-0.045	-0.3044	
-0.986004	0.144936	0.175802	0.49	-0.56	-0.21	0.3666	-0.0544	-0.3103	
-0.985516	0.143472	0.177388	0.42	-0.42	0	0.3666	-0.0527	-0.3001	
-0.986736	0.142862	0.177876	0.35	-0.28	0.07	0.3695	-0.0498	-0.3117	
-0.986858	0.142374	0.1769	0.28	-0.21	0.14	0.3695	-0.0481	-0.3045	
-0.986858	0.141276	0.17751	0.49	-0.28	0.14	0.3532	-0.0479	-0.306	
-0.9882	0.141886	0.175558	0.7	-0.21	0	0.3695	-0.0434	-0.3015	
-0.986492	0.145546	0.176046	0.56	-0.35	-0.07	0.3666	-0.0544	-0.3074	
-0.986614	0.145058	0.176778	0.42	-0.35	-0.28	0.3622	-0.0543	-0.3075	
-0.986492	0.143594	0.175924	0.28	-0.28	0	0.368	-0.0465	-0.3015	
-0.987468	0.141032	0.175924	0.28	-0.14	0	0.3681	-0.0481	-0.3045	
-0.986736	0.141886	0.17446	0.14	-0.07	-0.07	0.3606	-0.0464	-0.3016	
-0.987346	0.141764	0.1769	-0.07	-0.07	-0.21	0.368	-0.0466	-0.3059	
-0.986736	0.142862	0.176412	0.21	-0.14	-0.28	0.3652	-0.0543	-0.3045	
-0.9882	0.142618	0.176412	0.42	-0.14	-0.28	0.3667	-0.0559	-0.2987	
-0.98759	0.14274	0.175558	0.7	-0.21	-0.21	0.3666	-0.0544	-0.3089	
-0.9882	0.141398	0.177266	0.56	-0.14	-0.14	0.3681	-0.0528	-0.306	
-0.98759	0.14213	0.175924	0.63	-0.14	-0.14	0.3577	-0.0479	-0.2987	
-0.988932	0.142984	0.175802	0.35	-0.28	-0.21	0.3667	-0.0543	-0.3016	
-0.988322	0.143228	0.17568	0.07	-0.35	-0.28	0.3621	-0.0495	-0.2958	
-0.98759	0.142252	0.176046	0.14	-0.42	-0.28	0.3711	-0.056	-0.3016	
-0.988078	0.141886	0.177388	0	-0.49	-0.28	0.3665	-0.045	-0.3073	
-0.989786	0.140666	0.176412	0	-0.7	-0.35	0.3591	-0.0512	-0.3118	
-0.990884	0.140544	0.173728	-0.07	-0.84	-0.49	0.3592	-0.059	-0.3119	
-0.990396	0.14274	0.174216	0.07	-1.19	-0.42	0.3651	-0.0528	-0.3074	
-0.990274	0.146278	0.173972	-0.21	-1.47	-0.21	0.3607	-0.056	-0.322	
-0.99064	0.143228	0.173972	-0.56	-1.89	-0.07	0.3532	-0.048	-0.3118	
-0.98942	0.140666	0.174826	-1.05	-2.24	0.14	0.3622	-0.0575	-0.3104	
-0.992104	0.138104	0.174582	-1.61	-2.52	0.21	0.3547	-0.0511	-0.3074	
-0.992104	0.137738	0.174582	-1.68	-3.01	0	0.3443	-0.0526	-0.3177	
-0.993446	0.138836	0.174948	-2.17	-3.36	-0.07	0.3591	-0.0497	-0.3147	
-0.996618	0.137616	0.177144	-1.75	-3.92	0.14	0.3606	-0.0513	-0.3132	
-0.993934	0.13908	0.174216	-1.47	-4.34	0.63	0.3665	-0.0482	-0.3117	
-0.992836	0.13603	0.176046	-0.63	-4.55	1.05	0.3561	-0.0481	-0.3132	
-0.989786	0.13847	0.179584	-0.77	-4.9	0.98	0.3622	-0.056	-0.3147	
-0.990396	0.14152	0.18178	-1.19	-5.32	0.49	0.3638	-0.0606	-0.3031	
-0.987956	0.143838	0.186416	-1.47	-5.74	0.07	0.3606	-0.0545	-0.322	
-0.989054	0.144204	0.187514	-1.47	-5.88	0.14	0.3607	-0.0575	-0.3133	
-0.990152	0.143594	0.19215	-1.61	-6.09	0.07	0.3562	-0.0543	-0.3133	
-0.989054	0.144692	0.19215	-1.61	-6.58	0	0.3576	-0.0497	-0.3205	
-0.988932	0.145912	0.192882	-2.17	-7	-0.07	0.3577	-0.0528	-0.3162	
-0.985394	0.144936	0.19581	-1.54	-7.56	-0.28	0.3516	-0.0418	-0.3161	
-0.989054	0.144326	0.20069	-1.82	-7.84	-0.42	0.3531	-0.0466	-0.3219	
-0.984296	0.146522	0.204594	-2.38	-8.33	-0.56	0.3488	-0.0543	-0.322	
-0.986614	0.144326	0.21045	-1.75	-9.31	-0.42	0.3487	-0.0496	-0.3205	
-0.984906	0.138226	0.211426	-3.22	-9.1	-0.14	0.3471	-0.0466	-0.3292	
-0.985272	0.13725	0.211792	-1.89	-10.01	-0.21	0.3486	-0.0418	-0.3204	
-0.984662	0.14152	0.217526	-1.75	-10.5	-0.49	0.3473	-0.0558	-0.3206	
-0.982222	0.14335	0.218746	-1.82	-11.27	-0.7	0.3487	-0.0512	-0.322	
-0.980148	0.135664	0.21899	-0.91	-13.09	-0.84	0.3545	-0.0404	-0.3321	
-0.981734	0.138836	0.223992	-1.75	-12.88	-1.19	0.3502	-0.0497	-0.3278	
-0.98271	0.139202	0.225212	-1.68	-13.3	-1.19	0.3516	-0.045	-0.3219	
-0.982344	0.134322	0.22936	-1.75	-13.72	-1.19	0.3383	-0.0496	-0.3293	
-0.983564	0.135664	0.235948	-0.35	-13.93	-0.77	0.3471	-0.0436	-0.3394	
-0.982344	0.134322	0.243268	-0.7	-14.21	-0.77	0.3412	-0.0466	-0.338	
-0.981124	0.131394	0.246928	-1.05	-14.49	-0.91	0.3426	-0.0435	-0.3408	
-0.976122	0.129442	0.249856	-0.91	-15.26	-0.77	0.3352	-0.0481	-0.3424	
-0.973682	0.12993	0.254858	-0.84	-15.96	-0.77	0.3249	-0.0559	-0.3483	
-0.967582	0.131394	0.256566	-0.7	-16.38	-0.63	0.3263	-0.0495	-0.338	
-0.970266	0.135176	0.26596	-0.56	-16.45	-0.35	0.3308	-0.0544	-0.3483	
-0.97112	0.138104	0.269376	-0.42	-17.15	-0.07	0.3307	-0.0418	-0.3452	
-0.968314	0.136152	0.276574	-1.4	-17.57	0.14	0.3203	-0.0434	-0.3569	
-0.963922	0.13115	0.280112	-1.96	-17.43	0.35	0.3233	-0.0481	-0.3526	
-0.95831	0.128588	0.284138	-2.31	-17.57	0.35	0.3293	-0.0529	-0.3555	
-0.958554	0.130784	0.295484	-2.1	-17.99	0.21	0.3203	-0.0481	-0.3555	
-0.960628	0.1281	0.30195	-2.38	-17.85	0.63	0.3114	-0.0448	-0.3511	
-0.956236	0.13054	0.305732	-2.03	-18.13	1.05	0.3144	-0.0481	-0.3628	
-0.954772	0.129442	0.312808	-3.01	-17.85	1.47	0.3143	-0.0465	-0.3613	
-0.952698	0.13054	0.314882	-2.66	-17.99	1.82	0.3024	-0.0463	-0.3628	
-0.95221	0.125294	0.321958	-3.01	-18.06	2.17	0.3113	-0.0387	-0.3642	
-0.951112	0.127978	0.326228	-3.71	-17.92	1.82	0.3098	-0.0434	-0.3715	
-0.948794	0.132248	0.332206	-4.13	-18.48	2.03	0.3098	-0.0418	-0.37	
-0.947574	0.129564	0.342576	-4.62	-19.39	2.73	0.3009	-0.0448	-0.3657	
-0.94672	0.12749	0.34892	-3.57	-20.86	2.87	0.2994	-0.0449	-0.3773	
-0.941352	0.12993	0.352824	-3.57	-21.84	3.15	0.292	-0.0479	-0.373	
-0.941108	0.131028	0.360632	-3.5	-22.96	3.36	0.2831	-0.0494	-0.3818	
-0.93818	0.13176	0.364048	-3.71	-24.29	3.57	0.289	-0.0433	-0.3817	
-0.932934	0.131516	0.366854	-4.55	-25.62	3.57	0.2846	-0.0463	-0.3774	
-0.936106	0.136152	0.376614	-5.53	-26.88	3.78	0.2905	-0.0449	-0.3832	
-0.931836	0.133468	0.388448	-5.74	-28.42	4.06	0.277	-0.0417	-0.3948	
-0.931836	0.13481	0.394792	-5.88	-30.45	4.48	0.2696	-0.0415	-0.3905	
-0.92659	0.138714	0.397232	-5.88	-32.76	4.55	0.2696	-0.0384	-0.3919	
-0.922076	0.140788	0.411262	-6.86	-34.58	4.62	0.274	-0.0338	-0.3904	
-0.919636	0.13847	0.421998	-7.56	-35.98	4.76	0.2711	-0.04	-0.389	
-0.91134	0.128222	0.435174	-9.31	-37.1	4.34	0.2502	-0.0367	-0.4036	
-0.901336	0.132004	0.444446	-9.87	-38.43	3.71	0.2547	-0.0399	-0.3992	
-0.889136	0.138104	0.453352	-8.33	-40.32	3.43	0.2397	-0.0335	-0.4079	
-0.883036	0.133102	0.467138	-8.26	-40.6	3.71	0.2441	-0.0304	-0.4064	
-0.878644	0.13542	0.47519	-7.84	-41.44	4.13	0.2397	-0.035	-0.4051	
-0.870348	0.132126	0.488366	-7.7	-42.14	4.97	0.2353	-0.0367	-0.4182	
-0.847168	0.131028	0.506544	-8.96	-43.12	4.62	0.2174	-0.0349	-0.4226	
-0.836676	0.12993	0.515084	-10.01	-43.68	4.27	0.2159	-0.0318	-0.4196	
-0.830698	0.13054	0.531066	-10.22	-44.59	4.48	0.207	-0.0348	-0.4255	
-0.817766	0.130174	0.548512	-9.52	-45.64	5.25	0.1965	-0.0317	-0.4401	
-0.803858	0.135908	0.558028	-10.22	-46.69	5.11	0.1966	-0.038	-0.443	
-0.79544	0.136152	0.58011	-10.15	-46.9	5.95	0.1773	-0.0424	-0.4417	
-0.78629	0.136152	0.594628	-8.26	-47.81	6.72	0.1755	-0.0238	-0.4531	
-0.77653	0.134078	0.604144	-7.91	-47.88	6.79	0.1757	-0.0331	-0.4474	
-0.7686	0.137982	0.62037	-7.35	-48.79	6.37	0.1579	-0.0343	-0.4402	
-0.754326	0.13359	0.640012	-8.61	-49.35	5.88	0.1638	-0.0362	-0.462	
-0.731024	0.13176	0.64965	-9.73	-50.26	5.74	0.1489	-0.0312	-0.4518	
-0.704184	0.12383	0.662582	-12.46	-50.12	4.9	0.1443	-0.0249	-0.4547	
-0.681004	0.116144	0.671854	-12.81	-49.49	4.76	0.14	-0.0295	-0.4446	
-0.65941	0.112362	0.687592	-13.23	-48.79	4.76	0.1235	-0.0263	-0.4577	
-0.636962	0.10919	0.699304	-13.02	-48.23	5.11	0.131	-0.0279	-0.4577	
-0.626592	0.10492	0.715408	-12.32	-47.18	5.88	0.1085	-0.0167	-0.462	
-0.620492	0.099674	0.729682	-11.62	-45.99	5.81	0.1026	-0.023	-0.4679	
-0.606828	0.09638	0.748226	-7.91	-46.41	6.23	0.0966	-0.0167	-0.4751	
-0.587796	0.099186	0.767746	-6.02	-44.66	6.02	0.08769999	-0.0182	-0.478	
-0.581452	0.103822	0.776408	-4.13	-44.59	6.37	0.0773	-0.0228	-0.481	
-0.577304	0.102968	0.77165	-4.13	-45.57	6.72	0.0639	-0.0194	-0.4767	
-0.550708	0.121756	0.79117	-2.24	-44.24	7.56	0.055	-0.0208	-0.4738	
-0.537898	0.117974	0.80947	-7.63	-39.41	6.93	0.0518	-0.002	-0.4751	
-0.51484	0.111142	0.83082	-8.05	-38.29	6.37	0.0458	-0.002	-0.4809	
-0.503616	0.11651	0.833992	-6.02	-38.15	6.09	0.0326	-0.0128	-0.4825	
-0.48739	0.114802	0.840092	-6.58	-35.63	5.74	0.0371	-0.0129	-0.481	
-0.488122	0.125904	0.859856	-5.6	-32.62	6.09	0.0238	-0.0189	-0.4782	
-0.47519	0.119194	0.871568	-5.18	-30.73	5.32	0.0193	-0.0205	-0.487	
-0.475434	0.120414	0.874374	-5.67	-28.84	4.41	0.0147	-0.0063	-0.4839	
-0.469578	0.118584	0.877058	-6.02	-26.25	4.27	0.0117	-0.0078	-0.4782	
-0.452376	0.097722	0.887794	-6.3	-24.01	3.64	0.0133	-0.0172	-0.4782	
-0.457988	0.108092	0.88511	-7	-20.65	3.01	-0.0044	-0.0155	-0.487	
-0.452498	0.101992	0.892308	-5.67	-19.32	2.45	0.0027	-0.0014	-0.4752	
-0.447252	0.097966	0.892064	-5.53	-16.87	1.82	-0.0017	0.0033	-0.4752	
-0.438102	0.079178	0.90219	-4.9	-15.19	1.12	-0.0045	-0.006	-0.4753	
-0.438102	0.086498	0.897676	-3.01	-13.23	1.54	-0.0105	-0.0059	-0.4782	
-0.439078	0.09272	0.895846	-2.66	-10.29	1.19	-0.0166	0.0049	-0.4883	
-0.439322	0.091866	0.89853	-2.87	-8.47	0.91	-0.0076	-0.0046	-0.4913	
-0.439322	0.091744	0.901946	-2.45	-6.51	0.84	-0.0106	0.0016	-0.4912	
-0.437858	0.092354	0.899506	-2.1	-5.04	0.63	-0.0195	-0.0028	-0.4898	
-0.447984	0.101748	0.895114	-1.82	-3.64	0.35	-0.009099999	-0.0013	-0.484	
-0.436272	0.08601	0.897554	-2.24	-2.66	0.77	-0.0181	0.0033	-0.4883	
-0.433954	0.083814	0.89426	-2.52	-1.47	0.77	-0.018	-0.0028	-0.4884	
-0.438468	0.092232	0.89182	-1.82	-0.14	0.77	-0.0239	-0.0074	-0.4841	
-0.437614	0.092476	0.892064	-1.54	0.63	0.56	-0.0181	0.0049	-0.4883	
-0.439566	0.09028	0.890966	-1.54	1.61	0.56	-0.0239	-0.0027	-0.484	
-0.443958	0.091134	0.890844	-1.33	2.38	0.84	-0.0195	0.0002	-0.4912	
-0.446642	0.094428	0.890356	-0.91	3.01	1.12	-0.0151	0.0017	-0.4898	
-0.450302	0.094184	0.894626	-0.84	3.78	1.26	-0.0196	0.0065	-0.4825	
-0.452254	0.09162199	0.886208	-0.21	4.34	1.33	-0.009099999	0.0002	-0.4796	
-0.45079	0.093696	0.882548	0.35	4.69	1.33	-0.0062	0.0033	-0.481	
-0.45323	0.095892	0.882548	0.56	5.25	1.4	-0.0001	-0.0013	-0.4723	
-0.454816	0.099186	0.878644	1.26	5.88	1.33	-0.0166	0.0081	-0.4824	
-0.46116	0.104676	0.878034	0.91	7.35	1.05	-0.012	-0.006	-0.4884	
-0.46665	0.101626	0.879132	0.91	8.12	0.98	-0.009	-0.0044	-0.4767	
-0.469578	0.102358	0.877668	1.4	8.75	0.91	-0.009099999	-0.0014	-0.4927	
-0.474824	0.101382	0.876936	1.47	9.31	0.91	-0.0105	-0.0028	-0.4782	
-0.47702	0.099552	0.873642	1.61	9.73	0.63	-0.0076	-0.0028	-0.4782	
-0.478362	0.10126	0.876082	1.4	10.15	0.28	-0.006	-0.006	-0.4796	
-0.474946	0.101992	0.872788	2.17	10.57	0.28	-0.0033	0.0095	-0.478	
-0.47336	0.105408	0.87474	2.38	11.34	0	0.0071	0.0031	-0.481	
-0.475678	0.102358	0.878034	2.52	12.39	-0.28	0.0042	0	-0.4839	
-0.477996	0.101382	0.872056	2.8	13.37	-0.63	0.0087	-0.0031	-0.4854	
-0.478606	0.1037	0.86681	3.29	14.42	-0.98	0.0087	-0.0062	-0.4796	
-0.481046	0.104798	0.866322	2.45	15.54	-1.89	0.0057	0.0015	-0.4839	
-0.482754	0.100406	0.861076	2.59	16.52	-2.38	0.0057	-0.0016	-0.4883	
-0.48251	0.100528	0.858758	3.15	17.78	-2.52	0.0116	-0.0016	-0.481	
-0.491416	0.097112	0.854366	3.22	19.6	-2.73	0.0251	-0.0112	-0.4883	
-0.496784	0.098332	0.857294	4.2	20.72	-2.66	0.0191	-0.0064	-0.4854	
-0.50203	0.103334	0.860222	4.62	21.49	-2.94	0.0236	-0.0033	-0.481	
-0.510082	0.104554	0.849486	5.04	22.75	-3.22	0.0281	-0.0096	-0.4796	
-0.51301	0.097844	0.840946	5.32	24.08	-3.57	0.0312	-0.0191	-0.4884	
-0.52033	0.094062	0.828502	5.6	26.39	-4.06	0.043	-0.0129	-0.4781	
-0.529236	0.09821	0.823378	6.93	28.7	-4.27	0.0429	-0.0067	-0.4824	
-0.53863	0.105164	0.82045	8.68	31.08	-3.78	0.0475	-0.013	-0.4825	
-0.548756	0.104798	0.813252	9.24	33.95	-3.5	0.0532	-0.0006	-0.4838	
-0.558394	0.108824	0.80459	9.8	36.61	-3.5	0.0683	-0.0148	-0.481	
-0.56913	0.11041	0.793366	10.78	38.92	-3.36	0.0653	-0.0085	-0.4751	
-0.57645	0.116998	0.783606	11.27	41.37	-3.64	0.073	-0.0289	-0.4767	
-0.583892	0.11895	0.77653	11.55	43.75	-3.78	0.0787	-0.0102	-0.4693	
-0.596336	0.11773	0.765428	12.32	46.2	-3.99	0.0848	-0.0259	-0.4752	
-0.606706	0.120902	0.753106	13.44	48.51	-3.92	0.1011	-0.0183	-0.4736	
-0.613294	0.12383	0.738344	13.23	50.96	-4.34	0.1101	-0.0294	-0.4752	
-0.627202	0.12444	0.725656	14.07	52.64	-4.55	0.1116	-0.0247	-0.4679	
-0.643794	0.123464	0.705892	13.93	54.53	-4.41	0.1205	-0.0263	-0.4679	
-0.659654	0.12871	0.696864	13.93	56.14	-4.34	0.1295	-0.0279	-0.4606	
-0.667706	0.127124	0.67649	14.7	57.68	-4.13	0.131	-0.0295	-0.462	
-0.6832	0.13176	0.662704	14.63	59.36	-4.27	0.1474	-0.0328	-0.4562	
-0.695888	0.140666	0.637938	15.05	60.76	-4.69	0.1534	-0.036	-0.4548	
-0.710528	0.15494	0.61854	14.7	62.37	-5.32	0.1698	-0.0345	-0.4402	
-0.735782	0.14701	0.586454	13.3	64.54	-5.95	0.1772	-0.033	-0.4372	
-0.749202	0.155794	0.57462	14.07	64.47	-5.95	0.1774	-0.0455	-0.4344	
-0.776042	0.147498	0.548756	12.74	65.45	-5.81	0.2027	-0.0472	-0.4213	
-0.794098	0.139934	0.531432	12.67	65.8	-6.16	0.2101	-0.0458	-0.4227	
-0.812032	0.143716	0.508862	14.7	65.59	-6.37	0.2205	-0.0396	-0.4124	
-0.825696	0.149938	0.483242	15.96	65.87	-6.79	0.2309	-0.0476	-0.4227	
-0.84241	0.161528	0.45384	15.4	66.5	-6.79	0.2489	-0.054	-0.411	
-0.854366	0.16409	0.429928	14.56	67.06	-6.72	0.2473	-0.0493	-0.4125	
-0.86437	0.166042	0.40443	13.3	67.27	-6.44	0.2533	-0.0446	-0.4008	
-0.876692	0.16409	0.38369	13.37	67.13	-5.81	0.2727	-0.0495	-0.3978	
-0.895114	0.16348	0.368684	14.14	65.8	-5.95	0.2652	-0.0478	-0.3964	
-0.902556	0.15677	0.352458	15.89	64.19	-6.02	0.2876	-0.0558	-0.3848	
-0.918172	0.16653	0.334646	16.31	63.56	-6.16	0.2979	-0.0449	-0.3759	
-0.928542	0.165676	0.308782	14.77	63.28	-6.79	0.3011	-0.0605	-0.3673	
-0.952698	0.167994	0.287432	12.39	64.12	-7.7	0.3027	-0.0652	-0.3688	
-0.971852	0.177876	0.261934	9.52	64.05	-7.7	0.3099	-0.0512	-0.3643	
-0.977586	0.16287	0.239852	3.5	64.89	-8.05	0.322	-0.0574	-0.3483	
-0.977708	0.153598	0.219966	1.61	64.12	-7.56	0.3353	-0.0528	-0.3395	
-0.9943	0.137494	0.185806	3.85	62.86	-9.8	0.3413	-0.0559	-0.3323	
-0.995032	0.131028	0.156404	0.07	58.8	-9.8	0.3413	-0.0543	-0.3279	
-1.00345	0.140178	0.14457	3.5	57.75	-11.9	0.3562	-0.0511	-0.3089	
-1.007232	0.13481	0.134444	3.36	56.28	-11.34	0.362	-0.045	-0.3146	
-1.012234	0.13847	0.121268	3.57	54.39	-11.69	0.362	-0.0418	-0.3044	
-1.016138	0.133102	0.10553	1.33	52.5	-11.83	0.3725	-0.045	-0.2957	
-1.019676	0.122732	0.088572	1.19	49.84	-12.39	0.3889	-0.0452	-0.2956	
-1.018456	0.11346	0.060756	3.29	47.18	-11.34	0.3904	-0.0468	-0.2957	
-1.02541	0.110776	0.045872	4.69	44.66	-9.94	0.3918	-0.0403	-0.2752	
-1.030046	0.117608	0.026962	6.93	43.75	-8.47	0.3919	-0.0465	-0.2738	
-1.025898	0.12444	0.015006	8.54	41.09	-7.56	0.3949	-0.045	-0.2723	
-1.01931	0.12505	0.00671	7.84	40.67	-6.58	0.4024	-0.0529	-0.268	
-1.017358	0.125416	-0.005002	7.35	39.13	-6.3	0.401	-0.0527	-0.255	
-1.01321	0.121268	-0.017324	6.37	38.78	-5.88	0.4083	-0.0434	-0.2563	
-1.01931	0.114924	-0.024034	6.79	37.31	-5.74	0.4024	-0.0496	-0.252	
-1.014064	0.116266	-0.041114	7.56	35.91	-5.11	0.4128	-0.0481	-0.2461	
-1.013088	0.110166	-0.052338	6.72	34.79	-4.2	0.4217	-0.0466	-0.2417	
-1.020286	0.110654	-0.063928	8.4	32.76	-3.78	0.4187	-0.0402	-0.2344	
-1.023702	0.111996	-0.07137	8.61	32.34	-3.08	0.4306	-0.0387	-0.2256	
-1.029192	0.095038	-0.07905599	6.86	30.17	-2.73	0.4248	-0.0479	-0.2199	
-1.02724	0.095404	-0.091988	7.42	28.7	-3.01	0.4217	-0.0416	-0.2184	
-1.02785	0.09857599	-0.108092	6.93	26.74	-2.8	0.4248	-0.0463	-0.2185	
-1.028338	0.093452	-0.108214	3.99	25.83	-2.1	0.4188	-0.0447	-0.2228	
-1.025166	0.091744	-0.119926	4.9	25.06	-2.17	0.441	-0.0403	-0.2213	
-1.022604	0.093818	-0.132248	6.3	24.85	-1.54	0.4366	-0.0401	-0.2067	
-1.021018	0.096136	-0.133102	5.32	23.31	-0.84	0.4426	-0.0448	-0.1995	
-1.00955	0.095648	-0.135542	5.32	22.26	-1.89	0.4351	-0.0384	-0.198	
-1.001742	0.097844	-0.141032	6.51	21.21	-1.61	0.4383	-0.0494	-0.1981	
-1.0065	0.089426	-0.144082	4.83	21.42	-1.12	0.4307	-0.0399	-0.1966	
-0.987346	0.106384	-0.150914	5.53	20.23	1.19	0.4412	-0.0415	-0.1878	
-0.995154	0.099918	-0.163358	4.69	21.98	-0.35	0.4353	-0.0477	-0.185	
-1.008574	0.097234	-0.157502	5.11	20.44	-1.33	0.4396	-0.0383	-0.1805	
-1.007964	0.095648	-0.165676	5.18	19.95	-1.89	0.4353	-0.0491	-0.1748	
-1.011136	0.097966	-0.17263	5.67	19.32	-1.68	0.4441	-0.0352	-0.1776	
-1.025288	0.099796	-0.177876	4.9	17.36	-1.12	0.4487	-0.043	-0.1689	
-1.048468	0.097234	-0.178608	4.48	15.05	-1.26	0.4427	-0.0445	-0.1733	
-1.036878	0.115168	-0.197274	5.6	10.57	-0.7	0.4502	-0.0446	-0.1747	
-1.03822	0.104066	-0.20252	3.5	8.82	-0.07	0.4472	-0.0444	-0.1602	
-1.016504	0.112972	-0.204106	2.52	6.58	-2.24	0.4502	-0.0477	-0.1704	
-1.009794	0.105652	-0.207644	0.7	5.18	-1.33	0.4427	-0.0429	-0.166	
-0.999424	0.106994	-0.213012	-0.77	4.06	-1.19	0.4473	-0.0491	-0.1602	
-0.995764	0.109312	-0.21899	0.07	3.92	-1.33	0.4457	-0.046	-0.1646	
-0.990152	0.111508	-0.21777	-0.84	4.69	-1.75	0.4458	-0.0491	-0.1588	
-0.99491	0.099308	-0.227652	-0.63	4.9	-1.54	0.4502	-0.0477	-0.1675	
-0.991494	0.10919	-0.223382	-0.91	5.04	-2.94	0.4516	-0.0413	-0.1587	
-0.991006	0.116144	-0.225822	-0.84	4.76	-2.73	0.4472	-0.0428	-0.1529	
-0.997838	0.118584	-0.223382	-2.45	3.99	-2.59	0.4442	-0.0365	-0.1587	
-1.006134	0.110166	-0.224846	-2.03	3.71	-2.31	0.4458	-0.0506	-0.1588	
-1.007476	0.106628	-0.23119	-2.52	2.8	-2.1	0.4413	-0.0458	-0.15	
-1.005036	0.106872	-0.23058	-1.96	2.38	-1.61	0.4472	-0.0428	-0.1514	
-0.996618	0.101626	-0.232654	-1.96	2.24	-1.26	0.447	-0.0287	-0.1542	
-0.991372	0.107482	-0.223748	-1.61	1.89	-0.98	0.4576	-0.0414	-0.1601	
-0.996984	0.107238	-0.217038	-2.03	0.7	-0.77	0.4546	-0.0383	-0.1674	
-0.994422	0.09516	-0.217892	-1.05	0.35	-0.07	0.4502	-0.0476	-0.1602	
-0.992714	0.0976	-0.215086	-1.89	0.14	0.14	0.4413	-0.0491	-0.1632	
-1.0004	0.093818	-0.21106	-2.8	-0.7	0.35	0.4487	-0.0444	-0.1558	
-1.00467	0.091134	-0.212768	-1.82	-1.19	0.49	0.4562	-0.0461	-0.1587	
-1.008086	0.091744	-0.217892	-3.64	-1.33	0.28	0.4456	-0.035	-0.1557	
-1.00223	0.09211	-0.212646	-3.85	-2.38	-0.28	0.4502	-0.0444	-0.1587	
-1.012112	0.093818	-0.204716	-4.9	-3.29	-0.07	0.4546	-0.0445	-0.1631	
-1.01138	0.082716	-0.209474	-3.08	-4.41	-0.35	0.4501	-0.0414	-0.166	
-1.011868	0.083204	-0.209474	-3.29	-5.53	0.07	0.4487	-0.046	-0.1631	
-1.007354	0.086132	-0.207156	-3.15	-6.37	0.42	0.4486	-0.0335	-0.163	
-1.00894	0.081496	-0.201178	-2.87	-7.77	0.42	0.4516	-0.0383	-0.1645	
-1.019066	0.093696	-0.20313	-1.19	-9.94	0.42	0.4442	-0.0413	-0.166	
-1.011868	0.099552	-0.209718	-1.12	-11.76	1.19	0.4487	-0.0459	-0.1558	
-1.011502	0.091988	-0.194102	-3.5	-13.02	1.61	0.4427	-0.0413	-0.1689	
-1.012844	0.098332	-0.198738	-1.33	-14.7	2.31	0.4412	-0.0381	-0.1645	
-1.01443	0.09455	-0.19276	-2.31	-15.54	2.66	0.4397	-0.0397	-0.166	
-1.013576	0.097844	-0.18544	-0.84	-17.36	2.31	0.4427	-0.0429	-0.1718	
-1.01382	0.10309	-0.182024	0.14	-18.97	2.31	0.4559	-0.0291	-0.176	
-1.014674	0.102846	-0.176046	-0.91	-20.09	2.52	0.447	-0.0305	-0.1731	
-1.020774	0.106628	-0.167018	-0.63	-21.56	2.38	0.4562	-0.0494	-0.1777	
-1.01382	0.105774	-0.157624	-2.31	-23.45	2.87	0.4486	-0.04	-0.1805	
-1.020896	0.10736	-0.15921	-2.45	-24.36	3.43	0.4457	-0.0479	-0.1951	
-1.028094	0.11102	-0.15555	-3.71	-24.71	3.85	0.4382	-0.0432	-0.2024	
-1.0248	0.119072	-0.157502	-4.27	-25.48	4.06	0.4427	-0.0511	-0.2039	
-1.011258	0.11468	-0.141032	-8.33	-25.2	3.99	0.4308	-0.051	-0.2054	
-1.012234	0.116022	-0.12444	-9.66	-25.62	2.73	0.4442	-0.048	-0.2068	
-1.009184	0.11773	-0.120902	-10.43	-26.74	2.45	0.4293	-0.051	-0.2083	
-1.012234	0.115534	-0.1098	-10.78	-26.74	2.52	0.4292	-0.0432	-0.214	
-1.017846	0.113582	-0.089304	-10.57	-27.3	2.59	0.4232	-0.037	-0.2227	
-1.020408	0.116998	-0.087962	-8.89	-28.42	3.01	0.4218	-0.0463	-0.2199	
-1.027484	0.109434	-0.076372	-8.47	-29.68	3.5	0.4277	-0.0418	-0.2242	
-1.028704	0.107604	-0.06954	-9.45	-30.52	3.08	0.4202	-0.037	-0.2242	
-1.031754	0.113582	-0.055266	-8.47	-31.78	2.66	0.4202	-0.037	-0.2271	
-1.028216	0.111996	-0.05124	-8.54	-33.32	2.66	0.4127	-0.037	-0.2329	
-1.034194	0.115656	-0.0366	-8.54	-34.51	2.66	0.4232	-0.0465	-0.2345	
-1.038098	0.123342	-0.032208	-7.49	-38.64	2.66	0.4157	-0.0403	-0.2475	
-1.031144	0.124684	-0.0183	-8.82	-38.92	2.31	0.4098	-0.0465	-0.2476	
-1.032364	0.122	-0.007442	-9.1	-41.79	3.15	0.3963	-0.0386	-0.2621	
-1.03395	0.122732	0.006588	-8.75	-42.98	2.8	0.3978	-0.0402	-0.2636	
-1.027484	0.124318	0.01952	-8.96	-44.59	1.96	0.3948	-0.0387	-0.2723	
-1.029314	0.124562	0.025864	-12.04	-45.01	1.68	0.3888	-0.0403	-0.2781	
-1.022482	0.13298	0.034526	-9.31	-46.06	1.61	0.3828	-0.0324	-0.281	
-1.016138	0.13603	0.061488	-12.53	-45.43	1.4	0.3872	-0.0325	-0.2824	
-1.011624	0.135664	0.07137	-12.6	-45.99	2.17	0.3858	-0.0404	-0.2883	
-1.015406	0.122122	0.08967	-14.7	-46.76	2.87	0.3813	-0.0341	-0.2955	
-1.000278	0.116022	0.10004	-13.72	-49.21	2.59	0.365	-0.0403	-0.3058	
-1.00101	0.099308	0.127002	-13.16	-50.26	2.73	0.3619	-0.0356	-0.3116	
-0.997594	0.101016	0.14945	-14.98	-49.56	2.73	0.3634	-0.0358	-0.3247	
-0.996374	0.106262	0.172508	-13.37	-50.68	2.59	0.3484	-0.0309	-0.3276	
-0.99308	0.101016	0.195566	-14.35	-51.66	2.45	0.3483	-0.02	-0.3275	
-0.98576	0.0976	0.219844	-12.88	-53.2	3.57	0.3439	-0.0247	-0.3377	
-0.973072	0.111508	0.242536	-10.57	-54.18	4.83	0.3423	-0.0217	-0.3493	
-0.974414	0.102358	0.266326	-10.57	-55.58	4.41	0.332	-0.031	-0.3495	
-0.965874	0.106018	0.289506	-5.39	-61.74	3.71	0.3229	-0.02	-0.3567	
-0.968314	0.105652	0.31293	-7.07	-61.46	3.22	0.311	-0.0199	-0.3596	
-0.95648	0.1037	0.332572	-10.08	-59.85	3.36	0.3141	-0.0325	-0.3684	
-0.926712	0.105408	0.35868	-9.24	-61.32	2.8	0.296	-0.0136	-0.3741	
-0.90463	0.104188	0.386252	-11.06	-62.16	2.38	0.2769	-0.0258	-0.3758	
-0.886818	0.094916	0.409798	-12.32	-62.02	2.8	0.2843	-0.026	-0.383	
-0.870348	0.086986	0.42456	-10.78	-61.46	3.36	0.2679	-0.0259	-0.3947	
-0.850828	0.09357399	0.443226	-9.17	-61.67	4.2	0.2529	-0.018	-0.4048	
-0.834236	0.100772	0.468968	-8.33	-61.88	4.97	0.2469	-0.0164	-0.4107	
-0.822646	0.098942	0.492148	-6.37	-62.3	5.39	0.235	-0.0132	-0.4136	
-0.811544	0.10248	0.50752	-6.09	-61.18	6.02	0.2367	-0.0304	-0.4137	
-0.801906	0.108458	0.522648	-6.44	-59.99	5.74	0.2291	-0.0195	-0.4224	
-0.788852	0.109556	0.540948	-7.35	-59.57	5.67	0.2261	-0.021	-0.4224	
-0.778604	0.111142	0.554612	-7.14	-59.43	5.25	0.2082	-0.0177	-0.4311	
-0.759572	0.112118	0.568276	-7	-59.15	5.04	0.2097	-0.0177	-0.4268	
-0.748958	0.118584	0.589138	-6.79	-58.24	4.62	0.1919	-0.0192	-0.4414	
-0.736758	0.123708	0.60573	-7.35	-57.61	4.06	0.1816	-0.03	-0.4459	
-0.724802	0.114192	0.63013	-9.38	-56.42	4.34	0.1725	-0.0189	-0.4414	
-0.7076	0.110654	0.631594	-8.89	-55.37	3.99	0.1635	-0.0126	-0.4501	
-0.696376	0.110044	0.640256	-9.24	-54.18	2.8	0.159	-0.0111	-0.453	
-0.68381	0.11773	0.659166	-8.4	-53.55	1.75	0.1456	-0.0125	-0.4574	
-0.6771	0.119072	0.69113	-9.03	-51.59	1.61	0.1322	-0.0077	-0.4647	
-0.67161	0.114314	0.695888	-9.66	-50.05	0.56	0.1306	-0.0046	-0.4676	
-0.657336	0.097356	0.710162	-10.29	-48.58	-0.14	0.1263	-0.0075	-0.4575	
-0.652944	0.108946	0.72712	-10.29	-46.9	-0.84	0.1157	-0.0013	-0.472	
-0.637694	0.106018	0.742736	-10.43	-45.64	-1.33	0.0979	0.0021	-0.4633	
-0.62464	0.095648	0.754082	-10.5	-44.38	-1.33	0.0905	-0.0024	-0.4604	
-0.611952	0.089548	0.762256	-10.85	-42.77	-2.03	0.0875	-0.0024	-0.4633	
-0.600118	0.086132	0.777384	-10.85	-41.58	-2.31	0.0918	0.0083	-0.4734	
-0.58743	0.07991	0.78934	-10.5	-40.74	-2.66	0.0919	0.0022	-0.4589	
-0.574376	0.07515199	0.794952	-10.57	-39.55	-2.45	0.0623	-0.007	-0.4824	
-0.560102	0.072468	0.806786	-10.22	-38.22	-2.24	0.0637	-0.0023	-0.4809	
-0.540582	0.062098	0.819352	-8.68	-37.17	-2.03	0.0591	0.0023	-0.4881	
-0.525576	0.066246	0.823744	-7.91	-35.49	-1.68	0.0473	0.0041	-0.4765	
-0.512766	0.06222	0.831064	-7.28	-33.88	-1.68	0.0577	-0.0007	-0.4896	
-0.508618	0.060024	0.84119	-7.28	-31.71	-2.17	0.0471	0.015	-0.4836	
-0.496784	0.055144	0.85095	-5.18	-30.1	-2.31	0.0323	0.0074	-0.4794	
-0.49227	0.049898	0.85949	-6.37	-27.37	-2.59	0.0338	0.009	-0.4808	
-0.48678	0.050264	0.870348	-6.37	-24.99	-2.73	0.0264	0.0044	-0.4794	
-0.480802	0.048434	0.879376	-5.04	-22.33	-2.66	0.0277	0.0248	-0.4734	
-0.46543	0.037332	0.87718	-5.32	-19.46	-2.52	0.0172	0.0248	-0.4851	
-0.46543	0.036478	0.879498	-4.48	-16.8	-2.1	0.0173	0.0186	-0.4808	
-0.463844	0.039284	0.885354	-4.69	-14.28	-2.45	0.0129	0.0156	-0.4764	
-0.458842	0.026596	0.883524	-4.27	-12.81	-2.45	0.0113	0.0218	-0.4822	
-0.463234	0.03538	0.887306	-2.24	-10.71	-2.1	0.0113	0.0218	-0.4822	
-0.46482	0.036112	0.881938	-2.38	-8.61	-1.54	0.0069	0.0234	-0.4807	
-0.469334	0.035136	0.88145	-2.66	-7.63	-1.75	0.007	0.0157	-0.4736	
-0.472506	0.032086	0.883524	-2.45	-6.58	-1.33	-0.0138	0.019	-0.4823	
-0.47397	0.029768	0.887916	-2.38	-5.39	-1.05	0.0009	0.0236	-0.472	
-0.47214	0.030622	0.88938	-1.12	-4.48	-0.84	0.0024	0.0235	-0.4793	
-0.473482	0.029402	0.887672	-1.05	-3.36	-0.63	-0.007999999	0.0267	-0.4866	
-0.473238	0.027328	0.889868	-0.14	-2.38	-0.42	-0.0004	0.0203	-0.4852	
-0.472872	0.030256	0.890844	0.28	-1.26	-0.28	-0.0064	0.0251	-0.4851	
-0.471774	0.036966	0.888038	0.77	0	0	-0.0065	0.0282	-0.4836	
-0.472018	0.037454	0.887916	1.26	1.19	0.07	-0.0004	0.0187	-0.4925	
-0.470066	0.033428	0.886574	1.47	2.31	0.14	0.0099	0.0201	-0.491	
-0.468968	0.038308	0.88694	2.03	4.06	0.07	0.0009999999	0.0172	-0.4837	
-0.468602	0.04087	0.889502	2.17	5.25	-0.07	-0.0004	0.0189	-0.4735	
-0.46909	0.041236	0.889136	2.59	7	-0.07	0.0039	0.0203	-0.4793	
-0.468114	0.03843	0.893162	2.45	8.68	-0.07	0.0039	0.0187	-0.4852	
-0.468236	0.038552	0.88938	3.01	10.36	0	0.0054	0.0219	-0.4793	
-0.464942	0.03782	0.890234	3.57	12.32	-0.07	-0.0004	0.0205	-0.4721	
-0.46726	0.043066	0.89121	4.27	14.56	-0.14	0.01	0.0124	-0.4823	
-0.470066	0.045384	0.887794	4.55	17.15	-0.28	0.016	0.0124	-0.4721	
-0.474702	0.040504	0.885964	4.97	19.67	-0.14	0.0189	0.0123	-0.4808	
-0.47641	0.03599	0.887184	5.74	22.4	-0.35	0.0159	0.0124	-0.4736	
-0.475922	0.038552	0.878278	7.28	24.71	-0.63	0.0204	0.0123	-0.4808	
-0.482754	0.03965	0.87169	8.12	27.79	-0.98	0.0292	0.0184	-0.4851	
-0.487634	0.042334	0.8662	8.96	30.52	-1.33	0.0354	0.0043	-0.4794	
-0.493734	0.050142	0.860832	9.73	33.81	-1.4	0.0399	-0.0019	-0.4766	
-0.501786	0.060146	0.852292	10.57	36.68	-1.54	0.0442	0.0104	-0.4779	
-0.51118	0.061244	0.844118	10.64	39.9	-1.82	0.0473	0.0041	-0.4765	
-0.522038	0.056852	0.833992	10.78	43.05	-1.96	0.0576	0.0056	-0.4779	
-0.530212	0.058194	0.821548	11.83	46.2	-2.38	0.0725	0.0038	-0.4735	
-0.55266	0.06588	0.79971	11.76	50.68	-2.87	0.06659999	0.0008	-0.4706	
-0.563762	0.06649	0.785924	11.34	53.48	-2.94	0.0829	0.0085	-0.4647	
-0.573888	0.065758	0.768722	10.85	56.28	-3.36	0.0874	0.0036	-0.4734	
-0.595238	0.073566	0.755424	10.99	58.94	-3.57	0.0964	0.0004	-0.4691	
-0.612928	0.074542	0.731268	10.43	61.67	-3.64	0.1039	-0.0058	-0.4648	
-0.634156	0.073078	0.710406	10.36	63.77	-3.29	0.1187	-0.0029	-0.4691	
-0.653432	0.0732	0.687714	10.57	65.59	-3.01	0.1202	-0.0013	-0.4618	
-0.671732	0.077592	0.667462	10.78	67.06	-2.94	0.1262	0.0002	-0.4574	
-0.692716	0.08662	0.649894	9.59	68.53	-3.22	0.153	-0.0078	-0.4501	
-0.704306	0.081252	0.629642	9.73	69.37	-3.5	0.1634	-0.0064	-0.4486	
-0.726022	0.079788	0.603778	9.31	70.98	-3.15	0.177	-0.0175	-0.4472	
-0.751276	0.09552599	0.56425	8.47	72.38	-3.22	0.1843	-0.0049	-0.4354	
-0.771894	0.099552	0.54046	6.93	73.29	-2.87	0.1993	-0.0145	-0.4326	
-0.786534	0.104676	0.518378	7.14	72.73	-1.96	0.2081	-0.0068	-0.4339	
-0.803492	0.105164	0.50203	6.86	72.1	-1.4	0.2275	-0.0133	-0.4325	
-0.832528	0.09638	0.484218	6.23	71.4	-1.33	0.232	-0.0163	-0.4194	
-0.853024	0.086742	0.46543	7.14	70.07	-1.05	0.2366	-0.0242	-0.4151	
-0.876936	0.091134	0.452864	7.21	68.04	-1.12	0.253	-0.0258	-0.4049	
-0.903166	0.102236	0.419314	7.77	65.24	-1.19	0.2514	-0.0149	-0.4077	
-0.91805	0.109312	0.399306	7.21	63.91	-1.26	0.2663	-0.0181	-0.3917	
-0.920612	0.102724	0.380396	8.4	62.51	-0.63	0.2723	-0.0214	-0.4048	
-0.924516	0.104432	0.355508	10.08	61.04	-0.07	0.2873	-0.0308	-0.3874	
-0.925492	0.100894	0.33367	9.24	61.74	-0.84	0.2916	-0.0167	-0.3829	
-0.920612	0.107238	0.30866	10.99	60.97	-1.54	0.2947	-0.0214	-0.3742	
-0.934032	0.11468	0.293776	9.52	61.11	-2.59	0.311	-0.0199	-0.361	
-0.937204	0.116144	0.276574	10.85	60.13	-2.52	0.3171	-0.0325	-0.3612	
-0.944524	0.11468	0.259616	10.29	59.92	-1.96	0.3156	-0.0294	-0.3655	
-0.958554	0.109434	0.245342	10.5	60.48	-1.75	0.3246	-0.0339	-0.3437	
-0.96929	0.109556	0.224602	11.76	59.5	-2.1	0.3291	-0.0292	-0.3393	
-0.970144	0.099308	0.199348	7.28	62.58	-4.27	0.3379	-0.0214	-0.3261	
-0.982466	0.099918	0.174338	11.34	60.27	-5.25	0.3426	-0.0369	-0.3102	
-0.985882	0.103456	0.152866	14.28	58.66	-5.46	0.3544	-0.0309	-0.3203	
-0.989054	0.10187	0.135298	16.52	58.66	-5.88	0.3708	-0.0326	-0.3116	
-0.994666	0.087718	0.121146	16.31	57.75	-5.74	0.3679	-0.0325	-0.3028	
-0.993934	0.09699	0.102968	19.39	55.02	-5.11	0.3754	-0.0403	-0.2927	
-1.011502	0.09467199	0.082472	18.06	54.67	-5.74	0.3857	-0.0295	-0.2969	
-1.02175	0.093452	0.060024	21.35	51.59	-6.09	0.3903	-0.0356	-0.2781	
-1.023458	0.086986	0.0183	18.27	48.51	-4.83	0.3933	-0.0387	-0.2723	
-1.03883	0.089426	0.002806	12.32	44.94	-4.83	0.3947	-0.0341	-0.2737	
-1.03639	0.111142	-0.02623	24.64	42.28	-4.13	0.4022	-0.0371	-0.2592	
-1.036024	0.107482	-0.03477	20.79	39.13	-3.64	0.4052	-0.0372	-0.2606	
-1.040172	0.108702	-0.052948	22.12	37.03	-3.57	0.4052	-0.034	-0.2533	
-1.045418	0.105896	-0.06771	19.88	35.14	-3.92	0.4083	-0.0433	-0.2417	
-1.038098	0.101138	-0.080642	15.61	34.44	-4.34	0.4038	-0.0385	-0.2373	
-1.028094	0.093452	-0.089914	13.02	33.81	-6.02	0.4128	-0.0401	-0.2344	
-1.030778	0.088572	-0.09333	11.9	33.32	-6.72	0.4201	-0.0355	-0.23	
-1.034682	0.090036	-0.101504	11.9	32.55	-7.42	0.4187	-0.0386	-0.2329	
-1.030534	0.085766	-0.119926	10.08	31.29	-6.93	0.4143	-0.0432	-0.2272	
-1.038464	0.081984	-0.117242	8.75	30.59	-6.79	0.4231	-0.0291	-0.2125	
-1.036268	0.085034	-0.125904	9.73	28.84	-6.09	0.4247	-0.0401	-0.2169	
-1.03944	0.083692	-0.129442	10.5	27.3	-5.6	0.4306	-0.0369	-0.2067	
-1.03578	0.09552599	-0.147376	11.48	25.83	-3.99	0.4336	-0.0385	-0.2067	
-1.035536	0.095892	-0.153232	8.26	25.76	-2.24	0.4367	-0.0495	-0.2039	
-1.032364	0.08418	-0.147986	5.46	24.64	-1.12	0.4291	-0.0353	-0.2023	
-1.028338	0.08479	-0.153598	7.91	22.4	-1.26	0.4307	-0.0415	-0.1995	
-1.02419	0.09028	-0.158966	7.35	20.02	-1.54	0.4323	-0.0429	-0.1849	
-1.026386	0.082228	-0.159088	5.25	17.92	-1.4	0.4322	-0.0415	-0.1937	
-1.035048	0.087596	-0.172874	4.55	15.75	-1.05	0.4426	-0.0352	-0.1776	
-1.037366	0.082594	-0.178364	2.03	13.58	-0.91	0.4307	-0.0352	-0.1921	
-1.03151	0.081984	-0.17568	-0.42	12.81	-0.84	0.4381	-0.0336	-0.1863	
-1.03456	0.092232	-0.176168	-2.59	10.99	-1.33	0.4456	-0.0415	-0.1791	
-1.029314	0.093452	-0.189832	-4.69	8.47	-0.91	0.4397	-0.0429	-0.1747	
-1.017846	0.085522	-0.186538	-5.95	7.91	-0.42	0.4382	-0.0445	-0.1777	
-1.00406	0.085888	-0.196298	-4.48	7.98	0.28	0.4442	-0.0431	-0.1835	
-0.982588	0.086254	-0.196176	-5.67	8.82	1.05	0.4397	-0.0413	-0.1704	
-0.974536	0.087596	-0.18727	-3.5	9.94	1.33	0.4426	-0.0367	-0.1776	
-0.986248	0.08418	-0.187392	-1.19	9.73	1.82	0.4457	-0.0429	-0.166	
-0.990152	0.080886	-0.194468	-2.03	9.59	1.26	0.4368	-0.0443	-0.1631	
-0.990762	0.075884	-0.192882	-2.87	9.73	0.42	0.4486	-0.0382	-0.1645	
-1.003084	0.07515199	-0.195444	-1.96	10.43	-0.49	0.4337	-0.035	-0.1703	
-1.009672	0.076738	-0.21228	-2.94	10.36	-1.12	0.4441	-0.0303	-0.1557	
-1.016016	0.08113	-0.19398	-2.59	10.85	-1.4	0.4516	-0.0367	-0.1674	
-1.025776	0.085644	-0.19215	-0.49	8.33	-1.12	0.456	-0.0352	-0.1659	
-1.01443	0.087474	-0.209352	-1.05	5.88	-0.98	0.4458	-0.0492	-0.169	
-1.009672	0.084302	-0.203252	-1.19	5.04	-0.84	0.4515	-0.0304	-0.1615	
-1.012234	0.090158	-0.207156	-0.07	3.71	-0.7	0.4471	-0.035	-0.1557	
-1.0004	0.087962	-0.213988	-0.49	3.01	-0.35	0.4442	-0.0396	-0.1543	
-1.002596	0.084058	-0.214842	-0.98	2.1	0	0.4457	-0.0413	-0.1616	
-1.00528	0.082716	-0.214232	-0.14	1.05	0.42	0.4501	-0.0349	-0.1484	
-1.00955	0.080642	-0.222284	-0.42	-0.07	0.7	0.4456	-0.0303	-0.1542	
-1.006134	0.081984	-0.224358	-1.05	-0.84	0.91	0.4501	-0.0414	-0.1631	
-1.006866	0.081252	-0.214354	-0.56	-1.68	1.05	0.4545	-0.0352	-0.1644	
-1.007598	0.08418	-0.221918	-0.21	-3.22	1.05	0.4442	-0.0429	-0.166	
-1.007964	0.085888	-0.221552	-0.98	-4.2	0.98	0.4516	-0.0383	-0.1688	
-1.005158	0.087108	-0.21472	-1.33	-5.39	0.91	0.4471	-0.0381	-0.1587	
-1.002962	0.086254	-0.212646	-0.98	-5.95	0.77	0.4547	-0.0444	-0.1544	
-1.010038	0.084302	-0.210206	-1.4	-6.86	0.91	0.4442	-0.0412	-0.1558	
-1.009428	0.08845	-0.207644	-0.98	-8.05	1.12	0.4427	-0.0428	-0.1573	
-1.012966	0.089304	-0.207278	-1.4	-9.38	1.4	0.4472	-0.0413	-0.1631	
-1.0126	0.086376	-0.206424	-1.68	-10.99	1.89	0.4486	-0.0367	-0.1688	
-1.016504	0.091256	-0.205326	-1.96	-12.46	2.31	0.4368	-0.0443	-0.1646	
-1.01931	0.087962	-0.193248	-1.68	-15.05	3.08	0.4411	-0.0335	-0.1703	
-1.01748	0.09552599	-0.194224	-1.4	-17.36	2.8	0.4531	-0.0479	-0.1806	
-1.016504	0.096624	-0.186904	-2.38	-19.04	3.08	0.4368	-0.0429	-0.1733	
-1.023702	0.09357399	-0.178852	-3.29	-20.16	3.64	0.4426	-0.0399	-0.1805	
-1.020896	0.095404	-0.176168	-3.22	-22.12	3.57	0.4368	-0.0445	-0.1777	
-1.02846	0.095892	-0.167872	-3.15	-23.59	3.99	0.4368	-0.0509	-0.1894	
-1.028094	0.09882	-0.166286	-2.87	-25.2	4.27	0.4352	-0.0367	-0.1834	
-1.027606	0.098088	-0.152378	-3.08	-26.74	4.27	0.4383	-0.0478	-0.1908	
-1.02907	0.105652	-0.146766	-0.84	-28.91	3.92	0.4412	-0.0431	-0.1878	
-1.027606	0.111752	-0.133834	-0.28	-30.03	3.85	0.4323	-0.0525	-0.2025	
-1.030656	0.10919	-0.1403	-2.52	-32.06	3.92	0.4248	-0.0431	-0.2068	
-1.028338	0.114924	-0.12993	-10.64	-32.69	4.34	0.4293	-0.0478	-0.2025	
-1.036268	0.120902	-0.10675	-13.16	-33.18	4.48	0.4307	-0.0448	-0.217	
-1.032486	0.118096	-0.099186	-14.07	-35.14	5.25	0.4366	-0.0403	-0.2198	
-1.025166	0.113948	-0.084912	-13.65	-36.96	5.18	0.4278	-0.0512	-0.2287	
-1.035048	0.112484	-0.077348	-13.51	-38.78	4.83	0.4204	-0.0527	-0.2316	
-1.03761	0.110898	-0.067954	-11.55	-40.81	4.41	0.4307	-0.0482	-0.233	
-1.03212	0.12566	-0.075274	-10.85	-42.98	4.41	0.4141	-0.034	-0.2445	
-1.025532	0.111386	-0.045018	-14.77	-45.08	4.41	0.4039	-0.0481	-0.2593	
-1.029924	0.114558	-0.030256	-14.56	-46.41	4.76	0.4067	-0.0403	-0.2577	
-1.03273	0.11529	-0.02257	-16.73	-46.06	4.62	0.3949	-0.0449	-0.2607	
-1.033828	0.112362	-0.004392	-17.15	-47.25	4.27	0.3919	-0.0466	-0.2796	
-1.023824	0.11163	0.002806	-14.28	-49.49	4.2	0.3888	-0.0403	-0.2796	
-1.017602	0.10797	0.04392	-14.35	-51.38	3.57	0.3858	-0.0373	-0.2927	
-1.01077	0.120536	0.038674	-9.03	-50.12	3.29	0.3813	-0.0357	-0.2941	
-1.01321	0.11651	0.065392	-14.56	-48.65	3.29	0.3769	-0.0388	-0.2971	
-1.011136	0.112728	0.078812	-12.18	-49.21	3.64	0.3679	-0.0356	-0.3014	
-1.012478	0.102846	0.094916	-10.64	-51.38	4.62	0.3679	-0.0372	-0.3029	
-1.009794	0.111264	0.113826	-12.18	-49.63	5.04	0.3575	-0.0403	-0.3146	
-0.999546	0.124196	0.145058	-11.97	-53.62	5.11	0.35	-0.034	-0.3218	
-0.986248	0.119438	0.168848	-13.23	-56.28	5.46	0.3456	-0.0387	-0.3291	
-0.98088	0.119316	0.18971	-14.56	-57.82	5.95	0.3366	-0.0356	-0.3379	
-0.973194	0.111386	0.226798	-17.08	-57.89	5.81	0.3335	-0.0325	-0.3437	
-0.96197	0.100528	0.255224	-16.38	-57.54	5.18	0.3275	-0.0294	-0.3509	
-0.957212	0.09942999	0.280356	-14.91	-57.96	3.92	0.3261	-0.034	-0.3452	
-0.950136	0.1037	0.291946	-11.76	-57.68	3.36	0.326	-0.0247	-0.3523	
-0.941474	0.11224	0.324276	-12.53	-57.54	2.94	0.2978	-0.0323	-0.367	
-0.930982	0.110776	0.34648	-14	-57.54	2.66	0.2947	-0.0243	-0.3597	
-0.922198	0.099918	0.366488	-15.19	-57.61	1.89	0.2933	-0.0371	-0.386	
-0.904996	0.096136	0.38003	-14.77	-57.75	1.82	0.29	-0.0089	-0.3872	
-0.886208	0.097234	0.40016	-14	-57.33	1.47	0.2724	-0.0307	-0.3991	
-0.876448	0.09882	0.430904	-13.72	-57.96	1.4	0.2708	-0.0198	-0.4004	
-0.866444	0.097722	0.443836	-13.09	-57.82	0.98	0.253	-0.0242	-0.3991	
-0.853512	0.101748	0.462746	-14.7	-58.8	1.12	0.2394	-0.0101	-0.4106	
-0.83326	0.101748	0.479338	-14.7	-59.5	1.05	0.2469	-0.0163	-0.4005	
-0.813374	0.090524	0.50386	-14.7	-60.2	1.68	0.2379	-0.0085	-0.4062	
-0.80825	0.094062	0.521306	-12.81	-59.99	2.03	0.2259	-0.0054	-0.4237	
-0.793244	0.092964	0.537288	-11.76	-60.27	2.52	0.2199	-0.0022	-0.4309	
-0.77348	0.08295999	0.562542	-12.04	-60.69	2.38	0.2036	-0.0036	-0.4339	
-0.758352	0.082106	0.578402	-10.71	-60.55	2.03	0.208	-0.0021	-0.4353	
-0.751886	0.079422	0.594384	-9.8	-59.64	1.68	0.1903	-0.0081	-0.4282	
-0.740784	0.092842	0.608536	-7.21	-59.36	2.17	0.1886	0.0057	-0.4469	
-0.726754	0.090524	0.62952	-7.42	-59.36	2.59	0.1767	-0.0019	-0.4514	
-0.709064	0.081008	0.652212	-6.79	-58.73	3.15	0.1663	-0.0017	-0.45	
-0.687836	0.08235	0.68015	-3.71	-58.94	3.78	0.1469	0.0061	-0.4587	
-0.668316	0.089426	0.695156	-3.43	-57.26	3.85	0.144	0	-0.4486	
-0.645746	0.09394	0.709796	-4.06	-56.35	3.22	0.1262	-0.0076	-0.4618	
-0.628788	0.09516	0.723582	-6.16	-54.32	2.38	0.1231	0.0017	-0.4646	
-0.613416	0.09028	0.742492	-7.63	-51.94	1.4	0.1084	-0.0059	-0.4691	
-0.608048	0.086498	0.750788	-9.38	-49.21	0.42	0.09779999	0.0034	-0.4792	
-0.594262	0.080886	0.759328	-8.61	-47.95	-0.35	0.0935	-0.0073	-0.4735	
-0.585722	0.078934	0.771894	-9.8	-44.8	-0.91	0.0889	0.0051	-0.4822	
-0.579012	0.075274	0.78202	-9.31	-42.63	-1.05	0.0785	0.0006	-0.4808	
-0.564982	0.068564	0.798246	-10.43	-39.48	-0.84	0.0755	0.0022	-0.4764	
-0.55205	0.063318	0.814228	-10.36	-36.89	-1.26	0.0651	0.0072	-0.4662	
-0.546438	0.066124	0.820572	-9.38	-34.65	-1.47	0.068	0.008599999	-0.472	
-0.533262	0.06405	0.82594	-9.8	-31.78	-1.26	0.0606	0.0055	-0.4764	
-0.527528	0.05917	0.831674	-9.31	-29.4	-0.98	0.0531	0.0119	-0.4749	
-0.530944	0.059048	0.834236	-8.82	-26.88	-0.77	0.0546	0.0118	-0.4807	
-0.521428	0.05124	0.83875	-8.12	-24.92	-0.42	0.0411	0.023	-0.4734	
-0.523746	0.051728	0.840458	-8.4	-22.54	-0.28	0.0396	0.0183	-0.4792	
-0.516792	0.043188	0.851072	-8.26	-20.3	-0.28	0.0396	0.0167	-0.4851	
-0.506178	0.031232	0.855708	-6.51	-17.64	-0.35	0.0352	0.0136	-0.4822	
-0.509716	0.035868	0.854854	-5.18	-15.89	-0.21	0.0323	0.0136	-0.4851	
-0.516914	0.040626	0.856196	-3.78	-14.49	0.07	0.0366	0.0262	-0.4748	
-0.507276	0.033428	0.860222	-3.92	-13.23	0.21	0.0262	0.0199	-0.488	
-0.507154	0.030134	0.865834	-3.15	-11.69	0.28	0.0232	0.0232	-0.4749	
-0.512034	0.032452	0.865346	-2.59	-10.36	0.42	0.0262	0.0217	-0.472	
-0.509472	0.032208	0.861442	-2.45	-9.31	0.28	0.0187	0.0263	-0.485	
-0.510814	0.031964	0.860588	-2.03	-8.19	0.28	0.0262	0.0184	-0.4866	
-0.507276	0.029524	0.863394	-1.4	-7.14	0	0.0217	0.0263	-0.4865	
-0.507276	0.035136	0.864004	-0.7	-6.16	0	0.0218	0.0169	-0.4837	
-0.510448	0.03782	0.86071	-0.63	-5.32	0	0.0217	0.0278	-0.485	
-0.509838	0.03477	0.860954	-0.21	-4.69	-0.07	0.0186	0.031	-0.4864	
-0.5063	0.037088	0.859246	-0.35	-4.06	0	0.0232	0.0232	-0.4822	
-0.508618	0.038552	0.864736	0	-3.08	0.21	0.0084	0.0203	-0.4808	
-0.507398	0.037942	0.862296	0.14	-2.24	0.42	0.0113	0.0265	-0.4792	
-0.506422	0.03721	0.858392	0.56	-1.47	0.42	0.0083	0.0233	-0.4866	
-0.505812	0.04087	0.859734	0.63	-0.63	0.42	0.0187	0.0231	-0.4909	
-0.50569	0.040016	0.861442	0.56	0.14	0.42	0.0009	0.0266	-0.4822	
-0.503616	0.037332	0.862418	0.7	1.33	0.28	0.0129	0.0186	-0.4822	
-0.507642	0.040016	0.858148	1.12	2.17	0.56	0.0188	0.0186	-0.4808	
-0.508008	0.032696	0.862174	1.26	2.94	0.49	0.0128	0.0233	-0.4807	
-0.509472	0.032818	0.857172	1.61	3.29	0.56	0.0113	0.0249	-0.4851	
-0.506422	0.03416	0.86254	2.31	3.99	0.77	0.0203	0.0154	-0.4822	
-0.503372	0.037698	0.865224	2.87	4.9	0.7	0.0142	0.0263	-0.488	
-0.503494	0.038064	0.865712	2.66	6.16	0.56	0.0098	0.02	-0.4982	
-0.50325	0.040138	0.863272	2.87	7.35	0.56	0.0174	0.0124	-0.4721	
-0.50386	0.043676	0.863028	3.08	8.54	0.77	0.0173	0.0216	-0.4909	
-0.507154	0.041236	0.865956	3.15	10.15	0.77	0.0129	0.0139	-0.4823	
-0.506544	0.041846	0.86803	4.13	11.48	0.84	0.0204	0.0092	-0.4794	
-0.506178	0.044042	0.867908	4.76	13.23	0.77	0.0351	0.0246	-0.4806	
-0.505324	0.041236	0.87108	4.48	15.19	0.56	0.0233	0.0185	-0.4837	
-0.504104	0.045994	0.865102	4.83	17.29	0.56	0.0307	0.0215	-0.4821	
-0.507886	0.044896	0.859612	5.39	19.46	0.35	0.0307	0.0184	-0.4793	
-0.510082	0.04636	0.85583	5.39	22.05	0.42	0.0338	0.0089	-0.4837	
-0.508374	0.045384	0.854854	6.58	24.01	0.63	0.0397	0.012	-0.4808	
-0.513864	0.04941	0.84607	6.58	26.95	0.49	0.0471	0.0167	-0.472	
-0.525698	0.053192	0.835212	7.42	30.66	0.49	0.0503	0.0042	-0.4706	
-0.531432	0.052582	0.831552	7.7	32.9	0.49	0.0545	0.0229	-0.4661	
-0.539728	0.054534	0.822646	8.47	35.21	0.49	0.0634	0.018	-0.4748	
-0.548512	0.058682	0.815814	8.82	37.66	0.63	0.068	0.0103	-0.4633	
-0.559492	0.061488	0.802394	8.96	40.11	0.56	0.0725	0.0085	-0.4749	
-0.574864	0.064782	0.789584	9.1	42.28	0.63	0.0785	0.0037	-0.4749	
-0.587552	0.062342	0.779946	9.52	44.45	0.63	0.0843	0.013	-0.4777	
-0.600606	0.061732	0.770552	10.08	46.69	0.7	0.0994	0.0022	-0.4502	
-0.612928	0.069296	0.759572	11.2	48.58	0.49	0.1052	0.0098	-0.4646	
-0.623664	0.07442	0.74237	10.78	51.17	-0.07	0.1068	0.002	-0.4618	
-0.63684	0.082716	0.725412	11.55	53.55	-0.14	0.1202	0.0033	-0.4617	
-0.645014	0.087352	0.70821	11.62	55.79	-0.21	0.1232	0.0002	-0.4603	
-0.659776	0.0854	0.692716	11.27	58.38	-0.14	0.1352	-0.0077	-0.4632	
-0.679662	0.086376	0.67954	11.83	60.69	0	0.1278	-0.0154	-0.4604	
-0.69174	0.088328	0.653798	12.67	62.65	-0.14	0.1531	-0.0126	-0.4574	
-0.702964	0.097234	0.633302	14.21	64.47	-0.49	0.1576	-0.0142	-0.4574	
-0.71919	0.10065	0.617198	13.3	66.64	-1.26	0.1664	-0.0063	-0.437	
-0.740296	0.102724	0.58865	14.42	68.39	-1.68	0.1888	-0.0144	-0.4384	
-0.754326	0.109312	0.55266	13.16	70.84	-1.75	0.1992	-0.0082	-0.4296	
-0.774822	0.117852	0.530456	13.72	71.4	-1.4	0.2067	-0.013	-0.4326	
-0.786534	0.115534	0.50447	13.58	72.03	-1.26	0.2097	-0.0162	-0.4355	
-0.802394	0.116632	0.484096	13.93	72.52	-1.12	0.2261	-0.0179	-0.4224	
-0.833382	0.122732	0.467504	14.21	72.8	-1.19	0.2337	-0.0321	-0.4283	
-0.845704	0.125294	0.44469	13.58	71.89	-2.03	0.259	-0.0307	-0.4151	
-0.861808	0.127978	0.4209	13.16	71.4	-2.38	0.2591	-0.0368	-0.3948	
-0.879254	0.135298	0.403088	11.83	71.33	-2.94	0.2621	-0.0336	-0.3904	
-0.88023	0.13786	0.379908	14.7	69.58	-2.38	0.2888	-0.0259	-0.3699	
-0.893162	0.136762	0.354044	14.42	69.72	-2.8	0.2874	-0.0306	-0.3685	
-0.9028	0.131882	0.326228	13.51	69.65	-3.29	0.3053	-0.0402	-0.3671	
-0.911584	0.139324	0.29707	13.23	70.63	-4.06	0.3009	-0.0385	-0.3642	
-0.91805	0.146034	0.271938	13.86	70.28	-4.13	0.3231	-0.0356	-0.3583	
-0.935374	0.163602	0.25559	14.42	69.86	-3.71	0.3231	-0.0323	-0.3422	
-0.958798	0.150548	0.230702	10.99	70.49	-4.34	0.3366	-0.0373	-0.3481	
-0.965264	0.120658	0.199958	6.51	71.89	-6.23	0.3411	-0.0435	-0.3394	
-0.97722	0.121634	0.157258	10.43	69.51	-6.51	0.3484	-0.0326	-0.3363	
-0.993202	0.11163	0.138714	11.27	68.53	-7.28	0.3573	-0.0295	-0.3261	
-1.020042	0.116266	0.095892	15.82	65.8	-6.02	0.3798	-0.039	-0.3101	
-1.03517	0.126026	0.056486	22.12	62.79	-5.11	0.3725	-0.0418	-0.2957	
-1.037854	0.122244	0.026962	23.59	59.15	-4.06	0.3844	-0.0436	-0.2971	
-1.032242	0.124806	0.004514	23.73	57.05	-4.06	0.3903	-0.0373	-0.2912	
-1.033828	0.124074	-0.011468	20.51	56.21	-3.85	0.3888	-0.0388	-0.2825	
-1.03578	0.12871	-0.01891	21.84	53.13	-3.36	0.3905	-0.0496	-0.271	
-1.027362	0.130174	-0.040382	22.61	49.56	-3.43	0.4025	-0.0574	-0.2535	
-1.030656	0.118828	-0.056364	19.18	49.98	-4.55	0.4038	-0.0466	-0.2622	
-1.029314	0.1159	-0.081618	18.9	47.6	-6.02	0.4127	-0.0451	-0.2592	
-1.04493	0.112362	-0.081252	16.17	46.76	-7.84	0.4143	-0.0512	-0.2462	
-1.032608	0.107238	-0.105042	14.07	45.78	-9.94	0.4144	-0.051	-0.2302	
-1.043832	0.111264	-0.110166	12.81	44.1	-11.2	0.4144	-0.0542	-0.2317	
-1.034316	0.112118	-0.13176	15.75	39.83	-10.71	0.4218	-0.0448	-0.2214	
-1.040416	0.107116	-0.125904	2.38	32.76	-10.29	0.4292	-0.0417	-0.2184	
-1.039928	0.102724	-0.143838	12.67	38.01	-10.08	0.4294	-0.0558	-0.2156	
-1.036634	0.102114	-0.147986	12.67	36.47	-9.66	0.4188	-0.0399	-0.2097	
-1.035536	0.107238	-0.149084	14.49	32.83	-9.31	0.4218	-0.0446	-0.2083	
-1.030534	0.109434	-0.16531	13.93	30.94	-7.7	0.4427	-0.0494	-0.1952	
-1.042124	0.093208	-0.171654	8.26	27.72	-4.9	0.4322	-0.0414	-0.1864	
-1.042856	0.091012	-0.171044	5.11	25.9	-4.34	0.4321	-0.032	-0.1819	
-1.042246	0.096502	-0.181048	4.69	22.26	-4.2	0.4471	-0.04	-0.1834	
-1.048346	0.09552599	-0.185562	3.64	18.97	-3.85	0.4352	-0.0413	-0.1762	
-1.042978	0.099918	-0.197762	0.98	15.89	-4.13	0.4456	-0.0383	-0.1732	
-1.042978	0.096136	-0.219356	-3.01	13.65	-3.15	0.453	-0.0384	-0.1747	
-1.029314	0.09577	-0.203374	-9.1	10.01	-2.73	0.4412	-0.0445	-0.1762	
-1.019432	0.080032	-0.190564	-5.88	11.55	-1.89	0.4545	-0.0352	-0.163	
-0.997228	0.082472	-0.218502	0.56	11.41	-1.12	0.4382	-0.0429	-0.1762	
-0.990762	0.072834	-0.21594	-2.17	12.32	-1.4	0.4471	-0.0351	-0.1688	
-0.994788	0.063196	-0.219844	-0.98	11.76	-1.54	0.4486	-0.0414	-0.1703	
-0.983442	0.074176	-0.225456	-1.47	11.55	-2.94	0.4412	-0.0382	-0.1674	
-0.979538	0.076616	-0.212402	-1.61	12.67	-3.5	0.4531	-0.0383	-0.1659	
-0.985638	0.081008	-0.2196	1.54	12.67	-3.5	0.4412	-0.0365	-0.1587	
-1.000644	0.079788	-0.21716	1.82	12.46	-3.29	0.4516	-0.0367	-0.1645	
-1.001132	0.07905599	-0.220454	3.64	11.55	-2.66	0.4426	-0.0333	-0.1543	
-1.001254	0.076982	-0.222894	4.06	11.62	-1.82	0.4486	-0.0382	-0.1616	
-1.011136	0.08113	-0.219844	5.39	9.94	-1.96	0.4456	-0.0366	-0.1601	
-1.015772	0.083936	-0.222406	5.11	8.19	-2.24	0.456	-0.0367	-0.1601	
-1.016016	0.08418	-0.22692	3.36	5.74	-1.89	0.4605	-0.0366	-0.1484	
-1.00528	0.090646	-0.234606	3.71	4.76	-2.45	0.4547	-0.0459	-0.1442	
-1.003328	0.089426	-0.232898	1.96	4.34	-2.17	0.4485	-0.0255	-0.1484	
-1.000766	0.096014	-0.229604	0.56	3.01	-1.96	0.4443	-0.0427	-0.15	
-1.0004	0.073078	-0.236924	-0.07	2.24	-0.98	0.4545	-0.0288	-0.1513	
-0.997472	0.080032	-0.233386	0.28	1.89	-1.75	0.4576	-0.0382	-0.147	
-1.002962	0.081862	-0.236558	0.42	0.42	-1.19	0.4576	-0.0382	-0.147	
-0.994544	0.081374	-0.243756	0.07	-0.63	0.07	0.4605	-0.035	-0.1382	
-0.999668	0.068808	-0.236558	-0.49	-0.63	0.42	0.465	-0.0336	-0.1498	
-0.99735	0.074054	-0.238754	1.89	-1.75	0.63	0.4605	-0.0335	-0.1484	
-0.998814	0.067588	-0.235094	1.47	-2.31	0.77	0.4531	-0.0397	-0.1499	
-0.99796	0.074054	-0.232654	1.82	-3.15	0.14	0.462	-0.0336	-0.1542	
-0.992836	0.07198	-0.23302	2.59	-3.71	1.33	0.4545	-0.0272	-0.1527	
-0.996008	0.081862	-0.231556	3.36	-4.2	1.12	0.4546	-0.0398	-0.1558	
-1.002474	0.073322	-0.224358	3.08	-4.62	1.89	0.4472	-0.0379	-0.1412	
-0.999302	0.071004	-0.22997	4.62	-5.32	2.24	0.4516	-0.0383	-0.163	
-1.001254	0.073444	-0.230946	3.78	-5.88	2.52	0.4575	-0.0351	-0.1557	
-1.003084	0.072712	-0.22692	3.43	-6.23	3.22	0.4532	-0.0476	-0.1617	
-0.998692	0.068686	-0.231312	4.83	-7.35	4.2	0.4458	-0.0459	-0.1544	
-0.999546	0.06405	-0.218136	3.15	-7.28	4.9	0.4442	-0.0365	-0.1543	
-0.999424	0.07124799	-0.216794	3.5	-7.49	5.39	0.4621	-0.0445	-0.15	
-0.995764	0.071126	-0.21411	2.03	-8.12	5.6	0.4487	-0.0397	-0.1558	
-0.996008	0.0732	-0.210938	1.12	-8.47	5.53	0.4577	-0.046	-0.1515	
-0.995764	0.076738	-0.206302	1.4	-8.61	6.02	0.4487	-0.0443	-0.1515	
-0.994544	0.07625	-0.205204	-0.21	-8.33	6.37	0.4517	-0.046	-0.1558	
-0.996984	0.080154	-0.194102	-0.7	-8.12	6.65	0.4502	-0.0397	-0.1529	
-1.004426	0.08295999	-0.189222	-0.49	-8.26	7.21	0.4532	-0.0493	-0.1675	
-1.007232	0.091378	-0.19398	-0.7	-9.45	7.56	0.4533	-0.0539	-0.1646	
-1.007598	0.093696	-0.186416	-1.47	-9.45	8.19	0.4398	-0.0507	-0.169	
-1.002718	0.094794	-0.185562	-1.33	-10.01	8.75	0.4458	-0.0523	-0.1705	
-1.002596	0.09821	-0.186416	-2.59	-10.64	9.03	0.4413	-0.0491	-0.1704	
-0.998936	0.101138	-0.178242	-3.85	-10.57	9.45	0.4399	-0.0585	-0.1705	
-1.00101	0.111142	-0.177388	-3.29	-10.99	9.66	0.4548	-0.0603	-0.1734	
-0.997106	0.10919	-0.172996	-5.39	-10.57	10.22	0.4489	-0.0602	-0.1734	
-1.004914	0.120658	-0.169946	-5.46	-10.5	10.85	0.4385	-0.0664	-0.1779	
-1.007964	0.122732	-0.169336	-8.61	-10.64	10.92	0.4429	-0.057	-0.1763	
-1.009062	0.124928	-0.164212	-10.64	-10.43	11.06	0.4415	-0.0633	-0.1779	
-1.015528	0.133224	-0.16287	-11.9	-11.06	11.06	0.4338	-0.0508	-0.1908	
-1.014796	0.135908	-0.162016	-12.95	-11.69	11.69	0.4355	-0.0634	-0.191	
-1.009428	0.138592	-0.163724	-14.7	-10.92	12.39	0.4369	-0.0602	-0.188	
-1.0065	0.137738	-0.154696	-15.89	-11.2	12.67	0.4356	-0.0695	-0.1809	
-1.007476	0.141764	-0.153354	-13.23	-11.97	12.04	0.4267	-0.0694	-0.1852	
-1.004914	0.147498	-0.15494	-13.3	-12.46	10.85	0.4385	-0.0651	-0.1983	
-1.002718	0.15494	-0.15128	-12.04	-13.16	10.36	0.4384	-0.0588	-0.1953	
-1.009184	0.161406	-0.142618	-12.46	-13.72	10.15	0.4371	-0.0712	-0.1881	
-1.012478	0.170434	-0.142008	-11.83	-14.91	10.43	0.4355	-0.0697	-0.1954	
-0.998936	0.172508	-0.1342	-12.74	-15.89	10.15	0.4357	-0.0822	-0.1999	
-1.006378	0.174338	-0.117974	-11.69	-16.66	10.15	0.4267	-0.0743	-0.2028	
-1.004914	0.173484	-0.11773	-11.55	-17.5	10.36	0.4327	-0.0823	-0.2057	
-0.998448	0.173484	-0.107726	-11.2	-18.2	9.87	0.425	-0.0667	-0.2216	
-1.002596	0.18117	-0.099552	-8.33	-18.97	9.87	0.4163	-0.0758	-0.2086	
-0.99674	0.183976	-0.092476	-8.26	-19.88	10.01	0.4221	-0.0696	-0.2085	
-1.000034	0.197274	-0.087108	-7.42	-20.51	9.59	0.4296	-0.0777	-0.2246	
-1.003084	0.195932	-0.073444	-7.77	-20.58	9.73	0.4237	-0.0823	-0.2218	
-1.000888	0.205692	-0.05917	-5.39	-21.49	9.59	0.4118	-0.0775	-0.2246	
-1.001376	0.209474	-0.050996	-4.76	-21.07	9.87	0.4118	-0.07759999	-0.2305	
-0.997838	0.212768	-0.044774	-4.27	-20.58	8.54	0.4118	-0.0806	-0.2247	
-0.998326	0.2135	-0.030378	-3.43	-21.91	9.17	0.3984	-0.079	-0.2363	
-0.991128	0.216062	-0.033794	-2.94	-24.08	7.84	0.4015	-0.08679999	-0.2335	
-0.983686	0.22509	-0.019032	-6.58	-20.16	5.39	0.4028	-0.0792	-0.2465	
-0.988078	0.223748	-0.008296	-9.73	-18.69	5.11	0.4058	-0.0777	-0.245	
-0.978562	0.234484	-0.011346	-9.17	-18.41	3.78	0.4029	-0.0839	-0.2436	
-0.975756	0.237778	-0.015494	-5.88	-17.43	2.73	0.4043	-0.0823	-0.2465	
-0.925126	0.210328	-0.081374	-6.86	-15.89	2.52	0.3925	-0.08859999	-0.2568	
-1.066402	0.191052	0.08357	-12.39	-13.44	4.27	0.3983	-0.07449999	-0.2537	
-0.975024	0.245952	-0.012322	6.44	-13.16	2.17	0.397	-0.08859999	-0.2568	
-0.98271	0.229848	0.02196	-4.13	-12.04	4.34	0.3968	-0.07449999	-0.2537	
-0.98515	0.240706	0.016348	-0.35	-12.32	3.57	0.4043	-0.084	-0.2538	
-0.987224	0.241438	0.015372	-0.42	-12.46	4.62	0.3939	-0.0823	-0.2524	
-0.988322	0.244244	0.02196	-2.66	-12.04	4.41	0.3894	-0.0823	-0.2597	
-0.987712	0.24644	0.029524	-5.46	-12.67	3.78	0.3955	-0.0966	-0.2714	
-0.989664	0.247538	0.039528	-7	-14	2.87	0.3954	-0.0808	-0.2611	
-0.987102	0.23546	0.049898	-6.37	-15.05	2.1	0.3894	-0.0825	-0.2771	
-0.996008	0.228018	0.056242	-7.7	-16.24	1.05	0.3939	-0.084	-0.2684	
-0.993934	0.224724	0.072712	-7.84	-18.27	-0.07	0.3939	-0.0856	-0.2728	
-0.994056	0.229848	0.07991	-6.93	-20.51	-1.89	0.391	-0.087	-0.2626	
-0.99186	0.219844	0.08906	-6.93	-21.28	-2.8	0.3894	-0.0793	-0.2713	
-0.98881	0.215208	0.095648	-5.6	-22.82	-3.57	0.3909	-0.08419999	-0.2859	
-0.986736	0.21777	0.10614	-3.92	-23.03	-4.97	0.3789	-0.073	-0.2756	
-0.973438	0.216916	0.107848	-2.73	-23.94	-6.16	0.3774	-0.0763	-0.2945	
-0.97966	0.214598	0.117608	-1.75	-24.85	-7.7	0.3685	-0.0793	-0.2932	
-0.988078	0.220698	0.121268	-1.61	-25.48	-8.47	0.3654	-0.0682	-0.2887	
-0.990396	0.218014	0.135664	-2.45	-26.6	-8.89	0.367	-0.0777	-0.2946	
-0.982344	0.21533	0.151158	-2.73	-27.72	-9.1	0.3655	-0.0777	-0.3004	
-0.970022	0.219844	0.159698	-3.85	-27.79	-9.1	0.3654	-0.0746	-0.3018	
-0.956724	0.20679	0.173484	-5.46	-26.88	-10.22	0.364	-0.0778	-0.3033	
-0.958188	0.19764	0.185074	-5.88	-25.69	-10.64	0.3593	-0.0637	-0.3119	
-0.9516	0.200812	0.195566	-6.16	-24.78	-10.57	0.3518	-0.0574	-0.3119	
-0.948062	0.19093	0.210572	-7.77	-23.8	-10.43	0.3562	-0.0559	-0.3177	
-0.949526	0.183732	0.22326	-7	-22.82	-10.01	0.3622	-0.0593	-0.3279	
-0.94977	0.176168	0.231678	-5.46	-21.49	-9.31	0.3592	-0.0576	-0.3235	
-0.94977	0.167872	0.238266	-5.53	-20.16	-9.45	0.3532	-0.0528	-0.3191	
-0.952332	0.16287	0.248148	-4.62	-19.53	-9.8	0.3546	-0.0498	-0.3292	
-0.95404	0.165554	0.25376	-3.01	-18.69	-9.66	0.3369	-0.0558	-0.3294	
-0.955138	0.16531	0.253272	-1.96	-17.92	-9.52	0.3502	-0.0529	-0.3293	
-0.954528	0.160308	0.263398	-2.94	-17.01	-9.17	0.3367	-0.0481	-0.3424	
-0.958554	0.157746	0.269376	-3.57	-15.89	-8.75	0.3398	-0.0575	-0.3366	
-0.955382	0.154574	0.272304	-3.99	-14.56	-8.12	0.3412	-0.0481	-0.3365	
-0.950502	0.14945	0.276208	-4.27	-13.3	-7.56	0.3457	-0.0529	-0.3351	
-0.94611	0.144204	0.275598	-4.97	-12.67	-7.07	0.3367	-0.045	-0.3409	
-0.948672	0.138958	0.27938	-5.11	-11.62	-7.14	0.3367	-0.0481	-0.338	
-0.949038	0.13481	0.283772	-4.97	-10.57	-6.23	0.3367	-0.0481	-0.3424	
-0.948794	0.130052	0.285968	-3.85	-9.94	-5.39	0.3263	-0.0496	-0.3482	
-0.953064	0.128222	0.28975	-2.24	-8.68	-4.13	0.3321	-0.0325	-0.3437	
-0.958798	0.12078	0.293654	-0.77	-7.98	-1.75	0.3262	-0.0418	-0.3467	
-0.95587	0.112484	0.299266	-0.42	-7.07	-0.35	0.3263	-0.0496	-0.3453	
-0.947086	0.114436	0.28975	1.54	-6.09	1.33	0.3233	-0.0433	-0.3453	
-0.947574	0.119682	0.296338	2.94	-5.18	2.8	0.3307	-0.0386	-0.3394	
-0.946964	0.121512	0.302926	5.67	-3.92	5.81	0.3218	-0.045	-0.3584	
-0.938424	0.124562	0.304024	7.14	-2.87	7.98	0.3218	-0.0464	-0.3482	
-0.940498	0.126636	0.30805	8.89	-1.96	9.52	0.3218	-0.0433	-0.3511	
-0.94245	0.127246	0.305732	11.69	-1.05	10.78	0.3218	-0.0449	-0.3511	
-0.945622	0.13115	0.309758	13.3	-0.49	13.09	0.3263	-0.0512	-0.3453	
-0.938912	0.128588	0.31476	14.77	0.14	14.98	0.3204	-0.0558	-0.3512	
-0.9394	0.12688	0.312076	14.7	0.77	17.29	0.3279	-0.0543	-0.3439	
-0.940986	0.141764	0.311588	15.12	1.68	20.3	0.3219	-0.0527	-0.3468	
-0.939644	0.148108	0.312564	15.82	2.31	23.31	0.3205	-0.0604	-0.3425	
-0.9333	0.146522	0.305	17.01	2.31	25.76	0.3369	-0.0623	-0.3469	
-0.944768	0.157136	0.304146	18.34	2.66	27.37	0.3222	-0.07449999	-0.3441	
-0.94489	0.171288	0.299632	18.55	3.01	27.86	0.3222	-0.07759999	-0.3398	
-0.94245	0.192516	0.294752	18.13	3.08	28.84	0.3237	-0.07759999	-0.3325	
-0.928054	0.20557	0.286822	17.43	3.15	29.19	0.3224	-0.0901	-0.3341	
-0.925858	0.223138	0.283284	15.19	4.41	29.12	0.321	-0.0995	-0.3401	
-0.93452	0.240584	0.278404	13.51	5.04	28.63	0.3136	-0.1042	-0.3474	
-0.933788	0.252418	0.270108	15.4	4.34	28.28	0.3256	-0.1057	-0.3357	
-0.94245	0.262056	0.266692	15.68	3.5	28.63	0.3242	-0.1104	-0.3373	
-0.941474	0.284382	0.26474	15.54	4.34	27.93	0.3212	-0.1121	-0.346	
-0.92659	0.298656	0.260592	15.68	3.57	26.95	0.3095	-0.1227	-0.336	
-0.929518	0.307684	0.256322	13.72	4.55	28.21	0.3169	-0.1244	-0.3389	
-0.930616	0.315248	0.248636	14.14	3.15	28.42	0.3111	-0.1321	-0.3332	
-0.916464	0.328668	0.246074	13.09	3.57	29.19	0.3126	-0.1368	-0.3361	
-0.923174	0.362218	0.241438	11.34	1.33	28.98	0.3112	-0.1383	-0.3274	
-0.922564	0.352092	0.246928	4.62	4.27	26.95	0.3083	-0.1508	-0.3334	
-0.91195	0.386862	0.236314	11.48	2.66	31.36	0.3113	-0.1508	-0.3275	
-0.901214	0.391742	0.238266	12.46	5.53	30.73	0.3055	-0.1585	-0.3291	
-0.901214	0.40809	0.228262	14.7	5.25	31.29	0.3174	-0.1601	-0.3145	
-0.884988	0.408578	0.230458	11.34	7.56	30.31	0.3175	-0.1633	-0.3189	
-0.877302	0.416508	0.228384	10.08	7.14	30.38	0.3116	-0.1679	-0.3204	
-0.869982	0.431758	0.2196	7.21	5.88	28	0.3071	-0.1693	-0.3147	
-0.874984	0.43371	0.229238	2.87	11.41	30.73	0.3101	-0.1726	-0.3234	
-0.878278	0.449692	0.22692	2.52	8.68	31.08	0.3102	-0.1741	-0.3191	
-0.87718	0.473848	0.208864	0.35	8.47	28.14	0.3073	-0.1803	-0.3119	
-0.867908	0.48129	0.20191	-9.24	5.25	23.8	0.3104	-0.1914	-0.328	
-0.889502	0.431514	0.221552	-18.69	0.35	14	0.2983	-0.1786	-0.3177	
-0.864858	0.487024	0.197762	-0.63	4.76	26.46	0.2955	-0.1927	-0.3237	
-0.872544	0.505324	0.18971	1.89	1.19	23.45	0.2986	-0.199	-0.3223	
-0.848144	0.512522	0.189222	0.49	3.29	21.91	0.3045	-0.1975	-0.3164	
-0.861198	0.515328	0.1891	1.61	3.36	20.23	0.2987	-0.2053	-0.3209	
-0.851682	0.518256	0.187392	3.01	3.29	19.04	0.2912	-0.1988	-0.3165	
-0.853146	0.52521	0.195078	2.66	3.57	18.27	0.2912	-0.202	-0.3194	
-0.829722	0.512888	0.18727	2.87	4.62	18.69	0.2928	-0.2066	-0.3107	
-0.830454	0.498004	0.190808	2.94	5.18	18.97	0.2972	-0.2052	-0.3165	
-0.851194	0.513742	0.185074	3.99	5.88	20.3	0.2973	-0.2113	-0.3035	
-0.838506	0.513986	0.189222	2.45	5.88	19.81	0.2928	-0.2082	-0.3137	
-0.849364	0.538996	0.188124	3.71	4.97	18.9	0.2884	-0.2175	-0.3109	
-0.818132	0.54595	0.184098	2.1	3.36	17.85	0.2883	-0.2097	-0.3137	
-0.82838	0.545096	0.187148	0.77	1.68	17.78	0.2959	-0.216	-0.3065	
-0.829234	0.544364	0.1891	2.03	0.84	17.01	0.2884	-0.216	-0.3123	
-0.83692	0.545828	0.187514	0.98	1.26	17.22	0.2826	-0.2284	-0.3139	
-0.824964	0.550464	0.185196	1.75	-0.77	15.54	0.2975	-0.2285	-0.308	
-0.82777	0.562908	0.188978	3.85	-0.63	14.07	0.2737	-0.2283	-0.3154	
-0.825208	0.556076	0.187636	2.8	-1.4	12.25	0.2902	-0.2347	-0.3081	
-0.824476	0.573888	0.184952	4.06	-1.89	10.43	0.2783	-0.2345	-0.3096	
-0.814838	0.564982	0.184586	2.38	-2.66	8.05	0.2768	-0.2362	-0.3155	
-0.81313	0.551928	0.183122	3.78	-2.1	7.07	0.2783	-0.2376	-0.3067	
-0.817278	0.544242	0.1769	8.05	-2.38	5.88	0.2813	-0.2361	-0.3067	
-0.819108	0.587796	0.177632	7.28	-1.96	4.9	0.2738	-0.2344	-0.3038	
-0.806908	0.58621	0.178364	4.76	-1.19	3.85	0.271	-0.2453	-0.3054	
-0.808616	0.583404	0.179096	4.13	-0.42	2.66	0.2858	-0.241	-0.3169	
-0.801174	0.56974	0.180926	3.36	0.14	1.33	0.2887	-0.2362	-0.3096	
-0.799466	0.576328	0.177144	2.17	0.98	0.49	0.2769	-0.2408	-0.3126	
-0.798734	0.58072	0.183	2.38	1.12	0	0.2767	-0.2331	-0.3183	
-0.803736	0.579378	0.181658	1.82	1.26	-0.63	0.274	-0.247	-0.3098	
-0.797758	0.58011	0.184342	2.31	1.05	-1.05	0.2782	-0.2266	-0.2994	
-0.804956	0.589138	0.18422	2.66	1.05	-2.03	0.2873	-0.2393	-0.3082	
-0.80398	0.569496	0.192272	0.63	0.84	-2.31	0.2813	-0.2408	-0.3024	
-0.810446	0.574254	0.186538	0.84	0.77	-2.45	0.2813	-0.2409	-0.3111	
-0.8113	0.57401	0.183366	0.49	0.49	-2.59	0.2799	-0.2502	-0.3127	
-0.810934	0.574986	0.182634	0.21	0.07	-2.94	0.2799	-0.2455	-0.3112	
-0.809592	0.575962	0.183366	-0.28	-0.35	-3.43	0.2963	-0.2456	-0.3024	
-0.811544	0.573644	0.183244	-1.33	-0.14	-4.41	0.2754	-0.2408	-0.3097	
-0.813984	0.568154	0.18117	-3.15	0.28	-5.04	0.2813	-0.2424	-0.3082	
-0.815448	0.562786	0.181048	-3.22	0.42	-5.25	0.2813	-0.2409	-0.3184	
-0.817522	0.564006	0.179828	-2.17	0.07	-5.53	0.2828	-0.2392	-0.3053	
-0.814594	0.562054	0.17995	-1.96	-0.07	-6.16	0.2797	-0.233	-0.3081	
-0.813984	0.559248	0.184586	-1.4	0	-6.65	0.2842	-0.2346	-0.3081	
-0.821914	0.557052	0.18483	-0.77	0.07	-7.21	0.2796	-0.2235	-0.3022	
-0.815936	0.55876	0.182756	-0.7	-0.14	-7.7	0.2768	-0.2376	-0.3053	
-0.820572	0.55937	0.183854	-0.98	-0.07	-7.91	0.2857	-0.2362	-0.3067	
-0.822158	0.555222	0.179218	-0.07	-0.35	-8.47	0.2886	-0.2332	-0.3125	
-0.821304	0.547658	0.183732	-0.42	0	-8.75	0.2812	-0.233	-0.311	
-0.82899	0.54839	0.18361	-0.14	0.21	-8.82	0.2915	-0.2237	-0.3007	
-0.82533	0.54595	0.184586	-0.28	0.07	-8.96	0.293	-0.2254	-0.3153	
-0.831918	0.547536	0.183244	0.56	0.07	-9.31	0.2945	-0.2254	-0.3109	
-0.82655	0.536312	0.182512	0.91	-0.35	-9.8	0.2915	-0.2285	-0.3153	
-0.827648	0.53741	0.184342	1.05	-0.21	-9.8	0.29	-0.2238	-0.3095	
-0.823378	0.529846	0.181414	1.47	0.07	-9.38	0.2915	-0.2207	-0.3094	
-0.835334	0.527284	0.186416	1.05	1.12	-9.45	0.29	-0.2269	-0.3139	
-0.838994	0.53375	0.187636	-1.05	1.12	-10.01	0.2959	-0.2191	-0.3079	
-0.84119	0.529602	0.18483	-2.45	1.26	-10.5	0.2842	-0.2299	-0.3081	
-0.85095	0.526918	0.18971	-3.78	1.33	-10.85	0.2915	-0.2206	-0.3065	
-0.851926	0.516548	0.189344	-5.74	1.4	-11.06	0.2944	-0.2208	-0.3152	
-0.851926	0.506178	0.186904	-7.21	1.75	-11.62	0.2959	-0.2207	-0.3094	
-0.856196	0.506544	0.18056	-7.56	2.17	-12.53	0.2975	-0.2301	-0.311	
-0.850584	0.502396	0.183366	-6.44	1.47	-13.58	0.3002	-0.2083	-0.3122	
-0.851682	0.50203	0.186294	-5.39	1.12	-14.42	0.2945	-0.2255	-0.3153	
-0.848754	0.490196	0.191052	-4.76	1.33	-15.75	0.3047	-0.2131	-0.3151	
-0.856806	0.488	0.192394	-5.11	1.4	-16.45	0.2973	-0.213	-0.3137	
-0.86559	0.481412	0.191174	-5.74	1.68	-17.15	0.3061	-0.2052	-0.3063	
-0.869982	0.48312	0.186538	-5.88	1.12	-18.13	0.2957	-0.2052	-0.318	
-0.863394	0.48068	0.188856	-5.25	0.84	-18.83	0.309	-0.2006	-0.315	
-0.86986	0.477264	0.191906	-3.85	0.7	-19.04	0.3106	-0.2053	-0.3107	
-0.867542	0.472872	0.191906	-4.76	0.7	-19.46	0.3074	-0.1912	-0.3105	
-0.877424	0.462136	0.190564	-4.9	1.33	-20.79	0.3045	-0.1928	-0.3164	
-0.885964	0.45872	0.18849	-5.18	1.82	-21.49	0.3149	-0.1881	-0.3032	
-0.889624	0.450058	0.190198	-6.65	2.1	-21.84	0.3044	-0.188	-0.3134	
-0.880108	0.445788	0.190808	-8.26	2.66	-22.54	0.3117	-0.1804	-0.3177	
-0.88755	0.439566	0.19032	-7	3.15	-22.96	0.3191	-0.1773	-0.3118	
-0.884012	0.421388	0.19215	-7.63	2.8	-24.22	0.3204	-0.1633	-0.316	
-0.894748	0.420046	0.19032	-6.02	3.08	-25.69	0.3116	-0.1679	-0.3175	
-0.901092	0.416874	0.192272	-4.9	2.17	-27.65	0.3205	-0.1648	-0.316	
-0.916708	0.404552	0.189832	-6.51	1.96	-28.77	0.3174	-0.1617	-0.3175	
-0.916708	0.396988	0.194834	-6.44	2.31	-29.12	0.3233	-0.1571	-0.3218	
-0.915	0.386984	0.19886	-6.37	1.19	-29.26	0.3276	-0.1414	-0.307	
-0.917196	0.374418	0.188246	-4.27	-0.35	-30.59	0.3262	-0.1476	-0.3086	
-0.934032	0.366854	0.188734	-3.71	0.21	-31.92	0.3292	-0.1478	-0.3144	
-0.922808	0.369416	0.18483	5.46	0.14	-28	0.3261	-0.1446	-0.3172	
-0.929274	0.360388	0.183122	-1.33	-0.84	-33.11	0.326	-0.1351	-0.3084	
-0.926712	0.34404	0.188246	0.7	-0.77	-35.21	0.3393	-0.1244	-0.3097	
-0.931592	0.333426	0.190198	-0.42	0.42	-35.07	0.3334	-0.1275	-0.3127	
-0.944646	0.317078	0.191418	-6.86	-0.35	-36.82	0.3421	-0.1167	-0.314	
-0.935496	0.301462	0.199958	-7.63	0.7	-39.13	0.3436	-0.1167	-0.314	
-0.943304	0.306098	0.193004	-5.39	-1.61	-38.08	0.3421	-0.112	-0.3139	
-0.9394	0.300364	0.201544	-8.54	0.07	-35.07	0.345	-0.1105	-0.3197	
-0.954894	0.287188	0.180438	-4.76	2.73	-42.21	0.3493	-0.098	-0.3138	
-0.95282	0.254736	0.19398	-11.48	2.24	-45.22	0.3536	-0.0856	-0.3165	
-0.96197	0.252662	0.194224	-12.46	1.47	-46.55	0.3521	-0.0808	-0.3121	
-0.966362	0.22997	0.184098	-15.47	0.84	-47.67	0.3446	-0.0777	-0.3238	
-0.976122	0.200934	0.198738	-19.53	-0.35	-47.25	0.3504	-0.0654	-0.328	
-0.970144	0.194834	0.200934	-19.18	-2.24	-46.9	0.3487	-0.0528	-0.3235	
-0.971974	0.162016	0.205326	-21	-1.54	-47.6	0.3547	-0.0513	-0.3205	
-0.971608	0.152012	0.210206	-17.15	-3.64	-45.64	0.3428	-0.0527	-0.3206	
-0.972096	0.134566	0.209352	-17.57	-1.19	-46.62	0.3544	-0.0342	-0.332	
-0.970388	0.11956	0.207766	-17.71	-2.38	-47.67	0.3678	-0.0344	-0.3305	
-0.976732	0.09552599	0.209474	-20.93	-0.49	-48.65	0.3514	-0.0293	-0.3174	
-0.98027	0.066246	0.21716	-21.14	-0.35	-48.44	0.3496	-0.006	-0.3317	
-0.977342	0.044774	0.214476	-17.57	-0.28	-47.53	0.3586	-0.0106	-0.3172	
-0.975756	0.013786	0.224846	-16.38	0.14	-47.39	0.3524	0.0111	-0.3271	
-0.974292	-0.014762	0.22875	-15.26	-0.63	-46.62	0.3509	0.0112	-0.3213	
-0.98027	-0.033306	0.232654	-13.23	-0.77	-45.99	0.3523	0.0175	-0.3154	
-0.979904	-0.049776	0.234606	-10.15	-1.89	-46.41	0.3655	0.0266	-0.3226	
-0.982954	-0.069906	0.233264	-8.96	-3.01	-46.27	0.3536	0.03	-0.3182	
-0.96685	-0.094184	0.243024	-8.05	-3.64	-46.48	0.358	0.0345	-0.3254	
-0.972828	-0.108336	0.24766	-2.94	-1.12	-42.49	0.3564	0.0408	-0.3239	
-0.977708	-0.111874	0.233752	-4.41	-2.66	-44.31	0.3502	0.0628	-0.3251	
-0.971242	-0.127002	0.227408	-2.87	-1.96	-42.28	0.3502	0.0627	-0.3266	
-0.965264	-0.14274	0.233874	-4.27	-3.71	-41.86	0.3442	0.0676	-0.3193	
-0.95953	-0.161162	0.235948	-5.6	-3.57	-40.95	0.3397	0.0659	-0.3339	
-0.967338	-0.194468	0.239242	-6.3	-4.41	-38.01	0.3441	0.0785	-0.3235	
-0.962214	-0.20374	0.243878	-5.67	-4.62	-36.89	0.3484	0.083	-0.3307	
-0.974536	-0.1891	0.238876	-5.88	-3.99	-36.75	0.3455	0.0847	-0.3278	
-0.970266	-0.18788	0.22814	-0.56	-5.39	-35.07	0.3485	0.0831	-0.3278	
-0.963678	-0.205204	0.234362	-6.44	-4.55	-35.07	0.3394	0.0925	-0.3307	
-0.972828	-0.228994	0.230458	-4.97	-4.83	-33.39	0.3378	0.1035	-0.3306	
-0.95648	-0.249368	0.233508	-4.13	-5.6	-32.76	0.3377	0.1049	-0.3407	
-0.959774	-0.276208	0.22997	-7.42	-6.02	-29.61	0.3362	0.1113	-0.3363	
-0.960018	-0.267424	0.231556	-7.56	-4.55	-27.65	0.3331	0.1207	-0.3377	
-0.949038	-0.267302	0.238998	-7.35	-3.64	-25.34	0.3227	0.1192	-0.3464	
-0.966362	-0.2501	0.2318	-5.88	-0.84	-21.49	0.3272	0.1145	-0.3407	
-0.933056	-0.272548	0.244366	-9.94	-2.73	-21.7	0.3286	0.1255	-0.3333	
-0.938302	-0.293654	0.238388	-12.18	-3.99	-22.26	0.3284	0.1381	-0.3244	
-0.933788	-0.298656	0.236924	-10.22	-4.41	-20.72	0.3241	0.1303	-0.3245	
-0.918782	-0.29707	0.240706	-11.62	-5.25	-19.18	0.3254	0.1395	-0.3448	
-0.931104	-0.309514	0.239608	-11.55	-2.66	-19.25	0.3255	0.1333	-0.3376	
-0.904874	-0.319518	0.234118	-13.65	-3.22	-20.58	0.3195	0.138	-0.3404	
-0.919514	-0.32757	0.231434	-12.6	-1.61	-20.44	0.3179	0.1428	-0.3389	
-0.923052	-0.342332	0.233386	-14.14	-2.03	-21.84	0.3089	0.1491	-0.3418	
-0.902434	-0.348066	0.235826	-12.25	-1.82	-22.82	0.3178	0.1521	-0.3403	
-0.930128	-0.340136	0.238022	-11.41	-0.07	-21.7	0.3222	0.1568	-0.3359	
-0.927444	-0.345992	0.237412	-10.78	-0.35	-20.16	0.3146	0.1678	-0.3372	
-0.934154	-0.351604	0.228384	-9.52	1.26	-18.69	0.3207	0.1616	-0.3271	
-0.931348	-0.363072	0.225334	-10.01	2.52	-17.29	0.3101	0.1742	-0.3357	
-0.927444	-0.372466	0.214964	-9.66	3.29	-17.29	0.3027	0.1696	-0.3329	
-0.923662	-0.383568	0.216062	-8.82	2.31	-16.66	0.3101	0.1758	-0.3299	
-0.915488	-0.387106	0.211792	-7	3.08	-15.05	0.3204	0.1835	-0.3225	
-0.925004	-0.382104	0.202764	-5.32	5.39	-13.23	0.316	0.1773	-0.3269	
-0.926712	-0.388326	0.213866	-5.04	5.95	-11.27	0.307	0.1852	-0.3312	
-0.933788	-0.391864	0.207156	-3.85	5.67	-10.43	0.3026	0.1806	-0.3269	
-0.931104	-0.388326	0.213622	-2.45	5.04	-8.33	0.3084	0.1929	-0.3384	
-0.91317	-0.395158	0.2074	-1.26	3.92	-6.72	0.3144	0.1898	-0.3283	
-0.906582	-0.399428	0.208254	-0.28	4.2	-5.04	0.3039	0.1915	-0.3341	
-0.906948	-0.4026	0.207278	0	4.76	-3.57	0.3084	0.1931	-0.3239	
-0.909876	-0.397354	0.198738	1.96	3.85	-2.59	0.3145	0.1836	-0.3269	
-0.89975	-0.400526	0.213866	2.1	3.08	-2.24	0.3071	0.1838	-0.3138	
-0.900726	-0.4026	0.210816	1.54	3.5	-1.75	0.3054	0.1915	-0.3312	
-0.901092	-0.403332	0.217038	0.35	2.8	-1.05	0.31	0.1884	-0.3225	
-0.904264	-0.40992	0.2196	0.56	2.52	-0.07	0.3056	0.1805	-0.3327	
-0.902434	-0.405894	0.216794	1.47	2.73	0.28	0.307	0.19	-0.3225	
-0.899506	-0.406016	0.217404	1.89	2.73	0.84	0.31	0.1867	-0.3283	
-0.909632	-0.407114	0.215818	1.54	3.08	1.54	0.3114	0.1932	-0.3108	
-0.907558	-0.40687	0.214232	1.26	2.87	2.03	0.3187	0.1992	-0.3209	
-0.909266	-0.40809	0.207888	1.05	2.59	2.59	0.3116	0.1774	-0.324	
-0.913902	-0.405894	0.2074	0.7	2.59	3.43	0.3189	0.1867	-0.3225	
-0.91622	-0.400648	0.203984	1.12	2.94	4.13	0.319	0.1836	-0.3167	
-0.915854	-0.399428	0.202642	0.91	2.87	5.25	0.3234	0.1819	-0.3269	
-0.91744	-0.397842	0.200812	0.7	2.87	6.37	0.3129	0.1884	-0.3166	
-0.918538	-0.394426	0.198982	0.91	3.01	7.7	0.3145	0.1852	-0.3239	
-0.918416	-0.397232	0.196664	1.68	2.1	9.52	0.3205	0.182	-0.3167	
-0.914756	-0.393938	0.200202	2.17	2.03	10.43	0.3219	0.1867	-0.3195	
-0.916586	-0.391132	0.197518	2.59	2.03	10.99	0.3249	0.1787	-0.3342	
-0.91988	-0.394914	0.198616	3.5	2.17	12.18	0.316	0.1805	-0.324	
-0.92049	-0.387228	0.202276	4.76	1.47	13.44	0.3264	0.1788	-0.3225	
-0.920856	-0.376492	0.202032	5.46	0.98	14.84	0.3206	0.1711	-0.3212	
-0.925004	-0.373564	0.202154	5.74	0.91	15.89	0.3249	0.1803	-0.3254	
-0.930982	-0.369782	0.202276	6.23	0.91	17.43	0.322	0.1757	-0.3197	
-0.927322	-0.35929	0.207156	7.35	0.98	19.25	0.3279	0.1772	-0.3211	
-0.932324	-0.348676	0.21106	7.35	0.91	21.7	0.3295	0.1678	-0.3226	
-0.941962	-0.33733	0.206302	8.61	0.49	23.38	0.3178	0.1539	-0.3243	
-0.940132	-0.327814	0.20435	8.33	-0.21	24.43	0.3208	0.1553	-0.3286	
-0.94489	-0.326106	0.20313	8.05	0.49	26.11	0.3282	0.16	-0.3256	
-0.937204	-0.307806	0.202032	8.33	0.42	27.51	0.3373	0.1442	-0.3258	
-0.942084	-0.297314	0.20557	8.26	0.07	28.84	0.3208	0.1522	-0.3286	
-0.942572	-0.29097	0.206058	8.4	0.14	30.1	0.3239	0.1428	-0.3316	
-0.94245	-0.280234	0.204472	8.75	-0.77	31.08	0.3344	0.1364	-0.3244	
-0.944768	-0.268888	0.205326	7.7	-0.91	32.48	0.3434	0.1315	-0.3317	
-0.945134	-0.261446	0.205326	7.07	0.7	33.39	0.3434	0.13	-0.3332	
-0.943914	-0.24461	0.209108	6.93	1.26	33.46	0.3376	0.1177	-0.3202	
-0.945378	-0.2318	0.207766	6.44	2.03	34.02	0.3406	0.116	-0.3275	
-0.954284	-0.220576	0.204594	5.81	2.66	34.44	0.3423	0.1019	-0.3306	
-0.953918	-0.206424	0.206668	5.32	3.22	34.51	0.3498	0.0971	-0.3262	
-0.965752	-0.192516	0.203008	4.9	2.8	34.58	0.3438	0.1003	-0.3306	
-0.977952	-0.17873	0.20618	5.25	2.8	34.65	0.3573	0.0893	-0.3205	
-0.982222	-0.171532	0.20313	6.3	2.24	34.09	0.3499	0.0893	-0.3292	
-0.985516	-0.15799	0.191906	5.46	0.91	34.37	0.3575	0.0752	-0.3221	
-0.986004	-0.147986	0.198738	3.57	0.35	35.07	0.3486	0.0753	-0.3265	
-0.979782	-0.136396	0.19215	4.69	0.14	35.7	0.3546	0.0721	-0.3207	
-0.977342	-0.126514	0.189222	5.18	-0.07	36.26	0.3501	0.0673	-0.3338	
-0.985516	-0.11102	0.187026	5.04	0.28	37.03	0.3561	0.0689	-0.328	
-0.984174	-0.097234	0.190564	4.97	1.33	37.8	0.3487	0.0627	-0.3295	
-0.980514	-0.08601	0.199226	4.13	1.47	38.08	0.3548	0.0549	-0.3267	
-0.98027	-0.071614	0.191174	5.46	2.17	38.08	0.3533	0.0565	-0.3252	
-0.978684	-0.063196	0.18727	3.78	2.17	38.01	0.3549	0.0455	-0.3224	
-0.978928	-0.0549	0.203862	1.68	3.15	38.22	0.361	0.0377	-0.3137	
-0.995032	-0.035502	0.196908	2.52	6.86	38.99	0.3582	0.022	-0.3241	
-0.98637	-0.027938	0.192638	4.76	8.68	40.32	0.3717	0.0125	-0.3198	
-0.979294	-0.020374	0.19886	7.21	9.17	41.3	0.3686	0.0251	-0.3124	
-0.979294	0.011468	0.191296	11.27	9.03	39.76	0.3583	0.0111	-0.3242	
-0.989176	0.036478	0.197152	12.39	9.8	39.41	0.3659	0.0016	-0.3214	
-0.987346	0.051606	0.189832	13.65	9.87	39.34	0.3719	-0.0045	-0.3142	
-1.001132	0.068564	0.1952	14.98	10.64	39.27	0.3659	-0.0013	-0.3112	
-0.999546	0.0854	0.188734	17.99	7.84	37.1	0.372	-0.0107	-0.307	
-1.013576	0.096624	0.187514	20.16	8.19	36.96	0.3602	-0.0153	-0.3158	
-0.983564	0.107482	0.170434	20.44	6.02	38.08	0.3677	-0.02	-0.3056	
-0.987468	0.125904	0.164578	18.13	5.6	37.87	0.3635	-0.0419	-0.3117	
-0.996008	0.150304	0.160674	18.48	3.85	38.43	0.3649	-0.0372	-0.3102	
-0.992104	0.168726	0.150304	18.13	1.96	39.55	0.3696	-0.0544	-0.3045	
-0.987956	0.18788	0.148718	20.02	-0.49	40.95	0.3683	-0.0654	-0.3076	
-0.96502	0.187514	0.15555	16.87	0.14	37.73	0.3698	-0.0716	-0.3062	
-0.979904	0.189954	0.157624	16.17	3.5	41.51	0.361	-0.0762	-0.3062	
-0.984052	0.229482	0.143472	10.64	5.39	38.64	0.3655	-0.0825	-0.3063	
-0.979782	0.197274	0.15494	12.74	2.24	40.53	0.3626	-0.0919	-0.3122	
-0.971974	0.236924	0.149328	12.39	2.38	39.06	0.3687	-0.1013	-0.3036	
-0.968924	0.251564	0.14823	9.31	1.75	38.64	0.3687	-0.1013	-0.3036	
-0.969412	0.262788	0.14762	11.13	1.47	39.34	0.3599	-0.1058	-0.2964	
-0.966728	0.269376	0.147132	9.1	0.77	39.76	0.357	-0.1136	-0.3023	
-0.964898	0.28609	0.14823	9.24	0.28	40.04	0.3526	-0.1135	-0.2994	
-0.958432	0.300364	0.146034	7.84	-0.42	40.39	0.3542	-0.1244	-0.2951	
-0.963678	0.305244	0.144692	7	-0.49	42.77	0.3541	-0.1167	-0.3009	
-0.953552	0.328058	0.141642	7	-1.33	42.42	0.3498	-0.1307	-0.3025	
-0.942084	0.339648	0.13969	7.91	-3.22	44.8	0.3485	-0.1415	-0.2953	
-0.941108	0.362828	0.138714	8.96	-3.36	41.02	0.3426	-0.1462	-0.2983	
-0.940864	0.38552	0.149328	7.42	-2.03	41.44	0.3456	-0.1461	-0.2896	
-0.932812	0.391376	0.152744	5.25	-1.96	42.63	0.3427	-0.1554	-0.2868	
-0.932324	0.40016	0.148352	5.88	-0.7	42.28	0.3414	-0.1664	-0.2883	
-0.921344	0.416142	0.142374	4.48	-1.75	40.32	0.34	-0.1789	-0.2943	
-0.912072	0.423706	0.13664	0.7	-1.68	39.34	0.3354	-0.1664	-0.2956	
-0.89548	0.441396	0.132614	-0.28	-1.12	38.99	0.3356	-0.1819	-0.2885	
-0.894382	0.460062	0.130418	0.98	-1.19	37.87	0.3253	-0.1912	-0.2916	
-0.885842	0.467504	0.135664	-0.91	-1.19	37.87	0.3358	-0.1946	-0.3003	
-0.886086	0.470676	0.132248	-0.21	-1.05	38.64	0.3224	-0.1959	-0.2974	
-0.866932	0.507398	0.125782	2.66	-2.03	38.43	0.3241	-0.2115	-0.2932	
-0.870958	0.501298	0.13664	0.35	-2.52	38.29	0.3031	-0.1988	-0.2961	
-0.852658	0.530822	0.129198	1.05	-4.62	37.03	0.3122	-0.2114	-0.2991	
-0.856562	0.536556	0.131638	0.42	-4.69	35.42	0.3153	-0.2207	-0.2875	
-0.842776	0.550342	0.135786	-3.01	-4.41	34.09	0.3094	-0.2207	-0.289	
-0.837164	0.54351	0.127124	-4.13	-4.76	36.26	0.305	-0.2269	-0.2891	
-0.778604	0.732488	0.076738	-33.11	-0.98	14.77	0.302	-0.2316	-0.2993	
-0.849242	0.340502	0.264374	-52.92	-14.49	21.14	0.3048	-0.2176	-0.2963	
-0.846192	0.581208	0.132126	16.1	-10.22	39.9	0.287	-0.2221	-0.3066	
-0.835212	0.57096	0.173972	-0.42	-7.84	36.12	0.293	-0.2253	-0.3037	
-0.811544	0.591334	0.161406	1.82	-11.69	35.21	0.2902	-0.2394	-0.3111	
-0.790926	0.61427	0.165798	1.61	-11.13	33.39	0.2843	-0.2394	-0.3155	
-0.782508	0.605364	0.168482	-1.54	-9.66	30.73	0.2769	-0.2422	-0.301	
-0.77226	0.619516	0.172142	-1.4	-10.64	28.07	0.2784	-0.2423	-0.3053	
-0.780922	0.604388	0.184464	-2.8	-10.85	26.25	0.274	-0.247	-0.3112	
-0.77653	0.618052	0.185196	0.07	-10.43	25.13	0.2695	-0.2501	-0.3127	
-0.770796	0.630984	0.18788	-0.7	-11.13	22.47	0.2635	-0.2406	-0.3083	
-0.757742	0.639768	0.18666	-0.42	-9.66	19.95	0.2636	-0.25	-0.3142	
-0.75518	0.638914	0.194102	-0.42	-10.71	19.32	0.2607	-0.2578	-0.3128	
-0.745176	0.643916	0.194102	0.07	-10.5	19.18	0.2502	-0.2546	-0.3201	
-0.726022	0.66246	0.196176	-1.54	-9.31	16.73	0.2637	-0.2611	-0.3216	
-0.71919	0.652944	0.196176	-2.59	-8.12	15.89	0.2399	-0.2623	-0.3188	
-0.717848	0.650992	0.206546	-1.12	-8.19	14.21	0.2504	-0.2703	-0.3217	
-0.714188	0.659532	0.210694	0.35	-7.28	13.09	0.2384	-0.2576	-0.3216	
-0.715042	0.655994	0.21472	0.21	-6.51	11.76	0.2415	-0.2654	-0.3144	
-0.720776	0.65941	0.216428	0.49	-6.44	9.73	0.2475	-0.2686	-0.3188	
-0.716018	0.670878	0.216916	0.84	-6.16	8.82	0.243	-0.267	-0.3232	
-0.716018	0.680638	0.213012	-0.07	-5.46	8.68	0.2429	-0.2639	-0.3217	
-0.704916	0.660508	0.214598	-0.84	-4.48	6.93	0.2371	-0.2732	-0.3203	
-0.709552	0.665388	0.218014	0.07	-3.78	5.88	0.2297	-0.2715	-0.3189	
-0.71126	0.68076	0.218258	0.7	-3.57	4.55	0.2298	-0.2809	-0.3204	
-0.70882	0.681004	0.221064	0.49	-3.36	3.5	0.243	-0.2686	-0.3217	
-0.707966	0.669048	0.227042	0	-3.5	2.24	0.237	-0.2685	-0.3217	
-0.706502	0.673074	0.22448	-0.63	-3.15	1.26	0.24	-0.267	-0.3203	
-0.704428	0.66856	0.230336	-1.47	-2.38	0.49	0.2387	-0.2778	-0.3146	
-0.708088	0.669536	0.23119	-0.91	-2.1	-0.91	0.2281	-0.2652	-0.3159	
-0.715408	0.658434	0.228628	0.28	-1.89	-1.26	0.2401	-0.2733	-0.3247	
-0.716018	0.67283	0.227896	1.19	-1.61	-2.1	0.2399	-0.2607	-0.3144	
-0.716872	0.65697	0.225212	1.4	-1.26	-1.89	0.2355	-0.2638	-0.3217	
-0.715652	0.67527	0.22753	1.89	-1.12	-3.22	0.243	-0.2685	-0.313	
-0.71675	0.672708	0.228628	-0.98	-0.07	-3.71	0.2355	-0.2653	-0.3115	
-0.715408	0.666364	0.226798	-2.1	0.21	-4.34	0.2371	-0.2732	-0.3232	
-0.717604	0.664656	0.228628	-1.05	0.35	-4.69	0.2385	-0.2685	-0.3159	
-0.722972	0.662094	0.228994	0.14	0.07	-4.83	0.2414	-0.264	-0.3319	
-0.722728	0.661606	0.23119	0.21	0.07	-5.32	0.24	-0.2655	-0.3304	
-0.726388	0.656482	0.229482	0	0.56	-5.81	0.2416	-0.2748	-0.3174	
-0.727608	0.658678	0.227286	-0.84	0.7	-6.37	0.2489	-0.2719	-0.3334	
-0.726022	0.655262	0.228262	-1.05	0.77	-7.07	0.24	-0.2654	-0.3232	
-0.722972	0.649528	0.22509	-0.49	0.35	-7.28	0.2503	-0.261	-0.3289	
-0.726022	0.653432	0.225212	1.4	0.07	-7.77	0.2503	-0.2625	-0.3275	
-0.732732	0.649894	0.230946	1.68	0.14	-7.91	0.24	-0.267	-0.3203	
-0.736514	0.65209	0.226676	0.77	0.42	-9.03	0.2503	-0.2624	-0.3202	
-0.737002	0.646478	0.22875	0.49	0.42	-10.08	0.2399	-0.2561	-0.3231	
-0.743346	0.645136	0.224724	0.21	0.77	-11.06	0.2369	-0.2593	-0.3347	
-0.748348	0.643306	0.225456	-0.84	0.84	-12.46	0.2651	-0.2533	-0.3215	
-0.755546	0.635132	0.224114	-1.61	1.19	-13.79	0.2488	-0.2561	-0.3158	
-0.759206	0.635132	0.224236	-1.96	1.4	-15.68	0.2488	-0.2545	-0.3157	
-0.76372	0.634644	0.22387	-3.5	1.4	-17.57	0.2516	-0.2484	-0.3229	
-0.762988	0.62403	0.221674	-4.2	1.12	-19.74	0.2473	-0.2561	-0.3143	
-0.768112	0.616588	0.218502	-3.99	0.77	-21.77	0.2665	-0.2471	-0.3302	
-0.771772	0.614148	0.220332	-3.57	0.42	-23.24	0.2636	-0.2547	-0.3157	
-0.768844	0.605974	0.220332	-4.2	1.05	-25.06	0.2561	-0.2483	-0.3113	
-0.769332	0.599264	0.215452	-4.13	0.21	-26.67	0.256	-0.2375	-0.3199	
-0.768722	0.59353	0.224358	-4.55	0.28	-27.65	0.2603	-0.2313	-0.3227	
-0.780678	0.595848	0.22326	-3.22	0.21	-28.7	0.259	-0.2391	-0.3228	
-0.77958	0.586454	0.222772	-4.41	0.35	-30.03	0.2752	-0.2301	-0.3314	
-0.79056	0.58438	0.223504	-3.71	0.91	-31.36	0.2752	-0.2332	-0.3285	
-0.797148	0.578036	0.224846	-2.8	0.98	-32.41	0.2825	-0.2207	-0.3269	
-0.801174	0.562298	0.225944	-3.29	1.26	-33.25	0.281	-0.2191	-0.324	
-0.812886	0.550098	0.231556	-2.45	1.12	-33.25	0.2824	-0.2176	-0.3298	
-0.808616	0.535824	0.228262	-3.15	0.98	-34.3	0.2764	-0.2113	-0.3254	
-0.820938	0.536556	0.223626	-5.46	1.47	-35.56	0.2704	-0.2081	-0.3283	
-0.817888	0.528992	0.22692	-6.65	1.89	-36.89	0.2898	-0.2084	-0.3297	
-0.823744	0.510204	0.226798	-7.77	2.03	-37.73	0.2881	-0.1927	-0.331	
-0.840824	0.502762	0.233508	-5.95	1.47	-38.92	0.2984	-0.1883	-0.3382	
-0.844362	0.480802	0.230824	-7.14	1.61	-39.76	0.2954	-0.1849	-0.3221	
-0.856928	0.460672	0.227652	-6.23	0.98	-41.09	0.2984	-0.185	-0.3265	
-0.87291	0.453962	0.235216	-5.95	1.05	-41.65	0.2997	-0.1757	-0.3293	
-0.87108	0.445788	0.230824	-7.91	0.91	-42.56	0.2997	-0.1741	-0.3249	
-0.871202	0.433466	0.231434	-6.16	1.19	-43.89	0.307	-0.1632	-0.3262	
-0.876326	0.406504	0.228262	-1.47	-0.42	-45.15	0.3056	-0.1664	-0.3335	
-0.889014	0.39772	0.231434	4.41	-2.52	-47.46	0.3174	-0.1571	-0.3276	
-0.903288	0.388448	0.234606	6.79	-2.38	-50.12	0.3172	-0.1494	-0.3377	
-0.920002	0.371002	0.235216	6.09	-2.17	-52.01	0.3203	-0.1525	-0.3333	
-0.914756	0.351726	0.226066	9.94	-1.26	-52.15	0.3173	-0.154	-0.3305	
-0.94062	0.339282	0.240462	11.97	0.91	-54.04	0.3216	-0.1385	-0.3317	
-0.92781	0.355508	0.210206	32.06	-5.32	-47.74	0.3259	-0.1292	-0.3389	
-0.92781	0.31903	0.229482	4.06	-0.42	-54.88	0.3169	-0.126	-0.3403	
-0.935984	0.286822	0.226066	0.35	2.31	-55.23	0.3245	-0.1355	-0.3404	
-0.945866	0.277794	0.225578	-5.39	4.13	-53.97	0.3273	-0.1182	-0.3301	
-0.945378	0.243878	0.227652	-13.3	3.78	-53.34	0.339	-0.1043	-0.3284	
-0.949038	0.222284	0.223504	-17.01	5.46	-52.29	0.336	-0.1027	-0.3313	
-0.958798	0.207766	0.227164	-14.42	4.48	-47.53	0.3402	-0.0841	-0.3384	
-0.969412	0.190442	0.230824	-21.77	6.23	-47.6	0.3342	-0.0808	-0.3282	
-0.967216	0.15372	0.2318	-25.62	6.16	-48.65	0.3445	-0.07	-0.3309	
-0.977464	0.116754	0.236802	-27.23	8.89	-45.29	0.3459	-0.0669	-0.3294	
-0.973194	0.101138	0.223382	-16.73	2.8	-42.35	0.3473	-0.0559	-0.3279	
-0.97905	0.099552	0.221674	-17.15	3.99	-42.28	0.3457	-0.0465	-0.3234	
-0.980636	0.085034	0.226432	-18.2	3.29	-42.91	0.3485	-0.0356	-0.3291	
-0.978928	0.068564	0.225212	-24.29	6.09	-43.75	0.3588	-0.0295	-0.329	
-0.976732	0.049166	0.226676	-21.77	5.95	-43.89	0.3513	-0.0263	-0.329	
-0.972584	0.029402	0.233142	-23.17	5.95	-44.59	0.3483	-0.02	-0.3289	
-0.974658	0.010858	0.237656	-26.04	6.65	-45.71	0.3541	-0.0107	-0.3274	
-0.96746	0.002196	0.230458	-29.82	6.37	-47.04	0.3465	0.0018	-0.3331	
-0.973438	-0.013542	0.24583	-29.19	7.77	-49.07	0.3568	0.0143	-0.3198	
-0.975268	-0.013054	0.233996	-22.96	7.14	-50.96	0.3493	0.0206	-0.3256	
-0.976976	-0.047214	0.232288	-23.59	8.19	-48.02	0.3581	0.0251	-0.327	
-1.068476	-0.328668	0.323788	4.9	-1.05	-33.25	0.3639	0.0391	-0.3268	
-0.99186	0.082228	0.149938	34.37	4.69	-38.15	0.3519	0.0503	-0.3209	
-0.981246	-0.104798	0.22936	-23.17	8.89	-43.61	0.3533	0.0548	-0.331	
-0.989298	-0.133224	0.237046	-15.26	6.37	-40.6	0.349	0.0408	-0.3327	
-0.9882	-0.114924	0.213866	-9.45	4.13	-42.56	0.3503	0.0517	-0.334	
-0.992348	-0.13237	0.227774	-15.75	3.22	-41.02	0.3458	0.0596	-0.3296	
-0.987956	-0.124928	0.213744	-11.62	2.87	-41.44	0.3531	0.0642	-0.3309	
-0.982954	-0.160674	0.21533	-13.93	1.19	-38.78	0.3544	0.0814	-0.3322	
-0.972218	-0.177632	0.212402	-12.18	1.4	-37.38	0.3559	0.0815	-0.3177	
-0.972218	-0.186904	0.21167	-8.61	1.68	-35.49	0.3484	0.0893	-0.3307	
-0.971852	-0.204228	0.204716	-7	2.17	-32.83	0.3514	0.0814	-0.3293	
-0.975634	-0.21838	0.19398	-4.76	2.24	-31.36	0.3498	0.0939	-0.3321	
-0.974536	-0.22814	0.188002	-8.54	3.57	-29.19	0.3482	0.1051	-0.3189	
-0.976488	-0.255468	0.192272	-9.94	5.11	-29.96	0.3422	0.1067	-0.3218	
-0.975878	-0.257908	0.186538	-7.84	4.76	-30.59	0.3451	0.1129	-0.3173	
-0.968802	-0.265594	0.182634	-7.84	4.97	-29.33	0.3496	0.1128	-0.3246	
-0.960628	-0.26108	0.183732	-6.44	1.33	-28.56	0.3405	0.1254	-0.323	
-0.95526	-0.26352	0.186782	-8.89	5.81	-29.19	0.3316	0.1272	-0.3143	
-0.951966	-0.28365	0.183	-6.3	-0.84	-25.48	0.3509	0.13	-0.3201	
-0.976488	-0.314516	0.191296	-7.91	4.13	-25.06	0.3374	0.1365	-0.3128	
-0.963556	-0.304756	0.204838	-4.13	0.63	-23.94	0.3299	0.1397	-0.3157	
-0.953918	-0.306708	0.17751	-1.54	1.68	-22.89	0.3344	0.1413	-0.3069	
-0.939522	-0.31903	0.186416	-2.17	1.89	-22.68	0.3388	0.1411	-0.3185	
-0.944036	-0.315004	0.189588	-1.54	1.12	-22.96	0.3343	0.1475	-0.3126	
-0.94123	-0.31842	0.191784	-3.15	0.21	-22.33	0.3373	0.1507	-0.3053	
-0.94123	-0.32879	0.199592	-3.5	0.63	-21.91	0.3416	0.1536	-0.3213	
-0.930616	-0.333426	0.179218	-3.78	0.56	-21.84	0.3372	0.1521	-0.3228	
-0.941718	-0.343918	0.179462	-5.74	-0.63	-22.05	0.3282	0.1584	-0.3227	
-0.928176	-0.357582	0.178364	-7.28	0.35	-21.84	0.3282	0.1633	-0.3081	
-0.928298	-0.372344	0.169336	-7.42	-0.28	-21.63	0.3295	0.1709	-0.3211	
-0.924394	-0.37759	0.169702	-7.56	-0.07	-21.35	0.3236	0.1695	-0.3197	
-0.913414	-0.380274	0.170556	-8.12	-1.05	-21.63	0.3341	0.1663	-0.3066	
-0.895114	-0.387228	0.169336	-8.05	-0.21	-22.19	0.3325	0.1726	-0.3124	
-0.925614	-0.39955	0.18361	-8.89	2.31	-19.88	0.3205	0.1821	-0.3152	
-0.916708	-0.399062	0.179462	-8.19	1.82	-20.09	0.322	0.1822	-0.3036	
-0.919514	-0.424316	0.180438	-7.42	1.96	-19.18	0.3234	0.1883	-0.3122	
-0.899994	-0.416386	0.175558	-3.29	-1.75	-18.2	0.3264	0.1867	-0.3152	
-0.9028	-0.427	0.179584	-5.25	-0.77	-18.27	0.3084	0.1948	-0.3137	
-0.899262	-0.424316	0.179828	-5.25	-1.4	-18.13	0.3158	0.1994	-0.3121	
-0.89914	-0.42578	0.170678	-5.32	-2.24	-17.08	0.3159	0.193	-0.3195	
-0.906826	-0.442128	0.177144	-6.93	-1.19	-16.38	0.301	0.1964	-0.3122	
-0.893894	-0.43371	0.181292	-7.7	-0.28	-16.66	0.3172	0.2071	-0.3135	
-0.89975	-0.445178	0.175436	-7.7	-0.35	-14.63	0.3187	0.2025	-0.3063	
-0.896212	-0.438102	0.17263	-6.93	-1.75	-13.86	0.3112	0.2119	-0.3164	
-0.892552	-0.445666	0.174704	-7.07	-2.17	-12.95	0.3082	0.2119	-0.3164	
-0.891454	-0.457378	0.166408	-7.21	-1.4	-11.76	0.3051	0.2166	-0.3178	
-0.884866	-0.463722	0.173484	-7.7	-0.84	-10.85	0.3097	0.2152	-0.3047	
-0.893162	-0.463722	0.177876	-6.3	-0.77	-10.85	0.3051	0.2229	-0.3192	
-0.891332	-0.450546	0.172142	-4.76	-0.28	-9.52	0.3081	0.2182	-0.3134	
-0.899018	-0.46848	0.176168	-5.81	0.28	-7.42	0.3111	0.2198	-0.3105	
-0.896212	-0.460672	0.172874	-4.55	-1.47	-6.65	0.3022	0.2183	-0.312	
-0.902068	-0.477874	0.172264	-4.13	-1.12	-4.97	0.3036	0.2245	-0.3119	
-0.897554	-0.479582	0.15921	-3.15	-1.05	-3.15	0.3035	0.2293	-0.3075	
-0.89182	-0.474946	0.164456	-1.61	-0.56	-1.96	0.308	0.2277	-0.3075	
-0.892064	-0.472628	0.163724	-1.47	-0.7	-0.56	0.3097	0.2151	-0.3062	
-0.884866	-0.477874	0.168848	-0.84	-0.07	0.98	0.3037	0.2168	-0.3062	
-0.88145	-0.47641	0.171898	0.14	-0.07	1.54	0.2991	0.2309	-0.3046	
-0.874252	-0.472872	0.16653	1.68	-0.14	2.66	0.2992	0.2184	-0.3076	
-0.867176	-0.47824	0.162626	2.17	0.42	3.08	0.3007	0.2215	-0.3076	
-0.874252	-0.482876	0.16653	1.96	0.91	3.43	0.308	0.2277	-0.3031	
-0.877668	-0.484218	0.1647	2.66	1.12	3.43	0.3006	0.2278	-0.3003	
-0.879864	-0.480802	0.170678	2.1	0.63	4.13	0.3125	0.226	-0.309	
-0.882792	-0.474336	0.179218	1.54	-0.28	4.13	0.3065	0.2278	-0.3002	
-0.886818	-0.481778	0.173362	2.03	-0.91	5.6	0.3109	0.2307	-0.3075	
-0.88511	-0.486536	0.17446	2.38	-0.7	6.51	0.2991	0.2246	-0.3134	
-0.88206	-0.475922	0.170678	3.92	-1.19	7.28	0.308	0.2245	-0.3134	
-0.881938	-0.474458	0.17446	4.76	-1.4	8.33	0.3037	0.2136	-0.3149	
-0.879376	-0.46665	0.176046	4.97	-1.61	9.8	0.323	0.2165	-0.3061	
-0.887062	-0.45628	0.17751	5.25	-2.03	10.78	0.3126	0.215	-0.312	
-0.893162	-0.45506	0.184952	5.39	-2.31	11.55	0.3067	0.2136	-0.3091	
-0.88572	-0.451034	0.184342	5.74	-1.89	12.46	0.3112	0.2087	-0.3179	
-0.89609	-0.449082	0.181658	5.67	-1.47	14.14	0.3082	0.2072	-0.3194	
-0.894138	-0.44652	0.184952	5.88	-1.26	15.33	0.3142	0.2087	-0.3164	
-0.897554	-0.435662	0.182634	6.93	-1.47	18.9	0.3111	0.2135	-0.3135	
-0.902312	-0.433954	0.186904	6.51	-1.26	19.95	0.3113	0.2025	-0.3194	
-0.909266	-0.428708	0.188734	7.42	-1.26	22.26	0.3143	0.2024	-0.3179	
-0.908168	-0.42395	0.192516	8.47	-1.82	23.73	0.3113	0.2025	-0.3194	
-0.909876	-0.411384	0.195566	9.59	-2.59	25.2	0.3218	0.1945	-0.318	
-0.915366	-0.390522	0.197884	9.59	-3.5	27.58	0.3159	0.1899	-0.3195	
-0.915976	-0.382836	0.193126	9.45	-3.57	30.1	0.319	0.182	-0.3196	
-0.920978	-0.37759	0.192272	9.66	-2.8	31.5	0.3177	0.1664	-0.3198	
-0.917196	-0.36966	0.192272	9.31	-2.52	32.76	0.3206	0.1743	-0.3124	
-0.927932	-0.356728	0.199104	9.17	-2.66	33.95	0.3207	0.1616	-0.3242	
-0.920612	-0.348432	0.1952	10.08	-2.24	35.7	0.3208	0.1587	-0.3082	
-0.924272	-0.330376	0.200446	9.87	-2.52	36.75	0.3282	0.1585	-0.3184	
-0.94123	-0.321592	0.2013	9.1	-1.47	38.5	0.3416	0.1567	-0.3183	
-0.939522	-0.313296	0.205326	10.57	-2.52	39.69	0.3433	0.1443	-0.3097	
-0.941596	-0.303048	0.205814	10.99	-2.52	40.88	0.3389	0.1365	-0.3142	
-0.945866	-0.297192	0.213012	10.99	-2.31	41.79	0.3389	0.1333	-0.3171	
-0.943548	-0.275964	0.20679	13.09	-3.22	42.14	0.3389	0.1317	-0.3215	
-0.942572	-0.255834	0.204106	13.86	-2.52	43.19	0.351	0.1176	-0.3115	
-0.94672	-0.236436	0.203008	13.86	-2.1	43.12	0.3345	0.1318	-0.3172	
-0.959286	-0.221918	0.207644	12.32	-1.26	43.05	0.3422	0.1051	-0.3247	
-0.962824	-0.206668	0.213378	11.83	-1.61	43.89	0.3378	0.1068	-0.3174	
-0.95404	-0.188124	0.201422	14.14	-2.17	43.61	0.3528	0.0909	-0.3205	
-0.963434	-0.17629	0.196786	13.23	-1.12	43.68	0.3366	0.0832	-0.3322	
-0.960384	-0.16409	0.196054	12.88	-0.63	43.61	0.3485	0.0785	-0.3206	
-0.968802	-0.144448	0.206912	11.27	-0.98	43.4	0.3397	0.0722	-0.3294	
-0.970876	-0.124196	0.213378	8.89	-1.89	42.98	0.3472	0.0627	-0.3295	
-0.980026	-0.104676	0.216062	7.07	-1.68	43.75	0.3577	0.061	-0.3295	
-0.977098	-0.091378	0.219966	5.04	-1.61	44.8	0.3577	0.0547	-0.3339	
-0.984174	-0.068686	0.207766	2.8	-3.15	45.57	0.3535	0.0408	-0.3312	
-0.984052	-0.070516	0.232898	-0.98	-1.47	46.27	0.3446	0.0331	-0.3298	
-0.98576	-0.046848	0.22814	1.68	1.68	46.34	0.355	0.0392	-0.3327	
-0.986248	-0.032452	0.238754	1.05	3.5	46.76	0.3551	0.0314	-0.3298	
-0.977342	-0.00732	0.24583	1.75	2.03	45.78	0.3478	0.019	-0.3285	
-0.981856	0.015128	0.23424	3.71	2.17	45.64	0.3523	0.0127	-0.3257	
-0.970632	0.035136	0.230824	4.83	2.73	45.57	0.348	0.0002	-0.3345	
-0.985882	0.056242	0.22814	4.69	3.64	44.66	0.3539	0.0033	-0.3272	
-0.971608	0.083326	0.219112	6.51	4.76	43.19	0.3526	-0.0075	-0.3215	
-0.97844	0.096746	0.222772	8.05	4.2	43.82	0.3511	-0.009099999	-0.3259	
-0.963068	0.1098	0.216306	13.37	5.6	44.59	0.3542	-0.0185	-0.326	
-0.951234	0.116876	0.209718	15.33	5.67	45.71	0.3512	-0.0169	-0.3274	
-0.973804	0.132248	0.210084	17.01	5.6	46.41	0.3514	-0.0262	-0.3203	
-0.981978	0.142496	0.204838	18.9	6.09	47.18	0.3515	-0.0403	-0.3219	
-0.95587	0.146766	0.198128	19.6	5.53	45.92	0.3531	-0.0466	-0.3263	
-0.978806	0.17751	0.195566	26.39	3.43	45.85	0.3532	-0.0496	-0.3162	
-0.973072	0.222772	0.193248	26.6	4.34	45.57	0.3592	-0.0575	-0.3148	
-0.959286	0.205082	0.190808	25.13	4.83	45.85	0.3593	-0.0669	-0.3178	
-0.959896	0.227164	0.187514	26.04	4.27	47.53	0.3535	-0.0715	-0.3135	
-0.96136	0.24217	0.18056	25.27	4.62	47.53	0.3491	-0.0792	-0.3092	
-0.961604	0.2562	0.17446	24.85	4.62	46.83	0.3524	-0.0979	-0.2992	
-0.97112	0.28121	0.170922	21.98	4.83	44.66	0.354	-0.1104	-0.2979	
-0.97173	0.304512	0.165798	18.48	4.69	43.05	0.3436	-0.1151	-0.3082	
-0.96258	0.326716	0.158112	15.12	3.5	40.25	0.3512	-0.1262	-0.317	
-0.959652	0.349774	0.161162	8.33	4.34	37.24	0.3439	-0.1369	-0.3055	
-0.95526	0.354654	0.157624	7	2.17	35.7	0.3425	-0.1463	-0.3114	
-0.940132	0.369782	0.146766	5.04	0.77	37.52	0.3453	-0.1323	-0.3083	
-0.94062	0.378322	0.142984	-1.33	2.24	34.86	0.3425	-0.1431	-0.3055	
-0.933422	0.379664	0.151402	-3.15	1.47	34.16	0.3471	-0.1542	-0.31	
-0.919514	0.446154	0.130784	-4.34	1.96	31.78	0.3427	-0.1557	-0.3115	
-0.91744	0.392352	0.157502	-11.2	-0.07	30.31	0.3411	-0.1494	-0.3056	
-0.909144	0.41907	0.151036	-6.86	0.28	29.89	0.3339	-0.1665	-0.3044	
-0.900604	0.4331	0.147132	-0.56	0.35	29.82	0.3352	-0.1572	-0.3144	
-0.891576	0.438468	0.157624	0.07	-1.19	30.1	0.3294	-0.1648	-0.3	
-0.874252	0.450424	0.169092	0.56	0.63	32.13	0.334	-0.1727	-0.3044	
-0.85766	0.472384	0.16653	1.12	1.33	35.98	0.3266	-0.1821	-0.3162	
-0.831308	0.515084	0.160796	-6.09	4.62	30.24	0.3311	-0.179	-0.3089	
-0.871934	0.403576	0.203374	-8.82	1.89	36.82	0.3252	-0.1837	-0.3148	
-0.877546	0.463356	0.17995	-1.05	3.71	34.09	0.3267	-0.1835	-0.3002	
-0.860588	0.482388	0.17873	13.16	-1.75	39.2	0.3208	-0.1882	-0.3032	
-0.843508	0.499712	0.174948	10.01	-3.5	38.01	0.3239	-0.1976	-0.3047	
-0.851438	0.498736	0.17263	12.11	-4.9	40.6	0.3075	-0.1958	-0.3062	
-0.839848	0.515694	0.168604	13.02	-6.44	38.08	0.3137	-0.2114	-0.2962	
-0.823988	0.53619	0.166652	11.83	-5.04	35.77	0.3062	-0.2081	-0.2889	
-0.851682	0.525454	0.168238	5.39	-4.41	34.58	0.3062	-0.2098	-0.2976	
-0.84058	0.542656	0.164822	3.85	-4.27	33.81	0.3005	-0.2253	-0.2964	
-0.816058	0.56913	0.155428	3.01	-4.34	32.62	0.299	-0.2253	-0.2935	
-0.8113	0.5673	0.15494	2.38	-2.31	30.17	0.2991	-0.2379	-0.3023	
-0.82228	0.590602	0.148962	6.09	-1.89	26.46	0.2917	-0.2362	-0.3038	
-0.806298	0.612806	0.142496	5.6	-1.26	24.08	0.2858	-0.2376	-0.2936	
-0.80459	0.610976	0.144814	1.89	-0.63	22.26	0.2843	-0.2376	-0.298	
-0.808494	0.629154	0.14823	4.48	0.28	21.63	0.286	-0.2533	-0.3025	
-0.794952	0.634034	0.143106	4.62	-0.7	19.81	0.2798	-0.2375	-0.2936	
-0.78202	0.63379	0.1403	3.5	-1.33	18.41	0.2829	-0.2485	-0.2981	
-0.779824	0.625494	0.140056	3.36	-0.21	18.41	0.2756	-0.2547	-0.2997	
-0.767624	0.638914	0.146644	3.5	-0.07	18.27	0.277	-0.2501	-0.3069	
-0.770308	0.62891	0.152622	1.33	1.33	20.79	0.2771	-0.2532	-0.2982	
-0.75579	0.616344	0.14335	-2.59	0.07	20.86	0.2772	-0.261	-0.2968	
-0.775432	0.626104	0.14884	0	1.26	22.96	0.2638	-0.2623	-0.2969	
-0.758962	0.642574	0.14518	-0.98	-1.26	24.36	0.2728	-0.2688	-0.3013	
-0.763598	0.659166	0.155062	-0.91	-0.28	24.43	0.2727	-0.2561	-0.291	
-0.751398	0.656238	0.137372	-3.85	-1.12	24.5	0.2757	-0.261	-0.2983	
-0.752618	0.659166	0.144448	-0.49	-2.52	24.15	0.2595	-0.2748	-0.2941	
-0.724558	0.675026	0.137982	-1.47	0.7	21.91	0.2624	-0.2718	-0.3013	
-0.732488	0.675636	0.148108	-3.22	1.47	20.3	0.258	-0.2762	-0.2898	
-0.731268	0.674416	0.1464	-2.45	0.84	17.71	0.2594	-0.2669	-0.2867	
-0.73261	0.694668	0.149206	-2.31	0.21	15.47	0.2565	-0.2747	-0.297	
-0.726266	0.700524	0.146034	-3.08	1.12	13.93	0.2551	-0.2779	-0.2971	
-0.731268	0.676856	0.165432	-7.77	2.45	11.27	0.2565	-0.2763	-0.2956	
-0.729316	0.684176	0.15555	-5.11	0.84	10.71	0.252	-0.27	-0.2955	
-0.719678	0.691984	0.158234	-5.39	1.54	8.82	0.252	-0.2732	-0.3057	
-0.714676	0.698938	0.158722	-5.53	2.1	7.84	0.2447	-0.2794	-0.3073	
-0.706258	0.683322	0.158234	-6.79	2.03	7.14	0.2357	-0.2809	-0.3131	
-0.703086	0.68259	0.16348	-4.41	1.68	6.51	0.2446	-0.2747	-0.3043	
-0.70577	0.680638	0.160674	-3.64	2.1	5.67	0.2521	-0.281	-0.3029	
-0.706746	0.68808	0.168238	-3.15	2.66	4.06	0.2477	-0.2793	-0.2956	
-0.70028	0.695156	0.16958	-3.22	2.38	3.57	0.2492	-0.2825	-0.3029	
-0.697474	0.69113	0.161528	-2.59	2.59	3.64	0.2402	-0.2824	-0.3059	
-0.704184	0.69418	0.163358	-2.24	2.38	3.15	0.2492	-0.2872	-0.3015	
-0.710284	0.702232	0.164456	-1.47	1.68	2.45	0.2477	-0.2857	-0.3059	
-0.698084	0.707112	0.164822	-1.26	1.12	1.68	0.2449	-0.2901	-0.2885	
-0.696864	0.706502	0.168482	-0.35	1.12	1.4	0.2537	-0.2887	-0.2943	
-0.704306	0.708698	0.161894	0.21	1.47	0.77	0.2477	-0.2856	-0.3015	
-0.699304	0.705282	0.167384	-0.7	0.84	-0.14	0.2491	-0.281	-0.3044	
-0.698938	0.698206	0.163602	-0.77	0.56	-0.56	0.2461	-0.2778	-0.2985	
-0.705038	0.700402	0.164334	0.21	-0.35	-1.47	0.2403	-0.284	-0.303	
-0.700036	0.705892	0.15738	-0.14	-0.63	-1.96	0.2492	-0.2842	-0.3102	
-0.698938	0.716018	0.162626	0.14	-1.12	-2.52	0.2492	-0.2841	-0.303	
-0.700158	0.708698	0.160308	-0.91	-0.98	-3.01	0.2522	-0.2825	-0.2986	
-0.70638	0.699548	0.158478	-1.12	-0.77	-3.71	0.2552	-0.2921	-0.3088	
-0.707112	0.69906	0.157136	-1.05	-1.05	-4.41	0.2448	-0.2872	-0.3059	
-0.710406	0.69479	0.166164	-1.26	-0.7	-4.83	0.2447	-0.2809	-0.3	
-0.714432	0.69906	0.165554	-0.91	-1.12	-5.88	0.2521	-0.2763	-0.3043	
-0.71004	0.69174	0.17019	-1.26	-0.7	-7	0.255	-0.2747	-0.2956	
-0.71919	0.692716	0.16958	-0.63	-1.12	-7.7	0.2536	-0.2746	-0.2868	
-0.71736	0.68564	0.17446	-2.17	-1.68	-9.38	0.249	-0.2684	-0.297	
-0.72895	0.68625	0.16714	-1.54	-1.12	-10.78	0.2579	-0.2685	-0.294	
-0.72163	0.685396	0.17568	-2.03	-1.75	-12.46	0.2565	-0.2748	-0.2999	
-0.727852	0.677832	0.175558	-1.19	-2.17	-14.98	0.258	-0.2796	-0.3131	
-0.731512	0.674782	0.180926	-1.89	-2.1	-17.01	0.2549	-0.2718	-0.3174	
-0.733464	0.662704	0.174094	-1.54	-2.24	-18.83	0.2639	-0.2702	-0.3042	
-0.73383	0.655506	0.176412	-3.36	-2.1	-20.58	0.2637	-0.2578	-0.3114	
-0.734196	0.659532	0.172386	-3.22	-2.03	-21.7	0.2593	-0.2624	-0.3056	
-0.739442	0.652334	0.177876	-2.17	-1.96	-23.1	0.2712	-0.2641	-0.3041	
-0.74359	0.643428	0.167872	-1.47	-1.47	-24.08	0.2666	-0.2485	-0.3098	
-0.75274	0.638426	0.179828	-1.54	-0.63	-25.83	0.2696	-0.2579	-0.3099	
-0.7625	0.642452	0.179096	-2.03	-0.91	-27.51	0.2652	-0.2578	-0.3085	
-0.758108	0.638182	0.169458	-2.66	-1.68	-28.63	0.2725	-0.247	-0.3127	
-0.764818	0.630496	0.181048	-2.94	-1.05	-29.33	0.2725	-0.2502	-0.3142	
-0.766282	0.618174	0.175314	-2.73	-1.75	-30.87	0.2725	-0.2486	-0.3112	
-0.77104	0.619028	0.17751	-2.66	-1.75	-32.2	0.2769	-0.2487	-0.317	
-0.781532	0.603168	0.17446	-4.06	-1.33	-33.18	0.2783	-0.2346	-0.3111	
-0.784582	0.603778	0.18605	-3.71	-1.12	-34.3	0.2827	-0.2362	-0.3154	
-0.792512	0.595848	0.18605	-3.85	-1.26	-35.07	0.2886	-0.2332	-0.3139	
-0.794464	0.583648	0.180438	-3.71	-1.68	-36.33	0.287	-0.2206	-0.308	
-0.805566	0.573156	0.17507	-4.9	-0.35	-37.38	0.29	-0.2207	-0.3167	
-0.814716	0.566934	0.183488	-5.39	-0.91	-39.34	0.2914	-0.2175	-0.3079	
-0.820816	0.540338	0.189344	-6.58	-1.26	-40.18	0.2988	-0.213	-0.3108	
-0.828014	0.522892	0.183366	-5.39	-1.54	-40.95	0.2926	-0.1942	-0.3222	
-0.83448	0.50081	0.184708	-4.83	0.21	-40.81	0.2971	-0.1941	-0.3048	
-0.832528	0.490806	0.18544	-3.85	-0.14	-42.07	0.3016	-0.202	-0.3077	
-0.852658	0.493612	0.19093	-2.66	0.28	-43.47	0.309	-0.1927	-0.3076	
-0.867054	0.478118	0.197518	-1.68	-0.91	-45.15	0.2984	-0.1834	-0.3221	
-0.87474	0.47092	0.203984	-1.96	-0.63	-45.85	0.3072	-0.1773	-0.3249	
-0.889014	0.449936	0.202642	-3.92	-0.49	-46.62	0.3176	-0.1711	-0.319	
-0.886696	0.437614	0.195444	-3.43	-1.05	-47.32	0.3233	-0.1571	-0.3218	
-0.889502	0.418094	0.198128	-1.75	-2.59	-48.58	0.3263	-0.1587	-0.3145	
-0.904142	0.406626	0.196786	1.47	-2.38	-48.93	0.3336	-0.1478	-0.3143	
-0.912194	0.400892	0.195444	1.61	-1.75	-49.84	0.3277	-0.1477	-0.3144	
-0.92049	0.376858	0.19581	-2.03	-1.82	-51.66	0.332	-0.1337	-0.3127	
-0.930372	0.34892	0.200812	1.61	-3.43	-53.13	0.3333	-0.126	-0.3228	
-0.927688	0.320982	0.200934	5.18	-2.8	-53.27	0.3347	-0.1134	-0.314	
-0.939522	0.303658	0.203496	7.35	-1.05	-55.44	0.3333	-0.1228	-0.3141	
-0.941352	0.286822	0.207644	4.55	1.33	-56.14	0.3421	-0.1151	-0.3169	
-0.935252	0.27999	0.203984	2.59	2.31	-57.47	0.3376	-0.1088	-0.311	
-0.944646	0.2623	0.197518	-3.15	5.39	-58.38	0.3479	-0.1011	-0.3094	
-0.96685	0.243634	0.199836	0.14	1.33	-53.69	0.3448	-0.0917	-0.3166	
-0.963922	0.218624	0.189588	-10.36	2.52	-55.23	0.3475	-0.073	-0.3208	
-0.967094	0.183	0.193614	-12.11	1.75	-54.67	0.3595	-0.0779	-0.3208	
-0.983198	0.16287	0.198616	-11.55	1.89	-53.06	0.3562	-0.0528	-0.3162	
-0.9821	0.134322	0.199104	-15.12	1.12	-53.55	0.3474	-0.0637	-0.3207	
-0.983076	0.114436	0.193126	-14.42	1.26	-53.55	0.3488	-0.059	-0.3177	
-0.98942	0.108946	0.189588	-13.58	1.47	-54.46	0.3621	-0.0482	-0.3219	
-0.982588	0.08174	0.19703	-13.65	0.56	-55.58	0.3589	-0.0357	-0.3204	
-0.983808	0.05734	0.20069	-14.14	0.07	-56.14	0.3661	-0.0187	-0.3274	
-0.985272	0.032696	0.206302	-14.77	0.63	-56.7	0.3572	-0.0168	-0.3143	
-0.974292	0.020374	0.210328	-13.51	1.05	-56.91	0.3541	-0.0075	-0.3215	
-0.979294	0.006344	0.212036	-15.82	3.15	-57.12	0.3569	0.0081	-0.3155	
-0.996374	-0.024522	0.21472	-17.64	3.64	-55.72	0.3672	0.0126	-0.3169	
-0.9699	0.126392	0.13176	52.36	-14.49	-31.36	0.3642	0.0156	-0.3314	
-0.995154	-0.04209	0.229604	-12.04	1.19	-52.71	0.3522	0.0222	-0.3154	
-0.980026	-0.057706	0.211548	-7.28	-1.4	-53.62	0.3553	0.0159	-0.3169	
-0.981002	-0.075396	0.207766	-9.59	0.14	-50.54	0.3521	0.0347	-0.3167	
-0.984906	-0.063684	0.205082	-15.54	0.91	-48.37	0.3519	0.0455	-0.3253	
-0.989298	-0.10065	0.220576	-20.3	1.75	-49.42	0.3607	0.0533	-0.3223	
-0.978196	-0.126758	0.207766	-15.96	1.26	-46.2	0.3607	0.0611	-0.3208	
-0.983808	-0.147376	0.200812	-14.91	0.63	-43.54	0.3501	0.0705	-0.328	
-0.985028	-0.162504	0.209718	-11.97	0.07	-40.18	0.3529	0.08769999	-0.3249	
-0.972706	-0.1647	0.195688	-11.2	0.98	-38.57	0.3469	0.0846	-0.3307	
-0.975146	-0.192394	0.191662	-13.3	2.8	-37.38	0.3439	0.0878	-0.3278	
-0.972218	-0.226066	0.190198	-14.14	5.25	-36.82	0.3512	0.1003	-0.3189	
-0.957334	-0.235704	0.189344	-12.32	4.97	-38.08	0.3467	0.1066	-0.3247	
-0.958432	-0.231434	0.190442	-13.72	3.99	-37.31	0.3451	0.1128	-0.3261	
-0.94733	-0.247782	0.192028	-14.49	4.06	-37.87	0.342	0.1271	-0.3143	
-0.939156	-0.24522	0.177998	-12.53	4.48	-40.11	0.3361	0.1224	-0.3231	
-0.961238	-0.274378	0.1952	-16.17	7.28	-37.73	0.3493	0.1379	-0.3156	
-0.936472	-0.295606	0.182634	-14.91	7.42	-36.68	0.3448	0.138	-0.3156	
-0.945866	-0.301218	0.178486	-16.31	8.47	-37.73	0.3388	0.1412	-0.3171	
-0.9333	-0.31415	0.17019	-16.59	8.47	-39.97	0.3386	0.1552	-0.3184	
-0.9272	-0.33855	0.172142	-19.39	8.12	-39.27	0.3416	0.1568	-0.3096	
-0.927078	-0.351238	0.171898	-21.49	7.63	-40.53	0.3357	0.1585	-0.3067	
-0.949404	-0.376614	0.166286	-20.51	10.36	-35.77	0.3356	0.1632	-0.3052	
-0.924882	-0.38674	0.15738	-19.04	9.66	-34.3	0.3341	0.1679	-0.3037	
-0.931714	-0.387716	0.16104	-18.55	12.04	-35.21	0.3338	0.1851	-0.3035	
-0.928786	-0.400282	0.16531	-20.23	9.73	-33.6	0.3308	0.1867	-0.305	
-0.940986	-0.415288	0.15128	-17.78	9.45	-31.78	0.3278	0.19	-0.2991	
-0.94306	-0.433832	0.145668	-13.02	0.21	-27.58	0.3367	0.1913	-0.3093	
-0.963434	-0.46177	0.141642	-13.09	4.2	-25.13	0.3367	0.1946	-0.2961	
-0.926956	-0.448716	0.136152	-3.5	-3.43	-20.93	0.3291	0.2055	-0.3019	
-0.921344	-0.45628	0.130906	-4.76	-2.52	-18.41	0.3202	0.2088	-0.3004	
-0.914268	-0.453596	0.13298	-3.22	-2.45	-17.92	0.3231	0.2135	-0.3003	
-0.911096	-0.457256	0.122	-4.62	-2.1	-17.57	0.3201	0.2182	-0.2959	
-0.908168	-0.460184	0.116388	-2.87	-2.8	-16.45	0.329	0.215	-0.2959	
-0.907314	-0.478362	0.117608	-3.29	-1.61	-15.61	0.3155	0.223	-0.2988	
-0.897188	-0.475678	0.117608	-2.59	-2.38	-14.28	0.326	0.2198	-0.2886	
-0.892552	-0.466894	0.120658	-1.54	-4.06	-12.32	0.32	0.2231	-0.2842	
-0.890112	-0.478484	0.11407	-2.59	-1.75	-10.78	0.3185	0.2277	-0.29	
-0.883646	-0.486902	0.110044	-2.73	-0.7	-10.78	0.311	0.2293	-0.2944	
-0.883646	-0.484218	0.125782	-3.22	0.21	-9.87	0.3154	0.234	-0.2929	
-0.890112	-0.476776	0.133102	-1.75	-0.21	-9.24	0.3095	0.2293	-0.2973	
-0.884866	-0.484828	0.121878	-0.42	0.28	-7.98	0.3109	0.2355	-0.2972	
-0.880962	-0.492514	0.13115	0.21	0.42	-7.28	0.3108	0.2434	-0.2899	
-0.883768	-0.487024	0.140422	0.07	1.4	-6.09	0.314	0.2308	-0.2944	
-0.879864	-0.484584	0.126758	1.68	1.26	-4.76	0.3182	0.2449	-0.2927	
-0.88084	-0.491172	0.134566	0.56	2.03	-2.87	0.3109	0.2403	-0.2943	
-0.869128	-0.495808	0.14152	1.12	1.75	-1.96	0.3065	0.2357	-0.29	
-0.868762	-0.485682	0.146522	1.75	1.89	-0.84	0.3109	0.2356	-0.29	
-0.87596	-0.488	0.150792	0.7	2.03	1.12	0.3184	0.2309	-0.2856	
-0.87291	-0.485316	0.147498	1.54	1.12	1.75	0.3064	0.2403	-0.2943	
-0.875106	-0.489464	0.15555	1.12	1.05	3.36	0.3123	0.2435	-0.2826	
-0.872666	-0.484706	0.148718	1.61	0.14	4.34	0.3125	0.2293	-0.2929	
-0.877546	-0.49532	0.146156	1.75	0.63	6.16	0.3139	0.234	-0.2943	
-0.880962	-0.499224	0.154696	2.45	1.26	7.7	0.3154	0.2339	-0.3031	
-0.890478	-0.488732	0.14213	3.92	0.7	9.52	0.3051	0.2246	-0.3017	
-0.89792	-0.484462	0.13542	5.39	-0.21	11.27	0.3125	0.2292	-0.3017	
-0.885842	-0.485316	0.132614	5.67	0.14	12.25	0.3155	0.2277	-0.2944	
-0.889258	-0.472994	0.132126	6.37	-0.21	13.37	0.3155	0.2261	-0.3002	
-0.900848	-0.460672	0.1403	6.16	0.07	15.4	0.317	0.2245	-0.2959	
-0.901214	-0.45689	0.133346	6.37	0.35	16.52	0.3245	0.2181	-0.2988	
-0.90097	-0.447496	0.131882	6.86	0.07	17.29	0.3156	0.2215	-0.293	
-0.902434	-0.449936	0.135542	6.79	0.42	18.13	0.3275	0.215	-0.2989	
-0.903532	-0.432246	0.13664	7	0.7	18.83	0.3157	0.2073	-0.3048	
-0.91134	-0.430538	0.14396	6.44	0.77	20.16	0.3202	0.2057	-0.2961	
-0.906948	-0.424072	0.136762	6.3	1.19	21.07	0.3172	0.2041	-0.3034	
-0.908412	-0.419314	0.141642	5.95	1.89	22.4	0.3292	0.1994	-0.2961	
-0.912072	-0.421754	0.142984	5.88	2.03	23.73	0.3395	0.2038	-0.3048	
-0.912316	-0.41175	0.141764	6.58	1.82	24.64	0.3367	0.1945	-0.3005	
-0.922198	-0.401136	0.150304	6.65	1.05	25.2	0.3248	0.1978	-0.3005	
-0.922198	-0.395158	0.144082	7.77	1.26	26.46	0.3382	0.193	-0.2962	
-0.921954	-0.38491	0.14396	8.47	0.49	26.88	0.3413	0.1788	-0.3065	
-0.928664	-0.376858	0.14396	8.75	0.63	27.3	0.3309	0.1789	-0.3065	
-0.929152	-0.363926	0.137128	9.24	-0.07	27.23	0.3384	0.1756	-0.3094	
-0.936716	-0.356728	0.149084	8.68	0.63	27.58	0.3414	0.1757	-0.3021	
-0.943182	-0.344406	0.143472	9.52	0.35	28.35	0.3474	0.1694	-0.2993	
-0.94123	-0.328546	0.139324	10.22	-0.28	29.4	0.3385	0.1663	-0.3052	
-0.949404	-0.329522	0.152256	9.38	0.84	29.47	0.3431	0.1569	-0.3038	
-0.953186	-0.305244	0.146522	10.01	1.19	29.19	0.3507	0.1443	-0.301	
-0.960262	-0.297314	0.161528	9.59	1.47	30.03	0.3536	0.1489	-0.3082	
-0.961848	-0.283284	0.159942	11.2	1.12	31.08	0.3582	0.1426	-0.3024	
-0.96502	-0.27389	0.153842	12.67	0.35	32.34	0.3583	0.1348	-0.3069	
-0.96502	-0.256688	0.152012	13.23	-0.35	33.25	0.3628	0.1332	-0.2996	
-0.96929	-0.242414	0.15067	13.16	-0.35	33.74	0.3644	0.1223	-0.2997	
-0.970022	-0.228994	0.152866	13.37	-1.47	34.09	0.3599	0.1207	-0.3056	
-0.973194	-0.211548	0.154818	11.9	-1.4	34.3	0.3646	0.1067	-0.297	
-0.975024	-0.202398	0.1647	10.57	-1.4	34.51	0.3556	0.1113	-0.3072	
-0.970632	-0.186294	0.156648	10.99	-2.17	34.3	0.3674	0.1159	-0.3085	
-0.977464	-0.177144	0.166774	8.96	-2.59	34.23	0.3587	0.102	-0.3043	
-0.976244	-0.160552	0.161162	8.4	-2.03	34.58	0.3692	0.094	-0.3015	
-0.972218	-0.146278	0.155428	8.12	-2.03	34.51	0.3602	0.0972	-0.3073	
-0.982588	-0.139934	0.161528	6.23	-0.7	35.21	0.3634	0.0847	-0.306	
-0.986736	-0.137006	0.163114	5.25	0.14	35.63	0.3664	0.0799	-0.3089	
-0.99003	-0.125904	0.159698	3.08	0.7	35.35	0.3695	0.0674	-0.3032	
-0.993202	-0.108702	0.16226	3.5	-0.84	35.07	0.368	0.0737	-0.3075	
-0.98759	-0.094062	0.137982	2.24	-0.42	35.49	0.3607	0.0596	-0.3121	
-0.991372	-0.093452	0.160552	-1.89	-0.98	36.05	0.3681	0.0595	-0.3149	
-0.99979	-0.083082	0.163968	-0.14	0.35	36.47	0.3667	0.0517	-0.3121	
-0.99369	-0.064782	0.157502	0.98	0.35	35.91	0.3803	0.0392	-0.3035	
-1.00406	-0.042334	0.157136	-0.21	-0.07	34.79	0.3758	0.0424	-0.302	
-0.999546	-0.026962	0.158966	-1.68	-2.31	34.58	0.367	0.0314	-0.3094	
-1.006012	-0.030378	0.162016	-4.62	0.35	34.16	0.37	0.0314	-0.3109	
-0.995886	-0.008905999	0.159454	-0.35	-1.33	34.09	0.3731	0.0189	-0.3023	
-0.998204	0.002684	0.158112	-2.73	-0.84	33.39	0.3878	0.0344	-0.2992	
-0.995642	0.009881999	0.160918	-2.94	-1.05	33.18	0.3717	0.0142	-0.3052	
-0.98759	0.017934	0.15189	-5.39	-0.7	32.83	0.3776	0.0141	-0.3081	
-0.999668	0.029158	0.16592	-3.5	2.73	32.55	0.3823	0.0016	-0.301	
-0.997228	0.037698	0.167384	0.07	3.43	31.92	0.3629	0.0049	-0.3141	
-0.99979	0.057828	0.1647	0.07	3.71	30.8	0.3704	-0.0014	-0.3127	
-1.002352	0.080886	0.15738	3.36	4.13	29.54	0.375	-0.0108	-0.3113	
-1.001986	0.090402	0.161284	6.51	3.43	30.38	0.3838	-0.0015	-0.3068	
-0.990152	0.09942999	0.154818	7.28	2.73	31.08	0.3676	-0.0138	-0.3128	
-0.99918	0.107604	0.154696	7	3.71	30.52	0.3765	-0.0155	-0.3084	
-0.988932	0.1098	0.15128	8.26	4.06	31.01	0.3828	-0.0389	-0.297	
-0.990884	0.130418	0.150792	8.47	4.76	30.24	0.3708	-0.031	-0.3043	
-0.994056	0.150914	0.15555	9.38	3.78	28.84	0.3754	-0.0404	-0.3029	
-0.995886	0.164212	0.151158	9.59	3.43	28.56	0.3694	-0.0357	-0.3058	
-0.988444	0.179584	0.143472	9.94	2.87	28	0.374	-0.0498	-0.3059	
-0.994788	0.187148	0.143838	9.1	2.38	27.93	0.3755	-0.0498	-0.303	
-0.989908	0.198494	0.13176	9.38	1.19	28.28	0.3638	-0.0621	-0.3046	
-0.986248	0.202764	0.133956	9.24	0.98	26.88	0.3816	-0.0544	-0.287	
-0.97539	0.19947	0.13298	6.79	1.61	25.27	0.3787	-0.0623	-0.2988	
-0.986492	0.211914	0.132736	7.84	2.03	23.45	0.3786	-0.0575	-0.2943	
-0.990884	0.215452	0.132126	7.49	2.31	22.05	0.3742	-0.0622	-0.2959	
-0.99125	0.224236	0.130418	6.65	2.03	21.7	0.3685	-0.0793	-0.2961	
-0.98515	0.231556	0.128344	4.69	1.96	20.16	0.3775	-0.0888	-0.2976	
-0.97478	0.226432	0.117608	4.76	2.1	18.55	0.3789	-0.0795	-0.3004	
-0.989054	0.252052	0.125172	8.47	0.98	18.97	0.382	-0.0889	-0.2961	
-0.977952	0.258396	0.122976	6.93	0.91	16.17	0.367	-0.0824	-0.299	
-0.976854	0.261446	0.126148	6.23	1.54	15.75	0.3716	-0.0918	-0.2933	
-0.971242	0.271328	0.119316	6.09	1.61	14.77	0.3627	-0.0902	-0.2977	
-0.97417	0.279136	0.123098	4.97	1.4	13.02	0.3659	-0.1058	-0.292	
-0.961726	0.300974	0.122122	5.25	0.77	10.92	0.3628	-0.1011	-0.2934	
-0.963922	0.298168	0.12993	2.24	0.84	10.36	0.3702	-0.09649999	-0.2933	
-0.960994	0.306098	0.127734	1.61	-0.35	8.68	0.3703	-0.1028	-0.2978	
-0.96014	0.305976	0.12383	-1.12	0.14	9.17	0.3704	-0.109	-0.2906	
-0.95953	0.312686	0.128954	-1.54	-0.63	7.98	0.3672	-0.0949	-0.2948	
-0.959164	0.31232	0.13115	-2.31	-1.68	6.79	0.3748	-0.109	-0.2905	
-0.955626	0.304024	0.13542	-5.53	-1.61	6.23	0.3689	-0.1137	-0.3008	
-0.961726	0.296948	0.137982	-4.69	-1.75	6.79	0.3688	-0.1059	-0.2949	
-0.959652	0.290116	0.13176	-3.78	-1.19	7.7	0.3718	-0.109	-0.2964	
-0.953674	0.28304	0.132858	-2.87	-1.4	7.84	0.3585	-0.1151	-0.295	
-0.958432	0.276208	0.138714	-1.26	-1.4	8.12	0.3585	-0.1151	-0.295	
-0.96014	0.277794	0.137372	1.12	-1.96	7.35	0.3613	-0.098	-0.2963	
-0.962336	0.280112	0.139568	1.33	-2.52	6.23	0.3569	-0.0994	-0.2905	
-0.965264	0.275354	0.141398	1.75	-2.87	5.32	0.3659	-0.1105	-0.2979	
-0.965264	0.274744	0.144448	2.45	-3.29	4.55	0.3584	-0.1025	-0.2891	
-0.961238	0.279014	0.142984	4.27	-3.22	4.06	0.3689	-0.1105	-0.2935	
-0.963678	0.281942	0.138714	6.72	-3.78	2.8	0.357	-0.1104	-0.2979	
-0.96258	0.2867	0.145058	7.98	-4.9	1.82	0.3482	-0.1181	-0.2965	
-0.952698	0.294142	0.140422	8.47	-5.18	0.63	0.3675	-0.1167	-0.2863	
-0.95587	0.299998	0.141398	8.19	-4.9	-0.28	0.3661	-0.1214	-0.2892	
-0.957578	0.302072	0.14335	7.49	-4.41	-0.98	0.3571	-0.1182	-0.2965	
-0.951722	0.30256	0.140056	6.72	-4.34	-1.26	0.3572	-0.1245	-0.2951	
-0.95038	0.310368	0.140666	7.07	-4.06	-1.19	0.357	-0.1151	-0.2994	
-0.953308	0.319396	0.14396	6.09	-3.64	-0.77	0.3646	-0.1214	-0.2951	
-0.95587	0.320006	0.147864	4.69	-3.22	-1.33	0.3585	-0.1119	-0.2848	
-0.951112	0.320982	0.14335	3.08	-2.52	-1.68	0.3646	-0.1214	-0.2893	
-0.953186	0.322202	0.144814	0.35	-2.03	-2.24	0.3586	-0.1167	-0.295	
-0.955504	0.320128	0.147498	-1.26	-1.4	-2.31	0.3585	-0.1088	-0.295	
-0.960506	0.314882	0.149816	-3.22	-0.84	-2.03	0.3526	-0.1182	-0.298	
-0.952698	0.303536	0.145912	-4.76	-1.19	-1.61	0.3541	-0.1197	-0.2907	
-0.953796	0.298168	0.147498	-5.67	-1.12	-1.82	0.3616	-0.123	-0.2951	
-0.9577	0.297314	0.151768	-6.44	-0.98	-2.24	0.3556	-0.1182	-0.2936	
-0.953308	0.291946	0.148962	-6.65	-1.19	-2.45	0.3614	-0.1042	-0.2949	
-0.95709	0.290604	0.148718	-6.58	-0.77	-2.73	0.363	-0.1183	-0.2921	
-0.9516	0.290238	0.149206	-6.58	-0.77	-2.8	0.3629	-0.1026	-0.2891	
-0.96136	0.285236	0.154574	-5.88	-1.05	-2.59	0.3525	-0.1072	-0.2964	
-0.957456	0.285724	0.153476	-6.16	-0.91	-2.73	0.3554	-0.1042	-0.2993	
-0.956236	0.284016	0.15372	-6.16	-0.7	-2.8	0.3555	-0.1089	-0.3037	
-0.960506	0.285358	0.155794	-4.9	-0.7	-2.52	0.36	-0.1137	-0.3081	
-0.958554	0.281332	0.153598	-4.13	-1.05	-2.8	0.3569	-0.1042	-0.3036	
-0.965142	0.274378	0.157014	-3.22	-0.7	-2.59	0.3569	-0.1074	-0.3037	
-0.961726	0.273768	0.154818	-2.8	-1.19	-2.87	0.3553	-0.0963	-0.2977	
-0.965996	0.27145	0.1586	-2.31	-1.33	-2.52	0.3569	-0.1011	-0.3007	
-0.960384	0.271572	0.158356	-1.82	-1.54	-2.31	0.3615	-0.1136	-0.2964	
-0.961482	0.273646	0.158112	-1.26	-1.75	-2.38	0.3584	-0.1089	-0.3022	
-0.963312	0.27145	0.157868	-0.77	-2.03	-2.24	0.3613	-0.1012	-0.3021	
-0.959286	0.267912	0.157258	-0.49	-2.66	-2.24	0.3554	-0.1073	-0.3037	
-0.964044	0.271938	0.16165	0.35	-2.31	-2.17	0.3599	-0.1042	-0.2993	
-0.963678	0.273768	0.16165	0.56	-2.59	-2.17	0.3525	-0.1073	-0.3022	
-0.965752	0.27206	0.161528	0.91	-2.45	-2.03	0.3568	-0.0979	-0.2992	
-0.958432	0.268522	0.16104	0.77	-2.52	-1.89	0.3656	-0.0902	-0.2947	
-0.96197	0.26901	0.165676	1.19	-2.1	-1.82	0.3598	-0.1043	-0.3065	
-0.969656	0.276452	0.167994	1.26	-2.38	-1.96	0.3584	-0.1026	-0.2993	
-0.959896	0.271816	0.165188	1.54	-2.59	-1.54	0.3555	-0.1073	-0.2964	
-0.964044	0.274378	0.165554	1.61	-2.73	-1.75	0.3568	-0.0964	-0.2992	
-0.9638	0.269498	0.164944	0.14	-3.15	-1.54	0.3584	-0.1074	-0.3066	
-0.964166	0.2684	0.16836	-0.35	-2.87	-1.33	0.3554	-0.109	-0.3124	
-0.960872	0.26413	0.16653	-0.28	-3.22	-1.05	0.3524	-0.1074	-0.3139	
-0.962946	0.263886	0.169092	1.47	-3.5	-1.54	0.3614	-0.1106	-0.311	
-0.961482	0.26474	0.171044	2.24	-3.78	-1.61	0.3569	-0.1058	-0.3007	
-0.962946	0.262788	0.17202	2.73	-3.99	-1.68	0.3451	-0.1135	-0.3096	
-0.963922	0.256688	0.174826	3.08	-4.13	-0.91	0.3495	-0.1073	-0.3066	
-0.965386	0.261812	0.173972	4.13	-4.55	-0.91	0.3479	-0.1026	-0.3051	
-0.963068	0.264862	0.169946	6.16	-4.62	-1.89	0.3479	-0.1011	-0.3124	
-0.958554	0.271816	0.170678	6.93	-4.34	-2.03	0.351	-0.1089	-0.3066	
-0.957334	0.272914	0.17019	7.42	-4.13	-1.82	0.3525	-0.1106	-0.3154	
-0.963922	0.287554	0.17446	6.16	-3.57	-1.26	0.3523	-0.1013	-0.3211	
-0.958432	0.270474	0.174948	5.95	-2.66	-1.4	0.3434	-0.0994	-0.3094	
-0.956358	0.280966	0.176656	5.46	-1.96	-1.54	0.3554	-0.1028	-0.3124	
-0.95404	0.284748	0.176412	3.92	-1.89	-1.26	0.3479	-0.1028	-0.3226	
-0.954894	0.282674	0.180682	2.03	-1.75	-0.98	0.345	-0.1041	-0.308	
-0.957456	0.285968	0.182878	0.56	-1.68	-0.28	0.3463	-0.0932	-0.3094	
-0.958066	0.27694	0.182878	-0.49	-1.89	-0.07	0.3584	-0.1058	-0.3051	
-0.958066	0.277916	0.183	-1.33	-1.89	-0.07	0.3464	-0.1027	-0.3138	
-0.957944	0.273524	0.183732	-2.73	-1.89	0.28	0.3509	-0.1012	-0.3167	
-0.958676	0.26901	0.177754	-2.8	-1.82	0.98	0.3436	-0.1088	-0.3052	
-0.962214	0.263764	0.17873	-2.31	-1.33	0.49	0.3508	-0.0949	-0.3166	
-0.959774	0.2623	0.182512	-2.45	-1.19	0.28	0.3508	-0.0933	-0.3079	
-0.960994	0.261934	0.184098	-2.73	-0.91	0	0.3509	-0.1042	-0.3095	
-0.952576	0.249368	0.18849	-4.06	-1.05	0.7	0.3465	-0.1056	-0.3022	
-0.958432	0.25925	0.187514	-1.82	-0.56	-0.63	0.3495	-0.1104	-0.3066	
-0.956968	0.263032	0.187148	-1.61	-0.7	-0.63	0.3465	-0.1042	-0.3095	
-0.955016	0.26108	0.18849	-1.26	-0.98	-0.49	0.3524	-0.1042	-0.3066	
-0.9577	0.261812	0.18666	-0.56	-0.84	-0.42	0.3419	-0.0995	-0.3182	
-0.957334	0.26657	0.18971	0.07	-0.7	-0.35	0.3375	-0.0994	-0.3109	
-0.957456	0.265106	0.190198	-0.07	-0.7	-0.49	0.3435	-0.1074	-0.3255	
-0.958188	0.264984	0.19276	0	-0.7	-0.56	0.348	-0.109	-0.3226	
