Sensor string: E
Serial number: 1970-01-0000
Firmware version: 2,015
Hardware version: 2,2
Calibration quality: 5
ax	ay	az	gx	gy	gz	mx	my	mz

-0.926102	0.061	0.403088	-0.28	2.17	-0.14	0.3431	-0.0322	-0.3568	Reference
-0.925004	0.062708	0.403576	0	1.12	-0.14	0.3584	-0.0247	-0.3702	
-0.926468	0.06283	0.405772	-0.14	0.77	-0.21	0.3569	-0.0247	-0.3702	
-0.928908	0.062586	0.407846	0.07	0.28	-0.07	0.3405	-0.0213	-0.3606	
-0.926346	0.064416	0.406138	0.49	-0.28	-0.07	0.345	-0.0261	-0.3639	
-0.922442	0.064294	0.407602	0.7	-0.49	0	0.3496	-0.0248	-0.3699	
-0.913658	0.069052	0.410408	1.4	-0.49	-0.07	0.3479	-0.0197	-0.3623	
-0.915366	0.071614	0.408334	1.54	0.49	0	0.3478	-0.0245	-0.3625	
-0.918538	0.06954	0.409554	1.12	0.84	0	0.3482	-0.0329	-0.3731	
-0.917684	0.064904	0.411384	1.26	0.84	0	0.3479	-0.0437	-0.3677	
-0.915854	0.06771	0.412116	1.4	0.91	-0.35	0.345	-0.0246	-0.3653	
-0.91744	0.073078	0.4087	0.21	1.05	-0.56	0.342	-0.0341	-0.3641	
-0.91927	0.072834	0.405894	0.28	1.54	-0.49	0.3556	-0.0297	-0.3732	
-0.92415	0.070394	0.400648	0	1.75	-0.21	0.3463	-0.0243	-0.3595	
-0.92537	0.070394	0.400404	-0.42	1.54	-0.28	0.3463	-0.034	-0.3628	
-0.927322	0.06734399	0.399672	-0.14	1.05	-0.14	0.3448	-0.0451	-0.3632	
-0.924882	0.069906	0.399184	-0.28	0.49	-0.07	0.3495	-0.0311	-0.3687	
-0.924272	0.070272	0.402234	-0.14	0.35	0	0.358	-0.0227	-0.3599	
-0.922076	0.070882	0.404918	0.21	0.28	0.14	0.3521	-0.0371	-0.3617	
-0.920734	0.070028	0.405284	0.28	0.49	0.07	0.3505	-0.0338	-0.3586	
-0.919148	0.072346	0.40321	0.14	0.84	-0.28	0.351	-0.0263	-0.3685	
-0.92232	0.071858	0.401746	-0.07	0.91	-0.21	0.3491	-0.0323	-0.3599	
-0.924028	0.071858	0.39955	-0.42	0.98	-0.35	0.3433	-0.0243	-0.3579	
-0.925004	0.069784	0.396378	-0.42	0.91	-0.56	0.3508	-0.0341	-0.3659	
-0.934276	0.069174	0.392718	-0.77	0.77	-0.7	0.3552	-0.0292	-0.3644	
-0.93025	0.068686	0.393816	-0.98	0	-0.7	0.3525	-0.0295	-0.3702	
-0.926224	0.066978	0.39528	-0.98	-0.77	-0.63	0.3595	-0.0356	-0.3649	
-0.926712	0.067954	0.393572	-1.19	-1.19	-0.56	0.3524	-0.015	-0.3637	
-0.928054	0.063806	0.389546	-1.19	-1.4	-0.7	0.3577	-0.0224	-0.354	
-0.931958	0.061732	0.386496	-1.12	-1.4	-1.05	0.3525	-0.0279	-0.3686	
-0.938912	0.060146	0.379176	-1.19	-1.47	-1.26	0.3538	-0.0277	-0.3658	
-0.947208	0.064904	0.371734	-0.7	-1.54	-1.54	0.3511	-0.0376	-0.3719	
-0.961726	0.06222	0.349042	-0.7	-1.89	-1.47	0.3526	-0.0313	-0.3732	
-0.974292	0.0549	0.317078	0.84	-3.01	-1.12	0.3566	-0.0339	-0.3632	
-1.00284	0.053314	0.298534	1.26	-6.09	-0.77	0.3446	-0.0274	-0.3566	
-1.016382	0.061366	0.284138	0.98	-11.06	-0.91	0.3497	-0.0297	-0.373	
-1.015284	0.07503	0.275354	0.14	-16.03	-0.63	0.3434	-0.0372	-0.3628	
-1.002474	0.061244	0.288164	0.84	-21.91	0.63	0.3465	-0.0183	-0.3651	
-0.99491	0.05551	0.297924	1.19	-27.02	0.84	0.3481	-0.0184	-0.3681	
-0.980026	0.054534	0.313296	0.7	-31.01	0.07	0.3354	-0.0382	-0.383	
-0.967948	0.061122	0.33489	-0.49	-35	-0.7	0.3279	-0.0332	-0.3766	
-0.949404	0.0549	0.356606	-1.75	-38.71	-0.42	0.3339	-0.0253	-0.378	
-0.937326	0.050508	0.378932	-2.1	-41.23	0	0.3238	-0.0352	-0.3838	
-0.931592	0.052094	0.383934	-1.89	-43.26	0.07	0.3197	-0.0339	-0.3894	
-0.931714	0.050142	0.390156	-3.57	-45.29	-0.49	0.3224	-0.032	-0.3836	
-0.920856	0.051118	0.391254	-3.64	-47.81	-0.84	0.3021	-0.034	-0.3886	
-0.910364	0.053192	0.393694	-2.66	-50.75	0.07	0.2981	-0.0184	-0.3936	
-0.890966	0.062708	0.40687	-2.31	-54.53	0.63	0.2968	-0.0283	-0.4013	
-0.858636	0.053192	0.43676	-2.73	-58.38	0.63	0.2835	-0.0315	-0.398	
-0.83936	0.048312	0.455792	-3.36	-62.16	0.84	0.2871	-0.0274	-0.4125	
-0.831918	0.044164	0.472506	-2.94	-66.15	2.03	0.2718	-0.0396	-0.3993	
-0.828014	0.049776	0.475556	-0.84	-68.39	2.73	0.2652	-0.0388	-0.4165	
-0.799344	0.060634	0.479338	-1.68	-71.96	3.78	0.2464	-0.036	-0.4199	
-0.767624	0.054046	0.50569	-3.08	-75.46	5.18	0.2466	-0.0298	-0.4226	
-0.7381	0.05429	0.53314	-4.83	-78.68	6.02	0.2163	-0.0401	-0.4349	
-0.691252	0.042456	0.609512	-4.41	-80.43	6.86	0.2031	-0.0386	-0.4342	
-0.695156	0.041236	0.641964	-3.43	-79.03	6.44	0.1842	-0.0373	-0.4348	
-0.67588	0.05795	0.663192	-2.03	-80.78	5.6	0.1783	-0.0309	-0.4343	
-0.634034	0.053314	0.669536	-1.75	-80.29	5.67	0.1636	-0.039	-0.434	
-0.607072	0.056852	0.658434	-2.52	-80.64	7.35	0.1481	-0.0397	-0.4465	
-0.57401	0.04087	0.667096	-5.39	-81.62	9.59	0.1434	-0.0442	-0.4392	
-0.53924	0.043676	0.681858	-4.97	-83.51	9.73	0.1304	-0.0429	-0.443	
-0.500078	0.054656	0.714432	-4.2	-84.84	9.73	0.1158	-0.0431	-0.4438	
-0.48922	0.054778	0.731878	-2.8	-85.12	9.66	0.094	-0.0402	-0.4457	
-0.468236	0.0671	0.744566	-1.75	-87.15	8.89	0.0925	-0.0465	-0.4459	
-0.440786	0.073444	0.766282	-3.01	-89.6	8.33	0.0633	-0.0421	-0.4474	
-0.406992	0.064538	0.80032	-4.13	-92.33	9.38	0.0544	-0.042	-0.4441	
-0.34648	0.050264	0.823134	-2.24	-93.87	9.87	0.0342	-0.0457	-0.4507	
-0.303292	0.053802	0.855464	-0.98	-93.24	9.17	0.0158	-0.0594	-0.4344	
-0.278526	0.05063	0.888526	-2.24	-91.84	7.77	0.0031	-0.0423	-0.4404	
-0.230458	0.060268	0.926468	-2.73	-90.72	6.65	-0.0188	-0.0521	-0.4414	
-0.186294	0.06527	0.949892	-2.73	-89.04	6.09	-0.0187	-0.0426	-0.4424	
-0.146156	0.060146	0.975024	-4.62	-86.17	5.25	-0.0338	-0.0502	-0.4319	
-0.12444	0.056608	0.991372	-6.02	-83.58	5.18	-0.0487	-0.0484	-0.4254	
-0.091378	0.054168	1.005402	-4.2	-81.83	5.6	-0.0585	-0.0442	-0.435	
-0.042456	0.053924	1.027728	-5.53	-78.89	5.25	-0.0765	-0.0471	-0.4241	
-0.012932	0.0488	1.03029	-5.53	-74.55	4.55	-0.08419999	-0.0499	-0.4166	
0.006466	0.041602	1.03151	-3.99	-71.12	4.69	-0.097	-0.044	-0.4231	
0.042578	0.042456	1.041026	-3.5	-68.74	4.41	-0.1096	-0.0416	-0.402	
0.074542	0.039772	1.044686	-3.01	-64.96	4.83	-0.1149	-0.0374	-0.4133	
0.093208	0.038186	1.053104	-4.69	-59.43	4.62	-0.1253	-0.0437	-0.4102	
0.1098	0.038308	1.056764	-4.9	-54.81	4.48	-0.1283	-0.0501	-0.4104	
0.137494	0.037576	1.0614	-4.55	-50.82	4.34	-0.1372	-0.0372	-0.405	
0.157868	0.03843	1.070916	-3.5	-48.02	3.99	-0.1538	-0.0431	-0.3929	
0.173728	0.036478	1.077504	-4.13	-44.59	3.5	-0.1624	-0.045	-0.397	
0.184098	0.030378	1.082872	-4.34	-40.32	2.73	-0.166	-0.0315	-0.3788	
0.18483	0.033306	1.083726	-4.55	-35.56	1.96	-0.1659	-0.0396	-0.3835	
0.199104	0.030012	1.090924	-3.36	-31.22	1.54	-0.1671	-0.0511	-0.3912	
0.21472	0.036356	1.08763	-2.52	-25.97	1.68	-0.1764	-0.041	-0.3773	
0.22753	0.035258	1.088728	-2.24	-20.86	1.12	-0.1837	-0.0427	-0.377	
0.22997	0.03355	1.09556	-2.1	-16.1	0.49	-0.1777	-0.0381	-0.3815	
0.22692	0.032818	1.098732	-0.84	-10.57	0.7	-0.1824	-0.0297	-0.3721	
0.236192	0.033428	1.098	0.63	-4.62	0.56	-0.1881	-0.0395	-0.3767	
0.240218	0.033184	1.106662	1.54	0.7	0	-0.1896	-0.0395	-0.3752	
0.235582	0.0305	1.115202	1.82	5.67	-0.77	-0.187	-0.0327	-0.3677	
0.239364	0.03416	1.123376	1.96	10.29	-1.61	-0.1863	-0.0319	-0.3837	
0.245464	0.029402	1.122278	2.52	17.64	-1.89	-0.1817	-0.0401	-0.3901	
0.241194	0.032086	1.120692	3.78	23.66	-2.31	-0.1897	-0.0474	-0.3755	
0.240706	0.028792	1.115934	4.48	29.89	-2.87	-0.1714	-0.0384	-0.3905	
0.229848	0.028304	1.112884	5.11	35.42	-3.08	-0.1653	-0.0419	-0.3982	
0.216306	0.030378	1.1041	6.3	40.81	-3.15	-0.1611	-0.0497	-0.3958	
0.19642	0.038674	1.094096	6.09	45.71	-3.85	-0.1538	-0.0464	-0.3945	
0.175436	0.044896	1.085922	5.95	50.61	-4.9	-0.1419	-0.0465	-0.3994	
0.149816	0.043676	1.078358	5.88	55.3	-5.39	-0.1451	-0.0414	-0.3918	
0.133346	0.047458	1.075796	6.23	60.13	-5.18	-0.1369	-0.0471	-0.4142	
0.113338	0.050874	1.061766	6.51	64.89	-4.9	-0.1282	-0.0533	-0.412	
0.08601	0.05795	1.051396	4.48	68.53	-5.88	-0.1179	-0.0517	-0.4138	
0.045994	0.054412	1.02968	4.69	72.8	-7.21	-0.1061	-0.0565	-0.4174	
0.014274	0.04941	1.01992	5.18	76.23	-7.77	-0.09869999	-0.0469	-0.4173	
-0.001464	0.04514	1.005036	5.46	78.75	-7.49	-0.0793	-0.052	-0.4271	
-0.03111	0.051118	0.988444	6.09	83.16	-7.49	-0.0706	-0.0471	-0.4258	
-0.062586	0.062952	0.965264	4.83	85.68	-7.84	-0.0574	-0.0598	-0.4299	
-0.103456	0.070516	0.937936	4.13	88.76	-8.89	-0.0423	-0.0634	-0.4409	
-0.1403	0.06832	0.921466	3.64	91.49	-9.38	-0.032	-0.057	-0.441	
-0.172386	0.059658	0.910608	3.71	93.66	-9.38	-0.0117	-0.0566	-0.4375	
-0.19764	0.060268	0.901702	2.73	96.39	-9.17	-0.0025	-0.0538	-0.4465	
-0.22387	0.058194	0.882548	2.87	98.56	-9.1	0.0269	-0.057	-0.4538	
-0.261446	0.058316	0.84485	2.31	99.75	-8.89	0.028	-0.0582	-0.4451	
-0.311588	0.059902	0.814716	1.47	100.87	-9.17	0.0531	-0.0582	-0.4506	
-0.34099	0.058682	0.800076	1.33	101.92	-9.31	0.07319999	-0.0528	-0.441	
-0.354654	0.05246	0.789828	1.68	103.6	-9.31	0.0807	-0.045	-0.4439	
-0.370148	0.047336	0.762134	1.82	105.56	-9.24	0.113	-0.0416	-0.4466	
-0.411872	0.044286	0.720288	0.91	107.31	-8.19	0.1175	-0.0545	-0.4517	
-0.459818	0.052216	0.693448	-0.28	108.36	-7	0.1307	-0.048	-0.4505	
-0.501176	0.053558	0.665876	-1.26	108.92	-6.23	0.1597	-0.0363	-0.444	
-0.521672	0.051606	0.643794	-0.84	109.62	-5.67	0.1711	-0.0407	-0.4373	
-0.542656	0.049654	0.614026	-1.12	112.21	-4.97	0.1897	-0.0433	-0.4295	
-0.589016	0.054046	0.57157	-1.12	114.8	-4.48	0.2032	-0.0435	-0.4374	
-0.633668	0.060146	0.523014	-2.03	116.48	-3.64	0.2261	-0.0475	-0.4254	
-0.673928	0.061366	0.490928	-2.17	117.18	-3.15	0.2319	-0.0379	-0.4238	
-0.701866	0.0488	0.468358	-1.4	116.13	-3.08	0.2665	-0.0498	-0.4141	
-0.720654	0.04636	0.439322	1.89	113.82	-4.34	0.2737	-0.0272	-0.4076	
-0.705892	0.055144	0.415654	3.15	112.7	-5.32	0.2955	-0.0205	-0.4024	
-0.779946	0.056242	0.355264	4.62	113.82	-6.72	0.3119	-0.0334	-0.3774	
-0.86376	0.058194	0.309148	3.57	112.07	-9.38	0.3149	-0.0319	-0.3804	
-0.876692	0.046604	0.255712	0.91	107.31	-10.15	0.3367	-0.0252	-0.3752	
-0.903044	0.035258	0.16043	1.4	101.99	-11.06	0.3493	-0.0277	-0.3641	
-0.916586	0.039284	0.078812	4.41	93.31	-11.48	0.3623	-0.0274	-0.3603	
-0.9638	0.046482	0.028548	6.3	85.68	-9.59	0.3751	-0.0189	-0.3503	
-0.975146	0.057706	0.017812	5.81	78.54	-7.91	0.3762	-0.0105	-0.3397	
-0.981124	0.056852	0.077104	3.01	72.17	-5.6	0.4063	-0.0191	-0.3268	
-0.983076	0.059292	0.106018	-0.35	67.13	-2.38	0.4016	-0.0188	-0.3193	
-1.00406	0.037698	0.085888	-4.62	62.93	0.84	0.4085	-0.0214	-0.3095	
-1.001376	0.018422	0.0488	-5.74	59.08	2.24	0.4159	-0.0072	-0.3106	
-1.002962	0.00671	0.011346	-5.11	57.54	3.01	0.433	-0.0128	-0.2999	
-1.108858	0.021472	-0.008662	-5.46	60.55	3.43	0.4298	-0.0158	-0.2941	
-1.1224	0.02806	-0.012322	-5.39	56.7	4.41	0.4425	-0.0104	-0.2827	
-1.073234	0.031354	-0.032696	-4.76	52.43	5.74	0.4423	-0.0165	-0.2786	
-1.05652	0.049166	-0.03416	-3.64	48.93	5.53	0.4378	-0.0116	-0.2753	
-1.068964	0.058804	-0.038308	-4.06	45.01	5.95	0.4599	-0.0148	-0.2793	
-1.072136	0.056608	-0.039284	-6.72	41.3	5.95	0.4402	0.0017	-0.2602	
-1.061766	0.069662	-0.041236	-8.26	37.87	5.25	0.4659	-0.0038	-0.2484	
-1.057862	0.051972	-0.05978	-9.03	35.14	6.02	0.4583	-0.0114	-0.2411	
-1.0919	0.029646	-0.06771	-9.59	33.95	5.81	0.4773	-0.0081	-0.2403	
-1.089338	0.035746	-0.080276	-8.12	28.84	5.11	0.4696	-0.0045	-0.2311	
-1.084336	0.076006	-0.057462	3.5	13.72	11.41	0.4741	-0.0015	-0.2341	
-1.122278	0.05307	-0.096746	-3.71	24.71	1.4	0.4826	0.0021	-0.2255	
-1.126914	0.053924	-0.09272	-3.01	22.96	-1.19	0.4767	-0.0009999999	-0.2254	
-1.12301	0.055388	-0.095892	-1.68	19.74	-3.22	0.4752	-0.0009999999	-0.2253	
-1.164856	0.047824	-0.108458	0	16.24	-4.9	0.4797	-0.0027	-0.2285	
-1.110566	0.055632	-0.10797	0.63	13.65	-4.55	0.4724	0.0004	-0.2266	
-1.090436	0.061366	-0.10858	1.05	11.06	-4.55	0.4751	-0.0073	-0.2242	
-1.091046	0.061	-0.107604	0.56	8.96	-4.41	0.4762	0.0058	-0.212	
-1.078602	0.062342	-0.110288	0.21	6.3	-4.48	0.4897	-0.004	-0.2232	
-1.055056	0.066246	-0.099552	-0.56	4.06	-3.92	0.4852	-0.0055	-0.2201	
-1.03273	0.077104	-0.084668	-2.59	2.87	-3.08	0.4825	-0.0026	-0.2257	
-1.028338	0.076372	-0.091744	-5.6	3.29	-2.38	0.4764	-0.0039	-0.2197	
-1.035292	0.060878	-0.096624	-7.7	4.34	-2.17	0.4749	0.0008	-0.218	
-1.050176	0.039528	-0.10187	-8.4	4.48	-2.38	0.4852	0.0056	-0.2182	
-1.074698	0.032208	-0.109556	-7.56	3.92	-3.64	0.4896	0.0025	-0.2185	
-1.07726	0.025864	-0.113948	-5.46	3.22	-4.76	0.4807	0.0041	-0.2166	
-1.080188	0.0244	-0.113704	-3.5	3.29	-5.39	0.479	0.0012	-0.2108	
-1.094828	0.012688	-0.12383	-3.08	2.87	-6.37	0.4836	-0.0006	-0.2169	
-1.106662	0.01281	-0.126148	-0.7	1.96	-6.23	0.4849	0.0059	-0.2123	
-1.112274	0.021594	-0.129076	0.98	-0.21	-6.79	0.4936	-0.0017	-0.2101	
-1.110932	0.012932	-0.128466	1.4	-3.01	-6.72	0.4913	0.0118	-0.2226	
-1.110688	0.014274	-0.12566	1.89	-6.16	-6.86	0.4897	0.0072	-0.2198	
-1.103124	0.011712	-0.111386	1.68	-9.17	-6.58	0.4777	0.0106	-0.2118	
-1.09068	0.014884	-0.104554	1.4	-11.69	-5.88	0.4825	0.0149	-0.222	
-1.094096	0.008052	-0.114314	0.77	-14.07	-4.48	0.4939	0.0218	-0.2135	
-1.114226	0.008784	-0.112728	0.91	-17.57	-3.71	0.484	0.0165	-0.2235	
-1.118984	0.009516	-0.105774	0.42	-21.07	-3.22	0.4752	0.0116	-0.2233	
-1.111054	0.00427	-0.092598	0	-24.29	-2.31	0.4873	0.0146	-0.231	
-1.08763	0.005002	-0.084912	-0.35	-26.53	-1.4	0.4758	0.0159	-0.2349	
-1.086288	0.001586	-0.07808	-0.63	-28.21	-0.07	0.4685	0.0126	-0.2361	
-1.094218	0.003904	-0.076006	-0.42	-30.59	0.84	0.4687	0.0139	-0.2419	
-1.087142	0.000854	-0.061366	-0.21	-32.9	1.75	0.4717	0.0267	-0.24	
-1.084946	-0.001586	-0.048556	-0.14	-35	3.01	0.4772	0.0207	-0.2332	
-1.066646	0.0061	-0.032452	-0.49	-36.61	3.57	0.465	0.0148	-0.2563	
-1.072746	0.003904	-0.016592	-0.91	-37.8	4.41	0.4592	0.0146	-0.259	
-1.066646	0.00366	-0.008174	-0.98	-39.27	4.9	0.4564	0.0144	-0.2618	
-1.077016	0.008784	-0.006466	-1.12	-40.04	4.48	0.4559	0.007	-0.2519	
-1.083604	0.013298	0.002196	-0.84	-41.93	3.92	0.4495	0.0204	-0.2686	
-1.081408	0.020496	0.01525	-0.56	-43.33	3.85	0.4465	-0.0067	-0.274	
-1.078724	0.025864	0.030988	-0.98	-45.29	4.27	0.4379	0.0026	-0.2747	
-1.060302	0.017568	0.047946	-1.89	-47.25	5.11	0.4428	0.0036	-0.2865	
-1.04493	0.01037	0.061244	-1.75	-49.21	5.74	0.4295	0.0021	-0.2831	
-1.045418	0.015616	0.072102	-0.77	-50.68	5.39	0.4303	-0.0004	-0.3037	
-1.046394	0.026596	0.094062	-0.14	-52.22	5.32	0.4301	-0.0033	-0.2994	
-1.048712	0.025498	0.10065	0.28	-53.41	5.53	0.4172	0.0026	-0.303	
-1.05164	0.032452	0.104676	0.42	-54.67	4.69	0.4085	0.0008	-0.3056	
-1.05469	0.02379	0.113826	-0.42	-55.79	3.71	0.4035	-0.0048	-0.3261	
-1.055056	0.025742	0.116266	1.12	-58.03	3.01	0.3978	0.0012	-0.3299	
-1.051518	0.036966	0.136152	2.59	-61.04	2.24	0.3923	0.0072	-0.3353	
-1.040294	0.045994	0.152866	4.13	-63.91	2.52	0.3932	-0.0033	-0.3256	
-1.018944	0.04819	0.178852	5.25	-66.64	1.89	0.3841	0.0032	-0.3511	
-1.016504	0.053802	0.206424	7.28	-68.53	0.91	0.3735	-0.0123	-0.3455	
-1.000644	0.054534	0.245342	6.86	-70.7	0.77	0.3625	0.0011	-0.3591	
-0.961238	0.047092	0.262422	5.81	-72.1	0.28	0.364	-0.0052	-0.3609	
-0.945134	0.048678	0.270352	6.44	-72.87	-0.21	0.3498	-0.0121	-0.3708	
-0.937692	0.048922	0.272792	7.98	-74.69	-0.56	0.3324	-0.0221	-0.3763	
-0.931592	0.070394	0.307074	9.87	-75.88	-1.19	0.3343	-0.0114	-0.3847	
-0.909266	0.081496	0.33062	9.38	-76.72	-0.77	0.3111	-0.0166	-0.3912	
-0.865224	0.078934	0.341722	8.82	-79.31	0.56	0.301	-0.0217	-0.3954	
-0.821548	0.0732	0.355142	9.17	-81.2	1.47	0.2938	-0.0219	-0.398	
-0.795074	0.066612	0.374418	5.88	-82.32	2.73	0.2795	-0.0351	-0.4082	
-0.765672	0.064538	0.380152	6.02	-84.77	3.36	0.2652	-0.0227	-0.4114	
-0.712602	0.072224	0.380762	7.84	-93.03	2.94	0.2421	-0.0281	-0.4194	
-0.6588	0.080642	0.416508	6.37	-93.31	1.82	0.2277	-0.0397	-0.4266	
-0.632448	0.099918	0.474946	5.11	-99.05	3.08	0.2137	-0.0373	-0.4419	
-0.579378	0.09076799	0.510814	0.91	-101.29	4.69	0.1873	-0.0294	-0.4375	
-0.503372	0.076128	0.552538	-1.47	-104.65	6.02	0.1844	-0.0343	-0.4391	
-0.477874	0.063806	0.60146	-3.64	-105.42	7	0.1623	-0.0328	-0.4366	
-0.462258	0.062342	0.673684	-3.43	-107.17	7.35	0.1509	-0.0347	-0.4421	
-0.432124	0.076128	0.736514	-3.71	-107.59	7.84	0.1381	-0.0369	-0.4518	
-0.35563	0.082106	0.779946	-4.55	-108.22	8.26	0.1171	-0.0381	-0.4393	
-0.30744	0.060146	0.797392	-4.13	-105.98	7.63	0.0927	-0.042	-0.4516	
-0.297314	0.047702	0.811178	-3.01	-101.92	7.28	0.0705	-0.0419	-0.4448	
-0.269376	0.044774	0.829234	-3.29	-100.8	6.37	0.0721	-0.0421	-0.4478	
-0.211182	0.046116	0.84424	-4.55	-99.19	5.81	0.0533	-0.0504	-0.4532	
-0.156404	0.050386	0.867786	-5.81	-96.95	5.6	0.0225	-0.041	-0.45	
-0.120536	0.04453	0.887062	-6.16	-94.01	6.16	0.0103	-0.0422	-0.4393	
-0.10919	0.03477	0.918416	-6.72	-89.25	7.35	0.0149	-0.0408	-0.4438	
-0.086986	0.036844	0.941108	-5.88	-86.52	7.98	0.0001	-0.0455	-0.4405	
-0.058804	0.043066	0.957456	-5.25	-84.14	7.56	-0.0216	-0.0411	-0.4423	
-0.0427	0.0427	0.975024	-6.51	-80.92	7.35	-0.0366	-0.052	-0.4362	
-0.02257	0.035258	0.99918	-6.02	-78.26	7.42	-0.0468	-0.0441	-0.434	
0.026596	0.031476	1.018456	-2.73	-76.09	7.28	-0.0618	-0.0422	-0.4245	
0.064294	0.033428	1.031266	-1.54	-73.15	6.02	-0.0823	-0.0423	-0.4237	
0.074054	0.04575	1.060302	-1.19	-69.51	4.27	-0.09299999	-0.0516	-0.4163	
0.084668	0.048068	1.074698	-2.45	-64.61	3.71	-0.1031	-0.0422	-0.4169	
0.105774	0.049532	1.084824	-3.57	-60.06	3.92	-0.1077	-0.042	-0.4109	
0.139568	0.046726	1.107272	-4.55	-53.76	3.57	-0.1209	-0.0421	-0.4103	
0.140178	0.045994	1.11325	-5.25	-47.25	4.41	-0.1165	-0.0421	-0.412	
0.134322	0.035136	1.1285	-4.97	-42.28	5.04	-0.124	-0.0355	-0.4041	
0.14762	0.036112	1.129842	-4.9	-37.52	5.39	-0.1257	-0.0465	-0.4016	
0.157502	0.033184	1.138016	-4.83	-32.62	4.97	-0.1372	-0.0404	-0.4052	
0.154574	0.030134	1.133258	-3.85	-27.51	4.34	-0.1358	-0.0482	-0.4041	
0.159088	0.034404	1.130086	-2.59	-22.26	3.36	-0.1432	-0.037	-0.4004	
0.160064	0.032696	1.12545	-1.26	-16.73	2.03	-0.1523	-0.0368	-0.3942	
0.169214	0.026962	1.12667	-0.63	-11.34	1.61	-0.1582	-0.0352	-0.3924	
0.17507	0.02501	1.130086	-0.42	-6.3	1.75	-0.1525	-0.0397	-0.3884	
0.169336	0.031964	1.126792	0.42	-2.38	1.75	-0.1535	-0.0371	-0.4	
0.159332	0.037332	1.128988	2.03	2.94	1.33	-0.1639	-0.0386	-0.3967	
0.16104	0.040504	1.123864	2.8	7.42	1.05	-0.1554	-0.0431	-0.3914	
0.176534	0.029158	1.109102	3.92	12.46	1.19	-0.1465	-0.0286	-0.3897	
0.158356	0.031354	1.10837	4.48	17.36	0.77	-0.1506	-0.0387	-0.4002	
0.144814	0.038186	1.10593	5.88	22.19	-0.21	-0.1447	-0.0451	-0.4021	
0.13969	0.044896	1.112274	6.16	26.18	-0.63	-0.1416	-0.0468	-0.4053	
0.135908	0.043798	1.1163	5.6	30.87	-0.07	-0.1432	-0.0482	-0.4023	
0.12383	0.039528	1.119472	6.3	36.05	0.14	-0.1464	-0.0416	-0.3961	
0.114558	0.044896	1.114226	7.07	41.16	-0.21	-0.1271	-0.0385	-0.4012	
0.102968	0.051484	1.113006	7.35	46.41	-1.19	-0.1315	-0.0386	-0.4024	
0.088084	0.051362	1.108126	7.7	51.8	-1.89	-0.125	-0.0408	-0.4174	
0.078324	0.04148	1.09068	8.12	57.12	-2.03	-0.1058	-0.0408	-0.4211	
0.061366	0.05307	1.070428	8.33	61.95	-2.52	-0.0986	-0.0438	-0.4186	
0.029768	0.062464	1.05591	8.54	66.92	-3.22	-0.0988	-0.0501	-0.416	
-0.003416	0.066978	1.036512	9.17	71.96	-4.13	-0.0794	-0.0536	-0.4272	
-0.02318	0.064172	1.01992	9.94	76.86	-4.41	-0.0646	-0.0408	-0.4273	
-0.04392	0.06222	0.996008	10.29	80.92	-4.97	-0.0575	-0.0549	-0.4253	
-0.063562	0.06771	0.977586	10.22	85.26	-6.02	-0.0484	-0.0536	-0.4329	
-0.107116	0.077958	0.951478	9.24	88.55	-6.86	-0.0235	-0.0566	-0.4341	
-0.141398	0.08723	0.931226	8.61	91.7	-7.28	-0.0146	-0.055	-0.4373	
-0.170678	0.084058	0.918294	8.05	95.34	-7.63	0.003	-0.0551	-0.441	
-0.189466	0.08784	0.88938	7.84	98.42	-7.56	0.0133	-0.0599	-0.4446	
-0.233386	0.089792	0.84973	7.7	100.94	-7.98	0.0337	-0.06439999	-0.4427	
-0.288652	0.089548	0.827282	6.79	102.9	-8.33	0.0427	-0.0661	-0.4475	
-0.326106	0.08662	0.814472	6.3	104.44	-9.03	0.0573	-0.0643	-0.4466	
-0.34221	0.083326	0.800198	6.02	105.77	-9.59	0.0889	-0.0635	-0.4348	
-0.354654	0.080642	0.767502	5.25	107.31	-10.08	0.09519999	-0.0591	-0.4436	
-0.39345	0.08174	0.740906	4.62	109.06	-10.5	0.1174	-0.0576	-0.4504	
-0.45262	0.08052	0.705404	4.48	110.81	-10.08	0.1362	-0.0605	-0.4469	
-0.491294	0.071126	0.677222	4.48	111.65	-9.59	0.1591	-0.0661	-0.4365	
-0.508496	0.074664	0.646356	4.9	112.56	-9.17	0.1841	-0.0612	-0.4388	
-0.520574	0.08601	0.615124	4.34	114.52	-8.54	0.1941	-0.0545	-0.4316	
-0.547536	0.088206	0.570228	4.13	116.41	-8.19	0.2171	-0.0538	-0.4224	
-0.584746	0.082228	0.525454	4.48	117.67	-7.77	0.2304	-0.049	-0.4242	
-0.62281	0.08662	0.481046	5.81	117.81	-8.4	0.2607	-0.0451	-0.4136	
-0.653432	0.078202	0.438468	6.79	117.11	-9.38	0.2767	-0.0449	-0.4128	
-0.722118	0.069052	0.378566	8.12	116.06	-9.73	0.2874	-0.0469	-0.39	
-0.812764	0.096258	0.331596	7.84	113.33	-10.85	0.3164	-0.0431	-0.3824	
-0.82716	0.114924	0.279258	6.09	107.94	-12.6	0.3241	-0.0467	-0.3931	
-0.855342	0.11163	0.230092	4.27	102.76	-12.46	0.3365	-0.0314	-0.3725	
-0.853512	0.095038	0.198494	3.78	96.11	-10.71	0.3437	-0.0344	-0.37	
-0.897676	0.08784	0.135298	2.38	91.49	-9.8	0.3651	-0.0384	-0.358	
-0.955504	0.078568	0.113094	4.48	88.34	-8.89	0.3735	-0.0347	-0.3494	
-1.006744	0.070394	0.074908	2.87	83.93	-7.84	0.3833	-0.0342	-0.3396	
-1.038098	0.079544	0.07515199	0.84	77.91	-6.93	0.3966	-0.0294	-0.3414	
-1.034072	0.083448	0.081984	-1.68	72.52	-6.09	0.3945	-0.0351	-0.3284	
-1.037732	0.073322	0.065392	-3.85	68.11	-4.55	0.4102	-0.0281	-0.3171	
-1.05896	0.065514	0.052338	-5.81	64.26	-3.22	0.4142	-0.0261	-0.3085	
-1.078724	0.05734	0.028426	-6.37	60.48	-1.82	0.427	-0.0271	-0.2988	
-1.07299	0.050996	0.010248	-5.88	54.88	-1.47	0.4271	-0.0208	-0.3	
-1.075918	0.052338	0.006344	-5.04	52.22	-1.05	0.4279	-0.0217	-0.2855	
-1.042612	0.054656	0.007076	-4.69	50.12	-0.49	0.4411	-0.0216	-0.2861	
-1.049932	0.060634	-0.002806	-5.74	48.09	-0.42	0.4378	-0.0245	-0.2788	
-1.065792	0.05856	-0.023058	-6.79	45.5	0.07	0.4464	-0.021	-0.2746	
-1.045662	0.050996	-0.029402	-7.14	41.09	0.84	0.4475	-0.0238	-0.266	
-1.0187	0.073688	-0.035136	-6.93	37.45	0.91	0.4501	-0.025	-0.2589	
-1.0309	0.076372	-0.030622	-7.28	35.35	1.19	0.4603	-0.0248	-0.2564	
-1.042368	0.049044	-0.038674	-8.26	34.09	2.1	0.4619	-0.0186	-0.2591	
-1.053104	0.036356	-0.051972	-6.44	33.46	0.49	0.4778	-0.0183	-0.2554	
-1.068232	0.032086	-0.061488	-4.13	32.76	-2.38	0.4658	-0.0132	-0.2459	
-1.096902	0.025742	-0.081496	-2.1	31.92	-3.85	0.4714	-0.009699999	-0.2401	
-1.12606	0.037332	-0.099552	0.63	29.82	-6.16	0.4843	-0.0142	-0.2365	
-1.03456	0.059414	-0.108946	0.7	26.32	-6.72	0.4771	-0.0127	-0.2376	
-1.155828	0.08295999	-0.085156	4.2	6.72	5.67	0.4726	-0.0031	-0.2341	
-1.121302	0.059414	-0.110288	-0.91	20.58	-3.64	0.477	-0.0061	-0.2329	
-1.123376	0.055998	-0.116998	-1.05	19.46	-3.85	0.4856	-0.0107	-0.2306	
-1.100318	0.053192	-0.117242	-1.4	17.01	-4.55	0.4839	-0.0041	-0.2244	
-1.08702	0.051972	-0.120902	-2.1	15.26	-5.04	0.481	-0.0057	-0.2243	
-1.072014	0.05429	-0.121878	-3.29	13.3	-4.83	0.4813	-0.0092	-0.2318	
-1.067622	0.041358	-0.112972	-4.76	12.04	-4.27	0.4746	-0.0035	-0.2108	
-1.067622	0.034038	-0.111752	-5.11	10.64	-3.85	0.4852	-0.0055	-0.2201	
-1.063596	0.038064	-0.116266	-4.62	9.03	-3.78	0.4807	0.0025	-0.2167	
-1.072502	0.039772	-0.124562	-4.69	7.49	-3.85	0.4851	0.0074	-0.2152	
-1.078968	0.033916	-0.124806	-4.41	5.53	-3.43	0.4906	0.0014	-0.2084	
-1.084946	0.035258	-0.129076	-4.34	3.08	-3.36	0.4878	0.0012	-0.2112	
-1.087874	0.039406	-0.13176	-4.34	0.28	-2.87	0.4908	0.0028	-0.2127	
-1.096658	0.029524	-0.132858	-4.62	-2.87	-2.59	0.4898	-0.0025	-0.226	
-1.101538	0.030012	-0.128222	-4.06	-6.23	-2.59	0.4776	-0.0036	-0.2124	
-1.099586	0.02318	-0.115046	-3.92	-8.82	-2.59	0.4865	0.0154	-0.2134	
-1.097146	0.022082	-0.112118	-3.29	-10.99	-2.38	0.488	0.009	-0.2152	
-1.106662	0.01525	-0.111996	-2.8	-13.79	-2.52	0.4866	0.0009	-0.217	
-1.11569	0.019032	-0.114436	-2.1	-17.29	-3.15	0.4894	0.0043	-0.214	
-1.11325	0.01647	-0.111386	-1.33	-20.44	-3.15	0.4796	0.0005	-0.2255	
-1.107638	0.019032	-0.10309	-0.35	-23.31	-3.15	0.4851	0.0089	-0.2151	
-1.112518	0.016836	-0.09821	0.07	-25.83	-2.87	0.4694	0.002	-0.225	
-1.114836	0.017202	-0.093818	0.7	-28.42	-2.73	0.4768	0.0067	-0.228	
-1.111908	0.025742	-0.076616	1.47	-30.94	-2.66	0.4798	0.0035	-0.2283	
-1.096536	0.028914	-0.06649	1.4	-32.83	-2.1	0.4726	0.0129	-0.229	
-1.078358	0.026718	-0.050508	0.91	-33.6	-1.12	0.4702	0.0075	-0.2423	
-1.069086	0.020618	-0.050752	-0.07	-34.44	-0.14	0.4677	0.0055	-0.2525	
-1.08641	0.01952	-0.051972	-0.77	-36.54	0.56	0.4645	-0.0006	-0.2482	
-1.102392	0.021228	-0.037454	-1.4	-38.78	1.33	0.4603	-0.0009	-0.2539	
-1.085434	0.016836	-0.023912	-1.96	-40.67	3.01	0.4503	0.0035	-0.2576	
-1.086776	0.017324	-0.001342	-1.33	-40.53	4.27	0.4578	-0.0062	-0.2642	
-1.074332	0.019154	0.016714	-1.61	-40.95	4.69	0.4507	0.0079	-0.2648	
-1.060302	0.024034	0.02379	-0.35	-40.88	4.83	0.4423	0.0042	-0.2748	
-1.07543	0.027694	0.029402	-1.68	-41.23	4.41	0.4428	0.0068	-0.2864	
-1.077626	0.024156	0.039406	-1.68	-43.89	4.13	0.4356	0.0019	-0.2892	
-1.065426	0.021716	0.052338	-1.47	-46.13	4.2	0.4353	0.0021	-0.2833	
-1.045784	0.017812	0.076982	-0.77	-48.23	5.11	0.4225	-0.0047	-0.2933	
-1.03029	0.024644	0.080642	0.14	-49.21	6.02	0.4202	-0.0022	-0.3077	
-1.039562	0.02806	0.092842	-0.35	-50.68	6.58	0.423	-0.0084	-0.3052	
-1.042368	0.028792	0.103212	-0.63	-52.64	6.44	0.4075	-0.014	-0.3193	
-1.0431	0.036722	0.113582	-0.7	-53.97	5.18	0.402	-0.0081	-0.3276	
-1.039684	0.036112	0.141032	-0.28	-54.6	4.27	0.3973	-0.0045	-0.3185	
-1.025776	0.025254	0.157136	0.56	-55.23	3.85	0.3908	-0.0119	-0.3389	
-1.016382	0.02196	0.162626	2.03	-55.65	3.22	0.3808	-0.0154	-0.3445	
-1.024556	0.037698	0.183732	3.43	-59.01	1.12	0.3819	-0.0039	-0.3353	
-1.009062	0.054046	0.196664	3.71	-62.23	0.35	0.3726	-0.0017	-0.3552	
-0.997228	0.058194	0.208864	3.64	-63.7	0.14	0.3638	-0.005	-0.3565	
-0.967948	0.060512	0.257664	4.48	-67.69	0	0.3523	-0.0197	-0.3639	
-0.952576	0.060756	0.28243	5.88	-69.65	0.35	0.348	-0.0118	-0.3634	
-0.922198	0.067222	0.307562	6.86	-72.52	0.7	0.3324	-0.0269	-0.378	
-0.90097	0.067222	0.345016	7.14	-73.71	0.77	0.3277	-0.0299	-0.3721	
-0.87779	0.074908	0.35624	7.63	-75.04	0.42	0.3178	-0.0303	-0.3789	
-0.849852	0.087596	0.367342	7	-76.3	0.56	0.3008	-0.0278	-0.3912	
-0.821914	0.078202	0.37515	6.16	-78.96	1.89	0.2981	-0.028	-0.3955	
-0.787022	0.087474	0.386374	5.6	-80.92	2.45	0.2925	-0.0333	-0.4043	
-0.76738	0.097844	0.411628	5.25	-88.06	2.73	0.2662	-0.0334	-0.4031	
-0.727364	0.098454	0.445178	2.17	-89.6	3.43	0.264	-0.0247	-0.4187	
-0.68625	0.08662	0.456402	0.35	-93.24	4.55	0.2467	-0.0347	-0.4257	
-0.625372	0.088694	0.493612	0.07	-97.09	6.3	0.236	-0.0391	-0.4167	
-0.598532	0.101382	0.549	-2.87	-100.52	7.77	0.2215	-0.0329	-0.4173	
-0.569984	0.098088	0.575596	-5.74	-99.82	7.98	0.2105	-0.0434	-0.4362	
-0.50386	0.090402	0.615734	-7.77	-104.23	7.91	0.1842	-0.0453	-0.4381	
-0.464698	0.076616	0.64599	-8.68	-102.13	7.42	0.1769	-0.0374	-0.436	
-0.447862	0.064416	0.662704	-8.26	-103.25	7.21	0.1564	-0.0424	-0.4368	
-0.425658	0.049776	0.712358	-7.14	-103.6	7	0.1376	-0.0412	-0.4418	
-0.38613	0.047702	0.762256	-5.04	-102.76	6.93	0.1275	-0.0414	-0.4443	
-0.305732	0.053558	0.818986	-5.74	-100.31	7.35	0.08679999	-0.0532	-0.4518	
-0.288774	0.053436	0.830576	-6.79	-97.23	6.93	0.0794	-0.0404	-0.448	
-0.286334	0.048434	0.837286	-8.54	-93.38	6.79	0.0627	-0.035	-0.431	
-0.259738	0.043676	0.857416	-7.7	-90.86	6.3	0.0383	-0.0422	-0.4434	
-0.218868	0.044164	0.886452	-6.37	-88.83	5.18	0.0325	-0.0391	-0.4445	
-0.160308	0.038308	0.902434	-6.58	-85.75	4.2	0.0134	-0.0375	-0.4407	
-0.13786	0.026352	0.919392	-5.46	-82.81	4.27	0.003	-0.0294	-0.4355	
-0.126392	0.02379	0.938912	-5.04	-80.64	4.48	-0.0054	-0.0458	-0.4446	
-0.084668	0.031964	0.97234	-3.78	-79.1	3.92	-0.0234	-0.0455	-0.4351	
-0.05063	0.037576	1.010648	-4.27	-75.46	3.08	-0.0279	-0.031	-0.4284	
-0.020862	0.038796	1.025898	-4.34	-72.24	2.59	-0.0484	-0.0344	-0.4291	
-0.029768	0.048678	1.039928	-5.32	-69.65	2.31	-0.0574	-0.0358	-0.4244	
-0.01952	0.051606	1.05103	-5.25	-66.15	2.38	-0.0677	-0.0471	-0.4259	
-0.005856	0.037942	1.067622	-4.83	-62.58	3.43	-0.07669999	-0.0324	-0.4162	
0.024644	0.02928	1.07909	-3.99	-59.92	3.57	-0.0829	-0.0305	-0.4085	
0.04026	0.027328	1.06445	-2.38	-56.7	3.29	-0.0942	-0.0391	-0.4201	
0.043188	0.036234	1.05896	-3.22	-52.92	3.15	-0.0963	-0.0384	-0.4039	
0.058682	0.032086	1.066646	-4.06	-48.72	2.66	-0.1105	-0.039	-0.415	
0.083204	0.023912	1.069452	-3.36	-45.36	2.66	-0.1194	-0.0389	-0.4103	
0.084058	0.02074	1.069818	-2.59	-41.93	2.94	-0.1196	-0.0307	-0.4041	
0.0854	0.025864	1.07787	-2.24	-37.94	3.08	-0.1315	-0.0274	-0.399	
0.09699	0.028426	1.08275	-3.08	-33.32	3.08	-0.1419	-0.0417	-0.3977	
0.117242	0.026718	1.097146	-3.36	-28.84	3.5	-0.1446	-0.0404	-0.4034	
0.13237	0.020618	1.097024	-3.01	-25.06	3.71	-0.1548	-0.0389	-0.4029	
0.138104	0.026352	1.09739	-2.1	-20.3	3.71	-0.1611	-0.04	-0.3925	
0.138958	0.02074	1.092998	-2.24	-14.35	3.08	-0.1495	-0.0222	-0.3864	
0.153354	0.009272	1.103368	-2.1	-8.89	3.01	-0.1492	-0.0402	-0.3988	
0.16104	0.007686	1.108248	0.07	-3.85	2.94	-0.1523	-0.0399	-0.3928	
0.174094	0.0122	1.11508	1.82	1.33	1.82	-0.1509	-0.0399	-0.3914	
0.169214	0.021716	1.11996	1.75	5.74	0.35	-0.1535	-0.0355	-0.3984	
0.174094	0.014152	1.120814	2.8	10.85	0.21	-0.1504	-0.0356	-0.403	
0.175192	0.015128	1.130208	3.43	15.82	-0.07	-0.1491	-0.0466	-0.4006	
0.176778	0.0183	1.1285	4.55	21.28	-0.42	-0.1448	-0.0417	-0.3976	
0.177876	0.022936	1.135454	4.69	27.16	-1.05	-0.1422	-0.0526	-0.3938	
0.174704	0.02379	1.127768	5.18	33.74	-1.12	-0.1503	-0.0405	-0.4061	
0.156648	0.027328	1.11752	5.46	39.48	-1.26	-0.14	-0.0374	-0.4079	
0.149206	0.02684	1.106174	6.23	44.45	-1.4	-0.1283	-0.0404	-0.407	
0.134688	0.035868	1.104588	6.72	50.26	-2.45	-0.1135	-0.0421	-0.4136	
0.116754	0.041968	1.101538	7.42	56.77	-3.15	-0.1227	-0.0497	-0.4047	
0.103334	0.037576	1.097268	7.77	63.49	-3.43	-0.1165	-0.0341	-0.4102	
0.089792	0.038552	1.080188	8.96	69.23	-3.99	-0.0986	-0.0487	-0.4203	
0.067222	0.033794	1.060058	9.73	74.48	-4.55	-0.0837	-0.0376	-0.4249	
0.023668	0.043432	1.04432	9.66	80.08	-5.04	-0.0735	-0.0551	-0.4275	
-0.00183	0.055388	1.0309	9.03	86.52	-5.53	-0.0777	-0.0474	-0.4314	
-0.02562	0.052094	1.01687	8.4	92.4	-5.95	-0.0456	-0.0486	-0.4299	
-0.035258	0.036356	0.975634	9.45	97.65	-6.09	-0.0263	-0.0504	-0.4366	
-0.088328	0.042212	0.927566	10.08	101.15	-5.6	-0.0098	-0.0474	-0.4445	
-0.162748	0.055754	0.887062	9.38	105.07	-5.74	-0.0028	-0.0566	-0.4393	
-0.185318	0.068198	0.875472	8.54	109.41	-6.86	0.0177	-0.047	-0.4413	
-0.203984	0.069418	0.860466	7.49	113.75	-7.63	0.0251	-0.055	-0.4449	
-0.21228	0.060268	0.823744	7.77	116.41	-8.05	0.0573	-0.0612	-0.448	
-0.266082	0.058316	0.77043	8.89	120.4	-7.63	0.0746	-0.0576	-0.4412	
-0.366	0.069906	0.722972	8.33	121.24	-6.93	0.0807	-0.0593	-0.4459	
-0.44042	0.08418	0.6954	7.77	121.8	-6.16	0.1114	-0.0559	-0.4471	
-0.46177	0.086498	0.673928	6.93	121.38	-6.09	0.1393	-0.0334	-0.4444	
-0.474946	0.081374	0.646844	7.42	121.59	-5.88	0.1449	-0.0538	-0.4426	
-0.512644	0.07869	0.60695	8.75	122.85	-6.02	0.1754	-0.0405	-0.4346	
-0.566324	0.091256	0.564494	8.96	123.06	-6.09	0.1942	-0.0465	-0.4313	
-0.608414	0.09516	0.529968	9.1	123.48	-6.44	0.2101	-0.0478	-0.4276	
-0.612318	0.095892	0.495198	8.82	124.11	-7.7	0.226	-0.0395	-0.4221	
-0.625738	0.101382	0.457256	7.77	124.25	-9.52	0.2418	-0.0582	-0.4192	
-0.674416	0.09577	0.388814	7.84	124.74	-10.15	0.2751	-0.0527	-0.4102	
-0.787022	0.076494	0.316834	8.47	123.97	-8.68	0.2865	-0.0411	-0.4014	
-0.838506	0.075396	0.275598	9.87	119.42	-9.73	0.3171	-0.0423	-0.3999	
-0.818498	0.082106	0.227774	13.02	112.84	-12.18	0.3274	-0.0471	-0.3669	
-0.852292	0.100894	0.199958	12.88	107.17	-14	0.3494	-0.0357	-0.3659	
-0.883158	0.091256	0.17446	11.97	100.45	-13.79	0.3517	-0.0511	-0.3565	
-0.889014	0.074664	0.15555	10.36	92.96	-12.39	0.3718	-0.0393	-0.3452	
-0.902312	0.070516	0.158112	9.17	88.69	-12.53	0.3887	-0.0304	-0.328	
-0.931104	0.085522	0.140666	8.4	85.68	-12.67	0.391	-0.0297	-0.3135	
-1.009428	0.063684	0.081252	5.25	84.7	-10.85	0.4107	-0.0271	-0.3288	
-1.06384	0.0732	0.017568	5.88	80.71	-9.8	0.4185	-0.0323	-0.306	
-1.11203	0.066734	-0.030012	4.55	74.48	-7.98	0.4255	-0.0255	-0.2987	
-1.086776	0.050264	-0.02501	2.31	65.87	-5.74	0.4315	-0.0272	-0.3019	
-1.093852	0.060024	-0.024278	1.26	60.9	-5.6	0.434	-0.0283	-0.2919	
-1.075064	0.077104	-0.019154	0.98	56	-4.41	0.4348	-0.034	-0.279	
-1.056032	0.058316	-0.03843	-1.68	53.41	-4.13	0.4552	-0.0146	-0.2732	
-1.059814	0.04575	-0.045262	-4.2	52.29	-4.62	0.4492	-0.0208	-0.2703	
-1.072136	0.034892	-0.067466	-4.06	51.45	-4.48	0.4548	-0.0381	-0.2684	
-1.08458	0.039406	-0.08479	-3.5	49.56	-5.32	0.4574	-0.0265	-0.2578	
-1.089826	0.040992	-0.102358	-3.08	48.02	-6.16	0.47	-0.0226	-0.245	
-1.091778	0.03782	-0.10858	-1.96	45.22	-6.23	0.4758	-0.0257	-0.2439	
-1.111054	0.033184	-0.128466	-2.52	43.33	-5.6	0.4743	-0.0209	-0.2422	
-1.138992	0.039162	-0.138836	-3.08	41.23	-5.25	0.487	-0.0266	-0.2328	
-1.15656	0.023912	-0.149816	-4.55	36.26	-5.04	0.4755	-0.0222	-0.2365	
-1.144604	0.011712	-0.154818	-3.85	30.66	-5.18	0.4958	-0.0106	-0.231	
-1.12545	0.026352	-0.162138	-3.64	25.76	-6.02	0.4838	-0.012	-0.2233	
-1.10959	0.037576	-0.159942	-3.57	21.98	-5.6	0.481	-0.0089	-0.2259	
-1.125938	0.038918	-0.152988	-6.65	18.97	-4.2	0.4835	-0.0116	-0.2159	
-1.107516	0.029768	-0.153598	-7.7	15.96	-3.43	0.4874	0.0112	-0.2005	
-1.092388	0.034282	-0.176412	-7.7	13.72	-3.22	0.4743	-0.0001	-0.2048	
-1.106784	0.0366	-0.16897	-7.49	12.04	-3.22	0.4836	-0.007	-0.2187	
-1.077626	0.036478	-0.151646	-8.54	10.99	-2.45	0.4916	-0.006	-0.1985	
-1.048834	0.021594	-0.152134	-9.59	10.99	-1.54	0.4788	-0.0001	-0.2065	
-1.045418	0.000732	-0.146766	-8.54	10.5	-0.56	0.4918	-0.0014	-0.2027	
-1.069574	0.004026	-0.153842	-6.37	9.66	-0.63	0.4842	-0.006	-0.1982	
-1.058228	0.00244	-0.14762	-4.83	7.91	-0.42	0.4957	-0.0008	-0.1912	
-1.050908	0.007442	-0.144448	-3.36	6.86	0	0.4904	0.0048	-0.2039	
-1.0553	0.008662	-0.148596	-2.94	6.09	0.35	0.4959	0.002	-0.1954	
-1.063474	0.0061	-0.163602	-2.45	3.92	0.35	0.4913	-0.0121	-0.1929	
-1.081896	0.024034	-0.185928	-1.54	0.56	-0.21	0.4992	0.0016	-0.2058	
-1.113006	0.036356	-0.19276	-2.38	-3.99	-0.56	0.4949	-0.0064	-0.2074	
-1.125572	0.045262	-0.182634	-3.78	-9.03	-1.26	0.486	0.0016	-0.2038	
-1.130696	0.0366	-0.170556	-6.23	-12.67	-1.26	0.4929	-0.0058	-0.1957	
-1.118618	0.029524	-0.161162	-7	-16.31	-1.05	0.4876	0.003	-0.2067	
-1.135576	0.011346	-0.1586	-6.79	-19.46	-0.42	0.4874	-0.0015	-0.204	
-1.132892	-0.000122	-0.14823	-5.11	-22.61	-0.14	0.4873	0.0066	-0.1978	
-1.119716	-0.009393999	-0.143106	-3.01	-26.11	0.21	0.4894	-0.0004	-0.2142	
-1.122888	-0.008052	-0.132736	-0.7	-29.33	0.21	0.4924	0.009	-0.2154	
-1.094096	0.00244	-0.122366	1.19	-32.69	0.14	0.4908	0.0044	-0.2126	
-1.086776	0.010492	-0.116022	2.38	-35.35	0.7	0.4793	0.0072	-0.2179	
-1.088484	0.021716	-0.105042	2.8	-37.94	1.26	0.4886	-0.0027	-0.2304	
-1.071648	0.029524	-0.084546	2.45	-41.51	2.87	0.4805	0.006	-0.2442	
-1.061644	0.03416	-0.072834	1.05	-41.37	3.85	0.4712	-0.0031	-0.234	
-1.061522	0.03965	-0.061854	-0.21	-42.28	4.48	0.4537	-0.0113	-0.238	
-1.0675	0.035258	-0.042578	-1.4	-43.68	5.04	0.4646	0.0023	-0.251	
-1.065426	0.019886	-0.024156	-1.96	-44.8	5.6	0.4599	-0.0132	-0.2456	
-1.073966	0.011224	-0.005978	-1.12	-46.06	6.09	0.4647	-0.0024	-0.2527	
-1.07116	0.011346	0.01708	0.07	-46.55	5.88	0.4565	-0.007999999	-0.2686	
-1.0553	0.01037	0.029768	1.4	-46.62	6.09	0.4537	-0.0001	-0.2682	
-1.055056	0.013786	0.039162	3.29	-46.48	6.37	0.4567	-0.0034	-0.2714	
-1.043832	0.02074	0.051484	4.06	-46.69	6.3	0.441	-0.0167	-0.2829	
-1.028582	0.030256	0.068198	4.2	-46.83	6.51	0.4248	-0.0231	-0.2811	
-1.013088	0.04636	0.087718	3.71	-46.48	6.86	0.4374	-0.0144	-0.3002	
-1.003206	0.05612	0.097966	1.96	-45.99	8.19	0.4345	-0.0161	-0.3016	
-1.009062	0.055998	0.109068	0.21	-45.43	8.89	0.4202	-0.0182	-0.3098	
-1.018456	0.065636	0.120902	-0.7	-45.08	8.61	0.4198	-0.0242	-0.3028	
-1.015284	0.072712	0.138958	-2.87	-44.87	8.19	0.4098	-0.0229	-0.3067	
-1.003328	0.069296	0.1586	-4.41	-43.89	7.98	0.4004	-0.0191	-0.3251	
-1.006134	0.054412	0.18056	-5.39	-42	7.77	0.4049	-0.0335	-0.3303	
-1.000766	0.04575	0.20374	-4.06	-40.95	6.37	0.3977	-0.0241	-0.331	
-0.994544	0.040382	0.220942	-1.68	-39.62	5.04	0.3889	-0.0323	-0.3339	
-0.977342	0.046482	0.239486	0.21	-38.57	4.2	0.3878	-0.0263	-0.3409	
-0.962214	0.05856	0.279014	3.01	-37.17	4.48	0.3981	-0.0374	-0.3433	
-0.929518	0.068564	0.316956	4.13	-34.37	5.11	0.3838	-0.0331	-0.3498	
-0.931348	0.080886	0.338062	1.96	-30.94	4.97	0.3753	-0.0351	-0.3583	
-0.896456	0.096258	0.356362	-1.33	-29.75	5.04	0.368	-0.0336	-0.3579	
-0.858636	0.114192	0.366366	-0.7	-25.69	6.23	0.3667	-0.0289	-0.3591	
-0.858514	0.11773	0.375638	-4.55	-20.02	6.16	0.3694	-0.0334	-0.355	
-0.867664	0.111752	0.370514	-6.37	-17.85	6.23	0.3669	-0.0196	-0.3631	
-0.84973	0.10126	0.384788	-7.14	-17.15	6.65	0.3597	-0.0309	-0.3676	
-0.858758	0.095282	0.388204	-6.37	-23.45	8.26	0.3552	-0.0324	-0.3646	
-0.822402	0.102114	0.41358	-5.88	-23.87	8.89	0.3522	-0.0356	-0.3646	
-0.818986	0.110776	0.43127	-5.25	-24.92	8.26	0.345	-0.0374	-0.3673	
-0.781898	0.121268	0.46482	-6.3	-29.19	7.7	0.3595	-0.0355	-0.3634	
-0.766404	0.119316	0.502762	-7.91	-31.78	7.21	0.3411	-0.03	-0.377	
-0.749202	0.125416	0.55083	-8.89	-34.86	6.16	0.3366	-0.0234	-0.3722	
-0.748104	0.134322	0.59414	-10.22	-36.61	4.97	0.3369	-0.0334	-0.3828	
-0.724924	0.149328	0.620858	-9.59	-37.52	2.66	0.3324	-0.0317	-0.3796	
-0.69418	0.138592	0.642696	-8.82	-37.17	-0.42	0.333	-0.0355	-0.393	
-0.68991	0.127002	0.650382	-9.17	-32.76	-3.01	0.3154	-0.0293	-0.3919	
-0.705526	0.11468	0.648796	-7.84	-29.33	-5.04	0.32	-0.0295	-0.3965	
-0.726876	0.112118	0.63684	-7.98	-26.39	-7.21	0.3154	-0.0324	-0.3906	
-0.740906	0.10614	0.628788	-8.12	-23.31	-8.82	0.3095	-0.0245	-0.39	
-0.761524	0.125904	0.616466	-8.96	-22.33	-9.38	0.311	-0.0293	-0.3903	
-0.768356	0.110532	0.620248	-11.41	-19.32	-10.15	0.2994	-0.0295	-0.3927	
-0.779336	0.126148	0.617564	-13.3	-17.92	-11.97	0.2963	-0.0245	-0.388	
-0.77897	0.104432	0.6222	-14.7	-16.73	-14.28	0.298	-0.0135	-0.3905	
-0.771894	0.106506	0.61793	-16.8	-14.7	-17.29	0.2862	-0.0136	-0.3885	
-0.753594	0.10858	0.615002	-21.07	-12.81	-20.51	0.2957	-0.0047	-0.4046	
-0.74359	0.102602	0.609146	-23.31	-10.85	-24.43	0.2969	-0.0028	-0.3973	
-0.752984	0.095404	0.609512	-25.13	-8.33	-28.84	0.2968	0.0004	-0.3957	
-0.75457	0.079788	0.61244	-27.3	-5.67	-33.04	0.2926	0.0114	-0.3965	
-0.77531	0.058804	0.597068	-29.12	-2.38	-37.31	0.2894	0.0068	-0.3922	
-0.806664	0.054534	0.568154	-30.03	-0.28	-42.63	0.2838	0.0177	-0.3959	
-0.824476	0.031476	0.559614	-31.85	0.07	-45.99	0.2807	0.0323	-0.3878	
-0.813618	-0.01403	0.559492	-32.2	-1.33	-47.53	0.2836	0.0483	-0.3843	
-0.792756	-0.061122	0.562908	-30.59	-2.24	-49.7	0.2885	0.0446	-0.3978	
-0.813252	-0.074786	0.533628	-28.91	-2.31	-52.99	0.2881	0.0451	-0.3876	
-0.8052	-0.088084	0.533628	-33.04	-3.15	-54.18	0.2929	0.0574	-0.396	
-0.78629	-0.110044	0.54534	-32.97	-4.27	-56	0.2739	0.0685	-0.3932	
-0.790438	-0.123586	0.545706	-32.34	-4.27	-57.26	0.268	0.0748	-0.3913	
-0.79361	-0.144936	0.535214	-33.95	-3.99	-57.33	0.2691	0.0753	-0.3825	
-0.782508	-0.170678	0.520208	-33.74	-4.83	-57.33	0.2709	0.0958	-0.3846	
-0.778726	-0.1952	0.528138	-32.9	-4.13	-58.31	0.2755	0.1147	-0.3869	
-0.78141	-0.229116	0.520208	-33.11	-4.41	-58.03	0.2654	0.1129	-0.391	
-0.764818	-0.247782	0.524112	-35.91	-4.06	-58.31	0.2609	0.1162	-0.3877	
-0.780678	-0.292068	0.512156	-35.42	-2.94	-56.63	0.2622	0.1307	-0.3813	
-0.771284	-0.329034	0.501542	-35.49	-2.94	-53.62	0.2476	0.1338	-0.3806	
-0.772504	-0.369416	0.493734	-34.86	-3.15	-50.4	0.2537	0.1496	-0.3831	
-0.74054	-0.399428	0.502396	-35	-4.62	-47.39	0.2477	0.1449	-0.3801	
-0.756278	-0.429318	0.49105	-33.81	-4.55	-45.36	0.2443	0.1646	-0.366	
-0.75213	-0.442738	0.48922	-32.97	-5.25	-43.33	0.2315	0.1737	-0.3723	
-0.72102	-0.441762	0.488488	-31.5	-6.79	-42.42	0.2358	0.1835	-0.3677	
-0.719068	-0.45994	0.490196	-32.41	-6.79	-42.07	0.23	0.1977	-0.3668	
-0.730902	-0.461282	0.485316	-30.52	-6.93	-41.79	0.2197	0.2057	-0.3631	
-0.725412	-0.467016	0.47275	-28.21	-7.91	-41.23	0.2224	0.1979	-0.3607	
-0.711016	-0.508008	0.47763	-26.32	-7.91	-39.13	0.2125	0.2008	-0.366	
-0.705038	-0.55388	0.485438	-23.73	-8.12	-36.96	0.218	0.2027	-0.3588	
-0.691984	-0.571204	0.488488	-22.19	-8.68	-35.98	0.2078	0.2123	-0.3565	
-0.69174	-0.594262	0.493612	-20.16	-8.47	-35	0.1986	0.2222	-0.3455	
-0.668438	-0.599752	0.496662	-18.69	-9.1	-33.53	0.2093	0.2346	-0.3542	
-0.66917	-0.623176	0.485194	-17.5	-8.33	-31.22	0.1872	0.233	-0.3504	
-0.662216	-0.638426	0.477752	-15.61	-8.05	-28.91	0.1816	0.2375	-0.3543	
-0.646966	-0.631106	0.474946	-13.51	-7.77	-26.67	0.1902	0.2393	-0.3517	
-0.643184	-0.63379	0.475678	-13.93	-6.93	-23.31	0.184	0.2428	-0.3425	
-0.646356	-0.641842	0.466772	-13.16	-7.07	-20.58	0.174	0.2473	-0.3463	
-0.642086	-0.648674	0.459452	-12.46	-7.49	-17.29	0.1682	0.2344	-0.3509	
-0.634888	-0.662582	0.457744	-11.83	-7.91	-13.93	0.1726	0.2552	-0.3459	
-0.619882	-0.662582	0.468968	-10.36	-7.98	-11.34	0.1756	0.2568	-0.3474	
-0.608414	-0.668316	0.471652	-8.54	-7.42	-8.96	0.173	0.2772	-0.3522	
-0.605486	-0.665998	0.47763	-6.58	-6.58	-7.7	0.1668	0.2583	-0.3469	
-0.604754	-0.665144	0.465186	-5.95	-6.65	-6.51	0.1617	0.2479	-0.3311	
-0.609512	-0.671976	0.468968	-5.04	-6.72	-4.76	0.1552	0.2533	-0.3496	
-0.60634	-0.679906	0.471164	-3.08	-7.14	-2.59	0.1595	0.2614	-0.3465	
-0.598654	-0.68015	0.471774	-1.33	-7.14	-0.7	0.1654	0.2567	-0.3484	
-0.596336	-0.674294	0.464698	0.77	-7.56	0.42	0.1638	0.2615	-0.3452	
-0.606218	-0.656238	0.466406	2.73	-7.7	0.91	0.1683	0.2631	-0.3468	
-0.61488	-0.661728	0.47763	4.41	-7.77	2.52	0.1667	0.2616	-0.3439	
-0.610976	-0.68869	0.493978	6.51	-7.7	5.53	0.1579	0.2632	-0.3434	
-0.60573	-0.703208	0.493002	8.4	-7	9.24	0.1638	0.26	-0.3453	
-0.61915	-0.696986	0.497638	10.5	-5.46	12.53	0.1608	0.2456	-0.3458	
-0.623786	-0.697596	0.501664	13.44	-4.41	15.4	0.1624	0.2535	-0.347	
-0.613904	-0.69235	0.513498	16.45	-3.36	19.11	0.1466	0.2595	-0.3519	
-0.617076	-0.691008	0.522404	19.32	-1.61	23.45	0.1668	0.2647	-0.3452	
-0.607804	-0.679174	0.521794	22.82	-0.21	27.58	0.1727	0.2407	-0.3523	
-0.60573	-0.653798	0.521306	25.9	1.68	30.94	0.177	0.2281	-0.3516	
-0.617564	-0.643672	0.526186	27.65	3.57	34.44	0.1728	0.2294	-0.3572	
-0.618662	-0.628666	0.531188	30.38	4.55	38.22	0.1818	0.2276	-0.362	
-0.621712	-0.622932	0.529846	33.18	5.74	41.65	0.1801	0.2135	-0.3582	
-0.627202	-0.6039	0.53497	36.68	6.79	43.82	0.1905	0.2197	-0.3627	
-0.645502	-0.580598	0.53253	38.71	7.7	45.64	0.186	0.2007	-0.3619	
-0.643184	-0.543998	0.540948	40.53	8.33	47.11	0.2024	0.1972	-0.3715	
-0.637694	-0.521428	0.56059	42.21	9.38	49	0.1928	0.1901	-0.386	
-0.645258	-0.504104	0.55266	44.59	10.43	51.1	0.2113	0.1941	-0.3735	
-0.661118	-0.47397	0.548146	45.36	11.83	53.06	0.21	0.1746	-0.3816	
-0.675636	-0.44347	0.551806	45.78	13.02	55.23	0.2146	0.1649	-0.388	
-0.693814	-0.424072	0.554612	45.85	13.58	57.96	0.2204	0.1585	-0.39	
-0.70943	-0.395524	0.551928	46.83	13.65	60.69	0.2348	0.1509	-0.3866	
-0.706868	-0.351238	0.549732	47.81	12.88	63.21	0.2247	0.1235	-0.3932	
-0.708332	-0.325252	0.564006	47.74	13.02	65.38	0.2348	0.1173	-0.3924	
-0.721142	-0.29158	0.564494	48.23	13.02	67.76	0.245	0.1094	-0.3932	
-0.747738	-0.260592	0.560956	49.21	13.23	70.21	0.251	0.103	-0.3966	
-0.75579	-0.21289	0.54595	51.24	13.02	72.31	0.2451	0.0917	-0.3998	
-0.758962	-0.177144	0.542778	50.33	12.81	75.39	0.2504	0.0699	-0.3907	
-0.781288	-0.142252	0.529846	49.56	11.83	77.07	0.2624	0.0762	-0.3953	
-0.79544	-0.103334	0.530578	48.65	11.62	77.7	0.2578	0.0523	-0.3962	
-0.789462	-0.065514	0.524356	50.68	9.59	79.87	0.2712	0.0394	-0.4046	
-0.781166	-0.027938	0.525942	51.59	8.68	84.14	0.281	0.0111	-0.4004	
-0.759572	-0.023912	0.539728	50.33	7.77	85.54	0.281	0.0111	-0.4004	
-0.774578	0.007198	0.527894	52.15	8.54	87.29	0.2899	0	-0.4042	
-0.77348	0.058926	0.503006	51.17	7.56	89.74	0.2744	-0.0168	-0.3882	
-0.756766	0.100894	0.5063	49.28	5.74	91.21	0.2752	-0.0384	-0.4096	
-0.756522	0.192516	0.513864	47.25	5.81	88.9	0.2893	-0.0682	-0.4042	
-0.773968	0.254736	0.499834	46.55	5.67	86.94	0.2788	-0.0807	-0.3999	
-0.76738	0.268278	0.489586	42.49	3.22	84.7	0.2893	-0.08899999	-0.408	
-0.743956	0.264374	0.492758	38.5	1.68	81.69	0.2775	-0.0953	-0.4063	
-0.763354	0.293654	0.49166	39.41	0.49	77.14	0.2727	-0.1094	-0.4009	
-0.765428	0.34343	0.495198	37.87	-2.17	71.82	0.2769	-0.1299	-0.399	
-0.766038	0.40504	0.495686	34.86	-4.83	67.48	0.2767	-0.136	-0.3949	
-0.749934	0.425048	0.488854	31.36	-6.79	65.17	0.2695	-0.1555	-0.4027	
-0.738588	0.396012	0.47824	29.47	-8.96	64.4	0.2695	-0.1506	-0.401	
-0.738832	0.386862	0.474458	32.55	-10.5	61.81	0.2647	-0.1646	-0.3941	
-0.727608	0.437126	0.491904	35.28	-12.81	58.38	0.2529	-0.1726	-0.3925	
-0.7137	0.507886	0.504226	34.37	-14.84	55.79	0.2403	-0.1782	-0.4083	
-0.705648	0.546438	0.508618	29.96	-13.93	52.85	0.2454	-0.2013	-0.3949	
-0.706624	0.539362	0.48495	28.28	-12.04	51.52	0.2366	-0.1869	-0.391	
-0.683932	0.534116	0.486536	29.12	-12.46	51.59	0.2366	-0.2013	-0.393	
-0.672708	0.555588	0.472262	29.05	-13.51	50.89	0.2335	-0.2076	-0.3917	
-0.648552	0.567788	0.468724	27.93	-15.26	47.88	0.2233	-0.2093	-0.3928	
-0.638304	0.589138	0.468846	28	-15.96	44.94	0.2308	-0.2255	-0.3997	
-0.630496	0.609512	0.483974	23.66	-16.38	42.56	0.2171	-0.2266	-0.3875	
-0.63074	0.66063	0.496052	21.63	-16.45	39.48	0.2127	-0.249	-0.3912	
-0.61732	0.702598	0.503982	16.03	-16.94	36.33	0.2144	-0.2429	-0.3968	
-0.617076	0.714798	0.507642	13.72	-16.8	33.32	0.1995	-0.2443	-0.3904	
-0.60451	0.712724	0.513376	11.41	-16.94	32.55	0.1953	-0.2493	-0.3948	
-0.573888	0.705648	0.522892	10.08	-16.24	31.57	0.2012	-0.2525	-0.3967	
-0.56669	0.720776	0.52277	9.59	-14.7	28.56	0.1847	-0.2586	-0.3875	
-0.555832	0.716506	0.524112	9.24	-13.09	25.55	0.1831	-0.2713	-0.3879	
-0.548634	0.70638	0.52826	11.62	-11.69	22.47	0.1715	-0.2699	-0.3888	
-0.55144	0.716018	0.520574	13.72	-10.78	17.85	0.1717	-0.2557	-0.3912	
-0.542046	0.738588	0.519232	13.79	-10.71	12.32	0.1695	-0.2821	-0.3791	
-0.537776	0.74603	0.510692	12.95	-10.29	8.05	0.1747	-0.2797	-0.3967	
-0.525454	0.726266	0.513132	10.78	-9.66	6.09	0.1666	-0.271	-0.3785	
-0.511058	0.721996	0.515816	10.15	-9.1	4.97	0.1656	-0.2683	-0.3885	
-0.508374	0.737612	0.513254	7.63	-8.33	3.29	0.1586	-0.2671	-0.394	
-0.511912	0.7503	0.508008	4.76	-7.07	2.38	0.1652	-0.2855	-0.3819	
-0.508496	0.7442	0.50874	2.31	-6.51	1.33	0.1668	-0.276	-0.3831	
-0.50142	0.756522	0.504714	-0.42	-6.65	0.42	0.1593	-0.2807	-0.38	
-0.50386	0.762134	0.50508	-3.22	-6.16	-0.07	0.1596	-0.2826	-0.3874	
-0.511424	0.764208	0.514962	-5.25	-6.37	-1.05	0.1712	-0.276	-0.3847	
-0.5124	0.76067	0.51789	-7.56	-5.81	-2.94	0.1625	-0.2746	-0.3857	
-0.513254	0.764086	0.521428	-9.73	-5.25	-5.6	0.1538	-0.2715	-0.3852	
-0.51545	0.762866	0.527284	-11.62	-4.2	-8.47	0.1686	-0.2683	-0.3886	
-0.516426	0.740784	0.529724	-12.74	-2.52	-11.2	0.1571	-0.2734	-0.3942	
-0.523868	0.738954	0.532652	-14.49	-1.19	-14.21	0.161	-0.2713	-0.3826	
-0.514108	0.732488	0.550464	-15.61	-0.14	-17.64	0.1678	-0.2595	-0.4028	
-0.513132	0.735782	0.56181	-17.08	1.82	-21.7	0.1614	-0.2653	-0.3911	
-0.51911	0.732244	0.56608	-19.18	5.25	-25.76	0.1705	-0.2641	-0.4002	
-0.530334	0.724314	0.561688	-22.26	7.35	-29.75	0.1618	-0.261	-0.3997	
-0.540094	0.713456	0.567178	-26.46	9.24	-33.67	0.1751	-0.253	-0.4014	
-0.5429	0.694302	0.568276	-29.75	10.71	-37.52	0.184	-0.2402	-0.4012	
-0.553636	0.677344	0.56669	-31.5	12.53	-41.93	0.1898	-0.2466	-0.4032	
-0.574254	0.66917	0.548756	-32.27	13.86	-45.85	0.1974	-0.226	-0.4041	
-0.594872	0.64599	0.53863	-35.07	13.65	-49.21	0.1971	-0.2224	-0.3966	
-0.599874	0.620126	0.543876	-38.15	13.3	-52.01	0.2076	-0.2067	-0.4008	
-0.606096	0.590846	0.547536	-40.6	13.58	-54.39	0.2184	-0.2088	-0.4145	
-0.605608	0.559248	0.55754	-42.49	14.42	-57.12	0.2052	-0.1817	-0.4084	
-0.61	0.540582	0.560468	-42.21	15.05	-60.48	0.2203	-0.1837	-0.4208	
-0.617686	0.510082	0.56059	-43.54	16.45	-63.77	0.2097	-0.169	-0.408	
-0.624152	0.470066	0.568154	-42.98	17.78	-65.73	0.2275	-0.1595	-0.4128	
-0.632936	0.440542	0.576328	-41.93	19.25	-67.9	0.2286	-0.1511	-0.4022	
-0.660996	0.420168	0.573522	-41.93	21	-70.91	0.2378	-0.1435	-0.411	
-0.697352	0.393938	0.542046	-40.95	21.63	-73.92	0.2558	-0.1326	-0.4186	
-0.704672	0.337574	0.544974	-41.23	21.28	-75.18	0.2495	-0.1162	-0.406	
-0.726998	0.293288	0.540094	-41.16	20.79	-75.88	0.2611	-0.1079	-0.4018	
-0.74603	0.2501	0.531066	-41.65	20.72	-77.07	0.2673	-0.0939	-0.4073	
-0.766526	0.225212	0.517402	-41.58	19.53	-78.68	0.2586	-0.0941	-0.4098	
-0.77165	0.185074	0.511546	-42.98	17.71	-79.59	0.2722	-0.06879999	-0.4151	
-0.776774	0.148962	0.514352	-44.17	15.82	-80.36	0.2706	-0.0638	-0.409	
-0.785558	0.098698	0.525454	-45.29	14.91	-80.92	0.2778	-0.0428	-0.4026	
-0.785436	0.052338	0.529724	-46.69	13.93	-81.83	0.2719	-0.0365	-0.4021	
-0.781654	-0.00183	0.523502	-46.76	13.51	-81.69	0.2809	-0.0255	-0.4049	
-0.782874	-0.028548	0.507886	-44.59	12.46	-80.64	0.2839	-0.0062	-0.4013	
-0.779092	-0.051362	0.514474	-45.29	11.41	-79.45	0.2814	0.0139	-0.4076	
-0.779824	-0.079666	0.513132	-45.22	10.78	-78.47	0.2807	0.0226	-0.3911	
-0.790316	-0.131272	0.512888	-44.59	10.36	-77	0.2856	0.0286	-0.3998	
-0.805566	-0.175558	0.50569	-41.65	8.61	-75.32	0.2782	0.0558	-0.3925	
-0.79971	-0.195566	0.499468	-39.62	6.16	-72.94	0.2809	0.0528	-0.3898	
-0.777384	-0.189222	0.496906	-38.43	4.41	-70.91	0.2858	0.0763	-0.3963	
-0.75762	-0.193248	0.49105	-37.94	4.69	-68.88	0.2757	0.0841	-0.3985	
-0.792268	-0.239608	0.50142	-38.57	5.67	-66.01	0.278	0.09119999	-0.3822	
-0.798124	-0.280478	0.504592	-36.89	4.27	-63.07	0.2797	0.099	-0.3849	
-0.80459	-0.320128	0.507398	-36.68	3.15	-59.43	0.2698	0.1177	-0.391	
-0.777018	-0.332328	0.508862	-37.31	2.52	-56.21	0.2768	0.1245	-0.3822	
-0.77287	-0.347944	0.497394	-39.06	2.94	-53.9	0.2636	0.1308	-0.3799	
-0.7747	-0.350994	0.4697	-40.81	2.38	-51.87	0.2648	0.1295	-0.3742	
-0.790194	-0.35502	0.457012	-43.4	2.03	-50.96	0.2663	0.1423	-0.3722	
-0.802516	-0.390766	0.447252	-43.47	0.7	-50.26	0.2576	0.1565	-0.3712	
-0.793122	-0.4209	0.43676	-42.77	-1.05	-48.37	0.2546	0.1662	-0.3678	
-0.777262	-0.4575	0.435418	-44.17	-3.57	-45.5	0.2613	0.1653	-0.3535	
-0.761402	-0.47885	0.450424	-43.61	-5.95	-43.75	0.2397	0.192	-0.3544	
-0.73993	-0.508008	0.461648	-41.79	-6.79	-40.81	0.2499	0.1937	-0.3547	
-0.726144	-0.52765	0.467016	-38.08	-6.51	-38.15	0.244	0.1954	-0.3515	
-0.727242	-0.535214	0.45628	-33.67	-5.74	-37.8	0.238	0.2066	-0.3478	
-0.709918	-0.532286	0.462258	-29.4	-5.6	-37.87	0.2395	0.213	-0.3462	
-0.7076	-0.548878	0.472628	-26.88	-4.06	-38.43	0.2339	0.2223	-0.3514	
-0.699426	-0.564738	0.466284	-23.38	-2.87	-38.5	0.2249	0.2289	-0.3434	
-0.706136	-0.582184	0.457134	-19.88	-1.61	-37.8	0.2266	0.227	-0.3494	
-0.718458	-0.583892	0.452132	-18.13	-3.01	-37.31	0.2218	0.2354	-0.3386	
-0.709552	-0.573278	0.437004	-16.87	-5.46	-35.14	0.2175	0.2401	-0.3397	
-0.707966	-0.575108	0.434686	-16.52	-6.16	-32.27	0.2112	0.2438	-0.3276	
-0.717116	-0.601338	0.414434	-15.54	-6.44	-29.26	0.21	0.2482	-0.3346	
-0.708942	-0.638548	0.42029	-12.67	-7.56	-25.97	0.1979	0.2469	-0.3254	
-0.685518	-0.642574	0.432124	-9.52	-9.45	-22.75	0.1984	0.2641	-0.332	
-0.671976	-0.648552	0.43859	-8.96	-9.87	-19.74	0.1893	0.2579	-0.326	
-0.66917	-0.658434	0.434808	-8.47	-9.73	-16.59	0.1894	0.2578	-0.3275	
-0.661484	-0.657336	0.432612	-7.14	-10.43	-14	0.1867	0.2576	-0.3332	
-0.647454	-0.64965	0.441518	-6.02	-10.43	-11.9	0.1868	0.2622	-0.336	
-0.63013	-0.663192	0.452986	-5.11	-9.73	-9.45	0.188	0.2482	-0.3308	
-0.617442	-0.672708	0.448716	-4.34	-7.98	-7.21	0.188	0.2705	-0.3269	
-0.631228	-0.666608	0.440298	-3.22	-6.72	-5.53	0.1797	0.2747	-0.338	
-0.633424	-0.65514	0.440176	-2.03	-6.51	-4.13	0.1895	0.2561	-0.3305	
-0.624396	-0.663192	0.443592	-1.33	-6.16	-1.47	0.1849	0.2642	-0.3256	
-0.624518	-0.659288	0.438224	-0.21	-6.16	0.49	0.1884	0.2813	-0.3337	
-0.62647	-0.655262	0.43737	0.84	-6.44	1.4	0.1751	0.2605	-0.3355	
-0.62342	-0.657824	0.442372	2.1	-6.93	2.52	0.1778	0.2656	-0.3296	
-0.615002	-0.663558	0.449814	3.36	-7.21	4.13	0.171	0.2682	-0.3409	
-0.618052	-0.677344	0.456646	4.06	-7.14	6.02	0.1869	0.2509	-0.3408	
-0.619882	-0.679418	0.46543	5.46	-7.07	7.7	0.1824	0.2686	-0.334	
-0.62769	-0.691618	0.479704	7.42	-6.37	9.87	0.1811	0.2588	-0.3402	
-0.62769	-0.685274	0.480192	9.45	-4.34	12.46	0.1798	0.2554	-0.3447	
-0.642086	-0.686616	0.477142	11.27	-1.68	15.61	0.1884	0.2556	-0.3407	
-0.64233	-0.673684	0.467992	13.44	-1.26	18.13	0.1752	0.2572	-0.3386	
-0.646844	-0.670024	0.479094	14.56	-0.42	21.7	0.1784	0.2522	-0.3448	
-0.64477	-0.669902	0.485072	15.82	-0.07	26.6	0.1843	0.2505	-0.348	
-0.64782	-0.661728	0.492392	17.71	1.89	32.06	0.184	0.2573	-0.339	
-0.651968	-0.658068	0.490928	20.51	3.01	36.54	0.1869	0.2429	-0.3412	
-0.654408	-0.637938	0.50081	24.5	4.34	40.11	0.1986	0.2462	-0.3415	
-0.653676	-0.622566	0.501054	26.88	5.53	43.19	0.209	0.2333	-0.3484	
-0.660752	-0.618052	0.50203	29.19	7.07	46.13	0.2123	0.2329	-0.3558	
-0.668316	-0.601704	0.502518	31.01	8.19	49.21	0.2181	0.209	-0.36	
-0.677222	-0.587796	0.489708	33.6	9.03	52.36	0.2133	0.2238	-0.3475	
-0.688324	-0.55754	0.49044	36.19	9.38	55.23	0.2182	0.2057	-0.3631	
-0.695034	-0.523746	0.488	39.41	9.73	57.75	0.2242	0.2024	-0.3664	
-0.70882	-0.502884	0.490562	41.58	10.15	60.48	0.2416	0.1787	-0.3682	
-0.708454	-0.473482	0.4941	43.82	10.01	62.72	0.2344	0.177	-0.3708	
-0.712236	-0.432612	0.488366	46.41	8.96	64.33	0.2286	0.1704	-0.3738	
-0.729804	-0.410042	0.494954	46.34	8.68	66.71	0.2508	0.1688	-0.3792	
-0.744322	-0.383812	0.494832	46.27	8.12	69.51	0.2533	0.1468	-0.3744	
-0.75945	-0.35624	0.484096	45.22	7.49	73.15	0.2652	0.1323	-0.3814	
-0.768844	-0.305854	0.468602	45.43	6.51	75.95	0.2565	0.1258	-0.3842	
-0.775188	-0.272304	0.471408	45.22	4.97	78.68	0.268	0.1197	-0.382	
-0.777018	-0.218868	0.475922	45.5	2.31	78.47	0.2695	0.0989	-0.3859	
-0.822768	-0.185684	0.48251	44.59	1.33	79.1	0.2766	0.08639999	-0.3838	
-0.830698	-0.1525	0.488366	44.8	-1.12	81.97	0.2763	0.069	-0.3817	
-0.807152	-0.108702	0.493124	47.11	-2.94	85.96	0.269	0.0578	-0.3818	
-0.783728	-0.048556	0.495076	47.39	-3.92	88.48	0.2809	0.0449	-0.3902	
-0.772504	0.01403	0.491904	43.75	-3.78	88.2	0.2823	0.0337	-0.3922	
-0.796294	0.061488	0.501786	43.4	-2.8	85.68	0.2884	0.0191	-0.4004	
-0.794464	0.087108	0.504592	44.66	-3.99	85.75	0.2822	0.0066	-0.3948	
-0.77897	0.11224	0.503006	43.47	-5.67	86.73	0.2872	0.006	-0.4082	
-0.804956	0.148352	0.485926	45.92	-4.83	86.52	0.2939	-0.0172	-0.3992	
-0.792878	0.171654	0.486536	45.43	-6.86	86.03	0.2823	-0.0254	-0.4035	
-0.758352	0.21289	0.493978	45.22	-9.66	85.82	0.2801	-0.0566	-0.3916	
-0.736148	0.25132	0.52155	39.97	-9.03	84.84	0.2893	-0.06659999	-0.4041	
-0.758718	0.299998	0.529358	38.57	-8.33	80.78	0.2789	-0.0793	-0.4027	
-0.755668	0.321592	0.512766	37.59	-8.75	76.02	0.2816	-0.0854	-0.3987	
-0.735782	0.311954	0.506666	38.78	-10.29	72.38	0.2776	-0.1034	-0.4096	
-0.712724	0.325496	0.510326	40.25	-12.11	69.23	0.2684	-0.1047	-0.4019	
-0.730658	0.402234	0.50386	38.92	-14	64.96	0.2728	-0.1191	-0.4042	
-0.73322	0.437858	0.510448	33.67	-16.94	61.11	0.2639	-0.1302	-0.4043	
-0.727974	0.437858	0.49959	34.44	-19.04	57.47	0.2654	-0.1302	-0.4044	
-0.707722	0.44103	0.49898	35.84	-23.03	54.11	0.2596	-0.1543	-0.4095	
-0.70333	0.446642	0.50203	35.98	-24.99	51.38	0.2461	-0.1604	-0.4019	
-0.701256	0.459574	0.504348	35.91	-26.53	48.16	0.243	-0.1763	-0.401	
-0.690032	0.488488	0.525576	35.91	-28.84	44.52	0.2332	-0.1736	-0.4107	
-0.664046	0.528992	0.537776	34.65	-30.59	43.19	0.2414	-0.1826	-0.3997	
-0.652944	0.541436	0.537654	32.27	-30.94	43.47	0.2357	-0.1972	-0.4074	
-0.622932	0.57279	0.543876	31.15	-31.36	43.96	0.2297	-0.1923	-0.4026	
-0.607926	0.596092	0.549366	25.9	-30.38	45.57	0.2122	-0.2004	-0.4036	
-0.587552	0.621102	0.559614	22.61	-29.26	45.71	0.2007	-0.2056	-0.4107	
-0.610976	0.636108	0.55693	20.86	-27.72	45.29	0.2034	-0.2181	-0.4069	
-0.58804	0.673562	0.567422	19.88	-27.44	43.47	0.196	-0.2229	-0.4068	
-0.581818	0.712968	0.562298	18.55	-26.67	40.88	0.196	-0.2309	-0.4086	
-0.560712	0.70028	0.563762	14.7	-25.41	37.8	0.1756	-0.2359	-0.4094	
-0.549244	0.690764	0.573278	12.95	-23.73	34.16	0.1753	-0.2325	-0.4034	
-0.519598	0.695522	0.574498	12.74	-21.98	30.8	0.162	-0.2436	-0.4019	
-0.508252	0.69235	0.576206	13.37	-19.95	26.88	0.1546	-0.2467	-0.3988	
-0.492514	0.698938	0.572546	13.79	-18.48	23.24	0.1473	-0.242	-0.3983	
-0.485072	0.707478	0.58438	12.67	-17.15	20.02	0.1475	-0.2502	-0.4045	
-0.472262	0.715164	0.585356	10.85	-16.03	16.03	0.1431	-0.2535	-0.4059	
-0.468602	0.715896	0.579134	8.61	-15.05	12.32	0.1356	-0.2598	-0.4029	
-0.457988	0.71736	0.585844	7.28	-14.28	9.17	0.1341	-0.2614	-0.4029	
-0.440908	0.71858	0.59841	5.88	-13.58	6.51	0.1375	-0.2602	-0.4118	
-0.430904	0.720776	0.599264	4.62	-11.9	3.99	0.1398	-0.2611	-0.3988	
-0.431392	0.727364	0.595726	2.45	-9.45	1.75	0.1344	-0.2648	-0.4089	
-0.43554	0.724558	0.592798	0.63	-7.49	0.63	0.1301	-0.2521	-0.4082	
-0.43737	0.728096	0.593408	-0.42	-6.3	-0.42	0.1278	-0.2737	-0.3944	
-0.44286	0.731756	0.593042	-1.75	-5.88	-1.89	0.1324	-0.2626	-0.3956	
-0.427732	0.723338	0.596214	-3.36	-5.53	-3.57	0.1254	-0.2727	-0.406	
-0.427854	0.725412	0.60085	-4.48	-4.27	-5.25	0.1288	-0.2588	-0.4143	
-0.42639	0.71858	0.607438	-6.02	-2.59	-6.86	0.1223	-0.2597	-0.3994	
-0.434808	0.721264	0.60817	-7.63	-1.33	-8.47	0.1241	-0.2616	-0.4069	
-0.432978	0.71919	0.62342	-8.26	-0.07	-10.64	0.1243	-0.2539	-0.4109	
-0.440542	0.719678	0.6222	-9.31	1.12	-13.37	0.1284	-0.2551	-0.4039	
-0.444568	0.717604	0.62098	-11.48	2.73	-16.73	0.1365	-0.2607	-0.3899	
-0.455182	0.720166	0.623542	-14.35	3.99	-19.88	0.13	-0.2472	-0.4051	
-0.464332	0.722972	0.622688	-16.52	6.02	-23.03	0.1401	-0.2422	-0.4009	
-0.467992	0.71553	0.625006	-19.74	7.84	-25.76	0.1432	-0.2392	-0.4053	
-0.475312	0.696498	0.62708	-23.24	9.87	-28.7	0.1349	-0.243	-0.4168	
-0.485438	0.683444	0.63074	-25.97	11.69	-31.92	0.1537	-0.2361	-0.41	
-0.48861	0.666608	0.634278	-28.07	13.79	-35.21	0.1538	-0.2283	-0.4111	
-0.500688	0.662948	0.62952	-31.71	16.1	-38.57	0.1499	-0.2161	-0.4206	
-0.519476	0.642208	0.625494	-35.21	17.85	-41.86	0.1512	-0.2351	-0.42	
-0.524722	0.61976	0.629886	-36.54	19.18	-45.08	0.1599	-0.2157	-0.4152	
-0.532652	0.600728	0.63562	-38.71	21.14	-48.09	0.1716	-0.206	-0.4138	
-0.533872	0.573156	0.632814	-39.76	24.01	-50.89	0.1834	-0.2028	-0.4142	
-0.557662	0.5612	0.624518	-39.76	26.88	-53.9	0.1811	-0.1891	-0.4266	
-0.571082	0.536312	0.629764	-42.84	28.7	-56.56	0.1865	-0.1806	-0.4148	
-0.582428	0.502274	0.623786	-45.01	30.52	-58.73	0.2072	-0.1742	-0.4184	
-0.593896	0.476898	0.620492	-46.13	32.34	-61.11	0.2061	-0.1555	-0.4248	
-0.597434	0.454694	0.612928	-47.04	34.58	-64.61	0.2114	-0.1516	-0.4103	
-0.618784	0.415776	0.596458	-44.73	36.33	-68.04	0.2147	-0.1328	-0.4154	
-0.629886	0.360754	0.593896	-43.54	37.87	-70.35	0.2204	-0.1326	-0.4128	
-0.652578	0.337818	0.586332	-42.35	38.64	-73.22	0.2384	-0.1089	-0.4183	
-0.688812	0.302926	0.565714	-42.98	39.27	-76.16	0.2329	-0.0998	-0.425	
-0.729682	0.254736	0.543632	-41.09	38.78	-78.33	0.2371	-0.0835	-0.4172	
-0.753716	0.216428	0.525454	-38.99	36.89	-80.43	0.2542	-0.0685	-0.4041	
-0.758108	0.198982	0.518012	-38.01	34.51	-82.53	0.2574	-0.0671	-0.4086	
-0.765062	0.153476	0.520696	-38.64	32.83	-83.3	0.2779	-0.0573	-0.4076	
-0.783484	0.114924	0.509594	-37.87	31.01	-83.51	0.2734	-0.0413	-0.4038	
-0.78019	0.073322	0.503982	-39.34	29.61	-83.23	0.2722	-0.0256	-0.406	
-0.78995	0.025498	0.506544	-38.64	28.28	-84.21	0.287	-0.0192	-0.4078	
-0.800198	-0.011224	0.49288	-36.82	27.16	-85.54	0.2808	-0.003	-0.3981	
-0.805322	-0.047824	0.491538	-37.1	25.48	-85.75	0.2957	0	-0.403	
-0.806176	-0.07625	0.474702	-38.92	24.36	-84.84	0.2974	0.0158	-0.4053	
-0.809226	-0.11651	0.45384	-39.06	23.17	-82.88	0.2975	0.0269	-0.4048	
-0.807396	-0.142252	0.445788	-39.55	20.79	-80.99	0.2912	0.0481	-0.3919	
-0.825696	-0.188002	0.459696	-38.71	18.76	-77.07	0.2895	0.05	-0.3845	
-0.829478	-0.225334	0.452132	-37.8	15.82	-72.94	0.2989	0.0765	-0.3954	
-0.8174	-0.236192	0.444812	-37.17	13.3	-69.58	0.303	0.08329999	-0.3866	
-0.805322	-0.232044	0.440176	-36.05	11.06	-68.32	0.2921	0.0935	-0.3696	
-0.829112	-0.264008	0.434808	-36.12	9.8	-67.2	0.2893	0.103	-0.3705	
-0.83265	-0.300974	0.436394	-34.79	8.19	-65.03	0.2981	0.119	-0.3673	
-0.818864	-0.32879	0.434442	-34.79	6.72	-62.16	0.2881	0.1347	-0.3691	
-0.817278	-0.359046	0.417606	-33.6	6.37	-60.55	0.2864	0.1301	-0.3649	
-0.806542	-0.368562	0.420534	-32.55	5.6	-59.85	0.2862	0.1384	-0.3587	
-0.809958	-0.392718	0.419192	-31.99	4.69	-58.17	0.2789	0.1479	-0.3565	
-0.812154	-0.415898	0.413336	-30.52	3.64	-55.72	0.2699	0.156	-0.3514	
-0.787388	-0.436394	0.411262	-31.36	1.54	-52.01	0.2791	0.1621	-0.3588	
-0.782264	-0.452254	0.407236	-32.83	0.21	-49	0.2672	0.1717	-0.3535	
-0.781654	-0.464942	0.410896	-33.88	-0.56	-48.02	0.2657	0.1958	-0.3466	
-0.773968	-0.490928	0.40992	-33.67	-1.19	-47.04	0.2673	0.1956	-0.351	
-0.772016	-0.510936	0.407358	-33.18	-2.17	-46.2	0.2558	0.2129	-0.3527	
-0.771528	-0.54229	0.404064	-32.06	-3.57	-44.1	0.2526	0.21	-0.3468	
-0.771528	-0.56913	0.398452	-29.54	-4.76	-42.14	0.2566	0.2264	-0.3346	
-0.762988	-0.583038	0.398696	-25.97	-6.51	-40.32	0.2464	0.2296	-0.3326	
-0.746274	-0.594994	0.391132	-23.8	-6.16	-39.55	0.248	0.2294	-0.3371	
-0.729438	-0.610244	0.402722	-21.56	-6.51	-37.52	0.2407	0.2405	-0.3348	
-0.729316	-0.608536	0.407602	-20.16	-6.93	-35.14	0.2363	0.2437	-0.333	
-0.717848	-0.610244	0.405406	-17.71	-7.63	-32.97	0.2376	0.2503	-0.3284	
-0.697962	-0.623176	0.407358	-16.17	-6.72	-29.96	0.2174	0.2594	-0.333	
-0.699182	-0.639646	0.40626	-14.21	-5.53	-26.25	0.2261	0.2611	-0.3318	
-0.698084	-0.659044	0.396744	-11.97	-5.53	-23.31	0.2244	0.2662	-0.3257	
-0.690276	-0.666242	0.391498	-9.31	-6.37	-20.79	0.2143	0.2628	-0.3283	
-0.687958	-0.663192	0.389668	-6.93	-6.65	-18.97	0.2111	0.2519	-0.3243	
-0.678442	-0.66124	0.39772	-5.46	-6.23	-16.73	0.2184	0.2728	-0.3193	
-0.671976	-0.66002	0.39101	-5.53	-6.09	-14.28	0.2099	0.2675	-0.328	
-0.666486	-0.656482	0.391254	-5.53	-5.6	-12.32	0.1965	0.2661	-0.3216	
-0.665998	-0.654286	0.38491	-5.32	-5.32	-10.78	0.2128	0.2804	-0.3246	
-0.6588	-0.66185	0.38247	-4.34	-5.11	-8.4	0.2067	0.2694	-0.3204	
-0.654408	-0.66612	0.381982	-3.85	-5.04	-7.63	0.2012	0.2786	-0.3271	
-0.651358	-0.668926	0.383934	-3.64	-4.9	-6.44	0.2098	0.2757	-0.3232	
-0.654896	-0.679662	0.38125	-3.5	-4.62	-4.55	0.1964	0.279	-0.3167	
-0.649284	-0.672464	0.383812	-1.68	-5.46	-2.17	0.1905	0.2694	-0.3183	
-0.649284	-0.676856	0.385398	-1.19	-5.39	-1.19	0.2083	0.2693	-0.3234	
-0.644282	-0.678808	0.391864	-0.63	-5.6	1.12	0.2039	0.2709	-0.3232	
-0.656726	-0.684664	0.390034	0.77	-5.6	2.59	0.1881	0.2816	-0.3279	
-0.660752	-0.67466	0.398208	3.08	-5.74	3.99	0.1882	0.2703	-0.3313	
-0.663192	-0.689422	0.40565	5.6	-5.39	6.09	0.1951	0.2709	-0.3213	
-0.664168	-0.698084	0.412482	7.56	-4.9	8.47	0.1881	0.2688	-0.3299	
-0.67405	-0.708576	0.407236	9.24	-3.85	11.27	0.1936	0.2693	-0.3213	
-0.67771	-0.709674	0.411262	11.76	-3.36	14.42	0.1963	0.2695	-0.3171	
-0.67893	-0.70882	0.410286	13.16	-3.22	16.1	0.1984	0.2705	-0.3303	
-0.682346	-0.703696	0.412848	15.82	-2.87	19.81	0.2099	0.2692	-0.3264	
-0.679296	-0.694546	0.43249	20.58	-2.03	25.83	0.2015	0.2639	-0.3365	
-0.675758	-0.680272	0.434076	24.43	-0.84	30.38	0.1997	0.2498	-0.3312	
-0.68442	-0.665754	0.428586	27.44	0.42	34.23	0.21	0.2483	-0.3332	
-0.690032	-0.656116	0.429196	29.82	0.63	37.17	0.2194	0.2412	-0.3499	
-0.691496	-0.649894	0.437614	31.57	1.12	41.3	0.2115	0.2306	-0.3384	
-0.685518	-0.623908	0.43981	33.04	1.68	45.92	0.218	0.2251	-0.3549	
-0.68137	-0.598898	0.45323	34.02	2.8	49.56	0.2235	0.2096	-0.3485	
-0.688446	-0.590358	0.456768	35.42	3.29	52.36	0.2311	0.2077	-0.3562	
-0.705404	-0.574132	0.45323	37.24	3.5	55.3	0.2369	0.2142	-0.3548	
-0.709674	-0.544608	0.463234	39.27	3.22	58.38	0.234	0.1934	-0.3584	
-0.713212	-0.5246	0.465918	41.65	3.92	61.32	0.2458	0.1902	-0.362	
-0.717238	-0.491904	0.46055	43.96	4.2	63.42	0.2535	0.1738	-0.3732	
-0.720654	-0.464698	0.46909	44.52	4.34	66.43	0.249	0.1691	-0.3718	
-0.72468	-0.427244	0.474946	45.71	3.29	67.97	0.2592	0.1612	-0.3726	
-0.742492	-0.386008	0.469944	46.2	2.66	69.51	0.2622	0.1436	-0.3778	
-0.760426	-0.348188	0.479582	46.2	1.75	71.75	0.2797	0.1406	-0.3773	
-0.770064	-0.307318	0.485072	45.64	1.33	74.06	0.2742	0.1225	-0.3895	
-0.792878	-0.264862	0.483364	44.52	0.77	76.37	0.2842	0.1117	-0.386	
-0.813984	-0.20862	0.472018	42.07	-1.19	77.7	0.2779	0.1025	-0.3774	
-0.814472	-0.161406	0.485682	38.71	-3.71	78.75	0.2909	0.09	-0.3755	
-0.814838	-0.124562	0.495564	41.72	-4.34	81.97	0.2913	0.0784	-0.3877	
-0.800808	-0.092964	0.500444	43.47	-5.67	85.12	0.2753	0.0638	-0.392	
-0.783362	-0.04148	0.498248	44.45	-6.23	86.38	0.284	0.0479	-0.3946	
-0.796782	0.005734	0.494832	45.57	-5.32	85.26	0.2845	0.0297	-0.41	
-0.786778	0.047824	0.499834	45.64	-6.44	84.21	0.2939	0.0292	-0.39	
-0.799466	0.080032	0.497516	47.6	-5.11	83.86	0.2929	0.0126	-0.4038	
-0.7808	0.084424	0.498248	48.3	-6.37	83.79	0.291	-0.0012	-0.3955	
-0.783362	0.099552	0.476898	51.59	-6.58	82.11	0.2955	-0.0236	-0.4025	
-0.774578	0.14213	0.490074	48.23	-7.56	81.2	0.288	-0.0412	-0.4029	
-0.774334	0.171898	0.501176	46.13	-8.4	80.29	0.2937	-0.0409	-0.3988	
-0.781044	0.2196	0.509716	45.43	-9.17	78.4	0.2861	-0.0615	-0.3964	
-0.783728	0.257664	0.500444	42.42	-9.52	76.65	0.282	-0.06659999	-0.4038	
-0.757132	0.260348	0.491904	42.77	-11.41	75.81	0.2775	-0.0873	-0.4045	
-0.750422	0.281698	0.480436	43.82	-12.6	74.27	0.2786	-0.103	-0.4008	
-0.742004	0.307806	0.494832	45.22	-15.47	70.77	0.2785	-0.1109	-0.3997	
-0.759084	0.388936	0.496784	44.45	-18.34	66.08	0.2742	-0.1222	-0.4029	
-0.752862	0.426756	0.497638	42.56	-20.51	62.79	0.2665	-0.1474	-0.3993	
-0.710406	0.444568	0.522282	41.09	-23.24	61.04	0.2622	-0.1539	-0.4023	
-0.710406	0.44103	0.52216	39.76	-22.75	56.14	0.2563	-0.1427	-0.3987	
-0.719312	0.443226	0.511424	38.99	-22.4	51.17	0.2404	-0.1655	-0.4077	
-0.701134	0.47458	0.512156	39.06	-22.96	48.16	0.2444	-0.1666	-0.3992	
-0.679906	0.48495	0.50752	35.91	-24.01	46.13	0.2342	-0.1827	-0.4024	
-0.67954	0.49044	0.50081	34.93	-24.71	43.96	0.2265	-0.1984	-0.3969	
-0.667096	0.498858	0.508496	32.97	-26.74	43.12	0.2265	-0.1968	-0.3968	
-0.644282	0.529602	0.514352	31.85	-28.14	42.21	0.2149	-0.205	-0.3996	
-0.638548	0.57767	0.528138	27.86	-29.47	41.86	0.2015	-0.2161	-0.3966	
-0.627568	0.6161	0.528992	23.87	-30.59	41.23	0.2043	-0.2239	-0.3956	
-0.61244	0.616588	0.538752	19.32	-30.38	40.67	0.2074	-0.2321	-0.4019	
-0.602558	0.6405	0.544242	17.36	-29.82	39.34	0.1914	-0.2275	-0.4025	
-0.594018	0.67222	0.553758	13.37	-28.77	38.22	0.1823	-0.2337	-0.3965	
-0.585112	0.714676	0.573156	10.15	-28.07	36.47	0.1813	-0.2406	-0.4084	
-0.562542	0.709308	0.584624	6.16	-26.53	35.07	0.1719	-0.2464	-0.3951	
-0.539972	0.704306	0.585112	4.62	-23.87	32.62	0.169	-0.2463	-0.3936	
-0.531066	0.712846	0.584624	2.52	-21.49	28	0.1604	-0.2515	-0.4007	
-0.52277	0.730658	0.585356	1.96	-19.67	22.4	0.1648	-0.253	-0.3995	
-0.502396	0.723582	0.597434	1.12	-18.27	17.92	0.1562	-0.2549	-0.4051	
-0.47702	0.70943	0.608048	1.19	-16.66	13.58	0.1445	-0.2567	-0.4061	
-0.461526	0.71309	0.6039	1.4	-14.42	9.03	0.1441	-0.2641	-0.3962	
-0.45018	0.717116	0.60024	0.42	-11.9	5.11	0.1327	-0.2566	-0.4027	
-0.458842	0.71431	0.599386	-1.12	-10.57	1.26	0.1455	-0.2481	-0.3926	
-0.44652	0.711382	0.606462	-2.73	-9.73	-2.03	0.1241	-0.2569	-0.4067	
-0.447008	0.705526	0.606706	-4.34	-8.12	-4.27	0.1373	-0.2472	-0.4054	
-0.450668	0.705038	0.599508	-6.44	-7.42	-6.3	0.1386	-0.2566	-0.4044	
-0.449204	0.702842	0.601704	-8.33	-7.49	-7.84	0.1386	-0.2518	-0.4027	
-0.453474	0.693326	0.610854	-10.15	-7.35	-8.47	0.1345	-0.2457	-0.4081	
-0.456524	0.693936	0.615368	-11.55	-6.79	-9.73	0.1301	-0.2474	-0.408	
-0.452742	0.690764	0.621102	-13.86	-6.09	-10.85	0.1275	-0.2365	-0.4133	
-0.452742	0.677588	0.640866	-15.96	-4.62	-11.55	0.1318	-0.2492	-0.414	
-0.464576	0.662704	0.651114	-17.29	-3.15	-13.65	0.1349	-0.2446	-0.4168	
-0.469334	0.659288	0.654408	-16.8	-1.26	-16.87	0.1349	-0.2334	-0.4149	
-0.47763	0.657458	0.649162	-17.85	0.35	-19.95	0.1407	-0.2237	-0.4133	
-0.47763	0.637206	0.66307	-17.99	2.1	-22.47	0.1388	-0.2392	-0.4051	
-0.482388	0.622688	0.671366	-17.57	4.48	-24.99	0.1481	-0.2238	-0.415	
-0.502274	0.618296	0.663314	-18.83	7.21	-28.49	0.1394	-0.2271	-0.4177	
-0.526186	0.610854	0.658068	-21.84	8.96	-31.36	0.1424	-0.2191	-0.4161	
-0.529724	0.591212	0.662582	-22.75	10.5	-33.04	0.1529	-0.2049	-0.4203	
-0.536678	0.57157	0.665632	-24.22	12.46	-35.14	0.1608	-0.2087	-0.4354	
-0.54351	0.554978	0.6649	-25.13	14.56	-37.52	0.1574	-0.2098	-0.4236	
-0.569008	0.53253	0.653798	-25.83	16.03	-39.9	0.1572	-0.1968	-0.4172	
-0.576206	0.50996	0.652456	-25.76	16.38	-40.6	0.162	-0.1844	-0.4242	
-0.587186	0.49532	0.6527	-26.88	17.92	-40.88	0.1689	-0.1935	-0.4161	
-0.585234	0.482266	0.656238	-28.49	19.25	-41.58	0.1766	-0.1699	-0.4212	
-0.603778	0.463722	0.6405	-29.61	21.21	-42.21	0.1832	-0.1866	-0.4412	
-0.618418	0.437858	0.635864	-30.8	22.12	-42.77	0.1854	-0.1746	-0.4233	
-0.626226	0.407114	0.632448	-31.64	23.31	-42.14	0.1914	-0.1539	-0.4212	
-0.635986	0.390644	0.629276	-32.2	24.5	-41.79	0.2016	-0.157	-0.4218	
-0.646478	0.372954	0.624884	-33.04	26.11	-41.86	0.2064	-0.1542	-0.4306	
-0.64721	0.352336	0.625372	-32.97	27.44	-41.72	0.2091	-0.1315	-0.421	
-0.662704	0.334768	0.62098	-33.67	28.84	-40.39	0.2315	-0.1302	-0.4321	
-0.680516	0.312686	0.616832	-35.21	30.66	-38.85	0.2214	-0.1257	-0.4344	
-0.703452	0.289262	0.608414	-36.33	32.34	-37.73	0.2294	-0.1199	-0.414	
-0.728584	0.264618	0.5917	-38.01	32.76	-36.33	0.2356	-0.1011	-0.4193	
-0.742858	0.242292	0.571936	-40.11	31.57	-33.74	0.2295	-0.1041	-0.4148	
-0.756034	0.208254	0.564494	-41.3	30.38	-30.52	0.2476	-0.0869	-0.4236	
-0.768966	0.175192	0.565836	-41.51	29.82	-27.51	0.2502	-0.0865	-0.415	
-0.774212	0.15555	0.568764	-41.23	28.91	-24.99	0.2533	-0.07229999	-0.4174	
-0.772992	0.1281	0.572302	-39.06	27.86	-22.82	0.2634	-0.072	-0.4134	
-0.776774	0.109434	0.573156	-37.66	27.44	-21.35	0.2623	-0.0581	-0.4201	
-0.78629	0.102724	0.574742	-37.66	27.37	-20.3	0.265	-0.0513	-0.4126	
-0.782874	0.096502	0.575108	-36.96	26.81	-19.67	0.2767	-0.0497	-0.413	
-0.80154	0.078446	0.56669	-35.77	28.28	-18.83	0.2885	-0.0289	-0.4127	
-0.827282	0.054412	0.551562	-34.51	29.47	-17.99	0.278	-0.0334	-0.4051	
-0.827648	0.027938	0.533506	-30.1	28.28	-17.92	0.2863	-0.0361	-0.3968	
-0.831186	0.001098	0.52704	-27.02	27.51	-18.27	0.2841	-0.0161	-0.4075	
-0.840092	-0.015128	0.513132	-22.26	25.97	-19.53	0.2897	-0.0078	-0.4016	
-0.852658	-0.011834	0.508374	-20.09	24.71	-20.86	0.2953	-0.0011	-0.3942	
-0.859246	-0.006954	0.514352	-17.36	23.45	-21.7	0.2965	0.0008	-0.3869	
-0.854854	-0.019642	0.524356	-14	21.28	-21.98	0.3041	0.0037	-0.3944	
-0.85766	-0.035502	0.517158	-8.12	20.51	-21.91	0.3082	0.0104	-0.387	
-0.872666	-0.050508	0.499224	-3.22	19.6	-22.33	0.3102	0.0179	-0.397	
-0.88694	-0.05429	0.499956	-0.07	17.71	-22.61	0.3229	0.0073	-0.3892	
-0.881206	-0.05368	0.492026	7.84	14.63	-22.4	0.3128	0.0151	-0.3899	
-0.891454	-0.066124	0.488976	10.85	14.63	-22.54	0.313	0.0117	-0.3944	
-0.894626	-0.063074	0.47702	15.61	12.81	-22.47	0.3215	0.0264	-0.3869	
-0.905606	-0.058804	0.483486	19.18	11.06	-23.31	0.3144	0.0133	-0.393	
-0.907558	-0.072834	0.476532	24.29	8.82	-23.24	0.3241	0.014	-0.3817	
-0.895846	-0.083326	0.474946	25.76	7.35	-21.84	0.3168	0.0139	-0.3814	
-0.89487	-0.091012	0.484584	31.43	6.65	-20.86	0.32	0.012	-0.3889	
-0.898774	-0.087474	0.484706	36.82	5.32	-21.14	0.3256	0.014	-0.3817	
-0.898286	-0.09028	0.472018	40.11	4.13	-22.82	0.3181	0.0045	-0.3789	
-0.911218	-0.098454	0.464942	43.12	4.97	-23.8	0.3184	-0.0005	-0.3864	
-0.912926	-0.096746	0.459452	49.7	3.85	-23.45	0.3137	0.0093	-0.3785	
-0.919026	-0.091988	0.462746	60.34	2.45	-20.79	0.3209	-0.0001	-0.3778	
-0.871934	-0.011346	0.467382	68.25	-0.7	-21.49	0.3197	-0.0115	-0.3855	
-0.872544	0.002196	0.47519	64.61	-0.56	-25.13	0.3214	-0.0005	-0.388	
-0.899018	0.003294	0.454206	68.74	2.52	-29.47	0.321	-0.0289	-0.3849	
-0.917318	0.004148	0.448472	75.11	0.98	-31.15	0.3238	-0.0335	-0.3823	
-0.908412	0.004758	0.447252	87.22	-1.33	-30.24	0.3223	-0.0544	-0.3875	
-0.905118	0.029036	0.433466	95.34	-2.87	-30.59	0.3166	-0.0498	-0.3899	
-0.879742	0.069784	0.439322	97.09	-5.46	-33.32	0.3165	-0.0657	-0.3906	
-0.892796	0.094794	0.44103	97.3	-6.44	-38.01	0.3221	-0.0669	-0.3836	
-0.883524	0.098454	0.444812	95.48	-7.28	-41.02	0.3148	-0.0862	-0.3885	
-0.885476	0.088816	0.449692	91.56	-7.42	-42.35	0.3116	-0.0923	-0.3828	
-0.880352	0.111996	0.463234	89.25	-7.84	-42.98	0.3116	-0.1035	-0.3847	
-0.88267	0.113094	0.473726	85.89	-8.12	-40.88	0.3143	-0.1113	-0.3823	
-0.865712	0.105042	0.469212	80.85	-7.7	-33.81	0.3069	-0.1208	-0.3809	
-0.871568	0.121512	0.470066	78.47	-7.7	-31.78	0.3232	-0.1353	-0.3881	
-0.866444	0.1342	0.478484	74.55	-6.09	-30.31	0.3125	-0.1333	-0.3773	
-0.86254	0.127978	0.487512	70.28	-5.04	-27.58	0.3185	-0.1366	-0.3821	
-0.85705	0.137616	0.473238	67.69	-3.29	-26.32	0.3148	-0.147	-0.3649	
-0.809226	0.108336	0.46482	65.03	-2.38	-24.5	0.3281	-0.1551	-0.3716	
-0.881206	0.110288	0.467016	63.77	-3.22	-23.24	0.3145	-0.1563	-0.3609	
-0.881694	0.114436	0.477264	62.65	-4.06	-21.49	0.3249	-0.1563	-0.3642	
-0.872544	0.141642	0.481046	59.36	-4.13	-22.82	0.3207	-0.1774	-0.3723	
-0.895602	0.154696	0.46482	57.96	-2.38	-22.19	0.3291	-0.1817	-0.3655	
-0.899872	0.181658	0.454938	54.81	-2.94	-22.19	0.3232	-0.1946	-0.3673	
-0.887794	0.173972	0.45994	51.03	-2.8	-21	0.3244	-0.1798	-0.3565	
-0.870958	0.17446	0.444324	48.86	-2.17	-19.95	0.3128	-0.18	-0.3589	
-0.895968	0.174826	0.443958	45.71	-1.12	-19.81	0.3256	-0.1907	-0.3526	
-0.867054	0.170312	0.449692	40.67	-2.24	-20.44	0.3288	-0.191	-0.3601	
-0.872788	0.172996	0.469822	36.75	-2.94	-20.93	0.3242	-0.1988	-0.3558	
-0.88267	0.169824	0.472262	33.88	-3.64	-20.79	0.3249	-0.2075	-0.3402	
-0.881206	0.177632	0.47885	30.45	-3.08	-20.44	0.3338	-0.2029	-0.3433	
-0.878156	0.16165	0.47214	27.51	-1.26	-19.53	0.3429	-0.1983	-0.3493	
-0.890966	0.136396	0.45262	25.13	-0.42	-18.62	0.328	-0.2061	-0.3446	
-0.878766	0.14091	0.452254	21.98	0.35	-16.59	0.3233	-0.2042	-0.3356	
-0.878644	0.157136	0.46177	18.13	0.77	-13.23	0.3327	-0.1936	-0.3487	
-0.874984	0.153964	0.467504	13.37	1.82	-10.01	0.3291	-0.2073	-0.336	
-0.870592	0.151036	0.473482	8.61	2.45	-7.07	0.3249	-0.214	-0.3419	
-0.878522	0.149572	0.467382	4.41	3.57	-4.62	0.3266	-0.203	-0.3444	
-0.87901	0.144814	0.465674	0.28	3.71	-2.94	0.3309	-0.2172	-0.3452	
-0.885598	0.13969	0.465918	-2.45	4.48	-1.05	0.3377	-0.2023	-0.3317	
-0.883158	0.130296	0.457256	-4.76	4.9	0.98	0.3321	-0.1962	-0.3356	
-0.893528	0.12017	0.443592	-7.35	5.25	2.94	0.3215	-0.2151	-0.3316	
-0.910242	0.116998	0.43615	-8.54	4.62	4.55	0.3425	-0.2042	-0.3408	
-0.899994	0.12932	0.437858	-11.55	3.29	5.11	0.3424	-0.2042	-0.3393	
-0.901458	0.12383	0.4392	-14.07	3.01	5.25	0.3361	-0.2085	-0.329	
-0.908534	0.11712	0.44164	-15.47	3.29	4.83	0.3437	-0.2007	-0.3334	
-0.90463	0.115168	0.448716	-16.31	3.92	4.76	0.3307	-0.217	-0.3408	
-0.91134	0.12627	0.448472	-17.57	4.83	5.46	0.3377	-0.1942	-0.3285	
-0.908656	0.152256	0.434564	-21.63	4.97	7.42	0.3395	-0.2042	-0.3392	
-0.891942	0.16531	0.423096	-26.25	4.97	10.43	0.3409	-0.1961	-0.336	
-0.902922	0.147376	0.408578	-29.47	6.09	11.97	0.3484	-0.1963	-0.3407	
-0.901336	0.15189	0.412604	-33.32	7.84	12.25	0.3399	-0.1934	-0.346	
-0.898774	0.182878	0.423584	-40.46	10.99	12.88	0.3325	-0.1935	-0.3457	
-0.885842	0.196176	0.432612	-50.05	15.12	14.56	0.3294	-0.1853	-0.3394	
-0.884256	0.176168	0.43615	-56.49	17.99	16.38	0.3445	-0.1872	-0.3504	
-0.897676	0.166042	0.419802	-63	19.88	17.92	0.3445	-0.184	-0.3488	
-0.905972	0.165554	0.404186	-68.18	21.84	19.04	0.3389	-0.1683	-0.3522	
-0.918416	0.173728	0.39528	-73.29	23.38	21.07	0.3348	-0.1639	-0.3592	
-0.933544	0.178486	0.384666	-78.96	22.82	23.94	0.3492	-0.1636	-0.3539	
-0.933666	0.165798	0.333548	-89.25	20.51	26.81	0.3492	-0.1428	-0.3501	
-0.951844	0.125416	0.34831	-94.01	16.31	28.77	0.3585	-0.1528	-0.3626	
-0.96502	0.084058	0.345382	-91.07	14.42	29.19	0.3496	-0.1319	-0.3555	
-0.9943	0.082716	0.341112	-83.09	12.6	26.53	0.3585	-0.1336	-0.3589	
-0.971974	0.068198	0.338428	-80.22	7.77	26.74	0.3556	-0.1193	-0.3581	
-0.96868	0.055388	0.331108	-81.2	4.97	29.68	0.3543	-0.1051	-0.3589	
-0.96014	0.039894	0.342576	-80.15	3.15	30.03	0.3496	-0.1144	-0.3533	
-0.93757	0.03721	0.361608	-73.43	0	25.27	0.3591	-0.0927	-0.3659	
-0.948062	0.059902	0.37088	-69.16	-1.54	21.7	0.3502	-0.091	-0.3625	
-0.967704	0.05978	0.356728	-73.71	-5.39	24.15	0.3489	-0.064	-0.3598	
-0.965874	0.03782	0.34465	-73.64	-7.77	28.98	0.3551	-0.058	-0.3686	
-0.938546	0.02074	0.349286	-72.52	-11.06	30.38	0.3465	-0.0598	-0.3727	
-0.917562	0.007808	0.381128	-71.33	-11.06	29.4	0.3418	-0.0548	-0.365	
-0.942694	0.034038	0.38491	-69.65	-9.66	27.79	0.3375	-0.0629	-0.3681	
-0.944402	0.061244	0.381616	-71.89	-10.64	30.38	0.3375	-0.042	-0.3628	
-0.927932	0.037332	0.391864	-79.31	-11.9	36.68	0.3394	-0.0361	-0.3714	
-0.919758	0.023424	0.40077	-81.69	-11.27	40.39	0.3422	-0.0312	-0.3698	
-0.90158	0.033794	0.40443	-86.52	-11.69	39.76	0.3528	-0.0235	-0.3758	
-0.898164	0.045262	0.421144	-90.51	-8.47	39.69	0.3453	-0.0089	-0.369	
-0.917074	0.04697	0.41053	-101.43	-4.27	40.32	0.3455	-0.0123	-0.3735	
-0.926834	0.047214	0.410408	-106.33	-5.18	43.54	0.3396	0.0067	-0.3695	
-0.910852	0.039284	0.409188	-111.72	-6.79	44.24	0.3271	0.0219	-0.3815	
-0.891576	0.002684	0.434808	-110.46	-6.37	44.03	0.334	0.0225	-0.3715	
-0.916708	-0.040382	0.426634	-108.57	-5.32	44.87	0.341	0.0356	-0.3625	
-0.91256	-0.07564	0.424926	-102.27	-5.81	43.47	0.3367	0.0484	-0.3603	
-0.920124	-0.088572	0.415288	-96.67	-3.71	41.86	0.3351	0.0501	-0.3572	
-0.930738	-0.09577	0.43737	-91.77	-4.76	37.1	0.3367	0.0627	-0.3582	
-0.913292	-0.114192	0.430782	-82.25	-6.51	32.76	0.3323	0.0787	-0.3559	
-0.91256	-0.127856	0.436394	-75.39	-6.86	29.68	0.3383	0.0738	-0.3593	
-0.906704	-0.127368	0.456036	-69.93	-7.7	26.6	0.3394	0.0791	-0.3489	
-0.896944	-0.12688	0.453596	-63.28	-9.1	24.43	0.3399	0.0961	-0.3584	
-0.894382	-0.105164	0.45018	-57.82	-9.87	21.77	0.3381	0.0964	-0.3495	
-0.88755	-0.080276	0.467748	-52.22	-10.29	20.3	0.3324	0.1186	-0.3483	
-0.86986	-0.057828	0.47153	-46.69	-9.52	19.39	0.3439	0.1077	-0.3464	
-0.87474	-0.051606	0.47946	-42.63	-6.65	19.04	0.3336	0.1045	-0.3461	
-0.884744	-0.05856	0.480436	-37.73	-4.13	18.9	0.3305	0.1127	-0.3398	
-0.886208	-0.071614	0.462014	-33.32	-2.1	17.78	0.3338	0.1091	-0.3488	
-0.892308	-0.05856	0.451034	-29.26	-1.89	15.75	0.3391	0.1225	-0.3353	
-0.893772	-0.052338	0.45506	-25.69	-1.54	14.35	0.3423	0.1174	-0.343	
-0.895846	-0.055266	0.45811	-22.4	-1.26	13.16	0.3407	0.1224	-0.3369	
-0.89121	-0.04392	0.463722	-17.99	-1.05	10.99	0.3466	0.1192	-0.3387	
-0.909266	-0.042212	0.462136	-14.42	-0.56	10.01	0.3418	0.1244	-0.3295	
-0.886574	-0.039284	0.472506	-10.85	-1.61	9.31	0.3391	0.1194	-0.334	
-0.898042	-0.012078	0.465918	-7.84	-1.89	8.12	0.3506	0.126	-0.3298	
-0.888282	-0.001952	0.467504	-4.62	-2.8	7.7	0.3419	0.1291	-0.3308	
-0.87718	0.009272	0.471408	-3.71	-2.87	7.21	0.3345	0.1211	-0.3294	
-0.880474	0.005002	0.483242	-3.92	-2.17	7.07	0.3508	0.1306	-0.334	
-0.872666	-0.002562	0.484218	-3.57	-2.24	6.93	0.3396	0.1348	-0.3436	
-0.887306	0.004636	0.48007	-2.1	-2.87	5.95	0.3465	0.1273	-0.3354	
-0.879498	0.013176	0.482876	-1.54	-2.8	5.46	0.335	0.127	-0.3393	
-0.87108	-0.003416	0.48861	-2.45	-2.8	4.34	0.335	0.1174	-0.3412	
-0.884378	-0.004758	0.48373	-2.31	-2.94	2.8	0.3424	0.1221	-0.3442	
-0.886696	0.004026	0.48312	-0.91	-2.8	2.31	0.345	0.1209	-0.3357	
-0.879986	0.00366	0.486414	-0.14	-2.59	1.4	0.3407	0.1128	-0.3387	
-0.867298	0.001464	0.485438	0.63	-2.45	-0.07	0.3337	0.1284	-0.3436	
-0.883036	0.002074	0.472872	2.1	-2.24	-1.54	0.3319	0.1208	-0.3366	
-0.886696	-0.00122	0.474214	3.78	-3.15	-2.1	0.3438	0.1222	-0.3428	
-0.874374	0.012078	0.492636	5.25	-2.66	-2.24	0.3464	0.1274	-0.3325	
-0.854976	-0.004514	0.497516	6.44	-0.84	-1.75	0.3349	0.1303	-0.3377	
-0.86986	-0.008296	0.486536	7.84	1.05	-3.01	0.3409	0.1254	-0.3411	
-0.891576	-0.005246	0.471286	9.52	0.77	-4.76	0.3423	0.1079	-0.3434	
-0.87901	-0.019032	0.478606	11.83	0.49	-6.02	0.3249	0.1156	-0.3452	
-0.876692	-0.020984	0.488976	14.49	1.19	-7.77	0.3422	0.1224	-0.3384	
-0.888038	-0.0244	0.476532	17.78	1.68	-9.31	0.3435	0.1194	-0.3342	
-0.884622	-0.022204	0.47275	21.07	0.91	-11.06	0.3406	0.1177	-0.3371	
-0.891698	-0.033306	0.48495	24.43	2.1	-12.67	0.3277	0.1189	-0.3423	
-0.884012	-0.066002	0.496906	29.19	2.73	-13.79	0.3261	0.1079	-0.3398	
-0.87657	-0.097234	0.472384	37.24	4.34	-16.45	0.3455	0.098	-0.3513	
-0.883646	-0.078324	0.46787	42.49	5.53	-20.16	0.3483	0.1189	-0.3461	
-0.889624	-0.056242	0.482632	45.92	6.02	-23.8	0.3351	0.1029	-0.3477	
-0.886086	-0.05978	0.482754	48.37	6.72	-24.22	0.3351	0.1029	-0.3477	
-0.870714	-0.08601	0.473116	55.65	7.7	-25.55	0.3252	0.0944	-0.3578	
-0.882914	-0.104798	0.449204	65.8	12.74	-29.75	0.335	0.0805	-0.3501	
-0.89792	-0.05734	0.421998	70.91	13.02	-32.48	0.3306	0.0869	-0.3482	
-0.915854	-0.000244	0.430782	67.9	13.51	-34.72	0.3378	0.0663	-0.3494	
-0.922076	0.014396	0.440542	64.82	15.47	-34.09	0.3355	0.0704	-0.3637	
-0.929762	-0.045384	0.418582	68.67	16.73	-30.03	0.3395	0.0469	-0.3576	
-0.921222	-0.069296	0.413214	79.52	15.05	-28.07	0.3487	0.0593	-0.3662	
-0.911218	-0.042944	0.400526	81.34	14.35	-29.89	0.3364	0.0519	-0.3528	
-0.940498	-0.001952	0.39162	78.47	13.16	-31.36	0.3436	0.0393	-0.3522	
-0.968924	-0.002196	0.362584	76.37	13.02	-29.4	0.3457	0.0305	-0.3702	
-0.956968	-0.010004	0.372466	83.02	11.62	-25.76	0.3496	0.0183	-0.3607	
-0.926346	0.017934	0.382592	86.24	9.24	-23.87	0.3367	0.0131	-0.3677	
-0.933178	0.02623	0.390644	84.21	6.72	-23.66	0.3467	0.0055	-0.364	
-0.942328	-0.003904	0.377956	87.08	5.6	-24.78	0.3539	-0.0038	-0.3633	
-0.973072	-0.020252	0.348188	91.84	3.43	-25.76	0.348	-0.0038	-0.3616	
-0.948916	0.026474	0.344406	97.44	-3.22	-28.49	0.3434	-0.0245	-0.3623	
-0.94184	0.084058	0.352458	97.79	-6.37	-32.27	0.3404	-0.0292	-0.3609	
-0.946476	0.094184	0.375516	91.28	-7.49	-34.44	0.338	-0.0314	-0.3726	
-0.936106	0.071736	0.367586	98.42	-6.79	-35.91	0.3506	-0.0466	-0.3621	
-0.93452	0.099918	0.362828	101.57	-7.98	-38.43	0.3478	-0.0549	-0.3681	
-0.92842	0.118828	0.371612	102.13	-8.33	-38.99	0.3554	-0.0694	-0.3764	
-0.935374	0.13359	0.368074	97.58	-10.99	-39.27	0.3477	-0.0835	-0.3708	
-0.922808	0.13176	0.376614	94.78	-10.71	-37.31	0.345	-0.0837	-0.3751	
-0.912682	0.13969	0.387716	97.02	-11.2	-35.14	0.3493	-0.0836	-0.3738	
-0.903898	0.151036	0.391132	94.22	-11.13	-33.95	0.3412	-0.0972	-0.358	
-0.918538	0.154574	0.398574	89.39	-10.57	-33.46	0.3455	-0.1052	-0.3585	
-0.909266	0.145058	0.408334	90.44	-10.85	-32.27	0.3443	-0.1199	-0.3679	
-0.895236	0.146522	0.418826	86.1	-10.01	-33.04	0.3416	-0.128	-0.3725	
-0.901336	0.147498	0.411506	84.14	-9.8	-33.11	0.3348	-0.1336	-0.3535	
-0.90158	0.14945	0.413458	78.54	-8.82	-32.9	0.3451	-0.1367	-0.3555	
-0.918294	0.151646	0.408334	73.15	-7	-31.36	0.3452	-0.1512	-0.3605	
-0.9272	0.171166	0.402112	64.96	-7.91	-27.86	0.3392	-0.1558	-0.3561	
-0.918416	0.164578	0.407846	59.5	-9.94	-23.17	0.3362	-0.1639	-0.3578	
-0.912072	0.152012	0.408212	56.84	-9.24	-18.2	0.3461	-0.1714	-0.3512	
-0.911706	0.159576	0.418948	53.9	-10.22	-16.17	0.336	-0.1733	-0.3552	
-0.9028	0.156648	0.420534	50.89	-10.36	-16.17	0.3318	-0.1735	-0.3594	
-0.922686	0.161406	0.409676	44.38	-11.34	-15.75	0.3451	-0.1831	-0.3633	
-0.911706	0.147498	0.424682	41.02	-11.13	-15.05	0.3431	-0.1857	-0.3517	
-0.911218	0.14762	0.428464	36.82	-10.29	-14.84	0.3401	-0.1825	-0.35	
-0.907558	0.155794	0.4331	33.67	-10.22	-15.75	0.3416	-0.1969	-0.3536	
-0.907802	0.152378	0.434198	30.59	-10.15	-17.71	0.3389	-0.1827	-0.3543	
-0.900848	0.138348	0.431514	29.26	-9.03	-17.57	0.3471	-0.1917	-0.3448	
-0.890844	0.136396	0.432978	27.44	-8.61	-16.45	0.3412	-0.1949	-0.3432	
-0.875106	0.132492	0.448106	26.39	-8.4	-15.75	0.3395	-0.1834	-0.3354	
-0.868396	0.134566	0.45872	24.71	-6.02	-14.98	0.346	-0.2001	-0.3539	
-0.861808	0.155062	0.472994	20.79	-3.57	-13.37	0.3353	-0.1868	-0.3397	
-0.8723	0.149938	0.467382	18.2	-1.61	-11.76	0.337	-0.2063	-0.3494	
-0.884256	0.15311	0.466528	14.77	-0.77	-9.94	0.3439	-0.2073	-0.3395	
-0.8723	0.146644	0.463844	11.48	0.49	-7.77	0.3423	-0.1961	-0.3361	
-0.88511	0.153354	0.454328	7.98	1.4	-5.11	0.3437	-0.2024	-0.3349	
-0.894992	0.151768	0.444324	4.13	1.89	-2.17	0.328	-0.2046	-0.3446	
-0.892552	0.13298	0.4514	1.33	1.26	0	0.3437	-0.1992	-0.3348	
-0.884012	0.117852	0.45811	-0.7	1.26	0.28	0.3497	-0.2169	-0.3416	
-0.884744	0.109922	0.459818	-1.05	1.68	-0.28	0.3264	-0.2059	-0.3402	
-0.890478	0.100894	0.452864	-0.91	2.45	-0.98	0.3364	-0.1961	-0.3343	
-0.898774	0.092476	0.438712	-0.56	2.94	-1.26	0.3456	-0.1997	-0.3451	
-0.911462	0.101748	0.427976	-0.77	1.82	-0.91	0.3367	-0.2012	-0.3419	
-0.909022	0.101992	0.428464	-1.19	0.63	-0.77	0.341	-0.2042	-0.3393	
-0.901092	0.096258	0.43371	-1.19	0.49	-0.98	0.3424	-0.1929	-0.3359	
-0.922076	0.099064	0.428586	-0.49	0.84	-1.68	0.342	-0.2021	-0.329	
-0.920246	0.110898	0.420412	-0.7	0.21	-2.03	0.3465	-0.199	-0.3305	
-0.921954	0.103578	0.419314	-0.91	-0.42	-2.17	0.3408	-0.1992	-0.3347	
-0.91195	0.106262	0.425902	-1.96	-1.12	-1.33	0.3496	-0.1992	-0.3365	
-0.910608	0.113338	0.423706	-3.15	-0.98	0.07	0.3381	-0.2027	-0.3405	
-0.901946	0.115656	0.429318	-4.76	-1.26	1.82	0.3494	-0.1958	-0.3305	
-0.893406	0.108092	0.435052	-6.37	-1.61	2.24	0.3391	-0.2102	-0.3321	
-0.903166	0.103578	0.43554	-7.07	-1.33	2.52	0.3349	-0.18	-0.3292	
-0.906582	0.119438	0.441884	-9.87	-1.33	3.64	0.3426	-0.1932	-0.3418	
-0.9028	0.12444	0.45018	-13.16	-1.12	5.95	0.3393	-0.1928	-0.3329	
-0.898896	0.126148	0.44835	-17.29	-0.42	7.77	0.3514	-0.1899	-0.342	
-0.893406	0.139568	0.445422	-21.42	0.42	10.01	0.3381	-0.1963	-0.3403	
-0.89609	0.141398	0.445544	-26.18	1.61	12.32	0.3411	-0.1867	-0.3385	
-0.896212	0.142008	0.446154	-30.24	2.24	14.35	0.3397	-0.1948	-0.3417	
-0.894138	0.149816	0.440298	-35.42	3.36	16.52	0.3354	-0.1933	-0.3429	
-0.88694	0.171166	0.44286	-42.28	3.71	18.69	0.3367	-0.1852	-0.3397	
-0.882304	0.172996	0.43981	-49.56	5.6	20.51	0.3402	-0.1777	-0.3498	
-0.888404	0.199104	0.430538	-59.36	8.05	20.86	0.3313	-0.1745	-0.3478	
-0.8845	0.191052	0.433954	-66.29	10.08	21.56	0.3434	-0.1716	-0.3555	
-0.887428	0.156038	0.432002	-66.64	15.26	21.56	0.3344	-0.1715	-0.3507	
-0.896578	0.119926	0.420656	-66.36	14.21	22.82	0.3419	-0.1588	-0.3519	
-0.903044	0.08113	0.407602	-65.45	15.75	25.48	0.3391	-0.151	-0.3544	
-0.917928	0.102846	0.41785	-67.2	16.17	23.8	0.3437	-0.1575	-0.3593	
-0.903044	0.133956	0.420168	-71.68	15.54	22.4	0.3351	-0.1595	-0.3648	
-0.916464	0.15006	0.408334	-75.18	14.84	21.28	0.3275	-0.1335	-0.3517	
-0.941474	0.127002	0.37332	-71.89	12.67	22.54	0.3454	-0.1354	-0.3613	
-0.946232	0.09076799	0.370636	-70.49	10.08	23.52	0.3365	-0.1273	-0.3562	
-0.948062	0.080886	0.378322	-67.9	8.61	22.61	0.3527	-0.1274	-0.3598	
-0.954894	0.083692	0.375394	-67.9	8.47	19.04	0.3559	-0.1116	-0.3622	
-0.957822	0.089792	0.36478	-66.78	6.3	16.8	0.3601	-0.1098	-0.3594	
-0.965996	0.073444	0.348554	-69.65	3.15	18.2	0.3513	-0.1051	-0.3573	
-0.945988	0.054412	0.360022	-67.62	-1.05	18.9	0.3489	-0.0993	-0.3686	
-0.940864	0.043066	0.378932	-63.7	-2.31	17.78	0.3462	-0.0835	-0.3693	
-0.951234	0.057828	0.372344	-63.35	-3.64	17.15	0.3506	-0.0914	-0.3713	
-0.93757	0.048434	0.376614	-66.43	-8.26	19.6	0.3493	-0.0708	-0.3704	
-0.93574	0.02928	0.382714	-66.78	-10.43	24.15	0.3448	-0.0739	-0.3688	
-0.927932	0.024766	0.390034	-68.81	-10.85	28.7	0.3404	-0.0675	-0.3669	
-0.929762	0.036112	0.392352	-71.96	-12.04	32.13	0.3334	-0.0648	-0.3753	
-0.934154	0.037088	0.38369	-77.49	-12.53	35.63	0.3452	-0.0616	-0.3756	
-0.926102	0.021716	0.396866	-79.1	-14.21	38.36	0.3266	-0.0302	-0.3793	
-0.927932	0.010492	0.39345	-76.09	-13.79	38.99	0.3204	-0.0282	-0.3702	
-0.931714	0.029524	0.411384	-75.74	-12.88	38.92	0.3382	-0.0236	-0.3751	
-0.922442	0.032208	0.42395	-80.01	-13.02	44.03	0.3236	-0.003	-0.3736	
-0.920124	0.00427	0.402966	-83.09	-13.72	48.93	0.331	-0.0126	-0.3758	
-0.926102	-0.002928	0.39528	-81.34	-14.35	47.67	0.331	-0.003	-0.374	
-0.901946	0.020374	0.43249	-84.28	-15.61	42.56	0.3266	0.0033	-0.372	
-0.903166	0.033916	0.451644	-89.39	-12.67	42.21	0.321	0.019	-0.3755	
-0.902312	-0.00244	0.449204	-92.61	-13.72	46.2	0.3134	0.0128	-0.3711	
-0.879986	-0.041602	0.457866	-92.4	-13.79	50.4	0.3256	0.0187	-0.3815	
-0.887672	-0.062342	0.468968	-88.34	-11.83	49.07	0.3256	0.0363	-0.3779	
-0.896456	-0.06771	0.47702	-85.96	-10.15	46.13	0.324	0.0429	-0.3731	
-0.88816	-0.0793	0.488976	-83.09	-10.29	44.73	0.315	0.0542	-0.3664	
-0.890234	-0.078812	0.482022	-77.28	-9.31	42.49	0.3168	0.0507	-0.374	
-0.876326	-0.098942	0.494344	-72.03	-7.84	38.5	0.3183	0.0826	-0.3697	
-0.879742	-0.109556	0.484584	-65.94	-5.88	34.58	0.3168	0.0748	-0.3685	
-0.87596	-0.077714	0.493612	-61.25	-6.58	31.08	0.3247	0.0725	-0.35	
-0.85522	-0.060146	0.513132	-58.73	-5.74	27.51	0.3286	0.0939	-0.3682	
-0.85522	-0.066612	0.509106	-52.08	-4.76	25.83	0.3266	0.0928	-0.3565	
-0.854976	-0.057828	0.512278	-45.15	-3.08	24.64	0.3151	0.0942	-0.3589	
-0.854366	-0.04331	0.510326	-39.34	-2.1	21.91	0.321	0.0829	-0.364	
-0.8601	-0.045384	0.504104	-33.6	-0.84	19.18	0.3279	0.09779999	-0.352	
-0.862784	-0.0366	0.50508	-29.54	0.98	16.87	0.3268	0.1055	-0.3574	
-0.861686	-0.026352	0.504592	-26.67	1.68	15.47	0.334	0.1025	-0.3549	
-0.860954	-0.00976	0.501908	-22.96	2.1	13.58	0.3266	0.1025	-0.3532	
-0.85705	0.000244	0.513864	-19.53	1.96	12.04	0.3278	0.1028	-0.3474	
-0.86498	-0.003294	0.506544	-17.99	1.89	10.71	0.3305	0.1031	-0.3416	
-0.863516	0.00854	0.516426	-16.1	2.52	9.59	0.341	0.1092	-0.3477	
-0.866688	0.014152	0.506666	-14.98	2.87	9.66	0.3354	0.1026	-0.3535	
-0.871202	0.033794	0.500688	-14.98	2.31	8.96	0.3414	0.1136	-0.3562	
-0.871446	0.030134	0.496662	-13.16	1.96	8.54	0.3388	0.1165	-0.3618	
-0.863028	0.010736	0.508862	-10.01	1.54	8.12	0.3413	0.1122	-0.3534	
-0.873642	0.013786	0.506788	-7.56	2.24	6.86	0.344	0.114	-0.349	
-0.869372	0.026108	0.505202	-6.3	1.96	5.46	0.335	0.1254	-0.3409	
-0.863516	0.027328	0.500688	-5.53	2.24	4.76	0.3362	0.1113	-0.3372	
-0.861442	0.024278	0.495076	-3.92	2.31	4.13	0.3354	0.1169	-0.3515	
-0.87901	0.023302	0.491782	-3.29	1.61	3.22	0.3424	0.1222	-0.3428	
-0.878278	0.024766	0.487146	-2.59	0.28	2.94	0.3347	0.1033	-0.3389	
-0.871446	0.027816	0.48678	-1.96	-0.63	2.87	0.3304	0.1112	-0.3384	
-0.879254	0.02562	0.488732	-1.96	-0.07	2.31	0.3405	0.1226	-0.3339	
-0.86986	0.019642	0.494344	-1.47	0.35	1.54	0.341	0.1189	-0.3443	
-0.87901	0.008784	0.490318	-0.42	0.84	0.63	0.3348	0.116	-0.3384	
-0.880108	0.013786	0.485926	0.14	-0.07	-0.7	0.345	0.1162	-0.3359	
-0.879254	0.020862	0.484706	1.19	-0.21	-1.82	0.3365	0.1222	-0.3411	
-0.879864	0.017202	0.484218	3.01	-0.42	-2.66	0.3425	0.1332	-0.3438	
-0.876936	0.019398	0.481778	5.25	-0.42	-3.5	0.3379	0.1127	-0.3415	
-0.874496	0.016348	0.485804	7.14	-0.42	-4.41	0.3334	0.1175	-0.3382	
-0.87108	0.008174	0.490684	8.75	-0.28	-5.25	0.3382	0.1123	-0.3503	
-0.878644	0.011102	0.488976	11.06	0	-6.16	0.3348	0.1144	-0.337	
-0.878888	0.012322	0.491538	12.67	0	-7.42	0.338	0.1174	-0.3428	
-0.87413	0.014396	0.491904	15.68	-0.7	-8.54	0.3277	0.1109	-0.3426	
-0.881084	0.005124	0.503494	16.8	-0.49	-10.15	0.3425	0.1157	-0.346	
-0.875594	-0.018422	0.501908	21.7	0	-11.2	0.3437	0.1063	-0.3435	
-0.872788	-0.032208	0.490684	27.44	-0.63	-13.09	0.3348	0.1176	-0.3368	
-0.879742	-0.046726	0.495198	31.78	-0.7	-16.66	0.3365	0.1046	-0.3447	
-0.870958	-0.068686	0.495808	37.52	0.84	-19.88	0.3382	0.0931	-0.3541	
-0.861564	-0.082106	0.512034	43.75	3.43	-23.52	0.3411	0.1059	-0.3507	
-0.850828	-0.072712	0.517158	52.08	5.74	-27.3	0.3354	0.0993	-0.3551	
-0.860466	-0.0549	0.497516	58.17	8.4	-30.38	0.3339	0.09299999	-0.3554	
-0.873886	-0.054046	0.485072	63.63	10.64	-33.25	0.3484	0.0869	-0.3533	
-0.893772	-0.07137	0.457378	70.77	14	-35.07	0.3277	0.07889999	-0.3499	
-0.892064	-0.06527	0.437492	77.7	12.88	-36.54	0.3268	0.0751	-0.3631	
-0.892552	-0.071492	0.432246	84.56	11.9	-36.96	0.3339	0.0769	-0.359	
-0.924516	-0.069296	0.414678	86.52	12.39	-37.87	0.3265	0.0482	-0.3613	
-0.971608	-0.044774	0.405894	86.1	11.83	-37.87	0.3411	0.0436	-0.3622	
-0.98515	-0.04453	0.376858	90.65	10.15	-36.12	0.3369	0.0353	-0.3682	
-0.95953	-0.041602	0.386862	95.9	7.98	-32.06	0.331	0.0177	-0.3701	
-0.949038	-0.030256	0.391498	99.33	4.97	-28	0.3262	0.0182	-0.3597	
-0.939644	0.014152	0.385276	98.42	-0.14	-27.58	0.3411	0.0035	-0.3712	
-0.948306	0.050996	0.369782	91	-6.16	-30.24	0.325	-0.0045	-0.3708	
-0.947818	0.01769	0.38003	91.7	-11.06	-30.38	0.3368	-0.0109	-0.376	
-0.930738	0.05795	0.377346	95.06	-11.9	-34.37	0.3338	-0.0268	-0.3766	
-0.934154	0.0793	0.394304	91.21	-12.04	-35.56	0.328	-0.0398	-0.3812	
-0.929274	0.08052	0.38491	100.94	-12.67	-36.89	0.3267	-0.0432	-0.3857	
-0.943914	0.06588	0.39223	104.86	-11.83	-38.78	0.334	-0.0462	-0.3847	
-0.91378	0.09394	0.39284	112.42	-14.42	-40.74	0.3353	-0.0636	-0.384	
-0.912682	0.122	0.39894	112.21	-18.34	-44.94	0.3206	-0.0669	-0.3836	
-0.903898	0.114192	0.40504	117.74	-18.76	-46.97	0.322	-0.09079999	-0.3861	
-0.88389	0.136762	0.41175	115.92	-19.6	-51.45	0.3303	-0.0887	-0.3762	
-0.887306	0.161284	0.42151	116.48	-22.12	-54.6	0.3229	-0.095	-0.3732	
-0.894382	0.155428	0.438224	117.67	-18.62	-56.35	0.3143	-0.1145	-0.3824	
-0.866078	0.172508	0.45506	116.48	-17.71	-57.82	0.3275	-0.1256	-0.3849	
-0.872544	0.200812	0.463356	111.58	-14.07	-58.66	0.3243	-0.1493	-0.3829	
-0.86437	0.22936	0.47397	106.19	-12.6	-59.01	0.312	-0.1423	-0.3675	
-0.861808	0.229238	0.467016	99.68	-8.82	-56.14	0.3252	-0.1487	-0.3698	
-0.890356	0.242048	0.461892	91.42	-6.58	-51.66	0.3164	-0.1631	-0.3715	
-0.887916	0.246318	0.4697	85.61	-3.5	-42.7	0.3217	-0.1625	-0.36	
-0.891576	0.24705	0.458964	76.93	-5.67	-36.75	0.3207	-0.1662	-0.3703	
-0.879498	0.238876	0.45079	66.5	-7.49	-30.31	0.3273	-0.1829	-0.3567	
-0.880474	0.238266	0.45567	58.66	-8.75	-26.39	0.3201	-0.1864	-0.361	
-0.872056	0.230824	0.457378	53.69	-7.14	-23.8	0.3196	-0.1891	-0.3508	
-0.856562	0.227042	0.472994	45.29	-6.37	-22.54	0.3269	-0.1985	-0.3515	
-0.850828	0.194224	0.483364	39.06	-3.57	-20.44	0.3343	-0.1938	-0.3531	
-0.860832	0.194346	0.478484	33.95	-3.01	-18.69	0.3166	-0.1938	-0.3494	
-0.876448	0.196054	0.48434	28	0.07	-18.2	0.3283	-0.2097	-0.3521	
-0.87352	0.172752	0.477996	23.66	2.66	-16.94	0.3266	-0.203	-0.3444	
-0.86742	0.157136	0.477752	18.69	3.92	-16.38	0.3253	-0.2016	-0.3487	
-0.86925	0.14579	0.473848	15.89	5.67	-14.28	0.3278	-0.2124	-0.342	
-0.867908	0.143594	0.468724	10.57	7.42	-11.27	0.3385	-0.2079	-0.351	
-0.867176	0.115778	0.4697	9.38	6.16	-8.82	0.3311	-0.1935	-0.3471	
-0.883646	0.120048	0.46665	6.02	5.6	-9.1	0.3454	-0.2091	-0.3426	
-0.87901	0.113216	0.473726	5.25	5.53	-9.52	0.3324	-0.2045	-0.3433	
-0.902068	0.108824	0.46299	4.76	5.81	-9.17	0.334	-0.1966	-0.3459	
-0.900238	0.112728	0.456524	3.78	5.18	-7.91	0.3385	-0.2031	-0.3493	
-0.887672	0.098698	0.454572	2.52	3.71	-6.02	0.3408	-0.204	-0.3349	
-0.882548	0.089426	0.446764	2.03	2.8	-4.55	0.3454	-0.2026	-0.3394	
-0.8967	0.093086	0.438468	2.38	2.66	-4.41	0.3422	-0.2087	-0.3351	
-0.910486	0.097966	0.435296	2.24	1.89	-3.64	0.3541	-0.196	-0.3365	
-0.917928	0.10797	0.426268	0.49	0.7	-2.73	0.3383	-0.2126	-0.3483	
-0.90951	0.122244	0.437004	-1.4	0.42	-1.47	0.3408	-0.1976	-0.3346	
-0.905118	0.108824	0.430294	-2.17	0.91	-0.7	0.3433	-0.2035	-0.3247	
-0.912682	0.100528	0.425292	-2.66	1.12	-0.14	0.3365	-0.2106	-0.3393	
-0.907558	0.090402	0.424438	-4.06	1.05	0.49	0.3512	-0.2105	-0.3414	
-0.903898	0.095404	0.424804	-4.48	0.84	1.54	0.3425	-0.2011	-0.3406	
-0.902678	0.103334	0.431514	-4.97	0.91	2.24	0.3557	-0.201	-0.3412	
-0.90707	0.12017	0.430172	-5.6	1.26	2.59	0.345	-0.1973	-0.3289	
-0.91866	0.12566	0.426756	-7.35	0.98	3.78	0.3437	-0.2088	-0.3367	
-0.91134	0.125782	0.42761	-9.73	0.28	5.18	0.3452	-0.1912	-0.333	
-0.907558	0.127124	0.437736	-12.53	0.42	6.86	0.3452	-0.2056	-0.3366	
-0.90036	0.134688	0.441762	-16.1	0.98	8.47	0.3453	-0.2057	-0.3395	
-0.896578	0.154696	0.439566	-21.56	1.61	10.43	0.3319	-0.2008	-0.3329	
-0.912072	0.149206	0.434808	-25.2	2.1	13.44	0.3438	-0.1961	-0.3361	
-0.895602	0.155184	0.43127	-30.66	2.1	15.4	0.3425	-0.2027	-0.3407	
-0.88145	0.182756	0.445788	-36.68	3.36	16.52	0.3381	-0.2011	-0.3405	
-0.86803	0.198616	0.449326	-43.05	6.44	17.78	0.334	-0.2031	-0.3477	
-0.884012	0.180682	0.441518	-49.56	9.73	18.97	0.3487	-0.1918	-0.3464	
-0.87352	0.169458	0.435784	-55.72	11.76	20.09	0.3394	-0.1881	-0.3341	
-0.87901	0.164944	0.44652	-63.91	16.87	21.28	0.3421	-0.1686	-0.3582	
-0.902556	0.190808	0.420534	-71.75	19.18	22.82	0.3446	-0.1585	-0.3462	
-0.924638	0.210084	0.36295	-84.07	17.57	23.66	0.3431	-0.1553	-0.346	
-0.917684	0.179706	0.362218	-90.86	12.88	26.6	0.3492	-0.1571	-0.3522	
-0.93879	0.128832	0.368684	-88.62	12.18	29.12	0.3394	-0.1433	-0.3585	
-0.961482	0.141642	0.365024	-91.14	11.97	30.03	0.3496	-0.1288	-0.3568	
-0.97783	0.171898	0.3538	-97.86	10.71	31.99	0.3495	-0.1415	-0.3559	
-0.978562	0.148108	0.33428	-101.92	7.84	36.19	0.3426	-0.1052	-0.3584	
-0.958066	0.090646	0.343186	-103.6	3.22	39.27	0.3462	-0.1027	-0.3731	
-0.969046	0.05307	0.344528	-101.71	2.31	39.97	0.3413	-0.0942	-0.3608	
-0.979904	0.044042	0.328424	-99.05	0.21	43.96	0.3386	-0.0944	-0.3651	
-0.978684	0.049288	0.340624	-95.83	-1.75	48.02	0.3523	-0.0741	-0.3735	
-0.966362	0.046238	0.347944	-92.4	-5.74	47.39	0.3523	-0.0725	-0.3735	
-0.952576	0.035624	0.351116	-95.48	-9.31	45.85	0.3401	-0.0785	-0.363	
-0.95038	0.017812	0.360998	-94.15	-10.08	45.85	0.3379	-0.0633	-0.3768	
-0.942328	0.022326	0.379542	-90.58	-10.5	45.22	0.3276	-0.0441	-0.3727	
-0.946476	0.013664	0.39528	-88.62	-13.86	44.52	0.329	-0.0424	-0.3697	
-0.91378	0.005124	0.409798	-86.8	-16.94	44.52	0.3274	-0.0294	-0.3633	
-0.890356	0.011712	0.4209	-84.21	-14.77	42.49	0.3239	-0.0241	-0.3848	
-0.909022	0.015128	0.440542	-80.78	-10.57	39.34	0.3269	-0.0258	-0.3864	
-0.90585	0.001342	0.442738	-76.93	-10.01	36.61	0.3336	-0.0123	-0.3701	
-0.899872	0.000488	0.446276	-72.1	-11.27	34.72	0.3295	0.0017	-0.3737	
-0.880474	0.016714	0.439932	-71.96	-10.22	32.55	0.3336	-0.0058	-0.3669	
-0.890478	0.031232	0.470432	-73.08	-8.75	30.45	0.3239	0.003	-0.3792	
-0.892064	0.019032	0.460428	-69.65	-10.01	31.22	0.3269	0.0141	-0.3789	
-0.88023	0.016958	0.463722	-74.97	-9.31	32.48	0.3223	0.0319	-0.3706	
-0.890844	0.014396	0.465674	-74.55	-8.26	32.97	0.3256	0.0283	-0.3797	
-0.887916	0.006466	0.469578	-75.04	-8.75	33.32	0.3238	0.0271	-0.3724	
-0.858514	0.002806	0.48434	-76.86	-8.4	36.12	0.3152	0.0348	-0.3746	
-0.865224	-0.009638	0.48007	-73.36	-6.3	37.66	0.3227	0.0459	-0.3759	
-0.880596	-0.035868	0.488366	-72.45	-6.09	36.96	0.3254	0.0558	-0.3683	
-0.879986	-0.044286	0.483364	-69.3	-5.18	35.28	0.3271	0.0636	-0.3724	
-0.881938	-0.053314	0.503616	-66.85	-4.41	32.69	0.3181	0.0509	-0.3711	
-0.880596	-0.066612	0.49898	-66.22	-4.69	30.59	0.3269	0.0718	-0.3662	
-0.873276	-0.074786	0.51179	-62.3	-4.34	28.42	0.33	0.0796	-0.3689	
-0.853512	-0.091256	0.518988	-57.54	-2.66	27.3	0.324	0.0781	-0.3658	
-0.874374	-0.083082	0.502884	-53.2	-0.77	25.41	0.3269	0.0894	-0.3625	
-0.882304	-0.063074	0.510326	-47.88	-0.77	23.17	0.3284	0.0989	-0.3622	
-0.863272	-0.04941	0.506422	-39.97	-1.61	21.49	0.327	0.0957	-0.3637	
-0.858148	-0.063318	0.507154	-33.32	-1.33	20.3	0.3265	0.1042	-0.3516	
-0.841556	-0.060268	0.517646	-24.99	-0.21	17.08	0.3367	0.1171	-0.3486	
-0.844362	-0.069052	0.528992	-22.61	-0.14	15.54	0.3367	0.1171	-0.3486	
-0.837164	-0.05429	0.538264	-15.61	0	12.67	0.3295	0.1169	-0.3512	
-0.834846	-0.045018	0.544486	-6.72	0.98	8.68	0.331	0.1041	-0.3548	
-0.845094	-0.037088	0.536312	-3.5	2.94	6.93	0.341	0.1013	-0.348	
-0.86925	-0.012688	0.508618	-0.63	3.5	4.97	0.3191	0.1026	-0.3499	
-0.864736	0.011712	0.496052	0.14	3.92	3.78	0.3391	0.1097	-0.3373	
-0.860954	0.023424	0.501298	-0.28	5.18	3.01	0.3353	0.1154	-0.3501	
-0.870226	0.0244	0.491294	1.19	5.46	3.08	0.3438	0.1078	-0.3449	
-0.88389	0.033062	0.477996	3.15	4.2	2.45	0.3383	0.1074	-0.3535	
-0.885232	0.033794	0.480802	3.64	3.22	2.24	0.3413	0.1137	-0.3533	
-0.882304	0.035136	0.48312	4.62	2.73	2.52	0.3381	0.1092	-0.3475	
-0.882182	0.03843	0.477752	4.62	2.24	2.24	0.3325	0.1057	-0.3533	
-0.886818	0.051728	0.474336	3.99	1.33	1.33	0.3427	0.1138	-0.3519	
-0.88877	0.05246	0.477264	3.92	0.35	1.47	0.3307	0.1044	-0.3474	
-0.881694	0.04758	0.485316	4.13	0	2.38	0.3364	0.0983	-0.3436	
-0.876692	0.041846	0.48373	6.3	0.14	1.89	0.3295	0.1041	-0.3532	
-0.898896	0.03782	0.469212	7.56	0.21	0.07	0.3295	0.09779999	-0.3535	
-0.89121	0.040382	0.469212	8.96	-1.54	-1.68	0.3349	0.0983	-0.3435	
-0.877302	0.041724	0.490318	9.8	-1.4	-2.52	0.3409	0.1126	-0.3446	
-0.87596	0.03294	0.499834	11.41	-0.21	-3.5	0.3351	0.1029	-0.3477	
-0.879986	0.023912	0.482754	14.28	-0.35	-6.02	0.3351	0.0948	-0.3495	
-0.883524	0.022814	0.47397	17.78	-1.26	-9.03	0.3415	0.0816	-0.3635	
-0.88206	0.011224	0.481168	21.49	-1.19	-11.69	0.3335	0.0854	-0.3469	
-0.889136	-0.008417999	0.48678	25.9	-1.05	-14.14	0.3313	0.09739999	-0.3609	
-0.875716	-0.019886	0.50447	32.27	-1.19	-17.36	0.335	0.0821	-0.35	
-0.868396	-0.024034	0.492148	38.22	-0.91	-20.86	0.3296	0.088	-0.3583	
-0.866078	-0.01647	0.489586	42.56	1.47	-22.96	0.3222	0.0816	-0.3583	
-0.891698	-0.018178	0.462258	47.67	2.94	-23.94	0.3355	0.0817	-0.3603	
-0.906704	0.008052	0.464576	48.58	2.31	-26.11	0.3443	0.0705	-0.3641	
-0.885842	0.016836	0.47946	47.25	1.89	-30.03	0.3354	0.0738	-0.3592	
-0.895724	-0.021106	0.45689	50.89	3.92	-33.25	0.3228	0.0698	-0.3734	
-0.912926	-0.047214	0.457988	55.65	4.13	-33.67	0.3312	0.059	-0.3684	
-0.921954	-0.050996	0.416508	59.92	3.01	-33.39	0.3195	0.0622	-0.3663	
-0.937692	0.000366	0.415776	63.77	0.91	-33.81	0.331	0.0577	-0.3626	
-0.92476	0.047946	0.432612	62.72	-0.91	-33.6	0.3276	0.0406	-0.3544	
-0.900238	0.057706	0.463844	55.79	-1.82	-33.74	0.3329	0.0396	-0.3766	
-0.872788	0.019032	0.482022	55.3	-1.82	-33.11	0.3308	0.0323	-0.3637	
-0.8784	0.00183	0.471774	57.68	-0.98	-31.29	0.3108	0.038	-0.3728	
-0.882426	0.023424	0.472628	53.83	0.28	-28.7	0.3297	0.0351	-0.3708	
-0.901214	0.045628	0.456402	47.67	0.28	-24.5	0.3284	0.0254	-0.3755	
-0.899506	0.072224	0.460184	45.64	0	-20.93	0.3244	0.0249	-0.3856	
-0.897432	0.079788	0.468358	44.1	0.56	-18.34	0.3166	0.0158	-0.3754	
-0.888526	0.06466	0.456036	43.89	-1.12	-18.55	0.3215	0.0168	-0.3873	
-0.877912	0.051972	0.450302	44.45	-3.64	-19.04	0.3195	-0.0066	-0.3809	
-0.89121	0.0732	0.463356	41.3	-4.34	-19.39	0.3253	-0.0096	-0.3784	
-0.89487	0.10309	0.476166	38.5	-4.9	-17.71	0.3299	-0.0066	-0.3843	
-0.878156	0.100162	0.479704	36.05	-5.32	-13.86	0.3124	-0.0052	-0.3835	
-0.8723	0.085522	0.491172	36.12	-4.48	-10.92	0.3166	-0.0098	-0.3809	
-0.861198	0.090646	0.488244	34.79	-3.99	-9.73	0.3137	-0.0194	-0.3841	
-0.884866	0.089792	0.482266	28.21	-0.56	-8.33	0.3267	-0.0271	-0.3806	
-0.880962	0.092354	0.492392	27.3	-1.12	-7.77	0.3138	-0.0196	-0.3871	
-0.873398	0.080764	0.476288	27.02	-1.47	-5.53	0.3093	-0.0227	-0.3841	
-0.887794	0.095282	0.429562	26.25	-2.66	-5.46	0.3223	-0.0367	-0.3823	
-0.888282	0.12871	0.460184	17.08	-3.71	-7.28	0.322	-0.038	-0.3765	
-0.864614	0.122366	0.504714	14.14	-6.02	-4.2	0.3182	-0.0355	-0.3894	
-0.854122	0.107238	0.50874	12.95	-5.04	0.42	0.3179	-0.0272	-0.3817	
-0.88755	0.135664	0.477508	7.14	-3.92	-0.14	0.3224	-0.0384	-0.3853	
-0.883646	0.136884	0.488732	2.31	-5.46	-0.7	0.312	-0.0416	-0.3836	
-0.865956	0.109556	0.497394	1.33	-8.82	3.99	0.3139	-0.034	-0.3906	
-0.848266	0.140056	0.512766	-0.56	-9.17	5.46	0.3184	-0.0469	-0.3957	
-0.863638	0.164578	0.519842	-6.86	-7.63	4.76	0.3123	-0.0387	-0.3878	
-0.858758	0.157014	0.525942	-10.43	-6.79	5.53	0.3155	-0.0406	-0.3953	
-0.844606	0.130052	0.535458	-10.15	-5.39	8.05	0.3066	-0.0261	-0.39	
-0.834358	0.113826	0.543022	-5.95	-2.66	10.29	0.3124	-0.0308	-0.3904	
-0.84607	0.107482	0.54717	-3.85	0.07	10.15	0.3026	-0.033	-0.4003	
-0.849486	0.106506	0.541558	-2.24	1.61	8.54	0.3228	-0.0373	-0.394	
-0.84729	0.09162199	0.531432	-1.61	2.8	6.09	0.3141	-0.0439	-0.3983	
-0.845338	0.081618	0.523136	-1.54	3.71	3.99	0.3109	-0.0452	-0.3924	
-0.85095	0.081862	0.520818	-0.63	3.64	2.38	0.3157	-0.036	-0.3995	
-0.859124	0.09211	0.516304	0	3.29	0.49	0.3093	-0.0499	-0.3896	
-0.857416	0.094794	0.507276	0.42	3.15	-0.98	0.3035	-0.0451	-0.3892	
-0.85461	0.09942999	0.505446	1.33	4.41	-2.03	0.3093	-0.037	-0.3862	
-0.856562	0.089548	0.506788	1.75	4.76	-1.47	0.3169	-0.0277	-0.3919	
-0.860344	0.09076799	0.505446	1.54	5.32	-1.75	0.3107	-0.0369	-0.3848	
-0.848998	0.088938	0.50752	1.47	6.65	-2.31	0.311	-0.0421	-0.3938	
-0.865102	0.080276	0.502884	-0.42	8.47	-3.01	0.317	-0.0486	-0.3972	
-0.864126	0.086376	0.488366	0	10.22	-3.29	0.3151	-0.0354	-0.3863	
-0.872544	0.090036	0.481046	-1.75	12.25	-3.36	0.3152	-0.0387	-0.3894	
-0.878888	0.08845	0.462868	-3.5	13.65	-2.8	0.3301	-0.0436	-0.3961	
-0.887794	0.070028	0.45872	-4.13	14.07	-1.89	0.3252	-0.0399	-0.3841	
-0.89182	0.061122	0.457744	-3.15	13.3	-1.68	0.3253	-0.0416	-0.3856	
-0.902068	0.05917	0.451888	-2.52	11.97	-1.82	0.3206	-0.0349	-0.3763	
-0.90097	0.066002	0.449326	-2.38	10.5	-2.03	0.3281	-0.0287	-0.3808	
-0.90646	0.073322	0.443714	-3.36	9.8	-1.75	0.331	-0.0382	-0.3828	
-0.910486	0.073932	0.44042	-3.36	8.75	-1.68	0.3384	-0.0382	-0.3831	
-0.901824	0.073322	0.444568	-2.52	7.84	-1.96	0.3314	-0.0306	-0.3883	
-0.900116	0.078202	0.445422	-2.1	7.35	-2.94	0.3279	-0.0285	-0.3764	
-0.907436	0.091866	0.438102	-2.52	7.14	-4.2	0.3323	-0.0252	-0.375	
-0.90707	0.08686399	0.43859	-3.43	7.14	-4.48	0.3339	-0.0157	-0.3761	
-0.90585	0.073566	0.43615	-2.59	6.79	-4.27	0.3349	-0.036	-0.3697	
-0.904142	0.065636	0.429196	-2.03	5.53	-4.34	0.3293	-0.038	-0.3768	
-0.910974	0.068686	0.427244	-2.03	4.06	-4.41	0.3249	-0.03	-0.3749	
-0.907924	0.0671	0.425536	-1.75	3.22	-4.34	0.341	-0.0266	-0.3739	
-0.912316	0.060512	0.430172	-0.77	2.1	-3.64	0.3411	-0.0347	-0.3772	
-0.91805	0.058316	0.432124	0.14	1.12	-3.15	0.3369	-0.027	-0.3811	
-0.91622	0.060634	0.43493	0.7	0.7	-2.8	0.3355	-0.0254	-0.3809	
-0.916952	0.061488	0.430904	0.42	0	-2.45	0.3421	-0.0279	-0.3667	
-0.910364	0.055754	0.432856	1.4	-0.21	-1.47	0.3307	-0.0235	-0.3719	
-0.908656	0.054778	0.4331	1.68	0	-0.7	0.3323	-0.038	-0.3784	
-0.909754	0.059536	0.426268	1.05	-0.07	-0.63	0.3528	-0.0346	-0.3777	
-0.915976	0.054412	0.426146	0.35	-0.14	-1.05	0.3379	-0.0281	-0.371	
-0.91073	0.05063	0.43066	-0.56	-0.21	-1.96	0.3379	-0.0216	-0.3678	
-0.905606	0.04941	0.43737	-0.49	-1.05	-2.66	0.3363	-0.0216	-0.3662	
-0.909388	0.043798	0.43554	-0.42	-1.61	-2.66	0.3326	-0.0239	-0.3822	
-0.908412	0.039162	0.437492	0.42	-1.89	-2.17	0.3249	-0.0299	-0.3734	
-0.908412	0.036966	0.437248	0.49	-1.82	-1.75	0.3307	-0.0282	-0.3721	
-0.906582	0.035624	0.440298	1.54	-2.31	-1.26	0.3473	-0.0303	-0.3846	
-0.900848	0.037698	0.443592	0.84	-2.24	-0.77	0.331	-0.0174	-0.3775	
-0.898164	0.043066	0.446886	0.7	-1.12	-0.84	0.3413	-0.0253	-0.3797	
-0.899506	0.050752	0.446154	0.14	-0.49	-0.77	0.3381	-0.0203	-0.3735	
-0.896944	0.04941	0.446276	-0.28	0.42	-0.49	0.328	-0.0269	-0.3778	
-0.895968	0.050996	0.44469	0	1.05	-0.42	0.3367	-0.0332	-0.377	
-0.901946	0.050996	0.441152	-0.63	1.68	-0.14	0.3367	-0.0252	-0.3766	
-0.901702	0.051484	0.442372	-0.42	1.61	0.21	0.3397	-0.0173	-0.3764	
-0.900238	0.052948	0.43981	-0.28	1.19	0.28	0.3455	-0.0251	-0.3755	
-0.903898	0.048678	0.439078	-0.7	1.19	0.63	0.3391	-0.0246	-0.3636	
-0.905362	0.052948	0.43493	-1.19	1.12	0.84	0.3423	-0.0265	-0.3711	
-0.911706	0.051362	0.432124	-1.96	1.26	1.12	0.3368	-0.0316	-0.3784	
-0.913902	0.052704	0.432856	-1.33	0.91	1.4	0.3338	-0.0205	-0.3763	
-0.90646	0.056608	0.438956	-1.47	0.49	1.54	0.3426	-0.0315	-0.3771	
-0.91012	0.05551	0.436638	-0.49	-0.07	1.61	0.3382	-0.03	-0.3769	
-0.904752	0.059536	0.43493	0.21	-0.28	1.47	0.3413	-0.0173	-0.3779	
-0.908778	0.059536	0.43188	-0.28	0.28	1.47	0.3413	-0.0222	-0.3796	
-0.907314	0.064172	0.432002	-0.49	0.28	1.05	0.3338	-0.0204	-0.3748	
-0.914756	0.064538	0.424926	-0.84	0.07	0.84	0.3351	-0.0186	-0.3704	
-0.912682	0.060634	0.42761	0	-0.35	0.77	0.3411	-0.0251	-0.3753	
-0.910486	0.063562	0.431636	-0.28	-0.56	0.42	0.3407	-0.0311	-0.3668	
-0.909998	0.058926	0.43615	-0.14	-0.63	0.14	0.3413	-0.0333	-0.3815	
-0.908412	0.060634	0.432734	0	-0.91	-0.28	0.3384	-0.0206	-0.3794	
-0.908656	0.06283	0.434808	0.14	-0.7	-0.21	0.3366	-0.025	-0.3722	
-0.908168	0.059658	0.437004	0.77	-0.56	0.28	0.3469	-0.0251	-0.3756	
-0.90402	0.05917	0.437248	1.4	-0.56	0.35	0.3412	-0.0221	-0.3781	
-0.9028	0.061244	0.43615	1.33	-0.42	0.14	0.3498	-0.0218	-0.3741	
-0.902922	0.065636	0.436638	0.56	-0.35	-0.35	0.3336	-0.025	-0.3721	
-0.904752	0.063928	0.436516	0.07	-0.07	-0.42	0.3321	-0.0202	-0.3704	
-0.90768	0.061	0.436516	0.07	0	-0.42	0.3424	-0.0329	-0.3728	
-0.91195	0.060146	0.43615	0.49	-0.28	-0.42	0.3454	-0.0203	-0.3739	
-0.90951	0.05795	0.435296	0	-0.49	-0.35	0.3408	-0.0216	-0.3679	
-0.905728	0.056974	0.436028	0.21	-0.42	-0.07	0.3322	-0.0235	-0.3734	
-0.90585	0.059048	0.438468	-0.49	-0.49	0.07	0.3381	-0.0331	-0.3756	
-0.904264	0.062708	0.43371	-0.42	-0.7	0	0.3427	-0.0253	-0.3783	
-0.907558	0.058438	0.43859	-0.98	-0.7	0	0.3399	-0.0206	-0.3809	
-0.903044	0.056364	0.439322	-0.14	-0.77	0	0.3377	-0.0215	-0.3648	
-0.902678	0.058804	0.440664	0.21	-0.77	0	0.3441	-0.0284	-0.3785	
-0.904874	0.062708	0.436638	-0.63	-0.21	-0.28	0.3396	-0.0235	-0.3752	
-0.906338	0.055266	0.437248	-0.77	0.07	-0.14	0.3428	-0.0206	-0.3796	
-0.903166	0.053802	0.439078	-0.42	0.14	-0.42	0.3411	-0.0188	-0.3751	
-0.906338	0.048678	0.4392	-0.21	0.21	-0.77	0.3366	-0.0251	-0.3737	
-0.906216	0.053802	0.43615	0.35	-0.14	-1.12	0.3324	-0.0221	-0.3763	
-0.907192	0.053192	0.436516	0.28	-0.49	-1.12	0.3291	-0.0249	-0.369	
-0.906216	0.05185	0.43859	0.84	-0.77	-0.98	0.3411	-0.0219	-0.3752	
-0.904752	0.054168	0.436516	0.63	-1.26	-1.19	0.3406	-0.0294	-0.3653	
-0.904264	0.055144	0.438956	0.28	-1.05	-0.98	0.338	-0.0266	-0.3724	
-0.905118	0.054778	0.439322	-0.42	-0.91	-0.7	0.3381	-0.0219	-0.3736	
-0.90219	0.055998	0.439688	0.07	-0.98	-0.42	0.3353	-0.0173	-0.3762	
-0.902678	0.051362	0.441152	-0.28	-0.7	-0.35	0.3499	-0.0379	-0.3792	
-0.904874	0.052948	0.442982	0.42	-0.84	-0.63	0.3367	-0.0236	-0.3751	
-0.902922	0.054656	0.440298	-0.21	-0.91	-0.63	0.3347	-0.0182	-0.3616	
-0.905484	0.051606	0.43798	-0.35	-0.91	-0.56	0.3365	-0.0282	-0.3724	
-0.904508	0.051606	0.440176	-0.21	-0.98	-0.49	0.3349	-0.0232	-0.3662	
-0.901458	0.054168	0.44225	-0.28	-1.05	-0.56	0.3425	-0.0139	-0.372	
-0.904508	0.049898	0.441518	0.14	-1.4	-0.42	0.3266	-0.019	-0.3774	
-0.899872	0.0488	0.44286	0.56	-1.54	-0.35	0.3387	-0.0114	-0.3863	
-0.901214	0.05307	0.442738	0.7	-1.54	-0.42	0.3309	-0.0269	-0.3764	
-0.903532	0.052826	0.444202	0.77	-1.61	-0.28	0.3469	-0.0251	-0.3756	
-0.901214	0.058682	0.439444	0.56	-1.82	-0.35	0.3353	-0.0173	-0.3762	
-0.903044	0.052704	0.443714	0.42	-1.82	-0.21	0.3356	-0.007999999	-0.3802	
-0.905362	0.047458	0.446886	0.7	-2.03	-0.28	0.335	-0.0153	-0.3674	
-0.90341	0.048312	0.44835	1.12	-1.89	-0.7	0.3455	-0.0156	-0.3751	
-0.899384	0.053924	0.448228	1.05	-1.54	-1.26	0.3296	-0.0142	-0.3773	
-0.900848	0.053924	0.445666	0.49	-1.47	-1.12	0.3382	-0.0268	-0.3767	
-0.898164	0.051972	0.445544	0.7	-1.33	-0.77	0.3336	-0.0266	-0.3722	
-0.900482	0.049898	0.445544	0.77	-1.33	-0.42	0.3367	-0.0187	-0.3734	
-0.899628	0.05429	0.445056	0.63	-1.54	-0.56	0.3222	-0.0255	-0.3789	
-0.90158	0.056974	0.447008	0.07	-1.75	-0.56	0.3337	-0.0284	-0.3752	
-0.900482	0.053558	0.450912	0.42	-2.17	-0.28	0.3264	-0.0221	-0.3746	
-0.898042	0.049044	0.449692	0.84	-1.96	-0.28	0.3327	-0.0256	-0.3838	
-0.899994	0.050264	0.449448	0.91	-2.03	-0.56	0.3296	-0.0206	-0.379	
-0.898164	0.052338	0.45079	1.26	-2.17	-0.63	0.3325	-0.0238	-0.3793	
-0.894504	0.051118	0.453596	1.19	-2.17	-0.35	0.3343	-0.0162	-0.3863	
-0.892674	0.047458	0.45506	1.33	-2.03	-0.07	0.3263	-0.0219	-0.3717	
-0.894992	0.049532	0.45079	0.98	-1.61	0	0.3326	-0.0271	-0.3824	
-0.89731	0.055754	0.452254	-0.21	-1.33	-0.14	0.3283	-0.0256	-0.3836	
-0.896334	0.050508	0.454084	0.49	-1.26	0.42	0.3372	-0.0193	-0.3866	
-0.898652	0.050508	0.453474	0.21	-0.91	0.56	0.3326	-0.0399	-0.3844	
-0.898286	0.055754	0.451156	0.35	-1.05	0.49	0.3324	-0.0189	-0.3762	
-0.900238	0.051972	0.4514	0	-0.7	0.77	0.3236	-0.0222	-0.3774	
-0.898164	0.048678	0.450668	-0.07	-0.63	0.98	0.3268	-0.0224	-0.3819	
-0.895114	0.051484	0.4514	0	-0.35	0.84	0.3268	-0.0112	-0.38	
-0.900116	0.049654	0.451156	-0.21	-0.49	0.84	0.3225	-0.0241	-0.3847	
-0.89792	0.051484	0.451034	0	-0.56	0.63	0.3252	-0.0223	-0.3789	