Sensor string: B
Serial number: 1970-01-0000
Firmware version: 2,015
Hardware version: 2,2
Calibration quality: 5
ax	ay	az	gx	gy	gz	mx	my	mz

0.217038	-0.774334	0.572302	-0.42	0.7	-0.42	-0.2336	0.2018	-0.4747	Reference
0.218746	-0.772626	0.572424	-0.7	0.42	-0.63	-0.2224	0.1972	-0.476	
0.220454	-0.776896	0.574864	-1.12	0.21	-0.77	-0.2266	0.1956	-0.4746	
0.222894	-0.775798	0.573644	-1.12	0.21	-0.77	-0.2281	0.1925	-0.4777	
0.222894	-0.779946	0.57401	-1.4	0.07	-0.63	-0.2294	0.194	-0.4762	
0.220576	-0.781288	0.572668	-1.4	0.07	-0.42	-0.2293	0.1956	-0.4715	
0.2196	-0.783606	0.569862	-1.75	-0.14	-0.14	-0.2264	0.2019	-0.4652	
0.217282	-0.785924	0.568154	-1.75	-0.14	0.21	-0.2335	0.2065	-0.4684	
0.217038	-0.78385	0.564494	-1.4	-0.14	0.28	-0.2295	0.1971	-0.4808	
0.22082	-0.779702	0.560346	-1.12	-0.28	0.28	-0.2349	0.1956	-0.4701	
0.218868	-0.783484	0.561566	-0.91	-0.63	0.28	-0.2309	0.1925	-0.4793	
0.221918	-0.782752	0.560834	-0.35	-0.84	0.21	-0.2337	0.2018	-0.4793	
0.222162	-0.784582	0.563518	0.07	-0.84	-0.14	-0.2293	0.2034	-0.473	
0.221918	-0.782386	0.566812	0.42	-0.84	-0.07	-0.2352	0.1846	-0.4841	
0.224114	-0.78202	0.570228	0.42	-0.77	0.14	-0.2294	0.1987	-0.4731	
0.22082	-0.77592	0.573278	0.28	-0.77	0.42	-0.235	0.194	-0.4716	
0.229238	-0.773968	0.570472	0	-0.42	0.63	-0.2251	0.1988	-0.4699	
0.232044	-0.776042	0.57157	-0.42	-0.42	0.28	-0.2252	0.1925	-0.4746	
0.223748	-0.783362	0.571326	-0.14	-0.21	-0.07	-0.2308	0.1956	-0.4731	
0.219966	-0.777018	0.571326	-0.21	0	-0.14	-0.221	0.1956	-0.4791	
0.222894	-0.77775	0.56791	-0.42	0.07	0	-0.2282	0.1893	-0.4824	
0.223016	-0.776286	0.566934	-0.21	-0.07	0	-0.235	0.2002	-0.4747	
0.226798	-0.778604	0.569618	-0.07	0	-0.14	-0.235	0.1925	-0.4701	
0.224602	-0.77958	0.571448	-0.07	0.21	-0.35	-0.238	0.2017	-0.4825	
0.222162	-0.77958	0.568642	0.07	0.21	-0.63	-0.2252	0.1925	-0.473	
0.22021	-0.782264	0.566324	-0.14	-0.07	-0.7	-0.2281	0.1971	-0.4808	
0.220332	-0.786656	0.565226	-0.14	-0.07	-0.28	-0.228	0.1972	-0.473	
0.219478	-0.783606	0.56547	0.14	0	-0.14	-0.2337	0.1986	-0.4824	
0.222162	-0.780434	0.56608	0	-0.07	0.14	-0.2337	0.1925	-0.4778	
0.222772	-0.784826	0.5673	0.07	-0.28	0.28	-0.2394	0.2017	-0.4825	
0.221552	-0.781654	0.569496	0.42	-0.35	0.49	-0.2335	0.1987	-0.47	
0.221796	-0.778604	0.567666	0	-0.7	0.7	-0.2279	0.1972	-0.4684	
0.22204	-0.780922	0.566324	0.21	-0.63	0.91	-0.2237	0.1957	-0.4699	
0.226188	-0.783362	0.566324	0.21	-0.63	0.7	-0.2237	0.1972	-0.473	
0.227164	-0.780068	0.56852	0.56	-0.63	0.63	-0.235	0.1971	-0.4747	
0.23058	-0.781288	0.569984	0.49	-0.49	0.42	-0.2307	0.2018	-0.47	
0.227896	-0.78263	0.571814	0.49	0	0.14	-0.2154	0.1848	-0.476	
0.226798	-0.776774	0.566324	0.42	0.28	-0.07	-0.2337	0.1987	-0.4778	
0.226188	-0.778238	0.567544	0.07	0.49	-0.14	-0.2363	0.1987	-0.467	
0.221308	-0.77897	0.568032	0.21	0.84	-0.35	-0.2293	0.1941	-0.47	
0.21838	-0.780556	0.568154	0.21	0.91	-0.63	-0.2308	0.2002	-0.4777	
0.217282	-0.780434	0.569252	0.07	0.7	-0.49	-0.2308	0.1879	-0.4716	
0.218624	-0.782874	0.568886	0	0.49	-0.14	-0.235	0.1894	-0.4701	
0.219844	-0.779336	0.57157	0.07	0.49	0.07	-0.2237	0.191	-0.4668	
0.220088	-0.780068	0.572668	0	0.42	0.14	-0.2267	0.1909	-0.4808	
0.220576	-0.77775	0.570716	0.07	0.35	-0.07	-0.2253	0.1925	-0.4808	
0.220942	-0.779824	0.56913	0.07	0.21	-0.14	-0.235	0.1971	-0.4747	
0.222162	-0.776408	0.568276	0.35	0.21	-0.35	-0.2323	0.2002	-0.4778	
0.221674	-0.779336	0.569618	0.28	0.14	-0.49	-0.2281	0.1987	-0.4792	
0.219234	-0.780312	0.569618	0.28	0.07	-0.49	-0.2307	0.1956	-0.4685	
0.218014	-0.779824	0.569618	0.14	-0.07	-0.28	-0.2335	0.205	-0.4669	
0.218868	-0.781776	0.569496	0	-0.21	0.21	-0.2252	0.1941	-0.4746	
0.216794	-0.781654	0.56974	0	-0.35	0.42	-0.2239	0.1925	-0.4823	
0.217282	-0.780312	0.568398	0.14	-0.42	0.7	-0.2281	0.1971	-0.4808	
0.217892	-0.778848	0.56791	0.28	-0.63	0.84	-0.2294	0.2034	-0.4746	
0.222162	-0.779336	0.569618	0.56	-0.77	0.56	-0.2309	0.1909	-0.4778	
0.22326	-0.776774	0.57096	0.84	-0.91	0.28	-0.2238	0.1972	-0.4776	
0.225212	-0.773358	0.57218	0.84	-1.05	0	-0.2339	0.1955	-0.4887	
0.22936	-0.77775	0.574376	0.63	-0.98	-0.07	-0.2309	0.1971	-0.4824	
0.230092	-0.776774	0.574254	0.77	-0.7	-0.14	-0.231	0.1909	-0.4824	
0.229726	-0.778238	0.573034	0.63	-0.35	0	-0.2379	0.1986	-0.481	
0.223382	-0.77653	0.57523	0.56	-0.21	0.07	-0.2448	0.1971	-0.4718	
0.220942	-0.77531	0.570106	0.28	0.14	0.21	-0.2324	0.194	-0.4856	
0.228872	-0.77165	0.571448	0.28	0.49	0.07	-0.2309	0.1909	-0.4793	
0.22875	-0.776286	0.572912	-0.07	0.49	-0.28	-0.2322	0.1956	-0.4731	
0.222772	-0.78141	0.575718	0.28	0.35	-0.56	-0.2265	0.1972	-0.4715	
0.22204	-0.77287	0.573888	0.07	0.28	-0.56	-0.2297	0.1908	-0.4886	
0.222528	-0.772992	0.571448	-0.28	0.14	-0.35	-0.2223	0.1941	-0.473	
0.226432	-0.77348	0.5734	0	-0.14	0.14	-0.2336	0.1909	-0.4732	
0.2257	-0.774944	0.575962	0.14	-0.21	0.28	-0.2336	0.1925	-0.4716	
0.222772	-0.775676	0.573644	0	-0.42	0.35	-0.235	0.1878	-0.4732	
0.223138	-0.779824	0.57157	0.28	-0.63	0.42	-0.2322	0.1909	-0.4747	
0.221918	-0.778116	0.574254	0.49	-0.77	0.35	-0.2337	0.1971	-0.4778	
0.22204	-0.77714	0.572912	0.42	-0.77	0.42	-0.2323	0.1893	-0.4794	
0.225578	-0.774578	0.574132	0.21	-0.77	0.63	-0.2295	0.1956	-0.4808	
0.22448	-0.773846	0.5734	0	-0.84	0.7	-0.228	0.1925	-0.4731	
0.225334	-0.773358	0.574986	-0.21	-0.98	0.84	-0.228	0.194	-0.4762	
0.222894	-0.774212	0.573888	-0.35	-1.05	0.98	-0.2294	0.1956	-0.4731	
0.220454	-0.77409	0.571692	-0.49	-1.19	1.12	-0.2308	0.1909	-0.4747	
0.223016	-0.777262	0.569252	-0.7	-1.33	1.12	-0.2238	0.1832	-0.4731	
0.223748	-0.777506	0.574376	-0.63	-1.47	1.12	-0.2393	0.1924	-0.4795	
0.223626	-0.776164	0.573034	-0.56	-1.68	1.12	-0.2393	0.1925	-0.4748	
0.220088	-0.781654	0.572302	-0.49	-1.54	1.12	-0.235	0.1925	-0.4732	
0.218136	-0.785558	0.568398	-0.49	-1.4	1.12	-0.2366	0.1862	-0.4795	
0.217282	-0.787998	0.565348	-0.35	-1.4	0.98	-0.2337	0.1878	-0.4748	
0.219966	-0.784216	0.56059	-0.07	-1.33	0.84	-0.2336	0.1925	-0.4732	
0.22509	-0.789096	0.558394	-0.07	-1.19	0.7	-0.2378	0.1956	-0.4732	
0.225334	-0.792024	0.563274	0.28	-0.91	0.42	-0.2335	0.191	-0.4685	
0.226066	-0.78995	0.56547	0.77	-0.49	0.14	-0.2278	0.1957	-0.4637	
0.22814	-0.781898	0.568642	0.49	-0.07	0.14	-0.2237	0.1972	-0.4683	
0.228384	-0.782508	0.567788	-0.14	0.07	0	-0.2337	0.1863	-0.4763	
0.223016	-0.7869	0.567178	-0.35	0.14	0.42	-0.2364	0.1909	-0.4733	
0.218502	-0.782386	0.562054	-0.28	0.35	0.91	-0.2392	0.194	-0.4717	
0.208864	-0.808494	0.553392	-0.63	0.14	0.7	-0.2334	0.1941	-0.4639	
0.20313	-0.80398	0.547048	0.56	0.28	0.42	-0.2337	0.1955	-0.4809	
0.203496	-0.797392	0.545584	1.26	0	0.42	-0.2365	0.1971	-0.4794	
0.20679	-0.803858	0.549976	1.89	-0.7	0.28	-0.2366	0.1909	-0.481	
0.207888	-0.81496	0.550098	2.24	-2.03	-0.49	-0.2323	0.1878	-0.4763	
0.206058	-0.832894	0.53131	1.19	-4.62	-2.1	-0.2338	0.1862	-0.4825	
0.1952	-0.87291	0.507398	0.77	-5.74	-3.22	-0.235	0.1925	-0.4701	
0.169824	-0.884622	0.483242	3.85	-4.55	-3.57	-0.2351	0.1863	-0.4748	
0.173606	-0.865468	0.48556	6.23	-3.64	-4.06	-0.2378	0.1801	-0.4703	
0.168238	-0.87779	0.493368	8.68	-6.02	-6.51	-0.2365	0.1924	-0.4779	
0.160186	-0.8662	0.457134	13.44	-10.57	-10.15	-0.2449	0.1847	-0.4719	
0.157502	-0.865956	0.443714	19.67	-12.25	-12.46	-0.2393	0.1909	-0.478	
0.165066	-0.850706	0.447008	26.67	-12.39	-16.52	-0.245	0.1769	-0.4766	
0.187636	-0.83082	0.469456	32.97	-8.68	-19.39	-0.2423	0.1706	-0.4859	
0.208254	-0.840824	0.491172	37.66	-4.13	-21.49	-0.2407	0.1769	-0.4734	
0.19093	-0.842898	0.497394	41.37	-0.63	-22.96	-0.2492	0.166	-0.4768	
0.19398	-0.81008	0.495442	46.27	0.56	-23.8	-0.2521	0.1536	-0.4754	
0.211426	-0.783362	0.51667	50.26	2.45	-24.22	-0.258	0.1457	-0.4911	
0.21716	-0.797026	0.55388	50.54	0.98	-24.92	-0.2495	0.1411	-0.4847	
0.225212	-0.752862	0.546438	53.34	-1.68	-24.43	-0.2623	0.1348	-0.4943	
0.235216	-0.712602	0.539362	56.07	-4.83	-23.73	-0.2539	0.1224	-0.4911	
0.235216	-0.689544	0.53558	58.66	-3.99	-27.93	-0.2524	0.1115	-0.4881	
0.235704	-0.655506	0.549366	61.81	-3.01	-31.43	-0.2539	0.0929	-0.4898	
0.25071	-0.634522	0.584746	65.1	-3.85	-32.2	-0.2654	0.085	-0.5009	
0.271328	-0.601094	0.6344	67.13	-3.99	-33.39	-0.2569	0.0773	-0.4962	
0.281454	-0.58499	0.668804	67.55	-5.6	-32.83	-0.2641	0.0664	-0.5011	
0.309148	-0.56547	0.677222	70.14	-7.98	-32.69	-0.2712	0.0461	-0.5044	
0.30927	-0.50691	0.68137	75.46	-8.19	-33.74	-0.267	0.0461	-0.5044	
0.313418	-0.458354	0.698328	76.02	-8.26	-33.25	-0.2643	0.0182	-0.5061	
0.339404	-0.406504	0.737124	74.41	-7.14	-32.55	-0.2657	0.0073	-0.5	
0.373442	-0.361242	0.77165	72.24	-7.77	-32.34	-0.2756	-0.0128	-0.4987	
0.383202	-0.334158	0.782508	70.63	-8.89	-32.27	-0.2756	-0.0128	-0.4987	
0.391132	-0.318054	0.791414	69.09	-8.4	-30.17	-0.2673	-0.0268	-0.5064	
0.404186	-0.270352	0.803126	68.32	-6.79	-28.91	-0.2743	-0.0439	-0.502	
0.414434	-0.22265	0.823988	66.85	-6.3	-29.4	-0.2686	-0.05	-0.4927	
0.427366	-0.18483	0.840702	64.4	-6.58	-28.14	-0.2616	-0.05	-0.4956	
0.435784	-0.156892	0.855952	60.9	-7.42	-26.25	-0.27	-0.078	-0.4914	
0.440298	-0.142008	0.86315	58.1	-6.51	-23.1	-0.2701	-0.092	-0.4946	
0.447252	-0.121756	0.862906	57.26	-7.35	-22.33	-0.2813	-0.0966	-0.5111	
0.442982	-0.09089	0.85766	56.98	-5.74	-24.22	-0.2757	-0.1106	-0.4886	
0.44103	-0.07905599	0.864736	55.23	-4.62	-25.69	-0.2716	-0.1152	-0.4901	
0.452132	-0.039284	0.888282	53.97	-4.27	-25.9	-0.2728	-0.126	-0.5034	
0.472872	0.000732	0.907924	51.03	-5.11	-24.99	-0.2757	-0.1416	-0.478	
0.483608	0.019154	0.913048	47.25	-5.53	-23.52	-0.2685	-0.1461	-0.4701	
0.484096	0.01952	0.909998	44.1	-5.81	-21.84	-0.277	-0.1555	-0.4734	
0.479704	0.023058	0.904264	42	-4.69	-20.02	-0.2699	-0.1554	-0.4671	
0.47092	0.031842	0.905606	39.41	-4.55	-20.65	-0.2714	-0.171	-0.4719	
0.472994	0.034282	0.919514	36.96	-4.2	-18.27	-0.2755	-0.1756	-0.4627	
0.481046	0.049654	0.922808	35.21	-4.2	-17.64	-0.2616	-0.1834	-0.4687	
0.48373	0.069296	0.926102	32.69	-3.43	-16.38	-0.2673	-0.1757	-0.475	
0.48983	0.076372	0.93391	29.47	-3.15	-15.89	-0.267	-0.1895	-0.458	
0.483974	0.070272	0.929884	26.04	-1.89	-14.42	-0.2712	-0.1973	-0.455	
0.482632	0.059902	0.920856	23.38	-1.19	-11.97	-0.2615	-0.2004	-0.458	
0.485926	0.07869	0.925248	22.05	-0.63	-10.64	-0.2641	-0.2003	-0.4503	
0.487024	0.098942	0.929518	19.46	-0.91	-9.52	-0.2713	-0.2113	-0.4551	
0.483364	0.10614	0.933178	16.66	-0.77	-7.56	-0.2669	-0.2081	-0.4457	
0.483242	0.110898	0.93147	13.93	-1.12	-5.6	-0.2741	-0.2144	-0.4537	
0.48983	0.110044	0.931348	11.55	-1.12	-3.85	-0.2726	-0.2174	-0.4474	
0.491416	0.11468	0.93757	9.31	-0.14	-2.73	-0.257	-0.2127	-0.4425	
0.502274	0.130296	0.948916	6.58	0.7	-1.47	-0.2654	-0.2205	-0.4411	
0.500688	0.147376	0.952698	3.57	1.12	-0.28	-0.2655	-0.2189	-0.4442	
0.500932	0.158234	0.95526	0.98	1.12	0.21	-0.2628	-0.2221	-0.4504	
0.499956	0.160308	0.951966	-2.38	1.05	1.12	-0.2627	-0.2205	-0.4442	
0.491172	0.15799	0.96075	-5.6	1.4	3.22	-0.2683	-0.219	-0.4458	
0.491172	0.167262	0.968558	-7.7	1.4	4.55	-0.2741	-0.2206	-0.4521	
0.50203	0.186294	0.966728	-11.69	1.4	6.44	-0.2697	-0.2112	-0.4473	
0.510326	0.184464	0.966362	-16.38	2.17	7.98	-0.2683	-0.2143	-0.4442	
0.510936	0.17202	0.961116	-20.65	2.73	9.73	-0.2569	-0.2033	-0.4408	
0.508008	0.16592	0.966728	-24.85	3.78	11.62	-0.2711	-0.2019	-0.4473	
0.503006	0.168848	0.956968	-28.91	4.06	13.37	-0.2585	-0.1957	-0.4501	
0.49898	0.160674	0.96929	-33.74	5.04	15.19	-0.2685	-0.2082	-0.4582	
0.493368	0.14152	0.970144	-38.08	4.83	17.15	-0.2714	-0.1974	-0.4628	
0.501176	0.128588	0.974902	-42.21	5.39	19.18	-0.2629	-0.1849	-0.461	
0.500078	0.122	0.969168	-47.18	5.67	21	-0.2643	-0.1834	-0.4656	
0.480192	0.10004	0.955626	-52.71	6.44	23.1	-0.2671	-0.1771	-0.4626	
0.474336	0.074664	0.94611	-56.77	6.09	24.22	-0.2727	-0.1663	-0.4626	
0.472384	0.049288	0.923296	-60.62	6.72	28.14	-0.2743	-0.1648	-0.475	
0.46238	0.011346	0.906948	-64.54	7.49	28	-0.277	-0.14	-0.4749	
0.4453	-0.024522	0.89365	-69.58	8.19	30.03	-0.2702	-0.1339	-0.4887	
0.43737	-0.04758	0.877668	-73.08	8.4	32.2	-0.2785	-0.1152	-0.4825	
0.427366	-0.075518	0.851194	-75.88	7.91	33.81	-0.2673	-0.109	-0.49	
0.418216	-0.12261	0.82594	-77.84	7.21	34.16	-0.2757	-0.0966	-0.4901	
0.403942	-0.169336	0.806176	-79.8	7.91	37.03	-0.2758	-0.0873	-0.4946	
0.38308	-0.20313	0.800076	-81.27	7.49	36.68	-0.2743	-0.0671	-0.4945	
0.372344	-0.213622	0.793244	-81.97	4.62	34.16	-0.2742	-0.0609	-0.4929	
0.369294	-0.231678	0.78019	-84.42	5.04	36.12	-0.2686	-0.0469	-0.4958	
0.37332	-0.255102	0.758962	-85.82	5.53	37.59	-0.2671	-0.0236	-0.4925	
0.358314	-0.31232	0.732366	-87.22	6.58	42.49	-0.2728	-0.009699999	-0.5002	
0.337086	-0.355508	0.725778	-87.08	6.44	42.14	-0.2659	-0.0004	-0.5109	
0.331962	-0.366854	0.711748	-88.06	5.95	39.9	-0.2685	0.0151	-0.5	
0.326594	-0.38735	0.693814	-89.81	5.95	38.85	-0.2644	0.0275	-0.5106	
0.324398	-0.411628	0.67161	-91.07	7.35	39.62	-0.267	0.0492	-0.5059	
0.314272	-0.440054	0.640378	-90.58	7.28	39.55	-0.2625	0.0711	-0.4917	
0.299388	-0.483852	0.619638	-90.23	6.58	41.79	-0.2527	0.08199999	-0.4945	
0.278892	-0.523502	0.59841	-90.02	4.41	41.3	-0.2568	0.0975	-0.4945	
0.265594	-0.540216	0.580354	-90.44	2.87	40.25	-0.2623	0.1192	-0.4929	
0.238388	-0.53863	0.520208	-91.42	3.22	39.2	-0.2622	0.1363	-0.4912	
0.209596	-0.562786	0.47641	-91.28	3.01	38.08	-0.2608	0.1472	-0.4911	
0.186172	-0.620492	0.460428	-92.61	2.87	40.67	-0.2452	0.1504	-0.483	
0.159576	-0.6893	0.457744	-94.43	2.24	40.67	-0.2479	0.1784	-0.486	
0.170556	-0.725778	0.426024	-94.99	1.68	45.99	-0.2518	0.1878	-0.4658	
0.166164	-0.77226	0.395646	-95.41	4.48	45.08	-0.2348	0.2112	-0.4669	
0.162382	-0.774822	0.366732	-92.96	4.34	42.21	-0.2416	0.2299	-0.4576	
0.13298	-0.730292	0.292068	-90.37	5.88	35.35	-0.2216	0.2456	-0.4416	
0.0976	-0.772748	0.264618	-93.17	6.65	30.94	-0.23	0.258	-0.4401	
0.05673	-0.850096	0.241926	-93.52	6.51	29.4	-0.2254	0.2845	-0.4243	
0.044286	-0.92049	0.22326	-91.35	3.71	28.42	-0.2223	0.2908	-0.4102	
0.050874	-0.943792	0.199226	-86.59	1.89	26.81	-0.2039	0.3065	-0.4082	
0.053924	-0.915	0.178364	-83.02	2.31	25.2	-0.2092	0.3175	-0.3896	
0.05185	-0.93696	0.133468	-83.79	1.61	24.64	-0.205	0.3267	-0.3957	
0.040016	-0.994666	0.104066	-82.46	1.26	24.78	-0.2006	0.3393	-0.3862	
0.036234	-1.042002	0.082838	-76.58	-0.56	24.29	-0.2004	0.3455	-0.3768	
0.03721	-1.02297	0.066978	-69.79	-1.68	22.61	-0.1976	0.3595	-0.3767	
0.032696	-1.005036	0.036234	-68.18	-2.59	22.05	-0.1944	0.3566	-0.3565	
0.004636	-1.067012	0.009272	-72.52	-4.97	22.4	-0.197	0.3706	-0.3456	
-0.024888	-1.149362	-0.008296	-64.47	1.12	26.32	-0.1912	0.3847	-0.3392	
-0.015006	-1.132892	-0.01281	-56.07	-15.05	23.31	-0.1758	0.3847	-0.3435	
-0.011346	-1.12301	-0.048678	-51.59	-15.12	23.31	-0.1838	0.3833	-0.3189	
-0.005978	-1.175592	-0.039284	-48.51	-12.25	24.29	-0.1768	0.388	-0.3218	
-0.017202	-1.161074	-0.035502	-41.44	-14.84	24.85	-0.1695	0.3974	-0.3061	
0.00122	-1.136308	-0.059658	-36.05	-18.83	23.17	-0.175	0.4021	-0.3046	
-0.019276	-1.131794	-0.079178	-33.39	-20.72	21.84	-0.1707	0.4053	-0.2952	
-0.027572	-1.132038	-0.0854	-29.26	-20.02	19.39	-0.1678	0.4099	-0.2951	
-0.019764	-1.084336	-0.080764	-22.89	-18.83	15.61	-0.1746	0.4178	-0.2812	
-0.014884	-1.051884	-0.081374	-21.63	-15.68	14.42	-0.1676	0.4131	-0.2858	
-0.015372	-1.064206	-0.086498	-23.38	-14.84	13.93	-0.1719	0.4162	-0.2889	
-0.01769	-1.078114	-0.101382	-21.49	-14.56	13.3	-0.1562	0.4256	-0.2793	
-0.03782	-1.064938	-0.101626	-18.27	-15.05	11.69	-0.1647	0.4178	-0.281	
-0.051484	-1.097512	-0.094062	-17.57	-16.31	10.57	-0.1648	0.4147	-0.2857	
-0.049776	-1.097634	-0.102968	-12.32	-17.64	7.42	-0.1633	0.421	-0.2779	
-0.063318	-1.083604	-0.129198	-9.94	-18.55	5.67	-0.1603	0.4226	-0.2685	
-0.071004	-1.085556	-0.121146	-8.47	-18.34	4.06	-0.1602	0.4226	-0.2623	
-0.069296	-1.047736	-0.107726	-6.44	-19.04	3.01	-0.1686	0.435	-0.2655	
-0.055876	-1.046638	-0.097722	-7.14	-18.48	3.57	-0.1657	0.4211	-0.2562	
-0.036356	-1.051274	-0.10065	-6.44	-16.1	4.41	-0.1727	0.4273	-0.2563	
-0.043676	-1.059936	-0.103334	-5.67	-13.93	5.18	-0.1643	0.4304	-0.2608	
-0.035502	-1.03822	-0.096624	-3.71	-11.97	4.9	-0.167	0.4351	-0.253	
-0.02623	-1.030778	-0.085644	-3.29	-10.15	3.43	-0.17	0.4319	-0.2624	
-0.011956	-1.023702	-0.081984	-2.59	-7.21	1.96	-0.1644	0.4381	-0.2638	
-0.013542	-1.034194	-0.087596	-2.8	-4.41	1.26	-0.1628	0.432	-0.2545	
-0.027572	-1.062498	-0.093086	-2.24	-3.36	0.77	-0.1655	0.4227	-0.2453	
-0.032696	-1.056276	-0.091866	0.98	-3.01	-0.77	-0.1683	0.4398	-0.2499	
-0.032208	-1.038464	-0.09089	2.73	-2.66	-2.87	-0.163	0.4242	-0.2639	
-0.035136	-1.050908	-0.092842	3.01	-2.45	-4.27	-0.1782	0.4304	-0.2502	
-0.030012	-1.072014	-0.092964	4.76	-2.8	-6.44	-0.1769	0.4366	-0.2563	
-0.041724	-1.097024	-0.092232	7.56	-3.92	-8.47	-0.1756	0.4288	-0.261	
-0.034282	-1.096048	-0.091256	11.55	-3.92	-9.87	-0.1739	0.4258	-0.2439	
-0.026962	-1.084458	-0.087108	13.72	-2.59	-10.99	-0.1713	0.4381	-0.2593	
-0.02684	-1.104832	-0.08601	14.98	-1.75	-11.62	-0.1727	0.4257	-0.2579	
-0.02135	-1.103124	-0.086986	18.83	-0.98	-13.16	-0.1756	0.4288	-0.2641	
-0.01769	-1.089948	-0.089792	21.7	0	-15.26	-0.1814	0.4163	-0.269	
-0.025864	-1.074942	-0.086742	23.24	0.49	-17.5	-0.1729	0.4148	-0.2673	
-0.02806	-1.083726	-0.082472	24.36	-0.7	-19.46	-0.1828	0.4179	-0.2674	
-0.010004	-1.071892	-0.06222	28.14	-0.56	-21.21	-0.1857	0.4193	-0.2752	
0.01403	-1.085678	-0.052338	30.1	0.42	-23.73	-0.1844	0.4131	-0.2799	
-0.017324	-1.096536	-0.05002	33.04	1.05	-22.47	-0.1972	0.4037	-0.2849	
0.040748	-1.11813	-0.019642	35.63	1.33	-20.51	-0.1957	0.4006	-0.2818	
0.054412	-1.052128	0.001708	40.81	4.9	-21	-0.2115	0.4035	-0.2975	
0.031476	-1.044808	-0.004148	40.11	8.33	-21.35	-0.2046	0.3926	-0.3052	
0.037942	-1.047126	-0.00427	39.41	11.55	-20.09	-0.206	0.3911	-0.3053	
0.039528	-1.073356	-0.013908	40.18	12.25	-19.53	-0.2188	0.3863	-0.3087	
0.03904	-1.085312	-0.00732	43.47	10.92	-18.69	-0.2176	0.3785	-0.3196	
0.048312	-1.064938	0.018544	47.81	11.06	-19.74	-0.2177	0.3707	-0.3274	
0.05917	-1.049322	0.03599	49.84	11.76	-21.42	-0.208	0.3769	-0.3364	
0.06222	-1.035902	0.050142	52.01	12.11	-23.66	-0.2222	0.3675	-0.3399	
0.06466	-1.028826	0.077104	54.46	13.23	-25.27	-0.2126	0.355	-0.3522	
0.06588	-1.022482	0.080276	55.93	14.42	-25.62	-0.2254	0.3378	-0.3541	
0.052094	-1.017846	0.110288	55.93	14	-23.38	-0.2256	0.344	-0.3665	
0.052582	-0.995154	0.119926	56.14	12.18	-21.14	-0.2283	0.3393	-0.3635	
0.057218	-0.988566	0.13969	57.12	11.2	-20.44	-0.2287	0.3314	-0.3806	
0.05978	-0.995642	0.147986	59.36	10.43	-22.61	-0.2287	0.3159	-0.3792	
0.083814	-1.000034	0.172508	62.58	8.4	-25.27	-0.2276	0.3049	-0.3963	
0.114436	-0.96258	0.203252	66.29	6.86	-29.12	-0.2289	0.3065	-0.3901	
0.11895	-0.94733	0.233142	68.11	6.02	-34.44	-0.2417	0.294	-0.3951	
0.113948	-0.95587	0.25071	71.68	7	-38.64	-0.242	0.2923	-0.4137	
0.09882	-0.967948	0.256932	76.37	7.21	-42.07	-0.2462	0.2752	-0.4093	
0.092842	-0.964288	0.274622	81.13	4.13	-44.45	-0.248	0.2751	-0.431	
0.104432	-0.92049	0.302316	85.96	3.99	-46.13	-0.258	0.2471	-0.4314	
0.136396	-0.86986	0.340746	88.34	2.87	-47.74	-0.2569	0.2268	-0.4439	
0.148596	-0.836798	0.371246	90.09	2.1	-48.72	-0.2526	0.2253	-0.4423	
0.171776	-0.786778	0.4148	93.17	0.14	-48.37	-0.2556	0.2081	-0.4502	
0.183732	-0.72773	0.433588	95.27	-1.47	-48.86	-0.2657	0.1847	-0.4599	
0.19154	-0.671732	0.442128	96.11	-2.87	-49.07	-0.2673	0.1738	-0.4662	
0.201056	-0.653798	0.459818	95.62	-4.2	-49.91	-0.2787	0.155	-0.4712	
0.226676	-0.600118	0.489342	95.69	-4.62	-50.33	-0.2731	0.1426	-0.4728	
0.254736	-0.531798	0.505446	99.54	-5.88	-57.05	-0.2804	0.113	-0.4824	
0.305488	-0.439566	0.518378	100.59	-7.7	-49.7	-0.282	0.1052	-0.4887	
0.314638	-0.38369	0.532408	97.09	-2.45	-52.15	-0.2778	0.0897	-0.4887	
0.320494	-0.354898	0.58987	95.06	0.07	-53.76	-0.2836	0.0663	-0.4921	
0.335622	-0.3172	0.631838	94.5	-1.96	-51.73	-0.2865	0.0524	-0.4923	
0.367342	-0.299632	0.691374	89.46	-2.73	-49.07	-0.2907	0.0353	-0.4909	
0.382226	-0.286578	0.741638	88.69	-6.72	-50.68	-0.292	0.0198	-0.4818	
0.416264	-0.230214	0.77531	86.45	-6.37	-40.95	-0.2907	0.0012	-0.4803	
0.44164	-0.16165	0.7991	84.35	-7.28	-42.14	-0.2908	-0.0174	-0.4836	
0.449692	-0.128466	0.804224	78.89	-5.32	-42.42	-0.2882	-0.0361	-0.493	
0.448228	-0.124318	0.808616	74.97	-5.6	-42.63	-0.2924	-0.0501	-0.4885	
0.444934	-0.135054	0.812886	72.8	-6.37	-40.6	-0.2881	-0.0655	-0.4808	
0.467504	-0.089182	0.84668	71.54	-6.09	-38.64	-0.2967	-0.0703	-0.4872	
0.485438	-0.022448	0.867176	69.79	-6.58	-36.82	-0.2966	-0.0765	-0.4841	
0.487146	0.00427	0.870714	65.17	-6.51	-35.42	-0.2924	-0.0966	-0.478	
0.489586	0.020618	0.875106	60.83	-5.81	-34.37	-0.2897	-0.1121	-0.4842	
0.49898	0.040138	0.88511	56.84	-4.41	-31.57	-0.2923	-0.1167	-0.4719	
0.517646	0.059292	0.903288	53.62	-4.34	-30.31	-0.2852	-0.1399	-0.4642	
0.53009	0.055022	0.913414	48.86	-4.48	-26.95	-0.288	-0.143	-0.4612	
0.52277	0.034648	0.91561	45.01	-3.36	-24.78	-0.2781	-0.143	-0.4579	
0.523502	0.048556	0.922808	42.42	-2.45	-23.66	-0.2937	-0.1555	-0.4598	
0.531066	0.080764	0.930616	37.03	-1.96	-20.79	-0.2894	-0.1694	-0.4567	
0.545828	0.09577	0.933544	33.46	-2.03	-18.69	-0.2852	-0.1803	-0.4536	
0.544608	0.104066	0.92964	29.75	-0.63	-15.96	-0.2811	-0.1896	-0.4583	
0.53314	0.10187	0.92476	26.74	-1.61	-14.49	-0.2836	-0.1879	-0.4428	
0.53009	0.10065	0.925736	22.96	-0.77	-11.62	-0.281	-0.2004	-0.4506	
0.534604	0.103334	0.938912	19.32	-1.61	-9.59	-0.2881	-0.1896	-0.4569	
0.538508	0.105408	0.942816	15.75	-2.24	-8.19	-0.2809	-0.2035	-0.446	
0.530456	0.098698	0.933788	12.18	-2.73	-6.02	-0.2808	-0.1925	-0.4381	
0.53558	0.10858	0.93391	10.08	-3.22	-5.04	-0.2865	-0.1942	-0.4429	
0.547414	0.114192	0.93513	6.16	-2.8	-3.43	-0.2795	-0.2066	-0.446	
0.556686	0.124806	0.942084	3.08	-2.59	-1.33	-0.2795	-0.205	-0.4428	
0.562054	0.123464	0.941352	-0.21	-1.26	0.49	-0.2794	-0.1941	-0.4428	
0.559004	0.116266	0.940864	-4.48	-0.49	2.87	-0.2824	-0.2066	-0.4507	
0.55632	0.123708	0.941596	-8.05	0.35	4.69	-0.2753	-0.1988	-0.4458	
0.552294	0.128954	0.945012	-11.83	0.98	6.58	-0.2839	-0.2035	-0.4538	
0.544364	0.125538	0.942816	-15.89	1.61	8.68	-0.2864	-0.2019	-0.4398	
0.543876	0.119926	0.941108	-19.18	2.1	10.71	-0.2853	-0.1942	-0.4553	
0.547414	0.127002	0.938058	-22.54	2.31	12.88	-0.2781	-0.1818	-0.4504	
0.539728	0.12993	0.935008	-27.16	2.52	14.91	-0.2753	-0.1771	-0.4519	
0.53497	0.112728	0.935008	-31.92	2.73	17.08	-0.2811	-0.1818	-0.4613	
0.537044	0.092842	0.929152	-36.05	2.52	19.32	-0.2826	-0.1865	-0.466	
0.536922	0.082472	0.931104	-40.18	2.87	21.98	-0.288	-0.157	-0.4597	
0.53741	0.074176	0.931714	-44.87	3.36	24.36	-0.2854	-0.171	-0.466	
0.531798	0.05185	0.932568	-49.28	2.59	25.83	-0.2881	-0.1431	-0.4658	
0.518012	0.04087	0.915366	-54.74	4.34	28.77	-0.2854	-0.1431	-0.4704	
0.511302	0.014152	0.902068	-59.01	3.78	29.75	-0.2911	-0.1385	-0.4783	
0.508252	-0.0122	0.88267	-65.24	4.69	33.11	-0.2868	-0.1261	-0.4781	
0.499102	-0.036966	0.860954	-70.28	5.53	36.75	-0.294	-0.1137	-0.4859	
0.476044	-0.08479	0.832894	-73.92	6.23	38.15	-0.3021	-0.0919	-0.475	
0.453108	-0.11651	0.813862	-77	6.93	39.48	-0.2881	-0.0826	-0.4809	
0.447496	-0.136518	0.794586	-80.5	8.26	40.04	-0.2954	-0.0703	-0.4933	
0.450424	-0.167262	0.787144	-84.63	9.52	40.95	-0.2938	-0.0594	-0.4855	
0.445544	-0.217282	0.78141	-88.27	9.59	40.6	-0.2983	-0.0347	-0.5056	
0.411384	-0.26779	0.740784	-89.74	9.59	41.16	-0.2938	-0.0206	-0.4976	
0.38735	-0.316346	0.711992	-90.72	10.57	41.3	-0.2895	-0.0066	-0.4912	
0.379664	-0.327692	0.703208	-91.49	10.64	42.35	-0.2838	0.0058	-0.4895	
0.366244	-0.344284	0.68869	-94.29	10.43	44.17	-0.2937	0.0305	-0.5003	
0.356728	-0.379054	0.680394	-96.39	9.17	44.73	-0.2797	0.0445	-0.5046	
0.343552	-0.418338	0.660508	-96.67	7.28	46.27	-0.2866	0.057	-0.4985	
0.326716	-0.462014	0.626958	-97.51	5.88	47.81	-0.2751	0.0648	-0.4889	
0.297802	-0.515572	0.58255	-98.42	6.44	49.91	-0.2708	0.0928	-0.4917	
0.269376	-0.556686	0.528748	-97.37	7.91	51.45	-0.2679	0.1084	-0.4869	
0.234362	-0.56608	0.462258	-99.4	12.95	51.8	-0.2704	0.1286	-0.4759	
0.229604	-0.61061	0.483364	-103.67	16.45	52.15	-0.2619	0.1427	-0.4756	
0.229116	-0.645624	0.476898	-104.37	14.28	52.92	-0.2646	0.1613	-0.4725	
0.212646	-0.67161	0.43676	-103.11	10.85	50.4	-0.2419	0.1879	-0.4641	
0.194956	-0.670878	0.38003	-102.48	8.61	49	-0.2571	0.205	-0.4534	
0.1647	-0.70333	0.324886	-103.39	7.63	45.85	-0.2402	0.2221	-0.4529	
0.147132	-0.792268	0.310856	-104.79	4.27	40.67	-0.2402	0.2221	-0.4545	
0.130296	-0.86071	0.27755	-104.16	3.22	40.74	-0.2273	0.2533	-0.4463	
0.128588	-0.885964	0.229482	-98.84	0.84	35.14	-0.2383	0.2626	-0.4356	
0.108702	-0.924516	0.204228	-95.13	-0.56	33.81	-0.2241	0.2783	-0.4274	
0.07808	-0.963312	0.179462	-89.32	-1.89	32.41	-0.2182	0.2939	-0.4179	
0.068564	-0.977708	0.161284	-83.37	-2.45	32.76	-0.2278	0.3079	-0.4071	
0.077592	-0.956724	0.137616	-72.31	3.5	28.98	-0.2175	0.3221	-0.3851	
0.0488	-0.986126	0.120536	-62.09	-7.91	29.47	-0.2134	0.3252	-0.3881	
0.066978	-1.052616	0.110166	-53.69	-19.39	21.63	-0.2018	0.344	-0.3722	
0.075274	-1.071038	0.094062	-49.56	-15.4	20.37	-0.2187	0.3517	-0.3756	
0.064416	-1.080676	0.063928	-45.85	-11.9	16.87	-0.2044	0.3596	-0.366	
0.039772	-1.087508	0.063928	-43.4	-13.23	15.96	-0.2057	0.3565	-0.3567	
0.02318	-1.126304	0.041968	-41.44	-17.08	16.52	-0.2013	0.352	-0.3489	
0.02257	-1.143994	0.027328	-36.75	-19.32	17.43	-0.2069	0.3644	-0.3474	
0.015006	-1.125084	0.035624	-34.93	-19.53	20.79	-0.1983	0.3645	-0.3394	
0.020618	-1.109956	0.04148	-34.72	-17.36	22.33	-0.201	0.3722	-0.3348	
0.04819	-1.073844	0.038796	-35.28	-14.28	21.91	-0.1982	0.3784	-0.3378	
0.058316	-1.048346	0.029402	-35.14	-11.2	21.98	-0.2065	0.3971	-0.3332	
0.035624	-1.070794	0.037088	-34.58	-10.92	21.91	-0.1951	0.3833	-0.3191	
0.02562	-1.038952	0.025742	-28.56	-14.91	20.79	-0.2006	0.391	-0.3145	
0.026596	-0.999546	0.018544	-21.21	-14	20.02	-0.1991	0.3973	-0.3129	
0.034038	-0.964288	0.004392	-17.64	-22.12	14.77	-0.1934	0.4051	-0.3096	
0.051728	-0.94611	0.000122	-18.97	-18.76	13.44	-0.1934	0.4051	-0.3096	
0.04819	-1.004426	-0.004392	-24.08	-13.51	12.18	-0.1947	0.3912	-0.3004	
0.053558	-1.069818	-0.006344	-24.92	-9.87	10.92	-0.1947	0.3912	-0.3004	
0.03721	-1.068232	-0.017812	-22.33	-6.79	9.17	-0.1861	0.399	-0.2955	
0.026108	-1.090558	-0.019032	-23.45	-3.92	7.77	-0.1988	0.4021	-0.2942	
0.024034	-1.103978	-0.02074	-22.19	-2.31	6.58	-0.1874	0.4052	-0.2909	
0.009881999	-1.110444	-0.048312	-19.81	-2.66	6.16	-0.1916	0.3975	-0.2879	
0.011834	-1.119838	-0.047946	-17.57	-1.54	5.25	-0.1875	0.4021	-0.2924	
0.025254	-1.103368	-0.05429	-15.61	0.56	3.5	-0.1889	0.413	-0.2955	
0.013664	-1.100318	-0.065758	-13.44	1.4	1.89	-0.1886	0.4084	-0.2785	
0.007564	-1.094096	-0.063928	-10.57	0.7	-0.07	-0.1899	0.41	-0.2692	
-0.00122	-1.103124	-0.056852	-7.14	0	-1.26	-0.1816	0.41	-0.2814	
0.009272	-1.076528	-0.051728	-3.08	-0.84	-2.52	-0.1873	0.4239	-0.2861	
0.019398	-1.063718	-0.069418	-1.12	-1.05	-3.15	-0.1815	0.4132	-0.2721	
0.011956	-1.075552	-0.070882	0.77	-1.75	-3.71	-0.1954	0.4209	-0.2645	
0.018666	-1.064328	-0.065392	3.85	-2.45	-4.41	-0.1915	0.4099	-0.2847	
0.033062	-1.055666	-0.062586	5.81	-2.38	-5.25	-0.1914	0.4208	-0.28	
0.034404	-1.057496	-0.063806	6.51	-1.54	-6.09	-0.194	0.4147	-0.2677	
0.041602	-1.047492	-0.058682	7.49	-1.19	-6.3	-0.1928	0.4162	-0.28	
0.040748	-1.048956	-0.05429	8.19	-0.49	-6.58	-0.1913	0.4116	-0.2738	
0.041724	-1.047126	-0.061854	9.03	0.28	-7.42	-0.1928	0.4053	-0.2755	
0.02928	-1.071648	-0.062586	9.03	0.56	-8.4	-0.1957	0.4115	-0.2832	
0.02623	-1.082018	-0.060146	10.64	0.7	-9.45	-0.1984	0.41	-0.2724	
0.029524	-1.095804	-0.054412	12.39	1.05	-10.57	-0.1983	0.4147	-0.2708	
0.047092	-1.08519	-0.043066	15.47	1.26	-12.11	-0.1887	0.4022	-0.2816	
0.05429	-1.07482	-0.040138	17.5	2.03	-13.65	-0.2013	0.4053	-0.2772	
0.06466	-1.099098	-0.034404	19.88	3.99	-15.33	-0.1972	0.3975	-0.2865	
0.061244	-1.12179	-0.038674	24.15	6.09	-18.34	-0.2115	0.3989	-0.296	
0.0671	-1.1407	-0.030378	30.1	7.84	-21.42	-0.2074	0.3989	-0.3022	
0.074176	-1.108492	-0.013908	35.77	9.1	-24.22	-0.2046	0.3896	-0.3022	
0.089182	-1.076284	0.004026	38.71	10.78	-24.5	-0.2132	0.3894	-0.3147	
0.091256	-1.058838	0.013176	40.32	12.11	-24.22	-0.2175	0.377	-0.3149	
0.0854	-1.059448	0.0122	41.44	12.6	-23.73	-0.223	0.3817	-0.3103	
0.077958	-1.067134	0.020374	44.38	12.04	-23.66	-0.2202	0.3739	-0.3103	
0.08479	-1.036024	0.02257	47.04	10.99	-23.59	-0.2235	0.3737	-0.3352	
0.083326	-1.032486	0.038308	47.74	9.17	-22.4	-0.2193	0.3721	-0.3382	
0.09333	-1.01504	0.051972	49.49	7.42	-20.86	-0.2337	0.3503	-0.3511	
0.09394	-1.01565	0.06344	49.98	6.02	-19.18	-0.2295	0.3565	-0.3541	
0.105408	-1.024312	0.09089	51.17	4.55	-18.06	-0.231	0.3394	-0.3527	
0.11773	-1.031144	0.091866	53.13	4.41	-18.97	-0.2354	0.3362	-0.3652	
0.116144	-1.043588	0.115046	54.53	4.69	-19.46	-0.234	0.3346	-0.3652	
0.123464	-1.031266	0.135542	57.68	4.13	-20.72	-0.2327	0.3222	-0.3714	
0.13664	-0.994056	0.154818	61.88	4.76	-22.61	-0.2372	0.3143	-0.3824	
0.14945	-0.977708	0.186416	64.19	6.02	-24.29	-0.2389	0.3002	-0.3965	
0.16226	-0.975756	0.219478	66.99	6.3	-26.6	-0.2458	0.3002	-0.3874	
0.159698	-0.971242	0.25742	69.93	7.14	-30.24	-0.2433	0.2908	-0.406	
0.163846	-0.948916	0.26352	72.1	8.05	-32.97	-0.2504	0.2861	-0.4062	
0.16348	-0.955382	0.297314	72.94	8.33	-34.16	-0.2421	0.2737	-0.4138	
0.17141	-0.92354	0.33428	76.23	7.63	-34.58	-0.2521	0.2627	-0.4188	
0.175314	-0.884866	0.332694	78.54	7.28	-35.49	-0.2452	0.2471	-0.4265	
0.179096	-0.858148	0.359412	78.75	7.7	-34.86	-0.2609	0.233	-0.4362	
0.170434	-0.819474	0.373808	80.43	7.49	-35.21	-0.2525	0.2253	-0.4361	
0.179584	-0.789828	0.380152	84.42	6.93	-35.91	-0.271	0.2034	-0.4413	
0.196298	-0.740174	0.399916	87.5	6.09	-35.7	-0.2598	0.1942	-0.4427	
0.216428	-0.666364	0.42578	89.81	6.09	-37.73	-0.2728	0.1784	-0.4616	
0.231922	-0.614392	0.456646	91.56	4.62	-42.42	-0.2574	0.1599	-0.4615	
0.236924	-0.554002	0.493978	92.19	1.75	-44.52	-0.2689	0.1504	-0.4711	
0.24339	-0.520086	0.510448	90.72	-1.54	-45.22	-0.2733	0.1317	-0.4775	
0.264252	-0.503128	0.533506	89.25	-2.94	-43.75	-0.2761	0.1208	-0.4792	
0.291214	-0.444812	0.594384	88.13	-3.92	-42.21	-0.2764	0.0928	-0.4856	
0.322568	-0.399916	0.639524	87.78	-4.55	-43.82	-0.2738	0.0726	-0.495	
0.34526	-0.36783	0.686372	86.52	-8.96	-47.81	-0.2864	0.0524	-0.4876	
0.36295	-0.381372	0.733586	80.36	-7.56	-39.9	-0.2878	0.0415	-0.4877	
0.37332	-0.384178	0.741394	80.57	-9.24	-40.88	-0.2793	0.0385	-0.4845	
0.395768	-0.329278	0.744322	80.08	-9.52	-40.46	-0.2964	0.015	-0.4912	
0.427732	-0.284138	0.784216	78.54	-10.01	-40.32	-0.2823	-0.0112	-0.4849	
0.450058	-0.253638	0.804834	74.55	-7.91	-37.31	-0.2964	-0.0112	-0.4867	
0.462136	-0.208498	0.804346	72.1	-6.58	-37.73	-0.2852	-0.0267	-0.4851	
0.4697	-0.198616	0.806298	67.97	-5.53	-33.95	-0.2966	-0.0392	-0.4885	
0.462624	-0.164212	0.795562	66.57	-3.85	-36.05	-0.2825	-0.0484	-0.4836	
0.457378	-0.145424	0.803126	63.63	-2.73	-32.9	-0.2883	-0.0702	-0.4901	
0.453474	-0.125294	0.80947	61.53	-3.85	-29.68	-0.2895	-0.0795	-0.4809	
0.458354	-0.09357399	0.82411	59.36	-2.87	-28.56	-0.2923	-0.0857	-0.4779	
0.469822	-0.092354	0.839482	55.79	-4.2	-27.65	-0.2852	-0.0888	-0.4731	
0.47824	-0.08906	0.852414	53.2	-4.48	-26.39	-0.2883	-0.1044	-0.4857	
0.48434	-0.077348	0.865834	50.33	-3.85	-26.88	-0.2854	-0.1167	-0.4764	
0.492758	-0.055998	0.87535	49	-4.83	-25.41	-0.2853	-0.1276	-0.4703	
0.494832	-0.051484	0.877424	48.16	-3.92	-25.13	-0.2895	-0.126	-0.4688	
0.505568	-0.009393999	0.887062	47.11	-2.87	-23.52	-0.2924	-0.1292	-0.4736	
0.503372	0.007198	0.88328	42.63	-1.47	-21.56	-0.2825	-0.1477	-0.4642	
0.492636	-0.011712	0.881694	38.71	-1.33	-21.14	-0.2809	-0.1616	-0.455	
0.492026	-0.011224	0.88145	38.01	-3.15	-20.51	-0.284	-0.1648	-0.4403	
0.502884	0.010248	0.893406	36.75	-3.43	-18.69	-0.2909	-0.1725	-0.4839	
0.5124	0.02745	0.90951	34.51	-3.71	-17.57	-0.2754	-0.1709	-0.4596	
0.530822	0.032696	0.917684	29.54	-3.5	-15.12	-0.2812	-0.1834	-0.4629	
0.539118	0.05307	0.926834	26.32	-3.5	-12.46	-0.2838	-0.1787	-0.4551	
0.532408	0.066734	0.923906	23.94	-2.73	-10.78	-0.2908	-0.188	-0.4491	
0.530334	0.06954	0.923662	20.44	-2.17	-7.98	-0.2809	-0.1911	-0.449	
0.539362	0.08052	0.932446	17.22	-1.19	-6.37	-0.2837	-0.1957	-0.446	
0.542534	0.092964	0.934154	14	-0.63	-4.48	-0.2795	-0.1972	-0.4443	
0.544242	0.099186	0.936838	10.85	-0.98	-2.52	-0.2796	-0.1988	-0.4505	
0.54473	0.106628	0.940742	8.12	-0.98	-1.4	-0.2783	-0.1958	-0.4552	
0.55266	0.138592	0.939766	4.83	-1.05	0.07	-0.281	-0.2035	-0.4475	
0.5612	0.14701	0.939034	1.12	0.42	1.33	-0.2795	-0.2019	-0.4459	
0.557662	0.150304	0.942694	-3.57	1.89	3.08	-0.2825	-0.2051	-0.4522	
0.550342	0.131882	0.934398	-7.56	2.87	4.76	-0.2823	-0.2004	-0.4444	
0.554978	0.141398	0.940986	-10.43	3.85	6.09	-0.2794	-0.205	-0.4382	
0.560102	0.161162	0.949282	-15.4	3.64	7.49	-0.2811	-0.202	-0.4537	
0.556076	0.154452	0.955992	-20.58	3.92	9.45	-0.2768	-0.202	-0.4536	
0.549732	0.143838	0.951844	-24.64	3.71	11.62	-0.2824	-0.2051	-0.4475	
0.547658	0.142252	0.950014	-28.42	3.64	14.49	-0.2838	-0.1865	-0.4521	
0.551196	0.137128	0.954894	-32.62	3.71	17.36	-0.2811	-0.1896	-0.4598	
0.552782	0.134566	0.950746	-38.22	3.15	20.02	-0.274	-0.1833	-0.4581	
0.547536	0.111142	0.942328	-43.33	3.36	22.89	-0.2882	-0.1757	-0.463	
0.534482	0.082106	0.930738	-48.72	3.57	25.55	-0.2867	-0.1679	-0.4613	
0.525454	0.06649	0.921466	-52.36	3.36	27.72	-0.2853	-0.157	-0.4612	
0.515694	0.05612	0.906338	-56.49	3.78	29.89	-0.2882	-0.1524	-0.4705	
0.520208	0.035746	0.914634	-61.67	4.62	33.11	-0.2852	-0.143	-0.4627	
0.504836	0.008905999	0.88389	-65.87	4.06	34.37	-0.2866	-0.1306	-0.4657	
0.488488	-0.030134	0.864248	-69.93	5.32	38.29	-0.2883	-0.1152	-0.4811	
0.469212	-0.063562	0.835456	-73.99	5.25	39.62	-0.2895	-0.0935	-0.4763	
0.454572	-0.104554	0.807396	-77.91	5.67	42.14	-0.2909	-0.0717	-0.4778	
0.43493	-0.143838	0.787144	-80.08	5.32	44.24	-0.2854	-0.0609	-0.4915	
0.42395	-0.192028	0.767258	-81.27	4.9	45.29	-0.288	-0.0515	-0.4807	
0.413946	-0.218624	0.750056	-81.83	3.43	45.01	-0.2952	-0.0361	-0.4915	
0.402478	-0.242292	0.72956	-83.72	3.36	44.59	-0.288	-0.0128	-0.4881	
0.40321	-0.26779	0.726388	-84.98	3.29	46.2	-0.2937	-0.0082	-0.4944	
0.392962	-0.310978	0.703452	-87.29	5.11	47.18	-0.2881	0.0135	-0.4973	
0.380274	-0.354166	0.680516	-87.85	4.06	47.04	-0.2865	0.0275	-0.4909	
0.363072	-0.398208	0.659288	-88.27	5.67	48.51	-0.2935	0.0399	-0.4879	
0.344284	-0.435662	0.646722	-88.97	4.9	49.63	-0.2934	0.0632	-0.4877	
0.31781	-0.458476	0.611708	-90.51	5.6	50.12	-0.2835	0.0819	-0.4889	
0.291214	-0.499346	0.594384	-92.54	5.6	51.52	-0.2806	0.09739999	-0.4887	
0.263154	-0.536556	0.551318	-92.82	5.46	50.26	-0.2819	0.113	-0.484	
0.233874	-0.578524	0.508496	-94.71	5.6	56.14	-0.2746	0.1317	-0.4744	
0.217038	-0.654042	0.468602	-94.36	4.27	55.51	-0.2716	0.1442	-0.4665	
0.216184	-0.665876	0.43005	-93.87	6.16	55.72	-0.2658	0.1552	-0.4601	
0.199836	-0.664046	0.427976	-94.99	8.12	56.14	-0.2573	0.1847	-0.4597	
0.17568	-0.68076	0.406626	-95.55	8.89	54.32	-0.253	0.2034	-0.4595	
0.17019	-0.685274	0.374784	-95.83	9.1	49.91	-0.2542	0.2066	-0.4471	
0.155306	-0.756888	0.344772	-98.42	10.08	52.36	-0.2513	0.2252	-0.4454	
0.1281	-0.837652	0.318664	-97.09	7.98	48.79	-0.2342	0.2548	-0.4417	
0.097234	-0.872788	0.298412	-94.29	4.34	43.75	-0.2411	0.2673	-0.434	
0.067832	-0.901946	0.27633	-92.47	3.57	46.62	-0.238	0.2783	-0.423	
0.047946	-0.922808	0.243146	-92.61	2.52	45.01	-0.221	0.2893	-0.4164	
0.04087	-0.945988	0.200446	-91.7	0.56	44.31	-0.2164	0.308	-0.3991	
0.049654	-1.001742	0.144204	-83.51	0.42	41.72	-0.2189	0.3144	-0.3821	
0.030012	-1.004182	0.133346	-77.49	-0.77	37.38	-0.2105	0.3377	-0.3879	
0.003538	-0.988688	0.11163	-73.78	-1.54	33.32	-0.2103	0.3408	-0.3802	
-0.001952	-1.00345	0.069784	-69.86	-2.8	32.97	-0.206	0.3393	-0.3708	
-0.005612	-1.031388	0.057828	-67.76	-6.23	31.64	-0.1932	0.3596	-0.3673	
0.01098	-1.048224	0.065636	-62.44	-5.25	31.71	-0.2	0.3752	-0.358	
-0.00183	-1.070672	0.04758	-58.73	-6.23	28.91	-0.1926	0.366	-0.3378	
-0.015128	-1.080432	0.04697	-53.62	-6.02	25.97	-0.1871	0.3754	-0.3422	
-0.026962	-1.077626	0.007564	-48.93	-6.51	23.31	-0.1784	0.3879	-0.3327	
-0.032574	-1.058228	-0.01464	-47.88	-8.82	22.12	-0.1811	0.3972	-0.328	
-0.037698	-1.078114	-0.017934	-46.13	-12.6	19.81	-0.1837	0.3988	-0.3172	
-0.036478	-1.11996	-0.019032	-44.45	-15.05	18.76	-0.1794	0.402	-0.3124	
-0.036844	-1.11813	-0.019154	-40.6	-16.66	16.03	-0.1821	0.3989	-0.3048	
-0.037332	-1.088606	-0.03904	-36.4	-16.38	16.03	-0.1679	0.4083	-0.3013	
-0.019886	-1.060424	-0.049288	-33.67	-14.77	14.35	-0.1664	0.4099	-0.2951	
-0.0183	-1.051396	-0.040504	-33.25	-13.3	15.47	-0.1706	0.4161	-0.2951	
-0.017446	-1.041392	-0.043554	-31.99	-8.19	10.85	-0.1774	0.4177	-0.2844	
-0.036966	-1.04737	-0.065392	-30.52	-7.63	8.47	-0.1717	0.4147	-0.2781	
-0.025986	-1.043222	-0.076128	-27.72	-5.95	7.98	-0.1702	0.421	-0.2734	
-0.020374	-1.05347	-0.074786	-27.51	-4.97	6.86	-0.1744	0.4271	-0.2749	
-0.029036	-1.04554	-0.090524	-27.02	-3.36	4.83	-0.1687	0.4288	-0.2686	
-0.036356	-1.065548	-0.105652	-27.72	-2.31	3.43	-0.163	0.4304	-0.2623	
-0.05124	-1.100684	-0.11529	-25.48	-3.08	3.15	-0.1699	0.432	-0.2562	
-0.050386	-1.098976	-0.126636	-21	-4.48	2.8	-0.1726	0.4335	-0.2532	
-0.055998	-1.089704	-0.143228	-17.5	-6.02	1.68	-0.1655	0.4382	-0.2499	
-0.048312	-1.094462	-0.133224	-15.33	-6.79	0.14	-0.1685	0.4335	-0.2608	
-0.054778	-1.094218	-0.137006	-11.9	-6.09	-1.33	-0.1684	0.4351	-0.2546	
-0.050386	-1.090314	-0.145546	-8.68	-5.46	-0.98	-0.1597	0.4321	-0.2374	
-0.052216	-1.100318	-0.1525	-6.3	-5.11	-1.82	-0.1626	0.4398	-0.2467	
-0.046604	-1.098366	-0.15433	-2.45	-4.83	-3.01	-0.1725	0.4398	-0.2469	
-0.04575	-1.096658	-0.15311	0.98	-4.27	-2.87	-0.1696	0.4383	-0.2422	
-0.030256	-1.082384	-0.144326	7.35	-1.89	-11.13	-0.164	0.4367	-0.2437	
-0.02989	-1.088362	-0.142618	15.82	-3.22	-9.17	-0.1781	0.432	-0.2471	
-0.022448	-1.090192	-0.132492	22.75	-4.9	-11.9	-0.1754	0.4335	-0.2486	
-0.01708	-1.077504	-0.120902	25.13	-4.97	-12.39	-0.1782	0.4289	-0.2517	
-0.009272	-1.073478	-0.10919	25.13	-2.87	-13.65	-0.177	0.4226	-0.2611	
0.001342	-1.055178	-0.09552599	26.04	-2.17	-15.82	-0.1826	0.4303	-0.2627	
0.001098	-1.052128	-0.08967	26.46	-3.29	-14.28	-0.1939	0.424	-0.2645	
0.016226	-1.038952	-0.074786	25.76	-0.14	-18.62	-0.1841	0.4132	-0.2644	
0.01891	-1.048956	-0.063074	19.67	3.43	-13.58	-0.1884	0.424	-0.269	
0.024278	-1.048224	-0.065026	19.6	2.17	-14.28	-0.1814	0.4147	-0.269	
0.032452	-1.049566	-0.051606	16.38	5.67	-11.55	-0.1885	0.4209	-0.2737	
0.034892	-1.036634	-0.047702	12.74	8.75	-9.03	-0.1829	0.4147	-0.2721	
0.025498	-1.043222	-0.04758	10.92	11.69	-8.61	-0.1943	0.4115	-0.2816	
0.032696	-1.04798	-0.047458	13.23	11.34	-10.15	-0.1887	0.4069	-0.28	
0.022082	-1.079822	-0.04392	16.17	9.94	-11.27	-0.1944	0.4084	-0.2848	
0.023424	-1.082384	-0.032208	22.05	7.7	-11.55	-0.2016	0.4083	-0.2942	
0.029036	-1.075186	-0.030378	27.44	6.58	-12.95	-0.1944	0.4021	-0.2879	
0.036356	-1.078358	-0.02623	31.71	6.86	-15.26	-0.196	0.399	-0.2942	
0.040382	-1.079212	-0.016104	35.91	6.86	-18.2	-0.1904	0.4036	-0.3002	
0.043798	-1.07726	-0.00854	39.34	4.69	-19.32	-0.2045	0.3911	-0.2991	
0.069662	-1.041148	0.02745	42.14	4.97	-19.46	-0.2061	0.3957	-0.313	
0.077836	-1.03456	0.03843	40.53	6.09	-18.97	-0.2104	0.3786	-0.3117	
0.082472	-1.040172	0.049776	39.27	7.98	-19.32	-0.219	0.3816	-0.3211	
0.074542	-1.033706	0.049532	38.5	9.45	-19.32	-0.2121	0.3769	-0.3257	
0.069784	-1.044808	0.049044	37.87	10.22	-18.13	-0.215	0.3691	-0.332	
0.083448	-1.0309	0.062952	39.27	10.78	-19.25	-0.2221	0.3613	-0.3337	
0.091134	-1.021506	0.07515199	39.97	11.41	-20.44	-0.221	0.3565	-0.3492	
0.0976	-1.019798	0.092232	41.51	11.83	-21.7	-0.2254	0.3456	-0.3556	
0.099918	-1.015772	0.103822	43.61	11.48	-21.35	-0.2252	0.355	-0.3478	
0.09467199	-1.036756	0.110044	46.27	11.69	-21.56	-0.2184	0.344	-0.3601	
0.09747799	-1.04493	0.128588	50.19	11.06	-21.7	-0.22	0.3408	-0.3711	
0.099674	-1.0309	0.154818	53.55	9.45	-21.28	-0.2299	0.3284	-0.3713	
0.124562	-1.01382	0.193126	55.3	8.61	-21.63	-0.2272	0.3237	-0.3744	
0.152866	-0.978074	0.240462	54.67	9.1	-21.07	-0.2301	0.319	-0.3776	
0.15921	-0.957212	0.260836	51.94	10.57	-19.81	-0.2304	0.308	-0.3932	
0.151646	-0.961238	0.267424	49.56	12.39	-17.01	-0.2276	0.308	-0.3947	
0.135298	-0.94916	0.292922	49	12.32	-14.42	-0.2306	0.3033	-0.4072	
0.121634	-0.926956	0.28426	48.93	10.15	-11.69	-0.2293	0.2939	-0.4103	
0.125172	-0.951112	0.309758	48.3	8.75	-8.19	-0.2377	0.2815	-0.4059	
0.127978	-0.904142	0.34953	52.01	6.93	-9.31	-0.2366	0.2767	-0.423	
0.14518	-0.833626	0.385886	54.53	3.15	-10.64	-0.2269	0.2814	-0.4274	
0.156404	-0.776286	0.396256	54.74	-1.54	-10.15	-0.2353	0.2612	-0.4231	
0.163358	-0.743102	0.428586	53.83	-5.81	-10.15	-0.2454	0.2595	-0.4388	
0.188978	-0.711016	0.464576	52.92	-9.87	-10.85	-0.2498	0.2501	-0.4467	
0.218746	-0.6588	0.496906	51.94	-11.48	-11.76	-0.247	0.2517	-0.4451	
0.236436	-0.646844	0.535702	49.35	-11.55	-12.53	-0.2456	0.2346	-0.4452	
0.241316	-0.63379	0.55388	46.06	-11.13	-13.3	-0.2442	0.2299	-0.4437	
0.268888	-0.61244	0.569374	40.46	-9.03	-13.51	-0.2584	0.2112	-0.4503	
0.297924	-0.619272	0.612684	36.12	-6.09	-12.11	-0.2558	0.2049	-0.4596	
0.301584	-0.619638	0.659288	33.18	-3.15	-10.85	-0.2615	0.2096	-0.4612	
0.299754	-0.591456	0.673074	32.06	-2.94	-10.36	-0.2572	0.2065	-0.4611	
0.301706	-0.573034	0.684664	29.33	-3.57	-11.62	-0.2557	0.2034	-0.4518	
0.29463	-0.565836	0.69601	24.64	-4.55	-11.13	-0.2601	0.1925	-0.4613	
0.28609	-0.56974	0.692228	20.23	-6.23	-12.67	-0.2602	0.1893	-0.4644	
0.270108	-0.590968	0.677832	15.68	-8.82	-12.11	-0.2658	0.1847	-0.4646	
0.266326	-0.621956	0.669536	12.88	-10.78	-11.13	-0.2618	0.1846	-0.4738	
0.276696	-0.62159	0.662704	11.76	-12.74	-11.2	-0.2643	0.1878	-0.4599	
0.29036	-0.610122	0.67344	9.66	-14.63	-11.48	-0.2616	0.1707	-0.4646	
0.290116	-0.60207	0.676002	5.39	-18.48	-12.39	-0.2713	0.18	-0.4554	
0.2745	-0.602314	0.648552	0.28	-21.63	-14.21	-0.2797	0.1692	-0.4525	
0.272792	-0.617076	0.626714	-4.83	-24.22	-15.47	-0.2769	0.1738	-0.454	
0.289384	-0.640744	0.619028	-8.68	-25.97	-17.15	-0.2769	0.1769	-0.4555	
0.308294	-0.638182	0.615856	-12.25	-27.3	-18.13	-0.2881	0.1723	-0.4496	
0.310612	-0.626226	0.602436	-16.38	-28.42	-18.83	-0.2881	0.1723	-0.448	
0.309758	-0.638426	0.574498	-20.37	-30.1	-20.86	-0.3049	0.1737	-0.4483	
0.323666	-0.649162	0.546072	-22.47	-31.71	-22.89	-0.3047	0.1723	-0.4359	
0.33794	-0.668438	0.53802	-24.36	-33.04	-25.06	-0.2976	0.1739	-0.4311	
0.352458	-0.675514	0.525088	-25.62	-33.74	-27.09	-0.3104	0.1785	-0.4391	
0.358436	-0.699426	0.525454	-27.16	-34.09	-29.19	-0.3201	0.1769	-0.4331	
0.363438	-0.707478	0.501908	-28.07	-35.28	-32.13	-0.3227	0.1692	-0.4193	
0.385398	-0.730658	0.507886	-29.89	-35.91	-34.44	-0.324	0.191	-0.416	
0.382348	-0.706868	0.456158	-28.84	-35.49	-38.01	-0.324	0.191	-0.416	
0.40687	-0.676612	0.438102	-27.37	-30.17	-43.47	-0.3407	0.1708	-0.4041	
0.437248	-0.750056	0.456768	-30.59	-32.69	-48.72	-0.3421	0.1708	-0.401	
0.475434	-0.773602	0.453352	-27.3	-35.77	-52.71	-0.3533	0.1615	-0.3967	
0.509106	-0.742004	0.417362	-22.82	-35.7	-52.22	-0.3586	0.1585	-0.3797	
0.526674	-0.685518	0.37515	-18.97	-32.41	-50.96	-0.3671	0.1585	-0.3814	
0.559736	-0.665754	0.389912	-19.88	-27.16	-50.82	-0.3599	0.1601	-0.3766	
0.565226	-0.707112	0.409188	-24.5	-24.99	-54.11	-0.3698	0.1476	-0.3723	
0.572302	-0.739686	0.391742	-27.09	-24.29	-53.69	-0.3797	0.1522	-0.3771	
0.570106	-0.727852	0.347212	-24.71	-23.87	-52.43	-0.3837	0.1492	-0.3648	
0.582794	-0.729316	0.329156	-24.57	-24.01	-51.31	-0.3921	0.1476	-0.3618	
0.582794	-0.75518	0.31415	-24.22	-24.5	-50.26	-0.4033	0.1414	-0.359	
0.60268	-0.72895	0.295362	-21.14	-26.18	-49.35	-0.3949	0.1399	-0.3604	
0.64843	-0.7015	0.276208	-19.53	-27.37	-48.86	-0.399	0.1244	-0.3513	
0.683932	-0.675636	0.26779	-19.46	-30.66	-49.21	-0.413	0.1197	-0.3454	
0.720288	-0.660874	0.253638	-19.04	-33.11	-47.32	-0.4159	0.129	-0.3531	
0.743224	-0.654042	0.257054	-19.95	-32.27	-46.83	-0.4198	0.1198	-0.3331	
0.787388	-0.648796	0.256566	-21.14	-31.92	-46.34	-0.4183	0.1167	-0.3285	
0.820572	-0.641232	0.22936	-19.67	-30.87	-44.66	-0.4254	0.1105	-0.3286	
0.84607	-0.658068	0.196908	-16.66	-27.44	-41.09	-0.4308	0.1028	-0.3149	
0.83814	-0.657458	0.169214	-15.47	-25.41	-36.4	-0.4279	0.1028	-0.3148	
0.824842	-0.637572	0.165676	-11.48	-23.73	-32.13	-0.4307	0.1028	-0.3118	
0.824232	-0.601826	0.165554	-7.14	-23.31	-28.84	-0.446	0.0966	-0.3028	
0.824842	-0.576206	0.14701	-5.95	-24.22	-27.23	-0.4476	0.0826	-0.3076	
0.842898	-0.574742	0.153476	-5.67	-25.69	-26.11	-0.449	0.0872	-0.3091	
0.86315	-0.558272	0.165676	-3.22	-28.14	-24.01	-0.4459	0.0873	-0.2951	
0.890234	-0.537654	0.146766	-1.68	-25.9	-20.86	-0.4501	0.0765	-0.2906	
0.887916	-0.54473	0.129564	-0.77	-22.26	-19.6	-0.4416	0.075	-0.2858	
0.889502	-0.549244	0.118706	-0.49	-20.3	-17.43	-0.4487	0.0734	-0.2922	
0.889746	-0.542412	0.13664	-1.54	-19.25	-13.93	-0.4528	0.0656	-0.2845	
0.887672	-0.534848	0.129564	-2.45	-17.15	-10.5	-0.45	0.0734	-0.2813	
0.901458	-0.550586	0.123098	-2.59	-14.14	-8.61	-0.4595	0.0735	-0.2645	
0.890966	-0.560468	0.11529	-0.56	-10.85	-6.72	-0.4584	0.06879999	-0.2784	
0.901702	-0.557174	0.108824	0.98	-7.84	-4.62	-0.4582	0.06879999	-0.2722	
0.890722	-0.532164	0.106384	3.5	-5.11	-2.59	-0.4581	0.06879999	-0.266	
0.886574	-0.517646	0.101626	3.15	-3.22	-2.1	-0.4497	0.072	-0.2674	
0.902678	-0.53619	0.119194	0.56	-1.05	-2.52	-0.4568	0.0611	-0.266	
0.911096	-0.550464	0.111874	-0.7	1.68	-0.07	-0.4569	0.0564	-0.2754	
0.888526	-0.55205	0.101382	-0.14	4.13	3.22	-0.461	0.0673	-0.2676	
0.881084	-0.56425	0.09552599	0.63	5.53	5.39	-0.4569	0.0703	-0.2737	
0.88877	-0.569496	0.100528	1.47	6.51	6.58	-0.4583	0.0672	-0.2738	
0.912682	-0.589016	0.119316	0.84	9.03	7.7	-0.4541	0.0734	-0.2768	
0.912194	-0.597678	0.124928	2.45	11.2	11.27	-0.4655	0.064	-0.2848	
0.923418	-0.611952	0.13481	3.92	15.89	13.3	-0.4568	0.0673	-0.2706	
0.90768	-0.60756	0.122	7.63	18.9	16.17	-0.4569	0.0765	-0.2783	
0.893406	-0.614148	0.139202	7.28	22.54	18.76	-0.4526	0.0766	-0.2752	
0.879498	-0.631106	0.14518	6.65	27.02	22.33	-0.4556	0.0765	-0.2814	
0.881694	-0.634156	0.171166	8.82	31.85	28.42	-0.4459	0.0827	-0.2951	
0.890722	-0.612318	0.168848	12.53	35.28	33.18	-0.4475	0.0841	-0.3045	
0.886452	-0.617808	0.168848	13.58	39.2	35.28	-0.4503	0.081	-0.303	
0.84119	-0.626348	0.145424	14.07	41.23	38.29	-0.4336	0.095	-0.315	
0.817156	-0.650138	0.152988	13.37	41.93	42.21	-0.4307	0.0857	-0.3088	
0.83631	-0.709308	0.196664	16.45	44.94	54.32	-0.4266	0.095	-0.3195	
0.83265	-0.707844	0.236192	21.98	48.37	63.77	-0.4128	0.1027	-0.3347	
0.823744	-0.672098	0.277916	29.26	52.5	71.4	-0.4156	0.112	-0.3331	
0.768722	-0.596092	0.272304	28.49	48.72	69.51	-0.4018	0.1166	-0.3483	
0.741028	-0.64965	0.227774	22.75	42.84	67.55	-0.4032	0.129	-0.3529	
0.73139	-0.709064	0.236924	25.9	44.38	70.42	-0.3921	0.1321	-0.3604	
0.731756	-0.707844	0.235216	32.76	46.69	73.15	-0.3868	0.1335	-0.3789	
0.72773	-0.689056	0.273036	38.43	52.99	76.23	-0.3714	0.1553	-0.3862	
0.68503	-0.653676	0.354654	40.67	56.98	77.14	-0.3672	0.1413	-0.3862	
0.631716	-0.623664	0.321226	38.5	54.67	79.52	-0.3504	0.1522	-0.392	
0.595238	-0.625128	0.315614	37.87	55.65	79.1	-0.3592	0.1629	-0.4123	
0.557052	-0.6893	0.359412	36.61	57.96	79.1	-0.3392	0.1631	-0.3979	
0.521916	-0.736514	0.443958	34.16	54.81	79.31	-0.3352	0.1677	-0.4118	
0.469822	-0.725412	0.425658	37.38	49.21	76.72	-0.3186	0.1708	-0.4238	
0.428464	-0.705526	0.476776	40.88	51.52	74.55	-0.3074	0.1785	-0.4282	
0.388082	-0.701012	0.504226	44.45	55.44	72.24	-0.2949	0.1801	-0.4404	
0.364658	-0.714066	0.545462	45.29	56.84	70.56	-0.2881	0.1723	-0.448	
0.327692	-0.667828	0.525454	46.41	54.53	69.09	-0.2855	0.1815	-0.465	
0.292556	-0.597434	0.532652	48.02	55.79	66.78	-0.2672	0.1707	-0.4631	
0.244976	-0.611464	0.535214	45.22	57.82	62.79	-0.256	0.1816	-0.4644	
0.19398	-0.691862	0.574864	44.87	59.22	58.03	-0.2422	0.1722	-0.4781	
0.12139	-0.72041	0.564372	48.44	59.01	54.67	-0.2395	0.1707	-0.4828	
0.058438	-0.665266	0.535824	52.64	56.21	53.2	-0.2297	0.1691	-0.4857	
0.007076	-0.615734	0.525454	53.9	53.27	52.5	-0.2129	0.166	-0.4916	
-0.0183	-0.636596	0.539118	52.92	50.54	51.59	-0.2173	0.166	-0.4994	
-0.016226	-0.671488	0.600118	54.67	48.37	50.89	-0.2047	0.1567	-0.5023	
-0.063806	-0.606828	0.671854	58.17	44.03	48.16	-0.1823	0.1536	-0.5066	
-0.09357399	-0.587674	0.726998	56.21	38.99	46.27	-0.1755	0.1474	-0.5173	
-0.108702	-0.593652	0.77775	52.78	34.86	42.7	-0.1658	0.1411	-0.525	
-0.102846	-0.577182	0.794586	49.63	30.31	38.71	-0.1603	0.1333	-0.5296	
-0.095282	-0.569618	0.787632	45.57	28.56	37.45	-0.1631	0.1256	-0.525	
-0.096868	-0.577304	0.795196	42.07	30.1	36.75	-0.152	0.1194	-0.5341	
-0.111752	-0.55083	0.78019	40.46	31.43	35.7	-0.145	0.1225	-0.5355	
-0.129076	-0.502396	0.77897	38.71	32.2	33.25	-0.1353	0.1069	-0.5432	
-0.14579	-0.495442	0.757986	36.26	32.62	29.54	-0.1382	0.1023	-0.5433	
-0.144936	-0.544608	0.746884	34.72	33.67	26.11	-0.1256	0.0977	-0.5446	
-0.176656	-0.54351	0.761036	36.54	35.28	23.59	-0.1243	0.0945	-0.5524	
-0.21533	-0.51057	0.779946	37.45	34.16	21.91	-0.1172	0.0806	-0.5477	
-0.23424	-0.482144	0.801052	36.26	30.94	19.6	-0.1074	0.08989999	-0.5521	
-0.270596	-0.48068	0.81496	34.23	27.44	17.99	-0.1018	0.0713	-0.549	
-0.290482	-0.50142	0.849608	31.71	24.22	17.85	-0.1132	0.0743	-0.557	
-0.313052	-0.517402	0.87108	29.61	20.65	16.8	-0.0951	0.0728	-0.5659	
-0.321714	-0.48495	0.876326	27.72	16.17	16.17	-0.09209999	0.0604	-0.5792	
-0.31354	-0.453596	0.874252	23.94	12.18	15.82	-0.095	0.0604	-0.5567	
-0.301462	-0.431758	0.86986	20.02	9.17	14.7	-0.081	0.06659999	-0.5626	
-0.278038	-0.422242	0.865834	17.22	6.93	12.04	-0.0935	0.0511	-0.549	
-0.265716	-0.389424	0.865102	15.68	6.02	9.52	-0.0796	0.0604	-0.5626	
-0.277062	-0.392596	0.85644	13.93	4.83	6.44	-0.0865	0.0465	-0.552	
-0.27694	-0.371246	0.870348	12.74	2.94	3.99	-0.0852	0.0418	-0.5551	
-0.27633	-0.350628	0.886818	10.5	1.05	1.26	-0.085	0.0465	-0.5489	
-0.274012	-0.354898	0.894016	8.12	-1.12	-0.98	-0.0852	0.0372	-0.5552	
-0.288408	-0.376248	0.901336	6.58	-4.48	-3.01	-0.088	0.0449	-0.5551	
-0.281332	-0.358314	0.892552	5.6	-6.09	-2.94	-0.0782	0.0418	-0.5596	
-0.282064	-0.37515	0.895114	3.43	-7.7	-2.8	-0.0851	0.0372	-0.552	
-0.28731	-0.353434	0.918538	2.24	-9.03	-4.2	-0.09079999	0.048	-0.5583	
-0.316224	-0.353434	0.909754	-1.12	-11.2	-5.95	-0.0866	0.0433	-0.5582	
-0.315126	-0.364292	0.912804	-3.99	-13.79	-8.89	-0.091	0.0402	-0.5661	
-0.324276	-0.36295	0.905484	-7.35	-16.66	-10.78	-0.0924	0.0355	-0.5662	
-0.314394	-0.33611	0.90341	-11.06	-19.67	-11.34	-0.0979	0.0479	-0.5615	
-0.289384	-0.354776	0.911462	-15.89	-22.89	-12.18	-0.0979	0.0449	-0.5584	
-0.271206	-0.361608	0.904874	-19.88	-26.18	-13.93	-0.102	0.048	-0.557	
-0.269498	-0.374174	0.888038	-23.94	-29.89	-16.38	-0.1105	0.0386	-0.5572	
-0.254614	-0.364536	0.881206	-27.58	-33.81	-18.62	-0.1104	0.0464	-0.5525	
-0.237046	-0.379786	0.869006	-32.27	-37.87	-20.51	-0.1188	0.0603	-0.5525	
-0.20496	-0.38186	0.865346	-36.82	-42.07	-22.19	-0.1244	0.0541	-0.5511	
-0.18361	-0.400038	0.843874	-41.93	-45.08	-24.85	-0.1357	0.0649	-0.5528	
-0.154696	-0.41358	0.840946	-45.5	-46.27	-27.72	-0.1313	0.0743	-0.548	
-0.122	-0.419802	0.83753	-48.58	-47.67	-31.08	-0.1466	0.0852	-0.5389	
-0.098698	-0.457134	0.826794	-52.71	-49.77	-34.37	-0.1606	0.0805	-0.533	
-0.075396	-0.4819	0.812276	-54.88	-50.47	-38.08	-0.1619	0.0898	-0.533	
-0.065392	-0.493124	0.799954	-56.84	-50.82	-40.88	-0.1675	0.0991	-0.5299	
-0.030012	-0.51789	0.78446	-59.29	-50.75	-43.4	-0.1829	0.1161	-0.5332	
0.003782	-0.52765	0.761524	-61.88	-49.98	-46.2	-0.1968	0.1177	-0.5226	
0.030744	-0.531432	0.71126	-63.91	-49.07	-49.98	-0.2054	0.1192	-0.5305	
0.07564	-0.563762	0.680638	-65.66	-48.09	-53.13	-0.2037	0.1255	-0.515	
0.111752	-0.620004	0.657458	-66.08	-47.18	-55.44	-0.2132	0.1302	-0.5011	
0.15677	-0.631228	0.641842	-66.15	-45.78	-56.7	-0.2316	0.1441	-0.5076	
0.21655	-0.65819	0.586698	-69.58	-43.19	-58.45	-0.2385	0.1364	-0.4985	
0.239242	-0.710528	0.554978	-70.49	-41.44	-59.22	-0.2383	0.1457	-0.4922	
0.257664	-0.72163	0.509716	-67.97	-41.3	-59.5	-0.2522	0.1504	-0.4847	
0.274256	-0.66734	0.487024	-66.01	-42.49	-58.8	-0.2689	0.1628	-0.4741	
0.301584	-0.664656	0.444446	-66.29	-44.66	-59.78	-0.2674	0.166	-0.4725	
0.360144	-0.687836	0.458232	-65.87	-45.92	-60.48	-0.2772	0.1737	-0.4726	
0.383934	-0.687958	0.428586	-63.84	-47.39	-63.63	-0.2868	0.1706	-0.4573	
0.428342	-0.707722	0.410774	-62.93	-48.93	-65.31	-0.295	0.1692	-0.442	
0.46299	-0.747128	0.41236	-61.81	-49.98	-63.63	-0.3019	0.1878	-0.4389	
0.49715	-0.7564	0.39162	-59.43	-50.47	-62.09	-0.3102	0.1801	-0.4313	
0.518012	-0.729438	0.39589	-56.14	-48.58	-61.04	-0.3212	0.1832	-0.4176	
0.54046	-0.712968	0.353434	-54.95	-46.2	-61.18	-0.3282	0.1739	-0.4131	
0.5551	-0.750422	0.299022	-53.41	-43.33	-60.83	-0.3322	0.1693	-0.4008	
0.614392	-0.79178	0.295728	-49.07	-40.67	-59.43	-0.3448	0.1678	-0.3949	
0.623786	-0.767136	0.310124	-39.69	-36.47	-59.29	-0.3559	0.1662	-0.3874	
0.668316	-0.732488	0.328058	-37.94	-34.16	-60.41	-0.3643	0.1678	-0.3844	
0.66795	-0.706258	0.31049	-34.44	-28.63	-62.65	-0.3683	0.1725	-0.3736	
0.637694	-0.693326	0.2745	-35.07	-23.24	-65.24	-0.3753	0.1616	-0.3723	
0.614758	-0.730658	0.220576	-36.33	-20.09	-65.87	-0.371	0.171	-0.3675	
0.628788	-0.798002	0.2318	-36.26	-20.09	-65.87	-0.3977	0.1523	-0.3635	
0.636352	-0.794342	0.217648	-28.35	-20.44	-65.45	-0.3891	0.1555	-0.3524	
0.666608	-0.746884	0.252296	-24.99	-22.96	-65.87	-0.3933	0.1477	-0.3541	
0.70211	-0.757376	0.237534	-21.49	-25.83	-61.39	-0.3989	0.1399	-0.3465	
0.726022	-0.742126	0.23302	-16.1	-27.37	-55.51	-0.4059	0.1399	-0.3451	
0.757132	-0.723704	0.23302	-11.83	-30.1	-49.56	-0.4058	0.1338	-0.339	
0.81435	-0.692228	0.228872	-7.77	-29.33	-43.82	-0.4058	0.1198	-0.336	
0.842288	-0.635864	0.19947	-6.37	-23.24	-41.02	-0.4126	0.1168	-0.3222	
0.856684	-0.652578	0.198372	-7.84	-20.37	-40.46	-0.4323	0.1089	-0.321	
0.833626	-0.646844	0.197762	-5.32	-19.18	-37.31	-0.4265	0.109	-0.3163	
0.837652	-0.616954	0.18056	-4.41	-20.65	-34.65	-0.4265	0.0966	-0.3133	
0.842166	-0.603412	0.180194	-4.2	-19.88	-31.29	-0.4295	0.09649999	-0.3211	
0.840336	-0.60451	0.152866	-4.62	-18.41	-27.3	-0.4321	0.0919	-0.3072	
0.827404	-0.591334	0.148718	-2.45	-16.17	-25.06	-0.4405	0.0764	-0.3059	
0.840702	-0.571936	0.132492	-1.82	-17.85	-24.99	-0.4335	0.0826	-0.3089	
0.864492	-0.565836	0.168726	-2.94	-18.2	-24.43	-0.4349	0.0795	-0.3058	
0.870836	-0.546072	0.141154	-0.56	-16.8	-24.15	-0.4447	0.0857	-0.3028	
0.856684	-0.562298	0.120902	-0.84	-15.75	-26.11	-0.4503	0.0764	-0.2999	
0.869128	-0.57889	0.144936	0.56	-14.91	-25.41	-0.4461	0.0686	-0.3014	
0.877302	-0.538752	0.150914	6.79	-13.23	-21.07	-0.4473	0.0656	-0.286	
0.879498	-0.498004	0.146278	11.2	-10.99	-18.34	-0.446	0.0625	-0.2937	
0.868152	-0.498492	0.123464	10.57	-8.47	-18.62	-0.4446	0.0718	-0.2936	
0.872056	-0.529602	0.12261	7.7	-7.63	-18.2	-0.4515	0.0578	-0.2877	
0.878156	-0.53924	0.143594	7.84	-7	-15.54	-0.4531	0.0562	-0.297	
0.886086	-0.519598	0.147742	9.38	-5.74	-11.97	-0.4571	0.0501	-0.2847	
0.904386	-0.521794	0.14701	9.66	-3.5	-9.31	-0.4516	0.0438	-0.2909	
0.918538	-0.524478	0.15738	11.55	-0.42	-5.81	-0.4558	0.0392	-0.2879	
0.90951	-0.495442	0.146644	14.91	1.4	-1.82	-0.453	0.0516	-0.2908	
0.905484	-0.486292	0.143228	14.21	2.03	-1.96	-0.4572	0.0376	-0.2864	
0.903654	-0.491538	0.149572	12.53	3.71	-1.26	-0.4446	0.0361	-0.2892	
0.895114	-0.492026	0.15189	13.37	5.6	0.98	-0.4487	0.0439	-0.2862	
0.914512	-0.473726	0.161162	13.65	5.81	3.85	-0.4544	0.0377	-0.2848	
0.92354	-0.483364	0.165432	11.69	7.91	6.79	-0.453	0.0392	-0.2894	
0.93696	-0.492026	0.182878	11.9	10.22	8.4	-0.4517	0.0454	-0.294	
0.943548	-0.502518	0.18727	10.64	11.41	10.43	-0.456	0.036	-0.2972	
0.959164	-0.51423	0.20374	9.24	14	14.42	-0.4404	0.0392	-0.2922	
0.956968	-0.53314	0.21594	8.05	17.08	19.11	-0.4545	0.0453	-0.2971	
0.938668	-0.520696	0.214476	10.99	19.88	26.18	-0.4521	0.039	-0.3157	
0.933056	-0.510692	0.22021	11.2	24.36	28.77	-0.4421	0.05	-0.3093	
0.92598	-0.522892	0.212402	9.59	28.7	31.99	-0.4477	0.0515	-0.3094	
0.915244	-0.548268	0.22265	9.66	32.62	35.77	-0.4407	0.0562	-0.3123	
0.904874	-0.556198	0.230458	12.53	35.28	40.25	-0.4352	0.0561	-0.3168	
0.896578	-0.557418	0.241194	13.86	36.96	44.38	-0.438	0.0639	-0.3199	
0.868884	-0.551562	0.242048	15.05	40.46	48.72	-0.427	0.0638	-0.3306	
0.851438	-0.54229	0.239486	14.42	44.24	51.8	-0.4283	0.0654	-0.3259	
0.839238	-0.557174	0.280478	12.81	48.58	55.65	-0.4273	0.07759999	-0.3537	
0.834968	-0.574254	0.316346	13.02	52.08	60.9	-0.4048	0.0871	-0.3517	
0.78568	-0.572302	0.326228	15.68	53.83	66.22	-0.4048	0.0871	-0.3532	
0.757742	-0.547292	0.29341	16.24	53.06	68.18	-0.4006	0.1057	-0.3577	
0.754814	-0.55205	0.346724	11.97	53.27	67.83	-0.391	0.0994	-0.3715	
0.709796	-0.593652	0.365878	6.37	53.48	70.35	-0.3854	0.1118	-0.3728	
0.688324	-0.63684	0.346114	6.44	52.29	73.08	-0.3716	0.118	-0.3896	
0.643184	-0.66734	0.376736	9.24	51.38	77.7	-0.3618	0.1319	-0.3986	
0.598898	-0.67405	0.367342	9.45	44.24	80.92	-0.3618	0.1335	-0.3986	
0.574376	-0.704062	0.355508	9.8	36.61	82.6	-0.3535	0.1459	-0.4061	
0.537532	-0.714432	0.367098	15.82	33.67	84.35	-0.338	0.1615	-0.4088	
0.516914	-0.72224	0.390888	20.44	34.16	84.14	-0.3438	0.1505	-0.3927	
0.490684	-0.735538	0.412116	23.66	36.68	85.33	-0.3242	0.163	-0.4255	
0.438346	-0.763842	0.473848	27.02	37.87	85.26	-0.2989	0.1739	-0.4281	
0.378322	-0.767502	0.452254	30.38	36.96	85.89	-0.2921	0.1801	-0.4372	
0.346602	-0.781532	0.481412	32.41	38.43	87.64	-0.2934	0.1879	-0.4341	
0.305854	-0.78019	0.49166	38.92	41.09	88.97	-0.2825	0.194	-0.4555	
0.270352	-0.750666	0.511424	42.07	41.72	85.96	-0.2643	0.1956	-0.4598	
0.215452	-0.712602	0.517036	44.59	41.72	83.86	-0.26	0.194	-0.4582	
0.141154	-0.712114	0.484462	44.17	40.74	82.6	-0.2602	0.2017	-0.469	
0.097722	-0.740296	0.503006	45.78	40.11	80.15	-0.2407	0.2017	-0.4779	
0.099796	-0.696742	0.52704	51.24	39.69	76.93	-0.2225	0.1925	-0.4823	
0.095892	-0.620858	0.519964	51.38	38.08	74.06	-0.2184	0.1925	-0.4853	
0.063562	-0.63806	0.536922	50.05	37.17	68.04	-0.207	0.1894	-0.4804	
-0.008905999	-0.659288	0.543022	50.33	35.21	62.44	-0.199	0.1816	-0.4989	
-0.038064	-0.670878	0.577792	49.77	31.99	57.26	-0.199	0.1769	-0.499	
-0.025864	-0.661362	0.613904	50.96	28.98	50.4	-0.175	0.177	-0.4939	
-0.017202	-0.670756	0.630984	51.45	26.46	44.1	-0.1836	0.1676	-0.5019	
-0.023424	-0.684054	0.685518	52.99	26.18	40.25	-0.1725	0.1707	-0.5109	
-0.07515199	-0.661484	0.734806	54.81	25.06	36.96	-0.1741	0.1691	-0.5218	
-0.128832	-0.689422	0.751276	53.13	24.01	34.09	-0.1557	0.1521	-0.5123	
-0.121024	-0.666486	0.750788	54.04	23.31	31.85	-0.1448	0.1427	-0.5276	
-0.091744	-0.607926	0.770186	52.5	23.8	32.41	-0.1505	0.1411	-0.534	
-0.088816	-0.585234	0.78812	48.79	26.11	30.8	-0.1407	0.1272	-0.5323	
-0.11102	-0.55754	0.760304	46.55	27.79	27.23	-0.1464	0.1271	-0.5355	
-0.143716	-0.526796	0.765184	44.52	29.89	23.8	-0.1366	0.121	-0.5354	
-0.195566	-0.525088	0.78263	42.07	30.24	19.88	-0.1325	0.1147	-0.5416	
-0.224602	-0.51545	0.786168	40.32	27.16	15.96	-0.1296	0.1179	-0.5368	
-0.229604	-0.512278	0.789096	38.99	23.73	14.77	-0.1256	0.1069	-0.5477	
-0.22387	-0.50447	0.798246	35.63	19.18	15.19	-0.12	0.0946	-0.5461	
-0.213378	-0.515084	0.818742	33.39	17.92	15.82	-0.1143	0.0931	-0.5414	
-0.207156	-0.501664	0.845338	32.34	17.5	15.82	-0.1103	0.08679999	-0.5537	
-0.22326	-0.48434	0.835212	30.45	17.22	15.61	-0.1173	0.0806	-0.5493	
-0.22448	-0.469822	0.846436	28.7	16.17	14.49	-0.1088	0.0697	-0.5476	
-0.236924	-0.446032	0.849242	27.23	15.4	12.11	-0.1033	0.0728	-0.5552	
-0.225944	-0.441274	0.84607	25.34	14.42	10.22	-0.0991	0.0682	-0.5552	
-0.202276	-0.417484	0.860588	24.08	15.12	8.4	-0.1048	0.065	-0.5569	
-0.198616	-0.399916	0.876692	21.07	15.89	5.25	-0.1075	0.0604	-0.5523	
-0.224114	-0.415044	0.887184	17.29	16.52	1.47	-0.1006	0.0511	-0.5538	
-0.236558	-0.415776	0.893894	14.77	16.03	-2.17	-0.0938	0.0541	-0.566	
-0.251808	-0.404674	0.884134	12.39	14.91	-4.48	-0.088	0.0527	-0.5582	
-0.254248	-0.422486	0.884256	9.59	13.44	-5.74	-0.0851	0.0496	-0.5535	
-0.270108	-0.418826	0.877912	6.93	12.32	-6.65	-0.0867	0.048	-0.5629	
-0.28365	-0.428464	0.870714	4.97	10.22	-6.72	-0.0796	0.0511	-0.5596	
-0.299388	-0.434198	0.854122	4.48	6.65	-7.14	-0.0866	0.0511	-0.5566	
-0.297192	-0.413702	0.852048	4.13	2.66	-7.49	-0.0895	0.0464	-0.5598	
-0.298168	-0.408456	0.865712	2.45	-1.05	-7.14	-0.081	0.0527	-0.5596	
-0.287432	-0.40443	0.869738	1.33	-4.41	-7.07	-0.084	0.0464	-0.569	
-0.278404	-0.409066	0.875472	0.21	-7.21	-6.86	-0.0839	0.0418	-0.5644	
-0.27145	-0.386496	0.901702	-0.98	-9.24	-7.63	-0.0909	0.048	-0.5598	
-0.26047	-0.39406	0.908046	-3.43	-11.76	-8.96	-0.0907	0.048	-0.5536	
-0.241316	-0.375272	0.92049	-5.39	-13.37	-10.36	-0.0937	0.0449	-0.5599	
-0.23912	-0.381006	0.918782	-9.1	-14.28	-11.62	-0.0979	0.0541	-0.563	
-0.23729	-0.381494	0.898408	-12.95	-14.49	-12.95	-0.0895	0.0495	-0.5613	
-0.236436	-0.375638	0.895602	-16.59	-14.84	-14.7	-0.0979	0.0573	-0.5599	
-0.236192	-0.362828	0.888282	-20.44	-15.47	-17.08	-0.0935	0.0496	-0.5506	
-0.228628	-0.384178	0.882182	-24.57	-16.94	-19.74	-0.0964	0.0495	-0.5553	
-0.222406	-0.410408	0.877302	-30.66	-20.51	-23.1	-0.1033	0.0651	-0.5491	
-0.226798	-0.432978	0.86742	-34.16	-24.22	-24.29	-0.1089	0.0713	-0.5507	
-0.21594	-0.43615	0.86193	-37.45	-29.05	-24.78	-0.1118	0.0759	-0.5585	
-0.207034	-0.45323	0.836432	-41.23	-34.37	-24.99	-0.1215	0.0805	-0.5493	
-0.197762	-0.476776	0.813618	-44.59	-38.85	-25.55	-0.1398	0.0882	-0.5527	
-0.194224	-0.498248	0.790194	-46.69	-43.4	-27.58	-0.1395	0.0961	-0.5356	
-0.15982	-0.503128	0.782874	-48.09	-47.32	-29.75	-0.1368	0.1023	-0.5448	
-0.129808	-0.513376	0.773358	-49.91	-50.33	-32.34	-0.1605	0.1069	-0.536	
-0.104188	-0.525576	0.74237	-50.96	-53.34	-34.58	-0.1605	0.1069	-0.536	
-0.062952	-0.531676	0.748714	-51.38	-55.02	-36.75	-0.1689	0.1084	-0.5315	
-0.02501	-0.521428	0.72773	-52.43	-55.93	-38.64	-0.1729	0.124	-0.5221	
0.01464	-0.569252	0.713578	-56.14	-56.56	-41.16	-0.1869	0.1224	-0.5193	
0.069418	-0.600118	0.695522	-56.77	-56.28	-43.61	-0.1869	0.1224	-0.5193	
0.105896	-0.599996	0.6832	-58.1	-54.04	-45.15	-0.2036	0.1379	-0.5149	
0.14152	-0.624152	0.65026	-60.69	-51.59	-47.04	-0.2272	0.1457	-0.4982	
0.158112	-0.667096	0.619516	-62.65	-47.74	-50.12	-0.2315	0.1488	-0.5029	
0.194834	-0.689544	0.587308	-62.16	-45.43	-52.85	-0.2315	0.1488	-0.5029	
0.226432	-0.690398	0.570838	-62.16	-42.91	-54.6	-0.2479	0.166	-0.4814	
0.237046	-0.695034	0.5246	-62.65	-40.18	-56.63	-0.2479	0.166	-0.4814	
0.248514	-0.73078	0.503738	-62.79	-37.94	-58.45	-0.2578	0.1674	-0.4862	
0.26047	-0.754082	0.476532	-61.46	-37.59	-59.71	-0.2561	0.1769	-0.4691	
0.302804	-0.747006	0.457012	-59.15	-37.87	-59.85	-0.2699	0.1754	-0.457	
0.339282	-0.741028	0.43249	-57.47	-37.73	-60.76	-0.2713	0.1723	-0.4555	
0.37881	-0.740906	0.38308	-54.04	-38.22	-62.3	-0.2866	0.1723	-0.4449	
0.409676	-0.743224	0.375272	-50.82	-37.8	-62.72	-0.3034	0.1816	-0.4421	
0.470188	-0.736148	0.401624	-48.65	-36.89	-63.84	-0.3102	0.1801	-0.4282	
0.520086	-0.753594	0.414312	-48.44	-37.45	-66.29	-0.3086	0.1833	-0.4173	
0.506666	-0.750422	0.366	-46.55	-37.24	-65.94	-0.3239	0.1817	-0.4099	
0.474458	-0.768722	0.33245	-44.87	-34.65	-65.31	-0.3408	0.1785	-0.4118	
0.471042	-0.777262	0.330742	-41.79	-31.99	-62.58	-0.3475	0.1818	-0.3917	
0.5063	-0.756766	0.331962	-39.27	-29.82	-62.58	-0.3448	0.1771	-0.3995	
0.55266	-0.74969	0.342698	-38.01	-28.35	-63.63	-0.3491	0.1708	-0.3996	
0.573278	-0.720532	0.330742	-34.3	-28.63	-66.57	-0.3559	0.1678	-0.3905	
0.599142	-0.733952	0.313662	-33.81	-32.76	-68.53	-0.3628	0.1693	-0.3828	
0.641354	-0.77592	0.266692	-28.84	-34.16	-68.46	-0.3698	0.1616	-0.3768	
0.712968	-0.781166	0.264618	-20.79	-32.41	-68.18	-0.3753	0.1585	-0.3723	
0.762378	-0.73627	0.314394	-15.26	-29.26	-66.5	-0.3896	0.146	-0.3789	
0.752618	-0.690154	0.321958	-13.79	-26.95	-63.49	-0.3934	0.1414	-0.3588	
0.745664	-0.66246	0.286944	-14.98	-25.06	-61.25	-0.3978	0.1383	-0.3651	
0.775432	-0.659898	0.260958	-17.64	-23.45	-59.57	-0.4103	0.1274	-0.3561	
0.774944	-0.68503	0.241438	-17.57	-23.17	-55.79	-0.3976	0.1073	-0.3467	
0.756522	-0.656726	0.230702	-15.4	-22.75	-52.36	-0.4088	0.1212	-0.3515	
0.772992	-0.636718	0.217648	-15.68	-23.45	-49.42	-0.4142	0.1151	-0.3362	
0.792512	-0.624274	0.216062	-14	-24.22	-45.71	-0.4072	0.09959999	-0.3346	
0.805444	-0.61305	0.223748	-13.93	-28	-42.14	-0.4269	0.0949	-0.3334	
0.821548	-0.601704	0.212158	-13.58	-29.61	-38.57	-0.4168	0.0904	-0.3178	
0.83631	-0.599508	0.199592	-11.55	-30.45	-36.4	-0.4295	0.0919	-0.3196	
0.850706	-0.580842	0.195322	-9.87	-28	-32.41	-0.4423	0.0902	-0.3291	
0.832528	-0.56974	0.1708	-9.31	-25.83	-29.47	-0.4391	0.0872	-0.3089	
0.86864	-0.582794	0.175558	-8.47	-26.25	-27.37	-0.4423	0.084	-0.3261	
0.878278	-0.594628	0.164578	-5.53	-24.15	-24.78	-0.428	0.0717	-0.3119	
0.89304	-0.582672	0.16836	-1.96	-20.3	-22.19	-0.4433	0.0764	-0.306	
0.899018	-0.56059	0.171166	0.63	-16.66	-19.74	-0.4531	0.0686	-0.3016	
0.891454	-0.544486	0.165432	2.59	-13.23	-18.27	-0.4461	0.0687	-0.2983	
0.893406	-0.53741	0.155184	3.22	-9.8	-17.29	-0.4489	0.0671	-0.3015	
0.886818	-0.531798	0.142374	3.08	-8.4	-16.03	-0.4503	0.0671	-0.3	
0.877668	-0.532652	0.13054	1.68	-7.63	-13.72	-0.4474	0.0578	-0.2938	
0.870592	-0.547536	0.136762	1.26	-5.04	-11.48	-0.4488	0.064	-0.2922	
0.869128	-0.546072	0.133346	3.5	-3.71	-8.05	-0.4572	0.0609	-0.294	
0.876814	-0.524966	0.136396	6.93	-2.1	-6.72	-0.4602	0.0515	-0.2987	
0.894016	-0.504592	0.140056	7.84	-0.56	-5.95	-0.4641	0.0563	-0.2817	
0.902678	-0.50264	0.139812	7.56	0.14	-5.67	-0.4514	0.0579	-0.283	
0.90036	-0.501664	0.150548	7.42	1.68	-3.71	-0.4474	0.0501	-0.2892	
0.887916	-0.497638	0.135908	8.12	1.89	-2.8	-0.4517	0.05	-0.2939	
0.893284	-0.5124	0.131028	7.98	2.66	-2.03	-0.4503	0.0547	-0.297	
0.901824	-0.515816	0.140544	9.73	4.34	-0.28	-0.46	0.0423	-0.2879	
0.927078	-0.515328	0.1403	11.55	6.09	0.28	-0.449	0.05	-0.3047	
0.926834	-0.514474	0.14152	13.44	7.7	4.2	-0.446	0.047	-0.2923	
0.933178	-0.51362	0.149206	15.47	9.17	6.44	-0.4531	0.0454	-0.2924	
0.9455	-0.517158	0.149572	14.28	13.16	7.91	-0.4573	0.0469	-0.2956	
0.947086	-0.509228	0.163602	13.44	15.33	11.2	-0.4519	0.0437	-0.3064	
0.93025	-0.49654	0.17446	13.09	18.9	13.58	-0.4434	0.0469	-0.3031	
0.917684	-0.501054	0.179584	12.88	20.51	16.66	-0.4588	0.0531	-0.3003	
0.908168	-0.516182	0.193858	13.09	23.31	19.6	-0.4447	0.0516	-0.3	
0.908046	-0.520452	0.205082	13.51	27.37	26.46	-0.4408	0.0499	-0.3154	
0.91317	-0.516426	0.21899	13.65	30.45	29.61	-0.4365	0.0453	-0.3107	
0.901214	-0.51606	0.24095	13.65	32.9	32.97	-0.4325	0.0639	-0.3245	
0.882792	-0.529846	0.241072	13.37	34.44	35.42	-0.4353	0.0654	-0.3261	
0.875594	-0.541924	0.240096	13.93	35.56	38.99	-0.4202	0.0607	-0.3429	
0.863638	-0.534482	0.268034	11.69	37.24	43.82	-0.4301	0.0668	-0.3477	
0.851926	-0.543998	0.281088	10.64	39.48	49.77	-0.4146	0.08549999	-0.3534	
0.84546	-0.556808	0.304878	11.55	41.58	54.25	-0.4131	0.0917	-0.3472	
0.838994	-0.569496	0.331962	15.19	43.61	57.19	-0.402	0.08859999	-0.3578	
0.810324	-0.57462	0.336232	19.39	46.48	60.13	-0.4021	0.101	-0.3655	
0.783728	-0.550586	0.292312	23.1	48.58	60.83	-0.401	0.1024	-0.3794	
0.74176	-0.536312	0.318176	20.23	51.1	59.57	-0.3913	0.0962	-0.387	
0.73688	-0.598654	0.364658	10.78	52.92	62.23	-0.3759	0.1055	-0.3928	
0.710162	-0.615368	0.401746	10.22	54.6	65.17	-0.3661	0.1195	-0.3972	
0.662582	-0.617686	0.383446	9.8	54.46	67.13	-0.3663	0.1241	-0.4096	
0.609146	-0.651968	0.38735	8.4	55.3	67.69	-0.3633	0.1412	-0.4016	
0.571936	-0.679784	0.397842	9.66	58.73	66.85	-0.3454	0.1287	-0.4247	
0.561566	-0.649772	0.503738	11.83	64.47	65.52	-0.3368	0.1428	-0.4182	
0.519232	-0.617808	0.457378	6.86	57.89	61.46	-0.3327	0.1428	-0.4196	
0.464332	-0.64904	0.434198	5.32	57.19	57.4	-0.3203	0.1489	-0.4364	
0.420778	-0.710162	0.442128	4.41	62.3	56.14	-0.3134	0.1675	-0.4486	
0.373686	-0.75823	0.464454	6.37	70.07	53.97	-0.2922	0.1583	-0.442	
0.358192	-0.747006	0.500688	9.8	77.56	54.25	-0.2825	0.1707	-0.451	
0.355386	-0.691984	0.540094	13.72	81.83	54.88	-0.2771	0.1691	-0.4649	
0.338062	-0.705526	0.530944	10.01	79.52	52.78	-0.2661	0.1706	-0.4786	
0.273402	-0.735294	0.498004	10.5	76.79	52.78	-0.2506	0.1629	-0.4753	
0.178486	-0.766038	0.488244	17.01	75.25	52.99	-0.2394	0.18	-0.4811	
0.108824	-0.756156	0.457988	20.79	70.7	53.41	-0.2227	0.1769	-0.4917	
0.068442	-0.782264	0.440664	24.36	65.66	52.08	-0.2142	0.1816	-0.4884	
0.045262	-0.806298	0.443226	31.85	60.41	52.85	-0.2059	0.1862	-0.4959	
0.03599	-0.789584	0.475922	41.09	53.48	54.04	-0.192	0.1816	-0.5019	
0.006832	-0.773846	0.493368	49.21	47.18	53.62	-0.1808	0.1816	-0.5063	
0.000732	-0.761036	0.524966	54.74	41.16	55.58	-0.1698	0.1598	-0.5171	
0.019032	-0.736758	0.582306	60.2	35.63	56.35	-0.1474	0.1676	-0.5198	
0.032696	-0.707966	0.631716	62.37	32.06	57.26	-0.1532	0.1582	-0.5277	
0.047824	-0.685396	0.68747	62.02	28.07	56.7	-0.1476	0.1505	-0.5307	
0.01952	-0.714066	0.682956	62.16	25.13	55.65	-0.1419	0.149	-0.526	
0.019032	-0.707844	0.699548	63.77	27.16	56.91	-0.138	0.1349	-0.5144	
-0.004392	-0.63745	0.70699	64.61	30.52	58.1	-0.1281	0.1241	-0.5352	
-0.061244	-0.60451	0.73383	61.81	30.8	57.4	-0.124	0.1086	-0.5399	
-0.12627	-0.587064	0.750056	60.76	29.54	53.41	-0.1142	0.1163	-0.5427	
-0.16958	-0.557662	0.766892	59.57	26.74	49.28	-0.1157	0.0992	-0.546	
-0.17507	-0.570716	0.806054	57.26	24.57	45.92	-0.1018	0.0946	-0.5504	
-0.17812	-0.527162	0.842044	55.3	21.56	42.98	-0.1018	0.0837	-0.5505	
-0.181292	-0.456158	0.802516	50.89	19.11	41.58	-0.0992	0.0713	-0.5583	
-0.148596	-0.414556	0.82777	44.8	19.39	40.04	-0.09079999	0.0713	-0.5597	
-0.168726	-0.409188	0.839116	39.13	20.51	35.7	-0.0866	0.0728	-0.5642	
-0.223138	-0.431392	0.84546	34.72	21.14	31.08	-0.0823	0.0558	-0.5565	
-0.271572	-0.427854	0.823378	32.62	18.06	24.78	-0.074	0.0543	-0.5595	
-0.28121	-0.437248	0.81374	31.43	15.26	21.21	-0.074	0.0372	-0.5565	
-0.278282	-0.424804	0.83326	30.87	13.58	20.23	-0.0671	0.0449	-0.5687	
-0.255834	-0.38857	0.887916	29.89	11.97	18.41	-0.0643	0.0387	-0.5687	
-0.280112	-0.40809	0.881938	25.97	7.56	14.28	-0.0642	0.0325	-0.5625	
-0.277916	-0.385154	0.904386	25.48	7.14	12.25	-0.0768	0.0294	-0.5566	
-0.25315	-0.349164	0.921588	22.33	6.86	10.22	-0.07	0.0185	-0.5643	
-0.261446	-0.36905	0.909754	18.13	6.65	8.26	-0.0547	0.0154	-0.5733	
-0.28426	-0.365756	0.87718	15.89	7.35	6.16	-0.0615	0.017	-0.5626	
-0.287798	-0.334036	0.875472	14.28	7.28	4.62	-0.0616	0.0108	-0.5673	
-0.298046	-0.321836	0.88755	11.76	5.53	3.22	-0.0645	0.0092	-0.572	
-0.296948	-0.326106	0.88633	9.59	3.29	2.31	-0.0603	0.02	-0.5734	
-0.297802	-0.328058	0.883524	8.54	1.68	1.4	-0.056	-0.0031	-0.5673	
-0.297314	-0.315126	0.899262	7.21	0	0.35	-0.0603	0.0014	-0.5704	
-0.312564	-0.319762	0.897798	5.39	-2.66	-0.91	-0.0603	-0.0016	-0.5689	
-0.324398	-0.322324	0.910242	3.5	-6.79	-1.89	-0.056	-0.0015	-0.5673	
-0.317322	-0.31537	0.920124	2.73	-10.43	-2.8	-0.0615	-0.0108	-0.5581	
-0.300974	-0.28853	0.939644	0.42	-13.16	-3.43	-0.0656	0	-0.5519	
-0.30317	-0.306342	0.944036	-3.85	-15.12	-4.2	-0.0601	-0.0061	-0.5565	
-0.315004	-0.315004	0.93147	-7.28	-17.36	-5.04	-0.0672	0.0123	-0.5674	
-0.310734	-0.321836	0.921588	-10.22	-19.88	-5.81	-0.0685	-0.0015	-0.5598	
-0.307196	-0.312808	0.94123	-13.44	-22.54	-6.72	-0.0742	-0.0016	-0.5614	
-0.297192	-0.321592	0.933056	-17.29	-26.11	-8.47	-0.0727	0.0139	-0.5597	
-0.281576	-0.32147	0.910364	-20.72	-29.26	-10.43	-0.0756	0.0061	-0.566	
-0.2562	-0.323788	0.909632	-24.71	-32.34	-12.25	-0.0854	0.0185	-0.563	
-0.254004	-0.345504	0.905362	-28.98	-35.91	-13.93	-0.091	0.0029	-0.5617	
-0.245098	-0.35746	0.897798	-32.2	-40.25	-15.54	-0.0994	0.0293	-0.5617	
-0.234972	-0.370758	0.886452	-35	-44.8	-16.38	-0.1076	0.0371	-0.5509	
-0.218746	-0.381372	0.863272	-37.38	-49.56	-16.73	-0.1134	0.0401	-0.5634	
-0.194102	-0.40992	0.856684	-39.34	-53.97	-17.64	-0.1233	0.0276	-0.5637	
-0.15433	-0.451156	0.84607	-41.51	-59.71	-18.69	-0.1258	0.0448	-0.5497	
-0.11834	-0.465796	0.846436	-43.05	-62.65	-18.62	-0.1329	0.0447	-0.5545	
-0.07905599	-0.488976	0.832406	-45.22	-64.47	-17.92	-0.1454	0.0572	-0.5469	
-0.036234	-0.51179	0.816546	-47.18	-64.47	-16.87	-0.151	0.0711	-0.5484	
0.022692	-0.51972	0.805932	-48.58	-62.79	-15.96	-0.1664	0.0696	-0.541	
0.057584	-0.52521	0.788364	-50.89	-60.48	-14.77	-0.1677	0.0696	-0.5379	
0.074176	-0.573888	0.76433	-54.32	-58.1	-14	-0.1899	0.0913	-0.5273	
0.102358	-0.61488	0.7442	-56.42	-55.93	-13.37	-0.197	0.0866	-0.5275	
0.126392	-0.623054	0.72163	-57.75	-54.25	-11.41	-0.2039	0.1037	-0.5229	
0.142862	-0.621346	0.676734	-60.69	-53.2	-7.14	-0.2123	0.1068	-0.5215	
0.143228	-0.66612	0.635864	-65.52	-52.15	-2.87	-0.2206	0.1208	-0.5169	
0.122732	-0.694058	0.576328	-67.13	-54.32	2.31	-0.2288	0.1208	-0.5031	
0.122488	-0.788486	0.533018	-66.5	-58.59	7.28	-0.2342	0.1442	-0.4968	
0.173728	-0.82045	0.521062	-58.03	-62.23	11.41	-0.2341	0.138	-0.4906	
0.207644	-0.752862	0.509594	-47.81	-62.93	14.77	-0.2397	0.1473	-0.4922	
0.232288	-0.715408	0.49532	-44.66	-64.12	16.52	-0.2536	0.1628	-0.4831	
0.27023	-0.748348	0.495686	-43.96	-65.94	16.45	-0.263	0.18	-0.4645	
0.305976	-0.811544	0.502762	-43.05	-68.53	14.84	-0.2716	0.1768	-0.474	
0.35319	-0.8357	0.53253	-37.8	-66.5	12.46	-0.2769	0.1878	-0.4555	
0.382958	-0.801174	0.534848	-32.76	-64.12	11.48	-0.2823	0.194	-0.4462	
0.410408	-0.779702	0.538752	-31.08	-59.08	10.29	-0.2877	0.1972	-0.4354	
0.420656	-0.79178	0.527772	-30.87	-52.78	7.91	-0.3047	0.194	-0.4373	
0.4331	-0.794586	0.517768	-28.21	-44.17	7.42	-0.2974	0.2081	-0.4262	
0.446886	-0.791658	0.515694	-26.53	-34.51	5.53	-0.3058	0.2112	-0.4248	
0.468968	-0.757254	0.522282	-22.12	-19.53	2.03	-0.2999	0.2067	-0.4108	
0.488854	-0.732488	0.525576	-26.25	-2.66	-5.11	-0.3013	0.2175	-0.4092	
0.49532	-0.801906	0.50691	-30.1	5.04	-9.03	-0.3054	0.2253	-0.4061	
0.489952	-0.817522	0.500932	-26.88	15.47	-12.67	-0.3041	0.2237	-0.4123	
0.471408	-0.799466	0.458476	-26.04	26.6	-16.24	-0.3026	0.2284	-0.406	
0.482388	-0.777384	0.475434	-27.02	39.83	-19.74	-0.3082	0.2207	-0.4031	
0.48068	-0.818742	0.472262	-31.01	49.7	-20.51	-0.304	0.2315	-0.4091	
0.453962	-0.816424	0.450668	-27.37	60.34	-20.44	-0.3069	0.2222	-0.4093	
0.42517	-0.814472	0.446886	-25.9	68.6	-23.66	-0.2887	0.2222	-0.4151	
0.394182	-0.80581	0.425658	-24.71	74.9	-27.79	-0.2945	0.2299	-0.4245	
0.406016	-0.79971	0.458232	-25.2	82.88	-33.88	-0.279	0.2331	-0.4242	
0.397598	-0.824964	0.432734	-27.02	86.38	-40.04	-0.2792	0.219	-0.432	
0.407602	-0.863516	0.46482	-24.36	91.21	-43.82	-0.2681	0.2267	-0.4457	
0.393206	-0.825086	0.4331	-22.82	93.38	-50.75	-0.2624	0.2237	-0.441	
0.395768	-0.827404	0.409554	-25.97	95.9	-57.68	-0.2571	0.2205	-0.4564	
0.416142	-0.887062	0.407114	-25.76	102.69	-61.53	-0.2472	0.2237	-0.4515	
0.407358	-0.869128	0.404674	-19.18	113.26	-66.36	-0.2387	0.2128	-0.4499	
0.379298	-0.814472	0.435174	-15.12	125.58	-69.86	-0.2291	0.2128	-0.4636	
0.340746	-0.824598	0.453352	-19.95	132.09	-72.87	-0.2222	0.2159	-0.4681	
0.281698	-0.833138	0.429684	-26.04	133.14	-74.97	-0.2028	0.2096	-0.4818	
0.2623	-0.829966	0.407114	-32.62	129.15	-77.56	-0.1973	0.208	-0.491	
0.269498	-0.849242	0.417606	-36.68	126.07	-78.89	-0.1874	0.2128	-0.4861	
0.235338	-0.883036	0.440298	-37.45	127.19	-73.64	-0.1747	0.2082	-0.4859	
0.228384	-0.86681	0.450912	-38.01	125.3	-66.71	-0.1608	0.2113	-0.4918	
0.186782	-0.893528	0.42822	-40.95	122.85	-62.3	-0.1524	0.2175	-0.4962	
0.167994	-0.90768	0.439566	-37.17	122.22	-57.12	-0.1284	0.23	-0.4957	
0.180682	-0.84485	0.45994	-34.72	119.28	-49.98	-0.1271	0.2254	-0.4972	
0.13542	-0.854732	0.459574	-33.04	107.1	-46.83	-0.1187	0.2378	-0.5032	
0.076372	-0.923052	0.447618	-29.68	100.24	-36.89	-0.1032	0.2379	-0.4998	
0.052948	-0.92415	0.461404	-24.64	84.49	-26.46	-0.1018	0.2409	-0.5044	
0.086376	-0.875716	0.445544	-26.32	73.15	-17.78	-0.0835	0.2472	-0.5009	
0.02867	-0.908534	0.46787	-23.38	76.44	-19.88	-0.0708	0.2489	-0.4991	
0.060146	-0.870592	0.467992	-18.97	73.64	-15.26	-0.0694	0.2473	-0.5022	
0.07991	-0.849608	0.482754	-13.51	61.6	-9.03	-0.0608	0.2521	-0.4911	
0.079178	-0.816424	0.481412	-10.85	48.23	-4.83	-0.0411	0.2568	-0.4938	
0.087596	-0.839604	0.486292	-13.09	43.68	-7.84	-0.0525	0.2552	-0.4971	
0.100406	-0.845582	0.48434	-16.94	42.56	-12.88	-0.0482	0.2521	-0.4924	
0.09076799	-0.85583	0.476532	-19.46	42.07	-15.19	-0.0384	0.2568	-0.4984	
0.100162	-0.86132	0.459086	-21.21	36.26	-14.28	-0.0299	0.2692	-0.4981	
0.074298	-0.891576	0.453962	-19.25	32.34	-14.21	-0.0256	0.2693	-0.4918	
0.060634	-0.894382	0.45079	-16.52	26.53	-12.25	-0.0227	0.2709	-0.4871	
0.075396	-0.884012	0.460794	-14.49	21.21	-10.36	-0.0283	0.274	-0.4841	
0.110532	-0.869494	0.46665	-11.97	16.03	-9.24	-0.0171	0.274	-0.4916	
0.131272	-0.870836	0.47519	-12.25	13.44	-8.82	-0.0088	0.2755	-0.4946	
0.138714	-0.86498	0.471652	-13.16	12.25	-8.05	-0.0128	0.2771	-0.4869	
0.135908	-0.864492	0.472994	-12.74	12.11	-7.14	-0.0239	0.2834	-0.4777	
0.121878	-0.86254	0.4697	-13.51	11.41	-6.37	-0.0156	0.2803	-0.4838	
0.117242	-0.876692	0.455182	-13.44	10.29	-5.11	-0.0154	0.2896	-0.476	
0.1037	-0.894992	0.435662	-12.6	9.03	-3.64	-0.0139	0.2928	-0.4728	
0.074908	-0.902068	0.430904	-8.96	6.09	-2.87	-0.0181	0.2819	-0.4699	
0.090158	-0.903288	0.436638	-6.02	2.38	-2.03	-0.0211	0.288	-0.4808	
0.084058	-0.92354	0.434442	-4.27	-1.19	-0.84	-0.0126	0.2943	-0.4774	
0.086742	-0.899384	0.42761	0.98	-6.3	2.03	-0.014	0.2834	-0.4744	
0.095282	-0.882548	0.421876	2.31	-9.94	3.71	-0.0082	0.2928	-0.4696	
0.099796	-0.892064	0.439444	2.8	-13.44	4.27	-0.0111	0.2866	-0.4682	
0.101626	-0.90036	0.43798	3.29	-17.78	5.39	-0.0168	0.285	-0.4745	
0.101382	-0.906704	0.430172	4.2	-21.49	7.91	-0.0211	0.2896	-0.4823	
0.081252	-0.89548	0.411994	4.34	-26.18	10.99	-0.0225	0.2834	-0.4762	
0.075274	-0.917562	0.411262	4.48	-30.87	13.44	-0.0281	0.2803	-0.4778	
0.062952	-0.89121	0.414556	6.44	-35.91	15.05	-0.028	0.2881	-0.4731	
0.055266	-0.888404	0.398818	5.46	-41.16	17.5	-0.0296	0.288	-0.4809	
0.028304	-0.885598	0.38857	3.22	-49.07	18.97	-0.0366	0.2787	-0.478	
0.025742	-0.928908	0.371002	1.12	-57.47	20.93	-0.0338	0.2709	-0.4765	
0.022692	-0.933666	0.368196	3.85	-64.61	24.01	-0.0407	0.2771	-0.475	
0.029524	-0.954772	0.35868	4.9	-74.76	27.86	-0.0577	0.2817	-0.4815	
0.022692	-0.962092	0.357338	7.28	-84.91	33.18	-0.0619	0.2755	-0.477	
0.034282	-0.953308	0.386862	16.03	-92.12	37.1	-0.0604	0.2739	-0.4739	
0.089548	-0.923906	0.395646	17.99	-101.85	40.39	-0.0746	0.2769	-0.4819	
0.07625	-0.955016	0.353556	20.02	-107.45	46.83	-0.0871	0.2785	-0.4744	
0.089182	-0.950258	0.364658	31.15	-115.08	53.55	-0.09559999	0.2769	-0.4761	
0.13664	-0.911828	0.346602	26.46	-121.66	55.23	-0.1112	0.2581	-0.4827	
0.178852	-0.873398	0.387472	27.16	-119	56.21	-0.1196	0.2659	-0.4828	
0.203862	-0.927932	0.373564	20.65	-124.88	55.37	-0.1307	0.255	-0.4707	
0.191784	-1.008696	0.365756	25.62	-123.97	57.47	-0.1421	0.2596	-0.4802	
0.206302	-0.973926	0.363316	36.89	-121.17	57.12	-0.1519	0.2518	-0.4774	
0.238876	-0.817034	0.421388	32.9	-115.08	49.63	-0.1559	0.2612	-0.465	
0.25803	-0.8601	0.424926	23.31	-109.2	48.65	-0.1743	0.2704	-0.4715	
0.199714	-0.960018	0.403088	17.57	-107.1	53.97	-0.191	0.2533	-0.4595	
0.109312	-1.03517	0.324276	26.25	-114.17	60.83	-0.1923	0.2642	-0.4595	
0.146766	-0.973194	0.285846	35.56	-116.9	54.04	-0.1952	0.2657	-0.461	
0.265106	-0.850096	0.373076	36.75	-113.19	49.63	-0.2077	0.2456	-0.4521	
0.273402	-0.838262	0.390156	28.98	-111.37	48.65	-0.2245	0.244	-0.4478	
0.21228	-0.941718	0.33123	27.93	-113.89	50.68	-0.2217	0.2626	-0.4523	
0.202154	-0.99857	0.335988	31.29	-121.38	53.27	-0.2413	0.2455	-0.4419	
0.239852	-0.957334	0.34831	34.16	-128.87	54.67	-0.244	0.2564	-0.4404	
0.298656	-0.87108	0.372344	36.82	-132.86	54.46	-0.2536	0.258	-0.4219	
0.331962	-0.803858	0.34343	35	-134.61	55.86	-0.2663	0.2409	-0.4223	
0.36539	-0.864614	0.378566	28.07	-132.02	59.64	-0.2661	0.2503	-0.4145	
0.418094	-0.901946	0.385886	26.74	-127.54	61.74	-0.2828	0.258	-0.4039	
0.432978	-0.853756	0.383446	31.5	-120.26	57.47	-0.2798	0.255	-0.393	
0.415654	-0.786778	0.396988	33.25	-113.33	50.68	-0.2994	0.2627	-0.3902	
0.436028	-0.758352	0.43432	28.49	-106.61	43.12	-0.2951	0.2566	-0.3855	
0.47519	-0.747616	0.451888	24.5	-99.47	36.12	-0.3131	0.2613	-0.3719	
0.495808	-0.751764	0.489708	21.7	-87.78	30.17	-0.3088	0.2737	-0.3702	
0.491416	-0.754448	0.491172	19.11	-74.34	22.96	-0.3186	0.266	-0.3627	
0.48922	-0.766038	0.495686	16.73	-58.52	19.6	-0.3211	0.2645	-0.3488	
0.438712	-0.78141	0.48373	11.9	-44.66	14.91	-0.324	0.2598	-0.3504	
0.3721	-0.807396	0.441396	9.94	-32.69	11.48	-0.3267	0.2599	-0.3427	
0.327082	-0.81618	0.43737	9.38	-21.98	10.99	-0.3237	0.2661	-0.3364	
0.289628	-0.824232	0.439322	7.63	-14.42	11.06	-0.3211	0.2506	-0.3427	
0.267546	-0.827038	0.437248	5.74	-11.41	10.99	-0.3238	0.2646	-0.3395	
0.26413	-0.837652	0.4636	4.9	-9.8	11.27	-0.3308	0.2707	-0.3396	
0.282186	-0.828502	0.48007	5.74	-8.4	9.38	-0.3238	0.2599	-0.338	
0.284992	-0.823744	0.48251	5.53	-8.05	7.7	-0.3309	0.2583	-0.3443	
0.29707	-0.811788	0.468358	6.72	-8.47	7.28	-0.3226	0.2707	-0.3518	
0.278892	-0.821182	0.457134	7.07	-7.21	5.53	-0.3224	0.2599	-0.3411	
0.252296	-0.828258	0.473726	10.08	-9.59	6.51	-0.3223	0.2553	-0.3349	
0.23973	-0.853146	0.474092	4.62	-8.4	5.11	-0.3197	0.2723	-0.3502	
0.244122	-0.868396	0.47397	3.71	-3.85	6.51	-0.3294	0.2676	-0.3411	
0.24522	-0.848266	0.473116	4.34	-1.54	5.18	-0.3251	0.2723	-0.3348	
0.254004	-0.836432	0.481656	5.6	0.21	5.18	-0.328	0.2661	-0.3396	
0.254858	-0.797758	0.485316	5.67	2.59	2.94	-0.3225	0.2629	-0.3473	
0.243146	-0.783362	0.46909	2.59	3.22	-0.28	-0.3223	0.2615	-0.3364	
0.210816	-0.796782	0.454694	0.28	1.82	-2.66	-0.3267	0.2707	-0.3457	
0.196786	-0.822036	0.466406	-0.84	0.42	-1.96	-0.3194	0.2724	-0.3347	
0.221186	-0.828136	0.483242	-1.89	-0.49	0.07	-0.3194	0.2724	-0.3347	
0.235704	-0.840214	0.477264	-3.29	-0.63	0.42	-0.3209	0.2584	-0.3333	
0.220698	-0.849242	0.471042	-3.57	-1.61	-0.35	-0.3211	0.2661	-0.3472	
0.24156	-0.84058	0.49166	-3.57	-1.75	-0.35	-0.3211	0.2661	-0.3472	
0.255834	-0.82716	0.49349	-4.06	-1.75	-0.28	-0.3253	0.2676	-0.3457	
0.24705	-0.837164	0.468602	-3.85	-1.33	-1.82	-0.3225	0.263	-0.3441	
0.245098	-0.84363	0.448838	-3.15	0.07	-3.5	-0.3225	0.263	-0.3441	
0.224236	-0.848144	0.461648	-2.59	0.7	-5.04	-0.3293	0.2661	-0.3365	
0.235582	-0.842288	0.466894	-2.87	-0.49	-4.62	-0.3308	0.2676	-0.3427	
0.27145	-0.84424	0.463844	-3.78	-0.35	-3.57	-0.3252	0.263	-0.3395	
0.279258	-0.85583	0.455914	-3.99	1.54	-4.69	-0.3292	0.2754	-0.3333	
0.298168	-0.83387	0.461038	-3.29	3.22	-6.09	-0.3308	0.2707	-0.3427	
0.291824	-0.82716	0.45079	-4.2	3.92	-7.35	-0.3308	0.2723	-0.3411	
0.321348	-0.810568	0.469212	-3.5	8.05	-8.05	-0.3251	0.2708	-0.3379	
0.355386	-0.790926	0.484096	-5.32	14.84	-9.38	-0.3266	0.2723	-0.3395	
0.396622	-0.761646	0.47641	-10.15	25.76	-13.86	-0.3281	0.2552	-0.3459	
0.384544	-0.782508	0.481046	-15.05	33.74	-16.45	-0.3295	0.2598	-0.3443	
0.386496	-0.778482	0.479704	-17.01	38.57	-18.13	-0.3197	0.263	-0.3456	
0.445544	-0.760182	0.492392	-20.79	51.17	-19.53	-0.3184	0.2629	-0.3518	
0.486292	-0.75335	0.52216	-25.41	65.03	-23.59	-0.3184	0.2583	-0.3519	
0.413458	-0.76494	0.406748	-28.21	73.71	-31.01	-0.3185	0.2675	-0.3595	
0.319762	-0.841068	0.37759	-28.7	82.39	-33.39	-0.3159	0.2566	-0.372	
0.3294	-0.871202	0.363926	-27.58	89.11	-34.72	-0.3059	0.2629	-0.3624	
0.40931	-0.87657	0.415898	-28.42	95.76	-38.08	-0.2963	0.2566	-0.3762	
0.37149	-0.876936	0.401258	-29.12	96.6	-47.32	-0.2895	0.2519	-0.3855	
0.240584	-0.879376	0.26779	-31.43	91.91	-52.64	-0.2951	0.2504	-0.3825	
0.266448	-1.005158	0.322812	-33.11	90.09	-40.74	-0.2812	0.2519	-0.3915	
0.265228	-1.018944	0.318786	-25.2	88.55	-38.57	-0.2785	0.2534	-0.3992	
0.326594	-0.941718	0.297802	-18.2	94.01	-37.52	-0.2786	0.2487	-0.4054	
0.363194	-0.904996	0.340746	-16.73	104.09	-38.71	-0.2717	0.2549	-0.4161	
0.332328	-0.873642	0.386252	-15.33	114.17	-40.46	-0.262	0.2518	-0.419	
0.288652	-0.81191	0.35563	-12.53	115.36	-44.59	-0.2565	0.2487	-0.4252	
0.255102	-0.859246	0.399428	-14.28	116.13	-44.59	-0.244	0.2517	-0.4373	
0.232044	-0.909144	0.376858	-14.49	111.16	-46.69	-0.2341	0.2502	-0.4356	
0.22631	-0.889868	0.405528	-11.06	112.7	-49.63	-0.2302	0.2486	-0.4495	
0.205326	-0.878522	0.384788	-14.35	114.17	-50.68	-0.2316	0.2424	-0.4495	
0.196298	-0.91195	0.394792	-16.45	115.64	-49.56	-0.2065	0.247	-0.4645	
0.202642	-0.926468	0.421388	-13.02	116.06	-50.54	-0.2037	0.2455	-0.4598	
0.21716	-0.83265	0.45201	-12.11	118.58	-53.27	-0.1885	0.2408	-0.4526	
0.230824	-0.812886	0.431636	-18.34	119.98	-57.12	-0.1773	0.2424	-0.4795	
0.214354	-0.837896	0.426634	-23.52	126.14	-62.51	-0.1759	0.2408	-0.4795	
0.17751	-0.838018	0.429806	-27.3	127.96	-64.75	-0.1535	0.2486	-0.4836	
0.154452	-0.880108	0.432856	-31.15	124.18	-62.79	-0.1509	0.2393	-0.4945	
0.1098	-0.911584	0.418826	-32.2	119.14	-61.04	-0.1283	0.2487	-0.4924	
0.080398	-0.9089	0.434198	-29.47	116.97	-57.68	-0.1242	0.2456	-0.4955	
0.054778	-0.889502	0.432368	-31.43	110.32	-53.27	-0.1144	0.2456	-0.4999	
0.01891	-0.945988	0.439688	-32.83	101.78	-44.17	-0.103	0.2519	-0.4919	
0.025376	-0.942938	0.439444	-23.03	88.83	-40.18	-0.096	0.2612	-0.4948	
0.044774	-0.906094	0.471286	-12.18	83.72	-25.62	-0.07759999	0.2474	-0.4884	
0.035014	-0.913536	0.47885	-9.73	71.82	-24.22	-0.079	0.2629	-0.4898	
0.05795	-0.892552	0.483486	-7.63	71.68	-20.02	-0.0637	0.2644	-0.4988	
0.05185	-0.870592	0.478484	-6.72	63	-21.84	-0.0608	0.2567	-0.4942	
0.0488	-0.8601	0.464088	-10.01	65.66	-18.06	-0.0537	0.2583	-0.4909	
0.019642	-0.88572	0.445544	-16.45	56.49	-18.41	-0.055	0.2677	-0.4847	
0.011468	-0.898042	0.43737	-17.57	51.94	-20.93	-0.041	0.2677	-0.4906	
0.017568	-0.903166	0.42151	-15.47	47.11	-19.11	-0.041	0.2708	-0.4906	
0.007686	-0.926956	0.43432	-14.07	40.18	-15.26	-0.0312	0.2708	-0.4888	
0.016714	-0.915488	0.442616	-8.61	34.44	-13.23	-0.0211	0.2694	-0.4762	
0.03538	-0.877546	0.446886	-5.6	30.38	-12.04	-0.0212	0.2849	-0.4854	
0.051362	-0.862906	0.470188	-6.09	26.39	-11.83	-0.024	0.2787	-0.4824	
0.084668	-0.864126	0.47763	-6.86	23.1	-11.62	-0.0225	0.2772	-0.4762	
0.121268	-0.85278	0.478606	-7.07	20.09	-13.37	-0.0127	0.2726	-0.476	
0.139568	-0.855342	0.466162	-9.17	19.95	-13.72	-0.0182	0.2788	-0.473	
0.139934	-0.870226	0.452132	-10.99	20.16	-13.65	-0.0212	0.2818	-0.4839	
0.135054	-0.878034	0.453718	-11.83	20.65	-13.79	-0.021	0.2772	-0.4746	
0.138958	-0.87718	0.46055	-12.46	21.35	-14.14	-0.014	0.2927	-0.4759	
0.129198	-0.883036	0.441274	-14.84	22.05	-14.42	-0.0125	0.2866	-0.4728	
0.098698	-0.906338	0.433222	-15.47	20.44	-12.95	-0.0096	0.2991	-0.4649	
0.075762	-0.90646	0.431758	-11.9	18.83	-11.69	-0.0039	0.2851	-0.4618	
0.09076799	-0.88023	0.43005	-8.33	16.1	-9.94	-0.004	0.3052	-0.471	
0.093818	-0.88328	0.426512	-8.61	12.6	-8.68	0.0058	0.296	-0.4647	
0.09394	-0.89731	0.418948	-8.47	8.26	-7.56	0.0017	0.2883	-0.4555	
0.090158	-0.915	0.426268	-7	4.83	-6.02	0.0004	0.3054	-0.4538	
0.103822	-0.905606	0.42395	-5.88	2.03	-3.5	-0.0011	0.2944	-0.4648	
0.101138	-0.90036	0.421266	-4.34	0.28	-1.19	0.0045	0.3053	-0.4631	
0.10492	-0.894992	0.417484	-3.36	-2.31	0.56	-0.0053	0.3146	-0.4663	
0.1159	-0.90402	0.419558	-2.8	-3.71	1.4	0.0002	0.3022	-0.4678	
0.1159	-0.916586	0.418704	-2.66	-3.92	2.31	-0.004	0.2991	-0.4679	
0.111386	-0.912438	0.41297	-1.96	-4.41	2.94	0.0017	0.3084	-0.4631	
0.108702	-0.88694	0.408456	-1.26	-5.25	3.43	-0.0022	0.3054	-0.4492	
0.109434	-0.905728	0.417606	-0.98	-6.93	3.5	-0.0038	0.3085	-0.457	
0.113338	-0.911218	0.401746	-0.14	-9.45	3.29	-0.0067	0.3022	-0.4649	
0.107482	-0.923662	0.404308	2.45	-10.5	4.2	0.0016	0.3022	-0.4647	
0.113704	-0.906826	0.408212	3.43	-11.69	5.11	-0.0094	0.3053	-0.4556	
0.096136	-0.913292	0.414312	4.06	-12.95	6.51	-0.0149	0.3069	-0.4526	
0.103944	-0.89121	0.421266	5.95	-15.61	7.42	-0.0137	0.3006	-0.4619	
0.116022	-0.893894	0.421022	4.55	-16.38	8.12	-0.0094	0.3038	-0.4587	
0.08601	-0.920124	0.406382	3.78	-19.25	8.54	-0.0152	0.3037	-0.4681	
0.07259	-0.926956	0.40626	5.11	-21.42	9.94	-0.0152	0.3021	-0.4681	
0.07015	-0.92171	0.396256	7.14	-25.06	11.48	-0.011	0.3021	-0.4681	
0.05856	-0.930128	0.395036	6.86	-27.72	13.72	-0.0207	0.2991	-0.4574	
0.055632	-0.92049	0.402234	10.08	-32.34	14.28	-0.0266	0.2989	-0.473	
0.033184	-0.904142	0.38247	12.11	-38.78	15.54	-0.0238	0.2912	-0.4715	
-0.011224	-0.930982	0.373442	10.99	-45.78	17.78	-0.0294	0.2943	-0.4716	
-0.028914	-0.939034	0.39955	15.47	-51.38	20.51	-0.0295	0.2849	-0.4794	
0.020862	-0.87901	0.440664	18.2	-57.19	22.19	-0.0335	0.2865	-0.4671	
0.06039	-0.876082	0.434442	14.63	-65.31	26.39	-0.0479	0.2755	-0.4829	
0.066612	-0.92842	0.402966	15.19	-72.24	29.26	-0.0464	0.291	-0.4797	
0.038674	-0.94184	0.359778	19.67	-79.94	32.41	-0.0492	0.2817	-0.4767	
0.069784	-0.886696	0.407968	29.19	-83.44	34.37	-0.0705	0.2831	-0.488	
0.119438	-0.846314	0.400282	23.03	-92.75	36.68	-0.069	0.2816	-0.4848	
0.111508	-0.885354	0.44103	24.43	-93.59	38.29	-0.0816	0.2738	-0.4805	
0.130296	-0.971486	0.426634	26.11	-96.67	44.38	-0.0973	0.269	-0.4917	
0.129442	-0.976488	0.403088	32.48	-97.72	47.11	-0.09739999	0.2535	-0.4933	
0.126026	-0.933422	0.3843	34.16	-98.14	49.84	-0.0973	0.2582	-0.4871	
0.14152	-0.920978	0.383446	31.43	-98.49	51.94	-0.1211	0.2597	-0.4829	
0.148108	-0.951722	0.39101	30.94	-100.03	53.2	-0.1183	0.2519	-0.486	
0.16348	-0.955992	0.402844	35	-102.76	56.77	-0.1297	0.2425	-0.4925	
0.181536	-0.886818	0.405406	36.61	-106.89	55.93	-0.1465	0.2471	-0.4897	
0.187148	-0.876448	0.406382	39.69	-108.29	55.72	-0.1465	0.2424	-0.4866	
0.172752	-0.894138	0.403088	40.25	-110.18	54.67	-0.159	0.2486	-0.4806	
0.179706	-0.924028	0.391132	40.04	-111.16	51.45	-0.1648	0.2408	-0.4854	
0.215574	-0.903532	0.404796	39.55	-109.76	50.54	-0.1745	0.2408	-0.481	
0.233996	-0.860954	0.429318	38.36	-106.75	51.59	-0.1844	0.2268	-0.4813	
0.225456	-0.850462	0.416996	36.75	-105.28	54.25	-0.1928	0.2206	-0.4753	
0.213988	-0.876082	0.42578	32.06	-105.77	57.26	-0.2068	0.2283	-0.474	
0.239974	-0.880352	0.440908	31.08	-103.67	60.69	-0.211	0.2283	-0.4725	
0.286212	-0.857538	0.444446	28.42	-102.2	61.6	-0.2234	0.2299	-0.4588	
0.276574	-0.873276	0.450058	26.6	-99.05	61.88	-0.2317	0.2253	-0.4496	
0.283284	-0.842654	0.449448	28.7	-97.3	62.16	-0.2415	0.2268	-0.4467	
0.322202	-0.80764	0.46299	28.98	-96.32	62.3	-0.2555	0.219	-0.4455	
0.36417	-0.7808	0.487024	30.1	-93.66	58.87	-0.2538	0.2315	-0.4314	
0.355996	-0.764818	0.503372	28.21	-92.47	52.08	-0.2665	0.2377	-0.4316	
0.322934	-0.762866	0.502274	26.25	-91.21	46.13	-0.2736	0.2283	-0.4349	
0.331474	-0.787388	0.529602	23.59	-88.9	42.56	-0.272	0.2377	-0.4271	
0.344772	-0.767258	0.527528	21.98	-84.56	37.24	-0.2775	0.2331	-0.421	
0.376614	-0.74969	0.537654	18.2	-77.42	33.53	-0.2858	0.2393	-0.4149	
0.369782	-0.781654	0.550464	15.82	-71.47	27.58	-0.2928	0.2377	-0.4135	
0.366244	-0.79605	0.516914	13.02	-66.22	23.31	-0.2954	0.227	-0.3951	
0.380884	-0.778482	0.515938	11.34	-59.22	20.86	-0.3051	0.2378	-0.3921	
0.368684	-0.791902	0.518744	9.73	-52.08	19.11	-0.2979	0.2348	-0.3826	
0.35258	-0.794708	0.509472	10.99	-44.45	21.56	-0.3021	0.2395	-0.3796	
0.347578	-0.769332	0.529602	10.78	-36.26	20.37	-0.312	0.2317	-0.3814	
0.330864	-0.763476	0.520208	9.38	-29.26	20.58	-0.312	0.2363	-0.3845	
0.294142	-0.78812	0.523258	11.83	-19.04	15.33	-0.3035	0.2426	-0.3811	
0.255468	-0.779214	0.53131	12.04	-13.3	13.16	-0.3189	0.241	-0.3784	
0.254492	-0.773846	0.54412	10.92	-8.96	12.81	-0.305	0.2364	-0.3828	
0.250344	-0.77226	0.557662	6.58	-9.73	11.83	-0.3091	0.2441	-0.3781	
0.24644	-0.776286	0.568032	5.11	-9.45	11.2	-0.3132	0.2519	-0.3766	
0.243268	-0.75579	0.553392	3.57	-7.91	10.64	-0.3049	0.2426	-0.3812	
0.253028	-0.776652	0.565592	0.28	-7.07	11.06	-0.3161	0.241	-0.3767	
0.247782	-0.7869	0.555954	-1.4	-7.07	9.73	-0.3231	0.241	-0.3784	
0.220454	-0.78141	0.54839	-1.12	-6.72	6.58	-0.2935	0.2443	-0.3701	
0.225822	-0.763476	0.53985	0.35	-5.32	5.11	-0.309	0.2473	-0.375	
0.210206	-0.777994	0.535458	-0.77	-4.13	5.46	-0.3133	0.2394	-0.3798	
0.201666	-0.792512	0.526918	-0.56	-3.85	4.97	-0.2991	0.2411	-0.3718	
0.192028	-0.798734	0.538752	-0.42	-5.32	3.78	-0.3134	0.2472	-0.3844	
0.197884	-0.783362	0.543632	-0.42	-6.23	3.78	-0.3147	0.2519	-0.3782	
0.205814	-0.798368	0.543632	-1.19	-6.16	4.48	-0.3119	0.2503	-0.3828	
0.205204	-0.801174	0.528748	-0.49	-5.11	4.34	-0.3091	0.2457	-0.3781	
0.205204	-0.806664	0.548634	-1.4	-5.67	3.15	-0.3063	0.2534	-0.3811	
0.220576	-0.786656	0.562664	-2.66	-5.88	1.75	-0.3132	0.2426	-0.3736	
0.24339	-0.774456	0.557052	-5.6	-6.02	0.28	-0.3103	0.2411	-0.3689	
0.256444	-0.784338	0.52826	-6.44	-3.85	-1.47	-0.3159	0.2566	-0.3704	
0.234606	-0.80337	0.528016	-7.14	-2.94	-5.53	-0.3061	0.252	-0.3687	
0.265472	-0.784582	0.53375	-6.65	0.21	-8.61	-0.3201	0.2535	-0.369	
0.28853	-0.774212	0.540704	-7.98	4.2	-10.29	-0.3132	0.2473	-0.3735	
0.282674	-0.795806	0.519598	-9.94	7.63	-11.83	-0.3146	0.2535	-0.3735	
0.255224	-0.819596	0.493978	-9.94	11.27	-14.07	-0.3131	0.2473	-0.3673	
0.253272	-0.824476	0.515084	-9.45	14.49	-15.75	-0.3104	0.2457	-0.3735	
0.27633	-0.795318	0.522526	-10.22	17.29	-15.75	-0.323	0.2457	-0.3691	
0.289384	-0.801662	0.510814	-10.85	20.23	-16.24	-0.3146	0.2519	-0.3735	
0.298534	-0.791536	0.493978	-10.36	24.08	-17.85	-0.3159	0.2458	-0.3659	
0.309026	-0.773846	0.490928	-11.06	28.91	-19.6	-0.3089	0.2597	-0.3734	
0.333914	-0.762866	0.51179	-13.23	34.09	-20.58	-0.3119	0.2426	-0.3813	
0.336232	-0.767258	0.513864	-17.5	36.47	-21.42	-0.3174	0.2395	-0.3721	
0.327448	-0.786046	0.505202	-18.9	36.12	-22.61	-0.3135	0.2471	-0.3922	
0.320372	-0.773114	0.511058	-22.19	40.81	-24.71	-0.3035	0.2395	-0.3827	
0.35014	-0.749324	0.520818	-25.9	47.67	-26.46	-0.2993	0.2333	-0.3827	
0.43371	-0.788974	0.510448	-32.83	59.43	-30.87	-0.3079	0.2456	-0.3921	
0.396256	-0.843142	0.449448	-29.47	70	-37.87	-0.2925	0.2394	-0.3934	
0.314638	-0.824476	0.416386	-30.03	80.92	-45.08	-0.2897	0.2425	-0.3964	
0.301584	-0.812154	0.41053	-31.36	86.94	-45.36	-0.2897	0.241	-0.3979	
0.333426	-0.822402	0.404064	-29.19	91.14	-45.36	-0.2814	0.2363	-0.4025	
0.402478	-0.838628	0.416752	-29.4	97.16	-47.53	-0.2817	0.2346	-0.418	
0.406382	-0.881084	0.38796	-29.68	105.35	-50.33	-0.2734	0.2393	-0.4255	
0.330254	-0.919758	0.400892	-30.17	114.94	-52.22	-0.2663	0.2347	-0.4239	
0.254614	-0.948062	0.373076	-30.66	114.59	-53.41	-0.2565	0.2362	-0.4268	
0.216306	-0.935496	0.341234	-27.23	109.69	-53.48	-0.2427	0.2346	-0.4405	
0.239242	-0.91805	0.352336	-25.34	108.43	-49.49	-0.2372	0.2315	-0.4451	
0.238632	-0.916098	0.34648	-21.28	112.91	-46.48	-0.229	0.2377	-0.4588	
0.24278	-0.898896	0.37393	-17.15	116.62	-46.41	-0.2262	0.2408	-0.4618	
0.261812	-0.852292	0.426878	-13.93	121.94	-47.81	-0.2151	0.2361	-0.4679	
0.281576	-0.875594	0.463234	-13.02	125.37	-52.5	-0.2026	0.2345	-0.4754	
0.264862	-0.846802	0.469212	-14.21	128.03	-57.82	-0.1928	0.2345	-0.4814	
0.26108	-0.82472	0.448716	-17.29	129.85	-61.6	-0.1704	0.2268	-0.4841	
0.235704	-0.800808	0.433466	-23.45	131.74	-67.48	-0.1604	0.2331	-0.4777	
0.191662	-0.80764	0.409676	-29.89	134.82	-71.05	-0.1579	0.2361	-0.4916	
0.14762	-0.87169	0.427488	-37.38	136.36	-70.42	-0.1452	0.2393	-0.4913	
0.107726	-0.904874	0.43554	-38.15	132.3	-66.71	-0.1257	0.2424	-0.5002	
0.083814	-0.934642	0.448716	-36.96	123.2	-61.67	-0.1143	0.2363	-0.4938	
0.04819	-0.954162	0.424682	-35.7	112.35	-50.26	-0.096	0.2581	-0.4979	
0.036722	-0.960018	0.441518	-29.82	102.13	-41.51	-0.0946	0.255	-0.4964	
0.010248	-0.951356	0.463112	-23.87	96.74	-33.18	-0.0835	0.2519	-0.5008	
0.021228	-0.902556	0.454206	-17.99	85.33	-28.42	-0.0721	0.2629	-0.4943	
0.015006	-0.903776	0.443104	-13.23	72.17	-22.26	-0.0679	0.2597	-0.4989	
0.021594	-0.90585	0.436882	-9.87	64.96	-21.21	-0.0622	0.2629	-0.4941	
0.007198	-0.902922	0.430782	-9.38	55.3	-19.25	-0.0594	0.2598	-0.4957	
-0.00488	-0.889014	0.44469	-8.68	50.47	-17.78	-0.0565	0.2707	-0.4909	
-0.011712	-0.876814	0.455182	-11.2	44.17	-16.03	-0.0423	0.2677	-0.4844	
0.004148	-0.886574	0.452864	-11.83	38.78	-12.6	-0.0353	0.2631	-0.4828	
0.009638	-0.892674	0.451034	-10.43	31.36	-10.29	-0.0396	0.2677	-0.4906	
0.03233	-0.879132	0.449448	-8.89	25.69	-9.59	-0.0342	0.2785	-0.5012	
0.027938	-0.874496	0.463722	-8.26	20.3	-8.19	-0.0283	0.2724	-0.4872	
0.056852	-0.869128	0.466162	-8.19	17.15	-7	-0.0269	0.2771	-0.4903	
0.069296	-0.856928	0.463478	-7.84	13.51	-7	-0.024	0.2647	-0.4825	
0.087108	-0.869738	0.46055	-8.54	10.92	-6.79	-0.0253	0.2849	-0.4793	
0.113338	-0.870836	0.4697	-8.12	9.38	-6.93	-0.0211	0.2787	-0.4777	
0.127002	-0.862662	0.462136	-7.49	9.73	-7.63	-0.0241	0.274	-0.4871	
0.129808	-0.87413	0.460672	-9.8	7.91	-8.61	-0.0197	0.2772	-0.4793	
0.121756	-0.889014	0.469334	-11.06	7.56	-9.17	-0.0254	0.2787	-0.4809	
0.107482	-0.885232	0.451034	-11.48	7.98	-9.24	-0.024	0.2818	-0.4855	
0.104676	-0.905606	0.4392	-10.15	7.91	-9.45	-0.0154	0.2866	-0.4729	
0.093086	-0.893528	0.432734	-7	6.93	-8.54	-0.0252	0.2787	-0.4731	
0.087596	-0.896822	0.429318	-4.97	5.74	-8.54	-0.0139	0.2804	-0.4683	
0.091988	-0.894748	0.434564	-3.5	5.25	-7.42	-0.0182	0.285	-0.4761	
0.09516	-0.894748	0.446398	-3.36	2.8	-6.23	-0.0225	0.2865	-0.4808	
0.114436	-0.890478	0.448472	-2.94	1.54	-4.55	-0.0139	0.2881	-0.4729	
0.13054	-0.882182	0.439566	-2.59	0.98	-3.36	-0.0196	0.2803	-0.4715	
0.132248	-0.880108	0.434564	-2.8	0.63	-2.66	-0.0266	0.2834	-0.47	
0.109922	-0.87657	0.449204	-2.87	0.21	-2.1	-0.0152	0.2928	-0.4651	
0.117974	-0.877546	0.45079	-3.64	0.07	-1.47	-0.0208	0.2944	-0.4652	
0.111996	-0.888648	0.43493	-3.43	-0.35	-0.91	-0.0183	0.2865	-0.4807	
0.091744	-0.908656	0.416508	-2.52	-2.31	-0.77	-0.0182	0.2865	-0.4745	
0.076128	-0.90585	0.414556	-0.56	-4.41	-0.63	-0.0139	0.285	-0.4713	
0.101016	-0.912926	0.415898	0.56	-6.51	0.14	-0.0209	0.299	-0.4714	
0.09394	-0.910486	0.426024	2.73	-8.05	0.84	-0.0182	0.2927	-0.476	
0.099308	-0.912804	0.43737	3.57	-10.01	2.31	-0.0323	0.2865	-0.4748	
0.116632	-0.895358	0.444446	5.6	-10.64	3.85	-0.0365	0.288	-0.478	
0.132614	-0.870226	0.436394	6.16	-11.34	3.99	-0.0254	0.2942	-0.4839	
0.109068	-0.88572	0.429318	3.64	-11.9	3.85	-0.0336	0.2818	-0.4686	
0.103944	-0.91195	0.43371	4.06	-13.3	4.34	-0.0297	0.2864	-0.4902	
0.11163	-0.8967	0.427488	4.83	-15.33	5.04	-0.0239	0.2849	-0.4777	
0.082594	-0.897676	0.422486	4.06	-18.48	6.79	-0.0267	0.2911	-0.4793	
0.061366	-0.912438	0.420778	4.34	-23.31	8.89	-0.0324	0.2786	-0.4826	
0.021594	-0.917562	0.412604	5.11	-29.75	11.34	-0.0338	0.2833	-0.481	
0.008784	-0.899018	0.409676	9.17	-34.79	13.79	-0.0367	0.2833	-0.4842	
0.025132	-0.88206	0.396988	7	-43.61	15.47	-0.0479	0.277	-0.4829	
0.019764	-0.944768	0.38796	6.44	-50.75	18.41	-0.0493	0.2693	-0.4799	
-0.017202	-0.998692	0.36783	11.34	-62.23	22.12	-0.0549	0.2832	-0.4799	
-0.00366	-0.95587	0.390278	27.58	-69.79	27.65	-0.0676	0.2707	-0.4818	
0.102846	-0.844362	0.42151	26.74	-80.5	29.19	-0.0606	0.2723	-0.4832	
0.139812	-0.821914	0.452742	21.98	-81.62	33.81	-0.0775	0.266	-0.4836	
0.11102	-0.922564	0.438834	17.22	-85.4	35.63	-0.07889999	0.2645	-0.4821	
0.037698	-0.998082	0.398086	23.03	-88.55	38.01	-0.0985	0.2644	-0.4809	
0.020496	-0.985516	0.366	35.63	-92.89	40.25	-0.1043	0.2659	-0.4872	
0.142862	-0.77775	0.39711	28.84	-101.29	35.98	-0.1141	0.2519	-0.4859	
0.150426	-0.8967	0.441152	22.89	-102.62	41.37	-0.1254	0.2488	-0.4846	
0.144692	-1.000766	0.428952	26.74	-105.35	50.68	-0.1365	0.2503	-0.4817	
0.106262	-1.036512	0.39162	36.33	-112	56.14	-0.1422	0.2456	-0.485	
0.106384	-0.947208	0.356728	44.24	-118.09	55.58	-0.1494	0.23	-0.4883	
0.151768	-0.923418	0.385886	44.1	-121.52	54.25	-0.165	0.2392	-0.4963	
0.19886	-0.917562	0.394304	40.95	-122.99	54.39	-0.1773	0.2424	-0.4779	
0.234118	-0.884134	0.398452	40.67	-122.64	57.26	-0.1941	0.2361	-0.4736	
0.27511	-0.870714	0.412116	39.2	-119.21	60.69	-0.197	0.2314	-0.4799	
0.291092	-0.850828	0.43005	38.43	-111.79	59.99	-0.2067	0.2299	-0.4693	
0.281576	-0.81374	0.453718	38.92	-105	55.44	-0.2137	0.2268	-0.4648	
0.256444	-0.812032	0.416874	32.34	-103.11	53.34	-0.2276	0.2268	-0.4604	
0.275354	-0.878156	0.432002	28.14	-101.78	55.93	-0.2305	0.2252	-0.4636	
0.30256	-0.872544	0.445056	28.28	-100.24	56.84	-0.236	0.2221	-0.4529	
0.328424	-0.824476	0.452986	28.63	-96.25	57.12	-0.2442	0.2237	-0.4437	
0.339038	-0.779336	0.467748	27.86	-92.89	56.28	-0.2554	0.233	-0.4423	
0.32757	-0.767624	0.43737	22.47	-92.82	52.57	-0.2567	0.2362	-0.4346	
0.33184	-0.830698	0.45018	20.3	-92.05	49.63	-0.2638	0.2345	-0.4425	
0.354288	-0.823134	0.467748	21.91	-90.09	46.69	-0.2748	0.2284	-0.4241	
0.380152	-0.766282	0.49044	21.84	-86.17	44.1	-0.2734	0.2207	-0.4226	
0.382226	-0.77043	0.493978	16.94	-84.14	41.3	-0.2832	0.2346	-0.4227	
0.356484	-0.791414	0.462746	16.24	-79.31	38.01	-0.2871	0.2285	-0.4057	
0.344284	-0.809958	0.455548	15.75	-75.6	31.57	-0.2968	0.2332	-0.3981	
0.334402	-0.81984	0.466772	12.81	-73.92	28.98	-0.2969	0.2316	-0.4013	
0.359778	-0.80337	0.47702	12.11	-72.38	26.46	-0.3065	0.2378	-0.3905	
0.377712	-0.81862	0.47458	10.29	-69.23	25.13	-0.3092	0.2426	-0.3828	
0.376248	-0.817888	0.483852	11.97	-62.51	26.11	-0.3021	0.2426	-0.3811	
0.403942	-0.794952	0.499712	10.15	-56.49	25.41	-0.3146	0.2503	-0.3767	
0.375882	-0.789706	0.497272	7.7	-45.29	19.53	-0.3271	0.2457	-0.3645	
0.345016	-0.79605	0.498126	4.06	-39.97	14.63	-0.32	0.2504	-0.3644	
0.328058	-0.813618	0.499346	4.97	-33.25	13.02	-0.3244	0.241	-0.3692	
0.330498	-0.785558	0.491904	5.67	-26.46	13.79	-0.3214	0.2582	-0.3612	
0.339648	-0.77165	0.503372	4.48	-19.81	14.56	-0.3214	0.252	-0.3597	
0.329522	-0.785192	0.49776	1.33	-15.61	13.23	-0.3241	0.2442	-0.3808	
0.310124	-0.798734	0.495686	-0.21	-11.41	12.25	-0.3282	0.2567	-0.349	
0.280722	-0.817888	0.493856	-0.07	-8.54	11.83	-0.3241	0.2504	-0.3567	
0.275232	-0.810568	0.504714	0.7	-6.51	11.34	-0.3254	0.2474	-0.3505	
0.26901	-0.809714	0.509716	-0.28	-4.97	11.06	-0.331	0.2582	-0.349	
0.2562	-0.817644	0.48983	-0.84	-3.22	10.64	-0.3185	0.2598	-0.3596	
0.251808	-0.814472	0.495442	-1.4	-1.47	9.94	-0.3254	0.2614	-0.3745	
0.23729	-0.82899	0.470798	-1.54	-1.82	8.33	-0.3183	0.2645	-0.3487	
0.249002	-0.829478	0.476898	-0.56	-2.38	6.23	-0.3256	0.2488	-0.3629	
0.24766	-0.824964	0.486536	0.42	-1.68	4.76	-0.3228	0.2597	-0.3628	
0.246196	-0.812886	0.495686	0.63	-0.91	3.85	-0.3228	0.2597	-0.3628	
0.232044	-0.82594	0.47885	-0.77	-1.61	2.24	-0.3226	0.2645	-0.3519	
0.230946	-0.841678	0.47397	0	-0.7	1.12	-0.317	0.2645	-0.3549	
0.224724	-0.842166	0.467138	0.14	0.77	-0.28	-0.3197	0.2661	-0.3456	
0.229482	-0.832406	0.47702	0.14	1.82	-1.05	-0.3183	0.2568	-0.3472	
0.249246	-0.824232	0.490684	-0.35	2.03	-1.47	-0.3183	0.2568	-0.3472	
0.264008	-0.822524	0.489952	-0.7	3.71	-2.17	-0.3241	0.2536	-0.3567	
0.263398	-0.817888	0.488122	-1.4	5.67	-4.27	-0.3241	0.2536	-0.3567	
0.262544	-0.807152	0.490196	-4.06	7.56	-6.79	-0.3144	0.2551	-0.3627	
0.28121	-0.805444	0.491416	-5.74	9.66	-7.84	-0.3228	0.2566	-0.3628	
0.285602	-0.806664	0.487268	-6.79	13.02	-9.66	-0.3226	0.2552	-0.3489	
0.28365	-0.817034	0.474702	-7.98	17.15	-12.32	-0.3254	0.2598	-0.352	
0.29036	-0.817644	0.484096	-8.61	20.72	-14.84	-0.3157	0.2644	-0.3595	
0.329278	-0.795684	0.499468	-9.73	25.55	-17.36	-0.3254	0.266	-0.3535	
0.388448	-0.766892	0.534726	-13.37	32.13	-19.74	-0.3255	0.2582	-0.3582	
0.431514	-0.758352	0.516426	-16.03	40.67	-22.61	-0.3255	0.2551	-0.3582	
0.39955	-0.767014	0.455304	-18.55	48.65	-24.29	-0.3158	0.252	-0.3627	
0.32757	-0.80703	0.432246	-20.23	50.75	-28.84	-0.3129	0.2582	-0.3595	
0.289994	-0.798856	0.426146	-21.77	52.71	-33.46	-0.3088	0.2566	-0.3672	
0.33367	-0.770918	0.452986	-23.66	56.91	-35.56	-0.3046	0.2582	-0.3686	
0.39589	-0.784094	0.450302	-27.93	61.04	-36.96	-0.3077	0.2503	-0.3827	
0.415654	-0.857172	0.431392	-28.77	65.03	-39.9	-0.3008	0.2519	-0.3888	
0.329766	-0.882792	0.371978	-23.31	72.52	-44.8	-0.302	0.2566	-0.4035	
0.235826	-0.89365	0.32696	-23.03	75.18	-46.69	-0.2953	0.2472	-0.3934	
0.249368	-0.9272	0.353312	-20.3	76.44	-44.38	-0.2997	0.2502	-0.4074	
0.29463	-0.912316	0.386862	-18.2	76.3	-44.03	-0.2927	0.2487	-0.4057	
0.347822	-0.889258	0.377346	-16.38	79.59	-42.98	-0.2828	0.2363	-0.4009	
0.388326	-0.863882	0.42395	-15.54	90.16	-41.93	-0.2817	0.2346	-0.418	
0.366244	-0.8418	0.434198	-19.53	93.17	-43.89	-0.2705	0.2316	-0.4193	
0.299388	-0.870226	0.380152	-21.07	89.88	-44.59	-0.2736	0.2376	-0.438	
0.193858	-0.9516	0.354898	-19.81	85.12	-45.29	-0.2676	0.2393	-0.4192	
0.12505	-0.98088	0.355386	-15.12	79.38	-43.89	-0.2623	0.2392	-0.4362	
0.15006	-0.907924	0.39101	-11.27	76.86	-38.99	-0.2566	0.2362	-0.4314	
0.21777	-0.844606	0.42639	-10.36	73.15	-33.25	-0.2525	0.2268	-0.4376	
0.233508	-0.896822	0.468846	-8.61	64.33	-28.77	-0.24	0.2284	-0.4467	
0.15799	-0.897798	0.451888	-5.74	62.16	-27.58	-0.2471	0.2252	-0.4484	
0.13115	-0.923174	0.429196	-4.76	57.68	-26.88	-0.2345	0.2253	-0.4513	
0.145302	-0.898286	0.444934	-0.98	55.16	-24.64	-0.2235	0.2299	-0.465	
0.163968	-0.870226	0.484096	-0.21	49.14	-20.86	-0.2135	0.2284	-0.4555	
0.132614	-0.87657	0.446398	0.49	40.39	-17.57	-0.2195	0.2236	-0.4789	
0.078324	-0.928054	0.437614	2.24	33.04	-12.74	-0.2222	0.2252	-0.4727	
0.087718	-0.909266	0.458476	6.93	23.73	-7.77	-0.2096	0.2221	-0.471	
0.124684	-0.865712	0.463722	9.17	18.48	-5.53	-0.2038	0.2253	-0.4646	
0.092232	-0.884866	0.460306	10.64	10.85	-5.53	-0.2082	0.2128	-0.4694	
0.082106	-0.880596	0.48983	14.91	4.06	-4.83	-0.214	0.2111	-0.4835	
0.089914	-0.86193	0.51362	17.99	-4.06	-3.22	-0.2112	0.2112	-0.4819	
0.07515199	-0.851194	0.540704	22.05	-10.22	-0.14	-0.1984	0.2051	-0.4724	
0.068198	-0.831064	0.521428	24.78	-17.01	3.08	-0.214	0.208	-0.482	
0.11468	-0.81618	0.560102	28.35	-17.99	8.47	-0.2098	0.205	-0.4788	
0.173728	-0.750056	0.612074	24.43	-18.13	12.6	-0.2127	0.2003	-0.4836	
0.234972	-0.720532	0.623054	16.87	-20.23	15.54	-0.2042	0.2003	-0.4834	
0.269864	-0.712846	0.640134	12.74	-18.41	16.73	-0.2125	0.2003	-0.4758	
0.282674	-0.707478	0.629886	9.31	-17.22	17.22	-0.2199	0.2001	-0.4961	
0.266692	-0.71919	0.61915	6.93	-14.77	17.01	-0.2183	0.1987	-0.4806	
0.243146	-0.732488	0.587796	4.83	-14.28	15.47	-0.2182	0.1956	-0.4791	
0.226554	-0.744932	0.577548	2.94	-14.28	14.07	-0.2183	0.1956	-0.4837	
0.2257	-0.749568	0.574254	1.75	-14.77	12.46	-0.2182	0.1987	-0.4775	
0.218624	-0.761646	0.57462	0.7	-15.75	10.85	-0.2211	0.2002	-0.4837	
0.219112	-0.76799	0.58194	-0.56	-17.22	9.87	-0.2224	0.2018	-0.476	
0.218624	-0.769698	0.580354	-2.73	-18.62	8.75	-0.2252	0.2003	-0.4761	
0.210694	-0.769942	0.565714	-7.07	-19.32	9.31	-0.2196	0.2049	-0.479	
0.194956	-0.785558	0.56364	-8.54	-19.53	11.34	-0.2334	0.2081	-0.4653	
0.19398	-0.78629	0.563396	-9.66	-20.86	12.53	-0.2321	0.2111	-0.473	
0.206302	-0.80398	0.566202	-12.39	-22.47	14.14	-0.2307	0.2081	-0.4684	
0.22692	-0.817766	0.556564	-12.39	-25.83	14.21	-0.2363	0.2127	-0.4684	
0.234362	-0.80337	0.532042	-10.15	-26.25	14.49	-0.232	0.2143	-0.4668	
0.255346	-0.792634	0.496296	-7.91	-24.5	12.67	-0.2377	0.2143	-0.4685	
0.28609	-0.785924	0.506422	-6.44	-18.34	10.22	-0.2432	0.2174	-0.4654	
0.294996	-0.80825	0.497394	-6.65	-14.63	8.47	-0.2429	0.2268	-0.4514	
0.283894	-0.846436	0.487146	-3.92	-10.64	7.49	-0.2375	0.2159	-0.4622	
0.267424	-0.845338	0.485072	1.12	-6.58	5.53	-0.2417	0.2143	-0.4577	
0.25925	-0.813496	0.493734	3.22	-3.43	2.87	-0.243	0.219	-0.453	
0.265106	-0.806176	0.51179	2.1	-2.24	0	-0.2458	0.2159	-0.4531	
0.26352	-0.814594	0.51728	1.75	-1.33	-2.45	-0.2473	0.2267	-0.4592	
0.257664	-0.818864	0.517402	1.54	0.07	-3.08	-0.2389	0.219	-0.4607	
0.258274	-0.811666	0.519964	1.05	1.89	-4.34	-0.2431	0.2205	-0.4608	
0.262056	-0.805444	0.525332	-0.21	3.08	-5.74	-0.253	0.2158	-0.4594	
0.267912	-0.799466	0.530456	-1.47	4.48	-7.14	-0.2473	0.2143	-0.4578	
0.268888	-0.790682	0.523258	-2.24	7.07	-8.61	-0.2431	0.2143	-0.4593	
0.266692	-0.799588	0.519476	-3.36	7.84	-8.89	-0.2375	0.2097	-0.4576	
0.257908	-0.817766	0.514962	-3.5	8.68	-8.4	-0.2446	0.2142	-0.4655	
0.24949	-0.826306	0.506056	-2.94	9.31	-7.91	-0.239	0.2112	-0.4623	
0.245952	-0.824354	0.506178	-1.96	9.45	-7.56	-0.243	0.2112	-0.4531	
0.242658	-0.82167	0.508252	-1.4	8.4	-7.28	-0.2374	0.2159	-0.456	
0.245952	-0.82594	0.510204	-0.28	7.56	-6.51	-0.2376	0.2158	-0.4653	
0.245586	-0.825574	0.512888	0.63	5.88	-4.62	-0.2485	0.2097	-0.447	
0.23912	-0.82106	0.505202	0.98	4.34	-3.43	-0.2388	0.2174	-0.456	
0.24644	-0.817766	0.50752	0.91	2.8	-2.45	-0.2388	0.2252	-0.4529	
0.252296	-0.816668	0.513376	0.56	2.59	-1.12	-0.2444	0.2144	-0.4515	
0.247294	-0.814594	0.511424	-0.21	2.87	-0.14	-0.2319	0.2112	-0.4606	
0.23912	-0.810324	0.50752	-0.42	3.01	0.91	-0.2417	0.2096	-0.4593	
0.234362	-0.803248	0.510936	0.14	3.29	1.05	-0.2418	0.2158	-0.4654	
0.239486	-0.810202	0.507032	-0.35	2.59	0.77	-0.2487	0.2158	-0.4578	
0.23668	-0.818498	0.509838	0.14	2.73	-0.21	-0.2447	0.208	-0.4655	
0.236558	-0.819352	0.508862	0.28	2.52	-0.84	-0.2346	0.2159	-0.4529	
0.232166	-0.82289	0.510204	0.7	2.24	-0.77	-0.2361	0.219	-0.4622	
0.22875	-0.81679	0.506666	0.7	0.91	-0.63	-0.2334	0.2143	-0.4668	
0.230946	-0.828746	0.50996	0.07	0	0.14	-0.2404	0.2034	-0.4624	
0.235704	-0.832772	0.509228	0.91	-0.63	0.56	-0.232	0.2143	-0.4637	
0.237656	-0.828746	0.520208	1.82	-0.91	1.12	-0.2473	0.2097	-0.4547	
0.238876	-0.807396	0.528504	2.66	-0.7	1.82	-0.2391	0.2158	-0.4685	
0.237534	-0.795928	0.528504	1.96	-0.42	2.38	-0.2279	0.2065	-0.4699	
0.236436	-0.799222	0.52765	0.98	-0.42	3.08	-0.2362	0.2189	-0.4684	
0.23668	-0.801784	0.530456	0.42	-0.21	3.29	-0.2347	0.2174	-0.4622	
0.23607	-0.798246	0.53375	0.14	0.14	2.94	-0.2419	0.2111	-0.4717	
0.233142	-0.792024	0.53131	-0.21	0.14	2.17	-0.239	0.205	-0.4608	
0.233996	-0.794952	0.529724	-1.12	-0.56	1.54	-0.2362	0.2003	-0.4367	
0.235826	-0.804102	0.528626	-1.54	-0.56	1.47	-0.2333	0.219	-0.4606	
0.232288	-0.807884	0.525698	-1.26	-0.21	1.12	-0.2374	0.2097	-0.453	
0.231678	-0.808006	0.52094	-1.33	-0.14	0.77	-0.2375	0.2097	-0.4561	
0.228872	-0.808982	0.518622	-1.05	-0.21	0.14	-0.2459	0.219	-0.4577	
0.230824	-0.816912	0.52033	-0.7	-0.98	-0.35	-0.2445	0.2174	-0.4562	
0.231678	-0.813496	0.517768	-0.56	-1.33	0.07	-0.2389	0.2205	-0.4607	
0.234118	-0.808738	0.514108	-0.42	-1.68	0.28	-0.2404	0.2096	-0.4639	
0.237534	-0.813618	0.51362	-0.49	-1.96	0.21	-0.2362	0.2174	-0.4669	
0.238754	-0.81618	0.516914	0.21	-2.1	0.21	-0.2362	0.2143	-0.4653	
0.237656	-0.8113	0.520086	0.42	-1.47	0.28	-0.2417	0.219	-0.4592	
0.24217	-0.808494	0.518866	-0.07	-1.61	0.21	-0.2278	0.2112	-0.4652	
0.241438	-0.806542	0.518256	-0.63	-1.4	-0.14	-0.2405	0.2205	-0.4685	
0.243878	-0.815082	0.518134	-1.26	-1.12	-0.21	-0.2361	0.2221	-0.4606	
0.242902	-0.81313	0.516792	-0.7	-0.49	-0.42	-0.2361	0.2174	-0.4606	
0.240828	-0.810934	0.517158	-0.98	-0.35	-0.77	-0.2402	0.2175	-0.4545	
0.242048	-0.815448	0.515694	-1.26	-0.14	-0.84	-0.2416	0.2143	-0.4546	
0.239242	-0.817278	0.516914	-1.05	0.42	-0.77	-0.2306	0.2174	-0.4652	
0.242414	-0.814472	0.515328	-0.77	0.7	-0.63	-0.2473	0.2174	-0.4562	
0.240828	-0.809958	0.52033	-0.63	1.19	-0.91	-0.2319	0.2205	-0.4621	
0.241316	-0.806542	0.518866	-1.12	1.54	-1.4	-0.2418	0.2143	-0.4639	
0.240706	-0.809592	0.516914	-1.4	1.68	-1.89	-0.2289	0.2175	-0.4784	
0.24339	-0.810934	0.516304	-1.26	1.89	-1.82	-0.2391	0.2096	-0.467	
0.237412	-0.8113	0.512644	-0.98	2.24	-2.17	-0.2403	0.2174	-0.4607	
0.23363	-0.8174	0.509838	-1.19	2.31	-2.1	-0.2333	0.2144	-0.4575	
0.23546	-0.822402	0.510936	-0.84	1.96	-2.1	-0.2445	0.2128	-0.4562	
0.239486	-0.820084	0.511668	-0.28	1.54	-2.38	-0.239	0.2205	-0.4684	
0.24339	-0.810568	0.512156	0.21	1.89	-2.45	-0.229	0.2206	-0.4558	
0.243878	-0.817156	0.512766	0	1.96	-2.52	-0.2404	0.2112	-0.4623	
0.240584	-0.816912	0.50996	0.56	1.82	-2.52	-0.2347	0.2205	-0.4621	
0.238998	-0.8113	0.514474	1.33	1.54	-2.66	-0.2363	0.2143	-0.4684	
0.2379	-0.809226	0.51423	1.33	1.61	-2.8	-0.239	0.2143	-0.4638	
0.242048	-0.810934	0.517036	1.54	1.61	-2.66	-0.246	0.2174	-0.4639	
0.24034	-0.814838	0.517524	1.4	0.91	-2.45	-0.239	0.2065	-0.4639	
0.24034	-0.818742	0.523014	1.82	0.77	-1.68	-0.2404	0.2127	-0.4623	
0.242902	-0.813374	0.5246	2.17	0.91	-1.19	-0.2377	0.2096	-0.4685	
0.244854	-0.807762	0.525576	1.75	0.98	-0.63	-0.2404	0.2143	-0.4623	
0.247172	-0.802882	0.524234	1.61	1.05	-0.21	-0.2391	0.2049	-0.467	
0.243024	-0.806786	0.521184	1.19	0.91	0.21	-0.229	0.2159	-0.4574	
0.23912	-0.81069	0.519842	1.68	0.77	0.42	-0.2418	0.205	-0.4593	
0.234972	-0.807884	0.520452	2.45	0.63	0.49	-0.2363	0.2174	-0.47	
0.237046	-0.80398	0.521672	2.8	-0.14	0.42	-0.2375	0.219	-0.4576	
0.239974	-0.801418	0.525088	2.59	-0.91	0.35	-0.2362	0.2158	-0.4669	
0.242902	-0.799466	0.528626	2.1	-1.26	0.49	-0.2333	0.2128	-0.4591	
0.241194	-0.804102	0.528626	1.54	-1.4	0.91	-0.2433	0.2127	-0.467	
0.23668	-0.808372	0.529602	1.33	-1.47	0.91	-0.2376	0.205	-0.4639	
0.240706	-0.803248	0.530578	1.33	-1.33	0.98	-0.2347	0.2128	-0.4576	
0.239852	-0.798978	0.531188	1.12	-1.05	1.05	-0.2361	0.2112	-0.4576	
0.241072	-0.797514	0.528138	1.19	-0.7	1.33	-0.2349	0.2081	-0.4684	
0.241682	-0.802516	0.52826	1.05	-0.56	1.33	-0.2389	0.205	-0.4592	
0.243268	-0.802272	0.529358	1.05	-0.63	1.19	-0.2375	0.2174	-0.4622	
0.241438	-0.803248	0.529724	1.05	-0.56	0.91	-0.2378	0.2034	-0.4716	
0.241438	-0.80337	0.528138	0.84	-0.56	0.84	-0.2418	0.2034	-0.4609	
0.244122	-0.797636	0.529114	1.05	-0.49	0.84	-0.2307	0.2081	-0.4684	