Sensor string: A
Serial number: 1970-01-0000
Firmware version: 2,015
Hardware version: 2,2
Calibration quality: 5
ax	ay	az	gx	gy	gz	mx	my	mz

-0.035014	0.827038	0.553148	-0.35	0.49	0.14	-0.0693	-0.2511	-0.4519	Reference
-0.03416	0.825086	0.556076	0.49	-0.07	0.14	-0.0722	-0.2478	-0.4426	
-0.030622	0.831186	0.554978	0.28	-0.35	0.07	-0.0806	-0.2594	-0.4523	
-0.036234	0.831308	0.554978	0	-0.14	0.07	-0.0616	-0.2529	-0.444	
-0.034038	0.82716	0.55571	-0.49	-0.35	-0.21	-0.0718	-0.2537	-0.4381	
-0.031232	0.82411	0.558272	-0.21	-0.42	-0.28	-0.0772	-0.2654	-0.4446	
-0.031354	0.81923	0.561078	-0.21	-0.35	-0.35	-0.0673	-0.257	-0.4458	
-0.031598	0.818864	0.561444	0.28	-0.56	-0.35	-0.0585	-0.2529	-0.4378	
-0.032452	0.825696	0.55998	0.42	-0.35	-0.07	-0.0791	-0.2564	-0.4445	
-0.030256	0.8235	0.56242	0.56	-0.56	-0.14	-0.07669999	-0.2461	-0.4427	
-0.0305	0.825086	0.562176	0	-0.28	-0.07	-0.0643	-0.2586	-0.4442	
-0.029646	0.822402	0.561566	0.28	-0.14	-0.14	-0.0692	-0.251	-0.4488	
-0.030744	0.819718	0.558638	0.35	-0.07	-0.07	-0.0611	-0.2633	-0.4473	
-0.029158	0.823134	0.559492	1.12	-0.07	0.14	-0.0629	-0.2572	-0.4441	
-0.0305	0.828014	0.557418	0.77	0.14	0.14	-0.0658	-0.2586	-0.4489	
-0.029768	0.828258	0.557052	0.7	0.14	0.28	-0.0794	-0.2534	-0.4475	
-0.031232	0.827892	0.555222	0.49	0.21	0.28	-0.0683	-0.2659	-0.446	
-0.030378	0.827404	0.554246	0.49	0.28	0.49	-0.0739	-0.2494	-0.4551	
-0.030866	0.830088	0.55388	0.77	0.21	0.49	-0.0674	-0.2524	-0.438	
-0.031232	0.830332	0.551562	0.28	0.35	0.49	-0.0781	-0.2506	-0.4521	
-0.03355	0.828624	0.55327	0.35	0.21	0.35	-0.0648	-0.2497	-0.4456	
-0.035014	0.832528	0.552416	0.49	0.14	0.28	-0.0735	-0.2523	-0.4474	
-0.03233	0.83143	0.554612	0.42	0.07	0.21	-0.0527	-0.2517	-0.4376	
-0.032574	0.828502	0.55144	0	0.07	0.07	-0.0721	-0.254	-0.4551	
-0.03294	0.83021	0.552782	0.42	-0.07	0.14	-0.0617	-0.2529	-0.4471	
-0.032208	0.830576	0.55205	0.63	0	0.14	-0.0672	-0.2554	-0.4349	
-0.032086	0.83204	0.55327	0	-0.14	0	-0.063	-0.2527	-0.4394	
-0.036234	0.83326	0.55083	-0.14	-0.07	-0.21	-0.063	-0.2542	-0.4425	
-0.026474	0.828258	0.553758	0.28	-0.56	-0.42	-0.0627	-0.2618	-0.4488	
-0.027694	0.82899	0.549854	0.42	-0.35	-0.21	-0.0693	-0.248	-0.4457	
-0.033062	0.835212	0.552538	-0.56	-0.07	-0.14	-0.07319999	-0.2567	-0.4428	
-0.0366	0.834602	0.551074	-0.42	0	-0.28	-0.0663	-0.2497	-0.4456	
-0.038918	0.831796	0.551806	1.05	-0.56	-0.14	-0.0539	-0.2577	-0.4408	
-0.034404	0.834236	0.546682	-0.14	-0.7	-0.21	-0.067	-0.2598	-0.435	
-0.029158	0.829966	0.548146	-0.35	-1.05	-0.14	-0.072	-0.2554	-0.452	



-0.03111	0.829478	0.54961	-1.05	-0.21	0.14	-0.0587	-0.2515	-0.4439	
-0.024278	0.83021	0.54961	-0.91	-0.14	0.21	-0.0587	-0.2546	-0.4486	
-0.029646	0.836798	0.549	-0.84	0.35	0.77	-0.0731	-0.2597	-0.4475	
-0.044896	0.8479	0.546804	-1.4	0.28	0.77	-0.0657	-0.2586	-0.4442	
-0.04148	0.843264	0.545828	-1.33	-0.07	0.07	-0.0717	-0.2583	-0.4459	
-0.035014	0.838872	0.54412	-3.29	-0.14	-0.63	-0.0647	-0.2528	-0.4503	
-0.038552	0.832284	0.540338	-2.59	-0.14	-0.28	-0.0605	-0.2455	-0.4423	
-0.040382	0.837042	0.540704	-2.17	-0.28	0.21	-0.0628	-0.2587	-0.4426	
-0.036722	0.844362	0.5368	-3.01	-0.49	0.49	-0.0763	-0.252	-0.4382	
-0.039894	0.844728	0.54168	-3.57	-0.91	0.49	-0.0646	-0.2573	-0.455	
-0.044652	0.851316	0.540704	-4.9	-0.91	0.42	-0.0662	-0.2542	-0.4519	
-0.040138	0.8418	0.544974	-5.04	-1.4	0.28	-0.0667	-0.2484	-0.461	
-0.03172	0.829722	0.550342	-5.67	-1.33	0	-0.0665	-0.2452	-0.4456	
-0.033428	0.827404	0.553026	-4.69	-0.49	0.35	-0.0647	-0.2497	-0.441	
-0.038674	0.83082	0.54778	-6.09	-1.4	0.42	-0.0647	-0.2527	-0.4472	
-0.039162	0.837896	0.548024	-6.37	-1.54	0.49	-0.0643	-0.2587	-0.4473	
-0.035258	0.835334	0.548878	-7.28	-1.82	0.42	-0.0605	-0.247	-0.4454	
-0.032452	0.837896	0.542534	-8.68	-1.75	0.91	-0.0664	-0.2482	-0.4471	

-0.023668	0.84119	0.547292	-9.87	-2.45	1.19	-0.0769	-0.2432	-0.4458	
-0.029524	0.84241	0.556808	-11.13	-1.75	1.54	-0.0622	-0.2456	-0.4532	
-0.02928	0.833992	0.55083	-11.62	-1.4	1.19	-0.0637	-0.2455	-0.4548	
-0.03355	0.838018	0.551684	-11.41	0	1.26	-0.0743	-0.242	-0.4565	
-0.0305	0.842654	0.553514	-13.3	-1.47	1.4	-0.0654	-0.2409	-0.4516	
-0.031354	0.843264	0.548634	-15.26	-1.4	1.47	-0.0626	-0.2381	-0.4515	
-0.031598	0.831796	0.553148	-16.73	-1.26	1.26	-0.0703	-0.2364	-0.4625	
-0.040504	0.831308	0.55083	-17.29	-0.21	1.68	-0.0659	-0.232	-0.4515	
-0.042334	0.83509	0.554368	-18.69	-1.61	1.54	-0.0755	-0.2212	-0.4608	
-0.0366	0.827648	0.569008	-22.33	-2.8	1.54	-0.0751	-0.2272	-0.4593	
-0.022936	0.822036	0.576572	-21.35	-4.41	0.56	-0.0781	-0.2285	-0.4625	
-0.022448	0.825574	0.566202	-23.38	-1.54	1.05	-0.075	-0.2286	-0.4578	
-0.028914	0.827526	0.56486	-24.85	-1.54	0.35	-0.0832	-0.2149	-0.4608	
-0.030622	0.818986	0.56242	-27.51	-1.05	0.77	-0.0733	-0.2111	-0.4714	
-0.030744	0.811178	0.581696	-28.77	-2.59	0.49	-0.0808	-0.2077	-0.4684	
-0.027938	0.802882	0.587552	-29.82	-2.8	1.05	-0.0792	-0.2077	-0.4637	
-0.013176	0.781776	0.604266	-32.2	-3.85	0.77	-0.0722	-0.2053	-0.4728	
-0.01342	0.77348	0.605974	-33.18	-2.87	1.12	-0.07099999	-0.1979	-0.4695	
-0.021716	0.775554	0.61427	-34.16	-1.47	1.68	-0.0818	-0.1914	-0.4743	
-0.029646	0.765306	0.615978	-35.49	-1.26	2.38	-0.0823	-0.1856	-0.4804	
-0.037332	0.757742	0.618052	-38.92	-3.15	1.33	-0.0822	-0.184	-0.4726	
-0.038796	0.74603	0.626348	-39.97	-3.85	1.54	-0.08109999	-0.1797	-0.4818	
-0.041602	0.726754	0.632692	-39.83	-4.9	2.8	-0.0882	-0.1586	-0.4816	
-0.025986	0.719434	0.650748	-43.12	-7.07	1.68	-0.084	-0.1574	-0.4892	
-0.017568	0.69052	0.660874	-45.64	-6.86	0.91	-0.0854	-0.1573	-0.4846	
0.000854	0.672708	0.680516	-47.46	-6.37	0.56	-0.0931	-0.1525	-0.4893	
0.004514	0.659288	0.697474	-47.88	-5.6	0.7	-0.0839	-0.1323	-0.4934	
0.005124	0.647454	0.715408	-48.86	-5.11	1.33	-0.0916	-0.129	-0.4981	
0.015128	0.63562	0.727852	-49.84	-4.55	2.73	-0.0796	-0.1341	-0.4995	
0.014884	0.612684	0.723094	-52.85	-2.52	2.52	-0.0907	-0.1187	-0.4979	
0.00122	0.610976	0.736758	-52.08	-2.73	2.52	-0.0862	-0.1158	-0.4901	
0.007929999	0.593896	0.734074	-51.38	-2.24	3.36	-0.0936	-0.0918	-0.4991	
0.01586	0.572302	0.743468	-54.32	-4.69	3.15	-0.0992	-0.0975	-0.4993	
0.009272	0.564738	0.743834	-56.84	-4.83	2.1	-0.1014	-0.0824	-0.4929	
0.00671	0.536068	0.739564	-59.01	-4.69	1.61	-0.1048	-0.0794	-0.5053	
0.002806	0.501908	0.753594	-62.16	-4.83	0.98	-0.1039	-0.0661	-0.5019	
-0.010004	0.485804	0.779336	-64.54	-6.37	1.12	-0.1025	-0.0616	-0.4957	
0.007564	0.444202	0.80459	-67.34	-9.52	-0.14	-0.1082	-0.0422	-0.5063	
0.029768	0.39833	0.828014	-69.16	-10.5	-1.05	-0.1027	-0.0381	-0.5107	
0.033672	0.357338	0.850096	-69.51	-10.15	-0.63	-0.1059	-0.0289	-0.4998	
0.037576	0.327936	0.854	-71.47	-9.45	-0.28	-0.1142	-0.0137	-0.5059	
0.041968	0.288408	0.869128	-71.75	-8.19	0.35	-0.1188	-0.0105	-0.506	
0.066734	0.236802	0.894016	-72.31	-10.22	1.33	-0.1226	0.009099999	-0.4964	
0.066734	0.230214	0.91378	-64.89	-3.5	0.07	-0.1132	0.0264	-0.4975	
0.030866	0.236558	0.905606	-67.34	-1.05	1.19	-0.1135	0.0323	-0.4974	
0.041724	0.182512	0.909144	-70.56	-7.49	0.14	-0.1157	0.0396	-0.5112	
0.046238	0.158112	0.930616	-66.08	-5.88	-0.35	-0.1159	0.0534	-0.4863	
0.053558	0.147132	0.955382	-58.94	-5.95	-0.91	-0.1273	0.0671	-0.5033	
0.06832	0.12322	0.967826	-63	-9.45	0	-0.1228	0.0685	-0.4954	
0.072834	0.094794	0.981978	-60.34	-8.89	-1.47	-0.1187	0.0773	-0.4874	
0.062708	0.061854	0.978684	-57.89	-6.09	-1.33	-0.1369	0.0872	-0.4862	
0.062098	0.043188	1.006012	-54.81	-6.09	-1.19	-0.1269	0.09559999	-0.4827	
0.086742	0.023058	1.032242	-53.48	-9.1	-0.28	-0.1382	0.111	-0.4873	
0.102358	-0.000732	1.04615	-51.8	-7.49	0.21	-0.1294	0.1166	-0.4778	
0.099308	-0.02806	1.061156	-49.21	-7.14	0.7	-0.137	0.1215	-0.4748	
0.0915	-0.05063	1.054446	-47.6	-5.88	1.19	-0.1296	0.1242	-0.4668	
0.088938	-0.078812	1.05713	-42.35	-5.88	0.56	-0.1396	0.1455	-0.4682	
0.089792	-0.100528	1.06872	-37.66	-5.81	-0.14	-0.1324	0.148	-0.4711	
0.094428	-0.115046	1.072014	-33.53	-5.74	-0.98	-0.1457	0.1488	-0.4683	
0.104066	-0.129564	1.077016	-29.4	-4.62	-1.68	-0.1443	0.1517	-0.4667	
0.110166	-0.155672	1.086166	-24.78	-4.27	-1.96	-0.1391	0.1617	-0.4726	
0.108946	-0.158966	1.07604	-20.51	-4.13	-2.38	-0.1487	0.1551	-0.4559	
0.107482	-0.17324	1.086654	-15.96	-3.15	-1.82	-0.1456	0.1771	-0.4616	
0.117852	-0.18849	1.098976	-6.72	-3.78	-2.8	-0.151	0.167	-0.4619	
0.108946	-0.196054	1.053226	-18.62	7.91	1.82	-0.1388	0.162	-0.4571	
0.119804	-0.188856	1.139968	-3.5	-6.58	-1.96	-0.1463	0.1653	-0.4572	
0.122122	-0.18422	1.117642	2.59	-4.2	-1.05	-0.1451	0.1713	-0.454	
0.130662	-0.191418	1.098122	3.85	-0.42	-0.28	-0.1451	0.1712	-0.4556	
0.12566	-0.189832	1.109224	8.33	-0.56	-0.49	-0.1406	0.1665	-0.4602	
0.127124	-0.175924	1.108126	12.6	0.91	0.28	-0.1445	0.1593	-0.4573	
0.1342	-0.176534	1.114714	17.99	0.84	-0.49	-0.1504	0.1581	-0.459	
0.130418	-0.188368	1.117398	25.06	2.03	-0.84	-0.1371	0.1574	-0.4602	
0.12505	-0.168848	1.10837	29.47	1.89	0.07	-0.1462	0.1608	-0.4619	
0.118584	-0.148718	1.108492	36.61	2.59	0.42	-0.1387	0.1574	-0.4634	
0.123708	-0.13725	1.091046	42.14	3.08	0.49	-0.1477	0.1578	-0.4682	
0.126758	-0.121756	1.06994	45.5	3.71	-0.21	-0.1525	0.1357	-0.4733	
0.117608	-0.096258	1.050054	48.93	4.97	-0.07	-0.1332	0.1332	-0.4729	
0.11102	-0.056364	1.022726	53.55	5.67	-0.14	-0.1456	0.1175	-0.4735	
0.118584	-0.03355	1.017846	59.5	5.95	-0.91	-0.1289	0.1046	-0.481	
0.115412	-0.005734	1.012234	62.44	5.53	-1.47	-0.1383	0.1155	-0.4826	
0.107848	0.023302	0.999546	63.07	7.63	-0.77	-0.1328	0.096	-0.4782	
0.109678	0.047946	0.998936	66.57	7.07	-0.7	-0.1395	0.0829	-0.4832	
0.103822	0.064782	0.987834	70.28	9.31	-0.91	-0.1306	0.0779	-0.4908	
0.094306	0.095892	0.985882	75.46	8.33	-1.05	-0.1241	0.0641	-0.4971	
0.077226	0.1403	0.97051	76.86	10.43	-1.68	-0.1346	0.0425	-0.4915	
0.074664	0.16104	0.961848	78.54	9.1	-1.61	-0.1242	0.0373	-0.4991	
0.076616	0.170068	0.954162	82.74	8.82	-2.52	-0.1263	0.0241	-0.4963	
0.079178	0.203374	0.931958	84.77	7.91	-3.01	-0.1198	0.0119	-0.4963	
0.060878	0.236192	0.881328	82.95	11.34	-3.85	-0.1221	-0.0013	-0.5012	
0.033672	0.263276	0.866322	85.89	10.22	-3.29	-0.1124	-0.0197	-0.5044	
0.024522	0.292678	0.828624	85.54	10.5	-4.2	-0.1097	-0.0185	-0.5151	
0.01647	0.331962	0.828258	89.53	8.4	-5.11	-0.104	-0.0364	-0.4983	
0	0.358802	0.79178	90.79	7.07	-5.18	-0.1091	-0.0509	-0.5003	
0.007686	0.387472	0.769942	89.81	3.43	-4.27	-0.1084	-0.0643	-0.5005	
0.020496	0.409432	0.748226	88.62	3.92	-4.27	-0.1036	-0.09559999	-0.4932	
0.01342	0.427122	0.735416	89.88	6.65	-5.6	-0.1054	-0.0911	-0.4962	
0.002684	0.507764	0.719678	87.71	7.14	-4.41	-0.1076	-0.1043	-0.495	
0.014396	0.532652	0.690398	84.63	9.73	-5.25	-0.1063	-0.1282	-0.4954	
0.019276	0.558272	0.683444	84.35	9.17	-5.53	-0.0881	-0.1334	-0.4858	
0.01586	0.591944	0.651114	83.79	9.17	-5.46	-0.0919	-0.1466	-0.4861	
-0.003782	0.611342	0.597556	78.75	10.71	-5.88	-0.08769999	-0.1691	-0.4864	
-0.027816	0.666486	0.566568	77.49	10.5	-5.81	-0.0845	-0.1736	-0.4833	
-0.026352	0.726388	0.552172	74.62	11.06	-6.16	-0.0857	-0.1749	-0.4756	
0.000122	0.745054	0.558028	69.23	9.45	-6.79	-0.09779999	-0.1934	-0.467	
0.002684	0.766038	0.559614	64.75	10.99	-5.74	-0.08549999	-0.203	-0.47	
-0.015982	0.764696	0.5307	61.04	12.95	-4.62	-0.0876	-0.2193	-0.4718	
-0.012932	0.801052	0.478118	60.41	13.65	-3.92	-0.0847	-0.2179	-0.4686	
-0.045506	0.854732	0.42944	60.76	13.51	-4.34	-0.0738	-0.2258	-0.4608	
-0.070516	0.909144	0.430172	64.89	10.29	-5.18	-0.0775	-0.2312	-0.4425	
-0.068442	0.927566	0.402356	61.04	10.43	-5.6	-0.0606	-0.2455	-0.447	
-0.080886	0.899872	0.372344	54.11	12.04	-5.25	-0.0571	-0.2546	-0.4424	
-0.094916	0.886818	0.366122	49.63	7.84	-5.74	-0.0596	-0.2649	-0.4473	
-0.09455	0.889502	0.370636	47.04	3.5	-7.28	-0.0588	-0.2767	-0.4397	
-0.097722	0.90036	0.372466	47.6	1.12	-5.88	-0.0557	-0.2737	-0.4288	
-0.106506	0.905362	0.371124	45.22	-1.96	-4.06	-0.0434	-0.2817	-0.424	
-0.100772	0.909388	0.340746	46.55	3.15	-6.44	-0.0473	-0.2903	-0.4212	
-0.0854	0.931592	0.336598	42.7	2.87	-7.21	-0.0499	-0.2992	-0.426	
-0.086742	0.951844	0.340014	42.7	2.38	-5.53	-0.0421	-0.3024	-0.4167	
-0.08784	0.945378	0.356606	40.11	0.84	-2.73	-0.0465	-0.3006	-0.4106	
-0.104432	0.967094	0.357338	38.43	-1.05	-1.33	-0.0467	-0.3228	-0.4079	
-0.10187	0.997228	0.33794	37.45	-4.27	-2.94	-0.049	-0.3109	-0.4123	
-0.111874	1.006988	0.281576	28.35	-0.21	-4.69	-0.0512	-0.3225	-0.408	
-0.116022	0.977586	0.271816	25.13	-0.56	-2.87	-0.039	-0.323	-0.3938	
-0.148352	0.993324	0.308172	30.38	0.77	0.14	-0.0485	-0.3357	-0.385	
-0.123464	1.006866	0.320128	29.82	-1.89	1.19	-0.0519	-0.3265	-0.3834	
-0.0793	1.001132	0.299876	21.56	-1.68	-0.84	-0.0511	-0.3429	-0.3852	
-0.07198	0.992592	0.26535	12.67	-0.49	-0.77	-0.0442	-0.3314	-0.3817	
-0.087108	1.009428	0.282674	3.64	-6.16	5.46	-0.0422	-0.3434	-0.3865	
-0.10004	1.015894	0.28121	9.94	-16.03	4.97	-0.0467	-0.3371	-0.3757	
-0.090524	1.03273	0.303414	13.86	-15.47	5.88	-0.0479	-0.3445	-0.3774	
-0.0915	1.02114	0.266326	11.27	-19.95	3.08	-0.0553	-0.3441	-0.3791	
-0.070516	1.035414	0.287554	9.31	-21.91	2.52	-0.058	-0.3484	-0.3792	
-0.077104	1.055056	0.259738	8.54	-18.97	0.91	-0.0656	-0.3435	-0.3763	
-0.064538	1.006622	0.28487	0.42	-4.83	3.08	-0.0627	-0.3468	-0.3855	
-0.083448	0.982344	0.275476	1.05	7.21	3.78	-0.0684	-0.3479	-0.381	
-0.065148	0.965752	0.286334	0.7	5.74	2.52	-0.0686	-0.3434	-0.381	
-0.07564	0.997838	0.266692	-0.21	0.21	0.63	-0.06879999	-0.3389	-0.3778	
-0.074786	1.002108	0.291336	1.75	-2.38	1.33	-0.0656	-0.3435	-0.3793	
-0.069784	1.01138	0.2806	1.19	-2.03	1.26	-0.0656	-0.3466	-0.384	
-0.068686	1.023092	0.263276	-0.84	-0.84	0.7	-0.0612	-0.3422	-0.373	
-0.07869	1.048102	0.251808	-1.19	0.07	0.7	-0.0583	-0.3424	-0.3792	
-0.093696	1.071282	0.250466	-1.33	-4.34	-0.28	-0.0726	-0.3505	-0.3765	
-0.072712	1.074088	0.259982	-1.12	-5.46	0.21	-0.061	-0.3482	-0.3793	
-0.049654	1.056886	0.255224	-9.38	-1.82	0.63	-0.06879999	-0.342	-0.3871	
-0.040626	1.063108	0.248636	-18.69	1.19	1.89	-0.072	-0.3374	-0.3871	
-0.064294	1.05591	0.252662	-19.25	6.72	1.26	-0.057	-0.3442	-0.3884	
-0.085278	1.047492	0.277794	-16.94	12.39	3.01	-0.0567	-0.3455	-0.3807	
-0.08906	1.013088	0.280478	-20.86	13.44	2.66	-0.063	-0.3409	-0.3885	
-0.099674	0.99064	0.292434	-22.96	10.92	1.82	-0.0535	-0.3266	-0.3896	
-0.088328	0.967948	0.326838	-17.64	9.17	2.24	-0.0551	-0.3297	-0.402	
-0.07381	0.950014	0.333792	-21.07	6.86	2.52	-0.0535	-0.3281	-0.3927	
-0.07515199	0.966484	0.336354	-18.34	4.76	-0.56	-0.0582	-0.3265	-0.4036	
-0.06344	1.007598	0.320494	-20.51	9.52	-1.96	-0.0614	-0.3188	-0.3958	
-0.093208	1.017846	0.335866	-21.28	5.04	-3.15	-0.0601	-0.319	-0.4035	
-0.089548	1.009184	0.33916	-24.43	5.18	-1.68	-0.0483	-0.3197	-0.4032	
-0.082106	0.994788	0.357216	-30.03	-2.73	-1.12	-0.0485	-0.3168	-0.4078	
-0.066124	0.995642	0.355752	-28.35	-2.73	-1.47	-0.0593	-0.3119	-0.4172	
-0.070516	0.994178	0.343918	-35.7	-2.17	1.19	-0.0549	-0.3106	-0.4156	
-0.080642	0.981612	0.358314	-39.83	-4.97	2.38	-0.0572	-0.2941	-0.4107	
-0.084546	0.96624	0.365146	-34.51	-2.45	1.82	-0.0522	-0.3048	-0.4123	
-0.06588	0.930372	0.370392	-38.01	-8.12	3.64	-0.0645	-0.2998	-0.4233	
-0.06039	0.92842	0.37027	-52.01	-9.73	10.15	-0.0561	-0.2929	-0.423	
-0.060146	0.915854	0.396012	-44.03	-8.68	5.11	-0.0703	-0.2774	-0.4292	
-0.0793	0.897188	0.38979	-45.64	-2.94	6.44	-0.0706	-0.2745	-0.4369	
-0.081252	0.879986	0.41785	-42.84	-2.52	6.51	-0.0637	-0.269	-0.4428	
-0.06222	0.880474	0.4453	-39.83	-2.87	6.44	-0.0707	-0.273	-0.4369	
-0.045506	0.868884	0.447496	-41.23	-3.92	6.3	-0.0733	-0.2583	-0.4506	
-0.054778	0.8479	0.427122	-46.83	-1.54	6.51	-0.0694	-0.2481	-0.4488	
-0.075396	0.829966	0.439932	-45.01	-4.55	7.77	-0.0633	-0.2514	-0.4502	
-0.0549	0.80215	0.459452	-46.69	-7.77	8.82	-0.0699	-0.2392	-0.4517	
-0.055388	0.81801	0.47885	-50.89	-9.8	7.91	-0.0819	-0.2387	-0.4597	
-0.076738	0.818132	0.504348	-56.07	-10.57	7	-0.0835	-0.231	-0.4472	
-0.06893	0.766282	0.532164	-55.23	-15.19	5.88	-0.0865	-0.215	-0.4764	
-0.033062	0.735294	0.557418	-60.69	-16.66	4.76	-0.0778	-0.2094	-0.4699	
-0.013908	0.747372	0.57645	-62.86	-15.82	3.08	-0.0882	-0.2073	-0.4685	
-0.009393999	0.73261	0.610244	-68.53	-11.55	2.8	-0.0896	-0.1851	-0.4759	
0.014396	0.66002	0.630252	-70.35	-8.54	3.71	-0.0879	-0.1676	-0.4895	
0.025864	0.659166	0.636596	-73.64	-6.58	3.43	-0.0958	-0.1568	-0.4894	
0.016226	0.647698	0.676368	-71.47	-6.51	2.59	-0.1002	-0.1565	-0.4849	
0.01525	0.622688	0.708698	-72.52	-5.04	1.82	-0.1029	-0.1341	-0.4877	
0.026474	0.587552	0.709064	-73.57	0.35	-0.91	-0.1086	-0.1383	-0.4879	
0.018178	0.507032	0.718092	-80.22	-9.1	0.35	-0.101	-0.1181	-0.4951	
0.031964	0.450546	0.745054	-79.1	-10.01	0.21	-0.101	-0.1181	-0.4951	
0.063074	0.424194	0.773358	-75.95	-12.6	0.28	-0.1064	-0.09999999	-0.4964	
0.072468	0.429196	0.796416	-72.94	-11.06	1.26	-0.1113	-0.0939	-0.5026	
0.058316	0.432856	0.81069	-74.2	-8.19	4.06	-0.1201	-0.0682	-0.5054	
0.05917	0.411262	0.821304	-75.04	-8.12	3.71	-0.1135	-0.0553	-0.5066	
0.076616	0.375516	0.844362	-75.46	-7.7	3.64	-0.1135	-0.0553	-0.5066	
0.082472	0.327448	0.859612	-75.18	-7.14	2.66	-0.1206	-0.0342	-0.511	
0.087474	0.285724	0.8784	-71.82	-6.02	2.59	-0.1206	-0.0342	-0.511	
0.08418	0.27389	0.874374	-73.01	-3.57	2.24	-0.1223	-0.0219	-0.4923	
0.078812	0.242536	0.884622	-72.24	-0.77	2.24	-0.1262	-0.0101	-0.5061	
0.069418	0.216306	0.89304	-70.77	0.56	1.96	-0.1221	-0.0013	-0.4997	
0.067222	0.207766	0.905484	-69.16	-0.63	1.4	-0.1137	0.0056	-0.5009	
0.067832	0.195322	0.92415	-68.18	-3.01	1.96	-0.1304	0.0169	-0.4965	
0.066734	0.165188	0.940742	-65.24	-2.1	1.05	-0.1194	0.0281	-0.5053	
0.058438	0.134078	0.955992	-61.18	-1.19	1.75	-0.133	0.0394	-0.4946	
0.070394	0.115046	0.98515	-58.59	-3.99	1.33	-0.1307	0.0511	-0.4944	
0.081862	0.089304	1.003694	-57.12	-6.72	0.91	-0.1279	0.0555	-0.4896	
0.077836	0.074298	1.017358	-52.57	-4.55	-0.56	-0.1363	0.0752	-0.491	
0.064294	0.051484	1.030046	-51.45	-4.13	-1.96	-0.135	0.0796	-0.4878	
0.071858	0.020862	1.042856	-48.58	-7.42	-1.19	-0.1296	0.0898	-0.4844	
0.095892	-0.006222	1.060668	-37.17	-5.11	-5.53	-0.1364	0.1034	-0.492	
0.079788	-0.006222	1.039318	-45.15	6.44	-0.84	-0.1385	0.1139	-0.4934	
0.09467199	-0.035502	1.07299	-39.69	-10.01	-5.25	-0.1308	0.1137	-0.4794	
0.09552599	-0.049166	1.062864	-36.4	-0.21	0.42	-0.1385	0.1185	-0.4826	
0.097722	-0.056364	1.080554	-30.8	-6.79	-2.66	-0.143	0.1218	-0.4795	
0.093818	-0.06039	1.062742	-28	-2.24	-1.47	-0.1475	0.1266	-0.4718	
0.100284	-0.06832	1.080188	-21.14	-3.99	-1.96	-0.1392	0.1335	-0.4761	
0.097112	-0.080764	1.069208	-16.87	-1.26	-0.98	-0.1358	0.1305	-0.4669	
0.097112	-0.087596	1.075918	-12.81	-0.56	-0.28	-0.1424	0.138	-0.4792	
0.09821	-0.096868	1.069696	-10.22	-0.42	0.07	-0.1352	0.1422	-0.4759	
0.083692	-0.085644	1.071038	-8.33	1.75	0.77	-0.1404	0.1368	-0.4591	
0.086986	-0.085644	1.084214	-3.36	-0.91	0.14	-0.1425	0.1426	-0.473	
0.091134	-0.091134	1.079334	0.07	-0.35	-0.21	-0.1398	0.1484	-0.4697	
0.097112	-0.093208	1.084214	3.29	-0.21	-0.49	-0.1441	0.1457	-0.4683	
0.100284	-0.093208	1.08885	7	0.56	-0.21	-0.1348	0.1363	-0.4729	
0.101138	-0.09638	1.094096	11.97	0.91	0	-0.135	0.1408	-0.4697	
0.105042	-0.09747799	1.100806	16.38	1.05	0	-0.1408	0.1411	-0.4668	
0.111264	-0.101138	1.10959	20.93	1.96	0.28	-0.1391	0.1381	-0.4637	
0.10675	-0.09394	1.111542	25.62	2.17	0.14	-0.1402	0.1246	-0.4763	
0.096502	-0.085522	1.106052	32.13	2.8	0.35	-0.1447	0.1248	-0.4826	
0.09455	-0.071126	1.093242	38.36	3.01	-0.07	-0.1393	0.1318	-0.487	
0.098942	-0.060512	1.07665	42.28	3.57	-1.4	-0.1339	0.1122	-0.4903	
0.097844	-0.048556	1.075796	49.84	2.8	-1.61	-0.138	0.1095	-0.4842	
0.098332	-0.020008	1.070794	57.61	3.22	-2.03	-0.1319	0.1048	-0.4842	
0.106018	-0.012444	1.06689	62.72	3.57	-2.8	-0.1342	0.09299999	-0.486	
0.100162	0.013908	1.040172	64.33	5.11	-2.45	-0.1442	0.0846	-0.4879	
0.09857599	0.039284	1.033096	72.8	4.76	-1.96	-0.1424	0.0739	-0.4989	
0.104676	0.05002	1.031144	76.3	4.48	-1.82	-0.1353	0.0574	-0.4882	
0.097356	0.082106	1.00162	80.43	6.16	-1.19	-0.1289	0.0436	-0.496	
0.076616	0.13725	0.963312	83.86	6.16	-0.21	-0.1302	0.0407	-0.4961	
0.079544	0.160918	0.943304	83.02	5.39	0	-0.1249	0.0255	-0.4962	
0.081496	0.176778	0.926956	86.17	5.6	-1.96	-0.1185	0.0163	-0.4947	
0.07381	0.2135	0.932202	91.35	6.51	-2.87	-0.12	-0.0133	-0.5014	
0.066368	0.243878	0.89243	93.03	7.35	-2.52	-0.1166	-0.0239	-0.5061	
0.066978	0.268522	0.861198	96.39	7.07	-2.8	-0.119	-0.0342	-0.5079	
0.056974	0.305122	0.820694	97.86	8.12	-1.47	-0.1253	-0.05	-0.496	
0.054168	0.34465	0.779458	96.32	10.99	-1.12	-0.117	-0.0683	-0.5007	
0.030866	0.40687	0.765794	99.47	11.97	-1.61	-0.1185	-0.0682	-0.5008	
0.012322	0.45811	0.728096	97.3	11.48	-1.89	-0.1201	-0.09339999	-0.4997	
-0.00671	0.494588	0.691008	93.31	12.11	-2.03	-0.1188	-0.1141	-0.4923	
-0.001342	0.534726	0.66856	91.98	11.62	-0.98	-0.1035	-0.1253	-0.4953	
0.010614	0.55083	0.636718	87.92	12.81	-0.84	-0.1015	-0.1327	-0.4861	
0.007198	0.5612	0.614636	84.42	14.42	-1.75	-0.0947	-0.1494	-0.4862	
-0.007442	0.625006	0.591822	86.45	14	-0.7	-0.0923	-0.1643	-0.4833	
-0.023912	0.667706	0.57889	86.8	15.4	-1.05	-0.0962	-0.1699	-0.4727	
-0.030134	0.695522	0.551684	83.09	14.49	-1.47	-0.0718	-0.1876	-0.4771	
-0.02867	0.713456	0.493124	79.66	12.32	-2.1	-0.0819	-0.1915	-0.4789	
-0.025742	0.80215	0.465308	80.71	12.53	-2.03	-0.0832	-0.2179	-0.4655	
-0.024766	0.932568	0.44957	76.3	14.91	-1.89	-0.0762	-0.2345	-0.4595	
-0.010614	0.895236	0.414678	64.54	18.55	-2.03	-0.0687	-0.2394	-0.4625	
-0.04575	0.848266	0.36112	56.28	17.99	-2.59	-0.07669999	-0.2461	-0.4427	
-0.070516	0.873642	0.366122	58.66	11.13	-3.15	-0.067	-0.2599	-0.4381	
-0.071736	0.917074	0.365878	64.47	10.01	-4.97	-0.0591	-0.2676	-0.4319	
-0.080764	0.948062	0.347212	62.44	8.47	-5.11	-0.0601	-0.278	-0.4352	
-0.074664	0.942938	0.315492	52.15	8.19	-4.41	-0.0581	-0.2855	-0.4306	
-0.080032	0.921588	0.31232	43.19	3.92	-4.69	-0.0516	-0.2946	-0.426	
-0.097112	0.918172	0.308904	46.06	0.42	-5.04	-0.0604	-0.2941	-0.4231	
-0.089792	0.96197	0.322934	50.12	0.77	-2.94	-0.0526	-0.3004	-0.42	
-0.057706	0.986736	0.324764	50.05	1.05	-0.84	-0.0494	-0.2988	-0.4013	
-0.048068	0.984296	0.301706	40.67	5.11	-1.4	-0.0536	-0.3046	-0.4077	
-0.089792	1.003572	0.277672	35.98	4.62	-4.2	-0.0558	-0.3162	-0.4002	
-0.095648	0.99125	0.243024	26.74	2.31	-7.21	-0.0456	-0.3123	-0.3953	
-0.133712	0.99369	0.246806	25.83	2.87	-5.04	-0.0462	-0.327	-0.3925	
-0.119438	1.005524	0.29219	29.05	-3.5	-3.64	-0.0487	-0.3327	-0.3849	
-0.078202	0.989664	0.295728	26.67	-5.39	-2.94	-0.0508	-0.3222	-0.3879	
-0.077836	0.996618	0.293166	26.11	-4.2	-3.85	-0.0473	-0.3344	-0.3926	
-0.110654	1.025166	0.278038	24.29	0	-5.6	-0.047	-0.3342	-0.3787	
-0.132492	1.025288	0.25498	19.25	2.45	-7.42	-0.0496	-0.343	-0.3851	
-0.123098	1.051884	0.274988	21.49	-14.21	-8.33	-0.0426	-0.3345	-0.3833	
-0.096014	1.016748	0.24461	3.64	-13.16	1.96	-0.0468	-0.3386	-0.3804	
-0.087108	1.018944	0.267912	14.28	-25.48	-4.2	-0.0508	-0.3412	-0.3697	
-0.091744	1.038464	0.242414	14.63	-19.04	-2.1	-0.0535	-0.3501	-0.3792	
-0.114314	1.061278	0.242292	8.96	-14.14	-0.49	-0.0433	-0.3446	-0.3727	
-0.101382	1.06872	0.25681	9.94	-22.05	-1.33	-0.0564	-0.3484	-0.3746	
-0.068442	1.03883	0.26901	3.01	-7.56	0.07	-0.0613	-0.3407	-0.3746	
-0.072102	0.997838	0.265472	0.42	5.11	1.33	-0.0552	-0.344	-0.3745	
-0.097112	0.996862	0.246196	0.63	5.39	0.42	-0.0487	-0.3532	-0.3714	
-0.119072	1.003572	0.247904	1.82	2.38	-1.33	-0.0475	-0.3489	-0.3744	
-0.11407	1.00894	0.2501	3.99	-2.1	-1.82	-0.052	-0.3471	-0.3729	
-0.086254	1.01565	0.261202	4.55	-5.53	-1.12	-0.0548	-0.35	-0.373	
-0.069662	1.011014	0.269742	2.73	-2.52	0.56	-0.0459	-0.3488	-0.3666	
-0.0793	1.044442	0.252662	-0.63	-1.89	0.14	-0.0587	-0.3555	-0.3609	
-0.11529	1.073478	0.240096	-1.12	-2.1	0.63	-0.0549	-0.3485	-0.373	
-0.112484	1.071038	0.23729	-3.29	-2.24	0.63	-0.055	-0.3485	-0.3761	
-0.094428	1.04127	0.245342	-10.85	0.28	1.68	-0.056	-0.3589	-0.3794	
-0.090646	1.028826	0.254004	-12.88	2.59	1.19	-0.0561	-0.3513	-0.3685	
-0.09516	1.031144	0.25803	-14.98	6.51	0.49	-0.0609	-0.3451	-0.3685	
-0.103578	1.02358	0.262422	-17.57	7.14	0.7	-0.0581	-0.3439	-0.3745	
-0.099918	1.014796	0.273402	-17.71	8.96	0.98	-0.0511	-0.3384	-0.3774	
-0.101382	1.003328	0.286944	-19.39	11.69	2.38	-0.0553	-0.3472	-0.3853	
-0.085888	0.96929	0.306342	-19.11	5.11	0.56	-0.0528	-0.3353	-0.3774	
-0.069296	0.946354	0.311954	-19.04	7.77	0.35	-0.05	-0.3325	-0.3788	
-0.072834	0.961848	0.314272	-17.43	4.97	0.35	-0.0498	-0.3386	-0.3851	
-0.09162199	1.015284	0.309392	-13.02	8.89	0.21	-0.0474	-0.3298	-0.3879	
-0.075518	1.013088	0.305488	-17.01	2.38	0.91	-0.0563	-0.3309	-0.3912	
-0.096746	1.014186	0.315736	-26.88	-3.08	2.59	-0.0489	-0.3298	-0.3911	
-0.083814	1.001498	0.32635	-29.96	-9.59	1.61	-0.0583	-0.3219	-0.3927	
-0.079422	0.997716	0.335744	-28.21	-5.25	2.94	-0.0554	-0.3175	-0.3879	
-0.076006	0.994178	0.321104	-31.36	-4.48	2.73	-0.0531	-0.3166	-0.4125	
-0.101748	0.987712	0.30073	-36.19	0.98	1.82	-0.0514	-0.3196	-0.4095	
-0.088206	0.982222	0.308172	-39.76	-6.93	1.82	-0.0598	-0.3014	-0.4109	
-0.073322	0.964654	0.324276	-41.93	-7.49	3.85	-0.0569	-0.3031	-0.417	
-0.093696	0.949892	0.326716	-43.19	-7.98	5.6	-0.06439999	-0.2982	-0.414	
-0.091012	0.934764	0.341966	-47.18	-10.29	5.81	-0.0698	-0.2847	-0.4247	
-0.084912	0.9272	0.374662	-50.68	-10.43	5.74	-0.0809	-0.2754	-0.4372	
-0.076128	0.887672	0.404796	-47.46	-11.2	4.97	-0.0653	-0.2942	-0.4417	
-0.050508	0.859734	0.4392	-46.06	-9.59	6.44	-0.0844	-0.2648	-0.434	
-0.036478	0.86132	0.451644	-40.74	-8.96	8.05	-0.0727	-0.2625	-0.4367	
-0.036722	0.884866	0.435662	-42.56	-8.54	10.57	-0.0739	-0.2668	-0.4322	
-0.036356	0.878522	0.44225	-46.2	-7.42	9.94	-0.0823	-0.2517	-0.4445	
-0.055022	0.842654	0.446642	-49.07	-2.94	10.22	-0.0841	-0.2457	-0.4429	
-0.064294	0.81435	0.471652	-50.89	-2.38	10.5	-0.0807	-0.2327	-0.4565	
-0.066246	0.79971	0.493978	-52.22	-6.16	10.29	-0.085	-0.2324	-0.4519	
-0.053558	0.789828	0.51911	-54.6	-12.32	9.24	-0.0959	-0.2261	-0.4629	
-0.027816	0.772016	0.558028	-59.36	-14.63	7.49	-0.0903	-0.2205	-0.4626	
-0.012566	0.715164	0.577914	-66.29	-10.64	5.88	-0.0959	-0.2009	-0.4655	
-0.01098	0.680272	0.605852	-63.35	-12.53	5.11	-0.0973	-0.2039	-0.4718	
0.022204	0.69906	0.633302	-62.65	-15.4	4.76	-0.1026	-0.1904	-0.4763	
0.022448	0.677588	0.636596	-67.97	-10.43	5.88	-0.1081	-0.1739	-0.4854	
0.025376	0.63623	0.642574	-68.81	-7.84	6.02	-0.1112	-0.1723	-0.4885	
0.030134	0.606462	0.65148	-71.75	-7.28	5.67	-0.103	-0.1578	-0.485	
0.026352	0.596092	0.669658	-72.8	-5.25	4.76	-0.1092	-0.153	-0.4835	
0.040382	0.582428	0.675392	-75.6	-6.3	3.92	-0.1206	-0.1378	-0.4959	
0.035746	0.553026	0.692228	-78.54	-5.18	5.88	-0.1169	-0.1246	-0.4955	
0.031476	0.493002	0.71614	-80.36	-9.17	8.47	-0.1158	-0.1157	-0.4938	
0.063196	0.485682	0.769088	-75.53	-10.78	9.38	-0.1199	-0.0963	-0.4982	
0.091256	0.479704	0.791414	-77.28	-8.68	8.89	-0.1186	-0.09649999	-0.5074	
0.081618	0.43493	0.814716	-80.57	-7	8.96	-0.1179	-0.0801	-0.4994	
0.07259	0.407358	0.835578	-79.45	-4.76	8.75	-0.117	-0.0683	-0.4992	
0.072224	0.372222	0.854366	-78.96	-4.97	7.28	-0.1209	-0.0487	-0.4943	
0.075762	0.329034	0.849242	-78.68	-4.62	6.44	-0.129	-0.0411	-0.5067	
0.072956	0.302072	0.8662	-77.42	-4.48	7	-0.1267	-0.0278	-0.5064	
0.076982	0.285358	0.881084	-70.21	-3.5	4.13	-0.1334	-0.011	-0.4986	
0.075884	0.261812	0.882304	-71.75	-3.36	4.48	-0.125	-0.0042	-0.5044	
0.09272	0.240462	0.89731	-70.14	-6.86	3.71	-0.133	0.0111	-0.4966	
0.099308	0.214476	0.905484	-71.47	-8.68	2.59	-0.1459	0.0265	-0.5059	
0.100894	0.18239	0.927444	-67.83	-7.7	1.12	-0.1262	0.0211	-0.4979	
0.100406	0.144814	0.96441	-66.64	-8.54	1.19	-0.1391	0.0396	-0.5009	
0.093696	0.11163	0.975634	-67.76	-9.17	-0.07	-0.1395	0.0532	-0.4883	
0.104554	0.068564	0.976366	-59.57	-7	-2.8	-0.1434	0.0682	-0.4913	
0.127002	0.056852	0.99369	-62.51	-6.58	0.28	-0.1445	0.0654	-0.4821	
0.137616	0.023058	1.026386	-57.33	-5.81	-0.91	-0.1425	0.0815	-0.4879	
0.11224	0.022448	1.0126	-59.36	5.32	-0.21	-0.1349	0.0782	-0.4832	
0.116754	-0.002684	1.05469	-53.41	-9.8	-1.89	-0.1432	0.09649999	-0.4831	
0.127368	-0.019642	1.05347	-48.86	-5.39	0.14	-0.1561	0.0929	-0.4757	
0.110898	-0.02318	1.048712	-45.29	1.26	-1.75	-0.1558	0.1121	-0.4784	
0.121634	-0.046848	1.07482	-42.21	-7.28	-1.89	-0.1441	0.1159	-0.4766	
0.128466	-0.06588	1.071648	-38.5	-3.43	-1.26	-0.1538	0.1313	-0.4781	
0.116998	-0.073932	1.06018	-32.97	1.54	-1.26	-0.1489	0.1252	-0.4688	
0.117608	-0.081984	1.047126	-31.5	-3.01	-0.42	-0.1538	0.1328	-0.4749	
0.129076	-0.091256	1.05713	-24.15	-2.8	-0.07	-0.1539	0.1374	-0.4672	
0.133468	-0.090646	1.072746	-20.65	-2.03	0.49	-0.1499	0.1461	-0.4654	
0.137128	-0.095404	1.076162	-18.27	-0.77	1.54	-0.1529	0.1478	-0.4608	
0.127002	-0.09857599	1.094096	-11.69	0.91	1.82	-0.1503	0.152	-0.4699	
0.126514	-0.11468	1.080066	-11.76	0.98	1.82	-0.1548	0.1553	-0.4622	
0.129808	-0.130296	1.098244	-9.1	1.54	1.19	-0.1503	0.1582	-0.4544	
0.12078	-0.12261	1.084092	-2.87	2.59	0.77	-0.149	0.158	-0.4636	
0.129076	-0.13298	1.092144	3.57	-0.56	0.49	-0.1505	0.1565	-0.4683	
0.139324	-0.127246	1.084458	6.44	0.7	0.49	-0.1596	0.1645	-0.4591	
0.13664	-0.116876	1.09129	11.69	0.91	0.7	-0.1588	0.1497	-0.4578	
0.133956	-0.107238	1.080554	16.59	1.47	0.49	-0.146	0.1548	-0.4667	
0.144692	-0.099552	1.076772	20.58	1.89	-0.14	-0.1576	0.151	-0.4655	
0.138104	-0.08418	1.073234	23.03	3.15	0	-0.148	0.1355	-0.4717	
0.124318	-0.082716	1.070672	25.06	4.41	-0.35	-0.1539	0.139	-0.461	
0.123586	-0.077592	1.068964	29.96	3.92	-1.05	-0.1504	0.1283	-0.4641	
0.128344	-0.06771	1.083726	34.65	3.78	-1.61	-0.148	0.1339	-0.4763	
0.12444	-0.05124	1.074332	38.5	4.55	-2.66	-0.145	0.1292	-0.4825	
0.125904	-0.04697	1.062986	43.68	5.04	-3.78	-0.1445	0.1203	-0.4811	
0.123342	-0.033184	1.047858	48.09	6.86	-3.57	-0.1515	0.1102	-0.4892	
0.121146	-0.018788	1.043222	53.34	5.74	-4.2	-0.1434	0.1025	-0.4783	
0.12139	0.007442	1.03029	58.73	6.16	-3.85	-0.1442	0.0892	-0.477	
0.11224	0.040016	1.008208	57.33	7.91	-3.85	-0.1414	0.0889	-0.4862	
0.106384	0.081008	0.99796	62.09	7.7	-3.78	-0.1528	0.0806	-0.4882	
0.103944	0.09455	0.996496	67.62	8.19	-3.92	-0.1371	0.0619	-0.4928	
0.10736	0.097234	0.989176	70.77	10.22	-4.76	-0.1399	0.0621	-0.4851	
0.106384	0.106994	0.976122	71.33	10.15	-4.55	-0.1337	0.0528	-0.4928	
0.087596	0.149816	0.948184	71.96	11.2	-3.64	-0.136	0.0426	-0.49	
0.07625	0.197518	0.936838	81.13	9.66	-2.45	-0.1365	0.0202	-0.4997	
0.08601	0.220576	0.923662	81.62	10.85	-2.73	-0.1227	0.0075	-0.5042	
0.071858	0.244732	0.904752	81.83	12.81	-1.68	-0.1357	0.0022	-0.5046	
0.057096	0.281332	0.881938	82.67	14.35	-1.05	-0.126	-0.0115	-0.5015	
0.043066	0.315126	0.86132	84.28	14.07	-0.63	-0.1248	-0.0368	-0.5065	
0.027328	0.353068	0.82472	86.03	15.47	-1.26	-0.1127	-0.0419	-0.5048	
0.004392	0.38125	0.79483	86.45	15.68	-1.47	-0.1148	-0.0582	-0.5082	
0.001708	0.419558	0.7625	85.61	13.09	-1.19	-0.1114	-0.0596	-0.4927	
-0.00061	0.446032	0.744932	83.86	12.88	-2.1	-0.1101	-0.08639999	-0.4963	
0.000122	0.483608	0.738344	85.82	12.11	-2.1	-0.1078	-0.1029	-0.4996	
-0.01952	0.511668	0.712724	84.91	10.78	-0.91	-0.0981	-0.1183	-0.4996	
-0.026962	0.540826	0.695034	83.16	9.52	0.42	-0.09	-0.1274	-0.4888	
-0.014152	0.563396	0.678686	81.97	7.63	-0.14	-0.0938	-0.136	-0.4829	
0.000122	0.582672	0.660752	78.61	4.9	-0.07	-0.096	-0.1492	-0.4785	
0.004636	0.59658	0.613782	74.97	7.35	-1.12	-0.0881	-0.1647	-0.4909	
-0.00976	0.664168	0.603656	77	10.29	-1.68	-0.0947	-0.1761	-0.4851	
-0.005246	0.70821	0.585966	76.72	11.9	-1.33	-0.09119999	-0.1805	-0.4712	
-0.01586	0.7259	0.570472	74.48	12.74	-0.7	-0.0806	-0.1886	-0.4773	
-0.026474	0.742126	0.547536	70.28	10.85	-1.68	-0.0829	-0.1972	-0.4698	
-0.047458	0.753228	0.495808	67.76	10.92	-2.38	-0.0722	-0.2022	-0.4635	
-0.04636	0.823256	0.468968	69.16	8.4	-3.08	-0.0784	-0.2241	-0.464	
-0.042334	0.904996	0.460428	67.62	10.08	-1.54	-0.077	-0.2258	-0.4717	
-0.009272	0.917318	0.45201	63.42	8.33	-3.99	-0.07009999	-0.2362	-0.4517	
-0.015372	0.888892	0.425902	51.87	11.62	-7	-0.0574	-0.2501	-0.4454	
-0.06588	0.862906	0.40077	48.65	11.62	-7.21	-0.0747	-0.255	-0.4382	
-0.058438	0.852902	0.39772	48.86	4.62	-7.56	-0.0638	-0.266	-0.4397	
-0.05612	0.879132	0.393938	51.24	5.53	-6.37	-0.0646	-0.2763	-0.4337	
-0.080398	0.90219	0.391742	46.76	4.62	-4.41	-0.0645	-0.2762	-0.4306	
-0.111874	0.895602	0.360266	39.2	0.91	-6.65	-0.0523	-0.2797	-0.4196	
-0.08235	0.866688	0.361486	36.89	2.03	-10.01	-0.0621	-0.288	-0.4184	
-0.064904	0.891454	0.359656	36.54	4.2	-9.03	-0.0588	-0.2941	-0.4154	
-0.067832	0.93879	0.379298	40.18	5.81	-5.81	-0.0567	-0.303	-0.4108	
-0.106384	0.976122	0.345748	37.52	5.67	-3.22	-0.0494	-0.3019	-0.4091	
-0.089914	0.970022	0.325862	28.77	1.75	-4.9	-0.0474	-0.3124	-0.4108	
-0.087352	0.973682	0.318176	26.18	-2.1	-6.37	-0.0575	-0.3117	-0.4002	
-0.094916	0.984052	0.322324	28.98	-2.59	-4.76	-0.0442	-0.3125	-0.403	
-0.121268	1.001254	0.331108	31.85	-0.35	-3.08	-0.0533	-0.3326	-0.3958	
-0.113338	0.987346	0.317444	27.02	3.01	-4.13	-0.0421	-0.3244	-0.4032	
-0.130174	0.997838	0.306708	23.17	2.45	-5.25	-0.039	-0.3276	-0.4031	
-0.105042	1.013576	0.287676	21	-10.78	-4.62	-0.0474	-0.3344	-0.3973	
-0.111386	1.027484	0.245464	4.62	-9.45	2.73	-0.0444	-0.3392	-0.4065	
-0.111752	1.052128	0.262178	7.98	-18.2	-1.68	-0.0513	-0.34	-0.3882	
-0.103456	1.041514	0.260348	10.36	-23.8	-3.92	-0.0488	-0.3297	-0.3833	
-0.096868	1.06323	0.281332	14.14	-17.15	-2.45	-0.06	-0.3394	-0.3822	
-0.103578	1.084214	0.26779	11.55	-11.97	0.42	-0.0517	-0.3326	-0.3896	
-0.09857599	1.074454	0.270718	1.82	-4.2	1.05	-0.0525	-0.3382	-0.3743	
-0.126026	1.081408	0.261812	1.89	0.98	0.56	-0.0544	-0.3353	-0.3836	
-0.118706	1.031632	0.266326	-3.78	0.98	-0.21	-0.0574	-0.3336	-0.3821	
-0.101504	0.993812	0.27328	-2.38	0.21	-1.89	-0.0513	-0.3385	-0.3835	
-0.108458	0.980148	0.28731	-3.22	3.99	-0.77	-0.0573	-0.3351	-0.3805	
-0.111874	0.983808	0.275842	-0.98	-0.56	-2.31	-0.0618	-0.3365	-0.3899	
-0.081984	0.990274	0.30195	-0.84	-4.69	-3.71	-0.0578	-0.3324	-0.3959	
-0.082106	0.998326	0.309758	2.38	-3.29	-1.47	-0.0608	-0.3307	-0.3944	
-0.081984	0.99857	0.307196	2.94	-0.28	-0.56	-0.0526	-0.3398	-0.3821	
-0.093086	1.023092	0.298046	-0.7	0.56	-1.26	-0.0496	-0.3446	-0.3882	
-0.096746	1.059692	0.294752	-3.57	0.28	-1.4	-0.0502	-0.3342	-0.3927	
-0.094428	1.038098	0.29463	-6.93	-0.07	-1.68	-0.0573	-0.3382	-0.3899	
-0.09089	1.01565	0.329034	-6.58	7.14	-0.77	-0.0545	-0.337	-0.3944	
-0.094062	1.00772	0.322324	-8.96	13.02	-1.12	-0.0577	-0.3308	-0.3913	
-0.09516	0.997472	0.305366	-15.68	8.61	-2.45	-0.0473	-0.3298	-0.3833	
-0.114924	1.00345	0.292678	-15.75	8.54	-3.99	-0.0454	-0.3388	-0.388	
-0.140422	1.004304	0.29097	-19.11	9.94	-3.57	-0.0431	-0.3333	-0.4033	
-0.129564	0.979172	0.319274	-21.49	8.61	-3.78	-0.0493	-0.3238	-0.391	
-0.116144	0.951112	0.34892	-24.57	-1.05	-3.78	-0.0317	-0.3249	-0.3998	
-0.08601	0.93513	0.37271	-21.42	-2.24	-3.29	-0.037	-0.3099	-0.4043	
-0.088206	0.94184	0.374906	-21.63	3.22	-2.8	-0.0407	-0.3246	-0.4062	
-0.106262	0.96563	0.366244	-23.1	4.55	-3.29	-0.0392	-0.3261	-0.4062	
-0.12505	0.971364	0.35624	-24.92	1.82	-3.85	-0.0365	-0.3188	-0.4014	
-0.12139	0.969656	0.372588	-25.69	2.52	-1.33	-0.0488	-0.3138	-0.4108	
-0.121512	0.97295	0.372832	-26.25	2.03	0.7	-0.0461	-0.308	-0.4091	
-0.115046	0.959652	0.395768	-28.91	-4.69	2.8	-0.0439	-0.2964	-0.4151	
-0.114924	0.943548	0.407602	-29.96	-5.81	2.03	-0.0526	-0.3035	-0.4246	
-0.119316	0.935984	0.413092	-29.75	-4.27	0.7	-0.0363	-0.2997	-0.4134	
-0.106994	0.918172	0.419436	-31.78	-6.44	-0.42	-0.0531	-0.2915	-0.4198	
-0.097234	0.905728	0.421632	-30.87	-3.43	-0.14	-0.0433	-0.2832	-0.4225	
-0.096136	0.887794	0.43188	-28.98	-2.8	0.28	-0.0441	-0.2981	-0.429	
-0.084424	0.869372	0.451522	-27.23	-4.34	1.54	-0.0484	-0.2772	-0.438	
-0.099796	0.847168	0.43432	-27.37	-4.62	2.17	-0.047	-0.2727	-0.4332	
-0.114802	0.860344	0.46482	-24.22	-9.03	2.52	-0.0555	-0.2766	-0.4258	
-0.092232	0.846924	0.49532	-21.77	-11.13	1.96	-0.0533	-0.2696	-0.441	
-0.055388	0.80886	0.506666	-28.91	-14.14	4.27	-0.0559	-0.2769	-0.4443	
-0.051118	0.808372	0.532286	-20.09	-14.07	4.69	-0.0549	-0.2665	-0.4379	
-0.081984	0.837164	0.504836	-20.65	-7.42	5.25	-0.0625	-0.2631	-0.4411	
-0.102602	0.844484	0.50813	-21.49	-7.21	4.62	-0.0581	-0.2635	-0.4457	
-0.111508	0.825208	0.53314	-24.29	-8.4	3.29	-0.06439999	-0.2557	-0.4441	
-0.104676	0.793976	0.557052	-25.9	-10.29	1.19	-0.0659	-0.2572	-0.4488	
-0.083448	0.77287	0.577548	-27.23	-14.63	0.35	-0.0635	-0.2485	-0.4533	
-0.05795	0.745542	0.610854	-27.51	-15.4	0.56	-0.0684	-0.2408	-0.4563	
-0.036478	0.726754	0.640622	-29.26	-14.14	2.03	-0.0621	-0.247	-0.4532	
-0.038674	0.724802	0.641232	-31.43	-9.45	2.17	-0.0806	-0.2357	-0.4581	
-0.035258	0.705038	0.656848	-31.92	-10.57	2.38	-0.0733	-0.2347	-0.4625	
-0.042944	0.705526	0.675026	-32.48	-10.29	3.43	-0.0806	-0.2342	-0.4549	
-0.03965	0.668194	0.675514	-31.57	-9.66	3.15	-0.0826	-0.2237	-0.4564	
-0.010614	0.649894	0.68564	-27.79	-10.92	1.82	-0.0863	-0.2132	-0.4609	
-0.009516	0.662094	0.69784	-25.69	-9.31	0.07	-0.09209999	-0.2191	-0.4735	
-0.019154	0.653188	0.691984	-24.36	-7.77	-0.35	-0.0884	-0.2044	-0.47	
-0.029646	0.617198	0.6954	-24.29	-10.08	0.84	-0.0881	-0.2088	-0.467	
-0.046726	0.6405	0.713822	-18.69	-9.03	0.28	-0.1076	-0.2033	-0.4705	
-0.040748	0.663436	0.737124	-17.71	-8.89	0.84	-0.0928	-0.2041	-0.4701	
-0.020496	0.63501	0.746152	-17.85	-7.56	1.4	-0.0946	-0.1996	-0.4701	
-0.01586	0.629398	0.76372	-17.71	-7.28	2.59	-0.0991	-0.1979	-0.4702	
-0.002196	0.619394	0.772626	-17.01	-5.46	3.22	-0.0964	-0.1921	-0.47	
0.020252	0.597556	0.76738	-13.86	-3.78	5.88	-0.1082	-0.1929	-0.4703	
0.021228	0.614392	0.76189	-9.59	-2.66	7.14	-0.1043	-0.1843	-0.4747	
0.012688	0.632326	0.76311	-5.81	-0.7	7.56	-0.0969	-0.1862	-0.4746	
0.007442	0.63074	0.750544	-2.73	-0.21	7.77	-0.1103	-0.184	-0.4764	
-0.005368	0.64843	0.73505	-0.84	0.07	7.84	-0.1041	-0.1888	-0.4748	
-0.014396	0.673806	0.734074	1.12	0.63	7.84	-0.1087	-0.1856	-0.4764	
-0.022082	0.668926	0.729682	2.1	-2.03	6.51	-0.112	-0.1779	-0.4717	
-0.017568	0.658312	0.734318	5.32	-4.48	5.53	-0.1044	-0.1828	-0.4716	
-0.008662	0.669658	0.730536	4.2	-8.05	5.81	-0.1042	-0.1858	-0.4732	
0.006466	0.64538	0.722606	7.49	-8.61	4.9	-0.1162	-0.1821	-0.4703	
0.006588	0.655872	0.717116	10.99	-9.03	6.16	-0.1089	-0.1841	-0.4794	
-0.00366	0.661606	0.727486	13.16	-10.29	7.07	-0.1118	-0.1808	-0.4686	
-0.009516	0.644892	0.727974	13.37	-10.99	8.61	-0.1144	-0.1866	-0.4703	
-0.009516	0.647698	0.723338	14.56	-11.55	9.03	-0.1092	-0.2002	-0.4643	
-0.01281	0.662216	0.714432	16.94	-12.25	10.29	-0.1203	-0.1909	-0.4767	
-0.000854	0.671366	0.706014	17.29	-12.6	11.9	-0.1217	-0.1908	-0.4737	
-0.004026	0.661362	0.675148	17.08	-10.85	13.37	-0.1178	-0.2041	-0.463	
0.003294	0.666608	0.67527	19.67	-11.62	13.72	-0.1239	-0.1978	-0.4569	
0.004636	0.687348	0.6771	21	-10.01	14.63	-0.1253	-0.2069	-0.4756	
0.01037	0.704794	0.677954	19.88	-9.52	15.89	-0.1367	-0.209	-0.462	
0.010126	0.70699	0.666364	18.27	-10.22	18.27	-0.1325	-0.2018	-0.4571	
0.021472	0.713334	0.670268	17.99	-10.92	20.09	-0.138	-0.2104	-0.4574	
0.032818	0.71065	0.659044	18.62	-9.87	21.28	-0.1305	-0.2123	-0.4573	
0.02867	0.720166	0.649528	18.9	-9.59	21.7	-0.1346	-0.218	-0.4575	
0.030012	0.719556	0.633546	19.6	-8.4	21.77	-0.1389	-0.2208	-0.4607	
0.029402	0.732976	0.613294	20.16	-10.5	21.84	-0.1475	-0.2262	-0.461	
0.042822	0.747616	0.610488	20.09	-13.51	23.59	-0.1358	-0.2224	-0.4576	
0.067954	0.749324	0.573034	20.09	-17.08	25.06	-0.1487	-0.2275	-0.4533	
0.088206	0.801906	0.573644	21.35	-18.48	25.83	-0.1451	-0.2349	-0.441	
0.086742	0.81801	0.549244	16.94	-17.22	26.18	-0.1516	-0.2288	-0.4503	
0.117608	0.788242	0.549244	13.86	-19.67	25.27	-0.1602	-0.2297	-0.4413	
0.155428	0.772626	0.524966	15.12	-21.21	25.62	-0.1676	-0.2293	-0.443	
0.191052	0.812032	0.530212	19.11	-22.61	26.81	-0.1661	-0.2325	-0.4492	
0.20801	0.867542	0.515084	18.62	-19.81	28.56	-0.1804	-0.2375	-0.4419	
0.206058	0.877668	0.512888	14.77	-17.22	29.33	-0.1802	-0.242	-0.445	
0.204228	0.847656	0.49715	9.87	-17.71	27.79	-0.1951	-0.232	-0.4267	
0.202764	0.817278	0.488244	8.4	-17.99	25.34	-0.1951	-0.2351	-0.4345	
0.229726	0.79239	0.49166	8.75	-22.12	24.71	-0.1987	-0.2292	-0.4499	
0.252052	0.78507	0.479582	10.36	-22.4	26.25	-0.2021	-0.2421	-0.4317	
0.270352	0.793244	0.470188	12.11	-23.17	27.65	-0.204	-0.2331	-0.4331	
0.293654	0.828136	0.472506	12.53	-22.68	29.96	-0.2065	-0.2403	-0.4302	
0.299876	0.833748	0.459818	10.43	-22.12	30.45	-0.2244	-0.2364	-0.429	
0.302316	0.819474	0.453474	8.12	-23.8	29.33	-0.2184	-0.2366	-0.4227	
0.315126	0.806176	0.459086	5.88	-26.32	28	-0.2305	-0.2331	-0.4275	
0.355996	0.7808	0.46055	2.52	-27.93	27.93	-0.2421	-0.2384	-0.431	
0.415776	0.791536	0.482388	3.29	-26.67	28.77	-0.2433	-0.2366	-0.4171	
0.458232	0.8174	0.484828	4.97	-22.19	29.68	-0.2492	-0.2348	-0.4126	
0.43798	0.8479	0.48373	2.66	-19.74	30.87	-0.2463	-0.2334	-0.4125	
0.445178	0.806176	0.473726	-0.49	-19.81	29.33	-0.252	-0.2375	-0.4096	
0.464576	0.779458	0.492148	-0.35	-18.83	26.25	-0.2627	-0.2311	-0.4113	
0.469944	0.759328	0.476654	1.82	-16.87	25.06	-0.2662	-0.2205	-0.4143	
0.4758	0.794586	0.472872	2.8	-14	24.15	-0.2824	-0.2195	-0.4069	
0.475678	0.80459	0.464454	1.26	-12.53	22.12	-0.2799	-0.2154	-0.4191	
0.49044	0.786534	0.474946	-0.7	-11.97	19.81	-0.2884	-0.2177	-0.4086	
0.504958	0.759694	0.479094	-1.33	-12.04	17.57	-0.2893	-0.2266	-0.4056	
0.5246	0.75213	0.469334	-0.56	-11.76	16.1	-0.2885	-0.2163	-0.4085	
0.55266	0.77714	0.470066	1.33	-10.08	15.05	-0.2911	-0.2174	-0.3947	
0.556198	0.795684	0.463356	0	-8.75	14.07	-0.3077	-0.2183	-0.4152	
0.550342	0.792634	0.466162	-3.08	-7.35	11.97	-0.297	-0.2171	-0.3979	
0.556076	0.758352	0.47336	-5.67	-5.25	9.45	-0.3015	-0.2153	-0.3934	
0.56608	0.737856	0.484584	-4.83	-4.06	7.49	-0.3003	-0.2125	-0.401	
0.56974	0.739198	0.473604	-3.92	-1.75	6.23	-0.3051	-0.2079	-0.4072	
0.564006	0.766404	0.472018	-3.08	-0.77	4.97	-0.3006	-0.2112	-0.4103	
0.557052	0.763354	0.473604	-5.46	1.05	3.15	-0.2971	-0.2187	-0.4057	
0.561078	0.76006	0.49593	-6.16	1.82	0.42	-0.2967	-0.1979	-0.4038	
0.570716	0.767258	0.484706	-6.51	3.22	-2.59	-0.302	-0.208	-0.401	
0.579256	0.768478	0.496784	-6.93	4.76	-6.3	-0.2993	-0.2068	-0.4071	
0.588162	0.76921	0.504958	-6.58	6.58	-9.73	-0.2979	-0.2054	-0.4086	
0.57462	0.770918	0.50935	-5.04	10.43	-13.44	-0.2983	-0.1995	-0.4131	
0.558272	0.767136	0.501908	-4.62	13.72	-16.31	-0.2905	-0.2104	-0.4193	
0.545706	0.762988	0.504958	-6.3	15.47	-20.86	-0.2864	-0.2032	-0.4175	
0.53131	0.754082	0.497394	-8.4	17.08	-23.87	-0.2856	-0.2165	-0.4146	
0.519232	0.742858	0.494344	-8.12	17.15	-26.88	-0.2742	-0.2097	-0.4158	
0.496784	0.753472	0.487512	-6.93	20.37	-29.89	-0.2896	-0.2032	-0.4268	
0.493124	0.756156	0.501786	-6.86	18.97	-31.92	-0.2831	-0.2123	-0.4222	
0.481168	0.74054	0.492026	-7.63	21.35	-35.07	-0.2679	-0.2221	-0.4251	
0.462258	0.75091	0.497272	-6.58	24.5	-36.96	-0.2597	-0.2091	-0.4216	
0.435418	0.740296	0.503372	-6.93	23.24	-39.34	-0.2581	-0.2153	-0.431	
0.43554	0.755546	0.518988	-7.07	23.03	-38.99	-0.2475	-0.2173	-0.4246	
0.41785	0.761646	0.52399	-5.6	27.09	-39.34	-0.2434	-0.2132	-0.4321	
0.383568	0.768844	0.51911	-6.23	29.96	-39.48	-0.2445	-0.2221	-0.4369	
0.35502	0.772504	0.518256	-6.23	30.17	-41.02	-0.2243	-0.2189	-0.4472	
0.34099	0.775798	0.532774	-6.44	29.4	-42.77	-0.2284	-0.2215	-0.4412	
0.320494	0.773602	0.536678	-5.88	30.38	-43.4	-0.2179	-0.2219	-0.4317	
0.285602	0.789462	0.544242	-4.27	32.76	-44.31	-0.2152	-0.2208	-0.4409	
0.255224	0.795318	0.552782	-5.39	31.85	-45.57	-0.2002	-0.2229	-0.4328	
0.24034	0.788974	0.554612	-8.26	28.63	-47.46	-0.1926	-0.2294	-0.442	
0.2257	0.779092	0.561688	-6.65	30.38	-49.28	-0.1937	-0.2368	-0.4406	
0.2135	0.777628	0.557296	-5.46	32.34	-49.14	-0.1777	-0.2347	-0.4449	
0.181658	0.79605	0.5612	-4.62	32.62	-49.77	-0.1603	-0.2298	-0.4475	
0.15128	0.809958	0.57279	-3.36	33.25	-51.38	-0.1646	-0.2356	-0.4569	
0.113948	0.78934	0.568032	-8.26	31.22	-52.85	-0.1408	-0.2337	-0.4409	
0.069662	0.772138	0.572546	-8.75	33.6	-55.23	-0.1391	-0.2398	-0.4487	
0.052704	0.747982	0.573034	-10.08	32.97	-56.42	-0.1343	-0.2224	-0.4544	
0.036966	0.741638	0.585722	-9.24	33.67	-56.07	-0.1262	-0.2331	-0.4483	
0.011468	0.751886	0.596946	-7.28	34.23	-55.23	-0.1041	-0.2344	-0.454	
-0.00183	0.741394	0.584258	-8.19	35.77	-53.48	-0.1025	-0.2359	-0.4509	
-0.02074	0.753472	0.582184	-8.96	36.12	-50.96	-0.08199999	-0.231	-0.4457	
-0.037088	0.74908	0.571692	-10.64	37.8	-49.14	-0.0818	-0.237	-0.4504	
-0.071736	0.715896	0.567544	-12.18	37.59	-48.51	-0.0673	-0.2334	-0.4531	
-0.132004	0.707844	0.574498	-10.29	39.06	-48.79	-0.0675	-0.2305	-0.4546	
-0.1769	0.718336	0.586332	-6.23	38.92	-47.81	-0.0615	-0.2292	-0.4498	
-0.191418	0.726144	0.593042	-6.79	31.85	-44.59	-0.0519	-0.2195	-0.4556	
-0.205448	0.729072	0.574864	-12.04	29.54	-45.85	-0.0205	-0.2256	-0.4534	
-0.214476	0.695766	0.588528	-14.07	28.98	-47.25	-0.0235	-0.2285	-0.4597	
-0.274012	0.694058	0.595726	-11.69	35.07	-46.41	-0.0107	-0.2157	-0.4515	
-0.327936	0.713212	0.592554	-9.03	37.31	-45.22	-0.005	-0.2146	-0.4575	
-0.318298	0.701988	0.576572	-10.71	32.9	-43.68	0.0018	-0.2061	-0.4587	
-0.304878	0.69174	0.588894	-12.53	26.88	-42.14	0.0123	-0.2096	-0.4601	
-0.326838	0.675758	0.587796	-13.3	27.23	-42.14	0.0209	-0.2072	-0.4645	
-0.366732	0.661728	0.590724	-12.39	26.81	-41.72	0.0223	-0.2027	-0.4566	
-0.390034	0.664778	0.601826	-9.38	25.9	-39.97	0.0267	-0.2045	-0.4612	
-0.412848	0.674416	0.588406	-9.31	26.74	-38.57	0.0426	-0.198	-0.4638	
-0.438102	0.672342	0.61122	-8.12	24.64	-36.61	0.0428	-0.1963	-0.4483	
-0.482754	0.67283	0.582794	-9.24	25.9	-33.74	0.0604	-0.1927	-0.4463	
-0.5124	0.694668	0.58682	-7.91	21.49	-33.53	0.0589	-0.1926	-0.4464	
-0.503494	0.671	0.57828	-9.52	18.06	-32.83	0.0587	-0.1928	-0.4556	
-0.49715	0.647698	0.570106	-11.13	15.4	-33.11	0.0689	-0.1888	-0.4491	
-0.485194	0.640378	0.58011	-11.06	11.69	-32.27	0.0592	-0.1765	-0.4584	
-0.482632	0.632326	0.58621	-11.13	11.97	-30.17	0.07009999	-0.1829	-0.449	
-0.4819	0.608658	0.599264	-10.43	10.78	-28.35	0.0801	-0.1806	-0.458	
-0.51362	0.610976	0.59963	-10.85	13.79	-24.85	0.0828	-0.1717	-0.4485	
-0.518378	0.59658	0.60573	-10.57	12.81	-21.42	0.0784	-0.1746	-0.4548	
-0.526918	0.610976	0.618906	-8.96	12.6	-19.88	0.0959	-0.171	-0.4544	
-0.524356	0.60878	0.611342	-9.52	15.26	-17.85	0.0828	-0.1733	-0.4516	
-0.543266	0.592676	0.60634	-10.99	17.43	-15.82	0.09559999	-0.162	-0.4465	
-0.560346	0.568886	0.606096	-10.5	17.29	-13.58	0.0997	-0.164	-0.4634	
-0.586454	0.570838	0.604266	-8.68	14.21	-11.9	0.0938	-0.1606	-0.4589	
-0.603778	0.578768	0.609512	-6.16	12.95	-9.87	0.0989	-0.1727	-0.4574	
-0.603412	0.583038	0.610366	-5.25	12.6	-8.19	0.1024	-0.1581	-0.4602	
-0.622444	0.579988	0.593896	-6.16	8.82	-6.58	0.0999	-0.1623	-0.4526	
-0.623176	0.562176	0.60329	-6.3	0.84	-5.46	0.1116	-0.16	-0.4507	
-0.613538	0.55937	0.610854	-5.81	-3.5	-3.01	0.1039	-0.1536	-0.4493	
-0.593286	0.554368	0.622322	-3.57	-4.97	-0.42	0.1059	-0.1657	-0.4556	
-0.586698	0.565836	0.623298	-3.36	-3.36	2.17	0.1098	-0.1586	-0.4631	
-0.581452	0.546316	0.632448	-2.59	-3.08	4.41	0.1086	-0.1583	-0.4508	
-0.591334	0.550098	0.639768	-0.21	-3.71	7.14	0.09999999	-0.1623	-0.448	
-0.599264	0.554612	0.63135	1.89	-2.24	10.99	0.0979	-0.1564	-0.4603	
-0.585112	0.55998	0.62769	2.8	-2.66	14.98	0.098	-0.1579	-0.4587	
-0.57401	0.563396	0.633302	3.71	-6.93	17.71	0.1014	-0.1593	-0.4448	
-0.579134	0.560712	0.62952	4.2	-9.52	20.16	0.1115	-0.1616	-0.46	
-0.594628	0.55998	0.62708	5.53	-10.01	22.96	0.09559999	-0.1682	-0.4621	
-0.586332	0.550342	0.618906	6.93	-13.79	26.25	0.09869999	-0.1698	-0.4574	
-0.576206	0.565836	0.625982	7.7	-18.06	29.19	0.0879	-0.1618	-0.459	
-0.556564	0.566324	0.636352	8.82	-21.21	31.64	0.0884	-0.1707	-0.4607	
-0.53558	0.575474	0.62708	9.31	-22.61	34.44	0.0784	-0.1761	-0.458	
-0.52033	0.5734	0.619882	9.8	-24.99	37.66	0.0816	-0.1838	-0.4626	
-0.486902	0.56913	0.624396	11.06	-26.95	41.16	0.07539999	-0.176	-0.4596	
-0.459086	0.584746	0.631228	12.67	-28.35	43.75	0.063	-0.1885	-0.4524	
-0.446276	0.600484	0.62769	13.65	-26.95	46.41	0.0517	-0.1793	-0.4725	
-0.432612	0.618418	0.616954	14.84	-25.97	49.14	0.0586	-0.1959	-0.4649	
-0.42151	0.623786	0.614636	14.42	-26.46	51.17	0.0394	-0.1918	-0.4591	
-0.40504	0.623908	0.622322	15.26	-28	53.55	0.0365	-0.1931	-0.4592	
-0.387472	0.63379	0.627202	17.64	-27.79	54.53	0.032	-0.1914	-0.4562	
-0.341234	0.673318	0.592432	17.43	-26.74	55.65	0.0066	-0.2138	-0.4603	
-0.303414	0.690032	0.601704	15.61	-32.2	55.37	-0.0037	-0.2117	-0.4574	
-0.292556	0.6588	0.596336	14.14	-32.97	57.05	-0.0111	-0.2114	-0.4607	
-0.278892	0.657458	0.605242	17.92	-29.96	58.52	-0.0179	-0.2183	-0.4517	
-0.246196	0.67283	0.597068	19.67	-28.63	60.62	-0.0152	-0.217	-0.4578	
-0.199226	0.685396	0.57767	20.58	-32.13	61.53	-0.0219	-0.2301	-0.4612	
-0.170312	0.721142	0.574742	20.44	-33.88	61.88	-0.0366	-0.2307	-0.46	
-0.172264	0.75823	0.55388	21.35	-32.06	61.95	-0.0497	-0.2329	-0.4573	
-0.155916	0.775798	0.529114	21.91	-30.66	62.09	-0.0552	-0.2416	-0.4576	
-0.088328	0.77409	0.533018	21.07	-37.66	60.62	-0.0672	-0.2333	-0.4469	
-0.05551	0.762744	0.52277	18.55	-39.83	59.43	-0.0731	-0.2392	-0.4626	
-0.025498	0.742858	0.502152	18.2	-38.64	60.13	-0.08549999	-0.2487	-0.4476	
0.012078	0.764696	0.497028	17.92	-35.35	59.85	-0.0946	-0.2437	-0.4477	
0.069418	0.790804	0.488976	15.12	-49	59.08	-0.1124	-0.2428	-0.4481	
0.09942999	0.842532	0.4941	12.25	-47.88	57.82	-0.1174	-0.2587	-0.4439	
0.13054	0.822524	0.490318	5.81	-48.51	56.07	-0.1338	-0.2549	-0.4442	
0.177144	0.768722	0.510326	5.39	-47.74	54.04	-0.1418	-0.2441	-0.4442	
0.211792	0.744566	0.501664	9.31	-47.88	53.97	-0.158	-0.2432	-0.4446	
0.253272	0.758108	0.485438	13.37	-50.75	54.53	-0.1655	-0.2429	-0.4494	
0.290238	0.802028	0.497638	19.39	-45.22	55.86	-0.1713	-0.2378	-0.4324	
0.287554	0.838872	0.494344	20.86	-44.24	54.88	-0.1873	-0.2429	-0.4313	
0.305244	0.838872	0.494588	19.04	-45.92	52.22	-0.2051	-0.242	-0.4364	
0.357704	0.826672	0.489342	16.1	-44.24	49.42	-0.2064	-0.2402	-0.424	
0.426634	0.82777	0.503982	16.52	-39.9	45.08	-0.2161	-0.2531	-0.4245	
0.419924	0.817766	0.473604	7.7	-37.87	44.52	-0.2238	-0.2452	-0.4214	
0.40138	0.799588	0.44835	6.37	-34.16	43.12	-0.2296	-0.2464	-0.4216	
0.390278	0.784948	0.418582	8.33	-35.35	41.72	-0.2457	-0.2438	-0.408	
0.434808	0.787632	0.414434	6.93	-38.5	40.04	-0.2518	-0.242	-0.4112	
0.47153	0.814716	0.41907	5.11	-34.72	39.2	-0.2591	-0.2416	-0.4083	
0.488854	0.816668	0.420046	-0.21	-35.14	38.08	-0.2755	-0.2346	-0.3993	
0.483852	0.800442	0.426756	-4.06	-34.72	36.75	-0.2757	-0.2301	-0.3992	
0.48312	0.768966	0.418948	-5.25	-37.17	34.16	-0.2863	-0.2298	-0.4103	
0.5246	0.765306	0.435052	-3.15	-39.13	31.78	-0.2949	-0.2291	-0.3966	
0.551928	0.767746	0.432246	-5.11	-35.42	30.38	-0.3082	-0.2283	-0.3953	
0.562054	0.770308	0.421388	-7.07	-32.41	29.68	-0.3062	-0.2137	-0.4012	
0.59841	0.7808	0.429684	-7.28	-33.67	27.65	-0.325	-0.2155	-0.3924	
0.603412	0.772992	0.418582	-12.04	-26.95	26.32	-0.3237	-0.2095	-0.3861	
0.61854	0.755912	0.43615	-10.85	-27.3	24.08	-0.3174	-0.2188	-0.3907	
0.6405	0.742492	0.435906	-9.59	-23.17	21.91	-0.3328	-0.2076	-0.3893	
0.653554	0.741882	0.438712	-9.8	-20.51	20.23	-0.3453	-0.1951	-0.394	
0.639158	0.735904	0.422364	-11.55	-14.7	19.11	-0.3371	-0.2057	-0.3802	
0.640622	0.741028	0.437126	-11.34	-12.04	17.43	-0.3431	-0.2055	-0.3865	
0.639402	0.722972	0.446032	-13.09	-9.38	15.12	-0.344	-0.1891	-0.3862	
0.637816	0.739808	0.44469	-12.46	-7.84	13.37	-0.3494	-0.1977	-0.3849	
0.650016	0.736148	0.449204	-10.29	-7.56	10.71	-0.3483	-0.1888	-0.377	
0.642818	0.727852	0.435174	-13.16	-4.13	8.12	-0.3497	-0.1918	-0.3833	
0.629276	0.734196	0.42212	-11.97	-2.8	5.32	-0.3533	-0.1828	-0.3909	
0.653554	0.722606	0.454938	-9.31	-2.8	1.89	-0.3504	-0.1815	-0.3908	
0.661606	0.695644	0.45018	-10.78	0.42	-0.7	-0.3547	-0.1827	-0.3879	
0.643184	0.696498	0.455914	-10.71	2.17	-2.31	-0.3501	-0.1843	-0.3832	
0.634888	0.725412	0.45079	-9.8	2.31	-4.13	-0.3613	-0.1673	-0.38	
0.630496	0.719678	0.448228	-9.03	3.99	-7.63	-0.3464	-0.1712	-0.3829	
0.62647	0.704184	0.452986	-8.54	4.97	-9.87	-0.3463	-0.1726	-0.3813	
0.641476	0.686982	0.4758	-7.07	7.7	-11.83	-0.3491	-0.1801	-0.3923	
0.636108	0.694546	0.473238	-6.51	9.59	-13.51	-0.354	-0.1724	-0.3954	
0.641598	0.710528	0.484828	-4.34	11.62	-16.17	-0.3505	-0.1769	-0.383	
0.643672	0.713578	0.492636	-2.59	14.56	-19.39	-0.3432	-0.182	-0.3984	
0.625006	0.719678	0.477386	-3.71	17.57	-21.35	-0.3315	-0.1812	-0.4012	
0.597678	0.719922	0.471042	-3.01	18.2	-22.82	-0.3324	-0.1853	-0.3874	
0.590236	0.72346	0.473238	-3.99	20.09	-25.69	-0.3268	-0.1828	-0.3934	
0.58621	0.71614	0.468114	-3.01	23.1	-27.86	-0.3238	-0.1876	-0.4042	
0.577426	0.720044	0.490562	-1.54	26.46	-29.75	-0.3162	-0.1924	-0.4041	
0.557784	0.72102	0.489952	-2.52	29.19	-31.43	-0.3224	-0.1923	-0.4151	
0.537532	0.73505	0.497882	-0.35	30.31	-33.81	-0.2971	-0.1951	-0.4114	
0.524478	0.731756	0.510814	-0.63	31.15	-35.35	-0.2957	-0.1922	-0.4114	
0.516304	0.719068	0.509106	-0.7	31.78	-36.96	-0.2909	-0.1999	-0.4129	
0.50935	0.728706	0.504958	0	34.02	-37.8	-0.2894	-0.203	-0.4191	
0.475068	0.734684	0.50813	2.45	36.47	-38.22	-0.2672	-0.2073	-0.4264	
0.446642	0.748104	0.50508	5.11	39.2	-40.04	-0.2672	-0.2073	-0.4264	
0.411262	0.73261	0.495076	3.57	38.57	-40.95	-0.2485	-0.223	-0.417	
0.387716	0.733342	0.501054	6.86	36.68	-42.42	-0.2485	-0.223	-0.417	
0.387472	0.75884	0.501908	5.88	35.07	-44.03	-0.255	-0.2123	-0.4185	
0.387472	0.784094	0.508984	3.71	36.61	-45.57	-0.2429	-0.2205	-0.4276	
0.332572	0.782996	0.500932	1.68	41.02	-45.36	-0.231	-0.2242	-0.4289	
0.279624	0.777384	0.490806	1.47	41.51	-45.71	-0.2203	-0.2322	-0.4335	
0.267424	0.77409	0.50386	1.61	37.45	-47.67	-0.2256	-0.2156	-0.4302	
0.25376	0.77348	0.521306	-1.47	36.33	-49.91	-0.2009	-0.2362	-0.4315	
0.227896	0.777018	0.538264	-4.13	39.2	-52.08	-0.1938	-0.2338	-0.439	
0.211304	0.792878	0.541802	-6.09	38.85	-52.36	-0.1785	-0.2404	-0.4311	
0.197518	0.813008	0.549366	-4.76	38.57	-53.2	-0.171	-0.2499	-0.445	
0.160308	0.798124	0.555832	-3.99	41.02	-53.62	-0.1627	-0.2385	-0.4461	
0.12688	0.76006	0.557662	-2.87	40.18	-54.74	-0.1505	-0.2481	-0.4475	
0.080398	0.789706	0.546316	-2.24	41.09	-55.16	-0.1405	-0.2443	-0.4534	
0.053924	0.81008	0.542778	-2.73	40.95	-56.35	-0.1266	-0.2523	-0.4455	
0.052338	0.7991	0.543144	-5.53	43.33	-57.33	-0.1181	-0.2469	-0.4499	
0.029402	0.773724	0.545584	-8.54	44.8	-57.54	-0.1094	-0.2444	-0.4496	
-0.003904	0.747738	0.53741	-12.88	43.68	-57.12	-0.0841	-0.2472	-0.4475	
-0.048678	0.72285	0.549976	-11.69	41.51	-56.98	-0.08989999	-0.253	-0.4539	
-0.108214	0.74237	0.551074	-8.54	41.16	-55.79	-0.0791	-0.2328	-0.4533	
-0.140666	0.772382	0.552172	-7.84	40.18	-53.34	-0.0614	-0.2338	-0.456	
-0.163236	0.759938	0.556442	-9.94	39.55	-52.64	-0.0438	-0.2332	-0.4556	
-0.190808	0.738832	0.554856	-14.49	35.84	-52.57	-0.0405	-0.2409	-0.4603	
-0.228628	0.716384	0.545828	-14.56	33.67	-52.85	-0.0363	-0.2352	-0.457	
-0.23241	0.712236	0.557906	-14.07	37.59	-50.12	-0.0199	-0.2391	-0.4598	
-0.22875	0.68442	0.564372	-14	38.43	-46.97	-0.01	-0.2276	-0.4501	
-0.263154	0.691618	0.581818	-11.48	39.9	-44.17	-0.0029	-0.225	-0.4545	
-0.335012	0.73078	0.571692	-9.17	39.76	-41.02	0.0029	-0.2254	-0.4559	
-0.371612	0.72712	0.572912	-11.9	34.86	-39.62	0.0137	-0.2303	-0.4481	
-0.374662	0.70882	0.572424	-13.09	33.67	-41.16	0.0178	-0.2292	-0.4572	
-0.376004	0.699182	0.568398	-14.56	35.91	-42.28	0.0347	-0.2138	-0.4565	
-0.37271	0.66734	0.562298	-14.77	35.49	-42.14	0.0378	-0.2154	-0.455	
-0.392962	0.642086	0.547658	-14.28	32.48	-39.69	0.0447	-0.2084	-0.4578	
-0.443714	0.662216	0.552294	-12.11	36.54	-36.33	0.0521	-0.2057	-0.4514	
-0.486292	0.679296	0.551196	-13.16	27.65	-33.18	0.0679	-0.1962	-0.4493	
-0.477508	0.667706	0.560346	-14.07	25.9	-33.46	0.0678	-0.1962	-0.4508	
-0.471164	0.648308	0.571814	-14.63	24.36	-33.11	0.0706	-0.1949	-0.4538	
-0.48617	0.622078	0.58926	-13.72	22.82	-32.41	0.08549999	-0.1972	-0.4566	
-0.528748	0.634156	0.58316	-11.27	22.68	-30.24	0.07759999	-0.1863	-0.452	
-0.55815	0.653188	0.589992	-10.85	23.17	-27.44	0.0878	-0.1854	-0.4533	
-0.565226	0.644648	0.585112	-11.48	22.19	-26.25	0.0883	-0.1882	-0.4394	
-0.565836	0.630496	0.560834	-12.81	20.51	-26.04	0.1028	-0.1861	-0.4437	
-0.58255	0.612684	0.571814	-10.64	18.34	-25.27	0.0983	-0.1859	-0.4484	
-0.61549	0.603778	0.574986	-10.01	18.48	-22.75	0.1034	-0.1668	-0.4402	
-0.642208	0.603412	0.5551	-7.14	14.35	-19.11	0.1082	-0.176	-0.4418	
-0.632936	0.614026	0.550342	-6.93	9.17	-15.89	0.1183	-0.1675	-0.4353	
-0.611098	0.596824	0.558882	-7.56	3.5	-14.07	0.117	-0.1735	-0.4416	
-0.610854	0.586698	0.5734	-7.21	2.38	-11.69	0.121	-0.1663	-0.4429	
-0.613904	0.578158	0.57523	-6.65	1.12	-9.17	0.1138	-0.1703	-0.4416	
-0.610244	0.578402	0.584868	-4.69	-0.63	-6.65	0.122	-0.1605	-0.449	
-0.613538	0.566324	0.590968	-4.55	-3.08	-4.13	0.1178	-0.1632	-0.4476	
-0.59231	0.561322	0.605852	-2.8	-5.04	-1.96	0.1162	-0.1648	-0.4569	
-0.592554	0.571326	0.612318	-0.63	-3.43	1.05	0.1148	-0.1615	-0.443	
-0.61427	0.558028	0.597678	-1.19	-5.95	3.15	0.118	-0.1646	-0.4414	
-0.621956	0.546926	0.601094	0.35	-4.27	6.23	0.1206	-0.1604	-0.4459	
-0.633546	0.567788	0.616222	3.64	-4.13	9.52	0.1161	-0.1617	-0.4507	
-0.624274	0.570228	0.603168	3.01	-7.77	11.97	0.1058	-0.158	-0.4416	
-0.618296	0.5673	0.600118	3.01	-8.33	14.56	0.1168	-0.1736	-0.4509	
-0.622566	0.57218	0.59719	3.78	-11.41	17.5	0.1092	-0.1671	-0.4432	
-0.601338	0.569374	0.595604	5.74	-17.99	21.77	0.1021	-0.1743	-0.4497	
-0.5978	0.573034	0.591822	6.58	-20.51	25.2	0.1018	-0.1699	-0.4527	
-0.576938	0.57279	0.608536	8.4	-23.87	28.91	0.09559999	-0.1651	-0.4527	
-0.563396	0.575474	0.612684	9.03	-28.14	32.13	0.0874	-0.178	-0.4532	
-0.538996	0.580598	0.61427	9.94	-29.12	35.98	0.0785	-0.176	-0.4549	
-0.498492	0.58072	0.62159	10.08	-30.03	40.32	0.07889999	-0.1834	-0.4519	
-0.477508	0.5856	0.63196	12.25	-29.54	43.68	0.0624	-0.1781	-0.4522	
-0.465918	0.593896	0.615368	12.74	-29.33	46.62	0.0719	-0.1921	-0.4584	
-0.452986	0.62952	0.617808	15.33	-28.91	48.37	0.0556	-0.1912	-0.4588	
-0.433588	0.620614	0.604144	15.4	-24.78	49.63	0.0489	-0.1996	-0.4498	
-0.41968	0.630496	0.613904	17.57	-25.9	50.19	0.0472	-0.1981	-0.4529	
-0.39772	0.63074	0.594262	18.55	-27.23	52.36	0.0369	-0.199	-0.4547	
-0.355874	0.64965	0.586698	17.99	-27.58	55.44	0.0246	-0.2161	-0.4537	
-0.320372	0.677832	0.590358	18.83	-26.67	57.89	0.0124	-0.2096	-0.4554	
-0.32147	0.702476	0.581574	17.57	-22.82	59.99	0.007	-0.2182	-0.4542	
-0.33306	0.712846	0.582306	16.66	-26.39	60.34	0.0084	-0.2152	-0.451	
-0.32269	0.729804	0.572424	16.94	-28.21	60.2	-0.0028	-0.2265	-0.4546	
-0.254858	0.716384	0.555344	17.92	-32.13	58.73	-0.01	-0.2291	-0.4548	
-0.188246	0.706014	0.546316	18.34	-33.53	57.89	-0.0204	-0.2286	-0.455	
-0.176778	0.72773	0.543876	17.85	-34.93	57.96	-0.0262	-0.2328	-0.4614	
-0.186904	0.74481	0.519354	18.34	-33.53	59.43	-0.0389	-0.2378	-0.4463	
-0.16958	0.784704	0.518012	19.6	-33.53	59.43	-0.0477	-0.2404	-0.4512	
-0.117852	0.814472	0.529968	18.97	-36.12	56.98	-0.0509	-0.2358	-0.4527	
-0.05673	0.812642	0.524722	15.96	-38.01	54.32	-0.0592	-0.2488	-0.4593	
-0.021716	0.796172	0.51972	10.36	-36.33	52.64	-0.0684	-0.2377	-0.4455	
0.000976	0.77409	0.52277	10.36	-34.51	51.52	-0.0812	-0.2459	-0.4444	
0.020618	0.783972	0.517402	13.93	-31.57	51.73	-0.0944	-0.2451	-0.4385	
0.098454	0.787022	0.506788	15.68	-40.67	50.54	-0.1015	-0.2491	-0.4372	
0.136152	0.782874	0.501786	12.04	-52.08	50.82	-0.1102	-0.2577	-0.4499	
0.157746	0.771162	0.477874	9.8	-46.2	50.96	-0.1207	-0.2527	-0.4469	
0.201544	0.763964	0.488244	11.06	-45.08	50.47	-0.1457	-0.2497	-0.4382	
0.234118	0.778116	0.499346	12.88	-46.55	50.82	-0.1499	-0.2539	-0.4384	
0.235094	0.770186	0.464698	11.83	-46.69	52.78	-0.1589	-0.2504	-0.4354	
0.296338	0.778726	0.482144	12.46	-47.39	53.2	-0.1678	-0.2469	-0.4294	
0.32574	0.799344	0.470554	11.2	-44.59	51.94	-0.1839	-0.249	-0.4298	
0.34221	0.82533	0.4697	10.29	-40.81	51.17	-0.1838	-0.252	-0.4314	
0.34404	0.847778	0.487512	11.34	-37.73	48.93	-0.1997	-0.2508	-0.4132	
0.349774	0.817156	0.463478	5.18	-36.19	46.55	-0.2134	-0.2473	-0.4243	
0.368684	0.800564	0.45689	8.54	-31.5	44.87	-0.2235	-0.2496	-0.4184	
0.434198	0.807396	0.477508	7.07	-39.2	43.61	-0.2354	-0.2475	-0.4171	
0.45201	0.8357	0.46421	3.57	-33.39	43.05	-0.2412	-0.2486	-0.4173	
0.444568	0.83936	0.444202	2.1	-33.53	41.23	-0.2428	-0.2486	-0.4204	
0.46177	0.84241	0.429684	1.33	-31.85	38.5	-0.2562	-0.2433	-0.4144	
0.48617	0.853024	0.437858	-0.42	-28.77	35.07	-0.2589	-0.243	-0.4037	
0.493002	0.852292	0.440176	-4.2	-26.67	32.34	-0.2692	-0.2455	-0.4101	
0.499834	0.82472	0.444324	-7.63	-25.62	30.17	-0.2791	-0.2256	-0.4069	
0.513376	0.816912	0.448716	-11.13	-23.94	28.07	-0.2708	-0.2439	-0.4086	
0.500322	0.806176	0.437858	-12.95	-21.63	26.18	-0.285	-0.2269	-0.4117	
0.494832	0.790438	0.427854	-11.27	-22.61	25.34	-0.2954	-0.2264	-0.4135	
0.503128	0.785314	0.415532	-14	-22.26	23.1	-0.3038	-0.2302	-0.4014	
0.517158	0.765794	0.418582	-11.83	-23.52	20.72	-0.3002	-0.2109	-0.3917	
0.538996	0.764696	0.423462	-9.24	-23.45	18.9	-0.31	-0.2239	-0.3999	
0.559736	0.762622	0.440176	-7.42	-23.52	16.24	-0.3136	-0.2118	-0.3982	
0.586576	0.751398	0.437858	-8.05	-20.65	13.86	-0.3168	-0.2087	-0.4044	
0.596092	0.745542	0.46055	-4.9	-20.51	10.15	-0.3272	-0.2066	-0.4	
0.61	0.741394	0.457622	-4.06	-17.15	7.91	-0.3238	-0.2111	-0.3923	
0.61976	0.738588	0.454694	-3.08	-15.89	5.67	-0.3215	-0.204	-0.406	
0.623176	0.74176	0.454938	-1.26	-12.32	3.92	-0.3269	-0.2064	-0.3876	
0.622322	0.730292	0.44774	-1.75	-9.31	2.73	-0.3228	-0.2038	-0.3983	
0.636108	0.737856	0.460184	-2.45	-6.16	1.82	-0.3377	-0.2	-0.3955	
0.625738	0.750422	0.451156	-4.76	-2.59	0.49	-0.3388	-0.2104	-0.4003	
0.643184	0.739686	0.467748	-4.34	0.21	-0.98	-0.3299	-0.2063	-0.3877	
0.624884	0.733708	0.4575	-5.95	4.06	-1.12	-0.3304	-0.1989	-0.3938	
0.605974	0.753594	0.44896	-6.51	6.02	-2.73	-0.3293	-0.1916	-0.3952	
0.597922	0.748104	0.445056	-7.14	8.05	-5.25	-0.3349	-0.1956	-0.3892	
0.615612	0.756766	0.47275	-6.3	7.98	-8.4	-0.3274	-0.1975	-0.389	
0.61305	0.758108	0.474336	-7.14	10.85	-10.78	-0.3261	-0.1977	-0.3967	
0.59109	0.740418	0.465796	-7.07	11.41	-13.16	-0.3248	-0.1933	-0.3951	
0.582916	0.743468	0.466894	-7.77	13.16	-15.54	-0.3265	-0.1949	-0.4075	
0.586332	0.744078	0.472262	-8.54	15.4	-18.27	-0.3206	-0.1937	-0.4073	
0.580598	0.738222	0.467504	-8.82	17.57	-21	-0.3114	-0.2017	-0.4088	
0.574864	0.746884	0.48129	-7.77	19.6	-23.31	-0.3141	-0.209	-0.4136	
0.560468	0.748836	0.483608	-7.91	21.91	-26.25	-0.3041	-0.2021	-0.4117	
0.551074	0.74542	0.481656	-6.58	23.31	-28.77	-0.2983	-0.1995	-0.4131	
0.535214	0.744932	0.488854	-5.53	24.71	-31.08	-0.2994	-0.2084	-0.4164	
0.524234	0.745664	0.475922	-6.58	26.95	-33.11	-0.2936	-0.2072	-0.4162	
0.519964	0.749568	0.485438	-7.21	27.37	-35.49	-0.2819	-0.2034	-0.4143	
0.480314	0.74969	0.493734	-5.25	29.61	-37.38	-0.2836	-0.2019	-0.4221	
0.465308	0.751642	0.496174	-6.72	31.36	-39.13	-0.2757	-0.2143	-0.4252	
0.441396	0.744322	0.498492	-5.67	32.48	-40.81	-0.2606	-0.218	-0.4203	
0.419192	0.74481	0.49776	-3.71	32.41	-42.49	-0.264	-0.2119	-0.4264	
0.411872	0.75457	0.511424	-2.8	33.25	-43.26	-0.2473	-0.2187	-0.4184	
0.38979	0.766892	0.507154	-1.26	35.49	-44.8	-0.2401	-0.2223	-0.4368	
0.343064	0.77714	0.507398	-1.68	37.94	-44.94	-0.2269	-0.2184	-0.4287	
0.305732	0.78324	0.506788	-4.2	37.59	-46.48	-0.2298	-0.226	-0.4475	
0.281698	0.782264	0.520208	-4.27	36.47	-49.42	-0.2176	-0.2295	-0.4364	
0.259006	0.788486	0.529602	-4.97	36.96	-51.17	-0.205	-0.2214	-0.4468	
0.260592	0.763964	0.54717	-5.95	33.04	-52.92	-0.197	-0.2322	-0.4453	
0.236558	0.753228	0.554734	-4.13	35.7	-52.71	-0.1941	-0.2324	-0.4467	
0.18544	0.7747	0.56852	-3.57	35.56	-51.73	-0.1832	-0.2388	-0.4404	
0.14335	0.78873	0.554734	-1.05	35.84	-51.1	-0.1615	-0.2326	-0.4445	
0.127002	0.792756	0.55754	-4.48	34.3	-50.96	-0.1544	-0.2316	-0.4504	
0.111996	0.782508	0.564006	-6.65	34.51	-51.31	-0.1425	-0.2292	-0.4424	
0.09211	0.763964	0.581208	-7.07	34.09	-51.73	-0.1391	-0.2444	-0.4565	
0.052826	0.751764	0.56669	-5.32	34.65	-52.15	-0.1306	-0.2375	-0.4593	
0.018544	0.743224	0.551684	-5.04	35.56	-52.78	-0.1248	-0.2317	-0.4498	
-0.035746	0.76189	0.548512	-3.85	35.7	-53.13	-0.1066	-0.2447	-0.4573	
-0.07015	0.770674	0.564738	-5.67	34.09	-52.36	-0.09649999	-0.2408	-0.457	
-0.069906	0.756278	0.592432	-8.05	32.27	-51.59	-0.09559999	-0.2274	-0.4505	
-0.070272	0.751032	0.574986	-11.34	31.29	-50.61	-0.0775	-0.2358	-0.4534	
-0.081618	0.738466	0.55998	-12.6	33.67	-49.14	-0.0702	-0.2348	-0.4547	
-0.09162199	0.731268	0.575352	-10.85	34.02	-48.51	-0.06439999	-0.2305	-0.4483	
-0.141398	0.724436	0.584868	-9.03	39.48	-47.67	-0.0521	-0.2401	-0.4498	
-0.246074	0.774944	0.558516	-11.97	38.22	-46.62	-0.0363	-0.2321	-0.4493	
-0.200568	0.740052	0.57096	-13.86	32.97	-47.04	-0.0264	-0.2298	-0.4613	
-0.20069	0.707356	0.5795	-16.73	38.5	-44.8	-0.0286	-0.2179	-0.4643	
-0.233752	0.66307	0.58011	-15.75	41.3	-43.12	-0.0159	-0.2303	-0.4549	
-0.291702	0.654164	0.579256	-11.76	41.09	-41.23	-0.0032	-0.2253	-0.47	
-0.336598	0.706502	0.582184	-8.12	45.22	-37.38	0.0068	-0.2152	-0.4541	
-0.331474	0.721508	0.59292	-8.82	40.11	-36.82	0.0143	-0.2202	-0.4618	
-0.322324	0.716384	0.585234	-13.3	33.46	-38.15	0.026	-0.2117	-0.4475	
-0.32025	0.67893	0.56669	-16.8	38.92	-37.38	0.0286	-0.2059	-0.4488	
-0.35685	0.650992	0.566568	-14.35	44.52	-35.91	0.0403	-0.2051	-0.4501	
-0.411384	0.661118	0.554734	-11.2	41.23	-33.32	0.049	-0.2072	-0.4607	
-0.435296	0.694668	0.565836	-11.76	43.05	-29.75	0.0515	-0.1984	-0.459	
-0.439444	0.680882	0.572058	-13.72	34.72	-31.36	0.065	-0.2021	-0.4618	
-0.464942	0.674416	0.5673	-13.86	37.73	-31.01	0.072	-0.1935	-0.4553	
-0.52948	0.662216	0.560346	-15.26	36.96	-29.54	0.0752	-0.1935	-0.446	
-0.579256	0.652822	0.563762	-14.35	30.24	-28.21	0.0878	-0.1855	-0.4548	
-0.575352	0.657702	0.577914	-13.09	24.08	-27.86	0.092	-0.1812	-0.4531	
-0.55693	0.643428	0.567422	-15.82	21.84	-27.44	0.0859	-0.1764	-0.4547	
-0.571448	0.615124	0.56913	-17.08	21	-27.02	0.1037	-0.1742	-0.4419	
-0.59475	0.57462	0.55327	-16.38	17.57	-25.97	0.1019	-0.1744	-0.4558	
-0.600362	0.592066	0.574254	-10.99	13.72	-23.24	0.1092	-0.1718	-0.4556	
-0.594994	0.589382	0.572302	-10.78	11.48	-20.3	0.1015	-0.1654	-0.4557	
-0.604022	0.588772	0.582794	-9.59	10.64	-17.57	0.1163	-0.1677	-0.4554	
-0.610976	0.589992	0.578768	-9.1	8.19	-15.26	0.1119	-0.1659	-0.4524	
-0.611098	0.566934	0.582184	-7.7	5.95	-13.51	0.1146	-0.1647	-0.4585	
-0.6222	0.566446	0.593408	-5.04	3.92	-10.99	0.1116	-0.1585	-0.4492	
-0.63074	0.56547	0.610854	-2.66	0.91	-7.77	0.1236	-0.1605	-0.4443	
-0.60512	0.573644	0.615002	-0.56	-3.43	-4.27	0.1251	-0.1637	-0.4505	
-0.603168	0.564982	0.599508	-2.03	-2.03	-1.47	0.123	-0.1532	-0.4504	
-0.614636	0.57157	0.597068	0.07	-5.81	0.14	0.112	-0.1643	-0.4431	
-0.629276	0.578402	0.586088	1.68	-4.27	2.66	0.1135	-0.1644	-0.4446	
-0.61854	0.58682	0.59109	3.43	-4.41	4.76	0.1049	-0.1463	-0.4522	
-0.609878	0.5734	0.595848	3.5	-8.4	6.58	0.1161	-0.1571	-0.4429	
-0.607316	0.573888	0.60268	3.64	-11.69	8.75	0.1146	-0.1601	-0.4491	
-0.604998	0.581208	0.603412	3.71	-15.68	11.9	0.1086	-0.1614	-0.4555	
-0.58987	0.576938	0.610976	4.13	-16.8	14.49	0.0982	-0.1593	-0.4541	
-0.56852	0.561688	0.622322	5.95	-20.23	15.82	0.1042	-0.1626	-0.4571	
-0.564738	0.56547	0.619882	7.7	-21.77	17.99	0.1006	-0.1727	-0.4466	
-0.559614	0.571936	0.60878	8.4	-22.05	21.56	0.1009	-0.1802	-0.4513	
-0.54473	0.58804	0.618418	9.66	-22.54	24.92	0.08989999	-0.1723	-0.4623	
-0.538508	0.596214	0.615734	8.82	-23.24	27.23	0.08899999	-0.178	-0.45	
-0.52887	0.607804	0.613538	8.75	-24.92	28.91	0.0844	-0.1779	-0.4594	
-0.519842	0.617076	0.60573	8.96	-25.76	30.73	0.0836	-0.1851	-0.4457	
-0.481534	0.603778	0.617442	10.71	-29.33	32.41	0.0696	-0.1771	-0.4582	
-0.46238	0.619028	0.622078	11.13	-31.43	34.51	0.0655	-0.1813	-0.4553	
-0.446154	0.604144	0.594018	12.25	-31.85	36.26	0.055	-0.1839	-0.4664	
-0.429928	0.65636	0.600606	13.51	-32.06	38.43	0.0553	-0.1867	-0.4587	
-0.38369	0.66978	0.60817	12.53	-33.04	40.18	0.0539	-0.1897	-0.4649	
-0.347578	0.65636	0.620126	11.55	-34.51	39.97	0.0348	-0.1902	-0.4638	
-0.352092	0.655262	0.604388	11.13	-32.06	40.88	0.0327	-0.2033	-0.458	
-0.334768	0.67771	0.598532	14.49	-29.82	41.86	0.0162	-0.2026	-0.4676	
-0.303048	0.703818	0.593774	18.97	-27.65	41.72	0.0122	-0.2082	-0.4601	
-0.27938	0.707112	0.592066	19.95	-32.9	38.85	0.005	-0.2123	-0.4634	
-0.290482	0.716628	0.57096	21.56	-32.62	38.08	0.0031	-0.2048	-0.4648	
-0.286578	0.763598	0.543876	22.68	-32.9	37.52	-0.0148	-0.2245	-0.4579	
-0.247538	0.772382	0.550952	22.82	-37.94	35.14	-0.025	-0.2284	-0.4613	
-0.205326	0.78141	0.553026	22.4	-41.79	30.87	-0.0337	-0.2278	-0.4537	
-0.181414	0.818986	0.565836	22.19	-39.34	27.58	-0.0325	-0.2235	-0.4552	
-0.161894	0.843142	0.562908	20.79	-38.78	24.57	-0.0468	-0.23	-0.451	
-0.114436	0.837164	0.554978	17.78	-40.25	22.05	-0.051	-0.2358	-0.4558	
-0.06893	0.842654	0.550342	16.31	-41.93	19.11	-0.0561	-0.2488	-0.45	
-0.033306	0.857294	0.567422	15.12	-40.6	14.49	-0.0658	-0.2381	-0.4624	
-0.006832	0.843264	0.581452	12.32	-34.3	11.48	-0.07669999	-0.2507	-0.4521	
0.009028	0.833992	0.564006	9.73	-28.77	10.71	-0.0787	-0.2418	-0.4566	
0.028548	0.837164	0.562542	5.11	-27.51	10.85	-0.0829	-0.2413	-0.4459	
0.032696	0.818864	0.564494	0.84	-27.51	9.73	-0.0888	-0.2441	-0.4491	
0.041846	0.803004	0.58255	1.61	-27.86	7.63	-0.0889	-0.2426	-0.4522	
0.07564	0.79788	0.58865	2.17	-27.58	6.44	-0.096	-0.2481	-0.4509	
0.081374	0.838872	0.575962	3.85	-24.36	5.32	-0.1005	-0.2433	-0.4448	
0.074786	0.841922	0.58194	4.9	-21.91	3.71	-0.1065	-0.2446	-0.4511	
0.083082	0.816058	0.569008	5.6	-20.23	2.73	-0.1064	-0.2492	-0.4573	
0.081252	0.80703	0.56242	4.76	-21.28	2.24	-0.1089	-0.2533	-0.4482	
0.107238	0.809226	0.561322	4.9	-18.13	2.87	-0.1089	-0.2518	-0.4436	
0.129076	0.834236	0.58316	5.6	-17.22	4.41	-0.1158	-0.2352	-0.4512	
0.129808	0.807518	0.576938	2.45	-13.3	6.86	-0.1222	-0.2495	-0.4423	
0.11895	0.785192	0.57828	2.73	-7.14	8.26	-0.1163	-0.2498	-0.4406	
0.10553	0.808982	0.568764	4.83	-4.41	9.66	-0.1262	-0.2598	-0.4441	
0.100894	0.823256	0.56669	6.02	-1.19	11.13	-0.1299	-0.2432	-0.4408	
0.101626	0.840336	0.572546	6.79	-0.14	10.99	-0.1266	-0.2539	-0.4486	
0.099918	0.83204	0.56608	6.65	2.94	11.06	-0.1266	-0.2493	-0.4408	
0.09394	0.82777	0.564494	6.09	5.95	10.99	-0.1323	-0.255	-0.4457	
0.094184	0.848754	0.572546	6.51	8.89	11.13	-0.1312	-0.2491	-0.4456	
0.1037	0.81862	0.58072	5.95	11.2	12.04	-0.1218	-0.2585	-0.4455	
0.111142	0.819474	0.57523	4.76	13.79	13.23	-0.1354	-0.2533	-0.4442	
0.14701	0.825696	0.595482	4.69	16.66	14	-0.1219	-0.2539	-0.4377	
0.160186	0.852414	0.58621	5.6	24.22	14	-0.1117	-0.2515	-0.4375	
0.170556	0.822158	0.587308	6.09	32.48	16.17	-0.1235	-0.2524	-0.4393	
0.195566	0.82228	0.607438	9.94	38.71	18.76	-0.1173	-0.2572	-0.4377	
0.162626	0.830698	0.572912	11.41	47.39	22.33	-0.1184	-0.2661	-0.4425	
0.115412	0.84241	0.516914	5.32	57.61	27.44	-0.1074	-0.2503	-0.4389	
0.07259	0.855098	0.505202	1.96	64.4	31.64	-0.085	-0.2576	-0.4462	
0.074298	0.814106	0.522038	-2.1	68.88	36.82	-0.0911	-0.2558	-0.4478	
0.06039	0.828014	0.528016	-0.77	73.99	40.95	-0.0778	-0.2565	-0.4491	
0.050142	0.834724	0.51423	-4.13	73.36	44.24	-0.0731	-0.2597	-0.446	
0.027328	0.833016	0.496784	-6.86	76.93	47.67	-0.0685	-0.2598	-0.4397	
-0.000122	0.857416	0.493734	-8.19	80.71	50.82	-0.0587	-0.2515	-0.4424	
-0.019276	0.851194	0.507642	-10.01	82.25	51.59	-0.0479	-0.261	-0.4439	
0.016958	0.843508	0.518256	-14.42	83.51	53.97	-0.0404	-0.2583	-0.4328	
-0.010492	0.837652	0.522404	-12.95	85.75	57.12	-0.0335	-0.2559	-0.4481	
0.044896	0.844606	0.54839	-11.06	83.44	57.68	-0.0319	-0.2574	-0.445	
-0.050752	0.842654	0.501664	-16.1	87.22	60.69	-0.0191	-0.2523	-0.4523	
-0.040748	0.850462	0.533994	-8.05	79.87	60.9	-0.0221	-0.2491	-0.4461	
-0.059902	0.857904	0.514474	-11.55	82.11	62.44	-0.0073	-0.2484	-0.4442	
-0.110898	0.856318	0.503616	-5.39	72.45	59.78	-0.0042	-0.25	-0.4426	
-0.137128	0.855464	0.49593	-7.35	66.29	57.19	0.0026	-0.2445	-0.4486	
-0.177998	0.876082	0.495076	-5.39	56.98	51.94	0.0122	-0.2568	-0.4439	
-0.175802	0.847778	0.507154	-6.44	49.42	46.2	0.0046	-0.2489	-0.4347	
-0.162504	0.82533	0.507642	-2.38	38.57	39.48	0.0095	-0.2535	-0.4285	
-0.129442	0.83997	0.544608	1.82	30.17	32.97	0.0163	-0.2481	-0.439	
-0.12383	0.826062	0.53253	0.56	29.4	28.91	0.03	-0.2563	-0.4404	
-0.087352	0.83204	0.548878	1.82	20.79	24.08	0.0169	-0.2554	-0.4299	
-0.057828	0.845948	0.559492	-4.2	24.71	23.38	0.0242	-0.2527	-0.4251	
-0.097356	0.837652	0.541436	-11.55	20.79	19.81	0.0195	-0.2542	-0.4406	
-0.107604	0.828502	0.554734	-12.25	13.79	15.75	0.0328	-0.2504	-0.4325	
-0.063562	0.816058	0.58926	-9.24	6.3	11.83	0.0225	-0.2559	-0.4437	
-0.053924	0.832894	0.614758	-4.13	4.27	8.47	0.0315	-0.2532	-0.4311	
-0.077714	0.833138	0.608536	-5.74	5.95	6.44	0.0177	-0.2451	-0.4359	
-0.083204	0.792268	0.595116	-9.17	2.17	5.25	0.0362	-0.2563	-0.4248	
-0.055144	0.795318	0.595116	-3.78	-6.37	2.94	0.0384	-0.2509	-0.4494	
-0.040138	0.812154	0.58194	0.07	-9.45	1.68	0.0209	-0.2513	-0.4375	
-0.05429	0.845338	0.591456	0.91	-6.16	-0.49	0.0299	-0.2501	-0.4295	
-0.04514	0.834236	0.606828	0	-3.36	-4.27	0.0302	-0.2561	-0.4327	
-0.014152	0.823622	0.604632	-0.98	-6.93	-7.21	0.0215	-0.235	-0.4387	
-0.0244	0.806908	0.601826	-0.98	-9.59	-8.75	0.0313	-0.2518	-0.4357	
-0.05673	0.796782	0.592066	0.42	-10.22	-10.43	0.0209	-0.2467	-0.4297	
-0.072102	0.807518	0.575718	1.61	-10.08	-11.55	0.0165	-0.2495	-0.4314	
-0.052216	0.787266	0.587796	3.92	-14.42	-12.74	0.0228	-0.2588	-0.4391	
-0.03233	0.800808	0.61061	8.26	-19.67	-15.33	0.0271	-0.253	-0.4312	
-0.037942	0.805566	0.615368	8.89	-20.37	-17.78	0.0166	-0.2525	-0.436	
-0.084546	0.82838	0.554368	-2.24	-28.14	-17.5	0.0147	-0.2465	-0.4391	
-0.080154	0.807396	0.560712	-2.94	-31.71	-19.18	0.0101	-0.2433	-0.4407	
-0.054412	0.794464	0.599264	4.06	-37.8	-21.28	0.0036	-0.2624	-0.4458	

-0.031476	0.82289	0.564616	8.12	-39.83	-21.07	0.002	-0.2562	-0.4395	
-0.048068	0.801418	0.577548	4.41	-36.75	-23.03	0.0046	-0.2505	-0.4409	
-0.042944	0.822402	0.556442	7	-38.85	-26.81	-0.0067	-0.2557	-0.4366	
-0.000488	0.809226	0.595726	12.81	-40.88	-27.3	-0.0173	-0.2522	-0.4384	
-0.004758	0.793854	0.554368	10.5	-35.98	-23.31	-0.008599999	-0.2528	-0.4459	
-0.050386	0.791414	0.514474	10.57	-39.69	-19.95	-0.0114	-0.2556	-0.446	
-0.081374	0.867664	0.489952	12.88	-41.37	-19.95	-0.0177	-0.2463	-0.4444	
-0.062708	0.870226	0.54107	12.74	-42.42	-22.26	-0.0275	-0.2562	-0.4433	
0.048922	0.824598	0.583892	9.66	-46.2	-25.41	-0.0233	-0.2535	-0.4462	
0.052582	0.814106	0.550464	8.96	-46.76	-24.43	-0.029	-0.2577	-0.448	
-0.009516	0.845094	0.510326	8.68	-48.65	-22.61	-0.0407	-0.2569	-0.4405	
-0.022326	0.880352	0.499102	13.23	-49.42	-22.68	-0.048	-0.2595	-0.4454	
-0.024034	0.860832	0.51301	10.64	-49.49	-26.39	-0.0343	-0.2661	-0.4405	
0.014762	0.860222	0.531798	11.83	-50.96	-30.66	-0.0549	-0.2681	-0.4441	
-0.001708	0.8601	0.508496	10.36	-47.25	-27.93	-0.059	-0.2691	-0.4334	
-0.036722	0.905118	0.473604	20.02	-52.15	-24.5	-0.0709	-0.2685	-0.4368	
-0.006954	0.936106	0.437736	14.91	-63.28	-26.11	-0.0722	-0.2714	-0.4353	
0.030988	0.920246	0.433832	7.21	-70.98	-31.01	-0.0709	-0.2716	-0.4399	
0.06734399	0.876692	0.494344	9.87	-74.55	-36.96	-0.0769	-0.2667	-0.4338	
0.111142	0.85583	0.499102	12.25	-70.49	-40.88	-0.0986	-0.2729	-0.4313	
0.158722	0.890356	0.506178	16.66	-70.42	-42.7	-0.0954	-0.2759	-0.4252	
0.141398	0.949892	0.470188	14	-67.62	-40.18	-0.1013	-0.2756	-0.4268	
0.047702	0.95404	0.396744	-4.06	-61.53	-37.59	-0.1039	-0.2799	-0.4208	
0.04453	0.885598	0.430538	-7.7	-65.24	-41.93	-0.1119	-0.2691	-0.4223	
0.080886	0.878034	0.498126	2.94	-72.59	-46.9	-0.1235	-0.2791	-0.4397	
0.115046	0.906704	0.47397	4.27	-75.6	-47.67	-0.1217	-0.2805	-0.4274	
0.122122	0.89975	0.467748	3.57	-76.02	-44.59	-0.1264	-0.2742	-0.4228	
0.125172	0.878156	0.444446	-3.08	-73.43	-43.75	-0.1365	-0.2812	-0.4293	
0.083204	0.906948	0.432246	-2.31	-69.16	-46.55	-0.1463	-0.2849	-0.4172	
0.021228	0.917806	0.427854	-7.91	-66.92	-45.78	-0.1451	-0.2821	-0.4202	
0.049654	0.900238	0.45384	-8.4	-72.73	-50.33	-0.1523	-0.2831	-0.4173	
0.082716	0.885476	0.439322	-10.78	-77.28	-54.81	-0.1539	-0.2831	-0.4235	
0.118828	0.8906	0.419436	-11.9	-79.59	-58.24	-0.1597	-0.2812	-0.4128	
0.10431	0.88572	0.455548	-12.11	-76.02	-59.08	-0.1776	-0.2772	-0.4132	
0.07991	0.858148	0.421144	-13.3	-72.31	-57.96	-0.1743	-0.2833	-0.4101	
0.061854	0.888648	0.482876	-8.19	-75.6	-57.61	-0.1832	-0.2813	-0.4088	
0.069662	0.861808	0.467016	-12.25	-75.88	-55.65	-0.189	-0.2809	-0.4027	
0.084424	0.848998	0.471408	-9.17	-77.07	-54.39	-0.1859	-0.2778	-0.3872	
0.080764	0.847412	0.474702	-4.97	-75.11	-52.22	-0.1878	-0.2765	-0.4042	
0.071126	0.857904	0.496784	-1.54	-74.27	-50.19	-0.193	-0.285	-0.3952	
0.067832	0.839116	0.495686	-1.19	-71.19	-48.02	-0.2017	-0.289	-0.397	
0.119072	0.831308	0.511912	-0.91	-71.26	-44.38	-0.2048	-0.2828	-0.3892	
0.144204	0.82594	0.516182	0.28	-67.9	-39.27	-0.2114	-0.2972	-0.3881	
0.133102	0.807152	0.522282	0.42	-60.62	-33.53	-0.2235	-0.2922	-0.3898	
0.127368	0.847168	0.539606	3.22	-52.85	-29.33	-0.219	-0.2908	-0.382	
0.119194	0.834602	0.551562	1.96	-44.66	-25.41	-0.2174	-0.2969	-0.3898	
0.128222	0.80947	0.538996	1.47	-38.5	-22.54	-0.2285	-0.3005	-0.37	
0.111874	0.845338	0.514596	3.78	-26.67	-16.52	-0.2269	-0.305	-0.3732	
0.100894	0.855464	0.517402	3.5	-18.9	-12.95	-0.2288	-0.2991	-0.3777	
0.087352	0.848876	0.521428	3.29	-14.98	-10.57	-0.2331	-0.2988	-0.3732	
0.086254	0.84729	0.512888	2.87	-11.9	-8.19	-0.2313	-0.3063	-0.3748	
0.058438	0.861198	0.514962	2.1	-6.79	-5.88	-0.2346	-0.2987	-0.3717	
0.034892	0.854732	0.500078	0.56	-2.31	-3.01	-0.2291	-0.3121	-0.3579	
0.050752	0.862296	0.524234	0.77	-3.78	-1.4	-0.2327	-0.3062	-0.3718	
0.050264	0.881328	0.501664	-0.77	-0.42	0.56	-0.236	-0.297	-0.3655	
0.036112	0.863272	0.518256	-4.13	5.25	2.73	-0.2269	-0.3035	-0.3716	
0.06588	0.823622	0.513864	-4.83	8.61	3.71	-0.233	-0.3018	-0.3763	
0.023058	0.865834	0.514352	-1.96	13.02	5.95	-0.2286	-0.2989	-0.3685	
0.00183	0.862174	0.497028	-3.85	17.08	8.4	-0.227	-0.2974	-0.3622	
0.02013	0.845338	0.504714	-3.43	16.59	9.87	-0.2416	-0.3057	-0.3735	
0.04758	0.865712	0.510692	-2.52	17.99	10.85	-0.2248	-0.2888	-0.3728	
0.039162	0.844362	0.52338	-2.31	20.51	12.18	-0.2289	-0.2945	-0.3715	
0.041114	0.835456	0.518744	-1.26	23.24	13.51	-0.217	-0.2967	-0.3728	
0.064538	0.836188	0.50996	-0.84	26.11	14.91	-0.2198	-0.2995	-0.3744	
0.082228	0.863882	0.52887	3.22	28.49	16.31	-0.2143	-0.2955	-0.3835	
0.09211	0.856196	0.500444	-0.49	34.23	19.04	-0.22	-0.295	-0.3728	
0.071736	0.86986	0.494954	-1.47	35.7	20.23	-0.219	-0.2893	-0.3804	
0.063196	0.892064	0.526796	0.7	38.5	21.42	-0.2218	-0.2936	-0.3836	
0.09333	0.856074	0.528626	-3.57	39.69	22.33	-0.213	-0.2941	-0.385	
0.113826	0.823866	0.518378	-3.36	43.89	23.03	-0.2091	-0.2886	-0.3987	
0.112484	0.842044	0.46116	-4.97	51.24	24.64	-0.2077	-0.2826	-0.3862	
0.052826	0.914634	0.503494	-1.19	58.59	26.88	-0.2102	-0.296	-0.3973	
0.047824	0.889136	0.49532	-7.07	63.98	30.38	-0.193	-0.2896	-0.403	
0.075396	0.86193	0.53497	-3.01	57.89	31.78	-0.1858	-0.287	-0.4043	
0.02745	0.879986	0.46177	-6.65	64.33	33.88	-0.1875	-0.2825	-0.4058	
-0.01647	0.940864	0.49288	-1.33	68.67	33.04	-0.1816	-0.2828	-0.4041	
0.029646	0.846314	0.48983	-6.09	67.48	31.29	-0.1738	-0.2891	-0.4041	
0.060268	0.827038	0.522648	-1.61	65.31	28.07	-0.1644	-0.2765	-0.4129	
0.042578	0.84546	0.485926	-1.89	61.32	28.42	-0.1524	-0.2801	-0.4142	
0.021228	0.90646	0.501176	-1.19	67.48	31.57	-0.1526	-0.2802	-0.4204	
0.009638	0.879254	0.50874	-9.59	69.72	35.28	-0.1559	-0.2741	-0.425	
0.05185	0.855952	0.537166	-7.42	62.16	33.53	-0.1362	-0.2841	-0.4247	
0.079788	0.818864	0.548268	-6.37	62.3	30.87	-0.1291	-0.2816	-0.4291	
0.052948	0.801662	0.517524	-6.51	69.44	31.92	-0.1253	-0.2684	-0.4257	
0.044042	0.845826	0.49898	-4.34	76.16	38.29	-0.1219	-0.2759	-0.4227	
0.024644	0.864248	0.503982	-4.55	79.87	44.03	-0.1131	-0.2749	-0.4225	
-0.020984	0.837408	0.50325	-4.55	81.13	47.39	-0.1104	-0.2738	-0.4347	
-0.066368	0.858148	0.486292	-0.63	78.61	48.37	-0.1061	-0.2725	-0.4331	
-0.075884	0.862906	0.480436	-2.45	74.97	47.11	-0.0958	-0.2716	-0.4359	
-0.032818	0.837164	0.47092	-2.73	72.17	45.5	-0.1018	-0.2713	-0.4376	
0.009516	0.875472	0.525576	6.51	67.55	43.82	-0.0857	-0.2723	-0.4449	
0.003782	0.866688	0.505446	-0.98	75.04	47.67	-0.0828	-0.2694	-0.4402	
-0.034526	0.870104	0.469456	-4.97	77.35	49.35	-0.0722	-0.2714	-0.4322	
-0.055754	0.88572	0.455548	-6.02	77.98	50.68	-0.0585	-0.2811	-0.4383	
-0.047824	0.842532	0.47336	-8.47	77.84	51.73	-0.0496	-0.2815	-0.435	
-0.011224	0.85766	0.50813	-2.8	68.53	50.82	-0.0566	-0.265	-0.4472	
-0.008417999	0.871568	0.496052	-5.11	64.96	49.56	-0.0476	-0.2638	-0.4346	
-0.027694	0.87962	0.4697	-10.71	62.23	48.79	-0.0279	-0.2738	-0.4359	
-0.010126	0.843508	0.502762	-8.33	60.41	48.79	-0.0292	-0.2721	-0.4266	
0.022326	0.838994	0.509472	-6.58	60.13	49.07	-0.0164	-0.2655	-0.4309	
0.040016	0.915732	0.502884	-2.52	60.76	47.32	-0.0182	-0.2625	-0.437	
-0.02318	0.897188	0.481534	-9.8	66.15	50.19	-0.0137	-0.2612	-0.4307	
-0.048068	0.824354	0.476532	-12.18	66.22	51.59	-0.0112	-0.257	-0.4429	
-0.00549	0.807274	0.52094	-7.77	63.42	48.58	-0.0089	-0.272	-0.4401	
-0.033184	0.857782	0.497882	-0.21	62.37	47.11	-0.0014	-0.2723	-0.4337	
-0.067954	0.879498	0.485072	-2.38	66.57	49.14	0.0098	-0.2625	-0.4333	
-0.110044	0.87596	0.493734	-0.63	66.43	49.63	0.013	-0.2671	-0.4364	
-0.11224	0.877668	0.483852	2.24	62.37	46.83	0.025	-0.2707	-0.4346	
-0.107482	0.855708	0.494954	0.56	61.39	42.49	0.0147	-0.2655	-0.4209	
-0.105164	0.854488	0.50508	0.42	49.56	38.99	0.0221	-0.272	-0.4332	
-0.088084	0.894382	0.518744	1.47	43.05	35.7	0.0328	-0.2724	-0.419	
-0.106872	0.89365	0.496662	-0.42	40.04	32.62	0.0267	-0.2675	-0.416	
-0.154574	0.88328	0.484462	-3.08	37.52	29.26	0.0289	-0.2826	-0.4224	
-0.157624	0.863882	0.498248	-5.74	32.2	23.45	0.043	-0.273	-0.425	
-0.12505	0.842776	0.51728	-4.9	22.89	18.27	0.0443	-0.2701	-0.4249	
-0.088694	0.85156	0.505812	-4.06	15.82	15.89	0.0314	-0.2753	-0.4237	
-0.100772	0.873886	0.52155	-3.29	12.88	14.14	0.0372	-0.2711	-0.4189	
-0.095892	0.853756	0.517768	-6.72	6.72	10.64	0.0433	-0.276	-0.4219	
-0.108702	0.862784	0.52887	-7.7	3.78	6.65	0.0445	-0.2716	-0.4203	
-0.095892	0.87901	0.566568	-5.95	-0.28	1.54	0.0398	-0.2684	-0.425	
-0.028914	0.853512	0.577792	-4.9	-4.9	-1.82	0.0317	-0.2813	-0.4254	
-0.028426	0.833992	0.56364	-6.3	-4.2	-2.38	0.037	-0.2697	-0.4251	
-0.041358	0.8418	0.561932	-5.04	-5.53	-3.99	0.0369	-0.2667	-0.4219	
-0.030744	0.835456	0.564372	-4.76	-7	-5.25	0.0353	-0.2667	-0.4235	
-0.021594	0.830088	0.5612	-1.19	-8.19	-6.09	0.0401	-0.2713	-0.4219	
-0.027572	0.83204	0.55937	-0.35	-8.96	-6.09	0.0326	-0.2695	-0.4221	
-0.053802	0.851316	0.542534	1.05	-10.22	-7.49	0.0311	-0.2694	-0.4236	
-0.099186	0.855464	0.53741	1.82	-10.22	-9.8	0.0369	-0.2728	-0.4328	
-0.119316	0.833504	0.538386	2.87	-13.16	-13.37	0.0473	-0.2734	-0.4326	
-0.089792	0.822646	0.559126	8.54	-17.08	-15.96	0.0308	-0.265	-0.4267	
-0.03477	0.82289	0.558638	10.57	-24.08	-16.1	0.0371	-0.2712	-0.4235	
-0.059048	0.807152	0.530822	1.82	-34.58	-12.81	0.0327	-0.274	-0.4252	
-0.110776	0.83265	0.516548	3.29	-35.21	-12.53	0.0293	-0.2649	-0.4267	
-0.16958	0.916586	0.507154	2.17	-38.71	-16.38	0.0265	-0.2662	-0.4222	
-0.173118	0.92537	0.503372	2.59	-48.79	-23.87	0.028	-0.2693	-0.4283	
-0.108824	0.88206	0.526674	0.63	-54.95	-30.24	0.0235	-0.2691	-0.43	
0.009393999	0.81618	0.573766	6.58	-63.49	-36.54	0.0058	-0.2697	-0.435	
0.027694	0.815326	0.522892	7.91	-62.3	-36.75	0.0029	-0.2756	-0.4429	
-0.04697	0.84363	0.503616	5.81	-55.23	-32.69	-0.0088	-0.2704	-0.4338	
-0.080642	0.887062	0.468968	2.94	-52.15	-30.87	-0.003	-0.2692	-0.4337	
-0.030866	0.832528	0.50935	3.36	-57.33	-31.99	-0.0051	-0.2572	-0.4335	
0.01769	0.805322	0.548878	10.71	-63.35	-35.56	-0.0107	-0.2675	-0.4462	
0.008417999	0.820938	0.49898	8.4	-65.66	-35.28	-0.0267	-0.2664	-0.4327	
-0.024522	0.845338	0.520818	9.24	-58.03	-33.04	-0.03	-0.2618	-0.4357	
0.003538	0.882792	0.501054	10.22	-56.91	-32.55	-0.0351	-0.2748	-0.4299	
0.00549	0.8723	0.478606	7.91	-55.86	-31.85	-0.0411	-0.2746	-0.4362	
-0.029768	0.871446	0.467748	5.95	-56.84	-29.26	-0.0484	-0.2726	-0.4286	
-0.035868	0.83631	0.451644	-0.28	-58.17	-27.58	-0.0489	-0.2683	-0.4378	
0.017568	0.801784	0.48434	7.28	-64.54	-29.05	-0.0525	-0.2814	-0.4335	
0.079666	0.854732	0.499834	17.64	-75.04	-29.89	-0.0618	-0.2751	-0.4413	
0.048556	0.913048	0.468724	13.93	-62.65	-22.12	-0.0807	-0.2768	-0.4295	
0.027938	0.905728	0.444446	7.42	-56.98	-20.37	-0.0902	-0.2849	-0.4144	
0.033916	0.931836	0.436272	4.9	-62.02	-22.68	-0.08769999	-0.2808	-0.4235	
0.050508	0.947818	0.432124	4.2	-63	-24.92	-0.1041	-0.2815	-0.4316	
0.066246	0.945256	0.429074	1.12	-67.48	-29.4	-0.107	-0.2783	-0.4239	
0.08479	0.912926	0.426268	-3.22	-70.63	-33.18	-0.1141	-0.2853	-0.4273	
0.098698	0.931592	0.43676	1.4	-72.03	-36.12	-0.119	-0.2762	-0.4272	
0.116022	0.94733	0.421022	-1.47	-71.96	-37.38	-0.1215	-0.2834	-0.4259	
0.13725	0.964044	0.446642	-1.19	-74.13	-39.2	-0.1364	-0.2842	-0.4324	
0.126514	0.951356	0.423584	-9.03	-74.41	-42.98	-0.1284	-0.2888	-0.4153	
0.106018	0.935862	0.407968	-14.35	-76.3	-48.58	-0.1492	-0.2862	-0.4173	
0.11346	0.897798	0.400892	-17.36	-77.7	-52.43	-0.1464	-0.285	-0.4219	
0.143228	0.898774	0.446886	-10.22	-82.88	-54.81	-0.1554	-0.2799	-0.4143	
0.166164	0.906826	0.466894	-7	-84.7	-55.23	-0.164	-0.287	-0.4192	
0.149328	0.923418	0.436516	-8.61	-83.65	-56.21	-0.1747	-0.2758	-0.4085	
0.160918	0.88206	0.439078	-13.23	-81.13	-56.98	-0.1775	-0.2787	-0.4117	
0.148352	0.848144	0.447862	-14	-77.91	-58.17	-0.1831	-0.2843	-0.4119	
0.122122	0.86132	0.471896	-10.43	-74.34	-57.82	-0.1873	-0.2855	-0.4043	
0.13664	0.8479	0.484706	-9.73	-73.36	-56.56	-0.1832	-0.2797	-0.4026	
0.1586	0.828258	0.481168	-10.71	-71.68	-55.23	-0.1874	-0.2794	-0.3949	
0.164212	0.791048	0.461038	-10.64	-68.74	-52.64	-0.1961	-0.2864	-0.403	
0.119438	0.813862	0.480558	-3.01	-65.03	-48.72	-0.2057	-0.2961	-0.3926	
0.093696	0.864492	0.492148	3.64	-63.14	-43.19	-0.206	-0.2933	-0.4033	
0.109922	0.86132	0.490684	0.35	-61.04	-38.78	-0.2113	-0.2956	-0.3803	
0.134444	0.856318	0.503738	0.7	-60.2	-35.98	-0.2239	-0.2863	-0.3944	
0.127368	0.846436	0.508252	2.31	-54.6	-31.78	-0.2177	-0.2879	-0.3819	
0.116022	0.84729	0.502518	3.85	-49.7	-29.89	-0.222	-0.2907	-0.3836	
0.094916	0.863882	0.5063	6.3	-45.08	-26.46	-0.2241	-0.3023	-0.3761	
0.103456	0.845216	0.498126	4.48	-39.9	-22.75	-0.2213	-0.304	-0.3838	
0.108214	0.84363	0.494954	4.76	-36.26	-20.65	-0.2256	-0.2991	-0.3684	
0.108458	0.85888	0.502518	4.27	-31.99	-18.06	-0.2328	-0.3032	-0.3686	
0.114802	0.843874	0.503494	1.68	-26.11	-14.98	-0.2371	-0.309	-0.3781	
0.101382	0.835456	0.50752	1.33	-20.37	-12.74	-0.237	-0.3028	-0.3595	
0.089548	0.859856	0.51545	1.96	-15.47	-11.13	-0.2353	-0.312	-0.3704	
0.082594	0.873398	0.514352	-0.07	-12.6	-8.82	-0.2376	-0.2924	-0.3608	
0.093086	0.87596	0.515328	-1.12	-10.5	-7.49	-0.2428	-0.3039	-0.3581	
0.087596	0.887184	0.511912	-1.96	-6.09	-5.32	-0.2359	-0.3001	-0.3702	
0.076494	0.877058	0.499712	-4.34	0.14	-3.08	-0.2306	-0.3136	-0.3641	
0.049776	0.841556	0.477508	-5.74	5.04	-2.52	-0.2307	-0.3121	-0.3626	
0.034526	0.859978	0.494344	-3.71	5.18	-1.89	-0.2344	-0.3016	-0.3702	
0.032696	0.874008	0.482632	-3.92	6.86	0.42	-0.2392	-0.2955	-0.3717	
0.024522	0.883036	0.495686	-3.71	6.86	2.45	-0.2268	-0.3019	-0.3638	
0.05307	0.85217	0.509106	-4.2	5.88	2.31	-0.2223	-0.3067	-0.3684	
0.060634	0.844728	0.506788	-2.73	10.22	2.45	-0.2343	-0.3031	-0.3687	
0.039894	0.841922	0.492758	-2.17	16.73	4.69	-0.2166	-0.3041	-0.3714	
0.036478	0.84729	0.491782	-2.17	19.88	7.28	-0.2284	-0.3034	-0.3701	
0.034282	0.882304	0.486902	-2.1	19.88	9.8	-0.2298	-0.3018	-0.3654	
0.057584	0.863638	0.513864	-4.41	19.11	10.71	-0.2228	-0.2978	-0.3729	
0.06039	0.847168	0.51301	-4.83	20.44	10.15	-0.2213	-0.304	-0.3838	
0.05856	0.828868	0.50691	-3.36	25.62	10.15	-0.2287	-0.3006	-0.3777	
0.039894	0.852902	0.50264	-1.4	29.33	11.34	-0.2189	-0.2907	-0.3758	
0.055876	0.84241	0.500078	-3.01	31.85	16.59	-0.2135	-0.3073	-0.376	
0.07137	0.830088	0.512034	-1.82	31.78	19.53	-0.2147	-0.2881	-0.3834	
0.07515199	0.842044	0.520818	0.56	34.16	21.7	-0.2128	-0.3002	-0.3913	
0.072346	0.885598	0.542046	4.06	35.84	21.77	-0.2039	-0.296	-0.3802	
0.068564	0.871934	0.493856	-2.73	42.84	22.75	-0.2156	-0.2984	-0.382	
0.045628	0.848876	0.49349	-4.2	45.15	23.66	-0.2087	-0.2929	-0.3879	
0.042822	0.867542	0.517402	0.28	46.27	24.22	-0.2078	-0.2857	-0.3971	
0.083082	0.88694	0.491904	1.96	45.5	25.83	-0.2046	-0.2888	-0.3924	
0.096136	0.871324	0.50264	1.05	47.32	26.88	-0.1925	-0.2954	-0.3969	
0.07198	0.85705	0.528504	2.17	53.55	26.81	-0.1956	-0.2954	-0.4031	
0.076982	0.834114	0.502274	2.24	58.38	27.72	-0.1843	-0.2855	-0.3996	
0.045872	0.900726	0.498858	6.37	58.8	26.67	-0.1886	-0.2853	-0.3966	
-0.015494	0.928664	0.42822	-1.75	65.73	27.65	-0.1741	-0.2878	-0.4117	
-0.004392	0.899506	0.488732	0.49	59.01	26.67	-0.1699	-0.2774	-0.396	
0.035258	0.855586	0.499712	0.77	54.81	24.29	-0.1654	-0.2838	-0.4099	
0.068198	0.860222	0.490928	-0.7	52.08	22.96	-0.1638	-0.2869	-0.413	
0.05185	0.854244	0.462136	-4.2	57.19	25.83	-0.1584	-0.2829	-0.4221	
-0.00488	0.907314	0.449814	-1.54	60.27	28.56	-0.145	-0.2805	-0.414	
-0.038796	0.920734	0.48373	2.17	57.12	27.86	-0.148	-0.2819	-0.4172	
-0.025986	0.878644	0.47214	-4.69	54.46	24.71	-0.1333	-0.2781	-0.4122	
0.023668	0.891332	0.514474	-3.85	47.39	20.58	-0.1421	-0.2791	-0.4109	
0.047214	0.875106	0.503128	-7.28	48.23	21.35	-0.126	-0.2848	-0.4306	
0.04392	0.868884	0.491904	-7.28	52.85	24.36	-0.1286	-0.2844	-0.4153	
0.017446	0.864248	0.485316	-6.65	60.83	28.49	-0.1233	-0.2743	-0.415	
0.005246	0.861564	0.452742	-7.91	62.51	28.56	-0.1203	-0.279	-0.4242	
0.002684	0.884378	0.497882	-5.53	64.47	27.58	-0.1113	-0.2825	-0.4272	
0.07124799	0.88511	0.528016	-0.63	62.86	29.82	-0.0942	-0.2763	-0.4406	
0.005856	0.867054	0.454084	-12.32	69.58	32.41	-0.0896	-0.2779	-0.4374	
-0.009881999	0.86254	0.43859	-11.83	70.77	36.05	-0.0765	-0.2742	-0.4355	
-0.009516	0.853634	0.49349	-6.72	72.52	39.13	-0.0722	-0.273	-0.4385	
0.008784	0.868884	0.472872	-10.15	76.86	42	-0.0674	-0.2806	-0.4369	
-0.01891	0.88328	0.463478	-10.78	77.21	44.17	-0.0679	-0.2717	-0.4383	
-0.06649	0.863516	0.459696	-15.19	75.39	46.13	-0.0545	-0.2724	-0.438	
-0.068686	0.85339	0.448838	-15.89	69.51	46.48	-0.0338	-0.2735	-0.436	
-0.062586	0.833748	0.442128	-19.46	65.03	47.95	-0.0445	-0.2701	-0.4439	
-0.042822	0.835944	0.475068	-15.89	64.68	50.54	-0.0328	-0.2678	-0.4436	
-0.047092	0.873764	0.473726	-13.79	67.41	54.39	-0.0285	-0.2634	-0.4373	
-0.068564	0.87474	0.499956	-14.21	68.39	56.56	-0.0271	-0.2621	-0.4388	
-0.063562	0.862906	0.49837	-15.82	67.97	57.05	-0.0184	-0.2596	-0.4416	
-0.070516	0.833138	0.486536	-21.77	66.92	56.98	-0.0128	-0.257	-0.4476	
-0.109556	0.824232	0.517036	-20.02	63.77	56.77	-0.0111	-0.2585	-0.4414	
-0.108702	0.834236	0.54595	-11.76	56.84	54.25	-0.0128	-0.2555	-0.4414	
-0.140544	0.849974	0.53863	-10.29	54.53	53.06	-0.0009	-0.2561	-0.4427	
-0.138958	0.845948	0.526674	-8.75	49.91	52.15	-0.0058	-0.25	-0.4458	
-0.165432	0.837286	0.512766	-9.59	45.01	47.95	0.0062	-0.2551	-0.4456	
-0.152988	0.849974	0.563152	-7.91	38.57	41.58	0.0062	-0.2504	-0.4332	
-0.123464	0.840336	0.550464	-6.72	33.25	34.02	-0.0044	-0.2455	-0.441	
-0.08052	0.814472	0.570716	-1.33	28.21	29.19	0.0079	-0.2581	-0.4425	
-0.061488	0.826672	0.553514	1.19	25.13	27.09	0.0128	-0.2642	-0.4379	
-0.059536	0.825452	0.558272	-2.73	23.59	25.76	0.0169	-0.2616	-0.4454	
-0.097844	0.8113	0.562298	-3.92	24.29	23.66	0.0122	-0.2522	-0.433	
-0.090646	0.844362	0.572058	0.77	14.21	19.32	0.0217	-0.2646	-0.4361	
-0.0793	0.8296	0.5734	-2.66	10.85	17.08	0.0178	-0.2451	-0.4312	
-0.06734399	0.852414	0.579378	-0.63	4.34	12.32	0.0102	-0.2463	-0.4422	
-0.07869	0.843752	0.593774	-5.6	6.72	8.68	0.0135	-0.2524	-0.4423	
-0.076616	0.829234	0.582062	-5.32	5.32	5.04	0.0127	-0.2581	-0.427	
-0.051118	0.818132	0.571814	-3.85	-1.47	2.38	0.0136	-0.2539	-0.4423	
-0.031964	0.823012	0.585722	-1.54	-5.53	0.84	0.0167	-0.254	-0.4376	
-0.017324	0.8357	0.58804	-1.75	-5.67	-0.21	0.0131	-0.245	-0.4437	
-0.012688	0.803248	0.596824	-3.43	-3.64	-1.33	0.018	-0.2527	-0.4422	
-0.002684	0.789462	0.59048	-2.52	-3.85	-2.87	0	-0.2488	-0.4441	
-0.011956	0.8052	0.596702	-0.63	-4.62	-3.57	0.0107	-0.2537	-0.4393	
-0.036234	0.818742	0.589626	-1.33	-5.25	-3.99	0.0121	-0.2508	-0.4361	
-0.029036	0.813252	0.59536	-1.12	-8.54	-5.95	0.0075	-0.2522	-0.4455	
-0.038796	0.819596	0.581696	1.05	-9.03	-8.54	0.0138	-0.26	-0.447	
-0.055144	0.821914	0.579622	2.66	-9.87	-10.36	0.0061	-0.2505	-0.4393	
-0.059414	0.7991	0.57706	2.94	-12.74	-12.67	-0.0041	-0.2499	-0.438	
-0.048434	0.818376	0.584014	5.46	-17.15	-15.54	0.0125	-0.2597	-0.4378	
-0.027938	0.824598	0.60756	3.64	-26.46	-15.05	0.012	-0.2508	-0.4392	
-0.028182	0.791536	0.596702	4.76	-28.63	-15.12	0.0077	-0.2551	-0.444	
-0.072224	0.81557	0.59658	8.26	-27.79	-17.15	-0.0027	-0.2501	-0.4411	
-0.061854	0.807884	0.550464	1.33	-29.26	-22.68	-0.005	-0.2618	-0.4382	
-0.02501	0.827892	0.582794	6.16	-32.76	-24.64	-0.0009	-0.2561	-0.4396	
-0.008296	0.80337	0.604144	8.82	-38.29	-24.43	-0.005	-0.2618	-0.4398	
-0.00305	0.797392	0.596824	9.94	-37.17	-22.89	-0.0154	-0.2612	-0.4416	
-0.051118	0.854122	0.521184	9.24	-33.88	-23.66	-0.0168	-0.2626	-0.4401	
-0.132614	0.845582	0.517158	0.56	-32.34	-25.34	-0.018	-0.267	-0.4417	
-0.09638	0.846314	0.547292	11.83	-40.67	-28.14	-0.0198	-0.2579	-0.4308	
0.028182	0.816668	0.552904	16.31	-48.86	-29.19	-0.0305	-0.253	-0.4387	
0.012566	0.83631	0.52155	14.07	-47.53	-28.28	-0.0284	-0.2665	-0.442	
-0.013176	0.84912	0.519598	7.7	-43.54	-26.95	-0.0326	-0.2692	-0.439	
-0.055754	0.847168	0.50569	9.38	-38.64	-24.71	-0.0421	-0.2614	-0.4468	
-0.05246	0.812642	0.47641	3.08	-39.76	-24.15	-0.0433	-0.2642	-0.4423	
0.019764	0.793976	0.513498	3.92	-45.36	-26.04	-0.0447	-0.2641	-0.4392	
0.041846	0.877058	0.503494	14.21	-50.96	-26.81	-0.0415	-0.2687	-0.4408	
-0.014152	0.91195	0.504958	15.89	-48.23	-21.56	-0.0607	-0.2708	-0.4474	
-0.040992	0.91195	0.501908	10.85	-46.76	-17.57	-0.0578	-0.2694	-0.4427	
-0.01891	0.88572	0.488976	8.26	-49.42	-20.58	-0.0678	-0.2717	-0.4368	
0.016348	0.860466	0.48739	7.84	-54.25	-26.46	-0.0769	-0.2651	-0.4292	
0.002074	0.89487	0.460184	9.73	-52.99	-27.02	-0.072	-0.2743	-0.4308	
-0.020374	0.924272	0.457012	14.28	-56.91	-25.76	-0.0813	-0.268	-0.4355	
0.008905999	0.93818	0.451278	11.27	-60.34	-26.6	-0.0941	-0.2746	-0.4328	
0.004392	0.956602	0.434076	6.16	-68.11	-34.02	-0.0834	-0.2827	-0.4342	
-0.001708	0.951234	0.430782	2.24	-76.3	-40.32	-0.0986	-0.2713	-0.4251	
0.004514	0.925004	0.419802	0	-74.27	-45.36	-0.104	-0.283	-0.4332	
0.045262	0.922564	0.41724	3.15	-85.68	-49.56	-0.1162	-0.2749	-0.4302	
0.06734399	0.976	0.412116	4.41	-92.19	-53.34	-0.1259	-0.2831	-0.4214	
0.071126	0.974658	0.418826	-3.71	-93.59	-56.07	-0.1261	-0.2802	-0.4228	
0.085156	0.913414	0.388326	-12.32	-94.29	-61.74	-0.1321	-0.2753	-0.4183	
0.07991	0.902556	0.42822	-12.53	-94.85	-68.04	-0.151	-0.2802	-0.4157	
0.091012	0.91988	0.446642	-12.46	-98.98	-71.89	-0.1526	-0.2802	-0.4219	
0.127368	0.919636	0.428952	-16.31	-98.49	-72.38	-0.1568	-0.2798	-0.4112	
0.130784	0.860588	0.445788	-20.23	-92.61	-71.68	-0.1618	-0.2707	-0.4173	
0.137738	0.843508	0.460184	-18.27	-91.07	-71.33	-0.1762	-0.2804	-0.4209	
0.156526	0.835212	0.49471	-15.96	-88.76	-69.02	-0.1774	-0.2802	-0.4102	
0.173362	0.825574	0.530822	-14.14	-83.23	-62.37	-0.1837	-0.2754	-0.4148	
0.176534	0.792146	0.534238	-14.84	-74.06	-53.62	-0.1922	-0.2809	-0.412	
0.163724	0.775188	0.544852	-11.83	-67.34	-47.18	-0.1985	-0.2747	-0.4183	
0.143228	0.792756	0.55266	-6.58	-59.85	-41.51	-0.1906	-0.2824	-0.4105	
0.13908	0.809104	0.539972	-3.43	-52.15	-35.14	-0.205	-0.286	-0.4032	
0.100772	0.826428	0.53924	-0.7	-45.43	-29.47	-0.2067	-0.283	-0.4062	
0.07259	0.816912	0.534604	-0.63	-43.68	-24.64	-0.1964	-0.2805	-0.4013	
0.069662	0.807884	0.534238	0.28	-38.64	-23.17	-0.2063	-0.2842	-0.3924	
0.07686	0.8174	0.539118	2.1	-35.84	-21.7	-0.2106	-0.2886	-0.3987	
0.102114	0.826184	0.536922	2.24	-30.73	-18.69	-0.212	-0.2884	-0.3941	
0.109068	0.834114	0.542778	1.47	-24.08	-14.77	-0.209	-0.2886	-0.3941	
0.091134	0.83814	0.544364	1.33	-18.41	-11.27	-0.2212	-0.2866	-0.4051	
0.089548	0.829844	0.540338	0.56	-15.12	-10.5	-0.2196	-0.2866	-0.3974	
0.07905599	0.833992	0.537166	0.49	-10.99	-9.8	-0.2208	-0.2863	-0.3866	
0.06771	0.86071	0.545096	1.12	-6.58	-8.19	-0.2145	-0.2941	-0.3866	
0.057706	0.85583	0.532164	-1.26	-3.01	-6.58	-0.2204	-0.2969	-0.396	
0.055388	0.837896	0.543754	-3.08	-3.01	-5.39	-0.2236	-0.2906	-0.3883	
0.055266	0.829234	0.545462	-3.08	-2.24	-3.85	-0.2174	-0.2939	-0.3866	
0.047824	0.815082	0.534848	-3.29	2.03	-1.47	-0.2193	-0.2864	-0.3865	
0.03599	0.807274	0.5551	-1.61	5.67	1.4	-0.2144	-0.294	-0.3835	
0.029768	0.820084	0.541314	-0.98	9.66	4.2	-0.2166	-0.2852	-0.3957	
0.001952	0.843874	0.545096	-0.98	13.02	7	-0.2132	-0.2943	-0.3973	
0.022936	0.840946	0.554124	-0.56	13.93	8.47	-0.2224	-0.2863	-0.3912	
0.020252	0.862418	0.539972	-1.05	16.52	9.59	-0.2164	-0.2897	-0.3973	
-0.000854	0.846802	0.506178	-3.15	19.18	10.22	-0.2193	-0.2895	-0.3943	
0.00549	0.827892	0.523624	-3.29	20.72	10.43	-0.2108	-0.2886	-0.4049	
0.081008	0.7869	0.55022	-0.77	20.93	10.64	-0.205	-0.2829	-0.3969	
0.089792	0.797514	0.571814	5.18	26.25	13.23	-0.2039	-0.274	-0.3937	
0.050142	0.838872	0.552782	3.92	34.16	17.08	-0.214	-0.2841	-0.408	
0.013664	0.852048	0.54107	0.77	39.13	19.53	-0.2024	-0.2802	-0.4061	
0.01708	0.829112	0.517402	-0.91	38.85	19.32	-0.2054	-0.2786	-0.4061	
0.030744	0.856318	0.53436	3.29	34.51	17.36	-0.195	-0.2791	-0.4028	
0.038918	0.84485	0.536556	1.33	34.51	18.06	-0.1978	-0.2804	-0.4014	
0.034526	0.83509	0.516182	-0.63	37.1	20.3	-0.1901	-0.2898	-0.406	
0.059292	0.827038	0.55815	0.07	37.59	22.68	-0.1971	-0.2702	-0.4089	
0.094428	0.81374	0.557784	2.31	41.79	23.59	-0.1803	-0.2815	-0.4102	
0.07503	0.837774	0.534116	3.15	46.97	24.85	-0.1849	-0.2767	-0.4056	
0.027084	0.842044	0.514108	0.21	51.8	27.37	-0.1847	-0.2828	-0.4135	
0.003416	0.833382	0.485682	-1.61	54.6	29.61	-0.1691	-0.2733	-0.4191	
-0.011346	0.904996	0.530456	4.69	49.42	28.21	-0.1687	-0.2823	-0.4223	
0.046238	0.895724	0.541192	2.24	45.43	27.93	-0.1658	-0.2794	-0.4191	
0.046848	0.8784	0.515206	-1.05	46.06	26.6	-0.1574	-0.271	-0.4172	
-0.017446	0.898042	0.478362	-4.34	51.66	27.16	-0.1622	-0.2694	-0.4281	
-0.034038	0.858148	0.486048	-4.55	52.78	27.09	-0.148	-0.2803	-0.4156	
0.010004	0.84546	0.508984	-1.61	49	25.2	-0.144	-0.2762	-0.4232	
0.059536	0.861808	0.540338	2.38	45.01	22.19	-0.1459	-0.2703	-0.4278	
0.03172	0.868518	0.49959	-2.87	52.5	23.8	-0.1412	-0.275	-0.4277	
-0.023546	0.862052	0.494466	-5.46	57.05	27.37	-0.1357	-0.2725	-0.4384	
-0.018788	0.816668	0.501664	-4.9	54.6	29.54	-0.128	-0.2742	-0.4274	
0.026108	0.834968	0.516548	-1.75	50.4	29.89	-0.1313	-0.2697	-0.432	
-0.010858	0.86132	0.509106	-4.97	53.2	31.71	-0.1166	-0.2675	-0.4332	
-0.050508	0.866322	0.500322	-8.05	56.7	35.42	-0.1196	-0.2704	-0.441	
-0.055998	0.822158	0.519598	-7.28	52.99	36.05	-0.118	-0.2689	-0.4333	
-0.026596	0.807396	0.519354	-4.76	47.67	35	-0.1082	-0.2621	-0.4391	
-0.042456	0.879376	0.49166	-2.59	46.34	33.39	-0.1034	-0.2668	-0.4344	
-0.089304	0.93147	0.498858	-0.07	50.12	32.34	-0.1034	-0.2698	-0.4391	
-0.11468	0.860832	0.497394	-4.55	48.16	30.03	-0.0948	-0.2643	-0.4388	
-0.112728	0.849486	0.486414	-7.84	41.58	25.06	-0.0887	-0.2676	-0.4372	
-0.100528	0.859002	0.496906	-10.15	35.42	21.35	-0.0876	-0.2618	-0.4417	
-0.095282	0.853878	0.485438	-9.52	34.09	20.3	-0.0835	-0.256	-0.4384	
-0.069296	0.82655	0.497272	-9.52	34.44	20.79	-0.0763	-0.255	-0.4444	
-0.061854	0.809592	0.510204	-10.36	33.53	21.49	-0.0725	-0.2654	-0.4337	
-0.081496	0.818254	0.5246	-6.44	30.38	21.7	-0.0689	-0.2554	-0.4442	
-0.113582	0.865224	0.532896	-3.15	25.69	22.33	-0.0871	-0.2486	-0.4507	
-0.129198	0.89121	0.524966	-2.24	24.22	21.98	-0.0714	-0.2612	-0.4413	
-0.127978	0.875228	0.540338	-5.04	19.53	18.69	-0.0615	-0.2527	-0.4363	
-0.124562	0.863272	0.568154	-7.07	11.83	13.09	-0.0617	-0.2514	-0.4455	
-0.105042	0.84424	0.582184	-7.28	11.41	9.17	-0.0657	-0.2616	-0.4474	
-0.10675	0.825208	0.555466	-7.84	13.37	5.32	-0.0613	-0.2634	-0.4535	
-0.101504	0.811544	0.541802	-9.03	15.75	2.8	-0.0646	-0.2543	-0.4503	
-0.087108	0.810934	0.57645	-5.95	11.83	0.77	-0.0619	-0.2484	-0.447	
-0.078934	0.798124	0.577426	-8.19	11.62	1.68	-0.0528	-0.2549	-0.4516	
-0.079544	0.787998	0.572058	-8.26	8.75	0.21	-0.0545	-0.2503	-0.4484	
-0.084546	0.789584	0.570716	-0.07	7.21	-0.21	-0.0588	-0.2531	-0.4517	
-0.09394	0.812642	0.560834	9.03	3.08	0.63	-0.0604	-0.2485	-0.4455	
-0.102602	0.858636	0.518256	8.19	-3.15	-2.17	-0.0524	-0.2577	-0.4393	
-0.083082	0.894992	0.557174	11.06	-7.98	-6.72	-0.0631	-0.2543	-0.4487	
-0.06527	0.869494	0.559736	6.79	-8.12	-10.15	-0.0583	-0.262	-0.4472	
-0.06283	0.83692	0.549732	3.78	-7.35	-11.34	-0.0543	-0.2564	-0.4532	
-0.076982	0.818254	0.53619	5.39	-9.1	-10.29	-0.0485	-0.2522	-0.4483	
-0.070882	0.817888	0.528992	5.6	-14	-8.68	-0.0527	-0.2549	-0.4469	
-0.055144	0.83143	0.544242	4.27	-15.26	-7.7	-0.0647	-0.2527	-0.4472	
-0.037454	0.824476	0.561566	2.94	-14.14	-6.09	-0.0452	-0.2552	-0.4421	
-0.018422	0.821304	0.56547	1.82	-12.6	-4.2	-0.0597	-0.2619	-0.4472	
-0.015738	0.833016	0.564006	1.75	-10.5	-3.01	-0.058	-0.268	-0.4504	
-0.01586	0.842288	0.56547	2.38	-8.26	-2.03	-0.0672	-0.2569	-0.4381	
-0.006344	0.833992	0.568154	1.26	-5.67	-1.47	-0.0584	-0.259	-0.4456	
-0.01037	0.827282	0.555222	-0.07	-2.8	-0.98	-0.0567	-0.262	-0.4425	
-0.018666	0.820938	0.55022	1.96	-1.61	0.21	-0.0656	-0.26	-0.4427	
-0.035868	0.829722	0.53802	2.31	0.7	1.47	-0.057	-0.2576	-0.4486	
-0.037942	0.834236	0.547292	6.79	0.98	1.89	-0.0626	-0.2648	-0.4489	
-0.023546	0.834358	0.540948	7.28	0.49	2.38	-0.0729	-0.2642	-0.4476	
-0.016836	0.844362	0.532164	4.06	0.49	2.45	-0.0563	-0.2663	-0.4349	
-0.029036	0.854244	0.53375	4.06	0.77	2.59	-0.0685	-0.2644	-0.449	
-0.033428	0.85217	0.533384	3.57	1.89	2.52	-0.0596	-0.2634	-0.4442	
-0.032818	0.845826	0.525332	1.19	1.61	1.75	-0.0624	-0.2661	-0.4427	
-0.03233	0.854976	0.521184	0.35	1.19	0.84	-0.0687	-0.2568	-0.4381	
-0.02196	0.857416	0.523502	0.49	0.28	0.28	-0.0561	-0.2693	-0.4334	
-0.017202	0.844728	0.524356	0.21	-0.35	-0.21	-0.0674	-0.2555	-0.4442	
-0.027816	0.844484	0.531676	-0.42	-0.84	0.07	-0.0731	-0.2581	-0.4428	
-0.033062	0.847168	0.539728	-0.56	-2.52	-0.35	-0.0657	-0.257	-0.4365	
-0.037698	0.84363	0.538264	0.07	-1.4	-1.12	-0.0593	-0.2708	-0.4474	
-0.03416	0.84424	0.534726	-0.56	-1.47	-2.1	-0.0579	-0.2633	-0.4333	
-0.031842	0.847534	0.53497	-1.75	-1.89	-2.73	-0.0671	-0.2584	-0.4381	
-0.038064	0.837408	0.53375	-1.82	-0.98	-2.94	-0.0578	-0.2678	-0.4411	
-0.045018	0.833016	0.534116	-1.33	-0.42	-2.52	-0.0553	-0.2591	-0.4394	
-0.047702	0.841556	0.536556	-0.28	-1.05	-1.89	-0.0609	-0.2678	-0.4458	
-0.042578	0.838872	0.540216	-0.21	-1.68	-1.47	-0.0758	-0.2625	-0.443	
-0.04636	0.834846	0.535702	-0.14	-1.19	-1.47	-0.0711	-0.2625	-0.4305	
-0.049654	0.843386	0.536922	0.63	-1.61	-1.54	-0.0643	-0.2556	-0.4395	
-0.044896	0.842776	0.539118	0.84	-2.03	-1.75	-0.0626	-0.2617	-0.4411	
-0.037576	0.830454	0.540704	-0.7	-3.36	-1.75	-0.0735	-0.2538	-0.4474	
-0.0366	0.822402	0.542534	-1.89	-1.61	-1.47	-0.0676	-0.2495	-0.4379	
-0.039772	0.822646	0.551684	-1.33	-0.98	-0.84	-0.0611	-0.2618	-0.4426	
-0.04026	0.827526	0.545828	0	-0.63	0.56	-0.0603	-0.2735	-0.4351	
-0.03965	0.841556	0.539484	0.98	-1.54	1.19	-0.0552	-0.2652	-0.4518	
-0.046116	0.845582	0.5429	1.82	-0.84	1.68	-0.0669	-0.2645	-0.4459	
-0.052216	0.840092	0.540948	2.03	-0.14	1.82	-0.0714	-0.2642	-0.446	
-0.052582	0.847046	0.542412	2.1	0.21	1.68	-0.0625	-0.2632	-0.4427	
-0.051606	0.838628	0.53741	2.73	-0.28	1.4	-0.0637	-0.2675	-0.4382	
-0.055022	0.843508	0.535336	2.24	-0.21	0.84	-0.0652	-0.2675	-0.4413	
-0.05795	0.85766	0.531676	1.05	0.49	0.21	-0.0577	-0.2709	-0.4443	
-0.042944	0.835456	0.53619	0.42	-0.63	-0.21	-0.0552	-0.2637	-0.4487	
-0.040016	0.833138	0.53009	-1.33	-1.05	-0.49	-0.0519	-0.2666	-0.4379	
-0.047214	0.843874	0.54229	0.98	-1.05	-0.49	-0.0682	-0.2658	-0.4413	
-0.047824	0.837164	0.54656	2.59	-0.84	-0.28	-0.0602	-0.2514	-0.444	
-0.03721	0.831186	0.535336	1.89	-1.4	-0.07	-0.0623	-0.2661	-0.4412	
-0.039894	0.849486	0.53314	2.73	-2.52	-0.49	-0.0609	-0.2678	-0.4458	
-0.039162	0.85095	0.534848	2.87	-1.33	-0.56	-0.0678	-0.2732	-0.4414	
-0.03782	0.843752	0.534726	1.47	-0.42	-0.56	-0.0761	-0.2596	-0.4491	
-0.033672	0.83936	0.532774	0.77	-1.19	-1.47	-0.07759999	-0.2579	-0.4429	
-0.037332	0.83936	0.529724	0.84	-1.54	-1.68	-0.0672	-0.2585	-0.4443	
-0.03355	0.844118	0.527284	-0.14	-1.12	-1.61	-0.0724	-0.27	-0.4415	
-0.031354	0.83875	0.53497	-0.49	-0.77	-1.05	-0.0724	-0.27	-0.4415	
-0.038918	0.83631	0.52948	-0.7	-1.4	-0.07	-0.0627	-0.2586	-0.438	
-0.041602	0.835456	0.530578	-1.4	-1.75	0.56	-0.0546	-0.2725	-0.4427	
-0.044042	0.84119	0.534604	-0.77	-1.47	1.19	-0.0546	-0.2725	-0.4427	
-0.048434	0.837286	0.524722	-2.17	-0.49	1.26	-0.0758	-0.2624	-0.4414	
-0.054656	0.839482	0.530822	0.28	-1.82	1.47	-0.0596	-0.2634	-0.4442	
-0.052582	0.849608	0.539484	2.17	-2.38	1.61	-0.0596	-0.2634	-0.4442	
-0.044896	0.848266	0.539118	0.7	-1.82	0.84	-0.0633	-0.2688	-0.4274	