Sensor string: E
Serial number: 1970-01-0000
Firmware version: 2.015
Hardware version: 2.2
Calibration quality: 5
ax	ay	az	gx	gy	gz	mx	my	mz

-1.023458	0.090158	0.111874	-5.18	-1.75	0.21	0.4109	-0.0538	-0.3283	Reference
-1.01748	0.085034	0.10065	-4.69	-3.15	0.35	0.4096	-0.0617	-0.3344	
-1.013698	0.070272	0.098332	-3.08	-5.04	1.89	0.4054	-0.057	-0.3357	
-1.031754	0.081252	0.086498	-3.64	-3.92	4.34	0.404	-0.0446	-0.34	
-0.999546	0.067588	0.031598	-4.41	-5.53	3.08	0.4082	-0.0523	-0.3357	
-1.007964	0.049776	0.011468	-6.65	-4.69	3.22	0.4156	-0.0556	-0.3421	
-1.03761	0.051606	0.050142	0.91	-7.84	5.04	0.4025	-0.0492	-0.337	
-1.024312	0.058804	0.055144	0.21	-8.19	5.11	0.4098	-0.0415	-0.3417	
-1.009428	0.066734	0.063806	-2.59	-9.03	2.73	0.4041	-0.0477	-0.3416	
-0.999668	0.073932	0.06954	-0.84	-10.15	2.31	0.4068	-0.0477	-0.3371	
-1.006744	0.06954	0.083082	-0.56	-10.08	2.59	0.3969	-0.0539	-0.3399	
-1.005036	0.077226	0.09747799	-2.24	-11.83	1.4	0.4027	-0.0602	-0.3417	
-1.0126	0.077104	0.110898	-3.78	-12.67	1.82	0.3998	-0.0571	-0.3416	
-1.020652	0.08295999	0.109922	-4.2	-15.19	1.68	0.4056	-0.0556	-0.3417	
-1.028826	0.083692	0.111386	-4.69	-17.64	3.08	0.4014	-0.0619	-0.3463	
-1.035536	0.086986	0.12078	-5.88	-20.02	3.85	0.4016	-0.0541	-0.3522	
-1.036756	0.088572	0.120536	-7.28	-22.75	4.97	0.3958	-0.0432	-0.3518	
-1.03639	0.08235	0.123464	-4.62	-26.32	6.23	0.4032	-0.062	-0.3569	
-1.031876	0.075274	0.123098	4.27	-30.87	8.4	0.3934	-0.0606	-0.3656	
-1.029192	0.080276	0.109312	6.86	-33.25	10.5	0.3849	-0.0653	-0.3654	
-1.037122	0.08906	0.106628	4.41	-34.65	11.62	0.385	-0.0559	-0.3698	
-1.022848	0.080764	0.11468	2.1	-37.87	13.02	0.3822	-0.0747	-0.37	
-1.010648	0.08235	0.121878	3.01	-42.07	11.55	0.3679	-0.0669	-0.371	
-1.001254	0.091988	0.131028	0.42	-43.12	12.81	0.3684	-0.0671	-0.3861	
-1.008452	0.112728	0.15372	-4.62	-42.42	11.41	0.36	-0.0594	-0.3918	
-0.991494	0.0976	0.177022	-4.48	-42.21	12.46	0.3531	-0.0642	-0.3992	
-0.988932	0.11773	0.196298	-5.88	-40.32	12.04	0.3559	-0.0641	-0.3978	
-0.984418	0.0915	0.222772	-8.33	-39.34	12.88	0.3431	-0.0642	-0.4004	
-0.975024	0.076372	0.240584	-7.91	-41.16	12.39	0.3479	-0.066	-0.4157	
-0.96014	0.10431	0.256078	-8.68	-41.23	12.32	0.3349	-0.0753	-0.4124	
-0.967338	0.116632	0.28487	-7.77	-41.86	13.44	0.3293	-0.08	-0.4138	
-0.951478	0.125538	0.305488	-7.63	-41.93	11.41	0.3337	-0.07539999	-0.4184	
-0.947086	0.127124	0.318908	-7.84	-42.91	12.11	0.3267	-0.0614	-0.424	
-0.931104	0.128954	0.33001	-7.7	-43.68	12.11	0.3143	-0.0881	-0.4362	
-0.909632	0.118218	0.342454	-7.56	-44.45	11.34	0.3184	-0.074	-0.4315	
-0.911462	0.138714	0.355752	-7.56	-44.31	9.87	0.3181	-0.0817	-0.4226	
-0.903776	0.156648	0.368684	-8.82	-44.73	9.52	0.3102	-0.0695	-0.4433	
-0.894504	0.177266	0.393328	-10.15	-45.01	8.89	0.2971	-0.0771	-0.4369	
-0.886452	0.160674	0.417606	-7.21	-45.36	9.45	0.2945	-0.08199999	-0.4445	
-0.880352	0.155428	0.428586	-9.03	-46.2	8.96	0.2905	-0.0852	-0.452	
-0.87962	0.15006	0.451766	-7.07	-45.71	9.17	0.2722	-0.0744	-0.4633	
-0.862418	0.154208	0.471286	-8.47	-45.01	9.17	0.2667	-0.07759999	-0.4693	
-0.836798	0.158356	0.488244	-8.75	-44.73	8.75	0.2623	-0.0713	-0.466	
-0.826672	0.149206	0.513986	-8.4	-44.31	8.68	0.2654	-0.07759999	-0.4722	
-0.821792	0.146278	0.527894	-7.49	-43.75	8.47	0.2528	-0.0746	-0.4809	
-0.81435	0.156892	0.535458	-8.68	-42.14	7.84	0.2454	-0.0807	-0.4732	
-0.816546	0.16653	0.543754	-8.19	-38.64	7.84	0.2386	-0.0762	-0.482	
-0.815936	0.169336	0.563762	-5.81	-36.33	6.86	0.2272	-0.0777	-0.4831	
-0.81008	0.15006	0.575108	-3.15	-34.72	6.79	0.2245	-0.0778	-0.4891	
-0.79117	0.145302	0.573888	-3.5	-33.6	6.09	0.2246	-0.0763	-0.4921	
-0.780434	0.14762	0.580598	-3.5	-32.83	6.09	0.2175	-0.081	-0.4935	
-0.766892	0.152378	0.586698	-3.92	-32.13	5.81	0.2175	-0.0763	-0.4934	
-0.76311	0.167018	0.599386	-4.13	-31.43	5.18	0.2144	-0.0793	-0.4842	
-0.758352	0.158112	0.616222	-3.5	-30.45	5.39	0.2107	-0.0702	-0.5037	
-0.745176	0.174216	0.618662	-4.27	-29.89	4.55	0.202	-0.0748	-0.5004	
-0.739442	0.17934	0.627202	-4.41	-28.77	3.92	0.1906	-0.0826	-0.5017	
-0.739564	0.176534	0.63135	-4.9	-27.51	3.78	0.1907	-0.0717	-0.5046	
-0.741516	0.172142	0.642208	-4.55	-26.18	3.57	0.201	-0.0797	-0.5126	
-0.743224	0.161528	0.657092	-3.36	-24.15	3.36	0.1766	-0.078	-0.5087	
-0.739808	0.16531	0.66795	-4.06	-23.45	3.22	0.1824	-0.0718	-0.5134	
-0.726144	0.158356	0.662826	-2.73	-23.17	3.64	0.1709	-0.0795	-0.5086	
-0.713212	0.168116	0.668072	-3.71	-22.47	3.36	0.1637	-0.0639	-0.5081	
-0.705038	0.151036	0.67588	-2.66	-21.42	3.15	0.1553	-0.0764	-0.5126	
-0.700036	0.162992	0.67893	-3.64	-20.16	2.94	0.1697	-0.0797	-0.5176	
-0.69784	0.166652	0.68564	-4.2	-18.69	2.94	0.155	-0.0747	-0.505	
-0.697596	0.152378	0.69357	-3.78	-17.36	2.94	0.1636	-0.0748	-0.5052	
-0.695522	0.156282	0.70272	-2.87	-16.24	2.59	0.1609	-0.0795	-0.5083	
-0.693082	0.150914	0.710284	-2.8	-14.7	2.31	0.1511	-0.0577	-0.5167	
-0.689666	0.152988	0.714066	-2.38	-13.44	1.89	0.1567	-0.0717	-0.5125	
-0.681614	0.143228	0.717482	-1.33	-12.32	1.75	0.1451	-0.067	-0.5091	
-0.675514	0.152988	0.714554	-0.77	-11.27	1.75	0.1481	-0.0779	-0.5108	
-0.67405	0.170068	0.713334	-0.84	-10.5	1.26	0.1539	-0.0671	-0.5154	
-0.667462	0.160796	0.71553	-0.14	-9.59	0.98	0.1526	-0.0687	-0.5184	
-0.669048	0.157868	0.728706	-0.21	-8.75	0.56	0.1428	-0.075	-0.5242	
-0.667218	0.166164	0.727852	-0.63	-8.19	0.35	0.1441	-0.0734	-0.5197	
-0.662582	0.1586	0.721508	0.21	-7.63	0.84	0.1456	-0.0703	-0.5243	
-0.665754	0.161162	0.722362	-0.56	-6.02	0.77	0.1399	-0.0734	-0.5241	
-0.663924	0.1708	0.721996	-1.82	-5.04	0.84	0.1397	-0.0796	-0.5182	
-0.669536	0.157258	0.725534	-1.26	-4.48	1.12	0.1454	-0.0655	-0.5166	
-0.671732	0.15921	0.721142	-2.03	-3.99	0.98	0.1314	-0.0766	-0.5254	
-0.667462	0.161284	0.715896	-1.89	-3.57	0.98	0.1355	-0.0671	-0.5209	
-0.676978	0.15006	0.714798	-0.21	-3.08	0.98	0.1398	-0.0734	-0.5211	
-0.685274	0.142862	0.712968	-0.14	-2.24	0.84	0.1312	-0.0655	-0.5192	
-0.685518	0.158844	0.712968	-0.63	-1.47	0.28	0.137	-0.075	-0.521	
-0.688934	0.167384	0.712724	-0.7	-0.77	0.21	0.1384	-0.0765	-0.5226	
-0.67893	0.157868	0.714676	0.07	-0.42	0.14	0.1415	-0.0704	-0.5287	
-0.682712	0.147986	0.711138	0.28	-0.14	-0.28	0.1286	-0.0813	-0.5269	
-0.678076	0.159332	0.710528	-0.21	0.14	-0.7	0.1369	-0.0703	-0.521	
-0.680638	0.15921	0.714676	0.07	0.49	-0.77	0.1296	-0.0764	-0.5148	
-0.68259	0.16775	0.711992	-0.07	1.05	-0.84	0.1427	-0.0703	-0.5227	
-0.67649	0.168482	0.712846	0.28	1.4	-0.91	0.1385	-0.075	-0.5241	
-0.678076	0.157136	0.717482	0.21	2.38	-0.7	0.1426	-0.0749	-0.5197	
-0.67832	0.160674	0.71614	0.28	2.87	-0.77	0.1428	-0.06879999	-0.5257	
-0.676246	0.15921	0.714432	0.56	3.57	-0.63	0.1342	-0.0703	-0.5254	
-0.67405	0.164944	0.712236	-0.14	5.11	-0.84	0.1325	-0.0655	-0.5162	
-0.673684	0.161162	0.71736	-0.63	6.65	-0.98	0.1456	-0.0672	-0.5227	
-0.668804	0.163968	0.71797	-0.07	7.77	-1.33	0.14	-0.0672	-0.5286	
-0.675148	0.15433	0.719068	0.07	9.73	-1.89	0.1412	-0.0671	-0.5211	
-0.675026	0.149816	0.720288	-0.49	12.25	-2.59	0.1442	-0.06879999	-0.5242	
-0.676368	0.164212	0.724436	-1.75	15.26	-3.71	0.1498	-0.0687	-0.5229	
-0.670512	0.162016	0.712236	-1.26	17.64	-4.41	0.1482	-0.0639	-0.5167	
-0.674416	0.15494	0.70638	-0.77	20.37	-4.83	0.1484	-0.0672	-0.5213	
-0.680638	0.150426	0.713212	0.07	22.96	-5.6	0.1511	-0.0671	-0.5183	
-0.682468	0.15311	0.709918	0.56	26.39	-6.72	0.1653	-0.0671	-0.5158	
-0.681004	0.149938	0.696254	2.94	29.75	-7.77	0.164	-0.064	-0.5187	
-0.686372	0.14579	0.68686	3.08	32.9	-8.54	0.1779	-0.0764	-0.5072	
-0.686982	0.142618	0.67893	5.18	36.05	-9.59	0.1778	-0.07319999	-0.5027	
-0.697962	0.139324	0.669658	6.02	39.41	-10.78	0.1794	-0.0749	-0.5088	
-0.70211	0.139446	0.655994	6.65	42.84	-11.83	0.1851	-0.0639	-0.5103	
-0.717604	0.140544	0.646478	5.32	45.29	-13.02	0.1893	-0.067	-0.506	
-0.740296	0.14457	0.629764	6.93	48.58	-14.07	0.2064	-0.0749	-0.5051	
-0.760792	0.150426	0.628422	6.58	51.8	-14.7	0.2062	-0.0591	-0.5003	
-0.776774	0.156038	0.58804	7.49	55.44	-15.19	0.2172	-0.0605	-0.4841	
-0.780556	0.157014	0.553392	7.91	57.89	-16.38	0.2273	-0.0668	-0.489	
-0.792024	0.158112	0.539118	7.07	59.92	-17.15	0.2391	-0.0639	-0.5015	
-0.817278	0.13847	0.523502	7.42	61.18	-16.8	0.2445	-0.07	-0.4911	
-0.830698	0.11651	0.498858	8.61	62.79	-15.82	0.2457	-0.0668	-0.4836	
-0.851682	0.120536	0.48434	9.1	62.86	-15.68	0.2654	-0.0667	-0.4721	
-0.868396	0.124074	0.47458	7.14	62.37	-14.91	0.2669	-0.0573	-0.4765	
-0.869738	0.119438	0.45872	8.61	62.02	-13.3	0.2723	-0.0713	-0.4663	
-0.874984	0.124684	0.439932	9.24	60.97	-13.65	0.2948	-0.0743	-0.4535	
-0.881328	0.123708	0.41053	7	61.74	-11.9	0.283	-0.0616	-0.4438	
-0.903288	0.122488	0.401014	9.59	60.48	-11.48	0.3042	-0.0615	-0.4354	
-0.91561	0.110654	0.35807	10.29	60.2	-11.83	0.3142	-0.0568	-0.4357	
-0.92537	0.111264	0.353922	8.54	60.27	-12.04	0.3155	-0.0661	-0.4298	
-0.946964	0.102358	0.336354	8.89	59.01	-13.44	0.3299	-0.0662	-0.4348	
-0.94123	0.10492	0.315736	8.75	58.1	-14.14	0.331	-0.0614	-0.4242	
-0.957456	0.09821	0.295484	10.22	56.42	-13.44	0.3422	-0.0597	-0.4169	
-0.948062	0.07259	0.279868	11.76	54.11	-13.16	0.3449	-0.0534	-0.4139	
-0.964898	0.063806	0.250588	10.78	54.25	-13.37	0.3503	-0.0548	-0.4035	
-0.976732	0.066978	0.237534	14.28	53.41	-12.88	0.3555	-0.053	-0.387	
-0.972584	0.072468	0.209474	14.49	51.73	-13.93	0.3658	-0.0719	-0.3937	
-0.980636	0.063684	0.186538	18.55	50.05	-12.74	0.3699	-0.0531	-0.389	
-1.003084	0.048434	0.164456	18.55	49.84	-13.37	0.3708	-0.0544	-0.3739	
-1.019676	0.039406	0.147498	17.29	48.65	-13.3	0.3779	-0.056	-0.3726	
-1.016016	0.028182	0.12688	18.27	46.13	-12.25	0.3805	-0.0558	-0.3621	
-1.0187	0.032574	0.10309	20.23	44.8	-14.07	0.389	-0.0511	-0.3623	
-1.011258	0.037698	0.075884	16.87	43.33	-13.37	0.3916	-0.0604	-0.352	
-1.029314	0.050996	0.076006	12.6	42.77	-13.09	0.3914	-0.0509	-0.3473	
-1.028826	0.0366	0.06039	12.67	41.44	-13.16	0.3984	-0.0571	-0.34	
-1.016504	0.038186	0.022204	11.27	40.32	-13.3	0.401	-0.0507	-0.3324	
-1.012112	0.024644	0.026962	9.66	39.62	-13.02	0.4194	-0.0554	-0.3271	
-1.018578	0.027328	0.019642	8.96	38.08	-13.44	0.4049	-0.0521	-0.322	
-1.024068	0.025864	-0.024766	9.24	37.8	-13.37	0.4189	-0.0426	-0.3132	
-1.019676	0.034282	-0.04209	1.26	38.29	-14.56	0.4216	-0.041	-0.3088	
-1.050298	0.014884	-0.061122	9.03	35.98	-15.75	0.4275	-0.052	-0.3121	
-1.042856	-0.006466	-0.025254	4.06	32.83	-11.2	0.4204	-0.0567	-0.315	
-1.039074	0.017812	-0.066368	7.98	29.61	-11.97	0.43	-0.0503	-0.3001	
-1.035658	0.00366	-0.075884	-0.7	23.73	-11.9	0.4309	-0.0531	-0.285	
-1.044076	0.003538	-0.081374	2.38	19.25	-9.31	0.4426	-0.0424	-0.2943	
-1.01992	0.01525	-0.08357	3.08	15.26	-11.9	0.4391	-0.0436	-0.2715	
-1.038342	0.00122	-0.105042	-0.35	14.35	-7.42	0.4323	-0.0469	-0.2835	
-1.021994	-0.000244	-0.084302	-2.59	14.21	-7	0.4366	-0.0437	-0.2836	
-1.035658	-0.01159	-0.088572	1.05	13.72	-6.65	0.4452	-0.0406	-0.2838	
-1.028216	-0.009028	-0.068076	5.11	12.53	-6.09	0.4362	-0.0216	-0.2726	
-1.028948	-0.000854	-0.083448	1.12	10.08	-6.72	0.4404	-0.0357	-0.2699	
-1.024922	0.00305	-0.085034	-3.5	9.38	-5.46	0.4462	-0.0357	-0.2716	
-1.02663	0.002318	-0.10309	-3.92	8.26	-6.16	0.4507	-0.0312	-0.2793	
-1.026752	-0.016104	-0.066246	-0.63	10.85	-3.29	0.4475	-0.0278	-0.267	
-1.010404	-0.03782	-0.07991	8.26	10.71	-2.73	0.4375	-0.0247	-0.2682	
-1.0187	-0.03233	-0.10309	17.71	10.99	-8.54	0.4464	-0.0296	-0.2791	
-1.026508	-0.011956	-0.094794	10.43	9.52	-9.31	0.4476	-0.0326	-0.2701	
-1.000278	-0.017812	-0.07503	11.2	10.85	-8.12	0.446	-0.0247	-0.2669	
-1.005524	-0.00366	-0.135298	7.77	9.45	-7.35	0.4431	-0.0262	-0.2638	
-1.009916	-0.006588	-0.121268	6.86	11.06	-7.63	0.4461	-0.031	-0.2685	
-1.014308	-0.023668	-0.108336	6.37	13.44	-7.42	0.4501	-0.0308	-0.2581	
-1.00894	-0.055144	-0.094184	13.23	13.65	-7.35	0.4416	-0.034	-0.2624	
-1.008086	-0.03599	-0.08479	7.63	14.14	-5.74	0.4528	-0.0245	-0.255	
-1.022604	-0.0366	-0.090524	5.67	12.95	-6.79	0.4471	-0.0245	-0.2548	
-1.013332	-0.021594	-0.073688	5.88	13.58	-6.16	0.4499	-0.0417	-0.2507	
-1.003572	-0.030622	-0.078568	7.7	13.23	-6.58	0.4483	-0.0228	-0.2473	
-1.001742	-0.010858	-0.077958	14.07	11.41	-8.47	0.4465	-0.032	-0.2338	
-1.003206	-0.022082	-0.088938	11.97	12.53	-7.49	0.4528	-0.0386	-0.2537	
-1.006378	-0.040504	-0.088206	13.58	12.25	-8.19	0.4525	-0.0306	-0.243	
-1.025532	-0.04758	-0.116998	16.1	11.27	-9.17	0.4482	-0.0228	-0.2428	
-1.023824	-0.04087	-0.125294	15.96	10.85	-8.61	0.4598	-0.0182	-0.2491	
-1.020652	-0.042212	-0.130418	14.98	10.85	-8.19	0.4567	-0.0244	-0.2431	
-1.021262	-0.056608	-0.12566	23.31	11.69	-5.88	0.4592	-0.0194	-0.2294	
-1.004426	-0.072956	-0.119072	23.45	11.97	-3.85	0.4535	-0.021	-0.2308	
-1.00284	-0.085888	-0.135664	20.79	11.2	-2.59	0.4635	-0.0242	-0.2296	
-0.9882	-0.08295999	-0.162382	20.86	9.52	-3.64	0.4579	-0.0242	-0.234	
-0.991006	-0.084912	-0.176168	16.94	9.31	-4.48	0.4663	-0.0241	-0.2282	
-0.996862	-0.0854	-0.163236	17.85	10.43	-4.55	0.465	-0.0305	-0.2313	
-0.99796	-0.086254	-0.173362	14.07	8.82	-5.18	0.4678	-0.0164	-0.2312	
-1.009672	-0.09272	-0.159088	9.59	9.73	-4.41	0.4548	-0.0241	-0.2248	
-1.003572	-0.09162199	-0.185074	14.21	9.1	-4.48	0.4519	-0.0225	-0.2262	
-1.00528	-0.076372	-0.175436	9.66	7.98	-4.13	0.4732	-0.0334	-0.221	
-1.01382	-0.066856	-0.171654	8.89	7.14	-2.59	0.4601	-0.0239	-0.2129	
-1.000766	-0.093208	-0.185806	11.69	6.58	-0.84	0.4646	-0.0303	-0.2207	
-1.003938	-0.08601	-0.1891	8.61	6.23	-1.19	0.4703	-0.0287	-0.2178	
-0.996618	-0.095892	-0.19032	4.48	6.51	-0.91	0.4613	-0.0175	-0.2068	
-0.99369	-0.102968	-0.1952	6.23	7.07	-2.31	0.463	-0.0192	-0.2144	
-0.988932	-0.104676	-0.198372	5.88	7.14	-2.94	0.4684	-0.0363	-0.2043	
-0.984784	-0.095404	-0.185806	4.76	7.56	-4.41	0.4657	-0.0238	-0.2085	
-0.99735	-0.081618	-0.183244	4.76	8.47	-4.69	0.4687	-0.0239	-0.2147	
-0.987102	-0.083692	-0.185806	4.41	7.63	-4.41	0.4614	-0.016	-0.2098	
-1.005158	-0.071614	-0.189832	4.06	6.37	-4.83	0.4638	-0.0236	-0.1948	
-1.00467	-0.089182	-0.17324	2.94	4.97	-3.36	0.4741	-0.0175	-0.2042	
-1.003206	-0.0976	-0.193248	5.25	4.69	-2.38	0.4684	-0.0222	-0.2041	
-0.995032	-0.086498	-0.216794	3.22	4.27	-3.01	0.4696	-0.0111	-0.1964	
-1.004426	-0.084424	-0.20435	-1.96	4.55	-0.91	0.4656	-0.0128	-0.2053	
-0.999912	-0.093696	-0.208742	1.61	3.29	-0.35	0.4782	-0.0128	-0.1997	
-0.997228	-0.097112	-0.198128	0.28	2.45	0.07	0.4726	-0.0096	-0.201	
-0.99552	-0.1037	-0.205448	-0.35	-1.4	-0.77	0.4743	-0.0176	-0.2117	
-0.99796	-0.100406	-0.203984	1.61	-2.31	0.35	0.4686	-0.0223	-0.2101	
-1.00345	-0.114314	-0.208864	1.05	-3.78	1.33	0.4697	-0.0143	-0.1994	
-0.992104	-0.101138	-0.217038	0.63	-3.57	1.54	0.4643	-0.0239	-0.21	
-0.990396	-0.122366	-0.20618	-1.47	-4.06	2.38	0.4656	-0.0191	-0.2054	
-0.998204	-0.115778	-0.210206	0.7	-4.55	2.38	0.4643	-0.0207	-0.21	
-1.002108	-0.104066	-0.20008	-3.92	-5.32	3.64	0.4641	-0.0237	-0.2024	
-0.998692	-0.098088	-0.189588	-6.37	-7.21	3.78	0.4655	-0.0316	-0.2026	
-1.001254	-0.091012	-0.193736	-8.12	-8.19	3.71	0.4656	-0.0191	-0.2069	
-1.00345	-0.098942	-0.185196	-9.87	-8.82	4.2	0.4727	-0.0222	-0.2057	
-1.003084	-0.087596	-0.197762	-8.82	-9.87	4.13	0.467	-0.0175	-0.2054	
-1.000644	-0.085522	-0.182878	-11.97	-10.22	4.13	0.4599	-0.0269	-0.2069	
-1.00406	-0.075762	-0.164944	-9.45	-12.53	4.2	0.4631	-0.0302	-0.2161	
-1.010892	-0.05246	-0.142984	-8.12	-13.58	3.92	0.4673	-0.0208	-0.2146	
-1.021018	-0.0671	-0.124684	-12.39	-15.61	5.95	0.4676	-0.021	-0.2252	
-1.0248	-0.047092	-0.139446	-14.14	-18.27	5.18	0.465	-0.0164	-0.2341	
-1.02663	-0.04331	-0.12688	-25.55	-19.88	7	0.4633	-0.0256	-0.2236	
-1.01626	-0.03965	-0.119316	-32.48	-20.65	9.73	0.4695	-0.029	-0.239	
-1.035658	-0.046726	-0.069662	-40.6	-22.54	15.26	0.4639	-0.0353	-0.2435	
-1.037366	-0.043554	-0.071614	-38.92	-23.45	17.29	0.4481	-0.0337	-0.2414	
-1.033706	-0.048922	-0.123952	-33.81	-26.74	14.21	0.4625	-0.0291	-0.2448	
-1.025898	-0.067832	-0.128588	-38.64	-31.85	14.42	0.4471	-0.0308	-0.2534	
-1.007232	-0.0488	-0.09747799	-31.71	-32.06	13.23	0.456	-0.0263	-0.2658	
-1.01565	-0.025864	-0.10309	-24.5	-32.83	15.68	0.4502	-0.0247	-0.264	
-1.071648	-0.016226	-0.074054	-28.28	-33.74	13.51	0.4358	-0.034	-0.2592	
-1.023946	-0.01037	-0.069296	-30.24	-38.99	10.01	0.4392	-0.0248	-0.2758	
-1.010526	-0.02989	-0.061122	-27.79	-39.62	11.9	0.448	-0.0297	-0.2837	
-0.99552	0.001952	-0.061	-17.92	-37.94	10.64	0.4438	-0.0266	-0.2865	
-0.98637	-0.009272	-0.09089	-12.04	-33.81	13.16	0.4323	-0.0234	-0.2846	
-0.997228	-0.048068	-0.068442	-2.45	-26.67	13.09	0.4382	-0.025	-0.2894	
-1.011746	-0.046604	-0.05002	15.47	-23.8	13.16	0.4329	-0.0299	-0.3029	
-1.014308	-0.035136	-0.011468	13.86	-19.11	14.56	0.4386	-0.03	-0.3031	
-1.021384	-0.015738	-0.006588	0.98	-18.13	9.38	0.4285	-0.0393	-0.2999	
-1.02785	0.005368	-0.005002	-5.46	-18.55	4.9	0.4313	-0.0408	-0.2985	
-1.049322	0.008905999	-0.008662	-4.62	-16.87	4.69	0.4256	-0.0393	-0.2983	
-1.028826	-0.011834	-0.031232	-4.41	-21	7.7	0.4273	-0.0394	-0.3059	
-1.039074	-0.01037	-0.001464	3.08	-27.37	11.69	0.4319	-0.0489	-0.3153	
-1.04615	-0.011346	0.006466	11.83	-32.06	11.83	0.4265	-0.0522	-0.3272	
-1.057496	0.03111	0.000244	6.93	-32.55	11.62	0.4249	-0.0615	-0.3213	
-1.046028	0.043432	0.01769	-6.23	-37.94	9.59	0.4164	-0.0428	-0.3237	
-1.03151	0.012688	0.030744	-5.6	-40.88	14.7	0.4122	-0.0584	-0.3238	
-1.021018	0.032452	0.041114	-2.52	-42.28	19.67	0.4081	-0.0538	-0.3327	
-0.986126	0.048312	0.033428	-13.65	-44.73	21.77	0.3931	-0.0589	-0.355	
-1.017968	0.088816	0.03965	-19.39	-38.85	16.73	0.396	-0.0605	-0.3566	
-1.01992	0.020252	0.07137	-14.77	-36.12	22.19	0.396	-0.0511	-0.358	
-1.00406	-0.017568	0.09857599	-5.25	-39.69	22.89	0.3833	-0.0558	-0.3607	
-0.990518	0.021716	0.103578	-6.02	-40.53	18.62	0.382	-0.0605	-0.3638	
-0.988932	0.083326	0.107848	-21.28	-44.38	10.92	0.381	-0.0655	-0.3774	
-1.008086	0.121146	0.131028	-29.96	-45.43	7.77	0.3783	-0.0577	-0.3848	
-0.99979	0.069418	0.152744	-16.17	-45.71	14.07	0.371	-0.0639	-0.3801	
-0.989054	0.072834	0.18605	-5.25	-45.57	17.85	0.3598	-0.0624	-0.3858	
-0.99674	0.047946	0.200568	-0.49	-44.24	18.83	0.36	-0.06879999	-0.3934	
-0.989176	0.085888	0.235582	-7.91	-45.57	17.36	0.3587	-0.0735	-0.3965	
-0.951478	0.127124	0.24278	-13.51	-47.39	17.64	0.3616	-0.0595	-0.3979	
-0.941474	0.145058	0.277306	-15.12	-47.6	17.5	0.3491	-0.0659	-0.4082	
-0.953308	0.075274	0.29097	-9.45	-47.04	14.7	0.3407	-0.0628	-0.4139	
-0.973926	0.083448	0.29341	-10.15	-46.34	12.46	0.3363	-0.0581	-0.4122	
-0.955992	0.06832	0.282552	-10.22	-44.31	10.99	0.3336	-0.0597	-0.4152	
-0.953918	0.097966	0.310002	-12.11	-43.96	10.92	0.3237	-0.0675	-0.4195	
-0.935008	0.122732	0.329644	-8.19	-45.43	10.57	0.3167	-0.06439999	-0.4222	
-0.93757	0.113094	0.339404	-6.58	-45.57	10.64	0.3183	-0.0599	-0.4298	
-0.947452	0.105774	0.360388	-7.91	-45.08	10.57	0.3144	-0.0663	-0.4404	
-0.918172	0.09747799	0.369172	-8.26	-43.68	9.38	0.3044	-0.0584	-0.4414	
-0.88816	0.11163	0.380396	-8.26	-45.85	9.38	0.2975	-0.0617	-0.4488	
-0.884622	0.121512	0.411384	-8.61	-46.13	9.1	0.2973	-0.0647	-0.4443	
-0.87291	0.105286	0.433588	-6.37	-46.69	9.8	0.282	-0.0649	-0.4575	
-0.873886	0.110898	0.453718	-5.95	-45.99	9.73	0.2721	-0.0696	-0.4587	
-0.867176	0.128832	0.474214	-5.39	-46.13	10.15	0.2694	-0.0681	-0.4647	
-0.863394	0.12017	0.476288	-4.62	-45.01	10.71	0.2623	-0.0681	-0.4659	
-0.869006	0.122366	0.496052	-3.64	-43.4	10.92	0.2596	-0.0697	-0.4689	
-0.855464	0.118706	0.512644	-0.42	-42.42	10.92	0.2556	-0.0652	-0.4793	
-0.84241	0.137128	0.529846	-1.47	-41.86	10.64	0.2453	-0.076	-0.4685	
-0.819718	0.138104	0.549244	-0.7	-40.6	10.29	0.2415	-0.07	-0.4865	
-0.796416	0.136152	0.551318	-1.12	-39.13	10.01	0.2343	-0.084	-0.4819	
-0.781654	0.1525	0.572058	-1.96	-37.38	8.89	0.2189	-0.0684	-0.4918	
-0.772138	0.15433	0.589138	-2.94	-35.35	8.61	0.2202	-0.0746	-0.4889	
-0.762256	0.139202	0.598044	-2.87	-33.46	8.4	0.2104	-0.07	-0.4961	
-0.754082	0.135542	0.60939	-3.01	-31.78	7.7	0.2147	-0.081	-0.4964	
-0.748348	0.151524	0.620248	-3.99	-30.17	7.07	0.2088	-0.0746	-0.4885	
-0.743224	0.15311	0.63684	-2.8	-28.56	6.79	0.1989	-0.0747	-0.4928	
-0.741028	0.158112	0.643672	-2.94	-27.02	6.37	0.1949	-0.0748	-0.5032	
-0.73688	0.167994	0.642696	-3.57	-26.18	6.16	0.2032	-0.0763	-0.4944	
-0.733586	0.162504	0.646478	-4.69	-24.99	6.09	0.1877	-0.0716	-0.5014	
-0.729072	0.16287	0.659898	-3.36	-23.38	5.39	0.1921	-0.0748	-0.5046	
-0.717726	0.167262	0.669292	-3.29	-22.33	5.04	0.1834	-0.081	-0.4999	
-0.718214	0.155184	0.679784	-2.52	-21.14	4.9	0.1708	-0.0764	-0.5085	
-0.707844	0.148596	0.68442	-1.75	-19.95	4.55	0.1835	-0.0763	-0.5029	
-0.698938	0.165798	0.683078	-1.33	-18.41	4.2	0.1733	-0.0809	-0.4951	
-0.69784	0.166896	0.687104	-1.4	-16.52	4.83	0.1736	-0.0733	-0.5071	
-0.69845	0.164578	0.692106	-1.68	-14.49	4.9	0.1596	-0.0718	-0.5157	
-0.704062	0.165188	0.695278	-2.73	-11.9	4.76	0.1668	-0.0655	-0.5158	
-0.6954	0.164334	0.693936	-2.17	-10.78	4.83	0.1539	-0.0827	-0.5126	
-0.693082	0.164944	0.695278	-2.38	-9.45	4.62	0.158	-0.0764	-0.5096	
-0.688568	0.160674	0.69601	-2.52	-8.19	4.06	0.1654	-0.0781	-0.5159	
-0.691008	0.164334	0.699304	-2.31	-6.93	3.36	0.1569	-0.075	-0.5186	
-0.69235	0.16226	0.701134	-2.24	-5.6	2.66	0.1541	-0.0765	-0.5201	
-0.689666	0.167018	0.702842	-2.45	-4.34	2.17	0.1582	-0.0687	-0.5171	
-0.691374	0.16104	0.70089	-1.75	-3.22	1.75	0.1493	-0.0763	-0.5033	
-0.696864	0.16104	0.695888	-1.4	-1.96	1.26	0.1522	-0.0779	-0.5064	
-0.701134	0.160064	0.694668	-0.7	-0.98	0.77	0.1624	-0.08899999	-0.513	
-0.698816	0.164822	0.691252	-0.7	-0.28	0.7	0.1469	-0.0749	-0.5183	
-0.696498	0.17385	0.690032	-0.98	0.42	0.77	0.148	-0.0685	-0.5077	
-0.701622	0.168726	0.690398	-0.91	0.98	0.7	0.1537	-0.0763	-0.5065	
-0.697962	0.173606	0.6832	-1.68	1.33	0.49	0.1551	-0.0748	-0.5065	
-0.701012	0.169092	0.681248	-0.77	1.89	0.42	0.1595	-0.0655	-0.5125	
-0.708942	0.166286	0.682346	-1.12	2.24	0.35	0.1537	-0.0748	-0.508	
-0.712114	0.173362	0.677588	-0.42	2.45	0	0.1591	-0.0715	-0.499	
-0.713212	0.169092	0.681248	-0.84	2.94	-0.14	0.1652	-0.0749	-0.5114	
-0.715652	0.158234	0.67649	0.21	3.15	-0.28	0.1624	-0.0702	-0.5142	
-0.71492	0.158966	0.67527	0.56	3.29	-0.28	0.167	-0.06879999	-0.5219	
-0.711138	0.164456	0.66917	0.7	3.43	-0.49	0.1568	-0.0749	-0.5171	
-0.718824	0.169702	0.669902	0.84	3.5	-0.77	0.1538	-0.0686	-0.5124	
-0.719678	0.166774	0.671122	0.07	3.92	-0.98	0.157	-0.0781	-0.5217	
-0.72468	0.16531	0.672342	0.14	4.13	-1.26	0.1596	-0.0764	-0.5127	
-0.725778	0.163236	0.672586	0.56	4.48	-1.61	0.164	-0.0734	-0.5173	
-0.725412	0.157258	0.669292	0.56	4.55	-1.68	0.1651	-0.067	-0.5082	
-0.718458	0.162138	0.670024	0.21	4.83	-1.96	0.151	-0.0796	-0.514	
-0.716994	0.170312	0.671854	-0.56	5.04	-2.45	0.1569	-0.0734	-0.5186	
-0.716018	0.165188	0.665144	-0.07	5.88	-2.45	0.1652	-0.0796	-0.5114	
-0.720532	0.170678	0.66856	-0.14	7.49	-2.87	0.1709	-0.0764	-0.51	
-0.719678	0.163968	0.677222	-0.49	8.68	-3.15	0.1569	-0.0781	-0.5202	
-0.717726	0.169336	0.67893	-0.91	10.15	-3.64	0.1609	-0.0748	-0.5097	
-0.718214	0.167384	0.66734	-1.75	12.67	-4.2	0.168	-0.0654	-0.5083	
-0.710284	0.160796	0.667218	-0.35	15.47	-4.76	0.1724	-0.0733	-0.5116	
-0.704062	0.157624	0.65941	-0.35	18.13	-4.9	0.1695	-0.0608	-0.5128	
-0.708942	0.151036	0.66124	0.77	20.86	-5.25	0.1737	-0.067	-0.51	
-0.724192	0.151036	0.665266	2.59	24.78	-6.37	0.1878	-0.0748	-0.5015	
-0.73017	0.143716	0.665144	4.13	27.51	-7.14	0.1794	-0.07009999	-0.5072	
-0.729316	0.128588	0.645136	5.6	30.1	-7.77	0.1951	-0.0671	-0.5092	
-0.729194	0.130662	0.643916	5.11	33.46	-8.61	0.1993	-0.0623	-0.5062	
-0.721142	0.14274	0.62525	5.53	36.19	-10.29	0.2063	-0.0717	-0.502	
-0.737978	0.146888	0.618418	5.04	38.5	-11.27	0.2019	-0.0716	-0.4958	
-0.75396	0.159088	0.604998	6.86	40.81	-12.25	0.2104	-0.0669	-0.4945	
-0.7747	0.174826	0.603046	4.9	43.96	-13.72	0.2256	-0.0636	-0.4798	
-0.783606	0.163724	0.59292	4.48	46.2	-14.28	0.2257	-0.0636	-0.4829	
-0.793732	0.130296	0.566934	6.58	48.72	-13.93	0.2317	-0.0637	-0.4906	
-0.801174	0.118706	0.561444	6.51	50.82	-13.72	0.2386	-0.0731	-0.4849	
-0.808006	0.13176	0.539484	5.6	52.22	-14.77	0.2514	-0.0762	-0.4824	
-0.819962	0.146766	0.517036	4.06	53.97	-15.4	0.2526	-0.0683	-0.4762	
-0.836432	0.151524	0.494222	4.13	55.23	-15.4	0.2656	-0.0684	-0.4797	
-0.848998	0.137494	0.479948	7.35	56.42	-15.12	0.2695	-0.0697	-0.4662	
-0.867176	0.117852	0.456768	8.4	57.75	-14.49	0.2709	-0.0682	-0.4677	
-0.882182	0.108702	0.44103	7.63	57.75	-14.28	0.2877	-0.0712	-0.4562	
-0.89609	0.108336	0.416752	7.84	58.17	-14.21	0.2963	-0.0696	-0.4565	
-0.915366	0.10553	0.393938	7.14	58.45	-13.23	0.3074	-0.0695	-0.4447	
-0.908656	0.11346	0.36478	5.74	57.96	-14.14	0.3128	-0.0537	-0.4371	
-0.928298	0.109556	0.341234	7.84	57.82	-14.14	0.3256	-0.0553	-0.436	
-0.944768	0.101748	0.326106	6.72	56.91	-13.79	0.3253	-0.0567	-0.4269	
-0.94794	0.086986	0.305488	8.12	56.42	-12.39	0.3325	-0.0693	-0.4274	
-0.955748	0.078934	0.28792	9.73	55.44	-11.62	0.349	-0.0611	-0.4051	
-0.963312	0.069906	0.258152	10.71	53.97	-11.13	0.3476	-0.0533	-0.4079	
-0.965508	0.060146	0.236314	10.99	53.48	-11.41	0.3504	-0.0643	-0.4052	
-0.975512	0.068808	0.227896	8.12	54.88	-12.04	0.3491	-0.0612	-0.4096	
-0.985394	0.071126	0.195688	10.08	53.62	-12.67	0.3615	-0.0578	-0.3948	
-0.997472	0.074542	0.182146	10.57	53.34	-14.28	0.37	-0.0563	-0.3921	
-1.00589	0.059414	0.16348	15.19	53.2	-14.14	0.3824	-0.0561	-0.3773	
-1.000278	0.057828	0.144326	17.36	48.51	-13.02	0.382	-0.0512	-0.3666	
-1.013576	0.046726	0.126026	20.23	47.18	-12.81	0.3951	-0.056	-0.3732	
-1.015528	0.037454	0.114314	22.4	46.27	-14.77	0.3947	-0.0495	-0.3595	
-1.01504	0.024278	0.10431	14.84	47.95	-13.93	0.3974	-0.0542	-0.3551	
-1.013332	0.024888	0.064416	17.85	42	-16.24	0.3988	-0.0526	-0.3551	
-1.016992	0.034404	0.050386	14.77	43.4	-15.75	0.4097	-0.0461	-0.3387	
-1.04493	0.037698	0.037454	15.19	41.79	-18.13	0.3941	-0.0524	-0.3413	
-1.035658	0.01586	0.00732	17.08	38.85	-14.7	0.4064	-0.0506	-0.3235	
-1.02358	0.008784	0.002196	20.65	37.03	-12.95	0.4135	-0.0474	-0.3207	
-1.035902	0.004026	-0.02135	19.39	36.05	-11.83	0.422	-0.0583	-0.3181	
-1.03517	0.012932	-0.037698	15.19	32.9	-13.86	0.426	-0.0582	-0.3107	
-1.015406	-0.001464	-0.03233	15.12	29.12	-13.86	0.4301	-0.0472	-0.3031	
-1.022848	0.007564	-0.063318	11.83	29.54	-14.56	0.4302	-0.0597	-0.3063	
-1.036146	0.001708	-0.076006	12.18	25.27	-15.89	0.4344	-0.0457	-0.3062	
-1.030534	0.013054	-0.091134	8.12	24.36	-15.68	0.4298	-0.0486	-0.2955	
-1.024434	0.010126	-0.049654	6.86	23.24	-13.09	0.4398	-0.0439	-0.2943	
-1.031754	-0.010126	-0.087474	15.19	22.47	-9.73	0.4338	-0.0438	-0.285	
-1.016382	-0.018056	-0.063196	9.52	21.63	-11.83	0.4453	-0.0392	-0.2898	
-1.032852	-0.030622	-0.091134	9.17	20.16	-11.55	0.4395	-0.0422	-0.2867	
-1.022848	-0.016714	-0.076738	6.93	18.69	-13.72	0.4365	-0.0422	-0.282	
-1.031144	-0.017324	-0.104188	3.43	18.27	-14.35	0.4365	-0.0437	-0.2805	
-1.035536	0.002318	-0.087596	-5.04	14.63	-11.27	0.4434	-0.0217	-0.2759	
-1.02846	-0.028426	-0.109922	1.05	10.99	-8.47	0.4403	-0.034	-0.2639	
-1.035902	-0.033672	-0.090158	-3.08	12.46	-6.58	0.4448	-0.0279	-0.273	
-1.034682	-0.039284	-0.079788	-0.07	12.95	-7.56	0.4463	-0.028	-0.2745	
-1.016626	-0.04148	-0.09333	8.96	10.36	-7.63	0.4506	-0.0264	-0.2747	
-1.013698	-0.030378	-0.109678	7.84	9.31	-8.26	0.4516	-0.0325	-0.2627	
-1.00345	-0.02989	-0.07515199	1.12	10.36	-6.79	0.4447	-0.0263	-0.2684	
-1.010038	-0.041724	-0.083936	4.97	11.34	-6.02	0.4416	-0.0355	-0.2594	
-1.018822	-0.057584	-0.101016	7.42	11.97	-5.6	0.4502	-0.0372	-0.2612	
-1.008574	-0.044896	-0.072712	10.85	10.71	-6.79	0.4589	-0.0294	-0.2674	
-1.009428	-0.03965	-0.097112	9.73	9.66	-6.44	0.4586	-0.0308	-0.2568	
-1.00223	-0.036112	-0.079422	8.89	10.57	-6.09	0.4585	-0.023	-0.2552	
-1.016626	-0.045872	-0.11346	7.91	10.64	-5.95	0.4514	-0.0198	-0.2549	
-1.016992	-0.043188	-0.09857599	7.49	9.59	-7.28	0.4483	-0.0275	-0.2474	
-1.015284	-0.04819	-0.100162	12.39	10.71	-6.09	0.4524	-0.0259	-0.2429	
-1.014064	-0.047458	-0.110898	11.27	9.31	-6.16	0.454	-0.0213	-0.2459	
-1.014064	-0.05673	-0.116388	7.28	10.64	-4.48	0.464	-0.0244	-0.2463	
-1.012844	-0.057584	-0.12139	6.65	10.92	-3.99	0.4554	-0.0259	-0.2445	
-1.018212	-0.076616	-0.128344	6.65	10.15	-3.01	0.4523	-0.018	-0.2398	
-1.01321	-0.058926	-0.13664	11.76	9.17	-2.59	0.4609	-0.018	-0.2385	
-1.014552	-0.086254	-0.150548	10.57	7.84	-1.4	0.458	-0.0258	-0.2371	
-1.014308	-0.080032	-0.152744	13.51	7.28	-3.29	0.4636	-0.0211	-0.2357	
-1.004426	-0.068442	-0.152378	17.99	5.46	-5.32	0.4534	-0.0178	-0.2262	
-1.00528	-0.07808	-0.153232	12.95	5.81	-5.32	0.4577	-0.0179	-0.2279	
-1.009916	-0.074908	-0.152622	12.6	6.72	-5.53	0.4576	-0.0163	-0.2263	
-1.004792	-0.066368	-0.143594	11.27	5.11	-5.46	0.4505	-0.0178	-0.2261	
-0.999058	-0.081008	-0.15067	9.1	4.9	-4.97	0.4568	-0.0244	-0.2446	
-1.014064	-0.076128	-0.13969	9.03	4.62	-3.78	0.4595	-0.0259	-0.2386	
-1.0126	-0.082594	-0.129076	10.99	5.18	-1.4	0.4639	-0.0275	-0.2433	
-1.013942	-0.089548	-0.158234	13.93	4.48	-0.49	0.4637	-0.0274	-0.2388	
-1.01382	-0.086742	-0.14701	10.01	3.78	0	0.4622	-0.0243	-0.2357	
-1.005402	-0.085644	-0.157746	8.82	3.78	-0.63	0.462	-0.021	-0.228	
-1.00223	-0.081252	-0.152256	9.17	3.43	-1.47	0.4649	-0.0351	-0.2283	
-1.006988	-0.08357	-0.154452	13.51	3.08	-2.1	0.4596	-0.0228	-0.2431	
-0.996252	-0.087108	-0.173118	11.69	3.5	-2.17	0.4589	-0.0225	-0.2219	
-0.992348	-0.094428	-0.15311	9.87	3.78	-1.61	0.4647	-0.0194	-0.2251	
-1.00589	-0.099308	-0.15616	10.01	4.06	-0.42	0.4589	-0.0178	-0.2218	
-0.98515	-0.100406	-0.164334	5.39	4.27	-1.54	0.4647	-0.0162	-0.2235	
-1.000888	-0.097112	-0.15494	4.97	3.64	-2.31	0.4647	-0.0272	-0.2222	
-0.988932	-0.093696	-0.16043	6.02	3.57	-2.24	0.4644	-0.027	-0.2131	
-0.997716	-0.09162199	-0.161284	7.63	3.29	-2.94	0.4588	-0.0287	-0.2175	
-0.998936	-0.095038	-0.170678	7.7	4.06	-2.8	0.4545	-0.0208	-0.2157	
-1.001986	-0.097844	-0.162382	8.47	4.48	-2.94	0.4688	-0.0209	-0.2177	
-1.002352	-0.089792	-0.15494	7.63	3.71	-3.08	0.4617	-0.0177	-0.2189	
-0.997106	-0.085156	-0.161162	9.03	2.73	-2.59	0.4619	-0.0178	-0.2265	
-1.007964	-0.089304	-0.157868	7.84	2.31	-1.47	0.4727	-0.0207	-0.2057	
-0.994056	-0.103334	-0.158234	4.97	2.17	-0.49	0.4646	-0.0318	-0.2192	
-0.996496	-0.09577	-0.165676	4.34	1.12	-1.33	0.4646	-0.0287	-0.2192	
-1.00589	-0.093208	-0.159942	-0.84	0.7	0	0.4605	-0.0179	-0.2279	
-1.001132	-0.095892	-0.16592	-2.03	-0.35	0.77	0.4605	-0.0194	-0.2265	
-0.995154	-0.108336	-0.173484	4.41	-0.84	0.98	0.4631	-0.0302	-0.2176	
-1.009062	-0.124684	-0.160796	2.31	-0.07	1.47	0.469	-0.0257	-0.2253	
-0.996252	-0.126636	-0.163602	7.35	-0.42	0.91	0.4731	-0.0209	-0.2193	
-0.991616	-0.11346	-0.181536	7.91	-0.91	0.14	0.4645	-0.0255	-0.2176	
-0.996252	-0.10431	-0.171776	4.2	-0.7	-0.42	0.4587	-0.0317	-0.2145	
-1.000034	-0.107482	-0.171166	1.82	-0.14	0.21	0.4644	-0.0271	-0.2146	
-0.994666	-0.096502	-0.172874	2.31	-0.14	-0.28	0.4702	-0.0271	-0.2178	
-0.992592	-0.104066	-0.172874	2.03	-0.7	-0.07	0.4631	-0.0193	-0.219	
-1.000522	-0.089548	-0.168482	3.5	-1.68	0.07	0.4606	-0.0273	-0.2281	
-1.003938	-0.097722	-0.170068	4.48	-2.52	-0.28	0.4661	-0.0178	-0.2221	
-1.005402	-0.114314	-0.162748	3.85	-2.45	0.84	0.4604	-0.0319	-0.2221	
-0.996618	-0.103456	-0.183854	4.06	-2.45	0.42	0.4614	-0.0238	-0.2099	
-1.007476	-0.096502	-0.163846	2.24	-2.24	-0.07	0.4661	-0.0288	-0.2238	
-0.993934	-0.09552599	-0.162138	3.71	-3.08	0.42	0.4702	-0.0255	-0.2148	
-1.001498	-0.100284	-0.15677	1.4	-3.57	1.19	0.4674	-0.0271	-0.2192	
-0.993202	-0.107238	-0.14823	0.35	-3.85	1.19	0.4631	-0.0224	-0.219	
-1.001742	-0.096502	-0.147986	-0.21	-3.08	1.47	0.4605	-0.0272	-0.2251	
-1.001986	-0.106506	-0.158722	-0.28	-4.27	1.82	0.4677	-0.0226	-0.2298	
-0.993324	-0.096624	-0.149328	-1.75	-4.55	1.96	0.4678	-0.0352	-0.2315	
-1.00833	-0.096502	-0.149328	-1.82	-5.67	2.31	0.4649	-0.0367	-0.2284	
-1.005402	-0.090402	-0.147986	-1.47	-5.53	3.36	0.4604	-0.0335	-0.2236	
-1.002962	-0.10126	-0.139812	-0.63	-6.09	4.06	0.4635	-0.0336	-0.2298	
-0.996984	-0.098088	-0.14396	-0.14	-7.63	2.8	0.4622	-0.0352	-0.2328	
-1.016992	-0.095404	-0.137372	-2.94	-7.21	3.64	0.4604	-0.0256	-0.2235	
-1.001864	-0.08784	-0.129198	-0.7	-7.56	3.99	0.4574	-0.0302	-0.219	
-1.003328	-0.094184	-0.128466	-2.73	-8.12	4.97	0.4579	-0.0399	-0.2327	
-1.00955	-0.093086	-0.110166	-9.73	-8.96	5.95	0.4549	-0.0257	-0.2294	
-1.012844	-0.07515199	-0.112118	-11.76	-9.73	4.83	0.4618	-0.0366	-0.2222	
-1.00406	-0.085888	-0.100162	-15.61	-9.38	4.62	0.4564	-0.0273	-0.231	
-1.000888	-0.072834	-0.097722	-11.55	-11.2	3.71	0.4524	-0.0384	-0.2401	
-1.008086	-0.05368	-0.07869	-13.65	-12.04	4.41	0.4562	-0.0319	-0.2265	
-1.014064	-0.049044	-0.049166	-23.17	-13.3	6.3	0.4622	-0.0321	-0.2358	
-1.054324	-0.014762	-0.001342	-35.77	-15.61	10.36	0.458	-0.0306	-0.2386	
-1.04676	-0.020374	-0.04514	-41.86	-17.22	11.62	0.4484	-0.0323	-0.2505	
-1.034804	-0.04148	-0.068442	-44.45	-19.39	17.92	0.45	-0.0386	-0.2552	
-1.027972	-0.072834	-0.04636	-45.36	-20.58	20.09	0.4498	-0.0369	-0.2476	
-1.02297	-0.0793	-0.035502	-39.27	-22.75	22.54	0.4459	-0.0371	-0.2611	
-1.016382	-0.040138	-0.043554	-30.59	-26.25	18.41	0.4501	-0.0262	-0.2595	
-1.037854	-0.023912	-0.071736	-32.34	-27.09	17.43	0.4557	-0.0402	-0.2554	
-1.027362	-0.004148	-0.046482	-40.53	-26.81	14.98	0.4447	-0.042	-0.2687	
-1.027972	0.003782	-0.054046	-39.69	-27.23	16.03	0.4417	-0.0388	-0.2655	
-0.975512	0.010126	-0.078446	-32.06	-29.26	13.86	0.4436	-0.0359	-0.2806	
-0.999546	-0.026718	-0.081984	-28.49	-24.85	12.32	0.448	-0.0265	-0.2837	
-1.017846	-0.055266	-0.09577	-18.83	-18.62	14.42	0.4381	-0.0376	-0.288	
-1.031266	-0.050264	-0.081984	6.51	-15.33	19.11	0.4352	-0.0453	-0.285	
-1.034438	-0.030866	-0.066124	4.97	-19.18	14	0.4423	-0.0312	-0.2835	
-0.998936	-0.024644	-0.06734399	-2.31	-20.51	10.15	0.4354	-0.0454	-0.2911	
-1.05469	0.018056	-0.062464	-9.59	-20.86	1.89	0.4284	-0.0439	-0.2969	
-1.048346	0.014396	-0.023668	-14.63	-22.82	8.4	0.4357	-0.0456	-0.3017	
-1.027362	0.030744	-0.025864	-7.21	-24.08	11.83	0.4257	-0.0408	-0.2998	
-1.028216	-0.000854	-0.029768	-1.75	-27.23	13.58	0.4173	-0.0487	-0.3057	
-1.025166	0.017568	-0.022326	-1.4	-29.33	10.71	0.4246	-0.0536	-0.3121	
-1.056032	0.015006	-0.000854	-6.51	-28.7	13.58	0.4222	-0.0506	-0.3256	
-1.045784	0.007686	0.022814	-4.55	-31.99	16.17	0.4206	-0.0474	-0.3194	
-1.043954	0.02562	0.022814	-5.11	-33.6	17.5	0.4036	-0.0553	-0.325	
-0.986126	0.004636	-0.020252	1.33	-37.1	19.18	0.4137	-0.0647	-0.327	
-1.039074	0.043676	0.031598	4.48	-38.01	22.12	0.4081	-0.0632	-0.3298	
-1.0553	0.05612	0.023058	0.56	-36.61	21.77	0.3942	-0.0681	-0.3431	
-1.030168	0.052582	0.050264	-13.09	-36.68	21.91	0.3972	-0.06659999	-0.3477	
-0.998204	0.054656	0.077348	-11.69	-39.48	20.65	0.3931	-0.0667	-0.3536	
-0.990274	0.025254	0.07808	-11.76	-43.82	24.08	0.3976	-0.0683	-0.3598	
-1.00406	0.071004	0.087352	-12.74	-44.38	17.92	0.3833	-0.073	-0.361	
-1.013698	0.08967	0.101138	-23.8	-45.08	18.76	0.3852	-0.0748	-0.3747	
-1.009428	0.104798	0.13115	-19.74	-44.52	16.24	0.3798	-0.0828	-0.3837	
-0.99552	0.138104	0.130906	-14.84	-45.64	16.17	0.3712	-0.0734	-0.3848	
-0.977342	0.127856	0.152622	-19.6	-45.29	15.82	0.3756	-0.0703	-0.3879	
-0.999546	0.097112	0.184952	-13.44	-42.91	13.09	0.3713	-0.0687	-0.3893	
-0.99796	0.115046	0.19642	-9.31	-42	12.18	0.3531	-0.07669999	-0.3994	
-0.978318	0.09699	0.224846	-9.52	-41.79	12.18	0.3475	-0.07669999	-0.4022	
-0.979294	0.102602	0.239974	-7.42	-40.39	13.16	0.3501	-0.0704	-0.3962	
-0.951478	0.135664	0.249978	-11.41	-41.86	12.18	0.3446	-0.07669999	-0.4006	
-0.930128	0.153354	0.283528	-15.19	-42.56	11.13	0.3348	-0.0752	-0.4094	
-0.92598	0.134932	0.300608	-14.21	-42.91	11.27	0.3294	-0.0691	-0.4182	
-0.938668	0.128954	0.321714	-14.7	-42.7	11.62	0.3252	-0.0785	-0.4212	
-0.950624	0.126026	0.325984	-15.54	-43.05	11.83	0.3224	-0.0645	-0.4224	
-0.938912	0.111264	0.35258	-12.11	-44.24	12.74	0.3097	-0.0802	-0.4268	
-0.924272	0.111142	0.354532	-6.16	-45.15	13.37	0.3085	-0.0646	-0.4356	
-0.918904	0.096014	0.38918	-4.69	-45.57	13.65	0.3032	-0.0805	-0.4478	
-0.922564	0.115046	0.418948	-5.18	-43.89	14	0.2933	-0.0695	-0.4503	
-0.89731	0.146034	0.414922	-4.34	-43.82	17.99	0.2961	-0.0821	-0.4506	
-0.878644	0.07808	0.46238	-1.54	-41.72	17.29	0.2905	-0.07889999	-0.4519	
-0.842776	0.140178	0.449814	-4.55	-39.27	12.25	0.2809	-0.0729	-0.4666	
-0.834968	0.147376	0.46665	-6.09	-38.78	10.01	0.2725	-0.0839	-0.4695	
-0.84485	0.149084	0.482632	-6.51	-37.03	8.19	0.2665	-0.0837	-0.4618	
-0.839238	0.165432	0.500932	-5.11	-37.59	8.12	0.2639	-0.0792	-0.4707	
-0.842166	0.16165	0.518012	-3.43	-36.82	7.63	0.2625	-0.0807	-0.4707	
-0.834358	0.167994	0.532286	-3.92	-36.4	7.28	0.2526	-0.08859999	-0.4735	
-0.812886	0.153232	0.539484	-2.45	-36.05	7.35	0.2427	-0.07449999	-0.479	
-0.796416	0.16775	0.546438	-3.43	-34.51	7.49	0.2313	-0.0808	-0.4788	
-0.781654	0.17568	0.566568	-3.08	-32.62	7.56	0.2271	-0.08549999	-0.4787	
-0.782264	0.17202	0.576084	-3.08	-30.17	7.35	0.233	-0.0856	-0.4865	
-0.784338	0.1647	0.589504	-3.99	-28.14	7.56	0.23	-0.0667	-0.4815	
-0.772504	0.180194	0.589504	-4.83	-26.32	7.14	0.2259	-0.0872	-0.4878	
-0.770552	0.18239	0.595726	-6.09	-24.64	6.72	0.2044	-0.0714	-0.4853	
-0.77775	0.174826	0.598654	-4.97	-23.45	6.86	0.226	-0.081	-0.4907	
-0.772016	0.18178	0.600606	-4.83	-22.61	6.51	0.2134	-0.08419999	-0.4994	
-0.765672	0.18178	0.60573	-4.69	-21.84	6.51	0.2148	-0.081	-0.4979	
-0.759938	0.17019	0.609878	-4.55	-20.86	6.51	0.2104	-0.0778	-0.4932	
-0.755058	0.164212	0.616466	-4.9	-19.81	6.44	0.2044	-0.0808	-0.4855	
-0.76006	0.178364	0.613538	-4.83	-17.43	5.32	0.199	-0.07	-0.4957	
-0.753716	0.17751	0.623786	-4.06	-16.17	5.18	0.196	-0.0793	-0.4912	
-0.760304	0.173118	0.630374	-3.78	-14.49	4.97	0.2006	-0.08109999	-0.502	
-0.758474	0.173606	0.628666	-2.94	-13.09	4.83	0.1892	-0.0794	-0.5001	
-0.752374	0.174582	0.626714	-2.17	-11.69	3.99	0.1892	-0.0748	-0.503	
-0.749446	0.168482	0.630862	-1.89	-10.15	3.5	0.1909	-0.0859	-0.5108	
-0.754814	0.174216	0.632692	-1.4	-9.1	3.29	0.1853	-0.0906	-0.5122	
-0.750422	0.18117	0.633424	-1.26	-8.26	2.94	0.1938	-0.0781	-0.5123	
-0.752862	0.184098	0.63562	-1.4	-7.21	2.73	0.1906	-0.081	-0.5017	
-0.748104	0.173362	0.64233	-1.47	-5.88	2.59	0.1851	-0.0858	-0.5076	
-0.743834	0.183122	0.6405	-1.19	-4.76	1.89	0.1853	-0.0859	-0.5122	
-0.745176	0.183122	0.64355	-0.91	-3.78	1.61	0.1909	-0.0812	-0.5092	
-0.739442	0.17507	0.645136	-0.56	-2.94	1.54	0.1923	-0.0858	-0.5078	
-0.740052	0.183854	0.642208	-0.49	-2.52	0.98	0.1822	-0.0655	-0.5087	
-0.735416	0.196176	0.639768	-1.19	-2.1	0.7	0.1838	-0.0843	-0.5106	
-0.733464	0.188124	0.646112	-0.7	-1.54	0.49	0.1878	-0.0748	-0.503	
-0.734318	0.189466	0.646356	-0.42	-1.12	0.28	0.1807	-0.0826	-0.5044	
-0.732854	0.184708	0.653676	-1.19	-0.35	0	0.1863	-0.081	-0.4985	
-0.738954	0.177998	0.650138	-0.49	0.84	0	0.1904	-0.0778	-0.4956	
-0.73505	0.177144	0.640866	-0.28	1.54	0	0.1836	-0.0858	-0.5061	
-0.739198	0.190564	0.639524	-0.28	2.03	-0.28	0.1863	-0.0794	-0.5	
-0.744688	0.196298	0.637206	-0.35	2.45	-0.56	0.1867	-0.0828	-0.5137	
-0.746762	0.177266	0.632814	-0.07	2.59	-0.56	0.1823	-0.078	-0.5104	
-0.74969	0.180682	0.63562	-0.7	3.01	-1.05	0.1881	-0.08899999	-0.5123	
-0.753594	0.196176	0.633912	-0.42	3.5	-1.54	0.1863	-0.0794	-0.5	
-0.751764	0.184586	0.631228	0.35	3.85	-1.75	0.1779	-0.0795	-0.5043	
-0.754448	0.178608	0.628544	-0.14	4.48	-2.24	0.1894	-0.078	-0.5092	
-0.751642	0.192638	0.62525	-0.98	5.11	-2.73	0.1907	-0.08419999	-0.5032	
-0.754692	0.177632	0.627202	-0.14	5.95	-2.8	0.1908	-0.078	-0.5062	
-0.755302	0.18056	0.625006	-0.63	6.79	-3.29	0.1879	-0.08109999	-0.5046	
-0.754692	0.188246	0.6283	-1.12	7.28	-3.64	0.1905	-0.0794	-0.4986	
-0.755302	0.171044	0.62647	-0.77	7.84	-3.92	0.1862	-0.0763	-0.4984	
-0.76189	0.167994	0.624762	-0.35	8.61	-4.34	0.1893	-0.07009999	-0.506	
-0.757498	0.174338	0.619394	-0.7	9.52	-4.62	0.1921	-0.0795	-0.5017	
-0.759694	0.167872	0.619394	-0.77	10.15	-5.04	0.1946	-0.0668	-0.494	
-0.759694	0.15921	0.62037	-0.35	11.13	-5.11	0.1921	-0.0748	-0.5031	
-0.765306	0.160064	0.609268	-0.14	13.79	-5.6	0.202	-0.0826	-0.499	
-0.768966	0.157136	0.60634	1.19	15.4	-5.81	0.2036	-0.0749	-0.5065	
-0.77592	0.154696	0.593408	2.03	17.29	-6.09	0.2065	-0.0687	-0.5096	
-0.773358	0.166408	0.58804	1.33	19.88	-6.51	0.1992	-0.0686	-0.5033	
-0.774456	0.16043	0.594628	2.03	22.19	-6.72	0.2145	-0.0652	-0.4886	
-0.773968	0.151158	0.58682	3.5	24.29	-6.72	0.216	-0.0731	-0.4918	
-0.778726	0.146766	0.582794	3.22	25.69	-7	0.2134	-0.0826	-0.4994	
-0.788852	0.15616	0.58133	4.41	28.21	-7.91	0.213	-0.0683	-0.4855	
-0.793122	0.152744	0.572424	4.97	29.89	-8.68	0.2191	-0.0654	-0.4993	
-0.796416	0.1403	0.5734	4.2	32.06	-9.45	0.2231	-0.07	-0.4889	
-0.798978	0.136884	0.554612	4.62	33.95	-10.5	0.2373	-0.0715	-0.4879	
-0.810568	0.139568	0.553026	3.71	35.56	-11.83	0.2302	-0.0653	-0.4906	
-0.822768	0.152134	0.547292	4.34	36.33	-12.81	0.239	-0.07319999	-0.4955	
-0.821426	0.14945	0.529846	4.13	37.1	-13.37	0.2457	-0.0715	-0.4836	
-0.82899	0.14274	0.52521	3.57	38.08	-13.37	0.2528	-0.0699	-0.4823	
-0.836188	0.137616	0.517768	4.34	39.41	-13.65	0.2571	-0.0699	-0.4809	
-0.84912	0.135054	0.507398	7	39.69	-14	0.2666	-0.0712	-0.4646	
-0.861076	0.133468	0.490562	7.84	40.53	-14.14	0.2751	-0.06659999	-0.4648	
-0.867298	0.140056	0.469334	8.47	42.07	-12.6	0.2819	-0.0648	-0.4514	
-0.870592	0.142008	0.45018	9.1	42.7	-11.97	0.2864	-0.0681	-0.4607	
-0.885354	0.128344	0.432368	9.24	42.98	-11.76	0.2964	-0.0681	-0.4595	
-0.899872	0.138958	0.408334	7.56	42.7	-11.48	0.2932	-0.0742	-0.4489	
-0.923296	0.152622	0.38796	7.63	42.14	-11.62	0.3	-0.06	-0.4398	
-0.932568	0.125172	0.370392	10.01	42.14	-10.43	0.3128	-0.0709	-0.4374	
-0.93513	0.099674	0.361364	8.47	42.21	-8.61	0.3084	-0.0599	-0.4325	
-0.93513	0.094184	0.350872	6.93	42.63	-7.84	0.3211	-0.0614	-0.4269	
-0.931226	0.1037	0.33245	6.44	42.84	-7.77	0.3253	-0.07229999	-0.4257	
-0.926956	0.113704	0.311588	5.6	43.05	-7.84	0.3265	-0.0659	-0.4165	
-0.93757	0.112972	0.29768	7.07	43.54	-7.7	0.3392	-0.0612	-0.4123	
-0.945744	0.10126	0.300608	9.66	43.82	-8.19	0.3363	-0.0659	-0.4108	
-0.953918	0.092842	0.275232	8.82	43.96	-8.68	0.3505	-0.0705	-0.4068	
-0.96502	0.08235	0.269986	8.61	44.03	-9.73	0.3548	-0.0737	-0.407	
-0.974414	0.087108	0.249002	10.5	43.96	-10.71	0.3571	-0.0719	-0.3919	
-0.971486	0.089914	0.225822	10.5	42.56	-11.76	0.3529	-0.0641	-0.3947	
-0.979782	0.104066	0.21472	12.32	43.12	-12.74	0.3611	-0.0545	-0.3827	
-0.996008	0.097112	0.198494	11.76	44.94	-10.71	0.3684	-0.0687	-0.3877	
-0.992592	0.064172	0.1769	15.19	41.02	-9.8	0.3839	-0.0718	-0.3806	
-1.009062	0.052826	0.155794	15.4	41.02	-10.08	0.3852	-0.07009999	-0.3746	
-1.002352	0.055632	0.121024	16.87	40.11	-11.48	0.3763	-0.0605	-0.3651	
-0.998082	0.076006	0.107482	13.86	39.06	-12.67	0.3788	-0.0682	-0.3517	
-1.014064	0.090402	0.080398	10.22	38.57	-13.72	0.3862	-0.059	-0.3624	
-0.994788	0.078812	0.08479	10.01	38.08	-13.86	0.3874	-0.0651	-0.3534	
-1.006866	0.071126	0.057828	7.77	37.94	-13.23	0.3911	-0.057	-0.3353	
-1.018456	0.053802	0.037942	10.29	38.57	-15.54	0.3968	-0.057	-0.337	
-1.02053	0.05246	0.010614	12.11	36.96	-13.79	0.4097	-0.0555	-0.3389	
-1.045784	0.05307	0.003294	11.34	36.75	-13.65	0.4152	-0.0617	-0.33	
-1.029558	0.038918	0.005368	7.56	36.4	-14.07	0.4149	-0.0568	-0.3194	
-1.030778	0.03782	0.01037	7.91	32.55	-12.95	0.4102	-0.066	-0.3057	
-1.0187	0.033062	-0.009516	13.44	34.16	-12.11	0.4245	-0.0519	-0.309	
-1.01016	0.02928	-0.00976	11.2	33.81	-11.76	0.4231	-0.0488	-0.3104	
-1.004548	0.013054	-0.017202	10.78	32.34	-12.39	0.417	-0.0549	-0.2967	
-0.991738	0.03294	-0.000122	4.48	32.27	-14	0.4344	-0.0597	-0.3034	
-1.021384	0.030866	-0.051728	7.98	30.94	-15.89	0.4297	-0.047	-0.2925	
-1.01077	0.01281	-0.02745	5.39	33.04	-14.84	0.427	-0.0533	-0.2955	
-1.016748	-0.00061	-0.029768	6.23	32.76	-15.12	0.4395	-0.0438	-0.2867	
-1.03761	0.011346	-0.08906	9.38	30.1	-16.38	0.439	-0.0451	-0.27	
-1.031754	0.009881999	-0.06161	-1.68	30.1	-15.05	0.4349	-0.0499	-0.2745	
-1.034194	0.00122	-0.081252	0.98	27.72	-14	0.4422	-0.0468	-0.2792	
-1.030412	0.003782	-0.122732	0.77	27.09	-8.68	0.4461	-0.042	-0.2687	
-1.039684	-0.031232	-0.09076799	-4.06	26.18	-12.6	0.446	-0.045	-0.2627	
-1.042368	-0.031354	-0.087352	0.84	16.24	-10.15	0.4474	-0.0357	-0.2656	
-1.032852	-0.020252	-0.122122	3.78	12.6	-11.69	0.4462	-0.0373	-0.2701	
-1.016504	-0.019276	-0.11468	-2.17	12.04	-6.3	0.44	-0.0371	-0.2563	
-1.003328	-0.02135	-0.139568	2.45	11.55	-5.6	0.4501	-0.0371	-0.2582	
-1.010404	-0.03721	-0.140422	3.78	11.97	-6.44	0.4456	-0.0323	-0.2504	
-1.001498	-0.039894	-0.136762	10.5	11.34	-7.49	0.4428	-0.0308	-0.2548	
-1.01687	-0.023546	-0.147376	12.11	11.97	-9.8	0.4556	-0.0276	-0.2521	
-1.012112	-0.006954	-0.156404	11.97	12.18	-7.77	0.4555	-0.0292	-0.2507	
-1.01077	-0.017324	-0.159942	7.91	11.27	-8.33	0.4495	-0.0243	-0.2398	
-1.00711	-0.038308	-0.125416	4.34	15.75	-5.67	0.4526	-0.0307	-0.246	
-1.006866	-0.031476	-0.130662	7.56	16.59	-7.07	0.4483	-0.0353	-0.246	
-1.019554	-0.035258	-0.13664	9.52	15.75	-6.93	0.4523	-0.0321	-0.2385	
-1.01626	-0.03843	-0.138836	6.16	13.09	-6.93	0.4523	-0.0305	-0.237	
-1.01687	-0.035014	-0.149084	5.04	12.25	-6.58	0.4567	-0.0259	-0.2431	
-1.017114	-0.037332	-0.153964	5.95	12.11	-5.95	0.4592	-0.0163	-0.2294	
-1.009794	-0.043066	-0.154818	7.21	13.02	-4.97	0.4546	-0.0224	-0.2203	
-1.008696	-0.056242	-0.161772	11.2	11.76	-4.97	0.4606	-0.0242	-0.2296	
-1.0065	-0.056364	-0.168848	11.76	10.29	-4.83	0.4633	-0.0288	-0.2252	
-1.006012	-0.06734399	-0.185562	13.58	8.68	-4.55	0.4619	-0.0225	-0.225	
-1.0126	-0.065636	-0.180438	13.16	7.98	-4.55	0.4618	-0.0209	-0.2235	
-1.011746	-0.053802	-0.196786	14	6.44	-4.34	0.4587	-0.0145	-0.2157	
-1.01321	-0.064416	-0.186904	11.9	6.58	-3.15	0.4575	-0.0224	-0.2203	
-1.006866	-0.067832	-0.18483	11.76	5.95	-2.1	0.4662	-0.021	-0.2251	
-0.998692	-0.059292	-0.20252	15.89	5.74	-1.82	0.4686	-0.0192	-0.2116	
-0.99369	-0.06222	-0.203618	11.62	4.69	-3.43	0.4614	-0.0285	-0.2085	
-0.986248	-0.068442	-0.213866	7.98	6.16	-4.2	0.4602	-0.0177	-0.2158	
-0.993202	-0.083692	-0.197762	6.44	7.14	-3.22	0.4558	-0.0191	-0.2112	
-1.0004	-0.09942999	-0.19642	11.41	7.21	-2.59	0.46	-0.0285	-0.2099	
-0.998326	-0.097356	-0.19459	13.72	7.63	-3.01	0.4643	-0.016	-0.2114	
-0.99125	-0.091256	-0.193614	11.41	7.14	-4.13	0.4686	-0.0129	-0.2115	
-1.000644	-0.072956	-0.183	8.75	5.25	-5.6	0.4629	-0.0176	-0.2129	
-1.0004	-0.070638	-0.193614	5.11	6.37	-5.04	0.4625	-0.0221	-0.1993	
-0.99674	-0.061366	-0.19276	6.09	4.76	-5.32	0.4714	-0.0254	-0.2087	
-1.002718	-0.06527	-0.194956	8.82	4.76	-4.27	0.4585	-0.0207	-0.2067	
-0.996008	-0.08235	-0.191174	8.47	5.18	-2.87	0.4642	-0.016	-0.2068	
-1.000888	-0.084424	-0.199348	11.34	4.41	-2.8	0.4668	-0.0205	-0.1979	
-0.989176	-0.087718	-0.215208	10.15	3.92	-2.73	0.4757	-0.0161	-0.2118	
-0.993446	-0.094062	-0.216306	8.4	4.13	-3.57	0.4712	-0.0159	-0.204	
-0.98881	-0.080886	-0.220698	12.74	5.11	-4.9	0.4699	-0.0176	-0.2071	
-0.980514	-0.093818	-0.217404	15.47	5.46	-5.32	0.4711	-0.0237	-0.1981	
-0.987346	-0.099064	-0.212402	15.75	6.16	-5.32	0.4653	-0.0158	-0.1978	
-0.985028	-0.10492	-0.21655	14.63	5.95	-5.18	0.4682	-0.0112	-0.1993	
-0.992592	-0.113216	-0.21472	12.81	5.46	-4.76	0.4653	-0.0221	-0.1964	
-0.995398	-0.11346	-0.216916	12.53	5.67	-4.55	0.4665	-0.0141	-0.1887	
-0.997716	-0.114802	-0.209108	9.03	3.5	-3.99	0.4666	-0.0111	-0.1932	
-0.995398	-0.116266	-0.208132	9.45	2.52	-3.85	0.474	-0.0159	-0.1996	
-0.991372	-0.107482	-0.20618	6.79	1.47	-3.36	0.4708	-0.0095	-0.1903	
-0.992348	-0.115534	-0.19886	4.55	0.84	-2.59	0.4809	-0.0173	-0.1923	
-0.982832	-0.12078	-0.212036	3.36	0.77	-2.87	0.4712	-0.0206	-0.2041	
-0.988688	-0.109068	-0.208864	1.96	0.28	-2.52	0.4767	-0.019	-0.1967	
-0.997594	-0.11163	-0.2074	-1.68	0	-1.47	0.4709	-0.0158	-0.1919	
-0.98637	-0.105164	-0.207888	1.33	-0.56	-0.98	0.474	-0.0175	-0.2026	
-0.992592	-0.099186	-0.21411	1.05	-2.38	-1.05	0.4783	-0.0175	-0.2028	
-1.000888	-0.10675	-0.216184	-1.12	-4.34	0.07	0.4782	-0.0143	-0.1997	
-0.994056	-0.118462	-0.210938	0.56	-4.83	1.05	0.4682	-0.0112	-0.1993	
-0.995032	-0.113704	-0.209596	0.42	-6.09	0.98	0.4624	-0.0174	-0.1962	
-1.001742	-0.108092	-0.211548	-3.71	-7.77	0.91	0.4641	-0.0237	-0.2024	
-0.992836	-0.114436	-0.214964	-9.1	-10.5	1.47	0.4583	-0.0174	-0.2021	
-0.999424	-0.12139	-0.213256	-13.37	-10.01	3.43	0.4773	-0.0177	-0.2149	
-1.005768	-0.116998	-0.210328	-15.96	-10.01	4.2	0.4627	-0.0144	-0.2068	
-0.98088	-0.126514	-0.216306	-15.75	-10.5	4.97	0.4641	-0.0128	-0.2038	
-0.991006	-0.128466	-0.204594	-15.26	-10.22	4.13	0.4683	-0.0159	-0.2009	
-0.990274	-0.116876	-0.203252	-10.78	-8.89	3.99	0.4755	-0.0081	-0.2025	
-1.000644	-0.103334	-0.197518	-11.76	-10.01	3.57	0.4654	-0.0174	-0.2009	
-1.007964	-0.117364	-0.190442	-14.98	-10.01	5.11	0.4727	-0.016	-0.2056	
-1.002962	-0.111264	-0.193248	-16.94	-11.06	5.46	0.4656	-0.0129	-0.2084	
-1.000888	-0.096502	-0.185074	-15.4	-13.37	6.09	0.4631	-0.0162	-0.2189	
-1.012966	-0.08418	-0.16531	-16.52	-14.49	5.67	0.4632	-0.0146	-0.2204	
-1.014186	-0.072102	-0.165066	-17.29	-15.96	6.86	0.4717	-0.0178	-0.2192	
-1.023336	-0.078202	-0.170434	-19.46	-18.06	9.24	0.4605	-0.0147	-0.2279	
-1.0065	-0.070394	-0.165798	-21.56	-18.34	12.04	0.4605	-0.01	-0.2278	
-1.007354	-0.073078	-0.18117	-24.22	-20.79	11.76	0.4651	-0.0118	-0.2371	
-1.012478	-0.064782	-0.166042	-25.34	-20.3	12.46	0.4576	-0.0272	-0.2235	
-1.028338	-0.07747	-0.127856	-25.9	-17.64	12.95	0.4552	-0.0211	-0.2384	
-1.034438	-0.055632	-0.105774	-18.13	-18.2	14.77	0.4648	-0.0241	-0.2282	
-1.026142	-0.05124	-0.117486	-12.95	-21.42	15.75	0.4508	-0.0242	-0.2368	
-1.008208	-0.073688	-0.121512	-17.5	-24.01	16.73	0.4556	-0.0214	-0.252	
-1.004182	-0.072102	-0.101382	-20.16	-23.94	15.47	0.4641	-0.0245	-0.2509	
-1.04493	-0.049654	-0.0732	-24.85	-22.75	15.82	0.4516	-0.0278	-0.2611	
-1.029802	-0.039528	-0.053802	-22.82	-24.29	17.57	0.4429	-0.0292	-0.2563	
-1.040294	-0.001342	-0.042578	-16.17	-30.87	16.24	0.4462	-0.0357	-0.2716	
-1.00833	0.010858	-0.073566	-14.7	-34.72	17.5	0.4422	-0.039	-0.2791	
-1.026508	0.04453	-0.02867	-22.33	-35.07	15.68	0.4422	-0.0484	-0.2808	
-1.043832	0.059292	0.000122	-29.68	-33.67	14.7	0.438	-0.0437	-0.2821	
-1.010282	0.03965	0.011224	-22.89	-37.52	16.24	0.4327	-0.033	-0.2969	
-0.968802	-0.013176	-0.033672	1.19	-46.48	19.88	0.4339	-0.036	-0.2879	
-0.966362	-0.042334	-0.010858	31.15	-38.29	23.1	0.4367	-0.0407	-0.2881	
-1.005402	-0.068442	-0.06161	48.86	-27.86	27.37	0.4341	-0.0471	-0.2956	
-1.008208	-0.01708	-0.113216	37.52	-22.96	20.93	0.4256	-0.0486	-0.2984	
-1.018822	-0.009272	-0.018178	-6.79	-11.69	19.11	0.4143	-0.0596	-0.3012	
-0.99186	-0.00671	0.030134	-2.66	-11.13	15.54	0.4274	-0.0645	-0.3078	
-0.971974	0.031354	-0.022204	-2.03	-8.26	7.63	0.4217	-0.0613	-0.3091	
-0.946354	0.021594	-0.044164	-6.86	-11.55	6.37	0.4174	-0.06439999	-0.3075	
-0.982344	0.030744	-0.054046	-12.25	-8.05	4.55	0.4218	-0.0692	-0.3122	
-1.010648	0.0366	-0.020252	-13.16	-4.62	4.76	0.419	-0.0676	-0.3121	
-1.047248	0.035868	-0.05734	-5.6	-3.5	5.32	0.4119	-0.0661	-0.3164	
-1.047126	0.04148	-0.024278	-7.42	-2.03	5.25	0.4132	-0.0676	-0.3119	
-1.03395	0.051484	0.003904	-6.65	-3.85	6.02	0.4176	-0.0693	-0.3151	
-1.005402	0.053314	0.02318	-6.44	-4.27	6.3	0.4165	-0.06	-0.3255	
-0.996984	0.059292	0.04819	-12.04	-3.5	4.9	0.4119	-0.0661	-0.3164	
-0.972096	0.06771	0.053924	-10.08	-2.87	3.71	0.4149	-0.0646	-0.321	
-0.981612	0.075884	0.066734	-9.45	-0.91	1.12	0.4121	-0.0678	-0.321	
-0.97966	0.085766	0.050874	-2.59	0.91	-1.12	0.4191	-0.0693	-0.3167	
-0.983686	0.12322	0.07015	-4.06	2.17	-6.23	0.4091	-0.0614	-0.3177	
-0.995886	0.114802	0.054778	-1.96	2.87	-6.44	0.4163	-0.0568	-0.3209	
-1.018944	0.084912	0.073078	-2.52	4.69	-5.11	0.425	-0.0585	-0.3243	
-1.0065	0.064538	0.057096	2.45	4.48	-4.48	0.4247	-0.0536	-0.3151	
-1.02358	0.06734399	0.049288	-1.05	4.48	-3.64	0.4102	-0.055	-0.3071	
-1.00894	0.074786	0.032208	-3.29	2.24	-3.43	0.4176	-0.0536	-0.3149	
-1.042368	0.050996	0.047702	0.14	2.94	-1.68	0.4161	-0.052	-0.3148	
-1.034804	0.031598	0.053558	3.08	2.03	1.19	0.4204	-0.0567	-0.3135	
-1.009428	0.029158	0.053802	2.8	2.31	-1.19	0.4192	-0.0521	-0.3225	
-0.965142	0.052094	0.044286	-4.76	0.7	-5.6	0.4221	-0.0694	-0.3228	
-0.970388	0.080764	0.043798	-13.02	0.84	-11.62	0.4147	-0.0536	-0.3148	
-0.971608	0.049898	0.04819	-13.02	1.96	-13.79	0.4222	-0.06	-0.3257	
-0.989054	0.0305	0.030866	-8.96	3.64	-14.56	0.4192	-0.0412	-0.3223	
-1.009794	0.025986	0.032574	-6.09	4.27	-13.72	0.4309	-0.0539	-0.3319	
-1.021994	0.045262	0.018056	-10.71	3.92	-14	0.4189	-0.0457	-0.3118	
-1.041392	0.055876	0.027328	-14	2.59	-16.59	0.4178	-0.0443	-0.3223	
-1.036024	0.044042	0.03965	-10.08	1.12	-17.08	0.4161	-0.0348	-0.316	
-1.032364	0.031842	0.049044	-11.2	-0.49	-17.57	0.4274	-0.0426	-0.309	
-0.99735	0.03599	0.029646	-7.7	-2.1	-18.69	0.4234	-0.0255	-0.3207	
-1.005524	0.057828	0.02501	-14.14	-3.57	-21.42	0.4291	-0.0302	-0.3194	
-1.0065	0.05795	0.01464	-11.48	-3.92	-24.08	0.4246	-0.0254	-0.3116	
-0.993812	0.044286	0.00549	-9.87	-5.11	-26.39	0.4266	-0.021	-0.3313	
-1.016748	0.020252	0.009638	-5.25	-4.13	-25.27	0.4315	-0.0222	-0.3058	
-1.02724	0.002196	0.013176	-0.14	-3.36	-24.15	0.4222	-0.0068	-0.3279	
-1.023092	-0.020252	0.010126	3.64	-4.76	-27.23	0.4206	-0.0083	-0.3234	
-1.017846	-0.040992	0.02867	8.75	-5.32	-26.32	0.4164	0.0025	-0.3261	
-1.026752	-0.048434	0.01525	10.99	-6.02	-26.46	0.4204	-0.0051	-0.3157	
-1.023214	-0.064172	0.047946	11.69	-6.02	-27.65	0.4305	0.0025	-0.322	
-1.03761	-0.075274	0.03294	12.81	-6.72	-27.79	0.419	0.0011	-0.3171	
-1.029558	-0.080032	0.018422	18.69	-7.63	-27.65	0.4248	-0.0036	-0.3204	
-1.01077	-0.093696	0.043432	13.93	-9.31	-27.58	0.4203	0.0183	-0.3169	
-1.004182	-0.09467199	0.048556	16.24	-10.22	-28.77	0.4206	0.0197	-0.3275	
-0.992958	-0.130662	0.059048	17.99	-10.08	-29.47	0.415	0.0213	-0.3288	
-1.002596	-0.13969	0.048312	9.45	-11.83	-28.84	0.4124	0.0195	-0.3393	
-1.013088	-0.138714	0.053924	3.36	-14	-29.54	0.4208	0.0259	-0.3319	
-1.008452	-0.154696	0.054168	7.49	-14.77	-28.49	0.4094	0.0212	-0.3316	
-1.00345	-0.162016	0.069174	6.51	-15.26	-26.95	0.4265	0.0368	-0.3319	
-1.02358	-0.171044	0.081008	2.24	-16.17	-23.87	0.418	0.0415	-0.3361	
-1.00162	-0.181902	0.101626	2.59	-15.68	-23.52	0.4097	0.0367	-0.3435	
-1.003572	-0.19398	0.10187	8.82	-14.84	-24.08	0.4167	0.043	-0.3391	
-0.988322	-0.1952	0.103822	9.66	-15.26	-24.85	0.4098	0.0351	-0.3465	
-0.974414	-0.20679	0.112484	7.98	-14.84	-22.61	0.4129	0.049	-0.3555	
-0.988078	-0.223748	0.124196	7.7	-15.19	-19.46	0.4072	0.0491	-0.3553	
-0.987956	-0.216672	0.123952	10.85	-14.84	-18.27	0.3999	0.0507	-0.352	
-0.97112	-0.225334	0.123464	8.47	-14.42	-16.24	0.4044	0.049	-0.3583	
-0.965752	-0.24217	0.131882	11.69	-13.02	-17.43	0.4072	0.0568	-0.3582	
-0.971364	-0.244488	0.132858	7.7	-11.97	-17.01	0.3986	0.0475	-0.3566	
-0.97905	-0.246806	0.136762	7.49	-11.55	-15.61	0.4014	0.0522	-0.3551	
-0.987102	-0.259128	0.140056	8.33	-11.2	-14.42	0.3931	0.0599	-0.3638	
-0.957212	-0.249734	0.152988	4.97	-11.13	-12.6	0.3931	0.0693	-0.3652	
-0.969778	-0.265106	0.159942	6.02	-10.78	-9.52	0.4061	0.0645	-0.3702	
-0.965752	-0.258884	0.16836	4.9	-10.43	-9.8	0.389	0.0645	-0.3696	
-0.960506	-0.272304	0.173972	5.6	-9.24	-9.66	0.3859	0.0584	-0.3621	
-0.953918	-0.292312	0.170068	9.8	-8.05	-9.73	0.3888	0.0678	-0.3635	
-0.942328	-0.274744	0.180194	7.35	-7.28	-10.71	0.3961	0.0677	-0.3683	
-0.950624	-0.279746	0.188246	5.25	-6.02	-7.56	0.386	0.074	-0.3664	
-0.956724	-0.269986	0.196786	7.56	-5.53	-10.64	0.3859	0.0631	-0.3605	
-0.951844	-0.293044	0.201056	7.84	-4.83	-9.87	0.3874	0.0709	-0.3649	
-0.93818	-0.31232	0.203374	5.39	-3.85	-7.56	0.3888	0.0631	-0.3621	
-0.934642	-0.302926	0.203862	2.73	-4.13	-6.93	0.3931	0.0677	-0.3637	
-0.96014	-0.304024	0.20008	2.24	-3.36	-6.3	0.389	0.08329999	-0.3724	
-0.934764	-0.308538	0.194956	2.87	-2.52	-3.01	0.3889	0.0708	-0.368	
-0.941352	-0.303048	0.188734	2.87	-2.1	-2.38	0.3848	0.07229999	-0.3739	
-0.944402	-0.28609	0.195322	1.47	-2.38	-3.01	0.385	0.0722	-0.3785	
-0.946964	-0.28182	0.180682	1.33	-1.96	-2.52	0.3866	0.0721	-0.3846	
-0.946964	-0.286334	0.188734	1.47	-1.54	-3.08	0.3878	0.0769	-0.3785	
-0.946598	-0.28182	0.184952	2.24	-1.47	-3.71	0.3948	0.07539999	-0.3727	
-0.953552	-0.279502	0.183	0.77	-1.68	-4.06	0.3933	0.0661	-0.3713	
-0.9516	-0.27145	0.18361	0.7	-1.54	-4.48	0.3905	0.0692	-0.3711	
-0.940742	-0.27938	0.188734	0.91	-0.77	-4.41	0.3847	0.0677	-0.3694	
-0.946354	-0.28487	0.19154	0.28	-0.42	-4.62	0.3905	0.066	-0.3727	
-0.95648	-0.286578	0.191784	0.56	-0.21	-4.2	0.3919	0.0817	-0.3725	
-0.956968	-0.277916	0.171776	-0.21	-0.35	-4.9	0.3921	0.0675	-0.3788	
-0.95343	-0.277306	0.187514	0.42	-0.21	-3.99	0.3731	0.0819	-0.3658	
-0.961238	-0.27755	0.191052	-1.12	-0.28	-2.66	0.3836	0.0878	-0.3812	
-0.96563	-0.277184	0.18849	-0.98	0.14	-1.19	0.3833	0.077	-0.3723	
-0.958676	-0.281576	0.184098	-0.7	0.14	-0.63	0.3844	0.0772	-0.3617	
-0.953674	-0.28487	0.179828	-0.56	0.35	-0.07	0.3863	0.0707	-0.3755	
-0.94916	-0.289872	0.179828	-0.35	0.35	0.21	0.3946	0.0771	-0.3666	
-0.95526	-0.294752	0.182634	-0.63	0.98	0.63	0.3802	0.0881	-0.3629	
-0.94855	-0.29463	0.179096	-0.63	1.19	0.91	0.3866	0.0737	-0.3861	
-0.953674	-0.294508	0.174094	-0.07	1.54	1.4	0.3892	0.0722	-0.3771	
-0.952698	-0.291458	0.18361	2.24	1.75	1.4	0.3818	0.0818	-0.3707	
-0.951112	-0.296216	0.186172	1.89	1.54	1.82	0.3737	0.0753	-0.3841	
-0.950624	-0.292312	0.183976	1.54	1.4	0.7	0.3893	0.0722	-0.3801	
-0.948184	-0.284626	0.188246	0.42	1.05	1.12	0.3933	0.0739	-0.3727	
-0.95526	-0.27572	0.189588	0.21	0.63	0.91	0.3892	0.0722	-0.3786	
-0.957578	-0.280478	0.188612	1.12	0.98	1.12	0.3861	0.0708	-0.3694	
-0.952454	-0.285358	0.191662	2.94	1.4	2.24	0.382	0.07229999	-0.3738	
-0.958676	-0.291092	0.188368	3.57	1.4	2.66	0.3845	0.0662	-0.3634	
-0.953918	-0.281088	0.184708	3.85	1.33	4.48	0.382	0.07539999	-0.3738	
-0.959164	-0.26779	0.183	2.73	1.26	6.09	0.3918	0.0645	-0.3682	
-0.964288	-0.266082	0.185196	0.84	1.05	7.49	0.399	0.0645	-0.3715	
-0.962824	-0.268278	0.186904	1.47	1.4	8.68	0.3892	0.0581	-0.3773	
-0.95709	-0.262666	0.184464	-0.14	1.54	10.71	0.3892	0.0597	-0.3773	
-0.959652	-0.277428	0.180682	2.17	1.75	12.46	0.3875	0.0614	-0.3681	
-0.95526	-0.277428	0.193126	3.92	2.03	14.07	0.3876	0.0614	-0.3712	
-0.959164	-0.257542	0.18605	5.6	0.84	15.82	0.3849	0.0613	-0.3771	
-0.965264	-0.246684	0.177266	4.48	0.14	16.38	0.3947	0.0598	-0.3684	
-0.95892	-0.254248	0.186416	7.7	1.4	16.59	0.389	0.052	-0.3683	
-0.944768	-0.25498	0.172142	6.58	3.22	16.38	0.3893	0.0534	-0.3774	
-0.94428	-0.279014	0.186172	-0.14	5.39	16.87	0.385	0.0425	-0.3759	
-0.954528	-0.26718	0.204594	-6.3	7.56	17.43	0.3933	0.0536	-0.3684	
-0.961116	-0.256932	0.197274	-8.61	9.52	18.62	0.3873	0.0553	-0.3606	
-0.96136	-0.235704	0.180926	-6.44	10.22	19.53	0.396	0.0442	-0.3641	
-0.96502	-0.23058	0.155428	-6.37	11.69	19.11	0.4003	0.0552	-0.3641	
-0.975268	-0.23668	0.165188	-4.83	13.58	17.64	0.3988	0.038	-0.3628	
-0.955016	-0.236924	0.169458	0.28	13.16	20.79	0.4032	0.0333	-0.3645	
-0.97722	-0.213744	0.177022	0.84	15.05	21.21	0.3929	0.035	-0.3551	
-0.994666	-0.204106	0.169214	3.92	14.42	23.1	0.4005	0.0191	-0.3692	
-0.979172	-0.208376	0.14762	4.76	15.05	25.41	0.3917	0.027	-0.3627	
-0.994788	-0.222162	0.148596	-1.96	17.08	26.95	0.4	0.0272	-0.3539	
-0.977586	-0.217404	0.13908	-2.8	16.31	26.46	0.4085	0.0303	-0.3511	
-0.976366	-0.176168	0.11956	-5.32	15.96	27.02	0.4141	0.021	-0.3469	
-0.998936	-0.140788	0.121634	-7.07	16.17	27.3	0.4043	0.0099	-0.3528	
-0.987346	-0.112728	0.092598	-5.11	17.22	28.35	0.4114	0.0146	-0.353	
-0.981246	-0.112972	0.096258	-6.86	17.15	29.26	0.4125	0.0133	-0.3394	
-0.99308	-0.120048	0.09882	-5.46	17.57	30.1	0.4182	0.0054	-0.3412	
-0.993324	-0.10553	0.080398	-2.8	15.75	27.58	0.4124	0.0023	-0.3381	
-1.011502	-0.084912	0.082594	-1.61	16.73	26.6	0.4168	-0.0008	-0.3413	
-1.01748	-0.076494	0.068564	-0.35	13.37	25.83	0.4164	-0.0099	-0.3263	
-1.021994	-0.070028	0.072468	1.47	14.98	26.11	0.4193	-0.0178	-0.328	
-1.025654	-0.059658	0.065148	4.41	16.03	27.79	0.4149	-0.0162	-0.3248	
-1.021262	-0.025864	0.061366	6.44	15.47	28.63	0.419	-0.016	-0.3174	
-1.017358	-0.008417999	0.042456	5.53	13.86	29.05	0.4207	-0.0193	-0.325	
-1.000278	0.002074	0.025864	1.61	12.95	28.56	0.4205	-0.0271	-0.3206	
-1.014796	0.006222	0.052948	0.49	18.34	30.03	0.419	-0.0379	-0.3147	
-1.013576	0.001342	0.05246	16.66	17.43	30.87	0.4206	-0.0271	-0.3221	
-1.019554	-0.007929999	0.032208	35.84	15.05	30.45	0.4249	-0.0396	-0.3209	
-1.014064	-0.003782	0.00549	35.91	13.65	26.11	0.4176	-0.0473	-0.3148	
-1.014796	0.023058	0.024766	30.1	12.53	23.03	0.4147	-0.0583	-0.3149	
-1.00894	0.035136	0.023058	27.16	11.69	23.38	0.4273	-0.0613	-0.3062	
-1.012112	0.058316	-0.00122	25.76	11.34	23.03	0.4132	-0.07229999	-0.3105	
-1.007842	0.052948	0.0061	22.47	11.9	24.43	0.4243	-0.0722	-0.3002	
-1.020286	0.06466	0.000366	28.98	10.29	24.08	0.4282	-0.072	-0.2883	
-1.00589	0.041602	-0.008052	29.54	10.5	24.85	0.4096	-0.086	-0.2848	
-1.018334	0.0732	-0.006954	25.2	10.92	23.66	0.4195	-0.086	-0.2821	
-1.01748	0.07442	-0.009881999	20.72	11.55	25.13	0.4255	-0.1017	-0.2886	
-1.007842	0.096868	-0.014762	15.05	11.41	23.38	0.4285	-0.105	-0.2948	
-1.010892	0.085644	-0.016714	8.82	11.2	24.22	0.4271	-0.1112	-0.2934	
-1.007964	0.08906	-0.025742	7.35	10.78	23.73	0.4211	-0.1017	-0.287	
-1.006744	0.097722	-0.02379	7.14	11.41	24.15	0.4253	-0.1048	-0.2841	
-1.010038	0.101626	-0.038552	3.85	10.85	23.45	0.4225	-0.1189	-0.2827	
-1.008818	0.12261	-0.03233	1.54	11.62	22.54	0.418	-0.1172	-0.2765	
-1.011136	0.130296	-0.039284	-3.5	12.32	23.87	0.4165	-0.1266	-0.2751	
-1.012234	0.145424	-0.03843	-7.28	11.2	24.36	0.4222	-0.1328	-0.2724	
-1.01504	0.148474	-0.05063	-8.54	10.43	25.27	0.4222	-0.1328	-0.2739	
-1.010282	0.156892	-0.05551	-11.27	10.99	26.25	0.4206	-0.139	-0.2679	
-1.00101	0.173606	-0.065026	-12.46	9.66	26.18	0.4233	-0.1436	-0.2604	
-1.006866	0.193248	-0.055022	-20.58	9.94	26.88	0.4206	-0.139	-0.2679	
-0.992226	0.190808	-0.057828	-21.28	10.78	28.49	0.412	-0.1405	-0.2661	
-0.989054	0.193492	-0.050874	-23.03	11.34	28.56	0.4064	-0.1515	-0.2676	
-0.98881	0.200812	-0.048678	-23.8	10.5	27.3	0.4109	-0.1469	-0.2767	
-0.987102	0.212768	-0.046848	-19.74	8.82	24.71	0.4135	-0.1546	-0.2679	
-0.98332	0.236558	-0.06954	-13.44	8.33	23.31	0.4081	-0.1532	-0.2768	
-0.979904	0.22814	-0.056364	-15.96	8.4	24.08	0.415	-0.1578	-0.268	
-0.987346	0.228262	-0.060268	-10.57	8.4	22.26	0.4105	-0.1608	-0.2618	
-0.986492	0.235338	-0.065148	-9.52	8.33	21.56	0.4048	-0.1655	-0.2632	
-0.980758	0.257298	-0.07015	-7.14	7.98	20.72	0.4121	-0.1624	-0.2664	
-0.97417	0.28243	-0.084668	-11.13	7.98	18.62	0.4023	-0.1766	-0.2724	
-0.970266	0.283528	-0.081252	-15.61	8.33	19.46	0.402	-0.167	-0.2632	
-0.969656	0.293898	-0.087474	-12.39	7.56	18.97	0.4035	-0.1702	-0.2663	
-0.963556	0.305122	-0.08295999	-14.91	7.7	18.34	0.4035	-0.1765	-0.2649	
-0.966606	0.302072	-0.081862	-16.45	6.23	16.1	0.4064	-0.1703	-0.2679	
-0.952332	0.317688	-0.091744	-14.7	5.81	13.65	0.4091	-0.1842	-0.2606	
-0.958798	0.324642	-0.083814	-18.13	5.74	13.16	0.3993	-0.1765	-0.2678	
-0.951966	0.320128	-0.082106	-12.04	5.25	12.6	0.3937	-0.1765	-0.2706	
-0.96258	0.323788	-0.08967	-7.49	4.06	10.5	0.4023	-0.1766	-0.2724	
-0.960506	0.325008	-0.083082	-6.79	3.22	11.27	0.3965	-0.1812	-0.2677	
-0.956724	0.324642	-0.076982	-9.17	2.73	9.73	0.4051	-0.1781	-0.271	
-0.94977	0.334402	-0.082228	-5.18	2.31	8.26	0.401	-0.1767	-0.2769	
-0.94184	0.33794	-0.080276	-5.88	2.94	8.75	0.4023	-0.1781	-0.2709	
-0.950868	0.335256	-0.078934	-5.6	3.71	9.45	0.401	-0.1892	-0.2756	
-0.94123	0.332694	-0.07808	-4.13	4.27	9.1	0.3922	-0.1796	-0.2676	
-0.948428	0.340014	-0.075884	-5.04	5.04	8.47	0.3952	-0.1876	-0.2738	
-0.94428	0.349652	-0.077104	-10.01	5.11	7.98	0.4021	-0.1828	-0.2664	
-0.94977	0.343674	-0.07625	-6.65	4.55	7.28	0.4037	-0.1829	-0.2725	
-0.95831	0.341966	-0.07381	-0.42	3.64	5.67	0.3995	-0.1907	-0.2725	
-0.948916	0.346358	-0.071126	-1.47	2.59	4.97	0.4066	-0.1922	-0.2713	
-0.944036	0.3538	-0.082472	-5.32	2.66	4.69	0.4048	-0.1905	-0.2591	
-0.944036	0.348188	-0.08418	-5.88	3.08	4.55	0.3977	-0.1905	-0.2603	
-0.950014	0.349164	-0.087718	-0.07	3.36	3.43	0.4007	-0.1906	-0.265	
-0.943548	0.35929	-0.09089	-0.49	3.64	2.94	0.4049	-0.1843	-0.2635	
-0.937326	0.361852	-0.095038	-5.18	4.2	3.43	0.4035	-0.1796	-0.2649	
-0.944158	0.367098	-0.087596	-8.33	4.55	2.59	0.3979	-0.189	-0.2679	
-0.9394	0.361364	-0.089792	-5.25	4.2	2.1	0.3993	-0.1921	-0.2665	
-0.947208	0.355996	-0.095892	-2.31	3.78	1.33	0.3961	-0.1842	-0.2572	
-0.945744	0.362706	-0.08784	-3.92	3.78	0.28	0.3979	-0.1953	-0.268	
-0.938668	0.363926	-0.09211	-4.55	3.29	-0.63	0.3905	-0.1889	-0.2586	
-0.950868	0.362462	-0.087596	-1.75	2.38	-0.84	0.3977	-0.1873	-0.2603	
-0.945134	0.357826	-0.098454	-0.84	2.1	-0.42	0.3992	-0.1937	-0.2635	
-0.94672	0.3538	-0.094428	-3.15	2.31	-0.07	0.4008	-0.1859	-0.2679	
-0.944646	0.352946	-0.090646	-1.75	1.61	-1.33	0.405	-0.1937	-0.2667	
-0.941596	0.367952	-0.101016	-2.66	1.61	-2.38	0.4033	-0.1936	-0.256	
-0.928298	0.364292	-0.106506	-3.64	1.61	-2.17	0.4064	-0.1968	-0.2637	
-0.944646	0.357338	-0.10614	-2.03	1.54	-2.24	0.4037	-0.1781	-0.2709	
-0.960384	0.353678	-0.098698	0.14	0.91	-3.43	0.3965	-0.1906	-0.2679	
-0.949648	0.34465	-0.091012	-2.94	0.98	-3.08	0.3978	-0.1937	-0.2634	
-0.946964	0.35197	-0.091378	-3.43	0.49	-3.99	0.3893	-0.1874	-0.2661	
-0.937204	0.360754	-0.094062	-3.64	0	-4.9	0.3965	-0.1906	-0.2694	
-0.950624	0.359046	-0.10004	0.49	-0.84	-5.81	0.3952	-0.186	-0.2723	
-0.957822	0.346602	-0.098332	-1.54	-0.7	-6.16	0.4007	-0.1781	-0.2663	
-0.955626	0.34526	-0.09162199	-3.71	-1.61	-7.07	0.3935	-0.1827	-0.2631	
-0.958188	0.3416	-0.094062	-6.02	-2.1	-7.07	0.4004	-0.1795	-0.2572	
-0.953796	0.340014	-0.099186	-7.42	-3.01	-7.84	0.4107	-0.1859	-0.2652	
-0.96258	0.348798	-0.102236	-10.71	-3.99	-9.17	0.3994	-0.1859	-0.2694	
-0.965386	0.336476	-0.099918	-13.09	-5.11	-10.43	0.4077	-0.1764	-0.262	
-0.96136	0.33306	-0.094794	-14.91	-5.95	-12.88	0.4007	-0.1702	-0.2662	
-0.962214	0.328912	-0.083204	-11.69	-7.21	-14.98	0.4022	-0.1765	-0.2694	
-0.962092	0.323788	-0.08235	-7.49	-8.19	-16.03	0.4026	-0.1689	-0.2829	
-0.965386	0.319762	-0.081496	-7.35	-8.82	-17.85	0.4067	-0.1657	-0.2784	
-0.962702	0.321348	-0.081984	-6.3	-8.89	-19.88	0.407	-0.1627	-0.2875	
-0.959774	0.313296	-0.070028	-5.6	-9.24	-20.72	0.4009	-0.161	-0.2751	
-0.955504	0.305244	-0.063318	0.49	-9.31	-22.19	0.4166	-0.1532	-0.2755	
-0.955504	0.300852	-0.063806	-0.91	-9.59	-22.54	0.4037	-0.15	-0.2751	
-0.956236	0.303658	-0.065392	0.14	-8.82	-24.64	0.4152	-0.1422	-0.2768	
-0.94855	0.285724	-0.060756	2.1	-8.26	-25.13	0.4154	-0.1486	-0.2815	
-0.97234	0.294142	-0.060146	12.04	-6.65	-26.11	0.4139	-0.1407	-0.2798	
-0.97051	0.266692	-0.048556	8.26	-5.53	-25.48	0.4069	-0.1408	-0.2841	
-0.984296	0.254126	-0.050996	8.47	-2.73	-25.06	0.4168	-0.1251	-0.2842	
-0.984174	0.23668	-0.03355	6.51	-3.36	-25.62	0.4124	-0.1188	-0.2809	
-0.993446	0.21899	-0.043676	11.34	-3.57	-26.25	0.4124	-0.1344	-0.2796	
-0.99674	0.202886	-0.052948	13.23	-3.15	-26.39	0.4187	-0.1269	-0.2994	
-1.000888	0.211182	-0.038796	6.72	-3.01	-26.81	0.4139	-0.1189	-0.284	
-0.984418	0.182146	-0.039528	6.16	-3.5	-26.25	0.4157	-0.1222	-0.2962	
-1.000034	0.184464	-0.034404	11.27	-3.78	-26.18	0.4113	-0.1189	-0.2899	
-0.998204	0.156404	-0.030988	9.24	-5.81	-25.69	0.4227	-0.1143	-0.2918	
-1.010526	0.150426	-0.026474	14.56	-6.79	-26.88	0.4212	-0.1111	-0.2871	
-0.996252	0.127368	-0.030378	16.31	-7	-25.9	0.4255	-0.1049	-0.2887	
-0.998204	0.145912	-0.037454	13.16	-6.72	-27.09	0.4211	-0.1095	-0.2871	
-1.009916	0.140788	-0.029768	7.14	-6.3	-27.86	0.4169	-0.1048	-0.2884	
-1.009794	0.135542	-0.030988	7.49	-7.49	-28.35	0.4257	-0.09869999	-0.2962	
-0.999668	0.124562	-0.032208	7.42	-7.42	-27.16	0.42	-0.1081	-0.2961	
-1.011014	0.117852	-0.040382	12.6	-6.86	-26.53	0.4282	-0.0861	-0.287	
-1.013576	0.115778	-0.036112	4.06	-7.49	-25.06	0.424	-0.0829	-0.2883	
-1.01626	0.112484	-0.049654	-3.29	-7.14	-25.13	0.4299	-0.0893	-0.2961	
-1.013454	0.103456	-0.04087	-7.63	-9.66	-25.97	0.4329	-0.0753	-0.2991	
-1.015528	0.086498	-0.040992	-10.92	-8.75	-24.64	0.429	-0.0661	-0.3124	
-1.01565	0.060024	-0.025376	-12.88	-9.73	-23.8	0.4231	-0.07539999	-0.3078	
-1.016626	0.06222	-0.038552	-9.45	-9.24	-25.13	0.4287	-0.0769	-0.302	
-1.016626	0.049532	-0.023546	-10.57	-10.36	-25.34	0.4256	-0.058	-0.297	
-1.014186	0.065514	-0.015616	-6.79	-11.62	-28.07	0.4271	-0.0612	-0.3002	
-1.023824	0.05063	-0.008174	-0.77	-11.34	-25.27	0.4258	-0.0581	-0.3046	
-1.021872	0.034038	0.008296	3.57	-11.97	-23.94	0.4146	-0.041	-0.3131	
-1.00711	0.020618	0.012688	6.16	-13.3	-23.87	0.4343	-0.0519	-0.3018	
-1.004304	0.020984	0.015616	6.09	-13.3	-24.29	0.4261	-0.0505	-0.3136	
-0.999912	0.010736	0.022936	6.09	-12.46	-23.87	0.4202	-0.0316	-0.3086	
-1.007598	0.010492	0.022814	10.43	-11.9	-24.01	0.4318	-0.0395	-0.3136	
-1.009672	-0.00671	0.029646	6.51	-12.53	-24.85	0.4333	-0.0333	-0.3181	
-1.00467	-0.037698	0.033428	7.84	-12.6	-25.97	0.422	-0.0349	-0.3193	
-1.01565	-0.037576	0.04392	16.94	-12.11	-24.99	0.4233	-0.0317	-0.3177	
-1.009306	-0.04453	0.05246	18.27	-12.88	-25.06	0.4335	-0.0272	-0.3241	
-1.014796	-0.043798	0.039406	18.13	-12.18	-23.45	0.4192	-0.0255	-0.3221	
-1.009062	-0.063196	0.054656	11.13	-11.76	-23.94	0.4208	-0.0241	-0.3297	
-1.026752	-0.080642	0.056608	4.34	-12.04	-23.52	0.4162	-0.0161	-0.3203	
-1.005158	-0.084668	0.055266	1.89	-12.18	-22.82	0.4151	-0.0022	-0.3306	
-1.003694	-0.079178	0.046482	-5.11	-11.97	-22.89	0.4164	-0.0005	-0.3276	
-0.990152	-0.08357	0.057096	-9.94	-10.64	-24.01	0.4179	-0.0037	-0.3308	
-0.988566	-0.10858	0.085156	-10.57	-10.92	-24.78	0.4236	-0.0022	-0.3294	
-0.994666	-0.118218	0.066856	-10.43	-10.36	-24.43	0.421	0.007	-0.3383	
-0.993202	-0.13359	0.090524	-6.09	-12.53	-27.44	0.4182	0.0054	-0.3397	
-0.999546	-0.152012	0.09394	-0.42	-12.39	-27.65	0.414	0.0069	-0.3441	
-1.013088	-0.149084	0.084058	1.26	-12.95	-26.53	0.4127	0.0116	-0.347	
-1.003084	-0.14945	0.09821	0.35	-12.95	-24.85	0.4153	0.008599999	-0.3396	
-0.991616	-0.114802	0.090036	13.37	-11.97	-20.16	0.4155	0.0132	-0.344	
-0.986858	-0.181536	0.104676	5.04	-12.67	-21.84	0.4084	0.0163	-0.3453	
-0.98149	-0.201178	0.136518	2.1	-13.58	-25.41	0.414	0.032	-0.3452	
-0.975756	-0.193492	0.121146	2.1	-14.42	-21.42	0.4085	0.0287	-0.3527	
-0.988078	-0.17568	0.102846	-2.66	-15.33	-19.46	0.4057	0.0303	-0.3541	
-0.98515	-0.17202	0.133468	-6.79	-15.82	-19.53	0.4029	0.0396	-0.3568	
-0.984052	-0.188124	0.128222	-2.17	-15.68	-20.09	0.4057	0.0397	-0.3524	
-0.983808	-0.220576	0.125294	-0.14	-15.12	-20.23	0.3969	0.0555	-0.3473	
-0.984296	-0.213378	0.13603	-2.45	-15.05	-20.37	0.4015	0.0412	-0.3553	
-0.98942	-0.231312	0.143228	0.49	-14	-18.69	0.413	0.0505	-0.36	
-0.964044	-0.233142	0.141154	0.07	-13.79	-18.2	0.3989	0.0489	-0.3641	
-0.979294	-0.23851	0.155428	-0.21	-12.11	-17.64	0.4046	0.0583	-0.3657	
-0.975878	-0.243634	0.15433	1.75	-11.76	-15.68	0.3929	0.0647	-0.3561	
-0.97234	-0.24095	0.169702	1.82	-11.2	-13.93	0.3903	0.0584	-0.3637	
-0.97478	-0.248758	0.169092	4.97	-10.15	-14.63	0.4019	0.066	-0.3715	
-0.975146	-0.24583	0.176046	2.94	-10.36	-14.07	0.3904	0.0692	-0.3681	
-0.971974	-0.245708	0.165188	3.57	-10.64	-12.88	0.3849	0.0691	-0.377	
-0.969412	-0.261934	0.18483	2.03	-10.64	-11.13	0.3876	0.0567	-0.3712	
-0.947696	-0.264252	0.175436	2.8	-10.64	-11.27	0.3917	0.0615	-0.3652	
-0.95282	-0.264252	0.178608	1.47	-10.57	-11.2	0.3892	0.066	-0.3772	
-0.948916	-0.275964	0.1952	-0.49	-9.94	-10.78	0.3877	0.0691	-0.3756	
-0.946354	-0.283284	0.201056	1.68	-8.61	-12.18	0.3851	0.0706	-0.383	
-0.94428	-0.286456	0.202642	1.82	-7.14	-12.11	0.3862	0.0676	-0.3725	
-0.938424	-0.28121	0.198006	0.35	-6.51	-12.46	0.3793	0.0769	-0.3797	
-0.93269	-0.292678	0.19886	-1.33	-6.23	-10.64	0.385	0.0691	-0.38	
-0.948306	-0.310124	0.204716	-2.52	-4.55	-11.9	0.3837	0.0768	-0.3844	
-0.953796	-0.295484	0.204472	-1.89	-4.9	-9.73	0.3806	0.0739	-0.3753	
-0.95526	-0.293776	0.205936	1.05	-4.97	-11.34	0.3838	0.0768	-0.3859	
-0.955992	-0.30195	0.20801	1.89	-4.13	-8.47	0.3823	0.0721	-0.3859	
-0.941718	-0.322324	0.20435	1.89	-3.64	-5.88	0.3795	0.0737	-0.3873	
-0.946354	-0.319396	0.205326	0.98	-2.52	-6.16	0.3738	0.0721	-0.3872	
-0.934276	-0.313906	0.21106	1.19	-2.8	-6.86	0.3724	0.0893	-0.3899	
-0.939034	-0.305732	0.207522	1.19	-2.52	-7.28	0.3651	0.0753	-0.3838	
-0.933788	-0.310246	0.220576	0.21	-2.31	-6.16	0.3738	0.0909	-0.3869	
-0.932446	-0.322446	0.207644	1.05	-1.4	-6.37	0.3736	0.0894	-0.3824	
-0.933788	-0.317566	0.21228	0.98	-1.4	-6.86	0.3737	0.094	-0.3868	
-0.940254	-0.306342	0.212524	-0.56	-0.7	-6.09	0.3906	0.0801	-0.377	
-0.92659	-0.313418	0.215574	0.63	0	-5.6	0.3693	0.0957	-0.3806	
-0.921832	-0.3294	0.216184	1.82	0.49	-6.09	0.3756	0.0813	-0.3992	
-0.924516	-0.340624	0.213866	2.45	0.7	-5.88	0.3797	0.0861	-0.3932	
-0.937082	-0.344894	0.216062	1.19	0.91	-5.11	0.3795	0.0815	-0.3872	
-0.937448	-0.334402	0.215696	1.33	1.26	-3.85	0.3678	0.0879	-0.3792	
-0.938424	-0.330498	0.216306	2.24	0.98	-4.69	0.3807	0.091	-0.3811	
-0.934276	-0.33245	0.216794	3.71	1.05	-4.06	0.3749	0.0958	-0.3778	
-0.937082	-0.33062	0.207522	4.2	1.26	-3.64	0.3736	0.091	-0.3824	
-0.932812	-0.33916	0.195688	4.76	0.42	-2.24	0.3723	0.0925	-0.3868	
-0.934032	-0.336598	0.197518	3.01	0.77	-1.96	0.3721	0.091	-0.3793	
-0.93696	-0.330254	0.203374	2.38	1.05	-1.89	0.3752	0.0847	-0.3855	
-0.943914	-0.335134	0.199714	2.8	0.98	-0.42	0.3709	0.0816	-0.3854	
-0.933422	-0.336964	0.192882	3.43	0.42	0.49	0.3696	0.08769999	-0.3898	
-0.933544	-0.335622	0.203252	2.94	0.49	-0.21	0.374	0.0861	-0.3945	
-0.93452	-0.346236	0.204594	3.22	0.49	0.49	0.378	0.0909	-0.387	
-0.928298	-0.341234	0.202154	4.06	0.7	0.28	0.3766	0.0878	-0.3855	
-0.934154	-0.32696	0.204106	3.85	1.19	-0.42	0.3838	0.0893	-0.3872	
-0.928176	-0.330742	0.207522	4.62	1.19	0.56	0.3824	0.0814	-0.3903	
-0.92903	-0.332938	0.213012	3.64	0.91	1.33	0.3737	0.0769	-0.3826	
-0.931836	-0.32818	0.211182	1.68	0.28	0.91	0.3838	0.0831	-0.3873	
-0.937448	-0.326472	0.21411	2.17	0.28	0.63	0.3739	0.0955	-0.3929	
-0.934276	-0.328912	0.205936	2.03	0.35	0.84	0.378	0.09559999	-0.3854	
-0.933056	-0.33245	0.21594	1.19	0.49	1.26	0.3836	0.0816	-0.3798	
-0.93025	-0.335012	0.216306	0.84	0.28	1.4	0.3791	0.0895	-0.375	
-0.937814	-0.328058	0.209718	0.21	0.56	1.82	0.378	0.08	-0.3857	
-0.941596	-0.321714	0.210816	0.42	1.33	2.66	0.3765	0.0847	-0.3841	
-0.94123	-0.324764	0.207644	2.52	1.68	4.13	0.3853	0.0861	-0.3904	
-0.955138	-0.31964	0.211304	2.94	1.96	5.32	0.3779	0.0769	-0.3812	
-0.947208	-0.310124	0.209962	4.34	2.38	7.21	0.3811	0.0846	-0.3918	
-0.949648	-0.317688	0.20008	5.53	3.57	8.96	0.371	0.0815	-0.39	
-0.945256	-0.323178	0.204594	4.9	4.62	10.57	0.378	0.0831	-0.3856	
-0.934642	-0.310734	0.200324	5.25	4.83	11.55	0.3651	0.07539999	-0.3823	
-0.937204	-0.300852	0.204838	4.97	5.32	12.81	0.3736	0.0706	-0.3812	
-0.936838	-0.297192	0.213866	5.25	5.74	13.72	0.3751	0.0706	-0.3812	
-0.932446	-0.28792	0.207156	5.39	6.3	14.35	0.382	0.0645	-0.3739	
-0.941108	-0.274012	0.214354	3.5	5.74	14.14	0.3792	0.0738	-0.3783	
-0.944524	-0.28853	0.204228	1.47	6.37	14.35	0.3865	0.06439999	-0.3801	
-0.94123	-0.285968	0.195566	-0.84	8.05	14	0.378	0.0675	-0.3829	
-0.93818	-0.286822	0.198616	-4.76	10.85	13.86	0.379	0.063	-0.3709	
-0.94489	-0.271572	0.191418	-5.25	12.88	14	0.3905	0.0582	-0.3713	
-0.943182	-0.287798	0.214842	-7.07	13.93	16.31	0.389	0.063	-0.3697	
-0.933544	-0.27389	0.192516	-8.19	13.23	18.62	0.392	0.06439999	-0.3758	
-0.970144	-0.271816	0.184342	-5.11	12.74	21.84	0.3861	0.0552	-0.3682	
-0.975512	-0.270962	0.168482	-3.99	14.28	23.1	0.3943	0.0585	-0.3563	
-0.97051	-0.279136	0.164212	-6.93	15.47	24.71	0.4046	0.0536	-0.3658	
-0.962824	-0.259006	0.156648	-7	16.45	25.48	0.397	0.0523	-0.3504	
-0.959652	-0.259128	0.152256	-9.38	16.66	26.32	0.3986	0.0428	-0.3536	
-0.956114	-0.263886	0.168238	-8.05	16.66	27.02	0.4043	0.0365	-0.3554	
-0.94977	-0.250954	0.161284	-3.43	12.6	29.05	0.4069	0.0367	-0.3449	
-0.984052	-0.225944	0.152744	-2.66	12.25	28.21	0.3968	0.0461	-0.3429	
-0.986004	-0.215452	0.138226	1.26	13.3	28.28	0.4083	0.0429	-0.3464	
-0.967094	-0.210816	0.12078	5.39	13.37	27.58	0.4069	0.0351	-0.3449	
-0.97478	-0.185806	0.115168	3.78	14.21	27.58	0.4155	0.021	-0.3454	
-0.973926	-0.16836	0.095648	-0.07	14.84	28.84	0.417	0.0272	-0.3499	
-0.994666	-0.164456	0.110288	-7.91	18.41	30.66	0.4069	0.0179	-0.3437	
-1.00345	-0.129198	0.099552	-6.02	17.36	29.47	0.4123	0.0243	-0.3347	
-1.007354	-0.121756	0.083448	-4.83	15.12	32.13	0.4109	0.004	-0.335	
-1.006256	-0.141764	0.061122	0.42	15.82	33.81	0.4168	0.0116	-0.3426	
-1.005036	-0.138836	0.057828	0.63	16.87	33.25	0.4096	-0.0007	-0.338	
-1.027728	-0.104798	0.058438	-0.7	17.36	31.36	0.4177	-0.0098	-0.3218	
-1.017602	-0.061732	0.052216	-4.41	17.29	31.36	0.415	-0.0068	-0.3277	
-0.999546	-0.028548	0.04209	-11.55	14.63	30.52	0.4153	-0.0148	-0.3369	
-1.014918	-0.027572	0.060756	-13.16	14.91	32.9	0.4182	-0.032	-0.3373	
-1.00345	-0.02562	0.04697	-3.15	14	34.37	0.4177	-0.0271	-0.3205	
-1.020408	-0.023058	0.061976	1.26	12.74	38.15	0.4245	-0.0159	-0.31	
-1.023092	-0.018544	0.045994	19.18	12.67	38.71	0.416	-0.0285	-0.3129	
-1.013332	0.001464	0.037454	20.02	15.61	38.71	0.4217	-0.052	-0.3104	
-1.016382	0.016226	0.044408	10.57	16.8	38.22	0.4244	-0.0472	-0.3059	
-1.009306	0.026718	0.041602	14.35	14.56	35.91	0.4118	-0.0504	-0.3131	
-1.008086	0.049044	0.036234	15.96	13.79	33.67	0.4102	-0.0581	-0.3071	
-1.01504	0.056974	0.017568	16.87	12.32	32.06	0.4214	-0.0784	-0.2987	
-1.015772	0.095648	-0.000976	10.15	12.18	30.66	0.4214	-0.0878	-0.2974	
-1.002352	0.105652	0.013786	9.24	11.62	32.06	0.4214	-0.0752	-0.2972	
-1.01077	0.101992	0.014152	16.38	12.25	32.27	0.4228	-0.0862	-0.2959	
-1.005646	0.090402	0.008417999	18.41	12.39	31.22	0.4155	-0.0986	-0.2898	
-1.003084	0.113826	-0.017324	16.8	11.9	29.89	0.4255	-0.09079999	-0.2915	
-1.003328	0.113094	-0.011468	7.07	11.27	29.75	0.4272	-0.1019	-0.2978	
-1.005402	0.129686	-0.023058	8.54	10.85	28.77	0.4241	-0.1065	-0.2902	
-1.020774	0.125782	-0.034404	0.42	12.46	30.31	0.4213	-0.1081	-0.2931	
-1.010892	0.165432	-0.052338	-12.46	11.69	30.73	0.4154	-0.1142	-0.284	
-1.002596	0.165676	-0.053558	-20.79	10.57	30.52	0.4138	-0.1172	-0.2809	
-0.995642	0.173362	-0.042334	-23.24	10.57	30.24	0.4169	-0.1158	-0.2871	
-1.004304	0.176046	-0.041114	-16.38	9.73	30.52	0.4138	-0.1203	-0.2779	
-1.000888	0.149206	-0.038552	-9.73	9.24	29.89	0.4212	-0.1236	-0.2873	
-0.995764	0.174338	-0.051484	-0.14	9.03	27.44	0.417	-0.1331	-0.2903	
-0.995032	0.205082	-0.080398	-6.72	7.91	27.44	0.4198	-0.1393	-0.2875	
-0.98088	0.227652	-0.055754	-18.9	8.82	26.67	0.4152	-0.1407	-0.2783	
-0.988444	0.211304	-0.052338	-18.55	8.82	26.25	0.4155	-0.144	-0.2859	
-0.995154	0.223748	-0.043188	-14.07	9.52	24.22	0.4127	-0.1487	-0.2874	
-0.989542	0.241194	-0.034282	-14.21	7.49	20.79	0.4155	-0.1533	-0.2846	
-0.983564	0.252174	-0.086132	-15.12	6.93	21.56	0.4154	-0.1549	-0.2831	
-0.977586	0.266448	-0.060146	-16.38	7.84	21.28	0.4053	-0.1501	-0.2781	
-0.978806	0.274134	-0.05246	-15.89	6.44	19.74	0.4123	-0.1469	-0.2738	
-0.980148	0.262666	-0.04331	-10.01	6.44	19.67	0.4141	-0.1659	-0.2862	
-0.983076	0.264496	-0.045506	-10.29	6.16	18.97	0.4069	-0.1486	-0.2842	
-0.971608	0.284626	-0.060512	-11.62	4.34	17.57	0.4166	-0.1579	-0.2756	
-0.958432	0.282552	-0.057706	-12.88	4.55	17.22	0.4081	-0.161	-0.2754	
-0.972584	0.296704	-0.047214	-23.31	6.09	17.36	0.404	-0.1611	-0.2828	
-0.95709	0.291214	-0.047458	-14.14	5.11	15.54	0.4054	-0.1705	-0.2815	
-0.968314	0.315736	-0.054656	-11.48	3.99	13.58	0.3996	-0.161	-0.2781	
-0.954284	0.323666	-0.046482	-15.75	3.99	13.51	0.3981	-0.1719	-0.2767	
-0.95526	0.323544	-0.048556	-10.01	4.62	13.58	0.4023	-0.1641	-0.2737	
-0.958554	0.33306	-0.053558	-10.85	4.76	13.65	0.4097	-0.1752	-0.2802	
-0.944524	0.3355	-0.06039	-12.67	5.18	14	0.4011	-0.1798	-0.28	
-0.956846	0.333548	-0.05795	-15.96	5.6	13.51	0.4027	-0.1737	-0.2875	
-0.959774	0.340868	-0.05246	-17.01	5.74	12.95	0.4027	-0.1721	-0.2844	
-0.947696	0.343674	-0.042578	-14.98	5.88	13.37	0.3998	-0.1689	-0.2843	
-0.945988	0.33977	-0.050996	-15.12	5.53	12.88	0.3956	-0.1815	-0.2874	
-0.942084	0.348798	-0.05612	-16.45	5.81	11.34	0.3983	-0.1752	-0.2828	
-0.941108	0.357704	-0.046116	-13.09	5.46	10.78	0.4025	-0.1845	-0.2771	
-0.951478	0.35075	-0.052948	-10.08	5.32	10.64	0.3967	-0.1719	-0.2752	
-0.954284	0.354532	-0.054046	-8.96	5.25	9.73	0.3999	-0.1784	-0.2875	
-0.947208	0.35746	-0.060146	-9.1	4.97	9.66	0.4009	-0.1766	-0.2739	
-0.945988	0.360632	-0.04941	-10.36	4.9	9.24	0.3925	-0.1845	-0.2767	
-0.9394	0.371246	-0.055754	-12.18	4.62	7.91	0.3939	-0.172	-0.2781	
-0.937448	0.368684	-0.056852	-7.56	3.85	7.21	0.4067	-0.1673	-0.2784	
-0.941108	0.379786	-0.048068	-8.33	3.99	5.6	0.3895	-0.175	-0.275	
-0.941108	0.384422	-0.05856	-5.74	3.99	4.34	0.4027	-0.194	-0.2833	
-0.928908	0.372832	-0.053924	-4.34	4.2	4.2	0.3997	-0.1767	-0.2814	
-0.92903	0.384666	-0.061976	-2.38	3.85	2.73	0.3997	-0.1798	-0.2799	
-0.931958	0.386008	-0.058072	-2.52	3.92	2.59	0.3981	-0.1766	-0.2768	
-0.924028	0.391132	-0.063318	-4.06	3.99	2.31	0.4012	-0.183	-0.2815	
-0.933178	0.398208	-0.067588	-6.44	4.41	2.45	0.3924	-0.1891	-0.2753	
-0.92781	0.392352	-0.061854	-6.02	4.2	1.75	0.3982	-0.1782	-0.2783	
-0.934154	0.397354	-0.066978	-3.43	3.78	1.68	0.3952	-0.1766	-0.2722	
-0.936228	0.389302	-0.057218	-1.19	3.43	1.26	0.3898	-0.1814	-0.2827	
-0.93574	0.385154	-0.057584	-0.77	2.66	0.91	0.3912	-0.1767	-0.2826	
-0.925126	0.380152	-0.063074	1.12	2.52	0.84	0.3885	-0.1831	-0.2872	
-0.934886	0.391254	-0.071126	1.33	2.1	0.49	0.3938	-0.1813	-0.2737	
-0.930372	0.383934	-0.074908	-1.33	2.03	1.05	0.3924	-0.1719	-0.2765	
-0.93879	0.388326	-0.067832	-1.75	1.82	0.49	0.408	-0.1828	-0.2712	
-0.941718	0.381982	-0.078812	-0.14	1.82	0.35	0.3995	-0.1751	-0.2753	
-0.937326	0.381006	-0.078202	-2.38	1.75	0.28	0.4012	-0.1893	-0.2816	
-0.93696	0.382592	-0.076006	-0.21	1.75	0.49	0.3923	-0.1766	-0.2721	
-0.934886	0.383446	-0.0793	-1.82	2.1	1.4	0.3925	-0.1829	-0.2782	
-0.938668	0.381616	-0.08479	-2.03	2.1	1.12	0.3922	-0.1843	-0.2692	
-0.940132	0.370636	-0.07503	-1.12	1.89	1.12	0.4039	-0.1798	-0.2785	
-0.939522	0.376858	-0.075274	-1.68	1.4	0.56	0.3868	-0.1814	-0.2795	
-0.948184	0.382104	-0.080154	-2.1	1.19	0.84	0.4041	-0.1784	-0.2861	
-0.94794	0.391986	-0.077226	-4.76	0.98	0.84	0.3997	-0.1783	-0.2814	
-0.937204	0.386984	-0.07515199	-5.67	0.42	0.7	0.4023	-0.1735	-0.2739	
-0.934886	0.391498	-0.07076	-1.75	-0.63	-0.98	0.3939	-0.1845	-0.2768	
-0.934154	0.38308	-0.069662	0.07	-1.19	-2.1	0.4052	-0.175	-0.2725	
-0.945622	0.38308	-0.071492	0.14	-1.33	-2.8	0.4055	-0.1768	-0.2846	
-0.939278	0.381616	-0.062342	-2.31	-1.47	-2.73	0.3941	-0.1909	-0.2844	
-0.931836	0.386496	-0.069052	-2.94	-1.82	-3.64	0.4113	-0.1784	-0.2878	
-0.926956	0.393694	-0.06527	-6.09	-0.77	-3.99	0.3942	-0.1799	-0.2873	
-0.933178	0.40077	-0.065636	-7.63	-0.77	-4.06	0.397	-0.1768	-0.2843	
-0.938424	0.385032	-0.05612	-5.95	-1.12	-5.95	0.394	-0.1689	-0.2811	
-0.949526	0.38186	-0.056242	-7.7	-1.47	-7.21	0.4012	-0.1736	-0.2844	
-0.940376	0.381494	-0.051606	-9.8	-2.8	-8.33	0.3995	-0.1751	-0.2753	
-0.949526	0.372466	-0.06466	-2.66	-5.39	-11.2	0.4012	-0.1705	-0.2844	
-0.950258	0.370392	-0.066368	-0.28	-6.44	-14.84	0.3999	-0.1768	-0.2859	
-0.9333	0.361852	-0.06527	0.49	-6.37	-15.96	0.3942	-0.1643	-0.2901	
-0.93818	0.368074	-0.054778	5.32	-6.3	-19.74	0.4028	-0.1643	-0.2904	
-0.925492	0.353678	-0.069296	10.57	-6.65	-19.95	0.3983	-0.1642	-0.2827	
-0.929762	0.356118	-0.064294	8.47	-5.25	-20.79	0.4012	-0.1517	-0.2856	
-0.937692	0.355264	-0.05368	15.89	-5.67	-22.47	0.4023	-0.1422	-0.2764	
-0.948672	0.356484	-0.05917	22.4	-6.86	-24.57	0.4042	-0.1456	-0.2901	
-0.943426	0.35563	-0.061488	21.84	-8.05	-25.9	0.4068	-0.1517	-0.2812	
-0.958432	0.344894	-0.058926	24.22	-8.82	-25.48	0.4058	-0.1566	-0.2949	
-0.960994	0.327692	-0.055876	28.14	-10.78	-25.2	0.4054	-0.147	-0.2826	
-0.965752	0.31476	-0.053314	18.76	-10.15	-23.03	0.4125	-0.1423	-0.2828	
-0.962946	0.299144	-0.054046	17.36	-9.45	-23.45	0.4055	-0.1486	-0.2872	
-0.971608	0.291214	-0.0427	16.31	-10.71	-25.9	0.4038	-0.1532	-0.2781	
-0.97539	0.283162	-0.053436	23.03	-11.62	-28.63	0.4109	-0.1313	-0.278	
-0.985272	0.272182	-0.039284	18.06	-11.13	-30.03	0.4054	-0.1298	-0.2839	
-0.976976	0.246196	-0.02623	16.03	-10.71	-30.52	0.4113	-0.1471	-0.2889	
-0.970022	0.226554	-0.030012	21.28	-9.1	-31.99	0.4156	-0.13	-0.2918	
-0.989786	0.241926	-0.033428	10.99	-6.79	-34.93	0.4124	-0.1266	-0.281	
-0.988078	0.221308	-0.031354	3.57	-7.21	-34.37	0.4172	-0.1222	-0.2978	
-0.989908	0.194224	-0.025986	5.39	-4.55	-33.32	0.4144	-0.105	-0.2989	
-0.98149	0.17507	-0.027572	11.55	-2.24	-33.6	0.4198	-0.1049	-0.2915	
-0.994422	0.177022	-0.031354	12.11	-1.05	-34.16	0.4226	-0.1001	-0.287	
-0.997594	0.14884	-0.033916	9.52	-0.84	-32.34	0.424	-0.097	-0.2885	
-1.026142	0.155306	-0.028182	1.54	-5.67	-32.55	0.4157	-0.1065	-0.296	
-0.993934	0.114802	-0.024156	-2.17	-6.16	-31.36	0.4269	-0.0955	-0.2901	
-1.00162	0.111996	-0.052704	-0.56	-4.69	-32.2	0.4241	-0.0783	-0.2912	
-0.995398	0.10309	-0.038674	-13.02	-3.36	-32.9	0.4288	-0.0895	-0.3067	
-1.02053	0.10858	-0.010614	-14.07	-1.96	-35.7	0.4256	-0.0784	-0.2958	
-1.016504	0.069784	-0.011712	-14.91	-3.78	-36.19	0.4242	-0.0674	-0.2971	
-1.013698	0.074176	-0.00366	-18.13	-5.95	-37.45	0.4286	-0.0675	-0.3003	
-1.013942	0.076982	-0.009028	-16.45	-7.63	-35.91	0.4269	-0.0486	-0.2939	
-1.007842	0.056852	-0.041968	-21.42	-10.01	-35.21	0.4311	-0.0501	-0.2895	
-1.026996	0.043554	-0.026962	-19.46	-7.77	-33.81	0.4286	-0.0393	-0.3014	
-1.030534	0.030622	-0.005002	-15.33	-6.51	-31.08	0.43	-0.044	-0.3015	
-1.031266	0.020618	0.017568	-8.68	-7.07	-30.87	0.4343	-0.0253	-0.3029	
-1.011624	0.018544	0.028304	-13.16	-8.75	-29.68	0.4258	-0.019	-0.307	
-0.998082	0.005734	0.010736	-11.13	-8.68	-29.4	0.4302	-0.0191	-0.3102	
-0.990884	-0.013054	0.016104	-8.33	-8.47	-29.54	0.43	-0.0174	-0.3026	
-0.98576	-0.021716	0.004636	-9.94	-5.95	-30.17	0.4246	-0.0144	-0.3145	
-0.995886	-0.021716	0.011346	-4.41	-5.53	-31.08	0.4345	-0.0019	-0.3131	
-1.011624	-0.037942	0.022814	-8.68	-5.11	-30.52	0.4227	0.0045	-0.299	
-1.025776	-0.058682	0.022936	-1.26	-6.09	-32.97	0.4176	-0.0004	-0.3186	
-1.023092	-0.081374	0.00488	3.99	-7.07	-31.92	0.4305	0.0072	-0.3219	
-1.009062	-0.107482	0.02196	4.62	-9.66	-33.95	0.4376	0.0135	-0.3205	
-0.99735	-0.091256	-0.00488	7.14	-10.92	-37.03	0.4233	0.023	-0.3199	
-1.01992	-0.06649	0.002928	-1.61	-10.85	-37.8	0.416	0.0262	-0.3151	
-1.028094	-0.079544	0.021838	6.16	-10.71	-34.16	0.4262	0.0323	-0.3229	
-0.991616	-0.113338	0.026474	13.51	-12.18	-32.69	0.4215	0.0294	-0.3092	
-0.997716	-0.13603	0.035136	17.64	-11.62	-32.41	0.4204	0.0433	-0.321	
-0.990884	-0.144814	0.041602	12.95	-12.32	-29.61	0.4218	0.0433	-0.3211	
-1.00528	-0.151036	0.031964	11.27	-11.55	-31.29	0.4232	0.0402	-0.3197	
-1.01321	-0.156526	0.067222	7.77	-11.97	-30.03	0.4263	0.0479	-0.3287	
-1.002108	-0.17263	0.065148	16.59	-12.32	-28.98	0.4136	0.0509	-0.3343	
-0.985272	-0.180804	0.066978	18.62	-12.11	-29.33	0.4136	0.0557	-0.3327	
-0.98515	-0.183244	0.08906	16.1	-12.39	-24.22	0.4123	0.0603	-0.3372	
-0.99064	-0.17629	0.096624	15.89	-9.73	-24.71	0.4154	0.0539	-0.3449	
-0.97661	-0.194712	0.058194	15.61	-12.25	-22.33	0.4099	0.0538	-0.3523	
-1.00162	-0.216916	0.089548	5.88	-10.71	-24.29	0.4112	0.0617	-0.3477	
-0.990762	-0.216428	0.079178	1.89	-13.02	-28.07	0.4082	0.0633	-0.3445	
-0.991738	-0.244976	0.089182	-4.13	-14.84	-26.67	0.4126	0.0679	-0.3492	
-0.973438	-0.243268	0.113216	-7.7	-15.75	-26.53	0.4043	0.0819	-0.3578	
-0.974414	-0.279624	0.103334	-3.08	-16.31	-25.27	0.3999	0.0757	-0.3532	
-0.972096	-0.28609	0.112972	-0.63	-15.12	-22.12	0.3927	0.0883	-0.3512	
-0.959652	-0.297802	0.081618	0.14	-13.86	-20.79	0.393	0.0975	-0.3617	
-0.970754	-0.311954	0.111508	0.35	-12.6	-19.11	0.3955	0.0977	-0.3527	
-0.944768	-0.319518	0.108458	3.29	-12.18	-18.62	0.393	0.0928	-0.3618	
-0.950746	-0.314516	0.12444	0.63	-10.64	-18.55	0.3887	0.0819	-0.3603	
-0.962458	-0.316834	0.121146	1.47	-10.57	-18.97	0.3989	0.1005	-0.3694	
-0.966484	-0.310124	0.149206	2.24	-10.43	-18.34	0.3903	0.09119999	-0.3678	
-0.963678	-0.31537	0.150304	1.89	-10.29	-17.29	0.3932	0.1037	-0.3707	
-0.954162	-0.317078	0.137738	2.31	-11.34	-16.59	0.3872	0.0976	-0.3585	
-0.948306	-0.32635	0.15677	3.99	-11.97	-15.75	0.392	0.1051	-0.3767	
-0.958676	-0.337086	0.142984	4.9	-10.85	-13.65	0.3927	0.1086	-0.3555	
-0.968192	-0.33428	0.156282	4.97	-9.45	-11.13	0.3876	0.1052	-0.3735	
-0.954772	-0.33489	0.166896	6.3	-8.89	-7.49	0.3859	0.1116	-0.3658	
-0.93452	-0.335378	0.15738	8.26	-8.12	-5.6	0.383	0.1022	-0.3628	
-0.92903	-0.335256	0.168238	8.33	-6.3	-6.23	0.383	0.1038	-0.3643	
-0.916464	-0.335866	0.163236	8.47	-6.09	-7.63	0.3845	0.1069	-0.3673	
-0.91317	-0.33672	0.176168	5.74	-5.32	-8.75	0.3844	0.1054	-0.3613	
-0.911828	-0.33794	0.181658	4.48	-5.11	-7.77	0.3876	0.1083	-0.3735	
-0.91805	-0.350262	0.203008	1.89	-5.46	-7.42	0.3776	0.1115	-0.3731	
-0.930372	-0.365756	0.197762	2.59	-5.18	-8.12	0.3705	0.1162	-0.3758	
-0.92842	-0.358558	0.203252	3.99	-5.25	-7.98	0.3747	0.1162	-0.3744	
-0.929274	-0.355874	0.191784	3.92	-5.74	-8.4	0.3721	0.1176	-0.3804	
-0.938424	-0.358314	0.196054	1.82	-5.18	-8.05	0.3707	0.1176	-0.3834	
-0.931714	-0.367586	0.19154	1.05	-4.06	-6.23	0.3708	0.1113	-0.3865	
-0.935374	-0.369416	0.186172	0.77	-3.85	-5.18	0.3749	0.1114	-0.3775	
-0.915854	-0.361486	0.194346	0.98	-3.71	-4.69	0.3763	0.1286	-0.3803	
-0.91378	-0.366366	0.193858	1.33	-2.59	-3.22	0.3708	0.116	-0.3864	
-0.922442	-0.35929	0.179584	2.24	-2.1	-2.66	0.3735	0.1207	-0.3819	
-0.925736	-0.37027	0.201056	3.01	-0.98	-1.05	0.3748	0.1161	-0.3775	
-0.91744	-0.371856	0.19459	3.43	-0.84	-1.96	0.3737	0.1066	-0.3867	
-0.92781	-0.368196	0.203252	2.73	-0.14	-2.59	0.3751	0.1097	-0.3867	
-0.912804	-0.382958	0.191662	5.39	-0.14	-2.03	0.3752	0.1113	-0.3881	
-0.91317	-0.388692	0.195932	4.97	-0.28	-1.82	0.3738	0.1159	-0.3911	
-0.92415	-0.36966	0.196664	5.67	-0.56	-2.59	0.3695	0.1144	-0.3909	
-0.93452	-0.36173	0.199348	5.11	-0.56	-0.14	0.365	0.1239	-0.3816	
-0.919758	-0.349408	0.203252	5.67	-0.28	0.21	0.3735	0.1082	-0.3806	
-0.923296	-0.350506	0.198372	3.36	-0.35	-0.21	0.3693	0.1161	-0.3818	
-0.92171	-0.34953	0.192028	1.12	-0.63	0.07	0.3704	0.1131	-0.3713	
-0.92842	-0.36539	0.197396	-0.14	-0.14	0.28	0.3649	0.1161	-0.3802	
-0.91622	-0.369538	0.19459	1.4	-0.21	0.77	0.3791	0.1255	-0.3775	
-0.915122	-0.370758	0.200812	1.47	0.21	0.7	0.3719	0.1115	-0.3729	
-0.913414	-0.351238	0.199836	0.77	0.7	-0.28	0.3765	0.1129	-0.3836	
-0.915122	-0.357948	0.19703	0.84	0.91	-0.98	0.3678	0.1223	-0.3817	
-0.92537	-0.364536	0.19947	0.56	1.05	-1.68	0.3763	0.1051	-0.3792	
-0.931348	-0.364414	0.203008	1.33	0.77	-2.31	0.3663	0.1099	-0.3773	
-0.927078	-0.35319	0.199836	1.75	0.35	-1.68	0.3694	0.1051	-0.385	
-0.937326	-0.35685	0.203374	0.7	0.56	-0.42	0.3748	0.113	-0.376	
-0.92964	-0.351116	0.194712	0.56	0.07	0.21	0.3675	0.1131	-0.3712	
-0.934032	-0.349774	0.19276	-0.21	0	1.82	0.3566	0.1098	-0.3861	
-0.933178	-0.345016	0.188124	-0.77	-0.42	2.8	0.3764	0.1113	-0.3821	
-0.938058	-0.366732	0.18788	-0.98	-0.35	3.64	0.3738	0.1096	-0.3912	
-0.921466	-0.373808	0.185806	0.63	0.56	3.71	0.3764	0.1098	-0.3806	
-0.924638	-0.369416	0.18178	0.21	0.63	3.5	0.3767	0.1112	-0.3912	
-0.928176	-0.35014	0.188734	-0.28	0.49	3.57	0.3721	0.1098	-0.382	
-0.93147	-0.353922	0.187392	0.14	0.42	3.71	0.3677	0.1099	-0.3758	
-0.925614	-0.354898	0.192028	1.12	0	3.85	0.3736	0.116	-0.3835	
-0.923052	-0.354898	0.189954	0.14	-0.35	4.06	0.3664	0.113	-0.3803	
-0.930006	-0.356362	0.191906	-0.28	-0.07	3.92	0.3777	0.1177	-0.3775	
-0.923296	-0.343186	0.197518	-0.35	0.21	3.57	0.3794	0.116	-0.3867	
-0.932202	-0.344284	0.201056	0.07	0.7	3.85	0.3763	0.1067	-0.3777	
-0.920124	-0.346602	0.205082	0.42	0.77	3.92	0.3748	0.1115	-0.3745	
-0.926224	-0.350628	0.20496	0.07	1.12	3.92	0.375	0.1051	-0.3807	
-0.929518	-0.338062	0.204594	-0.14	1.12	3.78	0.3806	0.1161	-0.3776	
-0.930006	-0.345626	0.200568	1.19	1.19	4.2	0.3764	0.1082	-0.3822	
-0.933666	-0.33733	0.199104	1.54	2.24	3.01	0.379	0.1052	-0.3732	
-0.930006	-0.338672	0.198982	2.94	2.31	3.78	0.3721	0.0941	-0.3807	
-0.935008	-0.339892	0.19703	3.15	2.45	4.27	0.372	0.102	-0.3776	
-0.939766	-0.337086	0.193858	3.43	2.66	4.76	0.3691	0.1052	-0.3744	
-0.939156	-0.342332	0.19398	3.85	2.8	5.25	0.3721	0.0973	-0.3792	
-0.937082	-0.344406	0.19154	3.15	2.45	6.51	0.3721	0.1067	-0.379	
-0.939278	-0.340136	0.18361	3.15	2.66	7.28	0.3767	0.1003	-0.3899	
-0.931836	-0.33184	0.191784	2.17	3.71	7.77	0.3809	0.09559999	-0.3871	
-0.929762	-0.343918	0.185928	3.08	4.55	10.29	0.3692	0.0958	-0.3776	
-0.925736	-0.3477	0.1952	1.61	5.25	9.94	0.3777	0.0989	-0.3748	
-0.929152	-0.340502	0.19764	1.05	7.14	10.22	0.3834	0.0895	-0.3766	
-0.933178	-0.329888	0.191052	1.26	7.49	10.57	0.3891	0.0958	-0.3752	
-0.933056	-0.316102	0.19215	2.52	7.42	11.13	0.3833	0.08639999	-0.3721	
-0.947696	-0.309636	0.190564	3.5	7.77	12.04	0.3819	0.08329999	-0.3737	
-0.950014	-0.305488	0.1891	5.32	7.84	11.69	0.3906	0.0801	-0.377	
-0.951356	-0.3111	0.185928	7.7	7.42	12.74	0.3879	0.0816	-0.3814	
-0.94672	-0.29646	0.17141	9.94	6.37	12.04	0.3877	0.0832	-0.3769	
-0.966484	-0.285846	0.159942	6.72	5.95	13.02	0.386	0.0818	-0.3647	
-0.96868	-0.254126	0.146888	0.63	5.67	14.21	0.3933	0.07539999	-0.3726	
-0.954406	-0.251442	0.147742	-1.54	5.67	14.77	0.3891	0.077	-0.374	
-0.956602	-0.26047	0.155184	-3.57	9.24	15.26	0.3849	0.0816	-0.3783	
-0.943914	-0.261812	0.162016	-5.46	9.24	18.41	0.392	0.0676	-0.3757	
-0.9516	-0.259128	0.160552	-9.31	12.53	21.14	0.3903	0.063	-0.3652	
-0.973438	-0.25742	0.164578	-7.84	12.88	23.03	0.3918	0.0614	-0.3683	
-1.006988	-0.219356	0.13847	-2.45	14.07	20.58	0.3974	0.0646	-0.3638	
-0.993324	-0.195932	0.142008	-3.29	12.88	18.69	0.4044	0.0521	-0.3597	
-0.96868	-0.23241	0.14823	-5.95	12.81	20.09	0.39	0.06	-0.3561	
-0.957944	-0.269742	0.155184	-7.98	11.27	22.61	0.4013	0.0632	-0.3504	
-0.959774	-0.265472	0.145424	-10.57	9.03	22.82	0.4099	0.0632	-0.3522	
-0.988444	-0.23119	0.130784	-11.13	10.01	23.52	0.3983	0.0539	-0.3459	
-1.003816	-0.2257	0.134322	-10.57	10.71	24.08	0.4067	0.0524	-0.3416	
-0.98576	-0.228384	0.117242	-4.9	10.64	26.81	0.404	0.0508	-0.3446	
-0.976244	-0.24034	0.100406	-3.01	11.69	29.89	0.4171	0.0365	-0.3528	
-0.981612	-0.229604	0.101016	-2.45	13.23	29.26	0.4057	0.0381	-0.3524	
-0.978196	-0.193614	0.085522	-0.56	13.37	28.56	0.4056	0.0351	-0.3494	
-0.99064	-0.15921	0.084668	-0.14	12.67	30.03	0.3985	0.0288	-0.3493	
-1.005524	-0.162992	0.080886	3.29	13.79	31.01	0.404	0.0242	-0.3435	
-1.016748	-0.150792	0.083082	6.86	10.15	31.85	0.4111	0.018	-0.3408	
-1.006012	-0.132126	0.07564	10.22	8.89	31.5	0.4124	0.0118	-0.3364	
-1.005158	-0.117974	0.08845	9.1	9.03	31.15	0.4093	0.0166	-0.3302	
-1.006622	-0.104554	0.090524	6.16	9.52	31.99	0.4069	0.0054	-0.3424	
-0.996862	-0.089914	0.07442	4.97	9.87	34.09	0.4097	0.0007	-0.3425	
-0.99247	-0.084424	0.07442	3.15	11.69	34.93	0.4066	-0.0116	-0.3335	
-1.00345	-0.08113	0.057218	6.44	11.13	35	0.4151	-0.0069	-0.3307	
-1.016748	-0.067466	0.067588	4.55	9.94	32.41	0.4181	-0.0194	-0.334	
-1.023214	-0.033306	0.079178	1.4	12.11	33.88	0.4179	-0.024	-0.3265	
-1.019676	-0.016348	0.071736	3.99	12.88	34.72	0.4209	-0.0241	-0.3327	
-1.002108	-0.016348	0.066612	5.18	12.25	34.51	0.4177	-0.038	-0.3192	
-0.999546	-0.003172	0.05917	6.3	12.88	36.82	0.4147	-0.0411	-0.3161	
-1.0065	-0.002074	0.064782	10.22	11.48	36.19	0.4261	-0.0442	-0.3135	
-1.009916	0.005368	0.04636	15.4	9.94	35.07	0.4219	-0.0505	-0.3165	
-1.011624	0.020618	0.048312	12.95	10.64	34.37	0.416	-0.0519	-0.3103	
-1.017236	0.042456	0.04697	11.62	11.13	34.02	0.4174	-0.0519	-0.3103	
-1.011014	0.051362	0.015616	10.5	10.64	35.49	0.4145	-0.0613	-0.3073	
-1.01199	0.067832	0.019886	11.2	10.64	35.56	0.4174	-0.0738	-0.3076	
-1.007598	0.071126	0.013542	13.86	11.13	35	0.4101	-0.0784	-0.3014	
-1.008818	0.07991	0.007929999	13.02	12.74	33.88	0.4072	-0.09559999	-0.3001	
-1.004304	0.10553	-0.000244	4.13	13.23	33.32	0.4088	-0.0941	-0.3031	
-1.002718	0.123464	-0.00122	-0.84	13.58	33.81	0.4116	-0.0957	-0.3032	
-1.000644	0.141276	0	0.28	13.3	34.58	0.4186	-0.09559999	-0.2989	
-1.010404	0.13481	-0.005246	3.29	12.32	35.21	0.4085	-0.1034	-0.2957	
-1.009062	0.140422	-0.023424	4.97	11.41	34.58	0.4128	-0.1018	-0.2958	
-1.008818	0.158356	-0.02928	-2.8	11.48	32.62	0.4069	-0.1267	-0.2854	
-0.999058	0.188978	-0.02684	-10.92	10.15	31.15	0.41	-0.1096	-0.2958	
-0.999058	0.204472	-0.021716	-16.94	8.82	29.19	0.4083	-0.1189	-0.2853	
-0.99674	0.2379	-0.01952	-15.68	9.1	28.7	0.4172	-0.1253	-0.2963	
-0.984052	0.231068	-0.0427	-13.09	7.35	29.47	0.4129	-0.1331	-0.2963	
-0.98332	0.24522	-0.060268	-12.67	6.65	29.05	0.4127	-0.1424	-0.2873	
-0.983198	0.24034	-0.03904	-17.71	7.35	28.98	0.4015	-0.1441	-0.2961	
-0.981856	0.260714	-0.05307	-16.24	7.49	28	0.4041	-0.1408	-0.2885	
-0.973926	0.258396	-0.047336	-24.78	7.77	28.49	0.4114	-0.1362	-0.2917	
-0.96746	0.273768	-0.063074	-24.5	9.1	28.14	0.4042	-0.1471	-0.2917	
-0.964654	0.29585	-0.042944	-10.43	10.64	27.09	0.4083	-0.1455	-0.2857	
-0.96319	0.28121	-0.040626	-9.8	10.43	25.2	0.4003	-0.1535	-0.3007	
-0.967826	0.30073	-0.040504	-11.9	10.29	22.96	0.3968	-0.1563	-0.2795	
-0.959408	0.305732	-0.023424	-16.52	10.08	23.17	0.4023	-0.1562	-0.2736	
-0.948306	0.313906	-0.02623	-14.07	7.84	20.58	0.4038	-0.1563	-0.2767	
-0.962092	0.313296	-0.025376	-11.41	7.49	20.37	0.3983	-0.1595	-0.2841	
-0.976976	0.304024	-0.030988	-11.55	7.14	20.65	0.401	-0.1657	-0.2767	
-0.963312	0.311344	-0.024888	-10.71	6.16	18.55	0.3926	-0.1705	-0.2826	
-0.957334	0.323056	-0.030378	-11.62	5.6	17.15	0.3913	-0.1674	-0.287	
-0.958676	0.341844	-0.041358	-9.24	5.32	15.96	0.3929	-0.1785	-0.2933	
-0.94367	0.352824	-0.043554	-10.29	5.6	15.82	0.3972	-0.1691	-0.2918	
-0.94184	0.360876	-0.05978	-9.45	4.97	14.63	0.3971	-0.1769	-0.2904	
-0.948184	0.365146	-0.056974	-13.09	4.76	13.09	0.3886	-0.1706	-0.2915	
-0.943792	0.376492	-0.059048	-16.73	5.04	12.11	0.3925	-0.1814	-0.2797	
-0.938058	0.3782	-0.04209	-16.66	6.02	12.67	0.3927	-0.1768	-0.2842	
-0.944402	0.383568	-0.044042	-13.65	6.44	12.74	0.393	-0.1754	-0.2948	
-0.942694	0.372954	-0.047336	-12.88	5.46	13.02	0.4029	-0.1847	-0.2907	
-0.935862	0.376614	-0.03233	-7.77	4.27	12.46	0.4014	-0.1784	-0.2905	
-0.930128	0.387106	-0.058316	-7	3.78	10.99	0.3856	-0.1799	-0.287	
-0.930738	0.394304	-0.055998	-11.76	4.41	10.15	0.3972	-0.1816	-0.292	
-0.91988	0.39772	-0.042334	-11.83	5.67	9.24	0.3928	-0.1878	-0.2889	
-0.920734	0.39467	-0.05307	-6.65	6.02	8.05	0.3915	-0.1816	-0.2933	
-0.933544	0.380396	-0.04453	-5.88	6.72	7.42	0.3927	-0.1815	-0.2843	
-0.94123	0.385764	-0.055632	-7	7.21	7.28	0.3884	-0.1846	-0.2857	
-0.93635	0.380274	-0.054046	-9.17	7.14	7.63	0.3972	-0.1832	-0.2935	
-0.934154	0.383568	-0.040626	-4.69	6.02	5.53	0.3927	-0.1862	-0.2858	
-0.932324	0.395158	-0.051728	-1.05	4.9	3.92	0.3973	-0.1864	-0.2966	
-0.92293	0.397476	-0.053802	-3.78	3.92	2.8	0.3941	-0.1768	-0.2842	
-0.921222	0.405528	-0.05978	-2.45	3.99	2.24	0.3955	-0.1877	-0.2814	
-0.934886	0.395036	-0.052216	-3.5	4.62	2.24	0.384	-0.1845	-0.2795	
-0.931836	0.405894	-0.06893	0.28	4.41	0.98	0.3925	-0.1892	-0.2783	
-0.930494	0.405528	-0.05917	0.35	4.41	0.77	0.3884	-0.1908	-0.2827	
-0.918416	0.407846	-0.063928	-2.59	3.92	0.07	0.3956	-0.1893	-0.2845	
-0.915976	0.412848	-0.066734	-3.01	4.2	-0.07	0.3984	-0.1877	-0.283	
-0.923296	0.412848	-0.071736	-4.97	4.2	0.77	0.3983	-0.1877	-0.2815	
-0.923662	0.411628	-0.071492	-2.38	3.78	-0.28	0.3826	-0.1845	-0.2825	
-0.920978	0.40687	-0.066246	3.64	2.73	-1.75	0.3939	-0.1891	-0.2753	
-0.927078	0.413824	-0.072834	3.64	2.52	-2.1	0.3853	-0.1875	-0.275	
-0.92659	0.40687	-0.07259	1.26	2.52	-1.54	0.3924	-0.186	-0.2737	
-0.93025	0.405162	-0.080032	0.7	2.45	-1.26	0.3893	-0.1796	-0.2675	
-0.930738	0.399184	-0.075518	1.12	2.31	-1.61	0.3926	-0.1861	-0.2813	
-0.934032	0.396988	-0.073078	0.49	2.17	-1.61	0.3839	-0.1782	-0.2779	
-0.9394	0.39284	-0.0793	-0.35	2.45	-0.84	0.3982	-0.1829	-0.2784	
-0.928542	0.389668	-0.075762	-1.61	2.31	-0.07	0.3982	-0.1813	-0.2769	
-0.926712	0.388204	-0.075884	0.56	1.47	-0.28	0.3908	-0.1828	-0.2706	
-0.93696	0.385154	-0.07381	4.2	0.56	-0.42	0.3896	-0.1845	-0.2766	
-0.940254	0.381006	-0.083204	5.67	-0.42	-0.91	0.4027	-0.1768	-0.2845	
-0.936716	0.381006	-0.08235	3.43	-0.7	-1.26	0.3925	-0.1907	-0.2768	
-0.94611	0.38552	-0.07869	2.8	-0.56	-1.47	0.388	-0.1906	-0.2721	
-0.941962	0.386252	-0.08113	4.83	-1.12	-2.1	0.394	-0.1923	-0.2799	
-0.945134	0.391864	-0.088572	1.89	-0.49	-1.4	0.3996	-0.1861	-0.277	
-0.93086	0.380396	-0.085522	-0.14	0	0.28	0.3938	-0.1735	-0.2751	
-0.927566	0.389058	-0.081374	-1.89	0	-0.35	0.3923	-0.1891	-0.2707	
-0.932934	0.391864	-0.077348	-0.84	-0.56	-0.77	0.3983	-0.1861	-0.2815	
-0.936716	0.388082	-0.072346	-0.42	-1.26	-1.47	0.3912	-0.1908	-0.2813	
-0.93391	0.395524	-0.06954	-1.75	-1.54	-1.82	0.3996	-0.1782	-0.2769	
-0.940254	0.396866	-0.06527	-3.43	-2.1	-2.24	0.3896	-0.1876	-0.2752	
-0.94489	0.390644	-0.06832	-5.04	-2.59	-2.24	0.3907	-0.1827	-0.2676	
-0.95099	0.400282	-0.063562	-11.06	-2.59	-2.24	0.3979	-0.175	-0.2692	
-0.943792	0.391254	-0.06161	-11.9	-4.55	-3.5	0.3999	-0.1846	-0.2861	
-0.960018	0.383934	-0.05612	-8.26	-6.58	-6.37	0.3971	-0.1799	-0.2874	
-0.958798	0.360388	-0.061976	-5.11	-7.84	-6.58	0.3927	-0.1736	-0.2841	
-0.94977	0.367952	-0.068686	-8.47	-8.12	-10.08	0.4029	-0.1707	-0.2935	
-0.930738	0.398818	-0.069174	-16.38	-7.21	-15.19	0.3912	-0.1798	-0.2812	
-0.912438	0.379542	-0.061854	-13.86	-7.49	-16.17	0.3983	-0.1767	-0.2829	
-0.931592	0.371246	-0.061732	-5.74	-7.35	-17.5	0.3999	-0.1768	-0.289	
-0.979904	0.352092	-0.056608	0.63	-5.74	-21.63	0.394	-0.1673	-0.2826	
-0.945256	0.338184	-0.056852	-9.73	-5.04	-22.33	0.4073	-0.1566	-0.298	
-0.925248	0.348676	-0.037332	-6.58	-3.36	-22.54	0.3984	-0.1643	-0.2857	
-0.927078	0.371124	-0.03843	-9.8	-2.73	-27.16	0.3986	-0.1597	-0.2932	
-0.925492	0.376004	-0.036966	-8.96	-4.06	-29.61	0.3955	-0.1533	-0.2869	
-0.937082	0.352946	-0.03965	0.07	-4.55	-29.96	0.4101	-0.1535	-0.295	
-0.952942	0.324032	-0.027572	17.43	-3.85	-28.77	0.407	-0.1377	-0.2901	
-0.941718	0.353556	-0.040138	17.01	-3.64	-29.26	0.4141	-0.1408	-0.2873	
-0.926956	0.357704	-0.019886	5.74	-4.76	-28.7	0.4056	-0.1283	-0.2899	
-0.941352	0.33977	-0.017568	10.71	-6.93	-29.54	0.4083	-0.1236	-0.2869	
-0.971974	0.305732	-0.03172	18.97	-6.23	-28.7	0.4127	-0.1221	-0.29	
-0.983564	0.304146	-0.052704	17.85	-4.34	-30.1	0.41	-0.1237	-0.296	
-0.965264	0.288286	-0.021838	10.57	-4.13	-29.54	0.4085	-0.1159	-0.2928	
-0.96441	0.270108	-0.013908	20.51	-3.85	-30.87	0.4216	-0.1191	-0.3009	
-0.987346	0.249612	-0.006222	26.11	-5.32	-30.31	0.4114	-0.1143	-0.2944	
-1.002108	0.23058	-0.006832	20.86	-5.53	-30.03	0.4143	-0.1097	-0.296	
-0.979538	0.206058	-0.019642	11.69	-5.39	-29.26	0.4113	-0.1158	-0.2914	
-0.980758	0.209718	-0.023424	9.59	-4.97	-28.7	0.4186	-0.09559999	-0.2974	
-0.976732	0.18544	-0.017446	7.07	-2.45	-26.95	0.4184	-0.1033	-0.2915	
-1.000766	0.173972	-0.023912	6.23	0.07	-25.48	0.4285	-0.09869999	-0.2947	
-1.00101	0.144814	-0.021716	11.48	-2.03	-23.38	0.4241	-0.0939	-0.2915	
-1.007598	0.108946	-0.027572	16.24	-1.26	-20.44	0.4271	-0.0847	-0.2975	
-1.014064	0.094794	-0.020008	15.4	-2.17	-18.27	0.4256	-0.08769999	-0.2945	
-1.013454	0.081374	-0.02318	9.8	-2.8	-18.06	0.4228	-0.0862	-0.2959	
-1.02785	0.07198	-0.040992	6.02	-2.8	-16.87	0.4142	-0.0783	-0.2955	
-1.009062	0.073322	-0.02318	-9.38	-4.62	-16.17	0.4232	-0.08639999	-0.308	
-1.01626	0.08784	-0.026352	-4.69	-3.57	-15.19	0.4201	-0.0816	-0.3018	
-1.02236	0.09162199	-0.021106	-10.71	-5.74	-16.94	0.4328	-0.0768	-0.2976	
-1.022604	0.0732	-0.01769	-14.77	-4.69	-12.6	0.4201	-0.0785	-0.3032	
-1.033462	0.05917	-0.02562	-19.53	-3.92	-6.65	0.4245	-0.0848	-0.305	
-1.021994	0.046604	-0.013298	-29.47	-4.27	-4.76	0.4275	-0.0755	-0.311	
-1.033218	0.04819	-0.001586	-35.42	-5.67	-4.97	0.4189	-0.0692	-0.3106	
-1.03151	0.07381	0.005734	-38.78	-8.82	-4.27	0.4232	-0.0676	-0.3092	
-1.007354	0.08052	0.004636	-36.54	-10.57	-4.48	0.4176	-0.0536	-0.3149	
-1.018822	0.090402	0.00915	-28.98	-10.71	-0.98	0.4159	-0.0534	-0.3057	
-1.007232	0.088206	0.021228	-20.3	-14.56	-4.69	0.4232	-0.0489	-0.3135	
-1.0248	0.080642	0.00671	-3.15	-13.16	-1.19	0.4145	-0.0503	-0.3072	
-1.015284	0.082106	0.012688	0.84	-13.3	-0.91	0.419	-0.0489	-0.3133	
-1.00467	0.108092	-0.005368	4.69	-12.88	1.61	0.4161	-0.0489	-0.3148	
-1.02175	0.09162199	0.0183	7.35	-11.2	13.09	0.4176	-0.0552	-0.3149	
-1.01016	0.123342	0.037942	18.76	-14	-1.75	0.4033	-0.0535	-0.3144	
-1.012356	0.133956	0.034648	22.4	-14.28	-3.57	0.419	-0.0505	-0.3149	
-1.010282	0.11529	0.029768	29.82	-12.88	-2.94	0.4176	-0.0442	-0.3178	
-1.007842	0.104554	0.031476	41.79	-14.42	-3.08	0.4151	-0.0522	-0.3269	
-1.01931	0.145302	0.058804	43.68	-13.3	-7.84	0.4192	-0.0631	-0.3196	
-0.996862	0.182634	0.058438	49.35	-13.16	-11.27	0.4077	-0.0536	-0.3176	
-0.98637	0.151646	0.064782	54.04	-4.83	-12.39	0.4104	-0.0708	-0.3134	
-1.002474	0.128466	0.040016	54.18	-5.74	-11.55	0.4176	-0.0599	-0.3165	
-1.016504	0.137372	0.04026	45.78	-6.3	-11.41	0.4037	-0.0709	-0.3253	
-1.009916	0.144204	0.027206	35.77	-8.33	-12.39	0.4093	-0.074	-0.3225	
-1.008574	0.120048	0.018666	31.15	-7.35	-13.79	0.4063	-0.0693	-0.3193	
-1.028094	0.117852	0.049044	32.34	-8.47	-12.32	0.4119	-0.0755	-0.3135	
-1.006866	0.135298	0.05307	28.56	-10.64	-10.92	0.4036	-0.0834	-0.3224	
-1.005158	0.126514	0.055632	24.71	-9.1	-12.04	0.4106	-0.0803	-0.3196	
-1.000888	0.110776	0.048434	22.19	-7.84	-11.06	0.4094	-0.0819	-0.3256	
-0.99674	0.099552	0.049654	17.22	-7.28	-10.78	0.4091	-0.0692	-0.3148	
-0.981978	0.074176	0.05246	13.3	-6.72	-9.45	0.4167	-0.0852	-0.3305	
-0.99735	0.05734	0.087962	13.02	-7.14	-7.98	0.4065	-0.0756	-0.3239	
-0.999058	0.07625	0.077958	12.25	-7.49	-11.06	0.408	-0.0804	-0.3256	
-1.009672	0.068076	0.073078	13.37	-7.35	-10.71	0.4068	-0.0727	-0.3345	
-1.020164	0.031232	0.07442	13.65	-5.95	-10.43	0.4139	-0.0867	-0.3319	
-1.020042	0.034892	0.074786	12.74	-6.16	-10.5	0.4096	-0.0726	-0.3315	
-1.01687	0.038674	0.06893	12.32	-5.81	-11.27	0.4037	-0.0819	-0.3254	
-1.007598	0.061976	0.08845	13.09	-5.04	-12.18	0.4009	-0.0819	-0.3269	
-0.983198	0.060634	0.09333	11.9	-4.48	-11.97	0.4024	-0.0773	-0.3299	
-0.996252	0.065392	0.106994	10.01	-3.15	-11.2	0.4165	-0.0741	-0.3242	
-0.994544	0.053802	0.097844	7.56	-2.17	-10.29	0.4124	-0.08199999	-0.3318	
-0.985028	0.047336	0.083326	3.71	-1.19	-9.59	0.4011	-0.0695	-0.3358	
-0.991494	0.049776	0.106994	3.71	-0.28	-9.45	0.4049	-0.0693	-0.3208	
-0.990884	0.042334	0.104188	1.96	-0.35	-8.68	0.4079	-0.07099999	-0.3254	
-1.004426	0.032818	0.09162199	0.35	-0.07	-7.56	0.4136	-0.0647	-0.3225	
-1.0004	0.023546	0.074176	-1.26	0.21	-6.51	0.4166	-0.0648	-0.3286	
-1.012356	0.015738	0.08662	0.56	0.98	-6.23	0.4139	-0.0742	-0.3332	
-1.01565	0.006588	0.084424	-0.42	0.63	-5.39	0.4107	-0.0694	-0.3225	
-1.009184	0.016226	0.093696	-1.05	1.54	-5.32	0.4052	-0.0695	-0.3298	
-1.001376	0.002074	0.090646	-2.03	1.68	-4.97	0.4132	-0.0598	-0.3103	
-0.997228	-0.000732	0.08295999	-3.15	1.19	-3.71	0.4109	-0.0616	-0.3284	
-0.99918	-0.01037	0.083814	-4.06	1.33	-3.08	0.4082	-0.0617	-0.3328	
-1.020042	-0.006954	0.09089	-2.38	1.96	-3.15	0.4081	-0.0617	-0.3313	
-1.00162	0.000244	0.081252	-3.92	0.77	-3.01	0.4136	-0.0678	-0.324	
-1.006012	-0.010614	0.073688	-4.76	1.47	-2.73	0.4196	-0.0602	-0.3347	
-1.009672	-0.009516	0.078202	-3.15	0.98	-2.03	0.4163	-0.0552	-0.3194	
-1.024434	-0.00671	0.080276	-1.68	1.19	-1.47	0.4106	-0.0599	-0.3193	
-1.014796	-0.009393999	0.066612	-1.33	1.4	-0.84	0.4208	-0.0632	-0.3257	
-1.012356	0.006222	0.086132	-0.49	1.82	-0.56	0.415	-0.0537	-0.3224	
-1.012112	0.009516	0.080764	-1.26	1.33	-0.14	0.415	-0.0647	-0.3225	
-1.016016	-0.007929999	0.074298	-0.98	1.05	0.77	0.4209	-0.0663	-0.3288	
-1.019188	-0.013664	0.081618	0.49	0.35	1.05	0.418	-0.0569	-0.3286	
-1.01748	0.002196	0.073688	-0.84	-0.63	0.56	0.4182	-0.0539	-0.3361	
-1.008208	-0.010248	0.071004	-1.82	-0.07	1.05	0.408	-0.0553	-0.3282	
-1.004426	0.01037	0.07259	-1.82	-0.98	0.91	0.4021	-0.0615	-0.3205	
-1.005524	0.011346	0.06527	-3.5	-0.91	1.05	0.4093	-0.0568	-0.3237	
-1.002718	-0.000366	0.068198	-2.73	0.21	1.47	0.4153	-0.0648	-0.3331	
-0.996496	0.00854	0.080032	-2.52	0.28	2.03	0.4068	-0.0554	-0.3342	
-0.99613	0.01891	0.08906	-2.24	0.91	2.38	0.4109	-0.0569	-0.3298	
-1.0065	0.03172	0.086742	-4.13	0.56	3.01	0.4209	-0.0601	-0.3287	
-0.99857	0.039284	0.092964	-5.53	0.77	3.64	0.4165	-0.06	-0.3255	
-0.97661	0.069784	0.08357	-9.38	-2.03	4.55	0.4138	-0.0616	-0.33	
-0.976244	0.083326	0.090036	-9.8	-0.49	4.27	0.4122	-0.0553	-0.3253	
-0.99247	0.105408	0.102968	-12.39	-1.61	3.57	0.412	-0.0521	-0.3207	
-0.986248	0.098332	0.084424	-14.35	-1.19	0.35	0.4164	-0.0631	-0.3225	
-0.97783	0.087718	0.050874	-20.02	-1.05	-1.82	0.4136	-0.0553	-0.3254	
-0.984784	0.07198	0.049654	-23.66	1.4	-2.94	0.4093	-0.0521	-0.3237	
-1.002108	0.064904	0.072712	-26.18	3.5	-2.94	0.4095	-0.0507	-0.3297	
-1.006134	0.046116	0.054656	-30.45	6.02	-3.22	0.4138	-0.0429	-0.3327	
-1.012112	0.00732	0.067588	-29.47	8.33	-2.17	0.4082	-0.0523	-0.3357	
-1.029436	-0.015616	0.055998	-25.62	10.36	-0.98	0.4126	-0.0571	-0.3375	
-1.019676	-0.018056	0.034404	-19.67	8.54	-3.85	0.4253	-0.0414	-0.3361	
-1.03029	-0.008905999	0.046116	-9.17	9.24	-7.91	0.4109	-0.0507	-0.3297	
-1.031022	-0.01647	0.027572	-10.43	7.49	-11.13	0.4208	-0.0413	-0.3269	
-1.025654	-0.026352	0.048922	-5.88	7.98	-12.53	0.4238	-0.0304	-0.3344	
-1.015772	-0.033062	0.049898	-8.75	6.65	-16.17	0.4294	-0.0366	-0.3301	
-1.018334	-0.039772	0.05612	-5.6	6.65	-18.06	0.4179	-0.0272	-0.3281	
-1.028216	-0.025254	0.047336	1.89	5.95	-18.83	0.4207	-0.024	-0.3251	
-1.033706	-0.046238	0.030378	11.69	6.23	-14.77	0.425	-0.024	-0.3252	
-1.028094	-0.0122	0.019032	14.63	9.38	-7.21	0.4137	-0.0225	-0.3294	
-1.033828	-0.011102	0.01647	10.5	8.68	-7.35	0.4204	-0.0223	-0.316	
-1.026264	-0.016104	0.003294	9.1	5.95	-5.53	0.4275	-0.0207	-0.3147	
-1.00955	-0.005612	-0.005734	5.11	2.03	-9.38	0.4204	-0.0208	-0.3175	
-1.036634	-0.039528	0.016958	1.05	2.45	-12.04	0.4218	-0.0223	-0.3145	
-1.04188	-0.044896	0.016836	13.02	1.89	-6.86	0.4218	-0.0191	-0.3145	
-1.024068	-0.0427	0.013908	18.06	1.12	-9.17	0.4275	-0.0176	-0.3146	
-1.025898	-0.041846	0.011834	19.39	-0.98	-8.19	0.4203	-0.0191	-0.3129	
-1.032974	-0.062708	0.012566	24.5	-2.1	-4.83	0.4157	-0.0189	-0.3022	
-1.04127	-0.071004	0.023058	26.67	-3.78	-0.91	0.4203	-0.0207	-0.3129	
-1.037854	-0.089792	0.031354	22.4	-3.92	2.31	0.4191	-0.0208	-0.319	
-1.002352	-0.09162199	0.019032	16.8	-8.75	-3.29	0.4336	-0.0319	-0.3272	
-1.023336	-0.061366	0.006344	-6.09	-10.15	-7.07	0.4233	-0.0333	-0.3178	
-1.001864	-0.048068	0.036722	-28.98	-8.89	-7.14	0.4219	-0.027	-0.3176	
-1.01565	-0.05307	0.040626	-36.68	-7.56	-4.41	0.4121	-0.0318	-0.325	
-1.020774	-0.066856	0.027816	-42.49	-10.71	-1.82	0.4221	-0.0162	-0.3265	
-1.023458	-0.07686	0.039772	-54.04	-11.27	0.07	0.4136	-0.0068	-0.3276	
-1.035414	-0.082472	0.05185	-53.76	-9.24	6.16	0.418	-0.0179	-0.3325	
-1.030656	-0.088938	0.069296	-59.15	-7.98	9.17	0.4164	-0.0099	-0.3263	
-1.007842	-0.114314	0.12688	-63.84	-7.91	8.26	0.4139	-0.0007	-0.3381	
-0.995154	-0.14945	0.122488	-58.94	-8.54	12.81	0.418	0.0055	-0.3321	
-0.976366	-0.124806	0.106628	-58.1	-8.96	11.83	0.4195	0.007	-0.3367	
-0.987468	-0.106506	0.10919	-59.78	-8.89	7	0.4136	0.0056	-0.329	
-1.004304	-0.085034	0.107604	-57.61	-9.45	6.09	0.4209	0.0039	-0.3338	
-0.997228	-0.066246	0.085644	-52.71	-8.47	4.69	0.4098	0.021	-0.3452	
-1.008818	-0.026474	0.082472	-51.45	-7.56	4.27	0.4153	0.0242	-0.3393	
-1.011624	-0.05429	0.105652	-54.46	-5.95	9.31	0.4154	0.0179	-0.344	
-0.99369	-0.07442	0.07503	-56.49	-4.69	13.16	0.4097	0.0273	-0.3451	
-0.996496	-0.074054	0.089182	-59.99	-1.12	12.46	0.4042	0.0335	-0.3509	
-1.004548	-0.06405	0.091744	-56.98	-0.7	12.32	0.4025	0.0336	-0.3433	
-1.004304	-0.062464	0.104188	-57.05	0.14	14.84	0.4182	0.0414	-0.3437	
-1.008574	-0.079666	0.122122	-57.68	0.42	16.73	0.4068	0.0446	-0.3418	
-0.994666	-0.08686399	0.127124	-49.98	1.47	17.57	0.3998	0.0445	-0.3476	
-0.995398	-0.069662	0.109678	-44.03	2.87	17.43	0.4138	0.0462	-0.3389	
-1.006988	-0.063562	0.114802	-37.45	1.4	17.5	0.4096	0.0508	-0.3433	
-0.997106	-0.040748	0.094184	-32.97	2.31	15.89	0.4094	0.0494	-0.3342	
-1.027484	-0.008417999	0.086254	-29.54	2.87	16.1	0.4065	0.0525	-0.3356	
-1.042978	0.011834	0.065514	-30.94	2.45	14.28	0.4138	0.043	-0.339	
-1.03944	0.005246	0.027206	-26.88	0.28	14.35	0.4151	0.0431	-0.336	
-1.053592	0.015738	0.034526	-27.51	-1.05	13.16	0.4037	0.0463	-0.3341	
-1.036512	0.030622	0.032696	-23.59	-2.17	11.27	0.4078	0.0494	-0.3311	
-1.01992	0.042334	0.057584	-23.38	-1.54	10.57	0.4138	0.0477	-0.3404	
-1.019066	0.052216	0.052948	-20.09	-2.45	10.57	0.4107	0.0494	-0.3297	
-0.996862	0.031842	0.0671	-19.81	-2.38	11.69	0.407	0.046	-0.3493	
-0.989664	0.020008	0.061122	-17.99	-2.8	11.83	0.4084	0.0523	-0.3508	
-1.001498	0.037576	0.06832	-17.01	-1.47	10.92	0.408	0.0556	-0.3356	
-1.019188	0.032696	0.05429	-15.19	-1.96	11.48	0.4021	0.0557	-0.3293	
-1.024068	0.034648	0.076738	-14.91	-1.26	11.41	0.4024	0.0337	-0.3388	
-1.028338	0.040626	0.060268	-14.42	-1.26	9.73	0.4123	0.0478	-0.3358	
-1.002108	0.032818	0.079788	-14.91	-1.89	8.33	0.4138	0.0446	-0.3374	
-0.995276	0.032208	0.082716	-15.61	-2.45	7.21	0.4096	0.0493	-0.3418	
-0.993934	0.035136	0.08479	-14.7	-1.89	5.81	0.4122	0.0494	-0.3328	
-0.992104	0.041236	0.081984	-12.88	-2.1	5.39	0.4051	0.0557	-0.334	
-1.013576	0.044286	0.08357	-10.99	-2.38	4.48	0.404	0.0524	-0.3446	
-1.005402	0.047214	0.090402	-8.47	-2.73	3.92	0.4068	0.0461	-0.3433	
-0.99674	0.048922	0.075396	-7.77	-2.94	3.5	0.4065	0.0525	-0.3341	
-1.003938	0.060756	0.09211	-7.35	-2.24	2.87	0.4051	0.04	-0.3327	
-1.00467	0.057462	0.102968	-7.35	-2.52	2.87	0.4095	0.054	-0.3387	
-0.984906	0.045384	0.081862	-4.69	-1.96	3.57	0.4081	0.0493	-0.3387	
-0.99979	0.036478	0.110898	-2.87	-1.47	3.5	0.4165	0.0525	-0.3359	
-1.006622	0.05246	0.09882	-1.68	-1.26	2.8	0.417	0.0538	-0.3495	
-0.99796	0.05429	0.101504	-1.19	-1.05	2.45	0.4136	0.0572	-0.3327	
-1.010526	0.057828	0.088938	-0.7	-1.19	2.24	0.411	0.0524	-0.3418	
-1.018334	0.044896	0.08295999	-0.98	-1.54	2.24	0.4066	0.0509	-0.3371	
-1.001254	0.039162	0.100894	-0.42	-1.54	1.96	0.4038	0.054	-0.3385	
-1.001742	0.032208	0.091134	1.12	-0.91	1.12	0.4164	0.0557	-0.3313	
-1.0126	0.044164	0.077836	2.1	-1.26	0.56	0.4135	0.0432	-0.3284	
-1.012722	0.053802	0.08357	2.38	-0.98	0.7	0.4108	0.0525	-0.3357	
-1.019676	0.062098	0.06649	2.1	-1.54	0.77	0.4083	0.0461	-0.3448	
-1.017114	0.058438	0.08686399	1.61	-1.61	0.7	0.4025	0.0477	-0.3446	
-0.997838	0.053314	0.08723	1.75	-1.47	1.33	0.414	0.0492	-0.3465	
-1.012356	0.050874	0.113704	1.54	-1.05	0.98	0.4055	0.046	-0.3478	
-0.998814	0.055266	0.091866	4.34	-0.84	1.33	0.4041	0.0523	-0.3476	
-1.007476	0.069296	0.090158	3.85	-0.91	1.61	0.401	0.0493	-0.3415	
-1.014796	0.079422	0.095404	2.87	-1.33	1.96	0.414	0.0414	-0.3436	
-1.004914	0.069296	0.099674	2.52	-2.17	2.73	0.4038	0.0524	-0.34	
-1.004304	0.060268	0.088206	1.4	-2.8	2.38	0.4129	0.0443	-0.3556	
-1.006866	0.058804	0.097966	0.7	-2.03	0.91	0.4098	0.0335	-0.3481	
-1.003938	0.055998	0.094794	2.17	-2.94	0.91	0.4125	0.0367	-0.3421	
-0.9882	0.041968	0.103944	4.27	-3.99	0.84	0.4097	0.0414	-0.3434	
-0.986492	0.042578	0.101382	6.23	-3.57	0.77	0.4082	0.032	-0.342	
-1.004548	0.028182	0.131394	8.54	-2.94	0	0.4041	0.0429	-0.3493	
-1.003938	0.059902	0.113826	11.69	-3.08	-1.19	0.4041	0.0351	-0.3494	
-1.000644	0.074908	0.10858	13.58	-3.78	-2.24	0.4093	0.04	-0.3328	
-0.988932	0.079666	0.113582	13.86	-3.64	-3.08	0.4086	0.0365	-0.354	
-0.987468	0.056486	0.129076	15.68	-7.35	-3.85	0.4141	0.0382	-0.3466	
-0.982466	0.050874	0.138348	16.73	-5.39	-5.53	0.4013	0.0429	-0.3507	
-0.974048	0.043798	0.114314	16.52	-2.94	-5.32	0.3972	0.0319	-0.3538	
-0.989176	0.03904	0.147864	15.05	0.49	-6.02	0.4026	0.0445	-0.3477	
-0.992714	0.025254	0.152256	16.94	1.26	-7.84	0.4069	0.0367	-0.3464	
-0.991982	0.014396	0.11712	22.26	4.06	-8.4	0.3997	0.032	-0.3448	
-1.003938	0.00549	0.13237	24.22	5.04	-8.33	0.4082	0.0414	-0.3419	
-1.00528	0.04087	0.100406	30.31	7.42	-10.15	0.4099	0.0335	-0.3511	
-1.002352	0.069418	0.087352	31.5	9.1	-12.32	0.4111	0.0258	-0.3422	
-1.007476	0.064538	0.075762	32.13	9.17	-12.18	0.4056	0.0335	-0.3495	
-0.996618	0.046116	0.105164	33.6	8.68	-10.92	0.4056	0.035	-0.351	
-1.002352	0.02013	0.098698	33.39	8.89	-8.82	0.4168	0.0179	-0.341	
-1.026386	0.020862	0.101626	36.12	7.28	-8.82	0.4113	0.0257	-0.3483	
-1.02358	0.022692	0.08662	36.75	7.49	-9.45	0.4129	0.0318	-0.3543	
-1.014552	0.016958	0.060634	41.58	8.12	-8.47	0.4181	0.0211	-0.3364	
-1.014796	0.032208	0.082228	48.37	8.54	-7.49	0.411	0.0242	-0.3407	
-1.014064	0.016226	0.065636	49.35	8.68	-3.36	0.4138	0.0149	-0.3364	
-1.031876	0.004514	0.053924	45.08	9.17	-0.98	0.4167	0.0133	-0.3365	
-1.039562	-0.012688	0.039406	47.67	6.86	-0.56	0.4139	0.0055	-0.3381	
-1.019798	0.00488	0.02928	48.58	5.67	-1.12	0.418	0.0087	-0.3321	
-1.018944	0.006588	0.065758	49	6.58	-0.84	0.4148	0.0073	-0.3229	
-1.009062	-0.00854	0.02806	55.16	5.25	2.17	0.4149	-0.0021	-0.3246	
-1.028338	0.00549	0.016226	57.89	1.82	0.42	0.4164	-0.0084	-0.3278	
-1.035902	0.02745	-0.001586	59.43	-0.56	-0.56	0.4164	-0.0162	-0.3264	
-1.030168	0.031476	0.051606	45.29	1.82	-0.77	0.4147	-0.0098	-0.3186	
-1.017236	0.00915	0.040382	44.94	5.46	1.19	0.4105	-0.0208	-0.3202	
-0.995154	0.022448	0.020618	48.44	4.34	1.05	0.4246	-0.0301	-0.3132	
-1.007842	0.05856	0.007564	45.99	3.22	-0.42	0.4108	-0.0319	-0.3279	
-1.023092	0.086132	0.012444	37.73	3.57	-1.68	0.4205	-0.0239	-0.319	
-1.031998	0.070882	0.037698	30.24	3.36	0.49	0.4204	-0.0223	-0.3175	
-1.032852	0.049654	0.03904	29.4	3.29	1.4	0.4173	-0.0363	-0.3085	
-1.010282	0.061976	0.018422	22.47	3.08	3.92	0.4234	-0.049	-0.318	
-1.020286	0.05795	-0.001952	10.15	2.66	5.32	0.4247	-0.0411	-0.3149	
-1.027972	0.077714	0.02501	-4.41	1.68	2.17	0.4234	-0.0458	-0.3195	
-1.022482	0.059658	0.040504	-2.59	-0.28	3.29	0.4149	-0.0521	-0.3223	
-1.016382	0.037454	0.022936	13.86	-2.38	6.09	0.4178	-0.0443	-0.3238	
-1.016504	0.080276	0.016958	-9.03	-3.64	2.52	0.4164	-0.0443	-0.3223	
-1.019798	0.079544	0.021228	-30.52	-7.91	0.21	0.4147	-0.0567	-0.3148	
-1.017724	0.054656	0.036356	-29.4	-5.74	-1.89	0.4163	-0.0443	-0.3207	
-1.020774	0.048312	0.025864	-16.31	-6.37	0.7	0.4237	-0.0444	-0.3285	
-1.026264	0.055998	0.01891	-23.59	-6.16	0.63	0.4205	-0.0411	-0.3193	
-1.03029	0.067954	0.026108	-32.62	-7.49	0.77	0.4192	-0.0459	-0.3224	
-1.0187	0.012688	0.053436	-23.8	-5.32	6.65	0.4179	-0.0428	-0.3253	
-1.01809	0.012566	0.061244	-18.83	-6.23	9.73	0.4182	-0.0258	-0.3372	
-1.015162	0.006344	0.061976	-15.75	-6.09	9.8	0.4123	-0.0303	-0.3295	
-1.016504	0.001098	0.06466	-8.47	-6.79	10.08	0.4163	-0.0318	-0.3205	
-1.0248	0.010126	0.07015	-4.34	-7.49	7.84	0.4122	-0.0303	-0.328	
-1.012844	0.005002	0.065392	7	-8.75	6.02	0.4039	-0.032	-0.3353	
-1.026752	0.019398	0.069662	16.59	-9.24	7.84	0.4122	-0.0459	-0.3267	
-1.0126	0.022204	0.069052	18.55	-10.57	7.07	0.411	-0.0398	-0.3356	
-1.017236	0.05551	0.070882	25.62	-12.39	6.09	0.4109	-0.035	-0.331	
-1.011136	0.083448	0.070394	26.32	-13.86	5.53	0.4038	-0.0428	-0.3309	
-0.99979	0.088328	0.06283	29.47	-14.49	4.69	0.4067	-0.0429	-0.334	
-1.011624	0.074054	0.070272	35.21	-14.63	3.43	0.4052	-0.0397	-0.3324	
-1.009184	0.089304	0.080764	42	-13.79	2.8	0.401	-0.0507	-0.334	
-1.00345	0.085522	0.0854	42.77	-13.44	3.36	0.4041	-0.0587	-0.3418	
-1.00589	0.10431	0.08479	43.4	-12.95	1.82	0.4072	-0.0604	-0.3494	
-1.010648	0.116388	0.070516	42.98	-13.02	1.12	0.3957	-0.0713	-0.3462	
-1.014308	0.10614	0.07808	43.89	-11.97	0.49	0.4	-0.0822	-0.3465	
-1.006744	0.11834	0.071492	43.47	-12.39	-1.75	0.4028	-0.0712	-0.3434	
-1.008574	0.107848	0.080642	40.81	-11.27	-3.57	0.4057	-0.0854	-0.3452	
-1.00894	0.102724	0.082716	42.07	-10.57	-6.23	0.3984	-0.0806	-0.3404	
-0.999058	0.123952	0.08845	42.91	-12.18	-7.91	0.3926	-0.0836	-0.3372	
-0.994178	0.128344	0.092476	41.65	-11.62	-10.22	0.3986	-0.0931	-0.3436	
-0.990762	0.125782	0.111508	39.34	-10.36	-10.92	0.4044	-0.0885	-0.3483	
-0.993202	0.133712	0.127856	33.81	-8.82	-12.32	0.4	-0.0853	-0.3451	
-0.995154	0.143472	0.140056	30.17	-8.33	-13.93	0.3943	-0.0884	-0.3434	
-0.980148	0.149084	0.12383	23.87	-6.93	-14.21	0.3917	-0.0933	-0.354	
-0.97356	0.130052	0.134932	20.58	-4.55	-14.42	0.3912	-0.0961	-0.3359	
-0.983808	0.13115	0.138714	16.38	-3.08	-13.86	0.3971	-0.0931	-0.3421	
-0.980148	0.127246	0.133224	10.22	-2.66	-13.3	0.3911	-0.0945	-0.3343	
-0.974414	0.101504	0.139812	6.02	-2.8	-12.67	0.391	-0.0867	-0.3312	
-0.991494	0.05795	0.140056	3.92	-1.89	-11.27	0.394	-0.07889999	-0.3357	
-1.006866	0.036234	0.148474	4.13	-1.19	-9.24	0.3971	-0.0994	-0.3422	
-1.00589	0.022936	0.134322	4.27	-0.84	-9.03	0.4024	-0.0835	-0.33	
-1.002718	0.009272	0.12322	2.8	-0.77	-9.1	0.4041	-0.09	-0.3392	
-0.999546	0.014274	0.140178	3.5	-0.77	-9.52	0.3941	-0.0852	-0.3373	
-0.99247	0.035258	0.130296	2.31	-1.05	-9.31	0.3969	-0.0836	-0.3358	
-0.989298	0.026352	0.134566	0.63	0.91	-8.33	0.3999	-0.0853	-0.3405	
-1.009794	0.015738	0.124196	0.28	1.05	-7.98	0.4011	-0.0805	-0.3344	
-1.007476	0.031476	0.128954	-0.63	1.96	-7.21	0.3925	-0.0836	-0.3342	
-0.99186	0.02013	0.111874	-2.59	1.26	-6.3	0.4026	-0.0821	-0.3375	
-1.003572	-0.008417999	0.099674	-3.29	0.77	-5.11	0.4053	-0.0851	-0.3301	
-1.021384	0.002684	0.134566	-1.33	0.91	-4.48	0.3925	-0.0757	-0.3326	
-1.0248	0.01281	0.134078	-2.1	1.05	-4.48	0.4028	-0.0775	-0.3435	
-1.006866	0.024156	0.135664	-2.52	1.47	-4.55	0.4069	-0.0915	-0.3378	
-0.999668	0.020862	0.12749	-5.04	1.54	-4.76	0.3971	-0.0853	-0.3419	
-0.999302	0.020618	0.126758	-7	1.89	-4.9	0.3986	-0.0806	-0.3449	
-1.006622	-0.005368	0.128222	-7.14	1.96	-4.41	0.4056	-0.0728	-0.3435	
