Sensor string: A
Serial number: 1970-01-0000
Firmware version: 2,015
Hardware version: 2,2
Calibration quality: 5
ax	ay	az	gx	gy	gz	mx	my	mz

-0.086742	0.889868	0.460916	-0.63	-0.21	-0.21	0.0009	-0.2894	-0.3731	Reference
-0.088572	0.896334	0.461892	-0.7	0	-0.49	-0.0093	-0.2847	-0.3656	
-0.098088	0.886696	0.461526	0.14	0.63	-0.63	-0.0122	-0.2846	-0.3567	
-0.094062	0.878644	0.465308	0.35	0.35	-0.56	-0.0034	-0.2894	-0.3656	
-0.081496	0.890356	0.46299	1.33	-0.7	-0.28	-0.0049	-0.2878	-0.3746	
-0.08357	0.891088	0.459086	0.35	-0.56	0.14	-0.0076	-0.3001	-0.3612	
-0.086986	0.889624	0.452986	-1.61	0.84	-0.14	0.0008	-0.2802	-0.3656	
-0.094062	0.902434	0.4514	-1.75	1.33	0.07	-0.0049	-0.2816	-0.3716	
-0.100894	0.915122	0.442128	-1.75	1.19	0.42	-0.0151	-0.2862	-0.3731	
-0.102114	0.918416	0.437858	-1.89	1.12	0.42	-0.0019	-0.2894	-0.3761	
-0.10248	0.926956	0.43493	-3.01	0.42	0.77	-0.0079	-0.2754	-0.3716	
-0.102968	0.931104	0.427854	-4.41	0.42	0.77	-0.0048	-0.2924	-0.3656	
-0.097844	0.91561	0.42151	-7.7	1.05	0	-0.002	-0.2863	-0.3731	
-0.101626	0.917684	0.421632	-9.52	0.49	-0.49	-0.0005	-0.2848	-0.3716	
-0.102846	0.906338	0.423462	-9.03	-0.49	-0.56	-0.0049	-0.2832	-0.382	
-0.096624	0.904508	0.429684	-8.12	-3.08	-0.14	-0.0006	-0.2802	-0.3775	
-0.094062	0.902556	0.433588	-7.7	-5.18	0.49	-0.005	-0.2755	-0.376	
-0.101016	0.909144	0.441396	-8.96	-5.95	0.84	-0.0108	-0.2785	-0.3746	
-0.096136	0.920368	0.441762	-11.41	-6.09	0.7	-0.0035	-0.2832	-0.3775	
-0.096746	0.917196	0.44896	-14.84	-5.95	0.63	-0.0094	-0.2723	-0.3731	
-0.100894	0.92415	0.443226	-18.2	-5.25	0.98	-0.0006	-0.2771	-0.3716	
-0.09942999	0.926834	0.440054	-20.72	-5.81	1.75	-0.007999999	-0.2739	-0.388	
-0.101138	0.920734	0.432002	-23.17	-5.81	1.82	-0.0035	-0.2817	-0.3805	
-0.097356	0.930006	0.427854	-30.1	-5.04	2.31	-0.0066	-0.2646	-0.3865	
-0.089914	0.924638	0.419924	-32.48	-6.44	3.08	-0.0082	-0.2569	-0.3924	
-0.085034	0.90768	0.418338	-34.86	-8.19	3.43	-0.011	-0.2661	-0.385	
-0.087352	0.909998	0.421144	-37.59	-10.22	3.36	-0.0126	-0.2538	-0.3925	
-0.099186	0.911218	0.429562	-41.02	-14.14	5.04	-0.004	-0.2384	-0.3999	
-0.090524	0.906338	0.44347	-40.88	-16.1	5.6	-0.0156	-0.2506	-0.3939	
-0.088816	0.90219	0.45384	-39.76	-21.35	7.56	-0.0187	-0.2367	-0.4029	
-0.07808	0.891332	0.468724	-42.49	-20.79	6.86	-0.0276	-0.2304	-0.3954	
-0.07259	0.850096	0.490196	-46.55	-21.42	7.7	-0.0248	-0.2181	-0.3984	
-0.057096	0.846558	0.496906	-55.37	-19.25	4.97	-0.0234	-0.2135	-0.4014	
-0.062098	0.85644	0.52826	-56.42	-21.77	2.87	-0.0366	-0.2102	-0.4059	
-0.056242	0.844362	0.554124	-61.88	-21.7	3.92	-0.0381	-0.2071	-0.4104	
-0.03355	0.828014	0.569984	-62.58	-22.05	3.01	-0.0398	-0.1917	-0.4238	
-0.026474	0.76311	0.582306	-71.82	-17.99	0.63	-0.0503	-0.1746	-0.4283	
-0.007808	0.726388	0.601826	-74.13	-17.78	-1.05	-0.0577	-0.1637	-0.4283	
-0.030134	0.702354	0.630374	-70.35	-19.88	-3.22	-0.0653	-0.1451	-0.4387	
-0.024766	0.659532	0.655018	-69.51	-23.38	-0.35	-0.058	-0.142	-0.4372	
-0.022936	0.625494	0.67771	-68.25	-26.04	1.89	-0.0611	-0.1281	-0.4372	
0.00549	0.598288	0.71065	-67.9	-26.39	3.29	-0.0612	-0.1173	-0.4432	
0.026718	0.576572	0.735538	-69.44	-24.99	4.83	-0.0643	-0.1018	-0.4372	
0.044652	0.536434	0.742126	-74.62	-22.54	5.88	-0.0718	-0.0909	-0.4476	
0.026962	0.514474	0.75152	-73.57	-21.84	5.81	-0.0719	-0.0786	-0.4476	
0.010248	0.493612	0.76067	-73.64	-23.59	6.16	-0.0794	-0.063	-0.4461	
0.022448	0.457012	0.786778	-74.9	-25.83	5.74	-0.08549999	-0.0506	-0.4521	
0.0244	0.436028	0.81191	-73.5	-26.11	3.78	-0.0913	-0.049	-0.4476	
0.073322	0.39711	0.823134	-72.59	-26.04	2.38	-0.0916	-0.0258	-0.4461	
0.100528	0.359046	0.850218	-71.12	-26.46	1.47	-0.1048	-0.0287	-0.4506	
0.106384	0.349164	0.865834	-71.12	-26.81	3.29	-0.099	-0.0149	-0.4431	
0.124806	0.321226	0.903166	-66.29	-24.92	3.92	-0.1007	0.002	-0.4401	
0.121024	0.294996	0.923418	-66.15	-23.24	3.99	-0.1022	0.0051	-0.4401	
0.140178	0.263886	0.936472	-63.35	-21.98	3.99	-0.1112	0.0238	-0.4506	
0.16043	0.243634	0.940376	-62.37	-20.44	4.97	-0.1245	0.0347	-0.4387	
0.170678	0.226432	0.944768	-60.76	-17.99	5.32	-0.1187	0.0424	-0.4342	
0.170678	0.21106	0.960384	-58.94	-15.89	4.9	-0.1203	0.0517	-0.4416	
0.19093	0.178242	0.96197	-60.48	-13.86	5.18	-0.135	0.0596	-0.4268	
0.166408	0.174338	0.950136	-56.7	-11.97	4.9	-0.1352	0.0704	-0.4342	
0.17263	0.15616	0.9638	-54.95	-12.18	3.99	-0.1309	0.0796	-0.4342	
0.178486	0.152988	0.974536	-53.97	-11.76	3.99	-0.1397	0.0828	-0.4253	
0.194834	0.137982	0.970266	-49.14	-11.9	2.59	-0.1311	0.0982	-0.4282	
0.197274	0.126392	0.969412	-48.44	-10.99	3.78	-0.1253	0.1043	-0.4237	
0.187758	0.11407	0.975512	-46.13	-10.01	3.22	-0.137	0.1029	-0.4252	
0.195932	0.110044	0.988566	-46.62	-9.87	3.22	-0.146	0.1184	-0.4222	
0.193004	0.089426	0.99796	-40.88	-10.5	1.4	-0.1387	0.1276	-0.4177	
0.194712	0.072956	1.008696	-38.92	-10.15	-0.56	-0.1388	0.1338	-0.4252	
0.216184	0.036844	1.008696	-38.36	-8.33	-1.12	-0.1448	0.1447	-0.4043	
0.221186	0.030622	1.021262	-33.18	-8.68	-1.19	-0.1433	0.1431	-0.4088	
0.221918	0.017324	1.04249	-30.52	-8.89	-2.03	-0.1508	0.1602	-0.4058	
0.219112	0.000244	1.048224	-28.56	-8.19	-2.45	-0.1463	0.1524	-0.4088	
0.249734	-0.02318	1.065914	-25.48	-6.44	-3.43	-0.1478	0.1571	-0.3984	
0.257176	-0.036356	1.091168	-20.58	-5.32	-3.43	-0.1435	0.1648	-0.3939	
0.265716	-0.065514	1.09251	-16.17	-1.54	-4.55	-0.1509	0.1664	-0.3998	
0.260592	-0.076006	1.114348	-10.78	1.68	-3.85	-0.1479	0.1648	-0.3954	
0.238388	-0.084668	1.114348	-5.6	3.92	-3.64	-0.1612	0.1712	-0.3969	
0.286212	-0.130906	1.11264	-4.83	5.53	-2.59	-0.1568	0.1696	-0.4043	
0.270474	-0.134078	1.143384	-1.05	6.16	0.21	-0.1552	0.1603	-0.4028	
0.27023	-0.153598	1.120326	4.9	12.46	0.84	-0.148	0.1756	-0.4073	
0.26901	-0.160796	1.129476	16.24	12.81	0.35	-0.1479	0.1679	-0.4043	
0.268034	-0.164944	1.123986	24.92	14.91	-0.42	-0.1406	0.1632	-0.4028	
0.259982	-0.16897	1.124718	29.75	18.2	0.7	-0.142	0.1555	-0.4103	
0.247416	-0.171288	1.131916	35.77	20.86	3.01	-0.1434	0.1555	-0.3998	
0.232776	-0.149328	1.110932	51.24	22.05	7.21	-0.1374	0.1446	-0.4133	
0.235704	-0.137494	1.069086	57.82	26.25	9.24	-0.1229	0.149	-0.4207	
0.228262	-0.104554	1.02663	65.24	27.02	9.52	-0.1213	0.1398	-0.4177	
0.194224	-0.06954	1.024678	75.95	29.12	5.6	-0.1285	0.1321	-0.4222	
0.17568	-0.02135	0.987956	83.09	29.05	3.71	-0.1078	0.1149	-0.4236	
0.163236	0.011468	0.960262	86.59	29.54	2.94	-0.118	0.1073	-0.4386	
0.143472	0.06039	0.937814	91.42	31.36	1.26	-0.1076	0.08859999	-0.4386	
0.154452	0.09211	0.90646	93.31	34.37	2.87	-0.1015	0.0777	-0.4311	
0.120658	0.141398	0.881328	108.99	52.29	-13.16	-0.094	0.0606	-0.4416	
0.049898	0.205326	0.851682	107.59	60.9	-7.21	-0.0894	0.042	-0.4401	
0.06527	0.228872	0.825818	107.66	40.25	-2.45	-0.0863	0.0204	-0.4595	
0.037942	0.295484	0.782142	106.26	49.42	-0.77	-0.07	0.0094	-0.452	
0.035258	0.322568	0.756522	112.77	50.05	-4.48	-0.0639	-0.0138	-0.4505	
-0.001342	0.362462	0.714676	109.69	55.09	-4.2	-0.0593	-0.0293	-0.4535	
-0.019032	0.406016	0.674538	109.06	55.09	-3.01	-0.0503	-0.0479	-0.455	
-0.050996	0.465308	0.634522	107.17	49.42	-0.14	-0.025	-0.07759999	-0.4385	
-0.095892	0.517158	0.615002	106.68	45.78	0.14	-0.0205	-0.0931	-0.4415	
-0.12261	0.586942	0.600728	105.35	42.07	2.31	-0.0144	-0.1132	-0.4445	
-0.128832	0.640256	0.609146	106.4	33.18	2.59	-0.0127	-0.1287	-0.443	
-0.120048	0.676124	0.589748	100.24	31.22	3.5	-0.0096	-0.1442	-0.4326	
-0.098088	0.69967	0.571082	100.03	28	3.15	0.0096	-0.1614	-0.4236	
-0.06466	0.7015	0.526552	97.58	28.56	1.75	0.0068	-0.1752	-0.4177	
-0.072102	0.702476	0.48922	90.51	31.57	0.21	0.007	-0.1891	-0.4117	
-0.102602	0.734074	0.463722	92.33	29.26	0.28	0.0115	-0.1954	-0.4177	
-0.11346	0.778604	0.429196	98.35	28.63	3.85	0.0118	-0.2201	-0.4073	
-0.124318	0.812642	0.400526	94.78	32.06	7.63	0.0208	-0.2341	-0.3923	
-0.156404	0.867176	0.358924	95.34	31.15	8.82	0.0252	-0.2372	-0.3908	
-0.139568	0.938912	0.320982	99.12	28.49	7.91	0.0211	-0.2619	-0.3789	
-0.169946	1.015406	0.295972	83.3	28.91	10.22	0.0418	-0.2776	-0.3804	
-0.211914	1.06689	0.271938	78.47	20.93	8.82	0.0272	-0.282	-0.3685	
-0.207888	1.090314	0.257054	75.11	17.29	5.95	0.0362	-0.2929	-0.361	
-0.183	1.057008	0.222406	52.57	18.06	-0.63	0.032	-0.3114	-0.3536	
-0.172142	1.039562	0.207278	39.34	14.42	-5.53	0.0466	-0.3085	-0.3521	
-0.16836	1.01443	0.19825	34.58	9.73	-9.73	0.0364	-0.313	-0.3461	
-0.18666	1.0126	0.203984	34.79	8.12	-9.31	0.0512	-0.324	-0.3446	
-0.200812	1.014308	0.194956	38.43	2.59	-7.91	0.057	-0.3194	-0.3386	
-0.19764	1.015528	0.200324	45.15	-6.37	-5.81	0.0424	-0.3223	-0.3267	
-0.17934	1.016992	0.218746	48.72	-2.38	-3.5	0.0513	-0.3271	-0.3342	
-0.195688	1.01992	0.203008	38.22	1.33	-3.64	0.0499	-0.3348	-0.3223	
-0.181048	1.029558	0.188612	35.35	-2.94	-4.34	0.0485	-0.3378	-0.3223	
-0.169092	1.029802	0.197884	36.05	-1.33	-4.55	0.0429	-0.3563	-0.3163	
-0.160308	1.019798	0.187758	33.67	1.61	-4.27	0.0516	-0.3518	-0.3118	
-0.134566	0.989664	0.180316	27.93	2.45	-6.37	0.0516	-0.3487	-0.3014	
-0.14579	1.0431	0.16958	31.08	3.71	-9.24	0.0546	-0.3564	-0.3103	
-0.190808	1.074942	0.1403	17.36	11.69	-6.72	0.0488	-0.3579	-0.3133	
-0.206668	1.065182	0.128588	13.79	11.55	-5.67	0.0621	-0.3704	-0.3014	
-0.212768	1.052128	0.134322	4.9	14.14	-8.12	0.0636	-0.3704	-0.2954	
-0.235338	1.061766	0.131394	5.67	3.36	-6.65	0.0739	-0.3721	-0.2939	
-0.22753	1.049688	0.136518	4.9	0.84	-6.02	0.068	-0.3674	-0.2984	
-0.222894	1.054324	0.127612	4.48	-2.24	-3.29	0.0651	-0.3705	-0.2984	
-0.228018	1.05835	0.130296	3.71	-6.37	-1.05	0.0696	-0.3767	-0.288	
-0.233752	1.061766	0.123708	-0.98	-6.44	0	0.0753	-0.3644	-0.2984	
-0.227042	1.056154	0.13359	-5.46	-6.65	0.28	0.0665	-0.3689	-0.2924	
-0.220576	1.057374	0.14884	-7.42	-7.98	1.26	0.0679	-0.3659	-0.2954	
-0.209474	1.04676	0.158356	-10.01	-9.17	2.17	0.0606	-0.3596	-0.288	
-0.185928	1.023092	0.159454	-15.61	-8.05	2.1	0.0634	-0.3519	-0.2984	
-0.175314	1.021872	0.173484	-14.28	-7.14	0.7	0.0548	-0.3734	-0.3029	
-0.176778	1.020042	0.1952	-14	-7.63	0.7	0.065	-0.3627	-0.2939	
-0.179462	1.0065	0.191174	-18.9	-6.51	0.07	0.0605	-0.3596	-0.3133	
-0.185318	1.006744	0.186904	-19.67	-5.88	0.91	0.0576	-0.3626	-0.2984	
-0.196908	1.014186	0.188124	-24.43	-5.18	1.47	0.0575	-0.3549	-0.3029	
-0.203618	1.001132	0.20374	-29.82	-6.09	2.59	0.0605	-0.3611	-0.3148	
-0.187636	1.006744	0.207034	-29.12	-6.37	3.29	0.0545	-0.3487	-0.3133	
-0.15616	0.98454	0.245708	-28.07	-7.07	6.72	0.0544	-0.3441	-0.3208	
-0.164944	1.003084	0.24583	-28.21	-10.71	6.02	0.0486	-0.344	-0.3208	
-0.158966	1.01321	0.228506	-36.75	-3.15	4.69	0.0427	-0.3424	-0.3268	
-0.218258	1.00528	0.234484	-52.64	-17.85	6.58	0.0513	-0.3286	-0.3312	
-0.187636	1.016504	0.241194	-47.39	-15.12	6.79	0.044	-0.3332	-0.3402	
-0.206302	1.001254	0.254492	-49.56	-11.55	4.34	0.0452	-0.3085	-0.3461	
-0.151402	0.933422	0.295606	-37.38	-16.31	3.64	0.0424	-0.3193	-0.3446	
-0.13847	0.94794	0.296582	-51.38	-9.94	6.37	0.032	-0.3099	-0.3462	
-0.164212	0.951844	0.271572	-54.46	-14.14	5.6	0.0319	-0.2991	-0.3551	
-0.170312	0.97722	0.277672	-55.3	-14.28	5.39	0.0289	-0.3006	-0.3581	
-0.190808	0.97783	0.285114	-61.6	-16.24	5.67	0.0273	-0.2851	-0.3611	
-0.203374	0.937448	0.309758	-66.01	-21.35	6.02	0.0332	-0.2883	-0.3655	
-0.189588	0.890966	0.345504	-66.01	-31.99	4.9	0.033	-0.2744	-0.3759	
-0.146644	0.849974	0.376248	-72.59	-30.38	4.41	0.0256	-0.2728	-0.3819	
-0.132126	0.85034	0.400892	-68.04	-32.48	1.4	0.0209	-0.2495	-0.3894	
-0.123952	0.856806	0.448106	-63.35	-42	1.4	-0.0011	-0.2416	-0.3984	
-0.138958	0.85095	0.472384	-67.34	-45.22	3.64	-0.0057	-0.2261	-0.4058	
-0.1037	0.83265	0.510448	-61.18	-53.48	2.24	-0.0101	-0.2229	-0.4058	
-0.072102	0.773602	0.557906	-68.81	-51.66	1.54	-0.022	-0.2058	-0.4133	
-0.063562	0.720654	0.578158	-76.09	-46.9	-1.61	-0.0148	-0.2012	-0.4193	
-0.030744	0.706014	0.593042	-71.33	-46.2	-4.27	-0.0383	-0.1917	-0.4193	
-0.014884	0.674904	0.639768	-74.2	-44.03	-3.99	-0.0386	-0.1747	-0.4312	
-0.014884	0.655506	0.674782	-75.95	-37.8	-5.18	-0.0387	-0.1623	-0.4252	
0.004636	0.612318	0.675392	-82.04	-35.14	-1.68	-0.0492	-0.1452	-0.4327	
0.016958	0.554124	0.697718	-81.41	-33.39	1.19	-0.0594	-0.1467	-0.4402	
0.033184	0.514474	0.722118	-74.27	-33.74	3.64	-0.0596	-0.1266	-0.4342	
0.066246	0.511424	0.746884	-71.4	-33.6	5.88	-0.076	-0.1109	-0.4432	
0.043066	0.510448	0.752008	-73.36	-30.8	6.72	-0.0643	-0.108	-0.4387	
0.046116	0.492514	0.773114	-73.99	-29.54	7.42	-0.079	-0.097	-0.4372	
0.069296	0.451522	0.787144	-74.97	-28.07	5.81	-0.0865	-0.0907	-0.4417	
0.066856	0.413092	0.821914	-74.62	-28.42	6.09	-0.0896	-0.0691	-0.4432	
0.096868	0.382226	0.844728	-72.87	-26.95	6.02	-0.0898	-0.0567	-0.4417	
0.082472	0.377956	0.85949	-67.34	-25.2	6.51	-0.0944	-0.0381	-0.4446	
0.102724	0.356362	0.884256	-66.36	-24.29	7.91	-0.0989	-0.0319	-0.4491	
0.113948	0.337208	0.90097	-66.29	-23.45	10.78	-0.1091	-0.0318	-0.4447	
0.151036	0.309636	0.913536	-63	-20.86	10.01	-0.1079	-0.0117	-0.4491	
0.123342	0.304268	0.925614	-60.48	-18.13	9.73	-0.1066	0.0021	-0.4402	
0.141276	0.283772	0.940498	-59.64	-18.27	10.29	-0.1228	0.0116	-0.4402	
0.15616	0.268766	0.942694	-58.8	-17.08	10.5	-0.1229	0.0193	-0.4476	
0.169092	0.25071	0.944402	-56.56	-14.35	9.66	-0.12	0.0239	-0.4357	
0.164822	0.22936	0.966728	-54.46	-13.79	9.38	-0.1231	0.0409	-0.4372	
0.165798	0.206546	0.989176	-51.8	-14.63	10.08	-0.1203	0.0501	-0.4342	
0.159088	0.188734	0.997106	-44.31	-13.86	8.75	-0.1264	0.06879999	-0.4312	
0.17751	0.176168	0.99857	-42.28	-12.81	6.86	-0.1234	0.0625	-0.4357	
0.192516	0.168238	1.008086	-40.11	-10.85	5.67	-0.1293	0.06879999	-0.4446	
0.200934	0.160186	1.017358	-36.96	-9.45	4.2	-0.1411	0.07979999	-0.4267	
0.21655	0.129808	1.043344	-32.97	-9.03	3.15	-0.1293	0.075	-0.4252	
0.207888	0.117486	1.05652	-29.33	-7.63	2.17	-0.1369	0.0936	-0.4252	
0.234484	0.09357399	1.055178	-24.36	-5.53	0.91	-0.1472	0.0937	-0.4297	
0.22997	0.094428	1.071038	-19.11	-3.78	0.42	-0.1414	0.1029	-0.4252	
0.231434	0.083936	1.07177	-14.84	-1.4	-0.28	-0.1312	0.1043	-0.4267	
0.216062	0.0854	1.070916	-10.92	0.63	-0.98	-0.137	0.1044	-0.4342	
0.240828	0.064294	1.066402	-8.47	2.31	-2.24	-0.1356	0.1121	-0.4282	
0.22204	0.060756	1.083116	-3.71	4.27	-2.94	-0.1415	0.1137	-0.4327	
0.188612	0.069784	1.088606	-0.35	4.13	-0.77	-0.1311	0.0966	-0.4327	
0.215086	0.05185	1.090436	7.42	5.11	-2.17	-0.1428	0.0999	-0.4252	
0.24339	0.03843	1.09922	12.18	5.74	-1.96	-0.1297	0.1012	-0.4327	
0.228628	0.051484	1.09312	17.64	7.28	-1.33	-0.1371	0.1106	-0.4312	
0.224846	0.054412	1.080066	24.22	10.92	-3.99	-0.1311	0.1013	-0.4297	
0.20801	0.058072	1.07665	27.79	12.81	-4.55	-0.1311	0.0997	-0.4297	
0.207278	0.068564	1.07665	33.88	13.09	-4.62	-0.1236	0.0873	-0.4237	
0.198494	0.08418	1.061034	40.25	15.96	-4.2	-0.1265	0.08419999	-0.4342	
0.197152	0.09552599	1.054812	44.45	19.46	-2.8	-0.1293	0.0703	-0.4387	
0.19825	0.115656	1.036024	52.85	18.27	-1.33	-0.122	0.0733	-0.4371	
0.179462	0.13298	1.004548	51.8	26.88	1.4	-0.1219	0.0579	-0.4461	
0.17141	0.155062	0.999546	62.86	24.22	0.35	-0.11	0.05	-0.4401	
0.160796	0.16714	0.974414	68.88	28.63	-1.61	-0.11	0.0485	-0.4357	
0.150304	0.206424	0.941962	76.44	33.04	-4.55	-0.0968	0.0406	-0.4461	
0.117486	0.247904	0.913902	77.7	36.75	-3.78	-0.098	0.0236	-0.4491	
0.105164	0.264984	0.89548	78.96	37.59	-2.87	-0.0935	0.0127	-0.4491	
0.12871	0.268156	0.863028	87.22	43.75	-5.74	-0.0905	0.0034	-0.455	
0.062342	0.321836	0.81374	94.22	58.24	-12.95	-0.0799	-0.0213	-0.4476	
0.02318	0.358314	0.775554	92.96	57.68	-6.79	-0.0769	-0.0306	-0.4476	
0.014518	0.39101	0.735538	94.99	57.19	-6.65	-0.0679	-0.0462	-0.4446	
-0.048556	0.43493	0.694424	93.66	64.96	-7.63	-0.0561	-0.0571	-0.4461	
-0.06771	0.481046	0.682834	97.23	54.32	-4.41	-0.0426	-0.0774	-0.449	
-0.090524	0.521916	0.660264	98.42	49.77	-2.73	-0.038	-0.096	-0.4505	
-0.09467199	0.589382	0.646844	98.84	46.27	-0.56	-0.0156	-0.1271	-0.4326	
-0.119926	0.669902	0.609268	100.8	41.44	0.49	-0.0082	-0.1396	-0.4356	
-0.139934	0.711626	0.58194	98.21	37.8	1.19	-0.0007	-0.1551	-0.4281	
-0.143716	0.732366	0.569374	96.32	31.15	1.33	0.0039	-0.1768	-0.4296	
-0.102236	0.737856	0.529358	90.86	31.71	-2.94	0.0084	-0.1861	-0.4177	
-0.122	0.748836	0.484828	85.26	36.33	-3.92	0.013	-0.1985	-0.4102	
-0.1342	0.756888	0.44957	82.46	40.53	-0.7	0.0204	-0.2109	-0.4132	
-0.140178	0.773968	0.416386	84.56	37.24	1.61	0.0219	-0.2109	-0.4013	
-0.168482	0.79178	0.386496	81.97	32.9	2.94	0.0295	-0.2296	-0.3968	
-0.163114	0.823866	0.365146	78.82	30.24	5.04	0.0415	-0.2529	-0.3968	
-0.15921	0.85766	0.365024	81.97	24.64	6.58	0.0371	-0.2559	-0.3864	
-0.179462	0.905972	0.34953	83.23	25.48	7.21	0.0462	-0.2761	-0.3819	
-0.208986	0.936838	0.318298	75.04	28.21	8.19	0.0492	-0.2854	-0.3789	
-0.203862	0.978928	0.301706	72.94	26.6	8.82	0.0566	-0.2808	-0.355	
-0.219356	0.996862	0.292556	61.88	20.86	7.91	0.048	-0.3039	-0.3491	
-0.200324	1.025776	0.278282	53.9	16.94	5.32	0.054	-0.3086	-0.3536	
-0.179462	1.020408	0.272182	41.65	17.43	3.64	0.0556	-0.3271	-0.3491	
-0.17507	0.98881	0.260836	37.31	14.84	1.61	0.0629	-0.3149	-0.3371	
-0.154696	0.977098	0.25376	33.81	17.78	0.42	0.06439999	-0.3241	-0.3371	
-0.164212	0.953186	0.261568	28.35	13.86	-1.4	0.0498	-0.3286	-0.3342	
-0.160674	0.965264	0.252296	31.78	9.31	-2.1	0.0645	-0.3257	-0.3252	
-0.163602	0.962214	0.243146	29.54	3.43	-2.94	0.0689	-0.3304	-0.3252	
-0.160308	0.991494	0.223626	32.55	-3.29	-4.34	0.0646	-0.3365	-0.3192	
-0.183732	0.97051	0.214598	46.62	-12.67	-1.47	0.0589	-0.3457	-0.3148	
-0.127978	1.007354	0.224724	35.77	20.58	0.42	0.0692	-0.352	-0.3148	
-0.167994	1.01077	0.171776	25.83	25.76	2.24	0.0706	-0.3489	-0.3133	
-0.20069	1.017846	0.137616	27.44	14.14	0.49	0.0752	-0.3598	-0.3118	
-0.191662	1.054812	0.135176	24.29	13.93	0.35	0.0664	-0.3597	-0.3073	
-0.232532	1.070306	0.122488	17.92	16.87	0	0.07229999	-0.3644	-0.2954	
-0.268156	1.071648	0.109922	15.47	11.34	1.54	0.0708	-0.3613	-0.3073	
-0.27023	1.079944	0.101382	15.19	3.08	1.12	0.0796	-0.3614	-0.2879	
-0.265106	1.08031	0.079666	15.47	-2.59	-1.68	0.07539999	-0.3737	-0.2894	
-0.253516	1.058838	0.078934	13.3	-2.73	-2.03	0.0753	-0.369	-0.2864	
-0.23241	1.049688	0.088572	12.95	-5.88	-1.47	0.074	-0.3767	-0.2835	
-0.254614	1.075064	0.109312	0.77	-8.61	-0.56	0.0695	-0.3705	-0.2879	
-0.207156	1.030412	0.136762	-3.22	-25.13	-7.56	0.0681	-0.3767	-0.2939	
-0.15799	1.047736	0.10126	19.95	-13.51	-8.68	0.0696	-0.3813	-0.2895	
-0.18605	1.039928	0.11468	11.27	19.67	-5.18	0.0724	-0.3736	-0.2924	
-0.185318	1.058106	0.11163	8.82	17.5	-4.27	0.0739	-0.369	-0.279	
-0.200446	1.053348	0.102114	6.37	8.75	-6.37	0.0769	-0.3767	-0.2671	
-0.21594	1.061522	0.12871	-15.4	-4.13	-1.26	0.0725	-0.3798	-0.285	
-0.228384	1.03212	0.11834	-23.94	-13.58	-0.98	0.0769	-0.3768	-0.2879	
-0.210694	1.043954	0.122366	-17.15	-20.51	-0.91	0.07099999	-0.3705	-0.2835	
-0.208986	1.034194	0.138348	-15.47	-12.11	-2.03	0.0694	-0.3659	-0.2879	
-0.162016	1.051274	0.10675	-14.63	-4.69	-5.53	0.0738	-0.3644	-0.2894	
-0.14823	0.994666	0.178364	-13.37	-10.99	-4.34	0.0783	-0.3706	-0.2939	
-0.15799	1.01748	0.224602	-24.85	-15.33	-1.33	0.07229999	-0.3644	-0.2969	
-0.19276	1.014918	0.160796	-35.42	-18.13	0.21	0.0664	-0.3612	-0.3029	
-0.209596	1.031022	0.142618	-36.05	-20.16	-1.61	0.0736	-0.3551	-0.3118	
-0.21106	1.054324	0.142618	-43.89	-17.57	-1.12	0.0634	-0.355	-0.3073	
-0.232532	1.00833	0.203496	-40.46	-22.05	1.68	0.0663	-0.355	-0.3222	
-0.203008	0.983808	0.242292	-43.05	-22.68	-0.63	0.0632	-0.3365	-0.3103	
-0.160918	0.977952	0.221674	-38.78	-22.68	-1.75	0.0588	-0.3395	-0.3252	
-0.173606	1.001132	0.207644	-47.32	-14.49	-0.21	0.0542	-0.3271	-0.3327	
-0.195078	1.021262	0.188246	-50.19	-15.89	1.19	0.0542	-0.3271	-0.3297	
-0.213256	1.02358	0.20557	-53.97	-20.79	1.61	0.0484	-0.3301	-0.3402	
-0.220088	0.94367	0.244854	-63	-25.13	3.15	0.0394	-0.3146	-0.3387	
-0.177144	0.909388	0.285358	-68.74	-23.38	2.73	0.0452	-0.3085	-0.3506	
-0.187636	0.954894	0.264984	-66.85	-24.78	3.22	0.0509	-0.2962	-0.3565	
-0.183976	0.957822	0.271572	-69.44	-30.24	3.22	0.0346	-0.2852	-0.3625	
-0.198494	0.91622	0.315248	-74.97	-27.65	4.13	0.0404	-0.2822	-0.3819	
-0.185806	0.893894	0.343064	-72.03	-34.37	4.2	0.0242	-0.2758	-0.376	
-0.177998	0.86681	0.400526	-66.15	-45.64	3.78	0.0138	-0.2603	-0.3819	
-0.163968	0.830576	0.462136	-69.44	-48.86	5.39	0.0105	-0.2386	-0.3924	
-0.100772	0.81923	0.48495	-67.62	-51.52	5.39	0.0001	-0.223	-0.3939	
-0.089914	0.810812	0.503006	-71.82	-47.18	4.27	-0.0102	-0.2167	-0.4133	
-0.060756	0.769332	0.514108	-82.39	-44.59	3.57	-0.0205	-0.2104	-0.4088	
-0.090402	0.77104	0.560346	-83.79	-45.01	1.68	-0.0192	-0.1966	-0.4148	
-0.07686	0.710284	0.598532	-88.62	-42.84	2.45	-0.0311	-0.1871	-0.4193	
-0.031354	0.65636	0.631106	-89.81	-40.67	4.06	-0.0312	-0.1794	-0.4297	
-0.00305	0.640256	0.679662	-81.55	-40.11	3.85	-0.033	-0.1454	-0.4267	
0.002562	0.614026	0.719434	-79.31	-37.59	4.69	-0.0418	-0.1484	-0.4252	
0.011956	0.59048	0.729438	-81.62	-32.2	6.44	-0.0509	-0.1251	-0.4372	
0.036478	0.552416	0.732366	-86.17	-27.93	8.19	-0.0598	-0.1142	-0.4372	
0.032086	0.513376	0.754814	-89.18	-26.18	8.61	-0.0613	-0.1065	-0.4387	
0.044164	0.474214	0.745664	-88.62	-22.82	7.21	-0.06439999	-0.0941	-0.4461	
0.038796	0.439444	0.760914	-90.3	-22.47	7.63	-0.0705	-0.0724	-0.4431	
0.040992	0.408822	0.790438	-85.89	-23.24	6.23	-0.0735	-0.0662	-0.4416	
0.031842	0.370758	0.846192	-78.54	-27.23	3.5	-0.0825	-0.0568	-0.4536	
0.062952	0.336232	0.857294	-77.63	-26.18	2.17	-0.0857	-0.0305	-0.4431	
0.09394	0.307074	0.88328	-75.46	-24.64	1.54	-0.0887	-0.0212	-0.4446	
0.07686	0.289384	0.890844	-70.42	-21.56	0.21	-0.0961	-0.018	-0.4491	
0.065758	0.250954	0.908534	-69.58	-21.91	2.45	-0.0904	-0.0026	-0.4446	
0.090036	0.2257	0.931714	-65.8	-23.45	4.55	-0.092	0.0096	-0.4476	
0.119682	0.220698	0.956358	-59.08	-24.5	4.55	-0.1009	0.019	-0.4416	
0.158112	0.208254	0.970876	-55.58	-22.4	3.36	-0.1025	0.0329	-0.4476	
0.115656	0.207522	0.980148	-54.46	-19.11	3.92	-0.1129	0.0439	-0.4476	
0.176168	0.177266	0.986004	-51.87	-18.13	4.34	-0.1187	0.0409	-0.4416	
0.143228	0.180804	0.991982	-48.3	-15.26	3.43	-0.1145	0.0578	-0.4371	
0.166408	0.150548	0.989298	-48.65	-14.49	3.64	-0.1146	0.0655	-0.4342	
0.141764	0.142496	1.002962	-43.89	-13.58	2.31	-0.1118	0.0748	-0.4401	
0.162138	0.129442	1.025166	-41.37	-14.91	3.08	-0.1279	0.075	-0.4297	
0.181658	0.11834	1.017968	-37.73	-13.16	2.1	-0.1308	0.075	-0.4327	
0.195688	0.112728	1.030778	-35.14	-12.74	1.47	-0.1295	0.0827	-0.4312	
0.17934	0.113338	1.05347	-29.26	-11.13	0.56	-0.1371	0.1075	-0.4267	
0.22265	0.083448	1.065182	-26.11	-9.31	-0.7	-0.1356	0.109	-0.4297	
0.2013	0.066856	1.088972	-24.5	-8.05	-0.42	-0.1298	0.1121	-0.4252	
0.21655	0.043432	1.092632	-15.89	-5.11	-2.94	-0.1518	0.1185	-0.4267	
0.227652	0.0366	1.098244	-11.9	-3.92	-2.73	-0.1298	0.1136	-0.4192	
0.231312	0.031354	1.109468	-5.74	-2.24	-2.94	-0.1429	0.1091	-0.4148	
0.228018	0.019764	1.120936	-1.68	-0.21	-2.38	-0.1343	0.1229	-0.4267	
0.228628	0.013054	1.130574	2.38	1.68	-0.35	-0.1269	0.1136	-0.4237	
0.225334	0.009272	1.127524	7.98	4.06	1.68	-0.1356	0.1106	-0.4282	
0.23058	-0.004758	1.110566	12.67	6.65	1.96	-0.1371	0.1121	-0.4252	
0.228018	-0.011468	1.11752	18.48	9.17	1.54	-0.1313	0.1167	-0.4237	
0.232654	-0.015982	1.11325	24.92	11.06	1.47	-0.1312	0.1074	-0.4267	
0.22631	-0.01098	1.106052	34.16	13.86	0	-0.1341	0.1013	-0.4267	
0.21228	-0.004026	1.085434	39.34	17.22	0.21	-0.1298	0.1105	-0.4297	
0.21228	0.01525	1.07116	48.23	18.9	-0.21	-0.1222	0.0888	-0.4342	
0.201544	0.055632	1.035658	56.63	22.61	0.49	-0.1148	0.0794	-0.4341	
0.187026	0.078568	1.008696	61.81	24.64	0.35	-0.1176	0.0671	-0.4357	
0.171044	0.108214	0.987224	68.18	23.59	-0.07	-0.1147	0.07319999	-0.4371	
0.15921	0.13237	0.96258	74.48	25.34	-3.08	-0.1043	0.0623	-0.4341	
0.152012	0.176168	0.937204	78.89	30.66	-4.41	-0.09959999	0.0329	-0.4312	
0.12688	0.213866	0.901824	80.22	35.63	-4.69	-0.0997	0.0375	-0.4476	
0.108702	0.24217	0.875106	81.83	35.21	-3.92	-0.1009	0.0175	-0.4506	
0.092842	0.277062	0.841922	82.88	38.92	-3.36	-0.08899999	0.0065	-0.4401	
0.05002	0.31415	0.81496	92.12	51.17	-10.92	-0.0757	-0.0044	-0.4431	
0.043676	0.338062	0.795074	87.08	47.81	-6.02	-0.0785	-0.0213	-0.4461	
0.04087	0.377468	0.75945	93.1	43.19	-7.49	-0.0651	-0.0354	-0.4446	
0.006832	0.420046	0.73139	89.11	55.51	-8.19	-0.0634	-0.0539	-0.4476	
-0.015128	0.441762	0.722972	89.39	55.72	-8.89	-0.0546	-0.0602	-0.449	
-0.060878	0.488	0.68686	89.39	56.35	-4.83	-0.0471	-0.0742	-0.452	
-0.07564	0.509838	0.660508	93.03	51.59	-6.3	-0.0336	-0.1006	-0.4446	
-0.11224	0.548024	0.650138	87.08	46.62	0	-0.0203	-0.1101	-0.4401	
-0.112484	0.627324	0.601216	90.72	43.54	-3.85	-0.009699999	-0.138	-0.4326	
-0.137616	0.647088	0.58926	85.05	43.96	-1.05	0.0007	-0.1551	-0.4266	
-0.144692	0.682956	0.566812	89.88	34.3	-2.31	0.0066	-0.1567	-0.4296	
-0.131394	0.712236	0.54595	92.47	32.2	-2.94	0.0142	-0.1815	-0.4221	
-0.147254	0.727364	0.496662	85.54	34.79	-4.41	0.0157	-0.18	-0.4221	
-0.144692	0.759084	0.466406	96.95	28.7	-5.46	0.0218	-0.2032	-0.4013	
-0.165066	0.822646	0.447252	89.81	30.31	-6.23	0.019	-0.214	-0.4102	
-0.18117	0.881694	0.427	97.3	20.79	-7.63	0.0192	-0.231	-0.4028	
-0.206668	0.938302	0.370514	86.87	25.83	-9.66	0.0297	-0.2496	-0.3938	
-0.20618	1.013576	0.335256	78.89	26.18	-9.87	0.0402	-0.2637	-0.3849	
-0.246684	1.040538	0.32452	71.05	24.78	-7	0.0372	-0.2652	-0.3879	
-0.276574	1.004914	0.27938	59.22	25.9	-9.8	0.0418	-0.2714	-0.3729	
-0.237778	1.004304	0.254248	55.65	22.05	-10.99	0.0521	-0.2746	-0.3565	
-0.22692	0.989908	0.259616	50.4	15.96	-12.25	0.0465	-0.2961	-0.358	
-0.233874	0.978806	0.25437	43.4	14.98	-14.07	0.0581	-0.2901	-0.3565	
-0.268522	0.982222	0.23729	44.38	17.22	-15.89	0.0568	-0.3024	-0.352	
-0.327814	0.985272	0.205326	41.79	19.74	-11.06	0.0759	-0.3027	-0.3475	
-0.346358	0.987224	0.19764	41.44	10.08	-10.43	0.0702	-0.3181	-0.352	
-0.345382	1.005402	0.202276	43.54	-5.04	-9.66	0.076	-0.3104	-0.3371	
-0.32757	1.011746	0.200446	39.76	-13.44	-9.38	0.0731	-0.3181	-0.3431	
-0.2867	1.017846	0.204594	36.33	-16.45	-8.19	0.085	-0.3259	-0.3296	
-0.267546	1.011136	0.213256	39.2	-16.59	-9.17	0.0748	-0.3304	-0.3326	
-0.238876	0.993324	0.24034	35.77	-12.32	-10.22	0.0735	-0.3443	-0.3177	
-0.245098	1.012844	0.219844	29.82	-9.52	-10.36	0.0765	-0.3443	-0.3118	
-0.255102	1.00284	0.208864	23.52	-7.91	-9.73	0.0721	-0.3458	-0.3163	
-0.261202	0.98881	0.20313	13.37	-3.78	-8.61	0.0617	-0.3349	-0.3193	
-0.277306	0.984906	0.20435	9.87	-4.48	-7.63	0.0751	-0.3521	-0.3192	
-0.2928	0.984174	0.191296	7.63	-3.22	-6.51	0.0706	-0.3443	-0.3133	
-0.291214	0.978684	0.182634	5.46	-0.42	-4.97	0.0691	-0.3474	-0.3163	
-0.275964	0.976854	0.212768	11.69	-4.55	-3.29	0.0735	-0.3459	-0.3192	
-0.269742	0.984662	0.232044	12.25	-6.02	-0.14	0.0765	-0.3459	-0.3118	
-0.269376	0.966728	0.223626	6.37	-4.97	3.01	0.0794	-0.349	-0.3088	
-0.285724	0.960018	0.194956	-2.38	-3.71	5.81	0.0707	-0.3566	-0.3058	
-0.305976	0.940742	0.211426	-5.74	-4.34	8.33	0.0707	-0.3535	-0.3014	
-0.285236	0.957578	0.225212	-0.91	-5.46	9.73	0.0633	-0.3442	-0.3118	
-0.260592	0.982222	0.249612	8.4	-9.1	14.98	0.0678	-0.352	-0.3058	
-0.241804	0.949038	0.27694	0.7	-7.28	17.08	0.0635	-0.3612	-0.3059	
-0.222162	0.957578	0.245098	-5.46	-3.85	18.34	0.0619	-0.355	-0.3088	
-0.233386	0.94428	0.245586	-11.34	-0.84	19.32	0.0648	-0.3519	-0.3118	
-0.239486	0.937082	0.253272	-15.05	1.33	21	0.0502	-0.3579	-0.3104	
-0.254248	0.928542	0.256566	-19.95	2.73	22.19	0.0517	-0.3564	-0.3133	
-0.265716	0.93269	0.266326	-16.03	-0.49	23.59	0.0487	-0.3564	-0.3104	
-0.257176	0.913658	0.278892	-15.19	-1.75	24.01	0.0457	-0.344	-0.3089	
-0.229116	0.918416	0.289994	-13.16	-2.8	25.34	0.037	-0.3547	-0.3283	
-0.200934	0.934154	0.283772	-14.56	-4.2	27.51	0.0413	-0.3424	-0.3119	
-0.183366	0.938302	0.282308	-17.92	-3.22	28.77	0.0355	-0.3516	-0.3283	
-0.185074	0.94245	0.304268	-14.63	-5.25	30.31	0.0457	-0.3517	-0.3268	
-0.175802	0.91683	0.334768	-17.71	1.68	32.2	0.0251	-0.3453	-0.3313	
-0.1769	0.920246	0.320738	-21.84	2.03	34.72	0.0265	-0.3422	-0.3283	
-0.164456	0.917196	0.317566	-18.2	-0.14	36.19	0.025	-0.3345	-0.3298	
-0.171898	0.92598	0.29951	-31.57	4.83	38.43	0.0119	-0.3451	-0.3343	
-0.17202	0.934398	0.307928	-28	-0.28	39.34	0.0175	-0.3251	-0.3387	
-0.15555	0.935374	0.347334	-20.37	-5.39	39.76	0.0074	-0.3343	-0.3298	
-0.130418	0.912316	0.375272	-15.05	-11.27	43.19	-0.0015	-0.3203	-0.3463	
-0.06405	0.872422	0.389546	-19.18	-15.47	42.56	0.0001	-0.3373	-0.3313	
-0.03843	0.905606	0.385886	-25.83	-13.16	40.88	-0.0117	-0.3263	-0.3522	
-0.045994	0.924882	0.360876	-30.87	-10.78	39.41	-0.0044	-0.3187	-0.3463	
-0.038064	0.916464	0.365024	-29.61	-12.32	35.91	-0.025	-0.3138	-0.3478	
-0.042334	0.904874	0.382348	-34.86	-13.23	37.1	-0.0236	-0.3123	-0.3538	
-0.04819	0.87718	0.383324	-39.27	-15.12	38.15	-0.0309	-0.3122	-0.3523	
-0.043554	0.857904	0.387716	-44.31	-18.55	41.86	-0.0383	-0.3106	-0.3627	
-0.008174	0.842044	0.400648	-41.65	-24.08	44.45	-0.0443	-0.2966	-0.3598	
0.001952	0.830698	0.42212	-38.57	-30.66	46.41	-0.0459	-0.292	-0.3672	
0.06039	0.838018	0.470554	-30.45	-41.16	49.63	-0.0665	-0.2855	-0.3688	
0.100772	0.845216	0.457378	-29.33	-44.38	49.42	-0.0797	-0.2807	-0.3807	
0.144692	0.854488	0.479704	-26.25	-49	50.96	-0.0871	-0.2745	-0.3807	
0.183854	0.849242	0.518866	-30.73	-45.5	49.28	-0.1017	-0.2805	-0.3733	
0.223382	0.849364	0.51484	-36.96	-38.64	49.56	-0.1107	-0.2618	-0.3823	
0.237534	0.840458	0.514962	-41.51	-34.72	48.72	-0.1153	-0.251	-0.3838	
0.259616	0.846924	0.521794	-47.81	-31.92	48.09	-0.1271	-0.2416	-0.3853	
0.277672	0.833626	0.539362	-51.8	-31.08	45.64	-0.1475	-0.249	-0.3779	
0.309758	0.837896	0.555954	-48.93	-31.64	42.35	-0.1566	-0.2242	-0.3898	
0.31476	0.85522	0.54534	-44.03	-33.39	36.68	-0.1523	-0.2181	-0.3898	
0.35136	0.898408	0.580476	-28.84	-38.36	23.59	-0.1596	-0.2165	-0.3868	
0.301462	0.708942	0.518622	-44.87	-34.3	6.37	-0.1657	-0.2025	-0.3853	
0.343796	0.811422	0.578768	-18.41	-42.98	25.83	-0.1819	-0.1977	-0.3958	
0.376858	0.781166	0.576694	-27.51	-39.69	17.15	-0.1818	-0.2008	-0.3943	
0.381982	0.75579	0.584746	-25.13	-39.2	14.91	-0.1907	-0.196	-0.3884	
0.404186	0.7259	0.572424	-17.5	-39.55	4.83	-0.1863	-0.1961	-0.4003	
0.427366	0.712602	0.589748	-6.44	-40.18	5.46	-0.201	-0.1882	-0.3839	
0.43737	0.720166	0.611098	-7.56	-35.28	5.95	-0.2039	-0.1912	-0.3854	
0.44835	0.73444	0.594872	-7.35	-29.54	5.6	-0.2127	-0.1957	-0.3899	
0.457134	0.726144	0.580476	-9.31	-24.71	5.32	-0.2142	-0.1834	-0.3839	
0.471286	0.701744	0.565714	-11.34	-20.51	2.8	-0.226	-0.1832	-0.3825	
0.4758	0.691008	0.561688	-10.78	-18.41	0.28	-0.2274	-0.1863	-0.384	
0.49471	0.706014	0.563152	-1.75	-19.39	-1.68	-0.2318	-0.1847	-0.3795	
0.494222	0.69967	0.5734	-2.87	-19.04	-1.05	-0.2319	-0.1754	-0.3825	
0.512156	0.700158	0.575718	0.35	-15.61	-2.17	-0.2319	-0.1739	-0.381	
0.516548	0.71553	0.572058	1.89	-13.16	-1.26	-0.2348	-0.1831	-0.384	
0.513498	0.729438	0.587674	-0.91	-10.01	-1.12	-0.2348	-0.18	-0.3795	
0.51606	0.746884	0.591944	0.7	-6.3	-2.59	-0.2362	-0.1815	-0.378	
0.514474	0.769088	0.590236	4.2	-2.87	-5.18	-0.2333	-0.1831	-0.3795	
0.50874	0.780312	0.599264	0.77	2.45	-9.52	-0.2376	-0.1908	-0.3736	
0.518256	0.73932	0.594628	-2.8	10.36	-14.98	-0.2465	-0.1861	-0.3796	
0.550342	0.741394	0.603778	0.28	15.96	-19.67	-0.2347	-0.1908	-0.3795	
0.51362	0.745298	0.592432	-7.28	26.25	-23.66	-0.2259	-0.1863	-0.3825	
0.504714	0.743346	0.590236	-3.08	31.43	-28.21	-0.2303	-0.1863	-0.381	
0.463722	0.753594	0.583648	-3.08	35.7	-30.66	-0.2098	-0.185	-0.3884	
0.458964	0.728584	0.56852	-4.83	39.55	-34.37	-0.2171	-0.1926	-0.3869	
0.40321	0.757254	0.576206	3.99	37.24	-34.93	-0.1966	-0.1867	-0.3839	
0.405772	0.742248	0.58255	-0.21	40.53	-38.85	-0.1848	-0.1961	-0.3884	
0.383202	0.737246	0.55388	2.17	43.26	-42.28	-0.1863	-0.1945	-0.4003	
0.336232	0.774822	0.557906	10.01	39.83	-43.89	-0.1833	-0.1977	-0.4018	
0.330498	0.78812	0.56303	10.71	38.15	-46.76	-0.1745	-0.2024	-0.3928	
0.32269	0.777384	0.54839	15.54	36.82	-49.77	-0.1568	-0.2134	-0.3928	
0.299388	0.771162	0.549732	18.97	34.86	-52.43	-0.1567	-0.215	-0.3898	
0.289628	0.760182	0.565348	19.95	34.58	-55.16	-0.1391	-0.2214	-0.3957	
0.256444	0.79666	0.5734	23.59	34.72	-54.6	-0.1258	-0.2308	-0.3957	
0.223748	0.815204	0.558394	22.4	37.31	-56.07	-0.1243	-0.2354	-0.3972	
0.201422	0.806908	0.551562	21.91	39.97	-57.54	-0.1126	-0.2309	-0.3986	
0.171654	0.813984	0.54839	22.4	42.14	-57.75	-0.1037	-0.2341	-0.3897	
0.127734	0.813252	0.527284	20.65	45.92	-60.27	-0.0875	-0.2405	-0.3911	
0.104554	0.837652	0.50996	19.6	45.78	-61.39	-0.0771	-0.2514	-0.3837	
0.048434	0.876326	0.532164	18.06	42.35	-59.29	-0.0757	-0.2499	-0.3926	
0.025376	0.852658	0.510814	12.46	44.31	-58.66	-0.0581	-0.2501	-0.3851	
-0.020008	0.867908	0.528382	13.16	41.72	-55.37	-0.0507	-0.2549	-0.394	
-0.041724	0.850828	0.508862	3.71	43.82	-54.39	-0.0464	-0.2487	-0.3821	
-0.07905599	0.843386	0.488488	0	43.54	-53.97	-0.0228	-0.2629	-0.391	
-0.091744	0.860832	0.496784	-0.14	41.65	-55.09	-0.0052	-0.2631	-0.3924	
-0.095892	0.866322	0.475434	-6.02	44.03	-57.33	-0.0111	-0.26	-0.391	
-0.11956	0.824354	0.465918	-12.32	46.62	-58.03	0.005	-0.2648	-0.3924	
-0.182878	0.82472	0.482144	-8.19	44.38	-60.41	0.0137	-0.2572	-0.3924	
-0.230824	0.825696	0.485926	-8.26	40.67	-59.22	0.0238	-0.2465	-0.3953	
-0.262788	0.815814	0.484706	-9.52	39.2	-57.19	0.0341	-0.2451	-0.3864	
-0.288652	0.801906	0.48678	-7.98	37.24	-59.5	0.0502	-0.2468	-0.3818	
-0.319274	0.771772	0.470798	-12.46	39.06	-55.65	0.0706	-0.23	-0.3892	
-0.328058	0.780678	0.485926	-2.66	29.89	-60.69	0.0779	-0.2348	-0.3982	
-0.366976	0.762744	0.4941	-16.1	29.19	-63.49	0.0867	-0.2333	-0.3937	
-0.379664	0.778848	0.513254	-12.46	19.95	-59.92	0.0969	-0.2273	-0.3936	
-0.38369	0.761036	0.499468	-8.82	16.87	-55.02	0.1071	-0.2243	-0.3861	
-0.41785	0.713578	0.481656	-14.7	24.99	-60.41	0.1028	-0.2258	-0.3862	
-0.43798	0.704672	0.496052	-9.59	19.18	-62.37	0.1188	-0.2198	-0.3891	
-0.472628	0.715164	0.498858	-14.14	18.76	-61.25	0.1275	-0.2122	-0.3906	
-0.477874	0.690642	0.499712	-16.59	15.89	-57.26	0.1274	-0.1998	-0.3861	
-0.482144	0.670878	0.494466	-18.69	14.98	-55.3	0.1318	-0.1999	-0.395	
-0.519232	0.638548	0.479948	-20.51	15.12	-54.04	0.139	-0.1954	-0.401	
-0.572546	0.619028	0.485072	-22.54	15.19	-52.36	0.1478	-0.1939	-0.3905	
-0.587796	0.62037	0.506788	-20.23	10.99	-51.52	0.1521	-0.1816	-0.3949	
-0.587918	0.616466	0.510936	-24.78	11.48	-52.85	0.1636	-0.1663	-0.3904	
-0.576572	0.604876	0.499956	-22.89	1.47	-49.35	0.1563	-0.1647	-0.38	
-0.607926	0.556442	0.516548	-25.41	-2.73	-43.61	0.168	-0.1648	-0.3889	
-0.619394	0.549732	0.53985	-23.1	-2.59	-39.34	0.1694	-0.1509	-0.3829	
-0.631106	0.552538	0.565226	-22.96	-3.71	-35.84	0.1737	-0.1494	-0.3963	
-0.62952	0.528382	0.550952	-23.45	-7.56	-30.8	0.1678	-0.1432	-0.3964	
-0.611952	0.514474	0.562054	-22.82	-7.56	-28	0.1706	-0.137	-0.3874	
-0.621712	0.505202	0.587674	-22.89	-3.22	-25.48	0.1706	-0.134	-0.4038	
-0.635742	0.492514	0.601704	-21.98	-1.54	-21.35	0.1631	-0.1215	-0.4023	
-0.639768	0.488732	0.588894	-19.6	-3.22	-16.24	0.1763	-0.1217	-0.4008	
-0.644648	0.474824	0.587796	-18.62	-3.5	-12.11	0.169	-0.1231	-0.4038	
-0.652944	0.462014	0.605242	-16.17	-4.06	-8.47	0.1601	-0.1122	-0.4053	
-0.662094	0.456768	0.60939	-14.91	-2.1	-4.55	0.1704	-0.1201	-0.4068	
-0.66368	0.444446	0.612928	-13.58	-2.73	-0.42	0.1586	-0.1091	-0.3993	
-0.654042	0.43432	0.609512	-10.99	-5.18	4.34	0.1674	-0.1123	-0.4068	
-0.651968	0.423828	0.622322	-9.24	-3.43	9.66	0.1601	-0.1137	-0.4053	
-0.64172	0.402356	0.623786	-6.23	-10.5	16.87	0.1703	-0.1061	-0.4008	
-0.641354	0.384422	0.633546	-1.89	-12.95	22.26	0.1643	-0.0968	-0.4023	
-0.626592	0.411018	0.634888	-1.4	5.04	23.45	0.1616	-0.1153	-0.4068	
-0.65209	0.449814	0.641598	1.33	4.48	29.05	0.1659	-0.1123	-0.4068	
-0.64416	0.447618	0.599142	4.83	-0.35	35.07	0.1615	-0.1138	-0.4068	
-0.647698	0.438102	0.586454	5.74	-2.38	39.41	0.1602	-0.1246	-0.4128	
-0.633302	0.436516	0.615246	8.68	-4.9	42.63	0.1573	-0.1261	-0.4113	
-0.607926	0.47885	0.621834	11.62	-5.18	44.1	0.1616	-0.12	-0.4157	
-0.607804	0.490684	0.616466	15.89	-6.16	45.99	0.1588	-0.1292	-0.4068	
-0.584136	0.516304	0.609878	17.78	-9.52	48.44	0.1515	-0.1306	-0.4038	
-0.576084	0.551318	0.60878	19.6	-10.71	50.96	0.1502	-0.143	-0.4024	
-0.572668	0.576816	0.590358	20.65	-14.14	54.53	0.1443	-0.1475	-0.4039	
-0.544486	0.571082	0.593774	22.26	-18.2	56.49	0.1399	-0.1459	-0.4009	
-0.517036	0.578524	0.5856	21	-17.36	56.14	0.1298	-0.1535	-0.4009	
-0.519232	0.61366	0.579134	22.12	-17.01	55.79	0.124	-0.1627	-0.4114	
-0.52277	0.620248	0.566324	21.35	-18.41	57.33	0.1257	-0.1797	-0.401	
-0.487756	0.609024	0.570716	21.35	-23.94	59.99	0.1095	-0.178	-0.407	
-0.438834	0.616588	0.56547	22.05	-24.22	60.34	0.1051	-0.178	-0.3995	
-0.3843	0.650138	0.56059	24.64	-26.88	64.12	0.09649999	-0.1933	-0.3966	
-0.361852	0.665388	0.538752	23.17	-25.41	66.36	0.079	-0.2008	-0.3996	
-0.336476	0.692838	0.52765	22.12	-24.5	67.55	0.0804	-0.1977	-0.4041	
-0.330986	0.712968	0.491416	18.76	-23.1	68.11	0.0849	-0.2086	-0.4071	
-0.326472	0.737368	0.5063	19.25	-27.44	68.39	0.07319999	-0.21	-0.4011	
-0.294874	0.750422	0.488976	16.31	-31.01	69.37	0.063	-0.2161	-0.4042	
-0.244122	0.77226	0.490074	16.73	-38.85	69.58	0.0542	-0.2129	-0.4057	
-0.197396	0.762378	0.5002	7.63	-40.18	68.74	0.0352	-0.2173	-0.4012	
-0.160552	0.77043	0.507154	4.97	-43.61	67.9	0.0279	-0.2234	-0.4028	
-0.0976	0.799222	0.510936	10.64	-53.48	75.18	0.0148	-0.2232	-0.3983	
-0.083448	0.81679	0.520208	-2.45	-55.51	81.9	0.0061	-0.237	-0.3954	
-0.02684	0.802882	0.519354	-1.47	-57.68	80.78	-0.0144	-0.2321	-0.4014	
0.018666	0.791902	0.548878	-3.36	-59.08	79.1	-0.0203	-0.2274	-0.3984	
0.082106	0.760426	0.552172	-11.41	-57.19	78.26	-0.0408	-0.2272	-0.4044	
0.158234	0.767624	0.546316	-9.52	-58.94	79.03	-0.0496	-0.2286	-0.4074	
0.23668	0.782386	0.562054	-9.03	-59.85	80.78	-0.0657	-0.23	-0.4075	
0.284504	0.804224	0.555588	-12.32	-54.25	84.42	-0.08769999	-0.2251	-0.3971	
0.275598	0.794464	0.562054	-15.61	-50.33	84.77	-0.1113	-0.2186	-0.4031	
0.313784	0.7869	0.55815	-19.81	-45.85	80.22	-0.123	-0.22	-0.4002	
0.298412	0.807274	0.577792	-23.1	-43.54	73.99	-0.1422	-0.2105	-0.4032	
0.337208	0.814594	0.593408	-21.77	-44.45	70.28	-0.1451	-0.2058	-0.4047	
0.356484	0.826306	0.608414	-20.86	-43.19	63.63	-0.1688	-0.1886	-0.4002	
0.40016	0.831064	0.60634	-18.55	-41.86	53.55	-0.1672	-0.1994	-0.3973	
0.39711	0.758474	0.568642	-16.31	-40.25	48.16	-0.1718	-0.1823	-0.4017	
0.421998	0.810934	0.608902	-14	-35.21	45.78	-0.1865	-0.1791	-0.3928	
0.421266	0.783972	0.574498	-25.83	-28.21	39.06	-0.1865	-0.1791	-0.3988	
0.43066	0.782752	0.577792	-21	-31.78	35.63	-0.2013	-0.1681	-0.4018	
0.440908	0.774456	0.59475	-16.17	-33.81	30.31	-0.2087	-0.1587	-0.3973	
0.454572	0.77043	0.582428	-13.93	-34.09	25.55	-0.2131	-0.1571	-0.3914	
0.481046	0.754204	0.578768	-11.27	-35.14	20.37	-0.2233	-0.1616	-0.3929	
0.505202	0.730414	0.596702	-11.83	-36.68	17.57	-0.2263	-0.1523	-0.3914	
0.522404	0.702842	0.592188	-5.67	-35.63	14.28	-0.2338	-0.1461	-0.3929	
0.54778	0.69662	0.610854	-3.71	-34.16	13.86	-0.2366	-0.1522	-0.3855	
0.557784	0.694546	0.613904	-6.79	-27.02	12.46	-0.2439	-0.1552	-0.39	
0.557784	0.701256	0.58499	-4.97	-21.49	9.59	-0.2455	-0.1444	-0.378	
0.573644	0.691862	0.585234	-12.74	-15.68	6.44	-0.2572	-0.1458	-0.3766	
0.572302	0.676368	0.582916	-7.49	-12.74	3.71	-0.2558	-0.1412	-0.387	
0.56364	0.668804	0.592188	-9.38	-9.24	2.8	-0.2514	-0.1381	-0.3825	
0.58133	0.637328	0.58499	-10.99	-4.55	1.33	-0.2514	-0.1412	-0.381	
0.585234	0.669048	0.582062	-2.59	-3.5	0.63	-0.25	-0.1335	-0.3825	
0.592798	0.647454	0.588284	-5.95	0.49	-1.05	-0.2544	-0.1365	-0.384	
0.58194	0.66856	0.58804	-0.84	2.31	-2.66	-0.2514	-0.1397	-0.3765	
0.58621	0.665388	0.601948	-1.4	4.76	-4.62	-0.2618	-0.1303	-0.384	
0.587552	0.66063	0.615246	1.82	7.91	-7.84	-0.2661	-0.1379	-0.3855	
0.583526	0.666242	0.60878	-0.63	14.35	-10.85	-0.269	-0.1394	-0.3751	
0.579622	0.67344	0.607072	-0.49	17.85	-13.3	-0.2515	-0.1304	-0.381	
0.56669	0.678198	0.62464	3.08	19.39	-16.03	-0.2528	-0.1427	-0.3825	
0.558516	0.665144	0.624762	1.26	27.3	-22.05	-0.2427	-0.1351	-0.387	
0.55388	0.665144	0.622932	1.96	31.22	-26.04	-0.2323	-0.1492	-0.4019	
0.532408	0.663802	0.63379	3.85	35.07	-30.17	-0.2293	-0.1461	-0.3899	
0.560224	0.663436	0.651724	6.79	35.7	-32.55	-0.2205	-0.1478	-0.3929	
0.498614	0.663192	0.617076	4.55	45.43	-37.8	-0.2176	-0.1509	-0.3944	
0.489952	0.66978	0.627812	3.99	45.22	-40.32	-0.2131	-0.1587	-0.4003	
0.44164	0.680394	0.619516	2.66	49.84	-42.21	-0.191	-0.1698	-0.3973	
0.435174	0.682346	0.638548	15.89	47.6	-45.15	-0.1866	-0.1698	-0.4047	
0.395402	0.708088	0.625494	20.58	51.03	-46.41	-0.1763	-0.1715	-0.4032	
0.391742	0.702964	0.611464	25.69	51.73	-49.28	-0.1675	-0.1793	-0.4137	
0.372466	0.7198	0.628178	26.32	53.2	-52.43	-0.1616	-0.1794	-0.4047	
0.327814	0.718458	0.614758	28.63	56.77	-57.61	-0.1395	-0.1843	-0.4121	
0.286822	0.712968	0.600484	31.5	58.24	-61.46	-0.1423	-0.1951	-0.4032	
0.264374	0.719556	0.589504	32.55	59.22	-63.91	-0.1246	-0.2092	-0.4121	
0.237168	0.753716	0.606218	33.46	58.38	-62.23	-0.1115	-0.1985	-0.4046	
0.165188	0.74176	0.572668	24.43	62.23	-61.95	-0.104	-0.2172	-0.4135	
0.150792	0.774334	0.576938	27.65	61.25	-62.3	-0.0761	-0.2175	-0.409	
0.095892	0.793	0.536678	23.59	63.35	-64.68	-0.0717	-0.2206	-0.409	
0.063074	0.816912	0.564006	29.54	56.7	-66.71	-0.0541	-0.2224	-0.4119	
0.023546	0.856318	0.566568	24.15	56.42	-67.9	-0.0407	-0.2364	-0.397	
-0.022814	0.85278	0.54961	18.97	54.11	-67.13	-0.0245	-0.2382	-0.394	
-0.04026	0.849608	0.525942	14.28	50.54	-64.4	-0.0041	-0.2353	-0.4043	
-0.07124799	0.838384	0.490074	7.84	51.8	-65.87	-0.007	-0.2399	-0.4014	
-0.122122	0.832284	0.484096	3.43	51.73	-68.81	0.012	-0.2355	-0.3998	
-0.156404	0.820938	0.48739	1.33	52.08	-70.84	0.0223	-0.2403	-0.3938	
-0.196176	0.798856	0.482266	-0.91	50.68	-73.57	0.0369	-0.2374	-0.3893	
-0.21838	0.781776	0.489464	-2.31	47.46	-73.36	0.053	-0.2298	-0.3878	
-0.25742	0.7747	0.467748	-1.54	44.59	-72.45	0.0574	-0.2345	-0.3967	
-0.312076	0.762012	0.45445	-6.72	44.73	-68.25	0.0735	-0.2347	-0.3892	
-0.369904	0.757986	0.452254	-12.53	43.61	-66.64	0.0882	-0.2318	-0.3832	
-0.437126	0.72529	0.464576	-12.46	27.02	-62.58	0.0953	-0.2165	-0.3951	
-0.421266	0.703574	0.499956	-3.99	20.93	-60.41	0.11	-0.2151	-0.3802	
-0.44591	0.710528	0.508496	-5.18	26.18	-63.28	0.1173	-0.2105	-0.3801	
-0.466406	0.701134	0.502518	-4.97	24.78	-62.86	0.123	-0.2029	-0.3906	
-0.484462	0.695522	0.502518	-6.72	23.73	-58.31	0.1348	-0.2061	-0.3846	
-0.517158	0.691008	0.486414	-7.84	20.37	-57.4	0.1494	-0.2047	-0.3845	
-0.543022	0.66002	0.487878	-13.16	20.23	-52.43	0.1479	-0.2032	-0.3875	
-0.554612	0.64843	0.480192	-14.63	18.41	-49.84	0.1594	-0.1786	-0.3845	
-0.570472	0.641598	0.491294	-14.98	16.17	-50.47	0.1551	-0.1832	-0.3815	
-0.587674	0.618052	0.488732	-14.77	15.54	-48.79	0.1608	-0.174	-0.3889	
-0.594262	0.597922	0.486658	-14.91	11.83	-46.41	0.177	-0.1773	-0.3889	
-0.61061	0.593652	0.482266	-14.42	7	-43.68	0.1797	-0.1572	-0.3859	
-0.632326	0.58621	0.495442	-15.12	6.44	-41.93	0.1783	-0.1634	-0.3844	
-0.660874	0.58865	0.498858	-14.56	3.71	-39.62	0.1738	-0.1525	-0.3874	
-0.665266	0.568764	0.503372	-15.61	0.07	-35.77	0.1869	-0.1511	-0.3874	
-0.664412	0.54595	0.517524	-15.4	-4.13	-33.18	0.181	-0.148	-0.3963	
-0.65941	0.522404	0.514718	-12.74	-6.44	-29.82	0.1911	-0.1342	-0.3903	
-0.655262	0.530212	0.528382	-9.8	-5.6	-26.88	0.1854	-0.1418	-0.3844	
-0.668438	0.521306	0.548024	-8.89	-5.04	-22.47	0.1794	-0.1294	-0.3799	
-0.673562	0.500322	0.56364	-8.75	-5.81	-17.01	0.1853	-0.1372	-0.3829	
-0.66917	0.497394	0.567788	-6.37	-9.66	-11.13	0.1868	-0.1388	-0.3933	
-0.663314	0.479582	0.573522	-5.32	-10.57	-6.02	0.1881	-0.128	-0.3918	
-0.657458	0.46909	0.571204	-3.85	-10.36	-0.21	0.1764	-0.1278	-0.3874	
-0.638792	0.485194	0.583892	-0.98	-14.07	6.37	0.1763	-0.1217	-0.3948	
-0.648796	0.504226	0.591822	-1.96	-7.07	9.94	0.1779	-0.1294	-0.3829	
-0.663802	0.495808	0.57096	-3.78	-3.36	15.54	0.1778	-0.1248	-0.3978	
-0.656116	0.490806	0.566812	-3.36	-8.19	21.49	0.172	-0.1309	-0.3978	
-0.661972	0.496296	0.578402	-4.13	-5.95	24.92	0.1837	-0.1248	-0.3888	
-0.64111	0.507398	0.590236	-1.26	-5.46	27.16	0.172	-0.1262	-0.3948	
-0.620858	0.515328	0.5734	1.4	-8.82	32.06	0.1735	-0.1355	-0.3933	
-0.61549	0.519842	0.569252	4.83	-9.94	35.56	0.1646	-0.1184	-0.3919	
-0.619028	0.542778	0.57279	6.86	-9.52	39.06	0.1648	-0.1401	-0.3978	
-0.614148	0.565104	0.57279	9.1	-13.09	42.63	0.1633	-0.137	-0.4038	
-0.600606	0.569618	0.566934	10.5	-16.38	45.01	0.1532	-0.1538	-0.4024	
-0.564982	0.58499	0.57645	13.02	-19.6	46.55	0.1429	-0.1491	-0.4039	
-0.554246	0.59414	0.573034	12.67	-18.83	48.09	0.1444	-0.1506	-0.3994	
-0.538752	0.579256	0.571326	12.46	-20.65	50.75	0.1402	-0.1645	-0.392	
-0.504958	0.590114	0.56486	13.3	-22.68	54.11	0.1329	-0.1721	-0.3995	
-0.479216	0.616832	0.560712	15.05	-22.47	55.44	0.1315	-0.1752	-0.401	
-0.454938	0.662094	0.558394	16.17	-23.17	58.45	0.1169	-0.1843	-0.401	
-0.422974	0.670024	0.565226	13.58	-22.96	60.69	0.1155	-0.1858	-0.4025	
-0.40077	0.670634	0.55571	12.46	-21.98	61.74	0.114	-0.1889	-0.4055	
-0.378444	0.67161	0.551806	11.83	-19.88	62.79	0.1038	-0.1888	-0.3966	
-0.376004	0.69174	0.539484	11.76	-19.18	63.7	0.095	-0.1964	-0.407	
-0.367464	0.714554	0.535946	11.69	-19.88	63.63	0.0834	-0.2009	-0.4071	
-0.347212	0.724314	0.532042	10.22	-21.56	65.87	0.0849	-0.2024	-0.4041	
-0.30927	0.737124	0.53802	9.31	-24.29	66.15	0.0761	-0.207	-0.4086	
-0.277916	0.748836	0.522038	9.73	-25.27	62.51	0.0702	-0.2038	-0.4041	
-0.247172	0.772626	0.509472	4.83	-27.51	64.82	0.0572	-0.2191	-0.4012	
-0.215086	0.766648	0.511058	2.24	-24.78	66.99	0.0469	-0.2128	-0.3997	
-0.193736	0.767136	0.51911	-2.1	-28.84	65.94	0.0367	-0.225	-0.4072	
-0.149938	0.783484	0.53314	-0.49	-33.67	67.27	0.0309	-0.2249	-0.3983	
-0.120536	0.779214	0.533384	-2.8	-39.34	67.27	0.0176	-0.2171	-0.4028	
-0.074298	0.785924	0.519842	-3.15	-48.37	69.72	0.0102	-0.2139	-0.4013	
-0.024278	0.783484	0.528138	-6.09	-54.25	70.56	-0.0174	-0.2244	-0.4073	
0.06039	0.757132	0.547536	-11.2	-56.98	69.79	-0.013	-0.2275	-0.4058	
0.128832	0.758474	0.560712	-15.61	-57.4	72.8	-0.0292	-0.2227	-0.4089	
0.148718	0.752374	0.601582	-10.43	-61.04	74.13	-0.0467	-0.224	-0.3985	
0.200446	0.77409	0.587674	-7	-59.43	73.78	-0.06439999	-0.2145	-0.4075	
0.21655	0.760548	0.58133	-14.07	-55.09	73.64	-0.06879999	-0.2207	-0.4075	
0.245342	0.783362	0.590236	-16.87	-52.15	76.23	-0.0909	-0.2111	-0.406	
0.268278	0.77958	0.59292	-20.02	-48.93	73.01	-0.09959999	-0.2126	-0.4046	
0.284382	0.770796	0.60634	-19.95	-48.37	70.07	-0.1085	-0.2032	-0.4091	
0.335256	0.788974	0.601826	-17.78	-45.22	63.42	-0.1395	-0.1889	-0.4076	
0.355874	0.787632	0.60207	-16.03	-45.29	57.4	-0.1453	-0.1935	-0.4017	
0.390522	0.781044	0.613904	-12.04	-44.73	52.01	-0.1614	-0.1948	-0.4122	
0.400526	0.788974	0.63318	-7.84	-43.68	47.95	-0.1542	-0.1841	-0.4077	
0.43981	0.823012	0.633546	-3.43	-39.76	42.49	-0.1704	-0.1762	-0.4032	
0.440054	0.794952	0.630008	-15.82	-31.78	36.4	-0.1778	-0.173	-0.4002	
0.442128	0.753838	0.625738	-18.97	-26.67	30.24	-0.1808	-0.1637	-0.4017	
0.444446	0.737856	0.609878	-17.85	-24.36	24.22	-0.1968	-0.1712	-0.4018	
0.449814	0.711382	0.615124	-14.07	-23.73	19.04	-0.197	-0.1589	-0.4003	
0.466772	0.694668	0.608902	-9.94	-22.68	15.12	-0.2029	-0.1573	-0.3973	
0.472018	0.68198	0.59719	-8.47	-21.77	13.72	-0.2058	-0.1572	-0.4003	
0.473604	0.682346	0.598044	-6.93	-21.35	12.39	-0.2088	-0.151	-0.3884	
0.471774	0.688324	0.594628	-5.74	-20.16	11.13	-0.2176	-0.1478	-0.3944	
0.471286	0.675636	0.595482	-6.51	-18.97	9.1	-0.2132	-0.1525	-0.3899	
0.485804	0.673318	0.612318	-5.74	-19.11	6.86	-0.2176	-0.1447	-0.3929	
0.501786	0.671488	0.609878	-0.28	-17.78	2.94	-0.222	-0.1477	-0.3899	
0.464332	0.670146	0.621102	3.15	-15.75	2.8	-0.2176	-0.1463	-0.3869	
0.542534	0.646356	0.59841	2.38	-10.08	0.28	-0.2249	-0.1524	-0.3929	
0.527284	0.662338	0.603778	2.8	-9.1	0.91	-0.2336	-0.16	-0.3899	
0.528016	0.660508	0.59536	2.73	-6.16	0.56	-0.2338	-0.143	-0.3884	
0.525698	0.66551	0.606462	1.47	-4.9	1.54	-0.2381	-0.1522	-0.384	
0.51118	0.673196	0.606828	1.47	-1.96	1.89	-0.2308	-0.1461	-0.3944	
0.503982	0.68686	0.605974	-1.61	0.7	1.19	-0.2351	-0.1569	-0.3855	
0.498126	0.68869	0.596702	-2.24	3.01	-0.28	-0.2323	-0.1476	-0.3884	
0.484096	0.679052	0.602436	-2.8	5.46	-2.45	-0.2337	-0.1491	-0.3869	
0.467748	0.67588	0.599752	-1.89	7	-3.92	-0.2351	-0.1522	-0.3855	
0.45018	0.681126	0.594384	-1.68	8.26	-4.97	-0.2337	-0.1522	-0.3869	
0.443714	0.685274	0.59719	0.21	8.12	-5.95	-0.2336	-0.16	-0.3929	
0.434686	0.686128	0.597922	1.68	8.47	-7.35	-0.2381	-0.1522	-0.3914	
0.420534	0.688812	0.584868	0.35	10.36	-8.82	-0.2308	-0.1492	-0.3929	
0.41358	0.698694	0.574986	-0.77	10.22	-10.78	-0.2248	-0.157	-0.3929	
0.442616	0.702598	0.573522	6.02	4.34	-13.23	-0.219	-0.1571	-0.3988	
0.390888	0.72224	0.581818	4.69	2.03	-15.89	-0.2204	-0.1586	-0.3929	
0.400526	0.697962	0.598166	12.6	-2.31	-19.6	-0.2174	-0.1663	-0.3944	
0.414678	0.716628	0.611098	13.72	-5.04	-20.79	-0.2217	-0.1725	-0.3959	
0.436272	0.71553	0.601826	11.27	-3.29	-21.21	-0.2174	-0.1632	-0.3869	
0.451034	0.719556	0.59536	6.58	0.35	-20.44	-0.2217	-0.1725	-0.3929	
0.435052	0.71797	0.587308	1.12	3.78	-20.44	-0.2115	-0.1695	-0.3959	
0.4087	0.71553	0.585112	2.66	5.18	-19.53	-0.2188	-0.1741	-0.3959	
0.406992	0.697474	0.593774	2.17	5.32	-17.57	-0.2202	-0.174	-0.384	
0.393084	0.695644	0.592554	2.45	7.21	-16.24	-0.2085	-0.1726	-0.3973	
0.378322	0.708454	0.59292	-2.66	9.03	-13.72	-0.207	-0.1819	-0.3914	
0.363926	0.722728	0.585478	-2.1	10.01	-12.39	-0.2055	-0.1835	-0.3944	
0.346602	0.718702	0.584014	-1.75	9.59	-12.04	-0.1967	-0.1851	-0.3914	
0.343186	0.715652	0.591334	-0.49	9.59	-12.39	-0.1982	-0.1743	-0.3914	
0.338794	0.717726	0.597068	-1.47	9.59	-12.11	-0.1938	-0.1805	-0.3913	
0.33306	0.720654	0.602314	-1.4	9.73	-11.41	-0.1966	-0.1898	-0.3929	
0.325252	0.724802	0.602314	0.14	10.29	-10.99	-0.2011	-0.182	-0.3914	
0.312686	0.72224	0.604998	-0.91	10.78	-11.48	-0.1895	-0.1744	-0.3928	
0.307074	0.725534	0.613172	-0.42	10.64	-11.13	-0.1908	-0.1806	-0.3854	
0.301828	0.730414	0.612562	-0.56	10.64	-10.57	-0.1908	-0.1852	-0.3928	
0.30012	0.732244	0.61305	-0.14	10.71	-10.5	-0.1747	-0.1808	-0.3883	
0.293166	0.734318	0.601948	-1.12	11.55	-10.64	-0.1835	-0.1853	-0.3973	
0.284382	0.734318	0.599508	-0.77	11.06	-10.78	-0.1717	-0.1854	-0.3928	
0.27938	0.735294	0.60695	0.35	10.22	-11.9	-0.1791	-0.1807	-0.3928	
0.276818	0.739686	0.608048	1.4	9.73	-12.04	-0.1688	-0.187	-0.4017	
0.274256	0.749812	0.60939	1.96	9.31	-12.25	-0.1791	-0.1884	-0.4018	
0.269498	0.748958	0.61122	0.98	10.01	-12.04	-0.1748	-0.1792	-0.3988	
0.267302	0.742126	0.611464	0.21	10.64	-12.32	-0.1688	-0.187	-0.3987	
0.261446	0.736148	0.614392	-1.12	11.76	-12.18	-0.1644	-0.1855	-0.4047	
0.255712	0.738344	0.60939	-2.24	12.32	-11.69	-0.1587	-0.1748	-0.3942	
0.246806	0.74115	0.606218	-1.4	12.11	-11.13	-0.1674	-0.1824	-0.3987	
0.236802	0.736514	0.605608	-0.49	11.97	-11.34	-0.1615	-0.1887	-0.4077	
0.228872	0.73688	0.605608	-1.4	12.18	-10.29	-0.1571	-0.1856	-0.4062	
0.219722	0.749202	0.607804	-0.28	11.13	-9.38	-0.1497	-0.1934	-0.4062	
0.213622	0.756278	0.608536	-1.26	9.73	-8.54	-0.1498	-0.1842	-0.4121	
0.218868	0.756034	0.607926	-2.38	8.89	-8.96	-0.1526	-0.1903	-0.3972	
0.210816	0.76616	0.614148	-0.98	8.26	-9.59	-0.1439	-0.1827	-0.4046	
0.20923	0.759206	0.619028	-1.4	8.12	-9.59	-0.1455	-0.178	-0.4017	
0.204228	0.75823	0.620492	1.75	7.49	-9.87	-0.1321	-0.1906	-0.4136	
0.210572	0.76799	0.61061	-0.7	8.05	-9.8	-0.1468	-0.1919	-0.4091	
0.21106	0.776042	0.616344	-3.22	8.82	-9.8	-0.1424	-0.1873	-0.4061	
0.203496	0.782752	0.62403	-1.19	8.4	-9.94	-0.1367	-0.1797	-0.4061	
0.193126	0.772016	0.621834	1.12	7.91	-11.34	-0.1351	-0.1905	-0.4031	
0.208132	0.76921	0.635864	3.57	7.21	-13.09	-0.1336	-0.1921	-0.4106	
0.219356	0.768844	0.63501	0.56	9.73	-14.28	-0.1263	-0.1906	-0.4106	
0.213378	0.77104	0.627446	-4.2	13.23	-14.91	-0.1263	-0.1891	-0.4106	
0.199592	0.760914	0.62098	-6.65	14.77	-14.77	-0.1219	-0.1861	-0.4135	
0.189466	0.756278	0.63013	-2.38	16.17	-14.91	-0.119	-0.1876	-0.4135	
0.180682	0.770918	0.622688	-1.75	16.52	-14.42	-0.119	-0.1907	-0.4165	
0.152134	0.769088	0.618906	1.26	16.31	-14.07	-0.1116	-0.1924	-0.418	
0.157624	0.757864	0.635498	-6.02	17.92	-14.91	-0.1116	-0.1893	-0.4046	
0.137982	0.749446	0.629642	-2.8	18.69	-15.05	-0.1013	-0.1925	-0.4075	
0.118096	0.749202	0.617442	-5.67	20.44	-15.26	-0.1014	-0.1894	-0.4105	
0.091744	0.758108	0.616344	-5.04	19.32	-15.05	-0.09999999	-0.1832	-0.412	
0.083204	0.741882	0.608658	-4.34	17.08	-15.12	-0.0926	-0.1895	-0.412	
0.078202	0.732	0.626104	-2.45	13.72	-14.91	-0.0911	-0.1926	-0.406	
0.070516	0.729438	0.63257	0.21	12.04	-15.12	-0.0896	-0.1911	-0.409	
0.067222	0.739076	0.640012	0.63	10.29	-13.65	-0.0808	-0.1958	-0.4075	
0.062708	0.750544	0.640378	0.21	8.96	-13.16	-0.0867	-0.1911	-0.4179	
0.069296	0.753716	0.640744	-2.38	8.19	-12.6	-0.0853	-0.1849	-0.412	
0.049654	0.76189	0.643672	-1.54	7.14	-13.23	-0.0838	-0.1927	-0.4194	
0.046604	0.758108	0.64599	-2.66	6.44	-12.67	-0.072	-0.1928	-0.4149	
0.03904	0.7564	0.653432	-1.82	5.95	-12.6	-0.081	-0.1804	-0.4194	
0.040992	0.75274	0.650748	-1.05	6.58	-12.53	-0.0751	-0.182	-0.4194	
0.033184	0.74908	0.657702	-0.63	6.44	-12.39	-0.0809	-0.1912	-0.4209	
0.025742	0.746762	0.651724	0.21	7.07	-12.67	-0.0661	-0.1944	-0.4134	
0.021228	0.740906	0.654286	0.28	7.21	-13.02	-0.0676	-0.1929	-0.4119	
0.0183	0.743956	0.65758	0.84	7	-12.32	-0.0647	-0.1898	-0.4089	
0.011346	0.74359	0.650138	1.19	7.21	-11.27	-0.0589	-0.1822	-0.4134	
0.014274	0.740296	0.644038	-1.12	7.7	-10.01	-0.0619	-0.1868	-0.4223	
0.00549	0.746762	0.641354	-0.91	7.63	-9.17	-0.0602	-0.1992	-0.4209	
-0.003172	0.746152	0.642452	-0.91	6.93	-8.33	-0.0617	-0.196	-0.4179	
-0.007686	0.741516	0.649772	-0.21	6.09	-7.7	-0.0515	-0.1915	-0.4164	
-0.008905999	0.740052	0.651358	-0.07	4.76	-7.21	-0.053	-0.1884	-0.4149	
-0.013542	0.73993	0.657336	0.49	4.13	-6.58	-0.0558	-0.2023	-0.4149	
-0.017202	0.749324	0.650992	0.35	4.06	-5.81	-0.0456	-0.1978	-0.4119	
-0.017812	0.750666	0.646722	0.07	4.06	-5.32	-0.0545	-0.1931	-0.4223	
-0.01891	0.747738	0.652944	0	3.57	-5.11	-0.0529	-0.2008	-0.4223	
-0.015738	0.756888	0.647942	0.07	3.08	-4.41	-0.0499	-0.2039	-0.4119	
-0.016592	0.760182	0.646478	-0.7	3.57	-4.06	-0.0486	-0.1869	-0.4134	
-0.01891	0.754692	0.648308	-1.47	3.57	-3.57	-0.0369	-0.1917	-0.4133	
-0.024766	0.747372	0.650016	-0.21	3.08	-3.22	-0.0515	-0.1915	-0.4178	
-0.01464	0.749812	0.658312	0.84	2.45	-2.8	-0.0486	-0.1931	-0.4134	
-0.011346	0.76128	0.653066	1.4	2.66	-1.89	-0.0559	-0.1977	-0.4194	
-0.011956	0.755912	0.647088	0.49	3.78	-1.61	-0.0529	-0.1992	-0.4149	
-0.013054	0.755302	0.648674	-0.84	4.69	-1.75	-0.0471	-0.1947	-0.4104	
-0.015494	0.754692	0.647942	-1.26	5.18	-1.68	-0.0575	-0.1807	-0.4223	
-0.016592	0.75152	0.652334	-0.49	4.55	-1.61	-0.0471	-0.1962	-0.4238	
-0.016836	0.753594	0.654774	0.63	4.13	-1.19	-0.0427	-0.1932	-0.4163	
-0.015982	0.753472	0.654042	1.54	3.99	-0.63	-0.0368	-0.1948	-0.4178	
-0.014152	0.757376	0.655628	2.66	3.99	0	-0.0485	-0.1978	-0.4178	
-0.013298	0.763476	0.65087	3.5	4.76	0.84	-0.0472	-0.1839	-0.4208	
-0.017324	0.772382	0.66185	4.97	5.39	1.12	-0.0457	-0.1901	-0.4148	
-0.027572	0.76616	0.662338	6.37	6.37	1.33	-0.0339	-0.1933	-0.4253	
-0.026962	0.756766	0.658678	7.42	6.72	-0.07	-0.0428	-0.1886	-0.4268	
-0.029158	0.760426	0.655872	10.5	7	-0.56	-0.0324	-0.1979	-0.4193	
-0.033184	0.76372	0.637206	9.24	7.35	-0.49	-0.0353	-0.1948	-0.4044	
-0.033916	0.77409	0.619272	8.82	7.91	-1.89	-0.0294	-0.1995	-0.4163	
-0.03904	0.781654	0.620736	9.94	6.72	-2.87	-0.0324	-0.1949	-0.4133	
-0.041114	0.78568	0.61854	8.26	5.53	-3.22	-0.0426	-0.2025	-0.4134	
-0.010492	0.769088	0.634766	10.64	5.11	-5.25	-0.0279	-0.2042	-0.4118	
-0.047214	0.791048	0.636962	13.09	8.19	-8.89	-0.0308	-0.2088	-0.4133	
-0.034038	0.792878	0.61549	11.83	4.06	-4.9	-0.0322	-0.2103	-0.4089	
-0.02562	0.78751	0.628422	9.03	2.38	-5.53	-0.0249	-0.2073	-0.4118	
-0.03294	0.8174	0.625372	9.52	3.85	-4.9	-0.0205	-0.2104	-0.4103	
-0.055266	0.831186	0.59902	3.15	7.84	-5.04	-0.0234	-0.2089	-0.4059	
-0.06832	0.827526	0.613416	3.08	8.19	-6.23	-0.0161	-0.2105	-0.4073	
-0.059292	0.806786	0.597068	1.82	8.33	-8.19	-0.0264	-0.2119	-0.4118	
-0.050142	0.76433	0.600484	2.1	8.05	-9.87	-0.0176	-0.2089	-0.4088	
-0.032818	0.756278	0.60695	4.83	7.42	-9.73	-0.0146	-0.2167	-0.4073	
-0.033794	0.782508	0.58377	11.83	6.3	-8.33	-0.019	-0.2089	-0.4029	
-0.036234	0.805444	0.584868	14.63	3.92	-6.16	-0.0147	-0.2043	-0.4133	
-0.044774	0.813008	0.566324	13.51	3.64	-4.34	-0.016	-0.2151	-0.4044	