Sensor string: A
Serial number: 1970-01-0000
Firmware version: 2,015
Hardware version: 2,2
Calibration quality: 5
ax	ay	az	gx	gy	gz	mx	my	mz

0.122122	0.766648	0.623054	0.49	-0.21	-0.14	-0.0717	-0.3033	-0.4315	Reference
0.121024	0.763842	0.621102	-0.49	-0.28	-0.21	-0.0658	-0.296	-0.4314	
0.117852	0.767624	0.6283	-0.63	0.14	-0.14	-0.0733	-0.2986	-0.4228	
0.116754	0.770308	0.619394	0.56	-0.28	-0.42	-0.0781	-0.2969	-0.4286	
0.124318	0.7564	0.622322	0.42	0.84	-0.14	-0.0747	-0.3016	-0.4257	
0.12749	0.757132	0.625128	0.49	0.28	0.14	-0.0735	-0.2988	-0.4431	
0.120292	0.763354	0.624396	-0.14	-0.77	0.07	-0.0623	-0.3052	-0.4314	
0.120292	0.762866	0.62342	-0.91	0.28	0.14	-0.0612	-0.2961	-0.4284	
0.123342	0.76372	0.62647	-0.56	0.14	-0.07	-0.0629	-0.2915	-0.4255	
0.122976	0.763232	0.623908	0.07	0	-0.21	-0.0671	-0.302	-0.4343	
0.123098	0.760426	0.624762	0.14	0.28	0.07	-0.0841	-0.2996	-0.4273	
0.123098	0.759694	0.623908	-0.21	0.21	0.07	-0.0581	-0.2963	-0.4298	
0.121756	0.764452	0.624152	-0.49	-0.21	-0.14	-0.0735	-0.2956	-0.4271	
0.11895	0.76738	0.624274	-0.35	-0.14	-0.14	-0.0673	-0.299	-0.4358	
0.118462	0.765062	0.62098	-0.21	0.21	-0.14	-0.0748	-0.2985	-0.4228	
0.121512	0.759938	0.622566	-0.42	0.84	0	-0.0692	-0.2866	-0.4183	
0.123586	0.763354	0.621468	-0.28	-0.14	0	-0.066	-0.2914	-0.4284	
0.120902	0.76433	0.621834	-0.7	-0.35	0	-0.0623	-0.3052	-0.43	
0.118462	0.766038	0.621956	-0.98	0.35	-0.07	-0.0656	-0.3005	-0.4314	
0.116388	0.76921	0.61976	-0.84	0.21	-0.21	-0.0659	-0.2944	-0.427	
0.115778	0.77104	0.620492	-0.84	0.14	-0.21	-0.0762	-0.303	-0.4272	
0.116388	0.768112	0.61915	-0.98	0.14	-0.28	-0.0609	-0.3022	-0.427	
0.118096	0.767746	0.616466	-1.82	0.35	-0.07	-0.0622	-0.3098	-0.4344	
0.117852	0.768478	0.618784	-2.24	0.28	0.14	-0.0703	-0.2988	-0.43	
0.118218	0.769332	0.61732	-2.17	0.14	0.28	-0.0736	-0.2957	-0.4387	
0.119194	0.770064	0.619028	-2.52	0.56	0.63	-0.0673	-0.299	-0.4358	
0.120902	0.772992	0.618418	-3.22	0.98	0.84	-0.0703	-0.3003	-0.4329	
0.12139	0.77531	0.617808	-3.78	0.42	1.05	-0.07539999	-0.2879	-0.43	
0.119438	0.775188	0.616344	-4.06	0.63	1.33	-0.0704	-0.2988	-0.4358	
0.119926	0.777018	0.615734	-4.83	1.47	1.61	-0.0678	-0.2867	-0.427	
0.119072	0.781166	0.618296	-5.46	1.68	1.82	-0.0689	-0.2973	-0.4314	
0.119804	0.77836	0.614758	-6.02	1.68	1.82	-0.0672	-0.2989	-0.4314	
0.11651	0.77348	0.616222	-7.84	2.59	1.96	-0.06879999	-0.2973	-0.4285	
0.113338	0.775676	0.624152	-8.82	2.45	1.96	-0.077	-0.2863	-0.4285	
0.109434	0.777628	0.621834	-8.05	1.75	1.61	-0.06439999	-0.2945	-0.4357	
0.116022	0.76799	0.622322	-7.77	2.52	1.54	-0.0693	-0.2882	-0.4299	
0.120536	0.763232	0.626226	-8.47	2.38	1.75	-0.07889999	-0.2802	-0.4386	
0.117242	0.764452	0.629398	-10.22	0.98	1.54	-0.0631	-0.29	-0.4327	
0.113948	0.763232	0.630862	-12.04	1.68	1.61	-0.0774	-0.2803	-0.4342	
0.116998	0.759816	0.636108	-12.67	1.82	1.61	-0.0661	-0.2914	-0.4371	
0.117242	0.75884	0.63989	-12.04	1.54	1.54	-0.0742	-0.2835	-0.4415	
0.1159	0.754692	0.637084	-12.39	1.61	1.47	-0.0697	-0.2822	-0.4414	
0.11773	0.745664	0.64782	-13.65	2.45	1.89	-0.065	-0.2824	-0.4385	
0.119072	0.744322	0.64904	-14.84	2.03	1.96	-0.0682	-0.2807	-0.4385	
0.115046	0.742492	0.64904	-16.17	1.82	2.17	-0.0684	-0.2762	-0.4385	
0.115534	0.732854	0.656116	-16.94	2.1	2.45	-0.0686	-0.2716	-0.4355	
0.119072	0.733464	0.659044	-17.01	1.89	2.45	-0.0685	-0.2747	-0.4428	
0.11895	0.732976	0.661728	-17.78	1.12	2.45	-0.0734	-0.2684	-0.4413	
0.116998	0.72834	0.66429	-19.81	1.4	2.8	-0.0646	-0.2581	-0.4411	
0.115534	0.72407	0.67039	-21.14	1.19	2.73	-0.0692	-0.2595	-0.4412	
0.116632	0.72163	0.669048	-22.12	0.91	2.8	-0.0573	-0.254	-0.4526	
0.115778	0.718336	0.66978	-22.4	0.63	3.08	-0.0682	-0.2474	-0.4425	
0.113582	0.723948	0.677832	-23.24	0	3.08	-0.0743	-0.2502	-0.4499	
0.114802	0.7198	0.681004	-25.69	0.42	2.94	-0.0672	-0.2399	-0.4555	
0.115412	0.714676	0.681736	-27.86	0.21	3.01	-0.0748	-0.2395	-0.4498	
0.115046	0.71126	0.69662	-28.28	-0.21	3.43	-0.0643	-0.2339	-0.4467	
0.116266	0.709064	0.70272	-29.96	0.77	3.99	-0.0735	-0.2319	-0.4424	
0.113948	0.699304	0.706502	-26.81	-0.35	2.66	-0.0752	-0.2288	-0.4453	
0.113948	0.69906	0.725168	-30.31	5.46	6.23	-0.0725	-0.2261	-0.4583	
0.118096	0.688934	0.724802	-31.29	-1.05	4.76	-0.0725	-0.223	-0.4525	
0.122366	0.67344	0.732976	-31.43	-0.35	5.39	-0.0726	-0.223	-0.4583	
0.127856	0.660386	0.74725	-30.8	2.94	6.93	-0.0779	-0.2092	-0.464	
0.122122	0.641232	0.74603	-35.98	3.43	7.63	-0.0673	-0.2035	-0.4551	
0.126392	0.615612	0.757254	-36.89	0.07	7.21	-0.0679	-0.1914	-0.4608	
0.116754	0.59902	0.754448	-29.33	1.89	7.21	-0.0646	-0.196	-0.4579	
0.127246	0.575596	0.772138	-30.73	4.9	7.7	-0.0802	-0.1892	-0.4537	
0.127612	0.542168	0.758596	-28.07	3.78	7	-0.0763	-0.1758	-0.4608	
0.144204	0.540582	0.777262	-20.58	-1.19	5.81	-0.059	-0.1841	-0.452	
0.139446	0.523746	0.783972	-31.36	1.19	7.14	-0.0673	-0.1716	-0.4592	
0.136762	0.517158	0.79117	-32.62	1.26	7.28	-0.0782	-0.1697	-0.4694	
0.137006	0.501542	0.79483	-34.44	2.45	7.77	-0.0679	-0.1611	-0.4678	
0.13359	0.490928	0.801052	-30.8	2.38	7.77	-0.07099999	-0.1609	-0.4693	
0.13603	0.481656	0.80642	-32.97	0.63	7.63	-0.0726	-0.1593	-0.4678	
0.138348	0.464942	0.811056	-29.75	-0.21	7.63	-0.0717	-0.1441	-0.4633	
0.149206	0.459208	0.826794	-33.32	-0.91	8.26	-0.0764	-0.144	-0.472	
0.143838	0.437248	0.823622	-37.1	1.54	8.89	-0.069	-0.1352	-0.4646	
0.141886	0.426756	0.825086	-36.96	5.32	10.01	-0.077	-0.1303	-0.4676	
0.14579	0.41236	0.851316	-39.13	3.99	10.01	-0.07539999	-0.1303	-0.4676	
0.15128	0.4026	0.871324	-41.02	3.5	10.5	-0.0699	-0.1169	-0.4688	
0.14335	0.387594	0.863516	-44.59	1.75	9.87	-0.0734	-0.1093	-0.4775	
0.138104	0.376004	0.866078	-41.72	3.78	9.8	-0.074	-0.0939	-0.4657	
0.14274	0.347456	0.876204	-39.48	4.41	8.4	-0.06659999	-0.0898	-0.4729	
0.146522	0.335134	0.889136	-36.89	4.69	7.7	-0.0742	-0.0925	-0.4715	
0.147254	0.334768	0.909144	-30.94	2.52	6.23	-0.0747	-0.0803	-0.47	
0.150792	0.32757	0.91988	-32.48	2.31	5.74	-0.0668	-0.0852	-0.4685	
0.146156	0.327692	0.926956	-30.24	1.96	6.23	-0.0733	-0.07889999	-0.4757	
0.15311	0.313418	0.929152	-26.95	0.07	5.53	-0.0707	-0.0652	-0.4625	
0.135542	0.305	0.928908	-31.71	4.83	6.65	-0.0699	-0.0516	-0.4696	
0.152866	0.289994	0.9516	-28.84	3.29	5.67	-0.0631	-0.0641	-0.4682	
0.156038	0.279014	0.938668	-26.32	3.36	5.04	-0.0682	-0.0532	-0.4682	
0.155184	0.26047	0.943426	-24.78	3.71	4.97	-0.0669	-0.0503	-0.471	
0.153476	0.257542	0.93818	-23.45	3.29	4.48	-0.0639	-0.0473	-0.4637	
0.149816	0.239608	0.942816	-22.26	1.82	4.27	-0.0807	-0.0496	-0.4654	
0.143594	0.23546	0.942572	-23.52	1.12	4.34	-0.0716	-0.047	-0.4682	
0.145424	0.221674	0.95038	-23.52	1.96	4.9	-0.066	-0.0351	-0.4665	
0.151768	0.210206	0.95221	-21.42	1.26	4.48	-0.0771	-0.0285	-0.4695	
0.152256	0.196176	0.957212	-17.71	0	3.92	-0.062	-0.0216	-0.4664	
0.154452	0.183	0.963068	-17.71	-0.7	3.78	-0.0668	-0.0168	-0.4635	
0.156892	0.17812	0.972096	-20.02	-0.63	3.99	-0.0712	-0.0211	-0.4636	
0.155916	0.177754	0.975268	-19.39	-0.07	3.92	-0.0696	-0.0211	-0.4578	
0.154818	0.172142	0.973682	-16.66	0.28	3.57	-0.0699	-0.0167	-0.4679	
0.15006	0.166408	0.972584	-13.93	0.56	3.22	-0.0659	-0.0047	-0.4663	
0.158478	0.15677	0.980636	-12.04	0.91	3.36	-0.0596	-0.0065	-0.4662	
0.163724	0.159332	0.972218	-11.13	0.42	3.08	-0.072	-0.0013	-0.4562	
0.160064	0.162382	0.980026	-9.73	-1.82	1.89	-0.0659	-0.0031	-0.4605	
0.162626	0.167018	0.978562	-7.21	-1.19	1.05	-0.0764	-0.0072	-0.4577	
0.163846	0.161528	0.974414	-5.46	-0.56	0.7	-0.0671	-0.0092	-0.462	
0.163358	0.162748	0.978806	-3.64	-0.35	0.49	-0.0687	-0.0075	-0.4591	
0.165188	0.163968	0.978318	-4.06	-0.49	0.91	-0.0689	-0.0045	-0.4648	
0.16897	0.166042	0.970632	-3.15	-0.84	0.98	-0.0721	-0.0029	-0.4649	
0.165554	0.162626	0.970144	-3.43	-0.14	1.4	-0.0719	-0.0059	-0.4605	
0.16531	0.168482	0.966972	-3.78	-0.35	1.33	-0.0718	-0.0074	-0.462	
0.160552	0.171532	0.96075	-2.73	-0.14	1.19	-0.07979999	0.0005	-0.4533	
0.160064	0.176412	0.960872	-1.12	-0.49	0.42	-0.0629	-0.0002	-0.456	
0.163968	0.175314	0.965264	0.77	-0.63	-0.21	-0.08419999	-0.0069	-0.4665	
0.166774	0.176046	0.959042	1.75	0.21	-0.14	-0.08419999	-0.0069	-0.4665	
0.167018	0.1769	0.963922	1.61	0.28	0.21	-0.0599	0.0011	-0.456	
0.167994	0.182634	0.963922	2.17	0.28	0.28	-0.0599	0.0011	-0.456	
0.164578	0.18727	0.960018	2.31	-0.35	0.07	-0.0656	-0.0093	-0.4663	
0.164944	0.189466	0.965142	2.38	0.63	0	-0.0718	-0.0074	-0.4635	
0.162504	0.191052	0.966606	4.06	0.35	-0.91	-0.0706	0.0016	-0.4547	
0.161528	0.18971	0.966606	4.34	0.42	-1.4	-0.0672	-0.0076	-0.4634	
0.155306	0.192394	0.972462	5.18	0.91	-1.54	-0.0702	-0.009	-0.4591	
0.158722	0.194834	0.965996	8.26	0.7	-2.31	-0.0653	-0.0153	-0.4591	
0.160064	0.189466	0.971364	10.01	1.47	-2.94	-0.0782	-0.0009999999	-0.4533	
0.161406	0.182024	0.97051	10.99	2.24	-3.57	-0.0642	-0.0078	-0.4648	
0.15799	0.180926	0.973682	11.83	2.1	-3.85	-0.0684	-0.0167	-0.465	
0.153842	0.188124	0.979782	13.23	1.33	-3.85	-0.0562	-0.0142	-0.4648	
0.152744	0.18971	0.980636	13.93	1.96	-4.06	-0.0606	-0.0139	-0.4504	
0.152622	0.185196	0.98332	16.73	2.38	-4.41	-0.0662	-0.0273	-0.4549	
0.151646	0.185196	0.9821	19.11	1.89	-4.69	-0.062	-0.0184	-0.4562	
0.153476	0.18666	0.9821	20.72	1.89	-5.04	-0.0667	-0.0198	-0.4664	
0.152622	0.188978	0.98454	23.03	1.75	-5.46	-0.0637	-0.02	-0.4722	
0.148596	0.196054	0.982588	24.43	1.89	-5.53	-0.0554	-0.0294	-0.4606	
0.14884	0.198006	0.98332	26.32	2.17	-5.6	-0.0691	-0.0333	-0.4593	
0.146156	0.205814	0.972584	28.91	0.98	-6.09	-0.0672	-0.0426	-0.4695	
0.15128	0.205448	0.976122	31.15	0.35	-6.58	-0.0654	-0.0488	-0.4681	
0.151524	0.213622	0.9699	32.76	1.05	-6.16	-0.07	-0.0486	-0.4725	
0.151158	0.226676	0.958432	34.44	-0.42	-6.51	-0.0653	-0.0503	-0.4667	
0.14884	0.235338	0.955992	36.75	0.28	-6.44	-0.0636	-0.0549	-0.4682	
0.143228	0.25132	0.950136	39.13	0.91	-6.86	-0.0692	-0.0653	-0.4625	
0.136518	0.266204	0.944524	41.51	1.19	-6.93	-0.0608	-0.0809	-0.4684	
0.138348	0.279624	0.931104	43.75	-0.42	-7.7	-0.061	-0.0763	-0.464	
0.134688	0.29158	0.92476	45.01	0.35	-7.98	-0.054	-0.0933	-0.4597	
0.13237	0.313174	0.914024	46.83	-2.87	-8.82	-0.063	-0.099	-0.4628	
0.128954	0.335256	0.900848	48.44	2.24	-8.47	-0.0643	-0.1082	-0.4774	
0.124318	0.344406	0.891698	48.79	2.1	-8.47	-0.0569	-0.1008	-0.47	
0.127002	0.368196	0.87657	51.03	-1.12	-9.45	-0.0521	-0.1041	-0.4685	
0.122244	0.38552	0.862418	51.03	-0.35	-9.45	-0.0646	-0.1339	-0.4704	
0.116022	0.404674	0.845826	51.31	-0.56	-9.87	-0.0568	-0.1358	-0.4689	
0.111264	0.420778	0.833992	52.43	-0.63	-10.15	-0.055	-0.1435	-0.4762	
0.11224	0.437858	0.814594	52.29	-1.54	-10.85	-0.0637	-0.1537	-0.472	
0.10736	0.458232	0.798734	52.36	-4.13	-11.62	-0.0588	-0.1569	-0.4618	
0.108336	0.479338	0.780434	52.43	-5.32	-12.04	-0.0629	-0.1688	-0.4649	
0.110166	0.502152	0.767624	50.61	-3.99	-11.62	-0.0628	-0.1719	-0.4678	
0.111752	0.521428	0.761646	49.77	-3.85	-10.92	-0.0516	-0.18	-0.4663	
0.109556	0.550586	0.749934	48.44	-5.11	-10.71	-0.0585	-0.1979	-0.4637	
0.098942	0.573644	0.741272	49	-6.23	-10.71	-0.0645	-0.1991	-0.4609	
0.09942999	0.590724	0.734806	49	-2.59	-9.73	-0.0485	-0.2104	-0.4535	
0.110288	0.584746	0.720776	48.16	-0.21	-9.03	-0.0667	-0.2172	-0.4553	
0.113826	0.594262	0.708698	50.19	0.49	-8.4	-0.0649	-0.2234	-0.4596	
0.114314	0.611952	0.69845	51.38	-0.98	-8.05	-0.0508	-0.2285	-0.4508	
0.11346	0.625128	0.67283	52.29	-0.14	-7.98	-0.055	-0.239	-0.4597	
0.114192	0.635132	0.66429	52.08	2.66	-7.84	-0.0635	-0.2522	-0.4498	
0.110654	0.652944	0.656604	54.18	3.08	-8.26	-0.057	-0.2586	-0.4512	
0.107848	0.687104	0.638426	54.04	0.84	-9.17	-0.0473	-0.268	-0.441	
0.1037	0.714066	0.62464	51.94	1.26	-9.31	-0.0533	-0.2724	-0.4455	
0.091256	0.728584	0.62342	49.91	-0.56	-10.15	-0.0454	-0.2789	-0.4542	
0.084302	0.75152	0.601094	53.13	-1.12	-10.64	-0.0497	-0.2831	-0.4412	
0.074908	0.764574	0.581086	52.22	6.37	-9.52	-0.0473	-0.2983	-0.4341	
0.056852	0.78202	0.561566	55.3	3.43	-10.57	-0.0395	-0.3017	-0.4311	
0.048312	0.807518	0.523868	54.95	-1.12	-11.76	-0.0562	-0.3039	-0.427	
0.030012	0.841678	0.511302	54.11	-6.58	-12.74	-0.049	-0.3271	-0.4286	
0.027206	0.868396	0.492514	55.09	-9.03	-14.63	-0.0409	-0.3334	-0.4155	
0.033672	0.88999	0.485926	53.41	-5.6	-15.12	-0.04	-0.3516	-0.4142	
0.035502	0.901092	0.477264	51.38	-4.55	-15.68	-0.0413	-0.3545	-0.3998	
0.030134	0.89121	0.4575	46.34	-1.33	-14.49	-0.0413	-0.3561	-0.4071	
0.025498	0.893528	0.434442	44.17	-2.73	-15.61	-0.0348	-0.3624	-0.4041	
0.027206	0.907436	0.415044	39.62	-1.12	-15.96	-0.0355	-0.379	-0.3971	
0.019764	0.919636	0.41419	35.98	-0.7	-16.17	-0.0389	-0.3728	-0.3999	
0.011712	0.93086	0.41053	32.27	2.45	-15.33	-0.0371	-0.3774	-0.3942	
-0.003538	0.942938	0.405772	29.89	1.4	-15.26	-0.023	-0.3841	-0.3941	
-0.001098	0.942328	0.396134	28.35	-2.94	-16.87	-0.0316	-0.3927	-0.3783	
-0.002806	0.942816	0.389668	26.95	-3.71	-17.71	-0.0288	-0.3898	-0.387	
-0.005368	0.945744	0.384544	25.48	-1.05	-17.29	-0.0208	-0.3932	-0.3797	
-0.014274	0.940132	0.377102	25.41	-3.57	-16.94	-0.0144	-0.398	-0.3724	
-0.016592	0.932324	0.362828	25.62	-4.48	-16.1	-0.0176	-0.3979	-0.384	
-0.017812	0.932934	0.3538	23.38	-5.25	-15.26	-0.0187	-0.4054	-0.3725	
-0.022326	0.931348	0.347578	19.18	-6.65	-14.7	-0.026	-0.4126	-0.3683	
-0.032818	0.937936	0.352702	14.91	-6.44	-13.86	-0.0123	-0.4086	-0.3667	
-0.041602	0.956114	0.354166	12.46	-6.65	-13.37	-0.0224	-0.4234	-0.3742	
-0.036478	0.954284	0.348066	9.8	-6.44	-12.67	-0.0227	-0.4189	-0.377	
-0.028792	0.963312	0.349896	8.33	-6.65	-11.48	-0.0195	-0.4205	-0.3727	
-0.029524	0.970876	0.33977	7.42	-5.6	-9.66	-0.0089	-0.4148	-0.3667	
-0.027572	0.96929	0.334036	4.13	-4.76	-8.54	-0.006	-0.412	-0.3681	
-0.024156	0.978562	0.337818	1.89	-4.27	-7.84	-0.018	-0.419	-0.3712	
-0.029524	0.967338	0.355752	-1.89	-3.71	-6.3	-0.0102	-0.4193	-0.3639	
-0.028548	0.927932	0.38796	6.86	1.47	-6.02	-0.0177	-0.4235	-0.3654	
-0.049776	0.963068	0.344406	6.02	6.02	-5.11	-0.0131	-0.4237	-0.3625	
-0.045994	0.995886	0.325862	2.66	4.62	-7.56	-0.0209	-0.4188	-0.3567	
-0.044164	0.987346	0.368196	-0.28	3.71	-8.05	-0.0047	-0.4377	-0.3582	
-0.044164	0.938912	0.390644	1.4	4.34	-6.86	-0.0133	-0.4176	-0.361	
-0.0427	0.952454	0.351726	6.58	2.31	-6.58	0.0003	-0.4183	-0.3666	
-0.03965	0.969534	0.338794	7	2.03	-6.3	-0.007999999	-0.4346	-0.3683	
-0.028426	0.948184	0.356484	7	4.27	-5.39	-0.0025	-0.4212	-0.3638	
-0.034526	0.927566	0.364048	8.33	4.83	-4.69	-0.0081	-0.4331	-0.364	
-0.04453	0.948428	0.354776	10.36	2.73	-5.11	0.0034	-0.4169	-0.3651	
-0.055632	0.968558	0.346846	10.5	1.61	-5.81	0.0082	-0.4217	-0.3608	
-0.056852	0.980758	0.34221	9.73	1.54	-6.09	0.0056	-0.4306	-0.3609	
-0.055144	0.98027	0.357582	7.98	-0.84	-5.74	0.0026	-0.432	-0.3552	
-0.045018	0.971852	0.354532	7.14	-1.75	-4.41	-0.0005	-0.4304	-0.3639	
-0.052582	0.971608	0.331352	4.76	-1.12	-3.08	-0.0028	-0.4439	-0.3539	
-0.06466	0.98454	0.333304	1.68	-0.91	-2.03	0.0028	-0.435	-0.3566	
-0.07137	0.984052	0.34099	0	0.14	-0.84	-0.0016	-0.4331	-0.3393	
-0.060268	0.953186	0.339648	-0.84	0.28	-0.49	0.0031	-0.4427	-0.3581	
-0.054534	0.955748	0.32879	-0.49	-2.03	-0.98	0.0028	-0.4366	-0.3581	
-0.061732	0.97173	0.34587	-0.07	-2.52	-1.12	-0.0036	-0.4271	-0.3537	
-0.06588	0.95526	0.34587	-0.84	0.63	0.07	0.0072	-0.4306	-0.3522	
-0.063806	0.94306	0.33367	-2.1	1.89	0.35	-0.0082	-0.4269	-0.3538	
-0.057096	0.9455	0.343796	-2.03	1.4	0	0.008599999	-0.4292	-0.358	
-0.061244	0.947696	0.344528	-1.12	-0.07	-0.35	-0.0049	-0.4347	-0.3611	
-0.066002	0.948672	0.333304	-2.59	-0.14	-0.7	0.0056	-0.4291	-0.3565	
-0.066856	0.95038	0.346724	-2.17	1.47	-0.7	0.0117	-0.4262	-0.3492	
-0.074542	0.941962	0.350506	-0.84	4.27	-0.7	0.0089	-0.4353	-0.3566	
-0.067832	0.94001	0.345016	0.49	2.52	-1.82	0.007	-0.4292	-0.3638	
-0.073078	0.955748	0.33306	0.84	1.05	-2.24	0.0066	-0.4503	-0.3524	
-0.07991	0.967948	0.335256	-1.96	1.26	-1.96	0.004	-0.429	-0.358	
-0.082472	0.964654	0.35197	-4.41	2.03	-1.19	0.0057	-0.4321	-0.3537	
-0.076616	0.95587	0.352946	-5.32	0.98	-0.63	0.0037	-0.4245	-0.3652	
-0.06954	0.948916	0.345382	-6.09	0.63	0.49	0.0043	-0.4351	-0.3552	
-0.06527	0.942206	0.345626	-7.63	1.19	1.54	0.007	-0.4261	-0.3522	
-0.066856	0.935008	0.358436	-6.37	1.89	2.73	0.0072	-0.4354	-0.3711	
-0.058682	0.9211	0.360998	-6.09	3.29	3.78	0.0009999999	-0.4289	-0.3551	
-0.061732	0.928298	0.364414	-5.67	2.59	3.99	0.0006	-0.4228	-0.3623	
-0.059292	0.939644	0.366366	-3.99	1.4	3.71	-0.002	-0.4319	-0.3668	
-0.057584	0.937326	0.362218	-3.85	1.75	3.57	0.0022	-0.4244	-0.3623	
-0.061488	0.941718	0.363194	-5.25	2.45	3.57	0.004	-0.4306	-0.3624	
-0.074664	0.951844	0.371612	-4.41	3.22	3.92	0.0065	-0.4202	-0.3738	
-0.072956	0.950746	0.368196	-4.41	2.52	3.78	0.008599999	-0.4293	-0.3623	
-0.06649	0.951234	0.36661	-5.6	2.31	3.99	-0.0023	-0.4258	-0.3711	
-0.065148	0.96014	0.366366	-7.7	1.75	4.41	0.005	-0.4216	-0.3739	
-0.06588	0.956236	0.369294	-9.1	1.89	5.11	0.0004	-0.4214	-0.3754	
-0.062708	0.939888	0.377712	-10.85	3.08	5.6	0.0022	-0.426	-0.371	
-0.063196	0.934154	0.368318	-12.39	3.36	5.46	0.007	-0.4292	-0.3667	
-0.065026	0.934154	0.371734	-12.18	2.31	4.83	0.0005	-0.4229	-0.3681	
-0.055754	0.93513	0.390644	-10.64	0.63	4.27	0.0003	-0.4184	-0.3739	
-0.04575	0.931348	0.39284	-9.45	-0.42	3.85	0.0004	-0.4214	-0.3754	
-0.043676	0.927078	0.382226	-9.52	-0.49	3.5	-0.0032	-0.4076	-0.3767	
-0.050996	0.934886	0.390888	-13.37	0.56	3.36	-0.0002	-0.4078	-0.3767	
-0.054534	0.942572	0.403576	-13.65	-1.12	2.94	0.003	-0.4093	-0.368	
-0.04819	0.943548	0.403576	-13.65	-2.94	2.66	-0.0031	-0.4122	-0.384	
-0.0427	0.933544	0.407968	-14.98	-1.96	3.36	-0.0098	-0.4013	-0.3854	
-0.036844	0.93208	0.406626	-14.77	-0.56	4.27	-0.002	-0.4032	-0.3839	
-0.032696	0.91805	0.410042	-15.96	-0.56	5.18	-0.0145	-0.398	-0.3796	
-0.038308	0.912682	0.416264	-16.94	1.19	6.72	-0.0083	-0.3967	-0.3738	
-0.036478	0.909022	0.422852	-16.45	0.77	6.86	0.0003	-0.3881	-0.3866	
-0.034404	0.90707	0.422242	-16.24	1.54	7.35	-0.0149	-0.3889	-0.381	
-0.030866	0.902556	0.432856	-16.8	1.05	7.56	-0.0052	-0.4031	-0.3912	
-0.025498	0.905728	0.442738	-17.29	0.42	7.98	-0.0104	-0.3892	-0.3911	
-0.02501	0.90768	0.446642	-18.41	-0.63	8.12	-0.0118	-0.3906	-0.3839	
-0.02379	0.917806	0.44164	-18.27	-0.21	7.77	-0.0016	-0.3805	-0.3953	
-0.03111	0.91378	0.449936	-20.02	1.26	8.05	-0.0153	-0.3845	-0.3984	
-0.038918	0.909632	0.460184	-20.65	1.82	7.77	-0.0065	-0.3758	-0.3967	
-0.035868	0.91134	0.460916	-22.75	2.24	7.77	-0.014	-0.3784	-0.3925	
-0.031232	0.901702	0.472872	-23.38	-0.07	7.28	-0.016	-0.3708	-0.3997	
-0.018666	0.89853	0.472628	-22.89	-1.47	7.56	-0.0049	-0.3774	-0.3967	
-0.02135	0.881206	0.473116	-24.57	4.34	9.24	-0.0209	-0.3661	-0.4069	
-0.028426	0.873764	0.487512	-24.85	4.13	8.47	-0.0163	-0.3648	-0.404	
-0.015006	0.8723	0.498492	-22.61	-1.26	6.23	-0.0127	-0.3787	-0.4113	
-0.005734	0.870958	0.491416	-21.91	-2.38	5.46	-0.0121	-0.3606	-0.4198	
-0.005734	0.862906	0.508862	-20.37	-0.56	5.95	-0.0197	-0.3555	-0.3996	
-0.009393999	0.86437	0.513986	-18.41	-1.26	6.09	-0.0156	-0.3497	-0.414	
-0.003904	0.857172	0.511668	-17.85	-2.45	6.3	-0.017	-0.3528	-0.4212	
-0.00122	0.850462	0.515938	-19.11	-0.7	7.07	-0.0184	-0.3573	-0.4213	
-0.007808	0.849364	0.522648	-20.65	-1.19	7.56	-0.0251	-0.3417	-0.4125	
-0.00671	0.854122	0.53253	-20.09	-2.03	7.77	-0.0268	-0.3417	-0.4256	
0.004026	0.850828	0.539972	-19.81	-2.31	8.19	-0.0345	-0.3398	-0.4155	
0.008052	0.844484	0.549	-20.23	-1.61	9.03	-0.0181	-0.33	-0.4254	
0.015616	0.834236	0.560712	-21.42	-0.07	10.01	-0.0275	-0.3265	-0.4211	
0.013786	0.829112	0.568398	-20.09	0.7	10.5	-0.0277	-0.3204	-0.4211	
0.013908	0.821304	0.57523	-17.92	0.98	10.43	-0.0288	-0.3325	-0.427	
0.01586	0.812032	0.586454	-14.91	0.28	10.22	-0.0264	-0.319	-0.4283	
0.017568	0.81862	0.585844	-13.37	0.35	9.87	-0.0246	-0.322	-0.421	
0.017446	0.81801	0.582062	-12.53	0.28	8.75	-0.0265	-0.3159	-0.4268	
0.01891	0.812398	0.59353	-11.55	1.96	8.19	-0.028	-0.3158	-0.4254	
0.012566	0.806786	0.59414	-11.27	2.45	7.07	-0.0221	-0.3085	-0.4209	
0.010004	0.806908	0.592432	-11.41	1.82	5.39	-0.0197	-0.3284	-0.4239	
0.012932	0.792878	0.595238	-11.62	1.19	3.85	-0.0235	-0.3146	-0.4296	
0.025254	0.775798	0.596092	-11.76	3.15	3.5	-0.0374	-0.3108	-0.424	
0.039406	0.758962	0.608292	-11.34	1.33	3.99	-0.0284	-0.3099	-0.4369	
0.05185	0.745664	0.607316	-10.15	0.84	5.18	-0.0391	-0.3093	-0.4298	
0.045018	0.753472	0.592676	-14.49	0.7	7.07	-0.033	-0.3097	-0.4384	
0.040992	0.761768	0.613416	-17.5	2.1	8.12	-0.0362	-0.3064	-0.4297	
0.05124	0.761524	0.628544	-18.97	4.55	8.05	-0.0336	-0.2959	-0.4354	
0.049044	0.76433	0.630984	-21.42	5.39	8.26	-0.0291	-0.2978	-0.4455	
0.04758	0.744444	0.634156	-24.64	6.44	9.59	-0.0337	-0.296	-0.4412	
0.050386	0.73444	0.634034	-24.92	5.11	9.52	-0.0261	-0.2933	-0.4396	
0.06039	0.723338	0.650138	-24.78	3.01	8.96	-0.0277	-0.2917	-0.4367	
0.06588	0.720532	0.66246	-25.34	3.71	9.17	-0.0312	-0.2855	-0.4468	
0.05978	0.733464	0.651114	-25.9	7.98	10.43	-0.036	-0.2792	-0.441	
0.056364	0.713944	0.674294	-28.21	5.32	11.27	-0.0269	-0.2781	-0.4467	
0.051972	0.708698	0.680882	-28.21	2.17	10.85	-0.0349	-0.2701	-0.4424	
0.045872	0.701744	0.678564	-25.97	2.94	10.85	-0.0363	-0.2747	-0.4482	
0.053192	0.691618	0.680638	-26.67	4.2	10.29	-0.0296	-0.2538	-0.4523	
0.064172	0.67893	0.696742	-26.39	5.32	10.01	-0.0292	-0.2628	-0.4466	
0.06466	0.67039	0.704062	-28.49	4.55	9.73	-0.0377	-0.2443	-0.4509	
0.069662	0.666974	0.693936	-29.54	1.61	9.24	-0.0282	-0.2523	-0.4508	
0.062342	0.658312	0.697962	-31.15	0.63	9.66	-0.033	-0.2507	-0.461	
0.066734	0.656848	0.698816	-31.57	0.77	9.66	-0.0291	-0.2341	-0.4579	
0.073322	0.657458	0.71248	-32.83	0.56	9.24	-0.0396	-0.235	-0.445	
0.07124799	0.650504	0.719678	-34.93	-0.14	9.45	-0.0414	-0.2335	-0.4551	
0.070882	0.647454	0.728706	-35.77	-0.14	9.31	-0.0406	-0.2168	-0.4535	
0.072346	0.63928	0.737978	-35.56	0.7	8.61	-0.0363	-0.211	-0.4621	
0.071858	0.631594	0.732366	-36.68	1.96	7.91	-0.0379	-0.2094	-0.4621	
0.068198	0.618174	0.733464	-39.06	0.49	7.14	-0.0332	-0.2127	-0.4635	
0.075274	0.601826	0.746884	-38.85	0.63	7	-0.0494	-0.1953	-0.4708	
0.076616	0.587796	0.76067	-38.92	1.47	6.86	-0.0216	-0.1965	-0.4618	
0.083204	0.570472	0.765184	-40.39	1.61	6.79	-0.0295	-0.1931	-0.4633	
0.08601	0.546194	0.77653	-42.07	2.1	7.56	-0.0473	-0.1757	-0.4749	
0.08113	0.517646	0.788608	-44.31	2.8	8.96	-0.033	-0.1823	-0.4618	
0.071858	0.49776	0.794708	-47.32	1.89	10.01	-0.0415	-0.1684	-0.4719	
0.07124799	0.48312	0.817888	-47.81	1.26	10.64	-0.0326	-0.158	-0.4616	
0.07686	0.47397	0.830942	-47.53	1.54	10.15	-0.0346	-0.1489	-0.4629	
0.08418	0.453596	0.83936	-47.74	1.54	9.17	-0.0473	-0.1407	-0.4645	
0.07747	0.43127	0.841312	-48.79	3.01	8.68	-0.0443	-0.1409	-0.4731	
0.084424	0.399916	0.853024	-46.69	3.15	7.42	-0.0406	-0.1214	-0.4743	
0.085278	0.385276	0.862906	-45.43	0.84	6.72	-0.0346	-0.1155	-0.4641	
0.086376	0.367952	0.870714	-47.04	1.26	7.07	-0.0461	-0.1029	-0.4757	
0.07869	0.364658	0.883036	-45.43	1.4	6.51	-0.0355	-0.1004	-0.4784	
0.090402	0.354044	0.897798	-40.74	-1.61	4.69	-0.0449	-0.0938	-0.4712	
0.097722	0.331962	0.905728	-41.09	-0.91	4.34	-0.0452	-0.08769999	-0.4755	
0.09552599	0.30866	0.908168	-40.32	1.54	4.62	-0.0426	-0.0772	-0.4739	
0.09357399	0.282796	0.91134	-40.04	1.33	4.2	-0.0396	-0.0758	-0.4753	
0.103822	0.274378	0.925126	-38.22	-0.14	4.27	-0.0355	-0.0622	-0.4636	
0.110776	0.25681	0.932812	-34.93	-1.75	4.55	-0.0341	-0.0608	-0.465	
0.117242	0.238388	0.949648	-32.83	-1.05	5.25	-0.0447	-0.065	-0.4738	
0.116876	0.234728	0.940864	-32.06	-0.7	4.55	-0.0499	-0.0526	-0.4752	
0.119682	0.229238	0.956968	-30.31	-1.33	4.27	-0.0379	-0.0471	-0.4736	
0.121146	0.23607	0.960262	-27.65	-2.17	3.92	-0.0441	-0.0468	-0.4795	
0.122122	0.233996	0.963434	-28.98	-1.89	3.99	-0.0403	-0.0256	-0.4662	
0.127368	0.215574	0.959408	-31.64	0.42	4.41	-0.0443	-0.0391	-0.4678	
0.126392	0.190686	0.968924	-31.08	2.03	5.18	-0.0419	-0.0256	-0.4691	
0.126148	0.182756	0.97173	-29.33	1.47	5.18	-0.044	-0.0149	-0.4734	
0.12688	0.175802	0.973682	-28.35	-0.28	5.11	-0.0455	-0.0117	-0.4618	
0.122244	0.166042	0.981368	-27.93	0.28	5.67	-0.0451	-0.0208	-0.4633	
0.124806	0.155672	0.983808	-26.39	0.91	5.6	-0.0412	-0.0042	-0.4602	
0.129076	0.13969	0.989664	-25.69	0.63	5.74	-0.0351	-0.0045	-0.4601	
0.129198	0.131638	0.984906	-23.24	0.28	5.81	-0.0462	0.0004	-0.4689	
0.125416	0.119316	0.984784	-22.96	1.54	6.09	-0.0466	0.0126	-0.4615	
0.127002	0.118706	1.000156	-19.11	1.4	5.46	-0.0499	0.0157	-0.4659	
0.12017	0.107726	0.992836	-19.11	1.89	5.18	-0.0452	0.0125	-0.4688	
0.11834	0.106506	1.001498	-14.84	1.12	3.85	-0.0418	0.0094	-0.4572	
0.118828	0.105774	0.9943	-11.34	0.91	2.38	-0.0452	0.0156	-0.4586	
0.11834	0.103456	0.995032	-10.5	1.4	2.1	-0.0406	0.0138	-0.4658	
0.111264	0.10065	0.995398	-7.91	0.77	1.26	-0.048	0.0112	-0.4558	
0.110288	0.105042	0.99613	-3.92	0.28	0.49	-0.036	0.0136	-0.4658	
0.113948	0.106384	0.994666	-3.5	1.19	0.63	-0.0348	0.0227	-0.4584	
0.116876	0.11285	0.992592	-2.8	0.49	0.14	-0.0438	0.0186	-0.4557	
0.110044	0.122854	0.98759	-1.4	0.07	-0.63	-0.0347	0.0196	-0.4657	
0.105286	0.129076	0.98881	-1.61	1.05	-0.84	-0.0363	0.0228	-0.4599	
0.105042	0.12566	0.985028	-0.91	1.4	-1.47	-0.0391	0.0184	-0.4542	
0.104432	0.127856	0.987102	0.98	1.33	-2.17	-0.041	0.023	-0.4599	
0.101382	0.128832	0.981368	0.63	1.4	-2.17	-0.0441	0.0247	-0.4585	
0.103334	0.126758	0.985028	3.29	0.56	-2.52	-0.0376	0.0183	-0.4541	
0.108092	0.119316	0.98393	3.43	-0.21	-2.38	-0.0346	0.0182	-0.457	
0.105408	0.120536	0.991006	4.9	1.19	-1.89	-0.0395	0.0229	-0.4643	
0.101504	0.122	0.980026	4.69	-0.14	-1.96	-0.0357	0.0106	-0.4571	
0.103212	0.128588	0.984418	5.04	-0.84	-2.03	-0.0364	0.0243	-0.4584	
0.102236	0.129808	0.984906	6.02	-0.77	-1.89	-0.0318	0.024	-0.4642	
0.107604	0.128954	0.992104	7.42	-1.05	-1.96	-0.039	0.0138	-0.4629	
0.109922	0.134444	0.989298	8.26	-0.77	-1.82	-0.0412	0.0275	-0.4642	
0.104798	0.127856	0.989298	8.4	-0.28	-1.68	-0.0452	0.0125	-0.4673	
0.104432	0.130296	0.99369	10.29	-0.63	-2.03	-0.0345	0.0134	-0.4744	
0.103578	0.134688	0.996984	12.39	-0.14	-2.38	-0.0363	0.0197	-0.4672	
0.107848	0.132126	1.001376	14.14	0.14	-2.66	-0.0357	0.009099999	-0.46	
0.108214	0.127734	1.00162	16.38	-0.14	-3.15	-0.0351	-0.003	-0.4558	
0.111264	0.127734	0.998082	17.36	-0.21	-2.8	-0.0402	0.0062	-0.4644	
0.11163	0.136762	0.992592	17.85	-0.56	-2.24	-0.0335	-0.0046	-0.4601	
0.109068	0.14152	0.995154	19.6	-0.49	-2.31	-0.0402	0.0046	-0.4688	
0.108458	0.150914	1.00101	24.01	0	-3.15	-0.0335	-0.0077	-0.4674	
0.110532	0.154574	0.991616	25.06	1.05	-3.01	-0.0283	-0.0185	-0.4631	
0.106628	0.153476	0.984052	26.25	0.77	-3.08	-0.0423	-0.0149	-0.4661	
0.100162	0.1647	0.975146	28.63	-0.42	-3.64	-0.047	-0.0163	-0.4734	
0.100772	0.181902	0.971486	30.24	-1.96	-3.85	-0.0358	-0.0243	-0.4705	
0.102358	0.193126	0.971852	32.27	-0.77	-3.99	-0.0416	-0.0332	-0.4735	
0.103212	0.203374	0.969534	35.63	-0.98	-4.9	-0.038	-0.0409	-0.4634	
0.104432	0.212036	0.950624	36.12	-1.19	-4.9	-0.0336	-0.0396	-0.4706	
0.10492	0.23363	0.953918	38.85	-3.99	-5.95	-0.038	-0.0487	-0.4866	
0.104676	0.251076	0.938424	37.87	-0.84	-4.41	-0.0452	-0.0574	-0.481	
0.098088	0.264862	0.936228	38.78	-0.91	-4.2	-0.0524	-0.0646	-0.4696	
0.0976	0.283772	0.926346	40.18	-3.92	-4.83	-0.0397	-0.0743	-0.471	
0.096502	0.302438	0.922076	42.14	-4.83	-5.6	-0.0384	-0.0683	-0.4709	
0.099918	0.31354	0.915	42.77	-4.55	-6.02	-0.0394	-0.0804	-0.4725	
0.10248	0.31964	0.907314	42.98	-4.27	-6.3	-0.0388	-0.0941	-0.4726	
0.105042	0.335256	0.900482	44.66	-2.87	-5.81	-0.0431	-0.0984	-0.4684	
0.105164	0.354532	0.886086	47.11	-6.09	-6.37	-0.0431	-0.1031	-0.4843	
0.101626	0.378688	0.878766	48.3	-8.12	-7.21	-0.035	-0.1063	-0.4625	
0.10919	0.400282	0.865712	48.23	-6.65	-7.98	-0.0453	-0.1197	-0.4787	
0.105774	0.417118	0.854	45.92	-3.29	-7.56	-0.0492	-0.1331	-0.4716	
0.109434	0.418826	0.842654	45.78	-5.46	-7.49	-0.0512	-0.1239	-0.473	
0.109312	0.436272	0.824232	46.34	-4.69	-7.14	-0.0503	-0.1452	-0.4747	
0.107604	0.45567	0.814106	46.62	-4.97	-7	-0.0406	-0.1547	-0.4703	
0.101504	0.479826	0.803858	47.04	-5.88	-7.14	-0.0467	-0.1545	-0.4704	
0.099308	0.506056	0.788364	46.34	-6.65	-7.49	-0.0509	-0.1618	-0.4676	
0.101504	0.519598	0.787022	46.27	-7.49	-8.19	-0.044	-0.1804	-0.4677	
0.10431	0.53497	0.76738	45.01	-6.02	-8.68	-0.0501	-0.1816	-0.4707	
0.10553	0.55571	0.755058	42.77	-6.86	-9.17	-0.0545	-0.1829	-0.4635	
0.106384	0.576816	0.74786	43.4	-8.61	-9.66	-0.0492	-0.1983	-0.4578	
0.09942999	0.596214	0.73505	43.33	-9.52	-10.08	-0.0507	-0.1997	-0.4607	
0.099186	0.609024	0.729926	43.82	-8.12	-10.15	-0.0532	-0.2103	-0.4608	
0.09942999	0.61061	0.727486	43.75	-6.51	-10.08	-0.0482	-0.2196	-0.4594	
0.108336	0.613782	0.707722	42.21	-6.16	-9.87	-0.0481	-0.2211	-0.4551	
0.119804	0.628788	0.69174	40.39	-6.65	-9.59	-0.0478	-0.2272	-0.4566	
0.121756	0.646478	0.686128	39.69	-6.02	-8.96	-0.0475	-0.2332	-0.4552	
0.108214	0.665632	0.67771	40.81	-6.72	-8.96	-0.0579	-0.2403	-0.451	
0.09857599	0.683688	0.677222	40.53	-3.57	-8.54	-0.0592	-0.2479	-0.4584	
0.100772	0.708942	0.680394	40.25	-2.03	-9.31	-0.0493	-0.2589	-0.4424	
0.09942999	0.726022	0.67405	40.25	-1.96	-10.43	-0.0475	-0.2651	-0.4468	
0.09394	0.739564	0.659654	40.46	0.84	-10.92	-0.0547	-0.2722	-0.4397	
0.087108	0.74969	0.657092	40.95	0.35	-11.76	-0.0548	-0.2707	-0.4368	
0.081618	0.754692	0.640134	40.53	3.08	-11.76	-0.0497	-0.28	-0.4325	
0.067466	0.759572	0.630984	42.56	1.96	-13.09	-0.046	-0.2938	-0.4311	
0.054412	0.767746	0.61122	45.5	1.4	-14.84	-0.0509	-0.2891	-0.4413	
0.047824	0.777262	0.589382	45.01	0.42	-16.31	-0.0381	-0.2988	-0.4325	
0.050508	0.797636	0.581696	43.19	-3.99	-17.85	-0.0423	-0.3077	-0.4356	
0.053802	0.81862	0.567422	42.21	-5.88	-17.92	-0.0393	-0.3048	-0.4326	
0.044408	0.829966	0.562908	39.76	-5.11	-17.78	-0.0478	-0.3195	-0.4242	
0.035746	0.83997	0.541192	37.38	-4.69	-18.34	-0.0385	-0.3215	-0.4299	
0.01708	0.857538	0.521062	33.04	2.17	-16.73	-0.0309	-0.3218	-0.4312	
0.011834	0.864248	0.517646	32.48	2.45	-16.24	-0.0347	-0.3352	-0.4155	
0.003782	0.872788	0.50386	29.61	3.08	-15.26	-0.0331	-0.3368	-0.4184	
0.004148	0.879254	0.507886	27.72	3.29	-13.79	-0.0329	-0.3413	-0.4155	
-0.004514	0.874008	0.500566	27.23	1.96	-13.23	-0.0327	-0.3443	-0.4112	
0.0183	0.863882	0.506788	26.46	1.61	-12.53	-0.0339	-0.3519	-0.4113	
0.019276	0.852048	0.49837	24.5	3.29	-11.62	-0.0244	-0.3584	-0.4127	
0.017324	0.850462	0.500322	21.7	2.87	-10.92	-0.026	-0.3553	-0.4112	
0.022082	0.851438	0.490806	23.8	3.22	-10.08	-0.0209	-0.3646	-0.404	
0.024644	0.848388	0.49349	23.31	2.24	-8.96	-0.0236	-0.3735	-0.4041	
0.01769	0.845948	0.486902	22.61	1.96	-7.77	-0.0173	-0.3738	-0.3968	
0.014762	0.85217	0.481778	23.8	2.52	-6.65	-0.031	-0.3793	-0.4028	
0.016104	0.849974	0.480314	22.05	2.66	-5.32	-0.011	-0.3802	-0.4055	
0.00305	0.850828	0.469456	21.91	2.73	-4.69	-0.0064	-0.3757	-0.3895	
0.001342	0.856928	0.461038	20.72	3.5	-4.2	-0.0123	-0.3799	-0.3852	
-0.007076	0.868152	0.455304	19.67	2.94	-3.78	-0.0151	-0.389	-0.3955	
-0.00549	0.868884	0.445056	16.17	3.5	-3.15	-0.0147	-0.3951	-0.3898	
-0.004514	0.875594	0.436882	14.98	2.87	-2.73	-0.0105	-0.3861	-0.3867	
0.002928	0.884866	0.440908	14.35	1.19	-3.15	0.0024	-0.4019	-0.3882	
-0.004026	0.897676	0.432124	16.03	-0.56	-3.57	-0.0135	-0.3875	-0.3882	
0.001708	0.905484	0.427122	16.38	-1.4	-3.5	-0.0126	-0.4042	-0.3768	
0.001586	0.910852	0.416142	14	-1.4	-3.43	-0.0175	-0.3978	-0.3739	
-0.012566	0.924638	0.41785	11.9	-0.49	-2.94	-0.0195	-0.3902	-0.384	
-0.010492	0.93818	0.427244	13.51	-0.7	-3.5	-0.0096	-0.4044	-0.384	
-0.021716	0.936106	0.419802	14.42	-0.28	-3.99	-0.0109	-0.4072	-0.3724	
-0.01952	0.91378	0.418704	17.22	0.42	-4.83	-0.0031	-0.4122	-0.3811	
-0.023302	0.910974	0.40138	17.64	0.49	-4.9	-0.0141	-0.4056	-0.3812	
-0.027206	0.915854	0.384422	16.94	0.35	-5.67	-0.0136	-0.4147	-0.374	
-0.02745	0.914878	0.37576	14.21	-0.49	-7.28	-0.0044	-0.4135	-0.3666	
-0.03111	0.921344	0.36295	11.34	1.05	-8.12	-0.003	-0.4122	-0.3768	
-0.0427	0.95709	0.361364	9.03	3.01	-8.12	-0.006	-0.4135	-0.3754	
-0.05612	0.982466	0.351116	7.91	2.45	-8.05	-0.0102	-0.4224	-0.3726	
-0.055754	0.987712	0.336232	5.88	-0.14	-7.56	0.0003	-0.4168	-0.3681	
-0.04758	0.992348	0.348066	3.22	-3.08	-7.14	0.0003	-0.4199	-0.3724	
-0.037942	0.988566	0.35563	2.45	-2.38	-6.37	0.0047	-0.4124	-0.3607	
-0.041358	0.98515	0.36112	3.36	-4.06	-7.42	-0.0057	-0.4196	-0.374	
-0.052094	0.988078	0.363804	4.2	-5.53	-8.47	0.0018	-0.4184	-0.3695	
-0.062952	0.996618	0.35746	2.1	-3.99	-8.75	-0.0025	-0.4197	-0.3638	
-0.056852	0.983686	0.368074	0.91	-3.57	-9.8	0.0067	-0.4247	-0.3739	
-0.057096	0.952088	0.361974	-0.35	-1.61	-9.59	-0.004	-0.4227	-0.3725	
-0.043066	0.915122	0.360266	-1.19	-0.77	-8.82	0.0099	-0.4248	-0.3666	
-0.02989	0.909876	0.37088	1.4	-0.84	-8.47	0.0022	-0.4276	-0.3739	
-0.055388	0.936228	0.35929	2.24	-1.19	-8.68	0.0126	-0.4174	-0.3665	
-0.053802	0.945988	0.366488	4.83	-4.62	-10.43	0.0098	-0.4217	-0.3622	
-0.055022	0.938424	0.365756	3.43	-4.13	-9.38	0.0004	-0.4198	-0.3652	
-0.052338	0.93025	0.360632	1.89	-1.47	-8.05	0.0096	-0.4187	-0.3636	
-0.051362	0.93757	0.358192	2.1	-1.33	-8.05	0.0054	-0.4261	-0.3594	
-0.060146	0.96014	0.352458	1.68	-3.57	-7.98	0.0099	-0.4279	-0.371	
-0.069662	0.96868	0.353068	1.96	-4.97	-7.21	0.0066	-0.4201	-0.3637	
-0.080032	0.970876	0.354044	1.75	-2.87	-5.81	0.0148	-0.4327	-0.371	
-0.082838	0.975634	0.358558	-0.14	0.49	-4.69	0.0031	-0.4124	-0.368	
-0.074786	0.944646	0.36539	-0.07	1.4	-3.71	0.0129	-0.4265	-0.3724	
-0.075518	0.922686	0.356362	0.21	-1.75	-3.71	0.0115	-0.4264	-0.3651	
-0.060512	0.92476	0.347212	0.42	-2.38	-3.43	0.0003	-0.4183	-0.3666	
-0.057462	0.92354	0.361852	-1.4	0.63	-1.68	0.0128	-0.4235	-0.368	
-0.061	0.929274	0.363926	-0.7	-0.98	-1.47	0.0034	-0.4185	-0.3709	
-0.072346	0.94123	0.355508	1.12	-2.94	-1.82	0.0127	-0.4204	-0.368	
-0.087474	0.94611	0.359778	0.21	-0.98	-0.56	0.0114	-0.428	-0.3753	
-0.09272	0.950014	0.36417	-0.56	0.14	0.28	0.0204	-0.4207	-0.365	
-0.087718	0.95282	0.367098	-1.12	-0.49	0.28	0.0083	-0.4247	-0.3652	
-0.081374	0.945866	0.368318	-1.96	0.28	0.14	0.0069	-0.4277	-0.3652	
-0.07625	0.934154	0.373076	-2.8	1.54	0.91	0.0051	-0.4215	-0.3623	
-0.075884	0.924516	0.373076	-3.08	2.03	1.89	0.0003	-0.4168	-0.3652	
-0.077714	0.937936	0.369172	-2.31	0.7	1.75	0.0096	-0.4187	-0.3607	
-0.084302	0.946598	0.3721	-2.24	-0.28	1.26	0.008599999	-0.4292	-0.358	
-0.087352	0.942938	0.381128	-2.94	0.91	1.4	0.0111	-0.4172	-0.3607	
-0.082838	0.928298	0.383568	-1.68	0.98	1.12	0.0142	-0.4205	-0.368	
-0.076738	0.924638	0.372588	-1.54	0.56	0.77	0.0082	-0.4217	-0.3666	
-0.076128	0.931958	0.371978	-3.99	0.35	0.7	0.0003	-0.4199	-0.3739	
-0.083814	0.937448	0.377224	-5.32	-0.49	0.77	0.0144	-0.4235	-0.3694	
-0.087596	0.945134	0.37759	-5.39	-0.84	0.91	0.0112	-0.4203	-0.3622	
-0.09028	0.94916	0.372222	-6.3	-1.54	0.84	0.0123	-0.4113	-0.3693	
-0.084424	0.952942	0.376126	-7.98	-1.33	1.19	0.0108	-0.4128	-0.3708	
-0.082838	0.945134	0.382592	-10.36	-0.91	1.89	0.0001	-0.4122	-0.3651	
-0.074176	0.934154	0.386374	-11.83	-0.63	2.17	0.0128	-0.4235	-0.368	
-0.070272	0.932202	0.38796	-12.46	-0.35	2.45	0.0063	-0.414	-0.3651	
-0.069296	0.933178	0.389058	-12.46	-1.75	2.66	0.0124	-0.4175	-0.3795	
-0.065148	0.942206	0.382104	-13.79	-3.64	2.8	0.009699999	-0.4265	-0.3883	
-0.066246	0.945988	0.391498	-14.35	-3.57	3.36	0.0003	-0.4168	-0.3681	
-0.070638	0.934154	0.39589	-15.05	-3.01	4.9	0.0009999999	-0.4018	-0.3795	
-0.064538	0.92293	0.392474	-15.47	-3.5	6.16	0.0055	-0.4004	-0.3765	
-0.061488	0.925858	0.404918	-16.8	-3.85	6.65	-0.0064	-0.4075	-0.3825	
-0.05002	0.92232	0.41297	-17.08	-3.92	7.28	-0.005	-0.4045	-0.3796	
-0.048434	0.918294	0.408944	-16.73	-4.97	8.4	-0.0054	-0.397	-0.3882	
-0.052582	0.920124	0.413824	-15.96	-5.25	9.87	-0.0057	-0.3893	-0.3809	
-0.057584	0.921344	0.422486	-14.14	-4.48	11.34	-0.0036	-0.4016	-0.3854	
-0.05246	0.92598	0.432734	-12.11	-3.5	11.76	-0.0085	-0.3953	-0.3868	
-0.043066	0.933422	0.434442	-10.43	-0.91	12.04	-0.0089	-0.3862	-0.3853	
-0.02806	0.931226	0.441884	-11.62	0.7	11.55	-0.0072	-0.3908	-0.3824	
-0.02501	0.919514	0.4514	-15.12	3.71	12.11	-0.0154	-0.3814	-0.3925	
-0.027572	0.923174	0.441152	-19.18	6.86	12.53	-0.012	-0.3876	-0.3897	
-0.05612	0.928786	0.42944	-21.84	8.05	11.83	-0.0128	-0.3709	-0.3967	
-0.048922	0.9028	0.454816	-25.62	5.18	10.22	-0.0128	-0.3709	-0.391	
-0.030988	0.899018	0.460062	-23.73	-0.35	8.54	-0.0185	-0.3813	-0.394	
-0.022814	0.909266	0.459086	-23.17	-1.82	8.26	-0.0067	-0.3696	-0.3909	
-0.012688	0.879986	0.483364	-22.33	0.28	9.24	-0.0254	-0.3674	-0.4026	
0.002318	0.866322	0.490806	-21.98	1.75	9.59	-0.0224	-0.3629	-0.3953	
0.0061	0.86559	0.491782	-21.42	2.52	9.94	-0.0196	-0.3601	-0.404	
0.003904	0.861686	0.500688	-21.77	3.99	10.29	-0.0243	-0.3599	-0.4098	
0.000976	0.857294	0.50447	-22.26	3.99	10.36	-0.032	-0.3565	-0.4055	
-0.004392	0.862662	0.502396	-22.96	2.73	10.08	-0.0186	-0.3511	-0.4154	
-0.009516	0.871568	0.511912	-23.45	1.54	9.87	-0.021	-0.3328	-0.4167	
-0.000244	0.870226	0.533262	-21.14	1.61	9.38	-0.0265	-0.343	-0.4024	
0.009516	0.853634	0.538996	-18.69	0.77	9.24	-0.0262	-0.3491	-0.3981	
0.013298	0.841068	0.548146	-16.73	2.24	9.8	-0.0238	-0.3356	-0.411	
0.014518	0.83753	0.555466	-13.51	2.87	10.01	-0.0299	-0.3416	-0.4227	
0.019398	0.830942	0.557784	-12.32	2.52	9.73	-0.0132	-0.3346	-0.4138	
0.017568	0.82533	0.554368	-12.32	3.22	9.1	-0.0224	-0.3358	-0.4168	
0.024034	0.818132	0.559126	-13.37	6.37	9.38	-0.0289	-0.3295	-0.424	
0.01708	0.806664	0.558272	-13.3	7.42	8.96	-0.0225	-0.3327	-0.4168	
0.005734	0.804712	0.55144	-12.95	6.86	8.75	-0.0333	-0.3338	-0.4212	
0.005368	0.808616	0.558272	-13.44	6.51	9.03	-0.0196	-0.3299	-0.4211	
0.004636	0.816302	0.5612	-13.09	6.09	9.52	-0.0257	-0.3342	-0.4298	
0.011346	0.809836	0.554734	-15.12	7.49	10.22	-0.0277	-0.3203	-0.4167	
0.0122	0.800198	0.561688	-18.13	8.47	11.06	-0.0231	-0.3222	-0.4268	
0.010614	0.802516	0.582184	-21.21	5.74	10.92	-0.0295	-0.3173	-0.4268	
0.01525	0.801662	0.590724	-22.96	3.22	10.01	-0.0081	-0.3168	-0.4309	
0.022692	0.787144	0.584136	-26.81	2.24	9.94	-0.0161	-0.3088	-0.431	
0.021594	0.774822	0.602558	-30.1	3.57	11.48	-0.0241	-0.304	-0.4382	
0.02562	0.774456	0.621102	-31.08	4.27	12.39	-0.0271	-0.3022	-0.4281	
0.032696	0.768478	0.62952	-32.55	2.8	12.04	-0.0286	-0.3053	-0.4325	
0.038918	0.76311	0.626836	-34.65	3.08	11.97	-0.0247	-0.2935	-0.4512	
0.034526	0.755058	0.63074	-33.32	3.64	12.46	-0.0262	-0.2902	-0.4352	
0.02867	0.739442	0.640134	-34.93	0.49	13.09	-0.0173	-0.2861	-0.4438	
0.040504	0.725046	0.642452	-35.84	0.7	14.07	-0.0285	-0.2765	-0.4424	
0.054534	0.699914	0.659166	-37.31	1.54	14.7	-0.029	-0.2675	-0.4539	
0.0549	0.685274	0.664778	-38.08	2.03	14.98	-0.0444	-0.2667	-0.4497	
0.0488	0.67405	0.675514	-36.26	-0.28	13.44	-0.0323	-0.2612	-0.4495	
0.05368	0.684176	0.693448	-32.83	0	12.67	-0.0333	-0.2415	-0.4522	
0.06039	0.681858	0.695278	-32.9	0.14	12.04	-0.0407	-0.2488	-0.4567	
0.064416	0.672952	0.698084	-36.12	-0.07	11.83	-0.0333	-0.2415	-0.4522	
0.065026	0.669414	0.713822	-37.31	-2.38	10.71	-0.0289	-0.2371	-0.4565	
0.066978	0.659288	0.718214	-40.39	-1.47	10.85	-0.0327	-0.2218	-0.4549	
0.075884	0.63501	0.727852	-45.22	2.73	11.76	-0.0358	-0.2217	-0.4593	
0.069418	0.619516	0.730292	-45.22	2.1	10.92	-0.039	-0.2169	-0.4521	
0.063928	0.600972	0.736514	-44.17	1.05	9.87	-0.0412	-0.2063	-0.4621	
0.067222	0.59048	0.745542	-42.49	-0.42	8.33	-0.0418	-0.191	-0.4562	
0.071736	0.574376	0.757376	-44.17	1.05	7.49	-0.0432	-0.1955	-0.4635	
0.076616	0.55632	0.772992	-43.96	-0.7	6.02	-0.0374	-0.1898	-0.4721	
0.081496	0.536556	0.785314	-43.33	0.21	5.81	-0.0484	-0.1816	-0.4591	
0.084302	0.519354	0.798246	-43.19	0.21	5.46	-0.0428	-0.1697	-0.456	
0.083814	0.501542	0.806542	-44.38	0.42	5.81	-0.0385	-0.1654	-0.4675	
0.08784	0.48495	0.80581	-45.36	0.28	6.02	-0.0432	-0.1653	-0.4777	
0.085522	0.45811	0.812886	-45.71	0.56	6.72	-0.0394	-0.1472	-0.4731	
0.085766	0.441274	0.828014	-43.26	0.14	6.3	-0.0499	-0.1497	-0.4617	
0.087108	0.427366	0.845704	-44.17	0.28	6.58	-0.0476	-0.1346	-0.4673	
0.088694	0.410774	0.856928	-46.41	-0.21	7.07	-0.0403	-0.1306	-0.4817	
0.09089	0.393328	0.872544	-45.22	-1.33	6.79	-0.042	-0.1243	-0.4715	
0.100406	0.37149	0.885232	-43.54	-1.4	6.23	-0.0563	-0.113	-0.4686	
0.10675	0.347578	0.888648	-42.49	-0.84	5.39	-0.0415	-0.1016	-0.4742	
0.107604	0.316834	0.8967	-42.49	0.07	5.32	-0.0458	-0.1074	-0.4699	
0.103578	0.30012	0.891942	-39.41	0.07	5.11	-0.0464	-0.0968	-0.4756	
0.10187	0.287798	0.895602	-38.71	-1.61	5.04	-0.0407	-0.0849	-0.4711	
0.108092	0.288896	0.904508	-37.1	-3.08	4.9	-0.0452	-0.0862	-0.4697	
0.101992	0.284138	0.92842	-36.47	-3.29	5.6	-0.0487	-0.0785	-0.4755	
0.115168	0.282064	0.933178	-32.62	-3.92	5.18	-0.0538	-0.0691	-0.474	
0.120536	0.263276	0.935984	-30.45	-3.92	4.9	-0.0507	-0.0677	-0.4739	
0.129442	0.246196	0.940254	-32.76	-3.57	5.39	-0.057	-0.06439999	-0.4682	
0.137006	0.241926	0.948062	-31.43	-3.78	5.46	-0.0575	-0.0506	-0.4608	
0.141276	0.236436	0.939156	-32.55	-3.08	6.3	-0.041	-0.0454	-0.4707	
0.13664	0.226676	0.943182	-33.04	-1.4	6.86	-0.0483	-0.0526	-0.4694	
0.13542	0.222284	0.961238	-31.43	-1.75	6.51	-0.0534	-0.0402	-0.4621	
0.138958	0.22387	0.967338	-27.93	-2.87	5.74	-0.0658	-0.0381	-0.4651	
0.14274	0.21838	0.975024	-26.81	-2.31	6.09	-0.0583	-0.0355	-0.4708	
0.14518	0.21106	0.977952	-26.81	-1.96	6.23	-0.0512	-0.0236	-0.4692	
0.1464	0.194834	0.983076	-26.32	-0.77	6.09	-0.0542	-0.0219	-0.4591	
0.145546	0.182024	0.987224	-24.15	-0.63	5.74	-0.0532	-0.0129	-0.4647	
0.150914	0.174948	0.984418	-22.26	-1.47	5.39	-0.0505	-0.0054	-0.4704	
0.15616	0.158478	0.98942	-19.46	-1.4	4.55	-0.0564	-0.0096	-0.4619	
0.1525	0.152988	0.996984	-17.64	-0.56	4.13	-0.0501	-0.0114	-0.4618	
0.159576	0.14762	0.995154	-15.12	0.42	3.71	-0.0537	-0.0007	-0.4632	
0.156648	0.1403	0.992836	-12.74	-0.42	3.01	-0.0535	-0.0021	-0.4545	
0.155428	0.134444	0.992714	-12.04	0.63	2.73	-0.0537	0.0008	-0.4559	
0.155062	0.124806	0.99003	-10.92	1.89	2.73	-0.0556	0.0053	-0.4689	
0.147254	0.12627	0.988566	-8.68	1.26	2.1	-0.0493	0.0036	-0.4602	
0.143472	0.13237	0.98637	-6.65	1.82	1.82	-0.0505	-0.0022	-0.4545	
0.139202	0.131028	0.981856	-5.18	2.59	1.47	-0.0568	0.0009	-0.4618	
0.138714	0.131516	0.980758	-2.66	1.96	0.84	-0.0495	0.0113	-0.4529	
0.138104	0.130296	0.973194	-2.52	1.96	0.56	-0.0527	0.0114	-0.4558	
0.137372	0.134322	0.977952	-2.94	1.89	0.56	-0.0527	0.0098	-0.4689	
0.134444	0.144448	0.980026	-1.05	0.7	-0.77	-0.0556	0.01	-0.4544	
0.13481	0.14518	0.977098	0.35	0.98	-1.12	-0.0477	0.0051	-0.4544	
0.135908	0.141886	0.97722	0.14	1.19	-1.12	-0.04	0.0033	-0.4543	
0.129808	0.14335	0.984662	2.03	1.05	-1.33	-0.0497	0.0143	-0.4558	
0.1342	0.14884	0.980148	2.52	0.28	-1.19	-0.0496	0.0112	-0.4616	
0.1342	0.143106	0.98393	2.52	0.7	-0.91	-0.0554	0.0055	-0.453	
0.131638	0.142618	0.98088	4.2	0.49	-0.77	-0.0492	0.0021	-0.4617	
0.131882	0.148108	0.984662	5.6	0.28	-0.63	-0.0465	0.0095	-0.463	
0.130906	0.151402	0.981246	5.67	-0.14	-0.84	-0.048	0.0128	-0.45	
0.132736	0.155672	0.987346	7.28	-0.42	-1.19	-0.0539	0.0054	-0.4588	
0.131638	0.158356	0.98271	8.33	0.49	-1.26	-0.0508	0.0021	-0.4631	
0.129442	0.156282	0.986492	9.73	0.14	-1.75	-0.0553	0.0024	-0.4588	
0.13176	0.1525	0.98637	11.9	0.28	-2.03	-0.0567	-0.0036	-0.4647	
0.136518	0.146888	0.989664	13.16	0.35	-1.96	-0.0444	-0.0009999999	-0.453	
0.137982	0.14823	0.992592	15.05	-0.21	-2.45	-0.0472	-0.008599999	-0.4646	
0.135176	0.15189	0.991372	16.73	0.49	-2.59	-0.0482	-0.0191	-0.459	
0.133346	0.157258	0.985882	17.57	0.35	-2.52	-0.0561	-0.0142	-0.4619	
0.134078	0.15677	0.98942	19.18	0.63	-2.52	-0.0576	-0.0157	-0.4619	
0.134566	0.162504	0.985638	20.58	0.42	-3.08	-0.0532	-0.0129	-0.4705	
0.13115	0.172508	0.982832	22.26	0	-3.43	-0.051	-0.0266	-0.462	
0.128344	0.180194	0.979294	23.87	0	-3.29	-0.0494	-0.0298	-0.4678	
0.127978	0.180438	0.982222	25.69	1.05	-3.29	-0.0511	-0.0267	-0.4692	
0.130296	0.192394	0.974902	28.14	-0.42	-3.85	-0.0473	-0.0404	-0.4635	
0.127734	0.204716	0.968192	29.26	-1.61	-4.2	-0.053	-0.0493	-0.4665	
0.125294	0.21838	0.965752	31.01	-1.19	-4.41	-0.0592	-0.0475	-0.4594	
0.12139	0.233996	0.95221	34.3	-0.98	-4.83	-0.0471	-0.0466	-0.4708	
0.119682	0.240462	0.9455	34.02	-0.63	-4.83	-0.0485	-0.0496	-0.4708	
0.125782	0.259738	0.938302	34.86	-1.33	-4.83	-0.0543	-0.0569	-0.4681	
0.122366	0.27572	0.939644	38.64	-3.43	-6.51	-0.0522	-0.0676	-0.4682	
0.120048	0.297436	0.917562	39.55	-2.66	-5.88	-0.0364	-0.0775	-0.471	
0.11834	0.307196	0.913902	38.99	1.05	-4.62	-0.0502	-0.0768	-0.4639	
0.117364	0.319152	0.900848	40.39	-0.84	-5.25	-0.0565	-0.0766	-0.477	
0.116876	0.34038	0.892308	43.68	-5.18	-7.14	-0.0515	-0.0875	-0.4814	
0.116754	0.36356	0.873032	44.52	-6.58	-7.77	-0.0524	-0.098	-0.4728	
0.115778	0.377224	0.86925	43.96	-5.11	-7.21	-0.0506	-0.1042	-0.4772	
0.11529	0.397354	0.861442	44.45	-3.43	-6.72	-0.0593	-0.1144	-0.4701	
0.116388	0.414434	0.853146	43.75	-5.39	-6.72	-0.0579	-0.113	-0.473	
0.116144	0.438712	0.8418	43.4	-7.35	-7.21	-0.0632	-0.131	-0.4761	
0.110288	0.460306	0.832406	42.91	-8.54	-7.42	-0.0525	-0.1283	-0.4658	
0.112362	0.473848	0.826184	42.63	-7.21	-7.63	-0.0565	-0.1387	-0.4616	
0.109678	0.482632	0.811056	41.37	-5.46	-7.56	-0.0623	-0.1476	-0.4647	
0.11834	0.496052	0.8174	42	-4.9	-8.05	-0.0528	-0.1573	-0.4748	
0.125904	0.510326	0.807152	41.23	-6.79	-8.89	-0.0559	-0.154	-0.4632	
0.130174	0.519232	0.799832	40.32	-7.42	-9.1	-0.0538	-0.1678	-0.472	
0.135298	0.526674	0.787632	41.02	-7.98	-9.87	-0.0612	-0.1719	-0.462	
0.1403	0.53314	0.791902	41.93	-7.35	-10.29	-0.0637	-0.184	-0.4607	
0.14213	0.54534	0.777628	42.77	-5.88	-10.5	-0.0651	-0.1869	-0.4607	
0.142252	0.553392	0.770552	40.53	-4.76	-9.94	-0.0631	-0.1977	-0.4652	
0.13664	0.571204	0.75762	39.34	-3.64	-8.96	-0.0582	-0.2024	-0.4608	
0.13176	0.589626	0.74725	38.92	-3.78	-7.98	-0.0565	-0.2071	-0.4608	
0.120902	0.604144	0.72956	38.22	-3.78	-8.19	-0.0564	-0.2086	-0.4623	
0.110044	0.612074	0.719678	39.13	-4.76	-10.22	-0.0648	-0.2233	-0.4481	
0.105286	0.621468	0.709918	41.09	-3.92	-11.27	-0.0627	-0.2371	-0.4525	
0.102602	0.63501	0.709552	43.82	-5.46	-12.74	-0.0577	-0.2449	-0.4554	
0.107726	0.642696	0.707234	46.13	-5.67	-14.14	-0.0652	-0.2476	-0.4497	
0.108702	0.649528	0.694546	44.45	-1.33	-13.37	-0.0664	-0.2535	-0.4411	
0.114436	0.647088	0.681004	43.05	-2.38	-13.65	-0.0647	-0.2566	-0.4426	
0.116632	0.651968	0.667584	43.19	-0.7	-13.09	-0.0628	-0.2658	-0.4426	
0.107848	0.666852	0.65331	43.26	-1.19	-13.02	-0.0642	-0.2673	-0.4412	
0.095892	0.696254	0.648186	42.7	-2.45	-13.09	-0.0511	-0.2861	-0.4413	
0.090036	0.73383	0.642086	43.05	-2.45	-12.74	-0.0678	-0.2883	-0.4357	
0.08479	0.74908	0.630496	41.93	-3.57	-13.79	-0.0597	-0.2962	-0.4328	
0.091134	0.752496	0.614514	39.34	2.52	-12.95	-0.0562	-0.3055	-0.4328	
0.087718	0.75274	0.609756	36.68	4.06	-12.95	-0.0579	-0.2993	-0.4241	
0.082594	0.757498	0.595726	36.33	6.09	-12.46	-0.0561	-0.3039	-0.4212	
0.063684	0.76738	0.579866	36.89	4.2	-12.46	-0.0418	-0.3183	-0.4342	
0.055388	0.790072	0.558882	36.89	1.33	-12.18	-0.0511	-0.3148	-0.4256	
0.035136	0.824598	0.545096	38.08	-0.63	-11.62	-0.0368	-0.323	-0.4212	
0.027206	0.83692	0.527406	36.33	-0.63	-11.83	-0.0458	-0.3286	-0.4199	
0.022448	0.845582	0.510204	33.32	2.8	-11.9	-0.0423	-0.3379	-0.4185	
0.02684	0.850584	0.510204	31.01	5.04	-12.32	-0.0417	-0.3485	-0.4142	
0.017568	0.853146	0.499834	30.66	7.07	-12.6	-0.0437	-0.3377	-0.4084	
0.013298	0.851072	0.49471	29.68	6.65	-12.67	-0.0384	-0.3532	-0.4084	
0.021838	0.856928	0.497272	30.03	6.93	-11.76	-0.0337	-0.3549	-0.4084	
0.026474	0.85156	0.498004	31.01	5.32	-10.5	-0.0258	-0.3582	-0.4026	
0.027694	0.855342	0.494344	30.8	0.98	-10.5	-0.0353	-0.3518	-0.4055	
0.026596	0.867786	0.479948	26.81	0.07	-10.01	-0.0258	-0.3582	-0.4011	
0.030744	0.88023	0.470554	24.36	1.75	-9.31	-0.0283	-0.3702	-0.3984	
0.027572	0.88145	0.471164	24.71	1.05	-9.1	-0.034	-0.3775	-0.3927	
0.01342	0.878888	0.454328	24.08	-0.21	-8.75	-0.0207	-0.3691	-0.4041	
0.001708	0.882548	0.446276	22.4	-1.33	-9.24	-0.026	-0.3824	-0.3854	
-0.009881999	0.90524	0.447862	21.7	-1.4	-9.8	-0.0274	-0.3885	-0.3956	
-0.015616	0.915122	0.441152	20.79	-1.05	-10.01	-0.0243	-0.387	-0.3854	
-0.00366	0.914268	0.440298	22.33	-3.15	-10.01	-0.0259	-0.3854	-0.3854	
0.000732	0.906704	0.436028	24.99	-4.83	-10.29	-0.0254	-0.3977	-0.3942	
-0.002074	0.90341	0.423462	26.11	-4.27	-10.08	-0.0161	-0.398	-0.3855	
-0.000488	0.898164	0.410896	25.83	-2.38	-10.15	-0.0222	-0.3977	-0.3797	
-0.004636	0.894748	0.388814	23.45	-0.7	-9.94	-0.0174	-0.4009	-0.3754	
-0.010614	0.897066	0.37637	22.33	-0.91	-10.15	-0.0127	-0.4042	-0.3811	
-0.020984	0.923296	0.376004	22.75	-0.07	-10.01	-0.0236	-0.3991	-0.3725	
-0.029524	0.941962	0.37332	23.94	0.21	-10.29	-0.0122	-0.4102	-0.3681	
-0.029646	0.962702	0.369782	25.55	-0.42	-10.57	-0.0224	-0.425	-0.3756	
-0.038552	0.965386	0.355874	26.39	0.14	-11.06	0.0033	-0.417	-0.3709	
-0.040138	0.962702	0.338428	23.66	1.12	-12.32	-0.0071	-0.421	-0.3638	
-0.036844	0.982954	0.325984	18.62	4.13	-11.76	-0.0022	-0.4273	-0.3624	
-0.047336	0.97539	0.33489	16.31	-0.28	-13.3	-0.0053	-0.4256	-0.3639	
-0.056852	0.996252	0.315248	14.49	1.19	-13.65	-0.0053	-0.4256	-0.3653	
-0.057584	1.021872	0.314638	12.67	0.56	-14.21	-0.0047	-0.4362	-0.3538	
-0.06893	1.01931	0.314028	13.09	-1.89	-14.63	-0.0142	-0.4281	-0.3466	
-0.07137	1.016382	0.312198	12.67	-3.08	-14.84	0.0076	-0.4367	-0.345	
-0.06588	0.997106	0.314638	9.45	-3.78	-14.21	0.0053	-0.4214	-0.3463	
-0.061854	0.984174	0.317688	6.23	-4.13	-12.88	-0.0063	-0.4345	-0.3466	
-0.06161	0.985638	0.316834	6.72	-3.85	-12.6	0.0167	-0.4356	-0.3478	
-0.071614	0.99796	0.303292	6.44	-2.8	-11.9	0.0029	-0.4365	-0.3508	
-0.077714	0.992592	0.31232	4.55	-4.06	-11.83	0.0108	-0.4398	-0.345	
-0.077226	0.960628	0.300974	2.94	0.56	-9.8	0.0232	-0.4435	-0.3492	
-0.073566	0.96075	0.292556	1.05	2.03	-9.03	0.0232	-0.4435	-0.3492	
-0.08295999	0.974292	0.31537	1.75	0.14	-8.47	0.0156	-0.443	-0.3392	
-0.096624	0.974292	0.310124	4.06	-2.24	-7.91	0.0232	-0.445	-0.3522	
-0.092232	0.973316	0.293166	1.82	0.21	-7.28	0.0232	-0.445	-0.3522	
-0.08784	0.979416	0.298534	-1.26	2.03	-6.09	0.0183	-0.4387	-0.3521	
-0.092842	0.974048	0.313174	-0.21	0.35	-5.32	0.0168	-0.4371	-0.3507	
-0.083692	0.960628	0.312076	0.35	-0.07	-4.48	0.0168	-0.4371	-0.3507	
-0.089426	0.972096	0.299632	0.63	0.49	-4.06	0.0199	-0.4388	-0.3492	
-0.103212	0.974414	0.300852	-1.4	2.17	-3.43	0.0139	-0.4415	-0.345	
-0.113582	0.979294	0.302194	-3.36	2.8	-2.52	0.0215	-0.4404	-0.3521	
-0.117974	0.987468	0.300974	-3.85	2.31	-2.03	0.017	-0.4448	-0.3566	
-0.119926	0.981002	0.299632	-5.25	1.05	-1.82	0.0248	-0.4451	-0.3492	
-0.111874	0.963922	0.30927	-5.11	0.35	-1.47	0.0323	-0.4408	-0.3462	
-0.101016	0.964532	0.315004	-7.14	0.14	-0.77	0.0227	-0.4328	-0.3506	
-0.10248	0.975146	0.326594	-7.28	-0.49	0.7	0.0288	-0.4348	-0.3636	
-0.111996	0.959652	0.328546	-6.16	0.56	2.17	0.0259	-0.4392	-0.3622	
-0.111508	0.946964	0.322324	-6.51	1.96	2.87	0.0109	-0.4445	-0.3523	
-0.10614	0.946842	0.31964	-7.07	2.59	3.5	0.0247	-0.442	-0.3492	
-0.096014	0.946354	0.334524	-6.44	1.26	3.43	0.0151	-0.434	-0.3478	
-0.091866	0.943792	0.338672	-6.16	0.42	3.5	0.0103	-0.4323	-0.3565	
-0.095648	0.940376	0.331108	-6.65	0.98	4.27	0.0148	-0.4326	-0.3652	
-0.110044	0.957822	0.332694	-7.91	1.05	5.32	0.0163	-0.4296	-0.3608	
-0.110288	0.966118	0.341112	-7.98	0.77	5.67	0.0167	-0.4372	-0.3565	
-0.100284	0.971974	0.348066	-8.12	0.42	6.02	0.0224	-0.4268	-0.352	
-0.091744	0.965874	0.35624	-8.54	0.07	6.65	0.0209	-0.4314	-0.3694	
-0.085644	0.95282	0.35319	-9.17	-0.07	7.42	0.0067	-0.4232	-0.3695	
-0.088206	0.951112	0.345138	-11.34	0.42	8.12	0.016	-0.4251	-0.368	
-0.099064	0.96563	0.35197	-13.86	1.89	8.82	0.0157	-0.4174	-0.3607	
-0.10004	0.96563	0.363316	-14	2.31	9.03	0.0177	-0.4267	-0.3636	
-0.090402	0.948184	0.366	-14.07	1.54	8.75	0.0035	-0.4184	-0.3623	
-0.084668	0.936228	0.35624	-14.63	0.77	8.33	0.0095	-0.4172	-0.3665	
-0.07259	0.939278	0.356728	-15.12	0.84	8.12	0.0015	-0.4108	-0.3709	
-0.071126	0.944524	0.36844	-17.08	0.91	8.4	0.0079	-0.4156	-0.3694	
-0.068076	0.951478	0.370514	-17.99	0.77	8.12	0.0045	-0.411	-0.3796	
-0.069906	0.96258	0.375272	-19.32	-0.42	7.77	0.0094	-0.4173	-0.3723	
-0.071126	0.965386	0.38918	-19.81	-0.63	7.56	0.0094	-0.4173	-0.3723	
-0.061854	0.952088	0.402234	-18.9	0.42	7.56	0.0101	-0.4007	-0.3808	
-0.049166	0.937448	0.401746	-19.25	1.68	7.77	-0.0021	-0.4017	-0.3839	
-0.04758	0.922808	0.410164	-18.97	2.17	7.7	0.0025	-0.4018	-0.3795	
-0.044042	0.913658	0.410774	-19.04	2.38	7.7	-0.0003	-0.4079	-0.3868	
-0.043432	0.901458	0.410774	-20.93	3.43	7.77	0.0006	-0.3973	-0.3925	
-0.050264	0.90463	0.417972	-22.82	3.64	7.49	0.0033	-0.3883	-0.3895	
-0.056242	0.91927	0.42761	-23.45	1.61	6.51	-0.0009	-0.3941	-0.3852	
-0.049776	0.911096	0.43676	-25.2	-1.12	6.09	0.0003	-0.3896	-0.3852	
-0.042944	0.91378	0.44896	-24.43	-6.23	4.76	0.0001	-0.3851	-0.3909	
-0.030866	0.902312	0.458232	-24.78	-5.6	4.83	-0.0063	-0.3804	-0.3982	
-0.023302	0.89304	0.464698	-26.11	-3.92	5.11	-0.0016	-0.3805	-0.3938	
-0.027572	0.883036	0.476288	-27.79	-3.78	5.46	-0.0142	-0.377	-0.4026	
-0.026718	0.876448	0.482022	-28.84	-4.27	5.67	-0.0035	-0.376	-0.4025	
-0.027084	0.866322	0.493368	-29.12	-2.94	5.67	-0.0055	-0.3652	-0.401	
-0.027328	0.863028	0.50386	-29.82	-1.47	6.02	-0.0164	-0.3649	-0.4156	
-0.02684	0.853268	0.508496	-29.75	-0.77	6.37	-0.0131	-0.368	-0.4098	
-0.023302	0.839848	0.518012	-28.49	-0.77	6.58	-0.0092	-0.3514	-0.4038	
-0.015128	0.829478	0.533628	-26.74	-1.26	6.51	-0.0189	-0.345	-0.4183	
-0.007929999	0.822402	0.547658	-25.62	-2.24	6.3	-0.0187	-0.3465	-0.4096	
-0.005368	0.819718	0.556564	-24.99	-2.03	6.23	-0.007999999	-0.3471	-0.4182	
-0.002806	0.819596	0.568642	-23.73	-1.12	6.37	-0.0145	-0.3407	-0.4225	
-0.006588	0.822158	0.571448	-22.4	-0.35	6.23	-0.0132	-0.3362	-0.4196	
-0.00915	0.820694	0.58316	-20.79	0.28	6.02	-0.0197	-0.3299	-0.4312	
-0.01586	0.814106	0.582672	-18.62	1.54	6.02	-0.026	-0.325	-0.4211	
-0.019032	0.799954	0.580842	-16.24	1.96	5.74	-0.0165	-0.3315	-0.4196	
-0.018666	0.78568	0.597434	-14.35	1.4	5.6	-0.0136	-0.3302	-0.4311	
-0.011224	0.778848	0.601216	-13.3	1.47	5.74	-0.0215	-0.3238	-0.4297	
-0.011712	0.778726	0.599996	-12.6	1.61	6.16	-0.0189	-0.3132	-0.4223	
-0.017568	0.783362	0.59475	-12.95	1.4	6.93	-0.0278	-0.322	-0.4341	
-0.019032	0.783972	0.588894	-13.37	0.98	7.56	-0.0281	-0.3143	-0.4239	
-0.01647	0.787022	0.59048	-13.3	0.35	7.63	-0.0131	-0.3059	-0.4294	
-0.010004	0.783484	0.59902	-13.72	-0.91	7.28	-0.0159	-0.3134	-0.4281	
-0.004514	0.780556	0.600606	-13.86	-1.61	7.14	-0.0158	-0.3165	-0.4383	
0.002928	0.77531	0.609146	-15.4	-0.77	7.07	-0.0287	-0.3022	-0.4296	
0.004148	0.767258	0.607682	-17.08	-1.05	7.21	-0.0145	-0.3105	-0.4324	
0.00976	0.755424	0.610366	-18.2	-0.35	7.84	-0.0257	-0.3008	-0.4295	
0.024278	0.744322	0.631472	-20.3	-0.49	9.1	-0.018	-0.3012	-0.4295	
0.040382	0.733952	0.639768	-18.97	-1.47	9.94	-0.0305	-0.2992	-0.4397	
0.050874	0.727974	0.65941	-18.97	-2.24	10.36	-0.0295	-0.287	-0.4367	
0.053924	0.72102	0.66734	-20.3	-1.75	10.78	-0.0246	-0.2934	-0.4396	
0.057584	0.710894	0.673562	-22.89	-0.21	11.34	-0.0292	-0.2947	-0.4454	
0.050386	0.702232	0.680394	-24.08	1.47	11.48	-0.0203	-0.2875	-0.4395	
0.041724	0.697352	0.685518	-20.93	1.33	10.71	-0.0301	-0.2765	-0.4496	
0.0488	0.693326	0.688446	-17.71	-0.56	9.45	-0.0315	-0.2764	-0.4409	
0.060146	0.685152	0.689178	-17.57	0.84	9.45	-0.0344	-0.2824	-0.4468	
0.055754	0.684786	0.696376	-19.67	1.4	10.22	-0.0364	-0.2701	-0.4409	
0.060756	0.68564	0.701744	-20.02	-2.94	9.45	-0.0379	-0.2747	-0.4569	
0.066246	0.684908	0.709186	-20.58	-2.59	10.08	-0.0382	-0.2654	-0.4409	
0.06161	0.683566	0.716018	-19.6	-0.35	10.5	-0.0324	-0.2597	-0.448	
0.07015	0.671976	0.721874	-17.57	0.28	10.29	-0.0417	-0.2593	-0.4525	
0.072834	0.662216	0.716628	-16.17	3.43	10.15	-0.045	-0.2515	-0.4452	
0.073566	0.64416	0.732366	-16.73	5.04	10.64	-0.0446	-0.2637	-0.454	
0.072102	0.642574	0.73322	-17.5	2.73	10.43	-0.0333	-0.243	-0.458	
0.06466	0.644892	0.734562	-16.38	-0.77	9.73	-0.0394	-0.2427	-0.4566	
0.068686	0.658312	0.745664	-12.53	-1.33	8.33	-0.0393	-0.2458	-0.4567	
0.071614	0.651358	0.73749	-9.94	0.21	7	-0.0378	-0.2412	-0.4479	
0.06954	0.644038	0.747738	-8.26	0.42	5.74	-0.0409	-0.2442	-0.4581	
0.071126	0.638304	0.74786	-8.12	-0.21	3.85	-0.0441	-0.2394	-0.4523	
0.070272	0.62891	0.736514	-7.56	0.35	2.03	-0.0475	-0.2348	-0.4567	
0.07198	0.614514	0.73932	-8.19	0.7	0.98	-0.0335	-0.2369	-0.4536	
0.071004	0.605974	0.735904	-9.03	0.21	0	-0.0489	-0.2331	-0.4436	
0.07137	0.615368	0.74603	-7.49	-1.96	-1.05	-0.0462	-0.2319	-0.4653	
0.07076	0.631594	0.762378	-5.67	-0.77	-1.4	-0.0504	-0.2361	-0.4553	
0.072956	0.634522	0.758474	-6.72	-2.1	-2.17	-0.046	-0.2349	-0.4639	
0.080764	0.61854	0.770796	-7.7	-1.82	-2.24	-0.0432	-0.2274	-0.4551	
0.077958	0.607926	0.777628	-8.89	0.14	-1.89	-0.0414	-0.2335	-0.4551	
0.073932	0.604754	0.777018	-8.61	0.28	-1.89	-0.0416	-0.2274	-0.4522	
0.075396	0.601704	0.78019	-8.33	0.56	-1.54	-0.0523	-0.2284	-0.4538	
0.072712	0.593164	0.786778	-8.33	1.82	-1.05	-0.0367	-0.2353	-0.4609	
0.064294	0.587552	0.785192	-6.37	1.82	-0.98	-0.0341	-0.2263	-0.4608	
0.063562	0.579988	0.78568	-5.11	1.61	-0.56	-0.0404	-0.2215	-0.4594	
0.063074	0.577548	0.786412	-4.27	2.38	0.35	-0.0373	-0.22	-0.4506	
0.06222	0.575596	0.783118	-3.78	2.38	0.77	-0.0465	-0.2211	-0.4522	
0.062098	0.576938	0.789828	-2.66	2.03	0.91	-0.0509	-0.2286	-0.4624	
0.064782	0.57645	0.792634	-0.84	1.68	0.98	-0.0372	-0.2215	-0.4492	
0.07124799	0.579988	0.793854	2.1	0.98	1.26	-0.0436	-0.2198	-0.4623	
0.073078	0.582672	0.788974	2.45	0.56	1.75	-0.0463	-0.2257	-0.4551	
0.069296	0.588772	0.791536	2.17	0.98	1.89	-0.0402	-0.2245	-0.455	
0.063684	0.59719	0.787388	4.41	0.42	1.61	-0.0357	-0.2247	-0.4608	
0.05978	0.596458	0.789218	7	-0.77	1.4	-0.0463	-0.2273	-0.4595	
0.066124	0.591944	0.789462	8.19	0	2.1	-0.0375	-0.217	-0.452	
0.067954	0.578768	0.785924	7.28	-0.14	3.08	-0.0451	-0.2197	-0.455	
0.059292	0.580842	0.775188	9.17	-1.68	3.99	-0.0355	-0.2293	-0.4594	
0.05368	0.593652	0.766038	10.78	-2.45	5.32	-0.0338	-0.2308	-0.455	
0.044408	0.597312	0.767868	13.51	-3.5	6.79	-0.0468	-0.215	-0.455	
0.041602	0.607194	0.752618	14.63	-4.97	7.91	-0.0352	-0.2369	-0.4652	
0.043066	0.610366	0.746274	15.4	-7.42	9.1	-0.0445	-0.2303	-0.4522	
0.043676	0.609146	0.74176	15.68	-9.1	10.64	-0.0474	-0.2347	-0.4523	
0.043676	0.62159	0.743224	16.38	-9.87	12.32	-0.0395	-0.2396	-0.4494	
0.048678	0.640378	0.731146	14.84	-10.99	14.84	-0.0577	-0.2449	-0.4525	
0.045628	0.637572	0.726388	15.4	-12.39	16.24	-0.0544	-0.248	-0.4467	
0.046848	0.63745	0.72651	18.13	-15.19	16.87	-0.056	-0.2496	-0.4569	
0.055998	0.637938	0.72468	19.18	-16.38	18.34	-0.0635	-0.2506	-0.4454	
0.071614	0.634278	0.70882	18.97	-18.48	19.53	-0.062	-0.2508	-0.4541	
0.086742	0.63501	0.703818	18.48	-19.39	21.28	-0.0678	-0.2565	-0.4441	
0.092598	0.643062	0.69479	18.55	-19.81	22.68	-0.0714	-0.2473	-0.4484	
0.098088	0.652212	0.679906	18.69	-22.19	23.94	-0.077	-0.2576	-0.4456	
0.102602	0.663802	0.670756	19.95	-24.92	25.48	-0.0711	-0.2518	-0.4469	
0.125172	0.66978	0.671976	22.12	-27.51	26.81	-0.0967	-0.2628	-0.4459	
0.143594	0.680028	0.661972	21.84	-28.7	28.49	-0.09649999	-0.2657	-0.4343	
0.176534	0.692472	0.650138	22.05	-30.59	29.47	-0.0994	-0.2687	-0.4358	
0.19398	0.691496	0.647576	20.51	-32.2	30.66	-0.1014	-0.2579	-0.4314	
0.21228	0.700768	0.635742	17.22	-31.01	33.25	-0.1115	-0.2711	-0.4302	
0.234362	0.706136	0.618052	15.33	-31.64	33.95	-0.1118	-0.2666	-0.4403	
0.234362	0.712358	0.607926	14.21	-32.76	34.79	-0.1193	-0.2677	-0.4273	
0.25071	0.705892	0.607926	11.76	-33.67	35.42	-0.1329	-0.2747	-0.4305	
0.269498	0.700646	0.598532	8.19	-33.6	35.84	-0.1331	-0.2654	-0.4188	
0.278892	0.700158	0.584136	6.51	-35.91	35.7	-0.1545	-0.2674	-0.4132	
0.30073	0.703452	0.572302	5.32	-38.08	36.4	-0.1528	-0.2721	-0.4205	
0.326716	0.70882	0.574132	5.67	-41.3	35.91	-0.1701	-0.2622	-0.4134	
0.354898	0.717482	0.574254	5.04	-42.56	35.77	-0.1689	-0.2546	-0.4104	
0.377346	0.71309	0.571204	0.63	-39.62	36.33	-0.1806	-0.2678	-0.4121	
0.382958	0.723704	0.569252	-10.64	-34.93	38.92	-0.1822	-0.2646	-0.4121	
0.438956	0.708576	0.544486	-15.47	-37.1	35.21	-0.2027	-0.253	-0.4049	
0.469578	0.692472	0.538508	-16.52	-37.1	34.58	-0.2139	-0.245	-0.418	
0.488976	0.670878	0.53863	-18.27	-35.7	34.37	-0.2046	-0.2438	-0.4049	
0.503494	0.665998	0.536922	-19.67	-35.91	34.02	-0.2245	-0.2444	-0.4022	
0.5185	0.659166	0.549	-16.73	-37.94	31.29	-0.2297	-0.232	-0.4036	
0.53985	0.653798	0.546438	-13.16	-39.9	28.56	-0.2356	-0.2394	-0.4095	
0.5551	0.64538	0.532286	-9.31	-38.43	26.67	-0.244	-0.2207	-0.4022	
0.566202	0.634156	0.526186	-10.01	-37.59	26.6	-0.2516	-0.2202	-0.3878	
0.56852	0.614392	0.503982	-12.95	-37.45	26.39	-0.2498	-0.2264	-0.3936	
0.584868	0.604632	0.48434	-15.4	-37.17	26.6	-0.258	-0.217	-0.3951	
0.596458	0.579012	0.477996	-16.45	-39.34	26.39	-0.2679	-0.1982	-0.3834	
0.609878	0.568276	0.48007	-16.45	-41.65	26.81	-0.2753	-0.2055	-0.385	
0.622566	0.551684	0.479704	-16.03	-44.17	26.81	-0.2789	-0.1916	-0.3806	
0.63684	0.529846	0.467504	-13.93	-47.18	24.22	-0.2908	-0.2017	-0.388	
0.662948	0.5246	0.470554	-6.02	-51.59	23.52	-0.2974	-0.1876	-0.3692	
0.690032	0.540094	0.493368	-1.75	-54.81	24.01	-0.3037	-0.1858	-0.3735	
0.71736	0.55815	0.470432	-6.51	-49.42	25.48	-0.3176	-0.1821	-0.365	
0.737368	0.544364	0.451644	-14.49	-45.85	24.85	-0.3221	-0.1818	-0.3607	
0.747738	0.531554	0.450668	-12.67	-44.59	24.29	-0.3317	-0.1738	-0.3593	
0.753472	0.511424	0.440786	-12.67	-39.97	25.62	-0.344	-0.1732	-0.3536	
0.757132	0.505568	0.424804	-12.46	-35.21	28.49	-0.3459	-0.1623	-0.3419	
0.781898	0.497516	0.420046	-10.71	-36.61	27.23	-0.3455	-0.1699	-0.342	
0.779946	0.495808	0.418338	-7.07	-38.5	25.83	-0.3493	-0.1546	-0.3433	
0.7747	0.482998	0.40321	-9.17	-36.82	26.18	-0.3433	-0.1502	-0.336	
0.785192	0.486414	0.40199	-8.54	-36.75	26.04	-0.3678	-0.149	-0.3261	
0.809836	0.484828	0.413702	-6.3	-38.43	22.89	-0.3726	-0.1426	-0.316	
0.822646	0.474336	0.41785	-3.99	-35.49	19.53	-0.3789	-0.1409	-0.3218	
0.823988	0.457012	0.39162	-7.84	-30.52	19.18	-0.379	-0.1346	-0.3073	
0.832162	0.456158	0.382348	-5.53	-29.26	17.99	-0.3842	-0.1223	-0.3144	
0.823744	0.452254	0.387838	-4.48	-28	15.82	-0.3933	-0.1233	-0.3044	
0.82594	0.442372	0.36539	-7.42	-22.68	15.96	-0.3858	-0.1222	-0.313	
0.8235	0.437248	0.347944	-5.6	-21.21	15.54	-0.3839	-0.1283	-0.3044	
0.843142	0.443958	0.350628	-1.47	-22.68	13.23	-0.3962	-0.1262	-0.2987	
0.85339	0.451034	0.369294	-2.17	-24.92	10.01	-0.3997	-0.1138	-0.2914	
0.844728	0.440054	0.366732	-5.46	-21.28	9.45	-0.3993	-0.1245	-0.2929	
0.856806	0.432246	0.35624	-4.97	-17.5	8.33	-0.3985	-0.1078	-0.2913	
0.841922	0.40443	0.359168	-4.06	-17.36	6.86	-0.4058	-0.115	-0.2929	
0.869738	0.442006	0.34221	2.52	-17.85	3.36	-0.4027	-0.1167	-0.29	
0.870592	0.41419	0.341356	-5.18	-13.65	3.78	-0.407	-0.121	-0.2843	
0.878522	0.408822	0.336232	-0.56	-14.84	1.12	-0.3982	-0.1123	-0.2841	
0.875106	0.412238	0.344162	-1.33	-12.53	0.63	-0.4069	-0.1225	-0.2828	
0.872666	0.409554	0.338916	-2.1	-8.61	0.42	-0.4118	-0.1162	-0.2828	
0.877546	0.41236	0.34038	-1.75	-7.14	-0.14	-0.4196	-0.1112	-0.2713	
0.88511	0.412604	0.339648	-1.96	-5.32	-1.12	-0.4078	-0.1011	-0.2754	
0.87169	0.40443	0.338428	-3.78	-1.54	-0.42	-0.4074	-0.1103	-0.2769	
0.864614	0.397476	0.3294	-2.87	0.42	-0.49	-0.4138	-0.1039	-0.2769	
0.860832	0.40382	0.324764	-1.82	0.91	-0.56	-0.408	-0.0997	-0.2826	
0.864858	0.410286	0.325862	-0.84	0.49	-1.68	-0.4104	-0.1101	-0.2697	
0.865224	0.401624	0.325984	-0.63	1.33	-1.89	-0.4166	-0.1098	-0.277	
0.85949	0.403454	0.326106	-0.84	1.96	-1.19	-0.4043	-0.1088	-0.2667	
0.860954	0.407602	0.318664	-3.15	2.45	-0.77	-0.4182	-0.1114	-0.2857	
0.865834	0.410652	0.321226	-2.87	0.98	-1.75	-0.4042	-0.1134	-0.274	
0.871812	0.433466	0.334646	-1.19	0.49	-3.57	-0.4193	-0.1173	-0.2742	
0.86925	0.416874	0.327692	-4.48	3.71	-4.13	-0.421	-0.1142	-0.2771	
0.881206	0.411628	0.323788	-4.2	5.88	-4.48	-0.4087	-0.1163	-0.2799	
0.887794	0.42578	0.3355	-3.71	6.37	-4.83	-0.4013	-0.1121	-0.2841	
0.875838	0.443226	0.346724	-4.69	7.14	-6.16	-0.3996	-0.1137	-0.2827	
0.876936	0.44774	0.34892	-3.78	10.99	-8.89	-0.4071	-0.1163	-0.2741	
0.878034	0.446154	0.346846	-4.62	15.82	-10.99	-0.4009	-0.1213	-0.2885	
0.875228	0.439932	0.3538	-4.55	17.99	-13.93	-0.4056	-0.1181	-0.2886	
0.871934	0.436516	0.3599	-3.29	20.79	-17.08	-0.4105	-0.1149	-0.2958	
0.873642	0.440298	0.35807	-3.08	23.8	-19.53	-0.4072	-0.118	-0.2886	
0.873886	0.450912	0.365512	-2.03	27.23	-21.28	-0.3921	-0.1142	-0.3	
0.86498	0.462258	0.38491	0.7	29.33	-24.01	-0.4008	-0.1276	-0.306	
0.857904	0.481778	0.397598	-2.03	34.3	-24.78	-0.3962	-0.1278	-0.3074	
0.857416	0.448594	0.410408	-7.35	40.81	-25.2	-0.391	-0.1402	-0.3074	
0.842654	0.462014	0.409188	-1.47	43.82	-26.25	-0.3883	-0.1327	-0.3088	
0.822402	0.485804	0.393328	2.59	45.57	-29.54	-0.3803	-0.1438	-0.3204	
0.797636	0.475312	0.379908	1.68	47.6	-32.69	-0.3575	-0.1357	-0.3157	
0.788242	0.468724	0.394792	3.22	46.2	-35.84	-0.3605	-0.1418	-0.3274	
0.778116	0.504348	0.424804	7.07	43.05	-39.2	-0.3583	-0.154	-0.3232	
0.767502	0.526796	0.450058	5.46	44.03	-40.53	-0.3553	-0.1557	-0.3333	
0.743468	0.52948	0.443226	5.11	48.44	-41.09	-0.3491	-0.1592	-0.3477	
0.724802	0.522648	0.43188	5.32	52.78	-41.09	-0.3442	-0.1654	-0.3419	
0.719678	0.515206	0.45445	3.92	52.36	-40.18	-0.3327	-0.1827	-0.3434	
0.690154	0.539972	0.453962	5.32	55.93	-39.13	-0.3209	-0.1742	-0.3548	
0.672586	0.549976	0.470676	3.43	57.54	-39.34	-0.3189	-0.1866	-0.3679	
0.640866	0.566446	0.485438	7	54.95	-42.63	-0.2941	-0.1939	-0.375	
0.62647	0.593774	0.50569	10.08	54.81	-43.26	-0.2817	-0.1991	-0.3821	
0.611098	0.61183	0.542656	9.03	53.2	-42.84	-0.2693	-0.2027	-0.3878	
0.576328	0.584868	0.540704	2.8	56.77	-41.65	-0.2693	-0.2027	-0.3878	
0.554368	0.607682	0.523746	6.79	56.7	-42.49	-0.2631	-0.2045	-0.3878	
0.538386	0.622444	0.540826	12.39	52.78	-44.8	-0.2487	-0.2174	-0.3921	
0.519964	0.623908	0.561932	4.76	57.54	-42.49	-0.2331	-0.2242	-0.4007	
0.49532	0.63501	0.550098	0.07	60.97	-41.44	-0.2297	-0.2336	-0.408	
0.488854	0.670268	0.585966	10.15	50.68	-48.3	-0.2251	-0.2322	-0.4035	
0.471896	0.651236	0.596824	4.62	50.19	-48.65	-0.1993	-0.2289	-0.4134	
0.436394	0.637328	0.574864	-4.83	57.47	-44.17	-0.1957	-0.2398	-0.4163	
0.388448	0.653554	0.580232	-5.88	57.12	-44.59	-0.1791	-0.2344	-0.4146	
0.370514	0.655262	0.589504	9.45	53.2	-51.31	-0.1682	-0.238	-0.4175	
0.354166	0.665144	0.63379	10.92	48.16	-52.64	-0.1658	-0.2579	-0.4278	
0.342576	0.655994	0.630618	1.47	50.05	-51.1	-0.1569	-0.2523	-0.4247	
0.302804	0.651846	0.630496	-1.4	51.94	-48.79	-0.1415	-0.253	-0.4303	
0.26779	0.635986	0.641964	-4.34	53.97	-46.69	-0.1347	-0.2654	-0.4231	
0.207278	0.658922	0.635376	0.28	55.51	-45.85	-0.1212	-0.2616	-0.4346	
0.180926	0.65636	0.641232	-0.84	56.63	-45.15	-0.1087	-0.2651	-0.4301	
0.155062	0.656604	0.644282	3.01	56.07	-44.87	-0.0903	-0.266	-0.4357	
0.146156	0.653798	0.646966	5.88	56	-44.24	-0.0762	-0.2743	-0.4414	
0.125294	0.670268	0.652212	2.59	60.48	-41.65	-0.0735	-0.2654	-0.4442	
0.079422	0.664168	0.66673	-2.73	59.5	-39.69	-0.0593	-0.2752	-0.4485	
0.053924	0.676124	0.66002	-0.7	55.51	-40.18	-0.0365	-0.2701	-0.4424	
0.015006	0.685762	0.658678	-1.82	55.23	-39.13	-0.0361	-0.2761	-0.4395	
-0.015616	0.685396	0.659898	-3.5	56.07	-37.73	-0.0177	-0.2786	-0.4481	
-0.052582	0.693204	0.669048	0.63	51.52	-37.94	-0.0163	-0.274	-0.4408	
-0.063318	0.704306	0.667218	5.46	54.46	-37.94	0.0006	-0.2763	-0.4377	
-0.08052	0.693936	0.682102	6.51	54.25	-36.75	0.0054	-0.2827	-0.4464	
-0.129198	0.687958	0.668804	12.6	54.39	-36.75	0.031	-0.2717	-0.4504	
-0.195322	0.717238	0.632448	23.8	49	-40.11	0.0312	-0.2747	-0.4446	
-0.177144	0.731268	0.646234	28.28	43.61	-44.03	0.0347	-0.2824	-0.4417	
-0.188978	0.705648	0.65209	14.84	49.42	-39.2	0.0534	-0.2878	-0.4387	
-0.200934	0.697596	0.6222	14.98	54.11	-37.66	0.0692	-0.2976	-0.4386	
-0.236558	0.701134	0.60878	16.59	52.57	-38.01	0.0764	-0.2873	-0.4399	
-0.26718	0.70638	0.607682	19.6	50.61	-39.48	0.0844	-0.2953	-0.4428	
-0.316956	0.717116	0.588284	25.62	45.92	-41.37	0.0967	-0.2928	-0.4339	
-0.2928	0.722362	0.57462	29.33	39.34	-44.03	0.0969	-0.2973	-0.4325	
-0.298168	0.710894	0.60329	28.07	36.33	-44.8	0.1122	-0.2949	-0.4236	
-0.335744	0.71431	0.599752	23.31	35.77	-43.61	0.1276	-0.2956	-0.4249	
-0.367952	0.73993	0.55693	22.89	32.41	-43.33	0.1435	-0.3053	-0.4161	
-0.362828	0.73871	0.551806	30.59	29.96	-44.45	0.1373	-0.3036	-0.4205	
-0.360754	0.713212	0.56547	18.27	34.23	-42.7	0.1499	-0.3102	-0.4132	
-0.36844	0.691252	0.560468	15.96	35.42	-43.47	0.1596	-0.3182	-0.4088	
-0.381616	0.686982	0.55571	23.73	32.13	-45.99	0.1654	-0.3124	-0.4131	
-0.40931	0.701012	0.540216	28	32.27	-46.76	0.182	-0.3055	-0.4085	
-0.435296	0.732732	0.53314	30.73	32.9	-48.65	0.1809	-0.3145	-0.4042	
-0.482998	0.736392	0.517646	21.42	33.25	-50.61	0.1962	-0.3137	-0.4084	
-0.521794	0.73444	0.47824	20.65	29.89	-52.5	0.2086	-0.3142	-0.3981	
-0.517524	0.732488	0.485926	23.38	23.94	-55.51	0.2131	-0.3114	-0.398	
-0.543876	0.723216	0.46909	20.44	22.12	-56	0.2165	-0.316	-0.3937	
-0.555466	0.740662	0.455304	18.97	18.9	-56.35	0.2243	-0.3179	-0.3878	
-0.588406	0.718336	0.448106	14.63	16.8	-56.84	0.2317	-0.3121	-0.3863	
-0.639158	0.72102	0.437126	12.88	18.83	-56	0.2469	-0.3083	-0.3875	
-0.608292	0.689666	0.43249	5.32	16.87	-52.64	0.2543	-0.3009	-0.3816	
-0.608048	0.639158	0.432246	3.85	19.6	-50.26	0.2604	-0.2997	-0.3815	
-0.643184	0.622932	0.405284	1.12	19.25	-47.46	0.2647	-0.2923	-0.3799	
-0.621468	0.617686	0.426268	-0.35	16.17	-43.61	0.274	-0.2942	-0.3755	
-0.599996	0.59414	0.430782	-1.96	17.15	-40.74	0.277	-0.2913	-0.3725	
-0.635986	0.586942	0.427854	-2.38	18.41	-38.08	0.2706	-0.2864	-0.3755	
-0.6649	0.589626	0.440664	-2.38	17.71	-34.58	0.2873	-0.2811	-0.3738	
-0.65758	0.572912	0.442982	-3.71	16.94	-32.27	0.2891	-0.2888	-0.3782	
-0.66978	0.567422	0.434808	-3.71	18.13	-29.75	0.2922	-0.2874	-0.3723	
-0.690276	0.546316	0.43798	-4.62	17.85	-26.81	0.2995	-0.2786	-0.3707	
-0.690398	0.546438	0.436028	-3.43	16.38	-24.43	0.2947	-0.2769	-0.378	
-0.69479	0.549122	0.44042	-2.52	15.47	-22.61	0.3115	-0.2731	-0.372	
-0.712236	0.560956	0.437736	-1.33	14.98	-19.88	0.3118	-0.2791	-0.3662	
-0.7381	0.559492	0.42761	-0.91	14.21	-16.66	0.3194	-0.2748	-0.3574	
-0.75884	0.566568	0.420046	-0.14	14.49	-14.07	0.3033	-0.2605	-0.3691	
-0.765062	0.567788	0.410408	0.84	11.27	-12.46	0.3198	-0.2521	-0.3659	
-0.76433	0.561566	0.409188	1.19	11.41	-10.99	0.3174	-0.2657	-0.3632	
-0.769698	0.568154	0.398452	1.96	10.99	-9.24	0.3171	-0.2596	-0.3617	
-0.797758	0.573644	0.374052	2.59	9.45	-7.84	0.3171	-0.2596	-0.3617	
-0.799954	0.567178	0.368318	1.61	8.33	-6.3	0.3203	-0.2596	-0.35	
-0.787998	0.576328	0.373442	1.26	6.09	-4.41	0.32	-0.2568	-0.3717	
-0.806176	0.570838	0.369782	1.12	4.34	-3.43	0.3262	-0.2554	-0.3572	
-0.802638	0.565348	0.366732	1.61	2.8	-2.17	0.3247	-0.2568	-0.3572	
-0.749324	0.548512	0.37576	1.82	-0.21	-0.77	0.3187	-0.2564	-0.3471	
-0.752252	0.55083	0.38064	1.68	0.7	-0.56	0.3172	-0.2595	-0.3573	
-0.744566	0.552294	0.382958	2.24	-0.56	0.21	0.3203	-0.2628	-0.366	
-0.72407	0.553636	0.380396	1.4	-0.77	0.98	0.331	-0.2602	-0.363	
-0.722484	0.559004	0.386252	0.77	0.07	1.05	0.3189	-0.2626	-0.3573	
-0.730658	0.562054	0.38735	1.68	0.98	1.33	0.3316	-0.2739	-0.3616	
-0.742248	0.572302	0.385642	1.82	1.26	1.61	0.3203	-0.2628	-0.3631	
-0.752984	0.57218	0.38979	1.75	1.54	1.33	0.325	-0.2614	-0.3558	
-0.746884	0.56791	0.382104	2.38	1.75	0.91	0.3223	-0.2688	-0.353	
-0.75152	0.569618	0.380518	2.17	2.87	1.19	0.3195	-0.2748	-0.3531	
-0.767624	0.570228	0.37637	1.82	1.68	2.17	0.3248	-0.2584	-0.3601	
-0.772748	0.582672	0.371246	0.84	-0.07	3.57	0.3285	-0.2722	-0.3588	
-0.777018	0.583404	0.362218	0.49	-1.47	5.11	0.3253	-0.269	-0.3573	
-0.78629	0.581696	0.35929	0.7	-2.59	6.51	0.3144	-0.267	-0.3574	
-0.778238	0.582306	0.35868	-0.07	-3.85	7.35	0.3099	-0.2683	-0.3575	
-0.754692	0.575108	0.373686	-0.21	-5.88	8.26	0.3176	-0.2686	-0.3559	
-0.758474	0.575108	0.367708	0.49	-7.42	9.17	0.3191	-0.2672	-0.353	
-0.766526	0.580232	0.37942	0.07	-7.49	10.5	0.3178	-0.2717	-0.3531	
-0.756278	0.58377	0.383934	-0.63	-10.99	12.39	0.3114	-0.2684	-0.3589	
-0.738588	0.580476	0.386252	-0.21	-12.39	14.63	0.3159	-0.264	-0.3516	
-0.738466	0.579622	0.392474	-0.42	-11.76	16.38	0.3133	-0.2776	-0.3633	
-0.740174	0.570838	0.399184	-1.05	-11.97	18.34	0.3097	-0.2653	-0.3618	
-0.726144	0.565226	0.403088	0.21	-13.16	20.3	0.3042	-0.2771	-0.3562	
-0.71919	0.568276	0.4026	1.05	-13.58	21.49	0.3072	-0.2773	-0.3576	
-0.715164	0.581452	0.407602	1.89	-13.44	22.54	0.2947	-0.2753	-0.3678	
-0.70333	0.596458	0.406626	2.73	-13.65	23.87	0.2934	-0.2798	-0.3679	
-0.7076	0.5978	0.407724	1.33	-13.93	26.95	0.2936	-0.2844	-0.3679	
-0.702598	0.59475	0.421754	-0.21	-14.56	29.19	0.2937	-0.289	-0.3767	
-0.68625	0.59902	0.42334	-0.35	-17.71	31.43	0.2907	-0.2889	-0.3767	
-0.664534	0.608902	0.425536	-1.12	-20.09	33.67	0.2889	-0.2858	-0.3796	
-0.651114	0.613782	0.435174	-0.63	-19.18	35.77	0.2833	-0.2946	-0.371	
-0.647332	0.61732	0.433222	-0.63	-18.27	37.94	0.2744	-0.3034	-0.3799	
-0.651724	0.618906	0.440298	-1.19	-17.99	39.69	0.2758	-0.2988	-0.3755	
-0.63806	0.62586	0.44225	-0.21	-19.11	40.88	0.2557	-0.2964	-0.3772	
-0.60573	0.629886	0.446032	0.07	-21.14	42.07	0.2601	-0.292	-0.3756	
-0.5734	0.63867	0.458354	0.07	-22.75	43.75	0.2545	-0.3071	-0.3903	
-0.56791	0.653432	0.450912	0.77	-22.05	45.29	0.2487	-0.3129	-0.3861	
-0.570106	0.668072	0.449326	-0.21	-21.98	46.55	0.2395	-0.314	-0.3891	
-0.559614	0.682346	0.463356	0	-22.05	47.74	0.2379	-0.3124	-0.3862	
-0.538264	0.691984	0.462746	1.19	-21.49	48.86	0.2228	-0.3193	-0.3893	
-0.500444	0.694424	0.469456	2.24	-23.52	49.77	0.2263	-0.3286	-0.3923	
-0.478118	0.705038	0.46604	1.68	-22.68	51.03	0.2188	-0.3328	-0.3924	
-0.455304	0.71248	0.465186	0.56	-21.35	52.29	0.2001	-0.3258	-0.3838	
-0.43737	0.72346	0.469334	1.19	-19.88	53.41	0.2049	-0.3307	-0.3911	
-0.417728	0.731268	0.474214	1.47	-19.18	54.32	0.1959	-0.3379	-0.3956	
-0.39894	0.744688	0.47763	2.1	-20.58	54.88	0.1839	-0.3419	-0.3943	
-0.37454	0.764086	0.490684	4.97	-22.61	55.37	0.1762	-0.3431	-0.3988	
-0.359778	0.767624	0.471286	1.75	-23.52	56.28	0.1688	-0.3488	-0.3945	
-0.344284	0.797636	0.484218	3.08	-20.86	56.35	0.1593	-0.3423	-0.3975	
-0.31781	0.804102	0.482754	-0.35	-19.95	56.77	0.1518	-0.3465	-0.3976	
-0.295362	0.788852	0.47336	-2.66	-21.98	56.77	0.1428	-0.3523	-0.4036	
-0.278648	0.803126	0.478606	0.98	-22.47	56.7	0.1245	-0.356	-0.4009	
-0.264618	0.831918	0.4758	5.11	-26.6	54.6	0.1168	-0.354	-0.3952	
-0.2379	0.831552	0.472018	1.26	-27.02	53.2	0.1111	-0.3644	-0.3982	
-0.209596	0.83448	0.474946	0.98	-25.76	52.15	0.1051	-0.3688	-0.4056	
-0.180072	0.839238	0.480314	2.03	-26.11	51.73	0.0786	-0.3584	-0.4014	
-0.155306	0.831064	0.479216	-0.07	-26.6	52.43	0.0775	-0.369	-0.4044	
-0.133712	0.82472	0.489708	1.26	-27.44	52.43	0.0772	-0.3614	-0.3986	
-0.10248	0.824842	0.480192	1.4	-27.86	52.78	0.0681	-0.3656	-0.4088	
-0.081862	0.829234	0.47336	1.26	-28.28	53.62	0.0514	-0.3662	-0.3888	
-0.059292	0.817034	0.475312	-1.19	-28.56	54.74	0.0514	-0.3694	-0.4076	
-0.037332	0.84241	0.468724	-2.52	-28.7	55.44	0.0372	-0.3596	-0.4019	
-0.051484	0.863516	0.465308	-6.3	-27.09	57.4	0.0254	-0.3696	-0.3963	
-0.05795	0.858514	0.459452	-10.43	-26.81	59.01	0.0208	-0.371	-0.4036	
-0.014274	0.837164	0.482022	-1.82	-33.81	55.93	0.0033	-0.3596	-0.408	
0.024522	0.845704	0.49288	-0.42	-34.65	55.51	-0.0025	-0.3623	-0.398	
0.058438	0.836066	0.489586	-3.71	-33.81	56	-0.009	-0.3591	-0.4125	
0.100894	0.818498	0.496662	-7.98	-31.64	57.54	-0.0162	-0.3663	-0.4069	
0.130296	0.832284	0.488366	-9.66	-31.15	58.73	-0.029	-0.3535	-0.3968	
0.15311	0.851926	0.489098	-9.66	-32.76	58.59	-0.0367	-0.3563	-0.4128	
0.15921	0.85766	0.486048	-13.51	-31.64	57.68	-0.0557	-0.3433	-0.41	
0.173118	0.840824	0.49776	-16.94	-29.19	57.26	-0.0662	-0.3472	-0.3971	
0.198128	0.831186	0.492636	-18.06	-30.45	56.28	-0.074	-0.3455	-0.4073	
0.23058	0.830088	0.496784	-18.9	-31.85	55.37	-0.0816	-0.3466	-0.4031	
0.24583	0.83204	0.507886	-21.91	-31.01	56	-0.0902	-0.3264	-0.4001	
0.2684	0.814594	0.499346	-23.03	-33.18	53.55	-0.1057	-0.3242	-0.4046	
0.297192	0.818254	0.503006	-24.5	-36.75	51.94	-0.1226	-0.3266	-0.4106	
0.29707	0.820084	0.502152	-28.21	-33.74	51.1	-0.1198	-0.3175	-0.4061	
0.334402	0.806054	0.50569	-31.57	-33.18	48.58	-0.1276	-0.3141	-0.4033	
0.346236	0.759572	0.513254	-31.99	-34.58	46.76	-0.1431	-0.3103	-0.3976	
0.369416	0.731878	0.51972	-25.9	-37.38	44.52	-0.153	-0.2994	-0.415	
0.410042	0.716018	0.502274	-15.05	-42.84	42.35	-0.15	-0.2964	-0.4077	
0.455548	0.684054	0.512522	-20.23	-44.8	44.73	-0.1705	-0.2849	-0.4063	
0.44103	0.683322	0.5307	-25.2	-47.53	45.5	-0.1857	-0.2887	-0.4065	
0.45018	0.677832	0.529114	-31.43	-45.22	45.5	-0.1908	-0.2779	-0.4065	
0.481168	0.660996	0.512522	-28	-44.38	45.08	-0.1913	-0.2672	-0.4064	
0.49654	0.656482	0.51423	-24.43	-48.09	43.89	-0.2125	-0.2723	-0.4009	
0.53314	0.644648	0.51911	-24.99	-51.66	42.49	-0.2176	-0.2614	-0.4023	
0.572302	0.628544	0.53863	-28.07	-51.8	44.24	-0.2255	-0.2534	-0.3922	
0.592554	0.60207	0.529968	-34.09	-48.09	44.94	-0.2366	-0.2483	-0.3951	
0.600606	0.589992	0.518988	-32.83	-46.69	44.73	-0.2556	-0.2322	-0.3851	
0.63013	0.549732	0.521672	-32.62	-49.14	42.21	-0.2562	-0.2185	-0.3849	
0.65453	0.553758	0.52582	-23.8	-48.37	40.81	-0.2575	-0.2245	-0.3864	
0.672342	0.562054	0.499712	-24.71	-47.67	40.04	-0.2711	-0.195	-0.3791	
0.684908	0.543388	0.481412	-27.02	-47.53	38.99	-0.2827	-0.2097	-0.3837	
0.714432	0.521428	0.492636	-24.71	-47.39	38.01	-0.2986	-0.1967	-0.3794	
0.740906	0.502518	0.487268	-21.7	-47.46	35.84	-0.31	-0.1825	-0.375	
0.748226	0.492758	0.481656	-23.38	-47.88	35.42	-0.3055	-0.1796	-0.3706	
0.74542	0.479948	0.46848	-28.63	-47.25	35.77	-0.3117	-0.1763	-0.3678	
0.751764	0.475678	0.47031	-24.22	-46.41	33.04	-0.3228	-0.1682	-0.3649	
0.771284	0.47641	0.487146	-14.49	-46.13	29.33	-0.3232	-0.159	-0.359	
0.784948	0.462136	0.462502	-10.99	-42.42	26.32	-0.3356	-0.1537	-0.3461	
0.798124	0.429318	0.424926	-12.46	-37.66	24.99	-0.3455	-0.1396	-0.3504	
0.807884	0.400282	0.41175	-7.42	-33.53	22.68	-0.353	-0.1376	-0.3316	
0.810934	0.412604	0.404552	-6.51	-34.37	21.84	-0.3607	-0.1388	-0.3375	
0.844118	0.42212	0.411384	-5.25	-38.29	19.53	-0.3714	-0.1414	-0.3391	
0.841312	0.422608	0.437492	-2.73	-38.36	19.18	-0.3656	-0.1309	-0.3274	
0.831674	0.417362	0.410408	-6.65	-33.95	18.41	-0.3797	-0.1226	-0.3231	
0.834358	0.413336	0.397354	-3.43	-34.93	16.1	-0.3706	-0.1199	-0.3186	
0.844728	0.414556	0.394426	0.42	-34.79	14.28	-0.3765	-0.1242	-0.3144	
0.829478	0.420046	0.388326	-3.01	-29.68	14.42	-0.3749	-0.1243	-0.3129	
0.848754	0.41175	0.372466	-5.04	-28.42	11.9	-0.4025	-0.1229	-0.3031	
0.847412	0.398696	0.376736	-0.63	-31.36	8.4	-0.3892	-0.1129	-0.3086	
0.844484	0.397842	0.38552	3.78	-29.47	6.58	-0.4013	-0.1169	-0.3059	
0.857172	0.388814	0.36783	-1.4	-24.5	6.3	-0.392	-0.1157	-0.2927	
0.86803	0.379542	0.36234	-3.22	-21.28	5.88	-0.395	-0.117	-0.2899	
0.86559	0.406016	0.350018	-0.07	-20.23	4.48	-0.3967	-0.1124	-0.2855	
0.882914	0.422608	0.345748	0.42	-19.18	1.96	-0.4117	-0.1193	-0.2843	
0.889624	0.41663	0.3599	1.75	-14.91	0.49	-0.4058	-0.115	-0.2885	
0.89975	0.411384	0.353068	2.03	-11.76	-1.47	-0.4074	-0.1103	-0.2784	
0.895114	0.413092	0.351238	4.06	-10.01	-2.17	-0.4006	-0.1258	-0.2813	
0.887794	0.425902	0.33977	3.01	-6.86	-1.82	-0.4102	-0.1194	-0.2915	
0.886574	0.42761	0.31903	-0.98	-5.6	-2.31	-0.4212	-0.1128	-0.2872	
0.883402	0.424926	0.315126	-3.22	-6.51	-3.43	-0.4107	-0.1071	-0.2827	
0.86254	0.402234	0.324032	-1.89	-5.18	-4.06	-0.4056	-0.1164	-0.277	
0.857172	0.41602	0.316834	0.56	-1.4	-3.08	-0.3993	-0.1198	-0.2813	
0.86681	0.421144	0.31659	1.89	0.56	-2.94	-0.3991	-0.1244	-0.2828	
0.862662	0.409798	0.320616	2.52	1.96	-2.59	-0.4055	-0.1211	-0.2871	
0.885964	0.41358	0.324764	-10.64	-3.43	2.45	-0.4055	-0.118	-0.2784	
0.852536	0.38796	0.295972	-10.36	7.63	2.59	-0.4192	-0.1203	-0.2714	
0.851682	0.388448	0.29158	-4.9	10.08	3.78	-0.4015	-0.106	-0.2826	
0.847046	0.405528	0.294264	-4.48	6.3	3.71	-0.4101	-0.1161	-0.2698	
0.844118	0.424438	0.290848	-1.12	3.15	2.03	-0.4058	-0.1134	-0.2813	
0.838384	0.424438	0.310368	0.63	1.4	0.91	-0.4042	-0.1134	-0.2769	
0.847412	0.41846	0.311954	0.21	3.08	0.56	-0.4055	-0.1211	-0.2857	
0.857782	0.419314	0.307196	0.49	4.27	0.28	-0.4088	-0.1164	-0.29	
0.85949	0.407114	0.309636	-0.84	4.27	0.35	-0.4023	-0.1212	-0.2813	
0.847168	0.392108	0.30622	-1.26	4.97	0.91	-0.3985	-0.1046	-0.2826	
0.856196	0.41297	0.302438	0.56	3.57	0.84	-0.3992	-0.1244	-0.2842	
0.864492	0.423462	0.325496	0.77	0.49	-0.35	-0.412	-0.1148	-0.2915	
0.854976	0.415654	0.335622	-0.77	2.94	0.14	-0.4045	-0.1074	-0.2827	
0.861808	0.41724	0.3233	-1.47	6.16	0.56	-0.4104	-0.1148	-0.2886	
0.865712	0.41053	0.322934	-1.75	4.97	-0.56	-0.4043	-0.1135	-0.2827	
0.858636	0.40077	0.331108	-3.15	4.41	-1.12	-0.4014	-0.1107	-0.2942	
0.863882	0.404796	0.330254	-4.48	5.25	-1.68	-0.3999	-0.1107	-0.2913	
0.87474	0.410042	0.337818	-5.39	6.09	-2.03	-0.3967	-0.1139	-0.2913	
0.88206	0.423706	0.365024	-5.11	7	-2.94	-0.4091	-0.1119	-0.2929	
0.893772	0.419802	0.371978	-9.59	11.62	-3.57	-0.4045	-0.109	-0.287	
0.898408	0.408944	0.368562	-12.46	16.17	-3.78	-0.4	-0.1077	-0.2899	
0.899018	0.414922	0.37271	-13.93	18.76	-4.97	-0.4015	-0.1091	-0.2899	
0.87901	0.431026	0.376248	-10.5	20.93	-8.26	-0.4011	-0.1183	-0.2958	
0.86742	0.42029	0.381372	-9.31	23.87	-12.18	-0.3923	-0.1112	-0.3014	
0.87169	0.41419	0.382104	-6.3	27.23	-15.12	-0.3984	-0.1109	-0.2971	
0.862174	0.41846	0.38186	-3.43	29.68	-18.13	-0.388	-0.1069	-0.3129	
0.839116	0.397842	0.358192	-7.98	32.55	-20.86	-0.377	-0.1104	-0.3085	
0.836066	0.399672	0.382958	-5.88	28.91	-23.1	-0.3768	-0.1181	-0.3143	
0.830942	0.433588	0.431026	-1.12	26.88	-24.22	-0.3711	-0.1093	-0.3185	
0.80398	0.466528	0.432978	-1.33	31.22	-25.41	-0.3657	-0.1278	-0.3244	
0.796172	0.449082	0.407602	-8.75	35.77	-26.67	-0.3684	-0.1353	-0.3231	
0.79483	0.44042	0.404308	-4.69	33.67	-29.75	-0.3626	-0.1295	-0.3302	
0.783606	0.452742	0.40687	-1.33	30.8	-33.95	-0.3699	-0.14	-0.342	
0.778482	0.445788	0.42517	0.63	30.45	-37.03	-0.3468	-0.1425	-0.3403	
0.778848	0.465796	0.435174	-1.19	31.08	-36.61	-0.3407	-0.1428	-0.3446	
0.75518	0.472628	0.446032	-6.3	31.85	-37.87	-0.3418	-0.1519	-0.3461	
0.732854	0.484828	0.460184	-2.87	33.25	-39.34	-0.3354	-0.1583	-0.349	
0.710162	0.50813	0.47519	-0.7	35.56	-40.11	-0.3353	-0.1599	-0.3519	
0.701378	0.527406	0.471774	-0.42	38.64	-40.88	-0.3246	-0.1604	-0.3562	
0.698816	0.52094	0.476898	-1.47	39.06	-43.12	-0.3203	-0.1561	-0.3604	
0.699914	0.51423	0.506178	3.57	37.31	-45.15	-0.3121	-0.1687	-0.3662	
0.675148	0.519476	0.526186	9.73	37.73	-45.64	-0.3164	-0.1761	-0.3707	
0.641842	0.520452	0.537898	6.23	40.95	-41.72	-0.3102	-0.1795	-0.3765	
0.623176	0.541314	0.53436	3.36	42.84	-39.69	-0.2916	-0.1834	-0.385	
0.603168	0.571936	0.516182	-0.28	43.61	-40.18	-0.2986	-0.1983	-0.3852	
0.599142	0.562054	0.518134	-5.18	44.73	-39.69	-0.2839	-0.1869	-0.3922	
0.58438	0.568886	0.556442	-1.4	40.81	-39.9	-0.268	-0.1998	-0.3936	
0.562176	0.591334	0.586454	-2.45	39.76	-38.92	-0.2743	-0.1965	-0.3965	
0.543022	0.606584	0.583404	-2.94	41.79	-37.8	-0.2679	-0.2045	-0.4052	
0.527284	0.595726	0.58011	-8.47	44.03	-36.75	-0.2461	-0.2085	-0.4007	
0.518744	0.595238	0.59353	-0.56	42.28	-38.85	-0.2352	-0.212	-0.3991	
0.501786	0.60695	0.619394	4.62	43.47	-40.74	-0.229	-0.2122	-0.3962	
0.459452	0.630008	0.637206	10.99	46.2	-40.81	-0.2226	-0.2218	-0.4136	
0.459452	0.61732	0.63501	8.05	48.65	-41.16	-0.2152	-0.2161	-0.412	
0.424072	0.651968	0.626958	8.26	55.65	-39.83	-0.2117	-0.2269	-0.4149	
0.411872	0.630496	0.602436	-4.55	58.17	-39.97	-0.1943	-0.2399	-0.4221	
0.364902	0.659044	0.609512	-10.29	60.34	-37.94	-0.1841	-0.2283	-0.4277	
0.329156	0.624274	0.605852	-12.32	57.47	-37.94	-0.177	-0.2164	-0.426	
0.304512	0.664656	0.62342	3.08	53.41	-40.74	-0.1653	-0.2351	-0.4203	
0.27572	0.64233	0.654652	1.96	52.43	-41.72	-0.1515	-0.2358	-0.4259	
0.257054	0.634034	0.652822	7.77	54.88	-43.19	-0.1468	-0.2407	-0.4346	
0.220698	0.657214	0.65636	10.71	55.09	-45.01	-0.1346	-0.2397	-0.4388	
0.229482	0.631838	0.671732	9.87	51.17	-47.67	-0.1175	-0.2452	-0.4474	
0.159576	0.673928	0.660386	10.08	54.11	-45.15	-0.1173	-0.2497	-0.4474	
0.132736	0.674416	0.645258	4.48	52.78	-42.63	-0.096	-0.2461	-0.4457	
0.11041	0.678686	0.675392	9.24	48.51	-43.12	-0.0835	-0.2497	-0.4442	
0.104066	0.663436	0.706868	12.39	47.95	-43.61	-0.0786	-0.256	-0.4413	
0.03904	0.695522	0.673684	12.81	54.67	-45.08	-0.0706	-0.2625	-0.4441	
0.011346	0.71431	0.648308	18.9	50.89	-49.84	-0.0519	-0.271	-0.4513	
-0.009028	0.71614	0.677954	22.33	45.43	-52.85	-0.0395	-0.2731	-0.4511	
0.03904	0.719556	0.691862	21.84	37.8	-51.59	-0.039	-0.2837	-0.4512	
0.02196	0.718214	0.6649	9.24	45.99	-45.43	-0.0174	-0.2862	-0.4539	
-0.006588	0.695644	0.679662	-6.79	53.62	-38.85	-0.0145	-0.2802	-0.4466	
-0.061488	0.696864	0.66856	-7.7	56.7	-37.59	-0.0007	-0.2809	-0.4479	
-0.089548	0.687348	0.66856	-9.31	52.22	-38.36	0.0103	-0.2859	-0.442	
-0.120902	0.695888	0.655628	3.01	46.83	-41.02	0.0207	-0.2803	-0.4506	
-0.119438	0.694546	0.65087	2.1	43.4	-41.86	0.0317	-0.2853	-0.4447	
-0.153598	0.702842	0.642452	1.47	42.84	-41.51	0.0468	-0.2784	-0.4401	
-0.176168	0.692838	0.639036	6.37	42.35	-41.79	0.0529	-0.2819	-0.4546	
-0.21472	0.700646	0.644038	14.35	38.71	-44.31	0.0635	-0.2762	-0.4443	
-0.243268	0.69662	0.629764	17.78	35.35	-47.74	0.0802	-0.2708	-0.4411	
-0.262178	0.700036	0.627568	22.33	31.08	-50.96	0.0881	-0.2742	-0.4411	
-0.272792	0.707844	0.623054	24.57	26.67	-53.06	0.101	-0.2885	-0.4425	
-0.28426	0.711992	0.612196	30.66	21.42	-55.51	0.1072	-0.2903	-0.4396	
-0.274744	0.722484	0.61488	39.13	19.04	-58.24	0.1106	-0.2933	-0.4294	
-0.262666	0.722118	0.628056	28.56	19.39	-55.3	0.1199	-0.2937	-0.4235	
-0.311832	0.696254	0.583038	30.8	25.13	-52.85	0.1295	-0.3033	-0.425	
-0.346602	0.69052	0.593042	25.13	29.19	-49.63	0.1324	-0.2972	-0.4162	
-0.389302	0.693448	0.570594	21.84	30.73	-46.83	0.1407	-0.3113	-0.4206	
-0.410042	0.717604	0.558272	26.04	28.49	-45.99	0.1576	-0.3122	-0.4247	
-0.43798	0.729682	0.546072	23.52	27.51	-45.5	0.1618	-0.3032	-0.4174	
-0.466894	0.72407	0.525576	18.48	28.7	-43.96	0.1744	-0.3067	-0.4086	
-0.489708	0.716994	0.520452	16.17	27.37	-44.24	0.177	-0.2977	-0.4113	
-0.50813	0.715042	0.51606	13.79	25.69	-42.77	0.1821	-0.3102	-0.4201	
-0.52277	0.716262	0.523502	12.67	25.62	-42.14	0.1852	-0.3072	-0.4099	
-0.553392	0.720288	0.504958	10.92	24.15	-41.93	0.188	-0.3027	-0.4084	
-0.569862	0.709308	0.475678	9.1	22.26	-41.44	0.2117	-0.3144	-0.4039	
-0.546804	0.67832	0.465308	6.86	20.86	-41.79	0.2036	-0.3065	-0.4082	
-0.542534	0.652212	0.48739	3.36	21	-41.37	0.2204	-0.3042	-0.4066	
-0.58499	0.63989	0.488244	1.33	22.05	-39.83	0.2355	-0.2956	-0.3933	
-0.608536	0.632692	0.47458	0.21	18.83	-39.34	0.2275	-0.2908	-0.4006	
-0.574376	0.61	0.485316	-2.17	16.87	-38.71	0.2356	-0.2987	-0.3919	
-0.559736	0.603046	0.47275	-6.58	17.01	-37.03	0.2303	-0.2865	-0.4107	
-0.547048	0.57401	0.491782	-11.27	16.8	-33.67	0.2381	-0.2851	-0.3932	
-0.57096	0.555222	0.497028	-12.95	18.13	-31.5	0.2381	-0.2851	-0.3917	
-0.57828	0.55022	0.506178	-12.81	16.94	-29.61	0.2499	-0.2766	-0.4002	
-0.555954	0.538874	0.536556	-14	17.78	-26.46	0.2578	-0.28	-0.3958	
-0.573278	0.551806	0.515572	-13.09	20.51	-24.43	0.2574	-0.2708	-0.3899	
-0.6161	0.531554	0.505812	-14.63	22.26	-23.24	0.2603	-0.2695	-0.4	
-0.649894	0.55022	0.513254	-6.65	23.38	-23.31	0.2585	-0.2617	-0.3913	
-0.698328	0.561932	0.51179	-5.25	24.36	-24.01	0.2678	-0.2621	-0.3839	
-0.725046	0.57401	0.489586	-4.06	21.84	-24.64	0.2848	-0.2629	-0.3852	
-0.723704	0.581208	0.48556	-4.55	20.3	-24.01	0.2801	-0.2611	-0.3809	
-0.739564	0.578768	0.482144	-2.94	18.41	-24.15	0.2814	-0.2598	-0.3939	
-0.78019	0.590846	0.480436	-2.17	17.57	-24.08	0.2858	-0.2538	-0.388	
-0.768966	0.587308	0.46055	-1.47	11.83	-22.33	0.298	-0.2513	-0.385	
-0.7503	0.57645	0.472262	-1.4	10.15	-19.81	0.2964	-0.2497	-0.385	
-0.7686	0.558028	0.4636	0.42	10.85	-18.83	0.3022	-0.2409	-0.3819	
-0.794464	0.547902	0.453596	2.31	10.78	-17.08	0.2979	-0.2467	-0.3806	
-0.772748	0.546194	0.443226	2.38	7.56	-14.7	0.2966	-0.2528	-0.3821	
-0.745664	0.546072	0.444324	4.41	6.02	-13.44	0.3084	-0.2411	-0.379	
-0.765428	0.522038	0.421266	4.83	6.02	-12.18	0.2977	-0.2421	-0.3791	
-0.754326	0.518622	0.431392	4.62	5.11	-9.66	0.3072	-0.2487	-0.3805	
-0.738588	0.523136	0.417118	5.04	2.66	-6.93	0.3085	-0.2426	-0.3761	
-0.751764	0.528138	0.417606	4.34	1.26	-4.97	0.304	-0.2439	-0.3747	
-0.730902	0.525454	0.429318	3.29	1.4	-2.73	0.3117	-0.2474	-0.3819	
-0.721264	0.513864	0.422486	1.54	2.24	-0.7	0.299	-0.2361	-0.3718	
-0.722362	0.515084	0.447252	0.35	2.03	0.14	0.2962	-0.2436	-0.3806	
-0.730902	0.513132	0.437004	0.35	3.36	0	0.3039	-0.2424	-0.379	
-0.719556	0.5124	0.459574	-0.7	2.66	0.21	0.3111	-0.2337	-0.3832	
-0.726754	0.513742	0.459086	0.07	2.45	0.49	0.3121	-0.2502	-0.3645	
-0.73444	0.518622	0.447374	0.14	3.15	0.56	0.3022	-0.2361	-0.3645	
-0.746884	0.524844	0.449448	0.21	2.66	0.28	0.3209	-0.2478	-0.3847	
-0.775432	0.52765	0.446886	0.63	1.82	-0.14	0.2994	-0.2437	-0.3747	
-0.76738	0.529114	0.442372	0.14	1.68	0.42	0.3148	-0.2444	-0.3731	
-0.756156	0.528138	0.43981	0.35	0.56	1.33	0.3227	-0.2492	-0.3658	
-0.774334	0.525942	0.434198	1.19	0.35	1.96	0.3101	-0.2442	-0.3746	
-0.787998	0.526308	0.427122	1.05	0.14	2.87	0.3116	-0.2443	-0.3775	
-0.772626	0.521916	0.428586	0.35	-1.54	4.69	0.3087	-0.2487	-0.379	
-0.77104	0.52582	0.42578	1.12	-4.48	6.02	0.313	-0.2413	-0.3775	
-0.771894	0.53009	0.41785	1.12	-6.3	6.93	0.304	-0.2439	-0.3761	
-0.759938	0.52521	0.43493	0.84	-6.93	8.19	0.3147	-0.2444	-0.3775	
-0.748104	0.52826	0.437858	1.47	-8.12	9.45	0.3012	-0.2499	-0.3748	
-0.753716	0.532652	0.438346	1.47	-8.82	10.5	0.2967	-0.2527	-0.3763	
-0.74786	0.53131	0.44408	1.54	-9.73	11.9	0.2966	-0.2528	-0.385	
-0.735904	0.52643	0.454328	1.05	-11.34	13.79	0.2963	-0.2467	-0.3878	
-0.72773	0.529114	0.457134	1.12	-11.9	15.47	0.2916	-0.2481	-0.3951	
-0.718214	0.532286	0.451644	0.98	-11.55	17.43	0.2937	-0.2572	-0.388	
-0.722484	0.5307	0.459818	1.33	-10.92	19.39	0.287	-0.2463	-0.3894	
-0.724436	0.540094	0.453474	2.17	-9.87	20.79	0.2949	-0.2528	-0.3937	
-0.712968	0.542656	0.458354	1.54	-10.22	22.26	0.2816	-0.2596	-0.3765	
-0.705404	0.545706	0.456158	1.68	-11.27	24.15	0.2799	-0.2597	-0.3939	
-0.703574	0.55327	0.469578	0.42	-12.25	26.46	0.2812	-0.2537	-0.391	
-0.69662	0.552904	0.463234	-0.42	-13.44	28.84	0.28	-0.2596	-0.3838	
-0.689422	0.562298	0.47092	-0.21	-14.07	31.29	0.2678	-0.2621	-0.3883	
-0.678076	0.568154	0.472262	-0.63	-14.56	33.04	0.2634	-0.2649	-0.384	
-0.65697	0.582062	0.478728	-0.7	-16.59	34.51	0.2605	-0.2694	-0.3855	
-0.639524	0.589748	0.476166	-0.63	-16.73	35.21	0.2714	-0.2744	-0.3869	
-0.635132	0.601826	0.478606	-1.05	-16.45	36.19	0.2606	-0.274	-0.3972	
-0.623054	0.602558	0.485194	-0.84	-17.43	36.89	0.2468	-0.2765	-0.3973	
-0.602314	0.61244	0.485072	-0.49	-18.27	37.31	0.2424	-0.2808	-0.3974	
-0.579622	0.624762	0.488854	-0.28	-19.04	38.36	0.24	-0.2959	-0.3991	
-0.571326	0.63013	0.496662	-0.49	-18.69	39.83	0.243	-0.293	-0.4019	
-0.562908	0.641232	0.504104	-0.28	-19.04	41.02	0.2277	-0.2953	-0.3992	
-0.551684	0.64233	0.509228	1.26	-18.34	41.86	0.2163	-0.2827	-0.4035	
-0.538752	0.659288	0.514962	1.61	-19.18	42.98	0.2219	-0.3027	-0.4022	
-0.522648	0.671488	0.514108	3.71	-19.6	43.33	0.2169	-0.2933	-0.3964	
-0.500078	0.677344	0.511424	4.41	-18.41	43.61	0.2078	-0.296	-0.4023	
-0.484828	0.679662	0.518012	5.6	-18.41	43.75	0.2066	-0.3051	-0.4039	
-0.479216	0.690642	0.515328	6.79	-18.97	44.45	0.2067	-0.3066	-0.4053	
-0.475556	0.70699	0.505568	5.67	-19.46	45.85	0.1915	-0.3105	-0.4041	
-0.469944	0.717726	0.500322	3.99	-20.65	46.83	0.1872	-0.3163	-0.4056	
-0.4514	0.722362	0.496174	5.67	-21.35	47.88	0.1812	-0.3207	-0.4086	
-0.429928	0.7381	0.50508	6.51	-21	49.56	0.1686	-0.3124	-0.4014	
-0.405772	0.732732	0.493124	2.73	-23.31	50.96	0.1642	-0.3199	-0.4088	
-0.378078	0.726388	0.506422	4.9	-24.92	51.45	0.1584	-0.3272	-0.4089	
-0.342332	0.738466	0.516182	4.9	-25.69	52.15	0.151	-0.3314	-0.4047	
-0.314882	0.74725	0.515694	3.15	-24.57	52.99	0.1419	-0.334	-0.4063	
-0.289018	0.746396	0.51911	3.01	-23.73	53.48	0.1374	-0.3385	-0.4165	
-0.27328	0.749812	0.526186	3.01	-23.24	53.41	0.1283	-0.3395	-0.4079	
-0.235094	0.76128	0.519598	5.32	-23.1	53.83	0.1082	-0.3387	-0.4183	
-0.213866	0.771406	0.525332	4.06	-22.54	54.88	0.1088	-0.3508	-0.4112	
-0.207156	0.784094	0.52094	7.63	-24.85	54.25	0.0961	-0.3442	-0.4185	
-0.180072	0.782386	0.519232	9.45	-24.78	54.11	0.0932	-0.344	-0.4113	
-0.15311	0.800564	0.532408	10.08	-25.97	53.83	0.075	-0.3508	-0.413	
-0.142984	0.841678	0.530944	10.92	-25.2	55.44	0.0693	-0.3596	-0.4073	
-0.139202	0.851438	0.501054	8.96	-24.64	54.18	0.0598	-0.3531	-0.4103	
-0.131638	0.829844	0.510082	5.25	-24.22	54.32	0.0524	-0.3588	-0.4061	
-0.101138	0.804834	0.50386	4.06	-26.6	54.53	0.0464	-0.3584	-0.396	
-0.060146	0.800564	0.497394	4.34	-28.63	54.46	0.0354	-0.3566	-0.412	
-0.035014	0.80642	0.493734	3.64	-28.91	55.02	0.04	-0.3568	-0.4105	
-0.00854	0.826916	0.512888	0.84	-30.24	55.72	0.0188	-0.3602	-0.3992	
0.020252	0.85766	0.51057	-1.82	-29.47	56.56	0.0044	-0.3521	-0.4138	
0.031354	0.884378	0.502396	-5.18	-27.16	57.54	-0.006	-0.3562	-0.4125	
0.039284	0.852902	0.515572	-8.19	-24.85	57.26	-0.0138	-0.3527	-0.4038	
0.066734	0.827526	0.515572	-8.19	-25.41	56.63	-0.0291	-0.3536	-0.4069	
0.100894	0.80764	0.518378	-10.64	-28.77	56.84	-0.0294	-0.3459	-0.4039	
0.139324	0.796416	0.518866	-13.23	-28.84	58.17	-0.051	-0.3434	-0.3969	
0.170556	0.80642	0.519598	-9.94	-27.16	59.57	-0.0497	-0.3405	-0.4099	
0.189832	0.841068	0.524112	-8.12	-25.62	59.08	-0.068	-0.3458	-0.4174	
0.18605	0.865834	0.517158	-12.88	-24.01	58.38	-0.0742	-0.344	-0.4145	
0.192638	0.860344	0.531432	-16.03	-25.06	56.91	-0.08199999	-0.3422	-0.4219	
0.212036	0.822524	0.535702	-23.31	-24.71	57.89	-0.0916	-0.3294	-0.403	
0.234728	0.793732	0.524722	-27.02	-23.66	57.47	-0.1013	-0.3215	-0.4103	
0.256444	0.76799	0.518134	-24.08	-27.16	56.7	-0.1094	-0.3136	-0.4204	
0.281576	0.759084	0.526308	-23.17	-35.49	55.09	-0.1157	-0.3102	-0.4132	
0.298656	0.753228	0.527772	-19.18	-38.5	53.55	-0.1326	-0.311	-0.4192	
0.32635	0.75213	0.539484	-18.13	-41.51	53.34	-0.1362	-0.2987	-0.4191	
0.375028	0.744322	0.552294	-25.76	-40.74	55.58	-0.15	-0.298	-0.4149	
0.381738	0.741394	0.537776	-32.55	-38.64	56.63	-0.1626	-0.2898	-0.4063	
0.380762	0.719556	0.5429	-42.56	-38.08	56.42	-0.1787	-0.277	-0.4179	
0.423462	0.704062	0.532652	-35.21	-42.7	51.24	-0.1823	-0.2631	-0.4121	
0.455792	0.69296	0.559126	-35.21	-45.29	48.93	-0.1882	-0.2689	-0.4093	
0.445544	0.683688	0.55815	-34.3	-43.61	45.5	-0.209	-0.2513	-0.4108	
0.462136	0.670146	0.56425	-23.45	-46.48	39.62	-0.2064	-0.2392	-0.4063	
0.495564	0.65148	0.55876	-20.51	-47.6	36.19	-0.2249	-0.2384	-0.4123	
0.523502	0.629154	0.540948	-23.87	-47.6	35.21	-0.2157	-0.2372	-0.4035	
0.55388	0.609024	0.517524	-27.23	-45.15	35.63	-0.2206	-0.2293	-0.3991	
0.586942	0.581696	0.517524	-33.53	-46.34	35.63	-0.2453	-0.2267	-0.4023	
0.602436	0.574376	0.53558	-41.3	-45.15	37.24	-0.2535	-0.2157	-0.4023	
0.618784	0.55998	0.517646	-40.32	-44.45	36.75	-0.2754	-0.204	-0.3908	
0.636474	0.54046	0.526674	-31.08	-50.61	31.92	-0.273	-0.192	-0.3979	
0.642818	0.533384	0.531066	-35.77	-49.98	32.62	-0.2669	-0.1892	-0.3935	
0.658068	0.527772	0.503006	-35.14	-49	31.22	-0.2868	-0.1882	-0.3864	
0.688446	0.51911	0.50264	-29.82	-53.2	27.16	-0.2926	-0.1637	-0.3848	
0.736758	0.49349	0.509106	-23.24	-53.97	23.94	-0.2984	-0.1694	-0.382	
0.739442	0.487146	0.512644	-22.54	-52.64	23.59	-0.3181	-0.1714	-0.3678	
0.740662	0.487024	0.491782	-15.47	-53.97	22.68	-0.3172	-0.1594	-0.3763	
0.730048	0.479948	0.482876	-5.04	-52.64	20.72	-0.3312	-0.1542	-0.3707	
0.75884	0.49227	0.453108	19.46	-54.18	14.07	-0.3296	-0.1494	-0.3474	
0.764208	0.485072	0.536678	11.2	-50.68	17.36	-0.3297	-0.1495	-0.3547	
0.771162	0.453108	0.518134	-14.91	-33.81	23.45	-0.3511	-0.1515	-0.3491	
0.75701	0.429196	0.39223	-20.44	-21.7	26.67	-0.3484	-0.1425	-0.349	
0.752862	0.447374	0.357704	-16.73	-30.66	22.4	-0.3669	-0.1386	-0.3434	
0.772626	0.451888	0.42456	-9.59	-39.83	14.56	-0.3574	-0.1435	-0.3332	
0.803004	0.446764	0.429928	-7.56	-39.34	12.04	-0.3628	-0.125	-0.3316	
0.826916	0.442128	0.42212	-6.72	-38.71	10.15	-0.3628	-0.125	-0.3316	
0.846924	0.420046	0.411384	-6.65	-36.96	9.03	-0.3778	-0.1287	-0.313	
0.844362	0.404552	0.395402	-2.73	-32.13	9.87	-0.3778	-0.1287	-0.3144	
0.842898	0.38491	0.363194	7.77	-32.13	7.42	-0.3778	-0.1287	-0.3144	
0.852048	0.457134	0.396134	6.23	-39.62	6.65	-0.3882	-0.1342	-0.3088	
0.880474	0.438956	0.40809	-0.7	-32.55	8.68	-0.3882	-0.1342	-0.3088	
0.850584	0.409676	0.384666	-6.37	-24.15	11.2	-0.4055	-0.1274	-0.3089	
0.842532	0.406748	0.349286	-6.86	-22.82	11.34	-0.3937	-0.1126	-0.2956	
0.853268	0.409432	0.35929	-0.21	-25.34	8.96	-0.3937	-0.1126	-0.2956	
0.851804	0.407114	0.343064	-2.03	-22.75	9.38	-0.3996	-0.1184	-0.2957	
0.856562	0.407358	0.329766	-8.47	-21.42	10.5	-0.4029	-0.1106	-0.2885	
0.874862	0.399184	0.358802	-4.76	-24.01	8.68	-0.4073	-0.1149	-0.2886	
0.882304	0.379786	0.358314	-7.42	-21.28	7.35	-0.4078	-0.1058	-0.2899	
0.879986	0.385764	0.343674	-6.37	-15.54	8.82	-0.4016	-0.1029	-0.2753	
0.8967	0.368928	0.335012	-5.18	-13.23	8.26	-0.4105	-0.1102	-0.2828	
0.898164	0.357216	0.335134	-3.99	-12.11	7.77	-0.4112	-0.0933	-0.2725	
0.88145	0.356484	0.329522	-3.08	-10.15	7.98	-0.4015	-0.1045	-0.2768	
0.891576	0.366122	0.317566	-2.24	-7.98	8.05	-0.4105	-0.1086	-0.274	
0.893894	0.380762	0.310856	-0.91	-9.59	6.86	-0.4249	-0.0973	-0.277	
0.893406	0.390034	0.321836	-2.17	-10.43	5.74	-0.4189	-0.0914	-0.2682	
0.88877	0.388204	0.3355	-3.57	-7.7	5.25	-0.4192	-0.0869	-0.2768	
0.896212	0.396988	0.32086	-2.52	-2.03	5.25	-0.4127	-0.0933	-0.271	
0.891454	0.388692	0.310124	-2.1	0.21	3.78	-0.4202	-0.0959	-0.2639	
0.88938	0.373564	0.289018	-4.13	1.68	2.94	-0.4267	-0.09119999	-0.2799	
0.877424	0.375516	0.303414	-2.94	0	1.33	-0.4252	-0.0881	-0.2711	
0.87352	0.374906	0.304634	-3.15	1.33	0	-0.4127	-0.0932	-0.2696	
0.880352	0.367708	0.301462	-1.05	1.75	-0.84	-0.4221	-0.0898	-0.2697	
0.872056	0.366976	0.312686	-1.47	1.89	-1.33	-0.4156	-0.0977	-0.2697	
0.873276	0.362218	0.29158	-4.76	3.78	-0.91	-0.4144	-0.08859999	-0.2681	
0.8723	0.355508	0.293044	-5.39	2.17	-1.54	-0.4191	-0.0869	-0.2681	
0.88084	0.339404	0.32513	-5.04	0.07	-2.38	-0.4221	-0.0945	-0.2885	
0.874374	0.342576	0.331718	-4.55	2.66	-0.63	-0.4251	-0.0927	-0.277	
0.879498	0.36051	0.308904	-5.88	7.42	0.77	-0.4095	-0.098	-0.2783	
0.883036	0.361974	0.298412	-5.11	8.19	-0.28	-0.4207	-0.08679999	-0.2696	
0.879254	0.351482	0.314028	-4.13	7.56	-1.26	-0.4098	-0.092	-0.2826	
0.879132	0.342088	0.332694	-3.5	6.93	-1.75	-0.4102	-0.0828	-0.2738	
0.878156	0.360388	0.330498	0.42	7	-1.82	-0.4095	-0.098	-0.2725	
0.864248	0.363682	0.310856	-3.5	9.03	-0.98	-0.4067	-0.0936	-0.2797	
0.867664	0.354288	0.312686	-3.99	7.49	-1.96	-0.4082	-0.0935	-0.2797	
0.87596	0.357216	0.339404	-0.63	4.76	-3.5	-0.4116	-0.0858	-0.2767	
0.867786	0.346724	0.33916	-2.17	7.21	-1.96	-0.4103	-0.0813	-0.281	
0.869006	0.360144	0.326716	-2.8	7.28	-1.54	-0.414	-0.1009	-0.2813	
0.875106	0.37515	0.342454	-3.15	4.69	-3.01	-0.4143	-0.0932	-0.2768	
0.870592	0.37027	0.35502	-4.34	4.9	-3.92	-0.4116	-0.0874	-0.284	
0.868396	0.367586	0.355386	-5.67	7.07	-3.99	-0.4149	-0.0827	-0.2869	
0.863638	0.376004	0.352214	-4.76	9.17	-4.41	-0.4159	-0.0964	-0.2957	
0.867054	0.381494	0.352824	-5.25	10.78	-5.39	-0.4099	-0.092	-0.284	
0.869006	0.390888	0.364536	-4.13	10.08	-6.86	-0.4056	-0.08769999	-0.2941	
0.868762	0.389424	0.369782	-5.39	11.06	-7.91	-0.4086	-0.0891	-0.297	
0.862174	0.395402	0.38491	-6.44	12.67	-8.54	-0.3915	-0.0929	-0.2896	
0.858026	0.409798	0.39101	-6.93	15.54	-9.59	-0.3948	-0.0898	-0.2998	
0.858758	0.412848	0.3904	-7.91	17.5	-11.83	-0.3988	-0.1017	-0.2927	
0.854488	0.424804	0.406626	-9.03	17.71	-14.07	-0.3948	-0.0882	-0.2925	
0.84607	0.42944	0.431514	-10.43	20.3	-16.66	-0.3899	-0.0961	-0.3012	
0.849974	0.436882	0.441884	-9.8	25.48	-19.46	-0.3943	-0.0989	-0.297	
0.855952	0.426878	0.432124	-8.61	31.99	-21.84	-0.3944	-0.09739999	-0.2998	
0.855952	0.410774	0.427244	-7.91	37.45	-21.63	-0.3821	-0.0995	-0.3026	
0.845094	0.399428	0.418094	-7.7	38.57	-21.7	-0.39	-0.09779999	-0.3201	
0.837774	0.400404	0.418826	-6.93	37.66	-21.7	-0.3803	-0.1073	-0.3114	
0.810202	0.43127	0.43981	-5.81	36.05	-22.75	-0.3744	-0.1046	-0.3214	
0.792268	0.44652	0.445666	-6.51	37.73	-24.92	-0.3745	-0.1062	-0.333	
0.773968	0.463112	0.43615	-6.3	40.46	-26.53	-0.3724	-0.117	-0.3331	
0.773602	0.456524	0.43432	-4.41	41.16	-28.07	-0.3592	-0.1039	-0.3285	
0.751764	0.435906	0.4575	-8.05	42.21	-26.81	-0.3506	-0.1241	-0.3373	
0.741638	0.45628	0.473604	-3.01	40.95	-27.37	-0.3511	-0.1181	-0.3503	
0.724436	0.453474	0.473848	-0.63	40.53	-28.56	-0.3541	-0.1179	-0.343	
0.70516	0.443836	0.469456	0.49	41.58	-29.47	-0.3496	-0.1183	-0.3589	
0.700036	0.435662	0.49654	0	36.12	-30.94	-0.3402	-0.1217	-0.3545	
0.698328	0.439078	0.533506	4.55	37.87	-30.94	-0.3332	-0.1418	-0.359	
0.679296	0.476532	0.538142	7.28	39.2	-30.87	-0.3308	-0.1267	-0.3602	
0.656482	0.499346	0.525576	2.73	38.08	-32.06	-0.3209	-0.144	-0.3719	
0.659776	0.495442	0.554124	1.96	41.79	-31.01	-0.3179	-0.1441	-0.3704	
0.643062	0.470188	0.57279	2.73	41.37	-30.94	-0.302	-0.1571	-0.3762	
0.629154	0.477996	0.570838	5.53	42.49	-30.52	-0.296	-0.1559	-0.3833	
0.623054	0.506422	0.591456	6.16	40.46	-31.43	-0.285	-0.1625	-0.3876	
0.617808	0.518988	0.605242	7.21	38.64	-32.62	-0.2882	-0.1593	-0.3876	
0.596824	0.52155	0.625738	4.34	41.23	-30.94	-0.2739	-0.1707	-0.3919	
0.577914	0.518012	0.631716	2.24	40.67	-32.48	-0.2676	-0.174	-0.3933	
0.5673	0.53375	0.636718	12.18	43.68	-34.86	-0.257	-0.1746	-0.4048	
0.540216	0.52277	0.65697	5.11	47.67	-32.9	-0.2695	-0.1695	-0.4092	
0.520696	0.53131	0.640988	3.36	43.61	-36.54	-0.2367	-0.1816	-0.4075	
0.507154	0.534848	0.62159	9.45	47.81	-36.26	-0.2335	-0.1864	-0.4148	
0.487634	0.552416	0.637206	18.9	43.12	-39.97	-0.2347	-0.1939	-0.4149	
0.47641	0.539118	0.660508	19.46	43.89	-41.51	-0.2252	-0.1989	-0.4119	
0.449936	0.55998	0.645624	18.9	48.16	-40.88	-0.2158	-0.2039	-0.4162	
0.431758	0.573644	0.6527	17.01	48.09	-39.76	-0.1986	-0.2123	-0.419	
0.411018	0.592554	0.656116	14.28	50.54	-37.94	-0.1946	-0.2004	-0.4275	
0.416264	0.582306	0.642574	13.93	54.74	-36.89	-0.1783	-0.2241	-0.4377	
0.350384	0.618418	0.68259	18.9	61.04	-33.74	-0.1721	-0.2196	-0.4188	
0.340258	0.596824	0.661606	14.77	57.68	-34.51	-0.1646	-0.2201	-0.4375	
0.272304	0.63806	0.640988	22.96	56.63	-35.7	-0.1438	-0.2377	-0.4331	
0.3111	0.62769	0.640744	26.67	54.74	-37.38	-0.1376	-0.238	-0.4316	
0.260592	0.642574	0.67466	16.31	61.32	-32.69	-0.1328	-0.2443	-0.436	
0.188856	0.68259	0.653188	16.73	60.97	-33.11	-0.1051	-0.2472	-0.44	
0.15738	0.69845	0.648308	20.86	59.29	-34.65	-0.099	-0.2475	-0.4458	
0.14518	0.677588	0.64111	24.15	53.76	-38.22	-0.0829	-0.2634	-0.4472	
0.151036	0.683688	0.668438	22.75	53.48	-36.68	-0.0748	-0.2713	-0.4399	
0.07259	0.702354	0.64904	12.53	62.23	-31.5	-0.0657	-0.2672	-0.4412	
0.054168	0.684298	0.639402	16.1	59.85	-34.02	-0.0639	-0.2749	-0.4427	
0.040504	0.694424	0.643428	23.17	51.03	-37.8	-0.0496	-0.2846	-0.4412	
0.009028	0.733708	0.65026	24.64	50.89	-40.46	-0.0333	-0.2733	-0.4511	
-0.021594	0.734684	0.63806	18.83	55.72	-40.46	-0.022	-0.286	-0.4482	
-0.040138	0.73627	0.633912	10.43	57.33	-39.41	-0.0069	-0.279	-0.4451	
-0.052948	0.736392	0.627324	7.14	57.12	-38.78	0.0024	-0.2825	-0.4406	
-0.09333	0.722606	0.604266	12.81	54.11	-38.08	0.009	-0.2934	-0.445	
-0.113704	0.73139	0.609878	12.46	47.74	-37.73	0.0354	-0.2976	-0.439	
-0.150304	0.7503	0.603778	9.03	46.69	-36.19	0.0336	-0.2899	-0.4346	
-0.200324	0.755058	0.60878	8.61	45.01	-36.12	0.0475	-0.292	-0.4315	
-0.22265	0.77165	0.59719	9.94	39.83	-38.29	0.0553	-0.2939	-0.4315	
-0.223504	0.783972	0.60207	13.23	33.88	-40.6	0.0648	-0.3019	-0.4343	
-0.188978	0.773968	0.61244	4.13	34.51	-38.71	0.0722	-0.2962	-0.4371	
-0.192028	0.763598	0.60268	-4.48	39.55	-36.05	0.0797	-0.2905	-0.4355	
-0.219356	0.736636	0.599386	-4.97	41.16	-35.49	0.0955	-0.3003	-0.4325	
-0.206302	0.724924	0.6039	-0.49	39.69	-36.26	0.1061	-0.2962	-0.4266	
-0.211548	0.712358	0.5856	0.63	37.31	-36.47	0.1088	-0.2903	-0.4395	
-0.22753	0.725412	0.581452	7.07	34.72	-36.96	0.118	-0.2908	-0.4409	
-0.255712	0.72285	0.59353	12.04	32.76	-37.73	0.118	-0.286	-0.4235	
-0.309026	0.73871	0.569862	22.4	29.54	-39.34	0.1413	-0.2932	-0.4276	
-0.337574	0.744688	0.572424	25.97	26.04	-41.44	0.1478	-0.3011	-0.4305	
-0.332206	0.714798	0.575718	28.49	25.27	-42.07	0.1414	-0.2963	-0.4291	
-0.315004	0.715408	0.591822	29.68	23.1	-42.42	0.1606	-0.3092	-0.4203	
-0.355264	0.734318	0.58133	34.16	24.92	-42.49	0.1634	-0.3048	-0.4217	
-0.415044	0.76677	0.549488	31.08	28.07	-43.12	0.1728	-0.3067	-0.4144	
-0.431636	0.745664	0.538874	21.91	29.82	-41.65	0.1899	-0.3105	-0.4128	
-0.439078	0.743102	0.493368	18.55	31.92	-40.46	0.1927	-0.3045	-0.4083	
-0.446032	0.731024	0.480314	20.16	30.17	-40.32	0.1993	-0.3107	-0.3982	
-0.471164	0.730292	0.462868	20.93	30.03	-39.48	0.2022	-0.3047	-0.3909	
-0.510692	0.73078	0.453474	18.48	26.18	-41.44	0.219	-0.3071	-0.4023	
-0.514596	0.714066	0.472018	15.89	25.41	-41.44	0.218	-0.3161	-0.3922	
-0.519232	0.707966	0.491538	17.36	23.03	-40.53	0.2287	-0.3151	-0.3936	
-0.516548	0.707234	0.483242	19.39	19.53	-39.97	0.2299	-0.3044	-0.3848	
-0.539362	0.695278	0.473848	14.28	23.94	-39.62	0.2466	-0.3006	-0.3845	
-0.57645	0.684786	0.46482	13.72	25.13	-40.95	0.2497	-0.3007	-0.3831	
-0.594628	0.675514	0.43615	11.62	24.08	-42.91	0.256	-0.304	-0.3801	
-0.600728	0.636718	0.43432	8.33	21.14	-44.87	0.2562	-0.3102	-0.3845	
-0.620126	0.637328	0.43554	7.98	17.5	-45.36	0.2653	-0.3076	-0.3859	
-0.617076	0.634156	0.419924	6.93	15.19	-44.66	0.2712	-0.3018	-0.3886	
-0.609878	0.635132	0.419802	4.83	14.84	-42.63	0.2725	-0.2957	-0.3784	
-0.63989	0.630984	0.420412	3.92	14.77	-40.95	0.289	-0.2905	-0.3898	
-0.685762	0.630984	0.405406	3.15	14.91	-39.13	0.2832	-0.2946	-0.3768	
-0.687226	0.625738	0.409798	2.1	13.65	-36.19	0.2923	-0.292	-0.3767	
-0.67039	0.625616	0.414556	1.47	12.32	-33.6	0.2967	-0.283	-0.3664	
-0.681004	0.625616	0.406016	1.12	11.69	-32.2	0.2949	-0.2784	-0.3708	
-0.714554	0.632814	0.39894	0.49	11.62	-30.66	0.3013	-0.2831	-0.3592	
-0.712724	0.617808	0.404064	-0.28	10.92	-28.91	0.2947	-0.2753	-0.3707	
-0.708088	0.601948	0.415532	1.26	11.34	-27.65	0.2975	-0.2678	-0.3663	
-0.731024	0.606706	0.419558	2.73	12.11	-26.53	0.301	-0.2771	-0.3649	
-0.725778	0.60329	0.401746	2.31	10.36	-24.22	0.3103	-0.2806	-0.3677	
-0.721264	0.592432	0.403942	1.96	10.15	-21.56	0.3204	-0.2658	-0.3675	
-0.743834	0.579988	0.382592	0.84	10.22	-18.34	0.3176	-0.2687	-0.3574	
-0.759328	0.584868	0.381738	0.91	11.62	-15.96	0.3189	-0.2641	-0.3559	
-0.767746	0.580476	0.373198	1.05	9.31	-13.37	0.322	-0.2659	-0.366	
-0.76799	0.565714	0.357948	0.63	6.37	-11.69	0.3279	-0.2584	-0.3528	
-0.767746	0.559248	0.365878	-0.21	5.32	-10.22	0.3308	-0.254	-0.3499	
-0.76433	0.559858	0.370636	-0.7	3.92	-9.03	0.3235	-0.2628	-0.3558	
-0.747494	0.549	0.380884	-0.49	1.96	-7.84	0.3243	-0.2493	-0.3629	
-0.744566	0.544608	0.380518	0.35	1.54	-6.93	0.3296	-0.2616	-0.3557	
-0.753716	0.548024	0.3843	0.21	0.63	-5.67	0.3326	-0.2618	-0.3601	
-0.743224	0.546926	0.370026	-0.14	-1.4	-4.2	0.326	-0.2492	-0.3528	
-0.73261	0.546316	0.387594	-0.91	-1.05	-3.99	0.3356	-0.2604	-0.3586	
-0.752252	0.54595	0.391132	-0.21	1.47	-3.99	0.3231	-0.2537	-0.3557	
-0.755302	0.549366	0.396988	0	-0.35	-3.08	0.3277	-0.257	-0.363	
-0.757132	0.55693	0.392474	0.49	-0.7	-2.1	0.3306	-0.2495	-0.3527	
-0.771894	0.562176	0.390278	-0.14	-0.77	-1.82	0.3338	-0.2511	-0.3498	
-0.771284	0.565226	0.395524	-0.63	-2.87	-1.26	0.3337	-0.2512	-0.3599	
-0.766038	0.565104	0.392352	0.84	-2.87	-1.12	0.3336	-0.2497	-0.3628	
-0.773846	0.561932	0.387838	0.56	-3.08	-0.49	0.3187	-0.2596	-0.3631	
-0.766404	0.561322	0.380396	1.05	-5.32	0.77	0.3216	-0.2567	-0.363	
-0.764818	0.562908	0.378444	1.05	-6.79	2.1	0.3215	-0.2521	-0.3557	
-0.767624	0.560224	0.379176	0.77	-7.63	3.01	0.3307	-0.2541	-0.36	
-0.758596	0.556564	0.374906	0.98	-8.19	4.06	0.3244	-0.2508	-0.3615	
-0.757132	0.55693	0.381616	0.63	-8.26	5.74	0.3262	-0.2554	-0.3601	
-0.742858	0.56974	0.387594	-0.35	-9.8	7.28	0.3279	-0.2601	-0.3644	
-0.730414	0.57035	0.387838	-0.42	-11.2	8.4	0.322	-0.2643	-0.3573	
-0.720044	0.564616	0.399428	-0.63	-10.64	9.17	0.3155	-0.258	-0.3631	
-0.72529	0.569374	0.396866	-0.14	-9.94	9.1	0.3186	-0.2581	-0.3631	
-0.736026	0.582306	0.406992	0.14	-9.73	9.03	0.3143	-0.2655	-0.3646	
-0.737124	0.592554	0.40321	-0.49	-10.64	9.24	0.3095	-0.2608	-0.3646	
-0.723948	0.597312	0.408456	-0.28	-12.81	9.87	0.3078	-0.2576	-0.3603	
-0.721386	0.588406	0.408944	-0.21	-11.48	9.87	0.3018	-0.2604	-0.3633	
-0.713334	0.578036	0.41663	0.28	-9.59	10.29	0.3035	-0.2651	-0.3705	
-0.711626	0.581574	0.412482	0.7	-8.75	10.71	0.3005	-0.2649	-0.3619	
-0.710406	0.579378	0.418948	0	-10.22	11.48	0.3001	-0.2588	-0.3676	
-0.69784	0.581696	0.417972	0.63	-10.99	12.53	0.2942	-0.2632	-0.3706	
-0.705526	0.583404	0.419558	0.91	-10.29	13.3	0.2991	-0.271	-0.3706	
-0.711626	0.588772	0.424804	1.05	-10.36	13.86	0.2964	-0.2769	-0.3678	
-0.70577	0.593652	0.425536	0.07	-11.06	15.19	0.2858	-0.2794	-0.3651	
-0.700646	0.597922	0.426024	-0.49	-12.04	16.73	0.2917	-0.2783	-0.3809	
-0.699182	0.60329	0.421876	-0.98	-13.44	18.27	0.2823	-0.2748	-0.3781	
-0.699182	0.610122	0.43249	-0.28	-14.77	19.6	0.2886	-0.2782	-0.3795	
-0.702598	0.613416	0.42883	-0.56	-15.26	20.72	0.2855	-0.2796	-0.3868	
-0.697596	0.615002	0.4331	-0.63	-17.08	21.7	0.2825	-0.2795	-0.3825	
-0.681248	0.609878	0.434808	-0.14	-18.97	22.82	0.2776	-0.2715	-0.3709	
-0.660874	0.611342	0.44408	-0.98	-20.51	24.64	0.2673	-0.2818	-0.3783	
-0.643916	0.612928	0.447374	-0.42	-22.05	26.25	0.26	-0.2922	-0.3887	
-0.631472	0.619394	0.462258	-0.91	-21.35	27.79	0.2507	-0.2902	-0.3873	
-0.613782	0.625128	0.465308	-1.33	-20.16	29.33	0.2522	-0.2918	-0.3902	
-0.607682	0.631472	0.468846	-2.1	-19.95	31.29	0.2505	-0.2888	-0.3974	
-0.59109	0.636352	0.477874	-1.89	-20.37	33.04	0.239	-0.3033	-0.3861	
-0.573644	0.637084	0.474458	-2.45	-20.37	34.16	0.2372	-0.2987	-0.3904	
-0.56242	0.65453	0.487268	-3.5	-18.27	35.21	0.2479	-0.2993	-0.3961	
-0.54717	0.669414	0.492026	-2.73	-19.53	35.56	0.2326	-0.3017	-0.4006	
-0.525454	0.675026	0.499468	-2.03	-20.16	36.05	0.2219	-0.2995	-0.3891	
-0.51484	0.67588	0.496662	-2.1	-19.18	36.68	0.2205	-0.3057	-0.3994	
-0.516792	0.67527	0.500566	-4.13	-17.71	38.08	0.2097	-0.3037	-0.4009	
-0.51728	0.673928	0.499712	-3.64	-16.87	38.64	0.2243	-0.3194	-0.3922	
-0.49959	0.689178	0.503372	-0.7	-18.2	38.5	0.2009	-0.3123	-0.3967	
-0.480436	0.698084	0.50813	-0.63	-18.9	38.71	0.1945	-0.306	-0.3968	
-0.467138	0.712724	0.513132	1.26	-19.11	38.5	0.1839	-0.31	-0.3955	
-0.456768	0.71736	0.515206	0.07	-17.64	38.15	0.1918	-0.3181	-0.4056	
-0.441152	0.721508	0.516304	0.14	-16.8	37.8	0.1813	-0.3221	-0.4043	
-0.415776	0.723338	0.521916	0.63	-17.99	37.59	0.1738	-0.3232	-0.3957	
-0.398574	0.729926	0.518378	-0.35	-18.27	37.8	0.1676	-0.3245	-0.4016	
-0.388814	0.740784	0.517524	-0.35	-18.76	38.22	0.169	-0.3232	-0.4117	
-0.373442	0.754448	0.529114	1.61	-19.95	37.66	0.1632	-0.3289	-0.4046	
-0.357704	0.756522	0.532042	1.19	-21.14	37.59	0.1661	-0.326	-0.4045	
-0.338184	0.75518	0.534482	0.91	-21.56	38.64	0.1525	-0.3299	-0.4032	
-0.31781	0.757132	0.534604	1.82	-19.39	39.97	0.1427	-0.3205	-0.4134	
-0.293044	0.765306	0.540094	1.19	-17.5	41.09	0.1419	-0.334	-0.4063	
-0.277916	0.764452	0.544974	1.47	-16.87	41.86	0.1253	-0.3425	-0.4167	
-0.256322	0.753594	0.537288	2.17	-16.38	42.63	0.1298	-0.3381	-0.4079	
-0.2257	0.741516	0.54473	2.17	-17.15	43.61	0.114	-0.3313	-0.4153	
-0.193004	0.76067	0.546072	4.62	-16.17	44.31	0.1007	-0.3413	-0.4126	
-0.175436	0.796782	0.531432	6.37	-17.36	44.66	0.1097	-0.3356	-0.4081	
-0.160796	0.809592	0.528016	5.39	-17.43	44.31	0.1006	-0.3383	-0.4126	
-0.153842	0.817522	0.531798	5.88	-16.52	43.61	0.0993	-0.3443	-0.4126	
-0.148108	0.817156	0.532408	5.04	-17.43	42.14	0.086	-0.3558	-0.41	
-0.138226	0.821304	0.526552	8.68	-17.15	41.16	0.0795	-0.3479	-0.41	
-0.120292	0.823256	0.532652	11.2	-17.85	39.83	0.0639	-0.3427	-0.4101	
-0.099796	0.838506	0.531554	11.55	-18.97	38.01	0.0582	-0.3531	-0.4146	
-0.075884	0.840214	0.519964	10.01	-18.83	35.42	0.0551	-0.3514	-0.4088	
-0.047458	0.827526	0.518378	7.84	-15.61	34.09	0.0547	-0.3438	-0.4146	
-0.029524	0.822158	0.512644	6.09	-14.35	33.88	0.0446	-0.357	-0.4076	
-0.015738	0.832162	0.515206	6.65	-14.56	34.72	0.0463	-0.3601	-0.409	
-0.005246	0.855098	0.510448	6.58	-15.96	35.84	0.0386	-0.3597	-0.4077	
0.012688	0.854488	0.5124	5.39	-16.8	36.19	0.0342	-0.3641	-0.4092	
0.033916	0.85156	0.512522	2.24	-13.16	37.1	0.0142	-0.3616	-0.4065	
0.045994	0.857782	0.515084	1.47	-9.94	38.57	0.0155	-0.3587	-0.4123	
0.075762	0.854976	0.533262	2.17	-10.36	39.34	0.0152	-0.3526	-0.4122	
0.102114	0.864248	0.525942	2.59	-9.45	39.62	0.0063	-0.3567	-0.4051	
0.117852	0.876326	0.537654	-0.91	-3.99	40.11	-0.0001	-0.3519	-0.4124	
0.133834	0.867542	0.544852	-6.58	2.73	41.58	0.0052	-0.3673	-0.4067	
0.144814	0.86498	0.533872	-7.56	7.35	43.26	-0.0137	-0.3558	-0.4096	
0.15006	0.865102	0.536678	-3.64	10.01	45.29	-0.0044	-0.3562	-0.4067	
0.16226	0.865102	0.53924	0.63	12.81	47.04	-0.0136	-0.3558	-0.4053	
0.169458	0.873764	0.540338	1.05	16.1	47.25	-0.0112	-0.3438	-0.4081	
0.165432	0.884012	0.542168	-2.24	21.14	46.62	-0.0151	-0.3572	-0.4024	
0.15494	0.875228	0.533994	-3.57	21.84	44.24	-0.0183	-0.3556	-0.4126	
0.154696	0.865956	0.523502	-1.82	21.77	42.49	-0.0157	-0.3482	-0.4183	
0.164578	0.87047	0.539484	-0.28	20.44	39.69	-0.02	-0.351	-0.4082	
0.18361	0.875594	0.526064	0.49	18.9	36.82	-0.0215	-0.354	-0.4126	
0.182878	0.862296	0.523868	-2.1	23.1	34.86	-0.0263	-0.3492	-0.4126	
0.184952	0.86498	0.53375	-3.99	22.4	34.16	-0.0188	-0.345	-0.4139	
0.174338	0.859734	0.540948	-4.62	24.29	33.18	-0.014	-0.3466	-0.4009	
0.1891	0.849486	0.538508	-5.46	26.53	32.41	-0.0127	-0.3453	-0.4182	
0.188368	0.85888	0.52826	-7.77	29.12	32.69	-0.0075	-0.3561	-0.411	
0.177144	0.856806	0.53375	-6.16	28.14	31.15	-0.0062	-0.3532	-0.4153	
0.18605	0.849242	0.540948	-5.11	30.45	29.82	-0.007999999	-0.3486	-0.4182	
0.19276	0.836554	0.55632	-13.72	33.18	29.68	-0.0187	-0.3465	-0.4082	
0.17995	0.823256	0.529602	-10.29	38.29	28.91	-0.0038	-0.3381	-0.4108	
0.188124	0.829478	0.55388	-2.73	34.02	26.95	0.0005	-0.3338	-0.418	
0.198128	0.825696	0.555832	-1.05	31.15	24.99	-0.0056	-0.3335	-0.4166	
0.202154	0.817156	0.56974	0.14	34.37	25.34	0.0024	-0.343	-0.4151	
0.192516	0.812032	0.568032	7.77	35.28	23.31	0.002	-0.3338	-0.4165	
0.198738	0.802882	0.581696	11.62	34.09	20.3	0.008599999	-0.3448	-0.418	
0.197518	0.806054	0.576328	15.19	36.33	19.32	0.0147	-0.342	-0.4135	
0.188734	0.812032	0.56913	15.54	37.03	21.84	0.018	-0.3467	-0.4136	
0.186904	0.804346	0.563762	22.05	34.51	19.04	0.0243	-0.35	-0.4121	
0.184342	0.817156	0.547292	18.48	47.95	19.95	0.0214	-0.3529	-0.4078	
0.180072	0.806054	0.548268	18.76	46.9	19.25	0.0349	-0.3459	-0.4105	
0.164578	0.842776	0.53619	20.09	44.03	18.41	0.0371	-0.3596	-0.4062	
0.15311	0.844362	0.525576	17.64	48.3	20.93	0.0448	-0.3616	-0.4149	
0.139324	0.824842	0.523746	12.11	53.41	23.03	0.057	-0.3574	-0.4002	
0.122976	0.824964	0.527406	13.23	52.85	23.1	0.0525	-0.3588	-0.4032	
0.165066	0.84058	0.491904	13.3	51.31	22.33	0.0637	-0.3684	-0.4031	
0.047214	0.863882	0.532408	26.95	15.61	14.63	0.0679	-0.361	-0.4016	
0.053192	0.829844	0.50264	20.09	30.1	15.89	0.0652	-0.3653	-0.3944	
0.031232	0.854732	0.500078	21.28	30.8	14	0.0823	-0.3707	-0.3928	
0.028182	0.850218	0.49166	14.49	35.21	13.44	0.0763	-0.3734	-0.39	
0.005002	0.84546	0.485926	13.65	30.87	12.39	0.0765	-0.3764	-0.3842	
0.016958	0.81862	0.49959	10.71	28.21	10.08	0.09209999	-0.3817	-0.387	
0.000122	0.822036	0.502518	9.73	26.88	8.89	0.1029	-0.3821	-0.3811	
0.004758	0.821914	0.491538	10.92	22.75	6.37	0.08419999	-0.3752	-0.3769	
0.007198	0.821304	0.490928	9.73	20.72	5.32	0.08899999	-0.3816	-0.3914	
0.036722	0.81313	0.507642	6.79	16.73	4.55	0.0939	-0.3878	-0.3856	
0.036234	0.835578	0.501664	6.37	12.18	3.5	0.102	-0.3942	-0.3769	
0.041236	0.83631	0.502152	5.67	11.41	2.59	0.0939	-0.3863	-0.3798	
0.052948	0.83814	0.5124	5.04	11.41	2.24	0.0907	-0.3831	-0.3812	
0.05917	0.847534	0.513742	8.89	8.26	0.49	0.09999999	-0.3866	-0.3884	
0.049044	0.864004	0.507764	12.46	7.35	-1.82	0.1065	-0.3898	-0.371	
0.050508	0.86864	0.496296	15.05	5.11	-3.71	0.096	-0.3985	-0.3784	
0.042456	0.870348	0.482876	15.26	5.46	-3.99	0.1161	-0.3978	-0.3681	
0.043066	0.876326	0.477142	13.65	4.69	-4.48	0.1052	-0.3974	-0.3769	
0.039528	0.882792	0.473848	13.86	1.75	-4.62	0.1114	-0.3945	-0.3652	
0.030134	0.879376	0.454084	12.53	1.75	-4.62	0.0931	-0.3998	-0.3756	
0.037942	0.896456	0.456524	8.75	-1.4	-4.83	0.1097	-0.3914	-0.3681	
0.0366	0.896456	0.46299	7.56	-1.47	-5.25	0.1082	-0.3944	-0.3696	
0.034282	0.890478	0.452742	4.83	-3.22	-5.39	0.1055	-0.4003	-0.3653	
0.030378	0.891332	0.45079	2.8	-5.95	-5.46	0.1179	-0.4024	-0.3637	
0.038064	0.898042	0.463722	1.75	-5.46	-6.09	0.1148	-0.4023	-0.3696	
0.041846	0.892064	0.45567	0.14	-5.6	-6.23	0.1037	-0.3941	-0.3609	
0.049532	0.879864	0.466528	-1.05	-5.67	-5.81	0.1071	-0.4035	-0.3755	
0.048678	0.88328	0.46665	0.07	-7.56	-5.46	0.1053	-0.3973	-0.3696	
0.05246	0.878644	0.459452	0.77	-7.7	-5.11	0.1118	-0.4068	-0.374	
0.059292	0.873032	0.470066	-0.28	-5.81	-4.48	0.1041	-0.4048	-0.3683	
0.070394	0.867542	0.474458	-1.26	-5.46	-3.71	0.1022	-0.3956	-0.3696	
0.062708	0.874252	0.467748	-0.14	-6.02	-2.66	0.109	-0.4096	-0.3683	
0.064172	0.882914	0.465552	-0.28	-5.04	-1.82	0.1088	-0.4066	-0.3711	
0.0671	0.87474	0.475068	-0.21	-3.92	-1.47	0.1027	-0.4078	-0.3683	
0.066856	0.869738	0.470676	0.49	-3.99	-1.75	0.1053	-0.3957	-0.3624	
0.06405	0.873398	0.467382	1.61	-4.48	-1.96	0.1039	-0.3972	-0.361	
0.066124	0.878888	0.467504	2.45	-3.85	-2.17	0.1055	-0.3988	-0.3624	
0.059658	0.880108	0.467626	2.59	-3.57	-2.31	0.1073	-0.4065	-0.3654	
0.051484	0.890478	0.456036	1.89	-4.76	-2.8	0.1008	-0.3986	-0.3668	
0.044652	0.8967	0.4514	0	-5.81	-3.78	0.1074	-0.4095	-0.3668	
0.048068	0.897432	0.45445	-2.1	-6.79	-5.04	0.1057	-0.4033	-0.3639	
0.039406	0.89914	0.447008	-3.43	-7.28	-5.81	0.1074	-0.4095	-0.3668	
0.038918	0.902678	0.443226	-6.16	-9.52	-6.79	0.0975	-0.3954	-0.3711	
0.043066	0.89121	0.454572	-8.33	-10.29	-8.12	0.1038	-0.3988	-0.3755	
0.036722	0.88572	0.452132	-9.73	-10.71	-9.03	0.1037	-0.3989	-0.3798	
0.023912	0.897798	0.45506	-9.8	-14.21	-10.5	0.1056	-0.4034	-0.3711	
0.026718	0.894748	0.465064	-9.52	-16.45	-11.83	0.09869999	-0.3911	-0.3827	
0.032574	0.889136	0.465796	-11.06	-17.71	-12.53	0.1018	-0.3912	-0.3841	
0.026352	0.882182	0.46665	-11.27	-19.67	-12.53	0.1006	-0.3972	-0.3769	
0.014762	0.876936	0.459452	-11.97	-21.28	-12.95	0.0936	-0.3802	-0.3841	
-0.002318	0.87108	0.460672	-12.88	-22.68	-13.93	0.094	-0.3878	-0.3798	
-0.02257	0.866322	0.455792	-13.58	-24.78	-15.75	0.1016	-0.3866	-0.3841	
-0.025132	0.857416	0.464088	-13.02	-28.84	-18.62	0.0859	-0.3783	-0.3798	
-0.02684	0.85705	0.472628	-6.23	-34.23	-24.29	0.07979999	-0.3812	-0.39	
-0.023546	0.864126	0.473238	-4.2	-36.05	-26.88	0.0753	-0.384	-0.3901	
-0.01342	0.86498	0.491904	-3.57	-39.06	-29.05	0.0873	-0.3785	-0.3914	
0.007442	0.872056	0.468602	-6.58	-42.56	-31.36	0.0751	-0.3794	-0.3886	
0.01037	0.879376	0.460916	-12.04	-44.31	-33.32	0.0708	-0.3868	-0.3887	
-0.01891	0.885598	0.462746	-14.28	-43.26	-35.7	0.0708	-0.3868	-0.3887	
-0.025376	0.88084	0.464332	-11.62	-49.21	-38.29	0.0733	-0.3748	-0.3929	
-0.009393999	0.891698	0.465552	-11.62	-59.15	-40.67	0.0608	-0.3712	-0.3959	
0.02562	0.882182	0.475312	-12.53	-64.82	-42	0.0545	-0.3679	-0.396	
0.049898	0.867664	0.481778	-19.18	-69.44	-42	0.0543	-0.3649	-0.3974	
0.051728	0.866932	0.483608	-22.05	-72.59	-42.07	0.0421	-0.3674	-0.4019	
0.031232	0.86803	0.489708	-26.67	-72.87	-43.05	0.0492	-0.354	-0.3988	
0.047702	0.86437	0.493368	-24.22	-67.41	-44.1	0.035	-0.349	-0.4134	
0.049288	0.86071	0.50142	-24.08	-63	-44.73	0.032	-0.3519	-0.4149	
0.083814	0.865956	0.505812	-25.2	-63.21	-45.99	0.0168	-0.3527	-0.4107	
0.064904	0.851682	0.493612	-24.5	-60.76	-45.22	0.0083	-0.3387	-0.4194	
0.054534	0.89304	0.514108	-20.09	-61.88	-43.4	0.0128	-0.3343	-0.4135	
0.08418	0.881938	0.481534	-14.56	-65.24	-43.89	0.0008	-0.3382	-0.4079	
0.05856	0.879376	0.492148	-12.32	-75.25	-45.01	0.0009	-0.3413	-0.4137	
0.042944	0.884988	0.49776	-10.92	-82.39	-47.32	-0.0115	-0.3393	-0.4167	
0.046482	0.906338	0.490806	-9.94	-82.25	-47.88	-0.0101	-0.3347	-0.4109	
0.055998	0.908778	0.488366	-4.9	-80.08	-51.03	-0.0252	-0.3402	-0.4169	
0.082594	0.902556	0.498248	3.71	-82.53	-55.16	-0.0315	-0.3384	-0.4169	
0.091866	0.903166	0.505324	12.39	-87.71	-58.87	-0.036	-0.3397	-0.4184	
0.0976	0.869494	0.492026	23.03	-98.91	-59.99	-0.0449	-0.3469	-0.4157	
0.135054	0.885598	0.48739	29.05	-105.91	-59.36	-0.051	-0.3466	-0.4114	
0.136518	0.899018	0.487512	18.83	-98.21	-55.86	-0.0692	-0.3502	-0.4044	
0.136518	0.888892	0.42761	20.16	-88.62	-55.02	-0.081	-0.3587	-0.3959	
0.121146	0.903532	0.441274	4.48	-92.19	-55.86	-0.0902	-0.3599	-0.4062	
0.122244	0.899628	0.452376	9.8	-101.99	-54.25	-0.1033	-0.3697	-0.3803	
0.099186	0.92598	0.426146	22.05	-96.18	-57.89	-0.1061	-0.374	-0.3746	
0.125172	0.936106	0.498736	16.8	-96.74	-59.71	-0.1214	-0.3733	-0.3661	
0.165188	0.900848	0.423584	13.79	-94.15	-57.33	-0.1291	-0.3729	-0.3676	
0.157624	0.947208	0.444812	26.81	-94.92	-57.05	-0.1253	-0.3867	-0.3605	
0.162992	0.919148	0.425658	11.9	-81.83	-54.88	-0.1346	-0.3847	-0.3533	
0.142252	0.91744	0.424926	14.91	-80.64	-53.97	-0.1403	-0.3935	-0.352	
