Sensor string: A
Serial number: 1970-01-0000
Firmware version: 2,015
Hardware version: 2,2
Calibration quality: 5
ax	ay	az	gx	gy	gz	mx	my	mz

-0.10431	0.88572	0.470432	-0.42	0.91	-0.14	-0.0064	-0.2816	-0.3701	Reference
-0.097966	0.882548	0.472628	-0.07	0.7	-0.7	-0.002	-0.2786	-0.3731	
-0.09577	0.885964	0.46848	-0.42	0.7	-0.63	0.0024	-0.2879	-0.3701	
-0.095892	0.885476	0.466162	-0.7	0.63	-0.28	-0.0035	-0.2801	-0.3746	
-0.09882	0.884256	0.466772	-1.19	0.63	0.07	0.0008	-0.2817	-0.3701	
-0.102114	0.882182	0.465796	-1.19	0.42	0	-0.0064	-0.2801	-0.3686	
-0.100406	0.892308	0.464942	-0.42	0.07	-0.21	-0.0063	-0.2909	-0.3716	
-0.101504	0.892064	0.457988	-1.54	0.7	-0.21	-0.0064	-0.2832	-0.3746	
-0.101992	0.898286	0.454572	-2.03	0.91	-0.14	-0.0006	-0.2786	-0.379	
-0.10004	0.910974	0.449326	-2.17	0.91	0.42	-0.0137	-0.2815	-0.3731	
-0.103334	0.926102	0.439688	-2.45	1.61	0.77	0.0037	-0.2787	-0.3775	
-0.116632	0.933666	0.431392	-5.25	2.03	0.77	-0.0036	-0.2724	-0.3701	
-0.120902	0.92964	0.427732	-8.33	1.61	0.49	0.0008	-0.2755	-0.3686	
-0.119682	0.922198	0.426756	-10.01	0.42	0	-0.0006	-0.2724	-0.3671	
-0.119194	0.914634	0.419558	-11.06	-0.56	-0.28	-0.0006	-0.2786	-0.3731	
-0.115534	0.911096	0.414922	-12.04	-2.17	0.35	0.0022	-0.2771	-0.379	
-0.110776	0.911462	0.42212	-12.81	-3.85	0.21	-0.0007	-0.2709	-0.376	
-0.11041	0.90646	0.423584	-14.28	-5.81	0.98	-0.0065	-0.277	-0.3895	
-0.110776	0.912316	0.433222	-15.96	-7.7	1.75	-0.0037	-0.2662	-0.3865	
-0.126026	0.932568	0.438102	-12.67	-3.29	-4.69	-0.0095	-0.2661	-0.3775	
-0.103578	0.92354	0.455304	-17.99	-11.27	1.68	-0.0051	-0.2677	-0.3805	
-0.097112	0.918904	0.447618	-22.68	-9.17	1.68	-0.0066	-0.2662	-0.376	
-0.095404	0.899994	0.462502	-24.71	-10.29	0.77	-0.0111	-0.2569	-0.385	
-0.084912	0.89426	0.472506	-27.02	-10.29	0.98	-0.009699999	-0.2553	-0.391	
-0.085278	0.885232	0.478728	-26.46	-10.85	0.84	-0.0156	-0.2475	-0.3835	
-0.081618	0.867908	0.485804	-30.52	-10.43	1.75	-0.0142	-0.2476	-0.3895	
-0.080642	0.863394	0.487268	-33.11	-10.85	2.17	-0.0069	-0.2446	-0.3894	
-0.08174	0.864248	0.489952	-35.07	-11.27	2.8	-0.0216	-0.2398	-0.3925	
-0.084302	0.85705	0.502396	-37.59	-11.34	3.36	-0.0099	-0.2368	-0.3984	
-0.080642	0.854732	0.505446	-38.43	-12.32	2.94	-0.0203	-0.2274	-0.4059	
-0.069296	0.839116	0.512888	-44.8	-11.55	3.71	-0.0234	-0.2166	-0.4059	
-0.07015	0.834724	0.525698	-43.68	-13.23	3.71	-0.0174	-0.2213	-0.4044	
-0.074664	0.836676	0.531676	-44.8	-14.63	3.01	-0.0235	-0.2042	-0.4148	
-0.079178	0.834114	0.535702	-45.71	-16.24	4.2	-0.0279	-0.2042	-0.4088	
-0.074542	0.803126	0.546682	-47.67	-17.5	4.2	-0.0369	-0.1917	-0.4148	
-0.060756	0.781654	0.55449	-54.18	-16.73	3.08	-0.037	-0.1824	-0.4148	
-0.049532	0.75945	0.552172	-59.29	-15.47	2.17	-0.0429	-0.1808	-0.4223	
-0.054656	0.753838	0.580232	-59.22	-19.32	3.99	-0.0533	-0.1637	-0.4193	
-0.056486	0.744932	0.607804	-60.06	-21.84	4.62	-0.049	-0.1607	-0.4223	
-0.049166	0.713212	0.629886	-63.21	-22.4	4.27	-0.0565	-0.1436	-0.4297	
-0.02379	0.68686	0.641598	-66.64	-22.89	4.97	-0.0537	-0.1328	-0.4372	
-0.029768	0.670756	0.67039	-67.55	-23.87	5.11	-0.0656	-0.1141	-0.4297	
-0.034282	0.655994	0.683688	-68.25	-24.22	3.71	-0.0641	-0.1173	-0.4312	
-0.03538	0.608292	0.712846	-71.89	-25.2	2.73	-0.0687	-0.1002	-0.4387	
-0.012444	0.573278	0.74786	-71.82	-26.88	1.68	-0.0719	-0.0847	-0.4431	
0.019154	0.530822	0.761646	-72.31	-26.67	1.61	-0.0822	-0.0831	-0.4462	
0.03355	0.500932	0.78202	-73.22	-26.88	2.38	-0.0734	-0.0739	-0.4387	
0.045872	0.471286	0.811056	-74.27	-26.18	2.94	-0.08679999	-0.0614	-0.4387	
0.045262	0.432978	0.81801	-73.92	-24.57	2.03	-0.0826	-0.0444	-0.4431	
0.061366	0.389912	0.823012	-74.06	-24.85	2.52	-0.0959	-0.0366	-0.4491	
0.089548	0.357338	0.851316	-72.66	-24.71	1.12	-0.1018	-0.0303	-0.4372	
0.103456	0.319518	0.877546	-72.1	-24.71	1.89	-0.1021	-0.0071	-0.4506	
0.10431	0.296948	0.893894	-70.84	-23.8	4.34	-0.1051	0.0021	-0.4431	
0.124318	0.276208	0.905484	-68.74	-22.19	5.67	-0.1052	0.0098	-0.4387	
0.135542	0.260226	0.921466	-69.23	-20.58	6.37	-0.1141	0.0192	-0.4417	
0.022814	0.346358	0.934032	-81.62	-23.03	18.97	-0.1099	0.0377	-0.4327	
0.142252	0.242658	0.898774	-54.32	-12.67	-3.99	-0.1115	0.0531	-0.4327	
0.175924	0.175558	0.975268	-60.2	-14.35	-0.35	-0.1218	0.0548	-0.4342	
0.180926	0.153232	0.974536	-58.66	-12.74	0.42	-0.1264	0.0703	-0.4357	
0.178852	0.138104	0.986126	-56.42	-10.85	0.7	-0.125	0.0749	-0.4282	
0.17934	0.127124	1.003816	-53.55	-10.5	2.52	-0.1221	0.0826	-0.4312	
0.173484	0.113704	1.01077	-50.19	-9.94	1.4	-0.1267	0.0966	-0.4252	
0.182268	0.100284	1.02541	-47.88	-9.66	-0.14	-0.1297	0.1043	-0.4312	
0.200446	0.070638	1.031266	-47.18	-8.19	-0.77	-0.1254	0.112	-0.4282	
0.189832	0.059292	1.031266	-43.12	-7.21	-1.61	-0.1342	0.1152	-0.4237	
0.18727	0.042334	1.025898	-40.32	-5.39	-0.56	-0.1446	0.1246	-0.4207	
0.180804	0.027328	1.034804	-34.16	-5.25	-1.75	-0.1373	0.1307	-0.4177	
0.184708	0.005856	1.051518	-31.43	-5.18	-2.38	-0.1432	0.1323	-0.4192	
0.200324	-0.000732	1.069696	-23.94	-5.74	-3.71	-0.1432	0.1354	-0.4163	
0.208986	-0.008905999	1.07848	-19.95	-5.53	-2.94	-0.1404	0.1446	-0.4162	
0.21777	-0.025986	1.102636	-13.93	-5.11	-2.87	-0.1374	0.14	-0.4103	
0.226676	-0.035868	1.110566	-8.96	-3.71	-3.29	-0.1318	0.1631	-0.4087	
0.2318	-0.041968	1.112274	-3.64	-1.26	-2.87	-0.1434	0.1539	-0.4088	
0.227652	-0.048068	1.101416	-0.28	0.56	-2.59	-0.1375	0.1492	-0.4043	
0.225822	-0.052704	1.112884	3.85	1.47	-2.45	-0.136	0.1477	-0.4088	
0.230214	-0.058926	1.11569	7.35	2.8	-2.45	-0.139	0.1477	-0.4162	
0.233142	-0.06405	1.117886	10.64	5.74	-1.75	-0.1537	0.1556	-0.4148	
0.223016	-0.064172	1.126304	15.26	7.98	0.91	-0.1463	0.1431	-0.4252	
0.239242	-0.081862	1.128256	24.92	9.45	0.14	-0.1433	0.1447	-0.4133	
0.230336	-0.071126	1.121668	32.13	12.81	-0.91	-0.1214	0.149	-0.4072	
0.228506	-0.058072	1.112762	36.47	16.17	0.63	-0.1255	0.1259	-0.4177	
0.223626	-0.052826	1.100806	41.93	19.67	1.82	-0.1387	0.1292	-0.4148	
0.20496	-0.040138	1.068964	51.94	21.42	3.78	-0.1313	0.1198	-0.4252	
0.20374	-0.029768	1.05347	53.55	24.5	3.71	-0.1269	0.112	-0.4326	
0.183366	0.0122	1.024312	69.58	24.78	5.53	-0.1238	0.1058	-0.4282	
0.172752	0.041358	0.989176	70.56	28.77	5.6	-0.1149	0.0918	-0.4326	
0.161772	0.077836	0.965996	75.39	30.87	7.07	-0.1119	0.084	-0.4297	
0.142008	0.10797	0.94001	80.29	32.83	7.14	-0.0972	0.0761	-0.443	
0.124318	0.144448	0.904386	83.93	34.37	6.65	-0.1057	0.0561	-0.4386	
0.106628	0.184952	0.876204	87.64	36.05	5.81	-0.0983	0.0483	-0.4431	
0.096014	0.230702	0.857172	92.89	39.34	2.8	-0.0894	0.0328	-0.452	
0.073444	0.254248	0.828502	95.13	44.31	-0.28	-0.0848	0.0204	-0.4416	
0.042944	0.294874	0.794098	94.92	49	-0.91	-0.0743	0.0002	-0.4416	
0.015738	0.34099	0.765672	96.46	49.35	0.21	-0.0624	-0.0107	-0.4386	
-0.00671	0.381494	0.735416	97.86	50.26	-1.19	-0.058	-0.0185	-0.455	
-0.040382	0.416386	0.708454	99.96	54.18	-4.69	-0.0533	-0.0386	-0.4401	
-0.056364	0.447618	0.69845	97.37	49.35	-0.98	-0.037	-0.0589	-0.44	
-0.052216	0.477508	0.674904	99.26	49.49	-2.66	-0.0384	-0.06659999	-0.446	
-0.1037	0.536678	0.639158	101.15	50.05	-3.57	-0.0219	-0.09	-0.4356	
-0.114558	0.580964	0.633302	101.78	41.58	-2.31	-0.0175	-0.1008	-0.4475	
-0.1098	0.622322	0.594994	99.26	39.13	-2.8	-0.0082	-0.138	-0.4341	
-0.123342	0.65453	0.565592	95.97	38.78	-2.1	0.005	-0.1474	-0.4326	
-0.108824	0.698816	0.513864	95.55	40.67	-3.08	0.0111	-0.1645	-0.4251	
-0.129442	0.738954	0.490684	91.35	43.33	-4.06	0.0127	-0.1722	-0.4177	
-0.140544	0.765794	0.448594	96.11	37.94	-2.66	0.0231	-0.1909	-0.4117	
-0.145302	0.792268	0.413092	99.89	33.95	-4.76	0.0249	-0.2141	-0.4147	
-0.07869	0.818498	0.40565	101.22	31.99	-5.46	0.0382	-0.2266	-0.3998	
-0.207034	0.89853	0.400404	92.89	38.92	16.17	0.0428	-0.2374	-0.3878	
-0.151036	0.91622	0.351848	72.66	27.65	16.38	0.0444	-0.2467	-0.3833	
-0.18788	0.920246	0.333182	65.38	17.92	11.41	0.0445	-0.256	-0.3759	
-0.172386	0.96441	0.31781	74.06	20.93	6.86	0.0388	-0.2698	-0.3804	
-0.198616	0.976732	0.291824	72.03	28.49	4.41	0.0565	-0.2762	-0.3625	
-0.200568	0.99796	0.269864	64.68	32.41	2.73	0.0551	-0.2793	-0.3655	
-0.225822	1.017236	0.249246	55.58	28.91	1.47	0.0553	-0.2993	-0.3491	
-0.219966	1.018456	0.239242	53.2	21.42	-0.84	0.0613	-0.3087	-0.3476	
-0.224846	1.039684	0.239486	48.02	19.11	-3.36	0.06439999	-0.3195	-0.3461	
-0.211914	1.04737	0.221674	46.27	18.27	-3.85	0.0687	-0.3149	-0.3371	
-0.205814	1.023824	0.210816	40.32	23.59	-4.55	0.0674	-0.3257	-0.3297	
-0.19154	1.023092	0.204472	42.07	22.61	-4.62	0.0806	-0.3243	-0.3281	
-0.207278	1.010892	0.189954	34.16	19.46	-4.2	0.0807	-0.3274	-0.3117	
-0.182024	1.028216	0.188368	32.55	16.94	-3.57	0.0734	-0.335	-0.3162	
-0.219722	1.025898	0.185928	19.81	12.18	-3.22	0.0792	-0.332	-0.3147	
-0.234606	1.035658	0.176046	18.27	6.86	-1.75	0.0823	-0.3444	-0.3132	
-0.21289	1.030168	0.190564	20.23	1.61	-1.82	0.0853	-0.3444	-0.3028	
-0.237168	1.004304	0.196664	20.58	-0.14	0.7	0.0808	-0.3398	-0.3058	
-0.21533	1.032608	0.196664	22.19	15.05	-1.47	0.0795	-0.3521	-0.2983	
-0.229482	1.01992	0.178852	15.33	16.52	-1.33	0.0809	-0.3459	-0.3043	
-0.212524	0.995642	0.159088	11.2	13.79	-3.08	0.0869	-0.3615	-0.3028	
-0.22021	1.0248	0.147132	10.22	11.9	-3.64	0.0854	-0.3553	-0.2998	
-0.24583	1.030534	0.141886	5.39	10.5	-4.62	0.0869	-0.3568	-0.2909	
-0.267058	1.027362	0.143594	6.72	3.57	-3.99	0.0927	-0.3553	-0.2953	
-0.268766	1.031876	0.15921	7.84	0.07	-3.64	0.0942	-0.3538	-0.2894	
-0.282552	1.0309	0.13664	5.39	-2.1	-3.92	0.0972	-0.3569	-0.2923	
-0.285358	1.039562	0.121268	8.12	-8.89	-4.27	0.0973	-0.3662	-0.2923	
-0.26962	1.044564	0.136762	4.41	-13.51	-4.06	0.09429999	-0.3646	-0.2998	
-0.227896	1.034072	0.166896	3.43	-19.39	-5.46	0.09429999	-0.3615	-0.2849	
-0.201544	1.021262	0.196664	2.38	-14.63	-5.39	0.08989999	-0.3599	-0.2953	
-0.213744	1.014796	0.177754	-2.94	-8.89	-5.95	0.0942	-0.3553	-0.2864	
-0.22936	1.015284	0.16409	-4.34	-6.79	-7.07	0.0928	-0.3553	-0.2894	
-0.239608	1.01504	0.162382	-8.4	-5.39	-4.76	0.081	-0.3552	-0.2909	
-0.241682	1.006744	0.163358	-10.22	-7.21	-3.43	0.0914	-0.3677	-0.2983	
-0.232776	0.997106	0.19276	-9.03	-11.76	-2.94	0.0884	-0.3568	-0.2939	
-0.230702	1.002596	0.195932	-11.76	-19.74	-1.47	0.0869	-0.3537	-0.2968	
-0.199714	0.99247	0.199592	-22.33	-17.43	-1.33	0.0854	-0.3568	-0.3013	
-0.209352	0.991128	0.207156	-10.15	-16.24	-0.07	0.0898	-0.3491	-0.2909	
-0.19032	0.998448	0.221796	-26.04	-16.38	-0.35	0.0882	-0.346	-0.3102	
-0.216916	1.01382	0.208864	-33.18	-19.81	2.31	0.0852	-0.3414	-0.3043	
-0.232288	1.02907	0.208132	-32.34	-15.19	2.38	0.0778	-0.3382	-0.3192	
-0.254614	0.991616	0.228384	-33.95	-17.5	3.5	0.0823	-0.3413	-0.3147	
-0.229238	0.968558	0.230458	-35.91	-12.95	2.17	0.0807	-0.332	-0.3117	
-0.223016	0.978318	0.231434	-37.52	-13.72	3.64	0.0763	-0.332	-0.3237	
-0.215208	0.995642	0.242414	-35.21	-17.22	4.9	0.0763	-0.3305	-0.3267	
-0.216062	0.991494	0.252906	-38.5	-21.14	6.58	0.0645	-0.3288	-0.3356	
-0.20191	0.947574	0.280966	-44.24	-19.46	6.09	0.06879999	-0.3196	-0.3356	
-0.183976	0.937814	0.304756	-38.36	-24.57	5.04	0.0614	-0.3164	-0.3461	
-0.183	0.959042	0.288896	-42.7	-21.49	2.66	0.0613	-0.3133	-0.3491	
-0.193004	0.951966	0.276452	-55.51	-19.04	2.66	0.0553	-0.2978	-0.3461	
-0.206424	0.958188	0.291458	-51.17	-21.28	2.73	0.048	-0.3054	-0.358	
-0.208742	0.927322	0.325862	-55.09	-26.18	1.89	0.0478	-0.2823	-0.3521	
-0.223016	0.903288	0.345382	-58.03	-32.62	1.75	0.0433	-0.2822	-0.3744	
-0.189954	0.8967	0.358436	-59.29	-34.37	1.96	0.0389	-0.2791	-0.3715	
-0.194834	0.909998	0.374784	-58.38	-37.73	2.52	0.0358	-0.2682	-0.3819	
-0.179584	0.870226	0.405406	-63.07	-38.78	1.4	0.0329	-0.2651	-0.3834	
-0.171776	0.810568	0.445666	-63.28	-43.05	-0.07	0.0208	-0.2356	-0.3953	
-0.154696	0.819108	0.48556	-65.52	-45.36	-0.49	0.0164	-0.2356	-0.3983	
-0.142496	0.7991	0.50386	-69.16	-46.2	1.54	0.0074	-0.2247	-0.4073	
-0.122732	0.765184	0.554124	-61.67	-51.8	2.45	0.0058	-0.2138	-0.4088	
-0.086376	0.748104	0.594384	-57.61	-51.66	2.03	-0.0118	-0.2059	-0.4178	
-0.07905599	0.745176	0.619394	-66.29	-44.73	0.84	-0.0192	-0.1966	-0.4103	
-0.037942	0.704794	0.629276	-75.25	-37.73	1.47	-0.0297	-0.181	-0.4163	
-0.036112	0.691374	0.653798	-73.15	-34.23	1.33	-0.0312	-0.1763	-0.4208	
-0.042944	0.656726	0.654652	-72.31	-30.52	0.07	-0.0344	-0.1578	-0.4342	
-0.03599	0.614026	0.673074	-72.17	-29.75	2.45	-0.0447	-0.1561	-0.4387	
-0.038918	0.600972	0.69479	-67.9	-32.62	6.02	-0.0476	-0.1499	-0.4357	
0.007442	0.596336	0.72712	-68.81	-29.82	4.9	-0.0539	-0.1143	-0.4387	
-0.007076	0.58438	0.728828	-70.21	-27.3	3.71	-0.0494	-0.1236	-0.4312	
0.00915	0.557662	0.744078	-71.89	-26.88	3.01	-0.0627	-0.1111	-0.4342	
0.001098	0.5124	0.740174	-72.17	-27.16	1.96	-0.0615	-0.091	-0.4401	
0.024522	0.473482	0.786534	-68.74	-30.94	1.12	-0.0792	-0.0862	-0.4372	
0.033794	0.449936	0.820084	-66.15	-31.99	1.19	-0.0719	-0.0832	-0.4521	
0.042456	0.437614	0.824354	-70.28	-28.63	2.17	-0.0854	-0.0537	-0.4461	
0.04575	0.401868	0.829112	-67.06	-29.33	3.08	-0.0826	-0.0429	-0.4401	
0.077592	0.3599	0.84302	-68.88	-27.02	3.36	-0.0945	-0.0335	-0.4506	
0.075396	0.35502	0.859124	-64.89	-26.25	3.15	-0.0945	-0.0335	-0.4506	
0.094062	0.338794	0.873398	-63.7	-27.58	4.41	-0.0989	-0.0257	-0.4402	
0.09747799	0.33062	0.90402	-61.32	-27.3	5.53	-0.1064	-0.0133	-0.4506	
0.096136	0.312686	0.92232	-59.57	-26.25	4.76	-0.108	-0.0009	-0.4342	
0.11285	0.277306	0.945134	-60.06	-25.34	4.76	-0.1171	0.0238	-0.4446	
0.136152	0.256322	0.947696	-59.64	-23.8	6.3	-0.1171	0.0238	-0.4446	
0.140666	0.244854	0.9516	-56.91	-20.51	6.44	-0.1141	0.0223	-0.4417	
0.14335	0.225578	0.965142	-56.7	-19.39	6.16	-0.1113	0.0361	-0.4297	
0.184464	0.197884	1.001864	-52.22	-19.25	4.48	-0.1248	0.0595	-0.4387	
0.174216	0.18849	1.014918	-48.37	-16.66	3.29	-0.1205	0.0702	-0.4312	
0.204594	0.157136	1.041392	-45.36	-12.53	2.38	-0.1395	0.0674	-0.4268	
0.193614	0.148352	1.023702	-41.16	-8.96	1.26	-0.1207	0.0872	-0.4371	
0.220332	0.118096	1.042246	-38.08	-7.35	1.26	-0.1265	0.08419999	-0.4222	
0.215696	0.105774	1.055056	-31.85	-6.72	0.63	-0.131	0.0904	-0.4357	
0.191296	0.093696	1.07787	-26.6	-5.53	-0.77	-0.1369	0.0905	-0.4282	
0.236436	0.057706	1.0858	-24.36	-2.59	-1.68	-0.1399	0.0983	-0.4297	
0.2379	0.049166	1.09739	-18.06	-0.28	-1.68	-0.1312	0.1074	-0.4252	
0.226798	0.039894	1.098366	-12.88	2.38	-1.61	-0.1399	0.1029	-0.4282	
0.19215	0.041114	1.113616	-7.49	3.99	-1.26	-0.1342	0.1167	-0.4267	
0.224602	0.018056	1.110444	-2.87	5.18	-1.4	-0.1429	0.1029	-0.4282	
0.227652	0.006832	1.117642	0.63	6.72	-0.63	-0.1342	0.1152	-0.4177	
0.219112	0.005612	1.106906	8.12	8.61	-0.91	-0.1312	0.1059	-0.4267	
0.20679	0.006466	1.098854	15.05	10.36	-0.91	-0.1371	0.1075	-0.4282	
0.269742	-0.032086	1.11325	15.54	7.77	7.98	-0.1268	0.1043	-0.4282	
0.212036	0.003782	1.100806	31.29	12.39	0.21	-0.1311	0.0951	-0.4312	
0.200812	0.02013	1.08458	37.52	16.24	-3.78	-0.1297	0.1012	-0.4267	
0.193492	0.056608	1.052128	43.19	20.72	-1.68	-0.1251	0.0904	-0.4312	
0.183854	0.065026	1.046028	44.66	21.77	-0.63	-0.1235	0.0749	-0.4372	
0.15433	0.096136	1.02236	52.57	24.92	1.89	-0.1028	0.0607	-0.4401	
0.137372	0.119072	1.007354	57.26	27.65	2.59	-0.1131	0.0624	-0.4431	
0.1342	0.144814	0.98515	62.09	30.52	3.71	-0.1012	0.0484	-0.4341	
0.125782	0.17446	0.956724	65.24	33.88	4.55	-0.1025	0.0314	-0.4371	
0.115168	0.201422	0.935252	69.58	36.75	3.57	-0.0878	0.0219	-0.4461	
0.08845	0.240828	0.91195	74.55	38.78	3.5	-0.0878	0.0219	-0.4461	
0.070882	0.26718	0.886086	76.65	42.35	3.43	-0.0892	0.022	-0.449	
0.060146	0.290604	0.866322	79.17	42.21	5.81	-0.0756	-0.0152	-0.4461	
0.044164	0.317566	0.822768	79.94	44.73	7.28	-0.06659999	-0.0323	-0.4565	
0.091256	0.33001	0.794464	84.28	44.59	6.72	-0.0564	-0.0262	-0.446	
0.019398	0.387716	0.748104	93.59	68.67	-8.89	-0.0564	-0.0262	-0.446	
-0.071858	0.439688	0.719434	88.48	70.28	-4.41	-0.0474	-0.0464	-0.449	
-0.075396	0.48068	0.715286	91.91	54.39	0.91	-0.025	-0.07759999	-0.443	
-0.088084	0.529724	0.684786	94.15	57.89	-1.89	-0.025	-0.07759999	-0.443	
-0.135908	0.575718	0.667096	95.76	57.26	-2.38	-0.0144	-0.107	-0.4371	
-0.137128	0.61854	0.638426	99.12	53.27	-3.29	0.0106	-0.1243	-0.437	
-0.142496	0.658556	0.599996	98.63	50.4	-0.77	0.0151	-0.1352	-0.4325	
-0.145424	0.67954	0.554612	94.08	52.64	-2.66	0.0153	-0.1507	-0.437	
-0.178608	0.711138	0.530212	87.71	49.84	-2.17	0.0199	-0.1692	-0.4251	
-0.203008	0.727852	0.47946	88.13	45.5	-1.61	0.0405	-0.1741	-0.4221	
-0.164578	0.76189	0.467138	86.94	46.48	0.56	0.0408	-0.1973	-0.4042	
-0.203984	0.776896	0.451278	84.28	41.72	3.99	0.0483	-0.2082	-0.4072	
-0.21228	0.82167	0.419314	85.61	39.06	6.93	0.0586	-0.2145	-0.4012	
-0.228994	0.842776	0.381128	77.98	37.17	7.98	0.0677	-0.2346	-0.3863	
-0.238754	0.886574	0.364902	76.72	29.33	7.63	0.0677	-0.2393	-0.3863	
-0.239974	0.926956	0.343552	67.62	29.33	8.89	0.0739	-0.2641	-0.3803	
-0.21228	0.959774	0.328546	65.1	27.93	8.47	0.0711	-0.2702	-0.3729	
-0.234118	0.984418	0.330376	61.39	29.75	9.38	0.0755	-0.2733	-0.3639	
-0.22692	0.996496	0.303292	54.88	29.12	8.26	0.0829	-0.275	-0.3654	
-0.232166	0.983564	0.290726	45.5	28.21	6.72	0.0846	-0.2966	-0.3639	
-0.235826	0.986736	0.267546	42.21	30.94	5.04	0.0786	-0.2842	-0.355	
-0.25376	0.980392	0.246806	34.65	29.05	1.05	0.0948	-0.2921	-0.343	
-0.257908	1.009306	0.252296	39.13	24.92	2.24	0.0922	-0.3168	-0.3415	
-0.26047	0.990762	0.252784	37.59	20.02	3.36	0.0937	-0.3168	-0.3371	
-0.248148	0.966484	0.255712	35.07	17.36	5.18	0.0937	-0.3152	-0.3296	
-0.22143	0.956968	0.255712	33.25	13.16	4.62	0.0982	-0.3245	-0.3311	
-0.212768	0.967948	0.240584	28.98	11.69	5.18	0.0981	-0.3184	-0.3311	
-0.216428	0.963312	0.214476	34.23	8.68	4.2	0.0997	-0.3307	-0.3206	
-0.231678	0.985638	0.21045	34.93	10.85	5.39	0.1042	-0.3354	-0.3117	
-0.229848	0.993202	0.212158	35.14	9.17	4.97	0.1086	-0.3401	-0.3162	
-0.24278	1.003938	0.197762	28.7	8.82	3.36	0.0984	-0.3415	-0.3072	
-0.243756	1.014308	0.188246	24.92	8.68	2.1	0.1058	-0.3447	-0.3102	
-0.241072	1.025166	0.164456	22.54	7.42	0.91	0.1118	-0.3556	-0.3057	
-0.266204	1.028094	0.150426	15.4	12.25	0.28	0.1103	-0.3571	-0.3027	
-0.290116	1.043222	0.143472	15.75	10.5	-1.54	0.1015	-0.3539	-0.3028	
-0.290726	1.053226	0.165676	13.02	11.2	-2.66	0.1073	-0.3431	-0.2893	
-0.299998	1.046516	0.14457	10.22	6.37	-3.22	0.1073	-0.3462	-0.2923	
-0.304878	1.039074	0.126026	5.11	1.05	-3.64	0.1147	-0.351	-0.2908	
-0.290726	1.023336	0.126514	2.52	-8.47	-3.22	0.1134	-0.3618	-0.2923	
-0.271938	1.020042	0.144692	4.83	-10.64	-3.36	0.1235	-0.3511	-0.2923	
-0.25376	1.032364	0.154452	8.89	-13.16	-5.46	0.1117	-0.3447	-0.2923	
-0.232898	1.032486	0.171654	6.44	-12.95	-6.79	0.1015	-0.3477	-0.2893	
-0.233752	1.020408	0.173362	-0.7	-13.86	-7.49	0.1088	-0.3509	-0.2893	
-0.251076	1.0126	0.156648	-6.37	-12.46	-7.42	0.1148	-0.3571	-0.2908	
-0.248392	1.000888	0.160552	-6.72	-14.56	-7.42	0.1059	-0.3509	-0.2849	
-0.25376	1.006378	0.183	-5.81	-15.54	-6.93	0.1044	-0.3462	-0.3028	
-0.257298	1.006012	0.175192	-14.07	-10.78	-6.72	0.1132	-0.3494	-0.2983	
-0.241926	1.034316	0.149694	-17.36	-7.91	-5.67	0.0986	-0.3523	-0.2968	
-0.26474	1.006134	0.197762	-11.97	-13.72	-1.26	0.09999999	-0.3508	-0.2953	
-0.243634	0.986614	0.17202	-7.98	-11.48	-2.52	0.1074	-0.3524	-0.2998	
-0.291458	1.047858	0.17019	-24.15	-19.53	4.13	0.09559999	-0.3492	-0.2998	
-0.25681	1.02175	0.154696	-35.49	-32.62	4.55	0.103	-0.3524	-0.2998	
-0.233386	0.980148	0.24583	-23.52	-35.21	-0.77	0.094	-0.343	-0.3162	
-0.22936	0.994422	0.2379	-29.19	-24.92	-0.98	0.0925	-0.3368	-0.3132	
-0.270474	1.003816	0.187636	-34.58	-20.65	-2.66	0.088	-0.3321	-0.3252	
-0.243878	1.054324	0.171288	-30.94	-20.09	3.99	0.088	-0.3291	-0.3281	
-0.25986	0.97539	0.23363	-49.49	-24.64	6.3	0.07759999	-0.3197	-0.3281	
-0.197884	0.897432	0.330132	-37.94	-34.09	5.25	0.0717	-0.3196	-0.3401	
-0.177266	0.927688	0.27572	-43.19	-27.58	2.66	0.0629	-0.3164	-0.3327	
-0.202398	0.978074	0.223626	-46.76	-23.45	1.33	0.0656	-0.2995	-0.3446	
-0.228018	1.035048	0.248514	-49.98	-25.41	2.52	0.0625	-0.2871	-0.3565	
-0.242658	0.998082	0.232288	-54.46	-27.37	3.99	0.0553	-0.2993	-0.3521	
-0.260348	0.938546	0.278648	-57.54	-33.32	4.06	0.0478	-0.2869	-0.3714	
-0.223748	0.90036	0.313662	-61.6	-39.06	3.15	0.055	-0.2793	-0.3729	
-0.1952	0.922808	0.318664	-63.56	-37.73	3.29	0.0374	-0.2806	-0.3804	
-0.189344	0.920368	0.337574	-61.53	-39.69	2.17	0.0401	-0.2544	-0.3819	
-0.167262	0.879864	0.399062	-66.99	-45.15	5.11	0.0283	-0.2543	-0.3923	
-0.158478	0.840702	0.445178	-65.38	-49.7	5.46	0.0222	-0.2357	-0.3938	
-0.124318	0.814472	0.493002	-65.52	-48.37	3.71	0.0147	-0.2232	-0.4013	
-0.141886	0.820328	0.490196	-72.1	-42.77	2.87	0.0162	-0.2217	-0.4102	
-0.122488	0.799222	0.516182	-74.06	-43.54	4.76	0.0043	-0.2076	-0.4103	
-0.12139	0.762622	0.523258	-81.06	-38.01	2.1	0.0056	-0.2015	-0.4222	
-0.106872	0.72224	0.54778	-86.45	-36.82	0.77	-0.009099999	-0.1859	-0.4133	
-0.105164	0.68259	0.582428	-87.15	-37.73	1.05	-0.0122	-0.1704	-0.4282	
-0.095282	0.652578	0.619028	-83.86	-41.51	2.45	-0.024	-0.1594	-0.4207	
-0.065636	0.614392	0.640866	-79.87	-42.42	1.82	-0.0286	-0.1517	-0.4327	
-0.06588	0.607682	0.70028	-78.54	-46.41	4.76	-0.0448	-0.1453	-0.4342	
-0.039772	0.570106	0.723216	-88.55	-40.74	6.23	-0.0392	-0.1222	-0.4356	
0.03721	0.515206	0.747616	-85.19	-39.76	5.46	-0.0584	-0.1081	-0.4446	
0.036234	0.473116	0.763964	-82.11	-37.73	4.06	-0.0497	-0.0958	-0.4401	
0.043066	0.446886	0.768722	-85.61	-34.72	3.78	-0.0528	-0.0865	-0.4431	
0.055632	0.409554	0.797026	-81.83	-34.86	3.01	-0.0647	-0.0725	-0.4476	
0.019886	0.367464	0.81923	-86.8	-33.67	4.27	-0.0766	-0.0569	-0.4416	
0.052216	0.315004	0.856928	-77.98	-33.25	3.08	-0.0857	-0.0259	-0.4416	
0.077226	0.273524	0.877058	-72.8	-31.64	2.17	-0.0887	-0.0181	-0.4342	
0.088206	0.249978	0.895724	-72.73	-30.94	3.92	-0.0991	-0.0103	-0.4372	
0.102968	0.24095	0.927078	-66.92	-31.43	4.69	-0.1007	-0.0009999999	-0.4402	
0.118096	0.229482	0.931226	-63.21	-31.08	5.95	-0.09779999	0.0082	-0.4386	
0.152012	0.225334	0.94733	-58.66	-30.1	5.95	-0.1068	0.0237	-0.4401	
0.163358	0.209352	0.9577	-59.36	-27.3	6.79	-0.1026	0.036	-0.4461	
0.14457	0.207888	0.971486	-56.14	-24.43	7.14	-0.1158	0.0408	-0.4357	
0.161406	0.197884	0.98942	-53.9	-21.91	6.86	-0.1173	0.0439	-0.4357	
0.182024	0.182878	1.013088	-51.03	-20.16	7.07	-0.1232	0.0502	-0.4327	
0.202276	0.156404	1.018822	-51.1	-15.82	6.16	-0.1218	0.0548	-0.4431	
0.194468	0.144448	1.003694	-47.95	-11.83	4.62	-0.1309	0.0765	-0.4357	
0.183976	0.134322	1.01992	-44.45	-10.78	3.85	-0.1294	0.0827	-0.4297	
0.188978	0.11224	1.038586	-41.44	-11.2	3.57	-0.1281	0.0904	-0.4252	
0.21045	0.101992	1.04981	-35.63	-9.8	3.5	-0.1339	0.092	-0.4282	
0.201788	0.0976	1.071282	-32.2	-8.19	3.15	-0.1281	0.0935	-0.4282	
0.221674	0.072346	1.086166	-28.21	-6.65	2.31	-0.1341	0.1075	-0.4267	
0.226432	0.057096	1.09678	-24.22	-4.83	1.96	-0.1371	0.1106	-0.4282	
0.233264	0.05246	1.100074	-18.76	-1.33	0.14	-0.1386	0.1183	-0.4282	
0.229482	0.04758	1.09861	-16.94	2.17	-0.84	-0.1387	0.1199	-0.4237	
0.219112	0.034526	1.108492	-11.48	3.15	-1.75	-0.1357	0.1183	-0.4133	
0.21167	0.025376	1.103612	-5.67	3.92	-1.75	-0.1386	0.1137	-0.4222	
0.166164	0.039528	1.105076	-2.66	4.69	0.28	-0.1356	0.1137	-0.4148	
0.216428	-0.001586	1.096536	4.55	6.79	-1.47	-0.1298	0.1136	-0.4192	
0.225212	-0.013908	1.108614	9.66	7.35	-1.33	-0.1299	0.1275	-0.4118	
0.219234	-0.00915	1.109468	16.8	8.4	-1.4	-0.1238	0.1043	-0.4222	
0.149084	0.015494	1.095316	23.73	10.36	-1.68	-0.1372	0.1199	-0.4178	
0.236558	-0.019032	1.0797	27.3	9.59	0.35	-0.1224	0.1104	-0.4267	
0.215574	0.003294	1.083116	34.44	13.51	-1.47	-0.1254	0.1105	-0.4252	
0.19337	0.028426	1.07299	40.32	17.15	-3.92	-0.1194	0.098	-0.4252	
0.179462	0.040504	1.070794	45.5	18.27	-3.08	-0.1267	0.1012	-0.4282	
0.180926	0.061976	1.057374	52.5	21.91	-0.98	-0.1103	0.07319999	-0.4341	
0.174826	0.08906	1.03517	57.26	25.62	-0.28	-0.1131	0.0655	-0.4356	
0.162382	0.111508	1.003572	59.36	29.89	1.47	-0.1073	0.0639	-0.4431	
0.14213	0.13359	0.974658	63.7	32.34	1.82	-0.0969	0.0514	-0.4431	
0.122854	0.14518	0.961482	69.16	33.18	1.75	-0.0981	0.036	-0.4327	
0.116754	0.172508	0.937082	76.51	35.7	-1.61	-0.0981	0.0282	-0.4431	
0.101138	0.208986	0.905728	77.84	38.29	0	-0.0906	0.0173	-0.4505	
0.074176	0.246074	0.869982	80.01	39.83	1.61	-0.073	0.0094	-0.449	
0.056242	0.285236	0.83875	81.97	39.48	3.78	-0.0771	-0.0136	-0.452	
0.07625	0.296582	0.820938	84.21	40.74	2.45	-0.0726	-0.0214	-0.4505	
0.021106	0.34892	0.788974	94.15	58.8	-8.33	-0.0562	-0.0448	-0.452	
-0.038796	0.386862	0.760304	89.88	62.09	-5.39	-0.0415	-0.0511	-0.4535	
-0.022204	0.415288	0.729804	91.42	49.91	-0.63	-0.034	-0.0651	-0.44	
-0.044286	0.445788	0.704916	89.74	54.6	-1.75	-0.0368	-0.0743	-0.446	
-0.10065	0.50203	0.67954	93.45	55.37	-3.22	-0.016	-0.0993	-0.446	
-0.108214	0.5368	0.64782	94.01	49.7	-1.19	-0.013	-0.1055	-0.4445	
-0.124806	0.585112	0.625006	94.57	50.4	-1.33	-0.0172	-0.124	-0.4341	
-0.13054	0.635498	0.60146	95.27	48.37	-0.63	0.0019	-0.132	-0.4311	
-0.141154	0.684786	0.57218	92.89	47.04	0.49	0.0096	-0.1614	-0.4341	
-0.15433	0.696498	0.52948	86.87	48.65	0	0.0317	-0.1678	-0.4206	
-0.13054	0.72468	0.50996	86.24	45.64	-0.91	0.0289	-0.1848	-0.4132	
-0.188978	0.737368	0.483608	84.84	43.68	-0.7	0.0333	-0.1848	-0.4087	
-0.16775	0.80032	0.452498	87.29	41.37	-0.7	0.0497	-0.1989	-0.3982	
-0.174338	0.818864	0.422486	80.29	34.65	0.56	0.0456	-0.2282	-0.4072	
-0.183244	0.855098	0.41053	71.68	35.91	7.49	0.0661	-0.2285	-0.3982	
-0.217038	0.878034	0.380274	71.33	35.56	11.06	0.0502	-0.2422	-0.3878	
-0.22265	0.920856	0.362096	75.32	31.15	11.2	0.0695	-0.2594	-0.3788	
-0.224846	0.955016	0.357582	70.98	29.47	11.2	0.0753	-0.2563	-0.3728	
-0.227896	0.970144	0.319274	60.9	30.38	9.31	0.0696	-0.2686	-0.3639	
-0.223748	0.979172	0.27877	55.02	31.15	6.44	0.0698	-0.2887	-0.3624	
-0.236436	0.96929	0.268766	52.71	31.15	4.41	0.0772	-0.2872	-0.352	
-0.261202	0.965386	0.246074	48.02	28.14	3.43	0.0847	-0.2997	-0.343	
-0.243634	0.984906	0.240706	51.87	24.57	3.99	0.0951	-0.3137	-0.343	
-0.241438	0.97539	0.239242	48.79	22.05	2.8	0.0907	-0.3167	-0.3415	
-0.226432	0.966118	0.222406	44.8	20.09	1.68	0.0849	-0.3213	-0.3266	
-0.218014	0.9638	0.225944	40.88	20.44	1.96	0.09959999	-0.3215	-0.3356	
-0.238998	0.967582	0.198006	38.5	19.67	1.68	0.0968	-0.3307	-0.3236	
-0.238022	0.973072	0.185806	41.72	17.29	0.84	0.0983	-0.3307	-0.3042	
-0.257298	0.9882	0.189588	43.05	16.73	2.8	0.1013	-0.3385	-0.3117	
-0.234728	1.015162	0.191784	46.41	11.76	2.59	0.09999999	-0.3477	-0.3043	
-0.231312	1.019188	0.18666	37.66	10.5	1.68	0.1044	-0.3447	-0.2953	
-0.244366	1.013942	0.17507	32.41	8.82	0.98	0.1029	-0.3462	-0.2998	
-0.253516	1.011746	0.16226	23.94	11.83	0.28	0.09559999	-0.3507	-0.2998	
-0.252174	1.018944	0.149694	26.6	11.34	-0.49	0.106	-0.3586	-0.2908	
-0.255834	1.023336	0.15067	27.93	8.61	-1.75	0.109	-0.3617	-0.2744	
-0.251076	1.028582	0.152256	23.45	7.77	-2.38	0.1061	-0.3632	-0.2834	
-0.259128	1.019798	0.131882	15.47	7.07	-1.75	0.1016	-0.3616	-0.2834	
-0.266814	1.02724	0.11773	17.85	4.76	-0.63	0.1091	-0.3679	-0.2744	
-0.269742	1.016382	0.122	20.02	2.03	-1.19	0.1032	-0.3663	-0.2744	
-0.265716	1.016504	0.123708	19.67	-0.7	-1.33	0.1105	-0.3694	-0.2789	
-0.26352	1.021384	0.110654	18.13	-2.52	-2.38	0.1091	-0.3756	-0.2774	
-0.266326	1.018334	0.103456	17.29	-5.67	-3.71	0.1136	-0.3772	-0.2714	
-0.26413	1.006012	0.11102	15.68	-7.49	-5.18	0.1062	-0.374	-0.2729	
-0.25559	1.006256	0.11529	12.39	-7.7	-6.58	0.1135	-0.3725	-0.2655	
-0.24461	1.009184	0.105774	8.12	-7.35	-7.42	0.1047	-0.3647	-0.2506	
-0.24522	1.004548	0.114802	9.31	-9.87	-7.49	0.1078	-0.3802	-0.2595	
-0.253638	1.000034	0.107848	7.07	-10.08	-7.42	0.1107	-0.3787	-0.255	
-0.264496	0.998082	0.1098	9.87	-11.97	-6.72	0.1048	-0.3755	-0.255	
-0.279136	1.00284	0.108214	10.78	-12.67	-7.42	0.1152	-0.3865	-0.2625	
-0.272792	1.020652	0.099918	11.48	-13.58	-6.86	0.1107	-0.3833	-0.264	
-0.259616	1.01138	0.120292	6.65	-14.91	-6.44	0.1048	-0.3755	-0.2506	
-0.255834	0.998204	0.134688	4.76	-13.37	-6.51	0.1108	-0.388	-0.2625	
-0.279868	1.004426	0.11224	1.54	-10.71	-6.09	0.1049	-0.3863	-0.261	
-0.32147	1.020896	0.080398	-5.18	-11.9	-6.86	0.1093	-0.3849	-0.261	
-0.345626	1.049932	0.048556	-8.54	-19.11	-8.19	0.1048	-0.3817	-0.2655	
-0.325374	1.092876	0.031842	-14.21	-21.7	-6.51	0.1063	-0.3817	-0.2655	
-0.335622	0.948916	0.120414	-16.1	-35.91	-0.7	0.1019	-0.3817	-0.2774	
-0.226432	0.958554	0.145302	-1.68	-42.77	-4.97	0.0887	-0.3784	-0.2626	
-0.21594	0.984174	0.166652	-2.45	-41.02	-6.65	0.0916	-0.3738	-0.2715	
-0.19398	0.993568	0.155306	-19.81	-31.08	-10.64	0.0901	-0.3738	-0.2775	
-0.238876	0.98759	0.143228	-12.32	-31.92	-5.11	0.096	-0.3832	-0.2834	
-0.198372	0.968558	0.206302	-9.8	-38.15	-7	0.0857	-0.3753	-0.2775	
-0.218014	0.965996	0.20374	-10.57	-33.88	-8.47	0.0857	-0.3738	-0.2775	
-0.221552	0.966606	0.204228	-13.65	-26.95	-9.38	0.0826	-0.3645	-0.2834	
-0.226066	0.981978	0.212768	-9.1	-20.37	-11.2	0.0768	-0.369	-0.2909	
-0.238632	0.980636	0.226432	-7	-16.94	-11.62	0.0826	-0.366	-0.2894	
-0.23912	0.954406	0.224602	-13.37	-12.88	-10.15	0.0856	-0.3676	-0.2909	
-0.230092	0.9394	0.215452	-24.85	-15.61	-8.47	0.0751	-0.3536	-0.2939	
-0.236314	0.939156	0.217648	-22.96	-17.92	-6.86	0.0781	-0.3536	-0.3013	
-0.23424	0.955626	0.218868	-23.87	-14.35	-4.41	0.0751	-0.3551	-0.3058	
-0.230946	0.955016	0.267668	-15.19	-12.95	-0.63	0.0752	-0.3551	-0.2954	
-0.19581	0.935496	0.345504	-3.43	-14.91	4.62	0.0678	-0.3535	-0.3058	
-0.197762	0.892186	0.356484	-21.21	-5.53	8.75	0.0736	-0.3505	-0.3103	
-0.19337	0.88572	0.296704	-33.95	1.47	8.96	0.0721	-0.3458	-0.3103	
-0.232044	0.88389	0.328302	-11.48	-3.15	10.85	0.0634	-0.3535	-0.3178	
-0.19764	0.904264	0.377224	-7.77	6.65	13.93	0.0794	-0.3475	-0.3177	
-0.1708	0.932568	0.354776	-17.22	17.71	21.49	0.0721	-0.3474	-0.3192	
-0.165188	0.899994	0.374906	-15.82	27.72	30.8	0.0619	-0.3519	-0.3208	
-0.163846	0.84668	0.367586	-25.9	38.64	31.85	0.0647	-0.3427	-0.3163	
-0.15311	0.896212	0.329522	-22.68	39.97	34.37	0.0735	-0.3459	-0.3148	
-0.161528	0.920124	0.335378	-24.29	54.18	38.78	0.0705	-0.3381	-0.3148	
-0.198128	0.903654	0.332938	-30.73	58.17	44.38	0.0749	-0.3366	-0.3147	
-0.171288	0.89487	0.357826	-29.75	55.65	51.31	0.0749	-0.3351	-0.3237	
-0.14091	0.942816	0.324764	-32.9	70.21	56.14	0.0807	-0.332	-0.3192	
-0.167384	0.951966	0.294264	-38.57	72.52	57.61	0.0865	-0.3275	-0.3341	
-0.199104	0.950624	0.306586	-39.27	70.35	58.31	0.079	-0.3166	-0.3296	
-0.200812	0.952332	0.368684	-30.66	63.56	59.29	0.0923	-0.3214	-0.3236	
-0.172874	0.971364	0.3782	-32.48	66.08	58.45	0.0849	-0.3213	-0.3311	
-0.150304	0.969046	0.343796	-39.2	69.93	55.44	0.085	-0.3244	-0.3386	
-0.160552	0.944646	0.314272	-39.76	68.88	51.52	0.0922	-0.3183	-0.3266	
-0.16165	0.937448	0.326228	-37.66	63.63	49.77	0.09519999	-0.3199	-0.3311	
-0.172752	0.969778	0.37454	-28.49	56	47.81	0.1054	-0.3123	-0.334	
-0.17507	0.976488	0.393694	-27.79	54.53	43.12	0.101	-0.3184	-0.337	
-0.168116	0.966728	0.38064	-28.56	55.51	37.73	0.1009	-0.3107	-0.3385	
-0.166286	0.953064	0.354044	-28.77	50.4	32.69	0.1037	-0.3015	-0.3504	
-0.15555	0.902556	0.356118	-27.16	46.97	30.24	0.1008	-0.303	-0.337	
-0.1769	0.876326	0.338306	-29.75	41.02	29.89	0.1082	-0.3015	-0.3355	
-0.180194	0.881084	0.390278	-20.86	30.17	29.54	0.1154	-0.3001	-0.3444	
-0.121146	0.917928	0.433832	-15.4	25.13	29.89	0.1199	-0.3047	-0.3459	
-0.103456	0.906826	0.419314	-14	22.75	29.4	0.0979	-0.3029	-0.3415	
-0.074908	0.869494	0.42456	-10.92	18.9	28.14	0.1023	-0.2983	-0.331	
-0.06893	0.865834	0.414434	-19.25	20.51	28.35	0.111	-0.2985	-0.34	
-0.088572	0.879864	0.421388	-21.98	19.39	29.33	0.1184	-0.3001	-0.3414	
-0.102846	0.894748	0.43066	-22.19	17.15	29.33	0.108	-0.2922	-0.34	
-0.112362	0.900238	0.432734	-18.34	14.42	27.23	0.1051	-0.2922	-0.3415	
-0.101992	0.893772	0.435174	-18.34	10.22	25.62	0.105	-0.2845	-0.34	
-0.073078	0.87413	0.436638	-17.57	6.86	22.26	0.1139	-0.297	-0.3489	
-0.079178	0.888038	0.431392	-17.15	1.33	18.2	0.1095	-0.2969	-0.3549	
-0.081496	0.896578	0.445544	-16.59	-3.01	14.21	0.1094	-0.2861	-0.3459	
-0.078202	0.897066	0.465186	-9.94	-8.68	9.1	0.1021	-0.2891	-0.3504	
-0.082594	0.883158	0.481534	-5.11	-15.12	3.15	0.1005	-0.2798	-0.3489	
-0.06222	0.881816	0.494466	-1.47	-19.32	-1.05	0.0992	-0.2875	-0.3504	
-0.039528	0.886696	0.482998	-1.96	-21.28	-5.46	0.1005	-0.2814	-0.3579	
-0.010858	0.888892	0.503128	-0.98	-23.66	-10.85	0.0888	-0.2812	-0.349	
-0.011468	0.88633	0.490684	-1.96	-24.64	-17.5	0.0786	-0.2795	-0.3445	
0.001098	0.880718	0.478972	-1.68	-25.9	-20.23	0.0903	-0.2797	-0.3579	
-0.00305	0.879986	0.482754	0.28	-28.7	-22.05	0.0785	-0.2795	-0.355	
-0.043554	0.903898	0.501542	1.12	-32.55	-20.51	0.0872	-0.2688	-0.3639	
0.03477	0.89182	0.514596	6.65	-32.13	-23.87	0.0815	-0.2796	-0.3579	
0.003904	0.88694	0.50081	3.29	-31.43	-24.99	0.0786	-0.2842	-0.3594	
0.017324	0.862906	0.493856	4.2	-30.59	-28.56	0.0756	-0.278	-0.3609	
0.014518	0.87657	0.495442	10.08	-34.79	-30.17	0.0785	-0.2795	-0.3594	
0.008417999	0.852658	0.519232	8.82	-35.7	-29.54	0.0828	-0.2719	-0.3624	
0.022326	0.845216	0.506056	8.61	-30.52	-28.7	0.0742	-0.2826	-0.3565	
0.009516	0.858026	0.46848	7.63	-27.58	-27.79	0.0653	-0.2809	-0.361	
-0.043676	0.88572	0.44347	5.74	-29.05	-28.49	0.0684	-0.2871	-0.3565	
-0.096624	0.915732	0.463356	7.84	-31.71	-29.47	0.0757	-0.2872	-0.3535	
-0.097966	0.914756	0.464332	8.61	-32.69	-31.92	0.0712	-0.281	-0.3535	
-0.06039	0.908656	0.474702	9.73	-34.93	-35.07	0.0639	-0.2809	-0.3669	
-0.052582	0.906338	0.454206	7.56	-35.35	-38.36	0.0552	-0.2901	-0.364	
-0.102358	0.945134	0.430904	2.87	-35	-45.01	0.061	-0.284	-0.364	
-0.145424	0.917806	0.434076	0.91	-37.8	-48.23	0.0653	-0.2732	-0.3639	
-0.128954	0.908656	0.464088	5.74	-42.14	-49	0.0667	-0.2748	-0.3624	
-0.070516	0.906216	0.484462	6.44	-43.68	-50.12	0.0492	-0.2808	-0.3759	
-0.07905599	0.892674	0.47031	6.09	-42.77	-51.66	0.058	-0.2793	-0.3774	
-0.10736	0.88328	0.452742	6.44	-44.8	-51.24	0.0594	-0.2793	-0.3714	
-0.112118	0.861564	0.460184	5.18	-46.34	-50.19	0.0579	-0.2747	-0.3669	
-0.09821	0.854854	0.49105	9.17	-49.07	-47.81	0.0609	-0.2809	-0.3684	
-0.081008	0.847046	0.491538	9.8	-46.9	-45.78	0.0638	-0.2763	-0.3699	
-0.08686399	0.84485	0.477386	8.12	-43.96	-43.47	0.0507	-0.2808	-0.3685	
-0.103212	0.85278	0.471286	9.17	-42.84	-40.88	0.0492	-0.2838	-0.3714	
-0.130174	0.858026	0.46482	9.8	-42.21	-38.43	0.0579	-0.2778	-0.3774	
-0.1464	0.859246	0.477996	9.66	-42.35	-35.91	0.0389	-0.276	-0.3625	
-0.135542	0.856196	0.491416	8.61	-41.37	-32.76	0.0434	-0.2838	-0.364	
-0.114436	0.858758	0.505324	12.67	-40.32	-30.1	0.042	-0.2868	-0.361	
-0.09747799	0.860222	0.50081	10.5	-32.69	-25.62	0.0332	-0.2914	-0.364	
-0.114802	0.87352	0.493124	10.57	-27.58	-22.82	0.0346	-0.2852	-0.376	
-0.130906	0.859856	0.493002	6.37	-23.8	-17.78	0.0346	-0.2883	-0.3595	
-0.143106	0.845094	0.487268	3.29	-17.78	-14.14	0.0318	-0.2975	-0.373	
-0.16409	0.836554	0.494832	2.73	-13.58	-11.2	0.0258	-0.2882	-0.373	
-0.182146	0.829966	0.486292	1.54	-9.45	-6.65	0.0302	-0.2898	-0.3745	
-0.215208	0.817888	0.479826	1.82	-8.33	-1.54	0.0332	-0.2883	-0.3685	
-0.23363	0.806298	0.472384	1.61	-7	4.27	0.0331	-0.2836	-0.3655	
-0.26169	0.779824	0.45384	0	-5.25	9.94	0.0229	-0.2897	-0.3626	
-0.286212	0.768112	0.44896	3.01	-7.7	16.03	0.0244	-0.2866	-0.3626	
-0.282064	0.764086	0.44591	4.06	-10.08	22.33	0.0156	-0.2881	-0.3745	
-0.260714	0.774456	0.44347	6.23	-11.34	30.03	0.0128	-0.2988	-0.3596	
-0.239974	0.775188	0.43615	5.04	-11.55	37.66	0.0083	-0.2972	-0.3686	
-0.215452	0.772748	0.441396	1.26	-11.97	45.36	0.0068	-0.2926	-0.3626	
-0.195932	0.776896	0.43371	-3.64	-9.31	52.01	0.0025	-0.2925	-0.3581	
-0.185928	0.795196	0.440664	-6.93	-8.19	58.1	-0.0151	-0.2923	-0.3627	
-0.17385	0.835456	0.444934	-5.11	-8.68	61.81	-0.0136	-0.2954	-0.3627	
-0.142618	0.848388	0.467016	-6.86	-12.88	63.91	-0.0225	-0.2845	-0.3642	
-0.09455	0.865834	0.468236	-10.99	-13.37	65.52	-0.0238	-0.2984	-0.3597	
-0.052094	0.888038	0.475922	-9.87	-14.84	64.12	-0.0429	-0.292	-0.3717	
-0.003782	0.902556	0.46177	-16.17	-13.44	65.17	-0.0504	-0.278	-0.3791	
0.054168	0.901946	0.460184	-21.14	-12.18	62.16	-0.0533	-0.2857	-0.3702	
0.053558	0.884866	0.461404	-26.95	-10.36	59.08	-0.0621	-0.281	-0.3792	
0.084058	0.872178	0.45628	-32.55	-9.38	61.39	-0.0636	-0.284	-0.3747	
0.115534	0.867054	0.473726	-34.65	-11.41	61.46	-0.0696	-0.2716	-0.3762	
0.146888	0.865102	0.497028	-34.09	-15.47	61.53	-0.0858	-0.2621	-0.3777	
0.167262	0.855464	0.497028	-37.94	-16.03	60.97	-0.0932	-0.2574	-0.3822	
0.20252	0.863394	0.505324	-36.26	-19.18	59.08	-0.09779999	-0.2435	-0.3837	
0.209108	0.858026	0.516182	-33.74	-23.8	55.09	-0.1096	-0.2371	-0.3852	
0.238632	0.840702	0.517402	-31.57	-28.35	48.86	-0.1168	-0.2448	-0.3852	
0.282308	0.825696	0.53253	-27.23	-34.02	45.43	-0.1213	-0.2355	-0.3942	
0.35075	0.81618	0.526674	-22.75	-42.56	40.04	-0.1434	-0.2244	-0.3898	
0.36783	0.792634	0.53131	-19.53	-47.46	33.04	-0.1552	-0.2196	-0.3913	
0.381738	0.778238	0.53436	-23.52	-46.9	29.89	-0.1611	-0.2195	-0.3958	
0.401014	0.793976	0.539118	-20.44	-47.6	34.72	-0.1698	-0.2256	-0.3869	
0.413336	0.784948	0.575718	-19.74	-49.84	34.16	-0.1686	-0.1994	-0.3883	
0.441152	0.754448	0.577426	-24.01	-45.36	30.73	-0.1936	-0.1929	-0.3943	
0.440542	0.741516	0.565348	-18.34	-45.71	28.63	-0.1936	-0.1975	-0.3869	
0.455792	0.743834	0.573278	-14.98	-42.14	27.37	-0.198	-0.1959	-0.3899	
0.47763	0.7625	0.5551	-18.06	-34.93	24.36	-0.204	-0.1866	-0.3854	
0.473116	0.750422	0.553392	-18.9	-31.92	19.6	-0.22	-0.1895	-0.3855	
0.481534	0.73932	0.562542	-20.09	-29.19	16.24	-0.226	-0.1801	-0.3765	
0.486536	0.739442	0.554002	-8.47	-30.31	12.74	-0.2274	-0.1848	-0.3899	
0.498614	0.731512	0.574498	-8.96	-27.58	10.43	-0.2349	-0.1754	-0.3825	
0.521306	0.716262	0.557662	-6.86	-23.52	4.69	-0.2363	-0.1754	-0.3795	
0.525454	0.715286	0.559248	3.22	-23.73	3.15	-0.2421	-0.1784	-0.378	
0.56242	0.734562	0.585234	0.21	-20.23	4.55	-0.2451	-0.1814	-0.384	
0.574986	0.721386	0.56059	-1.19	-9.45	-2.31	-0.2421	-0.1799	-0.378	
0.577304	0.742492	0.585356	2.8	-8.33	-4.34	-0.2466	-0.1737	-0.3706	
0.566568	0.768356	0.604754	4.76	-4.48	-8.33	-0.2377	-0.1846	-0.3765	
0.571448	0.757986	0.596214	-1.33	5.18	-13.02	-0.2393	-0.1691	-0.3706	
0.565226	0.747494	0.573522	-0.35	12.6	-19.04	-0.2435	-0.1861	-0.3736	
0.556686	0.755058	0.599142	-0.91	18.27	-23.38	-0.254	-0.1705	-0.3766	
0.556076	0.76006	0.581574	-3.15	25.13	-27.86	-0.2392	-0.1784	-0.3795	
0.543632	0.758474	0.574254	-1.26	27.09	-33.67	-0.2436	-0.1799	-0.3721	
0.522282	0.749812	0.590114	3.43	29.75	-38.71	-0.2303	-0.1924	-0.378	
0.504226	0.749812	0.610854	5.04	36.05	-43.12	-0.2127	-0.1896	-0.3854	
0.490928	0.74054	0.595116	4.55	44.31	-48.51	-0.2011	-0.182	-0.3869	
0.48068	0.748592	0.56303	10.43	45.78	-52.22	-0.2024	-0.199	-0.3988	
0.42761	0.800076	0.560712	16.03	42.21	-51.45	-0.1905	-0.2053	-0.3839	
0.434686	0.750178	0.549	12.81	46.2	-58.8	-0.1788	-0.2101	-0.3839	
0.38186	0.760548	0.531066	22.82	42.84	-59.01	-0.1744	-0.2132	-0.3988	
0.366488	0.774944	0.535702	27.09	41.09	-63.35	-0.1581	-0.2227	-0.3898	
0.329034	0.769576	0.531798	28.77	40.88	-66.22	-0.1331	-0.2307	-0.3942	
0.309758	0.780068	0.510692	24.92	45.22	-69.58	-0.1271	-0.2447	-0.3957	
0.292678	0.784704	0.491904	20.3	46.27	-69.93	-0.1065	-0.2465	-0.3912	
0.227652	0.814106	0.522648	21	43.05	-68.46	-0.0963	-0.2435	-0.3867	
0.19032	0.81008	0.520452	14.35	44.31	-66.08	-0.0874	-0.2559	-0.3867	
0.194468	0.806176	0.520818	16.24	44.94	-65.73	-0.0742	-0.2546	-0.3926	
0.165798	0.801784	0.512278	10.85	51.31	-66.57	-0.0669	-0.25	-0.3941	
0.15006	0.838262	0.4819	7.28	54.04	-64.26	-0.0508	-0.2533	-0.3955	
0.089914	0.857538	0.480192	3.99	54.18	-62.02	-0.0433	-0.2688	-0.394	
0.044164	0.876204	0.461892	0.42	55.09	-58.87	-0.023	-0.2459	-0.3955	
-0.02257	0.888038	0.460062	-4.9	54.39	-57.61	-0.0038	-0.257	-0.3939	
-0.099552	0.910364	0.481168	-4.76	50.96	-60.06	0.0033	-0.2509	-0.3954	
-0.109434	0.897676	0.49288	-10.29	48.93	-59.22	0.0152	-0.2587	-0.3909	
-0.14091	0.8906	0.489586	-6.16	48.23	-63.7	0.0196	-0.2603	-0.3864	
-0.179706	0.88511	0.490562	-7.91	47.6	-67.13	0.0342	-0.2559	-0.3923	
-0.234972	0.815326	0.475678	-14.14	52.15	-73.29	0.0444	-0.2467	-0.3893	
-0.279136	0.772626	0.457378	-15.75	49.07	-74.69	0.0692	-0.2439	-0.3907	
-0.305122	0.760914	0.46848	-12.32	44.03	-76.23	0.0736	-0.2409	-0.3848	
-0.336232	0.760792	0.502274	-11.2	41.65	-75.46	0.078	-0.2379	-0.3937	
-0.356972	0.748226	0.496662	-11.83	40.6	-74.13	0.1014	-0.2304	-0.3847	
-0.38796	0.711992	0.475312	-18.83	41.51	-71.75	0.0953	-0.218	-0.3906	
-0.404552	0.697962	0.463722	-18.55	31.99	-66.36	0.1129	-0.2182	-0.3831	
-0.449936	0.68259	0.47031	-16.87	28.28	-68.25	0.129	-0.2122	-0.3935	
-0.495686	0.67405	0.4941	-17.15	27.09	-66.22	0.1407	-0.2124	-0.3861	
-0.492148	0.65087	0.509228	-18.34	22.82	-61.46	0.142	-0.1954	-0.3845	
-0.501786	0.646112	0.494466	-19.6	21.14	-55.72	0.1537	-0.1955	-0.3771	
-0.52338	0.654408	0.495442	-17.36	20.93	-54.81	0.1552	-0.1971	-0.3905	
-0.579012	0.635498	0.49105	-22.89	22.19	-51.31	0.1595	-0.1832	-0.3726	
-0.585478	0.625372	0.50874	-16.45	17.71	-48.02	0.1696	-0.171	-0.38	
-0.591212	0.594018	0.50325	-20.79	24.71	-53.55	0.1666	-0.1741	-0.4009	
-0.589626	0.5673	0.49471	-20.23	21.49	-54.39	0.1841	-0.1573	-0.3859	
-0.599996	0.539606	0.494344	-20.37	15.19	-51.03	0.1956	-0.1404	-0.3873	
-0.609634	0.532896	0.509838	-19.53	14.14	-47.6	0.2015	-0.1451	-0.3858	
-0.63867	0.535824	0.51301	-20.44	13.44	-42.98	0.1941	-0.1404	-0.3873	
-0.652334	0.520086	0.50447	-20.72	12.6	-38.92	0.2058	-0.1359	-0.3903	
-0.684786	0.501908	0.50996	-20.93	9.66	-35.42	0.2071	-0.1189	-0.3918	
-0.71187	0.49715	0.526308	-19.39	8.26	-31.36	0.2086	-0.1174	-0.3768	
-0.731268	0.481778	0.520574	-19.67	10.01	-29.61	0.2159	-0.1206	-0.3843	
-0.750788	0.475068	0.518988	-17.36	5.74	-24.57	0.2231	-0.1114	-0.3857	
-0.761524	0.465918	0.525942	-14.98	1.05	-19.67	0.207	-0.1096	-0.3768	
-0.764452	0.436882	0.548268	-12.6	-4.48	-13.93	0.2112	-0.09429999	-0.3828	
-0.734074	0.41968	0.565592	-8.89	-5.39	-9.94	0.2128	-0.102	-0.3887	
-0.699792	0.423096	0.562298	-4.2	-4.06	-6.23	0.2127	-0.09739999	-0.3902	
-0.71309	0.404918	0.563396	-0.42	-5.74	-0.63	0.201	-0.1003	-0.3903	
-0.716506	0.390766	0.562176	3.92	-12.25	7.98	0.2084	-0.105	-0.3902	
-0.698206	0.396744	0.549122	3.43	-14.91	17.36	0.2069	-0.1004	-0.3873	
-0.710772	0.43859	0.56547	3.64	-3.01	20.09	0.2055	-0.105	-0.3888	
-0.732976	0.425292	0.550586	0.35	-1.75	27.93	0.2099	-0.1051	-0.3888	
-0.708088	0.406748	0.536922	-0.21	-11.83	34.3	0.204	-0.1034	-0.3873	
-0.695522	0.438468	0.55266	0.42	-6.79	36.89	0.1952	-0.108	-0.3858	
-0.702842	0.447984	0.552538	3.85	-7	39.2	0.1895	-0.1156	-0.3843	
-0.67649	0.448106	0.542412	7.84	-13.3	43.61	0.1938	-0.1111	-0.3977	
-0.66673	0.50508	0.562664	12.74	-17.71	45.57	0.1983	-0.1157	-0.3873	
-0.6466	0.544608	0.562542	15.82	-18.55	47.53	0.1881	-0.128	-0.3858	
-0.618174	0.549732	0.556442	18.83	-22.54	49.14	0.1823	-0.1279	-0.3874	
-0.59048	0.540582	0.57218	19.39	-22.4	51.66	0.1749	-0.1278	-0.3859	
-0.576816	0.557662	0.5612	22.05	-22.75	50.96	0.1736	-0.1417	-0.4008	
-0.56791	0.590236	0.540826	23.17	-23.03	51.8	0.1708	-0.1494	-0.3964	
-0.539728	0.603778	0.546804	23.03	-23.24	54.39	0.1635	-0.1539	-0.3844	
-0.51118	0.609512	0.529968	22.96	-23.52	57.4	0.1651	-0.1648	-0.3904	
-0.50935	0.64111	0.529724	22.68	-21.91	58.17	0.1534	-0.1662	-0.3979	
-0.517158	0.655384	0.508252	21.7	-24.71	59.43	0.133	-0.1767	-0.3995	
-0.455548	0.674904	0.496174	24.64	-26.81	59.85	0.1229	-0.1936	-0.398	
-0.418948	0.693448	0.498858	26.6	-29.75	59.57	0.1156	-0.1966	-0.4025	
-0.378566	0.732366	0.491538	25.27	-30.03	60.97	0.1127	-0.1981	-0.3921	
-0.361608	0.739808	0.482998	22.54	-33.39	63.56	0.0967	-0.2118	-0.3966	
-0.322812	0.743468	0.497516	21.84	-36.19	64.75	0.0909	-0.2164	-0.3907	
-0.297192	0.757376	0.490562	19.53	-38.15	67.2	0.0793	-0.2255	-0.3967	
-0.255956	0.75884	0.494954	18.76	-40.11	69.37	0.0734	-0.2255	-0.3937	
-0.220942	0.773602	0.47763	15.19	-39.13	71.4	0.0574	-0.2314	-0.3937	
-0.191296	0.770796	0.474458	10.78	-37.87	73.57	0.0486	-0.2344	-0.3938	
-0.14518	0.802516	0.472262	8.54	-46.76	75.6	0.034	-0.2358	-0.3938	
-0.104554	0.824842	0.468724	6.3	-53.27	77.77	0.0267	-0.2403	-0.3968	
-0.051728	0.835212	0.475556	3.71	-58.45	78.26	0.0178	-0.2371	-0.3998	
-0.00244	0.817644	0.496052	-5.53	-61.18	79.31	-0.0156	-0.2491	-0.3939	
0.061488	0.786534	0.502518	-8.89	-59.78	79.38	-0.0186	-0.2429	-0.3925	
0.12383	0.804468	0.498614	-16.52	-56.84	80.99	-0.0348	-0.2427	-0.394	
0.177144	0.792024	0.52338	-20.3	-57.26	80.64	-0.045	-0.2457	-0.4074	
0.226066	0.836066	0.52216	-19.39	-59.08	85.12	-0.0686	-0.2346	-0.3956	
0.238876	0.856318	0.555832	-24.15	-56.98	82.81	-0.0818	-0.2344	-0.403	
0.25315	0.842898	0.540704	-29.4	-53.34	79.52	-0.098	-0.2219	-0.4001	
0.244366	0.84363	0.543144	-23.94	-54.25	73.15	-0.1053	-0.2233	-0.3956	
0.261202	0.82655	0.553026	-27.02	-55.3	66.01	-0.1186	-0.217	-0.3942	
0.302072	0.817888	0.580842	-23.66	-56.77	63.98	-0.1422	-0.2059	-0.3987	
0.345016	0.817644	0.557784	-25.69	-54.46	53.76	-0.1525	-0.2027	-0.4002	
0.359412	0.823012	0.589626	-18.41	-56.63	49.63	-0.1556	-0.1903	-0.3972	
0.380884	0.822036	0.581452	-19.53	-55.02	47.39	-0.1718	-0.1793	-0.4032	
0.412848	0.800076	0.583038	-21.42	-53.06	42.63	-0.1762	-0.1792	-0.4017	
0.43127	0.810568	0.62952	-24.92	-47.11	37.24	-0.1937	-0.1883	-0.4003	
0.445788	0.789828	0.600606	-22.26	-43.4	30.38	-0.1924	-0.1759	-0.3898	
0.46177	0.784094	0.628544	-11.83	-43.89	26.6	-0.2026	-0.1758	-0.3914	
0.476288	0.759694	0.63013	-13.65	-38.15	19.39	-0.2131	-0.1587	-0.3944	
0.486658	0.737124	0.613416	-14.14	-31.5	17.15	-0.2262	-0.1647	-0.3899	
0.50264	0.742126	0.600972	-15.82	-25.13	13.3	-0.2247	-0.1632	-0.3869	
0.502518	0.72407	0.610854	-11.9	-23.17	9.59	-0.2336	-0.1553	-0.384	
0.51545	0.71492	0.623542	-14.35	-18.9	7.42	-0.235	-0.1599	-0.381	
0.529602	0.69357	0.600606	-10.99	-15.19	4.48	-0.2439	-0.1521	-0.3795	
0.540094	0.692472	0.59414	-5.74	-13.58	0.77	-0.2396	-0.1506	-0.387	
0.542534	0.692228	0.60024	-13.65	-7.42	-2.24	-0.241	-0.1506	-0.3825	
0.545218	0.684054	0.580598	-10.85	-4.69	-4.83	-0.2543	-0.1458	-0.387	
0.562298	0.691374	0.606828	-5.04	-4.2	-6.3	-0.2455	-0.1413	-0.3825	
0.560712	0.691862	0.60695	-4.76	0.49	-8.75	-0.2425	-0.1506	-0.3795	
0.562664	0.67527	0.60756	-2.38	3.64	-12.18	-0.2396	-0.1429	-0.3765	
0.567422	0.68076	0.62342	2.66	6.65	-14.07	-0.2351	-0.1569	-0.384	
0.574254	0.685884	0.652212	4.62	10.85	-15.75	-0.2366	-0.1491	-0.3899	
0.5673	0.718702	0.674416	11.34	17.78	-18.55	-0.2454	-0.1536	-0.384	
0.548756	0.69967	0.659044	3.08	30.24	-24.36	-0.2246	-0.1724	-0.3825	
0.546072	0.684908	0.64843	4.83	38.36	-28.98	-0.2278	-0.1569	-0.3914	
0.52399	0.70211	0.652822	8.33	42.98	-32.97	-0.2175	-0.1571	-0.3929	
0.47458	0.683078	0.627568	-3.78	55.3	-39.83	-0.2087	-0.1634	-0.4003	
0.496418	0.664046	0.619272	9.73	52.92	-44.94	-0.1985	-0.1589	-0.4033	
0.420168	0.69723	0.602192	6.37	57.4	-43.26	-0.1866	-0.1652	-0.4018	
0.404796	0.702476	0.611952	15.26	54.53	-44.59	-0.1821	-0.1745	-0.4018	
0.371368	0.710772	0.620736	22.54	53.27	-45.99	-0.1733	-0.1792	-0.3973	
0.349164	0.712114	0.619516	30.38	55.51	-48.86	-0.1557	-0.1825	-0.4002	
0.328668	0.722484	0.586576	32.69	58.17	-51.8	-0.1497	-0.1934	-0.4062	
0.300974	0.731878	0.55998	30.17	60.41	-55.72	-0.1219	-0.1922	-0.4091	
0.264374	0.75335	0.556198	28.56	60.41	-57.47	-0.1232	-0.1968	-0.4001	
0.237656	0.77714	0.571082	24.64	59.78	-58.66	-0.11	-0.2047	-0.4091	
0.2013	0.810812	0.548024	21.91	59.64	-59.43	-0.0923	-0.2111	-0.409	
0.164944	0.813618	0.553758	22.54	57.89	-59.5	-0.08199999	-0.2159	-0.3956	
0.122854	0.80947	0.523746	11.76	61.32	-59.01	-0.0643	-0.2269	-0.394	
0.087352	0.817766	0.52704	8.12	59.36	-58.52	-0.057	-0.2239	-0.403	
0.068686	0.839116	0.522282	4.55	56.77	-58.03	-0.035	-0.2195	-0.3984	
0.013298	0.844118	0.525088	1.68	54.95	-57.54	-0.0246	-0.2335	-0.3999	
-0.023668	0.857538	0.51057	-3.64	53.06	-56.49	-0.0056	-0.2276	-0.3984	
-0.07869	0.853268	0.512034	-4.76	51.87	-55.72	0.0103	-0.2201	-0.4043	
-0.114558	0.844728	0.513742	-8.05	52.85	-59.43	0.0177	-0.2248	-0.3968	
-0.14823	0.84119	0.487268	-12.88	51.1	-63.91	0.0308	-0.2219	-0.4087	
-0.185318	0.823744	0.514596	-14.07	45.92	-65.94	0.0441	-0.2236	-0.4027	
-0.238754	0.786046	0.51423	-16.73	45.78	-68.74	0.0571	-0.2067	-0.4042	
-0.280844	0.765184	0.516182	-18.34	43.89	-70.56	0.0702	-0.2023	-0.3996	
-0.328668	0.754082	0.50569	-18.83	44.17	-72.45	0.0775	-0.1977	-0.3996	
-0.37393	0.742614	0.506666	-17.99	42.7	-75.74	0.0848	-0.1932	-0.4011	
-0.400648	0.719678	0.518378	-15.54	40.74	-77.91	0.1038	-0.1949	-0.4055	
-0.46604	0.721874	0.525698	-16.17	37.94	-79.31	0.1213	-0.1797	-0.3995	
-0.490074	0.709674	0.562664	-17.22	29.12	-75.04	0.1228	-0.1828	-0.401	
-0.446276	0.670878	0.568276	-19.46	16.45	-65.66	0.1285	-0.1705	-0.4024	
-0.43432	0.626104	0.583282	-22.75	12.25	-60.83	0.1343	-0.169	-0.4039	
-0.465308	0.58987	0.56486	-24.85	22.89	-61.74	0.143	-0.1614	-0.4054	
-0.490928	0.563152	0.583404	-18.13	20.51	-62.3	0.1488	-0.1522	-0.4083	
-0.489952	0.55876	0.571692	-18.2	21.98	-58.59	0.1604	-0.1431	-0.4008	
-0.50996	0.549854	0.5551	-20.09	21.49	-56.21	0.1576	-0.1523	-0.4009	
-0.516914	0.53375	0.565592	-24.99	17.92	-50.47	0.1603	-0.1338	-0.4068	
-0.563884	0.515328	0.554124	-25.41	16.73	-49.35	0.166	-0.1231	-0.4098	
-0.552172	0.510082	0.574132	-23.1	14.35	-41.02	0.1807	-0.1186	-0.4038	
-0.607316	0.480314	0.55266	-38.57	26.67	-31.08	0.1748	-0.1216	-0.4008	
-0.641354	0.476166	0.581574	-27.02	10.99	-28.7	0.182	-0.1109	-0.4008	
-0.68381	0.47153	0.563518	-26.74	17.36	-30.38	0.1879	-0.1048	-0.3918	
-0.692594	0.47275	0.572912	-21.7	17.15	-33.81	0.1892	-0.0909	-0.3977	
-0.719922	0.47092	0.584868	-22.68	14.91	-30.87	0.1934	-0.0802	-0.4007	
-0.723216	0.440176	0.592554	-20.51	6.44	-25.34	0.1891	-0.0847	-0.4022	
-0.713578	0.427854	0.603168	-17.92	3.57	-20.23	0.1963	-0.0756	-0.3992	
-0.697352	0.41419	0.607194	-15.12	1.12	-15.75	0.2007	-0.07099999	-0.3977	
-0.690276	0.397232	0.617076	-12.11	0.35	-12.81	0.1947	-0.0616	-0.4022	
-0.701378	0.379542	0.60939	-7.21	-0.56	-5.6	0.1917	-0.0616	-0.4037	
-0.70272	0.369416	0.6161	-5.32	-6.16	1.26	0.1918	-0.0678	-0.3947	
-0.690764	0.3538	0.626592	-1.68	-14.49	8.12	0.1919	-0.0724	-0.4007	
-0.674294	0.348188	0.615734	-1.61	-15.82	14.21	0.1874	-0.0646	-0.4052	
-0.650382	0.378078	0.655384	-2.24	-12.18	18.06	0.1801	-0.0661	-0.4037	
-0.690642	0.398208	0.628178	-3.36	0.42	20.58	0.1874	-0.0646	-0.4022	
-0.68503	0.403454	0.606828	0.91	-7.07	25.83	0.1859	-0.0677	-0.4052	
-0.680272	0.408822	0.617076	2.38	-11.9	31.57	0.1831	-0.07229999	-0.4022	
-0.691984	0.396378	0.599996	3.22	-11.34	35.42	0.1787	-0.0753	-0.4007	
-0.688446	0.413458	0.607194	6.86	-13.79	39.55	0.1802	-0.08	-0.4022	
-0.670756	0.41358	0.627446	10.85	-18.13	43.75	0.1744	-0.0846	-0.4067	
-0.62647	0.445056	0.64416	17.29	-24.22	46.34	0.1642	-0.0891	-0.4097	
-0.615612	0.44591	0.631716	19.81	-25.06	47.46	0.1599	-0.0983	-0.4112	
-0.597312	0.456158	0.626958	23.52	-26.74	50.47	0.1644	-0.1061	-0.4127	
-0.568154	0.482754	0.623908	29.19	-29.89	53.41	0.1555	-0.1029	-0.4098	
-0.543022	0.502884	0.61549	30.59	-31.57	56.7	0.1439	-0.1136	-0.4113	
-0.521916	0.526308	0.61549	30.45	-31.78	59.15	0.1456	-0.1306	-0.4068	
-0.478118	0.551318	0.598898	32.13	-31.92	62.09	0.1325	-0.1366	-0.4128	
-0.444812	0.578646	0.597678	32.62	-33.18	65.38	0.1193	-0.1426	-0.4099	
-0.404796	0.600118	0.59658	33.32	-33.39	66.22	0.1151	-0.158	-0.4084	
-0.389424	0.612684	0.599386	32.27	-30.59	66.29	0.1151	-0.1596	-0.4174	
-0.362706	0.648918	0.586332	31.64	-30.45	67.13	0.0991	-0.1671	-0.4085	
-0.3416	0.667462	0.564982	29.75	-29.61	68.95	0.0918	-0.167	-0.413	
-0.319884	0.683566	0.550464	27.51	-31.43	69.79	0.0846	-0.1824	-0.41	
-0.286944	0.707112	0.545828	26.67	-36.33	70.91	0.076	-0.1915	-0.3981	
-0.249612	0.727852	0.54656	25.62	-37.24	70.21	0.0598	-0.1944	-0.4116	
-0.214598	0.769942	0.525698	24.71	-39.13	69.65	0.06439999	-0.2037	-0.4026	
-0.165554	0.787144	0.55144	19.67	-43.12	71.68	0.0453	-0.205	-0.4072	
-0.099796	0.78934	0.543876	23.8	-46.69	71.4	0.0337	-0.2142	-0.4132	
-0.053802	0.77958	0.535946	13.3	-40.39	72.1	0.0147	-0.2201	-0.4088	
-0.023668	0.76799	0.521184	8.89	-45.43	70.21	0.0117	-0.217	-0.4028	
0.03172	0.781532	0.52643	6.23	-53.76	71.12	-0.008599999	-0.2245	-0.4058	
0.10431	0.797392	0.571204	3.22	-59.85	72.45	-0.0204	-0.2166	-0.4029	
0.133346	0.820328	0.53192	4.34	-59.29	71.05	-0.0379	-0.2241	-0.4059	
0.157136	0.797392	0.520208	-1.89	-59.71	73.36	-0.0643	-0.2254	-0.4045	
0.211914	0.80825	0.556076	-3.22	-60.27	75.6	-0.08199999	-0.2174	-0.4015	
0.280112	0.803126	0.546926	-9.66	-56.42	72.8	-0.08199999	-0.2143	-0.3986	
0.325618	0.808006	0.560834	-7.21	-56.84	70.56	-0.09959999	-0.2126	-0.4031	
0.328058	0.834602	0.579012	-9.31	-55.23	69.79	-0.1099	-0.2109	-0.4046	
0.344162	0.842654	0.587186	-7.77	-52.71	64.96	-0.1202	-0.2123	-0.4091	
0.332816	0.841434	0.575352	-16.8	-44.24	57.96	-0.1393	-0.2059	-0.4047	
0.342454	0.799222	0.590236	-24.5	-37.59	53.06	-0.1423	-0.1997	-0.4002	
0.36539	0.803858	0.574986	-21.07	-36.33	49	-0.157	-0.1949	-0.4077	
0.387594	0.816424	0.568764	-19.46	-36.68	44.1	-0.1687	-0.1916	-0.3973	
0.393816	0.814472	0.593164	-19.67	-36.54	38.43	-0.1747	-0.1792	-0.3973	
0.38491	0.808738	0.585844	-20.09	-33.95	34.16	-0.1747	-0.1823	-0.3928	
0.390278	0.765428	0.568032	-24.36	-34.23	27.37	-0.1895	-0.1729	-0.4033	
0.412848	0.720288	0.601948	-20.93	-37.31	24.5	-0.1954	-0.1651	-0.4003	
0.446154	0.701866	0.598288	-14.63	-37.59	25.41	-0.1969	-0.1635	-0.3973	
0.45689	0.720288	0.61793	-11.27	-36.54	26.74	-0.1998	-0.165	-0.4003	
0.45872	0.729438	0.59597	-14.98	-32.27	23.45	-0.2101	-0.1618	-0.3929	
0.460794	0.707234	0.606706	-15.54	-29.4	20.51	-0.2146	-0.154	-0.3973	
0.488732	0.70943	0.60756	-15.47	-27.37	19.04	-0.2102	-0.1556	-0.3958	
0.495564	0.71919	0.615124	-10.36	-27.02	16.8	-0.2234	-0.1524	-0.3869	
0.506544	0.720044	0.621468	-10.15	-23.73	13.93	-0.2322	-0.1554	-0.3899	
0.51179	0.716262	0.616222	-11.34	-18.97	9.73	-0.2323	-0.1414	-0.3839	
0.521794	0.712602	0.619272	-10.99	-15.19	6.51	-0.2309	-0.1368	-0.3914	
0.538142	0.698816	0.618296	-10.36	-10.64	2.87	-0.2397	-0.1398	-0.3869	
0.533018	0.69418	0.622566	-10.5	-6.86	0.42	-0.2456	-0.1382	-0.387	
0.544974	0.691008	0.628544	-8.68	-4.27	-1.4	-0.2471	-0.1335	-0.3795	
0.543876	0.693936	0.627812	-1.82	-3.5	-4.27	-0.2441	-0.1382	-0.3885	
0.53985	0.703818	0.652456	-2.45	-1.05	-6.72	-0.2368	-0.1352	-0.3884	
0.545218	0.687714	0.643062	-1.75	4.9	-9.38	-0.2441	-0.1382	-0.384	
0.551074	0.690032	0.636474	0.07	11.97	-13.3	-0.2398	-0.1305	-0.378	
0.550342	0.684908	0.643062	-0.56	17.78	-17.01	-0.2352	-0.1507	-0.3869	
0.538874	0.68686	0.647576	0.35	24.29	-22.33	-0.2308	-0.1477	-0.3974	
0.534848	0.683444	0.649772	1.12	28.84	-26.18	-0.222	-0.1462	-0.3899	
0.52399	0.677954	0.660752	5.6	31.78	-29.61	-0.2161	-0.1494	-0.3973	
0.508008	0.670878	0.664168	7.42	37.66	-33.18	-0.2177	-0.1432	-0.3988	
0.493246	0.663802	0.63196	1.26	47.04	-35.91	-0.2116	-0.1618	-0.3944	
0.4697	0.677222	0.623664	0.84	50.12	-37.1	-0.1971	-0.1481	-0.4047	
0.434442	0.677954	0.622078	2.1	50.47	-38.36	-0.1926	-0.1558	-0.4077	
0.408822	0.679784	0.619272	6.79	49.56	-40.81	-0.1793	-0.1637	-0.4062	
0.376004	0.71248	0.608658	27.16	40.95	-39.06	-0.172	-0.1638	-0.4092	
0.391498	0.662338	0.63135	24.22	44.94	-49	-0.1558	-0.1764	-0.4106	
0.352946	0.687836	0.61793	19.81	48.3	-48.3	-0.1455	-0.178	-0.4076	
0.34526	0.68747	0.6039	21.28	49.28	-49.91	-0.1412	-0.1719	-0.4136	
0.298534	0.713334	0.59353	21.07	49.7	-51.03	-0.1309	-0.1736	-0.415	
0.259128	0.73139	0.610244	28.91	46.9	-54.25	-0.1204	-0.1892	-0.415	
0.238388	0.730292	0.606828	29.96	46.97	-55.02	-0.1131	-0.1923	-0.4165	
0.208376	0.736636	0.60634	28.91	48.37	-54.46	-0.091	-0.1988	-0.4105	
0.188734	0.757254	0.610488	25.97	51.17	-54.74	-0.0879	-0.2081	-0.403	
0.154452	0.789096	0.585234	18.55	56	-54.95	-0.0703	-0.2114	-0.4045	
0.097722	0.779458	0.595726	22.47	53.76	-53.9	-0.0601	-0.21	-0.4	
0.085522	0.818498	0.596824	21.91	53.97	-53.48	-0.0556	-0.2193	-0.4074	
0.04636	0.80398	0.568886	13.3	57.75	-55.58	-0.0394	-0.2226	-0.4059	
0.00671	0.846802	0.55388	16.52	57.12	-58.38	-0.0247	-0.2243	-0.4059	
-0.047214	0.877912	0.542168	14.98	56.7	-60.9	-0.013	-0.2244	-0.4014	
-0.09638	0.886086	0.543388	11.13	54.18	-61.67	-0.0012	-0.2276	-0.3954	
-0.12627	0.86437	0.553514	6.02	54.46	-62.23	0.009	-0.2309	-0.3909	
-0.168238	0.841068	0.495198	-3.99	57.4	-64.61	0.0104	-0.2309	-0.3954	
-0.188856	0.804956	0.469456	-10.36	54.25	-66.08	0.0309	-0.228	-0.3998	
-0.22997	0.799466	0.48251	-7.77	47.6	-65.59	0.0587	-0.2237	-0.4027	
-0.262056	0.769454	0.477874	-7.98	44.94	-65.73	0.0632	-0.2253	-0.3922	
-0.308294	0.743468	0.484828	-14.77	38.36	-60.55	0.0865	-0.2164	-0.4011	
-0.360388	0.7137	0.470432	-18.48	33.53	-57.61	0.09519999	-0.2103	-0.3966	
-0.405284	0.71248	0.481778	-11.76	26.95	-56.49	0.1024	-0.1995	-0.3981	
-0.441152	0.692472	0.483608	-11.69	30.66	-57.75	0.1171	-0.1982	-0.4025	
-0.45994	0.674172	0.481412	-14.35	29.61	-57.96	0.114	-0.1873	-0.401	
-0.486292	0.68015	0.486414	-13.23	19.53	-57.68	0.1228	-0.189	-0.3995	
-0.507642	0.67466	0.492148	-13.37	14.35	-54.74	0.1154	-0.1781	-0.3891	
-0.525698	0.662948	0.498126	-12.32	10.36	-50.4	0.1301	-0.1829	-0.398	
-0.547536	0.647576	0.496906	-14	9.45	-49.91	0.1447	-0.18	-0.4009	
-0.569374	0.629032	0.501664	-13.44	4.76	-48.72	0.1387	-0.166	-0.383	
-0.577182	0.63318	0.546926	-9.38	-0.35	-46.55	0.146	-0.1676	-0.3979	
-0.569618	0.616954	0.562298	-10.29	-0.21	-42.14	0.1474	-0.1599	-0.4009	
-0.55937	0.59841	0.558394	-7.35	-9.8	-37.8	0.1445	-0.1568	-0.389	
-0.569008	0.566446	0.561322	-7.14	-13.86	-33.46	0.1517	-0.1538	-0.4009	
-0.580476	0.556198	0.588284	-2.87	-16.59	-30.59	0.1501	-0.1399	-0.4039	
-0.55327	0.559492	0.587918	-1.05	-21.42	-25.2	0.1459	-0.1506	-0.3964	
-0.54473	0.546926	0.599508	1.96	-24.29	-19.67	0.1517	-0.1492	-0.4039	
-0.53985	0.55388	0.627324	3.43	-21.14	-17.29	0.1458	-0.1506	-0.4039	
-0.524234	0.57096	0.628422	5.32	-20.37	-14.56	0.14	-0.1537	-0.3979	
-0.488244	0.565104	0.627202	6.86	-23.45	-11.62	0.1283	-0.1535	-0.3994	
-0.5002	0.576816	0.612806	6.51	-21.7	-7.98	0.1312	-0.1536	-0.3994	
-0.508618	0.585112	0.619394	5.67	-21.42	-4.48	0.1326	-0.1505	-0.4069	
-0.502762	0.588406	0.626714	7.42	-19.04	-3.08	0.1268	-0.1551	-0.4114	
-0.489952	0.593774	0.630984	7.35	-17.78	-1.05	0.121	-0.1565	-0.401	
-0.49715	0.604754	0.629276	7.7	-14.21	0.35	0.1253	-0.155	-0.4129	
-0.500444	0.606096	0.62403	7.63	-12.46	1.33	0.1224	-0.155	-0.4069	
-0.47763	0.598776	0.623054	7.14	-14.98	4.62	0.1224	-0.155	-0.4099	
-0.45994	0.630618	0.644892	8.89	-13.51	4.9	0.1062	-0.1486	-0.4055	
-0.456524	0.64599	0.62891	7.07	-8.4	6.65	0.1136	-0.1518	-0.4069	
-0.453596	0.629642	0.61488	4.76	-6.72	9.45	0.1107	-0.1579	-0.401	
-0.446154	0.637694	0.643916	5.18	-6.51	11.48	0.1078	-0.1595	-0.4055	
-0.411384	0.646966	0.642818	4.34	-1.26	14.21	0.1064	-0.161	-0.4085	
-0.390888	0.646966	0.65331	4.9	0.77	17.64	0.105	-0.1687	-0.4055	
-0.38186	0.643672	0.66002	3.01	6.58	21.28	0.1078	-0.161	-0.407	
-0.375516	0.64172	0.6649	1.19	12.53	24.64	0.105	-0.1671	-0.404	
-0.357948	0.651236	0.636352	-1.05	17.43	29.96	0.105	-0.1702	-0.401	
-0.356484	0.645502	0.635132	-3.15	23.1	36.68	0.1153	-0.1734	-0.4025	
-0.35868	0.676002	0.632692	-1.82	28.56	42.42	0.111	-0.1796	-0.4025	
-0.341234	0.671122	0.627446	-4.97	31.36	49.07	0.1124	-0.1719	-0.404	
-0.313418	0.68686	0.615978	-5.32	35.42	52.08	0.1168	-0.1781	-0.407	
-0.345992	0.703696	0.602314	-8.68	46.55	53.76	0.1241	-0.172	-0.3965	
-0.370514	0.702964	0.609268	-8.12	44.87	59.43	0.1257	-0.1782	-0.3935	
-0.342942	0.729804	0.5917	-6.65	44.52	62.02	0.1287	-0.1829	-0.3861	
-0.341234	0.736758	0.556686	-12.81	49.84	65.38	0.1375	-0.1892	-0.3965	
-0.338306	0.721142	0.584136	-14.28	51.45	68.32	0.1259	-0.1967	-0.392	
-0.331962	0.7564	0.560712	-12.11	49	71.47	0.1287	-0.189	-0.389	
-0.353312	0.789706	0.57462	-12.11	49.91	74.34	0.1375	-0.1861	-0.392	
-0.319274	0.780068	0.561932	-18.9	49.49	78.19	0.139	-0.1954	-0.395	
-0.30866	0.782874	0.557418	-21	54.81	78.68	0.1419	-0.1892	-0.386	
-0.308538	0.781898	0.51301	-23.17	54.6	77.42	0.1493	-0.1893	-0.3875	
-0.299266	0.781776	0.554856	-17.85	50.47	76.02	0.1419	-0.1877	-0.386	
-0.272548	0.831308	0.557296	-18.69	49.77	74.97	0.1611	-0.1941	-0.38	
-0.279136	0.845094	0.567056	-18.27	52.22	70.98	0.1611	-0.1987	-0.3875	
-0.270474	0.845216	0.532164	-18.97	54.95	67.97	0.1494	-0.1986	-0.386	
-0.277794	0.855464	0.565226	-13.3	50.75	66.64	0.1553	-0.2002	-0.3771	
-0.236314	0.857416	0.605852	-10.71	50.54	64.96	0.1569	-0.2141	-0.3771	
-0.23546	0.88145	0.60512	-5.67	49.28	59.92	0.1685	-0.2034	-0.377	
-0.230092	0.897066	0.5795	-9.8	54.81	54.81	0.1699	-0.1957	-0.371	
-0.191418	0.859002	0.584502	-17.08	59.57	50.47	0.1656	-0.208	-0.3696	
-0.1586	0.83753	0.583648	-10.78	58.87	51.17	0.1834	-0.219	-0.3621	
-0.17568	0.83082	0.547658	-12.04	60.62	53.27	0.1775	-0.2174	-0.3636	
-0.15006	0.839604	0.535702	-9.94	61.39	52.57	0.1862	-0.2098	-0.3576	
-0.169092	0.816912	0.497882	-16.8	69.72	50.26	0.1982	-0.2285	-0.3456	
-0.177998	0.797148	0.512156	-17.57	65.94	52.43	0.2009	-0.21	-0.3546	
-0.161772	0.803126	0.516548	-13.23	64.12	52.92	0.2127	-0.2163	-0.3471	
-0.208132	0.81374	0.514108	-18.34	64.61	54.11	0.2055	-0.2254	-0.3412	
-0.234362	0.810446	0.507764	-21.42	63.77	57.33	0.2142	-0.2225	-0.3426	
-0.238266	0.806176	0.531554	-17.36	55.65	56.84	0.2173	-0.2271	-0.3337	
-0.20984	0.81618	0.547414	-15.4	50.33	56.49	0.2188	-0.2318	-0.3277	
-0.179218	0.81496	0.55876	-11.13	48.58	53.69	0.2115	-0.2363	-0.3218	
-0.179096	0.824354	0.559492	-11.9	47.95	50.61	0.2247	-0.2365	-0.3277	
-0.195688	0.818742	0.550098	-14.14	48.09	49.49	0.2277	-0.2396	-0.3232	
-0.199714	0.82228	0.545706	-13.58	46.55	46.83	0.2189	-0.241	-0.3262	
-0.202032	0.806786	0.540948	-18.83	46.9	43.26	0.2292	-0.2396	-0.3172	
-0.228994	0.786046	0.533994	-18.34	45.71	37.8	0.241	-0.249	-0.3038	
-0.244366	0.796538	0.538752	-15.89	44.17	34.58	0.2337	-0.2474	-0.3023	
-0.263642	0.810812	0.521184	-16.03	41.23	29.61	0.2409	-0.2428	-0.3112	
-0.285236	0.812032	0.507886	-19.74	37.1	24.22	0.2468	-0.2413	-0.3023	
-0.24034	0.797636	0.521062	-8.47	25.55	16.73	0.2365	-0.2397	-0.3038	
-0.210084	0.804102	0.537898	-5.6	20.86	14	0.241	-0.2475	-0.3068	
-0.255346	0.81252	0.515206	-5.11	17.64	11.62	0.244	-0.249	-0.3068	
-0.251198	0.795318	0.52704	0	11.34	8.26	0.2483	-0.2414	-0.3023	
-0.24522	0.783606	0.512522	-1.68	8.47	5.74	0.2455	-0.249	-0.2933	
-0.237778	0.785558	0.51606	1.12	1.75	3.08	0.2468	-0.2429	-0.3083	
-0.232898	0.793854	0.525942	1.47	-0.49	0.98	0.2469	-0.2475	-0.3008	
-0.24034	0.78751	0.526552	-0.91	-2.45	-0.98	0.2424	-0.2428	-0.3008	
-0.241926	0.810568	0.542168	1.33	-5.46	-2.94	0.2397	-0.2567	-0.2993	
-0.222162	0.797514	0.548024	1.96	-8.12	-5.95	0.2425	-0.2521	-0.3098	
-0.221308	0.812154	0.550098	4.27	-9.31	-8.12	0.2498	-0.2491	-0.2963	
-0.237534	0.809958	0.525332	2.66	-8.75	-10.01	0.2513	-0.2476	-0.3008	
-0.248392	0.794952	0.52338	3.85	-12.53	-12.18	0.2438	-0.2351	-0.2993	
-0.238632	0.802394	0.537898	5.6	-16.52	-12.67	0.2411	-0.2505	-0.3038	
-0.250222	0.813618	0.538874	8.61	-19.11	-14.07	0.2394	-0.2382	-0.3038	
-0.268766	0.803126	0.517402	8.82	-20.72	-16.24	0.2337	-0.2443	-0.3008	
-0.29158	0.818254	0.510692	18.13	-28.28	-21.7	0.2366	-0.2428	-0.3008	
-0.306342	0.811666	0.494222	19.46	-34.37	-24.71	0.2336	-0.2443	-0.3098	
-0.284016	0.812764	0.485194	26.88	-42.49	-27.86	0.2351	-0.2474	-0.3128	
-0.274988	0.83387	0.463844	28.49	-45.64	-31.85	0.2336	-0.2412	-0.3128	
-0.371856	0.868762	0.45018	32.13	-51.1	-32.41	0.2234	-0.2488	-0.3158	
-0.25559	0.893406	0.44957	48.72	-61.32	-34.09	0.2264	-0.2504	-0.3158	
-0.308172	0.895846	0.441152	34.3	-62.44	-39.06	0.2132	-0.2502	-0.3158	
-0.299632	0.89365	0.411506	44.59	-70.63	-45.85	0.2205	-0.255	-0.3232	
-0.283528	0.881084	0.397842	46.2	-77.42	-49.14	0.2147	-0.2549	-0.3203	
-0.29829	0.89853	0.37393	43.82	-82.25	-48.3	0.2059	-0.261	-0.3248	
-0.31415	0.888892	0.324886	41.37	-90.37	-49.63	0.1971	-0.2562	-0.3218	
-0.287066	0.902068	0.344406	42.91	-99.89	-54.04	0.1912	-0.2592	-0.3308	
-0.257908	0.930616	0.327692	44.52	-107.17	-60.9	0.1855	-0.2669	-0.3338	
-0.199958	0.930006	0.326838	49.28	-117.32	-66.01	0.1635	-0.2728	-0.3473	
-0.20313	0.954772	0.35502	53.41	-123.41	-66.57	0.1606	-0.2743	-0.3428	
-0.228018	0.917684	0.318054	47.95	-126.77	-64.54	0.1487	-0.2603	-0.3443	
-0.232288	0.932324	0.330498	51.38	-139.65	-61.88	0.1429	-0.2679	-0.3473	
-0.147254	0.951722	0.364536	57.4	-150.78	-62.93	0.1254	-0.2739	-0.3504	
-0.119438	0.956602	0.3172	55.09	-146.72	-62.3	0.1168	-0.2893	-0.3489	
-0.157502	0.967582	0.29707	54.46	-138.04	-64.96	0.1065	-0.286	-0.3474	
-0.16226	0.96075	0.305366	49.49	-138.25	-63.84	0.0904	-0.2859	-0.346	
-0.15067	0.975146	0.317322	50.96	-146.02	-61.32	0.0818	-0.3058	-0.3535	
-0.132126	0.945012	0.303414	40.95	-147.7	-55.86	0.0656	-0.2964	-0.3475	
-0.106628	0.96441	0.32452	42.28	-146.86	-53.76	0.042	-0.293	-0.3536	
-0.096868	0.98698	0.314516	40.74	-142.87	-54.39	0.0495	-0.3039	-0.3446	
-0.074054	0.993202	0.323666	37.73	-139.93	-52.43	0.0247	-0.3129	-0.3447	
-0.048556	1.012234	0.351604	34.44	-137.55	-50.61	0.016	-0.3174	-0.3402	
-0.064172	0.977098	0.338062	21.14	-125.58	-46.62	-0.0014	-0.3249	-0.3448	
-0.055754	0.984418	0.349896	24.43	-122.43	-49.07	-0.006	-0.3125	-0.3418	
-0.025742	0.988078	0.3294	22.96	-118.23	-53.27	-0.019	-0.3278	-0.3388	
-0.071492	1.029558	0.339038	23.45	-112.98	-56.56	-0.0205	-0.3247	-0.3359	
-0.01708	0.999546	0.403698	28.28	-111.58	-56	-0.0423	-0.3368	-0.327	
-0.001952	0.982832	0.409554	21.84	-106.54	-58.24	-0.0495	-0.3428	-0.3166	
-0.064416	0.993446	0.399306	23.87	-111.58	-54.95	-0.0511	-0.3382	-0.3181	
-0.030134	0.956968	0.407358	19.53	-101.08	-51.38	-0.0612	-0.3473	-0.3196	
-0.014152	0.944524	0.392718	20.16	-95.34	-52.43	-0.0656	-0.3504	-0.3136	
-0.033428	0.910974	0.40565	19.6	-91.49	-52.64	-0.0744	-0.3502	-0.3077	
-0.0427	0.903288	0.426512	20.02	-83.51	-50.96	-0.0757	-0.358	-0.3077	
-0.03721	0.905362	0.419924	17.43	-77.14	-48.02	-0.0743	-0.358	-0.3017	
-0.091744	0.88206	0.408822	15.12	-70.42	-43.47	-0.0772	-0.3579	-0.3002	
-0.077592	0.875228	0.410896	15.82	-68.18	-39.06	-0.0815	-0.3687	-0.3047	
-0.09333	0.860344	0.432856	13.79	-63.63	-35.56	-0.083	-0.3609	-0.2794	
-0.091134	0.891088	0.40809	13.86	-56.98	-31.57	-0.0872	-0.3748	-0.2898	
-0.110166	0.889746	0.420168	12.04	-52.36	-29.05	-0.0843	-0.3717	-0.2883	
-0.09577	0.871934	0.416874	7.35	-44.03	-23.8	-0.0916	-0.3778	-0.2884	
-0.126392	0.875228	0.43005	5.25	-36.68	-20.02	-0.0916	-0.3747	-0.2943	
-0.182512	0.880596	0.42395	-2.66	-27.93	-15.68	-0.0945	-0.3731	-0.2735	
-0.152256	0.874252	0.423828	2.38	-26.81	-12.46	-0.09739999	-0.3762	-0.2794	
-0.169824	0.883402	0.426146	3.36	-21.91	-10.57	-0.1019	-0.3746	-0.2794	
-0.161284	0.87718	0.427	3.29	-18.41	-8.75	-0.0975	-0.3731	-0.275	
-0.167262	0.91134	0.44713	4.69	-13.37	-6.37	-0.0989	-0.3793	-0.2809	
-0.166042	0.884378	0.412482	-0.63	-7.49	-3.99	-0.099	-0.37	-0.2809	
-0.168848	0.880474	0.433466	-0.14	-3.99	-1.19	-0.0989	-0.3793	-0.272	
-0.166164	0.88572	0.414434	-2.03	1.54	1.47	-0.1003	-0.3808	-0.278	
-0.180316	0.894748	0.409798	-0.35	2.45	3.57	-0.0931	-0.3716	-0.2824	
-0.16165	0.869494	0.429928	-3.15	7.07	6.37	-0.09739999	-0.3777	-0.266	
-0.157746	0.89365	0.419192	-4.97	11.83	9.31	-0.1033	-0.3761	-0.2839	
-0.161406	0.89243	0.418216	-3.5	14.07	11.2	-0.0989	-0.3793	-0.2854	
-0.13359	0.891454	0.439322	-4.55	18.83	13.44	-0.0975	-0.3731	-0.2735	
-0.127612	0.904996	0.426512	-4.97	24.92	15.12	-0.0989	-0.3777	-0.2779	
-0.12871	0.91866	0.416752	-2.31	29.96	16.03	-0.0945	-0.3747	-0.2869	
-0.131638	0.906338	0.419192	0.42	38.01	16.45	-0.0901	-0.3778	-0.2884	
-0.106994	0.901824	0.439322	-1.54	47.25	19.6	-0.0887	-0.3686	-0.2854	
-0.091866	0.915122	0.423828	1.61	53.83	20.37	-0.0828	-0.3733	-0.2839	
-0.075762	0.924516	0.399062	0.21	61.11	23.31	-0.0858	-0.3733	-0.2943	
-0.053436	0.934764	0.416386	0	70.49	25.76	-0.0828	-0.3764	-0.3003	
-0.050752	0.949648	0.388936	-3.08	76.09	29.68	-0.0698	-0.3626	-0.2928	
-0.07515199	0.952454	0.37759	-6.93	82.11	33.81	-0.0696	-0.3766	-0.2988	
-0.061244	0.933422	0.38796	-13.23	94.5	38.78	-0.0713	-0.3642	-0.3047	
-0.051362	0.948062	0.359412	-15.68	99.26	40.18	-0.0639	-0.3689	-0.3047	
-0.049288	0.969534	0.342454	-17.57	104.44	41.58	-0.064	-0.3612	-0.3077	
-0.054778	0.967704	0.355264	-21	111.23	41.51	-0.0508	-0.3598	-0.3047	
-0.064904	0.9821	0.33123	-24.64	118.37	43.47	-0.0435	-0.3553	-0.3076	
-0.078812	0.988322	0.30317	-31.78	125.16	46.13	-0.0304	-0.3477	-0.3195	
-0.076494	0.969412	0.304268	-37.1	129.57	48.09	-0.0246	-0.3493	-0.318	
-0.060756	0.981124	0.313784	-33.04	128.52	50.05	-0.0012	-0.3465	-0.3269	
-0.064294	0.999424	0.2989	-36.96	134.12	52.57	-0.0013	-0.3326	-0.3239	
-0.075762	0.960506	0.3111	-39.55	137.48	55.37	0.0119	-0.3436	-0.3328	
-0.069296	0.936472	0.293288	-44.45	147.28	59.99	0.0161	-0.3251	-0.3343	
-0.089182	0.952698	0.241926	-42.7	144.83	62.44	0.019	-0.3251	-0.3343	
-0.139324	0.991006	0.261934	-39.9	149.1	63.77	0.0381	-0.33	-0.3372	
-0.171532	0.963678	0.272304	-46.2	153.65	66.29	0.0556	-0.321	-0.3401	
-0.166408	0.97478	0.280356	-44.03	147.49	67.97	0.0687	-0.3118	-0.3416	
-0.179706	1.017236	0.272426	-46.13	146.65	66.15	0.0775	-0.3104	-0.3445	
-0.194224	0.991738	0.246074	-55.65	144.41	68.88	0.0935	-0.3075	-0.343	
-0.209596	0.96075	0.251686	-61.81	140.91	71.47	0.1052	-0.2984	-0.3445	
-0.230702	0.94977	0.29341	-53.9	133.35	74.13	0.1124	-0.2923	-0.3385	
-0.244732	0.975512	0.326106	-45.85	124.67	75.25	0.1212	-0.2908	-0.3384	
-0.219234	0.95099	0.32147	-42.07	117.88	76.72	0.1285	-0.2848	-0.3429	
-0.217282	0.945988	0.345626	-36.26	113.47	75.95	0.1269	-0.2739	-0.3399	
-0.20923	0.922808	0.368806	-35.77	108.29	73.64	0.1461	-0.2834	-0.3369	
-0.226066	0.937082	0.33489	-36.96	109.97	68.81	0.1549	-0.2881	-0.322	
-0.246928	0.933544	0.335866	-33.32	101.85	64.61	0.1623	-0.2913	-0.3264	
-0.213134	0.922442	0.365634	-23.66	91.28	60.83	0.1607	-0.282	-0.3219	
-0.235338	0.910486	0.366244	-21.63	85.33	55.02	0.1755	-0.2869	-0.3234	
-0.22082	0.909998	0.380396	-18.69	79.87	51.45	0.1828	-0.2823	-0.3129	
-0.24095	0.926224	0.352702	-15.05	73.99	45.43	0.1711	-0.2899	-0.3174	
-0.22204	0.92842	0.354654	-13.3	63.63	39.2	0.1814	-0.2931	-0.3129	
-0.22875	0.933666	0.377712	-16.52	59.36	34.93	0.1843	-0.287	-0.3174	
-0.218136	0.945256	0.35014	-14.7	54.25	30.73	0.1932	-0.2948	-0.3055	
-0.223748	0.923296	0.352336	-16.45	46.83	24.99	0.1888	-0.2947	-0.304	
-0.215818	0.892064	0.391864	-16.87	39.06	22.4	0.1903	-0.2932	-0.2905	
-0.20008	0.905484	0.385642	-13.86	34.58	20.23	0.1902	-0.2916	-0.301	
-0.189222	0.909754	0.388082	-9.31	25.55	18.76	0.1962	-0.2979	-0.2995	
-0.16775	0.914024	0.391742	-8.89	20.44	15.47	0.1947	-0.2932	-0.2876	
-0.182146	0.892674	0.39711	-8.54	15.82	13.51	0.2093	-0.2965	-0.3054	
-0.183488	0.891698	0.390278	-9.87	12.74	10.71	0.2034	-0.2903	-0.3039	
-0.194834	0.879986	0.405162	-10.5	8.54	7.21	0.2019	-0.2841	-0.3039	
-0.179096	0.87352	0.402112	-11.9	4.2	5.95	0.2107	-0.2934	-0.3084	
-0.181414	0.879986	0.409798	-7.42	-3.29	2.17	0.202	-0.2918	-0.295	
-0.168238	0.885842	0.42517	-3.36	-7.56	-0.77	0.2078	-0.2903	-0.3024	
-0.18788	0.883036	0.427366	-4.13	-9.52	-3.85	0.202	-0.2933	-0.3069	
-0.174582	0.883158	0.453718	-4.34	-13.72	-5.46	0.2005	-0.2902	-0.3054	
-0.158112	0.903532	0.450424	0.49	-16.1	-7.98	0.2034	-0.2918	-0.3069	
-0.152134	0.898774	0.458476	4.06	-16.03	-13.23	0.1916	-0.2901	-0.3189	
-0.168604	0.894016	0.445788	4.55	-14.07	-17.99	0.2004	-0.2871	-0.3024	
-0.188368	0.884378	0.458964	8.61	-15.75	-22.47	0.2033	-0.2841	-0.3099	
-0.197518	0.884256	0.462014	12.81	-17.15	-27.44	0.2018	-0.2825	-0.3114	
-0.192028	0.882914	0.449082	16.17	-22.96	-29.33	0.1944	-0.2762	-0.301	
-0.198006	0.87718	0.419558	18.62	-27.3	-32.69	0.2004	-0.2902	-0.3084	
-0.242048	0.87169	0.403942	21	-33.25	-34.93	0.196	-0.2871	-0.3099	
-0.363926	0.899018	0.364902	20.79	-40.25	-34.51	0.2019	-0.2856	-0.298	
-0.227286	0.911584	0.37088	32.62	-51.31	-33.32	0.1929	-0.2747	-0.3054	
-0.206058	0.912926	0.362828	19.04	-54.74	-34.51	0.1945	-0.2793	-0.2965	
-0.231312	0.945622	0.357094	27.93	-59.29	-38.01	0.1902	-0.2886	-0.3114	
-0.256932	0.936106	0.333792	20.02	-65.87	-40.18	0.1858	-0.2885	-0.3144	
-0.24888	0.928664	0.33733	20.3	-72.45	-42.84	0.1797	-0.2761	-0.3219	
-0.229116	0.930738	0.317322	25.06	-80.64	-44.31	0.174	-0.2899	-0.3189	
-0.215086	0.943304	0.319274	24.36	-85.47	-46.83	0.1666	-0.2821	-0.3309	
-0.250588	0.94306	0.301462	28.35	-93.59	-50.12	0.1564	-0.2866	-0.3309	
-0.213744	0.954772	0.318176	36.68	-106.82	-53.13	0.1477	-0.2911	-0.322	
-0.174582	0.936228	0.319762	36.47	-112.21	-55.16	0.1519	-0.2804	-0.3354	
-0.18544	0.921222	0.31049	32.97	-114.45	-56.21	0.1358	-0.2864	-0.3384	
-0.158356	0.926834	0.299022	37.87	-120.68	-58.66	0.13	-0.2894	-0.3369	
-0.1708	0.949648	0.311954	41.58	-125.86	-56.91	0.1242	-0.2924	-0.337	
-0.16287	0.968314	0.320616	38.15	-126.91	-53.13	0.1023	-0.2999	-0.3415	
-0.183976	0.96258	0.309392	35.42	-126.07	-52.15	0.0935	-0.3029	-0.3415	
-0.166408	0.95465	0.302194	38.64	-130.62	-52.64	0.0818	-0.3043	-0.346	
-0.132736	0.955748	0.317932	34.86	-136.99	-52.01	0.0759	-0.3011	-0.3371	
-0.107726	0.959408	0.33306	36.47	-134.4	-53.2	0.0495	-0.3039	-0.3386	
-0.08113	0.96258	0.3172	27.02	-129.01	-50.96	0.0496	-0.3132	-0.3416	
-0.06466	1.001132	0.305976	35.56	-135.03	-53.9	0.0394	-0.3192	-0.3417	
-0.08601	0.984296	0.326594	33.95	-128.59	-52.15	0.0278	-0.3222	-0.3402	
-0.053558	0.964532	0.339038	24.08	-123.69	-49.07	0.0189	-0.3205	-0.3387	
-0.017202	1.002962	0.35075	30.52	-124.95	-52.92	0.0176	-0.3328	-0.3343	
-0.051728	1.006988	0.348066	25.2	-116.83	-53.48	0.0029	-0.3296	-0.3358	
-0.069174	0.99491	0.327204	23.87	-111.58	-51.45	-0.0072	-0.331	-0.3403	
-0.05856	1.010038	0.357094	20.3	-107.52	-51.31	-0.0145	-0.334	-0.3269	
-0.057828	1.036634	0.388082	21.63	-103.6	-55.37	-0.0218	-0.3385	-0.3299	
-0.096258	0.977952	0.379542	8.26	-98.56	-54.46	-0.0261	-0.3385	-0.321	
-0.066246	0.941352	0.37881	16.38	-109.06	-51.24	-0.0334	-0.3461	-0.3195	
-0.04758	0.942328	0.38979	18.62	-102.48	-54.18	-0.0437	-0.3429	-0.318	
-0.063684	0.92842	0.382836	18.62	-91.35	-56.7	-0.0509	-0.3552	-0.3121	
-0.089304	0.906216	0.37515	13.51	-88.48	-52.29	-0.0523	-0.3567	-0.3091	
-0.083082	0.885354	0.398208	16.38	-87.01	-46.83	-0.0538	-0.3536	-0.3047	
-0.07991	0.881572	0.407968	16.24	-81.97	-43.82	-0.0698	-0.3642	-0.3092	
-0.094306	0.887428	0.39894	12.81	-73.5	-37.73	-0.0654	-0.3596	-0.3032	
-0.100772	0.88938	0.401502	11.69	-70.98	-33.11	-0.0698	-0.3611	-0.2972	
-0.096746	0.879498	0.432002	10.85	-68.11	-28.84	-0.0785	-0.3687	-0.2928	
-0.070638	0.876204	0.446154	9.52	-61.32	-26.32	-0.0742	-0.3641	-0.2898	
-0.09467199	0.896944	0.432246	10.08	-52.85	-23.17	-0.08	-0.361	-0.2868	
-0.089304	0.885476	0.426268	6.58	-44.59	-20.44	-0.0873	-0.3655	-0.2824	
-0.122	0.891698	0.437004	3.15	-38.29	-15.19	-0.0843	-0.3733	-0.2913	
-0.106018	0.894748	0.434808	3.71	-28.84	-12.46	-0.0828	-0.3779	-0.2809	
-0.151646	0.883158	0.410042	-2.52	-22.47	-9.8	-0.0872	-0.3748	-0.2943	
-0.162504	0.892064	0.436394	0.07	-20.16	-7.91	-0.0799	-0.3733	-0.2913	
-0.143228	0.883036	0.444446	-3.01	-14.63	-5.81	-0.0962	-0.3608	-0.2958	
-0.152744	0.886086	0.431758	-0.91	-7.91	-5.74	-0.0903	-0.3655	-0.2854	
-0.174582	0.889136	0.40443	-0.84	-6.37	-3.57	-0.0815	-0.3656	-0.2839	
-0.175924	0.889624	0.415044	-0.98	-6.16	-1.4	-0.096	-0.3793	-0.2899	
-0.168238	0.874496	0.429928	-0.91	-2.38	-0.35	-0.08419999	-0.3764	-0.2779	
-0.160064	0.889868	0.414312	-2.1	2.52	2.38	-0.0932	-0.3655	-0.2943	
-0.16592	0.896334	0.407602	-1.75	4.9	4.34	-0.0931	-0.3747	-0.2839	
-0.160552	0.890234	0.41724	-3.15	7	7.49	-0.0931	-0.3716	-0.2913	
-0.153476	0.89914	0.429562	-2.17	10.15	9.38	-0.0976	-0.3654	-0.2973	
-0.136518	0.892918	0.437614	-2.38	14.63	10.85	-0.0976	-0.3669	-0.2928	
-0.11712	0.904752	0.430538	-1.54	19.46	11.76	-0.0961	-0.3685	-0.2899	
-0.117486	0.90097	0.424682	-1.19	26.18	12.39	-0.0961	-0.3685	-0.2839	
-0.11041	0.89975	0.434076	-1.82	32.69	15.47	-0.0902	-0.3717	-0.2958	
-0.098088	0.90341	0.437126	-0.42	39.97	17.36	-0.0992	-0.3561	-0.2913	
-0.079422	0.896212	0.448716	0.77	46.34	20.72	-0.0889	-0.3609	-0.2943	
-0.052826	0.91073	0.457012	3.15	56.35	21.63	-0.0755	-0.3734	-0.2898	
-0.043188	0.938546	0.419192	-0.07	67.2	24.08	-0.0785	-0.3687	-0.2868	
-0.048678	0.93818	0.393206	-4.27	71.4	28.84	-0.0771	-0.3626	-0.3002	
-0.055876	0.938912	0.390034	-8.47	81.62	32.13	-0.0727	-0.3642	-0.3077	
-0.056364	0.941962	0.357094	-14.35	90.02	34.3	-0.0698	-0.3642	-0.2987	
-0.081862	0.973438	0.3477	-15.19	94.64	37.24	-0.0655	-0.355	-0.3077	
-0.075884	0.960628	0.377712	-20.09	102.9	41.72	-0.0493	-0.3614	-0.3121	
-0.05734	0.976122	0.369538	-21.56	108.5	42.63	-0.0348	-0.3507	-0.3061	
-0.05063	0.981734	0.328912	-26.74	113.96	45.01	-0.026	-0.3462	-0.312	
-0.061732	0.981612	0.314638	-29.96	119.7	47.46	-0.0245	-0.3555	-0.327	
-0.069052	0.975634	0.300852	-33.25	123.9	51.17	-0.0159	-0.3402	-0.3269	
-0.062464	0.96563	0.302804	-36.61	133.07	53.13	-0.0042	-0.3372	-0.3373	
-0.066612	0.972462	0.288408	-40.67	136.15	55.3	-0.0043	-0.3264	-0.3343	
-0.060024	0.97966	0.288042	-42.28	136.64	60.13	0.0145	-0.3189	-0.3388	
-0.075518	0.988078	0.276696	-43.82	141.75	62.44	0.0218	-0.3144	-0.3462	
-0.119194	0.97356	0.275598	-48.72	149.17	64.61	0.0365	-0.3176	-0.3432	
-0.130052	0.948672	0.30195	-46.2	149.52	68.18	0.0437	-0.3038	-0.3387	
-0.110288	0.97112	0.312198	-47.32	146.86	69.65	0.0555	-0.3132	-0.3446	
-0.122976	0.99308	0.27511	-49.42	144.76	71.61	0.0715	-0.3011	-0.3431	
-0.160308	1.011624	0.26047	-53.2	147.42	71.68	0.0803	-0.3012	-0.346	
-0.20496	0.961238	0.260836	-62.72	146.79	75.95	0.1022	-0.2984	-0.3579	
-0.220088	0.950258	0.28426	-60.55	140.14	78.96	0.1022	-0.2953	-0.3519	
-0.246928	0.934764	0.332572	-56.91	131.74	82.46	0.1211	-0.28	-0.3504	
-0.288042	0.933666	0.357094	-50.12	120.19	81.27	0.1387	-0.2818	-0.3459	
-0.246928	0.933788	0.358924	-45.71	110.32	80.99	0.1269	-0.2739	-0.3474	
-0.221186	0.922198	0.350506	-47.95	111.44	80.08	0.1327	-0.2694	-0.3429	
-0.238632	0.924638	0.370392	-41.65	101.29	76.79	0.1518	-0.2727	-0.3369	
-0.230702	0.912926	0.404674	-35.28	93.1	72.73	0.1532	-0.2712	-0.3398	
-0.166042	0.886696	0.41236	-33.74	93.8	68.18	0.1489	-0.2726	-0.3413	
-0.204716	0.880718	0.406016	-35.07	93.66	64.12	0.1606	-0.2697	-0.3383	
-0.202398	0.888892	0.438834	-24.08	80.43	62.51	0.1649	-0.2667	-0.3323	
-0.174338	0.886086	0.428708	-27.16	82.04	58.94	0.1708	-0.2683	-0.3338	
-0.228872	0.891454	0.382592	-29.89	79.94	52.92	0.1827	-0.2761	-0.3219	
-0.235948	0.897432	0.374906	-24.99	70.14	45.92	0.1767	-0.2699	-0.3323	
-0.237656	0.881572	0.429806	-20.37	60.69	40.11	0.1826	-0.2699	-0.3219	
-0.241316	0.88023	0.435052	-21.28	52.85	37.17	0.187	-0.2669	-0.3219	
-0.216916	0.890356	0.413214	-18.97	44.8	34.02	0.1871	-0.2762	-0.3174	
-0.25315	0.898896	0.442128	-11.83	32.83	26.32	0.1886	-0.2808	-0.3084	
-0.210938	0.859612	0.469944	-12.74	25.48	20.23	0.1871	-0.2793	-0.3174	
-0.213988	0.882548	0.457988	-10.99	20.3	18.2	0.1886	-0.2777	-0.3174	
-0.199958	0.880962	0.449204	-7.7	13.44	13.93	0.2061	-0.2733	-0.3114	
-0.170678	0.861808	0.483974	-6.58	5.6	9.8	0.2017	-0.2779	-0.3188	
-0.129686	0.845826	0.489586	-1.89	4.27	6.37	0.206	-0.2656	-0.3143	
-0.164822	0.840092	0.461648	-8.89	2.59	4.13	0.1987	-0.2701	-0.3173	
-0.160552	0.842776	0.48556	-1.89	-5.39	1.61	0.1914	-0.2716	-0.3144	
-0.14457	0.843752	0.506544	0	-7	0	0.1958	-0.2701	-0.3159	
-0.144814	0.839848	0.508496	3.57	-8.05	-2.03	0.1914	-0.2716	-0.3204	
-0.137616	0.84302	0.517524	5.32	-9.17	-4.76	0.1958	-0.2716	-0.3203	
-0.14579	0.851072	0.4941	7.07	-9.03	-7.77	0.1944	-0.2763	-0.3099	
-0.15616	0.854732	0.499468	8.75	-10.78	-10.71	0.1944	-0.2732	-0.3189	
-0.165676	0.855586	0.51118	12.18	-13.23	-14.49	0.1901	-0.2855	-0.3144	
-0.176412	0.864492	0.502762	14.28	-14	-18.13	0.1959	-0.2747	-0.3114	
-0.183976	0.869128	0.479216	12.88	-16.59	-20.93	0.1886	-0.2777	-0.3069	
-0.20191	0.887916	0.457744	16.38	-22.47	-26.95	0.1915	-0.2778	-0.3144	
-0.244488	0.887672	0.417362	13.37	-24.71	-34.23	0.1929	-0.2747	-0.3189	
-0.29158	0.898286	0.415044	15.82	-33.18	-40.39	0.1959	-0.2778	-0.3144	
-0.238998	0.890966	0.416996	16.03	-45.71	-35.28	0.1944	-0.2732	-0.3233	
-0.238632	0.921344	0.43127	18.55	-51.59	-38.78	0.1987	-0.2701	-0.3144	
-0.19947	0.909998	0.38735	21.14	-54.04	-43.26	0.1898	-0.2608	-0.3203	
-0.203008	0.894382	0.38979	19.6	-60.69	-45.36	0.1827	-0.2777	-0.3308	
-0.192638	0.894626	0.361974	19.6	-66.29	-46.9	0.1768	-0.2807	-0.3398	
-0.22875	0.894748	0.337452	25.83	-74.9	-48.79	0.1796	-0.2684	-0.3219	
-0.244122	0.889746	0.312076	26.25	-84.07	-48.3	0.1767	-0.2699	-0.3308	
-0.232288	0.894382	0.341112	30.45	-96.25	-48.09	0.1737	-0.2637	-0.3368	
-0.21472	0.91561	0.357826	34.72	-103.81	-48.72	0.1607	-0.2805	-0.3413	
-0.178852	0.95587	0.34648	43.96	-113.68	-51.87	0.1517	-0.268	-0.3369	
-0.123586	0.966972	0.347212	49.07	-121.59	-53.9	0.1474	-0.2726	-0.3473	
-0.12932	0.95221	0.315004	35	-116.13	-55.51	0.127	-0.2801	-0.3384	
-0.17995	0.952698	0.290604	34.3	-119.91	-54.88	0.1122	-0.2738	-0.3474	
-0.173118	0.964776	0.303048	39.41	-135.31	-54.46	0.0991	-0.2813	-0.343	
-0.11041	0.965752	0.302438	35.91	-139.86	-55.09	0.08899999	-0.2951	-0.3549	
-0.096502	0.965752	0.28975	30.31	-140.14	-56.98	0.0729	-0.298	-0.355	
-0.103334	0.981002	0.312076	32.27	-146.23	-58.38	0.0464	-0.2931	-0.3521	
-0.08174	0.997472	0.309148	36.82	-147.91	-61.04	0.0466	-0.3023	-0.3491	
-0.085034	1.012722	0.30622	33.39	-143.99	-63.35	0.0349	-0.3068	-0.3521	
-0.06771	1.007598	0.291092	29.82	-147.35	-66.08	0.0173	-0.305	-0.3417	
-0.032818	0.995154	0.334524	33.95	-153.51	-69.02	0.0056	-0.3111	-0.3477	
0.043188	1.009428	0.352336	40.53	-152.88	-71.61	-0.003	-0.3218	-0.3492	
0.015372	1.02602	0.362218	29.82	-137.69	-71.68	-0.0074	-0.3187	-0.3463	
-0.009638	1.024068	0.347212	29.89	-143.92	-68.95	-0.0161	-0.3247	-0.3359	
0.04575	1.013698	0.354288	30.52	-144.62	-67.9	-0.0321	-0.3307	-0.3359	
0.0244	1.003084	0.373686	24.85	-136.85	-66.01	-0.0293	-0.3277	-0.3419	
0.001098	0.996496	0.381738	27.65	-131.67	-68.18	-0.0526	-0.3304	-0.3225	
0.004148	0.971242	0.397476	23.52	-121.17	-68.67	-0.0671	-0.3426	-0.3196	
0.011224	0.96868	0.39406	24.57	-114.66	-66.71	-0.0642	-0.3411	-0.3255	
-0.003904	0.943426	0.383568	22.54	-108.43	-63.14	-0.067	-0.3503	-0.3062	
0.009028	0.914756	0.385398	19.39	-102.06	-58.66	-0.0773	-0.3549	-0.3137	
0.007686	0.89365	0.415898	16.66	-94.78	-52.78	-0.0845	-0.3625	-0.3018	
0.014762	0.898042	0.403942	18.9	-88.27	-49.21	-0.0845	-0.3578	-0.2988	
-0.026352	0.890844	0.400648	13.72	-80.22	-45.43	-0.0859	-0.3686	-0.3003	
-0.03904	0.86803	0.421144	12.04	-75.32	-38.36	-0.0932	-0.3639	-0.2913	
-0.01098	0.838628	0.440664	11.55	-71.89	-31.36	-0.0962	-0.3608	-0.2988	
0.010614	0.856196	0.479948	14.56	-60.34	-29.75	-0.0961	-0.3685	-0.2899	
-0.05978	0.88084	0.428708	6.16	-48.37	-23.59	-0.1064	-0.3668	-0.2869	
-0.05002	0.913414	0.43432	7.42	-42.7	-18.27	-0.1078	-0.3684	-0.2809	
-0.06527	0.903044	0.425536	0.28	-33.74	-12.53	-0.1137	-0.3683	-0.281	
-0.078934	0.89914	0.434564	-1.33	-26.25	-9.24	-0.1019	-0.3715	-0.2809	
-0.092842	0.903898	0.419558	-3.99	-18.48	-7.63	-0.1078	-0.3684	-0.278	
-0.11102	0.904996	0.413092	-4.83	-13.16	-5.46	-0.1078	-0.3653	-0.272	
-0.134566	0.921466	0.41053	-2.66	-10.64	-3.85	-0.1077	-0.3699	-0.2675	
-0.121878	0.879498	0.4087	-3.64	-5.81	-1.33	-0.1195	-0.3698	-0.284	
-0.14213	0.904752	0.41175	0.77	-2.73	-1.19	-0.1165	-0.3775	-0.2765	
-0.134932	0.903166	0.396866	-0.98	0.84	0.49	-0.1121	-0.3776	-0.2825	
-0.161162	0.928298	0.379786	0.63	0.98	1.47	-0.1107	-0.373	-0.281	
-0.14945	0.909388	0.401258	-0.35	0.77	2.24	-0.1122	-0.3667	-0.266	
-0.134566	0.901702	0.4026	-2.73	4.76	2.17	-0.1033	-0.3715	-0.2705	
-0.146156	0.90219	0.401624	-3.08	8.47	2.52	-0.1135	-0.3806	-0.2735	
-0.145058	0.90036	0.403942	-2.45	10.36	4.48	-0.1092	-0.373	-0.272	
-0.125294	0.895602	0.418094	-2.45	12.39	6.3	-0.1078	-0.3699	-0.275	
-0.112362	0.894382	0.418704	-4.41	17.29	9.17	-0.1122	-0.3729	-0.2884	
-0.111752	0.899994	0.40748	-3.01	21.84	10.85	-0.102	-0.3653	-0.2809	
-0.113094	0.89365	0.411994	-0.7	28	12.11	-0.1049	-0.3668	-0.2824	
-0.112728	0.892552	0.41846	-0.7	32.2	14.7	-0.1034	-0.3653	-0.275	
-0.09857599	0.875716	0.41663	-1.12	37.31	17.57	-0.1019	-0.37	-0.2794	
-0.088816	0.892552	0.400892	1.19	41.51	18.69	-0.1005	-0.3638	-0.2839	
-0.090402	0.893894	0.419192	0.49	47.88	23.31	-0.1005	-0.3638	-0.2809	
-0.064172	0.914268	0.397354	-0.63	54.46	26.95	-0.1005	-0.37	-0.2914	
-0.078324	0.960384	0.359534	-4.55	61.39	30.24	-0.0946	-0.3716	-0.2943	
-0.082472	0.924272	0.3721	-11.48	64.82	34.16	-0.0962	-0.3592	-0.2958	
-0.083814	0.931958	0.37515	-14.35	71.89	36.54	-0.0933	-0.3562	-0.2943	
-0.108336	0.95038	0.376004	-15.68	75.11	38.78	-0.0829	-0.3671	-0.2898	
-0.08967	0.918782	0.386252	-20.86	77	44.17	-0.0815	-0.3625	-0.3047	
-0.069296	0.938912	0.328058	-21.21	77	45.01	-0.0786	-0.3595	-0.2958	
-0.10126	0.96075	0.33184	-23.03	80.22	44.94	-0.0817	-0.3502	-0.3122	
-0.112118	0.939522	0.387594	-26.25	83.65	44.87	-0.07	-0.3472	-0.3092	
-0.059902	0.933056	0.409554	-22.82	82.88	44.87	-0.07	-0.3457	-0.3211	
-0.021716	0.955992	0.362828	-25.2	89.18	46.34	-0.0657	-0.3427	-0.327	
-0.063684	0.960262	0.345992	-26.32	91.98	45.71	-0.0554	-0.3428	-0.327	
-0.076006	0.940864	0.369294	-29.05	95.76	49.35	-0.0526	-0.3351	-0.3225	
-0.080154	0.93269	0.373076	-27.51	91	49.56	-0.0424	-0.3306	-0.3314	
-0.065392	0.947574	0.359168	-24.57	92.19	51.94	-0.0454	-0.3244	-0.3508	
-0.072346	0.943182	0.351482	-27.79	91.77	52.99	-0.0265	-0.3138	-0.3418	
-0.060878	0.936472	0.333792	-26.32	86.8	54.11	-0.0192	-0.3093	-0.3523	
-0.07515199	0.926346	0.342576	-30.1	88.06	55.86	-0.0089	-0.314	-0.3522	
-0.092964	0.92049	0.346358	-31.01	88.48	57.33	-0.0221	-0.3185	-0.3538	
-0.100894	0.914512	0.36722	-31.92	84.84	58.8	-0.0046	-0.311	-0.3597	
-0.095404	0.928786	0.385032	-33.11	81.83	60.2	0.0055	-0.3034	-0.3596	
-0.091988	0.920002	0.36783	-34.65	80.01	60.69	0.0039	-0.2941	-0.3671	
-0.137372	0.98332	0.359412	-17.5	66.01	56.28	0.0009	-0.2848	-0.3671	
-0.168116	0.961482	0.396622	-27.16	62.79	54.88	0.0096	-0.2787	-0.3686	
-0.152012	0.929152	0.39955	-31.92	58.87	53.55	0.0126	-0.2849	-0.3686	
-0.121024	0.950258	0.40382	-30.66	54.11	50.54	0.0273	-0.2867	-0.3715	
-0.130052	0.948794	0.411994	-25.83	48.16	43.4	0.0169	-0.2742	-0.373	
-0.150426	0.946354	0.404064	-26.18	43.26	38.01	0.0257	-0.2743	-0.3685	
-0.176168	0.972584	0.393938	-22.82	37.1	29.75	0.0213	-0.2742	-0.376	
-0.202398	0.954772	0.416752	-21.21	26.04	22.19	0.0284	-0.2589	-0.3745	
-0.173606	0.927444	0.435906	-20.23	20.51	15.89	0.0255	-0.265	-0.3774	
-0.183732	0.927688	0.443592	-17.57	11.48	7.28	0.0211	-0.2603	-0.3775	
-0.184098	0.930372	0.465064	-13.65	3.29	1.96	0.0239	-0.2542	-0.3819	
-0.172264	0.911096	0.469578	-10.01	-1.96	-5.53	0.0181	-0.2557	-0.3789	
-0.17019	0.914634	0.473848	-5.88	-7.21	-11.13	0.0284	-0.2573	-0.3879	
-0.163236	0.893772	0.477874	-3.64	-11.97	-17.5	0.0327	-0.2512	-0.3849	
-0.162138	0.88145	0.478362	-2.73	-13.72	-22.68	0.0196	-0.2619	-0.3879	
-0.157868	0.884012	0.483608	-4.27	-17.36	-24.92	0.0255	-0.2589	-0.3864	
-0.170312	0.889746	0.49227	-2.66	-26.81	-24.5	0.0459	-0.2529	-0.3968	
-0.086742	0.847046	0.495442	1.33	-29.47	-29.05	0.0327	-0.2543	-0.3908	
-0.06832	0.838262	0.508984	0.14	-32.06	-29.82	0.0282	-0.245	-0.3894	
-0.06466	0.847046	0.515206	4.41	-31.78	-29.47	0.0253	-0.2496	-0.3864	
-0.091012	0.841434	0.513132	-1.26	-30.1	-26.32	0.024	-0.2573	-0.3864	
-0.099064	0.836676	0.513864	0.49	-29.61	-24.99	0.0078	-0.2509	-0.3879	
-0.08662	0.836188	0.518744	-0.35	-30.66	-24.08	0.0107	-0.2494	-0.3939	
-0.086376	0.836432	0.520696	-0.21	-32.41	-22.05	0.0122	-0.2556	-0.3924	
-0.080154	0.830454	0.529724	3.71	-31.85	-20.02	0.0049	-0.254	-0.3879	
-0.085034	0.824476	0.533384	4.76	-32.69	-18.62	0.0108	-0.2571	-0.3909	
-0.100772	0.815082	0.52643	4.62	-32.13	-16.66	0.0063	-0.2463	-0.3805	
-0.096258	0.822646	0.531676	5.95	-33.32	-14.14	-0.0008	-0.2616	-0.376	
-0.08479	0.84119	0.531798	6.02	-34.93	-12.25	-0.0009	-0.2555	-0.3954	
-0.073688	0.84729	0.549488	6.09	-35.7	-10.57	-0.0082	-0.2569	-0.379	
-0.057584	0.852048	0.563396	6.23	-34.65	-9.52	-0.0126	-0.2569	-0.388	
-0.040626	0.842776	0.567056	4.83	-31.22	-8.68	-0.0198	-0.2629	-0.3865	
-0.029036	0.830698	0.566324	2.59	-26.04	-7.98	-0.0183	-0.2676	-0.3835	
-0.03721	0.830698	0.556808	0.7	-18.97	-7.98	-0.0184	-0.2645	-0.385	
-0.040992	0.840946	0.550952	-0.35	-15.75	-6.44	-0.0184	-0.263	-0.385	
-0.068198	0.846192	0.52948	-4.2	-11.41	-6.02	-0.0126	-0.2553	-0.3835	
-0.072102	0.850584	0.524966	-4.34	-12.95	-5.39	-0.0258	-0.2551	-0.3776	
-0.065392	0.848632	0.528382	-3.57	-12.67	-6.44	-0.02	-0.2506	-0.3776	
-0.064538	0.839726	0.541436	-3.92	-12.46	-6.93	-0.0257	-0.2598	-0.3835	
-0.059292	0.843752	0.553636	-3.01	-12.46	-7.42	-0.0257	-0.2613	-0.3865	
-0.043676	0.82899	0.555466	-7	-9.87	-7.49	-0.0258	-0.2521	-0.388	
-0.026718	0.824232	0.572912	-6.51	-9.31	-6.09	-0.0286	-0.2659	-0.3776	
-0.016958	0.819596	0.579988	-6.86	-5.32	-5.18	-0.0257	-0.2613	-0.388	
-0.007076	0.814472	0.58865	-6.72	-2.45	-3.57	-0.0288	-0.2505	-0.3835	
-0.016592	0.81191	0.583038	-6.23	1.75	-2.24	-0.0331	-0.2551	-0.391	
-0.033184	0.819108	0.57035	-5.18	4.27	0	-0.0272	-0.2567	-0.3806	
-0.051606	0.82411	0.561688	-5.46	5.95	1.82	-0.0273	-0.2505	-0.3895	
-0.053314	0.825574	0.557906	-4.34	6.44	2.45	-0.0274	-0.2428	-0.3835	
-0.056242	0.822036	0.555222	-3.43	6.72	2.52	-0.0288	-0.2474	-0.3925	
-0.056974	0.823744	0.552904	-2.94	5.81	2.94	-0.0317	-0.2551	-0.394	
-0.058438	0.82838	0.548268	-2.31	6.58	3.22	-0.0199	-0.2568	-0.3925	
-0.061488	0.831552	0.545706	-3.64	7.14	4.41	-0.0259	-0.2474	-0.382	
-0.06466	0.827404	0.547536	-3.85	7.35	5.04	-0.0214	-0.2583	-0.3984	
-0.064538	0.826916	0.545096	-4.2	6.79	5.46	-0.026	-0.2412	-0.394	
-0.059658	0.836554	0.54412	-5.18	6.44	5.81	-0.0303	-0.2443	-0.391	
-0.058316	0.846192	0.55022	-5.18	6.02	6.02	-0.023	-0.2475	-0.3925	
-0.066612	0.836798	0.553514	-4.48	6.79	4.69	-0.0187	-0.2367	-0.3924	
-0.072834	0.82533	0.557174	-3.99	6.09	3.43	-0.0172	-0.2429	-0.3939	
-0.068564	0.830332	0.557662	-3.43	4.41	2.59	-0.0187	-0.2352	-0.3895	
-0.060756	0.831918	0.55144	-3.01	3.15	1.4	-0.0171	-0.2475	-0.3954	
-0.063928	0.830576	0.54595	-3.22	2.45	0.77	-0.0245	-0.2459	-0.391	
-0.072712	0.825452	0.53985	-2.94	1.33	0.35	-0.0215	-0.2444	-0.388	
-0.07625	0.826916	0.546316	-1.4	-0.56	-0.14	-0.0201	-0.2429	-0.3865	
-0.078812	0.828868	0.548512	0.35	-2.66	-0.28	-0.0128	-0.2399	-0.3865	
-0.071614	0.829356	0.551318	1.75	-4.48	-0.77	-0.0274	-0.2474	-0.394	
-0.069662	0.8296	0.555832	2.73	-5.32	-1.05	-0.0274	-0.2443	-0.3999	
-0.062098	0.829722	0.556076	2.24	-5.81	-1.12	-0.0185	-0.2583	-0.3984	
-0.058316	0.83509	0.562298	1.26	-6.16	-1.12	-0.0215	-0.2459	-0.394	
-0.058316	0.839848	0.569008	1.75	-5.6	-1.19	-0.0201	-0.2444	-0.391	
-0.061122	0.830454	0.554856	0.98	-3.99	-2.03	-0.0288	-0.2458	-0.391	
-0.065636	0.817644	0.551928	-1.12	-4.13	-1.89	-0.0258	-0.2521	-0.382	
-0.05673	0.83265	0.553026	2.8	-5.32	-0.49	-0.023	-0.2459	-0.382	
-0.054656	0.83387	0.560102	3.43	-5.81	-0.56	-0.0348	-0.2411	-0.3955	
-0.0549	0.838872	0.55571	2.73	-5.11	-0.63	-0.0377	-0.2427	-0.3925	
-0.058804	0.840458	0.552904	0.56	-3.64	-0.98	-0.0259	-0.249	-0.3865	
-0.058804	0.838384	0.54717	-0.91	-2.8	-1.33	-0.0274	-0.2412	-0.391	
-0.060756	0.83753	0.546926	-1.12	-2.87	-1.54	-0.0303	-0.2458	-0.394	
-0.05917	0.83631	0.550464	-0.77	-3.01	-1.54	-0.0303	-0.2489	-0.3925	
-0.057218	0.833138	0.554002	-0.35	-3.36	-1.26	-0.0319	-0.2365	-0.3895	
-0.054046	0.831552	0.553026	-0.63	-3.08	-0.84	-0.0362	-0.2473	-0.394	
-0.053558	0.830576	0.553148	-1.26	-2.94	-0.56	-0.0347	-0.2489	-0.385	
-0.055998	0.832772	0.55205	-1.68	-2.45	0	-0.0391	-0.2457	-0.3955	
-0.05673	0.83448	0.55449	-1.61	-1.96	0.35	-0.0274	-0.2412	-0.3895	
-0.058682	0.832528	0.558638	-1.61	-1.4	0.42	-0.0289	-0.2381	-0.3955	
-0.060634	0.83204	0.552782	-2.1	-0.56	0.42	-0.0318	-0.2458	-0.4074	
-0.060146	0.830454	0.559004	-2.17	-0.42	0.42	-0.0362	-0.2427	-0.3955	
-0.058926	0.832162	0.560346	-2.24	0	0.7	-0.0158	-0.2367	-0.3939	
-0.055998	0.82777	0.564128	-2.94	1.19	1.4	-0.0362	-0.2442	-0.3925	
-0.053924	0.831796	0.55754	-3.43	1.54	2.03	-0.0333	-0.2427	-0.391	
-0.05307	0.83143	0.56059	-4.48	2.24	2.31	-0.0334	-0.2334	-0.3865	
-0.052094	0.82899	0.559736	-5.11	2.8	2.24	-0.0347	-0.2442	-0.3821	