Sensor string: B
Serial number: 1970-01-0000
Firmware version: 2,015
Hardware version: 2,2
Calibration quality: 5
ax	ay	az	gx	gy	gz	mx	my	mz

0.025498	-0.88328	0.416142	0.77	0	-0.91	-0.0653	0.2271	-0.3374	Reference
0.030744	-0.886086	0.421632	0.84	-0.07	-1.05	-0.0694	0.2303	-0.3357	
0.030744	-0.883768	0.42212	1.05	0.21	-1.05	-0.0792	0.2269	-0.3457	
0.02928	-0.889136	0.419192	1.12	0.35	-1.05	-0.0777	0.224	-0.341	
0.026596	-0.890478	0.422486	1.12	0	-0.84	-0.0683	0.2236	-0.3488	
0.031232	-0.888648	0.42395	1.61	0.21	-0.56	-0.0792	0.2269	-0.3441	
0.03843	-0.884744	0.434808	1.82	0.7	-0.84	-0.07099999	0.2347	-0.3419	
0.0305	-0.879254	0.426146	3.01	1.47	-1.19	-0.0806	0.2238	-0.3458	
0.030012	-0.874862	0.424804	2.94	0.7	-1.47	-0.0835	0.2218	-0.3556	
0.038552	-0.871568	0.434076	3.08	1.68	-1.54	-0.0736	0.2225	-0.3393	
0.048922	-0.867176	0.42517	3.57	1.26	-2.17	-0.0709	0.2253	-0.3439	
0.047336	-0.864614	0.440054	3.01	1.05	-2.38	-0.075	0.2223	-0.3426	
0.03721	-0.869494	0.437248	2.8	1.33	-2.03	-0.0749	0.2304	-0.3342	
0.034282	-0.865834	0.433832	1.68	0.91	-1.19	-0.0722	0.2194	-0.3379	
0.033794	-0.871202	0.43432	1.05	0.98	-0.49	-0.0752	0.2124	-0.3574	
0.028426	-0.875594	0.431636	0.56	1.12	0.14	-0.0683	0.2174	-0.349	
0.024644	-0.876692	0.429196	0.14	0.77	0.49	-0.0751	0.2238	-0.3441	
0.02074	-0.882304	0.425048	-0.07	0.28	0.77	-0.0765	0.2237	-0.3473	
0.020984	-0.885232	0.424804	-0.07	-0.07	0.84	-0.0738	0.2235	-0.3505	
0.019276	-0.886818	0.422242	0.42	-0.35	0.91	-0.0724	0.2188	-0.3523	
0.016104	-0.886818	0.415898	0.98	-0.56	1.05	-0.0696	0.2284	-0.3438	
0.022692	-0.881816	0.424072	1.47	-1.75	1.19	-0.0819	0.2222	-0.3459	
0.0244	-0.879986	0.426146	1.96	-2.38	1.05	-0.0751	0.2283	-0.3471	
0.02501	-0.879254	0.425048	2.45	-2.66	0.84	-0.0724	0.2392	-0.3449	
0.027328	-0.873032	0.43188	2.66	-3.85	0.63	-0.0777	0.2179	-0.338	
0.028548	-0.872056	0.435906	2.8	-3.43	0.84	-0.0751	0.2285	-0.3439	
0.0244	-0.872666	0.437858	2.59	-3.57	1.19	-0.0736	0.2208	-0.341	
0.032574	-0.868762	0.441152	1.96	-3.57	1.61	-0.0695	0.2176	-0.3427	
0.037454	-0.869616	0.441274	1.54	-2.87	1.61	-0.0818	0.2225	-0.3395	
0.036722	-0.870104	0.440908	1.12	-2.45	1.19	-0.0778	0.219	-0.3476	
0.035502	-0.873032	0.442372	0.91	-1.96	0.7	-0.0737	0.2269	-0.3439	
0.03599	-0.87108	0.44286	1.12	-1.47	0.42	-0.0779	0.2236	-0.349	
0.040016	-0.87169	0.444812	1.33	-0.77	0.07	-0.0766	0.2218	-0.3538	
0.041602	-0.86864	0.45018	1.54	-0.49	-0.49	-0.0792	0.2207	-0.3459	
0.045262	-0.864492	0.450058	1.68	0.28	-0.91	-0.0763	0.2132	-0.3382	
0.047946	-0.862296	0.448838	1.96	0.91	-1.26	-0.0779	0.222	-0.3506	
0.049532	-0.863638	0.452132	1.54	0.77	-1.75	-0.0722	0.2241	-0.3376	
0.040504	-0.860222	0.450668	1.26	1.19	-1.75	-0.0738	0.2173	-0.3508	
0.03782	-0.858026	0.449204	0.77	1.19	-1.26	-0.0818	0.2147	-0.3415	
0.036478	-0.856928	0.449448	0.14	1.33	-0.84	-0.0806	0.2236	-0.349	
0.027816	-0.86193	0.444934	-0.49	1.68	-0.84	-0.07099999	0.2189	-0.349	
0.028426	-0.872788	0.439932	-1.19	1.68	-0.84	-0.0751	0.2095	-0.3527	
0.030988	-0.87291	0.44408	-1.68	1.61	-0.84	-0.0725	0.225	-0.352	
0.027084	-0.871202	0.43798	-1.47	1.75	-0.84	-0.0696	0.2253	-0.3455	
0.02562	-0.873886	0.43127	-1.47	1.54	-0.77	-0.0777	0.2115	-0.3431	
0.027328	-0.874374	0.432246	-1.61	0.98	-0.56	-0.0751	0.2238	-0.3441	
0.022936	-0.873398	0.43127	-1.54	0.14	-0.35	-0.0779	0.2221	-0.349	
0.029646	-0.873886	0.432124	-1.68	-0.42	0	-0.0766	0.2172	-0.354	
0.031964	-0.874984	0.435296	-1.89	-0.84	0.28	-0.0792	0.219	-0.3492	
0.029646	-0.875716	0.43493	-1.89	-1.4	0.35	-0.0792	0.2143	-0.3494	
0.0305	-0.873764	0.426146	-1.82	-1.26	0.35	-0.0738	0.2204	-0.3506	
0.031964	-0.873276	0.424072	-1.68	-1.26	0.07	-0.075	0.2225	-0.3394	
0.041358	-0.877302	0.430782	-2.03	-2.31	-0.28	-0.07099999	0.2236	-0.3488	
0.038064	-0.874618	0.434076	-2.1	-1.33	-0.35	-0.0765	0.2189	-0.3492	
0.037698	-0.882182	0.438468	-2.66	-2.1	-0.21	-0.0696	0.2284	-0.3438	
0.03843	-0.876814	0.434808	-2.1	-1.54	0.21	-0.086	0.227	-0.3426	
0.036722	-0.877058	0.437614	-1.68	-1.68	0.42	-0.0765	0.2189	-0.3508	
0.03721	-0.8723	0.438224	-1.33	-1.33	0.56	-0.0694	0.2272	-0.3358	
0.039162	-0.871324	0.435662	-1.05	-1.05	0.42	-0.0766	0.2251	-0.3505	
0.039162	-0.871568	0.438346	-1.33	-0.56	0.28	-0.0872	0.2306	-0.3313	
0.040626	-0.87413	0.436638	-1.47	-0.14	0.28	-0.0765	0.2285	-0.3439	
0.037454	-0.879986	0.435052	-1.61	0.14	0.35	-0.0697	0.2298	-0.3485	
0.033184	-0.879864	0.432002	-1.75	0.63	0.56	-0.0914	0.2241	-0.3397	
0.03294	-0.874374	0.426634	-1.61	1.05	0.7	-0.0806	0.2254	-0.3442	
0.036234	-0.87718	0.421388	-1.75	1.12	0.49	-0.0846	0.2287	-0.3393	
0.03233	-0.879986	0.420656	-1.68	0.91	0.21	-0.0779	0.2221	-0.349	
0.030988	-0.88023	0.420778	-1.82	0.35	0.07	-0.0722	0.2226	-0.3361	
0.02989	-0.883768	0.419314	-1.82	-0.14	0.21	-0.0777	0.2241	-0.3378	
0.03538	-0.880474	0.417484	-1.54	-0.21	0.42	-0.0753	0.2326	-0.3549	
0.03721	-0.878888	0.419802	-2.31	-0.7	0.07	-0.0763	0.2273	-0.3344	
0.03477	-0.879986	0.418094	-2.87	-0.77	-0.14	-0.075	0.227	-0.3424	
0.036844	-0.885842	0.413458	-3.22	-1.54	-0.28	-0.0793	0.2392	-0.3467	
0.033672	-0.886818	0.419558	-3.01	-1.96	-0.35	-0.075	0.2224	-0.341	
0.032208	-0.885842	0.420168	-2.31	-1.47	0.07	-0.0805	0.2286	-0.3408	
0.03172	-0.889136	0.416264	-1.96	-0.98	0.35	-0.0722	0.2335	-0.334	
0.0305	-0.895236	0.417972	-1.96	-1.26	0.91	-0.0764	0.227	-0.3424	
0.027694	-0.88633	0.415654	-1.12	-0.84	1.33	-0.0738	0.2377	-0.345	
0.02867	-0.884622	0.41846	-0.91	-0.7	1.54	-0.0834	0.23	-0.3456	
0.033916	-0.88084	0.422486	-1.19	-0.49	1.19	-0.08199999	0.2409	-0.3435	
0.029646	-0.887672	0.419924	-0.91	0	0.98	-0.075	0.2254	-0.3424	
0.026962	-0.887428	0.416874	-0.28	0.28	0.63	-0.0804	0.2289	-0.3344	
0.026962	-0.878888	0.41541	0.28	0.35	0.49	-0.0818	0.2272	-0.3377	
0.032452	-0.877058	0.417728	0.21	0.07	0.42	-0.0806	0.2379	-0.3404	
0.028426	-0.878644	0.418216	0.21	0.21	0.42	-0.0818	0.2303	-0.3376	
0.035624	-0.879376	0.418338	-0.35	-0.35	0.14	-0.0724	0.2284	-0.3454	
0.03294	-0.878156	0.415654	-0.21	0.07	-0.14	-0.0763	0.2225	-0.3394	
0.032818	-0.878278	0.41602	-0.35	-0.14	-0.42	-0.0709	0.2316	-0.3421	
0.033794	-0.881816	0.417118	-0.77	-0.28	-0.49	-0.0721	0.2242	-0.3344	
0.036112	-0.882914	0.415532	-0.84	0	-0.7	-0.0762	0.2338	-0.3293	
0.034404	-0.884378	0.419314	-1.05	0.21	-0.84	-0.0819	0.2348	-0.3422	
0.02623	-0.884378	0.413702	-0.63	0.56	-0.91	-0.0709	0.2239	-0.3424	
0.02867	-0.88877	0.413092	-0.77	-0.63	-1.19	-0.0819	0.2348	-0.3422	
0.028914	-0.890112	0.406016	-0.07	0.42	-1.05	-0.075	0.2397	-0.3354	
0.030988	-0.887062	0.408578	0.07	-0.14	-1.26	-0.0777	0.2381	-0.3355	
0.033184	-0.887062	0.425048	0.07	-0.84	-1.33	-0.0763	0.2319	-0.3374	
0.034404	-0.884622	0.419802	0.49	-0.21	-0.84	-0.0819	0.227	-0.3425	
0.036112	-0.881816	0.421266	0.21	-0.42	-0.35	-0.0792	0.2286	-0.3424	
0.041968	-0.878034	0.42334	0	0	-0.07	-0.0778	0.23	-0.3439	
0.038918	-0.88084	0.423096	-0.14	0.56	0	-0.0779	0.2314	-0.3486	
0.030744	-0.884866	0.416874	0	0.98	-0.14	-0.0822	0.2296	-0.3552	
0.036112	-0.88145	0.415776	-0.35	1.12	-0.35	-0.0765	0.2331	-0.3453	
0.0427	-0.881694	0.413702	-0.42	1.47	-0.7	-0.0846	0.2241	-0.3379	
0.036478	-0.885964	0.413458	-0.56	1.89	-1.12	-0.0804	0.2305	-0.3343	
0.037698	-0.88694	0.415776	-0.49	1.33	-1.26	-0.0766	0.2312	-0.3518	
0.032452	-0.883524	0.415898	-0.28	1.96	-1.12	-0.0708	0.2227	-0.3345	
0.035258	-0.8845	0.411872	-0.07	1.96	-1.26	-0.0696	0.2394	-0.3401	
0.036356	-0.886574	0.409798	0.21	1.61	-1.33	-0.0655	0.23	-0.3436	
0.033428	-0.886086	0.415776	0.21	1.12	-1.26	-0.0777	0.2257	-0.3377	
0.027206	-0.88572	0.420412	-0.14	0.28	-1.19	-0.0764	0.2364	-0.3388	
0.034038	-0.885598	0.416264	0.07	0.28	-0.77	-0.0778	0.2253	-0.3457	
0.029402	-0.889868	0.414312	0.56	0.7	-0.35	-0.0804	0.2305	-0.3343	
0.029402	-0.88572	0.41114	0.84	0.63	-0.49	-0.07229999	0.2253	-0.3456	
0.029036	-0.882426	0.41236	0.84	-0.21	-0.42	-0.0819	0.235	-0.3374	
0.03172	-0.88511	0.414678	0.7	-0.21	-0.35	-0.0721	0.2368	-0.3307	
0.029524	-0.888526	0.411628	1.19	0.21	-0.21	-0.07229999	0.2239	-0.3408	
0.02867	-0.887916	0.404918	1.47	0.21	-0.07	-0.0751	0.2253	-0.3456	
0.031598	-0.893772	0.40565	1.4	-0.07	-0.21	-0.0749	0.2258	-0.3328	
0.028182	-0.898408	0.390156	2.17	0.49	-0.28	-0.0818	0.2319	-0.3375	
0.031598	-0.906338	0.38552	2.24	0.28	-0.35	-0.0735	0.2243	-0.3329	
0.025986	-0.909144	0.374662	3.15	0.77	-0.7	-0.0763	0.2319	-0.3374	
0.028182	-0.916342	0.365878	3.08	0.42	-0.98	-0.0762	0.2307	-0.3294	
0.027938	-0.93147	0.361242	3.22	0.35	-1.47	-0.0695	0.2303	-0.3117	
0.013908	-0.939522	0.357948	4.13	0.35	-1.61	-0.0721	0.2321	-0.3309	
-0.001098	-0.940742	0.34648	5.74	0.21	-1.47	-0.0763	0.221	-0.3379	
-0.004026	-0.937204	0.343186	7.77	-1.26	-1.61	-0.0764	0.2334	-0.3373	
0.002928	-0.93086	0.3416	10.57	-2.24	-1.82	-0.0846	0.2257	-0.3378	
0.007929999	-0.933422	0.352946	13.3	-3.43	-2.38	-0.0752	0.2251	-0.3488	
0.003782	-0.932934	0.35258	16.31	-3.36	-3.36	-0.0738	0.2236	-0.3489	
0.005124	-0.94306	0.349896	19.32	-4.69	-4.48	-0.0806	0.2206	-0.3476	
0.012566	-0.94855	0.36356	21.98	-5.6	-5.18	-0.0736	0.2146	-0.3429	
0.007686	-0.944158	0.368806	26.04	-4.34	-5.74	-0.0793	0.2173	-0.3509	
0.010126	-0.939644	0.367586	32.34	-3.99	-6.23	-0.0795	0.2153	-0.3622	
0.006466	-0.931714	0.363438	37.73	-4.27	-7.49	-0.0862	0.1968	-0.36	
0.000122	-0.91988	0.36661	43.47	-5.74	-8.47	-0.0863	0.1966	-0.3664	
0.010614	-0.899994	0.38796	49	-6.65	-9.1	-0.0932	0.1902	-0.37	
0.03233	-0.892064	0.415044	52.71	-7.28	-10.29	-0.0835	0.1809	-0.3702	
0.030622	-0.857294	0.441274	57.26	-7.28	-10.22	-0.0876	0.1748	-0.369	
0.032086	-0.842166	0.447008	59.43	-7.63	-10.01	-0.096	0.1697	-0.3806	
0.045262	-0.82777	0.45628	61.67	-8.96	-9.66	-0.0932	0.1603	-0.3809	
0.06649	-0.813496	0.474214	63.28	-10.78	-10.22	-0.0961	0.1555	-0.386	
0.075274	-0.7991	0.487512	66.64	-10.15	-11.62	-0.0892	0.1349	-0.3948	
0.058926	-0.778604	0.491416	71.96	-8.68	-13.58	-0.0948	0.1237	-0.4034	
0.056364	-0.731512	0.503982	78.33	-8.96	-15.12	-0.1031	0.1268	-0.405	
0.07625	-0.693448	0.518744	81.13	-11.2	-17.36	-0.1005	0.1124	-0.4152	
0.08052	-0.686494	0.547048	82.46	-15.61	-18.62	-0.1072	0.1002	-0.4111	
0.099186	-0.698694	0.603168	82.81	-19.81	-19.53	-0.1045	0.0814	-0.4167	
0.112606	-0.597434	0.61427	89.81	-13.93	-20.09	-0.1182	0.0548	-0.4246	
0.134688	-0.553148	0.650138	87.71	-18.48	-21.98	-0.1154	0.0391	-0.4284	
0.166408	-0.52643	0.69052	87.22	-19.67	-23.17	-0.1222	0.033	-0.4273	
0.184708	-0.532042	0.730658	87.01	-19.18	-23.73	-0.1331	0.0175	-0.4282	
0.182268	-0.538508	0.741394	88.48	-16.52	-23.52	-0.1289	0.0036	-0.4272	
0.188978	-0.506666	0.74603	89.67	-13.44	-22.75	-0.1372	-0.012	-0.4344	
0.200446	-0.448594	0.766526	89.81	-11.48	-22.47	-0.1262	-0.0387	-0.4402	
0.199958	-0.372832	0.78507	90.3	-8.54	-22.05	-0.1455	-0.0466	-0.4458	
0.20679	-0.335988	0.798124	87.22	-8.75	-22.26	-0.1343	-0.0618	-0.4382	
0.219478	-0.345626	0.831064	83.72	-13.02	-22.75	-0.1438	-0.0758	-0.4407	
0.202886	-0.326106	0.827892	85.89	-7.98	-21.63	-0.1381	-0.091	-0.4332	
0.204228	-0.274744	0.823012	86.45	-10.01	-21.56	-0.1436	-0.105	-0.4356	
0.218746	-0.226188	0.860954	85.12	-11.76	-19.6	-0.1502	-0.1075	-0.4231	
0.238266	-0.183854	0.890966	83.93	-11.83	-18.83	-0.1517	-0.1298	-0.4369	
0.250222	-0.156526	0.907192	80.64	-11.06	-17.78	-0.1458	-0.1523	-0.4202	
0.265472	-0.13725	0.92049	78.05	-8.96	-16.31	-0.1542	-0.1574	-0.4302	
0.26718	-0.106384	0.90036	77.91	-5.18	-15.96	-0.1556	-0.1669	-0.4355	
0.260104	-0.07198	0.919148	77.42	-5.18	-15.26	-0.1539	-0.1911	-0.4221	
0.254736	-0.02562	0.930738	75.53	-5.81	-15.33	-0.1524	-0.1989	-0.4225	
0.247538	0.006954	0.951722	71.61	-6.44	-13.79	-0.1453	-0.2044	-0.4066	
0.253882	0.028548	0.946964	66.43	-8.54	-13.51	-0.1521	-0.2185	-0.4106	
0.27877	0.034648	0.962336	62.02	-10.01	-12.25	-0.1465	-0.226	-0.4044	
0.290482	0.046238	0.95953	61.04	-9.31	-11.97	-0.1507	-0.2293	-0.4094	
0.287798	0.061	0.959286	60.97	-9.1	-11.62	-0.1449	-0.2491	-0.4006	
0.298168	0.091744	0.96868	59.08	-9.45	-11.06	-0.1544	-0.2535	-0.3962	
0.307806	0.128466	0.970632	56.49	-9.17	-10.01	-0.1529	-0.2625	-0.3902	
0.321958	0.142618	0.980514	53.62	-8.19	-8.96	-0.1446	-0.2734	-0.3905	
0.328058	0.152622	0.972706	52.5	-7.07	-8.05	-0.1542	-0.2796	-0.391	
0.330498	0.174948	0.984296	49.84	-6.3	-7.63	-0.1512	-0.2791	-0.3797	
0.320128	0.189222	0.97966	48.58	-4.48	-7.84	-0.1402	-0.2916	-0.3817	
0.315614	0.201666	0.993812	45.78	-4.2	-7.98	-0.1469	-0.2975	-0.3757	
0.326594	0.218502	0.991738	42.84	-4.69	-6.93	-0.151	-0.3005	-0.3727	
0.32574	0.241438	0.990274	37.03	-3.57	-5.81	-0.1546	-0.3244	-0.3547	
0.334402	0.24583	0.992836	32.83	-3.57	-5.32	-0.1506	-0.3248	-0.3626	
0.338794	0.249978	0.99308	28.91	-3.29	-4.34	-0.1546	-0.3213	-0.353	
0.32147	0.236192	0.983198	24.29	-2.66	-3.5	-0.1506	-0.3278	-0.3596	
0.310368	0.217526	0.964044	21.35	-3.64	-3.5	-0.1544	-0.3364	-0.3441	
0.31598	0.228384	0.976244	18.34	-4.13	-2.8	-0.145	-0.3354	-0.3566	
0.324032	0.235338	0.968192	15.89	-4.2	-2.38	-0.1473	-0.347	-0.338	
0.322568	0.228994	0.944768	14.35	-4.13	-2.52	-0.1489	-0.3396	-0.3473	
0.347334	0.235338	0.964532	11.34	-4.97	-2.1	-0.146	-0.3408	-0.3377	
0.35075	0.246074	0.959286	10.43	-3.08	-1.96	-0.157	-0.3407	-0.3379	
0.342698	0.242902	0.955626	8.54	-2.17	-2.17	-0.1514	-0.3484	-0.3365	
0.34038	0.245098	0.960384	6.58	-0.84	-2.38	-0.157	-0.3471	-0.3414	
0.342576	0.256566	0.966362	4.27	0	-1.68	-0.1488	-0.3488	-0.3445	
0.336232	0.279746	0.965264	1.96	0.63	-0.91	-0.1557	-0.3472	-0.3446	
0.335744	0.288286	0.980514	-1.54	-0.28	-0.28	-0.1543	-0.3472	-0.3445	
0.349408	0.310124	1.009672	-7.63	-0.42	1.33	-0.1582	-0.3483	-0.3335	
0.35807	0.32452	1.010892	-12.39	0.84	2.1	-0.1557	-0.3409	-0.3427	
0.373808	0.315248	1.021384	-17.92	1.12	2.87	-0.1529	-0.3424	-0.3411	
0.380884	0.307928	1.032364	-22.05	2.45	4.34	-0.1527	-0.3499	-0.335	
0.376248	0.316468	1.02846	-26.04	4.27	6.16	-0.1558	-0.335	-0.3488	
0.340136	0.324154	1.018822	-31.01	4.9	6.37	-0.153	-0.3349	-0.3456	
0.364536	0.312076	1.02541	-36.75	-2.1	3.78	-0.1504	-0.3353	-0.3551	
0.356118	0.29402	1.01016	-41.65	1.54	7.84	-0.1504	-0.3164	-0.3479	
0.34282	0.2745	1.004914	-47.32	4.13	10.08	-0.152	-0.3184	-0.3576	
0.333914	0.262788	0.994422	-51.03	3.57	11.06	-0.1605	-0.3159	-0.372	
0.340014	0.247416	0.987712	-56	1.89	11.2	-0.1523	-0.305	-0.3697	
0.335134	0.220088	0.978562	-61.88	8.54	15.33	-0.1566	-0.3008	-0.3808	
0.336476	0.192516	0.977586	-66.22	6.79	16.73	-0.1606	-0.2864	-0.3723	
0.337452	0.158234	0.97051	-70.14	7.21	17.36	-0.1525	-0.2758	-0.3748	
0.331596	0.129076	0.957456	-72.59	8.75	18.41	-0.1582	-0.2668	-0.3841	
0.324642	0.102602	0.957334	-75.67	8.89	19.25	-0.1599	-0.2549	-0.3948	
0.32025	0.06344	0.942816	-80.85	10.08	19.67	-0.1588	-0.2399	-0.4053	
0.305122	0.022814	0.911584	-83.37	12.25	19.39	-0.1548	-0.2261	-0.4078	
0.289628	-0.02074	0.904996	-85.89	11.76	20.23	-0.1563	-0.2092	-0.4118	
0.282308	-0.05673	0.89121	-86.94	11.97	21.7	-0.1455	-0.1908	-0.414	
0.272548	-0.078568	0.879498	-88.62	12.25	22.4	-0.1523	-0.1797	-0.4088	
0.273768	-0.111752	0.883036	-91.49	11.97	23.1	-0.1595	-0.1726	-0.4262	
0.255468	-0.149084	0.848632	-92.68	13.79	24.01	-0.1526	-0.1553	-0.4173	
0.238022	-0.178852	0.836554	-94.43	13.65	25.34	-0.1501	-0.1402	-0.4261	
0.232776	-0.212402	0.8357	-95.62	13.3	25.62	-0.1516	-0.1296	-0.4321	
0.231556	-0.24888	0.824232	-97.02	13.16	26.46	-0.1504	-0.1141	-0.433	
0.223992	-0.285602	0.805566	-98	13.3	27.65	-0.1476	-0.0875	-0.4253	
0.210084	-0.320738	0.769698	-97.09	14.91	28.7	-0.1439	-0.0697	-0.418	
0.193004	-0.354288	0.761036	-96.11	15.05	28.7	-0.1398	-0.0572	-0.4413	
0.172996	-0.386984	0.745176	-95.9	14.63	28.7	-0.144	-0.0416	-0.4391	
0.15555	-0.433832	0.720532	-95.83	14.49	28.84	-0.1412	-0.032	-0.4562	
0.143594	-0.484096	0.683444	-94.29	14	29.12	-0.1291	-0.0139	-0.4407	
0.116266	-0.556808	0.676734	-92.19	10.22	29.82	-0.1344	0.0099	-0.451	
0.115534	-0.583892	0.662948	-89.25	10.78	30.94	-0.1263	0.0254	-0.4245	
0.109434	-0.63379	0.6649	-88.2	10.85	31.08	-0.1248	0.035	-0.4177	
0.098454	-0.655994	0.625616	-85.89	13.86	29.89	-0.1278	0.0549	-0.4232	
0.068564	-0.673562	0.56242	-83.09	17.22	28.77	-0.1219	0.0652	-0.3986	
0.055632	-0.693448	0.532042	-81.97	16.59	28	-0.1125	0.0866	-0.4055	
0.04575	-0.73627	0.520086	-82.18	12.81	26.67	-0.1099	0.0988	-0.408	
0.025132	-0.754814	0.49044	-79.66	13.65	26.46	-0.1167	0.1038	-0.4016	
0.029036	-0.783484	0.477508	-78.61	11.55	25.76	-0.103	0.1178	-0.399	
0.019276	-0.804346	0.474336	-77.49	10.36	25.48	-0.1084	0.1352	-0.392	
-0.003782	-0.80093	0.432612	-74.27	12.04	25.13	-0.1004	0.1487	-0.4008	
0.000366	-0.806664	0.432734	-74.48	8.05	24.92	-0.0863	0.1604	-0.3776	
-0.00915	-0.804712	0.413824	-72.87	8.54	24.08	-0.0904	0.173	-0.3739	
-0.024278	-0.815082	0.39284	-71.54	10.43	23.94	-0.0904	0.1731	-0.3723	
-0.027084	-0.8357	0.377956	-72.24	7.91	23.73	-0.0862	0.192	-0.3634	
-0.031354	-0.828014	0.381494	-73.85	5.32	24.01	-0.0848	0.2001	-0.3566	
-0.03904	-0.836798	0.334036	-76.44	-13.02	19.18	-0.0791	0.2223	-0.3427	
0.019398	-0.903288	0.406382	-84.91	-4.27	24.08	-0.0821	0.2157	-0.3542	
-0.018544	-0.927566	0.328302	-78.33	12.95	26.81	-0.0777	0.2398	-0.3339	
-0.04026	-0.93879	0.301828	-75.11	19.25	24.36	-0.072	0.256	-0.3154	
-0.07198	-0.99918	0.249856	-69.37	23.24	21.84	-0.0651	0.2654	-0.3132	
-0.104188	-1.019432	0.2135	-61.46	20.02	20.3	-0.061	0.2748	-0.3095	
-0.081008	-0.97783	0.186782	-53.97	16.31	14.14	-0.0513	0.2717	-0.3095	
-0.071492	-0.979294	0.209962	-52.15	5.81	11.41	-0.0525	0.2877	-0.296	
-0.082472	-1.02053	0.19032	-50.82	8.75	7.56	-0.0566	0.2958	-0.2893	
-0.099308	-1.014674	0.197152	-49.07	6.86	9.66	-0.0456	0.2942	-0.2891	
-0.09882	-0.993324	0.189832	-41.44	11.76	12.18	-0.0412	0.3012	-0.2712	
-0.103578	-0.988566	0.178364	-38.15	13.93	12.74	-0.0411	0.2983	-0.2665	
-0.1037	-0.978562	0.17385	-40.04	10.71	11.55	-0.041	0.3094	-0.2596	
-0.099064	-0.980758	0.172874	-39.2	9.66	10.78	-0.0244	0.3158	-0.2526	
-0.10004	-0.980514	0.15372	-35.42	11.13	10.22	-0.0369	0.3094	-0.2595	
-0.106506	-0.958798	0.13908	-32.13	11.13	7.98	-0.0367	0.3255	-0.2444	
-0.090158	-0.940864	0.12932	-29.96	13.3	6.79	-0.0355	0.333	-0.2504	
-0.087108	-0.974902	0.094428	-29.19	15.75	5.25	-0.0272	0.3189	-0.2525	
-0.11041	-1.023702	0.088206	-34.65	10.29	4.27	-0.023	0.3348	-0.2437	
-0.122	-1.031022	0.10187	-35	7.07	3.71	-0.0241	0.3338	-0.231	
-0.113582	-1.000156	0.116754	-30.31	10.5	4.41	-0.0229	0.332	-0.2374	
-0.123952	-0.984052	0.10492	-26.32	15.4	4.06	-0.0186	0.3465	-0.2479	
-0.132004	-0.976	0.092476	-24.01	16.1	3.22	-0.0257	0.3444	-0.2369	
-0.129808	-0.946354	0.079422	-23.24	15.33	4.55	-0.0198	0.3421	-0.2177	
-0.122	-0.94184	0.07381	-23.45	11.2	6.51	-0.0198	0.3548	-0.2107	
-0.109678	-0.979172	0.072468	-29.47	6.51	5.25	-0.0157	0.3577	-0.2153	
-0.110044	-0.992958	0.097356	-30.52	2.17	1.47	-0.0073	0.3596	-0.2055	
-0.114436	-0.989542	0.063684	-25.41	11.2	4.9	-0.0143	0.3563	-0.2106	
-0.133834	-0.986736	0.050386	-20.44	13.02	5.11	-0.0058	0.363	-0.1973	
-0.150792	-0.987712	0.02562	-18.55	14.7	7.14	-0.0059	0.3643	-0.2036	
-0.15494	-0.990396	0.007564	-18.06	11.34	7.49	-0.0059	0.3644	-0.202	
-0.157502	-1.004792	0.004758	-16.17	6.72	7.42	0.0009	0.3708	-0.1952	
-0.161406	-1.010282	-0.011468	-12.81	5.39	6.72	-0.0043	0.3743	-0.1872	
-0.155794	-1.0126	-0.002928	-11.62	1.47	5.11	0.0011	0.3665	-0.1874	
-0.149816	-0.992592	-0.004148	-4.06	6.23	4.69	-0.0041	0.3685	-0.1794	
-0.151646	-1.000644	-0.010858	-0.98	8.68	4.62	0.0052	0.3712	-0.1855	
-0.154818	-0.99308	-0.031476	2.1	10.22	3.71	0.0052	0.3602	-0.1908	
-0.162016	-1.011258	-0.044164	-2.17	8.54	3.29	0.0025	0.365	-0.1858	
-0.171044	-1.02785	-0.03904	-6.65	1.68	3.15	0.0079	0.3679	-0.1904	
-0.157136	-1.015406	-0.019032	-3.15	1.4	3.5	0.0053	0.3682	-0.184	
-0.155428	-1.003328	-0.020008	-2.8	2.52	3.92	0.0107	0.3743	-0.1852	
-0.173362	-0.973804	-0.02318	-2.8	3.64	4.55	0.0065	0.371	-0.1919	
-0.171898	-0.95038	-0.035746	1.82	3.99	4.27	0.0081	0.37	-0.1791	
-0.159576	-0.970998	-0.028426	-2.31	4.62	3.57	0.0136	0.3699	-0.179	
-0.146522	-0.988322	-0.013664	-6.37	-2.03	2.31	0.0052	0.3728	-0.1854	
-0.151646	-1.011258	-0.020008	-4.41	-0.35	2.45	0.0069	0.3671	-0.1729	
-0.169702	-0.997228	-0.007686	-0.21	-0.56	0.49	0.0135	0.3698	-0.1822	
-0.175558	-1.007598	-0.016348	1.75	-1.33	-0.77	0.0093	0.3774	-0.1851	
-0.163846	-1.010038	-0.01037	0.98	-2.87	-0.98	0.0122	0.3747	-0.1772	
-0.172386	-1.006988	-0.008905999	1.33	-3.92	-1.26	0.0108	0.3714	-0.1806	
-0.17995	-1.007842	-0.013786	3.5	-3.29	-1.05	0.0067	0.3698	-0.1823	
-0.175924	-0.999424	-0.02989	6.58	-3.43	-1.47	0.0177	0.3745	-0.1803	
-0.16287	-0.992958	-0.031232	7.98	-4.76	-1.33	0.0122	0.3761	-0.1787	
-0.16287	-0.990518	-0.038918	8.12	-5.32	-0.98	0.0093	0.3726	-0.1901	
-0.167262	-1.000034	-0.027328	6.23	-6.86	-0.91	0.0176	0.3618	-0.1872	
-0.155672	-0.988322	-0.029524	9.1	-4.83	-2.24	0.007999999	0.3714	-0.1822	
-0.151768	-0.983564	-0.029158	11.34	-2.8	-2.17	0.0012	0.3635	-0.1859	
-0.171288	-1.008086	-0.03843	10.15	-3.29	-2.45	0.0038	0.3649	-0.189	
-0.182146	-1.021262	-0.03416	8.33	-7.07	-2.73	0.0051	0.3693	-0.1936	
-0.167506	-1.012844	-0.017324	9.94	-8.26	-3.43	0.0093	0.3633	-0.189	
-0.166042	-1.002718	-0.007442	11.62	-7.77	-3.64	-0.0057	0.3649	-0.1908	
-0.16165	-1.01443	-0.007442	14.42	-5.95	-3.92	0.0063	0.3628	-0.2018	
-0.15494	-0.99735	0.000854	17.22	-7.14	-5.25	-0.0018	0.3628	-0.202	
-0.161284	-0.998448	0.008417999	16.38	-7.56	-5.95	-0.0088	0.3578	-0.2104	
-0.153964	-0.99674	0.021228	17.92	-8.68	-7.07	0.0021	0.3548	-0.2087	
-0.141886	-0.981856	0.031232	21.35	-8.54	-7.91	-0.0061	0.353	-0.2153	
-0.144326	-0.993446	0.03233	23.8	-7.28	-8.61	-0.0032	0.3532	-0.2089	
-0.151524	-0.995642	0.035502	24.43	-8.54	-9.31	-0.0117	0.3526	-0.2235	
-0.15067	-0.996374	0.0366	24.43	-10.22	-10.5	-0.0049	0.3542	-0.2216	
-0.128588	-1.003206	0.060268	23.52	-13.09	-11.27	-0.0102	0.3389	-0.2177	
-0.130784	-0.992348	0.07137	26.18	-11.48	-11.62	-0.0212	0.3561	-0.2155	
-0.130296	-0.989542	0.08784	28.84	-10.85	-13.02	-0.0131	0.3387	-0.2241	
-0.116388	-0.972218	0.090402	30.52	-13.58	-12.67	-0.0311	0.34	-0.2324	
-0.111752	-0.98088	0.095648	29.75	-11.34	-14.7	-0.0228	0.3305	-0.2343	
-0.117364	-0.989664	0.116266	28.91	-9.94	-13.93	-0.0339	0.3351	-0.2375	
-0.10736	-0.995886	0.117852	33.81	-8.89	-14	-0.03	0.3314	-0.2504	
-0.09577	-0.981002	0.137494	38.71	-4.76	-14.28	-0.0244	0.3221	-0.2507	
-0.084546	-0.964776	0.153476	43.33	-2.03	-14.21	-0.0341	0.3314	-0.2521	
-0.088572	-0.943182	0.17141	49.28	-2.38	-16.38	-0.0412	0.3091	-0.2676	
-0.0854	-0.943792	0.187148	50.26	-4.41	-17.08	-0.0465	0.3125	-0.2612	
-0.078934	-0.941474	0.193492	52.85	-5.95	-17.29	-0.0468	0.3056	-0.2775	
-0.063684	-0.955748	0.229848	53.9	-9.31	-16.03	-0.0414	0.3007	-0.2808	
-0.061732	-0.940986	0.257664	56.56	-10.43	-16.45	-0.051	0.293	-0.2829	
-0.059536	-0.931226	0.279868	60.13	-10.08	-16.31	-0.047	0.2864	-0.2911	
-0.06588	-0.91195	0.29768	62.79	-8.96	-14.98	-0.0567	0.2799	-0.2996	
-0.050386	-0.901214	0.295362	63.91	-9.73	-15.19	-0.0622	0.2673	-0.3035	
-0.059414	-0.88511	0.278404	63.49	-11.27	-15.61	-0.0652	0.2573	-0.32	
-0.025254	-0.879498	0.349652	62.3	-14.7	-16.59	-0.0667	0.2648	-0.3277	
-0.01891	-0.862174	0.341356	63.7	-12.81	-15.05	-0.0598	0.246	-0.33	
-0.007564	-0.866932	0.37393	61.88	-15.82	-15.05	-0.0694	0.2336	-0.3324	
-0.005734	-0.848876	0.387472	61.95	-16.24	-15.47	-0.0751	0.2269	-0.344	
0.015372	-0.84546	0.452132	59.15	-16.03	-16.1	-0.0777	0.2304	-0.3359	
0.040016	-0.821548	0.48312	58.94	-6.09	-15.68	-0.0834	0.2064	-0.3531	
0.052216	-0.807274	0.441152	63.14	6.51	-13.58	-0.0807	0.189	-0.3618	
0.045262	-0.79361	0.494954	59.57	-7.7	-14.56	-0.0824	0.182	-0.3797	
0.029768	-0.796904	0.489342	61.95	-8.12	-16.17	-0.0781	0.1744	-0.3752	
0.05673	-0.810934	0.545584	63.07	-12.81	-18.83	-0.0919	0.1743	-0.3803	
0.058438	-0.769942	0.523746	69.72	-9.03	-18.9	-0.092	0.149	-0.391	
0.081008	-0.735538	0.558394	70.42	-9.73	-19.67	-0.1014	0.1401	-0.3836	
0.101748	-0.72102	0.567666	71.89	-7.7	-20.37	-0.09869999	0.1384	-0.3612	
0.088572	-0.731268	0.572546	73.5	-6.51	-21.63	-0.1002	0.1303	-0.3952	
0.072956	-0.719922	0.57767	74.9	-5.74	-22.05	-0.1044	0.1175	-0.4055	
0.065758	-0.692716	0.586576	76.65	-7.14	-22.4	-0.1126	0.1005	-0.4064	
0.074542	-0.6771	0.590846	80.29	-9.17	-23.03	-0.1112	0.0801	-0.4121	
0.10004	-0.669414	0.623176	82.18	-11.97	-23.59	-0.1085	0.0722	-0.4156	
0.09552599	-0.620858	0.631838	86.1	-10.85	-23.03	-0.1195	0.0674	-0.4193	
0.102602	-0.583648	0.654652	87.29	-9.87	-23.17	-0.1153	0.0457	-0.4186	
0.121146	-0.569496	0.687226	87.85	-11.69	-25.06	-0.1196	0.0389	-0.4333	
0.13481	-0.5368	0.726266	91.91	-11.48	-27.51	-0.1181	0.0204	-0.431	
0.13908	-0.502518	0.736392	94.36	-10.85	-27.93	-0.1222	0.0079	-0.4348	
0.145912	-0.468846	0.747128	95.9	-8.89	-26.81	-0.129	-0.0106	-0.4358	
0.168238	-0.41968	0.79605	94.15	-9.24	-25.9	-0.1331	-0.0293	-0.4399	
0.182268	-0.36783	0.812398	93.17	-6.58	-26.18	-0.1304	-0.0404	-0.4436	
0.197884	-0.348432	0.843752	88.27	-7.35	-26.6	-0.1355	-0.0662	-0.4337	
0.200324	-0.346846	0.86864	85.89	-7.14	-25.55	-0.1411	-0.0711	-0.4388	
0.193004	-0.347456	0.846924	86.59	-4.34	-23.45	-0.1368	-0.09429999	-0.4382	
0.176046	-0.309026	0.835212	87.01	-2.38	-21.07	-0.1342	-0.1055	-0.445	
0.184464	-0.25681	0.865468	85.47	-4.55	-19.04	-0.127	-0.1158	-0.4325	
0.188856	-0.18666	0.881694	84.63	-4.83	-17.64	-0.1338	-0.1266	-0.4316	
0.189344	-0.171654	0.8845	80.64	-7.35	-16.59	-0.1336	-0.1419	-0.4275	
0.191052	-0.164456	0.896944	78.82	-9.45	-15.19	-0.1379	-0.161	-0.4412	
0.210938	-0.126392	0.93269	75.25	-11.34	-14	-0.1279	-0.1759	-0.4257	
0.213744	-0.091866	0.941718	72.94	-10.15	-12.32	-0.1388	-0.1819	-0.423	
0.221918	-0.060146	0.931104	70.98	-11.2	-11.41	-0.1361	-0.1993	-0.4301	
0.23424	-0.031476	0.937326	70.35	-11.34	-11.97	-0.1439	-0.2153	-0.4086	
0.25376	0.014396	0.953918	66.92	-12.53	-11.48	-0.1437	-0.2276	-0.406	
0.253272	0.047214	0.959042	62.58	-12.53	-10.36	-0.1425	-0.2264	-0.4139	
0.248026	0.02989	0.951112	59.08	-12.18	-9.17	-0.1355	-0.2433	-0.4097	
0.269498	0.0366	0.970876	56.91	-12.6	-7.63	-0.1463	-0.2522	-0.4008	
0.2684	0.060878	0.965874	55.72	-12.46	-6.86	-0.1434	-0.2614	-0.3995	
0.273402	0.076006	0.965264	53.76	-11.06	-5.95	-0.135	-0.2704	-0.3918	
0.271328	0.086742	0.95099	54.53	-10.08	-6.86	-0.1349	-0.2811	-0.3875	
0.288774	0.101504	0.96868	53.13	-10.15	-6.93	-0.1512	-0.2884	-0.3802	
0.311222	0.12322	0.97783	52.22	-8.89	-6.72	-0.1456	-0.2992	-0.3773	
0.302926	0.14701	0.955382	51.45	-5.11	-7.07	-0.1455	-0.2958	-0.3724	
0.287066	0.165554	0.956358	49.56	-4.76	-7.77	-0.1536	-0.3033	-0.3681	
0.291092	0.1952	0.976976	46.41	-4.83	-7.21	-0.1494	-0.3127	-0.3684	
0.288286	0.20435	0.979538	43.26	-5.74	-7	-0.1465	-0.3184	-0.3575	
0.291214	0.193126	0.954406	41.23	-5.53	-6.58	-0.1438	-0.3202	-0.3623	
0.287554	0.207888	0.962092	38.29	-5.88	-5.81	-0.1408	-0.3275	-0.3513	
0.29829	0.238754	0.975756	33.39	-6.93	-3.92	-0.1435	-0.3399	-0.3536	
0.297802	0.247294	0.958432	29.96	-6.37	-2.94	-0.1505	-0.3401	-0.3569	
0.298046	0.246074	0.948306	27.65	-6.79	-2.45	-0.1489	-0.3381	-0.3472	
0.303048	0.260592	0.929518	26.6	-7.42	-2.24	-0.146	-0.3456	-0.3427	
0.302926	0.262788	0.910852	26.04	-7.35	-2.17	-0.1558	-0.3553	-0.3529	
0.315614	0.269864	0.933422	24.57	-9.52	-2.24	-0.1502	-0.3488	-0.3445	
0.329278	0.295728	0.94184	22.61	-8.75	-2.1	-0.15	-0.35	-0.3366	
0.344528	0.308782	0.946598	19.6	-8.12	-1.89	-0.1555	-0.3498	-0.3335	
0.338916	0.306586	0.931226	17.99	-6.16	-1.89	-0.1524	-0.368	-0.3231	
0.33367	0.313906	0.940742	15.96	-5.74	-1.54	-0.1553	-0.3605	-0.3292	
0.33916	0.332206	0.94855	12.6	-4.55	-0.91	-0.1498	-0.3651	-0.3277	
0.338062	0.331718	0.93513	10.08	-3.08	-0.84	-0.1469	-0.368	-0.323	
0.330376	0.327448	0.9333	8.54	-1.89	-0.77	-0.1511	-0.3696	-0.3247	
0.332938	0.335744	0.942328	6.44	-1.68	-0.35	-0.1565	-0.3663	-0.3215	
0.329766	0.343918	0.938668	3.78	-0.91	-0.35	-0.1511	-0.365	-0.3245	
0.327204	0.326106	0.92354	0.63	-0.49	0.14	-0.1605	-0.3708	-0.3186	
0.327936	0.322324	0.925492	-0.84	-1.05	0.49	-0.1552	-0.3649	-0.323	
0.343064	0.335988	0.942572	-3.5	-1.4	1.26	-0.1497	-0.3617	-0.3211	
0.349286	0.333426	0.956602	-6.37	-1.05	1.4	-0.1523	-0.3614	-0.3148	
0.343918	0.336476	0.964654	-8.4	-0.98	1.75	-0.1551	-0.3663	-0.3215	
0.341844	0.346358	0.976	-11.69	-1.68	1.12	-0.1577	-0.369	-0.3121	
0.36539	0.351604	0.978928	-15.12	-0.91	0.84	-0.1565	-0.3616	-0.3197	
0.369416	0.345992	0.992348	-19.81	1.33	2.59	-0.1553	-0.3588	-0.3259	
0.351848	0.343064	0.98942	-24.85	4.34	4.97	-0.1567	-0.3668	-0.3311	
0.345748	0.345504	0.982954	-30.38	5.6	6.02	-0.1569	-0.3468	-0.335	
0.35258	0.33123	0.986126	-35.56	5.95	7.07	-0.1527	-0.3671	-0.3374	
0.347456	0.320128	0.988932	-39.62	6.93	8.68	-0.1501	-0.3408	-0.3394	
0.340624	0.31354	0.99491	-44.45	6.93	10.29	-0.1557	-0.3457	-0.3445	
0.333548	0.302316	0.99613	-49.84	7.35	11.34	-0.1572	-0.3383	-0.3522	
0.330742	0.279502	0.982588	-54.95	7.7	12.67	-0.1559	-0.3196	-0.3513	
0.330376	0.260592	0.980392	-59.92	7.07	14.56	-0.1535	-0.325	-0.3675	
0.325984	0.225212	0.98332	-67.13	6.65	16.8	-0.1551	-0.3162	-0.3783	
0.322446	0.2013	0.972584	-70	3.92	12.53	-0.155	-0.2988	-0.3695	
0.3355	0.19337	0.975634	-74.76	4.69	14.21	-0.1538	-0.2929	-0.3772	
0.330742	0.16775	0.969778	-78.82	5.81	16.38	-0.1511	-0.2804	-0.375	
0.316712	0.128466	0.957212	-82.11	5.25	15.82	-0.1627	-0.2691	-0.4019	
0.307196	0.101504	0.941474	-88.55	12.53	19.88	-0.164	-0.2612	-0.3968	
0.306586	0.066612	0.92232	-92.68	10.22	21	-0.1503	-0.2504	-0.3976	
0.305122	0.014396	0.927078	-97.02	8.89	21.35	-0.1642	-0.2335	-0.4019	
0.291458	-0.01708	0.906216	-97.86	12.46	24.36	-0.1645	-0.2122	-0.4105	
0.276208	-0.052582	0.876326	-97.86	13.86	23.45	-0.1523	-0.197	-0.416	
0.276208	-0.100894	0.886574	-98.35	16.31	24.85	-0.158	-0.1895	-0.4222	
0.269254	-0.135542	0.855586	-99.33	23.1	25.55	-0.1566	-0.1739	-0.4182	
0.259982	-0.171776	0.843874	-99.4	22.61	25.83	-0.1583	-0.1604	-0.4288	
0.240706	-0.213988	0.819474	-97.44	21	24.36	-0.1585	-0.1421	-0.436	
0.237046	-0.23485	0.819474	-97.72	18.9	24.22	-0.1449	-0.1269	-0.4398	
0.218258	-0.262666	0.80886	-98.21	22.89	24.08	-0.1505	-0.1034	-0.4357	
0.185318	-0.358436	0.775798	-94.36	24.78	23.24	-0.1439	-0.0759	-0.4439	
0.184464	-0.390034	0.76921	-92.19	24.57	22.89	-0.1286	-0.063	-0.4302	
0.165432	-0.401746	0.750666	-90.16	25.55	22.19	-0.1344	-0.0433	-0.4406	
0.146522	-0.4331	0.729804	-88.62	23.45	21.84	-0.1288	-0.0368	-0.4338	
0.123464	-0.486292	0.717482	-86.66	25.27	21.42	-0.1261	-0.0197	-0.4314	
0.107848	-0.517768	0.692228	-86.17	21.07	21.21	-0.1195	0.0031	-0.4366	
0.10492	-0.542656	0.689056	-86.59	17.71	21.49	-0.1181	0.0141	-0.46	
0.100406	-0.56913	0.684176	-85.96	14.35	21.98	-0.1196	0.0218	-0.4357	
0.08967	-0.584624	0.685274	-85.47	15.26	22.61	-0.1155	0.0343	-0.4319	
0.088084	-0.608902	0.665998	-84.91	16.38	22.68	-0.1155	0.0531	-0.4278	
0.069784	-0.632082	0.642208	-84.7	16.45	22.61	-0.1113	0.0658	-0.4208	
0.052704	-0.646844	0.61122	-84.14	15.82	22.47	-0.0975	0.0862	-0.4115	
0.05673	-0.67893	0.607072	-86.1	12.53	22.47	-0.1046	0.1061	-0.4172	
0.041236	-0.695888	0.579988	-84.84	13.58	22.47	-0.099	0.1111	-0.4088	
0.014884	-0.699548	0.54595	-82.32	14.98	22.12	-0.0946	0.1195	-0.394	
-0.010614	-0.746152	0.491416	-79.94	13.65	21.49	-0.08769999	0.1306	-0.387	
-0.02074	-0.781288	0.477264	-78.61	10.36	21.28	-0.0894	0.1425	-0.3992	
-0.02623	-0.806298	0.463844	-76.3	8.96	21.63	-0.0905	0.1618	-0.3824	
-0.021838	-0.80825	0.433466	-74.48	6.93	21.49	-0.07669999	0.1682	-0.377	
-0.028182	-0.808006	0.409066	-74.27	5.25	21.77	-0.0849	0.184	-0.3701	
-0.034648	-0.820694	0.375882	-74.2	0.84	21.42	-0.0725	0.1998	-0.3611	
-0.064172	-0.842654	0.347822	-74.69	-3.78	21	-0.07539999	0.2026	-0.3674	
-0.04819	-0.873276	0.342454	-76.65	3.99	21.28	-0.0807	0.2187	-0.3556	
-0.055876	-0.913414	0.297924	-73.5	6.44	22.68	-0.06659999	0.2243	-0.3327	
-0.038918	-0.953674	0.28792	-72.24	6.44	24.22	-0.0652	0.2384	-0.3273	
-0.061366	-0.988322	0.255102	-70.84	4.34	20.86	-0.064	0.2505	-0.3347	
-0.08601	-0.996374	0.230214	-65.59	3.71	19.04	-0.0544	0.2474	-0.333	
-0.120658	-0.982222	0.193004	-59.71	4.55	18.69	-0.0555	0.2652	-0.3162	
-0.11041	-0.977708	0.190808	-58.8	2.38	19.88	-0.0609	0.2687	-0.3066	
-0.103456	-0.990518	0.186172	-56.07	4.13	19.18	-0.0374	0.2784	-0.2945	
-0.103456	-1.009428	0.149938	-50.68	8.61	17.01	-0.0526	0.294	-0.2957	
-0.150548	-1.02663	0.139812	-47.74	3.64	13.44	-0.0331	0.2975	-0.2823	
-0.119438	-1.027118	0.14884	-43.54	0.63	13.3	-0.0357	0.3012	-0.2694	
-0.10248	-1.01138	0.165188	-38.64	1.96	12.53	-0.0413	0.3166	-0.2721	
-0.102968	-0.990762	0.174338	-35.28	3.15	10.92	-0.0316	0.3073	-0.2707	
-0.108336	-0.9821	0.163968	-32.9	4.97	9.03	-0.0314	0.3204	-0.2557	
-0.106384	-0.977464	0.162016	-30.1	7.28	8.4	-0.0341	0.3235	-0.2556	
-0.11224	-0.977952	0.161528	-27.09	8.75	7.7	-0.0217	0.3346	-0.2485	
-0.12322	-0.98271	0.15982	-24.36	10.22	6.79	-0.0383	0.322	-0.2558	
-0.128954	-0.982588	0.14457	-21.14	10.43	5.81	-0.0299	0.3237	-0.2507	
-0.118218	-0.976976	0.142252	-20.65	7.77	5.53	-0.0204	0.3282	-0.2519	
-0.115534	-0.971242	0.151768	-20.37	5.81	6.09	-0.007999999	0.3283	-0.2484	
-0.102236	-0.960018	0.15738	-18.83	7.63	5.11	-0.0202	0.3365	-0.2387	
-0.121146	-0.964288	0.153964	-18.55	8.12	2.1	-0.0173	0.3383	-0.2338	
-0.122244	-0.974902	0.145424	-17.99	8.61	2.66	-0.0256	0.3383	-0.234	
-0.119438	-0.977952	0.145668	-18.27	6.65	3.57	-0.0227	0.3277	-0.228	
-0.110044	-0.966118	0.141642	-14.91	9.59	3.85	-0.0173	0.3415	-0.2321	
-0.122366	-0.98393	0.123952	-13.58	10.29	2.59	-0.0131	0.3495	-0.2252	
-0.131272	-0.991006	0.130296	-13.23	6.86	2.1	-0.0157	0.3358	-0.2195	
-0.135054	-0.977952	0.122732	-10.92	7.7	2.87	-0.0103	0.3497	-0.2204	
-0.13054	-0.972584	0.111508	-9.38	8.68	3.5	-0.009	0.3432	-0.2254	
-0.139446	-0.98027	0.0915	-8.75	9.45	3.92	-0.0061	0.3436	-0.2157	
-0.159454	-0.983686	0.082838	-9.59	7.77	4.27	-0.0074	0.3533	-0.209	
-0.163602	-0.98637	0.077958	-9.31	6.02	4.55	-0.0089	0.3576	-0.2168	
-0.150426	-0.977098	0.083082	-7.63	3.64	4.9	-0.0076	0.3575	-0.2184	
-0.15067	-0.948672	0.074054	-4.83	4.62	4.48	0.0032	0.3508	-0.228	
-0.154208	-0.943304	0.06954	-6.65	2.66	4.06	0.0008	0.3453	-0.2123	
-0.163358	-0.96502	0.067222	-11.62	-1.96	3.64	0.0007	0.3546	-0.2119	
-0.163724	-0.992836	0.08906	-14.7	-5.04	4.27	-0.0021	0.3417	-0.2253	
-0.154696	-0.985272	0.094916	-11.34	-3.5	5.25	-0.0047	0.3499	-0.2154	
-0.139812	-0.9516	0.096868	-4.69	2.31	5.74	0.0008	0.3548	-0.2087	
-0.14274	-0.937082	0.067832	-2.8	3.57	5.74	0.0049	0.3547	-0.2102	
-0.160796	-0.96746	0.060268	-12.11	-2.52	3.99	-0.0047	0.3545	-0.2152	
-0.16714	-1.006622	0.068686	-15.33	-4.69	3.99	0.0035	0.3672	-0.2065	
-0.170922	-1.00345	0.076372	-11.48	-2.66	4.13	-0.0004	0.3644	-0.2003	
-0.163724	-0.969656	0.047946	-2.94	5.6	4.76	0.0009	0.355	-0.2039	
-0.16592	-0.959896	0.013176	-0.91	6.65	4.55	0.0049	0.3642	-0.205	
-0.173728	-0.976976	-0.006954	-5.81	1.96	3.01	0.0021	0.3719	-0.2063	
-0.187148	-1.02297	0.015372	-13.37	-5.25	1.19	0.0049	0.3642	-0.205	
-0.175192	-1.023092	0.039284	-12.18	-5.46	0.98	0.0037	0.3615	-0.2212	
-0.17019	-0.995154	0.023058	-3.01	3.08	1.4	0.0051	0.3614	-0.1971	
-0.18239	-0.957822	-0.002928	4.13	7.07	1.54	0.005	0.3723	-0.1966	
-0.180316	-0.94916	-0.014274	2.1	4.76	0.84	0.0009	0.3612	-0.202	
-0.18605	-0.976	-0.020374	-4.9	-0.84	-0.91	-0.0003	0.3615	-0.1972	
-0.175436	-0.997106	0.011712	-8.96	-5.88	-1.54	0.0076	0.3704	-0.2047	
-0.165432	-1.00101	0.041358	-7.98	-5.11	-1.89	-0.003	0.3663	-0.1923	
-0.164578	-0.970998	0.025742	0.07	2.45	-0.84	0.0079	0.3616	-0.1939	
-0.164212	-0.968192	0.002318	4.55	6.02	-0.35	0.0009	0.3691	-0.2001	
-0.171288	-1.015406	-0.005734	-2.66	-2.17	-3.22	0.0079	0.3616	-0.1923	
-0.173728	-1.029192	0.018178	-3.85	-6.23	-4.2	-0.0043	0.3586	-0.1927	
-0.171776	-1.019188	0.01769	3.57	0.42	-3.64	0.0023	0.3631	-0.1955	
-0.182634	-1.011502	-0.008905999	9.45	3.99	-3.64	-0.0016	0.3647	-0.1939	
-0.190076	-1.016382	-0.025742	9.38	1.68	-3.99	0.0079	0.3678	-0.192	
-0.193614	-1.019798	-0.021228	8.61	-2.59	-4.41	0.0077	0.3597	-0.2019	
-0.18117	-1.01443	-0.015006	10.64	-3.15	-5.04	0.0022	0.3597	-0.2021	
-0.17385	-1.011624	-0.012688	13.44	-3.57	-5.81	-0.0032	0.3628	-0.2036	
-0.178608	-1.003084	-0.005734	15.82	-4.62	-6.44	-0.0103	0.3655	-0.2133	
-0.17812	-0.992714	-0.004148	17.64	-5.53	-6.79	-0.0075	0.3545	-0.2153	
-0.157258	-0.991616	0.007076	16.73	-8.26	-7.49	-0.0047	0.3561	-0.2136	
-0.150304	-1.005158	0.023058	15.75	-9.38	-8.12	-0.0048	0.3558	-0.22	
-0.164944	-1.013698	0.03355	16.31	-9.38	-9.1	-0.0033	0.3514	-0.2153	
-0.15982	-1.011502	0.0427	19.74	-7.49	-9.52	-0.0019	0.3499	-0.2138	
-0.14762	-1.005402	0.038186	24.01	-5.74	-9.73	-0.013	0.3514	-0.2171	
-0.132736	-0.989176	0.0549	24.92	-8.47	-11.13	-0.0147	0.3506	-0.2348	
-0.13908	-0.997594	0.06161	23.52	-11.06	-12.39	-0.0145	0.3322	-0.2308	
-0.121878	-1.000278	0.0854	23.38	-11.97	-14.28	-0.0159	0.34	-0.2305	
-0.119682	-0.99735	0.088572	26.18	-13.23	-14	-0.0187	0.3353	-0.2324	
-0.12078	-0.99918	0.0976	29.47	-10.64	-14.35	-0.023	0.3302	-0.2423	
-0.121756	-0.991616	0.110776	32.13	-9.59	-14.21	-0.0244	0.3394	-0.2435	
-0.106628	-0.985272	0.126758	34.23	-9.24	-14.14	-0.0354	0.3363	-0.2471	
-0.088206	-0.97539	0.127124	37.38	-7.28	-14.91	-0.0341	0.3205	-0.2526	
-0.083326	-0.959896	0.15189	39.62	-6.23	-14.91	-0.0383	0.3218	-0.259	
-0.071858	-0.949648	0.164822	41.09	-5.25	-15.68	-0.0479	0.3157	-0.2579	
-0.068442	-0.945378	0.193614	41.02	-5.18	-16.52	-0.0426	0.3105	-0.2708	
-0.065148	-0.944402	0.207034	42.98	-2.8	-17.64	-0.0452	0.3091	-0.2661	
-0.071736	-0.949282	0.22692	44.24	-3.64	-18.34	-0.0481	0.3135	-0.2724	
-0.059658	-0.947574	0.237656	46.62	-3.43	-18.48	-0.0497	0.2989	-0.289	
-0.059536	-0.944158	0.249856	49.56	-3.43	-18.34	-0.0511	0.2878	-0.2944	
-0.055388	-0.951722	0.27206	51.24	-7	-18.69	-0.0551	0.2772	-0.2885	
-0.057096	-0.930738	0.282308	55.44	-5.04	-18.06	-0.0581	0.275	-0.3047	
-0.06466	-0.916952	0.303658	57.12	-6.23	-17.71	-0.0637	0.2702	-0.2826	
-0.049776	-0.909266	0.339404	59.64	-1.54	-14.42	-0.0705	0.2594	-0.3088	
-0.011956	-0.874374	0.315126	66.08	1.33	-13.72	-0.0678	0.253	-0.3123	
-0.000732	-0.84485	0.301218	68.39	-7.42	-19.39	-0.0681	0.2475	-0.3317	
0.007808	-0.870348	0.393206	62.58	-11.76	-19.88	-0.0748	0.2354	-0.3276	
-0.005368	-0.861442	0.401502	62.86	-11.48	-18.69	-0.0724	0.2283	-0.347	
0.013908	-0.857294	0.42822	62.3	-4.48	-18.2	-0.0778	0.2222	-0.3458	
0.012932	-0.860954	0.439932	65.1	-0.35	-17.64	-0.0793	0.208	-0.3529	
0.000366	-0.850096	0.449326	69.65	6.58	-16.66	-0.0809	0.2027	-0.3676	
0.008052	-0.799222	0.434076	73.99	6.79	-16.03	-0.0822	0.1981	-0.3662	
0.023546	-0.758596	0.496784	70.21	-10.78	-17.71	-0.0781	0.1839	-0.3715	
0.049532	-0.76616	0.530334	67.06	-12.53	-17.08	-0.0905	0.173	-0.3755	
0.046726	-0.7808	0.529968	68.11	-9.24	-15.4	-0.0893	0.1614	-0.392	
0.046238	-0.784338	0.531554	69.3	-7.84	-15.05	-0.09339999	0.1536	-0.3924	
0.043554	-0.77165	0.527528	73.15	-7.21	-15.61	-0.0935	0.1503	-0.3974	
0.076982	-0.692228	0.557784	76.65	-7.7	-16.45	-0.103	0.1256	-0.3971	
0.103212	-0.687226	0.600728	74.76	-10.43	-17.78	-0.0963	0.1062	-0.4154	
0.102846	-0.680394	0.628666	75.32	-10.5	-19.46	-0.1042	0.0882	-0.4292	
0.096624	-0.657458	0.631716	77	-9.31	-20.16	-0.1073	0.0828	-0.4199	
0.077104	-0.644038	0.637938	78.54	-9.1	-19.95	-0.103	0.069	-0.4156	
0.070882	-0.631472	0.651114	80.71	-10.01	-18.62	-0.1127	0.0579	-0.4227	
0.1037	-0.574132	0.694912	80.43	-11.62	-17.36	-0.1224	0.0452	-0.4315	
0.133468	-0.540948	0.716018	79.24	-10.92	-17.43	-0.1127	0.0313	-0.4303	
0.131516	-0.554856	0.723338	78.96	-10.57	-18.48	-0.1196	0.017	-0.4375	
0.140422	-0.533872	0.715896	80.99	-8.54	-19.67	-0.1305	-0.0014	-0.437	
0.1403	-0.500688	0.71736	84.77	-8.05	-20.93	-0.1153	-0.0059	-0.4593	
0.117364	-0.45323	0.739076	89.04	-7.63	-21.84	-0.1221	-0.0279	-0.4396	
0.119316	-0.395768	0.78812	88.48	-9.94	-21.49	-0.1276	-0.0371	-0.4402	
0.154574	-0.400282	0.818742	82.81	-15.12	-21.14	-0.126	-0.0508	-0.4344	
0.16409	-0.411994	0.803004	84.77	-13.16	-20.09	-0.1274	-0.0728	-0.4418	
0.162382	-0.371978	0.781166	87.99	-10.5	-19.67	-0.1301	-0.0852	-0.4424	
0.163114	-0.280966	0.802638	90.23	-11.2	-18.97	-0.1369	-0.0867	-0.441	
0.193614	-0.259128	0.857782	86.59	-16.03	-19.04	-0.1342	-0.1102	-0.4468	
0.201422	-0.251198	0.867054	85.89	-15.61	-18.9	-0.1325	-0.122	-0.4329	
0.214964	-0.229238	0.887184	85.68	-14.63	-18.06	-0.1349	-0.1417	-0.4243	
0.198494	-0.172508	0.868274	88.34	-10.22	-17.01	-0.1404	-0.1605	-0.4285	
0.192394	-0.116632	0.86864	87.78	-11.48	-17.01	-0.1403	-0.168	-0.424	
0.214232	-0.082594	0.889746	85.89	-14	-16.87	-0.1416	-0.1836	-0.4263	
0.235094	-0.050996	0.94672	84.21	-15.26	-16.94	-0.14	-0.1908	-0.4138	
0.243512	-0.028914	0.967948	81.55	-13.02	-16.31	-0.1398	-0.203	-0.4096	
0.246318	0.000122	0.953552	78.89	-12.04	-15.33	-0.1451	-0.2277	-0.4076	
0.252174	0.035136	0.944646	75.18	-13.93	-14.84	-0.1396	-0.2386	-0.408	
0.239242	0.060512	0.917318	73.15	-11.83	-14.21	-0.1395	-0.2478	-0.4068	
0.24827	0.08784	0.92842	70.7	-14.42	-12.32	-0.1419	-0.2547	-0.388	
0.265594	0.126514	0.945012	67.83	-16.38	-12.32	-0.1338	-0.2661	-0.3979	
0.30378	0.149694	0.97844	62.44	-17.43	-11.41	-0.1501	-0.2734	-0.3922	
0.311466	0.159332	0.969168	58.73	-13.86	-10.29	-0.1509	-0.2988	-0.3694	
0.30439	0.154452	0.976854	56.91	-11.48	-10.64	-0.1455	-0.2975	-0.3741	
0.302438	0.177632	0.99674	56.35	-10.22	-9.8	-0.144	-0.3064	-0.3664	
0.298778	0.21411	0.998448	55.09	-8.54	-9.1	-0.1495	-0.3175	-0.3735	
0.314272	0.239974	0.998204	53.27	-7.84	-8.19	-0.1506	-0.3247	-0.361	
0.302194	0.25315	0.992714	51.17	-7.35	-6.58	-0.1492	-0.3293	-0.358	
0.306708	0.266204	0.976122	47.46	-7.35	-5.6	-0.1462	-0.332	-0.3485	
0.290238	0.275354	0.952942	44.8	-7.63	-4.76	-0.149	-0.3304	-0.3485	
0.299632	0.292556	0.956602	41.37	-9.38	-3.78	-0.146	-0.344	-0.3394	
0.305976	0.314516	0.96258	37.03	-10.43	-3.15	-0.1542	-0.3501	-0.3383	
0.331352	0.323788	0.950868	32.62	-11.9	-3.85	-0.1487	-0.3454	-0.338	
0.329888	0.318786	0.93269	29.54	-10.22	-2.45	-0.1525	-0.3588	-0.3259	
0.338062	0.325984	0.94123	26.18	-10.85	-2.31	-0.1609	-0.3575	-0.3324	
0.350384	0.340502	0.943914	21.84	-10.5	-1.82	-0.1497	-0.3743	-0.3249	
0.358436	0.340868	0.9272	18.69	-8.82	-1.82	-0.1523	-0.3662	-0.3166	
0.36478	0.360266	0.94611	14.14	-8.12	-1.47	-0.1605	-0.3723	-0.3171	
0.359778	0.369904	0.950258	10.78	-6.79	-1.26	-0.1537	-0.3678	-0.3183	
0.35502	0.36417	0.94306	7.63	-5.6	-0.77	-0.1536	-0.3707	-0.3136	
0.354776	0.363804	0.94001	4.76	-4.9	-0.07	-0.1522	-0.3723	-0.3153	
0.360998	0.378078	0.94123	2.1	-4.62	0.7	-0.1564	-0.366	-0.3135	
0.369294	0.374418	0.933544	-0.56	-3.57	0.98	-0.1604	-0.369	-0.3121	
0.375028	0.370758	0.953918	-3.01	-3.64	1.75	-0.1606	-0.3788	-0.3237	
0.381738	0.388448	0.959408	-6.23	-1.68	2.1	-0.166	-0.3724	-0.3188	
0.381372	0.390034	0.966484	-9.52	-0.42	2.31	-0.1577	-0.3785	-0.3173	
0.390522	0.380884	0.966484	-12.18	-2.1	-0.84	-0.1562	-0.3843	-0.3079	
0.39711	0.394182	1.00711	-16.66	-1.33	1.61	-0.1591	-0.3723	-0.3154	
0.406748	0.408578	1.01077	-22.61	2.38	3.57	-0.1579	-0.3836	-0.3271	
0.407358	0.39833	1.003206	-27.51	5.25	5.81	-0.1635	-0.3696	-0.3266	
0.405406	0.39894	1.012112	-32.9	7.07	7.07	-0.1567	-0.3683	-0.3312	
0.388082	0.39894	1.00589	-39.27	9.45	7.56	-0.1623	-0.353	-0.3354	
0.381372	0.384178	0.994544	-45.99	10.99	8.33	-0.1596	-0.3499	-0.3352	
0.377468	0.36051	0.988932	-54.88	11.9	10.5	-0.1556	-0.3439	-0.3396	
0.354898	0.345626	0.986004	-60.48	12.04	11.41	-0.1545	-0.3351	-0.3504	
0.338062	0.311832	0.973194	-65.8	12.39	12.39	-0.1575	-0.3372	-0.3633	
0.341844	0.2745	0.971852	-71.89	11.83	14.14	-0.1644	-0.3045	-0.3604	
0.346724	0.24644	0.964288	-77.7	12.11	15.82	-0.1593	-0.3084	-0.378	
0.330986	0.215086	0.97295	-83.23	11.97	16.73	-0.1606	-0.2879	-0.3708	
0.3416	0.183976	0.96197	-85.82	6.72	12.18	-0.1539	-0.2916	-0.382	
0.3416	0.15738	0.945866	-91.14	10.85	15.68	-0.1624	-0.2654	-0.3873	
0.331108	0.124928	0.937082	-94.29	11.2	17.08	-0.1584	-0.2517	-0.3914	
0.327692	0.09028	0.934764	-97.44	9.31	17.01	-0.1559	-0.2444	-0.4022	
0.309514	0.050874	0.915732	-103.6	18.9	22.12	-0.1547	-0.2306	-0.4048	
0.309514	0.00549	0.886696	-107.45	16.1	23.87	-0.1535	-0.2137	-0.4072	
0.302072	-0.033672	0.882548	-110.88	15.68	24.5	-0.155	-0.2016	-0.4147	
0.287676	-0.076982	0.880718	-113.26	17.71	24.71	-0.1566	-0.1722	-0.4166	
0.270962	-0.119438	0.858026	-113.05	21.07	25.2	-0.1471	-0.1537	-0.4171	
0.265838	-0.161284	0.848022	-112.56	23.59	25.97	-0.1556	-0.1417	-0.4263	
0.217648	-0.198494	0.79727	-113.05	32.83	28.07	-0.1544	-0.1234	-0.4335	
0.204472	-0.244	0.77409	-115.15	27.09	27.23	-0.1436	-0.0986	-0.4321	
0.185074	-0.293166	0.770308	-116.69	24.92	27.93	-0.1396	-0.0958	-0.4383	
0.1708	-0.316956	0.767014	-116.34	24.43	28.7	-0.1411	-0.0711	-0.4404	
0.146034	-0.349652	0.726998	-114.38	27.02	29.4	-0.1289	-0.045	-0.4421	
0.126758	-0.40016	0.698206	-112.21	27.23	29.96	-0.1262	-0.0261	-0.4364	
0.12932	-0.4392	0.688934	-110.04	24.71	30.24	-0.1275	-0.0166	-0.4568	
0.121146	-0.460062	0.669048	-107.8	24.64	30.1	-0.125	0.0158	-0.4313	
0.102236	-0.495808	0.636474	-106.12	24.22	29.89	-0.1154	0.0345	-0.4271	
0.083692	-0.539362	0.609878	-104.09	24.15	29.4	-0.1058	0.0343	-0.4301	
0.074542	-0.58499	0.612928	-104.37	19.18	28.77	-0.1072	0.0563	-0.4243	
0.068564	-0.62403	0.596702	-104.16	17.36	28.7	-0.11	0.07979999	-0.4185	
0.05368	-0.67344	0.55327	-101.64	19.32	28.35	-0.1018	0.08899999	-0.4195	
0.030134	-0.72346	0.507764	-98.49	18.69	27.3	-0.092	0.1051	-0.4042	
-0.000732	-0.746152	0.464088	-94.5	18.48	26.53	-0.0879	0.1192	-0.4003	
-0.011102	-0.754692	0.3904	-90.86	16.24	26.39	-0.0879	0.1583	-0.3905	
0.013664	-0.764208	0.353678	-90.51	15.61	26.74	-0.0809	0.1729	-0.3753	
0.004758	-0.808372	0.342454	-91.35	13.65	25.97	-0.0698	0.1839	-0.3698	
-0.041236	-0.863638	0.310124	-88.97	15.47	25.55	-0.067	0.2028	-0.3625	
-0.109434	-0.93818	0.266448	-88.9	12.74	25.48	-0.06	0.2033	-0.3511	
-0.122366	-0.989176	0.245586	-87.5	7.7	27.23	-0.0614	0.2205	-0.3472	
-0.125416	-1.021262	0.207278	-81.34	8.26	27.65	-0.0544	0.2316	-0.3401	
-0.129076	-1.043832	0.183488	-72.8	7.49	27.02	-0.0487	0.24	-0.3252	
-0.119804	-1.008208	0.166164	-62.72	4.76	22.82	-0.0459	0.2512	-0.3167	
-0.159698	-0.974902	0.124074	-49.21	-1.89	22.61	-0.042	0.2615	-0.3273	
-0.136884	-0.996008	0.168482	-53.06	13.72	22.26	-0.0402	0.2593	-0.3066	
-0.144936	-0.99613	0.142984	-51.17	8.47	17.85	-0.0389	0.2671	-0.3046	
-0.143594	-0.991616	0.157014	-45.43	15.05	17.99	-0.0335	0.2732	-0.3074	
-0.160674	-1.038464	0.106018	-39.48	14.7	15.26	-0.0293	0.289	-0.3002	
-0.15006	-1.045418	0.147498	-39.41	6.79	12.53	-0.0319	0.2908	-0.2938	
-0.142862	-1.043222	0.14274	-37.45	9.38	10.15	-0.0277	0.2817	-0.2893	
-0.177998	-1.024434	0.130296	-27.86	10.01	7.42	-0.0209	0.2956	-0.2885	
-0.185318	-0.984784	0.09516	-17.92	14.63	7.56	-0.0236	0.2942	-0.2855	
-0.199348	-1.033096	0.105286	-18.55	8.61	7.56	-0.0207	0.2992	-0.2772	
-0.18727	-1.038464	0.134932	-25.97	-3.78	7.84	-0.0179	0.3134	-0.2717	
-0.157624	-1.02114	0.208376	-30.24	-12.25	7.63	-0.0166	0.307	-0.2768	
-0.124684	-0.99308	0.233752	-23.45	-5.46	8.96	-0.0193	0.3056	-0.2721	
-0.107116	-0.933544	0.205326	-15.33	7.77	7.14	-0.0178	0.32	-0.2618	
-0.13847	-0.935618	0.172508	-14.91	8.68	4.9	-0.0136	0.3169	-0.2619	
-0.16043	-0.958188	0.147742	-17.71	4.13	3.57	-0.0192	0.3152	-0.2669	
-0.147742	-0.981124	0.174948	-19.18	3.15	3.22	-0.0165	0.3166	-0.2683	
-0.140056	-0.973072	0.20984	-17.29	1.61	3.22	-0.0094	0.3172	-0.2538	
-0.120536	-0.945256	0.230946	-15.4	3.22	2.8	-0.0203	0.3267	-0.2504	
-0.122488	-0.921954	0.21594	-13.86	6.58	2.31	-0.0081	0.32	-0.26	
-0.142008	-0.931104	0.176656	-11.34	10.22	2.03	-0.007999999	0.3328	-0.2514	
-0.178608	-0.96014	0.159332	-13.3	6.72	2.1	-0.0121	0.333	-0.2467	
-0.153354	-0.982832	0.16165	-15.12	1.05	2.45	-0.0094	0.3265	-0.2549	
-0.119682	-0.956358	0.17751	-9.87	2.66	1.82	-0.0105	0.3241	-0.2375	
-0.155306	-0.951844	0.152866	-7.14	4.76	0.07	-0.0038	0.3377	-0.2447	
-0.149206	-0.96319	0.145546	-9.52	1.33	-0.07	-0.005	0.3382	-0.2335	
-0.143472	-0.96624	0.150304	-9.38	1.19	0.49	-0.007999999	0.3439	-0.2461	
-0.148718	-0.978806	0.14457	-8.12	3.29	1.68	-0.0023	0.3411	-0.2382	
-0.130906	-0.949892	0.140544	-6.51	2.31	0.91	-0.0051	0.33	-0.2435	
-0.137494	-0.9272	0.112728	-1.4	9.59	0.42	0.0003	0.3347	-0.2416	
-0.171288	-0.960994	0.099674	-3.08	6.02	-0.56	-0.0051	0.3286	-0.242	
-0.180804	-1.018578	0.103334	-11.76	-4.41	-1.47	-0.0036	0.3508	-0.2298	
-0.138958	-1.010282	0.142252	-12.53	-7.98	-1.75	-0.0051	0.3364	-0.24	
-0.135054	-1.002962	0.120414	-3.64	3.99	-0.21	-0.0105	0.3461	-0.2301	
-0.164578	-0.98027	0.09638	0.21	4.62	0.14	-0.0022	0.3384	-0.2287	
-0.17812	-0.948062	0.057462	1.26	4.76	0.77	-0.0078	0.3301	-0.242	
-0.183	-0.987468	0.054656	-3.29	-2.66	0.98	-0.0133	0.3335	-0.2371	
-0.156404	-1.000278	0.089548	-7.35	-9.24	-0.28	0.0018	0.3414	-0.2301	
-0.132858	-0.989908	0.10553	-0.42	-1.68	0.42	-0.0049	0.3431	-0.2285	
-0.155794	-0.970632	0.081984	4.34	3.08	0.63	-0.0019	0.3373	-0.2175	
-0.168116	-0.98515	0.082594	4.55	1.33	-0.35	-0.0038	0.3378	-0.2431	
-0.158234	-1.002352	0.08479	1.89	-2.17	-0.63	-0.0065	0.3379	-0.2416	
-0.143106	-1.00589	0.104676	0.35	-6.16	-0.91	-0.0036	0.3446	-0.2284	
-0.142984	-1.001986	0.10492	4.97	-2.52	-1.19	-0.0118	0.3306	-0.2308	
-0.16226	-0.990884	0.096502	7.77	-0.14	-1.47	-0.0036	0.3383	-0.2303	
-0.158356	-0.996008	0.086498	6.65	-2.24	-2.45	-0.0092	0.3412	-0.2367	
-0.148718	-1.013332	0.111386	4.83	-6.37	-2.52	-0.0092	0.3285	-0.2437	
-0.143106	-0.99918	0.119072	8.54	-4.97	-2.52	-0.0063	0.3446	-0.2285	
-0.139446	-0.969046	0.10736	14.35	-1.33	-2.31	-0.0048	0.3277	-0.226	
-0.15311	-0.9577	0.094306	15.47	0.42	-2.8	-0.0053	0.3329	-0.2498	
-0.149572	-0.980514	0.103944	11.83	-5.32	-4.2	-0.0134	0.3332	-0.2419	
-0.152744	-0.992348	0.12444	9.17	-9.59	-4.13	-0.0121	0.3346	-0.2466	
-0.142374	-0.991006	0.12932	12.39	-7.98	-4.13	-0.0094	0.3267	-0.2501	
-0.14457	-0.993812	0.127368	16.24	-5.88	-4.2	-0.0149	0.3266	-0.2519	
-0.145546	-0.978806	0.131638	17.5	-7.77	-4.83	-0.0093	0.3315	-0.2467	
-0.13481	-0.970876	0.150182	17.36	-9.8	-4.9	-0.0135	0.3299	-0.2485	
-0.129076	-0.972584	0.170312	16.66	-11.13	-5.95	-0.0121	0.3298	-0.2501	
-0.126514	-0.95831	0.179462	18.41	-10.57	-7.07	-0.0205	0.3216	-0.2618	
-0.111874	-0.953186	0.187392	20.09	-10.22	-8.19	-0.0191	0.3077	-0.2608	
-0.122732	-0.958554	0.198128	18.97	-8.61	-7.63	-0.026	0.3137	-0.2655	
-0.121024	-0.96624	0.195444	19.81	-7.98	-9.03	-0.0218	0.3171	-0.2572	
-0.111386	-0.970022	0.22082	20.65	-8.82	-8.82	-0.0206	0.3104	-0.2687	
-0.112728	-0.961482	0.224724	22.54	-7.28	-8.96	-0.0343	0.3168	-0.2671	
-0.114192	-0.94001	0.223382	25.41	-5.74	-9.73	-0.03	0.3094	-0.2594	
-0.101382	-0.932202	0.240828	24.08	-6.16	-9.73	-0.0344	0.3104	-0.2706	
-0.09028	-0.93574	0.25376	21.98	-6.02	-10.01	-0.033	0.2946	-0.2777	
-0.080032	-0.925736	0.27572	21.84	-5.32	-9.24	-0.0317	0.2977	-0.2775	
-0.07381	-0.91927	0.279136	23.03	-1.68	-8.12	-0.0318	0.2957	-0.2872	
-0.072834	-0.914268	0.282064	22.89	-0.35	-8.12	-0.0361	0.2955	-0.2937	
-0.07869	-0.913048	0.291092	21.63	-1.47	-8.19	-0.0387	0.288	-0.2877	
-0.08723	-0.894748	0.30012	21.42	-3.29	-8.68	-0.0387	0.2927	-0.2859	
-0.0732	-0.88877	0.331718	19.53	-6.72	-9.17	-0.0413	0.2866	-0.2846	
-0.049166	-0.876326	0.343918	17.15	-7	-8.96	-0.043	0.2923	-0.2956	
-0.023912	-0.86193	0.345504	14.49	-5.32	-8.61	-0.047	0.2862	-0.2943	
-0.030866	-0.885476	0.357704	10.22	-1.61	-7	-0.0361	0.2891	-0.2988	
-0.0305	-0.899506	0.359412	7.56	-2.66	-6.44	-0.0539	0.2784	-0.2964	
-0.030134	-0.897188	0.36844	6.09	-1.61	-6.37	-0.0512	0.283	-0.2978	
-0.032086	-0.89304	0.374296	5.11	-1.54	-6.86	-0.0526	0.2814	-0.2995	
-0.02013	-0.886086	0.375516	4.13	0.14	-6.02	-0.0471	0.272	-0.3014	
-0.01891	-0.887794	0.3721	3.15	3.29	-5.11	-0.0499	0.275	-0.3029	
-0.011712	-0.889136	0.369172	1.05	2.8	-4.62	-0.0512	0.2705	-0.2999	
-0.017812	-0.894748	0.354044	1.26	2.8	-4.27	-0.0499	0.2844	-0.3009	
-0.019764	-0.90402	0.35319	1.89	2.52	-3.64	-0.0525	0.2769	-0.2965	
-0.02562	-0.924028	0.361608	2.87	3.99	-2.45	-0.0484	0.272	-0.3014	
-0.023546	-0.927078	0.35197	3.99	5.18	-1.75	-0.0429	0.2721	-0.2981	
-0.036966	-0.911828	0.339404	3.64	6.3	-1.05	-0.0499	0.2843	-0.3025	
-0.041846	-0.911584	0.333792	2.59	5.6	-0.56	-0.0513	0.2671	-0.3081	
-0.048434	-0.921466	0.326228	1.61	4.48	-0.42	-0.0486	0.2717	-0.3078	
-0.044896	-0.918904	0.31781	1.89	2.94	-0.14	-0.0498	0.2689	-0.3016	
-0.048068	-0.911828	0.318298	0.84	1.68	-0.14	-0.0403	0.2655	-0.3063	
-0.0488	-0.918538	0.316468	0.91	0.77	-0.28	-0.0513	0.2702	-0.3063	
-0.048556	-0.927444	0.315736	0.56	-0.21	-0.21	-0.0485	0.2749	-0.3061	
-0.054534	-0.926102	0.32513	-0.35	-1.68	0.14	-0.0555	0.2826	-0.3075	
-0.054534	-0.927932	0.32757	-0.14	-2.03	0.42	-0.0542	0.2698	-0.3176	
-0.052216	-0.926346	0.332084	-0.84	-2.52	1.12	-0.043	0.267	-0.3079	
-0.045628	-0.919514	0.326594	-0.35	-1.33	1.68	-0.0541	0.27	-0.3128	
-0.045384	-0.919758	0.3233	-0.56	-0.56	1.54	-0.0484	0.2657	-0.3033	
-0.052216	-0.926956	0.322812	-0.35	-0.63	1.19	-0.039	0.2732	-0.3075	
-0.051484	-0.921466	0.327082	-0.42	-1.05	1.19	-0.0579	0.2739	-0.2951	
-0.042822	-0.919758	0.333914	-0.84	-1.05	1.12	-0.0583	0.2825	-0.3107	
-0.043188	-0.920612	0.33367	-0.91	-0.28	1.19	-0.0431	0.2841	-0.3071	
-0.053436	-0.923906	0.323666	-1.05	0.56	1.05	-0.0471	0.2719	-0.303	
-0.061	-0.922686	0.320738	-0.84	0.42	1.12	-0.043	0.2797	-0.3025	
-0.058926	-0.927566	0.317444	-0.56	-0.35	1.19	-0.0458	0.2732	-0.3077	
-0.058316	-0.927688	0.325496	-0.56	-0.63	0.84	-0.047	0.2816	-0.2929	
-0.055754	-0.929152	0.322324	0.21	-0.35	0.63	-0.0513	0.2827	-0.3042	
-0.050874	-0.927078	0.316346	0.91	-0.07	0.56	-0.0472	0.2591	-0.3115	
-0.05612	-0.92659	0.319762	1.33	-0.49	0.21	-0.0554	0.278	-0.3061	
-0.055632	-0.919636	0.325252	1.33	-0.56	0.21	-0.0497	0.2738	-0.2966	
-0.050142	-0.91988	0.32269	1.26	-0.35	0.14	-0.0428	0.277	-0.2931	
-0.055632	-0.927688	0.32147	1.54	-0.14	-0.14	-0.0474	0.2713	-0.3174	
-0.055876	-0.923052	0.318908	2.31	-0.07	-0.42	-0.0554	0.2765	-0.3045	
-0.052338	-0.918294	0.325618	2.17	-0.56	-0.63	-0.0541	0.2701	-0.3096	
-0.048556	-0.92049	0.328912	1.68	-0.63	-0.98	-0.0444	0.275	-0.3028	
-0.053924	-0.922808	0.327692	1.82	-0.28	-0.98	-0.0472	0.2843	-0.3024	
-0.065514	-0.931104	0.326472	1.89	-0.28	-0.84	-0.0458	0.2687	-0.3063	
-0.052704	-0.91866	0.325008	2.1	-1.05	-0.28	-0.0554	0.2687	-0.3065	
-0.039162	-0.921954	0.330742	1.75	-1.05	-0.63	-0.0446	0.2728	-0.3173	
-0.045994	-0.925492	0.329644	1.82	-0.7	-0.91	-0.0432	0.273	-0.3124	
-0.058438	-0.925736	0.330254	2.45	-0.56	-0.63	-0.0527	0.2858	-0.3057	
-0.054656	-0.91988	0.33306	2.94	-0.7	-0.07	-0.0514	0.2699	-0.3143	
-0.04636	-0.917806	0.331718	2.66	-0.91	0	-0.046	0.2697	-0.3174	
-0.041602	-0.917928	0.332572	2.31	-1.33	-0.14	-0.0459	0.2778	-0.3107	
-0.042578	-0.923784	0.337452	2.24	-1.82	-0.35	-0.0554	0.2733	-0.3079	
-0.05246	-0.926224	0.340868	2.8	-1.75	-0.14	-0.0499	0.2609	-0.3083	
-0.051606	-0.920246	0.341478	3.08	-1.47	0.84	-0.0555	0.2685	-0.3113	
-0.04941	-0.917806	0.343796	2.87	-1.75	1.26	-0.054	0.2718	-0.3063	
-0.04697	-0.910852	0.341478	2.94	-1.75	1.61	-0.0472	0.2686	-0.3079	
-0.04575	-0.906948	0.345016	2.73	-1.75	1.61	-0.0541	0.267	-0.3097	
-0.04636	-0.909388	0.346724	2.59	-1.82	1.54	-0.0459	0.2683	-0.3143	
-0.05795	-0.91256	0.34343	2.66	-1.61	1.4	-0.0459	0.2606	-0.313	
-0.058804	-0.909876	0.34343	2.31	-2.03	1.26	-0.0554	0.2687	-0.3065	
-0.050874	-0.91073	0.346114	2.17	-2.52	0.63	-0.0528	0.2667	-0.3177	
-0.031842	-0.91134	0.342942	2.17	-2.17	0.14	-0.0431	0.2716	-0.3093	
-0.02928	-0.907924	0.360388	1.05	-2.73	-0.28	-0.0568	0.2701	-0.3097	
-0.034648	-0.915732	0.35807	1.05	-1.4	-0.14	-0.0541	0.2638	-0.3115	
-0.031598	-0.928542	0.35868	0.42	-1.61	0.42	-0.0513	0.2561	-0.3102	
-0.03111	-0.928176	0.358436	0.28	-1.12	1.68	-0.0583	0.2684	-0.3146	
-0.02928	-0.935374	0.360266	0.28	-0.77	3.29	-0.0542	0.2636	-0.3163	
-0.029768	-0.939888	0.350994	1.96	0	5.46	-0.0541	0.267	-0.3097	
-0.020984	-0.939278	0.33977	3.36	0.07	7.7	-0.0514	0.2652	-0.3146	
-0.016104	-0.937448	0.342698	4.48	0.21	9.52	-0.0445	0.2638	-0.3113	
-0.029158	-0.936594	0.341844	5.18	0.28	11.34	-0.0502	0.2712	-0.3207	
-0.035014	-0.929274	0.34404	5.88	-0.7	13.65	-0.0514	0.2683	-0.3144	
-0.052216	-0.936594	0.342454	6.72	-1.26	15.47	-0.0375	0.2671	-0.3046	
-0.057828	-0.935252	0.343918	6.93	-2.94	17.08	-0.0498	0.2642	-0.3034	
-0.061	-0.921832	0.351238	6.16	-4.41	18.2	-0.0419	0.2696	-0.3205	
-0.063318	-0.91805	0.3477	6.3	-6.16	18.27	-0.0417	0.2655	-0.3079	
-0.050508	-0.927322	0.351848	7.98	-7.42	18.41	-0.0419	0.254	-0.3212	
-0.059658	-0.90707	0.355752	10.22	-6.02	19.81	-0.0419	0.2601	-0.3242	
-0.077104	-0.924638	0.35929	11.48	-5.74	20.86	-0.0351	0.26	-0.3256	
-0.074054	-0.927932	0.365024	11.62	-6.37	21.77	-0.0379	0.2553	-0.3275	
-0.072224	-0.932568	0.373442	12.81	-6.09	23.59	-0.0309	0.2476	-0.3245	
-0.069418	-0.932446	0.37027	15.68	-4.34	25.62	-0.0295	0.265	-0.3173	
-0.077348	-0.915854	0.367464	17.99	-2.31	28.07	-0.027	0.2549	-0.3337	
-0.093696	-0.89914	0.362828	19.18	0.14	30.1	-0.0242	0.2472	-0.334	
-0.108946	-0.914024	0.371002	19.18	-1.12	31.29	-0.0284	0.244	-0.3374	
-0.112362	-0.913414	0.379786	19.11	-2.52	33.95	-0.0228	0.2456	-0.334	
-0.104798	-0.905606	0.38735	20.51	-2.52	36.47	-0.0215	0.2393	-0.3358	
-0.112606	-0.884012	0.38857	23.52	1.33	38.71	-0.0092	0.2407	-0.3387	
-0.136518	-0.85888	0.398696	26.74	5.74	40.11	-0.0119	0.2438	-0.3386	
-0.178608	-0.857904	0.397232	28.98	8.54	40.39	0.0019	0.2348	-0.3308	
-0.200446	-0.850462	0.402722	28.14	2.87	40.39	0.0059	0.2218	-0.3424	
-0.206668	-0.855342	0.436882	25.9	-3.22	41.16	0.0043	0.2292	-0.3501	
-0.22326	-0.835456	0.44713	27.86	-2.38	40.67	0.0111	0.2212	-0.3551	
-0.24766	-0.825818	0.461038	29.4	-1.47	40.11	0.0153	0.2213	-0.3534	
-0.268644	-0.809836	0.465064	29.96	-1.12	39.76	0.0208	0.223	-0.3484	
-0.27938	-0.80154	0.479216	29.4	-1.89	39.69	0.0165	0.2099	-0.3651	
-0.288164	-0.780068	0.500566	29.54	-3.22	40.11	0.0247	0.2113	-0.3681	
-0.290238	-0.765062	0.507398	30.1	-0.7	40.81	0.0289	0.2101	-0.36	
-0.291092	-0.754692	0.517036	30.24	0.63	40.95	0.0303	0.2053	-0.3634	
-0.302194	-0.739808	0.52582	31.57	2.45	40.67	0.0371	0.1894	-0.372	
-0.327326	-0.732854	0.527528	31.29	3.36	39.69	0.0317	0.1897	-0.3657	
-0.333426	-0.716872	0.53985	30.66	3.36	38.85	0.0356	0.1844	-0.3786	
-0.331718	-0.69601	0.55205	30.1	4.41	38.36	0.034	0.184	-0.3883	
-0.34892	-0.682102	0.563518	29.47	5.95	37.45	0.0493	0.189	-0.3781	
-0.365268	-0.678564	0.5734	29.12	7.14	36.47	0.0464	0.1777	-0.3899	
-0.36661	-0.673562	0.571814	29.61	7.91	35.77	0.0504	0.168	-0.3982	
-0.370758	-0.663802	0.589504	28.35	7.49	34.86	0.0562	0.1623	-0.3856	
-0.402112	-0.645014	0.583282	27.16	8.33	32.41	0.0616	0.1512	-0.3908	
-0.416264	-0.629032	0.588772	25.69	8.61	31.29	0.0657	0.1465	-0.3925	
-0.44286	-0.63989	0.601582	24.29	7	30.1	0.0712	0.1353	-0.3993	
-0.448716	-0.634644	0.60268	23.8	6.72	29.75	0.0708	0.1422	-0.4181	
-0.450058	-0.629642	0.597678	23.59	6.93	30.17	0.0699	0.1466	-0.3876	
-0.45506	-0.627324	0.599874	23.38	6.86	29.68	0.0753	0.1259	-0.4012	
-0.456646	-0.60146	0.592554	22.75	7.28	28.84	0.07669999	0.1274	-0.4011	
-0.461404	-0.581086	0.597434	21.28	7.42	28.21	0.08199999	0.1208	-0.4109	
-0.472262	-0.578158	0.605974	20.09	7.42	27.86	0.0847	0.1143	-0.4175	
-0.493856	-0.580232	0.613904	19.39	7.7	27.44	0.086	0.1157	-0.4206	
-0.508008	-0.570716	0.620492	19.04	8.12	27.02	0.1002	0.112	-0.3965	
-0.521306	-0.566934	0.613538	18.2	8.54	26.18	0.0916	0.1144	-0.4125	
-0.521794	-0.556808	0.61549	18.13	8.33	25.76	0.0889	0.1051	-0.413	
-0.530334	-0.55266	0.612684	18.41	8.89	25.27	0.0971	0.1081	-0.4159	
-0.530456	-0.539728	0.612806	18.69	7.63	24.15	0.1082	0.099	-0.4097	
-0.52704	-0.524478	0.612928	18.83	6.37	23.03	0.1082	0.0973	-0.4114	
-0.537776	-0.518012	0.622688	18.62	6.02	22.68	0.1055	0.0849	-0.412	
-0.566202	-0.514596	0.624518	19.53	7.28	22.05	0.1025	0.0827	-0.4281	
-0.571692	-0.511302	0.615002	19.67	7.42	21.77	0.1055	0.0772	-0.4123	
-0.573888	-0.512034	0.617686	19.32	5.39	22.33	0.1094	0.0796	-0.4265	
-0.586332	-0.498126	0.62037	19.39	5.6	21.56	0.1054	0.0769	-0.4187	
-0.60146	-0.496906	0.620736	19.11	5.95	20.58	0.1178	0.0737	-0.4186	
-0.61305	-0.49288	0.620004	19.25	5.11	19.67	0.1152	0.0631	-0.4144	
-0.611342	-0.479704	0.621102	18.97	4.13	19.32	0.1221	0.0584	-0.4144	
-0.61427	-0.462868	0.620004	18.62	5.04	18.48	0.1177	0.0548	-0.4275	
-0.627568	-0.472018	0.62281	19.67	3.29	16.94	0.126	0.0532	-0.4274	
-0.615368	-0.437492	0.625372	20.51	1.61	16.17	0.1193	0.0505	-0.418	
-0.611342	-0.424438	0.640988	20.02	1.47	15.19	0.1233	0.0518	-0.4227	
-0.630984	-0.419314	0.649162	19.88	1.75	14.14	0.1275	0.0425	-0.423	
-0.624518	-0.408578	0.641354	19.39	1.54	13.23	0.1247	0.0377	-0.4265	
-0.61366	-0.402112	0.653798	17.71	0.07	13.16	0.1277	0.0289	-0.414	
-0.630862	-0.389058	0.668438	15.75	0.77	12.32	0.1233	0.0314	-0.43	
-0.620126	-0.38125	0.68991	14.28	-1.4	11.83	0.1248	0.0285	-0.4253	
-0.62769	-0.358436	0.690886	13.58	-0.56	10.5	0.1315	0.0171	-0.4113	
-0.630984	-0.360876	0.683078	12.74	-0.7	8.75	0.1288	0.0265	-0.4333	
-0.62403	-0.363072	0.687226	10.64	-1.82	6.72	0.1301	0.0155	-0.437	
-0.619272	-0.360998	0.695644	10.5	-1.4	5.53	0.1233	0.0125	-0.4356	
-0.60817	-0.350262	0.692594	9.1	-0.21	4.34	0.1276	0.0222	-0.4255	
-0.58682	-0.344406	0.68991	7.35	-0.42	3.08	0.126	0.0219	-0.4336	
-0.601216	-0.361486	0.685518	7.35	2.03	1.96	0.1249	0.0131	-0.4228	
-0.633546	-0.358802	0.671366	8.61	4.13	0.91	0.118	0.0082	-0.4296	
-0.625738	-0.360266	0.692838	8.26	1.89	0.56	0.1221	0.0114	-0.4261	
-0.604022	-0.355142	0.702842	6.72	1.68	0.28	0.1233	0.011	-0.4357	
-0.61305	-0.354898	0.698938	6.02	4.27	-0.21	0.129	0.005	-0.4295	
-0.62647	-0.35258	0.699792	5.25	3.43	-0.77	0.1263	0.0021	-0.4265	
-0.644404	-0.352702	0.680394	5.18	2.38	-1.68	0.1329	-0.0017	-0.4425	
-0.680394	-0.347944	0.679174	5.88	-1.05	-3.01	0.1345	0.0034	-0.4294	
-0.662216	-0.347578	0.683078	6.02	-4.76	-4.06	0.118	0.002	-0.4299	
-0.65392	-0.328424	0.678442	4.97	-4.06	-4.97	0.1276	0.0066	-0.4294	
-0.65392	-0.314272	0.707966	3.36	-6.79	-6.3	0.1373	0.0052	-0.4245	
-0.658556	-0.32147	0.71553	1.12	-8.61	-7.77	0.1344	0.005	-0.4294	
-0.646478	-0.328302	0.702964	-0.84	-8.54	-9.59	0.1301	0.0045	-0.4423	
-0.656116	-0.33245	0.694058	-2.24	-7.21	-12.11	0.1302	0.0016	-0.436	
-0.668804	-0.347456	0.686494	-2.87	-8.26	-14.42	0.1262	0.0036	-0.428	
-0.664412	-0.350384	0.697108	-3.85	-11.06	-16.17	0.1262	0.0081	-0.4294	
-0.65758	-0.342698	0.7015	-3.92	-13.79	-18.76	0.108	0.0075	-0.4474	
-0.658434	-0.33733	0.70821	-5.25	-16.94	-20.93	0.1179	0.0128	-0.4566	
-0.641598	-0.329522	0.700646	-6.86	-17.43	-23.24	0.1181	0.0068	-0.4248	
-0.629276	-0.336354	0.695278	-9.45	-17.15	-26.04	0.1178	0.0141	-0.4357	
-0.636352	-0.35319	0.69662	-10.5	-18.34	-27.79	0.1082	0.0111	-0.436	
-0.619638	-0.352458	0.702598	-12.18	-21.49	-28.98	0.1137	0.0236	-0.4322	
-0.602436	-0.358314	0.698694	-14	-23.1	-30.8	0.1012	0.0232	-0.442	
-0.58255	-0.376004	0.699182	-16.03	-23.03	-33.88	0.0889	0.0298	-0.4356	
-0.575474	-0.391376	0.698572	-17.01	-23.31	-35.21	0.0901	0.0263	-0.4437	
-0.566324	-0.401502	0.705648	-17.71	-23.66	-36.61	0.0875	0.0234	-0.4391	
-0.54351	-0.397964	0.702476	-18.97	-24.01	-38.64	0.0764	0.0373	-0.4419	
-0.520574	-0.40931	0.701134	-20.02	-25.06	-40.95	0.067	0.0442	-0.429	
-0.529114	-0.41663	0.701378	-20.23	-24.08	-43.33	0.0669	0.0362	-0.4342	
-0.532286	-0.427488	0.685396	-21.21	-26.04	-46.34	0.0613	0.0516	-0.4368	
-0.49776	-0.439932	0.68686	-23.94	-25.76	-46.97	0.0545	0.0612	-0.4317	
-0.484828	-0.460428	0.686616	-24.92	-25.27	-48.44	0.0613	0.0609	-0.4364	
-0.449326	-0.480558	0.673684	-25.34	-28.21	-51.45	0.0379	0.0626	-0.4368	
-0.421876	-0.48617	0.681004	-26.18	-29.19	-54.67	0.0367	0.0709	-0.4237	
-0.414312	-0.50691	0.681492	-26.67	-27.86	-58.31	0.0283	0.0768	-0.4316	
-0.390888	-0.529358	0.670756	-25.62	-26.39	-61.25	0.0217	0.0727	-0.4208	
-0.36417	-0.535336	0.669414	-26.04	-28.7	-63	0.016	0.0832	-0.43	
-0.325008	-0.552172	0.681126	-26.32	-30.17	-64.75	0.0092	0.0865	-0.4252	
-0.299754	-0.593774	0.692716	-25.55	-30.59	-66.85	-0.0045	0.0866	-0.4255	
-0.227164	-0.633668	0.669536	-25.62	-36.33	-71.68	-0.0057	0.09779999	-0.417	
-0.15311	-0.616954	0.68259	-24.01	-26.53	-71.4	-0.0169	0.09429999	-0.427	
-0.152988	-0.601826	0.621834	-19.32	-22.33	-76.02	-0.0278	0.0977	-0.4223	
-0.1464	-0.606584	0.646966	-20.37	-27.3	-79.38	-0.0333	0.1008	-0.4239	
-0.125782	-0.646966	0.618296	-19.88	-24.01	-81.55	-0.04	0.1045	-0.4111	
-0.07503	-0.664168	0.610976	-21	-29.12	-81.83	-0.0524	0.106	-0.4129	
-0.024278	-0.658312	0.637938	-21.28	-31.64	-80.92	-0.048	0.1113	-0.3981	
-0.000244	-0.646966	0.61854	-20.44	-26.25	-81.06	-0.0648	0.1122	-0.3888	
0.018178	-0.642452	0.588894	-18.83	-23.31	-81.69	-0.0744	0.1171	-0.4112	
0.018056	-0.647942	0.557784	-17.5	-24.78	-82.32	-0.0743	0.1125	-0.4098	
0.050874	-0.655628	0.571204	-19.25	-30.87	-80.36	-0.0879	0.1144	-0.4037	
0.079422	-0.682224	0.585722	-18.62	-33.04	-78.61	-0.09209999	0.1206	-0.4035	
0.10309	-0.666486	0.577304	-14.56	-30.45	-77.07	-0.1015	0.1195	-0.3957	
0.14274	-0.657946	0.555954	-11.48	-30.38	-76.23	-0.1167	0.1147	-0.3995	
0.176778	-0.654652	0.572668	-12.46	-32.06	-74.27	-0.118	0.1086	-0.3982	
0.271572	-0.684176	0.591456	-13.65	-26.46	-67.9	-0.1411	0.1094	-0.3843	
0.174094	-0.662094	0.490562	-2.52	-29.68	-74.83	-0.1481	0.1105	-0.394	
0.232898	-0.675758	0.60878	-16.8	-60.2	-76.86	-0.1562	0.1046	-0.388	
0.312686	-0.667584	0.6344	-22.54	-61.39	-75.74	-0.1754	0.1048	-0.3868	
0.359046	-0.67832	0.627812	-23.52	-55.93	-73.64	-0.1862	0.1037	-0.3775	
0.372832	-0.66002	0.584624	-25.27	-49.14	-71.47	-0.1916	0.0994	-0.3714	
0.405406	-0.636108	0.532042	-26.88	-46.83	-70.84	-0.2026	0.1009	-0.3732	
0.454206	-0.640378	0.531798	-30.8	-47.67	-71.75	-0.2203	0.0919	-0.3692	
0.518744	-0.673562	0.543998	-33.11	-47.74	-74.2	-0.2174	0.0953	-0.3626	
0.569496	-0.69479	0.537532	-27.58	-41.23	-75.32	-0.2337	0.099	-0.3516	
0.590968	-0.681614	0.501542	-21.49	-32.9	-76.16	-0.2376	0.0995	-0.3405	
0.600362	-0.68625	0.467992	-18.83	-30.45	-77.14	-0.2404	0.0838	-0.3445	
0.612684	-0.71065	0.489342	-21.28	-32.27	-77.07	-0.2458	0.0746	-0.3434	
0.602192	-0.683932	0.492026	-14.42	-28.35	-74.83	-0.2567	0.0764	-0.3388	
0.608902	-0.691008	0.472018	-6.09	-22.26	-72.73	-0.2634	0.0752	-0.3326	
0.621346	-0.69418	0.463234	-0.49	-18.06	-66.99	-0.2703	0.07669999	-0.3342	
0.636962	-0.671488	0.45323	-1.96	-19.67	-59.85	-0.2798	0.0614	-0.3319	
0.651114	-0.642818	0.442738	-0.7	-20.3	-55.3	-0.2853	0.0552	-0.3339	
0.670756	-0.601948	0.446154	-0.35	-20.86	-50.82	-0.2798	0.0505	-0.358	
0.703818	-0.597556	0.464332	-7.77	-22.54	-49	-0.2905	0.0512	-0.3199	
0.704062	-0.599264	0.468114	-4.62	-17.64	-44.8	-0.2934	0.0399	-0.33	
0.682102	-0.58133	0.454938	1.96	-17.22	-42.35	-0.2919	0.0355	-0.3238	
0.69906	-0.557418	0.45445	-0.21	-17.5	-38.43	-0.3068	0.0376	-0.3128	
0.697108	-0.55571	0.444934	0	-16.59	-35.42	-0.3015	0.0309	-0.3242	
0.718458	-0.548634	0.45628	-3.43	-18.06	-32.76	-0.3107	0.0209	-0.3057	
0.727608	-0.550464	0.437248	-0.14	-16.45	-29.82	-0.3135	0.0254	-0.3103	
0.735294	-0.573034	0.434686	3.08	-17.64	-27.79	-0.3136	0.0159	-0.314	
0.734806	-0.56547	0.462258	-3.08	-20.37	-24.92	-0.3162	0.0209	-0.3074	
0.748714	-0.520086	0.439322	1.82	-16.8	-22.4	-0.319	0.009699999	-0.3144	
0.744932	-0.517402	0.428952	1.19	-15.4	-19.6	-0.3121	0.0099	-0.311	
0.746152	-0.524844	0.418826	-4.76	-20.3	-17.15	-0.3256	0.0074	-0.2986	
0.754082	-0.526552	0.428342	-9.73	-20.02	-11.83	-0.323	0.0038	-0.3099	
0.79056	-0.528382	0.425902	-3.85	-18.06	-9.45	-0.3228	0.006	-0.2954	
0.759084	-0.524234	0.404308	3.43	-13.02	-6.79	-0.3241	0.0029	-0.2956	
0.763598	-0.51911	0.39711	-1.75	-15.82	-7.84	-0.3379	-0.0003	-0.3009	
0.790316	-0.497272	0.39467	-4.69	-14.42	-5.53	-0.335	0.0001	-0.2896	
0.788242	-0.485194	0.370758	0.42	-12.39	-6.93	-0.3309	0.0125	-0.2889	
0.79117	-0.492148	0.361852	-0.91	-11.9	-7.56	-0.339	-0.0075	-0.2884	
0.804224	-0.512156	0.354776	-1.05	-14.42	-7.14	-0.339	-0.0026	-0.2834	
0.81496	-0.498492	0.37942	-6.16	-14.98	-6.09	-0.3334	0.0083	-0.278	
0.821548	-0.49471	0.379054	-3.85	-11.83	-6.23	-0.3405	-0.0029	-0.2898	
0.835212	-0.49776	0.371124	0.28	-9.1	-6.93	-0.3443	0.0008	-0.2754	
0.826672	-0.479216	0.392962	-3.71	-7.42	-7.07	-0.3486	0.0036	-0.2817	
0.834602	-0.476166	0.361974	3.92	0.28	-8.75	-0.3473	0.0035	-0.2849	
0.826062	-0.497882	0.34648	2.17	3.01	-9.1	-0.3485	-0.0056	-0.2822	
0.799466	-0.473604	0.346358	-3.15	3.71	-6.16	-0.3444	-0.0041	-0.2836	
0.799466	-0.48129	0.347822	-10.22	2.03	-5.74	-0.3444	-0.0055	-0.2805	
0.80459	-0.496052	0.35868	-9.73	3.71	-3.64	-0.3445	0.002	-0.2833	
0.775676	-0.48434	0.316712	-1.75	6.16	-2.59	-0.3388	-0.0037	-0.2739	
0.79239	-0.518988	0.313662	-7.63	0.28	-2.31	-0.3376	-0.0041	-0.2819	
0.809714	-0.503738	0.340502	-11.76	-3.92	1.26	-0.3403	-0.0088	-0.2837	
0.821914	-0.490318	0.355386	-9.1	-3.36	2.8	-0.3443	-0.0133	-0.2808	
0.801296	-0.493002	0.349652	-5.25	-0.28	3.85	-0.3389	-0.0009999999	-0.2817	
0.804102	-0.500688	0.339892	-8.68	-0.98	5.39	-0.3388	0.0024	-0.2736	
0.817156	-0.499224	0.352824	-12.6	-2.94	7.7	-0.3472	0.0006	-0.2802	
0.838872	-0.503006	0.34526	-10.08	-0.7	9.24	-0.3375	0.0069	-0.275	
0.821182	-0.517768	0.342332	-8.19	2.31	9.45	-0.3444	0.0052	-0.28	
0.80886	-0.521672	0.339038	-8.68	2.24	10.71	-0.3321	0.009699999	-0.2811	
0.82289	-0.524478	0.348066	-10.92	0.56	12.88	-0.3294	0.0159	-0.2824	
0.835456	-0.532286	0.358558	-12.18	1.54	15.4	-0.3444	0.0147	-0.3004	
0.835456	-0.540338	0.360022	-13.09	3.71	17.43	-0.3431	0.024	-0.2743	
0.838994	-0.537532	0.366366	-13.09	7.98	18.62	-0.3471	0.0306	-0.2661	
0.818864	-0.550464	0.354532	-10.5	12.67	20.23	-0.3309	0.0219	-0.2869	
0.790194	-0.590236	0.34648	-13.09	14.42	25.48	-0.3322	0.0298	-0.2818	
0.803248	-0.567056	0.339282	-10.85	17.36	28.49	-0.3269	0.0405	-0.286	
0.782264	-0.562054	0.343552	-11.69	18.2	30.24	-0.3269	0.0388	-0.2893	
0.767502	-0.580842	0.350018	-13.44	17.22	32.2	-0.3145	0.0436	-0.284	
0.76128	-0.597678	0.355508	-14.91	17.29	35.49	-0.3242	0.0466	-0.2872	
0.769576	-0.60207	0.352458	-14.84	18.41	38.99	-0.312	0.0492	-0.2965	
0.7442	-0.615856	0.366732	-14.35	22.33	40.67	-0.3189	0.054	-0.2932	
0.698694	-0.60756	0.333792	-7.63	27.37	44.1	-0.3081	0.0692	-0.2987	
0.701622	-0.61671	0.340136	-13.65	23.17	47.81	-0.3081	0.0677	-0.2987	
0.710772	-0.63989	0.357582	-15.96	21.77	51.45	-0.3012	0.077	-0.2982	
0.695766	-0.680516	0.374418	-17.43	22.82	55.65	-0.2945	0.0892	-0.3006	
0.645136	-0.699304	0.366122	-12.04	27.72	59.22	-0.2947	0.0982	-0.3082	
0.622444	-0.688812	0.340624	-7.63	28.91	61.81	-0.2864	0.1013	-0.3063	
0.584624	-0.69845	0.334646	-6.37	24.08	61.67	-0.274	0.1139	-0.2991	
0.609146	-0.656726	0.312198	-7.07	4.9	51.94	-0.2756	0.1196	-0.3116	
0.625372	-0.696132	0.374906	-8.12	9.24	55.65	-0.2715	0.1291	-0.3063	
0.551562	-0.72407	0.346968	1.54	25.13	59.64	-0.2631	0.1309	-0.2981	
0.541802	-0.756888	0.364048	-0.14	20.37	60.69	-0.2635	0.1347	-0.3187	
0.517402	-0.770064	0.379908	0.35	20.09	62.37	-0.2552	0.1395	-0.3135	
0.473116	-0.757376	0.364536	4.83	24.43	62.44	-0.2413	0.1492	-0.3032	
0.457134	-0.750056	0.346602	4.27	22.75	62.3	-0.2401	0.1567	-0.3076	
0.42761	-0.773968	0.38979	0.42	18.06	61.81	-0.2252	0.1577	-0.3184	
0.411994	-0.814106	0.416264	1.61	18.62	61.74	-0.224	0.1558	-0.3265	
0.349774	-0.81679	0.433954	3.15	22.05	62.02	-0.2143	0.167	-0.3178	
0.308416	-0.831796	0.438224	3.92	21.7	64.19	-0.2088	0.1793	-0.3171	
0.292312	-0.823134	0.422852	5.6	23.03	65.31	-0.2008	0.182	-0.3264	
0.27572	-0.792878	0.429806	5.81	23.8	65.31	-0.1995	0.1802	-0.3312	
0.252052	-0.792268	0.418704	3.08	21.84	65.73	-0.1872	0.1879	-0.3306	
0.226554	-0.774578	0.41846	-0.07	18.97	66.08	-0.1789	0.1816	-0.3323	
0.1952	-0.748348	0.409188	-4.97	16.17	65.59	-0.1664	0.1867	-0.3206	
0.188124	-0.782508	0.465552	-19.6	15.33	69.23	-0.1665	0.2004	-0.3248	
0.160918	-0.811544	0.398574	-21	20.23	74.55	-0.1461	0.2142	-0.3269	
0.147864	-0.868518	0.415654	-25.06	14.84	75.11	-0.131	0.2187	-0.3264	
0.118096	-0.868884	0.377346	-19.18	14.35	74.06	-0.1336	0.2222	-0.3183	
0.093086	-0.886818	0.378444	-16.45	11.9	71.89	-0.1242	0.2295	-0.3273	
0.096624	-0.905728	0.371856	-11.48	2.94	68.6	-0.1048	0.2297	-0.3205	
0.0732	-0.85461	0.361486	-4.83	2.52	63.77	-0.1049	0.2312	-0.3205	
0.04331	-0.86864	0.345016	-2.52	9.17	59.29	-0.105	0.2465	-0.3246	
0.042212	-0.920002	0.40077	-3.29	1.05	56.56	-0.0928	0.2494	-0.329	
0.07137	-0.917318	0.415654	5.18	0.7	54.95	-0.0843	0.2437	-0.3162	
0.078934	-0.886818	0.408212	8.75	13.86	54.32	-0.0773	0.2453	-0.3128	
0.039162	-0.889136	0.394304	12.39	21.35	54.74	-0.07889999	0.2385	-0.3275	
0.03721	-0.92598	0.431758	14.07	18.48	55.79	-0.06659999	0.251	-0.3235	
0.054046	-0.901214	0.42639	19.6	19.46	56.84	-0.0557	0.2429	-0.33	
0.041114	-0.870226	0.396256	26.11	27.37	56.98	-0.0627	0.2441	-0.3397	
-0.00427	-0.85949	0.37576	29.68	32.62	57.68	-0.0394	0.2408	-0.341	
-0.025376	-0.862174	0.394914	29.96	31.5	59.71	-0.0393	0.2347	-0.338	
-0.064294	-0.855708	0.415776	33.32	31.43	62.51	-0.0175	0.2327	-0.344	
-0.116998	-0.81862	0.370026	34.65	39.97	62.93	-0.0189	0.2248	-0.3492	
-0.183488	-0.809958	0.378566	36.26	40.25	63.07	-0.0078	0.2265	-0.3441	
-0.262544	-0.79117	0.399184	32.62	37.87	66.22	0.0113	0.2169	-0.3473	
-0.25254	-0.821914	0.46665	31.5	33.04	69.58	0.0098	0.2197	-0.3552	
-0.253272	-0.795196	0.454328	37.66	38.85	73.08	0.0179	0.2132	-0.3601	
-0.287554	-0.744078	0.447008	38.85	42	72.94	0.0413	0.2117	-0.3565	
-0.334158	-0.716628	0.437736	37.66	42.42	71.47	0.055	0.1989	-0.3648	
-0.366	-0.69052	0.431392	33.39	38.08	67.34	0.0604	0.1923	-0.3713	
-0.436394	-0.687104	0.440176	32.48	32.48	61.95	0.0756	0.194	-0.3661	
-0.491172	-0.667706	0.439078	36.89	35.7	60.55	0.0851	0.1749	-0.3764	
-0.507154	-0.66368	0.459086	35.63	31.64	61.67	0.0894	0.1832	-0.3647	
-0.518134	-0.642208	0.49349	34.72	28.42	61.95	0.1032	0.1645	-0.3653	
-0.562664	-0.610976	0.484706	36.54	26.18	59.99	0.1071	0.1576	-0.3799	
-0.593652	-0.590114	0.47824	36.05	28	57.75	0.1251	0.15	-0.3751	
-0.601826	-0.575962	0.463478	32.62	22.68	53.48	0.1346	0.1357	-0.3819	
-0.607072	-0.55998	0.48312	30.59	18.06	50.54	0.1331	0.1338	-0.3884	
-0.583648	-0.548756	0.538386	26.11	13.72	47.6	0.1402	0.12	-0.3841	
-0.585966	-0.523258	0.515572	28.63	18.55	44.31	0.143	0.1186	-0.3809	
-0.60085	-0.526674	0.519598	26.53	21	42.21	0.1455	0.1119	-0.3667	
-0.598044	-0.532408	0.548024	26.74	21.35	39.2	0.1552	0.1119	-0.3905	
-0.624396	-0.515938	0.553514	27.09	25.48	36.68	0.1605	0.1132	-0.3967	
-0.683932	-0.498736	0.546804	28.07	26.53	33.04	0.158	0.1042	-0.3892	
-0.69052	-0.486536	0.528016	26.95	24.43	32.27	0.1704	0.0869	-0.3929	
-0.676734	-0.47031	0.544608	24.08	20.37	31.36	0.1788	0.0857	-0.3848	
-0.69845	-0.45567	0.532896	23.17	21.7	29.4	0.1747	0.0796	-0.382	
-0.683688	-0.443714	0.533018	21.7	18.69	28.63	0.1829	0.0716	-0.3885	
-0.700158	-0.437248	0.520818	20.93	19.11	27.09	0.1872	0.0719	-0.3804	
-0.70455	-0.438468	0.522892	19.81	18.41	25.97	0.1926	0.0654	-0.3854	
-0.709308	-0.435296	0.541314	17.43	17.92	24.36	0.1981	0.0607	-0.3871	
-0.723216	-0.441762	0.529114	17.78	17.85	22.96	0.205	0.0623	-0.3837	
-0.7381	-0.431026	0.518988	17.71	17.92	20.51	0.2064	0.0513	-0.3873	
-0.76555	-0.42273	0.525576	17.22	16.59	19.04	0.2036	0.0575	-0.3871	
-0.768722	-0.415288	0.531554	16.94	13.51	19.18	0.2133	0.042	-0.386	
-0.749812	-0.400282	0.526796	16.17	12.18	19.25	0.2174	0.0404	-0.3876	
-0.729804	-0.378444	0.527284	15.12	10.78	18.06	0.212	0.039	-0.3846	
-0.736392	-0.380884	0.521794	12.95	11.06	17.08	0.212	0.0313	-0.3849	
-0.762744	-0.378688	0.510326	11.83	11.27	15.54	0.2175	0.0265	-0.3866	
-0.777018	-0.388448	0.51423	12.95	10.43	14.35	0.2216	0.0312	-0.3847	
-0.775554	-0.376248	0.512522	12.95	10.01	14.14	0.2218	0.0223	-0.3755	
-0.799344	-0.37149	0.507398	12.25	9.38	12.81	0.2286	0.0173	-0.3836	
-0.815082	-0.372344	0.504836	12.11	7.91	12.6	0.2231	0.0174	-0.3821	
-0.801662	-0.35746	0.51545	10.64	5.32	13.23	0.2231	0.0173	-0.3837	
-0.823012	-0.351726	0.493856	9.94	5.04	12.25	0.2261	0.0116	-0.3727	
-0.826062	-0.362584	0.494954	9.73	2.1	11.34	0.2235	0.0058	-0.3635	
-0.811544	-0.360632	0.499468	9.94	-0.35	11.41	0.2342	0.0081	-0.3807	
-0.804102	-0.35807	0.5002	8.89	-2.17	11.83	0.2313	0.0062	-0.3889	
-0.80886	-0.330986	0.50752	8.75	-5.39	11.13	0.2327	0.0001	-0.3859	
-0.822646	-0.321592	0.520574	7.21	-8.05	9.87	0.2355	0.0032	-0.3857	
-0.78019	-0.317932	0.538874	7.07	-7.98	9.03	0.2272	0.0017	-0.3859	
-0.764086	-0.300364	0.53314	6.58	-7.14	7.21	0.2315	-0.0027	-0.3813	
-0.790804	-0.290604	0.547292	2.59	-5.81	6.09	0.2205	-0.004	-0.3784	
-0.802882	-0.28365	0.538142	1.82	-6.44	3.78	0.2287	-0.0043	-0.383	
-0.793854	-0.286822	0.546316	-0.56	-7.91	2.03	0.2286	0.0079	-0.3856	
-0.790926	-0.29219	0.560224	-2.94	-7.77	0.77	0.23	-0.0061	-0.3894	
-0.777018	-0.2867	0.567666	-4.62	-9.94	-0.77	0.23	-0.0044	-0.3846	
-0.777262	-0.302926	0.549732	-5.39	-10.15	-2.59	0.2286	-0.0124	-0.3914	
-0.774822	-0.309026	0.542168	-4.2	-9.8	-3.64	0.2231	-0.0076	-0.3881	
-0.79422	-0.298168	0.553392	-5.11	-11.41	-4.55	0.2174	-0.009699999	-0.4011	
-0.81435	-0.310612	0.55571	-6.58	-13.16	-5.81	0.215	-0.0009999999	-0.3799	
-0.805444	-0.326716	0.555832	-6.72	-14.84	-7.84	0.2175	-0.0001	-0.3958	
-0.776408	-0.311466	0.569374	-7.14	-17.01	-9.87	0.2092	0	-0.3944	
-0.77897	-0.296826	0.598044	-12.11	-19.67	-12.25	0.2094	-0.0012	-0.3865	
-0.783118	-0.301218	0.575718	-13.23	-20.51	-15.47	0.2134	-0.0015	-0.3928	
-0.766404	-0.313174	0.571204	-14.84	-23.38	-18.97	0.2078	0.0139	-0.3922	
-0.772138	-0.327692	0.572058	-15.33	-24.36	-21.98	0.2023	0.0154	-0.3955	
-0.783484	-0.338062	0.565592	-13.16	-26.04	-24.85	0.1883	0.0243	-0.4049	
-0.763476	-0.349164	0.56974	-14.49	-27.79	-27.65	0.1856	0.0196	-0.4068	
-0.737246	-0.365878	0.588772	-14.98	-28.63	-29.96	0.1926	0.0201	-0.3955	
-0.729072	-0.380396	0.592554	-14.28	-28.7	-31.99	0.1774	0.0308	-0.4001	
-0.710894	-0.351238	0.586942	-13.79	-26.67	-33.95	0.1733	0.0262	-0.4004	
-0.68686	-0.36966	0.586942	-17.36	-28.28	-36.19	0.1731	0.0351	-0.408	
-0.668194	-0.391864	0.603778	-19.11	-29.19	-38.57	0.1648	0.0396	-0.4127	
-0.677588	-0.40138	0.601216	-21.7	-22.75	-39.2	0.1689	0.0474	-0.4107	
-0.67222	-0.415898	0.585844	-23.45	-25.48	-40.6	0.1566	0.0383	-0.4098	
-0.644648	-0.435174	0.591578	-25.06	-26.88	-41.72	0.1456	0.0556	-0.4045	
-0.65087	-0.443348	0.58743	-25.34	-26.25	-43.75	0.144	0.0628	-0.4169	
-0.643306	-0.466162	0.582672	-26.67	-27.79	-46.9	0.1331	0.0693	-0.4105	
-0.619516	-0.482388	0.5673	-27.51	-30.87	-52.15	0.1235	0.0742	-0.4073	
-0.60695	-0.50081	0.568154	-26.18	-31.22	-54.46	0.1179	0.0866	-0.4084	
-0.611342	-0.508984	0.572424	-25.83	-30.1	-56.14	0.107	0.0915	-0.4037	
-0.581086	-0.517402	0.575108	-26.39	-33.32	-57.68	0.0944	0.1021	-0.4114	
-0.54595	-0.534116	0.581086	-26.67	-33.95	-59.99	0.1011	0.1124	-0.422	
-0.541436	-0.55571	0.572912	-27.09	-31.15	-62.93	0.0904	0.1084	-0.4081	
-0.534238	-0.555832	0.572912	-26.11	-30.59	-66.85	0.0792	0.1143	-0.4176	
-0.518256	-0.57157	0.568642	-25.55	-30.1	-69.72	0.0698	0.1227	-0.4031	
-0.485804	-0.57401	0.552782	-25.34	-29.47	-72.52	0.0698	0.1275	-0.3996	
-0.451644	-0.561688	0.5673	-23.87	-34.86	-76.65	0.0519	0.1321	-0.4046	
-0.416386	-0.581208	0.564616	-24.5	-35.42	-80.29	0.049	0.1413	-0.4075	
-0.378322	-0.590724	0.572668	-25.41	-35.21	-82.53	0.0314	0.1434	-0.3966	
-0.341722	-0.604754	0.568276	-25.55	-36.89	-84.7	0.0202	0.143	-0.408	
-0.306952	-0.651114	0.58194	-24.29	-38.01	-87.92	0.009099999	0.1584	-0.4107	
-0.254614	-0.670146	0.558516	-23.94	-37.52	-90.72	-0.0002	0.1543	-0.4	
-0.134566	-0.621956	0.52155	-24.57	-38.64	-94.57	-0.0096	0.1516	-0.3907	
-0.097112	-0.624274	0.509472	-23.03	-41.86	-98.98	-0.0206	0.1628	-0.3856	
-0.06588	-0.660508	0.560956	-26.32	-40.81	-98.49	-0.0399	0.1596	-0.391	
-0.085522	-0.674782	0.438346	-21.84	-20.65	-96.39	-0.0496	0.1641	-0.3958	
-0.019886	-0.689788	0.429806	-21.7	-28.63	-95.97	-0.0562	0.1631	-0.3832	
0.02501	-0.662216	0.379908	-18.27	-30.87	-96.74	-0.0643	0.1667	-0.3736	
0.09162199	-0.676612	0.389668	-20.3	-42.56	-100.8	-0.0726	0.1666	-0.377	
0.140178	-0.676246	0.415654	-19.32	-46.97	-102.76	-0.08769999	0.1635	-0.3791	
0.227408	-0.708454	0.512278	-20.09	-48.23	-102.55	-0.1028	0.1732	-0.3726	
0.34343	-0.77226	0.581208	-25.9	-31.08	-96.6	-0.1178	0.1607	-0.3751	
0.334402	-0.74481	0.393206	-16.94	-50.26	-108.36	-0.1355	0.1596	-0.3675	
0.405284	-0.734928	0.431026	-20.44	-52.92	-109.13	-0.1437	0.1645	-0.3627	
0.406748	-0.746152	0.407114	-17.64	-53.13	-106.19	-0.1572	0.1652	-0.3501	
0.507886	-0.822036	0.464454	-22.19	-58.17	-103.74	-0.1777	0.1498	-0.3497	
0.557906	-0.819718	0.45384	-18.9	-48.72	-98.98	-0.1805	0.1544	-0.3511	
0.559126	-0.775798	0.389668	-18.06	-42.63	-95.41	-0.1925	0.1395	-0.3393	
0.59963	-0.787144	0.419802	-15.82	-46.76	-95.69	-0.2214	0.1381	-0.34	
0.609146	-0.801174	0.440176	-12.81	-40.53	-90.79	-0.2351	0.1273	-0.3408	
0.597312	-0.778604	0.406748	0.42	-25.06	-81.34	-0.235	0.1244	-0.3377	
0.592066	-0.770796	0.40138	6.44	-25.27	-76.37	-0.2455	0.1176	-0.3175	
0.587796	-0.7198	0.374052	15.75	-28.28	-73.71	-0.2595	0.1014	-0.3345	
0.620004	-0.673928	0.404308	9.24	-36.4	-67.9	-0.2702	0.1038	-0.317	
0.668316	-0.648674	0.4087	5.18	-38.08	-64.82	-0.2769	0.0994	-0.3126	
0.663558	-0.636718	0.376736	12.32	-34.37	-61.39	-0.2879	0.0791	-0.3169	
0.693814	-0.648674	0.395158	5.74	-38.78	-56.42	-0.2904	0.078	-0.3075	
0.740784	-0.64233	0.424438	3.29	-39.83	-52.57	-0.2903	0.0784	-0.2995	
0.71126	-0.585844	0.397354	12.95	-31.64	-47.04	-0.2958	0.069	-0.3032	
0.760792	-0.625494	0.376736	10.5	-36.61	-45.22	-0.3027	0.0501	-0.3106	
0.762378	-0.657214	0.43981	0.77	-42.07	-40.39	-0.3107	0.0475	-0.2997	
0.794464	-0.640378	0.450424	2.31	-35.42	-31.78	-0.3147	0.0511	-0.29	
0.795318	-0.611342	0.424926	9.17	-25.34	-27.23	-0.3201	0.0434	-0.2889	
0.798612	-0.607072	0.386252	10.64	-22.05	-24.15	-0.3256	0.0434	-0.2906	
0.807762	-0.618296	0.402966	0.7	-25.06	-17.01	-0.324	0.0345	-0.2814	
0.800442	-0.583404	0.42273	-3.08	-19.81	-13.93	-0.3322	0.0348	-0.2752	
0.811544	-0.576938	0.392352	4.62	-10.78	-12.11	-0.3448	0.0342	-0.2899	
0.810812	-0.594628	0.3477	6.58	-6.58	-11.06	-0.3321	0.0286	-0.3011	
0.821792	-0.585722	0.361486	-2.8	-8.82	-7.98	-0.3434	0.0389	-0.2896	
0.812642	-0.566202	0.364292	1.12	-4.55	-7.07	-0.3447	0.0329	-0.2851	
0.777262	-0.563396	0.342088	4.9	-0.42	-6.23	-0.3403	0.0256	-0.2742	
0.777506	-0.550098	0.350506	-1.4	-4.62	-3.01	-0.3309	0.0282	-0.2834	
0.771894	-0.532774	0.370514	-2.8	-5.11	-1.54	-0.3389	0.0288	-0.2724	
0.759816	-0.535336	0.332694	3.57	-0.07	-0.84	-0.3391	0.0378	-0.2784	
0.749446	-0.507886	0.32574	3.71	-1.05	0.49	-0.3308	0.0317	-0.2753	
0.761158	-0.518866	0.340136	-5.81	-5.81	0.56	-0.3404	0.0269	-0.2805	
0.766038	-0.535702	0.35685	-8.82	-5.67	1.19	-0.3388	0.0227	-0.2695	
0.761646	-0.541558	0.329156	-1.96	-1.61	1.54	-0.3389	0.0256	-0.2741	
0.761158	-0.55083	0.3294	-1.12	-3.22	1.89	-0.3431	0.0319	-0.2723	
0.774334	-0.552904	0.365268	-7.77	-5.32	2.87	-0.3418	0.0223	-0.2791	
0.770918	-0.539972	0.360998	-5.25	1.33	3.99	-0.3375	0.0335	-0.2706	
0.764574	-0.557418	0.344894	-7.14	2.59	4.83	-0.3335	0.0349	-0.2736	
0.76067	-0.553026	0.352336	-6.86	2.17	5.04	-0.3446	0.0315	-0.2804	
0.75274	-0.57401	0.341478	-7.35	4.2	5.25	-0.3419	0.0439	-0.2814	
0.74176	-0.587064	0.337208	-7.98	4.2	6.93	-0.3307	0.0333	-0.2736	
0.753472	-0.577304	0.354288	-11.9	1.4	10.43	-0.3377	0.0425	-0.2765	
0.760548	-0.56852	0.358314	-12.46	3.08	11.97	-0.3363	0.0457	-0.2748	
0.767746	-0.579622	0.34282	-10.08	3.85	12.25	-0.335	0.0486	-0.2778	
0.747494	-0.590602	0.33611	-9.94	4.34	13.86	-0.3349	0.0504	-0.2729	
0.739808	-0.612318	0.34526	-17.85	2.31	17.29	-0.3336	0.0566	-0.2726	
0.738466	-0.622688	0.352946	-19.81	4.34	20.86	-0.3322	0.0597	-0.2724	
0.752862	-0.614148	0.360632	-22.61	4.06	25.41	-0.3214	0.0546	-0.2804	
0.776408	-0.60329	0.338916	-20.79	8.75	26.67	-0.3378	0.0658	-0.2755	
0.748226	-0.611464	0.325618	-14.98	12.67	25.48	-0.3227	0.07669999	-0.2715	
0.711626	-0.628056	0.338672	-16.94	12.25	26.18	-0.3267	0.07539999	-0.2668	
0.696986	-0.6832	0.344894	-17.15	13.3	32.13	-0.3255	0.0829	-0.2729	
0.701744	-0.66917	0.316224	-17.71	10.57	32.76	-0.3242	0.0796	-0.2762	
0.707356	-0.656116	0.324276	-23.94	3.78	34.93	-0.3132	0.1077	-0.2699	
0.695522	-0.680394	0.326228	-23.03	8.89	39.69	-0.3065	0.0933	-0.28	
0.665144	-0.722118	0.320494	-21.77	9.73	42.91	-0.3105	0.1123	-0.2712	
0.667828	-0.718946	0.31476	-17.22	10.43	44.38	-0.3078	0.1122	-0.2727	
0.651114	-0.71797	0.315126	-15.68	16.94	48.3	-0.3093	0.1026	-0.2796	
0.61976	-0.726022	0.235948	-13.09	25.69	51.8	-0.2928	0.1245	-0.2735	
0.63013	-0.79727	0.362096	-25.34	11.55	54.39	-0.2983	0.1323	-0.2732	
0.637328	-0.81679	0.313052	-14.7	12.04	54.32	-0.2943	0.1509	-0.2723	
0.597312	-0.743712	0.273158	-7.63	27.44	60.06	-0.286	0.1525	-0.2688	
0.582794	-0.748714	0.222162	-10.5	23.8	60.13	-0.2682	0.157	-0.2698	
0.578036	-0.79727	0.25315	-16.03	14.21	61.81	-0.2601	0.1567	-0.2745	
0.582428	-0.845338	0.317078	-9.66	16.59	64.54	-0.2604	0.1733	-0.2609	
0.567422	-0.84241	0.282308	1.54	26.11	64.54	-0.2617	0.186	-0.3036	
0.521306	-0.787022	0.234362	8.54	31.92	64.96	-0.2549	0.1717	-0.2865	
0.518378	-0.839726	0.280112	0.35	20.86	67.13	-0.2318	0.2024	-0.2894	
0.505324	-0.837652	0.30683	5.25	23.66	67.06	-0.2234	0.201	-0.2845	
0.484706	-0.837408	0.27633	10.43	29.96	64.96	-0.2125	0.2038	-0.2889	
0.448838	-0.823012	0.260958	10.85	29.54	65.87	-0.2071	0.2038	-0.2888	
0.414068	-0.82594	0.260226	6.65	26.11	67.27	-0.199	0.2142	-0.2977	
0.416874	-0.884622	0.343064	1.68	17.99	68.6	-0.1951	0.22	-0.3069	
0.394548	-0.871568	0.34587	11.13	19.67	67.34	-0.1801	0.2214	-0.2826	
0.363438	-0.828624	0.273158	16.1	25.83	67.06	-0.1621	0.22	-0.327	
0.334036	-0.841922	0.314638	10.92	24.01	69.16	-0.1609	0.2243	-0.3092	
0.293532	-0.876204	0.318176	9.94	27.79	70.35	-0.1486	0.2383	-0.3323	
0.28365	-0.893528	0.372344	13.16	11.34	72.52	-0.1433	0.2251	-0.3248	
0.238388	-0.86437	0.330498	20.23	19.04	71.47	-0.1431	0.2287	-0.3118	
0.178608	-0.863638	0.354654	22.4	20.65	74.27	-0.1338	0.2312	-0.3259	
0.121756	-0.886696	0.357704	20.09	18.83	76.02	-0.1213	0.2346	-0.3159	
0.106262	-0.905484	0.389058	19.81	16.17	79.03	-0.1103	0.2313	-0.3206	
0.067954	-0.829234	0.343918	26.11	18.9	83.51	-0.0968	0.2275	-0.3332	
0.06466	-0.815326	0.396744	22.26	18.9	87.01	-0.0926	0.2373	-0.3215	
0.024644	-0.799344	0.39528	22.4	22.82	88.55	-0.0749	0.2337	-0.3309	
-0.005856	-0.810446	0.421266	22.19	25.2	89.46	-0.0695	0.2303	-0.3373	
-0.060756	-0.793976	0.425292	27.72	27.86	88.62	-0.0613	0.2347	-0.3401	
-0.122732	-0.767868	0.41541	32.2	31.5	88.13	-0.0421	0.2267	-0.3449	
-0.158234	-0.744932	0.41053	30.8	33.81	88.06	-0.0326	0.2311	-0.3476	
-0.183244	-0.729316	0.425902	25.27	33.46	88.9	-0.019	0.2371	-0.3519	
-0.246684	-0.72895	0.447984	24.78	37.87	88.9	-0.0135	0.2244	-0.3571	
-0.315004	-0.748958	0.436638	28.7	39.55	86.8	0.0029	0.2166	-0.3555	
-0.325496	-0.719556	0.42212	28.91	41.58	85.26	0.0235	0.2212	-0.3533	
-0.342088	-0.685762	0.408578	28.35	37.59	81.9	0.0288	0.2097	-0.3681	
-0.36966	-0.68625	0.423584	26.53	36.12	76.09	0.044	0.2036	-0.3648	
-0.441762	-0.659654	0.449692	28.7	32.76	70	0.0605	0.2005	-0.3614	
-0.524966	-0.670512	0.44652	28.98	30.24	64.89	0.0646	0.1956	-0.3663	
-0.546316	-0.69418	0.460428	27.02	27.09	64.4	0.0659	0.2018	-0.3676	
-0.50081	-0.67954	0.460672	26.46	21	62.44	0.0906	0.1858	-0.3742	
-0.488854	-0.63928	0.484218	26.74	24.43	59.92	0.0961	0.1781	-0.3728	
-0.534726	-0.615002	0.442738	30.66	23.94	53.41	0.1142	0.1581	-0.3685	
-0.563274	-0.633668	0.468846	28.91	26.32	53.06	0.1086	0.1596	-0.3702	
-0.538386	-0.619638	0.479826	28.7	25.97	54.04	0.1182	0.1579	-0.3717	
-0.553148	-0.596092	0.484584	29.61	29.05	51.94	0.1277	0.1433	-0.3849	
-0.600606	-0.600362	0.501054	30.45	27.44	48.51	0.1306	0.1343	-0.3772	
-0.623786	-0.588284	0.481656	33.25	26.81	45.64	0.1332	0.145	-0.3815	
-0.612562	-0.573034	0.499834	33.32	24.85	44.8	0.1415	0.1357	-0.3801	
-0.594384	-0.540826	0.49593	33.67	23.87	43.82	0.1579	0.1259	-0.3882	
-0.63074	-0.515816	0.50935	32.48	25.83	41.51	0.1608	0.1185	-0.3805	
-0.65575	-0.512766	0.534848	30.52	23.94	39.97	0.1624	0.108	-0.373	
-0.674416	-0.514474	0.523258	29.89	25.34	39.27	0.1704	0.1028	-0.3842	
-0.676246	-0.51789	0.525942	29.4	27.3	38.85	0.1773	0.0997	-0.3842	
-0.660874	-0.489342	0.541436	29.12	25.48	36.96	0.1829	0.0856	-0.3863	
-0.680394	-0.467016	0.53192	29.19	27.16	34.02	0.1894	0.0802	-0.4024	
-0.692716	-0.453596	0.521794	27.51	28.77	29.26	0.194	0.0797	-0.3783	
-0.705038	-0.447862	0.518256	25.62	28.98	24.92	0.1926	0.0748	-0.3834	
-0.725168	-0.44164	0.524478	24.36	28.98	22.12	0.2007	0.0651	-0.3916	
-0.767136	-0.430416	0.501298	23.17	30.66	18.55	0.194	0.0591	-0.3873	
-0.817766	-0.427	0.505568	21.91	28.91	15.96	0.2118	0.0606	-0.3868	
-0.8174	-0.420046	0.503982	20.72	25.27	14.56	0.2092	0.0547	-0.3807	
-0.78141	-0.421266	0.477386	21.07	24.92	12.6	0.2202	0.0515	-0.3806	
-0.811666	-0.397232	0.46787	20.3	23.73	10.71	0.2187	0.045	-0.389	
-0.81069	-0.391132	0.463844	18.48	18.83	10.36	0.223	0.0438	-0.3809	
-0.803614	-0.387228	0.448838	17.36	15.75	10.71	0.23	0.0472	-0.3726	
-0.794342	-0.389302	0.463356	17.01	13.02	10.85	0.2314	0.0362	-0.3747	
-0.794098	-0.36905	0.466406	16.73	12.53	11.2	0.2313	0.0267	-0.3799	
-0.774578	-0.378932	0.484584	16.45	11.06	10.71	0.2354	0.022	-0.3817	
-0.77409	-0.354776	0.489098	16.87	10.22	11.55	0.2369	0.0253	-0.3751	
-0.779458	-0.35746	0.485438	15.61	11.27	12.46	0.2411	0.0239	-0.3719	
-0.79849	-0.335988	0.493978	14.63	9.8	11.62	0.2426	0.01	-0.3709	
-0.80947	-0.322202	0.488488	13.65	8.12	10.64	0.2398	0.0115	-0.3725	
-0.818498	-0.319274	0.498858	13.09	7.21	8.96	0.2467	0.0241	-0.3669	
-0.836798	-0.306098	0.502274	11.69	6.09	7.77	0.2537	0.0023	-0.3678	
-0.830942	-0.30378	0.495198	9.03	3.71	5.88	0.2468	0.0087	-0.3644	
-0.854854	-0.30439	0.497516	7.07	0.56	4.34	0.2414	0.0009999999	-0.3633	
-0.894748	-0.315614	0.494222	4.83	-4.13	1.47	0.2509	0.0006	-0.3711	
-0.85888	-0.311588	0.514718	3.43	-6.37	-2.66	0.2549	0.0084	-0.3707	
-0.85156	-0.290482	0.519354	2.1	-7.63	-5.39	0.2413	0.0087	-0.3662	
-0.860588	-0.273158	0.52582	-0.7	-8.05	-8.89	0.2371	0.0069	-0.3727	
-0.858636	-0.283894	0.492148	-3.71	-11.13	-13.44	0.2468	0.0008	-0.368	
-0.861198	-0.328912	0.490928	-4.83	-13.86	-17.85	0.2397	0.0065	-0.3807	
-0.857416	-0.313296	0.512522	-6.72	-16.17	-20.58	0.2426	0.0085	-0.3693	
-0.832406	-0.311466	0.518256	-7.7	-17.36	-22.12	0.2355	0.0143	-0.3788	
-0.802394	-0.319396	0.514718	-7.7	-17.01	-24.01	0.2316	0.0116	-0.371	
-0.790682	-0.31476	0.502396	-9.73	-19.46	-25.48	0.2259	0.019	-0.3804	
-0.788974	-0.345626	0.49227	-15.96	-23.66	-29.33	0.223	0.0265	-0.3865	
-0.792878	-0.374052	0.516914	-19.32	-24.78	-33.25	0.2298	0.0326	-0.3877	
-0.762256	-0.387106	0.506544	-17.29	-23.66	-36.75	0.223	0.0298	-0.3816	
-0.776652	-0.378932	0.500322	-14.14	-23.73	-39.62	0.2106	0.0282	-0.3851	
-0.779458	-0.376126	0.513376	-16.17	-27.02	-41.3	0.2146	0.0434	-0.3891	
-0.764208	-0.38735	0.518378	-18.83	-29.19	-42.28	0.2132	0.0576	-0.3853	
-0.761768	-0.41785	0.515816	-22.19	-29.89	-44.59	0.1981	0.0622	-0.387	
-0.744932	-0.446032	0.518134	-24.99	-30.94	-47.81	0.1885	0.0609	-0.3841	
-0.762744	-0.457134	0.5063	-25.55	-35.28	-51.73	0.1773	0.0683	-0.392	
-0.72712	-0.471774	0.51667	-27.23	-36.12	-51.17	0.1839	0.0755	-0.4043	
-0.690032	-0.468236	0.52399	-26.81	-37.73	-52.36	0.169	0.07759999	-0.3934	
-0.668926	-0.483486	0.510936	-25.62	-36.33	-56.28	0.1635	0.0792	-0.3934	
-0.656238	-0.51423	0.504348	-25.55	-34.16	-60.34	0.1608	0.08859999	-0.3914	
-0.652334	-0.516914	0.512522	-20.02	-34.09	-65.17	0.1469	0.0962	-0.3978	
-0.607194	-0.51728	0.502762	-19.32	-33.53	-68.74	0.1332	0.101	-0.3947	
-0.557418	-0.538752	0.512278	-17.92	-38.29	-74.83	0.129	0.1197	-0.3939	
-0.508618	-0.543144	0.544608	-18.62	-39.48	-75.88	0.1207	0.1243	-0.3955	
-0.48556	-0.557052	0.556686	-22.05	-39.48	-78.19	0.1041	0.1304	-0.4004	
-0.450302	-0.593774	0.561322	-21.14	-37.73	-81.97	0.0878	0.1261	-0.3945	
-0.428952	-0.644892	0.570594	-22.89	-38.64	-85.75	0.0711	0.1384	-0.3991	
-0.350384	-0.673196	0.586698	-24.29	-40.74	-88.13	0.0713	0.1512	-0.389	
-0.305122	-0.637084	0.542778	-25.13	-38.5	-89.46	0.0548	0.1403	-0.393	
-0.29036	-0.6283	0.531676	-24.85	-38.92	-91.98	0.0437	0.1433	-0.3979	
-0.273524	-0.657336	0.521672	-23.94	-38.29	-94.36	0.0341	0.159	-0.3926	
-0.228262	-0.682346	0.507642	-25.55	-39.62	-94.64	0.0162	0.1684	-0.3942	
-0.177266	-0.692106	0.49532	-27.79	-43.75	-93.1	0.0053	0.1751	-0.3845	
-0.132126	-0.692472	0.488976	-28.56	-38.57	-89.25	-0.0043	0.1812	-0.3876	
-0.08357	-0.686006	0.483242	-27.3	-46.9	-86.8	-0.0153	0.1843	-0.3877	
-0.054534	-0.682712	0.471042	-25.69	-51.59	-86.38	-0.0342	0.1866	-0.3737	
-0.0427	-0.661118	0.438346	-25.41	-27.51	-79.45	-0.0437	0.187	-0.3675	
-0.002684	-0.653554	0.39101	-27.44	-40.88	-81.9	-0.0564	0.1863	-0.3837	
0.177144	-0.734806	0.471774	-33.88	-54.88	-82.67	-0.0657	0.1901	-0.3694	
0.235216	-0.758108	0.44835	-33.74	-46.76	-84.28	-0.0753	0.1887	-0.3665	
0.21289	-0.73505	0.398574	-30.03	-35.77	-85.75	-0.0959	0.1857	-0.3671	
0.238876	-0.774212	0.399672	-30.03	-31.01	-84.98	-0.0998	0.1925	-0.354	
0.346968	-0.793732	0.411506	-31.99	-22.82	-79.31	-0.104	0.1954	-0.3604	
0.331718	-0.794464	0.355752	-28.7	-62.37	-99.05	-0.1189	0.1929	-0.3481	
0.435906	-0.857172	0.431026	-33.25	-55.09	-94.22	-0.1339	0.1964	-0.3418	
0.42395	-0.867786	0.38857	-20.86	-35.07	-85.05	-0.1544	0.1999	-0.3357	
0.42273	-0.881938	0.377834	-9.59	-22.19	-77.77	-0.1598	0.1938	-0.3345	
0.409798	-0.837164	0.349652	-6.86	-24.43	-75.95	-0.1789	0.188	-0.3272	
0.458476	-0.830698	0.355874	-9.87	-28.7	-78.47	-0.175	0.1858	-0.3416	
0.455914	-0.824964	0.32879	1.12	-25.97	-80.29	-0.1951	0.1854	-0.3181	
0.443958	-0.852902	0.3416	5.18	-28.98	-79.24	-0.2063	0.171	-0.3302	
0.485316	-0.833016	0.391742	-8.75	-40.25	-75.88	-0.2035	0.1649	-0.3288	
0.553392	-0.79544	0.346968	5.53	-33.11	-71.61	-0.213	0.1652	-0.3226	
0.57462	-0.817888	0.37637	2.66	-35.35	-70.21	-0.2322	0.162	-0.3264	
0.573766	-0.778238	0.369782	5.18	-29.68	-63.49	-0.2443	0.1487	-0.3144	
0.589748	-0.776042	0.356484	7.07	-29.61	-60.27	-0.2551	0.1381	-0.3104	
0.589016	-0.73627	0.384178	6.02	-31.08	-57.61	-0.2689	0.1256	-0.3144	
0.598776	-0.730292	0.377224	9.17	-29.47	-53.76	-0.2716	0.124	-0.3162	
0.60512	-0.747006	0.376736	8.82	-30.52	-50.75	-0.2754	0.1187	-0.2973	
0.619394	-0.738344	0.394914	8.4	-30.87	-46.83	-0.2769	0.1072	-0.3106	
0.6527	-0.735294	0.41419	3.43	-30.45	-42.42	-0.2809	0.1185	-0.3006	
0.666608	-0.73017	0.412604	4.97	-29.12	-35.49	-0.2877	0.1079	-0.2981	
0.667096	-0.738466	0.4209	2.59	-27.23	-30.8	-0.2987	0.1078	-0.3015	
0.656726	-0.697352	0.399062	8.19	-19.39	-26.81	-0.3054	0.0957	-0.2958	
0.67405	-0.673806	0.366	8.96	-19.11	-22.75	-0.3069	0.1018	-0.2988	
0.714554	-0.671122	0.372222	0.28	-21.35	-19.74	-0.2997	0.0884	-0.2848	
0.72041	-0.670024	0.35868	0.98	-17.64	-17.92	-0.3081	0.0896	-0.2929	
0.722606	-0.690154	0.366732	-4.55	-18.06	-16.59	-0.3162	0.0821	-0.2887	
0.723582	-0.671488	0.368562	-4.41	-15.54	-13.02	-0.3037	0.0823	-0.2836	
0.727486	-0.665144	0.350018	-3.5	-11.62	-10.5	-0.3106	0.0854	-0.2836	
0.724802	-0.646234	0.359656	-4.27	-9.24	-9.66	-0.3132	0.0843	-0.2741	
0.733708	-0.625128	0.343064	-1.12	-4.9	-9.1	-0.3188	0.0823	-0.2839	
0.720654	-0.613416	0.314882	0.56	-1.12	-9.31	-0.3146	0.0889	-0.2739	
0.729194	-0.630984	0.323666	-6.09	-3.64	-9.17	-0.3145	0.0812	-0.2743	
0.73383	-0.658068	0.301584	-1.26	1.05	-9.59	-0.3228	0.0734	-0.2764	
0.693448	-0.632082	0.287432	2.52	2.45	-7.21	-0.316	0.0841	-0.279	
0.66673	-0.604022	0.292678	-4.97	-2.03	-6.3	-0.3187	0.0843	-0.2742	
0.685518	-0.604754	0.297558	-8.89	-4.83	-5.32	-0.3175	0.0823	-0.2839	
0.6954	-0.598776	0.31354	-10.92	-6.79	-3.99	-0.3186	0.0766	-0.273	
0.734806	-0.605852	0.31415	-12.32	-5.46	-3.78	-0.3284	0.081	-0.281	
0.732366	-0.596214	0.268156	-2.73	-0.63	-4.97	-0.3215	0.0874	-0.2758	
0.717116	-0.617442	0.28243	-7.35	-3.64	-6.3	-0.3214	0.0733	-0.278	
0.71553	-0.637084	0.296704	-11.76	-5.39	-5.53	-0.3201	0.0718	-0.278	
0.731146	-0.639158	0.317688	-11.48	-5.18	-3.64	-0.3146	0.0827	-0.2742	
0.74847	-0.640012	0.305488	-8.54	-0.14	-3.29	-0.3242	0.0843	-0.276	
0.748836	-0.64782	0.294752	-4.48	1.33	-2.1	-0.3185	0.0832	-0.2647	
0.741882	-0.629886	0.303048	-5.25	2.73	-0.77	-0.3174	0.0904	-0.2771	
0.740784	-0.641598	0.29829	-8.54	4.13	0.28	-0.3297	0.0873	-0.2775	
0.742126	-0.649772	0.292068	-12.04	4.62	2.94	-0.3187	0.0843	-0.2742	
0.728218	-0.638304	0.259494	-9.1	7.14	5.11	-0.3324	0.0844	-0.2745	
0.720776	-0.64538	0.265472	-9.73	4.9	6.16	-0.3214	0.0876	-0.2693	
0.736026	-0.64843	0.269376	-8.54	3.43	8.05	-0.3184	0.08639999	-0.2614	
0.713578	-0.645258	0.26718	-5.39	5.53	8.47	-0.3214	0.0827	-0.276	
0.73139	-0.656116	0.26352	-6.16	2.1	9.03	-0.3133	0.0951	-0.2752	
0.742004	-0.656116	0.276696	-4.76	3.85	11.13	-0.3227	0.0862	-0.2662	
0.745908	-0.657458	0.292434	-5.32	6.16	12.67	-0.3118	0.0968	-0.2703	
0.738344	-0.664168	0.283284	-3.92	9.31	13.51	-0.3201	0.0982	-0.2752	
0.758596	-0.667706	0.289872	-6.51	4.2	10.64	-0.3148	0.1073	-0.2795	
0.758596	-0.678808	0.304634	-6.37	10.85	11.97	-0.3134	0.1057	-0.2811	
0.736148	-0.688934	0.298046	-4.41	18.69	15.61	-0.3025	0.104	-0.2826	
0.711382	-0.69479	0.290726	-4.83	20.58	18.34	-0.3091	0.1061	-0.297	
0.740052	-0.688812	0.284504	-11.62	12.67	18.34	-0.3053	0.1148	-0.2837	
0.71309	-0.71248	0.293654	-9.66	20.93	22.33	-0.2984	0.1116	-0.2853	
0.675758	-0.724802	0.285846	-6.3	25.83	25.76	-0.2984	0.1148	-0.2836	
0.665998	-0.71187	0.268888	-4.83	25.9	29.05	-0.293	0.1209	-0.2848	
0.653432	-0.707234	0.269498	-6.44	22.75	30.59	-0.2848	0.1143	-0.2913	
0.654042	-0.696986	0.254614	-5.46	10.71	26.46	-0.2876	0.1284	-0.2891	
0.6588	-0.732366	0.32086	-9.73	10.57	31.22	-0.2903	0.1285	-0.286	
0.641232	-0.738832	0.30927	-2.73	17.78	34.44	-0.2821	0.1363	-0.2855	
0.622444	-0.717848	0.31354	-0.7	21.56	38.36	-0.2837	0.1452	-0.2931	
0.599752	-0.721996	0.299388	-0.14	19.81	40.04	-0.2672	0.1405	-0.2929	
0.605974	-0.725778	0.30439	-1.19	16.94	42.21	-0.2605	0.1416	-0.3023	
0.594384	-0.740784	0.329888	-1.47	21.21	46.13	-0.2648	0.1521	-0.3099	
0.574376	-0.764696	0.331352	0.7	23.94	48.44	-0.2549	0.1497	-0.2939	
0.550342	-0.760426	0.328546	2.38	25.34	51.59	-0.2523	0.1555	-0.3015	
0.519842	-0.773236	0.354532	1.61	23.31	53.13	-0.2416	0.1626	-0.3153	
0.497272	-0.771772	0.339892	3.08	20.86	54.39	-0.2304	0.163	-0.3039	
0.478606	-0.766404	0.357582	3.15	24.36	57.26	-0.232	0.1768	-0.3081	
0.458354	-0.771406	0.361974	2.52	25.55	58.66	-0.2129	0.1811	-0.3123	
0.43005	-0.7991	0.382958	1.19	23.87	60.06	-0.2115	0.1842	-0.3121	
0.402112	-0.822036	0.375394	2.38	24.29	61.46	-0.2033	0.1888	-0.3133	
0.369172	-0.821914	0.390278	0.07	22.47	62.16	-0.1979	0.1839	-0.3166	
0.346236	-0.854976	0.417606	-1.61	19.04	63.49	-0.1967	0.1991	-0.3239	
0.307684	-0.865712	0.398452	-2.45	18.48	65.8	-0.1776	0.1956	-0.3316	
0.254248	-0.841434	0.384544	-1.82	17.22	68.11	-0.1775	0.2146	-0.3212	
0.210328	-0.808006	0.330254	-1.26	18.55	69.3	-0.1639	0.2095	-0.3291	
0.187392	-0.7991	0.354776	-7.84	14.77	69.02	-0.1528	0.2191	-0.3204	
0.188368	-0.828746	0.426634	-13.23	8.54	70.14	-0.1433	0.2205	-0.3234	
0.146522	-0.835944	0.36356	-16.1	10.85	70.49	-0.1391	0.2268	-0.3198	
0.096624	-0.769332	0.31537	-14.98	14.07	69.65	-0.128	0.2271	-0.3116	
0.063318	-0.772748	0.322568	-22.33	12.74	69.44	-0.1226	0.2346	-0.3159	
0.061732	-0.85705	0.315492	-26.32	5.46	67.06	-0.1187	0.2452	-0.3217	
-0.04392	-0.834358	0.29585	-22.47	-6.09	58.94	-0.1088	0.2442	-0.3088	
0.00854	-0.860344	0.35929	-27.65	4.06	53.69	-0.1062	0.2533	-0.3115	
-0.000732	-0.893406	0.341112	-19.95	8.96	49.7	-0.0923	0.2551	-0.3031	
-0.013664	-0.840702	0.324642	-11.69	14.91	46.27	-0.0951	0.2628	-0.306	
-0.049776	-0.814838	0.314882	-12.46	15.75	39.97	-0.0854	0.2662	-0.2977	
-0.060024	-0.870592	0.32452	-17.5	11.62	35.56	-0.0856	0.2673	-0.3072	
-0.046116	-0.941596	0.341234	-20.93	2.8	29.47	-0.07319999	0.2752	-0.3018	
-0.073566	-0.911462	0.310612	-12.6	10.64	26.32	-0.0676	0.2801	-0.2967	
-0.078568	-0.902068	0.305122	-9.38	13.65	25.2	-0.06879999	0.2758	-0.2889	
-0.080154	-0.921588	0.29951	-10.43	12.11	23.31	-0.0622	0.2752	-0.3	
-0.08052	-0.936106	0.298656	-9.52	12.11	22.12	-0.069	0.2879	-0.2947	
-0.074664	-0.934032	0.291336	-7.14	11.48	18.9	-0.0553	0.2924	-0.2958	
-0.096746	-0.930372	0.283284	-3.78	10.43	14.98	-0.0526	0.2876	-0.2992	
-0.118462	-0.933666	0.24766	-2.94	13.09	11.41	-0.0527	0.2936	-0.3037	
-0.128588	-0.947452	0.261934	-3.57	9.73	9.8	-0.0415	0.2893	-0.2941	
-0.142008	-0.947208	0.25376	-1.96	5.25	8.19	-0.0416	0.2907	-0.2972	
-0.14091	-0.944158	0.258274	0.42	2.87	7.84	-0.0388	0.2862	-0.2942	
-0.119316	-0.922076	0.262056	2.03	-0.21	7.63	-0.0442	0.2816	-0.2929	
-0.105652	-0.925126	0.26901	-0.63	-3.92	7.14	-0.0305	0.28	-0.2927	
-0.113216	-0.946842	0.279014	-0.98	-5.39	6.72	-0.0347	0.2798	-0.2976	
-0.097722	-0.936838	0.284382	0.7	-4.41	6.44	-0.0304	0.2928	-0.2841	
-0.071614	-0.92598	0.290238	0.07	-4.48	6.09	-0.0416	0.2907	-0.2972	
-0.078812	-0.920612	0.288896	-0.56	-2.45	4.69	-0.0388	0.2892	-0.2956	
-0.091012	-0.93147	0.287066	-1.12	-1.75	3.43	-0.0416	0.2861	-0.2958	
-0.101138	-0.935618	0.286822	0.28	-1.61	2.45	-0.0374	0.2987	-0.292	
-0.10797	-0.932202	0.283406	1.4	-1.89	1.89	-0.0347	0.2877	-0.2956	
-0.09821	-0.928176	0.271328	1.61	-1.19	1.82	-0.0305	0.2877	-0.2939	
-0.082228	-0.938058	0.291458	0.49	-2.03	1.33	-0.0346	0.2956	-0.2904	
-0.101016	-0.952942	0.283162	1.26	-1.75	1.12	-0.0387	0.2817	-0.2912	
-0.096258	-0.93391	0.280234	3.15	-1.12	0.07	-0.0374	0.2861	-0.2957	
-0.065758	-0.939034	0.281332	2.66	-1.61	-1.05	-0.0402	0.2815	-0.296	
-0.05612	-0.94245	0.302072	2.87	-0.84	-3.5	-0.0428	0.2928	-0.286	
-0.033428	-0.922808	0.33001	3.01	1.19	-4.97	-0.036	0.2893	-0.294	
-0.011224	-0.905972	0.335744	2.8	4.62	-7.77	-0.0442	0.2816	-0.2945	
-0.010126	-0.89304	0.334768	0.7	8.89	-11.06	-0.0333	0.2846	-0.2941	
-0.007564	-0.909388	0.330864	-0.07	12.39	-14.07	-0.0441	0.2834	-0.288	
-0.036356	-0.930616	0.324276	0.91	16.03	-16.24	-0.0389	0.2874	-0.3021	
-0.04209	-0.932446	0.327814	3.36	19.46	-16.8	-0.0387	0.2832	-0.2927	
-0.02806	-0.932934	0.319884	5.95	22.75	-16.59	-0.0444	0.2875	-0.3006	
-0.036966	-0.920856	0.30683	7	25.62	-16.31	-0.0375	0.286	-0.2973	
-0.052704	-0.928298	0.294508	6.79	24.85	-16.24	-0.0374	0.2799	-0.296	
-0.057584	-0.922076	0.288286	6.86	23.52	-16.8	-0.0306	0.2797	-0.3007	
-0.05124	-0.91744	0.299388	5.74	22.89	-15.89	-0.0348	0.281	-0.3055	
-0.050996	-0.936106	0.305	3.92	24.57	-14.91	-0.0379	0.2772	-0.3217	
-0.032086	-0.931958	0.314028	2.38	25.62	-15.05	-0.0376	0.2811	-0.3039	
0.022692	-0.888526	0.348432	-1.12	30.94	-13.44	-0.0386	0.2678	-0.2886	
0.062464	-0.904874	0.375394	-6.37	36.12	-13.79	-0.0281	0.2792	-0.3118	
0.050874	-0.902556	0.343064	-6.16	53.97	-19.18	-0.0266	0.2858	-0.3019	
0.06832	-0.91378	0.329888	-5.88	60.97	-23.73	-0.0144	0.2821	-0.313	
0.07442	-0.94062	0.337574	-7.14	67.76	-27.37	-0.0183	0.2826	-0.3035	
0.049166	-0.947574	0.338184	-5.81	77.77	-29.26	-0.0141	0.2813	-0.2954	
0.034526	-0.93452	0.317688	-2.03	87.15	-31.78	-0.0019	0.2777	-0.3049	
0.046482	-0.933788	0.313296	-1.12	92.33	-35.14	0.0008	0.2809	-0.3031	
0.026596	-0.938302	0.299144	4.41	95.69	-36.89	0.002	0.2789	-0.3128	
-0.004636	-0.930494	0.292068	4.62	98.21	-36.47	0.0119	0.2826	-0.298	
-0.02501	-0.9455	0.300242	5.67	96.6	-35.84	0.0159	0.2777	-0.3029	
-0.052826	-0.94977	0.280478	7.42	96.95	-34.79	0.0282	0.2838	-0.304	
-0.029646	-0.936472	0.32696	5.18	92.19	-34.65	0.0325	0.2811	-0.2944	
-0.032208	-0.945012	0.316346	4.9	92.33	-32.9	0.0406	0.2838	-0.3021	
-0.040138	-0.923418	0.3111	3.92	94.71	-30.66	0.0435	0.2717	-0.2946	
-0.044042	-0.928908	0.300608	4.06	96.81	-29.05	0.0476	0.2793	-0.2974	
-0.037088	-0.9333	0.287676	3.78	92.12	-29.19	0.0543	0.2805	-0.3052	
-0.02806	-0.932446	0.300486	2.03	84.49	-26.32	0.0599	0.287	-0.2968	
-0.060878	-0.926468	0.278404	1.05	84.49	-25.34	0.0668	0.2824	-0.2952	
-0.083448	-0.93757	0.27023	-2.31	82.81	-24.57	0.0805	0.2807	-0.2966	
-0.091744	-0.924272	0.269742	-7.84	82.88	-21.7	0.08199999	0.2872	-0.2899	
-0.081862	-0.935374	0.263032	-10.15	80.64	-19.6	0.0889	0.2826	-0.2867	
-0.08357	-0.935984	0.251564	-7.91	78.68	-17.64	0.096	0.2801	-0.2739	
-0.087718	-0.911584	0.230336	-9.87	76.37	-18.2	0.1082	0.278	-0.2833	
-0.10065	-0.948062	0.230336	-12.32	69.3	-21.14	0.107	0.2863	-0.2718	
-0.039406	-0.956968	0.236192	-13.16	65.17	-20.16	0.1152	0.2876	-0.2764	
-0.03965	-0.94977	0.243512	-12.67	67.48	-20.16	0.1179	0.2937	-0.2776	
-0.030378	-0.939522	0.240096	-10.57	65.38	-22.96	0.1237	0.3008	-0.2564	
-0.000366	-0.943426	0.236436	-8.19	62.65	-24.57	0.1252	0.3011	-0.25	
-0.024766	-0.95587	0.216428	-5.88	61.67	-24.57	0.1265	0.3008	-0.2564	
-0.042944	-0.952942	0.211914	-6.37	57.75	-26.32	0.1292	0.3038	-0.2578	
-0.057096	-0.980758	0.21472	-8.4	55.16	-26.39	0.1418	0.3092	-0.2397	
-0.070516	-0.984174	0.184464	-8.54	52.29	-22.61	0.1406	0.3016	-0.2352	
-0.047946	-0.959042	0.22387	-2.38	42.91	-19.46	0.1419	0.3173	-0.2313	
0.004026	-0.962702	0.227042	1.68	51.52	-18.83	0.1405	0.3186	-0.2361	
-0.036844	-0.959652	0.240218	-0.77	49.42	-24.01	0.1408	0.3193	-0.2457	
-0.08967	-0.978562	0.184098	2.45	52.5	-24.71	0.142	0.3206	-0.2264	
-0.088938	-0.965996	0.196664	-2.87	46.97	-22.05	0.1461	0.3173	-0.2296	
-0.07015	-0.962702	0.20374	-1.19	42.42	-18.83	0.1474	0.311	-0.2331	
-0.022204	-0.932934	0.224358	-0.56	40.46	-18.2	0.1615	0.3165	-0.2117	
-0.007442	-0.938668	0.227042	-1.33	39.48	-17.15	0.1477	0.3116	-0.2187	
-0.034892	-0.957334	0.249246	-0.14	39.76	-15.26	0.1504	0.3193	-0.2182	
-0.060024	-0.926834	0.232288	1.47	40.11	-15.26	0.1547	0.3198	-0.2069	
-0.096502	-0.93879	0.209474	1.47	38.85	-12.18	0.156	0.3306	-0.208	
-0.090402	-0.937204	0.205814	-0.91	30.66	-10.78	0.1642	0.3334	-0.2125	
-0.0976	-0.96441	0.172996	-5.88	23.38	-8.75	0.1672	0.3279	-0.1983	
-0.038918	-0.971974	0.21716	-4.2	18.41	-8.12	0.1561	0.3214	-0.2068	
-0.002684	-0.91927	0.232776	0.35	20.65	-8.75	0.1644	0.3215	-0.2035	
-0.054656	-0.94733	0.211914	-0.14	19.25	-11.48	0.16	0.3256	-0.2146	
-0.079178	-0.976244	0.200568	-0.35	17.22	-10.36	0.1588	0.3339	-0.203	
-0.042456	-0.964044	0.211914	4.97	12.11	-11.34	0.1603	0.3278	-0.2017	
-0.023302	-0.974292	0.225822	8.12	10.71	-12.32	0.1548	0.3231	-0.202	
-0.030256	-0.924516	0.23363	16.8	11.2	-13.16	0.1577	0.3219	-0.194	
-0.002928	-0.944768	0.2196	21	10.64	-15.26	0.1602	0.3308	-0.2031	
0.009638	-0.988078	0.275232	21.91	7.91	-15.26	0.1531	0.3224	-0.218	
0.013542	-0.954528	0.294996	26.32	12.53	-13.86	0.156	0.3228	-0.21	
0.038186	-0.893162	0.283772	32.34	17.15	-13.23	0.1532	0.3351	-0.2127	
0.02745	-0.945012	0.286456	26.25	16.52	-12.53	0.1588	0.3134	-0.2119	
0.035136	-0.982466	0.303292	24.43	16.31	-11.27	0.1559	0.3192	-0.2197	
-0.022692	-0.940986	0.264862	24.64	16.45	-10.43	0.1516	0.3252	-0.2259	
-0.012932	-0.933544	0.293532	24.71	13.72	-8.75	0.1462	0.3224	-0.2198	
-0.017812	-0.925736	0.280112	20.09	10.22	-5.74	0.1585	0.3237	-0.2227	
-0.032208	-0.93269	0.276818	10.71	3.36	-3.36	0.1586	0.3224	-0.2179	
0.001098	-0.925614	0.28853	-4.9	-4.69	0	0.1586	0.3146	-0.2199	
0.008052	-0.917074	0.299998	-18.27	-10.78	5.39	0.153	0.3189	-0.2278	
-0.01281	-0.941352	0.277916	-23.31	-14.28	7.42	0.1584	0.3171	-0.2326	
-0.025254	-0.94916	0.27511	-23.87	-16.59	8.82	0.1532	0.321	-0.2149	
-0.058682	-0.9577	0.246806	-21.07	-17.64	11.41	0.1586	0.3129	-0.2232	
-0.10248	-0.97234	0.248148	-22.54	-22.12	16.31	0.1518	0.3258	-0.2131	
-0.079178	-0.94855	0.2135	-8.19	-29.47	14.77	0.1571	0.3251	-0.2274	
-0.049654	-0.930616	0.191662	-8.82	-34.93	16.03	0.1533	0.3275	-0.2082	
-0.08906	-0.95892	0.194468	-14.42	-41.72	18.13	0.1503	0.3269	-0.2227	
-0.078812	-0.98759	0.219112	-11.13	-47.95	18.62	0.1475	0.3283	-0.2259	
-0.09699	-0.95099	0.210328	-4.34	-51.52	24.08	0.1491	0.3212	-0.2118	
-0.05185	-0.910974	0.186172	-7.91	-57.68	26.18	0.1504	0.3131	-0.2201	
-0.009881999	-0.991128	0.20862	-19.32	-65.1	24.64	0.1461	0.3189	-0.2295	
-0.008905999	-0.984784	0.224846	-16.94	-68.11	24.78	0.1407	0.3238	-0.223	
-0.01891	-0.9577	0.193492	-12.18	-65.94	22.61	0.1366	0.3209	-0.2201	
-0.052338	-0.94611	0.173484	-7.91	-66.99	20.58	0.1294	0.3217	-0.2122	
-0.03172	-0.913536	0.147498	-0.35	-68.6	21.49	0.1337	0.3221	-0.2281	
0.01891	-1.023214	0.182634	-5.39	-78.26	31.08	0.1268	0.3203	-0.2347	
0.005734	-1.003084	0.201422	-0.63	-77.63	35.91	0.1211	0.3232	-0.2411	
-0.035014	-0.98576	0.170556	-0.7	-78.75	31.43	0.1294	0.3092	-0.2415	
-0.106628	-0.96502	0.108458	2.66	-86.24	23.73	0.1211	0.3184	-0.2429	
-0.088572	-0.992958	0.101626	5.04	-99.12	21.49	0.1225	0.3105	-0.2464	
-0.00488	-0.995032	0.151158	1.89	-113.96	24.78	0.1141	0.3164	-0.2543	
0.07808	-0.986492	0.200446	-0.14	-114.52	31.08	0.0907	0.3149	-0.2325	
0.067588	-0.945134	0.200568	5.04	-109.69	33.11	0.0907	0.3103	-0.2567	
-0.040138	-0.993324	0.145058	2.1	-93.17	30.45	0.085	0.3083	-0.2681	
-0.07259	-1.023214	0.135298	0.07	-104.44	28.98	0.0824	0.3069	-0.2634	
-0.001708	-0.988322	0.134932	1.19	-108.92	31.71	0.0728	0.3118	-0.2586	
0.071492	-1.01138	0.210572	-2.59	-116.2	34.02	0.0685	0.2988	-0.2737	
0.042212	-1.006012	0.209962	1.47	-112.35	34.23	0.0668	0.3075	-0.2877	
-0.004758	-1.003816	0.176534	7.28	-106.4	32.13	0.0492	0.2926	-0.3032	
-0.047824	-1.012234	0.140544	13.16	-108.36	29.82	0.0437	0.2925	-0.2793	
-0.006466	-1.002596	0.163358	19.32	-117.18	29.47	0.0257	0.2953	-0.2635	
0.049532	-0.986492	0.181902	19.53	-119.84	30.03	0.0216	0.3063	-0.2855	
0.07076	-0.971364	0.210084	18.62	-120.05	32.34	0.0119	0.2937	-0.2927	
0.046238	-0.978684	0.224724	18.83	-114.52	34.79	0.0089	0.2838	-0.3076	
0.020008	-0.957578	0.213134	17.92	-103.11	38.78	-0.01	0.2937	-0.2948	
0.014884	-0.969412	0.15372	19.18	-105.28	43.19	-0.0117	0.2899	-0.311	
0.02257	-0.965508	0.22936	9.45	-123.62	48.65	-0.0254	0.2775	-0.3134	
0.021594	-0.972828	0.212768	9.24	-121.73	52.08	-0.032	0.2844	-0.2989	
0.008905999	-0.99064	0.221064	10.22	-125.23	54.46	-0.0236	0.2831	-0.2924	
0.031232	-0.972462	0.230946	10.92	-125.58	55.93	-0.0415	0.2879	-0.2909	
0.077836	-0.931958	0.211792	8.61	-122.36	58.8	-0.0456	0.2785	-0.2947	
0.100772	-0.944768	0.286212	5.18	-142.52	54.32	-0.0596	0.2794	-0.3109	
0.069296	-0.944158	0.239608	15.47	-103.95	57.4	-0.0678	0.2858	-0.306	
0.046604	-0.940742	0.25681	12.53	-111.44	54.25	-0.0801	0.2846	-0.3015	
0.041602	-0.932568	0.242902	13.02	-107.1	52.99	-0.0703	0.2755	-0.2953	
0.048922	-0.955992	0.255834	10.92	-113.75	50.61	-0.0784	0.2805	-0.2873	
0.060878	-0.930128	0.261934	11.55	-114.66	47.32	-0.0867	0.2742	-0.2909	
0.03782	-0.94245	0.233996	12.39	-113.19	45.99	-0.0936	0.2742	-0.2927	
0.009393999	-0.986248	0.282064	12.04	-117.95	44.17	-0.1017	0.2856	-0.2812	
0.007929999	-0.99186	0.261202	17.01	-118.93	43.05	-0.1029	0.2874	-0.2747	
-0.000122	-0.991372	0.26901	21.63	-120.12	46.34	-0.1208	0.2828	-0.2769	
0.01159	-0.988322	0.293776	22.96	-120.4	47.74	-0.1179	0.2784	-0.2707	
0.034404	-0.954528	0.287676	31.92	-121.03	48.51	-0.126	0.2852	-0.2594	
0.136762	-0.91805	0.349408	28.49	-129.36	47.88	-0.1344	0.2863	-0.2691	
0.168726	-0.91622	0.38613	22.26	-118.23	52.71	-0.144	0.2802	-0.2696	
0.165554	-0.897676	0.387594	18.2	-106.12	56.84	-0.1535	0.2913	-0.2645	
0.149816	-0.912194	0.387228	16.17	-97.65	55.86	-0.1521	0.2788	-0.2666	
0.119194	-0.864126	0.411872	16.73	-90.51	54.18	-0.1575	0.2808	-0.257	
0.124806	-0.865102	0.409676	17.78	-80.29	53.2	-0.1533	0.2778	-0.2539	
0.124806	-0.874374	0.447374	16.17	-75.67	54.53	-0.1628	0.2796	-0.2492	
0.127002	-0.866444	0.47031	13.72	-71.19	51.8	-0.156	0.2936	-0.2484	
0.100284	-0.888648	0.452742	16.1	-66.5	50.68	-0.1669	0.286	-0.2458	
0.023668	-0.830332	0.461892	15.96	-63.21	47.88	-0.1587	0.2905	-0.247	
0.007808	-0.852902	0.504592	12.32	-61.11	46.69	-0.1572	0.2847	-0.2393	
0.002562	-0.817888	0.487268	11.13	-55.44	45.57	-0.1615	0.2906	-0.2471	
-0.010248	-0.82716	0.492758	8.05	-52.99	41.23	-0.1546	0.2968	-0.2451	
-0.01708	-0.80947	0.492392	9.94	-49.35	39.97	-0.1502	0.2959	-0.229	
-0.040138	-0.787144	0.503982	9.24	-46.48	38.85	-0.1667	0.3053	-0.229	
-0.03172	-0.798978	0.514596	4.62	-43.89	37.94	-0.1599	0.302	-0.2338	
-0.02989	-0.845948	0.516914	4.76	-39.69	37.03	-0.1488	0.3023	-0.2255	
-0.051118	-0.824842	0.511668	6.86	-36.4	34.79	-0.1558	0.3051	-0.2335	
-0.066734	-0.82838	0.490806	7.35	-35.07	33.32	-0.1503	0.3112	-0.2331	
-0.070272	-0.821426	0.523502	6.51	-32.48	33.67	-0.15	0.2995	-0.2177	
-0.11285	-0.796538	0.506788	8.54	-28.14	33.25	-0.1541	0.3089	-0.2173	
-0.110166	-0.809714	0.498614	6.37	-30.1	33.53	-0.1557	0.3084	-0.2286	
-0.097234	-0.809592	0.532164	3.57	-31.71	32.41	-0.1485	0.3138	-0.2106	
-0.092598	-0.80947	0.532774	2.73	-29.4	31.64	-0.1556	0.318	-0.2202	
-0.100528	-0.812642	0.513986	1.75	-25.76	29.26	-0.15	0.3119	-0.2171	
-0.08479	-0.803858	0.504348	3.5	-25.62	27.09	-0.1473	0.3183	-0.2136	
-0.076494	-0.822036	0.555344	3.99	-23.38	26.67	-0.1391	0.3165	-0.2167	
-0.098698	-0.79178	0.553392	2.31	-18.9	24.08	-0.1362	0.3152	-0.2119	
-0.108214	-0.76616	0.545218	0.7	-14.35	21.63	-0.1459	0.3135	-0.217	
-0.11956	-0.791292	0.535336	2.17	-9.94	19.11	-0.135	0.3196	-0.2164	
-0.100528	-0.776774	0.553758	2.94	-9.87	15.19	-0.1335	0.3166	-0.215	
-0.111752	-0.77958	0.55937	-1.4	-5.95	12.74	-0.1295	0.3228	-0.2146	
-0.16653	-0.787754	0.539484	-2.17	1.89	11.2	-0.1336	0.3211	-0.2179	
-0.190076	-0.798368	0.52582	-2.24	5.39	8.4	-0.1253	0.3228	-0.2145	
-0.171898	-0.801906	0.525088	-3.85	4.83	5.25	-0.1282	0.324	-0.2225	
-0.161406	-0.798612	0.528626	-3.29	6.86	3.29	-0.1281	0.329	-0.2127	
-0.18056	-0.790316	0.515938	-2.45	10.57	1.33	-0.139	0.3292	-0.2113	
-0.1952	-0.808738	0.49044	-0.49	11.9	-0.63	-0.1307	0.3341	-0.2045	
-0.197884	-0.78751	0.521916	0.77	11.41	-1.96	-0.1323	0.3193	-0.2228	
-0.178242	-0.794464	0.520086	0.84	14.63	-2.87	-0.1295	0.3147	-0.2213	
-0.217282	-0.811178	0.501786	1.68	18.48	-5.46	-0.1241	0.3224	-0.2225	
-0.22326	-0.823988	0.47946	3.01	17.43	-6.44	-0.1226	0.3165	-0.2163	
-0.204716	-0.812764	0.488976	4.34	15.4	-7.35	-0.1198	0.3243	-0.2143	
-0.192516	-0.810324	0.506178	3.64	16.38	-7.63	-0.1322	0.3181	-0.2165	
-0.21472	-0.812276	0.48678	2.38	17.57	-9.17	-0.1201	0.3222	-0.2272	
-0.234972	-0.82289	0.474458	1.47	18.34	-10.08	-0.1241	0.3302	-0.2221	
-0.20557	-0.844972	0.471164	3.5	13.37	-9.73	-0.1243	0.3235	-0.2336	
-0.1769	-0.825452	0.498248	1.61	11.97	-9.66	-0.1133	0.3187	-0.2352	
-0.177266	-0.810812	0.507032	-0.35	15.33	-11.69	-0.1201	0.3143	-0.2291	
-0.196542	-0.8174	0.464454	0.28	19.6	-14.28	-0.1282	0.3193	-0.2227	
-0.188002	-0.84485	0.47946	1.82	18.2	-15.12	-0.1227	0.3116	-0.2213	
-0.105042	-0.810812	0.512888	0.35	14.21	-15.19	-0.1269	0.3159	-0.2292	
-0.11895	-0.80215	0.531432	-3.71	22.82	-17.71	-0.1257	0.3109	-0.2374	
-0.1403	-0.845582	0.484462	-1.89	28.91	-21.7	-0.1297	0.3113	-0.2295	
-0.166286	-0.82228	0.463478	-0.63	32.2	-24.01	-0.1326	0.3234	-0.2354	
-0.130906	-0.810568	0.486536	-2.24	31.01	-24.29	-0.1173	0.3114	-0.226	
-0.126514	-0.841556	0.444324	-2.94	36.82	-27.3	-0.1296	0.313	-0.2246	
-0.155062	-0.860466	0.461404	-0.77	40.04	-30.8	-0.1201	0.3126	-0.2324	
-0.10797	-0.823134	0.481168	0.56	37.38	-33.18	-0.1216	0.3139	-0.2388	
-0.058072	-0.811666	0.512888	-3.36	40.04	-34.3	-0.1216	0.3124	-0.2372	
0.019032	-0.776042	0.513132	-8.4	47.81	-35.77	-0.1272	0.309	-0.2455	
-0.051484	-0.833016	0.508984	-13.16	76.51	-37.31	-0.1327	0.2997	-0.2477	
-0.109922	-0.849364	0.378932	-1.54	77.07	-39.06	-0.1229	0.3095	-0.2342	
-0.16043	-0.86071	0.44774	-3.92	72.66	-40.46	-0.1162	0.2965	-0.2474	
-0.108702	-0.86437	0.453596	-5.11	69.09	-42.14	-0.1219	0.3102	-0.2533	
-0.08418	-0.864248	0.496662	-9.52	73.01	-44.52	-0.1162	0.3011	-0.2472	
-0.039772	-0.85522	0.504104	-10.92	77.49	-45.36	-0.1163	0.3025	-0.252	
-0.01525	-0.874496	0.495442	-8.12	88.27	-48.16	-0.1179	0.3019	-0.2648	
-0.048922	-0.898896	0.473848	-0.14	99.75	-54.18	-0.1138	0.3018	-0.2663	
-0.092964	-0.870348	0.436272	3.43	111.72	-54.67	-0.104	0.2913	-0.2586	
-0.086254	-0.883524	0.421388	5.53	116.06	-55.23	-0.1111	0.2892	-0.27	
-0.036722	-0.868884	0.456402	7.07	123.13	-51.66	-0.0892	0.2873	-0.276	
0.009516	-0.845704	0.374174	10.64	133.14	-56	-0.081	0.2825	-0.2793	
-0.060878	-0.793244	0.224602	16.87	141.68	-58.66	-0.0799	0.2741	-0.294	
-0.065026	-0.85888	0.358192	-11.2	112.35	-63.91	-0.0758	0.2817	-0.2952	
-0.06283	-0.930128	0.410896	-13.3	112.77	-68.46	-0.0703	0.2786	-0.2952	
-0.092354	-0.92476	0.350384	-6.02	125.09	-73.43	-0.0622	0.2704	-0.3034	
-0.116266	-0.939766	0.31232	-7	118.65	-77.77	-0.0566	0.2801	-0.2948	
-0.124684	-0.942206	0.256078	-6.44	119.14	-74.9	-0.0486	0.2888	-0.307	
-0.159698	-0.95892	0.215208	-4.62	124.67	-68.88	-0.0554	0.2764	-0.3077	
-0.150548	-0.965996	0.227652	-3.57	113.4	-66.85	-0.0512	0.2814	-0.2994	
-0.092842	-0.964288	0.278892	-1.12	107.52	-65.31	-0.0416	0.2844	-0.3007	
-0.04026	-0.98515	0.325618	-2.52	108.99	-62.72	-0.028	0.2746	-0.3088	
-0.018422	-1.021384	0.332206	-1.26	119	-54.04	-0.0351	0.2757	-0.3201	
-0.055754	-0.986736	0.262788	8.89	138.81	-45.78	-0.0158	0.2727	-0.3166	
-0.080886	-0.950014	0.238998	9.1	138.95	-45.36	-0.0171	0.2761	-0.3101	
-0.1037	-0.947818	0.253272	10.71	132.58	-45.22	0.0049	0.2793	-0.3047	
-0.099918	-0.951112	0.28121	8.4	125.16	-47.67	0.0185	0.2695	-0.3128	
-0.031598	-0.956724	0.289994	6.02	122.57	-52.43	0.0226	0.26	-0.318	
-0.013298	-0.934032	0.269498	1.75	125.93	-57.05	0.0309	0.2679	-0.3126	
-0.04819	-0.95221	0.238998	-0.07	126.98	-59.22	0.0293	0.2675	-0.3223	
-0.100162	-0.965142	0.228872	-1.4	129.01	-61.04	0.0487	0.2645	-0.3172	
-0.074542	-0.959164	0.26535	-6.16	128.52	-61.11	0.0558	0.2604	-0.3029	
-0.038308	-0.938668	0.287432	-9.31	138.11	-53.55	0.0557	0.2726	-0.3071	
-0.1098	-0.968924	0.240218	-8.47	146.72	-57.05	0.06659999	0.2803	-0.3081	
-0.111996	-0.951356	0.234972	-4.76	149.31	-65.1	0.0793	0.2765	-0.2872	
-0.118584	-0.94733	0.191662	-5.32	140.42	-67.48	0.1026	0.2808	-0.2913	
-0.14884	-0.954284	0.203862	-9.03	132.09	-66.99	0.0944	0.2842	-0.2866	
-0.130174	-0.94245	0.183732	-15.33	121.52	-66.08	0.1013	0.2905	-0.2829	
-0.113704	-0.998326	0.27145	-23.1	115.08	-60.34	0.1057	0.2959	-0.2906	
-0.093818	-0.943914	0.190808	-16.52	129.85	-57.75	0.1114	0.293	-0.2586	
-0.079788	-0.910486	0.17507	-11.34	124.11	-56.84	0.1195	0.3069	-0.2578	
-0.123464	-0.991738	0.185806	-11.2	109.48	-57.26	0.1253	0.3155	-0.2381	
-0.12749	-1.02175	0.157014	-11.41	101.29	-54.88	0.135	0.3155	-0.2363	
-0.131394	-1.056154	0.160186	-8.89	94.71	-51.87	0.1364	0.314	-0.2364	
-0.134688	-1.036512	0.13481	-4.06	88.76	-48.37	0.1295	0.3155	-0.238	
-0.155794	-0.987712	0.09699	1.61	77.35	-43.19	0.1338	0.327	-0.2214	
-0.14335	-0.981978	0.108946	1.05	65.87	-40.18	0.1436	0.3227	-0.2134	
-0.100162	-0.988322	0.122366	3.43	52.5	-40.6	0.1241	0.3284	-0.2264	
-0.05063	-0.974902	0.175924	5.04	43.12	-39.83	0.1381	0.3195	-0.2169	
-0.07564	-0.942938	0.15982	6.16	38.64	-37.66	0.1269	0.3317	-0.223	
-0.085156	-0.973194	0.162382	8.61	28	-35.98	0.1311	0.3333	-0.2196	
-0.028182	-1.005524	0.228994	10.29	24.15	-29.96	0.1419	0.3267	-0.2277	
0.028304	-0.932324	0.24156	10.29	23.45	-23.45	0.1394	0.3256	-0.2182	
0.099674	-0.932812	0.266936	10.5	22.75	-24.15	0.1296	0.3363	-0.2227	
0.09394	-0.940254	0.245342	12.67	25.55	-26.25	0.1285	0.3323	-0.2085	
0.074908	-0.931226	0.2013	9.1	25.41	-25.34	0.1394	0.3335	-0.2146	
0.053802	-0.969168	0.23851	10.57	20.79	-24.22	0.1311	0.3365	-0.2179	
0.062708	-0.926102	0.249002	15.54	21.49	-18.69	0.1244	0.3292	-0.2088	
0.10675	-0.912438	0.2867	14.21	21.35	-20.16	0.1297	0.327	-0.2231	
0.133956	-0.924028	0.274866	10.57	18.34	-23.31	0.1228	0.3317	-0.2231	
0.139568	-0.94977	0.32147	10.71	19.04	-24.57	0.1199	0.3377	-0.2277	
0.090158	-0.936716	0.286334	14.84	23.31	-25.27	0.1201	0.3288	-0.2185	
0.074664	-0.915	0.292556	15.4	20.51	-23.87	0.1269	0.3425	-0.2225	
0.06527	-0.895602	0.294386	13.65	15.19	-23.66	0.1242	0.327	-0.2233	
0.083204	-0.924638	0.291458	9.8	12.25	-21	0.1105	0.3303	-0.2218	
0.118462	-0.92842	0.338672	7.28	8.82	-19.6	0.1158	0.3252	-0.2299	
0.122366	-0.902068	0.308294	10.78	10.43	-18.06	0.1117	0.3315	-0.2281	
0.090402	-0.899262	0.313418	10.85	4.62	-17.85	0.1144	0.3251	-0.2331	
0.108946	-0.92781	0.327204	7.91	-2.31	-16.24	0.1118	0.3303	-0.2218	
0.141276	-0.92598	0.329766	4.2	-3.71	-12.11	0.1104	0.3269	-0.2284	
0.132248	-0.92659	0.336354	3.08	-4.41	-8.54	0.1073	0.3323	-0.2202	
0.126636	-0.913048	0.31903	1.47	-7.63	-5.39	0.1116	0.3296	-0.2362	
0.137494	-0.916708	0.31293	-0.84	-10.99	-3.01	0.0993	0.3282	-0.2349	
0.1281	-0.921954	0.30317	-1.33	-14.56	1.19	0.0949	0.3292	-0.2494	
0.152378	-0.937082	0.30927	-4.41	-17.57	3.99	0.0991	0.3327	-0.2395	
0.179706	-0.93391	0.31049	-5.81	-17.5	5.53	0.0938	0.3361	-0.2315	
0.163236	-0.923174	0.315248	-5.46	-17.78	6.93	0.102	0.3313	-0.2347	
0.178486	-0.89731	0.292678	-6.58	-17.01	9.38	0.0938	0.3284	-0.2318	
0.185074	-0.920002	0.30744	-9.31	-19.88	9.8	0.1021	0.3221	-0.2319	
0.161894	-0.919758	0.311466	-8.96	-20.16	9.59	0.0951	0.3266	-0.2367	
0.136152	-0.926468	0.310368	-9.31	-19.74	10.85	0.1006	0.3361	-0.2313	
0.172386	-0.906216	0.299754	-5.04	-22.54	7.42	0.1007	0.3346	-0.2298	
0.13176	-0.938058	0.270108	-3.85	-19.6	8.12	0.0954	0.3256	-0.2239	
0.135664	-0.939278	0.292434	-4.34	-19.81	9.59	0.0938	0.3361	-0.2331	
0.128344	-0.927566	0.26352	-4.41	-18.2	9.8	0.0924	0.3408	-0.2313	
0.084912	-0.942938	0.253394	-3.57	-17.57	12.25	0.1074	0.3359	-0.236	
0.077592	-0.947086	0.24766	-0.7	-22.96	12.95	0.0992	0.336	-0.233	
0.103334	-0.953552	0.250588	-0.56	-26.81	14.63	0.0897	0.3315	-0.2318	
0.102114	-0.966362	0.257176	1.26	-29.75	15.12	0.0951	0.3266	-0.2367	
0.08113	-0.969778	0.224358	7.07	-33.04	17.43	0.0924	0.3251	-0.2352	
0.075396	-0.96197	0.212524	9.87	-36.47	19.53	0.0909	0.3312	-0.2398	
