Sensor string: E
Serial number: 1970-01-0000
Firmware version: 2,015
Hardware version: 2,2
Calibration quality: 5
ax	ay	az	gx	gy	gz	mx	my	mz

-0.998814	0.134444	-0.133224	0.28	-0.84	0.42	0.4387	-0.0329	-0.1577	Reference
-0.996984	0.133712	-0.133834	0.14	-0.91	0.49	0.4456	-0.0243	-0.165	
-1.0004	0.137006	-0.135542	-0.14	-1.19	0.56	0.4374	-0.0378	-0.1715	
-0.998448	0.139568	-0.139934	-0.21	-1.05	0.77	0.4374	-0.0377	-0.1684	
-0.99735	0.139324	-0.143838	0.28	-0.84	1.05	0.4429	-0.0287	-0.1621	
-0.999424	0.137006	-0.14457	0.77	-0.84	1.12	0.4342	-0.0314	-0.1652	
-0.985516	0.127124	-0.134444	-0.21	-0.49	1.4	0.4358	-0.0343	-0.1562	
-1.005158	0.135298	-0.120658	-1.82	-0.56	0.98	0.4347	-0.0435	-0.161	
-0.996618	0.138958	-0.147742	-2.24	-1.47	1.26	0.4359	-0.0374	-0.1578	
-0.992958	0.144814	-0.152744	1.05	-0.84	1.96	0.4386	-0.0316	-0.1637	
-1.002596	0.138714	-0.127124	-1.05	0.7	2.17	0.4436	-0.0457	-0.1717	
-0.998692	0.138836	-0.125782	-1.54	0.14	1.68	0.4399	-0.0272	-0.1681	
-0.995886	0.13908	-0.131394	-1.19	-0.35	1.61	0.4312	-0.0314	-0.1698	
-0.999912	0.140666	-0.133346	-0.91	-0.07	1.47	0.4356	-0.0301	-0.1682	
-1.000644	0.142374	-0.13115	-1.05	0	1.68	0.4358	-0.0344	-0.1608	
-0.999058	0.140422	-0.124684	-0.98	0	1.54	0.4345	-0.0375	-0.1639	
-0.995764	0.142374	-0.131272	-1.96	-0.14	1.33	0.4402	-0.0344	-0.1532	
-0.995764	0.148108	-0.137738	-1.89	-0.07	1.47	0.442	-0.0426	-0.1731	
-0.996496	0.147864	-0.134322	-0.98	0.28	1.54	0.4447	-0.0379	-0.1624	
-0.98942	0.152744	-0.136152	0.49	0	1.61	0.4287	-0.0402	-0.1609	
-0.979904	0.174582	-0.147498	2.03	-0.84	1.19	0.4363	-0.0468	-0.1687	
-0.979416	0.150914	-0.169092	-2.73	-0.84	0.63	0.4449	-0.0427	-0.1716	
-1.017114	0.149572	-0.164944	-1.12	-1.54	0.35	0.4431	-0.0333	-0.1653	
-1.023092	0.136518	-0.15067	-2.45	-2.31	0.7	0.439	-0.0406	-0.1594	
-1.018578	0.148962	-0.138714	-1.75	-3.99	-0.21	0.4359	-0.0377	-0.1684	
-1.01321	0.159454	-0.137982	-4.69	-5.53	-0.07	0.4333	-0.0432	-0.1534	
-1.01809	0.157624	-0.141032	-4.2	-6.65	-0.56	0.4345	-0.0375	-0.1654	
-1.014186	0.137616	-0.143838	-2.52	-8.12	-0.07	0.4313	-0.0328	-0.1637	
-1.012722	0.145302	-0.139324	-0.98	-9.31	-1.4	0.4447	-0.0383	-0.1745	
-1.01321	0.13786	-0.134688	-3.15	-10.71	-1.54	0.4373	-0.0347	-0.1698	
-1.010648	0.140788	-0.138348	-2.17	-12.18	-1.89	0.4297	-0.0298	-0.1682	
-1.022238	0.136762	-0.126392	-1.75	-13.51	-2.38	0.4314	-0.0362	-0.176	
-1.012234	0.141886	-0.124684	-0.91	-14.7	-2.31	0.4362	-0.0456	-0.1793	
-1.01382	0.142252	-0.12505	-0.28	-16.1	-3.01	0.436	-0.0393	-0.173	
-1.019188	0.140544	-0.11834	-0.91	-16.52	-3.22	0.4342	-0.0336	-0.1865	
-1.01199	0.143594	-0.107238	-0.7	-18.13	-3.15	0.4342	-0.0322	-0.191	
-1.01809	0.144082	-0.096502	-0.42	-20.37	-3.22	0.4215	-0.0451	-0.1838	
-1.019676	0.138714	-0.098942	-1.26	-21.91	-3.85	0.4224	-0.0314	-0.1834	
-1.025532	0.140056	-0.105408	-2.31	-23.1	-4.2	0.4256	-0.0363	-0.1896	
-1.01626	0.145424	-0.095038	-0.84	-24.22	-4.62	0.4239	-0.0334	-0.1956	
-1.026508	0.143228	-0.07198	-2.17	-26.11	-4.76	0.4267	-0.0308	-0.2076	
-1.027972	0.147132	-0.061732	-1.4	-27.93	-5.11	0.4254	-0.0338	-0.2077	
-1.025044	0.137738	-0.05978	-1.61	-30.1	-5.53	0.4282	-0.031	-0.2106	
-1.030168	0.138104	-0.052582	0	-32.13	-5.81	0.4119	-0.0274	-0.2181	
-1.037488	0.129198	-0.050264	-0.49	-33.6	-6.02	0.4146	-0.0213	-0.2134	
-1.019188	0.131394	-0.047092	0	-35.98	-5.74	0.4221	-0.0249	-0.2211	
-1.027118	0.118584	-0.014152	-0.28	-38.01	-5.53	0.4105	-0.029	-0.2243	
-1.032486	0.117852	-0.013176	0.49	-40.11	-6.3	0.4031	-0.0288	-0.2288	
-1.03273	0.122976	-0.008296	2.03	-41.37	-7.35	0.4116	-0.022	-0.2422	
-1.027484	0.127612	0.018422	3.5	-43.12	-7.14	0.4043	-0.0217	-0.2422	
-1.021506	0.127734	0.015494	4.34	-45.85	-6.16	0.3913	-0.0274	-0.25	
-1.00833	0.10919	0.031964	4.41	-49.49	-5.67	0.3848	-0.0138	-0.2647	
-1.003572	0.110654	0.028182	3.29	-51.52	-5.53	0.391	-0.0216	-0.2604	
-1.003694	0.093452	0.045262	5.46	-50.75	-5.18	0.3795	-0.0261	-0.2772	
-1.013088	0.08686399	0.07381	9.24	-53.97	-4.76	0.3722	-0.0273	-0.2773	
-1.015162	0.085888	0.089792	5.39	-57.33	-4.34	0.3676	-0.0228	-0.2847	
-1.008818	0.086376	0.124684	6.79	-58.87	-4.27	0.3557	-0.0192	-0.2862	
-0.9882	0.085522	0.14152	2.73	-59.85	-4.27	0.3467	-0.0163	-0.3043	
-0.97478	0.081008	0.171532	-2.59	-60.97	-4.06	0.3467	-0.0147	-0.3012	
-0.989298	0.09577	0.180926	-2.31	-59.99	-4.48	0.3321	-0.0174	-0.3119	
-0.967582	0.099796	0.191174	0.84	-59.85	-2.24	0.3432	-0.0029	-0.3205	
-0.982344	0.100528	0.22814	2.17	-62.65	-0.77	0.3323	-0.0241	-0.3318	
-0.960994	0.119072	0.257664	1.26	-65.31	0.28	0.3381	-0.0212	-0.3302	
-0.934642	0.111508	0.261446	-5.32	-64.19	-0.14	0.3174	-0.0176	-0.3407	
-0.92171	0.103578	0.300364	-4.55	-63	-0.7	0.3015	-0.0245	-0.3424	
-0.914024	0.091378	0.318054	-5.32	-64.54	0.56	0.3043	-0.0218	-0.3515	
-0.901458	0.083448	0.329888	-1.82	-67.06	2.31	0.2969	-0.0201	-0.356	
-0.89853	0.074664	0.389912	-3.08	-71.82	3.08	0.2825	-0.0259	-0.3683	
-0.903898	0.083326	0.420656	-3.22	-74.62	3.29	0.2852	-0.0216	-0.3727	
-0.882304	0.079544	0.468358	-9.38	-77.35	5.04	0.2674	-0.0177	-0.3726	
-0.859002	0.074542	0.447618	-11.27	-76.37	6.02	0.2604	-0.0254	-0.3865	
-0.836188	0.069418	0.493978	-10.36	-75.74	5.04	0.2412	-0.0219	-0.3985	
-0.805566	0.08235	0.493124	-7.7	-77.49	4.62	0.2277	-0.0153	-0.4044	
-0.78446	0.084424	0.512766	-10.92	-79.8	4.62	0.2186	-0.0106	-0.4134	
-0.781288	0.082106	0.530334	-16.87	-79.17	4.48	0.2025	-0.0099	-0.4149	
-0.75945	0.078934	0.547536	-20.02	-79.17	4.2	0.1892	-0.0081	-0.4255	
-0.76433	0.052582	0.5978	-11.48	-77.14	4.06	0.1803	-0.0063	-0.43	
-0.734928	0.052582	0.614636	-9.94	-80.29	4.83	0.1707	-0.0212	-0.432	
-0.710528	0.044164	0.632326	-4.2	-80.64	4.83	0.164	-0.0044	-0.4421	
-0.689544	0.016226	0.66551	-5.39	-78.54	3.71	0.1389	-0.0002	-0.4405	
-0.660386	0.034648	0.713944	-5.11	-78.54	4.41	0.1406	-0.0049	-0.4437	
-0.651602	0.05551	0.728584	-1.33	-77.14	1.89	0.126	-0.0075	-0.4498	
-0.620248	0.055266	0.753228	-3.57	-76.86	2.66	0.1054	-0.0067	-0.4559	
-0.602802	0.07442	0.773114	-2.31	-73.78	2.03	0.0979	-0.0017	-0.4512	
-0.551196	0.076494	0.802272	-2.17	-72.59	3.57	0.0849	-0.0059	-0.4604	
-0.54046	0.088572	0.817034	-2.31	-68.11	3.29	0.0802	0.0003	-0.4588	
-0.523502	0.078934	0.857782	-9.17	-67.06	3.22	0.0714	0.0005	-0.4663	
-0.528382	0.086498	0.8906	-5.32	-67.9	2.87	0.0584	-0.0044	-0.4498	
-0.498614	0.077104	0.858148	-9.66	-65.52	2.24	0.0436	-0.0012	-0.468	
-0.46238	0.062464	0.867908	-7.98	-61.11	1.82	0.0374	0.005	-0.4678	
-0.445788	0.057584	0.859246	-8.82	-50.26	0.91	0.0126	0.0029	-0.4739	
-0.407846	0.045262	0.888648	-8.54	-52.01	1.68	0.0231	-0.0035	-0.4741	
-0.42761	0.05795	0.906094	-6.09	-45.29	-1.05	0.005	0.0079	-0.4708	
-0.392962	0.079666	0.902434	-7.21	-47.6	0.56	-0.0005	0.0023	-0.4649	
-0.392474	0.096624	0.915	0.35	-41.16	0.63	-0.0126	0.0102	-0.4723	
-0.386008	0.077836	0.942328	-5.32	-35.7	1.4	-0.0214	0.0105	-0.4768	
-0.390522	0.064904	0.924394	-5.32	-32.34	1.26	-0.0288	0.0125	-0.4707	
-0.37332	0.050996	0.955504	-6.3	-30.66	1.68	-0.0197	0.0043	-0.4785	
-0.365268	0.052216	0.94489	-0.98	-28.7	1.68	-0.0318	0.0126	-0.4738	
-0.393816	0.038796	0.951844	1.26	-25.69	-0.07	-0.0465	0.0134	-0.4677	
-0.374906	0.062464	0.923662	-0.21	-23.59	0.21	-0.0435	0.0132	-0.4692	
-0.38796	0.081862	0.940132	5.6	-21.14	-0.21	-0.0461	0.0061	-0.4588	
-0.375882	0.078202	0.942084	-1.68	-19.53	-1.26	-0.0452	0.0178	-0.4706	
-0.333304	0.068686	0.95404	-1.12	-17.78	0.7	-0.0465	0.0135	-0.4662	
-0.343308	0.07137	0.96258	1.19	-11.48	-0.28	-0.0535	0.0059	-0.477	
-0.350262	0.06734399	0.966484	-2.45	-11.76	-0.91	-0.06	0.0199	-0.4736	
-0.337696	0.06344	0.961116	-1.4	-8.61	-0.49	-0.0598	0.017	-0.4691	
-0.329156	0.059414	0.967948	-0.14	-6.51	-0.98	-0.0549	0.0044	-0.4755	
-0.330132	0.057218	0.976244	-0.42	-3.57	-1.05	-0.0606	0.0018	-0.4726	
-0.32818	0.050264	0.97844	-0.42	-2.45	-0.07	-0.0655	0.0127	-0.4708	
-0.32757	0.050752	0.983808	-0.49	-0.98	0.35	-0.0686	0.0177	-0.4585	
-0.32391	0.0488	0.983808	-1.05	-0.14	0.91	-0.0641	0.0141	-0.4707	
-0.314638	0.043798	0.977586	-1.05	1.75	1.19	-0.0609	0.007999999	-0.4664	
-0.309026	0.04148	0.98515	-0.84	3.99	1.61	-0.07009999	0.0174	-0.4707	
-0.315126	0.042456	0.988322	0.91	6.79	0.91	-0.0672	0.0175	-0.4631	
-0.319396	0.040626	0.983442	0.14	8.33	1.19	-0.0523	0.0138	-0.4647	
-0.317322	0.03599	0.983198	0.35	11.62	0.21	-0.061	0.0111	-0.4663	
-0.326106	0.043798	0.983076	2.03	15.26	-0.14	-0.0525	0.017	-0.457	
-0.326716	0.038552	0.975146	-0.84	18.62	-1.19	-0.0535	0.0062	-0.4664	
-0.311832	0.053436	0.961116	2.38	24.64	-1.82	-0.0378	0.0174	-0.4751	
-0.33428	0.048922	0.951478	1.82	29.75	-2.38	-0.0392	0.0148	-0.4601	
-0.36905	0.04514	0.94184	1.75	31.57	-2.1	-0.0331	0.01	-0.4602	
-0.371734	0.059048	0.931104	2.03	35.28	-1.96	-0.0306	0.0185	-0.4781	
-0.395646	0.054656	0.928054	2.1	36.68	-3.01	-0.0211	0.0047	-0.4679	
-0.409798	0.06588	0.916098	3.29	39.27	-3.01	-0.0136	-0.0004	-0.4771	
-0.408456	0.071004	0.89426	2.38	42.14	-1.89	-0.0186	0.0138	-0.4646	
-0.425902	0.068442	0.881938	1.26	42.98	-2.03	-0.0108	0.0039	-0.477	
-0.44042	0.072468	0.884988	0.28	43.4	-0.77	-0.0036	0.007	-0.4633	
-0.460794	0.061976	0.86803	1.82	46.62	0.07	0.0063	0.0124	-0.4707	
-0.483486	0.04575	0.857172	0.63	48.93	-0.56	0.0158	-0.0032	-0.4741	
-0.497272	0.042822	0.842044	0.07	50.26	-0.56	0.0241	0.0072	-0.4647	
-0.507886	0.05002	0.835334	1.19	50.47	0.14	0.0286	0.0054	-0.4678	
-0.52765	0.054168	0.817644	1.4	52.43	0.56	0.039	0.0019	-0.4694	
-0.543754	0.04819	0.811056	-0.28	53.69	0.35	0.0446	0.0093	-0.4676	
-0.563884	0.047824	0.797636	0.77	54.88	0.56	0.0547	0.0136	-0.4584	
-0.583282	0.041236	0.785192	0.7	54.95	0.42	0.0609	0.0057	-0.4601	
-0.59658	0.037698	0.780922	0.28	56.77	0.56	0.0708	0.0128	-0.463	
-0.612806	0.032818	0.762256	2.73	57.75	0.63	0.0751	0.0155	-0.4659	
-0.626836	0.029402	0.750544	2.59	58.94	0.42	0.0831	0.0003	-0.4557	
-0.634644	0.038308	0.733342	3.85	59.64	0.7	0.09779999	0.0009999999	-0.4602	
-0.65758	0.050386	0.704672	5.67	60.9	0.84	0.1222	0.0139	-0.4477	
-0.666364	0.048556	0.691618	4.48	61.74	0.21	0.1242	0.0001	-0.4511	
-0.680516	0.061244	0.679784	5.18	61.53	0.07	0.1401	0.0055	-0.4464	
-0.701988	0.07442	0.68076	6.3	61.6	0.07	0.1491	0.0023	-0.4404	
-0.71858	0.077592	0.657824	3.92	61.95	-0.28	0.1537	-0.0024	-0.439	
-0.741272	0.071126	0.64355	1.82	62.79	-1.12	0.1641	-0.0043	-0.436	
-0.741028	0.057096	0.614758	2.1	63.7	-0.98	0.1726	0.0015	-0.4313	
-0.751154	0.059414	0.592066	3.64	64.47	-1.05	0.1877	-0.007999999	-0.4224	
-0.762866	0.059048	0.561322	2.31	64.75	-0.28	0.1933	-0.002	-0.4162	
-0.78873	0.060878	0.556564	4.27	64.82	-0.35	0.2022	-0.0041	-0.4223	
-0.816424	0.0671	0.538874	4.9	64.96	0.56	0.217	-0.006	-0.4148	
-0.821914	0.07198	0.519232	7.35	64.54	1.82	0.2255	0.0014	-0.4024	
-0.821182	0.080276	0.487512	7.07	64.26	1.82	0.2241	-0.0001	-0.407	
-0.831064	0.070516	0.472506	5.39	65.24	1.54	0.2382	-0.0203	-0.4	
-0.854122	0.06893	0.453474	4.06	65.24	1.54	0.2436	-0.0096	-0.3921	
-0.872178	0.070882	0.424438	4.69	65.03	1.89	0.2577	0.0019	-0.3872	
-0.884134	0.074786	0.407358	3.01	64.89	0.77	0.2567	-0.0068	-0.3784	
-0.893528	0.080154	0.40199	1.47	64.33	-0.07	0.2731	-0.0117	-0.3664	
-0.911706	0.080032	0.35441	1.47	62.3	-1.61	0.2858	-0.0017	-0.3676	
-0.92232	0.086132	0.34526	0.63	62.16	-2.45	0.299	-0.0006	-0.3599	
-0.938302	0.088938	0.312442	-1.26	61.39	-2.52	0.305	-0.004	-0.3646	
-0.963434	0.083936	0.301462	-1.47	60.06	-2.73	0.3079	-0.0036	-0.3464	
-0.983076	0.068442	0.277672	-2.87	59.43	-0.98	0.3168	-0.004	-0.3464	
-0.977708	0.0549	0.254858	-2.38	58.52	0.77	0.3261	-0.0161	-0.3285	
-0.953186	0.039284	0.237656	-2.73	59.01	2.66	0.3257	-0.0069	-0.3267	
-0.967338	0.052582	0.218136	-0.56	57.75	3.57	0.342	-0.0106	-0.3238	
-0.961848	0.06039	0.191906	2.24	56.42	5.04	0.3481	-0.0151	-0.3133	
-0.976244	0.064904	0.181292	-0.84	56.14	5.25	0.3449	-0.008599999	-0.304	
-1.00406	0.076372	0.164212	0.7	54.25	5.88	0.3492	-0.0056	-0.2994	
-1.014064	0.101016	0.14579	4.69	50.75	5.81	0.3596	-0.0074	-0.2904	
-0.99369	0.104188	0.118584	4.9	49.49	7.56	0.3714	-0.011	-0.2919	
-0.998204	0.112362	0.100406	3.92	47.53	5.74	0.3653	-0.0044	-0.2842	
-0.97661	0.102236	0.094184	0.42	46.48	3.5	0.3772	-0.0078	-0.2767	
-1.00284	0.099918	0.080154	3.85	44.73	2.45	0.3846	-0.007999999	-0.2721	
-0.992104	0.110166	0.069906	8.75	43.89	2.52	0.3864	-0.0154	-0.2648	
-1.001132	0.136884	0.049044	7.56	43.4	2.52	0.3954	-0.0218	-0.2604	
-0.97844	0.142374	0.034648	14.49	45.01	3.15	0.3909	-0.0182	-0.2482	
-1.025044	0.1708	0.00671	11.97	43.54	4.06	0.3911	-0.0229	-0.2514	
-0.989908	0.140788	-0.024156	10.08	44.8	5.88	0.403	-0.0261	-0.2408	
-1.016504	0.142984	-0.024034	13.86	40.88	7.91	0.4088	-0.0247	-0.2362	
-1.001132	0.123464	-0.03904	8.75	39.69	10.43	0.4059	-0.0243	-0.2272	
-1.004304	0.130906	-0.0427	0.7	37.73	10.57	0.4104	-0.0274	-0.2212	
-0.993934	0.1281	-0.041236	5.81	38.57	10.99	0.4165	-0.0305	-0.2137	
-1.003572	0.133956	-0.049044	5.53	38.43	11.2	0.4193	-0.0274	-0.206	
-0.97112	0.137494	-0.068808	7.98	39.13	12.46	0.418	-0.0318	-0.2031	
-0.979172	0.14701	-0.082106	6.16	39.2	10.01	0.4165	-0.0302	-0.2031	
-0.991982	0.150548	-0.104676	0.35	39.06	8.61	0.4327	-0.0323	-0.197	
-0.993202	0.14213	-0.114558	2.52	43.26	8.68	0.43	-0.0367	-0.1972	
-1.011868	0.153476	-0.1281	3.29	44.45	7.7	0.4329	-0.0365	-0.1835	
-1.004548	0.156526	-0.119804	6.79	43.19	5.88	0.4284	-0.0346	-0.1789	
-0.999546	0.132004	-0.144448	1.19	44.1	6.51	0.4387	-0.0348	-0.1714	
-1.000278	0.135176	-0.183366	4.76	45.15	7.98	0.43	-0.036	-0.1729	
-1.01138	0.144814	-0.196542	9.03	44.45	7.49	0.4305	-0.0477	-0.1551	
-1.005036	0.152866	-0.198738	11.06	44.1	6.02	0.4334	-0.0463	-0.1566	
-1.007842	0.17263	-0.200812	13.37	41.79	6.93	0.4452	-0.048	-0.143	
-0.995398	0.155428	-0.196298	4.27	37.8	7.28	0.45	-0.0569	-0.1296	
-0.98454	0.161894	-0.222772	8.75	36.61	7.28	0.4485	-0.0553	-0.1295	
-0.967094	0.17568	-0.245464	10.85	35	7.77	0.4511	-0.0476	-0.1202	
-0.954406	0.18056	-0.264008	13.09	34.37	7.49	0.4498	-0.0517	-0.1067	
-0.974048	0.197884	-0.29707	12.39	31.64	7.07	0.4467	-0.0471	-0.1111	
-0.967826	0.189588	-0.315614	14.7	31.99	6.86	0.4605	-0.0614	-0.1115	
-0.968314	0.180926	-0.316834	14.91	32.62	6.3	0.4517	-0.0593	-0.1039	
-0.957822	0.16226	-0.311588	10.78	33.53	5.39	0.4515	-0.0546	-0.0977	
-0.950136	0.18788	-0.31842	14	33.25	4.48	0.4486	-0.0558	-0.0932	
-0.948916	0.185928	-0.345382	14.35	32.41	5.6	0.4649	-0.0595	-0.0887	
-0.954406	0.182146	-0.36966	15.12	31.36	6.37	0.4606	-0.0604	-0.0751	
-0.977464	0.183976	-0.372344	6.58	28.7	4.48	0.4563	-0.0647	-0.0738	
-0.982344	0.18422	-0.346236	6.02	31.29	6.44	0.4608	-0.065	-0.0783	
-0.948916	0.187026	-0.322934	6.02	29.75	7.49	0.4491	-0.0658	-0.0708	
-0.914634	0.177022	-0.356972	7.07	27.58	7.7	0.4598	-0.0753	-0.065	
-0.896456	0.198616	-0.413092	10.85	26.39	7.77	0.4636	-0.0633	-0.0661	
-0.896456	0.206302	-0.454816	10.64	26.95	7.77	0.4607	-0.0626	-0.0479	
-0.93025	0.20252	-0.423706	7.56	28.21	8.19	0.4582	-0.0716	-0.0452	
-0.9394	0.20008	-0.372954	6.23	27.37	6.86	0.4687	-0.078	-0.0423	
-0.9333	0.193492	-0.361364	8.26	25.55	6.37	0.46	-0.0803	-0.0303	
-0.91134	0.198372	-0.40931	8.19	21.7	5.6	0.4612	-0.0746	-0.0392	
-0.882914	0.199958	-0.467016	9.31	20.79	6.3	0.4657	-0.0761	-0.0317	
-0.865224	0.20496	-0.502274	9.17	21.07	7	0.4599	-0.0771	-0.0257	
-0.895724	0.173728	-0.489708	0.56	21.63	6.93	0.4613	-0.0741	-0.024	
-0.913536	0.202154	-0.460428	7.07	23.17	5.53	0.4613	-0.0756	-0.0226	
-0.949038	0.201178	-0.423706	-0.35	20.44	5.39	0.4613	-0.074	-0.0195	
-0.951478	0.222162	-0.410652	2.73	17.22	4.76	0.4544	-0.0843	-0.0183	
-0.909022	0.229604	-0.46482	3.78	13.86	4.76	0.4632	-0.0845	-0.0137	
-0.891698	0.213622	-0.51423	6.44	13.23	4.62	0.4662	-0.086	-0.0077	
-0.900848	0.199714	-0.512888	3.57	12.04	4.2	0.4689	-0.0802	-0.0106	
-0.91622	0.183732	-0.498248	2.52	11.69	3.15	0.4647	-0.0844	-0.0047	
-0.918172	0.188002	-0.489464	5.11	9.94	2.52	0.4619	-0.0872	-0.0017	
-0.907802	0.190686	-0.497028	8.19	7.07	3.29	0.472	-0.0832	-0.0046	
-0.878644	0.181414	-0.513132	12.04	5.39	4.13	0.4575	-0.087	-0.0032	
-0.861564	0.178608	-0.509228	11.13	5.11	5.11	0.4679	-0.092	-0.0003	
-0.904142	0.20984	-0.475312	6.37	4.34	4.48	0.4619	-0.087	0.0027	
-0.905118	0.224358	-0.460062	4.76	3.43	4.41	0.4707	-0.0874	0.0027	
-0.870714	0.219234	-0.444202	0	2.38	2.66	0.4625	-0.101	-0.0067	
-0.84241	0.212768	-0.49532	0.77	1.19	1.54	0.4621	-0.0933	-0.0019	
-0.846192	0.207888	-0.524234	1.4	0.63	1.47	0.4619	-0.0869	0.0073	
-0.86376	0.208132	-0.512034	1.89	0	1.96	0.4605	-0.0885	0.0027	
-0.873276	0.212402	-0.482632	1.19	-0.35	2.03	0.4573	-0.084	-0.0031	
-0.88267	0.225212	-0.477386	1.05	-1.26	0.84	0.4575	-0.0885	-0.0002	
-0.879132	0.233264	-0.49837	1.54	-2.73	0.42	0.4617	-0.084	0.0043	
-0.873032	0.237168	-0.507032	1.68	-4.2	0.63	0.4693	-0.0889	0.0042	
-0.87901	0.22875	-0.503128	-1.47	-4.62	0.14	0.4638	-0.0977	0.0039	
-0.888648	0.222406	-0.48983	-3.78	-5.11	-0.77	0.4692	-0.0873	0.0058	
-0.884622	0.220698	-0.49044	-3.99	-6.02	-1.68	0.4559	-0.0854	-0.0032	
-0.87047	0.2196	-0.5002	-3.99	-6.65	-2.24	0.4605	-0.0902	-0.0033	
-0.869982	0.211304	-0.505324	-4.41	-7.07	-2.52	0.4662	-0.0858	0.0013	
-0.879254	0.203862	-0.502274	-3.71	-8.05	-2.66	0.4665	-0.0919	-0.0018	
-0.89243	0.199836	-0.490318	-3.85	-9.45	-3.64	0.4721	-0.0863	-0.0092	
-0.889014	0.206912	-0.48495	-3.5	-10.57	-4.13	0.4648	-0.0873	-0.0002	
-0.878156	0.207888	-0.484462	-3.15	-12.46	-3.71	0.4708	-0.0892	-0.0048	
-0.882792	0.204106	-0.489342	-2.1	-13.37	-4.27	0.4632	-0.0845	-0.0122	
-0.895724	0.200568	-0.482022	-3.64	-13.79	-4.83	0.4588	-0.0844	-0.0168	
-0.896944	0.195688	-0.472994	-4.06	-14.56	-5.11	0.4634	-0.0893	-0.0199	
-0.892674	0.202276	-0.468358	-3.57	-15.61	-5.04	0.4677	-0.08639999	-0.0168	
-0.89121	0.211426	-0.469334	-2.8	-16.24	-5.04	0.4664	-0.091	-0.0215	
-0.90402	0.209718	-0.462014	-3.29	-16.38	-5.67	0.4613	-0.0756	-0.0211	
-0.90951	0.198494	-0.45079	-5.04	-17.01	-6.23	0.4677	-0.08679999	-0.032	
-0.90585	0.193492	-0.440298	-6.37	-18.34	-6.37	0.4587	-0.0835	-0.0364	
-0.918782	0.20435	-0.439566	-5.46	-19.88	-5.74	0.4659	-0.0792	-0.0333	
-0.923906	0.204472	-0.43676	-5.81	-21.07	-6.02	0.4616	-0.0838	-0.0425	
-0.919148	0.203008	-0.431636	-5.74	-21.98	-6.02	0.4554	-0.0743	-0.0392	
-0.915732	0.199348	-0.4209	-6.51	-22.89	-6.3	0.4555	-0.0775	-0.0438	
-0.922686	0.198494	-0.424072	-7.28	-24.85	-5.39	0.4667	-0.066	-0.0511	
-0.92842	0.19642	-0.426268	-7.84	-25.34	-5.88	0.4656	-0.0735	-0.0483	
-0.930616	0.194346	-0.413702	-8.68	-25.69	-6.16	0.4684	-0.0708	-0.0542	
-0.93696	0.182634	-0.403942	-10.78	-27.44	-5.18	0.4642	-0.0771	-0.068	
-0.940742	0.169824	-0.387228	-10.43	-28.28	-6.09	0.4507	-0.0687	-0.0633	
-0.948428	0.181536	-0.385764	-11.27	-29.96	-6.93	0.4582	-0.07229999	-0.0694	
-0.955748	0.188246	-0.371124	-10.43	-31.22	-6.79	0.4584	-0.077	-0.0741	
-0.953064	0.18849	-0.354288	-10.71	-32.69	-6.65	0.4652	-0.06659999	-0.0708	
-0.954284	0.189832	-0.341112	-11.13	-34.44	-6.3	0.4507	-0.07099999	-0.0891	
-0.963312	0.191906	-0.332572	-11.2	-35.98	-6.23	0.4551	-0.07099999	-0.083	
-0.964776	0.18727	-0.322446	-11.97	-36.68	-6.72	0.4607	-0.0655	-0.0935	
-0.965508	0.18117	-0.303048	-12.67	-37.38	-6.79	0.4518	-0.062	-0.09339999	
-0.973194	0.176534	-0.278526	-12.67	-37.87	-6.58	0.4533	-0.0624	-0.104	
-0.990274	0.170556	-0.256322	-13.51	-40.04	-6.3	0.4545	-0.0564	-0.1038	
-0.974048	0.162382	-0.24522	-13.58	-41.51	-6.51	0.4412	-0.0549	-0.125	
-0.978196	0.160186	-0.238998	-14.7	-40.67	-7	0.4484	-0.0537	-0.1265	
-0.98942	0.160308	-0.228018	-15.61	-38.36	-7.7	0.4444	-0.063	-0.1389	
-0.98149	0.165432	-0.226432	-14.7	-39.69	-7.49	0.4473	-0.0616	-0.1358	
-0.990396	0.164578	-0.185928	-12.39	-40.95	-7.56	0.4538	-0.0426	-0.1519	
-1.00223	0.159088	-0.147864	-14.77	-42.07	-6.79	0.4349	-0.0463	-0.152	
-1.014674	0.16531	-0.123098	-13.86	-43.33	-8.82	0.4391	-0.0421	-0.1595	
-0.99735	0.157624	-0.106262	-19.74	-44.8	-8.75	0.4395	-0.0514	-0.1643	
-1.007964	0.135176	-0.077104	-16.03	-46.76	-8.89	0.4301	-0.0388	-0.1639	
-0.969412	0.1403	-0.115534	-13.09	-47.67	-10.5	0.4345	-0.0397	-0.1867	
-0.975146	0.1586	-0.09089	-6.65	-47.39	-9.66	0.4244	-0.0437	-0.1853	
-0.947574	0.13786	-0.092842	-8.4	-45.29	-9.52	0.4166	-0.033	-0.1941	
-0.978684	0.142862	-0.080276	-1.54	-43.82	-8.82	0.4254	-0.0337	-0.2032	
-0.981856	0.135786	-0.044896	0	-44.59	-6.44	0.415	-0.0305	-0.2167	
-0.99247	0.141276	-0.019276	0.35	-43.89	-7.07	0.4209	-0.0321	-0.2092	
-0.988566	0.148108	-0.01098	3.29	-42.49	-7.7	0.4195	-0.0337	-0.2153	
-0.98454	0.151402	0.01281	1.96	-41.86	-6.3	0.4131	-0.0217	-0.2301	
-0.983564	0.135176	0.017934	0.07	-42.42	-4.83	0.415	-0.0309	-0.2304	
-0.994422	0.133956	0.020984	1.12	-42.7	-3.99	0.4063	-0.0335	-0.2289	
-0.997106	0.126636	0.047336	1.54	-42.49	-3.22	0.3987	-0.0289	-0.2364	
-0.99796	0.12322	0.072224	0.77	-42.84	-2.66	0.4031	-0.0292	-0.2424	
-0.994544	0.114192	0.071492	3.22	-44.45	-2.38	0.3957	-0.0275	-0.247	
-0.989054	0.124562	0.07124799	5.6	-44.52	-2.59	0.3825	-0.0276	-0.2697	
-0.996252	0.12566	0.08479	7.7	-44.94	-1.96	0.3812	-0.0322	-0.2744	
-0.99613	0.12322	0.112606	9.31	-46.41	-2.1	0.3839	-0.0262	-0.2742	
-0.998204	0.116022	0.118828	6.3	-47.67	-2.87	0.3857	-0.0356	-0.2805	
-0.991494	0.119804	0.12993	5.39	-48.09	-2.59	0.3786	-0.0398	-0.2791	
-0.992226	0.123464	0.156404	6.3	-49.21	-3.01	0.3697	-0.0383	-0.2912	
-0.973316	0.12688	0.155672	0.42	-48.86	-3.5	0.3517	-0.0297	-0.288	
-0.986004	0.118218	0.176656	3.01	-49.35	-4.48	0.359	-0.029	-0.3031	
-0.981856	0.125538	0.194834	6.58	-51.52	-3.64	0.3468	-0.0195	-0.3104	
-0.970022	0.121146	0.213988	-1.82	-53.9	-3.15	0.3506	-0.0378	-0.3064	
-0.97173	0.112118	0.216184	-2.52	-53.69	-3.01	0.3427	-0.0257	-0.3212	
-0.961238	0.117242	0.244366	-1.05	-54.53	-2.1	0.3296	-0.0284	-0.3274	
-0.951234	0.135542	0.25742	-3.71	-55.37	-1.19	0.3178	-0.0265	-0.3334	
-0.940132	0.140056	0.274622	-1.75	-55.79	-1.12	0.3208	-0.0282	-0.3365	
-0.925248	0.141276	0.309636	0.98	-57.19	-0.77	0.3206	-0.0238	-0.3409	
-0.916098	0.13908	0.325862	-0.49	-57.19	-0.63	0.3205	-0.0228	-0.3575	
-0.914146	0.127124	0.352702	1.47	-57.12	-0.21	0.3019	-0.0326	-0.3593	
-0.888526	0.105896	0.378688	1.05	-56.49	1.12	0.2974	-0.0312	-0.3714	
-0.895724	0.094916	0.391376	2.59	-57.61	2.8	0.2899	-0.0278	-0.3683	
-0.886818	0.106506	0.428952	2.03	-59.15	5.25	0.2866	-0.0196	-0.356	
-0.885842	0.106994	0.447008	-1.82	-59.71	6.65	0.2782	-0.029	-0.3759	
-0.86437	0.101748	0.456036	-0.91	-60.13	7.7	0.2694	-0.0291	-0.3941	
-0.8418	0.104676	0.477386	0.56	-59.78	7.91	0.2503	-0.0281	-0.3896	
-0.843508	0.096624	0.496418	-1.4	-61.81	8.19	0.2477	-0.0356	-0.3898	
-0.819352	0.10309	0.502884	1.33	-61.11	7.14	0.2374	-0.0358	-0.4126	
-0.808982	0.118218	0.519232	-3.57	-59.36	6.3	0.2195	-0.0303	-0.4094	
-0.795806	0.12322	0.548878	-5.88	-59.99	5.67	0.2216	-0.0444	-0.4189	
-0.80032	0.10553	0.56303	-7.84	-59.92	5.6	0.2078	-0.03	-0.4185	
-0.773724	0.097722	0.582306	-10.71	-60.06	5.6	0.1918	-0.0338	-0.4156	
-0.771284	0.09467199	0.599386	-8.26	-57.75	4.76	0.1947	-0.0343	-0.4293	
-0.752374	0.10004	0.615734	-10.29	-58.45	5.11	0.1858	-0.0325	-0.4338	
-0.741394	0.111386	0.63013	-4.9	-58.03	5.67	0.1695	-0.0273	-0.4352	
-0.7381	0.111386	0.662094	-10.99	-56.42	5.39	0.1695	-0.0275	-0.4412	
-0.729804	0.097966	0.670268	-7.91	-55.93	3.92	0.1576	-0.0253	-0.4397	
-0.71614	0.09467199	0.683932	-9.59	-56.49	3.64	0.1502	-0.0237	-0.4457	
-0.70394	0.080154	0.69906	-9.87	-55.65	3.01	0.1457	-0.0205	-0.4471	
-0.669902	0.06893	0.71248	-10.92	-54.74	2.17	0.127	-0.0287	-0.4459	
-0.644648	0.081618	0.721874	-7.21	-52.85	2.17	0.127	-0.0288	-0.4504	
-0.634034	0.071858	0.750544	-10.57	-52.01	2.24	0.1132	-0.0163	-0.4592	
-0.631838	0.063806	0.761646	-8.05	-52.5	1.26	0.1149	-0.0224	-0.4578	
-0.616466	0.058316	0.782142	-11.55	-53.76	1.19	0.0986	-0.0184	-0.4487	
-0.588772	0.085278	0.782264	-6.72	-50.05	0.14	0.0837	-0.0118	-0.4561	
-0.575474	0.08113	0.803614	-5.32	-46.34	-0.84	0.0766	-0.0193	-0.4624	
-0.564982	0.113338	0.826916	-4.83	-46.97	0.49	0.0662	-0.0142	-0.4592	
-0.540582	0.1098	0.840214	-4.9	-44.94	0.56	0.0674	-0.009699999	-0.4606	
-0.537898	0.081008	0.840458	-8.89	-43.12	0.7	0.0482	-0.0059	-0.4651	
-0.525088	0.101382	0.843996	-7.21	-42.35	1.26	0.0368	-0.0146	-0.4668	
-0.50386	0.113582	0.846436	-7.77	-38.64	-0.21	0.0455	-0.0121	-0.4743	
-0.491172	0.121756	0.866932	-8.26	-36.89	-0.14	0.032	-0.0054	-0.4726	
-0.489342	0.106506	0.860832	-7.07	-35.98	0.07	0.0305	-0.0036	-0.465	
-0.481168	0.103456	0.880596	-7.35	-32.27	-0.35	0.0219	-0.0078	-0.4682	
-0.470432	0.101992	0.886696	-6.72	-30.03	0.56	0.0189	-0.0063	-0.4727	
-0.463234	0.08235	0.887672	-6.37	-28.28	0.35	0.0158	-0.0046	-0.4711	
-0.439444	0.081008	0.886208	-8.05	-25.2	-0.56	0.0102	-0.0106	-0.4759	
-0.465674	0.073322	0.90219	-4.62	-22.68	-0.21	-0.0001	-0.0071	-0.4758	
-0.440786	0.069052	0.918294	-7.14	-21.84	0.77	-0.005	0.0039	-0.4694	
-0.445422	0.074664	0.915732	-1.26	-19.46	1.4	-0.0008	0.0099	-0.4662	
-0.434564	0.07015	0.909876	-2.17	-16.59	1.33	-0.0074	-0.0065	-0.4667	
-0.421876	0.071614	0.919392	-0.21	-13.86	1.12	-0.0093	0.0024	-0.474	
-0.425902	0.089914	0.91134	3.43	-12.32	2.66	-0.0096	0.0104	-0.4632	
-0.436638	0.075884	0.91317	3.08	-8.54	0.63	-0.0109	0.0055	-0.4739	
-0.427488	0.091134	0.914878	1.82	-9.1	2.24	-0.0193	-0.0032	-0.4757	
-0.421876	0.102114	0.92171	3.43	-5.18	1.4	-0.0094	0.0055	-0.4724	
-0.418094	0.107482	0.91622	3.01	-3.92	1.82	-0.0136	0	-0.4635	
-0.41297	0.100528	0.921344	2.03	-2.73	0.7	-0.0211	0.0046	-0.4694	
-0.419802	0.097112	0.924028	-0.42	0.98	0.28	-0.0251	-0.0058	-0.4697	
-0.42578	0.094794	0.923906	0.07	1.54	0.14	-0.0211	0.0045	-0.4725	
-0.427976	0.087474	0.924882	0	2.45	0.28	-0.015	-0.0015	-0.465	
-0.42578	0.07905599	0.928542	0.14	3.71	0.42	-0.0224	0	-0.4741	
-0.42883	0.071858	0.924638	0.63	4.76	0.84	-0.0239	0.0017	-0.4695	
-0.427488	0.07259	0.923296	-0.21	6.44	0.21	-0.0225	0.0017	-0.468	
-0.423706	0.076982	0.923296	-0.14	6.86	0.56	-0.0151	0.0017	-0.4559	
-0.424072	0.067954	0.926956	-1.54	9.03	0.35	-0.012	-0.0034	-0.4727	
-0.422608	0.077592	0.917684	-1.33	10.43	1.12	-0.0164	-0.003	-0.4651	
-0.435296	0.067466	0.925004	-2.38	13.16	0.56	-0.0044	-0.0098	-0.4713	
-0.429196	0.06954	0.92964	-2.94	17.08	0.28	-0.0081	0.0088	-0.4632	
-0.43188	0.065758	0.921222	-2.31	18.97	0.49	-0.012	-0.0017	-0.465	
-0.446154	0.05795	0.912316	-3.01	23.59	0	0.009699999	0.0014	-0.4785	
-0.458964	0.06649	0.898164	-0.21	27.58	-0.7	0.0066	0.0065	-0.4648	
-0.473238	0.06954	0.894138	-0.07	29.68	-2.45	0.0081	0.0049	-0.4648	
-0.465064	0.081984	0.886818	-1.82	32.06	-2.66	0.0213	0.0042	-0.4709	
-0.469822	0.085888	0.882182	0.07	34.65	-2.52	0.0239	0.0118	-0.4646	
-0.482022	0.082594	0.874618	-1.82	36.61	-2.45	0.0227	0.007	-0.4738	
-0.503982	0.076494	0.86132	-1.05	38.71	-2.03	0.0391	0.0003	-0.4694	
-0.513254	0.077348	0.843264	-1.89	40.81	-1.89	0.0365	-0.0069	-0.4651	
-0.524966	0.069296	0.835212	-1.12	43.75	-1.89	0.0451	-0.0025	-0.4574	
-0.52765	0.064416	0.811422	-0.35	45.15	-0.7	0.0463	0.0049	-0.4587	
-0.539118	0.063928	0.806176	-0.28	47.25	-0.14	0.0583	-0.0017	-0.4619	
-0.558882	0.0549	0.785192	0.63	48.93	0.56	0.0654	0.0039	-0.4647	
-0.57889	0.058682	0.771894	3.85	50.47	1.47	0.0738	0.0112	-0.46	
-0.596092	0.071492	0.768722	6.44	51.73	2.87	0.0831	0	-0.4633	
-0.610976	0.071126	0.757986	7.84	51.87	3.57	0.0919	0.0013	-0.4587	
-0.63013	0.069662	0.745054	8.33	52.57	3.99	0.098	-0.0047	-0.4513	
-0.65026	0.06588	0.734074	10.29	53.55	4.69	0.1201	-0.0057	-0.4513	
-0.671	0.066368	0.7198	11.27	54.04	4.62	0.1155	-0.0023	-0.4451	
-0.692838	0.089548	0.690642	12.53	55.37	4.48	0.132	-0.0105	-0.4408	
-0.709186	0.100772	0.679174	14.14	55.58	4.62	0.1379	-0.0108	-0.4408	
-0.721874	0.100162	0.656238	12.11	55.86	4.76	0.1484	-0.0141	-0.4348	
-0.72407	0.102114	0.634522	10.43	56.63	4.27	0.1614	-0.0105	-0.4468	
-0.750178	0.116754	0.619638	10.71	57.19	4.06	0.1659	-0.0133	-0.4302	
-0.760914	0.131272	0.599386	10.29	57.68	4.06	0.182	-0.0127	-0.4362	
-0.76738	0.132858	0.587674	4.9	57.33	3.92	0.1895	-0.0158	-0.4257	
-0.770918	0.119194	0.57035	5.81	58.73	2.94	0.1983	-0.0161	-0.4242	
-0.790804	0.113704	0.545584	9.24	57.96	2.45	0.2046	-0.0253	-0.4169	
-0.80703	0.128222	0.529114	7.63	57.61	2.38	0.2133	-0.0227	-0.4198	
-0.811544	0.127368	0.526796	4.9	59.36	2.45	0.2118	-0.0209	-0.4107	
-0.833626	0.112484	0.525576	3.43	58.1	1.47	0.2236	-0.0226	-0.4001	
-0.84119	0.122122	0.510814	5.39	57.82	1.26	0.2372	-0.0309	-0.4033	
-0.85583	0.121268	0.493246	5.6	56.84	1.19	0.2445	-0.0312	-0.4003	
-0.864492	0.116388	0.470676	4.27	57.54	1.19	0.2589	-0.024	-0.3925	
-0.870714	0.123342	0.45872	7.91	56.63	0.63	0.2503	-0.0282	-0.3926	
-0.873886	0.131272	0.422974	6.93	56	0.91	0.2652	-0.0349	-0.3898	
-0.868152	0.128222	0.418704	4.97	56.63	1.05	0.2708	-0.0288	-0.3805	
-0.889258	0.135176	0.39833	8.54	55.09	0.84	0.2858	-0.0356	-0.3822	
-0.902312	0.132614	0.370514	6.65	55.09	1.12	0.2874	-0.0364	-0.3565	
-0.9211	0.137006	0.35502	6.16	54.74	0.91	0.3079	-0.0359	-0.3594	
-0.923418	0.13542	0.33367	7.14	54.32	1.33	0.3094	-0.0372	-0.3473	
-0.929884	0.133956	0.330986	7.63	53.69	0.77	0.3108	-0.0355	-0.3412	
-0.932812	0.135542	0.307074	8.19	54.04	0.42	0.3198	-0.0391	-0.3459	
-0.936106	0.141398	0.290604	8.75	53.69	-0.42	0.3273	-0.0423	-0.3399	
-0.936228	0.134078	0.269986	3.85	57.33	-0.35	0.3344	-0.0379	-0.3337	
-0.9577	0.132492	0.262178	5.81	54.32	-0.49	0.3386	-0.0331	-0.3199	
-0.950258	0.129564	0.236802	-2.59	56.21	-1.61	0.3449	-0.0425	-0.3202	
-0.965508	0.134078	0.210694	0.07	56.56	-2.17	0.3448	-0.0406	-0.3065	
-0.969534	0.136762	0.177876	-2.03	57.75	-2.38	0.3522	-0.041	-0.308	
-0.976122	0.129808	0.148352	-1.54	57.05	-3.36	0.3638	-0.0382	-0.2988	
-0.981368	0.138104	0.140544	2.52	56.7	-3.71	0.361	-0.0407	-0.2853	
-0.980636	0.13786	0.127124	4.62	56.98	-2.8	0.3787	-0.0428	-0.2762	
-0.987956	0.13603	0.113216	2.45	56.7	-2.03	0.3784	-0.0352	-0.2775	
-0.990396	0.135176	0.086254	5.04	55.37	-1.4	0.3756	-0.0378	-0.2655	
-0.998692	0.14335	0.068686	6.3	54.32	-0.91	0.3858	-0.0366	-0.2624	
-1.010648	0.15921	0.054778	6.51	52.22	0.49	0.3988	-0.0308	-0.2516	
-0.986248	0.1586	0.027328	5.46	50.75	1.96	0.4021	-0.0402	-0.2564	
-0.981612	0.168482	0.015738	4.55	49.91	3.08	0.4009	-0.0441	-0.2353	
-0.973316	0.16958	-0.00427	3.78	48.44	4.06	0.4064	-0.0365	-0.2245	
-0.971852	0.183366	-0.034282	0.77	46.34	4.06	0.4126	-0.0443	-0.2232	
-0.974414	0.183122	-0.086986	-5.39	45.22	3.64	0.4258	-0.0431	-0.214	
-0.968192	0.161284	-0.089426	-5.88	46.69	4.06	0.4156	-0.0441	-0.211	
-0.95526	0.170312	-0.122732	-1.61	48.86	4.34	0.4288	-0.0426	-0.1928	
-0.944524	0.182634	-0.13847	-0.84	50.89	5.04	0.429	-0.0471	-0.1914	
-0.960628	0.19581	-0.15189	-5.18	51.1	6.02	0.429	-0.0483	-0.1793	
-0.978318	0.188978	-0.158478	-0.28	51.45	7.84	0.4352	-0.0548	-0.1825	
-0.960628	0.224236	-0.183	1.96	51.1	10.08	0.4363	-0.0469	-0.1717	
-0.99613	0.203374	-0.182512	-0.63	52.36	8.82	0.4322	-0.0528	-0.1734	
-1.008818	0.20374	-0.209108	3.22	54.39	7.77	0.4393	-0.0483	-0.1611	
-1.029314	0.198738	-0.188612	2.31	53.69	8.75	0.4458	-0.0604	-0.1494	
-1.042734	0.174338	-0.172874	0.98	48.58	9.87	0.4407	-0.0464	-0.1459	
-1.054568	0.142618	-0.1891	-0.91	42.07	8.4	0.444	-0.0537	-0.1325	
-1.041392	0.165554	-0.219234	4.06	38.36	6.79	0.4442	-0.0567	-0.1296	
-0.995032	0.16897	-0.231312	3.5	33.18	7	0.4454	-0.0506	-0.1279	
-0.995764	0.17019	-0.255834	11.55	29.68	6.16	0.4545	-0.0587	-0.1296	
-0.988322	0.18239	-0.27511	14.21	25.48	6.09	0.4498	-0.0518	-0.1097	
-0.975512	0.179096	-0.287554	19.25	25.13	5.95	0.4564	-0.0675	-0.1162	
-0.95038	0.191296	-0.289994	21.07	24.01	5.32	0.4578	-0.0657	-0.1056	
-0.937814	0.204106	-0.294264	24.71	23.1	5.32	0.4564	-0.0671	-0.1041	
-0.930982	0.216428	-0.307562	23.94	23.03	4.9	0.4619	-0.0596	-0.0993	
-0.94062	0.204594	-0.316712	18.62	24.57	4.69	0.458	-0.0702	-0.1027	
-0.957334	0.191906	-0.308782	12.95	25.97	3.78	0.4595	-0.0699	-0.08899999	
-0.947452	0.19764	-0.309636	8.4	26.74	2.87	0.4539	-0.0756	-0.0847	
-0.924516	0.217282	-0.338306	9.59	25.97	2.59	0.4523	-0.0737	-0.074	
-0.922686	0.219356	-0.37393	11.27	25.27	3.43	0.4582	-0.0738	-0.0695	
-0.942572	0.201056	-0.402234	11.9	26.25	4.76	0.464	-0.0726	-0.0725	
-0.96502	0.200568	-0.370514	11.62	27.86	5.32	0.4554	-0.0764	-0.0605	
-0.969534	0.205814	-0.311222	7.28	27.65	4.62	0.457	-0.0796	-0.0606	
-0.956724	0.205326	-0.306342	9.45	25.97	3.78	0.4582	-0.07319999	-0.0498	
-0.931714	0.197396	-0.35258	13.58	22.26	4.06	0.4568	-0.0731	-0.0483	
-0.904996	0.165188	-0.413702	15.12	18.76	4.97	0.4611	-0.0718	-0.0482	
-0.920734	0.191662	-0.421876	19.04	18.83	4.41	0.4538	-0.0728	-0.0407	
-0.906094	0.213866	-0.410164	16.52	18.41	3.22	0.4717	-0.0783	-0.0484	
-0.902678	0.213988	-0.423584	14.56	17.5	1.68	0.4643	-0.0778	-0.0408	
-0.9211	0.199714	-0.418582	13.37	16.52	0.49	0.4573	-0.0849	-0.0365	
-0.924028	0.187026	-0.429074	4.55	15.12	0.14	0.466	-0.0825	-0.0425	
-0.898774	0.197518	-0.4453	3.78	15.54	0.84	0.4613	-0.076	-0.0362	
-0.890112	0.206546	-0.460306	3.78	14.49	1.75	0.4612	-0.07449999	-0.0362	
-0.905484	0.188368	-0.468358	0.77	13.93	1.05	0.4707	-0.0901	-0.0366	
-0.914268	0.192516	-0.460428	1.05	15.19	0.77	0.4615	-0.0788	-0.0287	
-0.912682	0.205082	-0.446764	0.7	16.87	0.35	0.46	-0.0804	-0.0318	
-0.90097	0.222894	-0.446154	2.24	15.96	1.05	0.4628	-0.0757	-0.0241	
-0.882548	0.220942	-0.463112	3.85	13.58	2.03	0.4614	-0.0771	-0.0226	
-0.882792	0.213134	-0.473238	3.22	12.81	2.24	0.4585	-0.0783	-0.0166	
-0.89792	0.203252	-0.463478	0.49	12.53	1.75	0.4648	-0.0878	-0.0169	
-0.884622	0.209474	-0.459574	1.4	12.04	1.19	0.4645	-0.0815	-0.0106	
-0.880474	0.208254	-0.466528	1.54	10.43	1.33	0.4659	-0.0786	-0.0151	
-0.878888	0.198006	-0.484584	0.77	8.82	0.91	0.4616	-0.0813	-0.0106	
-0.87108	0.197884	-0.496296	2.45	9.45	0.98	0.4656	-0.0724	-0.0104	
-0.875106	0.191174	-0.48251	-0.35	10.08	1.05	0.4585	-0.0781	-0.0075	
-0.898042	0.188734	-0.470066	-3.57	10.57	0.49	0.4689	-0.0815	-0.003	
-0.881084	0.191418	-0.469334	-1.89	9.66	1.12	0.4615	-0.0795	0	
-0.877912	0.199592	-0.470554	-0.77	9.03	1.4	0.4633	-0.0858	-0.0032	
-0.902922	0.19886	-0.482022	-1.05	8.89	0.07	0.463	-0.0796	0	
-0.915	0.193248	-0.486414	1.12	9.38	-1.19	0.4559	-0.0852	0.0043	
-0.894138	0.178974	-0.501908	2.24	7.84	-0.07	0.4616	-0.081	0.0014	
-0.85705	0.197518	-0.510326	5.95	6.86	0.14	0.4646	-0.0826	0.0044	
-0.866688	0.198006	-0.51789	5.81	6.02	0.77	0.4662	-0.08549999	0.0088	
-0.885232	0.205448	-0.496296	4.27	5.6	0	0.4661	-0.084	0.0089	
-0.871202	0.193492	-0.490806	1.82	4.62	-0.7	0.463	-0.0792	0.0136	
-0.857172	0.17568	-0.506788	0.98	2.03	-0.35	0.4676	-0.084	0.0134	
-0.866078	0.179218	-0.5246	2.38	0.7	0.49	0.4688	-0.0763	0.0167	
-0.872788	0.182146	-0.524966	1.05	1.05	0.84	0.4613	-0.0748	0.0046	
-0.858758	0.181414	-0.5246	0.35	0.7	0.98	0.4628	-0.0749	0.0046	
-0.853878	0.176778	-0.530212	-1.19	0	0.98	0.4588	-0.0839	0.0028	
-0.86437	0.17995	-0.524234	0.84	-0.91	0.35	0.4719	-0.0812	0.0105	
-0.862296	0.183	-0.51118	0.84	-0.98	1.4	0.4619	-0.0869	0.0088	
-0.885232	0.199714	-0.496906	0.7	-1.12	0.42	0.4591	-0.0898	0.0087	
-0.887916	0.205326	-0.50691	2.38	-3.36	0.28	0.4643	-0.0762	0.0121	
-0.867176	0.207766	-0.505934	1.96	-4.41	0.56	0.4695	-0.0937	-0.0034	
-0.8662	0.201666	-0.514352	1.33	-5.53	-0.42	0.4645	-0.0796	0.003	
-0.881206	0.203374	-0.506178	0.21	-6.09	-1.33	0.4589	-0.0866	0.0118	
-0.87352	0.208986	-0.494222	0	-6.79	-1.54	0.4614	-0.0765	-0.0014	
-0.887184	0.206668	-0.487634	-1.26	-7.35	-0.63	0.4617	-0.0839	0.0059	
-0.880962	0.195566	-0.501054	-1.26	-8.26	-0.91	0.4616	-0.08109999	-0.003	
-0.87047	0.205204	-0.50447	-0.56	-9.03	-0.63	0.4675	-0.0815	-0.0061	
-0.86803	0.209474	-0.49898	-1.68	-9.17	-0.63	0.4629	-0.0766	-0.0029	
-0.883768	0.202764	-0.497516	-3.01	-9.8	-1.12	0.4615	-0.0797	-0.006	
-0.884744	0.194224	-0.493368	-3.92	-10.36	-1.54	0.4675	-0.0831	-0.0092	
-0.879254	0.196298	-0.48312	-4.2	-11.13	-1.54	0.4585	-0.0764	-0.0029	
-0.882548	0.197396	-0.488366	-4.13	-11.76	-1.47	0.4615	-0.0799	-0.0121	
-0.881206	0.198372	-0.488732	-3.99	-11.9	-1.68	0.4704	-0.0799	0	
-0.896212	0.200568	-0.474214	-5.11	-12.32	-2.17	0.4699	-0.0697	-0.0148	
-0.895114	0.197518	-0.474336	-5.74	-13.3	-2.45	0.4692	-0.0879	-0.0153	
-0.898652	0.209596	-0.469334	-4.2	-14.21	-3.01	0.4764	-0.0853	-0.0183	
-0.903166	0.188612	-0.475312	-6.65	-16.31	-3.5	0.4732	-0.0791	-0.0181	
-0.913658	0.182512	-0.475312	-6.02	-17.01	-3.92	0.4645	-0.08199999	-0.0288	
-0.90707	0.189222	-0.454816	-6.02	-17.15	-3.78	0.4613	-0.0742	-0.0256	
-0.909876	0.202276	-0.43493	-7.28	-18.06	-3.92	0.4658	-0.0772	-0.0196	
-0.907924	0.198616	-0.447252	-6.37	-19.88	-3.71	0.479	-0.0779	-0.0226	
-0.908046	0.189222	-0.453596	-6.09	-20.86	-3.08	0.4655	-0.07	-0.033	
-0.910364	0.19154	-0.438346	-6.09	-21.14	-3.36	0.4702	-0.0778	-0.0317	
-0.922564	0.190442	-0.42273	-6.79	-21.42	-3.78	0.4557	-0.0816	-0.0288	
-0.914878	0.191174	-0.41236	-5.6	-22.61	-4.06	0.4552	-0.0698	-0.0406	
-0.929274	0.1952	-0.406504	-10.57	-25.13	-3.85	0.4614	-0.07759999	-0.0393	
-0.928176	0.194468	-0.405894	-5.67	-24.99	-4.62	0.461	-0.0705	-0.0557	
-0.935862	0.181902	-0.403332	-8.33	-25.48	-4.48	0.4627	-0.0753	-0.0604	
-0.94184	0.19032	-0.382592	-5.32	-27.44	-4.34	0.4613	-0.0768	-0.0635	
-0.938424	0.196786	-0.380396	-9.03	-27.23	-5.53	0.4638	-0.0679	-0.0678	
-0.948916	0.198982	-0.374906	-11.2	-27.37	-6.02	0.4578	-0.06439999	-0.0616	
-0.956358	0.195322	-0.348798	-10.43	-27.79	-6.3	0.464	-0.0726	-0.0709	
-0.959286	0.183854	-0.328912	-10.01	-29.26	-6.72	0.4594	-0.0662	-0.0693	
-0.959896	0.181536	-0.335378	-9.87	-32.06	-7.07	0.4637	-0.0655	-0.0889	
-0.973316	0.184098	-0.35014	-10.15	-34.3	-6.51	0.4624	-0.0686	-0.092	
-0.95221	0.191906	-0.337696	-8.47	-35.35	-6.3	0.4587	-0.0535	-0.1037	
-0.97234	0.181048	-0.315248	-11.13	-36.47	-5.53	0.4529	-0.0549	-0.1083	
-0.977098	0.185562	-0.278648	-9.87	-36.54	-6.65	0.4561	-0.061	-0.1039	
-0.961238	0.195932	-0.256932	-13.51	-39.55	-8.26	0.4546	-0.0598	-0.1175	
-0.973316	0.191784	-0.247416	-16.8	-40.53	-9.59	0.4559	-0.0553	-0.1159	
-0.98027	0.177632	-0.244488	-17.99	-39.97	-9.66	0.4544	-0.0571	-0.1265	
-0.98881	0.17568	-0.226432	-17.57	-39.83	-8.82	0.4466	-0.0463	-0.1338	
-0.994056	0.168238	-0.205692	-20.37	-37.73	-8.96	0.4452	-0.048	-0.143	
-0.98881	0.15982	-0.202764	-19.04	-40.46	-9.1	0.4433	-0.0371	-0.1381	
-0.995154	0.170922	-0.18422	-16.73	-41.86	-8.12	0.4513	-0.0533	-0.1582	
-1.006988	0.153476	-0.151158	-16.59	-42.28	-7.63	0.4411	-0.0544	-0.1613	
-0.969046	0.149694	-0.140178	-9.38	-44.1	-7	0.4479	-0.0442	-0.1656	
-0.983076	0.155794	-0.14823	-9.73	-44.45	-7.42	0.4379	-0.0484	-0.1687	
-1.00833	0.1586	-0.140422	-10.01	-45.85	-8.68	0.4379	-0.0486	-0.1763	
-0.982466	0.135054	-0.124806	-8.05	-46.97	-7.84	0.4315	-0.0378	-0.179	
-0.97112	0.145302	-0.077958	-5.81	-42.28	-10.29	0.436	-0.0415	-0.1943	
-0.9638	0.15799	-0.05856	-0.84	-42.77	-9.52	0.4223	-0.0286	-0.1924	
-0.989908	0.136762	-0.081862	-2.94	-45.85	-7.77	0.4151	-0.0333	-0.2062	
-0.990762	0.130296	-0.060756	-0.63	-44.31	-6.93	0.4199	-0.0427	-0.208	
-1.00772	0.13237	-0.018178	-2.87	-42.7	-7	0.415	-0.0322	-0.2213	
-1.009428	0.124928	0.004636	-0.63	-42.91	-7.56	0.4091	-0.0304	-0.2228	
-1.012966	0.13359	0.03172	1.4	-43.68	-7.98	0.4064	-0.0352	-0.235	
-1.009062	0.13359	0.0488	5.88	-45.22	-7.28	0.3989	-0.0334	-0.2365	
-0.99735	0.13298	0.042944	6.93	-48.23	-6.16	0.4027	-0.0185	-0.2391	
-1.000156	0.120414	0.04026	6.86	-50.33	-5.6	0.4031	-0.0278	-0.2454	
-1.001132	0.106506	0.07076	9.8	-51.87	-5.74	0.3929	-0.0306	-0.2531	
-1.000766	0.104432	0.098454	13.79	-52.85	-5.95	0.3785	-0.0362	-0.2578	
-0.998204	0.11712	0.082716	14.77	-55.86	-5.18	0.3896	-0.0216	-0.2619	
-0.993324	0.128588	0.126636	15.47	-55.3	-5.04	0.3806	-0.0184	-0.2709	
-0.998326	0.140056	0.120048	6.23	-56.21	-4.48	0.3752	-0.029	-0.2788	
-0.995276	0.121268	0.136152	4.34	-54.95	-3.64	0.3709	-0.0322	-0.2911	
-0.991616	0.121756	0.172386	9.38	-55.23	-3.78	0.368	-0.0337	-0.2926	
-0.959408	0.12017	0.170068	6.37	-59.92	-1.82	0.3579	-0.0366	-0.3048	
-0.959652	0.110288	0.192516	3.64	-60.9	-0.21	0.3515	-0.0256	-0.303	
-0.948184	0.121268	0.208254	1.82	-60.27	0.21	0.3483	-0.02	-0.3225	
-0.969168	0.150548	0.252662	3.08	-61.95	0.42	0.3325	-0.0285	-0.3274	
-0.947452	0.149938	0.271328	0.28	-62.44	1.47	0.3297	-0.0316	-0.335	
-0.913536	0.132492	0.296826	-0.21	-61.32	3.57	0.3206	-0.0234	-0.3288	
-0.920124	0.123342	0.329034	1.05	-60.06	3.78	0.3047	-0.0294	-0.3486	
-0.92537	0.11834	0.320128	-0.63	-61.32	3.78	0.3134	-0.0268	-0.3516	
-0.912072	0.114924	0.354288	-0.63	-62.23	3.5	0.2901	-0.0322	-0.3624	
-0.895114	0.103578	0.381982	-0.49	-60.97	3.36	0.2844	-0.0367	-0.3716	
-0.884622	0.107848	0.391742	0.42	-60.27	4.2	0.2771	-0.0365	-0.3762	
-0.869616	0.093086	0.411262	-3.43	-61.67	4.34	0.2737	-0.0259	-0.3819	
-0.85827	0.108092	0.444934	-2.45	-62.37	5.11	0.2711	-0.0347	-0.3761	
-0.853756	0.109556	0.454084	-6.51	-61.11	4.83	0.2592	-0.0298	-0.3821	
-0.833748	0.103822	0.476166	-7	-60.76	4.55	0.2447	-0.0339	-0.3883	
-0.8357	0.07869	0.507764	-10.08	-59.57	2.94	0.2369	-0.0245	-0.3925	
-0.831064	0.06649	0.517524	-10.99	-61.04	2.03	0.2313	-0.0308	-0.4064	
-0.817644	0.087108	0.53253	-6.51	-61.53	0.98	0.2209	-0.0286	-0.4003	
-0.807518	0.100284	0.57889	-9.45	-60.48	0.35	0.2119	-0.0242	-0.4214	
-0.79605	0.100894	0.581818	-8.05	-60.76	-0.07	0.209	-0.0255	-0.4184	
-0.775188	0.088694	0.575474	-12.88	-61.11	0.49	0.1852	-0.0183	-0.4167	
-0.764696	0.069296	0.599264	-10.92	-59.78	-0.28	0.1928	-0.0239	-0.438	
-0.762378	0.076982	0.615978	-5.04	-59.43	-0.14	0.1782	-0.0262	-0.4366	
-0.72346	0.075518	0.640866	-6.93	-60.34	-0.7	0.1663	-0.0228	-0.4441	
-0.717604	0.09638	0.655262	-6.09	-58.73	-0.77	0.1498	-0.0128	-0.4378	
-0.70333	0.102114	0.667096	-6.65	-58.03	-0.77	0.1459	-0.0249	-0.4442	
-0.701622	0.096136	0.695278	-7.14	-56.77	-1.05	0.1338	-0.0171	-0.4546	
-0.684786	0.094916	0.708698	-7.56	-58.17	-0.56	0.1218	-0.0119	-0.4515	
-0.669658	0.08479	0.718702	-11.27	-57.05	-1.19	0.1203	-0.0121	-0.4606	
-0.648674	0.089548	0.729682	-11.97	-54.88	-2.31	0.1204	-0.0135	-0.4545	
-0.630984	0.104676	0.741272	-10.43	-53.83	-1.47	0.1028	-0.0141	-0.4531	
-0.626836	0.08784	0.749446	-10.99	-53.27	-0.98	0.0954	-0.011	-0.4606	
-0.616344	0.084668	0.773846	-14.63	-51.94	0.07	0.0819	-0.0044	-0.4634	
-0.603534	0.07869	0.790804	-10.64	-51.31	1.54	0.0772	0.0002	-0.4663	
-0.574376	0.07381	0.789462	-12.46	-50.4	1.82	0.0672	-0.0052	-0.462	
-0.550708	0.055144	0.81008	-10.78	-47.53	1.47	0.0668	0.0052	-0.4677	
-0.530334	0.04514	0.817278	-12.88	-46.27	0.63	0.0554	-0.0032	-0.4634	
-0.509594	0.049776	0.823378	-5.25	-45.15	0.91	0.0477	0.0046	-0.4663	
-0.515328	0.04392	0.845216	-9.1	-44.1	0.56	0.0345	0.005	-0.4723	
-0.507032	0.040992	0.854244	-7.49	-40.81	0.91	0.0319	-0.0037	-0.465	
-0.484096	0.03294	0.878034	-4.97	-39.62	1.47	0.0346	0.0036	-0.4693	
-0.47519	0.055754	0.870104	0.84	-37.94	1.89	0.0286	0.0053	-0.4723	
-0.463722	0.04331	0.898042	-1.26	-33.88	0.84	0.0124	0.0059	-0.4784	
-0.471774	0.041114	0.884622	-2.45	-31.64	0.35	0.0197	0.0075	-0.4632	
-0.441152	0.055144	0.89548	-1.68	-28.07	0.56	-0.0006	0.0053	-0.4648	
-0.44591	0.063318	0.899506	2.66	-23.24	-0.21	-0.0045	-0.0066	-0.4652	
-0.44225	0.050874	0.912438	0.49	-23.31	1.12	0.0011	-0.0023	-0.465	
-0.432124	0.056974	0.913292	1.26	-22.33	1.75	-0.0157	0.0136	-0.4646	
-0.435174	0.05734	0.917562	1.26	-21	1.61	-0.0124	0.0058	-0.4663	
-0.41297	0.058804	0.91805	-0.63	-19.81	1.96	-0.0209	-0.0009999999	-0.4575	
-0.416996	0.064294	0.929884	2.52	-14.77	0.77	-0.0183	0.0074	-0.4739	
-0.402234	0.073932	0.932812	2.52	-15.33	1.47	-0.0156	0.0119	-0.4722	
-0.392718	0.065514	0.939766	-0.14	-11.06	0.56	-0.0329	0.0052	-0.4679	
-0.401014	0.070028	0.941108	2.66	-9.59	0.91	-0.0256	0.0064	-0.4679	
-0.391132	0.070028	0.947086	0.07	-6.65	0.28	-0.0207	-0.0043	-0.4667	
-0.386862	0.07442	0.948306	-0.21	-4.27	0.28	-0.0298	0.0004	-0.4726	
-0.38491	0.075884	0.951356	-0.56	-1.82	-0.07	-0.0272	0.0095	-0.4678	
-0.376614	0.069418	0.948916	-2.59	0.35	0.84	-0.0314	0.005	-0.4725	
-0.37881	0.056608	0.950136	-2.52	2.1	1.68	-0.0389	0.008599999	-0.4633	
-0.384788	0.043676	0.957456	-2.94	2.94	2.52	-0.0298	0.0005	-0.4665	
-0.38979	0.045994	0.949282	-1.82	5.6	2.17	-0.0314	0.0051	-0.4694	
-0.38979	0.050264	0.947452	-0.42	7.42	2.38	-0.033	0.0064	-0.4785	
-0.390156	0.05734	0.945866	0.07	9.38	1.4	-0.0169	0.0076	-0.4648	
-0.397354	0.060146	0.940132	0.21	11.55	1.47	-0.0261	0.017	-0.4691	
-0.398452	0.056974	0.944402	0.91	14.28	0.98	-0.0284	0.0018	-0.4741	
-0.413092	0.056608	0.928908	4.34	17.08	1.33	-0.0167	0.0027	-0.477	
-0.42029	0.037576	0.92293	0.84	17.01	0.21	-0.0212	0.0061	-0.4709	
-0.4026	0.059658	0.918416	3.92	21.98	-0.42	-0.0137	0.0026	-0.4755	
-0.40077	0.053192	0.909754	3.01	25.34	-1.12	-0.009699999	0.0118	-0.4662	
-0.435174	0.070028	0.900116	2.87	28.77	-0.28	0.0006	0.0081	-0.4708	
-0.456646	0.048434	0.8967	0.56	28.21	-1.4	-0.0079	0.004	-0.4709	
-0.465064	0.05246	0.894504	4.27	30.31	-1.89	-0.0077	-0.0005	-0.4726	
-0.468846	0.068686	0.884134	2.8	31.85	-2.17	0.0152	0.009	-0.4692	
-0.479826	0.061366	0.881206	0.7	36.4	-2.73	0.0168	0.0075	-0.4662	
-0.486536	0.05673	0.869616	1.33	37.31	-2.59	0.0226	0.0089	-0.4616	
-0.50691	0.059292	0.860588	3.92	38.99	-3.15	0.0348	-0.0024	-0.468	
-0.509594	0.061732	0.850218	2.31	41.51	-3.15	0.0275	-0.002	-0.4665	
-0.524966	0.061854	0.832894	2.24	43.33	-3.5	0.0495	-0.0012	-0.4589	
-0.537898	0.06466	0.819718	3.01	45.15	-3.43	0.0493	0.0017	-0.4603	
-0.554368	0.05856	0.817278	1.75	47.04	-3.71	0.0595	0.0025	-0.4678	
-0.564006	0.05734	0.808006	2.38	48.23	-3.29	0.064	0.0026	-0.4572	
-0.580598	0.05917	0.791292	2.8	49.49	-3.01	0.07539999	0.0096	-0.46	
-0.594994	0.056242	0.77653	3.01	51.87	-2.73	0.0744	-0.0009	-0.4618	
-0.589626	0.05551	0.763598	3.5	53.48	-2.31	0.086	0.0015	-0.4602	
-0.629398	0.054412	0.746884	4.83	54.18	-2.31	0.0891	-0.0032	-0.4649	
-0.63623	0.056242	0.73261	4.76	54.6	-1.75	0.1079	0.0039	-0.448	
-0.650992	0.059414	0.721508	5.11	55.79	-1.54	0.1068	-0.0036	-0.4512	
-0.662948	0.063318	0.703086	6.51	56.14	-0.7	0.1174	-0.0117	-0.4515	
-0.684054	0.066368	0.684054	7.56	56.63	-0.35	0.142	-0.0035	-0.4451	
-0.698572	0.067954	0.666852	7.84	57.26	-0.14	0.1483	-0.0128	-0.4424	
-0.719312	0.074054	0.653798	8.19	57.47	-0.07	0.1507	-0.0007	-0.4405	
-0.731878	0.08845	0.633668	8.61	57.82	-0.07	0.1689	-0.0136	-0.4378	
-0.745786	0.087474	0.618296	8.54	58.03	-0.07	0.1805	-0.011	-0.4347	
-0.754448	0.083204	0.596092	7.21	58.38	0.21	0.185	-0.0127	-0.4332	
-0.786168	0.087474	0.573278	6.09	59.64	0.56	0.1852	-0.017	-0.4227	
-0.790682	0.079788	0.559004	5.67	59.64	0.98	0.1953	-0.0142	-0.415	
-0.811056	0.083936	0.538264	5.95	59.22	0.49	0.2043	-0.0177	-0.4166	
-0.81923	0.07991	0.521306	5.88	59.29	1.26	0.2188	-0.0137	-0.4135	
-0.82838	0.075884	0.50142	5.88	58.8	1.33	0.2293	-0.0184	-0.4015	
-0.850096	0.083326	0.496418	4.2	58.52	1.12	0.2292	-0.015	-0.3893	
-0.85278	0.092476	0.467992	7.63	57.96	1.12	0.2412	-0.0235	-0.4031	
-0.86681	0.09272	0.449082	6.3	57.4	1.33	0.2483	-0.0176	-0.3984	
-0.871812	0.093208	0.447252	5.6	57.75	1.05	0.2531	-0.0252	-0.391	
-0.88877	0.09942999	0.41907	5.46	56.49	1.19	0.2661	-0.021	-0.3818	
-0.898286	0.095404	0.401014	4.83	56.42	1.4	0.2619	-0.0253	-0.3804	
-0.910242	0.094062	0.388204	5.32	55.3	1.47	0.2807	-0.0198	-0.3696	
-0.917806	0.086986	0.363316	4.27	55.58	1.89	0.2907	-0.0125	-0.3633	
-0.916586	0.091378	0.348432	4.06	55.23	2.17	0.2862	-0.0104	-0.3527	
-0.937448	0.106994	0.33001	6.65	54.88	2.03	0.3028	-0.02	-0.3423	
-0.931836	0.10126	0.302316	4.97	54.25	2.24	0.3013	-0.0184	-0.3423	
-0.94672	0.101016	0.28975	2.87	54.25	1.68	0.325	-0.0241	-0.3454	
-0.949526	0.10126	0.27572	3.5	53.48	2.24	0.3158	-0.0144	-0.3391	
-0.960506	0.107726	0.249002	2.17	51.73	2.87	0.3221	-0.0251	-0.3303	
-0.971608	0.112972	0.236802	1.61	52.36	2.73	0.3368	-0.024	-0.3242	
-0.976976	0.110288	0.221796	1.47	51.24	3.08	0.3398	-0.027	-0.3152	
-1.001376	0.113704	0.20252	0.7	50.33	3.08	0.3496	-0.0152	-0.3133	
-1.002718	0.113582	0.183244	3.71	50.12	3.5	0.3545	-0.0274	-0.3091	
-0.99064	0.11712	0.16226	2.73	49.42	2.03	0.3512	-0.0179	-0.2998	
-0.978074	0.11834	0.153598	4.55	49.63	1.96	0.362	-0.0303	-0.2895	
-0.991616	0.122244	0.136518	2.1	48.44	2.03	0.3654	-0.0397	-0.2958	
-0.973804	0.117242	0.115534	1.61	48.09	2.73	0.3668	-0.0379	-0.2837	
-0.99186	0.126514	0.106018	4.83	47.53	1.61	0.3696	-0.0363	-0.2775	
-0.994178	0.127856	0.087352	0	45.5	2.1	0.3765	-0.0243	-0.2726	
-0.99491	0.12932	0.084546	2.87	44.38	2.03	0.3811	-0.0292	-0.2773	
-0.99796	0.134566	0.060146	4.13	44.1	2.52	0.3858	-0.0366	-0.2624	
-0.98881	0.142984	0.038796	5.95	43.89	3.71	0.3945	-0.0338	-0.2562	
-0.989908	0.148962	0.008417999	6.86	43.82	4.69	0.3975	-0.0352	-0.2487	
-0.988322	0.152378	0.003782	10.22	43.61	5.53	0.3961	-0.0366	-0.2442	
-0.985882	0.162138	-0.013298	8.61	43.26	7.07	0.4075	-0.0295	-0.244	
-0.988322	0.152988	-0.031232	3.15	41.51	7.98	0.4096	-0.0428	-0.2277	
-0.998814	0.144692	-0.058682	-1.75	41.86	7.77	0.4111	-0.0426	-0.2201	
-0.996374	0.148962	-0.074908	0.07	41.58	7.28	0.407	-0.0483	-0.2127	
-0.984052	0.163236	-0.073688	4.34	43.26	6.44	0.4229	-0.0428	-0.2095	
-0.981368	0.169214	-0.084668	3.15	44.1	5.74	0.4185	-0.0441	-0.2065	
-0.974048	0.168482	-0.104432	0.42	44.45	6.51	0.4319	-0.0477	-0.2051	
-0.979782	0.162016	-0.114314	0.28	45.36	6.86	0.4336	-0.0533	-0.1871	
-0.981734	0.153232	-0.11651	-1.4	45.01	7.21	0.432	-0.0502	-0.187	
-0.97783	0.157624	-0.128588	-1.12	44.8	6.93	0.4307	-0.0528	-0.1749	
-0.995154	0.161284	-0.132492	2.94	45.08	5.95	0.4289	-0.0449	-0.1671	
-0.998326	0.159332	-0.13664	2.59	46.34	5.25	0.4364	-0.0483	-0.1672	
-0.999424	0.161528	-0.16592	-1.12	45.22	6.23	0.4338	-0.0554	-0.1553	
-0.981612	0.177266	-0.177266	-0.84	44.17	7.14	0.4354	-0.0581	-0.1418	
-0.978318	0.166652	-0.219478	1.82	43.19	6.37	0.4369	-0.0597	-0.1418	
-0.988444	0.179706	-0.26047	7.98	42.42	5.46	0.453	-0.0573	-0.1387	
-0.990518	0.19642	-0.280356	11.69	42.56	4.83	0.4548	-0.0664	-0.1344	
-0.989298	0.196908	-0.2684	12.04	43.4	5.04	0.4489	-0.0645	-0.1313	
-0.995398	0.181536	-0.255712	9.73	41.44	6.16	0.4456	-0.0564	-0.1175	
-0.96319	0.16714	-0.283772	14.98	37.59	6.02	0.4514	-0.0534	-0.1113	
-0.973804	0.18056	-0.319884	16.87	33.74	5.81	0.4589	-0.0576	-0.0872	
-0.992836	0.201178	-0.33733	14.14	32.06	4.83	0.4562	-0.0623	-0.0964	
-1.00101	0.19581	-0.326838	9.38	31.64	4.83	0.461	-0.0698	-0.086	
-0.98454	0.181048	-0.301584	7.42	30.87	4.69	0.4607	-0.0655	-0.0935	
-0.959042	0.191052	-0.294752	5.25	27.44	4.27	0.4551	-0.0694	-0.0815	
-0.951112	0.194468	-0.328424	4.97	23.66	3.36	0.4591	-0.0621	-0.0828	
-0.949404	0.187758	-0.375638	6.65	20.72	2.87	0.4642	-0.0772	-0.0726	
-0.94855	0.196542	-0.39528	8.4	20.72	3.08	0.4727	-0.0685	-0.07229999	
-0.938424	0.185196	-0.388204	9.24	21.07	4.2	0.4639	-0.0696	-0.0724	
-0.938546	0.19154	-0.377468	11.27	21.07	3.92	0.455	-0.0675	-0.0663	
-0.926224	0.196054	-0.372222	10.22	20.72	4.55	0.4642	-0.07539999	-0.0635	
-0.929396	0.19276	-0.375394	12.74	20.58	3.99	0.4647	-0.0876	-0.0653	
-0.924394	0.185196	-0.385886	11.69	20.16	4.13	0.4668	-0.0679	-0.0617	
-0.945012	0.21228	-0.397232	17.78	21.21	5.18	0.4586	-0.0808	-0.05	
-0.930494	0.202398	-0.360388	2.38	22.05	4.55	0.4612	-0.0734	-0.0513	
-0.928542	0.198128	-0.362218	0.14	21	3.85	0.464	-0.0703	-0.0451	
-0.913902	0.177266	-0.39162	0.98	18.97	3.99	0.4668	-0.0674	-0.045	
-0.909876	0.17873	-0.423706	3.15	18.2	3.71	0.4673	-0.0778	-0.0378	
-0.909998	0.18605	-0.427366	5.04	19.46	3.71	0.4571	-0.08	-0.0227	
-0.904508	0.184952	-0.427488	5.95	19.81	3.92	0.4729	-0.0734	-0.0346	
-0.901946	0.185318	-0.421876	7.84	18.9	3.22	0.4646	-0.08329999	-0.0198	
-0.900726	0.194224	-0.422486	7.21	18.13	2.45	0.4673	-0.07889999	-0.0227	
-0.888892	0.18727	-0.435296	7.21	17.29	1.89	0.4657	-0.0744	-0.0256	
-0.891942	0.180926	-0.446276	8.12	16.66	1.89	0.4628	-0.07539999	-0.0135	
-0.89304	0.18788	-0.457744	8.33	15.82	1.82	0.4615	-0.0786	-0.0196	
-0.892064	0.209962	-0.47397	8.82	15.19	1.89	0.4643	-0.077	-0.0135	
-0.881084	0.213988	-0.493124	9.73	14.07	1.75	0.4689	-0.0801	-0.009099999	
-0.9089	0.202032	-0.493368	7.7	14	1.19	0.4674	-0.0802	-0.0151	
-0.93269	0.205692	-0.474702	4.76	13.65	-0.07	0.4676	-0.0843	0.0028	
-0.927444	0.216794	-0.454694	2.17	12.39	0	0.4601	-0.08109999	-0.0061	
-0.898774	0.223626	-0.465064	0.7	9.73	0.49	0.4657	-0.0735	0.0031	
-0.88023	0.212158	-0.49471	2.45	6.44	0.21	0.4629	-0.0765	0.0015	
-0.875594	0.18727	-0.529968	3.85	5.67	-0.28	0.4659	-0.0797	0.0014	
-0.881206	0.17934	-0.527894	2.94	6.93	-0.49	0.4541	-0.0777	0	
-0.874496	0.188856	-0.495442	2.94	7.63	0.28	0.4673	-0.0768	-0.0029	
-0.851804	0.183854	-0.497516	3.92	6.3	-0.14	0.4691	-0.0844	0.0013	
-0.8662	0.176534	-0.507764	4.55	4.83	-0.7	0.4583	-0.0733	-0.0013	
-0.883768	0.195688	-0.502396	2.38	5.18	-1.12	0.4645	-0.0796	0	
-0.868518	0.198982	-0.495076	0.56	5.46	-0.21	0.4674	-0.0779	0.0136	
-0.860954	0.190442	-0.502884	0.91	4.27	0.07	0.4687	-0.075	0.0092	
-0.873032	0.185684	-0.518622	0.14	3.01	-0.21	0.4702	-0.0753	0.0031	
-0.883036	0.19215	-0.523746	0.21	2.59	-0.49	0.4599	-0.0748	0.0031	
-0.897188	0.187514	-0.509228	-0.91	2.45	-0.84	0.4734	-0.0813	0.009	
-0.893528	0.17629	-0.49105	-1.75	1.4	-0.91	0.4611	-0.0687	0.0048	
-0.87718	0.178364	-0.48861	-1.96	-0.21	-1.19	0.4627	-0.0733	0.0062	
-0.874252	0.184952	-0.509716	-0.77	-2.03	-1.47	0.4613	-0.0749	0.0001	
-0.874252	0.188612	-0.522648	0.63	-2.87	-1.54	0.4599	-0.0761	0.009099999	
-0.871446	0.181536	-0.513498	0.77	-3.43	-1.33	0.4584	-0.0746	0.0061	
-0.867664	0.178242	-0.505202	1.05	-3.78	-1.12	0.4706	-0.0858	0.0073	
-0.86742	0.184342	-0.5063	2.03	-4.62	-0.91	0.4689	-0.0795	0.0105	
-0.869616	0.182634	-0.508984	1.68	-5.25	-0.63	0.4599	-0.0761	0.0106	
-0.873642	0.17568	-0.508008	0.77	-5.39	-0.7	0.4659	-0.078	0.0076	
-0.86986	0.186294	-0.501908	-0.14	-5.32	-0.91	0.4688	-0.0781	0.006	
-0.87718	0.188734	-0.503616	-1.61	-5.53	-0.77	0.4617	-0.0823	0.0089	
-0.891332	0.179828	-0.497638	-2.17	-6.02	-0.91	0.4661	-0.0844	-0.0047	
-0.88206	0.184952	-0.48373	-1.96	-7.07	-0.77	0.4645	-0.0812	0	
-0.875594	0.177876	-0.493246	-1.75	-7.98	0.49	0.4583	-0.0733	0.0001	
-0.896334	0.192638	-0.474458	-3.36	-8.68	-2.1	0.4615	-0.0782	-0.006	
-0.89792	0.181902	-0.481534	-3.71	-10.08	-1.96	0.4704	-0.0814	0	
-0.90158	0.185074	-0.471164	-2.45	-11.55	-2.38	0.4598	-0.0735	-0.0043	
-0.899262	0.186904	-0.459452	-3.5	-12.81	-3.01	0.4716	-0.074	-0.0043	
-0.8967	0.177632	-0.469944	-4.69	-14.28	-3.71	0.4642	-0.0736	-0.0013	
-0.89548	0.180926	-0.47519	-3.64	-15.68	-4.27	0.4599	-0.077	-0.0211	
-0.900116	0.185318	-0.47275	-4.34	-16.38	-4.27	0.4627	-0.0724	-0.0134	
-0.898896	0.185806	-0.467382	-4.34	-17.08	-4.27	0.4776	-0.07759999	-0.012	
-0.898408	0.19764	-0.467504	-10.5	-20.16	-2.59	0.4701	-0.0744	-0.021	
-0.906094	0.17873	-0.457866	-2.52	-19.6	-3.36	0.4667	-0.0638	-0.0268	
-0.905606	0.178364	-0.460306	-6.23	-18.76	-3.71	0.4712	-0.0669	-0.0223	
-0.912926	0.180804	-0.458476	-8.12	-18.27	-3.5	0.4657	-0.0762	-0.0362	
-0.914024	0.184708	-0.44042	-8.33	-17.92	-2.87	0.46	-0.0805	-0.0348	
-0.908168	0.186294	-0.429562	-6.02	-18.69	-2.59	0.464	-0.0699	-0.0315	
-0.90524	0.177998	-0.44652	-7.21	-19.95	-3.22	0.4628	-0.0777	-0.0408	
-0.91683	0.181414	-0.438102	-7.7	-19.11	-4.2	0.4624	-0.06879999	-0.0466	
-0.920856	0.18117	-0.421632	-6.79	-18.97	-4.13	0.461	-0.0687	-0.0466	
-0.92354	0.185562	-0.409676	-6.93	-18.76	-4.27	0.4639	-0.069	-0.0527	
-0.927566	0.185928	-0.397964	-3.99	-20.37	-3.78	0.4656	-0.0736	-0.0528	
-0.931104	0.18483	-0.393084	-5.39	-21.35	-4.2	0.4649	-0.0586	-0.0599	
-0.932934	0.18605	-0.390034	-6.93	-21.63	-3.85	0.467	-0.0724	-0.0618	
-0.931592	0.177754	-0.394182	-8.89	-22.68	-4.76	0.4596	-0.0705	-0.0588	
-0.945622	0.18666	-0.38613	-7.49	-22.68	-4.55	0.4636	-0.0633	-0.0646	
-0.955016	0.177754	-0.365512	-9.17	-22.96	-4.34	0.464	-0.0711	-0.0739	
-0.951966	0.174338	-0.346968	-9.45	-23.1	-4.69	0.4563	-0.0631	-0.0707	
-0.957944	0.174948	-0.33794	-9.87	-24.36	-5.18	0.4488	-0.06	-0.0797	
-0.957944	0.180926	-0.332206	-9.8	-25.62	-5.81	0.4607	-0.0654	-0.0889	
-0.956236	0.174704	-0.33306	-10.01	-26.6	-5.67	0.4505	-0.0648	-0.0874	
-0.956968	0.168848	-0.331352	-9.38	-27.37	-5.46	0.459	-0.0594	-0.0963	
-0.958066	0.170312	-0.32391	-8.33	-27.16	-5.67	0.4633	-0.0584	-0.1054	
-0.955748	0.161528	-0.313906	-7	-27.23	-5.81	0.4516	-0.0575	-0.0932	
-0.970632	0.163846	-0.29768	-5.74	-27.58	-6.23	0.4545	-0.0565	-0.1068	
-0.97844	0.166164	-0.271938	-8.12	-27.16	-6.51	0.4571	-0.0492	-0.1142	
-0.969046	0.155794	-0.265716	-8.12	-28.91	-6.37	0.4619	-0.0588	-0.1236	
-0.979416	0.154452	-0.272426	-7.7	-29.82	-6.37	0.4527	-0.049	-0.1142	
-0.95099	0.165188	-0.28243	-2.8	-29.26	-5.95	0.4526	-0.0493	-0.1233	
-0.952332	0.160186	-0.255102	-1.19	-27.65	-5.04	0.4509	-0.0431	-0.1216	
-0.953552	0.153598	-0.243024	-3.92	-25.48	-5.11	0.4512	-0.0509	-0.1294	
-0.967338	0.160796	-0.235704	-2.31	-24.64	-4.13	0.4492	-0.0369	-0.1199	
-0.980514	0.157502	-0.216916	-2.66	-24.29	-4.2	0.4496	-0.0464	-0.1338	
-0.981856	0.151402	-0.195322	-6.93	-21.91	-4.41	0.4406	-0.0432	-0.1413	
-0.986858	0.138958	-0.18666	-10.08	-21.98	-3.85	0.4419	-0.0386	-0.1397	
-0.986736	0.145424	-0.177632	-8.68	-21.7	-3.78	0.4411	-0.0543	-0.1568	
-1.006744	0.143106	-0.163968	-11.83	-21.63	-4.83	0.4524	-0.0454	-0.1459	
-1.012234	0.139934	-0.149328	-13.65	-20.44	-5.6	0.4446	-0.0346	-0.1532	
-0.997472	0.144326	-0.118218	-16.87	-20.65	-6.51	0.4421	-0.0454	-0.1626	
-0.973804	0.144448	-0.076006	-9.31	-19.95	-7.77	0.4433	-0.0379	-0.1639	
-0.962702	0.150304	-0.07625	-4.2	-23.17	-7.21	0.4392	-0.0453	-0.1656	
-0.966972	0.127002	-0.103456	-2.17	-26.04	-6.3	0.4389	-0.0393	-0.1669	
-0.980026	0.121512	-0.126514	-0.91	-26.04	-7.49	0.4418	-0.0382	-0.176	
-0.992714	0.123708	-0.09394	-2.24	-23.66	-7.28	0.4431	-0.0352	-0.1759	
-0.981856	0.118462	-0.023302	0.98	-20.86	-5.53	0.4345	-0.0393	-0.1745	
-0.980514	0.109434	-0.018666	1.05	-21.14	-5.6	0.4266	-0.027	-0.1802	
-0.982832	0.112972	-0.043554	0.07	-20.65	-5.88	0.4401	-0.0322	-0.1819	
-0.983076	0.113582	-0.056486	1.54	-18.06	-5.11	0.4338	-0.0244	-0.1847	
-0.985516	0.119682	-0.047824	1.47	-14.28	-4.06	0.4282	-0.0302	-0.1834	
-0.995154	0.125172	-0.021594	-0.91	-11.13	-3.64	0.4324	-0.024	-0.1741	
-0.99369	0.12139	-0.003538	-2.17	-8.82	-3.36	0.431	-0.0275	-0.1908	
-0.989542	0.13237	-0.003416	1.05	-10.01	-2.59	0.4235	-0.0228	-0.1983	
-0.99613	0.121268	-0.011834	-1.12	-10.5	-1.82	0.4311	-0.029	-0.1924	
-1.00223	0.119316	-0.013176	-0.07	-9.94	-1.96	0.425	-0.0243	-0.1953	
-1.00894	0.115046	-0.005856	-1.12	-8.82	-2.31	0.4334	-0.0155	-0.192	
-1.008208	0.112972	0.020008	-1.26	-7.91	-2.52	0.4298	-0.0339	-0.2062	
-1.002718	0.10736	0.021716	-0.77	-8.96	-2.66	0.424	-0.0352	-0.2077	
-0.995398	0.11224	-0.0061	0.84	-9.17	-2.59	0.4148	-0.0254	-0.1984	
-0.993202	0.101626	-0.03416	-1.19	-7.77	-2.8	0.4308	-0.0217	-0.2028	
-0.996252	0.106262	-0.027572	0.07	-5.11	-2.52	0.4232	-0.0167	-0.1981	
-0.988322	0.090036	-0.014518	-2.31	-3.22	-1.75	0.4175	-0.0213	-0.2074	
-0.998448	0.10187	-0.028914	1.33	-2.59	-1.26	0.4234	-0.0213	-0.1983	
-1.006866	0.106384	-0.03355	0.91	-1.75	0.14	0.4159	-0.0167	-0.2087	
-1.014552	0.106994	-0.027694	-1.33	-0.49	0.56	0.4143	-0.0149	-0.2041	
-1.014674	0.096258	-0.021472	-1.26	-0.07	1.47	0.4221	-0.0246	-0.209	
-1.007476	0.09455	-0.02562	-0.77	-0.28	2.73	0.4189	-0.0183	-0.2088	
-1.003328	0.099796	-0.033184	-0.14	-0.35	3.08	0.4235	-0.0245	-0.2059	
-1.00467	0.112606	-0.038064	0.91	-0.14	3.92	0.4237	-0.0287	-0.1924	
-1.00101	0.113704	-0.024522	1.75	1.26	4.97	0.4193	-0.0272	-0.1999	
-1.00528	0.118096	-0.020984	4.2	1.4	5.81	0.4117	-0.0223	-0.2013	
-1.008208	0.12932	-0.021716	4.41	0.7	7.77	0.4216	-0.014	-0.2132	
-1.011868	0.119926	-0.028426	4.13	0.28	9.31	0.4151	-0.0315	-0.1971	
-1.015894	0.116144	-0.042822	3.5	0.84	10.99	0.4105	-0.0285	-0.2076	
-1.01077	0.118462	-0.03843	4.62	1.33	12.11	0.4196	-0.0348	-0.2002	
-1.006866	0.122366	-0.039284	3.99	1.68	13.44	0.424	-0.0351	-0.2032	
-1.006744	0.132736	-0.040992	5.46	1.75	14.7	0.4223	-0.0287	-0.1939	
-1.010038	0.134322	-0.037332	5.39	1.89	15.96	0.4138	-0.036	-0.1972	
-1.013576	0.1403	-0.045262	5.46	1.05	17.57	0.4286	-0.0398	-0.2003	
-1.006378	0.156648	-0.0427	6.09	0.49	18.9	0.4245	-0.047	-0.1929	
-1.008574	0.157746	-0.040992	5.53	0.21	20.44	0.4189	-0.0515	-0.2007	
-1.015528	0.138104	-0.04636	3.15	-1.19	23.1	0.425	-0.0578	-0.1963	
-1.012356	0.130418	-0.055144	4.41	-1.82	24.85	0.4188	-0.0502	-0.2082	
-1.001132	0.138714	-0.051728	10.5	-0.98	26.04	0.4223	-0.0624	-0.2025	
-0.992836	0.17324	-0.054778	13.51	-0.77	27.3	0.4195	-0.0651	-0.198	
-0.995154	0.18361	-0.054168	14	-1.33	28.84	0.4229	-0.076	-0.1983	
-0.996984	0.174948	-0.035868	13.44	-1.82	30.66	0.4253	-0.0657	-0.2086	
-0.987712	0.189588	-0.051118	11.62	-3.57	32.06	0.407	-0.0816	-0.2076	
-0.986492	0.211304	-0.061	9.38	-3.43	31.29	0.4113	-0.0803	-0.2076	
-0.988566	0.250344	-0.05124	13.02	-2.38	31.43	0.4207	-0.0928	-0.2049	
-0.98698	0.273646	-0.033306	12.18	-2.24	32.13	0.4207	-0.0926	-0.2003	
-0.982344	0.279014	-0.038796	9.8	-4.13	33.88	0.4241	-0.105	-0.2007	
-0.970632	0.282796	-0.04636	13.09	-4.76	35.21	0.4108	-0.103	-0.2082	
-0.974536	0.297924	-0.038796	9.52	-4.62	35.21	0.4169	-0.1078	-0.2068	
-0.962336	0.319884	-0.041602	8.54	-6.23	36.54	0.4143	-0.1151	-0.198	
-0.95953	0.318908	-0.029768	9.66	-6.16	37.73	0.4116	-0.1197	-0.2057	
-0.95709	0.33123	-0.055388	7	-6.44	38.5	0.4118	-0.1261	-0.215	
-0.94916	0.32391	-0.072102	9.73	-4.55	39.06	0.4106	-0.1304	-0.2075	
-0.946842	0.360022	-0.05856	14.42	-2.24	37.31	0.4111	-0.1426	-0.2079	
-0.939644	0.376492	-0.055022	8.61	-0.7	36.26	0.4147	-0.1565	-0.2098	
-0.954284	0.377956	-0.058194	8.89	-2.24	36.4	0.4078	-0.1668	-0.2116	
-0.958188	0.388204	-0.068564	4.83	-1.61	37.45	0.4028	-0.1526	-0.1991	
-0.941718	0.400526	-0.057218	2.31	-0.77	37.24	0.3897	-0.1566	-0.2007	
-0.93452	0.421266	-0.048678	6.86	0.35	35.77	0.402	-0.1679	-0.2041	
-0.920002	0.434076	-0.041724	7	-0.14	35.14	0.3969	-0.1859	-0.2031	
-0.91378	0.439566	-0.052094	3.29	-1.61	35.56	0.3984	-0.1876	-0.2077	
-0.91927	0.43859	-0.049532	1.89	-2.17	35.98	0.3984	-0.1861	-0.2092	
-0.91622	0.433954	-0.051972	6.02	-2.52	36.05	0.3867	-0.1883	-0.1986	
-0.899628	0.454938	-0.04758	6.09	-3.29	35.63	0.3899	-0.1931	-0.2033	
-0.882914	0.467748	-0.071004	2.38	-4.27	36.47	0.3905	-0.2069	-0.2052	
-0.879986	0.459208	-0.05429	7.07	-3.29	38.15	0.3847	-0.2095	-0.1993	
-0.890478	0.478728	-0.05429	8.4	-3.64	40.11	0.3867	-0.2219	-0.2057	
-0.8845	0.470188	-0.056242	3.78	-4.34	40.46	0.378	-0.2247	-0.2103	
-0.87901	0.496174	-0.054412	7.07	-4.69	39.27	0.3764	-0.2212	-0.1951	
-0.874252	0.536312	-0.04758	7.77	-4.2	36.96	0.371	-0.2317	-0.1999	
-0.858514	0.564372	-0.042456	6.72	-4.83	34.72	0.3739	-0.2306	-0.209	
-0.839482	0.587186	-0.038308	4.27	-5.46	32.97	0.3686	-0.2422	-0.2002	
-0.842532	0.57218	-0.055632	2.03	-6.86	31.99	0.3645	-0.2497	-0.2005	
-0.848998	0.590114	-0.04819	3.57	-8.05	30.45	0.356	-0.2569	-0.2022	
-0.835944	0.603656	-0.040138	3.29	-8.89	29.33	0.3529	-0.254	-0.2112	
-0.828136	0.60451	-0.042212	1.33	-9.94	29.4	0.359	-0.2587	-0.2053	
-0.825818	0.595116	-0.033062	1.26	-11.9	29.89	0.3446	-0.2659	-0.2161	
-0.809714	0.588284	-0.051484	3.64	-13.93	31.22	0.3535	-0.2674	-0.201	
-0.791658	0.602314	-0.06466	3.43	-12.95	30.31	0.3431	-0.2641	-0.2085	
-0.765916	0.624884	-0.036234	5.32	-10.57	29.33	0.3478	-0.272	-0.2102	
-0.74481	0.622078	-0.038186	3.01	-9.94	29.05	0.3333	-0.2742	-0.2043	
-0.747372	0.614636	-0.043676	2.31	-9.52	29.68	0.3277	-0.2819	-0.2166	
-0.767136	0.625738	-0.030378	2.8	-8.75	28.49	0.3322	-0.2835	-0.2121	
-0.768478	0.64904	-0.025742	0.42	-7.14	26.46	0.3224	-0.2936	-0.2094	
-0.75335	0.657946	-0.026962	0.56	-5.11	24.71	0.3237	-0.2892	-0.2138	
-0.74237	0.675026	-0.0305	1.12	-4.83	25.34	0.3255	-0.2985	-0.2156	
-0.74847	0.676978	-0.029036	-0.35	-4.76	24.36	0.3257	-0.3014	-0.2096	
-0.756156	0.693204	-0.012688	-1.26	-4.83	23.03	0.3213	-0.3028	-0.2127	
-0.752374	0.694058	-0.015982	-1.96	-4.97	21.14	0.3199	-0.3044	-0.2203	
-0.74664	0.70638	-0.008296	-0.77	-5.67	19.46	0.3185	-0.3059	-0.2204	
-0.723094	0.707234	0.00549	0.98	-7.07	17.64	0.3109	-0.2992	-0.2126	
-0.715164	0.699914	-0.025132	0.07	-7.49	16.03	0.3042	-0.3143	-0.2191	
-0.707356	0.71187	-0.01891	0.56	-6.86	14.77	0.3011	-0.3095	-0.2145	
-0.6954	0.714066	-0.012078	0.63	-7.91	13.79	0.3059	-0.3187	-0.2117	
-0.700524	0.720898	-0.007076	0.07	-7.35	12.74	0.3037	-0.3037	-0.2188	
-0.702354	0.721508	-0.004392	-0.35	-7	11.62	0.2927	-0.3196	-0.2102	
-0.696132	0.732122	-0.005856	-0.56	-6.93	10.78	0.2997	-0.311	-0.2175	
-0.68686	0.732854	0.00061	-1.54	-7.07	10.01	0.3031	-0.3235	-0.2209	
-0.679418	0.735904	0.003416	-1.75	-6.23	9.45	0.2896	-0.3171	-0.2314	
-0.672342	0.740662	0.006832	-2.59	-6.09	8.82	0.2928	-0.3233	-0.23	
-0.671488	0.747128	0.008784	-2.1	-5.6	8.4	0.3014	-0.3176	-0.2329	
-0.669414	0.749446	0.010126	-0.42	-5.39	8.12	0.299	-0.3294	-0.2241	
-0.670268	0.741638	0.016714	-1.82	-5.25	7.7	0.2867	-0.3168	-0.2268	
-0.663558	0.752618	0.00183	-0.91	-4.55	6.93	0.2853	-0.3182	-0.2238	
-0.662338	0.74908	0.01159	-1.89	-2.17	5.32	0.2884	-0.323	-0.227	
-0.665754	0.743712	0.013176	-1.05	-1.19	4.76	0.2898	-0.32	-0.2269	
-0.658312	0.75335	0.005856	1.19	-1.61	4.27	0.2884	-0.3215	-0.23	
-0.658068	0.762866	0.011102	1.19	0.07	4.06	0.2916	-0.3278	-0.2317	
-0.661728	0.767502	0.01586	0.49	0.84	3.57	0.2928	-0.3219	-0.2345	
-0.671976	0.765306	0.022814	-1.4	1.12	2.38	0.2828	-0.3274	-0.2332	
-0.675026	0.756522	0.01586	-2.03	1.75	1.33	0.281	-0.3195	-0.2254	
-0.662338	0.755058	0.009881999	-1.82	2.8	0.35	0.2892	-0.3397	-0.2275	
-0.66368	0.746152	0.026474	-1.05	3.29	-0.56	0.2826	-0.3228	-0.2315	
-0.680882	0.737002	0.018666	-2.03	3.36	-2.1	0.2838	-0.3166	-0.2238	
-0.680272	0.744078	0.017934	-1.4	3.64	-3.29	0.2832	-0.3364	-0.2259	
-0.680394	0.751886	0.021838	-2.31	3.5	-4.27	0.2871	-0.3259	-0.2271	
-0.682102	0.751154	0.013176	-2.87	3.01	-5.67	0.29	-0.3259	-0.2225	
-0.691374	0.74542	0.013908	-2.03	3.01	-7.28	0.2843	-0.3288	-0.2256	
-0.698572	0.743224	0.008296	-2.94	2.59	-8.75	0.2751	-0.3193	-0.2254	
-0.698206	0.742004	-0.000122	-1.75	2.03	-10.01	0.3004	-0.3282	-0.2301	
-0.69967	0.736148	0.002928	-3.01	2.45	-11.48	0.2872	-0.3274	-0.2241	
-0.697718	0.733708	0.00244	-2.31	2.17	-12.74	0.2837	-0.3151	-0.2252	
-0.694424	0.738466	0.003538	-2.94	2.17	-13.79	0.2924	-0.3126	-0.2297	
-0.695766	0.731634	0.005978	-4.13	1.89	-14.98	0.3016	-0.3223	-0.236	
-0.70028	0.724436	-0.00122	-2.8	2.31	-15.96	0.291	-0.314	-0.2282	
-0.70089	0.719312	0.003416	-2.17	2.8	-17.08	0.2998	-0.3144	-0.2297	
-0.714554	0.70943	0.008174	-2.1	1.96	-18.48	0.3022	-0.3024	-0.2294	
-0.716872	0.702964	0.00366	-2.31	1.47	-19.18	0.3079	-0.2996	-0.2308	
-0.719556	0.701256	-0.002318	-1.26	1.75	-20.09	0.3006	-0.2991	-0.2232	
-0.723094	0.703818	-0.006344	-2.17	1.89	-20.58	0.3035	-0.2977	-0.2247	
-0.721752	0.69967	0.000854	-1.96	1.96	-20.93	0.3093	-0.2968	-0.2338	
-0.735294	0.687226	0.008905999	-3.64	1.82	-22.05	0.312	-0.2908	-0.2351	
-0.745176	0.679784	0.011224	-2.52	2.38	-23.31	0.3182	-0.2989	-0.2399	
-0.740784	0.678808	0.010492	-2.24	1.89	-23.94	0.3191	-0.2867	-0.2395	
-0.75091	0.683932	0.011224	-1.89	1.4	-24.78	0.3176	-0.285	-0.2334	
-0.751398	0.65148	0.005124	-8.47	1.4	-25.13	0.3206	-0.2881	-0.2304	
-0.760426	0.662948	0.01159	-1.26	1.68	-26.46	0.3263	-0.2822	-0.2303	
-0.765794	0.649894	0.010248	-4.41	1.96	-27.09	0.3276	-0.2792	-0.2302	
-0.773846	0.638792	0.00488	-2.73	1.68	-27.65	0.3198	-0.2698	-0.2299	
-0.782264	0.640256	0.00732	-3.64	1.61	-28.28	0.3292	-0.2823	-0.2272	
-0.783728	0.627446	0.004514	-4.34	1.96	-28.98	0.3399	-0.2601	-0.2326	
-0.793	0.614514	-0.000366	-5.04	2.24	-29.96	0.3283	-0.2627	-0.2342	
-0.811666	0.606218	0.008052	-4.55	2.38	-30.66	0.3369	-0.2586	-0.2386	
-0.8174	0.601582	0.013542	-3.71	1.82	-31.36	0.3444	-0.2618	-0.2296	
-0.832894	0.584502	0.012078	-5.39	1.54	-31.71	0.3381	-0.2525	-0.2354	
-0.834358	0.578158	0.01464	-5.67	1.33	-32.2	0.3457	-0.2574	-0.2356	
-0.83143	0.554368	0.009638	-3.71	0.98	-33.88	0.3549	-0.2334	-0.2318	
-0.847656	0.543876	0.00854	-4.13	0.49	-34.72	0.3595	-0.2365	-0.2274	
-0.8601	0.532896	0.010736	-3.36	-0.49	-35.7	0.3518	-0.2302	-0.2302	
-0.863028	0.52582	0.005612	-3.15	-0.77	-36.54	0.3562	-0.2289	-0.2302	
-0.872056	0.528382	0.018056	-2.52	-1.12	-37.45	0.3627	-0.2112	-0.2387	
-0.869372	0.518378	0.009516	-2.66	-1.61	-38.29	0.3615	-0.2153	-0.2267	
-0.87779	0.505568	0.000122	-6.44	-1.19	-38.99	0.3613	-0.2107	-0.2236	
-0.878644	0.485316	0.01769	-6.16	-0.63	-39.62	0.3667	-0.2005	-0.2324	
-0.905118	0.476044	0.013908	-3.92	-1.12	-40.53	0.3728	-0.2052	-0.2279	
-0.910364	0.458842	0.030134	-5.67	-1.96	-41.09	0.3726	-0.2025	-0.2369	
-0.936106	0.453962	0.04392	-8.26	-1.96	-42.84	0.3812	-0.1966	-0.2307	
-0.93818	0.42822	0.040626	-9.24	-2.03	-45.22	0.3794	-0.1907	-0.2411	
-0.933178	0.423706	0.035624	-3.78	-1.54	-46.34	0.3644	-0.1823	-0.2364	
-0.915488	0.407968	0.033184	-7	-2.31	-46.9	0.3828	-0.1682	-0.2435	
-0.924638	0.380396	0.041968	-10.36	-1.82	-47.81	0.3797	-0.1634	-0.2419	
-0.941474	0.37515	0.032452	-10.01	-0.77	-48.44	0.3826	-0.162	-0.2418	
-0.938302	0.345992	0.048678	-9.52	-0.07	-47.74	0.3848	-0.1469	-0.2414	
-0.955504	0.327692	0.02745	-6.09	1.47	-47.11	0.3863	-0.1469	-0.2398	
-0.962092	0.31232	0.046482	-6.37	0.42	-47.81	0.3844	-0.1379	-0.2456	
-0.97295	0.28609	0.033794	-6.3	-1.61	-48.3	0.39	-0.1305	-0.2424	
-0.981002	0.26535	0.04209	-8.12	-1.19	-48.58	0.3838	-0.1226	-0.2437	
-0.993934	0.261934	0.0488	-0.49	0.42	-49.49	0.3952	-0.1155	-0.2419	
-0.99186	0.251076	0.063684	-1.61	0.42	-49.98	0.3916	-0.1018	-0.2461	
-0.982954	0.230214	0.05124	-1.89	-0.77	-50.19	0.3886	-0.0986	-0.2475	
-0.996008	0.225212	0.059902	-3.29	-1.05	-51.17	0.4029	-0.0918	-0.2503	
-0.972706	0.178486	0.043676	-3.85	-1.54	-50.82	0.3965	-0.0792	-0.2469	
-0.987102	0.201178	0.050508	-5.04	-2.66	-51.73	0.4007	-0.0748	-0.2453	
-0.988566	0.219722	0.05551	-5.6	-3.5	-53.9	0.405	-0.0717	-0.2361	
-0.994788	0.154818	0.045384	-12.46	-4.48	-54.25	0.4103	-0.0585	-0.2448	
-1.002474	0.144936	0.043676	-8.19	-3.22	-53.83	0.3926	-0.056	-0.2402	
-0.994666	0.10553	0.036966	-13.51	-3.08	-51.38	0.4049	-0.0353	-0.2411	
-0.989298	0.101382	0.041236	-12.88	-0.21	-50.82	0.3941	-0.0245	-0.2514	
-1.007964	0.071736	0.06734399	-8.68	0.28	-47.6	0.4045	-0.0262	-0.2424	
-0.998936	0.01037	0.06832	0.84	4.34	-45.36	0.3957	-0.026	-0.2484	
-0.99491	-0.015128	0.002074	2.1	2.1	-41.58	0.4	-0.0245	-0.2408	
-1.021872	0.0427	0.036966	-0.49	1.26	-41.37	0.396	-0.0003	-0.2507	
-1.025288	0.03721	0.068686	-10.78	-1.61	-41.51	0.3934	-0.0077	-0.2479	
-1.030534	0.03294	0.061	-4.13	1.96	-40.74	0.3961	-0.0016	-0.2447	
-1.012112	-0.014884	0.045628	-8.05	1.12	-39.55	0.3999	0.0102	-0.2474	
-1.005646	-0.020496	0.040626	1.61	3.22	-39.2	0.3951	0.0197	-0.2425	
-1.001986	-0.034892	0.043676	-4.13	3.5	-39.9	0.3965	0.0226	-0.244	
-1.012722	-0.044774	0.057096	-8.68	1.68	-41.3	0.3963	0.0273	-0.2393	
-1.00955	-0.086742	0.048922	-3.43	2.03	-41.16	0.4021	0.027	-0.2423	
-1.026508	-0.122244	0.041358	-3.36	2.03	-42.35	0.4016	0.039	-0.2465	
-1.009062	-0.130662	0.051362	5.39	4.13	-43.26	0.3906	0.0547	-0.2461	
-0.996252	-0.125904	0.048068	-0.77	3.99	-42.77	0.3908	0.0501	-0.2462	
-0.984906	-0.112118	0.053314	0.7	4.06	-41.86	0.387	0.0704	-0.2365	
-0.98759	-0.11468	0.048312	1.61	4.9	-40.6	0.3915	0.0683	-0.2487	
-1.016382	-0.124318	0.06893	-5.74	3.71	-38.78	0.3898	0.0731	-0.244	
-1.004914	-0.132736	0.063928	-6.72	6.3	-37.52	0.384	0.0721	-0.235	
-0.99613	-0.160308	0.046482	-6.72	7.56	-36.19	0.3821	0.0828	-0.2332	
-0.98393	-0.14396	0.054534	-0.21	10.85	-35.98	0.3831	0.0935	-0.2313	
-0.994544	-0.17202	0.04819	-9.52	11.27	-32.55	0.3828	0.0994	-0.2387	
-1.007598	-0.196786	0.04819	-10.15	11.41	-31.92	0.3888	0.0977	-0.2357	
-1.00467	-0.197396	0.058682	-9.38	10.36	-32.97	0.3901	0.1007	-0.2326	
-0.99491	-0.206546	0.080398	-13.58	8.68	-33.95	0.3927	0.1083	-0.2294	
-0.986614	-0.223016	0.038308	-17.01	8.68	-33.11	0.3839	0.1088	-0.2263	
-0.984418	-0.259616	0.024644	-14.63	8.61	-32.55	0.3762	0.1166	-0.2322	
-0.979172	-0.293044	-0.011468	-7.56	9.17	-32.2	0.3804	0.1226	-0.229	
-0.987346	-0.340502	-0.020496	-5.67	10.01	-33.6	0.3869	0.1405	-0.2284	
-1.000156	-0.344528	-0.035624	2.1	11.69	-35.07	0.3784	0.1334	-0.2256	
-0.998936	-0.339892	-0.0183	2.03	9.73	-34.23	0.3782	0.1383	-0.2134	
-0.975146	-0.320372	-0.016348	7.14	8.26	-32.2	0.3752	0.14	-0.2133	
-0.954528	-0.282308	-0.032208	9.38	9.1	-30.17	0.3808	0.1473	-0.2146	
-0.95221	-0.272914	-0.006588	3.78	8.47	-28.98	0.3761	0.1535	-0.2175	
-0.949038	-0.274378	-0.013542	-2.59	6.44	-26.67	0.3701	0.157	-0.2113	
-0.946232	-0.312564	-0.021594	-3.43	6.23	-23.87	0.3715	0.1585	-0.2098	
-0.9516	-0.345016	-0.028914	-5.39	6.23	-22.05	0.3743	0.1614	-0.2082	
-0.940498	-0.361486	-0.05002	-5.32	5.46	-21.07	0.3725	0.1689	-0.2155	
-0.94977	-0.366732	-0.045994	-5.81	5.6	-20.37	0.3606	0.1727	-0.2094	
-0.939644	-0.368318	-0.046848	-8.89	4.69	-18.9	0.3666	0.1696	-0.2004	
-0.941352	-0.38491	-0.01403	-11.48	5.53	-19.04	0.3619	0.1773	-0.2047	
-0.93147	-0.392596	-0.01586	-9.87	5.46	-19.95	0.3602	0.1818	-0.2091	
-0.91683	-0.402234	-0.04453	-11.41	2.38	-21.21	0.3555	0.1899	-0.2013	
-0.907924	-0.40138	-0.044164	-12.67	2.24	-22.54	0.3613	0.1911	-0.2028	
-0.916464	-0.386496	-0.058438	-12.88	2.73	-23.8	0.369	0.1831	-0.2045	
-0.94977	-0.39711	-0.027816	-16.17	3.78	-23.17	0.3623	0.2014	-0.2131	
-0.928786	-0.411262	-0.033306	-15.75	2.24	-22.54	0.3522	0.1978	-0.195	
-0.907192	-0.424804	-0.053558	-13.93	1.19	-23.17	0.3571	0.2189	-0.1944	
-0.904752	-0.438834	-0.07905599	-16.8	0.14	-22.68	0.3518	0.2066	-0.2054	
-0.910974	-0.448594	-0.083082	-14.98	2.8	-21.42	0.3575	0.2097	-0.1947	
-0.905606	-0.44774	-0.08174	-14.49	3.99	-20.02	0.3514	0.2157	-0.2081	
-0.913414	-0.44896	-0.080398	-13.02	4.13	-19.18	0.3426	0.2162	-0.2036	
-0.913414	-0.459818	-0.074542	-10.15	4.41	-18.62	0.3495	0.2255	-0.1882	
-0.918294	-0.491904	-0.073444	-12.25	6.23	-18.13	0.351	0.2237	-0.1943	
-0.916342	-0.493246	-0.069784	-9.52	7.49	-17.85	0.3464	0.2287	-0.1851	
-0.92232	-0.504226	-0.083814	-8.96	4.27	-16.59	0.3434	0.2304	-0.1835	
-0.910242	-0.508862	-0.085522	-5.53	2.94	-15.82	0.3432	0.2363	-0.1924	
-0.921588	-0.492636	-0.089914	-8.26	-0.63	-15.96	0.3332	0.2309	-0.182	
-0.871812	-0.502884	-0.073688	-8.33	-5.39	-13.02	0.3479	0.2284	-0.1926	
-0.867908	-0.510204	-0.060634	-5.88	-7	-12.18	0.3371	0.2411	-0.1938	
-0.884134	-0.507032	-0.074908	-3.29	-8.68	-12.88	0.3295	0.2463	-0.1816	
-0.897676	-0.506056	-0.083692	0.14	-7.07	-13.23	0.3324	0.2493	-0.1784	
-0.880718	-0.531554	-0.078202	0.35	-7.35	-11.9	0.3398	0.2458	-0.1831	
-0.86742	-0.515328	-0.07137	0.7	-8.19	-12.39	0.3239	0.2403	-0.1878	
-0.860466	-0.496906	-0.08784	2.1	-7.63	-11.9	0.3295	0.246	-0.1922	
-0.859246	-0.49959	-0.096258	1.33	-5.88	-11.27	0.3262	0.2555	-0.1843	
-0.859124	-0.524478	-0.071858	-2.38	-3.78	-11.06	0.3233	0.2539	-0.1919	
-0.848876	-0.513986	-0.071614	-1.54	-4.41	-10.92	0.332	0.2567	-0.1858	
-0.85278	-0.52155	-0.057218	-1.54	-3.36	-9.24	0.3293	0.252	-0.1965	
-0.85888	-0.527528	-0.048556	-0.49	-2.94	-7	0.3337	0.2521	-0.1859	
-0.869616	-0.534726	-0.067832	-1.68	-2.24	-6.51	0.3321	0.2551	-0.1904	
-0.854488	-0.537288	-0.063074	-0.14	-2.45	-4.34	0.3204	0.2541	-0.1904	
-0.854244	-0.53558	-0.052704	0.14	-3.29	-3.57	0.3202	0.2588	-0.1842	
-0.8723	-0.523868	-0.04697	0.35	-3.92	-3.08	0.3276	0.2568	-0.1903	
-0.86864	-0.520574	-0.071858	1.26	-4.34	-1.33	0.3186	0.2615	-0.1993	
-0.899872	-0.563152	-0.04209	0.14	-6.02	-0.28	0.3204	0.2521	-0.2056	
-0.878156	-0.571448	-0.051118	2.31	-6.79	0.77	0.3261	0.2585	-0.1857	
-0.840336	-0.561322	-0.058682	3.85	-6.58	2.8	0.3214	0.2645	-0.1962	
-0.847656	-0.535824	-0.069418	4.2	-6.3	4.9	0.3158	0.2572	-0.1949	
-0.834968	-0.518744	-0.043066	5.11	-4.76	4.13	0.3101	0.2541	-0.2056	
-0.845338	-0.528626	-0.034648	4.13	-4.41	4.06	0.3293	0.2521	-0.1935	
-0.857538	-0.530822	-0.035624	1.33	-2.17	3.57	0.3189	0.2543	-0.1844	
-0.864736	-0.520574	-0.030744	0.98	-1.61	3.64	0.3141	0.2632	-0.1993	
-0.869372	-0.517524	-0.028304	2.03	-0.91	4.9	0.3086	0.2559	-0.198	
-0.863638	-0.529236	-0.038674	-0.84	-0.49	5.18	0.3176	0.2494	-0.1981	
-0.854854	-0.505934	-0.041968	-2.87	-2.24	6.51	0.3237	0.2444	-0.2043	
-0.859246	-0.515938	-0.04636	-1.89	0.07	7.21	0.3189	0.2542	-0.1874	
-0.86071	-0.516304	-0.052582	-1.47	0.21	7.84	0.3155	0.2648	-0.1962	
-0.8662	-0.524234	-0.030256	-2.94	-0.35	8.68	0.3165	0.2416	-0.2059	
-0.874862	-0.514108	-0.028914	-3.64	-1.26	9.94	0.319	0.2523	-0.2026	
-0.879132	-0.51301	-0.05124	-2.45	-0.49	11.48	0.3143	0.2588	-0.1933	
-0.875106	-0.516304	-0.035868	-1.54	0.91	12.81	0.3307	0.2533	-0.201	
-0.872178	-0.513132	-0.045262	-1.05	1.47	14.21	0.3251	0.2459	-0.2013	
-0.87779	-0.514718	-0.04636	-0.42	1.19	16.17	0.3295	0.2472	-0.2027	
-0.882914	-0.515572	-0.0305	0.28	1.19	17.71	0.3343	0.2365	-0.1985	
-0.893284	-0.49532	-0.019032	1.68	0.91	16.94	0.3373	0.2347	-0.2046	
-0.894138	-0.481534	-0.030988	2.17	0.21	17.99	0.3343	0.2366	-0.1939	
-0.888404	-0.47214	-0.04209	1.96	-0.07	18.27	0.3357	0.2393	-0.2029	
-0.872666	-0.465796	-0.061732	3.22	0.7	18.9	0.3299	0.2367	-0.197	
-0.876326	-0.461282	-0.05978	4.9	0	20.23	0.339	0.2305	-0.1881	
-0.881938	-0.4453	-0.049776	7.98	0.07	21.56	0.342	0.2287	-0.1942	
-0.888526	-0.437614	-0.060268	4.13	0.63	21.91	0.3411	0.2165	-0.1945	
-0.913658	-0.421022	-0.068686	-1.89	3.64	22.33	0.3496	0.2221	-0.1974	
-0.931836	-0.387716	-0.050508	-4.9	2.17	21.77	0.3511	0.2219	-0.2019	
-0.918294	-0.412482	-0.028182	-0.14	5.88	25.2	0.3457	0.2117	-0.1977	
-0.917562	-0.42639	-0.038918	-4.55	4.76	27.23	0.3532	0.2084	-0.1932	
-0.904386	-0.431148	-0.065026	-7.49	3.08	28.63	0.3564	0.2019	-0.2025	
-0.930494	-0.429684	-0.051728	-0.07	5.6	29.89	0.3535	0.2006	-0.201	
-0.947574	-0.407602	-0.03477	4.76	7.98	29.4	0.3611	0.196	-0.189	
-0.949526	-0.401502	-0.041602	3.29	7.63	29.54	0.3561	0.2097	-0.1962	
-0.952454	-0.40077	-0.052582	4.83	6.86	29.75	0.3625	0.1974	-0.1935	
-0.9333	-0.37637	-0.054412	7.35	7.7	29.82	0.3759	0.1921	-0.1982	
-0.952088	-0.354898	-0.070394	6.58	5.39	29.89	0.3721	0.1786	-0.1956	
-0.966484	-0.336598	-0.068442	3.85	3.29	28.98	0.3767	0.1739	-0.1927	
-0.95831	-0.3477	-0.057096	5.95	6.3	31.15	0.3869	0.1751	-0.1896	
-0.956236	-0.338306	-0.047214	5.6	5.46	31.01	0.3829	0.1676	-0.1928	
-0.955748	-0.305	-0.064538	3.15	4.2	31.57	0.3786	0.1646	-0.1975	
-0.960262	-0.291092	-0.054778	-0.49	4.69	32.34	0.3817	0.1618	-0.1854	
-0.972096	-0.304634	-0.030012	-4.27	3.71	33.6	0.3863	0.1556	-0.1795	
-0.984174	-0.312198	-0.044774	-3.71	2.66	33.88	0.3884	0.1415	-0.1921	
-0.989664	-0.298046	-0.064538	-3.99	1.96	33.95	0.3882	0.1462	-0.1874	
-0.984662	-0.296582	-0.085278	-2.17	1.61	33.74	0.3931	0.1338	-0.1893	
-0.977464	-0.274622	-0.09747799	3.57	2.31	34.09	0.3989	0.1366	-0.1861	
-0.981246	-0.263764	-0.102358	4.69	1.75	33.95	0.3933	0.1293	-0.1879	
-0.986858	-0.238998	-0.108702	8.05	1.47	33.04	0.3996	0.1215	-0.1851	
-0.999058	-0.208986	-0.08845	8.4	0.7	32.76	0.3922	0.1216	-0.1911	
-1.001986	-0.187514	-0.077958	6.23	-0.7	32.83	0.4041	0.1181	-0.1897	
-1.00833	-0.182634	-0.087352	5.74	-1.47	33.74	0.3973	0.1064	-0.1825	
-1.00772	-0.164456	-0.072712	6.51	-1.33	34.86	0.4109	0.0966	-0.1858	
-0.994422	-0.148596	-0.086132	1.75	-2.31	35.91	0.3964	0.0941	-0.1904	
-0.994666	-0.133712	-0.091988	1.12	-2.17	36.89	0.4126	0.092	-0.1829	
-0.999424	-0.124318	-0.088938	-0.7	-1.89	37.59	0.4072	0.0799	-0.1893	
-1.008452	-0.109312	-0.088206	-0.21	-0.7	38.08	0.4218	0.0821	-0.1952	
-1.008818	-0.083204	-0.06832	-2.17	-1.75	38.78	0.4218	0.0823	-0.1907	
-1.018212	-0.06344	-0.078812	-2.87	-3.29	38.99	0.4119	0.0736	-0.191	
-1.030534	-0.053558	-0.087108	-1.26	-3.36	39.27	0.4108	0.066	-0.1942	
-1.026996	-0.033062	-0.083082	-0.28	-2.52	39.69	0.4139	0.0627	-0.1958	
-1.02724	-0.027084	-0.079788	-1.61	-1.82	40.46	0.4129	0.0523	-0.1916	
-1.016382	-0.009881999	-0.063928	0.49	-1.4	40.39	0.4221	0.0413	-0.1889	
-1.008818	0.011712	-0.063928	0.98	-2.52	41.09	0.4195	0.0337	-0.1921	
-1.010648	0.0305	-0.064538	-2.24	-2.73	41.79	0.4268	0.0366	-0.186	
-1.008086	0.040138	-0.054534	-2.45	-2.31	43.19	0.4243	0.0258	-0.1969	
-1.012112	0.039162	-0.068808	-5.04	-2.31	43.82	0.4262	0.0155	-0.1805	
-1.013576	0.046482	-0.061366	-1.4	-2.73	44.87	0.4261	0.0182	-0.1926	
-1.0126	0.08113	-0.076616	-1.19	-3.08	44.73	0.4177	0.0094	-0.1943	
-1.014064	0.107726	-0.077104	-1.61	-2.45	44.38	0.4255	-0.0031	-0.1977	
-1.006256	0.110044	-0.073688	-4.2	-1.68	45.22	0.427	-0.003	-0.1932	
-1.021506	0.12627	-0.067588	2.59	0.42	46.9	0.4243	-0.009	-0.1949	
-1.006988	0.122122	-0.06405	1.89	-0.91	47.67	0.428	-0.0246	-0.1999	
-1.006866	0.147376	-0.094794	1.26	-1.89	46.97	0.4251	-0.0273	-0.1954	
-1.01321	0.173362	-0.098332	5.18	0.07	46.76	0.4284	-0.0351	-0.1956	
-0.99796	0.207522	-0.084058	3.08	1.47	46.34	0.4262	-0.05	-0.1885	
-1.003694	0.211548	-0.059902	8.61	0.91	46.62	0.4245	-0.0469	-0.1884	
-1.00406	0.221064	-0.066734	10.85	1.4	45.22	0.4324	-0.0582	-0.1993	
-1.006988	0.233752	-0.053802	13.37	2.31	42.77	0.4252	-0.0622	-0.1919	
-1.028582	0.23729	-0.043798	11.27	2.03	43.4	0.4226	-0.0698	-0.1966	
-0.996984	0.210084	-0.009516	6.93	1.4	43.12	0.4334	-0.0821	-0.1833	
-0.98637	0.23363	-0.014152	13.02	-1.19	44.73	0.4207	-0.0936	-0.1807	
-0.975756	0.245952	-0.031476	5.88	-5.11	44.52	0.4383	-0.0914	-0.1821	
-0.95526	0.269254	-0.06283	8.68	-5.46	45.85	0.4288	-0.1094	-0.1887	
-0.934398	0.302316	-0.07381	13.3	-3.78	46.62	0.4216	-0.1138	-0.1949	
-0.938668	0.320494	-0.077714	12.74	-4.55	45.36	0.4202	-0.1153	-0.198	
-0.94245	0.357338	-0.08235	15.82	-2.87	42.63	0.4179	-0.1304	-0.1969	
-0.945988	0.34892	-0.096624	15.19	-2.17	43.54	0.4119	-0.1269	-0.1908	
-0.955138	0.361486	-0.099552	15.96	-1.4	41.65	0.4123	-0.1346	-0.194	
-0.931958	0.363682	-0.109678	21.91	-0.14	40.81	0.4145	-0.1529	-0.193	
-0.939034	0.37637	-0.097966	21.63	1.96	37.94	0.4116	-0.1528	-0.193	
-0.94062	0.383812	-0.081862	17.36	3.78	38.08	0.4114	-0.15	-0.2005	
-0.931836	0.389424	-0.06954	12.11	4.2	37.38	0.4104	-0.1588	-0.1932	
-0.925614	0.408456	-0.05856	9.03	3.78	36.33	0.4024	-0.1763	-0.1801	
-0.910364	0.446154	-0.06954	10.71	3.01	35.21	0.4081	-0.1721	-0.183	
-0.900848	0.458232	-0.0854	6.23	1.96	34.51	0.4101	-0.1844	-0.1833	
-0.896944	0.461404	-0.097722	7.49	2.31	35.21	0.4046	-0.193	-0.176	
-0.899628	0.461648	-0.099796	6.93	1.82	35.42	0.4047	-0.196	-0.1746	
-0.903654	0.467992	-0.09552599	3.92	0.21	33.6	0.389	-0.2044	-0.1734	
-0.904996	0.483364	-0.08418	4.83	-0.7	33.25	0.3932	-0.2017	-0.1778	
-0.913658	0.50081	-0.077714	3.71	-1.26	31.36	0.3907	-0.2105	-0.1735	
-0.891088	0.507642	-0.09577	4.48	-2.45	31.08	0.3893	-0.2121	-0.1766	
-0.89243	0.482266	-0.118584	1.12	-2.87	31.92	0.3848	-0.2105	-0.1826	
-0.902312	0.478118	-0.113704	1.89	-3.92	33.11	0.3955	-0.2202	-0.1829	
-0.864126	0.497638	-0.08906	5.18	-5.25	34.58	0.3855	-0.2257	-0.1785	
-0.84851	0.506544	-0.089914	2.59	-6.58	32.9	0.3901	-0.2305	-0.1802	
-0.85339	0.528626	-0.078202	-0.84	-8.61	32.34	0.3843	-0.2318	-0.1817	
-0.861686	0.559126	-0.081008	3.99	-10.15	30.8	0.3832	-0.2408	-0.179	
-0.847046	0.58133	-0.093208	2.66	-11.55	30.1	0.3732	-0.2463	-0.1776	
-0.852292	0.570594	-0.102724	0.7	-13.16	30.24	0.3704	-0.2511	-0.1884	
-0.854	0.587674	-0.083814	-1.05	-13.79	29.26	0.3765	-0.2542	-0.1824	
-0.864614	0.590968	-0.08662	-0.91	-14.63	27.72	0.3718	-0.2494	-0.1808	
-0.856318	0.613904	-0.080764	-6.3	-14.63	27.44	0.3559	-0.2537	-0.1961	
-0.844972	0.617564	-0.074176	-8.96	-15.61	26.11	0.3591	-0.2598	-0.1917	
-0.807518	0.634766	-0.039528	-9.66	-18.97	24.5	0.3638	-0.2678	-0.198	
-0.799954	0.617808	-0.045018	-14.28	-22.05	22.82	0.3478	-0.27	-0.195	
-0.801784	0.622566	-0.077104	-15.4	-23.17	21.21	0.3533	-0.2629	-0.2024	
-0.764208	0.635986	-0.056364	-12.81	-22.4	19.81	0.3404	-0.2684	-0.2041	
-0.742492	0.630862	-0.034892	-7.42	-22.12	19.95	0.3466	-0.2766	-0.2134	
-0.733952	0.61488	-0.122732	-13.02	-19.04	18.48	0.3419	-0.2704	-0.2178	
-0.762988	0.58987	-0.069174	-5.6	-14.77	19.04	0.3363	-0.2763	-0.2195	
-0.783606	0.584258	-0.047458	-7.42	-13.09	18.13	0.3305	-0.2791	-0.2211	
-0.779214	0.599874	-0.047092	-2.87	-13.72	18.76	0.339	-0.2719	-0.2224	
-0.773846	0.61915	-0.020618	-0.35	-12.04	19.74	0.3263	-0.2819	-0.2197	
-0.759572	0.621712	-0.024888	-0.56	-11.27	20.51	0.316	-0.2828	-0.2152	
-0.7381	0.65575	-0.004636	3.64	-10.64	21	0.3248	-0.282	-0.2242	
-0.729316	0.67405	0.008662	3.99	-10.78	20.65	0.3222	-0.2909	-0.2199	
-0.72468	0.69052	0.018666	3.64	-11.27	19.95	0.3045	-0.2872	-0.2259	
-0.718458	0.699548	0.019276	5.39	-10.57	18.48	0.3076	-0.292	-0.2291	
-0.716994	0.70211	0.02379	4.69	-9.94	16.87	0.3047	-0.2916	-0.2215	
-0.708942	0.706746	0.02501	4.83	-9.73	15.05	0.3078	-0.2966	-0.2292	
-0.709918	0.712724	0.028304	5.18	-9.17	13.44	0.3109	-0.2998	-0.2323	
-0.710162	0.71614	0.040138	3.71	-8.96	12.18	0.3066	-0.3027	-0.2339	
-0.713578	0.719556	0.040748	3.43	-8.33	10.29	0.3095	-0.3028	-0.2309	
-0.7015	0.717726	0.032574	3.15	-7.91	9.03	0.3087	-0.3165	-0.2343	
-0.690154	0.729316	0.033916	3.01	-6.65	8.75	0.2922	-0.3095	-0.2281	
-0.689544	0.736392	0.054046	3.92	-6.3	7.7	0.3094	-0.2998	-0.2338	
-0.688568	0.726388	0.042944	2.45	-6.16	6.37	0.3011	-0.3098	-0.2266	
-0.683932	0.7259	0.039772	2.87	-5.6	5.67	0.2965	-0.3052	-0.2295	
-0.677832	0.730292	0.04392	3.29	-4.83	4.9	0.2981	-0.3081	-0.2235	
-0.681126	0.729072	0.033062	2.94	-4.41	3.92	0.2922	-0.3081	-0.2326	
-0.686006	0.741272	0.040992	3.36	-4.62	3.29	0.2923	-0.3111	-0.2312	
-0.68503	0.743102	0.035502	1.96	-4.2	1.47	0.2927	-0.3203	-0.2345	
-0.686006	0.743956	0.033672	1.82	-3.01	0.35	0.2926	-0.3168	-0.2162	
-0.687958	0.742004	0.033672	1.4	-1.68	-1.47	0.2939	-0.3142	-0.2297	
-0.685762	0.745664	0.027572	-0.07	-1.89	-2.8	0.2999	-0.3158	-0.2237	
-0.681736	0.73627	0.02806	-0.49	-0.7	-4.34	0.2924	-0.3142	-0.2313	
-0.689544	0.731756	0.025254	0.14	0.21	-5.18	0.2939	-0.3143	-0.2328	
-0.699548	0.73566	0.016836	0.49	0.42	-6.16	0.2952	-0.3098	-0.2357	
-0.699182	0.729438	0.029402	0.91	0.7	-7.42	0.3	-0.3189	-0.2253	
-0.701622	0.720776	0.027816	0.14	1.12	-8.75	0.2967	-0.3098	-0.2311	
-0.70516	0.723216	0.02379	0	1.54	-9.38	0.2982	-0.3115	-0.2357	
-0.702476	0.725778	0.019886	0.07	2.03	-10.57	0.2967	-0.3111	-0.2251	
-0.707478	0.712358	0.024156	-0.14	2.66	-11.76	0.3037	-0.3041	-0.2325	
-0.716506	0.713578	0.023424	0.21	2.38	-12.6	0.3069	-0.3091	-0.2432	
-0.718214	0.712114	0.023546	0.14	2.17	-13.79	0.3008	-0.3037	-0.2249	
-0.718336	0.701134	0.020008	-0.7	2.8	-15.19	0.3125	-0.303	-0.2339	
-0.726876	0.697962	0.017324	0.63	2.87	-16.24	0.305	-0.2994	-0.2278	
-0.73078	0.695766	0.018666	0.35	2.73	-17.01	0.3085	-0.3135	-0.2373	
-0.73078	0.67893	0.014884	-4.41	2.59	-17.92	0.3021	-0.3007	-0.2248	
-0.736514	0.68991	0.019276	0.49	2.45	-18.83	0.3149	-0.2907	-0.2275	
-0.740418	0.682224	0.012688	-0.07	2.94	-19.88	0.3149	-0.2907	-0.2275	
-0.747128	0.671732	0.009028	-0.84	3.57	-20.93	0.312	-0.292	-0.2245	
-0.753594	0.65453	0.00915	-0.91	4.13	-21.35	0.3164	-0.291	-0.2336	
-0.754692	0.653554	0.007076	0.84	3.85	-21.21	0.3251	-0.2899	-0.2335	
-0.763598	0.651236	0.010492	1.68	4.06	-21.7	0.323	-0.276	-0.2316	
-0.778482	0.646844	0.011102	1.4	3.57	-22.33	0.3262	-0.2824	-0.2363	
-0.784338	0.647088	0.009393999	1.54	2.94	-22.61	0.3244	-0.2745	-0.2285	
-0.783118	0.638426	-0.001708	0.7	3.08	-23.1	0.3333	-0.2763	-0.224	
-0.783972	0.630618	0.000488	1.33	3.43	-23.24	0.341	-0.2843	-0.2273	
-0.795928	0.619882	0.001098	0.91	3.15	-23.59	0.3318	-0.2748	-0.227	
-0.802516	0.60207	-0.0061	0.28	2.87	-24.08	0.342	-0.2718	-0.2148	
-0.804346	0.601826	-0.001952	1.82	2.94	-24.5	0.3357	-0.2632	-0.2403	
-0.811178	0.605852	-0.007929999	1.12	3.01	-25.13	0.3417	-0.2662	-0.2298	
-0.823622	0.593164	-0.004758	-0.07	2.94	-25.48	0.34	-0.2612	-0.219	
-0.82228	0.57706	-0.012688	-0.63	3.08	-25.62	0.3472	-0.2584	-0.2129	
-0.827648	0.570594	-0.004758	0.7	3.64	-25.41	0.3516	-0.2587	-0.2174	
-0.836798	0.560346	-0.005734	0.07	4.06	-25.76	0.344	-0.251	-0.2263	
-0.837652	0.551928	0.003172	1.54	4.34	-25.9	0.3526	-0.2483	-0.2262	
-0.845826	0.540338	-0.009393999	-0.28	4.76	-26.04	0.3512	-0.2482	-0.2247	
-0.842898	0.542778	-0.014152	1.54	5.53	-26.88	0.3524	-0.2421	-0.22	
-0.845094	0.535336	-0.004514	-1.05	6.37	-27.3	0.3595	-0.2363	-0.2183	
-0.865712	0.529114	-0.00549	-0.14	6.65	-28	0.3653	-0.2351	-0.2228	
-0.866078	0.515938	0.002074	1.12	6.72	-28.35	0.3649	-0.2274	-0.218	
-0.884134	0.507276	-0.01098	-0.49	6.37	-28.77	0.372	-0.2217	-0.2208	
-0.892796	0.495076	-0.008905999	-1.33	6.3	-29.19	0.3678	-0.2262	-0.224	
-0.9028	0.490928	-0.008662	-0.7	5.39	-29.4	0.3689	-0.2168	-0.2147	
-0.913414	0.470798	-0.006954	-0.77	3.92	-30.03	0.376	-0.211	-0.2114	
-0.917562	0.465674	-0.019642	-1.47	2.73	-29.96	0.3776	-0.2158	-0.2176	
-0.915488	0.447496	-0.021106	-2.8	2.87	-30.73	0.3835	-0.2144	-0.2115	
-0.920612	0.440786	-0.023302	-2.24	2.38	-31.36	0.3746	-0.2128	-0.2236	
-0.91561	0.435784	-0.024034	-1.61	1.82	-31.78	0.3843	-0.2008	-0.2126	
-0.924028	0.423218	-0.023424	-4.55	1.61	-33.74	0.375	-0.1884	-0.2214	
-0.939278	0.415044	-0.036966	-2.66	1.47	-34.02	0.3836	-0.184	-0.2122	
-0.93879	0.402966	-0.022082	-3.57	1.12	-34.79	0.3839	-0.1901	-0.2138	
-0.945256	0.38552	-0.018422	-3.99	0.07	-35.56	0.4009	-0.1775	-0.224	
-0.948062	0.364414	-0.014152	-4.06	-0.98	-36.75	0.3875	-0.1737	-0.2164	
-0.952332	0.35624	-0.033306	-2.8	-3.43	-36.82	0.392	-0.1755	-0.221	
-0.949648	0.342088	-0.032086	-1.33	-3.36	-38.01	0.3931	-0.1678	-0.2162	
-0.946598	0.326716	-0.038308	-4.2	-2.66	-38.22	0.3973	-0.1635	-0.2191	
-0.953674	0.344528	-0.024156	0.56	-1.68	-37.59	0.3997	-0.1516	-0.2218	
-0.941718	0.32635	-0.028182	-4.41	-0.42	-37.45	0.3949	-0.1409	-0.2275	
-0.950502	0.333548	-0.023912	-3.92	1.89	-37.38	0.4036	-0.1394	-0.2169	
-0.956724	0.305244	-0.019398	-5.18	2.31	-36.68	0.4091	-0.1309	-0.2272	
-0.96563	0.283528	-0.017812	-6.23	2.31	-35.56	0.4004	-0.1335	-0.2258	
-0.975756	0.275842	-0.024888	-9.1	1.33	-35.49	0.4042	-0.1183	-0.2193	
-0.98515	0.275964	-0.016958	-8.4	1.82	-34.86	0.4052	-0.1091	-0.2145	
-0.977098	0.251076	-0.023302	-8.54	2.24	-35.14	0.4114	-0.1169	-0.2117	
-0.994666	0.263154	0.001464	-4.34	2.38	-35.63	0.4108	-0.1018	-0.2188	
-0.988444	0.221674	-0.019154	-11.41	0.84	-34.93	0.4104	-0.094	-0.2125	
-0.998814	0.207522	-0.02074	-3.85	1.96	-35.28	0.412	-0.097	-0.2081	
-0.99857	0.191662	-0.0061	-7.28	0.7	-35.07	0.4178	-0.0947	-0.2231	
-0.987956	0.207156	-0.024766	-9.17	0.63	-37.1	0.4132	-0.0913	-0.2185	
-0.99674	0.185562	0.001342	-8.61	2.52	-38.43	0.417	-0.0779	-0.2211	
-0.992592	0.15372	-0.012078	-7.28	3.36	-39.06	0.4153	-0.0717	-0.2209	
-0.999912	0.166164	-0.005246	-12.53	1.75	-41.23	0.4103	-0.0574	-0.2084	
-0.993568	0.148962	-0.015982	-17.08	1.82	-41.72	0.4074	-0.059	-0.216	
-1.003938	0.126758	-0.022082	-11.83	2.52	-41.93	0.4129	-0.0503	-0.2188	
-1.003084	0.095892	-0.018544	0.49	7.35	-41.58	0.4154	-0.0414	-0.2231	
-1.025654	0.09028	-0.012078	-1.26	6.65	-40.95	0.4123	-0.0365	-0.2169	
-1.03517	0.021228	-0.003172	-8.26	6.51	-40.04	0.4167	-0.0351	-0.2153	
-1.018944	0.04941	-0.038308	3.22	7.56	-41.86	0.4088	-0.0226	-0.2165	
-1.013698	0.058438	-0.01281	0.91	6.65	-39.9	0.4133	-0.0259	-0.2181	
-1.025044	0.063684	-0.018666	1.68	7.42	-40.53	0.4125	-0.0077	-0.2206	
-1.024434	0.047946	-0.00976	3.15	7.91	-41.37	0.4125	-0.0077	-0.2191	
-1.026264	0.037332	-0.006588	4.55	7.14	-41.58	0.421	-0.0002	-0.2082	
-1.042246	0.010492	-0.003294	-5.32	3.99	-40.81	0.4227	-0.0052	-0.2205	
-1.034438	-0.014884	-0.017324	-5.88	2.87	-40.11	0.4163	0.0074	-0.2126	
-1.023946	-0.020862	-0.011834	-9.31	1.33	-40.46	0.414	0.0243	-0.2091	
-1.008452	-0.026474	-0.014396	-8.47	3.78	-41.09	0.416	0.0136	-0.2109	
-1.00528	-0.036966	-0.026352	-4.48	3.99	-41.44	0.4169	0.0258	-0.206	
-1.000034	-0.050508	-0.028914	1.4	3.71	-41.09	0.4046	0.0386	-0.2041	
-1.010526	-0.08113	-0.034282	0.63	3.92	-39.62	0.4132	0.0427	-0.207	
-1.023824	-0.124196	-0.032086	0.14	3.57	-37.8	0.4116	0.0458	-0.2054	
-1.023336	-0.130784	-0.042822	-1.12	1.54	-36.89	0.402	0.0657	-0.2154	
-1.011136	-0.132248	-0.048434	3.5	2.8	-35.91	0.4141	0.0579	-0.2035	
-1.010648	-0.120658	-0.035746	6.58	4.13	-35.42	0.409	0.0717	-0.2092	
-1.00589	-0.126636	-0.036478	3.64	1.89	-32.97	0.4131	0.0795	-0.1953	
-1.00772	-0.15006	-0.02867	4.97	2.45	-32.69	0.4086	0.0828	-0.1937	
-0.99735	-0.164456	-0.03721	3.22	2.45	-32.55	0.4096	0.0914	-0.2101	
-0.992592	-0.167506	-0.034282	3.78	3.29	-32.76	0.4085	0.0841	-0.2013	
-0.991494	-0.16958	-0.045506	2.94	5.11	-32.83	0.4082	0.0901	-0.2026	
-0.99186	-0.184342	-0.02867	-0.91	3.08	-31.22	0.4039	0.08899999	-0.1951	
-0.984662	-0.195078	-0.026474	-2.8	2.24	-32.13	0.4066	0.0948	-0.201	
-0.962824	-0.184952	-0.056364	-2.45	1.54	-31.57	0.4032	0.1042	-0.1961	
-0.98027	-0.198372	-0.032208	-2.94	2.59	-31.57	0.3902	0.1002	-0.1993	
-0.967704	-0.211792	-0.060756	-5.25	3.22	-30.38	0.4002	0.1073	-0.1991	
-0.955382	-0.225822	-0.025864	-5.46	4.2	-29.54	0.3996	0.1209	-0.2032	
-0.975146	-0.2318	-0.048556	-10.78	2.8	-29.68	0.3954	0.1152	-0.1958	
-0.973194	-0.250954	-0.050508	-12.46	3.85	-28.98	0.3937	0.1213	-0.1987	
-0.98637	-0.257542	-0.028792	-10.29	2.8	-28.28	0.3961	0.1332	-0.2029	
-1.007964	-0.277916	-0.04575	-13.16	4.06	-27.44	0.3887	0.1352	-0.1983	
-0.99674	-0.299632	-0.057218	-10.78	4.48	-25.62	0.3868	0.1449	-0.1814	
-0.987102	-0.303292	-0.059536	-7.7	3.64	-23.45	0.3852	0.1478	-0.1889	
-0.973072	-0.30805	-0.07442	-8.4	2.17	-22.33	0.3911	0.1461	-0.1859	
-0.968558	-0.328302	-0.07381	-7.35	2.31	-20.37	0.388	0.1508	-0.1857	
-0.96929	-0.342698	-0.071736	-9.1	1.47	-19.25	0.3801	0.1631	-0.1945	
-0.96929	-0.349896	-0.070394	-6.79	1.12	-18.27	0.3742	0.1652	-0.1853	
-0.956724	-0.371124	-0.077836	-6.93	-0.21	-17.08	0.377	0.1667	-0.1792	
-0.94123	-0.372588	-0.081862	-7.35	-2.1	-16.45	0.3814	0.1675	-0.1974	
-0.93818	-0.378688	-0.060146	-8.61	-3.71	-15.89	0.389	0.1616	-0.1809	
-0.927932	-0.38247	-0.062586	-9.17	-5.18	-16.87	0.374	0.1693	-0.2004	
-0.920368	-0.383568	-0.075396	-7.7	-5.32	-18.69	0.3869	0.1752	-0.1865	
-0.921466	-0.402356	-0.094306	-6.23	-5.11	-19.6	0.372	0.1821	-0.1818	
-0.937326	-0.416386	-0.097844	-3.64	-4.27	-20.02	0.3706	0.179	-0.1849	
-0.939888	-0.415776	-0.080032	-4.97	-4.41	-20.02	0.3631	0.1837	-0.1909	
-0.945622	-0.40077	-0.06649	-5.46	-5.18	-20.16	0.366	0.1837	-0.1878	
-0.930982	-0.393938	-0.083326	-5.46	-6.16	-20.16	0.3659	0.185	-0.1939	
-0.930738	-0.407602	-0.08723	-4.69	-5.32	-19.53	0.3579	0.202	-0.1964	
-0.925492	-0.404552	-0.07381	-4.83	-2.94	-18.41	0.3566	0.1976	-0.1935	
-0.92537	-0.40931	-0.064172	-6.23	-2.52	-17.92	0.3623	0.2003	-0.198	
-0.920978	-0.393816	-0.05856	-5.88	-3.78	-17.71	0.3567	0.1944	-0.2012	
-0.936716	-0.40687	-0.057706	-5.95	-4.27	-16.52	0.3649	0.2095	-0.1901	
-0.932812	-0.42761	-0.06527	-6.37	-4.06	-15.82	0.3548	0.2055	-0.1872	
-0.930982	-0.438834	-0.051484	-7.21	-4.2	-15.54	0.3575	0.21	-0.1841	
-0.92659	-0.43554	-0.052094	-5.6	-4.9	-14.42	0.3545	0.2131	-0.187	
-0.923784	-0.438468	-0.071736	-4.34	-5.18	-13.51	0.356	0.2112	-0.1977	
-0.912438	-0.46177	-0.074542	-3.08	-4.69	-12.53	0.3452	0.2223	-0.1989	
-0.912072	-0.452864	-0.060756	-2.45	-4.9	-11.76	0.3486	0.2133	-0.1885	
-0.90768	-0.44896	-0.056974	-1.54	-4.48	-11.27	0.3452	0.2225	-0.1928	
-0.907558	-0.468114	-0.051972	-0.91	-4.9	-9.8	0.3424	0.2195	-0.1944	
-0.897188	-0.465918	-0.055388	-0.77	-5.18	-8.61	0.3394	0.2229	-0.1868	
-0.883036	-0.466772	-0.06527	-0.14	-4.2	-7.98	0.339	0.2303	-0.1956	
-0.877058	-0.483852	-0.07808	-0.21	-3.08	-7.7	0.3438	0.2209	-0.1959	
-0.883524	-0.480802	-0.07503	-0.84	-2.17	-7.35	0.3363	0.2257	-0.2003	
-0.883158	-0.483242	-0.064904	-1.82	-1.26	-6.02	0.3317	0.2291	-0.1957	
-0.892308	-0.481534	-0.062464	-0.84	-1.4	-5.25	0.3421	0.2272	-0.1912	
-0.901092	-0.475678	-0.048922	0.84	-1.05	-4.27	0.3422	0.2257	-0.1927	
-0.901092	-0.479338	-0.037942	0.28	-0.91	-3.57	0.342	0.2302	-0.1926	
-0.902556	-0.488732	-0.053436	0.14	-0.7	-3.5	0.3446	0.2379	-0.1848	
-0.89792	-0.500566	-0.044774	1.26	-1.54	-1.4	0.3378	0.2246	-0.1852	
-0.8845	-0.503372	-0.056486	3.85	-2.66	-0.21	0.3343	0.2381	-0.1954	
-0.888038	-0.50325	-0.051972	3.29	-2.87	0.7	0.3376	0.229	-0.1911	
-0.895602	-0.48739	-0.039284	3.85	-2.87	1.26	0.3376	0.229	-0.1896	
-0.894138	-0.486536	-0.040382	2.87	-3.5	2.03	0.3464	0.23	-0.1941	
-0.885476	-0.487024	-0.05185	3.01	-3.57	2.59	0.3394	0.2211	-0.1959	
-0.884256	-0.489586	-0.043554	1.89	-2.8	3.08	0.3273	0.2292	-0.1972	
-0.888526	-0.484706	-0.040138	1.54	-2.31	3.64	0.3379	0.2228	-0.1943	
-0.888282	-0.48312	-0.0366	1.68	-2.31	5.11	0.3379	0.2228	-0.1943	
-0.8845	-0.483486	-0.039284	2.38	-2.17	6.44	0.3477	0.2327	-0.2031	
-0.891088	-0.47702	-0.031598	2.59	-2.31	6.86	0.3408	0.224	-0.2004	
-0.895968	-0.48312	-0.028548	1.47	-1.4	7.42	0.3378	0.2244	-0.1913	
-0.903044	-0.486658	-0.032574	1.75	-2.17	8.19	0.345	0.2283	-0.2032	
-0.912926	-0.48251	-0.02806	2.17	-3.22	10.29	0.3526	0.222	-0.1974	
-0.880108	-0.453108	-0.02684	3.57	-3.36	11.27	0.3379	0.2225	-0.2034	
-0.89304	-0.456158	-0.034648	1.68	-4.06	12.32	0.3484	0.2176	-0.1975	
-0.897554	-0.444324	-0.040992	1.4	-3.43	13.65	0.3392	0.227	-0.2048	
-0.908168	-0.442372	-0.02989	1.82	-2.59	14	0.341	0.2193	-0.205	
-0.91622	-0.434076	-0.024156	1.33	-3.01	15.47	0.3425	0.2179	-0.199	
-0.912682	-0.428952	-0.027572	0.56	-1.82	16.59	0.3575	0.2095	-0.2023	
-0.917074	-0.42883	-0.022692	-0.42	-1.05	17.99	0.3518	0.207	-0.1933	
-0.918416	-0.429196	-0.021594	-1.12	-1.05	19.32	0.3488	0.2083	-0.2053	
-0.920734	-0.427732	-0.023668	-1.82	-0.35	20.3	0.3517	0.2084	-0.1978	
-0.931958	-0.423218	-0.027938	-1.33	-0.07	21.35	0.3435	0.1954	-0.1876	
-0.921222	-0.424926	-0.033794	-0.14	-0.28	22.54	0.3625	0.1972	-0.1981	
-0.92354	-0.416752	-0.021716	0.07	-1.19	23.52	0.367	0.1938	-0.2042	
-0.933666	-0.400282	-0.034526	-2.31	-2.24	25.55	0.3583	0.1912	-0.2028	
-0.930372	-0.404186	-0.037942	2.66	-1.68	25.83	0.3611	0.1959	-0.1951	
-0.932202	-0.396622	-0.020496	3.01	-1.19	26.39	0.3557	0.1855	-0.1939	
-0.936106	-0.376492	-0.020374	2.52	-1.33	27.51	0.3583	0.1913	-0.1982	
-0.941962	-0.366	-0.03477	1.82	-0.63	28.42	0.3705	0.1813	-0.2091	
-0.931592	-0.360022	-0.043798	1.89	0.35	29.05	0.3665	0.1724	-0.2094	
-0.940742	-0.358802	-0.028792	1.19	0.91	29.54	0.3783	0.1706	-0.2003	
-0.952332	-0.334524	-0.033428	0.21	1.12	30.31	0.3714	0.1616	-0.2082	
-0.96319	-0.325252	-0.02806	0.84	1.54	31.43	0.3787	0.1613	-0.2067	
-0.96685	-0.319762	-0.0366	1.4	1.19	32.06	0.3862	0.1584	-0.1885	
-0.96929	-0.307562	-0.033306	2.31	1.75	32.62	0.3835	0.1521	-0.2024	
-0.974902	-0.297436	-0.03416	1.4	1.05	33.6	0.3794	0.1447	-0.2026	
-0.978196	-0.283284	-0.04148	0.91	0.28	34.16	0.3838	0.1461	-0.198	
-0.980148	-0.270718	-0.039162	2.31	0.42	34.93	0.3899	0.1413	-0.1981	
-0.989176	-0.255346	-0.042212	3.92	0.49	35.7	0.3886	0.1366	-0.2043	
-0.996496	-0.241316	-0.02623	3.92	0	36.47	0.3887	0.1335	-0.2059	
-1.000888	-0.221552	-0.02806	5.81	-0.21	37.1	0.3948	0.1287	-0.2061	
-0.996618	-0.21411	-0.027328	6.23	0.07	38.92	0.3836	0.1155	-0.2049	
-1.001498	-0.194956	-0.018422	6.3	0	39.2	0.3953	0.118	-0.2064	
-1.007964	-0.181658	-0.026962	5.67	-0.98	40.04	0.3927	0.109	-0.2066	
-1.006012	-0.154818	-0.021106	7.42	-0.07	39.76	0.402	0.098	-0.2024	
-1.00345	-0.131882	-0.029036	5.74	0.21	39.83	0.4023	0.0916	-0.2132	
-1.000888	-0.111508	-0.030622	5.88	-0.56	39.48	0.4069	0.0871	-0.2042	
-1.008208	-0.096624	-0.031598	3.71	0.63	38.36	0.4088	0.0779	-0.2045	
-1.006744	-0.07747	-0.028182	6.16	0.7	37.94	0.4029	0.078	-0.2121	
-1.014918	-0.059414	-0.02806	4.2	-1.33	38.29	0.4049	0.066	-0.2033	
-1.019188	-0.051362	-0.029524	2.94	-3.85	38.71	0.4051	0.0616	-0.1959	
-1.02236	-0.033062	-0.031232	1.47	-3.36	39.06	0.4169	0.0594	-0.2005	
-1.021262	-0.024034	-0.035258	-1.12	-2.52	39.83	0.4126	0.0564	-0.2066	
-1.018334	-0.009638	-0.032574	1.61	-1.68	39.27	0.4136	0.0336	-0.2058	
-1.024678	-0.003782	-0.022936	1.4	-1.96	38.92	0.4119	0.0396	-0.2101	
-1.022238	-0.00061	-0.027206	0.84	-2.45	38.22	0.4177	0.041	-0.2055	
-1.014552	0.021228	-0.023424	2.38	-2.1	38.5	0.4053	0.023	-0.2152	
-1.013088	0.028426	-0.034526	-2.87	-1.89	37.66	0.4208	0.0376	-0.2117	
-1.01504	0.04453	-0.02806	-3.22	-1.68	37.8	0.4173	0.0167	-0.2062	
-1.021262	0.045018	-0.010248	-2.87	-1.19	38.15	0.4214	0.0239	-0.2136	
-1.015772	0.057828	-0.020374	-1.4	-1.96	37.73	0.4253	0.0009	-0.2127	
-1.007354	0.079788	-0.02867	2.52	-2.73	37.24	0.4227	-0.0049	-0.2129	
-1.007232	0.0793	-0.029646	2.59	-1.19	36.75	0.4257	-0.0063	-0.2039	
-0.99979	0.08906	-0.027084	1.19	0	36.96	0.4172	-0.0136	-0.2056	
-1.007476	0.094794	-0.018788	-0.07	0.56	36.33	0.4173	-0.0169	-0.2148	
-1.01016	0.122488	-0.026474	-2.94	-0.56	36.4	0.4176	-0.0226	-0.2028	
-1.013698	0.114558	-0.012566	0.21	-0.35	35.63	0.4235	-0.0245	-0.2044	
-1.00589	0.141032	-0.008905999	3.08	0.21	34.3	0.4118	-0.0241	-0.209	
-0.991616	0.17812	-0.03294	0.07	-0.14	34.16	0.4268	-0.0323	-0.2077	
-1.00223	0.182756	-0.028548	2.73	1.68	32.55	0.4201	-0.0459	-0.2156	
-0.996862	0.176046	-0.031476	0.91	1.47	33.74	0.4276	-0.0505	-0.2036	
-0.995276	0.223016	-0.02135	4.34	1.47	32.55	0.4227	-0.0717	-0.2103	
-0.985516	0.236192	-0.03355	4.76	1.47	33.11	0.4291	-0.0523	-0.2097	
-0.987956	0.222528	-0.036356	4.55	2.24	33.18	0.4223	-0.064	-0.2056	
-0.998692	0.246196	-0.043432	4.48	2.17	32.41	0.4269	-0.0675	-0.2147	
-0.99003	0.22997	-0.028548	6.3	2.52	32.69	0.4155	-0.0744	-0.2104	
-0.99613	0.243634	-0.037454	10.5	3.43	32.62	0.4245	-0.0807	-0.203	
-0.993202	0.257786	-0.016958	10.43	5.81	30.03	0.4279	-0.0903	-0.2139	
-0.976976	0.280356	-0.00366	9.73	5.11	30.45	0.4165	-0.0972	-0.2065	
-0.96685	0.288774	-0.029646	3.57	3.36	31.43	0.4122	-0.1002	-0.2112	
-0.965142	0.26657	-0.02684	6.51	4.27	31.64	0.4241	-0.1046	-0.1901	
-0.981246	0.290604	-0.027206	3.5	3.5	29.75	0.4093	-0.1013	-0.2036	
-0.983808	0.298534	-0.03172	2.38	2.94	28.77	0.4164	-0.0953	-0.1944	
-0.971486	0.314394	-0.025498	3.43	3.01	27.37	0.4097	-0.1105	-0.2039	
-0.96075	0.33672	-0.02684	3.57	2.59	26.39	0.4139	-0.1057	-0.1916	
-0.96014	0.340624	-0.04575	3.85	2.31	26.6	0.4191	-0.1246	-0.2058	
-0.973682	0.33977	-0.039894	2.31	2.03	26.25	0.4179	-0.1289	-0.1984	
-0.966728	0.343674	-0.029646	5.25	1.75	25.83	0.4122	-0.1332	-0.1985	
-0.960506	0.35624	-0.031232	3.57	0.84	25.2	0.4122	-0.1332	-0.197	
-0.952698	0.367708	-0.04575	2.66	-0.21	25.48	0.4173	-0.1485	-0.1944	
-0.961116	0.367098	-0.057706	4.06	-0.98	27.02	0.4101	-0.1529	-0.1976	
-0.951722	0.373686	-0.05185	4.55	-1.61	27.44	0.4115	-0.1514	-0.1975	
-0.953674	0.386618	-0.04575	4.76	-2.17	27.72	0.4129	-0.1483	-0.1944	
-0.93696	0.395036	-0.043188	3.01	-2.24	27.09	0.4087	-0.1543	-0.1961	
-0.92415	0.401136	-0.054046	4.13	-3.08	26.11	0.4043	-0.1537	-0.184	
-0.914634	0.430294	-0.063196	5.53	-2.8	25.48	0.4072	-0.1542	-0.1946	
-0.913048	0.426878	-0.071004	7.7	-2.45	26.18	0.4017	-0.1616	-0.1963	
-0.92476	0.417118	-0.066124	4.34	-2.87	27.02	0.4094	-0.171	-0.1951	
-0.93269	0.415166	-0.056486	3.57	-3.01	26.95	0.4066	-0.1723	-0.1906	
-0.92598	0.430172	-0.04331	6.23	-3.57	26.6	0.4008	-0.1739	-0.2027	
-0.92171	0.446032	-0.047458	5.53	-4.76	26.81	0.3957	-0.1916	-0.1942	
-0.904996	0.468236	-0.063806	6.58	-4.83	27.09	0.4001	-0.1917	-0.1896	
-0.88999	0.47031	-0.057096	4.13	-3.99	27.58	0.3915	-0.1963	-0.2049	
-0.894748	0.464576	-0.052216	0.63	-3.64	26.95	0.3929	-0.1961	-0.1943	
-0.88938	0.480924	-0.058072	3.36	-4.06	26.25	0.3931	-0.1993	-0.202	
-0.89731	0.47397	-0.059536	1.33	-4.69	26.6	0.3816	-0.205	-0.2052	
-0.90402	0.488244	-0.045994	-2.45	-4.48	24.15	0.3865	-0.2173	-0.204	
-0.88633	0.506788	-0.04636	0.7	-5.46	24.29	0.3878	-0.2129	-0.2069	
-0.879498	0.499224	-0.05307	0.84	-5.46	24.5	0.385	-0.2155	-0.1964	
-0.870714	0.499956	-0.053192	2.03	-4.55	23.87	0.379	-0.2139	-0.2009	
-0.86559	0.521916	-0.046238	4.13	-5.04	24.78	0.3764	-0.2214	-0.2027	
-0.866322	0.535458	-0.033062	2.24	-5.53	23.73	0.375	-0.2229	-0.2042	
-0.857172	0.507764	-0.023668	1.26	-6.79	23.87	0.3765	-0.223	-0.2072	
-0.85888	0.533262	-0.048678	3.29	-8.47	23.52	0.3827	-0.2292	-0.2014	
-0.846314	0.548146	-0.061488	4.69	-8.47	23.24	0.3609	-0.236	-0.2077	
-0.840336	0.560102	-0.044408	4.34	-7.14	22.75	0.3699	-0.2391	-0.1956	
-0.845948	0.558272	-0.027694	2.17	-7.49	22.54	0.3537	-0.2372	-0.2062	
-0.851072	0.576328	-0.021228	4.76	-9.03	22.05	0.3655	-0.2409	-0.2108	
-0.839482	0.57096	-0.015738	3.71	-9.73	21.56	0.3674	-0.2482	-0.1974	
-0.817522	0.582794	-0.0244	1.75	-9.52	20.79	0.3583	-0.2434	-0.2033	
-0.80154	0.5917	-0.0244	3.5	-8.82	19.67	0.3542	-0.2494	-0.2065	
-0.795684	0.584258	-0.037576	2.31	-8.68	18.76	0.3589	-0.2571	-0.2052	
-0.796782	0.61366	-0.020984	5.32	-8.61	18.55	0.3547	-0.2601	-0.2099	
-0.790194	0.613172	-0.025254	3.36	-8.61	18.13	0.3429	-0.2596	-0.2099	
-0.80337	0.608902	-0.015128	3.71	-8.19	18.55	0.3432	-0.2656	-0.2086	
-0.786046	0.626958	-0.017934	6.37	-8.33	19.04	0.34	-0.2594	-0.2084	
-0.787266	0.626958	-0.010004	5.81	-8.4	18.76	0.3446	-0.2641	-0.207	
-0.781776	0.633668	-0.012932	4.55	-8.12	18.06	0.336	-0.2683	-0.2056	
-0.781288	0.643428	-0.01281	3.08	-8.68	18.62	0.3419	-0.2703	-0.2147	
-0.764696	0.645746	-0.014274	2.87	-7.7	18.2	0.3407	-0.2762	-0.2089	
-0.761036	0.645746	-0.008296	2.94	-6.51	17.64	0.3394	-0.2793	-0.2135	
-0.756644	0.64294	-0.011956	2.24	-7.42	18.48	0.3362	-0.2745	-0.2103	
-0.759084	0.644404	-0.022326	1.68	-6.51	17.15	0.335	-0.2807	-0.2166	
-0.744566	0.665998	-0.01098	3.43	-6.23	16.45	0.3319	-0.276	-0.2149	
-0.764574	0.673074	-0.017202	2.17	-7.28	16.52	0.3247	-0.2803	-0.2181	
-0.760426	0.67527	-0.008784	1.33	-5.74	15.68	0.3231	-0.2771	-0.2165	
-0.758596	0.680272	-0.006588	0.49	-5.67	15.26	0.3263	-0.2821	-0.2257	
-0.75396	0.683444	0.000122	1.26	-5.18	13.93	0.3206	-0.2876	-0.2153	
-0.742492	0.678686	-0.003904	-1.96	-5.39	12.74	0.3164	-0.292	-0.2169	
-0.742248	0.68808	0.005368	-0.49	-4.9	11.62	0.3139	-0.3011	-0.2202	
-0.737124	0.69235	0.00244	0.77	-5.18	9.8	0.3046	-0.2902	-0.2245	
-0.728584	0.696864	0.010492	1.89	-5.46	9.17	0.3181	-0.2967	-0.2186	
-0.726998	0.687592	0.007808	3.29	-6.02	8.75	0.3033	-0.2947	-0.2246	
-0.729438	0.692838	0.009272	5.04	-6.51	7.84	0.314	-0.3043	-0.2234	
-0.721874	0.689666	0.003416	4.76	-6.58	7.28	0.3062	-0.2931	-0.2185	
-0.730048	0.700402	0.008905999	5.88	-6.44	7	0.3079	-0.2995	-0.2247	
-0.729072	0.706746	0.005124	4.62	-6.23	6.3	0.3094	-0.2993	-0.2157	
-0.717848	0.709186	0.007442	4.13	-6.16	5.39	0.3082	-0.304	-0.2218	
-0.7137	0.71431	0.009028	3.15	-5.6	4.76	0.3051	-0.3008	-0.2218	
-0.703818	0.706502	0.002806	2.8	-5.67	4.41	0.3112	-0.3069	-0.2144	
-0.700768	0.71309	0.002196	3.29	-5.04	3.64	0.3051	-0.3009	-0.2248	
-0.702842	0.718214	0.006588	4.2	-4.13	2.52	0.3039	-0.3081	-0.2144	
-0.704916	0.710528	0.003294	2.17	-3.36	1.47	0.3081	-0.3025	-0.2248	
-0.706624	0.714066	0.004758	2.45	-2.45	1.12	0.301	-0.308	-0.2144	
-0.71065	0.709918	0.007686	1.26	-2.17	0.63	0.3037	-0.302	-0.2157	
-0.710772	0.708576	0.005978	0.21	-1.82	-0.35	0.3034	-0.2961	-0.2216	
-0.712358	0.715042	0.006344	0.63	-1.4	-1.26	0.2967	-0.3091	-0.2069	
-0.716384	0.718824	0.010492	-0.77	-1.26	-2.59	0.3049	-0.2961	-0.2186	
-0.718458	0.721142	0.012688	-1.05	-1.26	-4.2	0.308	-0.2991	-0.2111	
-0.721508	0.715042	0.014396	-0.91	-1.26	-4.69	0.3173	-0.3119	-0.2205	
-0.71431	0.696742	0.016348	-2.1	-1.12	-5.6	0.3055	-0.3113	-0.2175	
-0.718702	0.688202	0.01342	-3.01	-1.82	-6.3	0.3021	-0.2989	-0.2141	
-0.73017	0.698694	0.025132	1.05	-0.7	-7	0.3037	-0.3025	-0.2324	
-0.723948	0.689056	0.015616	-0.91	-0.14	-8.12	0.2989	-0.2929	-0.2215	
-0.726754	0.697352	0.021472	1.89	-0.14	-8.4	0.311	-0.3026	-0.2233	
-0.734806	0.696498	0.01586	0.84	0	-9.03	0.3053	-0.3054	-0.2249	
-0.73017	0.689178	0.013664	0.63	0.49	-9.73	0.303	-0.2869	-0.2183	
-0.734318	0.682956	0.01769	0.84	0.56	-10.36	0.3077	-0.2934	-0.2246	
-0.740174	0.687226	0.016714	1.4	0.84	-11.06	0.3178	-0.2908	-0.226	
-0.74359	0.687104	0.017324	1.05	0.98	-11.55	0.3123	-0.2981	-0.2247	
-0.745908	0.678198	0.0183	1.19	0.91	-12.18	0.3181	-0.2968	-0.2201	
-0.745542	0.668926	0.010614	1.26	1.12	-12.88	0.3162	-0.2875	-0.2183	
-0.74847	0.668804	0.008417999	1.61	1.82	-13.23	0.3029	-0.2853	-0.2168	
-0.750788	0.675026	0.008174	1.96	1.89	-13.44	0.3164	-0.2921	-0.2185	
-0.754448	0.668316	0.001464	0.35	1.82	-13.65	0.312	-0.2902	-0.2139	
-0.75945	0.668194	0.005856	1.47	2.1	-14.35	0.3222	-0.2909	-0.2199	
-0.771406	0.6527	-0.002806	-0.28	2.31	-15.26	0.3281	-0.2911	-0.2199	
-0.773846	0.651358	-0.00305	0	2.52	-15.4	0.3162	-0.2862	-0.2243	
-0.771772	0.653432	-0.00244	-0.07	2.52	-16.38	0.3275	-0.2758	-0.2149	
-0.777506	0.641842	-0.004636	-1.61	2.59	-17.15	0.3259	-0.2726	-0.2133	
-0.787754	0.637206	-0.008052	-1.61	3.08	-17.57	0.3292	-0.2821	-0.2212	
-0.787754	0.638426	0.002684	-0.77	2.87	-18.2	0.3319	-0.2777	-0.2241	
-0.78507	0.625616	0.001586	-2.94	2.73	-18.76	0.3392	-0.2749	-0.2194	
-0.792268	0.617442	-0.004392	-3.22	2.66	-19.67	0.3376	-0.2733	-0.2179	
-0.793854	0.614392	-0.003782	-2.94	2.66	-20.44	0.3328	-0.264	-0.2206	
-0.80459	0.61305	0.00305	-2.31	2.66	-20.86	0.3392	-0.2746	-0.2103	
-0.813862	0.6039	0.003904	-3.5	2.73	-21	0.3368	-0.2533	-0.2112	
-0.81008	0.608414	0.003172	-2.94	3.15	-21.91	0.344	-0.2522	-0.2157	
-0.805566	0.605364	-0.001464	-3.71	3.08	-22.12	0.3534	-0.2648	-0.2146	
-0.80947	0.595116	-0.000732	-4.27	3.22	-22.68	0.3498	-0.2511	-0.2217	
-0.824476	0.58133	-0.000732	-4.41	3.08	-23.52	0.3527	-0.2479	-0.211	
-0.838384	0.571204	-0.005002	-4.34	2.59	-24.15	0.3532	-0.2618	-0.219	
-0.83875	0.561444	-0.00183	-2.59	2.45	-24.22	0.3571	-0.2484	-0.2217	
-0.848388	0.558882	0.00305	-2.38	1.82	-24.78	0.3481	-0.2449	-0.2185	
-0.84668	0.547536	-0.003538	-4.83	1.05	-25.97	0.3496	-0.2467	-0.2262	
-0.851194	0.555222	-0.005368	-7.77	0.91	-26.81	0.3596	-0.2394	-0.2229	
-0.847412	0.533262	-0.00732	-10.15	0.42	-27.16	0.3665	-0.2288	-0.212	
-0.858514	0.541436	-0.00366	-4.06	1.19	-27.3	0.3647	-0.2213	-0.2178	
-0.860466	0.521306	0.000122	-8.89	1.68	-28.91	0.3621	-0.2307	-0.2302	
-0.863638	0.51911	0.00122	-5.11	1.68	-29.4	0.3659	-0.2169	-0.2222	
-0.878888	0.512644	0.011712	-6.65	0.7	-30.24	0.3718	-0.2175	-0.2313	
-0.881328	0.488732	-0.00122	-9.87	0.63	-31.36	0.3748	-0.2173	-0.2207	
-0.888648	0.49654	0.002806	-6.86	0.98	-31.43	0.3772	-0.2068	-0.2234	
-0.891332	0.483364	0.005124	-10.08	0.56	-32.27	0.3811	-0.1948	-0.22	
-0.909876	0.472506	0.007929999	-9.87	0.28	-33.25	0.3705	-0.1883	-0.2244	
-0.899994	0.442738	0.016592	-6.3	1.05	-33.53	0.3886	-0.1983	-0.2262	
-0.915244	0.449692	0.006954	-5.74	0	-35	0.3838	-0.1888	-0.2214	
-0.910608	0.421388	0.013786	-10.78	0	-35.56	0.3834	-0.1798	-0.2257	
-0.93086	0.414068	0.017812	-7.35	-0.07	-36.12	0.3804	-0.1779	-0.218	
-0.93391	0.390888	0.012322	-5.46	-1.19	-35.98	0.384	-0.1615	-0.2221	
-0.948794	0.375638	0.019886	-5.11	-2.38	-36.26	0.3929	-0.1637	-0.2327	
-0.953674	0.364658	0.018178	-4.2	-2.03	-36.12	0.3957	-0.159	-0.2205	
-0.963068	0.338672	0.011224	-2.94	-1.68	-36.61	0.3895	-0.1514	-0.2324	
-0.975024	0.330864	0.011346	-3.08	-1.68	-37.38	0.3967	-0.1501	-0.2293	
-0.958798	0.309514	0.0061	-1.54	-1.05	-36.89	0.3834	-0.1479	-0.2262	
-0.968924	0.301218	0.013298	0.35	-0.42	-37.45	0.3962	-0.1379	-0.2259	
-0.967094	0.289018	0.016226	1.4	1.68	-37.17	0.396	-0.1334	-0.2288	
-0.972096	0.282064	0.019642	1.47	2.38	-38.22	0.3985	-0.1244	-0.2286	
-0.97966	0.27938	-0.000244	4.76	3.99	-36.82	0.4076	-0.1309	-0.2287	
-0.974048	0.256932	0.003904	1.82	3.08	-37.45	0.4084	-0.1155	-0.2222	
-0.990518	0.259494	0.006588	5.6	3.78	-36.54	0.3994	-0.1106	-0.2251	
-0.986858	0.253882	0.009638	2.03	2.45	-36.68	0.4036	-0.1045	-0.2189	
-0.99247	0.255224	0.009638	1.05	2.45	-36.12	0.4033	-0.0988	-0.2293	
-0.987956	0.25315	-0.013664	-3.92	1.82	-36.26	0.4088	-0.0897	-0.223	
-0.98454	0.249246	0.007442	-3.01	3.85	-37.31	0.4086	-0.0851	-0.2213	
-0.984174	0.23851	0.008662	-4.27	3.43	-38.01	0.4025	-0.08199999	-0.2288	
-0.9882	0.22936	0.01159	-9.66	2.45	-39.69	0.4038	-0.0758	-0.2226	
-0.998936	0.204716	-0.00061	-6.65	1.82	-37.52	0.4106	-0.064	-0.2238	
-1.000278	0.20008	0.019642	-9.1	1.96	-38.64	0.4104	-0.0611	-0.2297	
-0.997106	0.185928	0.017324	-14.07	0.91	-38.29	0.4138	-0.0717	-0.2225	
-1.00833	0.152378	0.001464	-10.92	-0.77	-38.08	0.4074	-0.0594	-0.2267	
-1.006988	0.143594	0.001586	-9.03	0.7	-39.69	0.4086	-0.0517	-0.2234	
-1.005158	0.12505	0.00488	-4.48	2.17	-41.23	0.4143	-0.049	-0.2248	
-0.996496	0.077104	0.01037	-5.04	1.75	-41.02	0.4078	-0.0352	-0.232	
-0.991982	0.050142	0.013298	1.47	2.8	-41.37	0.416	-0.0218	-0.2271	
-1.002108	0.063928	-0.008174	2.66	2.66	-40.95	0.4146	-0.0217	-0.2255	
-1.012112	0.064904	0.010614	0	3.08	-38.99	0.4116	-0.02	-0.224	
-1.021506	0.051362	0.008662	-3.64	2.24	-37.59	0.413	-0.0202	-0.23	
-1.015528	0.001952	0.003416	-4.62	2.52	-34.79	0.4233	-0.0189	-0.2224	
-1.01626	-0.011712	0.01891	-4.48	3.5	-33.95	0.408	-0.0045	-0.222	
-1.02419	0.023424	0.009028	-2.52	2.8	-33.18	0.4093	-0.0013	-0.2144	
-1.031998	0.003782	0.03355	-6.93	3.01	-31.36	0.4055	0.0182	-0.2259	
-1.032608	-0.016226	0.024888	-2.73	3.78	-31.78	0.4084	0.0196	-0.2228	
-1.022726	-0.03721	0.014396	-3.01	2.66	-30.17	0.4086	0.0134	-0.2291	
-1.007842	-0.037576	0.026596	2.73	2.66	-29.61	0.4126	0.0226	-0.2182	
-1.001986	-0.064782	0.021228	1.19	2.45	-27.3	0.4036	0.0276	-0.2166	
-1.00955	-0.076616	0.014762	0.77	2.31	-27.65	0.4108	0.0303	-0.2195	
-0.999668	-0.068808	0.012444	1.4	1.75	-28.21	0.4032	0.0381	-0.2223	
-1.014186	-0.07905599	0.013054	3.22	1.47	-28.7	0.4032	0.0369	-0.2133	
-1.006378	-0.074908	0.022082	-1.75	1.47	-28.49	0.412	0.038	-0.2147	
-0.999058	-0.071736	-0.00366	-2.03	0.84	-28.35	0.4086	0.0471	-0.2175	
-0.996984	-0.095648	0.000366	-0.91	3.22	-27.09	0.4039	0.0551	-0.2142	
-1.000156	-0.102358	0.000366	-0.14	3.29	-27.02	0.4007	0.0593	-0.2293	
-1.015284	-0.1281	0.004514	-5.46	3.5	-27.02	0.4034	0.0657	-0.2139	
-1.003206	-0.1281	-0.003538	-1.19	4.06	-27.93	0.4021	0.0623	-0.2277	
-1.004182	-0.142008	-0.010004	-5.88	3.36	-27.37	0.4016	0.0737	-0.2031	
-1.009916	-0.150304	-0.005734	-6.86	3.78	-26.81	0.4058	0.07889999	-0.2287	
-1.008086	-0.141276	0.001098	-9.38	3.85	-26.74	0.4046	0.072	-0.2062	
-1.011014	-0.169702	-0.011224	-11.06	4.69	-26.18	0.4016	0.0736	-0.2061	
-1.012112	-0.179706	0.005734	-10.01	4.06	-25.62	0.4009	0.0901	-0.2147	
-1.003938	-0.184586	0.002928	-4.97	5.18	-25.2	0.408	0.0945	-0.2085	
-1.002352	-0.208498	-0.021472	-11.27	3.85	-23.38	0.402	0.0977	-0.213	
-0.989664	-0.214354	-0.015494	-4.55	5.81	-24.15	0.396	0.101	-0.2159	
-0.989908	-0.213988	-0.020984	-3.64	5.25	-23.73	0.4047	0.1038	-0.2083	
-0.99674	-0.214354	-0.021228	-3.01	5.39	-23.52	0.3971	0.1087	-0.2097	
-0.989298	-0.223626	-0.012566	-3.22	5.18	-23.03	0.4012	0.1177	-0.2064	
-0.989908	-0.25193	-0.024034	-2.94	4.83	-21.21	0.4014	0.1117	-0.205	
-0.972706	-0.25193	-0.017446	-1.26	4.97	-21	0.3893	0.1199	-0.2033	
-0.97051	-0.248636	-0.023668	-1.61	5.32	-22.19	0.3907	0.1228	-0.2032	
-0.975878	-0.247538	-0.0305	-2.45	5.6	-23.03	0.3925	0.1151	-0.2049	
-0.967094	-0.25132	-0.022082	-2.45	6.09	-23.17	0.3907	0.1229	-0.2002	
-0.970632	-0.264252	-0.031842	-5.32	6.3	-23.24	0.3929	0.1378	-0.2073	
-0.98149	-0.287676	-0.02928	-6.23	6.16	-22.61	0.3914	0.1393	-0.2103	
-0.97417	-0.286334	-0.03355	-5.18	6.23	-23.59	0.3886	0.1368	-0.1983	
-0.975878	-0.285602	-0.033184	-5.39	6.79	-22.89	0.3839	0.1431	-0.1966	
-0.975268	-0.282064	-0.02623	-6.72	3.71	-19.81	0.3821	0.1507	-0.1994	
-0.981978	-0.299876	-0.038674	-5.18	7.35	-20.23	0.3883	0.1445	-0.1935	
-0.977952	-0.295606	-0.033184	-3.71	6.37	-20.23	0.3808	0.1462	-0.198	
-0.972462	-0.298534	-0.051606	-1.61	6.93	-19.88	0.3808	0.1478	-0.1964	
-0.958066	-0.326716	-0.07869	-1.89	5.88	-18.97	0.3833	0.157	-0.1901	
-0.963312	-0.346968	-0.067954	0.56	6.02	-17.36	0.3923	0.1535	-0.1917	
-0.959286	-0.333548	-0.060634	2.03	5.53	-16.45	0.3788	0.1588	-0.1885	
-0.953308	-0.34404	-0.091744	0.07	4.55	-15.61	0.3756	0.1665	-0.1883	
-0.951234	-0.350262	-0.072102	1.75	4.34	-14.49	0.3803	0.1586	-0.1931	
-0.955626	-0.353312	-0.066734	-0.56	4.83	-14.49	0.3815	0.1662	-0.1914	
-0.948184	-0.336232	-0.068808	-2.1	3.78	-14.84	0.3845	0.1644	-0.1959	
-0.937326	-0.362584	-0.052582	-4.34	2.94	-13.3	0.3769	0.1691	-0.2004	
-0.91866	-0.380396	-0.062098	-4.13	0.07	-12.95	0.3822	0.183	-0.1863	
-0.923174	-0.377956	-0.072224	-4.76	0.63	-15.19	0.3674	0.1853	-0.1833	
-0.928298	-0.383446	-0.086742	-5.95	2.24	-16.38	0.3763	0.1831	-0.1909	
-0.946598	-0.405528	-0.08295999	-7.21	3.92	-15.68	0.3631	0.1836	-0.1969	
-0.948794	-0.398818	-0.085522	-5.95	2.66	-15.19	0.3791	0.1863	-0.1817	
-0.940986	-0.403332	-0.076128	-8.33	-0.07	-12.6	0.3716	0.1913	-0.18	
-0.937082	-0.405528	-0.101748	-4.34	-0.07	-12.18	0.3715	0.1928	-0.18	
-0.927688	-0.412238	-0.09089	-2.52	0.49	-11.83	0.367	0.1959	-0.1829	
-0.921222	-0.418582	-0.083814	-3.15	0.84	-12.53	0.3629	0.187	-0.1847	
-0.930006	-0.421754	-0.090402	-4.62	0.7	-13.09	0.3686	0.1915	-0.177	
-0.935618	-0.421266	-0.08686399	-5.25	-0.7	-12.18	0.3611	0.1961	-0.1875	
-0.934764	-0.413824	-0.083936	-4.62	-1.75	-11.13	0.3622	0.2037	-0.1842	
-0.926224	-0.412848	-0.097722	-3.71	-3.01	-10.08	0.3623	0.2021	-0.1873	
-0.937692	-0.428708	-0.089548	-4.06	-3.08	-9.66	0.3697	0.2003	-0.1858	
-0.93513	-0.422242	-0.072956	-3.43	-3.01	-8.75	0.3608	0.2021	-0.1888	
-0.920612	-0.416874	-0.089182	-2.38	-3.78	-8.33	0.3605	0.2083	-0.1871	
-0.917074	-0.427366	-0.083692	-2.31	-4.2	-7	0.3564	0.2025	-0.1843	
-0.914512	-0.426878	-0.08357	-1.96	-4.34	-5.95	0.3504	0.2057	-0.1872	
-0.914878	-0.440298	-0.074054	-1.82	-4.41	-4.9	0.3537	0.1961	-0.1981	
-0.916342	-0.442372	-0.069296	-1.82	-4.69	-3.5	0.3561	0.2095	-0.2038	
-0.911096	-0.431636	-0.07869	0.21	-5.04	-2.38	0.3531	0.2116	-0.1901	
-0.914878	-0.441152	-0.077592	0.35	-4.62	-1.61	0.3535	0.201	-0.1859	
-0.922076	-0.446154	-0.067466	-0.49	-4.48	-0.98	0.3576	0.2082	-0.1947	
-0.919148	-0.443226	-0.065392	-0.07	-5.46	0.14	0.3633	0.2111	-0.1886	
-0.914878	-0.440298	-0.06954	0.7	-5.95	1.54	0.3621	0.2052	-0.1872	
-0.911218	-0.440786	-0.062952	0.42	-5.74	2.59	0.3605	0.208	-0.1962	
-0.91073	-0.450668	-0.064782	0.35	-5.32	2.94	0.3594	0.2006	-0.1919	
-0.906582	-0.44347	-0.051972	1.33	-6.09	3.71	0.3549	0.2037	-0.1979	
-0.904996	-0.443348	-0.064904	1.33	-5.88	5.11	0.3607	0.205	-0.1963	
-0.916586	-0.44713	-0.056364	2.31	-5.18	5.81	0.3543	0.2158	-0.1991	
-0.914146	-0.440542	-0.046604	2.1	-5.11	6.79	0.3591	0.2069	-0.1842	
-0.907314	-0.432246	-0.061366	3.22	-4.83	7.91	0.3617	0.214	-0.1976	
-0.913048	-0.435052	-0.045384	2.94	-4.76	8.47	0.3577	0.2051	-0.1963	
-0.924516	-0.424438	-0.034648	2.31	-4.9	9.45	0.3652	0.202	-0.1873	
-0.923418	-0.420778	-0.038918	1.75	-5.18	10.15	0.3611	0.1959	-0.1951	
-0.920612	-0.423096	-0.037088	1.82	-5.32	10.64	0.3651	0.2031	-0.2009	
-0.920856	-0.421144	-0.033306	1.89	-5.04	10.99	0.3573	0.1823	-0.197	
-0.921222	-0.41663	-0.034892	1.68	-4.76	11.62	0.3637	0.2018	-0.1949	
-0.91988	-0.41175	-0.03111	2.45	-4.62	12.25	0.3583	0.1928	-0.2012	
-0.929518	-0.405406	-0.026474	0.84	-5.25	13.58	0.3581	0.1975	-0.1965	
-0.927444	-0.396988	-0.031354	4.55	-4.06	13.3	0.3537	0.1958	-0.2072	
-0.931714	-0.393694	-0.031598	4.48	-3.43	13.86	0.3585	0.1879	-0.212	
-0.931958	-0.381372	-0.025376	3.78	-3.01	14.14	0.3629	0.1877	-0.212	
-0.935374	-0.373564	-0.027206	4.06	-2.38	14.98	0.3643	0.1892	-0.2104	
-0.944524	-0.372954	-0.030378	3.36	-2.31	15.89	0.3644	0.1863	-0.2059	
-0.945012	-0.371612	-0.033794	1.89	-1.68	16.31	0.3616	0.1832	-0.2106	
-0.942816	-0.362584	-0.025864	0.91	-1.82	17.01	0.3661	0.18	-0.2107	
-0.93818	-0.357338	-0.044164	0.14	-1.05	17.71	0.3651	0.1695	-0.2064	
-0.93635	-0.348066	-0.02745	0.77	0.07	18.34	0.3635	0.1729	-0.1973	
-0.94977	-0.34465	-0.010614	2.73	1.33	18.62	0.3637	0.168	-0.2065	
-0.958188	-0.35258	-0.025254	2.38	1.33	19.53	0.371	0.1708	-0.2064	
-0.956358	-0.340746	-0.049044	1.54	1.47	20.3	0.3745	0.1567	-0.2144	
-0.956114	-0.32452	-0.046604	0.7	0.98	19.88	0.3773	0.1598	-0.2067	
-0.961238	-0.313662	-0.030134	0.14	0.42	19.67	0.373	0.157	-0.2068	
-0.9699	-0.306464	-0.03172	-0.56	-0.28	19.67	0.373	0.1586	-0.2022	
-0.980758	-0.30317	-0.033428	-1.75	-1.26	19.81	0.382	0.1534	-0.2129	
-0.993446	-0.303658	-0.031598	-0.77	-1.26	19.88	0.3794	0.146	-0.2101	
-0.992226	-0.291092	-0.041114	-0.21	-1.75	19.6	0.3796	0.1414	-0.2103	
-0.97478	-0.286212	-0.062586	-0.07	-1.82	19.18	0.3826	0.1382	-0.2088	
-0.9699	-0.29036	-0.04819	-0.28	-0.35	19.6	0.381	0.1413	-0.2103	
-0.9638	-0.277916	-0.051362	0	0.14	19.39	0.3723	0.1404	-0.2042	
-0.970876	-0.266326	-0.041724	-0.21	-0.63	19.6	0.3857	0.1368	-0.2013	
-0.975512	-0.268522	-0.022814	-0.35	-0.56	20.16	0.3859	0.1305	-0.2075	
-0.976122	-0.250832	-0.028792	0.07	-1.05	20.02	0.3846	0.1276	-0.2076	
-0.987346	-0.24339	-0.011346	-0.7	-0.49	19.95	0.3876	0.1256	-0.2183	
-0.990884	-0.235704	-0.013298	-0.98	-0.56	19.88	0.3877	0.1243	-0.2092	
-0.992592	-0.235094	-0.016836	-1.19	-1.4	20.16	0.3865	0.1184	-0.2064	
-0.990884	-0.234728	-0.024522	-1.33	-1.82	20.51	0.3966	0.1209	-0.2093	
-0.99796	-0.221796	-0.01708	-1.54	-1.89	20.51	0.3927	0.1105	-0.2051	
-1.002718	-0.205692	-0.01586	-2.52	-2.45	21	0.3852	0.1121	-0.2141	
-0.996862	-0.198372	-0.031232	-2.59	-3.43	21.7	0.3924	0.1167	-0.2034	
-0.998936	-0.192882	-0.01037	-0.63	-3.43	22.68	0.4002	0.1053	-0.2158	
-0.998692	-0.181414	-0.01586	-0.84	-3.78	22.89	0.396	0.1011	-0.2114	
-1.009672	-0.166286	-0.016958	-1.26	-6.09	23.45	0.4023	0.0918	-0.2071	
-1.00406	-0.171776	-0.009393999	-0.42	-7.07	25.13	0.3994	0.0902	-0.2147	
-0.993446	-0.152988	-0.00427	-0.07	-6.23	26.11	0.3993	0.0916	-0.2177	
-0.997594	-0.144692	-0.002806	-0.91	-4.83	26.95	0.4012	0.08419999	-0.2104	
-1.000278	-0.12566	0.006344	-0.07	-4.69	26.6	0.3937	0.086	-0.2103	
-0.99369	-0.11773	-0.018422	-1.75	-7.77	26.04	0.4001	0.075	-0.2152	
-0.994056	-0.108092	-0.019398	-0.21	-4.34	27.09	0.4011	0.08549999	-0.2164	
-1.011136	-0.11895	0.00427	-1.61	-3.15	27.65	0.4044	0.0777	-0.2181	
-1.01443	-0.107726	0.007686	-0.91	-3.01	27.3	0.4064	0.0657	-0.2094	
-1.00772	-0.083082	0.007076	1.19	-2.17	27.44	0.3974	0.0687	-0.226	
-1.014796	-0.073444	0.001342	0.42	-1.33	27.72	0.4022	0.0612	-0.2141	
