Sensor string: E
Serial number: 1970-01-0000
Firmware version: 2.015
Hardware version: 2.2
Calibration quality: 5
ax	ay	az	gx	gy	gz	mx	my	mz

-0.86193	0.069052	0.505324	-0.21	-0.07	-0.35	0.2961	0.0778	-0.4342	Reference
-0.860832	0.066368	0.510326	0.28	-0.35	-0.21	0.2825	0.0712	-0.4401	
-0.869128	0.066978	0.504714	0.56	-0.42	-0.07	0.2946	0.0784	-0.456	
-0.86498	0.066002	0.506544	0.28	-0.28	-0.14	0.2996	0.0654	-0.451	
-0.869738	0.065758	0.505812	0	-0.14	-0.21	0.2978	0.0721	-0.4356	
-0.869128	0.066856	0.502884	-0.07	-0.28	-0.28	0.293	0.0763	-0.4279	
-0.865834	0.06893	0.503982	0.14	-0.42	-0.35	0.2945	0.0794	-0.4389	
-0.865834	0.068198	0.503128	0.28	-0.49	-0.42	0.2963	0.0691	-0.4292	
-0.86254	0.068686	0.506422	0.21	-0.56	-0.35	0.2944	0.0837	-0.4437	
-0.86681	0.067222	0.502884	0.14	-0.63	-0.21	0.3009	0.0692	-0.4371	
-0.867786	0.067954	0.50508	0	-0.63	-0.28	0.2993	0.0736	-0.4387	
-0.867176	0.068198	0.503616	0	-0.84	-0.21	0.2901	0.0693	-0.4292	
-0.868274	0.06832	0.501176	0	-1.05	-0.14	0.2994	0.0679	-0.437	
-0.868274	0.067588	0.500444	-0.07	-1.26	-0.07	0.3055	0.0737	-0.4497	
-0.866444	0.06771	0.50203	-0.07	-1.54	0.35	0.2946	0.0766	-0.4404	
-0.865224	0.068198	0.50264	-0.28	-2.1	0.49	0.2978	0.0737	-0.4403	
-0.870104	0.068076	0.499834	-0.7	-2.59	0.49	0.2992	0.0766	-0.445	
-0.86681	0.065026	0.502396	-0.84	-3.15	0.56	0.3069	0.0763	-0.442	
-0.869494	0.06649	0.49898	-1.61	-3.15	0.7	0.2993	0.0736	-0.4403	
-0.867176	0.064416	0.499834	-1.12	-4.06	0.56	0.2978	0.0709	-0.4418	
-0.86132	0.063928	0.501908	-0.98	-4.83	0.49	0.2948	0.0681	-0.4417	
-0.866566	0.066124	0.51118	-0.42	-5.6	0.21	0.2901	0.07099999	-0.4386	
-0.870714	0.066124	0.515572	-0.28	-5.81	0.21	0.2914	0.0839	-0.4483	
-0.85888	0.067222	0.525576	0.07	-5.67	0.35	0.2964	0.0682	-0.4479	
-0.850218	0.069052	0.529968	0	-4.9	0.42	0.2992	0.0765	-0.4419	
-0.847778	0.066978	0.532774	-0.28	-4.2	0.35	0.2885	0.077	-0.4512	
-0.848754	0.06649	0.533994	-0.21	-3.64	0.35	0.2947	0.07539999	-0.4497	
-0.850218	0.06954	0.526674	-0.21	-3.15	0.28	0.2886	0.0725	-0.4433	
-0.851682	0.067832	0.528504	-0.28	-2.73	0.28	0.3024	0.0735	-0.4372	
-0.85522	0.064904	0.531188	-0.21	-2.45	0.14	0.2764	0.0699	-0.4401	
-0.851926	0.07503	0.531432	-0.49	-2.03	-0.14	0.2885	0.077	-0.4528	
-0.84912	0.068686	0.531798	-0.63	-1.82	0.28	0.2838	0.0784	-0.445	
-0.846802	0.066734	0.535946	-0.42	-1.68	0.07	0.2904	0.0612	-0.4446	
-0.84363	0.06527	0.5368	-0.28	-1.75	-0.07	0.2886	0.074	-0.4449	
-0.84363	0.06466	0.539972	-0.28	-1.19	-0.42	0.2825	0.0698	-0.4416	
-0.842044	0.067954	0.538996	0	-0.91	-0.49	0.2855	0.0725	-0.4386	
-0.839482	0.06734399	0.539728	0	-0.56	0.07	0.29	0.0752	-0.4387	
-0.843996	0.066612	0.538508	-0.07	-0.42	0.21	0.2855	0.0741	-0.4465	
-0.847412	0.066124	0.53619	-0.07	-0.35	0.21	0.29	0.0769	-0.4481	
-0.847534	0.06832	0.531798	-0.49	-0.07	0.07	0.2822	0.0797	-0.4404	
-0.84851	0.069174	0.52826	-0.49	-0.21	0.14	0.3038	0.07759999	-0.4342	
-0.853512	0.067954	0.527284	-0.28	-0.49	0.42	0.2883	0.0809	-0.4389	
-0.8479	0.065026	0.531554	-0.07	-0.7	0.49	0.2811	0.0687	-0.451	
-0.8479	0.06832	0.532896	-0.07	-0.63	0.28	0.2884	0.0814	-0.456	
-0.84607	0.071004	0.528504	-0.42	-0.42	0.35	0.2868	0.0808	-0.4342	
-0.856806	0.07015	0.522526	-0.91	-0.49	0.56	0.2856	0.0698	-0.4448	
-0.86437	0.064172	0.51301	-0.56	-0.7	0.91	0.2838	0.0768	-0.4387	
-0.867054	0.06527	0.507276	-0.7	-1.33	0.56	0.2809	0.0742	-0.4449	
-0.866322	0.070028	0.50203	-0.63	-2.38	0.56	0.2825	0.073	-0.4526	
-0.876204	0.071004	0.495442	-0.98	-3.78	1.33	0.2807	0.0784	-0.4419	
-0.868884	0.06893	0.489098	-0.14	-6.09	1.19	0.2841	0.07	-0.4479	
-0.873398	0.064538	0.482266	0.28	-8.68	0.49	0.2763	0.073	-0.4479	
-0.871812	0.071004	0.47336	0.35	-11.48	-0.21	0.284	0.0728	-0.448	
-0.876692	0.06893	0.457134	0.35	-15.82	-0.35	0.2716	0.076	-0.4496	
-0.87779	0.064416	0.453108	0.7	-21.21	0.14	0.2806	0.0826	-0.442	
-0.88816	0.065514	0.455182	0.56	-27.51	0.42	0.2669	0.07889999	-0.4481	
-0.911096	0.0732	0.455914	-1.61	-33.95	0.84	0.2656	0.075	-0.4604	
-0.916708	0.061976	0.476044	-3.22	-40.39	1.54	0.2578	0.0763	-0.4479	
-0.903898	0.069906	0.49166	-6.44	-45.36	1.96	0.2594	0.0765	-0.4589	
-0.86681	0.072224	0.512766	-9.52	-49.49	3.36	0.2408	0.0796	-0.4495	
-0.853512	0.06954	0.543998	-11.06	-52.57	4.06	0.2394	0.0786	-0.4651	
-0.841434	0.069052	0.567666	-14.21	-55.86	3.22	0.2377	0.0844	-0.4699	
-0.813374	0.061244	0.592676	-16.8	-57.75	2.24	0.2254	0.08769999	-0.4762	
-0.811788	0.058438	0.60024	-18.9	-56.7	1.68	0.2148	0.084	-0.4853	
-0.80337	0.064294	0.593286	-19.95	-57.05	0.56	0.1993	0.0884	-0.476	
-0.746274	0.063074	0.61671	-19.81	-59.22	-0.21	0.2024	0.0917	-0.4948	
-0.719922	0.05063	0.629276	-17.99	-61.04	-0.77	0.1808	0.0919	-0.4823	
-0.70943	0.031598	0.633546	-15.4	-61.74	-1.75	0.1653	0.09959999	-0.4918	
-0.689788	0.02623	0.642696	-14.35	-62.72	-2.66	0.1607	0.1012	-0.4949	
-0.667706	0.020252	0.674172	-12.11	-63.28	-2.59	0.1483	0.103	-0.4996	
-0.674782	0.02196	0.692106	-10.64	-62.86	-2.17	0.1425	0.0932	-0.4977	
-0.673074	0.02196	0.717604	-10.08	-63.56	-1.75	0.1269	0.1022	-0.501	
-0.621468	0.020374	0.737368	-9.45	-63.77	-1.33	0.1208	0.0964	-0.4899	
-0.592188	0.020984	0.749446	-7.91	-61.39	-1.12	0.1083	0.107	-0.5042	
-0.58255	0.023424	0.757254	-7.77	-58.66	-1.4	0.0944	0.1116	-0.5042	
-0.558638	0.023302	0.772382	-7.14	-59.15	-3.01	0.0822	0.1093	-0.5134	
-0.540948	0.02013	0.785192	-6.86	-58.38	-4.27	0.0778	0.1021	-0.5054	
-0.538264	0.01342	0.795562	-7.07	-58.03	-5.04	0.0716	0.1023	-0.5054	
-0.508984	0.019764	0.8052	-8.68	-59.01	-5.67	0.0606	0.1123	-0.4994	
-0.489708	0.007442	0.801296	-8.47	-59.15	-4.83	0.0482	0.1185	-0.5073	
-0.476166	-0.000976	0.79544	-8.19	-59.36	-5.18	0.0238	0.1135	-0.5102	
-0.44774	-0.00732	0.824476	-8.12	-60.27	-5.32	0.016	0.118	-0.5118	
-0.431026	-0.0122	0.854976	-8.26	-60.48	-5.32	0.0101	0.108	-0.5021	
-0.407846	-0.007686	0.851316	-8.47	-61.18	-5.67	0.0035	0.124	-0.5119	
-0.38674	-0.00549	0.85766	-8.47	-61.74	-6.16	-0.008599999	0.1212	-0.504	
-0.363194	-0.020618	0.860344	-8.61	-63.35	-6.79	-0.0208	0.1174	-0.5085	
-0.315492	-0.030378	0.865468	-8.75	-65.1	-6.93	-0.0317	0.1201	-0.4929	
-0.276574	-0.031842	0.887672	-9.1	-65.45	-7.07	-0.0469	0.1194	-0.5069	
-0.245098	-0.038918	0.906582	-9.38	-65.24	-6.72	-0.0596	0.1321	-0.4931	
-0.214598	-0.048434	0.9272	-8.61	-64.82	-6.3	-0.0718	0.1285	-0.5039	
-0.184708	-0.055632	0.94672	-8.54	-64.33	-6.16	-0.0622	0.1156	-0.5067	
-0.161162	-0.061854	0.959286	-9.59	-64.05	-6.37	-0.0888	0.1298	-0.4851	
-0.127246	-0.056364	0.970388	-9.87	-63.21	-6.3	-0.0888	0.1314	-0.4914	
-0.099918	-0.061976	0.978318	-9.38	-62.23	-5.39	-0.1117	0.1293	-0.4959	
-0.080764	-0.079178	0.99064	-8.4	-60.62	-4.76	-0.1136	0.1391	-0.49	
-0.036234	-0.080398	1.019432	-7.56	-58.87	-5.46	-0.1287	0.1293	-0.4818	
-0.007929999	-0.08723	1.027484	-6.93	-55.79	-5.53	-0.1319	0.135	-0.4788	
0.013908	-0.0854	1.033828	-5.6	-51.52	-5.04	-0.1472	0.1325	-0.4771	
0.03416	-0.080154	1.030412	-5.32	-48.79	-4.06	-0.1519	0.1368	-0.4772	
0.065392	-0.080032	1.04554	-5.25	-45.78	-3.22	-0.1625	0.1283	-0.466	
0.073078	-0.078568	1.04188	-4.34	-41.23	-2.8	-0.1659	0.1398	-0.4695	
0.071858	-0.087352	1.041392	-4.41	-37.45	-3.08	-0.172	0.1354	-0.4584	
0.09552599	-0.082106	1.028582	-4.48	-35.14	-3.57	-0.1703	0.1327	-0.4646	
0.107116	-0.09211	1.041758	-4.34	-30.8	-3.92	-0.1843	0.1371	-0.4568	
0.092476	-0.092232	1.042612	-4.06	-26.88	-3.57	-0.1859	0.1385	-0.4553	
0.096136	-0.085156	1.009794	-3.64	-26.81	-3.5	-0.1888	0.1344	-0.4583	
0.124806	-0.090646	1.014674	-3.15	-25.62	-3.29	-0.1964	0.1334	-0.4644	
0.137128	-0.087474	1.026752	-1.33	-21.21	-2.66	-0.2073	0.1361	-0.452	
0.09699	-0.086498	1.014186	-1.96	-18.83	-2.59	-0.2087	0.1307	-0.4581	
0.121146	-0.092354	1.004548	-3.57	-20.51	-2.87	-0.2042	0.133	-0.4426	
0.141032	-0.099064	1.02114	-2.66	-18.83	-2.87	-0.2119	0.1316	-0.4378	
0.123586	-0.09516	1.011746	-1.12	-15.4	-2.31	-0.2135	0.1361	-0.4457	
0.110288	-0.089548	0.98088	-1.54	-15.75	-2.66	-0.2181	0.1377	-0.4473	
0.118462	-0.090402	0.974902	-1.47	-16.8	-3.22	-0.2275	0.1421	-0.4459	
0.11956	-0.090524	0.988932	-0.84	-15.47	-2.8	-0.2181	0.1349	-0.4472	
0.116876	-0.086986	1.001498	-0.14	-13.93	-2.17	-0.2198	0.1403	-0.4365	
0.103822	-0.08845	1.003816	0.35	-12.74	-1.54	-0.2225	0.1277	-0.4392	
0.099796	-0.077714	0.996008	-0.14	-13.72	-1.96	-0.2307	0.1463	-0.4382	
0.11407	-0.085766	1.000278	-0.63	-14.07	-2.94	-0.2229	0.1403	-0.4349	
0.126026	-0.087596	1.011136	-0.21	-11.48	-2.73	-0.2353	0.1448	-0.4319	
0.122	-0.093818	1.014308	-0.07	-8.05	-2.03	-0.2244	0.1401	-0.4271	
0.11529	-0.085522	1.005158	0.28	-5.95	-1.33	-0.2288	0.1336	-0.4425	
0.109312	-0.088206	0.999058	0.42	-4.62	-0.7	-0.2367	0.1391	-0.4286	
0.107848	-0.08113	0.9943	1.05	-3.43	-0.49	-0.2211	0.1316	-0.4269	
0.102358	-0.074176	0.98759	0.63	-2.38	-0.63	-0.2334	0.1335	-0.4347	
0.090646	-0.071614	0.983442	0	-2.17	-0.49	-0.2364	0.1308	-0.4361	
0.0915	-0.064172	0.975512	0.21	-2.52	-0.28	-0.2288	0.1304	-0.4284	
0.096136	-0.071858	0.981124	0.42	-1.82	0.07	-0.2334	0.1305	-0.4283	
0.102236	-0.076616	0.992226	0.49	-0.28	0.7	-0.2351	0.1375	-0.4223	
0.0976	-0.075884	0.983442	0.35	0.77	0.7	-0.2382	0.1362	-0.4269	
0.099308	-0.071858	0.984906	0.35	0.98	0.42	-0.2322	0.143	-0.4225	
0.102968	-0.079178	0.986736	-0.21	1.19	0.14	-0.2272	0.1288	-0.4252	
0.10553	-0.083448	0.991738	-0.35	1.96	0.28	-0.2289	0.1346	-0.4285	
0.098942	-0.082472	0.983442	-0.21	2.8	0.07	-0.2241	0.1274	-0.4267	
0.099796	-0.087352	0.97417	-0.42	2.66	0.14	-0.2304	0.1351	-0.4456	
0.10614	-0.082838	0.972828	0.14	2.59	0.63	-0.2335	0.1348	-0.4316	
0.110898	-0.08601	0.980026	0.56	3.29	0.63	-0.2379	0.1278	-0.4298	
0.109434	-0.08418	0.980514	0.84	4.06	0.35	-0.2273	0.1347	-0.4332	
0.10858	-0.08357	0.984418	1.05	4.27	0.63	-0.235	0.1334	-0.4284	
0.109556	-0.081496	0.990152	1.12	4.41	1.12	-0.2196	0.1331	-0.4332	
0.11712	-0.083082	1.00894	1.19	5.11	1.33	-0.2194	0.1246	-0.4329	
0.13115	-0.08418	1.026996	1.19	6.79	0.91	-0.229	0.1391	-0.4349	
0.137372	-0.086376	1.042002	1.19	9.1	0.77	-0.2304	0.1367	-0.4504	
0.14213	-0.09516	1.042368	0.35	11.41	0.35	-0.224	0.1248	-0.436	
0.149328	-0.098942	1.049322	-0.14	14	0	-0.2131	0.1217	-0.4375	
0.1647	-0.099186	1.053592	0.07	17.29	0.07	-0.2167	0.1404	-0.4427	
0.172874	-0.09821	1.059326	1.05	21.7	0.21	-0.221	0.1289	-0.4346	
0.17751	-0.08845	1.057618	1.96	26.32	0.56	-0.2136	0.1386	-0.4318	
0.17629	-0.091866	1.06079	2.1	30.52	1.19	-0.2072	0.1288	-0.444	
0.177876	-0.091256	1.066402	3.57	34.93	1.4	-0.215	0.1347	-0.4441	
0.169214	-0.076738	1.067744	4.48	39.41	0.98	-0.2027	0.1346	-0.4504	
0.15616	-0.073322	1.060668	4.76	44.1	0.7	-0.2059	0.1388	-0.4474	
0.150914	-0.080886	1.064084	4.48	48.3	1.26	-0.2009	0.1246	-0.4501	
0.146522	-0.085888	1.064572	5.67	53.34	2.31	-0.1793	0.126	-0.469	
0.123098	-0.08686399	1.061888	7.07	58.8	2.73	-0.1703	0.1326	-0.4599	
0.095282	-0.067588	1.052494	8.12	63.84	3.22	-0.1638	0.1184	-0.4642	
0.060878	-0.067832	1.03822	7.42	68.32	3.78	-0.1594	0.1269	-0.4676	
0.03294	-0.075518	1.037122	7.84	72.45	5.81	-0.1472	0.131	-0.474	
-0.004148	-0.059536	1.026386	8.54	76.44	6.3	-0.1257	0.1319	-0.4772	
-0.033672	-0.03843	1.01626	8.12	80.22	6.16	-0.1133	0.1289	-0.4803	
-0.06161	-0.041968	0.984906	7.21	83.65	6.51	-0.1073	0.1332	-0.4883	
-0.098088	-0.043432	0.955504	7.35	86.94	7.63	-0.0947	0.1248	-0.5037	
-0.129442	-0.036966	0.91866	9.17	90.16	8.47	-0.0794	0.1257	-0.4975	
-0.176168	-0.007564	0.904874	8.4	92.96	8.54	-0.0562	0.118	-0.4974	
-0.230092	-0.005368	0.880718	5.74	94.71	9.45	-0.0545	0.1135	-0.4879	
-0.282796	-0.028792	0.85522	4.13	96.04	10.43	-0.0331	0.119	-0.5022	
-0.332328	-0.036234	0.828258	5.81	96.25	11.06	-0.0193	0.1203	-0.5101	
-0.371612	-0.020984	0.790438	7.56	95.9	10.29	-0.0009999999	0.1225	-0.5041	
-0.410286	-0.004636	0.778116	7.84	95.06	9.24	0.0174	0.1222	-0.5119	
-0.45506	0.014152	0.765916	6.23	94.22	9.31	0.039	0.1187	-0.5073	
-0.490684	0.013786	0.763476	2.73	91.84	9.94	0.0498	0.1157	-0.5088	
-0.523502	0.00061	0.739198	1.75	89.53	10.78	0.0698	0.1137	-0.5088	
-0.553392	-0.019154	0.717116	4.83	87.15	12.39	0.0787	0.1247	-0.503	
-0.588894	-0.020374	0.70211	7.42	85.33	12.39	0.1006	0.1086	-0.5057	
-0.613904	0.002806	0.682224	7.91	83.3	10.85	0.1082	0.1097	-0.498	
-0.65026	0.02989	0.665388	4.62	80.43	8.26	0.1264	0.1221	-0.5047	
-0.68076	0.034648	0.634766	1.12	76.72	6.3	0.1575	0.1041	-0.4934	
-0.709064	0.024156	0.616588	0.21	73.43	6.58	0.1634	0.1123	-0.4906	
-0.72956	0.013298	0.609512	1.75	71.26	7.49	0.1742	0.1106	-0.489	
-0.763354	-0.010004	0.597312	3.99	68.11	8.47	0.1925	0.1158	-0.4877	
-0.782874	0.014518	0.587796	5.25	65.87	6.44	0.2064	0.1081	-0.4798	
-0.794952	0.023912	0.581086	5.18	61.95	3.43	0.2172	0.1079	-0.4829	
-0.790804	0.016958	0.57889	4.9	59.29	0.98	0.2186	0.109	-0.469	
-0.787632	0.01159	0.570838	4.69	58.24	-0.7	0.2401	0.11	-0.4738	
-0.798368	0.007564	0.550464	5.46	58.59	-1.4	0.2339	0.1142	-0.4692	
-0.803736	0.009393999	0.557784	6.44	59.43	-1.47	0.2541	0.1024	-0.4689	
-0.825208	0.018788	0.538874	5.39	60.76	-1.68	0.2601	0.1047	-0.455	
-0.836188	0.021594	0.523136	4.13	63	-2.17	0.2724	0.1056	-0.4458	
-0.853878	0.010858	0.501908	4.27	64.47	-3.15	0.2816	0.1039	-0.4458	
-0.877546	0.007076	0.469578	5.81	67.48	-3.15	0.2862	0.1007	-0.4348	
-0.873154	-0.000244	0.462746	7.21	70	-3.29	0.2953	0.1092	-0.4444	
-0.882792	0.000244	0.439566	8.96	72.17	-3.43	0.3201	0.0969	-0.4317	
-0.886086	0.002928	0.402722	8.54	73.43	-4.27	0.3215	0.1026	-0.4319	
-0.885476	0.00854	0.373564	9.03	74.06	-4.97	0.3324	0.0963	-0.4209	
-0.880352	0.022936	0.355386	8.89	73.71	-5.32	0.3383	0.1015	-0.4102	
-0.88938	0.038918	0.341234	6.51	73.22	-4.69	0.3538	0.0939	-0.4038	
-0.922442	0.043066	0.31232	5.67	70.7	-5.53	0.3646	0.0905	-0.3913	
-0.950624	0.044774	0.315492	3.01	67.83	-5.53	0.3596	0.1028	-0.3714	
-0.957212	0.02806	0.292312	1.75	66.22	-4.62	0.3873	0.0995	-0.3808	
-0.970632	0.034892	0.263764	2.17	63.49	-4.69	0.3875	0.0907	-0.3665	
-0.961604	0.033428	0.247416	-1.61	58.17	-4.62	0.3979	0.1031	-0.3638	
-0.963678	0.014152	0.244	-2.59	53.69	-4.06	0.4069	0.1083	-0.3578	
-0.951478	0.010492	0.256688	-2.45	52.43	-3.57	0.4119	0.0955	-0.3605	
-0.971974	-0.005002	0.233752	0.28	52.36	-1.82	0.4135	0.0924	-0.3495	
-0.990274	0.013908	0.212646	0.42	52.92	-1.4	0.4103	0.0936	-0.3402	
-0.996374	0.025864	0.185928	-0.63	54.25	-1.68	0.4239	0.1002	-0.3342	
-0.986126	0.019154	0.162382	-1.12	52.43	-3.08	0.4349	0.0916	-0.3387	
-0.983808	0.005002	0.141154	-0.63	54.88	-4.13	0.4483	0.1064	-0.3252	
-0.995398	0.004636	0.09162199	-2.52	58.38	-6.37	0.4437	0.1051	-0.3236	
-0.9943	0.008905999	0.033306	-2.24	60.27	-9.87	0.4423	0.0975	-0.3031	
-1.004426	0.01037	0.013542	-2.52	65.38	-11.06	0.4605	0.1026	-0.2987	
-1.008086	0.004026	-0.024888	-0.91	58.45	-15.05	0.4608	0.091	-0.289	
-1.010404	0.005124	-0.058926	-1.89	58.45	-13.02	0.4651	0.1004	-0.2737	
-0.9943	-0.006344	-0.072834	5.46	56.84	-9.59	0.471	0.1104	-0.2849	
-1.00772	-0.021228	-0.081984	12.25	55.44	-5.88	0.4755	0.1097	-0.26	
-0.975634	-0.027572	-0.09028	14.91	53.27	-5.04	0.4692	0.1138	-0.2508	
-1.033584	-0.024278	-0.11895	19.32	55.93	-6.44	0.4833	0.1006	-0.2458	
-1.017358	-0.012444	-0.134688	17.64	51.59	-5.53	0.4952	0.1144	-0.2431	
-1.07604	-0.027938	-0.14213	17.92	45.71	-5.18	0.4971	0.103	-0.2428	
-1.075064	-0.021838	-0.14274	20.37	37.66	-5.46	0.5062	0.1037	-0.2242	
-1.060424	-0.013664	-0.17202	19.67	37.1	-3.01	0.4952	0.111	-0.2228	
-1.053592	-0.015616	-0.176412	21.7	32.55	0.21	0.5047	0.1007	-0.2178	
-1.067378	-0.02379	-0.1525	22.96	26.53	3.64	0.5077	0.1022	-0.2226	
-1.026264	-0.038918	-0.152378	26.88	19.25	3.43	0.4971	0.0964	-0.2068	
-1.023702	-0.027572	-0.174948	28.98	18.62	4.41	0.5029	0.1091	-0.2134	
-1.032486	-0.012078	-0.161284	19.95	17.29	4.06	0.514	0.0942	-0.1959	
-1.035658	-0.00854	-0.177998	17.99	16.17	4.34	0.5078	0.096	-0.2037	
-1.000766	-0.009393999	-0.183122	17.36	16.1	4.48	0.5078	0.096	-0.2037	
-1.02663	-0.024156	-0.18239	13.86	14.77	3.71	0.5185	0.0985	-0.1992	
-1.014552	-0.019154	-0.187026	17.71	15.61	1.4	0.5125	0.0915	-0.1974	
-0.979294	-0.026108	-0.180072	14.56	11.76	-0.07	0.5218	0.0882	-0.188	
-1.01565	-0.03904	-0.20557	15.26	13.86	0	0.5204	0.0825	-0.1862	
-1.02236	-0.026474	-0.222284	18.62	16.1	0.28	0.5154	0.0953	-0.185	
-1.018456	-0.012444	-0.225822	15.05	13.86	-0.35	0.5172	0.0869	-0.1895	
-1.021872	-0.022326	-0.24583	16.24	12.32	-0.77	0.5141	0.087	-0.1894	
-1.031266	-0.016958	-0.211426	16.1	16.17	3.99	0.5312	0.0763	-0.1768	
-1.005158	-0.035624	-0.1769	14.98	8.82	2.8	0.5156	0.085	-0.1691	
-0.99552	-0.018056	-0.173484	12.81	9.03	0.21	0.5233	0.0862	-0.1708	
-0.982832	-0.013664	-0.169458	7.84	9.59	-0.63	0.5205	0.0782	-0.1861	
-0.970266	-0.023424	-0.169458	8.75	14.21	-2.66	0.525	0.0793	-0.1768	
-0.989786	-0.022448	-0.168238	15.4	17.43	-3.36	0.5282	0.0747	-0.1673	
-1.001376	-0.019886	-0.196908	10.85	16.45	0.35	0.5248	0.0848	-0.1707	
-0.995032	-0.030378	-0.222528	8.61	14	0.7	0.5279	0.0862	-0.1724	
-1.025776	-0.034526	-0.233386	9.38	13.58	-0.21	0.5217	0.0875	-0.1646	
-1.013332	-0.042822	-0.218746	11.13	8.68	-0.42	0.5235	0.07759999	-0.1643	
-1.012112	-0.039772	-0.207278	10.99	6.65	1.12	0.5281	0.0775	-0.1643	
-1.009916	-0.023058	-0.192638	9.59	6.51	2.1	0.528	0.0773	-0.1565	
-0.994666	-0.037454	-0.201666	5.53	4.76	2.45	0.5325	0.0813	-0.1551	
-1.000644	-0.045384	-0.2135	8.68	6.72	1.33	0.5325	0.0828	-0.1567	
-0.985028	-0.034648	-0.212158	11.55	7.63	2.03	0.5263	0.0858	-0.1583	
-0.997472	-0.039772	-0.224968	9.73	9.87	2.24	0.5372	0.08	-0.1613	
-0.982832	-0.034526	-0.230092	9.87	7.49	1.82	0.5295	0.0815	-0.1567	
-0.98759	-0.04209	-0.231068	9.1	8.26	1.05	0.5371	0.0827	-0.1567	
-0.995154	-0.032086	-0.23607	8.82	8.33	0.14	0.5266	0.0744	-0.1533	
-0.990762	-0.037088	-0.242536	6.3	7.56	1.12	0.536	0.0642	-0.1515	
-0.993324	-0.035258	-0.231922	7.14	6.3	0.84	0.5359	0.0729	-0.1611	
-0.966972	-0.037332	-0.228262	5.74	6.51	0.21	0.5279	0.0783	-0.1425	
-0.976488	-0.03233	-0.223504	3.5	8.05	0.49	0.5235	0.0712	-0.1376	
-1.007842	-0.048068	-0.26718	3.85	10.36	0.14	0.5248	0.0826	-0.1426	
-0.996984	-0.035136	-0.263276	3.92	8.61	0.84	0.539	0.0684	-0.1516	
-0.981734	-0.042456	-0.264374	4.62	7.14	1.61	0.5343	0.0711	-0.1423	
-0.996008	-0.036722	-0.276086	1.47	7.28	0.35	0.5357	0.0737	-0.1378	
-1.002474	-0.02928	-0.285236	-1.54	6.51	1.54	0.5343	0.0726	-0.1486	
-0.986736	-0.031842	-0.277062	-0.7	4.9	2.03	0.5297	0.0695	-0.1345	
-0.97966	-0.031842	-0.270596	0.77	4.2	1.19	0.5281	0.0741	-0.144	
-0.971608	-0.040138	-0.270108	-0.91	4.9	1.82	0.5357	0.0737	-0.1378	
-0.98454	-0.045018	-0.273402	0.56	7.07	1.47	0.5311	0.0739	-0.1409	
-0.992348	-0.034648	-0.285236	3.22	6.79	1.19	0.5435	0.0677	-0.133	
-0.994422	-0.038674	-0.293044	3.99	6.16	0.49	0.5343	0.0696	-0.1392	
-0.999668	-0.037332	-0.294508	2.94	5.81	0.63	0.542	0.0692	-0.1345	
-0.989664	-0.033672	-0.298046	1.05	4.83	1.19	0.5389	0.0663	-0.1267	
-0.989786	-0.028548	-0.292312	1.96	3.78	0.63	0.5421	0.0665	-0.1391	
-0.986004	-0.033794	-0.282918	1.89	2.66	0.35	0.5422	0.0621	-0.1328	
-0.980636	-0.02928	-0.282064	1.96	2.24	0.77	0.5326	0.072	-0.1237	
-0.981978	-0.028548	-0.289628	0.7	1.54	1.19	0.5358	0.0694	-0.133	
-0.990152	-0.038064	-0.295972	1.12	1.19	1.89	0.5357	0.0722	-0.1346	
-0.993324	-0.036478	-0.298046	1.89	0.77	3.22	0.5325	0.0778	-0.1301	
-0.992592	-0.033428	-0.300486	0.56	-1.12	3.57	0.5373	0.0676	-0.1236	
-0.99064	-0.0305	-0.296338	-0.28	-2.03	2.17	0.5343	0.0693	-0.1314	
-0.979294	-0.028304	-0.288774	-0.7	-3.01	2.31	0.5297	0.0665	-0.1282	
-0.982588	-0.032452	-0.290482	0.56	-1.82	3.64	0.5372	0.0764	-0.1332	
-0.985272	-0.030866	-0.29524	0.63	-2.24	3.36	0.5375	0.0653	-0.1422	
-0.984052	-0.026718	-0.29524	-0.07	-3.29	1.89	0.5455	0.0537	-0.1372	
-0.984418	-0.028304	-0.285602	0	-3.64	1.96	0.5313	0.0653	-0.1375	
-0.977952	-0.02989	-0.292312	1.82	-2.24	3.71	0.5404	0.0693	-0.1361	
-0.98698	-0.02928	-0.294752	2.87	-2.31	3.78	0.5346	0.0583	-0.1404	
-0.990152	-0.03294	-0.283528	1.61	-3.29	3.5	0.5314	0.0638	-0.1328	
-0.995886	-0.024034	-0.282674	0.28	-5.04	3.92	0.5423	0.0581	-0.142	
-0.98698	-0.027572	-0.276208	-1.05	-5.32	4.34	0.5331	0.0565	-0.1248	
-0.982344	-0.024156	-0.269742	-1.05	-5.04	3.99	0.5344	0.0635	-0.125	
-0.994178	-0.016958	-0.276574	-0.42	-4.41	3.92	0.533	0.0596	-0.1358	
-1.003206	-0.0244	-0.284748	-1.26	-5.88	4.13	0.5298	0.0638	-0.1296	
-0.990518	-0.026962	-0.28121	-0.14	-7.07	5.25	0.5378	0.0508	-0.1293	
-0.998204	-0.016958	-0.279014	-3.08	-8.68	5.39	0.5223	0.0585	-0.1372	
-1.002474	-0.01098	-0.281088	-5.04	-11.2	5.04	0.527	0.0554	-0.1309	
-1.002962	-0.00854	-0.280478	-6.93	-13.09	5.32	0.5331	0.0569	-0.1404	
-1.018456	-0.007929999	-0.287432	-6.3	-13.44	5.46	0.5287	0.0513	-0.1386	
-1.02541	-0.008905999	-0.277062	-6.37	-14.63	6.09	0.5378	0.0555	-0.1466	
-1.023458	-0.004026	-0.275232	-8.26	-17.85	4.76	0.5364	0.0529	-0.1543	
-1.02907	0.001586	-0.277794	-13.3	-20.51	4.34	0.5364	0.0529	-0.1543	
-1.03273	0.003294	-0.264008	-18.55	-24.5	3.43	0.5304	0.0474	-0.1541	
-1.019676	0.019764	-0.254248	-23.66	-28.56	1.89	0.5225	0.0562	-0.159	
-1.027728	0.02684	-0.248636	-26.11	-28.84	2.45	0.5258	0.0508	-0.1697	
-1.003694	0.016592	-0.223138	-25.48	-26.53	4.13	0.5269	0.0633	-0.1639	
-1.047614	0.017934	-0.211792	-29.96	-27.16	3.92	0.5212	0.051	-0.1728	
-1.034316	0.0244	-0.201788	-34.58	-35.21	4.69	0.5119	0.0542	-0.1807	
-1.031998	0.046238	-0.19764	-36.82	-37.52	5.95	0.5165	0.054	-0.1776	
-1.011868	0.04148	-0.181292	-39.2	-41.02	11.76	0.5147	0.0672	-0.1904	
-1.002352	0.035136	-0.168238	-37.59	-49.91	13.72	0.5147	0.0657	-0.1888	
-0.981368	0.04392	-0.165432	-43.82	-60.9	11.97	0.5026	0.0605	-0.1948	
-1.024068	0.030988	-0.133468	-37.45	-58.59	10.29	0.5088	0.0594	-0.2104	
-1.006134	0.043432	-0.117608	-32.2	-58.03	9.66	0.5054	0.0738	-0.217	
-1.039684	0.021838	-0.103578	-33.53	-57.68	7.56	0.5012	0.0631	-0.2354	
-1.00955	0.034526	-0.114558	-33.46	-63	3.29	0.4889	0.0651	-0.2463	
-1.006744	0.055632	-0.113704	-34.65	-65.38	3.99	0.4919	0.0694	-0.2511	
-1.002962	0.068564	-0.057584	-26.32	-78.54	5.74	0.4829	0.0629	-0.2665	
-1.025288	0.055022	-0.041724	-18.69	-82.18	8.26	0.4661	0.0607	-0.2741	
-1.013332	0.058072	-0.01037	-24.64	-84.84	10.01	0.4612	0.0753	-0.2838	
-1.009672	0.043798	-0.002684	-19.74	-88.69	10.01	0.4598	0.0698	-0.2915	
-0.99308	0.046116	0.014762	-20.58	-90.09	10.01	0.4491	0.075	-0.3165	
-0.991372	0.03111	0.04209	-19.95	-98.77	7.7	0.4385	0.0681	-0.3131	
-0.99247	0.037576	0.086376	-18.27	-97.3	6.86	0.4293	0.0719	-0.3381	
-0.996008	0.057706	0.147986	-20.16	-101.01	4.55	0.4264	0.06659999	-0.3488	
-1.007598	0.08113	0.189954	-25.34	-102.2	2.24	0.4076	0.0829	-0.3601	
-0.966118	0.073932	0.218136	-27.3	-109.69	2.52	0.397	0.0793	-0.3724	
-0.916708	0.073566	0.268766	-15.47	-110.53	2.8	0.377	0.0812	-0.3739	
-0.918904	0.07808	0.327448	-14.07	-110.32	-0.49	0.3679	0.085	-0.4005	
-0.89609	0.085522	0.328302	-16.1	-109.06	0.49	0.3694	0.0865	-0.4052	
-0.862052	0.078446	0.377468	-16.38	-107.8	0.7	0.3401	0.09299999	-0.4115	
-0.84912	0.069174	0.428098	-21.63	-107.8	0.77	0.3218	0.0911	-0.4285	
-0.868396	0.058682	0.50996	-21.28	-106.4	1.54	0.2971	0.0976	-0.4348	
-0.82472	0.041968	0.544364	-19.11	-105.91	4.06	0.291	0.098	-0.4441	
-0.79727	0.056364	0.53558	-22.47	-103.53	9.45	0.2758	0.0946	-0.4626	
-0.779946	0.043432	0.547048	-18.55	-98.07	6.86	0.2557	0.0979	-0.4595	
-0.752618	0.034282	0.589992	-19.88	-99.89	2.8	0.2356	0.104	-0.4596	
-0.731634	0.02806	0.64355	-17.08	-95.83	-2.17	0.2172	0.1077	-0.4751	
-0.741638	0.023668	0.651602	-14.07	-86.24	-2.52	0.2126	0.1081	-0.4829	
-0.71858	0.045872	0.620614	-15.54	-85.33	-6.44	0.1848	0.1128	-0.4751	
-0.643794	0.013176	0.655262	-19.04	-83.09	-8.26	0.1678	0.1208	-0.4955	
-0.620492	0.008905999	0.684542	-14.35	-77.07	-8.61	0.1619	0.1095	-0.4874	
-0.606218	-0.00061	0.712724	-10.5	-70.49	-6.93	0.1524	0.121	-0.4861	
-0.587918	0.007808	0.734684	-8.4	-66.36	-7	0.1354	0.1292	-0.5127	
-0.622444	0.024766	0.719068	-9.45	-65.1	-9.38	0.1214	0.132	-0.4972	
-0.589748	0.01403	0.73322	-11.83	-67.48	-11.27	0.1215	0.1322	-0.5081	
-0.555588	-0.010736	0.753838	-11.55	-66.92	-10.85	0.1034	0.1214	-0.5077	
-0.542412	-0.029524	0.794098	-9.17	-65.52	-10.08	0.1016	0.1313	-0.5064	
-0.529846	-0.036844	0.793976	-7.84	-66.08	-10.71	0.08	0.1347	-0.5095	
-0.496784	-0.048434	0.80459	-6.58	-66.64	-10.57	0.0462	0.1341	-0.5078	
-0.456646	-0.042334	0.820206	-4.83	-66.01	-10.08	0.0447	0.1343	-0.5124	
-0.446276	-0.042578	0.82045	-4.06	-65.24	-10.22	0.0245	0.1402	-0.5047	
-0.417362	-0.039528	0.821792	-4.48	-66.22	-11.34	0.0168	0.1401	-0.4938	
-0.390156	-0.046726	0.831674	-3.85	-68.53	-12.11	0.0156	0.1306	-0.5075	
-0.35258	-0.05612	0.859246	-4.06	-68.67	-12.46	-0.009	0.1354	-0.5044	
-0.347456	-0.05429	0.875228	-2.31	-68.39	-12.88	-0.0139	0.1484	-0.5094	
-0.301584	-0.043554	0.893528	-1.89	-69.58	-13.23	-0.029	0.1372	-0.5012	
-0.2501	-0.05795	0.918172	-2.03	-68.6	-11.83	-0.0474	0.1364	-0.5058	
-0.216794	-0.058316	0.94428	0.07	-66.78	-10.36	-0.0554	0.1478	-0.5014	
-0.173972	-0.058072	0.969656	0	-65.59	-9.31	-0.0673	0.1339	-0.4978	
-0.132858	-0.059414	0.993812	-0.84	-63.21	-8.33	-0.0782	0.1368	-0.4932	
-0.099796	-0.05429	1.013942	-1.4	-60.2	-7.21	-0.0844	0.1383	-0.487	
-0.075518	-0.060268	1.030046	-1.05	-56.56	-6.44	-0.0967	0.1387	-0.4932	
-0.048312	-0.06466	1.035902	-0.49	-52.78	-5.46	-0.1015	0.144	-0.4746	
-0.03904	-0.054168	1.03822	0.49	-48.23	-4.34	-0.1166	0.1346	-0.4789	
-0.03111	-0.057584	1.03395	-0.14	-44.52	-3.64	-0.115	0.1363	-0.4899	
-0.014762	-0.050508	1.032364	-1.26	-41.79	-3.22	-0.1182	0.1374	-0.4759	
0.0061	-0.049898	1.03334	-2.24	-38.29	-2.73	-0.1289	0.1366	-0.4883	
0.017568	-0.04636	1.033096	-2.1	-34.79	-1.89	-0.1364	0.1307	-0.474	
0.030378	-0.047458	1.042856	-2.94	-32.76	-2.03	-0.1504	0.1354	-0.4788	
0.034526	-0.05124	1.041636	-3.99	-30.94	-2.45	-0.1442	0.1339	-0.4803	
0.044408	-0.062952	1.036756	-3.99	-29.05	-2.8	-0.1551	0.1395	-0.468	
0.054534	-0.067222	1.034804	-2.8	-26.32	-2.87	-0.1534	0.1355	-0.4787	
0.045872	-0.066246	1.036634	-1.75	-22.61	-2.87	-0.1579	0.1297	-0.4676	
0.037698	-0.069296	1.022116	-1.54	-19.95	-2.73	-0.158	0.1311	-0.4692	
0.023546	-0.061244	1.017724	-1.47	-17.78	-3.01	-0.1643	0.1384	-0.4694	
0.01647	-0.065514	1.017602	-0.98	-16.17	-2.94	-0.1657	0.1325	-0.4599	
0.009881999	-0.064416	1.008208	-0.21	-14.49	-2.87	-0.1598	0.1394	-0.4601	
-0.000244	-0.06893	1.00833	-0.28	-13.23	-2.66	-0.1643	0.1382	-0.4616	
-0.008296	-0.05734	1.000888	0.63	-11.9	-2.1	-0.1736	0.1429	-0.4726	
-0.020618	-0.05063	0.993568	0.63	-10.92	-2.1	-0.1687	0.1297	-0.4582	
-0.02379	-0.042334	0.99674	0.49	-9.94	-2.45	-0.1843	0.1386	-0.46	
-0.026474	-0.039528	0.995032	-0.35	-8.82	-2.52	-0.1873	0.1342	-0.4521	
-0.02989	-0.046726	0.999302	-1.82	-7.77	-2.1	-0.1809	0.1242	-0.4549	
-0.036478	-0.051728	0.995154	-2.24	-6.79	-2.03	-0.1948	0.1306	-0.4675	
-0.041358	-0.058926	0.987712	-2.87	-6.79	-2.52	-0.1796	0.1343	-0.4614	
-0.036356	-0.061	0.979782	-2.94	-6.86	-3.5	-0.1887	0.1317	-0.4629	
-0.030378	-0.071614	0.983564	-2.94	-5.95	-3.71	-0.1935	0.1373	-0.4552	
-0.027694	-0.07869	0.995764	-1.96	-4.62	-3.22	-0.1844	0.1384	-0.4522	
-0.026596	-0.078934	0.988322	-0.63	-3.57	-2.8	-0.192	0.1372	-0.4521	
-0.025986	-0.080276	0.988322	0.14	-3.36	-2.45	-0.1858	0.1372	-0.4584	
-0.017324	-0.069906	0.981246	-0.07	-3.71	-2.8	-0.1857	0.1329	-0.4583	
-0.01281	-0.08418	0.983076	-0.84	-3.71	-2.8	-0.184	0.1256	-0.4503	
-0.007198	-0.079788	0.98454	-0.56	-3.43	-2.94	-0.1874	0.1356	-0.4505	
-0.00244	-0.082838	0.991494	-0.35	-3.29	-3.01	-0.1781	0.1355	-0.4553	
-0.001464	-0.08174	0.98698	-0.21	-3.43	-2.94	-0.1932	0.1275	-0.4596	
0.003538	-0.077348	0.981612	0.21	-3.36	-2.66	-0.1887	0.13	-0.4519	
0.01403	-0.077226	0.98088	0.63	-3.15	-2.45	-0.2011	0.1348	-0.4598	
0.014152	-0.076738	0.984662	0.49	-2.66	-1.96	-0.1873	0.1357	-0.4552	
0.016958	-0.072712	0.986004	0	-2.17	-1.26	-0.1858	0.1359	-0.463	
0.014762	-0.072468	0.981124	0	-1.75	-0.77	-0.1844	0.1412	-0.4507	
0.015128	-0.074542	0.98759	0.7	-1.47	-0.42	-0.1951	0.1372	-0.449	
0.013176	-0.071858	0.995276	0.77	-0.77	-0.49	-0.1903	0.1301	-0.4519	
0.00732	-0.070638	0.995886	0.42	-0.21	-0.42	-0.1904	0.1372	-0.4552	
0.005734	-0.070028	0.986736	0.28	-0.49	-0.28	-0.1931	0.1232	-0.4579	
0.008052	-0.069052	0.98027	0.21	-0.42	-0.35	-0.1967	0.1403	-0.4569	
0.014518	-0.072102	0.98759	-0.07	0.35	-0.28	-0.1793	0.1227	-0.4533	
0.009638	-0.072834	0.990396	-0.28	1.33	-0.21	-0.2011	0.1347	-0.4567	
0.003538	-0.076128	0.987346	-0.56	1.96	-0.28	-0.1842	0.1312	-0.4489	
0.000976	-0.077226	0.989176	-0.56	2.1	-0.49	-0.1842	0.1329	-0.4567	
-0.001098	-0.07808	0.985028	0.07	2.1	-0.35	-0.1887	0.1254	-0.4393	
-0.000122	-0.076494	0.987468	0.63	2.24	-0.42	-0.1934	0.1313	-0.441	
-0.002684	-0.076494	0.981246	1.05	2.66	-0.49	-0.1871	0.1288	-0.4597	
-0.007198	-0.068564	0.97844	0.98	2.45	-0.63	-0.1855	0.1245	-0.4611	
-0.008662	-0.06954	0.975634	0.63	1.89	-0.63	-0.1889	0.1342	-0.4505	
-0.004392	-0.066368	0.980148	0.42	1.82	-0.35	-0.1871	0.1288	-0.4597	
-0.00122	-0.06649	0.98759	0.63	2.38	0.07	-0.1872	0.1315	-0.4567	
0.000244	-0.065148	0.991372	0.49	3.08	0.49	-0.192	0.1374	-0.4599	
-0.002196	-0.060024	0.988566	0.42	3.36	0.63	-0.1952	0.14	-0.4491	
-0.00427	-0.07137	0.994788	0.14	3.5	0.77	-0.1917	0.1244	-0.4502	
-0.00183	-0.066978	0.995154	0.49	3.78	0.84	-0.1888	0.133	-0.4582	
0.000488	-0.068686	1.00345	0.63	4.55	0.91	-0.1781	0.1371	-0.4615	
0.005368	-0.069174	1.006012	0.56	5.6	0.84	-0.1706	0.1395	-0.4523	
0.010492	-0.066978	1.014796	0.91	6.79	0.91	-0.1871	0.1287	-0.4581	
0.021106	-0.06527	1.01931	1.19	7.91	0.91	-0.1902	0.1303	-0.4628	
0.020984	-0.063196	1.02724	0.7	9.31	0.84	-0.1778	0.1244	-0.4643	
0.029646	-0.066246	1.028338	0.07	10.92	0.84	-0.1797	0.1385	-0.46	
0.036722	-0.06283	1.037366	0.28	13.58	1.19	-0.1748	0.1271	-0.4613	
0.03965	-0.06527	1.044564	0.42	16.8	1.61	-0.1672	0.1299	-0.466	
0.037088	-0.067222	1.06079	0.56	20.02	1.75	-0.1718	0.1282	-0.4535	
0.041846	-0.080032	1.062376	0.35	23.45	1.68	-0.1718	0.1328	-0.4677	
0.036234	-0.072834	1.0675	1.68	27.37	1.68	-0.1674	0.137	-0.4678	
0.031354	-0.076616	1.062132	1.47	31.15	1.75	-0.1658	0.1338	-0.4568	
0.023546	-0.073322	1.05652	0.98	35.28	1.68	-0.1535	0.1351	-0.4616	
0.013542	-0.072224	1.059204	1.82	39.97	2.03	-0.1412	0.135	-0.471	
0.006466	-0.072224	1.0492	2.59	44.24	2.52	-0.1411	0.1324	-0.4803	
-0.003904	-0.072102	1.04371	4.13	48.44	3.01	-0.1288	0.1333	-0.4726	
-0.021472	-0.062952	1.030046	5.18	52.57	3.22	-0.1212	0.1346	-0.4742	
-0.047946	-0.062586	1.023458	5.18	56.21	3.85	-0.1178	0.1251	-0.4942	
-0.062342	-0.057096	1.008696	4.55	59.78	4.55	-0.1086	0.1262	-0.4912	
-0.09552599	-0.059292	0.993202	5.32	64.12	5.39	-0.0904	0.1311	-0.4789	
-0.122488	-0.057096	0.974536	7	67.76	6.3	-0.0871	0.1259	-0.4991	
-0.154818	-0.030866	0.956358	7.56	71.4	6.86	-0.0731	0.1199	-0.5005	
-0.187148	-0.034404	0.937326	5.46	73.92	8.12	-0.0687	0.1298	-0.5024	
-0.22265	-0.037942	0.926712	5.11	76.58	9.24	-0.0547	0.1223	-0.4991	
-0.257786	-0.03721	0.910486	6.51	78.12	9.94	-0.0347	0.1174	-0.4944	
-0.295484	-0.027206	0.901458	6.3	79.38	9.8	-0.0272	0.1275	-0.5103	
-0.332206	-0.02318	0.880352	5.81	80.08	9.38	-0.008599999	0.1214	-0.5087	
-0.369416	-0.01708	0.864126	5.18	80.36	8.96	0.0066	0.1254	-0.5135	
-0.399062	-0.01342	0.839238	4.83	80.29	8.61	0.0125	0.1335	-0.5076	
-0.428708	-0.020862	0.824354	4.13	79.87	8.19	0.0371	0.1286	-0.5029	
-0.452376	-0.01281	0.802028	4.83	79.45	7.7	0.0356	0.1287	-0.5075	
-0.48007	0.001586	0.78934	5.46	79.31	7.14	0.0558	0.1182	-0.5042	
-0.517646	0.003782	0.778604	6.65	79.52	7	0.0588	0.1226	-0.5137	
-0.543022	0.00244	0.771406	7.14	78.61	6.93	0.0927	0.1175	-0.5106	
-0.564494	0.006466	0.745664	6.51	77.28	6.3	0.1082	0.1144	-0.5153	
-0.57828	0.01098	0.722606	7	75.95	5.32	0.1127	0.1167	-0.5014	
-0.60573	0.00183	0.721752	6.79	75.32	4.9	0.1313	0.1107	-0.5059	
-0.629886	0.009393999	0.707478	7.91	74.55	4.62	0.1479	0.1186	-0.4985	
-0.663192	0.007929999	0.69418	7.42	72.87	5.39	0.1588	0.114	-0.4953	
-0.676856	0.013664	0.67771	7.91	72.1	4.97	0.1679	0.1198	-0.508	
-0.695522	0.029768	0.658068	7.91	73.01	3.92	0.1758	0.1092	-0.4921	
-0.716018	0.021472	0.659776	6.44	74.06	3.36	0.1898	0.1002	-0.4857	
-0.739442	0.019154	0.62586	7.42	74.62	3.5	0.1973	0.1024	-0.4687	
-0.76372	0.015738	0.60268	8.05	75.46	3.15	0.2094	0.1124	-0.4846	
-0.78507	0.023058	0.57889	6.16	76.09	1.82	0.2281	0.102	-0.4813	
-0.80886	0.022326	0.549	5.11	76.58	0.56	0.2297	0.0973	-0.4687	
-0.832284	0.031232	0.503372	4.76	77	-2.1	0.2525	0.105	-0.4597	
-0.843508	0.028792	0.48129	2.8	77.49	-1.82	0.2679	0.1002	-0.4518	
-0.861442	0.00854	0.476898	3.5	75.6	-2.87	0.2754	0.1085	-0.4505	
-0.855708	0.003172	0.460428	5.81	77.21	-3.22	0.2922	0.1078	-0.4413	
-0.858514	0.00122	0.43005	9.03	76.23	-3.15	0.3046	0.105	-0.4537	
-0.875716	0.033062	0.408944	4.97	76.3	-3.78	0.3045	0.1057	-0.4288	
-0.881572	0.031476	0.377224	1.68	76.02	-2.8	0.3231	0.0966	-0.4208	
-0.897432	0.02135	0.357582	2.45	74.83	-4.34	0.3323	0.0992	-0.421	
-0.932568	0.019032	0.32574	2.8	75.6	-3.78	0.3476	0.0984	-0.4086	
-0.938058	0.020862	0.307074	4.48	74.34	-4.13	0.3443	0.1052	-0.3947	
-0.947818	0.02135	0.29036	7.7	74.34	-3.78	0.358	0.1078	-0.3964	
-0.967704	0.039162	0.26474	5.88	76.37	-3.29	0.3795	0.1054	-0.3824	
-0.98393	0.019398	0.23973	4.41	72.59	-3.85	0.3918	0.1037	-0.3825	
-0.981734	0.019886	0.205204	7	70.35	-3.36	0.3858	0.09959999	-0.3808	
-0.969168	0.020008	0.200934	6.09	66.29	-2.87	0.3934	0.0989	-0.3621	
-0.967704	0.024156	0.185928	3.57	66.43	-2.1	0.4043	0.09119999	-0.3494	
-0.989542	0.011712	0.17568	2.59	63.42	-5.67	0.4225	0.0992	-0.3498	
-1.012112	0.019886	0.125538	4.41	63.35	-6.65	0.4273	0.0902	-0.334	
-1.018944	0.017568	0.108458	4.55	59.71	-7.07	0.4378	0.0999	-0.3374	
-1.026508	0.013054	0.072468	4.62	55.37	-7.35	0.4256	0.09739999	-0.3388	
-1.030656	0.020374	0.053436	4.06	54.18	-5.88	0.4437	0.1021	-0.3188	
-1.007842	0.003172	0.046726	5.67	50.47	-4.9	0.453	0.0986	-0.3016	
-1.029924	-0.00305	0.038064	10.92	49.63	-5.46	0.4637	0.0951	-0.2876	
-1.013698	0.007442	0.031598	10.01	48.23	-5.6	0.4652	0.0982	-0.297	
-0.99735	0.001586	0.025864	10.29	48.23	-4.13	0.467	0.0893	-0.2858	
-1.02114	0.008905999	0.00061	12.46	47.32	-5.04	0.4836	0.09869999	-0.2815	
-1.016992	0.025132	-0.031598	12.88	45.92	-5.81	0.482	0.0984	-0.2691	
-1.023092	0.008784	-0.050142	14.84	43.47	-4.83	0.4805	0.0925	-0.258	
-1.0126	-0.00732	-0.04453	17.43	41.37	-2.8	0.4927	0.0949	-0.2534	
-1.022116	-0.013298	-0.06344	21.98	39.06	-2.1	0.4884	0.0881	-0.2594	
-1.05286	0.020496	-0.08052	23.17	38.99	-2.31	0.482	0.0935	-0.2455	
-1.028216	0.034892	-0.09211	20.51	35.77	-2.17	0.4894	0.1001	-0.2333	
-1.012966	0.002562	-0.081862	16.17	31.71	-3.64	0.4973	0.0929	-0.2363	
-1.019554	0.011224	-0.08479	19.39	28.98	-4.06	0.4958	0.0928	-0.23	
-0.986004	-0.00671	-0.09467199	23.87	24.78	-3.43	0.4944	0.0873	-0.2345	
-1.032242	0.007564	-0.095404	25.97	25.34	-2.52	0.505	0.0894	-0.2191	
-1.014064	0.00305	-0.088816	25.13	19.88	-2.8	0.4976	0.07669999	-0.214	
-1.008086	0.00427	-0.104066	25.41	18.83	-3.71	0.5069	0.0781	-0.2219	
-1.01382	-0.001342	-0.108092	24.57	19.32	-2.66	0.5081	0.088	-0.2222	
-0.998814	-0.007564	-0.116144	23.31	18.62	-2.38	0.5049	0.08899999	-0.2035	
-1.007476	-0.01098	-0.131638	18.83	17.36	-3.01	0.5005	0.0805	-0.1985	
-1.028582	-0.021228	-0.158844	18.62	15.26	-2.59	0.513	0.0761	-0.2031	
-1.051396	-0.028548	-0.160186	23.73	16.1	-2.1	0.5052	0.0788	-0.1923	
-1.0126	-0.038918	-0.175558	23.31	15.4	-1.68	0.5172	0.0887	-0.202	
-1.032608	-0.03721	-0.165554	21.28	14.28	-2.45	0.5127	0.0813	-0.1893	
-1.010404	-0.013786	-0.150304	19.67	12.53	-1.12	0.5035	0.0831	-0.1939	
-0.994544	-0.015982	-0.145668	16.45	14	-2.38	0.5113	0.08	-0.1908	
-0.97417	-0.025376	-0.153598	13.16	14.98	-3.99	0.513	0.0729	-0.1921	
-0.999546	-0.038308	-0.16714	16.17	17.08	-4.9	0.5222	0.0724	-0.1828	
-1.004914	-0.044774	-0.194224	22.05	18.2	-3.22	0.5095	0.0854	-0.18	
-1.028338	-0.049166	-0.212768	23.38	16.38	-2.94	0.5126	0.0853	-0.1785	
-1.020652	-0.049044	-0.215086	23.03	11.55	-3.99	0.5115	0.073	-0.1953	
-1.050786	-0.04575	-0.225456	23.38	9.59	-4.69	0.5265	0.0824	-0.1894	
-1.040904	-0.046604	-0.2257	22.61	8.61	-3.57	0.525	0.0762	-0.1658	
-1.030412	-0.03599	-0.219234	20.51	6.3	-2.66	0.5188	0.0808	-0.1753	
-1.012844	-0.043432	-0.198738	14.07	5.95	-3.43	0.5203	0.0822	-0.1738	
-1.006134	-0.058072	-0.196786	10.36	4.55	-3.57	0.5143	0.0781	-0.1752	
-0.995154	-0.067588	-0.198128	12.74	6.93	-1.61	0.5251	0.0734	-0.1673	
-1.005646	-0.061122	-0.191784	17.5	11.34	1.47	0.5175	0.07229999	-0.1719	
-1.003938	-0.049288	-0.20435	19.04	11.34	2.38	0.5314	0.0708	-0.1813	
-0.999546	-0.050996	-0.209352	20.86	10.85	2.73	0.53	0.0648	-0.1702	
-1.004914	-0.060268	-0.221064	19.18	9.87	3.78	0.5345	0.0691	-0.175	
-1.006378	-0.072102	-0.20984	12.81	6.72	2.03	0.5255	0.0607	-0.1685	
-1.000766	-0.060878	-0.206058	11.13	6.79	0.98	0.5208	0.0636	-0.1701	
-1.004426	-0.057584	-0.210938	8.89	5.18	0.49	0.5175	0.0706	-0.1609	
-0.993934	-0.050386	-0.212036	6.44	3.36	0.21	0.5237	0.0661	-0.1577	
-1.0004	-0.054778	-0.20557	5.88	3.71	-0.14	0.5253	0.0661	-0.1608	
-1.0004	-0.055144	-0.219722	7.7	5.6	0.07	0.5313	0.07319999	-0.1673	
-0.999424	-0.058804	-0.22082	6.16	7.07	2.17	0.5316	0.0619	-0.1685	
-1.000644	-0.064538	-0.218746	4.13	6.02	0.91	0.5282	0.0703	-0.1594	
-1.003694	-0.069174	-0.232044	5.04	5.53	0.63	0.5269	0.0662	-0.1671	
-0.999424	-0.069296	-0.233264	6.02	3.71	-0.21	0.5268	0.06439999	-0.1499	
-0.998082	-0.049654	-0.22509	5.67	1.75	-0.63	0.5267	0.07	-0.1501	
-0.992714	-0.069174	-0.226066	5.39	2.1	-0.49	0.5315	0.0613	-0.1452	
-0.993446	-0.064294	-0.225212	5.67	3.85	1.26	0.5285	0.0601	-0.1513	
-0.99186	-0.05429	-0.22082	3.92	2.59	1.19	0.5221	0.0703	-0.1547	
-0.992714	-0.057706	-0.225944	1.96	2.94	0.84	0.5331	0.0601	-0.156	
-0.99552	-0.046726	-0.230824	2.8	3.29	1.75	0.5331	0.0584	-0.1451	
-0.996618	-0.0549	-0.233996	5.67	3.64	1.68	0.5268	0.0672	-0.1515	
-1.00223	-0.053558	-0.236924	4.76	3.29	1.82	0.5132	0.0591	-0.1512	
-0.998326	-0.060878	-0.23302	1.96	2.38	1.33	0.5283	0.0655	-0.1406	
-0.994544	-0.054046	-0.228018	3.01	1.47	0.77	0.5268	0.0642	-0.1437	
-0.992592	-0.052948	-0.231678	3.15	0.84	1.47	0.5268	0.0645	-0.1546	
-0.997716	-0.051484	-0.230336	1.96	-0.84	2.03	0.5344	0.0655	-0.1453	
-0.995276	-0.052094	-0.2318	1.96	-1.61	2.38	0.5224	0.056	-0.1496	
-0.997716	-0.050386	-0.23668	2.59	-1.68	2.24	0.5317	0.0573	-0.1559	
-0.997472	-0.047214	-0.23363	0.63	-2.03	1.75	0.5273	0.0489	-0.1541	
-1.002962	-0.060634	-0.23485	-0.7	-2.1	1.54	0.5255	0.0591	-0.1622	
-1.00467	-0.058316	-0.247294	-0.07	-2.94	2.03	0.5346	0.0601	-0.1545	
-1.003572	-0.062464	-0.245464	-0.77	-4.48	2.17	0.5332	0.0558	-0.1512	
-1.003572	-0.058804	-0.241682	-2.03	-4.55	2.45	0.5253	0.0661	-0.1608	
-0.997594	-0.056974	-0.238632	-2.38	-4.9	3.43	0.5132	0.0577	-0.1512	
-1.001132	-0.05307	-0.232288	-3.15	-5.46	3.92	0.5209	0.0576	-0.1543	
-0.999424	-0.053192	-0.231678	-3.29	-6.37	4.06	0.5287	0.053	-0.1511	
-1.005036	-0.062098	-0.240462	-6.09	-6.93	2.66	0.5257	0.0504	-0.1573	
-1.01443	-0.047824	-0.23607	-11.62	-9.73	2.52	0.5253	0.0662	-0.1624	
-1.018334	-0.051484	-0.243756	-12.46	-10.57	2.59	0.5165	0.0539	-0.1729	
-1.019676	-0.053436	-0.238754	-11.41	-10.78	5.53	0.5318	0.0547	-0.1637	
-1.027362	-0.053436	-0.238632	-12.81	-10.15	6.93	0.5149	0.0536	-0.1604	
-1.04249	-0.066246	-0.243146	-14	-10.08	6.23	0.5135	0.0511	-0.1712	
-1.043222	-0.0488	-0.242414	-15.47	-13.51	7	0.527	0.0607	-0.1716	
-1.023214	-0.032208	-0.238144	-17.71	-17.29	8.89	0.5102	0.0569	-0.1714	
-1.02419	-0.030256	-0.232654	-20.58	-19.39	6.37	0.5211	0.0523	-0.1698	
-1.036512	-0.037088	-0.22753	-26.04	-22.12	2.73	0.5194	0.0594	-0.1684	
-1.045906	-0.039528	-0.249246	-28.91	-21.35	0.84	0.515	0.0496	-0.1697	
-1.048102	-0.003782	-0.238022	-25.55	-20.23	9.59	0.5228	0.0496	-0.1775	
-1.042368	-0.058194	-0.213744	-26.88	-26.81	10.64	0.521	0.0613	-0.1887	
-1.009428	-0.020374	-0.211792	-24.15	-34.44	7.07	0.5213	0.0499	-0.1868	
-1.031998	-0.003294	-0.236558	-30.38	-36.12	5.04	0.5227	0.0573	-0.198	
-1.027118	0.007686	-0.19459	-39.62	-45.99	7.7	0.509	0.0536	-0.2056	
-1.036268	-0.025376	-0.162382	-33.95	-47.32	11.48	0.5042	0.0595	-0.2104	
-1.01626	-0.015616	-0.178974	-27.16	-52.92	10.36	0.5119	0.0593	-0.212	
-1.016504	0.012078	-0.172264	-29.89	-53.27	11.55	0.4997	0.0598	-0.2182	
-1.012966	0.03721	-0.144814	-29.68	-54.6	14.14	0.4953	0.0534	-0.2398	
-1.009062	0.006222	-0.124562	-29.54	-59.64	19.53	0.4985	0.0504	-0.2366	
-1.002474	-0.004636	-0.09162199	-27.23	-66.43	15.75	0.4876	0.0552	-0.246	
-1.00467	0.025864	-0.064172	-24.08	-66.57	11.9	0.4769	0.0572	-0.2585	
-0.99613	0.039284	-0.04087	-22.75	-63.35	11.9	0.4755	0.0547	-0.2693	
-0.984052	0.050874	-0.01647	-26.95	-63.14	12.25	0.4707	0.0621	-0.2757	
-1.010892	-0.000366	0.007808	-31.36	-69.23	11.76	0.4631	0.0611	-0.285	
-0.992348	0.024888	0.027938	-24.15	-76.16	8.89	0.457	0.0631	-0.3022	
-0.991006	0.039406	0.0549	-26.81	-80.5	9.17	0.4557	0.0562	-0.3051	
-0.985272	0.04575	0.094428	-23.94	-79.03	11.48	0.4462	0.0664	-0.3084	
-0.983808	0.034038	0.122976	-24.15	-79.8	14.28	0.4295	0.0648	-0.3379	
-0.970632	0.013908	0.16531	-23.31	-83.09	13.37	0.4065	0.0703	-0.3629	
-0.95282	0.036478	0.221552	-21.98	-89.04	9.1	0.4049	0.0716	-0.3582	
-0.94855	0.06466	0.26962	-28.28	-93.73	6.86	0.3974	0.0682	-0.3814	
-0.915122	0.05917	0.303902	-28.7	-96.04	7.63	0.3786	0.0814	-0.3817	
-0.91988	0.064904	0.295972	-25.2	-94.01	7.21	0.3635	0.0734	-0.3877	
-0.874374	0.038308	0.333182	-24.71	-98.42	9.52	0.3664	0.0821	-0.3973	
-0.8723	0.032574	0.401136	-18.69	-99.54	6.93	0.3342	0.0819	-0.4127	
-0.834236	0.079544	0.449692	-20.23	-99.82	3.57	0.3267	0.08109999	-0.4282	
-0.852536	0.088694	0.480192	-25.76	-94.22	2.38	0.3157	0.09	-0.4346	
-0.841312	0.067222	0.500932	-23.73	-94.57	2.87	0.3005	0.085	-0.4422	
-0.811178	0.045262	0.506788	-16.8	-92.82	3.36	0.2959	0.08639999	-0.4375	
-0.77287	0.0488	0.493246	-14.91	-91.07	3.36	0.2696	0.0959	-0.4517	
-0.763354	0.040382	0.53375	-16.52	-91.77	5.25	0.2573	0.0964	-0.4594	
-0.759572	0.050386	0.570472	-13.3	-91.35	3.29	0.2359	0.0972	-0.4703	
-0.732488	0.03721	0.629764	-11.34	-88.76	2.66	0.2296	0.1031	-0.4735	
-0.720898	0.041602	0.642086	-9.59	-85.54	2.17	0.2095	0.1081	-0.4798	
-0.710284	0.050386	0.64294	-8.26	-82.74	1.61	0.2004	0.1041	-0.4827	
-0.678076	0.060024	0.65758	-9.52	-80.36	0.77	0.2006	0.0988	-0.495	
-0.665876	0.049288	0.66795	-9.31	-80.01	2.1	0.176	0.0991	-0.4856	
-0.643672	0.037332	0.687836	-7.84	-78.96	2.66	0.1635	0.1095	-0.4905	
-0.624274	0.02745	0.74054	-7.56	-79.03	5.67	0.1422	0.1031	-0.4964	
-0.625006	0.030988	0.75884	-6.79	-76.86	4.69	0.139	0.1089	-0.4997	
-0.59231	0.03782	0.776042	-8.68	-75.18	4.48	0.1174	0.1139	-0.5044	
-0.564128	0.03355	0.794342	-9.38	-73.5	2.24	0.0977	0.1015	-0.4993	
-0.548512	0.024888	0.806298	-6.3	-71.75	2.52	0.0819	0.1219	-0.506	
-0.515084	0.01342	0.817888	-6.72	-69.79	0.56	0.07889999	0.1163	-0.5058	
-0.50691	0.011102	0.811544	-6.65	-67.76	-1.12	0.0699	0.1096	-0.5118	
-0.486292	0.017568	0.83265	-7.14	-68.53	-1.05	0.0542	0.1195	-0.4996	
-0.45262	0.010004	0.843874	-8.33	-67.83	-1.4	0.0561	0.1113	-0.5103	
-0.419314	0.018178	0.861808	-8.19	-64.82	-1.68	0.0345	0.1133	-0.5133	
-0.421632	0.025498	0.864858	-8.26	-63.63	-1.89	0.0283	0.1148	-0.5087	
-0.38918	0.024644	0.874374	-9.03	-62.86	-2.66	0.0177	0.1106	-0.5023	
-0.34404	-0.003172	0.89609	-9.45	-62.23	-3.22	-0.0022	0.1128	-0.51	
-0.345504	-0.00854	0.888038	-5.32	-60.41	-1.89	-0.0072	0.1256	-0.5104	
-0.313906	-0.020252	0.89975	-10.71	-60.97	-4.2	-0.0146	0.1142	-0.4991	
-0.2684	-0.020008	0.927932	-8.54	-59.99	-4.97	-0.0346	0.1192	-0.5085	
-0.241438	-0.032818	0.95953	-8.33	-56.07	-5.11	-0.0441	0.1264	-0.504	
-0.259616	-0.028304	0.94672	-7.28	-53.83	-5.39	-0.0517	0.1204	-0.4835	
-0.204716	-0.04697	0.96014	-7.7	-53.97	-5.46	-0.0626	0.131	-0.5009	
-0.17934	-0.046238	0.992836	-6.93	-52.22	-5.11	-0.0718	0.1284	-0.4992	
-0.177876	-0.040382	0.97539	-7.35	-50.4	-5.95	-0.0612	0.1335	-0.4916	
-0.150182	-0.046848	0.986004	-6.02	-48.72	-6.02	-0.0901	0.1245	-0.4959	
-0.110288	-0.04941	1.001986	-4.83	-46.41	-5.81	-0.0979	0.126	-0.4912	
-0.111264	-0.043798	1.006012	-2.87	-42.91	-5.04	-0.0995	0.1303	-0.4944	
-0.080886	-0.045262	1.006744	-3.08	-42	-5.25	-0.1103	0.1287	-0.4772	
-0.057096	-0.042334	1.011258	-2.03	-39.97	-5.25	-0.1134	0.1319	-0.4882	
-0.050142	-0.031354	1.009062	-1.54	-37.94	-5.32	-0.1226	0.1321	-0.4866	
-0.058682	-0.035746	1.006134	-2.03	-36.4	-5.11	-0.1243	0.1379	-0.4883	
-0.03355	-0.03477	1.005646	-3.08	-35.35	-5.11	-0.1288	0.1319	-0.4725	
-0.02867	-0.033184	0.993812	-2.73	-33.18	-4.34	-0.135	0.1337	-0.4803	
-0.036966	-0.03904	0.98698	-3.29	-31.15	-4.62	-0.1395	0.1323	-0.4787	
-0.026352	-0.049166	0.99552	-3.43	-29.89	-4.9	-0.1565	0.1326	-0.4724	
-0.026596	-0.044164	0.999912	-2.66	-28.91	-5.6	-0.161	0.1284	-0.4707	
-0.016592	-0.045628	0.99857	-1.05	-28.35	-4.83	-0.1487	0.1294	-0.4646	
-0.01708	-0.035258	0.997228	0.07	-27.23	-4.62	-0.1688	0.1341	-0.4646	
-0.006466	-0.039528	1.00894	-0.63	-26.67	-5.11	-0.1687	0.1313	-0.4661	
-0.003172	-0.043798	1.014186	-0.98	-25.83	-5.11	-0.1672	0.1298	-0.4629	
-0.001586	-0.044896	1.022238	-0.98	-24.71	-5.04	-0.1703	0.1311	-0.4583	
0.010614	-0.037576	1.019188	-0.84	-23.31	-5.18	-0.1839	0.1214	-0.4533	
0.01769	-0.0366	1.015772	-1.12	-21.49	-4.9	-0.175	0.1356	-0.4615	
0.026352	-0.035746	1.015772	-1.47	-19.53	-4.48	-0.1886	0.1259	-0.458	
0.030134	-0.037454	1.014796	-2.45	-17.85	-4.27	-0.1888	0.1315	-0.4535	
0.029402	-0.036478	1.006256	-2.87	-16.52	-4.2	-0.1903	0.1315	-0.4535	
0.033184	-0.042334	0.99857	-3.85	-15.89	-4.2	-0.1918	0.1287	-0.4534	
0.041114	-0.055388	0.998082	-4.34	-14.98	-4.2	-0.2009	0.1261	-0.4517	
0.046604	-0.052948	1.001864	-3.22	-13.37	-3.36	-0.1965	0.1315	-0.4488	
0.04331	-0.06344	1.00284	-2.73	-11.62	-2.94	-0.1917	0.1273	-0.4534	
0.04148	-0.062708	0.993568	-2.1	-10.57	-2.59	-0.1979	0.1304	-0.4581	
0.044896	-0.057828	0.993568	-1.68	-9.73	-2.38	-0.2069	0.1176	-0.4452	
0.042456	-0.057584	0.99247	-1.61	-8.75	-2.52	-0.1979	0.1286	-0.444	
0.038186	-0.0488	0.985516	-1.12	-8.33	-2.8	-0.2211	0.1334	-0.441	
0.042944	-0.04941	0.987834	-1.47	-8.61	-3.08	-0.2117	0.1277	-0.4502	
0.04575	-0.051118	0.988444	-1.82	-8.26	-3.36	-0.2104	0.1315	-0.4347	
0.045262	-0.05551	0.986614	-2.03	-7.91	-3.15	-0.2119	0.1331	-0.4394	
0.05307	-0.053924	0.985638	-2.03	-7.7	-2.94	-0.2072	0.1288	-0.444	
0.057096	-0.057584	0.984662	-2.1	-7.28	-3.01	-0.213	0.1162	-0.442	
0.061244	-0.061244	0.990274	-2.31	-6.79	-2.94	-0.2117	0.1263	-0.4517	
0.059902	-0.061854	0.983808	-1.89	-6.3	-2.59	-0.2237	0.1152	-0.4482	
0.06283	-0.057706	0.989054	-1.54	-6.02	-2.38	-0.2197	0.1374	-0.4364	
0.069052	-0.060512	0.98698	-1.82	-5.39	-2.38	-0.2212	0.1363	-0.4442	
0.06893	-0.065392	0.992348	-1.82	-4.41	-2.1	-0.2241	0.1305	-0.4377	
0.069052	-0.06466	0.99125	-1.4	-3.36	-1.68	-0.218	0.1286	-0.4253	
0.06832	-0.058682	0.987224	-1.05	-2.8	-1.54	-0.2257	0.1318	-0.4315	
0.070882	-0.063806	0.987468	-1.61	-2.8	-1.47	-0.2103	0.1272	-0.4315	
0.074176	-0.05917	0.988444	-1.68	-2.45	-1.47	-0.221	0.1278	-0.4439	
0.074542	-0.062586	0.987468	-1.4	-1.96	-1.26	-0.2118	0.1302	-0.4362	
0.071126	-0.06405	0.981978	-0.98	-1.47	-1.05	-0.2162	0.1218	-0.436	
0.06734399	-0.057706	0.974902	-0.7	-1.47	-1.12	-0.224	0.1262	-0.4345	
0.070882	-0.054412	0.974048	-0.98	-1.61	-1.19	-0.2086	0.1259	-0.4392	
0.07076	-0.057584	0.971486	-1.26	-1.33	-1.19	-0.204	0.1245	-0.4439	
0.066124	-0.057218	0.976976	-1.33	-1.19	-0.98	-0.2285	0.1221	-0.4359	
0.06771	-0.061244	0.981124	-1.75	-1.4	-0.84	-0.2242	0.1319	-0.4378	
0.062464	-0.061488	0.975024	-1.89	-1.68	-1.12	-0.2242	0.1334	-0.4378	
0.06283	-0.06344	0.972218	-2.17	-2.45	-1.61	-0.2289	0.1363	-0.4363	
0.06588	-0.069418	0.976244	-2.17	-2.52	-1.89	-0.224	0.1264	-0.4407	
0.068442	-0.071004	0.976732	-1.82	-2.03	-1.75	-0.2287	0.1308	-0.4424	
0.06734399	-0.069784	0.980758	-1.47	-1.68	-1.61	-0.2163	0.123	-0.4282	
0.07015	-0.07198	0.98027	-1.4	-1.54	-1.75	-0.2151	0.136	-0.4395	
0.069418	-0.072224	0.983564	-1.05	-1.12	-1.75	-0.2118	0.127	-0.4237	
0.07124799	-0.073566	0.985882	-0.84	-0.77	-1.61	-0.221	0.1289	-0.4315	
0.071736	-0.073688	0.983442	-0.77	-0.35	-1.47	-0.2224	0.122	-0.4375	
0.072346	-0.069174	0.982588	-0.56	0.07	-1.33	-0.2133	0.1289	-0.4393	
0.072346	-0.069662	0.97356	-0.91	0.07	-1.26	-0.2286	0.1263	-0.4329	
0.070028	-0.072712	0.96929	-0.84	0.14	-0.98	-0.2259	0.1406	-0.4411	
0.068564	-0.07747	0.973194	-0.84	-0.07	-0.91	-0.2241	0.1304	-0.4346	
0.07198	-0.07503	0.976366	-0.49	-0.28	-0.84	-0.2225	0.1291	-0.4393	
0.072712	-0.07503	0.980758	-0.42	-0.49	-0.77	-0.2257	0.1335	-0.4425	
0.07137	-0.074298	0.978074	-0.42	-0.63	-0.56	-0.2319	0.1335	-0.4347	
0.071614	-0.071736	0.973682	-0.14	-0.98	-0.42	-0.2209	0.1234	-0.4391	
0.071736	-0.0732	0.972584	-0.49	-1.33	-0.42	-0.2255	0.125	-0.4422	
0.074542	-0.076982	0.97173	-0.77	-1.33	-0.42	-0.2304	0.1333	-0.4284	
0.073566	-0.074664	0.971974	-0.49	-1.12	-0.28	-0.2166	0.1346	-0.4379	
0.074176	-0.077348	0.976244	-0.21	-0.98	-0.35	-0.2208	0.1206	-0.439	
0.076372	-0.07198	0.981368	0.28	-0.98	-0.28	-0.235	0.1364	-0.4363	
0.080032	-0.07625	0.988078	-0.14	-0.98	-0.42	-0.2286	0.1263	-0.4345	
0.089548	-0.078324	0.99735	-0.14	-0.28	-0.28	-0.221	0.1289	-0.433	
0.08784	-0.07686	0.995764	0.35	0.77	0	-0.2273	0.1317	-0.4269	
0.089548	-0.07747	1.001498	0.42	1.12	-0.07	-0.2272	0.1303	-0.4284	
0.105042	-0.072102	1.002596	0.56	1.68	-0.14	-0.2181	0.1345	-0.4317	
0.115534	-0.07381	1.009916	0.49	3.22	0.28	-0.2209	0.1263	-0.4407	
0.120414	-0.07381	1.01992	0.49	5.39	0.98	-0.2272	0.1276	-0.4314	
0.126636	-0.073688	1.020774	0.56	7.77	1.54	-0.221	0.1276	-0.4377	
0.12993	-0.073322	1.032364	0.42	9.8	1.68	-0.2241	0.1306	-0.4424	
0.136762	-0.074786	1.035414	0.21	11.76	1.75	-0.2258	0.1346	-0.4285	
0.144692	-0.07869	1.050908	0.07	14	1.68	-0.2225	0.1292	-0.4424	
0.150426	-0.087352	1.058472	0.28	17.01	1.4	-0.2209	0.1279	-0.447	
0.159454	-0.084302	1.057984	1.75	20.79	1.82	-0.2177	0.1219	-0.4406	
0.155428	-0.081496	1.062376	2.52	25.34	2.1	-0.218	0.1289	-0.4362	
0.140666	-0.072956	1.055422	2.52	29.96	2.45	-0.2042	0.1317	-0.4472	
0.121756	-0.068198	1.051396	2.03	33.74	3.01	-0.2024	0.1262	-0.4549	
0.10919	-0.069174	1.054202	1.4	36.68	3.29	-0.1995	0.1304	-0.455	
0.103334	-0.07686	1.049322	1.96	40.04	3.36	-0.1952	0.1429	-0.4523	
0.09272	-0.072102	1.047004	3.15	44.24	3.29	-0.1886	0.1291	-0.469	
0.07625	-0.063562	1.039684	3.29	48.72	3.22	-0.1797	0.1401	-0.4678	
0.05246	-0.060756	1.03639	2.17	52.5	3.15	-0.1715	0.1201	-0.4689	
0.029646	-0.07076	1.029436	2.03	56.56	3.43	-0.1531	0.1227	-0.4753	
0.005978	-0.069662	1.02846	3.08	60.62	3.92	-0.15	0.1227	-0.4799	
-0.007564	-0.069418	1.020164	4.41	64.89	5.04	-0.1288	0.1306	-0.4772	
-0.030622	-0.074176	1.014552	4.76	68.88	5.6	-0.1363	0.1252	-0.4801	
-0.059536	-0.066124	0.994788	4.76	72.73	6.23	-0.1151	0.1376	-0.4868	
-0.091256	-0.058438	0.989908	4.34	75.81	6.93	-0.101	0.129	-0.4944	
-0.123342	-0.052704	0.978562	4.06	78.61	7.35	-0.09649999	0.1317	-0.4945	
-0.15677	-0.05368	0.950258	3.99	81.41	8.26	-0.0764	0.127	-0.4976	
-0.196298	-0.059902	0.932202	4.62	83.86	9.66	-0.0503	0.1279	-0.5024	
-0.22448	-0.0427	0.912804	6.02	85.68	10.5	-0.0485	0.121	-0.51	
-0.257908	-0.040016	0.895114	7.14	87.15	10.85	-0.0272	0.1273	-0.501	
-0.28548	-0.02989	0.875594	7.56	88.62	10.99	-0.0196	0.1284	-0.4964	
-0.328912	-0.021594	0.847534	7.91	90.3	11.27	0.0006	0.1168	-0.5055	
-0.367586	-0.021228	0.83448	8.05	90.23	12.32	0.0112	0.1237	-0.5088	
-0.409066	0.000854	0.813984	9.45	89.95	13.44	0.0249	0.1291	-0.5106	
-0.45201	0.012566	0.80276	8.05	88.69	14.14	0.0342	0.1245	-0.5074	
-0.485682	0.015982	0.776286	5.74	87.22	13.16	0.0726	0.1235	-0.506	
-0.524478	-0.000244	0.757132	5.46	85.12	12.6	0.07889999	0.1163	-0.5058	
-0.547902	-0.004514	0.7381	6.02	84	11.97	0.0926	0.1201	-0.5014	
-0.578036	0.007686	0.711016	6.3	82.46	10.57	0.1021	0.1129	-0.5059	
-0.602314	0.002318	0.701988	5.25	80.71	9.94	0.1298	0.1093	-0.5059	
-0.621346	0.020496	0.685152	5.32	79.17	8.89	0.1357	0.116	-0.4968	
-0.653676	0.03538	0.669048	5.25	78.33	7.28	0.1509	0.1198	-0.4954	
-0.681858	0.030134	0.64599	4.83	77.07	6.93	0.1697	0.108	-0.4936	
-0.710772	0.016714	0.635986	6.44	75.18	6.16	0.1711	0.112	-0.4844	
-0.73139	0.02074	0.634278	5.95	72.8	4.76	0.1817	0.1176	-0.4939	
-0.74542	0.018544	0.616222	6.37	71.96	4.2	0.1957	0.107	-0.4797	
-0.750544	0.02562	0.608048	5.88	70.91	3.08	0.2138	0.1178	-0.477	
-0.77897	0.027572	0.58438	3.57	68.95	2.73	0.2217	0.1119	-0.4753	
-0.78019	0.020008	0.582062	3.99	68.25	2.52	0.2327	0.09869999	-0.4687	
-0.784826	0.023668	0.565592	6.86	69.02	2.8	0.2449	0.1039	-0.4627	
-0.803004	0.031598	0.543022	6.37	70	2.03	0.2601	0.1078	-0.4645	
-0.825696	0.030134	0.515084	4.97	70.07	1.61	0.2789	0.0932	-0.4641	
-0.868396	0.025864	0.471408	5.04	71.12	1.12	0.28	0.107	-0.4521	
-0.894626	0.030988	0.439444	5.74	71.05	-0.07	0.2972	0.09649999	-0.4472	
-0.90829	0.027084	0.415044	5.39	68.39	-1.68	0.3016	0.1018	-0.4365	
-0.887794	0.033672	0.37637	7.98	67.27	-2.8	0.3188	0.0883	-0.4252	
-0.908534	0.035502	0.36051	8.19	66.5	-3.99	0.3306	0.1033	-0.4148	
-0.896944	0.030134	0.363804	8.75	65.38	-4.83	0.3307	0.0988	-0.4054	
-0.92659	0.028914	0.367098	10.5	65.17	-6.02	0.3414	0.09999999	-0.407	
-0.923418	0.04392	0.340136	9.03	64.75	-6.09	0.3536	0.1022	-0.3947	
-0.934398	0.046482	0.311832	7.77	65.1	-5.81	0.3643	0.0988	-0.3837	
-0.959164	0.043798	0.27694	7.84	65.45	-5.39	0.3705	0.1002	-0.3885	
-0.971364	0.038186	0.2562	8.19	65.52	-4.76	0.38	0.0884	-0.3819	
-0.975634	0.041114	0.23485	8.54	62.79	-4.34	0.3967	0.09209999	-0.3759	
-0.966606	0.034282	0.223748	7.28	60.76	-4.06	0.3874	0.0937	-0.3728	
-0.988444	0.028548	0.203984	6.93	59.22	-4.83	0.4103	0.0984	-0.359	
-0.977342	0.033916	0.202032	7.14	57.47	-4.9	0.415	0.0924	-0.3511	
-0.975268	0.046848	0.193126	5.32	56.77	-4.69	0.4179	0.0977	-0.3419	
-0.991982	0.043066	0.17995	4.9	55.37	-3.92	0.4209	0.099	-0.3404	
-0.988688	0.049532	0.16043	4.41	55.93	-2.66	0.432	0.0856	-0.3261	
-0.994544	0.038552	0.144936	2.31	55.51	-2.45	0.4504	0.0852	-0.3261	
-0.989786	0.038674	0.113704	2.24	56.21	-2.94	0.4469	0.0962	-0.3124	
-0.998448	0.035258	0.096624	1.05	59.15	-2.66	0.4439	0.0948	-0.3108	
-0.994178	0.017202	0.077226	2.24	57.26	-4.34	0.4623	0.0927	-0.3015	
-1.009794	0.02135	0.039772	2.38	58.52	-5.18	0.4638	0.0954	-0.2969	
-1.008818	0.011468	0.007929999	3.57	57.12	-6.09	0.4669	0.0909	-0.2906	
-1.00833	0.018666	-0.016836	3.36	56.98	-6.37	0.4728	0.099	-0.2815	
-0.99247	0.030622	-0.028548	2.59	54.04	-7	0.4819	0.0997	-0.266	
-1.007476	0.026474	-0.0671	3.71	50.19	-7.14	0.4821	0.0927	-0.2658	
-1.032242	0.02013	-0.07991	9.8	47.39	-5.25	0.4852	0.0893	-0.2501	
-1.018334	0.030988	-0.089304	11.83	42.7	-4.2	0.4806	0.0896	-0.2548	
-1.048224	0.027206	-0.094794	11.48	41.02	-2.66	0.4975	0.0874	-0.2408	
-1.03944	0.01647	-0.095404	14.07	35	-1.68	0.4877	0.1091	-0.2507	
-1.022116	0.007564	-0.097234	18.62	34.02	-0.63	0.4926	0.0959	-0.2394	
-1.02541	0.013054	-0.089914	17.29	30.59	-1.96	0.5019	0.0913	-0.2331	
-0.998082	0.012444	-0.10004	14.91	28.84	-1.96	0.4958	0.0911	-0.2206	
-1.009428	0.011346	-0.120658	18.06	30.52	-1.05	0.5003	0.0907	-0.2082	
-1.012234	0.013176	-0.112362	19.32	31.08	0	0.5157	0.09079999	-0.2269	
-1.00711	0.007076	-0.104798	18.41	27.16	-0.77	0.505	0.08639999	-0.2127	
-1.008818	-0.003538	-0.126392	24.99	25.69	-2.17	0.5175	0.0802	-0.2033	
-1.019066	0.011102	-0.133102	28.91	25.97	-0.7	0.5158	0.0829	-0.1987	
-1.021994	0.006954	-0.137372	24.15	21.28	-3.22	0.5081	0.0843	-0.1878	
-1.009184	0.002196	-0.15311	24.71	20.09	-4.69	0.5141	0.08859999	-0.1957	
-1.006622	-0.006588	-0.163236	27.58	15.75	-3.43	0.5172	0.08549999	-0.1894	
-1.015894	0.00366	-0.153232	28.28	13.65	-3.08	0.5218	0.0852	-0.1832	
-1.014796	-0.00183	-0.173484	30.31	14.56	-3.01	0.519	0.0769	-0.1861	
-1.004182	0.016714	-0.179218	29.54	14.28	-1.68	0.5203	0.0836	-0.1738	
-0.99857	-0.001586	-0.194834	23.94	10.64	1.33	0.508	0.0854	-0.1785	
-1.010038	-0.023546	-0.20191	28.84	11.27	0.21	0.5143	0.0768	-0.1782	
-1.02358	-0.017324	-0.215574	36.75	12.18	1.68	0.5191	0.0725	-0.1828	
-1.028094	-0.015494	-0.21838	36.61	7.42	1.54	0.5188	0.0825	-0.1847	
-1.024922	-0.013908	-0.229116	37.03	8.75	4.06	0.5188	0.0823	-0.1784	
-1.016382	-0.016958	-0.23302	36.4	10.57	3.29	0.5161	0.0696	-0.1749	
-1.002962	-0.021228	-0.212402	34.23	9.1	0.28	0.5222	0.0694	-0.1765	
-1.001376	-0.023424	-0.222406	32.41	10.57	0.28	0.5238	0.0663	-0.1671	
-1.00833	-0.033184	-0.227408	30.94	13.3	3.15	0.5283	0.0692	-0.1719	
-1.02175	-0.04148	-0.254248	33.18	15.05	2.59	0.5252	0.0707	-0.1719	
-1.019798	-0.030012	-0.243512	31.85	15.05	4.48	0.524	0.0591	-0.1622	
-1.02114	-0.044164	-0.247294	27.65	12.32	1.19	0.5252	0.0722	-0.175	
-1.012722	-0.047336	-0.248514	27.37	7.56	2.73	0.5253	0.0647	-0.1592	
-0.996862	-0.032696	-0.238388	27.86	7.63	4.48	0.5301	0.0605	-0.1669	
-0.99735	-0.039772	-0.224602	23.17	7.28	2.52	0.5286	0.0545	-0.1512	
-0.996374	-0.040504	-0.229116	19.6	6.44	-0.07	0.5287	0.0547	-0.1605	
-0.996862	-0.047092	-0.23729	18.48	6.86	-1.82	0.5302	0.0545	-0.1527	
-1.001132	-0.049654	-0.231068	14.91	6.93	-1.26	0.5318	0.0501	-0.1511	
-1.00406	-0.040992	-0.234728	12.53	8.4	-0.98	0.5274	0.0447	-0.154	
-0.998448	-0.049044	-0.24705	11.34	7.98	-1.12	0.5133	0.058	-0.1637	
-1.008696	-0.044896	-0.248514	8.12	4.9	-0.77	0.5272	0.0532	-0.1542	
-1.008574	-0.047824	-0.260592	8.47	4.55	-2.03	0.5424	0.0569	-0.1498	
-1.004304	-0.047824	-0.256932	6.58	6.16	-1.47	0.5286	0.0543	-0.1449	
-1.000888	-0.060268	-0.254248	2.94	5.04	-0.63	0.5438	0.0581	-0.142	
-0.995642	-0.053924	-0.2562	4.27	4.83	-0.14	0.5317	0.0529	-0.148	
-0.994666	-0.058682	-0.24522	3.43	3.85	-0.21	0.5288	0.0471	-0.1416	
-0.990518	-0.046726	-0.238998	2.03	1.47	-0.7	0.5318	0.0486	-0.1463	
-0.99735	-0.05124	-0.253516	4.48	1.82	0.63	0.5272	0.0501	-0.1448	
-0.992592	-0.058072	-0.25132	3.57	0.42	1.05	0.521	0.0516	-0.1417	
-0.995886	-0.050508	-0.245708	1.54	0.63	2.1	0.5379	0.0498	-0.1433	
-0.999424	-0.046116	-0.253272	2.1	1.26	3.01	0.5363	0.0539	-0.1387	
-0.997716	-0.033916	-0.255712	2.24	0.98	2.17	0.5334	0.0456	-0.1416	
-1.001376	-0.05002	-0.249246	-2.03	0.07	1.05	0.5271	0.0543	-0.1434	
-1.004548	-0.04575	-0.250832	-4.62	-1.89	0.35	0.5365	0.0485	-0.1495	
-0.984662	-0.042334	-0.249734	-3.36	-2.73	3.64	0.5288	0.0442	-0.1384	
-0.9943	-0.038674	-0.250954	-1.96	-0.77	4.27	0.5301	0.057	-0.1435	
-0.998082	-0.045384	-0.247538	-2.17	-2.59	4.27	0.5272	0.0515	-0.1464	
-0.993568	-0.05063	-0.246074	-1.82	-3.5	3.64	0.5335	0.0457	-0.1463	
-1.002596	-0.043188	-0.255834	-0.56	-3.15	3.01	0.5303	0.0488	-0.1541	
-0.995154	-0.038186	-0.258396	-0.77	-3.85	2.73	0.5381	0.0458	-0.1525	
-0.998692	-0.036356	-0.260592	-3.78	-3.92	0.91	0.5274	0.0434	-0.1602	
-0.997106	-0.031354	-0.24949	-4.27	-4.13	1.75	0.5258	0.0446	-0.1493	
-0.998326	-0.03904	-0.256322	-4.76	-2.94	2.66	0.5317	0.0542	-0.145	
-0.999302	-0.043188	-0.251686	-4.83	-5.67	4.06	0.5227	0.0474	-0.1478	
-1.000156	-0.03843	-0.256688	-3.92	-6.51	3.71	0.5334	0.0473	-0.151	
-1.009916	-0.037454	-0.252174	-2.52	-6.3	2.59	0.526	0.0373	-0.1429	
-1.011014	-0.030988	-0.25315	-4.41	-7.49	2.1	0.5259	0.0416	-0.1446	
-1.014186	-0.034282	-0.246318	-8.26	-9.59	2.8	0.5212	0.0464	-0.1618	
-1.002108	-0.029158	-0.241194	-7.14	-12.25	3.29	0.5212	0.0478	-0.1603	
-1.012966	-0.033184	-0.236802	-6.79	-10.92	2.1	0.5257	0.0489	-0.151	
-1.023824	-0.03477	-0.249734	-8.12	-9.8	4.06	0.5213	0.0421	-0.157	
-1.025776	-0.027938	-0.249124	-10.15	-13.93	3.57	0.5274	0.045	-0.1665	
-1.024678	-0.030378	-0.245098	-9.8	-15.4	3.85	0.5151	0.0453	-0.1649	
-1.029802	-0.019032	-0.234362	-12.95	-17.5	4.69	0.529	0.0437	-0.1711	
-1.020896	-0.028792	-0.24339	-18.48	-17.92	7.42	0.5289	0.0464	-0.1665	
-1.021994	-0.010248	-0.246562	-17.15	-14.49	8.61	0.5244	0.0453	-0.1758	
-1.025532	-0.015616	-0.234606	-23.31	-14.77	7.91	0.5288	0.0553	-0.1824	
-1.020286	-0.022448	-0.24461	-28.42	-18.48	5.81	0.512	0.0514	-0.1806	
-1.043222	-0.005124	-0.24949	-28.49	-18.83	5.88	0.5197	0.0497	-0.1775	
-1.049078	-0.02074	-0.239608	-28	-23.8	6.23	0.5154	0.0386	-0.1818	
-1.039318	-0.02989	-0.22326	-24.5	-28.07	5.25	0.5167	0.0488	-0.1914	
-1.032608	-0.023546	-0.22387	-24.78	-30.1	6.37	0.5277	0.0431	-0.2022	
-1.031144	-0.001098	-0.219234	-25.48	-30.52	5.39	0.5197	0.0533	-0.2056	
-1.026996	0.013542	-0.199348	-33.46	-32.41	4.76	0.509	0.0505	-0.1961	
-1.002596	0.027938	-0.213622	-47.88	-34.23	5.95	0.5092	0.0464	-0.2038	
-1.01321	0.003294	-0.211304	-60.41	-38.92	6.65	0.4999	0.0513	-0.2195	
-1.015162	0.009393999	-0.158478	-48.65	-40.04	13.58	0.5028	0.0555	-0.2181	
-1.010038	-0.027084	-0.102358	-27.51	-39.9	13.86	0.5045	0.0514	-0.2273	
-1.040172	-0.062098	-0.09882	-19.18	-45.78	13.58	0.4969	0.0519	-0.2366	
-1.026874	-0.029646	-0.082716	-35.14	-60.55	11.55	0.5016	0.0488	-0.2319	
-0.997472	0.02867	-0.055754	-76.16	-74.41	4.55	0.4938	0.0554	-0.2601	
-0.953674	0.09455	-0.051606	-87.43	-59.22	-2.1	0.4829	0.0628	-0.2602	
-0.955382	0.092476	0.032574	-60.41	-64.82	3.57	0.4752	0.0675	-0.2712	
-0.994666	0.02501	0.106018	-36.82	-65.59	6.09	0.4674	0.0724	-0.2885	
-0.949038	-0.01403	0.13542	-17.5	-71.61	8.33	0.4614	0.0683	-0.2868	
-0.906826	0.046848	0.206546	-16.24	-64.12	3.99	0.4612	0.0801	-0.3042	
-0.948916	0.089426	0.263398	-21.77	-46.9	4.83	0.4569	0.0692	-0.3164	
-0.938546	0.07442	0.293898	-24.5	-44.03	2.87	0.4474	0.0792	-0.3135	
-0.940742	0.080032	0.2501	-9.31	-40.39	-2.03	0.4364	0.0926	-0.3278	
-0.962214	0.088816	0.210938	-3.99	-37.87	-2.1	0.4414	0.0784	-0.3274	
-0.9638	0.088084	0.196054	-7.14	-37.94	0.21	0.4446	0.0743	-0.3382	
-0.981978	0.055266	0.18544	-1.75	-36.33	1.26	0.4491	0.0783	-0.3337	
-0.945744	0.067954	0.22082	-0.07	-35.84	0.91	0.4354	0.0746	-0.3398	
-0.978684	0.082228	0.251564	-2.38	-33.53	0.91	0.4244	0.08639999	-0.3494	
-0.967948	0.083692	0.282552	-2.45	-32.13	2.87	0.4182	0.0866	-0.3494	
-0.953674	0.083692	0.312198	0.77	-28	2.8	0.4123	0.07669999	-0.3444	
-0.943304	0.08784	0.318176	0.42	-24.22	1.33	0.417	0.0753	-0.3475	
-0.92903	0.083448	0.33001	-0.63	-21.84	0.56	0.4153	0.0827	-0.3586	
-0.914634	0.07991	0.337818	-1.96	-20.02	-0.91	0.4169	0.0815	-0.3695	
-0.912316	0.07991	0.341234	-3.92	-17.5	-1.68	0.4035	0.0676	-0.3674	
-0.921344	0.089182	0.342942	-2.8	-14.84	-1.54	0.4001	0.07759999	-0.3677	
-0.934154	0.096502	0.334402	-6.16	-13.09	-2.31	0.3861	0.085	-0.3663	
-0.958554	0.088328	0.338062	-4.76	-12.81	-4.34	0.3893	0.0809	-0.3724	
-0.956968	0.087352	0.328912	-3.92	-13.09	-6.51	0.4	0.0835	-0.3757	
-0.95648	0.089914	0.321836	-3.43	-11.55	-8.05	0.3846	0.08679999	-0.3788	
-0.951844	0.074176	0.3294	-1.68	-10.99	-8.4	0.3891	0.088	-0.3742	
-0.94733	0.063562	0.347456	-0.7	-12.53	-10.64	0.3877	0.0821	-0.3647	
-0.94367	0.06527	0.349652	0.56	-14.49	-13.58	0.3893	0.0809	-0.374	
-0.93574	0.086254	0.360266	-0.07	-15.75	-16.38	0.386	0.0924	-0.3759	
-0.942084	0.085522	0.354166	-2.17	-14.84	-18.69	0.3845	0.09119999	-0.3836	
-0.934032	0.053802	0.356972	-0.42	-14.91	-21.07	0.3767	0.097	-0.3822	
-0.94428	0.052948	0.35563	2.66	-13.44	-22.75	0.3705	0.0972	-0.3853	
-0.93818	0.046604	0.348432	2.87	-15.68	-23.52	0.3797	0.1014	-0.3901	
-0.93757	0.042822	0.34953	-0.42	-17.43	-24.78	0.372	0.0986	-0.3838	
-0.932568	0.02623	0.36173	-5.18	-22.33	-29.33	0.3763	0.1127	-0.3858	
-0.925736	0.006344	0.365146	-3.22	-20.86	-33.25	0.364	0.1133	-0.3982	
-0.92232	0.012566	0.362584	-1.54	-20.02	-38.15	0.3718	0.109	-0.4012	
-0.91683	0.019886	0.360998	-5.04	-16.66	-39.55	0.3593	0.1146	-0.3904	
-0.919636	-0.000244	0.37027	-3.64	-15.12	-40.6	0.356	0.1277	-0.4001	
-0.915244	-0.005856	0.37759	-1.61	-13.58	-41.44	0.3604	0.1333	-0.4003	
-0.921832	-0.035746	0.392962	-0.21	-13.86	-41.65	0.3622	0.1263	-0.4048	
-0.91866	-0.045506	0.405772	1.12	-13.51	-43.68	0.3543	0.135	-0.405	
-0.91256	-0.05612	0.40809	-0.77	-14.77	-45.29	0.3433	0.1408	-0.4004	
-0.910852	-0.068442	0.398818	1.05	-13.16	-46.41	0.3448	0.1437	-0.4037	
-0.911584	-0.075274	0.393694	-0.21	-14.49	-47.81	0.3325	0.147	-0.4115	
-0.899872	-0.088328	0.391864	-4.27	-15.12	-48.72	0.3402	0.1454	-0.4115	
-0.903166	-0.125294	0.400892	-6.93	-18.27	-48.65	0.3428	0.1623	-0.4104	
-0.887306	-0.144448	0.39284	-11.48	-20.37	-51.24	0.3398	0.161	-0.4119	
-0.882304	-0.171654	0.3965	-8.47	-12.95	-52.01	0.3242	0.1686	-0.4152	
-0.896578	-0.195566	0.407724	-6.37	-5.04	-52.85	0.3224	0.1769	-0.4076	
-0.904386	-0.239242	0.380396	-9.38	-3.29	-54.81	0.3117	0.1772	-0.4107	
-0.881572	-0.26413	0.388082	-11.27	-0.63	-55.37	0.3163	0.1789	-0.4232	
-0.869128	-0.319274	0.376858	-10.22	1.68	-57.61	0.2991	0.1875	-0.4141	
-0.878156	-0.336842	0.38186	-11.62	1.05	-57.33	0.3114	0.1903	-0.422	
-0.850096	-0.327204	0.376126	-13.09	-3.08	-57.82	0.3052	0.1917	-0.4173	
-0.826184	-0.318176	0.366976	-13.65	-5.39	-60.13	0.2894	0.2076	-0.4146	
-0.799954	-0.332572	0.394914	-15.54	-7.7	-58.87	0.3	0.213	-0.4133	
-0.794708	-0.341722	0.386008	-12.39	-8.61	-58.1	0.292	0.226	-0.4167	
-0.822158	-0.373686	0.366976	-15.33	-10.22	-54.53	0.292	0.2232	-0.4182	
-0.832284	-0.3904	0.382592	-13.37	-12.25	-50.96	0.2808	0.2419	-0.4171	
-0.803736	-0.428586	0.41114	-9.87	-15.05	-48.58	0.2884	0.2463	-0.4313	
-0.798124	-0.510204	0.405528	-6.09	-14.56	-45.22	0.2623	0.2437	-0.4155	
-0.813984	-0.470554	0.391132	-6.51	-13.16	-43.89	0.2671	0.2378	-0.4107	
-0.798246	-0.47214	0.391986	-9.38	-12.32	-38.08	0.2591	0.2482	-0.4203	
-0.745664	-0.458598	0.401624	-8.96	-14.42	-35.35	0.2559	0.2524	-0.4158	
-0.767258	-0.520452	0.443958	-8.75	-12.6	-35.21	0.2575	0.2525	-0.422	
-0.7442	-0.542168	0.432856	-4.9	-11.55	-33.46	0.2529	0.2526	-0.4204	
-0.752008	-0.560224	0.439932	-12.67	-10.08	-29.61	0.2461	0.2755	-0.4257	
-0.710406	-0.556076	0.461648	-14.28	-12.25	-28.14	0.2509	0.2712	-0.4287	
-0.716628	-0.564128	0.444934	-12.11	-10.71	-30.45	0.2446	0.2756	-0.4273	
-0.71553	-0.595238	0.43432	-11.62	-11.06	-30.8	0.2276	0.2819	-0.4352	
-0.70699	-0.593774	0.415898	-9.87	-9.59	-26.25	0.2307	0.2756	-0.4163	
-0.70699	-0.596946	0.397598	-8.47	-10.22	-22.47	0.2305	0.2843	-0.4228	
-0.662582	-0.5551	0.391132	-4.55	-12.53	-19.95	0.2256	0.2956	-0.4184	
-0.684542	-0.56303	0.377712	-2.1	-14	-17.01	0.2228	0.2905	-0.4338	
-0.70516	-0.552172	0.41175	-0.91	-17.57	-19.11	0.226	0.2816	-0.4227	
-0.659532	-0.52887	0.409676	1.61	-21.21	-18.9	0.2088	0.2948	-0.423	
-0.675514	-0.549	0.446032	-3.99	-20.37	-19.04	0.2028	0.2893	-0.4228	
-0.640622	-0.554124	0.45567	-5.88	-24.01	-21.63	0.2105	0.2892	-0.4275	
-0.647332	-0.568032	0.453596	-9.03	-23.24	-26.11	0.1904	0.2925	-0.426	
-0.644526	-0.590114	0.477508	-9.31	-23.38	-28.63	0.1981	0.2938	-0.4291	
-0.626348	-0.606096	0.466894	-8.61	-22.33	-28.98	0.1857	0.2953	-0.4229	
-0.636352	-0.634156	0.46116	-10.64	-19.25	-27.79	0.1796	0.2958	-0.4338	
-0.597678	-0.645746	0.458354	-9.17	-18.34	-23.87	0.1686	0.3046	-0.4355	
-0.61305	-0.670634	0.477142	-7.7	-17.99	-22.19	0.1827	0.2955	-0.4244	
-0.590358	-0.664168	0.493246	-5.25	-16.31	-19.95	0.1608	0.3089	-0.4294	
-0.580476	-0.675636	0.494832	-6.09	-14.56	-16.87	0.1518	0.3023	-0.4385	
-0.569252	-0.659654	0.498492	-6.79	-11.83	-14.98	0.1622	0.3146	-0.4327	
-0.559614	-0.646478	0.507764	-7.84	-10.92	-14.77	0.153	0.3162	-0.4296	
-0.562664	-0.66856	0.502396	-6.65	-10.15	-13.44	0.1533	0.3065	-0.4402	
-0.56242	-0.684908	0.481778	-5.32	-10.29	-11.27	0.1438	0.3119	-0.4216	
-0.536312	-0.71004	0.488366	-1.89	-11.27	-11.27	0.136	0.3165	-0.4279	
-0.564006	-0.722728	0.484096	1.82	-8.61	-9.59	0.1391	0.3165	-0.4311	
-0.544852	-0.714798	0.49959	3.01	-8.12	-6.93	0.1389	0.3249	-0.4251	
-0.541314	-0.710284	0.498492	6.09	-5.53	-6.16	0.1377	0.3139	-0.4357	
-0.540582	-0.701378	0.507398	6.86	-5.25	-6.44	0.1435	0.3266	-0.4423	
-0.534604	-0.6649	0.481412	9.03	-3.22	-4.06	0.1284	0.3155	-0.4357	
-0.547536	-0.674782	0.47214	6.3	-4.48	-0.14	0.1409	0.308	-0.4324	
-0.543266	-0.700646	0.49715	4.41	-5.88	0.98	0.1286	0.3116	-0.4464	
-0.534482	-0.690154	0.518134	4.34	-4.27	3.15	0.136	0.3182	-0.4373	
-0.524722	-0.696864	0.52826	3.29	-4.41	1.82	0.1379	0.3067	-0.4339	
-0.494222	-0.675148	0.539362	1.61	-2.1	1.12	0.1302	0.3056	-0.4354	
-0.503616	-0.638182	0.533506	0.21	-0.21	3.22	0.1348	0.31	-0.4464	
-0.527894	-0.617564	0.53497	-2.31	1.12	6.79	0.1317	0.3099	-0.4402	
-0.496906	-0.648674	0.5002	2.66	-1.68	3.85	0.1318	0.3058	-0.4447	
-0.512766	-0.668926	0.505934	-1.33	2.52	5.39	0.13	0.3142	-0.4403	
-0.48861	-0.64233	0.52338	2.73	6.16	6.86	0.1364	0.3055	-0.4385	
-0.52155	-0.595238	0.533262	7.35	9.52	4.48	0.1378	0.3112	-0.4418	
-0.549976	-0.634644	0.512888	8.89	7.35	4.41	0.1394	0.3083	-0.4402	
-0.53741	-0.627812	0.506666	9.31	8.05	0.63	0.1442	0.3025	-0.44	
-0.548146	-0.587308	0.521184	10.71	11.48	0.28	0.1408	0.3125	-0.4419	
-0.56974	-0.610366	0.51972	15.68	13.16	1.54	0.1425	0.3068	-0.4417	
-0.613416	-0.666974	0.523136	12.11	14.14	2.87	0.1518	0.3021	-0.4323	
-0.580232	-0.641476	0.474702	22.96	12.67	-2.31	0.1399	0.2913	-0.4412	
-0.603168	-0.625128	0.48068	18.27	7.63	-2.1	0.1487	0.3068	-0.4464	
-0.62708	-0.633546	0.49593	20.09	6.44	-2.38	0.1519	0.304	-0.451	
-0.646234	-0.617686	0.514352	17.29	3.92	-1.89	0.149	0.2924	-0.4382	
-0.620736	-0.622688	0.485804	16.03	-0.42	-0.49	0.1537	0.2911	-0.446	
-0.61671	-0.613782	0.515938	11.34	1.75	-1.61	0.1587	0.2785	-0.4565	
-0.592554	-0.597556	0.522038	10.29	2.45	-0.14	0.1525	0.2768	-0.4409	
-0.586576	-0.588162	0.537898	6.23	4.2	3.01	0.1632	0.284	-0.4552	
-0.586942	-0.600606	0.533018	4.48	4.55	4.76	0.1461	0.2885	-0.4474	
-0.563152	-0.618174	0.533994	6.58	4.06	4.27	0.1617	0.2797	-0.4519	
-0.551318	-0.597556	0.53009	9.73	6.02	2.94	0.1541	0.2756	-0.4486	
-0.5795	-0.572424	0.514474	9.03	8.89	2.03	0.157	0.2827	-0.4504	
-0.608048	-0.54839	0.517646	3.99	9.52	0.84	0.154	0.2797	-0.4425	
-0.622566	-0.54717	0.513254	-0.56	7.35	-2.17	0.1573	0.2743	-0.4564	
-0.612318	-0.563396	0.503006	-3.22	5.32	-2.17	0.16	0.2869	-0.4537	
-0.612318	-0.552294	0.499712	-4.9	6.02	-1.82	0.168	0.2722	-0.4408	
-0.596336	-0.550952	0.49898	-6.37	5.53	-3.01	0.1631	0.2837	-0.4442	
-0.605608	-0.557418	0.509472	-8.33	4.9	-3.43	0.1648	0.2781	-0.4472	
-0.601338	-0.554978	0.51362	-9.17	3.43	-2.1	0.1693	0.2792	-0.4379	
-0.619638	-0.577548	0.505446	-7.84	0.98	-3.5	0.1646	0.2849	-0.4349	
-0.612928	-0.602924	0.496784	-9.1	-0.35	-4.62	0.1631	0.2853	-0.4505	
-0.61122	-0.607926	0.495198	-7.77	-0.77	-6.16	0.1659	0.2965	-0.4462	
-0.607438	-0.617198	0.487024	-5.67	-3.5	-7.63	0.155	0.298	-0.44	
-0.59902	-0.623176	0.493612	-4.62	-3.36	-6.93	0.1631	0.2835	-0.4365	
-0.603412	-0.60817	0.499712	-3.36	-3.36	-8.05	0.1692	0.2863	-0.4381	
-0.590602	-0.611708	0.49227	-3.22	-4.55	-6.65	0.1611	0.3009	-0.4479	
-0.589748	-0.622078	0.494588	-3.64	-4.55	-4.97	0.1554	0.2855	-0.4505	
-0.581208	-0.619272	0.49837	-3.99	-4.48	-4.83	0.1474	0.2969	-0.4446	
-0.582306	-0.633424	0.498736	-6.72	-4.55	-3.71	0.1523	0.2854	-0.4411	
-0.566934	-0.633302	0.508374	-7.84	-3.15	-1.75	0.1489	0.2983	-0.4462	
-0.58621	-0.632814	0.496784	-7.56	-2.45	-1.68	0.1444	0.2941	-0.4429	
-0.580842	-0.638914	0.496296	-7.63	-2.45	-1.05	0.1489	0.2982	-0.443	
-0.576938	-0.634766	0.491538	-8.05	-2.59	-0.91	0.1534	0.3009	-0.4416	
-0.570106	-0.63501	0.504104	-7.07	-1.12	-0.77	0.152	0.2965	-0.4352	
-0.57157	-0.643306	0.49654	-7.35	-2.24	-1.05	0.1471	0.3052	-0.437	
-0.557418	-0.643184	0.498492	-6.51	-2.66	-2.38	0.1565	0.2994	-0.4416	
-0.564128	-0.65697	0.493978	-5.18	-2.38	-0.49	0.1579	0.3035	-0.4355	
-0.562298	-0.654774	0.496052	-5.6	-2.59	-0.91	0.1486	0.3081	-0.4402	
-0.558516	-0.659532	0.493002	-4.48	-1.54	-0.42	0.1456	0.3037	-0.4338	
-0.555954	-0.671854	0.49166	-2.8	-0.7	0.07	0.1504	0.2964	-0.4305	
-0.565836	-0.675026	0.487512	-0.63	0.21	0.35	0.1453	0.3151	-0.4342	
-0.565592	-0.67283	0.493124	0	0.28	0.98	0.147	0.3108	-0.4356	
-0.569008	-0.68015	0.487024	1.12	0.28	2.1	0.138	0.3041	-0.4416	
-0.564006	-0.66673	0.493734	2.03	1.54	3.08	0.1502	0.3081	-0.4418	
-0.567666	-0.672464	0.500688	1.19	1.96	3.85	0.1551	0.2937	-0.4398	
-0.564494	-0.667828	0.501908	1.96	3.22	5.67	0.1534	0.3024	-0.4447	
-0.575718	-0.678686	0.498736	2.94	2.87	8.54	0.1593	0.3108	-0.445	
-0.575474	-0.677222	0.500566	3.99	2.52	10.78	0.152	0.2953	-0.443	
-0.58011	-0.679174	0.507032	4.9	1.89	13.3	0.1428	0.2953	-0.4336	
-0.581208	-0.68137	0.512156	7.35	0.35	16.38	0.1521	0.2937	-0.4367	
-0.583038	-0.673318	0.521916	10.15	2.17	18.62	0.1614	0.2892	-0.4366	
-0.588406	-0.678564	0.5185	12.88	2.87	22.19	0.1551	0.2982	-0.4477	
-0.58987	-0.667462	0.51423	15.54	6.79	26.6	0.1658	0.2948	-0.4368	
-0.594994	-0.64904	0.513254	17.22	9.03	32.48	0.1626	0.3023	-0.4495	
-0.597556	-0.657214	0.51301	16.87	9.24	38.64	0.169	0.2934	-0.4399	
-0.592554	-0.654896	0.506544	17.43	10.36	41.65	0.169	0.2905	-0.4367	
-0.607072	-0.632082	0.506666	17.5	12.04	43.68	0.1846	0.283	-0.4365	
-0.618418	-0.63135	0.516426	19.11	12.39	47.18	0.1803	0.2749	-0.4472	
-0.63135	-0.60634	0.507642	23.17	14.84	50.75	0.1956	0.273	-0.4441	
-0.646966	-0.574864	0.52582	23.38	18.34	55.23	0.1882	0.2646	-0.4407	
-0.638792	-0.540216	0.520086	24.36	19.95	58.59	0.1961	0.2578	-0.4561	
-0.658556	-0.507398	0.496418	25.62	21.77	61.74	0.2176	0.257	-0.4468	
-0.687958	-0.51667	0.49898	26.25	21.77	64.61	0.2164	0.2428	-0.4464	
-0.708698	-0.522282	0.496418	28.7	20.51	65.17	0.2255	0.2482	-0.442	
-0.698694	-0.506666	0.494222	30.24	22.05	63.56	0.2289	0.2353	-0.4416	
-0.698572	-0.471774	0.490318	30.94	23.52	63.07	0.237	0.2211	-0.4474	
-0.723826	-0.429684	0.486536	29.26	27.44	62.23	0.2477	0.222	-0.4366	
-0.762134	-0.41541	0.47702	24.78	26.04	63.56	0.2542	0.2093	-0.4441	
-0.787632	-0.38857	0.466528	26.6	24.64	62.93	0.2715	0.1932	-0.4406	
-0.8113	-0.356972	0.457988	27.86	25.13	63.98	0.2699	0.1947	-0.4437	
-0.81618	-0.32086	0.44957	27.44	24.15	63.28	0.2669	0.1904	-0.4373	
-0.811666	-0.29341	0.440786	28.28	21.14	62.93	0.2826	0.1801	-0.4371	
-0.827282	-0.283406	0.459208	27.79	20.51	65.1	0.2846	0.1618	-0.4428	
-0.817888	-0.24522	0.433588	27.86	17.78	65.52	0.2969	0.1613	-0.4351	
-0.83814	-0.229848	0.450424	26.67	19.81	66.01	0.308	0.1482	-0.4332	
-0.845338	-0.195322	0.441518	26.04	17.22	65.8	0.3112	0.141	-0.4314	
-0.845948	-0.15677	0.44164	23.52	17.99	67.83	0.3116	0.1253	-0.4263	
-0.867298	-0.131394	0.454572	18.9	16.73	70.7	0.3227	0.1122	-0.4244	
-0.859368	-0.115412	0.443592	18.62	12.81	70.77	0.3213	0.1081	-0.4274	
-0.86437	-0.099796	0.44835	19.6	11.62	71.47	0.326	0.1037	-0.4257	
-0.866566	-0.072956	0.428342	15.89	13.23	72.73	0.3248	0.09079999	-0.4191	
-0.872422	-0.046604	0.412482	14.35	12.88	74.48	0.3264	0.09079999	-0.4191	
-0.887672	-0.032208	0.413946	12.04	11.9	74.69	0.3391	0.0719	-0.4124	
-0.88084	0.010004	0.406504	10.57	9.24	72.52	0.3253	0.0708	-0.4107	
-0.886086	0.045384	0.405162	4.62	6.51	72.17	0.3286	0.0639	-0.4215	
-0.879742	0.065514	0.403576	6.23	4.69	72.03	0.3428	0.0507	-0.4196	
-0.88572	0.08113	0.423096	7.49	3.92	74.06	0.3355	0.0381	-0.4176	
-0.857416	0.10431	0.410774	9.45	0.7	73.78	0.3293	0.0382	-0.4145	
-0.849242	0.142374	0.417606	6.3	1.26	72.94	0.3354	0.0381	-0.4145	
-0.844362	0.1769	0.421388	3.64	0.91	70.56	0.3234	0.0269	-0.4094	
-0.848388	0.196176	0.422608	1.33	-1.33	69.02	0.3298	0.0184	-0.4139	
-0.86071	0.224968	0.426146	2.38	-0.49	68.6	0.3254	0.013	-0.4199	
-0.854854	0.249612	0.414678	4.27	-2.24	67.83	0.3303	-0.0015	-0.4086	
-0.840702	0.270108	0.415532	7.14	-2.31	67.27	0.3321	-0.0101	-0.4068	
-0.844484	0.303048	0.426268	7.7	-0.63	64.96	0.3151	-0.0022	-0.421	
-0.843874	0.317688	0.431636	10.64	0.7	64.12	0.32	-0.0152	-0.4144	
-0.826428	0.335012	0.419314	15.96	3.08	61.74	0.317	-0.0211	-0.4049	
-0.825696	0.359534	0.419924	15.54	4.13	60.2	0.3112	-0.0309	-0.4045	
-0.807884	0.374662	0.410042	14.91	4.62	60.06	0.3144	-0.0351	-0.4091	
-0.803492	0.395524	0.404674	17.78	7.84	59.08	0.3097	-0.0352	-0.4013	
-0.801174	0.426268	0.38552	14.77	9.94	57.33	0.3179	-0.0505	-0.4165	
-0.796416	0.438346	0.398696	16.17	6.65	57.75	0.3071	-0.052	-0.4023	
-0.790072	0.460916	0.379176	21.07	3.08	60.2	0.3106	-0.066	-0.4113	
-0.793488	0.488732	0.372832	19.67	0.84	59.29	0.2968	-0.069	-0.394	
-0.800198	0.524966	0.37454	16.73	1.47	55.79	0.3003	-0.0845	-0.3998	
-0.794952	0.551684	0.373198	14.28	-1.75	53.06	0.294	-0.0818	-0.3874	
-0.780434	0.548756	0.371734	19.39	-3.08	49.35	0.2928	-0.09299999	-0.3902	
-0.768966	0.554734	0.378322	21.07	-3.5	45.57	0.2852	-0.0957	-0.3916	
-0.74176	0.554124	0.372466	22.33	-4.76	44.66	0.2948	-0.1083	-0.4053	
-0.73444	0.57462	0.355142	24.01	-3.01	42.21	0.2902	-0.1133	-0.3724	
-0.727364	0.586088	0.35441	26.04	-2.52	39.62	0.2825	-0.11	-0.3803	
-0.735538	0.586332	0.354288	28.35	-2.73	36.26	0.2871	-0.1084	-0.3928	
-0.733098	0.585844	0.347822	24.22	-8.96	36.26	0.2801	-0.1357	-0.3717	
-0.732976	0.627324	0.368928	24.99	-7.77	34.86	0.2783	-0.1254	-0.3845	
-0.717604	0.659654	0.371734	22.26	-8.4	34.72	0.2662	-0.1337	-0.381	
-0.704794	0.69906	0.36295	19.74	-9.17	35.35	0.259	-0.152	-0.3758	
-0.700158	0.689056	0.357704	22.54	-7.91	36.4	0.2604	-0.1464	-0.3744	
-0.692106	0.689666	0.347334	23.1	-5.95	34.16	0.2651	-0.1508	-0.3758	
-0.674172	0.695278	0.331352	21.98	-6.93	30.8	0.2482	-0.1506	-0.3664	
-0.669536	0.69662	0.324032	22.75	-6.23	29.12	0.2579	-0.1663	-0.3691	
-0.652334	0.720654	0.321958	21.84	-5.88	26.6	0.2426	-0.1717	-0.3642	
-0.64782	0.716384	0.323422	20.65	-7.14	24.85	0.2443	-0.1774	-0.3672	
-0.64416	0.72163	0.328912	21.07	-7.7	22.47	0.2334	-0.1701	-0.3627	
-0.629642	0.721752	0.336232	21.56	-7.56	20.3	0.2321	-0.1786	-0.364	
-0.62342	0.725534	0.324642	21.91	-8.19	19.81	0.2322	-0.1829	-0.3592	
-0.614392	0.725412	0.331474	17.99	-5.25	18.9	0.2338	-0.1858	-0.3591	
-0.616954	0.742492	0.319396	12.6	-6.86	18.83	0.217	-0.1881	-0.3652	
-0.621468	0.776896	0.319762	12.39	-6.44	17.36	0.2263	-0.1912	-0.362	
-0.617076	0.775554	0.327814	11.41	-7.91	17.08	0.2261	-0.1842	-0.3591	
-0.609146	0.774822	0.315858	12.74	-8.61	16.66	0.2247	-0.19	-0.3542	
-0.599996	0.785802	0.32635	11.62	-6.65	14.56	0.2108	-0.1865	-0.3652	
-0.594018	0.777262	0.318298	6.93	-7.21	13.3	0.205	-0.2007	-0.3585	
-0.590846	0.784582	0.311222	7.49	-5.95	11.13	0.2124	-0.1926	-0.3494	
-0.589382	0.777384	0.306464	7	-4.13	9.59	0.2067	-0.2065	-0.3537	
-0.582306	0.773724	0.315736	10.01	-5.95	7.98	0.2097	-0.2067	-0.3506	
-0.572302	0.760548	0.323788	10.5	-6.23	6.58	0.2113	-0.205	-0.36	
-0.567422	0.759084	0.336842	11.27	-4.48	5.74	0.1975	-0.2078	-0.3489	
-0.568398	0.747128	0.33001	11.97	-4.34	5.88	0.2022	-0.2121	-0.3504	
-0.567422	0.75762	0.322202	7.49	-3.36	5.95	0.2037	-0.211	-0.341	
-0.576938	0.767502	0.318664	5.11	-4.13	6.23	0.2118	-0.2251	-0.35	
-0.57828	0.786168	0.315858	4.83	-4.34	5.95	0.1992	-0.2149	-0.3518	
-0.573644	0.784826	0.319762	4.34	-4.76	7.21	0.2023	-0.218	-0.3439	
-0.58255	0.791536	0.326838	2.8	-3.92	7.63	0.2022	-0.2105	-0.3597	
-0.584136	0.798368	0.322324	0.35	-3.57	7.49	0.199	-0.2079	-0.3473	
-0.587186	0.788852	0.321836	-1.05	-3.92	7	0.1945	-0.2135	-0.344	
-0.581818	0.79178	0.332328	-1.05	-3.43	6.86	0.1993	-0.2179	-0.3424	
-0.57035	0.77958	0.33977	-1.47	-3.08	5.6	0.2055	-0.2207	-0.3501	
-0.57157	0.78263	0.333548	0.42	-1.33	3.71	0.1839	-0.2145	-0.3517	
-0.564372	0.777994	0.33306	1.33	0	2.66	0.1932	-0.2204	-0.3501	
-0.561688	0.772748	0.322812	1.12	0.91	2.59	0.1915	-0.2147	-0.3502	
-0.575596	0.783972	0.317444	1.47	2.45	1.19	0.19	-0.2149	-0.3424	
-0.581818	0.765306	0.307562	1.68	1.61	-0.42	0.1856	-0.22	-0.3578	
-0.571204	0.763232	0.312564	1.4	0.56	-0.63	0.1854	-0.2145	-0.3518	
-0.573156	0.757132	0.314028	1.47	0.21	-0.63	0.1978	-0.219	-0.3532	
-0.564616	0.765916	0.32513	1.96	-0.07	-0.98	0.1838	-0.2117	-0.3487	
-0.555466	0.760548	0.3294	1.96	0.56	0	0.1946	-0.2147	-0.3518	
-0.551562	0.76982	0.316346	3.85	0.7	0.77	0.1992	-0.215	-0.3471	
-0.564494	0.765672	0.314028	2.24	0.98	1.89	0.1914	-0.2106	-0.3457	
-0.568032	0.762622	0.31354	2.38	1.05	1.4	0.1979	-0.2248	-0.3484	
-0.561688	0.77653	0.315492	2.17	0.63	1.05	0.1885	-0.2177	-0.3408	
-0.568642	0.776286	0.310856	-0.14	0.14	1.05	0.1961	-0.2137	-0.3394	
-0.57218	0.779824	0.309758	0.49	0.42	1.82	0.1837	-0.2121	-0.3331	
-0.580354	0.777628	0.309148	0.07	0.63	2.17	0.1915	-0.2146	-0.3533	
-0.580598	0.784094	0.31293	-0.56	0.84	1.4	0.1948	-0.2234	-0.3469	
-0.571692	0.779824	0.306952	-1.19	0.49	1.12	0.1856	-0.223	-0.3531	
-0.58133	0.779336	0.30439	-1.4	0.84	0.84	0.1885	-0.2192	-0.3392	
-0.579134	0.771284	0.30012	-2.24	0.28	0.28	0.1867	-0.2063	-0.3411	
-0.582916	0.772626	0.304268	-1.68	0.07	0.28	0.187	-0.2174	-0.3517	
-0.577182	0.776896	0.30683	-1.12	-0.42	0.21	0.1854	-0.2177	-0.3392	
-0.572912	0.775554	0.31354	-0.63	-0.21	-0.21	0.173	-0.2115	-0.3471	
-0.57706	0.783362	0.317078	0.7	0.14	-0.98	0.1965	-0.2274	-0.3561	
-0.579744	0.78446	0.315736	0.7	0.14	-1.54	0.1931	-0.2179	-0.3392	
-0.57889	0.778482	0.304634	0.21	0.07	-1.96	0.1949	-0.2276	-0.3467	
-0.580964	0.784094	0.295362	-0.21	0	-2.94	0.1853	-0.2132	-0.3471	
-0.584258	0.781654	0.303902	-1.75	0.14	-3.08	0.1917	-0.2203	-0.3516	
-0.576694	0.787388	0.30683	-2.73	-0.35	-3.22	0.1902	-0.2219	-0.3453	
-0.576084	0.784338	0.301584	-2.8	-0.42	-2.73	0.1963	-0.2207	-0.3438	
-0.579256	0.78629	0.307562	-4.55	0.21	-2.73	0.1994	-0.2207	-0.347	
-0.57889	0.784948	0.305732	-5.67	-0.21	-2.73	0.1885	-0.2146	-0.3502	
-0.584014	0.794708	0.308538	-5.67	0.21	-3.99	0.1886	-0.219	-0.3454	
-0.57645	0.783972	0.313296	-6.58	-0.84	-4.83	0.1929	-0.2106	-0.3457	
-0.571814	0.788242	0.31781	-7.07	-1.4	-6.37	0.2024	-0.2192	-0.3517	
-0.5795	0.793366	0.321348	-7.49	-1.19	-7.91	0.1976	-0.2152	-0.3393	
-0.592066	0.798124	0.318176	-8.96	-0.91	-9.87	0.2019	-0.2026	-0.3382	
-0.592432	0.808006	0.316346	-9.94	-2.24	-12.04	0.1915	-0.2131	-0.3581	
-0.585844	0.81008	0.314394	-11.41	-2.45	-14.28	0.1942	-0.2007	-0.3491	
-0.59231	0.826306	0.320616	-13.16	-1.75	-15.82	0.2128	-0.2053	-0.3522	
-0.596824	0.815936	0.322934	-16.03	-2.59	-17.5	0.2128	-0.2053	-0.3522	
-0.592554	0.816668	0.330742	-16.8	-3.08	-20.16	0.2096	-0.199	-0.3726	
-0.58987	0.798612	0.34099	-16.73	-2.31	-21.91	0.1973	-0.2004	-0.3616	
-0.60024	0.78324	0.335988	-15.26	-1.19	-24.57	0.2067	-0.2033	-0.3678	
-0.592798	0.77653	0.347456	-15.19	-0.63	-28.28	0.2126	-0.1949	-0.3696	
-0.61305	0.756522	0.338794	-18.9	1.26	-31.78	0.2094	-0.1891	-0.3713	
-0.620248	0.747616	0.348066	-21.35	1.68	-35.7	0.2185	-0.1866	-0.3668	
-0.626592	0.740052	0.356362	-23.87	0	-38.43	0.2244	-0.178	-0.3764	
-0.629154	0.729072	0.360632	-24.71	0.7	-40.18	0.2289	-0.1739	-0.3765	
-0.629764	0.71858	0.360388	-26.67	1.89	-42.7	0.2319	-0.1683	-0.3783	
-0.628422	0.693692	0.366366	-27.93	4.55	-44.31	0.2272	-0.1666	-0.383	
-0.64843	0.684298	0.366	-31.22	7.7	-45.92	0.2316	-0.1584	-0.377	
-0.669902	0.69723	0.374418	-30.17	8.12	-49.91	0.2467	-0.1501	-0.3836	
-0.670268	0.659044	0.365512	-28.56	3.08	-51.17	0.2528	-0.1475	-0.3821	
-0.691496	0.614636	0.368318	-29.47	3.36	-51.73	0.2508	-0.1287	-0.3951	
-0.71675	0.604388	0.381372	-32.69	3.36	-55.23	0.2524	-0.1303	-0.3873	
-0.723948	0.57584	0.389668	-33.25	3.22	-57.12	0.2569	-0.126	-0.3952	
-0.734074	0.560346	0.414556	-37.59	6.58	-57.89	0.2596	-0.1148	-0.3925	
-0.71309	0.549122	0.38796	-32.34	2.45	-57.33	0.2687	-0.1077	-0.4036	
-0.727608	0.508984	0.395646	-31.15	3.22	-56.91	0.2669	-0.0992	-0.4007	
-0.742126	0.503494	0.394548	-35.42	5.46	-60.48	0.2758	-0.0854	-0.395	
-0.78202	0.482998	0.414678	-33.53	6.93	-61.46	0.2805	-0.088	-0.4089	
-0.79727	0.471286	0.424438	-34.65	0.42	-61.53	0.2769	-0.07099999	-0.4047	
-0.796172	0.441274	0.439688	-38.36	0.42	-62.93	0.2891	-0.0655	-0.4112	
-0.80154	0.397232	0.448228	-42.21	2.8	-65.17	0.2826	-0.0512	-0.4116	
-0.80154	0.393206	0.427976	-37.03	5.95	-65.66	0.29	-0.0429	-0.4119	
-0.804224	0.360998	0.410896	-31.29	5.46	-63.84	0.3004	-0.0276	-0.4108	
-0.809958	0.296704	0.425658	-28.14	6.23	-63.35	0.3031	-0.0151	-0.405	
-0.823988	0.267912	0.45018	-25.48	9.1	-65.59	0.3122	-0.0089	-0.4332	
-0.834724	0.239608	0.46299	-24.78	10.15	-66.29	0.3132	0.0075	-0.4166	
-0.845826	0.207644	0.442982	-24.15	8.33	-66.15	0.3179	0.0046	-0.4165	
-0.853268	0.209718	0.434564	-20.93	7.14	-68.18	0.3069	0.0179	-0.4262	
-0.865468	0.173362	0.433222	-24.29	3.92	-67.48	0.3203	0.0301	-0.422	
-0.865224	0.147498	0.438102	-18.34	8.19	-68.11	0.3263	0.0385	-0.4238	
-0.880108	0.134444	0.435662	-12.32	7.35	-68.32	0.329	0.0482	-0.4179	
-0.867176	0.11468	0.421876	-16.24	3.64	-67.83	0.3272	0.0597	-0.4229	
-0.863516	0.063806	0.436638	-12.39	2.73	-65.17	0.3272	0.0582	-0.4197	
-0.855342	0.02745	0.437858	-10.99	1.12	-66.01	0.3226	0.0597	-0.4166	
-0.863882	0.007929999	0.44774	-9.94	3.64	-67.62	0.3298	0.0781	-0.4234	
-0.871812	0.00244	0.430904	-16.52	0.14	-69.86	0.325	0.0853	-0.4236	
-0.863272	-0.028548	0.450424	-18.76	-2.73	-68.53	0.3264	0.0897	-0.4316	
-0.857294	-0.04758	0.437492	-16.38	-6.16	-67.76	0.3218	0.0913	-0.4363	
-0.856684	-0.089548	0.449936	-14.77	-5.6	-65.52	0.3139	0.0969	-0.4239	
-0.856074	-0.086498	0.465918	-14.14	-4.69	-66.5	0.3261	0.1025	-0.4335	
-0.861076	-0.10614	0.466406	-15.12	-5.25	-64.4	0.3208	0.1264	-0.4248	
-0.85095	-0.117974	0.462258	-16.66	-8.33	-62.02	0.3145	0.1337	-0.425	
-0.84424	-0.138714	0.451522	-17.78	-10.29	-60.62	0.3159	0.138	-0.4283	
-0.851438	-0.186294	0.44164	-11.13	-10.43	-58.87	0.3052	0.1353	-0.4235	
-0.848632	-0.210816	0.450302	-8.26	-12.25	-57.12	0.3097	0.1395	-0.4283	
-0.84912	-0.218624	0.461282	-8.19	-12.88	-55.93	0.3111	0.1451	-0.4253	
-0.84424	-0.247782	0.462136	-7.56	-12.39	-53.41	0.3016	0.1553	-0.4271	
-0.833992	-0.265594	0.470066	-9.24	-13.65	-53.41	0.3032	0.157	-0.4397	
-0.8235	-0.26169	0.472262	-10.36	-13.09	-54.25	0.2875	0.1674	-0.443	
-0.804224	-0.27084	0.463478	-11.13	-11.9	-52.92	0.2812	0.176	-0.4401	
-0.821426	-0.314882	0.46238	-13.37	-11.62	-52.92	0.2808	0.1873	-0.4389	
-0.835822	-0.313174	0.467992	-12.46	-12.32	-53.34	0.2795	0.1785	-0.4277	
-0.823744	-0.324032	0.458232	-11.48	-13.65	-51.38	0.2685	0.189	-0.4404	
-0.81557	-0.33794	0.468846	-14.7	-12.81	-49.49	0.2621	0.1992	-0.4438	
-0.79666	-0.371856	0.476288	-14	-14.84	-45.43	0.2652	0.1989	-0.436	
-0.78812	-0.399794	0.470554	-12.53	-13.93	-41.37	0.2649	0.2107	-0.4535	
-0.780922	-0.39955	0.459818	-7.14	-13.37	-39.48	0.2527	0.208	-0.4471	
-0.772748	-0.40138	0.470554	-10.92	-14.35	-38.78	0.263	0.2262	-0.4493	
-0.763354	-0.402234	0.474702	-13.09	-16.03	-39.48	0.26	0.2206	-0.4491	
-0.758474	-0.427	0.479948	-12.32	-17.85	-36.89	0.2493	0.2193	-0.4443	
-0.741028	-0.435052	0.490318	-12.95	-17.36	-35.98	0.2354	0.224	-0.4475	
-0.731268	-0.433222	0.490318	-10.5	-17.36	-35.98	0.2355	0.2167	-0.438	
-0.742248	-0.469456	0.479826	-10.43	-19.04	-34.16	0.2322	0.2283	-0.4445	
-0.710772	-0.468968	0.494466	-11.13	-18.83	-32.9	0.2183	0.2315	-0.4461	
-0.703452	-0.446886	0.511302	-10.22	-17.99	-35.14	0.2227	0.2384	-0.4448	
-0.705282	-0.485072	0.519598	-11.06	-21.21	-33.74	0.2196	0.24	-0.4479	
-0.702354	-0.508862	0.513864	-13.09	-22.19	-32.48	0.2087	0.2461	-0.4543	
-0.674538	-0.507276	0.503494	-13.86	-22.19	-31.92	0.2073	0.2418	-0.4526	
-0.665144	-0.499102	0.514718	-11.48	-20.86	-30.59	0.1978	0.2504	-0.4466	
-0.666974	-0.53375	0.524722	-10.43	-22.12	-29.33	0.1855	0.2523	-0.4528	
-0.649284	-0.54229	0.535824	-9.38	-20.65	-28.84	0.1992	0.256	-0.4452	
-0.643306	-0.521184	0.530578	-11.06	-19.11	-28.63	0.1869	0.2549	-0.4466	
-0.630618	-0.5429	0.540094	-12.46	-20.44	-28.28	0.1773	0.2694	-0.4486	
-0.636474	-0.564372	0.546072	-12.39	-17.29	-27.02	0.171	0.2796	-0.4566	
-0.613782	-0.569496	0.56059	-15.33	-17.71	-26.39	0.1635	0.2712	-0.4532	
-0.612318	-0.560346	0.545096	-19.74	-20.72	-24.78	0.1634	0.2753	-0.4471	
-0.591822	-0.552294	0.552416	-15.89	-16.8	-21.91	0.1666	0.2679	-0.4376	
-0.573156	-0.573156	0.542656	-15.96	-16.03	-19.46	0.1616	0.2823	-0.4426	
-0.575474	-0.605852	0.529358	-12.67	-15.26	-18.27	0.1478	0.2858	-0.4551	
-0.58316	-0.627934	0.539972	-11.34	-15.54	-17.64	0.1448	0.2815	-0.4472	
-0.568764	-0.623542	0.554368	-11.76	-14.21	-18.69	0.1432	0.2843	-0.4473	
-0.554612	-0.637816	0.569374	-12.6	-14.42	-19.32	0.14	0.2857	-0.4442	
-0.550708	-0.638304	0.580232	-13.86	-14.84	-20.3	0.1401	0.283	-0.4488	
-0.53741	-0.638426	0.576572	-14.98	-12.18	-18.55	0.1278	0.2832	-0.444	
-0.515206	-0.648796	0.574498	-19.04	-11.27	-19.46	0.123	0.2906	-0.4505	
-0.513376	-0.636596	0.54534	-18.97	-9.52	-17.29	0.1184	0.2905	-0.4442	
-0.508618	-0.643916	0.547292	-17.92	-6.3	-12.25	0.1211	0.3047	-0.4462	
-0.517646	-0.634278	0.537776	-13.44	-6.16	-8.12	0.1228	0.2976	-0.4491	
-0.515816	-0.66368	0.535946	-12.25	-7.63	-6.51	0.1258	0.2988	-0.4414	
-0.510692	-0.658678	0.527528	-11.27	-5.95	-5.74	0.1165	0.3033	-0.443	
-0.51484	-0.631594	0.546072	-11.55	-4.13	-7.35	0.115	0.3018	-0.4383	
-0.50996	-0.651846	0.530456	-12.32	-8.96	-6.3	0.1117	0.3134	-0.4449	
-0.482022	-0.665388	0.528748	-11.2	-8.68	-2.66	0.1102	0.3088	-0.4323	
-0.502518	-0.661484	0.524478	-10.92	-7.14	-4.76	0.1177	0.3174	-0.4419	
-0.49532	-0.669536	0.529968	-9.52	-7.84	-5.18	0.1163	0.3088	-0.437	
-0.511302	-0.66612	0.52582	-6.37	-7.91	-5.67	0.1012	0.3052	-0.4492	
-0.516426	-0.696254	0.526796	-5.04	-8.05	-7.28	0.1132	0.3104	-0.4401	
-0.501298	-0.696742	0.53802	-3.22	-6.58	-9.24	0.1083	0.3216	-0.4326	
-0.502152	-0.70028	0.534726	-3.15	-6.51	-9.87	0.1009	0.3104	-0.4307	
-0.49898	-0.694424	0.525942	-1.05	-5.04	-11.2	0.1052	0.3216	-0.4295	
-0.510326	-0.681126	0.526308	0.84	-4.9	-11.9	0.0929	0.3248	-0.4326	
-0.513986	-0.686616	0.514108	0.49	-6.23	-10.92	0.0931	0.3196	-0.4481	
-0.498004	-0.685884	0.51423	-0.7	-6.16	-10.5	0.0852	0.3236	-0.4341	
-0.49349	-0.681614	0.532408	-0.84	-5.04	-10.15	0.09429999	0.3306	-0.439	
-0.475678	-0.68137	0.535214	-3.43	-3.43	-8.61	0.0901	0.3136	-0.4323	
-0.480802	-0.684054	0.525332	-4.27	-1.96	-6.44	0.0806	0.3237	-0.431	
-0.483364	-0.686738	0.526552	-5.18	-2.38	-6.09	0.0824	0.3138	-0.4338	
-0.478362	-0.684298	0.535946	-5.32	-2.38	-5.46	0.087	0.3136	-0.4323	
-0.46848	-0.682346	0.538386	-2.87	-3.92	-3.99	0.0898	0.3236	-0.4373	
-0.449814	-0.672952	0.518012	-2.8	-3.22	-4.62	0.08989999	0.3192	-0.4309	
-0.462746	-0.684054	0.520818	-2.8	-3.29	-1.4	0.0866	0.3294	-0.4405	
-0.470066	-0.684542	0.5246	-1.4	-4.62	-2.8	0.079	0.3252	-0.4357	
-0.465308	-0.699182	0.525942	-1.33	-4.48	-2.66	0.0792	0.3197	-0.4402	
-0.457866	-0.709674	0.535092	0.7	-5.32	-2.31	0.0775	0.3252	-0.4326	
-0.447496	-0.704916	0.540582	0.35	-4.06	-1.89	0.0914	0.3234	-0.431	
-0.445056	-0.704916	0.542046	0.98	-2.8	-2.87	0.0729	0.3272	-0.4497	
-0.450424	-0.701744	0.531066	2.1	-0.98	-2.66	0.0823	0.3194	-0.4324	
-0.459818	-0.693692	0.535702	2.45	-0.42	-3.36	0.0882	0.3264	-0.4327	
-0.460306	-0.70211	0.538508	2.45	-1.68	-3.29	0.0929	0.3251	-0.442	
-0.457012	-0.703574	0.539606	1.54	-1.61	-1.75	0.08199999	0.328	-0.4374	
-0.451522	-0.707234	0.537288	0.7	-0.63	0.42	0.0774	0.3281	-0.4358	
-0.45201	-0.704916	0.53619	0.42	1.61	0.84	0.0853	0.3178	-0.4262	
-0.457744	-0.710528	0.528138	1.12	1.19	1.12	0.0715	0.3231	-0.4527	
-0.462746	-0.690886	0.535336	2.03	1.05	0.14	0.0731	0.3168	-0.4323	
-0.463478	-0.695888	0.540582	1.54	-0.21	1.26	0.0838	0.318	-0.4324	
-0.462868	-0.694546	0.549	1.4	0.63	1.4	0.0699	0.3212	-0.434	
-0.454328	-0.682224	0.545828	0.28	1.82	1.33	0.0884	0.3191	-0.4278	
-0.455426	-0.667096	0.53497	0.35	2.8	1.19	0.0841	0.3111	-0.44	
-0.474946	-0.659044	0.5246	0.14	4.2	2.03	0.0807	0.3208	-0.4309	
-0.47824	-0.651236	0.528626	0.14	3.01	1.05	0.0837	0.3238	-0.4372	
-0.476898	-0.655872	0.521794	0.21	1.26	-0.35	0.0795	0.3067	-0.4305	
-0.475434	-0.66124	0.520818	0	0.98	-0.35	0.0854	0.3181	-0.4371	
-0.485438	-0.673196	0.515938	-0.14	0	-1.19	0.0792	0.3195	-0.4324	
-0.482144	-0.670878	0.527528	-0.63	-0.49	-1.54	0.0804	0.3337	-0.436	
-0.485072	-0.683444	0.528992	-1.96	-2.38	-1.33	0.07759999	0.3227	-0.4434	
-0.479216	-0.686372	0.535702	-2.59	-2.52	-0.77	0.0792	0.321	-0.4371	
-0.47946	-0.6893	0.533628	-2.31	-2.52	-1.12	0.0884	0.3207	-0.4325	
-0.477142	-0.70882	0.530212	-2.17	-1.96	-0.42	0.0746	0.3212	-0.4371	
-0.48251	-0.69906	0.530456	-0.98	-0.84	-0.63	0.08679999	0.3206	-0.4278	
-0.481046	-0.70028	0.53009	-0.35	-1.54	-0.42	0.0805	0.3294	-0.4343	
-0.46909	-0.701378	0.532164	0.28	-1.33	0.42	0.0775	0.3267	-0.4342	
-0.46848	-0.702354	0.535336	0.28	-0.77	1.33	0.0838	0.3208	-0.4325	
-0.466406	-0.703086	0.53192	0.49	-0.21	2.17	0.0698	0.3284	-0.4373	
-0.461892	-0.694546	0.53436	0.28	0.63	3.08	0.0884	0.3192	-0.4293	
-0.465552	-0.684664	0.53192	0.56	1.12	3.85	0.0823	0.3183	-0.4417	
-0.457744	-0.678686	0.527772	0.7	0.7	4.62	0.0881	0.3322	-0.4391	
-0.454816	-0.678198	0.528382	0.42	0.91	4.62	0.0702	0.3127	-0.4337	
-0.458354	-0.686494	0.534238	0.35	0.91	4.34	0.0805	0.3265	-0.4311	
-0.462014	-0.691618	0.53131	1.4	0.56	4.13	0.0791	0.3239	-0.4388	
-0.46909	-0.696132	0.530578	2.59	-0.42	4.62	0.0851	0.3296	-0.4436	
-0.475922	-0.699792	0.540704	3.36	-0.07	4.97	0.0838	0.3197	-0.4449	
-0.469944	-0.70028	0.547048	3.43	-0.28	6.16	0.0841	0.3083	-0.4415	
-0.471286	-0.70394	0.557906	5.53	-1.4	7.14	0.0869	0.321	-0.4434	
-0.460794	-0.704184	0.552172	7.7	-0.91	9.73	0.0853	0.321	-0.4418	
-0.46787	-0.724436	0.554124	8.26	0.77	12.25	0.0884	0.3209	-0.4403	
-0.477264	-0.709308	0.552172	9.87	4.06	14.21	0.0884	0.3194	-0.4371	
-0.479704	-0.709308	0.547292	10.01	4.48	17.36	0.0995	0.3093	-0.44	
-0.484706	-0.706502	0.550952	10.5	6.16	20.51	0.0888	0.3038	-0.4367	
-0.491538	-0.704184	0.558638	11.13	5.53	21.49	0.09649999	0.3066	-0.443	
-0.490318	-0.696986	0.558882	12.04	6.23	22.47	0.0964	0.3126	-0.4557	
-0.501542	-0.686738	0.563152	12.95	7.56	24.64	0.1011	0.3065	-0.4415	
-0.50325	-0.677466	0.566934	14.7	8.89	26.81	0.1026	0.305	-0.4399	
-0.514962	-0.682834	0.562298	16.8	10.5	30.87	0.1074	0.2993	-0.4444	
-0.520818	-0.653554	0.55998	19.46	13.79	32.48	0.121	0.3088	-0.4432	
-0.528748	-0.66246	0.555588	17.99	13.86	38.15	0.1243	0.2973	-0.4398	
-0.531676	-0.644038	0.56242	20.3	17.15	37.59	0.12	0.2892	-0.4489	
-0.529724	-0.64904	0.56181	22.26	20.23	39.41	0.131	0.2805	-0.4518	
-0.53985	-0.611464	0.56425	23.8	22.26	41.09	0.1324	0.2816	-0.4394	
-0.573278	-0.631716	0.554856	23.1	19.95	43.82	0.1449	0.2804	-0.4596	
-0.583648	-0.593774	0.567422	23.8	20.3	42.84	0.1493	0.2857	-0.4505	
-0.58865	-0.574864	0.57218	22.47	23.87	47.74	0.1574	0.2732	-0.4673	
-0.606462	-0.5734	0.570838	22.61	25.62	51.8	0.1728	0.265	-0.4406	
-0.6039	-0.565226	0.570716	22.96	27.58	52.43	0.1684	0.26	-0.4591	
-0.616588	-0.53009	0.540704	25.2	29.47	52.85	0.1761	0.2611	-0.4545	
-0.656238	-0.5063	0.522038	24.01	32.97	55.16	0.1886	0.2537	-0.4575	
-0.671854	-0.50081	0.535336	24.36	32.41	56.98	0.1979	0.249	-0.4481	
-0.684176	-0.49349	0.533262	26.81	31.22	59.01	0.2073	0.2403	-0.4494	
-0.701256	-0.502274	0.516426	29.61	25.41	59.92	0.2123	0.2274	-0.4475	
-0.709918	-0.439444	0.519842	32.76	26.18	54.18	0.2185	0.2262	-0.4615	
-0.70028	-0.420534	0.528992	33.32	29.12	57.4	0.2265	0.2101	-0.4471	
-0.719556	-0.388204	0.51484	33.25	31.43	60.13	0.2373	0.2114	-0.4549	
-0.724924	-0.34282	0.49532	32.55	31.92	61.88	0.2512	0.208	-0.4471	
-0.763964	-0.327448	0.485072	31.5	32.34	63.07	0.2533	0.1867	-0.4434	
-0.781532	-0.290726	0.478484	28.98	29.05	60.34	0.2655	0.1879	-0.4482	
-0.809104	-0.27267	0.470554	25.48	25.97	57.75	0.2766	0.1749	-0.4478	
-0.818498	-0.257786	0.466406	23.59	25.2	59.99	0.2691	0.1691	-0.4383	
-0.82411	-0.230336	0.46177	21.98	22.61	58.31	0.2893	0.1586	-0.4318	
-0.833992	-0.211548	0.455914	25.13	22.26	61.04	0.2895	0.1502	-0.4378	
-0.83997	-0.202154	0.463356	25.41	17.57	59.99	0.2927	0.1458	-0.4346	
-0.826184	-0.172874	0.472018	25.76	15.54	60.2	0.2913	0.1431	-0.4392	
-0.82106	-0.138226	0.478728	24.92	13.16	61.18	0.2959	0.1385	-0.4297	
-0.828746	-0.1159	0.46787	19.74	13.23	62.3	0.3042	0.1202	-0.4401	
-0.857416	-0.097356	0.459818	20.16	13.16	63.07	0.3087	0.1199	-0.4339	
-0.882182	-0.074908	0.44164	20.51	12.81	61.67	0.317	0.0937	-0.4129	
-0.897554	-0.036844	0.42639	21.07	12.74	60.76	0.3092	0.1042	-0.4303	
-0.888648	-0.008784	0.409554	23.17	12.18	60.41	0.3265	0.0853	-0.4283	
-0.874008	0.022692	0.408578	23.73	12.32	60.62	0.3236	0.07979999	-0.4281	
-0.859246	0.066246	0.42212	21.28	13.37	61.81	0.3132	0.0673	-0.4277	
-0.837408	0.099186	0.446276	12.67	8.89	63.56	0.3166	0.0556	-0.4196	
-0.822402	0.10919	0.45567	7.28	3.08	65.66	0.312	0.0561	-0.4336	
-0.830698	0.136274	0.47885	3.08	1.19	67.2	0.3259	0.0515	-0.432	
-0.836798	0.17995	0.47153	-1.89	0.56	66.36	0.3199	0.0486	-0.4256	
-0.849608	0.176656	0.469212	5.32	4.13	64.61	0.3292	0.0457	-0.4287	
-0.875594	0.203862	0.460306	10.29	7.91	60.9	0.3309	0.0355	-0.4206	
-0.861808	0.22753	0.446154	14.49	9.03	57.82	0.319	0.0246	-0.4249	
-0.85095	0.236558	0.42761	19.46	9.87	56	0.3253	0.0172	-0.4185	
-0.849242	0.255346	0.426878	22.33	12.39	53.97	0.3271	0.0041	-0.4057	
-0.84424	0.264862	0.411506	23.8	11.62	51.94	0.3289	-0.0026	-0.4179	
-0.840824	0.281088	0.39894	20.44	10.92	51.8	0.3182	-0.0038	-0.4163	
-0.831674	0.292678	0.383568	18.2	6.23	52.43	0.3199	-0.0111	-0.4099	
-0.851316	0.314882	0.397842	21.21	7	54.32	0.3172	-0.0235	-0.4188	
-0.844362	0.34343	0.404674	17.78	3.22	56.49	0.3188	-0.0265	-0.4141	
-0.829478	0.371368	0.41053	19.81	2.24	57.89	0.3172	-0.0298	-0.3953	
-0.823378	0.376614	0.404918	20.3	0.84	58.52	0.3253	-0.0456	-0.3964	
-0.814594	0.393694	0.401502	22.47	-0.42	58.31	0.3131	-0.0451	-0.4026	
-0.814716	0.427976	0.401868	22.12	1.12	56.91	0.3103	-0.055	-0.3992	
-0.802516	0.44896	0.391986	24.5	3.08	55.51	0.3151	-0.065	-0.4004	
-0.804468	0.47275	0.380152	23.87	3.43	53.34	0.3092	-0.0735	-0.3939	
-0.806054	0.487024	0.37576	26.81	4.9	52.01	0.3092	-0.072	-0.3987	
-0.797514	0.487634	0.365878	26.11	2.94	50.75	0.3064	-0.0832	-0.4014	
-0.783484	0.48495	0.366976	29.96	4.13	48.79	0.3065	-0.0879	-0.3841	
-0.79056	0.515572	0.354654	30.87	4.55	47.46	0.2975	-0.096	-0.3885	
-0.79056	0.53131	0.374662	27.86	4.27	46.2	0.2899	-0.1018	-0.379	
-0.796294	0.543022	0.34953	24.92	0.35	42.35	0.2996	-0.1205	-0.3754	
-0.782142	0.581574	0.338916	24.43	-2.1	41.72	0.2932	-0.1105	-0.3725	
-0.76677	0.581452	0.337818	23.45	-2.03	41.72	0.28	-0.1343	-0.3717	
-0.768112	0.601216	0.33001	22.82	-1.89	40.6	0.2828	-0.1261	-0.3627	
-0.753716	0.623664	0.333548	21.63	-2.59	39.13	0.2755	-0.1339	-0.3795	
-0.761036	0.633424	0.329888	22.96	-2.38	37.1	0.2865	-0.1458	-0.3714	
-0.758352	0.64538	0.333304	24.71	-1.4	34.16	0.2726	-0.1457	-0.362	
-0.742858	0.635132	0.316468	21.56	-3.43	31.85	0.2698	-0.1536	-0.3789	
-0.72712	0.63989	0.319152	22.12	-3.15	29.05	0.2729	-0.1557	-0.3586	
-0.718092	0.656238	0.320006	23.87	-2.1	27.72	0.2607	-0.158	-0.3647	
-0.696498	0.656726	0.313052	23.45	-2.38	26.18	0.2564	-0.169	-0.3753	
-0.704306	0.658068	0.290238	23.94	-2.03	25.27	0.2687	-0.1712	-0.355	
-0.689422	0.665144	0.28975	21.63	-1.61	25.69	0.2549	-0.1707	-0.3627	
-0.681858	0.667828	0.288408	23.59	-4.27	24.57	0.2519	-0.1749	-0.3595	
-0.679906	0.681126	0.28487	23.73	-4.76	24.78	0.2399	-0.1861	-0.3529	
-0.66734	0.69723	0.284992	23.31	-5.81	24.64	0.246	-0.1864	-0.3498	
-0.667584	0.716262	0.284748	21.56	-5.6	24.57	0.2475	-0.1835	-0.3514	
-0.667218	0.74603	0.277428	19.46	-5.53	24.29	0.2447	-0.1936	-0.3433	
-0.655384	0.762378	0.2684	17.36	-5.6	23.52	0.2369	-0.189	-0.3481	
-0.651968	0.766282	0.267546	11.76	-3.71	23.38	0.2296	-0.203	-0.3492	
-0.644648	0.772382	0.256566	10.43	-4.9	23.87	0.2375	-0.2117	-0.3459	
-0.629886	0.78507	0.268522	9.73	-4.55	22.75	0.2344	-0.2133	-0.338	
-0.627568	0.781776	0.277794	8.75	-4.2	21.84	0.2341	-0.2017	-0.3477	
-0.615124	0.782386	0.285114	7.49	-5.18	20.58	0.2157	-0.2029	-0.3367	
-0.603168	0.770674	0.29585	7.63	-5.18	18.55	0.2268	-0.2129	-0.3442	
-0.596336	0.762378	0.297558	9.17	-5.04	15.68	0.213	-0.2185	-0.3346	
-0.582794	0.76433	0.296704	10.15	-4.97	12.88	0.2178	-0.2213	-0.3408	
-0.590236	0.767258	0.274378	9.87	-3.92	11.06	0.2039	-0.2227	-0.3282	
-0.591944	0.767014	0.268278	9.73	-3.92	11.06	0.2025	-0.2267	-0.3343	
-0.589382	0.781654	0.269498	8.89	-4.62	11.34	0.2116	-0.2243	-0.3282	
-0.583648	0.788242	0.274866	7.35	-4.9	11.34	0.1977	-0.2212	-0.3267	
-0.587064	0.803614	0.270352	5.53	-5.46	10.08	0.1994	-0.2236	-0.3422	
-0.571326	0.799344	0.28426	4.69	-5.18	10.71	0.2026	-0.2282	-0.3327	
-0.577548	0.813496	0.278404	3.92	-5.04	10.85	0.2025	-0.2266	-0.3375	
-0.573034	0.810446	0.280112	3.5	-4.48	9.17	0.207	-0.2241	-0.3298	
-0.56974	0.809958	0.278404	3.85	-4.83	8.75	0.1966	-0.2365	-0.3325	
-0.563396	0.801174	0.289262	3.22	-4.55	7.42	0.1936	-0.2365	-0.3325	
-0.554978	0.795318	0.293166	2.24	-3.92	7	0.2011	-0.2326	-0.3264	
-0.554612	0.801174	0.288896	2.1	-2.66	5.95	0.1982	-0.2366	-0.3309	
-0.558882	0.799466	0.284504	2.03	-1.96	5.18	0.1859	-0.2393	-0.3261	
-0.563152	0.798978	0.280844	2.03	-1.96	4.48	0.1888	-0.2308	-0.3264	
-0.56059	0.80215	0.281332	1.82	-2.03	3.5	0.1935	-0.2353	-0.3216	
-0.55083	0.796416	0.277916	2.59	-1.82	2.52	0.1858	-0.2336	-0.3278	
-0.551196	0.7869	0.283772	3.15	-1.26	2.66	0.1825	-0.2263	-0.3311	
-0.546926	0.783362	0.282674	3.71	-0.49	3.78	0.1969	-0.2463	-0.3369	
-0.551684	0.787144	0.283406	3.85	0.14	3.99	0.1907	-0.245	-0.3275	
-0.55754	0.779946	0.275598	3.29	0.35	3.08	0.1857	-0.2293	-0.3295	
-0.564128	0.786534	0.277428	3.22	0.35	2.52	0.1812	-0.2364	-0.3246	
-0.565714	0.790682	0.282186	2.8	0.42	2.59	0.1859	-0.2394	-0.3199	
-0.562664	0.784704	0.285724	3.22	0.35	2.94	0.1922	-0.2438	-0.3213	
-0.551806	0.789706	0.285236	3.5	0.28	3.92	0.1873	-0.2338	-0.3216	
-0.551928	0.801662	0.286212	3.43	0.98	4.27	0.1859	-0.2395	-0.3183	
-0.559492	0.795806	0.281576	2.38	0.77	4.48	0.1829	-0.2437	-0.3182	
-0.559736	0.809104	0.274866	2.45	1.05	4.13	0.186	-0.2437	-0.3197	
-0.562054	0.813984	0.275842	1.96	1.26	4.2	0.189	-0.2408	-0.3245	
-0.560956	0.810202	0.274622	2.31	1.4	4.62	0.1797	-0.2349	-0.3246	
-0.556076	0.807274	0.279136	2.59	1.61	4.2	0.1782	-0.2378	-0.3214	
-0.551806	0.808128	0.27816	2.73	2.17	3.08	0.1862	-0.2509	-0.3164	
-0.549732	0.809592	0.273158	3.43	3.5	2.45	0.1827	-0.2319	-0.3341	
-0.552538	0.820328	0.26413	3.99	4.34	1.4	0.1767	-0.2374	-0.3339	
-0.55632	0.815814	0.258518	4.34	4.34	0.49	0.1893	-0.2507	-0.3258	
-0.55205	0.818254	0.26535	4.76	3.99	-0.91	0.1845	-0.2422	-0.3213	
-0.546682	0.812398	0.262056	5.25	4.41	-1.54	0.1891	-0.2439	-0.3151	
-0.547902	0.819352	0.257176	4.9	5.67	-1.96	0.1768	-0.2435	-0.3181	
-0.551684	0.81313	0.251808	5.18	5.95	-2.24	0.1858	-0.2368	-0.3122	
-0.549854	0.807396	0.241316	5.18	5.18	-2.1	0.1799	-0.2468	-0.304	
-0.55815	0.79971	0.235094	5.53	5.46	-2.24	0.1846	-0.2496	-0.3087	
-0.555954	0.804468	0.229238	5.81	5.18	-2.17	0.1938	-0.2484	-0.3103	
-0.557906	0.798734	0.224968	5.46	4.62	-1.4	0.2012	-0.2384	-0.32	
-0.561322	0.810446	0.227042	5.67	4.83	-0.77	0.1862	-0.2509	-0.3133	
-0.563152	0.816058	0.227042	4.97	4.13	0.28	0.1986	-0.2524	-0.3227	
-0.566568	0.818132	0.22143	4.34	3.36	0.35	0.197	-0.2511	-0.3165	
-0.56608	0.81191	0.217404	3.01	3.15	0.14	0.1938	-0.2513	-0.3055	
-0.573644	0.826184	0.208742	2.52	3.29	0.49	0.1968	-0.2469	-0.315	
-0.5734	0.827282	0.211426	1.82	2.66	0.63	0.1966	-0.2401	-0.3059	
-0.575352	0.830454	0.212524	1.19	2.1	0.7	0.189	-0.2426	-0.3089	
-0.579988	0.843508	0.206546	0.77	1.61	0.07	0.1967	-0.2414	-0.3105	
-0.579622	0.831064	0.209962	0.07	0.63	-0.28	0.1862	-0.2524	-0.3117	
-0.571326	0.826672	0.213134	0.21	0.35	-1.05	0.2061	-0.2504	-0.2994	
-0.566202	0.823744	0.214232	-0.7	0.77	-1.61	0.197	-0.2528	-0.3086	
-0.573034	0.817156	0.211304	-0.98	0.56	-1.89	0.1922	-0.2471	-0.3057	
-0.576816	0.814228	0.21045	-0.98	0.63	-2.38	0.2003	-0.2596	-0.3193	
-0.569252	0.817644	0.213744	-1.33	0.7	-3.01	0.1984	-0.247	-0.3135	
-0.567788	0.81862	0.209718	-1.61	0.84	-3.22	0.1923	-0.2513	-0.3071	
-0.573888	0.81618	0.219478	-1.89	0.21	-3.99	0.1969	-0.25	-0.3072	
-0.5673	0.808128	0.228994	-1.96	-0.14	-4.48	0.2015	-0.25	-0.3103	
-0.560102	0.809836	0.223626	-2.17	-0.07	-5.25	0.1951	-0.2412	-0.3152	
-0.568642	0.814594	0.224236	-2.59	0.49	-5.04	0.2001	-0.2526	-0.318	
-0.57889	0.825452	0.22326	-2.94	0.21	-5.04	0.2015	-0.2484	-0.3181	
-0.581696	0.827038	0.224602	-3.99	-0.21	-5.04	0.1999	-0.2455	-0.3166	
-0.586332	0.830088	0.22265	-4.69	-0.98	-5.67	0.2046	-0.2501	-0.3087	
-0.587674	0.832406	0.213622	-4.9	-0.77	-7.21	0.2107	-0.2501	-0.3166	
-0.595848	0.841434	0.216672	-5.74	-0.56	-9.73	0.2075	-0.2429	-0.3168	
-0.597556	0.82655	0.218868	-7.14	-1.75	-11.55	0.2059	-0.2401	-0.3153	
-0.594994	0.839482	0.22387	-9.94	-1.33	-13.23	0.2092	-0.2486	-0.3182	
-0.60512	0.818498	0.222528	-13.79	-0.84	-13.93	0.2119	-0.239	-0.3076	
-0.605608	0.81435	0.229238	-15.61	-1.05	-16.87	0.215	-0.2374	-0.317	
-0.602802	0.817888	0.235704	-17.36	-0.91	-20.72	0.2149	-0.2317	-0.3171	
-0.607926	0.866688	0.22448	-16.03	-0.77	-25.34	0.2102	-0.2302	-0.3171	
-0.610488	0.815326	0.254492	-18.97	-0.84	-25.83	0.2104	-0.2359	-0.317	
-0.61427	0.817034	0.246806	-20.23	-1.33	-29.61	0.2286	-0.2262	-0.3251	
-0.628056	0.788242	0.24156	-22.54	0.84	-32.41	0.2222	-0.2159	-0.3332	
-0.630984	0.75823	0.265106	-24.29	1.82	-35.56	0.2297	-0.2103	-0.3396	
-0.640134	0.78751	0.264252	-24.36	0.91	-39.69	0.2283	-0.2161	-0.3317	
-0.647454	0.778726	0.268766	-25.41	-0.07	-41.58	0.2311	-0.2032	-0.3399	
-0.640744	0.775798	0.275232	-26.81	-0.56	-43.89	0.2372	-0.2005	-0.3415	
-0.640378	0.776286	0.272426	-27.09	0.28	-46.48	0.2418	-0.2004	-0.3493	
-0.665388	0.73627	0.280966	-30.87	1.4	-46.83	0.2537	-0.1863	-0.3592	
-0.684786	0.726266	0.28975	-36.26	1.33	-48.86	0.2673	-0.177	-0.3502	
-0.688446	0.692106	0.29463	-43.26	2.1	-50.61	0.267	-0.1669	-0.3583	
-0.677222	0.678442	0.301584	-43.19	2.31	-52.92	0.2575	-0.1523	-0.3649	
-0.714554	0.691862	0.30256	-41.37	2.24	-56.63	0.2742	-0.1455	-0.3698	
-0.71553	0.61671	0.306342	-42.98	1.75	-55.51	0.2846	-0.1315	-0.375	
-0.73017	0.60634	0.31537	-42.07	2.52	-57.33	0.2847	-0.1371	-0.3748	
-0.7503	0.593774	0.330742	-41.65	2.94	-57.4	0.2794	-0.113	-0.3708	
-0.742858	0.560956	0.341844	-41.65	0.21	-54.74	0.2828	-0.1228	-0.3799	
-0.731878	0.53863	0.349896	-41.93	-0.42	-54.67	0.3007	-0.1019	-0.3853	
-0.746152	0.510326	0.355386	-45.08	0	-55.72	0.2958	-0.0905	-0.3809	
-0.761036	0.490562	0.374052	-44.52	0.98	-57.96	0.3016	-0.0763	-0.3907	
-0.76799	0.479216	0.367586	-44.1	-2.87	-55.09	0.3047	-0.07449999	-0.4079	
-0.777872	0.439932	0.38979	-48.09	-3.64	-55.93	0.3091	-0.0705	-0.4003	
-0.785192	0.414312	0.40931	-50.12	-7.42	-56.21	0.3089	-0.059	-0.4068	
-0.78873	0.41419	0.42395	-45.92	-2.17	-56.98	0.2962	-0.0431	-0.4072	
-0.796538	0.37515	0.424438	-37.45	2.17	-52.57	0.3207	-0.044	-0.3995	
-0.824232	0.364414	0.41236	-32.06	6.93	-51.52	0.3171	-0.0239	-0.4063	
-0.830576	0.334158	0.407846	-30.52	5.88	-50.75	0.3264	-0.0253	-0.4157	
-0.853512	0.292312	0.404186	-28.07	5.67	-49.84	0.3153	-0.0141	-0.4004	
-0.846436	0.262544	0.417972	-28.77	2.52	-49.35	0.3273	-0.0027	-0.4133	
-0.847656	0.258518	0.42883	-26.81	3.5	-52.57	0.3209	0.0088	-0.4167	
-0.859856	0.249124	0.41907	-31.08	1.89	-52.85	0.3282	0.0227	-0.4156	
-0.854122	0.21289	0.416386	-30.1	-0.98	-48.23	0.3267	0.0216	-0.4264	
-0.852048	0.191784	0.42212	-32.62	-2.24	-48.58	0.3309	0.0353	-0.4128	
-0.868884	0.142618	0.419924	-29.33	-0.28	-49.77	0.3266	0.0242	-0.4187	
-0.881084	0.147986	0.419924	-19.04	4.62	-52.29	0.3248	0.0356	-0.4175	
-0.889502	0.111752	0.422852	-17.01	4.48	-51.03	0.3275	0.0467	-0.4116	
-0.879376	0.064904	0.430172	-16.8	3.64	-52.36	0.3334	0.0596	-0.4229	
-0.856318	0.032086	0.43676	-15.82	1.47	-53.55	0.3286	0.0639	-0.423	
-0.868884	0.036966	0.452986	-14.84	3.5	-56.84	0.3254	0.0694	-0.4123	
-0.880352	0.020862	0.448106	-16.8	1.82	-58.38	0.3344	0.0766	-0.425	
-0.880108	0.009881999	0.431392	-19.81	1.19	-60.27	0.3343	0.0823	-0.4283	
-0.886452	-0.004636	0.43249	-21.14	1.26	-59.78	0.3293	0.0949	-0.4193	
-0.888892	-0.033306	0.402112	-17.36	-1.4	-57.89	0.3352	0.1017	-0.4117	
-0.883036	-0.08295999	0.421998	-12.67	-3.64	-56.91	0.3257	0.1134	-0.4198	
-0.870104	-0.100894	0.427976	-10.22	-2.87	-58.52	0.3335	0.1072	-0.4056	
-0.87779	-0.114558	0.43371	-8.33	-3.43	-60.13	0.3271	0.1204	-0.4169	
-0.867176	-0.127368	0.43127	-4.9	-4.48	-60.41	0.319	0.1348	-0.4188	
-0.871202	-0.148474	0.432612	-5.88	-5.67	-59.43	0.3237	0.1288	-0.4109	
-0.866688	-0.180316	0.442982	-7.07	-7.91	-58.73	0.3251	0.1362	-0.4236	
-0.871568	-0.192638	0.446642	-6.93	-9.17	-58.66	0.3265	0.143	-0.416	
-0.857172	-0.193858	0.434198	-10.29	-9.66	-58.24	0.3063	0.1508	-0.4224	
-0.866688	-0.207156	0.442982	-9.1	-9.73	-57.26	0.3199	0.1603	-0.4211	
-0.870104	-0.227652	0.444568	-9.59	-9.8	-52.85	0.2984	0.1609	-0.4226	
-0.848632	-0.25376	0.458964	-7.63	-10.78	-48.65	0.2933	0.1766	-0.4215	
-0.837774	-0.27389	0.456524	-7.28	-11.48	-46.48	0.2949	0.1769	-0.4355	
-0.819108	-0.267912	0.463844	-9.73	-9.59	-45.08	0.3011	0.1767	-0.434	
-0.812398	-0.265228	0.462624	-13.72	-7.28	-44.52	0.293	0.1926	-0.4391	
-0.80825	-0.262056	0.454206	-18.62	-5.88	-43.19	0.2974	0.1965	-0.4315	
-0.829478	-0.29829	0.450546	-18.83	-6.44	-42.42	0.2896	0.2025	-0.4347	
-0.825086	-0.330498	0.457256	-18.69	-7.84	-39.62	0.285	0.2024	-0.4284	
-0.81679	-0.329522	0.460794	-16.8	-6.58	-39.62	0.2833	0.2051	-0.4223	
-0.818742	-0.367708	0.440908	-13.93	-8.12	-38.99	0.2771	0.2126	-0.4318	
-0.787144	-0.374906	0.441884	-14.7	-7.42	-38.64	0.2705	0.2255	-0.4291	
-0.790682	-0.387716	0.463844	-17.64	-5.6	-39.41	0.2782	0.2254	-0.4322	
-0.769698	-0.415166	0.443104	-13.3	-6.72	-40.39	0.2628	0.2269	-0.4228	
-0.763964	-0.383446	0.44896	-17.43	-5.53	-41.86	0.2552	0.2273	-0.4321	
-0.784582	-0.406992	0.447008	-17.5	-5.95	-40.53	0.2594	0.2412	-0.4248	
-0.784582	-0.43859	0.46238	-17.15	-6.65	-38.64	0.2611	0.2372	-0.4371	
-0.764452	-0.43127	0.45445	-14.7	-7	-38.57	0.2467	0.2544	-0.4313	
-0.747494	-0.423828	0.448594	-16.52	-5.18	-38.99	0.2607	0.2484	-0.4297	
-0.747982	-0.469456	0.434808	-16.1	-5.81	-37.38	0.25	0.2458	-0.4311	
-0.754692	-0.486536	0.44713	-15.33	-5.81	-36.82	0.236	0.2532	-0.4297	
-0.746518	-0.492758	0.440908	-12.95	-6.72	-36.75	0.2433	0.2671	-0.427	
-0.751764	-0.493368	0.43432	-14.21	-7.49	-36.54	0.2356	0.2687	-0.4239	
-0.74298	-0.518134	0.43554	-14.49	-9.17	-35.35	0.2433	0.2656	-0.4223	
-0.744078	-0.537166	0.449936	-12.46	-10.01	-33.39	0.2356	0.2689	-0.4348	
-0.70882	-0.547902	0.447252	-12.81	-11.9	-31.99	0.2171	0.2722	-0.4333	
-0.708698	-0.553148	0.447984	-12.39	-10.99	-30.94	0.22	0.2774	-0.4179	
-0.69723	-0.550586	0.44042	-13.65	-9.87	-30.38	0.2105	0.2879	-0.4321	
-0.684298	-0.542168	0.45628	-14.35	-9.66	-30.66	0.2087	0.301	-0.445	
-0.673074	-0.55815	0.441152	-12.95	-10.64	-29.82	0.2102	0.2977	-0.4278	
-0.686128	-0.569496	0.427122	-12.74	-10.01	-27.58	0.1903	0.2965	-0.4167	
-0.67466	-0.564616	0.423462	-13.86	-10.92	-25.69	0.2042	0.2904	-0.4151	
-0.66612	-0.574254	0.433832	-14	-13.16	-25.9	0.1904	0.2922	-0.415	
-0.6588	-0.609878	0.468602	-15.89	-15.4	-24.85	0.1978	0.3023	-0.4294	
-0.64721	-0.62891	0.45201	-17.22	-15.68	-24.01	0.1929	0.3136	-0.425	
-0.629886	-0.638914	0.461526	-18.62	-16.24	-22.12	0.1855	0.3054	-0.4279	
-0.614026	-0.646356	0.449326	-19.04	-15.82	-23.52	0.1733	0.3012	-0.4168	
-0.612074	-0.653432	0.439322	-19.18	-16.38	-24.08	0.1714	0.3125	-0.4155	
-0.603046	-0.662826	0.428708	-18.55	-16.8	-23.52	0.1806	0.3151	-0.4172	
-0.58743	-0.66368	0.4392	-16.59	-17.01	-23.31	0.1712	0.321	-0.4158	
-0.590602	-0.686982	0.44896	-14.56	-14.77	-21.21	0.1711	0.324	-0.4206	
-0.574986	-0.685884	0.457012	-14.21	-13.86	-18.55	0.1619	0.3242	-0.4205	
-0.562176	-0.689056	0.470432	-13.3	-13.02	-16.8	0.1556	0.33	-0.4222	
-0.561078	-0.706868	0.467138	-11.41	-12.46	-16.59	0.1539	0.3342	-0.4161	
-0.553392	-0.707966	0.462014	-9.38	-10.64	-17.36	0.151	0.3287	-0.4221	
-0.562664	-0.719556	0.443104	-6.93	-8.75	-16.31	0.1399	0.3385	-0.4052	
-0.544974	-0.71614	0.44713	-5.81	-10.01	-15.26	0.1418	0.3303	-0.419	
-0.526796	-0.716384	0.462136	-4.41	-9.52	-14.63	0.1383	0.3429	-0.41	
-0.526552	-0.718214	0.464332	-4.27	-8.47	-14.07	0.1399	0.3401	-0.4115	
-0.514962	-0.712236	0.457256	-5.46	-8.26	-14.56	0.1261	0.342	-0.4177	
-0.505568	-0.687104	0.467138	-6.44	-6.02	-15.26	0.1277	0.3392	-0.4223	
-0.51606	-0.693204	0.461404	-7.56	-4.69	-14.14	0.1185	0.3392	-0.4129	
-0.52521	-0.710162	0.459452	-8.4	-4.2	-11.97	0.1215	0.3391	-0.413	
-0.51179	-0.721874	0.451888	-8.4	-4.41	-10.29	0.1214	0.3434	-0.4115	
-0.510448	-0.746152	0.457134	-8.47	-6.37	-8.54	0.126	0.3464	-0.4241	
-0.490318	-0.747616	0.473116	-8.12	-5.39	-8.33	0.1199	0.3436	-0.4178	
-0.498004	-0.747494	0.47153	-6.23	-4.41	-8.12	0.1184	0.3435	-0.4131	
-0.49471	-0.742614	0.46299	-3.99	-2.94	-7.7	0.1028	0.3494	-0.4085	
-0.49898	-0.747494	0.457256	-1.68	-1.68	-6.79	0.1229	0.346	-0.4054	
-0.502518	-0.741272	0.444202	-0.91	0.28	-5.95	0.1152	0.3433	-0.4053	
-0.502396	-0.728828	0.446642	0	1.05	-4.9	0.1153	0.342	-0.4099	
-0.50752	-0.729682	0.445788	0.91	0.07	-5.04	0.1093	0.3396	-0.4191	
-0.495076	-0.714798	0.44225	0.28	0.07	-5.32	0.1091	0.3436	-0.4099	
-0.49288	-0.71431	0.429074	0.84	0.63	-5.6	0.1136	0.3476	-0.4054	
-0.50325	-0.717238	0.437492	0.28	1.26	-5.39	0.1106	0.3482	-0.4225	
-0.51789	-0.717116	0.43798	-0.07	0.35	-4.83	0.1045	0.3453	-0.4162	
-0.505324	-0.729072	0.438712	0.14	-1.33	-5.04	0.1091	0.3436	-0.4084	
-0.500078	-0.732488	0.435296	1.12	-0.49	-5.53	0.1044	0.3467	-0.4131	
-0.50325	-0.733586	0.437248	1.54	-0.21	-6.72	0.0984	0.3441	-0.4161	
-0.509594	-0.738954	0.441762	2.24	-0.98	-7.42	0.1032	0.3383	-0.416	
-0.512766	-0.74786	0.449692	1.54	-1.47	-6.51	0.1135	0.3522	-0.418	
-0.508618	-0.752008	0.457134	1.75	-2.38	-5.39	0.1075	0.348	-0.4132	
-0.498248	-0.745664	0.465674	3.64	-2.66	-3.22	0.0968	0.344	-0.4114	
-0.487512	-0.752618	0.457988	3.43	-1.26	-1.54	0.1108	0.3394	-0.4114	
-0.475678	-0.729682	0.447618	3.01	1.4	0.14	0.1028	0.351	-0.4148	
-0.493246	-0.718702	0.453474	2.94	2.45	0.42	0.1014	0.3466	-0.4084	
-0.49654	-0.72346	0.451888	2.45	1.82	0.7	0.1106	0.3451	-0.4146	
-0.49105	-0.717848	0.45506	2.24	1.54	2.31	0.09959999	0.3553	-0.4133	
-0.487878	-0.731268	0.448716	2.94	1.75	3.64	0.0984	0.3439	-0.4114	
-0.491416	-0.716506	0.442982	3.08	2.94	1.75	0.1107	0.3435	-0.4084	
-0.501176	-0.720532	0.442128	2.52	2.94	1.61	0.0907	0.3457	-0.4161	
-0.516792	-0.721996	0.439688	2.38	2.38	0.84	0.1077	0.3411	-0.4207	
-0.504958	-0.718824	0.442006	2.87	1.75	-0.07	0.103	0.3424	-0.4114	
-0.504958	-0.718824	0.445422	3.15	1.47	-0.84	0.109	0.3493	-0.4116	
-0.50935	-0.722728	0.446642	3.71	1.33	-0.91	0.1122	0.3435	-0.4099	
-0.515938	-0.714798	0.452254	3.85	2.1	-0.91	0.09999999	0.3412	-0.4176	
-0.517402	-0.71675	0.447618	3.92	0.84	0.07	0.1106	0.3451	-0.4131	
-0.517768	-0.714676	0.456158	3.85	0.14	-0.07	0.1139	0.341	-0.4208	
-0.510082	-0.72529	0.462136	2.45	-1.19	0.98	0.1012	0.3554	-0.4196	
-0.502762	-0.715408	0.462258	2.38	-0.21	1.61	0.1015	0.3411	-0.4145	
-0.504226	-0.707844	0.46482	2.03	1.47	2.8	0.111	0.3325	-0.4205	
-0.510448	-0.718702	0.456402	1.82	1.05	3.57	0.1197	0.3491	-0.4148	
-0.505202	-0.72285	0.457988	1.82	1.26	3.78	0.117	0.3349	-0.4097	
-0.507398	-0.71065	0.455426	1.96	1.61	3.64	0.1169	0.3408	-0.4161	
-0.505202	-0.709308	0.452864	1.75	0.91	3.71	0.117	0.3363	-0.4097	
-0.502396	-0.711138	0.461648	2.1	0.21	3.5	0.106	0.3437	-0.4083	
-0.498126	-0.72651	0.453352	1.89	-0.35	3.92	0.1186	0.3366	-0.4207	
-0.500078	-0.71919	0.459208	2.94	0.77	3.71	0.1171	0.3339	-0.4237	
-0.504348	-0.72407	0.458354	3.92	0.35	3.01	0.1202	0.3336	-0.4143	
-0.50752	-0.720532	0.462746	4.76	0.77	3.29	0.1168	0.3451	-0.4178	
-0.508984	-0.718336	0.474214	5.04	1.05	3.5	0.1153	0.3439	-0.4271	
-0.503982	-0.732854	0.484706	4.62	0.63	4.76	0.1078	0.3398	-0.4238	
-0.512888	-0.73444	0.480558	5.18	1.47	6.37	0.114	0.3367	-0.4191	
-0.510448	-0.721874	0.480558	6.3	1.54	7.42	0.1124	0.3381	-0.4191	
-0.516426	-0.73749	0.48434	7.21	0.35	9.45	0.1187	0.3323	-0.419	
-0.518134	-0.735782	0.48129	8.89	0.84	12.6	0.1249	0.3293	-0.4189	
-0.514352	-0.746518	0.479338	8.89	1.96	15.61	0.1111	0.3299	-0.4267	
-0.514352	-0.742004	0.488	9.03	4.9	17.85	0.1172	0.331	-0.422	
-0.524722	-0.724924	0.491416	9.24	6.58	19.67	0.1174	0.3242	-0.4327	
-0.51606	-0.717482	0.49471	8.89	7.7	22.61	0.1342	0.3248	-0.4188	
-0.525454	-0.710162	0.487634	9.59	8.89	24.78	0.1251	0.3254	-0.4313	
-0.543144	-0.698328	0.48007	10.57	9.94	27.23	0.133	0.3182	-0.4342	
-0.540094	-0.699182	0.486658	10.57	10.36	28.14	0.1358	0.3263	-0.4236	
-0.550586	-0.712114	0.477386	11.34	10.08	31.29	0.1451	0.3218	-0.4204	
-0.564738	-0.690642	0.481168	13.3	11.62	32.2	0.1423	0.3122	-0.4294	
-0.567178	-0.688568	0.474458	14.35	11.13	32.83	0.147	0.3107	-0.4309	
-0.57645	-0.680882	0.47458	16.24	13.37	34.44	0.1608	0.312	-0.4388	
-0.579012	-0.671976	0.470432	15.96	13.44	35.7	0.1656	0.3032	-0.4339	
-0.603046	-0.66002	0.466162	19.11	15.54	38.08	0.164	0.3046	-0.4324	
-0.60512	-0.63867	0.479094	20.3	15.96	38.78	0.1797	0.2913	-0.4259	
-0.61854	-0.622932	0.481534	20.72	17.57	41.09	0.1764	0.303	-0.4371	
-0.62586	-0.609878	0.480558	19.67	18.76	43.89	0.1921	0.2869	-0.4305	
-0.62647	-0.593408	0.477386	18.34	19.88	44.73	0.1858	0.2943	-0.4353	
-0.641232	-0.587186	0.473726	18.55	21	47.32	0.1953	0.2827	-0.435	
-0.660142	-0.564128	0.464576	19.74	22.47	46.62	0.2094	0.2725	-0.4364	
-0.682712	-0.53619	0.46482	18.62	24.85	46.48	0.2063	0.2708	-0.4223	
-0.710284	-0.532408	0.458598	19.11	23.52	48.93	0.2219	0.2647	-0.4222	
-0.719922	-0.535458	0.44835	19.11	21.7	51.38	0.2188	0.265	-0.43	
-0.70089	-0.525088	0.44713	19.74	18.76	52.22	0.2376	0.2534	-0.4375	
-0.73078	-0.52399	0.437004	23.52	17.78	52.15	0.2515	0.2501	-0.4344	
-0.747128	-0.482876	0.453352	24.15	18.55	50.89	0.255	0.2329	-0.4276	
-0.756644	-0.465064	0.445056	24.64	21.07	52.43	0.2581	0.2315	-0.4307	
-0.761646	-0.430904	0.454572	22.47	23.1	53.2	0.2692	0.2184	-0.4273	
-0.76921	-0.42456	0.443104	23.17	20.79	56.14	0.2553	0.2217	-0.4335	
-0.79422	-0.401136	0.422974	26.46	18.55	56.56	0.2677	0.214	-0.4209	
-0.797758	-0.34343	0.418216	25.13	17.92	52.57	0.2788	0.2055	-0.4301	
-0.825086	-0.32574	0.430172	24.01	18.41	52.15	0.2866	0.198	-0.4221	
-0.841068	-0.302804	0.42883	23.94	17.29	52.36	0.2927	0.1992	-0.4206	
-0.843508	-0.27877	0.40626	23.73	14.98	53.55	0.3036	0.1934	-0.4267	
-0.835578	-0.254248	0.403576	21.28	14	53.97	0.3055	0.1821	-0.4295	
-0.849364	-0.23119	0.402356	21.91	15.05	53.13	0.301	0.1793	-0.4263	
-0.861808	-0.216306	0.403698	20.79	14.35	53.48	0.306	0.1605	-0.4133	
-0.8723	-0.190686	0.403576	20.37	12.53	53.62	0.3092	0.1577	-0.4179	
-0.869494	-0.16348	0.411506	19.11	9.8	54.81	0.3217	0.1505	-0.4255	
-0.872788	-0.142496	0.412238	19.46	8.54	55.16	0.3217	0.149	-0.4224	
-0.870104	-0.134322	0.408334	24.99	6.65	55.65	0.3266	0.1391	-0.4283	
-0.877912	-0.130906	0.411994	26.74	7	57.33	0.3255	0.1218	-0.4154	
-0.87474	-0.091744	0.41114	22.4	9.24	57.61	0.3255	0.1233	-0.417	
-0.887306	-0.07442	0.395524	21.28	7.7	58.94	0.3273	0.1151	-0.4308	
-0.89487	-0.067832	0.4026	21.77	5.88	60.2	0.3477	0.099	-0.4288	
-0.885598	-0.040016	0.406504	23.94	3.5	62.16	0.34	0.096	-0.4162	
-0.8967	-0.008662	0.396256	19.74	2.1	65.38	0.334	0.0919	-0.4145	
-0.88145	0.028548	0.407846	19.11	3.01	65.31	0.3282	0.0793	-0.4141	
-0.866322	0.043554	0.404308	20.72	1.61	68.25	0.339	0.0775	-0.4126	
-0.855342	0.056608	0.412116	18.9	2.24	70.35	0.3378	0.0648	-0.4106	
-0.847656	0.081862	0.411506	18.48	3.08	71.89	0.3381	0.0521	-0.4149	
-0.854366	0.100162	0.41053	18.83	0.07	73.29	0.3473	0.0534	-0.4166	
-0.862784	0.15372	0.416752	17.78	0.7	74.27	0.3401	0.0364	-0.4098	
-0.865712	0.202154	0.421998	13.93	-1.33	75.11	0.3356	0.0292	-0.4002	
-0.866566	0.232044	0.415532	12.74	-3.71	74.83	0.3407	0.0153	-0.417	
-0.847168	0.256444	0.42761	13.23	-3.99	75.25	0.3144	0.0201	-0.4123	
-0.830942	0.267912	0.423706	16.94	-3.64	74.97	0.3301	0.0102	-0.4246	
-0.834846	0.30195	0.413214	17.57	-3.01	74.97	0.3246	-0.0155	-0.4097	
-0.836432	0.340014	0.411506	14.56	-3.78	73.92	0.3259	-0.0085	-0.4068	
-0.83997	0.356972	0.411628	15.05	-4.55	72.38	0.3171	-0.0209	-0.4111	
-0.813496	0.38064	0.408212	14.42	-5.6	69.44	0.3095	-0.0265	-0.4062	
-0.804224	0.40748	0.411384	12.88	-5.11	67.27	0.3144	-0.0366	-0.406	
-0.799832	0.441274	0.41785	11.69	-4.55	65.24	0.307	-0.0447	-0.4135	
-0.799954	0.469334	0.417728	13.44	-6.51	64.96	0.3056	-0.0505	-0.4039	
-0.787998	0.485072	0.420778	13.93	-4.97	62.02	0.2934	-0.0558	-0.4068	
-0.785558	0.487024	0.425902	14.84	-1.82	59.29	0.3151	-0.0634	-0.4083	
-0.77348	0.496052	0.413214	15.68	0.35	56.84	0.2982	-0.0632	-0.3989	
-0.75579	0.500688	0.408822	23.24	0.42	55.93	0.2862	-0.0728	-0.4016	
-0.76677	0.511058	0.403942	23.8	0.91	49.42	0.2989	-0.0887	-0.3981	
-0.759572	0.538874	0.384422	24.71	-0.98	45.92	0.2819	-0.08549999	-0.3981	
-0.772138	0.569252	0.374784	24.08	-0.77	41.93	0.2883	-0.0954	-0.4025	
-0.759694	0.573888	0.372588	26.6	-1.54	40.46	0.2762	-0.101	-0.3945	
-0.746152	0.585234	0.37698	25.27	-3.08	39.06	0.2872	-0.1097	-0.3974	
-0.736514	0.579988	0.38247	21.98	-5.53	36.05	0.2736	-0.1208	-0.3924	
-0.726022	0.593164	0.382836	22.26	-7.14	34.72	0.2688	-0.1122	-0.391	
-0.730048	0.629642	0.389302	19.81	-6.72	34.09	0.2705	-0.1226	-0.3752	
-0.716994	0.626958	0.38491	21.35	-8.89	31.01	0.2522	-0.1261	-0.3859	
-0.719312	0.64599	0.38491	23.31	-8.54	27.3	0.2647	-0.1305	-0.3905	
-0.695522	0.681126	0.388692	21.7	-7	21.49	0.2634	-0.139	-0.3918	
-0.709308	0.654774	0.368928	20.79	-6.51	19.81	0.2618	-0.1394	-0.3746	
-0.699426	0.669048	0.368318	20.65	-7.56	18.27	0.2528	-0.1476	-0.3759	
-0.680394	0.68076	0.363194	19.32	-6.86	17.71	0.2603	-0.1438	-0.3667	
-0.674538	0.688934	0.352946	20.51	-7.35	17.29	0.2437	-0.1529	-0.3819	
-0.665266	0.704428	0.35502	21.84	-6.86	14.84	0.2562	-0.159	-0.3787	
-0.660752	0.684786	0.367586	18.9	-7.28	14.63	0.253	-0.1563	-0.371	
-0.66063	0.687958	0.352214	16.24	-7.35	12.39	0.2426	-0.1686	-0.3752	
-0.65331	0.68625	0.353068	15.68	-6.51	10.5	0.2348	-0.1645	-0.3628	
-0.667828	0.705038	0.350262	14.49	-7	10.85	0.238	-0.17	-0.3705	
-0.65026	0.700036	0.34587	13.37	-8.19	10.64	0.2428	-0.1743	-0.375	
-0.652578	0.70577	0.360998	10.64	-7.35	10.92	0.223	-0.1823	-0.3731	
-0.64233	0.717116	0.361486	8.54	-7.21	10.36	0.2303	-0.1715	-0.3626	
-0.64111	0.718946	0.360998	6.58	-6.51	9.8	0.2414	-0.1846	-0.3592	
-0.646356	0.718946	0.364414	4.2	-6.02	9.8	0.2166	-0.1739	-0.3656	
-0.632082	0.718092	0.35746	5.74	-5.74	9.73	0.2323	-0.1885	-0.3637	
-0.633912	0.71309	0.36905	6.51	-4.13	8.33	0.2228	-0.1769	-0.3655	
-0.630496	0.722606	0.369294	4.9	-3.92	6.37	0.2277	-0.1869	-0.3668	
