Sensor string: A
Serial number: 1970-01-0000
Firmware version: 2,015
Hardware version: 2,2
Calibration quality: 5
ax	ay	az	gx	gy	gz	mx	my	mz

0.241316	0.845948	0.477386	1.19	0.35	0.84	-0.1388	-0.2487	-0.3336	Reference
0.244366	0.849486	0.478606	0.77	-0.14	0.98	-0.1432	-0.2486	-0.3305	
0.246562	0.849608	0.477874	0.63	0	0.98	-0.1287	-0.2491	-0.3353	
0.24888	0.849364	0.476532	0.63	-0.07	0.98	-0.1357	-0.2534	-0.3382	
0.249246	0.846192	0.477508	0.28	-0.35	0.91	-0.1463	-0.2393	-0.3351	
0.253272	0.837164	0.480436	0.07	-0.98	0.7	-0.1489	-0.2515	-0.332	
0.253394	0.832772	0.475678	0.7	-1.05	0.07	-0.1491	-0.2453	-0.3305	
0.25681	0.843508	0.482754	1.82	-1.54	-0.84	-0.143	-0.2516	-0.3382	
0.24827	0.840946	0.483486	1.68	-0.28	-0.77	-0.136	-0.2488	-0.3321	
0.255102	0.835578	0.479704	1.54	-1.05	-0.56	-0.1401	-0.2533	-0.3306	
0.260348	0.83936	0.478728	0.77	-2.24	-0.42	-0.1416	-0.2486	-0.3412	
0.258396	0.84119	0.475922	0.91	-1.96	-0.49	-0.1491	-0.2422	-0.3381	
0.256444	0.845704	0.472872	1.12	-1.19	-0.77	-0.146	-0.2516	-0.3305	
0.253272	0.84668	0.47397	0.77	-0.91	-1.12	-0.1419	-0.2425	-0.3306	
0.250222	0.847778	0.472994	0.63	-0.56	-0.84	-0.1372	-0.2534	-0.3352	
0.249124	0.849486	0.472872	0.49	-0.21	-0.49	-0.1504	-0.2483	-0.332	
0.25315	0.844972	0.474092	0.35	-0.21	-0.21	-0.1504	-0.2483	-0.332	
0.255102	0.845826	0.475068	0.42	0	0	-0.1519	-0.2467	-0.3366	
0.2562	0.841678	0.477752	0.42	0.21	0.21	-0.1519	-0.2467	-0.3366	
0.260226	0.842044	0.476288	0.49	0.21	0.14	-0.1443	-0.2577	-0.3351	
0.258396	0.84302	0.474702	0.49	0.42	-0.28	-0.1486	-0.2607	-0.3305	
0.255956	0.85034	0.47153	0.56	0.84	-0.56	-0.1414	-0.2578	-0.3321	
0.248636	0.850706	0.46787	0	1.19	-0.56	-0.1432	-0.2455	-0.3397	
0.252296	0.855708	0.469944	0	0.63	-0.7	-0.1503	-0.2483	-0.3457	
0.249002	0.853878	0.468724	-1.12	0.91	-0.49	-0.1372	-0.2534	-0.3382	
0.247904	0.848632	0.469212	-0.91	1.26	-0.7	-0.1333	-0.2428	-0.3322	
0.25193	0.84912	0.47031	-0.63	1.47	-0.63	-0.1376	-0.2426	-0.3337	
0.24644	0.8479	0.46604	-0.56	2.1	-0.7	-0.1419	-0.2425	-0.3351	
0.244854	0.857416	0.460672	-0.21	2.24	-0.35	-0.136	-0.2458	-0.3352	
0.241194	0.868396	0.454328	-0.77	2.03	-0.14	-0.1317	-0.2459	-0.3368	
0.241926	0.873642	0.44591	-1.82	1.82	-0.35	-0.1372	-0.2518	-0.3443	
0.243146	0.881206	0.4331	-2.45	1.33	-0.77	-0.1357	-0.255	-0.3398	
0.23546	0.89487	0.407358	-2.94	1.82	-1.54	-0.1333	-0.2397	-0.3352	
0.221674	0.924516	0.381372	-4.06	2.73	-1.68	-0.133	-0.2489	-0.3398	
0.198494	0.956114	0.373442	-5.18	3.29	0.21	-0.1372	-0.2518	-0.3428	
0.203496	0.96014	0.376858	-11.06	1.96	2.8	-0.1385	-0.2579	-0.3367	
0.204472	0.948062	0.383446	-19.81	1.54	3.85	-0.1361	-0.2427	-0.3398	
0.201788	0.940376	0.393816	-20.79	2.1	4.48	-0.1374	-0.2472	-0.3413	
0.208498	0.91378	0.409188	-24.29	4.83	5.74	-0.1376	-0.238	-0.3474	
0.211914	0.898652	0.415166	-26.11	4.34	7.14	-0.1376	-0.238	-0.3474	
0.209474	0.872422	0.430294	-26.88	1.82	9.24	-0.1363	-0.235	-0.3444	
0.220332	0.86925	0.429928	-29.75	-0.35	10.85	-0.1361	-0.2381	-0.3535	
0.224846	0.869372	0.456158	-31.78	-1.75	11.13	-0.1295	-0.2183	-0.3567	
0.244244	0.858514	0.46665	-33.39	-0.28	11.69	-0.1394	-0.2226	-0.3612	
0.23424	0.850096	0.451888	-35.14	1.26	11.27	-0.14	-0.2072	-0.3597	
0.217648	0.849852	0.45262	-37.17	1.61	11.34	-0.14	-0.2072	-0.3597	
0.224236	0.843386	0.451644	-41.79	2.1	10.57	-0.1503	-0.1992	-0.3581	
0.221796	0.807518	0.472262	-45.36	2.17	10.5	-0.1461	-0.1978	-0.3566	
0.221308	0.761524	0.491782	-47.11	0.98	13.44	-0.1463	-0.1886	-0.3704	
0.234484	0.768722	0.507276	-49.35	-2.03	19.11	-0.1404	-0.1903	-0.3735	
0.257786	0.769332	0.516304	-51.24	-1.26	21.56	-0.1428	-0.1626	-0.3735	
0.252784	0.729926	0.51179	-60.9	0.07	19.39	-0.1443	-0.1595	-0.372	
0.245098	0.71309	0.524966	-61.46	5.88	23.45	-0.1519	-0.147	-0.3735	
0.233386	0.690154	0.548512	-68.32	1.89	23.8	-0.1551	-0.1361	-0.3842	
0.239852	0.649284	0.606706	-76.93	-8.47	19.6	-0.1494	-0.1317	-0.3903	
0.283528	0.617808	0.647576	-75.88	-8.26	21.7	-0.1513	-0.1209	-0.3827	
0.306708	0.60878	0.669414	-71.26	-4.76	26.74	-0.1531	-0.1055	-0.3949	
0.334158	0.562298	0.686494	-69.51	-2.8	25.9	-0.1564	-0.0947	-0.3919	
0.281698	0.54351	0.650626	-80.92	-11.9	21.35	-0.164	-0.0837	-0.3934	
0.30988	0.516182	0.659044	-78.82	-8.68	26.25	-0.1631	-0.0653	-0.398	
0.284138	0.495076	0.655018	-75.04	0.28	27.09	-0.1708	-0.0497	-0.401	
0.279136	0.461892	0.66551	-79.17	-0.98	22.47	-0.1654	-0.0391	-0.3935	
0.304878	0.429928	0.690032	-82.04	-6.72	23.45	-0.1732	-0.022	-0.3965	
0.314638	0.427244	0.708332	-82.11	-7	27.3	-0.1694	-0.0068	-0.3935	
0.328302	0.405406	0.72468	-85.89	-7.56	29.12	-0.1695	-0.0022	-0.3996	
0.337818	0.374906	0.74908	-91.21	-5.04	28.98	-0.1671	0.0114	-0.3997	
0.33367	0.322934	0.759816	-95.27	-2.8	31.36	-0.1708	0.0345	-0.3951	
0.346358	0.255102	0.787144	-96.74	0.77	28	-0.1684	0.0513	-0.3952	
0.372832	0.18544	0.844118	-93.59	0.28	24.99	-0.1664	0.0758	-0.3937	
0.379908	0.151646	0.871324	-91.35	0.42	23.73	-0.167	0.0896	-0.38	
0.399428	0.091378	0.894138	-88.97	1.33	22.89	-0.167	0.0896	-0.38	
0.403332	0.06832	0.90585	-85.89	1.33	22.96	-0.1651	0.1186	-0.377	
0.397354	0.031598	0.914634	-84.21	3.08	23.31	-0.1569	0.1336	-0.3741	
0.401624	0.006588	0.925858	-80.15	3.08	23.1	-0.1569	0.1336	-0.3741	
0.406748	-0.029158	0.938668	-78.33	3.92	21	-0.1619	0.1507	-0.3619	
0.411506	-0.077836	0.948062	-74.34	3.92	19.04	-0.1697	0.1678	-0.368	
0.404552	-0.104676	0.945256	-71.05	4.69	17.08	-0.1597	0.1705	-0.3681	
0.396134	-0.120414	0.957456	-66.01	4.9	16.87	-0.1573	0.1858	-0.3651	
0.396378	-0.149938	0.963068	-62.44	4.48	17.5	-0.1606	0.1981	-0.3651	
0.395036	-0.176046	0.964654	-57.4	4.69	16.31	-0.1623	0.2028	-0.3528	
0.404796	-0.20252	0.964532	-52.78	3.71	14.35	-0.1454	0.2129	-0.3515	
0.405162	-0.205814	0.963068	-47.88	3.64	14.98	-0.1455	0.2144	-0.3424	
0.39833	-0.216794	0.96502	-44.17	4.13	12.88	-0.1531	0.227	-0.3499	
0.400526	-0.246074	0.979294	-38.36	3.01	9.8	-0.1551	0.2439	-0.3454	
0.403454	-0.263764	0.984296	-34.79	2.45	8.12	-0.1436	0.2435	-0.3394	
0.403942	-0.26962	0.979904	-29.89	2.94	6.79	-0.1496	0.2452	-0.3195	
0.399916	-0.283162	0.980026	-26.6	2.8	6.02	-0.1424	0.2464	-0.3226	
0.408944	-0.287554	0.982588	-21.35	1.82	5.67	-0.1397	0.2525	-0.3257	
0.403576	-0.295118	0.975512	-17.99	0.91	4.76	-0.1502	0.2667	-0.3348	
0.401136	-0.287066	0.981856	-13.02	0	3.43	-0.1429	0.2587	-0.318	
0.407846	-0.29341	0.97905	-8.75	-0.42	1.89	-0.133	0.2691	-0.3319	
0.404918	-0.295972	0.977342	-4.2	-0.91	0.14	-0.137	0.257	-0.3227	
0.408334	-0.288286	0.996252	0.28	-1.82	-2.03	-0.1531	0.2621	-0.3195	
0.41602	-0.29524	1.006866	3.92	-1.05	-4.83	-0.1503	0.2667	-0.3226	
0.421022	-0.3111	1.013454	6.93	-0.49	-7.07	-0.1458	0.2604	-0.3211	
0.41968	-0.31964	1.009916	11.83	-0.63	-7.49	-0.137	0.2585	-0.3242	
0.412848	-0.315126	1.002962	17.01	-0.7	-8.12	-0.1483	0.2528	-0.3302	
0.412238	-0.312686	1.000278	22.05	-1.89	-8.82	-0.1341	0.26	-0.3365	
0.412116	-0.301584	0.99796	30.1	-2.94	-11.34	-0.1486	0.2605	-0.3256	
0.406748	-0.28548	0.989542	35.56	-2.52	-13.93	-0.1453	0.2481	-0.3272	
0.405528	-0.263642	0.988566	41.09	-4.13	-16.17	-0.1525	0.2499	-0.3363	
0.416752	-0.247782	0.985516	45.29	-5.74	-17.99	-0.1518	0.2315	-0.3408	
0.414678	-0.22997	0.97905	49.98	-5.25	-19.32	-0.1517	0.2269	-0.3454	
0.412604	-0.213866	0.979172	54.11	-4.41	-20.44	-0.1516	0.2238	-0.3438	
0.41541	-0.198738	0.973682	59.5	-3.99	-21.14	-0.1585	0.218	-0.3499	
0.418216	-0.160064	0.962946	65.03	-4.62	-23.73	-0.1593	0.1996	-0.3529	
0.41663	-0.115168	0.956724	69.58	-4.55	-25.9	-0.1606	0.1935	-0.3544	
0.402966	-0.09357399	0.937448	71.54	-3.01	-28.7	-0.1691	0.1908	-0.3619	
0.389424	-0.077348	0.93025	74.27	-1.96	-29.26	-0.1583	0.172	-0.3635	
0.387228	-0.054046	0.91805	77.84	-2.38	-29.89	-0.1639	0.1645	-0.3619	
0.397232	-0.012322	0.90951	80.85	-2.73	-30.31	-0.1649	0.1554	-0.368	
0.397354	0.030134	0.892308	84.21	-2.52	-30.59	-0.1716	0.1403	-0.3679	
0.393328	0.066368	0.865346	83.86	-1.89	-27.65	-0.1711	0.128	-0.3785	
0.383568	0.08662	0.856318	84.28	-3.01	-31.92	-0.1676	0.1095	-0.3877	
0.36112	0.121024	0.830698	90.44	3.43	-34.37	-0.1783	0.0854	-0.3875	
0.353434	0.161406	0.81862	91.91	0.56	-33.32	-0.1631	0.0618	-0.3907	
0.346968	0.197762	0.800442	92.82	-0.56	-32.48	-0.1757	0.05	-0.3798	
0.343552	0.243024	0.76799	93.87	0.42	-34.44	-0.165	0.0343	-0.3891	
0.329888	0.28975	0.753838	93.87	1.12	-34.65	-0.1789	0.0149	-0.3843	
0.320128	0.294996	0.748958	92.54	2.1	-31.5	-0.1738	-0.0036	-0.3935	
0.317932	0.291214	0.730902	93.38	2.24	-29.19	-0.1694	-0.0068	-0.3889	
0.313418	0.316834	0.701012	95.76	2.1	-30.03	-0.1714	-0.0343	-0.3919	
0.2928	0.366976	0.664412	94.78	1.4	-35.21	-0.1768	-0.0464	-0.3887	
0.290604	0.422242	0.65026	94.29	0.35	-33.95	-0.1733	-0.065	-0.3826	
0.28609	0.455914	0.63806	93.17	0	-31.71	-0.1655	-0.0821	-0.3903	
0.28121	0.47153	0.623176	91.7	0.42	-29.12	-0.171	-0.0896	-0.3872	
0.28182	0.480558	0.591944	90.86	-1.61	-29.68	-0.1672	-0.1188	-0.3795	
0.284992	0.521306	0.564006	94.22	-5.25	-30.31	-0.1656	-0.125	-0.3795	
0.27389	0.573644	0.526918	97.02	-7.84	-30.66	-0.1723	-0.1432	-0.3702	
0.255834	0.618784	0.502884	97.02	-9.31	-30.52	-0.1589	-0.1544	-0.3719	
0.21411	0.650504	0.430416	92.89	-9.87	-30.31	-0.1641	-0.1726	-0.3672	
0.202886	0.675636	0.406504	96.11	-11.62	-29.26	-0.1622	-0.1896	-0.3626	
0.225578	0.71858	0.376126	98.28	-15.4	-32.41	-0.1691	-0.2016	-0.3533	
0.207156	0.786412	0.3294	101.36	-15.61	-36.68	-0.1583	-0.225	-0.3442	
0.188002	0.87596	0.323422	107.45	-22.54	-40.25	-0.1625	-0.2326	-0.3334	
0.162138	0.900848	0.257176	102.34	-23.24	-39.69	-0.1645	-0.2586	-0.3349	
0.141032	0.947086	0.188246	97.58	-28.98	-38.01	-0.16	-0.2664	-0.3227	
0.124806	0.974292	0.145302	83.58	-24.43	-39.9	-0.1612	-0.2771	-0.3089	
0.144204	0.937936	0.15616	75.32	-22.89	-39.62	-0.1665	-0.2938	-0.2966	
0.134688	0.948062	0.163114	67.69	-21.7	-35.49	-0.1663	-0.3031	-0.2844	
0.143594	0.957822	0.189954	64.4	-21.14	-28.84	-0.1531	-0.3112	-0.2829	
0.18239	0.944036	0.206302	60.2	-23.1	-22.26	-0.1588	-0.3203	-0.263	
0.165432	0.955382	0.162748	57.96	-20.02	-17.01	-0.1639	-0.3369	-0.2736	
0.129808	1.005158	0.118462	59.92	-17.85	-18.27	-0.1524	-0.3389	-0.2615	
0.113338	1.053714	0.10797	62.44	-13.51	-23.66	-0.1669	-0.3399	-0.2445	
0.136762	1.099708	0.117364	61.53	-12.04	-25.55	-0.1564	-0.3557	-0.2355	
0.114314	1.05408	0.083204	52.29	-4.06	-23.24	-0.1546	-0.3649	-0.2354	
0.12261	1.031022	0.062952	47.95	-3.92	-23.59	-0.1562	-0.3649	-0.2202	
0.133102	1.014674	0.064904	46.06	-3.22	-21.28	-0.1431	-0.37	-0.2157	
0.125538	1.035658	0.065392	45.78	-0.7	-15.89	-0.1487	-0.3775	-0.2065	
0.137128	1.06628	0.063684	42.07	1.19	-9.52	-0.1399	-0.3824	-0.205	
0.112362	1.026264	0.02257	34.44	2.94	-9.59	-0.1422	-0.4023	-0.2034	
0.095404	1.093608	0.014152	36.26	0.77	-10.15	-0.1368	-0.3933	-0.1943	
0.085888	1.104222	-0.001708	34.23	1.61	-11.97	-0.1379	-0.404	-0.1912	
0.080642	1.122644	-0.01037	31.22	1.33	-13.72	-0.1291	-0.4073	-0.1959	
0.072956	1.135576	-0.015128	26.74	-1.61	-14.63	-0.1394	-0.4039	-0.1836	
0.085888	1.130208	-0.017568	22.12	-3.01	-16.1	-0.1315	-0.421	-0.1943	
0.086498	1.121668	-0.020618	15.68	-7.56	-12.81	-0.1409	-0.4024	-0.179	
0.081862	1.118618	-0.024156	11.76	-6.23	-10.36	-0.1345	-0.4225	-0.1836	
0.081862	1.100806	-0.03172	10.64	-3.43	-11.55	-0.1366	-0.404	-0.179	
0.085522	1.073234	-0.028914	8.96	-1.61	-12.39	-0.1247	-0.4152	-0.1776	
0.08662	1.078968	-0.024644	7.63	-2.66	-11.76	-0.1261	-0.4167	-0.176	
0.09211	1.056398	-0.020496	4.76	-0.21	-10.99	-0.1177	-0.4093	-0.1746	
0.09577	1.02785	-0.011834	2.45	1.89	-9.45	-0.1332	-0.4211	-0.1683	
0.109068	0.993568	-0.003538	0.7	2.94	-6.58	-0.1262	-0.4136	-0.1715	
0.11224	1.00284	-0.007442	2.17	4.41	-4.76	-0.1098	-0.428	-0.1762	
0.087962	1.012356	-0.029768	3.92	6.3	-5.32	-0.1172	-0.4247	-0.1654	
0.062952	1.037854	-0.027816	6.72	6.86	-5.53	-0.119	-0.4139	-0.1654	
0.044286	1.085068	-0.040748	7.91	5.67	-5.88	-0.1117	-0.4172	-0.1716	
0.037942	1.089582	-0.046604	5.32	5.18	-7.7	-0.1203	-0.4169	-0.1776	
0.035502	1.06201	-0.05124	2.03	4.76	-8.61	-0.1059	-0.4159	-0.1778	
0.023668	1.079822	-0.044164	2.24	2.73	-7.14	-0.1113	-0.4279	-0.1731	
0.010614	1.114348	-0.058682	0.77	0.91	-6.65	-0.1174	-0.4185	-0.1746	
0.01525	1.125572	-0.054778	-1.82	0.07	-6.44	-0.1132	-0.4141	-0.167	
0.013908	1.115324	-0.0427	-4.34	-0.63	-6.72	-0.1102	-0.4219	-0.1609	
0.026108	1.107516	-0.039162	-6.3	-0.98	-6.16	-0.1116	-0.4218	-0.1655	
0.029768	1.081652	-0.02135	-10.29	-0.35	-3.99	-0.1063	-0.4051	-0.1732	
0.033184	1.05713	-0.02135	-11.97	-0.42	-1.96	-0.1059	-0.4174	-0.1717	
0.024766	1.076406	-0.021228	-12.32	-1.05	0.07	-0.1144	-0.4217	-0.1746	
0.025376	1.09556	-0.015982	-13.72	-0.35	1.82	-0.1016	-0.4129	-0.1793	
0.030988	1.097878	-0.007686	-16.45	0.98	3.85	-0.1042	-0.422	-0.1808	
0.02562	1.09068	-0.004026	-19.11	1.75	5.88	-0.1029	-0.4175	-0.1839	
0.034526	1.059448	0.005856	-21.14	2.45	8.05	-0.1147	-0.4094	-0.1823	
0.030134	1.056154	0.00183	-21.42	2.38	9.8	-0.1087	-0.4127	-0.1915	
0.031354	1.070062	0.007686	-22.26	2.73	11.97	-0.1072	-0.4189	-0.1839	
0.02867	1.068842	0.010004	-24.99	3.5	14.35	-0.113	-0.414	-0.1945	
0.030622	1.067012	0.024522	-26.6	3.57	16.59	-0.1135	-0.3987	-0.1961	
0.052948	1.04066	0.045262	-28.21	3.29	18.06	-0.1205	-0.4046	-0.199	
0.052216	1.04737	0.042578	-29.19	3.01	18.76	-0.1279	-0.3966	-0.2036	
0.057828	1.05408	0.052216	-29.19	4.27	19.04	-0.1252	-0.3875	-0.2128	
0.060512	1.056642	0.058072	-29.96	3.36	20.65	-0.1151	-0.3879	-0.2129	
0.069662	1.073356	0.058926	-31.5	4.27	21.49	-0.1181	-0.3847	-0.2113	
0.081374	1.064328	0.07076	-34.72	5.11	21.28	-0.1242	-0.3737	-0.2205	
0.094062	1.054202	0.086498	-37.03	5.53	22.82	-0.1341	-0.3779	-0.2265	
0.090036	1.036878	0.095892	-39.41	5.39	25.06	-0.1284	-0.3735	-0.2296	
0.081618	1.03456	0.095038	-40.25	6.09	25.69	-0.1328	-0.3718	-0.2326	
0.0976	1.021628	0.108336	-41.72	4.2	24.43	-0.1429	-0.3699	-0.2371	
0.113216	1.023458	0.122122	-42.21	4.41	25.9	-0.1388	-0.3593	-0.2524	
0.115168	1.034804	0.127002	-44.59	3.43	28.7	-0.149	-0.3559	-0.2523	
0.126392	1.047858	0.142862	-47.11	1.26	29.4	-0.1523	-0.3435	-0.2523	
0.124684	1.037244	0.145058	-49.84	1.47	29.75	-0.1525	-0.3358	-0.2615	
0.122	1.03822	0.142374	-51.24	2.66	28.77	-0.1494	-0.339	-0.2661	
0.135908	1.031022	0.155428	-54.67	2.03	29.61	-0.1571	-0.3234	-0.2707	
0.15311	1.023092	0.173728	-57.19	1.33	30.59	-0.1585	-0.3233	-0.2767	
0.16348	1.01687	0.186294	-60.13	2.03	30.66	-0.1562	-0.305	-0.2829	
0.176168	1.003572	0.20923	-63.14	1.12	30.17	-0.1663	-0.3046	-0.2844	
0.19642	0.981124	0.240828	-65.94	0.42	30.52	-0.1605	-0.3017	-0.2936	
0.204472	0.951478	0.273524	-66.92	0.28	30.31	-0.1655	-0.2816	-0.2982	
0.198372	0.917684	0.274256	-68.18	-5.18	30.8	-0.1788	-0.2688	-0.3088	
0.212646	0.91073	0.279502	-68.88	-4.69	30.03	-0.1816	-0.2656	-0.3301	
0.23973	0.892552	0.301828	-69.72	-4.55	31.08	-0.1849	-0.2579	-0.3148	
0.267058	0.858636	0.334402	-74.69	-6.58	35.7	-0.1856	-0.2302	-0.3363	
0.276452	0.813252	0.366244	-76.44	-3.08	36.54	-0.1903	-0.2193	-0.3347	
0.27145	0.771894	0.374052	-75.32	1.12	35.84	-0.1947	-0.2161	-0.3393	
0.260592	0.767014	0.384788	-76.72	0.42	35.98	-0.1897	-0.1886	-0.3547	
0.252418	0.740906	0.355508	-80.92	-5.46	39.48	-0.2013	-0.1898	-0.3393	
0.279624	0.693082	0.390156	-85.19	-3.71	41.3	-0.2093	-0.1634	-0.3484	
0.287066	0.621224	0.396134	-88.13	1.12	42.7	-0.2064	-0.1635	-0.3515	
0.310246	0.564372	0.422486	-90.86	3.92	43.89	-0.2159	-0.1356	-0.3622	
0.329888	0.512278	0.480192	-93.66	4.27	47.81	-0.2017	-0.1253	-0.3776	
0.332694	0.463112	0.51301	-96.04	5.6	52.5	-0.2107	-0.1158	-0.3714	
0.335866	0.42883	0.54717	-98.98	8.05	53.13	-0.2088	-0.0883	-0.3669	
0.35502	0.400892	0.591944	-97.86	7.21	52.01	-0.212	-0.079	-0.3685	
0.41541	0.373076	0.681614	-96.46	17.08	43.4	-0.2068	-0.0592	-0.3747	
0.417484	0.30927	0.714188	-105	12.18	36.47	-0.2092	-0.03	-0.3793	
0.42883	0.255712	0.768844	-105.35	-3.01	50.89	-0.2065	-0.0224	-0.387	
0.417484	0.221552	0.760792	-99.26	3.92	40.46	-0.2015	0.0003	-0.3764	
0.40077	0.207522	0.753472	-91.49	7.28	36.96	-0.2121	0.0129	-0.3763	
0.39223	0.16958	0.750056	-89.53	10.29	33.88	-0.2069	0.0327	-0.381	
0.400526	0.084546	0.76677	-90.02	6.58	34.3	-0.2042	0.0388	-0.3872	
0.413214	0.03416	0.785558	-87.15	3.85	39.62	-0.2051	0.0602	-0.3689	
0.413336	0.015616	0.79544	-80.99	2.8	37.94	-0.2	0.0846	-0.3751	
0.42212	0.023546	0.828868	-76.44	3.85	38.71	-0.204	0.074	-0.372	
0.43615	-0.01708	0.843386	-77.7	3.71	37.1	-0.1977	0.1013	-0.3721	
0.44591	-0.038186	0.854366	-76.93	0.35	36.82	-0.1995	0.1121	-0.3706	
0.450424	-0.050508	0.87779	-74.83	0.63	36.33	-0.1972	0.1274	-0.3691	
0.45018	-0.087596	0.882914	-71.75	1.54	34.23	-0.1952	0.1534	-0.3677	
0.4575	-0.118584	0.899506	-68.18	0.84	31.36	-0.1895	0.1547	-0.3647	
0.473238	-0.147742	0.914146	-65.31	0.14	26.32	-0.1886	0.1669	-0.351	
0.495198	-0.18056	0.939766	-62.37	0.28	22.47	-0.1835	0.1866	-0.345	
0.510204	-0.225212	0.959652	-59.36	1.19	21.49	-0.1836	0.1897	-0.3495	
0.51118	-0.24766	0.96807	-53.34	3.92	21.56	-0.1884	0.2021	-0.3449	
0.511546	-0.26779	0.967948	-47.74	4.2	18.97	-0.1858	0.2097	-0.3358	
0.5063	-0.249734	0.983076	-40.11	3.36	17.36	-0.1863	0.2235	-0.3343	
0.506056	-0.251198	0.986004	-34.16	5.18	15.12	-0.1761	0.2216	-0.3344	
0.504714	-0.247294	0.989908	-29.82	3.85	14.63	-0.1678	0.2289	-0.3223	
0.500322	-0.246074	0.982466	-25.9	2.8	11.97	-0.1837	0.2295	-0.3267	
0.495198	-0.236558	0.974658	-21.98	3.64	8.12	-0.1693	0.2336	-0.3299	
0.49898	-0.253882	0.979538	-18.27	3.71	5.25	-0.1857	0.2465	-0.3252	
0.4941	-0.281698	0.980514	-13.58	4.2	3.71	-0.171	0.2383	-0.3269	
0.485194	-0.28975	0.97417	-9.1	2.17	2.59	-0.1799	0.2432	-0.3161	
0.495564	-0.2745	0.971364	-4.27	-1.05	0.84	-0.1609	0.2394	-0.3255	
0.495442	-0.25498	0.97173	1.47	-1.05	-0.42	-0.1652	0.2365	-0.3193	
0.502274	-0.267546	0.974902	5.11	-1.82	-2.31	-0.1785	0.2462	-0.3222	
0.492758	-0.279014	0.973682	9.66	-2.1	-4.06	-0.1699	0.2474	-0.3223	
0.481534	-0.244	0.95526	17.29	-3.5	-7.14	-0.1683	0.2458	-0.3269	
0.486658	-0.237168	0.9577	20.86	-3.36	-9.87	-0.1765	0.2324	-0.3345	
0.498858	-0.25315	0.963556	24.85	-3.64	-11.41	-0.1796	0.2401	-0.3344	
0.499956	-0.240584	0.976732	29.68	-4.97	-12.67	-0.1709	0.2352	-0.3223	
0.498614	-0.220576	0.976244	34.37	-5.81	-14.7	-0.1721	0.2307	-0.3299	
0.503128	-0.20923	0.976122	39.34	-5.46	-17.01	-0.182	0.2233	-0.3298	
0.50691	-0.194346	0.972096	43.89	-5.04	-19.88	-0.1846	0.2189	-0.345	
0.49959	-0.191784	0.958554	47.81	-4.97	-22.19	-0.1832	0.2173	-0.3328	
0.486292	-0.17934	0.95282	52.99	-5.32	-23.87	-0.1825	0.1973	-0.3312	
0.491782	-0.151768	0.938912	58.31	-6.58	-25.48	-0.1895	0.1945	-0.3541	
0.493246	-0.11285	0.924272	62.44	-6.37	-28.7	-0.1907	0.1884	-0.3541	
0.491904	-0.09357399	0.91195	66.01	-4.48	-31.36	-0.1932	0.1763	-0.3555	
0.48068	-0.072468	0.89731	69.58	-4.2	-32.76	-0.1928	0.164	-0.3509	
0.469578	-0.04087	0.885232	73.36	-5.11	-34.44	-0.1966	0.1488	-0.3508	
0.465064	-0.012688	0.872178	76.51	-5.46	-35.63	-0.199	0.1351	-0.3615	
0.466162	0.025376	0.840458	81.76	-3.5	-38.29	-0.2087	0.1232	-0.3614	
0.464088	0.066002	0.831186	81.55	-6.58	-40.88	-0.2121	0.1003	-0.3704	
0.456524	0.092354	0.815326	84.91	-3.08	-40.74	-0.1971	0.0814	-0.3675	
0.453718	0.106384	0.801296	89.11	0.07	-40.95	-0.2112	0.0727	-0.378	
0.438956	0.150792	0.767258	89.67	-2.73	-44.17	-0.2162	0.053	-0.3871	
0.421388	0.213378	0.745176	90.3	-2.66	-45.22	-0.2085	0.0358	-0.3749	
0.41114	0.247172	0.733342	91.35	-1.82	-43.33	-0.2168	0.0223	-0.3717	
0.404796	0.265472	0.728706	92.12	-1.26	-43.4	-0.2005	0.0125	-0.3764	
0.39833	0.279624	0.705404	93.38	-2.31	-44.8	-0.2039	-0.0164	-0.3779	
0.391986	0.313174	0.681126	95.9	-1.54	-45.36	-0.2121	-0.0299	-0.3762	
0.377468	0.365756	0.66063	96.81	-1.05	-47.95	-0.2088	-0.0423	-0.3762	
0.356972	0.408456	0.641598	96.39	-0.63	-47.18	-0.2125	-0.0636	-0.3685	
0.3477	0.429318	0.615856	94.5	-2.59	-45.22	-0.2078	-0.07449999	-0.3685	
0.352336	0.444202	0.582184	91.84	-6.79	-40.95	-0.2084	-0.099	-0.373	
0.351482	0.455426	0.552538	87.71	-14.42	-38.85	-0.2007	-0.1131	-0.367	
0.336354	0.488488	0.524478	91.63	-14.28	-42.56	-0.2076	-0.1251	-0.3577	
0.291336	0.544364	0.419192	102.2	2.8	-47.46	-0.2011	-0.1468	-0.3638	
0.244854	0.604998	0.369782	106.4	3.64	-45.85	-0.2004	-0.1714	-0.3546	
0.252296	0.702232	0.374418	107.66	-0.91	-48.51	-0.1918	-0.1702	-0.3501	
0.269132	0.766892	0.358924	102.55	-0.91	-49.56	-0.2043	-0.1897	-0.3362	
0.276574	0.791902	0.33306	92.54	-2.45	-42.14	-0.1877	-0.2102	-0.3394	
0.265594	0.811178	0.316956	80.5	-17.78	-40.67	-0.196	-0.2222	-0.3316	
0.224968	0.826428	0.272426	68.74	-25.62	-41.09	-0.1912	-0.2393	-0.3179	
0.210206	0.859734	0.237778	73.99	-24.78	-43.33	-0.1924	-0.2469	-0.3163	
0.174948	0.912316	0.174704	76.37	-17.78	-45.36	-0.1892	-0.2608	-0.3071	
0.163236	1.014186	0.191784	81.69	-13.72	-47.04	-0.1799	-0.2811	-0.298	
0.181292	1.006378	0.195444	75.95	-6.44	-43.82	-0.1884	-0.2869	-0.2949	
0.178974	0.98149	0.186538	71.61	-2.24	-37.31	-0.1781	-0.2981	-0.2781	
0.180926	0.995642	0.17263	70.56	-0.35	-32.9	-0.1764	-0.3043	-0.2827	
0.162504	1.011258	0.13969	66.71	-0.42	-28.14	-0.1774	-0.3242	-0.2643	
0.152134	1.043466	0.131516	64.68	1.19	-30.66	-0.1699	-0.3352	-0.2537	
0.131516	1.043466	0.105286	52.85	-7.07	-28.14	-0.1668	-0.3446	-0.2461	
0.125782	1.04005	0.09747799	49.98	-4.27	-25.83	-0.1551	-0.3527	-0.2294	
0.124684	1.000644	0.089548	45.99	-3.22	-23.03	-0.1609	-0.3509	-0.2339	
0.129686	1.01504	0.090158	50.12	-2.03	-19.95	-0.1532	-0.3696	-0.2232	
0.118096	1.038586	0.073932	50.4	0.7	-20.02	-0.1545	-0.3711	-0.2293	
0.09942999	1.045662	0.045262	47.39	3.01	-18.9	-0.1473	-0.3729	-0.2202	
0.11956	1.030656	0.042212	43.33	2.52	-16.31	-0.1425	-0.3884	-0.2111	
0.111264	1.019798	0.024156	37.73	2.17	-13.72	-0.1398	-0.3855	-0.2111	
0.087352	1.044442	0.020496	37.31	0.77	-10.01	-0.147	-0.3867	-0.2034	
0.08235	1.090314	0.025498	37.03	-1.61	-8.4	-0.1469	-0.3914	-0.2034	
0.068442	1.08641	0.00305	31.85	-2.73	-10.57	-0.1396	-0.3947	-0.1943	
0.068564	1.121546	-0.00244	31.01	-4.76	-13.23	-0.1424	-0.3977	-0.1942	
0.081862	1.135454	-0.004392	29.4	-5.32	-15.96	-0.1409	-0.4023	-0.1866	
0.104188	1.115446	0.00061	24.15	-2.87	-18.76	-0.1338	-0.4011	-0.1745	
0.102236	1.094828	-0.017202	18.13	-1.4	-18.41	-0.1407	-0.4069	-0.1866	
0.082716	1.084702	-0.03355	16.1	-1.05	-16.94	-0.1363	-0.4086	-0.1866	
0.080154	1.100318	-0.022082	13.23	0.21	-14.07	-0.1264	-0.4059	-0.1776	
0.074908	1.084458	-0.021838	9.87	0.77	-13.23	-0.1277	-0.412	-0.176	
0.074542	1.056642	-0.0244	7.28	2.03	-11.41	-0.1292	-0.412	-0.1684	
0.07515199	1.039928	-0.024644	6.37	4.2	-8.4	-0.1219	-0.4122	-0.1746	
0.053192	1.050908	-0.025864	6.72	2.66	-4.97	-0.1233	-0.4168	-0.1669	
0.044408	1.075308	-0.035868	8.05	2.87	-3.15	-0.125	-0.4075	-0.1669	
0.0549	1.059814	-0.045994	7.28	5.46	-4.69	-0.1263	-0.4152	-0.1592	
0.05002	1.074088	-0.044408	6.93	4.69	-6.93	-0.1174	-0.417	-0.1715	
0.046482	1.080432	-0.042456	5.32	4.13	-7.21	-0.1246	-0.4214	-0.1669	
0.04148	1.080676	-0.045994	2.8	2.8	-5.67	-0.1172	-0.4293	-0.1578	
0.049776	1.07787	-0.046604	-1.12	2.03	-3.01	-0.1175	-0.4155	-0.1715	
0.03965	1.079456	-0.049166	-3.43	2.24	-1.68	-0.1191	-0.4124	-0.1685	
0.049776	1.0858	-0.039528	-5.25	3.43	-0.49	-0.1202	-0.4231	-0.1639	
0.039772	1.102514	-0.0305	-6.16	3.92	0.42	-0.1116	-0.4203	-0.1624	
0.042212	1.095682	-0.02562	-8.19	3.29	0.77	-0.1073	-0.4174	-0.1747	
0.03721	1.103734	-0.026108	-9.73	2.38	0.63	-0.116	-0.4155	-0.1716	
0.035258	1.110688	-0.027694	-14.14	1.4	1.75	-0.1157	-0.4232	-0.1792	
0.042944	1.088972	-0.024522	-17.57	1.68	3.15	-0.1117	-0.4157	-0.1762	
0.039406	1.088728	-0.021716	-19.11	1.33	5.39	-0.1161	-0.4124	-0.1807	
0.043188	1.09617	-0.016714	-20.37	1.33	6.86	-0.1234	-0.4091	-0.1807	
0.048922	1.103124	-0.005978	-22.05	1.61	7.98	-0.1164	-0.4017	-0.1808	
0.06283	1.086898	0.008052	-24.64	2.73	9.59	-0.1219	-0.4076	-0.1914	
0.069052	1.074698	0.015738	-25.9	3.29	10.43	-0.1251	-0.3967	-0.1914	
0.065514	1.052372	0.022082	-26.95	3.57	11.76	-0.1188	-0.4123	-0.199	
0.06344	1.04615	0.019032	-26.88	3.01	12.53	-0.125	-0.3952	-0.2082	
0.061122	1.061644	0.021594	-27.3	3.5	13.58	-0.1225	-0.3861	-0.2036	
0.065636	1.066036	0.035136	-29.26	5.46	15.89	-0.1277	-0.4028	-0.2066	
0.063074	1.065792	0.043188	-30.87	5.67	18.48	-0.1183	-0.3816	-0.2083	
0.074908	1.071526	0.053192	-31.99	4.97	20.72	-0.1368	-0.3871	-0.2172	
0.083082	1.06323	0.061732	-33.39	4.97	21.28	-0.1327	-0.3796	-0.2173	
0.089304	1.047858	0.070638	-34.02	4.34	20.79	-0.1416	-0.37	-0.2188	
0.09857599	1.059326	0.077226	-34.02	3.57	20.65	-0.1445	-0.373	-0.2157	
0.09857599	1.05225	0.089792	-37.8	3.36	21.49	-0.1329	-0.3672	-0.2326	
0.097966	1.029314	0.105042	-40.88	4.2	23.66	-0.1403	-0.3624	-0.2402	
0.108214	1.00467	0.11956	-42.7	3.36	26.67	-0.1478	-0.3514	-0.2447	
0.114802	1.003572	0.125172	-42.35	3.22	27.3	-0.1503	-0.3605	-0.2477	
0.126148	1.021262	0.136884	-42.28	3.01	27.37	-0.1505	-0.3543	-0.2569	
0.126758	1.03639	0.142496	-43.12	4.34	26.18	-0.1536	-0.3465	-0.263	
0.136396	1.032242	0.14884	-46.41	4.62	25.06	-0.1496	-0.3359	-0.2615	
0.147864	1.023458	0.171654	-49.56	1.61	24.64	-0.1582	-0.3341	-0.2706	
0.134688	1.012844	0.183	-51.24	1.54	26.04	-0.1601	-0.3217	-0.2676	
0.14274	1.003572	0.198006	-52.92	-0.77	23.59	-0.1629	-0.3232	-0.2752	
0.156282	1.002108	0.20801	-53.27	0.63	23.52	-0.166	-0.3154	-0.2721	
0.175802	0.988688	0.224236	-55.51	2.17	23.66	-0.1705	-0.306	-0.2904	
0.188368	0.967216	0.234728	-59.36	3.29	25.69	-0.1663	-0.3031	-0.2844	
0.19642	0.94855	0.252296	-63	1.19	26.67	-0.1727	-0.286	-0.2874	
0.208498	0.938424	0.280844	-64.05	-1.19	27.44	-0.1726	-0.2829	-0.2996	
0.226432	0.890722	0.29585	-67.69	-7	31.64	-0.1733	-0.2583	-0.3134	
0.238754	0.880718	0.322934	-69.93	-8.26	34.79	-0.1834	-0.2595	-0.3164	
0.266082	0.824598	0.349774	-72.17	-10.5	35.98	-0.1928	-0.2361	-0.3209	
0.287676	0.8052	0.377224	-72.31	-6.37	33.88	-0.1989	-0.2205	-0.3362	
0.282796	0.775432	0.376614	-75.18	-8.05	35.7	-0.189	-0.2148	-0.3393	
0.296216	0.749568	0.38857	-74.27	-4.9	36.33	-0.1968	-0.1992	-0.3332	
0.306342	0.722362	0.39711	-76.51	0.91	38.22	-0.1998	-0.1898	-0.3454	
0.311466	0.68198	0.407602	-80.36	0.35	38.71	-0.2089	-0.1772	-0.3453	
0.311954	0.62708	0.44164	-84.91	1.4	44.38	-0.2022	-0.1637	-0.3424	
0.32452	0.575718	0.457134	-87.71	3.36	49.63	-0.2084	-0.1466	-0.3531	
0.35319	0.538752	0.496296	-87.85	4.34	50.96	-0.2061	-0.1282	-0.3623	
0.375028	0.521428	0.521672	-88.13	5.88	50.26	-0.2092	-0.1205	-0.3623	
0.38186	0.48434	0.568764	-89.25	8.19	49.91	-0.2184	-0.1017	-0.3683	
0.3843	0.443348	0.584746	-90.44	9.31	49.84	-0.2101	-0.0928	-0.37	
0.374296	0.398452	0.61366	-91.49	10.92	48.09	-0.2226	-0.0679	-0.3562	
0.375638	0.348676	0.667462	-91.42	16.8	40.46	-0.2142	-0.0528	-0.3792	
0.389912	0.292068	0.698938	-94.15	14.84	40.6	-0.206	-0.0393	-0.3778	
0.411384	0.258152	0.742614	-97.72	3.64	44.24	-0.2121	-0.0299	-0.3777	
0.426756	0.225944	0.769942	-92.54	5.04	41.65	-0.2071	-0.0055	-0.3779	
0.43066	0.222528	0.777384	-84.21	9.31	40.32	-0.2079	0.019	-0.384	
0.4087	0.22875	0.76433	-81.48	11.83	35.91	-0.2041	0.0357	-0.3826	
0.413214	0.191906	0.77653	-83.16	11.06	37.8	-0.2001	0.0478	-0.3872	
0.419558	0.117486	0.807274	-84.49	9.1	35.07	-0.1859	0.0519	-0.3813	
0.418582	0.06283	0.815326	-82.6	6.86	32.55	-0.2068	0.0726	-0.3811	
0.410408	0.05063	0.813984	-79.66	6.02	30.52	-0.2044	0.0878	-0.3796	
0.42212	0.031964	0.835578	-77.28	5.6	30.17	-0.1964	0.1075	-0.3813	
0.446886	-0.001464	0.865712	-74.9	5.6	29.89	-0.1953	0.1135	-0.3691	
0.461892	-0.050386	0.903776	-72.31	4.48	27.44	-0.1883	0.1209	-0.3738	
0.481412	-0.076982	0.928664	-69.3	3.5	24.43	-0.193	0.1303	-0.3631	
0.498492	-0.08723	0.93513	-65.8	2.94	24.57	-0.192	0.1456	-0.3677	
0.491416	-0.096502	0.936106	-61.88	5.11	24.36	-0.1824	0.1575	-0.3556	
0.473238	-0.114802	0.943548	-55.72	4.76	23.17	-0.1762	0.1849	-0.3496	
0.467626	-0.133102	0.935984	-52.15	3.15	21.28	-0.1806	0.185	-0.3435	
0.47275	-0.148962	0.924394	-48.16	1.61	19.25	-0.1824	0.1973	-0.3496	
0.472872	-0.148108	0.935008	-44.31	0.91	18.62	-0.1813	0.2065	-0.3404	
0.465186	-0.175192	0.943182	-41.16	0.84	18.2	-0.1798	0.2064	-0.3496	
0.463112	-0.183366	0.934276	-36.75	-1.19	16.73	-0.177	0.2063	-0.339	
0.471408	-0.172508	0.94062	-33.11	-2.38	16.52	-0.1771	0.2094	-0.3344	
0.479094	-0.189466	0.950258	-30.03	-0.63	14.91	-0.1717	0.2199	-0.3375	
0.483974	-0.212646	0.967216	-25.55	-0.35	12.46	-0.1736	0.2307	-0.3223	
0.487146	-0.224114	0.968558	-21	-0.84	12.04	-0.1794	0.2324	-0.3314	
0.482998	-0.220332	0.958554	-17.92	0.21	9.38	-0.1666	0.2381	-0.3269	
0.48434	-0.223992	0.962824	-14.21	1.05	6.58	-0.1769	0.2415	-0.3238	
0.471164	-0.237046	0.956846	-10.78	2.73	5.04	-0.1753	0.24	-0.3314	
0.46604	-0.249612	0.962458	-6.72	1.68	3.22	-0.1681	0.2382	-0.3223	
0.473482	-0.253638	0.970754	-2.1	0.28	1.4	-0.1754	0.243	-0.3314	
0.485438	-0.260958	0.979294	2.52	-1.26	-0.63	-0.1785	0.2493	-0.3299	
0.484584	-0.261812	0.979416	8.47	-1.68	-4.76	-0.1666	0.2397	-0.3376	
0.48495	-0.276696	0.982466	12.46	-0.63	-6.86	-0.1638	0.2395	-0.327	
0.486658	-0.278038	0.98088	17.78	-1.75	-8.68	-0.1738	0.2353	-0.3253	
0.493612	-0.266326	0.987956	23.38	-2.17	-10.71	-0.1766	0.2323	-0.3161	
0.49471	-0.27023	0.98637	29.54	-2.38	-13.44	-0.1733	0.223	-0.3268	
0.492026	-0.254004	0.971242	35.84	-3.57	-16.24	-0.1834	0.2249	-0.3389	
0.486536	-0.22814	0.96258	40.18	-3.01	-19.18	-0.1775	0.2232	-0.3405	
0.490196	-0.21716	0.959652	43.89	-2.31	-21.77	-0.1802	0.2141	-0.3374	
0.493856	-0.211548	0.959164	48.58	-2.87	-24.57	-0.1741	0.2078	-0.3405	
0.494954	-0.191906	0.960384	54.25	-3.64	-26.25	-0.1813	0.208	-0.3481	
0.485438	-0.178486	0.947818	59.43	-2.59	-29.12	-0.1852	0.1944	-0.348	
0.477874	-0.165554	0.940498	65.03	-3.85	-31.29	-0.1906	0.1838	-0.3479	
0.471286	-0.132126	0.921832	70.35	-4.55	-33.88	-0.1874	0.1761	-0.3571	
0.476532	-0.085644	0.912316	76.3	-4.69	-35.91	-0.1878	0.1454	-0.3601	
0.477386	-0.075762	0.906094	80.08	-3.43	-38.36	-0.1922	0.1456	-0.3524	
0.442372	-0.04697	0.875228	87.22	-2.31	-41.09	-0.2036	0.1046	-0.372	
0.427976	-0.004392	0.83387	92.4	-2.94	-43.12	-0.1932	0.0966	-0.3737	
0.41663	0.085278	0.795684	96.46	-4.69	-44.94	-0.1916	0.0919	-0.3737	
0.422486	0.123708	0.791658	97.72	-4.34	-46.69	-0.2052	0.0648	-0.3735	
0.421632	0.114802	0.779946	100.59	-1.26	-46.76	-0.1977	0.0553	-0.3659	
0.409798	0.127368	0.762988	105	-2.94	-46.97	-0.2038	0.028	-0.3902	
0.38674	0.1769	0.72712	107.59	-4.13	-47.88	-0.1976	0.014	-0.3795	
0.372832	0.248148	0.674294	109.69	-5.88	-47.11	-0.2059	0.002	-0.3825	
0.374906	0.331108	0.64782	109.9	-6.16	-46.48	-0.2022	-0.0195	-0.387	
0.360022	0.388814	0.622078	107.17	-7.49	-43.47	-0.2028	-0.0471	-0.3778	
0.351726	0.41358	0.602192	105.84	-7.14	-41.37	-0.204	-0.0547	-0.3854	
0.342698	0.43737	0.5734	101.64	-11.34	-40.46	-0.2034	-0.0747	-0.3731	
0.342332	0.476288	0.543754	99.54	-14.77	-43.75	-0.2071	-0.096	-0.3639	
0.342942	0.53558	0.522892	103.67	-14	-45.08	-0.2077	-0.1205	-0.3699	
0.328302	0.560956	0.48861	104.79	-6.79	-47.46	-0.2202	-0.1339	-0.3698	
0.316468	0.557784	0.44225	105.84	-6.44	-49.77	-0.2086	-0.1389	-0.3592	
0.264496	0.61671	0.343308	112.35	-1.12	-50.82	-0.1959	-0.1761	-0.3546	
0.247172	0.743956	0.332084	108.64	-4.2	-53.41	-0.2059	-0.1819	-0.3454	
0.230336	0.831796	0.321958	92.61	-15.12	-53.9	-0.1939	-0.1962	-0.3409	
0.205692	0.829356	0.277306	78.05	-22.68	-57.33	-0.2008	-0.2098	-0.324	
0.230214	0.81435	0.272548	79.17	-17.71	-57.54	-0.1858	-0.2241	-0.3317	
0.20496	0.812398	0.242902	77.56	-15.47	-61.46	-0.1983	-0.2451	-0.3147	
0.182512	0.875228	0.259982	87.22	-17.08	-60.62	-0.1804	-0.2627	-0.3088	
0.18239	0.9028	0.255346	85.19	-14.56	-50.75	-0.1899	-0.2838	-0.301	
0.183488	0.878644	0.21655	89.25	-6.65	-53.41	-0.1825	-0.2902	-0.2949	
0.19093	0.96075	0.183366	89.88	-10.08	-53.97	-0.1795	-0.2996	-0.2812	
0.141886	1.014186	0.134078	94.71	0.07	-64.33	-0.1706	-0.3091	-0.2721	
0.177632	1.046882	0.12383	96.04	7.35	-59.92	-0.1637	-0.3446	-0.2629	
0.108336	1.108248	0.090646	101.85	27.51	-47.11	-0.1552	-0.3419	-0.2584	
-0.012444	1.097756	0.044042	38.57	-25.27	-17.29	-0.1519	-0.3573	-0.2431	
0.16104	1.01626	0.122244	-6.3	-82.18	11.76	-0.146	-0.3606	-0.2447	
0.113338	1.0248	0.101138	14.56	-62.86	13.51	-0.1505	-0.3574	-0.2386	
0.0976	1.044442	0.093208	53.69	-6.23	-38.15	-0.1634	-0.3647	-0.2231	
0.077348	1.076284	0.0549	62.86	12.04	-51.24	-0.1588	-0.3756	-0.2171	
0.066734	1.098976	0.034282	58.31	8.96	-43.26	-0.1471	-0.3837	-0.208	
0.039528	1.096902	0.020618	44.52	1.89	-29.19	-0.1469	-0.3883	-0.2064	
0.046604	1.079212	0.00732	34.16	-0.91	-12.04	-0.1468	-0.3944	-0.2003	
0.045994	1.092876	0.00976	35.42	-4.13	-12.95	-0.144	-0.3915	-0.1942	
0.053192	1.11569	-0.015616	34.3	1.4	-12.53	-0.138	-0.3993	-0.1973	
0.033794	1.151436	-0.019398	27.79	-4.69	-11.69	-0.1426	-0.3915	-0.1927	
0.024156	1.15351	-0.023546	21.28	-5.67	-10.29	-0.1347	-0.4117	-0.1973	
0.044042	1.115202	-0.017446	18.41	-1.4	-17.15	-0.1436	-0.4115	-0.1667	
0.042578	1.089948	-0.02806	14.91	-0.77	-15.61	-0.1391	-0.4131	-0.179	
0.056608	1.092266	-0.011224	13.51	-1.19	-11.2	-0.1294	-0.4012	-0.1791	
0.053558	1.094828	-0.012322	12.88	0.28	-7.28	-0.1322	-0.4073	-0.1745	
0.04392	1.093364	-0.022692	13.23	3.22	-7.28	-0.1247	-0.4152	-0.1745	
0.04819	1.084946	-0.04026	11.34	4.97	-6.86	-0.1215	-0.4214	-0.1822	
0.053802	1.055422	-0.019764	8.19	7.63	-4.76	-0.1222	-0.403	-0.1761	
0.033184	1.034804	-0.020862	7.42	8.12	-4.2	-0.1246	-0.4183	-0.1776	
0.005734	1.04859	-0.040748	8.26	6.79	-4.76	-0.1206	-0.4077	-0.1715	
0.016104	1.057374	-0.037088	7.56	5.39	-4.55	-0.1205	-0.4123	-0.1654	
0.011468	1.060912	-0.028914	6.58	4.69	-3.92	-0.1233	-0.4153	-0.1654	
0.019154	1.045784	-0.025986	5.39	4.06	-3.71	-0.1245	-0.4198	-0.173	
0.022814	1.042368	-0.023546	5.39	3.29	-2.8	-0.1161	-0.4124	-0.1716	
0.005734	1.079212	-0.042334	4.76	2.45	-2.24	-0.1243	-0.4275	-0.1714	
0.01525	1.081164	-0.055266	1.12	1.47	-0.91	-0.116	-0.4171	-0.1654	
0.03355	1.109224	-0.046726	-1.96	0.91	0.56	-0.119	-0.417	-0.1639	
0.049654	1.11813	-0.034648	-7.21	2.87	2.59	-0.1203	-0.4184	-0.1669	
0.05002	1.125328	-0.02379	-10.22	5.04	4.2	-0.1173	-0.4201	-0.1746	
0.043066	1.10532	-0.021472	-13.23	6.86	6.09	-0.1262	-0.4167	-0.1638	
0.034038	1.119472	-0.022326	-13.58	7.49	7.14	-0.119	-0.4123	-0.1746	
0.020862	1.123742	-0.023058	-15.4	8.4	8.4	-0.1206	-0.4077	-0.1776	
0.00183	1.107638	-0.028914	-18.27	7.77	9.73	-0.1201	-0.4199	-0.1822	
0.01342	1.102636	-0.018056	-22.26	5.46	12.67	-0.1162	-0.4063	-0.1853	
0.027084	1.074454	-0.006466	-25.69	4.62	14.07	-0.1219	-0.4091	-0.1853	
0.040748	1.065548	0.006466	-27.44	2.87	15.75	-0.1277	-0.4058	-0.1944	
0.055754	1.0614	0.012688	-29.4	2.66	18.06	-0.128	-0.3951	-0.1975	
0.066978	1.042734	0.030012	-30.94	3.85	19.88	-0.1277	-0.4028	-0.2081	
0.081252	1.042612	0.042334	-31.01	4.34	21.14	-0.1382	-0.3901	-0.2111	
0.09552599	1.036634	0.051118	-31.15	5.67	22.4	-0.1396	-0.3916	-0.2111	
0.096258	1.045662	0.063074	-31.22	7.35	22.68	-0.1481	-0.3928	-0.2156	
0.089548	1.042002	0.071492	-32.48	8.82	23.73	-0.1471	-0.379	-0.2187	
0.08295999	1.055544	0.08052	-32.76	8.54	23.59	-0.1403	-0.3701	-0.2111	
0.090524	1.047614	0.092598	-34.37	8.26	23.73	-0.1487	-0.3759	-0.2171	
0.09333	1.030168	0.099918	-35.07	7	23.31	-0.1459	-0.3699	-0.2248	
0.096624	1.035292	0.109068	-34.3	5.39	22.68	-0.1446	-0.3638	-0.2325	
0.109678	1.023092	0.126148	-34.37	4.55	22.19	-0.1606	-0.357	-0.2446	
0.12505	1.00467	0.139446	-34.72	4.34	22.33	-0.1606	-0.357	-0.243	
0.145302	0.979782	0.156892	-34.37	5.39	23.1	-0.1635	-0.3569	-0.2445	
0.170312	0.957456	0.17507	-32.13	7.28	23.94	-0.1624	-0.3462	-0.2446	
0.167384	0.991738	0.172996	-29.89	8.33	24.57	-0.1611	-0.3371	-0.2568	
0.182634	0.999302	0.182878	-30.03	10.78	24.08	-0.1636	-0.3508	-0.2537	
0.194346	0.992836	0.190808	-30.52	12.81	23.24	-0.1671	-0.3323	-0.2553	
0.187758	0.998326	0.205936	-30.52	13.86	21.98	-0.1685	-0.3307	-0.2614	
0.182024	0.997106	0.217892	-29.61	13.37	20.37	-0.1598	-0.3309	-0.266	
0.181292	0.994788	0.23424	-28.84	12.46	18.41	-0.1659	-0.32	-0.2736	
0.182634	0.980026	0.245464	-29.05	11.62	16.31	-0.1632	-0.3155	-0.2721	
0.188734	0.955138	0.250344	-29.26	10.99	15.47	-0.1731	-0.3182	-0.2812	
0.208498	0.921222	0.271328	-29.4	10.57	15.96	-0.1675	-0.3122	-0.2843	
0.229848	0.883158	0.313784	-27.3	8.89	16.73	-0.1695	-0.2968	-0.2828	
0.265716	0.869738	0.343674	-24.57	8.82	16.24	-0.1678	-0.2999	-0.2905	
0.279136	0.859612	0.361364	-21.56	11.48	15.12	-0.1621	-0.2986	-0.289	
0.28975	0.839604	0.371124	-14.84	14.21	11.97	-0.1726	-0.2891	-0.2859	
0.305244	0.829844	0.369904	-10.01	14.91	7.91	-0.1738	-0.2936	-0.295	
0.29585	0.821182	0.370392	-8.82	16.59	6.79	-0.1639	-0.2878	-0.2966	
0.27206	0.811666	0.33977	-10.57	15.68	9.17	-0.1683	-0.283	-0.3042	
0.266936	0.835944	0.362584	-13.3	10.36	13.79	-0.1653	-0.2862	-0.3043	
0.268766	0.82411	0.384422	-19.32	12.81	17.57	-0.1723	-0.2921	-0.3011	
0.304512	0.78263	0.415654	-22.4	14.07	17.85	-0.1683	-0.2846	-0.2981	
0.305488	0.762744	0.44347	-26.39	14.7	15.4	-0.167	-0.2769	-0.3104	
0.312564	0.728706	0.45872	-32.2	13.16	16.59	-0.1684	-0.2784	-0.3088	
0.318176	0.720898	0.472872	-33.81	9.03	19.53	-0.1657	-0.2662	-0.3257	
0.360876	0.73566	0.523868	-32.55	4.48	21.77	-0.1674	-0.2631	-0.3165	
0.40565	0.746396	0.581574	-33.39	3.57	17.85	-0.1632	-0.2556	-0.3212	
0.409066	0.668804	0.59292	-35.35	7.84	12.74	-0.1663	-0.2509	-0.3196	
0.403942	0.63257	0.585356	-32.06	7.91	9.31	-0.1706	-0.2507	-0.3257	
0.393328	0.67283	0.584136	-26.6	7.98	5.67	-0.1726	-0.2322	-0.3349	
0.376858	0.685518	0.574864	-24.5	12.18	1.75	-0.1593	-0.2357	-0.3457	
0.364658	0.695888	0.5734	-22.89	11.76	1.61	-0.1725	-0.2337	-0.3379	
0.373076	0.718702	0.576938	-20.51	11.2	-1.75	-0.1682	-0.2355	-0.3257	
0.362584	0.76311	0.589138	-21.77	11.27	-6.16	-0.1638	-0.2325	-0.3456	
0.38064	0.759206	0.596458	-20.37	14.91	-8.12	-0.1639	-0.2279	-0.3472	
0.361974	0.763354	0.59231	-21.49	14.98	-11.48	-0.1553	-0.2236	-0.358	
0.367464	0.75884	0.610488	-21.07	15.61	-15.89	-0.1584	-0.2204	-0.3518	
0.351848	0.757376	0.59963	-17.92	22.26	-20.02	-0.1497	-0.2223	-0.3489	
0.346724	0.746884	0.597678	-17.57	21.14	-19.39	-0.1497	-0.2207	-0.355	
0.349774	0.757498	0.599752	-17.64	20.37	-19.88	-0.1378	-0.2288	-0.3551	
0.33916	0.751154	0.59048	-16.24	25.48	-22.75	-0.1425	-0.2148	-0.3658	
0.328912	0.758352	0.585234	-14.07	28.7	-26.81	-0.1309	-0.2183	-0.3628	
0.321958	0.794342	0.58072	-12.18	31.15	-29.82	-0.1308	-0.2183	-0.372	
0.288286	0.823378	0.576572	-13.23	35.56	-35.7	-0.1239	-0.2139	-0.3614	
0.23973	0.817156	0.565958	-16.73	36.12	-39.97	-0.118	-0.2141	-0.366	
0.193492	0.803614	0.571326	-18.69	35.63	-43.54	-0.0976	-0.221	-0.3692	
0.176656	0.797392	0.569252	-18.69	34.51	-47.81	-0.1008	-0.2117	-0.3692	
0.166896	0.785436	0.576694	-19.74	36.05	-49.21	-0.0876	-0.2152	-0.3724	
0.145302	0.758718	0.584502	-20.93	36.68	-46.06	-0.072	-0.2065	-0.3787	
0.137372	0.759206	0.58621	-20.44	35.35	-43.96	-0.069	-0.2082	-0.3787	
0.121878	0.767624	0.600606	-20.37	36.12	-44.17	-0.0591	-0.2024	-0.3804	
0.095648	0.766404	0.588894	-21.7	36.96	-42.7	-0.0506	-0.195	-0.3866	
0.061366	0.753594	0.587308	-22.19	36.12	-44.87	-0.0374	-0.2016	-0.3882	
0.037576	0.752008	0.58682	-20.58	35.98	-46.9	-0.0301	-0.2049	-0.3913	
0.015738	0.741028	0.607804	-20.44	33.53	-48.58	-0.0303	-0.1972	-0.3914	
-0.023668	0.724558	0.599142	-21.35	33.95	-47.53	-0.023	-0.1975	-0.3975	
-0.063684	0.72407	0.604022	-19.95	33.11	-45.78	-0.0163	-0.1855	-0.3885	
-0.101016	0.723216	0.626836	-20.3	31.78	-41.72	-0.0021	-0.1768	-0.3947	
-0.137494	0.711992	0.627812	-22.68	29.96	-35.42	0.0009	-0.1815	-0.3978	
-0.154574	0.708454	0.626348	-22.61	28.84	-32.83	0.0053	-0.1847	-0.3978	
-0.161772	0.72407	0.637572	-21.56	27.72	-31.08	0.0178	-0.1713	-0.398	
-0.168848	0.723704	0.648308	-22.61	27.16	-29.54	0.0223	-0.173	-0.4057	
-0.177144	0.694302	0.652212	-23.31	26.95	-29.61	0.0235	-0.1685	-0.3965	
-0.176046	0.700036	0.645624	-21.84	26.11	-29.4	0.0307	-0.1625	-0.4134	
-0.20374	0.712724	0.648552	-21.56	25.76	-29.26	0.0379	-0.1643	-0.4074	
-0.248636	0.702598	0.658556	-22.54	25.69	-30.24	0.0492	-0.1555	-0.4121	
-0.27816	0.68259	0.668194	-22.12	25.41	-31.5	0.0492	-0.1555	-0.4106	
-0.288042	0.66917	0.68564	-21.35	23.1	-28.98	0.0564	-0.1574	-0.4015	
-0.301218	0.64904	0.69906	-20.65	20.93	-27.37	0.062	-0.153	-0.3985	
-0.307318	0.628422	0.712114	-19.53	19.74	-25.9	0.0661	-0.1485	-0.397	
-0.328912	0.619272	0.707356	-18.2	17.92	-24.15	0.0775	-0.1428	-0.4033	
-0.34587	0.62281	0.7076	-16.17	16.03	-22.05	0.06879999	-0.1394	-0.4032	
-0.347578	0.613538	0.710894	-14.42	15.54	-19.74	0.0804	-0.1398	-0.4063	
-0.344772	0.597678	0.717482	-13.16	15.96	-18.76	0.0744	-0.135	-0.4002	
-0.35197	0.592676	0.712724	-12.53	15.89	-16.03	0.0888	-0.1324	-0.4064	
-0.366854	0.593652	0.70272	-10.85	15.4	-12.88	0.0844	-0.1307	-0.4064	
-0.383202	0.614758	0.707112	-10.15	14.21	-10.36	0.0826	-0.1199	-0.4034	
-0.388448	0.596214	0.709064	-10.92	13.37	-7.14	0.0915	-0.1279	-0.4004	
-0.388936	0.59109	0.710284	-9.59	11.27	-5.32	0.0929	-0.1249	-0.4096	
-0.391376	0.596702	0.71431	-8.26	9.17	-4.76	0.09119999	-0.1172	-0.4096	
-0.395036	0.584624	0.712114	-7.42	5.46	-2.59	0.0969	-0.1159	-0.4035	
-0.400404	0.589626	0.715042	-7	3.57	-1.68	0.1013	-0.1175	-0.4112	
-0.405772	0.5795	0.715652	-7.42	2.52	0.07	0.0981	-0.1082	-0.4112	
-0.400526	0.577792	0.719556	-6.72	0.42	1.26	0.0997	-0.1144	-0.4051	
-0.393328	0.596092	0.710894	-5.18	-0.84	1.68	0.097	-0.1158	-0.4142	
-0.385764	0.592066	0.70516	-5.18	-1.75	1.75	0.0936	-0.105	-0.4004	
-0.391498	0.582184	0.716872	-5.11	-3.99	2.59	0.0968	-0.1128	-0.4081	
-0.40931	0.56669	0.736514	-4.48	-6.16	4.83	0.0835	-0.1046	-0.4034	
-0.415776	0.571692	0.734684	-2.59	-8.54	7.56	0.0925	-0.1111	-0.4157	
-0.407968	0.583526	0.737124	-0.49	-10.92	8.82	0.0823	-0.1107	-0.4095	
-0.412726	0.578158	0.733708	0.42	-13.23	10.92	0.09649999	-0.1051	-0.4081	
-0.401624	0.564128	0.740052	2.38	-16.73	14.14	0.0927	-0.1187	-0.4142	
-0.396256	0.557174	0.743712	4.76	-20.58	16.87	0.0879	-0.1079	-0.405	
-0.386496	0.568154	0.743346	6.72	-24.99	20.79	0.0725	-0.1196	-0.4063	
-0.362828	0.558882	0.742858	8.75	-29.33	24.36	0.0856	-0.1216	-0.4156	
-0.337086	0.559004	0.735782	11.76	-33.25	27.93	0.0727	-0.1211	-0.4216	
-0.329766	0.567422	0.734074	13.51	-34.93	30.94	0.0654	-0.1224	-0.4139	
-0.318054	0.583404	0.727852	15.82	-38.01	33.46	0.0623	-0.1161	-0.4108	
-0.294752	0.589504	0.735172	17.29	-40.53	35.63	0.0525	-0.125	-0.4107	
-0.265472	0.603656	0.725656	18.83	-43.05	37.52	0.0485	-0.134	-0.4183	
-0.23546	0.601582	0.723216	19.6	-44.87	38.85	0.038	-0.1245	-0.4075	
-0.209352	0.595482	0.726754	20.79	-45.78	40.11	0.024	-0.1378	-0.4043	
-0.189832	0.60573	0.7198	22.68	-47.81	40.88	0.0286	-0.1441	-0.4058	
-0.1586	0.617442	0.71187	25.13	-49	41.09	0.0137	-0.1344	-0.3996	
-0.126636	0.617076	0.7137	26.95	-49.14	42.14	-0.0044	-0.1491	-0.4055	
-0.102968	0.618296	0.705648	28.56	-48.93	43.96	-0.0144	-0.1549	-0.3977	
-0.078812	0.637328	0.684176	30.24	-50.89	48.58	-0.0229	-0.1561	-0.4053	
-0.04087	0.659288	0.665388	31.43	-50.19	50.75	-0.0329	-0.1619	-0.3975	
-0.018666	0.65819	0.66368	32.48	-48.72	50.61	-0.0388	-0.1601	-0.3929	
0.015372	0.659044	0.653432	34.65	-50.4	50.96	-0.0501	-0.1659	-0.3989	
0.042578	0.67832	0.630252	36.05	-52.29	52.29	-0.0559	-0.1641	-0.3942	
0.089182	0.696498	0.598776	35.42	-52.5	55.23	-0.0847	-0.1693	-0.3848	
0.111142	0.708332	0.585966	37.8	-52.08	55.79	-0.09869999	-0.1795	-0.3938	
0.155428	0.745908	0.571692	37.03	-56.49	60.69	-0.0957	-0.1873	-0.377	
0.189466	0.737978	0.551318	33.11	-56.91	60.62	-0.1227	-0.2001	-0.3843	
0.218014	0.72407	0.543022	34.37	-53.34	62.86	-0.1216	-0.191	-0.3752	
0.240096	0.709064	0.535092	32.9	-54.53	62.65	-0.1329	-0.1983	-0.372	
0.269376	0.689788	0.535702	32.2	-54.04	65.24	-0.1463	-0.1886	-0.3688	
0.295362	0.676612	0.516182	32.76	-54.18	67.76	-0.1521	-0.19	-0.3566	
0.333182	0.694058	0.49837	35.21	-55.65	72.38	-0.1735	-0.1953	-0.3624	
0.364658	0.70882	0.46665	37.52	-50.96	75.81	-0.1838	-0.1965	-0.344	
0.420412	0.736148	0.475068	39.76	-51.1	78.33	-0.2025	-0.1974	-0.3392	
0.481412	0.747372	0.462258	38.78	-47.67	78.68	-0.2139	-0.2047	-0.3361	
0.512766	0.750666	0.447618	35.35	-48.02	77.14	-0.2228	-0.1982	-0.3329	
0.49166	0.752984	0.413458	28.98	-44.59	72.45	-0.2187	-0.1907	-0.3269	
0.492636	0.758474	0.416752	26.11	-45.15	73.15	-0.2385	-0.2069	-0.3159	
0.539484	0.768478	0.411262	24.92	-42.28	69.72	-0.2519	-0.1957	-0.3174	
0.603778	0.750178	0.390888	18.41	-37.24	60.2	-0.2549	-0.1926	-0.3112	
0.632814	0.731146	0.391254	11.48	-38.85	60.55	-0.2757	-0.1796	-0.2988	
0.607804	0.703818	0.368928	6.02	-37.31	57.61	-0.2755	-0.1796	-0.3126	
0.569862	0.711504	0.335866	6.23	-35.63	55.58	-0.2815	-0.1794	-0.2912	
0.602192	0.721264	0.319274	6.58	-37.45	57.68	-0.2975	-0.1742	-0.2986	
0.665754	0.69784	0.350872	9.03	-33.74	58.31	-0.2965	-0.1605	-0.2956	
0.746152	0.677588	0.376004	7.7	-37.52	59.5	-0.308	-0.1647	-0.2863	
0.762012	0.636108	0.331718	0	-39.34	54.88	-0.3113	-0.1554	-0.2818	
0.720776	0.62159	0.284016	0.7	-34.65	47.6	-0.3259	-0.1487	-0.2847	
0.70882	0.646844	0.260714	4.13	-29.33	46.9	-0.332	-0.1424	-0.2739	
0.719434	0.648796	0.269498	0.63	-28.49	41.93	-0.3365	-0.1361	-0.2739	
0.726632	0.634522	0.281942	-1.12	-30.8	42.28	-0.3266	-0.1319	-0.2664	
0.773846	0.582184	0.303414	-4.27	-34.16	44.1	-0.3427	-0.1267	-0.2617	
0.809226	0.590724	0.313174	2.38	-29.19	43.4	-0.3468	-0.1327	-0.2631	
0.857904	0.61427	0.301706	0.42	-26.25	41.58	-0.3501	-0.125	-0.2509	
0.888404	0.574986	0.303292	-6.65	-19.74	34.02	-0.3664	-0.1106	-0.2523	
0.885354	0.546072	0.27389	-7.28	-17.99	33.95	-0.3651	-0.1091	-0.2493	
0.874008	0.542534	0.25925	-4.2	-15.19	33.88	-0.3826	-0.107	-0.2353	
0.885598	0.537654	0.256688	-4.34	-10.08	29.89	-0.3696	-0.1044	-0.2462	
0.881572	0.532774	0.251808	-4.2	-10.64	25.13	-0.3755	-0.1011	-0.2385	
0.86803	0.524234	0.24705	-4.48	-8.4	19.46	-0.3857	-0.0946	-0.2491	
0.865102	0.553514	0.261324	-2.66	-7.21	17.22	-0.3714	-0.0936	-0.2416	
0.883402	0.55998	0.273158	-4.76	-8.68	12.6	-0.3775	-0.08419999	-0.24	
0.897066	0.530334	0.273646	-9.45	-10.22	5.46	-0.3775	-0.0872	-0.2354	
0.88389	0.503128	0.274378	-9.52	-6.51	3.29	-0.3803	-0.0871	-0.2415	
0.870592	0.477752	0.274622	-9.52	-6.02	1.68	-0.3875	-0.0838	-0.2506	
0.866566	0.501786	0.273036	-7.21	-2.24	3.64	-0.3836	-0.0763	-0.2385	
0.917074	0.434564	0.29707	-11.34	-9.38	-8.61	-0.3877	-0.0823	-0.2399	
0.889746	0.462136	0.275354	-9.87	-6.51	0.28	-0.3848	-0.0808	-0.2446	
0.904508	0.463112	0.264618	-4.69	-2.66	4.27	-0.3703	-0.0829	-0.2416	
0.90219	0.465552	0.25437	0.42	4.2	-0.84	-0.3819	-0.0825	-0.2354	
0.906216	0.48495	0.259494	-4.41	2.59	0.21	-0.3906	-0.0822	-0.2399	
0.910974	0.49471	0.269986	-4.62	2.1	-0.63	-0.3731	-0.0889	-0.234	
0.911462	0.50203	0.268766	-2.94	7.56	-3.15	-0.3765	-0.0673	-0.2538	
0.915122	0.51179	0.274866	-3.85	9.94	-5.53	-0.3835	-0.0778	-0.2369	
0.893894	0.508374	0.276452	-5.81	12.04	-9.31	-0.3781	-0.0642	-0.2477	
0.896578	0.513742	0.286944	-5.53	14.63	-13.09	-0.3819	-0.084	-0.2369	
0.889746	0.524478	0.299022	-4.9	17.92	-15.33	-0.3804	-0.0825	-0.2507	
0.896334	0.514352	0.312686	-4.06	20.72	-18.2	-0.3832	-0.0839	-0.2491	
0.906094	0.517402	0.324642	-3.5	22.12	-21.35	-0.3722	-0.069	-0.2493	
0.902556	0.517402	0.332938	-2.87	25.13	-25.83	-0.3543	-0.085	-0.2464	
0.89548	0.53131	0.333426	-0.91	29.12	-29.33	-0.3673	-0.0829	-0.2585	
0.876814	0.54351	0.335134	-0.77	34.23	-33.18	-0.354	-0.0926	-0.2601	
0.860344	0.555954	0.335866	-1.12	36.05	-37.73	-0.3582	-0.0924	-0.2692	
0.854854	0.559492	0.340014	-0.63	38.85	-41.86	-0.3507	-0.1004	-0.2693	
0.844972	0.567422	0.345626	0.21	41.3	-45.08	-0.339	-0.1038	-0.2724	
0.802394	0.59109	0.353556	-1.89	45.57	-49.77	-0.3371	-0.1146	-0.2877	
0.778116	0.5978	0.355264	-3.36	47.95	-52.36	-0.3241	-0.1135	-0.2878	
0.75701	0.609268	0.373808	-3.99	49.56	-56	-0.318	-0.1245	-0.2909	
0.741638	0.602436	0.378322	-4.48	51.24	-60.69	-0.306	-0.1341	-0.3063	
0.72285	0.58865	0.400526	-5.32	52.08	-63.49	-0.3003	-0.1327	-0.3018	
0.686128	0.596702	0.397842	-11.48	49.7	-62.86	-0.2899	-0.1423	-0.3019	
0.659776	0.583038	0.427732	-7	46.27	-68.53	-0.2824	-0.1471	-0.3126	
0.633424	0.64111	0.415166	-3.85	46.97	-63.21	-0.2607	-0.1464	-0.3144	
0.623786	0.657824	0.432002	-7.49	43.54	-69.37	-0.2587	-0.1617	-0.322	
0.572424	0.66002	0.437614	-10.43	43.47	-70.21	-0.2457	-0.1622	-0.3206	
0.529724	0.66612	0.439078	-11.13	44.24	-70.07	-0.2415	-0.1593	-0.3191	
0.493612	0.695766	0.461282	-12.04	42.28	-71.96	-0.2295	-0.1689	-0.3314	
0.45994	0.713456	0.466162	-13.72	43.19	-73.36	-0.2306	-0.178	-0.3405	
0.431758	0.72407	0.480802	-13.86	44.66	-73.71	-0.2203	-0.183	-0.3437	
0.394304	0.729194	0.488	-15.19	45.99	-73.92	-0.2015	-0.1821	-0.3469	
0.359534	0.740296	0.520086	-16.17	47.04	-74.62	-0.1953	-0.1915	-0.3638	
0.302438	0.731878	0.54534	-16.66	49.56	-75.04	-0.1796	-0.189	-0.3487	
0.263642	0.706014	0.559004	-16.73	52.64	-74.27	-0.1592	-0.1897	-0.3672	
0.225578	0.714066	0.54534	-15.26	55.02	-75.04	-0.1419	-0.1903	-0.3658	
0.206302	0.7076	0.554856	-13.93	55.51	-74.76	-0.1403	-0.1965	-0.3597	
0.171288	0.71126	0.546682	-14.56	56.56	-73.22	-0.1303	-0.1922	-0.3644	
0.129198	0.71126	0.570716	-15.12	55.37	-72.03	-0.12	-0.1956	-0.3737	
0.077958	0.720044	0.566812	-15.26	52.29	-69.44	-0.1055	-0.1977	-0.3753	
0.046116	0.734806	0.568764	-15.82	49.42	-66.64	-0.09519999	-0.2011	-0.3831	
0.055266	0.721142	0.577304	-17.71	47.18	-64.61	-0.0898	-0.1921	-0.377	
0.055998	0.679906	0.581696	-19.88	46.06	-62.51	-0.078	-0.1987	-0.3756	
0.03355	0.665876	0.602924	-19.67	43.54	-59.29	-0.0588	-0.2116	-0.3788	
-0.025864	0.715896	0.601704	-17.36	42.91	-54.32	-0.0537	-0.1872	-0.3927	
-0.072102	0.726754	0.622322	-18.69	43.19	-51.24	-0.0439	-0.1799	-0.3928	
-0.083204	0.721508	0.650504	-20.02	42.14	-45.85	-0.0377	-0.1924	-0.3959	
-0.068076	0.683688	0.690276	-18.83	40.39	-43.47	-0.0234	-0.1883	-0.3945	
-0.099186	0.711382	0.638304	-13.51	39.41	-42.21	-0.0046	-0.1874	-0.3947	
-0.107116	0.747738	0.64172	-12.53	41.58	-42.98	0.0005	-0.1738	-0.3917	
-0.14701	0.734074	0.636474	-15.68	46.27	-41.86	0.0226	-0.1838	-0.3965	
-0.178486	0.705648	0.637572	-16.73	48.86	-39.27	0.0208	-0.173	-0.4041	
-0.207156	0.708698	0.644404	-14.91	49.56	-38.01	0.0308	-0.1703	-0.3966	
-0.241804	0.69418	0.632204	-14.35	49.35	-37.59	0.034	-0.178	-0.4043	
-0.272304	0.676246	0.640866	-16.03	49.28	-35.49	0.038	-0.172	-0.3951	
-0.281942	0.662338	0.63989	-15.12	44.94	-31.29	0.0565	-0.1635	-0.3954	
-0.298046	0.673806	0.634766	-12.6	40.95	-28.98	0.0622	-0.1606	-0.4	
-0.305488	0.686006	0.634278	-9.59	37.66	-29.75	0.0737	-0.1611	-0.3909	
-0.31903	0.683444	0.6405	-9.66	34.16	-30.31	0.0797	-0.1643	-0.4017	
-0.34038	0.664656	0.648796	-10.99	30.03	-29.05	0.0938	-0.1572	-0.3942	
-0.3477	0.66246	0.6588	-10.99	24.64	-29.54	0.0936	-0.151	-0.3958	
-0.360022	0.669902	0.66246	-10.43	20.02	-29.47	0.0979	-0.1496	-0.3912	
-0.35441	0.668926	0.658434	-11.83	16.73	-28	0.0875	-0.1416	-0.3957	
-0.351116	0.664168	0.653432	-12.95	14.21	-25.06	0.0961	-0.1404	-0.3928	
-0.356606	0.651602	0.655628	-14.49	14.14	-23.87	0.1006	-0.1436	-0.3928	
-0.41419	0.658678	0.650992	-14.7	14.14	-19.67	0.1107	-0.1455	-0.3944	
-0.421754	0.640866	0.671732	-15.82	12.6	-15.96	0.1076	-0.1362	-0.399	
-0.410164	0.60512	0.6893	-15.61	9.31	-12.95	0.1135	-0.141	-0.3914	
-0.410164	0.600118	0.695522	-13.65	7.91	-11.48	0.119	-0.1335	-0.393	
-0.418826	0.609268	0.684908	-12.46	8.47	-9.03	0.1248	-0.1322	-0.3961	
-0.413092	0.598898	0.691252	-12.18	8.47	-5.67	0.1201	-0.1197	-0.4053	
-0.424194	0.5856	0.700158	-10.71	7.84	-3.99	0.1201	-0.1244	-0.3884	
-0.436638	0.578158	0.691252	-8.19	6.65	-3.36	0.1261	-0.1276	-0.4007	
-0.428098	0.583282	0.680272	-5.81	5.53	-2.31	0.1287	-0.1201	-0.3962	
-0.433466	0.597068	0.67954	-4.97	4.06	-1.12	0.1244	-0.1199	-0.4022	
-0.440176	0.594384	0.681004	-4.9	2.52	0.91	0.1288	-0.1231	-0.3946	
-0.427854	0.59109	0.686616	-4.41	0.56	2.59	0.1216	-0.1229	-0.4037	
-0.428952	0.597312	0.681736	-4.55	0.21	3.71	0.1244	-0.123	-0.3946	
-0.431148	0.60085	0.682956	-4.76	-0.56	4.41	0.1285	-0.1155	-0.3947	
-0.43127	0.586088	0.69662	-4.97	-2.1	5.32	0.1244	-0.1214	-0.3977	
-0.440908	0.579134	0.698206	-3.43	-3.29	7	0.1216	-0.1244	-0.3992	
-0.445178	0.588284	0.704794	-2.45	-4.55	8.54	0.1198	-0.1136	-0.3992	
-0.448228	0.579622	0.713334	-1.75	-6.58	10.57	0.1285	-0.1139	-0.3977	
-0.442494	0.585966	0.717238	1.47	-10.57	12.25	0.1189	-0.1258	-0.4068	
-0.43798	0.589382	0.707234	3.71	-13.09	13.09	0.11	-0.1225	-0.399	
-0.429806	0.590602	0.707966	5.74	-15.4	14.63	0.1143	-0.1211	-0.4006	
-0.428342	0.57828	0.707722	6.86	-16.66	17.57	0.1099	-0.1178	-0.4036	
-0.422242	0.566568	0.712236	9.24	-18.34	21.28	0.1157	-0.1196	-0.4006	
-0.410408	0.57706	0.70516	12.67	-20.86	25.41	0.1073	-0.1239	-0.4066	
-0.40138	0.577548	0.697718	14.7	-23.45	28.98	0.106	-0.13	-0.4051	
-0.388692	0.588528	0.6954	16.8	-26.6	31.85	0.09299999	-0.128	-0.408	
-0.373686	0.605242	0.696498	18.13	-30.73	35.14	0.083	-0.1353	-0.3987	
-0.368074	0.610854	0.701988	19.04	-35.28	38.36	0.0861	-0.1354	-0.414	
-0.350018	0.61	0.694668	20.23	-38.57	40.46	0.0892	-0.1463	-0.3972	
-0.330376	0.611586	0.686738	21.21	-41.72	43.75	0.0618	-0.1453	-0.4077	
-0.28609	0.626226	0.667706	24.15	-44.52	46.76	0.0565	-0.1589	-0.4076	
-0.258274	0.640622	0.658556	25.13	-45.01	48.93	0.0578	-0.1589	-0.3984	
-0.23546	0.646112	0.653798	26.6	-47.53	51.38	0.0446	-0.1508	-0.4029	
-0.208864	0.667462	0.638182	28.21	-49.63	53.06	0.0279	-0.1686	-0.4012	
-0.180438	0.681126	0.630862	27.44	-51.52	54.39	0.0135	-0.1696	-0.4071	
-0.14457	0.678442	0.640256	26.88	-54.25	56.7	0.012	-0.1696	-0.3918	
-0.114802	0.665022	0.63806	26.74	-56	58.8	0.0067	-0.1832	-0.3979	
-0.077958	0.681492	0.625738	29.05	-57.33	61.67	-0.0077	-0.1843	-0.3855	
-0.030134	0.695644	0.60878	30.45	-57.19	64.4	-0.0148	-0.184	-0.3992	
-0.000122	0.714188	0.582794	30.45	-55.51	67.55	-0.032	-0.1911	-0.3868	
0.033428	0.756278	0.562908	29.68	-55.23	69.51	-0.0388	-0.2031	-0.3867	
0.072224	0.749934	0.55327	27.37	-54.81	70.49	-0.0535	-0.1964	-0.3865	
0.107238	0.764208	0.545584	26.11	-56.07	72.1	-0.0753	-0.1941	-0.3817	
0.141886	0.75152	0.523502	23.87	-54.81	73.64	-0.0884	-0.1906	-0.374	
0.202886	0.729804	0.515206	24.01	-54.81	75.81	-0.0926	-0.1966	-0.3724	
0.271328	0.733586	0.509106	25.2	-55.02	77.07	-0.1025	-0.2039	-0.3677	
0.331474	0.7503	0.484096	26.04	-52.92	76.44	-0.1325	-0.2152	-0.3567	
0.349042	0.73688	0.482388	24.78	-49.49	75.74	-0.1459	-0.2024	-0.3551	
0.377468	0.725534	0.48007	24.22	-49.21	76.3	-0.1632	-0.2049	-0.3564	
0.405528	0.728218	0.474824	24.08	-48.51	75.04	-0.1707	-0.1954	-0.3518	
0.423218	0.732854	0.44774	22.05	-46.41	74.27	-0.1865	-0.1979	-0.3516	
0.441518	0.716872	0.427976	17.64	-44.17	74.9	-0.1894	-0.1978	-0.3516	
0.493246	0.729438	0.463234	17.36	-48.09	77.28	-0.214	-0.1985	-0.3391	
0.547414	0.738222	0.467382	16.87	-49.14	77.28	-0.22	-0.1968	-0.3299	
0.562298	0.74603	0.44774	14.63	-46.41	74.83	-0.2288	-0.1904	-0.3359	
0.537288	0.718092	0.421754	11.13	-41.51	69.09	-0.2376	-0.1901	-0.3206	
0.539484	0.693082	0.400526	11.2	-40.18	63.42	-0.2452	-0.1806	-0.3129	
0.592798	0.693082	0.39101	10.85	-38.78	61.67	-0.2468	-0.1744	-0.3144	
0.651968	0.725778	0.406504	10.43	-41.09	62.51	-0.2628	-0.1723	-0.3158	
0.640012	0.714066	0.379176	2.03	-35.84	59.01	-0.2641	-0.1785	-0.3005	
0.633424	0.69296	0.364292	-2.38	-35.77	55.72	-0.2804	-0.1656	-0.308	
0.637572	0.679174	0.362218	-5.88	-36.19	52.36	-0.2939	-0.1514	-0.2957	
0.66124	0.67161	0.36661	-7.07	-37.38	47.95	-0.2968	-0.1482	-0.3109	
0.681492	0.64843	0.358314	-10.99	-35.07	45.36	-0.2912	-0.1484	-0.2942	
0.720776	0.618906	0.369904	-12.6	-35.77	44.66	-0.3072	-0.1448	-0.2879	
0.746396	0.58438	0.363682	-15.4	-34.79	43.82	-0.309	-0.1324	-0.2971	
0.764452	0.551318	0.358436	-14.63	-32.13	44.45	-0.3233	-0.1365	-0.2939	
0.786046	0.52033	0.341844	-18.48	-36.96	44.31	-0.3311	-0.1225	-0.2816	
0.821182	0.52643	0.350872	-11.34	-27.72	48.3	-0.33	-0.1102	-0.2908	
0.83387	0.552172	0.366366	-11.69	-35.7	44.87	-0.3445	-0.1128	-0.2739	
0.86437	0.571814	0.34953	-8.26	-30.45	45.78	-0.3447	-0.1052	-0.28	
0.89792	0.57157	0.348066	-6.51	-25.13	42.84	-0.3549	-0.1017	-0.2799	
0.884744	0.56425	0.346236	-9.17	-19.81	39.06	-0.3498	-0.0851	-0.2663	
0.891088	0.521428	0.32574	-20.72	-23.03	42.77	-0.3599	-0.0847	-0.2708	
0.854122	0.536312	0.313906	-6.23	-0.14	35.63	-0.3571	-0.08639999	-0.257	
0.892064	0.490074	0.329034	-9.45	-22.12	31.01	-0.3648	-0.0677	-0.2646	
0.863638	0.500688	0.30927	-12.39	-9.31	25.9	-0.3663	-0.0676	-0.2646	
0.880474	0.463356	0.331718	-11.69	-10.22	20.02	-0.3564	-0.0603	-0.2663	
0.896334	0.452864	0.338916	-9.87	-7.28	15.82	-0.3667	-0.0585	-0.2509	
0.88938	0.448106	0.337086	-12.18	-6.93	12.32	-0.3656	-0.0478	-0.2555	
0.886086	0.44469	0.33001	-11.41	-4.62	10.64	-0.3725	-0.0536	-0.2661	
0.888526	0.43188	0.34282	-11.55	-3.71	6.65	-0.3855	-0.0547	-0.2568	
0.897676	0.40443	0.339648	-11.27	-2.94	3.92	-0.3771	-0.0473	-0.2569	
0.906216	0.380274	0.343918	-8.89	-1.89	2.31	-0.3685	-0.0461	-0.2585	
0.899384	0.386862	0.329278	-5.53	-1.54	1.54	-0.37	-0.0476	-0.2524	
0.900482	0.414922	0.32818	-4.27	-0.42	0.98	-0.3757	-0.0474	-0.2524	
0.898408	0.423096	0.334646	-5.11	1.68	-0.7	-0.3729	-0.0429	-0.2616	
0.896212	0.403576	0.337452	-6.23	2.31	-2.8	-0.3655	-0.0477	-0.2647	
0.901824	0.395768	0.34099	-5.95	3.08	-4.13	-0.3729	-0.0429	-0.2677	
0.89487	0.400648	0.342942	-4.55	4.34	-5.39	-0.3698	-0.0491	-0.2662	
0.901702	0.407968	0.349042	-2.87	6.58	-6.93	-0.3728	-0.046	-0.26	
0.896944	0.414312	0.351116	-2.87	7.42	-7.77	-0.3758	-0.0428	-0.2585	
0.906338	0.428098	0.36478	-2.1	7.84	-9.45	-0.3817	-0.0364	-0.2661	
0.903044	0.437614	0.371856	-3.01	10.71	-13.37	-0.3699	-0.046	-0.2646	
0.91683	0.439322	0.376248	-2.94	13.09	-16.8	-0.3668	-0.0507	-0.2708	
0.917196	0.446642	0.377102	-2.1	16.73	-20.65	-0.3597	-0.051	-0.2601	
0.909388	0.452254	0.390644	-0.91	20.37	-22.82	-0.3696	-0.0522	-0.2707	
0.897554	0.456768	0.391376	0.35	23.17	-24.85	-0.3524	-0.0497	-0.2755	
0.8906	0.46726	0.405162	1.61	26.11	-27.86	-0.3507	-0.0574	-0.2694	
0.8784	0.47092	0.411872	1.96	30.59	-31.57	-0.3563	-0.0603	-0.2754	
0.88206	0.47336	0.409676	3.08	33.6	-35.21	-0.3518	-0.06659999	-0.2785	
0.863638	0.493246	0.409188	3.78	37.73	-37.87	-0.3475	-0.0621	-0.2877	
0.839238	0.504836	0.419314	3.64	42.28	-40.67	-0.3337	-0.0825	-0.297	
0.826794	0.511424	0.429928	3.57	44.1	-43.19	-0.331	-0.08109999	-0.2909	
0.808494	0.514962	0.438346	3.57	46.06	-46.62	-0.3218	-0.09209999	-0.3032	
0.801906	0.513498	0.441152	5.04	48.23	-50.61	-0.3191	-0.0876	-0.3063	
0.78629	0.517036	0.447618	7.21	52.01	-54.81	-0.3058	-0.0988	-0.2972	
0.746884	0.538996	0.44713	10.36	55.23	-58.59	-0.3097	-0.1048	-0.3155	
0.70638	0.570594	0.444324	10.5	57.05	-64.05	-0.289	-0.1193	-0.3248	
0.681858	0.588406	0.44164	8.33	55.44	-68.25	-0.276	-0.1167	-0.3311	
0.641598	0.58499	0.445666	6.23	52.99	-72.45	-0.2696	-0.1337	-0.3341	
0.598288	0.598044	0.474092	5.95	50.96	-75.53	-0.2594	-0.1356	-0.3373	
0.581696	0.604876	0.474824	6.16	47.11	-78.4	-0.2547	-0.148	-0.3404	
0.541436	0.632204	0.4575	4.97	44.8	-80.78	-0.2388	-0.1486	-0.3421	
0.48983	0.68625	0.463112	3.64	42.7	-82.18	-0.2138	-0.1602	-0.3423	
0.452132	0.708088	0.458964	0.77	41.23	-82.88	-0.2165	-0.1647	-0.3514	
0.434564	0.709796	0.478118	-4.06	41.51	-83.37	-0.1875	-0.1672	-0.3578	
0.41053	0.69235	0.513742	-6.65	43.75	-83.58	-0.1888	-0.1718	-0.3578	
0.370148	0.696864	0.524356	-5.46	45.57	-83.79	-0.1867	-0.1872	-0.3669	
0.332328	0.725046	0.534726	-2.66	45.5	-84.56	-0.1695	-0.1847	-0.3656	
0.282918	0.744322	0.537654	-3.5	47.04	-85.96	-0.158	-0.1851	-0.3626	
0.24766	0.732488	0.542778	-4.2	49.77	-87.01	-0.1402	-0.1949	-0.3735	
0.216428	0.72163	0.545584	-4.9	51.8	-85.96	-0.1286	-0.1999	-0.3705	
0.182878	0.720166	0.553758	-5.11	53.62	-84.42	-0.1213	-0.2017	-0.3721	
0.12444	0.71736	0.538752	-6.65	55.44	-81.97	-0.1081	-0.2068	-0.3738	
0.080032	0.72407	0.541802	-8.19	56.49	-80.64	-0.0895	-0.2029	-0.3724	
0.026596	0.722728	0.544364	-8.61	55.51	-78.12	-0.0779	-0.2033	-0.3725	
-0.005246	0.737368	0.564494	-8.89	53.27	-74.06	-0.0631	-0.213	-0.3834	
-0.012322	0.740174	0.5551	-11.41	50.89	-69.02	-0.0502	-0.2119	-0.3758	
-0.017812	0.742736	0.549854	-12.39	46.06	-65.73	-0.0446	-0.2029	-0.3866	
-0.048068	0.743346	0.565836	-14.42	44.59	-63.28	-0.0332	-0.2002	-0.3852	
-0.089548	0.73932	0.58865	-15.82	43.47	-60.62	-0.0142	-0.207	-0.3808	
-0.116022	0.748958	0.589748	-16.73	43.19	-56.77	-0.009699999	-0.2087	-0.3946	
-0.139446	0.729072	0.580598	-17.85	43.33	-55.3	-0.0071	-0.2027	-0.387	
-0.162992	0.726876	0.59231	-15.68	41.65	-52.08	0.0174	-0.2035	-0.3903	
-0.183122	0.730658	0.593042	-13.37	39.48	-50.54	0.0274	-0.1993	-0.3934	
-0.205326	0.721264	0.608902	-13.58	39.48	-49.91	0.0272	-0.1931	-0.3904	
-0.22936	0.706502	0.614026	-14.84	39.48	-46.76	0.0358	-0.1935	-0.3829	
-0.2379	0.70089	0.626592	-14.07	38.01	-43.33	0.0443	-0.1891	-0.3906	
-0.253516	0.722728	0.62952	-12.81	37.52	-40.74	0.0483	-0.177	-0.3907	
-0.288774	0.711138	0.618906	-11.83	34.51	-36.47	0.0697	-0.1701	-0.3939	
-0.306708	0.708454	0.635742	-11.76	33.46	-35.21	0.0671	-0.1792	-0.3939	
-0.332572	0.68808	0.627202	-11.69	35	-34.51	0.0827	-0.1737	-0.3849	
-0.356118	0.701622	0.621712	-10.01	35.7	-33.53	0.0828	-0.1767	-0.3864	
-0.375272	0.705404	0.608902	-9.8	35.21	-32.48	0.0942	-0.1679	-0.3927	
-0.39833	0.692106	0.616222	-10.64	33.25	-31.01	0.1142	-0.164	-0.3898	
-0.419558	0.679784	0.621956	-9.94	30.17	-30.59	0.1083	-0.1623	-0.3867	
-0.409432	0.672342	0.625006	-10.22	26.67	-29.12	0.1166	-0.1503	-0.3868	
-0.416996	0.650138	0.620492	-12.81	24.15	-26.46	0.1153	-0.1549	-0.3899	
-0.429196	0.63379	0.624884	-12.11	19.81	-22.61	0.1258	-0.166	-0.3838	
-0.442372	0.635986	0.635376	-10.71	16.52	-20.37	0.1253	-0.1552	-0.3777	
-0.464942	0.633302	0.628056	-10.15	14.07	-18.48	0.1281	-0.1507	-0.3824	
-0.47458	0.643794	0.61854	-8.75	11.62	-15.75	0.134	-0.154	-0.3824	
-0.473482	0.646722	0.620126	-8.47	8.54	-14	0.1363	-0.1341	-0.3871	
-0.477508	0.639768	0.641598	-8.47	6.02	-12.39	0.141	-0.1481	-0.381	
-0.466284	0.630862	0.638182	-7.84	2.38	-8.68	0.1425	-0.1497	-0.381	
-0.451522	0.623176	0.646234	-7.14	1.61	-7.56	0.1351	-0.1433	-0.3794	
-0.450302	0.616466	0.638182	-6.58	2.1	-6.44	0.1366	-0.1434	-0.387	
-0.463844	0.619882	0.63318	-5.81	2.45	-5.39	0.1451	-0.1391	-0.3825	
-0.470432	0.621712	0.63806	-4.83	2.66	-4.76	0.1423	-0.1451	-0.3795	
-0.472872	0.60756	0.644282	-4.83	2.94	-3.85	0.1391	-0.1327	-0.3856	
-0.480924	0.60939	0.634644	-4.76	2.24	-2.03	0.1391	-0.1327	-0.3886	
-0.479582	0.62159	0.632936	-4.13	1.26	-0.49	0.1452	-0.1421	-0.3871	
-0.485194	0.61366	0.636962	-4.41	0.98	0.98	0.145	-0.136	-0.3902	
-0.475556	0.605486	0.653188	-3.99	-0.98	2.1	0.1438	-0.1421	-0.3886	
-0.478362	0.610122	0.641354	-3.29	-1.89	3.15	0.1434	-0.1329	-0.3856	
-0.476166	0.626104	0.633058	-2.94	-2.66	4.27	0.1422	-0.139	-0.384	
-0.482144	0.621224	0.64172	-3.01	-4.34	6.09	0.1378	-0.1357	-0.3947	
-0.490806	0.615734	0.65331	-1.54	-7.49	7.42	0.1365	-0.1418	-0.3855	
-0.4941	0.616588	0.658312	-0.07	-10.15	8.75	0.1365	-0.1418	-0.3825	
-0.496906	0.614392	0.653798	1.12	-11.55	10.78	0.1262	-0.1369	-0.3793	
-0.496906	0.622688	0.650016	3.92	-15.05	15.12	0.1306	-0.1355	-0.3901	
-0.49105	0.620126	0.650382	5.46	-18.76	17.5	0.128	-0.1446	-0.39	
-0.48495	0.605852	0.656482	5.81	-20.51	20.58	0.122	-0.1367	-0.3915	
-0.466284	0.60146	0.646356	8.68	-24.15	24.78	0.112	-0.1394	-0.4005	
-0.453108	0.622566	0.644526	10.57	-28.14	28.28	0.1181	-0.1519	-0.3899	
-0.442006	0.631594	0.645624	10.85	-32.06	32.41	0.1092	-0.1455	-0.3868	
-0.432124	0.61549	0.652334	10.99	-35.77	36.54	0.1064	-0.1469	-0.3898	
-0.407724	0.60817	0.649528	13.02	-38.99	39.48	0.0953	-0.1603	-0.3881	
-0.371002	0.622322	0.663558	15.68	-42.14	43.26	0.0892	-0.1509	-0.3881	
-0.353922	0.619394	0.661484	16.24	-43.26	47.04	0.09119999	-0.1647	-0.3942	
-0.339038	0.625494	0.651358	18.13	-44.59	49.07	0.0738	-0.1641	-0.394	
-0.317688	0.65148	0.64355	19.46	-45.64	51.03	0.0538	-0.168	-0.3923	
-0.29402	0.646966	0.634522	18.97	-47.18	53.41	0.058	-0.1651	-0.3908	
-0.26535	0.649894	0.629154	20.93	-52.78	56.56	0.0394	-0.169	-0.3967	
-0.231556	0.672708	0.636352	20.93	-55.79	59.57	0.0341	-0.1826	-0.4012	
-0.19154	0.675514	0.633546	21.63	-56.91	60.13	0.0255	-0.19	-0.3843	
-0.136396	0.686494	0.6222	21.91	-57.75	61.81	0.0066	-0.1817	-0.3963	
-0.087474	0.686006	0.623786	20.79	-58.03	63.77	-0.006	-0.192	-0.387	
-0.04087	0.695522	0.621224	21.63	-57.33	66.36	-0.0145	-0.1947	-0.3915	
0.002196	0.714676	0.609634	23.24	-54.39	67.62	-0.013	-0.2009	-0.3793	
0.04697	0.74603	0.588406	24.57	-52.43	68.88	-0.0404	-0.2015	-0.379	
0.096014	0.76311	0.567056	24.15	-51.03	70	-0.0563	-0.1994	-0.3835	
0.12078	0.749202	0.550098	21.7	-49.14	71.54	-0.072	-0.205	-0.3772	
0.15677	0.733952	0.52948	21.7	-50.19	74.2	-0.0836	-0.203	-0.3786	
0.19581	0.745908	0.511912	22.68	-51.38	75.88	-0.0936	-0.2088	-0.3739	
0.236924	0.760914	0.496174	22.96	-52.15	75.67	-0.09519999	-0.2057	-0.3662	
0.27877	0.765794	0.498248	21.63	-53.55	76.86	-0.1155	-0.205	-0.3599	
0.317566	0.74847	0.494588	18.06	-54.74	77.49	-0.1225	-0.2109	-0.366	
0.335378	0.724314	0.494466	16.66	-54.32	76.51	-0.1412	-0.2149	-0.3581	
0.349042	0.72224	0.476288	19.04	-56.42	74.2	-0.1559	-0.2036	-0.3657	
0.359534	0.741394	0.452986	17.43	-54.74	73.08	-0.169	-0.2047	-0.3487	
0.385154	0.743346	0.467138	15.19	-54.74	74.13	-0.1722	-0.1985	-0.3426	
0.468602	0.71004	0.481412	12.04	-53.62	74.41	-0.2013	-0.1913	-0.3393	
0.511546	0.706868	0.47031	11.06	-53.55	74.48	-0.2097	-0.2002	-0.3392	
0.500078	0.711992	0.44957	9.8	-51.66	74.27	-0.2259	-0.1905	-0.3299	
0.49715	0.724314	0.411506	8.61	-49.77	73.43	-0.2348	-0.184	-0.3313	
0.509106	0.731146	0.397354	5.53	-48.3	70.21	-0.2451	-0.1775	-0.3282	
0.581208	0.728706	0.410164	6.09	-48.51	67.34	-0.2495	-0.182	-0.3128	
0.641476	0.7259	0.411262	2.73	-49	66.29	-0.2656	-0.1722	-0.3203	
0.64477	0.708088	0.39284	-3.29	-46.41	63.84	-0.2762	-0.1581	-0.3157	
0.662216	0.691618	0.41785	-4.62	-46.83	59.57	-0.2835	-0.1563	-0.311	
0.668072	0.663314	0.416508	-5.88	-42	52.71	-0.2968	-0.1497	-0.3079	
0.670878	0.653798	0.386984	-5.25	-38.92	47.11	-0.297	-0.1467	-0.2972	
0.682834	0.645258	0.374784	-5.74	-34.37	43.61	-0.3014	-0.145	-0.291	
0.683688	0.618052	0.371124	-8.54	-32.69	41.86	-0.3107	-0.1247	-0.2941	
0.683078	0.605486	0.363316	-12.39	-32.69	40.81	-0.3119	-0.1339	-0.2864	
0.696742	0.591578	0.359046	-14.35	-34.02	41.02	-0.3223	-0.1289	-0.2802	
0.768478	0.563884	0.37576	-14.21	-34.3	42.84	-0.3254	-0.1181	-0.2909	
0.808738	0.557662	0.376004	-13.79	-34.65	45.15	-0.3371	-0.1146	-0.2862	
0.814594	0.551562	0.379542	-13.86	-30.8	45.15	-0.3363	-0.09779999	-0.2755	
0.835212	0.54229	0.382348	-11.62	-23.66	43.12	-0.342	-0.0991	-0.2785	
0.86559	0.52704	0.37942	-8.54	-16.24	40.46	-0.3512	-0.0835	-0.2739	
0.904386	0.527284	0.379176	-6.58	-12.74	40.32	-0.3556	-0.08329999	-0.2708	
0.913536	0.509594	0.36722	-10.15	-7.49	34.51	-0.3612	-0.0893	-0.2646	
0.89365	0.520086	0.35502	-10.43	-11.69	30.8	-0.3506	-0.0621	-0.2617	
0.890356	0.52643	0.343186	-8.19	-4.48	24.08	-0.3618	-0.0693	-0.2723	
0.902068	0.52765	0.343552	-3.5	-0.21	19.81	-0.3635	-0.0647	-0.2692	
0.89487	0.519476	0.342454	-3.08	4.2	15.96	-0.3608	-0.0602	-0.2571	
0.881938	0.49044	0.352336	-9.45	4.2	10.5	-0.3551	-0.0573	-0.2663	
0.882548	0.465064	0.353312	-14.21	-1.33	4.83	-0.358	-0.0557	-0.2678	
0.886086	0.44835	0.350994	-11.76	-0.21	1.54	-0.3595	-0.051	-0.2754	
0.886208	0.447374	0.36234	-6.86	4.06	0.7	-0.3534	-0.0635	-0.2693	
0.880718	0.435784	0.35929	-6.51	5.74	-2.94	-0.3596	-0.0494	-0.277	
0.875228	0.428952	0.367708	-8.89	4.69	-7.21	-0.3565	-0.0572	-0.2663	
0.873276	0.422364	0.368806	-8.33	5.81	-7.56	-0.3594	-0.0571	-0.2647	
0.87596	0.419558	0.373198	-7	7.28	-5.95	-0.3653	-0.0492	-0.2784	
0.867664	0.422608	0.377346	-7.49	8.82	-6.37	-0.3553	-0.0481	-0.2755	
0.870958	0.426024	0.37942	-8.12	9.45	-7.21	-0.351	-0.0498	-0.2694	
0.869616	0.420656	0.386252	-7.42	11.34	-7.49	-0.358	-0.0526	-0.2815	
0.865712	0.422242	0.39467	-5.39	12.67	-7.42	-0.3548	-0.0603	-0.2846	
0.854366	0.452376	0.408578	-3.5	13.93	-8.12	-0.3575	-0.0664	-0.28	
0.850462	0.47153	0.412238	-3.85	14.49	-10.92	-0.3392	-0.0517	-0.2848	
0.853024	0.478118	0.415288	-4.69	15.47	-13.72	-0.3463	-0.0545	-0.2923	
0.841556	0.463234	0.419558	-6.02	17.5	-16.59	-0.3446	-0.0638	-0.2816	
0.825086	0.467626	0.428342	-4.62	18.41	-19.46	-0.3376	-0.0563	-0.2878	
0.82594	0.488	0.44652	-2.03	18.48	-21.35	-0.3433	-0.0561	-0.2908	
0.825208	0.493978	0.44896	-0.63	20.02	-24.36	-0.3361	-0.0564	-0.297	
0.811544	0.508862	0.45567	0	22.47	-27.09	-0.3287	-0.0612	-0.2971	
0.789828	0.519232	0.469578	-0.77	26.32	-32.13	-0.3313	-0.0719	-0.2925	
0.778482	0.509472	0.476166	-0.49	27.93	-34.93	-0.3226	-0.0706	-0.2971	
0.763964	0.51118	0.479948	0.84	28.49	-36.61	-0.3323	-0.0825	-0.3016	
0.736758	0.527772	0.478118	1.54	30.52	-37.31	-0.3117	-0.0878	-0.3155	
0.721874	0.541802	0.485682	2.52	31.92	-38.08	-0.3135	-0.0832	-0.2987	
0.709918	0.54412	0.48007	2.94	33.74	-39.62	-0.3102	-0.0894	-0.3247	
0.699914	0.5429	0.481412	3.57	34.44	-41.3	-0.3073	-0.091	-0.3217	
0.675636	0.552782	0.491904	4.76	36.12	-42.14	-0.2954	-0.1007	-0.3248	
0.644648	0.550708	0.491904	6.44	38.36	-42.84	-0.2954	-0.1007	-0.3233	
0.62098	0.578768	0.490196	7.56	39.13	-43.26	-0.2821	-0.1088	-0.3295	
0.604266	0.58926	0.50691	6.44	38.29	-46.2	-0.2821	-0.1072	-0.331	
0.590236	0.573644	0.51484	8.89	42	-45.22	-0.2743	-0.1213	-0.3433	
0.57096	0.570716	0.518866	11.76	44.1	-43.96	-0.2658	-0.1185	-0.3327	
0.560346	0.582672	0.532042	12.95	41.37	-45.22	-0.2466	-0.1284	-0.3436	
0.531066	0.60451	0.53314	14.56	42.91	-44.38	-0.2492	-0.1375	-0.345	
0.507154	0.623176	0.535824	15.68	45.08	-42.28	-0.239	-0.1409	-0.3405	
0.46909	0.627934	0.528382	14.28	45.71	-37.38	-0.2227	-0.1522	-0.3529	
0.438468	0.631472	0.527772	15.26	47.32	-34.3	-0.211	-0.1588	-0.3469	
0.399184	0.665388	0.522404	18.62	48.09	-30.59	-0.2079	-0.1635	-0.35	
0.37088	0.685274	0.520574	18.34	48.3	-28.35	-0.196	-0.1731	-0.3577	
0.33794	0.68991	0.52155	16.8	49.28	-26.32	-0.2004	-0.1698	-0.3592	
0.322568	0.68503	0.56181	18.69	49.7	-24.01	-0.1756	-0.1753	-0.3671	
0.3294	0.690154	0.58194	20.02	50.33	-21.56	-0.167	-0.1741	-0.3656	
0.324642	0.697352	0.579866	21.42	50.61	-20.51	-0.1671	-0.1741	-0.3534	
0.301706	0.723704	0.565714	22.61	51.03	-20.86	-0.1564	-0.1898	-0.3626	
0.27267	0.74725	0.552294	25.34	50.61	-22.61	-0.1431	-0.1948	-0.3719	
0.236924	0.767502	0.528016	26.81	48.79	-24.64	-0.1445	-0.1994	-0.3688	
0.1891	0.779336	0.519232	27.3	46.27	-25.9	-0.1319	-0.1876	-0.369	
0.155306	0.796416	0.5063	27.16	39.76	-25.97	-0.1254	-0.2093	-0.3705	
0.13725	0.814838	0.511912	26.18	33.11	-26.46	-0.1124	-0.2113	-0.3615	
0.141764	0.82899	0.515084	22.75	27.16	-27.16	-0.1123	-0.2112	-0.3737	
0.136884	0.837286	0.520574	19.46	21.98	-28.42	-0.1136	-0.2189	-0.3599	
0.125294	0.816424	0.518256	12.95	16.38	-30.45	-0.1005	-0.2209	-0.3601	
0.118096	0.82106	0.515328	13.44	11.9	-31.64	-0.0988	-0.2255	-0.3723	
0.112972	0.845582	0.515938	12.81	8.26	-31.92	-0.0917	-0.2258	-0.3617	
0.095404	0.848144	0.509106	10.78	4.48	-32.48	-0.08419999	-0.2337	-0.3617	
0.077958	0.85095	0.493734	9.1	-2.45	-32.9	-0.0885	-0.2305	-0.3754	
0.068564	0.86315	0.488976	7.49	-9.38	-33.25	-0.087	-0.2351	-0.3693	
0.071004	0.865224	0.4941	5.46	-14.63	-32.55	-0.0812	-0.2384	-0.3617	
0.063684	0.874618	0.497272	3.22	-20.02	-31.43	-0.07539999	-0.2386	-0.3648	
0.048556	0.89731	0.496052	-1.82	-23.66	-31.22	-0.0782	-0.2432	-0.3556	
0.031964	0.892064	0.473116	-7.77	-27.72	-31.5	-0.0824	-0.2461	-0.3632	
0.024644	0.90158	0.471774	-9.1	-35.21	-32.06	-0.0857	-0.2321	-0.3617	
0.0305	0.90036	0.456402	-9.17	-46.34	-31.92	-0.0911	-0.2473	-0.3524	
0.047824	0.87657	0.465552	-12.18	-56.56	-30.8	-0.0882	-0.2443	-0.3586	
0.079178	0.839238	0.483242	-14.07	-64.33	-30.17	-0.1016	-0.2347	-0.357	
0.099552	0.867542	0.49105	-10.64	-69.65	-31.15	-0.1073	-0.2345	-0.3599	
0.127734	0.883646	0.499102	-12.25	-63.7	-32.97	-0.1099	-0.2436	-0.3584	
0.174582	0.864614	0.508496	-13.23	-64.75	-37.59	-0.1203	-0.2386	-0.3491	
0.181902	0.834602	0.490318	-12.32	-65.38	-43.61	-0.1259	-0.243	-0.3429	
0.162992	0.843142	0.477142	-6.16	-66.57	-47.6	-0.1334	-0.2336	-0.3459	
0.146522	0.879132	0.46116	-1.61	-66.22	-49.42	-0.1478	-0.2392	-0.3382	
0.1647	0.876936	0.457134	-2.38	-67.41	-47.6	-0.1495	-0.2315	-0.3336	
0.196542	0.871812	0.443226	-8.05	-76.09	-47.6	-0.1521	-0.2391	-0.3381	
0.208254	0.859978	0.482632	-12.46	-86.24	-48.72	-0.1476	-0.2469	-0.3305	
0.212524	0.846802	0.49837	-12.39	-87.22	-49.35	-0.1649	-0.2494	-0.3227	
0.229238	0.838994	0.50569	-10.85	-84.35	-49.84	-0.1634	-0.2525	-0.3181	
0.241072	0.834846	0.512278	-8.12	-81.76	-49.84	-0.1737	-0.2476	-0.315	
0.250832	0.822158	0.510326	-5.81	-78.75	-48.86	-0.1892	-0.2577	-0.3148	
0.237412	0.805566	0.510936	-8.96	-73.85	-48.23	-0.1835	-0.2564	-0.3103	
0.242902	0.802516	0.493978	-6.93	-71.05	-45.5	-0.1934	-0.2637	-0.3101	
0.244732	0.788364	0.486048	-4.06	-68.04	-43.26	-0.2037	-0.2572	-0.307	
0.223992	0.798124	0.482388	-7.07	-68.53	-30.45	-0.205	-0.2664	-0.2948	
0.237656	0.796538	0.458354	-3.08	-67.41	-26.74	-0.1977	-0.2698	-0.2918	
0.203496	0.859612	0.442128	-3.36	-70.35	-21	-0.2197	-0.2598	-0.2931	
0.19581	0.916708	0.446276	-4.13	-73.78	-19.18	-0.2168	-0.2599	-0.2855	
0.218868	0.898774	0.44042	-9.1	-76.09	-21.35	-0.2224	-0.2674	-0.2793	
0.234972	0.886574	0.466162	-8.82	-77.49	-27.44	-0.2283	-0.2641	-0.2777	
0.3172	0.86498	0.477264	-9.38	-76.3	-32.69	-0.2369	-0.2684	-0.2746	
0.320372	0.848998	0.455182	-10.36	-70.7	-32.13	-0.2398	-0.2668	-0.273	
0.265716	0.843874	0.431392	-10.78	-67.27	-30.73	-0.2409	-0.2821	-0.2577	
0.250588	0.836066	0.439078	-11.2	-69.3	-26.88	-0.247	-0.2727	-0.25	
0.2684	0.831918	0.440908	-11.97	-69.58	-24.64	-0.2542	-0.274	-0.2515	
0.269132	0.844118	0.447252	-12.81	-69.02	-22.19	-0.2586	-0.2738	-0.2484	
0.284992	0.847046	0.471408	-13.72	-66.78	-22.96	-0.2599	-0.2815	-0.2346	
0.32086	0.853878	0.492392	-14.56	-60.62	-25.97	-0.2719	-0.2688	-0.2269	
0.32818	0.839726	0.499834	-15.19	-53.41	-27.44	-0.2643	-0.2783	-0.2407	
0.297802	0.821304	0.49654	-13.51	-46.06	-28.77	-0.2786	-0.2824	-0.2314	
0.278526	0.803614	0.502396	-10.15	-38.78	-21.42	-0.2757	-0.2886	-0.2192	
0.278404	0.79666	0.521184	-6.16	-31.36	-16.24	-0.2739	-0.2979	-0.2222	
0.310856	0.797636	0.5185	-3.01	-23.59	-10.92	-0.2742	-0.2856	-0.2283	
0.28975	0.80032	0.508984	-0.7	-15.05	-8.12	-0.276	-0.2748	-0.2284	
0.283406	0.81984	0.506178	1.05	-9.8	-4.69	-0.28	-0.29	-0.2099	
0.280478	0.821426	0.497394	1.54	-5.25	-2.17	-0.2789	-0.2778	-0.2176	
0.282918	0.829844	0.498248	2.1	-1.19	0.49	-0.2801	-0.2839	-0.2222	
0.273402	0.828502	0.492758	2.38	3.78	3.15	-0.2801	-0.287	-0.213	
0.25498	0.834846	0.474702	3.99	7.63	5.81	-0.2799	-0.2931	-0.213	
0.231922	0.844972	0.446642	4.69	10.08	7	-0.2828	-0.2915	-0.2221	
0.24095	0.859734	0.455914	3.99	9.45	10.15	-0.2827	-0.2945	-0.2175	
0.246074	0.876082	0.443592	3.99	11.69	10.29	-0.2859	-0.2868	-0.216	
0.234362	0.879498	0.441152	3.85	11.76	11.34	-0.2747	-0.2764	-0.2161	
0.24339	0.876204	0.455914	3.22	12.74	11.27	-0.2788	-0.2793	-0.2268	
0.249734	0.86376	0.480436	3.5	14.91	11.48	-0.2758	-0.2856	-0.2192	
0.271572	0.841922	0.493124	5.81	18.97	11.2	-0.2872	-0.2851	-0.2282	
0.317566	0.823256	0.502396	10.43	28.84	14.63	-0.2819	-0.2731	-0.2283	
0.310246	0.826184	0.461038	13.3	37.38	17.36	-0.2831	-0.2807	-0.2283	
0.27755	0.839726	0.439688	14.77	43.19	19.6	-0.2818	-0.2777	-0.2207	
0.27999	0.829356	0.460062	15.54	47.81	24.43	-0.2787	-0.2824	-0.2268	
0.31476	0.804224	0.478118	16.94	53.27	29.19	-0.2802	-0.2777	-0.2329	
0.332206	0.798368	0.492026	20.65	57.82	32.41	-0.273	-0.2795	-0.2284	
0.367098	0.806664	0.486658	23.52	63.42	34.3	-0.2644	-0.2752	-0.233	
0.36356	0.824842	0.46055	25.97	70.91	33.95	-0.2686	-0.275	-0.2544	
0.35807	0.830332	0.423828	20.3	67.83	30.45	-0.2598	-0.2815	-0.2407	
0.337574	0.83997	0.405772	19.04	67.41	35	-0.2599	-0.2753	-0.256	
0.3477	0.822158	0.426878	22.19	63.14	42.42	-0.2441	-0.2743	-0.2531	
0.372222	0.813374	0.409188	22.47	58.24	48.09	-0.2558	-0.2693	-0.2515	
0.35746	0.875716	0.364414	19.88	60.41	48.16	-0.2469	-0.2727	-0.2638	
0.321226	0.949648	0.362706	23.03	68.67	47.32	-0.2557	-0.2678	-0.2668	
0.296826	0.93574	0.330132	22.33	74.62	49.21	-0.2425	-0.2744	-0.2715	
0.254858	0.912194	0.338794	18.13	67.48	52.22	-0.2411	-0.2729	-0.2699	
0.257176	0.91317	0.334768	14.21	57.54	54.67	-0.2371	-0.2592	-0.2838	
0.301096	0.92171	0.358436	14.77	63.42	53.41	-0.2329	-0.2532	-0.2838	
0.289994	0.878888	0.36234	11.83	72.52	52.08	-0.2287	-0.2503	-0.2808	
0.28609	0.895846	0.374296	14.77	71.05	47.74	-0.2228	-0.2535	-0.2916	
0.28365	0.94916	0.394426	16.59	70	41.02	-0.2214	-0.2459	-0.3053	
0.289384	0.880718	0.39833	10.36	77.07	37.66	-0.2198	-0.2536	-0.2977	
0.315126	0.79422	0.41968	8.26	83.44	38.71	-0.2141	-0.2507	-0.3069	
0.311954	0.81008	0.406138	10.85	87.5	39.97	-0.2055	-0.2449	-0.3131	
0.299388	0.874252	0.389546	13.86	90.16	39.69	-0.1911	-0.2439	-0.3179	
0.295728	0.84485	0.430416	11.13	96.53	39.41	-0.1869	-0.2363	-0.3286	
0.291824	0.839604	0.468846	14.84	94.36	42.49	-0.1768	-0.2382	-0.3256	
0.283162	0.877546	0.465308	15.75	92.12	46.27	-0.1726	-0.2322	-0.3257	
0.287554	0.844972	0.470798	16.1	92.89	51.24	-0.1709	-0.2384	-0.3349	
0.301828	0.805566	0.486414	19.32	94.99	55.02	-0.1461	-0.2454	-0.3397	
0.325496	0.810568	0.488976	27.09	96.67	56.91	-0.1419	-0.2409	-0.3428	
0.370392	0.810812	0.506056	33.53	104.51	58.66	-0.1403	-0.2456	-0.3443	
0.372466	0.78934	0.490074	34.44	115.36	57.96	-0.1229	-0.2462	-0.343	
0.298534	0.824476	0.452986	43.96	122.78	62.09	-0.1082	-0.2528	-0.3538	
0.237534	0.883768	0.435296	50.12	125.37	60.76	-0.1054	-0.2499	-0.3523	
0.183	0.897188	0.406992	49.98	122.08	57.05	-0.09209999	-0.2611	-0.3463	
0.162626	0.939766	0.412604	50.75	113.54	48.65	-0.0716	-0.2695	-0.3465	
0.133712	0.977464	0.384178	45.85	107.52	39.62	-0.07009999	-0.2741	-0.3404	
0.095648	0.95099	0.401624	38.85	101.57	34.37	-0.0572	-0.2715	-0.3451	
0.100772	0.917562	0.404552	32.83	93.24	32.13	-0.0395	-0.2829	-0.3391	
0.097112	0.906216	0.411262	29.61	83.44	30.59	-0.0397	-0.2783	-0.3391	
0.10492	0.885964	0.407358	26.53	75.32	29.61	-0.0222	-0.282	-0.3393	
0.099186	0.905484	0.404674	25.06	67.41	28	-0.0233	-0.2942	-0.3331	
0.120902	0.910364	0.41846	21.56	62.16	28.63	-0.0119	-0.2885	-0.3424	
0.127978	0.898286	0.424438	16.73	58.59	28.91	-0.0015	-0.2996	-0.3318	
0.146522	0.881816	0.434076	12.25	46.41	23.38	-0.0002	-0.295	-0.3303	
0.143472	0.899018	0.434076	14.56	42.14	22.61	0.0024	-0.289	-0.3395	
0.125782	0.911706	0.413946	13.72	38.43	15.75	0.0057	-0.3014	-0.3365	
0.13847	0.908046	0.410164	10.15	32.69	13.23	0.0104	-0.3123	-0.335	
0.135786	0.893162	0.406382	8.89	29.47	10.64	0.0129	-0.3047	-0.3228	
0.150304	0.912438	0.413458	10.5	25.48	9.52	0.0173	-0.3049	-0.3305	
0.14762	0.898774	0.412604	8.68	22.75	9.03	0.0226	-0.2928	-0.3199	
0.15921	0.897676	0.418948	6.72	17.01	7.21	0.0204	-0.3126	-0.3228	
0.170556	0.900116	0.420534	7.21	12.6	6.65	0.02	-0.3019	-0.3244	
0.183122	0.895968	0.427488	4.62	10.78	5.53	0.0233	-0.3112	-0.3259	
0.202032	0.884134	0.43432	1.12	8.54	4.83	0.0172	-0.3049	-0.3167	
0.199226	0.86925	0.438834	-1.4	7.49	5.67	0.0231	-0.3082	-0.3168	
0.207522	0.862784	0.4575	-3.78	5.32	4.41	0.0232	-0.3128	-0.3137	
0.216062	0.84851	0.450302	-2.24	5.18	5.6	0.0121	-0.3262	-0.3166	
0.203374	0.873642	0.452132	-0.77	7	3.99	0.0232	-0.3112	-0.3198	
0.201056	0.887672	0.467748	-1.12	5.88	3.29	0.0245	-0.3067	-0.3183	
0.210328	0.854	0.459086	-1.19	7.07	3.08	0.0289	-0.3084	-0.3168	
0.194834	0.864126	0.445422	0	5.81	1.89	0.0186	-0.3034	-0.3167	
0.187392	0.897798	0.451766	0.21	5.18	-0.14	0.0202	-0.305	-0.3244	
0.179828	0.883646	0.44774	-1.61	3.85	-1.68	0.0301	-0.3023	-0.3153	
0.183976	0.878278	0.43859	-3.64	0.35	-3.29	0.0257	-0.2975	-0.3229	
0.194956	0.861198	0.427244	-5.46	-4.34	-3.57	0.023	-0.302	-0.326	
0.191784	0.861564	0.442982	-5.53	-7.28	-2.94	0.0276	-0.3114	-0.3214	
0.180438	0.86864	0.45689	-5.88	-8.26	-1.4	0.0259	-0.3052	-0.3214	
0.182878	0.857538	0.45567	-6.09	-10.85	-0.63	0.0248	-0.3159	-0.3229	
0.204472	0.864858	0.450302	-4.83	-12.32	-2.52	0.0187	-0.3049	-0.3244	
0.196786	0.878034	0.438224	-3.15	-12.6	-5.04	0.0186	-0.3018	-0.3259	
0.158234	0.892186	0.436516	-1.75	-11.27	-8.05	0.0246	-0.3097	-0.3198	
0.1464	0.89487	0.44225	-2.59	-14	-9.59	0.0272	-0.2991	-0.3245	
0.169946	0.888038	0.427488	-4.27	-18.97	-9.59	0.0202	-0.3081	-0.3152	
0.159576	0.889624	0.424438	-5.6	-22.89	-10.85	0.0072	-0.306	-0.3273	
0.139446	0.899628	0.417118	-6.37	-26.25	-12.11	0.0171	-0.2972	-0.3305	
0.109678	0.912194	0.412116	-7.91	-32.55	-14.21	0.0142	-0.3002	-0.3228	
0.116632	0.893406	0.431026	-10.99	-41.93	-16.94	0.004	-0.2983	-0.3227	
0.133224	0.91439	0.452498	-9.66	-46.76	-19.39	-0.0057	-0.304	-0.3318	
0.135298	0.898164	0.440908	-12.53	-46.41	-23.87	-0.0032	-0.2919	-0.3318	
0.108824	0.889502	0.407724	-15.89	-51.45	-25.62	-0.0031	-0.2949	-0.3333	
0.076616	0.915854	0.374906	-18.76	-57.61	-27.3	-0.0146	-0.296	-0.3378	
0.069052	0.909632	0.38735	-24.78	-61.95	-29.12	-0.0192	-0.2882	-0.3301	
0.140788	0.906094	0.42151	-24.78	-66.99	-32.69	-0.019	-0.2928	-0.3362	
0.22692	0.882914	0.463234	-21.91	-73.15	-38.85	-0.0364	-0.2876	-0.3483	
0.205448	0.920124	0.445178	-26.18	-74.41	-44.52	-0.0309	-0.2817	-0.3346	
0.166164	0.945256	0.39528	-31.43	-76.93	-47.88	-0.0438	-0.2827	-0.3391	
0.183976	0.857904	0.443104	-34.3	-73.71	-45.08	-0.0425	-0.2782	-0.3437	
0.216428	0.841678	0.432124	-26.11	-77.14	-41.16	-0.0496	-0.2794	-0.3482	
0.177388	0.895968	0.436882	-21.07	-76.58	-46.62	-0.0556	-0.2716	-0.3527	
0.186538	0.932324	0.414678	-22.54	-78.19	-47.32	-0.0603	-0.2637	-0.3481	
0.210328	0.8784	0.436272	-25.41	-76.93	-44.17	-0.0733	-0.2617	-0.3511	
0.222772	0.83326	0.428098	-23.73	-77.77	-39.06	-0.0749	-0.2586	-0.348	
0.197884	0.900848	0.40382	-18.97	-85.82	-41.58	-0.0881	-0.2536	-0.3448	
0.192882	0.950746	0.3843	-16.17	-91.35	-44.45	-0.0939	-0.2534	-0.3402	
0.19276	0.947208	0.382348	-17.85	-95.13	-42.91	-0.108	-0.2605	-0.3446	
0.226432	0.909998	0.405894	-24.29	-95.48	-41.09	-0.1084	-0.2498	-0.3431	
0.241926	0.924394	0.394914	-28.28	-98.91	-45.5	-0.1212	-0.257	-0.3338	
0.257054	0.937692	0.415044	-32.69	-103.46	-50.33	-0.1315	-0.2505	-0.3383	
0.27755	0.907314	0.412848	-34.23	-102.62	-53.06	-0.1363	-0.2427	-0.3199	
0.291824	0.86315	0.423828	-36.75	-99.47	-54.11	-0.1516	-0.2544	-0.3335	
0.322202	0.851194	0.439688	-32.76	-97.72	-53.97	-0.1561	-0.2512	-0.3304	
0.338428	0.836432	0.458842	-31.22	-92.68	-54.95	-0.1704	-0.2553	-0.3303	
0.346236	0.824964	0.466284	-26.39	-87.08	-53.62	-0.1808	-0.2457	-0.3302	
0.326228	0.818864	0.465308	-21.21	-79.66	-50.54	-0.1807	-0.2503	-0.3302	
0.324032	0.8174	0.466772	-16.73	-74.83	-47.18	-0.182	-0.2549	-0.3194	
0.325862	0.829722	0.45811	-16.59	-76.72	-45.64	-0.1878	-0.2562	-0.3163	
0.324154	0.821304	0.472994	-17.85	-81.06	-44.03	-0.1894	-0.2516	-0.3133	
0.31659	0.834724	0.473482	-17.92	-78.61	-40.67	-0.2013	-0.2435	-0.3086	
0.316224	0.803492	0.476288	-16.45	-72.45	-42.42	-0.2128	-0.2477	-0.2978	
0.321226	0.80825	0.482754	-13.93	-68.74	-42.77	-0.2126	-0.2524	-0.2978	
0.324276	0.814838	0.472384	-12.53	-64.61	-40.67	-0.224	-0.2581	-0.2931	
0.320006	0.808006	0.463844	-9.66	-59.57	-35.35	-0.227	-0.2565	-0.2884	
0.295728	0.808006	0.457134	-13.37	-59.64	-31.71	-0.23	-0.2533	-0.29	
0.296704	0.830454	0.456402	-10.5	-57.19	-29.12	-0.2357	-0.2592	-0.2792	
0.28487	0.840092	0.444446	-13.23	-56.84	-24.78	-0.2383	-0.2699	-0.2684	
0.27084	0.836676	0.453352	-14.63	-58.73	-21.21	-0.2386	-0.2576	-0.2761	
0.29768	0.841312	0.472872	-14.07	-58.73	-22.19	-0.2442	-0.2636	-0.273	
0.302804	0.854488	0.47885	-16.87	-55.3	-25.55	-0.2517	-0.2587	-0.2683	
0.286334	0.847168	0.475312	-17.15	-51.66	-24.01	-0.2631	-0.2645	-0.2606	
0.296826	0.856806	0.472994	-15.96	-48.58	-25.76	-0.2486	-0.2634	-0.2668	
0.296826	0.850462	0.481412	-15.12	-45.85	-28.28	-0.2601	-0.2676	-0.2575	
0.29158	0.819108	0.476654	-16.66	-42.21	-28.07	-0.2574	-0.2631	-0.253	
0.261324	0.806664	0.460062	-13.86	-41.79	-24.43	-0.2706	-0.2596	-0.2483	
0.249368	0.798978	0.479582	-12.32	-41.16	-20.37	-0.2734	-0.261	-0.2528	
0.271328	0.788364	0.493856	-11.13	-39.34	-19.46	-0.2587	-0.2708	-0.2499	
0.297192	0.777628	0.50264	-9.87	-37.1	-18.48	-0.2731	-0.2718	-0.2421	
0.311466	0.796294	0.513986	-7	-35.91	-16.31	-0.2658	-0.2751	-0.2453	
0.321836	0.802882	0.514718	-7.28	-31.15	-13.37	-0.2745	-0.2733	-0.2406	
0.317078	0.790804	0.538508	-7.14	-24.29	-9.38	-0.2761	-0.2686	-0.2391	
0.320494	0.77775	0.535702	-5.18	-17.29	-6.44	-0.2777	-0.2624	-0.2452	
0.316224	0.795684	0.52582	-1.75	-10.5	-2.59	-0.2791	-0.2686	-0.2283	
0.293044	0.824354	0.494832	0.7	-4.41	1.4	-0.2789	-0.2747	-0.2314	
0.261934	0.846436	0.492148	0.84	-1.33	2.66	-0.2689	-0.2735	-0.2269	
0.259494	0.849608	0.494344	2.17	0.14	1.47	-0.2817	-0.273	-0.2466	
0.248026	0.847534	0.477996	0.98	1.82	-0.49	-0.2804	-0.2716	-0.2405	
0.23851	0.846802	0.478484	2.31	1.68	-1.4	-0.2851	-0.2622	-0.2268	
0.243146	0.856318	0.460428	3.43	1.89	-0.98	-0.2721	-0.2642	-0.2269	
0.232898	0.865956	0.440176	2.87	1.19	-1.12	-0.2736	-0.2596	-0.2345	
0.233874	0.86315	0.456158	2.1	-0.35	-2.73	-0.2833	-0.2699	-0.239	
0.237778	0.870958	0.460428	1.75	-0.7	-3.22	-0.2787	-0.2793	-0.2344	
0.243024	0.870714	0.4514	0.28	-0.07	-2.38	-0.2747	-0.2703	-0.2299	
0.246196	0.867908	0.457866	-0.91	0.28	-1.75	-0.2747	-0.2703	-0.2299	
0.247172	0.849608	0.46848	-2.03	2.31	-0.84	-0.2719	-0.2688	-0.233	
0.254492	0.833504	0.470554	-1.26	3.92	0.7	-0.2843	-0.2822	-0.2405	
0.253882	0.846802	0.46482	-0.35	5.11	2.8	-0.2771	-0.284	-0.2329	
0.247538	0.84668	0.467138	-0.42	6.23	3.78	-0.2701	-0.2781	-0.2345	
0.248148	0.833626	0.479826	0.42	7.35	3.99	-0.2847	-0.2745	-0.2328	
0.266204	0.82899	0.498492	2.17	9.03	5.25	-0.2749	-0.2656	-0.233	
0.277672	0.826306	0.497272	3.99	12.32	7.7	-0.2674	-0.2689	-0.2422	
0.285968	0.827648	0.51728	5.32	16.1	9.52	-0.2761	-0.2717	-0.236	
0.295728	0.803736	0.51118	6.3	21.07	11.9	-0.2677	-0.2613	-0.2422	
0.295118	0.80764	0.52155	8.89	26.32	15.05	-0.2719	-0.2673	-0.236	
0.324764	0.800564	0.506178	9.73	31.71	19.88	-0.263	-0.2722	-0.2407	
0.297314	0.808982	0.50386	13.16	37.38	22.75	-0.2729	-0.2764	-0.2482	
0.332816	0.810324	0.50325	16.24	45.22	26.95	-0.2735	-0.2595	-0.2498	
0.340502	0.805688	0.521794	19.18	51.17	28.42	-0.2689	-0.2674	-0.2422	
0.366122	0.781288	0.521062	22.4	59.5	29.12	-0.2599	-0.2722	-0.2606	
0.378566	0.768234	0.496906	27.65	68.81	31.36	-0.2646	-0.2644	-0.2499	
0.363682	0.785924	0.452254	31.22	73.64	31.29	-0.2618	-0.2599	-0.2591	
0.31781	0.821182	0.413092	27.86	63.21	29.96	-0.2571	-0.2693	-0.2652	
0.262788	0.867664	0.391742	22.61	61.11	31.99	-0.2598	-0.2753	-0.2682	
0.272914	0.883158	0.39162	19.39	57.4	37.52	-0.2473	-0.2589	-0.2684	
0.30866	0.873642	0.409676	15.82	53.41	39.97	-0.2355	-0.2623	-0.2899	
0.332694	0.841434	0.433588	12.81	50.19	41.16	-0.2341	-0.2624	-0.2853	
0.344406	0.828258	0.399672	13.72	48.51	43.26	-0.2412	-0.2652	-0.2868	
0.32818	0.870592	0.378932	15.68	50.61	43.4	-0.2328	-0.2578	-0.2808	
0.301584	0.935496	0.36783	17.78	55.23	42.63	-0.237	-0.2592	-0.2914	
0.294264	0.946476	0.385764	16.24	61.81	39.41	-0.2224	-0.2627	-0.2976	
0.304756	0.903532	0.393816	13.02	63.98	36.54	-0.2339	-0.267	-0.2853	
0.31537	0.8784	0.41419	10.78	66.08	31.43	-0.2273	-0.2472	-0.2961	
0.306098	0.890112	0.41114	11.41	74.48	27.23	-0.2067	-0.2556	-0.3024	
0.278282	0.880962	0.395768	10.43	79.59	27.51	-0.1967	-0.2529	-0.3071	
0.264252	0.85583	0.399428	7.42	81.41	28.63	-0.1849	-0.2563	-0.3209	
0.256322	0.828258	0.423462	5.81	82.46	28.84	-0.1893	-0.2547	-0.3133	
0.263764	0.810934	0.450058	6.72	84.28	28.63	-0.1838	-0.2457	-0.3179	
0.262422	0.814594	0.458842	8.33	84.98	30.24	-0.1765	-0.2474	-0.3226	
0.265106	0.817034	0.468724	11.41	84.77	34.51	-0.1706	-0.2461	-0.3425	
0.256688	0.865834	0.46848	14	84.77	37.45	-0.1445	-0.2516	-0.3351	
0.25376	0.884256	0.464088	16.59	85.4	41.09	-0.1534	-0.2467	-0.3304	
0.241926	0.88877	0.441152	14.42	86.94	44.38	-0.1402	-0.2487	-0.3397	
0.243146	0.824354	0.45933	13.16	88.27	48.02	-0.1329	-0.2535	-0.3337	
0.240828	0.822036	0.469944	17.22	87.36	52.78	-0.1214	-0.2524	-0.3369	
0.238388	0.845094	0.470066	20.65	87.99	54.25	-0.1172	-0.2449	-0.3446	
0.253638	0.88816	0.456646	22.33	88.9	55.44	-0.104	-0.2484	-0.3523	
0.259372	0.856074	0.4636	23.59	94.01	57.54	-0.0983	-0.247	-0.3554	
0.23546	0.855342	0.47397	25.83	99.47	59.57	-0.0838	-0.2491	-0.3525	
0.239364	0.811544	0.486292	25.41	97.02	58.73	-0.0851	-0.2521	-0.3555	
0.220454	0.84851	0.46665	28.77	97.09	60.06	-0.07099999	-0.2434	-0.3527	
0.185318	0.882426	0.465796	35.35	97.72	58.8	-0.0633	-0.2559	-0.3573	
0.14091	0.901702	0.447008	36.47	98.84	57.33	-0.0517	-0.2594	-0.3543	
0.134444	0.905118	0.468114	38.01	89.46	53.83	-0.0503	-0.258	-0.3498	
0.133468	0.907924	0.436272	35.7	81.62	47.39	-0.0441	-0.272	-0.3528	
0.11468	0.935008	0.448106	35.28	77.7	42.63	-0.0339	-0.2739	-0.3529	
0.08906	0.903654	0.44042	31.36	77.35	38.64	-0.031	-0.2771	-0.3438	
0.114558	0.909144	0.42883	30.52	70.14	34.93	-0.0208	-0.2805	-0.3408	
0.118706	0.89426	0.425048	26.04	66.43	31.64	-0.015	-0.2838	-0.3302	
0.09747799	0.880596	0.415776	20.72	63.21	30.87	-0.013	-0.2945	-0.35	
0.116022	0.883768	0.429196	18.2	45.29	29.12	-0.003	-0.298	-0.3303	
0.138104	0.879132	0.42334	13.65	38.85	28.56	0.004	-0.2936	-0.3349	
0.125904	0.924394	0.427488	14.49	38.64	22.82	0.0014	-0.2997	-0.341	
0.124806	0.90463	0.439444	10.01	27.51	18.06	0.0013	-0.2981	-0.3395	
0.18056	0.877546	0.44408	7.63	20.16	14.56	0.0113	-0.2985	-0.3304	
0.183	0.887672	0.46299	10.01	23.03	12.25	0.0072	-0.303	-0.3334	
0.187392	0.865346	0.461404	8.68	23.94	9.38	0.0231	-0.3051	-0.3275	
0.193736	0.858148	0.456158	8.68	21.84	7	0.0114	-0.3	-0.335	
0.18727	0.848754	0.462868	5.39	23.87	6.72	0.0247	-0.3097	-0.329	
0.197396	0.865834	0.45567	9.1	19.74	10.22	0.0215	-0.3004	-0.3259	
0.236558	0.869006	0.450424	4.41	15.68	11.55	0.0233	-0.3112	-0.329	
0.215574	0.892552	0.450058	1.61	12.74	7.14	0.0274	-0.3068	-0.3214	
0.17995	0.86498	0.449936	-2.87	14	4.69	0.0214	-0.3004	-0.3229	
0.20679	0.863028	0.458598	-0.91	10.22	4.48	0.0228	-0.3005	-0.3122	
0.221552	0.870348	0.458842	1.12	7.35	3.85	0.0319	-0.31	-0.3306	
0.19581	0.87047	0.454084	0.56	5.04	2.1	0.0163	-0.3171	-0.3274	
0.21472	0.869372	0.468236	0.07	3.43	1.47	0.0216	-0.3066	-0.3213	
0.22021	0.851438	0.47214	-1.05	5.95	-0.21	0.0259	-0.3036	-0.329	
0.21716	0.846558	0.453596	-0.7	7.35	-0.42	0.0315	-0.3008	-0.3138	
0.194346	0.865712	0.446032	0.98	4.83	0.77	0.0259	-0.3052	-0.326	
0.194346	0.878644	0.454206	0.07	2.45	0.91	0.0217	-0.3081	-0.3259	
0.192028	0.876204	0.46055	0.14	0.21	0	0.0231	-0.3051	-0.3259	
0.201178	0.87474	0.464088	1.33	-0.7	-1.96	0.0247	-0.3097	-0.3275	
0.194468	0.874862	0.450668	-0.56	-1.4	-3.43	0.0218	-0.3096	-0.329	
0.192394	0.881084	0.450668	-1.4	-3.5	-4.41	0.0286	-0.2991	-0.3275	
0.191174	0.871812	0.445056	-2.94	-4.34	-4.48	0.0391	-0.3118	-0.3215	
0.188368	0.874984	0.435906	-2.17	-6.65	-3.85	0.0202	-0.308	-0.3229	
0.180316	0.875106	0.43859	-3.43	-8.26	-4.41	0.0216	-0.305	-0.3275	
0.181048	0.877546	0.44774	-3.71	-10.85	-5.25	0.0261	-0.3113	-0.3183	
0.185806	0.882548	0.44957	-4.06	-12.18	-7.07	0.0315	-0.2992	-0.323	
0.193248	0.877424	0.454084	-4.48	-14.14	-8.61	0.0259	-0.3036	-0.3306	
0.1952	0.871812	0.449936	-5.32	-15.33	-9.94	0.0231	-0.3051	-0.3275	
0.18422	0.88206	0.455426	-5.6	-17.29	-10.92	0.0302	-0.3038	-0.3199	
0.1647	0.8784	0.43798	-6.23	-18.76	-12.88	0.0232	-0.3112	-0.3244	
0.147864	0.8906	0.423462	-6.58	-23.31	-15.19	0.0171	-0.2987	-0.332	
0.127002	0.912316	0.418094	-7.56	-27.44	-17.99	0.0245	-0.3036	-0.3321	
0.086742	0.923418	0.425048	-11.69	-35.35	-23.03	0.0144	-0.3017	-0.335	
0.066856	0.933788	0.430782	-13.93	-40.74	-27.09	0.0114	-0.297	-0.3426	
0.0915	0.891698	0.437492	-15.26	-48.37	-31.5	0.0111	-0.2924	-0.332	
0.126148	0.881328	0.443104	-20.16	-53.83	-35	0.0125	-0.2863	-0.3427	
0.130052	0.900848	0.40809	-20.79	-62.44	-39.76	0.0111	-0.2908	-0.335	
0.100528	0.91744	0.390766	-25.69	-67.9	-42	-0.0005	-0.2843	-0.3426	
0.094062	0.924638	0.394548	-28.98	-75.32	-41.09	-0.0146	-0.2914	-0.35	
0.12871	0.890844	0.41358	-30.59	-82.88	-41.02	-0.018	-0.2744	-0.35	
0.133468	0.940986	0.41663	-29.89	-88.27	-46.27	-0.0322	-0.2816	-0.3575	
0.141642	0.986248	0.406138	-28.77	-92.96	-53.48	-0.0256	-0.2665	-0.3454	
0.17507	0.925492	0.434808	-34.44	-93.38	-54.25	-0.0324	-0.2739	-0.356	
0.213134	0.80642	0.437614	-38.64	-90.3	-49.49	-0.0485	-0.2687	-0.3528	
0.172996	0.828136	0.428708	-33.32	-93.1	-46.76	-0.0588	-0.2653	-0.3497	
0.14823	0.928176	0.420534	-27.86	-96.25	-45.99	-0.0705	-0.2588	-0.3541	
0.170312	0.984784	0.413702	-27.09	-97.86	-46.34	-0.0883	-0.2459	-0.3464	
0.253638	0.878034	0.438468	-36.54	-100.52	-44.1	-0.0852	-0.2506	-0.354	
0.246562	0.848876	0.435662	-35.35	-101.78	-46.55	-0.0913	-0.2381	-0.357	
0.226188	0.887306	0.428342	-31.29	-102.9	-52.71	-0.1027	-0.2454	-0.3477	
0.231068	0.92171	0.409676	-28.7	-100.38	-56.98	-0.1186	-0.2464	-0.3461	
0.247416	0.92293	0.392352	-30.24	-97.93	-56.77	-0.1257	-0.2476	-0.3567	
0.262178	0.931836	0.396256	-30.94	-98.91	-56.28	-0.1407	-0.2349	-0.3398	
0.264862	0.890356	0.405162	-36.54	-96.67	-58.87	-0.1489	-0.2468	-0.3427	
0.282186	0.869006	0.424072	-35.21	-99.4	-64.05	-0.1608	-0.2372	-0.3411	
0.296216	0.863638	0.432002	-35.49	-106.47	-68.18	-0.1564	-0.2389	-0.3427	
0.317078	0.865346	0.447496	-39.55	-112.77	-70.7	-0.1738	-0.2337	-0.3471	
0.332816	0.81923	0.450302	-42.77	-113.96	-70.91	-0.181	-0.2365	-0.3378	
0.363194	0.79178	0.47885	-40.11	-114.17	-69.72	-0.1841	-0.2349	-0.3302	
0.37881	0.787876	0.502762	-36.54	-112.7	-71.33	-0.196	-0.2237	-0.3301	
0.411994	0.751886	0.534238	-32.41	-108.01	-71.19	-0.2071	-0.2387	-0.3177	
0.43005	0.726754	0.553514	-27.44	-101.71	-67.9	-0.2074	-0.2326	-0.3101	
0.437004	0.712358	0.53253	-23.8	-86.59	-63.91	-0.2261	-0.2365	-0.3068	
0.406748	0.73993	0.516914	-22.47	-80.01	-56.07	-0.2364	-0.2331	-0.2991	
0.38918	0.7564	0.515694	-19.04	-77.35	-49.07	-0.2317	-0.2425	-0.3022	
0.355142	0.766038	0.515328	-19.04	-75.25	-45.5	-0.2434	-0.2405	-0.296	
0.354044	0.76189	0.530822	-20.23	-73.5	-41.09	-0.2387	-0.2514	-0.296	
0.348676	0.747128	0.537166	-18.55	-67.97	-36.96	-0.245	-0.239	-0.2792	
0.349286	0.73139	0.546926	-15.47	-62.37	-32.41	-0.2636	-0.2429	-0.279	
0.30256	0.74908	0.5551	-13.58	-60.41	-25.97	-0.2634	-0.2522	-0.2728	
0.363804	0.770918	0.58621	-5.81	-52.29	-28.28	-0.2625	-0.2384	-0.2652	
0.359168	0.774212	0.56181	-10.99	-44.24	-21.91	-0.2621	-0.2445	-0.279	
0.320738	0.771528	0.560346	-6.86	-37.1	-21.49	-0.2722	-0.2488	-0.2712	
0.28853	0.767014	0.551806	-5.95	-31.15	-17.29	-0.2677	-0.2551	-0.2606	
0.2745	0.744566	0.54717	-2.17	-26.18	-14.14	-0.2809	-0.2531	-0.2513	
0.282308	0.754326	0.552294	3.22	-22.54	-10.08	-0.2678	-0.2551	-0.2499	
0.269498	0.833016	0.557174	7	-20.09	-7.21	-0.2705	-0.2596	-0.2529	
0.265228	0.827038	0.538508	2.24	-13.79	-7.21	-0.2719	-0.2626	-0.2544	
0.259738	0.81862	0.556564	3.29	-11.69	-7.63	-0.2807	-0.2593	-0.2451	
0.25437	0.814716	0.52887	3.29	-7.21	-8.4	-0.2806	-0.2608	-0.2558	
0.250222	0.815814	0.510814	2.03	-5.74	-6.09	-0.2808	-0.2577	-0.2451	
0.226554	0.821304	0.487512	2.73	-5.95	-4.48	-0.2634	-0.2614	-0.2438	
0.216306	0.832162	0.484706	2.87	-7.35	-5.18	-0.2774	-0.2732	-0.2451	
0.227896	0.829478	0.511058	3.43	-8.47	-6.23	-0.2793	-0.2578	-0.2436	
0.238022	0.844484	0.510448	2.87	-6.02	-5.74	-0.2809	-0.2547	-0.2421	
0.247416	0.833748	0.504958	1.75	-3.36	-4.76	-0.2793	-0.2593	-0.2421	
0.2562	0.832406	0.501176	0.77	-1.54	-1.89	-0.269	-0.2658	-0.2391	
0.246928	0.828014	0.497394	1.61	0.35	0.35	-0.279	-0.2701	-0.2421	
0.220576	0.840092	0.486658	0.7	1.96	2.03	-0.2748	-0.2656	-0.2406	
0.23973	0.835944	0.480436	1.68	3.92	2.8	-0.2751	-0.2564	-0.2437	
0.22875	0.842898	0.476898	3.29	4.48	2.8	-0.2779	-0.2609	-0.2375	
0.238632	0.839604	0.48373	3.5	4.97	3.5	-0.2788	-0.2731	-0.2497	
0.25681	0.833016	0.48922	3.22	5.74	4.62	-0.2749	-0.2641	-0.2314	
0.271084	0.831186	0.5002	4.27	8.96	6.65	-0.2736	-0.2565	-0.2422	
0.272182	0.829112	0.50264	4.48	12.88	8.54	-0.2761	-0.2671	-0.2467	
0.271206	0.825452	0.505202	5.11	16.03	10.01	-0.2747	-0.2687	-0.2391	
0.287188	0.803126	0.52643	6.23	19.53	11.62	-0.2734	-0.2626	-0.2437	
0.287554	0.779214	0.518256	6.37	22.82	16.87	-0.269	-0.2643	-0.2514	
0.312808	0.808128	0.524356	9.59	28.07	21.21	-0.2687	-0.2689	-0.2636	
0.31476	0.792756	0.523868	13.02	34.37	24.29	-0.2645	-0.2659	-0.2575	
0.334402	0.777994	0.540826	16.17	40.11	27.72	-0.2703	-0.2673	-0.2498	
0.361242	0.767502	0.540338	18.62	48.09	30.45	-0.2748	-0.261	-0.2559	
0.364414	0.776896	0.542168	23.59	56.63	31.15	-0.2606	-0.2554	-0.2545	
0.354166	0.77531	0.50691	28.35	65.38	31.5	-0.2575	-0.2585	-0.2637	
0.339648	0.782142	0.499834	28.56	70.7	33.04	-0.266	-0.2613	-0.2697	
0.364292	0.764818	0.503128	28.91	72.8	37.1	-0.2545	-0.2601	-0.2729	
0.411994	0.745786	0.485926	29.33	76.79	40.32	-0.2473	-0.2573	-0.2745	
0.433222	0.792146	0.442128	30.17	70.7	40.74	-0.2313	-0.2625	-0.2716	
0.379542	0.828746	0.39711	28.98	71.19	44.59	-0.2371	-0.2607	-0.2761	
0.326838	0.887672	0.376248	26.46	77.98	52.36	-0.2388	-0.2515	-0.2822	
0.3477	0.90097	0.394792	22.89	79.94	53.2	-0.2238	-0.2627	-0.2992	
0.374052	0.894504	0.39467	18.34	79.66	55.3	-0.221	-0.2597	-0.2992	
0.370758	0.88084	0.402112	13.86	85.33	59.08	-0.227	-0.2534	-0.3022	
0.32269	0.860344	0.386374	16.59	90.86	63.42	-0.2157	-0.2461	-0.2993	
0.285602	0.91927	0.335378	21.98	90.23	65.94	-0.2125	-0.2508	-0.3146	
0.267058	0.956846	0.338794	22.47	89.88	62.79	-0.2112	-0.2508	-0.3054	
0.265228	0.920612	0.359412	19.46	92.68	61.11	-0.1971	-0.2375	-0.3178	
0.28548	0.889502	0.393816	18.48	95.62	59.71	-0.1983	-0.2421	-0.3208	
0.27511	0.873154	0.389912	18.48	98.14	58.24	-0.1884	-0.2378	-0.3225	
0.258762	0.9028	0.387106	21.56	98.63	55.37	-0.1708	-0.2446	-0.3287	
0.23729	0.874374	0.399306	18.76	102.13	51.45	-0.1708	-0.2399	-0.3394	
0.236314	0.877058	0.430538	21.21	97.37	50.33	-0.145	-0.2362	-0.3382	
0.23302	0.867298	0.439444	18.41	94.22	48.93	-0.1567	-0.2281	-0.3518	
0.253394	0.87291	0.46116	20.51	88.13	47.67	-0.1334	-0.2351	-0.3459	
0.231312	0.906094	0.44957	20.51	86.87	45.15	-0.1275	-0.2368	-0.3491	
0.20923	0.843752	0.47458	19.25	84.56	43.96	-0.1117	-0.2328	-0.3553	
0.241682	0.850828	0.48678	20.09	82.04	42.7	-0.1118	-0.2328	-0.3462	
0.25498	0.832894	0.50386	22.82	80.15	40.67	-0.0932	-0.2273	-0.3555	
0.265228	0.813862	0.516914	24.71	82.46	40.81	-0.084	-0.2445	-0.351	
0.268522	0.81557	0.509106	27.37	85.61	42.98	-0.08679999	-0.2459	-0.3525	
0.264374	0.820694	0.508862	30.17	88.69	44.17	-0.0706	-0.2557	-0.3572	
0.245464	0.822646	0.496906	30.66	91.21	45.99	-0.0645	-0.262	-0.3679	
0.2318	0.809104	0.474214	33.88	90.58	47.25	-0.0573	-0.2638	-0.3543	
0.205936	0.856928	0.450912	36.54	86.1	47.11	-0.047	-0.2703	-0.3544	
0.172142	0.899506	0.454816	39.06	81.27	43.33	-0.047	-0.2719	-0.3543	
0.154818	0.914634	0.459208	36.68	80.36	36.54	-0.0369	-0.2707	-0.356	
0.133224	0.889502	0.456158	34.72	80.43	32.34	-0.0194	-0.279	-0.3409	
0.131516	0.896212	0.467016	30.1	75.18	29.4	-0.0123	-0.2762	-0.3394	
0.12261	0.868884	0.449448	24.5	66.64	29.47	-0.0133	-0.2853	-0.3516	
0.090036	0.86193	0.434808	25.97	61.18	31.5	-0.0079	-0.2794	-0.341	
0.110532	0.907802	0.440176	23.31	54.39	29.54	0.0056	-0.2967	-0.3426	
0.118828	0.930006	0.445422	16.24	45.71	24.08	-0.0001	-0.2981	-0.3318	
0.129564	0.874496	0.443226	11.97	42.28	20.58	0.0057	-0.3029	-0.3242	
0.12078	0.86803	0.43493	12.95	38.57	17.78	0.0058	-0.306	-0.3334	
0.106628	0.89853	0.443714	12.81	32.83	14.21	0.0172	-0.3018	-0.3335	
0.096624	0.898042	0.450058	10.08	30.94	11.27	0.0231	-0.3051	-0.3336	
0.101626	0.87108	0.45628	5.39	27.93	7.84	0.0187	-0.3018	-0.3305	
0.11407	0.85461	0.455914	3.64	19.25	7.21	0.0259	-0.3036	-0.3275	
0.1342	0.84973	0.470676	4.34	10.64	6.51	0.0213	-0.2943	-0.326	
0.15494	0.885964	0.463234	1.89	2.94	3.43	0.0257	-0.299	-0.3229	
0.178974	0.87596	0.46116	-1.89	-1.26	4.06	0.02	-0.2988	-0.3275	
0.193248	0.85156	0.463478	-2.66	-2.45	3.78	0.0186	-0.3034	-0.3198	
0.209596	0.858026	0.465918	-1.54	-3.64	1.82	0.0275	-0.3114	-0.3199	
0.210206	0.86315	0.461038	0.49	-3.64	0.14	0.0257	-0.3006	-0.3199	
0.224236	0.861076	0.460794	2.03	-1.82	-0.21	0.0231	-0.3082	-0.3168	
0.200446	0.868518	0.453596	0.91	0.63	-0.21	0.0243	-0.299	-0.3214	
0.199348	0.872056	0.448838	2.24	-0.35	1.33	0.0189	-0.308	-0.3381	
0.215208	0.878522	0.441152	0.42	-1.54	0.42	0.0257	-0.2975	-0.326	
0.20984	0.86925	0.435784	-1.68	-3.08	0.84	0.0288	-0.3053	-0.326	
0.21716	0.868762	0.452498	-3.57	-4.62	1.26	0.0203	-0.3096	-0.3229	
0.209474	0.875594	0.458354	-3.99	-5.18	1.33	0.0187	-0.3049	-0.3213	
0.22875	0.883036	0.451644	-4.06	-5.53	-0.21	0.0286	-0.296	-0.3337	
0.206668	0.885964	0.432612	-4.62	-5.18	-2.24	0.0262	-0.3129	-0.3244	
0.188246	0.887184	0.44896	-4.41	-7.35	-3.57	0.0184	-0.2926	-0.3351	
0.183976	0.88938	0.457256	-4.13	-8.4	-4.76	0.0072	-0.303	-0.3365	
0.19154	0.893284	0.43981	-4.41	-11.9	-6.72	0.017	-0.2941	-0.332	
0.188002	0.899994	0.41236	-4.62	-16.31	-9.45	0.0188	-0.3065	-0.3259	
0.165066	0.900726	0.429928	-5.88	-19.81	-13.02	0.0127	-0.294	-0.3335	
0.14457	0.905484	0.419558	-9.03	-22.26	-16.17	0.008599999	-0.303	-0.3273	
0.126392	0.91378	0.433954	-11.06	-28.28	-18.97	0.0243	-0.2959	-0.3321	
0.149084	0.88023	0.4453	-14.07	-35.07	-19.11	0.0068	-0.2922	-0.3273	
0.13664	0.87901	0.442128	-14.84	-34.16	-23.87	0.0115	-0.2985	-0.3457	
0.161528	0.881206	0.445544	-18.83	-41.72	-26.88	0.0084	-0.2969	-0.3335	
0.177022	0.909266	0.455914	-17.5	-43.47	-29.61	-0.0002	-0.295	-0.3318	
0.165432	0.9394	0.443226	-19.53	-44.24	-33.25	0.0068	-0.2891	-0.3426	
0.118828	0.930738	0.44347	-21.91	-46.69	-37.66	-0.0016	-0.295	-0.341	
0.139934	0.884256	0.44713	-21.91	-52.01	-39.9	-0.005	-0.2764	-0.3441	
0.133712	0.882914	0.410774	-21	-53.2	-42.56	-0.005	-0.2764	-0.3441	
0.157624	0.881084	0.413458	-21.7	-57.54	-43.12	-0.0017	-0.2888	-0.3532	
0.198982	0.86864	0.445056	-22.05	-60.97	-40.18	-0.0181	-0.2744	-0.3439	
0.184586	0.876204	0.462502	-23.66	-61.18	-37.73	-0.024	-0.2727	-0.3378	
0.162382	0.867664	0.477874	-26.04	-64.33	-35.49	-0.0268	-0.2726	-0.3423	
0.163968	0.829844	0.513986	-25.83	-64.26	-37.66	-0.0284	-0.2679	-0.3484	
0.211304	0.76372	0.539606	-21.7	-63.07	-38.36	-0.0385	-0.2645	-0.3636	
0.23363	0.779214	0.529846	-15.47	-60.55	-37.73	-0.0415	-0.2613	-0.359	
0.235948	0.81984	0.498004	-13.79	-56.77	-35.07	-0.0516	-0.2625	-0.3513	
0.22204	0.86071	0.471896	-13.65	-53.41	-28.84	-0.0578	-0.2516	-0.3451	
0.199348	0.868274	0.479216	-14.84	-52.15	-22.26	-0.0591	-0.2561	-0.3497	
0.24156	0.807396	0.522404	-15.96	-54.81	-18.27	-0.0752	-0.2463	-0.3587	
0.254126	0.800564	0.532774	-15.75	-52.92	-23.31	-0.0665	-0.2466	-0.3573	
0.246562	0.823012	0.518378	-13.58	-49.07	-27.16	-0.0809	-0.2461	-0.3617	
0.241316	0.82472	0.499834	-14.14	-45.85	-25.76	-0.0869	-0.2428	-0.3571	
0.238754	0.801174	0.503006	-16.94	-45.36	-19.81	-0.0872	-0.2352	-0.3525	
0.259494	0.775554	0.518134	-14.91	-47.46	-13.65	-0.0909	-0.2534	-0.354	
0.273524	0.789462	0.515572	-11.34	-46.41	-13.51	-0.1015	-0.2362	-0.3539	
0.258152	0.826306	0.512644	-7.42	-43.54	-14.42	-0.1055	-0.2483	-0.3462	
0.208986	0.841922	0.487756	-7.35	-41.16	-12.74	-0.1088	-0.2375	-0.3462	
0.25315	0.809836	0.510448	-12.88	-42.49	-7.35	-0.1172	-0.2402	-0.3598	
0.332572	0.75945	0.527894	-15.68	-40.11	-3.85	-0.1178	-0.2249	-0.3538	
0.292922	0.796172	0.53985	-14.07	-32.62	-4.27	-0.1231	-0.2416	-0.346	
0.257542	0.814472	0.539972	-9.52	-25.41	-2.59	-0.1379	-0.2288	-0.3444	
0.305976	0.820328	0.549244	-7.63	-23.73	-0.42	-0.1293	-0.2276	-0.3445	
0.36173	0.810324	0.540338	-10.01	-22.54	1.96	-0.1378	-0.2334	-0.3459	
0.339404	0.7991	0.559126	-10.71	-10.57	5.11	-0.1333	-0.2351	-0.3536	
0.363316	0.785558	0.57096	-8.61	-2.1	5.32	-0.1394	-0.2288	-0.3428	
0.365146	0.765794	0.564982	-7.63	3.92	4.55	-0.1367	-0.2196	-0.3505	
0.345504	0.736026	0.562176	-6.58	8.54	5.39	-0.1438	-0.2255	-0.3443	
0.33306	0.744566	0.555222	-0.63	10.85	5.18	-0.1381	-0.2211	-0.352	
0.311344	0.745786	0.560712	2.59	12.67	2.66	-0.1406	-0.2333	-0.3581	
0.305244	0.783728	0.553514	6.86	13.65	-0.14	-0.1381	-0.2211	-0.3581	
0.267302	0.814716	0.542412	9.45	16.24	-1.96	-0.1382	-0.218	-0.3566	
0.241926	0.792268	0.52887	8.4	16.17	-1.4	-0.1278	-0.2307	-0.343	
0.246196	0.788852	0.525332	7.7	10.78	0.42	-0.1408	-0.2287	-0.3428	
0.234972	0.806786	0.518134	5.25	6.93	0.77	-0.1234	-0.2293	-0.3567	
0.230336	0.814838	0.517036	5.11	5.39	1.68	-0.1281	-0.2199	-0.3491	
0.233264	0.820328	0.517158	3.85	3.36	1.82	-0.1219	-0.2293	-0.3583	
0.248148	0.810568	0.52826	1.12	0.77	2.38	-0.1274	-0.2383	-0.3582	
0.257176	0.804712	0.532774	0.14	-0.07	1.75	-0.1221	-0.2263	-0.3537	
0.249612	0.81862	0.532896	1.05	0.7	0.56	-0.1321	-0.2275	-0.3582	
0.243634	0.812276	0.535092	3.36	2.52	-2.03	-0.1307	-0.2229	-0.3643	
0.246806	0.81313	0.535824	4.62	2.24	-3.5	-0.138	-0.2242	-0.3566	
0.242658	0.811666	0.525698	5.81	2.73	-4.13	-0.1247	-0.2354	-0.3491	
0.241682	0.814716	0.512888	8.05	3.57	-4.55	-0.1262	-0.2323	-0.3491	
0.234118	0.81557	0.505446	8.54	4.06	-4.55	-0.1218	-0.237	-0.3476	
0.225578	0.823134	0.49898	8.61	4.06	-4.27	-0.1247	-0.2369	-0.346	
0.210938	0.843142	0.496662	8.05	4.2	-3.99	-0.1303	-0.2383	-0.3536	
0.202886	0.842044	0.499834	7.35	3.57	-3.43	-0.1262	-0.2354	-0.343	
0.213866	0.849608	0.499468	6.65	1.75	-3.08	-0.126	-0.24	-0.346	
0.224236	0.848754	0.49593	4.69	0.98	-2.8	-0.1218	-0.2371	-0.343	
0.226554	0.846314	0.493734	3.43	1.61	-2.45	-0.1189	-0.2371	-0.3446	
0.223138	0.85156	0.498858	3.64	2.31	-2.52	-0.1217	-0.2401	-0.346	
0.223382	0.842166	0.497638	2.73	3.64	-3.5	-0.1244	-0.2446	-0.346	
0.236802	0.840946	0.491782	3.64	2.87	-4.34	-0.1229	-0.2462	-0.346	
0.23668	0.850828	0.48739	4.2	3.36	-5.25	-0.111	-0.2558	-0.3492	
0.224236	0.854	0.484706	4.62	4.34	-5.53	-0.1111	-0.2527	-0.3492	
0.214964	0.845216	0.478728	4.06	3.64	-4.83	-0.1218	-0.2386	-0.343	
0.217648	0.840946	0.48068	3.01	2.17	-4.27	-0.1114	-0.2466	-0.3461	
0.215452	0.842654	0.483486	2.24	2.45	-4.34	-0.1185	-0.2479	-0.3445	
0.206424	0.847534	0.481534	1.96	3.43	-4.76	-0.1142	-0.2465	-0.3568	
0.200446	0.852658	0.480558	1.47	2.8	-4.41	-0.1126	-0.2542	-0.34	
0.198738	0.851316	0.47885	0.49	1.05	-2.94	-0.1071	-0.2452	-0.3492	
0.208498	0.849364	0.479948	-0.28	-1.05	-0.98	-0.1144	-0.2419	-0.3507	
0.212036	0.84424	0.487756	-0.49	-2.1	0.14	-0.1155	-0.2541	-0.343	
0.206546	0.84302	0.484706	-0.49	-1.82	-0.28	-0.1054	-0.2545	-0.3355	
0.205448	0.855342	0.481046	0.21	-2.31	-0.91	-0.1198	-0.2555	-0.3384	
0.202642	0.863516	0.48617	-0.49	-2.52	-1.05	-0.1145	-0.2404	-0.3431	
0.193004	0.854366	0.489342	-1.61	-1.82	-0.84	-0.1112	-0.2481	-0.3538	
0.198494	0.84851	0.49715	-1.68	-2.59	-0.98	-0.1155	-0.2526	-0.343	
0.198616	0.851438	0.496784	-2.03	-2.31	-1.96	-0.1141	-0.2527	-0.3415	
0.194834	0.84851	0.499712	-1.47	-1.89	-2.24	-0.1144	-0.2434	-0.3446	
0.19032	0.84363	0.500078	-1.61	-1.33	-1.4	-0.1096	-0.2559	-0.3431	
0.19459	0.836798	0.50325	-1.47	-2.1	-0.98	-0.1157	-0.2465	-0.3415	
0.19947	0.840092	0.507154	-0.77	-1.4	-1.05	-0.1068	-0.2529	-0.3446	
0.20252	0.837164	0.505202	0.28	0.14	-1.4	-0.1188	-0.2418	-0.3415	
0.200934	0.837286	0.50142	0.84	0.49	-1.89	-0.1101	-0.2421	-0.3477	
0.203496	0.836432	0.501298	0.91	0.35	-1.68	-0.1168	-0.2587	-0.343	
0.205936	0.828746	0.499468	1.4	0.35	-1.19	-0.1053	-0.2545	-0.3462	
0.205814	0.83936	0.49654	1.82	0.56	-1.26	-0.1025	-0.2531	-0.3432	
0.199104	0.840946	0.493856	1.89	1.05	-1.05	-0.1097	-0.2559	-0.3354	
0.20008	0.83875	0.49227	1.89	0.56	-0.56	-0.1072	-0.2453	-0.3309	
0.201788	0.840336	0.492026	1.05	-0.28	0	-0.1097	-0.2543	-0.3431	
0.20496	0.839604	0.492758	0.91	-0.84	0.35	-0.1126	-0.2527	-0.3461	
0.204228	0.846436	0.489586	0.84	-0.49	0.35	-0.114	-0.2542	-0.3415	
0.200446	0.852658	0.486658	0.63	-0.42	0.91	-0.1129	-0.2435	-0.3522	
0.205082	0.849608	0.487024	-0.28	-0.77	1.75	-0.1097	-0.2543	-0.3446	
0.211914	0.84302	0.492392	-0.84	-1.33	2.24	-0.1143	-0.2465	-0.3415	
0.213988	0.850218	0.487268	0	-0.63	1.33	-0.1112	-0.2527	-0.3461	
0.212646	0.848632	0.488854	0.84	-0.07	1.05	-0.1097	-0.2528	-0.3477	
0.214476	0.85278	0.482632	0.63	0.21	0.63	-0.1186	-0.2479	-0.343	
0.216916	0.85583	0.479582	-0.07	-0.28	0.14	-0.1141	-0.2496	-0.3553	
0.207156	0.85217	0.47885	0	0.56	0.28	-0.1037	-0.2591	-0.3462	
0.20801	0.856074	0.489708	0.84	0.42	0.42	-0.1168	-0.2556	-0.3537	
0.2074	0.854854	0.484096	0.07	0.49	0.14	-0.1113	-0.2497	-0.34	
0.211426	0.848388	0.484218	-0.56	-0.84	0.21	-0.1108	-0.2635	-0.3476	
0.220454	0.843752	0.484584	-0.77	-0.84	0.35	-0.1157	-0.248	-0.343	
0.216062	0.848144	0.486292	0	-0.21	0.14	-0.1153	-0.2572	-0.3507	
0.209474	0.844728	0.487024	0.21	0	-0.07	-0.1226	-0.2554	-0.3521	
0.211914	0.847534	0.488122	0.07	-0.56	-0.21	-0.1154	-0.2557	-0.3415	
0.216306	0.84302	0.490074	-0.35	-0.77	0	-0.1167	-0.2571	-0.3506	
0.216306	0.843142	0.490318	-0.28	-0.35	-0.28	-0.1141	-0.2527	-0.3446	
0.212524	0.847534	0.48983	-0.35	-0.07	-0.7	-0.1096	-0.2543	-0.3477	
0.214354	0.850706	0.489342	-0.84	0.07	-0.35	-0.1139	-0.2557	-0.3507	
0.21106	0.849974	0.488732	-1.33	0.21	0.21	-0.1113	-0.2481	-0.3446	
0.21289	0.84363	0.49044	-1.33	0.14	0.42	-0.1126	-0.2558	-0.34	
0.214964	0.844606	0.492758	-1.05	0.35	0	-0.1128	-0.2481	-0.3431	
0.21533	0.845094	0.485682	-0.84	0.91	0	-0.111	-0.2574	-0.3415	
0.210572	0.844972	0.490074	-0.77	1.19	0.28	-0.1166	-0.2633	-0.343	
0.206058	0.844972	0.492026	-0.49	1.26	0.35	-0.1126	-0.2496	-0.3522	
0.21106	0.839238	0.487756	-0.77	0.84	0.49	-0.1141	-0.2496	-0.3461	
0.215086	0.848998	0.489708	-0.42	0.21	0.14	-0.1053	-0.256	-0.3477	
0.206912	0.84973	0.487268	-0.49	0.98	-0.07	-0.1097	-0.2528	-0.3477	
0.202764	0.850584	0.48922	-0.35	0.63	-0.42	-0.1111	-0.2543	-0.3492	
0.203984	0.848022	0.491782	-0.77	-0.07	-0.63	-0.1213	-0.2539	-0.3399	
0.205936	0.848632	0.494832	-0.98	-0.56	-0.77	-0.1011	-0.25	-0.3478	
0.204106	0.845216	0.491538	-1.12	-0.21	-1.05	-0.1126	-0.2527	-0.3446	
0.202276	0.846436	0.492636	-0.98	-0.42	-1.12	-0.1126	-0.2542	-0.3446	
0.20313	0.842898	0.492392	-1.33	-0.49	-0.77	-0.1055	-0.2499	-0.3447	
0.209962	0.84424	0.493368	-1.26	-1.12	-0.21	-0.1069	-0.2529	-0.3385	
0.20923	0.841922	0.49593	-1.47	-0.91	-0.14	-0.1084	-0.2498	-0.3477	
0.207278	0.844972	0.49349	-1.19	-0.14	-0.28	-0.1101	-0.2421	-0.3446	
0.20618	0.845216	0.498614	-0.98	0	-0.28	-0.1087	-0.2437	-0.337	
0.205082	0.845704	0.4941	-0.98	0.42	-0.28	-0.1142	-0.248	-0.3446	
0.202276	0.845948	0.493612	-1.05	0.07	-0.56	-0.1127	-0.2481	-0.3492	
0.207034	0.842654	0.494222	-1.26	-0.07	-0.49	-0.1169	-0.2556	-0.3338	
0.205448	0.841556	0.493978	-1.33	-0.07	-0.35	-0.117	-0.2495	-0.3476	
0.201788	0.846436	0.494466	-1.26	-0.49	-0.42	-0.1098	-0.2497	-0.3477	
0.206424	0.840946	0.495808	-1.54	-0.63	-0.28	-0.1131	-0.2373	-0.3461	
0.208864	0.835822	0.498004	-1.82	-0.91	-0.28	-0.1187	-0.2417	-0.3537	
0.207156	0.840824	0.50142	-1.47	-1.19	-0.35	-0.1079	-0.2651	-0.3415	
0.204716	0.843508	0.496906	-1.33	-0.49	-0.35	-0.1126	-0.2527	-0.3492	
0.210206	0.841678	0.496662	-1.12	-1.12	-0.56	-0.1114	-0.2451	-0.3477	
0.209596	0.842166	0.49227	-2.17	-0.91	-0.14	-0.1113	-0.2481	-0.3477	
0.20191	0.849364	0.502762	-1.33	-0.63	0.21	-0.1096	-0.2559	-0.3507	
0.200568	0.84058	0.50142	-1.82	-0.07	-0.49	-0.1143	-0.2434	-0.3522	
0.209962	0.8418	0.501542	-2.03	-1.82	-0.77	-0.111	-0.2558	-0.3492	
0.213012	0.835822	0.5002	-2.31	-1.33	-0.42	-0.1069	-0.2498	-0.3462	
0.209474	0.833016	0.500688	-1.61	-0.56	-0.35	-0.0995	-0.2531	-0.3523	
0.206424	0.83448	0.500322	-1.26	-0.49	-0.14	-0.1069	-0.2483	-0.3553	
0.208132	0.839604	0.499956	-1.19	-0.84	-0.14	-0.1102	-0.239	-0.3416	
0.211304	0.840458	0.503128	-1.26	-0.56	0.21	-0.1172	-0.2464	-0.3384	
0.208254	0.840702	0.503128	-1.19	0	0.07	-0.1083	-0.2498	-0.3523	
0.207156	0.840092	0.502396	-1.47	-0.07	-0.28	-0.1113	-0.2481	-0.3461	
0.206302	0.83936	0.501054	-1.4	-0.07	-0.28	-0.107	-0.2498	-0.3431	
0.210816	0.835212	0.505812	-1.19	-0.07	-0.07	-0.1086	-0.2421	-0.3523	
0.206302	0.836798	0.505446	-1.4	0.21	-0.28	-0.1201	-0.2432	-0.3476	
0.200324	0.833626	0.507032	-1.19	0.07	-0.21	-0.1143	-0.2465	-0.3431	
0.205204	0.829234	0.503494	-1.05	-0.28	0.07	-0.1067	-0.256	-0.3507	
0.214842	0.830698	0.507154	-0.84	-0.91	0.42	-0.1084	-0.2498	-0.3416	
0.20313	0.837286	0.505568	-0.35	0.56	0.35	-0.1201	-0.2432	-0.3506	
0.20496	0.838018	0.503006	-0.21	0.42	0.7	-0.1143	-0.2434	-0.3492	
0.207766	0.840824	0.501054	-0.63	-0.14	0.98	-0.1131	-0.2389	-0.3461	
0.205448	0.83875	0.499712	-0.91	-0.07	1.12	-0.1141	-0.2496	-0.3492	
0.206058	0.837286	0.502274	-0.28	-0.07	1.19	-0.1155	-0.2526	-0.3461	
0.20557	0.840458	0.50203	-0.42	0.14	0.7	-0.1129	-0.2419	-0.3522	
0.208132	0.83997	0.503982	-0.42	-0.07	0.77	-0.1113	-0.2482	-0.3431	
0.20557	0.840336	0.500932	-0.42	0.14	0.7	-0.1085	-0.2467	-0.3446	
0.20496	0.840214	0.500566	-0.56	-0.07	0.42	-0.1185	-0.2479	-0.3476	