Sensor string: B
Serial number: 1970-01-0000
Firmware version: 2,015
Hardware version: 2,2
Calibration quality: 5
ax	ay	az	gx	gy	gz	mx	my	mz

0.222894	-0.792146	0.54656	-2.38	0	1.54	-0.2326	0.197	-0.4995	Reference
0.220698	-0.799588	0.546804	-2.1	-0.28	0.91	-0.2184	0.2017	-0.4899	
0.22204	-0.803004	0.546072	-1.4	-0.14	0.7	-0.2352	0.2001	-0.4871	
0.223382	-0.7991	0.549244	-1.47	0.21	0.56	-0.2379	0.2033	-0.4825	
0.22265	-0.796782	0.545706	-1.75	0.42	0.49	-0.2325	0.1986	-0.4917	
0.222894	-0.799588	0.547414	-1.82	0.42	0.63	-0.2325	0.2017	-0.4917	
0.222406	-0.798368	0.544364	-1.47	0.56	0.63	-0.2365	0.2002	-0.4794	
0.218624	-0.79788	0.544486	-1.33	0.49	0.84	-0.231	0.2095	-0.4901	
0.217038	-0.798124	0.54534	-1.4	0.42	0.63	-0.2324	0.2048	-0.4855	
0.219844	-0.80337	0.544608	-1.26	0.28	0.56	-0.2311	0.2032	-0.4948	
0.218502	-0.800564	0.546072	-1.12	0.14	0.49	-0.2295	0.2049	-0.4839	
0.219356	-0.801296	0.546804	-1.12	0.28	0.7	-0.2323	0.2157	-0.4854	
0.219112	-0.79605	0.548878	-0.91	0.49	0.91	-0.224	0.2033	-0.4884	
0.222528	-0.797026	0.548268	-1.4	0.42	0.98	-0.2324	0.2079	-0.4901	
0.217404	-0.802394	0.547048	-1.47	0.7	1.33	-0.2254	0.2033	-0.4869	
0.213988	-0.798246	0.545096	-1.19	0.84	1.12	-0.2337	0.2002	-0.4793	
0.216062	-0.799466	0.547292	-1.54	0.84	0.98	-0.2324	0.1986	-0.4871	
0.216672	-0.79727	0.54656	-1.19	0.56	0.77	-0.241	0.2109	-0.4949	
0.214354	-0.799588	0.548024	-1.61	0.35	1.26	-0.2297	0.2048	-0.4916	
0.21777	-0.80154	0.548146	-1.68	0.28	1.47	-0.2282	0.211	-0.4916	
0.218746	-0.798368	0.548146	-1.75	0.42	1.61	-0.2295	0.2173	-0.4838	
0.216916	-0.798002	0.546438	-2.1	0.63	1.75	-0.2254	0.2033	-0.4885	
0.216428	-0.80032	0.540826	-2.03	0.63	1.61	-0.2267	0.2235	-0.4868	
0.209962	-0.800198	0.540826	-1.75	0.35	1.47	-0.224	0.2017	-0.49	
0.20984	-0.797758	0.538508	-1.47	0.14	1.26	-0.2266	0.2173	-0.4775	
0.210084	-0.800198	0.540216	-1.4	-0.14	1.05	-0.2323	0.208	-0.4824	
0.207522	-0.7991	0.54107	-1.33	-0.42	0.63	-0.2296	0.2033	-0.4885	
0.212036	-0.801174	0.540094	-1.26	-0.84	0.7	-0.2211	0.2126	-0.4883	
0.212646	-0.807762	0.542534	-0.84	-0.91	0.84	-0.2225	0.2126	-0.4852	
0.209718	-0.805444	0.541436	-0.28	-0.77	0.63	-0.2381	0.2079	-0.4933	
0.212158	-0.807884	0.542168	-0.35	-0.63	0.56	-0.2224	0.2142	-0.479	
0.211792	-0.807274	0.542412	-0.28	-0.49	0.35	-0.2212	0.2095	-0.4883	
0.213012	-0.802394	0.542412	-0.07	-0.49	0.42	-0.231	0.2126	-0.4916	
0.21106	-0.802882	0.542778	-0.21	-0.28	0.56	-0.2268	0.2095	-0.4884	
0.210328	-0.803004	0.54046	-0.21	-0.21	0.63	-0.2324	0.2126	-0.487	
0.211182	-0.803248	0.540948	-0.49	-0.14	0.49	-0.2212	0.2172	-0.4929	
0.210816	-0.804102	0.54168	-0.56	-0.07	0.35	-0.2281	0.208	-0.4854	
0.207888	-0.804224	0.539606	-0.49	-0.21	0.21	-0.2281	0.2095	-0.4823	
0.2074	-0.804102	0.53985	-0.56	-0.49	0.28	-0.2253	0.208	-0.4838	
0.207888	-0.807762	0.53985	-0.63	-0.49	0.35	-0.2225	0.2142	-0.4837	
0.208498	-0.805444	0.53924	-0.42	-0.7	0.21	-0.2252	0.2189	-0.4806	
0.213866	-0.805566	0.539606	-0.77	-0.91	0.35	-0.2295	0.2204	-0.4853	
0.210938	-0.805322	0.540948	-0.63	-0.77	0.49	-0.2308	0.2111	-0.4792	
0.213256	-0.804834	0.53375	-0.7	-0.77	0.21	-0.2239	0.2111	-0.4868	
0.212524	-0.804346	0.528016	-0.56	-0.77	0	-0.2309	0.2126	-0.4807	
0.21045	-0.816668	0.528748	-0.63	-1.12	-0.35	-0.2282	0.2033	-0.4885	
0.207034	-0.82411	0.53375	0.21	-0.91	-0.49	-0.2295	0.2219	-0.4853	
0.206424	-0.823256	0.53192	0.56	-0.84	-0.42	-0.2252	0.2096	-0.4807	
0.206302	-0.81679	0.528748	0.84	-0.63	-0.07	-0.2366	0.2095	-0.4855	
0.208376	-0.81252	0.52704	1.19	-0.42	-0.07	-0.2338	0.2064	-0.4855	
0.204472	-0.81313	0.52155	1.19	-0.42	-0.49	-0.2309	0.2111	-0.4839	
0.205448	-0.831308	0.520696	1.12	-0.63	-0.84	-0.2394	0.2063	-0.4872	
0.205448	-0.83631	0.52033	2.8	-0.35	-1.4	-0.231	0.2079	-0.4885	
0.205692	-0.828502	0.51972	3.92	-0.07	-1.96	-0.2323	0.2049	-0.4793	
0.202642	-0.825086	0.515328	4.55	0.14	-1.89	-0.2226	0.208	-0.4884	
0.20252	-0.827404	0.514474	5.11	0	-1.75	-0.2281	0.2064	-0.4823	
0.20618	-0.830332	0.514108	5.88	-0.14	-1.61	-0.2339	0.2063	-0.4932	
0.202642	-0.839604	0.515206	6.65	0.28	-2.24	-0.2394	0.2048	-0.4872	
0.19398	-0.845094	0.510814	7.63	0.28	-2.94	-0.2323	0.2064	-0.4808	
0.19032	-0.849974	0.505446	9.24	0.42	-3.01	-0.2325	0.2032	-0.4917	
0.188612	-0.8479	0.500322	11.13	0.21	-3.57	-0.2324	0.2064	-0.487	
0.192638	-0.841922	0.499956	13.16	0	-4.2	-0.2366	0.2063	-0.4886	
0.190686	-0.843752	0.499224	15.82	-0.42	-6.23	-0.2324	0.1939	-0.4871	
0.192516	-0.844362	0.500932	16.87	0.07	-6.51	-0.2268	0.2017	-0.49	
0.19276	-0.852902	0.499956	19.18	-0.77	-7.21	-0.2226	0.194	-0.4854	
0.185074	-0.850706	0.498858	22.05	-0.14	-7.7	-0.2226	0.194	-0.4854	
0.185806	-0.847046	0.493612	24.99	0.14	-9.45	-0.227	0.1892	-0.4963	
0.18056	-0.844728	0.497516	27.58	-0.42	-10.08	-0.2354	0.1954	-0.4965	
0.183732	-0.831186	0.50691	31.5	-0.77	-11.34	-0.2411	0.1814	-0.4967	
0.188002	-0.813862	0.519964	35.63	-1.89	-14.21	-0.2384	0.1783	-0.5013	
0.186294	-0.80459	0.523014	38.78	-3.01	-17.64	-0.2441	0.172	-0.5045	
0.180316	-0.813862	0.520452	41.16	-3.85	-18.9	-0.24	0.1673	-0.5123	
0.188246	-0.793732	0.534482	46.13	-4.97	-19.67	-0.2414	0.1673	-0.5092	
0.208132	-0.726022	0.583648	50.26	-5.11	-19.32	-0.2443	0.1363	-0.5079	
0.22387	-0.716994	0.592676	50.61	-8.47	-19.74	-0.2486	0.1316	-0.5111	
0.242292	-0.720654	0.59475	52.36	-8.05	-18.62	-0.2402	0.1223	-0.5126	
0.23546	-0.709186	0.596702	54.74	-8.12	-19.32	-0.2402	0.1238	-0.5126	
0.230824	-0.685274	0.598166	59.5	-6.79	-20.44	-0.2543	0.1098	-0.5145	
0.226432	-0.63989	0.61183	62.51	-6.79	-22.47	-0.2473	0.099	-0.5129	
0.246074	-0.612806	0.641476	63.49	-7.91	-23.1	-0.2489	0.0865	-0.5208	
0.28365	-0.593896	0.681492	64.82	-9.38	-23.59	-0.2475	0.0741	-0.5193	
0.301462	-0.562176	0.694058	64.96	-10.64	-24.64	-0.2601	0.0678	-0.5149	
0.313906	-0.54595	0.69235	64.68	-10.01	-25.9	-0.2616	0.0492	-0.5151	
0.310246	-0.52399	0.686006	66.64	-9.38	-28.49	-0.2603	0.0414	-0.5213	
0.289018	-0.488732	0.690764	69.44	-9.17	-31.71	-0.2631	0.0336	-0.5214	
0.293776	-0.442616	0.707112	70.07	-10.92	-30.38	-0.2646	0.0165	-0.52	
0.314516	-0.40565	0.740296	69.23	-10.85	-29.68	-0.259	0.0103	-0.5231	
0.337208	-0.387838	0.756888	68.39	-13.23	-27.79	-0.2731	-0.0052	-0.5188	
0.362584	-0.37942	0.764452	68.81	-13.93	-26.18	-0.2674	-0.0222	-0.5142	
0.36234	-0.347822	0.772016	70.14	-12.32	-28.42	-0.269	-0.0285	-0.5235	
0.372222	-0.28548	0.795928	70.56	-12.88	-31.36	-0.273	-0.047	-0.5082	
0.392474	-0.221308	0.805688	68.6	-13.44	-32.62	-0.269	-0.0579	-0.516	
0.41602	-0.196908	0.808616	64.68	-12.95	-31.08	-0.2814	-0.0687	-0.4977	
0.42212	-0.211304	0.817522	61.74	-12.25	-28.84	-0.2731	-0.0781	-0.5054	
0.426268	-0.202154	0.83814	61.46	-11.27	-27.65	-0.2732	-0.08899999	-0.507	
0.44469	-0.158966	0.855464	62.51	-9.24	-28.14	-0.2843	-0.1107	-0.4981	
0.457988	-0.108458	0.854976	62.58	-7.07	-29.26	-0.2786	-0.106	-0.4933	
0.449082	-0.073322	0.856806	62.02	-5.25	-29.26	-0.2715	-0.1199	-0.487	
0.435906	-0.050142	0.859734	60.83	-4.06	-28.14	-0.2702	-0.1385	-0.4887	
0.436516	-0.004392	0.869006	58.8	-3.78	-28.21	-0.2717	-0.1494	-0.4888	
0.459574	0.028548	0.873764	57.54	-4.55	-22.19	-0.2771	-0.1478	-0.4811	
0.45811	0.024278	0.885964	55.79	-5.04	-23.24	-0.2661	-0.1695	-0.4857	
0.461282	0.049776	0.899872	54.67	-3.15	-24.29	-0.2672	-0.1788	-0.4719	
0.459818	0.08174	0.91256	52.92	-1.19	-22.4	-0.2756	-0.1803	-0.4674	
0.457988	0.114314	0.917684	50.05	-2.1	-21.91	-0.2575	-0.1819	-0.4779	
0.461404	0.130418	0.919392	46.62	-2.31	-19.81	-0.2689	-0.1913	-0.4844	
0.471652	0.13664	0.925492	43.33	-1.05	-17.57	-0.2714	-0.1974	-0.4643	
0.480802	0.162748	0.94123	40.25	-1.33	-17.29	-0.2699	-0.2066	-0.4582	
0.480314	0.173362	0.947086	35.63	-0.91	-16.38	-0.2588	-0.2237	-0.4627	
0.481046	0.166652	0.948794	30.8	-0.63	-15.26	-0.2629	-0.2299	-0.4567	
0.48068	0.172508	0.953796	27.51	-1.33	-14.49	-0.2686	-0.2299	-0.4568	
0.477142	0.184586	0.959408	23.73	-1.33	-12.81	-0.2573	-0.2423	-0.4551	
0.47153	0.199592	0.949404	20.79	-1.54	-11.97	-0.2657	-0.2392	-0.4521	
0.46909	0.212524	0.950258	17.78	-2.31	-9.87	-0.2628	-0.2376	-0.4443	
0.467626	0.20496	0.948306	13.37	-1.96	-7.63	-0.2628	-0.2438	-0.4459	
0.477264	0.217526	0.94672	10.29	-3.22	-5.39	-0.2599	-0.2391	-0.4396	
0.482876	0.23485	0.946842	6.86	-3.01	-3.08	-0.2586	-0.2469	-0.4443	
0.480558	0.238022	0.945866	3.15	-1.89	-1.89	-0.2585	-0.25	-0.4412	
0.482266	0.234728	0.946964	-0.42	-2.73	-1.05	-0.2556	-0.2421	-0.4364	
0.487268	0.23546	0.957456	-3.15	-1.75	0.7	-0.2528	-0.2515	-0.438	
0.49959	0.256688	0.958432	-6.3	-1.96	2.03	-0.2616	-0.247	-0.4552	
0.511302	0.26291	0.959774	-10.5	-1.12	4.55	-0.2586	-0.2453	-0.4443	
0.509228	0.261812	0.95892	-14.21	0.84	6.09	-0.2502	-0.2453	-0.4457	
0.498004	0.25681	0.95099	-18.48	0.77	7.49	-0.2641	-0.2375	-0.4397	
0.5002	0.237656	0.950014	-24.5	1.68	9.66	-0.2585	-0.2469	-0.4427	
0.504836	0.229482	0.95526	-28.28	0.91	11.41	-0.2615	-0.233	-0.4566	
0.50386	0.22692	0.958432	-31.64	0.91	13.51	-0.2614	-0.2174	-0.4503	
0.49837	0.219844	0.950624	-36.4	0.91	15.61	-0.2669	-0.2252	-0.4443	
0.498492	0.203618	0.9455	-40.18	2.38	17.57	-0.2658	-0.2144	-0.4597	
0.501054	0.178364	0.944402	-44.66	2.45	19.6	-0.2687	-0.2083	-0.469	
0.485926	0.15921	0.936228	-47.18	3.71	22.33	-0.2714	-0.1989	-0.4628	
0.480436	0.150304	0.93208	-50.96	3.57	23.31	-0.2701	-0.1943	-0.472	
0.474214	0.136274	0.924272	-55.65	3.99	24.57	-0.2687	-0.1912	-0.4735	
0.477142	0.108336	0.917318	-59.99	2.8	26.25	-0.2744	-0.1835	-0.4782	
0.469578	0.079178	0.906826	-63.63	2.94	28.42	-0.2744	-0.1711	-0.4813	
0.460428	0.055632	0.90097	-67.27	2.73	30.24	-0.2787	-0.1649	-0.4844	
0.448228	0.029402	0.882548	-71.19	2.8	31.43	-0.2772	-0.1463	-0.4827	
0.448594	-0.00549	0.866932	-73.92	3.92	33.04	-0.2802	-0.1355	-0.4966	
0.44469	-0.02684	0.85705	-76.16	3.36	33.95	-0.2814	-0.1215	-0.4903	
0.428586	-0.056852	0.835456	-79.03	4.34	34.58	-0.283	-0.1107	-0.4996	
0.41602	-0.102968	0.826428	-81.13	5.25	35.98	-0.2885	-0.0874	-0.4995	
0.411872	-0.133712	0.816668	-83.09	4.27	37.8	-0.2719	-0.0719	-0.5162	
0.400404	-0.151768	0.80032	-85.12	5.04	39.34	-0.2788	-0.0673	-0.5132	
0.392596	-0.17934	0.785802	-87.64	5.53	40.46	-0.2815	-0.0548	-0.5054	
0.383812	-0.209962	0.771284	-90.02	5.6	41.37	-0.2814	-0.0408	-0.5037	
0.370026	-0.25376	0.74237	-92.75	5.04	43.05	-0.2759	-0.0052	-0.5189	
0.34892	-0.296826	0.711992	-93.94	5.53	43.33	-0.2746	-0.0036	-0.5235	
0.340258	-0.321836	0.697108	-94.92	5.46	43.54	-0.2744	0.0103	-0.5172	
0.33733	-0.340624	0.688568	-96.88	4.76	44.52	-0.2827	0.0289	-0.5125	
0.330498	-0.375516	0.665388	-98.35	4.13	45.71	-0.2839	0.0522	-0.5077	
0.32086	-0.429196	0.631716	-99.26	3.92	48.09	-0.2783	0.0647	-0.5075	
0.305244	-0.472262	0.607682	-100.38	4.55	48.3	-0.2627	0.09429999	-0.507	
0.28426	-0.504104	0.578158	-102.2	4.06	48.23	-0.2697	0.102	-0.5071	
0.266204	-0.5368	0.552294	-103.95	3.15	47.6	-0.2681	0.1161	-0.4992	
0.240706	-0.573644	0.50508	-104.3	2.45	47.81	-0.275	0.144	-0.5007	
0.203008	-0.602436	0.435174	-105.21	3.36	47.46	-0.2692	0.1596	-0.4896	
0.174338	-0.678198	0.425902	-109.76	5.6	48.65	-0.2551	0.1736	-0.4923	
0.156404	-0.741882	0.398818	-111.02	5.04	50.05	-0.2421	0.1909	-0.4765	
0.148474	-0.794098	0.36234	-108.15	5.04	48.86	-0.2532	0.2173	-0.4718	
0.135786	-0.806298	0.32269	-105.91	4.9	49.21	-0.2503	0.2235	-0.4717	
0.100284	-0.80337	0.249368	-104.02	6.37	47.39	-0.2429	0.2501	-0.4528	
0.068808	-0.857172	0.21716	-105.35	5.25	45.92	-0.2357	0.2626	-0.4495	
0.056608	-0.926834	0.204106	-100.8	6.37	44.52	-0.2327	0.2797	-0.44	
0.051484	-0.96319	0.157502	-95.06	6.37	39.62	-0.2354	0.2921	-0.4384	
0.035136	-0.998692	0.138104	-93.8	6.3	35.91	-0.2252	0.3063	-0.4195	
0.02318	-1.04249	0.110654	-89.6	6.93	34.72	-0.2236	0.3204	-0.41	
0.023546	-1.047736	0.08235	-83.3	6.79	31.71	-0.2081	0.336	-0.4096	
0.025498	-1.047858	0.072468	-77.63	4.69	28.63	-0.2077	0.347	-0.3909	
0.017568	-1.055666	0.044042	-72.73	3.43	27.44	-0.2021	0.3423	-0.3893	
0.01464	-1.060424	0.036966	-67.2	0.91	26.04	-0.2061	0.3641	-0.3846	
0.013054	-1.063352	0.04941	-61.11	0.07	27.16	-0.2017	0.3658	-0.3721	
0.007198	-1.043344	0.033794	-57.12	-3.22	24.57	-0.179	0.3737	-0.3654	
0.000732	-1.062132	0.037942	-56.35	-6.51	22.54	-0.1971	0.3768	-0.3533	
-0.00305	-1.084946	0.022326	-54.32	-11.13	20.65	-0.1871	0.3769	-0.3438	
0.003416	-1.085068	-0.000732	-49.63	-14.42	19.39	-0.1841	0.4033	-0.3404	
0.014274	-1.072502	-0.021594	-45.78	-16.52	20.16	-0.1896	0.3972	-0.3313	
-0.008052	-1.124596	-0.037088	-41.93	-14.91	19.67	-0.1782	0.4112	-0.3263	
-0.0244	-1.128134	-0.028426	-34.09	-13.79	16.73	-0.1779	0.416	-0.3123	
-0.019642	-1.070672	-0.029524	-27.44	-12.67	13.16	-0.1751	0.4207	-0.3107	
-0.015006	-1.013698	-0.025986	-26.04	-11.55	12.67	-0.1807	0.4207	-0.3077	
-0.01037	-0.961116	-0.045506	-26.25	-9.8	14.84	-0.1778	0.4161	-0.3015	
0.005734	-0.984296	-0.059414	-29.4	-7.56	15.68	-0.1664	0.4239	-0.2981	
-0.00122	-1.062254	-0.071126	-30.1	-4.76	14.14	-0.1734	0.427	-0.2966	
-0.023058	-1.109834	-0.07564	-27.16	-2.73	11.41	-0.1634	0.4395	-0.287	
-0.055144	-1.092144	-0.081252	-23.66	-2.94	9.94	-0.1719	0.4364	-0.2919	
-0.060756	-1.060424	-0.08723	-20.86	-4.55	9.59	-0.1647	0.4256	-0.2825	
-0.05368	-1.061522	-0.094062	-21.07	-7.56	10.78	-0.1604	0.4411	-0.2808	
-0.046238	-1.05103	-0.091866	-18.48	-8.61	10.71	-0.1731	0.4271	-0.278	
-0.042944	-1.057618	-0.100894	-16.31	-9.52	9.17	-0.1575	0.4335	-0.2699	
-0.039772	-1.065304	-0.103212	-14.49	-9.24	6.93	-0.1562	0.4319	-0.2792	
-0.040016	-1.06506	-0.10431	-13.23	-8.54	4.41	-0.1632	0.438	-0.2793	
-0.047214	-1.067378	-0.106994	-11.83	-9.24	2.87	-0.1645	0.4303	-0.2685	
-0.043188	-1.07177	-0.109434	-10.36	-10.01	2.45	-0.1587	0.4366	-0.2637	
-0.0488	-1.072502	-0.113216	-8.89	-10.71	2.45	-0.1644	0.4366	-0.2638	
-0.053314	-1.086532	-0.113216	-7.21	-11.34	1.96	-0.1627	0.4413	-0.2785	
-0.047946	-1.074332	-0.116022	-4.27	-10.92	0.35	-0.1559	0.446	-0.262	
-0.047702	-1.075674	-0.119438	-2.87	-10.71	-0.98	-0.1671	0.4475	-0.2638	
-0.044286	-1.075186	-0.118584	-0.56	-11.27	-1.68	-0.1629	0.4397	-0.2607	
-0.034404	-1.063352	-0.118218	2.59	-10.57	-3.01	-0.1572	0.4413	-0.259	
-0.040504	-1.069086	-0.116876	4.48	-9.66	-3.99	-0.1654	0.4429	-0.2723	
-0.0427	-1.0797	-0.118218	6.44	-8.96	-4.76	-0.1615	0.4413	-0.2606	
-0.037698	-1.054446	-0.116144	10.01	-8.26	-5.88	-0.1684	0.4366	-0.2562	
-0.037942	-1.053226	-0.111874	10.71	-8.26	-5.81	-0.1671	0.4366	-0.2592	
-0.029524	-1.048468	-0.103578	12.95	-7.7	-6.37	-0.1741	0.4288	-0.2563	
-0.027084	-1.041636	-0.104432	14.21	-7.07	-7.56	-0.1699	0.4335	-0.2562	
-0.020496	-1.042734	-0.103944	15.33	-6.37	-8.4	-0.1757	0.435	-0.2687	
-0.019032	-1.045784	-0.099918	16.73	-5.6	-8.96	-0.1757	0.435	-0.2687	
-0.019276	-1.03822	-0.102114	18.34	-5.39	-10.01	-0.1815	0.4256	-0.2766	
-0.026718	-1.0431	-0.099064	18.9	-4.97	-11.55	-0.183	0.4255	-0.2573	
-0.022692	-1.06323	-0.089914	20.51	-4.48	-13.23	-0.1703	0.4209	-0.2765	
-0.003172	-1.049688	-0.07905599	23.31	-3.64	-15.75	-0.1942	0.4271	-0.2769	
0.01037	-1.07055	-0.06734399	24.78	-1.75	-17.57	-0.183	0.4178	-0.2783	
0.0122	-1.07177	-0.069662	26.88	0.35	-19.18	-0.1845	0.4177	-0.2861	
0.015006	-1.07482	-0.052338	28.91	2.59	-20.09	-0.193	0.4161	-0.2893	
0.02013	-1.084824	-0.03965	30.87	4.69	-21.07	-0.1987	0.4083	-0.2911	
0.023546	-1.077626	-0.025254	33.81	7	-22.47	-0.1918	0.4207	-0.3001	
0.024888	-1.056032	-0.029646	36.19	9.1	-23.66	-0.2016	0.4144	-0.2988	
0.021106	-1.057862	-0.023058	37.73	10.01	-24.36	-0.2018	0.3973	-0.3052	
0.022814	-1.048346	-0.01891	38.78	10.43	-24.01	-0.2076	0.3988	-0.3161	
0.022814	-1.059082	-0.00671	40.04	10.01	-23.73	-0.2007	0.3972	-0.3222	
0.032574	-1.056764	0.003294	42.7	10.08	-23.31	-0.2205	0.3909	-0.3273	
0.036966	-1.050542	0.015494	45.15	9.31	-23.87	-0.2093	0.3847	-0.3287	
0.044896	-1.046882	0.037332	47.25	8.12	-24.22	-0.2221	0.3768	-0.3383	
0.051606	-1.031754	0.044774	49	7.28	-25.48	-0.2181	0.3721	-0.346	
0.060268	-1.028216	0.066368	50.4	7.14	-25.9	-0.2196	0.3736	-0.3537	
0.071736	-1.022848	0.071004	51.17	6.23	-25.62	-0.2227	0.3672	-0.3709	
0.077104	-1.017236	0.102968	52.78	5.32	-25.83	-0.2241	0.361	-0.3679	
0.089304	-0.9943	0.117608	54.53	3.92	-27.3	-0.2313	0.347	-0.3712	
0.096502	-1.005768	0.147986	54.81	2.45	-28.7	-0.2427	0.3438	-0.3808	
0.101748	-1.00101	0.16409	57.4	1.89	-30.24	-0.2398	0.3423	-0.3761	
0.133224	-0.978928	0.19154	60.69	3.57	-31.78	-0.2486	0.3157	-0.3919	
0.14091	-0.97539	0.220942	62.09	3.36	-33.39	-0.2486	0.3157	-0.3919	
0.142984	-0.971242	0.238754	64.82	2.52	-35.7	-0.2502	0.3094	-0.4013	
0.157136	-0.953308	0.27267	66.92	0.63	-37.94	-0.259	0.2937	-0.4202	
0.180194	-0.90707	0.291092	68.88	0.35	-38.99	-0.259	0.2937	-0.4202	
0.19764	-0.860954	0.312442	70.07	0.91	-38.36	-0.2618	0.2829	-0.4188	
0.19947	-0.835334	0.334036	69.79	1.47	-38.15	-0.2649	0.2657	-0.4267	
0.192272	-0.833992	0.341112	69.09	1.68	-38.99	-0.2649	0.2626	-0.4283	
0.207766	-0.818986	0.367952	70.7	0.42	-40.18	-0.2807	0.2484	-0.4427	
0.209596	-0.77958	0.391864	73.22	0.49	-42.84	-0.2737	0.2422	-0.4472	
0.223138	-0.725046	0.392108	75.18	0.07	-44.38	-0.2767	0.222	-0.4521	
0.233996	-0.714798	0.3904	75.81	1.54	-45.22	-0.274	0.2049	-0.4522	
0.240218	-0.712846	0.41541	78.19	2.17	-46.48	-0.2742	0.1971	-0.4631	
0.248392	-0.68625	0.447984	81.55	2.38	-49.63	-0.2855	0.1815	-0.4619	
0.266204	-0.62403	0.48434	83.09	1.89	-46.69	-0.2927	0.1597	-0.4699	
0.290848	-0.577792	0.51667	82.18	1.75	-44.59	-0.2998	0.1565	-0.4716	
0.302926	-0.576206	0.54656	80.57	1.26	-43.96	-0.2916	0.1347	-0.4794	
0.301462	-0.575108	0.565104	80.92	-0.28	-44.24	-0.2875	0.1238	-0.4856	
0.322202	-0.540948	0.599264	81.62	-2.1	-43.89	-0.3029	0.1068	-0.4783	
0.354288	-0.495076	0.635864	82.39	-3.99	-42.28	-0.3003	0.0942	-0.4907	
0.382592	-0.451888	0.654408	82.81	-4.76	-40.67	-0.306	0.074	-0.4894	
0.403332	-0.41602	0.681858	82.32	-4.83	-39.62	-0.3034	0.0616	-0.4956	
0.419192	-0.380274	0.702598	80.99	-4.69	-38.78	-0.302	0.0507	-0.4957	
0.43432	-0.33489	0.707844	78.26	-4.06	-37.45	-0.3063	0.0196	-0.4929	
0.43737	-0.305	0.705892	76.09	-2.52	-36.4	-0.2965	0.0135	-0.4959	
0.438224	-0.28609	0.714066	74.69	-2.94	-35.21	-0.3092	-0.0113	-0.4947	
0.438224	-0.272914	0.722728	74.9	-2.45	-34.51	-0.3093	-0.0207	-0.4979	
0.462136	-0.225944	0.75213	75.81	-3.08	-34.86	-0.3092	-0.0346	-0.4872	
0.47763	-0.173972	0.790682	73.85	-2.94	-33.25	-0.3037	-0.0455	-0.4949	
0.48678	-0.160186	0.820816	69.3	-3.64	-30.17	-0.2994	-0.0578	-0.4856	
0.488366	-0.16043	0.84302	66.43	-4.48	-27.65	-0.3122	-0.0719	-0.4921	
0.483608	-0.13481	0.832894	65.31	-4.62	-26.74	-0.3066	-0.0843	-0.4906	
0.487146	-0.100284	0.83021	63.84	-4.48	-26.88	-0.3067	-0.0983	-0.4938	
0.490318	-0.07747	0.823744	62.02	-5.11	-26.88	-0.2996	-0.0905	-0.4889	
0.49959	-0.05795	0.832284	60.27	-5.11	-26.88	-0.3121	-0.1168	-0.4754	
0.517768	-0.013176	0.853268	57.26	-3.92	-26.18	-0.305	-0.123	-0.4707	
0.532164	-0.006344	0.876082	52.08	-3.78	-25.9	-0.3092	-0.1261	-0.4708	
0.542168	-0.00671	0.906704	48.72	-2.66	-24.43	-0.315	-0.137	-0.4756	
0.536922	0.016226	0.912316	46.2	-2.31	-24.15	-0.3037	-0.1525	-0.4739	
0.52399	0.038918	0.918294	43.47	-1.61	-22.54	-0.298	-0.1633	-0.4662	
0.520696	0.061976	0.914756	40.81	-1.61	-20.58	-0.2967	-0.1758	-0.4709	
0.52948	0.076616	0.91683	37.1	-2.17	-18.9	-0.2993	-0.1757	-0.4585	
0.532774	0.071126	0.923296	33.32	-2.8	-16.73	-0.3007	-0.1819	-0.457	
0.53619	0.086376	0.929518	30.24	-3.5	-14.42	-0.3006	-0.1896	-0.4493	
0.552294	0.102358	0.945622	26.25	-3.99	-12.25	-0.2991	-0.1849	-0.4431	
0.56913	0.115534	0.949038	22.12	-3.85	-10.22	-0.2909	-0.1974	-0.4523	
0.579744	0.127734	0.950746	17.99	-3.99	-8.33	-0.2965	-0.1943	-0.4555	
0.57523	0.13908	0.943914	13.86	-3.01	-6.51	-0.2951	-0.202	-0.4509	
0.576816	0.14457	0.941352	9.59	-2.1	-4.83	-0.288	-0.202	-0.4492	
0.581452	0.14701	0.935862	3.71	-0.84	-2.66	-0.3006	-0.2035	-0.4432	
0.578768	0.145058	0.939278	-0.98	-0.35	-0.42	-0.3062	-0.2051	-0.4449	
0.573644	0.143106	0.93818	-5.18	0.14	1.47	-0.3006	-0.2066	-0.4417	
0.56974	0.141764	0.930006	-8.75	1.05	3.43	-0.2951	-0.1989	-0.4555	
0.576084	0.132492	0.924638	-12.81	1.19	5.25	-0.2951	-0.2129	-0.4494	
0.581574	0.136152	0.931104	-16.8	2.17	7.28	-0.2964	-0.1927	-0.4493	
0.577426	0.142496	0.930006	-20.79	2.73	9.24	-0.3009	-0.199	-0.4618	
0.568398	0.134688	0.92598	-24.71	2.66	11.06	-0.3035	-0.1865	-0.454	
0.570716	0.10797	0.915366	-28.49	2.1	12.74	-0.3051	-0.1944	-0.4603	
0.573156	0.091866	0.920612	-31.43	1.89	15.05	-0.2952	-0.185	-0.4376	
0.57279	0.097356	0.92354	-35.07	1.82	17.64	-0.3007	-0.1726	-0.457	
0.576816	0.081008	0.9211	-39.2	2.17	19.81	-0.3065	-0.1665	-0.471	
0.578524	0.070882	0.92659	-42.84	2.66	21.84	-0.3023	-0.1726	-0.4663	
0.56974	0.058682	0.908168	-46.69	4.76	23.66	-0.2953	-0.1618	-0.4723	
0.557296	0.03294	0.89487	-50.89	5.53	25.83	-0.3092	-0.154	-0.4617	
0.543388	0.022204	0.881572	-54.46	6.51	28.42	-0.3051	-0.1386	-0.477	
0.532408	0.00183	0.86803	-59.15	7.84	30.03	-0.3122	-0.1401	-0.4771	
0.525942	-0.037576	0.855464	-62.93	7.98	31.5	-0.3039	-0.1169	-0.4876	
0.508618	-0.064538	0.83448	-66.01	8.33	34.3	-0.3051	-0.1137	-0.4768	
0.50081	-0.085034	0.826794	-69.16	8.96	36.47	-0.3108	-0.09209999	-0.4907	
0.488854	-0.107482	0.8235	-72.59	8.96	38.43	-0.3121	-0.0967	-0.4815	
0.470676	-0.129686	0.803004	-75.39	8.89	39.69	-0.2968	-0.0765	-0.495	
0.45262	-0.158966	0.775066	-77.91	9.17	41.3	-0.3066	-0.0533	-0.495	
0.42883	-0.209352	0.746762	-79.52	9.45	42.98	-0.3025	-0.0502	-0.5026	
0.4087	-0.246806	0.736026	-80.99	8.61	43.82	-0.3023	-0.0331	-0.4979	
0.404796	-0.275842	0.733586	-84.84	7.21	45.15	-0.3078	-0.0113	-0.4947	
0.402112	-0.301584	0.72224	-87.78	6.72	46.76	-0.2952	0.0119	-0.5021	
0.392474	-0.335256	0.711382	-90.16	7.21	48.58	-0.2964	0.0305	-0.4957	
0.379664	-0.360022	0.684298	-92.33	7.07	49.56	-0.2965	0.0336	-0.5004	
0.354654	-0.403942	0.650138	-94.78	6.86	50.68	-0.3033	0.0631	-0.4941	
0.326594	-0.437858	0.624274	-97.37	6.65	51.73	-0.2948	0.0896	-0.4968	
0.309636	-0.473238	0.597068	-99.19	6.02	51.87	-0.292	0.0942	-0.4952	
0.293654	-0.50264	0.56425	-100.87	5.04	53.27	-0.2862	0.116	-0.4903	
0.265106	-0.532042	0.517036	-101.08	5.25	54.67	-0.2747	0.1333	-0.4775	
0.228628	-0.571204	0.463356	-101.78	5.88	56	-0.2788	0.1534	-0.4774	
0.203984	-0.625738	0.431636	-103.18	6.79	56.98	-0.2718	0.1783	-0.4864	
0.18361	-0.697474	0.412848	-105.14	6.72	56.28	-0.2729	0.197	-0.4693	
0.162992	-0.754448	0.36295	-104.23	5.11	54.88	-0.2602	0.2002	-0.469	
0.152012	-0.78385	0.335378	-100.87	6.93	52.71	-0.2614	0.2251	-0.4595	
0.141398	-0.790316	0.302682	-98.07	8.19	49.42	-0.2512	0.2439	-0.4437	
0.134078	-0.808128	0.281332	-97.3	8.82	49.07	-0.2511	0.2579	-0.442	
0.115778	-0.86132	0.263154	-97.23	9.03	46.97	-0.241	0.2735	-0.4324	
0.06893	-0.90829	0.216428	-97.37	7.98	44.38	-0.2408	0.2953	-0.4245	
0.045018	-0.96807	0.161894	-96.81	7	45.71	-0.2322	0.3001	-0.415	
0.038064	-1.005402	0.14152	-92.82	5.95	45.71	-0.2321	0.3125	-0.4118	
0.017812	-0.996252	0.10553	-85.89	5.18	42.63	-0.2166	0.3297	-0.4114	
0.012322	-1.017724	0.073932	-81.34	3.5	40.46	-0.2261	0.3375	-0.3945	
0.006954	-1.044564	0.065392	-76.09	2.31	38.36	-0.2133	0.3485	-0.3879	
-0.00427	-1.037	0.044408	-70.21	0.56	35.63	-0.2132	0.3548	-0.3848	
-0.001952	-1.046394	0.04148	-68.04	-1.82	33.81	-0.2101	0.3657	-0.3691	
-0.003538	-1.05896	0.037332	-64.61	-2.59	33.11	-0.1972	0.3767	-0.3595	
0.005612	-1.04859	0.014884	-60.83	-3.85	31.78	-0.1915	0.3737	-0.3548	
0.004636	-1.050908	-0.006466	-57.61	-3.22	30.03	-0.1883	0.3816	-0.3345	
-0.011468	-1.080432	-0.030012	-56.28	-2.94	28.42	-0.1854	0.3941	-0.3343	
-0.029646	-1.12728	-0.0488	-53.76	-4.06	26.74	-0.1782	0.4066	-0.3248	
-0.042944	-1.143628	-0.044652	-47.18	-4.69	23.24	-0.1852	0.4143	-0.3264	
-0.047946	-1.09678	-0.057096	-40.39	-6.02	20.44	-0.1738	0.4144	-0.3153	
-0.035868	-1.077138	-0.048678	-37.66	-7.35	18.62	-0.1722	0.4192	-0.306	
-0.040626	-1.069696	-0.055144	-35.07	-7.84	18.9	-0.1762	0.4301	-0.2936	
-0.046848	-1.073356	-0.050752	-32.9	-7.35	16.73	-0.175	0.4238	-0.306	
-0.04758	-1.034926	-0.056242	-30.03	-7.21	15.68	-0.158	0.4239	-0.2979	
-0.047214	-0.995764	-0.088694	-28.42	-6.79	14.98	-0.1763	0.4254	-0.2983	
-0.031476	-0.991372	-0.101992	-29.05	-5.39	14.63	-0.162	0.4271	-0.2856	
-0.06283	-1.011502	-0.114192	-29.82	-4.27	11.97	-0.1633	0.4271	-0.2825	
-0.083448	-1.062742	-0.114314	-26.39	-3.71	9.52	-0.1631	0.4335	-0.2685	
-0.066124	-1.056154	-0.096868	-21.63	-4.13	7.42	-0.1546	0.4413	-0.2683	
-0.078202	-1.039684	-0.096258	-20.65	-5.18	6.09	-0.1532	0.4397	-0.2667	
-0.080642	-1.025288	-0.111752	-20.37	-4.97	6.16	-0.1601	0.4444	-0.2637	
-0.060512	-1.062742	-0.129808	-21.21	-5.04	6.3	-0.1686	0.4474	-0.2669	
-0.058072	-1.062986	-0.124074	-19.18	-3.71	5.39	-0.1558	0.432	-0.2544	
-0.061976	-1.068476	-0.131394	-16.94	-2.59	4.48	-0.1531	0.4382	-0.262	
-0.069784	-1.046394	-0.146766	-14.42	-1.75	2.73	-0.1557	0.4414	-0.2528	
-0.076006	-1.072746	-0.14823	-13.86	-1.05	0.91	-0.1584	0.4554	-0.2496	
-0.076372	-1.086166	-0.14884	-10.85	-0.42	-0.56	-0.1513	0.4508	-0.2418	
-0.07905599	-1.083848	-0.147254	-7.91	-1.19	-1.33	-0.1515	0.4429	-0.2527	
-0.068808	-1.083482	-0.155428	-5.18	-2.1	-1.47	-0.1541	0.4477	-0.2418	
-0.070638	-1.098488	-0.158356	-2.87	-2.31	-2.24	-0.1556	0.443	-0.2481	
-0.070882	-1.108126	-0.161284	-0.63	-3.36	-3.29	-0.1653	0.4507	-0.2405	
-0.0793	-1.097512	-0.169336	2.73	-4.27	-3.5	-0.1555	0.4523	-0.2449	
-0.072102	-1.086288	-0.166042	5.32	-4.76	-3.64	-0.1556	0.4399	-0.2435	
-0.056486	-1.056032	-0.161406	8.61	-4.69	-5.04	-0.1557	0.4507	-0.2543	
-0.06283	-1.056398	-0.157624	9.38	-4.34	-6.51	-0.1642	0.4398	-0.2529	
-0.07625	-1.056276	-0.152378	11.34	-5.25	-7.14	-0.1554	0.4539	-0.2387	
-0.062342	-1.042368	-0.143472	14.14	-5.6	-7.42	-0.1656	0.4491	-0.256	
-0.049776	-1.028948	-0.133102	15.4	-5.32	-8.12	-0.1643	0.4444	-0.2591	
-0.052582	-1.032364	-0.14274	15.68	-5.81	-9.59	-0.1516	0.4413	-0.2589	
-0.045384	-1.0492	-0.129808	17.36	-5.88	-10.71	-0.1712	0.4522	-0.2561	
-0.025742	-1.050786	-0.118462	19.6	-4.69	-12.95	-0.1698	0.4459	-0.2577	
-0.014396	-1.050298	-0.113216	21.49	-2.59	-15.4	-0.1714	0.4412	-0.2639	
-0.007564	-1.051396	-0.105408	23.45	-0.35	-16.87	-0.1743	0.4318	-0.2703	
-0.007686	-1.050054	-0.107604	24.71	2.31	-18.27	-0.1742	0.4288	-0.2641	
-0.02562	-1.072624	-0.110166	25.48	3.92	-19.32	-0.1827	0.4318	-0.2689	
-0.022326	-1.078236	-0.105042	27.86	4.41	-20.37	-0.1815	0.424	-0.2767	
-0.028792	-1.082506	-0.08784	30.17	3.64	-21.07	-0.1916	0.4239	-0.2908	
-0.009516	-1.064938	-0.073688	33.18	3.5	-21.14	-0.1929	0.4223	-0.2862	
0.001464	-1.04615	-0.065758	34.65	3.92	-21.14	-0.1873	0.4099	-0.2862	
0.004026	-1.057496	-0.05917	34.93	5.25	-19.88	-0.1904	0.4145	-0.3017	
0.00671	-1.065304	-0.051484	37.1	5.6	-20.09	-0.2031	0.4098	-0.302	
0.001952	-1.067744	-0.058926	38.99	4.34	-20.58	-0.199	0.4082	-0.3066	
0.00976	-1.078236	-0.044652	41.02	3.71	-20.79	-0.1991	0.4128	-0.3174	
0.020496	-1.074454	-0.01952	43.68	2.87	-22.54	-0.2049	0.3972	-0.3223	
0.030744	-1.062132	-0.003294	46.62	3.08	-22.82	-0.2092	0.3894	-0.324	
0.037576	-1.051762	0.013054	48.79	4.76	-23.03	-0.2192	0.3784	-0.332	
0.033794	-1.065182	0.017568	50.26	4.97	-24.29	-0.2136	0.3908	-0.3333	
0.044164	-1.045052	0.041358	53.41	4.9	-25.55	-0.2195	0.3721	-0.3491	
0.05063	-1.027362	0.06161	55.3	4.76	-26.88	-0.2237	0.3798	-0.3507	
0.055022	-1.028826	0.074176	56.84	4.2	-28.21	-0.2183	0.3611	-0.3569	
0.06771	-1.012722	0.09552599	59.43	4.06	-29.96	-0.2227	0.3533	-0.3633	
0.07015	-1.000156	0.114192	61.11	2.59	-31.36	-0.2299	0.3501	-0.3727	
0.083936	-0.988688	0.129808	63.42	2.03	-33.25	-0.2357	0.3422	-0.3853	
0.09699	-0.99186	0.146766	65.24	2.24	-35.35	-0.2358	0.336	-0.3869	
0.109556	-0.98576	0.167384	68.25	2.8	-38.01	-0.2418	0.325	-0.4073	
0.125172	-0.985028	0.201544	71.33	3.22	-40.53	-0.2531	0.3094	-0.4045	
0.134444	-0.970876	0.225334	74.27	2.31	-42.28	-0.2506	0.2938	-0.4216	
0.145912	-0.937082	0.257542	75.95	1.89	-43.26	-0.245	0.2845	-0.4216	
0.179584	-0.878644	0.29524	77	1.61	-42.49	-0.2591	0.2782	-0.4219	
0.190198	-0.845704	0.319518	74.97	1.4	-41.23	-0.2662	0.2657	-0.4252	
0.191906	-0.823622	0.338672	74.2	1.12	-40.95	-0.2552	0.2563	-0.4375	
0.197762	-0.796416	0.333548	74.2	1.47	-40.95	-0.2681	0.2484	-0.4486	
0.201056	-0.770796	0.35197	75.18	2.73	-42.49	-0.2668	0.2298	-0.4503	
0.207522	-0.73261	0.367952	77.56	2.59	-43.89	-0.2753	0.2189	-0.4505	
0.214964	-0.712968	0.389668	79.24	1.33	-45.64	-0.2756	0.2048	-0.4631	
0.239974	-0.687714	0.432124	81.55	0.42	-46.97	-0.2799	0.1893	-0.4648	
0.2623	-0.631106	0.482022	83.93	-0.98	-48.93	-0.2912	0.1768	-0.4651	
0.276696	-0.593774	0.500322	84.14	-2.45	-49.7	-0.2871	0.1581	-0.4714	
0.290848	-0.582062	0.518256	84.63	-3.92	-49.42	-0.2956	0.1472	-0.4701	
0.31781	-0.57157	0.55571	86.24	-4.83	-51.38	-0.2873	0.1208	-0.4763	
0.351238	-0.523502	0.622078	86.73	-6.37	-47.53	-0.2931	0.113	-0.4842	
0.39101	-0.45933	0.668194	82.04	-7.28	-44.03	-0.3017	0.1097	-0.4681	
0.404308	-0.44225	0.68442	78.19	-7.07	-42.56	-0.3045	0.0787	-0.4862	
0.401746	-0.420656	0.670634	76.37	-6.37	-42	-0.3118	0.0662	-0.4942	
0.416508	-0.37454	0.674294	75.67	-5.04	-40.53	-0.2991	0.0585	-0.494	
0.433222	-0.317078	0.691252	74.41	-3.99	-38.64	-0.3118	0.0429	-0.4928	
0.437126	-0.296094	0.70882	72.03	-3.08	-38.01	-0.3119	0.0243	-0.4914	
0.420412	-0.277794	0.705038	69.51	-3.43	-37.8	-0.3036	0.0149	-0.5006	
0.426634	-0.25742	0.723948	66.85	-4.2	-38.01	-0.3146	0.0026	-0.4854	
0.446398	-0.259006	0.750056	64.05	-5.53	-37.94	-0.3092	-0.0191	-0.4917	
0.478728	-0.239974	0.785192	62.44	-7.7	-37.38	-0.3093	-0.0253	-0.4979	
0.498736	-0.226554	0.804834	60.48	-7.77	-35.42	-0.3135	-0.0424	-0.4904	
0.514718	-0.19642	0.813252	60.76	-7.35	-33.81	-0.3093	-0.0424	-0.4934	
0.519232	-0.168482	0.813252	59.57	-6.86	-32.06	-0.3163	-0.0533	-0.4874	
0.508252	-0.146034	0.80276	58.24	-6.23	-30.1	-0.3179	-0.0766	-0.4923	
0.514596	-0.121634	0.811666	57.54	-5.11	-28.91	-0.3135	-0.0874	-0.4814	
0.530456	-0.082838	0.81191	55.93	-4.62	-29.54	-0.3079	-0.1013	-0.4814	
0.540338	-0.076738	0.81374	52.78	-4.2	-29.4	-0.3093	-0.1029	-0.483	
0.53924	-0.089304	0.824476	50.75	-3.36	-28.98	-0.3135	-0.1122	-0.48	
0.554124	-0.060878	0.848876	49.98	-3.08	-28.35	-0.3148	-0.1184	-0.4724	
0.55815	-0.042334	0.86315	47.6	-2.31	-26.67	-0.3064	-0.1277	-0.4707	
0.553392	-0.027084	0.868396	45.64	-2.45	-24.78	-0.3079	-0.1385	-0.4708	
0.549732	-0.020496	0.872666	43.61	-2.1	-22.12	-0.3093	-0.1385	-0.4709	
0.551806	-0.002684	0.878156	41.65	-1.33	-20.44	-0.3065	-0.1587	-0.4725	
0.560468	0.018788	0.883036	38.92	-1.26	-18.2	-0.3052	-0.1603	-0.474	
0.561444	0.02928	0.885354	35.7	-1.75	-17.01	-0.312	-0.1618	-0.4618	
0.566568	0.031598	0.900238	32.27	-2.1	-14.91	-0.3034	-0.1679	-0.4539	
0.584258	0.062464	0.924272	27.23	-3.15	-12.11	-0.2992	-0.1896	-0.4509	
0.593042	0.080642	0.92903	23.73	-3.29	-9.45	-0.312	-0.1804	-0.4557	
0.592066	0.086376	0.930006	20.3	-3.15	-7.21	-0.3035	-0.1834	-0.454	
0.596458	0.092232	0.9333	15.96	-2.66	-4.83	-0.2935	-0.1958	-0.4446	
0.597434	0.101504	0.925126	11.9	-2.52	-3.08	-0.3049	-0.1989	-0.4479	
0.60085	0.115778	0.923662	8.19	-1.61	-1.4	-0.302	-0.1943	-0.4479	
0.60146	0.11834	0.92659	3.5	-0.42	0.56	-0.2966	-0.2021	-0.4571	
0.60512	0.124196	0.931104	-0.63	0.77	2.59	-0.2977	-0.1973	-0.4385	
0.60329	0.126514	0.927932	-5.53	1.68	4.76	-0.305	-0.1974	-0.4541	
0.601704	0.125782	0.924028	-10.5	2.59	7	-0.3035	-0.2005	-0.451	
0.598898	0.126758	0.917806	-14.42	3.57	8.96	-0.2993	-0.1865	-0.4539	
0.589748	0.118584	0.91683	-18.13	4.41	10.92	-0.2965	-0.1896	-0.4524	
0.579134	0.10919	0.912438	-21.35	4.27	12.88	-0.3176	-0.1866	-0.4543	
0.58194	0.110532	0.908046	-24.15	4.27	14.35	-0.3078	-0.185	-0.4557	
0.58133	0.10309	0.906094	-28.21	4.34	16.1	-0.3063	-0.1788	-0.4556	
0.5734	0.075274	0.903044	-32.41	4.27	18.2	-0.3007	-0.171	-0.4585	
0.567666	0.060756	0.90341	-35.28	4.27	20.09	-0.3022	-0.1711	-0.4632	
0.563274	0.050752	0.897676	-38.36	3.99	22.05	-0.3022	-0.1586	-0.4631	
0.56547	0.044408	0.89243	-42	4.9	24.01	-0.3092	-0.1602	-0.4648	
0.56303	0.02867	0.884988	-45.22	5.18	25.76	-0.3151	-0.1495	-0.4819	
0.551318	0.005002	0.879132	-49.14	5.74	28.14	-0.3108	-0.1231	-0.4801	
0.54229	-0.014518	0.869372	-53.06	5.67	29.75	-0.3065	-0.1292	-0.4769	
0.536434	-0.03843	0.853878	-56.35	5.18	31.57	-0.3123	-0.12	-0.4894	
0.53558	-0.060878	0.842288	-59.36	5.6	33.81	-0.3107	-0.1075	-0.4769	
0.529114	-0.082594	0.824842	-62.23	6.3	35.42	-0.3176	-0.1013	-0.4754	
0.51484	-0.10309	0.82716	-65.94	7.35	37.45	-0.3136	-0.0859	-0.4876	
0.486414	-0.16165	0.789584	-69.86	6.93	39.2	-0.3148	-0.0765	-0.4767	
0.46909	-0.192516	0.777018	-71.68	7	40.39	-0.3135	-0.0564	-0.4889	
0.45994	-0.206912	0.76555	-73.5	7	41.65	-0.3051	-0.047	-0.4918	
0.461648	-0.217526	0.755668	-75.95	6.72	42.91	-0.312	-0.0284	-0.4903	
0.442372	-0.265106	0.723094	-79.03	6.44	43.96	-0.312	-0.0207	-0.4918	
0.41968	-0.323666	0.703208	-80.29	6.37	44.59	-0.3121	-0.0098	-0.501	
0.40443	-0.36173	0.696254	-80.22	6.58	44.94	-0.3105	0.0119	-0.4899	
0.399306	-0.374296	0.687226	-81.06	6.09	45.57	-0.3091	0.0305	-0.496	
0.396378	-0.388082	0.678076	-83.09	6.09	46.69	-0.3076	0.0336	-0.4913	
0.38491	-0.418094	0.653554	-85.47	5.46	48.02	-0.316	0.0553	-0.4928	
0.36661	-0.461404	0.623542	-87.01	5.11	49.28	-0.3103	0.0709	-0.4926	
0.345382	-0.494466	0.594506	-87.78	4.97	51.31	-0.292	0.0911	-0.4937	
0.320738	-0.527528	0.559858	-88.55	4.9	52.5	-0.3003	0.1067	-0.4891	
0.28975	-0.549244	0.517158	-88.69	5.74	54.6	-0.2959	0.1269	-0.4873	
0.262056	-0.594262	0.49166	-90.09	6.58	56.7	-0.2985	0.1379	-0.4748	
0.249002	-0.637938	0.476044	-91.91	7.49	58.24	-0.2914	0.1581	-0.4777	
0.235094	-0.66124	0.437858	-92.82	8.05	57.89	-0.2772	0.1706	-0.4695	
0.2135	-0.710772	0.404308	-94.71	8.54	56.98	-0.2771	0.197	-0.4678	
0.18971	-0.76189	0.385886	-93.87	9.45	55.44	-0.2798	0.2048	-0.4631	
0.168116	-0.775676	0.358558	-91.56	10.36	52.99	-0.2656	0.2173	-0.4566	
0.15555	-0.772382	0.33062	-89.74	10.08	49.77	-0.264	0.2469	-0.4548	
0.144936	-0.801296	0.296704	-90.37	9.87	49.49	-0.2569	0.2531	-0.4515	
0.123952	-0.848022	0.265716	-90.44	9.38	47.95	-0.2481	0.2688	-0.4326	
0.116388	-0.883402	0.259494	-90.3	9.66	47.6	-0.2466	0.2844	-0.4325	
0.109068	-0.913658	0.237412	-89.67	10.15	45.71	-0.2393	0.3062	-0.4197	
0.08784	-0.943304	0.208254	-87.57	11.34	43.19	-0.218	0.3033	-0.4101	
0.056486	-0.936716	0.147498	-80.64	12.04	39.62	-0.222	0.339	-0.4052	
0.049654	-0.954162	0.11773	-77	11.27	39.48	-0.2175	0.3407	-0.3881	
0.032574	-0.992104	0.088206	-74.76	9.94	37.1	-0.2133	0.3516	-0.391	
0.008296	-1.018212	0.063684	-71.61	9.38	35.42	-0.2044	0.358	-0.3675	
-0.005368	-1.045906	0.039406	-68.04	7.98	33.67	-0.2016	0.3751	-0.3673	
-0.006222	-1.062132	0.04575	-63.98	5.53	31.92	-0.1986	0.3814	-0.3626	
-0.012444	-1.060058	0.022204	-58.8	3.01	31.92	-0.1858	0.383	-0.3546	
-0.026108	-1.038952	0.018666	-54.88	0.35	30.94	-0.184	0.3987	-0.3358	
-0.026962	-1.049078	0.008784	-53.83	-2.38	29.68	-0.1842	0.3971	-0.342	
-0.034648	-1.077504	-0.012932	-52.5	-2.66	27.65	-0.1839	0.405	-0.3311	
-0.050264	-1.087386	-0.029036	-49.56	-4.06	25.55	-0.1683	0.4066	-0.3215	
-0.058072	-1.089704	-0.055266	-47.53	-4.13	24.5	-0.1795	0.4066	-0.3202	
-0.065514	-1.123498	-0.065636	-46.13	-3.99	23.1	-0.1695	0.4222	-0.3152	
-0.084058	-1.12972	-0.07259	-40.95	-5.18	21.49	-0.1652	0.4207	-0.3074	
-0.094916	-1.107394	-0.08784	-35.14	-6.65	18.27	-0.1608	0.4208	-0.2995	
-0.089304	-1.094828	-0.092232	-32.06	-7.42	17.71	-0.1594	0.427	-0.301	
-0.07503	-1.069086	-0.084424	-28.49	-6.93	16.31	-0.1608	0.4255	-0.3011	
-0.076616	-1.063962	-0.097356	-26.67	-6.16	14.56	-0.1563	0.4318	-0.2854	
-0.083204	-1.065426	-0.095282	-24.5	-5.88	13.3	-0.1565	0.4349	-0.2931	
-0.09821	-1.058838	-0.109556	-23.03	-4.27	12.18	-0.1577	0.4365	-0.2854	
-0.102724	-1.057862	-0.124928	-21.21	-4.62	10.85	-0.1489	0.4444	-0.2681	
-0.112484	-1.062376	-0.124806	-18.97	-5.74	9.73	-0.1504	0.4459	-0.2712	
-0.10248	-1.070794	-0.117608	-16.24	-5.88	8.61	-0.156	0.4397	-0.2667	
-0.099186	-1.05408	-0.12017	-13.93	-6.23	6.51	-0.1504	0.4459	-0.2697	
-0.114558	-1.059082	-0.115778	-12.88	-6.93	6.09	-0.1489	0.4382	-0.2651	
-0.10675	-1.052982	-0.130052	-11.06	-6.86	4.83	-0.1573	0.4428	-0.2652	
-0.109678	-1.07116	-0.126392	-9.94	-6.79	3.43	-0.1475	0.446	-0.2634	
-0.096014	-1.070062	-0.124928	-6.93	-6.65	2.31	-0.1445	0.4492	-0.254	
-0.088938	-1.04798	-0.126758	-4.76	-6.16	1.54	-0.1375	0.443	-0.2555	
-0.093208	-1.045418	-0.12749	-4.48	-5.67	1.26	-0.1516	0.4429	-0.2604	
-0.09638	-1.06018	-0.131638	-3.92	-5.11	0.63	-0.1459	0.446	-0.2572	
-0.106384	-1.050176	-0.1342	-1.96	-5.39	0	-0.139	0.4491	-0.2617	
-0.106018	-1.059814	-0.128222	-0.98	-5.6	-0.42	-0.1461	0.446	-0.2665	
-0.096502	-1.044808	-0.121878	0.98	-5.6	-1.26	-0.1458	0.4492	-0.2781	
-0.09821	-1.04554	-0.125538	1.82	-6.09	-2.17	-0.1445	0.4507	-0.2587	
-0.101992	-1.056398	-0.123708	3.5	-6.44	-2.73	-0.1446	0.4522	-0.2602	
-0.083936	-1.047248	-0.11468	5.32	-7.07	-3.71	-0.1501	0.4414	-0.2814	
-0.078202	-1.037244	-0.104554	7.14	-7	-5.67	-0.1446	0.4429	-0.2603	
-0.07442	-1.047614	-0.099674	8.61	-6.93	-7.56	-0.1599	0.446	-0.2769	
-0.056974	-1.04493	-0.099186	10.5	-5.39	-10.01	-0.1474	0.4429	-0.2363	
-0.061244	-1.041636	-0.106872	11.97	-3.99	-11.76	-0.1447	0.4475	-0.2696	
-0.074664	-1.049322	-0.106384	12.67	-3.36	-12.11	-0.1628	0.4475	-0.2591	
-0.06734399	-1.065426	-0.104188	14.21	-3.08	-11.83	-0.1644	0.4428	-0.2653	
-0.069296	-1.06384	-0.094428	16.38	-2.73	-13.51	-0.1642	0.4475	-0.2591	
-0.06039	-1.056398	-0.09455	18.34	-2.59	-14.56	-0.1618	0.4412	-0.2777	
-0.05978	-1.03334	-0.106872	19.32	-2.24	-14.91	-0.1659	0.4257	-0.267	
-0.05734	-1.061766	-0.097112	19.11	-1.54	-14.7	-0.1674	0.4303	-0.2748	
-0.048312	-1.070916	-0.09211	22.4	-1.05	-16.31	-0.1716	0.4256	-0.2749	
-0.035746	-1.084336	-0.097356	25.76	-0.63	-18.62	-0.1744	0.4349	-0.2749	
-0.033794	-1.085312	-0.076006	29.33	-0.14	-20.86	-0.1745	0.4333	-0.278	
-0.023302	-1.063352	-0.06405	31.92	1.12	-22.89	-0.1788	0.4271	-0.2572	
-0.009028	-1.061888	-0.056852	35	4.55	-23.66	-0.1819	0.4192	-0.2984	
-0.008052	-1.091778	-0.052094	37.52	6.65	-25.06	-0.1847	0.4223	-0.2984	
0.003782	-1.093242	-0.025986	41.72	7.63	-27.72	-0.1849	0.4067	-0.3079	
0.020252	-1.061278	0.004148	45.01	9.94	-28.84	-0.1949	0.4144	-0.3142	
0.03111	-1.033584	0.012322	46.2	12.25	-28.84	-0.1963	0.4004	-0.3159	
0.035258	-1.020774	0.015982	45.71	13.23	-27.3	-0.2021	0.3987	-0.3222	
0.035868	-1.025288	0.026718	45.15	13.51	-25.55	-0.1967	0.3971	-0.3376	
0.033672	-1.029192	0.039894	45.78	12.11	-25.06	-0.1997	0.3877	-0.3455	
0.04514	-1.023702	0.05185	46.62	11.34	-24.22	-0.2027	0.3876	-0.3533	
0.053802	-1.006134	0.065758	46.48	10.08	-23.45	-0.2055	0.3613	-0.3489	
0.058438	-1.0065	0.080764	45.15	8.75	-21.56	-0.2171	0.3595	-0.3709	
0.0549	-1.021506	0.086498	44.1	7.21	-19.11	-0.2185	0.3657	-0.3708	
0.064782	-1.02419	0.098332	44.59	6.02	-17.5	-0.2103	0.3579	-0.3785	
0.08113	-1.020774	0.123342	45.29	4.9	-16.87	-0.2271	0.3501	-0.3773	
0.096014	-1.004304	0.146522	45.36	4.83	-16.38	-0.223	0.3423	-0.382	
0.099308	-0.972462	0.182146	43.89	5.25	-16.31	-0.2259	0.3469	-0.3851	
0.101138	-0.955992	0.198616	41.86	5.04	-15.26	-0.2246	0.3391	-0.3913	
0.09638	-0.957578	0.2135	39.27	4.76	-14.21	-0.2232	0.3407	-0.3913	
0.109434	-0.957822	0.238022	39.34	4.55	-14.35	-0.2319	0.3157	-0.4025	
0.123342	-0.935984	0.280478	38.57	3.43	-14.49	-0.2222	0.3266	-0.4131	
0.148962	-0.919636	0.321226	37.17	3.01	-14.98	-0.225	0.3172	-0.4101	
0.170312	-0.888404	0.372832	35.14	1.47	-14.91	-0.2278	0.3188	-0.4086	
0.173606	-0.841922	0.39772	31.15	0.63	-14.14	-0.2379	0.3031	-0.3957	
0.17934	-0.80154	0.404308	27.37	0.56	-13.86	-0.2464	0.3108	-0.4261	
0.168482	-0.779214	0.40626	22.96	0	-14.91	-0.2352	0.3031	-0.4259	
0.160186	-0.78751	0.410042	18.97	-0.56	-14.63	-0.2393	0.2923	-0.4199	
0.17202	-0.811056	0.42395	22.33	-1.33	-17.29	-0.2408	0.2969	-0.4245	
0.179706	-0.791902	0.438346	25.97	-2.45	-19.81	-0.238	0.2922	-0.4245	
0.194712	-0.756522	0.47153	26.6	-2.52	-19.39	-0.2467	0.2766	-0.4356	
0.209108	-0.75457	0.487146	24.71	-1.75	-18.97	-0.2352	0.2798	-0.4245	
0.220698	-0.751032	0.50569	24.5	-2.38	-18.76	-0.2509	0.2797	-0.4326	
0.226066	-0.729804	0.496662	23.8	-3.22	-16.8	-0.2494	0.2782	-0.4295	
0.234606	-0.73017	0.501664	22.82	-5.74	-17.5	-0.2553	0.2672	-0.4405	
0.252296	-0.740662	0.531676	21.56	-6.93	-13.58	-0.2609	0.2703	-0.4437	
0.27145	-0.715896	0.546804	18.97	-7.42	-15.19	-0.2551	0.2657	-0.4297	
0.266204	-0.720044	0.535946	14.42	-8.61	-17.22	-0.2569	0.264	-0.4514	
0.248636	-0.727608	0.524722	10.57	-9.59	-18.41	-0.2639	0.2469	-0.4501	
0.247904	-0.714554	0.508008	7.91	-9.59	-21.7	-0.254	0.2532	-0.4452	
0.260348	-0.700036	0.515206	4.83	-10.92	-24.29	-0.2721	0.2516	-0.4363	
0.263276	-0.698206	0.50508	1.12	-14	-27.58	-0.2637	0.2532	-0.4377	
0.277184	-0.699548	0.507398	-3.43	-16.8	-29.82	-0.2637	0.247	-0.4346	
0.2867	-0.715774	0.497272	-8.96	-21.14	-31.36	-0.2863	0.2546	-0.4459	
0.286456	-0.755912	0.468724	-12.46	-26.11	-32.9	-0.2877	0.2313	-0.4398	
0.30134	-0.78141	0.45506	-13.58	-27.93	-32.2	-0.2932	0.2391	-0.4337	
0.314882	-0.76738	0.442494	-14.49	-27.58	-32.06	-0.3001	0.233	-0.4261	
0.326716	-0.759572	0.42639	-16.03	-27.44	-32.55	-0.3015	0.2438	-0.4292	
0.347578	-0.745176	0.4148	-16.94	-26.88	-33.04	-0.3041	0.2361	-0.4138	
0.3538	-0.748592	0.397476	-18.2	-25.62	-34.3	-0.3028	0.2283	-0.4169	
0.355996	-0.78934	0.394914	-20.37	-25.27	-37.73	-0.3139	0.2392	-0.4124	
0.363072	-0.826428	0.391986	-19.11	-25.13	-41.16	-0.3238	0.2407	-0.4141	
0.376126	-0.790804	0.363072	-14.91	-24.01	-43.12	-0.325	0.2268	-0.3987	
0.405406	-0.765184	0.350506	-13.23	-22.12	-46.83	-0.3307	0.2361	-0.405	
0.422486	-0.78019	0.3721	-10.36	-22.26	-51.17	-0.3376	0.2175	-0.3944	
0.438712	-0.765428	0.375882	-4.13	-22.89	-52.29	-0.353	0.2035	-0.3901	
0.47458	-0.710528	0.383812	-6.58	-21.7	-57.26	-0.3614	0.1973	-0.3873	
0.46909	-0.793488	0.362828	-14	-21.63	-62.02	-0.3614	0.1973	-0.3873	
0.493856	-0.80337	0.337452	-13.93	-22.19	-59.08	-0.3668	0.1989	-0.3749	
0.496296	-0.82106	0.334402	-11.62	-23.59	-56.98	-0.3695	0.1943	-0.3688	
0.521428	-0.791536	0.319274	-8.54	-27.09	-51.38	-0.385	0.1818	-0.3692	
0.549488	-0.770064	0.308172	-8.12	-28.98	-50.4	-0.385	0.1771	-0.3646	
0.584868	-0.765916	0.276818	-8.19	-30.45	-48.51	-0.3877	0.1694	-0.3585	
0.599508	-0.743468	0.280844	-7.98	-31.15	-46.13	-0.3989	0.1678	-0.3556	
0.636352	-0.72224	0.275964	-9.17	-33.11	-44.17	-0.3977	0.1585	-0.365	
0.654286	-0.712968	0.27145	-9.73	-33.25	-41.02	-0.4002	0.1555	-0.348	
0.658556	-0.69174	0.253638	-9.17	-32.97	-38.5	-0.4115	0.1508	-0.3467	
0.690032	-0.678686	0.239364	-10.36	-32.41	-38.22	-0.417	0.1554	-0.3421	
0.700524	-0.683688	0.2318	-11.76	-31.85	-38.5	-0.4112	0.1555	-0.3343	
0.712602	-0.685518	0.20313	-11.97	-30.87	-38.08	-0.4112	0.1555	-0.3343	
0.73078	-0.693692	0.185074	-11.97	-30.87	-38.57	-0.4126	0.14	-0.3266	
0.73932	-0.67771	0.172142	-11.2	-29.61	-37.03	-0.4223	0.1369	-0.3222	
0.767502	-0.648796	0.162504	-10.92	-29.05	-35.98	-0.4349	0.1338	-0.3147	
0.792024	-0.639646	0.148962	-11.34	-28.42	-34.3	-0.4433	0.1245	-0.3149	
0.798124	-0.655262	0.142496	-13.44	-27.86	-32.34	-0.4433	0.1245	-0.3149	
0.789584	-0.669414	0.134444	-11.62	-27.02	-29.82	-0.4419	0.1214	-0.3118	
0.807518	-0.669658	0.135908	-7.91	-27.16	-27.86	-0.4391	0.1121	-0.3087	
0.816058	-0.644648	0.126148	-2.87	-25.06	-26.25	-0.4503	0.1121	-0.3074	
0.806298	-0.620248	0.103578	-0.14	-23.1	-23.45	-0.4501	0.1137	-0.2996	
0.80093	-0.589992	0.104676	0.91	-23.59	-20.58	-0.4542	0.1044	-0.2889	
0.8113	-0.569008	0.10736	-0.14	-23.73	-18.9	-0.4485	0.1029	-0.2826	
0.84302	-0.563884	0.1098	-0.91	-22.47	-19.6	-0.4498	0.0906	-0.2734	
0.857172	-0.569252	0.094306	-2.17	-20.93	-20.3	-0.4458	0.1013	-0.2888	
0.86437	-0.589992	0.101626	-3.5	-18.69	-21.07	-0.4653	0.0905	-0.28	
0.872544	-0.60817	0.096868	-3.43	-14.98	-20.37	-0.4651	0.0905	-0.2675	
0.873154	-0.60024	0.09211	-0.7	-11.48	-18.76	-0.4724	0.0873	-0.2801	
0.881084	-0.574376	0.088206	1.54	-10.15	-16.73	-0.4738	0.0765	-0.2771	
0.879864	-0.564982	0.07991	2.17	-8.26	-13.23	-0.4693	0.0874	-0.2661	
0.875228	-0.558516	0.061488	1.26	-5.88	-11.27	-0.4668	0.0827	-0.2831	
0.871568	-0.568398	0.058438	0	-3.71	-10.92	-0.4637	0.0766	-0.2645	
0.871934	-0.569984	0.040504	1.33	-2.52	-10.15	-0.4652	0.0797	-0.2676	
0.867054	-0.55998	0.04636	2.1	-1.89	-7.98	-0.4693	0.075	-0.2615	
0.875228	-0.549488	0.057706	2.38	-1.26	-6.02	-0.4737	0.0703	-0.2725	
0.89121	-0.539118	0.061854	2.52	-0.42	-3.5	-0.4695	0.075	-0.2724	
0.89914	-0.544486	0.061976	3.5	0.84	-1.4	-0.4722	0.0766	-0.2662	
0.884378	-0.545462	0.052216	4.27	1.26	0	-0.4707	0.0828	-0.2631	
0.888404	-0.551928	0.057828	3.99	2.52	1.61	-0.4679	0.0719	-0.2615	
0.890722	-0.544974	0.071858	4.97	3.57	2.73	-0.4664	0.0813	-0.2614	
0.903166	-0.54351	0.070638	4.55	3.99	4.97	-0.4707	0.0781	-0.2646	
0.917562	-0.55022	0.074664	5.11	5.74	7.7	-0.4651	0.0797	-0.2661	
0.911218	-0.56486	0.070028	6.23	7.84	11.13	-0.4681	0.0703	-0.2755	
0.91866	-0.573644	0.077348	8.4	10.5	13.09	-0.4709	0.0734	-0.2755	
0.92049	-0.574986	0.083814	10.29	13.79	14.28	-0.4652	0.0843	-0.2707	
0.925736	-0.578158	0.108214	11.13	18.27	17.01	-0.4585	0.0826	-0.2923	
0.90829	-0.582306	0.092354	12.32	22.75	20.93	-0.4639	0.0858	-0.2784	
0.897188	-0.599996	0.108946	13.44	29.26	28	-0.464	0.0873	-0.2862	
0.904874	-0.61183	0.128222	15.05	34.23	32.69	-0.4626	0.0889	-0.2861	
0.88206	-0.595848	0.127978	16.52	35.91	37.38	-0.4558	0.0919	-0.2953	
0.88084	-0.587308	0.124806	17.64	36.19	40.32	-0.4543	0.092	-0.2921	
0.890478	-0.618052	0.145668	15.61	39.62	43.68	-0.4531	0.1043	-0.3075	
0.87169	-0.66063	0.15799	16.31	44.52	49.28	-0.449	0.1043	-0.3136	
0.86193	-0.673806	0.179706	21.07	50.68	56.14	-0.4365	0.112	-0.3242	
0.819108	-0.632204	0.197762	22.26	50.05	61.04	-0.4268	0.1259	-0.3348	
0.794098	-0.62159	0.172386	20.37	45.99	63.63	-0.4352	0.1259	-0.3334	
0.77104	-0.640012	0.183854	20.51	48.44	66.71	-0.4256	0.1305	-0.344	
0.734806	-0.66002	0.189344	20.65	50.33	68.46	-0.4144	0.1414	-0.353	
0.706502	-0.713822	0.244244	22.82	51.94	72.52	-0.4116	0.1383	-0.3514	
0.670878	-0.680272	0.23607	26.81	45.71	74.48	-0.4019	0.1507	-0.3605	
0.66917	-0.684176	0.24461	29.33	42	74.2	-0.3879	0.1569	-0.3679	
0.647088	-0.711626	0.26108	30.52	41.23	76.3	-0.3754	0.1724	-0.3784	
0.614636	-0.733952	0.28853	33.53	41.79	77.7	-0.3757	0.1614	-0.3924	
0.592188	-0.728096	0.341112	35.42	40.88	77.07	-0.3701	0.1785	-0.4	
0.56059	-0.736148	0.346968	34.51	37.03	75.39	-0.3675	0.1754	-0.4077	
0.52582	-0.75091	0.353922	36.4	36.47	74.41	-0.3561	0.1894	-0.4043	
0.499712	-0.746396	0.385154	38.43	40.39	75.11	-0.338	0.1832	-0.4102	
0.454694	-0.748714	0.423462	39.62	42.77	74.9	-0.3296	0.1941	-0.4177	
0.412604	-0.745542	0.409676	42.91	43.47	73.64	-0.3269	0.1987	-0.4238	
0.384178	-0.735538	0.439932	43.75	46.06	71.4	-0.3157	0.2003	-0.4267	
0.327082	-0.741516	0.450546	44.45	47.46	69.02	-0.3033	0.1956	-0.4373	
0.273768	-0.736758	0.476532	45.08	49.28	66.64	-0.2879	0.1956	-0.4417	
0.220454	-0.751276	0.499102	45.64	49.7	63.98	-0.2825	0.2048	-0.457	
0.175802	-0.715774	0.499224	49.21	46.34	62.16	-0.266	0.2017	-0.4769	
0.177266	-0.686616	0.506788	50.05	46.34	62.09	-0.2518	0.194	-0.4689	
0.133102	-0.702354	0.536068	50.54	47.32	61.88	-0.2493	0.211	-0.4889	
0.056608	-0.686616	0.53253	50.33	45.5	61.53	-0.2397	0.1892	-0.5012	
0.01281	-0.728584	0.52521	51.66	43.54	58.17	-0.241	0.2001	-0.4934	
0.038796	-0.719922	0.558516	58.17	40.39	55.72	-0.2186	0.1862	-0.4977	
0.04392	-0.668072	0.600728	61.18	38.5	54.32	-0.2032	0.1862	-0.5021	
-0.011468	-0.638304	0.613294	59.64	36.68	51.52	-0.2035	0.1752	-0.5161	
-0.073078	-0.662216	0.634156	57.89	35.49	48.86	-0.188	0.1629	-0.5128	
-0.103334	-0.66307	0.678686	58.17	34.37	45.78	-0.187	0.1627	-0.5345	
-0.135298	-0.643428	0.704916	58.1	31.22	40.95	-0.1771	0.1628	-0.5328	
-0.131638	-0.629886	0.721996	58.59	28.56	37.73	-0.1758	0.1612	-0.5359	
-0.111874	-0.579744	0.749202	57.26	27.86	35.07	-0.176	0.1533	-0.5483	
-0.133956	-0.56913	0.778726	53.76	28.28	32.69	-0.1662	0.1332	-0.5436	
-0.164456	-0.563762	0.772382	51.66	27.58	28.91	-0.155	0.1255	-0.5481	
-0.155916	-0.552782	0.791658	49.56	27.72	26.74	-0.155	0.1208	-0.5466	
-0.155916	-0.527406	0.802638	47.6	27.79	23.38	-0.1425	0.1208	-0.5541	
-0.155672	-0.510814	0.805078	45.36	28.49	20.37	-0.1468	0.1115	-0.5558	
-0.168238	-0.513376	0.815448	43.75	29.19	17.78	-0.1384	0.1068	-0.5588	
-0.198372	-0.477996	0.827892	42.7	28.35	15.19	-0.1301	0.1022	-0.5618	
-0.206302	-0.449814	0.818498	40.11	27.3	14.07	-0.1274	0.0851	-0.5649	
-0.18544	-0.442006	0.846192	35.98	28	13.86	-0.1204	0.0866	-0.5663	
-0.191784	-0.428342	0.87047	32.34	28.42	12.32	-0.1133	0.0867	-0.5631	
-0.236558	-0.422608	0.874374	28.07	27.72	9.1	-0.1162	0.08199999	-0.5678	
-0.261934	-0.44103	0.866566	23.94	24.85	6.16	-0.1121	0.0742	-0.5725	
-0.247172	-0.453596	0.868762	19.53	21	4.34	-0.1064	0.0774	-0.5692	
-0.232776	-0.416386	0.879132	17.22	19.6	4.27	-0.1064	0.0649	-0.5678	
-0.236192	-0.41541	0.885964	13.51	18.9	3.99	-0.0966	0.0634	-0.5676	
-0.259738	-0.421266	0.870592	10.57	17.64	2.03	-0.0867	0.0635	-0.5643	
-0.274988	-0.4209	0.852048	9.24	15.96	-0.42	-0.0924	0.0696	-0.5706	
-0.275476	-0.414556	0.857782	8.33	14.07	-2.66	-0.0895	0.0511	-0.5613	
-0.278038	-0.39833	0.871568	7.77	11.76	-4.83	-0.09519999	0.0572	-0.5692	
-0.289994	-0.405772	0.874984	6.23	8.96	-6.23	-0.084	0.0557	-0.5721	
-0.29646	-0.41175	0.886086	5.39	5.95	-6.3	-0.08679999	0.0572	-0.5705	
-0.307684	-0.407724	0.883402	4.62	2.66	-6.58	-0.0854	0.0417	-0.566	
-0.306342	-0.408334	0.885598	2.87	-0.77	-6.65	-0.0883	0.0479	-0.5768	
-0.3172	-0.411994	0.880474	1.26	-4.27	-7.07	-0.0826	0.0588	-0.572	
-0.331352	-0.399672	0.867908	-0.84	-7.84	-7.21	-0.08679999	0.051	-0.5721	
-0.328058	-0.411872	0.873154	-2.94	-12.11	-7.98	-0.08109999	0.0526	-0.5658	
-0.310612	-0.398208	0.883646	-4.76	-15.75	-9.17	-0.0955	0.0462	-0.5832	
-0.295118	-0.399672	0.8906	-8.12	-18.69	-10.99	-0.0925	0.0587	-0.5768	
-0.271694	-0.389302	0.899384	-11.27	-20.79	-13.3	-0.0954	0.0463	-0.5785	
-0.255346	-0.389546	0.88694	-15.33	-22.61	-16.03	-0.1035	0.0541	-0.5631	
-0.244488	-0.37698	0.885476	-19.53	-24.08	-18.13	-0.1122	0.0571	-0.5757	
-0.231434	-0.386252	0.8784	-24.08	-26.18	-20.44	-0.1009	0.051	-0.5709	
-0.22936	-0.415776	0.867542	-28.35	-28.42	-22.4	-0.1079	0.0649	-0.5756	
-0.220332	-0.420046	0.863882	-30.94	-30.8	-24.85	-0.1176	0.0649	-0.5664	
-0.213256	-0.437126	0.86193	-34.58	-33.25	-26.95	-0.1302	0.0788	-0.565	
-0.192882	-0.447496	0.848876	-37.59	-35.42	-29.12	-0.1316	0.0757	-0.5666	
-0.177632	-0.472262	0.839848	-41.23	-37.1	-31.22	-0.1401	0.0757	-0.5668	
-0.159332	-0.48373	0.824476	-43.4	-38.64	-33.18	-0.1357	0.08199999	-0.5574	
-0.130662	-0.50691	0.802394	-46.83	-40.6	-36.61	-0.1541	0.0927	-0.5654	
-0.099308	-0.511058	0.796782	-48.72	-41.51	-38.57	-0.1664	0.1021	-0.5516	
-0.084058	-0.490318	0.778482	-51.52	-42.35	-40.39	-0.1748	0.1145	-0.5486	
-0.064172	-0.538508	0.759938	-55.79	-43.89	-43.54	-0.1776	0.1145	-0.5502	
-0.026718	-0.55266	0.734196	-57.12	-45.08	-45.99	-0.1831	0.1254	-0.5425	
0.01098	-0.540826	0.73627	-59.29	-45.22	-47.39	-0.1857	0.127	-0.5348	
0.02745	-0.562908	0.708454	-62.93	-45.92	-49.35	-0.2053	0.1332	-0.5289	
0.03538	-0.605974	0.68137	-65.03	-46.41	-50.68	-0.2121	0.1472	-0.5212	
0.057096	-0.622444	0.657214	-65.8	-47.25	-50.89	-0.2189	0.1395	-0.5058	
0.072834	-0.649406	0.625128	-67.13	-47.39	-50.82	-0.2372	0.1611	-0.5138	
0.11651	-0.652822	0.604144	-67.34	-48.02	-50.82	-0.2399	0.1643	-0.5076	
0.17629	-0.654774	0.58255	-68.39	-48.37	-50.54	-0.2524	0.1705	-0.4954	
0.221674	-0.664168	0.554246	-68.95	-48.79	-51.03	-0.2593	0.1721	-0.4909	
0.243146	-0.67771	0.511668	-69.65	-47.88	-52.08	-0.2591	0.1876	-0.4846	
0.268278	-0.700646	0.485804	-69.23	-46.83	-53.97	-0.2716	0.1877	-0.4755	
0.296582	-0.681248	0.437004	-68.11	-46.69	-57.12	-0.2883	0.1877	-0.4665	
0.336964	-0.69357	0.395646	-68.6	-46.41	-59.78	-0.2923	0.1878	-0.4496	
0.390034	-0.722606	0.36722	-67.83	-45.92	-61.81	-0.3034	0.2017	-0.4497	
0.427122	-0.732976	0.318298	-65.45	-45.15	-64.61	-0.3145	0.1986	-0.4375	
0.493612	-0.741516	0.320982	-63.21	-42.7	-67.2	-0.3201	0.1986	-0.4345	
0.519232	-0.758352	0.302682	-62.09	-40.53	-69.37	-0.3268	0.1956	-0.4161	
0.521794	-0.772138	0.271328	-59.08	-39.55	-72.31	-0.3407	0.1925	-0.4342	
0.51606	-0.757498	0.224846	-53.83	-39.41	-73.64	-0.3323	0.1972	-0.4099	
0.565592	-0.753716	0.219722	-49.7	-36.96	-72.52	-0.3574	0.1957	-0.3965	
0.619882	-0.756766	0.232654	-46.41	-34.72	-73.43	-0.3727	0.1941	-0.3906	
0.680638	-0.784216	0.258396	-43.61	-33.46	-74.13	-0.3684	0.1864	-0.3828	
0.710284	-0.740784	0.238632	-34.72	-34.23	-72.94	-0.3795	0.1786	-0.3753	
0.723582	-0.716262	0.196786	-34.23	-35.35	-74.06	-0.3808	0.1803	-0.366	
0.712358	-0.753228	0.213744	-35.84	-36.54	-72.1	-0.4004	0.1771	-0.3602	
0.716872	-0.77409	0.175192	-31.99	-39.27	-70.35	-0.4005	0.174	-0.3665	
0.725656	-0.752984	0.187758	-24.43	-37.73	-69.09	-0.4073	0.1678	-0.3511	
0.745542	-0.727974	0.194102	-21	-36.96	-66.29	-0.4058	0.1508	-0.3419	
0.746518	-0.685396	0.155428	-18.48	-37.24	-64.12	-0.4142	0.1508	-0.3421	
0.793244	-0.691374	0.173972	-19.95	-36.82	-56.84	-0.4281	0.1337	-0.3316	
0.83692	-0.679174	0.16653	-17.22	-36.19	-49.21	-0.4308	0.1229	-0.324	
0.858514	-0.636962	0.145912	-15.54	-35.14	-44.52	-0.432	0.1214	-0.3116	
0.863638	-0.614026	0.108336	-16.66	-33.04	-41.3	-0.4406	0.1183	-0.3165	
0.866688	-0.652944	0.096746	-20.51	-32.69	-40.88	-0.4403	0.1215	-0.2994	
0.879376	-0.67832	0.10065	-20.51	-32.27	-38.22	-0.446	0.1199	-0.3042	
0.887672	-0.656482	0.080886	-15.4	-33.04	-33.11	-0.4471	0.1138	-0.2887	
0.881572	-0.637694	0.06222	-12.39	-34.58	-29.33	-0.446	0.1121	-0.3027	
0.902678	-0.650992	0.064782	-9.38	-32.06	-25.55	-0.4485	0.1029	-0.2857	
0.895602	-0.639402	0.056608	-5.04	-28.7	-20.86	-0.4558	0.1075	-0.2983	
0.887184	-0.623542	0.045628	-1.05	-26.74	-17.08	-0.4639	0.0889	-0.2784	
0.877424	-0.60451	0.013176	3.5	-23.31	-13.65	-0.4639	0.0889	-0.2799	
0.876326	-0.60451	0.011468	4.41	-20.65	-10.15	-0.461	0.09519999	-0.2721	
0.884622	-0.59109	0.015128	5.74	-18.2	-6.72	-0.4624	0.08899999	-0.2706	
0.887794	-0.574742	0.015128	7.84	-16.94	-2.52	-0.472	0.09519999	-0.263	
0.887184	-0.560956	0.009638	9.03	-14.98	-0.91	-0.4623	0.0968	-0.2705	
0.879254	-0.549122	0.000732	8.05	-12.88	-0.07	-0.4665	0.0906	-0.2645	
0.87962	-0.552904	0.004392	7.56	-11.62	0.35	-0.4679	0.0781	-0.2646	
0.884012	-0.552172	-0.003294	7.98	-11.48	1.4	-0.465	0.0844	-0.2614	
0.879986	-0.559248	0.014762	10.29	-9.03	2.24	-0.4622	0.086	-0.2582	
0.886452	-0.55022	0.020008	13.65	-6.02	2.87	-0.4691	0.0937	-0.2536	
0.90402	-0.537898	0.0305	14.49	-2.03	3.64	-0.4665	0.09209999	-0.2645	
0.901214	-0.538264	0.022326	14	1.47	3.99	-0.4733	0.0891	-0.2522	
0.897432	-0.549366	0.01891	13.02	4.62	3.64	-0.472	0.0844	-0.2584	
0.896456	-0.572302	0.032086	12.11	7.07	3.22	-0.4721	0.0735	-0.2616	
0.91012	-0.58987	0.051362	12.18	9.8	4.62	-0.4651	0.09209999	-0.2644	
0.901824	-0.60207	0.053314	13.65	13.02	8.12	-0.465	0.09209999	-0.2613	
0.899994	-0.598166	0.049044	17.71	14.84	11.97	-0.4679	0.0875	-0.2645	
0.889868	-0.584746	0.048312	18.62	17.36	14.84	-0.4736	0.08899999	-0.2693	
0.899628	-0.606706	0.06466	16.73	19.53	16.1	-0.4652	0.0874	-0.2738	
0.90219	-0.622444	0.077592	16.1	22.96	20.09	-0.4498	0.0905	-0.2765	
0.902678	-0.6283	0.092964	17.01	26.25	25.13	-0.4582	0.0967	-0.2736	
0.890112	-0.617564	0.091256	19.74	29.26	30.1	-0.4625	0.1044	-0.2829	
0.878034	-0.606584	0.119926	20.23	32.2	33.74	-0.4557	0.1013	-0.2936	
0.852292	-0.604388	0.13725	18.41	32.76	37.17	-0.4529	0.1059	-0.2982	
0.834724	-0.61915	0.134932	16.52	31.29	40.04	-0.4573	0.1105	-0.306	
0.827648	-0.64233	0.156282	15.12	32.83	44.45	-0.4615	0.1089	-0.3077	
0.823744	-0.664778	0.160308	15.82	35.7	49.35	-0.435	0.1167	-0.3164	
0.821792	-0.654042	0.1769	20.58	40.32	54.6	-0.442	0.1244	-0.3211	
0.804956	-0.61976	0.209596	23.8	44.8	57.19	-0.4293	0.126	-0.3193	
0.785436	-0.613416	0.205082	21.49	44.66	56.63	-0.4224	0.1431	-0.3284	
0.76067	-0.651358	0.233874	17.22	45.78	58.24	-0.417	0.1415	-0.3422	
0.7198	-0.689788	0.248392	16.31	47.46	59.5	-0.4171	0.1538	-0.3468	
0.688934	-0.701744	0.279136	17.15	47.39	62.93	-0.4002	0.1601	-0.3495	
0.651968	-0.723826	0.267912	17.01	46.97	62.72	-0.4032	0.16	-0.3604	
0.608658	-0.72529	0.226676	20.37	50.26	66.36	-0.3893	0.1693	-0.3694	
0.575962	-0.726022	0.28121	19.53	51.52	67.27	-0.3809	0.1818	-0.3738	
0.551806	-0.782142	0.303658	21.28	49.91	69.37	-0.3741	0.1833	-0.3845	
0.506178	-0.802638	0.296826	24.85	46.9	70.21	-0.3629	0.1848	-0.3889	
0.482266	-0.820694	0.34343	30.73	44.17	70.77	-0.3518	0.191	-0.4011	
0.46726	-0.772016	0.328302	35.63	39.2	71.89	-0.3434	0.1972	-0.4009	
0.446154	-0.76433	0.359046	39.48	38.85	70.28	-0.3365	0.1988	-0.41	
0.424926	-0.748592	0.369416	40.46	36.82	68.6	-0.3212	0.1941	-0.416	
0.39894	-0.766526	0.391986	41.44	36.4	67.62	-0.3212	0.1987	-0.4221	
0.365634	-0.80032	0.394792	41.58	37.31	67.55	-0.3088	0.1987	-0.4343	
0.353678	-0.787266	0.423706	46.55	38.64	68.88	-0.3016	0.2065	-0.4279	
0.329766	-0.740906	0.453352	48.86	39.13	67.27	-0.2949	0.208	-0.4448	
0.293532	-0.729804	0.46787	47.46	40.18	66.78	-0.2908	0.2049	-0.4494	
0.249124	-0.741516	0.477264	46.27	41.72	65.1	-0.2728	0.2033	-0.4661	
0.220332	-0.7259	0.47336	47.46	44.03	62.58	-0.2672	0.2126	-0.4706	
0.217282	-0.700646	0.490562	47.6	45.71	58.66	-0.2561	0.2095	-0.475	
0.17629	-0.71919	0.512644	47.81	46.41	55.44	-0.2394	0.2064	-0.4856	
0.123464	-0.73261	0.523502	48.51	46.27	50.96	-0.2381	0.1986	-0.4903	
0.08686399	-0.713578	0.54168	50.82	45.99	48.23	-0.2255	0.2079	-0.4962	
0.069662	-0.698938	0.571082	50.54	43.89	46.83	-0.2172	0.1955	-0.4992	
0.049044	-0.688446	0.596214	49.77	40.32	46.83	-0.2116	0.1939	-0.5038	
0.036722	-0.692472	0.604022	48.3	37.24	47.11	-0.2005	0.1846	-0.5083	
0.036234	-0.652822	0.6222	47.67	34.44	48.44	-0.1994	0.1767	-0.5238	
0.0305	-0.628788	0.638914	45.71	32.41	47.53	-0.1867	0.1721	-0.5205	
0.00427	-0.648918	0.655262	44.31	31.22	45.01	-0.184	0.1659	-0.5251	
-0.094428	-0.659166	0.683932	46.34	29.75	37.59	-0.1729	0.1612	-0.5312	
-0.150182	-0.65758	0.70272	47.39	27.79	33.53	-0.1799	0.1628	-0.5313	
-0.165798	-0.668194	0.725778	48.93	23.8	29.61	-0.1633	0.1581	-0.5434	
-0.175436	-0.662582	0.75579	51.8	19.88	26.18	-0.1547	0.1442	-0.534	
-0.177388	-0.646478	0.775554	53.48	16.66	25.13	-0.1535	0.1488	-0.5479	
-0.152744	-0.609634	0.805078	54.04	14.28	24.22	-0.1494	0.1317	-0.548	
-0.115046	-0.537654	0.798978	51.94	15.4	23.03	-0.1467	0.1332	-0.5526	
-0.113704	-0.490684	0.808372	46.06	17.64	22.96	-0.1425	0.127	-0.5572	
-0.127856	-0.501176	0.813496	40.46	20.37	20.44	-0.1495	0.1255	-0.5511	
-0.149572	-0.487512	0.806664	37.94	22.33	16.24	-0.1369	0.1146	-0.5556	
-0.171288	-0.49288	0.7991	35.84	23.38	13.93	-0.1411	0.1115	-0.5526	
-0.179218	-0.482144	0.806664	34.93	22.96	13.37	-0.1245	0.1022	-0.5632	
-0.18422	-0.457378	0.825452	33.88	22.54	13.65	-0.1232	0.0959	-0.5679	
-0.189466	-0.447496	0.827526	31.5	21.91	14.21	-0.1244	0.0898	-0.5586	
-0.193492	-0.45689	0.853268	28.35	21.84	13.3	-0.1162	0.0773	-0.5679	
-0.203496	-0.458964	0.85705	25.9	22.12	11.9	-0.1147	0.0882	-0.5662	
-0.212646	-0.460306	0.858514	23.52	22.82	10.01	-0.1008	0.0774	-0.5691	
-0.23119	-0.465186	0.863638	21.28	22.47	8.05	-0.1092	0.0727	-0.5662	
-0.240218	-0.45933	0.862784	19.53	20.86	6.86	-0.1021	0.0758	-0.5661	
-0.255102	-0.456768	0.867054	17.99	19.32	5.46	-0.1049	0.0665	-0.5631	
-0.262544	-0.45567	0.858636	16.24	17.08	4.34	-0.09519999	0.0634	-0.5691	
-0.256688	-0.445422	0.859978	14.91	15.26	3.36	-0.1008	0.065	-0.5692	
-0.246684	-0.424682	0.874374	13.16	13.72	2.17	-0.098	0.0588	-0.5692	
-0.261568	-0.42639	0.861442	11.13	13.02	0.28	-0.091	0.0619	-0.569	
-0.260592	-0.433588	0.858148	10.01	11.83	-2.31	-0.08419999	0.0525	-0.5814	
-0.26962	-0.425658	0.861198	9.52	10.5	-4.55	-0.0898	0.0556	-0.5815	
-0.276574	-0.425658	0.872178	7.98	7.7	-6.65	-0.0772	0.0432	-0.5813	
-0.2867	-0.424682	0.874862	7.28	5.53	-7.49	-0.0813	0.0494	-0.5782	
-0.274988	-0.411628	0.88084	6.16	3.08	-7.56	-0.0812	0.051	-0.572	
-0.287188	-0.407236	0.887306	4.13	1.19	-7.56	-0.0785	0.0417	-0.5782	
-0.296338	-0.423218	0.884134	2.03	-0.98	-7.63	-0.0813	0.051	-0.5767	
-0.289994	-0.410286	0.874252	1.26	-2.66	-8.12	-0.08549999	0.0479	-0.5737	
-0.283772	-0.410286	0.87169	-0.35	-4.41	-8.96	-0.08109999	0.0542	-0.5674	
-0.277306	-0.394426	0.87108	-1.89	-5.81	-10.22	-0.0896	0.0386	-0.5692	
-0.272304	-0.396866	0.878888	-4.2	-7.28	-11.34	-0.0897	0.0479	-0.5769	
-0.269864	-0.388936	0.881572	-6.23	-8.82	-12.53	-0.08549999	0.0463	-0.5752	
-0.266448	-0.398574	0.882792	-8.68	-10.22	-13.86	-0.0882	0.0495	-0.5706	
-0.274012	-0.403088	0.879864	-10.71	-11.62	-15.33	-0.0925	0.0432	-0.5739	
-0.2684	-0.402966	0.880352	-12.67	-13.93	-16.31	-0.0967	0.0525	-0.5708	
-0.26352	-0.409554	0.892308	-15.61	-16.66	-17.01	-0.0954	0.0525	-0.5769	
-0.266082	-0.422608	0.884012	-18.41	-19.88	-17.71	-0.0981	0.0587	-0.5754	
-0.255712	-0.426146	0.875594	-20.72	-22.89	-18.76	-0.1008	0.0556	-0.5693	
-0.254004	-0.443348	0.859002	-23.31	-25.9	-19.67	-0.108	0.0556	-0.5756	
-0.246684	-0.442372	0.85095	-25.06	-29.12	-20.93	-0.1079	0.0727	-0.5739	
-0.236192	-0.453718	0.843752	-27.65	-32.76	-22.05	-0.1135	0.0695	-0.5741	
-0.21899	-0.451522	0.84546	-29.68	-36.33	-23.24	-0.1176	0.0758	-0.5695	
-0.201788	-0.462502	0.834114	-33.25	-39.9	-23.94	-0.133	0.0773	-0.5635	
-0.18605	-0.485194	0.830698	-36.47	-42.77	-24.43	-0.1259	0.0866	-0.5633	
-0.160552	-0.487756	0.830576	-39.2	-44.94	-25.27	-0.1397	0.0945	-0.548	
-0.137006	-0.493856	0.818132	-41.79	-47.11	-27.09	-0.1412	0.0898	-0.5512	
-0.109678	-0.506788	0.80581	-44.59	-49	-29.47	-0.1509	0.0975	-0.5482	
-0.063074	-0.514352	0.765306	-48.37	-51.38	-32.9	-0.1551	0.0975	-0.5483	
-0.029158	-0.527894	0.747494	-50.47	-51.87	-34.3	-0.1746	0.1146	-0.5393	
0.00061	-0.53131	0.73261	-52.43	-51.87	-35.7	-0.1817	0.1161	-0.541	
0.028426	-0.554002	0.709552	-54.11	-51.66	-37.8	-0.1912	0.1255	-0.5256	
0.057584	-0.562542	0.68503	-54.74	-51.1	-40.25	-0.2038	0.1347	-0.5273	
0.090646	-0.560712	0.686372	-56.42	-50.33	-42.56	-0.2122	0.1363	-0.5243	
0.107482	-0.61915	0.65392	-59.92	-50.05	-44.59	-0.2192	0.1503	-0.5228	
0.16104	-0.64843	0.653798	-59.01	-48.44	-45.64	-0.2345	0.1472	-0.5123	
0.198738	-0.658312	0.638182	-59.43	-45.92	-47.11	-0.2301	0.1534	-0.5316	
0.221796	-0.678076	0.61122	-60.9	-44.24	-48.72	-0.2597	0.1626	-0.5096	
0.236558	-0.691862	0.561932	-61.39	-43.33	-51.59	-0.2538	0.1627	-0.494	
0.25559	-0.6954	0.51728	-61.25	-42.63	-53.2	-0.2608	0.1705	-0.4956	
0.282308	-0.70089	0.482876	-61.18	-42.07	-54.46	-0.2662	0.1721	-0.4848	
0.329034	-0.700524	0.46665	-61.53	-41.3	-55.37	-0.2842	0.169	-0.4681	
0.360998	-0.706746	0.435052	-62.51	-40.81	-56.7	-0.2883	0.1799	-0.4619	
0.385032	-0.703086	0.41175	-62.79	-39.69	-58.87	-0.291	0.1846	-0.4558	
0.392474	-0.700158	0.368684	-63.07	-39.27	-60.62	-0.3035	0.1877	-0.4498	
0.43066	-0.711382	0.355264	-63.14	-39.34	-61.25	-0.3117	0.18	-0.436	
0.486536	-0.72895	0.335378	-61.11	-40.04	-62.79	-0.3188	0.1908	-0.4423	
0.523624	-0.756034	0.343552	-59.43	-41.37	-64.19	-0.3243	0.1862	-0.4331	
0.534848	-0.76677	0.341722	-56.21	-41.44	-64.82	-0.3325	0.1972	-0.4193	
0.536922	-0.766648	0.301706	-52.57	-42	-65.59	-0.3366	0.1878	-0.4163	
0.543144	-0.762866	0.277672	-47.04	-40.53	-65.17	-0.3604	0.1862	-0.409	
0.573522	-0.775188	0.28548	-43.96	-39.06	-65.17	-0.3617	0.1816	-0.3998	
0.605974	-0.792756	0.287432	-38.78	-39.9	-65.24	-0.3643	0.1833	-0.3905	
0.63013	-0.77653	0.280234	-33.11	-40.25	-64.12	-0.3727	0.177	-0.3876	
0.660386	-0.743346	0.272182	-27.37	-38.64	-61.6	-0.392	0.1725	-0.3648	
0.687348	-0.715286	0.251564	-24.36	-36.54	-60.9	-0.3947	0.1678	-0.3571	
0.723948	-0.739686	0.274744	-23.52	-32.34	-60.69	-0.3949	0.1554	-0.3634	
0.729438	-0.729194	0.236314	-19.67	-31.99	-60.62	-0.4044	0.1616	-0.3496	
0.727364	-0.701744	0.24949	-15.47	-28.14	-61.18	-0.4128	0.1492	-0.3436	
0.72895	-0.69845	0.236436	-13.93	-24.92	-59.78	-0.4227	0.1445	-0.3439	
0.736026	-0.676246	0.224602	-13.23	-22.4	-57.12	-0.4157	0.1337	-0.3422	
0.761768	-0.666242	0.210938	-14.21	-23.8	-56.7	-0.417	0.126	-0.3377	
0.779336	-0.663436	0.181902	-13.58	-24.36	-53.34	-0.4266	0.1198	-0.3224	
0.80581	-0.65636	0.169336	-13.23	-23.45	-49.77	-0.4323	0.112	-0.3241	
0.797392	-0.63745	0.160674	-13.72	-23.1	-46.27	-0.4338	0.1011	-0.3289	
0.806786	-0.63745	0.16165	-13.37	-25.27	-44.1	-0.4393	0.1073	-0.3243	
0.823256	-0.630374	0.143106	-13.02	-27.58	-41.3	-0.4335	0.109	-0.3118	
0.83387	-0.620248	0.116876	-12.88	-30.31	-39.2	-0.4433	0.095	-0.3043	
0.84241	-0.625128	0.113216	-12.53	-29.96	-36.26	-0.4489	0.0903	-0.3075	
0.85034	-0.616344	0.10553	-10.15	-31.22	-32.2	-0.4459	0.0889	-0.292	
0.866322	-0.608292	0.116266	-7.98	-31.85	-30.24	-0.446	0.0826	-0.2982	
0.880108	-0.595726	0.12749	-4.27	-31.43	-28.07	-0.4642	0.081	-0.2955	
0.895236	-0.579866	0.120902	-0.56	-31.43	-25.76	-0.4598	0.0749	-0.2846	
0.893894	-0.551928	0.109556	3.85	-29.26	-22.75	-0.4599	0.0702	-0.2862	
0.898652	-0.536434	0.097966	6.51	-25.62	-20.65	-0.4598	0.0687	-0.2784	
0.902434	-0.517524	0.096136	7.56	-21.91	-18.83	-0.4654	0.0703	-0.2801	
0.87779	-0.482022	0.073322	8.96	-19.95	-17.92	-0.4682	0.0594	-0.2756	
0.883646	-0.475678	0.061488	7	-18.06	-18.83	-0.4738	0.0625	-0.2772	
0.91866	-0.501542	0.080154	3.36	-13.51	-19.67	-0.4654	0.0563	-0.2786	
0.924272	-0.499346	0.064782	4.2	-9.45	-17.71	-0.4708	0.0517	-0.2648	
0.920978	-0.475312	0.049166	6.72	-5.25	-15.54	-0.4681	0.0548	-0.2679	
0.920856	-0.470798	0.051362	5.11	-3.36	-14.07	-0.4735	0.0455	-0.2572	
0.915732	-0.472506	0.05307	2.87	-1.96	-12.25	-0.4793	0.0486	-0.2681	
0.914756	-0.479582	0.035868	2.73	-1.61	-10.78	-0.4793	0.0408	-0.2651	
0.924028	-0.491782	0.049776	4.55	-0.63	-9.94	-0.4737	0.0362	-0.265	
0.935374	-0.471408	0.055754	7.49	0.63	-8.33	-0.4752	0.0284	-0.2666	
0.94123	-0.454572	0.0671	8.05	2.38	-6.65	-0.4737	0.0377	-0.2634	
0.944646	-0.45567	0.06954	7.35	3.57	-5.6	-0.478	0.0346	-0.2682	
0.954894	-0.467504	0.071126	7.28	5.67	-4.55	-0.4737	0.0253	-0.2635	
0.953308	-0.465186	0.074298	7.7	7.63	-2.03	-0.4837	0.0268	-0.273	
0.9577	-0.46055	0.083448	8.61	9.17	0.77	-0.4696	0.0268	-0.2681	
0.95343	-0.449936	0.082838	9.52	10.85	4.13	-0.4768	0.0361	-0.279	
0.95282	-0.455426	0.076738	9.73	12.46	5.81	-0.4696	0.0392	-0.2742	
0.951966	-0.46909	0.076372	9.45	14.98	7.49	-0.4727	0.0345	-0.2852	
0.957334	-0.477264	0.09467199	9.66	17.71	9.94	-0.4697	0.033	-0.2758	
0.956724	-0.483364	0.108824	10.64	20.44	13.37	-0.467	0.0283	-0.2835	
0.964654	-0.483242	0.113704	11.69	23.1	17.08	-0.4642	0.0268	-0.2835	
0.970754	-0.50142	0.126758	11.9	26.32	20.3	-0.4714	0.036	-0.2944	
0.965386	-0.508252	0.126514	13.09	29.75	24.99	-0.4687	0.0359	-0.299	
0.949282	-0.504592	0.133956	15.26	33.32	28.98	-0.463	0.0375	-0.2989	
0.948428	-0.50203	0.148352	15.61	37.38	32.76	-0.4661	0.0452	-0.316	
0.941474	-0.50447	0.157868	15.47	41.16	36.19	-0.4618	0.0483	-0.3112	
0.932934	-0.512156	0.166164	15.12	43.68	40.46	-0.4551	0.042	-0.3266	
0.918294	-0.499956	0.16104	16.17	45.01	44.38	-0.4465	0.053	-0.3186	
0.90463	-0.504714	0.191418	14.7	45.99	46.97	-0.4524	0.0621	-0.3357	
0.900482	-0.510326	0.20618	14.28	46.06	48.58	-0.4453	0.0653	-0.334	
0.856196	-0.537166	0.23302	12.6	49.07	52.5	-0.437	0.0823	-0.3477	
0.848998	-0.56547	0.259128	14.14	47.67	57.75	-0.4247	0.0853	-0.3645	
0.814472	-0.585722	0.255834	17.36	47.39	63.07	-0.4232	0.09	-0.3613	
0.808494	-0.57645	0.276818	21.91	47.11	68.04	-0.4051	0.0993	-0.3733	
0.79056	-0.563274	0.28121	23.66	46.76	69.09	-0.4121	0.1024	-0.3703	
0.773236	-0.564738	0.30805	23.66	47.11	71.4	-0.4068	0.107	-0.3903	
0.737124	-0.586454	0.324764	21.63	47.04	72.52	-0.3969	0.1132	-0.3886	
0.707478	-0.603168	0.321104	21.7	46.83	74.41	-0.376	0.1148	-0.4021	
0.679174	-0.63074	0.344406	22.75	48.79	76.72	-0.3746	0.1241	-0.4051	
0.63562	-0.658068	0.371734	24.71	49.91	77.63	-0.3647	0.1474	-0.4032	
0.597678	-0.683688	0.40138	25.97	50.05	78.4	-0.3524	0.138	-0.4216	
0.559248	-0.69967	0.422974	27.86	49.35	79.59	-0.3608	0.1489	-0.4202	
0.524478	-0.714188	0.460672	31.92	49.91	79.66	-0.3399	0.1628	-0.4383	
0.47763	-0.699792	0.486048	33.95	50.33	79.87	-0.3272	0.1567	-0.4334	
0.432246	-0.699548	0.494466	33.39	50.54	78.19	-0.312	0.169	-0.4501	
0.392962	-0.709186	0.49837	32.76	51.87	77.42	-0.3162	0.1722	-0.447	
0.346968	-0.72712	0.501908	32.06	53.76	76.65	-0.2996	0.1799	-0.4653	
0.303048	-0.728828	0.495442	32.97	55.02	75.04	-0.2869	0.1706	-0.462	
0.261934	-0.729804	0.471774	37.38	55.65	74.13	-0.2842	0.1659	-0.4666	
0.22936	-0.692106	0.487878	41.3	56.7	72.94	-0.2747	0.1674	-0.4866	
0.194712	-0.639158	0.495442	42.07	56.49	69.51	-0.2594	0.1565	-0.4941	
0.12139	-0.645014	0.510936	40.74	56.07	66.43	-0.2467	0.1675	-0.4907	
0.065026	-0.67405	0.508862	40.18	55.58	62.23	-0.2453	0.1752	-0.4968	
0.064538	-0.663558	0.549366	44.1	54.18	57.33	-0.2258	0.1659	-0.5027	
0.05063	-0.625006	0.575962	44.66	51.45	53.97	-0.2148	0.1612	-0.5149	
0.01586	-0.673318	0.610122	42	47.88	46.06	-0.2076	0.1659	-0.5101	
0.024522	-0.673196	0.641964	42.77	45.78	44.24	-0.2023	0.1519	-0.5225	
0.013786	-0.653554	0.662216	43.82	45.71	41.37	-0.1925	0.1534	-0.5269	
-0.030134	-0.663924	0.671244	42.77	44.59	39.76	-0.1842	0.1472	-0.533	
-0.074542	-0.684542	0.683688	44.1	43.82	36.82	-0.1717	0.1503	-0.5405	
-0.088084	-0.651846	0.697352	47.39	41.23	35	-0.1633	0.1395	-0.542	
-0.095038	-0.620248	0.701744	47.11	38.15	32.9	-0.1604	0.1302	-0.5342	
-0.109556	-0.62708	0.719312	46.41	36.54	30.45	-0.1423	0.1349	-0.5463	
-0.134932	-0.626226	0.74786	45.99	34.44	29.05	-0.148	0.1332	-0.551	
-0.170678	-0.600484	0.7625	46.13	32.62	27.23	-0.1354	0.124	-0.5508	
-0.159088	-0.576572	0.786412	45.22	30.52	25.34	-0.1313	0.1115	-0.554	
-0.162138	-0.551318	0.810812	44.1	28.14	22.61	-0.13	0.1099	-0.5617	
-0.183244	-0.527284	0.82167	41.37	25.83	20.93	-0.1244	0.1022	-0.5585	
-0.200934	-0.520574	0.823012	38.08	24.22	20.16	-0.1245	0.0866	-0.5633	
-0.20496	-0.50813	0.838994	35.49	22.82	18.9	-0.1147	0.0913	-0.5646	
-0.207156	-0.503982	0.838994	32.97	20.44	17.15	-0.1091	0.0851	-0.5677	
-0.196176	-0.48068	0.840214	31.85	20.23	15.82	-0.1147	0.0743	-0.5632	
-0.196664	-0.440176	0.83997	28.77	20.86	14.91	-0.1049	0.0712	-0.5646	
-0.22082	-0.461892	0.838506	24.64	20.3	12.74	-0.1022	0.0711	-0.5707	
-0.216672	-0.463478	0.84058	23.38	19.39	10.71	-0.098	0.0681	-0.5691	
-0.207034	-0.432978	0.845216	22.68	20.09	9.1	-0.1038	0.0602	-0.5771	
-0.217892	-0.426512	0.861198	20.23	20.23	7.42	-0.084	0.065	-0.5704	
-0.245098	-0.424682	0.848998	18.27	19.53	5.95	-0.0854	0.0479	-0.5721	
-0.258396	-0.436882	0.843874	16.17	17.99	4.62	-0.0882	0.0495	-0.5706	
-0.26352	-0.426268	0.865102	14.91	17.08	3.71	-0.0825	0.0526	-0.5674	
-0.283528	-0.427244	0.884622	12.95	14.63	2.52	-0.0799	0.0557	-0.5782	
-0.285114	-0.416996	0.884988	10.5	10.43	1.12	-0.08549999	0.0525	-0.5768	
-0.277672	-0.430782	0.874618	8.61	8.12	0.21	-0.0771	0.0526	-0.5781	
-0.300364	-0.439566	0.859612	7.7	5.39	-0.42	-0.07009999	0.0386	-0.5781	
-0.300608	-0.423706	0.859978	6.93	2.03	-0.35	-0.0757	0.0371	-0.5736	
-0.297436	-0.40687	0.857172	5.6	-1.26	-0.91	-0.0699	0.0387	-0.5641	
-0.309148	-0.426756	0.863882	3.99	-4.76	-2.94	-0.0703	0.0339	-0.5874	
-0.317078	-0.424072	0.859124	3.92	-8.54	-5.04	-0.0728	0.034	-0.5689	
-0.306952	-0.41724	0.869616	3.5	-12.04	-6.79	-0.0698	0.0341	-0.5611	
-0.29158	-0.394548	0.883402	2.52	-15.26	-8.05	-0.0773	0.0339	-0.5845	
-0.265472	-0.3965	0.892308	0.56	-17.78	-9.94	-0.0757	0.0401	-0.5782	
-0.24766	-0.398086	0.893894	-1.26	-19.46	-11.55	-0.084	0.034	-0.5691	
-0.238754	-0.386862	0.889136	-3.43	-20.23	-12.81	-0.0785	0.0401	-0.5767	
-0.23058	-0.385398	0.89548	-6.02	-20.51	-14.21	-0.0883	0.0479	-0.5722	
-0.223626	-0.386862	0.896212	-8.82	-21.28	-16.59	-0.0882	0.0355	-0.5676	
-0.216184	-0.401502	0.884988	-11.76	-22.4	-17.85	-0.0954	0.0401	-0.5755	
-0.21228	-0.396378	0.88633	-14	-23.87	-18.55	-0.1025	0.0384	-0.5818	
-0.207766	-0.40626	0.881938	-17.43	-25.97	-18.9	-0.1079	0.0416	-0.5695	
-0.19764	-0.414068	0.878644	-19.88	-27.93	-19.67	-0.1022	0.0448	-0.5632	
-0.188978	-0.431758	0.867542	-22.61	-29.89	-20.51	-0.1149	0.0463	-0.5696	
-0.185196	-0.436882	0.86742	-24.08	-32.06	-21.07	-0.1304	0.0493	-0.573	
-0.1708	-0.432368	0.857782	-26.18	-34.86	-21.07	-0.122	0.054	-0.5713	
-0.148108	-0.451034	0.85583	-28.35	-37.38	-21.14	-0.1317	0.0649	-0.5652	
-0.115412	-0.449936	0.850706	-29.68	-39.48	-21.28	-0.1303	0.0586	-0.5667	
-0.088572	-0.461404	0.86071	-33.11	-40.67	-20.86	-0.1402	0.0663	-0.5715	
-0.065026	-0.489098	0.850828	-35.42	-42.14	-21.35	-0.147	0.0602	-0.5562	
-0.035868	-0.486902	0.840336	-37.52	-42.14	-20.16	-0.1609	0.0804	-0.5501	
-0.007442	-0.523136	0.817766	-41.44	-41.93	-20.23	-0.1763	0.09119999	-0.5488	
0.014396	-0.546926	0.795196	-42.56	-41.72	-19.88	-0.1764	0.0896	-0.555	
0.04331	-0.55937	0.79239	-43.82	-41.09	-19.11	-0.1847	0.0989	-0.552	
0.057218	-0.577792	0.779336	-45.64	-40.81	-18.62	-0.1888	0.09739999	-0.5443	
0.07686	-0.600118	0.75762	-47.25	-40.46	-17.36	-0.203	0.1159	-0.5538	
0.109312	-0.615368	0.736514	-48.86	-39.83	-16.17	-0.1999	0.1222	-0.5397	
0.140666	-0.630618	0.72773	-50.4	-38.64	-14.21	-0.2082	0.1207	-0.5321	
0.156038	-0.652578	0.702476	-53.06	-38.08	-12.95	-0.2053	0.127	-0.5289	
0.165554	-0.706868	0.659532	-54.88	-37.94	-11.41	-0.2262	0.1363	-0.5184	
0.17507	-0.727364	0.604022	-52.71	-37.8	-10.71	-0.2305	0.1378	-0.5231	
0.18361	-0.72407	0.573766	-50.12	-37.87	-9.31	-0.2275	0.1472	-0.5168	
0.176778	-0.737246	0.547658	-48.44	-38.99	-7.49	-0.24	0.1549	-0.5092	
0.178974	-0.7625	0.538264	-46.55	-41.44	-5.46	-0.2287	0.1627	-0.509	
0.18849	-0.776408	0.52765	-43.75	-44.03	-3.43	-0.2426	0.1674	-0.4999	
0.214354	-0.801906	0.526064	-41.37	-45.78	-0.91	-0.2536	0.1721	-0.4846	
0.237168	-0.79544	0.52277	-37.52	-47.6	1.19	-0.2648	0.1814	-0.4847	
0.258152	-0.782874	0.49044	-34.79	-48.3	2.87	-0.2646	0.1846	-0.4769	
0.295972	-0.798734	0.49959	-34.09	-46.97	6.09	-0.2715	0.1924	-0.4677	
0.31232	-0.816058	0.493246	-32.62	-45.08	7.98	-0.2742	0.1971	-0.4631	
0.344772	-0.7991	0.507154	-29.4	-42.21	7.98	-0.2755	0.2064	-0.4599	
0.366488	-0.78385	0.503982	-27.51	-39.13	6.58	-0.2796	0.208	-0.4538	
0.394426	-0.787754	0.50935	-26.6	-33.81	5.04	-0.2838	0.2111	-0.4554	
0.408578	-0.80215	0.515084	-25.62	-27.3	1.75	-0.2922	0.2219	-0.4509	
0.416874	-0.808006	0.510936	-24.08	-22.05	-0.35	-0.2891	0.2127	-0.4369	
0.412482	-0.800442	0.510204	-21.42	-14.49	-1.89	-0.3005	0.2204	-0.4464	
0.41663	-0.807518	0.49959	-20.86	-6.02	-3.64	-0.2876	0.2174	-0.4337	
0.416142	-0.808982	0.492758	-19.95	2.17	-7	-0.3016	0.2205	-0.4293	
0.39711	-0.800564	0.487512	-19.6	9.31	-9.66	-0.299	0.2235	-0.4432	
0.379298	-0.809958	0.475434	-19.88	15.26	-11.48	-0.2905	0.2298	-0.4368	
0.38186	-0.814838	0.461648	-18.9	20.23	-11.83	-0.2918	0.2236	-0.4594	
0.384544	-0.813862	0.458354	-17.71	26.39	-12.11	-0.2933	0.2283	-0.4353	
0.377956	-0.820694	0.464698	-17.29	31.01	-13.23	-0.2933	0.2236	-0.4354	
0.366366	-0.825696	0.456768	-17.36	36.19	-14.91	-0.2821	0.2283	-0.4382	
0.354166	-0.84729	0.454816	-17.43	40.32	-15.89	-0.2736	0.2283	-0.4365	
0.35624	-0.844362	0.4514	-15.12	44.03	-15.33	-0.2877	0.2314	-0.4367	
0.360266	-0.8296	0.46543	-13.23	47.39	-15.26	-0.2709	0.2376	-0.4426	
0.358436	-0.81984	0.45445	-12.32	50.47	-16.45	-0.2738	0.2282	-0.4504	
0.345138	-0.82167	0.477264	-11.83	55.37	-19.95	-0.2626	0.2298	-0.4518	
0.332816	-0.809348	0.471286	-11.83	59.36	-24.99	-0.2571	0.2282	-0.4594	
0.329156	-0.808128	0.467748	-15.33	60.48	-28.49	-0.2641	0.2344	-0.458	
0.328424	-0.851804	0.45018	-17.36	61.67	-30.38	-0.2528	0.2252	-0.4532	
0.324642	-0.870226	0.44896	-14.28	63.56	-33.11	-0.253	0.2267	-0.464	
0.322202	-0.80337	0.464576	-11.13	68.32	-36.33	-0.246	0.2391	-0.4684	
0.315858	-0.79849	0.465308	-16.31	70.91	-42.84	-0.2433	0.2359	-0.4762	
0.2867	-0.835212	0.45994	-18.2	73.43	-43.33	-0.2265	0.2329	-0.479	
0.28426	-0.85217	0.440786	-18.83	75.74	-44.66	-0.2224	0.2297	-0.4836	
0.284382	-0.844972	0.45445	-15.75	79.66	-48.37	-0.2266	0.2173	-0.4791	
0.293288	-0.809104	0.477264	-15.89	84.91	-48.09	-0.2169	0.2282	-0.4881	
0.287188	-0.809348	0.483242	-18.13	87.99	-49.98	-0.21	0.2266	-0.4973	
0.288408	-0.809592	0.486292	-22.05	91.28	-49.63	-0.2087	0.2281	-0.5035	
0.274622	-0.836798	0.488732	-26.11	92.19	-45.78	-0.1958	0.2251	-0.4908	
0.226798	-0.854366	0.463844	-25.48	91.84	-47.95	-0.1792	0.2205	-0.5014	
0.242414	-0.831674	0.485194	-23.94	91.84	-48.23	-0.1736	0.2313	-0.5074	
0.25254	-0.824842	0.48556	-24.5	92.4	-45.64	-0.1553	0.2314	-0.5039	
0.226554	-0.85339	0.466284	-27.72	87.36	-41.44	-0.1525	0.2267	-0.5055	
0.188124	-0.853634	0.465308	-24.99	88.69	-42.56	-0.1369	0.2439	-0.4988	
0.186294	-0.864736	0.469944	-24.71	84.91	-37.45	-0.137	0.233	-0.5036	
0.165188	-0.886818	0.455182	-26.81	77.91	-32.97	-0.1272	0.247	-0.5064	
0.152012	-0.8967	0.464942	-25.48	75.04	-29.26	-0.1159	0.2424	-0.5077	
0.13603	-0.888892	0.47214	-27.16	67.97	-24.5	-0.1048	0.2409	-0.5122	
0.128222	-0.874618	0.471408	-22.54	63.07	-17.71	-0.1006	0.2471	-0.5136	
0.134444	-0.885232	0.460062	-21.21	59.22	-12.95	-0.0891	0.2519	-0.5041	
0.134078	-0.882792	0.463844	-18.41	58.03	-11.41	-0.0933	0.2534	-0.5026	
0.128222	-0.863882	0.445178	-15.96	56.28	-10.5	-0.0907	0.2564	-0.5149	
0.13481	-0.86803	0.4453	-17.5	53.41	-10.01	-0.0737	0.255	-0.5068	
0.12871	-0.879132	0.466162	-17.22	52.99	-8.82	-0.0695	0.2612	-0.5067	
0.111874	-0.87901	0.469456	-17.43	50.68	-9.24	-0.0652	0.2644	-0.5066	
0.089182	-0.884378	0.46421	-16.1	46.48	-8.61	-0.0609	0.2613	-0.4988	
0.080886	-0.88938	0.46238	-14.49	43.68	-7.84	-0.0566	0.2722	-0.4971	
0.086376	-0.876936	0.445544	-12.88	39.97	-6.23	-0.0495	0.2769	-0.4953	
0.070028	-0.888404	0.435784	-12.81	37.66	-6.86	-0.0453	0.2754	-0.4922	
0.06466	-0.89548	0.436638	-11.41	32.34	-5.39	-0.0384	0.2723	-0.4983	
0.06734399	-0.899384	0.432978	-10.43	26.81	-5.74	-0.0298	0.2817	-0.4934	
0.082716	-0.883768	0.443714	-6.3	25.9	-4.27	-0.0369	0.2739	-0.4936	
0.087352	-0.861442	0.446642	-5.81	21.28	-3.78	-0.0312	0.2755	-0.4919	
0.066246	-0.881206	0.446764	-7.35	16.45	-2.59	-0.0271	0.2693	-0.495	
0.071736	-0.90585	0.443226	-7.14	12.18	-2.17	-0.0199	0.2864	-0.49	
0.05124	-0.88389	0.43676	-4.62	4.83	0.63	-0.0241	0.2848	-0.4886	
0.058438	-0.887184	0.439078	-3.99	-0.84	2.59	-0.0285	0.2879	-0.4995	
0.06466	-0.89548	0.447374	-2.03	-5.88	4.27	-0.0255	0.2895	-0.4932	
0.07747	-0.886086	0.456524	0.63	-9.94	5.6	-0.0187	0.2739	-0.4979	
0.08845	-0.871202	0.458232	1.75	-11.27	6.51	-0.0241	0.2833	-0.4886	
0.090646	-0.88206	0.456036	0.28	-12.11	6.3	-0.0228	0.2786	-0.4933	
0.08967	-0.896212	0.464942	0.77	-12.81	5.74	-0.0257	0.2894	-0.4994	
0.11773	-0.86803	0.45811	2.73	-13.37	5.81	-0.0271	0.277	-0.4965	
0.115412	-0.870104	0.458476	1.54	-12.88	5.6	-0.0354	0.2755	-0.4904	
0.107116	-0.889502	0.458354	1.89	-12.81	4.48	-0.0366	0.2833	-0.4826	
0.096868	-0.881084	0.454816	3.57	-12.88	3.57	-0.0282	0.288	-0.484	
0.08686399	-0.869738	0.444446	3.36	-14.49	2.87	-0.0283	0.2833	-0.4871	
0.07503	-0.883646	0.450424	3.29	-16.87	2.73	-0.0339	0.2833	-0.4872	
0.050508	-0.894504	0.450424	3.08	-20.02	3.15	-0.041	0.2801	-0.4921	
0.030744	-0.88999	0.446154	4.41	-24.57	4.34	-0.0355	0.2832	-0.4966	
0.02135	-0.895724	0.439688	3.92	-30.45	5.46	-0.0452	0.2801	-0.4906	
0.02013	-0.8906	0.438224	4.41	-36.19	7.21	-0.0452	0.277	-0.4906	
0.03355	-0.886452	0.439322	5.32	-41.37	9.45	-0.0552	0.2769	-0.4986	
0.048068	-0.882792	0.434808	6.02	-46.97	10.92	-0.0523	0.2708	-0.4892	
0.038918	-0.88877	0.43676	6.51	-51.45	14.49	-0.0747	0.2676	-0.4882	
0.020252	-0.918538	0.413824	5.81	-57.75	15.82	-0.0621	0.2692	-0.4863	
0.021716	-0.91073	0.420412	10.15	-62.79	19.11	-0.0749	0.2753	-0.4959	
0.057584	-0.929884	0.4209	11.06	-70	21	-0.079	0.2768	-0.4944	
0.082838	-0.895602	0.416508	14.91	-74.06	24.15	-0.0876	0.2659	-0.5008	
0.09577	-0.869128	0.420778	14.35	-78.89	25.41	-0.0932	0.2674	-0.4963	
0.082716	-0.907924	0.386862	9.66	-86.31	27.93	-0.1029	0.2659	-0.4887	
0.0793	-0.963068	0.382104	16.03	-88.83	30.52	-0.1197	0.2612	-0.4875	
0.16226	-0.886574	0.393084	17.64	-90.58	28.7	-0.1212	0.2627	-0.4906	
0.20679	-0.901702	0.42395	15.75	-91.91	31.92	-0.1465	0.2595	-0.4896	
0.184952	-0.962336	0.401868	17.78	-94.85	37.66	-0.1522	0.2579	-0.4944	
0.179096	-0.941596	0.396988	25.69	-95.41	38.78	-0.1635	0.2578	-0.4962	
0.220332	-0.861442	0.391254	29.26	-93.52	35.42	-0.1661	0.2579	-0.4869	
0.253028	-0.845826	0.404308	25.9	-91	34.79	-0.1774	0.261	-0.4871	
0.26352	-0.858758	0.418338	22.4	-88.76	36.4	-0.1844	0.2485	-0.4858	
0.253516	-0.934642	0.40321	18.27	-88.76	37.8	-0.1857	0.2532	-0.4796	
0.231068	-0.97356	0.391376	23.94	-88.62	40.74	-0.1857	0.2532	-0.4796	
0.254736	-0.894504	0.390156	31.78	-90.44	36.26	-0.2082	0.2516	-0.4785	
0.291946	-0.825086	0.429562	32.97	-89.53	33.18	-0.2096	0.2485	-0.477	
0.271572	-0.847412	0.412482	27.16	-87.57	37.17	-0.2096	0.2485	-0.477	
0.25681	-0.891576	0.421388	26.11	-89.53	35.91	-0.225	0.2314	-0.4712	
0.270596	-0.881328	0.41602	30.03	-90.44	38.64	-0.2333	0.2485	-0.465	
0.295606	-0.820084	0.420168	29.47	-96.88	33.46	-0.2333	0.2485	-0.465	
0.298046	-0.827526	0.414434	23.8	-90.37	34.51	-0.2458	0.2469	-0.456	
0.287676	-0.85278	0.408334	21	-91.28	31.57	-0.254	0.247	-0.4422	
0.291702	-0.873276	0.395646	19.53	-90.86	31.64	-0.2612	0.2314	-0.4502	
0.310612	-0.865224	0.391498	18.34	-91.98	34.51	-0.2624	0.2361	-0.4424	
0.327082	-0.855952	0.393328	17.22	-94.22	38.08	-0.2806	0.2423	-0.4381	
0.326594	-0.864248	0.391498	17.01	-93.59	40.32	-0.2819	0.233	-0.4304	
0.32696	-0.857416	0.382104	15.47	-93.24	39.2	-0.2845	0.2455	-0.418	
0.352092	-0.856562	0.377224	15.61	-92.26	37.87	-0.3043	0.2423	-0.4261	
0.369416	-0.8479	0.390156	18.69	-88.2	37.03	-0.3013	0.2485	-0.4167	
0.389058	-0.797148	0.39101	20.16	-84.63	31.43	-0.3134	0.2534	-0.389	
0.416264	-0.82228	0.391376	17.71	-82.67	30.94	-0.3078	0.2534	-0.3874	
0.420046	-0.840092	0.408944	18.34	-75.11	26.67	-0.3161	0.2503	-0.3782	
0.400526	-0.820328	0.407236	17.15	-68.25	21.42	-0.3286	0.2519	-0.3723	
0.40016	-0.818864	0.41785	16.66	-62.16	19.6	-0.3384	0.2596	-0.3724	
0.408822	-0.808738	0.426878	15.82	-55.37	19.95	-0.3369	0.2519	-0.3662	
0.411018	-0.811666	0.431148	14.56	-49.42	19.25	-0.3339	0.252	-0.3522	
0.393206	-0.811056	0.426024	14.35	-43.54	18.69	-0.3269	0.252	-0.3567	
0.381982	-0.8113	0.443836	13.3	-38.57	16.94	-0.3381	0.2551	-0.3523	
0.361242	-0.813252	0.427976	12.18	-34.58	14.56	-0.3367	0.2613	-0.3522	
0.358802	-0.820206	0.415532	10.29	-31.92	13.65	-0.3393	0.2598	-0.3429	
0.356118	-0.834724	0.417972	10.01	-27.23	13.3	-0.3436	0.2598	-0.3477	
0.352702	-0.834236	0.405894	9.31	-23.17	13.23	-0.3505	0.2582	-0.3416	
0.352824	-0.83509	0.417118	8.96	-18.55	13.23	-0.3451	0.2489	-0.3493	
0.337208	-0.827526	0.413214	8.12	-16.38	10.99	-0.342	0.2614	-0.3383	
0.314882	-0.839848	0.418216	8.05	-14.91	9.73	-0.3337	0.2552	-0.3444	
0.319396	-0.824964	0.429318	9.31	-14.28	9.59	-0.3393	0.2598	-0.3445	
0.321592	-0.824354	0.426512	8.12	-14.21	9.8	-0.3463	0.252	-0.3385	
0.330498	-0.819352	0.433222	7.07	-13.58	10.5	-0.3533	0.266	-0.3416	
0.321226	-0.831674	0.442128	5.11	-13.02	9.73	-0.3478	0.2536	-0.3432	
0.326228	-0.805322	0.437614	5.53	-11.62	9.24	-0.3392	0.2583	-0.3368	
0.351848	-0.801906	0.4514	3.85	-10.71	8.47	-0.3562	0.2675	-0.3448	
0.349774	-0.816302	0.457378	1.47	-9.03	6.72	-0.3562	0.2597	-0.3448	
0.34953	-0.825208	0.46055	0.77	-6.79	4.48	-0.339	0.2599	-0.3515	
0.345626	-0.822402	0.452742	-1.05	-3.85	2.73	-0.3475	0.263	-0.3307	
0.345382	-0.83082	0.446276	-2.66	-0.49	1.47	-0.352	0.2644	-0.3447	
0.330376	-0.823378	0.43127	-3.5	5.11	-0.28	-0.3478	0.266	-0.3477	
0.314516	-0.828014	0.427854	-3.92	7.42	-2.38	-0.3462	0.2707	-0.3368	
0.306586	-0.83326	0.411506	-4.55	8.89	-3.92	-0.3406	0.2614	-0.3368	
0.281088	-0.83143	0.403576	-5.32	9.66	-5.32	-0.3406	0.2614	-0.3368	
0.30012	-0.846558	0.420168	-6.58	10.01	-4.9	-0.3462	0.2676	-0.3384	
0.314394	-0.851194	0.421266	-7.14	11.13	-5.11	-0.3377	0.2583	-0.3561	
0.31415	-0.855708	0.419436	-7.28	12.39	-6.09	-0.3421	0.2614	-0.3414	
0.309758	-0.844362	0.41114	-8.12	13.86	-7.28	-0.3393	0.2645	-0.3429	
0.310368	-0.84241	0.40748	-8.96	16.87	-7.84	-0.349	0.2707	-0.3369	
0.325252	-0.831064	0.410896	-10.29	20.51	-8.05	-0.3449	0.2629	-0.3415	
0.338306	-0.85278	0.406504	-11.69	23.1	-10.08	-0.3323	0.2676	-0.3428	
0.318664	-0.858026	0.416752	-10.22	26.11	-13.58	-0.3394	0.2598	-0.3476	
0.326106	-0.826672	0.410286	-9.87	28.98	-16.03	-0.3336	0.2707	-0.3428	
0.352824	-0.82411	0.41053	-12.32	31.15	-15.89	-0.3407	0.2582	-0.343	
0.393816	-0.809592	0.401258	-14.07	38.36	-14.35	-0.3364	0.2676	-0.3366	
0.415898	-0.821548	0.431148	-16.45	47.67	-17.36	-0.3395	0.2551	-0.3554	
0.37393	-0.849608	0.407114	-17.78	51.1	-19.46	-0.3281	0.2583	-0.3458	
0.338062	-0.866688	0.386252	-16.52	53.55	-21.21	-0.3269	0.2582	-0.3582	
0.324154	-0.848388	0.38613	-15.19	56.14	-21.84	-0.3269	0.2629	-0.3566	
0.326106	-0.838384	0.385764	-17.15	56	-21.28	-0.3258	0.2721	-0.3752	
0.368684	-0.82472	0.401502	-18.27	57.89	-20.58	-0.3217	0.2549	-0.3799	
0.400648	-0.827282	0.414312	-20.79	60.97	-20.09	-0.3131	0.2659	-0.375	
0.380274	-0.843508	0.406992	-21.84	63.7	-22.19	-0.3119	0.2674	-0.3602	
0.324642	-0.864736	0.361486	-21.49	67.76	-24.22	-0.3218	0.2658	-0.3891	
0.312564	-0.90036	0.36173	-21.35	71.96	-24.85	-0.3009	0.2611	-0.3965	
0.339282	-0.89121	0.366976	-18.69	74.83	-27.58	-0.3066	0.2642	-0.3997	
0.378444	-0.884866	0.388448	-17.92	82.04	-28.84	-0.2954	0.2533	-0.4042	
0.33611	-0.896822	0.396256	-15.4	88.62	-30.24	-0.2955	0.261	-0.4119	
0.284016	-0.832894	0.350994	-12.6	89.67	-36.05	-0.283	0.2641	-0.4194	
0.243512	-0.869616	0.35075	-16.03	87.85	-36.05	-0.2793	0.2578	-0.4441	
0.255712	-0.90341	0.35685	-15.89	89.67	-33.95	-0.2734	0.2548	-0.4285	
0.263886	-0.914634	0.385642	-12.53	92.82	-33.67	-0.2637	0.2408	-0.4378	
0.2623	-0.876204	0.420534	-10.71	95.06	-37.45	-0.2582	0.2501	-0.4422	
0.238754	-0.873276	0.40687	-11.48	94.64	-41.09	-0.2498	0.2578	-0.4498	
0.22875	-0.868274	0.399428	-13.02	90.09	-38.78	-0.2513	0.2501	-0.4499	
0.224236	-0.891332	0.385886	-11.34	87.29	-37.87	-0.2473	0.2469	-0.4638	
0.24705	-0.88267	0.396134	-10.71	85.12	-40.46	-0.2291	0.2531	-0.4711	
0.24705	-0.865712	0.431026	-10.57	88.62	-41.44	-0.2165	0.2485	-0.4724	
0.23912	-0.871446	0.419436	-13.02	88.69	-44.38	-0.2167	0.2468	-0.4833	
0.231434	-0.862296	0.417362	-13.09	87.71	-45.22	-0.2109	0.2423	-0.4739	
0.230824	-0.859124	0.441518	-10.64	87.01	-47.46	-0.2013	0.2376	-0.4846	
0.235582	-0.849974	0.441884	-11.69	85.68	-44.59	-0.1872	0.2407	-0.4843	
0.236192	-0.840458	0.463112	-11.06	88.13	-43.4	-0.1915	0.2438	-0.4859	
0.255102	-0.824232	0.46848	-13.72	88.55	-41.65	-0.186	0.2438	-0.492	
0.23546	-0.835212	0.46665	-14.7	91.91	-43.05	-0.172	0.2345	-0.498	
0.228994	-0.817766	0.47153	-15.33	94.64	-42.98	-0.1594	0.247	-0.4993	
0.201544	-0.837774	0.471286	-18.2	91.91	-42.98	-0.1609	0.2392	-0.5024	
0.176168	-0.879132	0.477264	-18.48	85.82	-41.23	-0.1481	0.2439	-0.4991	
0.169946	-0.849852	0.481168	-14.28	82.67	-41.44	-0.1342	0.247	-0.505	
0.174826	-0.859368	0.471896	-16.59	77.56	-39.13	-0.1229	0.2377	-0.5048	
0.146278	-0.881328	0.464332	-18.2	72.8	-35.63	-0.1231	0.2485	-0.5187	
0.132126	-0.887062	0.459818	-17.5	65.31	-30.31	-0.116	0.2393	-0.5093	
0.136152	-0.867542	0.475068	-16.73	61.25	-24.99	-0.109	0.2455	-0.5107	
0.119438	-0.873398	0.485682	-16.66	58.8	-24.85	-0.1074	0.2502	-0.5044	
0.1342	-0.876692	0.481656	-15.96	55.51	-22.05	-0.1018	0.2565	-0.5058	
0.159332	-0.858514	0.48129	-13.3	52.01	-19.53	-0.0891	0.2457	-0.5025	
0.157502	-0.842898	0.486048	-13.16	51.45	-18.2	-0.0878	0.2487	-0.5072	
0.149572	-0.854244	0.49105	-15.54	48.58	-16.03	-0.0793	0.2504	-0.5023	
0.123952	-0.866444	0.48373	-15.61	47.81	-15.61	-0.0809	0.2611	-0.5147	
0.110898	-0.86376	0.470432	-13.86	45.85	-14.42	-0.0722	0.2644	-0.5036	
0.092232	-0.867298	0.474214	-12.32	43.26	-12.95	-0.0722	0.2628	-0.5005	
0.114314	-0.8662	0.494832	-12.46	40.46	-11.76	-0.0566	0.266	-0.494	
0.122122	-0.847656	0.500566	-12.32	37.8	-9.94	-0.051	0.2691	-0.5001	
0.128954	-0.848998	0.475678	-14.35	33.53	-8.61	-0.058	0.2769	-0.4971	
0.108946	-0.854122	0.464088	-14.91	29.82	-7.63	-0.0439	0.2676	-0.4953	
0.114558	-0.866566	0.455182	-16.03	24.78	-6.72	-0.0454	0.2645	-0.5	
0.117974	-0.884744	0.449204	-15.96	19.6	-5.74	-0.0368	0.2755	-0.4889	
0.116632	-0.883402	0.45384	-13.3	14.56	-4.2	-0.0425	0.2754	-0.4937	
0.117242	-0.887062	0.456768	-11.9	9.94	-2.31	-0.0341	0.2723	-0.4935	
0.122488	-0.884744	0.456402	-8.68	8.89	-1.33	-0.0438	0.2879	-0.4905	
0.123464	-0.875472	0.442128	-7.14	7.35	-1.19	-0.027	0.2848	-0.4933	
0.12322	-0.868762	0.446886	-6.16	6.58	-0.7	-0.0466	0.2863	-0.4921	
0.13298	-0.858514	0.447496	-5.53	4.9	-1.4	-0.0382	0.2879	-0.4935	
0.140544	-0.86376	0.446764	-5.88	4.27	-1.96	-0.0369	0.2925	-0.4981	
0.138958	-0.872788	0.45018	-5.67	3.78	-1.96	-0.0369	0.2816	-0.4966	
0.140178	-0.877302	0.448594	-5.81	2.73	-1.54	-0.0411	0.2801	-0.4967	
0.116632	-0.894626	0.440908	-5.32	1.61	-1.12	-0.0298	0.2833	-0.4918	
0.097234	-0.901214	0.440298	-2.31	-1.4	0.7	-0.0425	0.277	-0.4937	
0.10248	-0.891332	0.442616	-0.14	-4.83	2.1	-0.0353	0.2957	-0.4918	
0.119438	-0.887184	0.448716	0.63	-6.23	3.57	-0.0383	0.2847	-0.4966	
0.118828	-0.89365	0.445788	0.7	-7.07	3.92	-0.034	0.2832	-0.4919	
0.128466	-0.892918	0.444812	1.12	-7.98	4.2	-0.027	0.2879	-0.4979	
0.14213	-0.890112	0.453474	2.17	-7.63	4.9	-0.034	0.2863	-0.495	
0.14091	-0.885354	0.447618	2.66	-7.35	5.6	-0.0353	0.2941	-0.4887	
0.119804	-0.873642	0.433588	2.87	-7.77	6.37	-0.0465	0.2863	-0.4875	
0.118584	-0.882182	0.4331	2.45	-9.59	6.51	-0.0396	0.2832	-0.4905	
0.118828	-0.883036	0.433466	2.66	-11.55	6.23	-0.0395	0.2755	-0.4843	
0.110898	-0.891332	0.433344	2.8	-14.14	6.37	-0.041	0.2879	-0.492	
0.091012	-0.90707	0.426878	2.8	-16.94	6.93	-0.0425	0.2723	-0.4952	
0.09076799	-0.907924	0.425414	4.34	-20.58	8.4	-0.0368	0.2848	-0.4935	
0.090402	-0.895602	0.426146	6.37	-23.52	9.87	-0.0494	0.2816	-0.4907	
0.083448	-0.901092	0.420778	6.3	-27.72	11.27	-0.044	0.2769	-0.4983	
0.066856	-0.903166	0.428708	7.84	-32.62	12.46	-0.0565	0.2754	-0.4908	
0.070394	-0.887794	0.422364	8.82	-38.43	14.56	-0.058	0.2738	-0.4955	
0.065636	-0.8845	0.428464	8.82	-44.73	16.73	-0.0607	0.2723	-0.4925	
0.049898	-0.898408	0.428098	7.28	-50.61	19.25	-0.0623	0.2738	-0.4987	
0.034404	-0.897676	0.429684	9.31	-55.93	21.49	-0.0734	0.2768	-0.4958	
0.062952	-0.870836	0.443836	12.46	-61.32	23.38	-0.0876	0.2767	-0.5023	
0.08845	-0.850096	0.43676	11.06	-66.5	23.8	-0.0832	0.2768	-0.4929	
0.086986	-0.898042	0.409554	6.79	-72.8	25.13	-0.0848	0.2675	-0.4977	
0.09821	-0.929762	0.40992	9.52	-72.24	28.07	-0.0931	0.2768	-0.4962	
0.12139	-0.92415	0.395524	9.87	-77.07	27.51	-0.0946	0.2612	-0.4994	
0.136152	-0.912682	0.411994	12.88	-77	28.7	-0.1101	0.2673	-0.4997	
0.136396	-0.958676	0.390156	12.39	-81.34	33.25	-0.1114	0.2565	-0.4936	
0.119438	-0.929884	0.39101	19.18	-81.69	36.75	-0.1254	0.2565	-0.4892	
0.148474	-0.89975	0.388448	20.86	-83.93	35	-0.1253	0.2596	-0.4861	
0.200812	-0.864004	0.40077	21.14	-83.72	35.56	-0.1408	0.2564	-0.4864	
0.215452	-0.897554	0.403454	18.9	-82.95	40.11	-0.1492	0.2642	-0.4865	
0.190198	-0.936716	0.394182	20.3	-83.51	43.68	-0.1507	0.2564	-0.4882	
0.167384	-0.950136	0.396012	27.58	-80.71	44.17	-0.1647	0.261	-0.4837	
0.19825	-0.849242	0.412848	29.89	-79.8	37.1	-0.1704	0.2532	-0.4645	
0.218624	-0.845338	0.415166	23.59	-80.36	34.09	-0.1674	0.2518	-0.4761	
0.22448	-0.920368	0.421144	23.73	-77.7	38.71	-0.1787	0.2486	-0.481	
0.222162	-0.954406	0.418582	28.14	-77	41.16	-0.1815	0.2563	-0.481	
0.224358	-0.867054	0.434808	34.86	-76.3	40.67	-0.1984	0.2392	-0.4768	
0.257054	-0.787876	0.444934	28.49	-77.14	37.59	-0.1956	0.25	-0.4829	
0.271938	-0.822646	0.444812	21.91	-75.18	35.14	-0.208	0.2454	-0.4676	
0.268888	-0.884744	0.457378	20.23	-72.24	41.86	-0.2094	0.2455	-0.4646	
0.258152	-0.853878	0.441884	26.04	-68.81	33.46	-0.2193	0.2454	-0.471	
0.260104	-0.786046	0.456402	26.6	-70.63	31.43	-0.2207	0.25	-0.471	
0.256322	-0.807396	0.449082	15.4	-65.1	31.5	-0.2235	0.2298	-0.4681	
0.248636	-0.881572	0.458964	11.69	-60.69	30.87	-0.2316	0.2377	-0.4511	
0.238754	-0.862418	0.448472	12.6	-61.04	28.49	-0.2429	0.2392	-0.4529	
0.236558	-0.831186	0.442494	14.98	-64.33	28	-0.24	0.2439	-0.4466	
0.274134	-0.80093	0.446764	14.42	-67.55	29.89	-0.2442	0.2423	-0.4482	
0.277794	-0.834236	0.431392	12.95	-68.18	28.84	-0.2554	0.2485	-0.4422	
0.29097	-0.862052	0.446276	12.6	-66.08	26.25	-0.2596	0.2454	-0.4438	
0.30988	-0.895358	0.446398	11.55	-63.77	25.27	-0.2638	0.25	-0.4454	
0.285724	-0.88572	0.434076	12.53	-61.04	26.39	-0.2735	0.2516	-0.4332	
0.304024	-0.865956	0.446032	14.49	-59.22	26.11	-0.2679	0.2439	-0.4347	
0.309636	-0.858636	0.435052	13.86	-57.33	24.78	-0.2775	0.2439	-0.424	
0.291458	-0.853756	0.429684	14.84	-54.18	24.78	-0.2789	0.2439	-0.4225	
0.279868	-0.872544	0.425048	15.82	-56.07	23.8	-0.2817	0.2486	-0.4241	
0.290604	-0.86498	0.43188	17.71	-56.07	24.36	-0.2871	0.2455	-0.4103	
0.287554	-0.843996	0.430904	19.32	-54.74	25.41	-0.2957	0.2548	-0.4212	
0.289506	-0.836676	0.452376	19.04	-53.55	25.34	-0.2968	0.2378	-0.4012	
0.293166	-0.838018	0.456768	19.74	-50.68	27.16	-0.297	0.2331	-0.4121	
0.312442	-0.819352	0.470066	20.16	-48.93	28.35	-0.2998	0.2471	-0.409	
0.339404	-0.813618	0.467626	18.55	-46.9	28.14	-0.2983	0.2502	-0.4089	
0.310368	-0.793122	0.474946	18.76	-41.02	24.99	-0.3095	0.2486	-0.4045	
0.3172	-0.773846	0.491538	16.03	-37.8	22.75	-0.3151	0.2439	-0.4015	
0.312808	-0.77287	0.50325	12.74	-33.11	19.95	-0.308	0.2518	-0.3998	
0.300974	-0.787022	0.499468	9.8	-30.17	18.2	-0.3092	0.2441	-0.3874	
0.30866	-0.784094	0.507886	7.84	-26.6	16.17	-0.3123	0.2439	-0.4046	
0.305366	-0.783118	0.519964	5.39	-22.26	13.44	-0.3107	0.2534	-0.3905	
0.309392	-0.786656	0.519354	3.15	-18.2	11.34	-0.3094	0.2518	-0.3967	
0.301218	-0.791414	0.509716	1.54	-13.65	8.47	-0.3092	0.2487	-0.3874	
0.28182	-0.81313	0.510814	0.49	-8.19	5.95	-0.3205	0.2595	-0.3907	
0.25925	-0.810812	0.51179	-0.07	-5.67	4.27	-0.3247	0.244	-0.3862	
0.2684	-0.813008	0.5063	-0.49	-3.57	4.48	-0.3135	0.2596	-0.3921	
0.263276	-0.823256	0.504348	-0.35	-1.26	4.13	-0.3105	0.2581	-0.3827	
0.250222	-0.818986	0.501786	0	-0.35	2.73	-0.3149	0.2549	-0.3921	
0.245952	-0.839238	0.493124	-0.07	0.7	1.89	-0.3049	0.2565	-0.3826	
0.23485	-0.839482	0.477142	0.63	1.68	0.42	-0.3134	0.2518	-0.3859	
0.21716	-0.838506	0.479582	1.61	2.17	0.56	-0.3175	0.2565	-0.3813	
0.225578	-0.835944	0.497638	1.89	2.1	1.33	-0.316	0.2565	-0.3766	
0.24461	-0.819352	0.499956	1.33	2.52	2.17	-0.319	0.2472	-0.3814	
0.264496	-0.808128	0.485316	0.07	3.22	1.19	-0.312	0.2565	-0.3905	
0.257054	-0.821792	0.480802	-1.05	3.99	-1.26	-0.3077	0.2534	-0.3842	
0.233996	-0.819962	0.481778	-1.61	6.02	-3.57	-0.3118	0.2535	-0.3766	
0.222162	-0.81618	0.480314	-3.43	7.07	-4.62	-0.3135	0.2549	-0.3906	
0.219112	-0.824964	0.480436	-4.41	8.05	-3.85	-0.3021	0.2565	-0.3857	
0.238754	-0.818498	0.495198	-4.62	8.19	-3.92	-0.3092	0.2581	-0.3873	
0.25986	-0.819718	0.488366	-5.25	8.89	-5.18	-0.3079	0.258	-0.3935	
0.24766	-0.815326	0.490806	-6.3	11.34	-7	-0.3064	0.2565	-0.3904	
0.25193	-0.798246	0.499102	-8.33	14.35	-8.61	-0.309	0.2612	-0.378	
0.273646	-0.79544	0.49715	-10.64	16.17	-9.24	-0.2939	0.2642	-0.3723	
0.287066	-0.810446	0.494832	-11.27	18.62	-10.43	-0.3063	0.2596	-0.3842	
0.296704	-0.81008	0.495076	-11.48	22.96	-13.02	-0.2967	0.2518	-0.3933	
0.316102	-0.797392	0.49959	-13.09	28.77	-16.03	-0.3063	0.2581	-0.3857	
0.318786	-0.798368	0.4941	-14.28	35	-18.76	-0.2966	0.2565	-0.3902	
0.31842	-0.782996	0.493368	-17.43	39.97	-19.67	-0.2982	0.2595	-0.4011	
0.316468	-0.811178	0.49349	-20.72	47.25	-18.62	-0.2995	0.2549	-0.3934	
0.323666	-0.817522	0.463844	-21.35	50.05	-20.16	-0.2981	0.2611	-0.398	
0.322202	-0.831186	0.445422	-21.14	54.11	-20.16	-0.2996	0.2549	-0.4027	
0.32635	-0.834358	0.451644	-21.49	59.08	-22.68	-0.2884	0.2642	-0.4071	
0.351482	-0.841556	0.456402	-20.09	65.03	-27.58	-0.2984	0.2579	-0.4119	
0.316468	-0.8174	0.397476	-20.23	70.56	-35.98	-0.2828	0.2565	-0.407	
0.280234	-0.872666	0.406992	-24.01	75.18	-38.85	-0.2789	0.2626	-0.4239	
0.310612	-0.923784	0.41663	-23.59	79.66	-34.93	-0.2732	0.2518	-0.4177	
0.349896	-0.923296	0.404308	-18.2	85.33	-37.8	-0.2705	0.261	-0.4269	
0.336598	-0.894748	0.4026	-16.52	90.3	-37.94	-0.2537	0.2642	-0.4312	
0.282186	-0.857294	0.38918	-14.14	97.58	-44.31	-0.2581	0.261	-0.4391	
0.23668	-0.823622	0.356972	-15.68	95.27	-49.98	-0.2469	0.2501	-0.442	
0.259738	-0.863516	0.381982	-17.71	95.13	-51.45	-0.2486	0.2562	-0.4591	
0.278282	-0.914878	0.40626	-18.76	97.86	-49.07	-0.2415	0.2454	-0.4512	
0.235948	-0.904386	0.405772	-16.03	98.14	-51.1	-0.2305	0.2453	-0.4696	
0.230214	-0.861808	0.39955	-16.38	100.87	-50.61	-0.2179	0.2578	-0.4709	
0.24705	-0.863638	0.403942	-18.62	100.17	-47.81	-0.2151	0.2438	-0.4693	
0.253394	-0.915854	0.399916	-18.55	101.15	-52.29	-0.2096	0.2454	-0.4754	
0.212768	-0.910974	0.397964	-15.05	103.88	-55.16	-0.1943	0.2485	-0.4875	
0.17324	-0.883158	0.387594	-17.92	100.94	-56.14	-0.1844	0.2516	-0.4827	
0.145058	-0.903532	0.389668	-21.21	100.38	-59.92	-0.1816	0.2377	-0.4842	
0.155916	-0.922198	0.40321	-21.21	94.43	-57.47	-0.1733	0.2377	-0.4887	
0.168116	-0.909022	0.415044	-18.55	89.74	-55.23	-0.1677	0.2376	-0.4933	
0.183976	-0.87596	0.421632	-16.24	87.08	-50.82	-0.165	0.2485	-0.4978	
0.183244	-0.884744	0.431636	-16.87	84.07	-45.64	-0.1482	0.2392	-0.5022	
0.166408	-0.871568	0.435418	-15.61	81.62	-44.52	-0.1482	0.247	-0.5052	
0.189222	-0.868152	0.460062	-17.08	78.33	-40.25	-0.1383	0.2502	-0.4988	
0.184708	-0.868274	0.44835	-18.69	77.84	-37.87	-0.1356	0.2439	-0.5081	
0.160308	-0.867176	0.464454	-17.5	79.73	-36.75	-0.1242	0.2549	-0.5001	
0.156404	-0.869982	0.453108	-20.58	77.56	-34.3	-0.1201	0.2486	-0.5047	
0.159088	-0.86498	0.447008	-18.9	75.25	-32.2	-0.1157	0.2549	-0.4968	
0.139324	-0.89243	0.44957	-19.32	74.55	-29.47	-0.1073	0.2534	-0.4966	
0.156282	-0.91317	0.446398	-17.5	71.89	-26.6	-0.1059	0.272	-0.4996	
0.143838	-0.893528	0.447252	-12.18	69.86	-23.45	-0.08899999	0.2597	-0.4978	
0.11468	-0.892796	0.443836	-11.55	69.02	-22.75	-0.0681	0.2706	-0.5082	
0.111996	-0.88023	0.44835	-12.6	64.54	-21.14	-0.0721	0.2706	-0.5005	
0.093818	-0.871568	0.445178	-12.11	59.92	-19.25	-0.0637	0.2644	-0.4988	
0.07808	-0.877668	0.45445	-12.11	56.77	-19.74	-0.0512	0.2644	-0.5063	
0.080154	-0.868396	0.453474	-12.11	50.82	-20.72	-0.051	0.2723	-0.4954	
0.056852	-0.869982	0.44774	-11.34	47.39	-20.23	-0.0552	0.2785	-0.4954	
0.073444	-0.885354	0.446398	-11.97	41.79	-20.79	-0.0412	0.2707	-0.4983	
0.062586	-0.879864	0.459208	-10.78	38.57	-18.48	-0.0425	0.2832	-0.4983	
0.069662	-0.894992	0.460672	-10.43	34.51	-16.94	-0.0299	0.2817	-0.498	
0.066002	-0.880474	0.467748	-8.54	30.52	-14.28	-0.038	0.2833	-0.478	
0.069906	-0.871934	0.48617	-7.49	26.67	-11.55	-0.0341	0.2786	-0.495	
0.093086	-0.848388	0.484828	-7.28	22.68	-10.01	-0.0312	0.2848	-0.4918	
0.100772	-0.850462	0.482266	-9.45	18.41	-9.24	-0.0282	0.2864	-0.4856	
0.105164	-0.862906	0.473726	-11.9	16.66	-8.05	-0.0213	0.2849	-0.4885	
0.115534	-0.873764	0.471652	-8.26	16.52	-6.3	-0.0213	0.2895	-0.4901	
0.109922	-0.88145	0.453474	-7.14	15.54	-6.65	-0.0214	0.2895	-0.4963	
0.110776	-0.884744	0.44774	-7.35	12.53	-5.25	-0.0169	0.2942	-0.5078	
0.110532	-0.889136	0.45445	-5.32	9.24	-3.08	-0.0267	0.2958	-0.4824	
0.120048	-0.876326	0.459452	-3.43	6.3	-1.05	-0.0213	0.2802	-0.4645	
0.113704	-0.876814	0.447008	-3.92	3.92	-0.35	-0.0211	0.3004	-0.4838	
0.11651	-0.86925	0.443592	-3.29	1.96	-0.28	-0.0143	0.2895	-0.4915	
0.126026	-0.872666	0.450058	-2.73	0.7	-0.98	-0.008599999	0.2896	-0.4883	
0.125294	-0.87596	0.452498	-3.22	-1.4	-1.19	-0.0155	0.2912	-0.4791	
0.133102	-0.878278	0.463234	-2.73	-2.8	0	-0.017	0.2896	-0.4853	
0.13908	-0.870958	0.461282	-2.24	-4.2	0.63	-0.0212	0.288	-0.4854	
0.148108	-0.856928	0.458232	-1.4	-4.13	1.47	-0.024	0.288	-0.4855	
0.132492	-0.88511	0.457012	-3.01	-4.69	1.47	-0.0253	0.2958	-0.4823	
0.127856	-0.89487	0.452498	-2.73	-4.9	2.87	-0.0227	0.2926	-0.4932	
0.138836	-0.879742	0.433466	-1.12	-4.69	3.85	-0.0198	0.2911	-0.4854	
0.122122	-0.881816	0.425048	-1.61	-5.95	4.13	-0.0143	0.2942	-0.4914	
0.11102	-0.900726	0.429928	-0.77	-7.49	4.2	-0.0212	0.2973	-0.4884	
0.119072	-0.898286	0.435784	1.05	-8.54	3.92	-0.0212	0.2895	-0.4869	
0.124562	-0.8906	0.441762	1.75	-9.24	4.97	-0.024	0.2771	-0.484	
0.12444	-0.886696	0.436638	1.68	-9.8	4.76	-0.0255	0.2926	-0.4886	
0.115046	-0.883402	0.44042	2.38	-11.48	5.95	-0.0212	0.3004	-0.49	
0.112606	-0.88145	0.438346	3.01	-13.79	7.07	-0.0283	0.2895	-0.4871	
0.10004	-0.896334	0.429562	2.03	-16.24	7.84	-0.0353	0.2941	-0.4872	
0.07442	-0.896578	0.419924	3.64	-18.9	9.1	-0.0228	0.2895	-0.4947	
0.07905599	-0.907924	0.4209	5.25	-22.54	10.01	-0.0184	0.2957	-0.4884	
0.075884	-0.898042	0.413824	7	-27.23	10.78	-0.0283	0.2941	-0.4917	
0.056242	-0.915366	0.402844	8.12	-31.99	12.04	-0.041	0.2941	-0.4935	
0.022204	-0.906094	0.41053	9.66	-37.52	14	-0.0353	0.3019	-0.4933	
0.008784	-0.90829	0.421388	10.5	-43.96	16.31	-0.0411	0.2894	-0.4997	
0.044652	-0.902922	0.434076	10.99	-50.61	19.53	-0.041	0.2863	-0.4905	
0.052216	-0.888648	0.429684	11.69	-57.75	22.68	-0.0508	0.2801	-0.5116	
0.046848	-0.905606	0.419802	11.62	-65.45	25.83	-0.0608	0.2753	-0.4971	
0.032574	-0.913414	0.390156	13.93	-74.13	29.54	-0.058	0.2878	-0.497	
0.030134	-0.89975	0.407968	20.44	-78.61	32.27	-0.0707	0.2737	-0.5004	
0.086986	-0.883768	0.413092	17.64	-85.54	31.99	-0.079	0.2784	-0.4944	
0.116022	-0.91256	0.42395	21.21	-86.31	33.53	-0.0892	0.2627	-0.5071	
0.143472	-0.943548	0.400038	23.52	-87.92	35.7	-0.0918	0.269	-0.4993	
0.146034	-0.924028	0.403576	27.16	-88.83	37.73	-0.0989	0.2643	-0.4995	
0.127246	-0.919148	0.392108	28.77	-91.98	38.99	-0.1186	0.258	-0.4999	
0.183122	-0.894626	0.422486	27.93	-92.33	40.32	-0.1284	0.2657	-0.5016	
0.216794	-0.897432	0.423218	24.71	-93.45	40.67	-0.1384	0.2563	-0.5096	
0.209352	-0.941474	0.415288	27.86	-93.45	45.71	-0.1509	0.2563	-0.5006	
0.19032	-0.95099	0.395036	31.85	-93.94	44.8	-0.1508	0.247	-0.4944	
0.185318	-0.911584	0.39772	38.71	-94.08	44.03	-0.1648	0.2346	-0.4839	
0.226554	-0.842288	0.415044	38.71	-95.55	42.42	-0.1591	0.2393	-0.4822	
0.27816	-0.799466	0.430416	32.9	-92.68	41.86	-0.1844	0.2408	-0.4827	
0.28182	-0.892186	0.426512	28.21	-90.09	46.2	-0.1858	0.2392	-0.4843	
0.237168	-0.945744	0.419436	30.45	-88.48	50.4	-0.1972	0.2298	-0.4893	
0.211304	-0.8967	0.421266	37.03	-88.76	49.07	-0.1986	0.236	-0.4892	
0.22631	-0.85949	0.425902	35.07	-91.42	48.58	-0.2154	0.2267	-0.4834	
0.263764	-0.87596	0.437858	33.32	-94.29	52.99	-0.211	0.2345	-0.4755	
0.294386	-0.849364	0.468114	32.55	-92.96	54.81	-0.2224	0.2313	-0.482	
0.30256	-0.829112	0.465186	31.99	-89.74	55.02	-0.2265	0.2391	-0.4789	
0.284626	-0.806908	0.471042	29.54	-85.82	55.23	-0.2334	0.2267	-0.4698	
0.284504	-0.814594	0.47824	27.09	-80.08	53.34	-0.2375	0.236	-0.4636	
0.290116	-0.806176	0.48983	25.69	-81.2	49.63	-0.2375	0.236	-0.4636	
0.284138	-0.815936	0.478606	22.05	-74.69	47.46	-0.2472	0.2361	-0.4561	
0.276818	-0.80886	0.469944	19.88	-73.71	43.61	-0.2572	0.2204	-0.4626	
0.27999	-0.827648	0.47946	17.85	-70.77	45.43	-0.264	0.2252	-0.4487	
0.277794	-0.82777	0.484706	21.42	-75.53	43.33	-0.264	0.2252	-0.4487	
0.285236	-0.797636	0.479948	20.93	-77.84	40.81	-0.2695	0.2345	-0.4457	
0.305732	-0.797758	0.48861	19.67	-77.14	40.39	-0.2722	0.2221	-0.4381	
0.322324	-0.804834	0.501908	20.51	-76.58	39.76	-0.2706	0.23	-0.4271	
0.336964	-0.788486	0.506666	20.02	-69.16	36.4	-0.2902	0.2392	-0.4212	
0.31476	-0.792512	0.48495	18.48	-66.64	34.44	-0.2903	0.2206	-0.426	
0.297192	-0.795196	0.479948	17.78	-62.3	31.22	-0.2956	0.2424	-0.4136	
0.293898	-0.79544	0.483242	19.95	-58.45	28	-0.2957	0.2238	-0.4106	
0.300608	-0.788608	0.510936	20.51	-56.63	26.67	-0.311	0.2346	-0.4062	
0.312076	-0.77714	0.516548	20.93	-54.81	24.78	-0.3097	0.2377	-0.4123	
0.310124	-0.769088	0.515938	18.48	-51.31	24.5	-0.3094	0.2378	-0.3984	
0.31354	-0.782264	0.512888	16.73	-44.73	23.59	-0.3137	0.2409	-0.4	
0.295484	-0.780678	0.515694	14.63	-41.86	21.07	-0.3164	0.2502	-0.3953	
0.276086	-0.802516	0.530456	12.53	-40.11	18.83	-0.3122	0.2455	-0.3968	
0.281454	-0.787998	0.54656	13.51	-36.61	17.29	-0.3206	0.2424	-0.3923	
0.301462	-0.775798	0.56486	10.5	-32.83	16.66	-0.3232	0.244	-0.3831	
0.31049	-0.774822	0.559004	9.94	-28.98	17.01	-0.3304	0.2502	-0.3925	
0.338428	-0.756034	0.569252	8.89	-21.63	15.54	-0.3219	0.2456	-0.3892	
0.332206	-0.753838	0.575352	4.41	-14.7	10.92	-0.3249	0.2439	-0.3971	
0.310246	-0.764818	0.580598	2.45	-8.33	6.16	-0.3148	0.2456	-0.3875	
0.305	-0.759084	0.554612	1.33	-2.94	3.08	-0.3275	0.2393	-0.3863	
0.269376	-0.769942	0.544486	-1.54	1.54	0.63	-0.3273	0.2472	-0.3738	
0.257664	-0.781166	0.546316	-1.61	3.22	-0.63	-0.3191	0.2456	-0.3876	
0.273768	-0.77897	0.541558	-1.61	5.53	-2.03	-0.3218	0.2425	-0.3815	
0.276452	-0.788974	0.5429	-0.84	8.12	-4.55	-0.3232	0.2347	-0.3816	
0.23851	-0.794952	0.529846	-0.7	9.8	-7.21	-0.3219	0.2332	-0.3862	
0.237046	-0.792024	0.529358	-1.19	10.43	-7.28	-0.315	0.2393	-0.3969	
0.253272	-0.789096	0.529358	-2.94	11.34	-5.81	-0.3219	0.2455	-0.3908	
0.248514	-0.79361	0.519476	-4.13	11.13	-5.46	-0.3205	0.2362	-0.3893	
0.241926	-0.803126	0.516304	-3.99	10.43	-6.65	-0.3191	0.2378	-0.3892	
0.23363	-0.79727	0.52582	-5.25	9.31	-7.28	-0.3177	0.2347	-0.3877	
0.255346	-0.792756	0.525698	-5.74	9.59	-6.23	-0.3205	0.244	-0.3908	
0.274622	-0.79239	0.52582	-6.09	10.08	-6.44	-0.3246	0.244	-0.3846	
0.269742	-0.792878	0.519232	-7.07	11.9	-7.84	-0.319	0.2456	-0.383	
0.271328	-0.78873	0.527406	-7.42	14.21	-8.82	-0.3106	0.241	-0.3875	
0.284138	-0.7686	0.538264	-8.19	16.52	-10.01	-0.3262	0.2424	-0.3909	
0.303536	-0.753838	0.53497	-9.87	18.48	-11.2	-0.319	0.2487	-0.4086	
0.305122	-0.768966	0.525698	-11.41	21.56	-11.48	-0.3219	0.2347	-0.3862	
0.303658	-0.786412	0.527406	-12.39	24.71	-12.95	-0.3177	0.2456	-0.3892	
0.307074	-0.782142	0.53131	-13.72	28	-14.21	-0.3192	0.2347	-0.3924	
0.317078	-0.764574	0.531066	-16.59	31.08	-15.05	-0.308	0.2362	-0.3968	
0.32696	-0.782142	0.511302	-21	33.18	-16.73	-0.3151	0.2471	-0.4015	
0.325862	-0.811666	0.498614	-23.03	39.06	-19.11	-0.3024	0.2409	-0.3966	
0.336232	-0.819718	0.48739	-21.42	41.37	-23.52	-0.3096	0.2455	-0.4076	
0.33672	-0.825696	0.460428	-20.3	43.89	-26.46	-0.3123	0.2393	-0.403	
0.325496	-0.86132	0.450058	-19.32	46.69	-28.07	-0.3039	0.2471	-0.4075	
0.306708	-0.867786	0.453962	-17.85	49.56	-30.59	-0.3069	0.2454	-0.4169	
0.291946	-0.834968	0.45018	-16.52	51.1	-33.81	-0.2985	0.2346	-0.4137	
0.272548	-0.83509	0.450668	-16.87	52.22	-36.05	-0.2928	0.2486	-0.4135	
0.249246	-0.87047	0.443348	-16.1	53.06	-34.3	-0.2915	0.2362	-0.4166	
0.244488	-0.903044	0.428464	-13.93	54.18	-32.48	-0.2903	0.2407	-0.4305	
0.256444	-0.886086	0.427976	-10.43	53.9	-32.76	-0.2875	0.2315	-0.4259	
0.295362	-0.861076	0.45201	-9.03	53.69	-33.6	-0.2805	0.2237	-0.4289	
0.29585	-0.83265	0.475312	-6.09	56.7	-34.93	-0.2848	0.2267	-0.4352	
0.256322	-0.79788	0.475922	-4.2	57.12	-38.15	-0.2751	0.2298	-0.4412	
0.210572	-0.84058	0.481656	-6.51	54.04	-37.66	-0.2669	0.2267	-0.4565	
0.200934	-0.842166	0.48434	-3.64	48.79	-38.92	-0.2655	0.2282	-0.4534	
0.219112	-0.846802	0.493978	-4.97	41.02	-34.79	-0.267	0.2111	-0.4582	
0.219356	-0.829844	0.509228	-6.86	41.3	-32.76	-0.2599	0.2096	-0.4503	
0.200202	-0.857904	0.485682	-9.8	38.92	-28.84	-0.2629	0.2235	-0.4642	
0.186538	-0.885598	0.476288	-8.96	37.17	-24.5	-0.2656	0.208	-0.4582	
0.172386	-0.876936	0.483852	-6.51	35.98	-22.19	-0.2629	0.2126	-0.4628	
0.170922	-0.842654	0.489464	-3.85	35.35	-19.53	-0.253	0.2174	-0.461	
0.174338	-0.832162	0.47946	-2.73	33.46	-16.17	-0.2531	0.2142	-0.4688	
0.16165	-0.84485	0.474824	-0.98	29.75	-12.74	-0.2532	0.2126	-0.4703	
0.173484	-0.85583	0.48007	0.49	26.88	-9.66	-0.2463	0.211	-0.4779	
0.171532	-0.85034	0.486902	2.66	26.25	-10.29	-0.2545	0.2111	-0.4673	
0.146034	-0.84851	0.490196	4.2	24.71	-9.94	-0.2463	0.211	-0.4811	
0.125416	-0.867786	0.489342	3.36	18.97	-8.96	-0.2395	0.2063	-0.4887	
0.157136	-0.878522	0.510692	2.52	14.77	-4.2	-0.2323	0.2033	-0.4824	
0.166164	-0.858392	0.531432	4.55	12.53	-0.56	-0.2351	0.2064	-0.4809	
0.15372	-0.819596	0.55449	5.04	8.19	1.05	-0.2395	0.2001	-0.4903	
0.157746	-0.793244	0.562786	4.41	4.97	3.22	-0.2351	0.2002	-0.4794	
0.155306	-0.774334	0.575718	3.57	3.78	3.71	-0.2283	0.2079	-0.466	
0.168604	-0.75823	0.589626	0.49	1.82	3.43	-0.238	0.2095	-0.4871	
0.203862	-0.755668	0.594506	-2.1	-0.35	3.36	-0.2366	0.2126	-0.4871	
0.223382	-0.759206	0.58865	-2.87	-2.24	2.87	-0.2323	0.2017	-0.4824	
0.232532	-0.753106	0.584624	-2.8	-2.1	1.75	-0.2322	0.2111	-0.4792	
0.239608	-0.75335	0.574986	-3.5	-1.61	1.05	-0.2338	0.211	-0.487	
0.23607	-0.773968	0.571692	-3.78	-1.68	0.07	-0.2323	0.2173	-0.4854	
0.233752	-0.784948	0.563396	-2.8	-1.89	-0.7	-0.2464	0.2095	-0.4826	
0.234728	-0.776408	0.563274	-1.47	-2.17	-1.75	-0.2365	0.2111	-0.4809	
0.235338	-0.784948	0.559858	-0.98	-3.01	-1.82	-0.2421	0.2033	-0.481	
0.227164	-0.793	0.553758	-0.14	-3.99	-2.1	-0.2437	0.2079	-0.4888	
0.223382	-0.787388	0.550586	0.91	-4.41	-2.38	-0.2351	0.2142	-0.4824	
0.237046	-0.774944	0.556076	0.35	-4.69	-3.36	-0.2309	0.2049	-0.4823	
0.244244	-0.779824	0.556686	-0.7	-4.06	-2.59	-0.242	0.2126	-0.4748	
0.23851	-0.784338	0.549244	-1.89	-3.01	-2.31	-0.2394	0.2064	-0.4856	
0.228506	-0.79056	0.547536	-2.87	-2.66	-1.96	-0.2379	0.2126	-0.4793	
0.232532	-0.795806	0.543266	-3.15	-2.45	-1.61	-0.2449	0.211	-0.4795	
0.238632	-0.794464	0.533872	-3.5	-2.1	-2.31	-0.2421	0.2048	-0.4779	
0.242414	-0.80703	0.528748	-3.64	-2.03	-2.52	-0.2365	0.2095	-0.484	
0.247172	-0.80825	0.528992	-3.01	-2.03	-2.31	-0.2408	0.2079	-0.4856	
0.258152	-0.811056	0.534604	-2.24	-1.19	-1.89	-0.2337	0.2095	-0.4839	
0.251564	-0.80642	0.529114	-1.89	-0.77	-1.54	-0.2534	0.2001	-0.4828	
0.249368	-0.803858	0.524234	-2.24	-0.49	-1.47	-0.2422	0.2095	-0.4841	
0.256078	-0.812764	0.529602	-2.73	-0.42	0.42	-0.2434	0.2188	-0.4763	
0.254858	-0.80764	0.528626	-2.1	-0.28	1.47	-0.2408	0.2094	-0.4872	
0.24644	-0.801174	0.522404	-1.75	-0.49	1.54	-0.2394	0.2017	-0.4825	
0.244732	-0.793976	0.51911	-1.75	-0.98	1.12	-0.2379	0.2095	-0.4809	
0.250222	-0.796538	0.524356	-2.1	-1.33	0.7	-0.2449	0.2126	-0.4779	
0.255224	-0.802882	0.52826	-2.03	-1.68	0.7	-0.2449	0.2064	-0.4811	
0.257908	-0.796172	0.531554	-1.47	-1.75	0.42	-0.2364	0.2157	-0.4777	
0.259616	-0.795928	0.532652	-2.24	-1.68	0.84	-0.2378	0.2157	-0.4777	
0.259128	-0.808006	0.528626	-2.73	-1.47	1.47	-0.249	0.2064	-0.4703	
0.255712	-0.812886	0.523624	-2.38	-0.98	1.61	-0.2351	0.208	-0.4809	
0.255834	-0.814106	0.521672	-2.17	-0.7	1.89	-0.242	0.2189	-0.4747	
0.241926	-0.811422	0.513864	-1.33	-0.21	1.96	-0.2407	0.2095	-0.4779	
0.235338	-0.818376	0.514596	-1.75	-0.49	2.52	-0.2491	0.2017	-0.4765	
0.241194	-0.824476	0.514474	-0.91	-0.63	3.43	-0.2462	0.2204	-0.4779	
0.243024	-0.814228	0.517158	0.28	-0.07	3.01	-0.2449	0.2188	-0.4794	
0.235948	-0.80825	0.517036	0.14	0.56	2.52	-0.2393	0.2064	-0.4809	
0.234484	-0.81435	0.518012	-0.07	0.84	2.03	-0.2462	0.2219	-0.4748	
0.232044	-0.813496	0.51606	-0.14	0.42	1.4	-0.2365	0.2235	-0.4823	
0.2318	-0.815448	0.516426	-0.28	0.42	1.33	-0.2391	0.2111	-0.4716	
0.232654	-0.821548	0.516914	-0.21	0.56	1.61	-0.2309	0.208	-0.4839	
0.230946	-0.818132	0.517158	0.28	1.12	1.61	-0.242	0.2095	-0.4748	
0.232654	-0.813374	0.51789	0.35	1.12	1.47	-0.2392	0.2173	-0.4793	
0.232044	-0.813252	0.51728	0.7	1.4	1.47	-0.2449	0.208	-0.4764	
0.229482	-0.808494	0.520818	0.42	1.47	0.98	-0.2377	0.2127	-0.4685	
0.226066	-0.810934	0.521916	0.28	1.33	0.84	-0.2351	0.2235	-0.4838	
0.223138	-0.808494	0.521672	-0.14	1.05	0.56	-0.2405	0.2142	-0.4701	
0.22631	-0.8174	0.523014	-0.28	0.91	0.84	-0.2379	0.2219	-0.4839	
0.225456	-0.80764	0.522648	0.07	0.91	0.42	-0.2335	0.2173	-0.4746	
0.225456	-0.809104	0.521672	-0.56	0.7	0.56	-0.2434	0.2204	-0.4778	
0.222284	-0.81557	0.51911	-0.42	0.49	0.56	-0.2307	0.2204	-0.476	
0.218258	-0.816668	0.517158	-0.35	0.28	0.14	-0.2337	0.2142	-0.4823	
0.224236	-0.820328	0.519842	-0.07	-0.49	0.56	-0.235	0.222	-0.4776	
0.2318	-0.813618	0.52216	0.7	-0.28	0.63	-0.2364	0.2204	-0.4777	
0.23241	-0.80459	0.525088	0.7	0.21	0.63	-0.2462	0.2188	-0.4779	
0.227652	-0.810812	0.524844	0.63	0.35	0.84	-0.235	0.2188	-0.4792	
0.22387	-0.805688	0.524844	0.63	0.21	0.49	-0.2378	0.2126	-0.4778	
0.228628	-0.8052	0.526674	0.56	0.21	0.14	-0.2407	0.208	-0.4794	
0.235216	-0.809226	0.526308	0.84	0.21	-0.77	-0.2407	0.2095	-0.4779	
0.227408	-0.806786	0.52765	1.12	0.42	-1.05	-0.235	0.2096	-0.4746	
0.223992	-0.804224	0.5307	0.35	0.77	-1.26	-0.2436	0.2126	-0.4841	
0.231068	-0.8113	0.530944	-0.14	0.56	-0.63	-0.2253	0.2064	-0.4807	
0.234118	-0.806298	0.5307	0.28	0.7	-0.84	-0.2351	0.2235	-0.4823	
0.232898	-0.798002	0.528016	-0.07	0.91	-1.12	-0.238	0.2188	-0.487	
0.228506	-0.8052	0.526186	-0.56	1.05	-0.7	-0.2364	0.2173	-0.4793	
0.223138	-0.811422	0.524478	-0.35	0.84	-0.77	-0.2309	0.2173	-0.4869	
0.225578	-0.8113	0.525698	-0.07	0.77	-0.77	-0.2364	0.2095	-0.4762	
0.231556	-0.805322	0.525942	-0.21	0.35	-0.91	-0.2294	0.2142	-0.476	
0.230214	-0.81069	0.525454	-0.28	0.42	-0.84	-0.2364	0.2157	-0.4793	
0.22936	-0.816668	0.525454	-0.35	0.21	-0.63	-0.2464	0.2156	-0.4872	
0.229482	-0.813984	0.526674	0.21	0.42	-0.28	-0.2379	0.2126	-0.4809	
0.22814	-0.805688	0.526674	0	0.14	-0.42	-0.2407	0.2157	-0.4825	
0.226554	-0.808616	0.52216	-0.28	0.14	-0.07	-0.2421	0.2095	-0.4779	
0.230336	-0.812398	0.519964	-0.28	0	-0.21	-0.2449	0.2126	-0.481	