Sensor string: E
Serial number: 1970-01-0000
Firmware version: 2,015
Hardware version: 2,2
Calibration quality: 5
ax	ay	az	gx	gy	gz	mx	my	mz

-0.860832	0.062098	0.511668	-2.87	0.56	0.77	-1.4664	-0.2034	-1.1071	Reference
-0.864736	0.05185	0.517036	-4.55	0.07	0.91	-1.486	-0.1947	-1.1051	
-0.853268	0.039528	0.514962	-3.29	-0.98	0.63	-1.4662	-0.1828	-1.1083	
-0.85156	0.044774	0.515816	-2.38	-0.14	0.84	-1.4785	-0.1916	-1.1021	
-0.856684	0.045262	0.519842	-2.17	0.42	1.12	-1.4877	-0.2006	-1.1021	
-0.869006	0.044774	0.514596	-0.63	0	-0.28	-1.474	-0.2004	-1.1024	
-0.859368	0.045384	0.51423	0.21	-1.33	-1.33	-1.4786	-0.196	-1.0977	
-0.854732	0.047458	0.51667	0.35	-1.54	-1.54	-1.4769	-0.1872	-1.1051	
-0.855586	0.051728	0.520086	0.84	-1.96	-2.31	-1.4724	-0.1975	-1.1039	
-0.858514	0.055388	0.521306	0.77	-1.47	-3.01	-1.4909	-0.1974	-1.0914	
-0.854366	0.053192	0.522892	0.56	-3.08	-2.8	-1.4695	-0.2019	-1.1025	
-0.84424	0.045628	0.527772	1.26	-2.94	-2.73	-1.4847	-0.2034	-1.0992	
-0.843386	0.050752	0.526796	2.52	-1.68	-2.59	-1.468	-0.2033	-1.0995	
-0.859246	0.062586	0.526308	2.94	-0.91	-3.01	-1.4664	-0.196	-1.104	
-0.853024	0.05978	0.525332	2.24	-1.4	-2.73	-1.4786	-0.1901	-1.0976	
-0.853024	0.049288	0.520696	2.45	-1.26	-2.45	-1.4737	-0.1918	-1.1158	
-0.847656	0.059414	0.52033	3.43	-0.91	-3.01	-1.48	-0.1932	-1.1052	
-0.854122	0.069296	0.51972	2.31	-0.14	-2.45	-1.4723	-0.1887	-1.1052	
-0.853634	0.068808	0.519842	0.7	0.21	-2.17	-1.4784	-0.1962	-1.1083	
-0.85217	0.0549	0.52094	0	0.35	-0.7	-1.4768	-0.1917	-1.1097	
-0.848998	0.050752	0.518988	-0.21	1.54	-0.07	-1.4662	-0.1946	-1.11	
-0.858758	0.053314	0.517768	-1.19	2.24	0	-1.468	-0.1914	-1.0963	
-0.862174	0.053436	0.513132	-1.68	1.47	-0.98	-1.4785	-0.199	-1.1038	
-0.859856	0.046604	0.515938	-2.1	1.54	-1.05	-1.4798	-0.1873	-1.1081	
-0.86376	0.042822	0.514352	-1.4	1.68	-0.77	-1.4694	-0.193	-1.1039	
-0.865346	0.042822	0.509838	-1.61	0.91	-1.05	-1.4693	-0.1931	-1.1099	
-0.85034	0.037088	0.512766	-1.26	-0.21	-0.98	-1.4694	-0.2004	-1.1055	
-0.86742	0.03111	0.508008	-0.63	1.05	-1.19	-1.4801	-0.1946	-1.1007	
-0.866932	0.03233	0.50142	0.77	0.21	-1.96	-1.4725	-0.19	-1.0992	
-0.8723	0.042334	0.501786	2.17	-0.28	-2.24	-1.4829	-0.1843	-1.105	
-0.887672	0.050386	0.492514	2.17	0.28	-2.03	-1.4709	-0.199	-1.1039	
-0.901824	0.05185	0.487146	1.54	-0.49	-1.26	-1.4786	-0.1886	-1.096	
-0.891454	0.0427	0.48922	1.12	-3.36	-1.05	-1.4739	-0.1931	-1.1053	
-0.890478	0.050386	0.48556	0.98	-3.5	-0.77	-1.4707	-0.1843	-1.1067	
-0.891576	0.062098	0.484218	0.07	-4.83	-1.47	-1.48	-0.1917	-1.1036	
-0.895968	0.061854	0.480924	-1.68	-6.72	0.35	-1.4814	-0.1932	-1.1067	
-0.897554	0.058926	0.481534	-2.52	-7.28	0.7	-1.4814	-0.1947	-1.1097	
-0.887428	0.049166	0.485682	-3.08	-9.59	1.26	-1.4815	-0.1931	-1.1021	
-0.881328	0.047458	0.494222	-3.64	-11.62	1.33	-1.4738	-0.1946	-1.1083	
-0.879742	0.049654	0.498492	-3.71	-12.53	1.68	-1.4816	-0.202	-1.1038	
-0.875594	0.049898	0.50508	-3.99	-14.42	1.82	-1.4784	-0.1917	-1.1067	
-0.862052	0.043554	0.514108	-4.34	-15.82	2.31	-1.4859	-0.1874	-1.108	
-0.854732	0.03599	0.521062	-3.92	-17.01	2.1	-1.489	-0.1888	-1.1049	
-0.85461	0.035136	0.528626	-3.08	-17.99	1.54	-1.4829	-0.1888	-1.1081	
-0.852292	0.039772	0.532042	-1.89	-19.18	1.12	-1.4904	-0.183	-1.1093	
-0.844606	0.045018	0.533994	-1.68	-20.51	0.56	-1.4936	-0.1918	-1.1034	
-0.841556	0.04026	0.538996	-1.12	-21.56	0.14	-1.4979	-0.1891	-1.1153	
-0.841556	0.035258	0.545828	-0.7	-22.54	-0.63	-1.4935	-0.1919	-1.1079	
-0.836554	0.038186	0.551684	-0.63	-23.87	-1.61	-1.5023	-0.1922	-1.1244	
-0.83204	0.035502	0.555954	-0.56	-25.13	-2.1	-1.5055	-0.1936	-1.1153	
-0.826916	0.041968	0.559004	0.07	-25.83	-2.8	-1.5114	-0.1909	-1.1257	
-0.82655	0.05063	0.564738	-0.63	-26.53	-2.73	-1.5191	-0.1923	-1.1195	
-0.82838	0.049654	0.568032	-0.49	-27.58	-2.45	-1.5252	-0.1967	-1.1165	
-0.814716	0.045018	0.576206	-2.73	-30.17	-1.89	-1.5205	-0.1894	-1.1225	
-0.808982	0.047702	0.586454	-3.36	-32.41	-1.75	-1.522	-0.1865	-1.1239	
-0.798002	0.052826	0.601094	-4.48	-33.95	-2.45	-1.531	-0.1941	-1.1329	
-0.796904	0.054412	0.604876	-3.64	-34.86	-2.45	-1.5369	-0.1868	-1.1327	
-0.791902	0.053192	0.60939	-4.2	-35.7	-0.35	-1.546	-0.1944	-1.1372	
-0.767502	0.037698	0.618418	-5.67	-37.03	1.4	-1.561	-0.1828	-1.1397	
-0.762866	0.025986	0.626592	-3.99	-35.77	-1.12	-1.5537	-0.2018	-1.1372	
-0.744078	0.036356	0.635254	-3.36	-37.1	-1.47	-1.5718	-0.1961	-1.1352	
-0.726266	0.032696	0.648552	-5.25	-36.33	0.49	-1.5776	-0.192	-1.1501	
-0.711626	0.019276	0.661362	-5.04	-36.12	1.4	-1.5899	-0.1979	-1.1439	
-0.707112	0.021472	0.678686	-3.64	-36.19	1.61	-1.5944	-0.2024	-1.1455	
-0.702964	0.025376	0.687592	-2.94	-36.75	2.1	-1.5898	-0.1935	-1.1469	
-0.696376	0.021838	0.69174	-2.45	-38.01	2.24	-1.5987	-0.1848	-1.1496	
-0.681736	0.016836	0.698328	-3.57	-37.66	2.45	-1.6019	-0.1817	-1.1404	
-0.667706	0.0122	0.705648	-3.85	-37.66	2.03	-1.62	-0.1789	-1.1415	
-0.6588	0.008417999	0.714066	-3.99	-37.73	1.26	-1.6214	-0.1865	-1.1522	
-0.651846	0.00549	0.71736	-3.5	-38.36	0.98	-1.6182	-0.1778	-1.1597	
-0.649284	0.007686	0.720044	-3.29	-38.43	0.98	-1.6307	-0.185	-1.1429	
-0.648308	0.011102	0.726388	-3.36	-39.41	1.12	-1.632	-0.1792	-1.1488	
-0.633424	0.01464	0.733342	-3.64	-41.37	0.84	-1.6471	-0.1794	-1.1516	
-0.618296	0.01037	0.73444	-3.78	-42.14	1.05	-1.6594	-0.1824	-1.1469	
-0.601948	0.007076	0.74298	-3.36	-42.91	2.38	-1.6544	-0.1827	-1.1681	
-0.586454	0.009516	0.747128	-2.8	-43.54	2.73	-1.6638	-0.1825	-1.1543	
-0.57889	0.01891	0.76128	-1.47	-44.52	2.03	-1.6713	-0.1811	-1.1542	
-0.567056	0.02806	0.76311	-1.47	-45.99	2.03	-1.6804	-0.1828	-1.157	
-0.542656	0.034404	0.763354	-1.82	-47.18	2.17	-1.685	-0.1828	-1.1555	
-0.517768	0.035258	0.773602	-2.59	-48.16	2.59	-1.7003	-0.1917	-1.1523	
-0.506056	0.034648	0.779092	-3.22	-48.51	2.66	-1.697	-0.183	-1.1613	
-0.49471	0.028548	0.78873	-3.08	-49.56	2.87	-1.7109	-0.1859	-1.149	
-0.486536	0.026596	0.796172	-4.13	-51.1	3.29	-1.7184	-0.186	-1.1518	
-0.47153	0.02257	0.798246	-5.53	-52.64	4.2	-1.7213	-0.1832	-1.1578	
-0.43615	0.017934	0.806664	-5.46	-54.6	4.97	-1.7379	-0.1789	-1.1604	
-0.4148	0.020008	0.815448	-5.81	-55.79	5.18	-1.7395	-0.1848	-1.159	
-0.403454	0.009638	0.832772	-7.42	-55.51	5.25	-1.7531	-0.1835	-1.1572	
-0.361242	0.005368	0.833748	-7.35	-58.03	4.9	-1.7501	-0.1775	-1.1556	
-0.343308	0.002806	0.85278	-7.84	-57.82	4.97	-1.7757	-0.1793	-1.1627	
-0.32757	-0.00549	0.855952	-8.12	-57.68	5.25	-1.782	-0.1807	-1.1536	
-0.300486	-0.013298	0.868762	-7.63	-59.15	5.04	-1.7864	-0.1764	-1.1549	
-0.265838	-0.020374	0.881816	-6.65	-59.36	4.76	-1.8003	-0.1763	-1.1441	
-0.241316	-0.020496	0.897554	-5.32	-59.01	4.06	-1.8123	-0.1854	-1.1515	
-0.221918	-0.021594	0.909022	-3.78	-59.08	2.73	-1.8308	-0.1824	-1.1375	
-0.202642	-0.022448	0.915122	-3.22	-58.73	2.24	-1.8247	-0.1749	-1.136	
-0.17568	-0.017324	0.921222	-2.66	-59.08	1.96	-1.8443	-0.1811	-1.1433	
-0.14152	-0.01769	0.921344	-2.24	-58.38	2.52	-1.8548	-0.1635	-1.1413	
-0.107482	-0.019276	0.93757	-2.52	-58.59	2.73	-1.8625	-0.1754	-1.1398	
-0.08418	-0.012078	0.941962	-2.52	-56.77	2.17	-1.8594	-0.1695	-1.1413	
-0.083448	-0.0122	0.945134	-3.99	-55.16	2.73	-1.8777	-0.174	-1.1365	
-0.059414	-0.018178	0.94367	-4.27	-56.42	2.03	-1.887	-0.1813	-1.1304	
-0.012444	-0.024034	0.949404	-3.92	-57.26	1.05	-1.8975	-0.1755	-1.1301	
0.012322	-0.0183	0.95465	-2.87	-56.63	1.47	-1.9005	-0.1667	-1.1284	
0.024644	-0.012932	0.959896	-2.8	-54.81	1.82	-1.9067	-0.1785	-1.1285	
0.034404	-0.012078	0.96624	-2.73	-53.55	1.75	-1.9145	-0.1887	-1.1179	
0.045628	-0.012322	0.968924	-3.36	-52.71	1.75	-1.931	-0.1831	-1.1251	
0.064904	-0.020374	0.980392	-3.36	-51.1	1.61	-1.9357	-0.1726	-1.1127	
0.095892	-0.030012	0.995398	-3.29	-50.4	0.77	-1.9448	-0.1742	-1.1125	
0.124562	-0.022204	0.998814	-3.78	-49.35	0.07	-1.9466	-0.1769	-1.0975	
0.146034	-0.01952	1.003816	-4.2	-48.02	0	-1.9541	-0.18	-1.1034	
0.153476	-0.025864	1.003694	-5.18	-47.18	-0.14	-1.9573	-0.1755	-1.0942	
0.16958	-0.032696	1.00223	-5.67	-46.83	-0.63	-1.9709	-0.1801	-1.1001	
0.19032	-0.05551	1.00589	-5.95	-43.82	0.07	-1.9741	-0.1755	-1.0863	
0.21167	-0.072102	1.020286	-5.81	-40.74	0.35	-1.977	-0.1667	-1.0891	
0.244854	-0.075518	1.019188	-4.48	-38.15	-0.21	-1.9923	-0.1757	-1.086	
0.266326	-0.065392	1.024678	-1.96	-36.05	-0.14	-1.997	-0.1696	-1.0737	
0.284138	-0.055388	1.031022	0.07	-31.5	-0.35	-2.0032	-0.1651	-1.0674	
0.293532	-0.041846	1.03578	2.17	-28.14	-0.98	-1.9971	-0.174	-1.0738	
0.304634	-0.025498	1.036268	3.29	-26.53	-1.75	-2.006	-0.1683	-1.078	
0.31354	-0.025498	1.052128	3.64	-22.89	-2.17	-2.0137	-0.1653	-1.0718	
0.317932	-0.025254	1.054446	4.2	-19.53	-2.24	-2.0108	-0.1696	-1.0674	
0.32879	-0.020862	1.061156	4.27	-15.47	-1.89	-2.014	-0.1725	-1.0598	
0.33672	-0.012078	1.067012	5.67	-11.97	-1.47	-2.02	-0.174	-1.0612	
0.342942	-0.00305	1.07116	5.67	-4.83	-1.19	-2.0216	-0.1799	-1.0613	
0.345138	-0.007686	1.077016	5.39	-0.7	-0.84	-2.0157	-0.1798	-1.0554	
0.337696	-0.015616	1.082872	4.27	5.81	-0.21	-2.0186	-0.1799	-1.0584	
0.334646	-0.020984	1.076284	2.94	11.41	-0.14	-2.0245	-0.1756	-1.0642	
0.33367	-0.021716	1.077138	2.8	15.05	-0.7	-2.0111	-0.1767	-1.0524	
0.332694	-0.022448	1.06933	2.94	19.04	-1.12	-2.0123	-0.1756	-1.069	
0.321226	-0.021594	1.06628	3.22	23.45	-1.19	-2.0138	-0.183	-1.0736	
0.30378	-0.01525	1.051152	3.5	27.02	-1.54	-2.0108	-0.1785	-1.0691	
0.283772	-0.009516	1.037854	3.85	28.42	-2.17	-2.0078	-0.1814	-1.0707	
0.260958	-0.012322	1.026996	3.29	30.38	-2.1	-2.0018	-0.1888	-1.0739	
0.243146	-0.011834	1.019066	3.5	32.13	-1.68	-1.9989	-0.1946	-1.0696	
0.223626	-0.009516	1.015894	3.22	34.51	-1.75	-1.9834	-0.1873	-1.0803	
0.211914	-0.010614	1.008086	2.94	36.75	-1.61	-1.9956	-0.1814	-1.0754	
0.19459	-0.011102	1.00406	2.66	38.08	-1.33	-1.9816	-0.1831	-1.0939	
0.170556	-0.012688	1.003206	2.38	39.97	-1.05	-1.9847	-0.18	-1.0877	
0.139446	-0.015494	0.998326	2.52	41.16	-0.56	-1.9739	-0.1876	-1.1047	
0.11956	-0.012078	0.998326	3.71	42	-0.28	-1.9693	-0.1772	-1.1016	
0.105408	-0.00732	0.990884	4.27	42.77	0	-1.9601	-0.1831	-1.1094	
0.078812	-0.002562	0.976732	4.69	44.52	-0.42	-1.9542	-0.1859	-1.102	
0.061732	0.000976	0.97783	4.76	44.52	-0.42	-1.945	-0.1889	-1.1128	
0.049166	0.00183	0.978196	4.9	45.57	-0.63	-1.948	-0.1741	-1.1064	
0.03599	0.00061	0.974414	4.69	45.78	-0.7	-1.9343	-0.1889	-1.116	
-0.001708	0.00122	0.963312	5.04	45.43	-1.05	-1.9343	-0.1904	-1.1176	
-0.021472	0.00122	0.967948	4.55	45.71	-0.7	-1.9221	-0.1933	-1.1209	
-0.020618	-0.000366	0.965142	4.48	45.92	0.07	-1.9098	-0.1904	-1.1301	
-0.029768	0.005246	0.961848	5.6	46.2	-0.28	-1.896	-0.1904	-1.1364	
-0.048068	0.00488	0.967338	6.72	46.48	-0.42	-1.9006	-0.1859	-1.1317	
-0.066612	0.001586	0.959286	6.93	48.09	-0.35	-1.8899	-0.1859	-1.138	
-0.088694	0.007929999	0.948916	7.21	47.88	-0.56	-1.884	-0.1976	-1.1368	
-0.10736	0.018788	0.949648	7.42	47.81	-1.12	-1.8794	-0.1872	-1.1337	
-0.115168	0.027816	0.94367	6.58	49	-1.05	-1.8731	-0.1903	-1.1444	
-0.145424	0.031476	0.936838	5.67	49.77	-0.7	-1.8702	-0.1872	-1.1399	
-0.166652	0.030012	0.928786	4.97	50.75	-0.21	-1.8535	-0.1945	-1.1434	
-0.18361	0.033184	0.927444	5.04	51.31	-0.28	-1.8427	-0.1946	-1.1557	
-0.20313	0.044652	0.91378	5.39	51.87	-0.84	-1.8369	-0.1973	-1.1437	
-0.234362	0.03843	0.914756	4.69	51.8	-0.77	-1.823	-0.1929	-1.1515	
-0.250222	0.036966	0.903654	4.55	52.71	-1.19	-1.8259	-0.1886	-1.1559	
-0.257908	0.033794	0.894992	4.9	51.03	-1.26	-1.8109	-0.2017	-1.1579	
-0.280112	0.03111	0.890478	4.83	50.82	-0.91	-1.7959	-0.2014	-1.1491	
-0.310734	0.0305	0.87718	5.39	51.24	-1.26	-1.7971	-0.1987	-1.1611	
-0.339404	0.02928	0.86986	6.86	49.98	-1.12	-1.7852	-0.1999	-1.1538	
-0.347944	0.038796	0.870592	7.63	48.93	-1.33	-1.7788	-0.1882	-1.1613	
-0.350872	0.04453	0.86437	8.33	48.23	-1.96	-1.7684	-0.1969	-1.1602	
-0.369294	0.050386	0.851072	8.75	48.3	-2.66	-1.7639	-0.2027	-1.1558	
-0.39833	0.055754	0.838506	8.75	45.15	-2.73	-1.7532	-0.2012	-1.162	
-0.416996	0.069418	0.833016	8.4	43.75	-2.52	-1.7517	-0.2027	-1.1606	
-0.438468	0.087352	0.827648	7.98	45.29	-2.24	-1.7338	-0.2187	-1.1582	
-0.44591	0.105408	0.82899	6.3	45.08	-2.31	-1.7318	-0.1967	-1.1699	
-0.4697	0.090646	0.826428	4.97	45.29	-1.89	-1.7125	-0.2125	-1.1555	
-0.46177	0.066978	0.83082	3.71	45.5	-1.12	-1.7183	-0.2084	-1.1689	
-0.463112	0.053924	0.82533	1.75	44.66	1.19	-1.7032	-0.1977	-1.1584	
-0.49227	0.052338	0.80581	0.91	46.41	2.45	-1.6895	-0.2006	-1.1632	
-0.517768	0.05307	0.800076	0.91	45.92	2.8	-1.6896	-0.208	-1.1634	
-0.533506	0.055754	0.787632	0.49	46.06	2.87	-1.6835	-0.2065	-1.165	
-0.544364	0.055998	0.77775	0.84	44.73	3.01	-1.6746	-0.2077	-1.1561	
-0.539606	0.05734	0.773968	1.75	44.17	3.01	-1.6581	-0.2089	-1.1489	
-0.547902	0.062464	0.767868	2.31	45.22	2.52	-1.6519	-0.206	-1.155	
-0.57218	0.071736	0.75884	2.8	46.41	1.61	-1.6501	-0.1884	-1.1592	
-0.58316	0.074664	0.754814	2.87	46.13	1.05	-1.6413	-0.2044	-1.1506	
-0.590968	0.07137	0.74298	3.92	45.85	0.49	-1.6383	-0.2058	-1.1507	
-0.608292	0.073566	0.740296	5.46	47.11	-0.28	-1.6186	-0.2071	-1.1511	
-0.623664	0.096502	0.73078	4.76	47.46	-1.19	-1.6216	-0.2072	-1.1556	
-0.654652	0.10187	0.715652	2.87	47.25	-1.19	-1.6021	-0.2023	-1.1393	
-0.67527	0.09162199	0.703086	0.98	47.46	0.84	-1.5927	-0.2026	-1.1591	
-0.68503	0.085278	0.683688	1.19	46.2	0.49	-1.5899	-0.2053	-1.1486	
-0.69967	0.076128	0.674416	1.82	46.9	-0.49	-1.5791	-0.2068	-1.1549	
-0.719434	0.067466	0.647454	2.52	47.53	-0.49	-1.5868	-0.2097	-1.1503	
-0.722606	0.06588	0.620492	3.78	46.55	-0.84	-1.5613	-0.1988	-1.1309	
-0.736758	0.064294	0.600362	5.53	46.41	-1.89	-1.5538	-0.2017	-1.1326	
-0.75701	0.06649	0.586698	6.51	46.34	-2.66	-1.5506	-0.2077	-1.1403	
-0.770552	0.066978	0.581208	6.51	45.15	-3.01	-1.5295	-0.1985	-1.13	
-0.768356	0.066978	0.584746	7	44.24	-3.15	-1.5462	-0.212	-1.136	
-0.759084	0.065758	0.585722	9.8	44.66	-3.08	-1.5295	-0.2074	-1.1347	
-0.76738	0.068442	0.595848	12.11	47.53	-3.43	-1.5173	-0.2133	-1.1411	
-0.751764	0.084058	0.586332	13.16	48.51	-6.09	-1.5053	-0.2146	-1.1383	
-0.742858	0.087108	0.558882	12.32	50.19	-7.98	-1.5069	-0.2071	-1.1291	
-0.759206	0.088816	0.54046	13.02	51.1	-8.68	-1.5025	-0.2203	-1.1279	
-0.775188	0.09747799	0.525088	12.11	53.83	-8.61	-1.4936	-0.2186	-1.1159	
-0.836188	0.101138	0.500444	11.55	56.21	-7.84	-1.489	-0.2096	-1.1144	
-0.87169	0.098088	0.483364	10.08	55.65	-6.37	-1.4802	-0.2138	-1.1055	
-0.896822	0.09552599	0.466528	8.75	53.97	-5.04	-1.4668	-0.2164	-1.0938	
-0.892918	0.0976	0.4514	7.63	51.52	-4.2	-1.4622	-0.2283	-1.0986	
-0.912194	0.090036	0.428342	5.95	51.59	-3.22	-1.4531	-0.2252	-1.0987	
-0.942938	0.08052	0.405162	5.67	51.03	-3.5	-1.4439	-0.2044	-1.0925	
-0.945134	0.078934	0.389912	4.55	46.34	-4.06	-1.4412	-0.2234	-1.0868	
-0.93574	0.073688	0.37027	3.5	42.84	-5.32	-1.4365	-0.2072	-1.0881	
-0.935252	0.072346	0.35563	3.64	41.3	-6.23	-1.4322	-0.2188	-1.0794	
-0.94245	0.080398	0.345626	4.34	40.53	-6.86	-1.4185	-0.2128	-1.0795	
-0.931836	0.08235	0.358558	2.73	38.99	-5.88	-1.4142	-0.214	-1.069	
-0.905118	0.08479	0.351482	4.2	37.24	-5.74	-1.4112	-0.214	-1.0691	
-0.909632	0.083448	0.342454	5.04	39.27	-6.51	-1.4159	-0.2213	-1.0631	
-0.926468	0.081374	0.325496	6.3	41.65	-7	-1.3961	-0.1988	-1.0555	
-0.96258	0.091012	0.295728	6.09	44.73	-7.42	-1.3886	-0.1987	-1.0526	
-0.974658	0.104676	0.267424	5.11	42.49	-7.84	-1.392	-0.2311	-1.0486	
-0.983076	0.097234	0.250466	2.17	42.14	-5.46	-1.3891	-0.2116	-1.0332	
-0.994422	0.069052	0.230092	1.47	41.02	-1.82	-1.3724	-0.207	-1.0304	
-1.000522	0.05551	0.215574	2.38	40.04	-0.21	-1.3663	-0.2055	-1.0335	
-0.995154	0.057828	0.20618	4.83	35.56	-0.91	-1.3664	-0.207	-1.0305	
-0.991372	0.07625	0.192272	4.2	33.81	-2.31	-1.3667	-0.2111	-1.017	
-1.014674	0.089182	0.17751	4.83	34.23	-1.33	-1.368	-0.2068	-1.0229	
-1.01382	0.09394	0.177266	3.64	31.15	-0.49	-1.3544	-0.2067	-1.0247	
-1.006378	0.091012	0.17995	3.01	30.03	0.21	-1.3485	-0.2095	-1.0158	
-0.995764	0.081984	0.18117	1.82	28.77	1.47	-1.3532	-0.2138	-1.0098	
-1.007476	0.075762	0.178242	2.66	30.03	1.82	-1.3425	-0.2182	-1.0146	
-1.00284	0.07991	0.173606	2.87	29.68	1.33	-1.344	-0.2153	-1.0145	
-1.01138	0.096014	0.161162	2.59	30.52	-0.07	-1.3367	-0.2135	-1.001	
-1.005402	0.087718	0.153964	0.63	29.4	1.89	-1.3366	-0.1972	-0.9977	
-1.008208	0.076494	0.142618	0.98	29.26	2.52	-1.3384	-0.2134	-0.9919	
-0.995642	0.072102	0.136884	1.68	28.28	2.31	-1.3371	-0.2147	-0.9814	
-1.004792	0.077348	0.12139	3.29	28.49	0.35	-1.328	-0.2116	-0.98	
-1.020652	0.075884	0.111874	2.45	29.68	0.07	-1.325	-0.2145	-0.9816	
-1.006134	0.083204	0.113094	1.82	26.39	0	-1.3297	-0.2085	-0.9693	
-0.987346	0.0976	0.10797	0.91	26.11	-1.33	-1.322	-0.2174	-0.9772	
-1.006012	0.096746	0.08357	-0.14	28.91	-2.17	-1.3114	-0.2098	-0.9727	
-1.040416	0.092232	0.064416	-0.42	30.31	-1.96	-1.3116	-0.2156	-0.9668	
-1.043954	0.091866	0.057096	-0.28	25.69	-1.19	-1.3161	-0.2023	-0.9604	
-1.031876	0.097966	0.052704	0.21	23.45	-1.05	-1.3146	-0.2038	-0.962	
-1.026142	0.092354	0.041968	1.96	23.66	-0.84	-1.3147	-0.1963	-0.9558	
-1.025532	0.084546	0.027206	1.82	24.29	-0.28	-1.3056	-0.2081	-0.9622	
-1.040782	0.094428	0.017934	2.24	23.87	-1.12	-1.3043	-0.2183	-0.9534	
-1.048834	0.096868	0.000366	1.26	23.03	-2.1	-1.3026	-0.2065	-0.9577	
-1.058106	0.088084	-0.005612	1.89	21.14	-1.05	-1.2997	-0.2064	-0.9502	
-1.050054	0.095892	-0.014396	2.1	18.48	-1.54	-1.2937	-0.2092	-0.9489	
-1.04249	0.09882	-0.016104	1.82	17.15	-1.4	-1.3045	-0.2106	-0.9381	
-1.047004	0.094916	-0.024888	1.89	16.66	-1.05	-1.2955	-0.2075	-0.9322	
-1.04493	0.09076799	-0.030012	1.47	14.77	-0.63	-1.291	-0.2133	-0.9324	
-1.045296	0.092598	-0.038308	1.4	13.93	-0.56	-1.2941	-0.2119	-0.9308	
-1.04371	0.095892	-0.040016	0.56	12.74	-1.12	-1.288	-0.2148	-0.934	
-1.056276	0.093208	-0.049044	-0.14	11.9	-0.77	-1.2836	-0.2117	-0.9264	
-1.06567	0.091134	-0.049654	-1.47	9.52	-0.84	-1.2851	-0.2072	-0.9218	
-1.052738	0.087962	-0.045262	-2.24	6.16	-0.7	-1.2851	-0.2132	-0.928	
-1.04127	0.085278	-0.043432	-2.87	4.2	-0.7	-1.2728	-0.1983	-0.9279	
-1.046882	0.08174	-0.050264	-2.94	3.85	-0.77	-1.2912	-0.2087	-0.9202	
-1.056154	0.078934	-0.05002	-3.15	2.52	-1.33	-1.279	-0.2072	-0.9249	
-1.05286	0.077348	-0.049654	-3.57	-0.14	-0.7	-1.276	-0.2056	-0.9204	
-1.041758	0.079422	-0.045262	-2.8	-2.59	-0.77	-1.3016	-0.209	-0.9321	
-1.04615	0.087352	-0.050508	-3.01	-2.17	-1.26	-1.291	-0.2015	-0.9276	
-1.051518	0.091134	-0.051606	-2.94	-3.57	-1.75	-1.2881	-0.2132	-0.9264	
-1.05408	0.083204	-0.055998	-3.22	-5.88	-0.63	-1.2911	-0.2014	-0.9231	
-1.048956	0.079178	-0.050142	-2.94	-7.98	-0.14	-1.291	-0.203	-0.9307	
-1.042856	0.089304	-0.04697	-2.73	-9.87	-1.54	-1.288	-0.2089	-0.9308	
-1.043466	0.090524	-0.047092	-3.99	-10.01	-1.68	-1.2924	-0.1956	-0.932	
-1.056642	0.08235	-0.045872	-4.55	-10.5	-1.05	-1.2847	-0.2016	-0.9413	
-1.057862	0.076128	-0.044286	-4.62	-12.46	-0.7	-1.2938	-0.2047	-0.9412	
-1.05652	0.078446	-0.042456	-4.2	-14.7	-1.12	-1.2893	-0.2016	-0.9382	
-1.05286	0.08174	-0.033428	-4.41	-16.38	-1.96	-1.2939	-0.2046	-0.9382	
-1.043588	0.086498	-0.033306	-4.62	-18.83	-2.1	-1.2906	-0.1989	-0.9472	
-1.067134	0.078568	-0.031964	-4.13	-19.39	-2.17	-1.2907	-0.1958	-0.9411	
-1.060546	0.073444	-0.018056	-4.41	-23.17	-1.68	-1.2982	-0.2138	-0.9534	
-1.048712	0.074298	-0.004636	-3.64	-25.9	-1.82	-1.3011	-0.2006	-0.9561	
-1.057984	0.077104	-0.002074	-3.36	-25.9	-2.87	-1.3012	-0.202	-0.9516	
-1.059326	0.076738	0.000366	-3.71	-28.42	-3.43	-1.3026	-0.1961	-0.9545	
-1.054446	0.08052	0.010858	-4.13	-31.15	-3.43	-1.3011	-0.214	-0.9624	
-1.04798	0.078934	0.01952	-5.11	-32.62	-3.29	-1.319	-0.198	-0.9663	
-1.052372	0.072102	0.02379	-5.67	-33.32	-3.08	-1.3129	-0.198	-0.9694	
-1.05347	0.060268	0.036722	-4.9	-34.79	-2.66	-1.322	-0.1996	-0.9708	
-1.03944	0.061	0.05002	-4.13	-36.82	-2.38	-1.3158	-0.1921	-0.9708	
-1.037244	0.069784	0.065514	-4.27	-37.59	-2.66	-1.3187	-0.2012	-0.983	
-1.032608	0.067588	0.074542	-4.55	-38.15	-2.87	-1.3338	-0.1925	-0.9809999	
-1.030534	0.063928	0.090036	-4.55	-38.64	-2.8	-1.3276	-0.197	-0.9903	
-1.02297	0.057828	0.106384	-4.34	-39.69	-2.73	-1.3335	-0.1943	-0.9992	
-1.023946	0.054168	0.11895	-2.73	-39.83	-3.71	-1.3412	-0.1958	-0.9960999	
-1.020408	0.058438	0.126636	-2.17	-40.6	-4.41	-1.3454	-0.1946	-1.0096	
-1.020164	0.058438	0.13725	-2.8	-41.65	-3.78	-1.3515	-0.1961	-1.011	
-1.018822	0.0549	0.158112	-3.22	-42.91	-3.29	-1.3573	-0.192	-1.0214	
-1.015894	0.04575	0.16836	-3.36	-44.38	-2.73	-1.3589	-0.1934	-1.0168	
-1.00345	0.045018	0.180072	-3.29	-46.41	-2.66	-1.3621	-0.1947	-1.0092	
-0.997838	0.043066	0.20679	-3.15	-47.18	-2.24	-1.3681	-0.2068	-1.0214	
-0.980514	0.049166	0.231434	-3.71	-49.42	-1.82	-1.3692	-0.1923	-1.0347	
-0.987346	0.04514	0.243634	-4.27	-50.54	-1.47	-1.3753	-0.1983	-1.0347	
-0.980148	0.027938	0.246196	-4.83	-54.04	-0.7	-1.384	-0.1928	-1.0526	
-0.93452	0.024766	0.281576	-0.91	-55.79	-1.05	-1.3946	-0.1884	-1.0493	
-0.937082	0.03355	0.302072	3.43	-53.76	-3.01	-1.3991	-0.1885	-1.0538	
-0.926468	0.025376	0.313174	2.31	-53.27	-1.82	-1.4064	-0.1918	-1.0658	
-0.937082	0.045262	0.316712	4.83	-52.57	-2.52	-1.4141	-0.1962	-1.0657	
-0.92598	0.06466	0.336232	0.49	-56.77	-1.33	-1.4274	-0.1966	-1.0806	
-0.908778	0.047336	0.348188	-1.89	-59.99	1.68	-1.4274	-0.1966	-1.0806	
-0.85217	0.005734	0.404308	0	-63.84	6.16	-1.4469	-0.1985	-1.0938	
-0.845216	0.010614	0.424682	0.35	-63.28	5.39	-1.4469	-0.1985	-1.0938	
-0.827282	0.03294	0.459086	-2.45	-63.07	5.11	-1.4545	-0.2031	-1.0968	
-0.803492	0.034404	0.504226	-4.34	-64.05	7.84	-1.4755	-0.2005	-1.1054	
-0.791536	0.02989	0.516426	-4.34	-62.79	9.1	-1.4799	-0.1962	-1.1098	
-0.785558	0.024278	0.532408	-6.58	-60.41	9.45	-1.4905	-0.1963	-1.1111	
-0.781776	0.031598	0.54595	-5.39	-61.32	7.21	-1.4904	-0.1964	-1.1141	
-0.788486	0.044652	0.554612	-5.11	-62.44	3.22	-1.5114	-0.1953	-1.1242	
-0.77592	0.040382	0.565226	-5.6	-62.72	2.31	-1.5205	-0.1998	-1.1272	
-0.763476	0.042578	0.585722	-4.2	-63.49	2.52	-1.5385	-0.1942	-1.1343	
-0.732488	0.042944	0.606096	-5.04	-65.17	1.96	-1.5327	-0.2043	-1.124	
-0.707112	0.040138	0.6283	-3.85	-65.1	1.19	-1.5537	-0.2032	-1.1342	
-0.69113	0.0366	0.647576	-4.76	-64.33	1.26	-1.5597	-0.2004	-1.14	
-0.670024	0.017934	0.670268	-4.27	-65.03	2.52	-1.5717	-0.2081	-1.1475	
-0.65026	0.02806	0.660996	-3.15	-65.17	3.29	-1.581	-0.2094	-1.1368	
-0.665998	0.033672	0.668072	-3.71	-62.37	3.71	-1.5927	-0.2025	-1.1561	
-0.660996	0.030866	0.691374	-3.43	-64.47	4.27	-1.5987	-0.1982	-1.1574	
-0.614636	0.048922	0.715774	-2.17	-69.16	3.92	-1.611	-0.2041	-1.1527	
-0.579256	0.064172	0.738588	-4.69	-68.46	3.22	-1.6243	-0.1926	-1.1628	
-0.571204	0.07564	0.74847	-4.48	-65.66	0.98	-1.6351	-0.1941	-1.1551	
-0.558882	0.068198	0.758474	-6.79	-65.87	2.03	-1.6518	-0.1942	-1.1548	
-0.544974	0.057706	0.778238	-10.01	-66.57	4.97	-1.6611	-0.209	-1.1503	
-0.510448	0.054534	0.783606	-10.92	-66.64	6.37	-1.6668	-0.2079	-1.1683	
-0.475922	0.06283	0.795928	-11.69	-64.33	9.1	-1.6837	-0.2078	-1.1559	
-0.47336	0.047824	0.808494	-13.02	-60.76	13.65	-1.6955	-0.1904	-1.1629	
-0.465064	0.027938	0.838018	-13.23	-59.92	14.7	-1.6987	-0.2006	-1.1585	
-0.425292	0.024766	0.848998	-10.57	-60.13	13.79	-1.6987	-0.1947	-1.1539	
-0.396378	0.039406	0.860466	-10.85	-58.8	11.34	-1.7226	-0.1789	-1.1667	
-0.390156	0.046238	0.86376	-11.97	-56.49	10.01	-1.7274	-0.1951	-1.1624	
-0.380152	0.029768	0.85217	-11.83	-56.98	8.4	-1.7365	-0.1892	-1.1576	
-0.34831	0.007808	0.869616	-12.11	-56.98	8.05	-1.7425	-0.1938	-1.1621	
-0.324642	-0.001952	0.880718	-11.34	-54.88	6.44	-1.7471	-0.1863	-1.1558	
-0.321958	-0.006344	0.886086	-9.73	-54.46	3.78	-1.7697	-0.1837	-1.1644	
-0.3111	-0.013054	0.88999	-8.54	-54.04	3.01	-1.7787	-0.1794	-1.1627	
-0.292922	-0.005978	0.896822	-7.21	-53.9	1.82	-1.7757	-0.1808	-1.1627	
-0.27816	-0.005368	0.899262	-5.18	-53.06	0.91	-1.7939	-0.1765	-1.1593	
-0.270596	-0.007564	0.906582	-4.55	-51.59	0.56	-1.8018	-0.1838	-1.1487	
-0.249734	-0.005002	0.915976	-3.92	-52.01	0	-1.8035	-0.2	-1.1459	
-0.23424	0.001586	0.919392	-3.29	-51.31	0	-1.8199	-0.1855	-1.1514	
-0.217526	0.002196	0.92903	-4.13	-50.26	0.98	-1.8168	-0.1722	-1.1512	
-0.203008	-0.002684	0.938668	-3.85	-49.28	1.82	-1.8306	-0.1796	-1.145	
-0.181536	-0.000488	0.94245	-2.87	-48.58	1.82	-1.8382	-0.1737	-1.1418	
-0.159698	0.000976	0.948306	-2.52	-47.74	1.82	-1.8458	-0.1723	-1.1401	
-0.1525	-0.005124	0.955138	-2.66	-46.41	2.03	-1.8489	-0.1767	-1.1371	
-0.129686	0.000854	0.94733	-2.8	-46.76	1.75	-1.864	-0.1873	-1.1461	
-0.106994	0.008052	0.950136	-3.85	-47.18	1.82	-1.8641	-0.1842	-1.1369	
-0.088938	0.004392	0.954406	-4.41	-45.85	2.52	-1.8868	-0.1815	-1.1395	
-0.072468	-0.000854	0.956236	-5.46	-44.45	3.29	-1.8945	-0.1755	-1.1302	
-0.049776	-0.007929999	0.958188	-6.3	-45.01	3.57	-1.8929	-0.18	-1.1348	
-0.036478	-0.013054	0.954284	-5.67	-44.87	3.99	-1.9067	-0.1711	-1.1253	
-0.02928	-0.013786	0.95465	-5.67	-43.89	3.57	-1.9111	-0.1682	-1.1267	
-0.006466	-0.01525	0.9638	-5.6	-43.68	3.01	-1.9175	-0.1843	-1.1178	
0.019398	-0.022326	0.975268	-6.23	-43.75	2.45	-1.9145	-0.1769	-1.1147	
0.040016	-0.02806	0.973926	-5.46	-43.47	2.66	-1.9311	-0.1711	-1.1128	
0.05063	-0.028182	0.972218	-5.46	-42.98	2.8	-1.9342	-0.1711	-1.1127	
0.055144	-0.033916	0.976732	-4.62	-41.86	2.03	-1.9478	-0.1713	-1.1139	
0.066856	-0.039772	0.981368	-4.48	-41.58	1.75	-1.9497	-0.1784	-1.0959	
0.084302	-0.041358	0.984784	-3.92	-40.25	1.12	-1.9527	-0.1755	-1.0958	
0.10858	-0.04087	0.986858	-3.43	-39.62	0	-1.9604	-0.168	-1.088	
0.124684	-0.045994	0.995886	-3.08	-38.22	-0.7	-1.9632	-0.1623	-1.0969	
0.142496	-0.052094	0.998082	-2.87	-37.03	-0.35	-1.9677	-0.1638	-1.0983	
0.162382	-0.049654	1.001254	-1.96	-36.05	0.7	-1.9861	-0.1668	-1.0905	
0.171898	-0.035624	0.997228	-1.12	-34.58	0.91	-1.9784	-0.1594	-1.092	
0.183976	-0.04148	1.00711	-1.47	-32.97	0.84	-1.9875	-0.1565	-1.0887	
0.198616	-0.0488	1.00833	-0.21	-30.73	0.91	-1.9907	-0.1713	-1.0905	
0.211182	-0.030622	1.01382	1.05	-30.1	1.33	-1.9955	-0.1786	-1.0814	
0.22448	-0.017568	1.011502	0.7	-27.23	1.19	-2.003	-0.1727	-1.0797	
0.230092	-0.02135	1.010648	0.56	-24.78	0.84	-1.9956	-0.177	-1.0739	
0.234118	-0.029646	1.016138	0.14	-22.05	0.63	-2.0001	-0.1725	-1.0722	
0.244366	-0.029646	1.014552	0.21	-19.81	0.77	-2.0031	-0.1607	-1.0689	
0.254248	-0.024766	1.016748	-0.7	-17.57	1.33	-2.0124	-0.1755	-1.0675	
0.258396	-0.025132	1.01687	-0.77	-15.19	1.54	-2.0184	-0.1711	-1.0642	
0.265716	-0.025864	1.019188	-0.56	-13.02	1.4	-2.0092	-0.1638	-1.0703	
0.273524	-0.026962	1.019066	-0.7	-10.85	0.84	-2.0183	-0.1638	-1.0686	
0.280234	-0.02867	1.01931	-0.7	-8.68	0.21	-2.023	-0.1711	-1.0642	
0.28243	-0.037576	1.020164	-0.49	-6.16	0.28	-2.0231	-0.177	-1.0612	
0.283406	-0.036356	1.019066	0.28	-3.29	-0.14	-2.0229	-0.1652	-1.064	
0.289018	-0.030866	1.015528	0.7	-1.33	-1.05	-2.0169	-0.1741	-1.0689	
0.289018	-0.031354	1.014674	0.7	0.63	-1.4	-2.0184	-0.1623	-1.0641	
0.284626	-0.027084	1.012478	1.19	3.5	-1.4	-2.0137	-0.1623	-1.0672	
0.279624	-0.019642	1.009916	1.47	6.37	-0.98	-2.0124	-0.1725	-1.0629	
0.28792	-0.019276	1.013088	1.12	7.63	-0.84	-2.0276	-0.1756	-1.0626	
0.287066	-0.02013	1.021994	1.68	10.5	-1.54	-2.0139	-0.1681	-1.0613	
0.279014	-0.02257	1.019188	1.33	12.25	-1.47	-2.014	-0.1814	-1.066	
0.26352	-0.024156	1.02236	0.77	15.4	-1.68	-2.0062	-0.177	-1.0721	
0.26474	-0.027694	1.020652	0.98	17.71	-2.24	-2.0061	-0.1742	-1.0766	
0.257176	-0.029036	1.01809	0.77	19.88	-2.24	-2.0122	-0.1786	-1.0766	
0.24278	-0.033428	1.01504	0.91	22.47	-2.03	-2.0048	-0.1755	-1.0676	
0.229848	-0.03294	1.006012	1.33	24.43	-2.45	-2.0063	-0.174	-1.0691	
0.218258	-0.033062	1.005646	2.03	26.11	-3.08	-1.9817	-0.1681	-1.083	
0.213256	-0.0305	1.008696	2.1	27.86	-3.15	-1.994	-0.1755	-1.0769	
0.203008	-0.028548	1.005768	1.89	30.03	-3.01	-1.9864	-0.1725	-1.077	
0.188734	-0.032574	1.002718	2.24	32.06	-2.8	-1.9836	-0.1782	-1.0696	
0.171898	-0.031354	1.00101	2.31	33.46	-2.87	-1.9802	-0.1741	-1.0862	
0.158112	-0.030012	0.997106	2.52	35.35	-2.59	-1.98	-0.1772	-1.0968	
0.144326	-0.024766	0.996496	2.31	36.26	-2.31	-1.9756	-0.1741	-1.0878	
0.129564	-0.02318	0.992348	2.94	37.52	-2.24	-1.965	-0.1843	-1.0912	
0.114802	-0.02501	0.991128	3.08	38.71	-1.89	-1.965	-0.1769	-1.0895	
0.094916	-0.029402	0.983808	3.78	39.55	-1.61	-1.9587	-0.1712	-1.1001	
0.070516	-0.026474	0.984174	4.13	41.16	-1.54	-1.9543	-0.1814	-1.0974	
0.061488	-0.015982	0.985516	4.2	41.86	-1.75	-1.9434	-0.1801	-1.1112	
0.057584	-0.012566	0.983198	4.06	42.56	-1.75	-1.9373	-0.1755	-1.1082	
0.040992	-0.015738	0.981734	3.99	43.54	-1.47	-1.9433	-0.1697	-1.108	
0.018544	-0.017446	0.980026	4.62	45.29	-1.05	-1.9266	-0.1785	-1.1175	
0	-0.013664	0.977708	4.97	46.13	-1.12	-1.9252	-0.1844	-1.1146	
-0.012322	-0.008174	0.97417	4.83	46.97	-1.68	-1.9175	-0.18	-1.1192	
-0.025742	-0.009028	0.970876	4.9	48.09	-1.68	-1.9007	-0.1784	-1.1225	
-0.048556	-0.004026	0.962458	5.04	49.07	-1.47	-1.8975	-0.1844	-1.1333	
-0.069906	-0.00122	0.957944	5.53	49.91	-1.26	-1.8901	-0.1858	-1.1289	
-0.091134	-0.000854	0.949526	5.53	50.4	-0.77	-1.8807	-0.177	-1.1395	
-0.112972	-0.00183	0.944646	4.83	51.45	-0.42	-1.8777	-0.1918	-1.1459	
-0.124074	0.003782	0.937082	5.11	51.73	-0.7	-1.8685	-0.1814	-1.1459	
-0.144448	0.010858	0.931958	5.11	52.15	-0.7	-1.855	-0.1826	-1.1371	
-0.17751	0.013176	0.926712	4.62	53.48	-0.56	-1.8352	-0.184	-1.1435	
-0.198006	0.010492	0.921832	4.41	53.13	-0.56	-1.8335	-0.1886	-1.1542	
-0.212768	0.00854	0.915	4.55	53.2	-0.84	-1.8244	-0.1945	-1.1575	
-0.231678	0.00488	0.906948	4.76	52.71	-0.84	-1.8212	-0.1797	-1.1588	
-0.254492	0.005002	0.89975	5.32	53.2	-0.49	-1.8093	-0.1884	-1.1532	
-0.280356	0.009028	0.890478	6.09	52.99	-0.56	-1.794	-0.1854	-1.1595	
-0.30195	0.013542	0.887916	6.23	52.43	-1.26	-1.7894	-0.1839	-1.161	
-0.322812	0.016592	0.873764	6.72	52.5	-1.96	-1.785	-0.1911	-1.1567	
-0.33794	0.021838	0.870226	6.51	51.59	-2.31	-1.7757	-0.1868	-1.1659	
-0.359534	0.026962	0.858758	6.58	51.1	-2.31	-1.7696	-0.1942	-1.1707	
-0.38247	0.029036	0.85522	6.3	51.52	-2.24	-1.7439	-0.185	-1.1649	
-0.407602	0.028426	0.84607	6.02	50.4	-2.52	-1.7499	-0.1821	-1.1663	
-0.425658	0.033184	0.84302	5.81	49.7	-2.94	-1.7381	-0.1966	-1.1592	
-0.425292	0.04026	0.838018	5.04	49.28	-2.52	-1.7396	-0.1951	-1.1577	
-0.443714	0.040626	0.833748	4.83	49.21	-2.38	-1.7334	-0.1922	-1.1638	
-0.470432	0.03538	0.816668	4.83	49.28	-2.31	-1.726	-0.2024	-1.1611	
-0.48495	0.03172	0.804834	5.18	48.44	-2.24	-1.7075	-0.1876	-1.1672	
-0.495808	0.034526	0.797758	5.67	48.51	-2.1	-1.6926	-0.1977	-1.1616	
-0.508862	0.040504	0.78934	5.46	47.88	-2.1	-1.6895	-0.1933	-1.1631	
-0.536068	0.044652	0.778848	5.32	48.51	-1.68	-1.6849	-0.1873	-1.1601	
-0.55022	0.05063	0.77409	5.04	47.32	-1.47	-1.6834	-0.1962	-1.1633	
-0.564982	0.058804	0.770674	4.2	46.48	-1.12	-1.6639	-0.2003	-1.1577	
-0.577304	0.05978	0.764452	3.22	46.83	-0.42	-1.6516	-0.2003	-1.167	
-0.587674	0.057828	0.75335	2.45	46.62	-0.07	-1.6516	-0.2003	-1.164	
-0.604266	0.055266	0.747128	2.03	46.69	0.14	-1.6442	-0.1941	-1.1519	
-0.618906	0.04575	0.738588	1.75	46.13	0.42	-1.6303	-0.1868	-1.1641	
-0.630862	0.045628	0.726022	2.17	45.57	-0.77	-1.6275	-0.1985	-1.1599	
-0.64538	0.053802	0.713334	2.45	44.17	-1.75	-1.6214	-0.2029	-1.1631	
-0.664534	0.060878	0.700768	2.17	43.54	-2.38	-1.6078	-0.1997	-1.1557	
-0.677222	0.05978	0.68625	2.24	42.7	-2.87	-1.6111	-0.2055	-1.1467	
-0.68686	0.056242	0.670878	1.61	41.44	-3.15	-1.5928	-0.1875	-1.1422	
-0.694302	0.054412	0.65697	0.91	40.46	-3.22	-1.5868	-0.2009	-1.1501	
-0.704916	0.052216	0.646844	0.35	39.9	-2.94	-1.5852	-0.1979	-1.1486	
-0.721142	0.048068	0.640134	0	39.83	-2.03	-1.5868	-0.1979	-1.1485	
-0.741516	0.042212	0.631472	0.56	39.34	-0.98	-1.5655	-0.1962	-1.1474	
-0.747128	0.046726	0.621712	1.19	39.27	-0.14	-1.5626	-0.1916	-1.1383	
-0.732488	0.054534	0.62159	1.4	39.27	0.56	-1.5581	-0.1931	-1.1399	
-0.75396	0.065636	0.609268	1.12	41.58	1.33	-1.5536	-0.193	-1.1385	
-0.790804	0.063684	0.5917	0.77	43.75	2.31	-1.5431	-0.1972	-1.1327	
-0.792268	0.068076	0.585356	1.68	42.7	3.15	-1.537	-0.1927	-1.1328	
-0.795684	0.061244	0.574864	2.03	42.28	3.85	-1.5219	-0.1999	-1.1317	
-0.798856	0.047458	0.56181	2.73	42.7	3.92	-1.5264	-0.1882	-1.1314	
-0.801784	0.04575	0.544486	4.41	42.84	3.36	-1.5098	-0.1924	-1.1288	
-0.805932	0.057462	0.542656	5.53	42.84	2.66	-1.51	-0.1952	-1.1197	
-0.826916	0.06954	0.53314	6.16	44.24	2.17	-1.5054	-0.1952	-1.1213	
-0.845948	0.069662	0.520818	5.81	43.89	1.96	-1.4933	-0.1906	-1.1185	
-0.84546	0.070394	0.510692	5.88	43.26	1.75	-1.4918	-0.198	-1.1217	
-0.859002	0.069662	0.496906	6.58	43.61	0.7	-1.4814	-0.2022	-1.1144	
-0.869494	0.078568	0.484462	7.7	43.82	-1.54	-1.4798	-0.1963	-1.1173	
-0.898408	0.080398	0.473848	6.58	43.68	-2.24	-1.4754	-0.1901	-1.1037	
-0.89975	0.080642	0.457866	6.86	39.97	-2.1	-1.471	-0.19	-1.0977	
-0.89182	0.077592	0.458842	4.76	37.94	-1.61	-1.4542	-0.1988	-1.1058	
-0.89914	0.062098	0.449448	4.27	37.45	-2.17	-1.4529	-0.1972	-1.0982	
-0.901336	0.063684	0.429074	5.39	36.4	-3.78	-1.4515	-0.194	-1.0876	
-0.91439	0.077592	0.408334	4.48	36.19	-4.13	-1.4528	-0.1898	-1.0951	
-0.923662	0.085156	0.40321	3.85	34.65	-3.71	-1.4394	-0.2028	-1.091	
-0.937082	0.08357	0.3965	2.8	33.25	-2.87	-1.4241	-0.1924	-1.0941	
-0.931592	0.08113	0.39162	2.31	31.01	-2.03	-1.4273	-0.1908	-1.082	
-0.92964	0.08357	0.382226	2.03	30.87	-2.24	-1.4275	-0.1921	-1.0759	
-0.939888	0.081984	0.370392	1.68	31.01	-1.89	-1.4247	-0.1934	-1.0654	
-0.941352	0.077226	0.359412	0.91	29.61	-0.21	-1.4201	-0.2038	-1.0718	
-0.938546	0.078202	0.348676	1.26	28.84	0.07	-1.4079	-0.1933	-1.0703	
-0.944402	0.076128	0.349896	0.98	29.05	0.07	-1.414	-0.1993	-1.0733	
-0.938546	0.074054	0.336964	1.12	27.93	-0.28	-1.4021	-0.2064	-1.0646	
-0.931592	0.074054	0.338794	1.05	27.72	0.07	-1.4021	-0.199	-1.0584	
-0.935618	0.081618	0.326228	1.89	28.7	-0.7	-1.387	-0.2032	-1.0588	
-0.948306	0.077226	0.319884	0.84	29.54	0.07	-1.3917	-0.1927	-1.0449	
-0.949648	0.062708	0.3172	1.12	28.56	1.05	-1.3872	-0.1912	-1.0434	
-0.960018	0.067222	0.30561	2.59	28.56	0.28	-1.3901	-0.1928	-1.051	
-0.9638	0.07259	0.297924	2.73	27.79	-0.98	-1.3784	-0.2087	-1.0364	
-0.961848	0.068808	0.296826	2.87	27.23	-1.05	-1.3765	-0.1882	-1.0466	
-0.951356	0.070394	0.288896	3.57	26.11	-1.68	-1.3721	-0.1894	-1.0362	
-0.961238	0.07503	0.27694	3.08	28.49	-2.73	-1.3648	-0.1951	-1.0273	
-0.963556	0.074908	0.26779	2.45	27.72	-2.73	-1.3768	-0.1968	-1.0347	
-0.971608	0.076616	0.24705	1.75	28.77	-2.52	-1.3666	-0.2023	-1.0153	
-0.98393	0.073566	0.233996	1.19	28.91	-1.89	-1.3486	-0.2049	-1.0097	
-0.994178	0.069174	0.221186	0.91	29.05	-2.03	-1.3665	-0.1994	-1.0198	
-0.97722	0.064782	0.209474	1.96	27.09	-2.17	-1.3544	-0.2023	-1.0216	
-0.984662	0.0732	0.203496	1.05	26.25	-3.5	-1.3576	-0.1976	-1.0079	
-0.988932	0.069418	0.187636	0.49	25.9	-3.15	-1.3455	-0.1945	-1.0065	
-1.02175	0.091256	0.166408	1.12	27.3	-4.27	-1.344	-0.199	-1.0082	
-1.008086	0.07015	0.171166	-2.59	24.22	-0.56	-1.3424	-0.196	-1.0081	
-1.000766	0.048556	0.163724	2.17	23.73	-1.33	-1.3382	-0.1971	-0.9916	
-1.01321	0.059414	0.149328	4.34	25.62	-3.78	-1.3382	-0.1897	-0.9885	
-1.006378	0.06588	0.14274	3.29	25.34	-3.5	-1.332	-0.1988	-1.0023	
-0.996618	0.06161	0.13847	3.5	25.13	-2.38	-1.3306	-0.1971	-0.9933	
-0.991616	0.06161	0.129564	3.36	26.39	-2.17	-1.3246	-0.197	-0.9888	
-1.003816	0.062952	0.112606	4.2	27.37	-1.61	-1.326	-0.1911	-0.9917	
-1.021018	0.076006	0.105652	4.97	26.88	-1.89	-1.3292	-0.1866	-0.9825	
-1.013332	0.078446	0.101504	2.73	23.52	-1.33	-1.3173	-0.1996	-0.9769	
-1.01626	0.068198	0.101626	1.12	23.03	-0.42	-1.3219	-0.2026	-0.9754	
-1.005402	0.069052	0.096014	1.26	23.1	-0.42	-1.3127	-0.1878	-0.9753	
-1.02419	0.069174	0.076494	0.35	23.8	-0.84	-1.3143	-0.1877	-0.9723	
-1.045296	0.065636	0.059658	0.42	22.19	-1.26	-1.3191	-0.1964	-0.9587	
-1.05957	0.065636	0.052338	-0.28	19.95	-0.42	-1.2963	-0.2052	-0.9699	
-1.050298	0.059048	0.047702	-1.54	16.73	0.98	-1.3101	-0.1933	-0.9558	
-1.036512	0.050752	0.044164	0.07	15.12	0.35	-1.3056	-0.1961	-0.9529	
-1.034194	0.050386	0.043676	1.47	15.12	-0.49	-1.3086	-0.1932	-0.9528	
-1.047126	0.05795	0.022936	2.38	15.96	-1.47	-1.3024	-0.1858	-0.9558	
-1.055666	0.053436	0.011834	2.73	14	-1.05	-1.3055	-0.1917	-0.9544	
-1.052128	0.055388	0.011956	3.99	11.83	-1.54	-1.2995	-0.1902	-0.9545	
-1.043832	0.066124	0.008784	3.36	10.64	-2.59	-1.2997	-0.2019	-0.9501	
-1.036024	0.061854	0.014762	2.1	8.75	-2.45	-1.3043	-0.1989	-0.9439	
-1.029192	0.057706	0.011834	2.31	8.33	-1.89	-1.2966	-0.19	-0.9439	
-1.03944	0.062098	0.006466	2.66	8.12	-2.38	-1.2937	-0.1944	-0.9426	
-1.037244	0.068198	0.00732	1.61	5.95	-2.45	-1.3026	-0.1931	-0.9484	
-1.037	0.060146	0.00915	0.42	4.34	-0.98	-1.2937	-0.1958	-0.9426	
-1.04493	0.05307	0.003782	1.12	3.99	-1.05	-1.3012	-0.196	-0.9455	
-1.043832	0.065514	0.002684	0.35	3.15	-1.68	-1.2966	-0.193	-0.947	
-1.047492	0.060024	0.003416	-0.35	2.1	-1.12	-1.3059	-0.1988	-0.9378999	
-1.049078	0.059536	-0.00061	-0.14	0.7	-0.84	-1.3026	-0.1916	-0.9484	
-1.043832	0.054046	0	-0.63	-0.77	-0.49	-1.2995	-0.1887	-0.9514	
-1.050298	0.05856	-0.005002	-0.21	-1.05	-0.84	-1.3011	-0.1902	-0.9499	
-1.045418	0.064294	-0.00366	-0.63	-2.59	-0.63	-1.289	-0.1855	-0.944	
-1.041392	0.061366	-0.001464	-0.91	-3.99	-0.07	-1.2905	-0.181	-0.9409	
-1.039928	0.061366	-0.001586	-1.12	-4.83	0	-1.2936	-0.1915	-0.947	
-1.043466	0.061976	-0.001464	-1.4	-5.32	-0.14	-1.2949	-0.1783	-0.9498	
-1.04188	0.058682	0.000854	-1.82	-6.93	0.42	-1.2995	-0.1872	-0.9514	
-1.041758	0.05734	0.005002	-2.17	-7.7	0.56	-1.3009	-0.1918	-0.9575	
-1.043344	0.057462	0.00427	-2.38	-8.54	-0.14	-1.3011	-0.1946	-0.9485	
-1.040294	0.05795	0.007686	-1.96	-9.52	-0.07	-1.3013	-0.2004	-0.9455	
-1.047614	0.055388	0.012444	-2.17	-10.92	-0.14	-1.301	-0.1842	-0.9483	
-1.049078	0.061488	0.008174	-2.1	-11.69	-0.07	-1.3056	-0.1887	-0.9513	
-1.051762	0.059292	0.01586	-2.17	-13.44	-0.21	-1.2948	-0.1888	-0.9590999	
-1.052128	0.060756	0.018056	-1.82	-14.21	-0.42	-1.3207	-0.1874	-0.951	
-1.046272	0.06039	0.021594	-2.1	-16.24	-0.56	-1.2964	-0.1888	-0.9575	
-1.045662	0.062098	0.02501	-2.38	-16.52	-0.35	-1.3039	-0.1918	-0.9604	
-1.04554	0.05978	0.02501	-2.59	-17.36	-0.63	-1.3084	-0.189	-0.9633	
-1.046394	0.06039	0.03294	-3.01	-18.48	-0.63	-1.3025	-0.2007	-0.9606	
-1.037244	0.056486	0.036112	-2.94	-19.74	-0.14	-1.3067	-0.1891	-0.9709	
-1.0431	0.055876	0.03843	-2.87	-19.81	-0.28	-1.3081	-0.1893	-0.9784	
-1.04188	0.0549	0.047336	-2.73	-20.72	-0.07	-1.3172	-0.1923	-0.9814	
-1.034438	0.05673	0.057584	-2.59	-21.98	0	-1.3202	-0.1864	-0.9751	
-1.032486	0.05368	0.073322	-3.08	-22.4	-0.28	-1.3171	-0.1938	-0.9829	
-1.0309	0.047946	0.079422	-2.73	-23.17	-0.28	-1.3155	-0.1865	-0.9858	
-1.027728	0.053924	0.085156	-2.38	-24.36	-0.7	-1.3214	-0.1867	-0.9933	
-1.029924	0.06039	0.094428	-2.87	-25.34	-1.12	-1.3215	-0.1926	-0.9918	
-1.02114	0.056974	0.106872	-3.43	-26.88	-0.14	-1.3201	-0.191	-0.9858	
-1.022726	0.049288	0.117364	-3.36	-27.93	-0.14	-1.3471	-0.193	-1.0019	
-1.014918	0.049166	0.130906	-3.43	-28.84	-0.56	-1.3319	-0.184	-1.0006	
-1.016504	0.05002	0.137372	-3.01	-29.54	-0.42	-1.3303	-0.1944	-1.0068	
-1.02175	0.05124	0.141398	-2.94	-30.38	-0.49	-1.347	-0.1945	-1.0065	
-1.020774	0.046848	0.157746	-2.94	-33.11	-0.07	-1.3425	-0.1855	-0.9974	
-1.007354	0.047092	0.174338	-2.38	-34.65	-0.14	-1.3499	-0.1843	-1.0108	
-1.000644	0.051606	0.180804	-2.24	-35.28	-0.56	-1.3574	-0.1799	-1.0076	
-0.99857	0.055388	0.19337	-2.59	-35.21	-1.05	-1.3587	-0.1846	-1.0227	
-0.993934	0.056852	0.204106	-3.36	-36.12	-0.49	-1.3692	-0.1908	-1.0317	
-0.998814	0.051972	0.209108	-3.99	-37.1	0.42	-1.3603	-0.1905	-1.0213	
-0.980392	0.037088	0.233386	-3.29	-38.57	1.4	-1.3617	-0.1877	-1.0273	
-0.978074	0.048922	0.248026	-2.94	-38.5	0.35	-1.3705	-0.1836	-1.0406	
-0.981002	0.052094	0.255346	-2.94	-39.06	0.14	-1.381	-0.1808	-1.0464	
-0.966606	0.043798	0.269132	-2.52	-40.81	0.56	-1.3843	-0.1851	-1.0343	
-0.969534	0.036356	0.288286	-1.75	-41.72	0.49	-1.3947	-0.1868	-1.0447	
-0.952454	0.038308	0.297436	0.91	-43.47	0.07	-1.3977	-0.1869	-1.0477	
-0.933178	0.032452	0.322202	-1.61	-45.29	-0.49	-1.4052	-0.1885	-1.0506	
-0.935984	0.03233	0.331596	-0.21	-45.43	-0.56	-1.4019	-0.1857	-1.0612	
-0.922442	0.035868	0.335012	0.14	-46.55	-0.7	-1.4082	-0.2005	-1.0568	
-0.915488	0.035014	0.348676	1.33	-46.69	-0.49	-1.4077	-0.1831	-1.0762	
-0.9272	0.04697	0.363316	3.15	-46.41	-0.42	-1.4214	-0.1862	-1.0759	
-0.910608	0.039162	0.38552	0.07	-49.7	-0.35	-1.426	-0.1951	-1.076	
-0.882182	0.038308	0.413458	1.68	-53.97	0.49	-1.4318	-0.2013	-1.0926	
-0.840946	0.041724	0.452376	0.84	-56.28	0.7	-1.4531	-0.2014	-1.0877	
-0.82411	0.045262	0.463844	0.91	-55.37	0.63	-1.4514	-0.1927	-1.0936	
-0.794464	0.042456	0.47824	-1.75	-51.73	1.96	-1.4542	-0.1944	-1.1057	
-0.825086	0.036234	0.500444	1.89	-48.3	1.33	-1.4619	-0.1958	-1.098	
-0.818498	0.038064	0.522404	1.47	-48.37	0.84	-1.4843	-0.1919	-1.1126	
-0.793366	0.036844	0.539118	1.05	-50.26	1.54	-1.489	-0.1933	-1.1095	
-0.788852	0.038308	0.554368	2.1	-48.65	1.05	-1.4964	-0.1861	-1.1153	
-0.789218	0.043432	0.561932	1.05	-46.34	0.63	-1.4965	-0.2009	-1.1156	
-0.798002	0.041358	0.565348	-0.98	-46.06	3.85	-1.5069	-0.1997	-1.1244	
-0.793	0.037088	0.570838	-1.05	-47.74	4.62	-1.5115	-0.1967	-1.1228	
-0.773114	0.042212	0.585722	0.42	-48.51	2.17	-1.5295	-0.2059	-1.1332	
-0.774456	0.052948	0.587918	0.42	-48.44	1.4	-1.5188	-0.1956	-1.1377	
-0.76799	0.060268	0.59597	0	-50.12	1.61	-1.531	-0.1956	-1.1329	
-0.74847	0.057096	0.603778	-0.77	-51.87	1.96	-1.5491	-0.2003	-1.1372	
-0.73749	0.051728	0.614026	-0.28	-51.1	1.89	-1.5415	-0.1928	-1.1327	
-0.731878	0.063562	0.6283	-0.49	-51.1	0.7	-1.5596	-0.2035	-1.1431	
-0.7137	0.07259	0.637816	-1.05	-52.71	0	-1.5639	-0.1963	-1.1535	
-0.692228	0.071614	0.643428	-2.03	-53.55	0.21	-1.5761	-0.1964	-1.1502	
-0.682224	0.064172	0.66612	-2.8	-53.06	0.49	-1.5883	-0.1979	-1.1485	
-0.673806	0.055266	0.681614	-4.13	-52.99	0.35	-1.5927	-0.1892	-1.1513	
-0.66368	0.047946	0.692838	-3.99	-54.18	-1.05	-1.6034	-0.2041	-1.1544	
-0.648308	0.047336	0.702232	-2.38	-53.69	-1.82	-1.6047	-0.1923	-1.1556	
-0.623542	0.039528	0.712846	-1.61	-53.97	-0.56	-1.6198	-0.197	-1.163	
-0.595238	0.033428	0.73444	0.28	-53.34	-0.77	-1.6319	-0.2075	-1.1675	
-0.58011	0.041358	0.739198	1.82	-52.99	-1.33	-1.6367	-0.2015	-1.1552	
-0.56791	0.039772	0.745908	1.75	-53.48	-1.4	-1.652	-0.2029	-1.1474	
-0.550708	0.044896	0.75518	1.82	-54.32	-1.33	-1.6653	-0.2034	-1.1653	
-0.529236	0.053558	0.759084	1.47	-54.18	-0.98	-1.6578	-0.2062	-1.1594	
-0.509716	0.055144	0.779946	0.98	-55.58	-0.14	-1.676	-0.2123	-1.1622	
-0.484462	0.052338	0.798246	0.28	-55.37	0.91	-1.6839	-0.2136	-1.15	
-0.462014	0.06283	0.813618	-1.05	-55.86	1.82	-1.7003	-0.2096	-1.1617	
-0.44835	0.066002	0.824598	-2.59	-56.35	3.43	-1.7079	-0.2037	-1.1569	
-0.432612	0.055266	0.84119	-3.36	-56.7	5.18	-1.7124	-0.2127	-1.163	
-0.396866	0.052826	0.846924	-4.2	-55.72	6.44	-1.7307	-0.2068	-1.1535	
-0.37881	0.04514	0.865346	-4.9	-54.32	7.49	-1.7366	-0.2115	-1.1656	
-0.367586	0.030988	0.878156	-5.46	-52.85	7.49	-1.7503	-0.2056	-1.1591	
-0.343064	0.03172	0.883036	-6.02	-53.41	6.93	-1.7487	-0.2056	-1.1637	
-0.32208	0.030134	0.901214	-6.79	-53.69	6.44	-1.7682	-0.2015	-1.1693	
-0.301706	0.02074	0.90707	-6.51	-52.78	6.16	-1.7669	-0.2073	-1.1634	
-0.281576	0.011956	0.916098	-6.79	-52.78	5.53	-1.7731	-0.2087	-1.1557	
-0.273768	0.013908	0.924516	-7.21	-51.31	5.04	-1.7942	-0.1986	-1.1567	
-0.263642	0.013664	0.93025	-7	-50.61	5.25	-1.7941	-0.2046	-1.1643	
-0.244488	0.01342	0.931836	-6.23	-49.7	5.32	-1.8048	-0.2016	-1.1565	
-0.221186	0.00915	0.941596	-5.53	-49.49	4.69	-1.8048	-0.2032	-1.1611	
-0.201178	0.013176	0.943304	-5.32	-48.58	4.34	-1.8183	-0.1975	-1.1637	
-0.195444	0.015982	0.949404	-5.39	-47.74	3.85	-1.8218	-0.2001	-1.1426	
-0.18178	0.016104	0.948184	-4.97	-48.02	3.29	-1.8293	-0.1958	-1.1439	
-0.164822	0.009393999	0.948916	-4.76	-48.23	3.08	-1.849	-0.1929	-1.1404	
-0.153964	0.003782	0.95343	-4.13	-47.6	3.43	-1.8474	-0.1989	-1.1466	
-0.132858	0.01098	0.95953	-3.78	-47.6	3.64	-1.8459	-0.184	-1.1373	
-0.120658	0.015006	0.959652	-3.85	-47.88	4.06	-1.8564	-0.1872	-1.1462	
-0.09552599	0.011468	0.96563	-3.57	-47.11	5.11	-1.8672	-0.1946	-1.1416	
-0.078202	0.002928	0.965508	-3.5	-46.69	5.25	-1.8763	-0.1917	-1.1368	
-0.061976	0.00427	0.960384	-2.8	-46.13	4.76	-1.8869	-0.1947	-1.1382	
-0.05002	0.010004	0.9577	-2.87	-45.15	3.5	-1.8977	-0.1947	-1.132	
-0.037088	0.004514	0.966362	-3.92	-44.31	2.73	-1.9022	-0.1948	-1.1319	
-0.025376	0.005246	0.965508	-3.22	-42.84	2.52	-1.9099	-0.1933	-1.1256	
-0.009028	0.008784	0.970266	-3.5	-41.93	2.73	-1.913	-0.1873	-1.1209	
0.00244	0.007808	0.973072	-2.73	-41.65	2.73	-1.9145	-0.1932	-1.121	
0.005734	0.006954	0.962092	-1.89	-39.9	3.15	-1.9417	-0.1921	-1.1235	
0.01281	0.00305	0.958676	-1.47	-40.39	3.92	-1.9431	-0.1833	-1.1263	
0.035014	0.002196	0.995642	-0.56	-38.71	4.06	-1.9357	-0.186	-1.1175	
0.07259	-0.000854	0.988078	-0.56	-39.13	3.64	-1.9405	-0.1963	-1.1115	
0.078812	0.002318	1.00284	-0.7	-36.54	4.13	-1.951	-0.1965	-1.1174	
0.089182	-0.00183	1.001254	-0.42	-36.75	3.85	-1.9556	-0.1845	-1.108	
0.096624	0.00488	1.007354	0.7	-34.72	2.87	-1.9617	-0.1801	-1.1018	
0.114924	0.009272	1.007964	0.91	-34.79	2.45	-1.9604	-0.1828	-1.0928	
0.136396	0.012078	1.023824	1.33	-31.64	1.54	-1.9755	-0.1846	-1.1001	
0.16531	0.020862	1.021384	2.17	-30.1	1.05	-1.9803	-0.1918	-1.0895	
0.174582	0.016592	1.025654	0.98	-28.77	0.77	-1.977	-0.1846	-1.0985	
0.17629	0.008296	1.022848	0.28	-27.79	0.77	-1.9895	-0.1962	-1.0834	
0.186416	0.004758	1.025776	0.7	-25.41	0.98	-1.9863	-0.1786	-1.0861	
0.20374	0.015372	1.02968	0.49	-23.31	1.26	-1.9985	-0.192	-1.0877	
0.21655	0.015372	1.024434	0.14	-21.35	1.26	-1.9971	-0.1933	-1.0802	
0.224358	0.01403	1.030046	0.42	-19.39	0.84	-1.9954	-0.186	-1.0861	
0.230092	0.010858	1.024068	-0.07	-17.15	1.19	-2.0108	-0.1935	-1.0814	
0.229848	0.01037	1.020896	0.07	-15.19	1.26	-2.0063	-0.183	-1.0738	
0.2318	0.009516	1.015772	0.56	-13.02	1.12	-2.0034	-0.1887	-1.0694	
0.237534	0.011224	1.017236	1.05	-10.57	1.54	-2.0035	-0.1946	-1.0665	
0.24583	0.015128	1.013088	1.54	-8.47	1.82	-2.0108	-0.192	-1.0799	
0.239608	0.012322	1.01016	1.54	-6.51	1.89	-2.0033	-0.1873	-1.0739	
0.229238	0.012566	1.007598	2.31	-5.04	1.75	-2.0063	-0.1904	-1.0754	
0.234362	0.023058	1.010526	2.8	-2.73	1.75	-1.9956	-0.1918	-1.0787	
0.237778	0.027694	1.008208	2.31	-0.84	1.96	-2.0138	-0.192	-1.0783	
0.237656	0.027816	1.011136	1.96	0.14	1.82	-2.0094	-0.1933	-1.0724	
0.236558	0.023058	1.01199	1.61	2.03	1.54	-2.0049	-0.1962	-1.074	
0.234362	0.027816	1.012234	1.05	5.11	1.26	-2.0017	-0.1889	-1.0785	
0.235582	0.026962	1.014674	0.21	6.37	0.91	-2.0079	-0.2007	-1.0771	
0.226676	0.02379	1.012844	-0.14	8.19	0.42	-2.0047	-0.1874	-1.0784	
0.222162	0.019276	1.012722	-0.14	10.29	-0.07	-2.0108	-0.1905	-1.0799	
0.221552	0.01525	1.009916	0.14	12.32	-0.77	-2.0017	-0.1963	-1.0786	
0.218258	0.014884	1.008818	0.14	14.07	-1.19	-2.0046	-0.1994	-1.0892	
0.21533	0.014518	1.01321	0.28	16.24	-1.47	-2.0078	-0.1933	-1.0769	
0.207156	0.019032	1.009062	0.21	18.13	-2.1	-1.9973	-0.1872	-1.071	
0.197152	0.016348	1.00894	0.35	19.67	-2.52	-1.991	-0.1889	-1.0832	
0.19398	0.012444	1.010404	0.56	21	-2.45	-1.9971	-0.1844	-1.077	
0.190442	0.015006	1.006012	0.98	23.17	-2.8	-1.9924	-0.186	-1.0847	
0.177144	0.01403	1.001254	1.47	24.15	-3.36	-1.9909	-0.1919	-1.0893	
0.165066	0.01281	1.005768	1.68	25.9	-3.29	-1.9848	-0.1889	-1.0909	
0.162138	0.016226	1.005402	1.54	27.65	-2.87	-1.9743	-0.1917	-1.0851	
0.151402	0.017568	1.004182	1.4	28.84	-3.01	-1.9832	-0.1935	-1.0986	
0.138958	0.018544	1.003206	1.4	30.31	-2.87	-1.9637	-0.199	-1.0885	
0.132248	0.017446	1.003572	0.98	32.13	-2.52	-1.9681	-0.1918	-1.0943	
0.121878	0.016836	1.002474	0.84	33.6	-2.17	-1.959	-0.2006	-1.0976	
0.104066	0.020252	0.999546	0.91	34.65	-2.31	-1.9603	-0.186	-1.1019	
0.091866	0.023058	0.999912	0.84	36.05	-2.45	-1.9498	-0.1991	-1.1008	
0.078324	0.019764	0.996862	1.05	37.59	-2.59	-1.9511	-0.1874	-1.1051	
0.06832	0.01586	0.996496	1.26	39.06	-2.17	-1.9375	-0.1976	-1.1086	
0.053924	0.019276	0.994544	1.4	40.11	-2.52	-1.9328	-0.1933	-1.1146	
0.036356	0.020862	0.990762	1.89	41.65	-3.29	-1.9344	-0.1977	-1.1147	
0.02257	0.015982	0.988444	2.31	42.63	-3.08	-1.9222	-0.1932	-1.1148	
0.00915	0.015982	0.988688	2.66	44.17	-2.8	-1.9146	-0.1946	-1.118	
-0.007564	0.02074	0.983442	3.15	45.71	-3.71	-1.9145	-0.2007	-1.1257	
-0.025132	0.022326	0.978562	3.57	46.83	-4.06	-1.8962	-0.1962	-1.1305	
-0.04392	0.018666	0.976366	3.29	47.74	-3.78	-1.8964	-0.2005	-1.123	
-0.061122	0.022082	0.971364	3.78	49.49	-3.99	-1.8779	-0.1961	-1.1354	
-0.07686	0.027938	0.959774	3.92	50.54	-4.2	-1.8762	-0.1903	-1.1429	
-0.09747799	0.03233	0.94977	3.85	51.52	-4.34	-1.8733	-0.199	-1.1385	
-0.122	0.029646	0.945134	4.13	52.78	-4.06	-1.8628	-0.1929	-1.1326	
-0.141154	0.029036	0.935374	3.99	54.11	-3.5	-1.8564	-0.2006	-1.154	
-0.167506	0.033306	0.92415	4.69	55.09	-3.5	-1.8474	-0.1945	-1.145	
-0.188002	0.032696	0.920612	4.9	55.02	-3.5	-1.8399	-0.2018	-1.1438	
-0.209718	0.038064	0.915732	5.32	55.93	-3.71	-1.8355	-0.2031	-1.1409	
-0.2318	0.037942	0.90829	5.32	56.7	-3.92	-1.8139	-0.2003	-1.1578	
-0.252052	0.037698	0.908778	5.32	56.35	-3.92	-1.8082	-0.2028	-1.1383	
-0.272304	0.040626	0.896944	5.53	56.63	-3.85	-1.8049	-0.1942	-1.1503	
-0.294996	0.041724	0.889746	5.32	56.77	-3.36	-1.7925	-0.2077	-1.1705	
-0.31476	0.039162	0.878766	5.18	56.91	-3.36	-1.7898	-0.2162	-1.1556	
-0.339404	0.041236	0.86925	5.11	57.12	-3.5	-1.7698	-0.197	-1.1662	
-0.352824	0.040748	0.854366	4.9	57.05	-2.87	-1.767	-0.1997	-1.1512	
-0.381616	0.042944	0.846802	4.9	57.47	-2.31	-1.7578	-0.1938	-1.1573	
-0.407968	0.050752	0.832406	5.18	57.47	-2.87	-1.7305	-0.2158	-1.1658	
-0.422242	0.058316	0.825574	5.11	57.12	-3.29	-1.7275	-0.2128	-1.1642	
-0.44042	0.059292	0.816302	4.55	56.49	-3.01	-1.7123	-0.2113	-1.169	
-0.45994	0.056242	0.803614	4.9	56.42	-2.73	-1.7047	-0.2067	-1.1661	
-0.480314	0.055266	0.792512	6.09	56.49	-2.52	-1.7109	-0.2096	-1.16	
-0.505934	0.060268	0.782142	6.93	55.65	-2.45	-1.6913	-0.2079	-1.1558	
-0.536678	0.07076	0.766648	6.58	55.51	-2.03	-1.6655	-0.1973	-1.1531	
-0.55571	0.077226	0.754814	5.95	53.48	-1.89	-1.6715	-0.2122	-1.1593	
-0.566324	0.086376	0.748226	4.69	51.52	-1.61	-1.6563	-0.2121	-1.1626	
-0.581696	0.091134	0.741272	2.73	50.89	-1.05	-1.6579	-0.2135	-1.1595	
-0.607194	0.085156	0.730292	1.12	49.84	-0.21	-1.6443	-0.203	-1.1551	
-0.630008	0.081862	0.730048	-0.07	48.16	0.42	-1.6429	-0.2117	-1.1492	
-0.647454	0.080642	0.726998	-1.26	46.27	1.05	-1.6247	-0.2071	-1.148	
-0.645136	0.08235	0.71492	-2.31	45.01	0.84	-1.611	-0.1996	-1.1481	
-0.640012	0.079178	0.705892	-2.45	43.61	0.98	-1.6019	-0.207	-1.1529	
-0.65453	0.066856	0.69357	-2.8	44.24	1.12	-1.6094	-0.1997	-1.1512	
-0.668316	0.059292	0.677588	-1.89	44.03	0.28	-1.5914	-0.2128	-1.1517	
-0.682834	0.057218	0.665998	-0.84	42.98	-0.84	-1.5808	-0.1993	-1.1457	
-0.706136	0.049898	0.652822	-0.42	42.56	-1.26	-1.5868	-0.2143	-1.1564	
-0.71736	0.041846	0.643916	1.4	41.37	-2.03	-1.5684	-0.1934	-1.1549	
-0.721264	0.050508	0.6283	3.43	40.11	-3.57	-1.5717	-0.2006	-1.1443	
-0.744322	0.061366	0.615124	3.92	40.53	-5.25	-1.5659	-0.2078	-1.1355	
-0.763354	0.06466	0.597922	5.11	40.6	-6.02	-1.5614	-0.2062	-1.1295	
-0.77104	0.06832	0.583038	4.69	40.25	-5.81	-1.5491	-0.2078	-1.1419	
-0.762744	0.06893	0.573034	4.55	40.6	-5.67	-1.5371	-0.1956	-1.1298	
-0.771162	0.061366	0.565104	5.04	42.49	-5.18	-1.5431	-0.2046	-1.1359	
-0.806054	0.06161	0.554856	4.9	44.1	-4.62	-1.5219	-0.1941	-1.1331	
-0.814472	0.061732	0.552172	4.48	42.98	-4.41	-1.5282	-0.1998	-1.121	
-0.804834	0.060024	0.546682	5.18	41.51	-4.34	-1.522	-0.2103	-1.1349	
-0.807152	0.055266	0.551196	5.46	41.93	-5.25	-1.5206	-0.1998	-1.1242	
-0.837042	0.055876	0.529968	5.18	44.1	-5.88	-1.5041	-0.2083	-1.1156	
-0.840214	0.048678	0.523868	5.67	43.33	-5.81	-1.4965	-0.2024	-1.1156	
-0.828136	0.051362	0.514596	6.86	43.12	-7.28	-1.4785	-0.2036	-1.1099	
-0.84546	0.063196	0.509716	6.86	45.78	-8.75	-1.4828	-0.1948	-1.1142	
-0.865956	0.050142	0.496662	3.29	46.83	-8.26	-1.4799	-0.2051	-1.116	
-0.854122	0.044286	0.491538	4.76	45.64	-8.54	-1.4679	-0.2004	-1.104	
-0.834114	0.063928	0.476898	4.83	46.76	-9.45	-1.4529	-0.2001	-1.0983	
-0.849486	0.072834	0.468358	3.15	50.12	-8.68	-1.4544	-0.2076	-1.1044	
-0.865834	0.065758	0.440298	1.82	52.29	-7	-1.4516	-0.2014	-1.0862	
-0.881694	0.057828	0.421754	0.28	53.06	-5.25	-1.4362	-0.1955	-1.094	
-0.899506	0.054534	0.399184	-0.91	53.62	-4.27	-1.4335	-0.2042	-1.0851	
-0.905362	0.053558	0.385764	-1.47	51.94	-3.22	-1.429	-0.1966	-1.076	
-0.911462	0.042578	0.378932	-1.33	50.26	-2.59	-1.4215	-0.1934	-1.07	
-0.918538	0.046848	0.360388	0.42	48.93	-2.94	-1.4231	-0.1875	-1.0654	
-0.94184	0.051362	0.32757	-1.12	49.07	-3.36	-1.4096	-0.1916	-1.0581	
-0.959774	0.04758	0.33245	-3.22	47.6	-2.03	-1.4021	-0.1915	-1.0537	
-0.930616	0.05429	0.329644	-3.78	43.19	-3.5	-1.3976	-0.2019	-1.0601	
-0.961116	0.074176	0.277062	-3.85	42.63	-3.36	-1.3901	-0.1942	-1.048	
-0.984418	0.039772	0.280112	-6.37	43.4	0.21	-1.3887	-0.1941	-1.042	
-0.944036	0.038552	0.276452	-3.01	41.79	-0.91	-1.378	-0.2	-1.0498	
-0.981734	0.066002	0.24461	-3.57	45.92	-2.59	-1.3708	-0.1937	-1.0287	
-1.0004	0.07905599	0.215696	-6.23	47.32	-1.54	-1.3616	-0.1863	-1.0303	
-0.987468	0.046238	0.196786	-7.14	43.96	3.08	-1.3526	-0.1876	-1.0289	
-0.995642	0.0305	0.157746	-3.43	44.38	3.08	-1.3725	-0.1951	-1.0211	
-1.02053	0.02806	0.140666	-2.38	43.89	2.52	-1.3515	-0.1887	-1.0048	
-1.047736	0.024034	0.129564	-1.19	40.6	2.03	-1.3452	-0.1873	-1.0155	
-1.054324	0.021838	0.11468	1.61	35.84	0.77	-1.3427	-0.1913	-0.9944	
-1.035048	0.042578	0.101748	5.95	31.92	-1.47	-1.3349	-0.1885	-1.0036	
-1.064694	0.068076	0.075396	6.16	33.04	-2.66	-1.3455	-0.1886	-1.0019	
-1.09373	0.080886	0.064782	1.89	31.29	-1.96	-1.3306	-0.1867	-0.9885	
-1.072624	0.06954	0.06283	-0.56	25.2	-0.07	-1.3245	-0.1882	-0.9917	
-1.04371	0.052216	0.077958	-0.84	22.19	2.17	-1.3366	-0.1869	-0.9945	
-1.04493	0.033794	0.07905599	-0.63	23.03	2.8	-1.3322	-0.1941	-0.9887	
-1.043222	0.021228	0.051606	2.24	20.79	1.82	-1.3216	-0.1806	-0.9795	
-1.05164	0.039162	0.050264	4.34	20.51	0.35	-1.3143	-0.1862	-0.9677	
-1.053226	0.058804	0.050142	3.43	18.27	-1.33	-1.3218	-0.1848	-0.9721	
-1.03822	0.071492	0.063806	1.89	14.42	-0.91	-1.3036	-0.1906	-0.9755	
-1.020408	0.062708	0.069296	0.63	13.44	0.98	-1.3097	-0.1833	-0.9723	
-1.014186	0.067466	0.061366	0	14.21	1.12	-1.3068	-0.1935	-0.9695	
-1.041392	0.078812	0.050874	-1.4	14.42	1.12	-1.3053	-0.189	-0.9664	
-1.06384	0.069784	0.04697	-3.92	12.6	2.66	-1.3054	-0.1904	-0.9589	
-1.048224	0.053314	0.049044	-4.62	8.89	3.78	-1.2993	-0.186	-0.9633999	
-1.053714	0.053436	0.045384	-3.71	8.26	1.96	-1.2991	-0.195	-0.9772	
-1.0553	0.058804	0.046238	-4.41	7.35	1.19	-1.3084	-0.189	-0.9618	
-1.054202	0.055632	0.041114	-3.92	5.81	0.91	-1.3069	-0.1875	-0.9633	
-1.05164	0.050386	0.038796	-3.22	3.78	0.91	-1.3175	-0.1861	-0.9615999	
-1.044564	0.049654	0.038552	-2.94	1.26	0	-1.31	-0.1934	-0.9604	
-1.043344	0.055754	0.034648	-1.89	0.14	-1.61	-1.3148	-0.1962	-0.9482	
-1.042978	0.05917	0.035868	-1.26	-1.33	-2.03	-1.3116	-0.1918	-0.9543	
-1.040294	0.050996	0.036722	-1.54	-2.03	-1.89	-1.3071	-0.1903	-0.9528	
-1.036268	0.05551	0.040382	-0.77	-3.5	-2.52	-1.3039	-0.1844	-0.9588	
-1.035902	0.056364	0.041236	-1.33	-4.06	-3.08	-1.307	-0.1874	-0.9558	
-1.045296	0.051362	0.041358	-1.12	-5.04	-2.8	-1.3188	-0.1833	-0.9705999	
-1.04493	0.061366	0.04331	-0.63	-6.16	-3.99	-1.3053	-0.1875	-0.9633999	
-1.039562	0.05734	0.047092	-1.61	-7.42	-3.36	-1.3054	-0.1904	-0.9633999	
-1.04432	0.048922	0.044896	-1.68	-8.47	-2.8	-1.3096	-0.1774	-0.9752	
-1.045662	0.047824	0.047946	-2.24	-9.24	-3.08	-1.319	-0.1846	-0.9585	
-1.037732	0.047702	0.059292	-2.87	-10.99	-3.08	-1.3084	-0.189	-0.9648	
-1.032974	0.044042	0.064538	-3.08	-11.83	-2.52	-1.3172	-0.1804	-0.9721	
-1.028582	0.04148	0.071004	-3.08	-12.18	-2.24	-1.3098	-0.1832	-0.9677	
-1.01992	0.036722	0.079666	-3.57	-12.6	-1.75	-1.3205	-0.1862	-0.963	
-1.020408	0.035746	0.085766	-3.36	-12.74	-1.4	-1.3157	-0.1878	-0.9737	
-1.024556	0.039406	0.088694	-3.71	-13.02	-1.19	-1.3233	-0.1775	-0.9719	
-1.021994	0.037942	0.089548	-3.99	-13.16	-0.63	-1.3172	-0.1819	-0.9751	
-1.01931	0.039162	0.09747799	-3.64	-13.79	-0.21	-1.3203	-0.1744	-0.9659	
-1.019432	0.028792	0.1037	-3.99	-14.35	0.21	-1.3233	-0.1923	-0.9782	
-1.029802	0.028426	0.098332	-3.36	-14.35	0.14	-1.317	-0.1805	-0.9811	
-1.023092	0.030378	0.111386	-3.5	-15.54	-0.21	-1.3217	-0.1835	-0.9796	
-1.019554	0.029524	0.11651	-3.08	-16.31	-0.21	-1.3171	-0.1909	-0.9843	
-1.021506	0.025254	0.118462	-2.24	-16.38	-0.42	-1.3231	-0.1866	-0.9872	
-1.01809	0.023546	0.128832	-1.96	-16.87	-0.91	-1.3185	-0.1806	-0.9856	
-1.014308	0.025864	0.13298	-1.4	-17.29	-1.33	-1.3198	-0.1749	-0.9946	
-1.006012	0.029524	0.140666	-1.19	-17.5	-1.05	-1.3259	-0.1808	-0.9916	
-1.014064	0.033794	0.141398	-0.56	-17.01	-1.12	-1.3351	-0.1764	-0.9883	
-1.016504	0.036234	0.146034	-0.35	-17.43	-0.84	-1.3335	-0.1779	-0.9883	
-1.00772	0.031964	0.15494	-0.77	-18.55	-0.49	-1.332	-0.1735	-0.9898	
-1.002962	0.02928	0.16714	-0.7	-18.83	-0.42	-1.3441	-0.1766	-0.9911	
-0.997594	0.033672	0.173484	-0.07	-18.97	-0.49	-1.3379	-0.1841	-1.0035	
-1.001864	0.032696	0.175192	0.49	-18.55	-0.42	-1.3393	-0.1693	-0.9985999	
-1.004548	0.02562	0.181902	1.4	-19.32	-0.35	-1.3439	-0.1812	-1.0033	
-0.999668	0.02928	0.187636	2.31	-20.51	-0.28	-1.3437	-0.1754	-1.0108	
-0.998692	0.03538	0.20313	1.82	-20.86	-0.07	-1.3434	-0.1727	-1.0228	
-0.997228	0.034648	0.205692	1.82	-21.14	0.14	-1.3434	-0.1727	-1.0228	
-0.99125	0.033428	0.217892	2.03	-21.84	0	-1.3513	-0.1814	-1.0137	
-0.989908	0.03965	0.226432	2.17	-22.33	-0.56	-1.3589	-0.1874	-1.0152	
-0.969778	0.039406	0.241072	0.7	-23.17	0.07	-1.3661	-0.1759	-1.027	
-0.981612	0.0366	0.25071	0.42	-22.19	0.49	-1.3559	-0.1844	-1.0107	
-0.967338	0.045262	0.264374	-0.63	-23.03	0.07	-1.3634	-0.1965	-1.0228	
-0.96258	0.0488	0.2745	-1.61	-23.17	0.07	-1.3663	-0.1817	-1.0195	
-0.960506	0.040992	0.281088	-2.59	-22.82	0.84	-1.3706	-0.182	-1.033	
-0.955992	0.030866	0.29219	-2.87	-22.75	1.12	-1.3674	-0.1836	-1.0422	
-0.962702	0.032574	0.292678	-2.03	-22.05	0.28	-1.3781	-0.1717	-1.0327	
-0.9516	0.038552	0.302194	-1.82	-22.75	-0.63	-1.3749	-0.1837	-1.0466	
-0.94977	0.042578	0.306708	-1.4	-21.98	-0.84	-1.3858	-0.188	-1.0344	
-0.95038	0.033916	0.316468	-1.96	-22.33	-1.89	-1.3766	-0.1821	-1.0344	
-0.954772	0.03233	0.31537	-0.14	-21.07	-1.4	-1.3841	-0.1867	-1.0434	
-0.95038	0.029402	0.322446	0.35	-21.49	-1.75	-1.4036	-0.1827	-1.0536	
-0.948916	0.030256	0.331474	0.91	-21.49	-2.17	-1.3901	-0.1823	-1.0417	
-0.945744	0.032208	0.337574	1.61	-21.56	-2.38	-1.3929	-0.1752	-1.0536	
-0.935374	0.04331	0.349774	1.89	-21.14	-2.66	-1.402	-0.1842	-1.0566	
-0.928176	0.046482	0.356606	0.91	-20.86	-2.66	-1.4004	-0.1828	-1.0612	
-0.939156	0.036356	0.36295	2.03	-19.74	-2.1	-1.3959	-0.1872	-1.0629	
-0.919636	0.038796	0.362584	1.61	-20.65	-2.94	-1.408	-0.1783	-1.0564	
-0.915366	0.038918	0.364414	2.1	-20.44	-3.08	-1.4108	-0.1741	-1.0684	
-0.935496	0.042212	0.375028	1.61	-19.32	-3.78	-1.4064	-0.1814	-1.0641	
-0.933666	0.043798	0.381006	-1.75	-19.74	-4.83	-1.42	-0.189	-1.0685	
-0.924394	0.03111	0.38369	1.05	-20.51	-3.64	-1.4232	-0.1844	-1.0593	
-0.916708	0.02562	0.393694	0.7	-20.93	-3.78	-1.4216	-0.1919	-1.0685	
-0.912804	0.03843	0.40138	1.47	-20.72	-5.18	-1.4275	-0.1847	-1.0698	
-0.923906	0.041114	0.408456	0.42	-19.88	-5.81	-1.4184	-0.1801	-1.0698	
-0.906704	0.023668	0.41541	-2.31	-21.35	-4.9	-1.4289	-0.1848	-1.0788	
-0.901824	0.02013	0.424194	-2.1	-21.56	-4.69	-1.4334	-0.1819	-1.0756	
-0.88389	0.020862	0.431148	-0.91	-21.91	-4.2	-1.4316	-0.1791	-1.0892	
-0.889746	0.006954	0.44103	-1.75	-21.07	-3.99	-1.4362	-0.1792	-1.0891	
-0.901092	0.012322	0.44347	-2.38	-21.21	-4.55	-1.4408	-0.1732	-1.0844	
-0.884622	0.011712	0.451644	-3.5	-21.7	-3.57	-1.4469	-0.1807	-1.0844	
-0.880962	0.024766	0.467626	-4.48	-21.42	-3.01	-1.4375	-0.1749	-1.0951	
-0.871568	0.034526	0.478728	-6.79	-21.56	-3.71	-1.4528	-0.1779	-1.0888	
-0.865956	0.019276	0.496906	-9.45	-22.05	-2.66	-1.4435	-0.1661	-1.0948	
-0.84973	-0.005978	0.510692	-10.85	-23.17	-1.61	-1.4528	-0.1719	-1.0857	
-0.843142	-0.031964	0.520574	-8.75	-22.19	-2.24	-1.4603	-0.1884	-1.0994	
-0.842776	-0.045872	0.52948	-6.79	-21.63	-1.89	-1.4572	-0.1722	-1.0977	
-0.837286	-0.04697	0.536922	-4.41	-21	-1.05	-1.4677	-0.1664	-1.1004	
-0.836188	-0.057706	0.545218	-1.75	-20.72	0.7	-1.469	-0.1562	-1.1062	
-0.835456	-0.066734	0.548146	1.89	-21	2.45	-1.4678	-0.1708	-1.0959	
-0.82106	-0.051728	0.554002	4.55	-21.14	3.78	-1.4675	-0.1725	-1.1111	
-0.820816	-0.046482	0.564616	4.48	-19.88	5.18	-1.4735	-0.1682	-1.1124	
-0.805688	-0.036356	0.575352	5.25	-19.95	6.16	-1.4752	-0.168	-1.1048	
-0.804102	-0.038552	0.580598	5.18	-17.99	6.93	-1.4797	-0.177	-1.1079	
-0.810446	-0.04209	0.57706	7	-16.8	7.14	-1.4857	-0.1726	-1.1092	
-0.806542	-0.032208	0.581208	7.84	-16.1	7	-1.4828	-0.1726	-1.1063	
-0.801662	-0.02318	0.584746	8.89	-15.12	6.51	-1.4857	-0.1787	-1.1154	
-0.79849	-0.019642	0.587308	9.1	-13.72	6.37	-1.4903	-0.1875	-1.1154	
-0.79178	-0.021106	0.587918	9.52	-12.81	7	-1.5008	-0.1818	-1.1182	
-0.79056	-0.01647	0.5978	10.29	-11.13	7.63	-1.4948	-0.1936	-1.12	
-0.79544	-0.017202	0.596214	11.13	-9.73	8.4	-1.4904	-0.183	-1.1108	
-0.798368	-0.012322	0.591334	12.25	-8.82	9.31	-1.5057	-0.1905	-1.1046	
-0.792512	-0.01037	0.592676	12.25	-8.19	10.15	-1.5026	-0.195	-1.1108	
-0.792634	-0.00305	0.593652	13.51	-7.42	11.06	-1.5011	-0.2024	-1.1155	
-0.789828	0.011224	0.5978	13.65	-6.44	11.83	-1.498	-0.1994	-1.1155	
-0.80215	0.01708	0.59475	13.58	-5.25	13.51	-1.5055	-0.204	-1.123	
-0.799466	0.026474	0.590968	13.02	-5.53	14.63	-1.5026	-0.2069	-1.1171	
-0.790194	0.03599	0.58682	13.02	-4.9	15.75	-1.5131	-0.2056	-1.1214	
-0.80276	0.04331	0.586332	12.32	-3.71	16.59	-1.5146	-0.2085	-1.1214	
-0.803126	0.048068	0.590602	12.39	-4.2	17.85	-1.5117	-0.2203	-1.1217	
-0.793	0.053558	0.590358	12.6	-5.25	19.11	-1.5027	-0.2231	-1.1189	
-0.792512	0.069784	0.58438	13.65	-4.48	20.44	-1.5041	-0.2202	-1.1218	
-0.795318	0.07515199	0.591944	12.46	-3.99	21.98	-1.5042	-0.2246	-1.1204	
-0.789706	0.079666	0.594628	12.95	-3.78	23.45	-1.5056	-0.2307	-1.1295	
-0.783728	0.084302	0.588406	13.65	-3.29	24.64	-1.5102	-0.2262	-1.1248	
-0.777628	0.094916	0.584136	14.77	-1.82	26.11	-1.5102	-0.2233	-1.1248	
-0.788974	0.103456	0.58133	15.82	-0.14	27.44	-1.5194	-0.247	-1.1281	
-0.797758	0.11529	0.57889	17.5	0.35	27.79	-1.5089	-0.2394	-1.1221	
-0.785924	0.127002	0.5795	18.48	0.07	28.77	-1.5121	-0.2513	-1.1207	
-0.772016	0.126636	0.579866	19.53	0.91	29.82	-1.5258	-0.2528	-1.1175	
-0.766282	0.132858	0.578158	21.84	1.75	30.31	-1.5075	-0.2571	-1.1224	
-0.7686	0.146522	0.577792	23.66	3.22	31.85	-1.5075	-0.2601	-1.124	
-0.775066	0.151646	0.572302	25.69	4.13	33.67	-1.5107	-0.2586	-1.1179	
-0.770918	0.170068	0.56669	28.7	4.83	34.51	-1.5153	-0.2719	-1.118	
-0.763354	0.191906	0.56486	30.17	5.46	35.42	-1.5109	-0.2806	-1.1152	
-0.766892	0.219844	0.56425	31.71	6.3	36.19	-1.5143	-0.2863	-1.1032	
-0.765062	0.258762	0.548756	33.11	6.37	36.4	-1.5201	-0.2925	-1.1153	
-0.77653	0.28792	0.546316	31.99	6.79	36.96	-1.5231	-0.2866	-1.1136	
-0.7747	0.288896	0.543388	30.73	5.81	38.43	-1.5144	-0.3055	-1.1035	
-0.76433	0.297802	0.541558	32.27	5.18	39.13	-1.5114	-0.31	-1.1082	
-0.760304	0.326106	0.533018	33.88	4.97	38.36	-1.5162	-0.3173	-1.0992	
-0.765794	0.374296	0.527284	35	4.27	35.91	-1.5207	-0.3292	-1.1053	
-0.774944	0.411628	0.51179	32.69	3.85	34.65	-1.5193	-0.338	-1.104	
-0.757132	0.40931	0.509838	29.75	2.8	36.12	-1.5149	-0.3438	-1.0997	
-0.750422	0.397354	0.501786	29.33	2.17	36.82	-1.5136	-0.3406	-1.0891	
-0.748104	0.410774	0.497638	31.78	1.68	35.28	-1.5244	-0.3584	-1.0877	
-0.744566	0.434076	0.484096	32.62	1.12	33.81	-1.5378	-0.3632	-1.0996	
-0.733708	0.460062	0.487634	34.37	0.84	33.32	-1.5289	-0.36	-1.0906	
-0.738954	0.50813	0.472506	34.44	0.42	32.27	-1.5229	-0.3703	-1.0909	
-0.735538	0.531432	0.460306	33.46	0.35	31.85	-1.5184	-0.388	-1.0974	
-0.722606	0.54107	0.449692	31.78	-1.12	32.2	-1.5291	-0.3925	-1.0958	
-0.714188	0.548634	0.44957	30.52	-1.68	31.5	-1.5262	-0.3983	-1.0929	
-0.704062	0.570716	0.452132	29.75	-2.59	29.68	-1.5325	-0.4056	-1.0838	
-0.680638	0.594872	0.456158	28.14	-3.08	28.49	-1.5384	-0.4028	-1.0882	
-0.675758	0.604998	0.44957	25.69	-2.8	27.44	-1.5493	-0.4057	-1.0775	
-0.687348	0.59048	0.44347	24.57	-1.82	26.74	-1.5462	-0.4116	-1.0822	
-0.674904	0.594018	0.43676	24.99	-2.66	25.41	-1.5495	-0.4233	-1.0733	
-0.668804	0.613538	0.429196	24.92	-2.73	24.22	-1.5525	-0.4204	-1.0747	
-0.680882	0.625128	0.424682	25.62	-2.52	22.54	-1.548	-0.4382	-1.0811	
-0.679784	0.643916	0.422974	24.99	-3.78	20.51	-1.5467	-0.4394	-1.0706	
-0.658312	0.649894	0.42639	23.45	-4.27	19.95	-1.562	-0.4454	-1.0674	
-0.633912	0.648186	0.42639	23.17	-4.27	19.74	-1.5575	-0.4424	-1.0644	
-0.647332	0.66978	0.421754	23.03	-3.36	17.92	-1.5603	-0.4426	-1.0734	
-0.670878	0.673684	0.417728	21.91	-3.64	17.5	-1.5605	-0.4528	-1.0675	
-0.658434	0.693448	0.415898	21.07	-4.9	16.45	-1.5515	-0.4541	-1.0662	
-0.64965	0.710162	0.41175	19.04	-4.76	15.54	-1.5621	-0.4602	-1.0692	
-0.637694	0.704916	0.406138	16.1	-4.55	16.03	-1.5727	-0.4617	-1.0675	
-0.634156	0.709064	0.40077	14.42	-3.78	15.12	-1.5729	-0.4616	-1.0584	
-0.641842	0.715408	0.392962	12.32	-3.85	14.14	-1.5729	-0.4705	-1.0616	
-0.63684	0.710894	0.39955	10.78	-3.99	13.65	-1.5609	-0.4718	-1.0588	
-0.615612	0.713334	0.403454	9.8	-3.99	12.11	-1.5792	-0.4808	-1.0556	
-0.60146	0.720532	0.406626	8.05	-3.08	10.22	-1.5729	-0.469	-1.0631	
-0.607316	0.730292	0.410652	6.51	-2.45	8.4	-1.5898	-0.4839	-1.0585	
-0.621712	0.733952	0.415166	4.48	-2.17	6.72	-1.576	-0.4734	-1.0601	
-0.61976	0.74176	0.413946	3.01	-2.66	4.97	-1.5852	-0.4765	-1.06	
-0.60329	0.750056	0.411994	0.77	-2.94	3.29	-1.5867	-0.4809	-1.06	
-0.599874	0.742126	0.412116	-0.91	-1.89	1.82	-1.5777	-0.4808	-1.0556	
-0.60512	0.733342	0.413458	-1.68	-1.05	0.49	-1.5944	-0.4809	-1.0523	
-0.602558	0.727852	0.409188	-2.45	-1.05	-0.98	-1.5702	-0.4807	-1.0543	
-0.59719	0.73139	0.40565	-2.38	-0.91	-2.38	-1.5822	-0.4779	-1.057	
-0.60756	0.738832	0.405284	-3.01	-0.63	-3.78	-1.5792	-0.4838	-1.0602	
-0.616344	0.732122	0.404308	-4.48	-0.84	-4.48	-1.5747	-0.4792	-1.0542	
-0.613904	0.72712	0.406992	-5.18	-1.54	-5.11	-1.5853	-0.4838	-1.0571	
-0.606462	0.72651	0.412116	-5.81	-1.33	-6.65	-1.5942	-0.4781	-1.0643	
-0.602802	0.741028	0.416386	-6.37	-1.12	-8.4	-1.5715	-0.4733	-1.0571	
-0.607194	0.740052	0.408822	-9.24	-0.91	-9.17	-1.5837	-0.466	-1.0522	
-0.609024	0.7259	0.41907	-10.78	-0.42	-9.45	-1.5776	-0.4824	-1.0632	
-0.611586	0.717604	0.419314	-12.25	0	-10.92	-1.5851	-0.4646	-1.0567	
-0.615856	0.70882	0.42273	-12.95	0.7	-12.39	-1.579	-0.478	-1.0677	
-0.617808	0.701744	0.422242	-13.72	1.12	-13.58	-1.5788	-0.4573	-1.0658	
-0.61915	0.696864	0.426512	-14.7	1.68	-14.98	-1.5771	-0.459	-1.0749	
-0.617564	0.684664	0.426268	-15.82	2.31	-16.45	-1.5681	-0.4618	-1.0706	
-0.624518	0.668926	0.426268	-16.45	2.59	-18.06	-1.5638	-0.457	-1.057	
-0.638304	0.659776	0.438346	-16.38	3.36	-19.39	-1.5651	-0.4499	-1.0674	
-0.642452	0.660508	0.437248	-16.45	3.01	-21.28	-1.5604	-0.447	-1.072	
-0.641232	0.648796	0.441762	-16.8	3.57	-22.82	-1.5633	-0.4426	-1.0749	
-0.642208	0.641598	0.449082	-17.15	3.99	-24.29	-1.5635	-0.4484	-1.0689	
-0.650382	0.628788	0.45079	-17.5	4.83	-25.27	-1.563	-0.428	-1.0822	
-0.660996	0.620248	0.453596	-17.78	5.32	-26.67	-1.5557	-0.4396	-1.0734	
-0.670146	0.609756	0.454084	-18.55	5.6	-27.86	-1.5495	-0.4308	-1.0794	
-0.678442	0.60146	0.457378	-18.97	6.23	-29.12	-1.5465	-0.4322	-1.078	
-0.685152	0.587552	0.451522	-20.44	6.02	-30.38	-1.5463	-0.4353	-1.0871	
-0.700646	0.56669	0.45262	-21.14	6.51	-31.36	-1.5313	-0.4246	-1.0751	
-0.701134	0.55937	0.461282	-21.98	6.44	-32.41	-1.5434	-0.4129	-1.0717	
-0.710894	0.555588	0.466162	-24.71	5.95	-32.55	-1.5477	-0.4043	-1.082	
-0.72285	0.543022	0.463356	-26.6	5.95	-32.97	-1.5311	-0.41	-1.0809	
-0.732	0.530578	0.466772	-27.44	6.37	-34.51	-1.531	-0.4026	-1.0808	
-0.74115	0.50813	0.462014	-28.42	6.44	-37.17	-1.5263	-0.4027	-1.0869	
-0.743224	0.482876	0.464698	-28.84	5.95	-37.94	-1.5307	-0.3761	-1.0818	
-0.749446	0.453108	0.469822	-28.56	5.6	-36.96	-1.5216	-0.3745	-1.0835	
-0.754204	0.432734	0.469334	-27.51	5.04	-37.66	-1.5152	-0.3629	-1.094	
-0.76433	0.418826	0.475068	-25.83	5.04	-38.78	-1.5093	-0.3701	-1.0912	
-0.764696	0.410774	0.482022	-24.78	3.78	-39.9	-1.5046	-0.3657	-1.0957	
-0.772382	0.40321	0.483608	-24.29	3.85	-40.53	-1.5105	-0.3525	-1.0939	
-0.776408	0.39101	0.485682	-24.5	3.57	-41.16	-1.506	-0.351	-1.0955	
-0.783118	0.368684	0.482998	-23.94	3.15	-42.14	-1.5	-0.3464	-1.0879	
-0.788242	0.355142	0.484584	-22.54	2.66	-43.05	-1.4967	-0.3392	-1.0999	
-0.793	0.341966	0.485316	-22.19	2.17	-43.26	-1.498	-0.3289	-1.1028	
-0.792878	0.32086	0.493856	-21.77	1.89	-43.26	-1.492	-0.3274	-1.0998	
-0.797148	0.310124	0.497516	-21.49	1.61	-43.33	-1.4951	-0.3214	-1.0951	
-0.80825	0.298534	0.492514	-22.61	1.54	-43.75	-1.4919	-0.3126	-1.0996	
-0.806664	0.282674	0.49959	-22.47	0.84	-43.54	-1.4917	-0.2949	-1.0977	
-0.801662	0.271206	0.508252	-23.31	0.42	-43.19	-1.4903	-0.2948	-1.0917	
-0.813618	0.256322	0.508862	-24.08	1.26	-42.91	-1.4795	-0.2934	-1.104	
-0.816058	0.2318	0.507764	-26.18	0.35	-42.42	-1.4915	-0.2832	-1.1051	
-0.803248	0.206912	0.509594	-28.35	-0.77	-42	-1.4916	-0.2757	-1.0959	
-0.817522	0.178974	0.510204	-29.89	-0.14	-42.35	-1.4855	-0.2831	-1.1007	
-0.833016	0.164578	0.51118	-30.59	-0.42	-43.61	-1.4793	-0.2742	-1.1036	
-0.837774	0.141276	0.508862	-31.64	-0.98	-44.31	-1.479	-0.264	-1.111	
-0.818498	0.122244	0.51057	-30.94	-1.89	-45.29	-1.4729	-0.2432	-1.1047	
-0.813252	0.11529	0.513864	-32.55	-1.4	-45.43	-1.4835	-0.2359	-1.1029	
-0.831674	0.105164	0.508496	-33.25	-0.28	-44.94	-1.4758	-0.2329	-1.1045	
-0.838872	0.090036	0.50691	-32.34	-1.05	-44.38	-1.4846	-0.2229	-1.1147	
-0.819474	0.07503	0.507764	-34.3	-2.1	-42.7	-1.4861	-0.2125	-1.113	
-0.80703	0.049532	0.504714	-34.02	-0.28	-43.33	-1.4788	-0.2167	-1.1011	
-0.82655	0.020252	0.510082	-32.83	2.1	-45.01	-1.4739	-0.202	-1.1085	
-0.845094	-0.025742	0.503616	-31.71	3.29	-46.27	-1.471	-0.2004	-1.1009	
-0.850828	-0.044164	0.49776	-27.09	2.31	-47.81	-1.4799	-0.1873	-1.1051	
-0.836066	-0.053802	0.500322	-26.6	1.26	-48.23	-1.4691	-0.1665	-1.1064	
-0.850462	-0.077836	0.498248	-26.88	1.12	-47.11	-1.4736	-0.1621	-1.1047	
-0.851804	-0.102846	0.499712	-25.55	-0.98	-47.6	-1.4873	-0.1592	-1.0999	
-0.84668	-0.131638	0.50996	-24.64	-2.38	-47.6	-1.4765	-0.1384	-1.0982	
-0.845338	-0.161528	0.501786	-21.91	-3.36	-46.2	-1.4813	-0.1547	-1.0954	
-0.842288	-0.17385	0.510082	-20.09	-3.85	-46.76	-1.4811	-0.1414	-1.0951	
-0.83631	-0.190076	0.5063	-19.67	-3.92	-46.55	-1.4854	-0.1372	-1.1086	
-0.831552	-0.200934	0.503494	-18.69	-3.78	-47.18	-1.4976	-0.1224	-1.096	
-0.830576	-0.212646	0.501176	-19.53	-2.94	-47.67	-1.4823	-0.1209	-1.1038	
-0.820816	-0.22753	0.498614	-19.04	-2.38	-46.27	-1.4975	-0.1195	-1.1005	
-0.807518	-0.2501	0.52033	-20.86	-1.82	-43.82	-1.4944	-0.1032	-1.0972	
-0.819962	-0.28548	0.5063	-20.02	-0.14	-42.77	-1.4974	-0.1048	-1.1002	
-0.813862	-0.294386	0.494344	-19.25	1.12	-43.33	-1.4987	-0.096	-1.1046	
-0.79666	-0.283406	0.48678	-21.35	1.68	-42.77	-1.4942	-0.09	-1.1015	
-0.785192	-0.273036	0.485682	-24.08	3.29	-40.95	-1.5077	-0.0917	-1.1058	
-0.787022	-0.284626	0.47519	-27.02	2.87	-38.92	-1.5014	-0.0725	-1.1086	
-0.787144	-0.318054	0.46726	-29.33	1.05	-36.33	-1.5014	-0.0651	-1.107	
-0.779092	-0.346724	0.468724	-29.82	-0.35	-35.42	-1.5031	-0.07979999	-1.1027	
-0.781776	-0.361852	0.473604	-29.68	-0.42	-33.32	-1.5048	-0.0633	-1.0872	
-0.790926	-0.375882	0.471774	-30.03	-0.49	-32.2	-1.5168	-0.0546	-1.0883	
-0.77653	-0.373564	0.480436	-30.45	-1.19	-33.95	-1.5182	-0.0488	-1.0912	
-0.761402	-0.39528	0.483364	-30.38	-3.78	-31.22	-1.4985	-0.0471	-1.0916	
-0.753594	-0.410896	0.475678	-29.89	-3.43	-32.76	-1.5091	-0.0427	-1.0868	
-0.75701	-0.423462	0.479704	-29.54	-1.96	-33.39	-1.5257	-0.0251	-1.0801	
-0.766648	-0.441884	0.464576	-29.54	-2.03	-34.09	-1.5226	-0.0207	-1.0846	
-0.769576	-0.452742	0.455304	-27.23	-3.64	-34.79	-1.5181	-0.0176	-1.0801	
-0.76433	-0.436516	0.456646	-26.46	-3.78	-35.14	-1.5257	-0.0206	-1.08	
-0.753472	-0.444324	0.44896	-25.06	-4.69	-35.56	-1.5286	-0.0074	-1.0797	
-0.72346	-0.434076	0.443714	-23.94	-7	-34.37	-1.5285	-0.009	-1.0843	
-0.735294	-0.496052	0.495564	-26.53	-5.25	-30.73	-1.5346	0.0028	-1.0764	
-0.72407	-0.54839	0.463844	-23.52	-5.53	-29.61	-1.5423	0.0043	-1.0717	
-0.688934	-0.529114	0.455304	-22.12	-8.12	-26.46	-1.5407	0.0132	-1.0716	
-0.687592	-0.515816	0.438956	-21.28	-6.37	-25.48	-1.5527	0.016	-1.0743	
-0.720654	-0.518622	0.462624	-24.71	-3.57	-24.29	-1.5422	0.0162	-1.0669	
-0.73444	-0.581086	0.44469	-24.78	-5.32	-21.56	-1.5468	0.031	-1.059	
-0.710162	-0.568154	0.436394	-20.72	-7.07	-20.09	-1.5484	0.0177	-1.0592	
-0.69906	-0.572424	0.437858	-20.51	-5.95	-18.62	-1.5497	0.0294	-1.0665	
-0.69784	-0.566934	0.43005	-19.32	-4.62	-17.57	-1.5545	0.0222	-1.0545	
-0.711504	-0.581818	0.41602	-18.83	-3.78	-16.52	-1.5571	0.0366	-1.0723	
-0.714676	-0.58072	0.428952	-17.57	-4.27	-14.98	-1.5649	0.0337	-1.0632	
-0.695034	-0.598166	0.415044	-16.38	-6.16	-12.67	-1.5649	0.0531	-1.0537	
-0.674782	-0.60207	0.419314	-14.77	-5.18	-11.2	-1.5649	0.0352	-1.0616	
-0.671976	-0.606828	0.405772	-12.74	-3.71	-12.32	-1.5602	0.0455	-1.0661	
-0.675636	-0.592188	0.412604	-12.88	-4.2	-11.69	-1.5694	0.0559	-1.0551	
-0.66307	-0.613538	0.408944	-13.86	-4.48	-10.15	-1.5725	0.0411	-1.0583	
-0.648064	-0.62769	0.406016	-12.88	-4.13	-10.01	-1.5799	0.0543	-1.0565	
-0.64843	-0.62769	0.402234	-12.6	-2.17	-10.5	-1.5768	0.0692	-1.0532	
-0.654896	-0.619272	0.393572	-12.95	-1.68	-10.5	-1.5814	0.0602	-1.0563	
-0.64904	-0.634644	0.393938	-13.65	-2.17	-10.22	-1.5755	0.0575	-1.0489	
-0.638548	-0.656726	0.388204	-13.3	-1.82	-10.5	-1.5785	0.0619	-1.0488	
-0.648064	-0.66429	0.382348	-12.46	-0.77	-10.64	-1.574	0.0694	-1.0442	
-0.65941	-0.662582	0.380762	-11.2	0.84	-10.36	-1.5756	0.065	-1.0382	
-0.660874	-0.66917	0.37515	-9.73	-0.84	-10.01	-1.5756	0.0679	-1.0412	
-0.649406	-0.680028	0.382104	-8.61	-1.75	-8.33	-1.5771	0.0694	-1.0411	
-0.63501	-0.690276	0.382958	-6.58	-1.75	-7.91	-1.5847	0.0649	-1.038	
-0.637206	-0.705282	0.376492	-4.76	-0.98	-8.05	-1.5893	0.0649	-1.0379	
-0.637938	-0.696986	0.37881	-3.5	-1.61	-7.84	-1.5801	0.07229999	-1.041	
-0.651602	-0.69052	0.381616	-2.66	-0.98	-6.51	-1.5935	0.072	-1.0513	
-0.648308	-0.6893	0.37637	-1.68	-1.75	-4.55	-1.5994	0.0792	-1.0556	
-0.628056	-0.687104	0.384544	-1.12	-2.31	-2.66	-1.5862	0.07979999	-1.0317	
-0.620614	-0.696132	0.390522	0.07	-1.54	-1.75	-1.5905	0.0795	-1.0452	
-0.619882	-0.696986	0.386252	0.91	-0.35	-1.05	-1.5907	0.0737	-1.0393	
-0.622932	-0.694424	0.38247	1.4	-0.84	0.49	-1.5997	0.0765	-1.0421	
-0.643062	-0.698938	0.3843	2.1	0.21	1.68	-1.5862	0.0812	-1.0347	
-0.655994	-0.686982	0.379664	4.06	0.49	3.99	-1.5906	0.0677	-1.0454	
-0.639524	-0.685884	0.384422	4.13	-1.4	7	-1.5921	0.0706	-1.0469	
-0.617198	-0.693204	0.388936	5.11	-1.96	8.12	-1.5876	0.0573	-1.0532	
-0.630008	-0.696254	0.388936	6.58	-0.7	8.96	-1.5966	0.0764	-1.0482	
-0.647942	-0.696254	0.386008	8.26	0.14	9.8	-1.5755	0.0649	-1.0443	
-0.656726	-0.673806	0.388692	10.01	-0.7	10.99	-1.5876	0.0662	-1.0485	
-0.647942	-0.666974	0.39284	10.71	-1.75	12.53	-1.5878	0.0605	-1.0381	
-0.639768	-0.670512	0.396256	11.2	-1.61	13.51	-1.5906	0.0662	-1.0485	
-0.652212	-0.665754	0.399794	12.67	-0.35	14.49	-1.5769	0.0589	-1.0534	
-0.654896	-0.649894	0.397842	14.49	-1.61	14.91	-1.5803	0.0561	-1.0383	
-0.64965	-0.641232	0.40199	14.49	-2.73	16.24	-1.5861	0.0484	-1.0564	
-0.652822	-0.630862	0.403576	15.26	-1.68	17.22	-1.5694	0.0679	-1.0489	
-0.6649	-0.62525	0.402112	15.47	-1.4	18.2	-1.5739	0.0515	-1.0551	
-0.671488	-0.620492	0.413702	15.61	-1.68	18.97	-1.5739	0.0544	-1.0551	
-0.673074	-0.620736	0.417118	15.96	-2.45	19.18	-1.5694	0.0411	-1.0599	
-0.66795	-0.609146	0.422486	16.38	-2.59	19.95	-1.5587	0.0396	-1.0662	
-0.66612	-0.599264	0.426634	16.8	-2.03	20.93	-1.5526	0.0397	-1.0678	
-0.6771	-0.587064	0.430294	16.8	-1.19	21.91	-1.5663	0.0366	-1.0661	
-0.683078	-0.570594	0.43493	17.15	-0.91	23.87	-1.5619	0.0368	-1.0601	
-0.686616	-0.57584	0.440786	16.87	-1.4	25.48	-1.5555	0.0306	-1.08	
-0.690764	-0.570472	0.444446	18.34	-1.19	26.25	-1.5511	0.0307	-1.0741	
-0.694424	-0.551806	0.44408	19.18	-1.05	27.93	-1.5573	0.0264	-1.0649	
-0.696986	-0.537776	0.453596	18.97	-1.4	28.84	-1.5632	0.0306	-1.0723	
-0.700524	-0.53314	0.456646	19.32	-1.75	29.05	-1.5632	0.0113	-1.0817	
-0.717726	-0.520696	0.460184	19.67	-1.26	29.19	-1.5483	0.0176	-1.0683	
-0.722728	-0.509472	0.460428	20.51	-1.61	29.75	-1.5469	0	-1.0686	
-0.718458	-0.495808	0.468358	21.28	-2.03	29.4	-1.5438	-0.0015	-1.0718	
-0.722728	-0.478118	0.470798	22.33	-1.26	29.89	-1.5377	-0.0045	-1.078	
-0.73566	-0.458232	0.469578	22.33	-0.77	29.96	-1.5362	-0.0074	-1.0781	
-0.737368	-0.449082	0.47763	21.7	-0.98	31.08	-1.5317	-0.0029	-1.075	
-0.736148	-0.434564	0.477874	22.4	-1.33	31.43	-1.5378	-0.0223	-1.0813	
-0.738832	-0.41907	0.490928	21.98	-0.84	32.41	-1.5347	-0.0163	-1.0813	
-0.736758	-0.40565	0.488122	22.47	-0.35	33.6	-1.5424	-0.0253	-1.0813	
-0.75579	-0.379786	0.49105	20.93	0.91	34.93	-1.5302	-0.0252	-1.0845	
-0.768478	-0.371612	0.489708	20.09	1.47	35.98	-1.53	-0.0403	-1.1029	
-0.772382	-0.356972	0.491416	18.41	0.21	38.01	-1.5239	-0.0343	-1.0999	
-0.783606	-0.3721	0.497516	16.17	-1.19	41.79	-1.5181	-0.0444	-1.0957	
-0.779214	-0.35441	0.49959	17.5	-2.03	42.35	-1.5151	-0.0563	-1.099	
-0.783972	-0.33306	0.503128	19.18	-1.68	42.07	-1.5151	-0.0622	-1.1006	
-0.792756	-0.31598	0.505812	20.16	-1.75	42.84	-1.5121	-0.0651	-1.1022	
-0.79971	-0.306708	0.51606	21.28	-3.43	44.1	-1.5182	-0.0636	-1.096	
-0.796904	-0.295728	0.512156	24.64	-3.08	45.15	-1.5152	-0.0815	-1.107	
-0.798734	-0.260104	0.513986	28.49	-2.45	44.8	-1.5062	-0.0828	-1.1042	
-0.799954	-0.224602	0.528504	28.77	-1.96	45.15	-1.5107	-0.0963	-1.1119	
-0.799466	-0.199714	0.529968	31.15	-2.24	45.92	-1.5064	-0.09739999	-1.0969	
-0.799832	-0.181048	0.530822	31.85	-1.96	46.27	-1.5034	-0.1049	-1.1031	
-0.807884	-0.154818	0.52338	32.62	-2.03	45.36	-1.5018	-0.1153	-1.1109	
-0.820084	-0.118218	0.525332	31.85	-0.28	43.96	-1.497	-0.108	-1.1184	
-0.813252	-0.097112	0.527284	30.45	-2.38	45.15	-1.4973	-0.1183	-1.1125	
-0.804346	-0.094428	0.535824	28.84	-3.71	46.55	-1.4944	-0.13	-1.1098	
-0.807152	-0.085766	0.536678	28.28	-2.66	47.18	-1.5021	-0.1404	-1.1083	
-0.8113	-0.067832	0.532408	29.12	-1.47	46.41	-1.4945	-0.1403	-1.11	
-0.81496	-0.047336	0.545096	29.4	-1.4	45.57	-1.4899	-0.1418	-1.1146	
-0.815814	-0.036234	0.544608	29.89	-1.33	46.55	-1.487	-0.1669	-1.1182	
-0.81557	-0.026962	0.543144	30.17	-1.19	47.25	-1.4916	-0.1625	-1.1135	
-0.805078	-0.00671	0.544242	31.85	-1.05	47.39	-1.4919	-0.1831	-1.1108	
-0.803858	0.024644	0.54534	31.15	0.07	47.04	-1.4873	-0.1919	-1.1141	
-0.814228	0.047946	0.539118	30.45	0.42	46.13	-1.4814	-0.1873	-1.1081	
-0.810324	0.06832	0.540582	30.1	-0.21	45.29	-1.4903	-0.1876	-1.117	
-0.813252	0.077104	0.543998	28.56	0.07	46.06	-1.4996	-0.2008	-1.1095	
-0.802272	0.091012	0.546072	29.33	-0.28	46.34	-1.4954	-0.2169	-1.1023	
-0.807518	0.123708	0.548756	28.98	0.91	44.8	-1.4998	-0.217	-1.1082	
-0.804346	0.150182	0.543388	27.37	0.7	44.31	-1.4938	-0.2273	-1.1131	
-0.801662	0.159088	0.545706	26.67	0.77	45.08	-1.4969	-0.2422	-1.1163	
-0.797636	0.166042	0.546072	25.48	1.33	45.29	-1.485	-0.2434	-1.1075	
-0.803004	0.18666	0.542534	26.32	1.75	44.87	-1.4958	-0.2567	-1.1015	
-0.806786	0.210938	0.53985	25.83	1.68	43.89	-1.4986	-0.2584	-1.1136	
-0.801662	0.228018	0.541436	25.06	1.61	43.96	-1.491	-0.2553	-1.1121	
-0.795806	0.243756	0.537044	23.87	1.54	44.1	-1.5034	-0.2761	-1.1123	
-0.785924	0.25376	0.535214	23.73	1.26	44.38	-1.4943	-0.2834	-1.1141	
-0.781044	0.268034	0.532652	22.61	1.26	44.17	-1.4913	-0.2803	-1.1096	
-0.781288	0.281698	0.52948	22.26	1.19	42.84	-1.49	-0.2935	-1.1053	
-0.78446	0.310856	0.533506	23.38	0.98	40.88	-1.4961	-0.2966	-1.1067	
-0.803492	0.357826	0.520208	22.75	1.19	39.13	-1.4872	-0.3038	-1.1025	
-0.802638	0.374418	0.514596	19.46	0	39.27	-1.4963	-0.3113	-1.1055	
-0.780556	0.352824	0.514474	17.57	-1.4	40.11	-1.4919	-0.3141	-1.0981	
-0.76799	0.350018	0.513132	18.83	-1.54	38.85	-1.5069	-0.3173	-1.1084	
-0.768234	0.369904	0.504714	19.74	-1.61	36.4	-1.5054	-0.3233	-1.1116	
-0.76921	0.388204	0.50935	20.09	-2.17	35.21	-1.5055	-0.3276	-1.1071	
-0.76921	0.409798	0.509838	19.32	-3.29	33.81	-1.5089	-0.3392	-1.0952	
-0.768966	0.429928	0.507276	19.18	-3.99	30.66	-1.5133	-0.3408	-1.0997	
-0.762622	0.42883	0.504592	18.13	-4.62	26.81	-1.518	-0.3497	-1.0997	
-0.75274	0.41724	0.494588	18.55	-4.76	23.8	-1.5209	-0.3558	-1.1089	
-0.74054	0.424682	0.48495	19.6	-5.11	21.14	-1.5226	-0.3586	-1.0998	
-0.738588	0.438834	0.48983	22.26	-5.32	19.88	-1.5227	-0.3496	-1.0921	
-0.753106	0.481656	0.481778	23.73	-5.67	18.83	-1.5318	-0.3571	-1.092	
-0.762378	0.48983	0.463966	24.43	-7.14	19.74	-1.5211	-0.3541	-1.0952	
-0.737002	0.479948	0.46787	26.18	-9.94	22.68	-1.5257	-0.366	-1.0999	
-0.718946	0.491782	0.462258	28.28	-11.9	24.08	-1.5397	-0.3703	-1.0831	
-0.716994	0.518378	0.480924	31.36	-11.83	24.08	-1.5381	-0.3808	-1.0939	
-0.69662	0.541314	0.495564	31.64	-13.65	23.31	-1.5293	-0.3968	-1.0853	
-0.667584	0.545706	0.495076	30.24	-13.51	21.49	-1.532	-0.3867	-1.0971	
-0.665632	0.548878	0.494588	30.31	-10.5	19.81	-1.5382	-0.3986	-1.1002	
-0.679662	0.535946	0.483974	31.08	-9.1	18.83	-1.5353	-0.3984	-1.0927	
-0.667706	0.546804	0.482388	33.11	-9.24	18.48	-1.549	-0.4089	-1.0927	
-0.675392	0.57462	0.467992	34.16	-8.68	16.94	-1.5522	-0.4058	-1.0835	
-0.68564	0.604754	0.4514	33.95	-8.75	14.56	-1.5538	-0.4132	-1.0836	
-0.67344	0.619516	0.445178	32.76	-9.94	12.74	-1.5508	-0.422	-1.0838	
-0.653188	0.62891	0.438956	31.57	-10.01	11.13	-1.5582	-0.4297	-1.0959	
-0.655628	0.630008	0.433222	29.47	-9.45	11.55	-1.5574	-0.4424	-1.0674	
-0.666364	0.651236	0.43371	28.21	-10.5	12.88	-1.5724	-0.4338	-1.073	
-0.678564	0.669658	0.43249	25.41	-11.55	13.51	-1.5664	-0.447	-1.0734	
-0.66856	0.675392	0.435418	22.68	-13.37	14.77	-1.5634	-0.45	-1.0765	
-0.645868	0.665998	0.45079	20.51	-13.65	16.03	-1.5697	-0.4617	-1.069	
-0.62098	0.660874	0.455304	18.06	-12.67	17.5	-1.5787	-0.4426	-1.0655	
-0.626104	0.652456	0.443958	17.43	-10.43	16.8	-1.5833	-0.4575	-1.0702	
-0.643916	0.661118	0.447618	18.2	-9.31	15.33	-1.5772	-0.4633	-1.072	
-0.640378	0.671	0.439322	16.38	-10.64	14.35	-1.5849	-0.4633	-1.0673	
-0.6222	0.662948	0.434686	15.54	-11.83	13.3	-1.5864	-0.4649	-1.0703	
-0.600606	0.66673	0.441884	15.19	-12.25	12.74	-1.591	-0.4738	-1.0704	
-0.605364	0.679418	0.442006	14	-11.2	10.92	-1.5834	-0.4693	-1.0704	
-0.618174	0.688324	0.444934	13.09	-10.99	9.24	-1.5958	-0.4751	-1.0582	
-0.595726	0.685274	0.452254	11.83	-12.67	8.47	-1.6049	-0.4856	-1.0643	
-0.584868	0.692106	0.4575	11.27	-10.92	7.7	-1.6032	-0.4783	-1.0687	
-0.589504	0.701012	0.452742	10.64	-9.66	6.65	-1.6005	-0.481	-1.0552	
-0.594018	0.698084	0.453108	9.52	-8.89	5.39	-1.6078	-0.4842	-1.0687	
-0.582672	0.698694	0.462258	9.59	-8.82	4.76	-1.5986	-0.4857	-1.0735	
-0.573766	0.719922	0.464576	8.89	-8.4	3.92	-1.6066	-0.4839	-1.0536	
-0.57035	0.727852	0.458354	6.79	-7.14	3.08	-1.5945	-0.4868	-1.0539	
-0.573278	0.724314	0.4575	4.62	-6.09	2.73	-1.6141	-0.49	-1.0581	
-0.572912	0.718092	0.456524	2.87	-5.04	2.87	-1.6111	-0.4944	-1.0613	
-0.57279	0.715164	0.454328	1.75	-4.34	1.75	-1.617	-0.4932	-1.0687	
-0.564006	0.712114	0.452498	0.98	-4.2	1.12	-1.6125	-0.4901	-1.0627	
-0.562054	0.717482	0.450668	0.28	-3.57	0.77	-1.6141	-0.487	-1.0581	
-0.578036	0.72468	0.452986	-0.98	-2.59	0.35	-1.6186	-0.4901	-1.0611	
-0.575474	0.721752	0.456158	-2.45	-3.22	-0.28	-1.605	-0.484	-1.0567	
-0.558638	0.722606	0.461648	-3.15	-3.36	-1.54	-1.6077	-0.4873	-1.0733	
-0.565226	0.721874	0.456646	-4.41	-2.24	-1.82	-1.608	-0.4841	-1.0597	
-0.577914	0.716506	0.451766	-4.97	-1.33	-2.59	-1.6169	-0.4888	-1.0701	
-0.565348	0.710772	0.454572	-5.04	-1.89	-3.71	-1.6124	-0.4902	-1.0703	
-0.557662	0.712236	0.455548	-5.11	-0.63	-4.2	-1.6123	-0.4813	-1.0671	
-0.569252	0.719922	0.453108	-5.46	0.56	-4.83	-1.608	-0.49	-1.0598	
-0.570716	0.719068	0.454328	-6.37	0.84	-5.04	-1.6122	-0.4725	-1.0714	
-0.570838	0.710162	0.45323	-7	1.47	-5.81	-1.608	-0.4885	-1.0597	
-0.572058	0.708576	0.459208	-7.28	1.89	-7	-1.6184	-0.4813	-1.0654	
-0.57157	0.708454	0.459208	-7.35	1.89	-7.91	-1.6062	-0.4724	-1.0655	
-0.573522	0.711016	0.462502	-7.35	2.59	-9.24	-1.6077	-0.4754	-1.0686	
-0.584502	0.707722	0.462746	-8.05	3.15	-10.15	-1.6003	-0.4766	-1.0612	
-0.589016	0.70516	0.461282	-9.31	3.01	-11.55	-1.608	-0.4766	-1.0535	
-0.585966	0.705038	0.463356	-10.57	3.15	-12.88	-1.5939	-0.4679	-1.0732	
-0.588528	0.700402	0.46299	-12.18	3.29	-13.79	-1.6048	-0.4797	-1.0657	
-0.599142	0.695034	0.464576	-13.58	3.85	-14.77	-1.6017	-0.4782	-1.0657	
-0.599874	0.690398	0.469944	-14.91	3.64	-15.54	-1.5984	-0.468	-1.0747	
-0.600606	0.68381	0.469822	-16.66	3.78	-16.94	-1.6017	-0.4604	-1.0609	
-0.601216	0.666364	0.47397	-18.41	4.13	-17.5	-1.5969	-0.4636	-1.0746	
-0.608902	0.66307	0.47702	-18.83	4.13	-18.55	-1.5997	-0.4638	-1.0866	
-0.61	0.650992	0.477508	-20.09	4.27	-19.53	-1.5833	-0.4574	-1.0672	
-0.615002	0.630374	0.47763	-20.65	4.69	-20.44	-1.5981	-0.449	-1.0819	
-0.629032	0.62586	0.482266	-19.74	4.9	-22.26	-1.5738	-0.4413	-1.0792	
-0.635742	0.620248	0.485072	-20.58	4.27	-23.24	-1.5874	-0.4385	-1.0804	
-0.640988	0.61427	0.48739	-21.7	4.06	-23.8	-1.5769	-0.4443	-1.0807	
-0.651968	0.60451	0.486536	-22.89	4.41	-24.5	-1.5797	-0.443	-1.0897	
-0.657946	0.589138	0.492514	-23.8	4.48	-25.06	-1.5691	-0.4384	-1.0853	
-0.656116	0.589748	0.503372	-24.71	4.55	-26.04	-1.5705	-0.4297	-1.0911	
-0.662216	0.580964	0.504104	-27.09	5.11	-26.74	-1.5767	-0.4296	-1.0834	
-0.670512	0.566202	0.503128	-28.7	5.39	-27.37	-1.5764	-0.4195	-1.0923	
-0.67588	0.546316	0.500932	-30.52	5.46	-28	-1.5581	-0.4134	-1.0956	
-0.687958	0.528016	0.501054	-31.29	5.74	-28.77	-1.5582	-0.4029	-1.0848	
-0.70089	0.508862	0.501908	-31.36	5.74	-29.68	-1.5624	-0.4003	-1.1013	
-0.710528	0.49105	0.504958	-31.92	5.32	-30.8	-1.5413	-0.4	-1.0972	
-0.714432	0.479216	0.517158	-32.34	4.27	-31.85	-1.5486	-0.3914	-1.1044	
-0.718702	0.457134	0.520452	-33.25	3.92	-32.97	-1.5365	-0.3823	-1.0985	
-0.717848	0.436516	0.515572	-32.97	3.36	-33.81	-1.5561	-0.3737	-1.1009	
-0.721264	0.422974	0.518256	-32.34	3.43	-34.58	-1.5378	-0.3588	-1.0995	
-0.73749	0.407114	0.520574	-31.64	3.85	-35.35	-1.5439	-0.3647	-1.0995	
-0.747128	0.390522	0.526308	-30.87	3.08	-36.33	-1.5317	-0.3558	-1.0996	
-0.748104	0.377468	0.528016	-31.08	2.03	-36.96	-1.542	-0.3472	-1.1098	
-0.7564	0.363072	0.534116	-30.94	1.4	-37.94	-1.5312	-0.3279	-1.1112	
-0.757864	0.355386	0.539118	-29.75	-0.07	-38.22	-1.519	-0.3323	-1.1145	
-0.773846	0.344772	0.537044	-29.54	0.07	-38.36	-1.5176	-0.3233	-1.1083	
-0.771162	0.316468	0.545584	-30.03	-1.05	-38.01	-1.528	-0.3221	-1.1187	
-0.75701	0.294386	0.55937	-30.03	-1.82	-37.73	-1.5188	-0.3058	-1.114	
-0.75701	0.273646	0.554856	-30.03	-1.61	-38.57	-1.5216	-0.297	-1.1183	
-0.767136	0.268034	0.548146	-28.7	-1.05	-39.76	-1.5248	-0.3028	-1.1123	
-0.780434	0.259738	0.561566	-29.89	-1.68	-40.04	-1.5273	-0.29	-1.1347	
-0.771772	0.230092	0.570472	-30.73	-3.08	-39.69	-1.5244	-0.2794	-1.1225	
-0.771284	0.206302	0.573156	-30.52	-3.08	-40.11	-1.5154	-0.2852	-1.1213	
-0.778726	0.192272	0.573034	-30.38	-3.08	-40.88	-1.5229	-0.2735	-1.1209	
-0.785436	0.17751	0.578036	-30.94	-3.15	-40.95	-1.5259	-0.2691	-1.1208	
-0.781532	0.15616	0.576694	-30.94	-3.64	-40.32	-1.5214	-0.263	-1.1147	
-0.77531	0.141154	0.57645	-29.61	-3.78	-40.04	-1.5286	-0.2545	-1.1295	
-0.78751	0.12566	0.57645	-29.82	-3.43	-39.76	-1.5153	-0.2541	-1.1132	
-0.790316	0.11346	0.575352	-29.61	-4.06	-40.11	-1.5075	-0.2423	-1.1176	
-0.774578	0.103944	0.580598	-29.12	-4.62	-39.83	-1.5192	-0.222	-1.1291	
-0.771406	0.096624	0.586332	-29.68	-4.97	-38.85	-1.5239	-0.2293	-1.1231	
-0.772504	0.085278	0.592798	-31.78	-3.29	-39.13	-1.5238	-0.216	-1.1199	
-0.763964	0.062098	0.592188	-33.53	-4.13	-40.11	-1.5297	-0.2192	-1.1304	
-0.762622	0.041846	0.59353	-34.58	-3.57	-39.97	-1.5236	-0.2042	-1.1242	
-0.765184	0.025498	0.595238	-35.49	-2.31	-40.11	-1.522	-0.1865	-1.1224	
-0.762866	0.003782	0.598654	-36.61	-2.1	-40.39	-1.5128	-0.191	-1.1302	
-0.768966	-0.044774	0.604876	-37.59	-1.19	-40.04	-1.5281	-0.188	-1.1193	
-0.774456	-0.0915	0.595604	-35.98	-0.42	-39.9	-1.5155	-0.172	-1.1373	
-0.772382	-0.109434	0.59353	-33.53	0.07	-40.46	-1.5199	-0.1587	-1.137	
-0.777994	-0.117852	0.594262	-31.5	0.77	-40.81	-1.5277	-0.1571	-1.1248	
-0.773724	-0.128832	0.590968	-30.52	0.7	-40.53	-1.5216	-0.1511	-1.1233	
-0.769576	-0.150426	0.594994	-31.01	0.28	-39.27	-1.5293	-0.1452	-1.117	
-0.77836	-0.174582	0.588406	-29.96	0.56	-38.22	-1.5321	-0.1379	-1.1228	
-0.776164	-0.17385	0.581208	-28.14	0.07	-37.59	-1.538	-0.1247	-1.1225	
-0.767624	-0.170556	0.58255	-28.07	-0.63	-35.7	-1.5261	-0.1333	-1.1153	
-0.75396	-0.182146	0.584502	-28.49	-1.05	-34.09	-1.5259	-0.1216	-1.1196	
-0.756156	-0.217038	0.597434	-29.19	-0.84	-32.97	-1.5426	-0.1188	-1.1162	
-0.76006	-0.247904	0.587918	-27.86	-0.49	-33.46	-1.5228	-0.1083	-1.1194	
-0.759938	-0.250466	0.575718	-26.53	-0.98	-34.09	-1.5259	-0.1083	-1.1148	
-0.753106	-0.242292	0.565226	-26.88	-1.19	-34.93	-1.5258	-0.098	-1.1162	
-0.742004	-0.22509	0.562542	-29.26	-0.49	-36.26	-1.5408	-0.0937	-1.1188	

-0.740418	-0.285724	0.577914	-35.63	-1.4	-37.73	-1.5316	-0.0684	-1.111	
-0.733586	-0.321226	0.565592	-36.47	-1.47	-38.08	-1.5362	-0.0685	-1.1124	
-0.728828	-0.3355	0.55022	-35.91	-0.63	-38.36	-1.5498	-0.0642	-1.109	
-0.737002	-0.329522	0.533262	-36.61	0.42	-39.97	-1.5421	-0.0567	-1.1106	
-0.748714	-0.344528	0.52521	-40.25	-1.19	-39.06	-1.5483	-0.0523	-1.1043	
-0.746518	-0.381128	0.514718	-40.88	-3.43	-37.03	-1.5512	-0.039	-1.104	
-0.733098	-0.404186	0.523136	-40.32	-4.55	-35.84	-1.5482	-0.0389	-1.1011	
-0.743956	-0.46543	0.508862	-39.55	-5.67	-34.3	-1.5617	-0.0258	-1.1006	
-0.714676	-0.491294	0.516548	-35.14	-7.77	-32.55	-1.5542	-0.0197	-1.0961	
-0.692106	-0.489464	0.514352	-31.71	-7.98	-31.57	-1.5631	-0.0125	-1.0988	
-0.691008	-0.464088	0.510448	-28.56	-5.81	-30.59	-1.5585	-0.0125	-1.1019	
-0.704306	-0.467626	0.509106	-28.21	-4.34	-28.91	-1.5602	-0.0035	-1.0896	
-0.734928	-0.545828	0.546682	-27.79	-7.77	-27.09	-1.5737	0.0066	-1.0892	
-0.690764	-0.558882	0.520696	-20.3	-7.98	-25.55	-1.5706	0.017	-1.0875	
-0.663436	-0.534604	0.513742	-17.43	-7.42	-23.66	-1.5826	0.0183	-1.0933	
-0.66612	-0.515206	0.500688	-15.19	-4.2	-23.03	-1.5738	0.0171	-1.0829	
-0.676368	-0.511058	0.487634	-16.52	-2.8	-22.47	-1.583	0.0171	-1.0752	
-0.681004	-0.526918	0.523258	-17.36	-3.57	-21.35	-1.5919	0.0213	-1.084	
-0.682712	-0.584014	0.510692	-16.52	-4.97	-20.86	-1.5964	0.0243	-1.0809	
-0.657092	-0.589992	0.505934	-13.51	-4.9	-18.13	-1.5933	0.0272	-1.0854	
-0.646234	-0.583526	0.500078	-11.48	-3.99	-17.71	-1.5948	0.0286	-1.0838	
-0.650992	-0.565714	0.491416	-10.36	-2.73	-17.57	-1.5962	0.033	-1.0867	
-0.668072	-0.57279	0.48556	-10.71	-2.45	-16.45	-1.5978	0.0345	-1.0822	
-0.665144	-0.583648	0.481778	-9.73	-4.55	-15.68	-1.6011	0.0332	-1.0715	
-0.64477	-0.57645	0.491538	-8.61	-7.28	-14.35	-1.6055	0.0375	-1.0759	
-0.63074	-0.589138	0.49166	-8.54	-6.86	-13.23	-1.6071	0.0331	-1.0729	
-0.621712	-0.589138	0.493856	-7.49	-6.3	-12.04	-1.6087	0.0361	-1.0698	
-0.621224	-0.59963	0.494832	-7.56	-6.72	-11.76	-1.6083	0.0403	-1.0864	
-0.61061	-0.594018	0.502762	-6.65	-7.28	-10.29	-1.6117	0.0331	-1.0729	
-0.597556	-0.60756	0.49898	-7	-7.56	-10.29	-1.6147	0.0435	-1.0696	
-0.59963	-0.622566	0.507398	-7	-6.02	-10.36	-1.6114	0.0373	-1.0864	
-0.597068	-0.616466	0.497028	-5.6	-5.32	-10.01	-1.622	0.0521	-1.0784	
-0.59292	-0.614636	0.49715	-6.58	-5.74	-9.66	-1.6161	0.0463	-1.074	
-0.594018	-0.626348	0.499224	-6.44	-5.46	-9.73	-1.6266	0.0461	-1.0799	
-0.60146	-0.619028	0.49898	-6.09	-4.69	-9.38	-1.627	0.0465	-1.0557	
-0.601216	-0.617686	0.507276	-5.04	-4.97	-7	-1.6296	0.0401	-1.0845	
-0.584868	-0.636718	0.5063	-4.55	-6.44	-5.88	-1.6341	0.0535	-1.0751	
-0.574132	-0.651968	0.5063	-3.43	-5.6	-5.32	-1.6267	0.0462	-1.0723	
-0.582062	-0.638304	0.501908	-2.73	-4.34	-4.83	-1.6375	0.0492	-1.063	
-0.595726	-0.626104	0.50752	-2.31	-3.71	-3.29	-1.6312	0.0446	-1.0768	
-0.583038	-0.641598	0.50691	-2.45	-4.62	-0.84	-1.6326	0.052	-1.0751	
-0.569374	-0.653554	0.506422	-1.61	-4.2	0	-1.6236	0.0552	-1.0692	
-0.585112	-0.640744	0.50752	-0.28	-2.17	0	-1.6359	0.0522	-1.0645	
-0.599142	-0.639524	0.503128	0	-2.03	2.1	-1.6298	0.0463	-1.0662	
-0.587064	-0.641964	0.506056	0.7	-3.5	4.48	-1.6386	0.0549	-1.078	
-0.582428	-0.633546	0.506788	1.68	-2.73	5.74	-1.6266	0.0565	-1.0737	
-0.585844	-0.63074	0.509716	2.03	-1.82	7.63	-1.6298	0.0508	-1.0646	
-0.582794	-0.644892	0.508252	2.31	-2.38	8.96	-1.6298	0.0448	-1.0693	
-0.584258	-0.64111	0.513986	3.92	-1.68	9.66	-1.6312	0.0462	-1.0738	
-0.58316	-0.628178	0.513986	5.6	-1.19	11.27	-1.6345	0.0478	-1.0616	
-0.582672	-0.634644	0.515572	6.23	-0.63	13.23	-1.6358	0.0432	-1.0737	
-0.587064	-0.628422	0.517768	8.19	0.21	13.51	-1.6222	0.0433	-1.0725	
-0.59353	-0.625738	0.5185	9.73	0.21	14.35	-1.613	0.0478	-1.0756	
-0.589382	-0.62281	0.520086	11.48	0.35	14.98	-1.6041	0.0436	-1.0668	
-0.595604	-0.613538	0.519476	12.32	0.98	15.75	-1.607	0.0375	-1.0759	
-0.60512	-0.60024	0.52216	13.3	1.19	17.29	-1.6114	0.0388	-1.0833	
-0.60329	-0.598654	0.5246	13.86	0.35	17.71	-1.6131	0.0374	-1.0773	
-0.60268	-0.587552	0.525088	14.7	0.63	18.41	-1.6221	0.0358	-1.0802	
-0.609512	-0.587186	0.525332	15.19	1.19	19.81	-1.6055	0.0331	-1.076	
-0.612196	-0.571814	0.53009	16.38	1.4	20.65	-1.6145	0.0254	-1.088	
-0.621956	-0.56547	0.531676	16.52	2.31	20.72	-1.613	0.0299	-1.0865	
-0.620858	-0.554124	0.535702	17.64	2.31	21.49	-1.6174	0.0313	-1.0909	
-0.621102	-0.540338	0.533872	17.71	2.31	22.54	-1.6042	0.0169	-1.0778	
-0.628666	-0.54412	0.539484	17.43	2.94	23.52	-1.6009	0.0182	-1.0884	
-0.634278	-0.535824	0.54168	18.97	3.36	23.94	-1.5811	0.0138	-1.098	
-0.639036	-0.525454	0.540094	19.81	3.85	24.71	-1.5934	0.0064	-1.0918	
-0.648552	-0.512156	0.543876	20.86	4.55	25.62	-1.5964	0.0138	-1.0901	
-0.657214	-0.504104	0.545218	21.56	4.69	26.88	-1.5978	0.0033	-1.1009	
-0.661362	-0.493246	0.541924	22.19	4.55	27.79	-1.5858	0.0065	-1.0904	
-0.66551	-0.472506	0.547292	22.33	4.34	28.7	-1.5858	-0.0098	-1.0998	
-0.680638	-0.4819	0.54839	22.89	4.62	28.7	-1.5889	-0.0053	-1.0967	
-0.685518	-0.462624	0.549732	25.2	5.39	29.26	-1.5843	-0.0172	-1.106	
-0.68686	-0.440054	0.554246	25.9	4.76	28.84	-1.5723	-0.0215	-1.1003	
-0.6954	-0.421632	0.558638	26.6	4.9	28.84	-1.5708	-0.0229	-1.0988	
-0.70211	-0.405772	0.55937	28	4.9	29.89	-1.5768	-0.026	-1.1048	
-0.705526	-0.407358	0.558272	28.7	4.34	31.64	-1.5649	-0.0391	-1.0992	
-0.70821	-0.38308	0.560712	30.1	4.55	32.34	-1.5678	-0.0362	-1.1037	
-0.728828	-0.350018	0.561322	30.59	4.83	34.86	-1.5542	-0.048	-1.1087	
-0.724192	-0.32696	0.567544	31.22	3.36	36.47	-1.5542	-0.0509	-1.1102	
-0.722118	-0.305	0.586698	31.08	3.5	38.5	-1.5573	-0.0599	-1.1134	
-0.730292	-0.294386	0.58194	31.08	4.69	39.9	-1.5513	-0.0672	-1.1121	
-0.736392	-0.283894	0.586454	32.48	6.02	40.32	-1.5513	-0.0672	-1.1121	
-0.752862	-0.24766	0.576328	34.44	5.46	41.02	-1.5467	-0.0865	-1.1246	
-0.760914	-0.224114	0.576206	33.39	5.6	42.14	-1.5575	-0.0909	-1.1154	
-0.767014	-0.205448	0.579866	33.04	3.99	43.4	-1.5303	-0.101	-1.1207	
-0.769088	-0.183976	0.576572	34.51	2.59	44.66	-1.5286	-0.0997	-1.1282	
-0.768234	-0.158844	0.571936	34.44	1.96	45.08	-1.5332	-0.1041	-1.1252	
-0.778116	-0.134932	0.577182	33.95	2.17	44.73	-1.5348	-0.107	-1.1222	
-0.775554	-0.119804	0.587064	32.97	0.21	45.78	-1.5366	-0.1261	-1.1195	
-0.772748	-0.109556	0.588894	32.55	-1.47	46.41	-1.5365	-0.1247	-1.121	
-0.769088	-0.09394	0.593896	33.25	-1.75	46.34	-1.5366	-0.141	-1.1288	
-0.774212	-0.076128	0.59536	32.69	-1.12	45.71	-1.5412	-0.1455	-1.1288	
-0.775066	-0.058804	0.589626	32.41	-2.31	45.08	-1.5214	-0.1498	-1.1338	
-0.773236	-0.044408	0.59109	31.92	-2.87	44.73	-1.5381	-0.1618	-1.1367	
-0.774578	-0.035136	0.59292	32.06	-3.01	44.66	-1.5307	-0.1676	-1.1324	
-0.768722	-0.013542	0.59658	32.41	-3.22	45.08	-1.5217	-0.1719	-1.1282	
-0.772992	0.012444	0.597312	32.34	-2.73	44.73	-1.5141	-0.1808	-1.136	
-0.773236	0.030256	0.597068	33.18	-2.8	43.68	-1.5263	-0.1897	-1.1344	
-0.778482	0.046116	0.592554	33.88	-3.01	43.47	-1.5203	-0.1911	-1.1346	
-0.778726	0.068198	0.591334	33.53	-4.13	43.26	-1.5221	-0.2146	-1.1289	
-0.779336	0.090036	0.594872	32.48	-5.67	42.98	-1.5342	-0.2163	-1.1317	
-0.768234	0.116632	0.597312	32.13	-7.14	42.77	-1.5449	-0.2134	-1.1285	
-0.760548	0.138958	0.606584	30.38	-6.79	43.61	-1.5341	-0.2149	-1.1363	
-0.74969	0.162138	0.618418	27.51	-6.93	44.03	-1.5345	-0.2339	-1.126	
-0.74542	0.18727	0.612196	26.67	-6.65	42.7	-1.5404	-0.237	-1.135	
-0.745664	0.202154	0.611586	24.71	-6.16	43.19	-1.5344	-0.2563	-1.1415	
-0.74481	0.191174	0.610244	22.12	-6.16	46.55	-1.533	-0.2502	-1.1354	
-0.737124	0.183366	0.61061	21.91	-6.93	48.37	-1.5452	-0.2562	-1.1338	
-0.731512	0.216672	0.622322	22.54	-6.72	49.35	-1.55	-0.2754	-1.131	
-0.723094	0.249002	0.623176	21.98	-6.86	50.05	-1.5421	-0.2607	-1.1384	
-0.707356	0.255468	0.628788	22.33	-7.35	50.19	-1.5439	-0.2768	-1.1312	
-0.695644	0.26596	0.621102	23.66	-6.72	49.63	-1.547	-0.2753	-1.1265	
-0.706868	0.279258	0.620126	24.71	-4.83	49.21	-1.5487	-0.2915	-1.1253	
-0.711748	0.307074	0.615734	25.9	-5.04	48.23	-1.5546	-0.2977	-1.1389	
-0.69662	0.330742	0.613172	27.02	-6.86	47.46	-1.5455	-0.2931	-1.1359	
-0.679906	0.340746	0.611342	28.14	-6.51	47.39	-1.5593	-0.3154	-1.1391	
-0.674904	0.34831	0.614148	28.84	-5.18	47.46	-1.5576	-0.3142	-1.1512	
-0.671976	0.35868	0.607194	29.96	-3.85	46.27	-1.5611	-0.3197	-1.1286	
-0.67588	0.381372	0.599264	32.41	-3.08	43.47	-1.572	-0.3389	-1.1242	
-0.669658	0.406504	0.589138	34.51	-3.64	42.42	-1.575	-0.3404	-1.1257	
-0.664656	0.429928	0.589748	35.77	-4.55	42.77	-1.569	-0.3566	-1.1291	
-0.668682	0.451522	0.580964	37.03	-5.32	41.51	-1.5723	-0.3609	-1.1185	
-0.664046	0.474214	0.58072	38.01	-7.07	40.11	-1.5739	-0.3683	-1.1186	
-0.644404	0.486902	0.57035	37.03	-9.38	39.41	-1.5799	-0.3684	-1.1185	
-0.622566	0.498126	0.568642	37.73	-9.94	38.5	-1.5878	-0.3831	-1.1126	
-0.620858	0.508496	0.566568	38.43	-8.33	36.26	-1.5878	-0.3845	-1.1126	
-0.622566	0.529724	0.55754	39.27	-7.91	33.04	-1.5908	-0.4009	-1.1204	
-0.598288	0.548146	0.55266	39.55	-9.38	30.1	-1.6061	-0.4084	-1.1172	
-0.581818	0.573888	0.552172	39.62	-8.96	28.7	-1.6062	-0.4068	-1.1097	
-0.579378	0.598898	0.554002	40.88	-7.91	26.67	-1.6081	-0.4125	-1.0961	
-0.587918	0.616832	0.54351	40.46	-7.98	24.64	-1.6021	-0.4183	-1.0963	
-0.581574	0.615612	0.530944	40.04	-8.89	23.38	-1.6082	-0.4302	-1.0964	
-0.575962	0.618296	0.524966	39.13	-9.31	23.1	-1.6174	-0.4346	-1.0948	
-0.565958	0.662216	0.53375	40.74	-10.22	20.93	-1.6023	-0.4494	-1.1029	
-0.561078	0.701012	0.526796	38.22	-10.57	18.76	-1.6189	-0.4407	-1.101	
-0.55388	0.703452	0.517768	34.44	-10.29	17.57	-1.6221	-0.4524	-1.0951	
-0.534116	0.697596	0.513132	32.62	-9.94	15.05	-1.6388	-0.4599	-1.0964	
-0.5246	0.693692	0.508496	31.36	-8.96	13.23	-1.6313	-0.4643	-1.0981	
-0.516914	0.707844	0.50386	30.24	-8.05	12.53	-1.6317	-0.4669	-1.0785	
-0.520818	0.730292	0.4941	28.77	-7.42	12.53	-1.63	-0.4626	-1.0845	
-0.520818	0.728706	0.483608	26.39	-6.65	12.88	-1.6378	-0.4684	-1.0739	
-0.503494	0.732244	0.485194	24.92	-5.74	13.23	-1.6468	-0.4686	-1.0813	
-0.503006	0.741882	0.474824	23.45	-4.55	13.58	-1.6472	-0.4802	-1.0679	
-0.50996	0.74603	0.463234	21.84	-3.85	14.49	-1.6426	-0.4816	-1.068	
-0.504714	0.748104	0.470066	21.35	-4.2	14.84	-1.6456	-0.4862	-1.0741	
-0.49471	0.766648	0.467382	18.83	-4.55	14.49	-1.6442	-0.492	-1.0727	
-0.47946	0.775188	0.468114	17.15	-4.06	14	-1.652	-0.5023	-1.0637	
-0.470066	0.77897	0.46116	15.89	-3.57	12.88	-1.6551	-0.4919	-1.0574	
-0.486536	0.773724	0.461526	14.7	-1.47	11.97	-1.6535	-0.4964	-1.0635	
-0.502762	0.787754	0.466894	13.86	-1.19	11.27	-1.6504	-0.5038	-1.0683	
-0.488976	0.784216	0.459696	11.48	-2.45	10.29	-1.6551	-0.5052	-1.0637	
-0.46604	0.781776	0.46177	10.78	-1.89	10.15	-1.6612	-0.5038	-1.062	
-0.473482	0.798246	0.457988	10.15	-0.21	9.38	-1.6658	-0.5037	-1.0544	
-0.498126	0.807274	0.448472	8.33	0.63	8.54	-1.6611	-0.4979	-1.0604	
-0.496784	0.793366	0.443104	6.51	-0.63	7.49	-1.655	-0.4964	-1.0635	
-0.468724	0.78629	0.446154	6.23	-1.75	6.44	-1.6613	-0.5021	-1.0514	
-0.471652	0.805444	0.44042	6.16	-0.56	5.25	-1.6523	-0.5109	-1.0532	
-0.490562	0.810324	0.438224	4.06	0.07	4.41	-1.6674	-0.5111	-1.056	
-0.486414	0.812764	0.442982	1.75	-1.61	3.5	-1.6707	-0.5095	-1.0438	
-0.474702	0.806908	0.447374	-0.14	-1.96	2.66	-1.6586	-0.5137	-1.0426	
-0.462868	0.802516	0.45018	-1.12	-1.47	1.61	-1.681	-0.5068	-1.0556	
-0.456646	0.808372	0.447374	-2.17	-0.56	0.14	-1.6692	-0.5139	-1.0439	
-0.46421	0.812276	0.442616	-3.92	0.63	-1.12	-1.6553	-0.5095	-1.0532	
-0.464698	0.800808	0.44042	-5.04	0.63	-1.68	-1.6672	-0.5157	-1.0666	
-0.454206	0.800198	0.449082	-5.04	0.56	-2.66	-1.6688	-0.5112	-1.0605	
-0.461526	0.811666	0.449448	-5.6	1.68	-4.13	-1.6736	-0.5126	-1.0514	
-0.470798	0.818864	0.440786	-7.07	2.24	-5.32	-1.6614	-0.508	-1.05	
-0.473238	0.804834	0.441396	-8.89	2.45	-4.97	-1.6627	-0.4993	-1.0559	
-0.472262	0.79422	0.445422	-9.24	2.94	-5.53	-1.6613	-0.5022	-1.0559	
-0.472994	0.798124	0.447008	-9.03	3.22	-7	-1.6536	-0.5067	-1.0622	
-0.477508	0.801296	0.44042	-9.52	3.15	-8.61	-1.6523	-0.5065	-1.0517	
-0.479216	0.790072	0.447862	-12.04	3.36	-8.89	-1.6552	-0.5022	-1.0576	
-0.479582	0.786656	0.460306	-12.95	3.36	-10.36	-1.6564	-0.498	-1.0726	
-0.484218	0.78385	0.460916	-14.21	3.22	-12.11	-1.6462	-0.4946	-1.0485	
-0.49044	0.776042	0.462014	-15.33	3.15	-13.44	-1.6519	-0.4994	-1.0682	
-0.493002	0.76982	0.466894	-15.89	3.57	-14.49	-1.6443	-0.4949	-1.0697	
-0.500932	0.756522	0.4697	-16.8	3.85	-15.47	-1.6519	-0.4904	-1.0619	
-0.506178	0.748348	0.471042	-17.29	3.64	-16.38	-1.6488	-0.4831	-1.0634	
-0.519964	0.736148	0.470066	-18.41	3.92	-17.29	-1.6307	-0.4828	-1.0592	
-0.522282	0.722972	0.471286	-18.2	2.03	-18.55	-1.644	-0.4787	-1.0725	
-0.520452	0.71614	0.476898	-17.57	0.98	-19.53	-1.6379	-0.4773	-1.0756	
-0.524356	0.711138	0.482754	-16.8	1.19	-20.16	-1.6317	-0.4803	-1.0833	
-0.52826	0.704794	0.483364	-16.24	0.77	-21.56	-1.6303	-0.4772	-1.0787	
-0.531066	0.69296	0.483242	-15.47	1.12	-22.19	-1.6288	-0.4743	-1.0772	
-0.53741	0.690032	0.48495	-14.98	1.54	-22.05	-1.624	-0.4581	-1.0815	
-0.553148	0.68564	0.490806	-14.56	2.38	-21.98	-1.6135	-0.4652	-1.0758	
-0.55754	0.683688	0.492392	-14.56	2.17	-22.68	-1.6118	-0.461	-1.0848	
-0.559858	0.684176	0.50081	-15.47	2.31	-23.31	-1.6164	-0.455	-1.0816	
-0.568886	0.674904	0.502884	-17.15	3.15	-24.01	-1.6193	-0.4581	-1.0877	
-0.575108	0.656726	0.506178	-17.64	3.29	-24.36	-1.6236	-0.4524	-1.0966	
-0.57279	0.649772	0.50996	-17.78	3.08	-25.13	-1.6176	-0.4449	-1.0905	
-0.584014	0.642086	0.511424	-18.27	3.99	-26.39	-1.6147	-0.4477	-1.083	
-0.592432	0.63745	0.516548	-20.02	4.34	-27.3	-1.6069	-0.436	-1.092	
-0.593896	0.626104	0.521672	-21.98	4.48	-28.14	-1.6129	-0.4375	-1.0935	
-0.59902	0.623176	0.529968	-23.1	4.83	-29.26	-1.6006	-0.4272	-1.0996	
-0.616954	0.612806	0.524966	-26.04	5.81	-30.24	-1.5962	-0.4359	-1.0938	
-0.623664	0.584502	0.524478	-26.67	5.6	-31.08	-1.5899	-0.4197	-1.1011	
-0.620126	0.563518	0.532652	-26.04	4.48	-32.55	-1.5959	-0.4287	-1.1057	
-0.63928	0.55022	0.531188	-24.92	5.25	-34.23	-1.59	-0.4226	-1.0967	
-0.655262	0.54778	0.539484	-23.59	4.06	-35.91	-1.5776	-0.4019	-1.101	
-0.655384	0.540338	0.543876	-23.94	2.45	-37.17	-1.5776	-0.4123	-1.1027	
-0.649894	0.514352	0.552172	-23.8	1.82	-38.01	-1.5837	-0.4079	-1.101	
-0.657092	0.512888	0.556442	-23.17	2.73	-39.41	-1.5625	-0.3928	-1.0936	
-0.661972	0.500444	0.557174	-24.71	2.52	-40.11	-1.5652	-0.3827	-1.104	
-0.664046	0.479704	0.562298	-25.69	2.45	-40.74	-1.5621	-0.3872	-1.1101	
-0.674904	0.463356	0.561444	-26.88	2.59	-41.51	-1.571	-0.3815	-1.1189	
-0.68686	0.438102	0.568398	-27.72	2.8	-41.93	-1.5575	-0.3768	-1.1085	
-0.69479	0.423828	0.571204	-29.05	2.24	-42.91	-1.5634	-0.3666	-1.1097	
-0.709308	0.40138	0.581696	-30.17	2.38	-43.12	-1.5601	-0.346	-1.114	
-0.714066	0.379054	0.577914	-31.36	1.89	-43.89	-1.5541	-0.3607	-1.1159	
-0.70638	0.353678	0.582916	-32.9	1.33	-43.82	-1.5479	-0.337	-1.1155	
-0.710894	0.326594	0.579256	-34.16	2.66	-43.54	-1.5463	-0.3341	-1.1185	
-0.730658	0.295728	0.580964	-33.11	4.9	-43.75	-1.5446	-0.3313	-1.1261	
-0.739808	0.275354	0.587674	-32.06	3.99	-44.94	-1.555	-0.3256	-1.1318	
-0.737978	0.266326	0.580964	-31.78	3.08	-46.9	-1.5384	-0.3135	-1.1244	
-0.744688	0.25132	0.5795	-31.64	3.29	-47.25	-1.5321	-0.2943	-1.1257	
-0.7503	0.229116	0.574864	-31.29	3.22	-46.83	-1.5352	-0.3002	-1.1227	
-0.760792	0.20313	0.575474	-29.4	3.43	-46.27	-1.5397	-0.2899	-1.1239	
-0.76128	0.18788	0.585966	-28.28	2.31	-45.64	-1.541	-0.2826	-1.1268	
-0.755424	0.1769	0.592554	-28.56	1.05	-45.29	-1.5412	-0.2765	-1.1161	
-0.750788	0.16287	0.592066	-28.98	0.91	-44.66	-1.5318	-0.2663	-1.1282	
-0.756034	0.158112	0.591822	-29.47	1.47	-44.24	-1.5364	-0.2558	-1.1158	
-0.757742	0.136152	0.595238	-30.66	1.12	-44.31	-1.5256	-0.2559	-1.1281	
-0.754082	0.123342	0.598166	-30.66	0.35	-44.1	-1.5421	-0.2458	-1.1291	
-0.759084	0.121634	0.599508	-32.27	0.49	-43.12	-1.5286	-0.2411	-1.1232	
-0.757986	0.10858	0.599874	-34.93	-0.77	-42.56	-1.5302	-0.2426	-1.1202	
-0.755912	0.086376	0.605486	-35.56	-0.49	-42.42	-1.5252	-0.2221	-1.1305	
-0.75335	0.059292	0.59963	-35.63	0.21	-42.56	-1.5282	-0.2161	-1.1273	
-0.761036	0.040138	0.59292	-36.33	1.75	-42.49	-1.5295	-0.2075	-1.1362	
-0.76982	0.015616	0.593164	-36.61	2.03	-42.14	-1.522	-0.2028	-1.1287	
-0.770064	-0.0061	0.594994	-36.61	1.68	-42.14	-1.5281	-0.194	-1.1239	
-0.761646	-0.031354	0.605486	-38.5	0.42	-41.93	-1.525	-0.1955	-1.1285	
-0.79727	-0.06771	0.574376	-36.89	0.91	-43.4	-1.5217	-0.1779	-1.1343	
-0.79788	-0.108702	0.574254	-36.89	-1.05	-45.71	-1.525	-0.1746	-1.1161	
-0.785436	-0.146156	0.591334	-35.07	-2.8	-45.71	-1.5293	-0.163	-1.1218	
-0.757742	-0.14762	0.604022	-31.71	-2.66	-46.34	-1.5366	-0.1589	-1.1367	
-0.74481	-0.142862	0.59841	-30.45	0.49	-50.75	-1.5305	-0.141	-1.1274	
-0.7625	-0.144448	0.59353	-32.2	4.34	-53.48	-1.5247	-0.1541	-1.1232	
-0.775554	-0.153354	0.583648	-33.53	4.55	-52.71	-1.5304	-0.1366	-1.1304	
-0.76616	-0.177632	0.586454	-35.07	0.98	-50.47	-1.5276	-0.1334	-1.1183	
-0.739686	-0.208376	0.593896	-36.26	-1.26	-49.35	-1.5396	-0.1247	-1.1194	
-0.7259	-0.25254	0.59719	-37.8	-1.19	-45.29	-1.535	-0.1113	-1.1162	
-0.718824	-0.280966	0.585844	-37.31	-0.14	-41.3	-1.5272	-0.0936	-1.1176	
-0.731512	-0.298412	0.57706	-37.38	1.4	-38.22	-1.5379	-0.0966	-1.1174	
-0.724192	-0.30256	0.591456	-36.89	0.91	-37.38	-1.5408	-0.0893	-1.1157	
-0.734074	-0.335378	0.570594	-37.31	1.33	-36.4	-1.5377	-0.0744	-1.1125	
-0.728828	-0.356972	0.559858	-36.12	2.52	-33.88	-1.5514	-0.0731	-1.1122	
-0.732122	-0.363072	0.54534	-34.65	4.55	-33.88	-1.5363	-0.0713	-1.1064	
-0.739564	-0.356484	0.532042	-33.04	5.11	-34.16	-1.5317	-0.055	-1.1017	
-0.734684	-0.362096	0.54107	-33.39	3.71	-33.53	-1.5499	-0.0492	-1.0982	
-0.745176	-0.404552	0.521428	-32.76	3.15	-32.9	-1.5557	-0.0436	-1.1086	
-0.729926	-0.414922	0.511058	-29.47	1.47	-32.41	-1.539	-0.0449	-1.1074	
-0.72712	-0.412482	0.51789	-27.51	0.77	-31.29	-1.5495	-0.0287	-1.1054	
-0.723582	-0.405406	0.512766	-27.65	0.91	-29.26	-1.5465	-0.0227	-1.1008	
-0.727608	-0.413702	0.503128	-28.35	0.07	-27.72	-1.5648	-0.0243	-1.0959	
-0.718336	-0.414312	0.48007	-28.7	-2.24	-26.88	-1.5557	-0.0197	-1.0945	
-0.74542	-0.467504	0.512034	-33.74	-5.18	-25.34	-1.5648	-0.0094	-1.0911	
-0.732	-0.49959	0.489708	-32.34	-6.23	-26.11	-1.5753	-0.0036	-1.0893	
-0.726022	-0.495076	0.48007	-31.92	-8.61	-25.83	-1.559	-0.018	-1.0808	
-0.713822	-0.473116	0.471042	-30.66	-8.33	-25.27	-1.5814	0.0007	-1.0876	
-0.692228	-0.471652	0.510448	-32.48	-10.5	-22.96	-1.5782	0.011	-1.089	
-0.723094	-0.573522	0.498492	-35.14	-10.92	-21.77	-1.5723	0.0172	-1.0784	
-0.683444	-0.573644	0.478484	-27.58	-11.9	-20.79	-1.5907	0.0201	-1.069	
-0.680638	-0.559736	0.4758	-27.09	-10.29	-18.69	-1.5815	0.0261	-1.0675	
-0.677344	-0.538264	0.477386	-24.85	-8.12	-16.45	-1.586	0.026	-1.0704	
-0.674782	-0.547902	0.473116	-26.11	-7.91	-14.42	-1.592	0.0273	-1.0764	
-0.670024	-0.565348	0.481168	-24.85	-7.56	-13.37	-1.5798	0.0349	-1.0719	
-0.66612	-0.599752	0.466406	-24.08	-8.82	-12.74	-1.5815	0.0306	-1.0659	
-0.657824	-0.61427	0.447618	-21.14	-7.98	-11.27	-1.592	0.0348	-1.0702	
-0.664534	-0.599386	0.4514	-19.74	-6.09	-11.2	-1.5874	0.0363	-1.0702	
-0.66429	-0.602192	0.447984	-19.81	-6.72	-11.2	-1.5981	0.0423	-1.0624	
-0.652822	-0.613904	0.4453	-19.25	-8.82	-9.94	-1.5981	0.0482	-1.0607	
-0.646966	-0.630374	0.454938	-16.66	-8.96	-9.38	-1.6056	0.0585	-1.0589	
-0.642574	-0.636962	0.456768	-11.13	-9.1	-8.89	-1.6009	0.048	-1.0713	
-0.622688	-0.626348	0.449692	-7.42	-8.96	-8.61	-1.5993	0.0553	-1.0727	
-0.617076	-0.624274	0.460062	-10.78	-10.22	-8.33	-1.6071	0.0629	-1.0603	
-0.611098	-0.638182	0.451644	-9.94	-9.38	-8.47	-1.613	0.0567	-1.0724	
-0.616466	-0.638304	0.45384	-10.85	-9.87	-8.68	-1.6116	0.0658	-1.0587	
-0.618052	-0.642086	0.468236	-8.96	-9.87	-8.68	-1.607	0.0628	-1.0633	
-0.611586	-0.660996	0.468236	-8.61	-10.92	-8.4	-1.6145	0.0552	-1.0709	
-0.591578	-0.66307	0.46665	-6.93	-11.2	-7.49	-1.6087	0.0674	-1.0542	
-0.583526	-0.656116	0.474214	-6.02	-10.5	-7	-1.627	0.0554	-1.0525	
-0.588162	-0.671854	0.471042	-6.72	-9.1	-7.84	-1.6177	0.0702	-1.0539	
-0.587918	-0.660996	0.467748	-5.46	-8.33	-6.51	-1.6299	0.0612	-1.0569	
-0.589504	-0.662948	0.471774	-5.11	-7.84	-4.41	-1.6209	0.0629	-1.051	
-0.581696	-0.67039	0.469212	-4.13	-7.14	-4.34	-1.6297	0.0685	-1.0628	
-0.583526	-0.669048	0.471408	-3.36	-6.72	-2.8	-1.6285	0.0733	-1.0431	
-0.579622	-0.669414	0.469822	-2.31	-6.02	-2.03	-1.6329	0.0761	-1.0505	
-0.581086	-0.665998	0.474092	-1.68	-5.25	-1.68	-1.6282	0.0656	-1.0614	
-0.577548	-0.665388	0.471042	-0.35	-4.9	-0.84	-1.6361	0.0598	-1.0507	
-0.574742	-0.670512	0.474214	0.21	-4.69	-0.35	-1.6466	0.07	-1.0504	
-0.571692	-0.671122	0.47397	1.47	-4.06	-0.21	-1.642	0.067	-1.055	
-0.575718	-0.663314	0.472872	1.89	-3.43	0.14	-1.6254	0.0673	-1.0508	
-0.580232	-0.666242	0.474824	2.1	-3.43	0.56	-1.6283	0.07009999	-1.0568	
-0.579988	-0.67039	0.4758	3.36	-3.36	0.07	-1.6375	0.07009999	-1.052	
-0.579012	-0.6649	0.476654	4.69	-3.36	1.26	-1.6282	0.07009999	-1.0583	
-0.576084	-0.663192	0.48434	4.76	-3.5	2.24	-1.6326	0.0758	-1.0656	
-0.57584	-0.656604	0.48312	6.3	-3.08	2.45	-1.6389	0.0715	-1.055	
-0.577426	-0.653554	0.48678	6.86	-3.36	3.85	-1.6223	0.0628	-1.057	
-0.57584	-0.660752	0.492148	7.42	-3.5	4.62	-1.6312	0.067	-1.0613	
-0.57462	-0.655018	0.495076	8.68	-3.08	5.95	-1.636	0.0523	-1.06	
-0.576328	-0.645502	0.495198	9.87	-2.03	7	-1.6375	0.0553	-1.0553	
-0.57706	-0.638914	0.498248	10.08	-2.17	7.56	-1.6313	0.0626	-1.0629	
-0.582184	-0.637816	0.499224	10.71	-1.54	8.26	-1.6342	0.0685	-1.0627	
-0.581208	-0.635376	0.503128	11.55	-1.61	9.17	-1.6329	0.0597	-1.0599	
-0.580842	-0.627812	0.502152	11.69	-1.68	9.94	-1.6343	0.0551	-1.0675	
-0.587796	-0.622444	0.502762	11.76	-1.4	10.5	-1.636	0.0582	-1.0553	
-0.596824	-0.62037	0.504714	11.9	-1.33	10.85	-1.6267	0.0611	-1.0645	
-0.594628	-0.612928	0.507154	12.95	-2.1	11.97	-1.6297	0.0581	-1.066	
-0.5856	-0.613172	0.516792	12.81	-3.43	13.16	-1.6284	0.0449	-1.0648	
-0.587918	-0.610976	0.51972	13.51	-1.82	12.74	-1.622	0.0446	-1.0815	
-0.595604	-0.593286	0.522404	14.63	-0.56	12.95	-1.6205	0.0461	-1.0815	
-0.597922	-0.57645	0.525088	14.91	-0.28	14.07	-1.6327	0.0476	-1.0767	
-0.599508	-0.576084	0.526796	15.19	-0.49	14.14	-1.6131	0.0449	-1.0696	
-0.599142	-0.57584	0.526796	15.89	0.07	13.79	-1.6148	0.0302	-1.0698	
-0.60878	-0.564372	0.527406	15.96	1.19	14.35	-1.6267	0.0254	-1.0818	
-0.617198	-0.552416	0.538142	16.17	0.7	15.26	-1.6191	0.0388	-1.0786	
-0.619028	-0.55815	0.536556	15.68	0.21	15.19	-1.6175	0.0329	-1.0833	
-0.619272	-0.548878	0.538508	16.24	0.42	16.45	-1.6132	0.0152	-1.0822	
-0.617442	-0.535824	0.549488	16.59	0.14	17.29	-1.6086	0.0227	-1.0791	
-0.620614	-0.531432	0.545096	16.45	0.77	17.01	-1.6132	0.0152	-1.0837	
-0.630374	-0.527284	0.55083	16.24	1.26	17.64	-1.6039	0.0196	-1.0914	
-0.639646	-0.518744	0.546682	16.8	1.12	18.34	-1.6085	0.0211	-1.0837	
-0.642696	-0.505446	0.55083	17.15	0.84	18.9	-1.6023	0.0136	-1.096	
-0.646112	-0.501908	0.563274	17.29	-0.42	19.6	-1.613	0.0165	-1.0928	
-0.63318	-0.495076	0.565104	17.57	-1.47	19.53	-1.6098	0.0045	-1.1051	
-0.636596	-0.480192	0.569008	17.43	0.07	21.07	-1.6011	0.0064	-1.0871	
-0.648064	-0.477142	0.578158	17.36	0.98	21.98	-1.5962	0.0092	-1.0993	
-0.649528	-0.463356	0.571814	18.55	1.75	22.12	-1.5963	0.0003	-1.0994	
-0.657702	-0.450058	0.577182	17.5	2.8	22.96	-1.5949	-0.0039	-1.098	
-0.666608	-0.448716	0.58011	17.36	2.52	23.31	-1.5951	-0.0023	-1.0859	
-0.676124	-0.446154	0.578524	17.78	2.45	24.22	-1.6008	-0.0175	-1.1102	
-0.669292	-0.423584	0.57889	19.04	1.61	24.92	-1.5935	-0.0217	-1.1014	
-0.67405	-0.409066	0.58865	18.62	1.05	25.83	-1.5753	-0.0215	-1.1017	
-0.674782	-0.399794	0.590968	19.18	1.82	26.46	-1.5875	-0.0245	-1.1	
-0.682468	-0.401624	0.59353	18.9	1.54	26.74	-1.5751	-0.0217	-1.1123	
-0.690642	-0.388692	0.59231	19.88	1.47	27.37	-1.5889	-0.035	-1.1093	
-0.691496	-0.362706	0.603046	20.58	2.17	28	-1.5798	-0.0349	-1.1079	
-0.70028	-0.350262	0.612074	20.44	2.59	28.56	-1.5693	-0.0363	-1.1051	
-0.704184	-0.345016	0.601704	20.93	3.08	29.12	-1.5829	-0.0468	-1.1111	
-0.706136	-0.32696	0.601582	21.63	3.71	29.4	-1.5815	-0.0497	-1.1067	
-0.718092	-0.30744	0.599142	23.1	4.9	29.33	-1.5753	-0.0453	-1.1143	
-0.713944	-0.27999	0.599386	25.55	3.99	29.75	-1.5739	-0.0511	-1.1083	
-0.717116	-0.282796	0.609024	24.99	3.78	29.96	-1.5648	-0.0748	-1.121	
-0.7198	-0.271938	0.601338	26.6	3.57	29.54	-1.5604	-0.0673	-1.1134	
-0.726388	-0.249978	0.613172	29.26	5.95	29.82	-1.5557	-0.0807	-1.1243	
-0.730902	-0.229848	0.599874	29.68	6.02	28.7	-1.5619	-0.0792	-1.1212	
-0.742126	-0.213744	0.60756	27.65	6.44	28.14	-1.5423	-0.0834	-1.1171	
-0.75213	-0.225456	0.605364	26.74	5.67	28.14	-1.5636	-0.0894	-1.1138	
-0.754204	-0.21167	0.595726	29.4	6.16	27.23	-1.5497	-0.0866	-1.1261	
-0.754936	-0.183854	0.599874	29.75	6.51	26.6	-1.5516	-0.1071	-1.1189	
-0.754936	-0.161406	0.60024	30.03	6.02	25.62	-1.5469	-0.1101	-1.125	
-0.760182	-0.149938	0.603778	28.91	6.3	24.29	-1.5468	-0.1087	-1.1311	
-0.764208	-0.141276	0.606828	28.91	7	23.17	-1.5334	-0.1173	-1.1224	
-0.763232	-0.13298	0.61	29.68	6.09	22.61	-1.5396	-0.1262	-1.1194	
-0.761646	-0.12505	0.604388	30.24	6.65	21.63	-1.5366	-0.1351	-1.1242	
-0.76616	-0.11224	0.607072	30.38	7.98	20.37	-1.5379	-0.1368	-1.1363	
-0.77775	-0.093086	0.603168	29.33	8.12	19.11	-1.5291	-0.1379	-1.1229	
-0.777384	-0.078812	0.59719	29.96	7.49	17.99	-1.5322	-0.1543	-1.1276	
-0.767746	-0.069906	0.610122	28.56	6.93	17.01	-1.538	-0.1441	-1.1319	
-0.78446	-0.079788	0.600484	28.56	7.84	16.52	-1.5291	-0.1617	-1.1324	
-0.785192	-0.069296	0.595238	28.98	7.91	14.49	-1.5259	-0.1588	-1.1384	
-0.791658	-0.042456	0.596702	29.4	8.26	13.02	-1.535	-0.1589	-1.1382	
-0.790438	-0.020984	0.604876	28.21	7.42	12.46	-1.5338	-0.1631	-1.1278	
-0.797392	-0.036478	0.598776	28.42	7.63	12.67	-1.5248	-0.1793	-1.1282	
-0.788608	-0.031354	0.594628	29.89	6.65	11.69	-1.5187	-0.1823	-1.1344	
-0.788974	0.00061	0.597068	30.24	7.42	11.34	-1.5263	-0.1853	-1.1328	
-0.798002	0.02074	0.599508	28.91	7.63	11.76	-1.5326	-0.1911	-1.1238	
-0.797148	0.021838	0.59292	28.14	6.16	12.04	-1.5219	-0.1836	-1.1253	
-0.787144	0.013786	0.592066	27.79	4.83	11.97	-1.5204	-0.2014	-1.1317	
-0.782996	0.030744	0.597922	27.3	4.97	11.83	-1.5147	-0.213	-1.123	
-0.793854	0.052216	0.595726	25.83	5.67	11.69	-1.5084	-0.2057	-1.1321	
-0.7991	0.066734	0.589748	24.57	4.69	10.99	-1.5146	-0.2115	-1.123	
-0.790072	0.065636	0.59048	22.75	2.73	11.48	-1.5191	-0.2235	-1.1337	
-0.78202	0.056852	0.601094	21.42	2.17	12.53	-1.5118	-0.2202	-1.1171	
-0.793122	0.072834	0.601704	21.07	4.13	12.18	-1.5116	-0.2264	-1.1324	
-0.800198	0.120414	0.592066	20.44	4.76	12.25	-1.5194	-0.2322	-1.1248	
-0.805078	0.154208	0.593408	16.38	3.85	13.51	-1.5105	-0.2364	-1.1159	
-0.788608	0.142008	0.595726	11.97	2.52	14.84	-1.5163	-0.2322	-1.1248	
-0.789462	0.132126	0.595848	10.85	3.43	14.84	-1.5146	-0.2338	-1.1355	
-0.794708	0.145302	0.591212	9.87	3.22	14.7	-1.5044	-0.2319	-1.113	
-0.788852	0.156282	0.588894	7.56	2.52	14.91	-1.5181	-0.2454	-1.119	
-0.80093	0.167628	0.58621	5.04	2.87	14.14	-1.5135	-0.2588	-1.1284	
-0.79666	0.186782	0.58804	3.29	2.52	13.51	-1.5167	-0.2542	-1.1177	
-0.805688	0.177754	0.589382	0.98	2.52	13.58	-1.5195	-0.2395	-1.1189	
-0.799832	0.158356	0.590968	0.98	1.75	15.47	-1.5104	-0.2439	-1.1252	
-0.798978	0.159332	0.584014	-0.7	2.17	17.01	-1.5059	-0.2468	-1.1238	
-0.803736	0.157258	0.58194	-1.61	3.01	16.38	-1.509	-0.2542	-1.1223	
-0.79788	0.149816	0.58011	-2.1	1.89	15.05	-1.509	-0.2632	-1.1301	
-0.79239	0.1464	0.58133	-3.85	2.52	14.56	-1.5119	-0.247	-1.1282	
-0.807152	0.147742	0.583404	-3.22	3.57	13.51	-1.5091	-0.2512	-1.1178	
-0.802882	0.148718	0.580354	-1.61	2.1	12.32	-1.512	-0.2498	-1.1222	
-0.797514	0.145668	0.584014	-1.75	1.75	11.41	-1.5122	-0.2616	-1.1194	
-0.79239	0.150548	0.586088	0.28	1.89	10.08	-1.5091	-0.2571	-1.1194	
-0.800442	0.165554	0.582184	1.68	2.1	8.47	-1.5134	-0.2514	-1.1298	
-0.809836	0.19215	0.579988	0.91	1.82	6.51	-1.5135	-0.2587	-1.1269	
-0.804102	0.202642	0.577792	0.14	0.28	5.81	-1.5091	-0.2527	-1.1193	
-0.796294	0.189466	0.58011	-2.1	-0.42	6.23	-1.5047	-0.2539	-1.1103	
-0.789462	0.170922	0.575596	-2.8	-0.42	6.3	-1.5091	-0.2571	-1.1209	
-0.788608	0.176778	0.578768	-2.66	0.14	4.69	-1.5137	-0.2481	-1.1101	
-0.798734	0.185318	0.577914	-4.13	1.61	3.15	-1.5076	-0.263	-1.1225	
-0.81313	0.153232	0.568642	-7.07	0.91	6.02	-1.5165	-0.2588	-1.1298	
-0.833992	0.120048	0.584746	-9.17	-1.82	9.52	-1.5046	-0.2541	-1.1179	
-0.79788	0.123952	0.578768	-3.15	-7.77	11.06	-1.509	-0.2408	-1.1161	
-0.763598	0.161772	0.588894	-5.32	-5.88	9.59	-1.5135	-0.2528	-1.1253	
-0.792024	0.169214	0.58255	-4.76	0.77	10.15	-1.5059	-0.2602	-1.1286	
-0.822768	0.163846	0.565226	-5.46	-1.54	10.99	-1.5108	-0.2555	-1.1118	
-0.81069	0.17202	0.573522	-4.83	-5.46	9.24	-1.5166	-0.2617	-1.1238	
-0.777384	0.185684	0.595116	-3.78	-9.03	10.36	-1.5119	-0.2514	-1.1283	
-0.764086	0.189222	0.620736	-3.57	-8.75	8.54	-1.5178	-0.2516	-1.1357	
-0.76128	0.197152	0.624152	-4.06	-7.42	4.13	-1.5181	-0.2558	-1.1252	
-0.775188	0.167628	0.61183	-3.92	-5.32	1.96	-1.5226	-0.2619	-1.1313	
-0.785436	0.168116	0.596092	-2.24	-2.73	0.77	-1.5211	-0.2558	-1.1237	
-0.815204	0.200934	0.572424	-0.91	-0.91	-5.04	-1.5212	-0.2588	-1.1237	
-0.8235	0.215086	0.55632	-2.03	-3.78	-11.48	-1.5181	-0.2513	-1.1191	
-0.794952	0.185928	0.576694	-3.92	-5.81	-9.17	-1.5181	-0.2573	-1.1268	
-0.815204	0.150792	0.562908	-3.43	-2.66	-6.72	-1.53	-0.2487	-1.1309	
-0.812886	0.14396	0.562908	-1.68	-1.4	-7	-1.512	-0.2484	-1.1237	
-0.7808	0.153354	0.57706	-2.17	-4.55	-6.09	-1.5135	-0.2588	-1.1299	
-0.792634	0.171166	0.596946	-2.31	0.28	-5.53	-1.5149	-0.2529	-1.1298	
-0.784948	0.166774	0.61549	-3.43	1.05	-4.9	-1.5226	-0.2514	-1.122	
-0.754448	0.131272	0.614026	-3.43	1.12	-2.17	-1.518	-0.2499	-1.1236	
-0.784338	0.120536	0.593042	-0.49	5.25	-0.35	-1.5194	-0.2411	-1.1279	
-0.772626	0.163358	0.607194	-4.13	5.39	-3.92	-1.5317	-0.2515	-1.1219	
-0.767746	0.209596	0.611586	-3.85	4.34	-9.38	-1.5137	-0.2452	-1.113	
-0.804834	0.228262	0.579378	-10.57	1.33	-13.72	-1.5179	-0.2426	-1.1265	
-0.851682	0.21533	0.57279	-21.84	4.2	-11.76	-1.5122	-0.2482	-1.1131	
-0.812642	0.164456	0.593042	-19.53	-2.94	-1.61	-1.53	-0.2398	-1.1277	
-0.763232	0.1159	0.605364	-20.58	-4.2	3.85	-1.5223	-0.2353	-1.1293	
-0.75152	0.132736	0.605242	-20.16	-0.98	0.49	-1.5087	-0.2292	-1.1264	
-0.757376	0.157746	0.620126	-23.8	2.31	1.05	-1.5193	-0.2308	-1.1247	
-0.768966	0.146034	0.603778	-25.69	4.48	6.23	-1.5225	-0.2292	-1.1171	
-0.775798	0.137982	0.604266	-29.12	6.09	11.62	-1.5177	-0.2219	-1.1276	
-0.77775	0.15311	0.599752	-32.27	7	14.14	-1.5239	-0.2248	-1.12	
-0.798734	0.16043	0.59231	-39.34	8.75	16.87	-1.5071	-0.2174	-1.1262	
-0.803614	0.165432	0.581452	-46.2	7.35	21	-1.5163	-0.2099	-1.1169	
-0.804834	0.159698	0.578646	-51.45	8.33	26.67	-1.5071	-0.204	-1.1169	
-0.8174	0.143106	0.570594	-57.54	9.87	31.71	-1.5071	-0.2055	-1.12	
-0.824232	0.119316	0.563518	-61.46	9.38	34.02	-1.5117	-0.1965	-1.1092	
-0.826672	0.10187	0.564982	-64.26	8.12	36.12	-1.51	-0.1937	-1.1197	
-0.815204	0.076006	0.567788	-67.06	7.91	40.46	-1.504	-0.1817	-1.1105	
-0.809958	0.06466	0.568764	-67.27	7.77	42.7	-1.5054	-0.1788	-1.1135	
-0.818376	0.053192	0.566324	-67.06	8.47	43.26	-1.4991	-0.17	-1.121	
-0.819962	0.06039	0.56547	-67.55	8.54	42.49	-1.496	-0.1641	-1.121	
-0.813374	0.074786	0.56608	-68.04	7.49	42	-1.4948	-0.1593	-1.1028	
-0.812764	0.070272	0.567056	-69.86	8.26	41.86	-1.4886	-0.1505	-1.1073	
-0.826306	0.076128	0.567788	-71.61	10.71	42.56	-1.4854	-0.1461	-1.1103	
-0.817034	0.077592	0.574742	-74.2	10.29	43.26	-1.4917	-0.146	-1.1011	
-0.821182	0.061122	0.567422	-75.67	10.64	43.4	-1.4842	-0.1444	-1.0966	
-0.829478	0.045018	0.56059	-73.22	11.55	42.35	-1.4777	-0.1283	-1.1086	
-0.821426	0.039528	0.562542	-73.29	9.8	43.96	-1.4766	-0.1264	-1.0859	
-0.810934	0.043432	0.56303	-73.08	10.08	44.1	-1.472	-0.1145	-1.0827	
-0.829722	0.033794	0.559492	-71.89	12.67	42.35	-1.4734	-0.1117	-1.0887	
-0.827282	0.033794	0.553392	-69.09	11.69	39.62	-1.4704	-0.1028	-1.0841	
