Sensor string: E
Serial number: 1970-01-0000
Firmware version: 2.015
Hardware version: 2.2
Calibration quality: 5
ax	ay	az	gx	gy	gz	mx	my	mz

-0.92537	0.063562	0.404308	-2.24	3.43	0.7	0.3405	0.0775	-0.4126	Reference
-0.926712	0.05307	0.40077	-6.09	2.45	1.61	0.3498	0.0743	-0.4063	
-0.939888	0.055388	0.391742	-7.42	1.54	0.98	0.345	0.0803	-0.4158	
-0.936838	0.06039	0.396134	-9.17	0.91	1.33	0.3497	0.0788	-0.4158	
-0.92659	0.036722	0.407358	-8.68	0.63	2.66	0.337	0.0916	-0.4067	
-0.914756	0.036234	0.412848	-6.37	0.28	2.87	0.3572	0.0827	-0.4128	
-0.910486	0.034648	0.418948	-5.25	0.35	2.8	0.3493	0.0929	-0.4162	
-0.901946	0.028182	0.421388	-2.17	0.49	2.31	0.3419	0.083	-0.4096	
-0.906704	0.032574	0.41968	0	0.07	0.35	0.3525	0.087	-0.4098	
-0.915488	0.041724	0.416508	1.96	0.14	-1.05	0.3434	0.0843	-0.4066	
-0.919148	0.055022	0.41419	1.96	-0.21	-1.26	0.3417	0.0887	-0.4082	
-0.92598	0.06954	0.406138	1.54	-0.14	-0.98	0.3495	0.0829	-0.4097	
-0.932812	0.069418	0.394914	-0.35	0.35	0.84	0.3418	0.0845	-0.4128	
-0.940742	0.047824	0.37698	0.14	-0.14	1.4	0.3402	0.0889	-0.416	
-0.951844	0.051118	0.36722	-2.1	-1.61	1.82	0.3544	0.0775	-0.4251	
-0.935252	0.052826	0.363438	-1.61	-3.92	3.01	0.3418	0.0844	-0.4081	
-0.947696	0.059658	0.347822	-2.17	-7	3.01	0.3355	0.0902	-0.4083	
-0.955382	0.0732	0.33306	-5.6	-11.13	3.57	0.345	0.0815	-0.408	
-0.962946	0.05124	0.317078	-4.2	-16.87	4.69	0.3403	0.0862	-0.4191	
-0.967826	0.05917	0.314638	-2.87	-24.99	3.43	0.3387	0.08769999	-0.4207	
-0.97539	0.055998	0.31415	-2.59	-32.62	2.17	0.3311	0.0865	-0.4237	
-0.973316	0.056852	0.313174	-3.43	-40.18	1.05	0.3173	0.08679999	-0.4205	
-0.972218	0.05429	0.317444	-2.94	-46.9	0.07	0.3281	0.08549999	-0.4346	
-0.97417	0.042212	0.329766	-3.08	-55.79	-0.35	0.3157	0.08859999	-0.433	
-0.999546	0.038064	0.335866	-2.38	-63	-1.33	0.3037	0.0805	-0.4374	
-0.962458	0.048312	0.376858	-3.85	-72.66	-2.66	0.2944	0.0838	-0.4468	
-0.93574	0.058438	0.433344	-6.37	-77.91	-3.92	0.2822	0.0829	-0.4545	
-0.937326	0.059536	0.462502	-10.78	-77.84	-4.97	0.2698	0.0875	-0.4546	
-0.84729	0.039772	0.490196	-14.14	-79.59	-6.58	0.2542	0.0994	-0.4611	
-0.802028	0.03477	0.50264	-13.58	-76.58	-7.35	0.2423	0.0887	-0.4763	
-0.78263	0.016958	0.502152	-9.87	-76.02	-7.21	0.2327	0.1034	-0.4844	
-0.74481	0.01708	0.534604	-7.84	-75.67	-6.3	0.2204	0.102	-0.475	
-0.728828	0.02257	0.583892	-9.59	-75.88	-3.43	0.2114	0.0967	-0.481	
-0.711626	0.013908	0.628178	-6.37	-73.99	-0.91	0.202	0.1027	-0.4858	
-0.736514	0.018422	0.701256	-5.88	-74.06	0	0.1882	0.1062	-0.4952	
-0.697108	0.028182	0.740906	-4.76	-72.03	0.14	0.1682	0.1068	-0.5013	
-0.653066	0.009516	0.757986	-6.23	-69.93	0.63	0.1466	0.1087	-0.4966	
-0.641476	0.005368	0.739686	-5.95	-67.97	-0.28	0.1469	0.1003	-0.501	
-0.607804	-0.005246	0.742248	-7.28	-67.34	-1.05	0.1376	0.1031	-0.4933	
-0.59231	0.008174	0.760182	-5.88	-65.87	-3.15	0.1254	0.101	-0.5087	
-0.559736	0.008296	0.784704	-5.18	-65.94	-3.22	0.1145	0.1099	-0.5136	
-0.543754	0.013054	0.806176	-6.3	-63.42	-3.29	0.0989	0.1172	-0.5075	
-0.551074	0.0122	0.789706	-5.46	-63.91	-3.22	0.07759999	0.1093	-0.5072	
-0.535458	0.011346	0.77287	-6.65	-65.59	-3.43	0.0914	0.1089	-0.5057	
-0.474702	-0.000854	0.797758	-8.26	-65.52	-3.22	0.07	0.1084	-0.5196	
-0.434686	-0.002806	0.839848	-9.59	-63.98	-3.78	0.0638	0.1112	-0.5134	
-0.439444	-0.000854	0.85034	-10.99	-63.14	-4.06	0.0422	0.1129	-0.504	
-0.421266	-0.008784	0.836188	-11.2	-64.26	-4.48	0.0345	0.1145	-0.5056	
-0.371002	-0.025132	0.85644	-10.01	-65.24	-5.18	0.0206	0.1131	-0.493	
-0.35014	-0.039406	0.861808	-8.75	-64.19	-5.6	0.0038	0.1139	-0.507	
-0.329766	-0.045018	0.869982	-6.37	-63.63	-6.16	0.0007	0.1157	-0.5163	
-0.31293	-0.045628	0.902922	-2.73	-62.65	-6.09	-0.019	0.1088	-0.5067	
-0.300364	-0.052338	0.924882	-1.61	-62.09	-6.16	-0.0177	0.1172	-0.5023	
-0.278526	-0.034038	0.960506	-0.56	-61.46	-5.53	-0.03	0.1162	-0.5068	
-0.238022	-0.036112	0.977586	0.21	-59.15	-4.76	-0.0364	0.1276	-0.5025	
-0.236314	-0.03721	0.983686	1.12	-53.2	-4.41	-0.0531	0.1194	-0.499	
-0.215086	-0.032452	0.979782	1.19	-49.77	-4.13	-0.0684	0.1171	-0.5036	
-0.188612	-0.024522	0.986126	0.84	-46.55	-3.5	-0.0746	0.1216	-0.5083	
-0.196054	-0.02379	0.971608	-0.91	-44.17	-3.22	-0.079	0.11	-0.4924	
-0.17507	-0.015372	0.964532	-2.66	-43.61	-3.29	-0.0762	0.123	-0.5053	
-0.146278	-0.01891	0.97295	-4.69	-42	-3.22	-0.0867	0.1116	-0.4955	
-0.13115	-0.035746	0.988688	-5.11	-38.57	-2.8	-0.0992	0.1175	-0.4925	
-0.139446	-0.035014	0.988322	-4.48	-35.42	-2.31	-0.0992	0.122	-0.5004	
-0.131272	-0.042456	0.983808	-5.18	-35.35	-2.24	-0.1161	0.1178	-0.4846	
-0.116998	-0.05429	0.982954	-4.9	-35.07	-2.17	-0.1193	0.1222	-0.4894	
-0.115046	-0.052826	0.970998	-3.92	-34.72	-2.52	-0.119	0.1136	-0.4861	
-0.089182	-0.05551	0.97173	-3.78	-35.77	-2.66	-0.127	0.1251	-0.4848	
-0.071614	-0.055876	0.97966	-3.43	-35.21	-2.87	-0.1284	0.1194	-0.48	
-0.060268	-0.055388	0.996496	-2.87	-34.37	-3.22	-0.1483	0.1153	-0.4688	
-0.047946	-0.063806	1.007598	-2.38	-33.81	-4.2	-0.1408	0.1211	-0.4799	
-0.02867	-0.06588	1.022726	-1.4	-32.9	-4.62	-0.1515	0.1198	-0.4767	
-0.015616	-0.061366	1.0248	-0.56	-31.29	-4.48	-0.1517	0.1269	-0.4754	
-0.002074	-0.0549	1.024312	-0.42	-29.4	-3.99	-0.1624	0.1243	-0.4753	
0.012688	-0.054778	1.021628	-0.42	-27.44	-3.43	-0.1731	0.1229	-0.4643	
0.021228	-0.053558	1.018212	-0.7	-24.36	-3.08	-0.17	0.1216	-0.4705	
0.021838	-0.052216	1.010282	-0.49	-22.12	-3.15	-0.1718	0.1284	-0.4613	
0.032574	-0.04819	1.012234	-0.7	-20.65	-3.01	-0.1808	0.1217	-0.4657	
0.031476	-0.041602	1.012844	-1.12	-19.11	-2.52	-0.176	0.1174	-0.4672	
0.040992	-0.045018	1.014552	-2.59	-18.41	-2.17	-0.1869	0.12	-0.4501	
0.049288	-0.045506	1.00894	-3.92	-17.29	-2.24	-0.1781	0.1355	-0.4568	
0.051728	-0.047458	1.009428	-4.27	-16.24	-2.17	-0.1946	0.1204	-0.4563	
0.055144	-0.055144	1.006744	-4.2	-14.84	-2.31	-0.1964	0.1273	-0.4487	
0.053314	-0.05795	0.998204	-3.78	-13.51	-2.24	-0.1995	0.1318	-0.4566	
0.059902	-0.07015	0.998692	-2.73	-12.39	-2.1	-0.1915	0.1188	-0.4516	
0.06771	-0.064782	1.008818	-0.98	-11.2	-1.96	-0.1992	0.1219	-0.4579	
0.069052	-0.074054	1.014674	-0.63	-9.94	-1.47	-0.2037	0.1177	-0.4546	
0.074908	-0.068686	1.022726	-0.28	-8.68	-1.33	-0.1948	0.1288	-0.4519	
0.071736	-0.065148	1.037732	0.98	-6.65	-1.05	-0.2008	0.1219	-0.4532	
0.074054	-0.068442	1.036878	1.47	-4.34	-1.05	-0.1931	0.1201	-0.4485	
0.075274	-0.069296	1.037732	1.47	-1.82	-0.98	-0.1854	0.1197	-0.4407	
0.085278	-0.066246	1.044442	1.96	0.91	-0.84	-0.2041	0.1319	-0.4535	
0.09076799	-0.063562	1.04676	2.1	4.27	-0.84	-0.2022	0.1176	-0.4515	
0.100284	-0.06283	1.047248	2.31	7.63	-0.35	-0.1963	0.1258	-0.4455	
0.095038	-0.066734	1.061034	2.8	11.48	-0.14	-0.2086	0.1262	-0.4502	
0.111752	-0.079544	1.081652	3.29	15.61	0.35	-0.1964	0.1287	-0.4503	
0.121268	-0.07259	1.08702	3.71	20.65	0.91	-0.2023	0.1206	-0.4578	
0.12993	-0.072956	1.094706	2.87	24.85	1.54	-0.1915	0.1157	-0.4437	
0.134444	-0.06344	1.09556	3.5	30.17	1.61	-0.1838	0.117	-0.4453	
0.130296	-0.061732	1.095438	2.73	36.19	1.47	-0.1773	0.1074	-0.4638	
0.119316	-0.06344	1.09373	1.82	42.91	1.47	-0.165	0.1072	-0.4669	
0.107604	-0.070028	1.09312	0.98	49.42	1.68	-0.1775	0.1146	-0.4687	
0.085522	-0.061854	1.085556	1.12	56	2.24	-0.1609	0.124	-0.4659	
0.060512	-0.06649	1.066402	0.98	62.58	3.29	-0.1546	0.1199	-0.4752	
0.020374	-0.051728	1.045906	2.52	68.6	4.06	-0.1284	0.1164	-0.4752	
-0.007198	-0.061732	1.033584	2.1	72.8	5.39	-0.1268	0.1166	-0.4846	
-0.041968	-0.059048	1.022482	2.87	76.72	5.11	-0.1115	0.1177	-0.4862	
-0.073078	-0.063562	0.99674	4.06	79.87	5.11	-0.1145	0.1194	-0.4956	
-0.113094	-0.044286	0.975024	6.79	83.58	5.53	-0.0945	0.1175	-0.4941	
-0.152988	-0.041602	0.942938	8.33	86.45	7.28	-0.0793	0.1214	-0.4958	
-0.201422	-0.021716	0.91256	9.03	88.13	9.45	-0.0574	0.1082	-0.4987	
-0.24644	-0.035136	0.900482	7.84	88.97	11.97	-0.0499	0.1167	-0.5068	
-0.275598	-0.016348	0.886818	8.33	88.69	13.44	-0.0237	0.1104	-0.5083	
-0.297558	0	0.870348	7.63	89.11	13.16	-0.0205	0.1059	-0.5019	
-0.322812	0.00488	0.860832	6.37	90.16	12.53	-0.0037	0.1113	-0.5084	
-0.362218	0.01403	0.846192	6.23	91.35	13.09	0.021	0.1022	-0.5082	
-0.395646	0.0183	0.829112	5.6	91.63	13.79	0.0267	0.1162	-0.5071	
-0.430416	0.006344	0.814106	3.71	90.93	15.12	0.0501	0.1074	-0.5163	
-0.466772	0.017568	0.802028	3.78	90.3	14.07	0.0561	0.1068	-0.5008	
-0.496052	0.011712	0.789218	2.52	88.97	12.74	0.0807	0.1078	-0.5087	
-0.528504	0.015616	0.77226	3.57	87.71	10.85	0.0806	0.1119	-0.5011	
-0.5429	0.013664	0.76555	3.78	86.73	10.71	0.1084	0.1026	-0.4978	
-0.561566	0.022936	0.745054	3.92	85.75	9.52	0.1237	0.1036	-0.4964	
-0.579378	0.018544	0.721386	3.78	84.56	9.66	0.1373	0.1131	-0.4936	
-0.601216	0.009881999	0.711382	3.5	83.79	9.87	0.1544	0.1058	-0.5012	
-0.625372	-0.001342	0.692472	4.13	84.21	8.82	0.1667	0.1038	-0.4935	
-0.662948	0.032574	0.663314	10.08	86.24	6.65	0.1728	0.1035	-0.4857	
-0.679784	0.0366	0.63562	8.4	87.08	5.74	0.1881	0.1045	-0.4858	
-0.70394	0.050752	0.605242	6.51	86.73	4.13	0.2113	0.0994	-0.4749	
-0.727486	0.054168	0.5734	3.15	86.94	4.41	0.2267	0.0976	-0.4765	
-0.765306	0.029524	0.54229	0.77	87.85	5.39	0.2405	0.0942	-0.4686	
-0.798856	0.036234	0.51301	2.03	90.51	3.85	0.2526	0.0994	-0.4611	
-0.816302	0.037942	0.475678	4.62	91.77	3.01	0.2618	0.1018	-0.455	
-0.865102	0.043066	0.445422	5.88	93.31	1.33	0.2848	0.0982	-0.4472	
-0.87718	0.037698	0.394914	5.6	90.86	1.68	0.2819	0.0939	-0.4424	
-0.896578	0.04514	0.369782	4.9	88.76	2.03	0.3047	0.1017	-0.4365	
-0.924394	0.03538	0.336232	5.25	85.05	1.96	0.3215	0.1026	-0.4319	
-0.937936	0.0488	0.29829	3.36	82.67	-0.42	0.3432	0.0947	-0.4224	
-0.938058	0.069174	0.285358	1.12	78.96	-2.03	0.3324	0.0932	-0.4114	
-0.932934	0.07869	0.253394	-3.57	79.31	-0.07	0.3586	0.0897	-0.4084	
-0.950258	0.090646	0.21045	-3.78	80.57	1.68	0.3627	0.1031	-0.387	
-0.968924	0.081984	0.184098	-4.83	82.39	2.94	0.3845	0.0913	-0.3867	
-0.990274	0.043066	0.165554	-4.55	75.88	2.87	0.3997	0.0949	-0.3776	
-0.99674	0.038918	0.137128	4.27	76.65	1.75	0.4121	0.08679999	-0.3525	
-1.000522	0.040626	0.120292	3.57	71.54	-2.94	0.4227	0.0938	-0.3574	
-1.012112	0.05185	0.09028	5.32	72.1	-2.1	0.4198	0.0851	-0.3478	
-1.023092	0.048068	0.069296	6.65	67.06	-5.11	0.4364	0.0913	-0.3325	
-1.025776	0.044896	0.055022	6.16	62.3	-3.92	0.4441	0.0911	-0.3294	
-1.016138	0.042944	0.028426	4.76	58.59	-0.21	0.444	0.09519999	-0.3248	
-1.02053	0.00915	0.03904	5.32	56.56	-5.95	0.441	0.0893	-0.3122	
-1.001376	0.047824	0.029036	9.03	54.81	-9.52	0.4409	0.0904	-0.3013	
-1.015772	0.060024	0.024156	5.95	53.41	-8.61	0.4684	0.0922	-0.2891	
-1.023824	0.050386	-0.020252	19.95	52.15	-3.36	0.4682	0.0993	-0.2908	
-1.00467	0.037332	-0.009516	17.15	48.44	-4.41	0.4732	0.085	-0.2889	
-1.013332	0.034282	-0.027816	17.57	46.83	-5.46	0.4746	0.0889	-0.2765	
-1.044564	0.02623	-0.046482	18.41	45.57	-4.83	0.4779	0.0803	-0.2747	
-1.040172	0.045628	-0.083204	23.17	36.82	-1.47	0.4791	0.0914	-0.2704	
-1.032242	0.016104	-0.085644	20.58	33.25	-2.87	0.49	0.0822	-0.253	
-1.050298	0.009638	-0.085888	26.04	34.51	-1.4	0.4992	0.0836	-0.2609	
-1.041758	0.012566	-0.09394	29.4	28.49	-5.11	0.4945	0.08329999	-0.2438	
-1.05713	0.018544	-0.123098	24.92	26.04	-5.95	0.4869	0.0834	-0.2422	
-1.05347	0.011712	-0.118096	28.14	18.69	-6.16	0.4856	0.0721	-0.2403	
-1.048102	0.015616	-0.108092	31.78	16.52	-5.88	0.4976	0.0816	-0.2359	
-1.032486	0.01708	-0.101992	29.68	12.32	-4.9	0.4884	0.0819	-0.2406	
-1.017602	0.00305	-0.082716	24.99	11.27	-6.58	0.498	0.0659	-0.2339	
-1.00589	0.018544	-0.093086	31.85	13.37	-7	0.501	0.0671	-0.2277	
-1.023702	0.020496	-0.080886	38.92	13.3	-6.79	0.4945	0.0814	-0.2281	
-1.024922	0.025742	-0.096624	38.71	13.72	-6.09	0.5086	0.0713	-0.2341	
-1.0248	0.01037	-0.1098	35.35	11.97	-7.35	0.5023	0.0755	-0.2249	
-1.029924	0.012566	-0.119926	35.98	11.9	-6.93	0.5041	0.0684	-0.2247	
-1.042124	0.02013	-0.120414	37.73	10.29	-4.13	0.5009	0.0725	-0.2185	
-1.023092	0.01952	-0.097844	30.8	8.89	-1.61	0.496	0.0824	-0.2141	
-1.022848	0.007929999	-0.076128	21.07	6.58	-1.68	0.5055	0.0695	-0.2169	
-1.029924	0.011712	-0.08662	20.58	9.24	-1.33	0.501	0.0654	-0.2152	
-1.016138	0.009516	-0.07503	18.41	8.05	-0.14	0.5023	0.0737	-0.2124	
-1.013332	0.011346	-0.091378	16.8	9.24	-0.7	0.5027	0.061	-0.212	
-1.026996	0.003782	-0.096868	15.82	14	-1.47	0.501	0.0667	-0.2121	
-1.00772	0.00488	-0.100528	13.3	11.69	-2.1	0.5057	0.0592	-0.1995	
-1.023336	-0.014884	-0.107848	10.15	11.06	-2.31	0.5072	0.0651	-0.2106	
-1.010526	-0.01708	-0.113094	12.11	8.68	-1.68	0.5056	0.0653	-0.2168	
-1.00467	-0.002196	-0.12444	10.99	7.77	-1.12	0.5102	0.0647	-0.2012	
-1.010648	-0.016836	-0.11346	7.84	6.02	-1.96	0.5118	0.0635	-0.209	
-1.012356	-0.021228	-0.126514	12.67	6.86	-2.59	0.5057	0.0606	-0.1995	
-1.004548	-0.028182	-0.11956	13.02	5.53	-3.36	0.507	0.0721	-0.2092	
-1.005158	-0.016592	-0.117608	13.65	8.19	-3.36	0.5195	0.0588	-0.1995	
-1.004426	-0.023912	-0.126148	14.98	8.19	-2.45	0.5071	0.0663	-0.2028	
-1.012234	-0.02562	-0.127612	17.15	6.93	-2.73	0.5104	0.0577	-0.201	
-1.002474	-0.025254	-0.127612	15.61	5.81	-3.57	0.5118	0.0587	-0.1902	
-1.010038	-0.023424	-0.137006	18.83	6.58	-1.12	0.5195	0.06	-0.1918	
-1.015528	-0.02501	-0.133956	19.6	5.6	-0.84	0.5166	0.0531	-0.1962	
-1.00833	-0.029402	-0.144936	17.5	5.04	-2.17	0.5118	0.0602	-0.1902	
-1.013942	-0.024766	-0.148962	19.95	5.04	-0.84	0.5103	0.0573	-0.187	
-1.006866	-0.044896	-0.157502	19.53	4.62	0.35	0.5211	0.0556	-0.187	
-1.0248	-0.038918	-0.160308	17.71	7.07	0	0.5151	0.0531	-0.1931	
-1.016382	-0.03172	-0.161772	16.17	5.88	0.35	0.5166	0.0532	-0.1978	
-1.010404	-0.043066	-0.166774	15.4	3.36	-1.33	0.5058	0.0516	-0.1837	
-1.012966	-0.042578	-0.156282	10.85	5.04	0.35	0.515	0.056	-0.1963	
-1.001254	-0.039894	-0.149572	11.2	3.71	-0.49	0.5227	0.0557	-0.1917	
-0.993812	-0.039528	-0.148474	8.47	4.41	-1.4	0.5244	0.0484	-0.1852	
-1.00162	-0.03172	-0.161284	6.51	4.9	-1.19	0.5075	0.0488	-0.1852	
-1.012722	-0.033794	-0.179828	11.48	5.81	-0.63	0.5136	0.0484	-0.1758	
-1.015894	-0.03843	-0.178242	8.47	2.73	-0.7	0.5104	0.0544	-0.1838	
-1.00467	-0.04514	-0.169214	7.28	0.98	-1.96	0.52	0.0401	-0.1881	
-1.010038	-0.05246	-0.168116	9.03	4.55	-2.87	0.5183	0.0472	-0.1883	
-1.018456	-0.041724	-0.172508	6.09	4.48	-1.89	0.515	0.0557	-0.1854	
-1.029802	-0.03721	-0.18239	6.58	2.31	-2.17	0.5152	0.0426	-0.1726	
-1.008818	-0.048068	-0.186172	6.16	-1.89	-1.4	0.5167	0.0473	-0.1898	
-1.019554	-0.045994	-0.183244	5.18	-3.08	1.12	0.5257	0.0539	-0.1792	
-1.002718	-0.043432	-0.166652	2.66	-3.43	1.96	0.5168	0.0458	-0.1851	
-1.004792	-0.051362	-0.165798	-0.21	-3.43	1.75	0.5167	0.05	-0.1868	
-1.02297	-0.046116	-0.175558	0.7	-1.4	2.45	0.5259	0.0469	-0.1836	
-1.016138	-0.059902	-0.170068	-1.68	-2.1	1.89	0.5104	0.0547	-0.1947	
-1.014064	-0.060024	-0.172142	-2.17	-2.8	2.45	0.5151	0.0498	-0.1774	
-1.02358	-0.05612	-0.164334	-0.56	-3.01	4.27	0.5138	0.0402	-0.1865	
-1.020042	-0.033306	-0.164456	0.35	-3.22	5.67	0.5183	0.0443	-0.1835	
-1.016748	-0.043432	-0.166286	-2.03	-5.18	6.16	0.5091	0.0446	-0.1866	
-1.014918	-0.048678	-0.174094	-0.91	-6.44	4.48	0.5153	0.0415	-0.1819	
-1.021872	-0.046848	-0.178486	-1.61	-6.86	5.32	0.5059	0.0505	-0.193	
-1.028216	-0.043676	-0.17629	-3.78	-8.89	5.25	0.5152	0.0488	-0.1914	
-1.039684	-0.050752	-0.169824	-4.48	-11.06	4.06	0.515	0.0561	-0.1994	
-1.041636	-0.030012	-0.16897	-5.74	-13.51	4.41	0.5135	0.0545	-0.19	
-1.042124	-0.025986	-0.16714	-8.12	-14.91	8.12	0.5139	0.0373	-0.1849	
-1.031388	-0.02074	-0.164578	-7.28	-18.97	8.75	0.503	0.0465	-0.1991	
-1.042002	-0.031232	-0.147498	-6.93	-18.55	10.15	0.5047	0.0409	-0.2052	
-1.052738	-0.028792	-0.155062	-9.66	-19.18	9.52	0.5122	0.0477	-0.2023	
-1.043466	-0.007442	-0.16531	-19.11	-21.56	10.85	0.5048	0.0381	-0.2035	
-1.057374	-0.011468	-0.144814	-28.21	-26.18	9.31	0.5079	0.0366	-0.2066	
-1.054812	-0.015006	-0.132248	-28.07	-29.4	9.17	0.5096	0.0341	-0.219	
-1.050908	0.000244	-0.118706	-27.3	-29.75	10.99	0.4986	0.043	-0.2239	
-1.029192	0.003538	-0.130296	-31.92	-26.46	9.45	0.4999	0.0528	-0.2211	
-1.053714	0.039528	-0.128588	-38.22	-26.32	10.43	0.4863	0.0449	-0.2286	
-1.014064	-0.004636	-0.094184	-41.23	-38.99	14.42	0.494	0.0447	-0.2317	
-1.001986	-0.012566	-0.046604	-37.38	-48.65	15.61	0.4941	0.0421	-0.2379	
-1.0004	0.01342	-0.03233	-29.33	-44.24	16.03	0.4959	0.0368	-0.2533	
-1.01809	0.040992	-0.025376	-35.14	-35.77	9.24	0.4941	0.0455	-0.2582	
-1.03273	0.051606	0.011102	-44.38	-39.69	5.88	0.4878	0.0511	-0.2521	
-0.992714	0.032818	-0.01708	-51.1	-54.6	11.62	0.4785	0.0577	-0.2787	
-0.961116	0.010492	0.068808	-45.71	-61.46	9.66	0.4632	0.0581	-0.2787	
-0.970388	0.038796	0.069906	-25.13	-55.44	8.68	0.4573	0.05	-0.2862	
-1.008818	0.049654	0.111142	-24.29	-46.41	5.81	0.4573	0.0515	-0.2909	
-1.013942	0.054168	0.094306	-32.9	-43.75	3.08	0.4465	0.0535	-0.3018	
-0.99064	0.05734	0.044286	-54.18	-36.82	-2.03	0.4357	0.0581	-0.3066	
-0.980148	0.02562	0.095892	-33.53	-55.23	7	0.4433	0.0623	-0.313	
-0.971974	0.002562	0.113094	-12.53	-54.25	5.32	0.4419	0.0583	-0.3206	
-0.998082	0.041358	0.1342	-15.75	-55.44	3.57	0.4278	0.069	-0.3349	
-1.00955	0.05002	0.12688	-22.47	-58.38	4.27	0.4417	0.0686	-0.335	
-1.02053	0.026718	0.121268	-20.37	-60.62	7.21	0.4357	0.0632	-0.3394	
-1.008574	0.013664	0.12078	-21.21	-64.4	8.4	0.4188	0.0653	-0.3488	
-1.011746	0.009272	0.131516	-17.22	-68.18	5.6	0.4032	0.0773	-0.3584	
-0.986736	0.035136	0.177754	-20.65	-78.61	5.74	0.4019	0.0705	-0.366	
-0.971242	0.058804	0.198006	-18.48	-78.05	5.74	0.3849	0.0738	-0.3706	
-0.975268	0.05856	0.20557	-20.65	-77.49	8.26	0.3866	0.0682	-0.3736	
-0.951234	0.048312	0.274622	-24.15	-83.51	6.93	0.3632	0.0879	-0.4005	
-0.910486	0.036722	0.30866	-19.67	-90.79	5.53	0.3374	0.07889999	-0.4079	
-0.91256	0.041114	0.340014	-13.79	-90.02	2.73	0.3266	0.0806	-0.4095	
-0.90341	0.048922	0.387106	-18.69	-91.07	6.58	0.3326	0.0863	-0.4175	
-0.886452	0.057218	0.394304	-15.89	-91.56	6.02	0.3143	0.0843	-0.4313	
-0.873764	0.052704	0.470798	-18.83	-93.1	4.41	0.2897	0.0867	-0.4453	
-0.860222	0.035868	0.522404	-18.06	-91	2.87	0.288	0.0937	-0.4408	
-0.845094	0.002196	0.535702	-13.65	-88.97	2.38	0.2698	0.086	-0.4514	
-0.815082	0.052216	0.53192	-10.22	-86.45	4.13	0.2589	0.0936	-0.4625	
-0.781288	0.053558	0.549732	-9.45	-86.45	4.27	0.2404	0.09999999	-0.4735	
-0.739686	0.057706	0.56913	-8.54	-87.71	5.25	0.2235	0.1005	-0.475	
-0.715652	0.05002	0.606584	-8.19	-83.79	5.6	0.2128	0.1024	-0.4828	
-0.70882	0.048312	0.617076	-5.95	-83.72	10.22	0.1885	0.0904	-0.4869	
-0.733586	0.071004	0.61488	-8.19	-81.34	7.49	0.1775	0.0991	-0.484	
-0.658678	0.027816	0.672098	-10.71	-83.58	5.95	0.1699	0.09959999	-0.4965	
-0.643916	0.020252	0.70821	-8.47	-81.41	2.17	0.1497	0.1086	-0.4966	
-0.637084	0.028182	0.728462	-11.13	-80.15	1.05	0.1376	0.1034	-0.5026	
-0.62891	0.039406	0.734684	-12.53	-81.34	-0.21	0.1298	0.1078	-0.5027	
-0.602802	0.05978	0.731512	-11.9	-81.9	-2.17	0.113	0.1053	-0.4995	
-0.534116	0.017446	0.753594	-13.23	-82.11	-4.48	0.0945	0.1071	-0.4947	
-0.510814	0.004026	0.784826	-10.43	-77.98	-6.72	0.0942	0.1171	-0.4997	
-0.505324	0.00122	0.803736	-9.03	-73.43	-6.65	0.06659999	0.1165	-0.5027	
-0.471408	0.000122	0.818986	-10.08	-71.54	-7.42	0.0621	0.1124	-0.5025	
-0.466772	-0.008417999	0.823744	-7.42	-68.74	-6.09	0.0466	0.1185	-0.5073	
-0.467504	-0.003294	0.813008	-9.87	-70.63	-8.19	0.0344	0.1173	-0.5041	
-0.40016	-0.024034	0.835822	-10.29	-72.24	-9.24	0.019	0.1193	-0.5087	
-0.365268	-0.033184	0.860222	-9.66	-67.83	-9.45	-0.0011	0.1268	-0.5089	
-0.361364	-0.025498	0.857294	-6.23	-67.27	-9.24	0.0053	0.1139	-0.5054	
-0.335866	-0.027328	0.860466	-5.32	-67.55	-9.52	-0.0085	0.1155	-0.5023	
-0.300974	-0.039284	0.896578	-4.48	-68.18	-10.22	-0.0223	0.1143	-0.4975	
-0.272304	-0.032818	0.90585	-3.08	-67.9	-9.45	-0.0301	0.1217	-0.4992	
-0.249246	-0.026474	0.923174	-2.73	-67.83	-7.35	-0.0608	0.1195	-0.4974	
-0.192638	-0.04209	0.949282	-3.85	-68.32	-6.44	-0.0592	0.118	-0.4958	
-0.158356	-0.04941	0.96319	-3.08	-67.06	-5.81	-0.0765	0.1312	-0.4946	
-0.12261	-0.055388	0.984662	-3.64	-65.17	-5.39	-0.0747	0.1212	-0.4927	
-0.094062	-0.045872	0.98759	-3.64	-62.86	-4.97	-0.0917	0.1244	-0.4896	
-0.066978	-0.052826	1.00284	-3.57	-59.5	-4.27	-0.107	0.1248	-0.4927	
-0.047458	-0.047214	1.021628	-3.01	-56.28	-4.06	-0.1086	0.1246	-0.4849	
-0.031842	-0.047702	1.028094	-2.73	-52.71	-3.78	-0.1271	0.1262	-0.4739	
-0.010126	-0.043066	1.035658	-1.89	-49.35	-3.43	-0.1348	0.1295	-0.4818	
0.009393999	-0.047092	1.029924	-0.7	-46.06	-3.57	-0.1363	0.1265	-0.477	
0.034648	-0.047092	1.04127	-0.14	-42.91	-4.13	-0.1425	0.1296	-0.4786	
0.053802	-0.04026	1.045052	0.42	-39.55	-3.92	-0.1454	0.1224	-0.4706	
0.062464	-0.049044	1.05042	0.28	-36.26	-3.64	-0.164	0.1288	-0.4816	
0.065392	-0.049654	1.04249	0.63	-33.6	-4.13	-0.164	0.1254	-0.4613	
0.059902	-0.044896	1.046516	0.77	-31.08	-4.83	-0.1624	0.1239	-0.4612	
0.055266	-0.0549	1.040538	1.05	-28.91	-5.11	-0.1763	0.1287	-0.4691	
0.042456	-0.039528	1.006866	1.47	-28.42	-5.39	-0.1836	0.1147	-0.4671	
0.04575	-0.047824	0.984296	1.19	-28.35	-5.67	-0.1778	0.1242	-0.4565	
0.056486	-0.050752	0.980758	2.31	-26.88	-4.83	-0.1794	0.1258	-0.4628	
0.060634	-0.04575	0.983442	3.29	-24.36	-3.71	-0.1946	0.1189	-0.4531	
0.049044	-0.037454	0.983686	3.15	-22.47	-2.38	-0.1913	0.1148	-0.4624	
0.040504	-0.041602	0.982954	1.61	-22.75	-1.54	-0.1913	0.1119	-0.4592	
0.043676	-0.030988	0.988322	1.12	-23.59	-1.33	-0.1976	0.1161	-0.4515	
0.03965	-0.027328	1.005646	1.19	-23.66	-0.91	-0.2039	0.1203	-0.4453	
0.041968	-0.021228	0.993324	0.56	-23.87	-1.47	-0.2068	0.1192	-0.4546	
0.050874	-0.031598	0.997838	-0.77	-24.01	-1.89	-0.2024	0.1246	-0.447	
0.063928	-0.036234	1.007354	-0.42	-22.68	-1.47	-0.216	0.1151	-0.4513	
0.07442	-0.04087	1.01565	-0.14	-20.09	-0.77	-0.2083	0.1116	-0.4326	
0.081618	-0.048556	1.025288	0.28	-17.5	-0.21	-0.2175	0.1121	-0.4435	
0.080886	-0.049288	1.013698	1.12	-15.68	0.21	-0.2178	0.1246	-0.4345	
0.088084	-0.0366	1.007598	1.68	-14.84	0.07	-0.2331	0.1193	-0.4327	
0.0915	-0.041358	1.002596	1.54	-14.28	-0.28	-0.2206	0.115	-0.442	
0.097844	-0.041968	0.987224	0.84	-14.14	-1.33	-0.2256	0.1259	-0.4236	
0.114192	-0.045628	0.981612	0.14	-13.65	-1.33	-0.2282	0.1108	-0.4371	
0.12322	-0.049288	0.981002	-0.14	-12.11	-0.35	-0.2404	0.1082	-0.4354	
0.127856	-0.044164	0.970998	0.63	-11.41	0.21	-0.2265	0.1065	-0.4386	
0.133956	-0.045994	0.976122	0.07	-10.57	0.35	-0.2436	0.1123	-0.4262	
0.131272	-0.041358	0.98942	0.7	-10.71	0.14	-0.2435	0.1051	-0.4213	
0.133346	-0.035502	0.980148	0.49	-10.99	-0.28	-0.2407	0.1197	-0.4405	
0.13908	-0.036722	0.977098	0.14	-11.41	-0.42	-0.2329	0.1122	-0.4325	
0.141154	-0.03721	0.975756	0.98	-11.76	-0.77	-0.2436	0.1095	-0.4292	
0.149206	-0.035746	0.983686	1.68	-11.69	-1.12	-0.2393	0.1238	-0.4359	
0.164944	-0.03599	0.993812	1.96	-10.99	-0.91	-0.2404	0.1051	-0.4229	
0.169458	-0.036722	0.999546	1.82	-9.1	-0.49	-0.2437	0.1122	-0.4215	
0.177266	-0.027572	1.00528	2.03	-7.35	-0.28	-0.2437	0.1123	-0.4246	
0.179096	-0.031476	1.01565	1.19	-5.67	-0.49	-0.2389	0.1049	-0.4182	
0.182268	-0.02501	1.014186	1.33	-4.27	-0.14	-0.2435	0.1067	-0.4276	
0.188368	-0.030134	1.014552	0.98	-2.17	0.35	-0.2423	0.1193	-0.4249	
0.197274	-0.031232	1.015162	0.63	-0.28	0.7	-0.2514	0.1135	-0.4106	
0.191418	-0.034282	1.014308	0.21	2.17	1.47	-0.2468	0.1153	-0.4278	
0.202642	-0.037942	1.010282	-0.07	3.15	2.66	-0.2515	0.1212	-0.4327	
0.204228	-0.037332	1.001132	0	5.18	2.73	-0.242	0.1078	-0.4167	
0.205448	-0.036966	1.007354	-0.28	6.86	3.01	-0.2452	0.1108	-0.4215	
0.202032	-0.034404	1.005768	0.21	8.82	3.57	-0.239	0.1093	-0.423	
0.198616	-0.034404	1.001864	0.35	10.36	3.43	-0.2545	0.1152	-0.42	
0.197274	-0.025132	1.003816	0.98	10.85	3.22	-0.2497	0.1082	-0.4276	
0.184952	-0.025986	1.01138	0.21	11.9	2.66	-0.2422	0.1133	-0.4122	
0.200812	-0.020008	1.00955	-0.14	13.02	2.45	-0.2388	0.102	-0.4166	
0.196542	-0.0183	1.019432	-0.7	16.1	1.47	-0.2373	0.1066	-0.4292	
0.198982	-0.028182	1.030778	-1.4	18.76	1.54	-0.2342	0.1036	-0.426	
0.207034	-0.022326	1.033218	-1.47	20.72	1.82	-0.2269	0.1193	-0.439	
0.19703	-0.030866	1.042856	-2.52	24.71	1.47	-0.225	0.1063	-0.4323	
0.192028	-0.03599	1.044442	-2.66	28.98	1.47	-0.222	0.1107	-0.4387	
0.179096	-0.042212	1.04798	-2.24	33.88	2.03	-0.2344	0.112	-0.4247	
0.173484	-0.038918	1.044808	-1.47	38.57	2.38	-0.2175	0.1135	-0.4419	
0.1586	-0.05246	1.046882	-1.33	43.68	2.24	-0.2053	0.1161	-0.4452	
0.142862	-0.050508	1.047126	-0.91	48.3	2.24	-0.1978	0.1229	-0.4408	
0.12505	-0.05795	1.04981	0.07	52.92	2.59	-0.19	0.1218	-0.4595	
0.10675	-0.055754	1.042368	1.33	57.82	2.8	-0.1806	0.1097	-0.442	
0.081496	-0.048556	1.043222	1.89	62.3	3.57	-0.1715	0.1199	-0.4595	
0.039894	-0.042212	1.024556	1.54	65.38	4.06	-0.1699	0.1157	-0.4625	
0.016592	-0.045872	1.00406	1.26	68.04	4.2	-0.1543	0.1098	-0.4702	
-0.015494	-0.046238	0.982344	1.12	72.52	3.92	-0.1436	0.114	-0.4782	
-0.037088	-0.051118	0.987834	1.47	77.49	3.78	-0.1299	0.1183	-0.4924	
-0.068076	-0.04636	0.979172	2.59	81.83	4.13	-0.1207	0.1192	-0.4815	
-0.105042	-0.045872	0.971852	4.55	86.1	5.11	-0.1085	0.1217	-0.4817	
-0.143472	-0.035868	0.958066	6.86	89.74	5.81	-0.1006	0.1162	-0.4925	
-0.18178	-0.0305	0.93696	7.91	92.54	6.44	-0.0839	0.1216	-0.4989	
-0.21899	-0.020862	0.924516	8.82	94.43	6.44	-0.0606	0.1125	-0.5003	
-0.261446	-0.020862	0.908046	8.96	96.04	6.09	-0.0484	0.1164	-0.4974	
-0.294996	-0.002562	0.891332	9.87	97.44	6.02	-0.05	0.1196	-0.5084	
-0.328546	0.005246	0.875472	9.17	98.49	6.65	-0.0175	0.1102	-0.5052	
-0.363682	0.005002	0.85034	8.33	99.33	7	0.0007	0.1171	-0.5164	
-0.401502	0.007929999	0.830088	7.7	99.4	7.42	0.0223	0.1092	-0.5069	
-0.43615	0.008174	0.792634	6.93	98.63	8.26	0.039	0.1143	-0.4994	
-0.47153	0.017568	0.771528	7.14	98.63	7.91	0.0483	0.1128	-0.5056	
-0.499468	0.016226	0.754936	6.09	97.51	7.14	0.07009999	0.1023	-0.5054	
-0.52582	0.019764	0.745542	6.93	96.67	6.79	0.0837	0.1075	-0.4994	
-0.563762	0.032086	0.712846	9.03	96.74	7.07	0.107	0.0997	-0.4962	
-0.597434	0.028792	0.702964	8.33	95.27	7.07	0.1176	0.1036	-0.4932	
-0.622932	0.023668	0.676978	6.86	93.38	5.95	0.1348	0.0905	-0.496	
-0.649894	0.021594	0.661972	6.65	91.84	5.46	0.1592	0.0983	-0.4901	
-0.676734	0.020984	0.638182	6.72	89.46	5.04	0.1715	0.0935	-0.4838	
-0.702354	0.037698	0.607072	8.47	89.11	5.39	0.1915	0.0944	-0.4824	
-0.72651	0.041236	0.59414	8.33	87.08	5.88	0.1991	0.09869999	-0.4904	
-0.749324	0.03477	0.574864	7.91	84.7	5.46	0.2071	0.0871	-0.4885	
-0.770186	0.04575	0.556808	9.1	82.32	4.55	0.2269	0.0889	-0.4669	
-0.797514	0.052826	0.534848	7.63	80.92	4.06	0.2313	0.0958	-0.4671	
-0.818132	0.05551	0.500566	9.38	78.82	2.94	0.2497	0.0968	-0.4656	
-0.839726	0.06527	0.494954	7.63	77.14	1.82	0.2545	0.0866	-0.4591	
-0.869006	0.072468	0.442494	6.65	73.78	0.42	0.2759	0.0887	-0.4531	
-0.870592	0.052582	0.427	6.44	71.89	1.05	0.282	0.0898	-0.4454	
-0.880718	0.065636	0.409188	6.72	69.09	0.28	0.2942	0.09209999	-0.4377	
-0.895358	0.063074	0.4087	6.23	67.2	-0.28	0.3035	0.0874	-0.4314	
-0.91744	0.064172	0.361364	7	65.66	-0.77	0.3312	0.084	-0.4361	
-0.934276	0.060512	0.33977	7.21	63.91	-1.82	0.3466	0.0788	-0.4126	
-0.937326	0.049166	0.315858	7.63	61.81	-2.24	0.3463	0.0915	-0.413	
-0.952576	0.060268	0.296216	8.05	61.39	-4.13	0.348	0.0829	-0.4081	
-0.959652	0.05673	0.27999	7.56	58.31	-4.62	0.3681	0.0764	-0.3971	
-0.97112	0.06222	0.268888	4.55	57.33	-4.76	0.3769	0.0872	-0.385	
-0.970998	0.066368	0.244732	5.6	58.52	-4.62	0.3785	0.0857	-0.385	
-0.99979	0.06832	0.21167	3.71	58.38	-4.55	0.3832	0.08419999	-0.385	
-0.992836	0.063928	0.19947	3.5	56.98	-4.55	0.3956	0.0763	-0.3677	
-0.994422	0.060756	0.18727	1.89	55.72	-4.62	0.4047	0.0787	-0.36	
-0.98698	0.071004	0.159088	3.85	55.65	-4.62	0.4092	0.0827	-0.3555	
-0.983198	0.073078	0.153964	2.73	54.95	-4.13	0.4169	0.08109999	-0.3554	
-0.994178	0.07259	0.133956	1.26	55.16	-2.73	0.4108	0.0752	-0.3381	
-0.985394	0.045628	0.121634	-1.75	56.21	-3.01	0.4228	0.0845	-0.3291	
-1.021384	0.061244	0.082472	1.82	57.19	-2.17	0.4199	0.07889999	-0.3274	
-1.021994	0.073932	0.070516	0.7	52.08	-3.99	0.429	0.0816	-0.3306	
-1.023092	0.05246	0.053314	-2.03	50.33	-2.87	0.455	0.0819	-0.3136	
-1.008086	0.039528	0.030256	-2.87	47.46	-4.2	0.4551	0.0805	-0.3136	
-1.029558	0.040626	0.020862	-4.48	47.04	-6.23	0.4503	0.0846	-0.3043	
-1.018334	0.03416	0.01708	2.8	46.55	-4.83	0.4536	0.0729	-0.2946	
-1.024922	0.070638	-0.000244	6.58	44.87	-2.52	0.4655	0.0866	-0.2889	
-1.02602	0.043432	0.013298	5.32	45.5	-0.63	0.4658	0.0782	-0.2933	
-1.024312	0.04514	0.001952	13.79	43.89	0.49	0.4794	0.0802	-0.2732	
-1.01321	0.03294	-0.013176	14.21	45.57	1.4	0.4763	0.0831	-0.2732	
-1.032364	0.055876	-0.0183	17.71	42.14	0	0.4716	0.083	-0.2654	
-1.028338	0.047702	-0.020984	14.49	38.71	-2.1	0.4872	0.0753	-0.2575	
-1.021018	0.046238	-0.052826	9.8	36.05	-1.68	0.4889	0.0667	-0.2526	
-1.026874	0.0244	-0.026718	16.52	33.53	-1.75	0.4856	0.0768	-0.2575	
-1.027606	0.039894	-0.05429	27.16	31.5	-0.77	0.4914	0.0863	-0.2501	
-1.031022	0.045872	-0.066978	21.28	27.44	-2.24	0.4901	0.0763	-0.2435	
-1.028582	0.037332	-0.063684	17.01	22.05	-3.64	0.498	0.0705	-0.2465	
-1.020286	0.045872	-0.062464	18.06	18.41	-3.43	0.4977	0.0788	-0.239	
-1.036512	0.044774	-0.072224	17.01	16.66	-3.92	0.4949	0.0674	-0.2339	
-1.036756	0.037454	-0.066368	16.17	13.23	-4.13	0.5024	0.0758	-0.2358	
-1.021506	0.02806	-0.06771	21.07	10.29	-3.92	0.4932	0.07319999	-0.2357	
-1.019432	0.0244	-0.085034	24.92	7.84	-5.25	0.4979	0.0698	-0.22	
-1.030412	0.018178	-0.07503	27.86	4.69	-5.18	0.5011	0.0641	-0.2199	
-1.008818	0.021106	-0.074786	29.26	3.99	-4.2	0.4993	0.0756	-0.2249	
-1.007476	0.013176	-0.07381	30.87	2.45	-6.44	0.4966	0.0614	-0.2229	
-1.007964	0.016836	-0.081496	37.66	4.69	-5.11	0.5055	0.0694	-0.2107	
-1.020896	0.015738	-0.086498	40.81	2.1	-4.48	0.4933	0.0671	-0.2215	
-1.024312	0.009028	-0.095648	41.16	2.87	-4.34	0.5086	0.0647	-0.1997	
-1.01992	0.02135	-0.113094	44.66	3.29	-4.27	0.5028	0.0582	-0.215	
-1.022604	-0.000122	-0.104798	43.68	0.42	-3.43	0.5012	0.0614	-0.2276	
-1.025044	-0.007076	-0.09821	46.55	0.84	-1.68	0.5011	0.064	-0.2183	
-1.035902	-0.009272	-0.091988	50.05	-0.28	-1.47	0.5012	0.0597	-0.2166	
-1.027972	-0.008052	-0.099308	50.4	0.7	0.63	0.5028	0.0555	-0.2181	
-1.01931	0.00244	-0.092598	42.42	0.21	1.96	0.5138	0.0482	-0.2194	
-1.032974	-0.003538	-0.09211	41.23	3.22	0.42	0.4891	0.0515	-0.2147	
-1.034438	-0.006954	-0.101016	45.01	4.2	1.75	0.508	0.0339	-0.2097	
-1.017968	0.001098	-0.093208	43.68	0.14	0.56	0.5045	0.0511	-0.2164	
-1.010282	0.009881999	-0.07381	36.68	-0.49	0.7	0.5079	0.0367	-0.2097	
-1.016138	0.015128	-0.076616	35.21	2.03	1.61	0.502	0.027	-0.2094	
-1.020408	0.00183	-0.078568	31.43	2.52	0.21	0.5096	0.0324	-0.2096	
-1.020774	0.00305	-0.07124799	26.74	-0.28	0.07	0.5023	0.0185	-0.2123	
-1.003206	0.00915	-0.06588	18.13	-0.91	-0.63	0.5112	0.0264	-0.1985	
-1.02053	0.004636	-0.064904	16.03	2.52	-2.1	0.5032	0.041	-0.2067	
-1.000522	0.008662	-0.083326	17.5	1.75	-1.33	0.5065	0.034	-0.2112	
-1.003084	-0.007686	-0.090646	13.09	1.33	-1.54	0.5051	0.0267	-0.2032	
-1.01748	-0.005246	-0.09357399	11.9	2.1	-2.8	0.4959	0.0269	-0.2	
-1.011624	-0.010126	-0.10004	9.94	4.27	-1.54	0.5022	0.0228	-0.214	
-1.028216	-0.017446	-0.11712	8.33	3.71	-1.68	0.4961	0.0215	-0.2108	
-1.026752	-0.01647	-0.104066	4.9	2.52	-0.35	0.5005	0.0284	-0.2095	
-1.01382	-0.021472	-0.115412	3.78	1.26	1.05	0.4991	0.0199	-0.2061	
-1.02053	-0.017934	-0.098332	5.6	2.38	2.66	0.5018	0.034	-0.2081	
-1.020164	-0.011956	-0.10065	3.5	-1.68	1.68	0.5051	0.0253	-0.2032	
-1.016382	-0.030378	-0.0976	3.85	-5.04	0.98	0.5097	0.0266	-0.2017	
-1.021994	-0.022204	-0.09882	6.72	-4.13	1.05	0.5084	0.0182	-0.2045	
-1.030412	-0.021472	-0.109068	6.51	-3.85	2.38	0.5051	0.0252	-0.1985	
-1.030778	-0.023668	-0.113826	5.39	-3.64	3.92	0.508	0.0307	-0.1955	
-1.022116	-0.012078	-0.103212	4.9	-3.92	4.41	0.51	0.0168	-0.206	
-1.028704	-0.014152	-0.107116	4.27	-3.64	3.01	0.4899	0.0185	-0.1998	
-1.023458	-0.026108	-0.095404	0.56	-4.55	3.92	0.5054	0.0184	-0.2107	
-1.015528	-0.005368	-0.091378	-0.49	-4.06	3.29	0.5055	0.0142	-0.2122	
-1.019676	0.00183	-0.088694	-3.5	-4.69	2.8	0.4976	0.0199	-0.2061	
-1.006378	0.009272	-0.0854	-3.57	-3.92	2.1	0.4962	0.0143	-0.2075	
-1.0126	0.002074	-0.085156	-2.94	-4.2	1.75	0.4872	0.0077	-0.2166	
-1.019066	0.007564	-0.085644	-2.52	-2.45	1.96	0.4977	0.0155	-0.1997	
-1.020286	0.000244	-0.090158	-1.68	-5.11	1.33	0.5008	0.0172	-0.2122	
-1.01626	0.003538	-0.088328	-1.05	-6.37	2.45	0.5054	0.017	-0.2091	
-1.012844	-0.000732	-0.083204	-4.34	-6.16	3.08	0.5023	0.0185	-0.2123	
-1.025166	-0.00854	-0.085522	-1.19	-4.27	1.19	0.5115	0.0183	-0.2108	
-1.017358	0.005246	-0.084546	-4.06	-5.88	3.08	0.5067	0.0239	-0.2062	
-1.015284	0.014396	-0.071736	-5.6	-5.95	3.29	0.4993	0.0172	-0.2122	
-1.019188	0.007929999	-0.078446	-3.71	-4.27	3.64	0.5084	0.0198	-0.2139	
-1.023214	0.002806	-0.07381	-3.43	-4.62	3.5	0.4993	0.0159	-0.2169	
-1.020774	-0.010492	-0.073688	-1.26	-4.9	1.89	0.4962	0.0161	-0.22	
-1.031022	0.00366	-0.087352	-0.14	-5.81	2.38	0.5006	0.0273	-0.2203	
-1.037488	0.003782	-0.088694	-1.4	-5.39	4.83	0.501	0.0149	-0.2324	
-1.0309	0.003416	-0.095892	-3.01	-7.98	5.32	0.4946	0.0218	-0.2201	
-1.0492	0.005246	-0.092232	-3.08	-9.24	5.6	0.4947	0.016	-0.2168	
-1.051152	0.001098	-0.085034	-4.41	-13.3	8.89	0.498	0.0089	-0.2166	
-1.053104	0.015372	-0.090036	-6.65	-15.47	9.94	0.4856	0.0167	-0.234	
-1.057008	0.02074	-0.084302	-10.92	-13.65	11.55	0.4918	0.0107	-0.2276	
-1.049688	0.020252	-0.076128	-21.21	-13.51	12.46	0.4824	0.0181	-0.2293	
-1.04066	0.01098	-0.072102	-26.18	-11.34	13.37	0.4841	0.0125	-0.2354	
-1.058716	0.033428	-0.06283	-13.93	-6.23	16.45	0.4838	0.0268	-0.2389	
-1.030046	0.011102	-0.07198	-18.34	-12.74	17.64	0.4904	0.0082	-0.2368	
-1.029314	0.026962	-0.069296	-27.44	-11.55	13.72	0.4857	0.0113	-0.2416	
-1.034438	0.050386	-0.063928	-34.93	-9.66	13.44	0.495	0.0127	-0.251	
-1.042734	0.050142	-0.069662	-37.73	-11.2	12.32	0.4842	0.0098	-0.24	
-1.053836	0.06527	-0.062342	-56.63	-22.89	17.64	0.4874	0.0069	-0.2383	
-1.025288	0.048678	-0.060878	-65.45	-30.38	18.48	0.4685	0.0276	-0.2544	
-1.02724	0.05673	-0.036722	-49.7	-28.98	24.43	0.4687	0.0206	-0.2589	
-1.008086	0.036966	-0.02806	-45.22	-40.88	20.44	0.4762	0.0274	-0.2545	
-1.002474	0.038918	-0.009272	-51.8	-46.06	13.23	0.4719	0.018	-0.2682	
-0.99369	0.081862	0.009393999	-53.13	-57.33	8.05	0.4653	0.0339	-0.2764	
-0.99857	0.112362	0.046726	-59.22	-56.91	13.37	0.4565	0.0218	-0.2916	
-0.989176	0.083326	0.082594	-50.96	-57.47	19.81	0.4472	0.0248	-0.2885	
-0.992104	0.061976	0.104676	-40.67	-57.61	14.35	0.4441	0.0296	-0.3058	
-0.964288	0.094306	0.106506	-37.03	-62.93	6.93	0.441	0.0343	-0.3199	
-0.969656	0.088938	0.12505	-38.01	-65.24	9.38	0.4304	0.0304	-0.3244	
-0.981368	0.106262	0.19642	-36.47	-73.99	13.58	0.4287	0.0394	-0.3402	
-0.972828	0.095404	0.239364	-40.39	-74.83	15.96	0.4226	0.0352	-0.3354	
-0.951844	0.14457	0.274988	-40.95	-71.19	8.96	0.4117	0.0445	-0.3559	
-0.925492	0.115168	0.27755	-46.55	-65.1	9.24	0.4009	0.0507	-0.3685	
-0.908778	0.080032	0.265228	-41.09	-55.72	8.33	0.3963	0.0494	-0.3669	
-0.926956	0.050996	0.28304	-32.55	-54.67	-3.64	0.3842	0.0444	-0.3807	
-0.963922	0.061366	0.254492	-25.48	-53.06	-9.52	0.3747	0.0561	-0.3841	
-0.966362	0.138592	0.28121	-21.98	-65.31	-6.09	0.3669	0.0606	-0.3873	
-0.978196	0.119316	0.324276	-25.55	-71.75	-0.77	0.3714	0.0663	-0.3937	
-0.940376	0.111142	0.358436	-32.41	-75.53	7.07	0.3548	0.0601	-0.409	
-0.957456	0.087108	0.381982	-24.99	-70.63	4.76	0.3451	0.079	-0.4204	
-0.896334	0.06405	0.391132	-19.53	-75.11	2.24	0.333	0.0721	-0.4171	
-0.876082	0.07515199	0.394914	-16.94	-78.33	-2.52	0.3204	0.084	-0.4236	
-0.830698	0.129808	0.42395	-15.82	-80.43	3.71	0.2976	0.0778	-0.4357	
-0.82106	0.064294	0.487512	-15.12	-80.71	4.27	0.281	0.07	-0.4479	
-0.847168	0.03965	0.5185	-12.53	-81.34	1.61	0.2762	0.07889999	-0.4559	
-0.83692	0.07515199	0.56791	-12.32	-81.69	-1.68	0.2593	0.0809	-0.4621	
-0.825818	0.078324	0.582306	-16.38	-84.7	-0.91	0.2314	0.0917	-0.4716	
-0.785924	0.091012	0.593896	-9.66	-81.41	1.68	0.2391	0.09	-0.4685	
-0.736148	0.069296	0.615246	-4.9	-78.68	3.57	0.2221	0.0966	-0.4873	
-0.730292	0.081008	0.605974	-4.06	-72.8	0.84	0.1977	0.0901	-0.4854	
-0.71309	0.08845	0.640866	-2.38	-71.82	-2.8	0.1916	0.0887	-0.4807	
-0.681004	0.07503	0.676246	-2.66	-71.89	0.35	0.1947	0.0873	-0.4838	
-0.726388	0.08845	0.670512	-6.79	-70.63	3.64	0.1732	0.0893	-0.4868	
-0.68442	0.087596	0.686372	-9.03	-72.38	2.1	0.1671	0.0897	-0.4946	
-0.63684	0.051728	0.713578	-8.75	-74.48	-0.77	0.1484	0.1017	-0.5027	
-0.60634	0.026596	0.745786	-7.98	-73.5	-0.7	0.1347	0.0948	-0.4977	
-0.602802	0.039406	0.776896	-11.55	-71.4	-2.1	0.1209	0.0966	-0.4977	
-0.603046	0.059902	0.767014	-9.24	-72.87	-1.19	0.1147	0.0983	-0.5039	
-0.553026	0.035258	0.776042	-17.22	-77.28	-8.26	0.1024	0.09999999	-0.5024	
-0.498858	0.038186	0.813618	-16.94	-71.54	-12.6	0.0823	0.1063	-0.5056	
-0.482632	0.019398	0.838994	-17.57	-66.71	-14.49	0.0637	0.1124	-0.5041	
-0.4758	0.017324	0.830332	-17.01	-63.42	-13.3	0.0639	0.1039	-0.507	
-0.45872	0.012078	0.823256	-13.44	-62.93	-11.62	0.044	0.1045	-0.51	
-0.40992	0.002074	0.858758	-12.81	-63.07	-10.78	0.0422	0.1144	-0.5087	
-0.422486	-0.010004	0.858636	-11.06	-60.76	-10.78	0.0329	0.1175	-0.5103	
-0.40443	-0.03538	0.858758	-10.29	-60.9	-10.36	0.0115	0.1126	-0.5163	
-0.345504	-0.040992	0.879742	-8.68	-61.6	-9.24	0.0038	0.1124	-0.5022	
-0.327692	-0.035624	0.898042	-6.23	-59.71	-8.61	-0.0038	0.1155	-0.5054	
-0.339648	-0.026352	0.894748	-2.8	-58.17	-8.33	-0.0162	0.1155	-0.4944	
-0.32635	-0.035746	0.899994	-0.07	-57.82	-7	-0.0208	0.1189	-0.5116	
-0.291824	-0.035258	0.921466	0.7	-58.1	-5.88	-0.0392	0.1177	-0.5006	
-0.2623	-0.03538	0.935252	1.33	-56.35	-5.25	-0.0501	0.1209	-0.5038	
-0.247416	-0.024034	0.9516	2.1	-54.18	-5.39	-0.0533	0.1266	-0.5024	
-0.216916	-0.024156	0.961238	1.61	-53.48	-5.11	-0.0686	0.124	-0.4975	
-0.192028	-0.023546	0.959774	1.82	-51.38	-5.25	-0.0733	0.1285	-0.5039	
-0.180194	-0.016836	0.97356	2.03	-48.58	-5.67	-0.0807	0.1174	-0.5035	
-0.165188	-0.019276	1.000888	0.56	-46.83	-6.3	-0.0885	0.1201	-0.4926	
-0.140056	-0.021472	1.006256	-0.63	-44.52	-6.02	-0.1052	0.115	-0.4971	
-0.1159	-0.02074	1.01565	0.49	-41.58	-5.39	-0.1006	0.1133	-0.4908	
-0.102602	-0.021838	1.028948	0.77	-38.15	-4.97	-0.1148	0.1278	-0.4896	
-0.09272	-0.028914	1.029192	-0.21	-36.12	-4.48	-0.1097	0.1107	-0.4907	
-0.08723	-0.027572	1.019066	-0.42	-34.44	-4.48	-0.1269	0.1179	-0.4799	
-0.0732	-0.020252	1.015284	-0.28	-33.18	-4.48	-0.1362	0.1207	-0.4706	
-0.054534	-0.024766	1.012356	0.21	-31.64	-3.85	-0.1329	0.1153	-0.4829	
-0.043554	-0.02257	1.008452	1.05	-29.47	-3.57	-0.1406	0.1138	-0.4719	
-0.032696	-0.026352	1.004548	0.56	-27.93	-2.94	-0.1515	0.1212	-0.4737	
-0.026596	-0.023546	1.00467	0.42	-26.18	-2.38	-0.1575	0.1157	-0.4735	
-0.02745	-0.013298	0.996374	0.35	-25.62	-1.96	-0.1499	0.1185	-0.4798	
-0.013542	-0.015372	0.99735	-0.42	-26.53	-1.82	-0.1528	0.1112	-0.4687	
-0.005734	-0.015494	0.99186	-0.56	-26.67	-1.96	-0.1622	0.1156	-0.4672	
0.002684	-0.028304	0.995764	-1.19	-26.53	-1.89	-0.1652	0.1127	-0.4609	
0.005246	-0.029524	0.995154	-0.63	-25.83	-2.31	-0.165	0.1057	-0.4653	
0.014396	-0.022692	1.00589	-0.28	-25.34	-2.45	-0.1713	0.113	-0.4686	
0.01769	-0.03233	1.024068	-0.21	-24.92	-1.89	-0.1743	0.1117	-0.467	
0.024766	-0.028914	1.026142	-0.21	-22.96	-1.82	-0.185	0.1076	-0.4653	
0.02745	-0.025986	1.032608	-0.21	-20.3	-2.17	-0.1851	0.1086	-0.4498	
0.037576	-0.032696	1.027606	-0.35	-17.57	-2.52	-0.2007	0.1161	-0.4483	
0.04758	-0.03172	1.02663	0.21	-14.28	-2.52	-0.1867	0.1101	-0.4513	
0.045384	-0.029646	1.015162	-0.07	-11.2	-2.59	-0.1897	0.109	-0.4575	
0.04209	-0.0244	1.00772	-0.42	-8.75	-2.52	-0.1988	0.1034	-0.4526	
0.033184	-0.025742	1.010038	-0.56	-6.65	-2.03	-0.188	0.1032	-0.4543	
0.03416	-0.031232	1.00345	-0.77	-5.04	-1.61	-0.1973	0.1059	-0.4418	
0.02928	-0.035502	0.99552	-0.35	-3.78	-1.54	-0.1975	0.1118	-0.4498	
0.021716	-0.036478	0.991128	0.21	-3.43	-1.68	-0.1867	0.1131	-0.4561	
0.019886	-0.03355	0.988322	0.84	-3.15	-1.47	-0.1883	0.1159	-0.4531	
0.01586	-0.028548	0.978806	1.19	-2.94	-0.98	-0.1974	0.1105	-0.456	
0.016104	-0.025254	0.98454	1.4	-2.45	-0.84	-0.1976	0.1172	-0.4422	
0.010126	-0.020374	0.979172	1.4	-1.75	-0.49	-0.2005	0.1136	-0.4607	
0.004392	-0.011956	0.973316	1.33	-1.54	-0.07	-0.1972	0.1048	-0.4543	
0.002562	-0.015982	0.986614	0.84	-1.82	-0.07	-0.1911	0.1047	-0.4543	
0.005368	-0.010126	0.98576	0.14	-2.1	-0.21	-0.1866	0.1072	-0.4481	
0.007686	-0.013054	0.986126	-0.28	-1.68	-0.28	-0.2036	0.1117	-0.4404	
0.011224	-0.01647	0.989664	-0.35	-1.4	-0.28	-0.1972	0.1032	-0.448	
0.012078	-0.0183	0.986614	0.07	-1.4	-0.77	-0.2006	0.1145	-0.4436	
0.013176	-0.023424	0.989542	-0.49	-0.98	-1.26	-0.1959	0.1102	-0.4466	
0.015128	-0.019154	0.993324	-0.21	-1.05	-1.61	-0.1896	0.1059	-0.4497	
0.024766	-0.027084	0.993446	0	-0.91	-2.03	-0.2019	0.1078	-0.4574	
0.030134	-0.029402	0.995764	0.35	0	-2.1	-0.1958	0.1059	-0.4434	
0.0305	-0.029402	0.997228	0.77	0.7	-2.03	-0.1896	0.1075	-0.4575	
0.034404	-0.030012	0.996252	1.05	1.12	-1.33	-0.2053	0.1174	-0.4421	
0.036478	-0.031476	0.997838	1.05	1.4	-0.84	-0.2019	0.1063	-0.4527	
0.043798	-0.034282	0.999302	0.98	2.31	-0.7	-0.1988	0.1017	-0.4433	
0.04819	-0.035014	1.004304	1.19	3.36	-0.49	-0.1909	0.099	-0.4557	
0.054168	-0.026718	1.011258	1.75	4.76	-0.35	-0.188	0.1032	-0.4543	
0.05795	-0.020984	1.024556	1.82	5.95	-0.14	-0.1943	0.1105	-0.456	
0.063928	-0.014884	1.031998	0.7	7.21	0.07	-0.1896	0.1044	-0.4449	
0.066612	-0.012322	1.040416	-0.63	9.8	0.21	-0.2018	0.1005	-0.4463	
0.075274	-0.02074	1.049566	-1.96	13.02	1.05	-0.1975	0.1133	-0.4529	
0.083814	-0.03172	1.056032	-1.96	17.22	1.75	-0.1959	0.1105	-0.456	
0.085644	-0.031232	1.06933	-1.96	21.77	1.75	-0.1801	0.0959	-0.4556	
0.083692	-0.02257	1.07238	-1.26	26.32	1.54	-0.1725	0.1001	-0.4605	
0.0793	-0.032086	1.070062	-1.19	30.66	1.19	-0.1852	0.1131	-0.4561	
0.07137	-0.032086	1.072136	-0.91	35.84	0.63	-0.1787	0.1015	-0.4527	
0.06588	-0.035258	1.066768	-0.28	41.37	0.84	-0.1742	0.106	-0.4653	
0.051118	-0.038918	1.067378	0	47.04	1.61	-0.1619	0.1087	-0.4732	
0.025864	-0.046604	1.050542	1.05	52.08	2.73	-0.1556	0.1029	-0.4762	
0.00122	-0.039406	1.03212	2.8	56.42	3.15	-0.1388	0.1024	-0.4732	
-0.032452	-0.032452	1.021018	3.78	60.62	3.71	-0.1356	0.1011	-0.4794	
-0.049654	-0.031842	1.016992	3.99	63.07	4.13	-0.1282	0.1109	-0.4828	
-0.069784	-0.030012	1.007354	3.64	66.5	4.41	-0.1143	0.1078	-0.4859	
-0.09882	-0.022204	0.99857	4.55	70.14	4.9	-0.1034	0.1032	-0.4827	
-0.142008	-0.014396	0.981734	4.97	73.85	5.18	-0.0854	0.1184	-0.4848	
-0.175314	-0.004026	0.963678	4.2	75.81	5.25	-0.0911	0.1031	-0.4906	
-0.206912	-0.00915	0.935374	3.22	77.7	5.11	-0.0682	0.1114	-0.5018	
-0.240828	-0.012322	0.929396	3.36	79.52	5.46	-0.0497	0.1096	-0.5065	
-0.27145	-0.012078	0.912316	4.41	80.85	5.53	-0.0451	0.1112	-0.516	
-0.30195	-0.003904	0.897066	5.74	82.32	5.53	-0.0267	0.1105	-0.5083	
-0.338794	-0.007198	0.88206	5.67	83.3	5.46	-0.0116	0.1172	-0.5085	
-0.372466	0.002806	0.856806	5.11	83.65	5.81	0.0103	0.101	-0.5066	
-0.407846	-0.001952	0.84729	4.62	84.42	6.23	0.0087	0.1024	-0.502	
-0.43554	0.000244	0.823622	5.39	84.84	5.53	0.0318	0.0975	-0.5019	
-0.462868	0.00427	0.810202	6.51	85.26	5.25	0.0485	0.1087	-0.5133	
-0.488488	0.023302	0.78629	6.58	84.77	5.74	0.0671	0.0982	-0.5068	
-0.512888	0.02806	0.768722	4.9	84.56	6.51	0.067	0.1024	-0.5038	
-0.536556	0.02501	0.759206	3.71	84	7.14	0.098	0.0902	-0.5021	
-0.565348	0.033916	0.74115	3.01	83.86	7.07	0.1009	0.0957	-0.4991	
-0.592432	0.036112	0.723094	1.96	83.37	7.42	0.1268	0.1052	-0.5089	
-0.620614	0.029158	0.698572	0.98	82.53	7.42	0.1314	0.1063	-0.498	
-0.643672	0.03355	0.69479	1.4	81.34	7.28	0.1393	0.0975	-0.4947	
-0.670634	0.034282	0.679052	2.73	79.94	7.42	0.1593	0.0926	-0.4915	
-0.685884	0.042822	0.657458	3.15	77.63	7.42	0.1746	0.0936	-0.4885	
-0.71065	0.040382	0.622322	2.03	75.32	7	0.1823	0.0964	-0.4933	
-0.742492	0.038186	0.613538	1.19	72.87	5.95	0.1945	0.0958	-0.484	
-0.749568	0.042456	0.596458	2.17	70.77	5.25	0.2098	0.09519999	-0.4763	
-0.773724	0.04392	0.58255	3.29	69.93	4.41	0.2099	0.0937	-0.4731	
-0.798368	0.050996	0.547414	4.34	69.23	3.29	0.2424	0.0844	-0.4715	
-0.82045	0.051972	0.52765	3.36	68.04	2.8	0.2636	0.092	-0.4578	
-0.841434	0.056242	0.509716	4.27	66.43	1.68	0.2682	0.0918	-0.4562	
-0.854976	0.054168	0.48617	5.32	64.75	1.4	0.2774	0.0915	-0.4547	
-0.865224	0.060878	0.472018	4.69	63.63	0.28	0.2944	0.0849	-0.4359	
-0.866932	0.05551	0.444446	3.99	61.6	0.07	0.2986	0.1005	-0.438	
-0.885842	0.051362	0.424316	3.85	60.13	0	0.3019	0.0874	-0.4282	
-0.896578	0.04453	0.416508	4.76	59.64	0.49	0.311	0.0944	-0.4332	
-0.894626	0.0549	0.417972	4.9	58.31	-0.14	0.3253	0.0741	-0.4295	
-0.9028	0.07015	0.397598	5.6	59.01	0.21	0.3265	0.0851	-0.4174	
-0.917074	0.063074	0.37576	0.84	57.89	0.91	0.3402	0.0888	-0.4114	
-0.942938	0.056608	0.338672	0.77	56.98	0.21	0.3492	0.097	-0.4085	
-0.959652	0.065514	0.30805	3.5	55.44	-0.56	0.3463	0.0915	-0.4115	
-0.957456	0.057218	0.304146	1.4	53.76	-0.84	0.357	0.0881	-0.4005	
-0.960872	0.050996	0.295728	4.69	52.5	-0.84	0.3633	0.0806	-0.3894	
-0.95526	0.05551	0.271084	3.22	52.36	-0.91	0.3708	0.0874	-0.3881	
-0.96624	0.046482	0.256444	5.04	52.71	-1.75	0.3861	0.0898	-0.3851	
-0.983442	0.058316	0.252174	7.42	53.62	-1.05	0.3972	0.0735	-0.3707	
-0.983686	0.058316	0.238388	6.44	54.18	-2.38	0.3923	0.08199999	-0.3662	
-0.98576	0.05307	0.215818	1.89	52.08	-3.57	0.3999	0.0859	-0.3586	
-0.989176	0.059658	0.196298	5.67	49.7	-3.71	0.4061	0.07979999	-0.3491	
-0.989664	0.058438	0.175436	8.12	47.11	-2.38	0.4105	0.0882	-0.3478	
-0.986858	0.05551	0.149572	1.75	46.69	-2.87	0.4323	0.0777	-0.3461	
-1.004182	0.052216	0.1403	4.97	50.19	-1.89	0.4245	0.0822	-0.3493	
-0.996374	0.04758	0.13115	5.04	47.88	-0.56	0.4275	0.0802	-0.329	
-1.00101	0.04819	0.115412	5.39	46.06	0.35	0.432	0.0874	-0.3386	
-0.985028	0.055144	0.101138	1.33	44.52	-1.05	0.4428	0.084	-0.3276	
-1.004182	0.071736	0.09882	5.32	48.93	0.49	0.4413	0.0793	-0.3103	
-1.013576	0.0671	0.068564	3.08	46.34	-0.21	0.4626	0.0829	-0.3059	
-0.984418	0.044164	0.071126	3.36	44.1	-0.21	0.4551	0.076	-0.3041	
-1.00101	0.07076	0.029646	8.26	47.04	-0.28	0.4552	0.0715	-0.2946	
-1.01687	0.050752	0.025986	1.19	43.05	-0.63	0.4629	0.0713	-0.2962	
-1.013332	0.049166	0.018056	10.5	40.04	-0.91	0.4642	0.0781	-0.2855	
-1.02724	0.06649	-0.009638	10.29	39.13	-1.12	0.4764	0.07889999	-0.2762	
-1.02663	0.063074	-0.000244	10.15	36.47	0.56	0.4793	0.0814	-0.2639	
-1.036634	0.061732	-0.019764	15.68	35	2.94	0.4768	0.0631	-0.268	
-1.02602	0.062586	-0.043554	16.38	27.93	1.96	0.4842	0.0698	-0.2589	
-1.012356	0.05856	-0.016714	15.4	24.78	2.24	0.4875	0.0641	-0.2603	
-1.022482	0.061366	-0.018178	15.68	27.37	1.61	0.4891	0.0595	-0.2508	
-1.027606	0.057828	-0.027328	20.86	22.75	-2.1	0.4766	0.0685	-0.2572	
-1.009672	0.056974	-0.04148	18.55	20.44	-1.26	0.4873	0.0663	-0.237	
-1.022848	0.044774	-0.046848	24.01	19.18	-0.42	0.492	0.0651	-0.2494	
-1.017236	0.046604	-0.064294	23.73	16.73	-3.71	0.4967	0.0603	-0.2337	
-1.031388	0.05124	-0.06405	24.85	16.59	-3.78	0.5011	0.0661	-0.2417	
-1.014674	0.05551	-0.066978	24.22	13.65	-4.2	0.4876	0.0563	-0.2336	
-1.02785	0.052582	-0.091134	23.73	12.25	-4.13	0.4999	0.0547	-0.2383	
-1.025166	0.034282	-0.087596	26.53	4.55	-3.01	0.4997	0.0633	-0.2416	
-1.036878	0.04331	-0.093452	31.57	3.78	-1.82	0.4921	0.0605	-0.2368	
-1.053104	0.047214	-0.07869	29.12	-0.84	-0.84	0.4952	0.059	-0.2368	
-1.030168	0.046848	-0.072224	21.63	-3.64	-0.49	0.4937	0.056	-0.2274	
-1.040416	0.053558	-0.06588	19.18	-6.09	-1.26	0.4999	0.0531	-0.2304	
-1.027606	0.05246	-0.065514	18.83	-6.23	0.49	0.4847	0.0478	-0.2302	
-1.014064	0.0305	-0.05795	19.39	-6.37	0.7	0.5013	0.0558	-0.2274	
-1.033462	0.035624	-0.055144	24.85	-3.71	2.03	0.5014	0.0546	-0.2383	
-1.016748	0.054046	-0.063562	24.5	-4.9	3.57	0.4925	0.0436	-0.241	
-1.010404	0.048922	-0.06283	17.36	-5.11	2.38	0.4956	0.0433	-0.2332	
-1.009184	0.053314	-0.057828	18.62	-3.64	0.77	0.4878	0.0479	-0.2364	
-1.020896	0.0488	-0.055266	21.56	-1.89	0.63	0.5092	0.0486	-0.2319	
-1.018944	0.053924	-0.062586	21.91	-1.26	2.17	0.4862	0.0506	-0.2318	
-1.034316	0.056242	-0.059536	20.44	-0.77	1.54	0.5034	0.0373	-0.2284	
-1.02663	0.046726	-0.06893	20.79	-1.89	0.14	0.4988	0.036	-0.2252	
-1.023946	0.050874	-0.07515199	18.83	-0.63	0	0.4943	0.0332	-0.2236	
-1.034194	0.045994	-0.058682	17.29	-2.59	-0.28	0.4852	0.0308	-0.2297	
-1.031754	0.049776	-0.060512	15.89	-3.5	-1.96	0.4927	0.0362	-0.2299	
-1.015406	0.035868	-0.057706	14.28	-3.99	-1.26	0.49	0.0223	-0.2357	
-1.018944	0.04941	-0.047702	13.51	-4.06	1.19	0.4896	0.0379	-0.2346	
-1.022604	0.046848	-0.045384	9.87	-3.29	0.7	0.4972	0.0406	-0.2394	
-1.015162	0.041724	-0.044774	9.1	-0.42	-1.19	0.5034	0.0404	-0.2379	
-1.021262	0.04758	-0.038552	6.44	1.4	-2.87	0.4895	0.0421	-0.2363	
-1.037	0.041114	-0.05307	3.92	1.26	-2.38	0.499	0.032	-0.236	
-1.023092	0.037088	-0.05185	3.29	-2.17	0.84	0.4944	0.0304	-0.2266	
-1.016626	0.03843	-0.047458	2.03	-3.08	1.12	0.4958	0.0317	-0.2235	
-1.024068	0.03843	-0.048312	-0.21	-4.69	0.84	0.4868	0.0297	-0.2452	
-1.018456	0.044286	-0.059658	-1.4	-5.95	0.84	0.4881	0.0381	-0.2408	
-1.02724	0.05124	-0.0549	-3.22	-4.41	2.52	0.4912	0.0366	-0.2424	
-1.033584	0.03904	-0.052582	-4.13	-4.69	1.89	0.4976	0.0266	-0.2437	
-1.034194	0.036112	-0.053192	-4.62	-6.16	1.26	0.4897	0.0352	-0.2407	
-1.034438	0.04087	-0.054656	-6.79	-6.16	1.89	0.4866	0.0369	-0.2501	
-1.023458	0.040382	-0.035258	-8.12	-7.07	0.21	0.4788	0.0397	-0.2408	
-1.02419	0.038796	-0.01403	-10.01	-10.71	0.77	0.4912	0.0364	-0.2346	
-1.019554	0.034038	-0.015616	-13.23	-12.04	0.42	0.4852	0.0341	-0.2485	
-1.007354	0.043554	-0.011834	-16.31	-10.22	0.91	0.4805	0.037	-0.247	
-1.018334	0.040138	-0.020252	-18.48	-7.35	0.91	0.4884	0.0271	-0.253	
-1.02297	0.045872	-0.01891	-22.54	-6.58	4.13	0.485	0.0412	-0.2502	
-1.0187	0.035868	-0.01525	-27.51	-4.83	1.96	0.4851	0.037	-0.2517	
-1.036512	0.030378	-0.005734	-31.5	-2.87	-3.29	0.4878	0.0496	-0.249	
-1.060424	0.03111	0.004514	-38.22	-1.61	-5.95	0.4773	0.0413	-0.2455	
-1.05408	0.034282	0.008905999	-50.12	0	-9.17	0.4926	0.044	-0.2566	
-1.034682	0.03599	-0.018544	-60.34	-3.15	-7	0.4862	0.0539	-0.2506	
-1.010648	0.02928	-0.03721	-57.05	-5.81	-3.99	0.4753	0.0584	-0.2492	
-1.009428	0.042822	-0.051972	-42.28	-4.76	-0.07	0.4815	0.0571	-0.2569	
-1.03273	0.032086	-0.040626	-32.55	-3.85	1.4	0.4828	0.0655	-0.2572	
-1.040172	0.042212	-0.042822	-25.34	-9.8	4.34	0.4766	0.07009999	-0.262	
-1.018944	0.024156	-0.024888	-33.04	-19.32	4.69	0.4734	0.073	-0.262	
-1.036024	0.024766	-0.019642	-29.61	-23.03	3.71	0.4799	0.0631	-0.2711	
-0.992348	0.043554	-0.017202	-27.86	-33.6	2.59	0.4732	0.0801	-0.2638	
-1.017602	0.034282	-0.002684	-24.15	-34.51	2.73	0.4719	0.0761	-0.273	
-1.00467	0.040382	0.001952	-19.53	-40.39	3.08	0.4674	0.0705	-0.2713	
-1.020042	0.042822	0.027328	-16.66	-39.55	3.36	0.455	0.0799	-0.2933	
-1.040294	0.036234	0.025742	-13.23	-43.26	3.64	0.4642	0.0781	-0.2871	
-1.0126	0.046482	0.032574	-14.56	-46.69	3.85	0.4659	0.0726	-0.2947	
-1.006378	0.050264	0.034282	-10.99	-49.91	4.48	0.4474	0.0775	-0.301	
-1.009062	0.052826	0.061366	-8.61	-49.14	6.44	0.4581	0.0817	-0.3089	
-1.007964	0.038796	0.061366	-6.79	-49.56	8.26	0.4334	0.088	-0.3121	
-0.98881	0.039162	0.113094	-7.77	-47.04	9.59	0.446	0.075	-0.3118	
-1.03151	0.039162	0.098332	-8.82	-43.61	8.19	0.4306	0.0772	-0.3258	
-0.988078	0.050752	0.138958	-3.43	-43.75	9.87	0.4294	0.06879999	-0.3302	
-0.986126	0.068686	0.20008	-5.74	-43.89	10.85	0.4385	0.0733	-0.3475	
-0.964288	0.04758	0.251198	-4.62	-48.09	13.37	0.4263	0.0706	-0.3396	
-0.941718	0.065026	0.263032	-5.18	-43.12	11.97	0.4184	0.0795	-0.3507	
-0.946354	0.0427	0.232166	-7.49	-35.07	10.71	0.4124	0.0785	-0.36	
-0.98332	0.07015	0.221918	-4.83	-29.4	8.61	0.4064	0.0716	-0.3613	
-0.984784	0.09455	0.260836	-3.01	-27.09	6.72	0.4001	0.0805	-0.3678	
-0.978074	0.106018	0.293776	-2.8	-26.39	5.67	0.4003	0.0719	-0.3644	
-0.95831	0.119072	0.306098	-0.7	-22.12	3.99	0.4	0.0835	-0.3741	
-0.93757	0.113582	0.326716	3.36	-17.64	4.27	0.3957	0.0736	-0.3722	
-0.909754	0.091988	0.333548	3.15	-14.91	3.5	0.4019	0.0691	-0.369	
-0.906582	0.095038	0.338916	7.07	-12.95	2.59	0.3939	0.0824	-0.3803	
-0.922564	0.094794	0.339526	3.57	-10.43	0.49	0.3759	0.0672	-0.3782	
-0.939644	0.127246	0.330132	-1.54	-8.54	0	0.3866	0.0712	-0.3799	
-0.946964	0.106018	0.347822	-0.98	-8.68	0	0.3806	0.0626	-0.3687	
-0.94733	0.11163	0.346602	3.15	-7.28	0.7	0.3803	0.0756	-0.3785	
-0.942938	0.1159	0.35075	4.06	-7.77	0.84	0.3932	0.054	-0.3779	
-0.931714	0.110776	0.349652	5.04	-7.07	2.45	0.3852	0.0642	-0.3813	
-0.931226	0.115778	0.349042	2.73	-7.35	1.47	0.3804	0.0728	-0.3784	
-0.928542	0.110654	0.35319	0.84	-8.26	0.84	0.3851	0.07	-0.3861	
-0.930982	0.107238	0.35685	-0.14	-8.05	0.42	0.3697	0.0672	-0.3735	
-0.93757	0.11041	0.363804	-0.07	-7.7	-0.77	0.3835	0.0731	-0.3924	
-0.928664	0.109434	0.3599	-0.35	-8.75	-0.98	0.3729	0.0661	-0.3875	
-0.943304	0.10675	0.358192	1.61	-7.14	-1.47	0.3806	0.0658	-0.3844	
-0.939888	0.104798	0.36173	0.98	-7.35	-2.59	0.3713	0.0704	-0.3876	
-0.938058	0.10675	0.358802	1.12	-7.7	-3.43	0.3651	0.072	-0.3876	
-0.935008	0.103334	0.358192	0.63	-7.63	-4.41	0.3728	0.0673	-0.3782	
-0.929518	0.099186	0.362462	0.77	-7.84	-6.23	0.3728	0.0703	-0.3845	
-0.934764	0.100406	0.363072	0.7	-7.35	-7.56	0.3682	0.0691	-0.3907	
-0.939766	0.096258	0.363194	2.1	-6.51	-8.75	0.379	0.0674	-0.3891	
-0.935984	0.104798	0.36722	1.47	-6.23	-10.01	0.3774	0.0704	-0.3923	
-0.934642	0.09552599	0.367708	1.54	-5.88	-10.08	0.3697	0.0718	-0.3845	
-0.934154	0.091866	0.36905	1.47	-5.46	-11.48	0.3712	0.0733	-0.3908	
-0.935984	0.09638	0.36661	-1.12	-6.58	-12.95	0.3729	0.0674	-0.3844	
-0.934154	0.089426	0.37088	-3.78	-7.35	-13.72	0.3695	0.0803	-0.3848	
-0.938302	0.093818	0.374906	-9.38	-8.89	-16.24	0.3744	0.0707	-0.4001	
-0.926834	0.08174	0.365512	-13.79	-10.78	-18.48	0.3632	0.0832	-0.3817	
-0.935984	0.085278	0.360632	-12.04	-6.58	-24.01	0.36	0.0876	-0.3849	
-0.938424	0.074298	0.361974	-9.66	-3.99	-26.6	0.3571	0.0852	-0.3973	
-0.945988	0.072346	0.36295	-7.63	-3.85	-30.94	0.3538	0.0968	-0.4054	
-0.937692	0.060512	0.36051	-9.24	-9.52	-34.72	0.3508	0.09119999	-0.4052	
-0.931592	0.057828	0.367952	-7.49	-8.96	-39.69	0.3585	0.0926	-0.4131	
-0.914268	0.028182	0.36844	-10.01	-12.6	-42.63	0.3614	0.0981	-0.4102	
-0.923662	0.013542	0.371002	-7.49	-11.55	-47.11	0.3565	0.1096	-0.4089	
-0.915732	0.001586	0.385642	-4.41	-9.38	-51.17	0.3457	0.1098	-0.4073	
-0.922076	-0.02074	0.385154	-10.78	-13.65	-53.9	0.3439	0.1211	-0.4061	
-0.921832	-0.03477	0.391132	-13.02	-11.34	-55.44	0.3482	0.1308	-0.4017	
-0.902556	-0.056242	0.396988	-15.61	-12.95	-57.75	0.3404	0.1399	-0.416	
-0.900238	-0.086376	0.396744	-14.42	-13.02	-58.94	0.3449	0.1394	-0.402	
-0.915732	-0.105042	0.39406	-19.81	-15.75	-59.64	0.3464	0.1439	-0.413	
-0.899384	-0.11895	0.388082	-19.67	-21.21	-60.9	0.3304	0.1655	-0.412	
-0.895968	-0.144326	0.390888	-15.05	-21	-59.43	0.3183	0.1616	-0.4134	
-0.884134	-0.162382	0.410408	-18.34	-19.74	-59.64	0.3211	0.1715	-0.4168	
-0.88755	-0.20374	0.403454	-16.87	-20.79	-55.93	0.3179	0.1775	-0.4279	
-0.876082	-0.224602	0.401136	-18.9	-23.8	-52.85	0.3113	0.1928	-0.4096	
-0.86986	-0.241926	0.406626	-20.51	-25.27	-51.52	0.3067	0.1917	-0.4173	
-0.84058	-0.26657	0.430172	-19.39	-24.22	-49.77	0.2913	0.1951	-0.4236	
-0.840092	-0.288042	0.420778	-16.8	-23.59	-50.19	0.2956	0.2077	-0.4224	
-0.83448	-0.339526	0.450668	-20.65	-25.69	-46.55	0.2769	0.2136	-0.4147	
-0.827892	-0.376614	0.462136	-23.45	-26.39	-46.62	0.2828	0.228	-0.4292	
-0.802516	-0.377956	0.456646	-21	-26.81	-47.95	0.2705	0.2267	-0.4229	
-0.800686	-0.398696	0.440542	-20.72	-23.59	-48.79	0.2581	0.2312	-0.4214	
-0.803492	-0.431758	0.444568	-24.22	-22.19	-50.26	0.2579	0.2386	-0.4309	
-0.771528	-0.433344	0.449204	-25.06	-22.75	-50.96	0.2502	0.2388	-0.4309	
-0.776408	-0.460306	0.459574	-22.4	-21.14	-49	0.25	0.2486	-0.4281	
-0.756644	-0.465796	0.480924	-25.76	-21.35	-48.58	0.2329	0.2548	-0.4313	
-0.750422	-0.491172	0.471774	-24.36	-21.28	-48.58	0.2311	0.2632	-0.4269	
-0.712968	-0.485682	0.46177	-22.19	-20.86	-48.09	0.2187	0.2706	-0.427	
-0.698572	-0.506056	0.451278	-18.2	-17.71	-44.52	0.2217	0.2738	-0.4443	
-0.677954	-0.524844	0.454816	-15.89	-16.73	-40.67	0.2077	0.2811	-0.4397	
-0.68137	-0.52277	0.446154	-16.31	-15.75	-36.96	0.2046	0.2795	-0.4303	
-0.674172	-0.539606	0.470066	-13.51	-17.01	-32.06	0.2014	0.2869	-0.4399	
-0.670024	-0.531798	0.480436	-11.9	-17.57	-30.03	0.203	0.2809	-0.4288	
-0.664778	-0.556198	0.489708	-11.9	-17.5	-27.23	0.189	0.2899	-0.4337	
-0.649162	-0.539728	0.487878	-11.55	-16.03	-25.9	0.1904	0.2926	-0.4306	
-0.628666	-0.563396	0.498004	-9.73	-17.36	-25.83	0.1811	0.2985	-0.4292	
-0.621712	-0.556442	0.49593	-11.13	-16.38	-25.83	0.1733	0.3001	-0.4292	
-0.619394	-0.564982	0.481778	-10.43	-15.33	-26.04	0.1701	0.3043	-0.4262	
-0.6161	-0.601948	0.49776	-8.54	-13.37	-24.57	0.1702	0.303	-0.4308	
-0.621102	-0.61427	0.50264	-8.61	-11.69	-23.73	0.1533	0.3049	-0.4339	
-0.617442	-0.616954	0.49776	-9.1	-11.48	-23.59	0.1593	0.3092	-0.4403	
-0.607316	-0.632204	0.492026	-9.17	-10.15	-22.19	0.1546	0.3121	-0.4388	
-0.59658	-0.63745	0.485804	-8.75	-9.45	-21.49	0.1517	0.3079	-0.4371	
-0.584624	-0.637694	0.489098	-7.84	-9.24	-19.81	0.1453	0.3167	-0.442	
-0.58072	-0.640622	0.488244	-5.39	-8.54	-18.97	0.1389	0.3267	-0.4407	
-0.574864	-0.642208	0.492758	-4.76	-8.19	-17.36	0.1452	0.3179	-0.4327	
-0.569618	-0.646722	0.50325	-5.25	-6.44	-14.35	0.1375	0.3194	-0.4296	
-0.553758	-0.645258	0.49532	-6.3	-6.58	-12.39	0.1421	0.321	-0.4421	
-0.552172	-0.656116	0.506178	-5.67	-5.6	-10.71	0.1389	0.3266	-0.4345	
-0.55205	-0.6588	0.50935	-5.46	-3.85	-8.54	0.1251	0.324	-0.4312	
-0.55266	-0.656238	0.504226	-4.83	-4.06	-8.12	0.1299	0.3182	-0.4326	
-0.563274	-0.659776	0.501176	-3.22	-4.69	-8.96	0.1205	0.3254	-0.4281	
-0.5673	-0.689666	0.502518	-2.66	-4.62	-9.17	0.1204	0.3285	-0.436	
-0.553758	-0.68747	0.494344	-0.91	-4.41	-9.87	0.1268	0.3182	-0.4295	
-0.553758	-0.69296	0.496052	-0.7	-3.29	-9.66	0.1219	0.3283	-0.4298	
-0.543632	-0.67405	0.5002	-1.4	-2.03	-9.31	0.1262	0.338	-0.427	
-0.537776	-0.661484	0.50203	-2.03	-0.56	-8.82	0.1279	0.3339	-0.4362	
-0.533262	-0.651724	0.499224	-3.99	-0.21	-8.89	0.1174	0.3286	-0.4391	
-0.53131	-0.662704	0.495198	-2.24	-0.49	-8.19	0.1222	0.3168	-0.4232	
-0.53192	-0.662948	0.497394	-2.52	-0.7	-7.56	0.1127	0.3284	-0.4266	
-0.534116	-0.665388	0.497272	-2.31	-0.49	-6.86	0.1143	0.3272	-0.4344	
-0.530944	-0.666852	0.505934	-3.78	0.28	-5.95	0.1156	0.3343	-0.4362	
-0.525698	-0.672708	0.501542	-4.06	1.19	-5.39	0.1203	0.3341	-0.4362	
-0.536068	-0.673318	0.485804	-3.36	0.49	-5.67	0.1236	0.3243	-0.4406	
-0.54351	-0.680638	0.488732	-3.99	0.28	-5.6	0.1232	0.3366	-0.4269	
-0.538752	-0.675148	0.488366	-4.13	0.14	-5.04	0.1235	0.3282	-0.4298	
-0.538752	-0.67771	0.486292	-2.94	0.28	-4.69	0.1172	0.3312	-0.4298	
-0.532408	-0.682956	0.485072	-2.1	-0.07	-4.34	0.1202	0.334	-0.4315	
-0.532408	-0.683444	0.48861	-1.96	-0.14	-3.78	0.1094	0.3354	-0.4206	
-0.532286	-0.689178	0.48617	-0.98	0.28	-3.64	0.105	0.3316	-0.4345	
-0.542534	-0.699914	0.483242	-0.14	0.77	-3.01	0.1156	0.3309	-0.4158	
-0.549244	-0.68259	0.475434	-1.75	0.28	-2.1	0.1112	0.3269	-0.4203	
-0.545218	-0.686494	0.473482	-1.05	-0.35	-1.26	0.1034	0.333	-0.4314	
-0.548512	-0.681858	0.470188	-0.91	-0.91	-1.12	0.1092	0.3426	-0.4239	
-0.5368	-0.68381	0.47946	0.14	-0.98	-0.42	0.1185	0.3425	-0.4286	
-0.532896	-0.680028	0.48495	0.21	-1.33	0.07	0.1156	0.3356	-0.4331	
-0.532408	-0.668682	0.485316	0.7	-0.63	1.19	0.1078	0.3337	-0.4081	
-0.530334	-0.667218	0.481412	1.4	-0.35	1.61	0.1066	0.3303	-0.4375	
-0.533018	-0.66246	0.477752	1.19	-0.07	1.61	0.1201	0.3413	-0.4395	
-0.53985	-0.663802	0.481534	0.42	-0.07	1.61	0.1142	0.3331	-0.4439	
-0.538996	-0.672464	0.483974	-0.84	-0.7	1.33	0.111	0.3325	-0.4205	
-0.544486	-0.671732	0.482022	-0.7	-0.84	0.84	0.1063	0.3371	-0.4284	
-0.54107	-0.671366	0.480436	-0.56	-0.63	0.77	0.1171	0.3354	-0.4284	
-0.543266	-0.66917	0.479216	0.21	-0.77	0.63	0.1124	0.3398	-0.4285	
-0.540216	-0.676856	0.485804	1.82	-0.49	0.84	0.1139	0.3382	-0.4222	
-0.538264	-0.687226	0.48922	3.15	-0.14	0.56	0.1157	0.3298	-0.4282	
-0.539728	-0.68747	0.49166	2.66	0.21	1.26	0.1185	0.3411	-0.4286	
-0.5368	-0.689422	0.491904	2.45	0.49	2.52	0.1109	0.3416	-0.441	
-0.533872	-0.68747	0.492636	3.99	1.26	4.06	0.1171	0.337	-0.4347	
-0.538508	-0.676734	0.495076	4.83	2.17	5.67	0.1143	0.327	-0.4281	
-0.542656	-0.679052	0.498126	4.69	1.96	7.28	0.1081	0.3301	-0.4313	
-0.543144	-0.682834	0.501786	5.81	2.03	9.94	0.1066	0.3272	-0.4281	
-0.542168	-0.684054	0.500078	8.47	1.68	11.76	0.1265	0.3266	-0.4235	
-0.53741	-0.667706	0.507276	10.22	1.33	13.02	0.1233	0.3341	-0.4377	
-0.53619	-0.662216	0.514962	12.25	1.33	15.89	0.1222	0.3198	-0.4326	
-0.514718	-0.655994	0.52399	17.71	3.64	20.58	0.1235	0.3254	-0.4313	
-0.522526	-0.605364	0.518012	23.94	5.95	28.7	0.1282	0.3257	-0.4453	
-0.548024	-0.596458	0.50996	31.29	5.74	39.76	0.1237	0.3213	-0.4358	
-0.599142	-0.657702	0.498492	26.11	1.26	50.61	0.1299	0.3184	-0.4373	
-0.651236	-0.71126	0.492758	23.87	0.28	57.96	0.1332	0.3128	-0.4434	
-0.569496	-0.679296	0.51972	24.22	8.96	55.3	0.1395	0.3041	-0.4416	
-0.57584	-0.644892	0.543388	32.27	13.37	59.15	0.149	0.294	-0.4445	
-0.604632	-0.567666	0.539972	33.53	17.29	52.99	0.1645	0.2891	-0.4335	
-0.729926	-0.666242	0.5307	17.99	11.9	57.4	0.1752	0.2907	-0.4507	
-0.6222	-0.592676	0.54107	20.44	14.77	48.23	0.1849	0.2719	-0.444	
-0.62403	-0.57584	0.549854	21.77	13.86	50.96	0.1803	0.2732	-0.4378	
-0.633668	-0.530212	0.553392	25.9	21.14	54.18	0.1974	0.2629	-0.4376	
-0.653554	-0.47946	0.552904	25.97	24.64	56.56	0.2005	0.2644	-0.4454	
-0.701988	-0.468114	0.52887	25.97	23.59	52.01	0.2026	0.2449	-0.4558	
-0.727486	-0.482144	0.5124	23.73	19.95	53.41	0.2133	0.249	-0.4606	
-0.677222	-0.510326	0.53009	24.78	20.16	56.98	0.2118	0.2444	-0.448	
-0.723216	-0.476532	0.536312	29.12	28.49	58.31	0.2275	0.2328	-0.4509	
-0.71004	-0.460428	0.51728	28.21	29.19	61.18	0.2354	0.2228	-0.4553	
-0.763842	-0.441518	0.507276	26.25	27.72	59.5	0.2462	0.2195	-0.449	
-0.740174	-0.381372	0.527528	31.43	26.95	53.62	0.2433	0.2124	-0.4441	
-0.757254	-0.351238	0.530456	30.24	27.02	53.41	0.2511	0.2124	-0.4504	
-0.78507	-0.34648	0.516914	26.67	31.15	58.24	0.2635	0.2045	-0.4331	
-0.769576	-0.33245	0.4758	25.69	26.46	61.39	0.2576	0.1965	-0.4453	
-0.809836	-0.250344	0.486048	28.07	30.59	56.84	0.2748	0.1817	-0.4356	
-0.82716	-0.24217	0.473116	29.61	29.12	56.07	0.2826	0.1755	-0.423	
-0.838018	-0.232776	0.471896	27.51	29.96	58.87	0.2967	0.1684	-0.4353	
-0.840458	-0.223504	0.442738	23.03	21.77	61.18	0.2939	0.1555	-0.4271	
-0.848144	-0.161406	0.454572	23.31	23.38	59.36	0.308	0.1468	-0.4332	
-0.85766	-0.124196	0.447252	22.12	23.94	61.11	0.3125	0.1494	-0.4286	
-0.854488	-0.114436	0.441274	22.26	23.87	62.86	0.3175	0.135	-0.4235	
-0.87047	-0.096624	0.420412	23.94	20.3	63	0.3179	0.1223	-0.4262	
-0.874618	-0.067954	0.412848	23.38	18.97	62.51	0.3256	0.1189	-0.4137	
-0.887062	-0.029036	0.40443	21.7	19.32	61.39	0.3258	0.1108	-0.4259	
-0.901092	-0.021472	0.38186	23.31	19.6	62.93	0.3306	0.1049	-0.4211	
-0.906094	0.006954	0.378322	22.54	19.25	62.3	0.3355	0.0932	-0.413	
-0.898408	0.022326	0.369416	23.38	16.87	63.07	0.3355	0.0918	-0.4145	
-0.876448	0.037454	0.382226	25.27	17.57	65.1	0.3436	0.0761	-0.4157	
-0.887184	0.09076799	0.379542	22.96	18.13	66.15	0.3452	0.07449999	-0.4094	
-0.876936	0.117974	0.386496	19.32	14.98	68.67	0.3426	0.0562	-0.4135	
-0.874984	0.14701	0.38796	21.28	14.07	69.02	0.3399	0.0421	-0.4131	
-0.865102	0.167994	0.379176	20.09	11.06	69.72	0.3551	0.0456	-0.3977	
-0.868274	0.195566	0.367708	22.96	12.67	69.44	0.366	0.0382	-0.3975	
-0.872178	0.218258	0.348554	21.63	12.18	70.77	0.3525	0.0304	-0.4081	
-0.871812	0.24278	0.332084	21.28	11.55	72.59	0.3466	0.0202	-0.3938	
-0.886818	0.274988	0.332694	23.8	11.62	72.94	0.3577	0.0058	-0.395	
-0.87474	0.311344	0.338184	25.41	8.75	73.08	0.347	0.0045	-0.3871	
-0.85705	0.333548	0.35807	25.83	7.14	72.38	0.3477	-0.0222	-0.391	
-0.836432	0.376126	0.34892	23.8	6.86	71.54	0.3506	-0.0181	-0.388	
-0.832162	0.376492	0.338062	24.22	7.7	72.45	0.3403	-0.0337	-0.3781	
-0.826916	0.40504	0.336842	22.05	10.36	70.98	0.3484	-0.0492	-0.3902	
-0.835578	0.420168	0.33245	21.7	8.82	68.11	0.3549	-0.0655	-0.3679	
-0.827282	0.458476	0.320738	25.34	8.68	64.75	0.3426	-0.0638	-0.3679	
-0.821426	0.474702	0.323056	23.87	10.71	60.69	0.3458	-0.068	-0.3725	
-0.820816	0.498004	0.29585	22.05	9.94	56.7	0.334	-0.0862	-0.3672	
-0.84241	0.541436	0.306342	14.77	11.48	52.85	0.3369	-0.08199999	-0.3689	
-0.825452	0.562786	0.2745	22.4	7.42	51.94	0.3355	-0.0862	-0.3672	
-0.829478	0.55022	0.271084	21.42	11.9	48.72	0.3313	-0.1003	-0.3668	
-0.82716	0.576206	0.250954	25.69	11.34	44.31	0.333	-0.1076	-0.3588	
-0.80825	0.574742	0.25376	24.99	12.25	44.1	0.3224	-0.1144	-0.3616	
-0.800076	0.596458	0.241682	23.59	8.82	42.07	0.3269	-0.1118	-0.3555	
-0.794098	0.601704	0.238998	21.98	8.05	42.07	0.3286	-0.1146	-0.3586	
-0.782874	0.600362	0.232776	18.55	4.9	42	0.3229	-0.1331	-0.3502	
-0.78202	0.623664	0.222894	17.22	2.73	45.08	0.32	-0.1385	-0.3562	
-0.76738	0.693814	0.239852	12.67	-1.4	45.15	0.3092	-0.1416	-0.3358	
-0.741272	0.7015	0.220332	16.45	-5.74	46.34	0.3171	-0.1502	-0.3387	
-0.75274	0.709552	0.233386	20.65	-2.59	43.12	0.308	-0.1498	-0.3481	
-0.739808	0.726266	0.233386	21	-6.93	39.41	0.3067	-0.1612	-0.3415	
-0.72163	0.726388	0.216916	24.29	-7.28	37.17	0.3069	-0.1682	-0.3444	
-0.717604	0.704062	0.215574	23.87	-6.86	35.28	0.2917	-0.1752	-0.3348	
-0.713456	0.71492	0.2196	21	-9.87	30.73	0.2885	-0.1694	-0.3349	
-0.701012	0.72285	0.214598	22.33	-11.27	27.02	0.2903	-0.1794	-0.3346	
-0.690398	0.728096	0.217892	24.08	-11.2	23.1	0.2813	-0.1873	-0.3468	
-0.669048	0.717726	0.241316	20.02	-12.04	20.16	0.2754	-0.1976	-0.3293	
-0.658556	0.712968	0.23912	19.67	-10.71	18.9	0.2781	-0.1837	-0.322	
-0.666852	0.732122	0.222162	19.25	-8.4	17.57	0.2753	-0.1949	-0.3216	
-0.658434	0.702842	0.233508	17.78	-9.1	17.01	0.2676	-0.1961	-0.3231	
-0.646844	0.72834	0.230336	18.41	-9.66	15.54	0.2739	-0.2019	-0.323	
-0.65514	0.743834	0.208132	17.99	-10.01	15.19	0.26	-0.1957	-0.3309	
-0.645624	0.752374	0.219722	16.94	-9.17	15.12	0.2587	-0.2088	-0.3149	
-0.657214	0.754082	0.2196	16.87	-10.08	14.7	0.2541	-0.2041	-0.3275	
-0.636718	0.765916	0.21655	14.98	-12.25	13.93	0.2557	-0.2101	-0.3164	
-0.627568	0.788242	0.218136	15.12	-12.81	14.49	0.2498	-0.2185	-0.3146	
-0.640622	0.805078	0.20557	16.87	-11.83	15.26	0.2559	-0.217	-0.324	
-0.638792	0.789218	0.214232	14.56	-12.88	15.82	0.2438	-0.2255	-0.3128	
-0.635132	0.801906	0.229482	12.6	-12.88	12.74	0.2424	-0.2283	-0.3143	
-0.62098	0.79178	0.235826	11.2	-12.95	10.15	0.2361	-0.2209	-0.3191	
-0.606584	0.785436	0.23607	9.59	-11.97	8.75	0.2394	-0.2324	-0.3141	
-0.604998	0.781166	0.223504	9.45	-10.22	8.05	0.2362	-0.2282	-0.3127	
-0.610488	0.777628	0.216428	7.14	-8.05	6.44	0.2396	-0.238	-0.3186	
-0.614026	0.788242	0.218136	3.5	-6.86	5.95	0.2271	-0.2321	-0.3172	
-0.607072	0.788608	0.207522	0	-6.02	5.25	0.2164	-0.232	-0.3109	
-0.617076	0.786534	0.212524	5.95	-7	7.14	0.2318	-0.2321	-0.3188	
-0.611952	0.782752	0.222162	4.2	-6.44	7.84	0.2299	-0.2239	-0.3065	
-0.59414	0.793366	0.23058	2.73	-6.37	8.75	0.2212	-0.2376	-0.317	
-0.588406	0.785436	0.233996	0.56	-4.55	9.1	0.2333	-0.2338	-0.3094	
-0.590602	0.774334	0.230946	0.91	-2.52	8.75	0.2301	-0.2293	-0.3188	
-0.590114	0.778238	0.232044	0.28	-0.84	7.42	0.2273	-0.2392	-0.3154	
-0.582428	0.77531	0.22692	0.84	-0.7	7.28	0.2024	-0.2273	-0.3125	
-0.587186	0.782996	0.224114	1.68	-0.49	6.72	0.2163	-0.2275	-0.3188	
-0.593774	0.78812	0.226432	1.82	-0.63	6.93	0.2058	-0.2387	-0.3138	
-0.590114	0.799222	0.22265	1.54	-1.05	7.28	0.2027	-0.2342	-0.3201	
-0.58499	0.80215	0.218502	1.12	-0.98	6.65	0.2136	-0.2446	-0.3105	
-0.58682	0.799466	0.2196	0.35	0.49	5.81	0.2151	-0.2433	-0.309	
-0.587064	0.806786	0.220332	0.98	-0.07	5.18	0.2244	-0.2448	-0.3152	
-0.577792	0.803858	0.213256	-0.21	0	5.25	0.2057	-0.2358	-0.3154	
-0.582062	0.795562	0.210206	-1.4	0.35	4.9	0.2136	-0.2432	-0.3106	
-0.59231	0.81008	0.219112	-1.75	0.42	4.9	0.2121	-0.2461	-0.3089	
-0.582184	0.79788	0.222284	-1.75	-0.21	4.27	0.2089	-0.2404	-0.3044	
-0.572912	0.806786	0.225822	-1.26	0.42	3.15	0.2042	-0.236	-0.306	
-0.572302	0.819962	0.221918	0.42	0.56	2.73	0.2091	-0.2477	-0.2979	
-0.573644	0.813008	0.206546	1.61	0.84	3.5	0.2042	-0.2372	-0.3138	
-0.585112	0.814716	0.212768	3.01	0.91	3.64	0.2181	-0.2408	-0.2982	
-0.582306	0.807762	0.20191	2.1	0.35	3.29	0.2122	-0.2474	-0.3104	
-0.581086	0.813618	0.20557	1.89	-0.49	3.01	0.2074	-0.2419	-0.3028	
-0.578646	0.819962	0.20618	0.42	-0.28	1.75	0.2045	-0.2471	-0.3151	
-0.572058	0.803248	0.206546	-0.49	-0.84	1.4	0.2121	-0.2414	-0.3231	
-0.568276	0.812398	0.208986	-1.33	-0.28	1.82	0.2136	-0.2415	-0.3199	
-0.58011	0.808128	0.216916	-0.98	-0.7	2.1	0.2091	-0.2487	-0.3119	
-0.584258	0.818742	0.210572	-0.28	-1.12	1.89	0.2059	-0.24	-0.3184	
-0.57828	0.809348	0.21716	-1.61	-1.4	2.31	0.2118	-0.233	-0.3186	
-0.578524	0.812032	0.214964	-1.61	-1.05	1.61	0.1999	-0.2454	-0.3229	
-0.571204	0.807762	0.218258	-1.47	-1.82	1.61	0.2029	-0.2457	-0.3135	
-0.570106	0.813374	0.21777	-1.26	-1.47	1.33	0.2013	-0.2412	-0.3215	
-0.577182	0.816912	0.22082	-2.45	-0.91	0.14	0.2075	-0.2428	-0.3199	
-0.571082	0.814228	0.213744	-2.38	-1.26	-0.28	0.209	-0.2415	-0.3168	
-0.569374	0.822036	0.213866	-1.05	-1.75	-0.28	0.2043	-0.2399	-0.3184	
-0.569496	0.825086	0.210084	-2.24	-2.03	-1.12	0.2105	-0.2416	-0.3137	
-0.576816	0.828624	0.210084	-2.17	-2.17	-1.82	0.2027	-0.2372	-0.3138	
-0.573156	0.82899	0.221552	-3.01	-2.73	-2.31	0.2044	-0.243	-0.309	
-0.57157	0.83143	0.22814	-5.39	-2.8	-3.08	0.2029	-0.2428	-0.3167	
-0.564738	0.820572	0.22875	-7.21	-3.08	-3.43	0.2105	-0.2416	-0.3153	
-0.564494	0.820084	0.229116	-8.75	-2.17	-4.2	0.201	-0.2331	-0.3077	
-0.574132	0.818498	0.23363	-7.63	-2.45	-5.53	0.1968	-0.2438	-0.3245	
-0.577792	0.831918	0.238754	-8.47	-3.78	-7.63	0.2119	-0.2361	-0.3123	
-0.580232	0.823134	0.23912	-10.85	-5.46	-9.31	0.201	-0.2297	-0.328	
-0.574742	0.8235	0.232044	-10.08	-5.39	-10.29	0.2086	-0.2287	-0.3187	
-0.574986	0.827648	0.235094	-10.64	-5.88	-10.99	0.2104	-0.2356	-0.3263	
-0.584502	0.832284	0.245708	-13.79	-5.39	-13.3	0.213	-0.2205	-0.3128	
-0.588894	0.837286	0.26352	-17.29	-5.6	-15.96	0.2042	-0.2341	-0.3263	
-0.587674	0.832162	0.269864	-21.63	-4.97	-18.27	0.2118	-0.2284	-0.3343	
-0.587308	0.839116	0.263032	-22.89	-4.97	-21.91	0.2102	-0.2285	-0.3281	
-0.593774	0.845582	0.25864	-26.88	-3.57	-25.34	0.2177	-0.2199	-0.3377	
-0.59719	0.831552	0.260836	-29.33	-2.66	-28.77	0.2283	-0.2131	-0.3396	
-0.602314	0.815692	0.279502	-31.43	0.07	-32.48	0.2147	-0.2195	-0.3502	
-0.607682	0.798368	0.284504	-34.72	2.1	-35	0.2252	-0.2114	-0.3474	
-0.594384	0.770552	0.291092	-37.52	5.32	-38.64	0.228	-0.2014	-0.3539	
-0.612074	0.745542	0.309392	-37.8	8.61	-40.25	0.2308	-0.1885	-0.3605	
-0.622444	0.746518	0.31293	-38.5	7.56	-43.54	0.2416	-0.1904	-0.3543	
-0.642696	0.728218	0.321836	-39.13	9.24	-45.78	0.2427	-0.1743	-0.3735	
-0.655628	0.704428	0.335378	-39.9	10.29	-47.04	0.2487	-0.1677	-0.3628	
-0.64416	0.690276	0.320616	-39.27	9.87	-48.37	0.2654	-0.1609	-0.3693	
-0.660142	0.66185	0.315492	-35.63	10.43	-50.68	0.2527	-0.1462	-0.3744	
-0.675514	0.632692	0.326472	-37.17	11.55	-52.36	0.2665	-0.1405	-0.3886	
-0.710284	0.605974	0.340868	-38.5	12.95	-52.78	0.2802	-0.1379	-0.3934	
-0.73688	0.618906	0.34343	-30.66	11.69	-52.71	0.289	-0.1242	-0.3877	
-0.73078	0.617564	0.340136	-30.94	6.65	-49.35	0.2904	-0.1156	-0.3895	
-0.722728	0.577182	0.34892	-33.04	5.46	-50.26	0.2948	-0.1086	-0.3913	
-0.754936	0.552904	0.370026	-40.53	8.75	-53.27	0.2913	-0.09299999	-0.3917	
-0.77653	0.531432	0.361608	-41.02	10.36	-54.32	0.2992	-0.0986	-0.3994	
-0.764818	0.559858	0.342332	-34.16	4.55	-53.06	0.3047	-0.0778	-0.3891	
-0.787754	0.520208	0.354654	-32.9	4.13	-52.43	0.2985	-0.0777	-0.3891	
-0.794464	0.47336	0.368074	-28.77	5.11	-54.46	0.3168	-0.0694	-0.3972	
-0.81557	0.480802	0.363804	-27.93	1.05	-54.53	0.3044	-0.0645	-0.4113	
-0.815204	0.411628	0.369416	-29.61	-1.61	-54.32	0.3286	-0.0527	-0.3962	
-0.814228	0.399916	0.38735	-32.27	-0.28	-55.72	0.3237	-0.0394	-0.4137	
-0.822768	0.369904	0.402478	-33.67	-0.42	-55.72	0.3205	-0.0353	-0.4045	
-0.839482	0.360876	0.400282	-25.69	-0.35	-53.69	0.3292	-0.0158	-0.4035	
-0.834114	0.334402	0.38247	-22.19	-6.16	-53.06	0.32	-0.0167	-0.4112	
-0.843508	0.320006	0.396622	-22.05	-6.72	-53.41	0.3273	-0.0028	-0.4101	
-0.856684	0.278648	0.415044	-21.28	-10.64	-50.75	0.3242	0.0016	-0.4165	
-0.863394	0.275842	0.420412	-19.46	-7.91	-51.17	0.3209	0.0089	-0.4214	
-0.868762	0.25315	0.423706	-16.45	-6.37	-51.17	0.3269	0.0129	-0.4199	
-0.864004	0.25132	0.409676	-14.35	-9.1	-51.52	0.3316	0.0114	-0.4184	
-0.872666	0.203862	0.417972	-15.68	-7.77	-52.01	0.3265	0.0285	-0.4188	
-0.862052	0.18422	0.423462	-13.72	-6.02	-54.04	0.3296	0.0302	-0.4314	
-0.856684	0.14518	0.435662	-12.46	-8.26	-54.18	0.334	0.0355	-0.4253	
-0.851072	0.13054	0.43554	-13.02	-10.29	-56.7	0.3277	0.0397	-0.4176	
-0.85827	0.093696	0.44408	-10.64	-10.43	-57.54	0.3198	0.0514	-0.4242	
-0.877302	0.066856	0.45445	-11.2	-6.3	-59.15	0.3243	0.0543	-0.4305	
-0.873886	0.069784	0.449936	-10.01	-6.51	-59.01	0.3288	0.0568	-0.4213	
-0.881084	0.040748	0.44835	-12.25	-7.7	-58.24	0.3163	0.0686	-0.4293	
-0.876814	0.02135	0.449936	-9.8	-8.82	-57.96	0.3299	0.0751	-0.4202	
-0.862906	-0.01342	0.4636	-5.25	-6.02	-57.12	0.3236	0.0813	-0.4344	
-0.864614	-0.01769	0.463722	-2.66	-2.94	-59.01	0.3128	0.0829	-0.4282	
-0.862418	-0.03843	0.475922	-1.05	-3.15	-60.48	0.3264	0.0911	-0.4316	
-0.873886	-0.039162	0.47397	-7.42	-2.87	-62.79	0.3157	0.0915	-0.4362	
-0.85644	-0.10309	0.476898	-3.36	-8.75	-62.86	0.3152	0.1115	-0.4415	
-0.844606	-0.095892	0.462868	-2.31	-7.7	-61.04	0.3044	0.1102	-0.4367	
-0.847778	-0.12322	0.47031	-6.58	-4.9	-58.59	0.3119	0.1154	-0.426	
-0.856806	-0.127246	0.47214	-6.65	-2.17	-57.96	0.3072	0.1229	-0.4387	
-0.85217	-0.15311	0.495198	-14.77	-6.3	-58.66	0.3086	0.1242	-0.434	
-0.850096	-0.12688	0.46543	-13.02	-11.97	-63.14	0.3022	0.1358	-0.4406	
-0.859246	-0.179096	0.479216	-9.03	-9.94	-63.21	0.2959	0.1432	-0.447	
-0.85095	-0.201544	0.47214	-14.77	-17.64	-62.02	0.2925	0.1531	-0.4426	
-0.831186	-0.193858	0.471408	-17.64	-18.06	-60.69	0.2922	0.1674	-0.4461	
-0.839482	-0.22692	0.49288	-16.17	-18.27	-60.55	0.288	0.1519	-0.4472	
-0.811056	-0.23546	0.489952	-15.75	-18.9	-59.78	0.2706	0.1693	-0.4461	
-0.813862	-0.264008	0.50386	-15.05	-18.69	-56.84	0.2751	0.1764	-0.4525	
-0.791536	-0.29036	0.508496	-13.65	-18.76	-52.15	0.2641	0.1836	-0.4465	
-0.795318	-0.286944	0.499224	-15.26	-15.12	-47.74	0.2611	0.181	-0.4495	
-0.796416	-0.304634	0.502762	-17.01	-14.56	-45.71	0.2639	0.1907	-0.4451	
-0.778238	-0.317688	0.512888	-16.03	-13.79	-41.79	0.2623	0.1936	-0.4483	
-0.797148	-0.341112	0.506178	-18.41	-15.4	-38.01	0.2483	0.2012	-0.4531	
-0.793488	-0.361608	0.496662	-21.21	-16.1	-36.33	0.2372	0.2156	-0.4535	
-0.798368	-0.341478	0.497638	-19.95	-14.49	-37.1	0.2404	0.2086	-0.458	
-0.778604	-0.365024	0.520452	-19.6	-15.12	-35.84	0.2293	0.2183	-0.4395	
-0.762378	-0.3965	0.508252	-21.42	-16.03	-32.34	0.2434	0.2113	-0.4565	
-0.76494	-0.391132	0.50508	-22.75	-13.58	-32.41	0.2355	0.2213	-0.4506	
-0.747006	-0.420168	0.506544	-21.98	-14.7	-32.48	0.2381	0.2353	-0.4494	
-0.722728	-0.424804	0.515816	-21.77	-14.91	-31.5	0.2199	0.2302	-0.4539	
-0.721142	-0.456402	0.518988	-21.35	-13.3	-31.85	0.215	0.237	-0.4385	
-0.732	-0.462258	0.497028	-23.1	-14.77	-32.13	0.2086	0.2503	-0.4544	
-0.719678	-0.469578	0.49776	-23.38	-15.96	-32.06	0.2055	0.2489	-0.4497	
-0.721264	-0.484096	0.502152	-20.44	-15.54	-32.2	0.2161	0.2543	-0.4514	
-0.69235	-0.506422	0.49776	-21.49	-18.27	-30.1	0.2083	0.2603	-0.4562	
-0.690276	-0.52582	0.509594	-19.67	-20.16	-30.8	0.1899	0.2577	-0.4467	
-0.669658	-0.54412	0.52033	-19.25	-20.44	-30.24	0.1928	0.2676	-0.4517	
-0.645136	-0.514596	0.527894	-19.32	-19.18	-28.91	0.1897	0.2663	-0.4532	
-0.641232	-0.52033	0.523502	-20.93	-18.55	-26.95	0.1756	0.2763	-0.4425	
-0.625006	-0.544608	0.532286	-20.16	-17.92	-24.5	0.174	0.2808	-0.4489	
-0.62342	-0.554246	0.528382	-17.57	-16.66	-24.22	0.1787	0.2779	-0.4519	
-0.637694	-0.570106	0.520086	-17.29	-14.77	-22.26	0.1663	0.2795	-0.4457	
-0.636962	-0.571448	0.511424	-18.34	-14.98	-21.42	0.1631	0.2851	-0.4412	
-0.624152	-0.571692	0.509838	-17.29	-17.29	-21.49	0.1538	0.2866	-0.4349	
-0.600972	-0.595238	0.522526	-17.64	-16.73	-21.07	0.1554	0.2868	-0.4443	
-0.595726	-0.606584	0.526674	-15.54	-16.52	-20.86	0.1502	0.3069	-0.4511	
-0.599264	-0.616466	0.5307	-14.49	-16.1	-18.97	0.1472	0.3041	-0.4479	
-0.589992	-0.615124	0.532042	-14.14	-13.86	-18.41	0.1317	0.3114	-0.4418	
-0.563518	-0.617076	0.539484	-16.24	-14.42	-17.08	0.1239	0.3143	-0.4387	
-0.55022	-0.63318	0.542168	-17.43	-14.07	-16.52	0.1272	0.3059	-0.4447	
-0.544242	-0.625128	0.543266	-16.1	-12.6	-14.98	0.1318	0.3056	-0.4401	
-0.542412	-0.640988	0.53619	-13.51	-11.62	-13.23	0.1194	0.3101	-0.4355	
-0.54839	-0.64294	0.528992	-13.44	-9.45	-10.57	0.1209	0.3115	-0.4371	
-0.543022	-0.653066	0.518134	-14.14	-9.17	-9.24	0.1146	0.3172	-0.4325	
-0.541802	-0.657336	0.509228	-12.95	-8.61	-9.17	0.1314	0.3198	-0.4405	
-0.53253	-0.665266	0.504348	-10.99	-8.05	-10.22	0.1238	0.3185	-0.4357	
-0.527284	-0.655628	0.51057	-9.38	-7.91	-11.13	0.1205	0.3271	-0.4391	
-0.5246	-0.660386	0.511668	-6.58	-7.07	-11.41	0.1068	0.3216	-0.4326	
-0.534238	-0.666364	0.524478	-6.86	-5.67	-11.69	0.1114	0.3185	-0.4263	
-0.530334	-0.679052	0.518744	-8.68	-7.56	-9.87	0.1128	0.3227	-0.4233	
-0.532286	-0.681736	0.51911	-11.27	-8.19	-9.03	0.1067	0.3259	-0.4343	
-0.511668	-0.692228	0.517402	-13.23	-10.01	-8.33	0.1004	0.3303	-0.4313	
-0.508374	-0.69723	0.5246	-12.46	-8.33	-7.98	0.1111	0.3332	-0.4454	
-0.517036	-0.690276	0.508862	-8.4	-7.28	-6.16	0.1019	0.3331	-0.4345	
-0.50691	-0.691008	0.523624	-7.98	-5.18	-6.16	0.1124	0.3384	-0.43	
-0.497272	-0.681248	0.522648	-9.73	-5.53	-6.37	0.1094	0.3356	-0.4284	
-0.488854	-0.675514	0.51484	-10.08	-5.46	-6.86	0.09869999	0.3359	-0.4299	
-0.495686	-0.673196	0.515206	-10.01	-4.76	-6.37	0.0972	0.3331	-0.4282	
-0.49715	-0.679174	0.5124	-8.54	-3.5	-5.25	0.0926	0.3332	-0.4267	
-0.49654	-0.674904	0.504836	-7.42	-3.08	-4.06	0.1065	0.3316	-0.436	
-0.497272	-0.68625	0.505812	-5.39	-2.73	-4.2	0.0891	0.3457	-0.4161	
-0.499346	-0.676124	0.497516	-3.64	-1.19	-4.27	0.0862	0.3432	-0.4254	
-0.501908	-0.685884	0.499834	-2.03	-0.42	-5.04	0.0941	0.3343	-0.4189	
-0.503982	-0.684176	0.501664	-2.31	-0.42	-5.81	0.0892	0.3475	-0.4302	
-0.50447	-0.685762	0.50508	-2.1	-0.21	-5.88	0.0803	0.3318	-0.4188	
-0.498614	-0.678808	0.508496	-3.99	0.28	-5.95	0.0816	0.3418	-0.4237	
-0.498614	-0.683688	0.508374	-3.78	1.26	-6.51	0.0783	0.3507	-0.4333	
-0.506422	-0.684298	0.508252	-3.43	2.45	-5.67	0.09079999	0.343	-0.4223	
-0.505324	-0.681614	0.503494	-3.15	1.68	-4.06	0.097	0.3386	-0.4237	
-0.503372	-0.688812	0.499712	-1.89	1.96	-3.5	0.0878	0.3403	-0.4253	
-0.508008	-0.685518	0.491904	-2.66	1.12	-2.59	0.0893	0.3417	-0.4269	
-0.514474	-0.69418	0.488	-0.84	1.47	-2.17	0.0922	0.3486	-0.4224	
-0.512766	-0.695766	0.486902	0.49	1.05	-1.75	0.0799	0.3473	-0.4145	
-0.506056	-0.718092	0.495442	2.52	0.21	-0.91	0.08769999	0.3428	-0.4129	
-0.49898	-0.71248	0.494832	3.5	0.63	-0.98	0.0859	0.3547	-0.4319	
-0.493734	-0.70272	0.49898	3.64	0.98	-0.21	0.0924	0.3415	-0.4222	
-0.496174	-0.693448	0.496418	3.71	1.54	-0.14	0.0829	0.3517	-0.424	
-0.506422	-0.681492	0.497272	3.78	2.1	0.56	0.092	0.3545	-0.432	
-0.508618	-0.679784	0.491904	0.98	0.49	1.33	0.0786	0.3389	-0.4158	
-0.500566	-0.68015	0.488976	2.8	0	0.63	0.0924	0.3416	-0.4253	
-0.498736	-0.680272	0.489708	3.15	-0.56	0.14	0.0846	0.3476	-0.4302	
-0.494832	-0.680028	0.49898	2.24	-0.49	-0.07	0.08769999	0.3416	-0.4206	
-0.493734	-0.687226	0.502274	2.45	-0.42	-0.56	0.0892	0.3459	-0.4239	
-0.489952	-0.683322	0.504348	2.03	0.07	-0.91	0.0922	0.3487	-0.4271	
-0.497638	-0.681492	0.502884	3.15	-0.35	-0.49	0.0895	0.3345	-0.422	
-0.50386	-0.68198	0.500444	2.59	-0.98	0.14	0.0847	0.3403	-0.4206	
-0.501664	-0.690642	0.499224	1.12	-1.96	0.63	0.0847	0.3436	-0.4378	
-0.50203	-0.687592	0.497638	1.82	-1.54	0.07	0.0924	0.34	-0.4175	
-0.49593	-0.688568	0.50142	2.87	-0.98	-0.35	0.0894	0.3374	-0.4252	
-0.498248	-0.684664	0.502518	4.27	-0.42	-0.63	0.0802	0.3393	-0.4314	
-0.498858	-0.694424	0.503982	4.34	-0.77	-0.91	0.0848	0.3406	-0.4315	
-0.500688	-0.691496	0.507276	2.8	-1.26	-0.42	0.0834	0.3333	-0.4219	
-0.498736	-0.693082	0.509228	3.71	-0.28	-0.07	0.0799	0.3474	-0.4177	
-0.497394	-0.68442	0.515816	3.71	-0.21	-0.21	0.0785	0.3464	-0.4316	
-0.501664	-0.683688	0.515572	4.2	0.21	0.49	0.0863	0.3405	-0.43	
-0.50142	-0.675514	0.50447	2.45	-0.7	0.84	0.0909	0.3404	-0.43	
-0.497272	-0.671122	0.507398	3.64	-0.91	1.26	0.0847	0.3389	-0.4206	
-0.49654	-0.66063	0.504836	3.5	-1.61	2.17	0.0835	0.3292	-0.428	
-0.503494	-0.67466	0.51057	3.36	-1.61	3.43	0.0926	0.3317	-0.4251	
-0.499468	-0.67649	0.516914	2.66	-1.12	3.01	0.0709	0.3377	-0.4173	
-0.498004	-0.678808	0.520086	1.96	-1.05	2.52	0.0895	0.3364	-0.4376	
-0.4941	-0.6771	0.523624	1.61	-0.21	1.75	0.0911	0.3319	-0.4328	
-0.487512	-0.673684	0.525942	0.84	-0.14	0.98	0.0882	0.3278	-0.4327	
-0.5002	-0.681736	0.51789	0.56	-0.49	1.68	0.0787	0.3361	-0.4189	
-0.50447	-0.69174	0.519232	1.19	0.07	3.43	0.088	0.3364	-0.4376	
-0.499102	-0.697962	0.520086	1.68	0.21	4.34	0.0911	0.332	-0.4344	
-0.501664	-0.706624	0.522892	3.78	1.12	7.56	0.0879	0.3392	-0.4346	
-0.501176	-0.711382	0.525332	4.62	1.19	10.01	0.08329999	0.3361	-0.422	
-0.495808	-0.702354	0.52704	5.39	0.56	11.97	0.0924	0.3419	-0.4363	
-0.491172	-0.707112	0.528748	8.75	0.07	14.42	0.0865	0.3304	-0.425	
-0.495686	-0.701134	0.538752	11.06	1.19	17.08	0.0866	0.3306	-0.4328	
-0.49166	-0.69418	0.53558	11.34	3.57	20.09	0.0972	0.3332	-0.4329	
-0.497272	-0.69052	0.541314	11.83	6.51	21.98	0.0944	0.325	-0.4389	
-0.504104	-0.683932	0.537044	12.25	7.56	23.52	0.1021	0.3262	-0.4405	
-0.515328	-0.676124	0.539484	14.77	10.43	23.31	0.0975	0.3248	-0.4358	
-0.521428	-0.658068	0.529846	16.8	10.92	24.5	0.0977	0.3179	-0.4434	
-0.53131	-0.66917	0.533628	22.47	14.49	26.67	0.1097	0.3243	-0.4296	
-0.544486	-0.662826	0.533628	32.41	18.62	31.01	0.1224	0.3117	-0.4449	
-0.558028	-0.628666	0.55205	28.42	21	33.18	0.1161	0.3158	-0.434	
-0.581818	-0.634522	0.54107	23.38	14.56	35.14	0.1427	0.2998	-0.4415	
-0.5734	-0.65392	0.548268	20.86	13.51	37.59	0.1332	0.3144	-0.4528	
-0.56974	-0.655872	0.551806	27.23	19.46	39.76	0.1413	0.2987	-0.4524	
-0.591212	-0.609512	0.561566	39.69	27.79	41.3	0.1475	0.2926	-0.4413	
-0.609878	-0.601704	0.550342	33.04	26.39	48.02	0.1476	0.2913	-0.4475	
-0.63379	-0.578524	0.549854	36.54	27.3	47.39	0.1556	0.2797	-0.4456	
-0.576572	-0.576328	0.559736	31.29	30.1	48.65	0.1694	0.2794	-0.4473	
-0.662216	-0.50752	0.53497	32.83	31.01	45.99	0.1819	0.2722	-0.4518	
-0.64538	-0.522404	0.532286	33.25	31.64	51.38	0.1855	0.2536	-0.4497	
-0.692716	-0.471286	0.518866	38.85	33.74	48.44	0.1917	0.2493	-0.4543	
-0.707478	-0.46055	0.529846	35	32.48	52.15	0.1994	0.2508	-0.4637	
-0.715652	-0.456402	0.51667	32.83	26.67	51.52	0.1995	0.2461	-0.448	
-0.720288	-0.434198	0.515694	37.8	31.43	50.89	0.2354	0.2227	-0.4506	
-0.747006	-0.372344	0.508496	41.86	36.26	47.67	0.234	0.2185	-0.452	
-0.772992	-0.37149	0.509106	34.44	26.11	51.45	0.2433	0.2156	-0.4567	
-0.785192	-0.364902	0.505934	38.71	25.13	49.21	0.2546	0.1922	-0.4404	
-0.761402	-0.339404	0.495442	37.45	26.18	52.57	0.2501	0.1895	-0.4403	
-0.78446	-0.30073	0.494466	39.34	29.12	52.01	0.2607	0.1949	-0.4406	
-0.803248	-0.28548	0.476654	46.2	30.31	51.8	0.2581	0.1796	-0.4479	
-0.82594	-0.253272	0.476898	39.55	31.08	51.31	0.2739	0.1636	-0.449	
-0.840458	-0.215696	0.463356	35.07	26.46	49.07	0.2785	0.1604	-0.4381	
-0.83875	-0.240706	0.455792	34.02	23.03	54.32	0.2802	0.1532	-0.4348	
-0.822646	-0.218746	0.467992	30.87	22.82	56.98	0.2911	0.1473	-0.4362	
-0.837164	-0.16165	0.459086	36.96	23.73	55.51	0.2993	0.1273	-0.4356	
-0.850706	-0.135664	0.457012	32.27	21.07	55.37	0.3041	0.1245	-0.4418	
-0.854	-0.08235	0.452376	28.07	19.32	52.01	0.3057	0.1185	-0.4307	
-0.856196	-0.068564	0.448472	23.8	14.21	51.38	0.3074	0.1111	-0.4196	
-0.872544	-0.072224	0.453718	24.71	12.81	54.53	0.3229	0.1085	-0.4446	
-0.849852	-0.072712	0.45018	20.65	8.96	58.8	0.3064	0.0914	-0.4237	
-0.873398	-0.018788	0.447618	18.48	11.34	56.56	0.3065	0.0873	-0.4298	
-0.879498	-0.013664	0.450912	18.83	10.15	57.26	0.3203	0.08679999	-0.4252	
-0.873764	0.009272	0.45689	17.29	7.98	58.31	0.3147	0.07	-0.4247	
-0.861808	0.02928	0.444568	11.2	1.75	57.54	0.3254	0.0711	-0.4248	
-0.862174	0.070394	0.457988	11.13	4.06	57.4	0.3291	0.0483	-0.421	
-0.871812	0.101382	0.459574	7.21	6.09	61.88	0.3305	0.051	-0.4195	
-0.86742	0.107726	0.447862	8.96	1.89	63.42	0.3322	0.0453	-0.4178	
-0.85339	0.12688	0.4392	9.73	0.84	63.21	0.3182	0.0543	-0.4227	
-0.857416	0.151524	0.43676	7.35	1.82	63.63	0.3157	0.0303	-0.422	
-0.84241	0.18361	0.443714	10.08	3.78	64.61	0.3083	0.0174	-0.4091	
-0.855464	0.206058	0.442372	7.49	4.55	64.75	0.322	0.0258	-0.4219	
-0.850462	0.24034	0.444934	4.76	0.42	65.03	0.31	0.0147	-0.4152	
-0.846314	0.253028	0.446764	6.72	-1.12	64.89	0.3161	0.013	-0.4121	
-0.847778	0.271694	0.443714	8.75	0.28	66.08	0.3136	-0.0049	-0.424	
-0.8357	0.284748	0.43249	9.59	1.82	66.5	0.3089	-0.0037	-0.4116	
-0.838628	0.314516	0.431026	7.49	4.13	65.8	0.3124	-0.0148	-0.4237	
-0.833992	0.340624	0.423706	7.98	2.94	65.45	0.3034	-0.0262	-0.4124	
-0.829112	0.340502	0.41663	9.03	-1.26	63.77	0.3111	-0.0249	-0.4156	
-0.817034	0.367586	0.418948	10.43	-0.42	60.13	0.3038	-0.0419	-0.4073	
-0.823988	0.389058	0.431026	8.12	1.26	59.29	0.2992	-0.0415	-0.4182	
-0.80398	0.40931	0.426024	12.32	-0.35	59.64	0.2993	-0.0443	-0.4197	
-0.797026	0.417484	0.430294	14.56	0.63	57.82	0.2887	-0.0497	-0.4179	
-0.80276	0.422852	0.425536	14.49	1.47	56.28	0.2934	-0.0529	-0.4085	
-0.79483	0.436028	0.418582	14.28	-0.84	52.71	0.289	-0.0626	-0.4128	
-0.776896	0.464698	0.43371	14.07	-2.17	51.59	0.2814	-0.0639	-0.4112	
-0.765428	0.489952	0.446032	14.14	-1.12	49.14	0.2878	-0.0726	-0.4094	
-0.752862	0.493856	0.4453	17.71	-0.56	46.83	0.2819	-0.0824	-0.4076	
-0.753594	0.514718	0.430538	22.54	2.31	45.01	0.2974	-0.08859999	-0.4028	
-0.733342	0.524478	0.4209	27.93	3.15	42.49	0.2837	-0.0925	-0.4026	
-0.745908	0.538142	0.410286	31.99	4.06	41.23	0.279	-0.0909	-0.4042	
-0.740418	0.544364	0.405772	32.9	4.97	39.62	0.2837	-0.094	-0.3979	
-0.731878	0.560834	0.395646	33.67	3.85	38.01	0.2686	-0.1049	-0.399	
-0.737246	0.576328	0.381982	33.53	3.15	37.24	0.2689	-0.115	-0.3925	
-0.724192	0.595116	0.366732	31.92	1.33	35.7	0.2647	-0.1307	-0.3858	
-0.72224	0.611342	0.353678	29.96	0.21	35.56	0.2525	-0.1345	-0.3918	
-0.726876	0.623542	0.3538	23.17	0.49	34.3	0.2618	-0.1406	-0.3808	
-0.719068	0.662948	0.360998	24.5	-3.36	33.81	0.2667	-0.1507	-0.3805	
-0.69479	0.68503	0.351116	23.03	-4.27	32.69	0.2559	-0.1493	-0.3696	
-0.690642	0.684664	0.343552	23.1	-6.72	32.13	0.2543	-0.1462	-0.379	
-0.678442	0.694302	0.340746	26.39	-6.93	28.98	0.2499	-0.1531	-0.3788	
-0.675514	0.710284	0.339526	27.3	-6.72	26.32	0.2408	-0.1602	-0.3692	
-0.647942	0.700768	0.338184	28.21	-7.56	24.43	0.2515	-0.1606	-0.3661	
-0.659776	0.71004	0.332816	30.38	-5.53	23.66	0.238	-0.1671	-0.3752	
-0.65575	0.73749	0.331108	31.22	-4.13	20.79	0.2398	-0.1786	-0.3687	
-0.638304	0.744932	0.324642	29.19	-4.48	19.39	0.2338	-0.1874	-0.3512	
-0.632326	0.74664	0.32269	28.49	-4.27	17.43	0.2355	-0.1898	-0.3699	
-0.633668	0.74359	0.306586	29.89	-4.2	14.84	0.2201	-0.1942	-0.351	
-0.628056	0.749934	0.300852	29.61	-3.78	11.9	0.2262	-0.1915	-0.3526	
-0.620736	0.753106	0.30134	28.07	-5.53	10.43	0.2248	-0.1943	-0.3526	
-0.613904	0.748348	0.29341	26.6	-5.81	9.45	0.2216	-0.1917	-0.3402	
-0.60634	0.745542	0.292922	26.18	-5.74	8.82	0.2251	-0.2073	-0.3397	
-0.620614	0.770308	0.294142	22.75	-4.48	8.4	0.2203	-0.2018	-0.3321	
-0.617076	0.762622	0.293532	21.56	-5.11	7.91	0.2175	-0.2144	-0.3317	
-0.610244	0.76189	0.296826	20.93	-5.95	8.19	0.216	-0.216	-0.3254	
-0.599508	0.762012	0.295484	20.02	-4.9	8.05	0.2131	-0.2197	-0.3408	
-0.598776	0.758718	0.29158	16.73	-3.78	7.91	0.219	-0.2117	-0.3286	
-0.60268	0.77531	0.270962	16.1	-2.52	7.28	0.2147	-0.2245	-0.3251	
-0.60512	0.777506	0.263886	15.82	-2.73	6.79	0.2178	-0.2261	-0.3204	
-0.61	0.787388	0.259006	16.31	-4.34	6.16	0.2131	-0.2246	-0.3189	
-0.603778	0.791902	0.259616	14.7	-4.55	5.81	0.212	-0.237	-0.3294	
-0.603778	0.769698	0.260226	12.25	-4.55	6.3	0.2029	-0.2426	-0.3245	
-0.610976	0.785558	0.256078	11.06	-2.45	5.11	0.2074	-0.2368	-0.3341	
-0.602314	0.794464	0.25315	7.84	-2.52	4.76	0.1963	-0.2254	-0.3266	
-0.5978	0.788364	0.255224	3.57	-0.77	4.69	0.1997	-0.237	-0.32	
-0.607682	0.802028	0.25559	1.12	0.84	5.53	0.1982	-0.2399	-0.3152	
-0.612684	0.798734	0.248392	1.12	0.84	5.39	0.2012	-0.2355	-0.3232	
-0.605852	0.79605	0.24949	-0.21	0.91	4.13	0.2057	-0.2311	-0.3311	
-0.60573	0.794342	0.245952	0.56	0.84	3.22	0.1966	-0.237	-0.3153	
-0.602436	0.798856	0.249978	-1.19	1.68	1.89	0.2121	-0.2413	-0.3262	
-0.599752	0.780434	0.247904	-1.05	1.12	0.84	0.2056	-0.2301	-0.3187	
-0.590846	0.772016	0.25559	-1.75	1.4	0.21	0.198	-0.2329	-0.3108	
-0.590602	0.768112	0.259616	-0.35	1.82	-1.05	0.2198	-0.2416	-0.3231	
-0.59475	0.765794	0.257176	-0.21	1.68	-1.47	0.2025	-0.2287	-0.3125	
-0.591456	0.763598	0.255834	1.68	1.82	-1.47	0.198	-0.2311	-0.3264	
-0.590114	0.769088	0.251076	1.96	0.98	-0.63	0.1981	-0.2368	-0.3247	
-0.60207	0.77104	0.242902	2.94	0.84	-0.77	0.2118	-0.2318	-0.3124	
-0.604876	0.779458	0.238876	2.66	0.21	-0.84	0.2163	-0.2288	-0.3219	
-0.606706	0.775676	0.2501	2.03	-0.84	-0.56	0.2181	-0.2358	-0.3264	
-0.60024	0.778604	0.251686	0.91	-0.7	-0.42	0.2044	-0.2443	-0.3151	
-0.604754	0.78141	0.255834	0.49	0.14	0.42	0.2058	-0.2388	-0.3106	
-0.600484	0.782752	0.254492	0	0.07	0.77	0.1997	-0.2386	-0.3122	
-0.610854	0.780312	0.250832	0.98	0.28	1.19	0.204	-0.2287	-0.314	
-0.617686	0.78568	0.246562	0.77	0.7	0.42	0.1996	-0.2356	-0.3185	
-0.618174	0.78446	0.236314	-0.21	0.91	-0.98	0.2162	-0.2245	-0.3236	
-0.618296	0.789584	0.236802	0.07	0.84	-2.17	0.1904	-0.2368	-0.3184	
-0.613904	0.780068	0.243634	0.77	0.7	-3.36	0.2059	-0.2416	-0.3106	
-0.607804	0.780678	0.24461	1.26	0	-4.48	0.2166	-0.2387	-0.3232	
-0.612318	0.7747	0.243024	1.19	-0.42	-4.76	0.2118	-0.2333	-0.3093	
-0.609512	0.77531	0.244732	0.63	-0.56	-5.25	0.218	-0.2332	-0.3202	
-0.60817	0.772626	0.245464	0	-0.49	-5.74	0.1983	-0.2427	-0.3167	
-0.607804	0.772626	0.24644	-0.63	-0.7	-6.02	0.1996	-0.2357	-0.3138	
-0.613538	0.77653	0.240706	-1.54	-0.63	-6.09	0.2057	-0.2345	-0.3123	
-0.62159	0.775554	0.238876	-0.84	-0.98	-6.02	0.2042	-0.2343	-0.3186	
-0.625616	0.776286	0.239608	-1.61	-1.19	-6.23	0.2042	-0.2343	-0.3186	
-0.624518	0.780922	0.246196	-3.71	-1.82	-7.28	0.2116	-0.2215	-0.3268	
-0.625982	0.780678	0.244488	-4.69	-2.17	-7.56	0.2116	-0.2215	-0.3268	
-0.633058	0.792634	0.245342	-7.77	-2.17	-8.54	0.2131	-0.2248	-0.3127	
-0.635742	0.796904	0.248636	-9.8	-3.43	-9.1	0.2058	-0.234	-0.331	
-0.646844	0.807884	0.259738	-13.02	-3.71	-10.64	0.2069	-0.2218	-0.3127	
-0.651724	0.791658	0.251686	-15.75	-4.62	-14.7	0.204	-0.2285	-0.3218	
-0.632204	0.800442	0.251198	-15.05	-3.99	-17.5	0.2225	-0.2258	-0.336	
-0.636596	0.807274	0.262544	-18.55	-3.43	-21.07	0.2129	-0.216	-0.3238	
-0.633546	0.787754	0.276452	-22.26	-3.08	-23.66	0.2208	-0.2231	-0.3283	
-0.626714	0.77958	0.277672	-27.09	-1.75	-26.74	0.2113	-0.2113	-0.338	
-0.634766	0.748714	0.283894	-29.61	1.33	-28.56	0.2204	-0.2058	-0.3382	
-0.641232	0.738466	0.28792	-29.26	1.82	-32.13	0.2402	-0.2022	-0.3353	
-0.644038	0.731878	0.299998	-30.17	2.1	-34.65	0.2402	-0.1991	-0.3431	
-0.642696	0.73627	0.308294	-31.85	2.45	-36.75	0.2448	-0.1962	-0.351	
-0.645136	0.707966	0.329156	-35.91	4.13	-37.59	0.2461	-0.189	-0.359	
-0.663802	0.69174	0.330986	-40.81	6.51	-38.57	0.2474	-0.1792	-0.3531	
-0.691374	0.709918	0.335012	-33.95	5.46	-40.67	0.2426	-0.1719	-0.358	
-0.668682	0.663802	0.318542	-28.28	0.07	-42.77	0.2577	-0.1625	-0.3552	
-0.679052	0.672586	0.332206	-28.21	4.55	-45.22	0.2577	-0.1621	-0.3692	
-0.710772	0.66978	0.33977	-32.48	7.07	-45.99	0.2697	-0.1511	-0.3665	
-0.730048	0.63257	0.346968	-38.15	7.35	-46.55	0.2711	-0.1455	-0.3682	
-0.729194	0.602558	0.350384	-36.12	4.55	-46.34	0.2693	-0.134	-0.3717	
-0.723826	0.583648	0.35563	-34.58	2.73	-45.08	0.2753	-0.1298	-0.3765	
-0.724314	0.574376	0.34953	-33.53	1.47	-46.41	0.283	-0.1298	-0.3828	
-0.757254	0.559614	0.362706	-33.32	3.71	-48.65	0.2886	-0.1087	-0.3819	
-0.771528	0.528504	0.372466	-31.57	3.57	-49.42	0.2792	-0.0999	-0.3868	
-0.780678	0.521184	0.372344	-33.18	1.75	-49	0.2914	-0.1003	-0.3821	
-0.786778	0.498492	0.37759	-35.07	1.26	-49.35	0.3006	-0.096	-0.3917	
-0.790682	0.46238	0.386496	-35.49	1.61	-49.84	0.2988	-0.0876	-0.3872	
-0.795196	0.429562	0.396378	-34.37	2.59	-51.59	0.3031	-0.0763	-0.3923	
-0.813984	0.417728	0.393084	-31.22	3.15	-52.92	0.2968	-0.0675	-0.3972	
-0.817644	0.384178	0.395646	-29.68	2.03	-52.57	0.2983	-0.0689	-0.3971	
-0.824964	0.36234	0.400526	-28	1.82	-53.62	0.3042	-0.0576	-0.4022	
-0.836066	0.347456	0.399428	-28.35	3.5	-54.04	0.3101	-0.048	-0.3962	
-0.840824	0.317932	0.399062	-28.84	4.62	-52.5	0.3144	-0.038	-0.4059	
-0.858148	0.29707	0.398452	-31.08	4.69	-53.97	0.3218	-0.0255	-0.4032	
-0.867908	0.288896	0.395402	-30.66	6.93	-55.58	0.3248	-0.0241	-0.4048	
-0.870836	0.2684	0.387472	-30.52	5.46	-55.23	0.3245	-0.0141	-0.4067	
-0.872788	0.22936	0.390766	-27.72	5.18	-54.67	0.329	-0.0101	-0.4021	
-0.869738	0.214476	0.394548	-23.59	4.76	-54.74	0.3269	0.0096	-0.4027	
-0.86986	0.198372	0.392962	-21.63	3.43	-53.83	0.3331	0.0079	-0.398	
-0.87779	0.193492	0.395768	-18.27	2.1	-54.25	0.3299	0.0153	-0.4045	
-0.877058	0.150914	0.402234	-18.9	0.07	-52.43	0.3373	0.0237	-0.4094	
-0.881572	0.136396	0.409432	-20.09	0.35	-53.27	0.3325	0.0324	-0.4128	
-0.884744	0.119682	0.407602	-20.23	0.98	-53.2	0.3324	0.0383	-0.4207	
-0.886696	0.088084	0.39772	-19.18	1.26	-54.74	0.3321	0.0495	-0.4148	
-0.906948	0.093696	0.398818	-17.71	2.87	-57.89	0.3382	0.0476	-0.4039	
-0.903044	0.045384	0.390278	-14.91	-0.84	-56.56	0.3347	0.0634	-0.409	
-0.897188	0.023912	0.395646	-11.41	-1.33	-57.61	0.3392	0.069	-0.4123	
-0.889502	0.003782	0.39284	-14.14	-2.52	-59.78	0.3391	0.0687	-0.3983	
-0.891942	-0.011102	0.398208	-11.62	-2.31	-61.32	0.3326	0.0862	-0.4144	
-0.896578	-0.037576	0.410042	-8.75	-4.62	-62.09	0.3493	0.0914	-0.4115	
-0.890844	-0.05551	0.402722	-5.53	-5.6	-62.23	0.3339	0.0945	-0.4068	
-0.88755	-0.06649	0.40626	-8.68	-7	-61.81	0.3336	0.1061	-0.4181	
-0.879864	-0.092842	0.413336	-10.43	-8.75	-60.2	0.3245	0.1021	-0.4195	
-0.892552	-0.111752	0.42456	-9.52	-8.89	-61.53	0.3163	0.1191	-0.4106	
-0.883036	-0.142618	0.41053	-8.82	-10.99	-61.46	0.3287	0.1192	-0.4278	
-0.879498	-0.125294	0.41968	-11.2	-6.79	-59.99	0.3268	0.1319	-0.4235	
-0.873886	-0.159332	0.409432	-21.42	-11.2	-58.1	0.3219	0.1418	-0.4191	
-0.862418	-0.211304	0.418338	-15.05	-12.67	-56.07	0.3247	0.15	-0.4115	
-0.863638	-0.249368	0.443592	-11.97	-13.93	-54.46	0.3077	0.158	-0.4304	
-0.846192	-0.251564	0.43188	-7.63	-12.18	-52.71	0.3108	0.1551	-0.4287	
-0.849608	-0.254858	0.447862	-17.85	-12.11	-50.82	0.3088	0.1734	-0.423	
-0.837286	-0.285724	0.442616	-19.04	-10.92	-50.33	0.3025	0.1778	-0.4216	
-0.840946	-0.314028	0.42883	-24.15	-9.03	-50.4	0.293	0.191	-0.4313	
-0.854	-0.331108	0.420412	-19.81	-5.04	-46.62	0.2931	0.1868	-0.4327	
-0.84241	-0.361608	0.418826	-20.72	-6.3	-43.4	0.2838	0.1896	-0.4249	
-0.837408	-0.377834	0.410896	-10.43	-3.85	-42.35	0.2896	0.2021	-0.4207	
-0.81984	-0.374052	0.42029	-14.35	-6.44	-42.28	0.2911	0.2037	-0.427	
-0.80093	-0.390034	0.425658	-5.67	-7.98	-41.23	0.2803	0.2069	-0.4317	
-0.77897	-0.395402	0.440298	-10.57	-10.78	-41.72	0.2815	0.2167	-0.4288	
-0.7808	-0.416386	0.44469	-10.92	-13.37	-40.67	0.2725	0.2067	-0.4192	
-0.767502	-0.40382	0.454938	-13.93	-9.94	-38.5	0.2754	0.217	-0.4335	
-0.767136	-0.41846	0.459086	-16.87	-9.17	-37.66	0.2737	0.2243	-0.4415	
-0.77104	-0.462014	0.456036	-16.66	-8.96	-35.98	0.2538	0.2217	-0.432	
-0.79239	-0.489952	0.477996	-13.58	-8.68	-35.07	0.255	0.2345	-0.4355	
-0.770674	-0.49959	0.457988	-9.24	-10.71	-35.42	0.255	0.2329	-0.4276	
-0.75701	-0.486658	0.457256	-12.32	-7.77	-36.54	0.2501	0.2443	-0.4264	
-0.743956	-0.497516	0.443958	-12.39	-7.77	-35.28	0.2497	0.2587	-0.4346	
-0.731756	-0.502884	0.431148	-12.25	-8.96	-33.32	0.2456	0.2418	-0.4341	
-0.737612	-0.518866	0.43554	-9.31	-9.59	-31.71	0.2299	0.2535	-0.4343	
-0.73505	-0.5368	0.451888	-7.7	-10.92	-28.28	0.239	0.2591	-0.4392	
-0.731878	-0.49898	0.446764	-9.59	-11.13	-26.95	0.2391	0.2549	-0.4407	
-0.726876	-0.50935	0.47519	-14.14	-14.7	-26.74	0.2356	0.2691	-0.4395	
-0.697962	-0.527894	0.473726	-11.27	-15.4	-24.08	0.2266	0.2635	-0.4346	
-0.700036	-0.53009	0.486414	-11.34	-11.69	-22.26	0.2233	0.2676	-0.4254	
-0.688324	-0.539972	0.470066	-12.81	-10.29	-21.35	0.2206	0.2596	-0.4407	
-0.684786	-0.53863	0.460306	-11.13	-10.15	-20.86	0.2125	0.2709	-0.4348	
-0.69174	-0.544242	0.458598	-9.52	-10.08	-19.67	0.2123	0.2796	-0.4397	
-0.693814	-0.559126	0.472872	-8.96	-11.62	-19.39	0.2094	0.2753	-0.4364	
-0.682224	-0.560346	0.469212	-7.7	-12.18	-20.37	0.2077	0.2809	-0.4319	
-0.683444	-0.57584	0.491904	-8.61	-12.53	-19.18	0.2032	0.2753	-0.4286	
-0.661362	-0.57584	0.48068	-11.27	-11.69	-18.27	0.2061	0.2839	-0.4382	
-0.658556	-0.569496	0.475312	-10.78	-11.69	-17.08	0.1876	0.2873	-0.4414	
-0.649162	-0.586698	0.480924	-9.45	-11.27	-14.7	0.1891	0.2871	-0.4367	
-0.659288	-0.593286	0.47458	-7.28	-10.57	-13.65	0.1905	0.2914	-0.4368	
-0.654896	-0.587064	0.479582	-6.37	-11.27	-14.91	0.192	0.2929	-0.4447	
-0.641598	-0.592066	0.475434	-7.14	-12.46	-14.63	0.1798	0.2903	-0.4414	
-0.638792	-0.605852	0.487146	-6.72	-12.46	-13.72	0.1872	0.2985	-0.4355	
-0.630862	-0.606706	0.478362	-3.78	-10.57	-11.69	0.1827	0.2943	-0.4322	
-0.631106	-0.60268	0.49471	-4.48	-10.22	-11.9	0.1781	0.2958	-0.4322	
-0.623542	-0.604144	0.48983	-2.17	-10.85	-12.18	0.178	0.3	-0.4323	
-0.617808	-0.612806	0.498736	-1.68	-11.41	-12.46	0.1797	0.2914	-0.4274	
-0.613538	-0.615856	0.502274	-2.87	-10.36	-12.67	0.1778	0.3058	-0.4356	
-0.597312	-0.613782	0.50264	-4.06	-8.19	-12.53	0.1783	0.2888	-0.4351	
-0.589504	-0.616832	0.498126	-5.81	-6.37	-10.78	0.1672	0.3018	-0.4355	
-0.590114	-0.608658	0.496174	-4.34	-3.85	-8.82	0.1673	0.2974	-0.4291	
-0.585844	-0.610488	0.500322	-5.11	-3.92	-8.33	0.1581	0.2977	-0.4306	
-0.585966	-0.623542	0.492514	-4.62	-4.83	-8.26	0.1533	0.3035	-0.4323	
-0.579988	-0.630862	0.505202	-6.37	-4.62	-8.61	0.1504	0.3011	-0.4478	
-0.571448	-0.640622	0.502762	-7.07	-3.71	-8.19	0.1595	0.3022	-0.4432	
-0.573888	-0.652456	0.50569	-6.86	-3.71	-8.12	0.1594	0.3077	-0.4371	
-0.577426	-0.646722	0.495198	-4.13	-3.5	-8.75	0.1501	0.3109	-0.4434	
-0.572302	-0.637694	0.487878	-3.43	-3.57	-8.12	0.1486	0.3065	-0.4339	
-0.564494	-0.6527	0.48922	-4.27	-3.22	-8.05	0.1546	0.3135	-0.4389	
-0.561078	-0.646966	0.477142	-2.52	-1.47	-7.7	0.1562	0.3108	-0.4435	
-0.57828	-0.655994	0.479094	-2.24	-0.91	-6.58	0.1534	0.3022	-0.4354	
-0.57767	-0.64599	0.480436	-1.61	-0.98	-5.88	0.1471	0.3082	-0.4433	
-0.578036	-0.661484	0.476288	-2.73	-3.43	-5.25	0.153	0.3149	-0.4358	
-0.567544	-0.660752	0.487634	-2.31	-3.15	-6.37	0.1437	0.3164	-0.4295	
-0.559004	-0.659288	0.48312	-0.49	-3.08	-6.65	0.1393	0.3095	-0.4324	
-0.55449	-0.647942	0.492148	0.28	-1.61	-5.25	0.1516	0.3092	-0.434	
-0.55876	-0.640744	0.49105	0.14	-0.77	-4.06	0.1454	0.3152	-0.4404	
-0.565836	-0.647454	0.485682	0.28	-0.35	-2.31	0.15	0.3135	-0.4326	
-0.570472	-0.648674	0.476532	-0.35	-0.98	-1.61	0.1437	0.3194	-0.4359	
-0.578036	-0.636718	0.472628	0.21	-0.56	-1.33	0.144	0.3095	-0.4356	
-0.56852	-0.650626	0.471774	-0.77	-2.17	-1.89	0.1468	0.3179	-0.4343	
-0.567666	-0.6527	0.481046	-0.49	-1.75	-2.73	0.1376	0.3151	-0.4295	
-0.564372	-0.650504	0.483486	-0.7	-1.75	-2.03	0.1394	0.3083	-0.4402	
-0.560834	-0.635742	0.487878	-0.98	-1.82	-2.03	0.136	0.3181	-0.4327	
-0.570228	-0.62952	0.493856	-1.54	-1.82	-2.45	0.142	0.3221	-0.4281	
-0.565836	-0.632692	0.48678	-2.1	-2.24	-2.17	0.1405	0.3223	-0.4344	
-0.56608	-0.641842	0.483242	-2.38	-2.03	-1.96	0.1375	0.3195	-0.4327	
-0.5734	-0.64721	0.481656	-2.45	-1.12	-1.75	0.1361	0.317	-0.4451	
-0.578524	-0.643306	0.477508	-1.75	-1.4	-2.66	0.1439	0.3107	-0.4294	
-0.573034	-0.672342	0.475434	-1.4	-2.8	-1.75	0.1377	0.3122	-0.4278	
-0.574864	-0.668194	0.482266	-1.75	-2.73	-1.89	0.1378	0.3126	-0.4403	
-0.573156	-0.664778	0.486902	0.35	-1.61	-2.1	0.1437	0.3208	-0.4375	
-0.569496	-0.66002	0.490928	-0.42	-1.54	-1.75	0.1438	0.3168	-0.4436	
-0.571326	-0.657702	0.490806	-0.98	-0.77	-1.47	0.1266	0.3222	-0.4203	
-0.563396	-0.655262	0.488122	-0.84	-0.07	-0.63	0.1375	0.3196	-0.4374	
-0.564128	-0.651846	0.486292	-1.05	0.07	0.14	0.1453	0.3165	-0.4342	
-0.557052	-0.642696	0.480924	-0.42	0.07	0.7	0.139	0.321	-0.4374	
-0.560712	-0.64294	0.488	0.77	0.14	1.75	0.1347	0.3111	-0.4356	
-0.555466	-0.64172	0.488488	0.49	0.21	1.61	0.1283	0.3227	-0.439	
-0.552904	-0.650748	0.48434	-1.12	-0.63	1.05	0.145	0.3249	-0.4298	
-0.558028	-0.656238	0.483486	-0.84	0.35	0.35	0.1405	0.3236	-0.4297	
-0.564372	-0.649406	0.488122	1.26	0.14	-0.14	0.1346	0.3154	-0.4372	
-0.551074	-0.643306	0.47702	0.98	-0.77	-1.47	0.1411	0.2995	-0.4306	
-0.555466	-0.651358	0.478118	1.61	-0.98	-1.75	0.1392	0.3152	-0.4326	
-0.557662	-0.65575	0.487024	1.26	-1.33	-1.75	0.1484	0.3134	-0.4279	
-0.555832	-0.66246	0.492392	0	-1.82	-1.82	0.1423	0.3121	-0.4278	
-0.559614	-0.662826	0.497272	-0.49	-1.75	-0.77	0.1237	0.3168	-0.4263	
-0.556442	-0.669536	0.497272	-2.45	-2.66	-0.21	0.1318	0.3055	-0.4338	
-0.551196	-0.670024	0.503616	0.21	-0.21	0.42	0.1425	0.3036	-0.426	
-0.56242	-0.682956	0.497394	1.33	-0.21	1.75	0.1286	0.3098	-0.4324	
-0.551074	-0.69296	0.496174	2.31	0.07	2.94	0.1408	0.3122	-0.4278	
-0.554612	-0.692228	0.493978	5.39	1.89	4.27	0.1376	0.3153	-0.4341	
-0.557296	-0.69296	0.494222	6.02	2.94	7.35	0.1392	0.3139	-0.4388	
-0.55571	-0.670756	0.493734	7.35	3.57	8.47	0.1363	0.3097	-0.4355	
-0.5551	-0.667096	0.502762	7.84	3.64	9.66	0.1303	0.3059	-0.4463	
-0.556808	-0.675636	0.506666	7.77	4.76	11.2	0.1394	0.3052	-0.4323	
-0.563762	-0.667462	0.50508	8.19	6.37	12.32	0.1423	0.3136	-0.4294	
-0.556198	-0.674904	0.505812	9.1	6.79	13.65	0.1578	0.3062	-0.4324	
-0.5612	-0.69357	0.50691	13.16	7.56	14.56	0.1426	0.301	-0.4337	
-0.570472	-0.690032	0.502274	17.78	8.54	16.73	0.1488	0.3024	-0.4416	
-0.587552	-0.684664	0.502274	22.12	9.59	17.99	0.1687	0.3047	-0.4387	
-0.589138	-0.66124	0.512766	23.94	12.18	19.81	0.1597	0.2949	-0.4337	
-0.592066	-0.64111	0.52582	22.82	14	22.68	0.1643	0.2965	-0.4446	
-0.578524	-0.608414	0.539484	24.92	17.85	26.46	0.1614	0.2908	-0.4429	
-0.595238	-0.627568	0.511058	25.34	18.34	31.5	0.1659	0.2919	-0.4336	
-0.605242	-0.624396	0.508252	23.38	21.77	34.44	0.1846	0.2815	-0.4318	
-0.614636	-0.6039	0.512644	24.01	25.69	37.66	0.1816	0.2835	-0.4521	
-0.615856	-0.54534	0.524722	24.78	28.84	40.04	0.1973	0.2702	-0.444	
-0.635498	-0.569496	0.486048	20.16	26.46	48.37	0.1897	0.2677	-0.4517	
-0.651968	-0.558272	0.490928	19.95	28	45.64	0.1992	0.2559	-0.4405	
-0.665998	-0.537898	0.48739	17.01	26.6	43.54	0.2176	0.2554	-0.4406	
-0.70333	-0.513498	0.483608	16.87	28.42	42.77	0.2176	0.2569	-0.4422	
-0.693326	-0.509594	0.484218	12.6	28.28	47.53	0.2223	0.2511	-0.442	
-0.707478	-0.486414	0.48922	14.91	30.52	49.84	0.2228	0.2326	-0.4384	
-0.735782	-0.500932	0.472018	15.96	25.34	49.42	0.2318	0.2361	-0.4198	
-0.743346	-0.487268	0.455182	18.76	24.01	45.64	0.2535	0.2348	-0.4433	
-0.755546	-0.480192	0.46604	18.9	25.48	47.18	0.2488	0.2345	-0.4308	
-0.751154	-0.442006	0.46604	19.67	28.35	49.56	0.2648	0.2129	-0.4318	
-0.779336	-0.454084	0.457988	21.77	24.92	54.32	0.2692	0.2202	-0.4429	
-0.78385	-0.453718	0.436638	23.94	20.09	53.2	0.2785	0.2185	-0.4398	
-0.792024	-0.417118	0.438956	24.78	21.35	50.82	0.2833	0.2067	-0.4286	
-0.794952	-0.37515	0.431392	23.94	25.55	51.1	0.2729	0.1959	-0.4391	
-0.815936	-0.334646	0.424926	19.46	25.34	52.99	0.29	0.1897	-0.4343	
-0.851926	-0.319762	0.408334	15.82	23.59	55.72	0.2946	0.1879	-0.4218	
-0.863516	-0.297314	0.396622	18.06	19.6	53.83	0.2963	0.1806	-0.417	
-0.868762	-0.287554	0.388082	25.62	18.2	55.23	0.3122	0.162	-0.4243	
-0.8662	-0.266936	0.39589	29.82	17.85	56.98	0.3107	0.1594	-0.432	
-0.864492	-0.25315	0.39345	27.16	11.69	59.22	0.3185	0.1534	-0.4256	
-0.852536	-0.22082	0.412482	27.3	10.64	57.61	0.3189	0.1422	-0.43	
-0.851194	-0.180926	0.409798	25.83	9.1	57.4	0.3297	0.1375	-0.4236	
-0.882304	-0.149816	0.42151	23.1	8.47	60.27	0.3314	0.1303	-0.4219	
-0.885232	-0.123586	0.409188	21.35	7.21	63.77	0.3366	0.1105	-0.4244	
-0.899628	-0.10919	0.39406	15.47	1.68	67.48	0.3432	0.0947	-0.4224	
-0.907314	-0.087718	0.383202	20.37	0.14	66.29	0.3352	0.1017	-0.4117	
-0.894138	-0.034404	0.38674	17.57	-0.7	66.85	0.3386	0.0904	-0.4161	
-0.875472	-0.020008	0.398696	19.81	-1.33	69.51	0.3374	0.0792	-0.4188	
-0.856928	0.015616	0.40382	23.94	-3.01	71.61	0.3454	0.0678	-0.4232	
-0.855952	0.052582	0.426634	17.57	-0.84	72.87	0.3424	0.0649	-0.4184	
-0.861076	0.08113	0.424926	7.56	0.91	74.06	0.3368	0.045	-0.4116	
-0.874496	0.08357	0.427488	4.69	-0.56	76.51	0.3441	0.0561	-0.4088	
-0.870714	0.09747799	0.427	10.08	-0.91	75.81	0.3335	0.0507	-0.4102	
-0.862662	0.118096	0.437492	11.76	0.21	76.09	0.3497	0.022	-0.4094	
-0.85705	0.145302	0.429684	11.27	2.31	74.27	0.3345	0.0167	-0.4092	
-0.84668	0.174338	0.42761	8.47	2.31	73.29	0.3346	0.0111	-0.4121	
-0.866322	0.203374	0.419436	7.63	3.92	71.61	0.3241	0.0043	-0.4103	
-0.860222	0.233752	0.41663	7.7	2.52	68.88	0.3274	-0.0058	-0.4054	
-0.862906	0.263886	0.403088	9.66	2.52	66.92	0.3242	-0.0016	-0.3977	
-0.859612	0.285236	0.398574	8.4	4.06	65.38	0.332	-0.006	-0.4007	
-0.865346	0.313174	0.398818	13.23	4.34	65.03	0.326	-0.0128	-0.4052	
-0.851438	0.31964	0.38369	14.49	2.52	63.63	0.3155	-0.0211	-0.4033	
-0.849974	0.342942	0.398086	13.37	5.81	61.18	0.3175	-0.0396	-0.4012	
-0.848632	0.368318	0.400526	13.86	5.67	58.87	0.3132	-0.0494	-0.4009	
-0.840946	0.388814	0.396744	15.96	6.58	56.63	0.3162	-0.0481	-0.3994	
-0.83387	0.409554	0.382226	12.18	8.33	54.67	0.3133	-0.0538	-0.3945	
-0.821548	0.424682	0.371368	15.89	7.14	53.48	0.3089	-0.0607	-0.399	
-0.827526	0.423706	0.369904	17.64	7.84	51.03	0.3075	-0.0678	-0.3941	
-0.813618	0.455914	0.367098	18.76	7.77	49.42	0.3165	-0.058	-0.4007	
-0.794098	0.477874	0.34953	17.36	6.72	49.77	0.3065	-0.0862	-0.3951	
-0.805078	0.487268	0.340624	19.04	6.79	48.44	0.3065	-0.0892	-0.3872	
-0.800076	0.510448	0.341478	18.97	3.5	46.83	0.2954	-0.0762	-0.386	
-0.79117	0.521672	0.336232	18.97	2.38	47.67	0.3008	-0.1048	-0.3821	
-0.789706	0.551806	0.34587	17.08	3.57	48.51	0.3099	-0.1008	-0.3807	
-0.779092	0.585234	0.33611	18.69	0.7	48.86	0.3069	-0.1052	-0.3712	
-0.77043	0.59841	0.349164	17.36	1.05	50.12	0.2904	-0.1202	-0.3769	
-0.754448	0.606828	0.342454	15.75	-0.63	49.98	0.2876	-0.13	-0.3813	
-0.736758	0.62403	0.339648	16.73	-2.45	47.18	0.2844	-0.1259	-0.3705	
-0.723094	0.627202	0.336354	13.23	-4.41	43.26	0.2816	-0.1342	-0.3764	
-0.713456	0.635132	0.338306	16.45	-3.43	41.02	0.2726	-0.1427	-0.3668	
-0.705892	0.64721	0.33306	14.14	-4.55	37.1	0.2648	-0.1367	-0.3731	
-0.698816	0.649406	0.32391	13.93	-6.16	34.3	0.2711	-0.147	-0.3635	
-0.687348	0.656482	0.340136	14.56	-5.74	32.2	0.2619	-0.1466	-0.3697	
-0.691496	0.66795	0.331474	15.61	-6.09	31.99	0.2669	-0.1609	-0.3693	
-0.678076	0.676124	0.325984	17.78	-6.23	31.57	0.2638	-0.1609	-0.3678	
-0.678442	0.704306	0.319762	16.87	-5.04	30.94	0.2499	-0.1579	-0.36	
-0.669658	0.716018	0.325862	15.05	-10.15	31.5	0.2564	-0.1708	-0.3581	
-0.655384	0.73017	0.33611	14.42	-7.35	28.84	0.2536	-0.1806	-0.3609	
-0.65331	0.735172	0.33367	13.93	-5.25	26.18	0.2565	-0.1705	-0.3721	
-0.644892	0.738832	0.329766	13.58	-3.92	24.78	0.2474	-0.1775	-0.3641	
-0.64721	0.753106	0.324886	15.47	-4.34	20.79	0.2351	-0.1773	-0.3625	
-0.63379	0.743712	0.328058	15.4	-4.27	17.15	0.2307	-0.1842	-0.3622	
-0.626348	0.747494	0.329034	13.3	-3.5	14.49	0.2384	-0.1843	-0.3669	
-0.617076	0.734806	0.312686	10.43	-3.36	12.67	0.2321	-0.1831	-0.3514	
-0.618296	0.734318	0.313174	9.17	-2.1	11.34	0.2339	-0.1918	-0.348	
-0.621346	0.742614	0.323422	8.68	-0.91	9.45	0.2325	-0.1973	-0.3525	
-0.612074	0.735782	0.320372	7.56	-0.77	7.63	0.223	-0.1872	-0.3496	
-0.603778	0.748592	0.314882	8.75	-0.91	7.21	0.2217	-0.1956	-0.3509	
-0.60695	0.757742	0.313784	8.26	-1.61	7.28	0.2264	-0.1985	-0.3524	
-0.618052	0.744444	0.309514	6.93	0	5.81	0.2155	-0.1943	-0.3432	
-0.618296	0.75335	0.311344	6.37	-0.98	4.34	0.2247	-0.1932	-0.3386	
-0.611586	0.760548	0.311588	6.72	-2.17	4.27	0.2172	-0.1969	-0.354	
-0.60878	0.772748	0.31171	5.25	-0.84	5.32	0.2265	-0.2	-0.3524	
-0.612806	0.773846	0.309758	4.06	0.42	4.41	0.2125	-0.1954	-0.3509	
-0.619272	0.762866	0.316834	3.71	1.19	3.29	0.2236	-0.2054	-0.3584	
-0.612684	0.754326	0.313418	3.22	0.91	2.66	0.2233	-0.1987	-0.3431	
-0.609268	0.75823	0.302804	2.87	1.33	1.47	0.2297	-0.2074	-0.3428	
-0.61732	0.75396	0.295484	4.76	1.26	-0.14	0.2142	-0.2012	-0.3461	
-0.620004	0.751398	0.290482	2.38	1.68	-1.26	0.2187	-0.1987	-0.3384	
-0.621712	0.758352	0.28914	1.54	1.61	-1.82	0.2187	-0.1987	-0.3384	
-0.618784	0.767502	0.29158	1.05	1.05	-3.64	0.2189	-0.2058	-0.3382	
-0.61976	0.764696	0.29158	1.26	0.98	-4.13	0.2189	-0.2058	-0.3382	
-0.620492	0.762378	0.293166	1.4	0.63	-4.83	0.2202	-0.1974	-0.3369	
-0.620248	0.74969	0.29341	-0.21	1.26	-5.67	0.2204	-0.2058	-0.3413	
-0.620004	0.754692	0.290848	-0.7	1.4	-6.02	0.2311	-0.2001	-0.3509	
-0.627934	0.767868	0.281088	-1.33	2.03	-7.91	0.2266	-0.2075	-0.335	
-0.637938	0.763598	0.277062	-3.85	1.61	-9.87	0.2325	-0.1959	-0.351	
-0.643306	0.773358	0.292068	-6.02	0.21	-11.62	0.2296	-0.2059	-0.346	
-0.649894	0.777628	0.297558	-9.45	-1.19	-13.23	0.2158	-0.2037	-0.36	
-0.648918	0.770552	0.287798	-10.64	-0.98	-14	0.2264	-0.1972	-0.3494	
-0.665266	0.774212	0.289262	-14.28	-0.42	-17.43	0.2308	-0.1932	-0.3448	
-0.676124	0.771894	0.300974	-20.51	-0.21	-21.21	0.237	-0.1948	-0.3448	
-0.670146	0.76982	0.2928	-25.27	-2.31	-25.2	0.2292	-0.1873	-0.3512	
-0.66185	0.76677	0.298778	-30.24	-1.47	-29.26	0.2491	-0.1849	-0.353	
-0.672586	0.74664	0.307806	-36.82	2.45	-32.97	0.2523	-0.1876	-0.3607	
-0.681248	0.721996	0.307318	-38.92	3.71	-35.91	0.2458	-0.1747	-0.361	
-0.698206	0.706624	0.308416	-36.05	7	-39.9	0.2517	-0.1646	-0.3754	
-0.682834	0.690032	0.310978	-41.3	4.97	-40.18	0.25	-0.1604	-0.3708	
-0.693082	0.663558	0.305732	-46.97	8.4	-41.58	0.259	-0.152	-0.3758	
-0.715896	0.660508	0.316224	-51.38	11.13	-43.33	0.2711	-0.1407	-0.3855	
-0.727242	0.624518	0.327082	-58.87	13.93	-45.5	0.2696	-0.1422	-0.3824	
-0.74359	0.60878	0.340258	-58.24	12.81	-48.93	0.2786	-0.1368	-0.3826	
-0.734196	0.599264	0.356606	-56.42	11.41	-51.87	0.275	-0.1155	-0.3816	
-0.754326	0.586698	0.377468	-57.19	12.95	-55.65	0.2914	-0.0958	-0.3901	
-0.769088	0.56242	0.36478	-51.31	12.32	-55.3	0.2881	-0.08679999	-0.4059	
-0.780312	0.53314	0.365878	-44.24	15.96	-55.93	0.2912	-0.08859999	-0.3965	
-0.817766	0.502762	0.367586	-49	16.45	-56.98	0.2969	-0.073	-0.4017	
-0.813008	0.473848	0.352946	-49.7	7.14	-56	0.2997	-0.0618	-0.402	
-0.846558	0.467748	0.371612	-46.06	13.16	-58.03	0.3087	-0.0519	-0.4086	
-0.83082	0.433954	0.361974	-41.93	11.34	-59.15	0.313	-0.0437	-0.4026	
-0.828624	0.386374	0.362096	-33.67	10.08	-59.43	0.3127	-0.0324	-0.403	
-0.832162	0.353922	0.369782	-28.91	6.3	-56.98	0.3202	-0.024	-0.4064	
-0.82716	0.305976	0.411994	-32.2	7.07	-55.09	0.3231	-0.0171	-0.4019	
-0.846192	0.280112	0.405528	-20.72	4.9	-58.52	0.3415	-0.0176	-0.3989	
-0.843874	0.269742	0.42822	-10.99	12.11	-54.95	0.3257	0.0001	-0.4133	
-0.82472	0.250588	0.400526	-13.3	10.5	-52.78	0.3223	0.0113	-0.409	
-0.834724	0.195444	0.40199	-6.79	14.35	-50.05	0.3358	0.0222	-0.4047	
-0.858636	0.181536	0.406748	-4.2	19.95	-49.49	0.3373	0.0252	-0.4126	
-0.874984	0.161284	0.400892	1.33	14.7	-45.85	0.3421	0.021	-0.4171	
-0.867908	0.167018	0.400404	-6.44	8.26	-43.89	0.3388	0.0264	-0.4048	
-0.876448	0.150304	0.402478	-9.03	6.86	-40.18	0.3429	0.0449	-0.4147	
-0.904508	0.141398	0.408456	-5.6	8.54	-36.4	0.3505	0.0443	-0.3992	
-0.905606	0.105774	0.413458	-3.29	7.84	-33.81	0.352	0.0473	-0.404	
-0.89243	0.083204	0.422852	3.29	5.67	-33.53	0.3535	0.0471	-0.4008	
-0.883524	0.070028	0.41236	2.24	1.26	-31.57	0.3518	0.0544	-0.4057	
-0.859246	0.065148	0.432002	3.01	1.4	-27.44	0.3457	0.0544	-0.3995	
-0.881572	0.063562	0.432734	1.26	2.66	-28.35	0.3519	0.0546	-0.412	
-0.914146	0.071614	0.437248	-1.19	6.51	-28.28	0.3641	0.0539	-0.3995	
-0.943304	0.059658	0.423706	0.7	7.77	-26.11	0.3579	0.0569	-0.4012	
-0.948428	0.060512	0.402722	7.84	6.93	-22.68	0.3485	0.0613	-0.3966	
-0.91439	0.050142	0.390278	8.05	4.27	-18.97	0.3503	0.0542	-0.3979	
-0.907802	0.048312	0.398696	5.46	6.79	-18.9	0.3654	0.0625	-0.4029	
-0.903776	0.038918	0.39101	4.55	3.71	-16.1	0.3578	0.0627	-0.406	
-0.90585	0.038796	0.405284	3.71	2.45	-14.42	0.353	0.0656	-0.4014	
-0.906704	0.02867	0.413092	-0.91	-0.84	-12.88	0.3484	0.0671	-0.4014	
-0.921954	0.029768	0.418582	1.05	-1.05	-11.83	0.3572	0.0793	-0.3909	
-0.934764	0.037576	0.41053	-0.98	-1.26	-11.41	0.3481	0.0784	-0.4017	
-0.93025	0.03416	0.403576	-2.45	-2.66	-11.83	0.3637	0.07099999	-0.4032	
-0.925126	0.020008	0.39223	-1.82	-2.1	-10.57	0.3543	0.0739	-0.3985	
-0.9333	0.014274	0.386008	-3.64	-1.12	-9.17	0.3633	0.0838	-0.4067	
-0.93574	0.01586	0.382714	-0.56	-0.7	-7.28	0.3527	0.07979999	-0.4034	
-0.930616	0.003416	0.387472	11.83	1.75	-7.21	0.3558	0.0769	-0.4033	
-0.924516	-0.011956	0.401502	25.9	2.87	-8.19	0.3588	0.078	-0.3971	
-0.922442	-0.015372	0.404796	35.98	3.29	-10.78	0.3589	0.0765	-0.394	
-0.935618	-0.010736	0.40321	34.16	2.66	-14.42	0.3559	0.074	-0.4016	
-0.928176	-0.01037	0.395402	37.1	-1.05	-19.18	0.3543	0.07229999	-0.3907	
-0.939522	-0.00366	0.390888	44.03	-3.08	-21.63	0.3577	0.0626	-0.3998	
-0.931592	-0.006344	0.38857	55.37	-6.65	-25.2	0.3636	0.0722	-0.3954	
-0.939888	0.009881999	0.370392	62.79	-7.77	-30.66	0.3592	0.0623	-0.3904	
-0.935008	0.028548	0.362096	66.01	-8.33	-34.16	0.3562	0.0597	-0.395	
-0.948184	0.028914	0.366244	69.16	-6.72	-40.18	0.3487	0.0527	-0.3932	
-0.952942	0.021838	0.377102	74.97	-8.54	-44.03	0.3612	0.0471	-0.4056	
-0.96075	0.02379	0.367342	76.02	-11.41	-48.79	0.3584	0.0356	-0.3959	
-0.95526	0.017812	0.364048	82.46	-12.04	-52.08	0.3586	0.0301	-0.405	
-0.943792	-0.000244	0.368074	83.44	-11.9	-55.65	0.3586	0.0314	-0.3973	
-0.945866	0.004636	0.368562	80.85	-8.26	-59.57	0.3572	0.0243	-0.3986	
-0.946476	0.0061	0.356728	80.08	-5.25	-60.69	0.3541	0.0273	-0.3987	
-0.950502	0.019642	0.365024	83.16	-3.64	-60.55	0.3572	0.0241	-0.3908	
-0.94245	0.019764	0.364414	75.11	-5.39	-58.94	0.3575	0.0113	-0.3858	
-0.942084	0.032208	0.389302	64.26	-4.27	-56.56	0.3605	0.0124	-0.378	
-0.925004	0.010248	0.404186	52.5	-10.01	-54.67	0.3558	0.0185	-0.3922	
-0.920978	-0.00854	0.387228	56	-5.81	-55.86	0.359	0.0142	-0.3906	
-0.920856	-0.00366	0.391254	62.37	-3.92	-52.15	0.3592	0.0056	-0.3872	
-0.931104	-0.025132	0.360266	68.81	0.21	-47.81	0.3607	0.007	-0.3872	
-0.947452	-0.021106	0.369172	79.52	6.02	-45.29	0.3532	-0.0014	-0.3807	
-0.941596	-0.040382	0.393572	73.71	2.87	-43.54	0.3549	-0.0057	-0.3806	
-0.94245	-0.005978	0.391986	58.66	0.49	-40.81	0.3579	-0.0029	-0.3807	
-0.939888	-0.042944	0.373442	65.17	-1.68	-38.36	0.3657	-0.0073	-0.3853	
-0.938302	-0.020496	0.398574	70.21	3.43	-37.38	0.3611	-0.0073	-0.3806	
-0.93696	-0.012688	0.398452	71.75	4.06	-35.98	0.3704	-0.0133	-0.3742	
-0.917684	-0.023668	0.390644	63.35	3.22	-34.44	0.3644	-0.0173	-0.3787	
-0.913414	-0.024644	0.394304	60.9	4.27	-31.99	0.3692	-0.026	-0.377	
-0.907558	-0.044774	0.397232	54.74	3.78	-31.01	0.3707	-0.0266	-0.3567	
-0.903532	-0.061244	0.392108	52.99	2.73	-31.08	0.3675	-0.0189	-0.3756	
-0.92537	-0.067832	0.413824	46.69	0.07	-30.59	0.3601	-0.032	-0.3549	
-0.906948	-0.057096	0.423462	38.36	-2.03	-28.56	0.3739	-0.0322	-0.3597	
-0.922076	-0.038918	0.427122	33.74	-2.03	-27.72	0.3817	-0.0368	-0.3549	
-0.908778	-0.051118	0.424926	29.82	-2.8	-26.67	0.3724	-0.0351	-0.3549	
-0.90097	-0.06734399	0.427366	26.39	-3.29	-26.67	0.3679	-0.0381	-0.3454	
-0.899872	-0.06222	0.44042	22.33	-3.43	-26.74	0.3751	-0.0242	-0.3428	
-0.893772	-0.092476	0.432002	19.32	-3.5	-24.43	0.3815	-0.0312	-0.3535	
-0.893528	-0.07625	0.433832	15.54	-4.69	-22.75	0.3786	-0.0366	-0.3596	
-0.884378	-0.070638	0.437248	12.74	-5.53	-20.65	0.3892	-0.0299	-0.3536	
-0.89182	-0.071614	0.436638	8.19	-5.18	-19.46	0.3798	-0.0225	-0.3584	
-0.889746	-0.092598	0.450058	3.29	-5.67	-19.18	0.3831	-0.031	-0.3613	
-0.89182	-0.090524	0.463234	0	-6.93	-18.34	0.3784	-0.0278	-0.3692	
-0.879376	-0.117242	0.471408	-4.48	-6.44	-15.61	0.3873	-0.0185	-0.3555	
-0.881572	-0.12078	0.483486	-6.65	-5.11	-12.88	0.3751	-0.0181	-0.3585	
-0.882182	-0.13298	0.456646	-8.68	-3.57	-10.08	0.3906	-0.0226	-0.3631	
-0.885842	-0.141276	0.442616	-9.66	-3.01	-8.68	0.383	-0.0253	-0.363	
-0.877912	-0.15555	0.439078	-9.24	-2.17	-6.3	0.3782	-0.0211	-0.3569	
-0.885842	-0.162016	0.446154	-11.41	-2.03	-4.48	0.3826	-0.0111	-0.365	
-0.887428	-0.170556	0.449082	-12.67	-2.17	-3.57	0.3749	-0.011	-0.3587	
-0.876692	-0.175802	0.450912	-11.48	-2.52	-3.15	0.3794	-0.0083	-0.3588	
-0.881694	-0.167018	0.445788	-9.73	-1.96	-1.33	0.3809	-0.0069	-0.362	
-0.88023	-0.180072	0.462502	-8.89	-1.26	0.7	0.3778	-0.0051	-0.3698	
-0.895846	-0.16653	0.44652	-7.98	-2.38	1.4	0.3732	-0.0066	-0.3651	
-0.877302	-0.193004	0.443592	-6.09	-3.29	2.17	0.3794	-0.0066	-0.3682	
-0.894138	-0.174582	0.446032	-5.67	-2.8	2.31	0.3778	-0.0054	-0.3589	
-0.884744	-0.181414	0.439566	-4.9	-3.29	2.1	0.3794	-0.0081	-0.3682	
-0.873764	-0.18117	0.455426	-3.78	-3.01	1.47	0.381	-0.0079	-0.3744	
-0.881694	-0.165798	0.461282	-2.73	-2.38	1.05	0.3809	-0.0055	-0.3605	
-0.883158	-0.167384	0.460916	-0.56	-1.26	0.91	0.3701	-0.0036	-0.3667	
-0.887916	-0.143594	0.462014	0	-0.42	0.91	0.3839	-0.0011	-0.3669	
-0.867908	-0.16592	0.451278	2.03	0.35	1.68	0.3749	-0.0077	-0.3791	
-0.88511	-0.136396	0.454938	0.77	0.28	1.47	0.3824	-0.0024	-0.3699	
-0.885354	-0.135176	0.462502	0.35	0.84	0.7	0.3869	0.0001	-0.3669	
-0.874252	-0.137494	0.466406	2.31	1.54	0.63	0.3701	-0.0021	-0.3714	
-0.890478	-0.117486	0.45628	2.59	1.4	0.42	0.3685	-0.0022	-0.3667	
-0.880596	-0.121878	0.460184	0.7	0.98	1.89	0.3811	-0.0123	-0.3712	
-0.874862	-0.12139	0.442494	0	0	2.87	0.3762	-0.0054	-0.3573	
-0.886574	-0.124074	0.443714	-1.68	-0.49	3.15	0.3797	-0.0149	-0.3789	
-0.886574	-0.132736	0.451156	-1.54	-1.4	2.8	0.3702	-0.0063	-0.3729	
-0.894992	-0.134566	0.452986	-1.68	-1.96	3.92	0.3763	-0.0082	-0.3588	
-0.882914	-0.145302	0.455914	-1.12	-1.19	4.13	0.3824	-0.0054	-0.3636	
-0.88999	-0.12932	0.448472	-1.47	-1.05	2.87	0.3748	-0.0051	-0.3683	
-0.881084	-0.130906	0.441762	-1.61	-1.26	2.1	0.3871	-0.0082	-0.3713	
-0.87291	-0.120658	0.449204	-2.24	-0.35	2.94	0.3731	-0.0006	-0.3777	
-0.876448	-0.132126	0.456646	-4.27	0.7	3.43	0.3858	-0.0152	-0.3711	
-0.888038	-0.13603	0.456524	-4.2	1.19	3.15	0.3885	-0.0027	-0.3637	
-0.904752	-0.13054	0.440908	-4.83	0.42	3.29	0.3775	0.0061	-0.3717	
-0.88999	-0.13786	0.443592	-5.74	-0.56	4.55	0.3856	-0.0068	-0.3698	
-0.88145	-0.136274	0.459452	-6.16	-0.28	4.97	0.37	0.0006	-0.3684	
-0.89121	-0.138958	0.446154	-6.02	-0.49	5.39	0.3687	-0.0062	-0.376	
-0.8906	-0.134688	0.429562	-6.02	-1.05	6.23	0.3594	-0.0062	-0.3666	
-0.886208	-0.139324	0.437858	-7.07	-0.98	7.7	0.3721	-0.0174	-0.3819	
-0.889136	-0.130418	0.430782	-5.67	-1.54	7.98	0.3687	-0.009099999	-0.3728	
-0.88999	-0.136396	0.44713	-7.07	-0.56	9.94	0.3689	-0.018	-0.3585	
-0.892308	-0.1281	0.44591	-6.44	-0.7	11.55	0.3796	-0.0154	-0.3602	
-0.881328	-0.123098	0.439932	-8.68	-1.47	13.65	0.3688	-0.0105	-0.3712	
-0.870714	-0.106018	0.456036	-11.2	-1.4	15.61	0.3702	-0.0063	-0.3729	
-0.871934	-0.052338	0.453474	-15.68	-1.26	16.24	0.361	-0.0045	-0.3791	
-0.86437	-0.02318	0.447374	-22.19	0.35	20.3	0.3659	-0.0174	-0.3772	
-0.853024	-0.044286	0.487756	-26.6	5.81	26.6	0.3736	-0.0208	-0.3647	
-0.845704	-0.049898	0.519964	-23.52	10.85	32.76	0.3838	0.0003	-0.3716	
-0.87047	-0.04087	0.491416	-17.71	15.54	38.99	0.3593	0.0009999999	-0.3761	
-0.908656	-0.026962	0.455792	-24.92	16.38	43.4	0.3811	-0.0107	-0.3759	
-0.920856	-0.037332	0.40077	-34.3	11.97	40.95	0.3735	-0.0136	-0.368	
-0.94306	-0.047214	0.392962	-35.91	10.01	40.32	0.3719	-0.0122	-0.3634	
-0.956724	-0.027572	0.364658	-41.58	8.61	38.85	0.3812	-0.0151	-0.3727	
-0.94611	-0.056852	0.365756	-44.59	8.47	43.47	0.375	-0.015	-0.368	
-0.958798	-0.05368	0.372588	-54.04	6.02	46.06	0.3737	-0.0219	-0.3755	
-0.951966	-0.05856	0.37454	-64.4	0.7	45.15	0.3702	-0.0064	-0.3697	
-0.944768	-0.078812	0.347456	-69.51	-5.46	46.27	0.3688	-0.0121	-0.3665	
-0.940254	-0.032696	0.358314	-68.81	-4.48	44.52	0.3611	-0.0104	-0.3711	
-0.940986	-0.020374	0.35136	-85.96	-9.31	46.55	0.3684	0.0022	-0.3747	
-0.929762	-0.028548	0.36173	-81.76	-11.13	49.42	0.3686	0.0012	-0.3902	
-0.928542	-0.034404	0.394914	-80.85	-8.26	47.74	0.3547	0.0014	-0.3839	
-0.959164	-0.036112	0.390766	-81.62	-5.74	46.97	0.3574	0.0154	-0.3812	
-0.957334	-0.048068	0.39467	-86.1	-4.62	47.95	0.3529	0.013	-0.392	
-0.93025	-0.035746	0.361242	-82.11	-4.83	51.66	0.3574	0.0154	-0.3828	
-0.938058	-0.042456	0.376248	-83.79	-2.87	51.59	0.351	0.0275	-0.4034	
-0.961116	-0.036844	0.357094	-82.18	-3.71	50.33	0.3524	0.033	-0.3989	
-0.954772	-0.061244	0.353434	-84.14	-5.67	49.98	0.3554	0.0373	-0.4068	
-0.945256	-0.055876	0.356728	-87.71	-4.48	48.65	0.3412	0.0504	-0.4055	
-0.938424	-0.029646	0.369904	-91.7	-3.29	51.1	0.3566	0.0501	-0.4072	
-0.956968	-0.008174	0.380518	-107.1	-9.8	51.87	0.3409	0.0619	-0.4106	
