Sensor string: E
Serial number: 1970-01-0000
Firmware version: 2.015
Hardware version: 2.2
Calibration quality: 5
ax	ay	az	gx	gy	gz	mx	my	mz

-0.9821	-0.24217	0.013176	0.49	1.75	0.42	0.3716	0.1244	-0.3357	Reference
-0.98332	-0.241682	0.005978	1.61	2.66	0.42	0.3745	0.1265	-0.3203	
-0.989542	-0.24888	0.000244	1.89	2.17	-0.14	0.3819	0.1188	-0.3205	
-0.993812	-0.246684	-0.005734	0.77	0.42	-0.98	0.3717	0.1221	-0.3189	
-0.99064	-0.24217	-0.00671	-0.42	-0.98	-1.33	0.3803	0.1295	-0.3201	
-0.983564	-0.246684	-0.004514	-0.35	-0.56	-1.12	0.3716	0.1264	-0.3249	
-0.98637	-0.238754	-0.001586	0.28	-1.96	1.12	0.3746	0.1239	-0.3096	
-0.975268	-0.243146	0.000488	-1.05	-2.1	-0.42	0.373	0.1295	-0.3232	
-0.973926	-0.244244	0.006222	-1.05	-0.7	-1.19	0.3802	0.1294	-0.3232	
-0.976366	-0.24949	0.014396	-0.21	-0.21	0	0.3803	0.1198	-0.3328	
-0.978074	-0.24827	0.012566	0.91	0.21	0.91	0.3704	0.1143	-0.3223	
-0.9821	-0.243878	0.010004	1.82	1.05	0.98	0.379	0.117	-0.3283	
-0.984296	-0.249978	0.00427	1.96	1.26	0.91	0.3832	0.1246	-0.3264	
-0.986126	-0.24705	0.004148	2.03	1.12	0.42	0.3689	0.1174	-0.3222	
-0.98881	-0.236558	0.00183	1.47	-0.56	-0.14	0.376	0.1232	-0.3265	
-0.983076	-0.231556	-0.001952	0.35	-1.47	0.35	0.3761	0.1204	-0.3205	
-0.966972	-0.242048	-0.000854	-0.49	-0.56	-0.21	0.3717	0.1205	-0.3205	
-0.980392	-0.231068	0.013542	-0.14	-0.28	0.14	0.3847	0.1233	-0.3219	
-0.967582	-0.232288	0.028304	-0.56	-1.26	1.89	0.373	0.1245	-0.3326	
-0.97356	-0.23607	0.036356	-3.01	0.35	-0.63	0.3789	0.123	-0.3296	
-0.985028	-0.249246	0.047824	-4.34	1.54	-0.35	0.3701	0.1346	-0.3108	
-0.987468	-0.255224	0.03355	-5.53	1.33	-3.15	0.3747	0.1157	-0.3238	
-1.006622	-0.2501	0.02684	-5.53	1.75	-6.09	0.3832	0.1233	-0.3203	
-1.010282	-0.254126	0.01647	-7.42	1.12	-6.23	0.3732	0.1205	-0.319	
-1.022848	-0.25132	-0.027694	-11.27	-2.03	-8.82	0.3731	0.1268	-0.3141	
-1.023458	-0.259006	-0.036966	-11.55	-0.63	-8.54	0.37	0.1353	-0.3307	
-1.243302	-0.50081	0.007929999	-2.59	-2.52	-4.69	0.3729	0.1338	-0.3292	
-0.857294	-0.173362	-0.13115	11.76	-28.07	2.31	0.3701	0.1262	-0.331	
-1.064572	-0.267546	-0.055388	-0.42	-0.91	-4.76	0.3687	0.1292	-0.3309	
-0.993934	-0.242048	-0.059658	2.17	-18.97	-4.34	0.3773	0.1322	-0.3308	
-0.9821	-0.240218	-0.032452	1.54	-10.99	-0.63	0.3729	0.1386	-0.3244	
-0.998326	-0.261202	0.01342	1.12	-12.88	-1.4	0.3686	0.1307	-0.3339	
-0.999912	-0.27023	0.001586	1.75	-10.43	2.87	0.3571	0.1278	-0.3341	
-1.004914	-0.25986	0.01098	-0.07	-9.24	4.13	0.3571	0.128	-0.3295	
-0.987346	-0.269254	-0.049776	1.4	-16.17	2.52	0.3645	0.122	-0.322	
-1.036268	-0.293044	0.002928	6.02	-15.75	3.64	0.3629	0.126	-0.3387	
-1.021872	-0.280112	0.018544	7.42	-21.91	3.71	0.3628	0.1387	-0.326	
-1.010648	-0.271816	0.058316	7.21	-21.28	3.57	0.3542	0.1309	-0.3325	
-0.970266	-0.275598	0.035502	6.86	-36.61	2.24	0.3628	0.1302	-0.3478	
-0.951478	-0.266936	0.03172	5.81	-35.42	3.78	0.3426	0.1226	-0.3543	
-0.969412	-0.266448	0.055266	6.3	-35.91	4.27	0.3557	0.1179	-0.3529	
-0.974658	-0.254614	0.076006	7	-35.56	3.71	0.3543	0.1113	-0.3654	
-0.972584	-0.228018	0.10248	7.49	-36.26	2.31	0.3601	0.1131	-0.3561	
-0.976	-0.22143	0.125416	6.72	-35.07	-1.05	0.3542	0.1189	-0.3651	
-0.971852	-0.22265	0.142496	5.39	-34.23	0.42	0.3382	0.1231	-0.3819	
-0.959408	-0.231068	0.166042	3.5	-32.27	0.7	0.3367	0.1217	-0.3789	
-0.965264	-0.241194	0.18544	4.34	-31.71	2.45	0.3339	0.1153	-0.3884	
-0.959408	-0.235948	0.197762	6.02	-29.61	2.59	0.3381	0.1196	-0.3943	
-0.950624	-0.228262	0.20618	8.19	-27.93	2.73	0.3194	0.1153	-0.3931	
-0.92842	-0.235826	0.21045	7.28	-26.25	3.08	0.3194	0.1153	-0.3931	
-0.930006	-0.248392	0.239852	4.13	-21.28	3.29	0.3237	0.1149	-0.4023	
-0.938302	-0.228384	0.20984	6.58	-22.4	3.5	0.3167	0.09959999	-0.406	
-0.953308	-0.221308	0.221308	6.23	-22.05	4.27	0.3209	0.1087	-0.404	
-0.935374	-0.230824	0.198616	0.91	-27.93	4.62	0.3194	0.113	-0.4115	
-0.941352	-0.236192	0.23607	0.14	-25.2	3.71	0.3122	0.1054	-0.415	
-0.952088	-0.214964	0.25437	0.35	-27.16	3.29	0.3078	0.1083	-0.421	
-0.940864	-0.208132	0.260714	0.91	-28.14	3.43	0.3137	0.09869999	-0.429	
-0.922198	-0.204594	0.25803	1.05	-32.69	2.17	0.3035	0.1066	-0.4257	
-0.92293	-0.221064	0.270962	1.4	-29.54	1.54	0.2875	0.108	-0.4349	
-0.92171	-0.219112	0.292068	1.89	-29.05	2.87	0.2933	0.1111	-0.4332	
-0.90463	-0.203862	0.297436	1.75	-27.65	3.15	0.2919	0.1099	-0.4256	
-0.906948	-0.209718	0.31537	1.82	-26.39	-0.35	0.2875	0.1078	-0.4411	
-0.91988	-0.21228	0.332084	3.15	-27.72	-1.54	0.2862	0.1033	-0.4382	
-0.924638	-0.230336	0.346114	2.59	-26.25	-1.33	0.2761	0.0988	-0.4415	
-0.911706	-0.222284	0.35075	2.52	-26.46	-1.47	0.2803	0.1029	-0.452	
-0.906338	-0.21716	0.354532	2.31	-25.34	-1.47	0.2789	0.1016	-0.4459	
-0.89487	-0.216672	0.366366	2.66	-24.43	-0.63	0.2774	0.1078	-0.4457	
-0.882426	-0.216672	0.367342	3.85	-23.38	0.28	0.2587	0.1016	-0.4537	
-0.886696	-0.223016	0.371856	3.15	-23.1	0.21	0.2572	0.0983	-0.46	
-0.895358	-0.22387	0.38308	1.54	-21.84	-0.07	0.26	0.1073	-0.4642	
-0.891698	-0.218136	0.395524	1.12	-20.93	1.26	0.2572	0.1013	-0.4629	
-0.891454	-0.211792	0.400648	1.26	-19.6	0.91	0.253	0.0872	-0.4727	
-0.879132	-0.218014	0.404552	1.82	-18.69	0.63	0.2499	0.0995	-0.4707	
-0.871568	-0.21411	0.41419	1.75	-17.64	0	0.2499	0.1041	-0.4721	
-0.868884	-0.212036	0.421266	1.75	-16.66	0	0.2412	0.1041	-0.4752	
-0.868152	-0.208864	0.42517	1.96	-16.31	0.21	0.2486	0.09209999	-0.4664	
-0.857416	-0.209596	0.43249	1.68	-14.7	0.49	0.2385	0.0902	-0.4788	
-0.86681	-0.210084	0.436394	1.12	-12.6	-0.28	0.234	0.0964	-0.4801	
-0.868396	-0.202642	0.443348	1.05	-11.13	-0.28	0.2341	0.09339999	-0.4787	
-0.864858	-0.200934	0.447618	0.84	-10.08	-0.7	0.2384	0.0946	-0.4832	
-0.857904	-0.204716	0.452254	0.63	-8.4	-0.07	0.2398	0.09959999	-0.4723	
-0.85827	-0.20313	0.451644	0.7	-7.35	-0.07	0.2397	0.099	-0.4876	
-0.858392	-0.202642	0.456402	0.56	-6.86	-0.21	0.2384	0.0918	-0.4787	
-0.859734	-0.208376	0.463478	0.35	-6.16	-0.14	0.2328	0.0828	-0.4776	
-0.853512	-0.217038	0.45506	-0.42	-5.32	-0.77	0.234	0.1008	-0.483	
-0.84973	-0.211548	0.446642	-1.12	-4.34	-0.7	0.2297	0.0999	-0.4693	
-0.856928	-0.207156	0.445666	-1.54	-3.29	-0.42	0.2368	0.1021	-0.4891	
-0.860466	-0.217648	0.443226	-1.82	-2.66	-0.63	0.2325	0.1038	-0.4844	
-0.865956	-0.2257	0.453352	-1.19	-1.89	-0.49	0.231	0.1069	-0.4843	
-0.869982	-0.211304	0.445788	-1.05	-0.98	-0.21	0.2311	0.0944	-0.4925	
-0.870104	-0.212524	0.443714	-1.19	-0.28	0.28	0.2281	0.1023	-0.4876	
-0.861198	-0.217282	0.44225	-1.96	0.98	0.63	0.2238	0.1026	-0.4799	
-0.857172	-0.216428	0.449082	-2.59	2.87	-0.42	0.2282	0.1008	-0.4861	
-0.857538	-0.219112	0.439932	-4.2	3.92	-1.05	0.2311	0.0946	-0.4863	
-0.856196	-0.22143	0.447496	-4.76	4.97	-0.84	0.2354	0.099	-0.4892	
-0.854976	-0.213378	0.45384	-4.06	6.65	-0.49	0.2326	0.0963	-0.4817	
-0.853634	-0.220088	0.456036	-2.73	8.68	0.35	0.234	0.1044	-0.4691	
-0.841434	-0.221186	0.451278	-2.38	11.41	1.12	0.2428	0.0915	-0.4833	
-0.835578	-0.212524	0.445666	-2.1	13.58	2.59	0.2382	0.1052	-0.4874	
-0.83448	-0.213378	0.431636	-2.31	15.96	2.87	0.2339	0.1057	-0.4751	
-0.845216	-0.206668	0.43432	-1.33	16.38	3.5	0.2455	0.1087	-0.4734	
-0.857172	-0.207034	0.428098	0.91	18.97	5.18	0.2457	0.0916	-0.4802	
-0.859246	-0.206302	0.424316	1.96	19.95	4.2	0.2515	0.0937	-0.4633	
-0.874252	-0.206302	0.418826	0.91	22.33	5.32	0.2586	0.1027	-0.4644	
-0.886086	-0.217526	0.403576	2.45	23.66	4.55	0.2515	0.0923	-0.4618	
-0.873642	-0.194712	0.385276	4.27	25.9	0.21	0.2674	0.0966	-0.4615	
-0.881084	-0.21045	0.390278	6.44	26.32	-1.54	0.266	0.09209999	-0.4602	
-0.890722	-0.19276	0.377956	5.11	28.49	-3.22	0.2616	0.0933	-0.4709	
-0.903532	-0.194956	0.3843	5.39	28.98	-3.92	0.2732	0.0951	-0.4585	
-0.911218	-0.190686	0.369416	6.09	28.28	-4.27	0.2704	0.0895	-0.448	
-0.913902	-0.182146	0.354166	6.3	30.94	-4.83	0.2777	0.0878	-0.4496	
-0.91805	-0.197152	0.348554	5.11	30.59	-5.18	0.2849	0.0928	-0.4355	
-0.917928	-0.193248	0.333426	3.57	29.05	-5.11	0.2877	0.0971	-0.4415	
-0.915854	-0.199958	0.324886	2.66	30.94	-5.04	0.2835	0.088	-0.4419	
-0.915	-0.196054	0.302438	0.77	28.35	-6.86	0.295	0.0958	-0.4338	
-0.913292	-0.217282	0.30317	0	29.68	-8.47	0.2964	0.094	-0.44	
-0.918172	-0.219722	0.291702	-0.42	28.7	-9.24	0.3079	0.1003	-0.4305	
-0.92598	-0.23729	0.286578	-3.64	29.19	-11.62	0.3007	0.0988	-0.4321	
-0.932812	-0.243512	0.272914	-5.11	24.57	-10.71	0.3107	0.1111	-0.4255	
-0.934154	-0.23363	0.243268	-4.83	13.93	-6.44	0.3036	0.1025	-0.4136	
-0.943426	-0.230946	0.248026	-7.84	15.68	-6.09	0.3048	0.1173	-0.4252	
-0.92659	-0.208742	0.279624	-9.87	5.95	2.52	0.3122	0.1001	-0.432	
-0.927932	-0.221552	0.229116	-9.45	11.34	14.63	0.3107	0.1132	-0.41	
-0.91622	-0.238144	0.21106	-5.32	28.77	15.05	0.3121	0.1128	-0.4208	
-0.945988	-0.24583	0.218624	-1.54	40.88	10.29	0.3181	0.0991	-0.4167	
-0.960262	-0.241926	0.210572	1.47	46.9	8.96	0.3225	0.0994	-0.4075	
-0.959774	-0.238632	0.18666	0.63	46.83	0.14	0.3281	0.1102	-0.4024	
-0.967338	-0.233142	0.16348	0.7	47.67	-2.73	0.3284	0.0951	-0.3984	
-0.987834	-0.243756	0.151646	2.59	45.29	-5.6	0.3341	0.1032	-0.3858	
-0.976122	-0.2318	0.139324	1.19	38.5	-0.49	0.3426	0.1157	-0.3745	
-0.989908	-0.216794	0.107482	0.42	34.09	-1.61	0.3514	0.1077	-0.3794	
-1.01138	-0.232044	0.086498	3.15	35.7	0.49	0.3398	0.1095	-0.3779	
-1.01504	-0.230092	0.087718	3.15	32.48	-0.49	0.3501	0.1003	-0.3751	
-1.02541	-0.231678	0.074298	1.05	30.52	-2.38	0.3514	0.1129	-0.3654	
-1.00772	-0.245952	0.040992	1.68	30.17	-2.52	0.3559	0.1037	-0.3642	
-1.006378	-0.234484	0.047458	0.07	27.51	-1.68	0.3602	0.1103	-0.3501	
-1.005646	-0.237168	0.037332	-0.49	29.68	-2.1	0.3499	0.1147	-0.3592	
-1.000522	-0.265594	0.014762	0.07	25.41	0.63	0.3646	0.1057	-0.3503	
-0.98637	-0.261568	0.006222	3.5	24.57	4.06	0.3704	0.1028	-0.3442	
-1.001132	-0.274866	0.006954	3.57	21.49	0.84	0.3762	0.103	-0.335	
-1.003206	-0.23851	-0.005368	4.69	18.69	0.07	0.3747	0.1061	-0.3364	
-1.000522	-0.24339	-0.013298	-1.26	14.84	-2.31	0.3806	0.103	-0.3334	
-1.004792	-0.237778	-0.04331	-2.66	17.08	-4.55	0.3806	0.0999	-0.3351	
-1.014674	-0.24705	-0.02074	-4.48	12.81	0	0.3748	0.1081	-0.3225	
-1.026386	-0.261446	-0.03355	-3.29	7.7	1.33	0.3791	0.1094	-0.3271	
-1.006378	-0.228262	-0.040626	1.96	6.3	5.81	0.3792	0.1034	-0.3242	
-1.011014	-0.235582	-0.02562	2.52	3.43	5.11	0.3761	0.1139	-0.33	
-1.016138	-0.221674	-0.029524	3.85	-0.77	5.81	0.3791	0.108	-0.3241	
-1.006744	-0.213988	-0.013786	-0.7	-1.05	2.1	0.3892	0.108	-0.3194	
-0.99308	-0.22875	0.01586	-1.68	-2.8	3.15	0.3776	0.1078	-0.3302	
-0.995398	-0.228994	0.000488	3.08	-2.73	3.29	0.3791	0.1014	-0.3366	
-0.986736	-0.214354	-0.016104	5.11	-2.66	0.84	0.3792	0.0954	-0.3338	
-0.996374	-0.210328	0.011956	2.31	-1.68	0.42	0.3706	0.0971	-0.3322	
-0.976976	-0.227042	0.010492	2.45	-2.8	2.24	0.3791	0.1049	-0.3257	
-0.99552	-0.219478	0.026718	-0.49	-2.73	2.87	0.3792	0.1004	-0.3228	
-0.990274	-0.213134	0.022448	0.14	-2.94	2.8	0.3807	0.09739999	-0.3214	
-0.99003	-0.21045	0.025376	0.14	-1.96	0.91	0.3806	0.1062	-0.3302	
-1.000766	-0.219844	0.027572	1.19	-2.66	0.07	0.3807	0.0989	-0.3213	
-0.996618	-0.22143	0.036478	3.15	-1.82	-0.7	0.3793	0.0957	-0.3261	
-0.99491	-0.216428	0.02562	5.25	-5.04	-0.28	0.3749	0.0954	-0.3353	
-0.986736	-0.220942	0.015982	5.18	-4.97	0.42	0.3821	0.1001	-0.3305	
-0.978684	-0.231556	0.018788	5.53	-2.73	0.84	0.3763	0.0999	-0.3367	
-0.995032	-0.227774	0.000366	5.39	-3.43	1.82	0.3704	0.1062	-0.3349	
-1.009794	-0.222528	-0.010614	10.01	-6.3	1.05	0.3863	0.1044	-0.3349	
-1.004548	-0.229238	-0.008905999	10.15	-6.3	0.98	0.3749	0.0971	-0.3306	
-0.995032	-0.227774	0.004636	6.44	-6.58	3.01	0.3778	0.0938	-0.3369	
-0.982466	-0.21533	0.039772	1.89	-5.32	3.57	0.3721	0.0845	-0.3434	
-0.98088	-0.206546	0.045384	2.1	-4.06	3.85	0.3822	0.0893	-0.334	
-0.971852	-0.190808	0.0549	-0.28	-4.34	3.85	0.3749	0.0888	-0.3494	
-0.976488	-0.189222	0.063196	-0.77	-2.59	3.08	0.3793	0.0905	-0.3416	
-0.982344	-0.18544	0.066612	1.61	-1.26	2.52	0.3749	0.0903	-0.3478	
-0.980514	-0.18605	0.045506	0.84	-1.33	2.94	0.3737	0.0804	-0.3298	
-1.003328	-0.19398	0.052826	0.77	0.7	1.61	0.3779	0.0858	-0.3449	
-1.002596	-0.1952	0.0549	-0.35	-2.03	0.21	0.3749	0.09209999	-0.3416	
-0.994666	-0.199348	0.04697	3.43	-6.16	-0.91	0.3778	0.0986	-0.3321	
-0.985028	-0.206058	0.05673	2.38	-4.13	-0.77	0.3706	0.0924	-0.337	
-0.975634	-0.210206	0.061	1.4	-2.8	-1.19	0.3764	0.0859	-0.3449	
-0.983198	-0.20557	0.041602	3.01	-2.03	-1.82	0.3749	0.0889	-0.3463	
-0.991494	-0.200812	0.07442	0.84	-2.24	-1.61	0.3691	0.0936	-0.3461	
-0.974902	-0.211548	0.061122	0.21	-0.91	-0.84	0.3705	0.0999	-0.3382	
-0.976122	-0.201666	0.061	0.42	0.84	-1.47	0.3779	0.0863	-0.3341	
-0.986492	-0.20923	0.050996	1.96	-0.98	-1.68	0.3735	0.0905	-0.3447	
-0.99003	-0.21228	0.037698	1.75	0.7	-1.61	0.3776	0.1009	-0.3489	
-0.995032	-0.210694	0.044042	2.24	1.33	-1.26	0.3721	0.0873	-0.3495	
-0.994788	-0.20374	0.062708	2.52	0.35	-1.26	0.3836	0.0917	-0.3492	
-0.989298	-0.200812	0.036966	4.62	-1.33	-0.63	0.3749	0.08859999	-0.3524	
-0.979538	-0.206912	0.044896	5.6	-1.19	0.14	0.3649	0.0829	-0.3466	
-0.994666	-0.190442	0.050264	4.34	-0.77	0.07	0.372	0.0936	-0.3446	
-0.982832	-0.210328	0.069174	0.35	0.14	0.42	0.3749	0.0968	-0.3383	
-0.975268	-0.213744	0.064538	0.91	0.77	-0.49	0.3822	0.09209999	-0.3385	
-0.979172	-0.212768	0.0671	-0.07	1.68	-0.07	0.3707	0.0844	-0.345	
-0.986858	-0.211182	0.05917	2.59	0.63	-1.54	0.3721	0.0843	-0.348	
-0.989298	-0.198494	0.061366	1.54	0.63	-1.26	0.3692	0.0906	-0.3447	
-0.986126	-0.22204	0.065148	4.83	1.89	-0.49	0.3704	0.1043	-0.3442	
-1.00284	-0.221308	0.04148	3.15	-2.03	-2.03	0.3808	0.0874	-0.3417	
-0.986736	-0.214232	0.0549	4.2	-2.45	-2.17	0.3823	0.083	-0.3388	
-0.995886	-0.224114	0.026352	0.91	-0.91	-0.7	0.369	0.0982	-0.3444	
-0.993446	-0.221552	0.030866	2.66	-2.1	-2.1	0.3764	0.0873	-0.3479	
-0.986492	-0.21838	0.073322	2.31	-1.19	-0.28	0.375	0.0859	-0.3434	
-0.972096	-0.213866	0.058316	1.68	-2.24	-1.54	0.3691	0.092	-0.3462	
-0.990884	-0.211792	0.052826	0.77	-0.84	-2.03	0.3691	0.0955	-0.3353	
-0.99308	-0.202886	0.064904	0.84	-0.35	-1.61	0.3765	0.0878	-0.3341	
-0.9943	-0.203618	0.04941	0.14	-0.91	-1.47	0.3779	0.08769999	-0.3356	
-0.98454	-0.208986	0.06527	-0.42	-1.19	-1.12	0.3735	0.0907	-0.3386	
-0.97966	-0.215452	0.070272	-0.98	-0.77	-0.84	0.372	0.0919	-0.3477	
-0.973804	-0.211304	0.061732	-1.68	-0.28	-0.7	0.3691	0.0972	-0.3307	
-0.992104	-0.20557	0.061732	-1.12	1.12	-0.91	0.3735	0.09209999	-0.3431	
-0.987346	-0.210328	0.05246	0	0.28	-1.68	0.3735	0.0937	-0.3415	
-0.994788	-0.207522	0.05063	0.56	-1.26	-1.89	0.3634	0.0895	-0.3341	
-0.991738	-0.219234	0.06405	1.89	-3.57	-1.89	0.3677	0.0874	-0.3479	
-0.984662	-0.217038	0.055022	2.38	-2.66	-1.05	0.3763	0.0919	-0.3462	
-0.99186	-0.210816	0.058072	2.66	-3.92	-0.63	0.3605	0.0913	-0.3294	
-0.979416	-0.223016	0.0671	1.96	-3.64	-0.77	0.3676	0.0947	-0.3553	
-0.979416	-0.226798	0.056852	1.61	-2.59	-1.05	0.3706	0.0936	-0.3446	
-0.984296	-0.22387	0.068198	1.47	-2.45	-1.47	0.3678	0.0858	-0.3495	
-0.981978	-0.228262	0.082472	1.61	-2.73	-0.7	0.3735	0.0938	-0.3385	
-0.977586	-0.227042	0.08052	2.45	-2.73	-0.63	0.375	0.081	-0.3528	
-0.985516	-0.215818	0.09028	2.66	-2.24	-0.56	0.3748	0.09649999	-0.346	
-0.984174	-0.212524	0.069662	0.56	-3.29	-1.33	0.3748	0.096	-0.3583	
-0.97905	-0.21533	0.087352	-0.84	-2.1	-0.84	0.3735	0.0873	-0.3479	
-0.970388	-0.21472	0.08479	-0.84	-0.84	-0.84	0.3719	0.09779999	-0.3521	
-0.971974	-0.216428	0.083936	-0.35	-0.77	-0.77	0.3649	0.0815	-0.3451	
-0.972584	-0.203618	0.094062	-0.7	-0.98	-1.12	0.3677	0.0936	-0.3462	
-0.953308	-0.203252	0.09942999	-1.12	0	-0.14	0.3692	0.084	-0.3557	
-0.959774	-0.206302	0.11773	-1.68	3.01	1.61	0.3649	0.086	-0.3465	
-0.960994	-0.220698	0.113216	-1.89	4.83	2.17	0.3634	0.0861	-0.3449	
-0.977342	-0.220698	0.084302	-0.56	6.09	1.82	0.3677	0.0903	-0.3524	
-0.98881	-0.201788	0.121878	-1.54	4.97	1.89	0.3646	0.101	-0.352	
-0.950014	-0.196298	0.118096	-6.79	2.45	0.14	0.362	0.083	-0.3451	
-0.940742	-0.187514	0.132614	-10.15	9.8	1.75	0.3618	0.0966	-0.3491	
-0.965752	-0.216916	0.03111	-12.32	12.39	3.22	0.3678	0.0829	-0.3466	
-1.022116	-0.206302	0.035014	-10.92	14.77	-5.95	0.375	0.0874	-0.3448	
-1.046272	-0.230824	0.02013	-12.74	10.01	-7.21	0.3791	0.1046	-0.3334	
-1.00162	-0.220698	0.061732	-11.97	12.95	-4.76	0.3735	0.09209999	-0.3416	
-0.958676	-0.20496	0.031476	-12.88	14.7	1.33	0.375	0.09079999	-0.3355	
-0.941962	-0.220698	-0.00854	-16.66	19.32	0.35	0.3676	0.1035	-0.3258	
-0.981246	-0.235582	-0.041724	-15.33	17.29	-0.56	0.3777	0.1019	-0.3258	
-1.057618	-0.26901	-0.022326	-10.57	12.39	-5.39	0.3835	0.1035	-0.3196	
-1.034682	-0.26962	-0.025376	-10.57	6.58	-9.87	0.3777	0.1053	-0.315	
-1.007598	-0.231556	0.005734	-6.86	7.91	-4.06	0.3776	0.1144	-0.3177	
-0.953796	-0.21594	0.002806	-12.46	11.48	-2.31	0.3819	0.1173	-0.3206	
-0.951478	-0.217282	-0.012688	-11.48	12.74	0.91	0.3849	0.1079	-0.324	
-0.98271	-0.231922	-0.010126	-10.5	11.76	-1.89	0.3791	0.1111	-0.3239	
-1.006988	-0.241072	0.002562	-7.28	9.03	-6.16	0.382	0.11	-0.3102	
-1.00589	-0.247294	-0.011834	-7.35	7.07	-5.81	0.3909	0.0957	-0.3214	
-1.018822	-0.246928	-0.00549	-4.97	10.99	-6.23	0.3877	0.1174	-0.316	
-1.021384	-0.244732	-0.036234	-6.72	8.54	-4.55	0.3776	0.1165	-0.3038	
-1.002352	-0.233264	-0.043798	-10.71	6.65	-8.61	0.3793	0.1042	-0.3043	
-0.996252	-0.238266	-0.0244	-10.64	7.7	-10.71	0.3835	0.1133	-0.3039	
-1.00589	-0.24888	-0.060634	-15.47	3.22	-9.94	0.3834	0.1163	-0.3053	
-1.002596	-0.27023	-0.058438	-16.45	3.08	-10.15	0.3876	0.1222	-0.3096	
-1.003206	-0.280478	-0.083448	-8.61	3.85	-5.04	0.3848	0.1194	-0.3052	
-0.99369	-0.261934	-0.068564	-5.6	3.78	-4.06	0.3848	0.1223	-0.3081	
-1.006378	-0.24766	-0.086986	-4.69	2.38	-4.27	0.3904	0.1344	-0.3076	
-1.06628	-0.082106	-0.111386	51.31	-30.1	7.07	0.3877	0.1241	-0.3004	
-0.814594	-0.227774	-0.158844	11.62	-13.44	5.67	0.3833	0.1238	-0.3081	
-1.080554	-0.280234	-0.06893	-3.57	0.56	-4.55	0.3847	0.1239	-0.3065	
-0.992714	-0.27023	-0.09076799	-3.01	-22.4	-2.87	0.3804	0.1236	-0.3158	
-0.992958	-0.254858	-0.058316	-0.35	-12.39	0.98	0.3834	0.1144	-0.3146	
-1.019066	-0.259128	-0.03172	1.82	-17.22	0.84	0.3774	0.1251	-0.3172	
-0.977586	-0.279258	0.002318	0.21	-15.75	3.36	0.3832	0.1313	-0.3124	
-0.97478	-0.227164	-0.02928	-0.7	-20.72	-4.13	0.379	0.1223	-0.3097	
-0.98942	-0.284504	0.005246	3.5	-12.74	9.1	0.3804	0.1201	-0.3251	
-0.978806	-0.264862	-0.013054	4.9	-23.8	0.7	0.3688	0.1154	-0.333	
-1.009306	-0.255346	-0.010614	4.13	-27.23	-0.77	0.3645	0.1153	-0.3392	
-1.006012	-0.232654	-0.008662	2.59	-28.7	-0.07	0.3601	0.1217	-0.3328	
-0.996252	-0.252418	0.016592	1.75	-24.64	-0.14	0.3616	0.1152	-0.3407	
-0.986858	-0.279624	0.0244	1.26	-41.58	2.45	0.3573	0.1136	-0.3454	
-0.980026	-0.270718	0.006832	0.56	-40.18	1.61	0.3529	0.1165	-0.3499	
-0.992348	-0.264374	0.055754	-1.33	-42.14	1.12	0.3499	0.1146	-0.3623	
-0.98393	-0.251442	0.07259	-1.4	-42	0.35	0.3499	0.1141	-0.3746	
-0.965752	-0.259616	0.08174	-1.4	-43.82	-0.07	0.3469	0.125	-0.3695	
-0.965874	-0.266082	0.103944	-0.35	-43.96	-2.59	0.3441	0.1127	-0.3731	
-0.967094	-0.26474	0.110654	2.8	-44.1	-3.36	0.3398	0.1077	-0.3841	
-0.978684	-0.27633	0.136396	5.67	-42.56	-3.29	0.3252	0.1172	-0.3822	
-0.964532	-0.283528	0.151158	7.42	-43.05	-2.31	0.3252	0.1167	-0.3945	
-0.960384	-0.251198	0.166896	8.33	-39.48	-3.22	0.3193	0.1244	-0.3942	
-0.950868	-0.235216	0.181048	8.4	-40.67	-0.7	0.3179	0.115	-0.4023	
-0.943426	-0.23302	0.204716	7.49	-37.03	-0.49	0.3194	0.1167	-0.3976	
-0.948916	-0.243146	0.22692	7.07	-37.24	1.68	0.3165	0.1132	-0.41	
-0.92903	-0.23851	0.218258	7.77	-37.73	3.71	0.3136	0.1129	-0.4177	
-0.933422	-0.237168	0.24583	6.72	-38.22	4.34	0.3121	0.1177	-0.4114	
-0.924394	-0.240218	0.271572	5.81	-37.45	5.18	0.3049	0.1097	-0.424	
-0.913292	-0.223016	0.277672	4.83	-40.88	3.15	0.2933	0.1176	-0.4222	
-0.90768	-0.21228	0.309148	3.78	-42.84	2.94	0.2904	0.1127	-0.4316	
-0.90524	-0.20313	0.325252	2.52	-40.88	3.92	0.2787	0.1187	-0.4376	
-0.878522	-0.230214	0.342698	3.36	-37.73	4.27	0.2804	0.1034	-0.4382	
-0.878766	-0.224724	0.36722	4.2	-37.59	3.5	0.2745	0.1046	-0.4489	
-0.87413	-0.216184	0.360022	5.32	-35.21	4.34	0.2673	0.1062	-0.4504	
-0.878766	-0.22692	0.404918	4.9	-33.39	2.45	0.2658	0.1092	-0.4518	
-0.867176	-0.231678	0.410896	3.57	-32.2	2.03	0.2557	0.1012	-0.466	
-0.853512	-0.229848	0.425048	2.87	-30.52	1.33	0.2485	0.1016	-0.4568	
-0.839604	-0.228506	0.432124	3.71	-28.42	0.49	0.2514	0.0982	-0.4662	
-0.83631	-0.227164	0.444446	3.5	-25.27	-0.63	0.2542	0.1072	-0.4673	
-0.82899	-0.222894	0.448472	3.5	-22.82	-0.28	0.2485	0.101	-0.4737	
-0.832162	-0.223016	0.453596	3.5	-19.74	0.42	0.2413	0.0981	-0.4723	
-0.843752	-0.216428	0.460062	3.71	-17.57	1.26	0.2383	0.1038	-0.4829	
-0.843752	-0.216062	0.469212	3.5	-15.19	1.47	0.2339	0.1102	-0.4765	
-0.854366	-0.20801	0.472994	3.15	-13.44	0.98	0.2239	0.0995	-0.4816	
-0.854122	-0.207888	0.483242	2.52	-12.04	1.19	0.2428	0.0917	-0.4787	
-0.837652	-0.214354	0.480192	2.17	-10.78	1.75	0.2298	0.0873	-0.479	
-0.838262	-0.21533	0.469334	0.98	-10.43	1.54	0.2327	0.08899999	-0.4743	
-0.840092	-0.199226	0.457866	-0.98	-10.43	0.84	0.2399	0.095	-0.474	
-0.86132	-0.2013	0.465064	-1.82	-9.52	-0.56	0.2282	0.101	-0.48	
-0.837408	-0.236558	0.455914	-1.96	-9.17	-2.17	0.2297	0.0981	-0.4755	
-0.862296	-0.226188	0.44347	-2.38	-8.4	-4.9	0.2282	0.1026	-0.4784	
-0.869494	-0.237656	0.454084	-2.38	-8.82	-4.27	0.2282	0.1026	-0.4784	
-0.878034	-0.228506	0.45811	-3.5	-8.68	-5.04	0.221	0.0947	-0.4894	
-0.86925	-0.23241	0.443958	-3.64	-8.33	-5.53	0.2181	0.0929	-0.4972	
-0.867176	-0.224724	0.441152	-3.57	-8.75	-5.95	0.2168	0.0824	-0.493	
-0.871568	-0.22631	0.444446	-3.22	-8.54	-5.18	0.208	0.0982	-0.4832	
-0.868274	-0.241438	0.45262	-2.38	-7.98	-4.76	0.2137	0.1009	-0.4877	
-0.86254	-0.240584	0.454084	-0.98	-7.21	-3.78	0.2095	0.09	-0.4974	
-0.861686	-0.242414	0.468114	-0.49	-6.93	-2.94	0.2122	0.1025	-0.4876	
-0.845216	-0.239364	0.474092	0.28	-6.65	-1.82	0.2151	0.1025	-0.4861	
-0.84058	-0.234728	0.48068	1.19	-6.23	-0.7	0.215	0.1067	-0.4951	
-0.833382	-0.233996	0.489098	1.33	-6.23	-0.56	0.2138	0.0946	-0.4941	
-0.829722	-0.232288	0.494832	1.47	-5.95	-0.35	0.2094	0.098	-0.4863	
-0.825208	-0.232776	0.489342	1.4	-5.6	0.21	0.2007	0.1008	-0.4954	
-0.832406	-0.239364	0.490928	1.4	-5.04	0.63	0.2094	0.0946	-0.4956	
-0.828258	-0.241072	0.497394	1.05	-4.34	0.98	0.1993	0.0981	-0.4879	
-0.830576	-0.239852	0.496174	1.05	-3.99	0.49	0.2021	0.0975	-0.5017	
-0.829356	-0.249734	0.50081	0.98	-3.78	0.14	0.2065	0.0977	-0.4955	
-0.831064	-0.245464	0.493002	0.35	-3.78	-0.07	0.205	0.1021	-0.5	
-0.824232	-0.234484	0.49105	0.14	-3.5	0	0.2049	0.1068	-0.4967	
-0.826428	-0.22753	0.493246	-0.63	-3.08	-0.14	0.2079	0.096	-0.4987	
-0.8296	-0.229848	0.493978	-1.4	-2.17	-0.42	0.1949	0.0963	-0.4972	
-0.834602	-0.228262	0.494222	-2.31	-1.47	-0.07	0.1963	0.1041	-0.4907	
-0.837652	-0.228628	0.499468	-3.22	-0.98	-0.14	0.2007	0.1042	-0.4876	
-0.836676	-0.219234	0.499346	-3.08	-0.21	-0.21	0.205	0.1008	-0.4954	
-0.831064	-0.227896	0.501786	-3.71	0.35	-0.14	0.2049	0.1052	-0.4998	
-0.82716	-0.22204	0.502274	-3.99	1.47	-0.21	0.2006	0.1067	-0.5013	
-0.823866	-0.221796	0.502884	-3.99	2.8	0.28	0.2036	0.0979	-0.4925	
-0.82045	-0.230702	0.507886	-3.92	4.13	0.7	0.2122	0.1037	-0.4968	
-0.818498	-0.229238	0.505934	-3.64	5.67	1.47	0.2108	0.1023	-0.4923	
-0.81252	-0.232166	0.507154	-2.66	7.28	2.03	0.2151	0.1006	-0.4954	
-0.817522	-0.232654	0.505324	-2.17	8.96	1.89	0.205	0.1007	-0.4985	
-0.824842	-0.233752	0.508496	-2.52	10.29	2.1	0.2136	0.1051	-0.4983	
-0.82472	-0.232654	0.487512	-4.2	11.9	2.31	0.208	0.0964	-0.4894	
-0.82716	-0.233508	0.498126	-5.6	12.74	2.17	0.2208	0.1086	-0.4843	
-0.828014	-0.233264	0.487512	-5.74	14.07	2.17	0.2151	0.1039	-0.4891	
-0.82777	-0.227774	0.48312	-5.67	16.03	2.03	0.228	0.1117	-0.4811	
-0.821304	-0.236192	0.481534	-5.6	18.41	1.89	0.2195	0.1024	-0.4861	
-0.830698	-0.231068	0.467626	-5.39	20.72	3.5	0.2224	0.1041	-0.4829	
-0.831552	-0.231068	0.45811	-6.44	22.4	2.94	0.2281	0.1056	-0.4813	
-0.83936	-0.227896	0.451644	-6.23	24.29	2.52	0.2251	0.1116	-0.4841	
-0.848266	-0.230946	0.447618	-6.23	25.55	2.24	0.231	0.1056	-0.4782	
-0.846436	-0.234484	0.433222	-4.76	27.72	3.57	0.2339	0.1072	-0.4766	
-0.851804	-0.230946	0.415288	-4.41	29.54	5.04	0.2396	0.1166	-0.467	
-0.860344	-0.228384	0.410896	-4.9	30.59	4.55	0.2556	0.1054	-0.4735	
-0.868884	-0.224846	0.396744	-5.81	32.06	5.67	0.2454	0.1134	-0.4686	
-0.875594	-0.223504	0.373686	-6.02	33.88	7.49	0.2527	0.112	-0.4625	
-0.894626	-0.223626	0.36539	-6.65	35	7.07	0.2644	0.09959999	-0.4645	
-0.913902	-0.243756	0.358192	-4.62	38.57	4.69	0.26	0.1091	-0.4565	
-0.893772	-0.240584	0.34038	-3.99	36.61	2.38	0.2715	0.1151	-0.4546	
-0.892918	-0.241682	0.31903	-1.61	37.66	2.45	0.2787	0.1167	-0.4515	
-0.894626	-0.246074	0.321592	0.14	34.72	-0.63	0.2773	0.1175	-0.43	
-0.924638	-0.238266	0.301706	-1.05	33.53	-2.52	0.289	0.1064	-0.438	
-0.928176	-0.238388	0.285236	-0.56	34.86	-3.57	0.2917	0.1153	-0.4423	
-0.931836	-0.239364	0.281454	-0.98	34.16	-3.36	0.2975	0.117	-0.436	
-0.943182	-0.23546	0.253516	-1.54	31.92	-3.01	0.299	0.1141	-0.4315	
-0.939644	-0.234362	0.239486	-1.4	29.05	-4.27	0.2963	0.107	-0.4196	
-0.95282	-0.243756	0.230702	-0.84	28.35	-4.13	0.3006	0.1083	-0.4226	
-0.946354	-0.237656	0.220088	-0.49	29.61	-3.36	0.3063	0.116	-0.4192	
-0.937814	-0.246318	0.232166	-2.45	21	-5.25	0.3149	0.122	-0.4173	
-0.943304	-0.239242	0.222406	-1.89	14.49	-3.64	0.3092	0.1163	-0.4115	
-0.949038	-0.223992	0.238876	-1.96	14.14	-1.89	0.3019	0.1241	-0.4097	
-0.94611	-0.223504	0.22326	-2.24	1.82	3.99	0.3194	0.1149	-0.4038	
-0.950624	-0.22143	0.222772	-3.64	5.04	9.66	0.3135	0.124	-0.4065	
-0.957944	-0.222162	0.22082	-0.7	19.67	7.35	0.328	0.1192	-0.4082	
-0.957334	-0.237778	0.193492	3.08	24.36	8.4	0.3208	0.1194	-0.4036	
-0.963312	-0.243268	0.189954	6.65	29.75	9.66	0.3297	0.09959999	-0.4013	
-0.960018	-0.245586	0.187148	7.77	35	9.8	0.3353	0.1134	-0.3977	
-0.97051	-0.250344	0.152866	11.27	37.73	7.14	0.3339	0.1122	-0.3885	
-0.974414	-0.225212	0.168238	11.06	39.55	4.62	0.3427	0.1059	-0.3902	
-0.987712	-0.226798	0.163846	8.75	34.51	-2.17	0.334	0.1078	-0.3856	
-0.970388	-0.229116	0.130296	9.87	21.21	0.42	0.3428	0.1065	-0.3749	
-0.975146	-0.217892	0.135176	8.12	23.24	0.91	0.3414	0.1052	-0.3704	
-0.971974	-0.2318	0.13054	8.05	26.67	1.89	0.3428	0.1051	-0.3719	
-0.989298	-0.237656	0.113704	8.19	22.19	3.01	0.3457	0.1068	-0.3672	
-0.998814	-0.232288	0.105042	4.97	25.27	1.96	0.3516	0.1023	-0.3628	
-0.996862	-0.239364	0.091134	6.37	24.15	0.14	0.3544	0.1067	-0.3672	
-0.992104	-0.238144	0.099796	7.28	21.98	0.77	0.363	0.1081	-0.3671	
-1.005768	-0.225456	0.099064	7.56	20.79	-1.26	0.3618	0.0882	-0.3694	
-0.99918	-0.227896	0.087108	9.8	21.7	1.19	0.356	0.0961	-0.363	
-0.973926	-0.224968	0.04209	11.48	17.01	0	0.3748	0.0963	-0.3506	
-1.005158	-0.22692	0.081984	9.66	19.04	1.82	0.3646	0.1009	-0.3535	
-1.006256	-0.219478	0.050752	10.01	19.53	3.15	0.3645	0.1089	-0.3456	
-1.005036	-0.204472	0.034282	8.47	17.08	2.66	0.3747	0.1053	-0.3548	
-1.005402	-0.204228	0.038186	6.58	17.22	1.4	0.3748	0.0963	-0.3506	
-1.009184	-0.224724	0.019764	8.26	14.84	3.22	0.3691	0.095	-0.3492	
-1.017846	-0.230824	0.00915	10.71	13.44	2.8	0.3705	0.0918	-0.3523	
-1.02419	-0.22509	-0.006466	11.83	11.55	3.22	0.3821	0.0918	-0.3477	
-1.013454	-0.22692	0.001342	7	9.24	1.47	0.3836	0.0904	-0.3431	
-1.0126	-0.227896	-0.00061	9.1	8.47	2.45	0.3792	0.1015	-0.3335	
-1.0065	-0.216428	0.005368	8.33	5.18	4.13	0.3778	0.0923	-0.337	
-1.001498	-0.215452	0.01403	6.58	4.55	5.74	0.3793	0.0911	-0.3278	
-0.992714	-0.207644	-0.005612	7.77	3.71	3.36	0.375	0.0927	-0.3278	
-1.010892	-0.204716	0.022692	2.24	2.59	2.17	0.375	0.0874	-0.3464	
-1.011868	-0.195444	0.028426	3.64	0.42	2.73	0.3808	0.0876	-0.3387	
-0.996496	-0.200934	0.028792	-2.52	-3.29	0.7	0.3809	0.0813	-0.342	
-0.994544	-0.190686	0.04575	-1.75	-1.68	-0.63	0.3808	0.0812	-0.3466	
-1.008208	-0.200324	0.051484	-3.08	-5.04	0.49	0.3779	0.0856	-0.351	
-0.99918	-0.19886	0.03782	-1.54	-5.81	-0.91	0.3824	0.0769	-0.3391	
-1.010282	-0.206424	0.049898	0.42	-7.07	-3.43	0.3764	0.0857	-0.3495	
-1.001132	-0.20252	0.032574	4.76	-9.17	-7	0.3765	0.0799	-0.3421	
-1.017114	-0.210816	0.005978	8.33	-11.76	-5.88	0.3879	0.0903	-0.3447	
-1.023458	-0.224358	0.033672	6.02	-11.69	-9.31	0.3663	0.0876	-0.3433	
-1.002474	-0.218868	0.005856	8.33	-13.44	-6.09	0.3764	0.0874	-0.3448	
-0.99491	-0.207644	0.027572	4.41	-14.14	-4.69	0.3692	0.0907	-0.3417	
-0.9943	-0.216794	0.026718	9.73	-14.56	1.96	0.3721	0.0873	-0.3479	
-0.993202	-0.20618	0.05673	5.53	-15.68	3.08	0.3692	0.0841	-0.3527	
-0.978928	-0.194102	0.090646	3.01	-15.54	4.62	0.3648	0.0888	-0.3525	
-0.965386	-0.181048	0.111508	0.91	-11.69	3.5	0.3678	0.0795	-0.3544	
-0.963678	-0.187636	0.116998	0.56	-9.59	3.57	0.3447	0.0816	-0.3483	
-0.965996	-0.193248	0.130662	-0.07	-7.28	3.64	0.3593	0.0719	-0.3563	
-0.965508	-0.1891	0.139568	-0.49	-6.09	3.36	0.3721	0.0809	-0.3558	
-0.983686	-0.194956	0.151158	0.77	-4.69	2.03	0.3605	0.0808	-0.362	
-0.963678	-0.189954	0.136884	1.26	-4.62	0.21	0.3664	0.0794	-0.359	
-0.981856	-0.184586	0.116022	4.06	-5.32	-0.98	0.362	0.0761	-0.3653	
-0.984296	-0.1952	0.126758	2.87	-5.39	-1.75	0.362	0.0777	-0.3637	
-0.9821	-0.191418	0.123342	1.96	-6.79	-2.66	0.3578	0.0718	-0.3609	
-0.977708	-0.194834	0.10614	3.5	-6.16	-2.73	0.362	0.0791	-0.3667	
-0.981612	-0.201422	0.098942	2.52	-5.39	-2.45	0.3605	0.0805	-0.3697	
-0.986736	-0.20252	0.101016	2.1	-4.62	-2.1	0.3547	0.0818	-0.3774	
-0.991006	-0.197274	0.101626	1.47	-4.06	-0.91	0.3547	0.0805	-0.3728	
-0.984296	-0.203252	0.105286	1.19	-3.71	-0.84	0.3648	0.08	-0.382	
-0.98881	-0.213622	0.107604	2.03	-4.2	-0.21	0.3532	0.0852	-0.3711	
-0.981124	-0.20984	0.12139	1.05	-4.06	0.28	0.3505	0.0731	-0.3701	
-0.98454	-0.199958	0.127002	0.42	-2.73	0.35	0.3575	0.0898	-0.3678	
-0.968314	-0.190808	0.122976	1.26	-3.71	-0.7	0.3548	0.0775	-0.3714	
-0.983564	-0.19825	0.12139	1.68	-3.57	-0.56	0.3561	0.0786	-0.3805	
-0.989664	-0.20862	0.131882	3.57	-4.06	-0.63	0.3534	0.0746	-0.3685	
-0.979904	-0.211304	0.144326	6.16	-2.87	-0.63	0.3518	0.08199999	-0.3758	
-0.985516	-0.213012	0.133712	6.44	-4.2	0.77	0.3576	0.0801	-0.382	
-0.97417	-0.197762	0.137372	5.04	-2.87	0.21	0.3476	0.0795	-0.3622	
-0.969168	-0.18605	0.141032	2.38	-3.22	0.21	0.3576	0.07889999	-0.3744	
-0.967094	-0.206058	0.132004	3.57	-3.22	0.63	0.3576	0.0836	-0.3711	
-0.97905	-0.204106	0.139568	3.85	-2.66	0.21	0.362	0.0757	-0.376	
-0.977098	-0.19642	0.142374	2.03	-1.4	0.35	0.3517	0.0878	-0.3817	
-0.975634	-0.197274	0.156282	2.24	0.07	1.12	0.3502	0.088	-0.3787	
-0.963556	-0.210694	0.147864	3.29	-0.14	2.66	0.3549	0.0716	-0.3655	
-0.97844	-0.204594	0.135298	0.14	0.7	0.42	0.3476	0.0726	-0.3824	
-0.973316	-0.191174	0.144814	-2.8	1.4	1.33	0.3431	0.0823	-0.3697	
-0.975146	-0.20191	0.132614	-1.75	1.4	1.12	0.3475	0.0809	-0.3652	
-0.98942	-0.18544	0.14823	0.28	0.35	-0.56	0.3606	0.0714	-0.3701	
-0.983198	-0.199104	0.136396	0.98	-2.03	-1.54	0.3504	0.0792	-0.3683	
-0.978318	-0.19764	0.159088	1.26	-0.7	-3.01	0.359	0.087	-0.3618	
-0.977708	-0.197884	0.1403	2.8	-1.68	-2.66	0.3562	0.0744	-0.3731	
-0.97051	-0.196664	0.146278	2.31	-2.24	-2.03	0.3548	0.0759	-0.3745	
-0.975268	-0.19093	0.141642	1.89	0.14	-1.82	0.3504	0.0821	-0.3728	
-0.986248	-0.186904	0.121024	1.47	-0.07	-1.12	0.362	0.0775	-0.3698	
-0.981734	-0.193736	0.12627	-0.56	0.63	-0.21	0.3475	0.0771	-0.3853	
-0.977342	-0.195688	0.138104	-1.96	0.91	-0.42	0.3505	0.0744	-0.3746	
-0.974902	-0.207888	0.151524	-2.52	0.84	0.07	0.3518	0.079	-0.3744	
-0.96868	-0.214232	0.15067	-1.61	1.05	0.07	0.3461	0.0759	-0.3776	
-0.97783	-0.200934	0.13298	1.47	1.05	0	0.356	0.0895	-0.377	
-0.988322	-0.1952	0.141886	1.4	-0.42	0.49	0.3561	0.0852	-0.3695	
-0.98881	-0.211304	0.123098	2.59	-2.38	1.05	0.3446	0.0774	-0.3791	
-0.981124	-0.218746	0.144814	1.75	-1.96	1.33	0.3548	0.0746	-0.3669	
-0.975878	-0.215452	0.128344	3.01	-0.91	1.12	0.3403	0.076	-0.3777	
-0.982954	-0.19947	0.124684	2.8	-0.49	1.26	0.3433	0.07319999	-0.3701	
-0.988078	-0.19215	0.131516	1.47	-1.19	0.42	0.3562	0.079	-0.3713	
-0.983686	-0.197884	0.136274	0.56	-1.89	-0.21	0.3548	0.0724	-0.3839	
-0.980514	-0.202276	0.141398	1.33	-2.38	-0.42	0.3432	0.0743	-0.3793	
-0.981612	-0.193248	0.128344	2.1	-2.24	0	0.3535	0.0667	-0.3764	
-0.987956	-0.187758	0.130906	0.77	-2.66	0.14	0.3535	0.0637	-0.375	
-0.985272	-0.185562	0.149328	-1.05	-2.17	0.49	0.3591	0.0741	-0.3776	
-0.974414	-0.200446	0.142496	-1.89	-1.96	0.07	0.3447	0.0681	-0.381	
-0.9699	-0.207156	0.150792	-1.4	-1.96	0.21	0.3547	0.0786	-0.3821	
-0.967216	-0.206668	0.160186	-1.12	-1.26	-0.56	0.3476	0.0728	-0.3778	
-0.975756	-0.195078	0.15006	-0.77	-1.05	-1.12	0.3534	0.0713	-0.3747	
-0.97966	-0.1952	0.150548	-0.98	-2.1	-1.33	0.3431	0.0823	-0.3697	
-0.98027	-0.2074	0.163114	0.14	-1.82	-1.82	0.3532	0.0849	-0.3788	
-0.964532	-0.193736	0.17629	-0.28	-0.84	-1.75	0.3532	0.0803	-0.3774	
-0.960262	-0.188002	0.167872	-0.14	-1.75	-2.31	0.3519	0.076	-0.373	
-0.95953	-0.181658	0.171288	-1.19	-0.91	-2.66	0.346	0.0806	-0.3729	
-0.968924	-0.193858	0.176656	-1.4	-0.98	-1.75	0.3533	0.0771	-0.3822	
-0.961604	-0.202764	0.181902	-1.12	-0.49	-1.33	0.3548	0.0774	-0.3729	
-0.961604	-0.199226	0.158356	-1.68	0	-0.7	0.3532	0.0818	-0.3789	
-0.967826	-0.1891	0.177388	-1.47	3.36	-0.56	0.3418	0.0746	-0.3731	
-0.952088	-0.196054	0.154208	-1.47	4.2	0.77	0.349	0.0742	-0.3792	
-0.966972	-0.198128	0.175436	-1.47	6.37	0.7	0.3576	0.0783	-0.3898	
-0.96441	-0.18849	0.145668	-2.38	4.76	-1.54	0.3548	0.0696	-0.3778	
-0.983808	-0.222162	0.172752	-3.29	4.97	-0.84	0.3518	0.0802	-0.382	
-0.96319	-0.21228	0.142496	-7	4.76	0.49	0.3605	0.0803	-0.3759	
-0.973194	-0.2135	0.154452	-9.31	6.86	-3.43	0.3546	0.0816	-0.3835	
-0.97783	-0.213744	0.158722	-10.22	6.65	-2.66	0.3578	0.0715	-0.367	
-0.966362	-0.213134	0.142008	-9.59	9.66	-2.1	0.3589	0.0881	-0.3725	
-0.978318	-0.197152	0.131516	-11.06	12.18	-3.71	0.3546	0.0897	-0.3709	
-0.960262	-0.192882	0.120658	-12.32	11.27	-3.22	0.3502	0.088	-0.3771	
-0.984296	-0.212768	0.118828	-17.15	13.16	-2.45	0.3546	0.0933	-0.357	
-1.00589	-0.238754	0.088206	-14.21	14.07	-1.19	0.3618	0.09429999	-0.3692	
-1.008574	-0.244732	0.075762	-12.67	14.21	-4.83	0.3561	0.0887	-0.3587	
-1.004914	-0.251564	0.087718	-13.16	14.07	-5.32	0.3602	0.1003	-0.372	
-0.973316	-0.219112	0.116876	-16.17	15.19	-4.41	0.3646	0.1006	-0.3628	
-0.964654	-0.21838	0.080642	-18.2	18.2	-2.1	0.356	0.09649999	-0.3538	
-0.97905	-0.207522	0.009638	-13.02	18.34	-1.26	0.3633	0.0916	-0.3585	
-1.009916	-0.211426	-0.00976	-10.22	13.44	-5.6	0.3647	0.09649999	-0.3491	
-1.019066	-0.261446	0.053192	-6.93	14.63	-1.26	0.3676	0.09339999	-0.3508	
-0.992958	-0.27267	0.072346	-5.6	13.23	-0.14	0.3646	0.1009	-0.3551	
-0.976	-0.224968	0.05002	-5.39	11.06	3.78	0.3646	0.1025	-0.3535	
-0.984662	-0.185318	0.079666	-8.54	15.89	1.82	0.369	0.1029	-0.3412	
-1.000034	-0.183732	0.067832	-11.76	15.26	-3.15	0.3704	0.1042	-0.3457	
-1.006134	-0.214842	0.034404	-22.68	13.16	-10.78	0.369	0.0998	-0.3413	
-0.983442	-0.26962	-0.03233	-20.93	10.43	-10.36	0.3688	0.1186	-0.3313	
-0.98454	-0.272426	-0.038674	-5.32	9.38	-5.95	0.3674	0.1136	-0.3407	
-1.04737	-0.269498	-0.012566	-1.75	7.91	0.07	0.3774	0.1213	-0.3358	
-1.014308	-0.25803	0.001098	-1.89	4.97	-0.98	0.3732	0.1107	-0.3362	
-0.998204	-0.238022	0.000366	-4.76	1.47	-5.74	0.3791	0.1047	-0.3303	
-0.996862	-0.243634	0.003294	-8.47	1.47	-6.65	0.3629	0.1278	-0.331	
-0.983808	-0.244854	0.007198	-7.77	2.59	-3.08	0.3703	0.114	-0.33	
-1.020652	-0.246196	-0.024278	-3.43	1.47	-0.63	0.3759	0.1274	-0.3356	
-1.120936	-0.371734	0.018666	4.9	-6.16	0.28	0.3703	0.1139	-0.3315	
-0.838384	-0.064904	-0.110166	17.99	-37.94	7.98	0.3674	0.1155	-0.333	
-0.97173	-0.279014	0.003294	4.69	-1.33	7.35	0.3776	0.1058	-0.341	
-1.02907	-0.274622	0.040382	-0.56	-8.75	4.76	0.3717	0.1167	-0.3375	
-0.99735	-0.22326	0.01647	2.1	-19.46	0.91	0.3748	0.1045	-0.338	
-0.997838	-0.221674	0.02196	-1.33	-13.09	0.84	0.3761	0.1087	-0.347	
-1.001132	-0.245952	0.019032	-0.49	-8.26	1.89	0.3673	0.1132	-0.3515	
-0.990396	-0.253882	0.027938	0.21	-16.1	-0.21	0.3645	0.1105	-0.3424	
-0.995398	-0.26291	0.02196	4.34	-17.01	-3.85	0.3732	0.1152	-0.3376	
-0.997716	-0.24644	0.037332	4.76	-18.55	-0.28	0.3629	0.1227	-0.3435	
-1.008452	-0.2318	0.07015	3.64	-20.79	0.56	0.3615	0.1177	-0.3544	
-0.985638	-0.230092	0.054412	1.12	-29.19	1.12	0.3572	0.1097	-0.3655	
-0.99247	-0.241682	0.064172	0.7	-30.52	1.26	0.3501	0.1088	-0.3533	
-0.987102	-0.242902	0.069174	0.42	-30.24	2.73	0.36	0.1192	-0.3574	
-0.984662	-0.241804	0.095038	-0.42	-31.01	2.8	0.3514	0.1098	-0.3671	
-0.979782	-0.217404	0.116632	-1.75	-31.29	0.98	0.3601	0.1092	-0.3778	
-0.983076	-0.234606	0.130174	-1.05	-30.94	0.91	0.36	0.1124	-0.3746	
-0.95709	-0.246684	0.138958	0.49	-30.52	0.77	0.3383	0.1154	-0.3838	
-0.960628	-0.241316	0.155428	2.59	-30.1	1.19	0.3383	0.1076	-0.3887	
-0.962702	-0.222772	0.172142	3.43	-29.68	-1.33	0.3355	0.1062	-0.3857	
-0.963556	-0.228628	0.191296	3.22	-28.56	-2.38	0.3268	0.1027	-0.3997	
-0.96014	-0.228384	0.203374	2.31	-27.72	-1.96	0.3238	0.1151	-0.3961	
-0.931714	-0.219722	0.20984	1.82	-24.85	-1.75	0.3237	0.1167	-0.396	
-0.93818	-0.222406	0.20679	3.08	-23.03	-0.63	0.3209	0.1153	-0.393	
-0.949648	-0.224602	0.221186	3.71	-22.26	-1.47	0.3165	0.1118	-0.4055	
-0.962824	-0.221308	0.232288	2.73	-22.61	-1.12	0.3109	0.0946	-0.4185	
-0.94367	-0.22082	0.236924	2.66	-15.96	-2.52	0.3167	0.101	-0.409	
-0.951356	-0.237534	0.258274	0.91	-16.94	-1.89	0.3065	0.0992	-0.4183	
-0.945134	-0.246196	0.24522	0.91	-19.74	-0.21	0.3093	0.1069	-0.4164	
-0.928908	-0.239852	0.246196	1.33	-19.46	1.12	0.305	0.102	-0.4274	
-0.934154	-0.220454	0.25681	1.19	-18.13	1.96	0.3051	0.1025	-0.4136	
-0.915122	-0.229726	0.238998	2.45	-22.19	3.22	0.3079	0.1022	-0.4197	
-0.92964	-0.239486	0.26108	2.17	-20.79	3.85	0.3007	0.1006	-0.4259	
-0.935252	-0.234484	0.283162	2.8	-23.31	3.71	0.2933	0.1114	-0.4255	
-0.925004	-0.215086	0.29036	2.45	-22.75	3.64	0.2977	0.1051	-0.4288	
-0.923662	-0.205814	0.283284	1.54	-26.04	1.12	0.305	0.1033	-0.4319	
-0.916952	-0.207766	0.305366	0.77	-23.94	0.91	0.2891	0.09869999	-0.4383	
-0.916708	-0.215208	0.317078	2.45	-22.33	1.61	0.2818	0.1049	-0.4397	
-0.91378	-0.21289	0.327448	3.85	-21.49	1.33	0.2862	0.0971	-0.4415	
-0.90829	-0.203862	0.343674	4.2	-19.88	1.54	0.2848	0.0907	-0.4494	
-0.903654	-0.193492	0.350262	3.64	-18.34	1.26	0.2805	0.0905	-0.4556	
-0.901092	-0.193736	0.362096	2.87	-16.45	0.77	0.2702	0.09649999	-0.4631	
-0.899018	-0.199104	0.374662	2.24	-14.84	0.42	0.266	0.0923	-0.454	
-0.89487	-0.206424	0.382348	1.89	-13.02	0.42	0.2717	0.0949	-0.4631	
-0.894748	-0.206058	0.388326	1.68	-11.83	0.21	0.279	0.0968	-0.4523	
-0.883036	-0.203496	0.384422	0.91	-11.13	0.14	0.2718	0.094	-0.4478	
-0.880474	-0.204228	0.381128	0.07	-10.29	-0.28	0.2789	0.09779999	-0.466	
-0.873032	-0.21533	0.381982	-0.7	-9.66	-0.91	0.2615	0.098	-0.4661	
-0.882304	-0.214232	0.37881	-1.26	-8.54	-0.98	0.2573	0.0969	-0.4585	
-0.897188	-0.219112	0.378322	-2.66	-7.7	-1.05	0.2674	0.1002	-0.4476	
-0.900116	-0.22143	0.379664	-2.59	-6.72	-1.26	0.2689	0.09079999	-0.4526	
-0.905362	-0.225944	0.377956	-2.38	-6.02	-1.4	0.2673	0.101	-0.466	
-0.899262	-0.228262	0.375516	-1.89	-5.11	-1.4	0.2602	0.0953	-0.4586	
-0.888404	-0.22814	0.370514	-2.1	-4.13	-1.54	0.2543	0.1014	-0.4614	
-0.89365	-0.22692	0.379908	-2.24	-3.22	-1.12	0.2544	0.0922	-0.4618	
-0.891332	-0.221918	0.378444	-3.43	-1.82	-1.82	0.2572	0.1016	-0.4537	
-0.895968	-0.224114	0.373686	-3.36	-1.19	-2.38	0.26	0.1025	-0.469	
-0.89548	-0.226188	0.376126	-2.1	-0.63	-2.24	0.2587	0.0937	-0.4617	
-0.9028	-0.21228	0.381372	-1.82	-0.42	-1.75	0.2703	0.0903	-0.4648	
-0.905118	-0.219356	0.379298	-0.98	-0.14	-1.26	0.2556	0.1039	-0.4736	
-0.898896	-0.225456	0.370514	-0.07	0.35	-0.98	0.2601	0.1015	-0.4568	
-0.898774	-0.215086	0.370758	-0.63	0.63	-1.26	0.2543	0.09649999	-0.4677	
-0.899628	-0.215086	0.367464	-0.35	0.49	-0.49	0.2515	0.0951	-0.4663	
-0.906216	-0.224358	0.372222	-0.63	0.35	-0.56	0.2542	0.1079	-0.452	
-0.899628	-0.230946	0.372344	-0.35	0.28	-0.28	0.25	0.0971	-0.4555	
-0.906826	-0.230336	0.36173	-0.77	0	-1.26	0.266	0.0903	-0.4664	
-0.914268	-0.228506	0.366244	-1.19	-0.07	-1.47	0.2514	0.1034	-0.4491	
-0.901092	-0.231922	0.363682	-1.47	-0.42	-1.26	0.2614	0.1092	-0.4534	
-0.90463	-0.235216	0.360754	-1.89	-0.7	-2.45	0.2644	0.1013	-0.4598	
-0.903532	-0.239486	0.366732	-1.61	-0.77	-2.17	0.2586	0.1061	-0.4566	
-0.909876	-0.234972	0.365268	-1.12	-0.35	-1.47	0.2616	0.0938	-0.4586	
-0.909266	-0.234606	0.36478	-0.91	-0.35	-0.98	0.2688	0.1031	-0.4521	
-0.900848	-0.232166	0.364902	-0.63	-0.35	-0.28	0.2529	0.0982	-0.4646	
-0.899018	-0.232532	0.371856	-0.7	-0.35	0.07	0.2601	0.0983	-0.46	
-0.902922	-0.229848	0.373442	-0.91	0.07	0	0.2572	0.0968	-0.46	
-0.89975	-0.230214	0.377346	-1.05	0.49	-0.21	0.2658	0.1044	-0.4566	
-0.897676	-0.234362	0.377834	-0.7	1.12	-0.49	0.2528	0.1046	-0.4582	
-0.89243	-0.223504	0.375638	-0.42	1.61	0	0.26	0.1043	-0.4628	
-0.892918	-0.225944	0.374296	-0.35	2.1	0.49	0.2615	0.1014	-0.4583	
-0.88816	-0.229116	0.374784	-3.64	1.89	0.56	0.2557	0.1029	-0.4598	
-0.894016	-0.224114	0.374418	-5.11	2.52	0.21	0.2659	0.0968	-0.4569	
-0.895114	-0.227164	0.372222	-6.79	3.36	0	0.2642	0.1152	-0.4547	
-0.888892	-0.237412	0.370392	-7	3.99	0.07	0.2658	0.1011	-0.4629	
-0.890478	-0.232166	0.368318	-7	5.25	-0.28	0.2687	0.1075	-0.455	
-0.88999	-0.227286	0.37454	-7.49	6.16	-0.91	0.2745	0.1077	-0.4488	
-0.877668	-0.232044	0.358558	-6.86	7.21	0	0.2628	0.1088	-0.4626	
-0.887184	-0.233874	0.363194	-6.72	8.61	0.28	0.2585	0.1155	-0.4501	
-0.888892	-0.230946	0.359046	-7.07	10.57	1.12	0.2629	0.1062	-0.452	
-0.877668	-0.243146	0.360266	-6.93	11.62	2.52	0.2585	0.1107	-0.4549	
-0.889258	-0.228262	0.356972	-6.09	13.51	3.43	0.2686	0.1136	-0.4562	
-0.88694	-0.230824	0.348432	-4.27	14.63	3.64	0.2775	0.0984	-0.4507	
-0.896944	-0.220698	0.346358	-4.34	16.38	4.55	0.2774	0.1094	-0.4426	
-0.910364	-0.23485	0.342088	-1.33	19.18	0.7	0.273	0.1111	-0.441	
-0.908046	-0.235582	0.33428	-2.94	19.18	-0.14	0.2744	0.1157	-0.4377	
-0.908046	-0.22753	0.317322	-2.8	20.09	0.07	0.2816	0.1202	-0.4391	
-0.904874	-0.233508	0.306952	-0.14	20.93	0.21	0.2903	0.1121	-0.4455	
-0.904264	-0.233996	0.307806	0.91	21.56	-0.14	0.286	0.1125	-0.4378	
-0.917318	-0.248636	0.302194	1.89	20.58	-2.94	0.2933	0.1098	-0.4271	
-0.93391	-0.251076	0.296948	1.61	21.21	-3.99	0.2905	0.1099	-0.4256	
-0.92293	-0.235338	0.281454	1.54	21.7	-4.34	0.3019	0.1124	-0.4347	
-0.938546	-0.223504	0.265106	1.96	18.83	-4.83	0.2977	0.1067	-0.4257	
-0.924394	-0.232654	0.269254	1.12	21.56	-4.62	0.3062	0.1238	-0.4142	
-0.940986	-0.234118	0.25803	-0.14	21.07	-4.9	0.3035	0.1116	-0.4163	
-0.934276	-0.24827	0.237168	0.49	23.03	-5.53	0.3048	0.1141	-0.43	
-0.940986	-0.24583	0.253516	-0.7	17.5	-5.18	0.3078	0.1113	-0.4209	
-0.962824	-0.252174	0.238876	-0.07	14.49	-5.39	0.3092	0.1161	-0.4161	
-0.941352	-0.250466	0.237168	1.05	9.87	-3.29	0.3121	0.1195	-0.4067	
-0.949282	-0.250222	0.221796	-1.19	6.86	-2.94	0.3149	0.119	-0.4175	
-0.947208	-0.264496	0.254858	-5.11	5.6	-3.71	0.3191	0.1282	-0.414	
-0.940986	-0.256932	0.244854	-4.27	-1.61	3.22	0.3164	0.1212	-0.4005	
-0.94001	-0.22875	0.242048	-2.8	2.03	7.42	0.3121	0.1129	-0.4193	
-0.94428	-0.247416	0.211426	-0.14	6.23	11.2	0.3149	0.1206	-0.4143	
-0.94672	-0.265106	0.221674	4.27	12.6	14.63	0.3093	0.115	-0.4039	
-0.956602	-0.259372	0.235948	4.83	21.84	13.3	0.3237	0.1176	-0.4098	
-0.945744	-0.236192	0.205326	7.42	25.97	11.2	0.3194	0.1099	-0.4147	
-0.960994	-0.231556	0.20801	5.88	29.12	5.32	0.315	0.1179	-0.4052	
-0.962458	-0.235338	0.190808	5.46	31.43	3.92	0.3165	0.1136	-0.3993	
-0.958066	-0.228628	0.188978	7.21	30.38	1.89	0.3253	0.1124	-0.3885	
-0.96685	-0.227408	0.164212	7.91	28.7	-1.75	0.3296	0.1172	-0.3807	
-0.976244	-0.239242	0.153964	7.42	28.28	-1.75	0.3427	0.1111	-0.3762	
-0.978074	-0.226432	0.157014	6.37	24.15	-1.75	0.3441	0.1107	-0.3855	
-0.992226	-0.224846	0.140788	7	16.87	0.42	0.334	0.1107	-0.3886	
-0.979538	-0.22021	0.131272	8.12	21.77	1.89	0.3485	0.1062	-0.381	
-0.981856	-0.24034	0.113338	9.1	18.9	1.33	0.3414	0.0991	-0.3706	
-0.993202	-0.228506	0.124074	5.25	18.9	1.89	0.3472	0.1002	-0.3797	
-0.995398	-0.229726	0.097112	6.09	18.34	0.21	0.3514	0.1127	-0.37	
-1.005158	-0.232532	0.093452	8.19	16.8	2.31	0.36	0.1155	-0.3729	
-0.986004	-0.232044	0.104432	6.93	15.47	3.22	0.3558	0.1052	-0.3641	
-0.993446	-0.211792	0.094428	6.23	13.02	4.41	0.3487	0.1007	-0.3659	
-0.983564	-0.226188	0.087718	6.02	14.91	5.04	0.3618	0.0961	-0.3614	
-0.98393	-0.237656	0.06466	5.53	13.51	4.48	0.353	0.0991	-0.3659	
-0.994056	-0.233752	0.09089	5.39	12.11	6.58	0.3531	0.0964	-0.3584	
-1.007476	-0.231678	0.0793	6.02	12.39	5.88	0.3618	0.0915	-0.3631	
-0.995398	-0.215452	0.081618	4.06	11.13	4.48	0.3691	0.0967	-0.3445	
-0.998326	-0.212646	0.072834	5.74	11.34	6.72	0.356	0.0933	-0.357	
-0.994544	-0.211304	0.069784	4.48	10.43	2.94	0.3633	0.0916	-0.3601	
-0.99918	-0.224846	0.081008	5.04	8.96	4.9	0.3735	0.0885	-0.3571	
-0.997838	-0.214964	0.051362	6.44	7.49	3.29	0.362	0.08109999	-0.3544	
-1.008208	-0.209474	0.04026	7.21	4.62	3.5	0.3618	0.0916	-0.3585	
-1.000156	-0.219356	0.072834	4.55	4.48	2.17	0.3633	0.0936	-0.3462	
-0.99918	-0.206424	0.059414	7.42	2.45	4.34	0.3633	0.0931	-0.36	
-1.000278	-0.203618	0.055998	7.35	1.47	4.13	0.375	0.0825	-0.3527	
-1.005768	-0.200202	0.056486	5.95	0.42	3.22	0.3576	0.0843	-0.3542	
-1.008696	-0.193004	0.054534	4.76	-0.21	2.24	0.3704	0.1011	-0.3474	
-1.005402	-0.190686	0.060024	3.64	-1.89	2.17	0.3692	0.0888	-0.3494	
-0.998814	-0.18971	0.085156	2.66	-2.59	2.38	0.372	0.0887	-0.3525	
-0.990274	-0.202886	0.061	6.09	-5.32	1.05	0.3592	0.0768	-0.3499	
-1.010038	-0.211914	0.069906	6.02	-3.99	-1.05	0.3634	0.081	-0.3574	
-0.996496	-0.208254	0.064904	6.79	-5.39	0.42	0.3808	0.0792	-0.3574	
-1.001742	-0.194712	0.07076	5.74	-5.39	0.63	0.365	0.0749	-0.3577	
-0.991616	-0.191052	0.096868	1.89	-6.79	-1.4	0.3519	0.0812	-0.3575	
-0.978318	-0.196786	0.087596	4.76	-9.17	1.4	0.3665	0.0733	-0.3577	
-0.992714	-0.190808	0.07991	8.82	-10.29	0.14	0.3663	0.0874	-0.3479	
-0.994422	-0.190686	0.110044	1.68	-11.13	-1.12	0.3563	0.078	-0.3591	
-0.97783	-0.185928	0.112118	1.61	-11.06	2.24	0.3577	0.0828	-0.3528	
-0.976244	-0.184586	0.121146	0.7	-7.56	1.26	0.3548	0.0764	-0.3607	
-0.983564	-0.183732	0.119682	2.45	-5.11	0.56	0.3561	0.0852	-0.368	
-0.996008	-0.18056	0.125416	5.95	-5.53	0.07	0.3678	0.0824	-0.3573	
-0.99247	-0.187392	0.09699	8.05	-7.77	0.21	0.3634	0.08199999	-0.3696	
-0.99125	-0.182024	0.110654	6.58	-7.35	-0.07	0.3619	0.0857	-0.3557	
-0.986614	-0.188124	0.114436	6.02	-8.19	0	0.3548	0.0792	-0.3667	
-0.983564	-0.185318	0.119438	5.46	-7.14	-0.63	0.3547	0.07889999	-0.3759	
-0.980026	-0.178852	0.098698	4.97	-6.72	-0.63	0.3548	0.0762	-0.3669	
-0.98881	-0.186904	0.132614	3.43	-5.74	0.14	0.3519	0.0794	-0.3637	
-0.972096	-0.188856	0.14579	0.28	-5.04	1.26	0.3548	0.076	-0.3715	
-0.953308	-0.188856	0.151158	-1.19	-3.01	2.45	0.3606	0.0714	-0.3701	
-0.95831	-0.177632	0.169702	-2.45	-0.84	1.96	0.3578	0.07	-0.3671	
-0.948916	-0.164334	0.169214	-4.34	-0.35	2.45	0.3577	0.07449999	-0.3684	
-0.958432	-0.169458	0.172508	-7.84	-0.49	1.96	0.349	0.0728	-0.3778	
-0.972828	-0.179706	0.16897	-7.35	-1.05	0.42	0.3605	0.0739	-0.3838	
-0.979172	-0.18422	0.166896	-3.99	-0.49	-0.91	0.3634	0.0804	-0.3728	
-0.987346	-0.186294	0.134688	0.21	0.56	-0.91	0.3562	0.0788	-0.3775	
-0.998082	-0.17934	0.148352	3.92	-0.07	-1.68	0.3518	0.08199999	-0.3758	
-0.985516	-0.181658	0.111386	8.75	-3.71	-2.31	0.3606	0.0695	-0.3794	
-0.996252	-0.181414	0.112728	8.26	-3.36	-1.33	0.3533	0.0777	-0.3683	
-0.989176	-0.20191	0.105652	7.49	-1.4	-0.63	0.352	0.0653	-0.3734	
-0.984052	-0.195688	0.123586	4.97	-1.89	-0.07	0.3562	0.0755	-0.3822	
-0.981612	-0.198616	0.11895	3.57	-1.12	0.14	0.336	0.0742	-0.3854	
-0.991006	-0.191174	0.12627	1.61	-1.12	-0.42	0.3547	0.0768	-0.3883	
-0.996252	-0.192028	0.1342	-0.14	-1.96	-1.19	0.3478	0.0589	-0.3829	
-0.98637	-0.190076	0.140056	-1.89	-2.8	-0.77	0.3565	0.0591	-0.3737	
-0.971974	-0.184342	0.159332	-2.45	-3.08	-0.49	0.3504	0.0743	-0.3777	
-0.97173	-0.183854	0.156648	-1.19	-1.82	-0.84	0.3519	0.0775	-0.3729	
-0.971364	-0.173118	0.155672	-0.42	-1.4	-1.19	0.3564	0.065	-0.378	
-0.96746	-0.171532	0.158844	-2.17	-0.91	-0.49	0.349	0.0774	-0.376	
-0.974902	-0.174338	0.156282	-2.66	-0.35	0.21	0.3504	0.0787	-0.3821	
-0.976	-0.186782	0.147986	-0.07	-0.28	-0.21	0.3592	0.0712	-0.3747	
-0.983198	-0.178852	0.148474	1.61	-0.28	-1.47	0.3491	0.0665	-0.3826	
-0.97966	-0.184708	0.139934	0.14	-0.14	-0.77	0.3562	0.0739	-0.3838	
-0.97844	-0.18971	0.14701	-0.49	0.07	-1.26	0.3518	0.0785	-0.3852	
-0.967094	-0.189222	0.153232	-2.24	0	-0.91	0.3445	0.0849	-0.3804	
-0.969534	-0.188612	0.155062	-2.24	1.96	-0.63	0.3519	0.07759999	-0.3699	
-0.973682	-0.192882	0.150792	-2.38	1.47	-0.49	0.3533	0.07889999	-0.3744	
-0.975268	-0.198128	0.150792	-3.15	2.24	0.42	0.3547	0.0801	-0.382	
-0.980026	-0.189954	0.149572	-2.38	2.38	-0.14	0.3533	0.0756	-0.3822	
-0.973194	-0.185928	0.159088	-3.15	2.1	0.7	0.349	0.074	-0.3854	
-0.964288	-0.187026	0.160064	-2.66	2.38	0.7	0.3562	0.0742	-0.3761	
-0.966972	-0.183854	0.149694	-2.38	3.85	0.07	0.3577	0.0746	-0.3669	
-0.974658	-0.169702	0.172264	-3.29	5.18	1.33	0.359	0.0785	-0.3821	
-0.966606	-0.169214	0.162382	-3.85	5.46	2.8	0.3432	0.07759999	-0.373	
-0.970144	-0.182878	0.120658	-4.69	6.86	2.73	0.3577	0.0742	-0.3777	
-0.991738	-0.189344	0.143716	-3.92	7.14	1.82	0.3534	0.0699	-0.3717	
-0.97722	-0.203374	0.109556	-3.01	4.76	2.38	0.3462	0.0684	-0.3733	
-0.984784	-0.194346	0.145302	-3.78	8.89	1.68	0.3491	0.0683	-0.3749	
-0.976488	-0.19703	0.125294	-2.87	7.28	3.22	0.3564	0.0654	-0.3673	
-0.978928	-0.200446	0.112484	-2.17	8.19	2.52	0.359	0.0854	-0.3634	
-0.985638	-0.18544	0.115168	-2.17	9.03	1.47	0.3562	0.0806	-0.3697	
-0.979172	-0.18788	0.09394	-2.38	8.61	1.82	0.3606	0.0763	-0.3622	
-0.987224	-0.18605	0.112362	-1.4	7.56	0.56	0.362	0.0743	-0.373	
-0.971852	-0.16531	0.135176	-1.68	7.84	0.35	0.3419	0.0717	-0.3686	
-0.951722	-0.162504	0.158722	-3.99	11.41	2.03	0.3621	0.0699	-0.3671	
-0.937204	-0.16775	0.16165	-5.32	15.19	2.94	0.359	0.0853	-0.3649	
-0.95587	-0.16653	0.148718	-6.23	17.71	0.84	0.3592	0.0749	-0.3577	
-0.986858	-0.179462	0.080764	-4.2	18.41	1.47	0.3764	0.0822	-0.3604	
-1.00772	-0.17629	0.097844	-5.18	19.04	0.07	0.3634	0.0859	-0.3496	
-1.008696	-0.170922	0.110776	-7.77	16.45	-0.35	0.3621	0.08	-0.3452	
-0.972218	-0.194468	0.059658	-9.87	17.01	-1.82	0.3751	0.0765	-0.3499	
-0.987102	-0.198616	0.035502	-10.71	18.34	-5.39	0.3635	0.083	-0.3451	
-0.998814	-0.204472	0.002196	-13.09	16.66	-11.48	0.3621	0.0751	-0.3515	
-1.036146	-0.209718	0.011102	-11.06	16.1	-9.24	0.3765	0.0814	-0.342	
-1.037854	-0.198006	0.016714	-8.75	13.51	-7.14	0.3866	0.084	-0.3495	
-0.994788	-0.189832	0.021716	-10.36	13.44	-6.09	0.375	0.0844	-0.345	
-0.985882	-0.2013	-0.00671	-8.68	13.58	-6.09	0.3721	0.0879	-0.3326	
-0.999058	-0.205082	-0.024522	-7.21	13.58	-4.83	0.3836	0.0933	-0.3461	
-1.040904	-0.20862	-0.022692	-5.39	8.61	-5.53	0.3821	0.0969	-0.3337	
-1.046882	-0.202886	-0.045384	4.9	2.87	-3.22	0.3821	0.0969	-0.3337	
-1.028216	-0.201666	-0.061976	-1.89	-0.63	-5.67	0.3763	0.1035	-0.3242	
-1.038952	-0.211792	-0.024278	-5.67	4.83	-4.83	0.3778	0.0986	-0.3306	
-0.973682	-0.231678	-0.060512	-4.48	2.1	-0.35	0.3778	0.0971	-0.3306	
-0.99125	-0.210938	-0.057462	-3.5	2.31	0.98	0.3805	0.1093	-0.3301	
-1.002718	-0.219356	-0.063928	-0.49	-3.08	5.46	0.3721	0.0946	-0.32	
-1.01443	-0.223626	-0.034648	0.21	-5.39	6.58	0.3822	0.094	-0.3307	
-1.012478	-0.234362	-0.011834	3.57	-7.77	5.6	0.3807	0.1002	-0.3274	
-1.004182	-0.239486	0.006588	5.46	-8.19	6.16	0.3808	0.0909	-0.3309	
-1.015162	-0.234972	0.009881999	5.46	-9.45	6.44	0.3765	0.0862	-0.3357	
-1.014308	-0.21655	0.03233	6.16	-9.45	6.44	0.3766	0.0801	-0.3375	
-0.984784	-0.2074	0.04087	6.3	-11.13	6.72	0.3823	0.08	-0.3374	
-0.963922	-0.18544	0.04575	6.44	-10.71	4.9	0.3794	0.0895	-0.3294	
-0.965142	-0.162382	0.031842	6.65	-11.83	4.13	0.372	0.0941	-0.3323	
-0.977952	-0.173362	0.055144	6.44	-9.52	3.71	0.3735	0.09209999	-0.3416	
-0.988078	-0.177266	0.063074	5.81	-8.89	4.2	0.3823	0.08329999	-0.3296	
-0.995398	-0.177266	0.081008	5.6	-8.68	3.71	0.3737	0.0751	-0.3469	
-0.995154	-0.178364	0.084302	4.83	-8.75	3.01	0.3751	0.0832	-0.3358	
-0.988078	-0.16897	0.081862	3.15	-9.66	2.1	0.3793	0.0858	-0.3449	
-0.97844	-0.168482	0.086498	2.87	-8.54	1.75	0.3737	0.0783	-0.3437	
-0.974658	-0.167872	0.087718	2.1	-8.61	-0.21	0.3807	0.0919	-0.3446	
-0.97722	-0.170922	0.076982	1.54	-7.77	-0.98	0.3764	0.0872	-0.3494	
-0.976244	-0.174826	0.0854	0.7	-6.65	-1.96	0.3764	0.0824	-0.3542	
-0.982588	-0.18666	0.077348	0.21	-6.02	-0.98	0.3591	0.0874	-0.351	
-0.979904	-0.182878	0.084912	0.77	-4.62	-0.63	0.3737	0.0784	-0.3421	
-0.984296	-0.17812	0.084912	1.05	-4.9	-0.98	0.3635	0.0748	-0.3607	
-0.98759	-0.169946	0.09552599	0.35	-4.27	-1.75	0.3635	0.07979999	-0.3498	
-0.98088	-0.179706	0.08906	-0.91	-3.36	-1.75	0.3721	0.0824	-0.3573	
-0.986858	-0.174948	0.086742	-0.91	-2.24	-1.89	0.3692	0.0824	-0.3589	
-0.98881	-0.179096	0.083814	0.49	-2.03	-1.61	0.3778	0.0898	-0.3601	
-0.991372	-0.186782	0.083814	0.49	-3.29	-2.45	0.3691	0.08679999	-0.3618	
-0.98942	-0.191784	0.084912	-0.42	-2.66	-3.92	0.3633	0.0883	-0.3648	
-0.98393	-0.19703	0.08601	0.84	-2.1	-1.96	0.3691	0.0867	-0.3648	
-0.986736	-0.194956	0.082472	0.63	-1.82	-1.75	0.3619	0.0871	-0.3587	
-0.983686	-0.194712	0.086742	0.14	-1.61	-1.96	0.3692	0.08549999	-0.3557	
-0.980148	-0.191784	0.085278	0.63	-0.84	-1.61	0.3676	0.0949	-0.3507	
-0.98454	-0.187392	0.085888	0.49	-0.49	-1.47	0.3648	0.0903	-0.354	
-0.987102	-0.190442	0.08479	-0.07	-1.05	-1.54	0.3632	0.0995	-0.3521	
-0.982588	-0.194712	0.101138	0	-1.19	-1.12	0.3737	0.0748	-0.3545	
-0.986858	-0.195566	0.093208	0.42	-0.91	0.14	0.3619	0.0885	-0.3617	
-0.981856	-0.19459	0.102236	0	-0.28	0.07	0.359	0.0873	-0.3541	
-0.981978	-0.195444	0.087474	-0.07	0.07	-0.21	0.359	0.0821	-0.3681	
-0.986248	-0.200568	0.10004	-0.35	1.26	-0.35	0.3619	0.0857	-0.3557	
-0.974658	-0.21228	0.092598	0.14	1.68	0.63	0.3692	0.0792	-0.3621	
-0.977952	-0.199226	0.09882	-0.42	2.66	0.28	0.3621	0.07979999	-0.3483	
-0.981002	-0.191418	0.0793	-1.12	2.17	-0.42	0.372	0.0885	-0.3571	
-0.992348	-0.167872	0.091744	-0.98	2.66	-1.12	0.3662	0.0869	-0.3618	
-0.990396	-0.187392	0.086498	-2.45	3.08	-1.05	0.3518	0.0873	-0.3572	
-0.992714	-0.187514	0.090646	-3.15	3.99	-1.4	0.3561	0.0889	-0.3541	
-0.987712	-0.186782	0.08052	-3.85	3.78	-2.1	0.3678	0.0858	-0.3495	
-0.987956	-0.172264	0.071858	-4.27	3.5	-2.45	0.3606	0.0813	-0.3498	
-0.9943	-0.179462	0.077592	-5.74	2.8	-4.13	0.372	0.0916	-0.3554	
-0.993568	-0.192882	0.085644	-5.25	3.43	-5.39	0.3721	0.0889	-0.3463	
-0.992348	-0.207888	0.057462	-5.25	4.13	-7.42	0.3749	0.0914	-0.3585	
-0.982466	-0.21838	0.052216	-3.64	4.27	-8.75	0.3676	0.0933	-0.3538	
-0.997106	-0.184708	0.066978	-3.15	2.17	-11.13	0.3517	0.0968	-0.3476	
-0.992714	-0.20496	0.08113	-2.8	2.17	-11.97	0.3676	0.09649999	-0.3491	
-0.995642	-0.224968	0.060756	-1.82	3.36	-14.07	0.3806	0.0964	-0.346	
-0.993934	-0.228994	0.054046	0	5.67	-15.68	0.3746	0.1131	-0.3499	
-0.979172	-0.21777	0.062464	0.49	6.44	-16.03	0.3706	0.0888	-0.3494	
-0.997106	-0.197152	0.046116	2.38	9.94	-16.73	0.3691	0.09869999	-0.3321	
-0.987346	-0.206424	0.047214	0.21	-6.72	-13.44	0.3733	0.1027	-0.3458	
-0.979294	-0.239852	0.055876	-2.59	4.48	-15.75	0.3645	0.1137	-0.3392	
-0.983808	-0.272548	0.050874	-3.78	-6.23	-12.39	0.366	0.1022	-0.3596	
-0.986492	-0.242658	0.074176	0	9.17	-13.37	0.3689	0.1058	-0.3441	
-0.977952	-0.252296	0.005734	0.91	7.21	-13.02	0.3572	0.1181	-0.3483	
-1.009306	-0.256444	0.06649	2.1	3.29	-13.44	0.3644	0.1181	-0.3452	
-0.994178	-0.2867	0.04758	-1.12	0.21	-13.16	0.3672	0.1208	-0.3512	
-0.991128	-0.299388	0.0549	-3.22	1.19	-13.37	0.3615	0.118	-0.3483	
-0.97478	-0.305	0.060512	-4.27	3.92	-15.12	0.3687	0.1211	-0.3435	
-0.975024	-0.291214	0.061366	-5.25	4.06	-17.22	0.3613	0.1319	-0.3431	
-0.957456	-0.274378	0.049288	-6.23	3.71	-18.06	0.3686	0.1288	-0.3417	
-0.94855	-0.293166	0.075396	-6.86	6.44	-19.81	0.3644	0.121	-0.3481	
-0.945744	-0.293776	0.041602	-4.76	3.57	-17.57	0.367	0.1429	-0.3334	
-0.959408	-0.30256	0.01769	-0.63	3.22	-16.73	0.3584	0.1333	-0.3477	
-0.971608	-0.311832	0.044042	-1.4	1.75	-16.52	0.3598	0.1397	-0.3397	
-0.96685	-0.335012	0.045506	-1.47	-0.84	-17.08	0.3553	0.1454	-0.3518	
-0.950624	-0.306098	0.035624	-1.54	-2.45	-17.43	0.3671	0.1367	-0.3368	
-0.95526	-0.307928	0.035624	-0.91	-1.4	-17.78	0.3523	0.1546	-0.3514	
-0.948184	-0.320006	0.05368	-0.63	0.77	-15.82	0.3595	0.1613	-0.3327	
-0.945866	-0.312442	0.034038	-1.12	0.49	-15.4	0.3611	0.1505	-0.3362	
-0.956236	-0.325618	0.044896	-0.77	2.45	-14.77	0.3581	0.1534	-0.3407	
-0.965508	-0.351604	0.03965	0.21	-1.19	-13.09	0.348	0.1519	-0.3439	
-0.949892	-0.35807	0.040992	0.63	-1.96	-13.86	0.3537	0.158	-0.3421	
-0.94672	-0.366	0.044408	1.33	-0.42	-12.25	0.3479	0.1596	-0.3421	
-0.93818	-0.354166	0.040016	2.31	-2.24	-11.9	0.3551	0.1659	-0.3341	
-0.942328	-0.355996	0.03721	3.36	-3.78	-11.48	0.3523	0.1596	-0.342	
-0.94428	-0.360876	0.04148	3.22	-2.94	-10.57	0.3565	0.1655	-0.3433	
-0.925248	-0.365024	0.034648	3.85	-2.1	-9.94	0.3522	0.1658	-0.3387	
-0.933666	-0.357948	0.051606	7.49	-2.38	-5.67	0.3536	0.1674	-0.3371	
-0.926712	-0.369172	0.063074	4.41	1.47	-4.34	0.3493	0.1658	-0.3403	
-0.92537	-0.38491	0.059536	5.74	1.68	-4.13	0.355	0.1716	-0.3446	
-0.931104	-0.385276	0.060268	5.18	2.17	-3.64	0.3492	0.1653	-0.351	
-0.940254	-0.395158	0.055876	5.46	1.54	-3.22	0.3535	0.17	-0.3462	
-0.936472	-0.384178	0.055022	4.34	0.35	-4.34	0.3578	0.1778	-0.3413	
-0.934276	-0.385886	0.052338	3.29	-0.56	-5.67	0.3551	0.1591	-0.3512	
-0.943182	-0.382714	0.051118	3.29	-1.4	-5.88	0.3507	0.1703	-0.3416	
-0.943548	-0.395768	0.049166	2.03	-1.19	-5.53	0.3464	0.1626	-0.3435	
-0.931592	-0.388814	0.047336	2.45	-0.35	-5.53	0.3465	0.163	-0.3343	
-0.917684	-0.388082	0.056608	2.03	0.63	-5.18	0.3448	0.1795	-0.3413	
-0.919636	-0.381128	0.062708	1.47	0.91	-3.85	0.352	0.1759	-0.3521	
-0.91866	-0.391498	0.05978	1.33	1.12	-2.59	0.3565	0.1704	-0.337	
-0.922808	-0.407114	0.066734	0.98	1.26	-3.5	0.3492	0.1737	-0.3323	
-0.921832	-0.410652	0.064416	0.49	1.19	-3.08	0.3521	0.1702	-0.3432	
-0.923174	-0.394914	0.067588	0.56	0.56	-2.73	0.3535	0.1717	-0.3431	
-0.922076	-0.3843	0.066124	0.98	-0.28	-2.73	0.3506	0.17	-0.3493	
-0.9272	-0.397232	0.06527	0.14	-0.21	-3.08	0.3405	0.1704	-0.3417	
-0.931104	-0.396378	0.058804	-0.56	0.14	-3.78	0.3566	0.161	-0.3435	
-0.92476	-0.392962	0.064172	-0.77	1.12	-3.22	0.3535	0.17	-0.3462	
-0.924028	-0.388082	0.04697	-1.33	1.54	-2.24	0.3506	0.1763	-0.3444	
-0.923906	-0.398696	0.047946	-1.19	1.4	-2.38	0.3507	0.1688	-0.3401	
-0.929762	-0.397476	0.051606	-0.7	2.24	-1.4	0.3421	0.1677	-0.3341	
-0.933544	-0.39772	0.051728	-1.12	2.52	-0.63	0.3563	0.1744	-0.3506	
-0.927322	-0.39955	0.04697	-0.98	2.45	-0.7	0.3494	0.1611	-0.342	
-0.925004	-0.402844	0.047702	-0.98	1.82	-0.77	0.3592	0.1796	-0.3351	
-0.932934	-0.399428	0.048312	-0.7	1.12	-0.49	0.3435	0.1639	-0.3511	
-0.931104	-0.396012	0.048434	-1.33	0.21	-0.42	0.3521	0.1717	-0.3446	
-0.92781	-0.396988	0.046604	-0.91	-0.21	-0.42	0.3491	0.173	-0.3492	
-0.917928	-0.397476	0.040138	-0.35	-0.14	0	0.355	0.1705	-0.3355	
-0.915	-0.404918	0.039528	0.7	0.14	0.35	0.352	0.1761	-0.3475	
-0.925248	-0.407236	0.046604	0.56	0.35	0.77	0.3433	0.1764	-0.3429	
-0.923662	-0.404674	0.05063	0.35	1.19	1.26	0.3522	0.1656	-0.3433	
-0.920734	-0.402112	0.051606	0.21	1.54	0.98	0.3521	0.1734	-0.3384	
-0.930738	-0.401258	0.054412	0.84	1.33	0.84	0.3346	0.1796	-0.3429	
-0.93147	-0.397964	0.054168	0.56	0.7	0.56	0.3549	0.1794	-0.3397	
-0.925736	-0.392718	0.048068	0.91	-0.14	0.63	0.3622	0.175	-0.3337	
-0.925004	-0.395036	0.041602	1.54	-0.42	0.77	0.3506	0.1746	-0.3491	
-0.940742	-0.385642	0.050264	0.98	-0.56	1.33	0.352	0.1745	-0.3491	
-0.93208	-0.38857	0.043676	0.28	-0.07	1.68	0.3363	0.164	-0.3511	
-0.931836	-0.384666	0.043188	0.7	0.42	2.17	0.3579	0.1705	-0.3339	
-0.93147	-0.379298	0.040138	0.91	1.12	3.15	0.3551	0.1642	-0.3403	
-0.926712	-0.380762	0.042944	2.1	1.54	4.27	0.3505	0.1778	-0.3444	
-0.926468	-0.385398	0.044896	2.45	2.1	4.76	0.3638	0.1608	-0.345	
-0.930006	-0.385764	0.0488	3.64	2.17	5.39	0.3478	0.1673	-0.3402	
-0.92903	-0.38552	0.046604	4.9	1.33	6.16	0.3565	0.1624	-0.3465	
-0.940376	-0.375638	0.04941	9.03	-1.54	10.36	0.3493	0.1675	-0.3341	
-0.933544	-0.379542	0.052704	9.94	-1.89	11.06	0.3623	0.1625	-0.3419	
-0.92598	-0.366366	0.048556	12.11	-1.89	12.88	0.3522	0.1641	-0.3419	
-0.932324	-0.345992	0.053558	15.54	0.28	14.35	0.3551	0.1621	-0.3527	
-0.936228	-0.362706	0.065758	17.43	0.84	16.73	0.3624	0.1592	-0.3466	
-0.933788	-0.361608	0.067588	14.7	1.82	15.75	0.3553	0.1487	-0.3455	
-0.936106	-0.362096	0.063928	11.27	1.54	13.02	0.3639	0.1517	-0.3423	
-0.956236	-0.352092	0.06649	9.24	-0.28	9.45	0.3553	0.1503	-0.3424	
-0.976732	-0.332816	0.054656	7.35	-3.99	8.75	0.3596	0.1553	-0.3314	
-0.95465	-0.34038	0.071614	6.72	-3.78	10.5	0.3611	0.1471	-0.344	
-0.922198	-0.35258	0.064416	6.79	-0.98	10.15	0.3526	0.1284	-0.3586	
-0.94184	-0.376858	0.069052	3.92	0.77	7.56	0.3611	0.144	-0.3457	
-0.940864	-0.37027	0.072468	4.06	3.57	7.84	0.3611	0.1457	-0.3426	
-0.962824	-0.34892	0.052704	5.53	1.61	8.12	0.3671	0.1348	-0.3445	
-0.952942	-0.33855	0.05795	6.58	3.99	9.17	0.3613	0.1317	-0.3477	
-0.940864	-0.344528	0.060024	6.37	2.52	12.6	0.364	0.144	-0.3441	
-0.94367	-0.337086	0.07137	4.48	3.5	11.62	0.357	0.1333	-0.3477	
-0.949404	-0.334036	0.059292	3.5	3.01	10.29	0.3656	0.1298	-0.3554	
-0.945866	-0.320006	0.06954	0	3.57	10.01	0.363	0.1148	-0.3499	
-0.943304	-0.318786	0.06527	-4.27	0.56	9.31	0.3688	0.1181	-0.3436	
-0.930128	-0.32818	0.083448	-5.81	2.52	12.25	0.3759	0.1255	-0.3464	
-0.959042	-0.312686	0.056974	-3.57	5.53	14.84	0.3714	0.1316	-0.3461	
-0.96441	-0.319396	0.055388	-5.04	4.55	14.84	0.3687	0.1178	-0.3513	
-0.962458	-0.301096	0.066978	-6.93	3.5	13.86	0.3643	0.119	-0.3605	
-0.922198	-0.30256	0.088572	-10.57	4.69	14.91	0.3645	0.115	-0.3453	
-0.951722	-0.300974	0.060634	-7.91	-2.24	13.86	0.3702	0.1129	-0.3576	
-0.979294	-0.308904	0.03599	-6.3	-0.77	17.29	0.3659	0.1182	-0.3406	
-0.984174	-0.280844	0.069052	-8.54	0.35	15.26	0.3717	0.1148	-0.3483	
-0.971242	-0.261324	0.04758	-7.77	-0.07	16.52	0.3775	0.1086	-0.3486	
-0.967582	-0.260958	0.056364	-8.26	1.19	15.75	0.3675	0.1059	-0.3441	
-0.978928	-0.25803	0.043188	-7.84	2.03	17.08	0.3746	0.115	-0.3422	
-0.985394	-0.240584	0.04209	-7.91	2.38	16.94	0.369	0.1044	-0.3426	
-0.98759	-0.230214	0.03538	-8.19	0.84	17.71	0.3703	0.1089	-0.3425	
-0.988078	-0.231556	0.025742	-7	2.17	18.2	0.3718	0.106	-0.338	
-0.992836	-0.233996	0.025376	-6.86	1.19	17.29	0.3703	0.1072	-0.3471	
-1.001498	-0.227896	0.03233	-4.06	-0.07	17.64	0.3879	0.09649999	-0.3413	
-1.000278	-0.2257	0.036234	-4.76	0.77	14.35	0.3634	0.0895	-0.3341	
-0.99796	-0.209352	0.02684	-3.78	-0.98	15.82	0.3647	0.1032	-0.335	
-0.997594	-0.198616	0.036356	-4.27	3.43	12.88	0.3691	0.097	-0.3368	
-0.992592	-0.215574	0.010248	-1.89	1.75	14.77	0.3778	0.0937	-0.34	
-0.99125	-0.204228	0.034892	-3.08	2.52	12.6	0.3793	0.09079999	-0.3339	
-0.990396	-0.217282	0.012688	-1.54	5.88	12.95	0.3764	0.0922	-0.34	
-0.984784	-0.207278	0.0305	0.14	5.81	16.1	0.3736	0.09119999	-0.3263	
-0.98881	-0.181658	0.011956	1.4	4.62	15.82	0.372	0.0969	-0.3368	
-0.99308	-0.145424	0.034282	4.34	7.98	15.4	0.3866	0.083	-0.3373	
-1.007232	-0.145424	0.033428	7.56	10.15	15.26	0.3809	0.0865	-0.328	
-1.011502	-0.163724	0.03233	4.48	4.83	11.34	0.3883	0.0707	-0.3378	
-1.00955	-0.151646	0.036844	4.34	5.32	9.03	0.3882	0.0755	-0.3314	
-0.993812	-0.139324	0.035136	2.59	4.69	10.08	0.3794	0.0846	-0.3373	
-0.992714	-0.144814	0.015372	1.61	6.65	10.43	0.3839	0.0722	-0.3393	
-1.000034	-0.152866	0.025132	2.94	9.66	12.32	0.3869	0.0678	-0.3348	
-0.99674	-0.14823	0.015372	3.22	9.45	14.07	0.3884	0.0619	-0.3289	
-0.992592	-0.14823	0.020252	1.82	10.29	14.7	0.3841	0.0633	-0.3335	
-0.997838	-0.149572	0.008784	2.8	11.41	17.5	0.3898	0.0632	-0.3335	
-0.997716	-0.157868	0.004026	2.94	13.02	15.4	0.3928	0.0592	-0.3198	
-0.994422	-0.164456	0.017202	0.14	10.01	15.19	0.4029	0.0633	-0.3257	
-1.011624	-0.159698	-0.002562	1.26	8.61	14.91	0.3854	0.073	-0.3193	
-1.02114	-0.12383	0.00244	2.52	8.82	13.09	0.3987	0.053	-0.32	
-1.00955	-0.120048	-0.013908	-1.12	5.95	11.06	0.3886	0.0534	-0.3139	
-1.015772	-0.122488	-0.032452	-0.07	5.46	10.64	0.3929	0.0545	-0.3215	
-1.016138	-0.096868	-0.019032	-3.78	3.08	6.37	0.3886	0.0535	-0.3109	
-1.006744	-0.098942	-0.013542	-1.89	1.82	11.48	0.4045	0.0515	-0.3155	
-1.012844	-0.117608	-0.025864	-1.89	2.17	11.41	0.4002	0.0501	-0.3155	
-1.009306	-0.10858	-0.020374	-1.96	3.5	11.2	0.3872	0.0504	-0.3125	
-1.013332	-0.108214	-0.02257	-1.47	3.78	12.25	0.4033	0.0379	-0.313	
-1.020896	-0.101382	-0.01586	-2.1	2.03	12.04	0.3916	0.0453	-0.3234	
-1.02602	-0.098088	-0.025498	-2.59	2.17	10.08	0.4003	0.0422	-0.3205	
-1.02114	-0.08906	-0.027206	-5.25	-0.56	7.07	0.3989	0.0409	-0.3175	
-1.019432	-0.0793	-0.023668	-5.88	-0.56	6.79	0.3903	0.0395	-0.316	
-1.013576	-0.05978	-0.03233	-7.42	-1.12	5.32	0.3945	0.0436	-0.3281	
-1.007842	-0.056974	-0.019154	-5.53	-0.77	6.79	0.3829	0.044	-0.3205	
-1.008818	-0.066124	-0.04148	-6.58	-0.63	5.81	0.396	0.0424	-0.3189	
-1.012234	-0.066368	-0.033062	-6.65	0.07	5.88	0.3917	0.0395	-0.316	
-1.01748	-0.059902	-0.03233	-6.79	-0.77	5.04	0.396	0.041	-0.3159	
-1.00528	-0.06893	-0.042944	-3.64	-0.84	8.82	0.3918	0.0319	-0.3163	
-1.007964	-0.058072	-0.029646	-3.29	-1.19	7.28	0.3903	0.0381	-0.3145	
-1.00345	-0.065636	-0.010492	-2.45	0	8.26	0.3917	0.0396	-0.3129	
-0.994544	-0.057706	-0.004636	-2.73	0.7	7.14	0.4033	0.0392	-0.319	
-0.998692	-0.048312	-0.012444	-0.63	0.98	7.63	0.4019	0.0334	-0.3116	
-1.006988	-0.038308	0.003416	0.91	1.47	7.35	0.3918	0.0336	-0.3101	
-1.003084	-0.037942	0.007076	1.68	1.96	7.91	0.4033	0.0346	-0.3192	
-1.002474	-0.037942	-0.003538	1.19	2.66	6.58	0.3977	0.0222	-0.3274	
-1.00589	-0.042456	-0.011834	-0.21	2.59	4.48	0.3977	0.029	-0.3103	
-1.010526	-0.055388	-0.004636	-0.63	0.84	5.18	0.405	0.0178	-0.3199	
-1.014674	-0.059292	-0.011712	1.47	1.89	4.13	0.3977	0.0274	-0.3119	
-1.023336	-0.045506	-0.022326	-0.28	0.84	2.87	0.3992	0.0179	-0.3184	
-1.004548	-0.044896	-0.038308	-0.63	1.82	2.73	0.4022	0.0167	-0.3092	
-1.012112	-0.036966	-0.04514	0.14	1.26	5.25	0.3948	0.0271	-0.3211	
-1.012844	-0.043554	-0.041724	-0.35	2.45	5.53	0.4006	0.0243	-0.312	
-1.010404	-0.036356	-0.034404	0.42	2.1	5.46	0.3963	0.0225	-0.3197	
-1.013454	-0.033672	-0.031354	0.49	1.47	5.95	0.4094	0.0213	-0.3075	
-1.009428	-0.037698	-0.034282	-0.7	1.26	5.11	0.3935	0.0197	-0.3137	
-1.01138	-0.044896	-0.017568	-1.33	1.19	5.67	0.392	0.0201	-0.3045	
-1.015772	-0.02318	-0.02684	-1.05	0.56	3.92	0.3833	0.0281	-0.2996	
-1.014186	-0.018544	-0.021472	-1.68	-0.07	3.43	0.4008	0.0154	-0.3047	
-1.014918	-0.023668	-0.040626	-1.68	-1.05	2.59	0.3875	0.0291	-0.3119	
-1.01748	-0.020862	-0.031842	-3.08	-0.63	-0.07	0.3964	0.0151	-0.3139	
-1.005524	-0.02196	-0.028426	-1.4	-1.26	3.08	0.392	0.0232	-0.3044	
-1.012112	-0.032818	-0.025742	-0.63	-0.14	3.71	0.4053	0.0045	-0.3082	
-1.001864	-0.021716	-0.021594	-0.91	-0.35	2.59	0.3977	0.0191	-0.3275	
-1.008696	-0.01098	-0.026352	-0.56	0.07	3.22	0.4007	0.0185	-0.3045	
-1.007598	-0.013664	-0.018056	-0.77	0.77	3.22	0.3993	0.0168	-0.3077	
-1.013698	-0.021716	-0.025254	-0.56	0.77	3.01	0.3994	0.0104	-0.3156	
-1.012844	-0.018422	-0.01708	-0.7	0.35	1.47	0.4038	0.0076	-0.308	
-1.0126	-0.024888	-0.024766	-0.07	0.56	1.47	0.3936	0.0142	-0.3002	
-1.011014	-0.018178	-0.027816	-0.35	0.91	0.49	0.4052	0.009099999	-0.308	
-1.002596	-0.01464	-0.02196	-1.47	0.56	-0.28	0.3922	0.0073	-0.3204	
-1.00589	-0.019642	-0.025986	-0.35	0.98	0.07	0.3921	0.0135	-0.3186	
-1.016382	-0.022814	-0.034282	0.49	2.24	1.61	0.3993	0.0166	-0.3138	
-1.014308	-0.016226	-0.04148	0.98	2.31	2.45	0.3864	0.0126	-0.3049	
-1.019432	-0.008784	-0.042212	0.14	1.47	2.45	0.3908	0.0063	-0.3066	
-1.011746	-0.012078	-0.041968	0.35	1.19	1.75	0.4022	0.0169	-0.3046	
-1.018578	-0.016714	-0.029646	0.35	1.54	1.4	0.398	0.0092	-0.308	
-1.009672	-0.020252	-0.032452	-0.21	0.91	1.26	0.4066	0.0106	-0.3094	
-1.007232	-0.014884	-0.028914	-0.35	0.77	0.98	0.3965	0.009	-0.3141	
-1.012234	-0.008905999	-0.030866	-0.28	0.49	1.05	0.4109	0.0121	-0.3063	
-1.015284	-0.00976	-0.030012	-0.21	0.84	1.26	0.392	0.0184	-0.3107	
-1.00528	-0.013176	-0.031476	0.21	0.91	1.33	0.4008	0.0123	-0.3063	
-1.010892	-0.008662	-0.026108	0.91	0.98	0.91	0.4038	0.0094	-0.3003	
-1.012722	-0.015128	-0.047214	1.12	0.63	-0.49	0.3949	0.0217	-0.3014	
-1.018944	-0.007198	-0.033428	1.47	0.56	-0.21	0.4009	0.0061	-0.3096	
-1.017358	-0.0183	-0.03843	0.56	1.61	0.7	0.4022	0.0184	-0.3045	
-1.010526	-0.016836	-0.037088	1.05	2.31	1.75	0.4051	0.0157	-0.297	
-1.011624	-0.011956	-0.03965	0.49	1.75	1.82	0.4051	0.0169	-0.3031	
-1.012722	-0.005002	-0.043432	0.42	0.84	0.98	0.3994	0.0076	-0.3096	
-1.020286	-0.014274	-0.0366	-0.07	2.03	0.7	0.3993	0.0136	-0.3124	
-1.015528	-0.013786	-0.03477	-0.35	1.75	0.35	0.4052	0.0109	-0.3002	
-1.008208	-0.019276	-0.037942	0.14	1.54	0.14	0.4023	0.0106	-0.3095	
-1.008086	-0.016104	-0.036722	0.14	0.56	-0.91	0.4125	0.0077	-0.3034	
-1.014796	-0.014884	-0.030378	0.14	0	-1.19	0.4036	0.0151	-0.3123	
-1.01321	-0.00549	-0.042944	0	-0.21	-2.31	0.4008	0.0136	-0.3124	
-1.012844	-0.008174	-0.034648	-1.33	0.7	-2.24	0.4022	0.0172	-0.2985	
-1.016016	-0.00549	-0.054046	-1.47	0.21	-1.89	0.4052	0.009099999	-0.3095	
-1.015162	-0.007929999	-0.039772	-2.24	-0.28	-2.17	0.3994	0.0107	-0.3095	
-1.018334	-0.010858	-0.041724	-2.17	0.28	-1.75	0.4052	0.0072	-0.3172	
-1.00833	-0.020008	-0.033916	-3.36	1.61	-0.77	0.4066	0.0153	-0.3046	
-1.010648	-0.013298	-0.033794	-3.36	1.82	-1.89	0.3993	0.02	-0.3045	
-1.008574	-0.016348	-0.037454	-3.57	0.91	-1.4	0.4079	0.0217	-0.2982	
-1.007842	-0.033916	-0.035502	-4.97	0.63	-2.17	0.4095	0.0138	-0.3047	
-1.016626	-0.030012	-0.029768	-5.25	0.77	-4.06	0.3965	0.0093	-0.3065	
-1.017846	-0.031964	-0.046604	-3.64	0.14	-4.27	0.4021	0.0228	-0.309	
-1.01809	-0.023546	-0.033916	-4.34	-1.47	-5.46	0.405	0.0197	-0.3106	
-1.022238	-0.030134	-0.03477	-4.76	-1.68	-5.53	0.4051	0.0217	-0.2983	
-1.019554	-0.036356	-0.036478	-5.88	-3.01	-5.53	0.3992	0.0261	-0.3042	
-1.00467	-0.03843	-0.0366	-6.65	-3.01	-7.07	0.3948	0.0227	-0.3151	
-1.0065	-0.04026	-0.048312	-6.23	-2.66	-8.47	0.3991	0.0307	-0.3041	
-1.01016	-0.032208	-0.048312	-6.58	-3.08	-9.31	0.4079	0.0213	-0.3075	
-0.993324	-0.035868	-0.047092	-6.65	-0.91	-11.34	0.4006	0.0295	-0.2949	
-0.999424	-0.02745	-0.035258	-4.69	-1.68	-10.57	0.3934	0.0215	-0.3091	
-1.010526	-0.011346	-0.043798	-5.6	-2.59	-12.88	0.3919	0.0309	-0.3026	
-1.019188	-0.022326	-0.037942	-4.69	-2.1	-12.88	0.3934	0.0276	-0.3073	
-1.013942	-0.023912	-0.029402	-4.83	-2.87	-12.39	0.399	0.0383	-0.3053	
-0.998326	-0.030378	-0.024034	-3.57	-2.31	-11.55	0.4003	0.049	-0.3033	
-0.998692	-0.036478	-0.020984	-3.29	-2.38	-12.53	0.4018	0.0459	-0.305	
-1.002108	-0.033672	-0.040382	-3.15	-3.57	-14.28	0.3948	0.0293	-0.3026	
-1.0187	-0.038308	-0.031842	-1.89	-2.45	-15.47	0.3989	0.0458	-0.3096	
-1.003816	-0.051484	-0.028548	-1.26	-2.87	-13.65	0.3989	0.0443	-0.3081	
-1.003938	-0.05673	-0.030256	0.42	-2.52	-13.02	0.3987	0.0515	-0.3186	
-1.010282	-0.072712	-0.032696	-0.07	-5.53	-12.53	0.3988	0.0517	-0.3124	
-1.012356	-0.088694	-0.021472	1.4	-3.78	-13.93	0.3872	0.0522	-0.3063	
-1.006988	-0.102358	-0.017202	1.68	-4.55	-13.23	0.3959	0.049	-0.3064	
-0.996252	-0.110166	-0.02562	2.17	-2.66	-13.09	0.3944	0.0603	-0.2906	
-1.00284	-0.107604	-0.02562	2.87	-3.15	-14.14	0.3914	0.064	-0.315	
-1.009062	-0.111386	-0.014518	4.34	-3.08	-14.98	0.3899	0.0689	-0.3072	
-1.00284	-0.109556	-0.023302	5.6	-4.83	-14.63	0.4001	0.0627	-0.3058	
-1.008208	-0.109068	-0.011224	6.65	-4.2	-16.1	0.3943	0.0643	-0.3058	
-1.012478	-0.12017	-0.021594	6.02	-6.86	-16.31	0.397	0.0733	-0.307	
-1.01626	-0.12505	-0.015982	8.47	-5.18	-15.4	0.397	0.0713	-0.3193	
-1.00345	-0.117242	0.002074	8.61	-6.16	-14.98	0.3913	0.0685	-0.3148	
-1.002108	-0.125904	-0.001464	5.39	-6.86	-14.7	0.3927	0.0699	-0.3178	
-0.999424	-0.139202	-0.008905999	4.34	-6.93	-16.8	0.3912	0.0726	-0.3269	
-1.011624	-0.156038	0.000366	3.64	-4.9	-15.82	0.3854	0.0728	-0.3254	
-1.012112	-0.173118	0.000854	3.15	-2.17	-15.68	0.3926	0.0728	-0.3223	
-1.008574	-0.196298	-0.009516	5.18	-6.93	-13.02	0.3854	0.0761	-0.3192	
-1.00711	-0.190564	0.002928	3.01	-6.37	-15.33	0.3852	0.0849	-0.328	
-0.993202	-0.187392	0.008662	4.2	-5.67	-16.8	0.3838	0.0805	-0.3236	
-1.005158	-0.211914	0.015372	3.71	-6.65	-14.35	0.3867	0.0803	-0.3267	
-0.995276	-0.20069	0.024644	3.85	-3.64	-15.75	0.391	0.0835	-0.3219	
-0.983564	-0.20679	0.019642	5.67	-4.34	-13.72	0.3837	0.0862	-0.3341	
-0.98637	-0.201056	0.006222	4.76	-3.5	-12.88	0.3838	0.0851	-0.3219	
-0.991006	-0.207278	0.01281	5.18	-2.87	-13.44	0.3808	0.0862	-0.3357	
-1.000888	-0.212036	0.028304	5.74	-0.98	-12.04	0.3895	0.0862	-0.3325	
-0.992958	-0.206546	0.019276	8.82	-1.96	-8.47	0.3808	0.0878	-0.3325	
-0.991616	-0.212036	0.022326	4.97	-1.05	-10.64	0.3764	0.0893	-0.3356	
-0.996252	-0.203618	0.009272	3.36	-1.61	-14.77	0.3762	0.1029	-0.3381	
-0.989908	-0.215086	0.021838	4.27	-0.42	-11.83	0.3894	0.0922	-0.3338	
-0.989054	-0.22326	0.01464	2.52	1.19	-13.58	0.3821	0.1033	-0.3273	
-0.987468	-0.233874	0.020008	4.13	2.24	-10.36	0.3791	0.1046	-0.3319	
-0.983564	-0.242658	0.010492	5.04	2.1	-10.08	0.3734	0.0985	-0.3352	
-0.98393	-0.238876	0.019886	3.92	0.63	-9.66	0.385	0.09869999	-0.3259	
-0.972706	-0.252906	0.025376	3.71	-2.03	-7.42	0.3718	0.1141	-0.3269	
-0.97173	-0.283528	0.022692	2.59	-1.26	-7.77	0.3834	0.1109	-0.3254	
-0.979416	-0.278892	0.037088	2.59	1.47	-7.21	0.3661	0.1078	-0.3333	
-0.985394	-0.237778	0.028792	3.29	0.14	-3.99	0.3793	0.0924	-0.3323	
-0.963678	-0.223992	0.015494	5.46	3.57	-10.99	0.3864	0.0985	-0.329	
-0.984052	-0.260348	0.044164	0	0.63	-8.4	0.3748	0.105	-0.3257	
-0.970266	-0.261568	0.031598	1.33	-0.77	-11.2	0.3791	0.1093	-0.3301	
-0.962824	-0.286822	0.023912	1.47	-1.26	-11.76	0.3746	0.1152	-0.3376	
-0.977708	-0.268156	0.028914	1.05	-0.14	-10.08	0.3806	0.1019	-0.3243	
-0.984052	-0.247172	0.006466	2.94	1.26	-10.22	0.3746	0.1153	-0.3345	
-0.99796	-0.247172	0.022326	0.63	-2.1	-10.71	0.3805	0.1129	-0.3162	
-0.980514	-0.271816	-0.005978	1.4	-2.73	-12.11	0.3733	0.1082	-0.3225	
-0.979416	-0.264618	0.00366	-1.4	-2.24	-12.18	0.3761	0.1153	-0.3345	
-0.978074	-0.249124	0.03721	-3.36	-1.82	-12.81	0.3732	0.1123	-0.3331	
-0.980636	-0.23973	0.00305	0.07	-2.24	-10.29	0.3759	0.1261	-0.3295	
-0.976122	-0.264252	0.023058	-0.21	-1.89	-12.18	0.376	0.12	-0.3313	
-0.978196	-0.281576	0.026108	1.89	-1.82	-13.23	0.373	0.131	-0.3247	
-0.989664	-0.279258	0.011956	2.45	-1.54	-14.7	0.3746	0.117	-0.3298	
-0.980148	-0.267302	0.00976	4.9	-3.08	-13.93	0.3758	0.1371	-0.3229	
-0.976854	-0.27999	0.016714	5.39	-0.56	-14.63	0.37	0.132	-0.3385	
-0.971974	-0.295484	0.024644	5.04	-2.87	-12.88	0.3701	0.1242	-0.3418	
-0.960994	-0.301828	0.036966	3.92	-4.13	-12.25	0.3686	0.1307	-0.3324	
-0.96258	-0.302194	0.023668	5.46	-2.87	-10.71	0.3656	0.1363	-0.346	
-0.957944	-0.319152	0.044042	4.83	0	-10.92	0.3714	0.1364	-0.3429	
-0.96746	-0.330742	0.027694	4.2	-0.28	-11.48	0.37	0.1336	-0.3369	
-0.962214	-0.336964	0.037332	4.13	-4.76	-13.23	0.3583	0.1446	-0.3319	
-0.966118	-0.322446	0.049654	3.64	-4.76	-13.09	0.3685	0.1377	-0.3474	
-0.94733	-0.326106	0.039162	5.74	-3.78	-11.06	0.3641	0.1398	-0.3351	
-0.943426	-0.353434	0.04514	5.39	-0.77	-11.27	0.3655	0.1428	-0.3365	
-0.93696	-0.371002	0.054412	2.66	-0.35	-13.09	0.3554	0.1459	-0.3395	
-0.945988	-0.35746	0.051484	4.62	-2.17	-11.69	0.3597	0.1457	-0.3426	
-0.936472	-0.340624	0.031842	5.25	-3.15	-10.71	0.3509	0.1502	-0.3486	
-0.96075	-0.345626	0.041358	2.1	-3.08	-8.89	0.3641	0.1442	-0.3411	
-0.942816	-0.349164	0.055266	4.2	1.12	-14.84	0.3625	0.1549	-0.3406	
-0.945988	-0.353434	0.049776	1.05	-3.64	-10.99	0.3668	0.1581	-0.3344	
-0.94123	-0.359778	0.061976	-0.91	-1.54	-11.34	0.3582	0.1519	-0.3408	
-0.932568	-0.366122	0.049898	0.56	-3.57	-10.22	0.3596	0.1532	-0.3469	
-0.929274	-0.380884	0.041114	1.82	-2.94	-11.2	0.3537	0.1595	-0.342	
-0.954162	-0.375028	0.050508	0.91	-5.11	-11.76	0.3552	0.1595	-0.342	
-0.947574	-0.39711	0.036966	2.03	-2.1	-12.11	0.3566	0.1576	-0.3513	
-0.922198	-0.379054	0.05307	-1.54	-5.6	-10.15	0.3536	0.1669	-0.3494	
-0.925736	-0.375638	0.052582	-0.91	-4.13	-10.01	0.3594	0.1608	-0.3466	
-0.92537	-0.386984	0.0488	-0.07	-2.66	-8.75	0.3666	0.1682	-0.3493	
-0.926224	-0.404674	0.063196	-0.63	-0.84	-5.18	0.3565	0.1655	-0.3433	
-0.922808	-0.419436	0.07625	-0.07	0.7	-5.04	0.3551	0.1638	-0.3495	
-0.91378	-0.419802	0.07137	0.77	-1.61	-3.92	0.3492	0.1699	-0.3508	
-0.905728	-0.412238	0.071614	0.49	-1.05	-6.23	0.3579	0.1668	-0.3494	
-0.912438	-0.409798	0.07503	1.12	-2.73	-7.07	0.3565	0.1657	-0.3387	
-0.914146	-0.407358	0.067832	1.12	-3.01	-7.35	0.345	0.1595	-0.3467	
-0.926224	-0.404918	0.069418	0.35	-2.73	-6.16	0.3377	0.1704	-0.3432	
-0.917928	-0.407236	0.068686	0.98	-2.1	-5.46	0.3477	0.1778	-0.3444	
-0.917074	-0.419924	0.065514	0.07	-1.89	-4.83	0.3492	0.1718	-0.3416	
-0.912804	-0.421998	0.064904	0.35	-1.05	-4.13	0.3537	0.1609	-0.345	
-0.929396	-0.427366	0.064538	1.82	-0.91	-2.59	0.3521	0.1684	-0.3494	
-0.923174	-0.41236	0.053436	2.24	-2.1	-3.08	0.3391	0.1719	-0.3431	
-0.924272	-0.413946	0.053192	2.59	-2.03	-2.52	0.3522	0.1658	-0.3387	
-0.916586	-0.407724	0.06344	1.68	-1.89	-2.1	0.3505	0.1793	-0.3443	
-0.906826	-0.405284	0.06466	0.91	-1.61	-1.26	0.355	0.1668	-0.3509	
-0.909632	-0.412116	0.07137	-0.35	0.28	-1.12	0.3463	0.1715	-0.3508	
-0.912438	-0.41968	0.071736	-0.91	1.12	-0.49	0.3492	0.1667	-0.354	
-0.908046	-0.424194	0.076616	-1.75	1.4	-0.91	0.342	0.1655	-0.3495	
-0.905972	-0.4209	0.09076799	-1.47	1.54	-1.19	0.3492	0.1714	-0.3523	
-0.90524	-0.422974	0.085522	-0.84	0.42	-1.61	0.3565	0.1657	-0.3402	
-0.911096	-0.418582	0.079544	-0.56	-0.42	-1.89	0.3522	0.1638	-0.3495	
-0.913414	-0.41358	0.076372	0.42	-1.89	-2.03	0.349	0.1852	-0.3502	
-0.93391	-0.415532	0.070638	0	-1.4	-1.68	0.3564	0.1731	-0.3445	
-0.916464	-0.401868	0.064538	-0.84	0.07	-1.26	0.3476	0.1776	-0.3505	
-0.915	-0.416752	0.059048	-0.77	0.14	-1.19	0.3535	0.1729	-0.3522	
-0.92903	-0.412238	0.059658	-0.91	0.35	-0.98	0.3448	0.1734	-0.3415	
-0.924028	-0.4087	0.060878	-1.19	0.84	-0.42	0.3419	0.1733	-0.3461	
-0.915122	-0.413946	0.062464	-0.84	1.68	0.07	0.3478	0.1702	-0.3447	
-0.920368	-0.415776	0.06588	-1.12	2.45	-0.28	0.3519	0.182	-0.3519	
-0.918904	-0.413092	0.06771	-0.56	2.38	-0.35	0.3447	0.1809	-0.3458	
-0.91744	-0.410774	0.063928	-0.21	1.19	-0.63	0.3506	0.1716	-0.3477	
-0.918416	-0.410042	0.064294	-0.07	1.19	-1.26	0.3448	0.1714	-0.3539	
-0.926102	-0.412848	0.065392	-0.21	0.21	-0.91	0.3362	0.169	-0.3417	
-0.923662	-0.409798	0.054168	0.14	-0.14	-0.63	0.3418	0.1774	-0.3567	
-0.921344	-0.41846	0.055144	0	-0.56	-0.63	0.3478	0.1673	-0.3402	
-0.916708	-0.413702	0.057706	0.49	0.07	0.14	0.3448	0.1715	-0.3523	
-0.920978	-0.419314	0.06283	0.91	0	0.63	0.3506	0.1733	-0.3415	
-0.913536	-0.423706	0.065026	0.7	0.35	0.42	0.352	0.1777	-0.3459	
-0.913048	-0.425658	0.063318	1.26	0.21	0.07	0.3476	0.1857	-0.3379	
-0.918782	-0.421632	0.066124	0.63	0.35	-0.35	0.349	0.1855	-0.3441	
-0.913048	-0.427122	0.068442	0.84	-0.28	-0.63	0.3419	0.1729	-0.3554	
-0.912926	-0.418338	0.064172	0.56	-0.56	-0.28	0.3534	0.179	-0.352	
-0.912926	-0.415288	0.0671	-0.14	0.42	-0.07	0.3476	0.179	-0.3536	
-0.913902	-0.419436	0.065514	-0.07	0.84	0.63	0.3492	0.1699	-0.3508	
-0.914634	-0.421754	0.067954	-0.56	1.19	0.21	0.3448	0.1749	-0.343	
-0.910242	-0.421022	0.068198	0	0.56	-0.28	0.3521	0.1704	-0.337	
-0.916952	-0.42151	0.066368	0.91	-0.14	-0.42	0.3492	0.1685	-0.3494	
-0.918416	-0.416386	0.063684	0.77	-0.91	-0.42	0.3433	0.1776	-0.3521	
-0.920002	-0.411018	0.05978	0.77	-0.77	-0.42	0.3536	0.1667	-0.3525	
-0.915244	-0.421144	0.061732	0.63	-0.56	-0.07	0.3564	0.17	-0.3462	
-0.922686	-0.420412	0.057584	0.77	-0.98	0.49	0.3362	0.1701	-0.3524	
-0.926834	-0.421266	0.058682	0.84	-0.42	0.77	0.3375	0.1807	-0.352	
-0.920612	-0.4148	0.0549	-0.28	0.21	0.98	0.3535	0.1699	-0.3508	
-0.92293	-0.414312	0.058316	0.14	0.07	1.05	0.3549	0.1761	-0.3475	
-0.919148	-0.41602	0.064172	0.07	0.7	1.47	0.3492	0.1704	-0.3386	
-0.913902	-0.41297	0.066856	-0.28	0.91	1.47	0.3549	0.1744	-0.3522	
-0.91439	-0.413458	0.067222	-0.49	0.98	1.05	0.3534	0.1743	-0.3537	
-0.909754	-0.42212	0.071492	-0.28	1.05	0.63	0.3375	0.1763	-0.3476	
-0.921344	-0.41419	0.07515199	0.07	1.05	0.56	0.3535	0.1746	-0.346	
-0.915488	-0.411628	0.069418	0.14	-0.7	0.91	0.3448	0.1782	-0.3367	
-0.920368	-0.417118	0.065026	0.28	-0.84	0.63	0.3491	0.1713	-0.3554	
-0.919636	-0.40809	0.065636	0.7	-0.21	0.91	0.3477	0.173	-0.3507	
-0.92171	-0.405528	0.06161	0.91	0.35	1.4	0.3405	0.1734	-0.3431	
-0.920246	-0.400648	0.061244	1.12	0.98	1.4	0.3506	0.1763	-0.3444	
-0.924516	-0.409188	0.064294	1.26	1.75	1.75	0.3463	0.1766	-0.3368	
-0.924028	-0.404674	0.060756	1.19	1.19	1.68	0.3564	0.1716	-0.3446	
-0.924516	-0.404064	0.063928	0.91	1.61	2.73	0.3535	0.1744	-0.3506	
-0.923662	-0.404796	0.060634	1.61	1.47	3.29	0.3463	0.1731	-0.3477	
-0.921466	-0.41175	0.06039	0.49	2.17	4.34	0.3477	0.1767	-0.3352	
-0.916342	-0.406626	0.061732	0.35	2.66	4.06	0.3535	0.1749	-0.3384	
-0.91439	-0.411872	0.064416	-0.84	2.8	3.92	0.3507	0.167	-0.3464	
-0.912804	-0.40382	0.065636	0.14	2.8	4.27	0.3507	0.1671	-0.3448	
-0.918416	-0.401136	0.066246	1.33	2.73	5.6	0.3536	0.1654	-0.3479	
-0.91927	-0.400526	0.06344	2.87	3.36	7.28	0.3436	0.161	-0.3466	
-0.914024	-0.413092	0.069418	3.92	3.78	7.98	0.3508	0.1609	-0.3466	
-0.92659	-0.410896	0.058804	4.41	2.8	5.95	0.3566	0.1608	-0.3466	
-0.934154	-0.394548	0.070882	5.67	2.24	5.6	0.3449	0.1672	-0.3448	
-0.92049	-0.400648	0.057462	5.46	1.82	6.93	0.3553	0.1537	-0.3346	
-0.918294	-0.402112	0.062342	6.3	1.4	6.3	0.3523	0.1564	-0.3437	
-0.936716	-0.393816	0.04636	7.7	-0.42	5.25	0.3508	0.1612	-0.3389	
-0.940864	-0.385032	0.049532	6.09	1.19	7.14	0.3537	0.1628	-0.3358	
-0.938424	-0.386496	0.049532	6.72	0.91	9.87	0.3521	0.1636	-0.3541	
-0.928786	-0.376126	0.06222	6.16	3.29	10.57	0.361	0.155	-0.3376	
-0.922198	-0.36905	0.06222	5.67	3.01	12.88	0.3512	0.1303	-0.3494	
-0.916586	-0.377834	0.07137	5.32	4.9	14.28	0.3493	0.1654	-0.3495	
-0.923784	-0.379542	0.05795	2.45	4.13	13.3	0.3641	0.1427	-0.3396	
-0.927566	-0.377956	0.074542	-0.7	7.7	13.16	0.3596	0.1518	-0.3423	
-0.937082	-0.3721	0.057584	-0.42	4.55	13.72	0.367	0.1394	-0.3443	
-0.938668	-0.363926	0.063318	-2.87	2.8	14.14	0.3539	0.1456	-0.3472	
-0.944768	-0.374174	0.056974	-3.15	2.03	14.35	0.3641	0.1426	-0.3427	
-0.942206	-0.364658	0.046116	-2.73	0.98	13.72	0.3655	0.1424	-0.3457	
-0.950868	-0.355386	0.048068	-3.64	1.96	13.93	0.3686	0.1308	-0.3293	
-0.956114	-0.348554	0.037576	-3.15	2.31	15.26	0.367	0.1364	-0.3429	
-0.968924	-0.327326	0.010004	-3.99	2.94	11.55	0.3613	0.132	-0.34	
-0.963556	-0.33123	0.041236	-5.81	1.68	12.11	0.373	0.1276	-0.3325	
-0.95099	-0.30744	0.03111	-4.97	-0.21	13.37	0.3614	0.1324	-0.3324	
-0.969778	-0.292312	0.034282	-4.55	-2.45	13.51	0.3643	0.1307	-0.3355	
-0.969412	-0.305122	0.033184	-7.21	-4.83	13.09	0.3716	0.1231	-0.3311	
-0.973926	-0.299876	0.048678	-5.46	-0.07	15.68	0.3672	0.1255	-0.3495	
-0.969656	-0.292312	0.04026	-5.39	0.21	15.61	0.3659	0.1187	-0.3298	
-0.96197	-0.295972	0.047336	-6.16	0.28	17.01	0.3673	0.1196	-0.3436	
-0.96441	-0.294142	0.066246	-8.26	-1.26	14.07	0.3733	0.1094	-0.3302	
-0.970388	-0.271816	0.040504	-6.93	-2.66	15.96	0.363	0.118	-0.3467	
-0.970754	-0.272548	0.038796	-8.96	-2.24	13.93	0.376	0.1197	-0.3374	
-0.974536	-0.279136	0.040382	-11.48	-1.61	11.34	0.3688	0.1167	-0.3406	
-0.975512	-0.282552	0.041846	-8.68	-2.31	12.67	0.3687	0.1195	-0.3451	
-0.967094	-0.272914	0.062952	-9.59	-2.1	11.27	0.373	0.1228	-0.3388	
-0.967704	-0.274134	0.049166	-8.12	-3.36	10.92	0.3631	0.1154	-0.3361	
-0.973926	-0.261446	0.045262	-8.89	-1.61	11.97	0.3689	0.1155	-0.3315	
-0.984784	-0.260714	0.0488	-9.45	0.21	11.41	0.3718	0.1092	-0.3363	
-0.978806	-0.250832	0.041236	-6.72	0.21	14.56	0.3747	0.1076	-0.3364	
-0.985882	-0.24461	0.032208	-6.93	-0.63	15.54	0.3719	0.1031	-0.335	
-0.985638	-0.245586	0.034038	-6.58	0.07	15.12	0.3805	0.1094	-0.3271	
-0.983076	-0.235826	0.044164	-7.84	0.14	15.33	0.3734	0.0998	-0.3413	
-0.985394	-0.22082	0.057218	-7.56	4.34	10.85	0.3748	0.1061	-0.3349	
-0.983686	-0.217038	0.048312	-7.35	2.24	12.11	0.3792	0.0981	-0.3428	
-0.983198	-0.206302	0.02806	-5.88	6.02	11.13	0.3748	0.1064	-0.3272	
-0.99003	-0.219356	0.033794	-6.09	4.76	8.75	0.3777	0.0982	-0.3413	
-0.995032	-0.227286	0.02318	-5.18	4.97	9.1	0.3865	0.09209999	-0.3369	
-0.986492	-0.216306	0.026474	-3.92	4.2	10.64	0.3749	0.0985	-0.3352	
-0.992592	-0.208498	0.01342	-1.4	2.94	15.05	0.3736	0.0914	-0.3217	
-0.999302	-0.201178	0.011224	1.75	7.91	13.72	0.3806	0.0999	-0.3351	
-1.000644	-0.196542	0.018056	0.56	6.51	13.51	0.3821	0.0968	-0.3352	
-0.991128	-0.19032	0.018422	-0.84	5.81	10.71	0.3866	0.0893	-0.3324	
-0.99064	-0.191052	0.018422	-0.42	4.48	10.99	0.3836	0.09869999	-0.3259	
-0.992714	-0.18544	0.015982	-2.31	3.29	9.31	0.3822	0.0924	-0.3308	
-1.00528	-0.18056	0.014762	-1.82	2.66	10.01	0.3851	0.0895	-0.3263	
-0.997838	-0.185806	0.007198	-4.41	2.52	7.14	0.385	0.0989	-0.3213	
-1.00406	-0.187758	0.004392	-0.84	3.85	11.76	0.3793	0.0911	-0.3263	
-1.004304	-0.181536	0.007442	-1.75	3.43	8.89	0.3808	0.0894	-0.3309	
-0.995276	-0.181536	0.002806	-0.98	2.59	10.57	0.3851	0.0923	-0.3323	
-0.993324	-0.1769	0.005002	-4.69	2.59	8.61	0.3824	0.0805	-0.3251	
-0.99552	-0.190808	0.005978	-2.73	4.48	12.95	0.3823	0.0885	-0.3156	
-0.994178	-0.179706	0.006832	-1.47	6.02	13.44	0.3867	0.0819	-0.3251	
-0.9943	-0.172264	0.006588	-0.56	6.37	11.69	0.3837	0.0865	-0.3264	
-1.003572	-0.158112	0.003538	3.08	5.18	15.68	0.3839	0.076	-0.3222	
-1.001864	-0.13664	0.000854	2.45	6.02	11.97	0.3897	0.07449999	-0.3192	
-0.999302	-0.138836	0.020374	0.98	6.02	9.73	0.3913	0.0665	-0.3287	
-1.00223	-0.15616	0.008052	0.91	5.88	11.9	0.3868	0.0728	-0.3239	
-0.997472	-0.15189	0.013786	2.17	5.46	10.78	0.397	0.0663	-0.3302	
-1.00284	-0.14945	0.011712	0.77	3.99	8.61	0.3912	0.0762	-0.313	
-1.001132	-0.142496	-0.011346	-1.4	3.99	7.28	0.4043	0.0686	-0.3086	
-1.011136	-0.138348	-0.024644	0.21	5.32	10.99	0.3944	0.0563	-0.3138	
-1.013088	-0.127856	-0.032452	-0.63	6.09	9.17	0.3929	0.058	-0.3107	
-1.00345	-0.128832	-0.024278	-1.12	5.53	11.48	0.403	0.0607	-0.3151	
-0.999058	-0.136762	-0.022814	-0.07	7.21	14.21	0.3841	0.0642	-0.3105	
-1.001132	-0.118828	-0.02806	0.14	6.37	14.84	0.4088	0.0575	-0.3167	
-1.012478	-0.103334	-0.0366	1.96	5.18	15.05	0.3872	0.0536	-0.3078	
-1.016748	-0.08967	-0.036356	2.94	3.92	13.23	0.3871	0.0548	-0.317	
-1.018334	-0.083448	-0.02745	0.84	2.24	10.92	0.3988	0.0518	-0.3109	
-1.014918	-0.091012	-0.028426	0.21	1.47	10.22	0.3888	0.046	-0.3081	
-1.011014	-0.085034	-0.022448	-2.03	1.75	6.3	0.3988	0.0502	-0.314	
-1.004426	-0.082228	-0.026108	-0.63	0.77	7.21	0.4017	0.05	-0.3171	
-1.001254	-0.078446	-0.02196	-0.49	1.61	6.79	0.3903	0.0367	-0.3115	
-0.996862	-0.081496	-0.017446	0.7	2.03	7.84	0.3945	0.0458	-0.3096	
-0.99674	-0.07686	-0.01342	2.1	2.8	8.82	0.4004	0.0426	-0.3112	
-0.997716	-0.056242	-0.016714	2.73	2.52	8.12	0.4033	0.041	-0.3113	
-1.006256	-0.052704	-0.027938	1.96	1.96	7.42	0.4033	0.0414	-0.3021	
-1.012844	-0.06466	-0.023546	1.54	3.22	8.4	0.4075	0.0422	-0.3189	
-1.020286	-0.067588	-0.015006	2.73	4.41	9.38	0.3931	0.0476	-0.3049	
-1.009062	-0.061	-0.039162	2.17	2.87	10.08	0.4034	0.0353	-0.3023	
-1.012478	-0.042944	-0.026718	2.17	3.29	8.68	0.4004	0.0382	-0.3068	
-1.155096	-0.102846	-0.0183	1.47	2.38	7.35	0.3977	0.026	-0.3089	
-0.842776	-0.01952	-0.06344	5.25	-4.27	16.66	0.3918	0.0369	-0.3038	
-1.03883	-0.051118	-0.006832	3.99	4.97	5.18	0.4019	0.0352	-0.3054	
-1.00101	-0.055144	-0.034404	4.34	0.07	0.49	0.4064	0.0242	-0.3104	
-1.005768	-0.031354	-0.034404	0.98	2.52	4.27	0.3863	0.0221	-0.2968	
-1.0126	-0.04819	-0.03721	-1.47	3.22	4.34	0.4036	0.0184	-0.3045	
-1.014186	-0.044042	-0.047214	0.77	2.17	1.54	0.4035	0.0307	-0.304	
-1.01992	-0.035868	-0.038186	-2.52	5.11	0.77	0.3977	0.0277	-0.3027	
-1.011136	-0.05307	-0.03782	-3.92	6.51	2.94	0.3921	0.0188	-0.3	
-1.012844	-0.057462	-0.04331	-0.07	5.39	1.82	0.3935	0.02	-0.3061	
-1.017724	-0.045384	-0.05429	1.4	2.24	0.98	0.3978	0.0202	-0.2999	
-1.01565	-0.052582	-0.055754	-0.49	1.75	1.89	0.4007	0.0217	-0.2998	
-1.01138	-0.051362	-0.050264	-1.19	0.63	1.12	0.3962	0.0292	-0.3057	
-1.011014	-0.0488	-0.051606	-1.12	-0.56	0.14	0.3963	0.0246	-0.3059	
-1.005524	-0.044286	-0.052582	-4.83	1.19	-1.96	0.3992	0.025	-0.2951	
-1.005036	-0.033062	-0.045994	-4.13	2.03	-0.35	0.3993	0.0201	-0.3014	
-1.00223	-0.033428	-0.047336	-3.15	3.36	0.49	0.3947	0.0371	-0.2977	
-1.010282	-0.03599	-0.04514	-2.94	2.87	0.42	0.3949	0.0231	-0.3044	
-1.006622	-0.02684	-0.041358	-2.38	2.8	0.14	0.392	0.0234	-0.2983	
-1.008818	-0.024888	-0.040748	-1.19	1.75	0.14	0.4079	0.0228	-0.3089	
-1.01321	-0.02196	-0.040992	0.07	1.05	-0.14	0.3977	0.0312	-0.2933	
-1.012844	-0.02806	-0.036356	0.42	1.54	-0.35	0.4049	0.0343	-0.2886	
-1.0065	-0.039284	-0.047458	0.7	1.89	-0.35	0.3979	0.0173	-0.2969	
-1.008452	-0.042578	-0.05124	1.82	2.66	-0.49	0.4093	0.0278	-0.298	
-1.011746	-0.04941	-0.064294	2.59	2.73	-0.14	0.4006	0.0292	-0.3041	
-1.013698	-0.05124	-0.05917	1.26	3.43	-0.7	0.4108	0.0314	-0.2825	
-1.011502	-0.049288	-0.061366	0.98	2.59	-0.98	0.4049	0.0341	-0.2947	
-1.020652	-0.055754	-0.061	0.56	2.52	-0.7	0.3948	0.0294	-0.3011	
-1.017846	-0.052826	-0.060268	0.77	2.52	-1.19	0.4166	0.0232	-0.2935	
-1.012722	-0.048678	-0.06283	-0.49	1.33	-1.05	0.4092	0.0355	-0.2962	
-1.01199	-0.051728	-0.061122	-0.14	1.68	-1.4	0.405	0.0246	-0.3027	
-1.006256	-0.050996	-0.060268	-0.77	1.33	-1.4	0.3935	0.0251	-0.2951	
-1.008574	-0.048434	-0.05307	-0.21	1.54	-1.19	0.4049	0.0309	-0.2964	
-1.010038	-0.048068	-0.06039	0.77	1.12	-2.24	0.3992	0.025	-0.2936	
-1.008086	-0.038796	-0.061976	0.7	1.82	-2.17	0.405	0.0246	-0.3027	
-1.009428	-0.038064	-0.063196	0.14	1.33	-1.89	0.4036	0.0264	-0.295	
-1.015284	-0.049654	-0.05429	-0.35	2.38	-1.89	0.4093	0.0292	-0.301	
-1.012966	-0.044042	-0.055754	-0.49	1.33	-2.73	0.3992	0.0279	-0.298	
-1.012478	-0.045384	-0.05917	-0.07	1.12	-2.66	0.4035	0.0296	-0.2918	
-1.010892	-0.052948	-0.05673	-0.56	2.38	-2.24	0.4005	0.0388	-0.2915	
-1.012844	-0.053558	-0.068198	-0.21	3.01	-2.03	0.4078	0.0341	-0.2916	
-1.009916	-0.0549	-0.057584	-1.54	2.59	-3.08	0.4021	0.0297	-0.2903	
-1.016748	-0.060634	-0.064172	-2.31	1.61	-3.71	0.4049	0.0356	-0.2931	
-1.017602	-0.065026	-0.061366	-3.78	0.63	-4.76	0.4048	0.0434	-0.2897	
-1.017724	-0.070028	-0.06588	-3.5	0.49	-4.83	0.4093	0.0308	-0.2979	
-1.02053	-0.07686	-0.07076	-4.55	-0.56	-4.97	0.4091	0.043	-0.2974	
-1.010404	-0.070028	-0.073444	-5.53	-1.61	-5.67	0.4049	0.0342	-0.2916	
-1.006866	-0.06832	-0.079544	-6.16	-3.08	-6.23	0.4178	0.0399	-0.2959	
-1.007964	-0.076128	-0.069418	-5.6	-3.15	-6.37	0.4106	0.0372	-0.2899	
-1.00223	-0.076738	-0.072834	-5.74	-3.08	-7.14	0.4018	0.0477	-0.2972	
-0.996374	-0.069174	-0.067588	-5.53	-3.29	-7.91	0.4019	0.045	-0.2881	
-0.999546	-0.063806	-0.074542	-5.95	-3.43	-9.24	0.4061	0.0491	-0.2987	
-1.004548	-0.057706	-0.057462	-4.9	-2.59	-9.24	0.4134	0.0398	-0.3006	
-1.003816	-0.055266	-0.061244	-5.11	-2.8	-9.94	0.4091	0.0447	-0.2942	
-1.01016	-0.055022	-0.059658	-5.67	-3.57	-10.85	0.4047	0.043	-0.2989	
-1.01687	-0.050264	-0.056242	-5.74	-3.71	-11.97	0.4032	0.0523	-0.2955	
-1.001376	-0.049898	-0.046238	-6.3	-2.1	-11.27	0.3944	0.0616	-0.2967	
-0.995886	-0.05917	-0.049166	-6.37	-1.68	-11.41	0.4003	0.0525	-0.2924	
-1.006622	-0.086986	-0.05551	-5.53	-2.87	-14.63	0.3958	0.063	-0.2997	
-1.013576	-0.102846	-0.04026	-4.97	-3.57	-15.68	0.3901	0.0569	-0.3	
-1.000644	-0.104188	-0.048068	-5.25	-3.08	-14.56	0.3958	0.0613	-0.3028	
-0.990396	-0.09857599	-0.050996	-2.66	-2.1	-13.65	0.4016	0.0664	-0.2873	
-0.992958	-0.102236	-0.04209	-2.24	-2.17	-14.91	0.3972	0.0645	-0.2981	
-0.99552	-0.11224	-0.053192	-1.61	-2.1	-15.96	0.3972	0.06439999	-0.3027	
-1.00772	-0.120658	-0.05856	-0.42	-1.82	-16.31	0.403	0.0645	-0.2981	
-1.00772	-0.12871	-0.060024	0.07	-1.68	-16.52	0.3985	0.0769	-0.293	
-1.007476	-0.130662	-0.057462	0.56	-1.68	-16.94	0.4058	0.0753	-0.2915	
-1.006012	-0.137128	-0.058682	0.63	-1.33	-18.41	0.394	0.0845	-0.2958	
-0.99613	-0.147376	-0.054168	-0.28	-2.66	-17.64	0.394	0.0825	-0.3066	
-0.990762	-0.166286	-0.055998	-1.05	-2.45	-16.66	0.3998	0.081	-0.3051	
-0.99918	-0.168604	-0.043798	0.63	-2.94	-16.66	0.3941	0.0813	-0.299	
-1.002596	-0.182146	-0.0488	0.49	-4.55	-15.75	0.3939	0.0915	-0.3108	
-0.98942	-0.193736	-0.030134	0.42	-1.96	-17.01	0.3969	0.0857	-0.3034	
-0.999058	-0.206302	-0.045018	1.82	-2.03	-15.89	0.3968	0.0917	-0.3062	
-1.003084	-0.208986	-0.03843	2.38	-2.45	-16.87	0.3938	0.09779999	-0.306	
-1.00284	-0.221308	-0.02989	4.76	-2.1	-15.47	0.4039	0.0961	-0.306	
-0.994422	-0.229116	-0.02745	6.3	-4.83	-15.54	0.4052	0.1052	-0.3087	
-1.001498	-0.21777	-0.032818	6.79	-3.15	-15.75	0.3908	0.1041	-0.3027	
-0.987346	-0.216794	-0.036722	6.02	-3.15	-16.38	0.3937	0.109	-0.2933	
-0.983076	-0.222162	-0.035624	8.54	-1.19	-14.14	0.388	0.0982	-0.2983	
-0.983076	-0.207766	-0.02196	6.23	-2.31	-14.07	0.3938	0.0979	-0.3045	
-0.992836	-0.218624	-0.04209	6.51	-3.15	-11.13	0.3934	0.1239	-0.3019	
-0.988932	-0.221674	-0.030988	4.97	0	-15.54	0.3951	0.1084	-0.3071	
-0.99918	-0.247294	-0.040016	6.72	-0.84	-12.46	0.3893	0.105	-0.318	
-0.988444	-0.248636	-0.017324	8.75	1.19	-13.44	0.3878	0.1165	-0.2991	
-0.988566	-0.249124	-0.022448	6.58	0.63	-12.18	0.3906	0.121	-0.3005	
-1.000522	-0.234362	-0.03965	6.3	0.49	-13.44	0.3818	0.1286	-0.3048	
-0.991006	-0.24705	-0.018788	4.76	0.77	-12.46	0.3906	0.1176	-0.3083	
-0.983686	-0.252906	-0.03355	6.3	1.68	-10.08	0.3864	0.1133	-0.3039	
-0.965996	-0.260226	-0.053924	3.01	4.34	-15.05	0.3977	0.1286	-0.2971	
-0.984906	-0.263276	-0.028792	12.6	1.54	-5.11	0.3921	0.1142	-0.3176	
-0.97905	-0.27633	-0.037332	6.65	-4.2	-9.59	0.3847	0.1221	-0.3127	
-0.965996	-0.28548	-0.03111	7.14	-1.05	-10.5	0.3977	0.125	-0.3125	
-0.966484	-0.306342	-0.035746	6.44	-1.68	-10.15	0.3818	0.1251	-0.3141	
-0.980392	-0.318054	-0.05368	9.94	-0.35	-9.59	0.3803	0.1285	-0.3079	
-0.993568	-0.298656	-0.046482	4.83	-1.96	-12.18	0.3802	0.1395	-0.2982	
-0.980758	-0.284504	-0.015494	4.9	-2.03	-12.32	0.389	0.1283	-0.3078	
-0.974292	-0.272426	0.0061	9.17	-6.58	-8.19	0.3818	0.1251	-0.3141	
-0.962092	-0.262788	-0.033184	7.07	-5.95	-15.05	0.3832	0.1284	-0.3079	
-0.97539	-0.24278	-0.02745	7.28	-4.76	-12.74	0.3891	0.1253	-0.3064	
-0.984418	-0.247294	-0.01952	8.47	-4.55	-12.25	0.3759	0.1314	-0.3124	
-0.980026	-0.287188	-0.02928	9.03	-4.06	-8.33	0.3845	0.1406	-0.3089	
-0.97356	-0.30988	-0.035136	9.1	-6.93	-7.14	0.3759	0.1329	-0.3123	
-0.967582	-0.329888	0.015006	13.09	-7.98	-6.65	0.3788	0.1277	-0.3279	
-0.966484	-0.308538	-0.00122	13.86	-4.97	-6.79	0.3774	0.1231	-0.3281	
-0.978196	-0.327936	0.01647	10.78	-1.19	-11.2	0.3773	0.1324	-0.3246	
-0.966118	-0.326594	0.016958	10.85	-4.76	-12.32	0.3803	0.1294	-0.3216	
-0.955992	-0.324032	-0.008417999	13.09	-4.13	-11.97	0.3716	0.1282	-0.3187	
-0.94611	-0.32879	0.01098	8.54	-6.37	-10.01	0.3743	0.1368	-0.3306	
-0.9333	-0.352214	0.019398	10.99	-7.63	-8.33	0.3788	0.1279	-0.3217	
-0.933666	-0.335744	0.008052	7.77	-8.61	-10.43	0.3671	0.1339	-0.3292	
-0.93757	-0.372954	0.033916	4.9	-9.87	-8.96	0.3686	0.1339	-0.3292	
-0.93513	-0.386862	0.035014	7.28	-9.03	-7.98	0.3756	0.146	-0.3287	
-0.949038	-0.363804	0.037088	11.2	-6.16	-8.75	0.3745	0.1259	-0.3372	
-0.94977	-0.344406	0.023668	10.78	-5.11	-7.7	0.3671	0.1387	-0.3229	
-0.96868	-0.329522	0.0427	8.61	-5.32	-8.75	0.3627	0.1385	-0.3306	
-0.949648	-0.354776	0.048556	9.31	-6.23	-7.56	0.3699	0.1426	-0.3396	
-0.942328	-0.360632	0.038064	8.12	-5.18	-7.56	0.3627	0.1384	-0.3336	
-0.937692	-0.348798	0.062586	6.16	-6.51	-7	0.3671	0.1365	-0.3414	
-0.933056	-0.333548	0.04209	5.81	-5.53	-6.23	0.36	0.1292	-0.3356	
-0.938424	-0.338672	0.06039	2.66	-4.83	-8.47	0.364	0.1492	-0.3301	
-0.940376	-0.37149	0.063806	5.74	-3.57	-7	0.3627	0.1395	-0.3443	
-0.938302	-0.351726	0.060146	8.54	-6.37	-4.06	0.3657	0.1304	-0.3401	
-0.940986	-0.363194	0.061244	7.49	-5.67	-3.71	0.3583	0.1379	-0.3475	
-0.936838	-0.381738	0.053436	8.68	-7.91	-2.8	0.3613	0.1334	-0.343	
-0.94367	-0.381372	0.077836	6.09	-7.21	-5.81	0.3555	0.1302	-0.3493	
-0.932934	-0.366488	0.079544	3.01	-7.49	-7.7	0.3583	0.1392	-0.352	
-0.92354	-0.366488	0.074908	2.24	-7.07	-6.44	0.3582	0.1435	-0.3611	
-0.931836	-0.371978	0.06405	1.05	-6.51	-7.77	0.3554	0.141	-0.3474	
-0.94916	-0.361974	0.082594	1.82	-5.11	-8.12	0.3496	0.1424	-0.3535	
-0.964166	-0.342332	0.063562	2.45	-8.4	-5.53	0.3538	0.1468	-0.3564	
-0.93574	-0.36478	0.072834	2.17	-8.19	-3.71	0.361	0.1516	-0.3469	
-0.921832	-0.379176	0.088938	0.56	-6.93	-4.27	0.3509	0.15	-0.3532	
-0.923052	-0.370758	0.080398	0.98	-4.41	-5.32	0.3495	0.1456	-0.3488	
-0.939522	-0.375028	0.096136	0.63	-3.36	-5.39	0.3495	0.1466	-0.3625	
-0.92781	-0.38369	0.08845	0.35	-4.48	-5.88	0.3509	0.1469	-0.3533	
-0.928176	-0.389302	0.085034	0.91	-6.23	-6.44	0.3554	0.1392	-0.3536	
-0.931226	-0.379786	0.096502	2.1	-6.3	-5.81	0.3452	0.1454	-0.3565	
-0.924882	-0.383568	0.087352	1.96	-4.83	-5.88	0.3451	0.1531	-0.3546	
-0.937692	-0.381494	0.0976	1.61	-5.11	-5.53	0.3523	0.1526	-0.3623	
-0.931226	-0.38918	0.086986	0.77	-6.3	-5.04	0.3451	0.1515	-0.3562	
-0.931714	-0.398696	0.102968	1.82	-4.48	-4.76	0.3508	0.151	-0.3654	
-0.926468	-0.393084	0.107238	2.52	-3.57	-4.27	0.3538	0.145	-0.361	
-0.916586	-0.401868	0.09882	2.45	-2.87	-4.34	0.3376	0.165	-0.3634	
-0.91683	-0.399794	0.10126	2.94	-2.87	-4.13	0.3437	0.1468	-0.3595	
-0.915732	-0.402722	0.104798	2.38	-3.5	-4.34	0.3508	0.1561	-0.3529	
-0.914878	-0.398086	0.11163	3.01	-3.71	-3.22	0.345	0.1493	-0.3716	
-0.911584	-0.40443	0.11895	2.59	-3.29	-2.8	0.3494	0.1495	-0.3655	
-0.910486	-0.407114	0.116876	1.68	-3.64	-3.99	0.3363	0.1508	-0.3762	
-0.907192	-0.418704	0.110898	1.33	-2.87	-3.5	0.3435	0.1553	-0.3745	
-0.91317	-0.41602	0.120536	1.26	-2.52	-2.94	0.3406	0.1587	-0.3682	
-0.914268	-0.402356	0.11529	0.98	-1.89	-2.87	0.342	0.1615	-0.3727	
-0.899018	-0.40321	0.116266	0.84	-1.4	-3.01	0.3364	0.1511	-0.3685	
-0.901458	-0.421266	0.132858	0.7	-0.49	-2.31	0.3407	0.1543	-0.3638	
-0.907314	-0.416386	0.128588	1.26	-1.33	-1.33	0.3362	0.1636	-0.3619	
-0.906094	-0.413336	0.127002	0.98	-0.42	-1.26	0.3378	0.1543	-0.3638	
-0.912194	-0.405528	0.131516	0.91	-0.28	-1.33	0.3421	0.154	-0.3715	
-0.912194	-0.402722	0.1159	0	-0.28	-1.68	0.3334	0.1559	-0.3653	
-0.914146	-0.409432	0.12017	-0.98	-1.12	-1.33	0.3392	0.1588	-0.3667	
-0.911462	-0.415654	0.11468	-0.28	-0.21	-0.07	0.3435	0.1602	-0.3681	
-0.90463	-0.414922	0.108702	-0.84	0.49	-0.28	0.3377	0.1618	-0.3681	
-0.90402	-0.421266	0.116022	-0.14	1.75	0	0.3406	0.1587	-0.3682	
-0.915854	-0.41358	0.119804	-0.14	1.05	0.42	0.3318	0.165	-0.3665	
-0.91439	-0.40931	0.120658	-0.28	1.68	-0.14	0.3348	0.16	-0.3758	
-0.9028	-0.41846	0.122488	0	1.12	-0.49	0.3435	0.1558	-0.3637	
-0.911828	-0.411384	0.116144	0.63	0.14	1.4	0.3319	0.1619	-0.3681	
-0.910608	-0.415776	0.118462	-0.42	0.49	0.14	0.3378	0.1512	-0.3655	
-0.91439	-0.40748	0.108946	-0.28	0.14	0.98	0.3263	0.1499	-0.3656	
-0.909754	-0.413336	0.10919	-1.05	-0.21	0.56	0.3422	0.1494	-0.3701	
-0.920246	-0.407724	0.117364	-1.05	0	0.77	0.3363	0.1574	-0.3637	
-0.915366	-0.40138	0.10858	-0.49	0.35	1.19	0.3406	0.1618	-0.3665	
-0.916098	-0.40748	0.121024	-0.91	0.7	1.19	0.3494	0.1509	-0.3685	
-0.917684	-0.396622	0.118584	-1.33	0.63	-0.28	0.3377	0.1622	-0.3589	
-0.914024	-0.402966	0.109678	-1.05	0.91	0.63	0.3465	0.1546	-0.3545	
-0.92598	-0.395646	0.107482	-0.91	0	-0.77	0.3479	0.1558	-0.3622	
-0.921466	-0.400648	0.10126	-0.21	-0.21	-0.77	0.3407	0.1527	-0.3654	
-0.930006	-0.401868	0.105042	0.14	-0.63	-0.35	0.3407	0.1511	-0.367	
-0.924516	-0.39894	0.099064	-0.14	-0.7	-0.21	0.3407	0.1514	-0.3608	
-0.93086	-0.398452	0.097844	-0.07	-0.14	0.07	0.3393	0.1513	-0.3624	
-0.927932	-0.398452	0.105774	-0.49	-0.07	0	0.3378	0.1575	-0.3606	
-0.911584	-0.40931	0.108824	-0.21	0.42	-0.07	0.3436	0.1531	-0.3531	
-0.910364	-0.405284	0.110776	0.14	0.77	-0.42	0.3378	0.1544	-0.3623	
-0.897676	-0.397842	0.111996	0.14	0.49	-0.7	0.3377	0.162	-0.3635	
-0.925126	-0.41419	0.118706	-0.07	0.98	-0.49	0.3377	0.1605	-0.362	
-0.90219	-0.410896	0.112972	-0.14	0.42	-0.56	0.3319	0.1637	-0.3604	
-0.918416	-0.424804	0.121756	0.84	-0.56	1.12	0.3321	0.1483	-0.3641	
-0.916342	-0.403576	0.118462	-0.56	0.42	-1.33	0.345	0.1573	-0.3636	
-0.91073	-0.406016	0.118096	-0.56	0.63	-0.63	0.3449	0.167	-0.3494	
-0.904752	-0.411506	0.116388	-0.49	1.12	-0.7	0.342	0.1618	-0.3665	
-0.91805	-0.405894	0.109068	0.07	0.49	-0.84	0.3321	0.1514	-0.3624	
-0.92049	-0.405284	0.104798	-0.42	0.56	-0.7	0.3348	0.1654	-0.3557	
-0.923174	-0.40748	0.106506	-0.07	1.12	-0.28	0.3407	0.1577	-0.356	
-0.920734	-0.402234	0.106262	-0.07	0.84	-0.42	0.3421	0.1589	-0.3621	
-0.916098	-0.407846	0.09942999	0.07	1.26	-0.14	0.3538	0.148	-0.3624	
-0.922198	-0.409188	0.103822	0.28	1.82	-0.35	0.3478	0.1605	-0.3574	
-0.920612	-0.392962	0.112972	0.07	1.54	0.42	0.3479	0.1539	-0.3699	
-0.912316	-0.39711	0.100528	-0.21	0.98	0.63	0.3362	0.1633	-0.368	
-0.91561	-0.411384	0.113094	-0.28	1.47	0.7	0.3436	0.1528	-0.3608	
-0.917684	-0.41053	0.113948	-0.28	1.75	0.98	0.3363	0.1606	-0.3605	
-0.908778	-0.397354	0.109922	0.77	2.24	1.89	0.3494	0.1528	-0.3592	
-0.912682	-0.410164	0.109068	1.19	2.66	2.31	0.3479	0.1572	-0.3636	
-0.924394	-0.406504	0.11041	0.7	3.5	2.45	0.3507	0.162	-0.3573	
-0.91927	-0.403088	0.11102	0.42	2.59	2.45	0.3537	0.1526	-0.3622	
-0.915732	-0.396988	0.104066	0.49	2.59	3.15	0.3449	0.1587	-0.3651	
-0.915854	-0.402722	0.106384	-0.07	2.52	4.06	0.348	0.1448	-0.3687	
-0.92598	-0.404308	0.111264	0.91	3.29	5.46	0.3422	0.1514	-0.3593	
-0.92415	-0.382226	0.106018	2.24	3.08	3.99	0.3422	0.1467	-0.361	
-0.920978	-0.395402	0.110044	2.45	5.53	5.74	0.3449	0.1635	-0.3603	
-0.915854	-0.39284	0.085888	3.29	6.16	5.32	0.3522	0.1603	-0.3604	
-0.92476	-0.393694	0.093452	3.29	7.84	4.76	0.3451	0.1512	-0.3623	
-0.913658	-0.40077	0.08906	3.08	8.96	6.51	0.3436	0.1576	-0.356	
-0.924394	-0.396744	0.102236	2.73	9.94	7.98	0.3451	0.1515	-0.3562	
-0.915488	-0.390278	0.08295999	3.29	9.17	7.35	0.3538	0.1498	-0.3562	
-0.91744	-0.379786	0.113948	1.61	10.5	7.28	0.3496	0.144	-0.3503	
-0.901092	-0.394792	0.093818	0.07	10.36	8.33	0.3539	0.1453	-0.3549	
-0.907924	-0.408334	0.088816	-0.49	11.13	8.82	0.3583	0.1409	-0.3489	
-0.932568	-0.389302	0.080886	-0.91	11.69	8.68	0.3539	0.1439	-0.3519	
-0.92964	-0.374662	0.076128	-0.84	11.2	8.26	0.3597	0.1426	-0.3427	
-0.923296	-0.369294	0.067588	-2.59	7.77	8.47	0.3526	0.138	-0.3475	
-0.925858	-0.384178	0.063562	-2.03	9.1	9.8	0.3597	0.1426	-0.3442	
-0.928664	-0.382348	0.058804	-3.92	11.34	9.59	0.3743	0.1362	-0.3444	
-0.936594	-0.379054	0.05978	-3.85	11.83	9.66	0.3599	0.1333	-0.3461	
-0.940376	-0.365756	0.03294	-4.13	8.47	10.36	0.357	0.134	-0.3308	
-0.935984	-0.358192	0.042334	-6.37	8.82	10.01	0.3612	0.1429	-0.335	
-0.93757	-0.372222	0.041358	-9.1	6.23	11.76	0.3773	0.1284	-0.3478	
-0.943304	-0.366732	0.041114	-9.38	7.28	12.25	0.3615	0.1262	-0.3341	
-0.943304	-0.350628	0.039528	-10.64	7.21	12.6	0.3671	0.137	-0.3291	
-0.944768	-0.364292	0.033062	-9.73	4.13	12.81	0.3629	0.1258	-0.3418	
-0.950502	-0.380884	0.032086	-10.08	2.38	10.5	0.3788	0.1291	-0.3309	
-0.962214	-0.359778	0.0183	-8.75	2.17	10.08	0.3671	0.1353	-0.3337	
-0.975756	-0.337818	0.02806	-10.57	1.61	8.96	0.3701	0.1324	-0.3277	
-0.966606	-0.310368	0.02074	-11.62	0.56	9.8	0.3686	0.1308	-0.3309	
-0.954284	-0.294752	0.014762	-10.43	-0.77	13.02	0.3744	0.1291	-0.3324	
-0.956114	-0.295972	-0.001708	-14.35	-1.4	8.05	0.3759	0.1256	-0.3433	
-0.965996	-0.285724	-0.000732	-12.74	-1.75	10.01	0.3788	0.1292	-0.3293	
-0.985394	-0.295972	-0.008052	-10.71	-3.08	10.29	0.386	0.1306	-0.3292	
-0.9882	-0.289628	0.015372	-9.52	-1.68	11.34	0.3715	0.1326	-0.3216	
-0.978562	-0.294508	0.02684	-7.49	-1.47	15.47	0.3688	0.1184	-0.3344	
-0.965874	-0.29951	0.032452	-7.98	0.84	13.65	0.3672	0.131	-0.3263	
-0.967704	-0.259982	0.036844	-13.3	-3.08	10.71	0.3731	0.1233	-0.3265	
-0.97051	-0.27877	0.035014	-12.18	-4.76	9.59	0.3687	0.1328	-0.3185	
-0.969534	-0.267668	0.021228	-14.91	-4.9	1.12	0.376	0.1216	-0.3297	
-0.970632	-0.27999	0.01708	-11.2	-0.98	4.83	0.3746	0.1236	-0.3173	
-0.956968	-0.303536	0.027816	-9.45	-1.12	4.2	0.3746	0.1201	-0.3282	
-0.967216	-0.297558	0.022936	-1.05	5.74	12.46	0.379	0.1172	-0.3221	
-0.970022	-0.290726	0.015006	-3.71	4.2	9.66	0.3674	0.1155	-0.333	
-0.979538	-0.272914	0.0061	-3.92	3.71	11.13	0.3688	0.1204	-0.3236	
-0.973804	-0.275476	0.01525	-8.61	1.96	10.85	0.3805	0.1159	-0.3161	
-0.968558	-0.28792	-0.003782	-4.34	3.64	16.03	0.3775	0.1186	-0.3267	
-0.974414	-0.276452	0.016226	-3.01	7.14	12.81	0.3762	0.1112	-0.3209	
-0.97905	-0.282186	0.014396	-2.8	4.9	14.35	0.3805	0.1127	-0.3208	
-0.969534	-0.27572	0.010736	-4.06	4.41	9.24	0.3776	0.1142	-0.3223	
-0.980514	-0.276086	0.003904	-2.1	3.29	11.48	0.3849	0.1064	-0.3241	
-0.991494	-0.244122	-0.00122	-3.08	4.13	9.24	0.3748	0.1065	-0.3257	
-0.993324	-0.233752	-0.003904	-3.71	4.69	9.17	0.3834	0.1126	-0.3223	
-0.98942	-0.244976	-0.009638	-5.74	3.43	7.98	0.3936	0.1049	-0.3195	
-0.99735	-0.236192	-0.016836	-5.32	2.66	8.96	0.3819	0.1144	-0.3161	
-0.994178	-0.239242	-0.029646	-4.76	4.83	8.61	0.3834	0.1108	-0.3285	
-0.991982	-0.240218	0.00244	-2.1	4.83	12.67	0.3895	0.09429999	-0.3184	
-0.982832	-0.233142	-0.011712	-3.64	6.16	10.99	0.3821	0.09869999	-0.3275	
-0.99369	-0.211426	-0.023912	-5.46	6.51	12.32	0.3922	0.1037	-0.3134	
-0.994422	-0.219356	-0.02196	-7.56	6.3	11.55	0.3792	0.1023	-0.3151	
-0.97356	-0.238754	-0.013908	-8.89	7.28	10.64	0.3879	0.1023	-0.312	
-0.98942	-0.219112	-0.015006	-3.71	3.22	15.26	0.3895	0.0948	-0.3077	
-0.984784	-0.228628	-0.016226	-7.14	5.46	7.91	0.3895	0.0948	-0.3077	
-0.999668	-0.2135	-0.026718	-2.45	1.89	13.86	0.3895	0.0961	-0.3122	
-0.99613	-0.22021	-0.017446	-0.84	4.34	9.8	0.388	0.0977	-0.3122	
-0.996618	-0.215086	-0.015006	-2.52	3.85	10.22	0.3939	0.0887	-0.3048	
-0.987224	-0.208986	-0.035868	-1.75	3.78	11.76	0.3882	0.0825	-0.3097	
-0.996496	-0.197152	-0.028548	-3.64	4.34	8.61	0.3939	0.0932	-0.3077	
-0.993446	-0.188368	-0.032818	-4.83	3.5	7.77	0.3984	0.0782	-0.2991	
-0.987712	-0.175558	-0.04026	-3.99	4.34	10.29	0.3895	0.0962	-0.3107	
-0.99125	-0.177754	-0.040992	-1.26	6.44	11.06	0.3968	0.08679999	-0.3141	
-0.997716	-0.172508	-0.035746	-1.19	6.72	10.36	0.3896	0.0903	-0.3063	
-0.995642	-0.153598	-0.0488	-0.07	5.81	10.92	0.3954	0.0858	-0.3019	
-1.00223	-0.146766	-0.04209	0.35	4.34	12.53	0.3939	0.0917	-0.3062	
-1.013698	-0.141032	-0.033062	-0.21	4.41	11.9	0.3969	0.08419999	-0.3035	
-1.460462	-0.250588	0.03538	27.51	-10.22	20.86	0.4057	0.078	-0.3021	
-0.626104	-0.0122	-0.117608	6.23	-14.14	30.38	0.3955	0.081	-0.3067	
-1.134844	-0.20496	0.031598	7.14	13.86	12.32	0.3971	0.06879999	-0.3056	
-0.972218	-0.146766	-0.04453	7.28	-7.91	1.82	0.3854	0.07979999	-0.3022	
-1.02358	-0.138592	-0.033184	-1.12	3.43	10.5	0.3956	0.0717	-0.3101	
-1.004182	-0.17324	-0.044652	-7.91	1.12	5.32	0.3782	0.0766	-0.3085	
-0.986248	-0.14762	-0.048922	0.28	5.67	9.87	0.4029	0.0641	-0.3073	
-1.00345	-0.129076	-0.04514	-1.47	4.9	8.4	0.3957	0.0643	-0.3058	
-0.989176	-0.126026	-0.041358	-1.54	6.16	10.57	0.4001	0.0613	-0.3028	
-0.991982	-0.12627	-0.036844	0.21	2.87	9.03	0.3899	0.0661	-0.3012	
-0.997838	-0.111752	-0.040016	3.08	1.26	8.33	0.3958	0.0582	-0.3045	
-1.003694	-0.107848	-0.036844	2.94	2.1	8.47	0.4045	0.0579	-0.3091	
-1.004426	-0.110166	-0.050264	1.26	1.75	7.91	0.4016	0.055	-0.3061	
-1.009672	-0.08906	-0.034526	0.49	3.08	5.32	0.4017	0.0533	-0.3093	
-0.994788	-0.092354	-0.050752	-1.47	2.59	5.04	0.3989	0.0508	-0.2971	
-1.008818	-0.099308	-0.044896	-1.89	4.55	4.27	0.3973	0.0535	-0.3078	
-1.007476	-0.103944	-0.044774	-2.31	3.5	3.15	0.3988	0.0551	-0.3046	
-1.003328	-0.102968	-0.051484	-1.75	3.01	3.64	0.4074	0.0552	-0.3	
-1.007476	-0.103578	-0.049288	-0.84	3.08	2.94	0.3988	0.0538	-0.2985	
-1.00101	-0.116754	-0.047824	-1.54	3.22	2.17	0.4046	0.0539	-0.2954	
-0.999912	-0.115656	-0.051362	-1.05	3.78	2.38	0.4046	0.0539	-0.2954	
-1.005768	-0.108336	-0.055144	-1.89	4.34	1.54	0.4016	0.0581	-0.306	
-1.000644	-0.097844	-0.054412	-1.68	4.27	1.19	0.4089	0.0567	-0.2984	
-1.010404	-0.096136	-0.051606	-1.61	4.76	0.56	0.4031	0.0569	-0.2969	
-1.010404	-0.09699	-0.053558	-1.33	4.13	0.21	0.3958	0.0633	-0.292	
-1.005158	-0.099308	-0.049654	-1.82	3.43	-0.91	0.3973	0.057	-0.2953	
-1.001132	-0.102846	-0.060512	-1.19	3.85	-1.26	0.4031	0.0552	-0.3015	
-1.004914	-0.100528	-0.066124	-0.91	3.01	-2.03	0.4117	0.061	-0.3043	
-1.002596	-0.10614	-0.062586	-1.05	3.57	-1.89	0.4075	0.0539	-0.2939	
-1.007476	-0.10736	-0.067954	-1.12	4.2	-2.31	0.4059	0.0597	-0.3013	
-1.000766	-0.107116	-0.066246	-1.96	4.27	-2.94	0.4018	0.048	-0.2911	
-1.004426	-0.102602	-0.066978	-1.89	4.06	-3.78	0.4119	0.0493	-0.291	
-1.00406	-0.103456	-0.06832	-2.03	3.85	-4.27	0.4031	0.0538	-0.297	
-1.004792	-0.112118	-0.08052	-3.85	3.22	-4.55	0.4016	0.0585	-0.2953	
-1.000888	-0.134444	-0.07625	-6.93	3.43	-4.27	0.4075	0.0587	-0.2876	
-1.028948	-0.126148	-0.085888	-5.95	3.01	-5.53	0.4059	0.0679	-0.2872	
-1.020286	-0.116632	-0.07564	-8.89	-0.42	-6.65	0.4061	0.054	-0.2908	
-1.009916	-0.132736	-0.084668	-9.38	1.05	-5.88	0.4044	0.0708	-0.2902	
-1.008574	-0.135908	-0.08113	-11.13	-0.14	-6.3	0.4074	0.0649	-0.2858	
-1.006134	-0.137006	-0.09516	-9.59	-0.77	-7	0.4046	0.0573	-0.2846	
-1.007232	-0.143472	-0.093696	-10.57	-1.89	-6.79	0.3972	0.0696	-0.2856	
-0.996008	-0.135054	-0.089792	-9.31	-2.31	-8.4	0.4131	0.0678	-0.2872	
-1.011746	-0.143594	-0.092232	-7.49	-6.02	-10.99	0.4045	0.0635	-0.2843	
-0.995032	-0.138714	-0.087108	-7.56	-6.44	-10.99	0.4044	0.0709	-0.2886	
-0.998692	-0.136152	-0.09272	-7.49	-6.16	-11.69	0.4101	0.0785	-0.2867	
-1.006988	-0.13725	-0.09211	-7.21	-7.84	-12.74	0.3985	0.0752	-0.2977	
-1.012966	-0.142496	-0.082472	-7.35	-8.61	-13.09	0.3984	0.0846	-0.2912	
-1.010892	-0.137128	-0.08601	-4.41	-7.49	-11.34	0.3999	0.083	-0.2928	
-0.998692	-0.135908	-0.085644	-2.66	-7.77	-9.31	0.3984	0.0832	-0.2882	
-0.998448	-0.138592	-0.091134	-0.77	-9.1	-8.75	0.3955	0.0831	-0.2912	
-1.004914	-0.148108	-0.081008	0.07	-11.13	-8.96	0.4058	0.0738	-0.2931	
-1.029924	-0.165188	-0.080764	1.61	-13.86	-8.82	0.3926	0.0813	-0.3005	
-1.013332	-0.161528	-0.071004	0.35	-14	-8.68	0.3867	0.0907	-0.2971	
-1.00406	-0.183122	-0.084058	4.41	-14.84	-5.81	0.391	0.0936	-0.2985	
-1.01382	-0.17568	-0.044774	5.67	-15.89	-9.73	0.3896	0.0887	-0.3064	
-1.009184	-0.180682	-0.01891	9.73	-17.43	-8.19	0.3851	0.0964	-0.3061	
-1.00345	-0.179706	-0.041114	11.2	-16.03	-6.72	0.3968	0.0887	-0.3048	
-0.985394	-0.162382	-0.01708	7.63	-16.94	-7.49	0.3867	0.0838	-0.3173	
-1.00406	-0.178974	-0.03965	4.97	-22.47	-4.48	0.388	0.0958	-0.3214	
-1.003572	-0.169092	0.016348	9.38	-19.39	-3.5	0.388	0.0928	-0.3185	
-1.000888	-0.19093	0.012444	8.26	-17.22	-1.96	0.3838	0.0851	-0.3234	
-0.980026	-0.157258	0.035258	7.63	-15.19	0.98	0.3779	0.09119999	-0.3263	
-1.007476	-0.166042	0.012688	2.94	-14.84	-3.5	0.3808	0.0828	-0.3435	
-0.969412	-0.150426	0.030622	0	-15.4	-10.99	0.3765	0.08639999	-0.3326	
-0.999546	-0.173728	0.071004	-0.14	-14.91	-8.26	0.3925	0.0815	-0.3343	
-0.972096	-0.188368	0.064904	4.41	-13.86	-3.85	0.3792	0.1003	-0.3259	
-0.97112	-0.19886	0.05734	1.89	-10.71	-12.32	0.3677	0.0939	-0.3369	
-0.987346	-0.201666	0.077958	5.39	-10.99	-11.27	0.3821	0.1003	-0.3259	
-1.00345	-0.195566	0.079788	3.78	-11.83	-12.25	0.3822	0.086	-0.3403	
-0.990518	-0.202032	0.073932	2.94	-11.06	-12.95	0.3806	0.09999999	-0.332	
-0.957578	-0.189222	0.081374	0	-12.6	-8.89	0.3704	0.1012	-0.3458	
-0.958188	-0.187636	0.067466	-2.03	-9.59	-12.11	0.3647	0.1015	-0.3397	
-0.977708	-0.215452	0.048068	1.96	-8.96	-9.03	0.3719	0.1029	-0.3412	
-0.989542	-0.247294	0.051362	3.08	-5.32	-12.18	0.3675	0.103	-0.3396	
-0.990518	-0.254248	0.077592	7.42	-4.48	-11.06	0.3748	0.09959999	-0.3443	
-0.99491	-0.242902	0.088694	7.7	-4.13	-10.78	0.3661	0.1011	-0.3489	
-0.98515	-0.221674	0.096258	5.6	-4.69	-10.36	0.3602	0.1057	-0.3503	
-0.966728	-0.226798	0.087352	1.75	-3.85	-9.24	0.3661	0.1011	-0.3489	
-0.949282	-0.233142	0.084424	0.21	-1.75	-7.35	0.3631	0.1105	-0.344	
-0.949648	-0.251076	0.081618	1.61	0.7	-3.71	0.3617	0.1043	-0.3473	
-0.936228	-0.26413	0.075274	3.5	1.26	-1.61	0.3632	0.098	-0.3521	
-0.955138	-0.256566	0.08295999	3.15	2.38	-5.88	0.3704	0.1026	-0.3488	
-0.989542	-0.268156	0.101016	1.61	2.8	-7.35	0.3674	0.1088	-0.3471	
-0.967338	-0.262544	0.101382	2.45	2.03	-5.04	0.366	0.1036	-0.3626	
-0.970388	-0.25498	0.084912	0.63	2.1	-6.09	0.3602	0.1072	-0.3502	
-0.970144	-0.269986	0.098698	2.03	3.5	-5.95	0.3644	0.1147	-0.353	
-0.97051	-0.270474	0.078324	3.71	3.01	-6.3	0.3574	0.1012	-0.349	
-0.97356	-0.258762	0.073078	3.71	1.68	-6.65	0.3557	0.1197	-0.3452	
-0.97783	-0.240828	0.06954	1.33	1.26	-6.16	0.3688	0.1132	-0.3515	
-0.964654	-0.240706	0.062342	-1.61	2.52	-3.78	0.3659	0.118	-0.3467	
-0.957212	-0.267546	0.06734399	-4.97	4.83	-1.54	0.3616	0.1152	-0.3423	
-0.953552	-0.288774	0.071858	-3.78	7.84	-0.07	0.3601	0.1153	-0.3407	
-0.96807	-0.29097	0.058316	-1.47	8.96	2.52	0.3715	0.1272	-0.3417	
-0.973926	-0.289384	0.073444	-0.42	10.57	4.48	0.3688	0.1133	-0.3484	
-0.969046	-0.276086	0.065392	1.05	12.18	7.56	0.3673	0.1166	-0.3437	
-0.963434	-0.261934	0.05856	2.1	10.57	8.47	0.3717	0.1181	-0.3421	
-0.96319	-0.270108	0.056974	3.08	12.53	7.7	0.3746	0.1136	-0.3376	
-0.98515	-0.249002	0.045384	3.43	10.15	11.27	0.366	0.1139	-0.3331	
-0.994422	-0.249002	0.027084	4.41	11.55	12.04	0.366	0.1128	-0.3239	
-1.001132	-0.236802	0.033428	7.35	10.71	21.35	0.379	0.1091	-0.3347	
-0.989542	-0.232776	0.008662	4.62	14.84	16.03	0.382	0.101	-0.3458	
-0.998082	-0.21777	0.00915	4.9	12.04	18.55	0.3762	0.1061	-0.3349	
-1.007354	-0.211426	-0.005612	1.26	11.13	17.15	0.3821	0.1034	-0.3227	
-1.004914	-0.209596	-0.004514	0.98	10.99	17.5	0.3806	0.1032	-0.3288	
-1.006256	-0.205448	-0.003294	4.13	10.64	17.92	0.3836	0.0957	-0.3245	
-0.99979	-0.221064	0.011712	6.65	10.85	17.64	0.3865	0.0924	-0.3292	
-0.991738	-0.199348	-0.008296	9.45	9.31	15.96	0.3823	0.0915	-0.3155	
-0.998326	-0.186416	-0.007076	11.41	8.75	13.09	0.3881	0.0866	-0.3218	
-1.052982	-0.117364	-0.01952	25.13	6.86	19.88	0.3911	0.0803	-0.3251	
-0.886574	-0.155306	0.014274	15.75	10.85	12.25	0.3998	0.0806	-0.3159	
-1.00955	-0.138836	0.002562	16.66	2.31	13.02	0.3956	0.0698	-0.3194	
-1.006744	-0.134932	0.017324	16.38	7.77	8.96	0.3911	0.0792	-0.3144	
-0.97783	-0.14579	0.008417999	14.42	3.78	7.07	0.3899	0.0623	-0.3182	
-1.017724	-0.130296	-0.004148	12.81	5.18	6.23	0.3986	0.0654	-0.3149	
-1.024312	-0.151646	-0.000732	10.29	3.5	5.67	0.3898	0.0731	-0.3162	
-1.021994	-0.164578	-0.019154	10.01	2.87	2.94	0.3928	0.0639	-0.315	
-1.006134	-0.161772	-0.007198	9.03	0.91	5.74	0.3914	0.0605	-0.3259	
-0.998814	-0.150792	-0.008905999	7.98	1.54	3.22	0.3958	0.058	-0.3106	
-0.985394	-0.150548	0.002684	7.98	2.73	2.17	0.3914	0.0626	-0.3105	
-0.997106	-0.160552	-0.01525	8.82	2.52	2.73	0.3973	0.0499	-0.3217	
-1.000278	-0.169336	-0.006832	8.47	0.84	1.89	0.3972	0.0576	-0.3183	
-1.00223	-0.160674	-0.013786	8.26	2.1	3.71	0.3972	0.0576	-0.3183	
-1.01321	-0.158478	-0.03294	10.08	1.54	1.82	0.3886	0.0547	-0.3185	
-0.998082	-0.155916	-0.021594	10.08	2.1	1.12	0.4002	0.0517	-0.3124	
-1.00162	-0.14396	-0.02135	9.94	1.54	0.7	0.3946	0.0461	-0.3019	
-0.986126	-0.155184	-0.018422	11.48	0.49	-0.91	0.3944	0.0581	-0.3076	
-0.993568	-0.148962	-0.000244	12.39	1.33	-1.12	0.3945	0.044	-0.3158	
-0.977708	-0.145302	0.000122	13.23	2.24	-2.31	0.3931	0.044	-0.3174	
-0.98149	-0.141886	0.00061	12.6	2.8	-3.22	0.396	0.0441	-0.3143	
-0.993568	-0.145302	-0.00305	11.06	1.96	-3.57	0.3916	0.0457	-0.3127	
-0.994178	-0.153476	0.007564	11.62	3.78	-3.64	0.3958	0.0515	-0.3201	
-0.997716	-0.149572	-0.001708	5.88	1.68	-2.38	0.3973	0.0518	-0.3109	
-1.007598	-0.148596	-0.016226	4.34	1.26	-2.8	0.3974	0.0453	-0.3219	
-0.996374	-0.136274	-0.025376	1.54	0.21	-2.73	0.3987	0.0562	-0.3153	
-1.001864	-0.147376	-0.02074	3.36	1.54	-3.78	0.3988	0.0533	-0.3108	
-0.995764	-0.135298	-0.01586	2.1	1.33	-3.43	0.3943	0.0561	-0.3199	
-1.001376	-0.126758	-0.019642	-0.77	0.77	-3.08	0.3988	0.0465	-0.328	
-0.996496	-0.137128	-0.015982	-0.49	0.98	-3.85	0.393	0.0533	-0.3139	
-1.009672	-0.147376	-0.016958	-2.94	-0.21	-2.52	0.4001	0.0628	-0.3028	
-1.004182	-0.168726	0.001098	-4.97	-0.28	-1.61	0.3958	0.0596	-0.3075	
-0.996008	-0.172874	0.003416	-4.97	-0.14	-1.05	0.3987	0.0563	-0.3122	
-0.987956	-0.184342	-0.000732	-3.92	0.14	-0.7	0.3974	0.0471	-0.3141	
-0.998326	-0.194468	-0.001708	-0.84	-0.07	-0.21	0.39	0.0579	-0.3137	
-1.005402	-0.180804	0.005612	-1.4	-0.7	-1.05	0.3944	0.0564	-0.3123	
-1.00223	-0.178852	-0.01464	-0.14	-2.1	-0.77	0.3958	0.0597	-0.306	
-1.007232	-0.179096	-0.014152	-0.07	-3.01	-0.35	0.3886	0.0579	-0.3153	
-0.994788	-0.172264	-0.014884	1.82	-2.8	-0.14	0.39	0.0565	-0.3123	
-1.006256	-0.161406	-0.014396	2.73	-2.94	0.77	0.3987	0.0563	-0.3122	
-1.00772	-0.153354	-0.02257	4.13	-2.45	1.61	0.3873	0.0472	-0.3157	
-0.998692	-0.153964	-0.01281	2.03	-2.45	2.1	0.3988	0.0516	-0.317	
-1.005768	-0.146888	-0.005978	0.7	-1.26	2.59	0.3958	0.0544	-0.3231	
-0.98881	-0.158356	0.001708	1.12	-0.84	2.31	0.396	0.0423	-0.3205	
-1.006866	-0.165676	-0.00366	3.08	-1.05	2.59	0.3915	0.0482	-0.3264	
-1.000034	-0.154208	0.008052	3.01	-0.7	1.82	0.4002	0.0501	-0.314	
-0.99064	-0.157014	0.013908	3.22	-0.56	2.1	0.3902	0.0455	-0.3204	
-0.99125	-0.144814	0.024034	2.17	-1.4	1.96	0.3915	0.0529	-0.3247	
-0.987346	-0.149206	0.023302	1.96	-1.47	1.12	0.393	0.0483	-0.3249	
-0.99186	-0.16287	0.019154	2.31	0	-0.14	0.3959	0.0501	-0.3156	
-0.995886	-0.167506	0.021716	0.7	-0.7	0.14	0.3888	0.0443	-0.3128	
-1.001986	-0.15189	-0.000732	1.61	-1.19	0.84	0.393	0.0471	-0.3172	
-1.007964	-0.154086	0.001708	2.1	-0.91	1.12	0.3917	0.041	-0.3175	
-1.00406	-0.152134	-0.004514	1.82	-0.07	0.42	0.3916	0.047	-0.3188	
-0.984662	-0.151646	-0.003782	1.19	0.07	0.84	0.3901	0.0466	-0.3295	
-0.993202	-0.148108	-0.004514	1.47	0.14	0.42	0.3917	0.0395	-0.316	
-0.99613	-0.152866	-0.00061	0.63	0.98	0.14	0.39	0.0548	-0.3154	
-0.9943	-0.149084	0.000488	0.84	0.84	-0.21	0.3944	0.0501	-0.3171	
-1.00894	-0.15555	0.003172	-0.56	-0.56	0.21	0.3929	0.0549	-0.3123	
-0.995764	-0.14884	0.006588	-0.63	0.35	0.42	0.3958	0.0562	-0.3169	
-1.005402	-0.156526	0.00183	-0.84	-0.21	0.21	0.393	0.0517	-0.3155	
-1.000522	-0.150426	0.011712	-0.91	0.7	0.07	0.3974	0.039	-0.3252	
-0.998448	-0.152256	0.010858	-1.82	0.21	-0.14	0.3974	0.0437	-0.3235	
-0.989176	-0.148718	-0.003416	-1.82	-0.28	-0.91	0.3972	0.0579	-0.3122	
-0.99186	-0.1586	0.004148	-3.01	-1.54	-1.33	0.3945	0.0424	-0.3189	
-1.00101	-0.151524	0.001708	-3.57	-2.1	-1.47	0.3873	0.0471	-0.3173	
-0.99674	-0.13969	0.00854	-5.18	-2.17	-2.24	0.3943	0.0573	-0.3275	
-0.99247	-0.143472	0.01952	-5.74	-1.12	-2.52	0.3944	0.05	-0.3186	
-0.987102	-0.13603	0.016714	-8.26	-0.14	-2.94	0.3915	0.0531	-0.3185	
-0.97356	-0.126514	0.020252	-8.19	1.82	-4.48	0.3957	0.0608	-0.3167	
-0.979904	-0.128466	0.012322	-8.33	2.31	-5.04	0.3957	0.0608	-0.3167	
-0.984052	-0.12566	-0.020984	-6.09	3.64	-8.05	0.3959	0.0567	-0.303	
-0.997594	-0.140056	0.006344	-4.76	2.52	-10.99	0.3943	0.0623	-0.3166	
-0.996374	-0.13481	0.004636	-9.24	5.53	-13.09	0.3971	0.0652	-0.3195	
-0.98637	-0.122976	-0.000244	-14.28	5.18	-11.34	0.3972	0.0578	-0.3152	
-0.981734	-0.145668	0.00305	-15.05	4.48	-10.57	0.4001	0.059	-0.3213	
-1.010526	-0.188856	-0.026108	-11.69	3.15	-11.48	0.3926	0.0746	-0.3146	
-1.00833	-0.230214	-0.0183	-7.7	-1.4	-15.96	0.3899	0.0669	-0.318	
-1.020774	-0.251564	-0.018056	-7.07	-1.68	-14.7	0.3941	0.0763	-0.3115	
-1.007964	-0.234118	-0.01952	-11.34	-1.05	-16.73	0.3927	0.073	-0.3162	
-0.988444	-0.219844	-0.029158	-13.65	-2.03	-16.1	0.3969	0.0791	-0.3144	
-0.997228	-0.21289	-0.03172	-12.53	-1.68	-16.03	0.384	0.0749	-0.3116	
-0.974292	-0.216672	-0.034282	-14.07	-2.52	-17.15	0.3882	0.0853	-0.3157	
-0.973316	-0.224358	-0.03599	-14.56	-3.29	-16.73	0.3968	0.0882	-0.3156	
-0.97722	-0.239852	-0.02989	-14.84	-3.08	-15.75	0.3952	0.0927	-0.32	
-0.988932	-0.245464	-0.053924	-7.49	-1.61	-13.09	0.3807	0.1021	-0.3197	
-1.022238	-0.251808	-0.033794	-7.7	-2.73	-9.38	0.401	0.0927	-0.3169	
-1.012844	-0.28853	-0.033062	-7.63	-9.17	-13.3	0.3908	0.099	-0.3152	
-0.989176	-0.278648	-0.002928	-9.24	-7.42	-8.12	0.3864	0.1068	-0.3133	
-0.985516	-0.28792	-0.007198	-3.71	-7.14	-3.43	0.3849	0.1078	-0.3271	
-0.986736	-0.280234	0.010492	-2.03	-7.84	-3.99	0.3763	0.1051	-0.3227	
-0.984418	-0.264496	-0.013908	-0.63	-12.74	-6.37	0.3806	0.1036	-0.3181	
-0.98881	-0.256078	0.014396	2.03	-14.49	-5.46	0.382	0.111	-0.3239	
-0.977708	-0.249612	0.00488	4.76	-12.53	-5.81	0.3689	0.111	-0.3286	
-0.978318	-0.265106	0.013664	5.74	-11.41	-6.3	0.3878	0.103	-0.3303	
-0.981734	-0.25986	0.01159	7.77	-11.76	-6.37	0.3734	0.1033	-0.3289	
-0.975268	-0.25376	0.01159	-0.91	-12.74	-5.88	0.3747	0.1109	-0.3301	
-0.986492	-0.229482	0.016226	-5.74	-9.8	-6.23	0.3734	0.1003	-0.3275	
-0.997472	-0.250466	0.026596	-10.36	-7.21	-8.96	0.3719	0.1079	-0.3302	
-0.990152	-0.235704	0.04331	-8.26	-5.39	-4.06	0.3674	0.1153	-0.3376	
-0.990762	-0.253272	0.036356	-9.38	-3.85	-2.17	0.3748	0.1065	-0.3241	
-0.97295	-0.251076	0.034526	-13.93	-3.57	-4.48	0.379	0.1123	-0.3315	
-0.977098	-0.269498	0.036844	-18.2	0.7	-3.71	0.3761	0.117	-0.3283	
-0.967826	-0.265716	0.038674	-20.23	5.6	-4.27	0.3804	0.115	-0.3406	
-0.970144	-0.25742	0.038796	-22.26	5.46	-6.93	0.3775	0.1121	-0.3377	
-0.96502	-0.248148	0.028914	-18.34	5.95	-8.19	0.3673	0.1265	-0.3234	
-0.998448	-0.25071	-0.002074	-9.38	-10.85	-3.5	0.3832	0.123	-0.328	
-0.969046	-0.287676	0.013054	-21.28	-8.05	-16.1	0.3686	0.1339	-0.3292	
