Sensor string: E
Serial number: 1970-01-0000
Firmware version: 2.015
Hardware version: 2.2
Calibration quality: 5
ax	ay	az	gx	gy	gz	mx	my	mz

-1.0126	0.07686	0.02623	0.49	0.7	-2.66	0.4246	-0.0457	-0.3119	Reference
-1.021506	0.083936	0.01403	-0.07	0.42	-2.8	0.4247	-0.0442	-0.315	
-1.028582	0.080154	0.010858	0.28	-0.56	-2.66	0.4251	-0.046	-0.3271	
-1.025044	0.069784	0.0061	0.42	-1.61	-3.22	0.4191	-0.0489	-0.3179	
-1.018578	0.061976	0.01403	-1.05	-1.4	-3.22	0.4161	-0.0473	-0.3147	
-1.007232	0.065148	0.01708	0.07	-1.47	-2.45	0.4093	-0.0569	-0.3252	
-1.010648	0.0549	0.02806	0.84	0.77	1.26	0.4135	-0.0505	-0.3207	
-1.000278	0.0549	0.02867	3.57	1.12	0.7	0.415	-0.0537	-0.3224	
-1.008452	0.047214	0.035868	3.92	1.4	1.68	0.4248	-0.0489	-0.3165	
-1.011502	0.051484	0.035868	3.15	1.61	1.89	0.416	-0.0488	-0.3117	
-1.015162	0.067588	0.02989	1.68	1.12	1.4	0.4237	-0.0554	-0.3272	
-1.016138	0.077714	0.024644	1.12	0.28	0.7	0.4193	-0.0537	-0.324	
-1.014064	0.074908	0.015372	4.13	-0.63	0.07	0.4103	-0.0535	-0.3116	
-1.024434	0.070882	0.01037	5.04	-1.4	-0.91	0.4176	-0.0552	-0.3149	
-1.02663	0.07442	0.012444	4.2	-1.89	-0.91	0.409	-0.0567	-0.3131	
-1.027728	0.075518	0.020008	3.08	-2.87	-0.77	0.4329	-0.0472	-0.3032	
-1.021262	0.07503	0.032574	6.58	-4.41	-1.33	0.4289	-0.0551	-0.3107	
-1.035048	0.09162199	0.032208	8.19	-7.28	1.33	0.4235	-0.0537	-0.3226	
-1.041148	0.083082	0.04392	-2.8	-9.31	2.38	0.4149	-0.0615	-0.321	
-1.048102	0.061488	0.05307	-7.84	-11.69	3.71	0.4194	-0.0647	-0.3257	
-1.056276	0.048434	0.044774	-7.49	-15.61	6.16	0.4178	-0.0506	-0.3209	
-1.058716	0.050264	0.020862	-9.03	-21.14	5.18	0.4151	-0.0585	-0.327	
-1.060546	0.073322	0.017446	-10.43	-24.85	6.79	0.4165	-0.0569	-0.327	
-1.056154	0.074298	0.012078	-8.4	-29.54	9.66	0.412	-0.0474	-0.3206	
-1.070794	0.072224	0.001952	3.01	-34.72	11.69	0.4165	-0.0491	-0.3269	
-1.06506	0.06771	0.011468	4.06	-39.41	13.09	0.4095	-0.0601	-0.3314	
-1.049078	0.04392	0.01769	13.09	-42.77	16.52	0.4042	-0.065	-0.3434	
-1.042246	0.050874	0.000366	11.13	-41.65	17.57	0.3974	-0.0495	-0.3565	
-1.012844	0.088328	0.00488	0.49	-46.83	14.91	0.3932	-0.073	-0.3583	
-1.00101	0.114436	0.024522	-4.06	-49.56	14.7	0.3877	-0.0637	-0.3655	
-1.011136	0.085766	0.065514	-6.93	-51.59	18.06	0.3921	-0.0716	-0.3673	
-1.003694	0.068442	0.102602	-6.44	-52.57	22.96	0.3694	-0.07	-0.3711	
-0.98515	0.09162199	0.113216	-5.53	-54.39	21.21	0.3726	-0.0765	-0.3819	
-0.99979	0.10797	0.147498	-6.37	-54.53	21	0.3641	-0.0781	-0.3862	
-0.99613	0.11956	0.162626	0.56	-56.07	19.81	0.3575	-0.0909	-0.4028	
-1.00894	0.129076	0.187758	-1.68	-52.71	18.48	0.3462	-0.0893	-0.4054	
-0.992836	0.13298	0.22082	-5.81	-51.1	15.05	0.3476	-0.0768	-0.4053	
-0.95892	0.121756	0.257176	-14.7	-50.05	12.81	0.3437	-0.0895	-0.4174	
-0.942084	0.090158	0.281698	-13.58	-49.98	12.88	0.3294	-0.091	-0.417	
-0.930982	0.10492	0.295728	-9.1	-48.58	12.18	0.3265	-0.0894	-0.4154	
-0.934764	0.136396	0.316468	-9.31	-46.48	10.43	0.3297	-0.0927	-0.4276	
-0.914634	0.16348	0.325862	-7.63	-46.06	11.34	0.321	-0.0848	-0.4242	
-0.917074	0.17324	0.34526	-10.15	-44.8	11.06	0.3141	-0.1037	-0.4288	
-0.919392	0.179584	0.365878	-9.94	-45.01	11.2	0.3048	-0.0931	-0.4526	
-0.900238	0.16714	0.387838	-11.83	-46.2	11.76	0.2948	-0.0883	-0.4522	
-0.882426	0.162748	0.419802	-12.95	-47.04	12.25	0.2961	-0.0867	-0.4492	
-0.878522	0.167994	0.4392	-13.02	-47.95	12.74	0.2821	-0.0946	-0.4564	
-0.8784	0.174582	0.451034	-11.13	-48.51	12.6	0.2796	-0.087	-0.4698	
-0.843752	0.173484	0.462624	-10.43	-49.63	13.65	0.2681	-0.0917	-0.468	
-0.827648	0.15921	0.481168	-12.39	-50.19	13.16	0.261	-0.0869	-0.4677	
-0.82777	0.153232	0.503494	-8.89	-50.82	13.58	0.2567	-0.0853	-0.466	
-0.818254	0.152866	0.505934	-6.79	-51.38	13.72	0.2509	-0.0885	-0.4659	
-0.813252	0.175802	0.515694	-6.37	-50.12	13.58	0.2395	-0.0822	-0.4654	
-0.802882	0.19215	0.53253	-5.46	-47.74	13.86	0.2296	-0.0884	-0.4667	
-0.792146	0.176534	0.545706	-4.62	-44.87	13.09	0.2327	-0.0854	-0.4759	
-0.7869	0.191052	0.556076	-6.09	-42.84	12.11	0.2147	-0.0857	-0.495	
-0.774822	0.213866	0.576694	-7.7	-41.58	11.06	0.2171	-0.0792	-0.4798	
-0.75518	0.21106	0.59414	-9.03	-40.25	10.78	0.2019	-0.0873	-0.4976	
-0.753228	0.186904	0.60451	-6.51	-38.71	10.64	0.2008	-0.09209999	-0.5082	
-0.74542	0.196176	0.61671	-7.21	-37.87	9.87	0.2046	-0.0856	-0.4901	
-0.718336	0.213012	0.612318	-7.63	-36.75	8.75	0.1894	-0.0843	-0.5077	
-0.712358	0.214354	0.621468	-8.33	-34.79	8.05	0.1894	-0.0905	-0.5078	
-0.721996	0.204838	0.650626	-8.47	-33.32	7.49	0.1836	-0.0873	-0.5046	
-0.726388	0.19764	0.66734	-7.35	-32.83	7.28	0.1723	-0.08419999	-0.5087	
-0.711138	0.189222	0.675636	-7.77	-32.55	7	0.1623	-0.0827	-0.5099	
-0.700158	0.186782	0.68137	-6.79	-32.13	7.14	0.1652	-0.09209999	-0.5086	
-0.686982	0.192272	0.68869	-6.09	-31.5	7.14	0.1497	-0.0796	-0.5185	
-0.668682	0.191052	0.691008	-5.67	-30.59	7.42	0.1552	-0.0858	-0.5082	
-0.665876	0.190076	0.705404	-5.67	-29.47	7.21	0.1498	-0.0844	-0.5216	
-0.669658	0.179828	0.717726	-4.2	-28.35	6.65	0.1468	-0.09209999	-0.5156	
-0.660874	0.188002	0.72651	-3.71	-26.95	6.58	0.1426	-0.0781	-0.5198	
-0.650748	0.21045	0.733464	-4.13	-24.78	6.16	0.1368	-0.0827	-0.5166	
-0.63623	0.204228	0.738954	-3.71	-23.17	5.88	0.1324	-0.0826	-0.5104	
-0.626836	0.2013	0.737124	-4.06	-21.42	5.39	0.1314	-0.0922	-0.5257	
-0.619638	0.201544	0.745664	-3.43	-19.88	4.48	0.1243	-0.0797	-0.5268	
-0.61976	0.201422	0.75152	-2.73	-18.34	3.92	0.1285	-0.0891	-0.524	
-0.610244	0.211914	0.757376	-2.87	-17.15	3.57	0.1168	-0.0827	-0.516	
-0.613538	0.217648	0.761646	-3.22	-15.68	3.08	0.1199	-0.0781	-0.5236	
-0.60695	0.217404	0.766892	-3.29	-14.42	2.59	0.1126	-0.0843	-0.5189	
-0.60085	0.210694	0.769088	-3.01	-12.95	2.38	0.1157	-0.0781	-0.5265	
-0.598044	0.210816	0.771772	-3.43	-11.9	1.68	0.1153	-0.0748	-0.5143	
-0.595726	0.204228	0.767258	-2.1	-10.92	1.47	0.1104	-0.09079999	-0.5371	
-0.594994	0.211426	0.770674	-2.45	-9.87	1.05	0.1142	-0.078	-0.5219	
-0.592676	0.197884	0.776286	-1.19	-9.1	1.26	0.1188	-0.0814	-0.5327	
-0.5917	0.201056	0.777262	-1.33	-8.33	1.4	0.0986	-0.0875	-0.526	
-0.58682	0.19947	0.776164	-0.91	-7.28	1.05	0.1115	-0.0797	-0.5294	
-0.58926	0.198494	0.777262	-2.1	-5.18	0.7	0.1056	-0.0812	-0.5231	
-0.59475	0.199958	0.78019	-1.89	-2.66	0.42	0.1029	-0.0828	-0.5261	
-0.600362	0.189344	0.783728	-0.49	-0.28	-0.14	0.1045	-0.0782	-0.5321	
-0.604632	0.202642	0.783972	-0.91	1.75	-0.84	0.1029	-0.0828	-0.5276	
-0.599142	0.19398	0.78019	-0.21	3.64	-1.05	0.1044	-0.0829	-0.5307	
-0.592066	0.210572	0.782752	-1.47	6.37	-1.89	0.1001	-0.0797	-0.5305	
-0.587308	0.199836	0.78507	-0.56	8.68	-2.45	0.1011	-0.07009999	-0.5168	
-0.595848	0.188978	0.785924	-2.73	11.83	-3.29	0.1114	-0.0718	-0.5247	
-0.58926	0.19764	0.789096	-3.99	15.89	-4.27	0.107	-0.078	-0.5201	
-0.584502	0.19764	0.801052	-2.87	19.32	-4.83	0.1039	-0.07009999	-0.5138	
-0.585356	0.186416	0.805322	0	22.89	-5.32	0.1154	-0.0685	-0.5157	
-0.577792	0.181902	0.794464	2.73	26.6	-6.44	0.1239	-0.07319999	-0.513	
-0.575352	0.18727	0.783118	3.92	30.94	-7.77	0.1298	-0.0624	-0.5206	
-0.58316	0.190808	0.762622	3.99	35.49	-9.17	0.1342	-0.0656	-0.5253	
-0.593042	0.192638	0.75945	5.88	40.11	-10.64	0.1282	-0.067	-0.5146	
-0.607072	0.190564	0.743346	6.02	44.45	-11.83	0.1398	-0.0687	-0.521	
-0.623054	0.193126	0.73139	6.23	47.95	-12.32	0.1524	-0.0733	-0.5109	
-0.651968	0.186782	0.726266	6.79	51.03	-12.67	0.1422	-0.07	-0.506	
-0.666974	0.189832	0.699548	7.07	53.76	-13.44	0.1611	-0.0718	-0.5172	
-0.67527	0.17385	0.66978	8.47	56.98	-14	0.1638	-0.0718	-0.5128	
-0.696498	0.181048	0.656848	7.21	59.92	-14.42	0.1709	-0.078	-0.5101	
-0.728584	0.19032	0.62281	7.21	62.51	-15.4	0.1907	-0.0764	-0.5031	
-0.752862	0.199958	0.614392	4.48	63.63	-16.45	0.202	-0.07009999	-0.5019	
-0.775432	0.194102	0.585356	4.2	63.91	-16.1	0.2187	-0.0762	-0.4859	
-0.789706	0.1769	0.555222	7.14	63.07	-15.12	0.2246	-0.0684	-0.492	
-0.80459	0.174094	0.544242	10.85	62.86	-14.42	0.2304	-0.07319999	-0.4953	
-0.811788	0.167018	0.518256	9.66	62.09	-14.56	0.2456	-0.0777	-0.4792	
-0.820572	0.167506	0.50203	7.14	62.51	-14.56	0.2514	-0.084	-0.481	
-0.832772	0.173972	0.479094	5.04	61.88	-14.7	0.2498	-0.0714	-0.4762	
-0.841678	0.174826	0.460916	6.09	61.25	-15.12	0.2727	-0.0762	-0.477	
-0.86315	0.166408	0.452132	9.17	61.88	-15.12	0.281	-0.07759999	-0.4682	
-0.879498	0.137372	0.43554	10.99	61.88	-14.56	0.2864	-0.0634	-0.4591	
-0.888892	0.119804	0.415044	10.5	61.95	-14.21	0.2862	-0.0758	-0.4532	
-0.902068	0.127124	0.395768	7.77	61.6	-14.98	0.3016	-0.07099999	-0.4446	
-0.904264	0.14335	0.371734	7.07	61.46	-15.68	0.3075	-0.0711	-0.4493	
-0.909022	0.149084	0.364658	7.63	62.44	-15.47	0.3143	-0.0662	-0.4373	
-0.897066	0.131516	0.335012	11.9	62.16	-16.59	0.3226	-0.0583	-0.4314	
-0.904752	0.121634	0.307196	14.98	61.74	-16.73	0.3337	-0.07539999	-0.4184	
-0.930982	0.101748	0.289628	19.6	61.53	-15.96	0.3349	-0.069	-0.4123	
-0.960994	0.085888	0.248392	17.57	61.95	-16.45	0.3505	-0.0737	-0.4083	
-0.945622	0.09076799	0.21716	16.17	60.41	-18.27	0.3577	-0.0706	-0.41	
-0.956602	0.108458	0.178974	12.18	60.06	-19.46	0.3629	-0.0704	-0.3936	
-0.972584	0.087352	0.163846	11.55	60.48	-20.09	0.3709	-0.0592	-0.377	
-0.98881	0.077592	0.138836	14.14	59.22	-20.02	0.3738	-0.0623	-0.3771	
-0.99674	0.070394	0.107482	11.34	57.47	-21.49	0.3791	-0.0605	-0.3637	
-1.015406	0.061122	0.084668	12.32	57.4	-17.78	0.3834	-0.0574	-0.3638	
-1.028826	0.060268	0.050996	15.05	54.25	-16.87	0.3962	-0.0684	-0.3613	
-1.044686	0.065636	0.044164	5.32	52.5	-15.61	0.3943	-0.0509	-0.3474	
-1.03029	0.045384	0.02196	4.48	51.17	-15.12	0.4016	-0.051	-0.3537	
-1.031144	0.032818	-0.007442	8.33	49.77	-13.72	0.4026	-0.057	-0.3371	
-1.039684	0.041968	-0.006954	4.76	47.32	-13.3	0.4138	-0.0413	-0.3327	
-1.03944	0.029402	-0.031232	-2.38	44.94	-14.07	0.4193	-0.0584	-0.3241	
-1.042124	0.036844	-0.05612	-0.77	41.51	-13.51	0.4178	-0.0475	-0.3239	
-1.037488	0.02806	-0.072346	-5.88	38.36	-14.77	0.4176	-0.0442	-0.3147	
-1.03822	0.019886	-0.054046	-8.4	35.07	-15.05	0.4275	-0.0395	-0.315	
-1.030656	0.024156	-0.070882	1.54	30.73	-15.68	0.43	-0.0425	-0.303	
-1.040782	0.013664	-0.095648	3.85	30.31	-16.38	0.4326	-0.0329	-0.2939	
-1.038708	0.000366	-0.093818	3.08	26.95	-15.12	0.4327	-0.0377	-0.2954	
-1.031022	-0.02074	-0.117974	2.24	23.45	-13.3	0.4368	-0.0376	-0.2895	
-1.03639	0.00427	-0.114802	-4.2	16.73	-11.9	0.4353	-0.0391	-0.2895	
-1.03639	-0.004758	-0.109678	-3.15	21.07	-12.32	0.4396	-0.036	-0.2881	
-1.046516	0.016592	-0.11651	-6.93	19.11	-12.04	0.4408	-0.0359	-0.2805	
-1.022238	0.00061	-0.098332	1.61	24.71	-9.52	0.4478	-0.0296	-0.2792	
-1.012722	0.003416	-0.101748	0.42	21.42	-7.91	0.4446	-0.0278	-0.2654	
-1.025532	0.012078	-0.099064	0.7	22.05	-12.32	0.4392	-0.0186	-0.2757	
-1.026508	0.0061	-0.12932	13.16	22.96	-11.97	0.4491	-0.0264	-0.2731	
-1.006744	0.000488	-0.108946	4.69	21.63	-11.41	0.4517	-0.0216	-0.2655	
-1.012356	-0.008052	-0.112728	12.11	19.25	-13.16	0.4533	-0.0217	-0.2716	
-1.039562	-0.019642	-0.115778	11.97	18.9	-8.68	0.4474	-0.0263	-0.2655	
-1.037488	-0.00976	-0.152134	9.03	16.8	-9.31	0.4488	-0.0231	-0.2624	
-1.027118	-0.022082	-0.120414	3.99	14.14	-9.24	0.4573	-0.0309	-0.2598	
-1.021628	-0.025498	-0.125172	4.69	13.09	-7.28	0.4574	-0.0169	-0.2657	
-1.029924	-0.036844	-0.154818	12.53	12.53	-5.04	0.4514	-0.0198	-0.2549	
-1.040904	-0.037576	-0.149938	15.33	10.43	-4.2	0.4528	-0.0152	-0.2564	
-1.02846	-0.040626	-0.140544	11.55	7.63	-3.85	0.4611	-0.0166	-0.2461	
-1.017724	-0.04636	-0.156038	10.64	6.65	-0.7	0.4481	-0.0133	-0.2411	
-1.004914	-0.050508	-0.154696	14.07	6.51	-0.98	0.4585	-0.0152	-0.2566	
-0.995642	-0.052094	-0.202154	20.23	6.51	-2.24	0.4613	-0.0167	-0.2537	
-1.001376	-0.03782	-0.197396	17.15	7.42	-3.64	0.4583	-0.0276	-0.2477	
-0.990884	-0.045262	-0.182878	15.89	9.03	-1.82	0.462	-0.0195	-0.2295	
-1.00284	-0.04392	-0.154696	17.22	8.26	-3.92	0.465	-0.0227	-0.2342	
-1.011136	-0.024522	-0.14701	10.64	6.65	-4.76	0.462	-0.0101	-0.2309	
-1.015406	-0.010614	-0.129808	2.73	5.25	-4.83	0.4707	-0.007	-0.2357	
-1.013942	-0.023912	-0.122976	4.06	4.69	-3.5	0.4634	-0.0132	-0.228	
-1.003694	-0.010248	-0.1342	12.32	3.71	-3.5	0.4606	-0.0069	-0.2308	
-0.999058	-0.026474	-0.150182	10.64	3.36	-4.2	0.4589	-0.0146	-0.2218	
-1.011502	-0.021228	-0.165676	7	4.2	-4.62	0.4662	-0.0132	-0.2265	
-1.000522	-0.028426	-0.154208	3.15	4.41	-4.34	0.4635	-0.0226	-0.2327	
-1.000034	-0.030378	-0.172264	12.53	5.04	-4.48	0.4634	-0.0101	-0.2294	
-0.999424	-0.056486	-0.16104	13.37	6.72	-4.69	0.4562	-0.0178	-0.2263	
-1.000888	-0.050386	-0.165188	12.18	6.02	-5.81	0.4592	-0.021	-0.231	
-0.999668	-0.06283	-0.168482	9.94	5.74	-5.81	0.4721	-0.0211	-0.2314	
-1.003328	-0.059414	-0.151158	6.23	5.95	-6.37	0.4576	-0.0147	-0.2263	
-0.998692	-0.054778	-0.172264	6.65	5.46	-5.95	0.4608	-0.0195	-0.2355	
-1.00101	-0.06344	-0.162626	8.4	4.48	-5.46	0.4646	-0.0193	-0.2205	
-0.998326	-0.075884	-0.18727	9.38	5.39	-5.18	0.4646	-0.0115	-0.2219	
-0.989786	-0.086254	-0.194346	10.22	5.88	-5.46	0.4616	-0.0114	-0.2173	
-0.992836	-0.071614	-0.1952	10.57	5.88	-6.3	0.4735	-0.0101	-0.2313	
-1.00162	-0.081252	-0.172996	13.3	6.51	-6.16	0.4605	-0.0163	-0.2279	
-0.995398	-0.07198	-0.19398	14.49	6.58	-6.3	0.4663	-0.0085	-0.2295	
-0.998204	-0.077958	-0.191662	11.55	6.51	-5.6	0.4674	-0.0021	-0.2204	
-0.99186	-0.084546	-0.186538	13.79	8.54	-4.06	0.4656	-0.0128	-0.2068	
-0.994056	-0.081008	-0.179584	12.11	7.84	-5.11	0.4703	-0.013	-0.2191	
-0.98942	-0.097844	-0.178242	10.85	7.56	-4.34	0.47	-0.0145	-0.21	
-0.996252	-0.096868	-0.1891	13.02	6.79	-4.97	0.4576	-0.0115	-0.2247	
-1.000888	-0.094306	-0.191906	14.21	6.79	-4.69	0.4703	-0.0177	-0.2192	
-1.0065	-0.087352	-0.182756	11.69	5.6	-4.34	0.4599	-0.0113	-0.2066	
-0.994544	-0.10492	-0.199714	13.09	3.99	-3.78	0.4644	-0.0083	-0.2158	
-0.999424	-0.105408	-0.213866	13.86	4.2	-2.66	0.4701	-0.0083	-0.216	
-0.995886	-0.11407	-0.200934	10.92	3.43	-1.89	0.463	-0.0098	-0.2158	
-0.981978	-0.123342	-0.216794	9.87	3.85	-2.24	0.4684	-0.0175	-0.204	
-0.97783	-0.121878	-0.222772	10.85	4.76	-2.45	0.4685	-0.009699999	-0.2084	
-0.991128	-0.10309	-0.19947	7.63	4.27	-5.11	0.477	-0.0113	-0.2057	
-0.994178	-0.10126	-0.217648	8.05	3.36	-4.83	0.4671	-0.0113	-0.2084	
-0.990762	-0.12627	-0.211792	7.21	4.06	-3.85	0.4711	-0.0096	-0.1994	
-0.995032	-0.105896	-0.211548	6.02	3.5	-3.64	0.4738	-0.0064	-0.1949	
-0.9943	-0.11346	-0.20984	3.43	3.36	-2.17	0.4751	-0.0048	-0.1919	
-1.001742	-0.116022	-0.206424	6.02	2.87	-1.47	0.4569	-0.0112	-0.2035	
-0.996984	-0.120536	-0.202032	2.1	2.03	-0.91	0.474	-0.0049	-0.2009	
-0.994422	-0.108092	-0.217526	0	0.56	-1.26	0.468	-0.0016	-0.1916	
-0.994422	-0.10126	-0.219966	-1.33	-0.35	-0.56	0.4741	-0.0081	-0.204	
-0.98088	-0.121878	-0.221796	0.77	-0.21	0	0.4754	-0.0065	-0.201	
-0.987834	-0.115778	-0.223748	2.38	-0.63	-0.91	0.4668	-0.0081	-0.2008	
-0.993446	-0.12017	-0.209108	1.26	-0.07	0.56	0.4683	-0.0128	-0.2024	
-0.98637	-0.126758	-0.217404	2.38	-0.91	0.7	0.4697	-0.0112	-0.2009	
-0.989664	-0.122854	-0.224602	4.2	-1.19	1.26	0.4682	-0.0143	-0.1994	
-0.992104	-0.11895	-0.209108	0.49	-1.47	1.89	0.4611	-0.0064	-0.199	
-0.985272	-0.12078	-0.21594	2.94	-1.61	2.17	0.4671	-0.0145	-0.2099	
-0.989786	-0.127002	-0.210328	2.38	-2.24	1.05	0.464	-0.0174	-0.1993	
-0.995032	-0.130418	-0.208254	1.82	-2.45	0.84	0.4682	-0.0174	-0.1994	
-0.996984	-0.127246	-0.20313	0.98	-4.48	1.68	0.4741	-0.016	-0.2057	
-1.003572	-0.12017	-0.196908	-0.49	-5.88	2.8	0.4726	-0.0112	-0.2025	
-1.009428	-0.111508	-0.198982	0	-7.07	3.85	0.46	-0.0113	-0.2097	
-1.007232	-0.105896	-0.185928	0.07	-7.63	5.25	0.4614	-0.016	-0.2083	
-1.009428	-0.09357399	-0.186172	-0.84	-9.87	5.88	0.4756	-0.0098	-0.2086	
-0.99979	-0.096868	-0.181048	-3.43	-12.32	6.65	0.4711	-0.0081	-0.2009	
-0.99918	-0.078446	-0.171898	-2.73	-13.86	6.65	0.4699	-0.0176	-0.2086	
-1.009184	-0.095282	-0.136274	-4.13	-14.98	9.38	0.4701	-0.013	-0.213	
-1.021506	-0.085278	-0.136152	-8.19	-16.24	9.52	0.4686	-0.0082	-0.2129	
-1.018456	-0.096624	-0.138714	-13.65	-18.76	10.99	0.4661	-0.0116	-0.225	
-1.020408	-0.068076	-0.156282	-20.09	-21.35	9.1	0.4617	-0.0256	-0.219	
-1.01443	-0.053192	-0.145424	-26.04	-22.12	9.17	0.4575	-0.0209	-0.2203	
-1.031876	-0.040138	-0.083204	-37.66	-24.29	12.53	0.4691	-0.0195	-0.2282	
-1.067012	-0.013542	-0.04209	-45.99	-29.75	16.52	0.4651	-0.0258	-0.2358	
-1.019676	-0.067954	-0.124806	-48.51	-33.6	21.84	0.4568	-0.015	-0.2444	
-0.999302	-0.085156	-0.174094	-43.4	-36.54	21.42	0.4639	-0.0166	-0.2462	
-1.005646	-0.071736	-0.153598	-34.37	-34.65	21.56	0.4455	-0.0213	-0.2487	
-1.016748	-0.047458	-0.07442	-19.67	-33.46	18.13	0.4556	-0.0245	-0.2521	
-1.023336	-0.024644	-0.020984	-15.12	-33.32	15.12	0.4518	-0.0263	-0.2702	
-0.97356	-0.020496	-0.10919	-13.51	-34.02	14.84	0.4377	-0.0404	-0.2729	
-0.963434	-0.039772	-0.192516	-15.89	-30.17	16.45	0.4394	-0.0265	-0.2834	
-0.999546	-0.06527	-0.131028	-21.07	-24.15	15.47	0.4481	-0.0282	-0.2867	
-1.006134	-0.040504	-0.072834	-7.91	-19.18	12.25	0.4365	-0.0343	-0.2819	
-1.025776	-0.037332	0.000122	-0.98	-14.7	10.92	0.4395	-0.0438	-0.2852	
-1.041514	0.007929999	-0.035502	7.21	-17.29	8.4	0.438	-0.0312	-0.2849	
-1.00406	0.004636	-0.030622	-10.22	-21.28	8.75	0.4368	-0.0407	-0.2911	
-0.995398	0.01464	-0.07503	-16.24	-22.82	7.84	0.4283	-0.0376	-0.2923	
-1.033706	0.001464	-0.044042	-20.79	-19.81	11.48	0.4355	-0.0377	-0.2955	
-1.045174	-0.009272	-0.029768	-5.11	-20.44	10.01	0.4355	-0.0345	-0.2955	
-1.064328	-0.011102	-0.043066	3.01	-24.15	11.13	0.4314	-0.0346	-0.3029	
-1.05652	-0.004758	-0.050996	-5.18	-30.66	7.63	0.4228	-0.0424	-0.2997	
-1.04554	-0.008052	-0.017568	-13.58	-30.59	11.48	0.4286	-0.0425	-0.3029	
-1.038342	0.006344	-0.01098	-11.55	-30.94	16.17	0.4219	-0.0427	-0.3164	
-1.024556	0.019642	-0.007076	-2.03	-35.63	16.24	0.4162	-0.0442	-0.3162	
-1.068964	0.011468	-0.014152	3.08	-40.88	15.54	0.4151	-0.0475	-0.3268	
-1.023702	0.014152	-0.0244	0.14	-46.9	18.13	0.4154	-0.0445	-0.3374	
-1.009916	0.038552	0.024888	-6.09	-45.08	15.75	0.4126	-0.0524	-0.3389	
-1.005036	0.044042	0.033794	-13.65	-44.94	15.19	0.4014	-0.0525	-0.3461	
-1.016016	0.059536	0.0488	-5.18	-47.25	14.35	0.3943	-0.0478	-0.3473	
-1.047126	0.029158	0.032574	1.33	-42	20.16	0.3874	-0.0526	-0.3547	
-1.00589	0.031598	0.066734	-11.34	-45.29	21.7	0.3989	-0.0511	-0.3581	
-0.98698	0.018788	0.109556	-15.19	-46.2	22.61	0.3792	-0.0653	-0.3653	
-1.014918	0.07503	0.11468	-14.56	-42	16.03	0.3724	-0.0608	-0.3786	
-1.058106	0.099186	0.13786	-15.4	-39.69	17.43	0.3838	-0.0529	-0.3773	
-1.009916	0.07503	0.132858	-6.79	-41.51	20.23	0.3739	-0.0529	-0.38	
-0.998448	0.085644	0.158722	-4.48	-44.1	19.81	0.3671	-0.0578	-0.3905	
-0.989786	0.096014	0.191052	-10.08	-48.09	19.18	0.3558	-0.0672	-0.3933	
-0.983564	0.081862	0.21167	-7.63	-48.09	18.48	0.3503	-0.0705	-0.4022	
-0.99918	0.109678	0.185562	-4.9	-48.44	17.08	0.3445	-0.06879999	-0.3975	
-0.973194	0.122732	0.199104	-14.35	-52.64	15.75	0.3449	-0.0691	-0.4126	
-0.961848	0.062342	0.252174	-7.56	-50.61	22.19	0.3407	-0.0738	-0.4156	
-0.956968	0.1159	0.266326	-7.42	-52.36	20.86	0.3252	-0.0691	-0.4211	
-0.959774	0.0915	0.314028	-9.73	-51.87	21.98	0.3165	-0.069	-0.4163	
-0.954284	0.097722	0.310002	-6.58	-52.71	18.9	0.3213	-0.0897	-0.4334	
-0.913414	0.128466	0.322324	-17.15	-54.46	17.71	0.3057	-0.0772	-0.4372	
-0.908046	0.131028	0.350872	-13.86	-55.44	15.96	0.2956	-0.0708	-0.4323	
-0.901214	0.119438	0.371124	-12.74	-54.25	13.79	0.3034	-0.0806	-0.4538	
-0.896456	0.110776	0.39284	-12.81	-53.76	14	0.2761	-0.0757	-0.4499	
-0.898896	0.111874	0.427854	-13.58	-53.41	12.88	0.2792	-0.0758	-0.456	
-0.889746	0.12993	0.430172	-11.27	-55.44	11.41	0.268	-0.0744	-0.4647	
-0.86742	0.138714	0.454694	-11.83	-55.09	10.78	0.2637	-0.0869	-0.4617	
-0.843386	0.14579	0.46726	-7.56	-56.63	12.46	0.2682	-0.0729	-0.4708	
-0.83143	0.143472	0.48861	-8.89	-56.98	13.23	0.2485	-0.0777	-0.4808	
-0.820084	0.146156	0.504958	-10.01	-57.82	13.79	0.2526	-0.0714	-0.4763	
-0.801784	0.152134	0.531676	-9.87	-58.31	13.51	0.2345	-0.0716	-0.4908	
-0.787388	0.15006	0.547292	-11.62	-57.33	14	0.2231	-0.0747	-0.4905	
-0.769454	0.177754	0.578768	-10.08	-57.54	14.07	0.2189	-0.0685	-0.4933	
-0.74969	0.176168	0.598776	-8.26	-56.42	14.35	0.2119	-0.081	-0.4963	
-0.728584	0.182634	0.629642	-10.36	-55.3	14.35	0.1994	-0.0781	-0.5095	
-0.707478	0.172142	0.648308	-9.1	-53.69	15.05	0.1879	-0.0733	-0.5075	
-0.688446	0.1647	0.66429	-10.22	-51.73	15.47	0.1851	-0.067	-0.5073	
-0.66551	0.172874	0.682956	-9.59	-49.49	14.7	0.1824	-0.0843	-0.5136	
-0.658556	0.177754	0.703818	-7.21	-46.34	13.44	0.1681	-0.0749	-0.513	
-0.653066	0.182268	0.729682	-7.91	-43.96	12.81	0.1653	-0.0765	-0.5129	
-0.636352	0.177388	0.741272	-5.46	-41.72	12.04	0.1594	-0.067	-0.508	
-0.61976	0.1769	0.748958	-3.29	-39.41	10.99	0.1481	-0.0654	-0.5122	
-0.599386	0.177266	0.75884	-3.85	-36.75	10.01	0.1454	-0.0687	-0.5182	
-0.588162	0.187636	0.776042	-4.2	-33.81	8.75	0.1289	-0.0674	-0.5373	
-0.579622	0.183	0.787266	-3.01	-31.22	7.49	0.1228	-0.0718	-0.5251	
-0.578646	0.16897	0.793122	-1.33	-28.63	6.93	0.1229	-0.0656	-0.528	
-0.58377	0.182756	0.79361	-0.91	-25.83	6.02	0.1098	-0.0717	-0.5201	
-0.582794	0.193736	0.79361	-1.4	-23.38	5.11	0.1128	-0.0734	-0.5263	
-0.590968	0.19337	0.795806	-2.59	-21.21	4.62	0.1114	-0.0609	-0.5276	
-0.584746	0.19154	0.790072	0.14	-20.44	4.9	0.1098	-0.078	-0.5187	
-0.577914	0.185684	0.77836	-0.21	-20.23	5.25	0.1111	-0.0733	-0.5172	
-0.572668	0.18666	0.772748	-1.82	-19.88	5.18	0.1071	-0.075	-0.5261	
-0.569496	0.212036	0.769088	-2.94	-19.74	4.48	0.1042	-0.0749	-0.5245	
-0.580964	0.206912	0.779092	-3.22	-19.11	4.62	0.0888	-0.0828	-0.5317	
-0.586088	0.192638	0.778482	-2.87	-18.76	5.39	0.0913	-0.0795	-0.5211	
-0.589748	0.189466	0.77165	-2.31	-18.06	5.25	0.0929	-0.0765	-0.5272	
-0.596458	0.178486	0.781776	-2.59	-16.45	4.55	0.08419999	-0.0717	-0.5238	
-0.600362	0.193126	0.783606	-3.22	-16.1	3.71	0.0845	-0.0672	-0.5328	
-0.593896	0.189222	0.78141	-5.04	-15.68	3.01	0.0697	-0.0544	-0.5186	
-0.582916	0.191296	0.784094	-4.62	-14.77	2.66	0.0815	-0.0671	-0.5297	
-0.580232	0.186782	0.791048	-4.2	-13.65	2.45	0.0773	-0.0656	-0.5326	
-0.579622	0.179462	0.798246	-2.31	-12.32	2.52	0.0759	-0.0625	-0.5325	
-0.575108	0.180072	0.801296	-2.87	-11.2	2.03	0.0728	-0.0702	-0.525	
-0.57035	0.17019	0.81069	-2.52	-10.15	1.82	0.0717	-0.064	-0.5339	
-0.55693	0.172142	0.807152	-1.82	-9.59	1.82	0.0647	-0.0641	-0.5397	
-0.546682	0.17873	0.805688	-1.89	-9.1	1.75	0.0645	-0.0656	-0.5322	
-0.537166	0.180682	0.80764	-0.91	-8.75	1.89	0.0629	-0.0717	-0.5262	
-0.532286	0.176168	0.816668	-1.19	-8.4	2.17	0.07	-0.0686	-0.5248	
-0.528382	0.17324	0.817888	-0.7	-8.19	2.38	0.0643	-0.0592	-0.5275	
-0.531432	0.173972	0.823256	-1.19	-7.63	2.45	0.063	-0.0561	-0.5305	
-0.524966	0.180072	0.822158	-0.42	-7.07	2.45	0.0558	-0.0592	-0.5303	
-0.528382	0.183488	0.823622	-0.21	-7.07	2.17	0.0573	-0.0655	-0.5304	
-0.5307	0.174826	0.825574	0	-7.14	2.17	0.0527	-0.0575	-0.5211	
-0.528504	0.174582	0.828258	0.14	-6.86	1.82	0.0561	-0.06879999	-0.5395	
-0.516426	0.190198	0.82411	0.77	-6.02	1.19	0.0531	-0.0671	-0.5349	
-0.512278	0.188734	0.828014	1.26	-5.04	0.84	0.0533	-0.0703	-0.5395	
-0.515084	0.185806	0.836188	1.75	-3.78	0.63	0.059	-0.0625	-0.5395	
-0.519598	0.196664	0.834724	0.7	-2.17	0.21	0.0398	-0.0575	-0.5207	
-0.516182	0.208132	0.834602	-0.49	-0.63	-0.14	0.0501	-0.067	-0.5302	
-0.513254	0.19886	0.841068	-0.14	0.7	-0.42	0.0504	-0.0641	-0.5393	
-0.508496	0.199104	0.84058	-0.42	2.24	-0.63	0.0461	-0.064	-0.5391	
-0.504714	0.201788	0.841068	-0.98	3.92	-0.98	0.0487	-0.067	-0.5287	
-0.500322	0.193004	0.844118	-0.98	5.67	-1.05	0.0472	-0.0639	-0.5271	
-0.499834	0.185074	0.845582	-0.42	7.35	-1.05	0.0572	-0.067	-0.5259	
-0.498492	0.19093	0.843264	-0.63	8.82	-1.26	0.0573	-0.0812	-0.5307	
-0.499712	0.186416	0.841678	0.42	10.5	-1.47	0.0573	-0.078	-0.5291	
-0.503738	0.187148	0.84302	0.35	12.04	-1.96	0.0575	-0.0812	-0.5352	
-0.509594	0.188002	0.8479	0.56	13.65	-2.24	0.0618	-0.0656	-0.5366	
-0.515816	0.189222	0.835822	1.12	14.98	-2.8	0.0588	-0.0671	-0.532	
-0.512644	0.192028	0.835334	0.77	16.94	-3.43	0.0601	-0.0592	-0.5304	
-0.517158	0.196542	0.83326	0.07	18.76	-4.27	0.07	-0.0639	-0.5263	
-0.517402	0.203862	0.831308	-0.35	20.51	-5.11	0.0686	-0.0655	-0.5278	
-0.519598	0.186416	0.832406	0.35	22.75	-5.74	0.0788	-0.0656	-0.5326	
-0.530334	0.187026	0.821304	0.28	26.81	-7.28	0.0788	-0.075	-0.5343	
-0.537166	0.193126	0.813862	-0.77	29.96	-8.05	0.0887	-0.0672	-0.5315	
-0.548146	0.191662	0.80703	-0.7	33.18	-8.96	0.083	-0.0656	-0.5297	
-0.555344	0.179096	0.803126	0.07	36.05	-9.17	0.096	-0.0672	-0.5347	
-0.565836	0.16958	0.793732	2.59	38.78	-9.87	0.0989	-0.061	-0.5378	
-0.57584	0.169458	0.77653	3.57	42.07	-10.43	0.1158	-0.0547	-0.5321	
-0.590602	0.168238	0.768112	3.99	45.64	-11.06	0.1129	-0.0578	-0.5291	
-0.603656	0.17019	0.756278	4.27	49	-11.55	0.1201	-0.0703	-0.5295	
-0.623908	0.181292	0.740052	3.08	52.92	-12.39	0.123	-0.0751	-0.5312	
-0.65148	0.168726	0.731756	4.13	56.07	-12.39	0.1314	-0.0625	-0.5282	
-0.660752	0.152134	0.702964	7.84	58.59	-12.32	0.1385	-0.0641	-0.5255	
-0.669658	0.149328	0.666242	9.94	59.64	-12.88	0.1553	-0.0655	-0.5154	
-0.679052	0.1403	0.637694	9.73	61.11	-13.72	0.178	-0.0639	-0.5086	
-0.70882	0.148474	0.636108	7.63	63.07	-14.28	0.1822	-0.0576	-0.5071	
-0.729194	0.153354	0.617198	7.42	64.4	-15.33	0.1864	-0.056	-0.5057	
-0.754326	0.143716	0.59292	9.66	65.31	-15.89	0.1946	-0.0606	-0.4939	
-0.770796	0.147742	0.580232	9.38	66.22	-16.45	0.223	-0.0559	-0.4887	
-0.790682	0.14152	0.559736	8.26	66.64	-16.52	0.2188	-0.0731	-0.4888	
-0.822158	0.141642	0.518256	7.63	67.69	-17.29	0.2258	-0.0636	-0.4844	
-0.828746	0.133346	0.48739	9.31	68.53	-17.29	0.2395	-0.0618	-0.4681	
-0.841312	0.14579	0.471652	9.17	68.67	-17.57	0.2525	-0.0604	-0.4731	
-0.859246	0.138592	0.453474	10.01	69.44	-17.22	0.2525	-0.0619	-0.4716	
-0.869006	0.13176	0.430782	8.96	69.65	-17.43	0.2667	-0.0635	-0.469	
-0.885598	0.128954	0.4209	8.12	69.44	-17.08	0.268	-0.0587	-0.4645	
-0.890234	0.117364	0.386984	8.19	67.97	-15.89	0.285	-0.0603	-0.462	
-0.902922	0.12688	0.362218	9.31	65.73	-15.96	0.299	-0.0602	-0.4519	
-0.920368	0.125416	0.346114	10.15	65.1	-14.77	0.3101	-0.0585	-0.4416	
-0.926224	0.124318	0.33001	10.29	65.38	-13.72	0.3068	-0.0629	-0.428	
-0.93513	0.106262	0.305244	12.88	63.56	-13.44	0.3167	-0.0629	-0.4237	
-0.952942	0.093452	0.313052	10.5	62.37	-13.02	0.3286	-0.0585	-0.4392	
-0.957944	0.080764	0.274012	12.39	60.97	-13.72	0.338	-0.0629	-0.4199	
-0.969412	0.087108	0.240096	11.34	60.06	-14.42	0.3423	-0.0551	-0.4199	
-0.966484	0.09699	0.231922	15.4	57.89	-13.16	0.3449	-0.0565	-0.4124	
-0.982588	0.092964	0.215208	17.64	56.91	-13.23	0.3645	-0.0595	-0.401	
-0.970632	0.10004	0.198616	13.86	56.49	-13.72	0.3586	-0.0578	-0.3947	
-0.984174	0.093208	0.184464	14.84	56.77	-13.86	0.37	-0.0485	-0.3935	
-1.002962	0.071614	0.146766	19.6	52.64	-15.19	0.3709	-0.0591	-0.3755	
-1.01504	0.080886	0.130784	13.3	52.92	-14.98	0.3806	-0.0559	-0.3652	
-1.009916	0.063928	0.106872	16.31	53.2	-14.7	0.3877	-0.0606	-0.3639	
-1.026142	0.063196	0.090646	17.57	50.12	-15.26	0.4016	-0.0589	-0.3538	
-1.028094	0.064782	0.074176	17.01	47.11	-16.38	0.4017	-0.0558	-0.3568	
-1.024068	0.055754	0.057096	14	44.38	-15.12	0.393	-0.0557	-0.3504	
-1.008208	0.035136	0.045262	17.36	42.77	-14.21	0.4086	-0.0572	-0.3479	
-1.038464	0.041358	0.038186	18.27	42.35	-14.21	0.4082	-0.0601	-0.3343	
-1.036756	0.039528	0.005002	16.73	40.04	-14.84	0.4037	-0.0538	-0.328	
-1.02114	0.037088	-0.024278	12.74	38.29	-13.09	0.4175	-0.0473	-0.3133	
-1.033096	0.022692	-0.02562	4.76	36.96	-11.97	0.4232	-0.052	-0.3135	
-1.030046	0.029646	-0.069296	12.46	34.86	-12.18	0.4131	-0.0456	-0.3086	
-1.028216	0.03477	-0.06344	7.07	34.23	-12.04	0.4289	-0.0504	-0.3106	
-1.036756	0.009272	-0.089914	5.88	32.69	-13.16	0.4342	-0.0471	-0.3002	
-1.041148	0.01586	-0.129442	14.7	32.34	-14.98	0.4299	-0.044	-0.2985	
-1.037122	-0.005368	-0.099918	-0.63	30.38	-12.74	0.4298	-0.0439	-0.2939	
-1.031022	-0.006222	-0.10797	6.86	29.26	-12.46	0.434	-0.0595	-0.2913	
-1.028948	-0.00854	-0.110532	6.86	28.91	-12.18	0.4367	-0.0391	-0.2865	
-1.026996	0.001952	-0.134322	8.33	23.1	-13.86	0.4305	-0.0388	-0.2712	
-1.01931	0.002684	-0.117364	0.42	17.15	-13.65	0.4373	-0.0371	-0.2608	
-1.027728	-0.000976	-0.12566	-1.4	15.75	-8.68	0.4374	-0.0294	-0.2652	
-1.03944	-0.00366	-0.127368	-1.26	11.83	-9.73	0.4443	-0.0277	-0.2578	
-1.027118	-0.001952	-0.102968	-6.3	10.71	-9.8	0.4432	-0.0372	-0.2655	
-1.045052	-0.010492	-0.133956	-6.09	9.03	-7.35	0.4476	-0.0404	-0.2687	
-1.035048	-0.020862	-0.142374	-3.43	4.41	-6.37	0.4491	-0.0201	-0.273	
-1.030778	-0.01891	-0.129808	-4.76	3.71	-6.65	0.4521	-0.0343	-0.2779	
-1.031388	-0.035014	-0.12993	4.69	2.38	-4.69	0.4488	-0.0278	-0.264	
-1.018822	-0.034892	-0.143228	13.93	1.54	-6.23	0.4533	-0.0279	-0.2717	
-1.011258	-0.043432	-0.13481	17.57	3.5	-4.34	0.4474	-0.0262	-0.264	
-1.008574	-0.023058	-0.14945	23.1	2.24	-7.91	0.4505	-0.0217	-0.2731	
-1.01016	-0.01952	-0.103334	8.68	3.57	-7.84	0.4528	-0.0339	-0.2552	
-1.003572	-0.022936	-0.092476	5.39	4.97	-6.23	0.4428	-0.0323	-0.2548	
-1.007842	-0.019642	-0.134566	13.65	4.83	-6.65	0.4475	-0.0326	-0.2686	
-1.015772	-0.005246	-0.092232	3.36	5.32	-7.42	0.4532	-0.031	-0.2657	
-1.006622	-0.008296	-0.069296	0.77	5.6	-6.37	0.457	-0.0183	-0.2536	
-1.014552	-0.022692	-0.08967	2.45	5.11	-4.2	0.4471	-0.023	-0.2548	
-1.012722	-0.015738	-0.084302	4.13	3.64	-4.76	0.4485	-0.0261	-0.2549	
-1.024678	-0.016226	-0.07259	-1.68	2.38	-4.48	0.4543	-0.0261	-0.2566	
-1.023824	-0.022326	-0.068442	-2.31	0.63	-3.78	0.447	-0.0229	-0.2518	
-1.03151	-0.022204	-0.076372	-0.28	-0.28	-4.27	0.4559	-0.0278	-0.2612	
-1.020286	-0.027328	-0.108214	10.08	0.07	-4.06	0.4499	-0.0182	-0.2533	
-1.018212	-0.029402	-0.096868	5.11	0.7	-3.5	0.4458	-0.023	-0.2578	
-1.016748	-0.02928	-0.09942999	3.85	0.84	-2.52	0.4486	-0.0246	-0.2579	
-1.000644	-0.044652	-0.111386	5.6	0.56	-2.94	0.4555	-0.0292	-0.2507	
-1.002962	-0.044042	-0.123952	6.3	1.61	-2.03	0.4542	-0.012	-0.2534	
-1.001254	-0.04819	-0.107482	6.58	1.75	-2.38	0.4559	-0.0247	-0.2627	
-0.999912	-0.04636	-0.122244	7.21	2.52	-2.87	0.4574	-0.0231	-0.2642	
-1.00345	-0.058194	-0.11529	8.4	3.64	-3.08	0.4487	-0.0199	-0.2609	
-1.006134	-0.052826	-0.121024	11.9	4.2	-3.64	0.4497	-0.0228	-0.2458	
-1.012844	-0.054778	-0.109068	12.46	4.13	-3.71	0.4529	-0.0293	-0.2581	
-1.009916	-0.045384	-0.116266	10.08	2.8	-4.41	0.4539	-0.0196	-0.2429	
-1.003572	-0.029524	-0.105774	9.52	2.38	-4.41	0.4497	-0.015	-0.2457	
-1.007842	-0.053802	-0.110288	11.76	3.01	-3.78	0.4454	-0.0181	-0.2456	
-1.010892	-0.07503	-0.11224	19.74	4.62	-2.59	0.4582	-0.0181	-0.2445	
-1.018334	-0.075396	-0.108092	21.84	4.55	-2.73	0.4555	-0.0213	-0.2505	
-1.01138	-0.062708	-0.112484	16.66	4.13	-3.08	0.4654	-0.026	-0.2464	
-1.011136	-0.054534	-0.109678	12.39	3.71	-2.66	0.4625	-0.0213	-0.2447	
-1.000156	-0.053924	-0.10553	13.44	3.29	-2.1	0.4555	-0.0338	-0.2492	
-0.995032	-0.05917	-0.114314	16.59	3.57	-2.03	0.4513	-0.0276	-0.2505	
-1.00589	-0.062464	-0.114314	12.95	3.57	-2.94	0.4638	-0.0244	-0.2418	
-1.01077	-0.055388	-0.10614	10.43	3.99	-3.22	0.4555	-0.0198	-0.249	
-0.998326	-0.068198	-0.101138	8.89	3.99	-2.8	0.4608	-0.0274	-0.2372	
-0.998204	-0.072834	-0.102602	9.52	4.69	-2.59	0.4495	-0.0274	-0.2398	
-0.997472	-0.074176	-0.130784	10.15	6.09	-3.5	0.4526	-0.0276	-0.249	
-1.002474	-0.067588	-0.121634	4.69	7.07	-3.71	0.4565	-0.0273	-0.234	
-0.987468	-0.061854	-0.133468	6.02	6.3	-4.62	0.4569	-0.0229	-0.2476	
-1.007476	-0.058438	-0.133956	7.42	5.81	-5.67	0.465	-0.0274	-0.2343	
-0.998814	-0.084058	-0.14335	8.4	6.86	-4.27	0.4594	-0.0274	-0.2356	
-1.017114	-0.078446	-0.1342	10.08	6.09	-4.62	0.4652	-0.0227	-0.2388	
-1.006744	-0.08967	-0.140056	8.96	5.18	-3.57	0.4578	-0.0242	-0.231	
-1.010282	-0.089426	-0.138104	7.49	4.62	-3.57	0.468	-0.0212	-0.2373	
-1.004792	-0.074298	-0.135542	5.74	3.15	-3.64	0.4652	-0.0243	-0.2403	
-1.000766	-0.085644	-0.156892	5.18	2.52	-2.8	0.4623	-0.0274	-0.2372	
-0.999302	-0.089182	-0.157624	4.9	3.57	-1.75	0.4662	-0.0272	-0.2252	
-0.999912	-0.089548	-0.15189	3.64	4.41	-1.26	0.4506	-0.0179	-0.2307	
-1.0126	-0.097722	-0.135542	3.08	4.13	0.42	0.4678	-0.0305	-0.2314	
-1.010404	-0.096746	-0.137738	4.27	2.38	0.14	0.4592	-0.0195	-0.231	
-1.006622	-0.093208	-0.142984	4.9	0.28	-0.07	0.4635	-0.021	-0.2296	
-1.004426	-0.094916	-0.14457	2.87	0.84	1.4	0.4564	-0.0289	-0.231	
-1.004304	-0.10309	-0.16043	4.62	1.26	2.31	0.4635	-0.0257	-0.2297	
-1.003938	-0.106384	-0.145424	5.74	1.54	2.59	0.4594	-0.0368	-0.2358	
-1.001498	-0.0976	-0.157136	6.37	0.77	0.98	0.4692	-0.0258	-0.2314	
-0.997228	-0.089914	-0.16531	2.8	0	0.56	0.4592	-0.0242	-0.231	
-0.990152	-0.077104	-0.166774	4.69	0.35	-0.21	0.4663	-0.0226	-0.2282	
-0.99735	-0.083692	-0.169824	3.64	0.98	0.35	0.4649	-0.0226	-0.2312	
-1.009916	-0.09272	-0.153964	4.41	1.19	0.77	0.4607	-0.0289	-0.2327	
-0.995886	-0.092232	-0.16348	4.55	0.49	0.42	0.462	-0.0257	-0.2281	
-1.001986	-0.088328	-0.16531	2.1	-0.07	0.49	0.4578	-0.032	-0.2311	
-1.012356	-0.074908	-0.159454	-0.98	-0.07	0.56	0.4564	-0.0351	-0.2311	
-0.997594	-0.086986	-0.157624	0.63	0.56	2.17	0.4619	-0.0303	-0.2236	
-0.998448	-0.08686399	-0.146644	-2.31	-0.14	2.1	0.462	-0.0241	-0.2281	
-1.00101	-0.094184	-0.150304	-3.29	-1.12	1.19	0.4619	-0.0288	-0.2236	
-1.008818	-0.079788	-0.152134	-2.8	-1.96	0.98	0.4677	-0.021	-0.2282	
-1.001254	-0.08174	-0.147986	-3.64	-1.96	2.1	0.4645	-0.0224	-0.2175	
-1.008818	-0.086132	-0.147254	-1.19	-2.24	2.73	0.4709	-0.0228	-0.2405	
-1.008574	-0.076616	-0.137006	-1.61	-3.36	3.5	0.4649	-0.0289	-0.2313	
-1.008208	-0.065148	-0.130662	-4.9	-5.67	3.99	0.4675	-0.0335	-0.2224	
-1.02297	-0.047214	-0.132126	-3.92	-7.84	5.81	0.4663	-0.0336	-0.2299	
-1.022482	-0.06405	-0.125782	-4.41	-10.08	7.28	0.4663	-0.0257	-0.2298	
-1.023214	-0.057462	-0.10309	-7.42	-12.32	8.4	0.4679	-0.0289	-0.2329	
-1.023824	-0.063928	-0.110288	-12.11	-14	9.59	0.4566	-0.0274	-0.2386	
-1.030778	-0.05612	-0.090036	-12.32	-14.42	9.24	0.4577	-0.0335	-0.2281	
-1.017968	-0.05063	-0.096868	-9.8	-16.03	8.82	0.458	-0.0274	-0.2386	
-1.025044	-0.024156	-0.113704	-13.58	-16.38	8.26	0.4608	-0.0227	-0.2371	
-1.019188	-0.03477	-0.110776	-22.75	-16.59	10.15	0.46	-0.0387	-0.257	
-1.02602	-0.054168	-0.089426	-31.15	-17.29	12.67	0.4497	-0.0306	-0.2459	
-1.019676	-0.042822	-0.09028	-30.31	-20.44	13.51	0.4599	-0.0339	-0.2539	
-1.03273	-0.055266	-0.06954	-34.09	-22.47	16.94	0.4571	-0.0292	-0.2552	
-1.04249	-0.043188	-0.057828	-35.28	-26.95	17.64	0.4432	-0.0341	-0.2655	
-1.056398	-0.011834	-0.062342	-31.36	-32.69	15.89	0.4419	-0.0404	-0.2701	
-1.014308	0.008662	-0.071492	-39.2	-40.18	10.71	0.4378	-0.0295	-0.2758	
-1.02602	0.00183	-0.041968	-47.88	-38.99	15.54	0.4349	-0.0389	-0.2759	
-1.022116	-0.048922	-0.042456	-36.05	-37.73	19.46	0.438	-0.0422	-0.2821	
-1.011868	-0.049776	-0.083326	-5.6	-38.29	20.65	0.4382	-0.0376	-0.2911	
-1.02236	-0.046482	-0.044164	-2.24	-39.41	19.11	0.4312	-0.0377	-0.2954	
-1.01748	0.009272	-0.018178	-9.66	-37.38	12.81	0.4296	-0.0423	-0.2894	
-1.025044	0.01708	0.057828	-18.34	-34.79	11.48	0.4242	-0.0455	-0.2983	
-0.99979	0.01952	0.020496	-10.15	-34.93	11.76	0.4256	-0.0408	-0.2983	
-0.989054	-0.001708	-0.015616	-13.16	-34.23	15.75	0.4204	-0.0458	-0.3148	
-0.994544	0.036722	-0.006222	-16.8	-29.33	12.46	0.4148	-0.0442	-0.3177	
-1.022848	0.028548	0.025376	-8.4	-23.45	17.29	0.4194	-0.0507	-0.3285	
-1.009184	-0.016836	0.07686	0.49	-25.2	17.08	0.4126	-0.0367	-0.3387	
-1.015772	0.018178	0.08295999	1.54	-25.06	13.72	0.4153	-0.0523	-0.3329	
-1.01504	0.127002	0.039406	-12.18	-28.28	5.32	0.404	-0.0586	-0.3387	
-1.007598	0.093452	0.06283	-32.06	-29.05	5.46	0.407	-0.0446	-0.3416	
-1.023946	0.017446	0.094794	-18.9	-27.16	13.72	0.4001	-0.0541	-0.3491	
-1.004304	-0.01708	0.090158	14.07	-29.61	22.68	0.3956	-0.0524	-0.3429	
-1.024434	0.029402	0.050996	12.6	-27.37	17.85	0.3958	-0.051	-0.3504	
-1.051152	0.09089	0.075518	5.04	-28.07	10.36	0.3987	-0.0557	-0.3506	
-1.019798	0.09089	0.091866	-0.91	-31.01	5.32	0.3947	-0.0558	-0.3611	
-1.036512	0.089426	0.116388	1.68	-32.13	9.03	0.3863	-0.0606	-0.3669	
-1.000644	0.053192	0.141398	1.19	-30.45	16.45	0.389	-0.0636	-0.3595	
-0.994788	0.074908	0.128344	3.29	-31.22	15.19	0.3794	-0.0685	-0.3714	
-0.954284	0.120902	0.094184	-14.98	-37.52	12.81	0.3737	-0.0669	-0.3742	
-1.014186	0.114558	0.138104	-22.82	-33.46	7.98	0.368	-0.0748	-0.3741	
-1.016748	0.076372	0.180438	-10.08	-34.58	18.48	0.364	-0.0655	-0.3814	
-1.010892	0.05307	0.191784	2.8	-27.79	21.21	0.3599	-0.0703	-0.3874	
-1.001132	0.072102	0.171532	-1.12	-29.82	16.52	0.3631	-0.0642	-0.401	
-1.001132	0.089304	0.184586	-11.83	-31.99	14.63	0.3645	-0.0658	-0.3996	
-0.993812	0.129198	0.172142	-16.45	-35.21	11.69	0.3572	-0.0797	-0.3935	
-0.999302	0.14762	0.18971	-21.42	-37.8	10.36	0.3447	-0.0705	-0.4036	
-0.97234	0.102114	0.224846	-15.05	-39.13	13.3	0.3434	-0.0768	-0.4097	
-0.97356	0.098942	0.256932	-9.45	-38.99	13.44	0.3407	-0.0753	-0.4141	
-0.991738	0.097966	0.274744	-8.26	-38.78	13.09	0.3379	-0.0753	-0.4155	
-0.951844	0.120902	0.268766	-9.1	-41.86	11.34	0.3353	-0.0755	-0.423	
-0.945256	0.116754	0.296704	-10.57	-41.79	13.72	0.3182	-0.0661	-0.4269	
-0.942938	0.120536	0.325618	-7.21	-41.79	13.58	0.3126	-0.0677	-0.4282	
-0.945744	0.097112	0.342698	-3.22	-41.16	17.08	0.3142	-0.0756	-0.436	
-0.932812	0.124806	0.338428	-5.6	-42.28	19.11	0.3086	-0.0741	-0.4373	
-0.903898	0.13115	0.355386	-7.42	-44.24	18.27	0.3073	-0.0788	-0.4434	
-0.907192	0.179706	0.381494	-11.55	-44.45	18.27	0.3001	-0.0803	-0.4386	
-0.903654	0.125416	0.414068	-6.37	-44.38	15.05	0.296	-0.0804	-0.4476	
-0.893894	0.139568	0.423584	-9.45	-44.38	12.53	0.2835	-0.0743	-0.4592	
-0.874252	0.151036	0.42822	-10.29	-44.45	10.57	0.2923	-0.0791	-0.4641	
-0.867908	0.153476	0.444934	-13.3	-42	7.98	0.2694	-0.0759	-0.4633	
-0.862784	0.148596	0.469944	-7.84	-44.94	9.87	0.275	-0.0806	-0.459	
-0.834358	0.1342	0.487146	-6.23	-45.36	11.97	0.2582	-0.07759999	-0.472	
-0.824476	0.145912	0.499468	-5.88	-46.34	12.53	0.261	-0.0729	-0.4705	
-0.831186	0.161528	0.503372	-9.03	-44.66	11.41	0.2516	-0.0794	-0.487	
-0.82472	0.160186	0.513376	-5.74	-45.43	12.46	0.2458	-0.0778	-0.4868	
-0.81313	0.184098	0.530456	-9.24	-45.08	12.67	0.2389	-0.0826	-0.4927	
-0.80337	0.163724	0.55449	-8.89	-43.68	13.02	0.2344	-0.084	-0.4865	
-0.799344	0.152744	0.571448	-8.61	-44.03	13.09	0.2331	-0.0872	-0.488	
-0.767014	0.163236	0.591456	-8.75	-43.54	12.11	0.2164	-0.0764	-0.5039	
-0.75274	0.164822	0.59292	-7.21	-42.77	11.69	0.206	-0.0872	-0.4917	
-0.744688	0.177632	0.613782	-7.77	-41.37	10.92	0.2078	-0.0795	-0.5022	
-0.749202	0.162992	0.620736	-2.73	-39.76	10.36	0.1952	-0.0796	-0.5109	
-0.73932	0.1769	0.641232	-2.38	-38.15	9.17	0.1881	-0.0859	-0.5123	
-0.722606	0.202642	0.650016	-2.66	-36.61	8.05	0.1967	-0.0844	-0.514	
-0.713944	0.203618	0.666242	-3.71	-34.51	7.42	0.1637	-0.0858	-0.5069	
-0.702598	0.192272	0.676246	-3.15	-31.92	7.21	0.1713	-0.07979999	-0.5222	
-0.698206	0.18727	0.682956	-2.59	-29.4	6.93	0.1712	-0.0844	-0.5193	
-0.689666	0.193126	0.693082	-2.66	-27.16	6.51	0.1681	-0.067	-0.5113	
-0.675758	0.201544	0.700646	-2.52	-25.55	5.81	0.1567	-0.0686	-0.5125	
-0.666608	0.203008	0.707112	-2.87	-24.01	5.53	0.154	-0.0875	-0.5172	
-0.660508	0.209718	0.713822	-3.92	-22.33	5.18	0.1538	-0.0749	-0.5125	
-0.655872	0.204472	0.72285	-4.13	-21.21	5.25	0.1496	-0.0889	-0.5126	
-0.651846	0.202764	0.727852	-4.06	-20.02	5.11	0.1424	-0.0795	-0.5107	
-0.647332	0.20496	0.73566	-5.11	-19.32	4.83	0.1454	-0.0796	-0.5153	
-0.637694	0.202276	0.73261	-5.53	-18.76	4.62	0.1385	-0.0844	-0.5243	
-0.630618	0.196298	0.733952	-5.25	-17.99	4.34	0.1371	-0.0781	-0.5241	
-0.629032	0.182634	0.739076	-4.34	-16.59	3.92	0.1353	-0.0764	-0.5134	
-0.63074	0.197152	0.74542	-4.62	-15.47	3.43	0.1351	-0.0638	-0.5087	
-0.640256	0.186538	0.747494	-2.8	-14	3.22	0.1198	-0.078	-0.5205	
-0.640866	0.185318	0.74664	-2.03	-12.53	2.87	0.1239	-0.0748	-0.5146	
-0.64416	0.18422	0.751154	-2.17	-11.13	2.17	0.117	-0.0765	-0.5219	
-0.634644	0.178608	0.748958	-1.89	-9.73	1.68	0.1211	-0.0733	-0.516	
-0.627324	0.18178	0.749934	-2.1	-8.19	0.84	0.1198	-0.0717	-0.5189	
-0.627812	0.18239	0.75396	-1.82	-6.79	0.07	0.1197	-0.0686	-0.5158	
-0.6283	0.191906	0.748226	-2.31	-5.6	-0.21	0.1197	-0.0686	-0.5174	
-0.63196	0.191418	0.742736	-2.38	-4.76	-0.77	0.1185	-0.0765	-0.5235	
-0.633668	0.180804	0.74481	-1.96	-3.71	-1.26	0.1183	-0.0733	-0.5174	
-0.633424	0.182146	0.74786	-1.89	-3.01	-1.54	0.1227	-0.0671	-0.5205	
-0.63989	0.180804	0.74664	-1.12	-2.24	-1.12	0.1114	-0.0656	-0.5276	
-0.637938	0.183854	0.743102	-1.33	-1.75	-0.56	0.1145	-0.07669999	-0.534	
-0.635254	0.18361	0.735904	-1.4	-1.19	-0.7	0.1072	-0.0812	-0.5277	
-0.638792	0.179096	0.736148	-0.7	-0.91	-0.35	0.1115	-0.075	-0.5278	
-0.64172	0.18666	0.733708	-0.7	-0.7	0	0.1142	-0.0671	-0.5247	
-0.644892	0.186904	0.732244	-0.7	-0.77	-0.07	0.1044	-0.0641	-0.5319	
-0.654286	0.1769	0.734074	-0.63	-1.05	-0.42	0.1241	-0.0639	-0.5205	
-0.654164	0.188124	0.733586	-1.68	-1.19	-0.77	0.12	-0.0625	-0.5263	
-0.647576	0.186172	0.731634	-1.61	-1.12	-0.84	0.123	-0.0813	-0.5298	
-0.646234	0.177266	0.737124	-1.33	-0.98	-1.05	0.1243	-0.075	-0.5282	
-0.647942	0.16775	0.740784	-0.77	-0.77	-1.4	0.1229	-0.0813	-0.5282	
-0.650626	0.172508	0.742858	-0.63	-0.77	-1.75	0.103	-0.0844	-0.5307	
-0.648674	0.175924	0.738222	0.28	-0.56	-1.68	0.1142	-0.0781	-0.5234	
-0.63867	0.167994	0.740296	0	0.07	-1.89	0.1171	-0.0672	-0.5263	
-0.63562	0.17751	0.746762	-0.07	0.63	-2.1	0.1099	-0.0702	-0.5246	
-0.640744	0.178486	0.748592	0.56	0.98	-1.89	0.1155	-0.0764	-0.5189	
-0.635498	0.17873	0.751032	0.07	1.47	-1.96	0.1139	-0.0685	-0.5157	
-0.635132	0.169336	0.74969	0.49	2.1	-1.96	0.1158	-0.0656	-0.5293	
-0.627202	0.171288	0.749812	0.7	2.66	-1.75	0.1171	-0.0671	-0.5248	
-0.62952	0.173362	0.752374	1.33	3.64	-1.54	0.1156	-0.0749	-0.5219	
-0.625006	0.17324	0.752008	1.61	4.9	-1.47	0.1214	-0.0609	-0.5264	
-0.627934	0.184952	0.758352	1.47	6.44	-1.61	0.1184	-0.0718	-0.5219	
-0.62647	0.184098	0.756278	1.54	8.33	-1.75	0.117	-0.0718	-0.5219	
-0.626714	0.183122	0.753838	-0.91	10.99	-2.59	0.1201	-0.0797	-0.5281	
-0.62281	0.187758	0.752862	-1.68	14.28	-4.2	0.1199	-0.0624	-0.5248	
-0.623054	0.174338	0.755424	-0.84	16.59	-4.83	0.13	-0.0781	-0.5254	
-0.624884	0.170068	0.754936	-2.03	20.37	-5.6	0.1356	-0.0703	-0.5224	
-0.63013	0.172752	0.75823	-0.63	23.87	-6.44	0.1302	-0.0751	-0.5344	
-0.633424	0.163602	0.749324	0.07	26.88	-7.14	0.1315	-0.0704	-0.5284	
-0.635864	0.159576	0.739076	0.63	30.03	-7.7	0.14	-0.0641	-0.527	
-0.633546	0.16775	0.729316	0.7	33.32	-9.1	0.1482	-0.0655	-0.5152	
-0.645868	0.177266	0.72102	1.05	37.1	-10.01	0.1569	-0.0562	-0.5214	
-0.66307	0.167628	0.717604	1.33	40.46	-10.43	0.1524	-0.0592	-0.5122	
-0.680028	0.15921	0.704916	2.17	43.33	-10.57	0.1682	-0.0671	-0.5174	
-0.695644	0.152622	0.688568	2.87	45.29	-10.92	0.174	-0.0656	-0.5191	
-0.704428	0.149206	0.668316	1.82	47.67	-11.34	0.178	-0.0702	-0.5102	
-0.707112	0.149816	0.64843	2.87	50.33	-11.41	0.1878	-0.0592	-0.5043	
-0.727486	0.156282	0.63806	5.39	52.22	-11.83	0.1993	-0.0686	-0.5048	
-0.745298	0.149694	0.617076	5.18	53.41	-12.32	0.2049	-0.07009999	-0.502	
-0.77226	0.146034	0.598288	5.25	54.39	-12.88	0.2088	-0.059	-0.4913	
-0.781166	0.138836	0.585478	4.76	55.72	-14	0.2175	-0.0638	-0.4962	
-0.789218	0.147986	0.552294	4.27	57.26	-14.7	0.2289	-0.0685	-0.4936	
-0.814838	0.13969	0.529358	8.54	57.82	-14.21	0.2303	-0.0591	-0.495	
-0.83143	0.132126	0.513132	8.82	58.17	-13.79	0.2358	-0.0653	-0.4862	
-0.843996	0.129198	0.480924	8.33	57.75	-14.28	0.2571	-0.0652	-0.4824	
-0.861564	0.129808	0.470188	8.82	58.45	-13.51	0.26	-0.0606	-0.4854	
-0.87291	0.117364	0.450424	9.24	57.4	-13.23	0.2655	-0.0605	-0.478	
-0.888282	0.109434	0.43493	10.85	56.84	-13.02	0.2752	-0.0588	-0.4677	
-0.897188	0.115656	0.415532	8.82	56.84	-12.11	0.2777	-0.0602	-0.4572	
-0.90646	0.12322	0.4026	7.84	56.07	-11.62	0.2881	-0.0557	-0.4681	
-0.907924	0.110166	0.379298	5.88	55.16	-10.71	0.2949	-0.0634	-0.4578	
-0.917074	0.117974	0.359778	8.61	54.32	-11.34	0.3017	-0.0601	-0.4474	
-0.922198	0.12444	0.3477	7.98	53.9	-10.92	0.3128	-0.0537	-0.4356	
-0.94306	0.102846	0.341966	11.41	53.55	-10.43	0.3185	-0.0553	-0.4358	
-0.948184	0.089548	0.320738	12.46	51.31	-10.78	0.3253	-0.0551	-0.4239	
-0.958066	0.091866	0.301096	12.25	50.26	-10.78	0.3365	-0.06439999	-0.4168	
-0.95526	0.113338	0.290238	10.64	48.72	-12.46	0.3449	-0.0597	-0.4125	
-0.964898	0.116144	0.268644	10.64	48.37	-10.92	0.3422	-0.0597	-0.4169	
-0.959408	0.10004	0.259982	12.18	47.6	-11.13	0.3491	-0.0674	-0.4082	
-0.970998	0.08418	0.230336	14.21	45.5	-10.71	0.3444	-0.0563	-0.3958	
-0.972462	0.077348	0.202276	13.02	45.08	-11.13	0.3542	-0.0593	-0.3901	
-0.990518	0.081496	0.182268	13.72	43.89	-11.13	0.3572	-0.0563	-0.3962	
-1.000766	0.098942	0.160552	13.86	43.26	-11.62	0.3685	-0.064	-0.3891	
-1.010648	0.095892	0.149938	11.76	43.68	-11.27	0.3794	-0.0497	-0.3726	
-1.005646	0.072346	0.137616	14.35	42.63	-11.34	0.3722	-0.045	-0.3723	
-1.01626	0.065026	0.122976	15.75	41.79	-10.43	0.3906	-0.0575	-0.3655	
-1.014308	0.073078	0.104432	14	39.41	-10.22	0.3834	-0.0543	-0.3637	
-1.01443	0.066368	0.083082	11.27	38.36	-9.59	0.3902	-0.0573	-0.3534	
-1.022116	0.07564	0.077104	11.62	35.91	-10.92	0.3961	-0.0605	-0.3582	
-1.011624	0.070028	0.068808	10.29	35.7	-10.43	0.4018	-0.0574	-0.3598	
-1.016992	0.06893	0.059048	8.82	34.37	-10.78	0.3957	-0.0556	-0.3475	
-0.998692	0.059536	0.038674	9.1	33.74	-9.94	0.403	-0.0588	-0.3523	
-1.023458	0.041602	0.035136	12.67	33.81	-9.52	0.4155	-0.0634	-0.3392	
-1.032852	0.033428	0.010736	8.68	33.39	-11.48	0.4083	-0.0665	-0.3375	
-1.03517	0.027694	0.014884	7.49	32.2	-11.06	0.418	-0.0601	-0.3286	
-1.02907	0.041236	-0.005978	4.13	29.89	-11.76	0.425	-0.0459	-0.3241	
-1.029802	0.052338	-0.000122	4.2	29.33	-11.27	0.4204	-0.0583	-0.3135	
-1.031022	0.03843	-0.007686	4.76	27.86	-11.2	0.4248	-0.0552	-0.3166	
-1.022848	0.008662	-0.035624	5.74	26.74	-10.01	0.4316	-0.0504	-0.3062	
-1.021994	0.010248	-0.044164	7.07	25.55	-9.31	0.4245	-0.0504	-0.3075	
-1.016504	0.014274	-0.053558	5.39	23.87	-10.01	0.4343	-0.0487	-0.3017	
-1.0309	0.018544	-0.063318	9.8	23.24	-10.15	0.4258	-0.0425	-0.3059	
-1.026508	0.001952	-0.083692	1.26	22.33	-9.45	0.4357	-0.0456	-0.3002	
-1.032852	0.016836	-0.085644	-1.82	21	-8.33	0.4239	-0.0516	-0.2878	
-1.02663	0.01952	-0.108214	-1.19	18.69	-7.42	0.4237	-0.0374	-0.2815	
-1.020896	0.022448	-0.07259	-5.04	17.64	-8.89	0.4363	-0.0342	-0.2743	
-1.021628	0.005368	-0.07124799	-5.39	17.64	-7.28	0.4405	-0.0389	-0.2715	
-1.03151	0.012566	-0.121024	6.93	17.99	-5.74	0.4435	-0.0405	-0.2746	
-1.029924	-0.027206	-0.07625	0.91	9.24	-4.06	0.438	-0.0437	-0.2821	
-1.012234	0.017324	-0.102236	13.09	5.46	-4.9	0.4409	-0.0391	-0.2851	
-1.010282	0.014884	-0.082838	1.33	9.45	-7.21	0.4351	-0.039	-0.2819	
-1.023946	0.013054	-0.117242	2.8	9.66	-6.65	0.445	-0.0327	-0.2791	
-1.021628	-0.009028	-0.086742	3.85	10.71	-3.57	0.4446	-0.0372	-0.2671	
-1.022482	0.002562	-0.07515199	9.87	8.26	-4.2	0.4506	-0.0468	-0.275	
-1.027362	0.006588	-0.08686399	8.12	7.91	-4.06	0.4462	-0.0342	-0.2701	
-1.01199	0.014396	-0.076006	3.5	6.51	-4.9	0.4418	-0.0294	-0.2669	
-1.016138	0.007442	-0.069906	-0.63	5.46	-4.13	0.4476	-0.0295	-0.2716	
-1.018578	0.016348	-0.087474	3.22	6.02	-5.81	0.4459	-0.0246	-0.2609	
-1.023458	-0.005124	-0.08295999	11.97	5.25	-4.9	0.4428	-0.0355	-0.2549	
-1.007476	0.0061	-0.106018	17.22	5.25	-5.53	0.4415	-0.0277	-0.2593	
-1.01016	0.006832	-0.09162199	9.8	5.95	-5.67	0.4462	-0.0357	-0.2701	
-1.012234	-0.005978	-0.08686399	11.9	7.14	-6.37	0.4546	-0.0247	-0.2672	
-1.013088	-0.009393999	-0.113948	15.89	6.79	-5.81	0.4586	-0.0387	-0.2569	
-1.01321	-0.008296	-0.133834	13.79	7.56	-5.67	0.4502	-0.0325	-0.2611	
-1.020164	-0.01891	-0.09516	11.55	9.52	-2.94	0.443	-0.034	-0.2594	
-1.009794	-0.018422	-0.08662	10.78	8.96	-3.22	0.4441	-0.0323	-0.2503	
-1.01077	-0.010736	-0.087718	9.24	8.19	-3.85	0.4485	-0.0308	-0.255	
-1.022726	-0.007808	-0.082716	4.2	6.72	-3.15	0.4471	-0.0417	-0.2536	
-1.018212	0.004514	-0.081984	-0.14	3.99	-2.45	0.4528	-0.0308	-0.2536	
-1.027972	0.00061	-0.08479	-3.57	1.4	-1.12	0.4454	-0.0322	-0.2443	
-1.01321	-0.011346	-0.09638	-2.24	-0.28	0.56	0.4583	-0.0291	-0.2477	
-1.024678	-0.013664	-0.099064	-1.75	-0.77	0.84	0.4613	-0.0308	-0.2509	
-1.021262	-0.025376	-0.116144	4.2	-0.35	-0.07	0.4501	-0.0308	-0.2581	
-1.014186	-0.01647	-0.101382	3.92	-1.19	-0.84	0.4529	-0.0355	-0.2567	
-1.006134	-0.027694	-0.132492	12.88	0.49	-0.98	0.4503	-0.0388	-0.2642	
-1.000644	-0.023546	-0.137982	12.18	2.45	-0.07	0.4574	-0.0294	-0.2643	
-0.99979	-0.036844	-0.131516	15.05	3.36	-0.91	0.4516	-0.0309	-0.2627	
-0.999546	-0.037454	-0.135664	14.42	3.36	-2.8	0.4557	-0.0402	-0.2539	
-1.001742	-0.02928	-0.139568	10.78	3.99	-3.57	0.4643	-0.0308	-0.2555	
-1.007354	-0.030988	-0.12688	6.16	2.52	-4.83	0.4599	-0.0386	-0.2509	
-1.010038	-0.035746	-0.14152	8.96	3.36	-5.11	0.4598	-0.0307	-0.2493	
-1.020652	-0.033672	-0.125416	7	3.36	-5.11	0.4496	-0.029	-0.2414	
-1.01199	-0.029036	-0.116754	8.33	3.22	-4.2	0.4554	-0.0213	-0.2475	
-1.013576	-0.030622	-0.112728	3.78	2.03	-3.92	0.4613	-0.0402	-0.251	
-1.010648	-0.028304	-0.110898	3.78	1.05	-3.43	0.4587	-0.0294	-0.2613	
-1.014552	-0.025864	-0.1037	0.56	0.07	-2.38	0.451	-0.0353	-0.24	
-1.008818	-0.028792	-0.11285	-1.75	-0.42	-1.54	0.457	-0.0354	-0.2508	
-1.003572	-0.028548	-0.116876	0.84	-0.42	-1.12	0.4594	-0.0383	-0.2358	
-1.004182	-0.028914	-0.122244	3.15	-0.28	-1.19	0.4528	-0.0277	-0.2551	
-1.005402	-0.035624	-0.125904	2.45	0.28	-1.47	0.4486	-0.0371	-0.2551	
-1.000644	-0.033184	-0.123708	-0.42	0.7	-1.82	0.4612	-0.026	-0.2478	
-1.020042	-0.036966	-0.107726	-1.12	1.05	-1.61	0.46	-0.034	-0.2554	
-1.011136	-0.042456	-0.10797	-0.77	0.07	-0.84	0.4441	-0.0369	-0.2489	
-1.010892	-0.043188	-0.111386	-3.92	0	-0.98	0.4512	-0.0322	-0.2475	
-1.007598	-0.045384	-0.114558	-2.03	-0.21	-1.12	0.4555	-0.0229	-0.2506	
-1.01016	-0.044896	-0.11651	1.26	-1.89	-1.75	0.4467	-0.0352	-0.2399	
-1.015528	-0.035624	-0.10858	-1.19	-3.01	-1.82	0.4565	-0.0352	-0.2341	
-1.016748	-0.032574	-0.098942	-5.25	-3.29	-0.49	0.4467	-0.0227	-0.2412	
-1.011258	-0.033428	-0.106872	-8.05	-2.38	0.14	0.4509	-0.029	-0.2399	
-1.022482	-0.029402	-0.0915	-14.28	-3.01	0.63	0.4551	-0.0274	-0.2355	
-1.019188	-0.023302	-0.09821	-16.94	-6.37	2.24	0.4467	-0.0134	-0.2441	
-1.006134	-0.030988	-0.099186	-18.34	-7.14	4.13	0.4625	-0.0276	-0.2463	
-1.006378	-0.040138	-0.102602	-15.75	-4.83	3.99	0.4572	-0.023	-0.2582	
-0.997594	-0.049166	-0.107726	-14.14	-3.57	3.64	0.4512	-0.0307	-0.249	
-1.012234	-0.036966	-0.113948	-13.44	-3.15	3.01	0.4502	-0.0262	-0.2625	
-1.010648	-0.051118	-0.094062	-18.34	-4.13	2.73	0.4485	-0.0214	-0.2533	
-0.999668	-0.048556	-0.110776	-14.49	-5.04	1.82	0.4527	-0.0307	-0.2506	
-1.000156	-0.035746	-0.102114	-12.04	-4.06	1.61	0.4516	-0.0231	-0.261	
-0.982954	-0.020984	-0.110898	-13.72	-3.01	1.4	0.4483	-0.0088	-0.2501	
-0.996496	-0.015006	-0.094794	-17.5	-0.91	-0.14	0.4514	-0.0199	-0.2564	
-1.019432	-0.010248	-0.063928	-14.14	1.82	-0.84	0.4527	-0.0167	-0.2534	
-1.035902	-0.012932	-0.020496	-9.1	-0.28	2.24	0.4458	-0.0183	-0.2608	
-1.028826	-0.01342	-0.04758	-10.36	-4.2	5.18	0.4599	-0.0261	-0.2538	
-1.043588	-0.007808	-0.060268	-15.82	-7.35	7.28	0.45	-0.0245	-0.2549	
-1.026752	-0.0122	-0.100284	-16.87	-9.24	6.93	0.4447	-0.0248	-0.2714	
-1.03456	0.004514	-0.128222	-18.9	-11.55	6.51	0.4486	-0.023	-0.2579	
-1.030534	-0.003172	-0.081862	-23.17	-12.04	7.42	0.4472	-0.023	-0.2579	
-1.028582	-0.0122	-0.115168	-15.33	-14.49	9.31	0.4515	-0.0136	-0.2594	
-1.01016	-0.030866	-0.106018	-12.67	-15.54	12.18	0.4487	-0.0199	-0.2609	
-1.017968	-0.02562	-0.142862	-9.45	-16.38	11.41	0.439	-0.0294	-0.2698	
-1.009794	-0.030988	-0.150426	-13.16	-15.47	9.38	0.4446	-0.0232	-0.2684	
-1.029924	-0.008174	-0.10553	-8.82	-12.95	8.26	0.4366	-0.0266	-0.2863	
-1.020164	0.015006	-0.10736	-4.83	-14.14	8.54	0.4349	-0.028	-0.2757	
-1.023092	-0.001464	-0.096746	-4.13	-16.73	8.47	0.4336	-0.0296	-0.2787	
-1.010038	-0.006344	-0.126514	-0.42	-20.65	8.61	0.441	-0.0313	-0.2896	
-1.019432	-0.004636	-0.147254	2.73	-19.32	7.77	0.4338	-0.0313	-0.2863	
-1.004182	-0.008296	-0.139812	1.68	-17.08	8.68	0.4312	-0.0345	-0.2953	
-1.048102	-0.00244	-0.120292	14.42	-12.46	9.31	0.4355	-0.0423	-0.2941	
-1.033828	0.03477	-0.10736	13.23	-16.17	11.76	0.4329	-0.0425	-0.3031	
-0.995154	0.017202	-0.063562	4.2	-15.26	16.52	0.4341	-0.0361	-0.2955	
-0.978928	0.007198	-0.073322	-2.52	-14.28	13.51	0.4374	-0.0489	-0.3094	
-0.997472	0.00854	-0.094794	-2.17	-9.52	10.57	0.4356	-0.0502	-0.2988	
-1.026752	0.00976	-0.08662	-3.92	-8.82	11.13	0.4286	-0.0487	-0.303	
-1.036268	0.006466	-0.052216	-5.6	-8.68	12.18	0.427	-0.0424	-0.2984	
-1.035902	0.011834	-0.030012	4.27	-9.45	12.88	0.4202	-0.0488	-0.3088	
-1.03761	0.031232	-0.031598	8.61	-10.01	11.76	0.4216	-0.0535	-0.3074	
-1.026508	0.043798	-0.003294	5.74	-10.78	8.54	0.4204	-0.052	-0.3134	
-1.004304	0.070882	0.007686	7.63	-11.55	6.58	0.4303	-0.0598	-0.3108	
-0.98088	0.076738	0.020984	5.74	-12.32	5.46	0.419	-0.0598	-0.3135	
-0.973194	0.084302	0.017812	5.88	-11.83	4.76	0.4248	-0.0568	-0.3167	
-0.989298	0.085644	0.028304	7.7	-10.57	5.39	0.4274	-0.0582	-0.3077	
-1.000766	0.09357399	0.033306	6.65	-9.59	5.39	0.4232	-0.0567	-0.3106	
-1.01687	0.09211	0.044652	5.53	-8.96	5.46	0.4259	-0.0551	-0.3076	
-1.016748	0.096868	0.046604	5.32	-8.82	5.11	0.4087	-0.0534	-0.3055	
-1.006012	0.094428	0.048068	1.68	-8.68	5.11	0.4219	-0.0521	-0.3165	
-1.000766	0.106994	0.047336	1.61	-9.59	4.9	0.4247	-0.0692	-0.3123	
-0.997716	0.111996	0.050142	-2.73	-10.01	3.57	0.4234	-0.0599	-0.3182	
-0.992104	0.094184	0.05429	-2.45	-9.66	2.1	0.422	-0.0584	-0.3196	
-1.001376	0.09028	0.065026	-1.33	-8.4	2.45	0.4163	-0.074	-0.3182	
-0.99674	0.082594	0.062342	1.12	-7.7	2.03	0.4233	-0.0567	-0.3151	
-0.995398	0.087962	0.055632	0.49	-7.42	0.98	0.4079	-0.06	-0.3237	
-1.004548	0.098698	0.060268	-2.73	-7.07	-0.35	0.4209	-0.0726	-0.3289	
-1.005768	0.09747799	0.071492	-5.18	-6.72	-0.42	0.4133	-0.0614	-0.3133	
-1.000888	0.088206	0.064416	-3.99	-6.44	-0.28	0.4038	-0.0695	-0.3298	
-1.001742	0.08784	0.062342	-4.9	-6.02	-0.35	0.4092	-0.0646	-0.3193	
-1.003084	0.090524	0.057096	-5.39	-5.53	-0.77	0.4138	-0.0679	-0.3301	
-1.006256	0.08723	0.059902	-4.55	-5.25	-1.12	0.4096	-0.0664	-0.3345	
-1.008086	0.081374	0.063928	0.21	-4.62	-1.05	0.4054	-0.0711	-0.3344	
-1.005036	0.071736	0.064538	2.94	-4.06	-1.26	0.412	-0.0552	-0.3177	
-1.003938	0.07503	0.065392	-0.35	-4.2	-2.73	0.4038	-0.0679	-0.3313	
-1.002962	0.079178	0.072102	-5.04	-4.06	-3.85	0.411	-0.0711	-0.3331	
-1.002596	0.076616	0.072224	-2.73	-3.85	-4.76	0.4093	-0.0584	-0.3238	
-1.002108	0.080032	0.06832	-0.91	-3.71	-5.18	0.4194	-0.0585	-0.3271	
-1.00528	0.074054	0.078202	-1.96	-3.5	-5.53	0.3982	-0.0695	-0.3326	
-1.008086	0.05612	0.08174	-1.12	-3.08	-5.32	0.4081	-0.0601	-0.3313	
-1.008208	0.067466	0.076616	-5.95	-3.29	-5.95	0.4066	-0.0585	-0.3297	
-1.008696	0.07869	0.081496	-11.76	-3.43	-7.7	0.3997	-0.0445	-0.3369	
-1.010038	0.07124799	0.074664	-11.2	-3.29	-9.03	0.4025	-0.0648	-0.3357	
-1.015162	0.052826	0.084058	-6.79	-2.8	-9.38	0.4169	-0.0493	-0.339	
-1.007964	0.038064	0.085522	-3.92	-2.8	-10.15	0.4009	-0.0491	-0.3309	
-1.003084	0.043066	0.086986	-7.49	-3.15	-11.55	0.4051	-0.0491	-0.328	
-1.003572	0.045018	0.082472	-8.89	-3.29	-12.81	0.4038	-0.0382	-0.3339	
-1.005768	0.056608	0.083082	-10.99	-2.8	-13.37	0.4153	-0.0398	-0.3343	
-1.014552	0.063196	0.077958	-15.12	-2.94	-14.07	0.4152	-0.0429	-0.3313	
-1.011258	0.064294	0.080032	-16.1	-3.99	-15.19	0.4152	-0.035	-0.3312	
-1.013454	0.050386	0.083692	-21.56	-4.48	-17.99	0.4241	-0.0337	-0.342	
-1.003816	0.05734	0.07991	-19.53	-5.25	-20.37	0.4067	-0.0226	-0.3352	
-1.009794	0.05246	0.077836	-18.9	-6.65	-20.3	0.4069	-0.0352	-0.3415	
-1.022482	0.043798	0.08479	-15.4	-9.17	-21.84	0.414	-0.0148	-0.3399	
-1.014674	0.014884	0.08601	-10.08	-9.87	-23.45	0.4098	-0.0149	-0.3428	
-1.004304	-0.004026	0.076006	-4.34	-9.73	-26.04	0.4056	-0.0212	-0.3458	
-1.003328	0.003416	0.063318	-5.53	-10.71	-28.84	0.4056	0.0053	-0.3484	
-1.01504	0.005368	0.088084	-13.93	-11.97	-29.54	0.4072	-0.0009	-0.3531	
-1.02785	-0.0244	0.09552599	-5.39	-12.46	-29.54	0.4029	0.0146	-0.3542	
-1.008574	-0.053192	0.102602	2.87	-13.23	-31.85	0.3961	0.0082	-0.3632	
-1.003084	-0.059658	0.10736	7.42	-14.49	-33.81	0.4119	0.0113	-0.3682	
-1.010282	-0.058682	0.096868	11.55	-13.79	-32.62	0.4072	0.0146	-0.3528	
-1.002352	-0.060146	0.107482	10.15	-12.46	-34.51	0.4073	0.0177	-0.3573	
-1.028704	-0.104432	0.12749	12.18	-12.39	-33.74	0.4046	0.0192	-0.3633	
-0.991006	-0.139812	0.12444	18.34	-13.58	-32.27	0.4004	0.027	-0.366	
-0.998204	-0.16226	0.135786	20.16	-15.75	-31.92	0.4031	0.0302	-0.3615	
-0.990884	-0.1525	0.17141	10.22	-17.57	-30.45	0.3946	0.038	-0.3642	
-1.001986	-0.140422	0.15006	7.56	-17.08	-30.94	0.3988	0.0396	-0.3613	
-1.029192	-0.152256	0.16043	10.85	-16.17	-32.48	0.3903	0.0349	-0.3626	
-1.006012	-0.183976	0.176534	15.75	-15.96	-37.87	0.3932	0.0458	-0.3655	
-0.98881	-0.208132	0.188002	14.28	-16.8	-38.57	0.3811	0.0517	-0.3892	
-0.963678	-0.197884	0.178852	14.77	-18.55	-39.41	0.3795	0.044	-0.3848	
-0.947208	-0.208742	0.183244	14.7	-18.62	-37.38	0.3823	0.0534	-0.3832	
-0.947818	-0.213988	0.20069	11.27	-18.9	-32.62	0.3838	0.0549	-0.3863	
-0.941718	-0.226066	0.21472	11.27	-18.48	-29.33	0.3724	0.0612	-0.3858	
-0.949038	-0.23241	0.219478	6.93	-17.36	-26.67	0.3681	0.0628	-0.3856	
-0.954894	-0.242048	0.212158	5.88	-15.26	-23.45	0.3742	0.06879999	-0.3994	
-0.94794	-0.252296	0.233142	3.29	-15.12	-23.66	0.3725	0.0705	-0.3917	
-0.92598	-0.242414	0.225944	3.22	-14.56	-24.5	0.3628	0.0672	-0.4005	
-0.92964	-0.265838	0.233752	5.46	-13.51	-23.45	0.3697	0.083	-0.3945	
-0.929152	-0.272182	0.249978	5.46	-13.37	-22.19	0.3696	0.0815	-0.3914	
-0.92415	-0.270962	0.241194	5.67	-12.46	-21	0.3725	0.07669999	-0.3931	
-0.953064	-0.27694	0.244366	5.39	-11.55	-20.02	0.3628	0.0766	-0.4004	
-0.956358	-0.294874	0.249124	8.33	-10.15	-19.32	0.3569	0.083	-0.3956	
-0.936594	-0.321104	0.258152	9.1	-9.66	-16.87	0.3611	0.083	-0.3942	
-0.925004	-0.31598	0.260836	8.33	-9.94	-15.54	0.3615	0.0906	-0.4062	
-0.92049	-0.31598	0.258884	6.23	-10.08	-15.05	0.3629	0.0859	-0.4063	
-0.92476	-0.304634	0.26108	3.5	-10.15	-13.79	0.3472	0.0969	-0.4056	
-0.921588	-0.304024	0.267058	2.52	-10.08	-11.9	0.3542	0.097	-0.4013	
-0.890234	-0.320982	0.288286	2.03	-9.59	-10.01	0.3503	0.0874	-0.4119	
-0.896822	-0.317566	0.294508	4.69	-8.54	-9.73	0.3459	0.0859	-0.4103	
-0.901946	-0.314882	0.290238	3.64	-7.49	-8.61	0.3473	0.0922	-0.4087	
-0.907314	-0.329766	0.299266	5.39	-6.51	-8.54	0.3463	0.08419999	-0.4209	
-0.896578	-0.330864	0.299632	4.27	-5.81	-8.68	0.3471	0.0907	-0.4027	
-0.925492	-0.35258	0.292434	3.99	-5.04	-8.61	0.3418	0.0953	-0.4145	
-0.917318	-0.347578	0.290482	3.29	-5.18	-7.98	0.3401	0.0907	-0.4055	
-0.912072	-0.342332	0.305	3.43	-4.69	-7.21	0.336	0.0891	-0.4114	
-0.913902	-0.350506	0.299022	7.07	-3.64	-6.02	0.3486	0.0938	-0.4057	
-0.914024	-0.347456	0.29463	4.34	-4.2	-5.6	0.3501	0.0938	-0.4088	
-0.889258	-0.338306	0.302316	1.75	-4.13	-5.95	0.3372	0.1064	-0.4052	
-0.877424	-0.338062	0.304024	1.54	-3.5	-6.72	0.3359	0.0969	-0.4113	
-0.887306	-0.333426	0.308172	2.24	-2.52	-7	0.3387	0.1016	-0.4098	
-0.89914	-0.34465	0.310734	2.24	-1.96	-5.95	0.3444	0.0891	-0.4087	
-0.887184	-0.355142	0.310978	1.19	-1.82	-6.16	0.3375	0.08899999	-0.4145	
-0.890844	-0.35624	0.315614	-0.35	-2.1	-6.23	0.3345	0.0922	-0.4113	
-0.889502	-0.352946	0.316224	-0.63	-1.47	-7.56	0.3521	0.0935	-0.4255	
-0.891698	-0.351238	0.318054	0.91	-0.63	-7.49	0.339	0.0999	-0.4174	
-0.901214	-0.352336	0.315004	1.4	-0.35	-5.81	0.3474	0.114	-0.4144	
-0.902556	-0.349652	0.309636	-0.49	-0.7	-5.25	0.3417	0.1062	-0.4144	
-0.893406	-0.351482	0.310124	0.21	-0.7	-5.18	0.3429	0.1095	-0.4068	
-0.889136	-0.357582	0.306952	0.07	-0.35	-4.55	0.3373	0.0922	-0.4099	
-0.89487	-0.356484	0.305366	0.63	0.42	-3.5	0.3334	0.0983	-0.4218	
-0.888404	-0.369782	0.305976	1.26	1.4	-2.94	0.3387	0.1142	-0.4081	
-0.90158	-0.36539	0.30134	1.19	1.61	-2.45	0.3361	0.1046	-0.4188	
-0.903898	-0.354654	0.292312	0.35	1.19	-1.96	0.3377	0.0998	-0.4219	
-0.8967	-0.36478	0.297924	1.05	1.19	-0.98	0.3345	0.0969	-0.4097	
-0.899262	-0.363194	0.29768	1.47	0.91	-1.12	0.336	0.1125	-0.4141	
-0.89487	-0.363926	0.29707	1.68	0.91	-0.84	0.3375	0.1109	-0.4172	
-0.892674	-0.359534	0.296948	0.77	0.84	-0.98	0.3378	0.0966	-0.4265	
-0.885476	-0.346602	0.296094	-1.05	0.7	-0.84	0.3389	0.0953	-0.4145	
-0.886818	-0.358314	0.29524	0.77	1.47	-0.28	0.342	0.1014	-0.422	
-0.879742	-0.36905	0.2989	1.05	1.33	-0.21	0.3333	0.09519999	-0.4188	
-0.891698	-0.364048	0.304634	-0.49	0.84	-0.7	0.3377	0.0936	-0.4205	
-0.89914	-0.356606	0.305854	-0.21	0.91	-0.98	0.3316	0.1032	-0.4111	
-0.90097	-0.366488	0.302682	1.33	1.26	-0.77	0.3373	0.1016	-0.4083	
-0.89548	-0.359168	0.299266	1.19	0.98	0.07	0.3419	0.0936	-0.4191	
-0.90036	-0.360022	0.294508	1.33	0.84	0.28	0.3331	0.1047	-0.4111	
-0.894504	-0.362584	0.298656	2.03	0.84	1.82	0.3473	0.1031	-0.4101	
-0.905118	-0.36539	0.30012	2.87	1.4	1.61	0.3514	0.1001	-0.4042	
-0.902556	-0.356728	0.303902	2.03	1.68	2.66	0.3415	0.1032	-0.4069	
-0.894016	-0.354532	0.295484	1.82	2.17	3.43	0.3415	0.1001	-0.4069	
-0.895114	-0.350262	0.294386	3.36	2.59	3.99	0.3361	0.1062	-0.4172	
-0.89853	-0.344772	0.29585	2.45	3.22	5.39	0.3445	0.1078	-0.4114	
-0.892308	-0.347456	0.296826	4.13	3.99	7.14	0.3459	0.0859	-0.4103	
-0.90219	-0.349408	0.296582	4.83	4.34	7.77	0.3447	0.09209999	-0.4162	
-0.908778	-0.342942	0.296582	6.72	4.9	8.54	0.3502	0.0953	-0.4118	
-0.899628	-0.347212	0.29524	9.87	5.95	11.97	0.3489	0.09519999	-0.4148	
-0.890478	-0.333182	0.295484	10.64	6.72	13.37	0.3487	0.09999999	-0.4102	
-0.881206	-0.311466	0.288408	9.87	6.93	15.68	0.3514	0.0954	-0.4043	
-0.905728	-0.310856	0.29707	9.45	7.42	17.85	0.3545	0.0859	-0.4121	
-0.9028	-0.29707	0.288164	8.26	8.75	25.13	0.3574	0.0765	-0.4108	
-0.930982	-0.289994	0.284748	5.11	8.82	30.24	0.3504	0.0764	-0.4166	
-0.938058	-0.28975	0.291214	3.29	8.19	28.21	0.3486	0.0766	-0.4029	
-0.944646	-0.28426	0.294386	5.46	8.75	21.21	0.3472	0.0735	-0.4045	
-0.923906	-0.289994	0.275476	4.76	9.73	22.12	0.3517	0.0702	-0.4107	
-0.94245	-0.307318	0.29585	-1.12	11.27	25.69	0.3573	0.0515	-0.4051	
-0.915976	-0.292678	0.282674	-3.5	9.38	26.74	0.3615	0.0594	-0.4036	
-0.937326	-0.27938	0.289628	-5.81	11.83	21.84	0.3531	0.0593	-0.4079	
-0.9272	-0.283528	0.277672	-0.56	13.02	23.31	0.3657	0.0531	-0.4023	
-0.928176	-0.28487	0.260348	-3.5	12.6	23.94	0.3599	0.061	-0.3975	
-0.940376	-0.264862	0.264374	-6.44	12.67	24.22	0.3702	0.0577	-0.407	
-0.939034	-0.25193	0.249734	-3.71	13.65	25.41	0.3644	0.0484	-0.4039	
-0.94733	-0.225334	0.258396	-3.43	15.26	26.46	0.3728	0.0437	-0.3997	
-0.943304	-0.218014	0.258152	0.63	16.66	27.09	0.374	0.0392	-0.3907	
-0.936838	-0.210572	0.252296	0.21	17.5	26.74	0.374	0.0251	-0.3909	
-0.94672	-0.22997	0.266936	-1.47	19.6	30.24	0.3724	0.0252	-0.3848	
-0.94855	-0.228506	0.248026	3.5	19.18	30.8	0.3807	0.0253	-0.376	
-0.960506	-0.195566	0.237412	4.69	19.81	31.01	0.3778	0.03	-0.3759	
-0.961604	-0.173972	0.213622	2.1	22.05	33.32	0.375	0.0159	-0.376	
-0.956602	-0.154574	0.232166	-2.1	24.64	33.67	0.3921	0.0222	-0.3734	
-0.956114	-0.164334	0.22387	0.42	25.83	34.86	0.3848	0.0066	-0.3689	
-0.97112	-0.156526	0.193492	3.92	25.76	34.65	0.389	0.0066	-0.366	
-1.000156	-0.131516	0.179462	4.97	25.83	33.74	0.3947	0.0019	-0.3662	
-0.991738	-0.106018	0.15616	3.57	27.3	34.58	0.3861	-0.0104	-0.3616	
-0.996374	-0.087352	0.152378	-2.1	28	32.06	0.3932	-0.0073	-0.3603	
-0.994544	-0.071492	0.153354	-4.06	27.65	32.83	0.3944	-0.0119	-0.3543	
-1.00406	-0.0671	0.138226	-1.26	27.02	33.53	0.3988	-0.0182	-0.3576	
-0.995154	-0.029158	0.101992	-3.85	26.39	32.76	0.3927	-0.018	-0.3438	
-1.009794	-0.03111	0.098332	-8.12	25.97	32.9	0.3988	-0.0182	-0.3561	
-1.011136	-0.021472	0.08686399	0.49	28.14	33.04	0.4042	-0.029	-0.3458	
-1.01443	-0.021838	0.05673	4.41	28.35	35.21	0.4126	-0.0321	-0.3416	
-1.037732	-0.011834	0.06527	2.87	26.39	34.37	0.4111	-0.032	-0.3385	
-1.02663	0.010736	0.058926	6.02	24.57	33.39	0.4123	-0.0382	-0.3311	
-1.016504	0.028304	0.046116	9.1	23.94	33.18	0.4109	-0.0507	-0.3313	
-1.00345	0.055754	0.018422	7.35	23.87	34.37	0.4179	-0.0522	-0.3255	
-1.00894	0.062098	0.051728	3.29	25.06	35.35	0.415	-0.0553	-0.3224	
-1.006988	0.06649	0.043432	21.49	26.6	33.46	0.4178	-0.0693	-0.3197	
-0.997838	0.078324	0.014518	33.11	26.18	33.32	0.4105	-0.0599	-0.3178	
-0.990518	0.077836	0.024034	27.44	25.13	32.76	0.4103	-0.08639999	-0.3091	
-0.996374	0.10004	-0.00366	26.6	25.48	29.4	0.4128	-0.0893	-0.2956	
-1.007964	0.123708	-0.015738	27.16	25.34	26.74	0.4212	-0.0939	-0.2914	
-1.01199	0.157014	-0.047824	25.06	22.89	25.55	0.4227	-0.0986	-0.2915	
-1.023092	0.179218	-0.03538	17.71	22.33	27.37	0.4224	-0.111	-0.2811	
-1.010404	0.165798	-0.00854	10.78	22.89	30.94	0.4153	-0.111	-0.2824	
-1.001986	0.154696	-0.01281	17.36	22.19	33.11	0.4124	-0.1141	-0.2808	
-0.992958	0.161162	-0.036112	15.82	20.79	32.76	0.418	-0.125	-0.2751	
-0.99796	0.171166	-0.040748	6.16	19.74	31.71	0.4177	-0.128	-0.2676	
-0.975634	0.176168	-0.04453	7.91	19.81	32.06	0.4147	-0.1326	-0.2615	
-0.990884	0.180194	-0.046238	1.75	20.65	30.94	0.4178	-0.139	-0.2678	
-0.98759	0.196786	-0.05551	-0.84	20.58	31.78	0.4232	-0.1404	-0.2589	
-0.993324	0.19459	-0.083448	-4.41	19.67	31.64	0.4191	-0.1499	-0.2634	
-0.988078	0.1952	-0.090036	-10.43	19.74	30.59	0.4206	-0.1531	-0.2666	
-1.010892	0.210816	-0.093818	-19.39	19.11	29.89	0.4148	-0.1592	-0.2619	
-1.001742	0.238998	-0.092232	-24.99	17.85	27.65	0.4145	-0.1653	-0.2514	
-0.99613	0.238998	-0.098332	-23.59	16.66	28.14	0.4188	-0.1669	-0.2516	
-0.989786	0.244488	-0.116632	-16.1	14.49	28.28	0.4076	-0.1623	-0.2587	
-0.97905	0.26779	-0.117852	-16.73	14.63	28.7	0.4131	-0.1638	-0.2529	
-0.966484	0.29402	-0.127368	-23.59	13.51	28.91	0.4203	-0.1685	-0.2532	
-0.966606	0.291702	-0.123952	-26.46	11.48	29.4	0.4129	-0.1746	-0.247	
-0.964654	0.308416	-0.128588	-18.34	9.87	28.28	0.4128	-0.1699	-0.2424	
-0.96502	0.30927	-0.124196	-22.75	9.59	28.28	0.4058	-0.1762	-0.2468	
-0.963922	0.332938	-0.137738	-26.88	9.24	26.81	0.4047	-0.1826	-0.2574	
-0.973194	0.356606	-0.138592	-32.41	7.77	23.73	0.3989	-0.181	-0.2557	
-0.959164	0.351848	-0.130174	-29.19	6.58	21.35	0.4088	-0.1919	-0.2516	
-0.951722	0.366488	-0.12566	-27.16	5.81	18.48	0.412	-0.1858	-0.2622	
-0.940498	0.359778	-0.112118	-17.43	4.48	17.78	0.4005	-0.1889	-0.2604	
-0.94245	0.371734	-0.122244	-12.25	3.71	17.64	0.399	-0.1842	-0.2588	
-0.927322	0.373808	-0.128222	-9.52	2.31	17.5	0.4033	-0.1858	-0.2589	
-0.935496	0.371734	-0.116266	-8.82	2.45	17.15	0.4007	-0.1921	-0.265	
-0.931836	0.383812	-0.116754	-9.03	2.8	17.29	0.3992	-0.1983	-0.262	
-0.915122	0.399306	-0.117242	-14.63	3.15	17.64	0.3903	-0.2013	-0.2512	
-0.906338	0.400404	-0.108092	-14.98	3.22	17.43	0.3919	-0.1998	-0.2588	
-0.921344	0.40565	-0.096624	-15.33	3.78	17.5	0.3934	-0.1983	-0.2588	
-0.909266	0.406626	-0.08052	-14.77	4.2	17.36	0.3875	-0.1982	-0.2541	
-0.909266	0.413092	-0.099796	-15.26	3.22	17.5	0.3951	-0.2109	-0.2666	
-0.913048	0.42395	-0.087962	-17.85	2.1	17.22	0.3863	-0.2077	-0.2602	
-0.90707	0.439322	-0.069296	-9.17	0.42	15.54	0.3937	-0.2141	-0.2681	
-0.909876	0.444568	-0.077592	-3.92	-1.05	15.33	0.4007	-0.2046	-0.2637	
-0.906948	0.44408	-0.084302	-6.86	-1.54	15.89	0.3893	-0.2172	-0.265	
-0.894138	0.453596	-0.09455	-11.83	-0.77	15.68	0.3877	-0.2139	-0.2574	
-0.921954	0.456646	-0.092476	-11.48	-0.7	14.21	0.3906	-0.2124	-0.2605	
-0.90219	0.443104	-0.074298	-7.7	-2.17	11.9	0.3765	-0.2156	-0.2661	
-0.902312	0.44652	-0.0854	3.08	-3.01	9.59	0.3721	-0.2186	-0.2615	
-0.895114	0.447496	-0.090158	-1.33	-1.82	8.82	0.3894	-0.2266	-0.2667	
-0.88389	0.47092	-0.101138	-7.7	-0.14	8.05	0.3777	-0.2123	-0.26	
-0.881938	0.464576	-0.080886	-6.37	-0.07	8.4	0.3821	-0.2124	-0.2617	
-0.8967	0.460794	-0.085766	-2.94	0.28	7.63	0.3724	-0.211	-0.272	
-0.892308	0.470676	-0.089792	-4.06	0.42	6.72	0.3677	-0.2154	-0.2583	
-0.898042	0.46238	-0.078812	-7.49	0.28	6.86	0.3852	-0.2266	-0.2681	
-0.895724	0.466894	-0.080276	-4.48	-0.63	5.67	0.3737	-0.2172	-0.2676	
-0.898652	0.479948	-0.08052	-8.89	-0.56	6.16	0.3765	-0.2249	-0.2647	
-0.887184	0.48251	-0.083814	-12.04	0.42	6.23	0.3763	-0.2233	-0.2586	
-0.88328	0.47824	-0.078202	-13.16	1.05	7.14	0.3895	-0.211	-0.271	
-0.873642	0.467382	-0.069052	-9.66	1.33	6.93	0.3722	-0.2265	-0.2661	
-0.882182	0.483486	-0.073444	-7.21	1.54	6.37	0.3751	-0.2078	-0.269	
-0.874984	0.474214	-0.062098	-5.6	1.89	5.67	0.3695	-0.2297	-0.2706	
-0.878888	0.484218	-0.06283	-6.51	2.24	5.18	0.3782	-0.2251	-0.2739	
-0.883646	0.485072	-0.06222	-4.83	2.31	4.9	0.3769	-0.2267	-0.2769	
-0.883524	0.48922	-0.070882	-4.2	2.45	5.32	0.3753	-0.2219	-0.2722	
-0.883646	0.484218	-0.06893	-5.32	2.59	5.74	0.3724	-0.2282	-0.2722	
-0.886818	0.49288	-0.066368	-4.9	2.45	5.46	0.3627	-0.2424	-0.2782	
-0.874984	0.494954	-0.074298	-4.06	2.03	4.9	0.3639	-0.2313	-0.2735	
-0.87291	0.49471	-0.07124799	-6.44	1.96	4.97	0.3667	-0.2281	-0.2705	
-0.87901	0.485926	-0.06771	-3.5	1.54	4.41	0.3638	-0.2391	-0.2691	
-0.881206	0.48312	-0.069174	5.88	1.12	2.66	0.3639	-0.2282	-0.2735	
-0.878888	0.497028	-0.088206	3.71	1.26	2.52	0.3665	-0.2312	-0.266	
-0.865224	0.50874	-0.085156	-3.36	2.52	3.22	0.364	-0.2329	-0.275	
-0.871568	0.510326	-0.080032	-0.91	2.1	2.8	0.3694	-0.239	-0.2647	
-0.879864	0.500566	-0.07808	0	2.24	2.87	0.3653	-0.236	-0.2706	
-0.881206	0.496418	-0.07808	1.19	2.1	1.89	0.3624	-0.2281	-0.2704	
-0.8784	0.497638	-0.074786	0.42	1.75	1.68	0.3605	-0.2326	-0.2553	
-0.873764	0.499956	-0.072834	-1.96	1.19	1.82	0.3652	-0.2297	-0.2675	
-0.878766	0.503616	-0.07503	-2.73	1.05	1.96	0.3768	-0.2392	-0.2756	
-0.873886	0.50203	-0.08357	-1.54	0.91	1.75	0.3678	-0.2343	-0.2616	
-0.864736	0.508008	-0.077592	-2.52	0.35	1.61	0.3592	-0.2248	-0.2596	
-0.87291	0.50813	-0.09028	1.96	-0.21	0.84	0.3696	-0.2297	-0.2722	
-0.883036	0.50386	-0.073932	-0.91	0.14	1.47	0.3765	-0.2312	-0.2663	
-0.876448	0.499468	-0.075884	0.98	0.14	0.28	0.3638	-0.2266	-0.2704	
-0.873276	0.49837	-0.080032	3.01	-0.07	0.07	0.3738	-0.2313	-0.2693	
-0.871202	0.508862	-0.088816	0.42	0.35	-0.56	0.3725	-0.2345	-0.2738	
-0.867908	0.505324	-0.078202	-1.54	0.56	0.28	0.3724	-0.2297	-0.2707	
-0.883402	0.508496	-0.076982	2.59	0.07	-0.84	0.3736	-0.2374	-0.2633	
-0.872544	0.5063	-0.090524	1.68	-0.42	-0.63	0.3766	-0.2375	-0.268	
-0.874984	0.504592	-0.080032	-1.54	-0.14	-0.7	0.3753	-0.222	-0.2737	
-0.874618	0.503982	-0.0854	-1.26	-0.49	-1.47	0.3723	-0.2219	-0.2691	
-0.880352	0.512156	-0.078934	-3.78	-1.05	-2.59	0.3712	-0.2283	-0.2797	
-0.87718	0.507276	-0.07625	-3.99	-1.61	-2.87	0.378	-0.2203	-0.2693	
-0.874252	0.508008	-0.070028	-3.01	-1.75	-3.43	0.3811	-0.2298	-0.2755	
-0.872056	0.506056	-0.08662	-2.03	-1.82	-4.27	0.3737	-0.2187	-0.2691	
-0.87291	0.507642	-0.069662	-4.62	-0.98	-5.11	0.3669	-0.2329	-0.2767	
-0.873642	0.499102	-0.067954	0.91	-1.61	-5.53	0.3739	-0.2251	-0.2737	
-0.880474	0.493978	-0.064782	0.77	-1.19	-6.44	0.3724	-0.2188	-0.2706	
-0.882426	0.495076	-0.073932	0.35	-1.4	-8.05	0.3813	-0.2299	-0.2816	
-0.88023	0.50081	-0.07259	-3.85	-1.19	-8.05	0.367	-0.2252	-0.2826	
-0.87962	0.496418	-0.06734399	-1.75	-2.1	-8.89	0.3741	-0.2236	-0.2798	
-0.889502	0.487268	-0.070638	-0.49	-3.15	-10.15	0.364	-0.2251	-0.2764	
-0.890234	0.486536	-0.070516	0.14	-3.71	-12.11	0.3713	-0.2158	-0.2841	
-0.894382	0.480558	-0.069662	1.26	-3.36	-13.65	0.3851	-0.2203	-0.268	
-0.899384	0.484462	-0.083204	3.08	-4.62	-15.26	0.3766	-0.2188	-0.2707	
-0.90646	0.475678	-0.06649	-6.86	-5.25	-16.31	0.3696	-0.2125	-0.2734	
-0.907436	0.458842	-0.054168	-3.08	-6.51	-18.41	0.3856	-0.2112	-0.2845	
-0.899872	0.459696	-0.060146	-1.89	-6.51	-20.65	0.3767	-0.2172	-0.2722	
-0.894138	0.45872	-0.063318	-3.43	-6.44	-22.33	0.3811	-0.2064	-0.2782	
-0.886208	0.451278	-0.056608	-2.87	-6.58	-23.45	0.391	-0.1954	-0.2753	
-0.887794	0.446764	-0.063562	-6.58	-6.65	-23.45	0.3897	-0.1986	-0.2784	
-0.900604	0.455548	-0.053314	-8.82	-6.37	-25.27	0.3856	-0.1955	-0.2842	
-0.910608	0.440298	-0.049776	-7.63	-5.6	-26.25	0.3868	-0.1845	-0.2781	
-0.907924	0.433832	-0.04514	-5.25	-5.18	-26.6	0.3884	-0.1736	-0.2855	
-0.905728	0.443104	-0.04697	-4.76	-5.74	-27.79	0.3929	-0.169	-0.2916	
-0.90036	0.42822	-0.044774	-7.42	-7.14	-28	0.3973	-0.1754	-0.2949	
-0.914268	0.40626	-0.031964	-3.36	-7.77	-29.68	0.3942	-0.1674	-0.2871	
-0.930616	0.400282	-0.036234	4.83	-6.86	-31.36	0.3968	-0.1704	-0.2797	
-0.935496	0.399062	-0.034282	4.34	-7.42	-31.01	0.3999	-0.158	-0.2887	
-0.93391	0.375638	-0.04209	3.71	-8.54	-31.22	0.4015	-0.155	-0.2947	
-0.94306	0.354044	-0.028304	0.91	-7.77	-32.69	0.4001	-0.1503	-0.2946	
-0.960262	0.343918	-0.021838	11.48	-7.35	-34.37	0.3956	-0.1486	-0.2884	
-0.958798	0.324276	-0.024766	11.97	-9.03	-35.77	0.3988	-0.1426	-0.3005	
-0.957944	0.329156	-0.029402	10.57	-10.71	-37.24	0.4058	-0.1425	-0.2977	
-0.96746	0.318298	-0.023912	10.01	-11.06	-38.08	0.3955	-0.1439	-0.2868	
-0.96929	0.288896	-0.020618	11.2	-10.64	-39.34	0.4043	-0.1316	-0.296	
-0.978196	0.279624	-0.014152	14.49	-9.73	-40.74	0.4117	-0.1255	-0.3052	
-0.981246	0.25864	-0.014518	17.99	-10.01	-42	0.4059	-0.1254	-0.3005	
-0.974292	0.235338	-0.013298	24.85	-9.66	-40.67	0.4144	-0.1175	-0.2991	
-0.976122	0.223992	-0.012322	29.05	-10.29	-38.71	0.4129	-0.1144	-0.296	
-0.985028	0.234118	-0.016104	30.1	-8.61	-37.17	0.4191	-0.1209	-0.3114	
-0.997228	0.230702	-0.003904	26.46	-10.43	-37.24	0.4104	-0.1099	-0.3095	
-0.997472	0.198494	-0.008296	24.22	-11.34	-36.05	0.4206	-0.1053	-0.3158	
-1.00711	0.176046	-0.01098	22.75	-10.85	-34.93	0.4132	-0.0989	-0.3094	
-1.011624	0.150182	-0.000122	25.06	-10.78	-33.95	0.4104	-0.1052	-0.3094	
-1.014186	0.150426	-0.005002	22.26	-10.57	-34.16	0.4146	-0.1036	-0.3065	
-1.00833	0.148352	-0.00488	15.05	-11.55	-33.74	0.4146	-0.0911	-0.3078	
-1.018212	0.107848	0.013664	10.78	-11.34	-33.67	0.4105	-0.0817	-0.3136	
-1.014064	0.086742	0.029768	9.94	-11.13	-32.27	0.4191	-0.0959	-0.3141	
-1.006012	0.070394	0.033672	11.69	-12.04	-32.06	0.4074	-0.0816	-0.3074	
-0.99796	0.075518	0.039162	8.82	-12.6	-32.48	0.4185	-0.0737	-0.2971	
-0.996862	0.056486	0.036722	4.76	-12.81	-33.53	0.4131	-0.0801	-0.3076	
-1.012112	0.042578	0.03721	2.94	-11.62	-33.18	0.4162	-0.0661	-0.3165	
-1.01077	0.02684	0.045262	8.26	-11.76	-32.62	0.4128	-0.0564	-0.2981	
-1.01931	0.034526	0.035624	11.06	-12.32	-31.92	0.4163	-0.0599	-0.3195	
-1.017602	0.028792	0.045018	7.35	-12.6	-30.17	0.4219	-0.0614	-0.3151	
-1.011136	0.0244	0.055144	9.94	-13.3	-28.84	0.4204	-0.0489	-0.3134	
-1.006378	0.003538	0.057828	9.45	-12.6	-27.79	0.4148	-0.0473	-0.3162	
-1.006622	-0.014274	0.062464	9.03	-11.83	-26.6	0.4173	-0.0393	-0.3056	
-1.01321	-0.02928	0.059658	7.21	-11.2	-26.53	0.4146	-0.0347	-0.3115	
-1.00528	-0.037088	0.070516	6.51	-11.34	-25.27	0.4193	-0.0397	-0.3268	
-1.00833	-0.043554	0.078446	7.98	-10.64	-23.24	0.4151	-0.0334	-0.3281	
-1.000888	-0.05856	0.08174	4.97	-10.78	-22.82	0.4063	-0.0364	-0.3203	
-1.00406	-0.060146	0.085766	-4.41	-12.18	-23.8	0.4138	-0.021	-0.3324	
-1.000766	-0.079788	0.102114	-11.2	-11.69	-24.36	0.4125	-0.0257	-0.337	
-1.003694	-0.074664	0.093208	-9.52	-13.65	-25.69	0.4185	-0.0212	-0.3492	
-1.013454	-0.066978	0.08967	-6.72	-12.88	-25.76	0.4039	-0.0148	-0.338	
-1.004426	-0.066734	0.100162	-7.77	-14.35	-24.43	0.4169	-0.0149	-0.3415	
-1.003694	-0.086376	0.110776	-7	-14.14	-23.94	0.4095	-0.0116	-0.3336	
-1.007232	-0.119438	0.119438	-3.99	-14.28	-23.94	0.401	0.0008	-0.3377	
-0.993934	-0.120902	0.09516	-2.17	-14.56	-25.48	0.4182	0.0039	-0.3382	
-1.000888	-0.089182	0.09211	-6.23	-15.47	-26.46	0.407	0.0163	-0.3483	
-1.014308	-0.075762	0.103334	-7.35	-14.84	-25.62	0.4101	0.0099	-0.356	
-0.99857	-0.10187	0.104554	-2.87	-16.73	-26.04	0.3998	0.0132	-0.345	
-0.991006	-0.125294	0.119804	-3.43	-17.29	-25.55	0.3958	0.0146	-0.354	
-0.980636	-0.125416	0.115046	-4.55	-16.31	-26.32	0.3987	0.0209	-0.3555	
-1.000888	-0.110776	0.11834	-3.5	-15.33	-26.04	0.4057	0.0287	-0.3541	
-1.00833	-0.12566	0.134566	-1.61	-15.47	-23.87	0.3989	0.0286	-0.3645	
-1.003206	-0.154086	0.13908	2.66	-15.61	-25.13	0.3915	0.0193	-0.3553	
-0.984174	-0.15433	0.135786	2.8	-15.82	-25.13	0.3961	0.0301	-0.3674	
-1.001132	-0.160796	0.140422	3.43	-16.45	-25.06	0.3948	0.0332	-0.3718	
-0.998204	-0.181292	0.177266	5.25	-16.17	-24.22	0.3819	0.0301	-0.3684	
-0.979294	-0.200446	0.16592	9.24	-16.17	-24.64	0.3877	0.0457	-0.3714	
-0.965264	-0.209718	0.181536	5.67	-15.47	-23.24	0.3745	0.0428	-0.3619	
-0.971974	-0.220332	0.178486	8.89	-15.26	-24.64	0.3818	0.0489	-0.3666	
-0.969534	-0.22448	0.182756	6.09	-14.77	-23.45	0.3805	0.0473	-0.3711	
-0.970632	-0.227164	0.187026	3.85	-14.7	-22.33	0.3838	0.0502	-0.3848	
-0.966362	-0.24217	0.206424	1.82	-14.21	-20.3	0.3866	0.058	-0.3848	
-0.968558	-0.258274	0.216062	2.94	-14.56	-21.42	0.3753	0.0565	-0.3875	
-0.95404	-0.257176	0.227408	3.99	-13.79	-19.18	0.3794	0.0706	-0.3844	
-0.952454	-0.259128	0.233508	4.83	-14.56	-19.74	0.3751	0.0659	-0.3828	
-0.945378	-0.267546	0.232166	5.32	-13.86	-18.76	0.3753	0.0643	-0.3874	
-0.931958	-0.292068	0.222894	8.12	-14.7	-20.37	0.3709	0.0675	-0.3841	
-0.923418	-0.298412	0.256688	4.76	-15.19	-19.74	0.3666	0.0784	-0.3853	
-0.941596	-0.291214	0.24766	2.73	-12.25	-16.38	0.3624	0.069	-0.3884	
-0.940254	-0.292312	0.239242	3.29	-13.44	-15.12	0.3641	0.06879999	-0.3975	
-0.941596	-0.290238	0.254248	1.75	-13.58	-15.61	0.3627	0.07669999	-0.3973	
-0.941108	-0.295606	0.257298	3.15	-13.23	-15.26	0.358	0.0847	-0.385	
-0.932812	-0.306586	0.260592	3.85	-13.65	-14.42	0.3685	0.0751	-0.3991	
-0.927932	-0.311832	0.251564	2.87	-13.65	-13.37	0.3626	0.0736	-0.3959	
-0.930128	-0.32391	0.263642	2.1	-12.95	-12.46	0.3543	0.0876	-0.4045	
-0.915244	-0.308904	0.272914	1.82	-12.25	-10.99	0.35	0.0797	-0.4045	
-0.907436	-0.309636	0.283162	0.77	-12.18	-11.62	0.3515	0.0813	-0.406	
-0.900482	-0.319396	0.27877	1.54	-10.64	-11.9	0.3559	0.0828	-0.4107	
-0.905484	-0.341844	0.290482	0.28	-8.89	-10.5	0.3459	0.0812	-0.4088	
-0.89365	-0.348066	0.295484	1.89	-7.35	-9.31	0.3488	0.0812	-0.4105	
-0.899994	-0.357704	0.298534	2.45	-7.63	-8.75	0.3445	0.0859	-0.4118	
-0.900116	-0.352214	0.299998	1.61	-8.26	-8.96	0.3429	0.0907	-0.4056	
-0.90341	-0.345382	0.310002	1.05	-8.33	-9.31	0.3471	0.0892	-0.4012	
-0.89182	-0.34892	0.307684	1.68	-7.91	-8.12	0.3444	0.0876	-0.4057	
-0.889746	-0.354776	0.315004	1.33	-7.7	-7.07	0.3402	0.0828	-0.4102	
-0.889136	-0.356972	0.310612	-0.63	-7.77	-5.95	0.3474	0.0984	-0.4132	
-0.899262	-0.349286	0.31598	-1.05	-7.77	-4.97	0.346	0.0859	-0.4133	
-0.894992	-0.353556	0.312686	-0.07	-7.49	-5.11	0.3476	0.0905	-0.4194	
-0.898408	-0.375882	0.315858	2.66	-6.79	-6.58	0.3362	0.0858	-0.4206	
-0.900482	-0.384178	0.311832	6.65	-7.07	-9.66	0.3375	0.0984	-0.4144	
-0.89365	-0.37332	0.314394	7.49	-7.28	-13.58	0.3405	0.0936	-0.4206	
-0.875106	-0.374296	0.308782	6.65	-6.16	-8.68	0.3375	0.0937	-0.4144	
-0.88084	-0.33916	0.322324	2.31	-5.67	-6.65	0.3374	0.0984	-0.4113	
-0.87413	-0.355508	0.329522	3.99	-3.92	-6.16	0.3405	0.103	-0.4204	
-0.863882	-0.373198	0.332694	2.87	-3.22	-5.39	0.3322	0.0966	-0.4278	
-0.86925	-0.365024	0.331962	-0.28	-2.87	-4.97	0.3378	0.08419999	-0.4237	
-0.877668	-0.364292	0.3294	-1.05	-2.45	-4.27	0.3378	0.0998	-0.4265	
-0.875716	-0.356362	0.336598	-1.61	-2.1	-4.27	0.3437	0.0997	-0.4312	
-0.877424	-0.373808	0.337452	-1.19	-2.31	-3.64	0.3249	0.092	-0.4231	
-0.876814	-0.371124	0.335866	-0.98	-2.31	-2.8	0.3333	0.0937	-0.4173	
-0.88023	-0.364658	0.334768	-1.61	-2.1	-2.31	0.3333	0.0968	-0.4173	
-0.88572	-0.364048	0.333182	-0.77	-1.82	-2.1	0.3261	0.1062	-0.4169	
-0.873764	-0.361242	0.32269	0.07	-1.54	-1.82	0.3317	0.1125	-0.4155	
-0.878278	-0.366244	0.318786	-0.56	-0.91	-0.98	0.3349	0.1014	-0.4233	
-0.882914	-0.37088	0.319152	-0.49	-0.42	-1.82	0.3405	0.1077	-0.4204	
-0.88084	-0.367464	0.320494	-1.19	-0.35	-2.1	0.3278	0.1108	-0.426	
-0.881938	-0.3599	0.322324	-0.91	-0.14	-2.52	0.3278	0.092	-0.4263	
-0.885842	-0.36417	0.324276	-0.35	-0.14	-2.8	0.3291	0.1108	-0.423	
-0.885476	-0.374174	0.32513	1.12	0.14	-2.59	0.3349	0.1139	-0.4246	
-0.885598	-0.363316	0.321714	0.91	0.21	-2.24	0.3305	0.1093	-0.4215	
-0.889136	-0.361852	0.324642	1.4	0.21	-0.77	0.3349	0.1045	-0.4248	
-0.890478	-0.37271	0.32391	2.38	0.21	0	0.3309	0.1028	-0.4353	
-0.878278	-0.373198	0.32391	1.54	0.42	1.05	0.3319	0.1015	-0.4202	
-0.876448	-0.376126	0.323788	1.26	0.63	1.4	0.3333	0.1014	-0.4202	
-0.874618	-0.375028	0.320006	1.05	0.98	1.54	0.3293	0.0904	-0.4263	
-0.88389	-0.371124	0.322324	0.63	0.63	1.33	0.3233	0.0937	-0.417	
-0.882426	-0.36539	0.32208	1.12	1.05	1.12	0.3392	0.1045	-0.4249	
-0.880962	-0.370514	0.327326	1.47	0.35	0.42	0.3273	0.1048	-0.4079	
-0.873642	-0.372954	0.325496	0.7	0	1.05	0.3378	0.0982	-0.425	
-0.878888	-0.3721	0.331718	0	-0.49	0.56	0.3421	0.0904	-0.4267	
-0.874252	-0.367586	0.33123	-0.21	-0.14	0	0.3322	0.0888	-0.428	
-0.8784	-0.36661	0.330376	0.49	0.21	-0.42	0.3275	0.0937	-0.4156	
-0.874008	-0.370514	0.328424	1.26	0	-0.49	0.3273	0.1079	-0.4109	
-0.877424	-0.368684	0.325984	0.7	0	-0.35	0.328	0.095	-0.4308	
-0.884378	-0.366488	0.327326	0.7	0	-0.28	0.3251	0.1029	-0.4305	
-0.883768	-0.375394	0.328058	1.12	-0.07	-0.14	0.3233	0.0984	-0.4184	
-0.880352	-0.372588	0.330986	0.77	-0.14	0.21	0.3333	0.0999	-0.4187	
-0.881938	-0.366488	0.324154	0	0.14	1.12	0.3394	0.0981	-0.4326	
-0.882182	-0.378078	0.322446	0.98	0.28	1.54	0.338	0.0966	-0.4311	
-0.880108	-0.377956	0.323666	0.84	0.49	1.26	0.3379	0.106	-0.4309	
-0.885354	-0.365512	0.32208	1.4	0.14	1.12	0.3307	0.0967	-0.4263	
-0.88389	-0.363072	0.322934	1.33	0.28	1.4	0.3407	0.0873	-0.4252	
-0.88084	-0.365634	0.323544	1.75	0.77	1.47	0.3334	0.09519999	-0.4218	
-0.885232	-0.361242	0.32452	1.47	1.05	1.33	0.3334	0.0936	-0.4204	
-0.881084	-0.361974	0.32452	1.26	1.12	2.24	0.3447	0.0983	-0.4191	
-0.877912	-0.358192	0.320738	0.42	0.63	1.89	0.3348	0.0983	-0.4203	
-0.88511	-0.368684	0.330132	0.21	0.84	3.22	0.3379	0.0951	-0.428	
-0.884134	-0.359168	0.33001	-0.49	0.35	2.45	0.3262	0.09519999	-0.4201	
-0.890356	-0.358558	0.332572	-0.49	0.42	1.82	0.3249	0.0905	-0.4232	
-0.878644	-0.362584	0.329522	0.42	0.49	1.96	0.3291	0.103	-0.4216	
-0.884988	-0.36295	0.329156	1.61	0.91	1.26	0.3292	0.0904	-0.4248	
-0.880352	-0.359046	0.325496	2.1	1.33	1.89	0.3251	0.0919	-0.4292	
-0.892552	-0.345138	0.324032	1.05	1.89	2.94	0.3278	0.0967	-0.4247	
-0.890722	-0.358802	0.324642	2.8	2.52	4.76	0.3348	0.0858	-0.4205	
-0.887794	-0.359412	0.328424	1.96	2.59	5.11	0.3319	0.09519999	-0.4188	
-0.893772	-0.352824	0.33001	1.75	2.87	7.14	0.3417	0.0968	-0.4145	
-0.890478	-0.35868	0.332816	1.68	3.22	8.4	0.3406	0.0904	-0.4237	
-0.884744	-0.360022	0.326228	2.24	3.57	8.89	0.3305	0.0858	-0.4204	
-0.885964	-0.347212	0.327082	2.8	5.04	11.2	0.3434	0.0904	-0.4222	
-0.881694	-0.345016	0.324886	1.54	5.74	13.09	0.3435	0.0919	-0.4252	
-0.880474	-0.346724	0.322202	0.35	6.58	12.95	0.3447	0.08419999	-0.4178	
-0.891942	-0.33611	0.328668	1.26	6.93	13.51	0.3436	0.0825	-0.4269	
-0.893894	-0.328058	0.328058	1.89	7.42	13.93	0.3403	0.0796	-0.4132	
-0.897432	-0.322812	0.319152	2.94	7.98	14.42	0.339	0.0858	-0.4161	
-0.901092	-0.327326	0.313052	2.1	7.98	15.54	0.3444	0.086	-0.4057	
-0.913902	-0.321592	0.31171	-0.14	8.68	16.52	0.3461	0.0733	-0.4165	
-0.908778	-0.319274	0.303658	-1.19	8.19	17.57	0.3548	0.07009999	-0.4184	
-0.911706	-0.32208	0.304268	-1.89	9.17	16.52	0.353	0.0687	-0.4078	
-0.90951	-0.31598	0.30073	-2.59	10.08	17.71	0.3416	0.0766	-0.4088	
-0.908168	-0.30439	0.28975	-3.36	11.55	17.43	0.3504	0.0702	-0.4152	
-0.925858	-0.299754	0.292922	-6.16	13.44	19.11	0.3476	0.0654	-0.4182	
-0.916708	-0.28853	0.29707	-5.25	14.28	20.79	0.3515	0.0609	-0.4048	
-0.911096	-0.294386	0.288286	-4.41	15.89	23.17	0.3486	0.0657	-0.4016	
-0.914634	-0.281698	0.290482	-5.04	16.59	23.8	0.3628	0.0579	-0.3992	
-0.924516	-0.286334	0.288042	-4.76	17.78	25.41	0.3541	0.0611	-0.3958	
-0.932446	-0.290604	0.275964	-5.39	17.71	26.11	0.3541	0.0642	-0.3942	
-0.944524	-0.26596	0.262178	-7.07	17.5	26.53	0.3624	0.0502	-0.3872	
-0.944036	-0.247782	0.252418	-8.54	16.94	27.37	0.3615	0.05	-0.4038	
-0.94855	-0.244854	0.248636	-9.17	16.45	28.07	0.3683	0.0486	-0.3919	
-0.954284	-0.233752	0.233996	-8.26	16.38	27.79	0.3783	0.0423	-0.3908	
-0.967094	-0.233142	0.229604	-6.09	16.31	27.86	0.3669	0.0485	-0.3934	
-0.96014	-0.231434	0.204716	-0.91	14.77	29.12	0.3694	0.0393	-0.3815	
-0.975024	-0.213744	0.200568	-0.56	14.91	29.68	0.3825	0.0345	-0.388	
-0.967094	-0.185806	0.202276	-1.54	16.94	30.31	0.3823	0.0252	-0.3806	
-0.961238	-0.169214	0.188978	-2.24	17.22	31.15	0.3879	0.0362	-0.3776	
-0.980514	-0.145912	0.188612	-5.25	17.99	32.06	0.3806	0.0222	-0.373	
-0.997228	-0.138592	0.182512	-5.88	19.53	33.88	0.3779	0.0159	-0.3761	
-0.99613	-0.134566	0.174948	-0.63	17.64	33.74	0.3724	0.0127	-0.3835	
-0.999668	-0.133468	0.169946	3.15	16.52	35.7	0.3936	0.0237	-0.378	
-0.985272	-0.119926	0.169824	0.21	14.7	34.51	0.389	0.0082	-0.366	
-1.000644	-0.098942	0.173118	-5.81	15.26	33.88	0.3851	-0.0028	-0.3766	
-0.998326	-0.087718	0.167628	-8.75	14.28	33.95	0.3959	0.0005	-0.3587	
-1.000156	-0.074542	0.153842	-9.03	13.79	34.37	0.3946	-0.012	-0.3619	
-0.99369	-0.07564	0.144448	-6.3	13.86	34.72	0.3904	-0.0167	-0.3618	
-0.993324	-0.041846	0.143228	-4.06	13.3	34.37	0.4001	-0.0056	-0.3529	
-1.0004	-0.037454	0.14945	-7.07	13.65	33.53	0.3959	-0.0213	-0.356	
-1.003084	-0.029402	0.156282	-4.41	14.56	34.58	0.3917	-0.0198	-0.3589	
-1.009794	-0.03294	0.152988	0.56	13.79	32.69	0.406	-0.0182	-0.3578	
-0.999058	-0.001952	0.134444	4.06	13.16	32.9	0.4002	-0.0244	-0.3562	
-0.994666	0.005856	0.123464	7.56	12.6	31.15	0.3843	-0.0321	-0.3498	
-1.003084	0.011956	0.117608	13.37	13.09	33.32	0.3958	-0.0431	-0.3503	
-1.006744	0.037942	0.1159	11.55	15.19	32.97	0.4012	-0.0477	-0.34	
-1.001864	0.048678	0.106262	14.14	14.84	31.36	0.4073	-0.0464	-0.3538	
-1.004426	0.068686	0.104188	12.74	14.07	30.59	0.4041	-0.0524	-0.3417	
-1.006012	0.08967	0.099552	8.82	14.42	32.76	0.4026	-0.0602	-0.3372	
-0.998326	0.109556	0.074054	8.33	13.23	32.34	0.4068	-0.0633	-0.3359	
-1.001986	0.11773	0.0793	1.47	12.39	31.92	0.4054	-0.0743	-0.336	
-1.002596	0.109068	0.084912	1.61	12.39	31.85	0.3952	-0.0757	-0.3296	
-1.004792	0.103456	0.070272	7.21	12.11	32.34	0.3982	-0.0804	-0.3313	
-1.003938	0.117364	0.067466	6.09	12.6	32.62	0.4037	-0.0804	-0.3269	
-1.000034	0.139202	0.052338	5.18	12.25	31.64	0.398	-0.0897	-0.3254	
-1.003328	0.155672	0.050264	-4.55	12.6	31.29	0.4009	-0.0992	-0.3271	
-0.994788	0.169824	0.048556	-8.4	11.62	29.89	0.3993	-0.1131	-0.3197	
-0.995398	0.175436	0.052094	-10.92	11.83	30.87	0.4007	-0.1084	-0.3197	
-1.00711	0.175192	0.048434	-10.78	11.97	33.81	0.4104	-0.1083	-0.3079	
-0.997594	0.19947	0.035258	-9.17	10.36	32.62	0.3995	-0.1117	-0.3273	
-0.997228	0.200446	0.03904	-16.38	10.99	33.95	0.402	-0.1146	-0.3138	
-0.99369	0.205814	0.033672	-20.51	10.64	33.32	0.3979	-0.1147	-0.3212	
-0.990274	0.218014	0.045994	-21.91	10.29	32.83	0.3965	-0.121	-0.3198	
-0.980026	0.21594	0.037454	-18.76	10.36	34.02	0.3923	-0.1319	-0.3213	
-0.983442	0.231678	0.045506	-17.5	9.94	33.6	0.3964	-0.1334	-0.3169	
-0.975268	0.229482	0.04575	-13.16	9.87	33.04	0.396	-0.1348	-0.3018	
-0.976122	0.246806	0.032818	-15.68	10.15	32.48	0.3949	-0.1365	-0.3124	
-0.971242	0.275232	0.038796	-25.55	10.15	31.01	0.3892	-0.1365	-0.3137	
-0.963312	0.294386	0.037088	-30.1	10.5	30.31	0.399	-0.1458	-0.3081	
-0.96197	0.30256	0.046116	-28.63	10.15	29.33	0.3907	-0.1444	-0.3169	
-0.967216	0.29768	0.052826	-24.85	9.52	30.45	0.3863	-0.1443	-0.3107	
-0.965386	0.30744	0.037942	-20.37	8.61	30.66	0.3891	-0.1474	-0.3093	
-0.968924	0.304878	0.041114	-22.89	7.84	30.87	0.3792	-0.1537	-0.3121	
-0.965508	0.324886	0.036844	-26.32	5.74	29.61	0.3967	-0.1539	-0.3233	
-0.952576	0.340014	0.034282	-15.61	3.99	29.33	0.3767	-0.1601	-0.3228	
-0.955626	0.339038	0.023058	-6.37	3.15	28.56	0.3791	-0.1615	-0.3092	
-0.953308	0.359412	0.023302	-7.7	2.73	27.44	0.3763	-0.163	-0.3092	
-0.93757	0.370636	0.028182	-7.84	3.15	26.88	0.3795	-0.171	-0.32	
-0.935496	0.374784	0.026108	-4.62	2.45	25.48	0.3781	-0.1711	-0.323	
-0.925614	0.382958	0.016714	-2.94	2.8	24.29	0.3739	-0.1758	-0.3229	
-0.924272	0.40931	0.00488	-2.59	2.31	21.98	0.3681	-0.1679	-0.3226	
-0.923906	0.42151	0.004148	-0.77	1.05	21.21	0.3709	-0.1679	-0.3197	
-0.926224	0.425902	0.013542	-3.22	0.21	20.58	0.3726	-0.1821	-0.3275	
-0.933178	0.440908	0.015128	0.77	0.84	19.39	0.3809	-0.171	-0.32	
-0.91622	0.442128	0.028548	-2.66	1.19	18.97	0.3649	-0.1849	-0.3107	
-0.90341	0.44042	0.031232	-2.8	1.12	17.43	0.3692	-0.1865	-0.3093	
-0.90341	0.435052	0.032452	0.49	0.77	15.96	0.3653	-0.1883	-0.3228	
-0.908534	0.433832	0.037942	2.87	0.7	14.98	0.3609	-0.1882	-0.3197	
-0.896944	0.445666	0.035136	1.47	0.35	13.51	0.365	-0.2037	-0.3109	
-0.891698	0.444568	0.03355	-0.98	1.12	13.65	0.3623	-0.196	-0.3183	
-0.888648	0.46482	0.028548	-0.84	0.91	12.32	0.3637	-0.1897	-0.3167	
-0.897066	0.472872	0.040748	-0.98	0.77	11.62	0.3596	-0.2039	-0.3214	
-0.90524	0.463112	0.047214	1.96	0.63	10.36	0.3708	-0.196	-0.3156	
-0.897188	0.454816	0.027694	3.15	1.47	10.22	0.3597	-0.2024	-0.3244	
-0.891576	0.483486	0.029402	-2.59	2.45	9.52	0.368	-0.2054	-0.3156	
-0.872788	0.485072	0.030012	-2.31	2.73	10.08	0.355	-0.2037	-0.3121	
-0.892186	0.47702	0.030866	1.33	2.66	9.59	0.361	-0.2117	-0.3185	
-0.885476	0.476166	0.031964	1.33	2.94	7.84	0.361	-0.2086	-0.32	
-0.890234	0.477386	0.029768	1.68	2.66	7.63	0.3567	-0.2132	-0.3199	
-0.892918	0.486048	0.026352	3.22	1.33	5.81	0.3552	-0.2117	-0.3183	
-0.886574	0.485438	0.019642	-0.56	2.31	5.74	0.3624	-0.2085	-0.3185	
-0.892186	0.495686	0.009638	-2.03	2.8	5.18	0.348	-0.2147	-0.3151	
-0.886818	0.486902	0.015494	-2.03	3.15	5.6	0.3609	-0.2085	-0.3154	
-0.893772	0.489098	0.011834	-0.77	2.66	4.13	0.3594	-0.2163	-0.314	
-0.896212	0.484462	0.009272	-0.84	2.8	3.5	0.3561	-0.2145	-0.2987	
-0.894626	0.4819	0.008052	-1.89	2.87	2.8	0.3578	-0.2131	-0.3078	
-0.893772	0.48983	0.00976	-3.64	3.36	1.96	0.3509	-0.21	-0.3151	
-0.89182	0.492392	0.01586	-3.57	3.01	1.26	0.3579	-0.2272	-0.3096	
-0.891088	0.47641	0.01586	-2.73	2.45	0.35	0.3579	-0.2053	-0.3138	
-0.8906	0.47885	0.015128	-2.52	1.96	-0.84	0.3623	-0.2148	-0.3156	
-0.873764	0.47946	0.02074	-2.24	1.75	-0.91	0.3507	-0.2115	-0.3106	
-0.883158	0.485316	0.022326	-0.14	1.82	-1.68	0.3607	-0.2068	-0.3093	
-0.876204	0.483852	0.022082	-0.91	2.31	-0.7	0.3519	-0.2145	-0.3016	
-0.87779	0.492636	0.018422	-0.35	2.31	-0.84	0.364	-0.2087	-0.3261	
-0.87535	0.493368	0.017568	-0.63	2.73	0	0.3635	-0.2068	-0.3094	
-0.885476	0.499224	0.018666	0.49	2.66	0	0.355	-0.2069	-0.3122	
-0.884866	0.49105	0.022326	1.75	1.96	0.49	0.3594	-0.2178	-0.3125	
-0.891088	0.483608	0.016348	2.8	1.68	0.07	0.355	-0.2178	-0.3108	
-0.888648	0.477996	0.005856	1.12	1.82	0.28	0.3694	-0.2147	-0.3128	
-0.88511	0.487268	0.002684	-1.68	2.24	-0.28	0.3594	-0.2069	-0.3138	
-0.88328	0.486292	0.006588	0.28	2.52	-0.7	0.3634	-0.199	-0.3063	
-0.896212	0.476654	0.001952	1.54	2.73	-0.98	0.3493	-0.2146	-0.3091	
-0.898408	0.4758	-0.000122	0.56	3.01	-0.77	0.3621	-0.2084	-0.3079	
-0.9089	0.475678	0.001708	-1.47	2.66	-0.49	0.3479	-0.2084	-0.3105	
-0.88938	0.471652	-0.00122	-1.89	1.82	-1.68	0.3564	-0.2272	-0.3095	
-0.893528	0.479704	0.001098	-0.49	1.47	-2.38	0.362	-0.2005	-0.3078	
-0.887672	0.469578	0.004758	0.63	1.33	-2.52	0.3633	-0.2145	-0.302	
-0.889014	0.475312	0.006222	1.89	1.05	-3.64	0.3562	-0.2271	-0.3035	
-0.890112	0.477386	0.0061	1.54	1.26	-4.06	0.3662	-0.2114	-0.302	
-0.887184	0.480802	0.004026	0.84	1.47	-3.36	0.3632	-0.2129	-0.2989	
-0.890112	0.484462	-0.000488	-0.42	1.68	-3.64	0.3634	-0.2146	-0.305	
-0.894016	0.479704	0.00122	0.21	1.19	-3.64	0.3622	-0.2116	-0.311	
-0.899018	0.473848	0.005002	0.63	0.42	-3.92	0.3732	-0.2067	-0.2991	
-0.897554	0.475922	0.00244	-0.28	0.14	-4.13	0.3549	-0.2083	-0.3062	
-0.89792	0.471286	0.005002	-1.05	0.14	-3.78	0.3703	-0.1941	-0.2973	
-0.900482	0.479094	-0.004514	-2.87	-0.14	-4.55	0.3763	-0.2053	-0.3068	
-0.901458	0.479826	-0.001342	-4.97	-0.21	-4.76	0.3708	-0.2023	-0.3156	
-0.905118	0.477142	-0.003294	-4.48	-1.05	-5.6	0.3593	-0.2006	-0.3122	
-0.909388	0.466284	0.001708	-4.83	-1.19	-6.72	0.3649	-0.2068	-0.308	
-0.917562	0.452986	-0.000366	-2.52	-2.1	-7.63	0.3674	-0.2067	-0.2975	
-0.918416	0.452498	-0.001342	-7	-2.03	-8.54	0.375	-0.2022	-0.3128	
-0.909266	0.462624	0.002806	-8.54	-2.73	-11.34	0.3593	-0.2006	-0.3107	
-0.901336	0.458964	-0.002684	-6.37	-3.29	-14.28	0.3704	-0.1973	-0.3019	
-0.90768	0.453718	0.00854	-3.99	-3.15	-16.31	0.3691	-0.1833	-0.3077	
-0.901824	0.44469	0.014884	-2.66	-3.01	-17.57	0.3738	-0.1898	-0.3186	
-0.900848	0.430294	0.019398	-1.68	-3.08	-19.88	0.3821	-0.1897	-0.3098	
-0.89731	0.44286	0.019398	-4.48	-2.1	-22.47	0.3834	-0.1849	-0.3067	
-0.900726	0.440664	0.02562	-4.48	-1.96	-23.66	0.3865	-0.1929	-0.3145	
-0.901824	0.437614	0.020984	0	-1.26	-24.71	0.3822	-0.1819	-0.3142	
-0.921466	0.438102	0.020374	-2.17	-0.56	-25.83	0.3767	-0.1789	-0.323	
-0.909144	0.42578	0.023668	-4.34	-0.63	-26.11	0.3707	-0.1678	-0.3136	
-0.91195	0.430782	0.027572	-7.42	-0.63	-26.11	0.3808	-0.1663	-0.3184	
-0.915854	0.41907	0.032086	-8.75	-1.12	-26.74	0.3836	-0.1616	-0.3154	
-0.929884	0.399672	0.029768	-5.74	-2.1	-28.21	0.3864	-0.1569	-0.3155	
-0.945988	0.390522	0.03599	1.54	-1.12	-32.13	0.3906	-0.1615	-0.3111	
-0.937082	0.360754	0.034038	2.52	-2.45	-31.57	0.3835	-0.1521	-0.3138	
-0.930616	0.356362	0.02684	4.27	-1.96	-33.6	0.3864	-0.1428	-0.3168	
-0.929152	0.354776	0.034282	2.17	-2.1	-35.84	0.3979	-0.1366	-0.317	
-0.947452	0.34648	0.036722	3.5	-2.66	-37.03	0.3948	-0.1287	-0.3123	
-0.961848	0.320006	0.03294	11.34	-2.45	-38.92	0.405	-0.1351	-0.3187	
-0.965996	0.315126	0.0183	11.06	-1.54	-38.99	0.3965	-0.1241	-0.3198	
-0.966484	0.294996	0.017324	7.49	-0.7	-38.92	0.4065	-0.121	-0.3201	
-0.96685	0.270718	0.027938	12.53	-0.56	-39.55	0.4009	-0.121	-0.3244	
-0.969412	0.257664	0.019642	23.87	0.07	-40.81	0.4055	-0.1228	-0.3352	
-0.970876	0.240096	0.025864	29.82	0.35	-39.55	0.3978	-0.1131	-0.3167	
-0.983442	0.229848	0.016836	25.83	1.26	-38.99	0.3979	-0.1053	-0.3211	
-0.98637	0.205936	0.018178	21.7	0.28	-37.17	0.3907	-0.1099	-0.3179	
-0.99918	0.185318	0.016226	20.02	-0.07	-37.03	0.406	-0.102	-0.3062	
-0.996008	0.159942	0.004514	20.65	0.7	-35.98	0.4144	-0.0847	-0.3016	
-1.01077	0.164456	0.0061	19.25	2.17	-36.47	0.415	-0.0959	-0.32	
-1.01565	0.147132	0.005002	14.49	0.63	-36.68	0.409	-0.08639999	-0.3121	
-1.018822	0.139568	0.00244	13.58	-0.21	-38.29	0.4133	-0.08329999	-0.3137	
-1.012844	0.123708	0.019032	9.73	-1.89	-39.27	0.4148	-0.0818	-0.3167	
-1.003084	0.104066	0.013908	17.78	-2.17	-38.57	0.4204	-0.0724	-0.3137	
-1.006378	0.119438	0.008784	20.02	-3.01	-38.78	0.4175	-0.077	-0.3107	
-1.002108	0.102968	0.018666	8.19	-3.57	-38.22	0.4204	-0.0692	-0.3122	
-1.00345	0.08662	0.002562	7.42	-3.5	-37.87	0.4232	-0.0583	-0.3121	
-1.009794	0.06466	0.017324	10.71	-2.38	-37.52	0.4218	-0.0645	-0.3106	
-1.01443	0.047214	0.005734	13.79	-3.01	-36.68	0.4218	-0.0551	-0.3135	
-1.02297	0.043676	0.012444	11.55	-3.99	-37.24	0.4207	-0.049	-0.324	
-1.022238	0.00976	0.02074	10.85	-4.76	-37.31	0.419	-0.0536	-0.3149	
-1.023458	0.002684	0.010614	18.83	-6.37	-37.1	0.4221	-0.0381	-0.3239	
-1.022726	-0.006466	0.029646	15.75	-7.42	-35.77	0.4203	-0.0363	-0.3102	
-1.005402	-0.023668	0.028792	23.38	-9.17	-34.16	0.4262	-0.0223	-0.3177	
-1.010892	-0.039162	0.025864	24.22	-8.61	-32.76	0.4152	-0.0272	-0.331	
-1.018822	-0.048312	0.037332	22.96	-7	-33.46	0.4221	-0.0287	-0.3237	
-1.00711	-0.04148	0.02196	22.68	-6.51	-33.25	0.4178	-0.0287	-0.3236	
-1.010526	-0.05734	0.044896	20.16	-7.28	-32.83	0.4174	-0.0112	-0.3112	
-1.006866	-0.07381	0.030744	21.07	-8.05	-35.28	0.4162	-0.0177	-0.3203	
-1.01321	-0.102114	0.0366	22.89	-6.86	-34.65	0.4264	-0.0006	-0.328	
-1.015284	-0.119682	0.034526	29.68	-7.77	-34.16	0.4274	-0.0019	-0.3144	
-1.014674	-0.102724	0.037454	28.21	-9.52	-35.21	0.4218	0.0026	-0.3172	
-1.010038	-0.109922	0.055388	21.56	-12.81	-35.28	0.4161	-0.0019	-0.3171	
-1.004182	-0.091012	0.052704	16.38	-13.86	-36.82	0.4151	-0.0069	-0.3307	
-0.999668	-0.106384	0.071736	14.84	-12.81	-32.83	0.4192	0.0088	-0.3246	
-1.006378	-0.118462	0.059536	15.75	-11.69	-28.49	0.4164	0.0072	-0.326	
-0.99552	-0.13298	0.04819	12.46	-12.39	-26.39	0.4178	0.0072	-0.3276	
-1.008696	-0.185318	0.059048	14	-13.58	-24.29	0.4138	0.0118	-0.3349	
-1.00711	-0.20984	0.072468	15.05	-15.26	-24.71	0.4191	0.0229	-0.3243	
-1.02419	-0.216184	0.075518	13.09	-16.1	-22.61	0.4118	0.0199	-0.3181	
-1.007842	-0.205326	0.084912	7.28	-19.46	-23.17	0.411	0.0305	-0.3391	
-0.99735	-0.194712	0.113216	1.4	-17.85	-22.26	0.4195	0.0274	-0.3379	
-0.970754	-0.199714	0.096746	1.68	-17.64	-21.7	0.407	0.0397	-0.3494	
-0.965264	-0.211548	0.146888	-4.06	-17.5	-23.1	0.4069	0.0383	-0.3449	
-0.930006	-0.219844	0.114436	0.56	-18.27	-21.84	0.3942	0.032	-0.3491	
-0.963434	-0.220942	0.153232	-4.06	-15.19	-23.66	0.4015	0.0412	-0.3553	
-0.960994	-0.262178	0.147132	-2.31	-15.68	-20.44	0.403	0.0428	-0.3583	
-0.953918	-0.291092	0.162626	0.49	-16.31	-22.26	0.3941	0.0476	-0.3474	
-0.968802	-0.295606	0.151158	2.38	-17.43	-23.31	0.3874	0.0396	-0.3609	
-0.97356	-0.290482	0.186294	1.12	-15.33	-22.47	0.4015	0.049	-0.3582	
-0.987468	-0.27023	0.158112	2.66	-13.72	-20.23	0.3915	0.0537	-0.3578	
-0.97051	-0.263764	0.16592	3.01	-14.84	-18.76	0.4074	0.0599	-0.3627	
-0.943182	-0.280966	0.164578	3.15	-15.19	-17.43	0.3928	0.0663	-0.3546	
-0.948672	-0.28792	0.17629	-0.21	-14.56	-16.1	0.3972	0.06	-0.3563	
-0.952576	-0.28487	0.194102	-3.78	-14.91	-14.77	0.3932	0.0568	-0.3653	
-0.946354	-0.280234	0.190198	-4.2	-13.65	-11.83	0.3949	0.06439999	-0.3774	
-0.948916	-0.275842	0.202398	-3.92	-13.93	-11.34	0.3845	0.0662	-0.3634	
-0.939034	-0.29463	0.212524	-3.08	-15.19	-12.74	0.3807	0.06439999	-0.3769	
-0.941962	-0.293776	0.193858	-1.26	-14	-12.32	0.382	0.0801	-0.3752	
-0.942206	-0.325496	0.211914	-1.4	-13.23	-11.2	0.385	0.07539999	-0.3784	
-0.93208	-0.337208	0.212036	-0.7	-13.51	-12.32	0.3765	0.0816	-0.3811	
-0.929396	-0.329888	0.219722	-0.77	-13.16	-11.48	0.3695	0.0831	-0.3869	
-0.93574	-0.307928	0.215818	-3.5	-13.3	-11.13	0.378	0.0815	-0.3857	
-0.945134	-0.310856	0.225334	-2.66	-13.72	-10.43	0.3708	0.0785	-0.3825	
-0.931836	-0.30561	0.23668	-1.61	-12.67	-9.94	0.378	0.0894	-0.384	
-0.93635	-0.308416	0.221308	-2.52	-11.55	-9.87	0.3739	0.08769999	-0.39	
-0.927688	-0.32086	0.227164	-2.87	-11.48	-9.24	0.3653	0.0768	-0.3884	
-0.913292	-0.343918	0.240462	-1.61	-10.99	-9.59	0.3682	0.0924	-0.3927	
-0.91805	-0.345138	0.242902	-2.03	-11.34	-9.38	0.361	0.0815	-0.3897	
-0.933178	-0.338306	0.243756	-3.01	-10.92	-7.63	0.3683	0.0924	-0.3943	
-0.929518	-0.331108	0.24278	-2.1	-10.57	-6.51	0.3725	0.0939	-0.3944	
-0.917318	-0.347334	0.254126	0.49	-10.15	-6.65	0.3596	0.0972	-0.3909	
-0.91439	-0.349286	0.244	1.61	-10.15	-6.51	0.3624	0.0925	-0.388	
-0.918538	-0.34709	0.254248	1.05	-9.94	-5.39	0.3584	0.0939	-0.4	
-0.916708	-0.352702	0.260104	-0.91	-9.45	-5.18	0.3596	0.0971	-0.3924	
-0.913292	-0.355142	0.261568	0.07	-8.26	-5.25	0.3612	0.0971	-0.3955	
-0.917318	-0.351116	0.265716	1.05	-7.42	-4.97	0.3598	0.0892	-0.3971	
-0.904874	-0.356728	0.272914	2.59	-7.07	-5.74	0.3515	0.1047	-0.4072	
-0.900238	-0.364536	0.266448	2.59	-6.72	-4.83	0.3582	0.0925	-0.3909	
-0.89487	-0.36417	0.267912	2.59	-6.58	-5.32	0.3542	0.0986	-0.4013	
-0.89609	-0.364658	0.269986	2.03	-5.81	-4.62	0.357	0.0955	-0.3984	
-0.899872	-0.358436	0.277184	1.33	-5.11	-5.53	0.3512	0.0955	-0.3982	
-0.89914	-0.363316	0.289628	0.63	-4.62	-4.41	0.3486	0.0938	-0.4042	
-0.893162	-0.370758	0.28609	2.24	-4.2	-4.76	0.3584	0.097	-0.3984	
-0.887306	-0.379786	0.287188	3.08	-3.29	-4.97	0.357	0.1001	-0.3998	
-0.894748	-0.379298	0.290116	2.94	-2.94	-5.11	0.3415	0.1001	-0.4069	
-0.892064	-0.365878	0.287432	0.91	-2.59	-5.11	0.3503	0.09209999	-0.4134	
-0.886696	-0.361486	0.288652	1.26	-2.24	-4.69	0.3558	0.0938	-0.4075	
-0.882304	-0.382714	0.294508	2.17	-1.68	-4.76	0.3428	0.108	-0.4023	
-0.882914	-0.395768	0.29158	3.22	-1.54	-5.39	0.3516	0.1016	-0.4102	
-0.885964	-0.379176	0.29585	1.75	-1.96	-5.32	0.3431	0.1031	-0.4114	
-0.89426	-0.364292	0.291946	-0.07	-2.17	-4.2	0.3617	0.0999	-0.4136	
-0.897554	-0.364048	0.291458	-1.47	-2.38	-3.22	0.3544	0.1078	-0.4087	
-0.890112	-0.380518	0.293288	-0.98	-1.4	-2.52	0.35	0.0923	-0.4043	
-0.887184	-0.387106	0.294386	0.7	-0.77	-1.61	0.3502	0.1078	-0.4101	
-0.874252	-0.382226	0.286822	1.68	-0.49	-0.98	0.3443	0.1048	-0.4039	
-0.876692	-0.386496	0.287554	0.84	0.21	-1.4	0.3472	0.0985	-0.4071	
-0.883524	-0.377712	0.284138	-0.14	0.07	-2.38	0.3487	0.1047	-0.4101	
-0.894626	-0.371612	0.28914	-0.84	-0.07	-2.38	0.3387	0.1032	-0.4098	
-0.890844	-0.378566	0.288896	-0.21	-0.42	-1.89	0.3429	0.1016	-0.4069	
-0.886696	-0.378078	0.290116	0.42	-0.49	-1.61	0.3445	0.1031	-0.4115	
-0.889258	-0.388082	0.285358	1.54	-0.42	-1.68	0.3486	0.1048	-0.4055	
-0.884744	-0.385764	0.278404	2.1	-0.35	-1.33	0.3444	0.1001	-0.407	
-0.883158	-0.377346	0.28731	0.42	-0.21	-1.19	0.3604	0.103	-0.4165	
-0.888526	-0.373442	0.290482	0	0.07	-1.82	0.3513	0.1064	-0.3996	
-0.88877	-0.375882	0.27938	-0.28	0.35	-2.94	0.35	0.1064	-0.4041	
-0.892796	-0.379298	0.283772	0.07	0.14	-2.45	0.3515	0.0969	-0.4073	
-0.895114	-0.378078	0.283528	-0.56	-0.14	-2.31	0.3475	0.1015	-0.4146	
-0.896334	-0.37515	0.281454	-1.26	-0.42	-2.45	0.3445	0.1047	-0.413	
-0.898652	-0.383934	0.27511	-0.42	-0.28	-2.24	0.3502	0.1047	-0.4116	
-0.896212	-0.387838	0.278648	1.05	-0.28	-0.7	0.3487	0.1063	-0.4085	
-0.904996	-0.391498	0.276818	0.63	0.21	-0.21	0.3472	0.1079	-0.4054	
-0.89609	-0.383812	0.274134	0.7	0.28	0.49	0.3428	0.1111	-0.4037	
-0.898164	-0.376858	0.27267	1.19	1.05	0.42	0.3557	0.1063	-0.4057	
-0.892918	-0.37515	0.281088	1.05	1.05	0.84	0.3544	0.1141	-0.4086	
-0.88389	-0.374296	0.27572	0.35	0.91	0.21	0.3429	0.1111	-0.4053	
-0.886696	-0.378566	0.28121	-0.21	0.56	-0.7	0.3485	0.1048	-0.404	
-0.884256	-0.380396	0.283162	0.77	0.63	-0.42	0.3457	0.1158	-0.4053	
-0.887184	-0.390888	0.287676	0.91	0.77	-0.98	0.3458	0.1126	-0.4068	
-0.886208	-0.381738	0.283894	0.28	0.77	-0.56	0.3471	0.1127	-0.4023	
-0.893284	-0.393694	0.294386	0.77	0.98	-0.98	0.3456	0.1095	-0.4023	
-0.891332	-0.387472	0.291092	0.77	0.84	-1.4	0.3555	0.1127	-0.3996	
-0.886208	-0.378078	0.289262	0.56	0.42	-1.47	0.3443	0.1064	-0.4054	
-0.88938	-0.385032	0.286334	1.19	0.35	-0.91	0.3502	0.1062	-0.4116	
-0.884988	-0.390888	0.285358	0.63	0.42	-0.28	0.3501	0.1047	-0.4086	
-0.890234	-0.388326	0.28487	-0.21	1.05	-0.49	0.343	0.1016	-0.41	
-0.893528	-0.386496	0.28243	0.28	1.4	0.07	0.3458	0.1016	-0.407	
-0.891698	-0.382836	0.280112	0.98	1.75	-0.14	0.35	0.0923	-0.4028	
-0.891942	-0.386252	0.282552	1.75	2.03	-0.07	0.3399	0.1017	-0.4023	
-0.893528	-0.397964	0.285236	2.31	3.08	0.42	0.3471	0.0986	-0.4026	
-0.893528	-0.384544	0.28487	2.52	3.71	1.12	0.3544	0.1078	-0.4102	
-0.88694	-0.380152	0.28243	2.8	4.48	3.78	0.353	0.0953	-0.4073	
-0.89731	-0.385398	0.2867	1.82	4.97	5.53	0.3485	0.1048	-0.4025	
-0.891576	-0.386252	0.282674	1.75	5.25	5.88	0.3472	0.1094	-0.4085	
-0.891088	-0.377834	0.283284	2.59	5.95	6.86	0.3498	0.0986	-0.3981	
-0.899994	-0.376004	0.282918	2.73	6.65	7.63	0.3554	0.1049	-0.3937	
-0.896822	-0.377834	0.274256	2.66	7.07	8.54	0.3569	0.0924	-0.3969	
-0.899994	-0.379664	0.28182	1.33	7.56	9.8	0.3486	0.0954	-0.4057	
-0.89792	-0.387106	0.276452	0.7	7.98	11.13	0.3489	0.0874	-0.4134	
-0.902678	-0.38552	0.270596	2.1	8.54	13.23	0.3526	0.0892	-0.3968	
-0.916464	-0.374784	0.277184	3.64	9.03	14.35	0.3557	0.1016	-0.4043	
-0.913048	-0.345382	0.269376	6.86	7.77	14.84	0.3584	0.09079999	-0.397	
-0.915366	-0.326838	0.271938	6.3	7.56	15.12	0.3582	0.0862	-0.3925	
-0.903898	-0.327204	0.256322	5.6	8.54	15.68	0.3651	0.091	-0.3851	
-0.901458	-0.337574	0.255834	3.29	9.73	16.45	0.3696	0.0815	-0.3914	
-0.903044	-0.351604	0.256322	-0.21	11.76	15.96	0.3625	0.0924	-0.391	
-0.904386	-0.340014	0.250588	-4.06	11.97	17.29	0.361	0.0862	-0.3911	
-0.908412	-0.317566	0.25315	-8.47	13.58	17.29	0.3699	0.0657	-0.3993	
-0.916952	-0.321958	0.26535	-10.5	14.84	18.69	0.367	0.0735	-0.3975	
-0.920368	-0.327814	0.246562	-12.88	14.84	19.6	0.3751	0.0706	-0.3842	
-0.932202	-0.321958	0.240706	-12.95	15.33	20.3	0.3724	0.0674	-0.3887	
-0.929396	-0.316712	0.224602	-13.51	15.4	21	0.3711	0.0752	-0.3931	
-0.925492	-0.293654	0.221552	-15.75	13.3	21.49	0.3753	0.0705	-0.3888	
-0.945378	-0.292922	0.223992	-17.43	13.37	20.79	0.3637	0.0722	-0.3838	
-0.9455	-0.310368	0.208498	-10.99	13.65	22.68	0.3877	0.0645	-0.3726	
-0.953308	-0.302682	0.199958	-5.46	13.3	23.03	0.3907	0.0659	-0.3803	
-0.961238	-0.297924	0.198006	-2.94	13.09	25.41	0.3862	0.07229999	-0.3725	
-0.955382	-0.29768	0.185562	-3.15	12.32	26.74	0.3807	0.0597	-0.377	
-0.953918	-0.281698	0.185928	-5.25	13.16	28.21	0.3846	0.0568	-0.3651	
-0.95526	-0.271816	0.173484	-3.92	13.58	29.33	0.3876	0.0536	-0.3698	
-0.965264	-0.264252	0.170922	-2.87	14.56	30.17	0.3946	0.0489	-0.3655	
-0.961604	-0.243634	0.158966	-5.25	15.4	31.71	0.3845	0.0568	-0.362	
-0.978928	-0.228994	0.151036	-9.52	15.12	32.69	0.3932	0.0458	-0.3655	
-0.98332	-0.221064	0.1403	-9.52	14	32.27	0.3961	0.0457	-0.3686	
-1.001864	-0.230702	0.141642	-6.86	13.58	30.8	0.3983	0.0383	-0.3446	
-1.005036	-0.206912	0.133712	-3.08	13.44	31.01	0.4013	0.0413	-0.3507	
-0.995276	-0.175924	0.13054	-6.09	12.6	31.64	0.4013	0.0288	-0.3479	
-0.973804	-0.13481	0.1159	-12.11	10.92	31.85	0.4054	0.0258	-0.3435	
-0.977098	-0.099186	0.105164	-16.24	11.34	32.34	0.4083	0.0226	-0.3437	
-0.99857	-0.111508	0.099552	-15.33	12.18	32.2	0.4042	0.0209	-0.3511	
-1.012478	-0.118584	0.091134	-6.58	14.77	34.93	0.4099	0.0147	-0.3499	
-1.01077	-0.116144	0.077348	-3.57	14.84	35.7	0.4056	0.0131	-0.3498	
-1.017846	-0.102846	0.104188	-2.59	12.39	34.23	0.4042	0.0069	-0.3483	
-1.030534	-0.077836	0.102968	-0.35	11.41	33.11	0.3996	-0.0054	-0.3378	
-1.0248	-0.05978	0.099674	-1.61	10.22	33.53	0.4028	-0.0071	-0.3485	
-1.001132	-0.025132	0.091256	1.54	9.73	33.6	0.4053	-0.0163	-0.3366	
-0.994544	0.005734	0.080276	-3.78	10.78	34.65	0.4054	-0.0148	-0.3411	
-0.991616	0.00122	0.089548	-11.27	9.94	34.02	0.3998	-0.0148	-0.3425	
-0.997228	-0.018788	0.095404	-4.48	12.67	35.14	0.4098	-0.0211	-0.3429	
-1.01077	-0.0366	0.10004	5.88	12.81	32.9	0.4082	-0.0242	-0.3383	
-1.005524	-0.023668	0.090646	12.81	11.27	33.95	0.4122	-0.0334	-0.328	
-1.011136	-0.008174	0.062342	5.39	12.39	34.51	0.4055	-0.0321	-0.3414	
-1.004182	0.010126	0.06832	-5.74	13.65	34.65	0.4137	-0.035	-0.3296	
-0.996252	0.015494	0.061976	-6.37	14.42	36.54	0.4108	-0.0444	-0.3266	
-1.014552	0.027572	0.056852	-6.02	14.49	36.75	0.4094	-0.0538	-0.3267	
-1.01443	0.032208	0.054656	-7.63	13.86	37.03	0.422	-0.0568	-0.3196	
-1.01382	0.05185	0.040992	-15.05	14.14	36.4	0.4265	-0.0663	-0.3244	
-1.016382	0.072102	0.03599	-14.28	12.6	35.21	0.4132	-0.0645	-0.3119	
-1.016138	0.104188	0.028792	-14	11.13	34.79	0.4077	-0.0755	-0.3164	
-1.014918	0.103334	0.02013	-15.19	10.22	35.91	0.405	-0.0724	-0.3208	
-1.017724	0.117364	0.014884	-11.06	10.29	36.75	0.4103	-0.0848	-0.3091	
-1.002474	0.1159	0.019886	-6.79	10.36	37.31	0.4116	-0.0738	-0.3059	
-1.006134	0.1403	0.00183	7	10.01	36.68	0.4046	-0.0848	-0.3074	
-1.001132	0.152134	0.008905999	5.18	9.24	36.61	0.4088	-0.0941	-0.3046	
-0.999546	0.176778	0.005124	-0.98	8.12	36.19	0.4058	-0.105	-0.3002	
-0.997228	0.18422	0.006588	-1.82	7.7	35.84	0.406	-0.1082	-0.3047	
-0.99125	0.215086	0.000366	-3.22	6.79	35.21	0.4089	-0.1035	-0.3063	
-0.977464	0.217282	-0.004392	-4.27	7.07	36.68	0.4059	-0.1144	-0.3003	
-0.991006	0.215452	0.009881999	-6.3	8.54	37.03	0.4048	-0.1302	-0.3111	
-0.993202	0.21777	0.00061	-5.18	7.77	36.54	0.4073	-0.1332	-0.3006	
-0.990518	0.252052	-0.008052	-11.41	6.93	34.86	0.3931	-0.1285	-0.3016	
-0.990884	0.267424	0.001464	-17.57	6.58	34.02	0.4044	-0.1284	-0.2974	
-0.988932	0.284992	0.005612	-19.32	5.6	33.32	0.4016	-0.1379	-0.3005	
-0.978074	0.2867	-0.000488	-18.55	5.04	32.9	0.4004	-0.1254	-0.3063	
-0.976854	0.29158	0.006222	-25.27	5.32	32.27	0.396	-0.141	-0.3034	
-0.954284	0.30378	0.01586	-19.11	3.85	29.82	0.3946	-0.1536	-0.3036	
-0.940498	0.317322	0.003538	-10.36	2.24	27.37	0.3875	-0.152	-0.3048	
-0.948794	0.34038	-0.007564	2.38	1.89	25.62	0.396	-0.1567	-0.3006	
-0.945378	0.353068	-0.011712	-0.7	3.99	24.57	0.4019	-0.1599	-0.3069	
-0.939278	0.34038	-0.00183	-5.81	4.97	24.92	0.3961	-0.163	-0.3053	
-0.941108	0.365878	0.00244	-4.83	5.25	23.73	0.3893	-0.16	-0.3141	
-0.941962	0.386496	-0.005978	-4.83	5.11	24.01	0.3816	-0.1644	-0.2957	
-0.936106	0.38918	0.000732	-9.87	4.83	25.97	0.3861	-0.1629	-0.3034	
-0.944524	0.374052	0.002196	-8.12	4.06	25.48	0.3872	-0.1831	-0.2917	
-0.94062	0.391376	-0.012566	-4.41	3.5	21.49	0.3759	-0.1738	-0.2957	
-0.94245	0.38979	-0.01403	-4.2	2.38	21.28	0.3771	-0.1799	-0.2883	
-0.938058	0.397354	-0.002318	-4.27	2.52	18.97	0.386	-0.1754	-0.2991	
-0.924394	0.40016	-0.01159	-6.02	3.5	17.64	0.3817	-0.1832	-0.2975	
-0.924394	0.38369	0.001586	-1.05	2.8	14.91	0.3773	-0.1737	-0.2942	
-0.928176	0.401746	-0.010126	4.62	1.75	10.43	0.3847	-0.1817	-0.3022	
-0.910364	0.416386	-0.003782	-1.33	2.87	10.15	0.3846	-0.1848	-0.2992	
-0.90524	0.417362	-0.004758	1.68	3.22	9.03	0.3844	-0.1816	-0.2946	
-0.91378	0.412848	-0.008784	3.01	3.22	8.4	0.3831	-0.1941	-0.2962	
-0.91683	0.42517	-0.008296	6.09	2.66	6.72	0.3715	-0.1972	-0.2914	
-0.911584	0.441274	-0.024156	2.45	2.8	6.93	0.3789	-0.191	-0.2991	
-0.902312	0.447374	-0.012078	-1.75	2.94	7	0.3815	-0.1893	-0.2901	
-0.91012	0.444568	-0.012566	1.12	2.8	5.88	0.3775	-0.1926	-0.3006	
-0.915122	0.435784	-0.018544	0.7	3.57	5.95	0.3817	-0.1957	-0.2962	
-0.910852	0.443348	-0.018056	-0.7	3.64	5.18	0.3845	-0.1973	-0.2948	
-0.910974	0.442616	-0.02623	-3.71	3.99	5.04	0.3772	-0.1956	-0.2915	
-0.915366	0.439444	-0.01525	-4.97	4.69	4.27	0.383	-0.205	-0.2919	
-0.915244	0.435662	-0.01281	0	4.27	2.1	0.3646	-0.1972	-0.2972	
-0.913292	0.428098	-0.01647	2.59	4.13	0.63	0.3729	-0.1972	-0.2914	
-0.91256	0.433832	-0.024522	0.7	4.76	0.14	0.3829	-0.1956	-0.2887	
-0.905484	0.426756	-0.018666	-1.12	4.97	-0.56	0.3829	-0.1893	-0.2901	
-0.913658	0.437126	-0.02684	-0.07	5.11	-1.61	0.3831	-0.1895	-0.2977	
-0.914146	0.439566	-0.028548	0.21	4.69	-1.33	0.3786	-0.1971	-0.2886	
-0.915976	0.439078	-0.027938	-1.33	4.2	-1.4	0.3768	-0.1876	-0.2793	
-0.91439	0.438102	-0.027206	0.84	3.85	-2.1	0.3772	-0.1941	-0.2915	
-0.916098	0.434442	-0.031842	0.98	3.71	-2.73	0.3785	-0.2049	-0.2857	
-0.914756	0.432978	-0.034282	-0.7	3.92	-3.64	0.3815	-0.1941	-0.2917	
-0.91378	0.432856	-0.03355	-2.87	4.13	-4.55	0.3788	-0.1941	-0.2961	
-0.914268	0.432612	-0.036478	-4.27	4.48	-5.18	0.383	-0.1925	-0.2932	
-0.91805	0.426756	-0.038308	-2.66	3.92	-6.16	0.3844	-0.1941	-0.2933	
-0.92049	0.426146	-0.039894	-1.05	3.22	-7.14	0.3714	-0.1924	-0.2868	
-0.916464	0.419436	-0.040748	-1.96	2.8	-7.63	0.3872	-0.18	-0.2916	
-0.936472	0.424194	-0.046116	-4.48	3.08	-8.96	0.3827	-0.1908	-0.2856	
-0.946476	0.42151	-0.055266	-10.08	3.08	-9.66	0.3884	-0.1799	-0.2856	
-0.93269	0.414922	-0.049654	-13.44	3.01	-11.48	0.3911	-0.1829	-0.2797	
-0.944036	0.407114	-0.047214	-8.47	2.31	-12.32	0.3784	-0.1767	-0.2837	
-0.940254	0.38247	-0.046848	-6.16	1.19	-14.07	0.3915	-0.1894	-0.2904	
-0.944158	0.399062	-0.065758	-7.77	0.21	-17.85	0.3903	-0.177	-0.3008	
-0.93452	0.379542	-0.056242	-9.59	-1.68	-18.55	0.3902	-0.1754	-0.2962	
-0.945866	0.375028	-0.055876	-4.76	-2.87	-21.35	0.3946	-0.1692	-0.3008	
-0.956114	0.371856	-0.05917	-6.58	-2.73	-21.56	0.3929	-0.1706	-0.2932	
-0.94611	0.369782	-0.049898	-9.38	-3.15	-22.68	0.3932	-0.1708	-0.3008	
-0.941596	0.364048	-0.051362	-4.41	-4.69	-23.94	0.3932	-0.1629	-0.3021	
-0.956846	0.359046	-0.055266	-5.81	-4.55	-25.9	0.389	-0.1567	-0.3049	
-0.955138	0.343918	-0.046604	-1.05	-6.58	-28.7	0.3944	-0.1488	-0.2974	
-0.948794	0.330986	-0.048068	9.66	-7.56	-29.75	0.4055	-0.1486	-0.2872	
-0.951234	0.330864	-0.055754	13.02	-8.47	-30.8	0.403	-0.1488	-0.2962	
-0.949404	0.335134	-0.047336	5.74	-7.49	-30.8	0.407	-0.144	-0.2887	
-0.975268	0.32269	-0.046116	-0.98	-6.51	-32.34	0.4014	-0.1346	-0.2914	
-0.986858	0.30988	-0.035014	2.38	-5.6	-33.46	0.4058	-0.1316	-0.296	
-0.974292	0.272792	-0.04087	6.51	-6.23	-33.46	0.4055	-0.1204	-0.2868	
-0.991006	0.270352	-0.063196	11.76	-4.97	-34.44	0.4102	-0.1269	-0.3006	
-1.003816	0.263642	-0.054168	9.45	-6.44	-36.47	0.4129	-0.1222	-0.2961	
-0.994544	0.24949	-0.025864	9.38	-9.24	-36.54	0.4086	-0.1143	-0.2958	
-0.976732	0.215452	0.008784	17.15	-11.48	-35.77	0.4062	-0.113	-0.3109	
-0.989176	0.233874	-0.026718	24.43	-10.01	-35.84	0.406	-0.1082	-0.3047	
-0.958554	0.20557	-0.024156	8.54	-10.5	-34.44	0.4218	-0.0958	-0.3111	
-1.0065	0.190442	-0.003538	5.88	-4.9	-31.29	0.4147	-0.1052	-0.311	
-0.992592	0.199836	0.006832	3.71	-6.02	-30.73	0.4115	-0.09869999	-0.2987	
-0.997472	0.204472	0.023424	-6.86	-7.21	-30.52	0.4158	-0.1003	-0.2989	
-0.962092	0.164334	-0.008417999	-16.38	-9.87	-28.07	0.416	-0.0801	-0.3092	
-0.993324	0.173118	0.027206	-8.26	-6.72	-30.03	0.416	-0.0848	-0.3062	
-0.998326	0.18727	0.065758	-10.85	-8.26	-28.07	0.4119	-0.08329999	-0.3121	
-0.991738	0.153476	0.05246	-9.1	-10.78	-25.69	0.4107	-0.0818	-0.3196	
-0.998082	0.122244	0.060146	-5.18	-12.32	-23.24	0.4191	-0.0677	-0.3166	
-1.023824	0.113948	0.077836	1.19	-12.04	-23.03	0.4109	-0.0585	-0.3283	
-1.023214	0.113338	0.075396	-0.77	-11.76	-21.77	0.4193	-0.0584	-0.3241	
-0.996862	0.102358	0.090036	-4.97	-11.48	-18.34	0.4106	-0.0552	-0.3207	
-0.979294	0.09942999	0.088572	-7.56	-11.34	-17.15	0.4149	-0.0506	-0.3223	
-0.973438	0.0915	0.066978	-8.89	-10.64	-15.68	0.4094	-0.0459	-0.3281	
-0.976122	0.078812	0.06832	-8.47	-9.38	-14.63	0.414	-0.0461	-0.3373	
-1.003206	0.049166	0.05856	5.18	-5.95	-15.68	0.4167	-0.0507	-0.333	
-1.034072	0.038308	0.076982	13.02	-3.85	-14.35	0.4163	-0.0412	-0.3222	
-1.036024	0.048678	0.075762	9.94	-4.83	-13.86	0.422	-0.0365	-0.3208	
-1.010282	0.059292	0.091378	1.33	-5.74	-14.07	0.4163	-0.0318	-0.3221	
-0.996496	0.061732	0.099186	0.84	-5.46	-12.32	0.4093	-0.035	-0.3264	
-0.986004	0.059048	0.10431	2.03	-5.39	-10.78	0.4137	-0.0382	-0.3296	
-0.978684	0.05368	0.108824	2.66	-4.97	-10.36	0.4089	-0.0301	-0.3142	
-0.97661	0.038308	0.09028	8.05	-3.15	-10.64	0.4224	-0.0288	-0.3328	
-0.992958	0.028182	0.089426	7	-1.19	-10.36	0.4092	-0.0349	-0.3234	
-1.015162	0.01281	0.099674	8.12	1.4	-9.87	0.4095	-0.0351	-0.3325	
-1.010282	0.014884	0.091134	5.32	0.91	-9.31	0.4181	-0.0351	-0.3328	
-1.014796	0.01708	0.09211	1.61	0.77	-10.08	0.4152	-0.0319	-0.3311	
-1.017114	0.020252	0.088816	3.71	-0.42	-8.75	0.4124	-0.0304	-0.3325	
-1.008452	0.027816	0.074664	-2.31	-0.49	-8.33	0.4095	-0.0241	-0.3323	
-1.013088	0.02928	0.080398	-5.18	0.42	-8.47	0.4167	-0.0257	-0.3356	
-0.995154	0.000732	0.100528	-9.03	1.89	-7.21	0.4053	-0.0241	-0.3352	
-0.998692	-0.016226	0.10187	-4.2	4.62	-5.46	0.4138	-0.0225	-0.3324	
-0.99918	-0.034404	0.104066	0.63	8.05	-2.17	0.4151	-0.0272	-0.328	
-1.001132	-0.051972	0.091378	1.4	9.94	0.21	0.4094	-0.024	-0.3293	
-1.008208	-0.054412	0.07515199	-1.47	10.92	1.61	0.4111	-0.0226	-0.3399	
-1.020408	-0.052582	0.068808	-3.92	10.92	1.68	0.4149	-0.0114	-0.3232	
-1.020042	-0.053192	0.063684	-4.69	9.94	2.8	0.4051	-0.0209	-0.3291	
-1.022116	-0.043798	0.052094	-4.83	8.68	3.15	0.4151	-0.0209	-0.3294	
-1.024434	-0.034526	0.04758	-9.1	5.67	2.24	0.4161	-0.016	-0.3158	
-1.026874	-0.015372	0.03294	-12.95	3.08	0.91	0.4276	-0.0083	-0.319	
-1.028826	-0.026474	0.030744	-16.8	1.89	3.01	0.4147	-0.0144	-0.3157	
-1.027484	0.002562	0.02745	-14.77	0.42	5.53	0.4159	-0.019	-0.3082	
-1.021384	0.019398	0.007686	-6.02	-1.68	8.12	0.4289	-0.0129	-0.3146	
-1.021384	0.002928	0.007442	-0.35	-2.52	10.29	0.4247	-0.0129	-0.316	
-1.031998	0.025864	0.004148	3.71	-3.92	10.5	0.4147	-0.0207	-0.3158	
-1.028948	0.044408	0.008784	4.9	-4.06	11.9	0.4149	-0.0287	-0.3235	
-1.024678	0.057218	0.013542	14	-3.85	13.44	0.4134	-0.0224	-0.3218	
-1.012966	0.043798	0.015738	19.95	-4.34	13.37	0.416	-0.0347	-0.31	
-1.01443	0.091744	0.014762	30.17	-4.83	11.48	0.419	-0.0254	-0.316	
-1.004182	0.093696	0.024034	33.25	-4.55	9.24	0.412	-0.0286	-0.3204	
-1.008696	0.096258	0.036478	35.98	-3.99	6.51	0.4093	-0.0334	-0.3249	
-1.011136	0.12078	0.036966	43.4	-3.15	5.11	0.4091	-0.0442	-0.3175	
-1.017358	0.09747799	0.026108	59.22	-0.77	3.85	0.4191	-0.0536	-0.3164	
-1.018212	0.085278	0.057462	47.74	-5.04	5.39	0.4174	-0.041	-0.3101	
-1.01138	0.092476	0.057218	42.35	-6.79	4.83	0.4159	-0.0628	-0.3059	
-1.014674	0.115046	0.024278	48.3	-11.97	3.64	0.4277	-0.0584	-0.3183	
-1.031022	0.091256	0.033672	41.93	-8.4	1.05	0.4103	-0.0598	-0.3102	
-1.033218	0.084424	0.030988	41.72	-8.68	-0.14	0.4121	-0.074	-0.3211	
-1.021872	0.090402	0.049532	36.54	-8.19	-2.31	0.4163	-0.074	-0.3182	
-1.002718	0.11041	0.038186	33.88	-9.17	-4.83	0.4122	-0.0788	-0.3226	
-1.020896	0.085766	0.060634	32.34	-9.59	-5.39	0.4092	-0.0802	-0.318	
-1.005646	0.063074	0.036234	29.33	-9.94	-6.23	0.4036	-0.085	-0.3225	
-1.022604	0.061	0.071614	31.15	-9.38	-6.16	0.4063	-0.0834	-0.318	
-1.007476	0.079178	0.059902	26.6	-10.5	-7.63	0.4035	-0.0803	-0.3209	
-1.004548	0.063684	0.053924	26.53	-9.66	-8.19	0.4075	-0.0817	-0.3104	
-1.000522	0.068442	0.054534	26.74	-8.89	-9.52	0.4063	-0.0865	-0.318	
-0.995398	0.06466	0.068076	26.18	-8.54	-8.82	0.4048	-0.08329999	-0.3164	
-0.996618	0.070638	0.067222	28.56	-6.79	-8.26	0.4107	-0.09119999	-0.3198	
-0.998082	0.054778	0.10126	29.89	-5.81	-5.81	0.4004	-0.0879	-0.3118	
-0.989054	0.080764	0.083936	22.75	-4.97	-7.56	0.4038	-0.0898	-0.3271	
-0.989786	0.082228	0.093208	21.21	-3.99	-8.68	0.4136	-0.096	-0.3214	
-0.98759	0.064782	0.090036	20.51	-2.73	-9.1	0.4049	-0.0959	-0.3166	
-1.001132	0.049654	0.093452	15.96	-2.38	-9.45	0.4109	-0.0882	-0.3258	
-1.010282	0.061976	0.102846	11.34	-2.59	-9.8	0.4108	-0.0913	-0.3243	
-1.00101	0.05795	0.08723	6.37	-3.01	-9.8	0.4062	-0.08639999	-0.315	
-0.99308	0.056974	0.066368	1.47	-3.01	-9.45	0.4063	-0.0849	-0.3165	
-0.986736	0.046604	0.080764	-0.07	-1.75	-7.77	0.4136	-0.0819	-0.3227	
-1.006134	0.03965	0.083326	-1.26	-0.91	-6.72	0.3976	-0.08639999	-0.3132	
-0.99735	0.057584	0.070882	-3.15	-0.07	-6.02	0.4136	-0.0975	-0.3215	
-1.016016	0.039894	0.083082	-5.39	0.84	-4.48	0.4105	-0.0849	-0.3151	
-1.015284	0.0183	0.086254	-6.86	0.91	-3.71	0.4067	-0.0836	-0.3316	
-1.011136	0.010736	0.091378	-6.86	1.26	-2.45	0.4076	-0.0896	-0.3136	
-0.99857	0.0122	0.096014	-7.28	0.91	-1.96	0.4034	-0.0771	-0.3178	
-1.020164	0.001586	0.10065	-6.44	0.49	-0.77	0.4092	-0.0834	-0.3181	
-1.01321	0.000366	0.087596	-5.46	0.56	-0.63	0.3978	-0.0803	-0.3207	
-1.025776	-0.000366	0.087596	-4.76	0.28	-0.7	0.4094	-0.0851	-0.3257	
-1.015406	0.003782	0.083204	-5.18	-1.4	-0.28	0.4095	-0.0867	-0.3287	
-1.014186	0.004636	0.075396	-4.06	-2.1	0.21	0.4023	-0.0851	-0.327	
-1.01077	-0.005734	0.074542	-3.36	-2.59	0.49	0.4092	-0.0725	-0.3209	
-1.011624	0.00305	0.080642	-1.47	-2.24	1.19	0.4022	-0.0772	-0.3253	
-1.00711	0.014274	0.074298	1.19	-1.75	1.61	0.4021	-0.0818	-0.3209	
-1.007964	0.018178	0.083326	2.31	-0.91	2.52	0.409	-0.077	-0.3119	
-1.00345	0.05063	0.092842	2.17	-0.77	2.8	0.4076	-0.0786	-0.3149	
-1.01382	0.022082	0.091134	0.35	-0.56	3.29	0.4034	-0.0692	-0.3162	
-1.012234	0.033306	0.08662	2.1	0	2.87	0.4064	-0.0756	-0.3209	
-1.00345	0.023302	0.095282	3.15	0.42	2.73	0.4093	-0.0881	-0.3212	
-1.007232	0.030378	0.106994	3.85	0.77	2.87	0.4079	-0.0803	-0.3225	
-0.998936	0.060756	0.111874	2.45	1.19	2.52	0.3992	-0.0802	-0.3192	
-0.994056	0.06283	0.108336	0.42	1.4	2.59	0.4063	-0.0677	-0.3177	
-1.006622	0.028182	0.101504	-1.19	1.12	2.38	0.4034	-0.0927	-0.3135	
-1.011624	0.017568	0.09552599	-1.47	-0.07	2.03	0.4063	-0.0865	-0.3165	
-1.014064	0.038918	0.082472	-0.77	-0.49	1.61	0.4122	-0.0866	-0.3228	
-1.01077	0.045384	0.087474	-0.35	-0.07	1.96	0.4066	-0.0851	-0.3256	
-1.009184	0.033184	0.08784	-0.91	0.49	1.89	0.4022	-0.0772	-0.3238	
-0.998692	0.046116	0.081984	-1.75	0.84	1.26	0.4009	-0.0882	-0.327	
-0.998692	0.048556	0.083326	-1.33	0.84	1.05	0.4135	-0.0756	-0.3196	
-0.99674	0.038186	0.072834	-1.05	0.84	0.91	0.4037	-0.0866	-0.324	
-1.016016	0.030256	0.095282	-0.21	1.33	0.84	0.4066	-0.0804	-0.327	
-1.015528	0.043432	0.093086	-1.61	1.47	1.05	0.4109	-0.0835	-0.3287	
-1.0065	0.044286	0.08479	-3.01	1.12	0.56	0.4049	-0.088	-0.3165	
-1.004548	0.03965	0.087108	-3.64	1.26	0.63	0.4105	-0.0849	-0.3151	
-1.014918	0.042456	0.10065	-2.8	1.4	0.84	0.4004	-0.0801	-0.3117	
-1.001498	0.0488	0.08295999	-3.92	1.19	1.05	0.4121	-0.0865	-0.3197	
-0.998936	0.053802	0.076494	-5.67	0.63	1.12	0.4049	-0.0865	-0.3165	
-1.005158	0.04087	0.07991	-5.95	0.21	1.33	0.4066	-0.0851	-0.3271	
-1.002962	0.058682	0.085644	-5.67	-0.63	1.26	0.4167	-0.0883	-0.329	
-1.004426	0.05795	0.091134	-6.58	-1.12	1.75	0.4034	-0.0865	-0.3164	
-0.996862	0.074054	0.099308	-8.75	-1.47	2.24	0.4062	-0.0817	-0.3149	
-0.992836	0.08784	0.103334	-9.94	-1.33	1.96	0.4019	-0.0895	-0.3119	
-0.983442	0.094428	0.104188	-11.9	-1.33	2.59	0.4065	-0.0835	-0.3241	
-0.974658	0.145424	0.074542	-14.91	-2.1	1.33	0.4078	-0.074	-0.3194	
-0.963312	0.133956	0.080764	-18.48	-1.05	-1.26	0.4021	-0.074	-0.3223	
-0.981124	0.098698	0.110776	-20.51	0.56	-3.08	0.3993	-0.0803	-0.3207	
-1.00528	0.084302	0.13359	-22.75	3.43	-3.36	0.408	-0.0678	-0.3269	
-0.990884	0.06283	0.098698	-28.49	6.72	-2.45	0.4181	-0.0711	-0.3303	
-1.003084	0.087962	0.085766	-28.98	8.82	-2.38	0.4066	-0.0648	-0.3298	
-1.01016	0.06588	0.042822	-35.49	9.66	-3.43	0.415	-0.0584	-0.3239	
-1.024068	0.029402	0.033672	-35.91	10.36	-4.9	0.405	-0.0615	-0.3237	
-1.03944	0.00305	0.045628	-34.72	10.01	-8.26	0.4133	-0.0567	-0.3148	
-1.039928	-0.01464	0.058804	-25.06	8.19	-10.36	0.4119	-0.0504	-0.3146	
-1.034316	-0.004514	0.054412	-20.02	6.3	-12.11	0.4189	-0.0442	-0.3133	
-1.023824	-0.006954	0.044774	-16.38	4.76	-12.6	0.4119	-0.0458	-0.3161	
