Sensor string: B
Serial number: 1970-01-0000
Firmware version: 2,015
Hardware version: 2,2
Calibration quality: 5
ax	ay	az	gx	gy	gz	mx	my	mz

0.050996	-0.911584	0.363316	-0.84	2.1	-1.19	-0.1056	0.2569	-0.3794	Reference
0.042822	-0.917806	0.363194	-1.68	0.91	-0.49	-0.1159	0.2628	-0.391	
0.0427	-0.917562	0.358314	-1.05	0.49	0.14	-0.1096	0.2542	-0.3837	
0.0488	-0.904752	0.357826	0.28	1.05	0.49	-0.1206	0.2648	-0.3835	
0.050142	-0.896456	0.357704	-0.56	0.84	0.7	-0.1111	0.2559	-0.3867	
0.051606	-0.893162	0.36295	-1.26	1.05	0.63	-0.1055	0.2553	-0.3794	
0.049532	-0.899018	0.362218	-1.26	0.42	0.28	-0.1115	0.2591	-0.3822	
0.04819	-0.909632	0.364658	-2.17	-1.47	0.28	-0.111	0.2669	-0.3749	
0.05124	-0.904264	0.360998	-0.35	-2.31	0.35	-0.1104	0.2638	-0.3853	
0.053802	-0.912926	0.360754	-2.66	-3.78	1.12	-0.1087	0.2604	-0.3838	
0.050264	-0.914634	0.358192	-1.33	-4.13	1.33	-0.117	0.2581	-0.388	
0.053192	-0.914878	0.356118	-1.89	-4.9	1.75	-0.1071	0.2603	-0.3883	
0.059902	-0.907558	0.353678	-0.63	-4.41	1.68	-0.112	0.2639	-0.3793	
0.060878	-0.908046	0.3538	-0.77	-4.06	1.47	-0.109	0.2636	-0.3838	
0.062342	-0.91073	0.356972	-1.19	-4.06	1.26	-0.1158	0.2738	-0.3807	
0.065758	-0.90768	0.359168	-0.49	-3.08	1.12	-0.1149	0.2658	-0.3881	
0.069418	-0.906582	0.360876	-0.7	-2.31	1.05	-0.1179	0.2661	-0.3806	
0.070516	-0.905606	0.361486	-1.05	-2.17	0.91	-0.1199	0.2727	-0.3851	
0.070028	-0.909632	0.36173	-1.19	-2.24	0.7	-0.1196	0.2695	-0.3836	
0.069906	-0.910608	0.360876	-0.77	-1.61	0.35	-0.1212	0.2712	-0.3836	
0.063928	-0.917562	0.35685	-0.42	-1.4	0.07	-0.1135	0.264	-0.3778	
0.064782	-0.914024	0.360266	-0.35	-0.28	0.07	-0.1147	0.2785	-0.3808	
0.067466	-0.905606	0.358436	0.63	1.47	-0.14	-0.111	0.2718	-0.3897	
0.065026	-0.904142	0.361974	-1.12	2.24	-0.07	-0.1224	0.2698	-0.3879	
0.061366	-0.906094	0.35807	-0.7	3.15	-0.21	-0.1099	0.2574	-0.3808	
0.055754	-0.909144	0.357826	-1.05	3.29	-0.21	-0.121	0.2696	-0.3865	
0.051362	-0.912316	0.35075	-0.84	3.01	-0.21	-0.1061	0.2633	-0.3824	
0.045628	-0.916952	0.344894	-0.7	2.38	-0.28	-0.1153	0.2706	-0.3881	
0.041236	-0.919148	0.342454	-0.77	2.17	-0.14	-0.1068	0.2714	-0.3824	
0.041236	-0.91744	0.340746	-0.42	2.03	-0.07	-0.1019	0.2645	-0.381	
0.041602	-0.916098	0.342698	-0.49	1.89	0.07	-0.1057	0.276	-0.3855	
0.04209	-0.916342	0.342942	-0.42	1.75	0.07	-0.1149	0.2658	-0.3881	
0.04148	-0.915	0.341844	-0.14	1.12	0.21	-0.1136	0.2656	-0.3778	
0.043066	-0.915244	0.340502	0.28	0.63	0.21	-0.1184	0.2725	-0.3851	
0.042212	-0.92354	0.338794	0.21	-0.07	0.07	-0.1176	0.2613	-0.3777	
0.046238	-0.93086	0.33794	0.63	-0.77	-0.07	-0.1098	0.27	-0.375	
0.04514	-0.930738	0.329888	3.22	-0.42	-0.35	-0.1128	0.2719	-0.3764	
0.037088	-0.937448	0.317688	3.43	-0.98	-0.42	-0.1076	0.2635	-0.3824	
0.031232	-0.954528	0.330254	2.1	-0.63	-0.21	-0.1036	0.2662	-0.3781	
0.015616	-0.95892	0.306952	9.52	2.03	-0.42	-0.1186	0.2741	-0.3836	
0.019032	-0.940132	0.299388	12.18	1.68	-0.42	-0.1102	0.2622	-0.3882	
0.030256	-0.91683	0.29768	16.1	1.75	-1.54	-0.1103	0.2622	-0.3838	
0.046238	-0.926468	0.323544	12.32	0.84	-2.87	-0.1166	0.255	-0.3954	
0.052216	-0.928176	0.340502	14.77	0.63	-3.57	-0.1039	0.2568	-0.3883	
0.043432	-0.928542	0.340502	15.12	1.05	-3.36	-0.115	0.2548	-0.4013	
0.0366	-0.943792	0.346236	13.86	1.19	-2.87	-0.1118	0.2481	-0.3881	
0.031842	-0.946232	0.344284	17.15	4.41	-2.94	-0.109	0.251	-0.397	
0.024278	-0.91927	0.323788	24.01	6.65	-4.06	-0.1099	0.2464	-0.4014	
0.028182	-0.913292	0.324886	22.75	4.69	-4.48	-0.1085	0.2304	-0.3984	
0.033916	-0.932202	0.336232	24.22	2.94	-4.62	-0.1093	0.2416	-0.4058	
0.02684	-0.93513	0.332816	30.94	3.92	-5.81	-0.1078	0.2382	-0.397	
0.029402	-0.913658	0.336354	37.59	4.83	-7.28	-0.1113	0.2323	-0.4072	
0.0305	-0.908168	0.349042	41.37	4.48	-8.05	-0.1058	0.2333	-0.4014	
0.036234	-0.896456	0.376004	44.59	3.64	-8.05	-0.1086	0.2177	-0.4086	
0.031232	-0.876448	0.384056	48.3	4.27	-7.98	-0.1081	0.2146	-0.4145	
0.046604	-0.876204	0.404308	47.81	2.52	-8.54	-0.1034	0.1951	-0.416	
0.114436	-0.837408	0.306098	40.53	-38.57	2.66	-0.1047	0.1952	-0.4234	
0.047702	-0.88877	0.425902	56.42	-10.92	-7.56	-0.1185	0.1903	-0.4304	
0.013542	-0.83021	0.418582	67.62	6.86	-11.27	-0.1118	0.1801	-0.432	
0.042212	-0.814472	0.458476	58.1	-8.54	-7.91	-0.114	0.174	-0.4348	
0.06466	-0.79971	0.473848	59.78	-11.9	-7.7	-0.1093	0.1688	-0.4334	
0.073444	-0.792756	0.487878	62.72	-10.71	-10.22	-0.1121	0.1532	-0.4362	
0.083814	-0.784826	0.512644	64.96	-10.01	-11.55	-0.1181	0.1428	-0.4463	
0.07124799	-0.77226	0.524478	68.95	-9.24	-12.11	-0.1182	0.1159	-0.4609	
0.069296	-0.759206	0.548024	65.66	-12.95	-11.06	-0.1225	0.1306	-0.458	
0.080398	-0.72285	0.557784	73.08	-11.06	-11.06	-0.1241	0.1181	-0.4667	
0.087108	-0.71431	0.591334	68.95	-7.42	-11.34	-0.1318	0.1045	-0.4546	
0.114802	-0.679784	0.603168	73.36	-10.29	-13.3	-0.1266	0.0961	-0.4591	
0.12444	-0.68503	0.619272	70.07	-13.79	-12.67	-0.1294	0.0805	-0.4634	
0.13054	-0.665754	0.631594	75.04	-10.22	-12.6	-0.1298	0.0711	-0.4707	
0.126026	-0.600118	0.660874	80.29	-7.42	-11.55	-0.1352	0.0636	-0.4572	
0.170678	-0.574376	0.68503	80.29	-7.63	-11.48	-0.129	0.0472	-0.475	
0.17019	-0.549244	0.704916	82.11	-6.51	-11.97	-0.1298	0.0251	-0.4763	
0.167872	-0.52826	0.72346	84.98	-4.41	-13.58	-0.131	0.0236	-0.4807	
0.166896	-0.515084	0.75823	82.81	-4.13	-13.58	-0.124	0.008599999	-0.4763	
0.1708	-0.49105	0.76616	83.79	-3.78	-12.88	-0.1266	-0.0068	-0.4895	
0.137494	-0.455426	0.780922	87.43	-1.75	-12.53	-0.141	-0.0261	-0.4772	
0.178486	-0.421266	0.792024	87.01	-2.17	-9.17	-0.1289	-0.0353	-0.4685	
0.166774	-0.370514	0.789462	89.25	-3.64	-9.94	-0.1311	-0.0573	-0.4742	
0.17629	-0.346968	0.797514	86.1	-6.16	-9.73	-0.1276	-0.0766	-0.4845	
0.164334	-0.305122	0.806908	87.99	-6.93	-10.01	-0.1307	-0.0763	-0.4786	
0.181536	-0.275232	0.839482	88.69	-7.91	-9.03	-0.1269	-0.0846	-0.4845	
0.185074	-0.242536	0.845826	86.1	-11.9	-7.56	-0.1193	-0.1077	-0.4727	
0.196176	-0.219966	0.845826	86.03	-11.97	-8.33	-0.1341	-0.1221	-0.4619	
0.205204	-0.178486	0.85461	85.33	-12.46	-8.26	-0.1258	-0.1341	-0.4635	
0.217404	-0.160918	0.866078	80.36	-16.17	-6.86	-0.1304	-0.1463	-0.4678	
0.222162	-0.122976	0.88511	82.18	-13.51	-6.51	-0.1296	-0.1543	-0.4677	
0.236558	-0.086986	0.894626	77.28	-16.1	-3.29	-0.1337	-0.1921	-0.457	
0.232166	-0.08295999	0.923906	74.62	-14	-1.05	-0.1337	-0.2096	-0.4525	
0.244488	-0.034648	0.916586	75.11	-15.4	-1.61	-0.1277	-0.2118	-0.4526	
0.278526	-0.009272	0.9211	73.5	-15.05	-1.33	-0.1374	-0.2029	-0.4406	
0.2684	0.02501	0.938424	73.08	-16.17	-1.05	-0.1309	-0.2258	-0.445	
0.283772	0.051118	0.948428	71.61	-14.49	-2.03	-0.1375	-0.2379	-0.4271	
0.286212	0.07515199	0.948794	67.69	-15.68	-1.54	-0.1397	-0.2457	-0.424	
0.297436	0.089792	0.950624	65.59	-14.56	-2.1	-0.1385	-0.2601	-0.4225	
0.313418	0.120536	0.959408	63.28	-14.28	-1.75	-0.1344	-0.2748	-0.4165	
0.296094	0.141764	0.958188	59.85	-14.35	-1.68	-0.1427	-0.2804	-0.4119	
0.312076	0.13786	0.96258	56.14	-12.25	-2.17	-0.1469	-0.2832	-0.4044	
0.300974	0.167506	0.953918	54.53	-14	-0.28	-0.1412	-0.298	-0.4074	
0.301706	0.178364	0.95526	50.89	-13.86	-0.91	-0.141	-0.3045	-0.3896	
0.311588	0.176412	0.948062	47.32	-14	0.14	-0.1482	-0.3038	-0.3938	
0.329522	0.186782	0.93818	44.52	-16.52	2.66	-0.1434	-0.3123	-0.3821	
0.324154	0.244854	0.938058	47.53	-15.82	2.52	-0.1389	-0.3143	-0.3822	
0.321226	0.280722	0.941718	46.34	-16.59	0.91	-0.1465	-0.3279	-0.376	
0.338062	0.269498	0.934642	44.24	-17.78	-2.24	-0.1552	-0.327	-0.3773	
0.342942	0.266448	0.934276	42.98	-17.29	-3.78	-0.1548	-0.3335	-0.3684	
0.35014	0.272426	0.935374	41.58	-16.87	-3.29	-0.1473	-0.3374	-0.3656	
0.35319	0.299876	0.942206	42.28	-14.14	-3.36	-0.1508	-0.3466	-0.3639	
0.36783	0.321592	0.942694	39.06	-14.49	-3.01	-0.1572	-0.3412	-0.3579	
0.364536	0.352702	0.938302	36.82	-13.93	-3.64	-0.1539	-0.3463	-0.3565	
0.377224	0.355386	0.932812	33.32	-12.11	-4.06	-0.1522	-0.3672	-0.349	
0.397964	0.359534	0.938912	28.98	-11.9	-3.64	-0.1583	-0.3651	-0.3429	
0.393816	0.379786	0.923296	29.4	-8.54	-3.15	-0.1535	-0.3687	-0.3489	
0.402722	0.372466	0.927078	23.52	-9.38	-2.24	-0.1553	-0.367	-0.34	
0.400282	0.392718	0.93025	23.24	-5.53	-2.1	-0.157	-0.3652	-0.337	
0.402478	0.393938	0.936228	19.81	-5.46	-2.03	-0.1618	-0.3775	-0.3324	
0.397964	0.40809	0.932446	19.18	-2.66	-2.94	-0.1532	-0.3768	-0.3312	
0.401136	0.406504	0.941352	13.72	-2.8	-1.33	-0.1544	-0.3782	-0.3355	
0.400648	0.428464	0.946232	12.25	0.42	-1.19	-0.1663	-0.3787	-0.3205	
0.402844	0.429684	0.945744	7.98	0.21	-0.56	-0.1568	-0.386	-0.328	
0.417362	0.442494	0.937326	6.23	0.63	-1.05	-0.1525	-0.3864	-0.3237	
0.413458	0.442738	0.938546	1.05	1.54	-0.14	-0.1567	-0.3876	-0.3251	
0.417362	0.442616	0.937204	-2.38	2.66	0.28	-0.159	-0.3937	-0.3294	
0.414434	0.444934	0.938912	-6.37	4.34	0.91	-0.1527	-0.3832	-0.3296	
0.41602	0.453596	0.935252	-9.94	5.95	1.19	-0.1588	-0.381	-0.3236	
0.40992	0.443836	0.942816	-15.05	7.63	1.47	-0.1604	-0.3776	-0.3295	
0.40931	0.444202	0.942572	-18.13	8.33	1.47	-0.1534	-0.3735	-0.3371	
0.407114	0.432368	0.948062	-22.82	8.82	1.61	-0.1503	-0.3754	-0.3401	
0.404674	0.422608	0.955992	-24.78	11.48	2.03	-0.1467	-0.3821	-0.3416	
0.396866	0.416996	0.958798	-28.84	11.48	3.29	-0.1555	-0.3654	-0.34	
0.385398	0.415532	0.956114	-30.03	12.67	3.57	-0.1628	-0.3614	-0.3502	
0.377346	0.399794	0.954284	-34.09	12.04	4.69	-0.1463	-0.3678	-0.3536	
0.372466	0.388692	0.955382	-36.89	11.97	6.09	-0.1516	-0.3545	-0.3609	
0.354532	0.361486	0.975146	-44.31	20.86	6.58	-0.1621	-0.3519	-0.3547	
0.35868	0.367708	0.94245	-50.05	10.01	10.01	-0.1458	-0.3567	-0.3566	
0.34831	0.351726	0.950502	-47.6	15.47	9.52	-0.1505	-0.3339	-0.364	
0.351726	0.326716	0.95343	-54.53	13.44	11.27	-0.1463	-0.3295	-0.376	
0.34343	0.29524	0.954772	-56.91	15.54	11.69	-0.1438	-0.3266	-0.3702	
0.347334	0.274378	0.952332	-60.2	14.91	12.6	-0.1473	-0.3167	-0.382	
0.339648	0.239974	0.956236	-63.56	17.36	13.09	-0.1475	-0.3118	-0.3923	
0.335866	0.220698	0.95038	-67.34	17.43	14	-0.1361	-0.3081	-0.4	
0.3233	0.198128	0.950258	-69.72	19.04	13.3	-0.1477	-0.2911	-0.4028	
0.324276	0.153964	0.9394	-74.97	18.27	14.98	-0.1523	-0.2699	-0.4117	
0.2989	0.127246	0.943182	-75.11	22.26	14.7	-0.1484	-0.2639	-0.4148	
0.286212	0.098942	0.922076	-79.1	20.72	14.98	-0.1381	-0.2474	-0.424	
0.275232	0.05856	0.908168	-79.87	20.44	14.42	-0.146	-0.2403	-0.4254	
0.254004	0.031476	0.903776	-79.8	21.98	14.77	-0.1421	-0.2327	-0.4358	
0.246074	0.011346	0.896822	-81.2	21.77	14.7	-0.1392	-0.2171	-0.436	
0.237656	-0.02501	0.893406	-83.93	21.07	13.79	-0.1409	-0.2121	-0.4434	
0.229848	-0.076982	0.87657	-86.73	20.51	12.81	-0.1368	-0.1902	-0.454	
0.220332	-0.113948	0.882304	-87.85	21.35	12.18	-0.1422	-0.1627	-0.4555	
0.208132	-0.140544	0.874618	-88.76	21.21	11.9	-0.1325	-0.1573	-0.4573	
0.210206	-0.177754	0.86742	-88.9	20.02	11.69	-0.1399	-0.1374	-0.4661	
0.199836	-0.205692	0.855342	-88.83	21.28	11.69	-0.1405	-0.131	-0.4646	
0.185318	-0.224968	0.845704	-90.37	22.68	10.43	-0.1344	-0.1173	-0.4708	
0.173484	-0.259494	0.825818	-94.78	21.07	11.48	-0.126	-0.0975	-0.4726	
0.171654	-0.291458	0.808616	-96.11	21.07	10.85	-0.1362	-0.0806	-0.471	
0.160064	-0.31903	0.77531	-99.89	20.37	10.92	-0.1214	-0.0677	-0.4759	
0.136884	-0.338794	0.758108	-100.8	20.37	10.71	-0.1261	-0.0482	-0.4759	
0.117364	-0.373076	0.746762	-105.49	18.55	9.45	-0.1202	-0.0313	-0.4821	
0.10492	-0.431148	0.741882	-111.51	17.78	9.73	-0.1227	-0.0216	-0.4747	
0.097722	-0.452376	0.69479	-112.35	17.36	9.94	-0.1227	-0.0041	-0.4822	
0.08723	-0.503128	0.664656	-113.26	17.64	10.36	-0.1176	0.0191	-0.481	
0.065026	-0.552294	0.638548	-116.13	15.82	10.85	-0.1221	0.0354	-0.4751	
0.044896	-0.616222	0.615612	-111.86	13.02	9.94	-0.1218	0.0481	-0.4752	

0.019764	-0.677466	0.552416	-104.79	11.9	9.03	-0.1173	0.0904	-0.4652	
0.042944	-0.727608	0.538874	-103.18	12.39	8.96	-0.1128	0.1042	-0.4625	
0.017812	-0.762378	0.502274	-97.72	11.55	10.22	-0.1171	0.1189	-0.461	
0.00732	-0.794342	0.484828	-92.4	13.93	12.11	-0.1173	0.1364	-0.4552	
0.022692	-0.824354	0.456402	-85.68	15.54	11.48	-0.1156	0.1473	-0.4509	
0.017934	-0.85888	0.44103	-79.1	16.73	8.12	-0.1113	0.1627	-0.4466	
0.016958	-0.84546	0.43249	-71.96	17.5	6.72	-0.1105	0.169	-0.4423	
0.008784	-0.85461	0.406382	-74.41	13.16	7.49	-0.1138	0.1883	-0.4394	
0.008296	-0.856684	0.387228	-68.04	14.77	7.77	-0.1041	0.1888	-0.4233	
-0.025986	-0.880474	0.365024	-73.15	12.67	8.54	-0.1061	0.1938	-0.4218	
-0.024034	-0.874618	0.333792	-65.03	12.39	8.96	-0.09999999	0.2075	-0.425	
-0.002318	-0.89243	0.368074	-68.53	11.97	7.42	-0.1071	0.2192	-0.4131	
-0.01891	-0.878766	0.32635	-55.09	10.71	7.21	-0.0988	0.2232	-0.4148	
0.012566	-0.900848	0.31171	-52.92	12.04	4.34	-0.0936	0.2416	-0.4003	
-0.011224	-0.920856	0.31049	-49.07	14.14	2.38	-0.0916	0.2493	-0.3945	
-0.044652	-0.928786	0.294264	-48.3	12.32	3.29	-0.09119999	0.2461	-0.3974	
-0.03843	-0.950014	0.260836	-46.27	8.89	3.85	-0.0906	0.2556	-0.399	
-0.06039	-0.970754	0.278282	-46.69	6.16	4.06	-0.0874	0.263	-0.3799	
-0.067222	-0.946476	0.255224	-32.2	7.91	3.01	-0.0872	0.2631	-0.3888	
-0.014884	-0.949282	0.2562	-36.54	5.18	3.22	-0.0897	0.2728	-0.3829	
-0.019276	-0.954528	0.25071	-32.55	3.43	3.15	-0.0884	0.2743	-0.38	
-0.0305	-0.96746	0.236436	-31.29	2.8	3.36	-0.0903	0.2776	-0.3725	
-0.062098	-0.969534	0.219234	-28.35	1.54	2.8	-0.0927	0.2873	-0.3711	
-0.018178	-0.970876	0.208254	-30.73	-3.08	5.6	-0.0784	0.2891	-0.3714	
0.001586	-0.977342	0.230092	-36.26	-4.83	9.03	-0.0888	0.2884	-0.3579	
-0.002318	-0.97112	0.222406	-22.89	-0.84	6.16	-0.0922	0.2919	-0.3504	
-0.036356	-0.956358	0.221552	-19.95	1.47	4.27	-0.0901	0.3028	-0.3565	
-0.016592	-0.944524	0.195932	-26.18	-2.66	6.02	-0.0914	0.3014	-0.3579	
-0.0183	-0.976244	0.189954	-26.95	-0.84	6.3	-0.0885	0.2995	-0.3535	
-0.042578	-0.985882	0.190442	-24.85	-1.89	6.93	-0.086	0.3024	-0.3492	
-0.012688	-0.999912	0.183732	-25.34	-1.82	8.4	-0.0835	0.3085	-0.3537	
-0.035868	-0.999058	0.188856	-16.03	1.68	6.51	-0.0847	0.3181	-0.3419	
-0.04697	-0.97356	0.185074	-12.39	0.84	5.95	-0.08859999	0.3153	-0.3462	
-0.031842	-0.966728	0.191418	-13.16	-0.91	6.09	-0.0709	0.3104	-0.3467	
-0.030256	-0.96807	0.195444	-9.8	-0.28	5.53	-0.0851	0.3229	-0.3419	
-0.018422	-0.965508	0.19459	-12.74	-1.75	6.16	-0.0814	0.313	-0.3405	
-0.023912	-0.969778	0.191662	-11.27	-1.82	4.9	-0.0816	0.3162	-0.3435	
-0.029036	-0.966362	0.19459	-15.33	-2.31	5.6	-0.081	0.3224	-0.3317	
-0.023668	-0.965508	0.186782	-15.05	-1.26	5.88	-0.0887	0.3279	-0.3301	
-0.035502	-0.946354	0.183122	-12.25	-1.19	4.55	-0.0832	0.3305	-0.3317	
-0.051484	-0.942938	0.184952	-11.55	-1.33	2.87	-0.0757	0.3266	-0.3259	
-0.019032	-0.962214	0.184098	-16.87	-3.5	2.94	-0.0702	0.3292	-0.3276	
-0.023546	-0.96563	0.18605	-14	-2.17	3.08	-0.086	0.3292	-0.3287	
-0.036478	-0.961848	0.183854	-14	-2.59	3.43	-0.083	0.3273	-0.3258	
-0.032086	-0.984906	0.183488	-17.85	-3.29	4.76	-0.0828	0.3273	-0.3332	
-0.050874	-0.985882	0.174704	-14.98	-5.32	6.72	-0.0806	0.3302	-0.3185	
-0.049288	-0.978074	0.176534	-13.51	-5.74	7	-0.0857	0.3386	-0.3154	
-0.040748	-1.03029	0.192394	-9.73	7.63	2.87	-0.0705	0.3292	-0.3128	
-0.061732	-0.952088	0.1586	12.67	9.94	-2.1	-0.0749	0.3329	-0.326	
-0.046482	-0.966972	0.170068	-3.36	1.68	3.29	-0.0756	0.3392	-0.3186	
-0.047336	-0.984052	0.17934	-10.15	-2.52	6.02	-0.08549999	0.3354	-0.3154	
-0.053436	-0.98515	0.160674	-7.91	-4.27	6.37	-0.0699	0.337	-0.3099	
-0.051484	-0.979416	0.15616	-5.95	-4.2	4.62	-0.0726	0.3373	-0.3172	
-0.0427	-0.969656	0.15433	-2.94	-3.36	2.59	-0.0799	0.338	-0.3156	
-0.051484	-0.952942	0.147864	2.24	-0.77	0.14	-0.0682	0.3353	-0.3129	
-0.034404	-0.960384	0.139568	-2.66	-4.27	-0.42	-0.0813	0.3366	-0.314	
-0.053314	-0.970266	0.141886	-1.12	-3.64	-1.26	-0.0841	0.3385	-0.3243	
-0.051118	-0.979782	0.128344	-2.73	-4.97	-1.26	-0.0805	0.3428	-0.3082	
-0.06161	-0.997106	0.12566	-1.82	-5.81	-0.91	-0.0827	0.351	-0.3067	
-0.063806	-0.987956	0.126636	1.82	-5.95	-1.19	-0.0846	0.3433	-0.3199	
-0.066856	-0.975634	0.133956	4.34	-3.78	-1.61	-0.0812	0.3382	-0.3214	
-0.050508	-0.9699	0.141764	3.08	-2.94	-1.26	-0.0722	0.3325	-0.3157	
-0.055022	-0.970632	0.13908	0.28	-3.99	-0.28	-0.0896	0.3485	-0.3124	
-0.062952	-0.97966	0.13725	-3.99	-5.46	0.91	-0.0854	0.3403	-0.3347	
-0.06405	-0.989786	0.130296	-2.66	-3.78	0.49	-0.084	0.3337	-0.311	
-0.063928	-0.990884	0.132004	-1.89	-4.13	0.63	-0.0804	0.3429	-0.3156	
-0.06344	-0.998448	0.132858	-2.52	-4.41	1.26	-0.0747	0.3439	-0.3128	
-0.052094	-0.998082	0.127734	-1.61	-3.22	1.12	-0.0852	0.3448	-0.3007	
-0.056486	-0.991494	0.127124	0.63	-1.33	0.63	-0.0774	0.3426	-0.3157	
-0.06588	-0.986736	0.118828	1.05	-0.42	0.77	-0.0834	0.3447	-0.314	
-0.067954	-0.992226	0.11407	-0.49	-1.54	0.49	-0.0805	0.3412	-0.3023	
-0.065392	-1.00467	0.105042	0.98	-1.33	-0.14	-0.0846	0.34	-0.3066	
-0.059536	-1.006256	0.10431	3.85	-1.61	-0.91	-0.0815	0.3382	-0.3111	
-0.062586	-1.012112	0.110654	5.11	-2.52	-1.82	-0.0879	0.3309	-0.3183	
-0.064294	-0.998814	0.116998	6.23	-3.43	-3.08	-0.0901	0.3391	-0.3168	
-0.063318	-0.97905	0.116754	12.04	-0.7	-5.25	-0.0814	0.3382	-0.3141	
-0.054656	-0.99125	0.12078	10.15	-0.28	-5.18	-0.0817	0.343	-0.3215	
-0.050996	-1.00406	0.130784	10.15	-0.63	-5.67	-0.0923	0.3313	-0.3137	
-0.058804	-1.000522	0.141032	10.29	-1.61	-6.37	-0.0895	0.3359	-0.3271	
-0.063074	-1.005524	0.14396	9.31	-1.26	-6.44	-0.0817	0.3271	-0.3199	
-0.070272	-1.015772	0.13542	11.48	-0.56	-6.86	-0.0879	0.3183	-0.3285	
-0.073444	-1.023824	0.13115	12.81	-1.75	-6.23	-0.0884	0.3247	-0.33	
-0.074664	-1.017968	0.137128	16.17	-2.8	-6.79	-0.0896	0.3359	-0.3242	
-0.067588	-1.00894	0.147376	21.98	-0.84	-9.24	-0.0907	0.3312	-0.3212	
-0.040016	-1.015894	0.163968	24.01	2.52	-10.15	-0.0922	0.322	-0.3418	
-0.10309	-0.991982	0.181902	31.57	-1.12	-15.12	-0.0891	0.3169	-0.3329	
-0.016958	-1.003816	0.204472	4.69	-9.66	-5.81	-0.0971	0.3223	-0.3209	
0.01464	-1.011258	0.239974	11.97	-6.02	-7.63	-0.1013	0.3244	-0.3356	
0.034648	-0.99613	0.227896	28.77	11.76	-15.12	-0.0966	0.3208	-0.3357	
0.031598	-0.979782	0.219478	32.83	14.63	-18.2	-0.0911	0.3108	-0.3461	
0.010248	-0.98393	0.223382	27.93	13.65	-15.33	-0.0892	0.3059	-0.3476	
-0.022082	-0.990884	0.21777	22.26	7.35	-11.06	-0.092	0.3062	-0.352	
-0.002684	-1.007598	0.196054	19.04	-0.42	-6.58	-0.094	0.2952	-0.3489	
-0.000854	-1.003572	0.228384	31.15	-0.21	-6.79	-0.0985	0.2973	-0.3488	
0.081862	-0.995764	0.250954	36.33	0.84	-4.34	-0.0964	0.2924	-0.3562	
0.06161	-0.971242	0.298534	37.45	0.91	-4.55	-0.1041	0.2979	-0.359	
0.000854	-0.89731	0.331718	44.94	4.76	-5.04	-0.1029	0.2851	-0.3605	
-0.061488	-0.87596	0.302804	38.64	7.28	-2.31	-0.1066	0.2808	-0.3677	
-0.08784	-0.884622	0.17873	30.38	-5.32	1.68	-0.1024	0.2835	-0.3738	
-0.0732	-0.962458	0.182756	17.5	-10.15	2.17	-0.0947	0.2796	-0.3798	
0.0305	-0.936472	0.316346	9.45	-7.91	-3.64	-0.1001	0.2754	-0.3767	
0.026474	-0.948794	0.291214	55.23	-3.08	-13.37	-0.1004	0.2627	-0.3781	
-0.031232	-0.87474	0.2379	62.23	-5.11	-11.34	-0.1049	0.2648	-0.3795	
-0.006344	-0.857904	0.324886	42.84	-10.43	-8.26	-0.105	0.2489	-0.3735	
0.058072	-0.873886	0.324642	45.01	-13.02	-10.08	-0.1078	0.2525	-0.3912	
0.010248	-0.85034	0.310002	57.12	-4.06	-13.37	-0.1107	0.2544	-0.3955	
0.003782	-0.841312	0.358924	53.69	2.31	-13.44	-0.1066	0.2429	-0.4044	
0.020984	-0.806542	0.3965	59.15	-0.49	-12.04	-0.1091	0.2225	-0.4027	
0.005612	-0.827404	0.425292	57.26	-0.84	-12.32	-0.1097	0.2163	-0.416	
0.03538	-0.843996	0.465674	57.68	-4.62	-8.19	-0.0971	0.2056	-0.4192	
0.052704	-0.830698	0.468968	57.4	-13.86	-7.7	-0.1058	0.1889	-0.4159	
0.09699	-0.810202	0.463844	60.9	-5.25	-9.1	-0.1068	0.1859	-0.4233	
0.044774	-0.804834	0.48129	64.05	6.79	-11.48	-0.109	0.1798	-0.4261	
0.010858	-0.799832	0.473238	61.74	-2.03	-10.36	-0.1121	0.1691	-0.4363	
0.041236	-0.811178	0.46238	61.74	-8.54	-8.75	-0.108	0.1718	-0.4379	
0.061732	-0.786046	0.47519	67.83	-2.94	-11.41	-0.1131	0.1518	-0.4495	
0.030866	-0.7686	0.499346	72.52	0.98	-13.58	-0.1122	0.1406	-0.4465	
0.034038	-0.739564	0.535458	70	-1.96	-12.25	-0.1152	0.125	-0.4419	
0.096746	-0.722484	0.545706	70.07	-10.29	-10.29	-0.1128	0.1185	-0.4552	
0.075884	-0.726998	0.544974	72.66	-9.1	-12.6	-0.1134	0.1107	-0.464	
0.06588	-0.734074	0.56852	74.41	-10.22	-14.63	-0.1228	0.102	-0.4578	
0.091134	-0.697474	0.602802	79.24	-10.15	-13.23	-0.1182	0.0841	-0.4607	
0.081984	-0.640256	0.62708	83.23	-6.23	-13.3	-0.1113	0.074	-0.4697	
0.13359	-0.610122	0.70272	79.87	-10.08	-11.83	-0.1151	0.068	-0.471	
0.129076	-0.601948	0.705648	80.71	-11.83	-14.91	-0.1061	0.0497	-0.4741	
0.11834	-0.59292	0.686982	81.69	-10.22	-14.35	-0.1206	0.0353	-0.4796	
0.138226	-0.56181	0.710162	82.53	-7.07	-10.92	-0.1227	0.0101	-0.4749	
0.108702	-0.506544	0.737612	86.59	-3.71	-10.01	-0.1192	0.005	-0.4838	
0.099064	-0.473238	0.77409	82.88	-5.88	-7.35	-0.1263	0.0025	-0.4777	
0.132004	-0.449448	0.779214	81.9	-10.71	-8.68	-0.1161	-0.0143	-0.4779	
0.170922	-0.443958	0.780068	81.97	-12.32	-9.45	-0.1146	-0.0319	-0.4733	
0.176656	-0.413336	0.764574	84.91	-11.83	-10.15	-0.1294	-0.0415	-0.4803	
0.162138	-0.35868	0.769088	85.61	-9.59	-8.61	-0.1328	-0.0523	-0.4816	
0.149084	-0.310368	0.836066	87.57	-4.55	-7.91	-0.1193	-0.0743	-0.4774	
0.144326	-0.28548	0.865102	81.83	-12.88	-4.69	-0.1189	-0.0982	-0.4669	
0.167628	-0.303048	0.863638	78.96	-14.56	-8.33	-0.1327	-0.0889	-0.4681	
0.182512	-0.264252	0.864858	79.45	-12.04	-7.98	-0.1294	-0.1066	-0.4769	
0.224724	-0.226432	0.868396	79.73	-12.81	-7.07	-0.1264	-0.126	-0.468	
0.20069	-0.154574	0.902922	78.89	-12.39	-6.79	-0.1218	-0.1472	-0.4621	
0.189222	-0.128832	0.927688	75.81	-14.84	-4.76	-0.1298	-0.1669	-0.475	

0.228262	-0.075274	0.948428	71.96	-14.63	-4.76	-0.1286	-0.1846	-0.4572	
0.234118	-0.043188	0.941474	69.93	-16.03	-3.43	-0.1339	-0.1888	-0.4615	
0.247416	-0.013176	0.94062	68.46	-15.4	-4.27	-0.1409	-0.2088	-0.4538	
0.252906	0.00366	0.956846	65.73	-15.12	-5.46	-0.1293	-0.2116	-0.4467	
0.242048	0.01952	0.94855	61.88	-16.66	-4.48	-0.1261	-0.2343	-0.4362	
0.26291	0.06527	0.956968	60.06	-15.75	-4.48	-0.1297	-0.2243	-0.4407	
0.262056	0.058682	0.962214	55.72	-14.91	-6.16	-0.1293	-0.2483	-0.4287	
0.264862	0.05368	0.947696	51.87	-17.64	-5.25	-0.1273	-0.2548	-0.4287	
0.258762	0.066856	0.951478	54.81	-13.16	-5.53	-0.1357	-0.2572	-0.4285	
0.273158	0.080764	0.955138	51.8	-15.19	-4.41	-0.1441	-0.2627	-0.4193	
0.271328	0.089182	0.946842	52.15	-15.54	-3.71	-0.1343	-0.2764	-0.4151	
0.2806	0.102114	0.948794	51.03	-13.16	-2.8	-0.1449	-0.2739	-0.403	
0.279746	0.117974	0.947818	49.49	-14	-1.12	-0.1535	-0.2889	-0.4086	
0.294386	0.147132	0.939766	47.04	-13.72	1.89	-0.1404	-0.2918	-0.4015	
0.31049	0.180804	0.941474	47.67	-14.14	2.73	-0.1418	-0.2949	-0.3941	
0.317078	0.192394	0.951112	46.13	-13.44	2.38	-0.1362	-0.3098	-0.3911	
0.315004	0.190686	0.943182	43.82	-14.84	2.24	-0.1414	-0.3172	-0.3865	
0.33611	0.204106	0.938058	41.37	-13.79	2.73	-0.1457	-0.331	-0.3952	
0.3416	0.232288	0.939278	41.02	-12.88	2.38	-0.1523	-0.3131	-0.3685	
0.335134	0.233996	0.931836	40.18	-11.13	1.82	-0.1557	-0.319	-0.3862	
0.320128	0.233264	0.934642	36.68	-12.11	1.61	-0.1552	-0.327	-0.3743	
0.330376	0.245708	0.939522	35.49	-9.94	1.33	-0.1522	-0.3289	-0.3729	
0.344162	0.26962	0.932446	33.81	-9.52	0.91	-0.1562	-0.3366	-0.3565	
0.347578	0.2867	0.930982	32.76	-7.21	0	-0.1542	-0.3399	-0.3683	
0.348798	0.276696	0.9272	28.56	-8.96	-0.49	-0.1542	-0.3415	-0.3639	
0.336232	0.282552	0.923662	29.26	-7.14	-1.82	-0.1594	-0.349	-0.3578	
0.329766	0.289262	0.920978	27.16	-8.61	-1.4	-0.1584	-0.3459	-0.3504	
0.333182	0.304878	0.913536	27.3	-7.49	-1.68	-0.1569	-0.3652	-0.343	
0.344772	0.33367	0.91683	25.48	-7.77	-2.38	-0.153	-0.3609	-0.3387	
0.43432	0.323544	0.861808	14.7	-1.12	3.57	-0.1628	-0.3614	-0.3487	
0.485316	0.296338	0.765184	25.83	-26.18	-2.17	-0.1651	-0.3549	-0.3384	
0.371734	0.383934	0.960262	14.14	0.07	-6.72	-0.1618	-0.3616	-0.3325	
0.365512	0.393816	0.922686	10.78	-13.79	-2.52	-0.1571	-0.3652	-0.3326	
0.382958	0.408578	0.935008	19.46	-0.42	-4.69	-0.1581	-0.3683	-0.34	
0.388936	0.41785	0.920368	9.8	-6.51	-1.68	-0.1607	-0.3728	-0.3354	
0.408456	0.427244	0.92415	10.57	-4.41	-2.24	-0.1559	-0.3829	-0.3177	
0.416386	0.438956	0.93269	7.56	-2.59	-2.31	-0.1598	-0.3698	-0.3251	
0.417362	0.435296	0.946476	3.08	-1.4	-1.68	-0.1553	-0.3718	-0.3252	
0.418338	0.435174	0.95526	-0.21	-0.63	-0.49	-0.1627	-0.3821	-0.3353	
0.417362	0.452376	0.95953	-1.54	1.75	0.56	-0.1608	-0.3728	-0.3295	
0.425658	0.470798	0.95404	-5.74	2.03	1.26	-0.1568	-0.3827	-0.3384	
0.421144	0.456768	0.956968	-12.39	3.36	1.19	-0.1625	-0.3695	-0.3324	
0.42273	0.428952	0.951234	-17.08	2.66	1.47	-0.1651	-0.374	-0.3279	
0.411506	0.41358	0.951112	-20.16	4.13	2.45	-0.158	-0.3715	-0.3325	
0.405284	0.41541	0.958066	-25.34	3.92	4.2	-0.1509	-0.369	-0.3387	
0.405772	0.40626	0.957212	-29.26	4.41	5.53	-0.1594	-0.3697	-0.3429	
0.394914	0.400282	0.960506	-32.62	5.53	6.44	-0.164	-0.3661	-0.3413	
0.39467	0.379176	0.968802	-38.08	7.77	7.56	-0.1549	-0.3701	-0.3474	
0.38674	0.378688	0.96258	-39.2	9.87	8.82	-0.1587	-0.357	-0.3563	
0.385398	0.369416	0.975512	-44.1	9.24	8.82	-0.1663	-0.3388	-0.3518	
0.386374	0.318786	0.968436	-52.99	10.22	10.22	-0.1629	-0.3406	-0.3622	
0.375394	0.337818	0.949526	-50.82	10.92	11.2	-0.1705	-0.3367	-0.3635	
0.372588	0.292434	0.959408	-58.17	11.97	11.41	-0.1553	-0.327	-0.3728	
0.358558	0.290238	0.94977	-59.43	12.81	12.04	-0.1624	-0.3279	-0.3712	
0.360754	0.258274	0.953796	-63.7	14.49	13.02	-0.1657	-0.3069	-0.3756	
0.35746	0.232898	0.948916	-66.22	12.67	13.65	-0.1593	-0.309	-0.392	
0.349652	0.188856	0.954528	-72.45	14.28	14.07	-0.1547	-0.2936	-0.4011	
0.33611	0.161406	0.935984	-72.94	17.15	14.63	-0.1702	-0.2825	-0.3979	
0.333914	0.141764	0.919758	-75.32	17.78	14.28	-0.1638	-0.2736	-0.3966	
0.317322	0.112118	0.914756	-76.3	19.32	12.46	-0.1635	-0.2577	-0.4085	
0.296216	0.044286	0.922442	-81.55	20.58	11.69	-0.153	-0.2412	-0.4281	
0.291946	0.021716	0.907436	-80.85	20.44	12.18	-0.1589	-0.2215	-0.437	
0.291092	-0.00854	0.912926	-80.78	22.54	10.85	-0.1531	-0.2094	-0.4269	
0.271694	-0.026962	0.900604	-82.74	21.56	10.78	-0.1554	-0.1964	-0.4387	
0.270596	-0.052216	0.889746	-80.99	21.7	8.75	-0.1465	-0.1956	-0.4508	
0.25132	-0.094306	0.872178	-84.56	19.11	9.1	-0.1544	-0.1726	-0.4492	
0.240584	-0.11895	0.86193	-82.39	19.39	8.47	-0.1506	-0.1666	-0.4494	
0.229848	-0.133834	0.842654	-81.06	18.9	7.91	-0.1494	-0.1636	-0.4509	
0.223382	-0.153598	0.840336	-79.66	19.95	5.88	-0.153	-0.1361	-0.4643	
0.221186	-0.1952	0.830088	-84.84	18.06	7.07	-0.1456	-0.1242	-0.4587	
0.206912	-0.220454	0.819962	-87.01	16.94	5.74	-0.1554	-0.1089	-0.4659	
0.210206	-0.282186	0.802638	-92.75	16.45	6.58	-0.1456	-0.09079999	-0.4633	
0.195566	-0.30012	0.793122	-90.65	16.8	4.97	-0.1499	-0.0904	-0.4662	
0.187392	-0.32757	0.779946	-92.89	15.96	4.69	-0.1399	-0.07229999	-0.468	
0.167628	-0.382592	0.765306	-100.1	12.67	4.69	-0.1371	-0.0567	-0.4652	
0.15067	-0.462258	0.747616	-103.81	13.02	5.53	-0.1376	-0.0361	-0.4639	
0.143228	-0.477142	0.73139	-101.85	12.67	5.88	-0.1439	-0.0274	-0.4712	
0.152866	-0.517524	0.707356	-104.86	10.01	9.31	-0.1322	-0.0111	-0.4804	
0.118218	-0.524356	0.659776	-101.85	8.96	9.94	-0.1367	0.0051	-0.476	
0.125904	-0.56059	0.632204	-102.48	10.57	10.85	-0.1459	0.025	-0.4685	
0.099918	-0.592432	0.604754	-102.69	9.45	13.44	-0.14	0.0387	-0.4658	
0.108702	-0.623176	0.58194	-100.66	9.87	16.1	-0.1459	0.0568	-0.4672	
0.097234	-0.64233	0.572058	-94.22	13.16	16.17	-0.1428	0.0691	-0.463	
0.106018	-0.670268	0.564006	-93.73	14.14	17.01	-0.136	0.0891	-0.4618	
0.093452	-0.734562	0.543022	-97.51	11.13	18.9	-0.1312	0.1123	-0.4488	
0.055144	-0.786778	0.52765	-91.7	13.93	17.99	-0.1489	0.1173	-0.4498	
0.06832	-0.798124	0.507398	-81.13	13.37	15.33	-0.1245	0.1339	-0.4476	
0.060634	-0.814472	0.500688	-79.31	10.08	13.65	-0.1315	0.1456	-0.4416	
0.04941	-0.842532	0.463478	-78.19	7.84	14.07	-0.1337	0.1554	-0.4445	
0.04331	-0.863028	0.447252	-78.19	6.72	14.56	-0.1339	0.1696	-0.4313	
0.056486	-0.861076	0.426756	-67.34	8.54	12.67	-0.1288	0.1913	-0.4257	
0.055876	-0.876814	0.412116	-65.31	6.51	14.21	-0.1283	0.2007	-0.4213	
0.033184	-0.8601	0.39833	-56.77	5.95	12.74	-0.1205	0.2078	-0.4127	
0.0244	-0.847656	0.371002	-53.62	4.2	12.46	-0.1211	0.2159	-0.4172	
0.012444	-0.864126	0.372466	-56.77	1.47	11.62	-0.1217	0.219	-0.4068	
0.04758	-0.87596	0.35319	-53.97	2.03	11.48	-0.13	0.2293	-0.4008	
0.034282	-0.895724	0.347456	-54.11	3.15	11.83	-0.1233	0.235	-0.3995	
0.036966	-0.899384	0.315614	-46.27	4.83	10.57	-0.1189	0.2456	-0.3849	
0.027938	-0.935008	0.32513	-53.97	2.03	11.41	-0.12	0.2442	-0.3937	
-0.0061	-0.936228	0.315858	-41.93	4.13	11.06	-0.1157	0.2563	-0.3792	
0.025132	-0.94184	0.31903	-49.91	1.75	14.21	-0.1166	0.2676	-0.3822	
0.013054	-0.92903	0.32086	-39.2	2.8	11.55	-0.1078	0.2634	-0.3735	
0.017324	-0.905606	0.291336	-36.89	1.47	10.22	-0.1172	0.2707	-0.3674	
0.033794	-0.906948	0.29341	-38.01	1.19	10.78	-0.1105	0.278	-0.3735	
0.003294	-0.92049	0.297314	-38.5	2.1	10.92	-0.1229	0.2872	-0.3733	
0.005246	-0.924272	0.267546	-37.73	2.66	11.41	-0.1084	0.2841	-0.3662	
0.016836	-0.943548	0.257298	-39.97	1.82	12.74	-0.1112	0.2828	-0.3632	
-0.010736	-0.937204	0.253394	-33.67	3.22	12.46	-0.1124	0.294	-0.3588	
0.000976	-0.944402	0.245342	-35.14	4.13	11.9	-0.098	0.2908	-0.3458	
0.00976	-0.91683	0.242048	-28.49	6.16	10.57	-0.1014	0.3008	-0.3591	
-0.000488	-0.946232	0.239974	-31.36	5.32	8.33	-0.1071	0.3124	-0.3472	
0.002562	-0.945744	0.233508	-36.4	3.92	11.27	-0.0976	0.3019	-0.3415	
-0.020374	-0.953186	0.214354	-28.14	4.83	9.17	-0.11	0.3111	-0.3398	
-0.011834	-0.967826	0.199714	-30.73	3.92	10.5	-0.1068	0.3234	-0.3414	
-0.02501	-0.974414	0.197396	-26.46	2.87	9.24	-0.0958	0.3095	-0.3253	
-0.038796	-0.968802	0.181048	-25.41	0.91	8.96	-0.0941	0.3253	-0.3373	
-0.057706	-0.982344	0.182512	-26.25	0.14	8.75	-0.096	0.327	-0.324	
-0.045018	-0.955016	0.173118	-22.61	0.91	8.75	-0.0992	0.3305	-0.3239	
-0.036844	-0.96746	0.151524	-21.49	0.49	9.1	-0.09739999	0.3255	-0.321	
-0.040138	-0.973926	0.135664	-20.86	-1.82	8.47	-0.0901	0.3391	-0.3153	
-0.0549	-0.99735	0.12749	-21.35	-3.99	9.87	-0.0939	0.3347	-0.3211	
-0.055388	-1.005036	0.119438	-19.04	-5.39	10.57	-0.091	0.3295	-0.3019	
-0.052338	-0.989908	0.11773	-16.24	-7.49	11.48	-0.0856	0.3354	-0.308	
-0.065636	-0.976	0.117852	-10.57	-6.37	10.22	-0.0949	0.341	-0.3034	
-0.068198	-0.970388	0.106506	-7.07	-5.88	8.61	-0.0853	0.3464	-0.3051	
-0.045628	-0.993324	0.10126	-12.6	-8.47	10.15	-0.0838	0.3447	-0.3007	
-0.052948	-1.00772	0.10553	-9.59	-6.93	10.57	-0.0894	0.3453	-0.308	
-0.061244	-0.999668	0.110898	-9.73	-7.14	9.45	-0.0846	0.3368	-0.2977	
-0.070272	-0.991006	0.122976	-8.4	-4.62	7.77	-0.0867	0.345	-0.2992	
-0.05673	-0.969656	0.111874	-6.16	-2.24	6.16	-0.0849	0.34	-0.2948	
-0.064538	-0.966972	0.113216	-7.84	-2.38	4.83	-0.0882	0.3435	-0.2903	
-0.067954	-0.978196	0.10614	-10.92	-4.55	5.04	-0.0874	0.3497	-0.2889	
-0.067832	-0.994056	0.088328	-12.6	-4.83	6.72	-0.0803	0.3538	-0.2994	
-0.08723	-0.995398	0.080642	-8.68	-4.83	5.67	-0.07979999	0.3458	-0.2905	
-0.106994	-0.981124	0.085522	-4.62	-4.83	5.53	-0.0788	0.3537	-0.3009	
-0.106384	-0.98454	0.09394	-3.78	-5.74	5.81	-0.0881	0.3419	-0.2917	
-0.095038	-0.993812	0.09162199	-1.47	-5.95	5.04	-0.0805	0.3538	-0.292	
-0.09455	-0.986248	0.090524	1.19	-5.11	4.41	-0.0748	0.3548	-0.2936	
-0.078202	-0.99125	0.09076799	3.57	-2.59	2.17	-0.08329999	0.3557	-0.3023	
-0.087352	-0.976854	0.10431	3.29	-3.57	2.94	-0.0727	0.3593	-0.2789	
-0.084546	-0.98759	0.099552	-0.21	-4.41	3.29	-0.0785	0.3472	-0.2905	
-0.091256	-0.9882	0.100162	-0.91	-4.13	3.36	-0.0867	0.3576	-0.2874	
-0.089792	-0.9821	0.101748	0.14	-2.59	2.66	-0.0867	0.3592	-0.2934	
-0.096868	-0.967948	0.110898	0.28	-1.4	1.12	-0.07979999	0.3474	-0.2964	
-0.092476	-0.973438	0.108946	-3.36	-2.24	1.54	-0.078	0.3567	-0.2862	
-0.084912	-0.989542	0.100772	-7.7	-3.71	1.89	-0.0795	0.3617	-0.301	
-0.096868	-1.001498	0.09272	-6.16	-2.8	0	-0.0843	0.3495	-0.2963	
-0.10187	-0.995032	0.098088	-4.69	-1.82	-0.07	-0.0818	0.3507	-0.2846	
-0.105286	-0.994422	0.10492	-0.56	2.66	-0.77	-0.085	0.3542	-0.2875	
-0.104188	-0.985516	0.10187	-0.84	1.4	-1.12	-0.0804	0.3506	-0.2846	
-0.090402	-0.991616	0.08784	-0.98	-1.12	-1.89	-0.0799	0.3474	-0.2905	
-0.09638	-0.993568	0.08601	-0.84	-2.1	-2.38	-0.0825	0.362	-0.2979	
-0.107604	-0.995642	0.08052	1.47	-1.26	-3.29	-0.0821	0.3572	-0.2964	
-0.102724	-0.99918	0.081984	1.12	-1.68	-2.87	-0.0812	0.3443	-0.2875	
-0.09942999	-0.997594	0.091988	3.99	-2.8	-3.22	-0.0881	0.3577	-0.2918	
-0.09455	-0.991616	0.095892	3.22	-3.85	-3.08	-0.0846	0.351	-0.2919	
-0.083326	-0.9882	0.088572	3.99	-3.71	-3.22	-0.08329999	0.3667	-0.2832	
-0.07905599	-0.988566	0.080642	4.41	-3.5	-3.15	-0.0931	0.3503	-0.2946	
-0.080032	-0.987834	0.086132	2.94	-3.57	-3.36	-0.0903	0.35	-0.2903	
-0.08967	-0.986248	0.08845	6.79	-0.7	-5.39	-0.0892	0.3388	-0.2946	
-0.093208	-0.990396	0.091012	5.67	-1.33	-4.27	-0.08989999	0.3468	-0.2932	
-0.07808	-1.00711	0.098942	4.48	-4.48	-3.36	-0.0804	0.3538	-0.2964	
-0.075762	-1.017114	0.107604	5.6	-5.04	-3.57	-0.09739999	0.3508	-0.296	
-0.074908	-1.028338	0.105408	7.56	-3.99	-4.13	-0.0924	0.3614	-0.3051	
-0.0854	-1.032974	0.106872	9.8	-3.57	-3.99	-0.0907	0.3548	-0.2918	
-0.08479	-1.026386	0.108946	14.28	-1.82	-4.83	-0.1024	0.3576	-0.293	
-0.09089	-1.015894	0.118828	17.99	-0.21	-6.3	-0.0931	0.3393	-0.3108	
-0.089426	-1.01382	0.127856	18.9	3.01	-7	-0.0895	0.3436	-0.2976	
-0.093086	-1.029436	0.135786	18.55	7.49	-8.61	-0.097	0.335	-0.3122	
-0.12139	-1.028338	0.132126	30.17	15.4	-12.39	-0.09649999	0.3428	-0.3304	
-0.071614	-0.993568	0.150426	17.78	10.29	-8.61	-0.09429999	0.3346	-0.3048	
-0.04087	-0.984784	0.15982	21.49	10.22	-6.79	-0.1026	0.3356	-0.3209	
-0.030866	-0.986736	0.139934	18.83	4.9	-4.41	-0.0963	0.3269	-0.3106	
-0.011468	-0.993446	0.120292	17.15	0.49	-2.87	-0.0963	0.3286	-0.3195	
-0.018666	-1.007964	0.121634	18.27	0.91	-4.9	-0.0961	0.327	-0.3195	
-0.049044	-1.019554	0.134444	22.47	4.69	-9.1	-0.0907	0.3186	-0.3314	
-0.056364	-1.00284	0.13847	26.32	6.93	-11.83	-0.099	0.3257	-0.315	
-0.057462	-0.973316	0.154452	35.56	9.1	-12.67	-0.1033	0.3294	-0.3282	
-0.044652	-0.968436	0.173118	30.24	8.26	-11.06	-0.0983	0.3083	-0.313	
-0.008174	-0.97112	0.177144	30.94	5.11	-10.01	-0.092	0.3188	-0.3403	
0.026718	-0.9943	0.199958	29.82	3.15	-7.98	-0.1024	0.3071	-0.3429	
0.023668	-0.971852	0.220698	33.39	1.68	-8.75	-0.0924	0.3077	-0.3417	
-0.016958	-0.974048	0.240462	32.83	4.34	-13.72	-0.1006	0.3054	-0.3503	
-0.017812	-0.914146	0.22814	42.28	3.43	-14.63	-0.1056	0.298	-0.3546	
-0.044408	-0.894138	0.203252	44.24	3.99	-14.91	-0.1082	0.2967	-0.3348	
-0.12322	-0.909388	0.26169	42.28	2.1	-14.77	-0.1016	0.2914	-0.3768	
-0.011834	-0.943304	0.284992	27.16	-6.23	-10.01	-0.1108	0.2796	-0.3691	
0.06344	-0.890234	0.321226	32.62	-4.34	-10.92	-0.0872	0.2741	-0.3682	
0.023058	-0.873398	0.279502	55.44	4.55	-17.08	-0.1134	0.2767	-0.3705	
-0.039528	-0.887794	0.267668	44.66	3.29	-16.03	-0.1118	0.2607	-0.3778	
-0.008417999	-0.916342	0.326838	32.27	1.68	-14.77	-0.1103	0.2496	-0.3955	
0.011956	-0.925126	0.315248	40.04	4.27	-14.56	-0.1074	0.2476	-0.3897	
-0.020862	-0.905118	0.3294	44.66	9.03	-14.56	-0.1024	0.2424	-0.3971	
-0.013542	-0.888282	0.328912	48.16	6.44	-13.23	-0.1052	0.2411	-0.3985	
-0.026596	-0.896334	0.350018	50.54	4.69	-14.21	-0.1046	0.2364	-0.403	
0.034404	-0.867298	0.349042	45.29	-7.07	-9.38	-0.1074	0.2208	-0.4087	
-0.006222	-0.86742	0.367586	58.17	-4.55	-12.6	-0.1109	0.2291	-0.4116	
0.017934	-0.84729	0.38125	61.18	-3.99	-13.65	-0.1193	0.2093	-0.4098	
0.016958	-0.816668	0.398452	68.46	-4.27	-13.37	-0.1111	0.2038	-0.4292	
0.027206	-0.776652	0.437126	75.04	-6.58	-10.43	-0.1224	0.2002	-0.4244	
0.053436	-0.782996	0.468358	73.15	-11.27	-12.6	-0.1151	0.1868	-0.4378	
0.08357	-0.719434	0.479216	79.87	-0.28	-19.18	-0.1091	0.1672	-0.4334	
0.107848	-0.73383	0.510326	81.69	-2.66	-20.37	-0.1146	0.1662	-0.4436	
0.10126	-0.77531	0.508252	78.05	-19.32	-17.57	-0.1204	0.1493	-0.4389	
0.058804	-0.789584	0.501664	82.74	-19.32	-17.57	-0.1219	0.1384	-0.4521	
0.0488	-0.76311	0.573278	87.5	-0.28	-18.62	-0.1214	0.132	-0.4506	
0.075518	-0.711504	0.628666	85.12	4.97	-14.98	-0.1163	0.1093	-0.4565	
0.04636	-0.725778	0.622566	75.6	-3.78	-13.44	-0.1297	0.1012	-0.4694	
0.099186	-0.661606	0.578402	79.87	-10.22	-9.87	-0.1341	0.0841	-0.4603	
0.062708	-0.61183	0.623664	86.52	1.19	-14.7	-0.1274	0.0772	-0.4737	
0.063196	-0.548268	0.692106	87.71	9.94	-16.03	-0.1275	0.0613	-0.4692	
0.02867	-0.563518	0.75335	85.96	-0.14	-16.87	-0.1261	0.0453	-0.4677	
0.099308	-0.548146	0.72407	72.94	-21.84	-12.11	-0.1144	0.0315	-0.4826	
0.106262	-0.551318	0.7198	85.68	-9.31	-17.78	-0.1231	0.0165	-0.4838	
0.110288	-0.499468	0.733098	82.81	-2.94	-15.96	-0.1325	0.0063	-0.4746	
0.129686	-0.447496	0.77226	84.56	-8.12	-12.95	-0.1338	-0.0252	-0.4803	
0.132126	-0.427854	0.779336	83.23	-13.3	-11.27	-0.1214	-0.0344	-0.482	
0.148718	-0.399428	0.80337	87.08	-7.63	-12.88	-0.1228	-0.0501	-0.4834	
0.162382	-0.355142	0.8235	88.83	-6.09	-13.3	-0.1235	-0.0596	-0.4803	
0.17141	-0.33855	0.815692	86.1	-9.8	-10.5	-0.1221	-0.0772	-0.4729	
0.198982	-0.288408	0.825086	92.89	-5.95	-9.94	-0.12	-0.0838	-0.4729	
0.19642	-0.238022	0.85339	94.78	-3.92	-11.27	-0.125	-0.1087	-0.4726	
0.179462	-0.222894	0.855708	88.2	-6.93	-8.89	-0.1257	-0.1165	-0.474	
0.195566	-0.193858	0.862174	87.78	-9.24	-6.3	-0.1154	-0.1367	-0.4652	
0.188734	-0.141642	0.884012	92.05	-5.32	-6.44	-0.1271	-0.1498	-0.4693	
0.200202	-0.097234	0.88999	82.18	-10.22	-5.95	-0.1204	-0.16	-0.4694	
0.195566	-0.088816	0.883646	74.97	-13.3	-4.76	-0.1289	-0.1814	-0.4557	
0.18422	-0.052948	0.897676	79.03	-12.74	-6.16	-0.1239	-0.1867	-0.4632	
0.207522	-0.033428	0.913536	76.02	-14.14	-3.85	-0.1263	-0.1928	-0.4602	
0.208864	-0.010248	0.930738	78.89	-16.66	-4.9	-0.131	-0.2083	-0.4496	
0.221308	0.011224	0.93635	76.3	-18.55	-5.39	-0.1251	-0.2264	-0.4437	
0.23729	0.05734	0.932568	73.01	-17.85	-2.38	-0.1279	-0.2293	-0.4377	
0.216916	0.07808	0.948672	73.29	-14	-3.5	-0.1233	-0.2504	-0.4318	
0.25071	0.114558	0.969656	63.49	-17.57	-1.47	-0.1288	-0.2514	-0.4361	
0.252296	0.134688	0.948794	66.71	-14.21	-5.11	-0.1243	-0.271	-0.4301	
0.24827	0.135908	0.94123	66.15	-15.12	-3.92	-0.1292	-0.269	-0.4138	
0.27328	0.150426	0.944646	67.55	-13.58	-1.05	-0.1254	-0.2789	-0.4168	
0.301218	0.20313	0.969412	70.35	-10.01	-2.17	-0.1355	-0.2828	-0.4017	
0.285358	0.247782	0.999668	71.68	-9.03	-3.01	-0.1352	-0.3018	-0.403	
0.318054	0.223504	0.996862	57.89	-8.4	-1.89	-0.1363	-0.3082	-0.3941	
0.299022	0.209108	0.967826	53.2	-8.05	0.77	-0.1352	-0.3067	-0.3853	
0.32086	0.247172	0.974658	51.66	-5.6	2.59	-0.1323	-0.3229	-0.3838	
0.319518	0.268888	0.946964	51.59	-7.42	3.85	-0.1357	-0.3337	-0.3821	
0.306342	0.27999	0.942694	49.07	-8.33	5.25	-0.1347	-0.329	-0.3807	
0.304024	0.316346	0.96502	48.16	-9.52	3.99	-0.1399	-0.3381	-0.3687	
0.310246	0.30866	0.958066	44.31	-10.92	4.13	-0.132	-0.3452	-0.3733	
0.307318	0.328424	0.94123	43.05	-11.9	6.86	-0.1432	-0.3489	-0.373	
0.333426	0.354044	0.929518	40.74	-12.25	6.16	-0.143	-0.357	-0.3508	
0.320982	0.363194	0.91866	39.34	-12.74	5.46	-0.1351	-0.3641	-0.3509	
0.332084	0.391742	0.930128	38.36	-11.13	3.78	-0.1367	-0.3783	-0.3523	
0.33611	0.405406	0.925614	33.81	-12.74	2.17	-0.1459	-0.3758	-0.3387	
0.34587	0.411018	0.929518	31.64	-11.55	1.26	-0.1466	-0.3837	-0.3416	
0.357094	0.414556	0.927566	28.42	-10.85	0.07	-0.1477	-0.3725	-0.3387	
0.356362	0.403454	0.937936	23.45	-12.25	-0.49	-0.1471	-0.3838	-0.3209	
0.365634	0.411506	0.919758	21.21	-8.26	-0.35	-0.1404	-0.3907	-0.3329	
0.352946	0.42639	0.92598	19.32	-6.86	0.14	-0.1444	-0.3951	-0.3313	
0.360632	0.42883	0.935008	14.14	-6.79	0.42	-0.1562	-0.3923	-0.331	
0.36905	0.454206	0.91622	14.14	-4.2	0.98	-0.1536	-0.4053	-0.3295	
0.365634	0.464454	0.925004	10.01	-3.29	1.05	-0.1534	-0.3943	-0.3192	
0.371124	0.475556	0.929152	6.65	-1.05	0.7	-0.1501	-0.3962	-0.3267	
0.371246	0.46848	0.925004	1.4	-0.7	1.33	-0.1562	-0.3781	-0.3222	
0.376614	0.482144	0.924516	0.07	1.47	0.77	-0.1499	-0.3851	-0.3194	
0.366122	0.47763	0.920368	-4.41	1.4	1.12	-0.1492	-0.3931	-0.3164	
0.371246	0.488	0.916708	-10.08	2.73	2.03	-0.1497	-0.3883	-0.3164	
0.374662	0.486414	0.928054	-14.91	2.1	2.52	-0.1472	-0.3838	-0.3165	
0.376248	0.480192	0.938912	-18.55	2.38	3.08	-0.1547	-0.3815	-0.3133	
0.37698	0.483974	0.953186	-21.84	2.87	3.36	-0.1543	-0.3831	-0.3252	
0.380152	0.482876	0.958676	-26.11	2.94	3.64	-0.1481	-0.3868	-0.3268	
0.379298	0.47092	0.97539	-30.66	3.85	4.55	-0.1501	-0.3803	-0.3283	
0.379176	0.484706	0.963312	-33.25	4.76	6.86	-0.1491	-0.3866	-0.346	
0.36844	0.481534	0.986858	-33.74	12.95	5.39	-0.1525	-0.3656	-0.3445	
0.371734	0.45506	0.972218	-44.87	8.47	5.32	-0.1513	-0.3801	-0.3371	
0.37881	0.416508	0.96746	-49.98	10.78	4.83	-0.1506	-0.3706	-0.3431	
0.365756	0.406992	0.971974	-52.15	12.25	5.04	-0.1591	-0.3554	-0.3474	
0.366244	0.384788	0.959164	-57.68	12.74	5.18	-0.1535	-0.3495	-0.3609	
0.355386	0.36661	0.963556	-59.5	14.42	5.25	-0.1488	-0.3373	-0.3626	
0.346968	0.342088	0.970266	-65.73	14.63	6.16	-0.1493	-0.3292	-0.3715	
0.34709	0.318176	0.945256	-70.42	14.28	7.63	-0.1438	-0.325	-0.3776	
0.3233	0.286212	0.9455	-74.55	19.25	7.98	-0.1513	-0.3052	-0.3819	
0.314394	0.260958	0.954528	-79.45	18.62	7.49	-0.1472	-0.2975	-0.3998	
0.304024	0.217648	0.930616	-85.12	18.76	8.12	-0.1516	-0.2971	-0.3982	
0.285724	0.173118	0.918782	-85.33	20.58	6.79	-0.1478	-0.2736	-0.4059	
0.276696	0.145546	0.923296	-86.66	21.91	6.16	-0.1481	-0.2671	-0.4163	
0.267058	0.135908	0.930006	-88.06	23.24	5.25	-0.1419	-0.255	-0.4209	
0.247172	0.091988	0.917318	-91.14	22.12	5.18	-0.1376	-0.2363	-0.4271	
0.242414	0.038186	0.921222	-94.71	20.44	4.13	-0.1349	-0.2302	-0.442	
0.224846	0.002562	0.90402	-97.02	19.6	3.78	-0.1389	-0.2187	-0.4405	
0.226676	-0.03233	0.887672	-98.21	18.69	3.64	-0.1436	-0.1975	-0.4449	
0.220088	-0.066612	0.870226	-94.78	17.85	2.94	-0.1429	-0.188	-0.4509	
0.215818	-0.130052	0.867054	-98.14	18.06	2.66	-0.1327	-0.1732	-0.4498	
0.2074	-0.162016	0.833382	-101.22	16.66	4.2	-0.139	-0.147	-0.4646	
0.201178	-0.183	0.822158	-100.87	17.71	3.71	-0.1385	-0.1359	-0.4691	
0.188124	-0.199714	0.804468	-104.44	16.66	3.43	-0.1295	-0.1225	-0.4724	
0.179218	-0.273402	0.798978	-111.65	17.71	3.92	-0.1321	-0.1096	-0.4739	
0.178242	-0.33794	0.78202	-115.57	16.66	4.2	-0.1327	-0.0873	-0.4725	
0.149816	-0.380518	0.743346	-120.26	13.65	4.83	-0.1323	-0.0762	-0.4696	
0.143106	-0.42578	0.712724	-118.72	13.58	4.55	-0.1284	-0.0544	-0.4743	
0.115534	-0.465186	0.693692	-120.33	11.34	5.88	-0.1421	-0.0291	-0.4801	
0.136518	-0.504836	0.680516	-119.56	11.13	7.7	-0.1328	-0.0063	-0.4716	
0.08845	-0.510692	0.656482	-115.57	11.9	10.01	-0.1239	0.008599999	-0.4793	
0.105286	-0.54229	0.631472	-118.51	10.43	13.72	-0.1285	0.0265	-0.4749	
0.080276	-0.595848	0.590968	-114.66	10.57	13.79	-0.121	0.0385	-0.4737	
0.058438	-0.643184	0.58865	-109.97	11.48	13.58	-0.1283	0.0551	-0.4736	
0.069296	-0.689178	0.56547	-108.99	5.88	15.12	-0.1267	0.0659	-0.4619	
0.076372	-0.70638	0.538874	-102.34	1.33	15.12	-0.1269	0.0993	-0.4591	
0.066246	-0.752252	0.522038	-96.88	5.46	13.16	-0.1208	0.1113	-0.4564	
0.050874	-0.77043	0.485804	-91.14	7.14	13.37	-0.1278	0.1247	-0.4578	
0.019398	-0.813618	0.435784	-94.29	3.71	15.68	-0.1208	0.1382	-0.4374	
0.02013	-0.841556	0.42944	-93.73	-0.91	16.94	-0.1245	0.1481	-0.4418	
0.033672	-0.864614	0.406504	-84.28	-2.87	18.06	-0.1186	0.176	-0.4332	
0.042944	-0.85949	0.37454	-81.55	-7.14	20.37	-0.129	0.1929	-0.4242	
0.053192	-0.870592	0.382104	-75.18	-3.71	17.85	-0.125	0.2099	-0.4141	
0.04209	-0.87352	0.337086	-66.85	-3.22	15.89	-0.1305	0.2056	-0.4095	
0.025986	-0.896212	0.34587	-66.29	-1.54	16.1	-0.1241	0.2129	-0.4023	
0.022204	-0.914878	0.318542	-63.63	-3.43	17.99	-0.1243	0.232	-0.4083	
0.018666	-0.911218	0.356728	-61.6	-1.05	18.27	-0.1197	0.241	-0.3937	
0.033062	-0.913902	0.328546	-56.98	-2.03	18.2	-0.1165	0.2391	-0.3968	
-0.000854	-0.891576	0.308294	-42.49	6.16	15.33	-0.1186	0.2599	-0.388	
0.0061	-0.880108	0.314516	-46.41	3.43	15.68	-0.1147	0.2642	-0.3896	
0.029036	-0.917684	0.29341	-51.52	-0.42	16.38	-0.1153	0.2674	-0.3748	
0.021472	-0.92232	0.295118	-51.73	-0.35	17.36	-0.1194	0.2789	-0.3689	
0.007564	-0.938302	0.266082	-40.88	5.11	14.35	-0.1148	0.2719	-0.3542	
-0.007686	-0.926468	0.267302	-39.76	5.67	11.76	-0.1202	0.2868	-0.3645	
-0.012932	-0.929762	0.246074	-33.88	8.96	8.47	-0.112	0.2749	-0.3602	
-0.00244	-0.912804	0.233142	-36.12	4.27	7.98	-0.1229	0.2965	-0.3512	
0.00427	-0.961726	0.235826	-38.15	2.66	8.54	-0.1097	0.2953	-0.3544	
-0.011468	-0.967216	0.237046	-35.77	5.39	7.07	-0.104	0.3089	-0.3443	
-0.025986	-0.941596	0.230092	-33.11	7.28	7.14	-0.1132	0.2987	-0.3411	
-0.013908	-0.94001	0.20435	-33.46	4.27	7.56	-0.1041	0.3105	-0.3429	
0.005978	-0.98149	0.203008	-38.36	1.33	9.87	-0.1073	0.314	-0.3443	
-0.019154	-0.975146	0.195932	-32.76	1.05	9.73	-0.1071	0.3091	-0.3339	
-0.05246	-0.957944	0.168726	-30.38	-0.28	10.5	-0.1025	0.3181	-0.3223	
-0.032818	-0.980758	0.171654	-32.62	-2.24	11.34	-0.101	0.318	-0.3238	
-0.017324	-0.97844	0.17629	-29.19	-2.73	9.31	-0.1055	0.32	-0.3237	
-0.033306	-0.981124	0.175314	-27.3	-3.29	8.61	-0.108	0.3297	-0.3178	
-0.014762	-0.994422	0.138714	-28.63	-3.57	11.06	-0.0985	0.3176	-0.3046	
-0.032208	-1.02114	0.128954	-24.36	-5.53	10.78	-0.1011	0.3306	-0.3061	
-0.03355	-0.996862	0.14213	-19.88	-5.11	10.08	-0.0991	0.3415	-0.3092	
-0.022936	-1.000644	0.13237	-18.2	-3.78	8.75	-0.1015	0.3354	-0.3076	
-0.036356	-0.993812	0.118218	-13.58	-3.15	7.7	-0.1011	0.3464	-0.3047	
-0.023546	-0.98332	0.121024	-17.99	-6.23	9.03	-0.0983	0.3319	-0.3077	
-0.035868	-0.979294	0.104676	-8.19	-1.54	6.93	-0.0947	0.3521	-0.2931	
-0.036722	-0.989664	0.095648	-11.34	-2.87	7.7	-0.0948	0.3394	-0.3004	
-0.046116	-0.98942	0.107848	-11.34	-4.06	8.33	-0.0911	0.3454	-0.2991	
-0.031598	-0.992226	0.112972	-9.8	-3.85	7	-0.0948	0.3504	-0.2857	
-0.046116	-0.996496	0.112606	-8.82	-3.15	7.35	-0.0944	0.3505	-0.299	
-0.066124	-0.993324	0.092842	-7.49	-4.41	7.14	-0.0928	0.3471	-0.2946	
-0.062342	-0.991494	0.085644	-6.37	-5.81	7.14	-0.0807	0.3554	-0.2905	
-0.06161	-0.979904	0.093086	-1.05	-4.2	4.55	-0.0841	0.3479	-0.2978	
-0.06222	-0.98027	0.10126	0.35	-5.39	4.69	-0.0865	0.3417	-0.2962	
-0.06161	-0.996252	0.101138	-0.77	-5.53	5.11	-0.0925	0.3439	-0.2961	
-0.07124799	-0.988322	0.08601	3.36	-3.01	2.66	-0.0897	0.3452	-0.2976	
-0.07124799	-1.003206	0.088084	0.91	-4.06	2.59	-0.0925	0.3582	-0.2888	
-0.077836	-0.98515	0.103212	3.29	-2.73	2.59	-0.0812	0.346	-0.2934	
-0.089426	-0.979172	0.101504	2.59	-1.68	2.52	-0.0882	0.3435	-0.2903	
-0.083936	-0.98881	0.09577	-1.4	-3.22	3.01	-0.0902	0.35	-0.2932	
-0.076982	-0.987834	0.104676	0.7	-2.38	0.91	-0.0873	0.3465	-0.28	
-0.06734399	-0.982588	0.114802	2.52	-0.07	-0.28	-0.0892	0.3388	-0.2932	
-0.079178	-0.987346	0.11102	-0.49	-0.7	0.49	-0.0963	0.3522	-0.2872	
-0.078446	-0.999668	0.095892	-3.71	-2.87	1.89	-0.08549999	0.3464	-0.2963	
-0.083204	-1.002596	0.095404	-2.17	-3.29	1.47	-0.0941	0.3457	-0.2946	
-0.094794	-0.997594	0.100772	1.33	-2.31	-0.07	-0.0918	0.3501	-0.2887	
-0.09028	-0.992958	0.104188	1.54	-2.31	0.56	-0.0966	0.3586	-0.2975	
-0.080764	-0.98637	0.094062	2.94	-1.68	-0.14	-0.0902	0.3325	-0.2887	
-0.089792	-0.980514	0.084912	4.48	-0.7	-1.47	-0.0904	0.3516	-0.2903	
-0.077714	-0.986614	0.090524	4.13	-0.42	-2.1	-0.0881	0.3418	-0.2888	
-0.072224	-0.98637	0.099796	4.48	0.28	-2.52	-0.0947	0.3521	-0.2931	
-0.077958	-0.99308	0.097356	2.73	-0.14	-1.61	-0.0994	0.3398	-0.2914	
-0.075762	-0.99796	0.09942999	2.17	-1.05	-0.77	-0.0997	0.3447	-0.2989	
-0.07905599	-1.002352	0.101626	3.36	-0.14	-0.91	-0.0827	0.3444	-0.283	
-0.083448	-0.993812	0.097966	4.06	0.56	-1.96	-0.0858	0.3512	-0.3007	
-0.069784	-0.999912	0.0976	4.41	1.96	-2.31	-0.0955	0.3458	-0.2975	
-0.06588	-0.993568	0.11529	9.31	3.5	-4.97	-0.0957	0.3507	-0.3049	
-0.084668	-1.005036	0.122244	7.49	2.94	-6.37	-0.0872	0.3497	-0.2962	
-0.080642	-1.030656	0.118706	5.95	4.2	-5.53	-0.0923	0.3423	-0.299	
-0.06832	-1.04737	0.12383	11.97	8.61	-6.58	-0.0945	0.3362	-0.3004	
-0.063318	-1.028948	0.144204	15.47	11.06	-8.47	-0.1027	0.3482	-0.3047	
-0.087718	-1.015406	0.154818	19.74	17.22	-14.49	-0.0918	0.3424	-0.3168	
-0.110532	-1.001742	0.126758	14.7	18.62	-11.27	-0.0999	0.3336	-0.3062	
-0.095038	-1.040172	0.12322	11.9	18.83	-12.46	-0.0869	0.3356	-0.3154	
-0.043798	-1.000644	0.115046	20.86	18.34	-13.51	-0.0847	0.3274	-0.3169	
-0.027572	-0.96624	0.148108	24.85	13.93	-12.53	-0.097	0.3366	-0.321	
-0.028792	-0.984906	0.179462	15.68	10.64	-10.71	-0.0994	0.3305	-0.318	
-0.028426	-0.981124	0.177998	10.85	5.04	-7.7	-0.09519999	0.3333	-0.3196	
-0.037576	-0.992836	0.15189	17.22	5.25	-9.45	-0.09209999	0.3171	-0.3284	
-0.0244	-0.993202	0.14274	14.77	0.77	-6.58	-0.1019	0.3259	-0.3149	
-0.033306	-0.99674	0.17324	20.86	-4.34	-4.9	-0.0909	0.3169	-0.3211	
-0.017568	-0.976366	0.196298	17.92	-7.35	-3.22	-0.0983	0.3209	-0.3268	
-0.031598	-1.001254	0.191662	19.25	-6.58	-4.97	-0.0941	0.3237	-0.3329	
-0.03294	-0.980026	0.175558	20.86	-9.38	-3.57	-0.1042	0.3089	-0.3355	
0.000732	-0.950624	0.206058	22.05	-11.76	-2.8	-0.1094	0.3047	-0.3412	
0.022692	-0.923784	0.229604	38.99	-5.67	-6.72	-0.1038	0.3199	-0.3326	
0.030134	-0.89853	0.250466	31.92	-6.72	-7.7	-0.1011	0.3086	-0.3414	
0.026718	-0.906094	0.22143	37.24	-6.44	-6.16	-0.1083	0.3093	-0.3442	
-0.012322	-0.899384	0.248026	27.86	-8.19	-2.03	-0.111	0.308	-0.3501	
0.03843	-0.917074	0.27877	28.28	-1.75	-0.98	-0.1077	0.3046	-0.3531	
0.05917	-0.91134	0.277062	28.77	4.27	-1.61	-0.1098	0.2985	-0.3604	
0.026474	-0.911096	0.262666	31.99	5.81	-3.08	-0.1045	0.3027	-0.3605	
-0.002806	-0.932934	0.27816	22.61	4.13	-1.33	-0.1033	0.2899	-0.3605	
0.014884	-0.926224	0.297802	13.58	4.62	2.31	-0.1109	0.2954	-0.3648	
0.043798	-0.902434	0.317444	20.65	9.73	2.8	-0.1091	0.2937	-0.3737	
0.02074	-0.909632	0.32025	18.69	8.89	4.13	-0.0995	0.28	-0.3605	
0.028182	-0.909632	0.31903	16.45	10.08	5.67	-0.086	0.2771	-0.3712	
0.026352	-0.911706	0.330376	13.65	10.78	7.77	-0.09299999	0.2747	-0.371	
0.018178	-0.908534	0.334402	14.49	11.69	8.89	-0.0946	0.2797	-0.3813	
-0.00549	-0.920124	0.349774	9.03	11.27	12.95	-0.0969	0.2752	-0.3901	
-0.022692	-0.940498	0.358192	8.05	13.51	16.45	-0.0853	0.2724	-0.3815	
-0.018544	-0.940986	0.355752	11.27	15.96	18.62	-0.0869	0.2725	-0.3785	
-0.018422	-0.935374	0.35319	9.31	14.98	21.91	-0.07669999	0.2747	-0.3877	
-0.028426	-0.931226	0.361242	8.61	14.98	24.29	-0.07669999	0.2731	-0.3832	
-0.036356	-0.915488	0.35319	11.27	14.7	27.02	-0.07669999	0.2731	-0.3847	
-0.056242	-0.907802	0.361608	12.88	15.12	28.28	-0.0704	0.2694	-0.3893	
-0.06588	-0.900848	0.373198	11.9	13.44	30.03	-0.0573	0.2664	-0.3837	
-0.067954	-0.887184	0.384422	20.02	15.96	29.89	-0.0485	0.2656	-0.3868	
-0.07137	-0.879864	0.383446	19.32	13.65	31.71	-0.0534	0.2708	-0.3853	
-0.084668	-0.884744	0.402112	15.26	11.2	34.3	-0.0521	0.2596	-0.397	
-0.105652	-0.894992	0.39345	20.44	13.37	35.7	-0.0342	0.2706	-0.4005	
-0.117852	-0.901092	0.416874	16.52	11.9	38.57	-0.035	0.2627	-0.3975	
-0.147132	-0.887184	0.42029	23.1	14.63	39.76	-0.02	0.2565	-0.3993	
-0.137372	-0.870958	0.430782	18.41	12.46	40.74	-0.0246	0.2617	-0.4066	
-0.15311	-0.852902	0.435662	20.02	13.86	40.6	-0.0193	0.2517	-0.4096	
-0.169946	-0.83143	0.421876	21.77	14.35	39.55	-0.009099999	0.2491	-0.404	
-0.190564	-0.83448	0.421754	17.08	12.81	39.83	-0.0038	0.239	-0.407	
-0.202032	-0.83448	0.431392	16.45	14.07	39.83	0.01	0.2314	-0.4162	
-0.228262	-0.819718	0.424316	19.39	14.28	38.71	0.0153	0.2356	-0.4119	
-0.230946	-0.820694	0.437126	13.65	13.09	38.71	0.016	0.2276	-0.4119	
-0.250832	-0.816668	0.43676	14.07	12.95	37.73	0.0143	0.2309	-0.4133	
-0.279014	-0.81435	0.433344	15.68	15.12	36.82	0.0257	0.2346	-0.4225	
-0.30134	-0.820694	0.43798	11.48	12.88	37.24	0.0302	0.2151	-0.4166	
-0.316224	-0.809226	0.446154	13.72	13.37	37.24	0.0296	0.2215	-0.4151	
-0.332206	-0.805078	0.449814	15.82	14.35	36.26	0.0419	0.2155	-0.4228	
-0.353434	-0.782386	0.445056	15.96	13.86	35.35	0.0482	0.226	-0.4274	
-0.334036	-0.77043	0.416874	11.06	7.84	36.19	0.0514	0.2209	-0.4216	
-0.363438	-0.768478	0.44957	10.85	8.89	32.55	0.0541	0.2096	-0.4275	
-0.390156	-0.765306	0.44591	11.41	10.78	29.12	0.0695	0.2144	-0.4294	
-0.392108	-0.761036	0.452132	13.3	11.13	27.44	0.072	0.203	-0.4279	
-0.396012	-0.754814	0.448106	13.79	11.2	26.11	0.07319999	0.2077	-0.4353	
-0.412482	-0.75396	0.456036	10.85	10.08	25.69	0.0822	0.2004	-0.4222	
-0.416264	-0.756522	0.46604	13.72	11.62	24.43	0.0888	0.1918	-0.4282	
-0.413092	-0.743468	0.476288	12.25	10.43	24.15	0.097	0.1958	-0.424	
-0.421876	-0.732488	0.47153	13.09	10.08	23.03	0.096	0.1927	-0.4314	
-0.435052	-0.727974	0.47702	11.41	10.64	22.12	0.103	0.1793	-0.4315	
-0.44896	-0.725778	0.473726	12.81	11.55	20.65	0.0951	0.1881	-0.4343	
-0.456768	-0.712724	0.472628	12.32	10.92	20.02	0.1036	0.1904	-0.4375	
-0.464698	-0.70394	0.48251	11.41	10.5	19.39	0.0984	0.1862	-0.4432	
-0.480802	-0.702476	0.481656	11.83	10.29	18.41	0.1115	0.1817	-0.4332	
-0.484706	-0.7015	0.489098	9.94	10.08	17.78	0.1033	0.1778	-0.4374	
-0.480802	-0.695278	0.493002	9.8	10.64	16.8	0.1073	0.1646	-0.433	
-0.493246	-0.683566	0.491294	10.5	11.2	15.75	0.1118	0.1785	-0.4317	
-0.50813	-0.676002	0.484706	9.59	11.34	14.91	0.1241	0.1725	-0.4408	
-0.507886	-0.665144	0.48617	8.12	10.64	13.93	0.1237	0.1631	-0.4481	
-0.513132	-0.668194	0.495564	6.79	11.41	12.88	0.1215	0.1713	-0.4481	
-0.526308	-0.664046	0.491172	6.86	12.11	11.83	0.1201	0.1682	-0.4377	
-0.52887	-0.668438	0.487634	5.18	11.69	11.2	0.1345	0.1716	-0.4499	
-0.539972	-0.671122	0.477752	5.74	11.97	10.08	0.1447	0.1689	-0.4443	
-0.54412	-0.669292	0.476532	5.46	12.32	9.45	0.1368	0.1602	-0.4455	
-0.554002	-0.662216	0.483242	5.18	13.93	8.89	0.1397	0.1583	-0.4367	
-0.558272	-0.64904	0.481412	5.04	14.07	7.91	0.1459	0.1545	-0.4398	
-0.556808	-0.64477	0.479338	2.38	11.83	7.07	0.1462	0.1513	-0.4412	
-0.576084	-0.651602	0.467382	1.82	9.1	6.51	0.1545	0.1552	-0.443	
-0.586332	-0.650626	0.457012	2.73	7.63	5.46	0.1547	0.1695	-0.4445	
-0.598166	-0.646478	0.458476	3.29	6.37	3.92	0.1563	0.1535	-0.4489	
-0.606706	-0.63928	0.457744	3.92	4.83	2.24	0.1512	0.1587	-0.4385	
-0.609146	-0.629276	0.466162	2.94	3.22	0.49	0.1607	0.1498	-0.4386	
-0.613172	-0.627568	0.470798	2.24	1.19	-1.75	0.1531	0.1538	-0.44	
-0.611952	-0.631228	0.476898	0.28	-1.05	-3.99	0.1558	0.1583	-0.4474	
-0.613294	-0.607926	0.477508	1.05	-2.8	-8.82	0.1592	0.1516	-0.4445	
-0.604754	-0.611708	0.476776	-2.38	-7.7	-12.11	0.1504	0.1525	-0.4414	
-0.598898	-0.622322	0.470188	-3.85	-10.92	-14.42	0.1468	0.1575	-0.431	
-0.585966	-0.62891	0.46299	-4.48	-12.11	-16.94	0.1508	0.1476	-0.4399	
-0.575596	-0.640012	0.477142	-6.23	-12.04	-19.74	0.1411	0.1597	-0.4426	
-0.569374	-0.63196	0.475922	-4.27	-10.78	-23.45	0.1354	0.1571	-0.4351	
-0.55327	-0.634522	0.472506	-7.56	-11.69	-26.11	0.1414	0.1582	-0.4471	
-0.545828	-0.635986	0.477264	-8.75	-11.83	-28.98	0.1268	0.158	-0.4393	
-0.527284	-0.64416	0.46909	-10.64	-14.28	-32.27	0.1231	0.1679	-0.4437	
-0.495564	-0.651358	0.476532	-13.72	-17.64	-35.14	0.1218	0.1648	-0.4363	
-0.488488	-0.657458	0.467138	-12.32	-18.13	-38.29	0.1153	0.1734	-0.4391	
-0.477142	-0.685274	0.459818	-16.73	-19.53	-40.53	0.1059	0.1807	-0.4375	
-0.463112	-0.722972	0.463844	-20.44	-20.23	-42.7	0.0975	0.1958	-0.4418	
-0.451034	-0.737734	0.465552	-20.51	-19.95	-46.27	0.1037	0.1872	-0.4301	
-0.419314	-0.743834	0.463112	-20.51	-21.63	-48.58	0.0816	0.1926	-0.431	
-0.378322	-0.751886	0.46116	-21.07	-25.83	-51.38	0.0827	0.2131	-0.4341	
-0.363804	-0.752496	0.45506	-19.18	-25.9	-53.41	0.0676	0.2018	-0.4219	
-0.344894	-0.767868	0.435052	-20.23	-26.67	-54.88	0.0628	0.2104	-0.4351	
-0.314882	-0.78995	0.446154	-21.98	-26.6	-55.44	0.0528	0.2081	-0.4289	
-0.297558	-0.795928	0.438468	-19.88	-26.53	-55.86	0.0361	0.2161	-0.4241	
-0.26962	-0.811788	0.438834	-24.57	-28.35	-54.67	0.0327	0.2228	-0.427	
-0.256444	-0.864248	0.407724	-21.77	-18.2	-53.34	0.0351	0.2257	-0.4197	
-0.230824	-0.805078	0.403454	-1.12	-14.56	-60.2	0.013	0.2295	-0.4133	
-0.210938	-0.81984	0.418094	-27.72	-33.67	-58.66	0.0062	0.2254	-0.416	
-0.19947	-0.844362	0.401624	-19.25	-30.66	-60.06	0.0056	0.2334	-0.4205	
-0.191174	-0.864004	0.389058	-20.93	-31.15	-59.99	-0.0126	0.2432	-0.4171	
-0.174216	-0.906948	0.392352	-22.75	-29.12	-57.89	-0.0249	0.2348	-0.4123	
-0.148718	-0.865712	0.381006	-11.13	-26.04	-59.08	-0.0329	0.2419	-0.4063	
-0.12139	-0.854732	0.396744	-16.66	-31.78	-59.15	-0.0325	0.2388	-0.4122	
-0.074298	-0.869616	0.381982	-18.97	-37.1	-57.61	-0.0541	0.252	-0.4029	
-0.033306	-0.861442	0.381616	-13.79	-35.07	-57.82	-0.0752	0.2478	-0.3856	
-0.01464	-0.879132	0.388448	-16.17	-35	-56.98	-0.08549999	0.2471	-0.3976	
0.007198	-0.881328	0.387106	-13.3	-31.78	-56.07	-0.0904	0.254	-0.4005	
0.032818	-0.87535	0.374174	-12.67	-30.52	-54.81	-0.1008	0.2549	-0.3899	
0.059902	-0.881938	0.377468	-13.58	-30.1	-56.28	-0.1058	0.2459	-0.3897	
0.07381	-0.884622	0.379542	-15.82	-30.87	-57.05	-0.1142	0.2578	-0.3866	
0.130418	-0.865346	0.354288	-12.67	-30.38	-57.4	-0.1378	0.2475	-0.4086	
0.115046	-0.881694	0.379176	-11.55	-24.92	-59.85	-0.1425	0.2527	-0.3903	
0.152988	-0.886574	0.348676	-13.58	-29.33	-56.49	-0.1556	0.254	-0.387	
0.177876	-0.916098	0.36234	-19.67	-33.25	-54.11	-0.1589	0.2559	-0.3795	
0.195566	-0.91317	0.353556	-11.69	-31.43	-52.29	-0.1668	0.2455	-0.3704	
0.204838	-0.913292	0.35624	-14.77	-31.01	-49.84	-0.1752	0.259	-0.3703	
0.20923	-0.90402	0.332084	-10.43	-28	-48.93	-0.1829	0.2629	-0.3657	
0.261812	-0.900848	0.32452	-16.03	-28.49	-46.13	-0.1891	0.2508	-0.3625	
0.273402	-0.899628	0.32513	-14.84	-23.17	-43.33	-0.1913	0.2415	-0.355	
0.270962	-0.892796	0.325008	-14.35	-21.14	-44.03	-0.204	0.2363	-0.3487	
0.315858	-0.880596	0.332938	-17.36	-19.18	-42.49	-0.2072	0.2431	-0.359	
0.318298	-0.86986	0.318908	-9.66	-18.76	-43.68	-0.2136	0.2326	-0.3529	
0.325374	-0.867664	0.30805	-8.89	-20.3	-44.73	-0.2227	0.2525	-0.3498	
0.33794	-0.870958	0.294752	-7.63	-22.61	-43.96	-0.2329	0.236	-0.3465	
0.352702	-0.874252	0.293288	-9.87	-23.52	-42.49	-0.2348	0.241	-0.3435	
0.377712	-0.873154	0.291946	-10.57	-23.8	-41.79	-0.2387	0.2366	-0.3449	
0.38979	-0.867176	0.274988	-5.88	-22.75	-42.07	-0.2418	0.2352	-0.3315	
0.39833	-0.847168	0.265838	-2.87	-25.48	-41.58	-0.2534	0.2205	-0.3326	
0.407724	-0.85522	0.25498	-5.32	-28	-40.46	-0.2613	0.2293	-0.3369	
0.430294	-0.846924	0.24949	-4.97	-30.03	-39.48	-0.2556	0.227	-0.3523	
0.452864	-0.83814	0.248392	-5.32	-29.33	-39.55	-0.2752	0.2211	-0.3306	
0.467016	-0.846924	0.240462	-8.82	-30.87	-37.24	-0.2875	0.2286	-0.3259	
0.468724	-0.835578	0.254858	-5.67	-30.38	-34.23	-0.2788	0.2103	-0.3186	
0.48068	-0.84363	0.232166	-2.66	-28.42	-31.36	-0.2933	0.2101	-0.3138	
0.480314	-0.830698	0.224724	-2.17	-29.05	-29.12	-0.2918	0.2067	-0.3049	
0.518988	-0.836066	0.217648	-0.91	-26.74	-27.72	-0.3014	0.2172	-0.3033	
0.532286	-0.811666	0.232044	0.21	-23.66	-24.64	-0.3149	0.2025	-0.2895	
0.559004	-0.801662	0.213988	0.84	-21.56	-25.41	-0.3065	0.1906	-0.2926	
0.564494	-0.783484	0.218746	0.35	-20.3	-26.11	-0.3229	0.1986	-0.3011	
0.56669	-0.780312	0.216306	-2.1	-20.51	-26.39	-0.3187	0.1965	-0.2864	
0.570228	-0.787388	0.208864	-2.52	-18.69	-26.6	-0.3154	0.1947	-0.2969	
0.57706	-0.776164	0.211304	-4.2	-18.55	-24.71	-0.3293	0.1865	-0.2891	
0.585234	-0.784826	0.201422	-4.06	-18.62	-25.13	-0.3339	0.1901	-0.289	
0.585844	-0.786412	0.181292	-1.82	-18.48	-23.87	-0.335	0.1997	-0.2801	
0.601216	-0.771894	0.164944	-0.07	-16.73	-21.07	-0.3416	0.1782	-0.2857	
0.610488	-0.778726	0.156648	-2.66	-18.69	-21.21	-0.3441	0.1879	-0.2783	
0.606584	-0.788974	0.148962	3.64	-16.94	-21	-0.3441	0.1879	-0.2769	
0.607316	-0.798124	0.152622	1.47	-19.53	-17.71	-0.3406	0.1779	-0.2665	
0.615856	-0.777018	0.179096	1.75	-19.95	-13.58	-0.3492	0.1805	-0.2782	
0.648918	-0.760792	0.180316	4.34	-18.27	-10.92	-0.3524	0.1823	-0.2722	
0.679906	-0.757498	0.175802	6.02	-17.64	-9.31	-0.3564	0.1604	-0.2646	
0.688812	-0.751276	0.182756	3.78	-16.31	-6.72	-0.3518	0.1727	-0.2618	
0.683078	-0.742004	0.178608	5.11	-13.23	-4.55	-0.3616	0.1721	-0.2704	
0.687836	-0.740296	0.158722	6.37	-10.57	-3.5	-0.3675	0.1694	-0.2555	
0.671122	-0.745176	0.156526	5.39	-9.66	-1.89	-0.3573	0.17	-0.2602	
0.66978	-0.747494	0.155306	4.76	-9.03	-0.28	-0.3568	0.1795	-0.2602	
0.678198	-0.743712	0.159088	5.04	-6.23	1.47	-0.37	0.1824	-0.2599	
0.679784	-0.736514	0.161528	3.57	-5.46	3.08	-0.3678	0.1726	-0.254	
0.674172	-0.745664	0.149816	3.43	-4.97	4.34	-0.3665	0.1598	-0.2613	
0.686128	-0.7564	0.142374	3.64	-3.78	6.23	-0.3649	0.1614	-0.2717	
0.702476	-0.759206	0.156282	1.54	-3.36	9.8	-0.3626	0.1642	-0.2585	
0.711016	-0.754814	0.171044	0.77	-1.4	13.02	-0.3612	0.1673	-0.2674	
0.698572	-0.761402	0.168238	2.45	2.45	15.4	-0.3678	0.1759	-0.2658	
0.691496	-0.773968	0.172996	1.4	7.56	20.02	-0.36	0.1687	-0.263	
0.686006	-0.766038	0.197396	0.14	12.88	24.08	-0.3586	0.1702	-0.2705	
0.68076	-0.750422	0.175436	6.93	19.32	24.92	-0.3572	0.1843	-0.2617	
0.658678	-0.76982	0.149572	3.57	20.65	27.02	-0.3458	0.1737	-0.2723	
0.616344	-0.81008	0.186172	-3.22	24.71	33.39	-0.3374	0.1903	-0.2667	
0.593896	-0.813008	0.197884	3.36	30.66	36.12	-0.3485	0.1899	-0.2812	
0.590724	-0.822524	0.22753	-0.77	32.9	42.28	-0.3346	0.1949	-0.2816	
0.609268	-0.830454	0.261446	-6.37	36.75	49.56	-0.3263	0.1862	-0.265	
0.594506	-0.781044	0.209718	8.19	43.54	49.21	-0.3246	0.2146	-0.2908	
0.546316	-0.812398	0.167872	-2.17	39.41	50.19	-0.3141	0.2071	-0.3063	
0.480436	-0.922564	0.18117	-22.33	28.21	56.98	-0.3037	0.2078	-0.2928	
0.453352	-0.95648	0.208132	-6.02	35.98	57.19	-0.3	0.217	-0.3018	
0.458598	-0.891942	0.175802	9.1	41.3	56.91	-0.2848	0.225	-0.3037	
0.413824	-0.890844	0.218624	12.81	50.4	51.8	-0.276	0.2242	-0.3084	
0.437248	-0.85034	0.206424	14.14	48.79	56	-0.2705	0.2301	-0.3174	
0.406382	-0.870348	0.216916	2.73	37.45	59.64	-0.2585	0.2273	-0.3266	
0.351116	-0.874374	0.235948	6.44	32.9	62.23	-0.2571	0.2431	-0.3238	
0.330498	-0.867542	0.23363	4.34	28.42	66.08	-0.2365	0.2411	-0.3331	
0.321348	-0.87291	0.258152	5.74	30.31	66.29	-0.2478	0.2549	-0.3359	
0.312686	-0.859368	0.26352	12.67	33.95	65.94	-0.2213	0.2507	-0.3439	
0.296094	-0.887184	0.295972	5.39	32.41	65.31	-0.2146	0.258	-0.3501	
0.272182	-0.87901	0.2806	13.16	33.88	64.68	-0.2142	0.2707	-0.3531	
0.21655	-0.892064	0.292556	10.71	35.21	63.28	-0.2017	0.2742	-0.349	
0.183366	-0.888526	0.29097	13.65	35.63	62.02	-0.1852	0.2695	-0.3568	
0.144814	-0.897676	0.28487	15.54	35.56	61.32	-0.1706	0.268	-0.3572	
0.116632	-0.890722	0.280356	18.13	35.84	61.53	-0.1636	0.2705	-0.3573	
0.107238	-0.905728	0.296094	14.49	34.65	60.55	-0.1459	0.2672	-0.3607	
0.105164	-0.89609	0.297558	18.62	34.3	58.38	-0.1408	0.2762	-0.3668	
0.084668	-0.895968	0.310734	17.5	34.16	56.98	-0.1333	0.2739	-0.37	
0.05795	-0.90158	0.33245	14.14	32.83	57.47	-0.1262	0.2748	-0.3701	
0.017202	-0.898896	0.327448	21.07	34.79	56.63	-0.1093	0.2668	-0.3823	
-0.014274	-0.891332	0.34404	18.83	33.88	57.05	-0.0964	0.2671	-0.3797	
-0.045018	-0.893528	0.364536	15.96	32.34	57.68	-0.1038	0.2678	-0.3766	
-0.059658	-0.872178	0.374174	21.14	33.74	56.07	-0.0847	0.2676	-0.3889	
-0.087474	-0.863272	0.379664	16.1	31.29	57.4	-0.0762	0.2683	-0.3847	
-0.113948	-0.84729	0.389424	23.59	34.72	54.25	-0.0521	0.2596	-0.3941	
-0.143106	-0.84302	0.398086	17.99	30.17	54.11	-0.0422	0.2618	-0.3944	
-0.167994	-0.837408	0.396378	18.69	28.7	52.43	-0.0369	0.2502	-0.3929	
-0.224236	-0.851316	0.419314	20.37	26.25	49.07	-0.025	0.2474	-0.3991	
-0.198494	-0.85522	0.391864	6.3	16.87	54.39	-0.0175	0.2626	-0.4083	
-0.208742	-0.862052	0.413824	21.56	24.92	50.96	-0.0066	0.2536	-0.4055	
-0.239486	-0.833504	0.399062	27.72	28.7	49.56	0	0.2499	-0.4249	
-0.248026	-0.820328	0.408456	22.47	27.09	50.19	0.0071	0.2475	-0.4177	
-0.264252	-0.81435	0.418948	24.15	28.91	49.84	0.025	0.2426	-0.4225	
-0.271328	-0.793732	0.427122	23.87	28.56	47.81	0.0363	0.2414	-0.411	
-0.27328	-0.793122	0.416508	23.1	28	46.76	0.0404	0.2315	-0.4214	
-0.285724	-0.806298	0.421388	17.57	22.12	46.97	0.0506	0.2289	-0.4187	
-0.32757	-0.82899	0.424072	18.76	26.32	46.9	0.0519	0.232	-0.4217	
-0.359656	-0.793732	0.399062	27.65	30.8	44.87	0.0664	0.2179	-0.4308	
-0.384666	-0.786046	0.40321	17.99	26.67	45.22	0.0652	0.2149	-0.4307	
-0.40565	-0.77409	0.401624	25.06	29.96	41.86	0.0741	0.1965	-0.4323	
-0.44835	-0.749324	0.410286	23.52	27.51	38.71	0.0936	0.2041	-0.4314	
-0.469456	-0.734318	0.415044	24.15	26.04	36.33	0.095	0.2039	-0.4314	
-0.477142	-0.72407	0.429928	20.58	23.31	34.72	0.0992	0.1892	-0.43	
-0.48739	-0.718946	0.43371	21.42	21.49	32.55	0.1081	0.1884	-0.4361	
-0.503372	-0.706014	0.449082	21.21	21.42	30.38	0.1098	0.1834	-0.4287	
-0.507276	-0.694546	0.45689	20.44	20.72	28.42	0.1227	0.187	-0.4394	
-0.515328	-0.695644	0.471652	16.87	19.18	26.95	0.1229	0.1695	-0.4408	
-0.514596	-0.679784	0.469578	19.6	18.97	24.5	0.1352	0.1729	-0.4263	
-0.520696	-0.664534	0.467626	16.94	16.94	23.38	0.1295	0.1768	-0.4425	
-0.517524	-0.65331	0.46848	15.12	16.45	22.82	0.1363	0.165	-0.4396	
-0.523868	-0.64721	0.478362	13.37	16.73	22.05	0.1465	0.1623	-0.4354	
-0.544974	-0.640744	0.46726	13.86	17.01	20.79	0.1439	0.161	-0.4412	
-0.55754	-0.641842	0.473726	11.41	15.96	20.16	0.1515	0.1412	-0.4428	
-0.574132	-0.644038	0.473116	12.11	16.1	19.88	0.1467	0.1481	-0.4486	
-0.589626	-0.64111	0.469456	11.13	15.4	19.46	0.1699	0.1458	-0.4477	
-0.59719	-0.63135	0.468358	10.71	14.77	18.76	0.1604	0.1372	-0.4385	
-0.609634	-0.624762	0.477142	6.3	12.04	18.13	0.1747	0.1389	-0.4419	
-0.627812	-0.617198	0.47092	8.12	11.76	15.82	0.1783	0.1465	-0.4405	
-0.616344	-0.617076	0.473604	3.78	8.96	14.63	0.1735	0.1517	-0.4405	
-0.610366	-0.607072	0.46787	4.83	7.42	12.88	0.1838	0.1332	-0.4376	
-0.612196	-0.59902	0.471286	3.15	7	11.9	0.1771	0.1308	-0.4493	
-0.622078	-0.601582	0.471042	2.03	7.14	10.5	0.1867	0.1329	-0.4377	
-0.626958	-0.601826	0.461038	1.4	6.65	9.1	0.1813	0.1303	-0.4449	
-0.630984	-0.611098	0.463722	0.14	6.3	7.63	0.1799	0.1289	-0.439	
-0.65087	-0.609634	0.44835	2.66	7.63	5.81	0.1837	0.1332	-0.4362	
-0.65758	-0.611952	0.45323	1.26	7.91	4.48	0.1818	0.1239	-0.442	
-0.660752	-0.607316	0.45506	0.77	5.95	3.64	0.1854	0.1299	-0.4317	
-0.663314	-0.610488	0.45323	-0.42	4.41	2.87	0.1912	0.1309	-0.4393	
-0.66246	-0.60146	0.450058	1.26	3.57	1.12	0.1911	0.1309	-0.4348	
-0.660996	-0.597922	0.448716	-1.05	1.54	-0.28	0.1927	0.1149	-0.4392	
-0.658922	-0.590114	0.44957	-0.21	1.47	-2.24	0.203	0.1281	-0.4396	
-0.653676	-0.601094	0.45384	-3.5	-1.47	-4.48	0.1874	0.1282	-0.4495	
-0.663924	-0.594506	0.450546	-0.98	-2.45	-6.79	0.1828	0.1269	-0.4331	
-0.660508	-0.594872	0.453718	-2.52	-3.78	-8.68	0.1988	0.127	-0.4395	
-0.680394	-0.592066	0.438468	-1.12	-4.9	-11.55	0.1827	0.1302	-0.442	
-0.692716	-0.594628	0.438834	-3.01	-7.21	-14.35	0.1772	0.1292	-0.4478	
-0.670756	-0.586576	0.459452	-4.13	-10.43	-17.57	0.1772	0.1292	-0.4478	
-0.652334	-0.567056	0.45628	-3.85	-12.11	-20.93	0.1832	0.138	-0.4317	
-0.62464	-0.589138	0.46238	-13.09	-16.45	-22.33	0.1844	0.1427	-0.4377	
-0.617808	-0.593652	0.460916	-10.29	-14.14	-25.9	0.1789	0.1385	-0.4361	
-0.607682	-0.595848	0.466528	-12.67	-12.18	-29.82	0.1727	0.1455	-0.4419	
-0.588284	-0.607682	0.465552	-16.31	-13.3	-33.46	0.1725	0.1454	-0.4345	
-0.587308	-0.6283	0.447862	-17.5	-13.09	-37.45	0.1674	0.1539	-0.4344	
-0.593896	-0.63928	0.448594	-20.16	-13.51	-41.44	0.1544	0.1552	-0.4385	
-0.5612	-0.648308	0.426024	-21.21	-15.68	-45.78	0.1557	0.1567	-0.4356	
-0.546438	-0.64599	0.423462	-20.16	-17.36	-49.56	0.1377	0.1648	-0.4382	
-0.517158	-0.678686	0.4087	-25.9	-24.15	-54.39	0.1336	0.1763	-0.4307	
-0.522648	-0.699548	0.395036	-22.96	-25.48	-58.59	0.1245	0.1787	-0.4231	
-0.504836	-0.739808	0.400526	-30.17	-29.12	-60.83	0.1195	0.1888	-0.4305	
-0.468968	-0.752984	0.398818	-23.8	-28.84	-64.26	0.1039	0.2031	-0.4361	
-0.42029	-0.769576	0.393328	-28.56	-34.37	-64.47	0.0913	0.198	-0.4343	
-0.387838	-0.78751	0.407114	-28.35	-35	-65.87	0.0834	0.2177	-0.4179	
-0.359534	-0.791414	0.39589	-24.08	-32.9	-69.09	0.0774	0.2073	-0.431	
-0.33123	-0.798002	0.38857	-25.13	-33.74	-69.86	0.0572	0.2236	-0.4306	
-0.3111	-0.81069	0.370392	-22.19	-36.12	-71.26	0.0428	0.2202	-0.4199	
-0.283284	-0.850096	0.37515	-27.3	-37.1	-71.33	0.0401	0.2347	-0.4214	
-0.24705	-0.833138	0.378444	-9.73	-32.55	-73.36	0.0197	0.2335	-0.4105	
-0.223504	-0.814594	0.357338	-17.15	-44.17	-71.19	0.0088	0.2458	-0.4207	
-0.182756	-0.842166	0.37332	-18.69	-45.36	-71.68	-0.0046	0.2487	-0.41	
-0.155306	-0.860466	0.359656	-15.33	-45.5	-71.19	-0.0205	0.247	-0.4022	
-0.127734	-0.871324	0.368074	-15.82	-44.38	-69.79	-0.0247	0.2491	-0.4139	
-0.096868	-0.876936	0.375272	-14.07	-43.75	-69.3	-0.0419	0.246	-0.4076	
-0.057706	-0.866566	0.381006	-12.46	-44.94	-68.11	-0.0555	0.2537	-0.4102	
-0.012322	-0.876448	0.373442	-13.86	-44.52	-66.22	-0.0737	0.2619	-0.4039	
0.041968	-0.85888	0.359534	-6.93	-38.71	-67.69	-0.0935	0.2542	-0.393	
0.06466	-0.844362	0.353434	-7.77	-41.51	-67.62	-0.1041	0.2584	-0.3883	
0.08052	-0.88877	0.351726	-16.73	-47.74	-64.61	-0.1184	0.2567	-0.385	
0.122854	-0.912926	0.360388	-13.93	-45.78	-62.16	-0.1213	0.2427	-0.3937	
0.161528	-0.91683	0.349652	-8.33	-39.69	-61.81	-0.1475	0.2596	-0.3858	
0.193126	-0.887916	0.338184	-5.81	-34.93	-60.97	-0.1552	0.2635	-0.3812	
0.213866	-0.89243	0.349286	-14.14	-35.49	-59.15	-0.1659	0.2518	-0.3734	
0.252174	-0.88084	0.350384	-10.99	-31.43	-58.24	-0.1691	0.2378	-0.3673	
0.268156	-0.857782	0.348432	-7.28	-28.98	-59.15	-0.1792	0.2563	-0.3746	
0.29097	-0.879498	0.349652	-17.22	-30.17	-58.17	-0.1843	0.2456	-0.3641	
0.290848	-0.879742	0.343308	-10.64	-33.11	-58.87	-0.195	0.2514	-0.3594	
0.305854	-0.881694	0.329156	-10.99	-32.2	-55.37	-0.206	0.2445	-0.3561	
0.33062	-0.897066	0.326594	-13.3	-32.97	-52.01	-0.2029	0.241	-0.3532	
0.353678	-0.897798	0.323422	-12.32	-30.31	-49.28	-0.2108	0.2339	-0.3544	
0.359046	-0.856074	0.314028	-2.59	-22.61	-48.51	-0.2255	0.2353	-0.3511	
0.36173	-0.847412	0.304512	-4.34	-24.99	-47.95	-0.2281	0.2308	-0.3451	
0.388326	-0.855342	0.312442	-11.13	-28.07	-45.92	-0.2393	0.2255	-0.3404	
0.410042	-0.84485	0.312198	-5.32	-24.71	-46.9	-0.2525	0.2284	-0.34	
0.407968	-0.834602	0.306708	-2.38	-22.05	-48.3	-0.2532	0.2348	-0.3356	
0.421754	-0.83082	0.298534	-8.19	-23.45	-46.55	-0.257	0.2288	-0.334	
0.422852	-0.8357	0.29097	-8.33	-25.55	-46.41	-0.2661	0.2154	-0.3263	
0.43859	-0.837652	0.274988	-6.23	-25.69	-45.57	-0.2764	0.2196	-0.332	
0.446398	-0.849974	0.266448	-9.31	-28	-44.03	-0.2833	0.2139	-0.3259	
0.464454	-0.854122	0.259006	-7.91	-26.6	-40.88	-0.2863	0.2126	-0.3154	
0.478728	-0.841068	0.25498	-3.71	-25.9	-39.34	-0.2896	0.2034	-0.3227	
0.506788	-0.840458	0.23851	-4.13	-26.04	-35.14	-0.2987	0.2059	-0.3151	
0.523868	-0.826428	0.239364	-3.57	-25.83	-33.04	-0.3092	0.1942	-0.3133	
0.553148	-0.816424	0.232776	-3.15	-26.25	-31.71	-0.3001	0.2044	-0.3091	
0.563396	-0.803736	0.23302	-3.43	-25.06	-29.82	-0.314	0.1978	-0.3073	
0.566202	-0.795806	0.213866	-1.19	-23.94	-28.07	-0.3176	0.187	-0.2982	
0.566446	-0.783972	0.20679	-1.54	-23.66	-25.83	-0.3152	0.1915	-0.2924	
0.577426	-0.773602	0.207522	-0.77	-20.86	-24.71	-0.3318	0.1836	-0.2919	
0.596336	-0.770552	0.200446	0.35	-19.18	-23.59	-0.33	0.1803	-0.2964	
0.60817	-0.757132	0.20008	0.28	-18.69	-22.89	-0.3313	0.1788	-0.2963	
0.624884	-0.739564	0.194712	-0.49	-18.34	-22.54	-0.336	0.1666	-0.2932	
0.612684	-0.739564	0.192272	-2.73	-18.62	-22.26	-0.3352	0.1728	-0.2903	
0.634156	-0.744322	0.189344	-4.83	-18.27	-21.42	-0.3477	0.1661	-0.2855	
0.632082	-0.733586	0.19459	-1.61	-15.96	-21.49	-0.3479	0.1677	-0.284	
0.622688	-0.722728	0.188978	1.33	-13.65	-22.33	-0.3426	0.1719	-0.2783	
0.639402	-0.71797	0.184342	-2.45	-15.96	-20.93	-0.3496	0.1678	-0.2751	
0.648308	-0.72224	0.176046	-1.75	-14.84	-20.72	-0.3588	0.1576	-0.2719	
0.67161	-0.726876	0.168482	-4.62	-16.03	-19.67	-0.3493	0.1662	-0.281	
0.667706	-0.73322	0.177388	-3.08	-14.98	-20.72	-0.36	0.1545	-0.2703	
0.68991	-0.723826	0.16775	-2.45	-15.19	-20.65	-0.366	0.1583	-0.2746	
0.66795	-0.72407	0.16165	1.96	-14.21	-23.03	-0.3619	0.1595	-0.2718	
0.715896	-0.74908	0.13542	-1.96	-15.54	-19.18	-0.357	0.1526	-0.2689	
0.725046	-0.734806	0.16409	-0.14	-13.79	-17.43	-0.3625	0.1483	-0.2628	
0.709674	-0.732488	0.16714	3.36	-10.29	-14.28	-0.3763	0.1418	-0.2639	
0.711626	-0.721996	0.152012	8.4	-7.42	-10.78	-0.3771	0.1498	-0.261	
0.728828	-0.7015	0.1464	7.14	-6.16	-8.89	-0.3691	0.1569	-0.2613	
0.73749	-0.691374	0.132614	5.46	-6.3	-5.46	-0.3693	0.1284	-0.2655	
0.744932	-0.700158	0.137616	0.21	-8.54	-3.15	-0.378	0.1435	-0.2609	
0.742126	-0.692106	0.149938	-0.14	-7.84	-0.21	-0.3768	0.145	-0.258	
0.744444	-0.701012	0.146766	3.01	-4.55	0.21	-0.3783	0.1435	-0.2506	
0.747616	-0.702598	0.143472	6.37	-0.77	2.59	-0.371	0.1444	-0.2552	
0.757864	-0.70211	0.146278	4.76	-0.14	5.25	-0.3752	0.1448	-0.2625	
0.755668	-0.687104	0.150792	5.74	1.96	7.49	-0.3745	0.1368	-0.261	
0.752984	-0.68076	0.134932	7.91	3.57	9.03	-0.3837	0.1425	-0.2593	
0.75213	-0.705282	0.139324	2.66	3.64	11.97	-0.3729	0.151	-0.2596	
0.754204	-0.701256	0.16104	2.94	6.09	14	-0.3726	0.1477	-0.2596	
0.754814	-0.704306	0.1464	5.88	8.12	16.1	-0.368	0.1457	-0.2642	
0.743224	-0.715774	0.157136	2.94	9.8	20.23	-0.3664	0.1456	-0.2716	
0.747494	-0.731634	0.169336	4.62	16.1	25.62	-0.3609	0.1466	-0.2643	
0.739564	-0.732854	0.187148	3.43	20.09	30.45	-0.3567	0.151	-0.2748	
0.72834	-0.740296	0.188368	2.31	21.98	35.35	-0.3551	0.1668	-0.2809	
0.70455	-0.738222	0.1769	3.85	24.5	40.53	-0.3563	0.1621	-0.2734	
0.688446	-0.755546	0.174704	2.59	26.67	45.22	-0.3498	0.171	-0.2766	
0.6588	-0.776652	0.189588	0.42	28.14	50.75	-0.3519	0.1808	-0.287	
0.65331	-0.786412	0.21716	0.21	31.29	56.56	-0.3333	0.1821	-0.2874	
0.644526	-0.779214	0.19947	4.06	35.07	60.69	-0.3266	0.1894	-0.2936	
0.60207	-0.791658	0.205692	1.05	35.91	63.35	-0.3238	0.1891	-0.2863	
0.575352	-0.830942	0.221674	-8.61	33.39	70.63	-0.3235	0.2018	-0.2893	
0.553514	-0.864004	0.248514	-6.58	43.12	71.12	-0.297	0.2135	-0.2945	
0.526064	-0.828136	0.217404	10.71	54.25	72.59	-0.2928	0.2179	-0.3064	
0.528504	-0.83021	0.233386	0.49	48.93	71.05	-0.2847	0.2124	-0.3199	
0.465186	-0.871324	0.244488	4.27	49.21	72.94	-0.2664	0.2296	-0.3087	
0.40443	-0.850096	0.24278	3.36	48.02	76.16	-0.2677	0.2314	-0.319	
0.355386	-0.869372	0.25803	3.22	46.69	75.46	-0.2563	0.2367	-0.3356	
0.326472	-0.86925	0.247416	10.15	47.74	75.32	-0.2381	0.2428	-0.3331	
0.289994	-0.860954	0.24461	11.69	45.99	75.11	-0.2268	0.2465	-0.3393	
0.269986	-0.86681	0.25986	11.41	43.26	73.36	-0.2099	0.2385	-0.3501	
0.23302	-0.86376	0.257664	15.54	39.27	73.71	-0.1973	0.2453	-0.3593	
0.21106	-0.86925	0.279502	11.62	34.09	72.45	-0.1946	0.2608	-0.3521	
0.201178	-0.862418	0.296704	17.99	35.42	70.14	-0.1842	0.2599	-0.3627	
0.156892	-0.867664	0.308904	19.81	36.47	68.74	-0.1788	0.2625	-0.3569	
0.135298	-0.888526	0.34099	14.42	34.72	68.6	-0.1618	0.2529	-0.3676	
0.123342	-0.890966	0.336598	17.78	34.23	66.71	-0.138	0.2633	-0.3757	
0.072346	-0.876692	0.33489	21.56	35.49	64.26	-0.1431	0.2701	-0.3697	
0.044042	-0.868152	0.351116	18.06	36.47	64.05	-0.1283	0.2687	-0.3789	
0.013054	-0.869128	0.363926	18.55	36.54	62.65	-0.1241	0.2715	-0.3864	
-0.02318	-0.86498	0.36539	22.89	36.4	59.71	-0.0983	0.2578	-0.387	
-0.041602	-0.859368	0.370636	22.33	33.74	59.36	-0.0941	0.2606	-0.3916	
-0.056486	-0.872422	0.392962	19.53	33.32	60.34	-0.0888	0.2506	-0.3961	
-0.080886	-0.831064	0.39345	28.98	35.91	56.84	-0.0649	0.2561	-0.3893	
-0.09747799	-0.829722	0.403576	20.16	34.02	58.59	-0.0445	0.2573	-0.4031	
-0.130418	-0.867176	0.41785	17.64	34.02	59.01	-0.0381	0.2345	-0.4017	
-0.149206	-0.843996	0.416996	24.99	36.75	57.26	-0.0301	0.2432	-0.4078	
-0.17263	-0.831552	0.43127	21.28	34.72	56.98	-0.0131	0.2321	-0.4156	
-0.203252	-0.82594	0.464332	21.91	29.19	51.52	-0.008599999	0.2268	-0.4024	
-0.210328	-0.815936	0.436516	8.75	25.27	57.05	0.0083	0.2347	-0.4176	
-0.221552	-0.795074	0.42761	21.7	31.85	54.11	0.0133	0.2263	-0.4133	
-0.246562	-0.794098	0.432734	16.59	31.71	53.2	0.0161	0.2308	-0.4281	
-0.266814	-0.78873	0.442616	17.71	32.06	52.08	0.0215	0.2302	-0.4105	
-0.28792	-0.78263	0.445056	19.32	31.5	49.84	0.0357	0.2193	-0.4197	
-0.317078	-0.775676	0.44408	19.04	29.47	48.37	0.0411	0.2235	-0.4199	
-0.332816	-0.773846	0.453352	18.48	28.98	46.13	0.0487	0.2212	-0.4274	
-0.358802	-0.766648	0.444934	19.74	27.93	43.82	0.0586	0.2076	-0.4291	
-0.370148	-0.755546	0.442006	18.55	26.95	41.65	0.0729	0.1934	-0.4293	
-0.39955	-0.758962	0.450546	15.82	27.58	39.83	0.07319999	0.2045	-0.425	
-0.419314	-0.749446	0.449448	17.5	28.7	37.94	0.0891	0.1902	-0.4312	
-0.428342	-0.734562	0.455792	18.06	29.12	35.28	0.0959	0.1943	-0.4299	
-0.442128	-0.728828	0.441762	15.47	26.74	34.23	0.1029	0.1809	-0.43	
-0.448838	-0.726754	0.448228	13.65	25.62	33.04	0.1042	0.184	-0.436	
-0.462502	-0.719068	0.44408	12.88	23.94	31.92	0.1228	0.1853	-0.4606	
-0.48556	-0.707722	0.438468	12.39	22.82	30.38	0.1202	0.1808	-0.4319	
-0.509472	-0.69296	0.434076	13.58	22.68	28.49	0.1249	0.1772	-0.432	
-0.52521	-0.691862	0.426878	11.41	21.7	27.58	0.1351	0.1761	-0.4323	
-0.540948	-0.697962	0.433222	11.55	22.12	25.48	0.1343	0.165	-0.4203	
-0.55266	-0.700158	0.420412	10.71	19.32	23.87	0.1301	0.1671	-0.4321	
-0.557418	-0.701744	0.432002	10.5	18.34	22.75	0.1507	0.1619	-0.4296	
-0.561444	-0.684908	0.430172	13.79	20.09	21.21	0.1594	0.1626	-0.4328	
-0.565226	-0.675636	0.441518	13.93	21.07	19.81	0.163	0.1543	-0.4328	
-0.58133	-0.660752	0.44347	14.63	19.46	18.9	0.1684	0.1443	-0.4403	
-0.598288	-0.666608	0.439932	12.88	16.59	18.41	0.1668	0.1444	-0.4328	
-0.60756	-0.65514	0.450058	13.86	14.21	17.71	0.1749	0.1373	-0.4448	
-0.614392	-0.645624	0.448228	13.44	11.55	17.92	0.1718	0.1376	-0.4344	
-0.631106	-0.63318	0.459452	15.47	11.9	17.29	0.1895	0.1342	-0.4378	
-0.649528	-0.62464	0.462746	14.84	10.15	16.66	0.1875	0.1233	-0.4362	
-0.636596	-0.605852	0.455304	14.77	8.47	15.05	0.1896	0.1327	-0.4393	
-0.62281	-0.592432	0.466772	12.04	7.07	13.58	0.1922	0.1372	-0.4408	
-0.64111	-0.58316	0.464454	11.83	5.81	11.83	0.1901	0.1262	-0.4348	
-0.652822	-0.588528	0.468358	6.72	3.15	10.43	0.188	0.1185	-0.4391	
-0.648918	-0.5856	0.467382	6.37	2.45	7.7	0.1928	0.1292	-0.4393	
-0.660142	-0.579988	0.45994	5.53	2.1	4.62	0.1981	0.1175	-0.4349	
-0.665388	-0.577182	0.461892	3.43	0.84	1.82	0.1935	0.1211	-0.4378	
-0.658922	-0.569862	0.466772	2.59	0.56	-1.05	0.1982	0.1175	-0.4364	
-0.656604	-0.57767	0.475312	0.14	0.49	-3.64	0.198	0.1224	-0.4468	
-0.659532	-0.578402	0.481046	0.63	0.35	-7.49	0.1885	0.1137	-0.4421	
-0.659776	-0.567178	0.478484	0	-1.54	-11.55	0.1881	0.1185	-0.4436	
-0.671366	-0.560712	0.47214	-1.33	-3.57	-17.64	0.1981	0.1191	-0.4409	
-0.676246	-0.564616	0.462746	-3.29	-5.11	-21.7	0.1926	0.1165	-0.4422	
-0.669292	-0.571204	0.474092	-6.65	-8.33	-24.57	0.1836	0.1206	-0.4435	
-0.674782	-0.564982	0.45933	-5.46	-10.5	-27.93	0.1865	0.1345	-0.4362	
-0.661362	-0.58865	0.464332	-12.95	-16.24	-30.31	0.1685	0.1284	-0.4431	
-0.63867	-0.596824	0.459574	-11.48	-19.67	-34.72	0.1733	0.1391	-0.4418	
-0.630862	-0.595116	0.465308	-14.42	-22.89	-39.34	0.169	0.1411	-0.4506	
-0.600362	-0.606096	0.471896	-17.01	-24.57	-44.31	0.158	0.1343	-0.4488	
-0.56547	-0.610122	0.469456	-17.92	-25.06	-49.28	0.1518	0.1539	-0.4429	
-0.539972	-0.626226	0.459452	-22.19	-28.49	-54.25	0.1511	0.1444	-0.4384	
-0.51118	-0.64965	0.466284	-27.37	-31.99	-57.61	0.1351	0.1619	-0.4381	
-0.490684	-0.678076	0.451888	-28	-35.21	-61.6	0.1304	0.1655	-0.4395	
-0.471042	-0.712602	0.453596	-31.92	-37.87	-63.56	0.1194	0.1778	-0.4467	
-0.453718	-0.747372	0.453596	-33.11	-39.2	-64.4	0.1062	0.1758	-0.4286	
-0.421266	-0.751154	0.424072	-28.35	-38.85	-66.36	0.0916	0.1964	-0.4131	
-0.394792	-0.748958	0.413458	-13.58	-31.15	-75.25	0.0777	0.2041	-0.431	
-0.336964	-0.75274	0.38064	-25.13	-37.87	-71.82	0.0597	0.2122	-0.4306	
-0.30256	-0.782508	0.414312	-30.38	-41.58	-69.79	0.0421	0.214	-0.4287	
-0.288286	-0.809104	0.38369	-27.51	-44.45	-69.3	0.0329	0.2213	-0.4329	
-0.230946	-0.845216	0.405284	-31.22	-43.26	-69.86	0.0245	0.2299	-0.4165	
-0.216306	-0.84607	0.383568	-18.76	-39.2	-69.65	0.0135	0.2263	-0.4236	
-0.180316	-0.84363	0.37942	-18.41	-39.97	-68.81	0.0015	0.2323	-0.4278	
-0.151402	-0.849486	0.384178	-14	-38.85	-71.05	-0.009699999	0.2429	-0.4172	
-0.116998	-0.841068	0.373808	-9.24	-38.15	-71.68	-0.0326	0.242	-0.4196	
-0.092354	-0.870592	0.371978	-15.33	-42.7	-71.05	-0.0422	0.235	-0.4149	
-0.065148	-0.875838	0.362706	-7.77	-38.43	-72.24	-0.0453	0.2352	-0.4059	
-0.030012	-0.876448	0.380274	-5.74	-36.61	-72.31	-0.068	0.247	-0.4069	
-0.019642	-0.865956	0.363682	-2.59	-37.52	-69.72	-0.0803	0.2387	-0.4051	
0.003172	-0.883036	0.365268	-9.17	-44.94	-68.11	-0.0917	0.2383	-0.4062	
0.057462	-0.885842	0.36051	-4.2	-47.11	-67.2	-0.1017	0.2377	-0.4075	
0.075762	-0.879742	0.351482	-4.13	-51.31	-64.82	-0.1241	0.243	-0.3981	
0.143472	-0.85766	0.357338	-2.73	-50.47	-61.67	-0.1255	0.2273	-0.4009	
0.169702	-0.855098	0.375394	-7.7	-49.28	-59.36	-0.1349	0.2346	-0.3963	
0.215452	-0.873398	0.371612	-10.99	-50.19	-57.33	-0.1509	0.2361	-0.3944	
0.224846	-0.870836	0.367342	-9.8	-51.45	-55.72	-0.1552	0.2301	-0.3736	
0.286822	-0.875228	0.348188	-13.93	-53.9	-53.27	-0.1744	0.2335	-0.3687	
0.290482	-0.875838	0.350872	-1.19	-50.33	-54.04	-0.1783	0.2308	-0.3745	
0.320616	-0.875472	0.349164	-3.57	-47.67	-51.8	-0.1912	0.2305	-0.3771	
0.351482	-0.852658	0.353434	-0.7	-43.47	-50.89	-0.2024	0.222	-0.3605	
0.375394	-0.828868	0.364658	0.42	-41.37	-51.52	-0.2154	0.2233	-0.3661	
0.392596	-0.832284	0.35563	-3.78	-41.86	-49.14	-0.2216	0.2254	-0.3541	
0.404674	-0.82655	0.356484	-4.48	-40.46	-47.74	-0.2324	0.2186	-0.3597	
0.405772	-0.814106	0.33306	-3.15	-38.15	-47.32	-0.2338	0.2155	-0.3493	
0.438102	-0.815448	0.33672	-5.25	-36.26	-47.74	-0.2429	0.2053	-0.352	
0.462502	-0.808982	0.332328	-3.08	-34.3	-46.76	-0.2553	0.2129	-0.3443	
0.48617	-0.817156	0.350506	-3.92	-31.64	-47.53	-0.2616	0.2024	-0.3456	
0.494588	-0.796904	0.345748	-1.12	-30.24	-46.41	-0.2724	0.2098	-0.3409	
0.486902	-0.79056	0.325618	-5.95	-33.81	-45.22	-0.2798	0.193	-0.3303	
0.505568	-0.79117	0.320372	-7.42	-34.09	-44.31	-0.2913	0.1909	-0.3255	
0.498492	-0.792512	0.30073	-4.2	-31.01	-42.28	-0.2929	0.1943	-0.3299	
0.51667	-0.797026	0.288042	-7.28	-30.73	-40.18	-0.2987	0.19	-0.315	
0.533628	-0.78019	0.279136	-5.88	-30.1	-38.78	-0.3073	0.1766	-0.3265	
0.55998	-0.792146	0.270352	-7.21	-27.51	-38.15	-0.3197	0.1825	-0.3144	
0.597922	-0.790438	0.293166	-8.05	-25.76	-36.61	-0.3207	0.1762	-0.3069	
0.60268	-0.771406	0.268034	-6.93	-25.13	-35.21	-0.3185	0.1681	-0.3084	
0.59841	-0.767624	0.263886	-6.86	-25.06	-36.05	-0.335	0.1603	-0.3139	
0.595848	-0.763232	0.251564	-4.76	-25.69	-33.67	-0.3371	0.1651	-0.302	
0.602558	-0.75274	0.249124	-4.48	-25.34	-30.24	-0.3413	0.1607	-0.293	
0.61183	-0.729804	0.241804	-2.94	-22.4	-27.86	-0.332	0.1551	-0.2976	
0.640256	-0.709186	0.233142	-1.54	-18.97	-26.67	-0.3365	0.1555	-0.2901	
0.646478	-0.697352	0.217404	-2.8	-18.69	-24.78	-0.358	0.1528	-0.2881	
0.678564	-0.705648	0.20496	-7.07	-20.65	-24.78	-0.3532	0.1476	-0.2882	
0.659288	-0.723216	0.223016	-5.25	-17.5	-28.14	-0.3542	0.1413	-0.2807	
0.672952	-0.745664	0.223016	-6.44	-18.06	-24.85	-0.3589	0.1449	-0.2821	
0.691862	-0.730292	0.230214	-4.13	-15.75	-19.88	-0.3539	0.1365	-0.2778	
0.703818	-0.707112	0.213012	3.99	-11.06	-19.81	-0.3586	0.1417	-0.2792	
0.723948	-0.701744	0.18849	-5.6	-14.91	-14.42	-0.3637	0.1469	-0.2687	
0.735172	-0.693082	0.19215	-10.71	-16.03	-14.7	-0.3631	0.1405	-0.2687	
0.72285	-0.709308	0.200324	-9.66	-13.72	-14.63	-0.3702	0.1396	-0.2715	
0.70882	-0.726266	0.17873	-4.55	-10.22	-10.22	-0.3626	0.1325	-0.2613	
0.725656	-0.716262	0.173118	0.63	-6.51	-9.66	-0.3727	0.1351	-0.2714	
0.73383	-0.710772	0.173606	0.21	-6.37	-6.72	-0.3788	0.1405	-0.2742	
0.72956	-0.708698	0.172386	1.68	-4.13	-4.69	-0.3731	0.1367	-0.261	
0.72529	-0.69967	0.16775	1.19	-3.43	-2.87	-0.3714	0.1317	-0.2522	
0.737978	-0.691984	0.16226	2.87	-2.03	-1.26	-0.3727	0.1319	-0.2595	
0.73932	-0.694058	0.170068	-0.35	-2.94	1.61	-0.375	0.1258	-0.2609	
0.731634	-0.702964	0.168116	1.05	-0.7	2.94	-0.3741	0.1336	-0.2639	
0.731024	-0.69296	0.160186	2.31	0.84	4.41	-0.3768	0.1324	-0.2698	
0.749812	-0.70333	0.180682	-0.42	1.61	8.54	-0.3726	0.1319	-0.261	
0.76006	-0.700158	0.19581	-0.28	4.34	11.34	-0.3643	0.1374	-0.2672	
0.758596	-0.685762	0.174216	3.15	6.93	12.32	-0.3703	0.1396	-0.2655	
0.75457	-0.6954	0.157746	-0.07	4.69	15.19	-0.3723	0.1446	-0.2626	
0.733098	-0.720898	0.168848	-1.12	5.81	17.78	-0.3701	0.138	-0.27	
0.711992	-0.74115	0.180194	-1.05	8.26	21.56	-0.3612	0.1514	-0.2688	
0.724192	-0.734196	0.20069	-0.56	11.13	26.32	-0.365	0.1455	-0.2672	
0.725656	-0.717482	0.201788	2.24	14.84	29.75	-0.3655	0.1519	-0.2717	
0.709674	-0.72346	0.19581	-0.28	15.4	33.39	-0.3608	0.1483	-0.2732	
0.693082	-0.731268	0.204472	-0.98	18.2	36.96	-0.3567	0.1527	-0.2807	
0.680638	-0.745786	0.220332	-2.38	21.49	41.02	-0.3538	0.1682	-0.2809	
0.664046	-0.759328	0.227896	-3.71	24.29	46.06	-0.3411	0.1559	-0.2841	
0.655506	-0.776286	0.261446	-8.12	28.14	51.24	-0.3416	0.1782	-0.2872	
0.651358	-0.75884	0.248636	-4.55	32.48	55.93	-0.3271	0.1783	-0.2876	
0.617686	-0.753472	0.22692	-2.8	35.14	56.77	-0.3221	0.1874	-0.2922	
0.584868	-0.815936	0.237168	-16.94	33.46	61.74	-0.3181	0.1918	-0.2953	
0.491172	-0.843142	0.235582	1.26	49.56	62.79	-0.3088	0.2036	-0.3059	
0.490562	-0.802272	0.230824	1.05	53.55	62.58	-0.3022	0.2125	-0.3136	
0.503128	-0.793488	0.229604	-3.78	50.54	62.44	-0.2877	0.2253	-0.3051	
0.441396	-0.819108	0.238144	-7.98	45.22	62.65	-0.2819	0.228	-0.3171	
0.394426	-0.85583	0.232044	-7.63	42.63	61.25	-0.272	0.2176	-0.3291	
0.364292	-0.867298	0.261812	-9.52	39.76	62.58	-0.2621	0.234	-0.3236	
0.355142	-0.859124	0.246684	-1.75	40.74	59.43	-0.2534	0.2348	-0.3282	
0.333548	-0.854366	0.279624	-3.85	40.95	59.15	-0.2522	0.2378	-0.3283	
0.313906	-0.850584	0.285724	1.12	41.86	57.54	-0.2344	0.2504	-0.3377	
0.3111	-0.839848	0.271816	1.4	41.44	56.42	-0.2161	0.2423	-0.3484	
0.26352	-0.848022	0.277916	0.49	41.65	53.69	-0.2184	0.2488	-0.3381	
0.242292	-0.86132	0.278892	-4.41	39.9	53.06	-0.2009	0.2487	-0.3444	
0.22021	-0.876692	0.28182	-4.62	37.38	53.48	-0.1953	0.2672	-0.3477	
0.195322	-0.897676	0.281454	-3.99	35.28	54.04	-0.1854	0.2568	-0.3341	
0.17507	-0.897188	0.285968	-1.12	35.28	53.13	-0.1809	0.269	-0.351	
0.139324	-0.88999	0.300608	-1.89	33.6	51.1	-0.1574	0.281	-0.3576	
0.107726	-0.886574	0.300974	-0.35	32.83	49.42	-0.1471	0.2783	-0.3549	
0.06893	-0.892918	0.300364	-0.07	31.15	48.51	-0.141	0.2762	-0.3609	
0.034526	-0.888648	0.28792	1.68	28	47.25	-0.1273	0.2652	-0.3508	
0.019154	-0.89609	0.291702	1.82	25.55	45.29	-0.1272	0.2811	-0.3509	
0.0183	-0.898042	0.299144	2.24	22.96	42.28	-0.1182	0.2787	-0.3571	
0.003782	-0.915976	0.302926	2.66	21.07	39.9	-0.1148	0.2895	-0.3602	
-0.007686	-0.91805	0.334036	1.61	19.88	37.17	-0.1111	0.2987	-0.3677	
-0.04941	-0.852902	0.270108	18.13	21.98	29.33	-0.1061	0.2902	-0.3648	
-0.063318	-0.862906	0.26047	8.61	15.61	22.68	-0.1036	0.2805	-0.3708	
-0.0793	-0.925126	0.266692	4.62	9.87	20.09	-0.0896	0.2854	-0.3711	
-0.121512	-0.879132	0.246684	22.54	11.06	13.79	-0.0926	0.2857	-0.3681	
-0.105774	-0.862174	0.283528	14.07	0.35	11.55	-0.09079999	0.284	-0.3785	
-0.12383	-0.890722	0.291336	14.91	-9.94	9.94	-0.0829	0.2753	-0.3742	
-0.13176	-0.902922	0.295362	18.83	-16.24	8.33	-0.0813	0.2751	-0.3802	
-0.092476	-0.86681	0.335866	22.96	-25.62	5.81	-0.092	0.2667	-0.3813	
-0.096868	-0.875594	0.351482	16.59	-33.04	4.83	-0.09119999	0.2729	-0.3799	
-0.106994	-0.90707	0.37759	11.76	-38.22	3.36	-0.0994	0.269	-0.3826	
-0.114192	-0.91805	0.378322	6.86	-38.92	3.71	-0.0973	0.2609	-0.3782	
-0.094184	-0.944158	0.3904	3.78	-36.12	3.15	-0.1046	0.2758	-0.3737	
-0.070394	-0.913658	0.370636	5.39	-39.97	7.14	-0.1119	0.2639	-0.3852	
-0.10431	-0.93879	0.35136	-0.63	-48.3	13.51	-0.1006	0.2643	-0.3766	
-0.130418	-0.92659	0.323544	5.18	-52.57	17.01	-0.1026	0.2693	-0.3722	
-0.095282	-0.915122	0.33001	2.73	-59.92	22.05	-0.1154	0.2674	-0.3733	
-0.074664	-0.898774	0.334158	5.74	-63.77	23.03	-0.1201	0.2694	-0.3644	
-0.061976	-0.890722	0.338184	5.39	-67.9	22.4	-0.1193	0.2646	-0.3776	
-0.050508	-0.90585	0.338428	1.54	-72.52	23.66	-0.1241	0.2682	-0.3731	
-0.029646	-0.932568	0.334768	1.12	-74.48	24.29	-0.1337	0.2771	-0.367	
-0.037332	-0.920002	0.326716	2.1	-75.74	25.76	-0.1511	0.2756	-0.3562	
-0.044896	-0.939034	0.327814	-1.19	-75.39	26.53	-0.1519	0.2836	-0.3533	
-0.024034	-0.948428	0.32513	1.47	-73.99	27.02	-0.1492	0.2674	-0.3444	
0.00915	-0.938302	0.3233	4.41	-75.6	28.42	-0.1692	0.2805	-0.344	
0.032696	-0.929274	0.34343	1.47	-76.44	30.73	-0.1701	0.2742	-0.3424	
0.050386	-0.897798	0.328424	3.85	-76.02	31.08	-0.1664	0.2818	-0.3441	
0.068198	-0.92598	0.351482	-4.2	-72.59	32.06	-0.1824	0.2818	-0.3392	
0.089182	-0.909632	0.327326	1.26	-70.07	30.17	-0.1775	0.2891	-0.3305	
0.092232	-0.91195	0.299754	0.56	-68.53	28.91	-0.1908	0.292	-0.3302	
0.090646	-0.945744	0.338306	-5.95	-67.27	28.63	-0.1872	0.2963	-0.3155	
0.060024	-0.924882	0.318786	1.19	-63.63	27.72	-0.195	0.2876	-0.3153	
0.116144	-0.86315	0.32818	-5.39	-84.49	32.27	-0.1929	0.2937	-0.3065	
0.113216	-0.94611	0.342454	-16.31	-76.37	32.2	-0.1962	0.2972	-0.3035	
0.084058	-0.921344	0.267912	2.1	-58.31	27.58	-0.1998	0.3071	-0.3109	
0.054046	-0.941718	0.292922	-3.71	-57.61	26.81	-0.2065	0.2998	-0.3033	
0.051972	-0.95038	0.31659	-5.88	-61.25	26.95	-0.2141	0.3037	-0.3016	
0.05063	-0.928176	0.329034	-1.75	-62.44	25.83	-0.2075	0.3077	-0.2915	
0.07259	-0.927322	0.3172	-4.9	-61.46	28.35	-0.215	0.3068	-0.2794	
0.048434	-0.914512	0.320494	0.91	-59.15	28.7	-0.2085	0.3157	-0.2826	
0.085156	-0.902312	0.340258	-3.99	-58.8	27.02	-0.2159	0.318	-0.281	
0.094794	-0.900482	0.320372	-3.92	-59.85	25.48	-0.2125	0.3113	-0.2781	
0.090036	-0.940254	0.350872	-9.8	-62.72	25.76	-0.2122	0.3207	-0.2693	
0.080764	-0.916098	0.341844	-2.73	-59.43	23.87	-0.2163	0.3196	-0.2736	
0.1037	-0.924272	0.337208	-5.25	-59.29	23.8	-0.2219	0.3296	-0.2587	
0.09394	-0.932812	0.335744	-4.41	-55.79	23.52	-0.2191	0.3309	-0.2588	
0.0915	-0.931592	0.339282	-1.68	-48.51	21.7	-0.2231	0.3232	-0.2439	
0.072834	-0.931714	0.340624	-1.68	-44.17	21.07	-0.2225	0.3327	-0.2454	
0.069296	-0.924882	0.346724	-1.54	-41.65	21.28	-0.2189	0.326	-0.2484	
0.055754	-0.913658	0.343064	-0.98	-38.57	20.58	-0.2237	0.3296	-0.2424	
0.050264	-0.921466	0.343796	-3.29	-36.4	19.88	-0.2257	0.3346	-0.2365	
0.03416	-0.921588	0.316712	-1.82	-31.36	19.18	-0.2161	0.3367	-0.2279	
0.008662	-0.946354	0.317078	-3.99	-27.72	18.34	-0.2241	0.3487	-0.2396	
0.012322	-0.94367	0.299144	2.1	-25.13	18.34	-0.2234	0.3374	-0.2247	
0.014884	-0.946598	0.326594	-2.1	-24.92	19.39	-0.2208	0.3436	-0.2367	
0.017568	-0.937692	0.328546	1.68	-25.41	19.18	-0.223	0.3342	-0.2292	
0.039406	-0.918782	0.352702	1.05	-25.13	19.18	-0.2256	0.3456	-0.2262	
0.0427	-0.895968	0.36539	0.56	-21.56	17.92	-0.2118	0.3362	-0.2221	
0.032086	-0.880718	0.337208	0.14	-20.23	15.33	-0.21	0.352	-0.2355	
0.016592	-0.886208	0.326838	-2.94	-18.13	11.76	-0.2094	0.3391	-0.2162	
0.016958	-0.913902	0.340868	-5.6	-18.06	9.38	-0.2103	0.352	-0.2237	
0.022204	-0.927078	0.336964	-2.94	-13.44	7.35	-0.2212	0.3435	-0.2189	
0.02867	-0.911096	0.353312	0.56	-7.28	6.37	-0.2173	0.3446	-0.2072	
0.032696	-0.906094	0.346236	-0.98	-4.55	5.6	-0.2155	0.3429	-0.2132	
0.010858	-0.90036	0.318908	-0.98	-3.43	3.43	-0.2182	0.3432	-0.2234	
0.030256	-0.899384	0.332572	0.63	0.14	1.26	-0.2164	0.3509	-0.2073	
0.02074	-0.907924	0.320738	-1.33	0.91	-0.98	-0.2149	0.3524	-0.2147	
0.019642	-0.931958	0.324642	-0.91	3.36	-1.75	-0.2159	0.3493	-0.2206	
0.001708	-0.924516	0.331474	1.47	7.42	-2.66	-0.2199	0.3433	-0.213	
0.03294	-0.92842	0.346968	-1.33	8.68	-2.66	-0.2144	0.3476	-0.2176	
0.036966	-0.91744	0.335256	0.35	12.95	-4.2	-0.2112	0.3457	-0.2221	
0.037942	-0.919026	0.338916	-1.82	18.62	-6.86	-0.2115	0.3489	-0.2251	
0.074664	-0.91866	0.338916	-1.05	23.17	-8.75	-0.2129	0.3491	-0.2251	
0.09394	-0.920612	0.341722	-1.54	28.56	-10.92	-0.2184	0.3465	-0.2264	
0.096502	-0.934886	0.356606	-0.91	35.35	-13.23	-0.2146	0.3508	-0.2236	
0.108824	-0.924028	0.35136	2.94	43.26	-16.31	-0.2089	0.3392	-0.2355	
0.112728	-0.921954	0.345138	2.8	51.1	-19.25	-0.2148	0.3431	-0.2457	
0.124562	-0.921222	0.343064	4.06	59.29	-22.54	-0.2116	0.3395	-0.2428	
0.132736	-0.926834	0.346846	3.01	64.82	-26.04	-0.2122	0.3411	-0.2265	
0.137494	-0.924516	0.330864	6.37	71.89	-29.12	-0.2037	0.3324	-0.2444	
0.139202	-0.91195	0.35258	8.82	79.17	-32.34	-0.2109	0.3332	-0.2472	
0.127856	-0.885598	0.320616	13.65	87.36	-38.01	-0.203	0.3277	-0.2548	
0.096502	-0.888038	0.287432	11.62	90.86	-43.47	-0.1987	0.3305	-0.2667	
0.07381	-0.947086	0.285968	2.31	90.93	-44.87	-0.1978	0.3209	-0.2667	
0.070882	-0.963678	0.271694	8.05	97.37	-46.69	-0.1996	0.3258	-0.2696	
0.062708	-0.955504	0.29707	18.9	103.67	-49.21	-0.2003	0.3212	-0.2843	
0.066856	-0.944036	0.274988	9.17	94.43	-47.53	-0.1986	0.3179	-0.2814	
0.03843	-0.973804	0.246562	10.78	92.12	-50.61	-0.1927	0.308	-0.3081	
0.016226	-0.961238	0.247416	20.09	96.74	-55.02	-0.1879	0.3027	-0.3111	
-0.017202	-0.949038	0.271938	18.83	95.2	-55.51	-0.1901	0.2999	-0.3258	
0.002806	-0.922198	0.291214	16.87	95.97	-50.89	-0.1813	0.2832	-0.3289	
-0.008784	-0.930128	0.32574	10.36	94.22	-48.44	-0.1819	0.2928	-0.3408	
0.014884	-0.94367	0.333792	5.32	95.2	-44.31	-0.1803	0.2895	-0.3349	
0.026718	-0.919148	0.34343	8.89	97.02	-42.07	-0.1693	0.2821	-0.344	
0.016226	-0.886818	0.337086	9.24	93.31	-41.58	-0.16	0.2764	-0.3516	
0.001952	-0.894138	0.34343	3.01	89.32	-38.78	-0.1625	0.2735	-0.3544	
0.015982	-0.889624	0.372466	4.06	88.97	-40.88	-0.149	0.2674	-0.3547	
0.021106	-0.898164	0.360754	-0.84	84.91	-41.93	-0.1517	0.271	-0.3739	
0.012322	-0.934886	0.34587	-4.55	84.77	-41.72	-0.1363	0.2599	-0.3742	
0.023058	-0.93147	0.358192	2.73	92.68	-44.03	-0.1241	0.2666	-0.3672	
-0.012688	-0.919026	0.351482	-2.59	92.05	-42.42	-0.1274	0.2575	-0.373	
-0.005368	-0.932202	0.326594	-9.31	80.92	-38.01	-0.1153	0.2531	-0.3821	
-0.034526	-0.917806	0.317078	-4.69	74.62	-34.72	-0.1201	0.2584	-0.3805	
-0.031232	-0.89548	0.338184	-2.66	69.58	-34.16	-0.113	0.2625	-0.3911	
-0.022204	-0.90951	0.33855	-3.64	65.24	-32.2	-0.1085	0.2572	-0.3808	
-0.004148	-0.904264	0.347334	-6.79	58.45	-30.8	-0.1047	0.2489	-0.3868	
-0.01403	-0.866322	0.345992	-1.54	56.7	-31.36	-0.1039	0.2552	-0.3839	
-0.005124	-0.864126	0.344284	-9.59	50.33	-29.54	-0.1002	0.2628	-0.387	
-0.01281	-0.906948	0.354288	-16.94	48.93	-27.86	-0.1023	0.2567	-0.3958	
0.001342	-0.926712	0.346114	-11.69	52.85	-27.72	-0.0967	0.2577	-0.3944	
0.010126	-0.90707	0.366976	-7	52.85	-28.35	-0.0901	0.2475	-0.3886	
0.049288	-0.902312	0.397964	-13.72	51.52	-26.53	-0.0898	0.2651	-0.408	
0.086742	-0.931714	0.379298	-13.16	49.98	-24.64	-0.0822	0.2595	-0.4022	
0.076616	-0.93635	0.37027	-14.07	51.87	-23.31	-0.0784	0.248	-0.3963	
0.087474	-0.91195	0.366	-10.22	58.31	-24.5	-0.0736	0.2554	-0.3861	
0.107848	-0.933422	0.357094	-13.02	60.06	-25.13	-0.0762	0.2541	-0.392	
0.107604	-0.915244	0.3477	-11.2	60.62	-24.5	-0.0628	0.2512	-0.3982	
0.093452	-0.924394	0.34404	-13.79	64.33	-25.34	-0.0581	0.2618	-0.3954	
0.087352	-0.933178	0.336232	-12.18	71.26	-27.44	-0.0503	0.2563	-0.4	
0.081496	-0.920734	0.321226	-7.28	77.56	-29.89	-0.0467	0.2639	-0.3972	
0.077226	-0.924028	0.331596	-10.57	80.01	-29.19	-0.0359	0.2581	-0.4034	
0.06954	-0.927078	0.321958	-12.53	81.06	-27.58	-0.0378	0.2614	-0.3974	
0.077592	-0.919514	0.314394	-13.44	83.51	-27.3	-0.0315	0.256	-0.399	
0.040016	-0.918294	0.28243	-13.3	83.86	-29.12	-0.0205	0.2596	-0.3919	
0.017934	-0.935252	0.281942	-12.53	83.72	-31.22	-0.0131	0.2589	-0.3965	
-0.018056	-0.946232	0.285968	-5.04	81.41	-32.97	-0.0062	0.263	-0.3997	
-0.032452	-0.928542	0.28121	-5.39	74.48	-31.57	-0.0034	0.2627	-0.3953	
-0.043066	-0.931104	0.261812	-5.53	70.77	-29.26	0.0061	0.2681	-0.3927	
-0.017812	-0.922564	0.297436	-9.45	64.75	-27.37	0.0152	0.2624	-0.3914	
0.007198	-0.898774	0.317566	-11.76	56.63	-27.65	0.0107	0.2693	-0.4076	
0.02379	-0.913048	0.293532	-15.26	52.78	-29.61	0.0159	0.2703	-0.39	
0.048922	-0.936106	0.28182	-18.9	50.4	-31.08	0.0202	0.2698	-0.3871	
0.008296	-0.941596	0.272548	-15.54	49.91	-32.97	0.022	0.2665	-0.3886	
-0.006954	-0.942328	0.282796	-11.97	54.53	-34.93	0.0235	0.268	-0.3961	
0.006832	-0.92354	0.296704	-11.06	52.99	-35.28	0.0279	0.2802	-0.3874	
0.013542	-0.926468	0.298412	-16.94	49.07	-35.42	0.035	0.281	-0.3846	
0.051118	-0.94855	0.26474	-20.79	44.66	-33.46	0.0229	0.2711	-0.3842	
0.032452	-0.974048	0.257908	-18.97	40.95	-32.62	0.028	0.2928	-0.3786	
-0.01281	-0.997594	0.252662	-10.36	43.89	-30.24	0.0359	0.2857	-0.3817	
0.011712	-0.970144	0.271572	-3.78	48.51	-27.58	0.0272	0.2833	-0.3711	
0.045262	-0.93513	0.277062	-1.4	48.65	-25.62	0.0356	0.2889	-0.3802	
0.064538	-0.9211	0.285724	-6.02	43.4	-25.27	0.0374	0.2839	-0.3743	
0.050752	-0.931348	0.282552	-7.84	38.22	-24.57	0.0476	0.2796	-0.3657	
0.041968	-0.936228	0.274622	-6.86	34.86	-23.59	0.0499	0.2874	-0.3702	
0.058072	-0.9394	0.285358	-6.79	33.74	-22.12	0.0299	0.2862	-0.3727	
0.09467199	-0.928664	0.282552	-5.04	33.46	-20.79	0.0358	0.2983	-0.364	
0.103334	-0.920856	0.261446	-4.55	31.64	-22.61	0.0365	0.2903	-0.3625	
0.070028	-0.941108	0.270352	-8.47	26.25	-22.4	0.045	0.2926	-0.3642	
0.051606	-0.958066	0.257542	-6.65	23.52	-21.14	0.0359	0.2967	-0.3626	
0.035502	-0.967582	0.26169	-4.48	20.72	-16.66	0.0477	0.2939	-0.3643	
0.026474	-0.969046	0.2623	-3.99	15.26	-13.37	0.0432	0.2959	-0.3642	
0.010858	-0.97661	0.260226	-2.17	7.77	-9.87	0.0345	0.2968	-0.3625	
0.04392	-0.943914	0.270962	1.19	3.71	-6.09	0.0297	0.3021	-0.3639	
0.083204	-0.916952	0.277672	3.08	4.13	-4.83	0.0364	0.2919	-0.3655	
0.08784	-0.90524	0.287188	1.96	1.26	-3.92	0.0398	0.301	-0.3627	
0.119194	-0.927932	0.28975	-1.4	-3.15	-1.75	0.0302	0.2956	-0.3609	
0.10797	-0.953552	0.287554	-0.49	-4.83	-0.63	0.043	0.2959	-0.3539	
0.089914	-0.957212	0.28182	0.98	-6.3	1.12	0.0443	0.3006	-0.3672	
0.101992	-0.937082	0.289994	5.18	-5.67	3.43	0.0341	0.3	-0.3611	
0.091866	-0.933544	0.285968	2.59	-7.56	5.18	0.0475	0.2955	-0.3599	
0.097112	-0.937692	0.283894	2.87	-10.22	6.86	0.0426	0.2865	-0.3641	
0.0549	-0.962824	0.273768	1.96	-12.81	7.14	0.0389	0.2964	-0.3671	
0.05856	-0.966118	0.263764	6.37	-12.95	8.96	0.0348	0.2952	-0.3714	
0.057828	-0.937326	0.265716	11.69	-13.65	9.52	0.0402	0.2836	-0.3729	
0.04575	-0.9211	0.272304	12.74	-18.55	9.45	0.0335	0.2938	-0.3699	
0.030012	-0.9089	0.28914	12.11	-26.53	11.76	0.033	0.286	-0.3787	
0.039162	-0.924272	0.274744	13.09	-26.6	12.74	0.0317	0.2845	-0.3801	
0.03355	-0.95892	0.282552	11.55	-31.29	13.58	0.0408	0.2947	-0.376	
0.021106	-0.96624	0.261934	11.83	-36.89	17.71	0.0301	0.2863	-0.3801	
-0.005368	-0.958066	0.246318	16.94	-38.99	20.23	0.025	0.2947	-0.3815	
-0.02623	-0.935374	0.292678	16.8	-51.45	25.69	0.0163	0.2797	-0.3812	
-0.013664	-0.983076	0.262788	10.29	-56.63	30.8	0.0222	0.2791	-0.3857	
-0.009881999	-0.965996	0.279868	17.85	-55.44	31.99	0.0176	0.2637	-0.3767	
0.000366	-0.968192	0.267424	9.24	-64.12	36.4	0.0145	0.283	-0.3797	
-0.005856	-0.969534	0.224602	13.51	-72.66	39.62	0.0198	0.2746	-0.3871	
0.007442	-0.965386	0.234728	10.15	-77.84	41.72	0.0188	0.27	-0.3886	
0.05795	-0.955504	0.245098	11.34	-81.76	42.21	0.0076	0.2806	-0.3824	
0.047702	-0.988566	0.223626	8.05	-87.43	45.99	0.0055	0.2729	-0.3853	
0.039162	-0.961604	0.198128	11.27	-95.2	49.49	-0.006	0.274	-0.3894	
0.156892	-0.88694	0.257786	10.22	-101.78	45.08	-0.0048	0.2755	-0.4092	
0.122	-0.97844	0.23241	13.3	-107.31	41.02	-0.0172	0.272	-0.3936	
0.09577	-1.000644	0.269132	11.9	-103.04	44.66	-0.0323	0.264	-0.3946	
0.076006	-0.926712	0.220454	24.64	-98.28	43.05	-0.0382	0.2646	-0.3945	
0.134322	-0.853634	0.254614	20.09	-103.18	38.43	-0.048	0.2608	-0.3912	
0.18544	-0.894016	0.270352	16.31	-106.4	34.72	-0.0553	0.2631	-0.3955	
0.1098	-0.95709	0.260592	20.09	-106.33	34.51	-0.0552	0.2599	-0.3866	
0.119316	-0.94367	0.261812	21	-106.47	36.96	-0.0758	0.2476	-0.386	
0.11895	-0.914878	0.301218	23.31	-101.64	34.44	-0.0822	0.2563	-0.3918	
0.164822	-0.87291	0.316468	23.17	-99.19	31.71	-0.0854	0.2581	-0.3844	
0.191906	-0.870592	0.328546	18.48	-101.71	30.87	-0.09779999	0.2514	-0.384	
0.186904	-0.924394	0.350262	9.45	-101.5	32.97	-0.0988	0.2467	-0.3825	
0.209596	-0.938058	0.340868	14.21	-91.7	32.62	-0.1146	0.2626	-0.3851	
0.18117	-0.89304	0.338428	21.77	-81.48	30.87	-0.1134	0.2482	-0.3806	
0.187636	-0.881084	0.340258	20.02	-79.38	27.86	-0.1218	0.2475	-0.3893	
0.190808	-0.896822	0.351116	19.39	-80.57	25.69	-0.1351	0.2614	-0.3713	
0.164944	-0.882548	0.349164	20.93	-79.24	23.45	-0.1353	0.2646	-0.3728	
0.129442	-0.918416	0.340258	13.93	-80.5	23.52	-0.1428	0.2527	-0.377	
0.109556	-0.945256	0.33611	10.57	-81.9	25.76	-0.1521	0.2567	-0.3664	
0.113704	-0.948916	0.350628	8.33	-77.21	27.58	-0.1632	0.2531	-0.3705	
0.121634	-0.929518	0.355752	9.1	-70.56	29.05	-0.1633	0.2547	-0.3691	
0.135298	-0.919758	0.350506	5.25	-64.33	31.15	-0.1698	0.2616	-0.366	
0.128954	-0.943304	0.3477	0.84	-62.09	34.16	-0.1773	0.2656	-0.3703	
0.137738	-0.937692	0.344162	3.08	-59.15	35.35	-0.1799	0.2562	-0.3465	
0.123586	-0.918294	0.31964	5.81	-60.13	34.3	-0.1786	0.2625	-0.3628	
0.10431	-0.91561	0.314516	4.83	-61.46	34.37	-0.1852	0.2678	-0.3479	
0.100162	-0.931714	0.31598	1.75	-64.26	36.54	-0.1764	0.2653	-0.3452	
0.110776	-0.93391	0.31903	2.73	-67.13	38.64	-0.1776	0.2639	-0.351	
0.102846	-0.93025	0.305122	3.22	-70.49	39.48	-0.1905	0.2762	-0.3405	
0.091012	-0.943914	0.30012	3.92	-72.45	40.39	-0.1967	0.28	-0.3374	
0.06954	-0.936472	0.289384	6.02	-74.48	42.77	-0.192	0.2764	-0.3389	
0.091134	-0.94184	0.328302	4.83	-73.64	45.15	-0.2023	0.2741	-0.3209	
0.091744	-0.918782	0.332938	8.75	-81.2	40.95	-0.202	0.2725	-0.3283	
0.15128	-0.924394	0.335744	3.85	-82.81	44.94	-0.2182	0.2916	-0.328	
0.15433	-0.916708	0.321592	8.75	-77.84	43.89	-0.2095	0.2858	-0.3075	
0.148962	-0.906094	0.360632	5.53	-76.02	44.31	-0.219	0.2947	-0.3044	
0.14945	-0.877546	0.331474	5.74	-73.78	42.77	-0.2107	0.297	-0.2987	
0.153476	-0.892918	0.32147	1.96	-73.29	41.16	-0.2176	0.2929	-0.2985	
0.145668	-0.893406	0.330498	4.69	-69.93	38.92	-0.2108	0.297	-0.2943	
0.117852	-0.905728	0.318786	3.36	-69.93	36.96	-0.2099	0.3	-0.2854	
0.106872	-0.930616	0.326106	0.49	-70.56	35.49	-0.2178	0.3087	-0.2868	
0.106872	-0.91378	0.32391	2.45	-70.35	34.86	-0.2261	0.3015	-0.2747	
0.092598	-0.919758	0.33428	0.07	-69.16	32.97	-0.2241	0.3108	-0.2733	
0.0854	-0.912682	0.329888	0.28	-67.62	33.53	-0.2332	0.3133	-0.2657	
0.098088	-0.921588	0.340868	-3.5	-66.15	33.81	-0.2283	0.3223	-0.2644	
0.102236	-0.920124	0.338306	-4.69	-61.67	33.53	-0.2321	0.3163	-0.2643	
0.104188	-0.893528	0.332328	-4.34	-59.08	31.64	-0.2294	0.3176	-0.2599	
0.111874	-0.913902	0.34648	-7.42	-56.07	30.66	-0.2247	0.325	-0.2438	
0.101138	-0.934032	0.346236	-6.86	-50.05	26.6	-0.2305	0.3256	-0.2437	
0.075518	-0.927078	0.34038	-5.46	-43.75	25.34	-0.2301	0.3224	-0.2496	
0.05734	-0.925248	0.315248	-6.65	-42.35	25.34	-0.2267	0.3332	-0.2512	
0.06649	-0.937204	0.331596	-6.09	-38.57	24.85	-0.2296	0.3286	-0.2349	
0.0549	-0.918904	0.352458	-5.39	-37.03	23.17	-0.23	0.335	-0.2408	
0.028792	-0.917806	0.309026	-7.63	-32.27	21.56	-0.2284	0.3284	-0.2246	
0.039772	-0.9516	0.297802	-10.29	-34.58	21.91	-0.231	0.3397	-0.2187	
0.05856	-0.932812	0.303658	-3.29	-32.83	20.44	-0.2325	0.3415	-0.2216	
0.047702	-0.956114	0.290116	-7.28	-35.21	20.02	-0.2182	0.3416	-0.216	
0.036966	-0.93818	0.315492	-0.07	-32.41	17.99	-0.2273	0.3473	-0.2218	
0.054534	-0.897432	0.34282	-0.14	-30.66	17.29	-0.222	0.3373	-0.2218	
0.05734	-0.902922	0.343796	-3.92	-29.89	14.98	-0.2228	0.3436	-0.2145	
0.014274	-0.950868	0.34587	-0.84	-13.3	8.96	-0.2242	0.3422	-0.2115	
0.065514	-0.875106	0.330376	1.47	-14.56	8.33	-0.2316	0.3445	-0.2113	
0.066002	-0.917562	0.326472	-1.96	-16.17	7.56	-0.2192	0.3353	-0.213	
0.055144	-0.926468	0.318176	0.21	-9.31	5.6	-0.2248	0.3502	-0.2144	
0.054168	-0.92415	0.332938	0.7	-5.53	5.81	-0.2246	0.3453	-0.2041	
0.0732	-0.912072	0.341478	2.1	-2.73	5.74	-0.2306	0.3475	-0.2039	
0.063318	-0.911706	0.346968	2.87	-0.56	4.83	-0.2202	0.3482	-0.2175	
0.036112	-0.896578	0.35258	2.17	1.12	2.73	-0.2205	0.3465	-0.1997	
0.011956	-0.898774	0.3294	0.63	3.85	1.54	-0.2285	0.3426	-0.1857	
0.010126	-0.915976	0.328668	0.28	6.86	0.77	-0.2203	0.3624	-0.2087	
0.007929999	-0.907314	0.31598	2.52	8.33	-1.61	-0.2234	0.35	-0.2115	
-0.00732	-0.91195	0.325252	-0.42	7.91	-2.87	-0.2253	0.3534	-0.2071	
0.028914	-0.92415	0.332572	-0.56	10.22	-3.5	-0.2259	0.3455	-0.2099	
0.027084	-0.927566	0.330132	-1.26	13.51	-3.92	-0.2221	0.3531	-0.2175	
0.043188	-0.914146	0.359656	-0.07	20.65	-5.81	-0.2183	0.3558	-0.2073	
0.077348	-0.893162	0.354898	1.12	24.78	-8.4	-0.2128	0.3458	-0.2177	
0.078446	-0.922442	0.336598	-3.78	23.8	-8.96	-0.222	0.3499	-0.2116	
0.0671	-0.9333	0.323422	1.96	30.1	-10.99	-0.2171	0.3479	-0.225	
0.089182	-0.885354	0.34831	8.12	38.43	-14.91	-0.2173	0.3462	-0.2131	
0.075884	-0.898042	0.307196	2.45	43.05	-21.28	-0.2182	0.3432	-0.2234	
0.086132	-0.973072	0.320006	-0.63	46.69	-23.38	-0.2128	0.3475	-0.2221	
0.084912	-0.997106	0.3111	6.44	57.68	-24.78	-0.2212	0.3468	-0.2308	
0.151402	-0.961238	0.361486	13.72	70.84	-27.16	-0.2193	0.3402	-0.2278	
0.192394	-0.909388	0.341966	13.72	74.83	-29.96	-0.2112	0.3364	-0.2487	
0.196542	-0.899262	0.351726	10.43	78.19	-33.81	-0.2194	0.3341	-0.2603	
0.176534	-0.902434	0.324642	13.3	84.98	-37.66	-0.2147	0.3272	-0.2471	
0.17263	-0.898408	0.315858	14.07	91.7	-42.56	-0.2067	0.3233	-0.265	
0.152866	-0.928054	0.307806	14.77	100.03	-47.81	-0.219	0.315	-0.2617	
0.121268	-0.94306	0.300608	13.02	105.63	-51.52	-0.2086	0.3157	-0.2797	
0.12505	-0.94489	0.276452	17.64	116.62	-56.14	-0.2034	0.3089	-0.2645	
0.063196	-0.9455	0.27877	14.49	119.56	-57.47	-0.1964	0.3146	-0.3006	
0.061244	-0.907924	0.263398	15.05	115.71	-59.92	-0.1894	0.3012	-0.3007	
0.03904	-0.944036	0.28609	2.24	109.62	-61.53	-0.1906	0.3014	-0.314	
0.067832	-0.967216	0.306098	3.15	111.23	-64.54	-0.1917	0.3	-0.3199	
0.065148	-0.942572	0.31537	14	120.19	-70	-0.1854	0.2946	-0.323	
0.05856	-0.924882	0.308782	11.97	122.5	-69.93	-0.1783	0.2845	-0.3408	
0.054778	-0.909876	0.324886	11.27	122.92	-66.64	-0.1726	0.2713	-0.3483	
0.060878	-0.911706	0.315248	5.95	121.17	-63	-0.1586	0.262	-0.353	
0.027816	-0.926956	0.318908	2.52	120.47	-61.11	-0.1539	0.26	-0.362	
0.017202	-0.932812	0.310368	-2.52	116.9	-57.12	-0.1583	0.2621	-0.3663	
0.020862	-0.924028	0.302194	-0.14	112.84	-55.72	-0.144	0.2496	-0.3754	
-0.016226	-0.922198	0.33428	0.21	111.65	-52.92	-0.1461	0.2594	-0.3828	
-0.003294	-0.896212	0.328912	-0.7	103.46	-51.24	-0.1271	0.2417	-0.3891	
0.022936	-0.886208	0.326228	0.35	96.88	-50.47	-0.1142	0.2452	-0.3954	
0.065758	-0.89609	0.338794	-6.37	87.15	-49.91	-0.1231	0.2477	-0.3966	
0.093452	-0.889624	0.360266	-0.56	86.38	-50.82	-0.1115	0.2481	-0.3999	
0.059048	-0.901702	0.363316	-5.46	83.93	-49.7	-0.1109	0.2401	-0.3969	
0.051606	-0.91317	0.341722	-5.95	82.46	-48.72	-0.0959	0.2355	-0.4017	
0.050386	-0.952454	0.36051	-13.23	79.38	-44.38	-0.0941	0.2464	-0.3989	
0.08357	-0.922808	0.384788	-7.07	82.88	-42.98	-0.1029	0.2346	-0.4074	
0.105286	-0.88694	0.373564	-4.06	84.63	-43.12	-0.0792	0.2308	-0.4198	
0.103944	-0.922808	0.373686	-17.36	75.95	-38.92	-0.0746	0.243	-0.4156	
0.042212	-0.94001	0.361364	-12.6	81.13	-42.21	-0.0726	0.2348	-0.4097	
0.080398	-0.884988	0.358558	-9.59	80.57	-42.07	-0.067	0.2358	-0.4069	
0.097844	-0.906948	0.360022	-19.18	72.24	-40.53	-0.051	0.2358	-0.4102	
0.082594	-0.932568	0.359412	-17.43	73.36	-39.34	-0.0542	0.2393	-0.4102	
0.090646	-0.919514	0.37088	-14	78.89	-39.2	-0.0514	0.2407	-0.4147	
0.090524	-0.914878	0.36112	-12.81	80.57	-40.81	-0.0384	0.2393	-0.4076	
0.076738	-0.92964	0.34465	-12.81	78.19	-40.6	-0.0317	0.245	-0.4108	
0.040138	-0.934764	0.323178	-11.34	76.72	-38.78	-0.0297	0.2401	-0.4152	
0.028304	-0.920002	0.326716	-12.25	71.33	-37.1	-0.0193	0.2326	-0.3977	
0.021228	-0.908412	0.33794	-6.58	74.83	-37.38	-0.0277	0.2478	-0.4064	
0.009638	-0.896212	0.351238	-9.87	69.37	-34.51	-0.0078	0.2522	-0.4114	
0.008417999	-0.891698	0.34892	-19.25	56.42	-30.59	-0.0094	0.2555	-0.4158	
0.002196	-0.914512	0.342088	-19.67	52.43	-30.45	-0.0052	0.2518	-0.3967	
0.023546	-0.90158	0.360998	-15.89	56.21	-31.71	-0.0003	0.2466	-0.3997	
0.047946	-0.89853	0.357582	-18.34	54.46	-30.38	0.0014	0.2607	-0.4087	
0.05307	-0.930372	0.352458	-25.2	49.28	-27.44	0.0064	0.2523	-0.4059	
0.044652	-0.938424	0.336964	-23.52	47.67	-25.41	0.0082	0.2632	-0.4015	
0.067954	-0.927444	0.324154	-21.14	47.6	-24.85	0.0057	0.257	-0.3941	
0.065148	-0.940132	0.311954	-23.66	43.89	-22.75	0.0164	0.2655	-0.3929	
0.044896	-0.933178	0.293532	-18.27	44.87	-22.19	0.0256	0.2582	-0.3857	
0.051606	-0.921466	0.29036	-17.36	44.66	-22.96	0.0249	0.2662	-0.3872	
0.058804	-0.918538	0.308904	-16.52	45.29	-25.06	0.0256	0.274	-0.3858	
0.0427	-0.932202	0.296704	-15.61	41.09	-25.97	0.0182	0.2764	-0.3871	
0.05673	-0.940254	0.31415	-18.76	36.75	-23.31	0.0255	0.2757	-0.3902	
0.06466	-0.93025	0.288774	-14.63	37.73	-22.33	0.0228	0.2711	-0.3783	
0.12566	-0.928542	0.303048	-15.47	37.66	-21.84	0.0217	0.2839	-0.3828	
0.12932	-0.915488	0.300486	-13.65	37.38	-22.33	0.0305	0.2814	-0.3801	
0.108946	-0.937082	0.280234	-17.43	33.04	-22.05	0.0364	0.2793	-0.3787	
0.09089	-0.949282	0.28853	-14.77	30.87	-21.7	0.031	0.2767	-0.383	
0.072102	-0.951356	0.260226	-10.92	31.22	-21.07	0.0272	0.2866	-0.3815	
0.05917	-0.961238	0.261202	-10.01	26.67	-19.18	0.0283	0.2896	-0.3771	
0.075884	-0.957456	0.264862	-7.77	23.38	-16.1	0.0255	0.2866	-0.3711	
0.10187	-0.93879	0.267912	-4.34	23.52	-15.19	0.0331	0.2827	-0.3727	
0.10675	-0.927932	0.2928	-5.46	21	-13.79	0.0406	0.2947	-0.3686	
0.101504	-0.932934	0.28121	-6.02	17.22	-12.11	0.0317	0.2988	-0.3743	
0.058926	-0.976976	0.280478	-7.91	11.69	-9.94	0.0335	0.2922	-0.3669	
0.065758	-0.953064	0.27511	-2.66	10.57	-5.32	0.0322	0.2907	-0.3639	
0.100772	-0.92964	0.273036	0.21	11.83	-2.73	0.0423	0.2913	-0.3671	
0.13054	-0.903776	0.29402	0.28	10.08	-1.54	0.0311	0.2877	-0.3683	
0.11895	-0.921954	0.288896	-2.03	5.53	-2.38	0.039	0.2948	-0.3641	
0.093818	-0.95526	0.296826	-3.01	1.12	-1.4	0.0469	0.2877	-0.3672	
0.106018	-0.931836	0.284992	2.8	3.15	-0.42	0.0416	0.2993	-0.3701	
0.104066	-0.930616	0.295728	1.96	1.75	-0.42	0.0385	0.2979	-0.3567	
0.103944	-0.9394	0.313662	1.89	0.28	1.33	0.035	0.292	-0.3669	
0.099674	-0.926346	0.30012	4.97	-0.14	1.82	0.0405	0.293	-0.3597	
0.110654	-0.926346	0.306586	4.83	-2.52	2.8	0.0471	0.2861	-0.3687	
0.12139	-0.917196	0.298656	5.18	-5.04	3.85	0.0305	0.2941	-0.3683	
0.100284	-0.928786	0.310002	4.13	-6.02	4.41	0.0361	0.2967	-0.3685	
0.075274	-0.955992	0.30561	4.34	-6.93	6.02	0.0307	0.2941	-0.3772	
0.087962	-0.913292	0.291214	8.54	-7.7	7.14	0.0405	0.2979	-0.3775	
0.07686	-0.907314	0.30256	8.05	-9.1	7.14	0.0417	0.301	-0.3805	
0.058316	-0.92171	0.3111	6.86	-15.05	7.14	0.0437	0.2928	-0.3701	
0.025742	-0.93025	0.302926	8.68	-19.81	8.12	0.0329	0.2859	-0.3757	
0.00854	-0.924516	0.284382	12.88	-21.42	9.59	0.0357	0.2873	-0.3773	
-0.008052	-0.939888	0.275598	13.79	-26.32	11.55	0.0296	0.2878	-0.3653	
0.009393999	-0.944036	0.27328	15.4	-31.01	13.72	0.0382	0.2792	-0.3891	
0.02989	-0.946354	0.284748	18.48	-31.22	14.84	0.0333	0.2828	-0.3801	
0.018178	-0.93208	0.323666	23.94	-35	17.5	0.0293	0.2784	-0.3785	
0.04087	-0.948428	0.306708	-1.54	-61.18	28.56	0.0297	0.2768	-0.3889	
0.005612	-0.951722	0.282796	14.7	-59.92	30.31	0.0195	0.2778	-0.3886	
-0.033672	-0.98027	0.266204	11.48	-66.15	33.88	0.0228	0.2744	-0.3902	
-0.02745	-0.99674	0.247782	16.17	-75.39	41.44	0.0217	0.2713	-0.396	
0.010492	-0.961238	0.23912	24.64	-74.48	43.96	0.0173	0.2542	-0.3869	
0.069174	-0.929762	0.271938	24.01	-81.27	43.12	0.009	0.2678	-0.3913	
0.066612	-0.966728	0.25254	16.17	-94.36	45.43	0.0056	0.2603	-0.4015	
0.030988	-0.949648	0.2196	20.44	-99.61	47.67	-0.0009	0.2672	-0.394	
0.053558	-0.936594	0.229726	16.87	-100.8	49.07	-0.0029	0.2579	-0.3983	
0.105652	-0.884622	0.255224	20.37	-106.54	44.17	-0.0169	0.2562	-0.4068	
0.12871	-0.904386	0.248148	15.33	-116.69	43.05	-0.0183	0.2531	-0.3979	
0.096014	-0.942572	0.245952	14.77	-123.2	42.91	-0.0349	0.2627	-0.4049	
0.088328	-0.960262	0.261324	14.63	-120.89	44.17	-0.0399	0.2553	-0.4062	
0.09747799	-0.962336	0.24095	17.22	-122.5	45.5	-0.0582	0.2651	-0.4014	
0.143838	-0.938912	0.249368	20.51	-123.2	46.41	-0.0614	0.2527	-0.4012	
0.178852	-0.929762	0.258762	18.97	-126.42	46.41	-0.0691	0.2582	-0.4025	
0.170556	-0.916098	0.275476	22.05	-126.14	44.94	-0.0881	0.2601	-0.3991	
0.201544	-0.91683	0.265106	12.11	-131.88	47.6	-0.0982	0.2452	-0.4032	
0.211548	-0.922686	0.276818	20.16	-128.1	45.43	-0.1032	0.2504	-0.3957	
0.19703	-0.904874	0.29524	18.2	-124.88	46.55	-0.1273	0.2591	-0.3848	
0.218502	-0.938424	0.317444	13.44	-118.23	44.1	-0.1361	0.2584	-0.3772	
0.231922	-0.939888	0.313052	19.39	-108.57	41.23	-0.1386	0.2538	-0.3756	
0.201666	-0.944524	0.308904	18.13	-106.33	43.68	-0.1528	0.2521	-0.3782	
0.196908	-0.937814	0.317932	18.76	-103.67	46.27	-0.1531	0.2537	-0.3708	
0.181048	-0.935496	0.32635	17.22	-100.73	48.65	-0.1703	0.2522	-0.3689	
0.164334	-0.930982	0.3294	15.61	-98.28	48.09	-0.1676	0.2677	-0.3631	
0.168604	-0.92903	0.326716	13.23	-98.21	47.74	-0.1745	0.2636	-0.36	
0.177998	-0.916464	0.338672	9.66	-95.76	49.84	-0.1818	0.2644	-0.3583	
0.166164	-0.899628	0.335744	9.03	-93.38	48.58	-0.187	0.2553	-0.3493	
0.152622	-0.88877	0.321348	6.51	-94.57	49.14	-0.1908	0.2652	-0.3448	
0.140178	-0.904996	0.318908	0	-96.04	49.21	-0.1927	0.2685	-0.3389	
0.139568	-0.91439	0.306952	1.89	-91.98	48.58	-0.208	0.2763	-0.3326	
0.145424	-0.93208	0.304756	0.28	-88.9	49.63	-0.2019	0.2725	-0.3327	
0.15616	-0.95709	0.303048	-1.19	-88.62	52.78	-0.2121	0.2845	-0.3134	
0.169214	-0.937204	0.308904	-0.91	-84.42	56.14	-0.2091	0.281	-0.3075	
0.175558	-0.926956	0.30744	-2.52	-80.36	55.16	-0.2144	0.291	-0.3045	
0.160064	-0.926468	0.317444	-4.9	-83.23	51.59	-0.2133	0.2957	-0.3045	
0.191784	-0.914268	0.30317	-16.24	-86.66	54.39	-0.2137	0.2973	-0.2942	
0.173728	-0.913902	0.281454	-2.17	-77.98	46.76	-0.2171	0.3024	-0.2941	
0.140178	-0.98515	0.296216	-7.63	-83.3	43.96	-0.221	0.3138	-0.2926	
0.13115	-0.957334	0.280478	9.59	-76.72	40.95	-0.215	0.31	-0.2883	
0.113948	-0.93818	0.271572	1.26	-81.06	40.46	-0.2164	0.307	-0.2809	
0.14091	-0.929396	0.29097	-0.35	-73.08	38.22	-0.2197	0.3247	-0.272	
0.135786	-0.920368	0.307928	-1.82	-69.79	37.03	-0.225	0.3205	-0.2734	
0.14457	-0.915732	0.314516	-2.52	-68.32	35.56	-0.2251	0.3188	-0.2615	
0.129076	-0.922808	0.317566	-0.42	-65.1	33.6	-0.2238	0.317	-0.2527	
0.12566	-0.933544	0.316224	-0.21	-62.02	31.78	-0.2173	0.3243	-0.2499	
0.116632	-0.920246	0.33977	-1.12	-57.68	31.64	-0.2333	0.3243	-0.2451	
0.084668	-0.898774	0.31415	-1.26	-52.08	29.26	-0.2232	0.3232	-0.2409	
0.091256	-0.93696	0.31232	-8.33	-51.52	29.68	-0.2208	0.3277	-0.2366	
0.102114	-0.92415	0.341234	-3.64	-40.18	26.81	-0.2214	0.3358	-0.2425	
0.070882	-0.922808	0.304146	-6.3	-38.64	25.9	-0.2189	0.337	-0.2308	
0.074664	-0.94977	0.33001	-11.41	-39.69	26.53	-0.2284	0.3443	-0.2247	
0.0488	-0.947086	0.321226	-9.1	-37.24	27.16	-0.2207	0.353	-0.216	
0.010858	-0.951844	0.288286	-10.85	-34.79	28.28	-0.2208	0.3403	-0.2233	
0.001952	-0.933056	0.290116	-7.91	-33.04	28.63	-0.2202	0.3465	-0.2131	
0.003538	-0.931348	0.288042	-11.48	-36.96	30.03	-0.2271	0.3408	-0.2055	
0.037088	-0.885354	0.25925	-6.93	-33.39	29.75	-0.2137	0.3522	-0.2044	
0.02074	-0.8662	0.337696	9.38	-19.88	21.42	-0.2168	0.3524	-0.1954	
0.06649	-0.889502	0.363804	-13.72	-27.02	20.58	-0.2107	0.3519	-0.2089	
0.055144	-0.89304	0.326472	-5.11	-19.53	15.75	-0.2189	0.3639	-0.2132	
0.034404	-0.878278	0.332206	0.63	-11.76	10.64	-0.2064	0.3673	-0.2047	
0.028914	-0.91256	0.340746	-8.05	-10.43	10.64	-0.214	0.3696	-0.1971	
0.046482	-0.927932	0.312076	-1.47	-3.15	7.84	-0.2065	0.3657	-0.1943	
0.05429	-0.932324	0.31293	2.1	1.82	4.62	-0.2019	0.3653	-0.2048	
-0.000732	-0.917684	0.310856	6.3	6.93	0.91	-0.2139	0.3554	-0.2074	
0.006222	-0.92049	0.299632	5.95	9.38	-0.21	-0.2101	0.3598	-0.2045	
0.00976	-0.934276	0.290238	3.92	12.95	-1.68	-0.2077	0.3659	-0.2046	
-0.020374	-0.937814	0.28304	6.23	17.99	-3.01	-0.1981	0.3538	-0.1989	
-0.029524	-0.917074	0.28731	7.35	21.21	-4.48	-0.2014	0.3605	-0.2092	
-0.018788	-0.936594	0.295118	2.45	19.6	-5.32	-0.2115	0.3599	-0.206	
-0.000732	-0.940742	0.31476	2.38	20.58	-6.93	-0.2084	0.358	-0.2075	
0.021472	-0.909266	0.311832	2.24	23.87	-8.4	-0.2068	0.3563	-0.2061	
0.017202	-0.912072	0.330864	-0.35	28.84	-9.59	-0.2041	0.3576	-0.2061	
0.0183	-0.90524	0.316834	-1.19	29.12	-11.55	-0.2025	0.3542	-0.1988	
0.051728	-0.90829	0.344894	-3.08	32.34	-13.93	-0.204	0.3592	-0.2136	
0.08784	-0.909388	0.362584	-1.47	39.34	-17.22	-0.2086	0.3629	-0.2179	
0.06649	-0.907314	0.30744	3.43	50.26	-21.49	-0.2002	0.351	-0.221	
0.041724	-0.941596	0.246928	3.22	63.42	-25.41	-0.2031	0.3496	-0.2179	
0.051118	-1.026996	0.304024	2.73	74.62	-28.28	-0.1959	0.3521	-0.227	
0.081618	-1.004792	0.334768	15.47	82.88	-30.17	-0.2022	0.3449	-0.2357	
0.163236	-0.94916	0.313296	2.24	73.78	-30.73	-0.2003	0.3448	-0.2549	
0.169824	-0.909266	0.288286	11.62	81.34	-34.86	-0.2049	0.3326	-0.2547	
0.16897	-0.912926	0.26352	9.73	89.11	-38.15	-0.204	0.3389	-0.2592	
0.147132	-0.923296	0.257664	17.5	101.43	-44.94	-0.188	0.3247	-0.2699	
0.141276	-0.915488	0.2379	14.98	103.67	-49.28	-0.1964	0.324	-0.2756	
0.123342	-0.937692	0.226066	19.88	107.73	-54.18	-0.1902	0.3202	-0.2802	
0.064904	-0.965386	0.221918	19.53	107.17	-58.87	-0.1928	0.3189	-0.2875	
0.05734	-0.966118	0.215208	16.38	105.21	-58.24	-0.1822	0.3021	-0.3054	
0.067954	-0.985028	0.256444	13.51	108.08	-60.62	-0.1775	0.2969	-0.3025	
0.073444	-0.993446	0.26169	15.68	114.1	-61.32	-0.1856	0.2946	-0.3141	
0.075884	-0.982954	0.265838	17.22	118.79	-61.81	-0.1659	0.2896	-0.3338	
0.072834	-0.981856	0.276574	17.5	122.71	-61.88	-0.1703	0.2917	-0.3396	
0.074786	-0.939766	0.27084	23.38	127.47	-63.49	-0.1667	0.2834	-0.3381	
0.072346	-0.904508	0.27877	22.19	132.16	-66.15	-0.1565	0.2872	-0.3576	
0.06954	-0.884622	0.26718	19.88	132.86	-67.97	-0.1442	0.2781	-0.3549	
0.050508	-0.92354	0.289628	11.34	131.95	-68.18	-0.1407	0.2746	-0.3668	
0.06344	-0.898896	0.30988	20.02	137.13	-72.66	-0.1442	0.2687	-0.377	
0.025742	-0.903166	0.29768	4.13	130.9	-68.95	-0.1252	0.2526	-0.3878	
0.032696	-0.91927	0.275964	-3.15	126.28	-66.29	-0.1181	0.2376	-0.3878	
0.030256	-0.913048	0.308294	-12.32	124.46	-62.93	-0.1085	0.2446	-0.394	
0.021228	-0.923784	0.275476	-11.76	127.75	-63.07	-0.0985	0.2484	-0.4032	
0.01708	-0.963678	0.291458	-10.29	128.94	-62.23	-0.1003	0.2518	-0.4002	
0.035868	-0.947452	0.315248	-7.14	122.64	-59.78	-0.094	0.248	-0.4092	
0.006832	-0.951478	0.339404	12.25	121.03	-64.82	-0.0762	0.2415	-0.4022	
0.044652	-0.912926	0.323788	-2.73	100.17	-58.38	-0.0746	0.2413	-0.4082	
0.062952	-0.939644	0.340868	-7.07	95.62	-54.67	-0.0679	0.247	-0.4099	
0.03843	-0.911828	0.350506	-1.47	96.95	-54.74	-0.0542	0.241	-0.4176	
0.035502	-0.920368	0.34953	-9.1	92.26	-51.24	-0.0456	0.2384	-0.4074	
0.03233	-0.934764	0.339404	-14.7	86.31	-45.92	-0.0404	0.2316	-0.4149	
0.0427	-0.95282	0.345138	-16.45	86.17	-44.03	-0.0318	0.2324	-0.4151	
0.05978	-0.906094	0.352458	-11.76	89.88	-43.89	-0.0311	0.237	-0.4048	
0.016836	-0.919636	0.338916	-23.1	79.8	-47.32	-0.0146	0.2322	-0.4141	
0.040382	-0.932446	0.349652	-21.35	81.62	-44.94	-0.0185	0.2421	-0.4066	
-0.008052	-0.935618	0.317932	-15.33	79.45	-43.4	-0.0017	0.2484	-0.4086	
-0.011956	-0.924272	0.322446	-25.83	68.18	-37.66	0.0017	0.2417	-0.4101	
-0.004148	-0.93818	0.308416	-19.95	70.77	-37.66	0.0047	0.2556	-0.4088	
0.000244	-0.922198	0.304878	-11.62	76.86	-37.66	0.0104	0.255	-0.4015	
0.038186	-0.925736	0.34953	-15.96	73.71	-35.35	0.0063	0.2523	-0.4029	
0.030256	-0.913536	0.340624	-17.43	68.32	-32.83	0.0221	0.2523	-0.4003	
0.026474	-0.930738	0.32818	-18.9	65.73	-31.08	0.023	0.2585	-0.4019	
0.043554	-0.926224	0.32635	-18.9	64.47	-31.01	0.0289	0.2563	-0.3961	
0.002074	-0.93269	0.300242	-19.6	61.46	-30.94	0.0303	0.2704	-0.3889	
0.007808	-0.935618	0.30683	-20.86	58.03	-28.63	0.0279	0.2675	-0.3976	
0.038186	-0.931836	0.296216	-19.04	55.79	-26.32	0.0352	0.2636	-0.3875	
0.055998	-0.915732	0.301462	-17.29	51.8	-25.48	0.0487	0.2733	-0.3864	
0.016958	-0.920368	0.299022	-16.73	50.19	-25.76	0.0523	0.2634	-0.379	
0.037332	-0.92415	0.285968	-18.55	43.82	-23.03	0.0486	0.2733	-0.3819	
0.049898	-0.934764	0.290848	-18.2	39.2	-20.09	0.0479	0.2797	-0.3761	
0.050874	-0.95648	0.264008	-21.21	31.43	-17.64	0.0463	0.2831	-0.3834	
0.055754	-0.95221	0.279258	-15.05	30.73	-17.36	0.0502	0.2858	-0.3762	
0.037576	-0.951356	0.259372	-12.04	31.71	-16.38	0.0556	0.2868	-0.3645	
0.058804	-0.946476	0.290238	-11.41	26.74	-13.65	0.0602	0.2864	-0.3735	
0.063562	-0.943548	0.283406	-11.27	22.68	-11.48	0.0528	0.2871	-0.3703	
0.065636	-0.949526	0.292678	-11.76	19.11	-8.19	0.0568	0.2898	-0.3675	
0.083082	-0.955016	0.29829	-9.45	18.41	-5.95	0.0598	0.2896	-0.3676	
0.059902	-0.944646	0.294508	-7.7	16.94	-4.62	0.0653	0.2906	-0.3618	
0.067466	-0.951234	0.282674	-9.03	13.58	-3.64	0.0603	0.2815	-0.3616	
0.051118	-0.933788	0.275964	-3.57	13.02	-3.92	0.0682	0.2886	-0.3545	
0.047824	-0.925736	0.262422	-2.38	12.18	-3.85	0.0607	0.2942	-0.3632	
0.050386	-0.952454	0.289018	-3.92	7.14	-2.94	0.0651	0.2938	-0.3662	
0.015738	-0.966362	0.277672	-0.14	5.32	-1.54	0.0638	0.2907	-0.3588	
0.03843	-0.960506	0.277062	2.38	2.45	0.84	0.0664	0.2936	-0.3604	
0.050874	-0.956846	0.28487	3.5	-0.49	2.24	0.0617	0.2972	-0.3573	
0.050386	-0.938302	0.263032	5.53	-3.92	3.71	0.0684	0.3045	-0.3634	
0.036722	-0.943304	0.261446	5.81	-4.41	4.06	0.0685	0.2903	-0.3737	
0.02684	-0.942328	0.268766	5.6	-7.21	5.53	0.0615	0.2846	-0.3631	
0.031354	-0.946232	0.275354	6.02	-10.5	7.84	0.0689	0.2998	-0.3679	
0.049532	-0.936716	0.27267	7.84	-12.6	9.59	0.0672	0.284	-0.3559	
